t,ax,ay,az
0.0,-0.105,1.124,0.121
0.01,-0.264,0.834,0.152
0.02,-0.191,0.85,-0.089
0.03,-0.328,1.184,-0.213
0.04,-0.089,0.89,0.184
0.05,-0.124,1.042,0.064
0.06,-0.229,0.659,0.039
0.07,-0.412,1.341,-0.165
0.08,-0.113,0.814,-0.054
0.09,-0.327,1.108,0.216
0.1,-0.028,0.823,0.109
0.11,-0.46,0.922,-0.217
0.12,-0.241,1.087,-0.108
0.13,0.073,0.963,0.067
0.14,-0.215,0.994,0.134
0.15,-0.219,0.625,-0.028
0.16,-0.331,1.365,-0.245
0.17,-0.06,0.879,-0.018
0.18,-0.203,1.03,0.182
0.19,-0.042,0.821,0.04
0.2,-0.479,0.961,-0.194
0.21,-0.092,1.196,-0.029
0.22,-0.037,0.827,0.129
0.23,-0.283,1.023,0.204
0.24,-0.15,0.752,-0.111
0.25,-0.361,1.229,-0.198
0.26,-0.142,0.952,0.117
0.27,-0.066,0.942,0.104
0.28,-0.24,0.847,-0.005
0.29,-0.463,1.004,-0.137
0.3,-0.08,1.234,-0.048
0.31,-0.204,0.694,0.122
0.32,-0.088,1.067,0.138
0.33,-0.233,0.81,-0.225
0.34,-0.335,1.141,-0.024
0.35,-0.094,1.019,0.097
0.36,-0.15,0.79,0.126
0.37,-0.302,1.003,0.0
0.38,-0.283,0.895,-0.225
0.39,-0.126,1.221,0.017
0.4,-0.103,0.743,0.207
0.41,-0.208,1.024,0.1
0.42,-0.387,0.837,-0.178
0.43,-0.191,1.143,-0.097
0.44,-0.003,0.983,0.036
0.45,-0.24,0.753,0.205
0.46,-0.365,1.084,-0.055
0.47,-0.287,0.855,-0.161
0.48,-0.122,1.297,0.066
0.49,-0.083,0.707,0.116
0.5,-0.189,0.956,0.023
0.51,-0.375,1.007,-0.204
0.52,-0.071,1.025,-0.088
0.53,-0.13,1.013,0.119
0.54,-0.181,0.726,0.143
0.55,-0.352,1.13,-0.174
0.56,-0.284,0.835,-0.119
0.57,-0.154,1.271,0.142
0.58,-0.086,0.698,0.133
0.59,-0.288,0.91,0.025
0.6,-0.381,1.115,-0.182
0.61,-0.053,0.93,-0.04
0.62,-0.168,1.035,0.14
0.63,-0.103,0.719,0.135
0.64,-0.531,1.186,-0.173
0.65,-0.198,0.801,-0.044
0.66,-0.019,1.271,0.1
0.67,-0.127,0.707,0.112
0.68,-0.327,0.924,0.025
0.69,-0.329,1.21,-0.217
0.7,-0.1,0.825,-0.015
0.71,-0.044,1.106,0.093
0.72,-0.132,0.65,0.011
0.73,-0.479,1.226,-0.177
0.74,0.002,0.962,-0.086
0.75,-0.205,1.054,0.118
0.76,-0.122,0.826,0.175
0.77,-0.328,0.865,-0.166
0.78,-0.302,1.166,-0.146
0.79,-0.092,0.912,0.115
0.8,-0.141,1.064,0.077
0.81,-0.17,0.638,-0.008
0.82,-0.365,1.312,-0.164
0.83,-0.103,0.929,-0.008
0.84,-0.254,0.937,0.163
0.85,-0.038,0.924,0.101
0.86,-0.469,1.009,-0.222
0.87,-0.222,1.152,-0.018
0.88,-0.129,1.092,0.146
0.89,-0.352,0.785,-0.223
0.9,-0.244,1.236,-0.054
0.91,0.014,0.906,0.095
0.92,-0.163,0.927,0.113
0.93,-0.182,0.816,0.027
0.94,-0.289,1.165,-0.271
0.95,-0.189,1.014,0.049
0.96,-0.044,0.872,0.142
0.97,-0.222,0.977,0.061
0.98,-0.351,0.811,-0.149
0.99,-0.237,1.361,-0.013
1.0,-0.061,0.783,0.064
1.01,-0.131,0.916,0.109
1.02,-0.263,0.895,-0.049
1.03,-0.323,1.037,-0.212
1.04,-0.156,1.126,0.052
1.05,-0.024,0.792,0.174
1.06,-0.31,1.026,-0.0
1.07,-0.406,0.848,-0.152
1.08,-0.076,1.266,-0.063
1.09,-0.136,0.757,0.125
1.1,-0.204,0.935,0.205
1.11,-0.294,1.026,-0.192
1.12,-0.305,0.895,-0.141
1.13,0.055,1.284,0.091
1.14,-0.124,0.674,0.087
1.15,-0.369,1.042,0.032
1.16,-0.253,0.926,-0.229
1.17,-0.192,1.158,0.024
1.18,-0.247,0.82,0.214
1.19,-0.091,0.846,0.076
1.2,-0.373,1.094,-0.214
1.21,-0.205,0.866,-0.016
1.22,-0.094,1.192,0.072
1.23,-0.127,0.629,0.112
1.24,-0.326,1.14,-0.034
1.25,-0.368,0.904,-0.204
1.26,-0.126,1.088,0.043
1.27,-0.094,0.974,0.167
1.28,-0.175,0.744,0.02
1.29,-0.48,1.234,-0.189
1.3,-0.046,0.867,-0.081
1.31,-0.141,1.113,0.09
1.32,-0.061,0.71,0.151
1.33,-0.41,1.116,-0.133
1.34,-0.277,0.939,-0.133
1.35,-0.042,1.095,0.114
1.36,-0.159,0.869,0.135
1.37,-0.234,0.728,0.01
1.38,-0.36,1.318,-0.242
1.39,-0.081,0.775,0.025
1.4,-0.224,1.191,0.211
1.41,-0.037,0.734,0.121
1.42,-0.487,1.074,-0.2
1.43,-0.137,1.078,-0.067
1.44,-0.165,0.963,0.115
1.45,-0.198,0.975,0.169
1.46,-0.218,0.723,-0.066
1.47,-0.446,1.27,-0.211
1.48,-0.098,0.86,0.096
1.49,-0.118,1.147,0.129
1.5,-0.144,0.67,0.017
1.51,-0.449,1.095,-0.135
1.52,-0.042,1.157,-0.107
1.53,-0.168,0.767,0.108
1.54,-0.207,1.064,0.178
1.55,-0.265,0.738,-0.152
1.56,-0.362,1.223,-0.131
1.57,0.005,0.93,0.12
1.58,-0.137,0.995,0.051
1.59,-0.253,0.693,0.038
1.6,-0.327,1.275,-0.208
1.61,-0.112,0.982,-0.028
1.62,-0.164,0.894,0.237
1.63,-0.115,0.947,0.062
1.64,-0.441,0.824,-0.21
1.65,-0.137,1.265,-0.08
1.66,-0.062,0.783,0.07
1.67,-0.245,1.008,0.174
1.68,-0.261,0.792,-0.084
1.69,-0.281,1.073,-0.168
1.7,-0.088,1.11,0.072
1.71,-0.077,0.78,0.119
1.72,-0.202,0.997,0.025
1.73,-0.435,0.91,-0.16
1.74,-0.147,1.251,-0.035
1.75,-0.134,0.699,0.112
1.76,-0.114,0.973,0.141
1.77,-0.335,0.917,-0.175
1.78,-0.297,0.985,-0.074
1.79,-0.054,1.163,0.053
1.8,-0.084,0.634,0.086
1.81,-0.282,1.111,0.006
1.82,-0.289,0.872,-0.236
1.83,-0.126,1.111,-0.018
1.84,-0.122,0.855,0.174
1.85,-0.122,0.928,0.067
1.86,-0.406,1.019,-0.197
1.87,-0.15,0.981,-0.048
1.88,-0.154,1.178,0.107
1.89,-0.192,0.642,0.197
1.9,-0.316,1.13,-0.046
1.91,-0.33,0.843,-0.227
1.92,-0.087,1.188,0.048
1.93,-0.073,0.89,0.146
1.94,-0.2,0.777,0.06
1.95,-0.422,1.16,-0.159
1.96,-0.061,0.924,-0.071
1.97,-0.199,1.11,0.11
1.98,-0.172,0.667,0.156
1.99,-0.331,1.128,-0.157
2.0,-0.288,0.857,-0.162
2.01,-0.126,1.172,0.158
2.02,-0.13,0.905,0.106
2.03,-0.193,0.734,0.006
2.04,-0.41,1.29,-0.143
2.05,-0.098,0.82,-0.01
2.06,-0.202,1.105,0.164
2.07,-0.094,0.717,0.09
2.08,-0.484,1.092,-0.19
2.09,-0.216,0.97,-0.073
2.1,-0.069,1.092,0.109
2.11,-0.19,0.889,0.119
2.12,-0.197,0.772,0.012
2.13,-0.438,1.291,-0.204
2.14,-0.073,0.762,0.001
2.15,-0.103,1.17,0.138
2.16,-0.096,0.674,0.025
2.17,-0.504,1.085,-0.147
2.18,-0.129,1.083,-0.041
2.19,-0.193,0.866,0.108
2.2,-0.168,0.986,0.169
2.21,-0.215,0.802,-0.128
2.22,-0.383,1.207,-0.153
2.23,-0.094,0.867,0.138
2.24,-0.083,1.117,0.121
2.25,-0.229,0.708,-0.009
2.26,-0.451,1.119,-0.09
2.27,-0.072,1.112,-0.078
2.28,-0.207,0.805,0.149
2.29,-0.098,1.047,0.147
2.3,-0.346,0.779,-0.23
2.31,-0.316,1.268,-0.061
2.32,0.05,0.9,0.062
2.33,-0.227,0.913,0.129
2.34,-0.21,0.863,-0.017
2.35,-0.312,1.105,-0.193
2.36,-0.196,1.105,-0.016
2.37,-0.078,0.761,0.166
2.38,-0.161,1.015,0.048
2.39,-0.454,0.819,-0.154
2.4,-0.152,1.318,-0.052
2.41,-0.101,0.726,0.092
2.42,-0.204,1.009,0.2
2.43,-0.257,0.845,-0.106
2.44,-0.335,1.094,-0.142
2.45,-0.022,1.11,0.057
2.46,-0.118,0.71,0.108
2.47,-0.29,1.005,0.026
2.48,-0.334,0.938,-0.184
2.49,-0.105,1.206,-0.033
2.5,-0.222,0.749,0.139
2.51,-0.099,0.984,0.11
2.52,-0.294,0.895,-0.226
2.53,-0.249,1.001,-0.047
2.54,-0.027,1.17,0.096
2.55,-0.124,0.657,0.084
2.56,-0.344,1.09,0.006
2.57,-0.29,0.904,-0.21
2.58,-0.1,1.223,0.007
2.59,-0.172,0.825,0.131
2.6,-0.053,0.856,0.047
2.61,-0.451,1.083,-0.177
2.62,-0.151,0.988,-0.085
2.63,-0.056,1.064,0.036
2.64,-0.134,0.717,0.184
2.65,-0.439,1.137,-0.081
2.66,-0.264,0.847,-0.214
2.67,-0.038,1.205,0.048
2.68,-0.166,0.749,0.155
2.69,-0.192,0.868,0.046
2.7,-0.474,1.204,-0.19
2.71,-0.116,0.796,-0.049
2.72,-0.113,1.164,0.136
2.73,-0.167,0.738,0.148
2.74,-0.406,1.112,-0.182
2.75,-0.19,0.897,-0.081
2.76,-0.096,1.128,0.108
2.77,-0.154,0.846,0.157
2.78,-0.272,0.811,-0.03
2.79,-0.317,1.245,-0.248
2.8,-0.042,0.835,0.034
2.81,-0.208,1.213,0.208
2.82,-0.083,0.657,0.062
2.83,-0.455,1.151,-0.204
2.84,-0.076,1.016,-0.071
2.85,-0.14,0.969,0.118
2.86,-0.225,0.924,0.206
2.87,-0.274,0.828,-0.105
2.88,-0.32,1.201,-0.215
2.89,-0.061,0.898,0.158
2.9,-0.167,1.114,0.143
2.91,-0.266,0.659,0.038
2.92,-0.3,1.231,-0.157
2.93,-0.13,1.001,-0.106
2.94,-0.218,0.842,0.163
2.95,-0.036,1.052,0.102
2.96,-0.356,0.776,-0.221
2.97,-0.27,1.263,-0.056
2.98,-0.126,0.89,0.099
2.99,-0.158,0.927,0.147
3.0,-0.233,0.788,0.01
3.01,-0.301,1.149,-0.186
3.02,-0.094,1.062,-0.002
3.03,-0.227,0.813,0.225
3.04,-0.082,1.036,0.054
3.05,-0.366,0.802,-0.212
3.06,-0.265,1.294,0.005
3.07,-0.042,0.854,0.098
3.08,-0.241,0.918,0.138
3.09,-0.234,0.905,-0.076
3.1,-0.28,1.02,-0.179
3.11,-0.158,1.168,0.078
3.12,-0.108,0.759,0.139
3.13,-0.149,1.035,0.0
3.14,-0.35,0.866,-0.18
3.15,-0.207,1.227,-0.027
3.16,-0.143,0.776,0.119
3.17,-0.178,0.888,0.148
3.18,-0.338,1.004,-0.143
3.19,-0.24,0.905,-0.126
3.2,-0.116,1.215,0.096
3.21,-0.044,0.667,0.112
3.22,-0.262,1.098,0.026
3.23,-0.382,0.89,-0.211
3.24,-0.155,1.168,0.031
3.25,-0.159,0.851,0.185
3.26,-0.173,0.947,0.053
3.27,-0.309,0.878,-0.188
3.28,-0.201,1.108,-0.001
3.29,-0.175,1.069,0.098
3.3,-0.177,0.635,0.179
3.31,-0.324,1.157,-0.04
3.32,-0.312,0.843,-0.202
3.33,-0.166,1.165,0.092
3.34,-0.122,0.865,0.141
3.35,-0.136,0.867,0.014
3.36,-0.349,1.079,-0.2
3.37,-0.12,0.972,-0.083
3.38,-0.141,1.049,0.107
3.39,-0.131,0.687,0.179
3.4,-0.447,1.169,-0.121
3.41,-0.243,0.825,-0.199
3.42,-0.069,1.242,0.085
3.43,-0.125,0.796,0.154
3.44,-0.249,0.844,0.031
3.45,-0.386,1.204,-0.217
3.46,-0.115,0.83,-0.03
3.47,-0.232,1.127,0.166
3.48,-0.017,0.715,0.072
3.49,-0.448,1.124,-0.203
3.5,-0.271,0.909,-0.003
3.51,-0.07,1.167,0.057
3.52,-0.144,0.808,0.109
3.53,-0.236,0.837,0.038
3.54,-0.411,1.261,-0.222
3.55,-0.049,0.836,-0.034
3.56,-0.154,1.219,0.148
3.57,-0.112,0.603,0.034
3.58,-0.462,1.18,-0.144
3.59,-0.113,1.057,-0.11
3.6,-0.164,0.93,0.096
3.61,-0.149,0.917,0.223
3.62,-0.294,0.805,-0.124
3.63,-0.324,1.198,-0.137
3.64,-0.076,0.934,0.139
3.65,-0.213,1.109,0.089
3.66,-0.057,0.653,0.03
3.67,-0.486,1.244,-0.14
3.68,-0.126,1.025,-0.107
3.69,-0.115,0.825,0.099
3.7,-0.168,1.014,0.154
3.71,-0.413,0.73,-0.181
3.72,-0.239,1.208,-0.091
3.73,0.019,0.953,0.108
3.74,-0.243,0.899,0.132
3.75,-0.139,0.775,0.032
3.76,-0.342,1.221,-0.218
3.77,-0.132,1.0,-0.059
3.78,-0.172,0.785,0.199
3.79,-0.164,1.02,0.068
3.8,-0.386,0.751,-0.176
3.81,-0.241,1.315,-0.055
3.82,-0.002,0.852,-0.002
3.83,-0.109,0.865,0.094
3.84,-0.253,0.921,0.035
3.85,-0.303,1.018,-0.204
3.86,-0.191,1.16,0.044
3.87,-0.055,0.828,0.177
3.88,-0.218,0.998,0.0
3.89,-0.399,0.83,-0.109
3.9,-0.153,1.303,-0.079
3.91,-0.182,0.756,0.114
3.92,-0.212,0.915,0.227
3.93,-0.297,1.022,-0.111
3.94,-0.403,0.822,-0.145
3.95,-0.089,1.248,0.134
3.96,-0.087,0.755,0.105
3.97,-0.343,1.0,0.014
3.98,-0.321,0.929,-0.138
3.99,-0.148,1.2,-0.082
4.0,-0.209,0.786,0.137
4.01,-0.052,0.888,0.157
4.02,-0.399,0.908,-0.211
4.03,-0.236,1.0,0.019
4.04,-0.101,1.171,0.098
4.05,-0.213,0.623,0.128
4.06,-0.228,1.157,-0.014
4.07,-0.366,0.871,-0.228
4.08,-0.221,1.165,0.082
4.09,-0.053,0.927,0.143
4.1,-0.16,0.854,0.042
4.11,-0.368,1.049,-0.158
4.12,-0.041,1.011,-0.098
4.13,-0.199,1.098,0.071
4.14,-0.115,0.646,0.21
4.15,-0.348,1.16,-0.124
4.16,-0.356,0.801,-0.172
4.17,-0.06,1.199,0.114
4.18,-0.13,0.864,0.085
4.19,-0.203,0.802,0.029
4.2,-0.38,1.218,-0.19
4.21,-0.096,0.857,-0.079
4.22,-0.205,1.119,0.121
4.23,0.002,0.701,0.143
4.24,-0.514,1.075,-0.156
4.25,-0.25,0.86,-0.084
4.26,-0.029,1.248,0.055
4.27,-0.165,0.812,0.095
4.28,-0.239,0.767,0.046
4.29,-0.271,1.3,-0.249
4.3,-0.04,0.816,-0.036
4.31,-0.19,1.196,0.174
4.32,-0.084,0.685,0.098
4.33,-0.453,1.096,-0.198
4.34,-0.202,1.012,0.002
4.35,-0.125,1.021,0.097
4.36,-0.18,0.912,0.118
4.37,-0.157,0.766,-0.053
4.38,-0.44,1.253,-0.227
4.39,-0.139,0.81,0.082
4.4,-0.08,1.25,0.115
4.41,-0.109,0.614,-0.003
4.42,-0.462,1.096,-0.082
4.43,-0.04,1.173,-0.127
4.44,-0.167,0.86,0.025
4.45,-0.064,1.02,0.222
4.46,-0.28,0.781,-0.153
4.47,-0.4,1.185,-0.152
4.48,0.012,0.989,0.111
4.49,-0.212,1.061,0.102
4.5,-0.187,0.732,0.051
4.51,-0.292,1.199,-0.218
4.52,-0.268,1.048,-0.077
4.53,-0.226,0.704,0.189
4.54,-0.041,1.08,0.09
4.55,-0.481,0.712,-0.182
4.56,-0.176,1.21,-0.093
4.57,0.054,0.983,0.02
4.58,-0.211,0.837,0.102
4.59,-0.204,0.865,0.099
4.6,-0.374,1.066,-0.243
4.61,-0.131,1.081,-0.045
4.62,-0.127,0.869,0.199
4.63,-0.163,0.977,0.021
4.64,-0.378,0.751,-0.143
4.65,-0.127,1.359,-0.07
4.66,-0.123,0.907,0.048
4.67,-0.147,0.743,0.13
4.68,-0.167,1.026,0.017
4.69,-0.392,1.005,-0.239
4.7,-0.18,1.105,0.027
4.71,-0.014,0.856,0.141
4.72,-0.262,0.984,0.041
4.73,-0.34,0.791,-0.16
4.74,-0.079,1.285,-0.056
4.75,-0.191,0.843,0.096
4.76,-0.164,0.751,0.228
4.77,-0.263,1.116,-0.13
4.78,-0.379,0.798,-0.161
4.79,-0.11,1.254,0.135
4.8,-0.109,0.749,0.099
4.81,-0.305,0.993,0.042
4.82,-0.362,0.96,-0.138
4.83,-0.181,1.136,-0.056
4.84,-0.206,0.869,0.08
4.85,-0.031,0.92,0.109
4.86,-0.434,1.007,-0.201
4.87,-0.235,0.946,0.02
4.88,-0.083,1.249,0.056
4.89,-0.183,0.567,0.111
4.9,-0.179,1.146,0.015
4.91,-0.436,0.934,-0.188
4.92,-0.222,1.078,0.044
4.93,-0.074,0.953,0.175
4.94,-0.138,0.784,0.04
4.95,-0.468,1.088,-0.153
4.96,-0.054,0.953,-0.096
4.97,-0.132,1.144,0.05
4.98,-0.115,0.629,0.173
4.99,-0.31,1.12,-0.072
5.0,-0.333,0.876,-0.169
5.01,-0.205,1.106,0.126
5.02,-0.045,0.983,0.103
5.03,-0.225,0.704,0.019
5.04,-0.437,1.209,-0.132
5.05,-0.103,0.902,-0.057
5.06,-0.218,1.128,0.079
5.07,-0.024,0.699,0.136
5.08,-0.414,1.068,-0.139
5.09,-0.279,0.904,-0.111
5.1,-0.002,1.119,0.046
5.11,-0.184,0.929,0.167
5.12,-0.275,0.726,0.019
5.13,-0.347,1.299,-0.21
5.14,-0.068,0.792,-0.056
5.15,-0.234,1.138,0.162
5.16,-0.005,0.737,0.099
5.17,-0.458,1.025,-0.194
5.18,-0.215,1.011,-0.053
5.19,-0.013,1.014,0.051
5.2,-0.185,0.934,0.172
5.21,-0.247,0.715,0.028
5.22,-0.354,1.317,-0.257
5.23,-0.046,0.801,-0.009
5.24,-0.167,1.201,0.161
5.25,-0.144,0.701,0.097
5.26,-0.457,0.998,-0.156
5.27,-0.099,1.211,-0.074
5.28,-0.156,0.811,0.092
5.29,-0.18,1.011,0.165
5.3,-0.204,0.765,-0.091
5.31,-0.347,1.212,-0.198
5.32,-0.176,0.909,0.145
5.33,-0.111,1.075,0.121
5.34,-0.173,0.769,-0.002
5.35,-0.424,0.967,-0.114
5.36,-0.108,1.204,-0.081
5.37,-0.123,0.724,0.121
5.38,-0.158,1.054,0.181
5.39,-0.3,0.767,-0.193
5.4,-0.269,1.101,-0.168
5.41,-0.078,1.073,0.142
5.42,-0.191,0.896,0.139
5.43,-0.237,0.899,0.052
5.44,-0.319,1.031,-0.174
5.45,-0.172,1.185,-0.012
5.46,-0.215,0.668,0.155
5.47,-0.079,1.062,0.122
5.48,-0.335,0.802,-0.215
5.49,-0.258,1.115,-0.082
5.5,-0.026,1.039,0.093
5.51,-0.171,0.745,0.081
5.52,-0.239,1.027,0.045
5.53,-0.357,0.945,-0.225
5.54,-0.129,1.128,-0.016
5.55,-0.146,0.786,0.211
5.56,-0.129,1.014,0.039
5.57,-0.401,0.869,-0.204
5.58,-0.065,1.133,-0.049
5.59,-0.139,1.044,0.086
5.6,-0.227,0.661,0.204
5.61,-0.239,1.16,-0.072
5.62,-0.309,0.875,-0.189
5.63,-0.254,1.251,0.142
5.64,-0.085,0.754,0.095
5.65,-0.222,0.959,0.003
5.66,-0.321,0.953,-0.202
5.67,-0.078,1.131,-0.059
5.68,-0.19,0.861,0.176
5.69,-0.074,0.863,0.14
5.7,-0.382,1.073,-0.178
5.71,-0.25,0.872,-0.088
5.72,-0.079,1.326,0.054
5.73,-0.177,0.61,0.144
5.74,-0.3,1.062,0.036
5.75,-0.312,0.981,-0.235
5.76,-0.091,1.029,-0.044
5.77,-0.052,0.994,0.125
5.78,-0.1,0.717,0.099
5.79,-0.471,1.123,-0.157
5.8,-0.095,0.875,-0.073
5.81,-0.11,1.216,0.037
5.82,-0.116,0.645,0.128
5.83,-0.341,1.089,-0.019
5.84,-0.309,0.961,-0.21
5.85,-0.187,0.982,0.07
5.86,-0.093,1.109,0.163
5.87,-0.1,0.638,0.025
5.88,-0.444,1.22,-0.171
5.89,-0.053,0.934,-0.07
5.9,-0.092,1.091,0.062
5.91,-0.147,0.75,0.22
5.92,-0.357,1.001,-0.109
5.93,-0.306,1.02,-0.175
5.94,-0.123,1.014,0.123
5.95,-0.153,1.031,0.137
5.96,-0.188,0.655,0.015
5.97,-0.445,1.363,-0.14
5.98,-0.054,0.879,-0.058
5.99,-0.216,1.099,0.122
6.0,-0.053,0.793,0.191
6.01,-0.384,0.966,-0.196
6.02,-0.302,1.131,-0.066
6.03,-0.054,0.972,0.104
6.04,-0.193,0.969,0.112
6.05,-0.251,0.682,0.06
6.06,-0.363,1.361,-0.227
6.07,-0.062,0.784,-0.068
6.08,-0.143,1.066,0.174
6.09,-0.066,0.837,0.078
6.1,-0.47,0.889,-0.18
6.11,-0.126,1.263,-0.045
6.12,-0.053,0.863,0.078
6.13,-0.247,1.044,0.132
6.14,-0.198,0.721,-0.041
6.15,-0.412,1.208,-0.213
6.16,-0.099,0.925,0.051
6.17,-0.052,1.009,0.125
6.18,-0.22,0.902,0.025
6.19,-0.417,0.891,-0.125
6.2,-0.061,1.248,-0.074
6.21,-0.135,0.721,0.093
6.22,-0.17,1.059,0.19
6.23,-0.268,0.79,-0.131
6.24,-0.346,1.083,-0.186
6.25,-0.022,1.095,0.113
6.26,-0.103,0.784,0.124
6.27,-0.329,0.959,0.06
6.28,-0.292,0.983,-0.138
6.29,-0.18,1.255,-0.044
6.3,-0.2,0.682,0.16
6.31,-0.046,1.025,0.128
6.32,-0.37,0.871,-0.216
6.33,-0.28,1.016,-0.106
6.34,0.0,1.137,0.06
6.35,-0.13,0.676,0.121
6.36,-0.357,1.065,0.06
6.37,-0.282,0.879,-0.24
6.38,-0.121,1.175,-0.059
6.39,-0.141,0.819,0.238
6.4,-0.12,0.929,0.075
6.41,-0.412,0.919,-0.231
6.42,-0.079,1.036,-0.041
6.43,-0.176,1.165,0.071
6.44,-0.18,0.579,0.115
6.45,-0.277,1.171,-0.022
6.46,-0.305,0.879,-0.209
6.47,-0.201,1.151,0.015
6.48,-0.041,0.734,0.147
6.49,-0.306,1.017,0.002
6.5,-0.359,0.975,-0.171
6.51,-0.12,1.073,-0.048
6.52,-0.2,0.954,0.101
6.53,-0.115,0.776,0.173
6.54,-0.39,1.14,-0.173
6.55,-0.245,0.795,-0.117
6.56,-0.051,1.361,0.08
6.57,-0.154,0.645,0.131
6.58,-0.274,0.95,0.005
6.59,-0.323,1.071,-0.225
6.6,-0.116,0.916,-0.006
6.61,-0.199,1.023,0.18
6.62,-0.081,0.718,0.101
6.63,-0.477,1.162,-0.229
6.64,-0.156,0.875,-0.037
6.65,-0.127,1.236,0.08
6.66,-0.155,0.7,0.159
6.67,-0.247,0.969,-0.068
6.68,-0.331,1.066,-0.22
6.69,-0.161,0.906,0.051
6.7,-0.105,1.179,0.137
6.71,-0.063,0.627,0.008
6.72,-0.502,1.231,-0.194
6.73,0.037,0.896,-0.064
6.74,-0.222,1.112,0.082
6.75,-0.123,0.776,0.187
6.76,-0.266,0.925,-0.125
6.77,-0.365,1.118,-0.152
6.78,-0.059,0.935,0.114
6.79,-0.125,1.133,0.091
6.8,-0.176,0.58,-0.006
6.81,-0.421,1.313,-0.176
6.82,-0.056,0.897,-0.06
6.83,-0.257,0.984,0.131
6.84,-0.08,0.886,0.134
6.85,-0.391,0.879,-0.197
6.86,-0.3,1.144,-0.1
6.87,0.066,0.948,0.086
6.88,-0.174,1.018,0.107
6.89,-0.265,0.68,0.045
6.9,-0.322,1.295,-0.242
6.91,-0.139,0.907,-0.033
6.92,-0.208,0.963,0.249
6.93,-0.115,0.929,0.064
6.94,-0.448,0.844,-0.226
6.95,-0.099,1.294,-0.043
6.96,-0.116,0.824,0.096
6.97,-0.233,0.977,0.165
6.98,-0.229,0.786,-0.082
6.99,-0.286,1.137,-0.196
7.0,-0.155,1.038,0.119
7.01,-0.155,0.837,0.145
7.02,-0.126,0.938,-0.023
7.03,-0.445,0.931,-0.126
7.04,-0.159,1.26,-0.086
7.05,-0.106,0.696,0.087
7.06,-0.199,1.041,0.164
7.07,-0.261,0.83,-0.168
7.08,-0.284,1.033,-0.135
7.09,-0.04,1.113,0.084
7.1,-0.107,0.698,0.12
7.11,-0.271,1.03,-0.039
7.12,-0.334,0.888,-0.167
7.13,-0.078,1.212,-0.031
7.14,-0.101,0.792,0.112
7.15,-0.117,0.932,0.097
7.16,-0.343,0.948,-0.185
7.17,-0.247,1.052,-0.043
7.18,-0.107,1.129,0.088
7.19,-0.135,0.594,0.107
7.2,-0.275,1.143,-0.038
7.21,-0.281,0.856,-0.229
7.22,-0.081,1.133,0.013
7.23,-0.093,0.889,0.173
7.24,-0.094,0.911,0.032
7.25,-0.405,1.044,-0.198
7.26,-0.079,0.957,-0.032
7.27,-0.11,1.171,0.123
7.28,-0.221,0.623,0.154
7.29,-0.353,1.146,-0.052
7.3,-0.327,0.865,-0.104
7.31,-0.141,1.256,0.152
7.32,-0.081,0.68,0.129
7.33,-0.291,0.949,-0.058
7.34,-0.264,1.063,-0.163
7.35,-0.141,0.979,-0.013
7.36,-0.24,0.983,0.193
7.37,-0.094,0.694,0.102
7.38,-0.447,1.237,-0.231
7.39,-0.169,0.857,0.017
7.4,-0.112,1.233,0.085
7.41,-0.136,0.652,0.108
7.42,-0.228,0.991,-0.058
7.43,-0.35,1.109,-0.235
7.44,-0.104,0.859,0.068
7.45,-0.05,1.148,0.116
7.46,-0.149,0.611,-0.021
7.47,-0.519,1.252,-0.146
7.48,-0.104,0.925,-0.053
7.49,-0.12,1.069,0.051
7.5,-0.058,0.818,0.202
7.51,-0.414,0.904,-0.158
7.52,-0.243,1.091,-0.178
7.53,-0.001,0.918,0.092
7.54,-0.146,1.044,0.133
7.55,-0.223,0.683,-0.007
7.56,-0.398,1.31,-0.212
7.57,-0.069,0.85,-0.016
7.58,-0.184,1.057,0.17
7.59,-0.107,0.849,0.058
7.6,-0.403,0.875,-0.153
7.61,-0.24,1.275,-0.02
7.62,-0.06,0.822,0.085
7.63,-0.195,1.004,0.144
7.64,-0.267,0.74,-0.047
7.65,-0.376,1.199,-0.229
7.66,-0.078,0.933,0.037
7.67,-0.049,0.978,0.162
7.68,-0.224,0.91,0.017
7.69,-0.428,0.864,-0.142
7.7,-0.116,1.317,-0.054
7.71,-0.103,0.676,0.1
7.72,-0.15,1.061,0.197
7.73,-0.317,0.844,-0.172
7.74,-0.294,1.089,-0.124
7.75,0.001,1.068,0.074
7.76,-0.129,0.748,0.139
7.77,-0.353,1.038,0.03
7.78,-0.281,0.909,-0.199
7.79,-0.1,1.219,-0.045
7.8,-0.148,0.757,0.21
7.81,-0.12,0.98,0.079
7.82,-0.389,0.897,-0.217
7.83,-0.115,1.101,-0.051
7.84,-0.103,1.033,0.105
7.85,-0.26,0.714,0.188
7.86,-0.286,1.119,-0.061
7.87,-0.231,0.837,-0.232
7.88,-0.174,1.262,0.155
7.89,-0.089,0.724,0.141
7.9,-0.254,0.946,0.05
7.91,-0.435,1.109,-0.184
7.92,-0.108,0.95,-0.065
7.93,-0.202,1.014,0.124
7.94,-0.101,0.734,0.158
7.95,-0.454,1.172,-0.19
7.96,-0.254,0.847,-0.122
7.97,0.052,1.263,0.07
7.98,-0.136,0.689,0.143
7.99,-0.369,0.939,0.059
8.0,-0.29,1.169,-0.298
8.01,-0.074,0.851,-0.026
8.02,-0.112,1.172,0.173
8.03,-0.064,0.617,0.014
8.04,-0.511,1.214,-0.138
8.05,-0.044,0.964,-0.064
8.06,-0.124,1.048,0.063
8.07,-0.167,0.826,0.227
8.08,-0.319,0.896,-0.112
8.09,-0.32,1.113,-0.191
8.1,-0.094,0.941,0.147
8.11,-0.175,0.955,0.128
8.12,-0.268,0.645,0.07
8.13,-0.395,1.37,-0.185
8.14,-0.098,0.776,-0.052
8.15,-0.177,1.152,0.2
8.16,-0.101,0.734,0.098
8.17,-0.492,1.012,-0.203
8.18,-0.12,1.126,-0.111
8.19,-0.083,0.897,0.092
8.2,-0.24,0.997,0.183
8.21,-0.223,0.682,-0.082
8.22,-0.404,1.217,-0.203
8.23,-0.029,0.89,0.148
8.24,-0.19,1.101,0.122
8.25,-0.174,0.726,-0.001
8.26,-0.339,1.064,-0.193
8.27,-0.131,1.169,-0.122
8.28,-0.09,0.708,0.121
8.29,-0.131,1.105,0.148
8.3,-0.32,0.722,-0.164
8.31,-0.288,1.182,-0.128
8.32,-0.041,1.003,0.124
8.33,-0.195,0.87,0.121
8.34,-0.18,0.846,0.004
8.35,-0.365,1.072,-0.216
8.36,-0.086,1.138,-0.015
8.37,-0.177,0.729,0.204
8.38,-0.131,1.075,0.092
8.39,-0.326,0.8,-0.248
8.4,-0.157,1.235,-0.024
8.41,-0.18,0.933,0.155
8.42,-0.232,0.77,0.187
8.43,-0.208,1.025,-0.087
8.44,-0.311,0.896,-0.189
8.45,-0.172,1.221,0.096
8.46,-0.034,0.72,0.088
8.47,-0.218,1.024,0.039
8.48,-0.347,0.918,-0.211
8.49,-0.163,1.142,-0.07
8.5,-0.168,0.881,0.102
8.51,-0.127,0.779,0.185
8.52,-0.394,1.138,-0.137
8.53,-0.287,0.848,-0.124
8.54,-0.13,1.288,0.073
8.55,-0.116,0.613,0.122
8.56,-0.286,1.007,-0.006
8.57,-0.354,1.033,-0.212
8.58,-0.04,0.953,-0.01
8.59,-0.199,1.053,0.198
8.6,-0.111,0.698,0.084
8.61,-0.409,1.163,-0.197
8.62,-0.132,0.912,0.001
8.63,-0.145,1.217,0.067
8.64,-0.15,0.653,0.161
8.65,-0.282,1.057,-0.026
8.66,-0.422,1.01,-0.228
8.67,-0.17,0.911,0.119
8.68,-0.013,1.167,0.113
8.69,-0.24,0.6,-0.011
8.7,-0.444,1.24,-0.138
8.71,-0.02,0.932,-0.111
8.72,-0.216,1.044,0.071
8.73,-0.066,0.809,0.24
8.74,-0.356,0.992,-0.173
8.75,-0.355,1.003,-0.176
8.76,0.016,0.984,0.134
8.77,-0.147,1.056,0.101
8.78,-0.269,0.632,0.014
8.79,-0.345,1.33,-0.205
8.8,-0.067,0.846,-0.028
8.81,-0.277,1.049,0.209
8.82,-0.021,0.835,0.096
8.83,-0.454,0.92,-0.215
8.84,-0.184,1.214,-0.045
8.85,-0.077,0.869,0.061
8.86,-0.159,0.982,0.12
8.87,-0.226,0.733,-0.006
8.88,-0.396,1.261,-0.228
8.89,-0.132,0.874,0.033
8.9,-0.146,1.046,0.18
8.91,-0.135,0.84,0.014
8.92,-0.446,0.912,-0.162
8.93,-0.111,1.129,-0.068
8.94,-0.133,0.79,0.085
8.95,-0.162,1.05,0.165
8.96,-0.31,0.741,-0.184
8.97,-0.359,1.265,-0.092
8.98,0.032,0.888,0.09
8.99,-0.175,0.951,0.115
9.0,-0.328,0.82,-0.006
9.01,-0.182,1.072,-0.239
9.02,-0.145,1.141,-0.031
9.03,-0.195,0.743,0.238
9.04,-0.086,1.05,0.063
9.05,-0.37,0.803,-0.231
9.06,-0.16,1.281,-0.036
9.07,-0.062,0.852,0.072
9.08,-0.222,0.861,0.175
9.09,-0.219,1.015,-0.055
9.1,-0.322,0.933,-0.224
9.11,-0.198,1.173,0.088
9.12,-0.002,0.757,0.148
9.13,-0.289,1.03,0.005
9.14,-0.363,0.881,-0.164
9.15,-0.119,1.174,-0.1
9.16,-0.146,0.83,0.137
9.17,-0.167,0.852,0.21
9.18,-0.38,1.065,-0.15
9.19,-0.229,0.859,-0.1
9.2,-0.098,1.296,0.083
9.21,-0.083,0.606,0.122
9.22,-0.165,1.062,-0.057
9.23,-0.203,1.01,0.182
9.24,-0.088,0.847,0.107
9.25,-0.442,0.874,-0.215
9.26,-0.203,1.175,-0.051
9.27,-0.021,0.899,0.076
9.28,-0.204,1.0,0.106
9.29,-0.223,0.743,-0.007
9.3,-0.389,1.283,-0.195
9.31,-0.182,0.869,0.049
9.32,-0.075,1.011,0.137
9.33,-0.194,0.841,0.012
9.34,-0.468,0.914,-0.136
9.35,-0.091,1.256,-0.106
9.36,-0.155,0.721,0.104
9.37,-0.145,1.073,0.199
9.38,-0.311,0.765,-0.151
9.39,-0.288,1.101,-0.171
9.4,0.006,1.072,0.095
9.41,-0.164,0.769,0.103
9.42,-0.246,0.962,0.057
9.43,-0.288,0.971,-0.236
9.44,-0.165,1.151,0.011
9.45,-0.13,0.74,0.193
9.46,-0.137,1.017,0.061
9.47,-0.379,0.842,-0.166
9.48,-0.229,1.143,-0.073
9.49,-0.08,1.013,0.043
9.5,-0.152,0.697,0.119
9.51,-0.262,1.115,-0.045
9.52,-0.327,0.831,-0.242
9.53,-0.17,1.239,0.1
9.54,-0.064,0.785,0.144
9.55,-0.229,0.902,0.016
9.56,-0.336,1.013,-0.171
9.57,-0.138,1.094,-0.098
9.58,-0.126,0.911,0.082
9.59,-0.092,0.74,0.158
9.6,-0.44,1.128,-0.121
9.61,-0.301,0.767,-0.139
9.62,0.022,1.312,0.094
9.63,-0.156,0.584,0.133
9.64,-0.256,1.068,0.055
9.65,-0.32,0.981,-0.251
9.66,-0.126,1.007,-0.005
9.67,-0.042,1.016,0.138
9.68,-0.145,0.728,0.046
9.69,-0.389,1.156,-0.179
9.7,-0.125,0.921,-0.081
9.71,-0.181,1.154,0.124
9.72,-0.162,0.681,0.216
9.73,-0.317,1.096,-0.096
9.74,-0.369,0.936,-0.167
9.75,-0.16,1.061,0.165
9.76,-0.109,0.986,0.084
9.77,-0.245,0.667,0.035
9.78,-0.362,1.323,-0.17
9.79,-0.155,0.835,-0.073
9.8,-0.224,1.062,0.149
9.81,-0.014,0.785,0.116
9.82,-0.47,1.016,-0.183
9.83,-0.219,0.943,-0.167
9.84,-0.007,1.09,0.062
9.85,-0.182,0.94,0.096
9.86,-0.184,0.675,0.018
9.87,-0.342,1.375,-0.209
9.88,-0.13,0.821,-0.008
9.89,-0.146,1.06,0.168
9.9,-0.085,0.783,0.109
9.91,-0.539,0.989,-0.149
9.92,-0.169,1.105,-0.087
9.93,-0.048,0.917,0.085
9.94,-0.181,0.979,0.149
9.95,-0.169,0.7,-0.038
9.96,-0.391,1.326,-0.19
9.97,-0.06,0.826,0.039
9.98,-0.116,1.078,0.156
9.99,-0.171,0.78,0.038
10.0,-0.424,0.952,-0.176
10.01,-0.072,1.251,-0.085
10.02,-0.086,0.707,0.102
10.03,-0.217,1.069,0.164
10.04,-0.263,0.728,-0.127
10.05,-0.319,1.183,-0.159
10.06,-0.02,0.984,0.103
10.07,-0.127,0.861,0.142
10.08,-0.325,0.909,0.044
10.09,-0.205,0.981,-0.23
10.1,-0.18,1.195,-0.017
10.11,-0.107,0.724,0.223
10.12,-0.2,1.058,0.07
10.13,-0.342,0.785,-0.177
10.14,-0.278,1.249,-0.037
10.15,-0.047,0.941,0.046
10.16,-0.178,0.752,0.184
10.17,-0.213,1.044,-0.051
10.18,-0.348,0.896,-0.199
10.19,-0.133,1.22,0.026
10.2,-0.076,0.75,0.14
10.21,-0.235,0.986,0.028
10.22,-0.364,0.953,-0.16
10.23,-0.139,1.143,-0.097
10.24,-0.139,0.91,0.091
10.25,-0.104,0.779,0.178
10.26,-0.382,1.115,-0.141
10.27,-0.287,0.762,-0.153
10.28,-0.056,1.299,0.094
10.29,-0.148,0.696,0.118
10.3,-0.266,0.972,0.03
10.31,-0.392,1.062,-0.169
10.32,-0.104,0.979,-0.053
10.33,-0.196,1.006,0.168
10.34,-0.09,0.728,0.121
10.35,-0.478,1.159,-0.179
10.36,-0.19,0.869,-0.062
10.37,-0.042,1.255,0.08
10.38,-0.181,0.646,0.132
10.39,-0.206,0.961,-0.021
10.4,-0.365,1.138,-0.233
10.41,-0.092,0.842,0.009
10.42,-0.09,1.152,0.169
10.43,-0.161,0.662,0.041
10.44,-0.468,1.175,-0.202
10.45,-0.018,0.932,-0.073
10.46,-0.173,1.137,0.106
10.47,-0.142,0.682,0.216
10.48,-0.397,1.1,-0.141
10.49,-0.255,0.976,-0.144
10.5,-0.066,1.119,0.145
10.51,-0.172,0.933,0.127
10.52,-0.296,0.666,0.032
10.53,-0.334,1.33,-0.212
10.54,0.0,0.883,-0.036
10.55,-0.246,1.114,0.196
10.56,-0.067,0.726,0.114
10.57,-0.523,1.035,-0.208
10.58,-0.153,1.034,-0.072
10.59,-0.021,0.984,0.085
10.6,-0.267,0.981,0.135
10.61,-0.232,0.698,-0.031
10.62,-0.352,1.333,-0.196
10.63,-0.063,0.818,0.074
10.64,-0.099,1.1,0.156
10.65,-0.199,0.742,-0.019
10.66,-0.485,1.055,-0.131
10.67,-0.036,1.159,-0.08
10.68,-0.146,0.785,0.134
10.69,-0.223,1.057,0.187
10.7,-0.277,0.741,-0.171
10.71,-0.291,1.266,-0.13
10.72,-0.04,0.907,0.114
10.73,-0.182,0.913,0.131
10.74,-0.242,0.874,-0.032
10.75,-0.279,1.066,-0.2
10.76,-0.143,1.146,0.006
10.77,-0.157,0.76,0.22
10.78,-0.185,1.067,0.087
10.79,-0.412,0.788,-0.197
10.8,-0.176,1.272,-0.039
10.81,-0.073,0.857,0.119
10.82,-0.215,0.855,0.162
10.83,-0.266,1.0,-0.092
10.84,-0.328,0.938,-0.173
10.85,-0.114,1.184,0.099
10.86,-0.077,0.728,0.101
10.87,-0.247,1.019,0.002
10.88,-0.375,0.913,-0.15
10.89,-0.101,1.198,-0.029
10.9,-0.172,0.871,0.134
10.91,-0.099,0.821,0.109
10.92,-0.385,1.057,-0.172
10.93,-0.291,0.868,-0.084
10.94,-0.037,1.265,0.109
10.95,-0.158,0.626,0.101
10.96,-0.257,1.051,-0.013
10.97,-0.3,1.016,-0.232
10.98,-0.148,1.007,0.026
10.99,-0.088,0.987,0.172
11.0,-0.198,0.747,0.046
11.01,-0.465,1.19,-0.192
11.02,-0.071,0.905,-0.041
11.03,-0.187,1.134,0.099
11.04,-0.142,0.69,0.16
11.05,-0.285,1.076,-0.131
11.06,-0.29,1.005,-0.17
11.07,-0.135,1.037,0.174
11.08,-0.159,0.963,0.121
11.09,-0.284,0.678,0.022
11.1,-0.365,1.325,-0.222
11.11,-0.131,0.822,-0.018
11.12,-0.187,1.103,0.186
11.13,-0.056,0.746,0.107
11.14,-0.462,0.984,-0.195
11.15,-0.179,1.11,-0.076
11.16,-0.007,0.959,0.096
11.17,-0.262,1.0,0.128
11.18,-0.167,0.694,-0.01
11.19,-0.424,1.308,-0.213
11.2,-0.169,0.871,0.061
11.21,-0.045,1.105,0.097
11.22,-0.15,0.723,-0.021
11.23,-0.414,1.029,-0.119
11.24,-0.129,1.202,-0.08
11.25,-0.07,0.729,0.077
11.26,-0.182,1.076,0.143
11.27,-0.362,0.788,-0.188
11.28,-0.296,1.267,-0.091
11.29,0.008,0.908,0.065
11.3,-0.191,0.985,0.12
11.31,-0.24,0.759,0.026
11.32,-0.341,1.196,-0.204
11.33,-0.094,0.978,-0.023
11.34,-0.078,0.891,0.19
11.35,-0.216,0.995,0.059
11.36,-0.368,0.775,-0.159
11.37,-0.184,1.352,-0.069
11.38,-0.06,0.75,0.143
11.39,-0.242,0.987,0.178
11.4,-0.295,0.876,-0.078
11.41,-0.332,1.033,-0.148
11.42,-0.149,1.124,0.129
11.43,-0.066,0.754,0.152
11.44,-0.295,1.032,0.011
11.45,-0.307,0.862,-0.175
11.46,-0.188,1.234,-0.017
11.47,-0.184,0.747,0.142
11.48,-0.125,0.96,0.105
11.49,-0.351,0.983,-0.176
11.5,-0.265,1.026,-0.107
11.51,-0.057,1.131,0.057
11.52,-0.134,0.637,0.163
11.53,-0.296,1.118,-0.025
11.54,-0.272,0.859,-0.227
11.55,-0.095,1.156,-0.012
11.56,-0.122,0.867,0.207
11.57,-0.194,0.852,0.08
11.58,-0.431,1.113,-0.189
11.59,-0.152,0.939,-0.043
11.6,-0.148,1.163,0.099
11.61,-0.059,0.657,0.119
11.62,-0.342,1.145,-0.099
11.63,-0.239,0.88,-0.201
11.64,-0.09,1.172,0.09
11.65,-0.142,0.87,0.113
11.66,-0.26,0.79,0.023
11.67,-0.4,1.247,-0.164
11.68,-0.143,0.836,-0.009
11.69,-0.243,1.154,0.158
11.7,-0.105,0.707,0.095
11.71,-0.455,1.079,-0.191
11.72,-0.187,0.95,-0.087
11.73,-0.063,1.134,0.063
11.74,-0.109,0.827,0.108
11.75,-0.242,0.781,0.003
11.76,-0.448,1.274,-0.248
11.77,-0.034,0.788,-0.01
11.78,-0.154,1.233,0.169
11.79,-0.108,0.643,0.049
11.8,-0.448,1.133,-0.195
11.81,-0.109,1.074,-0.091
11.82,-0.128,0.872,0.106
11.83,-0.181,0.974,0.172
11.84,-0.314,0.742,-0.14
11.85,-0.326,1.241,-0.143
11.86,0.03,0.953,0.071
11.87,-0.199,0.991,0.096
11.88,-0.243,0.744,0.093
11.89,-0.324,1.203,-0.247
11.9,-0.117,0.996,-0.08
11.91,-0.163,0.819,0.204
11.92,-0.092,1.043,0.095
11.93,-0.394,0.727,-0.196
11.94,-0.231,1.275,-0.059
11.95,-0.021,0.915,0.069
11.96,-0.229,0.89,0.156
11.97,-0.218,0.871,0.0
11.98,-0.365,1.073,-0.245
11.99,-0.168,1.095,0.063
12.0,-0.078,0.84,0.136
12.01,-0.15,0.973,0.037
12.02,-0.413,0.846,-0.118
12.03,-0.173,1.28,-0.074
12.04,-0.066,0.708,0.061
12.05,-0.158,0.961,0.248
12.06,-0.395,0.94,-0.094
12.07,-0.336,0.885,-0.167
12.08,-0.06,1.266,0.07
12.09,-0.115,0.692,0.123
12.1,-0.306,1.076,0.051
12.11,-0.269,0.911,-0.257
12.12,-0.133,1.129,-0.048
12.13,-0.036,0.799,0.207
12.14,-0.211,0.986,0.069
12.15,-0.404,0.841,-0.166
12.16,-0.071,1.123,-0.085
12.17,-0.231,1.056,0.088
12.18,-0.11,0.641,0.157
12.19,-0.245,1.197,-0.094
12.2,-0.326,0.773,-0.209
12.21,-0.162,1.256,0.137
12.22,-0.067,0.804,0.104
12.23,-0.204,0.868,0.021
12.24,-0.377,1.109,-0.146
12.25,-0.122,0.954,-0.074
12.26,-0.219,1.032,0.176
12.27,-0.081,0.693,0.147
12.28,-0.417,1.155,-0.16
12.29,-0.274,0.804,-0.103
12.3,-0.069,1.295,0.104
12.31,-0.207,0.765,0.145
12.32,-0.214,0.824,0.039
12.33,-0.335,1.229,-0.21
12.34,-0.095,0.841,-0.077
12.35,-0.156,1.111,0.147
12.36,-0.06,0.692,0.096
12.37,-0.521,1.114,-0.211
12.38,-0.164,0.896,-0.036
12.39,-0.086,1.211,0.063
12.4,-0.162,0.731,0.119
12.41,-0.189,0.847,0.05
12.42,-0.417,1.253,-0.237
12.43,-0.073,0.759,0.035
12.44,-0.132,1.254,0.137
12.45,-0.153,0.619,0.021
12.46,-0.432,1.13,-0.193
12.47,-0.095,1.03,-0.06
12.48,-0.12,0.969,0.12
12.49,-0.142,0.902,0.158
12.5,-0.278,0.815,-0.108
12.51,-0.324,1.186,-0.174
12.52,-0.071,0.928,0.148
12.53,-0.173,1.094,0.127
12.54,-0.178,0.666,-0.011
12.55,-0.393,1.225,-0.152
12.56,-0.133,1.024,-0.061
12.57,-0.181,0.856,0.141
12.58,-0.088,1.0,0.145
12.59,-0.331,0.771,-0.199
12.6,-0.267,1.244,-0.092
12.61,-0.056,0.899,0.075
12.62,-0.159,0.959,0.085
12.63,-0.196,0.77,0.004
12.64,-0.409,1.139,-0.193
12.65,-0.092,1.032,-0.001
12.66,-0.111,0.907,0.202
12.67,-0.212,0.998,0.069
12.68,-0.356,0.802,-0.163
12.69,-0.178,1.338,-0.046
12.7,-0.095,0.776,0.093
12.71,-0.17,0.952,0.161
12.72,-0.251,0.909,-0.128
12.73,-0.348,0.992,-0.133
12.74,-0.068,1.141,0.074
12.75,-0.167,0.755,0.136
12.76,-0.24,1.032,0.041
12.77,-0.358,0.867,-0.185
12.78,-0.163,1.235,-0.079
12.79,-0.114,0.722,0.173
12.8,-0.087,0.945,0.148
12.81,-0.449,0.971,-0.153
12.82,-0.197,0.904,-0.119
12.83,-0.048,1.292,0.079
12.84,-0.192,0.567,0.126
12.85,-0.168,1.114,0.012
12.86,-0.382,0.987,-0.224
12.87,-0.215,1.06,0.03
12.88,-0.074,0.857,0.143
12.89,-0.166,0.851,0.075
12.9,-0.343,0.922,-0.209
12.91,-0.148,1.055,-0.046
12.92,-0.139,1.062,0.101
12.93,-0.158,0.676,0.129
12.94,-0.333,1.154,-0.047
12.95,-0.235,0.864,-0.204
12.96,-0.131,1.222,0.096
12.97,-0.062,0.736,0.095
12.98,-0.238,0.884,-0.025
12.99,-0.43,1.086,-0.137
13.0,-0.108,0.954,-0.029
13.01,-0.232,1.035,0.159
13.02,-0.149,0.731,0.139
13.03,-0.427,1.157,-0.186
13.04,-0.239,0.858,-0.09
13.05,-0.043,1.25,0.093
13.06,-0.135,0.779,0.09
13.07,-0.272,0.879,0.003
13.08,-0.376,1.179,-0.241
13.09,-0.065,0.855,-0.027
13.1,-0.202,1.149,0.227
13.11,-0.102,0.637,0.02
13.12,-0.438,1.198,-0.185
13.13,-0.092,0.976,-0.019
13.14,-0.133,1.026,0.159
13.15,-0.21,0.84,0.153
13.16,-0.29,0.881,-0.095
13.17,-0.267,1.205,-0.213
13.18,-0.084,0.894,0.106
13.19,-0.137,1.069,0.143
13.2,-0.141,0.671,0.017
13.21,-0.47,1.285,-0.147
13.22,-0.137,0.917,-0.075
13.23,-0.132,0.915,0.134
13.24,-0.075,0.944,0.146
13.25,-0.401,0.814,-0.204
13.26,-0.258,1.219,-0.092
13.27,0.003,0.926,0.08
13.28,-0.211,0.97,0.125
13.29,-0.151,0.726,0.016
13.3,-0.441,1.244,-0.201
13.31,-0.14,0.939,0.015
13.32,-0.074,0.946,0.143
13.33,-0.125,0.957,0.028
13.34,-0.39,0.841,-0.15
13.35,-0.158,1.301,-0.055
13.36,-0.11,0.732,0.12
13.37,-0.211,1.049,0.175
13.38,-0.287,0.807,-0.102
13.39,-0.369,1.051,-0.163
13.4,0.061,1.146,0.072
13.41,-0.211,0.8,0.161
13.42,-0.278,0.977,0.029
13.43,-0.333,0.951,-0.099
13.44,-0.264,1.227,-0.023
13.45,-0.141,0.7,0.131
13.46,-0.133,1.008,0.11
13.47,-0.358,0.915,-0.207
13.48,-0.237,1.061,-0.015
13.49,-0.131,1.171,0.067
13.5,-0.105,0.594,0.123
13.51,-0.244,1.136,-0.01
13.52,-0.332,0.904,-0.234
13.53,-0.137,1.137,-0.022
13.54,-0.055,0.879,0.14
13.55,-0.183,0.912,0.095
13.56,-0.41,1.008,-0.196
13.57,-0.092,0.96,-0.084
13.58,-0.213,1.13,0.151
13.59,-0.167,0.659,0.194
13.6,-0.336,1.155,-0.113
13.61,-0.298,0.836,-0.187
13.62,-0.102,1.227,0.113
13.63,-0.162,0.858,0.11
13.64,-0.174,0.794,0.033
13.65,-0.427,1.219,-0.168
13.66,-0.108,0.877,-0.094
13.67,-0.16,1.059,0.089
13.68,-0.095,0.697,0.18
13.69,-0.412,1.153,-0.16
13.7,-0.241,0.848,-0.125
13.71,-0.08,1.193,0.127
13.72,-0.105,0.677,0.129
13.73,-0.277,0.935,0.027
13.74,-0.357,1.133,-0.208
13.75,-0.06,0.907,-0.03
13.76,-0.186,1.119,0.171
13.77,-0.12,0.671,0.046
13.78,-0.456,1.234,-0.172
13.79,-0.182,0.958,-0.016
13.8,-0.099,1.115,0.094
13.81,-0.163,0.791,0.136
13.82,-0.248,0.926,-0.1
13.83,-0.338,1.123,-0.171
13.84,-0.095,0.877,0.15
13.85,-0.137,1.107,0.11
13.86,-0.188,0.623,-0.04
13.87,-0.396,1.317,-0.175
13.88,-0.114,0.955,-0.052
13.89,-0.213,0.989,0.153
13.9,-0.127,0.91,0.169
13.91,-0.358,0.859,-0.196
13.92,-0.243,1.167,-0.092
13.93,-0.041,0.89,0.142
13.94,-0.207,1.013,0.094
13.95,-0.193,0.682,0.019
13.96,-0.345,1.289,-0.231
13.97,-0.102,0.932,-0.007
13.98,-0.198,0.937,0.193
13.99,-0.151,0.911,0.087
14.0,-0.414,0.857,-0.191
14.01,-0.14,1.285,-0.057
14.02,-0.094,0.783,0.114
14.03,-0.211,0.977,0.171
14.04,-0.32,0.795,-0.087
14.05,-0.283,1.131,-0.198
14.06,-0.052,0.972,0.059
14.07,-0.138,0.891,0.174
14.08,-0.243,0.965,-0.009
14.09,-0.41,0.865,-0.187
14.1,-0.155,1.328,-0.029
14.11,-0.089,0.669,0.067
14.12,-0.09,1.001,0.109
14.13,-0.33,0.93,-0.185
14.14,-0.308,1.048,-0.098
14.15,-0.009,1.101,0.1
14.16,-0.113,0.705,0.069
14.17,-0.256,1.067,0.004
14.18,-0.36,0.902,-0.169
14.19,-0.197,1.218,0.034
14.2,-0.048,0.789,0.143
14.21,-0.204,0.922,0.051
14.22,-0.402,1.02,-0.151
14.23,-0.068,1.029,-0.119
14.24,-0.206,1.029,0.114
14.25,-0.121,0.688,0.186
14.26,-0.334,1.173,-0.171
14.27,-0.247,0.816,-0.143
14.28,-0.092,1.293,0.119
14.29,-0.126,0.776,0.143
14.3,-0.29,0.908,0.035
14.31,-0.381,1.161,-0.186
14.32,-0.117,0.867,-0.041
14.33,-0.163,1.117,0.172
14.34,-0.174,0.665,0.103
14.35,-0.385,1.135,-0.184
14.36,-0.153,0.934,-0.075
14.37,-0.17,1.127,0.098
14.38,-0.092,0.756,0.13
14.39,-0.235,0.864,-0.077
14.4,-0.401,1.164,-0.201
14.41,-0.054,0.875,0.051
14.42,-0.187,1.224,0.121
14.43,-0.076,0.595,0.031
14.44,-0.449,1.23,-0.19
14.45,-0.101,0.997,-0.065
14.46,-0.122,0.96,0.101
14.47,-0.168,0.89,0.215
14.48,-0.379,0.824,-0.12
14.49,-0.318,1.166,-0.179
14.5,-0.012,0.915,0.111
14.51,-0.159,1.047,0.121
14.52,-0.174,0.674,0.032
14.53,-0.501,1.246,-0.215
14.54,-0.046,0.808,0.009
14.55,-0.082,1.158,0.142
14.56,-0.225,0.746,0.069
14.57,-0.353,0.937,-0.146
14.58,-0.111,1.24,-0.071
14.59,-0.164,0.788,0.13
14.6,-0.148,1.036,0.139
14.61,-0.326,0.733,-0.055
14.62,-0.401,1.21,-0.184
14.63,0.033,0.936,0.077
14.64,-0.136,0.988,0.125
14.65,-0.144,0.792,0.011
14.66,-0.333,1.028,-0.231
14.67,-0.135,1.187,-0.082
14.68,-0.112,0.7,0.108
14.69,-0.139,1.106,0.147
14.7,-0.341,0.779,-0.16
14.71,-0.268,1.181,-0.156
14.72,-0.003,0.99,0.07
14.73,-0.104,0.812,0.13
14.74,-0.252,0.976,0.025
14.75,-0.411,0.958,-0.184
14.76,-0.114,1.193,0.011
14.77,-0.126,0.804,0.177
14.78,-0.238,0.99,0.045
14.79,-0.318,0.843,-0.185
14.8,-0.146,1.242,-0.084
14.81,-0.098,0.906,0.117
14.82,-0.186,0.778,0.196
14.83,-0.287,1.126,-0.075
14.84,-0.333,0.859,-0.199
14.85,-0.096,1.275,0.11
14.86,-0.115,0.733,0.136
14.87,-0.253,0.955,0.001
14.88,-0.373,1.006,-0.131
14.89,-0.221,1.074,-0.005
14.9,-0.15,0.941,0.134
14.91,-0.074,0.763,0.154
14.92,-0.411,1.138,-0.175
14.93,-0.268,0.845,-0.102
14.94,-0.022,1.293,0.073
14.95,-0.119,0.639,0.111
14.96,-0.293,0.963,0.015
14.97,-0.345,1.052,-0.207
14.98,-0.093,0.994,-0.003
14.99,-0.237,1.064,0.14
15.0,-0.075,0.65,0.057
15.01,-0.395,1.202,-0.171
15.02,-0.207,0.853,-0.043
15.03,-0.069,1.192,0.08
15.04,-0.067,0.769,0.152
15.05,-0.408,0.942,-0.042
15.06,-0.284,1.096,-0.202
15.07,-0.124,0.931,0.056
15.08,-0.182,1.105,0.141
15.09,-0.127,0.586,0.024
15.1,-0.479,1.297,-0.217
15.11,-0.04,0.917,-0.095
15.12,-0.166,1.014,0.092
15.13,-0.153,0.81,0.195
15.14,-0.33,0.903,-0.151
15.15,-0.267,1.117,-0.16
15.16,-0.011,0.904,0.099
15.17,-0.186,1.093,0.141
15.18,-0.204,0.649,-0.001
15.19,-0.382,1.308,-0.222
15.2,-0.049,0.903,-0.029
15.21,-0.168,1.062,0.207
15.22,-0.174,0.869,0.096
15.23,-0.379,0.864,-0.187
15.24,-0.138,1.304,-0.099
15.25,-0.101,0.745,0.126
15.26,-0.257,1.027,0.189
15.27,-0.228,0.772,-0.079
15.28,-0.382,1.171,-0.205
15.29,-0.147,0.953,0.127
15.3,-0.065,0.906,0.109
15.31,-0.21,0.887,0.005
15.32,-0.314,0.981,-0.134
15.33,-0.187,1.226,-0.112
15.34,-0.125,0.633,0.148
15.35,-0.132,1.119,0.114
15.36,-0.331,0.69,-0.215
15.37,-0.271,1.256,-0.044
15.38,-0.054,0.949,0.112
15.39,-0.213,0.822,0.104
15.4,-0.232,0.934,0.069
15.41,-0.363,1.01,-0.268
15.42,-0.182,1.073,0.006
15.43,-0.033,0.819,0.187
15.44,-0.209,1.058,0.051
15.45,-0.349,0.779,-0.168
15.46,-0.232,1.251,-0.038
15.47,-0.127,0.879,0.087
15.48,-0.217,0.778,0.179
15.49,-0.274,1.069,-0.03
15.5,-0.264,0.9,-0.195
15.51,-0.229,1.178,0.112
15.52,0.021,0.7,0.128
15.53,-0.263,1.035,-0.004
15.54,-0.348,0.927,-0.131
15.55,-0.17,1.155,-0.041
15.56,-0.166,0.866,0.088
15.57,-0.096,0.813,0.193
15.58,-0.373,1.1,-0.154
15.59,-0.302,0.821,-0.064
15.6,-0.054,1.339,0.109
15.61,-0.126,0.635,0.143
15.62,-0.32,0.996,0.033
15.63,-0.297,1.022,-0.248
15.64,-0.072,0.954,-0.075
15.65,-0.133,1.011,0.146
15.66,-0.082,0.753,0.11
15.67,-0.467,1.131,-0.196
15.68,-0.108,0.837,-0.037
15.69,-0.132,1.27,0.107
15.7,-0.197,0.645,0.142
15.71,-0.219,1.019,-0.063
15.72,-0.335,1.08,-0.219
15.73,-0.189,0.925,0.069
15.74,-0.123,1.128,0.145
15.75,-0.137,0.641,0.036
15.76,-0.499,1.235,-0.165
15.77,-0.006,0.915,-0.072
15.78,-0.144,1.082,0.079
15.79,-0.095,0.803,0.216
15.8,-0.335,0.98,-0.127
15.81,-0.338,1.009,-0.196
15.82,-0.099,0.973,0.161
15.83,-0.171,1.112,0.142
15.84,-0.244,0.652,-0.032
15.85,-0.346,1.333,-0.174
15.86,-0.159,0.863,-0.022
15.87,-0.248,1.027,0.183
15.88,-0.128,0.9,0.133
15.89,-0.333,0.908,-0.224
15.9,-0.305,1.213,-0.06
15.91,-0.042,0.906,0.071
15.92,-0.218,0.99,0.109
15.93,-0.239,0.675,-0.014
15.94,-0.386,1.355,-0.169
15.95,-0.048,0.929,-0.001
15.96,-0.187,0.976,0.164
15.97,-0.086,0.874,0.111
15.98,-0.472,0.915,-0.204
15.99,-0.202,1.177,-0.031
16.0,-0.049,0.797,0.129
16.01,-0.223,1.015,0.17
16.02,-0.279,0.756,-0.1
16.03,-0.29,1.168,-0.151
16.04,-0.171,1.012,0.068
16.05,-0.113,0.884,0.142
16.06,-0.15,0.932,0.02
16.07,-0.483,0.918,-0.14
16.08,-0.076,1.244,-0.095
16.09,-0.156,0.733,0.102
16.1,-0.134,1.018,0.152
16.11,-0.298,0.856,-0.172
16.12,-0.293,1.09,-0.099
16.13,-0.006,1.07,0.02
16.14,-0.153,0.683,0.16
16.15,-0.297,1.061,0.057
16.16,-0.314,0.939,-0.272
16.17,-0.092,1.097,-0.02
16.18,-0.084,0.859,0.19
16.19,-0.228,1.019,0.07
16.2,-0.37,0.781,-0.179
16.21,-0.145,1.234,-0.054
16.22,-0.096,0.964,0.073
16.23,-0.177,0.78,0.165
16.24,-0.247,1.04,-0.028
16.25,-0.344,0.9,-0.236
16.26,-0.162,1.178,0.063
16.27,-0.007,0.806,0.159
16.28,-0.252,0.97,-0.002
16.29,-0.407,0.868,-0.114
16.3,-0.146,1.155,-0.061
16.31,-0.179,0.903,0.099
16.32,-0.169,0.74,0.183
16.33,-0.28,1.173,-0.196
16.34,-0.26,0.8,-0.163
16.35,-0.19,1.271,0.159
16.36,-0.062,0.709,0.15
16.37,-0.325,0.951,-0.007
16.38,-0.362,0.976,-0.168
16.39,-0.089,1.03,-0.039
16.4,-0.23,1.009,0.088
16.41,-0.037,0.745,0.137
16.42,-0.413,1.173,-0.197
16.43,-0.29,0.854,-0.037
16.44,-0.049,1.281,0.08
16.45,-0.17,0.665,0.103
16.46,-0.232,0.966,0.039
16.47,-0.306,1.109,-0.229
16.48,-0.114,0.868,-0.021
16.49,-0.124,1.096,0.177
16.5,-0.11,0.674,0.029
16.51,-0.55,1.2,-0.141
16.52,-0.087,0.948,-0.049
16.53,-0.083,1.103,0.044
16.54,-0.169,0.769,0.208
16.55,-0.289,0.944,-0.076
16.56,-0.321,1.064,-0.219
16.57,-0.08,0.944,0.182
16.58,-0.106,1.149,0.111
16.59,-0.252,0.607,0.013
16.6,-0.485,1.3,-0.149
16.61,-0.065,0.902,-0.072
16.62,-0.232,1.034,0.098
16.63,-0.017,0.873,0.164
16.64,-0.371,0.887,-0.196
16.65,-0.324,1.15,-0.075
16.66,0.008,0.942,0.054
16.67,-0.139,1.019,0.085
16.68,-0.26,0.684,0.067
16.69,-0.388,1.327,-0.248
16.7,-0.111,0.848,-0.031
16.71,-0.127,1.012,0.18
16.72,-0.099,0.889,0.073
16.73,-0.412,0.855,-0.168
16.74,-0.166,1.258,-0.051
16.75,-0.116,0.737,0.12
16.76,-0.244,1.039,0.161
16.77,-0.198,0.796,-0.108
16.78,-0.34,1.134,-0.212
16.79,-0.176,0.994,0.13
16.8,-0.099,0.918,0.134
16.81,-0.157,0.913,0.007
16.82,-0.431,0.892,-0.163
16.83,-0.068,1.277,-0.11
16.84,-0.129,0.66,0.068
16.85,-0.144,1.068,0.204
16.86,-0.275,0.849,-0.172
16.87,-0.337,0.99,-0.167
16.88,-0.008,1.153,0.092
16.89,-0.084,0.736,0.095
16.9,-0.292,0.987,0.048
16.91,-0.311,0.972,-0.132
16.92,-0.208,1.21,-0.063
16.93,-0.221,0.686,0.183
16.94,-0.028,0.998,0.091
16.95,-0.412,0.924,-0.215
16.96,-0.266,0.981,-0.061
16.97,0.043,1.178,0.059
16.98,-0.205,0.618,0.119
16.99,-0.207,1.078,-0.01
17.0,-0.229,0.95,-0.238
17.01,-0.289,1.185,0.105
17.02,-0.031,0.717,0.128
17.03,-0.168,0.962,-0.025
17.04,-0.471,0.943,-0.126
17.05,-0.089,1.136,-0.039
17.06,-0.178,0.938,0.107
17.07,-0.2,0.744,0.22
17.08,-0.291,1.153,-0.121
17.09,-0.359,0.823,-0.166
17.1,-0.098,1.287,0.115
17.11,-0.027,0.694,0.117
17.12,-0.332,0.954,-0.01
17.13,-0.414,1.08,-0.149
17.14,-0.053,0.99,-0.071
17.15,-0.26,0.97,0.142
17.16,-0.039,0.75,0.146
17.17,-0.42,1.175,-0.183
17.18,-0.285,0.798,-0.093
17.19,-0.015,1.289,0.074
17.2,-0.082,0.708,0.084
17.21,-0.338,0.962,0.009
17.22,-0.296,1.078,-0.193
17.23,-0.144,0.931,0.002
17.24,-0.263,1.13,0.219
17.25,0.006,0.639,0.058
17.26,-0.541,1.194,-0.202
17.27,-0.142,0.898,-0.031
17.28,-0.096,1.229,0.052
17.29,-0.205,0.726,0.148
17.3,-0.219,0.925,-0.055
17.31,-0.339,1.149,-0.19
17.32,-0.204,0.885,0.132
17.33,-0.105,1.138,0.123
17.34,-0.12,0.591,-0.015
17.35,-0.46,1.287,-0.159
17.36,-0.104,0.931,-0.06
17.37,-0.187,1.022,0.085
17.38,-0.122,0.884,0.191
17.39,-0.326,0.848,-0.166
17.4,-0.3,1.157,-0.144
17.41,-0.041,0.914,0.093
17.42,-0.186,1.029,0.109
17.43,-0.263,0.642,-0.034
17.44,-0.366,1.26,-0.168
17.45,-0.031,0.919,-0.06
17.46,-0.188,0.941,0.127
17.47,-0.071,0.94,0.127
17.48,-0.389,0.822,-0.177
17.49,-0.3,1.203,-0.082
17.5,0.024,0.875,0.102
17.51,-0.265,1.007,0.141
17.52,-0.308,0.734,0.021
17.53,-0.343,1.173,-0.237
17.54,-0.043,0.985,-0.027
17.55,-0.193,0.937,0.221
17.56,-0.272,1.227,-0.202
17.57,-0.135,0.877,0.174
17.58,-0.084,1.012,0.103
17.59,-0.243,0.738,-0.048
17.6,-0.357,1.12,-0.136
17.61,-0.108,1.077,-0.055
17.62,-0.204,0.781,0.151
17.63,-0.104,1.057,0.133
17.64,-0.356,0.768,-0.226
17.65,-0.306,1.195,-0.07
17.66,0.061,0.909,0.061
17.67,-0.207,0.877,0.115
17.68,-0.271,0.865,-0.024
17.69,-0.279,1.071,-0.222
17.7,-0.149,1.086,0.02
17.71,-0.144,0.781,0.194
17.72,-0.135,1.042,0.046
17.73,-0.371,0.806,-0.196
17.74,-0.144,1.289,-0.065
17.75,-0.082,0.679,0.082
17.76,-0.214,1.019,0.148
17.77,-0.268,0.852,-0.13
17.78,-0.332,1.034,-0.115
17.79,-0.091,1.136,0.136
17.8,-0.104,0.762,0.131
17.81,-0.286,0.969,-0.01
17.82,-0.331,0.954,-0.146
17.83,-0.122,1.23,-0.084
17.84,-0.134,0.638,0.126
17.85,-0.103,1.04,0.161
17.86,-0.393,0.938,-0.216
17.87,-0.286,0.907,-0.096
17.88,0.057,1.205,0.069
17.89,-0.153,0.655,0.136
17.9,-0.345,1.082,0.01
17.91,-0.217,0.923,-0.232
17.92,-0.141,1.156,-0.009
17.93,-0.15,0.821,0.224
17.94,-0.163,0.885,0.058
17.95,-0.456,1.017,-0.215
17.96,-0.12,0.97,-0.043
17.97,-0.131,1.154,0.067
17.98,-0.178,0.678,0.164
17.99,-0.306,1.13,-0.079
18.0,-0.276,0.849,-0.163
18.01,-0.091,1.191,0.103
18.02,-0.15,0.922,0.141
18.03,-0.174,0.782,0.006
18.04,-0.476,1.145,-0.189
18.05,-0.01,0.978,-0.045
18.06,-0.21,1.125,0.115
18.07,-0.16,0.66,0.168
18.08,-0.332,1.157,-0.187
18.09,-0.291,0.889,-0.133
18.1,-0.059,1.184,0.169
18.11,-0.139,0.884,0.112
18.12,-0.305,0.763,-0.026
18.13,-0.327,1.272,-0.186
18.14,-0.091,0.872,-0.005
18.15,-0.258,1.116,0.162
18.16,-0.004,0.679,0.046
18.17,-0.468,1.135,-0.201
18.18,-0.199,1.023,0.026
18.19,-0.042,1.037,0.088
18.2,-0.234,0.868,0.13
18.21,-0.23,0.802,-0.028
18.22,-0.326,1.274,-0.205
18.23,-0.216,0.822,0.1
18.24,-0.04,1.136,0.136
18.25,-0.186,0.678,0.027
18.26,-0.551,1.104,-0.103
18.27,-0.091,1.078,-0.079
18.28,-0.102,0.848,0.066
18.29,-0.158,1.019,0.179
18.3,-0.303,0.789,-0.164
18.31,-0.359,1.233,-0.149
18.32,0.041,0.896,0.065
18.33,-0.135,0.967,0.102
18.34,-0.298,0.759,0.031
18.35,-0.319,1.166,-0.207
18.36,-0.076,1.048,-0.067
18.37,-0.192,0.808,0.154
18.38,-0.093,1.05,0.034
18.39,-0.374,0.781,-0.222
18.4,-0.175,1.291,-0.059
18.41,-0.06,0.858,0.076
18.42,-0.156,0.865,0.11
18.43,-0.277,0.904,0.001
18.44,-0.279,1.046,-0.196
18.45,-0.217,1.095,0.039
18.46,-0.055,0.727,0.163
18.47,-0.165,1.052,0.013
18.48,-0.459,0.822,-0.199
18.49,-0.062,1.162,-0.11
18.5,-0.14,0.845,0.134
18.51,-0.223,0.925,0.203
18.52,-0.293,0.944,-0.131
18.53,-0.283,0.906,-0.141
18.54,-0.108,1.287,0.101
18.55,-0.074,0.64,0.097
18.56,-0.315,1.028,0.039
18.57,-0.297,0.936,-0.211
18.58,-0.116,1.216,-0.062
18.59,-0.125,0.744,0.192
18.6,-0.135,0.97,0.084
18.61,-0.428,0.971,-0.191
18.62,-0.194,1.04,0.002
18.63,-0.074,1.124,0.04
18.64,-0.169,0.649,0.176
18.65,-0.293,1.128,-0.013
18.66,-0.346,0.843,-0.247
18.67,-0.156,1.166,0.048
18.68,-0.027,0.867,0.153
18.69,-0.231,0.838,0.02
18.7,-0.356,1.039,-0.185
18.71,-0.036,1.002,-0.082
18.72,-0.179,1.061,0.133
18.73,-0.214,0.677,0.196
18.74,-0.301,1.202,-0.15
18.75,-0.317,0.817,-0.191
18.76,-0.052,1.186,0.128
18.77,-0.095,0.873,0.125
18.78,-0.223,0.798,-0.03
18.79,-0.398,1.189,-0.114
18.8,-0.134,0.919,-0.057
18.81,-0.17,1.097,0.076
18.82,-0.005,0.738,0.153
18.83,-0.509,1.123,-0.158
18.84,-0.29,0.855,-0.095
18.85,-0.016,1.207,0.084
18.86,-0.146,0.811,0.108
18.87,-0.254,0.794,0.034
18.88,-0.29,1.28,-0.25
18.89,-0.052,0.79,-0.041
18.9,-0.142,1.178,0.203
18.91,-0.098,0.687,0.075
18.92,-0.516,1.135,-0.172
18.93,-0.14,1.04,-0.039
18.94,-0.117,0.995,0.091
18.95,-0.19,0.871,0.161
18.96,-0.194,0.784,-0.088
18.97,-0.313,1.26,-0.216
18.98,-0.089,0.875,0.118
18.99,-0.132,1.138,0.14
19.0,-0.161,0.636,0.028
19.01,-0.46,1.163,-0.128
19.02,-0.081,1.106,-0.095
19.03,-0.138,0.803,0.058
19.04,-0.14,1.019,0.198
19.05,-0.27,0.756,-0.181
19.06,-0.313,1.191,-0.178
19.07,-0.049,0.886,0.149
19.08,-0.149,1.052,0.146
19.09,-0.293,0.749,0.007
19.1,-0.256,1.111,-0.194
19.11,-0.19,1.09,-0.041
19.12,-0.25,0.787,0.209
19.13,-0.074,1.041,0.097
19.14,-0.362,0.739,-0.239
19.15,-0.181,1.282,-0.076
19.16,-0.123,0.883,0.088
19.17,-0.218,0.856,0.155
19.18,-0.17,0.928,-0.004
19.19,-0.359,1.042,-0.198
19.2,-0.223,1.081,0.033
19.21,-0.034,0.815,0.143
19.22,-0.165,1.007,0.042
19.23,-0.38,0.817,-0.135
19.24,-0.124,1.293,-0.107
19.25,-0.138,0.841,0.098
19.26,-0.147,0.845,0.165
19.27,-0.253,1.028,-0.07
19.28,-0.307,0.893,-0.19
19.29,-0.158,1.255,0.048
19.3,-0.115,0.755,0.105
19.31,-0.195,0.994,0.013
19.32,-0.316,0.933,-0.215
19.33,-0.123,1.177,-0.092
19.34,-0.124,0.872,0.124
19.35,-0.155,0.845,0.177
19.36,-0.364,1.056,-0.076
19.37,-0.258,0.975,-0.134
19.38,-0.046,1.19,0.102
19.39,-0.193,0.647,0.154
19.4,-0.306,1.059,0.019
19.41,-0.288,0.926,-0.208
19.42,-0.138,1.144,-0.04
19.43,-0.139,0.815,0.187
19.44,-0.115,0.926,0.084
19.45,-0.351,0.994,-0.207
19.46,-0.19,0.915,-0.059
19.47,-0.138,1.216,0.124
19.48,-0.167,0.657,0.135
19.49,-0.258,1.14,0.003
19.5,-0.381,0.878,-0.187
19.51,-0.181,1.142,0.058
19.52,-0.082,0.929,0.123
19.53,-0.116,0.785,0.066
19.54,-0.46,1.144,-0.158
19.55,-0.116,0.907,-0.095
19.56,-0.127,1.176,0.049
19.57,-0.142,0.673,0.213
19.58,-0.357,1.108,-0.074
19.59,-0.29,0.824,-0.194
19.6,-0.138,1.15,0.066
19.61,-0.132,0.98,0.114
19.62,-0.07,0.679,0.008
19.63,-0.432,1.233,-0.191
19.64,-0.121,0.889,-0.072
19.65,-0.157,1.129,0.08
19.66,-0.118,0.719,0.199
19.67,-0.372,1.072,-0.101
19.68,-0.32,0.883,-0.163
19.69,-0.082,1.133,0.124
19.7,-0.213,1.031,0.182
19.71,-0.191,0.621,0.006
19.72,-0.415,1.346,-0.137
19.73,-0.166,0.851,-0.031
19.74,-0.238,1.062,0.113
19.75,0.055,0.754,0.14
19.76,-0.47,1.041,-0.156
19.77,-0.315,1.007,-0.11
19.78,-0.033,1.065,0.069
19.79,-0.167,0.981,0.13
19.8,-0.214,0.665,0.066
19.81,-0.399,1.366,-0.238
19.82,-0.06,0.821,-0.048
19.83,-0.169,1.104,0.175
19.84,-0.084,0.752,0.093
19.85,-0.469,0.984,-0.163
19.86,-0.224,1.174,-0.055
19.87,-0.045,0.918,0.065
19.88,-0.231,1.034,0.137
19.89,-0.233,0.713,0.002
19.9,-0.337,1.244,-0.24
19.91,-0.087,0.87,0.004
19.92,-0.14,1.103,0.166
19.93,-0.108,0.831,0.083
19.94,-0.435,0.889,-0.155
19.95,-0.116,1.21,-0.096
19.96,-0.086,0.776,0.106
19.97,-0.195,1.031,0.159
19.98,-0.2,0.744,-0.059
19.99,-0.372,1.198,-0.197
20.0,-0.139,0.924,0.04
20.01,-0.066,1.024,0.127
20.02,-0.172,0.831,0.025
20.03,-0.432,0.902,-0.12
20.04,-0.038,1.297,-0.128
20.05,-0.084,0.728,0.096
20.06,-0.213,1.096,0.193
20.07,-0.235,0.779,-0.118
20.08,-0.362,1.114,-0.154
20.09,-0.137,1.043,0.14
20.1,-0.155,0.847,0.145
20.11,-0.225,0.912,0.014
20.12,-0.392,0.975,-0.125
20.13,-0.13,1.267,-0.082
20.14,-0.089,0.665,0.104
20.15,-0.085,1.047,0.142
20.16,-0.252,0.898,-0.203
20.17,-0.289,1.002,-0.156
20.18,-0.086,1.103,0.093
20.19,-0.085,0.865,0.07
20.2,-0.311,0.929,0.041
20.21,-0.243,1.009,-0.219
20.22,-0.105,1.171,-0.025
20.23,-0.189,0.739,0.204
20.24,-0.077,1.05,0.083
20.25,-0.415,0.8,-0.205
20.26,-0.217,1.122,-0.067
20.27,-0.048,0.99,0.057
20.28,-0.19,0.732,0.113
20.29,-0.276,1.036,-0.007
20.3,-0.31,0.908,-0.217
20.31,-0.219,1.19,0.053
20.32,-0.038,0.787,0.16
20.33,-0.128,0.989,0.048
20.34,-0.479,0.889,-0.16
20.35,-0.057,1.135,-0.126
20.36,-0.109,0.965,0.005
20.37,-0.236,0.744,0.236
20.38,-0.287,1.142,-0.088
20.39,-0.312,0.799,-0.196
20.4,-0.189,1.244,0.138
20.41,-0.015,0.718,0.091
20.42,-0.316,0.934,0.044
20.43,-0.305,1.053,-0.176
20.44,-0.171,1.061,-0.083
20.45,-0.201,0.925,0.077
20.46,-0.078,0.78,0.215
20.47,-0.435,1.134,-0.155
20.48,-0.339,0.785,-0.127
20.49,0.043,1.314,0.061
20.5,-0.173,0.746,0.16
20.51,-0.262,0.9,0.076
20.52,-0.311,1.182,-0.192
20.53,-0.229,0.877,-0.053
20.54,-0.233,1.031,0.157
20.55,-0.035,0.753,0.102
20.56,-0.478,1.142,-0.165
20.57,-0.264,0.783,-0.058
20.58,-0.013,1.295,0.076
20.59,-0.145,0.722,0.131
20.6,-0.302,0.853,0.061
20.61,-0.27,1.241,-0.237
20.62,-0.148,0.775,-0.031
20.63,-0.212,1.139,0.224
20.64,-0.039,0.694,0.095
20.65,-0.506,1.123,-0.174
20.66,-0.219,0.924,-0.003
20.67,-0.081,1.163,0.061
20.68,-0.165,0.796,0.14
20.69,-0.229,0.87,0.022
20.7,-0.395,1.225,-0.256
20.71,-0.202,0.774,0.043
20.72,-0.077,1.274,0.129
20.73,-0.082,0.655,0.051
20.74,-0.537,1.084,-0.172
20.75,0.055,0.994,-0.084
20.76,-0.141,1.042,0.086
20.77,-0.236,0.86,0.154
20.78,-0.166,0.806,-0.088
20.79,-0.357,1.229,-0.203
20.8,-0.194,0.867,0.103
20.81,-0.077,1.162,0.111
20.82,-0.153,0.63,0.007
20.83,-0.454,1.167,-0.19
20.84,-0.016,1.079,-0.078
20.85,-0.201,0.827,0.06
20.86,-0.149,0.972,0.198
20.87,-0.236,0.818,-0.145
20.88,-0.345,1.181,-0.181
20.89,-0.068,0.928,0.117
20.9,-0.121,1.039,0.166
20.91,-0.258,0.723,0.018
20.92,-0.376,1.187,-0.16
20.93,-0.093,1.074,-0.073
20.94,-0.277,0.792,0.163
20.95,-0.033,1.057,0.129
20.96,-0.344,0.775,-0.229
20.97,-0.345,1.209,-0.058
20.98,0.027,0.956,0.043
20.99,-0.123,0.91,0.08
21.0,-0.207,0.782,0.017
21.01,-0.359,1.208,-0.224
21.02,-0.143,0.933,0.007
21.03,-0.123,0.924,0.204
21.04,-0.119,0.927,0.079
21.05,-0.429,0.847,-0.167
21.06,-0.119,1.306,-0.069
21.07,-0.12,0.739,0.068
21.08,-0.17,0.997,0.211
21.09,-0.247,0.866,-0.068
21.1,-0.368,1.057,-0.163
21.11,-0.182,1.062,0.056
21.12,-0.037,0.844,0.103
21.13,-0.187,0.964,0.015
21.14,-0.411,0.885,-0.145
21.15,-0.138,1.246,-0.117
21.16,-0.114,0.729,0.118
21.17,-0.191,0.988,0.217
21.18,-0.32,0.902,-0.114
21.19,-0.269,0.952,-0.169
21.2,-0.068,1.192,0.095
21.21,-0.198,0.688,0.163
21.22,-0.283,1.058,0.046
21.23,-0.314,0.96,-0.218
21.24,-0.21,1.145,-0.022
21.25,-0.14,0.788,0.147
21.26,-0.061,0.933,0.141
21.27,-0.416,0.953,-0.162
21.28,-0.267,0.918,-0.047
21.29,-0.055,1.276,0.032
21.3,-0.162,0.572,0.098
21.31,-0.298,1.125,0.027
21.32,-0.28,0.932,-0.238
21.33,-0.152,1.092,0.018
21.34,-0.098,0.81,0.206
21.35,-0.1,0.97,0.027
21.36,-0.399,0.919,-0.179
21.37,-0.155,1.039,-0.012
21.38,-0.108,1.107,0.042
21.39,-0.19,0.646,0.135
21.4,-0.315,1.196,-0.029
21.41,-0.327,0.865,-0.203
21.42,-0.226,1.171,0.07
21.43,0.008,0.824,0.149
21.44,-0.173,0.9,0.014
21.45,-0.485,1.049,-0.155
21.46,0.005,0.973,-0.094
21.47,-0.194,1.066,0.11
21.48,-0.196,0.676,0.201
21.49,-0.328,1.168,-0.165
21.5,-0.313,0.812,-0.162
21.51,-0.082,1.243,0.11
21.52,-0.082,0.815,0.145
21.53,-0.308,0.831,0.052
21.54,-0.387,1.212,-0.16
21.55,-0.051,0.899,-0.028
21.56,-0.247,1.126,0.119
21.57,0.016,0.706,0.116
21.58,-0.44,1.193,-0.168
21.59,-0.271,0.89,-0.068
21.6,0.001,1.184,0.08
21.61,-0.185,0.802,0.102
21.62,-0.302,0.828,0.055
21.63,-0.325,1.272,-0.226
21.64,-0.077,0.796,0.012
21.65,-0.191,1.218,0.204
21.66,-0.094,0.651,0.062
21.67,-0.447,1.128,-0.173
21.68,-0.15,1.022,-0.05
21.69,-0.029,0.991,0.068
21.7,-0.249,0.937,0.159
21.71,-0.265,0.799,-0.043
21.72,-0.361,1.246,-0.206
21.73,-0.102,0.805,0.114
21.74,-0.109,1.187,0.126
21.75,-0.179,0.66,0.021
21.76,-0.46,1.114,-0.16
21.77,-0.04,1.059,-0.101
21.78,-0.157,0.868,0.106
21.79,-0.196,0.982,0.182
21.8,-0.283,0.793,-0.133
21.81,-0.367,1.142,-0.118
21.82,-0.04,0.889,0.135
21.83,-0.156,1.072,0.12
21.84,-0.273,0.645,-0.028
21.85,-0.339,1.26,-0.188
21.86,-0.04,0.953,-0.016
21.87,-0.194,0.947,0.169
21.88,-0.104,0.917,0.076
21.89,-0.371,0.856,-0.22
21.9,-0.233,1.264,-0.033
21.91,-0.054,0.846,0.106
21.92,-0.201,1.009,0.097
21.93,-0.27,0.745,-0.039
21.94,-0.314,1.218,-0.146
21.95,-0.143,1.016,0.048
21.96,-0.1,0.901,0.177
21.97,-0.168,0.95,-0.006
21.98,-0.425,0.886,-0.134
21.99,-0.264,1.269,-0.059
22.0,-0.053,0.679,0.075
22.01,-0.179,1.062,0.125
22.02,-0.298,0.816,-0.159
22.03,-0.274,1.072,-0.097
22.04,-0.097,1.128,0.11
22.05,-0.145,0.667,0.134
22.06,-0.276,1.066,0.038
22.07,-0.344,0.906,-0.208
22.08,-0.157,1.204,-0.054
22.09,-0.123,0.78,0.192
22.1,-0.165,0.954,0.073
22.11,-0.41,0.931,-0.192
22.12,-0.123,1.025,-0.094
22.13,-0.112,1.117,0.036
22.14,-0.137,0.646,0.158
22.15,-0.304,1.15,-0.024
22.16,-0.291,0.825,-0.215
22.17,-0.225,1.205,0.105
22.18,-0.064,0.846,0.143
22.19,-0.171,0.877,0.025
22.2,-0.367,1.046,-0.201
22.21,-0.138,0.95,-0.1
22.22,-0.149,1.034,0.098
22.23,-0.171,0.713,0.204
22.24,-0.424,1.167,-0.095
22.25,-0.32,0.768,-0.161
22.26,-0.11,1.251,0.165
22.27,-0.121,0.864,0.106
22.28,-0.151,0.787,-0.009
22.29,-0.453,1.219,-0.152
22.3,-0.102,0.922,-0.067
22.31,-0.238,1.091,0.13
22.32,-0.056,0.683,0.191
22.33,-0.428,1.167,-0.209
22.34,-0.29,0.825,-0.118
22.35,-0.015,1.241,0.105
22.36,-0.133,0.832,0.113
22.37,-0.272,0.784,0.069
22.38,-0.331,1.314,-0.246
22.39,-0.139,0.771,-0.026
22.4,-0.224,1.159,0.209
22.41,-0.086,0.67,0.081
22.42,-0.469,1.111,-0.251
22.43,-0.144,0.987,-0.041
22.44,-0.094,1.044,0.062
22.45,-0.133,0.854,0.111
22.46,-0.224,0.796,-0.034
22.47,-0.386,1.285,-0.203
22.48,-0.064,0.801,0.034
22.49,-0.137,1.214,0.123
22.5,-0.135,0.607,0.051
22.51,-0.466,1.138,-0.145
22.52,-0.05,1.092,-0.092
22.53,-0.125,0.829,0.057
22.54,-0.155,1.002,0.223
22.55,-0.291,0.766,-0.186
22.56,-0.323,1.171,-0.164
22.57,-0.028,0.962,0.116
22.58,-0.138,1.038,0.099
22.59,-0.195,0.687,0.01
22.6,-0.344,1.21,-0.149
22.61,-0.156,1.095,-0.059
22.62,-0.181,0.728,0.138
22.63,-0.064,0.927,0.058
22.64,-0.425,0.827,-0.252
22.65,-0.255,1.236,-0.001
22.66,-0.048,0.857,0.08
22.67,-0.22,0.971,0.107
22.68,-0.159,0.764,-0.0
22.69,-0.336,1.215,-0.219
22.7,-0.227,0.956,0.02
22.71,-0.083,0.928,0.196
22.72,-0.171,0.932,0.033
22.73,-0.461,0.829,-0.166
22.74,-0.083,1.302,-0.08
22.75,-0.107,0.778,0.095
22.76,-0.239,0.981,0.233
22.77,-0.193,0.853,-0.111
22.78,-0.367,1.033,-0.195
22.79,-0.037,1.113,0.063
22.8,-0.077,0.797,0.13
22.81,-0.283,1.001,0.034
22.82,-0.351,0.93,-0.16
22.83,-0.118,1.205,-0.087
22.84,-0.228,0.759,0.152
22.85,-0.131,0.982,0.186
22.86,-0.291,0.919,-0.177
22.87,-0.372,0.933,-0.099
22.88,0.035,1.187,0.021
22.89,-0.128,0.668,0.117
22.9,-0.346,1.041,0.065
22.91,-0.277,0.933,-0.209
22.92,-0.115,1.169,-0.033
22.93,-0.211,0.787,0.149
22.94,-0.076,0.932,0.14
22.95,-0.383,1.058,-0.21
22.96,-0.255,0.885,-0.07
22.97,-0.006,1.204,0.038
22.98,-0.123,0.62,0.132
22.99,-0.322,1.097,0.014
23.0,-0.296,0.937,-0.21
23.01,-0.146,1.111,-0.015
23.02,-0.126,0.914,0.19
23.03,-0.099,0.821,0.094
23.04,-0.456,1.106,-0.194
23.05,-0.028,0.922,-0.056
23.06,-0.149,1.203,0.056
23.07,-0.168,0.566,0.185
23.08,-0.212,1.154,-0.109
23.09,-0.286,0.906,-0.215
23.1,-0.213,1.1,0.097
23.11,-0.062,1.002,0.156
23.12,-0.168,0.706,-0.03
23.13,-0.442,1.229,-0.129
23.14,-0.047,0.916,-0.102
23.15,-0.236,1.151,0.11
23.16,-0.06,0.691,0.208
23.17,-0.413,1.084,-0.137
23.18,-0.3,0.865,-0.177
23.19,-0.055,1.152,0.119
23.2,-0.205,0.944,0.111
23.21,-0.185,0.664,0.073
23.22,-0.292,1.369,-0.186
23.23,-0.164,0.841,-0.066
23.24,-0.213,1.098,0.132
23.25,0.011,0.782,0.138
23.26,-0.483,0.988,-0.191
23.27,-0.223,0.947,-0.098
23.28,0.031,1.118,0.112
23.29,-0.241,0.942,0.116
23.3,-0.211,0.646,0.052
23.31,-0.29,1.412,-0.216
23.32,-0.196,0.789,-0.048
23.33,-0.126,1.073,0.158
23.34,-0.031,0.798,0.073
23.35,-0.487,0.91,-0.205
23.36,-0.167,1.108,-0.042
23.37,0.015,0.989,0.041
23.38,-0.249,0.921,0.098
23.39,-0.228,0.732,0.04
23.4,-0.319,1.322,-0.254
23.41,-0.161,0.829,-0.009
23.42,-0.06,1.042,0.175
23.43,-0.138,0.811,0.025
23.44,-0.504,0.909,-0.141
23.45,-0.042,1.095,-0.079
23.46,-0.166,0.845,0.06
23.47,-0.126,0.976,0.174
23.48,-0.238,0.825,-0.159
23.49,-0.364,1.194,-0.157
23.5,-0.094,0.883,0.149
23.51,-0.055,1.014,0.11
23.52,-0.273,0.759,0.007
23.53,-0.374,1.129,-0.159
23.54,-0.133,1.097,-0.058
23.55,-0.197,0.744,0.146
23.56,-0.188,1.077,0.177
23.57,-0.28,0.771,-0.192
23.58,-0.345,1.208,-0.14
23.59,0.011,0.918,0.111
23.6,-0.123,0.957,0.127
23.61,-0.371,0.814,0.009
23.62,-0.245,1.058,-0.169
23.63,-0.104,1.172,-0.034
23.64,-0.229,0.723,0.179
23.65,-0.095,1.084,0.087
23.66,-0.374,0.79,-0.213
23.67,-0.236,1.212,-0.005
23.68,-0.048,0.924,0.082
23.69,-0.181,0.84,0.126
23.7,-0.313,0.997,-0.001
23.71,-0.358,0.946,-0.193
23.72,-0.138,1.141,-0.02
23.73,-0.044,0.754,0.165
23.74,-0.223,1.011,0.017
23.75,-0.456,0.86,-0.168
23.76,-0.049,1.208,-0.087
23.77,-0.12,0.85,0.09
23.78,-0.183,0.819,0.213
23.79,-0.34,1.092,-0.136
23.8,-0.284,0.794,-0.145
23.81,-0.066,1.303,0.129
23.82,-0.147,0.671,0.15
23.83,-0.311,1.022,0.059
23.84,-0.281,0.993,-0.222
23.85,-0.115,1.028,-0.052
23.86,-0.238,0.965,0.214
23.87,-0.055,0.771,0.081
23.88,-0.462,1.104,-0.189
23.89,-0.137,0.879,-0.041
23.9,-0.174,1.276,0.074
23.91,-0.084,0.62,0.104
23.92,-0.278,1.068,0.026
23.93,-0.385,1.015,-0.249
23.94,-0.068,0.952,0.005
23.95,-0.143,1.111,0.141
23.96,-0.104,0.673,0.077
23.97,-0.436,1.205,-0.178
23.98,-0.092,0.889,-0.068
23.99,-0.145,1.148,0.074
24.0,-0.131,0.73,0.185
24.01,-0.329,1.018,-0.099
24.02,-0.317,0.991,-0.185
24.03,-0.168,1.026,0.136
24.04,-0.131,1.074,0.132
24.05,-0.186,0.606,0.043
24.06,-0.432,1.333,-0.146
24.07,-0.11,0.826,-0.02
24.08,-0.235,1.124,0.173
24.09,-0.077,0.703,0.121
24.1,-0.421,1.133,-0.202
24.11,-0.245,0.984,-0.055
24.12,-0.119,1.071,0.102
24.13,-0.135,0.915,0.095
24.14,-0.212,0.769,0.021
24.15,-0.433,1.323,-0.219
24.16,-0.114,0.761,0.025
24.17,-0.15,1.264,0.157
24.18,-0.123,0.665,0.084
24.19,-0.395,1.055,-0.171
24.2,-0.184,1.092,-0.095
24.21,-0.077,0.877,0.066
24.22,-0.267,1.012,0.202
24.23,-0.202,0.712,-0.086
24.24,-0.404,1.252,-0.182
24.25,-0.069,0.874,0.077
24.26,-0.187,1.076,0.127
24.27,-0.174,0.639,0.054
24.28,-0.401,1.342,-0.191
24.29,-0.177,0.886,-0.07
24.3,-0.218,0.889,0.148
24.31,-0.072,0.942,0.123
24.32,-0.408,0.819,-0.209
24.33,-0.251,1.134,-0.132
24.34,-0.015,0.974,0.096
24.35,-0.194,1.012,0.134
24.36,-0.148,0.686,0.035
24.37,-0.405,1.268,-0.2
24.38,-0.167,0.914,-0.028
24.39,-0.108,0.893,0.155
24.4,-0.159,1.001,0.116
24.41,-0.414,0.772,-0.227
24.42,-0.246,1.258,-0.108
24.43,0.042,0.876,0.068
24.44,-0.173,0.922,0.124
24.45,-0.255,0.805,0.065
24.46,-0.353,1.177,-0.222
24.47,-0.106,0.988,-0.018
24.48,-0.136,0.855,0.18
24.49,-0.101,0.992,0.052
24.5,-0.426,0.828,-0.188
24.51,-0.157,1.291,-0.08
24.52,0.009,0.782,0.044
24.53,-0.252,0.965,0.207
24.54,-0.267,0.896,-0.06
24.55,-0.24,1.013,-0.178
24.56,-0.184,1.151,0.098
24.57,-0.153,0.734,0.167
24.58,-0.23,1.033,0.008
24.59,-0.388,0.907,-0.166
24.6,-0.137,1.204,-0.05
24.61,-0.155,0.784,0.157
24.62,-0.108,0.947,0.147
24.63,-0.368,0.989,-0.135
24.64,-0.254,0.907,-0.107
24.65,-0.056,1.246,0.026
24.66,-0.119,0.612,0.137
24.67,-0.278,1.09,0.053
24.68,-0.353,0.914,-0.23
24.69,-0.077,1.094,-0.026
24.7,-0.135,0.864,0.185
24.71,-0.179,0.826,0.088
24.72,-0.356,1.103,-0.187
24.73,-0.177,0.922,-0.037
24.74,-0.147,1.228,0.086
24.75,-0.098,0.596,0.123
24.76,-0.289,1.128,-0.032
24.77,-0.384,0.936,-0.185
24.78,-0.141,1.076,0.059
24.79,-0.074,1.004,0.108
24.8,-0.173,0.738,0.037
24.81,-0.442,1.19,-0.174
24.82,-0.021,0.929,-0.085
24.83,-0.178,1.128,0.067
24.84,-0.116,0.668,0.196
24.85,-0.336,1.105,-0.099
24.86,-0.342,0.914,-0.158
24.87,-0.126,1.048,0.149
24.88,-0.1,1.01,0.105
24.89,-0.259,0.703,-0.009
24.9,-0.424,1.304,-0.134
24.91,-0.056,0.869,-0.033
24.92,-0.227,1.117,0.109
24.93,-0.014,0.769,0.12
24.94,-0.437,1.047,-0.164
24.95,-0.282,1.004,-0.115
24.96,0.01,1.035,0.056
24.97,-0.187,0.953,0.121
24.98,-0.291,0.708,0.041
24.99,-0.387,1.325,-0.217
25.0,-0.085,0.785,-0.03
25.01,-0.156,1.109,0.205
25.02,-0.066,0.753,0.046
25.03,-0.504,1.033,-0.187
25.04,-0.096,1.112,-0.07
25.05,-0.138,0.932,0.107
25.06,-0.191,0.991,0.087
25.07,-0.171,0.729,-0.097
25.08,-0.317,1.213,-0.181
25.09,-0.057,0.908,0.125
25.1,-0.165,1.078,0.142
25.11,-0.247,0.642,0.031
25.12,-0.374,1.245,-0.148
25.13,-0.082,1.02,-0.052
25.14,-0.291,0.853,0.188
25.15,-0.043,1.01,0.093
25.16,-0.366,0.778,-0.211
25.17,-0.254,1.278,-0.054
25.18,-0.048,0.898,0.102
25.19,-0.195,0.939,0.093
25.2,-0.226,0.807,0.039
25.21,-0.365,1.176,-0.232
25.22,-0.168,1.003,0.038
25.23,-0.064,0.907,0.177
25.24,-0.204,0.998,0.053
25.25,-0.395,0.784,-0.134
25.26,-0.139,1.371,-0.039
25.27,-0.115,0.763,0.075
25.28,-0.235,0.913,0.206
25.29,-0.218,0.913,-0.082
25.3,-0.355,1.031,-0.183
25.31,-0.168,1.118,0.058
25.32,-0.0,0.762,0.136
25.33,-0.267,0.995,-0.003
25.34,-0.423,0.875,-0.131
25.35,-0.075,1.292,-0.091
25.36,-0.17,0.71,0.107
25.37,-0.133,0.916,0.215
25.38,-0.36,1.046,-0.198
25.39,-0.278,0.835,-0.143
25.4,-0.072,1.292,0.151
25.41,-0.149,0.666,0.119
25.42,-0.331,1.052,0.021
25.43,-0.285,0.947,-0.16
25.44,-0.189,1.141,0.002
25.45,-0.221,0.805,0.196
25.46,-0.063,0.86,0.093
25.47,-0.389,1.1,-0.253
25.48,-0.198,0.872,0.003
25.49,-0.089,1.209,0.093
25.5,-0.156,0.6,0.148
25.51,-0.313,1.126,-0.048
25.52,-0.328,0.908,-0.212
25.53,-0.175,1.062,0.051
25.54,-0.048,0.958,0.155
25.55,-0.084,0.747,0.01
25.56,-0.536,1.178,-0.18
25.57,0.005,0.89,-0.071
25.58,-0.175,1.175,0.078
25.59,-0.212,0.65,0.214
25.6,-0.282,1.088,-0.136
25.61,-0.296,0.951,-0.158
25.62,-0.147,1.101,0.145
25.63,-0.107,0.948,0.108
25.64,-0.257,0.692,0.008
25.65,-0.365,1.33,-0.211
25.66,-0.121,0.799,-0.027
25.67,-0.228,1.114,0.169
25.68,-0.052,0.727,0.095
25.69,-0.447,1.027,-0.2
25.7,-0.262,1.048,-0.053
25.71,-0.015,1.017,0.07
25.72,-0.126,0.924,0.103
25.73,-0.242,0.714,-0.046
25.74,-0.293,1.297,-0.245
25.75,-0.037,0.806,-0.003
25.76,-0.084,1.135,0.157
25.77,-0.118,0.711,0.044
25.78,-0.464,1.075,-0.168
25.79,-0.089,1.162,-0.081
25.8,-0.154,0.804,0.115
25.81,-0.199,1.054,0.223
25.82,-0.298,0.754,-0.15
25.83,-0.334,1.184,-0.17
25.84,-0.026,0.915,0.118
25.85,-0.184,0.974,0.157
25.86,-0.243,0.785,0.006
25.87,-0.355,1.121,-0.191
25.88,-0.149,1.113,-0.009
25.89,-0.224,0.742,0.155
25.9,-0.131,1.06,-0.047
25.91,-0.181,0.802,0.186
25.92,-0.087,0.856,0.08
25.93,-0.469,1.072,-0.19
25.94,-0.222,0.865,-0.039
25.95,-0.059,1.226,0.052
25.96,-0.164,0.614,0.129
25.97,-0.253,1.115,-0.038
25.98,-0.267,0.926,-0.276
25.99,-0.163,1.066,0.071
26.0,-0.058,0.974,0.163
26.01,-0.177,0.742,0.02
26.02,-0.42,1.179,-0.189
26.03,-0.058,0.925,-0.049
26.04,-0.173,1.1,0.142
26.05,-0.16,0.683,0.22
26.06,-0.398,1.109,-0.137
26.07,-0.33,0.936,-0.202
26.08,0.041,1.097,0.087
26.09,-0.146,0.945,0.118
26.1,-0.298,0.703,0.034
26.11,-0.361,1.284,-0.227
26.12,-0.093,0.823,-0.032
26.13,-0.17,1.188,0.18
26.14,-0.073,0.662,0.082
26.15,-0.485,1.072,-0.159
26.16,-0.139,1.119,-0.083
26.17,-0.05,0.961,0.057
26.18,-0.219,0.95,0.201
26.19,-0.225,0.707,-0.076
26.2,-0.361,1.309,-0.171
26.21,-0.066,0.867,0.123
26.22,-0.145,1.104,0.071
26.23,-0.181,0.685,-0.001
26.24,-0.406,1.116,-0.133
26.25,-0.068,1.184,-0.099
26.26,-0.252,0.732,0.123
26.27,-0.038,1.065,0.145
26.28,-0.302,0.784,-0.231
26.29,-0.328,1.221,-0.107
26.3,0.045,0.939,0.101
26.31,-0.181,0.926,0.104
26.32,-0.264,0.863,0.03
26.33,-0.284,1.079,-0.294
26.34,-0.145,1.096,-0.041
26.35,-0.084,0.832,0.217
26.36,-0.174,1.035,0.014
26.37,-0.35,0.75,-0.201
26.38,-0.177,1.303,-0.059
26.39,-0.018,0.813,0.091
26.4,-0.294,0.911,0.222
26.41,-0.271,0.948,-0.084
26.42,-0.282,0.948,-0.218
26.43,-0.077,1.272,0.101
26.44,-0.046,0.689,0.14
26.45,-0.277,1.041,0.013
26.46,-0.363,0.924,-0.142
26.47,-0.196,1.188,-0.047
26.48,-0.161,0.84,0.147
26.49,-0.121,0.888,0.14
26.5,-0.393,1.024,-0.182
26.51,-0.258,0.893,-0.041
26.52,-0.034,1.301,0.071
26.53,-0.069,0.561,0.106
26.54,-0.334,1.096,0.058
26.55,-0.258,0.941,-0.261
26.56,-0.162,1.049,-0.024
26.57,-0.09,0.99,0.138
26.58,-0.082,0.782,0.031
26.59,-0.505,1.158,-0.184
26.6,-0.034,0.89,-0.073
26.61,-0.18,1.169,0.103
26.62,-0.19,0.69,0.226
26.63,-0.29,1.092,-0.099
26.64,-0.354,0.804,-0.148
26.65,-0.006,1.289,0.068
26.66,-0.143,0.766,0.087
26.67,-0.262,0.846,0.088
26.68,-0.356,1.263,-0.204
26.69,-0.155,0.786,-0.048
26.7,-0.236,1.145,0.239
26.71,-0.046,0.677,0.061
26.72,-0.582,1.101,-0.156
26.73,-0.066,0.957,-0.068
26.74,-0.119,1.139,0.094
26.75,-0.215,0.77,0.151
26.76,-0.139,0.88,-0.068
26.77,-0.361,1.21,-0.233
26.78,-0.192,0.845,0.132
26.79,-0.084,1.229,0.105
26.8,-0.11,0.613,0.013
26.81,-0.442,1.211,-0.141
26.82,-0.075,0.973,-0.135
26.83,-0.149,0.915,0.092
26.84,-0.146,0.989,0.206
26.85,-0.29,0.795,-0.193
26.86,-0.343,1.138,-0.161
26.87,-0.003,0.976,0.157
26.88,-0.168,1.078,0.14
26.89,-0.296,0.642,0.054
26.9,-0.297,1.246,-0.233
26.91,-0.157,0.961,-0.069
26.92,-0.123,0.881,0.156
26.93,-0.043,1.038,0.09
26.94,-0.409,0.753,-0.188
26.95,-0.246,1.267,-0.059
26.96,-0.019,0.93,0.065
26.97,-0.268,0.94,0.12
26.98,-0.178,0.768,-0.027
26.99,-0.317,1.176,-0.193
27.0,-0.197,1.032,0.039
27.01,-0.019,0.861,0.145
27.02,-0.151,0.98,0.065
27.03,-0.462,0.838,-0.152
27.04,-0.134,1.311,-0.083
27.05,-0.074,0.74,0.064
27.06,-0.219,0.986,0.239
27.07,-0.26,0.869,-0.123
27.08,-0.29,0.99,-0.165
27.09,-0.124,1.199,0.127
27.1,-0.128,0.758,0.115
27.11,-0.255,0.994,0.008
27.12,-0.289,0.953,-0.177
27.13,-0.233,1.254,-0.035
27.14,-0.163,0.678,0.152
27.15,-0.061,0.972,0.132
27.16,-0.403,0.98,-0.192
27.17,-0.274,0.931,-0.079
27.18,-0.077,1.23,0.06
27.19,-0.153,0.614,0.109
27.2,-0.263,1.104,0.006
27.21,-0.282,0.93,-0.242
27.22,-0.138,1.077,-0.006
27.23,-0.141,0.898,0.192
27.24,-0.149,0.871,0.073
27.25,-0.412,1.025,-0.205
27.26,-0.066,0.997,-0.049
27.27,-0.07,1.22,0.082
27.28,-0.262,0.59,0.189
27.29,-0.273,1.119,-0.06
27.3,-0.294,0.919,-0.237
27.31,-0.155,1.103,0.129
27.32,0.019,0.933,0.095
27.33,-0.234,0.742,-0.013
27.34,-0.5,1.176,-0.069
27.35,-0.094,0.92,-0.035
27.36,-0.289,1.1,0.082
27.37,-0.017,0.74,0.18
27.38,-0.407,1.172,-0.188
27.39,-0.413,0.855,-0.098
27.4,0.048,1.134,0.068
27.41,-0.074,0.907,0.087
27.42,-0.291,0.8,0.048
27.43,-0.338,1.295,-0.245
27.44,-0.102,0.781,-0.06
27.45,-0.216,1.157,0.213
27.46,-0.077,0.642,0.008
27.47,-0.542,1.218,-0.202
27.48,-0.04,0.913,-0.04
27.49,-0.123,1.107,0.097
27.5,-0.179,0.777,0.153
27.51,-0.214,0.878,-0.133
27.52,-0.311,1.136,-0.159
27.53,-0.118,0.907,0.1
27.54,-0.134,1.123,0.163
27.55,-0.243,0.632,-0.016
27.56,-0.422,1.262,-0.138
27.57,-0.054,0.949,-0.056
27.58,-0.227,0.928,0.112
27.59,-0.087,0.927,0.153
27.6,-0.322,0.906,-0.203
27.61,-0.298,1.167,-0.156
27.62,0.109,0.884,0.094
27.63,-0.196,1.044,0.156
27.64,-0.406,0.676,0.057
27.65,-0.223,1.258,-0.244
27.66,-0.099,0.968,-0.011
27.67,-0.186,0.909,0.229
27.68,-0.145,0.886,-0.001
27.69,-0.505,0.837,-0.189
27.7,0.027,1.318,-0.072
27.71,-0.054,0.821,0.073
27.72,-0.318,0.955,0.233
27.73,-0.137,0.802,-0.109
27.74,-0.393,1.149,-0.166
27.75,-0.131,1.029,0.165
27.76,-0.054,0.805,0.072
27.77,-0.348,0.976,-0.017
27.78,-0.331,0.907,-0.171
27.79,-0.086,1.269,-0.056
27.8,-0.221,0.674,0.149
27.81,-0.072,1.036,0.102
27.82,-0.321,0.904,-0.234
27.83,-0.323,1.002,-0.04
27.84,0.062,1.158,0.113
27.85,-0.212,0.673,0.064
27.86,-0.311,1.065,-0.002
27.87,-0.214,0.916,-0.215
27.88,-0.219,1.186,0.026
27.89,-0.079,0.741,0.254
27.9,-0.104,0.962,-0.02
27.91,-0.51,0.938,-0.258
27.92,0.035,1.032,-0.019
27.93,-0.12,1.128,0.109
27.94,-0.264,0.633,0.172
27.95,-0.286,1.194,-0.096
27.96,-0.39,0.886,-0.223
27.97,-0.022,1.166,0.124
27.98,-0.073,0.775,0.165
27.99,-0.402,0.871,-0.014
28.0,-0.266,1.138,-0.192
28.01,-0.118,0.953,0.006
28.02,-0.256,1.002,0.2
28.03,0.026,0.685,0.116
28.04,-0.532,1.229,-0.238
28.05,-0.19,0.834,-0.029
28.06,-0.025,1.194,0.125
28.07,-0.288,0.788,0.166
28.08,-0.231,0.894,-0.017
28.09,-0.227,1.222,-0.294
28.1,-0.163,0.791,0.061
28.11,-0.093,1.137,0.163
28.12,-0.14,0.595,-0.037
28.13,-0.518,1.208,-0.189
28.14,0.105,0.986,-0.051
28.15,-0.224,0.965,0.118
28.16,-0.237,0.862,0.248
28.17,-0.282,0.872,-0.14
28.18,-0.362,1.189,-0.159
28.19,0.0,0.884,0.161
28.2,-0.123,1.08,0.141
28.21,-0.353,0.644,0.012
28.22,-0.279,1.262,-0.221
28.23,-0.055,1.002,-0.047
28.24,-0.212,0.913,0.254
28.25,-0.157,0.937,0.082
28.26,-0.421,0.861,-0.206
28.27,-0.099,1.168,-0.041
28.28,-0.083,0.798,0.071
28.29,-0.245,1.076,0.186
28.3,-0.264,0.721,-0.134
28.31,-0.3,1.261,-0.133
28.32,-0.062,0.899,0.088
28.33,-0.125,0.847,0.089
28.34,-0.24,0.877,0.019
28.35,-0.417,1.043,-0.175
28.36,-0.089,1.117,-0.044
28.37,-0.174,0.756,0.209
28.38,-0.145,1.062,0.085
28.39,-0.382,0.8,-0.207
28.4,-0.293,1.236,-0.037
28.41,-0.05,0.881,0.077
28.42,-0.105,0.836,0.156
28.43,-0.322,1.015,-0.028
28.44,-0.312,0.888,-0.178
28.45,-0.107,1.224,0.057
28.46,-0.16,0.735,0.144
28.47,-0.147,1.025,0.012
28.48,-0.417,0.925,-0.169
28.49,-0.271,1.128,0.01
28.5,-0.141,0.878,0.137
28.51,-0.127,0.84,0.111
28.52,-0.344,1.041,-0.159
28.53,-0.287,0.898,-0.07
28.54,-0.097,1.244,0.074
28.55,-0.133,0.621,0.102
28.56,-0.226,1.048,0.041
28.57,-0.387,0.955,-0.261
28.58,-0.117,0.988,-0.01
28.59,-0.08,1.061,0.143
28.6,-0.148,0.7,0.059
28.61,-0.413,1.172,-0.137
28.62,-0.071,0.917,-0.106
28.63,-0.12,1.151,0.086
28.64,-0.111,0.722,0.184
28.65,-0.388,1.019,-0.074
28.66,-0.316,0.933,-0.185
28.67,-0.07,1.07,0.139
28.68,-0.192,1.063,0.114
28.69,-0.145,0.637,0.008
28.7,-0.407,1.337,-0.154
28.71,-0.144,0.867,-0.059
28.72,-0.169,1.071,0.1
28.73,-0.135,0.79,0.154
28.74,-0.418,1.003,-0.162
28.75,-0.245,0.999,-0.128
28.76,-0.059,1.032,0.105
28.77,-0.173,0.967,0.098
28.78,-0.238,0.665,0.022
28.79,-0.424,1.334,-0.21
28.8,-0.025,0.81,-0.051
28.81,-0.19,1.138,0.215
28.82,-0.178,0.786,0.104
28.83,-0.47,0.954,-0.197
28.84,-0.099,1.137,-0.092
28.85,-0.09,0.899,0.118
28.86,-0.235,1.014,0.149
28.87,-0.283,0.699,-0.055
28.88,-0.322,1.244,-0.198
28.89,-0.055,0.928,0.102
28.9,-0.154,0.983,0.128
28.91,-0.203,0.802,0.032
28.92,-0.406,1.075,-0.159
28.93,-0.151,1.134,-0.093
28.94,-0.065,0.777,0.128
28.95,-0.122,1.1,0.103
28.96,-0.285,0.691,-0.212
28.97,-0.294,1.234,-0.042
28.98,-0.052,0.961,0.074
28.99,-0.152,0.856,0.163
29.0,-0.295,0.925,0.03
29.01,-0.307,1.009,-0.223
29.02,-0.12,1.146,-0.003
29.03,-0.116,0.78,0.171
29.04,-0.081,1.062,0.029
29.05,-0.343,0.785,-0.199
29.06,-0.302,1.204,-0.019
29.07,-0.042,0.909,0.104
29.08,-0.282,0.803,0.167
29.09,-0.229,0.892,-0.088
29.1,-0.302,0.979,-0.161
29.11,-0.219,1.195,0.176
29.12,-0.064,0.688,0.123
29.13,-0.323,1.038,0.027
29.14,-0.266,0.937,-0.173
29.15,-0.094,1.196,-0.099
29.16,-0.171,0.73,0.136
29.17,-0.039,0.945,0.144
29.18,-0.374,0.969,-0.239
29.19,-0.278,0.896,-0.063
29.2,-0.073,1.247,0.085
29.21,-0.11,0.64,0.089
29.22,-0.257,1.1,0.028
29.23,-0.335,0.927,-0.21
29.24,-0.152,1.074,0.017
29.25,-0.101,0.908,0.156
29.26,-0.141,0.818,0.058
29.27,-0.431,1.109,-0.181
29.28,-0.062,0.994,-0.076
29.29,-0.138,1.15,0.082
29.3,-0.177,0.663,0.2
29.31,-0.304,1.154,-0.089
29.32,-0.261,0.877,-0.203
29.33,-0.089,1.165,0.121
29.34,-0.113,0.876,0.108
29.35,-0.244,0.766,0.049
29.36,-0.413,1.279,-0.152
29.37,-0.081,0.836,-0.075
29.38,-0.279,1.155,0.166
29.39,-0.077,0.683,0.147
29.4,-0.412,1.079,-0.218
29.41,-0.227,0.937,-0.08
29.42,-0.094,1.131,0.085
29.43,-0.129,0.814,0.048
29.44,-0.177,0.761,0.049
29.45,-0.412,1.351,-0.236
29.46,-0.117,0.744,-0.007
29.47,-0.128,1.223,0.139
29.48,-0.076,0.656,0.087
29.49,-0.487,1.08,-0.162
29.5,-0.068,1.106,-0.081
29.51,-0.164,0.936,0.088
29.52,-0.178,0.927,0.149
29.53,-0.171,0.753,-0.043
29.54,-0.404,1.286,-0.213
29.55,-0.13,0.847,0.09
29.56,-0.075,1.198,0.117
29.57,-0.172,0.67,0.02
29.58,-0.446,1.08,-0.094
29.59,-0.122,1.146,-0.081
29.6,-0.106,0.758,0.021
29.61,-0.133,1.054,0.207
29.62,-0.283,0.764,-0.134
29.63,-0.35,1.159,-0.19
29.64,0.02,0.957,0.06
29.65,-0.082,1.011,0.109
29.66,-0.287,0.779,0.027
29.67,-0.336,1.075,-0.19
29.68,-0.124,1.12,-0.044
29.69,-0.117,0.765,0.144
29.7,-0.135,1.07,0.132
29.71,-0.288,0.815,-0.17
29.72,-0.353,1.254,-0.064
29.73,0.036,0.861,0.028
29.74,-0.166,0.902,0.161
29.75,-0.278,0.942,-0.037
29.76,-0.332,0.965,-0.246
29.77,-0.091,1.143,0.006
29.78,-0.126,0.817,0.181
29.79,-0.239,1.001,0.094
29.8,-0.31,0.797,-0.179
29.81,-0.132,1.28,-0.073
29.82,-0.192,0.792,0.085
29.83,-0.15,0.843,0.213
29.84,-0.302,1.078,-0.099
29.85,-0.376,0.863,-0.189
29.86,-0.147,1.219,0.094
29.87,-0.071,0.752,0.137
29.88,-0.201,0.993,0.014
29.89,-0.342,0.95,-0.134
29.9,-0.118,1.184,-0.098
29.91,-0.161,0.713,0.113
29.92,-0.081,0.991,0.16
29.93,-0.387,0.929,-0.19
29.94,-0.239,0.924,-0.122
29.95,-0.033,1.21,0.047
29.96,-0.105,0.605,0.102
29.97,-0.341,1.091,0.053
29.98,-0.315,0.898,-0.198
29.99,-0.108,1.136,-0.065
30.0,-0.126,0.838,0.148
30.01,-0.079,0.858,0.07
30.02,-0.413,1.057,-0.206
30.03,-0.12,0.956,-0.062
30.04,-0.094,1.131,0.06
30.05,-0.147,0.643,0.189
30.06,-0.323,1.141,-0.032
30.07,-0.283,0.828,-0.232
30.08,-0.197,1.132,0.055
30.09,-0.067,0.927,0.145
30.1,-0.153,0.78,0.052
30.11,-0.461,1.162,-0.145
30.12,-0.156,0.927,-0.079
30.13,-0.099,1.12,0.042
30.14,-0.09,0.694,0.203
30.15,-0.334,1.114,-0.11
30.16,-0.301,0.81,-0.125
30.17,-0.132,1.2,0.116
30.18,-0.132,0.944,0.084
30.19,-0.1,0.717,0.014
30.2,-0.42,1.273,-0.163
30.21,-0.077,0.881,-0.066
30.22,-0.229,1.157,0.09
30.23,-0.103,0.677,0.165
30.24,-0.369,1.075,-0.174
30.25,-0.254,0.954,-0.164
30.26,-0.067,1.122,0.114
30.27,-0.142,0.936,0.104
30.28,-0.254,0.687,0.003
30.29,-0.386,1.327,-0.2
30.3,-0.081,0.822,-0.032
30.31,-0.272,1.155,0.164
30.32,-0.056,0.726,0.106
30.33,-0.427,1.049,-0.225
30.34,-0.221,1.044,-0.047
30.35,-0.085,1.011,0.061
30.36,-0.147,0.921,0.113
30.37,-0.215,0.736,0.034
30.38,-0.369,1.31,-0.238
30.39,-0.15,0.789,0.026
30.4,-0.117,1.187,0.145
30.41,-0.122,0.702,0.052
30.42,-0.472,1.03,-0.152
30.43,-0.082,1.178,-0.072
30.44,-0.104,0.844,0.074
30.45,-0.235,1.001,0.208
30.46,-0.174,0.701,-0.109
30.47,-0.391,1.28,-0.19
30.48,-0.045,0.84,0.05
30.49,-0.094,1.091,0.128
30.5,-0.148,0.755,0.042
30.51,-0.477,1.051,-0.137
30.52,-0.072,1.169,-0.085
30.53,-0.164,0.784,0.085
30.54,-0.198,1.061,0.19
30.55,-0.274,0.724,-0.149
30.56,-0.312,1.202,-0.195
30.57,0.025,0.976,0.058
30.58,-0.146,0.922,0.12
30.59,-0.255,0.842,0.038
30.6,-0.35,1.05,-0.147
30.61,-0.166,1.196,-0.077
30.62,-0.1,0.664,0.124
30.63,-0.128,1.09,0.138
30.64,-0.338,0.783,-0.196
30.65,-0.245,1.136,-0.119
30.66,-0.021,1.017,0.107
30.67,-0.195,0.812,0.151
30.68,-0.248,0.978,-0.02
30.69,-0.258,0.987,-0.186
30.7,-0.181,1.172,-0.033
30.71,-0.088,0.721,0.207
30.72,-0.139,1.04,0.049
30.73,-0.438,0.8,-0.168
30.74,-0.137,1.282,-0.013
30.75,-0.098,0.831,0.078
30.76,-0.169,0.872,0.175
30.77,-0.234,0.958,-0.053
30.78,-0.361,1.004,-0.15
30.79,-0.223,1.145,0.081
30.8,-0.006,0.763,0.128
30.81,-0.234,0.986,-0.024
30.82,-0.403,0.901,-0.124
30.83,-0.068,1.253,-0.068
30.84,-0.222,0.74,0.08
30.85,-0.119,0.878,0.196
30.86,-0.34,1.094,-0.162
30.87,-0.349,0.819,-0.154
30.88,-0.038,1.275,0.087
30.89,-0.103,0.692,0.149
30.9,-0.393,1.033,0.029
30.91,-0.249,0.938,-0.199
30.92,-0.112,1.108,-0.063
30.93,-0.304,0.849,0.241
30.94,0.047,0.867,0.11
30.95,-0.429,1.092,-0.222
30.96,-0.289,0.856,0.004
30.97,-0.046,1.29,0.04
30.98,-0.146,0.58,0.115
30.99,-0.265,1.077,0.058
31.0,-0.292,1.009,-0.227
31.01,-0.168,0.988,-0.037
31.02,-0.145,0.982,0.201
31.03,-0.039,0.741,0.091
31.04,-0.532,1.153,-0.189
31.05,-0.047,0.856,-0.042
31.06,-0.13,1.264,0.047
31.07,-0.208,0.614,0.162
31.08,-0.203,1.085,-0.04
31.09,-0.317,0.99,-0.22
31.1,-0.235,0.984,0.095
31.11,-0.046,1.071,0.113
31.12,-0.097,0.672,0.011
31.13,-0.523,1.236,-0.16
31.14,0.023,0.878,-0.102
31.15,-0.17,1.165,0.084
31.16,-0.171,0.725,0.165
31.17,-0.284,1.008,-0.124
31.18,-0.371,1.027,-0.16
31.19,0.017,1.009,0.091
31.2,-0.106,1.018,0.11
31.21,-0.279,0.646,0.044
31.22,-0.464,1.339,-0.146
31.23,-0.073,0.845,-0.045
31.24,-0.247,1.111,0.147
31.25,-0.012,0.804,0.137
31.26,-0.439,0.964,-0.181
31.27,-0.268,1.066,-0.093
31.28,0.011,0.958,0.09
31.29,-0.194,1.031,0.144
31.3,-0.219,0.658,0.004
31.31,-0.373,1.362,-0.219
31.32,-0.074,0.853,0.001
31.33,-0.24,1.108,0.166
31.34,-0.047,0.799,0.081
31.35,-0.453,0.969,-0.166
31.36,-0.248,1.213,-0.056
31.37,-0.075,0.835,0.091
31.38,-0.216,1.014,0.114
31.39,-0.254,0.715,0.012
31.4,-0.372,1.273,-0.251
31.41,-0.139,0.875,0.02
31.42,-0.134,1.052,0.199
31.43,-0.153,0.833,0.026
31.44,-0.452,0.875,-0.13
31.45,-0.029,1.335,-0.079
31.46,-0.107,0.711,0.094
31.47,-0.267,1.024,0.221
31.48,-0.204,0.776,-0.126
31.49,-0.297,1.153,-0.222
31.5,-0.137,0.987,0.137
31.51,-0.088,0.879,0.118
31.52,-0.306,0.93,0.007
31.53,-0.336,0.968,-0.096
31.54,-0.098,1.068,-0.058
31.55,-0.116,0.755,0.158
31.56,-0.121,1.083,0.087
31.57,-0.391,0.746,-0.186
31.58,-0.262,1.229,-0.084
31.59,-0.025,0.913,0.06
31.6,-0.173,0.873,0.148
31.61,-0.251,0.921,-0.042
31.62,-0.316,0.99,-0.214
31.63,-0.203,1.188,0.039
31.64,-0.071,0.769,0.155
31.65,-0.159,1.021,0.038
31.66,-0.338,0.871,-0.195
31.67,-0.172,1.208,-0.043
31.68,-0.128,0.812,0.112
31.69,-0.195,0.872,0.208
31.7,-0.339,1.042,-0.084
31.71,-0.253,0.902,-0.173
31.72,-0.177,1.23,0.11
31.73,-0.041,0.701,0.155
31.74,-0.298,1.02,0.025
31.75,-0.283,0.92,-0.185
31.76,-0.123,1.154,-0.044
31.77,-0.198,0.854,0.14
31.78,-0.052,0.848,0.149
31.79,-0.384,1.071,-0.187
31.8,-0.286,0.841,-0.1
31.81,-0.02,1.316,0.051
31.82,-0.109,0.624,0.1
31.83,-0.25,1.024,0.02
31.84,-0.376,0.948,-0.206
31.85,-0.058,1.046,-0.025
31.86,-0.195,1.02,0.216
31.87,-0.101,0.723,0.098
31.88,-0.406,1.181,-0.162
31.89,-0.07,0.89,-0.086
31.9,-0.179,1.26,0.059
31.91,-0.132,0.656,0.172
31.92,-0.257,1.014,-0.102
31.93,-0.321,0.93,-0.187
31.94,-0.122,1.058,0.101
31.95,-0.133,1.029,0.082
31.96,-0.133,0.653,0.035
31.97,-0.373,1.321,-0.16
31.98,-0.129,0.901,-0.124
31.99,-0.14,1.069,0.1
32.0,-0.071,0.764,0.209
32.01,-0.411,1.0,-0.121
32.02,-0.264,0.993,-0.151
32.03,-0.087,1.076,0.097
32.04,-0.22,1.003,0.113
32.05,-0.096,0.626,0.023
32.06,-0.438,1.384,-0.204
32.07,-0.079,0.812,-0.048
32.08,-0.253,1.115,0.194
32.09,-0.029,0.799,0.108
32.1,-0.461,0.923,-0.149
32.11,-0.269,1.106,-0.088
32.12,-0.018,1.005,0.065
32.13,-0.22,0.984,0.12
32.14,-0.19,0.64,0.068
32.15,-0.38,1.371,-0.245
32.16,-0.116,0.802,0.028
32.17,-0.153,1.094,0.162
32.18,-0.103,0.837,0.085
32.19,-0.457,0.934,-0.188
32.2,-0.215,1.227,-0.044
32.21,-0.053,0.836,0.065
32.22,-0.184,1.026,0.139
32.23,-0.246,0.735,-0.023
32.24,-0.417,1.258,-0.213
32.25,-0.074,0.842,0.02
32.26,-0.099,1.036,0.156
32.27,-0.23,0.837,0.034
32.28,-0.381,0.9,-0.166
32.29,-0.104,1.291,-0.076
32.3,-0.104,0.716,0.104
32.31,-0.147,1.047,0.181
32.32,-0.312,0.771,-0.159
32.33,-0.323,1.102,-0.173
32.34,0.021,1.086,0.073
32.35,-0.115,0.935,0.093
32.36,-0.291,0.844,0.047
32.37,-0.321,1.08,-0.25
32.38,-0.086,1.057,-0.082
32.39,-0.115,0.794,0.204
32.4,-0.172,1.003,0.06
32.41,-0.369,0.78,-0.165
32.42,-0.176,1.314,-0.055
32.43,-0.072,0.844,0.052
32.44,-0.185,0.874,0.18
32.45,-0.257,0.952,-0.061
32.46,-0.358,0.909,-0.207
32.47,-0.138,1.149,0.06
32.48,-0.051,0.819,0.134
32.49,-0.208,0.997,0.008
32.5,-0.399,0.842,-0.108
32.51,-0.194,1.233,-0.083
32.52,-0.122,0.803,0.114
32.53,-0.144,0.922,0.232
32.54,-0.385,0.995,-0.151
32.55,-0.303,0.83,-0.102
32.56,0.008,1.304,0.015
32.57,-0.131,0.63,0.068
32.58,-0.241,1.069,0.066
32.59,-0.342,0.968,-0.188
32.6,-0.197,1.05,-0.047
32.61,-0.156,0.882,0.147
32.62,-0.062,0.838,0.077
32.63,-0.409,1.031,-0.222
32.64,-0.174,0.879,-0.01
32.65,-0.037,1.278,0.058
32.66,-0.192,0.616,0.153
32.67,-0.265,1.093,0.011
32.68,-0.255,1.003,-0.252
32.69,-0.152,1.02,0.024
32.7,-0.155,1.036,0.181
32.71,-0.1,0.739,0.033
32.72,-0.493,1.163,-0.197
32.73,-0.026,0.924,-0.06
32.74,-0.092,1.189,0.067
32.75,-0.219,0.653,0.204
32.76,-0.25,1.102,-0.056
32.77,-0.355,0.98,-0.174
32.78,-0.108,0.957,0.059
32.79,-0.05,1.031,0.148
32.8,-0.224,0.713,0.046
32.81,-0.532,1.221,-0.16
32.82,-0.057,0.885,-0.066
32.83,-0.173,1.167,0.109
32.84,-0.177,0.738,0.224
32.85,-0.361,0.987,-0.159
32.86,-0.261,1.033,-0.195
32.87,0.046,1.041,0.099
32.88,-0.209,0.994,0.128
32.89,-0.251,0.639,0.053
32.9,-0.418,1.349,-0.227
32.91,-0.115,0.796,-0.052
32.92,-0.138,1.146,0.182
32.93,-0.132,0.736,0.113
32.94,-0.511,0.982,-0.18
32.95,-0.069,1.122,-0.103
32.96,-0.142,0.889,0.088
32.97,-0.212,0.994,0.175
32.98,-0.149,0.721,-0.055
32.99,-0.389,1.266,-0.209
33.0,-0.157,0.838,0.124
33.01,-0.065,1.074,0.098
33.02,-0.226,0.802,0.045
33.03,-0.403,0.978,-0.137
33.04,-0.111,1.186,-0.068
33.05,-0.184,0.763,0.099
33.06,-0.11,1.047,0.173
33.07,-0.256,0.749,-0.165
33.08,-0.34,1.187,-0.141
33.09,0.027,0.978,0.083
33.1,-0.159,0.908,0.143
33.11,-0.305,0.874,0.057
33.12,-0.328,1.004,-0.175
33.13,-0.146,1.171,-0.018
33.14,-0.193,0.743,0.178
33.15,-0.085,1.057,0.07
33.16,-0.377,0.788,-0.193
33.17,-0.175,1.337,-0.047
33.18,-0.036,0.833,0.057
33.19,-0.238,0.897,0.127
33.2,-0.158,0.844,-0.056
33.21,-0.365,1.08,-0.204
33.22,-0.114,1.083,0.039
33.23,-0.029,0.802,0.146
33.24,-0.263,0.984,0.009
33.25,-0.436,0.836,-0.114
33.26,-0.151,1.34,-0.054
33.27,-0.171,0.779,0.054
33.28,-0.138,0.928,0.178
33.29,-0.304,0.979,-0.112
33.3,-0.37,0.93,-0.127
33.31,-0.032,1.22,0.079
33.32,-0.092,0.665,0.114
33.33,-0.29,1.067,0.019
33.34,-0.31,0.953,-0.195
33.35,-0.2,1.118,-0.028
33.36,-0.179,0.788,0.16
33.37,-0.141,0.918,0.125
33.38,-0.361,1.029,-0.18
33.39,-0.187,0.895,-0.102
33.4,-0.1,1.247,0.11
33.41,-0.076,0.569,0.128
33.42,-0.339,1.104,-0.004
33.43,-0.274,0.944,-0.222
33.44,-0.099,1.122,0.026
33.45,-0.154,0.866,0.177
33.46,-0.183,0.808,0.054
33.47,-0.394,1.106,-0.206
33.48,-0.139,0.913,-0.086
33.49,-0.075,1.126,0.08
33.5,-0.12,0.685,0.169
33.51,-0.349,1.132,-0.082
33.52,-0.282,0.888,-0.176
33.53,-0.162,1.133,0.153
33.54,-0.104,0.946,0.123
33.55,-0.234,0.741,-0.015
33.56,-0.417,1.209,-0.151
33.57,-0.077,0.921,-0.102
33.58,-0.185,1.111,0.087
33.59,-0.066,0.73,0.169
33.6,-0.422,1.087,-0.162
33.61,-0.291,0.94,-0.141
33.62,0.073,1.111,0.075
33.63,-0.156,0.902,0.085
33.64,-0.25,0.748,0.041
33.65,-0.404,1.324,-0.218
33.66,-0.165,0.769,-0.005
33.67,-0.042,1.186,0.152
33.68,-0.121,0.686,0.062
33.69,-0.448,1.025,-0.151
33.7,-0.069,1.127,-0.071
33.71,-0.104,0.922,0.082
33.72,-0.136,0.94,0.19
33.73,-0.296,0.744,-0.11
33.74,-0.303,1.241,-0.167
33.75,-0.112,0.926,0.11
33.76,-0.178,1.047,0.145
33.77,-0.148,0.7,0.084
33.78,-0.374,1.214,-0.2
33.79,-0.146,1.115,-0.075
33.8,-0.111,0.747,0.148
33.81,-0.123,1.049,0.16
33.82,-0.402,0.703,-0.153
33.83,-0.207,1.214,-0.14
33.84,-0.074,0.964,0.116
33.85,-0.243,0.909,0.135
33.86,-0.128,0.792,0.006
33.87,-0.37,1.166,-0.195
33.88,-0.064,1.091,-0.014
33.89,-0.162,0.75,0.18
33.9,-0.156,1.066,0.058
33.91,-0.35,0.745,-0.191
33.92,-0.228,1.256,-0.039
33.93,-0.073,0.868,0.097
33.94,-0.209,0.879,0.151
33.95,-0.205,0.96,-0.061
33.96,-0.395,0.969,-0.178
33.97,-0.098,1.197,0.054
33.98,-0.154,0.802,0.121
33.99,-0.25,0.997,0.052
34.0,-0.351,0.944,-0.18
34.01,-0.218,1.239,-0.073
34.02,-0.074,0.699,0.147
34.03,-0.151,1.028,0.126
34.04,-0.339,0.875,-0.19
34.05,-0.225,1.015,-0.117
34.06,0.0,1.161,0.105
34.07,-0.226,0.67,0.16
34.08,-0.238,1.069,-0.017
34.09,-0.311,0.911,-0.197
34.1,-0.168,1.183,-0.01
34.11,-0.087,0.783,0.178
34.12,-0.149,0.941,0.039
34.13,-0.348,0.901,-0.193
34.14,-0.114,1.035,-0.021
34.15,-0.188,1.148,0.103
34.16,-0.111,0.617,0.135
34.17,-0.284,1.142,-0.078
34.18,-0.329,0.845,-0.195
34.19,-0.131,1.264,0.143
34.2,-0.105,0.801,0.134
34.21,-0.248,0.827,0.014
34.22,-0.38,1.125,-0.146
34.23,-0.155,0.977,-0.071
34.24,-0.407,0.878,-0.203
34.25,-0.129,1.25,-0.07
34.26,-0.064,0.804,0.142
34.27,-0.263,1.006,0.132
34.28,-0.23,0.768,-0.069
34.29,-0.292,1.22,-0.197
34.3,-0.188,0.944,0.116
34.31,-0.136,0.929,0.175
34.32,-0.173,0.876,-0.045
34.33,-0.4,0.946,-0.111
34.34,-0.113,1.21,-0.049
34.35,-0.18,0.726,0.121
34.36,-0.11,1.082,0.128
34.37,-0.268,0.749,-0.185
34.38,-0.33,1.154,-0.089
34.39,-0.0,1.053,0.061
34.4,-0.167,0.773,0.104
34.41,-0.252,0.983,0.033
34.42,-0.375,0.937,-0.182
34.43,-0.133,1.167,-0.025
34.44,-0.12,0.786,0.185
34.45,-0.116,0.998,0.033
34.46,-0.322,0.84,-0.186
34.47,-0.135,1.208,-0.057
34.48,-0.236,0.955,0.09
34.49,-0.127,0.672,0.19
34.5,-0.333,1.125,-0.044
34.51,-0.366,0.769,-0.196
34.52,-0.09,1.24,0.06
34.53,-0.077,0.805,0.091
34.54,-0.178,0.905,0.025
34.55,-0.303,0.971,-0.19
34.56,-0.111,1.1,-0.131
34.57,-0.128,0.939,0.087
34.58,-0.144,0.742,0.197
34.59,-0.381,1.162,-0.114
34.6,-0.326,0.794,-0.084
34.61,-0.078,1.272,0.112
34.62,-0.182,0.764,0.17
34.63,-0.333,0.934,0.016
34.64,-0.279,1.084,-0.203
34.65,-0.133,0.947,-0.052
34.66,-0.153,1.048,0.168
34.67,-0.021,0.742,0.139
34.68,-0.509,1.164,-0.162
34.69,-0.244,0.809,-0.076
34.7,-0.018,1.285,0.069
34.71,-0.126,0.701,0.084
34.72,-0.291,0.942,0.018
34.73,-0.214,1.004,-0.235
34.74,-0.277,1.048,0.126
34.75,-0.035,0.974,0.154
34.76,-0.086,0.724,-0.009
34.77,-0.499,1.223,-0.156
34.78,-0.063,0.827,-0.043
34.79,-0.17,1.201,0.088
34.8,-0.095,0.705,0.148
34.81,-0.331,1.026,-0.137
34.82,-0.341,1.013,-0.151
34.83,0.02,1.051,0.035
34.84,-0.108,0.997,0.108
34.85,-0.28,0.685,0.086
34.86,-0.437,1.32,-0.23
34.87,-0.062,0.796,-0.024
34.88,-0.224,1.152,0.162
34.89,-0.085,0.727,0.083
34.9,-0.412,0.997,-0.214
34.91,-0.227,1.139,-0.034
34.92,-0.078,0.953,0.096
34.93,-0.194,0.95,0.145
34.94,-0.146,0.714,-0.031
34.95,-0.405,1.305,-0.219
34.96,-0.065,0.804,0.017
34.97,-0.141,1.155,0.147
34.98,-0.07,0.746,0.048
34.99,-0.427,1.007,-0.161
35.0,-0.161,1.195,-0.018
35.01,-0.095,0.797,0.069
35.02,-0.212,1.019,0.172
35.03,-0.292,0.727,-0.129
35.04,-0.343,1.22,-0.171
35.05,-0.042,0.921,0.109
35.06,-0.118,1.008,0.121
35.07,-0.231,0.771,0.015
35.08,-0.416,1.006,-0.145
35.09,-0.04,1.265,-0.044
35.1,-0.198,0.693,0.108
35.11,-0.134,1.081,0.174
35.12,-0.343,0.765,-0.197
35.13,-0.363,1.162,-0.105
35.14,0.091,0.981,0.103
35.15,-0.153,0.842,0.068
35.16,-0.292,0.906,0.027
35.17,-0.33,0.985,-0.162
35.18,-0.178,1.199,-0.034
35.19,-0.149,0.723,0.193
35.2,-0.047,1.038,0.024
35.21,-0.498,0.852,-0.209
35.22,-0.101,1.137,-0.073
35.23,-0.046,0.934,0.117
35.24,-0.257,0.815,0.168
35.25,-0.297,1.052,-0.088
35.26,-0.26,0.91,-0.16
35.27,-0.219,1.223,0.094
35.28,-0.074,0.663,0.152
35.29,-0.248,0.999,-0.05
35.3,-0.41,0.959,-0.16
35.31,-0.042,1.129,-0.011
35.32,-0.167,0.899,0.126
35.33,-0.119,0.782,0.122
35.34,-0.361,1.14,-0.183
35.35,-0.28,0.888,-0.045
35.36,-0.11,1.244,0.083
35.37,-0.065,0.633,0.112
35.38,-0.387,1.007,-0.029
35.39,-0.297,0.968,-0.168
35.4,-0.021,1.068,0.036
35.41,-0.233,1.011,0.172
35.42,-0.053,0.674,0.043
35.43,-0.465,1.217,-0.207
35.44,-0.113,0.886,-0.019
35.45,-0.087,1.173,0.102
35.46,-0.219,0.701,0.175
35.47,-0.36,1.035,-0.12
35.48,-0.265,1.024,-0.173
35.49,-0.063,1.016,0.141
35.5,-0.148,0.959,0.144
35.51,-0.26,0.668,0.005
35.52,-0.369,1.359,-0.184
35.53,-0.075,0.826,0.005
35.54,-0.238,1.09,0.206
35.55,-0.173,0.631,0.059
35.56,-0.453,1.17,-0.24
35.57,-0.055,1.005,-0.083
35.58,-0.075,1.019,0.086
35.59,-0.171,0.865,0.188
35.6,-0.339,0.808,-0.088
35.61,-0.27,1.225,-0.163
35.62,-0.019,0.905,0.126
35.63,-0.24,1.063,0.164
35.64,-0.166,0.663,0.002
35.65,-0.373,1.265,-0.237
35.66,-0.11,0.933,-0.051
35.67,-0.14,0.938,0.152
35.68,-0.123,0.911,0.097
35.69,-0.41,0.804,-0.134
35.7,-0.165,1.298,-0.084
35.71,-0.078,0.834,0.136
35.72,-0.21,1.006,0.128
35.73,-0.179,0.768,-0.057
35.74,-0.465,1.171,-0.198
35.75,-0.084,0.991,0.094
35.76,-0.119,0.932,0.179
35.77,-0.24,0.958,-0.001
35.78,-0.333,0.864,-0.172
35.79,-0.177,1.305,-0.048
35.8,-0.045,0.668,0.14
35.81,-0.19,1.079,0.175
35.82,-0.317,0.853,-0.183
35.83,-0.265,1.047,-0.156
35.84,-0.019,1.165,0.119
35.85,-0.116,0.68,0.101
35.86,-0.296,1.044,0.039
35.87,-0.281,0.93,-0.214
35.88,-0.162,1.187,-0.033
35.89,-0.054,0.728,0.206
35.9,-0.194,0.991,0.069
35.91,-0.429,0.942,-0.251
35.92,-0.04,0.999,-0.053
35.93,-0.196,1.097,0.118
35.94,-0.191,0.689,0.149
35.95,-0.322,1.12,-0.107
35.96,-0.268,0.84,-0.17
35.97,-0.111,1.278,0.122
35.98,-0.139,0.714,0.118
35.99,-0.273,0.897,0.003
36.0,-0.377,1.135,-0.174
36.01,-0.12,0.919,0.001
36.02,-0.196,1.048,0.177
36.03,-0.085,0.689,0.1
36.04,-0.418,1.171,-0.216
36.05,-0.222,0.842,-0.034
36.06,-0.031,1.183,0.113
36.07,-0.135,0.756,0.095
36.08,-0.305,0.917,-0.016
36.09,-0.266,1.171,-0.181
36.1,-0.177,0.925,0.11
36.11,-0.097,1.072,0.142
36.12,-0.157,0.648,-0.026
36.13,-0.469,1.26,-0.145
36.14,-0.067,0.867,-0.049
36.15,-0.146,1.042,0.146
36.16,-0.134,0.88,0.16
36.17,-0.372,0.884,-0.199
36.18,-0.297,1.176,-0.095
36.19,0.075,0.925,0.041
36.2,-0.134,1.004,0.116
36.21,-0.328,0.695,0.017
36.22,-0.307,1.304,-0.206
36.23,-0.125,0.955,0.01
36.24,-0.143,0.925,0.157
36.25,-0.097,0.852,0.062
36.26,-0.551,0.949,-0.142
36.27,-0.119,1.211,-0.065
36.28,-0.103,0.787,0.109
36.29,-0.178,1.078,0.111
36.3,-0.317,0.719,-0.118
36.31,-0.266,1.224,-0.119
36.32,-0.049,1.034,0.057
36.33,-0.137,0.736,0.121
36.34,-0.197,1.009,0.054
36.35,-0.413,0.987,-0.23
36.36,-0.128,1.106,0.074
36.37,-0.092,0.85,0.08
36.38,-0.157,0.98,0.006
36.39,-0.358,0.848,-0.1
36.4,-0.22,1.303,-0.061
36.41,-0.094,0.674,0.137
36.42,-0.217,0.98,0.211
36.43,-0.354,0.928,-0.149
36.44,-0.281,0.882,-0.171
36.45,0.015,1.322,0.132
36.46,-0.227,0.612,0.123
36.47,-0.213,1.084,0.094
36.48,-0.32,0.938,-0.256
36.49,-0.179,1.05,-0.048
36.5,-0.049,0.884,0.189
36.51,-0.149,0.886,0.083
36.52,-0.501,0.971,-0.167
36.53,-0.009,0.982,-0.104
36.54,-0.152,1.192,0.015
36.55,-0.132,0.601,0.254
36.56,-0.341,1.142,-0.068
36.57,-0.396,0.854,-0.246
36.58,-0.027,1.2,0.139
36.59,-0.208,0.877,0.136
36.6,-0.21,0.771,0.032
36.61,-0.363,1.273,-0.192
36.62,-0.165,0.855,-0.025
36.63,-0.213,1.149,0.188
36.64,-0.024,0.703,0.112
36.65,-0.421,1.075,-0.218
36.66,-0.184,0.923,-0.1
36.67,-0.076,1.197,0.134
36.68,-0.18,0.806,0.119
36.69,-0.273,0.807,0.05
36.7,-0.441,1.279,-0.218
36.71,-0.041,0.766,-0.005
36.72,-0.122,1.283,0.14
36.73,-0.078,0.624,0.037
36.74,-0.483,1.114,-0.14
36.75,-0.086,1.097,-0.047
36.76,-0.066,0.918,0.069
36.77,-0.227,0.919,0.213
36.78,-0.261,0.798,-0.117
36.79,-0.377,1.2,-0.229
36.8,0.003,0.884,0.139
36.81,-0.164,1.116,0.106
36.82,-0.164,0.655,-0.012
36.83,-0.425,1.236,-0.161
36.84,-0.148,0.984,-0.051
36.85,-0.113,0.816,0.167
36.86,-0.137,1.031,0.121
36.87,-0.371,0.72,-0.247
36.88,-0.231,1.29,-0.03
36.89,-0.063,0.93,0.109
36.9,-0.189,0.909,0.084
36.91,-0.156,0.805,-0.015
36.92,-0.411,1.135,-0.201
36.93,-0.153,1.024,0.046
36.94,-0.086,0.844,0.159
36.95,-0.087,0.993,-0.003
36.96,-0.356,0.857,-0.156
36.97,-0.219,1.275,-0.023
36.98,-0.118,0.712,0.085
36.99,-0.145,0.99,0.179
37.0,-0.334,0.889,-0.169
37.01,-0.228,1.02,-0.105
37.02,-0.094,1.171,0.036
37.03,-0.087,0.619,0.127
37.04,-0.252,1.097,0.051
37.05,-0.374,0.909,-0.232
37.06,-0.131,1.121,-0.007
37.07,-0.092,0.866,0.181
37.08,-0.19,0.912,0.054
37.09,-0.381,0.913,-0.201
37.1,-0.049,1.044,-0.083
37.11,-0.14,1.135,0.069
37.12,-0.183,0.597,0.173
37.13,-0.286,1.169,-0.041
37.14,-0.348,0.857,-0.218
37.15,-0.061,1.153,0.066
37.16,-0.102,0.878,0.125
37.17,-0.234,0.84,0.022
37.18,-0.363,1.003,-0.155
37.19,-0.212,1.068,-0.012
37.2,-0.14,0.927,0.156
37.21,-0.117,0.78,0.124
37.22,-0.445,1.113,-0.166
37.23,-0.177,0.889,-0.124
37.24,-0.025,1.281,0.086
37.25,-0.124,0.626,0.111
37.26,-0.237,0.999,-0.027
37.27,-0.299,1.097,-0.212
37.28,-0.128,0.927,0.011
37.29,-0.139,1.023,0.178
37.3,-0.114,0.7,0.025
37.31,-0.43,1.2,-0.188
37.32,-0.148,0.884,-0.016
37.33,-0.147,1.162,0.112
37.34,-0.119,0.719,0.149
37.35,-0.335,0.976,-0.08
37.36,-0.344,1.078,-0.201
37.37,-0.064,0.964,0.074
37.38,-0.086,1.048,0.108
37.39,-0.284,0.637,0.031
37.4,-0.388,1.263,-0.175
37.41,-0.1,0.918,-0.054
37.42,-0.151,1.01,0.146
37.43,-0.004,0.816,0.093
37.44,-0.494,0.997,-0.228
37.45,-0.231,1.069,-0.011
37.46,-0.004,0.986,0.111
37.47,-0.227,0.964,0.095
37.48,-0.214,0.729,-0.028
37.49,-0.335,1.356,-0.183
37.5,-0.156,0.804,0.049
37.51,-0.081,1.009,0.171
37.52,-0.213,0.825,0.027
37.53,-0.525,1.013,-0.173
37.54,-0.024,1.199,-0.091
37.55,-0.072,0.753,0.077
37.56,-0.189,1.068,0.161
37.57,-0.299,0.789,-0.185
37.58,-0.29,1.187,-0.144
37.59,0.063,0.947,0.099
37.6,-0.165,0.873,0.105
37.61,-0.31,0.9,-0.012
37.62,-0.302,0.996,-0.204
37.63,-0.085,1.196,0.042
37.64,-0.191,0.713,0.173
37.65,-0.195,1.009,0.021
37.66,-0.421,0.869,-0.185
37.67,-0.092,1.219,-0.048
37.68,-0.133,0.833,0.125
37.69,-0.162,0.87,0.15
37.7,-0.31,1.03,-0.154
37.71,-0.277,0.892,-0.136
37.72,-0.082,1.305,0.133
37.73,-0.082,0.636,0.093
37.74,-0.333,1.059,0.02
37.75,-0.276,0.977,-0.228
37.76,-0.097,1.05,-0.034
37.77,-0.119,0.905,0.213
37.78,-0.157,0.826,0.094
37.79,-0.433,1.086,-0.222
37.8,-0.147,0.885,-0.006
37.81,-0.13,1.203,0.136
37.82,-0.226,0.623,0.096
37.83,-0.259,1.091,-0.126
37.84,-0.277,1.009,-0.176
37.85,-0.164,1.073,0.139
37.86,-0.046,0.899,0.08
37.87,-0.193,0.725,-0.02
37.88,-0.448,1.317,-0.156
37.89,-0.086,0.853,-0.011
37.9,-0.235,1.093,0.138
37.91,-0.073,0.695,0.108
37.92,-0.426,1.094,-0.234
37.93,-0.187,1.0,-0.059
37.94,-0.111,0.991,0.171
37.95,-0.258,0.946,0.154
37.96,-0.185,0.727,-0.095
37.97,-0.323,1.299,-0.199
37.98,-0.107,0.865,0.109
37.99,-0.176,1.047,0.135
38.0,-0.281,0.644,0.029
38.01,-0.397,1.296,-0.179
38.02,-0.064,0.859,-0.038
38.03,-0.216,1.05,0.202
38.04,-0.139,0.841,0.088
38.05,-0.418,0.889,-0.187
38.06,-0.185,1.269,-0.077
38.07,-0.059,0.796,0.127
38.08,-0.249,1.035,0.181
38.09,-0.243,0.729,-0.049
38.1,-0.354,1.221,-0.184
38.11,-0.1,1.005,0.132
38.12,-0.205,0.92,0.149
38.13,-0.186,0.869,-0.023
38.14,-0.352,0.986,-0.155
38.15,-0.185,1.216,-0.056
38.16,-0.083,0.663,0.133
38.17,-0.144,1.093,0.121
38.18,-0.37,0.763,-0.189
38.19,-0.243,1.179,-0.052
38.2,-0.109,1.07,0.083
38.21,-0.134,0.706,0.074
38.22,-0.201,1.046,0.014
38.23,-0.399,0.932,-0.194
38.24,-0.203,1.21,0.059
38.25,-0.041,0.746,0.085
38.26,-0.183,0.951,0.034
38.27,-0.368,0.932,-0.138
38.28,-0.154,1.184,-0.09
38.29,-0.14,0.853,0.112
38.3,-0.105,0.802,0.172
38.31,-0.401,1.088,-0.117
38.32,-0.327,0.807,-0.145
38.33,-0.002,1.328,0.087
38.34,-0.11,0.613,0.095
38.35,-0.247,1.022,0.073
38.36,-0.346,1.056,-0.213
38.37,-0.163,0.927,-0.063
38.38,-0.077,1.063,0.181
38.39,-0.164,0.72,0.043
38.4,-0.455,1.134,-0.159
38.41,-0.178,0.921,-0.03
38.42,-0.119,1.198,0.068
38.43,-0.176,0.677,0.176
38.44,-0.281,1.035,-0.052
38.45,-0.33,0.973,-0.231
38.46,-0.063,1.019,0.165
38.47,-0.194,1.085,0.16
38.48,-0.172,0.625,0.021
38.49,-0.464,1.308,-0.183
38.5,-0.103,0.892,-0.075
38.51,-0.195,1.055,0.121
38.52,-0.073,0.748,0.111
38.53,-0.415,0.975,-0.165
38.54,-0.279,1.078,-0.08
38.55,-0.011,0.997,0.105
38.56,-0.139,0.955,0.088
38.57,-0.249,0.719,0.019
38.58,-0.418,1.341,-0.237
38.59,-0.085,0.814,-0.022
38.6,-0.094,1.135,0.172
38.61,-0.18,0.76,0.046
38.62,-0.445,0.979,-0.158
38.63,-0.128,1.251,-0.099
38.64,-0.041,0.742,0.085
38.65,-0.183,1.057,0.171
38.66,-0.225,0.736,-0.14
38.67,-0.341,1.201,-0.179
38.68,-0.085,0.937,0.174
38.69,-0.174,0.933,0.138
38.7,-0.239,0.812,0.021
38.71,-0.408,1.048,-0.181
38.72,-0.076,1.165,-0.014
38.73,-0.163,0.759,0.152
38.74,-0.146,1.045,0.067
38.75,-0.307,0.752,-0.189
38.76,-0.311,1.265,-0.041
38.77,-0.046,0.907,0.107
38.78,-0.18,0.834,0.141
38.79,-0.311,0.965,-0.025
38.8,-0.259,0.991,-0.21
38.81,-0.052,1.087,0.037
38.82,-0.146,0.73,0.172
38.83,-0.21,1.021,0.006
38.84,-0.426,0.919,-0.171
38.85,-0.117,1.205,-0.019
38.86,-0.142,0.778,0.173
38.87,-0.213,0.966,0.107
38.88,-0.316,0.903,-0.205
38.89,-0.171,1.062,-0.11
38.9,-0.108,1.1,0.106
38.91,-0.133,0.628,0.13
38.92,-0.302,1.116,-0.038
38.93,-0.35,0.853,-0.219
38.94,-0.116,1.193,0.038
38.95,-0.096,0.838,0.14
38.96,-0.145,0.891,0.067
38.97,-0.389,0.996,-0.199
38.98,-0.128,0.981,-0.035
38.99,-0.067,1.066,0.094
39.0,-0.227,0.689,0.184
39.01,-0.351,1.125,-0.121
39.02,-0.266,0.839,-0.179
39.03,0.017,1.253,0.062
39.04,-0.135,0.759,0.137
39.05,-0.264,0.83,0.019
39.06,-0.321,1.222,-0.206
39.07,-0.075,0.883,-0.023
39.08,-0.254,1.079,0.173
39.09,0.01,0.689,0.095
39.1,-0.485,1.146,-0.228
39.11,-0.262,0.879,0.005
39.12,-0.026,1.195,0.099
39.13,-0.254,0.765,0.101
39.14,-0.168,0.845,-0.015
39.15,-0.325,1.278,-0.2
39.16,-0.177,0.836,0.128
39.17,-0.092,1.137,0.124
39.18,-0.153,0.611,-0.024
39.19,-0.475,1.26,-0.129
39.2,-0.054,0.946,-0.092
39.21,-0.187,0.98,0.082
39.22,-0.095,0.897,0.161
39.23,-0.295,0.853,-0.181
39.24,-0.352,1.186,-0.1
39.25,0.022,0.913,0.064
39.26,-0.114,1.045,0.09
39.27,-0.281,0.646,0.003
39.28,-0.284,1.262,-0.194
39.29,-0.103,0.959,-0.056
39.3,-0.175,0.908,0.18
39.31,-0.136,0.922,0.082
39.32,-0.433,0.869,-0.15
39.33,-0.166,1.27,-0.105
39.34,-0.039,0.77,0.122
39.35,-0.257,1.062,0.217
39.36,-0.256,0.75,-0.08
39.37,-0.244,1.107,-0.185
39.38,-0.151,1.088,0.068
39.39,-0.135,0.879,0.156
39.4,-0.171,0.978,0.001
39.41,-0.384,0.915,-0.137
39.42,-0.135,1.297,-0.047
39.43,-0.094,0.661,0.097
39.44,-0.156,1.049,0.188
39.45,-0.379,0.851,-0.153
39.46,-0.285,1.032,-0.119
39.47,-0.028,1.117,0.073
39.48,-0.144,0.693,0.103
39.49,-0.334,1.042,0.05
39.5,-0.253,0.913,-0.206
39.51,-0.167,1.195,0.01
39.52,-0.105,0.748,0.196
39.53,-0.178,0.979,0.068
39.54,-0.394,0.904,-0.216
39.55,-0.125,1.098,-0.08
39.56,-0.065,1.041,0.062
39.57,-0.186,0.707,0.204
39.58,-0.361,1.141,-0.053
39.59,-0.347,0.843,-0.194
39.6,-0.174,1.256,0.15
39.61,-0.135,0.8,0.119
39.62,-0.179,0.879,0.011
39.63,-0.344,0.981,-0.166
39.64,-0.086,1.091,-0.058
39.65,-0.142,0.868,0.15
39.66,-0.098,0.825,0.128
39.67,-0.407,1.135,-0.175
39.68,-0.289,0.847,-0.116
39.69,-0.021,1.282,0.089
39.7,-0.135,0.662,0.166
39.71,-0.361,1.034,0.008
39.72,-0.319,0.991,-0.188
39.73,-0.128,1.039,0.009
39.74,-0.071,1.011,0.19
39.75,-0.173,0.736,0.082
39.76,-0.436,1.189,-0.222
39.77,-0.107,0.867,-0.081
39.78,-0.122,1.178,0.105
39.79,-0.183,0.701,0.144
39.8,-0.319,1.008,-0.145
39.81,-0.216,0.967,-0.208
39.82,-0.062,1.088,0.099
39.83,-0.14,0.944,0.106
39.84,-0.181,0.7,0.027
39.85,-0.452,1.336,-0.175
39.86,-0.114,0.761,-0.02
39.87,-0.151,1.13,0.139
39.88,-0.152,0.777,0.126
39.89,-0.411,0.974,-0.19
39.9,-0.197,1.064,-0.096
39.91,-0.033,0.977,0.088
39.92,-0.158,0.976,0.127
39.93,-0.225,0.681,-0.009
39.94,-0.367,1.314,-0.226
39.95,-0.069,0.859,0.048
39.96,-0.229,1.084,0.175
39.97,-0.077,0.744,-0.004
39.98,-0.373,1.031,-0.186
39.99,-0.165,1.167,-0.054
40.0,-0.075,0.813,0.095
40.01,-0.222,0.989,0.128
40.02,-0.225,0.727,-0.107
40.03,-0.317,1.287,-0.198
40.04,-0.099,0.919,0.086
40.05,-0.122,0.986,0.125
40.06,-0.244,0.803,-0.004
40.07,-0.419,1.07,-0.128
40.08,-0.097,1.17,-0.045
40.09,-0.162,0.722,0.117
40.1,-0.123,1.089,0.145
40.11,-0.306,0.762,-0.193
40.12,-0.376,1.192,-0.093
40.13,0.013,0.952,0.108
40.14,-0.11,0.91,0.061
40.15,-0.361,0.88,0.015
40.16,-0.248,0.996,-0.196
40.17,-0.123,1.182,-0.056
40.18,-0.088,0.725,0.175
40.19,-0.146,1.037,0.061
40.2,-0.419,0.797,-0.173
40.21,-0.15,1.234,-0.092
40.22,0.006,0.852,0.052
40.23,-0.229,0.873,0.226
40.24,-0.251,1.031,-0.122
40.25,-0.27,0.901,-0.195
40.26,-0.146,1.236,0.132
40.27,-0.119,0.688,0.131
40.28,-0.182,1.012,-0.003
40.29,-0.418,0.957,-0.134
40.3,-0.13,1.112,-0.063
40.31,-0.129,0.877,0.121
40.32,-0.182,0.838,0.149
40.33,-0.338,1.074,-0.166
40.34,-0.259,0.868,-0.087
40.35,-0.117,1.272,0.084
40.36,-0.037,0.613,0.109
40.37,-0.373,1.028,0.013
40.38,-0.234,0.936,-0.244
40.39,-0.037,1.066,0.019
40.4,-0.291,1.002,0.239
40.41,-0.105,0.722,0.051
40.42,-0.398,1.141,-0.206
40.43,-0.155,0.92,-0.032
40.44,-0.099,1.13,0.072
40.45,-0.186,0.649,0.198
40.46,-0.341,1.151,-0.128
40.47,-0.309,0.884,-0.136
40.48,-0.14,1.186,0.111
40.49,-0.097,0.813,0.138
40.5,-0.213,0.831,-0.01
40.51,-0.464,1.202,-0.167
40.52,-0.08,0.854,-0.04
40.53,-0.19,1.135,0.135
40.54,-0.122,0.665,0.143
40.55,-0.417,1.124,-0.197
40.56,-0.192,0.901,-0.12
40.57,-0.051,1.177,0.107
40.58,-0.132,0.806,0.141
40.59,-0.318,0.814,-0.034
40.6,-0.298,1.245,-0.213
40.61,-0.099,0.864,0.023
40.62,-0.186,1.114,0.154
40.63,-0.099,0.667,0.054
40.64,-0.463,1.17,-0.251
40.65,-0.126,0.961,-0.019
40.66,-0.101,1.019,0.113
40.67,-0.205,0.856,0.15
40.68,-0.273,0.825,-0.153
40.69,-0.187,1.251,-0.216
40.7,-0.191,0.869,0.168
40.71,-0.115,1.062,0.126
40.72,-0.16,0.673,-0.034
40.73,-0.465,1.232,-0.152
40.74,-0.121,0.975,-0.019
40.75,-0.188,0.88,0.131
40.76,-0.102,0.992,0.14
40.77,-0.356,0.815,-0.202
40.78,-0.264,1.227,-0.091
40.79,-0.001,0.858,0.146
40.8,-0.149,1.013,0.085
40.81,-0.307,0.721,-0.034
40.82,-0.349,1.2,-0.185
40.83,-0.019,1.013,-0.034
40.84,-0.17,0.84,0.19
40.85,-0.166,0.978,0.042
40.86,-0.387,0.862,-0.201
40.87,-0.237,1.279,0.0
40.88,-0.092,0.757,0.139
40.89,-0.143,0.982,0.129
40.9,-0.342,0.868,-0.087
40.91,-0.236,1.089,-0.143
40.92,-0.178,1.067,0.101
40.93,-0.125,0.701,0.169
40.94,-0.311,1.069,-0.031
40.95,-0.27,0.861,-0.202
40.96,-0.1,1.229,-0.008
40.97,-0.201,0.753,0.191
40.98,-0.12,0.984,0.105
40.99,-0.411,0.965,-0.218
41.0,-0.121,1.014,-0.084
41.01,-0.141,1.072,0.086
41.02,-0.158,0.667,0.172
41.03,-0.363,1.162,-0.058
41.04,-0.298,0.867,-0.189
41.05,-0.131,1.234,0.104
41.06,-0.101,0.763,0.138
41.07,-0.253,0.909,0.012
41.08,-0.392,1.114,-0.162
41.09,-0.15,0.953,-0.027
41.1,-0.227,1.06,0.139
41.11,-0.036,0.699,0.136
41.12,-0.448,1.175,-0.185
41.13,-0.279,0.841,-0.057
41.14,-0.018,1.259,0.084
41.15,-0.136,0.722,0.093
41.16,-0.221,0.889,-0.021
41.17,-0.299,1.192,-0.252
41.18,-0.164,0.857,0.076
41.19,-0.13,1.142,0.17
41.2,-0.162,0.582,0.034
41.21,-0.468,1.271,-0.186
41.22,0.079,0.986,-0.113
41.23,-0.247,1.036,0.116
41.24,-0.156,0.847,0.23
41.25,-0.337,0.884,-0.141
41.26,-0.277,0.973,-0.101
41.27,0.066,1.095,0.128
41.28,-0.239,0.923,0.124
41.29,-0.272,0.69,0.059
41.3,-0.331,1.332,-0.248
41.31,-0.108,0.81,-0.017
41.32,-0.141,1.14,0.23
41.33,-0.097,0.724,0.015
41.34,-0.537,1.041,-0.135
41.35,-0.042,1.12,-0.066
41.36,-0.116,0.866,0.048
41.37,-0.211,1.018,0.145
41.38,-0.185,0.746,-0.137
41.39,-0.403,1.244,-0.178
41.4,-0.045,0.92,0.137
41.41,-0.075,1.007,0.117
41.42,-0.3,0.758,0.025
41.43,-0.315,1.094,-0.189
41.44,-0.157,1.095,-0.071
41.45,-0.159,0.775,0.188
41.46,-0.099,1.083,0.063
41.47,-0.322,0.744,-0.226
41.48,-0.296,1.3,-0.068
41.49,-0.001,0.93,0.084
41.5,-0.257,0.865,0.136
41.51,-0.212,0.884,-0.035
41.52,-0.252,1.051,-0.238
41.53,-0.224,1.141,0.078
41.54,-0.006,0.728,0.113
41.55,-0.271,1.031,0.048
41.56,-0.403,0.827,-0.171
41.57,-0.124,1.249,-0.069
41.58,-0.07,0.788,0.123
41.59,-0.171,0.873,0.194
41.6,-0.306,0.992,-0.121
41.61,-0.236,0.911,-0.17
41.62,-0.074,1.287,0.099
41.63,-0.049,0.673,0.1
41.64,-0.341,1.044,0.026
41.65,-0.349,0.916,-0.173
41.66,-0.048,1.185,-0.083
41.67,-0.151,0.792,0.157
41.68,-0.127,0.871,0.155
41.69,-0.429,1.081,-0.194
41.7,-0.185,0.822,-0.134
41.71,0.031,1.263,0.076
41.72,-0.146,0.629,0.134
41.73,-0.393,1.065,0.017
41.74,-0.226,0.9,-0.239
41.75,-0.14,1.081,-0.028
41.76,-0.095,0.913,0.21
41.77,-0.136,0.755,0.025
41.78,-0.545,1.147,-0.186
41.79,0.006,0.907,-0.024
41.8,-0.124,1.217,0.05
41.81,-0.201,0.647,0.205
41.82,-0.306,1.099,-0.118
41.83,-0.315,0.943,-0.189
41.84,0.01,1.072,0.116
41.85,-0.152,0.898,0.167
41.86,-0.388,0.725,0.091
41.87,-0.324,1.301,-0.237
41.88,-0.042,0.834,-0.079
41.89,-0.166,1.184,0.118
41.9,0.001,0.686,0.045
41.91,-0.526,1.158,-0.174
41.92,-0.185,1.01,-0.075
41.93,-0.025,0.985,0.105
41.94,-0.268,0.944,0.193
41.95,-0.252,0.706,-0.095
41.96,-0.36,1.246,-0.195
41.97,-0.15,0.872,0.146
41.98,-0.112,1.109,0.138
41.99,-0.206,0.692,0.001
42.0,-0.461,1.172,-0.168
42.01,0.039,1.094,-0.061
42.02,-0.234,0.852,0.148
42.03,-0.123,1.014,0.169
42.04,-0.324,0.755,-0.194
42.05,-0.293,1.231,-0.125
42.06,0.061,0.918,0.079
42.07,-0.2,1.0,0.127
42.08,-0.253,0.729,0.035
42.09,-0.359,1.247,-0.24
42.1,-0.137,0.916,0.031
42.11,-0.053,1.011,0.148
42.12,-0.188,0.859,-0.011
42.13,-0.42,0.887,-0.151
42.14,-0.126,1.268,-0.068
42.15,-0.088,0.712,0.093
42.16,-0.156,1.051,0.146
42.17,-0.24,0.78,-0.143
42.18,-0.375,1.146,-0.165
42.19,0.07,1.059,0.105
42.2,-0.208,0.781,0.126
42.21,-0.295,1.002,0.059
42.22,-0.302,0.96,-0.195
42.23,-0.197,1.146,-0.057
42.24,-0.135,0.758,0.211
42.25,-0.082,1.037,0.061
42.26,-0.41,0.811,-0.198
42.27,-0.109,1.152,-0.033
42.28,-0.083,1.05,0.096
42.29,-0.284,0.691,0.183
42.3,-0.242,1.103,-0.026
42.31,-0.382,0.918,-0.215
42.32,-0.21,1.179,0.092
42.33,-0.008,0.802,0.09
42.34,-0.252,0.919,-0.036
42.35,-0.362,0.965,-0.13
42.36,-0.096,1.1,-0.059
42.37,-0.231,0.954,0.131
42.38,-0.139,0.736,0.23
42.39,-0.39,1.162,-0.19
42.4,-0.302,0.79,-0.111
42.41,-0.029,1.357,0.142
42.42,-0.149,0.68,0.108
42.43,-0.271,0.959,0.045
42.44,-0.283,1.109,-0.245
42.45,-0.109,0.903,-0.032
42.46,-0.217,1.065,0.236
42.47,-0.15,0.667,0.091
42.48,-0.431,1.155,-0.197
42.49,-0.178,0.924,-0.041
42.5,-0.094,1.184,0.069
42.51,-0.192,0.703,0.147
42.52,-0.269,0.973,-0.055
42.53,-0.368,1.094,-0.215
42.54,-0.009,0.895,0.093
42.55,-0.145,1.181,0.136
42.56,-0.259,0.615,0.038
42.57,-0.516,1.229,-0.14
42.58,-0.09,0.889,0.1
42.59,-0.429,1.025,-0.178
42.6,-0.249,0.979,0.013
42.61,-0.087,1.218,0.107
42.62,-0.2,0.6,0.113
42.63,-0.216,1.154,-0.037
42.64,-0.286,0.931,-0.25
42.65,-0.219,1.121,0.096
42.66,-0.035,0.859,0.124
42.67,-0.173,0.804,-0.037
42.68,-0.479,1.143,-0.145
42.69,-0.086,0.888,-0.084
42.7,-0.242,1.124,0.079
42.71,-0.093,0.678,0.162
42.72,-0.344,1.148,-0.158
42.73,-0.348,0.895,-0.082
42.74,-0.004,1.175,0.062
42.75,-0.14,0.836,0.136
42.76,-0.333,0.748,0.077
42.77,-0.27,1.288,-0.254
42.78,-0.066,0.831,-0.077
42.79,-0.179,1.157,0.174
42.8,-0.071,0.639,0.12
42.81,-0.509,1.118,-0.202
42.82,-0.117,0.915,-0.049
42.83,-0.145,1.144,0.06
42.84,-0.179,0.756,0.253
42.85,-0.345,0.941,-0.057
42.86,-0.303,1.025,-0.214
42.87,-0.021,0.952,0.093
42.88,-0.15,1.089,0.093
42.89,-0.148,0.644,0.026
42.9,-0.48,1.338,-0.168
42.91,-0.072,0.859,-0.053
42.92,-0.222,1.09,0.159
42.93,-0.024,0.823,0.127
42.94,-0.392,0.867,-0.147
42.95,-0.309,1.146,-0.129
42.96,0.073,0.925,0.092
42.97,-0.212,1.062,0.144
42.98,-0.28,0.637,0.027
42.99,-0.336,1.305,-0.219
43.0,-0.129,0.885,-0.011
43.01,-0.25,1.04,0.209
43.02,-0.02,0.894,0.044
43.03,-0.437,0.893,-0.216
43.04,-0.184,1.212,-0.085
43.05,-0.025,0.822,0.081
43.06,-0.245,1.051,0.195
43.07,-0.249,0.705,-0.064
43.08,-0.347,1.193,-0.233
43.09,-0.133,0.929,0.04
43.1,-0.068,0.969,0.151
43.11,-0.186,0.88,0.022
43.12,-0.44,0.911,-0.175
43.13,-0.116,1.245,-0.067
43.14,-0.112,0.715,0.089
43.15,-0.196,1.081,0.164
43.16,-0.223,0.773,-0.148
43.17,-0.359,1.121,-0.125
43.18,-0.036,1.052,0.095
43.19,-0.112,0.811,0.147
43.2,-0.296,0.965,0.012
43.21,-0.285,0.963,-0.171
43.22,-0.158,1.215,-0.029
43.23,-0.167,0.725,0.219
43.24,-0.068,1.059,0.101
43.25,-0.374,0.845,-0.242
43.26,-0.217,1.111,-0.045
43.27,-0.083,1.098,0.093
43.28,-0.212,0.689,0.135
43.29,-0.216,1.094,-0.027
43.3,-0.312,0.888,-0.213
43.31,-0.214,1.208,0.01
43.32,-0.046,0.792,0.137
43.33,-0.192,0.957,0.024
43.34,-0.343,0.928,-0.215
43.35,-0.161,1.058,-0.076
43.36,-0.127,1.002,0.111
43.37,-0.176,0.722,0.177
43.38,-0.367,1.135,-0.064
43.39,-0.24,0.79,-0.173
43.4,-0.171,1.274,0.101
43.41,-0.149,0.766,0.166
43.42,-0.198,0.902,-0.025
43.43,-0.358,1.081,-0.18
43.44,-0.132,0.976,-0.073
43.45,-0.163,1.05,0.095
43.46,-0.134,0.711,0.201
43.47,-0.44,1.178,-0.164
43.48,-0.26,0.815,-0.105
43.49,-0.099,1.275,0.088
43.5,-0.079,0.709,0.101
43.51,-0.219,0.908,0.018
43.52,-0.386,1.15,-0.218
43.53,-0.043,0.87,0.022
43.54,-0.16,1.226,0.148
43.55,-0.126,0.645,0.081
43.56,-0.39,1.185,-0.167
43.57,-0.182,0.937,-0.063
43.58,-0.064,1.107,0.07
43.59,-0.144,0.771,0.172
43.6,-0.283,0.917,-0.049
43.61,-0.278,1.13,-0.226
43.62,-0.135,0.898,0.048
43.63,-0.114,1.175,0.138
43.64,-0.2,0.694,-0.007
43.65,-0.429,1.288,-0.172
43.66,-0.077,0.844,-0.038
43.67,-0.196,1.151,0.136
43.68,-0.093,0.746,0.159
43.69,-0.416,0.972,-0.145
43.7,-0.29,1.007,-0.132
43.71,0.014,1.059,0.06
43.72,-0.159,0.984,0.095
43.73,-0.221,0.667,0.053
43.74,-0.402,1.342,-0.205
43.75,-0.111,0.784,-0.019
43.76,-0.174,1.116,0.203
43.77,-0.139,0.759,0.093
43.78,-0.454,0.972,-0.202
43.79,-0.195,1.159,-0.045
43.8,-0.057,0.86,0.099
43.81,-0.22,1.018,0.165
43.82,-0.171,0.703,-0.054
43.83,-0.449,1.249,-0.198
43.84,-0.085,0.899,0.042
43.85,-0.122,1.146,0.15
43.86,-0.158,0.725,0.032
43.87,-0.434,1.03,-0.142
43.88,-0.055,1.231,-0.088
43.89,-0.15,0.734,0.096
43.9,-0.177,1.027,0.197
43.91,-0.233,0.793,-0.139
43.92,-0.369,1.195,-0.159
43.93,-0.089,0.96,0.114
43.94,-0.143,0.937,0.127
43.95,-0.249,0.834,0.021
43.96,-0.374,1.019,-0.157
43.97,-0.196,1.181,-0.049
43.98,-0.116,0.681,0.149
43.99,-0.092,1.108,0.119
44.0,-0.417,0.776,-0.16
44.01,-0.17,1.153,-0.159
44.02,-0.012,1.055,0.081
44.03,-0.218,0.808,0.172
44.04,-0.237,0.962,-0.012
44.05,-0.318,0.993,-0.211
44.06,-0.144,1.152,0.019
44.07,-0.14,0.719,0.211
44.08,-0.194,1.033,0.104
44.09,-0.38,0.829,-0.191
44.1,-0.143,1.18,-0.048
44.11,-0.135,0.941,0.096
44.12,-0.217,0.745,0.17
44.13,-0.221,1.096,-0.07
44.14,-0.346,0.899,-0.186
44.15,-0.182,1.226,0.101
44.16,-0.033,0.75,0.135
44.17,-0.224,0.965,0.039
44.18,-0.385,1.004,-0.168
44.19,-0.123,1.104,-0.08
44.2,-0.172,0.89,0.053
44.21,-0.04,0.772,0.152
44.22,-0.445,1.135,-0.139
44.23,-0.286,0.782,-0.138
44.24,-0.084,1.328,0.088
44.25,-0.141,0.664,0.118
44.26,-0.266,0.984,0.037
44.27,-0.26,1.087,-0.269
44.28,-0.086,0.926,-0.036
44.29,-0.233,1.025,0.192
44.3,-0.023,0.689,0.078
44.31,-0.527,1.212,-0.205
44.32,-0.129,0.836,-0.027
44.33,-0.13,1.273,0.102
44.34,-0.202,0.706,0.155
44.35,-0.234,0.987,-0.015
44.36,-0.307,1.032,-0.222
44.37,-0.143,0.956,0.067
44.38,-0.143,1.144,0.11
44.39,-0.054,0.596,0.001
44.4,-0.482,1.278,-0.204
44.41,-0.041,0.932,-0.093
44.42,-0.124,1.057,0.069
44.43,-0.162,0.745,0.211
44.44,-0.3,0.995,-0.118
44.45,-0.273,0.878,-0.17
44.46,-0.026,1.14,0.078
44.47,-0.112,0.909,0.136
44.48,-0.242,0.719,0.027
44.49,-0.436,1.343,-0.175
44.5,-0.068,0.769,0.012
44.51,-0.262,1.177,0.173
44.52,-0.027,0.689,0.126
44.53,-0.434,1.039,-0.212
44.54,-0.215,1.002,-0.072
44.55,-0.095,1.036,0.075
44.56,-0.159,0.859,0.098
44.57,-0.241,0.717,0.028
44.58,-0.333,1.358,-0.244
44.59,-0.023,0.757,-0.015
44.6,-0.202,1.165,0.226
44.61,-0.158,0.676,0.104
44.62,-0.5,1.051,-0.186
44.63,-0.062,1.13,-0.071
44.64,-0.086,0.877,0.082
44.65,-0.272,1.024,0.195
44.66,-0.256,0.717,-0.133
44.67,-0.298,1.23,-0.201
44.68,-0.046,0.947,0.138
44.69,-0.154,1.028,0.145
44.7,-0.215,0.743,-0.003
44.71,-0.35,1.124,-0.18
44.72,-0.097,1.072,-0.058
44.73,-0.206,0.81,0.227
44.74,-0.182,1.085,0.108
44.75,-0.287,0.718,-0.233
44.76,-0.312,1.291,-0.015
44.77,-0.083,0.898,0.094
44.78,-0.217,0.896,0.149
44.79,-0.172,0.906,-0.042
44.8,-0.426,1.027,-0.167
44.81,-0.16,1.091,0.024
44.82,-0.041,0.852,0.167
44.83,-0.25,1.012,0.073
44.84,-0.357,0.786,-0.163
44.85,-0.133,1.291,-0.092
44.86,-0.101,0.792,0.11
44.87,-0.202,0.908,0.231
44.88,-0.27,0.957,-0.103
44.89,-0.304,0.895,-0.185
44.9,-0.113,1.29,0.144
44.91,-0.152,0.72,0.163
44.92,-0.22,0.988,-0.017
44.93,-0.325,0.956,-0.135
44.94,-0.211,1.179,-0.037
44.95,-0.169,0.801,0.125
44.96,-0.137,0.925,0.173
44.97,-0.371,1.014,-0.193
44.98,-0.303,0.859,-0.047
44.99,-0.027,1.328,0.053
45.0,-0.095,0.6,0.101
45.01,-0.292,1.052,0.035
45.02,-0.308,0.977,-0.208
45.03,-0.13,1.022,-0.003
45.04,-0.164,0.891,0.182
45.05,-0.121,0.802,0.084
45.06,-0.426,1.101,-0.204
45.07,-0.221,0.885,-0.027
45.08,-0.075,1.218,0.067
45.09,-0.171,0.604,0.103
45.1,-0.264,1.12,-0.02
45.11,-0.303,1.01,-0.197
45.12,-0.31,0.986,0.084
45.13,-0.04,1.022,0.135
45.14,-0.175,0.7,-0.026
45.15,-0.478,1.219,-0.149
45.16,-0.012,0.875,-0.088
45.17,-0.209,1.121,0.088
45.18,-0.146,0.685,0.208
45.19,-0.305,1.054,-0.181
45.2,-0.324,0.971,-0.14
45.21,-0.064,1.087,0.167
45.22,-0.143,0.953,0.074
45.23,-0.25,0.653,-0.031
45.24,-0.311,1.362,-0.173
45.25,-0.161,0.842,0.004
45.26,-0.297,1.1,0.198
45.27,-0.065,0.658,0.072
45.28,-0.561,1.2,-0.202
45.29,-0.019,0.957,-0.061
45.3,-0.088,1.066,0.032
45.31,-0.206,0.84,0.171
45.32,-0.191,0.847,-0.094
45.33,-0.36,1.191,-0.171
45.34,-0.156,0.882,0.171
45.35,-0.104,1.144,0.151
45.36,-0.215,0.63,0.012
45.37,-0.469,1.283,-0.163
45.38,-0.057,0.971,-0.092
45.39,-0.219,0.938,0.121
45.4,-0.134,0.949,0.207
45.41,-0.393,0.78,-0.197
45.42,-0.314,1.201,-0.097
45.43,0.032,0.952,0.096
45.44,-0.202,0.978,0.074
45.45,-0.271,0.71,0.062
45.46,-0.344,1.289,-0.218
45.47,-0.134,0.905,-0.04
45.48,-0.137,0.873,0.219
45.49,-0.082,0.979,0.055
45.5,-0.46,0.784,-0.209
45.51,-0.11,1.334,-0.072
45.52,-0.052,0.75,0.067
45.53,-0.275,1.011,0.23
45.54,-0.207,0.842,-0.065
45.55,-0.404,1.07,-0.211
45.56,-0.187,1.049,0.161
45.57,-0.018,0.864,0.101
45.58,-0.298,0.96,-0.034
45.59,-0.343,0.921,-0.096
45.6,-0.188,1.269,-0.057
45.61,-0.229,0.677,0.153
45.62,-0.12,1.03,0.179
45.63,-0.316,0.935,-0.208
45.64,-0.305,0.999,-0.09
45.65,0.003,1.144,0.071
45.66,-0.117,0.636,0.119
45.67,-0.341,1.113,0.025
45.68,-0.285,0.936,-0.229
45.69,-0.15,1.157,-0.04
45.7,-0.137,0.826,0.195
45.71,-0.097,0.947,0.074
45.72,-0.455,0.943,-0.195
45.73,-0.127,1.014,-0.022
45.74,-0.141,1.136,0.08
45.75,-0.19,0.617,0.17
45.76,-0.296,1.182,-0.033
45.77,-0.289,0.862,-0.228
45.78,-0.205,1.176,0.143
45.79,-0.049,0.825,0.12
45.8,-0.159,0.826,-0.006
45.81,-0.466,1.149,-0.137
45.82,-0.064,0.977,-0.088
45.83,-0.175,1.051,0.059
45.84,-0.051,0.731,0.215
45.85,-0.458,1.147,-0.196
45.86,-0.302,0.796,-0.084
45.87,-0.031,1.324,0.124
45.88,-0.155,0.758,0.089
45.89,-0.248,0.81,0.013
45.9,-0.252,1.256,-0.216
45.91,-0.144,0.823,-0.009
45.92,-0.239,1.107,0.195
45.93,0.015,0.69,0.068
45.94,-0.556,1.177,-0.23
45.95,-0.118,0.913,-0.021
45.96,-0.085,1.182,0.061
45.97,-0.179,0.788,0.108
45.98,-0.221,0.867,-0.053
45.99,-0.365,1.232,-0.245
46.0,-0.115,0.792,0.055
46.01,-0.035,1.168,0.093
46.02,-0.193,0.621,0.005
46.03,-0.499,1.226,-0.107
46.04,-0.076,1.002,-0.079
46.05,-0.229,0.908,0.119
46.06,-0.102,0.972,0.186
46.07,-0.343,0.808,-0.177
46.08,-0.341,1.167,-0.14
46.09,0.028,0.982,0.086
46.1,-0.188,1.004,0.09
46.11,-0.255,0.697,-0.023
46.12,-0.365,1.305,-0.192
46.13,-0.139,0.872,0.014
46.14,-0.07,1.049,0.15
46.15,-0.2,0.796,0.048
46.16,-0.424,1.001,-0.164
46.17,-0.127,1.165,-0.109
46.18,-0.04,0.757,0.104
46.19,-0.125,1.101,0.142
46.2,-0.322,0.711,-0.161
46.21,-0.28,1.21,-0.138
46.22,-0.056,0.973,0.145
46.23,-0.189,0.845,0.139
46.24,-0.192,0.9,-0.004
46.25,-0.277,1.022,-0.242
46.26,-0.198,1.138,0.019
46.27,-0.116,0.76,0.186
46.28,-0.167,1.079,0.062
46.29,-0.348,0.789,-0.196
46.3,-0.243,1.237,-0.046
46.31,-0.068,0.9,0.064
46.32,-0.182,0.781,0.172
46.33,-0.286,1.01,-0.037
46.34,-0.37,0.937,-0.184
46.35,-0.112,1.234,0.087
46.36,-0.141,0.738,0.116
46.37,-0.196,0.992,0.012
46.38,-0.425,0.951,-0.163
46.39,-0.115,1.202,-0.045
46.4,-0.125,0.833,0.093
46.41,-0.184,0.833,0.208
46.42,-0.422,1.089,-0.154
46.43,-0.287,0.853,-0.108
46.44,0.007,1.286,0.092
46.45,-0.152,0.645,0.111
46.46,-0.323,1.031,0.062
46.47,-0.344,0.998,-0.203
46.48,-0.12,1.049,0.005
46.49,-0.146,0.998,0.164
46.5,-0.089,0.724,0.03
46.51,-0.475,1.208,-0.205
46.52,-0.062,0.866,-0.075
46.53,-0.128,1.134,0.054
46.54,-0.112,0.705,0.175
46.55,-0.371,1.031,-0.124
46.56,-0.256,1.0,-0.165
46.57,-0.147,1.074,0.139
46.58,-0.145,0.912,0.119
46.59,-0.218,0.7,0.034
46.6,-0.463,1.346,-0.201
46.61,-0.076,0.81,-0.02
46.62,-0.178,1.116,0.12
46.63,-0.094,0.746,0.139
46.64,-0.404,1.031,-0.219
46.65,-0.256,1.071,-0.065
46.66,-0.039,0.965,0.098
46.67,-0.194,0.969,0.112
46.68,-0.26,0.695,0.003
46.69,-0.33,1.351,-0.249
46.7,-0.045,0.817,0.023
46.71,-0.116,1.115,0.145
46.72,-0.091,0.667,-0.002
46.73,-0.51,1.106,-0.159
46.74,-0.033,1.157,-0.082
46.75,-0.105,0.753,0.08
46.76,-0.183,1.05,0.189
46.77,-0.351,0.736,-0.132
46.78,-0.32,1.22,-0.146
46.79,0.055,0.937,0.091
46.8,-0.179,0.932,0.103
46.81,-0.231,0.832,0.044
46.82,-0.405,1.115,-0.223
46.83,-0.09,1.071,-0.063
46.84,-0.048,0.828,0.162
46.85,-0.177,1.038,0.056
46.86,-0.384,0.767,-0.158
46.87,-0.138,1.325,-0.066
46.88,-0.097,0.806,0.102
46.89,-0.234,0.893,0.2
46.9,-0.312,0.774,-0.123
46.91,-0.38,1.086,-0.121
46.92,-0.031,1.107,0.071
46.93,-0.146,0.751,0.133
46.94,-0.259,1.025,0.048
46.95,-0.326,0.952,-0.214
46.96,-0.103,1.205,-0.035
46.97,-0.147,0.702,0.18
46.98,-0.123,0.969,0.068
46.99,-0.389,0.917,-0.188
47.0,-0.226,1.091,-0.037
47.01,-0.093,1.042,0.123
47.02,-0.214,0.689,0.147
47.03,-0.3,1.096,-0.028
47.04,-0.292,0.882,-0.196
47.05,-0.179,1.269,0.164
47.06,-0.142,0.746,0.128
47.07,-0.22,0.902,-0.033
47.08,-0.372,1.073,-0.172
47.09,-0.112,0.979,-0.041
47.1,-0.225,1.068,0.186
47.11,-0.103,0.737,0.116
47.12,-0.418,1.104,-0.197
47.13,-0.22,0.905,-0.056
47.14,-0.032,1.228,0.052
47.15,-0.146,0.676,0.143
47.16,-0.266,0.939,-0.004
47.17,-0.305,1.124,-0.283
47.18,-0.093,0.885,0.044
47.19,-0.14,1.161,0.114
47.2,-0.107,0.628,0.037
47.21,-0.522,1.216,-0.201
47.22,-0.121,0.877,-0.033
47.23,-0.112,1.089,0.09
47.24,-0.091,0.812,0.125
47.25,-0.353,0.903,-0.102
47.26,-0.331,1.111,-0.151
47.27,-0.104,0.972,0.13
47.28,-0.097,1.078,0.11
47.29,-0.21,0.653,0.03
47.3,-0.496,1.321,-0.141
47.31,-0.105,0.894,-0.034
47.32,-0.181,0.979,0.137
47.33,-0.092,0.874,0.126
47.34,-0.378,0.902,-0.213
47.35,-0.224,1.231,-0.012
47.36,-0.042,0.868,0.141
47.37,-0.238,1.008,0.112
47.38,-0.217,0.706,-0.039
47.39,-0.358,1.279,-0.154
47.4,-0.186,0.926,0.093
47.41,-0.079,0.962,0.157
47.42,-0.208,0.865,0.034
47.43,-0.454,0.952,-0.157
47.44,-0.109,1.255,-0.068
47.45,-0.124,0.696,0.158
47.46,-0.135,1.074,0.105
47.47,-0.309,0.735,-0.181
47.48,-0.341,1.177,-0.091
47.49,-0.007,1.03,0.076
47.5,-0.174,0.769,0.128
47.51,-0.301,0.973,0.032
47.52,-0.294,0.961,-0.256
47.53,-0.042,1.185,-0.044
47.54,-0.082,0.775,0.193
47.55,-0.167,0.988,0.052
47.56,-0.37,0.853,-0.198
47.57,-0.114,1.137,-0.083
47.58,-0.138,0.889,0.083
47.59,-0.232,0.774,0.184
47.6,-0.343,1.125,-0.088
47.61,-0.236,0.818,-0.192
47.62,-0.143,1.277,0.117
47.63,-0.033,0.711,0.123
47.64,-0.3,0.968,-0.008
47.65,-0.469,1.011,-0.136
47.66,-0.089,1.065,-0.061
47.67,-0.153,0.907,0.069
47.68,-0.102,0.753,0.15
47.69,-0.449,1.181,-0.188
47.7,-0.305,0.789,-0.098
47.71,0.04,1.261,0.076
47.72,-0.162,0.616,0.141
47.73,-0.256,1.157,-0.063
47.74,-0.207,0.94,-0.23
47.75,-0.197,1.11,0.102
47.76,-0.068,0.884,0.146
47.77,-0.193,0.789,-0.037
47.78,-0.468,1.203,-0.151
47.79,-0.016,0.911,-0.049
47.8,-0.25,1.136,0.113
47.81,-0.114,0.684,0.168
47.82,-0.367,1.141,-0.173
47.83,-0.288,0.924,-0.118
47.84,-0.031,1.119,0.152
47.85,-0.219,0.866,0.117
47.86,-0.262,0.734,-0.005
47.87,-0.329,1.305,-0.197
47.88,-0.093,0.823,-0.022
47.89,-0.189,1.14,0.201
47.9,-0.058,0.656,0.017
47.91,-0.444,1.131,-0.184
47.92,-0.084,1.069,-0.065
47.93,-0.072,0.935,0.073
47.94,-0.167,0.955,0.159
47.95,-0.247,0.806,-0.097
47.96,-0.357,1.229,-0.195
47.97,-0.069,0.892,0.16
47.98,-0.181,1.109,0.123
47.99,-0.282,0.674,0.014
48.0,-0.351,1.178,-0.16
48.01,-0.164,1.011,-0.051
48.02,-0.183,0.809,0.209
48.03,-0.072,1.037,0.115
48.04,-0.396,0.744,-0.201
48.05,-0.327,1.283,-0.024
48.06,-0.003,0.916,0.097
48.07,-0.288,0.929,0.132
48.08,-0.177,0.845,-0.013
48.09,-0.31,1.149,-0.265
48.1,-0.146,1.019,-0.008
48.11,-0.053,0.839,0.158
48.12,-0.185,0.98,-0.026
48.13,-0.341,0.798,-0.192
48.14,-0.178,1.338,-0.057
48.15,-0.064,0.766,0.103
48.16,-0.104,0.919,0.139
48.17,-0.269,0.955,-0.095
48.18,-0.357,1.035,-0.137
48.19,-0.227,1.098,0.128
48.2,-0.059,0.692,0.169
48.21,-0.317,1.092,-0.036
48.22,-0.36,0.874,-0.163
48.23,-0.102,1.189,-0.03
48.24,-0.172,0.763,0.142
48.25,-0.071,0.927,0.139
48.26,-0.396,1.025,-0.181
48.27,-0.301,0.913,-0.067
48.28,-0.026,1.236,0.071
48.29,-0.107,0.628,0.075
48.3,-0.3,1.115,0.007
48.31,-0.311,0.907,-0.174
48.32,-0.19,1.122,0.061
48.33,-0.036,0.876,0.141
48.34,-0.121,0.804,-0.004
48.35,-0.423,1.149,-0.166
48.36,-0.065,0.91,-0.103
48.37,-0.225,1.067,0.118
