t,ax,ay,az
0.0,-0.112,0.909,0.051
0.01,-0.078,1.101,0.107
0.02,-0.159,0.72,0.047
0.03,-0.409,1.107,-0.159
0.04,-0.108,1.121,-0.077
0.05,-0.115,0.843,0.102
0.06,-0.171,1.022,0.168
0.07,-0.317,0.782,-0.156
0.08,-0.279,1.199,-0.146
0.09,-0.133,0.931,0.059
0.1,-0.1,0.999,0.177
0.11,-0.172,0.795,0.039
0.12,-0.483,1.075,-0.164
0.13,-0.149,1.115,-0.032
0.14,-0.116,0.771,0.137
0.15,-0.169,1.06,0.136
0.16,-0.29,0.777,-0.181
0.17,-0.266,1.171,-0.121
0.18,-0.133,0.931,0.126
0.19,-0.087,0.942,0.133
0.2,-0.182,0.856,-0.033
0.21,-0.415,1.031,-0.113
0.22,-0.126,1.187,-0.023
0.23,-0.137,0.724,0.081
0.24,-0.123,1.063,0.169
0.25,-0.364,0.827,-0.19
0.26,-0.281,1.121,-0.079
0.27,-0.018,0.998,0.035
0.28,-0.088,0.811,0.124
0.29,-0.319,0.98,0.019
0.3,-0.313,0.986,-0.207
0.31,-0.096,1.158,-0.058
0.32,-0.142,0.768,0.19
0.33,-0.148,1.058,0.066
0.34,-0.394,0.812,-0.192
0.35,-0.178,1.12,-0.022
0.36,-0.082,1.018,0.058
0.37,-0.196,0.695,0.13
0.38,-0.295,1.085,-0.024
0.39,-0.271,0.857,-0.199
0.4,-0.178,1.213,0.044
0.41,-0.13,0.802,0.192
0.42,-0.104,0.952,0.05
0.43,-0.401,0.925,-0.174
0.44,-0.126,1.088,-0.062
0.45,-0.148,0.97,0.072
0.46,-0.129,0.726,0.208
0.47,-0.348,1.177,-0.121
0.48,-0.258,0.777,-0.166
0.49,-0.167,1.297,0.095
0.5,-0.104,0.78,0.118
0.51,-0.192,0.915,0.013
0.52,-0.405,1.056,-0.151
0.53,-0.147,0.997,-0.065
0.54,-0.179,0.971,0.112
0.55,-0.119,0.722,0.188
0.56,-0.402,1.146,-0.177
0.57,-0.25,0.761,-0.146
0.58,-0.131,1.302,0.134
0.59,-0.124,0.74,0.116
0.6,-0.212,0.878,0.019
0.61,-0.377,1.167,-0.144
0.62,-0.124,0.929,-0.018
0.63,-0.276,1.051,0.165
0.64,-0.021,0.693,0.134
0.65,-0.459,1.197,-0.157
0.66,-0.254,0.804,-0.125
0.67,-0.01,1.238,0.062
0.68,-0.103,0.781,0.097
0.69,-0.236,0.861,0.008
0.7,-0.341,1.198,-0.196
0.71,-0.083,0.829,0.015
0.72,-0.239,1.14,0.174
0.73,-0.02,0.703,0.084
0.74,-0.487,1.135,-0.191
0.75,-0.222,0.943,-0.037
0.76,-0.061,1.204,0.061
0.77,-0.155,0.778,0.1
0.78,-0.258,0.881,0.005
0.79,-0.312,1.271,-0.285
0.8,-0.132,0.742,0.011
0.81,-0.195,1.191,0.207
0.82,-0.104,0.637,0.016
0.83,-0.464,1.226,-0.186
0.84,-0.061,0.915,-0.071
0.85,-0.198,1.103,0.071
0.86,-0.165,0.705,0.199
0.87,-0.263,1.01,-0.088
0.88,-0.291,1.034,-0.197
0.89,-0.154,0.895,0.142
0.9,-0.139,1.154,0.128
0.91,-0.099,0.565,0.012
0.92,-0.53,1.307,-0.159
0.93,-0.053,0.931,-0.069
0.94,-0.231,1.034,0.058
0.95,-0.093,0.832,0.197
0.96,-0.326,0.901,-0.153
0.97,-0.304,1.09,-0.136
0.98,0.009,0.955,0.102
0.99,-0.144,1.097,0.078
1.0,-0.202,0.609,0.025
1.01,-0.382,1.336,-0.179
1.02,-0.141,0.922,-0.048
1.03,-0.223,0.942,0.173
1.04,-0.074,0.916,0.103
1.05,-0.357,0.845,-0.189
1.06,-0.306,1.197,-0.059
1.07,0.046,0.917,-0.006
1.08,-0.162,1.002,0.148
1.09,-0.248,0.705,0.043
1.1,-0.352,1.27,-0.216
1.11,-0.138,0.914,-0.048
1.12,-0.159,0.974,0.187
1.13,-0.144,0.955,0.1
1.14,-0.365,0.802,-0.19
1.15,-0.235,1.288,-0.042
1.16,-0.093,0.901,0.082
1.17,-0.159,0.978,0.153
1.18,-0.174,0.765,0.01
1.19,-0.394,1.166,-0.197
1.2,-0.136,0.981,0.012
1.21,-0.228,0.901,0.175
1.22,-0.177,0.984,0.053
1.23,-0.355,0.764,-0.141
1.24,-0.234,1.325,-0.053
1.25,-0.068,0.886,0.07
1.26,-0.208,0.918,0.15
1.27,-0.229,0.86,0.023
1.28,-0.344,1.138,-0.208
1.29,-0.104,1.053,-0.052
1.3,-0.076,0.85,0.169
1.31,-0.189,1.06,0.051
1.32,-0.375,0.768,-0.147
1.33,-0.243,1.277,-0.031
1.34,-0.023,0.877,0.022
1.35,-0.125,0.867,0.119
1.36,-0.224,0.937,-0.053
1.37,-0.343,1.017,-0.203
1.38,-0.021,1.122,-0.045
1.39,-0.097,0.833,0.174
1.4,-0.181,1.021,0.048
1.41,-0.386,0.792,-0.202
1.42,-0.157,1.219,-0.065
1.43,-0.037,0.884,0.09
1.44,-0.17,0.853,0.164
1.45,-0.278,1.023,-0.073
1.46,-0.216,0.909,-0.202
1.47,-0.215,1.16,0.059
1.48,-0.056,0.776,0.142
1.49,-0.216,1.009,0.014
1.5,-0.329,0.892,-0.161
1.51,-0.102,1.196,-0.09
1.52,-0.183,0.869,0.114
1.53,-0.177,0.793,0.224
1.54,-0.309,1.086,-0.085
1.55,-0.262,0.849,-0.174
1.56,-0.215,1.236,0.126
1.57,-0.054,0.729,0.157
1.58,-0.248,1.01,0.013
1.59,-0.405,0.921,-0.133
1.6,-0.167,1.067,-0.074
1.61,-0.121,0.901,0.061
1.62,-0.062,0.822,0.183
1.63,-0.424,1.009,-0.149
1.64,-0.284,0.858,-0.059
1.65,-0.032,1.272,0.039
1.66,-0.136,0.654,0.148
1.67,-0.29,1.061,0.018
1.68,-0.319,0.968,-0.179
1.69,-0.123,1.059,-0.056
1.7,-0.213,0.833,0.197
1.71,-0.066,0.878,0.122
1.72,-0.392,1.062,-0.186
1.73,-0.232,0.861,-0.046
1.74,-0.097,1.307,0.063
1.75,-0.135,0.597,0.163
1.76,-0.343,1.072,0.039
1.77,-0.361,0.991,-0.203
1.78,-0.136,1.005,-0.049
1.79,-0.17,0.92,0.176
1.8,-0.079,0.849,0.1
1.81,-0.413,1.074,-0.191
1.82,-0.246,0.841,-0.025
1.83,-0.171,1.323,0.064
1.84,-0.074,0.615,0.126
1.85,-0.255,1.073,0.032
1.86,-0.334,1.005,-0.233
1.87,-0.193,0.945,0.03
1.88,-0.143,1.036,0.154
1.89,-0.139,0.75,0.055
1.9,-0.438,1.143,-0.201
1.91,-0.123,0.91,-0.036
1.92,-0.102,1.248,0.031
1.93,-0.181,0.647,0.176
1.94,-0.25,1.008,0.004
1.95,-0.264,1.059,-0.21
1.96,-0.189,0.922,0.054
1.97,-0.109,1.099,0.138
1.98,-0.092,0.679,0.072
1.99,-0.525,1.179,-0.16
2.0,-0.122,0.861,-0.041
2.01,-0.128,1.228,0.083
2.02,-0.195,0.703,0.134
2.03,-0.272,0.957,-0.027
2.04,-0.062,0.87,0.046
2.05,-0.38,1.062,-0.214
2.06,-0.22,0.881,-0.013
2.07,-0.089,1.226,0.064
2.08,-0.114,0.655,0.117
2.09,-0.342,1.147,0.026
2.1,-0.268,0.902,-0.204
2.11,-0.178,1.113,-0.024
2.12,-0.084,0.887,0.119
2.13,-0.142,0.81,0.081
2.14,-0.478,1.138,-0.164
2.15,-0.126,0.892,-0.062
2.16,-0.139,1.218,0.065
2.17,-0.164,0.634,0.163
2.18,-0.285,1.128,-0.034
2.19,-0.355,0.934,-0.189
2.2,-0.204,1.032,0.028
2.21,-0.107,1.029,0.12
2.22,-0.153,0.726,0.059
2.23,-0.421,1.183,-0.162
2.24,-0.078,0.894,-0.096
2.25,-0.172,1.144,0.085
2.26,-0.104,0.653,0.215
2.27,-0.309,1.143,-0.104
2.28,-0.291,0.915,-0.197
2.29,-0.143,1.009,0.061
2.3,-0.117,1.089,0.125
2.31,-0.107,0.686,0.004
2.32,-0.483,1.223,-0.168
2.33,-0.141,0.885,-0.041
2.34,-0.166,1.177,0.097
2.35,-0.175,0.704,0.163
2.36,-0.291,1.046,-0.092
2.37,-0.271,0.859,-0.136
2.38,-0.093,1.169,0.102
2.39,-0.085,0.924,0.088
2.4,-0.258,0.71,-0.037
2.41,-0.298,1.268,-0.137
2.42,-0.157,0.904,0.003
2.43,-0.324,1.098,0.146
2.44,-0.016,0.674,0.183
2.45,-0.445,1.1,-0.173
2.46,-0.217,0.873,-0.146
2.47,-0.007,1.17,0.041
2.48,-0.094,0.929,0.068
2.49,-0.252,0.687,0.023
2.5,-0.332,1.359,-0.196
2.51,-0.201,0.823,-0.021
2.52,-0.19,1.077,0.13
2.53,-0.004,0.749,0.104
2.54,-0.512,1.027,-0.193
2.55,-0.219,0.955,-0.042
2.56,-0.029,1.139,0.065
2.57,-0.179,0.914,0.123
2.58,-0.229,0.715,0.023
2.59,-0.276,1.366,-0.256
2.6,-0.132,0.793,-0.034
2.61,-0.199,1.098,0.188
2.62,-0.071,0.799,0.09
2.63,-0.467,0.966,-0.189
2.64,-0.178,1.102,0.005
2.65,-0.096,0.989,0.04
2.66,-0.153,0.921,0.065
2.67,-0.194,0.734,0.019
2.68,-0.402,1.331,-0.226
2.69,-0.113,0.795,-0.031
2.7,-0.115,1.118,0.148
2.71,-0.095,0.813,0.051
2.72,-0.498,0.934,-0.089
2.73,-0.176,1.235,-0.028
2.74,-0.059,0.905,0.02
2.75,-0.207,0.959,0.153
2.76,-0.157,0.755,-0.048
2.77,-0.387,1.273,-0.195
2.78,-0.112,0.91,0.002
2.79,-0.22,1.001,0.207
2.8,-0.094,0.862,0.072
2.81,-0.446,0.922,-0.183
2.82,-0.161,1.262,-0.023
2.83,-0.104,0.801,0.034
2.84,-0.114,0.994,0.153
2.85,-0.26,0.798,-0.061
2.86,-0.398,1.149,-0.17
2.87,-0.12,0.938,0.055
2.88,-0.13,0.997,0.189
2.89,-0.221,0.884,0.045
2.9,-0.402,0.837,-0.153
2.91,-0.05,1.323,-0.053
2.92,-0.129,0.73,0.039
2.93,-0.19,0.993,0.198
2.94,-0.236,0.846,-0.118
2.95,-0.324,1.033,-0.178
2.96,-0.149,1.07,0.097
2.97,-0.054,0.872,0.084
2.98,-0.195,0.952,0.008
2.99,-0.331,0.929,-0.117
3.0,-0.17,1.283,-0.075
3.01,-0.164,0.739,0.094
3.02,-0.124,1.044,0.209
3.03,-0.299,0.914,-0.186
3.04,-0.351,0.921,-0.161
3.05,-0.11,1.16,0.085
3.06,-0.023,0.774,0.096
3.07,-0.324,0.996,0.067
3.08,-0.26,0.925,-0.164
3.09,-0.188,1.245,-0.047
3.1,-0.245,0.687,0.16
3.11,-0.105,0.983,0.208
3.12,-0.348,0.975,-0.195
3.13,-0.292,0.854,-0.113
3.14,-0.027,1.291,0.09
3.15,-0.145,0.71,0.095
3.16,-0.275,0.991,0.019
3.17,-0.303,0.972,-0.139
3.18,-0.189,1.149,-0.049
3.19,-0.137,0.779,0.188
3.2,-0.155,1.039,0.077
3.21,-0.4,0.831,-0.212
3.22,-0.172,1.106,-0.047
3.23,-0.096,1.133,0.076
3.24,-0.197,0.608,0.167
3.25,-0.264,1.104,-0.007
3.26,-0.25,0.913,-0.211
3.27,-0.187,1.167,-0.009
3.28,-0.099,0.791,0.15
3.29,-0.083,0.954,0.044
3.3,-0.432,0.965,-0.182
3.31,-0.233,0.952,-0.024
3.32,-0.107,1.161,0.078
3.33,-0.162,0.631,0.151
3.34,-0.401,1.129,0.01
3.35,-0.24,0.87,-0.206
3.36,-0.177,1.161,0.029
3.37,-0.112,0.811,0.159
3.38,-0.137,0.886,0.067
3.39,-0.475,1.055,-0.154
3.4,-0.116,0.957,-0.06
3.41,-0.165,1.178,0.096
3.42,-0.1,0.593,0.191
3.43,-0.311,1.197,-0.055
3.44,-0.349,0.816,-0.222
3.45,-0.098,1.098,0.038
3.46,-0.076,0.935,0.128
3.47,-0.156,0.796,0.029
3.48,-0.362,1.183,-0.172
3.49,-0.103,0.934,-0.075
3.5,-0.205,1.126,0.109
3.51,-0.113,0.666,0.176
3.52,-0.356,1.172,-0.093
3.53,-0.333,0.827,-0.179
3.54,-0.129,1.093,0.086
3.55,-0.048,0.963,0.091
3.56,-0.153,0.675,0.025
3.57,-0.396,1.271,-0.134
3.58,-0.189,0.917,-0.06
3.59,-0.189,1.124,0.054
3.6,-0.097,0.754,0.211
3.61,-0.397,1.088,-0.142
3.62,-0.232,0.899,-0.191
3.63,-0.065,1.116,0.074
3.64,-0.105,0.951,0.1
3.65,-0.22,0.69,0.037
3.66,-0.391,1.318,-0.206
3.67,-0.146,0.776,-0.041
3.68,-0.271,1.15,0.163
3.69,-0.08,0.746,0.147
3.7,-0.366,1.003,-0.15
3.71,-0.294,1.038,-0.084
3.72,-0.062,1.047,0.069
3.73,-0.145,0.955,0.122
3.74,-0.209,0.691,0.047
3.75,-0.367,1.361,-0.233
3.76,-0.081,0.803,-0.037
3.77,-0.278,1.125,0.197
3.78,-0.098,0.781,0.112
3.79,-0.346,0.921,-0.193
3.8,-0.255,1.099,-0.101
3.81,-0.014,0.991,0.04
3.82,-0.128,0.994,0.1
3.83,-0.276,0.664,0.07
3.84,-0.317,1.316,-0.243
3.85,-0.106,0.851,-0.037
3.86,-0.224,1.066,0.19
3.87,-0.073,0.894,0.083
3.88,-0.396,0.841,-0.195
3.89,-0.256,1.16,-0.009
3.9,0.0,0.967,0.063
3.91,-0.205,0.984,0.101
3.92,-0.243,0.705,0.057
3.93,-0.294,1.322,-0.217
3.94,-0.178,0.855,-0.041
3.95,-0.139,0.968,0.177
3.96,-0.053,0.992,0.047
3.97,-0.425,0.804,-0.204
3.98,-0.235,1.211,-0.026
3.99,0.01,0.932,0.033
4.0,-0.238,0.966,0.155
4.01,-0.197,0.771,-0.009
4.02,-0.364,1.245,-0.264
4.03,-0.172,0.787,0.068
4.04,-0.013,1.167,0.162
4.05,-0.254,0.799,0.049
4.06,-0.414,0.9,-0.138
4.07,-0.003,1.261,-0.077
4.08,-0.159,0.789,0.099
4.09,-0.2,1.009,0.212
4.1,-0.236,0.793,-0.09
4.11,-0.323,1.125,-0.219
4.12,-0.143,0.916,0.126
4.13,-0.066,1.049,0.136
4.14,-0.194,0.836,0.034
4.15,-0.382,0.94,-0.142
4.16,-0.178,1.24,-0.083
4.17,-0.114,0.755,0.077
4.18,-0.137,1.089,0.134
4.19,-0.247,0.774,-0.141
4.2,-0.272,1.08,-0.148
4.21,-0.181,1.061,0.079
4.22,-0.062,0.908,0.115
4.23,-0.164,0.934,0.018
4.24,-0.37,0.942,-0.144
4.25,-0.15,1.254,-0.09
4.26,-0.131,0.743,0.055
4.27,-0.156,1.043,0.182
4.28,-0.3,0.862,-0.124
4.29,-0.358,1.031,-0.1
4.3,-0.138,1.069,0.068
4.31,-0.067,0.885,0.145
4.32,-0.246,0.98,0.045
4.33,-0.386,0.856,-0.186
4.34,-0.11,1.278,-0.102
4.35,-0.079,0.689,0.089
4.36,-0.212,0.998,0.191
4.37,-0.323,0.908,-0.12
4.38,-0.252,0.972,-0.169
4.39,-0.097,1.147,0.099
4.4,-0.057,0.758,0.155
4.41,-0.331,1.042,0.01
4.42,-0.349,0.881,-0.14
4.43,-0.205,1.21,-0.015
4.44,-0.183,0.766,0.153
4.45,-0.163,0.958,0.165
4.46,-0.363,0.965,-0.157
4.47,-0.244,0.873,-0.101
4.48,-0.122,1.258,0.064
4.49,-0.074,0.659,0.159
4.5,-0.27,1.051,0.022
4.51,-0.354,0.901,-0.182
4.52,-0.126,1.109,-0.046
4.53,-0.147,0.853,0.134
4.54,-0.138,0.888,0.168
4.55,-0.317,1.027,-0.213
4.56,-0.172,0.85,-0.059
4.57,-0.201,1.284,0.046
4.58,-0.059,0.583,0.158
4.59,-0.273,1.097,-0.005
4.6,-0.305,0.947,-0.209
4.61,-0.193,1.067,-0.02
4.62,-0.156,0.893,0.144
4.63,-0.152,0.819,0.13
4.64,-0.395,1.097,-0.193
4.65,-0.161,0.832,-0.058
4.66,-0.165,1.292,0.078
4.67,-0.053,0.601,0.153
4.68,-0.365,1.098,0.032
4.69,-0.363,0.97,-0.193
4.7,-0.112,0.99,-0.0
4.71,-0.162,1.055,0.125
4.72,-0.181,0.714,0.075
4.73,-0.372,1.124,-0.162
4.74,-0.15,0.895,-0.019
4.75,-0.086,1.27,0.092
4.76,-0.141,0.657,0.151
4.77,-0.341,1.033,-0.03
4.78,-0.274,0.984,-0.235
4.79,-0.061,0.988,-0.017
4.8,-0.176,1.049,0.164
4.81,-0.12,0.804,0.028
4.82,-0.454,1.188,-0.173
4.83,-0.188,0.865,-0.018
4.84,-0.125,1.157,0.092
4.85,-0.063,0.668,0.144
4.86,-0.423,1.117,-0.111
4.87,-0.18,0.887,-0.183
4.88,-0.119,1.146,0.041
4.89,-0.109,0.906,0.099
4.9,-0.127,0.708,0.031
4.91,-0.411,1.274,-0.198
4.92,-0.128,0.826,-0.055
4.93,-0.159,1.125,0.154
4.94,-0.137,0.712,0.186
4.95,-0.37,1.06,-0.161
4.96,-0.19,0.932,-0.17
4.97,-0.141,1.08,0.094
4.98,-0.122,0.984,0.129
4.99,-0.19,0.671,0.03
5.0,-0.516,1.316,-0.116
5.01,-0.056,0.86,-0.046
5.02,-0.223,1.125,0.112
5.03,-0.067,0.761,0.143
5.04,-0.391,1.007,-0.173
5.05,-0.322,1.019,-0.074
5.06,-0.045,1.004,0.057
5.07,-0.098,0.979,0.072
5.08,-0.209,0.73,0.09
5.09,-0.458,1.291,-0.21
5.1,-0.012,0.778,-0.043
5.11,-0.195,1.172,0.198
5.12,-0.148,0.774,0.082
5.13,-0.447,0.948,-0.15
5.14,-0.17,1.166,-0.081
5.15,-0.129,0.886,0.109
5.16,-0.135,0.984,0.108
5.17,-0.264,0.757,0.002
5.18,-0.396,1.267,-0.193
5.19,-0.089,0.832,-0.013
5.2,-0.166,1.084,0.184
5.21,-0.117,0.884,0.063
5.22,-0.377,0.887,-0.148
5.23,-0.265,1.213,-0.023
5.24,-0.138,0.866,0.091
5.25,-0.1,0.975,0.125
5.26,-0.285,0.772,-0.029
5.27,-0.342,1.202,-0.2
5.28,-0.132,0.878,0.023
5.29,-0.145,1.012,0.189
5.3,-0.183,0.893,0.076
5.31,-0.347,0.797,-0.203
5.32,-0.08,1.29,-0.083
5.33,-0.19,0.803,0.109
5.34,-0.111,0.971,0.126
5.35,-0.292,0.813,-0.046
5.36,-0.369,1.125,-0.147
5.37,-0.11,0.955,0.015
5.38,-0.034,0.895,0.128
5.39,-0.106,1.003,0.026
5.4,-0.396,0.884,-0.144
5.41,-0.21,1.226,-0.065
5.42,-0.067,0.779,0.053
5.43,-0.166,0.976,0.227
5.44,-0.351,0.877,-0.12
5.45,-0.296,0.965,-0.124
5.46,-0.177,1.08,0.035
5.47,-0.154,0.848,0.141
5.48,-0.103,0.991,0.051
5.49,-0.306,0.901,-0.197
5.5,-0.229,1.241,-0.089
5.51,-0.053,0.793,0.088
5.52,-0.039,0.977,0.148
5.53,-0.373,0.897,-0.113
5.54,-0.244,0.925,-0.107
5.55,-0.124,1.255,0.022
5.56,-0.246,0.75,0.154
5.57,-0.093,1.016,0.041
5.58,-0.359,0.956,-0.198
5.59,-0.254,1.171,-0.07
5.6,-0.039,0.773,0.038
5.61,-0.131,0.94,0.182
5.62,-0.32,0.953,-0.131
5.63,-0.176,1.049,-0.117
5.64,-0.235,1.129,0.052
5.65,-0.133,0.755,0.163
5.66,-0.207,1.05,0.06
5.67,-0.469,0.955,-0.173
5.68,-0.066,1.196,-0.035
5.69,-0.066,0.766,0.101
5.7,-0.197,1.044,0.102
5.71,-0.281,0.816,-0.145
5.72,-0.227,1.162,-0.099
5.73,-0.118,0.989,0.06
5.74,-0.12,0.791,0.118
5.75,-0.281,1.022,-0.029
5.76,-0.397,0.907,-0.17
5.77,-0.049,1.186,-0.01
5.78,-0.092,0.802,0.148
5.79,-0.247,1.037,0.124
5.8,-0.28,0.83,-0.194
5.81,-0.211,1.099,-0.081
5.82,-0.128,1.08,0.088
5.83,-0.112,0.689,0.161
5.84,-0.357,1.086,-0.021
5.85,-0.288,0.9,-0.215
5.86,-0.131,1.151,0.026
5.87,-0.14,0.788,0.217
5.88,-0.202,1.0,0.067
5.89,-0.301,0.881,-0.227
5.9,-0.123,1.059,-0.028
5.91,-0.157,1.111,0.068
5.92,-0.111,0.648,0.134
5.93,-0.262,1.166,-0.068
5.94,-0.354,0.837,-0.231
5.95,-0.167,1.16,0.064
5.96,-0.09,0.882,0.165
5.97,-0.219,0.886,0.047
5.98,-0.381,1.02,-0.175
5.99,-0.02,0.94,-0.14
6.0,-0.24,1.084,0.063
6.01,-0.023,0.648,0.206
6.02,-0.342,1.218,-0.13
6.03,-0.391,0.721,-0.139
6.04,-0.093,1.203,0.078
6.05,-0.073,0.915,0.112
6.06,-0.199,0.82,0.019
6.07,-0.427,1.161,-0.224
6.08,-0.035,0.906,-0.067
6.09,-0.241,1.142,0.121
6.1,-0.101,0.649,0.208
6.11,-0.326,1.164,-0.181
6.12,-0.323,0.811,-0.143
6.13,-0.069,1.171,0.074
6.14,-0.078,0.924,0.081
6.15,-0.24,0.749,0.054
6.16,-0.461,1.287,-0.147
6.17,-0.077,0.862,-0.079
6.18,-0.23,1.135,0.081
6.19,-0.061,0.701,0.181
6.2,-0.403,1.127,-0.204
6.21,-0.296,0.84,-0.129
6.22,-0.055,1.185,0.103
6.23,-0.115,0.968,0.104
6.24,-0.264,0.678,0.039
6.25,-0.313,1.313,-0.198
6.26,-0.154,0.872,0.018
6.27,-0.339,1.159,0.169
6.28,-0.045,0.7,0.177
6.29,-0.406,1.047,-0.204
6.3,-0.26,0.998,-0.065
6.31,-0.005,1.083,0.087
6.32,-0.165,0.962,0.119
6.33,-0.252,0.649,0.061
6.34,-0.341,1.346,-0.235
6.35,-0.138,0.817,-0.027
6.36,-0.227,1.154,0.138
6.37,-0.073,0.752,0.111
6.38,-0.446,0.983,-0.182
6.39,-0.18,1.094,-0.078
6.4,-0.022,1.01,0.095
6.41,-0.258,1.025,0.13
6.42,-0.189,0.606,-0.012
6.43,-0.355,1.37,-0.15
6.44,-0.14,0.819,0.027
6.45,-0.148,1.131,0.175
6.46,-0.125,0.708,0.041
6.47,-0.466,1.098,-0.173
6.48,-0.113,1.022,-0.026
6.49,-0.098,1.014,0.099
6.5,-0.178,0.893,0.117
6.51,-0.273,0.776,-0.069
6.52,-0.322,1.296,-0.171
6.53,-0.119,0.816,0.046
6.54,-0.039,1.139,0.155
6.55,-0.239,0.722,0.012
6.56,-0.487,1.063,-0.159
6.57,-0.027,1.119,-0.068
6.58,-0.118,0.794,0.129
6.59,-0.21,1.038,0.187
6.6,-0.272,0.779,-0.191
6.61,-0.268,1.171,-0.161
6.62,-0.048,0.939,0.14
6.63,-0.176,0.958,0.142
6.64,-0.262,0.817,0.025
6.65,-0.324,1.106,-0.171
6.66,-0.076,1.12,-0.072
6.67,-0.221,0.742,0.214
6.68,-0.071,1.047,0.102
6.69,-0.389,0.782,-0.25
6.7,-0.181,1.192,-0.037
6.71,-0.145,0.984,0.092
6.72,-0.175,0.78,0.128
6.73,-0.17,0.957,-0.017
6.74,-0.376,0.995,-0.196
6.75,-0.139,1.127,0.011
6.76,-0.064,0.789,0.148
6.77,-0.247,1.052,0.09
6.78,-0.349,0.821,-0.199
6.79,-0.049,1.22,-0.107
6.8,-0.141,0.894,0.103
6.81,-0.214,0.786,0.219
6.82,-0.324,1.097,-0.103
6.83,-0.326,0.853,-0.117
6.84,-0.174,1.238,0.134
6.85,-0.093,0.731,0.108
6.86,-0.205,1.026,-0.015
6.87,-0.375,0.936,-0.155
6.88,-0.217,1.07,-0.046
6.89,-0.151,0.917,0.103
6.9,-0.043,0.798,0.124
6.91,-0.42,1.085,-0.17
6.92,-0.27,0.85,-0.043
6.93,-0.068,1.297,0.018
6.94,-0.127,0.614,0.152
6.95,-0.292,1.033,0.05
6.96,-0.314,1.055,-0.285
6.97,-0.175,0.898,0.003
6.98,-0.098,1.062,0.157
6.99,-0.127,0.7,0.087
7.0,-0.413,1.159,-0.165
7.01,-0.138,0.944,0.006
7.02,-0.173,1.202,0.002
7.03,-0.136,0.653,0.178
7.04,-0.256,1.004,-0.024
7.05,-0.401,1.071,-0.226
7.06,-0.081,0.874,0.026
7.07,-0.147,1.205,0.159
7.08,-0.12,0.609,0.058
7.09,-0.429,1.222,-0.129
7.1,-0.09,1.0,-0.027
7.11,-0.191,1.122,0.075
7.12,-0.102,0.734,0.167
7.13,-0.305,0.977,-0.057
7.14,-0.461,1.12,-0.146
7.15,-0.102,0.878,0.113
7.16,-0.136,1.213,0.106
7.17,-0.175,0.591,0.029
7.18,-0.431,1.244,-0.14
7.19,-0.124,0.945,-0.057
7.2,-0.16,1.005,0.077
7.21,-0.068,0.877,0.188
7.22,-0.415,0.879,-0.14
7.23,-0.298,1.138,-0.143
7.24,0.046,0.93,0.05
7.25,-0.212,0.936,0.073
7.26,-0.135,0.734,0.024
7.27,-0.473,1.353,-0.256
7.28,-0.167,0.724,0.045
7.29,-0.114,1.204,0.217
7.3,-0.137,0.747,0.035
7.31,-0.499,0.958,-0.166
7.32,-0.062,1.177,-0.131
7.33,-0.076,0.866,0.047
7.34,-0.261,0.978,0.201
7.35,-0.181,0.706,-0.101
7.36,-0.426,1.227,-0.166
7.37,-0.113,0.899,0.083
7.38,-0.056,1.111,0.055
7.39,-0.225,0.761,0.039
7.4,-0.359,0.977,-0.071
7.41,-0.135,1.316,-0.111
7.42,-0.125,0.67,0.059
7.43,-0.148,1.079,0.171
7.44,-0.303,0.784,-0.17
7.45,-0.322,1.078,-0.169
7.46,-0.055,1.026,0.119
7.47,-0.111,0.916,0.111
7.48,-0.248,0.934,-0.005
7.49,-0.358,1.003,-0.15
7.5,-0.165,1.184,-0.062
7.51,-0.118,0.703,0.114
7.52,-0.1,1.076,0.136
7.53,-0.407,0.808,-0.166
7.54,-0.225,1.108,-0.074
7.55,-0.003,1.102,0.049
7.56,-0.144,0.704,0.122
7.57,-0.254,1.054,0.039
7.58,-0.353,0.959,-0.183
7.59,-0.229,1.154,0.003
7.6,-0.076,0.73,0.195
7.61,-0.143,0.989,0.078
7.62,-0.442,0.917,-0.167
7.63,-0.01,1.099,-0.113
7.64,-0.139,1.009,0.024
7.65,-0.148,0.701,0.198
7.66,-0.267,1.136,-0.119
7.67,-0.37,0.76,-0.207
7.68,-0.087,1.228,0.077
7.69,-0.016,0.817,0.081
7.7,-0.246,0.918,0.056
7.71,-0.307,1.027,-0.21
7.72,-0.11,1.017,-0.095
7.73,-0.224,0.994,0.103
7.74,-0.101,0.754,0.145
7.75,-0.393,1.184,-0.182
7.76,-0.217,0.738,-0.149
7.77,-0.021,1.345,0.125
7.78,-0.114,0.755,0.079
7.79,-0.237,0.864,0.009
7.8,-0.283,1.185,-0.201
7.81,-0.168,0.896,-0.02
7.82,-0.221,1.054,0.184
7.83,-0.07,0.684,0.085
7.84,-0.527,1.17,-0.231
7.85,-0.194,0.865,0.001
7.86,-0.098,1.191,0.07
7.87,-0.138,0.758,0.14
7.88,-0.24,0.893,-0.003
7.89,-0.365,1.153,-0.229
7.9,-0.159,0.826,0.061
7.91,-0.125,1.224,0.169
7.92,-0.097,0.634,0.037
7.93,-0.458,1.187,-0.183
7.94,-0.066,1.025,-0.056
7.95,-0.158,1.008,0.102
7.96,-0.216,0.862,0.208
7.97,-0.321,0.806,-0.13
7.98,-0.273,1.14,-0.187
7.99,-0.091,0.917,0.194
8.0,-0.238,1.108,0.123
8.01,-0.146,0.651,0.031
8.02,-0.448,1.263,-0.169
8.03,-0.103,0.989,-0.016
8.04,-0.195,0.886,0.17
8.05,-0.182,0.984,0.132
8.06,-0.428,0.793,-0.141
8.07,-0.193,1.155,-0.024
8.08,-0.079,0.947,0.123
8.09,-0.145,0.987,0.103
8.1,-0.271,0.705,-0.016
8.11,-0.373,1.261,-0.228
8.12,-0.057,0.862,0.005
8.13,-0.139,1.05,0.203
8.14,-0.205,0.86,0.037
8.15,-0.394,0.873,-0.219
8.16,-0.078,1.241,-0.08
8.17,-0.086,0.74,0.079
8.18,-0.182,1.057,0.158
8.19,-0.28,0.798,-0.164
8.2,-0.273,1.09,-0.224
8.21,-0.017,1.054,0.11
8.22,-0.133,0.862,0.148
8.23,-0.345,0.937,0.053
8.24,-0.294,0.928,-0.172
8.25,-0.179,1.199,-0.017
8.26,-0.179,0.708,0.202
8.27,-0.098,1.024,0.083
8.28,-0.381,0.887,-0.235
8.29,-0.175,1.094,-0.049
8.3,-0.101,1.053,0.041
8.31,-0.146,0.674,0.141
8.32,-0.225,1.117,-0.043
8.33,-0.394,0.883,-0.166
8.34,-0.208,1.219,0.114
8.35,-0.055,0.813,0.123
8.36,-0.18,0.893,-0.001
8.37,-0.415,1.0,-0.136
8.38,-0.124,1.05,-0.07
8.39,-0.178,0.963,0.053
8.4,-0.11,0.738,0.203
8.41,-0.44,1.159,-0.128
8.42,-0.282,0.772,-0.163
8.43,-0.106,1.302,0.141
8.44,-0.125,0.721,0.109
8.45,-0.257,0.887,-0.002
8.46,-0.324,1.153,-0.212
8.47,-0.211,0.893,-0.024
8.48,-0.223,1.05,0.185
8.49,-0.04,0.718,0.114
8.5,-0.52,1.138,-0.179
8.51,-0.146,0.858,-0.017
8.52,-0.158,1.237,0.096
8.53,-0.146,0.694,0.118
8.54,-0.214,0.909,-0.023
8.55,-0.386,1.183,-0.256
8.56,-0.137,0.854,0.055
8.57,-0.101,1.252,0.109
8.58,-0.144,0.587,0.027
8.59,-0.468,1.187,-0.115
8.6,-0.012,1.005,-0.101
8.61,-0.123,1.008,0.065
8.62,-0.109,0.864,0.181
8.63,-0.305,0.841,-0.153
8.64,-0.319,1.137,-0.112
8.65,0.014,1.002,0.131
8.66,-0.205,1.089,0.099
8.67,-0.108,0.629,0.019
8.68,-0.454,1.329,-0.156
8.69,-0.101,0.951,-0.039
8.7,-0.229,0.928,0.193
8.71,-0.109,0.943,0.118
8.72,-0.432,0.798,-0.192
8.73,-0.209,1.22,-0.069
8.74,-0.029,0.911,0.06
8.75,-0.196,0.953,0.1
8.76,-0.231,0.774,0.031
8.77,-0.415,1.218,-0.256
8.78,-0.058,0.927,-0.017
8.79,-0.108,0.983,0.206
8.8,-0.207,0.939,-0.029
8.81,-0.338,0.777,-0.194
8.82,-0.153,1.372,-0.017
8.83,-0.093,0.79,0.105
8.84,-0.218,0.929,0.151
8.85,-0.253,0.896,-0.103
8.86,-0.346,1.03,-0.193
8.87,-0.096,1.125,0.128
8.88,-0.18,0.833,0.124
8.89,-0.291,0.922,-0.012
8.9,-0.257,0.96,-0.198
8.91,-0.167,1.18,-0.031
8.92,-0.209,0.694,0.24
8.93,-0.085,1.042,0.056
8.94,-0.396,0.806,-0.22
8.95,-0.181,1.141,-0.037
8.96,-0.08,1.014,0.06
8.97,-0.153,0.718,0.14
8.98,-0.243,1.119,-0.017
8.99,-0.369,0.873,-0.241
9.0,-0.139,1.154,0.071
9.01,-0.084,0.845,0.147
9.02,-0.164,0.93,0.012
9.03,-0.394,0.979,-0.141
9.04,-0.129,1.126,-0.116
9.05,-0.181,0.892,0.05
9.06,-0.085,0.757,0.186
9.07,-0.405,1.219,-0.171
9.08,-0.235,0.75,-0.168
9.09,-0.018,1.317,0.127
9.1,-0.15,0.711,0.099
9.11,-0.258,0.926,0.042
9.12,-0.32,1.162,-0.198
9.13,-0.117,0.863,-0.062
9.14,-0.205,1.037,0.199
9.15,-0.051,0.729,0.095
9.16,-0.529,1.163,-0.204
9.17,-0.201,0.834,0.016
9.18,-0.074,1.223,0.078
9.19,-0.197,0.701,0.11
9.2,-0.176,0.959,-0.024
9.21,-0.352,1.146,-0.249
9.22,-0.175,0.832,0.075
9.23,-0.048,1.211,0.115
9.24,-0.158,0.593,0.025
9.25,-0.479,1.229,-0.125
9.26,-0.008,0.98,-0.123
9.27,-0.223,1.005,0.076
9.28,-0.094,0.866,0.21
9.29,-0.276,0.929,-0.18
9.3,-0.3,1.084,-0.184
9.31,-0.027,0.949,0.164
9.32,-0.143,1.128,0.125
9.33,-0.231,0.643,0.034
9.34,-0.361,1.299,-0.158
9.35,-0.153,0.935,-0.103
9.36,-0.174,0.915,0.152
9.37,-0.086,0.932,0.14
9.38,-0.434,0.8,-0.184
9.39,-0.271,1.172,-0.07
9.4,0.043,0.931,0.076
9.41,-0.198,0.964,0.159
9.42,-0.258,0.765,0.045
9.43,-0.349,1.235,-0.289
9.44,-0.135,0.896,-0.034
9.45,-0.034,0.991,0.169
9.46,-0.192,0.963,0.022
9.47,-0.427,0.793,-0.148
9.48,-0.107,1.327,-0.052
9.49,-0.055,0.761,0.011
9.5,-0.126,0.956,0.215
9.51,-0.292,0.883,-0.101
9.52,-0.331,1.042,-0.169
9.53,-0.057,1.137,0.052
9.54,-0.064,0.766,0.115
9.55,-0.263,1.026,0.041
9.56,-0.357,0.936,-0.155
9.57,-0.176,1.171,-0.058
9.58,-0.161,0.718,0.184
9.59,-0.089,0.98,0.163
9.6,-0.375,0.911,-0.216
9.61,-0.192,0.947,-0.077
9.62,-0.046,1.267,0.038
9.63,-0.117,0.592,0.13
9.64,-0.271,1.123,0.035
9.65,-0.36,0.943,-0.276
9.66,-0.138,1.044,0.008
9.67,-0.098,0.893,0.191
9.68,-0.209,0.897,0.086
9.69,-0.393,0.989,-0.162
9.7,-0.162,1.178,-0.017
9.71,-0.146,0.953,0.067
9.72,-0.102,0.686,0.128
9.73,-0.343,1.132,-0.11
9.74,-0.297,0.817,-0.167
9.75,-0.104,1.241,0.077
9.76,-0.08,0.81,0.151
9.77,-0.258,0.921,0.007
9.78,-0.354,1.011,-0.163
9.79,-0.077,1.067,-0.051
9.8,-0.208,0.99,0.117
9.81,-0.123,0.724,0.136
9.82,-0.439,1.169,-0.188
9.83,-0.172,0.789,-0.121
9.84,-0.089,1.285,0.13
9.85,-0.166,0.712,0.126
9.86,-0.318,0.912,-0.006
9.87,-0.252,1.137,-0.246
9.88,-0.091,0.88,-0.011
9.89,-0.18,1.064,0.179
9.9,-0.067,0.687,0.024
9.91,-0.494,1.231,-0.171
9.92,-0.152,0.922,-0.011
9.93,-0.149,1.089,0.104
9.94,-0.166,0.807,0.177
9.95,-0.268,0.903,-0.127
9.96,-0.363,1.105,-0.213
9.97,-0.016,0.945,0.158
9.98,-0.249,1.136,0.118
9.99,-0.11,0.581,0.001
10.0,-0.434,1.345,-0.127
10.01,-0.142,0.967,-0.058
10.02,-0.207,0.939,0.162
10.03,-0.08,0.91,0.152
10.04,-0.425,0.811,-0.188
10.05,-0.249,1.219,-0.063
10.06,0.0,0.906,0.029
10.07,-0.175,0.969,0.127
10.08,-0.176,0.729,0.019
10.09,-0.448,1.248,-0.208
10.1,-0.048,0.933,0.025
10.11,-0.155,0.979,0.148
10.12,-0.2,0.899,0.085
10.13,-0.424,0.873,-0.128
10.14,-0.139,1.326,-0.08
10.15,-0.095,0.683,0.075
10.16,-0.133,1.038,0.209
10.17,-0.339,0.83,-0.121
10.18,-0.315,1.039,-0.155
10.19,-0.047,1.164,0.093
10.2,-0.109,0.735,0.102
10.21,-0.242,1.03,0.033
10.22,-0.316,0.944,-0.191
10.23,-0.192,1.187,-0.031
10.24,-0.115,0.705,0.175
10.25,-0.184,1.013,0.142
10.26,-0.362,0.903,-0.207
10.27,-0.176,0.99,-0.065
10.28,-0.067,1.216,0.029
10.29,-0.103,0.627,0.143
10.3,-0.264,1.1,-0.005
10.31,-0.324,0.885,-0.243
10.32,-0.153,1.152,0.033
10.33,-0.073,0.875,0.177
10.34,-0.138,0.858,0.049
10.35,-0.448,1.04,-0.178
10.36,-0.059,0.979,-0.073
10.37,-0.174,1.126,0.084
10.38,-0.454,1.035,-0.169
10.39,-0.06,1.136,-0.09
10.4,-0.156,0.891,0.126
10.41,-0.137,0.981,0.195
10.42,-0.259,0.764,-0.084
10.43,-0.431,1.21,-0.188
10.44,-0.023,0.848,0.1
10.45,-0.211,1.113,0.106
10.46,-0.182,0.621,0.025
10.47,-0.353,1.264,-0.215
10.48,-0.155,0.966,-0.021
10.49,-0.205,0.922,0.186
10.5,-0.123,0.916,0.094
10.51,-0.421,0.788,-0.184
10.52,-0.184,1.292,-0.091
10.53,-0.071,0.885,0.076
10.54,-0.157,0.949,0.149
10.55,-0.173,0.765,-0.009
10.56,-0.38,1.212,-0.222
10.57,-0.065,0.975,0.035
10.58,-0.153,0.924,0.201
10.59,-0.224,0.987,0.051
10.6,-0.376,0.789,-0.19
10.61,-0.155,1.319,-0.068
10.62,-0.104,0.752,0.065
10.63,-0.178,0.972,0.174
10.64,-0.263,0.926,-0.135
10.65,-0.316,1.007,-0.13
10.66,-0.023,1.189,0.067
10.67,-0.127,0.699,0.107
10.68,-0.261,1.006,0.042
10.69,-0.315,0.947,-0.185
10.7,-0.198,1.141,-0.05
10.71,-0.187,0.788,0.215
10.72,-0.066,0.963,0.093
10.73,-0.457,0.941,-0.193
10.74,-0.123,0.972,-0.031
10.75,-0.144,1.249,0.053
10.76,-0.172,0.603,0.14
10.77,-0.221,1.111,-0.001
10.78,-0.327,0.914,-0.244
10.79,-0.25,1.102,0.108
10.8,-0.051,0.963,0.144
10.81,-0.198,0.789,0.06
10.82,-0.403,1.127,-0.122
10.83,-0.11,0.984,-0.146
10.84,-0.151,1.094,0.035
10.85,-0.097,0.71,0.203
10.86,-0.408,1.168,-0.142
10.87,-0.288,0.799,-0.199
10.88,-0.011,1.191,0.106
10.89,-0.183,0.9,0.126
10.9,-0.176,0.765,0.067
10.91,-0.417,1.281,-0.214
10.92,-0.138,0.772,-0.017
10.93,-0.243,1.168,0.185
10.94,-0.113,0.703,0.093
10.95,-0.418,1.044,-0.19
10.96,-0.2,0.982,-0.089
10.97,-0.025,1.158,0.06
10.98,-0.125,0.843,0.107
10.99,-0.141,0.734,0.037
11.0,-0.477,1.306,-0.254
11.01,-0.012,0.802,-0.039
11.02,-0.121,1.237,0.139
11.03,-0.18,0.644,0.093
11.04,-0.396,1.063,-0.185
11.05,-0.1,1.121,-0.117
11.06,-0.095,0.845,0.109
11.07,-0.131,0.973,0.17
11.08,-0.232,0.763,-0.1
11.09,-0.42,1.235,-0.168
11.1,-0.056,0.868,0.079
11.11,-0.108,1.164,0.073
11.12,-0.183,0.697,-0.023
11.13,-0.373,1.079,-0.12
11.14,-0.172,1.169,-0.024
11.15,-0.148,0.762,0.13
11.16,-0.079,1.077,0.145
11.17,-0.386,0.697,-0.164
11.18,-0.249,1.183,-0.168
11.19,-0.014,1.004,0.104
11.2,-0.212,0.92,0.15
11.21,-0.24,0.856,0.017
11.22,-0.327,1.012,-0.216
11.23,-0.128,1.099,-0.01
11.24,-0.155,0.789,0.211
11.25,-0.088,1.083,0.097
11.26,-0.341,0.776,-0.193
11.27,-0.152,1.292,-0.041
11.28,-0.047,0.819,0.058
11.29,-0.248,0.997,0.17
11.3,-0.229,0.858,-0.052
11.31,-0.396,1.012,-0.145
11.32,-0.159,1.088,0.137
11.33,-0.104,0.862,0.153
11.34,-0.215,0.972,0.002
11.35,-0.289,0.856,-0.166
11.36,-0.189,1.258,-0.046
11.37,-0.116,0.763,0.099
11.38,-0.138,0.939,0.169
11.39,-0.356,0.95,-0.146
11.4,-0.308,0.969,-0.091
11.41,-0.088,1.213,0.084
11.42,-0.179,0.633,0.173
11.43,-0.24,1.068,0.053
11.44,-0.34,0.953,-0.229
11.45,-0.145,1.107,-0.059
11.46,-0.149,0.851,0.173
11.47,-0.067,0.91,0.084
11.48,-0.398,1.032,-0.147
11.49,-0.226,0.947,-0.057
11.5,-0.119,1.243,0.061
11.51,-0.067,0.601,0.172
11.52,-0.335,1.08,0.003
11.53,-0.377,0.902,-0.21
11.54,-0.041,1.073,0.016
11.55,-0.118,0.981,0.107
11.56,-0.142,0.76,0.097
11.57,-0.365,1.176,-0.18
11.58,-0.113,0.881,-0.082
11.59,-0.15,1.144,0.081
11.6,-0.164,0.671,0.175
11.61,-0.313,1.101,-0.129
11.62,-0.321,0.85,-0.18
11.63,-0.11,1.107,0.135
11.64,-0.125,1.001,0.106
11.65,-0.152,0.634,0.027
11.66,-0.355,1.326,-0.181
11.67,-0.15,0.857,-0.067
11.68,-0.153,1.098,0.114
11.69,-0.123,0.755,0.221
11.7,-0.419,1.021,-0.169
11.71,-0.193,0.963,-0.165
11.72,-0.099,1.085,0.103
11.73,-0.118,0.978,0.102
11.74,-0.168,0.679,0.013
11.75,-0.431,1.402,-0.188
11.76,-0.045,0.824,-0.067
11.77,-0.157,1.077,0.146
11.78,-0.165,0.745,0.142
11.79,-0.428,0.995,-0.171
11.8,-0.159,1.073,-0.09
11.81,-0.165,0.986,0.114
11.82,-0.153,1.003,0.138
11.83,-0.24,0.701,-0.016
11.84,-0.354,1.321,-0.225
11.85,0.004,0.854,-0.008
11.86,-0.197,1.049,0.203
11.87,-0.116,0.802,0.087
11.88,-0.377,0.94,-0.204
11.89,-0.135,1.235,-0.046
11.9,-0.136,0.796,0.119
11.91,-0.196,1.004,0.184
11.92,-0.196,0.783,-0.109
11.93,-0.385,1.211,-0.141
11.94,-0.124,0.906,0.113
11.95,-0.045,1.022,0.145
11.96,-0.225,0.882,0.005
11.97,-0.386,0.914,-0.191
11.98,-0.032,1.261,-0.101
11.99,-0.116,0.7,0.126
12.0,-0.218,1.046,0.186
12.01,-0.314,0.817,-0.176
12.02,-0.229,1.096,-0.159
12.03,-0.095,1.052,0.11
12.04,-0.148,0.75,0.146
12.05,-0.297,0.971,0.045
12.06,-0.278,0.976,-0.163
12.07,-0.175,1.219,-0.034
12.08,-0.074,0.794,0.209
12.09,-0.096,1.09,0.05
12.1,-0.388,0.769,-0.207
12.11,-0.156,1.23,-0.035
12.12,-0.121,0.926,0.067
12.13,-0.242,0.814,0.197
12.14,-0.198,1.031,-0.046
12.15,-0.366,0.912,-0.195
12.16,-0.149,1.14,0.02
12.17,-0.036,0.792,0.171
12.18,-0.234,1.018,0.019
12.19,-0.379,0.864,-0.191
12.2,-0.014,1.135,-0.116
12.21,-0.211,0.92,0.071
12.22,-0.147,0.786,0.217
12.23,-0.331,1.097,-0.121
12.24,-0.345,0.804,-0.16
12.25,-0.021,1.327,0.071
12.26,-0.027,0.692,0.096
12.27,-0.39,0.977,0.093
12.28,-0.273,1.021,-0.214
12.29,-0.113,1.017,-0.05
12.3,-0.283,0.932,0.219
12.31,-0.036,0.754,0.142
12.32,-0.44,1.16,-0.185
12.33,-0.318,0.854,0.003
12.34,-0.012,1.321,0.019
12.35,-0.118,0.632,0.089
12.36,-0.278,1.01,0.019
12.37,-0.297,1.084,-0.254
12.38,-0.119,0.887,-0.001
12.39,-0.135,1.104,0.19
12.4,-0.099,0.675,0.081
12.41,-0.541,1.157,-0.184
12.42,-0.069,0.909,-0.009
12.43,-0.211,1.206,0.089
12.44,-0.215,0.657,0.209
12.45,-0.198,0.967,-0.065
12.46,-0.39,1.071,-0.203
12.47,-0.15,0.879,0.125
12.48,-0.083,1.225,0.125
12.49,-0.174,0.624,0.037
12.5,-0.485,1.215,-0.111
12.51,-0.088,0.962,-0.097
12.52,-0.162,1.05,0.062
12.53,-0.115,0.813,0.149
12.54,-0.318,0.917,-0.12
12.55,-0.344,1.081,-0.185
12.56,-0.115,0.959,0.163
12.57,-0.111,1.175,0.088
12.58,-0.2,0.581,0.011
12.59,-0.425,1.307,-0.154
12.6,-0.058,0.959,-0.126
12.61,-0.154,0.909,0.129
12.62,-0.148,0.945,0.19
12.63,-0.387,0.825,-0.192
12.64,-0.28,1.109,-0.123
12.65,-0.022,0.971,0.116
12.66,-0.192,1.032,0.103
12.67,-0.197,0.649,0.022
12.68,-0.357,1.293,-0.187
12.69,-0.105,0.977,-0.056
12.7,-0.243,0.888,0.222
12.71,-0.108,0.964,0.106
12.72,-0.379,0.807,-0.216
12.73,-0.286,1.301,-0.04
12.74,-0.03,0.836,0.059
12.75,-0.229,0.972,0.118
12.76,-0.197,0.827,0.018
12.77,-0.323,1.163,-0.268
12.78,-0.14,1.004,-0.013
12.79,-0.076,0.889,0.153
12.8,-0.15,1.01,0.056
12.81,-0.393,0.773,-0.182
12.82,-0.197,1.282,-0.103
12.83,-0.079,0.777,0.062
12.84,-0.219,0.921,0.182
12.85,-0.292,0.899,-0.058
12.86,-0.325,0.968,-0.172
12.87,-0.115,1.141,0.037
12.88,-0.099,0.786,0.167
12.89,-0.184,0.95,0.008
12.9,-0.447,0.888,-0.168
12.91,-0.127,1.266,-0.059
12.92,-0.12,0.72,0.117
12.93,-0.2,1.02,0.126
12.94,-0.226,0.874,-0.167
12.95,-0.248,1.011,-0.18
12.96,-0.118,1.102,0.135
12.97,-0.062,0.794,0.138
12.98,-0.299,0.993,-0.032
12.99,-0.322,0.905,-0.151
13.0,-0.201,1.225,-0.001
13.01,-0.184,0.744,0.179
13.02,-0.122,0.995,0.162
13.03,-0.373,0.946,-0.192
13.04,-0.28,0.988,-0.019
13.05,-0.028,1.203,0.032
13.06,-0.099,0.607,0.095
13.07,-0.301,1.107,0.044
13.08,-0.303,0.915,-0.242
13.09,-0.158,1.092,0.008
13.1,-0.105,0.848,0.196
13.11,-0.174,0.859,0.087
13.12,-0.417,1.033,-0.172
13.13,-0.094,1.013,-0.044
13.14,-0.132,1.133,0.078
13.15,-0.169,0.61,0.176
13.16,-0.23,1.206,-0.11
13.17,-0.344,0.826,-0.178
13.18,-0.187,1.107,0.115
13.19,-0.072,0.973,0.097
13.2,-0.121,0.752,0.044
13.21,-0.417,1.214,-0.153
13.22,-0.09,0.93,-0.115
13.23,-0.198,1.099,0.065
13.24,-0.076,0.719,0.237
13.25,-0.381,1.175,-0.163
13.26,-0.27,0.774,-0.21
13.27,-0.083,1.147,0.156
13.28,-0.112,0.953,0.113
13.29,-0.22,0.697,0.048
13.3,-0.366,1.35,-0.157
13.31,-0.156,0.797,-0.028
13.32,-0.293,1.148,0.167
13.33,-0.015,0.731,0.153
13.34,-0.455,1.028,-0.171
13.35,-0.233,0.893,-0.139
13.36,-0.035,1.137,0.042
13.37,-0.134,0.97,0.1
13.38,-0.228,0.661,0.031
13.39,-0.416,1.358,-0.183
13.4,-0.12,0.82,-0.041
13.41,-0.221,1.128,0.146
13.42,-0.012,0.791,0.133
13.43,-0.464,1.001,-0.18
13.44,-0.261,1.016,-0.052
13.45,0.008,1.041,0.023
13.46,-0.154,0.996,0.09
13.47,-0.189,0.667,0.037
13.48,-0.394,1.349,-0.227
13.49,-0.156,0.75,-0.044
13.5,-0.129,1.174,0.202
13.51,-0.157,0.766,0.063
13.52,-0.472,0.88,-0.152
13.53,-0.174,1.249,0.009
13.54,-0.071,0.933,0.013
13.55,-0.167,0.926,0.149
13.56,-0.154,0.729,-0.031
13.57,-0.426,1.261,-0.247
13.58,-0.123,0.827,0.061
13.59,-0.171,1.098,0.167
13.6,-0.154,0.799,0.026
13.61,-0.43,0.898,-0.105
13.62,-0.097,1.308,-0.064
13.63,-0.094,0.736,0.072
13.64,-0.191,1.016,0.183
13.65,-0.246,0.831,-0.073
13.66,-0.384,1.096,-0.206
13.67,-0.121,1.006,0.041
13.68,-0.067,1.003,0.144
13.69,-0.209,0.898,0.04
13.7,-0.446,0.836,-0.071
13.71,-0.136,1.212,-0.061
13.72,-0.233,0.706,0.125
13.73,-0.062,1.07,0.167
13.74,-0.441,0.811,-0.133
13.75,-0.249,1.117,-0.16
13.76,-0.109,1.012,0.105
13.77,-0.206,0.875,0.128
13.78,-0.162,0.912,0.022
13.79,-0.397,1.035,-0.166
13.8,-0.172,1.148,-0.002
13.81,-0.145,0.764,0.137
13.82,-0.118,1.071,0.047
13.83,-0.32,0.777,-0.187
13.84,-0.239,1.16,-0.079
13.85,-0.073,1.03,0.022
13.86,-0.123,0.741,0.144
13.87,-0.314,1.016,0.067
13.88,-0.292,0.92,-0.259
13.89,-0.149,1.127,-0.051
13.9,-0.107,0.781,0.17
13.91,-0.081,1.037,-0.0
13.92,-0.331,0.858,-0.171
13.93,-0.187,1.121,-0.073
13.94,-0.147,1.057,0.063
13.95,-0.104,0.695,0.173
13.96,-0.274,1.128,-0.043
13.97,-0.327,0.874,-0.212
13.98,-0.104,1.169,0.051
13.99,-0.062,0.805,0.134
14.0,-0.212,0.967,0.074
14.01,-0.287,0.957,-0.22
14.02,-0.161,1.025,-0.062
14.03,-0.108,1.031,0.07
14.04,-0.118,0.705,0.154
14.05,-0.369,1.131,-0.08
14.06,-0.319,0.774,-0.103
14.07,-0.143,1.249,0.077
14.08,-0.149,0.827,0.141
14.09,-0.119,0.881,0.054
14.1,-0.394,1.083,-0.196
14.11,-0.147,0.956,-0.08
14.12,-0.126,1.092,0.146
14.13,-0.126,0.683,0.18
14.14,-0.353,1.164,-0.123
14.15,-0.236,0.793,-0.163
14.16,-0.173,1.198,0.155
14.17,-0.13,0.844,0.119
14.18,-0.176,0.805,0.02
14.19,-0.362,1.242,-0.186
14.2,-0.134,0.869,-0.052
14.21,-0.232,1.083,0.155
14.22,-0.039,0.747,0.176
14.23,-0.466,1.095,-0.178
14.24,-0.207,0.789,-0.121
14.25,-0.025,1.236,0.084
14.26,-0.165,0.813,0.085
14.27,-0.312,0.765,0.083
14.28,-0.32,1.291,-0.256
14.29,-0.075,0.71,-0.059
14.3,-0.208,1.178,0.191
14.31,-0.035,0.777,0.069
14.32,-0.435,1.049,-0.197
14.33,-0.198,0.977,-0.014
14.34,-0.12,1.093,0.062
14.35,-0.137,0.906,0.078
14.36,-0.248,0.783,0.011
14.37,-0.436,1.265,-0.247
14.38,-0.127,0.764,0.044
14.39,-0.156,1.222,0.163
14.4,-0.058,0.674,0.068
14.41,-0.42,1.055,-0.146
14.42,-0.142,1.126,-0.064
14.43,-0.105,0.885,0.052
14.44,-0.165,0.994,0.144
14.45,-0.208,0.751,-0.09
14.46,-0.4,1.236,-0.206
14.47,-0.189,0.856,0.089
14.48,-0.117,1.152,0.119
14.49,-0.106,0.727,0.047
14.5,-0.448,1.024,-0.09
14.51,-0.079,1.179,-0.138
14.52,-0.155,0.896,0.119
14.53,-0.129,0.992,0.158
14.54,-0.319,0.768,-0.17
14.55,-0.294,1.182,-0.119
14.56,-0.032,0.947,0.041
14.57,-0.136,1.048,0.121
14.58,-0.234,0.763,0.093
14.59,-0.379,1.18,-0.199
14.6,-0.124,0.986,-0.048
14.61,-0.13,0.877,0.128
14.62,-0.127,1.038,0.115
14.63,-0.323,0.736,-0.157
14.64,-0.351,1.214,-0.089
14.65,-0.063,0.931,0.083
14.66,-0.108,0.961,0.076
14.67,-0.235,0.795,0.026
14.68,-0.386,1.096,-0.168
14.69,-0.091,1.093,-0.065
14.7,-0.102,0.789,0.097
14.71,-0.118,1.071,0.094
14.72,-0.352,0.744,-0.209
14.73,-0.239,1.234,-0.065
14.74,-0.07,0.947,0.09
14.75,-0.151,0.862,0.116
14.76,-0.221,0.908,0.015
14.77,-0.302,1.042,-0.214
14.78,-0.133,1.072,-0.052
14.79,-0.112,0.767,0.214
14.8,-0.17,1.075,0.094
14.81,-0.367,0.78,-0.22
14.82,-0.127,1.218,-0.075
14.83,-0.1,0.972,0.091
14.84,-0.199,0.754,0.147
14.85,-0.198,1.047,-0.035
14.86,-0.32,0.959,-0.162
14.87,-0.235,1.186,0.036
14.88,-0.064,0.742,0.18
14.89,-0.202,1.04,0.076
14.9,-0.399,0.903,-0.174
14.91,-0.128,1.121,-0.066
14.92,-0.155,0.983,0.089
14.93,-0.172,0.731,0.182
14.94,-0.313,1.116,-0.07
14.95,-0.223,0.796,-0.224
14.96,-0.094,1.285,0.087
14.97,-0.131,0.744,0.109
14.98,-0.166,0.939,0.074
14.99,-0.318,1.0,-0.196
15.0,-0.136,1.026,-0.084
15.01,-0.125,1.005,0.101
15.02,-0.133,0.776,0.18
15.03,-0.391,1.093,-0.126
15.04,-0.15,0.766,-0.169
15.05,-0.157,1.319,0.14
15.06,-0.212,0.715,0.141
15.07,-0.126,0.917,0.063
15.08,-0.41,1.137,-0.213
15.09,-0.047,0.882,-0.115
15.1,-0.1,1.091,0.13
15.11,-0.169,0.709,0.157
15.12,-0.399,1.167,-0.115
15.13,-0.266,0.835,-0.17
15.14,-0.092,1.214,0.089
15.15,-0.072,0.796,0.112
15.16,-0.234,0.84,0.005
15.17,-0.432,1.182,-0.169
15.18,-0.067,0.885,0.008
15.19,-0.129,1.131,0.088
15.2,-0.132,0.711,0.166
15.21,-0.384,1.167,-0.153
15.22,-0.304,0.875,-0.108
15.23,-0.095,1.139,0.123
15.24,-0.09,0.872,0.1
15.25,-0.316,0.789,0.038
15.26,-0.393,1.248,-0.209
15.27,-0.043,0.806,-0.029
15.28,-0.209,1.149,0.133
15.29,-0.043,0.736,0.143
15.3,-0.428,1.109,-0.217
15.31,-0.279,0.923,-0.071
15.32,-0.079,1.07,0.086
15.33,-0.128,0.927,0.109
15.34,-0.355,0.886,-0.013
15.35,-0.266,1.155,-0.209
15.36,-0.072,0.864,-0.023
15.37,-0.141,1.144,0.118
15.38,-0.018,0.633,0.052
15.39,-0.539,1.259,-0.167
15.4,-0.085,0.963,-0.041
15.41,-0.184,1.077,0.099
15.42,-0.186,0.857,0.12
15.43,-0.305,0.838,-0.101
15.44,-0.315,1.19,-0.135
15.45,-0.063,0.896,0.087
15.46,-0.162,1.126,0.148
15.47,-0.134,0.649,0.004
15.48,-0.434,1.256,-0.16
15.49,-0.104,0.959,-0.077
15.5,-0.218,0.968,0.143
15.51,-0.098,0.946,0.132
15.52,-0.35,0.788,-0.152
15.53,-0.36,1.231,-0.075
15.54,0.003,0.886,0.052
15.55,-0.183,1.003,0.136
15.56,-0.249,0.721,0.063
15.57,-0.371,1.197,-0.228
15.58,-0.048,0.949,-0.06
15.59,-0.206,0.913,0.231
15.6,-0.151,0.988,0.081
15.61,-0.319,0.748,-0.193
15.62,-0.3,1.312,-0.033
15.63,-0.05,0.866,0.044
15.64,-0.168,0.956,0.179
15.65,-0.226,0.85,-0.001
15.66,-0.428,1.082,-0.19
15.67,-0.053,1.0,-0.059
15.68,-0.042,0.878,0.107
15.69,-0.228,1.026,0.103
15.7,-0.327,0.784,-0.171
15.71,-0.189,1.292,-0.069
15.72,-0.108,0.855,0.072
15.73,-0.137,0.901,0.155
15.74,-0.211,0.937,-0.072
15.75,-0.438,0.951,-0.191
15.76,-0.05,1.109,0.021
15.77,-0.036,0.863,0.096
15.78,-0.217,0.991,0.085
15.79,-0.319,0.816,-0.159
15.8,-0.159,1.248,-0.067
15.81,-0.148,0.851,0.08
15.82,-0.137,0.834,0.183
15.83,-0.232,1.073,-0.1
15.84,-0.311,0.872,-0.167
15.85,-0.193,1.237,0.063
15.86,-0.073,0.757,0.167
15.87,-0.219,1.009,0.043
15.88,-0.364,0.906,-0.173
15.89,-0.147,1.117,-0.082
15.9,-0.119,0.88,0.089
15.91,-0.119,0.821,0.195
15.92,-0.426,1.134,-0.103
15.93,-0.203,0.797,-0.197
15.94,-0.137,1.292,0.112
15.95,-0.093,0.665,0.12
15.96,-0.148,1.024,0.003
15.97,-0.415,1.047,-0.156
15.98,-0.216,0.946,-0.076
15.99,-0.105,0.975,0.104
16.0,-0.092,0.768,0.181
16.01,-0.455,1.142,-0.15
16.02,-0.271,0.757,-0.109
16.03,-0.064,1.294,0.055
16.04,-0.14,0.697,0.14
16.05,-0.265,0.941,0.069
16.06,-0.323,1.108,-0.25
16.07,-0.189,0.894,0.011
16.08,-0.216,1.069,0.167
16.09,-0.157,0.708,0.123
16.1,-0.448,1.152,-0.143
16.11,-0.146,0.857,-0.11
16.12,-0.101,1.266,0.027
16.13,-0.16,0.725,0.159
16.14,-0.175,0.905,-0.022
16.15,-0.355,0.961,-0.265
16.16,-0.034,0.967,0.023
16.17,-0.168,1.072,0.158
16.18,-0.168,0.687,0.097
16.19,-0.396,1.186,-0.146
16.2,-0.168,0.867,-0.036
16.21,-0.156,1.169,0.071
16.22,-0.082,0.712,0.173
16.23,-0.243,1.036,-0.084
16.24,-0.437,0.965,-0.2
16.25,-0.074,0.902,0.047
16.26,-0.106,1.173,0.137
16.27,-0.096,0.611,0.067
16.28,-0.472,1.232,-0.111
16.29,-0.036,0.96,-0.094
16.3,-0.238,1.135,0.057
16.31,-0.093,0.745,0.164
16.32,-0.292,0.95,-0.082
16.33,-0.335,1.079,-0.194
16.34,-0.083,0.891,0.09
16.35,-0.061,1.125,0.083
16.36,-0.212,0.573,0.067
16.37,-0.407,1.257,-0.132
16.38,-0.04,0.959,-0.083
16.39,-0.218,1.002,0.117
16.4,-0.136,0.864,0.216
16.41,-0.387,0.86,-0.145
16.42,-0.317,1.103,-0.172
16.43,-0.023,0.984,0.111
16.44,-0.135,1.108,0.112
16.45,-0.22,0.636,0.053
16.46,-0.334,1.293,-0.199
16.47,-0.083,0.928,-0.087
16.48,-0.157,0.911,0.096
16.49,-0.022,0.984,0.127
16.5,-0.414,0.814,-0.205
16.51,-0.263,1.138,-0.108
16.52,-0.011,0.967,0.119
16.53,-0.195,0.994,0.112
16.54,-0.224,0.719,0.011
16.55,-0.366,1.253,-0.146
16.56,-0.152,0.94,-0.064
16.57,-0.115,0.865,0.208
16.58,-0.123,1.08,0.07
16.59,-0.406,0.721,-0.184
16.6,-0.322,1.187,-0.073
16.61,0.01,0.952,0.076
16.62,-0.214,0.923,0.125
16.63,-0.142,0.809,0.063
16.64,-0.366,1.168,-0.192
16.65,-0.125,0.975,-0.043
16.66,-0.139,0.866,0.213
16.67,-0.126,1.053,0.066
16.68,-0.416,0.778,-0.202
16.69,-0.178,1.281,-0.066
16.7,-0.111,0.884,0.09
16.71,-0.24,0.888,0.187
16.72,-0.216,0.915,-0.057
16.73,-0.396,1.026,-0.131
16.74,-0.169,1.124,0.028
16.75,0.016,0.808,0.106
16.76,-0.184,1.022,0.072
16.77,-0.38,0.817,-0.16
16.78,-0.113,1.216,-0.072
16.79,-0.167,0.836,0.087
16.8,-0.193,0.835,0.191
16.81,-0.295,1.026,-0.062
16.82,-0.336,0.869,-0.189
16.83,-0.128,1.173,0.02
16.84,-0.045,0.766,0.14
16.85,-0.156,0.993,0.01
16.86,-0.324,0.891,-0.167
16.87,-0.225,1.188,-0.035
16.88,-0.125,0.856,0.054
16.89,-0.158,0.833,0.213
16.9,-0.326,1.101,-0.1
16.91,-0.256,0.81,-0.162
16.92,-0.109,1.29,0.064
16.93,-0.091,0.719,0.123
16.94,-0.261,0.964,0.041
16.95,-0.307,1.017,-0.162
16.96,-0.14,1.182,-0.033
16.97,-0.205,0.775,0.146
16.98,-0.101,0.924,0.145
16.99,-0.361,1.017,-0.181
17.0,-0.297,0.873,-0.063
17.01,-0.107,1.254,-0.008
17.02,-0.061,0.594,0.099
17.03,-0.278,1.085,-0.006
17.04,-0.278,0.953,-0.198
17.05,-0.118,1.046,-0.06
17.06,-0.182,0.868,0.176
17.07,-0.062,0.844,0.117
17.08,-0.431,1.108,-0.172
17.09,-0.257,0.849,-0.033
17.1,-0.135,1.266,0.056
17.11,-0.114,0.659,0.1
17.12,-0.303,1.079,0.009
17.13,-0.29,0.96,-0.223
17.14,-0.194,0.974,0.018
17.15,-0.125,0.968,0.16
17.16,-0.123,0.764,0.108
17.17,-0.451,1.188,-0.199
17.18,-0.15,0.839,-0.111
17.19,-0.147,1.187,0.09
17.2,-0.118,0.671,0.141
17.21,-0.308,1.035,-0.052
17.22,-0.364,0.993,-0.223
17.23,-0.054,0.957,-0.019
17.24,-0.086,1.115,0.12
17.25,-0.079,0.678,0.06
17.26,-0.438,1.235,-0.147
17.27,-0.09,0.884,-0.061
17.28,-0.144,1.137,0.086
17.29,-0.161,0.727,0.169
17.3,-0.328,0.994,-0.043
17.31,-0.302,1.062,-0.201
17.32,-0.141,0.893,0.068
17.33,-0.125,1.182,0.185
17.34,-0.104,0.625,0.014
17.35,-0.424,1.184,-0.188
17.36,-0.031,0.944,-0.072
17.37,-0.156,1.075,0.07
17.38,-0.223,0.791,0.207
17.39,-0.259,0.921,-0.098
17.4,-0.396,1.13,-0.156
17.41,-0.125,0.905,0.191
17.42,-0.123,1.149,0.125
17.43,-0.227,0.605,0.031
17.44,-0.37,1.271,-0.165
17.45,-0.151,0.914,-0.057
17.46,-0.215,0.947,0.105
17.47,-0.063,0.936,0.148
17.48,-0.411,0.839,-0.119
17.49,-0.324,1.112,-0.133
17.5,0.017,0.903,0.102
17.51,-0.17,1.103,0.16
17.52,-0.258,0.687,0.05
17.53,-0.376,1.196,-0.199
17.54,-0.096,1.004,-0.056
17.55,-0.181,0.941,0.144
17.56,-0.139,0.956,0.117
17.57,-0.307,0.774,-0.138
17.58,-0.316,1.252,-0.129
17.59,-0.032,0.908,0.048
17.6,-0.126,1.052,0.12
17.61,-0.238,0.748,0.027
17.62,-0.382,1.143,-0.172
17.63,-0.124,1.034,-0.057
17.64,-0.135,0.809,0.187
17.65,-0.128,1.062,0.146
17.66,-0.312,0.744,-0.195
17.67,-0.302,1.202,-0.098
17.68,-0.011,0.967,0.077
17.69,-0.163,0.955,0.125
17.7,-0.231,0.816,0.021
17.71,-0.366,1.135,-0.16
17.72,-0.122,1.088,-0.061
17.73,-0.165,0.715,0.156
17.74,-0.141,1.061,0.13
17.75,-0.346,0.774,-0.207
17.76,-0.229,1.137,-0.117
17.77,0.001,0.982,0.088
17.78,-0.149,0.961,0.114
17.79,-0.229,0.806,0.007
17.8,-0.344,1.167,-0.189
17.81,-0.144,1.0,-0.001
17.82,-0.069,0.854,0.177
17.83,-0.176,0.982,0.088
17.84,-0.395,0.818,-0.191
17.85,-0.181,1.289,-0.043
17.86,-0.025,0.787,0.059
17.87,-0.199,0.985,0.163
17.88,-0.289,0.866,-0.048
17.89,-0.281,0.99,-0.224
17.9,-0.098,1.146,0.024
17.91,-0.07,0.834,0.141
17.92,-0.172,1.001,0.043
17.93,-0.378,0.847,-0.158
17.94,-0.162,1.229,-0.076
17.95,-0.092,0.825,0.071
17.96,-0.157,0.88,0.18
17.97,-0.295,1.017,-0.094
17.98,-0.24,0.929,-0.177
17.99,-0.167,1.187,0.026
18.0,-0.022,0.759,0.184
18.01,-0.221,1.027,0.055
18.02,-0.4,0.855,-0.184
18.03,-0.043,1.183,-0.086
18.04,-0.166,0.869,0.055
18.05,-0.182,0.809,0.173
18.06,-0.248,1.12,-0.118
18.07,-0.321,0.831,-0.139
18.08,-0.152,1.229,0.112
18.09,-0.009,0.73,0.139
18.1,-0.334,1.024,0.038
18.11,-0.337,0.921,-0.181
18.12,-0.11,1.127,-0.049
18.13,-0.189,0.887,0.085
18.14,-0.091,0.771,0.146
18.15,-0.347,1.205,-0.152
18.16,-0.319,0.776,-0.114
18.17,-0.082,1.279,0.091
18.18,-0.058,0.71,0.13
18.19,-0.299,0.964,0.01
18.2,-0.336,1.007,-0.175
18.21,-0.066,1.025,-0.045
18.22,-0.247,0.961,0.128
18.23,-0.064,0.735,0.132
18.24,-0.443,1.218,-0.182
18.25,-0.235,0.775,-0.073
18.26,-0.056,1.279,0.123
18.27,-0.114,0.71,0.114
18.28,-0.323,0.927,0.006
18.29,-0.296,1.136,-0.164
18.3,-0.128,0.939,0.017
18.31,-0.261,1.03,0.153
18.32,0.002,0.716,0.081
18.33,-0.547,1.207,-0.19
18.34,-0.19,0.806,0.048
18.35,-0.099,1.272,0.099
18.36,-0.154,0.688,0.108
18.37,-0.261,0.928,-0.018
18.38,-0.306,1.2,-0.207
18.39,-0.213,0.883,0.015
18.4,-0.077,1.131,0.152
18.41,-0.107,0.642,0.064
18.42,-0.544,1.213,-0.193
18.43,-0.029,0.892,-0.064
18.44,-0.127,1.064,0.071
18.45,-0.125,0.837,0.196
18.46,-0.286,0.922,-0.126
18.47,-0.341,1.139,-0.16
18.48,-0.131,0.861,0.116
18.49,-0.031,1.158,0.067
18.5,-0.125,0.643,0.024
18.51,-0.494,1.235,-0.173
18.52,-0.09,0.946,-0.079
18.53,-0.164,0.965,0.092
18.54,-0.197,0.934,0.242
18.55,-0.333,0.785,-0.197
18.56,-0.214,1.198,-0.153
18.57,-0.042,0.942,0.08
18.58,-0.103,1.04,0.117
18.59,-0.226,0.686,0.05
18.6,-0.387,1.356,-0.258
18.61,-0.084,0.812,-0.04
18.62,-0.219,1.076,0.226
18.63,-0.146,0.872,0.099
18.64,-0.442,0.863,-0.178
18.65,-0.118,1.236,-0.116
18.66,-0.089,0.818,0.07
18.67,-0.186,1.015,0.16
18.68,-0.153,0.773,-0.043
18.69,-0.383,1.194,-0.222
18.7,-0.123,0.939,0.04
18.71,-0.129,1.043,0.175
18.72,-0.265,0.935,-0.204
18.73,-0.148,1.125,0.043
18.74,-0.11,0.823,0.172
18.75,-0.187,1.053,0.014
18.76,-0.349,0.79,-0.168
18.77,-0.22,1.224,-0.009
18.78,-0.111,0.794,0.137
18.79,-0.283,0.948,0.192
18.8,-0.225,0.898,-0.121
18.81,-0.303,1.026,-0.177
18.82,-0.125,1.114,0.12
18.83,-0.044,0.777,0.125
18.84,-0.205,1.015,-0.041
18.85,-0.451,0.913,-0.099
18.86,-0.166,1.207,-0.041
18.87,-0.133,0.778,0.094
18.88,-0.115,0.978,0.162
18.89,-0.387,0.941,-0.177
18.9,-0.263,0.898,-0.091
18.91,-0.046,1.284,0.065
18.92,-0.127,0.632,0.111
18.93,-0.27,1.06,0.035
18.94,-0.32,0.956,-0.22
18.95,-0.175,1.121,-0.051
18.96,-0.174,0.833,0.145
18.97,-0.048,0.913,0.106
18.98,-0.452,1.022,-0.167
18.99,-0.199,0.926,-0.065
19.0,-0.119,1.241,0.081
19.01,-0.18,0.581,0.17
19.02,-0.271,1.116,0.043
19.03,-0.339,0.937,-0.236
19.04,-0.116,1.083,0.016
19.05,-0.188,0.931,0.109
19.06,-0.123,0.764,0.076
19.07,-0.406,1.12,-0.133
19.08,-0.208,0.913,-0.038
19.09,-0.126,1.209,0.064
19.1,-0.147,0.621,0.138
19.11,-0.269,1.083,-0.044
19.12,-0.322,0.976,-0.215
19.13,-0.107,0.979,0.046
19.14,-0.131,1.046,0.18
19.15,-0.134,0.722,0.063
19.16,-0.431,1.156,-0.209
19.17,-0.095,0.859,-0.041
19.18,-0.146,1.229,0.117
19.19,-0.169,0.679,0.11
19.2,-0.234,1.06,-0.074
19.21,-0.311,0.984,-0.194
19.22,-0.204,0.969,0.142
19.23,-0.067,1.06,0.121
19.24,-0.156,0.658,0.031
19.25,-0.495,1.263,-0.13
19.26,-0.064,0.898,-0.099
19.27,-0.209,1.126,0.092
19.28,-0.198,0.775,0.229
19.29,-0.32,1.023,-0.144
19.3,-0.312,0.994,-0.175
19.31,-0.09,1.009,0.11
19.32,-0.134,1.115,0.107
19.33,-0.155,0.585,0.01
19.34,-0.438,1.314,-0.179
19.35,-0.105,0.835,-0.073
19.36,-0.18,1.114,0.097
19.37,-0.052,0.766,0.146
19.38,-0.412,1.073,-0.225
19.39,-0.183,0.912,-0.092
19.4,-0.104,1.094,0.112
19.41,-0.096,0.92,0.105
19.42,-0.246,0.711,0.015
19.43,-0.39,1.356,-0.204
19.44,-0.06,0.782,-0.03
19.45,-0.236,1.148,0.169
19.46,-0.079,0.788,0.094
19.47,-0.436,0.976,-0.202
19.48,-0.271,1.049,-0.032
19.49,-0.015,0.967,0.056
19.5,-0.146,0.986,0.145
19.51,-0.266,0.711,-0.01
19.52,-0.357,1.308,-0.235
19.53,-0.079,0.814,0.025
19.54,-0.209,1.126,0.175
19.55,-0.086,0.8,0.017
19.56,-0.443,0.974,-0.14
19.57,-0.213,1.209,-0.021
19.58,-0.097,0.835,0.063
19.59,-0.151,1.021,0.137
19.6,-0.251,0.738,-0.053
19.61,-0.364,1.225,-0.198
19.62,-0.05,0.918,0.011
19.63,-0.068,1.04,0.136
19.64,-0.149,0.844,0.029
19.65,-0.435,0.927,-0.138
19.66,-0.135,1.234,-0.018
19.67,-0.157,0.727,0.112
19.68,-0.189,1.034,0.172
19.69,-0.214,0.816,-0.127
19.7,-0.324,1.121,-0.187
19.71,-0.102,0.976,0.112
19.72,-0.094,0.897,0.126
19.73,-0.245,0.897,0.036
19.74,-0.413,0.954,-0.139
19.75,-0.17,1.24,-0.054
19.76,-0.151,0.688,0.129
19.77,-0.158,1.067,0.167
19.78,-0.312,0.807,-0.16
19.79,-0.26,1.01,-0.128
19.8,0.019,1.151,-0.004
19.81,-0.073,0.714,0.051
19.82,-0.281,1.065,0.062
19.83,-0.374,0.923,-0.151
19.84,-0.181,1.157,-0.041
19.85,-0.106,0.771,0.155
19.86,-0.159,1.045,0.133
19.87,-0.366,0.864,-0.199
19.88,-0.232,0.982,-0.062
19.89,-0.04,1.221,0.042
19.9,-0.154,0.64,0.134
19.91,-0.271,1.082,0.004
19.92,-0.327,0.921,-0.204
19.93,-0.167,1.141,-0.002
19.94,-0.153,0.8,0.152
19.95,-0.101,0.94,0.067
19.96,-0.382,0.985,-0.207
19.97,-0.176,0.932,-0.052
19.98,-0.074,1.195,0.051
19.99,-0.109,0.617,0.139
20.0,-0.317,1.114,0.011
20.01,-0.31,0.9,-0.215
20.02,-0.17,1.111,-0.007
20.03,-0.149,0.902,0.17
20.04,-0.123,0.799,0.071
20.05,-0.42,1.12,-0.185
20.06,-0.016,0.923,-0.057
20.07,-0.201,1.22,0.064
20.08,-0.154,0.578,0.179
20.09,-0.249,1.157,-0.048
20.1,-0.331,0.929,-0.188
20.11,-0.222,1.077,0.066
20.12,-0.1,0.986,0.148
20.13,-0.182,0.737,0.037
20.14,-0.423,1.186,-0.163
20.15,-0.003,0.884,-0.116
20.16,-0.185,1.065,0.063
20.17,0.001,0.723,0.15
20.18,-0.433,1.163,-0.152
20.19,-0.29,0.73,-0.133
20.2,-0.058,1.252,0.077
20.21,-0.155,0.88,0.131
20.22,-0.248,0.851,0.078
20.23,-0.373,1.188,-0.222
20.24,-0.104,0.888,-0.058
20.25,-0.18,1.109,0.098
20.26,-0.03,0.725,0.17
20.27,-0.425,1.13,-0.177
20.28,-0.268,0.808,-0.118
20.29,0.038,1.211,0.042
20.3,-0.142,0.876,0.117
20.31,-0.264,0.771,0.038
20.32,-0.368,1.297,-0.192
20.33,-0.13,0.796,-0.036
20.34,-0.225,1.125,0.201
20.35,-0.023,0.738,0.142
20.36,-0.469,1.089,-0.207
20.37,-0.192,0.903,-0.086
20.38,-0.077,1.149,0.084
20.39,-0.14,0.907,0.12
20.4,-0.309,0.706,0.027
20.41,-0.371,1.324,-0.223
20.42,-0.119,0.774,-0.035
20.43,-0.202,1.168,0.182
20.44,0.025,0.764,0.109
20.45,-0.516,1.029,-0.188
20.46,-0.124,1.036,-0.042
20.47,-0.139,1.059,0.082
20.48,-0.206,0.889,0.146
20.49,-0.168,0.75,0.018
20.5,-0.441,1.364,-0.218
20.51,-0.138,0.735,0.012
20.52,-0.12,1.21,0.147
20.53,-0.087,0.74,0.074
20.54,-0.471,0.969,-0.161
20.55,-0.093,1.17,-0.076
20.56,-0.186,0.862,0.043
20.57,-0.127,0.954,0.171
20.58,-0.216,0.763,-0.054
20.59,-0.357,1.248,-0.222
20.6,-0.121,0.864,0.035
20.61,-0.176,1.141,0.171
20.62,-0.135,0.799,0.062
20.63,-0.386,0.924,-0.177
20.64,-0.144,1.282,-0.063
20.65,-0.101,0.798,0.069
20.66,-0.179,0.971,0.198
20.67,-0.233,0.767,-0.074
20.68,-0.356,1.207,-0.2
20.69,-0.063,0.942,0.018
20.7,-0.18,1.055,0.147
20.71,-0.197,0.851,0.054
20.72,-0.366,0.858,-0.145
20.73,-0.132,1.304,-0.069
20.74,-0.173,0.751,0.093
20.75,-0.146,1.016,0.183
20.76,-0.262,0.812,-0.081
20.77,-0.398,1.104,-0.205
20.78,-0.091,0.981,0.093
20.79,-0.108,0.982,0.144
20.8,-0.247,0.924,0.011
20.81,-0.304,0.863,-0.161
20.82,-0.164,1.275,-0.088
20.83,-0.105,0.752,0.105
20.84,-0.187,1.008,0.176
20.85,-0.302,0.856,-0.139
20.86,-0.335,1.007,-0.148
20.87,-0.05,1.108,0.045
20.88,-0.024,0.843,0.11
20.89,-0.218,0.979,-0.01
20.9,-0.377,0.888,-0.139
20.91,-0.197,1.269,-0.069
20.92,-0.094,0.735,0.101
20.93,-0.125,0.986,0.146
20.94,-0.329,0.987,-0.122
20.95,-0.321,0.87,-0.117
20.96,-0.111,1.195,0.05
20.97,-0.085,0.8,0.127
20.98,-0.258,0.974,0.046
20.99,-0.409,0.943,-0.14
21.0,-0.121,1.242,-0.073
21.01,-0.12,0.713,0.132
21.02,-0.177,1.061,0.212
21.03,-0.327,0.865,-0.195
21.04,-0.23,1.015,-0.144
21.05,-0.042,1.122,0.071
21.06,-0.104,0.689,0.129
21.07,-0.331,1.024,0.02
21.08,-0.267,0.93,-0.18
21.09,-0.108,1.207,-0.011
21.1,-0.203,0.715,0.215
21.11,-0.162,0.946,0.088
21.12,-0.373,0.963,-0.191
21.13,-0.194,1.022,-0.019
21.14,-0.102,1.15,0.06
21.15,-0.086,0.641,0.111
21.16,-0.347,1.127,0.002
21.17,-0.283,0.868,-0.17
21.18,-0.151,1.201,0.006
21.19,-0.119,0.852,0.164
21.2,-0.074,0.895,0.062
21.21,-0.453,1.031,-0.183
21.22,-0.089,0.947,-0.101
21.23,-0.152,1.143,0.052
21.24,-0.098,0.611,0.165
21.25,-0.339,1.166,-0.075
21.26,-0.252,0.847,-0.138
21.27,-0.154,1.159,0.02
21.28,-0.169,0.869,0.187
21.29,-0.134,0.813,0.085
21.3,-0.382,1.187,-0.226
21.31,-0.127,0.871,-0.06
21.32,-0.187,1.165,0.124
21.33,-0.13,0.67,0.184
21.34,-0.404,1.107,-0.085
21.35,-0.194,0.863,-0.139
21.36,-0.187,1.177,0.073
21.37,-0.121,0.906,0.092
21.38,-0.129,0.743,-0.009
21.39,-0.449,1.283,-0.173
21.4,-0.084,0.823,-0.046
21.41,-0.167,1.165,0.12
21.42,-0.152,0.705,0.187
21.43,-0.329,1.062,-0.171
21.44,-0.203,0.954,-0.172
21.45,-0.193,1.1,0.146
21.46,-0.096,1.001,0.111
21.47,-0.228,0.684,-0.018
21.48,-0.485,1.3,-0.118
21.49,-0.05,0.854,-0.006
21.5,-0.212,1.178,0.135
21.51,-0.129,0.771,0.176
21.52,-0.382,1.0,-0.18
21.53,-0.25,1.003,-0.138
21.54,-0.082,1.061,0.118
21.55,-0.139,0.983,0.13
21.56,-0.293,0.667,0.035
21.57,-0.359,1.321,-0.213
21.58,-0.044,0.832,-0.018
21.59,-0.208,1.07,0.111
21.6,-0.076,0.818,0.116
21.61,-0.368,0.975,-0.216
21.62,-0.312,1.137,-0.078
21.63,-0.036,0.949,0.071
21.64,-0.135,1.016,0.121
21.65,-0.25,0.683,-0.02
21.66,-0.334,1.326,-0.198
21.67,-0.098,0.867,0.02
21.68,-0.193,1.022,0.154
21.69,-0.092,0.897,0.074
21.7,-0.428,0.915,-0.168
21.71,-0.189,1.208,-0.062
21.72,-0.058,0.879,0.076
21.73,-0.205,1.019,0.105
21.74,-0.218,0.738,-0.043
21.75,-0.362,1.239,-0.204
21.76,-0.082,0.941,0.026
21.77,-0.146,0.994,0.17
21.78,-0.075,0.889,0.03
21.79,-0.496,1.043,-0.165
21.8,-0.029,1.15,-0.026
21.81,-0.151,0.788,0.113
21.82,-0.201,1.007,0.183
21.83,-0.218,0.787,-0.121
21.84,-0.295,1.22,-0.172
21.85,-0.154,0.935,0.13
21.86,-0.132,1.009,0.127
21.87,-0.213,0.821,-0.023
21.88,-0.378,1.045,-0.139
21.89,-0.141,1.196,-0.027
21.9,-0.152,0.731,0.094
21.91,-0.096,1.057,0.149
21.92,-0.299,0.77,-0.156
21.93,-0.326,1.163,-0.104
21.94,-0.026,0.973,0.058
21.95,-0.164,0.841,0.094
21.96,-0.236,0.948,0.002
21.97,-0.296,1.005,-0.156
21.98,-0.19,1.168,0.002
21.99,-0.08,0.735,0.154
22.0,-0.069,1.094,0.095
22.01,-0.416,0.829,-0.162
22.02,-0.229,1.085,-0.097
22.03,-0.095,1.062,0.081
22.04,-0.149,0.736,0.178
22.05,-0.287,1.019,-0.026
22.06,-0.294,0.943,-0.199
22.07,-0.093,1.215,0.002
22.08,-0.184,0.738,0.179
22.09,-0.104,1.03,0.13
22.1,-0.343,0.89,-0.211
22.11,-0.239,1.007,-0.069
22.12,-0.036,1.104,0.075
22.13,-0.169,0.694,0.064
22.14,-0.344,1.073,0.015
22.15,-0.284,0.92,-0.199
22.16,-0.14,1.233,0.007
22.17,-0.161,0.771,0.233
22.18,-0.132,0.925,0.056
22.19,-0.425,0.997,-0.197
22.2,-0.141,0.981,-0.027
22.21,-0.089,1.104,0.045
22.22,-0.154,0.686,0.148
22.23,-0.302,1.16,-0.088
22.24,-0.28,0.814,-0.202
22.25,-0.197,1.177,0.107
22.26,-0.02,0.838,0.141
22.27,-0.217,0.863,0.044
22.28,-0.438,1.097,-0.168
22.29,-0.089,0.909,-0.079
22.3,-0.133,1.098,0.103
22.31,-0.122,0.698,0.217
22.32,-0.387,1.183,-0.123
22.33,-0.28,0.784,-0.191
22.34,-0.086,1.194,0.099
22.35,-0.133,0.872,0.118
22.36,-0.211,0.781,0.043
22.37,-0.42,1.253,-0.162
22.38,-0.163,0.86,-0.055
22.39,-0.225,1.07,0.121
22.4,-0.032,0.722,0.126
22.41,-0.409,1.078,-0.182
22.42,-0.243,0.874,-0.104
22.43,-0.023,1.213,0.049
22.44,-0.154,0.866,0.114
22.45,-0.242,0.733,0.065
22.46,-0.395,1.322,-0.17
22.47,-0.127,0.791,-0.064
22.48,-0.198,1.112,0.114
22.49,-0.032,0.746,0.122
22.5,-0.472,1.078,-0.178
22.51,-0.165,0.906,-0.111
22.52,-0.088,1.136,0.087
22.53,-0.14,0.905,0.124
22.54,-0.238,0.691,0.019
22.55,-0.376,1.358,-0.222
22.56,-0.103,0.797,-0.013
22.57,-0.166,1.113,0.155
22.58,-0.097,0.784,0.139
22.59,-0.449,1.0,-0.195
22.6,-0.15,0.969,-0.031
22.61,-0.109,1.124,0.093
22.62,-0.162,0.816,0.146
22.63,-0.265,0.823,0.013
22.64,-0.363,1.28,-0.207
22.65,-0.115,0.827,0.035
22.66,-0.132,1.192,0.155
22.67,-0.108,0.686,0.049
22.68,-0.463,1.108,-0.162
22.69,-0.097,1.015,-0.082
22.7,-0.142,0.942,0.076
22.71,-0.131,0.911,0.145
22.72,-0.286,0.788,-0.061
22.73,-0.376,1.236,-0.177
22.74,-0.146,0.854,0.083
22.75,-0.132,1.129,0.164
22.76,-0.13,0.71,0.065
22.77,-0.478,1.092,-0.201
22.78,-0.059,1.06,-0.087
22.79,-0.107,0.881,0.069
22.8,-0.182,0.994,0.136
22.81,-0.273,0.766,-0.119
22.82,-0.287,1.21,-0.181
22.83,-0.115,0.899,0.092
22.84,-0.08,1.074,0.113
22.85,-0.209,0.77,-0.001
22.86,-0.462,0.989,-0.123
22.87,-0.028,1.168,-0.068
22.88,-0.114,0.801,0.1
22.89,-0.237,1.064,0.195
22.9,-0.302,0.745,-0.137
22.91,-0.327,1.166,-0.172
22.92,-0.015,0.979,0.098
22.93,-0.134,0.925,0.124
22.94,-0.216,0.85,-0.003
22.95,-0.42,1.051,-0.121
22.96,-0.17,1.167,0.011
22.97,-0.181,0.777,0.143
22.98,-0.131,1.104,0.108
22.99,-0.307,0.786,-0.177
23.0,-0.299,1.156,-0.086
23.01,0.033,1.005,0.034
23.02,-0.14,0.802,0.116
23.03,-0.294,0.951,0.008
23.04,-0.273,0.947,-0.225
23.05,-0.105,1.159,-0.012
23.06,-0.212,0.733,0.186
23.07,-0.121,1.034,0.073
23.08,-0.369,0.865,-0.21
23.09,-0.205,1.101,-0.084
23.1,-0.068,1.046,0.076
23.11,-0.096,0.71,0.122
23.12,-0.312,1.071,-0.003
23.13,-0.256,0.93,-0.206
23.14,-0.127,1.214,-0.009
23.15,-0.229,0.746,0.249
23.16,-0.089,0.984,0.044
23.17,-0.386,0.946,-0.206
23.18,-0.203,1.033,-0.016
23.19,-0.048,1.05,0.045
23.2,-0.119,0.677,0.121
23.21,-0.318,1.15,-0.027
23.22,-0.278,0.839,-0.162
23.23,-0.228,1.212,0.054
23.24,-0.083,0.821,0.149
23.25,-0.161,0.896,-0.025
23.26,-0.437,1.014,-0.123
23.27,-0.108,0.993,-0.073
23.28,-0.179,1.052,0.058
23.29,-0.096,0.731,0.214
23.3,-0.426,1.197,-0.131
23.31,-0.256,0.716,-0.187
23.32,-0.092,1.291,0.148
23.33,-0.109,0.807,0.088
23.34,-0.244,0.799,0.093
23.35,-0.383,1.177,-0.185
23.36,-0.095,0.913,-0.067
23.37,-0.207,1.069,0.121
23.38,0.009,0.706,0.168
23.39,-0.465,1.179,-0.156
23.4,-0.201,0.792,-0.14
23.41,-0.079,1.331,0.049
23.42,-0.131,0.674,0.133
23.43,-0.254,0.973,-0.003
23.44,-0.322,1.132,-0.209
23.45,-0.127,0.899,-0.021
23.46,-0.16,1.014,0.151
23.47,-0.048,0.722,0.116
23.48,-0.489,1.191,-0.194
23.49,-0.249,0.807,-0.058
23.5,-0.041,1.271,0.086
23.51,-0.147,0.733,0.116
23.52,-0.29,0.915,-0.022
23.53,-0.263,1.151,-0.221
23.54,-0.065,0.871,0.013
23.55,-0.202,1.136,0.208
23.56,-0.017,0.645,0.077
23.57,-0.514,1.202,-0.203
23.58,-0.152,0.901,0.013
23.59,-0.16,1.143,0.086
23.6,-0.209,0.786,0.177
23.61,-0.287,0.912,-0.053
23.62,-0.276,1.142,-0.229
23.63,-0.192,0.871,0.097
23.64,-0.076,1.197,0.119
23.65,-0.104,0.628,0.044
23.66,-0.452,1.234,-0.199
23.67,-0.078,0.936,-0.124
23.68,-0.162,0.969,0.084
23.69,-0.156,0.93,0.172
23.7,-0.36,0.801,-0.113
23.71,-0.261,1.101,-0.189
23.72,-0.075,0.937,0.101
23.73,-0.146,1.128,0.116
23.74,-0.207,0.648,0.029
23.75,-0.393,1.196,-0.179
23.76,-0.106,1.033,-0.092
23.77,-0.18,0.883,0.124
23.78,-0.117,0.969,0.136
23.79,-0.312,0.815,-0.163
23.8,-0.31,1.16,-0.149
23.81,-0.092,0.917,0.141
23.82,-0.103,1.083,0.132
23.83,-0.278,0.701,0.042
23.84,-0.343,1.165,-0.146
23.85,-0.123,1.043,-0.081
23.86,-0.213,0.819,0.19
23.87,-0.131,1.042,0.145
23.88,-0.384,0.768,-0.175
23.89,-0.317,1.193,-0.095
23.9,-0.014,0.914,0.103
23.91,-0.128,0.921,0.17
23.92,-0.259,0.845,0.027
23.93,-0.364,1.13,-0.157
23.94,-0.186,1.072,-0.031
23.95,-0.12,0.778,0.133
23.96,-0.119,1.076,0.103
23.97,-0.366,0.777,-0.217
23.98,-0.216,1.178,-0.065
23.99,-0.15,0.983,0.085
24.0,-0.105,0.822,0.141
24.01,-0.243,0.95,0.041
24.02,-0.381,1.013,-0.175
24.03,-0.162,1.118,-0.047
24.04,-0.069,0.777,0.159
24.05,-0.216,1.057,0.119
24.06,-0.424,0.817,-0.189
24.07,-0.118,1.262,-0.099
24.08,-0.136,0.781,0.11
24.09,-0.149,0.948,0.192
24.1,-0.274,0.895,-0.12
24.11,-0.33,0.928,-0.136
24.12,-0.185,1.173,0.04
24.13,-0.069,0.859,0.121
24.14,-0.238,0.997,0.046
24.15,-0.325,0.833,-0.178
24.16,-0.108,1.264,-0.121
24.17,-0.093,0.808,0.051
24.18,-0.128,0.904,0.19
24.19,-0.324,0.999,-0.112
24.2,-0.246,0.919,-0.136
24.21,-0.144,1.214,0.024
24.22,-0.021,0.754,0.154
24.23,-0.245,1.002,0.001
24.24,-0.334,0.926,-0.139
24.25,-0.142,1.226,-0.053
24.26,-0.164,0.679,0.125
24.27,-0.108,1.026,0.17
24.28,-0.331,0.952,-0.174
24.29,-0.307,0.906,-0.149
24.3,-0.022,1.191,0.073
24.31,-0.084,0.722,0.095
24.32,-0.378,1.017,0.058
24.33,-0.284,0.942,-0.156
24.34,-0.161,1.199,-0.018
24.35,-0.267,0.76,0.188
24.36,-0.019,0.958,0.152
24.37,-0.405,0.978,-0.226
24.38,-0.264,0.892,-0.033
24.39,-0.005,1.293,0.027
24.4,-0.189,0.631,0.144
24.41,-0.275,1.082,0.016
24.42,-0.231,0.947,-0.234
24.43,-0.211,1.096,-0.049
24.44,-0.132,0.842,0.179
24.45,-0.102,0.883,0.073
24.46,-0.469,1.032,-0.179
24.47,-0.146,0.874,-0.056
24.48,-0.136,1.3,0.046
24.49,-0.104,0.582,0.137
24.5,-0.248,1.146,0.008
24.51,-0.329,0.964,-0.226
24.52,-0.148,1.042,0.031
24.53,-0.137,0.928,0.173
24.54,-0.17,0.785,0.103
24.55,-0.421,1.146,-0.193
24.56,-0.192,0.856,-0.023
24.57,-0.126,1.238,0.04
24.58,-0.038,0.629,0.15
24.59,-0.334,1.076,-0.035
24.6,-0.298,0.972,-0.224
24.61,-0.098,0.976,-0.015
24.62,-0.066,1.015,0.138
24.63,-0.146,0.722,0.087
24.64,-0.441,1.207,-0.188
24.65,-0.127,0.866,-0.056
24.66,-0.197,1.175,0.085
24.67,-0.101,0.7,0.168
24.68,-0.31,1.045,-0.109
24.69,-0.264,0.954,-0.2
24.7,-0.111,0.998,0.144
24.71,-0.098,1.106,0.093
24.72,-0.124,0.642,0.038
24.73,-0.458,1.285,-0.162
24.74,-0.116,0.86,-0.096
24.75,-0.189,1.108,0.109
24.76,-0.135,0.811,0.224
24.77,-0.358,0.972,-0.118
24.78,-0.293,0.988,-0.176
24.79,-0.051,0.963,0.098
24.8,-0.132,1.133,0.156
24.81,-0.181,0.628,0.017
24.82,-0.447,1.267,-0.168
24.83,-0.06,0.868,-0.058
24.84,-0.212,1.088,0.093
24.85,-0.092,0.858,0.157
24.86,-0.342,0.917,-0.133
24.87,-0.271,1.081,-0.153
24.88,-0.059,0.955,0.099
24.89,-0.147,1.09,0.095
24.9,-0.172,0.626,0.036
24.91,-0.419,1.327,-0.19
24.92,-0.071,0.926,-0.088
24.93,-0.159,0.966,0.091
24.94,-0.092,0.93,0.138
24.95,-0.364,0.841,-0.164
24.96,-0.347,1.181,-0.063
24.97,0.027,0.9,0.082
24.98,-0.147,1.047,0.11
24.99,-0.209,0.671,0.041
25.0,-0.443,1.264,-0.181
25.01,-0.095,0.98,-0.12
25.02,-0.175,0.889,0.116
25.03,-0.15,1.006,0.162
25.04,-0.424,0.925,-0.197
25.05,-0.239,1.072,-0.05
25.06,0.008,0.941,0.101
25.07,-0.189,0.988,0.147
25.08,-0.277,0.656,0.01
25.09,-0.229,1.337,-0.259
25.1,-0.08,0.868,-0.08
25.11,-0.216,0.992,0.203
25.12,-0.052,0.912,0.06
25.13,-0.463,0.876,-0.163
25.14,-0.233,1.175,-0.01
25.15,-0.027,0.899,0.098
25.16,-0.239,0.99,0.103
25.17,-0.315,0.72,-0.0
25.18,-0.278,1.18,-0.214
25.19,-0.16,1.011,0.031
25.2,-0.144,0.927,0.211
25.21,-0.124,0.912,0.031
25.22,-0.448,0.838,-0.154
25.23,-0.188,1.279,-0.012
25.24,-0.037,0.803,0.099
25.25,-0.208,1.007,0.141
25.26,-0.274,0.822,-0.036
25.27,-0.33,1.101,-0.205
25.28,-0.146,1.023,0.04
25.29,-0.066,0.896,0.179
25.3,-0.232,0.981,0.034
25.31,-0.436,0.823,-0.176
25.32,-0.08,1.272,-0.036
25.33,-0.098,0.778,0.081
25.34,-0.232,0.966,0.202
25.35,-0.22,0.924,-0.092
25.36,-0.335,1.029,-0.204
25.37,-0.125,1.111,0.072
25.38,-0.008,0.814,0.139
25.39,-0.213,1.007,0.012
25.4,-0.46,0.812,-0.129
25.41,-0.138,1.241,-0.074
25.42,-0.165,0.76,0.079
25.43,-0.089,0.954,0.145
25.44,-0.326,1.007,-0.128
25.45,-0.369,0.867,-0.135
25.46,-0.013,1.235,0.063
25.47,-0.072,0.759,0.101
25.48,-0.275,1.014,0.023
25.49,-0.365,0.926,-0.118
25.5,-0.141,1.222,-0.074
25.51,-0.232,0.765,0.063
25.52,-0.111,0.849,0.159
25.53,-0.329,1.085,-0.177
25.54,-0.299,0.818,-0.118
25.55,-0.044,1.246,0.044
25.56,-0.057,0.698,0.123
25.57,-0.267,1.033,0.014
25.58,-0.35,0.925,-0.183
25.59,-0.115,1.131,-0.082
25.6,-0.185,0.85,0.092
25.61,-0.119,0.833,0.182
25.62,-0.369,1.144,-0.156
25.63,-0.26,0.793,-0.11
25.64,-0.068,1.308,0.141
25.65,-0.062,0.725,0.124
25.66,-0.29,1.011,-0.067
25.67,-0.299,0.977,-0.182
25.68,-0.103,1.05,-0.063
25.69,-0.224,0.943,0.1
25.7,-0.051,0.778,0.177
25.71,-0.494,1.199,-0.155
25.72,-0.252,0.761,-0.086
25.73,-0.055,1.307,0.125
25.74,-0.1,0.684,0.106
25.75,-0.295,0.963,-0.014
25.76,-0.283,1.058,-0.181
25.77,-0.106,0.953,-0.051
25.78,-0.195,1.051,0.146
25.79,-0.034,0.693,0.084
25.8,-0.471,1.222,-0.137
25.81,-0.276,0.808,-0.089
25.82,-0.04,1.219,0.073
25.83,-0.119,0.72,0.146
25.84,-0.32,0.944,-0.023
25.85,-0.283,1.135,-0.178
25.86,-0.238,1.043,0.038
25.87,-0.152,1.014,0.184
25.88,-0.053,0.736,0.082
25.89,-0.508,1.203,-0.203
25.9,-0.156,0.836,-0.028
25.91,-0.09,1.255,0.027
25.92,-0.198,0.623,0.176
25.93,-0.329,1.057,-0.005
25.94,-0.237,1.023,-0.255
25.95,-0.157,0.935,0.01
25.96,-0.095,1.09,0.192
25.97,-0.114,0.664,0.029
25.98,-0.513,1.176,-0.148
25.99,-0.067,0.877,-0.066
26.0,-0.101,1.165,0.031
26.01,-0.229,0.704,0.204
26.02,-0.227,1.035,-0.06
26.03,-0.324,1.073,-0.222
26.04,-0.154,0.831,0.063
26.05,-0.066,1.17,0.137
26.06,-0.124,0.646,0.002
26.07,-0.449,1.236,-0.176
26.08,-0.112,0.909,-0.072
26.09,-0.178,1.085,0.083
26.1,-0.116,0.81,0.171
26.11,-0.269,0.957,-0.101
26.12,-0.335,1.076,-0.173
26.13,-0.134,0.856,0.07
26.14,-0.079,1.17,0.145
26.15,-0.111,0.625,0.054
26.16,-0.43,1.252,-0.205
26.17,-0.114,0.931,-0.071
26.18,-0.168,1.0,0.045
26.19,-0.1,0.886,0.187
26.2,-0.357,0.878,-0.128
26.21,-0.29,1.067,-0.166
26.22,-0.048,0.917,0.093
26.23,-0.087,1.126,0.096
26.24,-0.129,0.648,0.062
26.25,-0.405,1.249,-0.18
26.26,-0.122,1.025,-0.073
26.27,-0.152,0.918,0.104
26.28,-0.14,0.957,0.187
26.29,-0.4,0.862,-0.092
26.3,-0.289,1.157,-0.161
26.31,-0.11,0.914,0.135
26.32,-0.183,1.079,0.168
26.33,-0.149,0.687,0.036
26.34,-0.435,1.181,-0.194
26.35,-0.099,1.09,-0.083
26.36,-0.166,0.809,0.106
26.37,-0.163,0.998,0.168
26.38,-0.369,0.821,-0.134
26.39,-0.22,1.199,-0.145
26.4,-0.172,0.913,0.095
26.41,-0.14,1.008,0.169
26.42,-0.167,0.772,0.024
26.43,-0.417,1.087,-0.162
26.44,-0.085,1.126,-0.118
26.45,-0.158,0.75,0.101
26.46,-0.124,1.053,0.19
26.47,-0.324,0.798,-0.156
26.48,-0.274,1.159,-0.138
26.49,-0.079,0.964,0.076
26.5,-0.185,0.969,0.154
26.51,-0.214,0.847,-0.019
26.52,-0.366,1.051,-0.156
26.53,-0.14,1.154,-0.033
26.54,-0.193,0.705,0.134
26.55,-0.06,1.057,0.109
26.56,-0.343,0.786,-0.127
26.57,-0.279,1.111,-0.102
26.58,-0.061,1.026,0.065
26.59,-0.136,0.844,0.12
26.6,-0.303,0.959,0.02
26.61,-0.335,0.97,-0.166
26.62,-0.099,1.186,-0.087
26.63,-0.124,0.726,0.148
26.64,-0.055,1.052,0.13
26.65,-0.348,0.839,-0.19
26.66,-0.291,1.098,-0.069
26.67,-0.022,0.952,0.049
26.68,-0.166,0.897,0.177
26.69,-0.327,0.917,-0.027
26.7,-0.309,1.011,-0.182
26.71,-0.173,1.085,-0.042
26.72,-0.086,0.784,0.173
26.73,-0.043,1.091,0.054
26.74,-0.426,0.794,-0.158
26.75,-0.201,1.149,-0.043
26.76,-0.074,1.009,0.056
26.77,-0.166,0.77,0.172
26.78,-0.282,1.002,-0.021
26.79,-0.305,0.976,-0.246
26.8,-0.13,1.146,0.006
26.81,-0.125,0.744,0.21
26.82,-0.111,1.058,0.054
26.83,-0.356,0.849,-0.205
26.84,-0.213,1.086,0.014
26.85,-0.102,1.016,0.062
26.86,-0.138,0.749,0.108
26.87,-0.292,1.097,-0.033
26.88,-0.34,0.872,-0.181
26.89,-0.155,1.188,0.02
26.9,-0.113,0.805,0.171
26.91,-0.14,0.989,0.04
26.92,-0.397,0.909,-0.166
26.93,-0.047,1.062,-0.101
26.94,-0.12,1.006,0.051
26.95,-0.148,0.671,0.191
26.96,-0.31,1.182,-0.058
26.97,-0.281,0.834,-0.189
26.98,-0.17,1.229,0.076
26.99,-0.036,0.787,0.117
27.0,-0.24,0.917,0.069
27.01,-0.354,1.033,-0.178
27.02,-0.065,1.027,-0.077
27.03,-0.213,1.052,0.076
27.04,-0.087,0.671,0.209
27.05,-0.388,1.204,-0.11
27.06,-0.142,1.216,0.139
27.07,-0.143,0.855,0.097
27.08,-0.162,0.789,0.02
27.09,-0.413,1.267,-0.172
27.1,-0.137,0.86,-0.024
27.11,-0.176,1.146,0.12
27.12,-0.116,0.719,0.163
27.13,-0.398,1.097,-0.151
27.14,-0.247,0.855,-0.158
27.15,-0.022,1.152,0.06
27.16,-0.141,0.888,0.156
27.17,-0.233,0.742,0.014
27.18,-0.396,1.313,-0.195
27.19,-0.078,0.782,-0.048
27.2,-0.222,1.144,0.126
27.21,-0.108,0.743,0.143
27.22,-0.441,1.068,-0.154
27.23,-0.196,0.92,-0.149
27.24,-0.059,1.103,0.058
27.25,-0.136,0.929,0.115
27.26,-0.22,0.69,0.015
27.27,-0.414,1.355,-0.178
27.28,-0.095,0.823,-0.047
27.29,-0.194,1.089,0.159
27.3,-0.12,0.757,0.155
27.31,-0.401,1.039,-0.163
27.32,-0.226,0.997,-0.13
27.33,-0.087,1.016,0.117
27.34,-0.122,0.998,0.115
27.35,-0.242,0.653,-0.013
27.36,-0.402,1.334,-0.177
27.37,-0.076,0.848,-0.004
27.38,-0.287,1.156,0.157
27.39,-0.084,0.654,0.125
27.4,-0.432,1.139,-0.188
27.41,-0.264,0.992,-0.033
27.42,-0.081,1.007,0.086
27.43,-0.191,0.96,0.129
27.44,-0.285,0.75,-0.052
27.45,-0.306,1.225,-0.227
27.46,-0.103,0.834,0.045
27.47,-0.181,1.15,0.184
27.48,-0.068,0.711,0.034
27.49,-0.485,1.108,-0.188
27.5,-0.176,1.077,-0.014
27.51,-0.064,0.954,0.088
27.52,-0.206,0.988,0.162
27.53,-0.226,0.718,-0.061
27.54,-0.368,1.25,-0.172
27.55,-0.073,0.855,0.063
27.56,-0.197,1.095,0.178
27.57,-0.12,0.75,0.052
27.58,-0.42,1.019,-0.189
27.59,-0.132,1.162,-0.04
27.6,-0.146,0.839,0.083
27.61,-0.168,1.024,0.156
27.62,-0.216,0.777,-0.108
27.63,-0.315,1.191,-0.168
27.64,-0.164,0.915,0.114
27.65,-0.057,1.011,0.097
27.66,-0.205,0.8,0.023
27.67,-0.388,1.034,-0.161
27.68,-0.104,1.163,-0.101
27.69,-0.186,0.7,0.103
27.7,-0.125,1.093,0.207
27.71,-0.291,0.792,-0.124
27.72,-0.344,1.118,-0.118
27.73,-0.028,1.036,0.081
27.74,-0.135,0.871,0.133
27.75,-0.235,0.885,0.046
27.76,-0.392,1.025,-0.151
27.77,-0.13,1.217,-0.057
27.78,-0.126,0.725,0.124
27.79,-0.151,1.051,0.169
27.8,-0.282,0.814,-0.139
27.81,-0.277,1.108,-0.122
27.82,-0.119,1.043,0.06
27.83,-0.143,0.792,0.116
27.84,-0.278,1.005,0.042
27.85,-0.347,0.952,-0.164
27.86,-0.14,1.185,-0.039
27.87,-0.148,0.731,0.163
27.88,-0.125,1.028,0.123
27.89,-0.371,0.863,-0.173
27.9,-0.197,0.987,-0.132
27.91,-0.062,1.134,0.057
27.92,-0.17,0.683,0.176
27.93,-0.278,1.063,-0.012
27.94,-0.409,0.919,-0.155
27.95,-0.116,1.169,0.004
27.96,-0.156,0.772,0.122
27.97,-0.105,0.956,0.113
27.98,-0.358,0.98,-0.201
27.99,-0.172,0.92,-0.118
28.0,-0.088,1.218,0.019
28.01,-0.064,0.653,0.116
28.02,-0.32,1.078,0.032
28.03,-0.354,0.903,-0.198
28.04,-0.184,1.147,-0.015
28.05,-0.041,0.838,0.137
28.06,-0.147,0.876,0.083
28.07,-0.375,1.063,-0.187
28.08,-0.039,0.919,-0.106
28.09,-0.181,1.128,0.074
28.1,-0.131,0.683,0.183
28.11,-0.315,1.136,-0.064
28.12,-0.343,0.771,-0.169
28.13,-0.114,1.143,0.078
28.14,-0.084,0.976,0.135
28.15,-0.215,0.748,0.078
28.16,-0.338,1.163,-0.165
28.17,-0.113,0.916,-0.102
28.18,-0.196,1.142,0.076
28.19,-0.091,0.678,0.199
28.2,-0.418,1.171,-0.14
28.21,-0.283,0.745,-0.145
28.22,-0.131,1.345,0.133
28.23,-0.163,0.765,0.125
28.24,-0.168,0.828,0.049
28.25,-0.362,1.176,-0.173
28.26,-0.113,0.905,-0.058
28.27,-0.21,1.079,0.1
28.28,-0.077,0.697,0.205
28.29,-0.457,1.127,-0.136
28.3,-0.235,0.773,-0.174
28.31,-0.006,1.259,0.059
28.32,-0.136,0.843,0.13
28.33,-0.241,0.797,0.057
28.34,-0.417,1.239,-0.141
28.35,-0.072,0.872,-0.068
28.36,-0.214,1.113,0.111
28.37,0.001,0.716,0.165
28.38,-0.433,1.168,-0.214
28.39,-0.332,0.84,-0.044
28.4,-0.034,1.176,0.079
28.41,-0.112,0.872,0.089
28.42,-0.295,0.766,0.106
28.43,-0.307,1.301,-0.253
28.44,-0.092,0.777,-0.064
28.45,-0.209,1.157,0.183
28.46,-0.011,0.748,0.092
28.47,-0.488,1.082,-0.177
28.48,-0.269,0.999,-0.039
28.49,-0.075,1.062,0.052
28.5,-0.146,0.868,0.124
28.51,-0.285,0.742,0.084
28.52,-0.329,1.33,-0.243
28.53,-0.11,0.757,-0.038
28.54,-0.16,1.14,0.17
28.55,-0.007,0.792,0.054
28.56,-0.484,0.995,-0.193
28.57,-0.168,1.051,-0.081
28.58,-0.014,1.003,0.024
28.59,-0.178,0.963,0.151
28.6,-0.229,0.738,0.011
28.61,-0.462,1.331,-0.205
28.62,-0.095,0.74,-0.046
28.63,-0.121,1.175,0.128
28.64,-0.102,0.783,0.055
28.65,-0.403,0.923,-0.204
28.66,-0.171,1.133,-0.067
28.67,0.045,0.955,0.054
28.68,-0.148,0.977,0.156
28.69,-0.326,0.741,0.014
28.7,-0.323,1.291,-0.211
28.71,-0.168,0.845,-0.048
28.72,-0.198,1.007,0.205
28.73,-0.048,0.899,0.046
28.74,-0.397,0.903,-0.231
28.75,-0.099,1.177,-0.044
28.76,-0.082,0.894,0.078
28.77,-0.209,0.999,0.157
28.78,-0.266,0.78,-0.05
28.79,-0.248,1.18,-0.175
28.8,-0.263,0.973,0.039
28.81,-0.077,0.938,0.163
28.82,-0.135,0.95,0.093
28.83,-0.466,0.88,-0.211
28.84,-0.164,1.2,-0.044
28.85,-0.05,0.812,0.08
28.86,-0.225,1.01,0.161
28.87,-0.24,0.789,-0.052
28.88,-0.268,1.114,-0.2
28.89,-0.191,1.038,0.021
28.9,-0.114,0.916,0.171
28.91,-0.129,0.979,0.027
28.92,-0.436,0.822,-0.176
28.93,-0.186,1.24,-0.003
28.94,-0.054,0.785,0.07
28.95,-0.214,0.971,0.143
28.96,-0.258,0.877,-0.047
28.97,-0.242,1.035,-0.185
28.98,-0.124,1.108,-0.004
28.99,-0.1,0.793,0.19
29.0,-0.156,1.014,0.05
29.01,-0.498,0.925,-0.139
29.02,-0.062,1.222,-0.067
29.03,-0.106,0.782,0.079
29.04,-0.252,1.014,0.166
29.05,-0.179,0.841,-0.151
29.06,-0.314,1.059,-0.123
29.07,-0.215,1.015,0.113
29.08,0.035,0.869,0.11
29.09,-0.259,0.968,0.005
29.1,-0.43,0.879,-0.158
29.11,-0.15,1.238,-0.028
29.12,-0.194,0.731,0.116
29.13,-0.159,0.987,0.192
29.14,-0.292,0.873,-0.155
29.15,-0.272,0.987,-0.115
29.16,-0.208,1.15,0.078
29.17,-0.021,0.756,0.115
29.18,-0.279,1.042,0.036
29.19,-0.458,0.915,-0.116
29.2,-0.171,1.235,0.007
29.21,-0.179,0.751,0.145
29.22,-0.146,0.935,0.174
29.23,-0.384,0.976,-0.143
29.24,-0.164,0.917,-0.152
29.25,-0.098,1.192,0.014
29.26,-0.066,0.633,0.16
29.27,-0.233,1.1,0.012
29.28,-0.424,0.907,-0.205
29.29,-0.108,1.104,0.001
29.3,-0.205,0.862,0.156
29.31,-0.112,0.896,0.143
29.32,-0.404,1.008,-0.177
29.33,-0.2,0.884,-0.04
29.34,-0.128,1.259,-0.002
29.35,-0.112,0.587,0.197
29.36,-0.248,1.104,-0.011
29.37,-0.371,0.956,-0.184
29.38,-0.195,1.002,-0.034
29.39,-0.124,0.901,0.16
29.4,-0.114,0.914,0.1
29.41,-0.451,1.064,-0.216
29.42,-0.118,0.845,-0.067
29.43,-0.193,1.349,0.064
29.44,-0.125,0.59,0.146
29.45,-0.232,1.081,0.001
29.46,-0.37,1.025,-0.248
29.47,-0.14,0.965,0.018
29.48,-0.045,0.982,0.106
29.49,-0.142,0.803,0.097
29.5,-0.453,1.137,-0.209
29.51,-0.142,0.803,-0.037
29.52,-0.087,1.308,0.085
29.53,-0.158,0.618,0.142
29.54,-0.33,1.056,0.026
29.55,-0.292,1.05,-0.215
29.56,-0.162,0.911,0.018
29.57,-0.146,1.047,0.182
29.58,-0.08,0.719,0.07
29.59,-0.5,1.165,-0.182
29.6,-0.113,0.864,-0.027
29.61,-0.126,1.231,0.064
29.62,-0.192,0.682,0.184
29.63,-0.224,1.022,-0.032
29.64,-0.337,1.09,-0.198
29.65,-0.189,0.916,0.035
29.66,-0.098,1.147,0.146
29.67,-0.073,0.64,0.045
29.68,-0.495,1.235,-0.153
29.69,-0.063,0.916,-0.076
29.7,-0.156,1.107,0.028
29.71,-0.154,0.717,0.183
29.72,-0.225,0.938,-0.111
29.73,-0.298,1.162,-0.191
29.74,-0.144,0.874,0.019
29.75,-0.111,1.139,0.157
29.76,-0.085,0.646,0.083
29.77,-0.487,1.238,-0.208
29.78,-0.128,0.924,-0.051
29.79,-0.105,1.096,0.053
29.8,-0.125,0.81,0.142
29.81,-0.398,0.857,-0.04
29.82,-0.252,1.187,-0.187
29.83,-0.155,0.976,0.042
29.84,-0.119,1.113,0.161
29.85,-0.16,0.628,-0.015
29.86,-0.519,1.236,-0.153
29.87,-0.064,0.909,-0.062
29.88,-0.139,1.079,0.044
29.89,-0.168,0.741,0.179
29.9,-0.286,0.99,-0.116
29.91,-0.252,1.137,-0.15
29.92,-0.24,0.906,0.117
29.93,-0.064,1.096,0.118
29.94,-0.156,0.642,-0.038
29.95,-0.466,1.249,-0.188
29.96,-0.009,0.875,-0.039
29.97,-0.143,1.076,0.117
29.98,-0.154,0.829,0.16
29.99,-0.324,0.871,-0.106
30.0,-0.304,1.179,-0.152
30.01,-0.053,0.877,0.057
30.02,-0.201,1.127,0.195
30.03,-0.192,0.634,-0.03
30.04,-0.504,1.219,-0.146
30.05,-0.087,0.972,-0.017
30.06,-0.171,1.014,0.112
30.07,-0.227,0.944,0.175
30.08,-0.279,0.824,-0.173
30.09,-0.233,1.172,-0.168
30.1,-0.135,0.885,0.135
30.11,-0.125,1.098,0.153
30.12,-0.276,0.693,0.002
30.13,-0.441,1.148,-0.147
30.14,-0.075,1.023,-0.027
30.15,-0.137,0.909,0.122
30.16,-0.145,1.018,0.097
30.17,-0.31,0.773,-0.176
30.18,-0.229,1.25,-0.079
30.19,-0.062,0.891,0.096
30.2,-0.172,0.974,0.13
30.21,-0.3,0.807,-0.008
30.22,-0.358,1.135,-0.151
30.23,-0.144,1.045,-0.048
30.24,-0.14,0.799,0.176
30.25,-0.12,1.037,0.101
30.26,-0.355,0.749,-0.198
30.27,-0.209,1.203,-0.095
30.28,-0.035,0.904,0.078
30.29,-0.081,0.876,0.122
30.3,-0.317,0.904,-0.004
30.31,-0.3,1.08,-0.182
30.32,-0.126,1.081,-0.02
30.33,-0.182,0.767,0.208
30.34,-0.069,1.088,0.049
30.35,-0.368,0.851,-0.224
30.36,-0.258,1.133,-0.011
30.37,0.035,0.921,0.05
30.38,-0.147,0.838,0.103
30.39,-0.363,0.975,-0.006
30.4,-0.222,0.972,-0.221
30.41,-0.183,1.165,-0.033
30.42,-0.04,0.713,0.227
30.43,-0.247,1.046,0.057
30.44,-0.457,0.828,-0.198
30.45,0.016,1.185,-0.068
30.46,-0.119,0.967,0.106
30.47,-0.246,0.744,0.184
30.48,-0.226,1.107,-0.139
30.49,-0.265,0.889,-0.205
30.5,-0.214,1.245,0.12
30.51,-0.02,0.726,0.126
30.52,-0.279,1.016,0.01
30.53,-0.455,0.917,-0.19
30.54,-0.049,1.091,-0.059
30.55,-0.164,0.952,0.076
30.56,-0.17,0.725,0.166
30.57,-0.286,1.176,-0.168
30.58,-0.246,0.797,-0.162
30.59,-0.197,1.278,0.116
30.6,0.015,0.729,0.13
30.61,-0.379,0.964,0.017
30.62,-0.414,1.038,-0.149
30.63,-0.05,0.988,-0.065
30.64,-0.271,0.814,0.154
30.65,-0.066,0.88,0.104
30.66,-0.419,1.12,-0.223
30.67,-0.249,0.807,-0.023
30.68,-0.093,1.283,0.091
30.69,-0.099,0.609,0.114
30.7,-0.336,1.052,0.013
30.71,-0.281,0.982,-0.239
30.72,-0.129,1.026,-0.011
30.73,-0.159,0.972,0.2
30.74,-0.069,0.786,0.069
30.75,-0.448,1.161,-0.216
30.76,-0.123,0.844,-0.016
30.77,-0.121,1.236,0.077
30.78,-0.12,0.646,0.136
30.79,-0.279,1.041,-0.079
30.8,-0.284,0.982,-0.183
30.81,-0.14,0.967,0.053
30.82,-0.174,1.044,0.175
30.83,-0.1,0.718,0.043
30.84,-0.404,1.236,-0.233
30.85,-0.115,0.863,-0.031
30.86,-0.131,1.162,0.09
30.87,-0.186,0.735,0.166
30.88,-0.263,1.031,-0.059
30.89,-0.261,1.055,-0.186
30.9,-0.158,0.935,0.096
30.91,-0.145,1.027,0.146
30.92,-0.126,0.64,0.02
30.93,-0.53,1.271,-0.171
30.94,-0.057,0.837,-0.045
30.95,-0.174,1.126,0.127
30.96,-0.188,0.819,0.176
30.97,-0.321,0.922,-0.104
30.98,-0.268,1.088,-0.152
30.99,-0.073,0.958,0.114
31.0,-0.12,1.074,0.128
31.01,-0.169,0.641,0.001
31.02,-0.484,1.313,-0.17
31.03,-0.075,0.91,-0.053
31.04,-0.162,1.028,0.089
31.05,-0.191,0.854,0.144
31.06,-0.289,0.908,-0.171
31.07,-0.276,1.145,-0.163
31.08,-0.061,0.868,0.169
31.09,-0.112,1.086,0.142
31.1,-0.246,0.625,0.0
31.11,-0.351,1.252,-0.215
31.12,-0.061,0.971,-0.034
31.13,-0.208,0.92,0.125
31.14,-0.069,0.939,0.123
31.15,-0.436,0.864,-0.172
31.16,-0.237,1.205,-0.039
31.17,0.006,0.873,0.061
31.18,-0.153,1.027,0.087
31.19,-0.257,0.768,0.001
31.2,-0.324,1.201,-0.231
31.21,-0.132,1.005,-0.009
31.22,-0.157,0.926,0.19
31.23,-0.114,0.967,0.053
31.24,-0.359,0.841,-0.196
31.25,-0.275,1.269,-0.008
31.26,-0.083,0.806,0.12
31.27,-0.15,0.99,0.125
31.28,-0.29,0.841,-0.058
31.29,-0.34,1.067,-0.185
31.3,-0.093,1.092,0.047
31.31,-0.072,0.821,0.132
31.32,-0.13,0.989,0.032
31.33,-0.404,0.854,-0.142
31.34,-0.196,1.227,-0.013
31.35,-0.114,0.779,0.129
31.36,-0.21,0.954,0.161
31.37,-0.304,0.915,-0.116
31.38,-0.227,0.944,-0.178
31.39,-0.166,1.194,0.106
31.4,-0.026,0.707,0.145
31.41,-0.241,1.055,-0.015
31.42,-0.37,0.913,-0.14
31.43,-0.204,1.18,-0.01
31.44,-0.138,0.765,0.102
31.45,-0.157,0.934,0.148
31.46,-0.321,0.9,-0.19
31.47,-0.247,1.027,-0.102
31.48,-0.186,1.067,0.091
31.49,-0.071,0.703,0.168
31.5,-0.316,1.115,-0.02
31.51,-0.296,0.882,-0.205
31.52,-0.12,1.203,0.027
31.53,-0.185,0.784,0.149
31.54,-0.128,0.961,0.061
31.55,-0.29,0.961,-0.249
31.56,-0.193,1.008,-0.081
31.57,-0.178,1.074,0.149
31.58,-0.154,0.659,0.163
31.59,-0.333,1.128,-0.024
31.6,-0.287,0.863,-0.232
31.61,-0.082,1.149,0.041
31.62,-0.135,0.861,0.132
31.63,-0.138,0.91,0.054
31.64,-0.364,1.041,-0.21
31.65,-0.139,0.949,-0.051
31.66,-0.157,1.161,0.095
31.67,-0.134,0.659,0.125
31.68,-0.328,1.136,-0.045
31.69,-0.264,0.903,-0.199
31.7,-0.138,1.156,0.079
31.71,-0.098,0.857,0.147
31.72,-0.165,0.815,0.015
31.73,-0.448,1.145,-0.149
31.74,-0.091,0.9,-0.03
31.75,-0.184,1.12,0.056
31.76,-0.151,0.694,0.223
31.77,-0.377,1.144,-0.107
31.78,-0.211,0.874,-0.181
31.79,-0.134,1.114,0.102
31.8,-0.101,0.884,0.1
31.81,-0.161,0.77,0.007
31.82,-0.508,1.333,-0.159
31.83,-0.117,0.816,0.0
31.84,-0.198,1.114,0.109
31.85,-0.112,0.725,0.146
31.86,-0.406,1.1,-0.161
31.87,-0.216,0.887,-0.146
31.88,-0.19,1.115,0.115
31.89,-0.061,0.93,0.104
31.9,-0.308,0.696,-0.032
31.91,-0.392,1.292,-0.144
31.92,-0.044,0.864,-0.02
31.93,-0.261,1.109,0.125
31.94,-0.026,0.715,0.143
31.95,-0.354,1.086,-0.18
31.96,-0.29,0.996,-0.099
31.97,-0.012,0.995,0.086
31.98,-0.129,0.985,0.092
31.99,-0.32,0.687,0.007
32.0,-0.286,1.334,-0.195
32.01,-0.039,0.865,-0.011
32.02,-0.281,1.094,0.183
32.03,-0.021,0.775,0.093
32.04,-0.422,0.993,-0.212
32.05,-0.205,1.091,-0.069
32.06,-0.09,0.897,0.145
32.07,-0.197,1.024,0.141
32.08,-0.21,0.704,-0.105
32.09,-0.385,1.246,-0.136
32.1,-0.105,0.901,0.008
32.11,-0.179,1.042,0.182
32.12,-0.07,0.813,0.053
32.13,-0.447,1.021,-0.189
32.14,-0.167,1.166,-0.032
32.15,-0.082,0.824,0.094
32.16,-0.179,1.057,0.164
32.17,-0.309,0.735,-0.083
32.18,-0.221,1.165,-0.22
32.19,-0.132,0.972,0.069
32.2,-0.129,0.978,0.167
32.21,-0.125,0.865,0.026
32.22,-0.469,0.965,-0.175
32.23,-0.094,1.245,-0.042
32.24,-0.111,0.759,0.101
32.25,-0.271,1.015,0.19
32.26,-0.214,0.809,-0.124
32.27,-0.315,1.187,-0.147
32.28,-0.034,0.917,0.085
32.29,-0.109,0.965,0.101
32.3,-0.3,0.828,0.015
32.31,-0.41,1.075,-0.14
32.32,-0.125,1.132,-0.037
32.33,-0.221,0.781,0.181
32.34,-0.165,1.073,0.146
32.35,-0.302,0.797,-0.212
32.36,-0.312,1.156,-0.082
32.37,-0.052,0.982,0.106
32.38,-0.042,0.868,0.109
32.39,-0.396,0.909,0.016
32.4,-0.278,0.97,-0.168
32.41,-0.076,1.2,-0.059
32.42,-0.237,0.724,0.15
32.43,-0.012,1.084,0.068
32.44,-0.362,0.796,-0.232
32.45,-0.293,1.102,-0.049
32.46,0.063,1.057,0.05
32.47,-0.167,0.771,0.144
32.48,-0.361,0.978,0.02
32.49,-0.223,0.972,-0.224
32.5,-0.113,1.218,-0.018
32.51,-0.214,0.733,0.206
32.52,-0.096,1.015,0.062
32.53,-0.431,0.884,-0.225
32.54,-0.137,1.068,-0.016
32.55,-0.097,1.035,0.066
32.56,-0.187,0.706,0.155
32.57,-0.267,1.139,-0.052
32.58,-0.279,0.85,-0.217
32.59,-0.201,1.212,0.053
32.6,-0.06,0.829,0.152
32.61,-0.166,0.947,0.028
32.62,-0.442,0.94,-0.174
32.63,-0.077,1.001,-0.055
32.64,-0.147,1.055,0.072
32.65,-0.149,0.677,0.194
32.66,-0.321,1.188,-0.094
32.67,-0.267,0.771,-0.22
32.68,-0.196,1.193,0.132
32.69,-0.059,0.87,0.111
32.7,-0.218,0.868,0.009
32.71,-0.362,1.064,-0.158
32.72,-0.088,1.017,-0.079
32.73,-0.224,1.052,0.07
32.74,-0.118,0.68,0.18
32.75,-0.333,1.235,-0.134
32.76,-0.284,0.792,-0.207
32.77,-0.083,1.213,0.125
32.78,-0.136,0.853,0.139
32.79,-0.248,0.823,0.031
32.8,-0.34,1.195,-0.169
32.81,-0.209,0.845,-0.035
32.82,-0.208,1.098,0.126
32.83,-0.027,0.713,0.098
32.84,-0.479,1.104,-0.118
32.85,-0.203,0.821,-0.144
32.86,0.022,1.231,0.03
32.87,-0.181,0.837,0.134
32.88,-0.158,0.76,-0.015
32.89,-0.4,1.308,-0.197
32.9,-0.095,0.796,-0.035
32.91,-0.252,1.165,0.165
32.92,-0.027,0.678,0.133
32.93,-0.468,1.093,-0.163
32.94,-0.262,0.891,-0.08
32.95,-0.087,1.127,0.083
32.96,-0.136,0.914,0.138
32.97,-0.214,0.721,0.021
32.98,-0.369,1.29,-0.225
32.99,-0.103,0.799,-0.004
33.0,-0.269,1.162,0.189
33.01,-0.126,0.738,0.123
33.02,-0.453,1.027,-0.176
33.03,-0.203,1.016,-0.08
33.04,0.014,1.082,0.084
33.05,-0.189,0.945,0.126
33.06,-0.174,0.647,-0.04
33.07,-0.306,1.337,-0.183
33.08,-0.123,0.853,-0.007
33.09,-0.205,1.14,0.203
33.1,-0.066,0.661,0.083
33.11,-0.591,1.157,-0.14
33.12,-0.114,0.96,-0.048
33.13,-0.124,1.046,0.11
33.14,-0.214,0.852,0.19
33.15,-0.206,0.833,-0.047
33.16,-0.391,1.249,-0.195
33.17,-0.135,0.815,0.029
33.18,-0.106,1.234,0.138
33.19,-0.165,0.667,0.044
33.2,-0.495,1.119,-0.147
33.21,-0.103,1.038,-0.046
33.22,-0.133,0.947,0.079
33.23,-0.145,0.883,0.15
33.24,-0.218,0.758,-0.108
33.25,-0.377,1.204,-0.169
33.26,-0.16,0.862,0.059
33.27,-0.072,1.169,0.09
33.28,-0.093,0.68,0.04
33.29,-0.492,1.102,-0.129
33.3,-0.074,1.145,-0.056
33.31,-0.111,0.843,0.057
33.32,-0.207,0.969,0.222
33.33,-0.268,0.817,-0.134
33.34,-0.293,1.228,-0.143
33.35,-0.141,0.824,0.054
33.36,-0.12,1.044,0.161
33.37,-0.137,0.763,0.039
33.38,-0.503,1.03,-0.131
33.39,-0.062,1.168,-0.081
33.4,-0.119,0.771,0.061
33.41,-0.156,1.033,0.167
33.42,-0.318,0.761,-0.136
33.43,-0.303,1.11,-0.157
33.44,-0.107,1.009,0.12
33.45,-0.089,1.002,0.122
33.46,-0.177,0.823,-0.004
33.47,-0.372,1.026,-0.12
33.48,-0.239,1.224,-0.036
33.49,-0.125,0.689,0.063
33.5,-0.154,1.058,0.164
33.51,-0.376,0.822,-0.156
33.52,-0.259,1.098,-0.172
33.53,-0.052,1.042,0.073
33.54,-0.074,0.877,0.112
33.55,-0.234,0.94,-0.005
33.56,-0.371,0.969,-0.129
33.57,-0.125,1.223,-0.059
33.58,-0.155,0.693,0.144
33.59,-0.174,1.07,0.171
33.6,-0.353,0.84,-0.179
33.61,-0.278,1.038,-0.115
33.62,-0.062,1.131,0.07
33.63,-0.11,0.731,0.147
33.64,-0.265,0.985,-0.008
33.65,-0.278,0.968,-0.202
33.66,-0.157,1.198,-0.04
33.67,-0.171,0.708,0.164
33.68,-0.077,1.054,0.123
33.69,-0.422,0.926,-0.178
33.7,-0.268,0.956,-0.098
33.71,-0.004,1.195,0.05
33.72,-0.167,0.688,0.105
33.73,-0.275,1.051,0.004
33.74,-0.227,0.905,-0.203
33.75,-0.175,1.167,-0.007
33.76,-0.152,0.741,0.152
33.77,-0.048,0.979,0.094
33.78,-0.464,0.947,-0.175
33.79,-0.264,0.91,-0.038
33.8,-0.067,1.246,0.067
33.81,-0.165,0.642,0.133
33.82,-0.334,1.084,0.023
33.83,-0.261,0.913,-0.19
33.84,-0.145,1.16,0.024
33.85,-0.159,0.798,0.133
33.86,-0.097,0.899,0.065
33.87,-0.397,1.062,-0.189
33.88,-0.171,0.903,-0.056
33.89,-0.107,1.232,0.041
33.9,-0.128,0.687,0.145
33.91,-0.319,1.16,-0.066
33.92,-0.336,0.804,-0.138
33.93,-0.163,1.195,0.045
33.94,-0.054,0.81,0.147
33.95,-0.231,0.915,0.055
33.96,-0.393,1.009,-0.219
33.97,-0.081,1.019,-0.126
33.98,-0.152,1.009,0.049
33.99,-0.167,0.691,0.195
34.0,-0.336,1.184,-0.117
34.01,-0.313,0.802,-0.155
34.02,-0.178,1.2,0.122
34.03,-0.062,0.821,0.15
34.04,-0.28,0.879,0.016
34.05,-0.361,1.141,-0.198
34.06,-0.095,0.912,-0.05
34.07,-0.203,1.088,0.1
34.08,-0.103,0.702,0.215
34.09,-0.384,1.171,-0.13
34.1,-0.266,0.819,-0.16
34.11,-0.017,1.221,0.104
34.12,-0.135,0.837,0.139
34.13,-0.28,0.809,0.011
34.14,-0.363,1.25,-0.209
34.15,-0.092,0.849,-0.05
34.16,-0.25,1.106,0.184
34.17,-0.01,0.719,0.15
34.18,-0.419,1.13,-0.165
34.19,-0.288,0.871,-0.079
34.2,-0.036,1.168,0.079
34.21,-0.157,0.863,0.106
34.22,-0.245,0.778,-0.001
34.23,-0.309,1.314,-0.214
34.24,-0.128,0.793,-0.03
34.25,-0.198,1.13,0.156
34.26,-0.006,0.736,0.095
34.27,-0.478,1.078,-0.2
34.28,-0.264,0.978,-0.03
34.29,-0.123,1.078,0.102
34.3,-0.146,0.892,0.103
34.31,-0.253,0.771,0.006
34.32,-0.289,1.329,-0.251
34.33,-0.138,0.797,0.004
34.34,-0.189,1.125,0.178
34.35,-0.047,0.725,0.101
34.36,-0.545,1.072,-0.181
34.37,-0.212,1.041,-0.015
34.38,0.025,1.019,0.034
34.39,-0.214,0.959,0.088
34.4,-0.207,0.725,-0.035
34.41,-0.27,1.316,-0.256
34.42,-0.125,0.85,-0.026
34.43,-0.08,1.071,0.177
34.44,-0.103,0.786,0.036
34.45,-0.526,0.994,-0.129
34.46,-0.097,1.124,-0.089
34.47,-0.118,0.853,0.101
34.48,-0.256,1.041,0.163
34.49,-0.161,0.751,-0.123
34.5,-0.346,1.217,-0.196
34.51,-0.161,0.893,0.115
34.52,-0.043,1.027,0.147
34.53,-0.168,0.825,0.015
34.54,-0.484,0.979,-0.117
34.55,-0.088,1.194,-0.07
34.56,-0.114,0.787,0.109
34.57,-0.286,1.063,0.199
34.58,-0.283,0.766,-0.114
34.59,-0.3,1.141,-0.159
34.6,-0.141,1.021,0.089
34.61,-0.146,0.961,0.18
34.62,-0.12,0.854,-0.003
34.63,-0.458,0.955,-0.143
34.64,-0.101,1.224,-0.075
34.65,-0.104,0.743,0.066
34.66,-0.159,1.031,0.148
34.67,-0.286,0.826,-0.144
34.68,-0.255,1.12,-0.169
34.69,-0.111,1.045,0.071
34.7,-0.048,0.88,0.15
34.71,-0.274,0.853,0.002
34.72,-0.342,1.035,-0.116
34.73,-0.157,1.151,-0.057
34.74,-0.096,0.726,0.123
34.75,-0.121,1.103,0.115
34.76,-0.355,0.817,-0.204
34.77,-0.297,1.126,-0.081
34.78,-0.021,1.0,0.085
34.79,-0.103,0.866,0.134
34.8,-0.375,0.931,0.031
34.81,-0.175,0.976,-0.184
34.82,-0.16,1.198,-0.023
34.83,-0.246,0.693,0.216
34.84,-0.092,1.068,0.117
34.85,-0.395,0.845,-0.208
34.86,-0.252,1.104,-0.076
34.87,-0.059,1.04,0.085
34.88,-0.123,0.809,0.118
34.89,-0.297,1.021,-0.046
34.9,-0.27,0.905,-0.152
34.91,-0.154,1.244,-0.013
34.92,-0.165,0.775,0.157
34.93,-0.202,0.996,0.089
34.94,-0.283,0.883,-0.184
34.95,-0.237,1.137,-0.059
34.96,-0.15,0.963,0.09
34.97,-0.144,0.723,0.184
34.98,-0.285,1.113,-0.062
34.99,-0.361,0.85,-0.171
35.0,-0.096,1.204,0.009
35.01,-0.101,0.827,0.156
35.02,-0.154,0.978,0.063
35.03,-0.342,0.936,-0.205
35.04,-0.205,1.006,-0.04
35.05,-0.109,1.073,0.082
35.06,-0.084,0.632,0.134
35.07,-0.337,1.188,-0.014
35.08,-0.291,0.881,-0.204
35.09,-0.159,1.156,-0.033
35.1,-0.099,0.813,0.168
35.11,-0.109,0.912,0.056
35.12,-0.415,1.055,-0.175
35.13,-0.091,0.936,-0.058
35.14,-0.166,1.09,0.013
35.15,-0.043,0.672,0.211
35.16,-0.377,1.183,-0.076
35.17,-0.268,0.764,-0.206
35.18,-0.108,1.228,0.087
35.19,-0.127,0.852,0.124
35.2,-0.159,0.785,0.04
35.21,-0.385,1.214,-0.127
35.22,-0.148,0.896,-0.088
35.23,-0.194,1.12,0.1
35.24,-0.124,0.689,0.171
35.25,-0.332,1.148,-0.12
35.26,-0.226,0.831,-0.172
35.27,-0.167,1.196,0.027
35.28,-0.115,0.96,0.137
35.29,-0.121,0.758,0.018
35.3,-0.394,1.187,-0.195
35.31,-0.09,0.882,-0.065
35.32,-0.131,1.166,0.079
35.33,-0.17,0.649,0.203
35.34,-0.332,1.145,-0.088
35.35,-0.289,0.911,-0.171
35.36,-0.194,1.021,0.039
35.37,-0.073,1.005,0.156
35.38,-0.154,0.739,0.022
35.39,-0.506,1.213,-0.167
35.4,-0.234,0.987,0.152
35.41,-0.04,0.885,0.069
35.42,-0.475,0.917,-0.158
35.43,-0.248,1.232,-0.049
35.44,-0.036,0.923,0.084
35.45,-0.134,1.005,0.175
35.46,-0.261,0.719,-0.028
35.47,-0.325,1.247,-0.142
35.48,-0.166,0.871,0.0
35.49,-0.149,1.043,0.158
35.5,-0.128,0.811,0.031
35.51,-0.437,0.99,-0.158
35.52,-0.201,1.16,-0.063
35.53,-0.041,0.825,0.109
35.54,-0.199,0.976,0.159
35.55,-0.233,0.738,-0.047
35.56,-0.284,1.268,-0.182
35.57,-0.113,0.92,0.02
35.58,-0.158,0.99,0.177
35.59,-0.149,0.893,0.052
35.6,-0.455,0.926,-0.166
35.61,-0.274,1.194,-0.021
35.62,-0.034,0.848,0.08
35.63,-0.226,1.008,0.157
35.64,-0.268,0.779,-0.016
35.65,-0.294,1.223,-0.205
35.66,-0.146,0.897,-0.005
35.67,-0.032,0.924,0.17
35.68,-0.193,0.944,0.02
35.69,-0.442,0.876,-0.194
35.7,-0.098,1.268,-0.01
35.71,-0.169,0.796,0.104
35.72,-0.253,0.98,0.207
35.73,-0.16,0.848,-0.096
35.74,-0.318,1.119,-0.203
35.75,-0.151,0.955,0.068
35.76,-0.011,0.91,0.12
35.77,-0.225,1.003,0.027
35.78,-0.32,0.847,-0.174
35.79,-0.245,1.273,-0.053
35.8,-0.074,0.768,0.064
35.81,-0.199,1.012,0.206
35.82,-0.327,0.867,-0.116
35.83,-0.219,0.997,-0.198
35.84,-0.142,1.114,0.018
35.85,-0.053,0.777,0.147
35.86,-0.198,1.037,0.034
35.87,-0.344,0.863,-0.207
35.88,-0.186,1.229,-0.064
35.89,-0.106,0.772,0.032
35.9,-0.177,0.957,0.164
35.91,-0.312,0.962,-0.099
35.92,-0.302,0.903,-0.127
35.93,-0.138,1.153,0.059
35.94,-0.038,0.765,0.125
35.95,-0.184,1.078,0.042
35.96,-0.355,0.855,-0.206
35.97,-0.16,1.16,-0.061
35.98,-0.141,0.845,0.136
35.99,-0.073,0.894,0.148
36.0,-0.441,1.017,-0.11
36.01,-0.219,0.843,-0.129
36.02,-0.097,1.251,0.057
36.03,-0.135,0.706,0.159
36.04,-0.162,1.068,0.011
36.05,-0.364,0.927,-0.206
36.06,-0.2,1.094,-0.048
36.07,-0.165,0.867,0.122
36.08,-0.024,0.864,0.104
36.09,-0.388,1.098,-0.141
36.1,-0.278,0.777,-0.091
36.11,-0.102,1.289,0.04
36.12,-0.164,0.745,0.169
36.13,-0.25,1.018,0.066
36.14,-0.36,0.961,-0.215
36.15,-0.155,1.094,-0.043
36.16,-0.134,0.893,0.117
36.17,-0.111,0.778,0.161
36.18,-0.387,1.189,-0.175
36.19,-0.217,0.774,-0.109
36.2,-0.125,1.281,0.063
36.21,-0.112,0.716,0.147
36.22,-0.198,1.001,0.026
36.23,-0.4,1.048,-0.174
36.24,-0.15,1.022,-0.023
36.25,-0.143,0.962,0.103
36.26,-0.209,0.761,0.203
36.27,-0.397,1.184,-0.184
36.28,-0.216,0.826,-0.107
36.29,-0.088,1.268,0.06
36.3,-0.043,0.637,0.126
36.31,-0.41,1.062,0.034
36.32,-0.281,0.904,-0.214
36.33,-0.073,1.07,-0.006
36.34,-0.208,0.903,0.155
36.35,-0.122,0.809,0.097
36.36,-0.39,1.156,-0.227
36.37,-0.247,0.85,-0.028
36.38,-0.106,1.208,0.054
36.39,-0.019,0.665,0.156
36.4,-0.421,1.07,-0.007
36.41,-0.265,0.91,-0.22
36.42,-0.13,1.051,0.038
36.43,-0.157,1.071,0.108
36.44,-0.177,0.687,0.088
36.45,-0.412,1.215,-0.154
36.46,-0.162,0.887,-0.075
36.47,-0.123,1.195,0.07
36.48,-0.075,0.692,0.136
36.49,-0.35,1.046,-0.058
36.5,-0.295,0.974,-0.22
36.51,-0.056,0.98,0.024
36.52,-0.173,1.154,0.163
36.53,-0.133,0.661,0.057
36.54,-0.447,1.192,-0.151
36.55,-0.224,0.872,-0.042
36.56,-0.125,1.149,0.088
36.57,-0.108,0.722,0.151
36.58,-0.347,1.003,-0.072
36.59,-0.266,1.016,-0.225
36.6,-0.154,0.926,0.079
36.61,-0.097,1.128,0.136
36.62,-0.11,0.668,0.008
36.63,-0.449,1.26,-0.183
36.64,-0.117,0.938,-0.051
36.65,-0.177,1.096,0.086
36.66,-0.168,0.78,0.17
36.67,-0.335,0.954,-0.143
36.68,-0.276,1.079,-0.137
36.69,-0.05,0.893,0.059
36.7,-0.166,1.164,0.141
36.71,-0.108,0.607,0.033
36.72,-0.426,1.226,-0.196
36.73,-0.138,0.977,-0.049
36.74,-0.133,1.002,0.082
36.75,-0.164,0.843,0.166
36.76,-0.324,0.856,-0.104
36.77,-0.353,1.168,-0.113
36.78,-0.124,0.845,0.075
36.79,-0.13,1.19,0.145
36.8,-0.14,0.656,0.035
36.81,-0.449,1.152,-0.195
36.82,-0.092,1.031,-0.068
36.83,-0.125,0.917,0.117
36.84,-0.213,0.955,0.182
36.85,-0.273,0.83,-0.124
36.86,-0.343,1.198,-0.161
36.87,-0.035,0.862,0.091
36.88,-0.094,1.077,0.145
36.89,-0.276,0.719,-0.0
36.9,-0.337,1.121,-0.147
36.91,-0.073,1.084,-0.071
36.92,-0.117,0.841,0.102
36.93,-0.125,1.019,0.155
36.94,-0.293,0.803,-0.183
36.95,-0.329,1.2,-0.132
36.96,-0.065,0.926,0.098
36.97,-0.119,1.016,0.112
36.98,-0.216,0.792,0.014
36.99,-0.36,1.093,-0.136
37.0,-0.11,1.11,-0.077
37.01,-0.162,0.762,0.128
37.02,-0.073,1.086,0.126
37.03,-0.35,0.794,-0.172
37.04,-0.353,1.178,-0.136
37.05,0.002,0.973,0.1
37.06,-0.191,0.922,0.159
37.07,-0.277,0.838,-0.002
37.08,-0.282,1.066,-0.193
37.09,-0.178,1.12,-0.041
37.1,-0.125,0.894,0.18
37.11,-0.111,1.003,0.072
37.12,-0.41,0.789,-0.188
37.13,-0.221,1.264,-0.031
37.14,-0.051,0.894,0.054
37.15,-0.216,0.928,0.141
37.16,-0.216,0.862,0.005
37.17,-0.363,1.129,-0.209
37.18,-0.174,0.973,-0.027
37.19,-0.095,0.86,0.19
37.2,-0.086,1.079,0.054
37.21,-0.384,0.75,-0.199
37.22,-0.274,1.22,-0.055
37.23,-0.073,0.922,0.079
37.24,-0.192,0.925,0.196
37.25,-0.281,0.882,0.02
37.26,-0.312,1.04,-0.201
37.27,-0.1,1.117,-0.012
37.28,-0.238,0.774,0.19
37.29,-0.16,1.076,0.101
37.3,-0.291,0.805,-0.202
37.31,-0.23,1.198,-0.091
37.32,-0.143,0.955,0.085
37.33,-0.093,0.853,0.145
37.34,-0.351,0.941,-0.013
37.35,-0.298,0.965,-0.165
37.36,-0.133,1.172,-0.041
37.37,-0.192,0.719,0.18
37.38,-0.079,1.058,0.06
37.39,-0.339,0.867,-0.196
37.4,-0.238,1.092,-0.063
37.41,-0.082,0.967,0.077
37.42,-0.147,0.815,0.162
37.43,-0.301,1.038,-0.019
37.44,-0.327,0.895,-0.165
37.45,-0.176,1.177,0.009
37.46,-0.067,0.789,0.183
37.47,-0.25,1.022,0.09
37.48,-0.313,0.831,-0.211
37.49,-0.126,1.127,-0.1
37.5,-0.111,0.991,0.06
37.51,-0.108,0.736,0.174
37.52,-0.308,1.076,-0.022
37.53,-0.326,0.836,-0.213
37.54,-0.17,1.227,0.031
37.55,-0.19,0.753,0.141
37.56,-0.122,0.98,0.097
37.57,-0.334,0.979,-0.19
37.58,-0.253,0.99,-0.057
37.59,-0.059,1.083,0.053
37.6,-0.079,0.716,0.133
37.61,-0.432,1.101,0.0
37.62,-0.207,0.822,-0.17
37.63,-0.13,1.236,0.008
37.64,-0.272,0.769,0.163
37.65,-0.041,0.935,0.049
37.66,-0.432,1.016,-0.211
37.67,-0.251,0.883,-0.029
37.68,-0.05,1.188,0.061
37.69,-0.062,0.649,0.127
37.7,-0.393,1.128,-0.032
37.71,-0.235,0.854,-0.216
37.72,-0.109,1.115,-0.031
37.73,-0.21,0.807,0.212
37.74,-0.183,0.877,0.12
37.75,-0.452,1.092,-0.224
37.76,-0.196,0.863,-0.008
37.77,-0.092,1.191,0.084
37.78,-0.149,0.616,0.153
37.79,-0.339,1.146,-0.023
37.8,-0.2,0.924,-0.185
37.81,-0.177,1.113,-0.009
37.82,-0.096,0.886,0.165
37.83,-0.139,0.84,0.101
37.84,-0.487,1.168,-0.207
37.85,-0.185,0.846,-0.033
37.86,-0.104,1.241,0.062
37.87,-0.122,0.648,0.149
37.88,-0.309,1.088,-0.053
37.89,-0.218,0.912,-0.203
37.9,-0.178,1.094,0.045
37.91,-0.077,0.805,0.146
37.92,-0.198,0.871,0.027
37.93,-0.444,1.138,-0.212
37.94,-0.107,0.9,-0.091
37.95,-0.16,1.117,0.087
37.96,-0.094,0.677,0.182
37.97,-0.311,1.214,-0.148
37.98,-0.293,0.807,-0.14
37.99,-0.18,1.185,0.076
38.0,-0.042,0.902,0.092
38.01,-0.21,0.774,0.033
38.02,-0.413,1.218,-0.189
38.03,-0.114,0.922,-0.075
38.04,-0.237,1.059,0.125
38.05,-0.073,0.676,0.187
38.06,-0.388,1.167,-0.128
38.07,-0.326,0.8,-0.109
38.08,-0.148,1.137,0.06
38.09,-0.035,0.992,0.067
38.1,-0.179,0.699,0.013
38.11,-0.419,1.221,-0.188
38.12,-0.06,0.91,-0.06
38.13,-0.235,1.13,0.103
38.14,-0.057,0.687,0.2
38.15,-0.386,1.133,-0.151
38.16,-0.285,0.901,-0.125
38.17,-0.147,1.073,0.083
38.18,-0.053,1.008,0.075
38.19,-0.245,0.71,0.022
38.2,-0.458,1.255,-0.15
38.21,-0.019,0.853,-0.069
38.22,-0.239,1.145,0.084
38.23,-0.089,0.715,0.192
38.24,-0.348,1.082,-0.154
38.25,-0.269,0.953,-0.195
38.26,-0.045,1.01,0.107
38.27,-0.101,1.061,0.105
38.28,-0.243,0.669,0.028
38.29,-0.376,1.299,-0.159
38.3,-0.151,0.859,-0.023
38.31,-0.234,1.085,0.162
38.32,-0.011,0.786,0.121
38.33,-0.431,0.989,-0.145
38.34,-0.218,1.02,-0.131
38.35,-0.07,0.968,0.057
38.36,-0.145,1.027,0.153
38.37,-0.187,0.702,-0.001
38.38,-0.393,1.333,-0.162
38.39,-0.098,0.837,-0.054
38.4,-0.203,1.035,0.133
38.41,-0.09,0.856,0.155
38.42,-0.397,0.908,-0.168
38.43,-0.283,1.138,-0.11
38.44,-0.05,0.956,0.025
38.45,-0.089,1.036,0.133
38.46,-0.255,0.672,0.041
38.47,-0.335,1.3,-0.202
38.48,-0.069,0.894,-0.067
38.49,-0.253,0.941,0.186
38.5,-0.096,0.905,0.115
38.51,-0.369,0.875,-0.163
38.52,-0.274,1.176,-0.125
38.53,-0.043,0.902,0.082
38.54,-0.131,1.03,0.135
38.55,-0.248,0.692,-0.031
38.56,-0.337,1.226,-0.172
38.57,-0.077,0.977,-0.046
38.58,-0.203,0.914,0.17
38.59,-0.103,0.976,0.122
38.6,-0.404,0.794,-0.162
38.61,-0.255,1.208,-0.071
38.62,-0.036,0.906,0.082
38.63,-0.168,1.014,0.139
38.64,-0.225,0.77,-0.001
38.65,-0.364,1.21,-0.16
38.66,-0.099,0.997,-0.032
38.67,-0.123,0.855,0.141
38.68,-0.13,1.038,0.105
38.69,-0.365,0.79,-0.168
38.7,-0.257,1.224,-0.084
38.71,-0.037,0.915,0.047
38.72,-0.123,0.955,0.163
38.73,-0.268,0.781,-0.045
38.74,-0.337,1.208,-0.186
38.75,-0.134,0.926,0.008
38.76,-0.146,0.96,0.185
38.77,-0.136,0.956,0.079
38.78,-0.422,0.845,-0.167
38.79,-0.2,1.237,-0.053
38.8,-0.091,0.904,0.081
38.81,-0.233,0.948,0.154
38.82,-0.25,0.792,-0.001
38.83,-0.339,1.194,-0.19
38.84,-0.114,0.99,-0.021
38.85,-0.129,0.864,0.178
38.86,-0.234,0.98,0.082
38.87,-0.329,0.825,-0.219
38.88,-0.176,1.25,-0.051
38.89,-0.071,0.802,0.105
38.9,-0.186,0.967,0.167
38.91,-0.282,0.857,-0.06
38.92,-0.325,1.02,-0.139
38.93,-0.074,1.081,-0.023
38.94,-0.086,0.798,0.219
38.95,-0.26,1.056,0.058
38.96,-0.317,0.829,-0.215
38.97,-0.19,1.272,-0.045
38.98,-0.169,0.81,0.098
38.99,-0.111,0.896,0.148
39.0,-0.222,0.987,-0.103
39.01,-0.309,0.962,-0.145
39.02,-0.113,1.159,0.047
39.03,-0.062,0.75,0.158
39.04,-0.277,1.044,0.051
39.05,-0.333,0.859,-0.176
39.06,-0.125,1.228,-0.086
39.07,-0.152,0.804,0.058
39.08,-0.128,0.859,0.182
39.09,-0.319,1.053,-0.106
39.1,-0.273,0.854,-0.164
39.11,-0.14,1.234,0.066
39.12,-0.024,0.76,0.145
39.13,-0.307,1.024,0.043
39.14,-0.376,0.863,-0.157
39.15,-0.094,1.193,-0.062
39.16,-0.282,0.836,0.089
39.17,-0.021,0.809,0.212
39.18,-0.386,1.15,-0.141
39.19,-0.296,0.787,-0.148
39.2,-0.056,1.249,0.06
39.21,-0.042,0.742,0.116
39.22,-0.307,1.045,0.044
39.23,-0.329,0.898,-0.194
39.24,-0.117,1.114,-0.073
39.25,-0.215,0.944,0.129
39.26,-0.117,0.747,0.162
39.27,-0.387,1.145,-0.152
39.28,-0.231,0.794,-0.126
39.29,-0.128,1.312,0.069
39.3,-0.056,0.732,0.142
39.31,-0.269,0.951,0.009
39.32,-0.357,1.02,-0.154
39.33,-0.174,1.035,-0.031
39.34,-0.202,0.957,0.11
39.35,-0.053,0.762,0.184
39.36,-0.447,1.146,-0.175
39.37,-0.22,0.752,-0.122
39.38,-0.124,1.327,0.086
39.39,-0.072,0.732,0.093
39.4,-0.246,0.917,0.042
39.41,-0.339,1.118,-0.125
39.42,-0.154,0.969,-0.002
39.43,-0.207,1.032,0.137
39.44,-0.059,0.715,0.14
39.45,-0.507,1.193,-0.151
39.46,-0.239,0.761,-0.088
39.47,-0.088,1.307,0.06
39.48,-0.093,0.75,0.11
39.49,-0.299,0.853,0.022
39.5,-0.262,1.189,-0.222
39.51,-0.097,0.866,-0.023
39.52,-0.22,1.124,0.155
39.53,-0.057,0.684,0.101
39.54,-0.5,1.165,-0.176
39.55,-0.176,0.846,-0.017
39.56,-0.109,1.244,0.074
39.57,-0.157,0.641,0.177
39.58,-0.309,1.042,-0.002
39.59,-0.307,1.032,-0.24
39.6,-0.16,0.915,0.039
39.61,-0.107,1.055,0.161
39.62,-0.138,0.676,0.066
39.63,-0.517,1.2,-0.146
39.64,-0.122,0.885,-0.066
39.65,-0.135,1.2,0.066
39.66,-0.177,0.705,0.184
39.67,-0.198,0.94,-0.064
39.68,-0.332,1.087,-0.179
39.69,-0.13,0.921,0.027
39.7,-0.117,1.122,0.142
39.71,-0.075,0.663,0.039
39.72,-0.456,1.207,-0.164
39.73,-0.135,0.939,-0.038
39.74,-0.133,1.155,0.062
39.75,-0.143,0.788,0.132
39.76,-0.285,0.905,-0.038
39.77,-0.376,1.15,-0.193
39.78,-0.08,0.812,0.046
39.79,-0.066,1.207,0.175
39.8,-0.176,0.631,0.022
39.81,-0.45,1.152,-0.186
39.82,-0.111,0.992,0.021
39.83,-0.154,1.066,0.08
39.84,-0.147,0.829,0.106
39.85,-0.275,0.935,-0.084
39.86,-0.29,1.209,-0.126
39.87,-0.125,0.839,0.07
39.88,-0.037,1.147,0.122
39.89,-0.151,0.662,0.006
39.9,-0.459,1.176,-0.122
39.91,-0.11,1.012,-0.077
39.92,-0.19,0.881,0.069
39.93,-0.117,0.942,0.179
39.94,-0.31,0.857,-0.158
39.95,-0.315,1.218,-0.158
39.96,-0.066,0.849,0.109
39.97,-0.118,1.055,0.141
39.98,-0.206,0.733,-0.008
39.99,-0.389,1.219,-0.163
40.0,-0.14,0.988,-0.08
40.01,-0.15,0.882,0.185
40.02,-0.169,1.016,0.139
40.03,-0.348,0.729,-0.203
40.04,-0.25,1.213,-0.093
40.05,-0.095,0.924,0.05
40.06,-0.111,0.969,0.099
40.07,-0.214,0.791,0.014
40.08,-0.339,1.123,-0.164
40.09,-0.154,1.056,0.033
40.1,-0.169,0.8,0.174
40.11,-0.129,1.043,0.099
40.12,-0.38,0.753,-0.193
40.13,-0.243,1.253,-0.104
40.14,-0.051,0.937,0.073
40.15,-0.157,0.891,0.126
40.16,-0.256,0.899,0.005
40.17,-0.321,1.073,-0.206
40.18,-0.146,1.085,-0.06
40.19,-0.09,0.825,0.147
40.2,-0.175,1.069,0.053
40.21,-0.363,0.733,-0.164
40.22,-0.171,1.249,-0.015
40.23,-0.174,0.906,0.097
40.24,-0.198,0.781,0.162
40.25,-0.239,1.019,0.006
40.26,-0.326,0.963,-0.234
40.27,-0.18,1.103,0.044
40.28,-0.007,0.805,0.143
40.29,-0.225,1.045,0.048
40.3,-0.366,0.794,-0.18
40.31,-0.092,1.191,-0.083
40.32,-0.14,0.916,0.06
40.33,-0.162,0.806,0.178
40.34,-0.267,1.088,-0.096
40.35,-0.287,0.812,-0.186
40.36,-0.127,1.2,0.11
40.37,-0.084,0.813,0.134
40.38,-0.248,1.021,0.037
40.39,-0.377,0.9,-0.142
40.4,-0.182,1.233,-0.075
40.41,-0.138,0.708,0.082
40.42,-0.122,0.93,0.192
40.43,-0.424,1.035,-0.153
40.44,-0.224,0.811,-0.14
40.45,-0.081,1.284,0.074
40.46,-0.15,0.694,0.159
40.47,-0.287,1.074,0.024
40.48,-0.283,0.915,-0.197
40.49,-0.181,1.13,-0.034
40.5,-0.189,0.841,0.163
40.51,-0.032,0.875,0.097
40.52,-0.385,1.035,-0.168
40.53,-0.265,0.889,-0.065
40.54,-0.05,1.244,0.006
40.55,-0.153,0.606,0.17
40.56,-0.261,1.107,0.014
40.57,-0.382,0.966,-0.221
40.58,-0.146,0.995,-0.078
40.59,-0.114,0.943,0.129
40.6,-0.14,0.812,0.111
40.61,-0.414,1.083,-0.175
40.62,-0.164,0.866,-0.075
40.63,-0.109,1.311,0.028
40.64,-0.108,0.619,0.159
40.65,-0.292,1.059,-0.036
40.66,-0.299,0.994,-0.185
40.67,-0.129,0.986,-0.014
40.68,-0.185,0.957,0.188
40.69,-0.129,0.78,0.101
40.7,-0.437,1.141,-0.205
40.71,-0.226,0.812,-0.052
40.72,-0.096,1.354,0.082
40.73,-0.047,0.604,0.086
40.74,-0.362,1.049,0.066
40.75,-0.285,1.058,-0.232
40.76,-0.132,0.906,-0.026
40.77,-0.185,1.038,0.187
40.78,-0.089,0.696,0.064
40.79,-0.449,1.175,-0.183
40.8,-0.188,0.849,0.003
40.81,-0.075,1.217,0.036
40.82,-0.095,0.696,0.142
40.83,-0.292,1.013,0.001
40.84,-0.331,1.1,-0.198
40.85,-0.202,0.866,0.048
40.86,-0.113,1.154,0.141
40.87,-0.066,0.667,0.062
40.88,-0.424,1.199,-0.225
40.89,-0.143,0.87,-0.029
40.9,-0.125,1.132,0.081
40.91,-0.205,0.825,0.175
40.92,-0.262,0.887,-0.079
40.93,-0.347,1.069,-0.203
40.94,-0.114,0.864,0.081
40.95,-0.176,1.225,0.135
40.96,-0.12,0.616,0.086
40.97,-0.415,1.231,-0.191
40.98,-0.148,0.96,-0.101
40.99,-0.141,1.033,0.055
41.0,-0.131,0.863,0.157
41.01,-0.26,0.857,-0.11
41.02,-0.429,1.128,-0.14
41.03,-0.066,0.876,0.077
41.04,-0.129,1.186,0.1
41.05,-0.207,0.624,0.051
41.06,-0.409,1.191,-0.195
41.07,-0.056,1.05,-0.102
41.08,-0.12,0.885,0.087
41.09,-0.14,0.943,0.158
41.1,-0.258,0.839,-0.133
41.11,-0.373,1.165,-0.118
41.12,-0.046,0.862,0.095
41.13,-0.137,1.168,0.134
41.14,-0.228,0.645,0.027
41.15,-0.436,1.198,-0.158
41.16,-0.164,1.056,-0.072
41.17,-0.214,0.998,0.232
41.18,-0.066,0.891,0.128
41.19,-0.447,0.866,-0.141
41.2,-0.333,1.127,-0.078
41.21,0.063,0.966,0.058
41.22,-0.175,1.036,0.095
41.23,-0.2,0.684,0.029
41.24,-0.366,1.278,-0.205
41.25,-0.135,0.883,-0.027
41.26,-0.243,0.948,0.191
41.27,0.028,0.957,0.087
41.28,-0.46,0.846,-0.199
41.29,-0.151,1.167,-0.117
41.3,0.006,0.951,0.029
41.31,-0.15,0.998,0.118
41.32,-0.271,0.695,0.03
41.33,-0.298,1.268,-0.23
41.34,-0.144,0.942,-0.01
41.35,-0.172,0.922,0.198
41.36,-0.099,0.958,0.084
41.37,-0.445,0.818,-0.201
41.38,-0.069,1.264,-0.083
41.39,-0.125,0.85,0.025
41.4,-0.155,0.967,0.172
41.41,-0.154,0.837,-0.099
41.42,-0.371,1.107,-0.154
41.43,-0.141,1.045,0.019
41.44,-0.196,0.926,0.208
41.45,-0.111,0.947,0.079
41.46,-0.423,0.842,-0.172
41.47,-0.158,1.263,-0.08
41.48,-0.046,0.805,0.03
41.49,-0.168,0.938,0.12
41.5,-0.303,0.877,-0.042
41.51,-0.246,1.014,-0.181
41.52,-0.173,1.128,0.065
41.53,-0.158,0.81,0.176
41.54,-0.17,0.992,0.037
41.55,-0.379,0.849,-0.194
41.56,-0.146,1.267,-0.058
41.57,-0.062,0.772,0.072
41.58,-0.167,0.934,0.165
41.59,-0.31,0.955,-0.068
41.6,-0.332,0.925,-0.153
41.61,-0.122,1.153,0.027
41.62,-0.098,0.798,0.169
41.63,-0.245,1.027,0.033
41.64,-0.348,0.831,-0.188
41.65,-0.13,1.199,-0.078
41.66,-0.118,0.809,0.094
41.67,-0.197,0.884,0.164
41.68,-0.26,1.054,-0.152
41.69,-0.275,0.826,-0.191
41.7,-0.111,1.272,0.114
41.71,-0.06,0.715,0.157
41.72,-0.248,1.012,-0.002
41.73,-0.413,0.921,-0.151
41.74,-0.092,1.159,-0.097
41.75,-0.138,0.849,0.065
41.76,-0.165,0.796,0.138
41.77,-0.3,1.089,-0.158
41.78,-0.207,0.809,-0.148
41.79,-0.205,1.262,0.091
41.8,0.007,0.696,0.144
41.81,-0.256,1.029,0.012
41.82,-0.406,0.944,-0.16
41.83,-0.132,1.106,-0.056
41.84,-0.135,0.922,0.101
41.85,-0.108,0.804,0.204
41.86,-0.37,1.185,-0.176
41.87,-0.29,0.763,-0.119
41.88,-0.041,1.312,0.071
41.89,-0.049,0.699,0.127
41.9,-0.327,0.977,-0.012
41.91,-0.332,1.057,-0.149
41.92,-0.084,1.003,-0.004
41.93,-0.222,0.982,0.124
41.94,-0.136,0.724,0.12
41.95,-0.413,1.162,-0.192
41.96,-0.215,0.817,-0.088
41.97,-0.116,1.281,0.095
41.98,-0.09,0.662,0.119
41.99,-0.346,1.121,-0.01
42.0,-0.323,0.9,-0.228
42.01,-0.114,1.028,0.032
42.02,-0.152,0.983,0.17
42.03,-0.087,0.822,0.065
42.04,-0.439,1.123,-0.185
42.05,-0.176,0.834,-0.001
42.06,-0.03,1.25,0.061
42.07,-0.177,0.67,0.162
42.08,-0.366,1.061,-0.016
42.09,-0.229,0.973,-0.222
42.1,-0.133,1.069,0.021
42.11,-0.153,1.024,0.21
42.12,-0.152,0.687,0.035
42.13,-0.477,1.203,-0.188
42.14,-0.026,0.899,-0.018
42.15,-0.116,1.188,0.076
42.16,-0.184,0.69,0.148
42.17,-0.273,1.085,-0.07
42.18,-0.338,1.014,-0.186
42.19,-0.132,0.947,0.055
42.2,-0.125,1.084,0.164
42.21,-0.141,0.636,0.035
42.22,-0.493,1.245,-0.18
42.23,-0.029,0.878,-0.02
42.24,-0.143,1.162,0.113
42.25,-0.174,0.751,0.208
42.26,-0.386,1.019,-0.102
42.27,-0.186,1.033,-0.202
42.28,-0.134,0.966,0.084
42.29,-0.139,1.074,0.125
42.3,-0.135,0.67,0.014
42.31,-0.491,1.282,-0.175
42.32,-0.042,0.868,-0.019
42.33,-0.136,1.101,0.12
42.34,-0.152,0.791,0.145
42.35,-0.373,0.96,-0.144
42.36,-0.239,1.123,-0.173
42.37,-0.084,0.911,0.137
42.38,-0.172,1.074,0.139
42.39,-0.188,0.645,-0.021
42.4,-0.429,1.315,-0.159
42.41,-0.137,0.903,0.014
42.42,-0.172,0.988,0.101
42.43,-0.104,0.892,0.131
42.44,-0.441,0.9,-0.183
42.45,-0.241,1.158,-0.077
42.46,-0.02,0.919,0.115
42.47,-0.172,1.022,0.159
42.48,-0.222,0.704,-0.006
42.49,-0.332,1.272,-0.175
42.5,-0.144,0.919,0.034
42.51,-0.195,0.947,0.177
42.52,-0.111,0.94,0.044
42.53,-0.384,0.895,-0.16
42.54,-0.309,1.234,-0.038
42.55,-0.056,0.798,0.074
42.56,-0.126,0.982,0.133
42.57,-0.295,0.756,-0.054
42.58,-0.314,1.16,-0.171
42.59,-0.043,1.024,0.029
42.6,-0.197,0.881,0.188
42.61,-0.106,1.002,0.071
42.62,-0.411,0.904,-0.226
42.63,-0.245,1.267,-0.019
42.64,-0.057,0.861,0.072
42.65,-0.154,0.973,0.128
42.66,-0.299,0.819,-0.076
42.67,-0.292,1.114,-0.184
42.68,-0.149,1.077,0.025
42.69,-0.172,0.801,0.159
42.7,-0.139,0.999,0.006
42.71,-0.431,0.886,-0.189
42.72,-0.135,1.252,-0.005
42.73,-0.079,0.764,0.151
42.74,-0.236,0.967,0.142
42.75,-0.255,0.931,-0.154
42.76,-0.224,0.995,-0.131
42.77,-0.128,1.155,0.14
42.78,-0.152,0.72,0.123
42.79,-0.256,1.033,-0.055
42.8,-0.275,0.95,-0.18
42.81,-0.098,1.243,-0.011
42.82,-0.199,0.703,0.206
42.83,-0.105,1.039,0.08
42.84,-0.377,0.893,-0.209
42.85,-0.18,1.051,-0.043
42.86,-0.083,1.036,0.052
42.87,-0.147,0.735,0.14
42.88,-0.338,1.08,-0.06
42.89,-0.307,0.857,-0.183
42.9,-0.161,1.21,0.051
42.91,-0.104,0.754,0.136
42.92,-0.127,1.001,0.034
42.93,-0.372,0.961,-0.226
42.94,-0.159,0.987,-0.047
42.95,-0.084,0.975,0.063
42.96,-0.103,0.737,0.183
42.97,-0.486,1.125,-0.095
42.98,-0.206,0.746,-0.18
42.99,-0.089,1.269,0.104
43.0,-0.253,0.728,0.198
43.01,-0.137,0.922,0.031
43.02,-0.433,1.136,-0.203
43.03,-0.089,0.967,-0.042
43.04,-0.165,1.046,0.115
43.05,-0.138,0.694,0.156
43.06,-0.45,1.18,-0.182
43.07,-0.179,0.808,-0.118
43.08,-0.083,1.289,0.115
43.09,-0.173,0.727,0.148
43.1,-0.286,0.878,-0.009
43.11,-0.317,1.164,-0.235
43.12,-0.066,0.866,0.024
43.13,-0.199,1.161,0.165
43.14,-0.072,0.667,0.049
43.15,-0.491,1.198,-0.195
43.16,-0.056,0.897,-0.023
43.17,-0.158,1.161,0.062
43.18,-0.177,0.749,0.148
43.19,-0.221,0.912,-0.068
43.2,-0.343,1.167,-0.198
43.21,-0.145,0.86,0.123
43.22,-0.102,1.154,0.107
43.23,-0.168,0.628,-0.014
43.24,-0.415,1.27,-0.182
43.25,-0.09,0.932,-0.063
43.26,-0.206,0.949,0.112
43.27,-0.046,0.896,0.134
43.28,-0.398,0.833,-0.16
43.29,-0.276,1.15,-0.129
43.3,0.014,0.944,0.053
43.31,-0.144,1.025,0.122
43.32,-0.164,0.659,0.037
43.33,-0.334,1.293,-0.213
43.34,-0.08,0.913,-0.071
43.35,-0.167,0.921,0.158
43.36,-0.116,0.959,0.111
43.37,-0.396,0.814,-0.219
43.38,-0.212,1.222,-0.056
43.39,-0.018,0.926,0.072
43.4,-0.186,0.943,0.105
43.41,-0.215,0.75,-0.013
43.42,-0.344,1.219,-0.202
43.43,-0.048,0.99,0.031
43.44,-0.151,0.866,0.2
43.45,-0.174,0.985,0.023
43.46,-0.367,0.791,-0.23
43.47,-0.141,1.272,-0.032
43.48,-0.069,0.858,0.113
43.49,-0.26,0.931,0.184
43.5,-0.208,0.887,-0.096
43.51,-0.29,1.091,-0.198
43.52,-0.095,1.062,0.081
43.53,-0.044,0.804,0.139
43.54,-0.296,1.033,0.001
43.55,-0.432,0.864,-0.136
43.56,-0.144,1.258,-0.051
43.57,-0.15,0.731,0.13
43.58,-0.119,0.977,0.155
43.59,-0.378,0.953,-0.169
43.6,-0.219,0.98,-0.062
43.61,-0.098,1.22,0.122
43.62,-0.14,0.72,0.106
43.63,-0.284,1.02,-0.004
43.64,-0.282,0.968,-0.225
43.65,-0.107,1.182,0.026
43.66,-0.219,0.777,0.211
43.67,-0.176,0.99,0.065
43.68,-0.407,0.896,-0.21
43.69,-0.182,1.137,-0.013
43.7,-0.105,0.98,0.037
43.71,-0.138,0.698,0.167
43.72,-0.347,1.135,-0.066
43.73,-0.302,0.852,-0.168
43.74,-0.235,1.018,0.137
43.75,-0.293,0.71,0.003
43.76,-0.325,1.317,-0.242
43.77,-0.068,0.854,0.008
43.78,-0.184,1.119,0.198
43.79,-0.156,0.761,0.004
43.8,-0.417,0.995,-0.178
43.81,-0.116,1.152,-0.023
43.82,-0.135,0.866,0.098
43.83,-0.228,1.003,0.136
43.84,-0.224,0.739,-0.128
43.85,-0.397,1.241,-0.128
43.86,-0.136,0.881,0.135
43.87,-0.101,1.018,0.115
43.88,-0.229,0.792,-0.041
43.89,-0.363,1.06,-0.13
43.9,-0.132,1.153,-0.064
43.91,-0.124,0.743,0.13
43.92,-0.172,1.091,0.14
43.93,-0.354,0.777,-0.191
43.94,-0.281,1.177,-0.046
43.95,0.012,0.994,0.081
43.96,-0.181,0.83,0.166
43.97,-0.227,0.916,0.019
43.98,-0.378,1.044,-0.185
43.99,-0.126,1.142,0.004
44.0,-0.11,0.833,0.2
44.01,-0.21,1.018,0.038
44.02,-0.38,0.787,-0.183
44.03,-0.194,1.234,-0.059
44.04,-0.147,0.903,0.068
44.05,-0.108,0.761,0.17
44.06,-0.303,1.056,-0.073
44.07,-0.344,0.889,-0.157
44.08,-0.08,1.156,0.045
44.09,-0.153,0.788,0.143
44.1,-0.13,1.009,0.017
44.11,-0.396,0.926,-0.203
44.12,-0.136,1.161,-0.084
44.13,-0.074,0.843,0.077
44.14,-0.139,0.811,0.205
44.15,-0.361,1.137,-0.148
44.16,-0.244,0.788,-0.144
44.17,-0.062,1.298,0.065
44.18,-0.115,0.631,0.127
44.19,-0.307,1.015,0.041
44.2,-0.342,1.012,-0.242
44.21,-0.096,0.989,-0.015
44.22,-0.197,0.987,0.168
44.23,-0.088,0.736,0.095
44.24,-0.475,1.15,-0.17
44.25,-0.19,0.862,-0.035
44.26,-0.116,1.267,0.062
44.27,-0.103,0.635,0.143
44.28,-0.298,1.039,-0.06
44.29,-0.327,1.022,-0.21
44.3,-0.139,0.984,0.049
44.31,-0.085,1.081,0.105
44.32,-0.12,0.669,0.039
44.33,-0.448,1.268,-0.205
44.34,-0.141,0.903,-0.045
44.35,-0.179,1.104,0.115
44.36,-0.102,0.759,0.174
44.37,-0.341,1.01,-0.145
44.38,-0.208,0.849,-0.126
44.39,-0.055,1.225,0.074
44.4,-0.151,0.866,0.102
44.41,-0.187,0.729,0.013
44.42,-0.415,1.323,-0.165
44.43,-0.128,0.788,-0.015
44.44,-0.156,1.176,0.124
44.45,-0.079,0.705,0.09
44.46,-0.467,1.07,-0.187
44.47,-0.215,0.975,-0.013
44.48,-0.109,1.019,0.103
44.49,-0.176,0.884,0.159
44.5,-0.254,0.746,0.006
44.51,-0.435,1.297,-0.191
44.52,-0.019,0.809,-0.002
44.53,-0.142,1.214,0.152
44.54,-0.214,0.672,0.069
44.55,-0.385,1.079,-0.178
44.56,-0.083,1.101,-0.141
44.57,-0.073,0.872,0.089
44.58,-0.186,0.983,0.161
44.59,-0.285,0.752,-0.13
44.6,-0.323,1.181,-0.153
44.61,-0.062,0.944,0.146
44.62,-0.202,1.065,0.075
44.63,-0.179,0.715,0.01
44.64,-0.43,1.134,-0.119
44.65,-0.144,1.105,-0.076
44.66,-0.138,0.775,0.154
44.67,-0.139,1.089,0.161
44.68,-0.377,0.708,-0.148
44.69,-0.284,1.183,-0.088
44.7,-0.026,0.972,0.09
44.71,-0.161,0.892,0.09
44.72,-0.199,0.825,-0.004
44.73,-0.329,1.104,-0.224
44.74,-0.072,1.082,-0.069
44.75,-0.067,0.805,0.185
44.76,-0.187,1.039,0.046
44.77,-0.4,0.76,-0.176
44.78,-0.183,1.274,-0.048
44.79,-0.09,0.924,0.089
44.8,-0.221,0.769,0.175
44.81,-0.169,0.988,-0.071
44.82,-0.37,0.955,-0.192
44.83,-0.173,1.143,0.061
44.84,-0.007,0.812,0.161
44.85,-0.249,1.006,0.048
44.86,-0.394,0.847,-0.153
44.87,-0.137,1.226,-0.049
44.88,-0.174,0.866,0.092
44.89,-0.125,0.848,0.21
44.9,-0.284,1.101,-0.159
44.91,-0.31,0.821,-0.161
44.92,-0.04,1.274,0.073
44.93,-0.114,0.727,0.141
44.94,-0.299,1.012,0.065
44.95,-0.306,0.956,-0.196
44.96,-0.215,1.091,-0.021
44.97,-0.136,0.879,0.095
44.98,-0.083,0.819,0.171
44.99,-0.448,1.097,-0.163
45.0,-0.235,0.801,-0.085
45.01,-0.075,1.359,0.037
45.02,-0.11,0.62,0.106
45.03,-0.268,1.001,0.028
45.04,-0.275,1.058,-0.213
45.05,-0.07,1.007,-0.082
45.06,-0.197,0.966,0.179
45.07,-0.082,0.775,0.091
45.08,-0.479,1.157,-0.176
45.09,-0.26,0.843,-0.006
45.1,-0.104,1.275,0.075
45.11,-0.093,0.645,0.15
45.12,-0.313,1.028,0.039
45.13,-0.359,1.049,-0.236
45.14,-0.057,0.886,-0.005
45.15,-0.133,1.129,0.13
45.16,-0.147,0.661,0.063
45.17,-0.415,1.201,-0.175
45.18,-0.1,0.907,-0.044
45.19,-0.125,1.134,0.064
45.2,-0.099,0.665,0.181
45.21,-0.323,1.139,-0.081
45.22,-0.333,0.872,-0.206
45.23,-0.151,1.07,0.086
45.24,-0.046,0.985,0.097
45.25,-0.233,0.689,0.035
45.26,-0.44,1.216,-0.179
45.27,-0.043,0.889,-0.087
45.28,-0.227,1.085,0.128
45.29,-0.092,0.735,0.223
45.3,-0.36,1.116,-0.174
45.31,-0.29,0.875,-0.155
45.32,-0.013,1.146,0.09
45.33,-0.158,1.002,0.119
45.34,-0.226,0.671,0.003
45.35,-0.367,1.337,-0.156
45.36,-0.172,0.849,-0.058
45.37,-0.219,1.075,0.137
45.38,-0.011,0.779,0.135
45.39,-0.469,1.004,-0.188
45.4,-0.196,0.993,-0.065
45.41,0.007,1.079,0.081
45.42,-0.245,0.891,0.117
45.43,-0.18,0.691,0.015
45.44,-0.357,1.401,-0.211
45.45,-0.167,0.735,-0.005
45.46,-0.159,1.072,0.205
45.47,-0.068,0.798,0.094
45.48,-0.508,0.966,-0.176
45.49,-0.135,1.072,-0.113
45.5,-0.05,0.963,0.094
45.51,-0.165,0.953,0.133
45.52,-0.265,0.719,-0.02
45.53,-0.394,1.309,-0.239
45.54,-0.121,0.833,0.012
45.55,-0.192,1.137,0.205
45.56,-0.136,0.794,0.029
45.57,-0.371,0.961,-0.152
45.58,-0.138,1.25,-0.011
45.59,-0.102,0.821,0.06
45.6,-0.208,0.997,0.121
45.61,-0.22,0.773,-0.063
45.62,-0.393,1.224,-0.154
45.63,-0.159,0.853,0.062
45.64,-0.036,1.033,0.123
45.65,-0.204,0.847,0.001
45.66,-0.454,0.913,-0.127
45.67,-0.101,1.247,-0.053
45.68,-0.093,0.74,0.04
45.69,-0.172,1.049,0.154
45.7,-0.288,0.779,-0.169
45.71,-0.257,1.092,-0.17
45.72,-0.063,1.019,0.118
45.73,-0.137,0.869,0.161
45.74,-0.309,0.927,0.042
45.75,-0.314,0.965,-0.154
45.76,-0.157,1.202,-0.006
45.77,-0.131,0.723,0.145
45.78,-0.137,1.06,0.14
45.79,-0.346,0.846,-0.172
45.8,-0.335,1.097,-0.116
45.81,0.011,1.074,0.06
45.82,-0.132,0.754,0.116
45.83,-0.286,1.004,0.005
45.84,-0.308,0.94,-0.205
45.85,-0.109,1.181,-0.015
45.86,-0.271,0.758,0.215
45.87,-0.088,1.026,0.069
45.88,-0.364,0.863,-0.236
45.89,-0.193,1.043,-0.058
45.9,-0.063,1.081,0.07
45.91,-0.095,0.69,0.138
45.92,-0.356,1.095,0.013
45.93,-0.282,0.874,-0.182
45.94,-0.17,1.214,0.002
45.95,-0.103,0.783,0.121
45.96,-0.104,0.943,0.007
45.97,-0.364,1.012,-0.195
45.98,-0.164,1.009,-0.018
45.99,-0.112,1.066,0.074
46.0,-0.174,0.693,0.16
46.01,-0.354,1.106,-0.127
46.02,-0.24,0.804,-0.199
46.03,-0.125,1.271,0.113
46.04,-0.014,0.667,0.094
46.05,-0.308,1.031,0.018
46.06,-0.41,0.986,-0.159
46.07,-0.097,1.075,-0.058
46.08,-0.114,0.894,0.09
46.09,-0.008,0.814,0.139
46.1,-0.438,1.165,-0.178
46.11,-0.254,0.775,-0.07
46.12,-0.01,1.322,0.075
46.13,-0.147,0.684,0.138
46.14,-0.394,1.009,0.036
46.15,-0.241,1.006,-0.212
46.16,-0.16,1.005,-0.014
46.17,-0.158,1.023,0.172
46.18,-0.035,0.733,0.082
46.19,-0.488,1.163,-0.162
46.2,-0.136,0.855,-0.016
46.21,-0.133,1.214,0.082
46.22,-0.194,0.654,0.171
46.23,-0.267,1.004,-0.043
46.24,-0.293,1.03,-0.209
46.25,-0.185,0.947,0.051
46.26,-0.068,1.09,0.123
46.27,-0.115,0.648,0.038
46.28,-0.462,1.259,-0.156
46.29,-0.012,0.892,-0.099
46.3,-0.135,1.082,0.048
46.31,-0.183,0.812,0.215
46.32,-0.297,0.963,-0.137
46.33,-0.31,1.039,-0.161
46.34,-0.16,0.999,0.136
46.35,-0.106,1.105,0.104
46.36,-0.205,0.605,-0.008
46.37,-0.433,1.289,-0.162
46.38,-0.026,0.907,-0.089
46.39,-0.135,1.043,0.072
46.4,-0.132,0.836,0.195
46.41,-0.315,0.95,-0.156
46.42,-0.322,1.12,-0.171
46.43,-0.03,0.934,0.093
46.44,-0.116,1.069,0.134
46.45,-0.274,0.672,0.057
46.46,-0.411,1.314,-0.171
46.47,-0.07,0.911,-0.038
46.48,-0.288,0.984,0.183
46.49,-0.05,0.897,0.158
46.5,-0.382,0.887,-0.211
46.51,-0.279,1.101,-0.113
46.52,0.013,0.946,0.108
46.53,-0.155,1.068,0.102
46.54,-0.253,0.663,0.008
46.55,-0.36,1.276,-0.152
46.56,-0.105,0.945,-0.017
46.57,-0.228,0.91,0.143
46.58,-0.023,0.943,0.116
46.59,-0.473,0.837,-0.229
46.6,-0.168,1.191,-0.043
46.61,0.014,0.928,0.102
46.62,-0.279,0.966,0.159
46.63,-0.194,0.744,-0.021
46.64,-0.311,1.24,-0.208
46.65,-0.184,0.971,0.013
46.66,-0.104,0.874,0.172
46.67,-0.073,0.969,-0.019
46.68,-0.485,0.814,-0.177
46.69,-0.036,1.267,-0.018
46.7,-0.074,0.886,0.067
46.71,-0.317,0.909,0.198
46.72,-0.118,0.873,-0.037
46.73,-0.398,1.149,-0.204
46.74,-0.12,1.006,0.055
46.75,0.063,0.883,0.115
46.76,-0.359,0.97,-0.023
46.77,-0.333,0.828,-0.154
46.78,-0.023,1.319,-0.054
46.79,-0.233,0.714,0.126
46.8,-0.138,0.955,0.204
46.81,-0.263,0.949,-0.181
46.82,-0.314,1.071,-0.106
46.83,-0.006,1.09,0.09
46.84,-0.113,0.786,0.107
46.85,-0.369,0.941,0.062
46.86,-0.204,0.988,-0.177
46.87,-0.136,1.217,-0.039
46.88,-0.231,0.626,0.222
46.89,0.034,1.043,0.078
46.9,-0.442,0.874,-0.221
46.91,-0.289,1.053,-0.008
46.92,0.013,1.087,0.047
46.93,-0.206,0.692,0.107
46.94,-0.308,1.077,0.03
46.95,-0.255,0.935,-0.254
46.96,-0.216,1.154,0.031
46.97,-0.068,0.81,0.207
46.98,-0.136,0.99,0.039
46.99,-0.455,0.887,-0.205
47.0,-0.061,1.038,-0.035
47.01,-0.165,1.044,0.098
47.02,-0.182,0.669,0.193
47.03,-0.307,1.156,-0.074
47.04,-0.303,0.799,-0.196
47.05,-0.17,1.236,0.072
47.06,0.003,0.79,0.129
47.07,-0.248,0.938,0.003
47.08,-0.39,1.021,-0.166
47.09,-0.062,1.025,-0.022
47.1,-0.228,1.004,0.073
47.11,-0.11,0.69,0.18
47.12,-0.334,1.192,-0.177
47.13,-0.251,0.78,-0.138
47.14,-0.128,1.283,0.139
47.15,-0.089,0.769,0.099
47.16,-0.284,0.871,0.024
47.17,-0.369,1.173,-0.18
47.18,-0.061,0.919,-0.035
47.19,-0.321,1.077,0.17
47.2,0.015,0.711,0.139
47.21,-0.457,1.192,-0.19
47.22,-0.273,0.836,-0.064
47.23,-0.052,1.229,0.067
47.24,-0.136,0.772,0.097
47.25,-0.294,0.873,0.052
47.26,-0.385,1.187,-0.223
47.27,-0.059,0.819,-0.045
47.28,-0.145,1.153,0.166
47.29,-0.011,0.635,0.054
47.3,-0.509,1.188,-0.177
47.31,-0.141,0.899,-0.048
47.32,-0.089,1.111,0.059
47.33,-0.181,0.807,0.167
47.34,-0.267,0.832,-0.026
47.35,-0.303,1.211,-0.203
47.36,-0.084,0.825,-0.007
47.37,-0.142,1.19,0.145
47.38,-0.028,0.64,0.026
47.39,-0.546,1.223,-0.15
47.4,-0.025,0.987,-0.054
47.41,-0.175,1.014,0.08
47.42,-0.198,0.88,0.168
47.43,-0.232,0.822,-0.099
47.44,-0.353,1.186,-0.164
47.45,-0.077,0.908,0.108
47.46,-0.061,1.18,0.112
47.47,-0.227,0.633,0.043
47.48,-0.404,1.145,-0.137
47.49,-0.054,1.064,-0.06
47.5,-0.201,0.881,0.139
47.51,-0.165,0.993,0.178
47.52,-0.297,0.846,-0.172
47.53,-0.344,1.156,-0.18
47.54,-0.025,0.902,0.11
47.55,-0.098,1.084,0.109
47.56,-0.257,0.711,0.009
47.57,-0.379,1.144,-0.102
47.58,-0.135,1.087,-0.055
47.59,-0.246,0.789,0.16
47.6,-0.046,1.053,0.134
47.61,-0.308,0.762,-0.238
47.62,-0.356,1.167,-0.05
47.63,0.012,0.973,0.065
47.64,-0.232,0.957,0.139
47.65,-0.206,0.713,0.032
47.66,-0.282,1.279,-0.228
47.67,-0.233,0.954,-0.005
47.68,-0.051,0.961,0.138
47.69,-0.106,0.939,0.066
47.7,-0.458,0.83,-0.186
47.71,-0.178,1.249,-0.063
47.72,-0.054,0.845,0.08
47.73,-0.225,0.975,0.153
47.74,-0.236,0.817,-0.03
47.75,-0.262,1.142,-0.205
47.76,-0.188,1.001,0.048
47.77,-0.112,0.9,0.166
47.78,-0.16,0.999,0.064
47.79,-0.415,0.829,-0.178
47.8,-0.175,1.257,-0.081
47.81,0.007,0.792,0.073
47.82,-0.141,1.015,0.175
47.83,-0.368,0.871,-0.039
47.84,-0.281,1.038,-0.17
47.85,-0.159,1.087,0.039
47.86,-0.029,0.843,0.134
47.87,-0.179,1.025,0.007
47.88,-0.386,0.852,-0.186
47.89,-0.137,1.253,-0.088
47.9,-0.092,0.769,0.097
47.91,-0.264,0.94,0.193
47.92,-0.254,0.952,-0.144
47.93,-0.291,0.939,-0.157
47.94,-0.203,1.122,0.129
47.95,0.0,0.777,0.136
47.96,-0.25,1.066,-0.012
47.97,-0.389,0.857,-0.165
47.98,-0.114,1.205,-0.049
47.99,-0.163,0.829,0.109
48.0,-0.118,0.912,0.163
48.01,-0.335,1.002,-0.136
48.02,-0.276,0.918,-0.093
48.03,-0.063,1.225,0.054
48.04,-0.154,0.661,0.146
48.05,-0.303,1.085,0.035
48.06,-0.362,0.945,-0.189
48.07,-0.154,1.083,-0.009
48.08,-0.23,0.894,0.21
48.09,-0.089,0.865,0.117
48.1,-0.383,1.011,-0.167
48.11,-0.235,0.892,-0.028
48.12,-0.042,1.306,0.037
48.13,-0.11,0.609,0.137
48.14,-0.387,1.065,0.022
48.15,-0.272,0.947,-0.243
48.16,-0.137,1.11,-0.003
48.17,-0.246,0.883,0.184
48.18,-0.011,0.783,0.084
48.19,-0.524,1.149,-0.174
48.2,-0.152,0.834,-0.017
48.21,-0.071,1.266,0.024
48.22,-0.194,0.635,0.138
48.23,-0.244,1.118,-0.02
48.24,-0.257,0.965,-0.242
48.25,-0.135,0.976,0.034
48.26,-0.111,1.014,0.186
48.27,-0.122,0.741,0.043
48.28,-0.561,1.164,-0.196
48.29,-0.006,0.87,-0.021
48.3,-0.1,1.228,0.068
48.31,-0.241,0.66,0.176
48.32,-0.188,1.118,-0.095
48.33,-0.278,0.993,-0.221
