t,ax,ay,az
0.0,-0.095,0.669,0.059
0.01,-0.427,1.038,-0.159
0.02,-0.135,1.175,-0.047
0.03,-0.087,0.888,0.055
0.04,-0.132,0.973,0.164
0.05,-0.252,0.707,-0.083
0.06,-0.372,1.262,-0.183
0.07,-0.083,0.868,0.08
0.08,-0.133,1.122,0.151
0.09,-0.126,0.734,0.034
0.1,-0.461,1.03,-0.134
0.11,-0.149,1.14,-0.018
0.12,-0.115,0.807,0.109
0.13,-0.204,1.027,0.119
0.14,-0.227,0.773,-0.124
0.15,-0.345,1.241,-0.154
0.16,-0.102,0.907,0.102
0.17,-0.091,0.976,0.143
0.18,-0.202,0.81,-0.012
0.19,-0.442,1.038,-0.115
0.2,-0.07,1.181,-0.075
0.21,-0.176,0.709,0.102
0.22,-0.119,1.099,0.126
0.23,-0.304,0.806,-0.194
0.24,-0.379,1.218,-0.076
0.25,-0.004,0.962,0.09
0.26,-0.164,0.876,0.141
0.27,-0.283,0.907,0.009
0.28,-0.252,1.002,-0.197
0.29,-0.146,1.182,0.019
0.3,-0.226,0.703,0.198
0.31,-0.136,1.038,0.077
0.32,-0.363,0.846,-0.246
0.33,-0.144,1.184,-0.082
0.34,-0.052,0.878,0.039
0.35,-0.194,0.837,0.187
0.36,-0.24,1.048,-0.06
0.37,-0.284,0.902,-0.174
0.38,-0.172,1.244,0.098
0.39,-0.079,0.741,0.162
0.4,-0.258,1.007,-0.006
0.41,-0.356,0.886,-0.152
0.42,-0.141,1.196,-0.069
0.43,-0.088,0.846,0.075
0.44,-0.124,0.824,0.168
0.45,-0.347,1.132,-0.169
0.46,-0.28,0.822,-0.138
0.47,-0.041,1.319,0.091
0.48,-0.082,0.635,0.108
0.49,-0.31,1.005,-0.016
0.5,-0.243,0.993,-0.202
0.51,-0.136,1.061,-0.026
0.52,-0.19,0.9,0.143
0.53,-0.045,0.764,0.094
0.54,-0.502,1.16,-0.22
0.55,-0.203,0.795,-0.06
0.56,-0.037,1.306,0.072
0.57,-0.149,0.634,0.137
0.58,-0.329,1.012,-0.021
0.59,-0.205,1.036,-0.243
0.6,-0.153,0.975,0.041
0.61,-0.155,1.056,0.206
0.62,-0.064,0.653,0.011
0.63,-0.535,1.252,-0.155
0.64,-0.103,0.907,-0.047
0.65,-0.166,1.135,0.06
0.66,-0.128,0.698,0.191
0.67,-0.363,1.007,-0.074
0.68,-0.291,0.996,-0.185
0.69,-0.096,0.985,0.086
0.7,-0.124,0.889,0.113
0.71,-0.263,0.751,-0.035
0.72,-0.336,1.257,-0.156
0.73,-0.068,0.882,0.002
0.74,-0.278,1.146,0.143
0.75,-0.036,0.684,0.089
0.76,-0.418,1.136,-0.243
0.77,-0.171,0.922,-0.04
0.78,-0.059,1.09,0.116
0.79,-0.23,0.881,0.15
0.8,-0.218,0.813,-0.04
0.81,-0.341,1.242,-0.198
0.82,-0.193,0.794,0.116
0.83,-0.136,1.186,0.164
0.84,-0.166,0.931,0.176
0.85,-0.151,1.023,0.114
0.86,-0.246,0.742,0.058
0.87,-0.405,1.209,-0.226
0.88,-0.076,0.988,-0.071
0.89,-0.165,0.888,0.239
0.9,-0.059,1.021,0.064
0.91,-0.424,0.755,-0.181
0.92,-0.276,1.296,-0.048
0.93,-0.008,0.839,0.086
0.94,-0.275,0.967,0.158
0.95,-0.154,0.823,-0.031
0.96,-0.356,1.106,-0.269
0.97,-0.132,1.044,0.033
0.98,-0.096,0.83,0.158
0.99,-0.222,0.962,0.016
1.0,-0.366,0.849,-0.183
1.01,-0.096,1.296,-0.118
1.02,-0.042,0.704,0.072
1.03,-0.185,0.986,0.192
1.04,-0.238,0.93,-0.156
1.05,-0.362,0.931,-0.189
1.06,-0.031,1.225,0.1
1.07,-0.156,0.726,0.128
1.08,-0.286,1.026,0.036
1.09,-0.361,0.919,-0.169
1.1,-0.16,1.179,-0.046
1.11,-0.131,0.813,0.168
1.12,-0.093,0.964,0.127
1.13,-0.369,0.965,-0.221
1.14,-0.207,0.948,-0.026
1.15,-0.091,1.252,0.065
1.16,-0.168,0.566,0.149
1.17,-0.27,1.141,0.001
1.18,-0.337,0.895,-0.285
1.19,-0.116,1.072,0.008
1.2,-0.052,0.942,0.153
1.21,-0.149,0.815,0.048
1.22,-0.415,1.086,-0.204
1.23,-0.112,0.999,-0.039
1.24,-0.18,1.118,0.084
1.25,-0.106,0.633,0.167
1.26,-0.337,1.147,-0.103
1.27,-0.362,0.83,-0.13
1.28,-0.132,1.205,0.15
1.29,-0.08,0.911,0.048
1.3,-0.197,0.761,0.003
1.31,-0.391,1.249,-0.114
1.32,-0.134,0.945,-0.06
1.33,-0.217,1.077,0.088
1.34,-0.002,0.696,0.152
1.35,-0.489,1.116,-0.18
1.36,-0.252,0.91,-0.088
1.37,-0.062,1.142,0.072
1.38,-0.189,0.812,0.125
1.39,-0.281,0.798,0.032
1.4,-0.345,1.268,-0.249
1.41,-0.065,0.808,-0.024
1.42,-0.139,1.211,0.168
1.43,-0.057,0.654,0.059
1.44,-0.446,1.26,-0.173
1.45,-0.084,0.889,-0.085
1.46,-0.17,1.09,0.119
1.47,-0.131,0.846,0.185
1.48,-0.331,0.917,-0.152
1.49,-0.36,1.061,-0.121
1.5,-0.068,0.994,0.144
1.51,-0.128,1.052,0.075
1.52,-0.211,0.631,0.042
1.53,-0.433,1.31,-0.197
1.54,-0.086,0.865,-0.06
1.55,-0.182,1.043,0.196
1.56,-0.071,0.858,0.12
1.57,-0.456,0.888,-0.198
1.58,-0.172,1.147,-0.17
1.59,-0.033,0.92,0.087
1.6,-0.201,0.99,0.137
1.61,-0.168,0.702,-0.013
1.62,-0.38,1.301,-0.22
1.63,-0.145,0.86,0.036
1.64,-0.112,1.031,0.19
1.65,-0.084,0.918,-0.01
1.66,-0.48,0.863,-0.188
1.67,-0.16,1.248,0.0
1.68,-0.105,0.819,0.072
1.69,-0.178,1.004,0.17
1.7,-0.254,0.78,-0.065
1.71,-0.426,1.163,-0.164
1.72,-0.039,0.962,0.068
1.73,-0.068,0.971,0.132
1.74,-0.339,0.864,0.047
1.75,-0.352,0.928,-0.168
1.76,-0.059,1.359,-0.118
1.77,-0.145,0.627,0.109
1.78,-0.084,1.02,0.166
1.79,-0.398,0.837,-0.181
1.8,-0.35,1.098,-0.064
1.81,0.035,1.098,0.089
1.82,-0.192,0.779,0.068
1.83,-0.226,0.998,0.039
1.84,-0.291,0.955,-0.182
1.85,-0.257,1.224,0.003
1.86,0.008,0.716,0.177
1.87,-0.194,1.002,0.062
1.88,-0.486,0.873,-0.112
1.89,-0.117,1.099,-0.092
1.9,-0.088,1.018,0.087
1.91,-0.246,0.741,0.189
1.92,-0.176,1.088,-0.157
1.93,-0.313,0.831,-0.197
1.94,-0.12,1.273,0.092
1.95,0.014,0.711,0.079
1.96,-0.293,0.965,0.053
1.97,-0.415,1.045,-0.119
1.98,-0.108,1.02,-0.059
1.99,-0.223,1.004,0.136
2.0,-0.063,0.731,0.195
2.01,-0.416,1.154,-0.149
2.02,-0.303,0.804,-0.099
2.03,-0.043,1.324,0.088
2.04,-0.11,0.678,0.077
2.05,-0.262,0.942,0.074
2.06,-0.358,1.161,-0.199
2.07,-0.155,0.846,-0.042
2.08,-0.163,1.072,0.214
2.09,-0.08,0.725,0.076
2.1,-0.537,1.123,-0.194
2.11,-0.228,0.834,-0.014
2.12,0.012,1.246,0.041
2.13,-0.232,0.686,0.131
2.14,-0.295,0.93,0.016
2.15,-0.241,1.144,-0.286
2.16,-0.104,0.821,0.0
2.17,-0.133,1.155,0.194
2.18,-0.097,0.675,0.036
2.19,-0.515,1.225,-0.18
2.2,-0.021,0.908,-0.097
2.21,-0.165,1.095,0.1
2.22,-0.16,0.828,0.212
2.23,-0.241,0.931,-0.133
2.24,-0.386,1.084,-0.192
2.25,0.055,0.958,0.084
2.26,-0.114,0.963,0.102
2.27,-0.282,0.695,0.037
2.28,-0.384,1.34,-0.21
2.29,-0.101,0.805,-0.015
2.3,-0.197,1.191,0.145
2.31,-0.11,0.683,0.092
2.32,-0.455,1.033,-0.123
2.33,-0.198,1.116,-0.012
2.34,-0.127,0.955,0.095
2.35,-0.18,0.933,0.13
2.36,-0.151,0.757,-0.022
2.37,-0.449,1.284,-0.226
2.38,-0.072,0.795,0.005
2.39,-0.088,1.154,0.129
2.4,-0.118,0.708,0.074
2.41,-0.396,1.062,-0.193
2.42,-0.104,1.165,-0.042
2.43,-0.131,0.852,0.095
2.44,-0.198,0.981,0.147
2.45,-0.222,0.73,-0.083
2.46,-0.367,1.238,-0.187
2.47,-0.174,0.877,0.144
2.48,-0.091,1.087,0.155
2.49,-0.233,0.73,-0.031
2.5,-0.406,1.035,-0.141
2.51,-0.039,1.133,-0.078
2.52,-0.23,0.769,0.171
2.53,-0.064,1.074,0.173
2.54,-0.313,0.734,-0.175
2.55,-0.293,1.191,-0.151
2.56,0.035,1.007,0.095
2.57,-0.138,0.917,0.076
2.58,-0.285,0.851,0.024
2.59,-0.327,1.013,-0.225
2.6,-0.119,1.156,-0.045
2.61,-0.179,0.732,0.162
2.62,-0.066,1.038,0.053
2.63,-0.34,0.813,-0.203
2.64,-0.249,1.174,-0.097
2.65,-0.04,0.911,0.06
2.66,-0.204,0.843,0.127
2.67,-0.223,1.006,-0.004
2.68,-0.327,0.946,-0.167
2.69,-0.178,1.193,0.045
2.7,-0.131,0.75,0.177
2.71,-0.141,1.035,0.081
2.72,-0.386,0.877,-0.183
2.73,-0.171,1.19,-0.023
2.74,-0.143,0.893,0.07
2.75,-0.214,0.789,0.182
2.76,-0.232,1.08,-0.045
2.77,-0.345,0.876,-0.166
2.78,-0.206,1.219,0.072
2.79,-0.019,0.717,0.111
2.8,-0.2,1.001,-0.007
2.81,-0.386,0.947,-0.174
2.82,-0.135,1.089,-0.073
2.83,-0.111,0.902,0.075
2.84,-0.12,0.806,0.198
2.85,-0.415,1.134,-0.155
2.86,-0.216,0.785,-0.143
2.87,-0.124,1.304,0.082
2.88,-0.098,0.665,0.15
2.89,-0.26,0.982,0.036
2.9,-0.342,1.05,-0.209
2.91,-0.126,0.993,-0.067
2.92,-0.123,0.969,0.106
2.93,-0.091,0.759,0.126
2.94,-0.387,1.185,-0.203
2.95,-0.231,0.855,-0.036
2.96,-0.137,1.266,0.086
2.97,-0.149,0.702,0.178
2.98,-0.289,0.994,-0.01
2.99,-0.297,1.032,-0.247
3.0,-0.124,0.931,0.044
3.01,-0.176,1.085,0.166
3.02,-0.091,0.662,0.084
3.03,-0.409,1.187,-0.212
3.04,-0.122,0.829,-0.066
3.05,-0.121,1.196,0.074
3.06,-0.109,0.717,0.163
3.07,-0.41,1.12,-0.116
3.08,-0.241,0.884,-0.193
3.09,-0.14,1.112,0.085
3.1,-0.174,0.978,0.14
3.11,-0.164,0.735,0.013
3.12,-0.404,1.227,-0.186
3.13,-0.066,0.896,-0.024
3.14,-0.198,1.152,0.138
3.15,-0.131,0.644,0.132
3.16,-0.376,1.137,-0.143
3.17,-0.339,0.982,-0.114
3.18,-0.122,1.013,0.112
3.19,-0.074,0.953,0.101
3.2,-0.272,0.682,-0.05
3.21,-0.373,1.221,-0.142
3.22,-0.092,0.872,0.016
3.23,-0.252,1.085,0.173
3.24,-0.013,0.744,0.072
3.25,-0.397,1.09,-0.281
3.26,-0.23,0.992,-0.031
3.27,-0.086,1.042,0.154
3.28,-0.192,0.939,0.063
3.29,-0.244,0.738,-0.04
3.3,-0.353,1.315,-0.175
3.31,-0.146,0.85,0.099
3.32,-0.098,1.074,0.126
3.33,-0.108,0.723,0.014
3.34,-0.447,1.144,-0.183
3.35,-0.1,1.087,-0.069
3.36,-0.155,0.83,0.109
3.37,-0.172,1.017,0.146
3.38,-0.298,0.747,-0.153
3.39,-0.257,1.249,-0.103
3.4,-0.121,0.947,0.118
3.41,-0.149,0.941,0.136
3.42,-0.257,0.823,0.035
3.43,-0.382,1.139,-0.191
3.44,-0.049,1.094,-0.077
3.45,-0.173,0.776,0.171
3.46,-0.163,1.035,0.099
3.47,-0.338,0.778,-0.195
3.48,-0.263,1.284,-0.056
3.49,-0.093,0.877,0.066
3.5,-0.139,0.86,0.155
3.51,-0.215,0.958,-0.035
3.52,-0.406,1.01,-0.224
3.53,-0.049,1.122,0.026
3.54,-0.094,0.862,0.138
3.55,-0.176,0.964,0.045
3.56,-0.407,0.836,-0.161
3.57,-0.079,1.27,-0.079
3.58,-0.097,0.839,0.077
3.59,-0.264,0.845,0.211
3.6,-0.28,1.012,-0.094
3.61,-0.327,0.945,-0.167
3.62,-0.107,1.196,0.107
3.63,-0.135,0.678,0.191
3.64,-0.288,1.037,0.014
3.65,-0.329,0.948,-0.174
3.66,-0.12,1.104,-0.042
3.67,-0.26,0.862,0.217
3.68,-0.056,0.839,0.093
3.69,-0.421,1.069,-0.194
3.7,-0.227,0.861,-0.041
3.71,-0.104,1.305,0.067
3.72,-0.069,0.571,0.111
3.73,-0.249,1.128,0.046
3.74,-0.332,0.946,-0.262
3.75,-0.117,1.008,-0.057
3.76,-0.005,1.02,0.142
3.77,-0.189,0.733,0.079
3.78,-0.502,1.122,-0.148
3.79,-0.009,0.936,-0.068
3.8,-0.253,1.197,0.07
3.81,-0.165,0.619,0.176
3.82,-0.214,1.149,-0.105
3.83,-0.317,0.877,-0.229
3.84,-0.079,1.089,0.177
3.85,-0.142,1.084,0.114
3.86,-0.234,0.619,0.017
3.87,-0.402,1.235,-0.099
3.88,-0.147,0.945,-0.122
3.89,-0.249,0.991,0.145
3.9,0.046,0.731,0.148
3.91,-0.509,1.14,-0.211
3.92,-0.259,0.774,-0.093
3.93,0.0,1.285,0.054
3.94,-0.133,0.739,0.092
3.95,-0.264,0.854,0.055
3.96,-0.316,1.26,-0.246
3.97,-0.1,0.786,-0.049
3.98,-0.172,1.153,0.183
3.99,-0.09,0.667,0.079
4.0,-0.484,1.145,-0.196
4.01,-0.14,0.94,-0.019
4.02,-0.09,1.115,0.082
4.03,-0.201,0.789,0.144
4.04,-0.208,0.866,-0.038
4.05,-0.32,1.23,-0.236
4.06,-0.177,0.833,0.086
4.07,-0.118,1.197,0.132
4.08,-0.13,0.586,0.018
4.09,-0.457,1.171,-0.164
4.1,-0.087,1.044,-0.055
4.11,-0.22,0.922,0.124
4.12,-0.141,0.911,0.181
4.13,-0.294,0.859,-0.12
4.14,-0.299,1.166,-0.226
4.15,-0.004,0.925,0.131
4.16,-0.105,1.128,0.104
4.17,-0.17,0.623,-0.009
4.18,-0.405,1.25,-0.138
4.19,-0.166,1.008,-0.031
4.2,-0.252,0.847,0.146
4.21,-0.018,1.001,0.122
4.22,-0.363,0.779,-0.211
4.23,-0.269,1.239,-0.054
4.24,-0.039,0.945,0.082
4.25,-0.176,0.916,0.099
4.26,-0.222,0.781,0.075
4.27,-0.376,1.211,-0.222
4.28,-0.153,0.982,-0.051
4.29,-0.088,0.843,0.179
4.3,-0.153,1.023,0.074
4.31,-0.457,0.784,-0.173
4.32,-0.123,1.294,-0.092
4.33,-0.03,0.813,0.058
4.34,-0.252,0.974,0.216
4.35,-0.241,0.854,-0.067
4.36,-0.359,0.996,-0.223
4.37,-0.198,1.112,0.065
4.38,-0.049,0.842,0.118
4.39,-0.236,0.977,0.037
4.4,-0.329,0.847,-0.157
4.41,-0.137,1.282,-0.073
4.42,-0.117,0.707,0.079
4.43,-0.173,0.954,0.197
4.44,-0.283,0.963,-0.136
4.45,-0.338,0.941,-0.158
4.46,-0.143,1.184,0.094
4.47,-0.024,0.747,0.11
4.48,-0.302,1.007,0.02
4.49,-0.364,0.913,-0.131
4.5,-0.127,1.254,-0.062
4.51,-0.138,0.725,0.124
4.52,-0.121,0.937,0.195
4.53,-0.409,1.036,-0.158
4.54,-0.283,0.857,-0.099
4.55,-0.027,1.284,0.081
4.56,-0.081,0.629,0.1
4.57,-0.267,1.105,0.057
4.58,-0.333,0.896,-0.201
4.59,-0.18,1.058,-0.049
4.6,-0.138,0.918,0.194
4.61,-0.116,0.807,0.087
4.62,-0.477,1.036,-0.166
4.63,-0.045,0.944,-0.052
4.64,-0.179,1.259,0.062
4.65,-0.119,0.563,0.146
4.66,-0.23,1.132,-0.001
4.67,-0.341,0.926,-0.199
4.68,-0.165,1.107,-0.01
4.69,-0.023,1.0,0.113
4.7,-0.188,0.883,0.016
4.71,-0.434,1.06,-0.163
4.72,-0.105,1.006,-0.129
4.73,-0.196,1.038,0.094
4.74,-0.062,0.702,0.199
4.75,-0.402,1.15,-0.108
4.76,-0.389,0.749,-0.122
4.77,-0.014,1.295,0.073
4.78,-0.171,0.807,0.095
4.79,-0.287,0.858,0.066
4.8,-0.297,1.136,-0.175
4.81,-0.12,0.949,-0.069
4.82,-0.233,1.075,0.103
4.83,-0.001,0.714,0.154
4.84,-0.431,1.145,-0.188
4.85,-0.303,0.77,-0.055
4.86,-0.022,1.255,0.072
4.87,-0.15,0.805,0.113
4.88,-0.313,0.823,0.026
4.89,-0.224,1.185,-0.211
4.9,-0.168,0.812,-0.022
4.91,-0.234,1.152,0.194
4.92,-0.036,0.692,0.111
4.93,-0.521,1.126,-0.23
4.94,-0.162,0.91,-0.021
4.95,-0.03,1.169,0.04
4.96,-0.164,0.765,0.122
4.97,-0.239,0.84,0.027
4.98,-0.323,1.264,-0.226
4.99,-0.175,0.79,0.018
5.0,-0.152,1.21,0.173
5.01,-0.042,0.636,0.08
5.02,-0.567,1.192,-0.169
5.03,-0.079,0.969,-0.078
5.04,-0.111,1.05,0.077
5.05,-0.224,0.886,0.2
5.06,-0.223,0.828,-0.088
5.07,-0.307,1.175,-0.192
5.08,-0.186,0.853,0.139
5.09,-0.127,1.18,0.136
5.1,-0.126,0.635,0.022
5.11,-0.459,1.201,-0.16
5.12,-0.03,1.09,-0.08
5.13,-0.121,0.965,0.04
5.14,-0.205,0.921,0.193
5.15,-0.216,0.796,-0.151
5.16,-0.313,1.22,-0.182
5.17,-0.095,0.87,0.122
5.18,-0.17,1.058,0.159
5.19,-0.147,0.676,0.022
5.2,-0.476,1.188,-0.148
5.21,-0.078,1.015,-0.059
5.22,-0.128,0.897,0.11
5.23,-0.213,1.04,0.18
5.24,-0.277,0.731,-0.184
5.25,-0.324,1.218,-0.142
5.26,-0.017,0.926,0.095
5.27,-0.139,0.983,0.122
5.28,-0.199,0.754,0.001
5.29,-0.412,1.152,-0.155
5.3,-0.083,1.079,-0.05
5.31,-0.183,0.787,0.141
5.32,-0.127,1.085,0.134
5.33,-0.351,0.825,-0.221
5.34,-0.281,1.182,-0.104
5.35,-0.014,0.914,0.099
5.36,-0.099,0.944,0.126
5.37,-0.358,0.839,0.002
5.38,-0.276,1.058,-0.203
5.39,-0.101,1.124,-0.034
5.4,-0.147,0.748,0.166
5.41,-0.076,1.02,0.049
5.42,-0.361,0.82,-0.214
5.43,-0.236,1.216,-0.026
5.44,-0.069,0.874,0.088
5.45,-0.168,0.88,0.147
5.46,-0.26,0.982,-0.061
5.47,-0.255,0.958,-0.233
5.48,-0.166,1.165,0.046
5.49,-0.064,0.736,0.166
5.5,-0.196,0.99,0.018
5.51,-0.423,0.885,-0.155
5.52,-0.182,1.26,-0.036
5.53,-0.206,0.685,0.118
5.54,-0.101,1.006,0.144
5.55,-0.333,0.869,-0.176
5.56,-0.224,0.993,-0.107
5.57,-0.065,1.18,0.079
5.58,-0.118,0.717,0.137
5.59,-0.275,1.039,0.046
5.6,-0.343,0.927,-0.196
5.61,-0.13,1.186,-0.038
5.62,-0.196,0.738,0.164
5.63,-0.105,0.96,0.114
5.64,-0.361,0.951,-0.15
5.65,-0.311,0.993,-0.079
5.66,-0.045,1.15,0.086
5.67,-0.112,0.667,0.158
5.68,-0.377,1.109,-0.011
5.69,-0.274,0.924,-0.183
5.7,-0.148,1.126,-0.0
5.71,-0.166,0.774,0.184
5.72,-0.078,0.918,0.085
5.73,-0.396,1.033,-0.237
5.74,-0.167,0.92,0.005
5.75,-0.08,1.208,0.068
5.76,-0.126,0.608,0.112
5.77,-0.308,1.136,-0.052
5.78,-0.237,0.914,-0.244
5.79,-0.146,1.121,0.023
5.8,-0.093,0.858,0.206
5.81,-0.153,0.823,0.028
5.82,-0.468,1.071,-0.222
5.83,-0.086,0.919,0.032
5.84,-0.203,1.187,0.128
5.85,-0.187,0.6,0.165
5.86,-0.261,1.16,-0.11
5.87,-0.296,0.938,-0.197
5.88,-0.162,1.113,0.101
5.89,-0.088,0.896,0.096
5.9,-0.19,0.75,-0.047
5.91,-0.428,1.25,-0.13
5.92,-0.088,0.896,-0.024
5.93,-0.23,1.157,0.129
5.94,0.008,0.716,0.112
5.95,-0.441,1.141,-0.192
5.96,-0.24,0.906,-0.062
5.97,-0.091,1.163,0.095
5.98,-0.138,0.852,0.093
5.99,-0.22,0.804,0.027
6.0,-0.396,1.289,-0.224
6.01,-0.102,0.783,0.035
6.02,-0.202,1.201,0.181
6.03,-0.093,0.7,0.074
6.04,-0.477,1.102,-0.182
6.05,-0.063,1.041,-0.067
6.06,-0.139,0.996,0.084
6.07,-0.189,0.915,0.216
6.08,-0.251,0.749,-0.075
6.09,-0.404,1.219,-0.164
6.1,-0.067,0.862,0.113
6.11,-0.075,1.149,0.076
6.12,-0.19,0.647,0.032
6.13,-0.373,1.174,-0.183
6.14,-0.062,1.069,-0.098
6.15,-0.231,0.806,0.125
6.16,-0.08,1.03,0.174
6.17,-0.347,0.801,-0.2
6.18,-0.359,1.165,-0.142
6.19,0.019,0.943,0.075
6.2,-0.136,1.015,0.089
6.21,-0.29,0.718,-0.001
6.22,-0.241,1.179,-0.169
6.23,-0.176,1.062,-0.024
6.24,-0.18,0.749,0.185
6.25,-0.035,1.056,0.089
6.26,-0.426,0.728,-0.21
6.27,-0.253,1.231,-0.057
6.28,0.035,0.927,0.061
6.29,-0.166,0.874,0.095
6.3,-0.27,0.869,0.019
6.31,-0.361,1.068,-0.221
6.32,-0.044,1.078,0.009
6.33,-0.046,0.918,0.126
6.34,-0.262,0.905,-0.003
6.35,-0.401,0.898,-0.103
6.36,-0.143,1.287,-0.055
6.37,-0.174,0.664,0.145
6.38,-0.125,1.056,0.161
6.39,-0.289,0.843,-0.207
6.4,-0.389,1.1,-0.043
6.41,-0.024,1.07,0.088
6.42,-0.133,0.748,0.11
6.43,-0.321,1.028,0.038
6.44,-0.259,0.895,-0.227
6.45,-0.226,1.2,-0.019
6.46,-0.107,0.756,0.205
6.47,-0.113,1.037,0.034
6.48,-0.415,0.865,-0.192
6.49,-0.095,1.117,-0.08
6.5,-0.125,1.011,0.072
6.51,-0.224,0.684,0.223
6.52,-0.231,1.144,-0.108
6.53,-0.372,0.807,-0.175
6.54,-0.165,1.255,0.133
6.55,-0.078,0.797,0.129
6.56,-0.249,0.902,-0.003
6.57,-0.334,1.043,-0.189
6.58,-0.143,1.037,-0.07
6.59,-0.213,0.977,0.103
6.6,0.007,0.745,0.153
6.61,-0.475,1.094,-0.182
6.62,-0.327,0.776,-0.065
6.63,0.001,1.361,0.072
6.64,-0.222,0.657,0.098
6.65,-0.19,0.902,0.044
6.66,-0.284,1.211,-0.278
6.67,-0.153,0.862,0.014
6.68,-0.182,1.091,0.202
6.69,-0.111,0.672,0.083
6.7,-0.489,1.153,-0.212
6.71,-0.086,0.911,-0.074
6.72,-0.138,1.167,0.075
6.73,-0.212,0.737,0.182
6.74,-0.206,0.929,-0.019
6.75,-0.361,1.106,-0.246
6.76,-0.135,0.869,0.095
6.77,-0.114,1.187,0.125
6.78,-0.125,0.574,0.023
6.79,-0.527,1.282,-0.11
6.8,-0.044,0.908,-0.139
6.81,-0.203,1.036,0.096
6.82,-0.155,0.882,0.2
6.83,-0.261,0.906,-0.178
6.84,-0.304,1.05,-0.157
6.85,-0.008,0.976,0.121
6.86,-0.128,1.156,0.103
6.87,-0.159,0.562,-0.016
6.88,-0.425,1.301,-0.13
6.89,-0.111,0.983,-0.062
6.9,-0.181,0.939,0.114
6.91,-0.085,0.943,0.138
6.92,-0.434,0.847,-0.186
6.93,-0.326,1.172,-0.101
6.94,0.074,0.922,0.047
6.95,-0.211,1.01,0.117
6.96,-0.182,0.687,0.057
6.97,-0.365,1.282,-0.163
6.98,-0.202,0.893,-0.005
6.99,-0.107,0.937,0.191
7.0,-0.186,0.919,0.088
7.01,-0.453,0.833,-0.143
7.02,-0.187,1.314,-0.1
7.03,-0.033,0.78,0.036
7.04,-0.198,1.047,0.15
7.05,-0.177,0.763,-0.087
7.06,-0.344,1.13,-0.149
7.07,-0.126,1.036,0.064
7.08,-0.123,0.847,0.117
7.09,-0.158,0.982,0.016
7.1,-0.352,0.952,-0.18
7.11,-0.195,1.245,-0.065
7.12,-0.146,0.704,0.157
7.13,-0.23,1.062,0.198
7.14,-0.315,0.818,-0.134
7.15,-0.322,1.228,-0.079
7.16,-0.036,0.959,0.068
7.17,-0.158,0.815,0.125
7.18,-0.199,0.936,-0.026
7.19,-0.365,0.989,-0.208
7.2,-0.178,1.143,0.004
7.21,-0.092,0.78,0.122
7.22,-0.189,1.069,0.068
7.23,-0.293,0.755,-0.169
7.24,-0.24,1.202,-0.06
7.25,-0.02,0.986,0.092
7.26,-0.112,0.757,0.112
7.27,-0.301,1.003,0.007
7.28,-0.365,0.943,-0.204
7.29,-0.142,1.174,0.049
7.3,-0.128,0.764,0.202
7.31,-0.25,1.011,0.025
7.32,-0.319,0.833,-0.194
7.33,-0.154,1.164,-0.03
7.34,-0.087,0.963,0.119
7.35,-0.166,0.759,0.132
7.36,-0.313,1.108,-0.077
7.37,-0.34,0.876,-0.168
7.38,-0.134,1.246,0.128
7.39,-0.093,0.705,0.127
7.4,-0.261,0.978,-0.001
7.41,-0.397,0.984,-0.15
7.42,-0.111,1.087,-0.02
7.43,-0.146,0.951,0.089
7.44,-0.094,0.733,0.17
7.45,-0.43,1.115,-0.204
7.46,-0.191,0.864,-0.087
7.47,-0.127,1.323,0.091
7.48,-0.137,0.645,0.12
7.49,-0.184,0.995,-0.017
7.5,-0.34,1.065,-0.215
7.51,-0.076,0.959,0.006
7.52,-0.148,1.065,0.136
7.53,-0.097,0.664,0.103
7.54,-0.446,1.268,-0.174
7.55,-0.199,0.854,-0.059
7.56,-0.121,1.198,0.051
7.57,-0.137,0.72,0.137
7.58,-0.255,0.967,-0.048
7.59,-0.406,1.07,-0.176
7.6,-0.056,0.914,0.047
7.61,-0.095,1.105,0.09
7.62,-0.169,0.596,0.047
7.63,-0.476,1.29,-0.204
7.64,-0.038,0.882,-0.068
7.65,-0.185,1.05,0.1
7.66,-0.124,0.81,0.2
7.67,-0.337,0.986,-0.144
7.68,-0.36,1.047,-0.15
7.69,-0.067,0.972,0.129
7.7,-0.13,1.075,0.086
7.71,-0.244,0.604,-0.038
7.72,-0.389,1.326,-0.153
7.73,-0.115,0.892,-0.034
7.74,-0.231,0.968,0.129
7.75,-0.003,0.848,0.141
7.76,-0.463,0.956,-0.157
7.77,-0.277,1.141,-0.046
7.78,0.005,0.913,0.069
7.79,-0.232,1.007,0.107
7.8,-0.244,0.699,0.023
7.81,-0.313,1.284,-0.235
7.82,-0.177,0.881,0.024
7.83,-0.082,0.995,0.192
7.84,-0.117,0.862,0.017
7.85,-0.49,0.926,-0.169
7.86,-0.104,1.216,-0.044
7.87,-0.123,0.778,0.126
7.88,-0.208,1.059,0.179
7.89,-0.211,0.775,-0.124
7.9,-0.367,1.153,-0.176
7.91,-0.062,0.995,0.086
7.92,-0.117,0.872,0.138
7.93,-0.27,0.922,0.053
7.94,-0.357,0.968,-0.14
7.95,-0.185,1.222,-0.025
7.96,-0.203,0.761,0.198
7.97,-0.139,1.037,0.083
7.98,-0.365,0.778,-0.234
7.99,-0.184,1.264,-0.078
8.0,-0.029,0.89,0.111
8.01,-0.23,0.85,0.113
8.02,-0.227,0.914,-0.025
8.03,-0.344,1.005,-0.21
8.04,-0.079,1.104,0.005
8.05,-0.065,0.821,0.169
8.06,-0.271,1.0,0.005
8.07,-0.357,0.798,-0.136
8.08,-0.166,1.3,-0.064
8.09,-0.115,0.784,0.104
8.1,-0.124,0.868,0.175
8.11,-0.325,1.037,-0.121
8.12,-0.316,0.879,-0.138
8.13,-0.12,1.252,0.117
8.14,-0.055,0.697,0.115
8.15,-0.32,1.039,-0.007
8.16,-0.373,0.877,-0.163
8.17,-0.136,1.156,-0.046
8.18,-0.15,0.823,0.135
8.19,-0.073,0.869,0.128
8.2,-0.441,1.083,-0.17
8.21,-0.205,0.848,-0.096
8.22,-0.048,1.278,0.076
8.23,-0.141,0.631,0.141
8.24,-0.3,1.074,-0.023
8.25,-0.317,0.973,-0.201
8.26,-0.123,1.049,0.043
8.27,-0.14,0.926,0.192
8.28,-0.154,0.75,0.026
8.29,-0.425,1.176,-0.208
8.3,-0.105,0.948,-0.031
8.31,-0.157,1.132,0.101
8.32,-0.104,0.662,0.171
8.33,-0.33,1.106,-0.094
8.34,-0.337,0.906,-0.166
8.35,-0.114,1.066,0.108
8.36,-0.06,1.009,0.09
8.37,-0.267,0.692,0.008
8.38,-0.458,1.248,-0.137
8.39,-0.051,0.921,-0.04
8.4,-0.243,1.103,0.102
8.41,0.001,0.702,0.134
8.42,-0.477,1.1,-0.209
8.43,-0.248,0.978,-0.03
8.44,-0.024,1.06,0.05
8.45,-0.19,0.917,0.075
8.46,-0.161,0.74,-0.009
8.47,-0.381,1.31,-0.225
8.48,-0.238,0.75,0.103
8.49,-0.114,1.154,0.127
8.5,-0.122,0.708,-0.012
8.51,-0.463,1.068,-0.168
8.52,-0.034,1.066,-0.11
8.53,-0.117,0.938,0.103
8.54,-0.166,0.996,0.208
8.55,-0.273,0.679,-0.13
8.56,-0.368,1.278,-0.128
8.57,0.014,0.928,0.08
8.58,-0.146,0.974,0.085
8.59,-0.284,0.766,0.061
8.6,-0.356,1.141,-0.219
8.61,-0.063,1.055,-0.057
8.62,-0.164,0.858,0.169
8.63,-0.112,1.02,0.091
8.64,-0.373,0.741,-0.168
8.65,-0.247,1.33,-0.033
8.66,-0.031,0.863,0.041
8.67,-0.263,0.881,0.152
8.68,-0.191,0.873,0.027
8.69,-0.331,1.041,-0.247
8.7,-0.119,1.114,0.023
8.71,-0.058,0.787,0.15
8.72,-0.154,1.041,0.037
8.73,-0.447,0.823,-0.166
8.74,-0.081,1.258,-0.11
8.75,-0.1,0.774,0.082
8.76,-0.22,0.914,0.214
8.77,-0.291,0.965,-0.063
8.78,-0.38,1.048,-0.043
8.79,-0.005,1.092,0.031
8.8,-0.066,0.713,0.075
8.81,-0.324,1.032,0.047
8.82,-0.245,0.904,-0.25
8.83,-0.165,1.172,-0.084
8.84,-0.141,0.786,0.218
8.85,-0.083,1.003,0.067
8.86,-0.403,0.848,-0.189
8.87,-0.233,1.061,-0.002
8.88,-0.109,1.159,0.075
8.89,-0.163,0.636,0.114
8.9,-0.235,1.12,-0.016
8.91,-0.326,0.908,-0.248
8.92,-0.208,1.157,0.055
8.93,-0.017,0.82,0.145
8.94,-0.166,0.931,0.023
8.95,-0.423,0.982,-0.182
8.96,-0.076,0.985,-0.075
8.97,-0.204,1.096,0.15
8.98,-0.185,0.694,0.168
8.99,-0.334,1.156,-0.154
9.0,-0.249,0.769,-0.17
9.01,-0.065,1.302,0.095
9.02,-0.087,0.792,0.143
9.03,-0.212,0.871,0.034
9.04,-0.401,1.125,-0.146
9.05,-0.088,0.932,-0.062
9.06,-0.153,1.099,0.099
9.07,-0.134,0.694,0.175
9.08,-0.415,1.162,-0.188
9.09,-0.258,0.876,-0.049
9.1,-0.167,1.232,0.084
9.11,-0.03,0.749,0.1
9.12,-0.292,0.871,0.041
9.13,-0.359,1.177,-0.226
9.14,-0.018,0.869,0.04
9.15,-0.232,1.193,0.119
9.16,-0.073,0.633,0.09
9.17,-0.445,1.184,-0.207
9.18,-0.133,0.813,0.13
9.19,-0.137,1.029,0.193
9.2,-0.269,0.757,-0.119
9.21,-0.351,1.239,-0.138
9.22,-0.05,0.938,0.097
9.23,-0.13,1.015,0.135
9.24,-0.203,0.777,-0.008
9.25,-0.394,1.094,-0.151
9.26,-0.152,1.11,-0.036
9.27,-0.176,0.774,0.18
9.28,-0.135,1.073,0.133
9.29,-0.329,0.745,-0.194
9.3,-0.269,1.274,-0.073
9.31,-0.041,0.941,0.108
9.32,-0.21,0.836,0.134
9.33,-0.223,0.898,-0.006
9.34,-0.357,1.083,-0.184
9.35,-0.133,1.092,-0.037
9.36,-0.104,0.76,0.187
9.37,-0.192,1.073,0.081
9.38,-0.353,0.777,-0.17
9.39,-0.15,1.227,-0.104
9.4,-0.091,0.845,0.111
9.41,-0.131,0.867,0.135
9.42,-0.312,0.967,-0.06
9.43,-0.319,0.917,-0.18
9.44,-0.061,1.244,0.082
9.45,-0.153,0.738,0.147
9.46,-0.188,1.017,0.006
9.47,-0.379,0.891,-0.173
9.48,-0.189,1.218,-0.027
9.49,-0.079,0.806,0.116
9.5,-0.158,1.006,0.127
9.51,-0.389,0.889,-0.214
9.52,-0.187,0.964,-0.103
9.53,-0.092,1.222,0.094
9.54,-0.15,0.617,0.131
9.55,-0.253,1.111,0.015
9.56,-0.316,0.935,-0.239
9.57,-0.07,1.141,-0.022
9.58,-0.108,0.867,0.223
9.59,-0.244,0.886,0.044
9.6,-0.368,1.002,-0.201
9.61,-0.068,1.024,-0.097
9.62,-0.168,1.107,0.082
9.63,-0.13,0.638,0.156
9.64,-0.329,1.167,-0.124
9.65,-0.29,0.845,-0.169
9.66,0.009,1.261,0.081
9.67,-0.168,0.798,0.106
9.68,-0.212,0.821,0.063
9.69,-0.344,1.18,-0.196
9.7,-0.139,0.929,-0.051
9.71,-0.17,1.076,0.164
9.72,-0.115,0.66,0.131
9.73,-0.504,1.145,-0.147
9.74,-0.167,0.897,-0.09
9.75,-0.134,1.237,0.114
9.76,-0.183,0.754,0.128
9.77,-0.194,0.853,-0.03
9.78,-0.381,1.224,-0.21
9.79,-0.125,0.811,0.052
9.8,-0.096,1.18,0.142
9.81,-0.173,0.645,0.027
9.82,-0.457,1.129,-0.164
9.83,-0.033,0.989,-0.088
9.84,-0.154,1.058,0.061
9.85,-0.094,0.83,0.177
9.86,-0.331,0.832,-0.098
9.87,-0.33,1.221,-0.178
9.88,-0.002,0.824,0.065
9.89,-0.126,1.157,0.157
9.9,-0.255,0.644,0.018
9.91,-0.453,1.16,-0.185
9.92,-0.018,1.036,-0.067
9.93,-0.167,0.889,0.105
9.94,-0.076,0.966,0.106
9.95,-0.403,0.846,-0.168
9.96,-0.327,1.253,-0.04
9.97,-0.027,0.861,0.089
9.98,-0.109,0.967,0.092
9.99,-0.229,0.749,-0.027
10.0,-0.355,1.244,-0.16
10.01,-0.163,0.975,0.076
10.02,-0.121,0.832,0.158
10.03,-0.175,0.998,0.029
10.04,-0.436,0.873,-0.162
10.05,-0.116,1.279,-0.058
10.06,-0.111,0.746,0.144
10.07,-0.2,1.014,0.158
10.08,-0.29,0.802,-0.18
10.09,-0.25,1.083,-0.108
10.1,-0.095,1.149,0.12
10.11,-0.11,0.698,0.129
10.12,-0.297,1.055,0.013
10.13,-0.379,0.924,-0.19
10.14,-0.056,1.197,-0.022
10.15,-0.069,0.797,0.143
10.16,-0.196,0.957,0.04
10.17,-0.333,0.915,-0.177
10.18,-0.19,1.092,-0.082
10.19,-0.065,1.002,0.09
10.2,-0.155,0.714,0.142
10.21,-0.413,1.12,-0.095
10.22,-0.229,0.815,-0.17
10.23,-0.063,1.308,0.094
10.24,-0.17,0.696,0.16
10.25,-0.159,0.91,-0.006
10.26,-0.425,1.141,-0.177
10.27,-0.167,0.916,0.028
10.28,-0.123,1.065,0.141
10.29,-0.115,0.688,0.117
10.3,-0.426,1.176,-0.189
10.31,-0.154,0.933,-0.061
10.32,-0.139,1.169,0.109
10.33,-0.132,0.653,0.154
10.34,-0.305,1.083,-0.107
10.35,-0.285,0.944,-0.196
10.36,-0.053,1.108,0.093
10.37,-0.151,0.941,0.121
10.38,-0.193,0.715,0.02
10.39,-0.436,1.288,-0.2
10.4,-0.112,0.838,-0.04
10.41,-0.139,1.144,0.178
10.42,-0.14,0.709,0.121
10.43,-0.432,1.032,-0.167
10.44,-0.169,1.048,-0.105
10.45,-0.105,1.048,0.119
10.46,-0.124,0.899,0.137
10.47,-0.234,0.687,-0.038
10.48,-0.425,1.294,-0.206
10.49,-0.06,0.834,0.072
10.5,-0.241,1.123,0.17
10.51,-0.149,0.679,0.036
10.52,-0.453,1.1,-0.17
10.53,-0.168,1.137,-0.028
10.54,-0.086,0.872,0.101
10.55,-0.164,1.017,0.097
10.56,-0.27,0.74,-0.108
10.57,-0.35,1.269,-0.105
10.58,-0.065,0.89,0.164
10.59,-0.196,1.0,0.144
10.6,-0.272,0.779,-0.051
10.61,-0.339,1.07,-0.164
10.62,-0.126,1.118,-0.006
10.63,-0.19,0.767,0.218
10.64,-0.131,1.078,0.067
10.65,-0.345,0.765,-0.247
10.66,-0.175,1.263,-0.0
10.67,-0.105,0.868,0.137
10.68,-0.246,0.881,0.123
10.69,-0.226,0.917,-0.09
10.7,-0.349,1.04,-0.145
10.71,-0.121,1.16,0.091
10.72,-0.069,0.659,0.084
10.73,-0.241,1.04,-0.05
10.74,-0.278,0.915,-0.201
10.75,-0.148,1.226,-0.009
10.76,-0.146,0.776,0.197
10.77,-0.132,0.929,0.123
10.78,-0.422,0.997,-0.203
10.79,-0.209,0.957,-0.022
10.8,-0.142,1.182,0.145
10.81,-0.252,0.605,0.165
10.82,-0.284,1.119,-0.063
10.83,-0.292,0.893,-0.246
10.84,-0.106,1.203,0.109
10.85,-0.064,0.824,0.099
10.86,-0.264,0.81,0.058
10.87,-0.393,1.177,-0.141
10.88,-0.126,0.903,-0.071
10.89,-0.176,1.108,0.177
10.9,-0.109,0.703,0.123
10.91,-0.48,1.098,-0.173
10.92,-0.172,0.94,-0.098
10.93,-0.096,1.159,0.098
10.94,-0.171,0.791,0.126
10.95,-0.256,0.803,-0.022
10.96,-0.349,1.219,-0.258
10.97,-0.036,0.871,0.038
10.98,-0.199,1.196,0.188
10.99,-0.115,0.614,0.022
11.0,-0.448,1.194,-0.206
11.01,-0.147,1.016,0.001
11.02,-0.111,1.025,0.149
11.03,-0.244,0.9,0.15
11.04,-0.298,0.779,-0.137
11.05,-0.296,1.265,-0.181
11.06,-0.067,0.867,0.141
11.07,-0.163,1.035,0.12
11.08,-0.214,0.705,-0.009
11.09,-0.447,1.233,-0.187
11.1,-0.067,0.936,-0.014
11.11,-0.13,0.936,0.164
11.12,-0.167,0.985,0.078
11.13,-0.411,0.937,-0.203
11.14,-0.194,1.225,-0.028
11.15,-0.059,0.796,0.101
11.16,-0.22,1.031,0.152
11.17,-0.24,0.731,-0.128
11.18,-0.32,1.239,-0.169
11.19,-0.079,0.941,0.158
11.2,-0.133,0.932,0.144
11.21,-0.263,0.855,-0.014
11.22,-0.357,0.999,-0.205
11.23,-0.075,1.203,-0.017
11.24,-0.194,0.735,0.152
11.25,-0.104,1.046,0.057
11.26,-0.332,0.81,-0.162
11.27,-0.3,1.226,-0.08
11.28,-0.011,0.87,0.104
11.29,-0.165,0.886,0.197
11.3,-0.41,0.991,-0.024
11.31,-0.269,0.919,-0.166
11.32,-0.09,1.237,0.041
11.33,-0.086,0.708,0.139
11.34,-0.23,1.042,0.017
11.35,-0.421,0.898,-0.147
11.36,-0.17,1.155,-0.054
11.37,-0.107,0.859,0.115
11.38,-0.163,0.862,0.128
11.39,-0.397,1.077,-0.187
11.4,-0.198,0.877,-0.108
11.41,-0.045,1.248,0.088
11.42,-0.09,0.598,0.132
11.43,-0.319,1.053,-0.033
11.44,-0.305,0.962,-0.265
11.45,-0.048,1.031,0.001
11.46,-0.167,0.969,0.167
11.47,-0.162,0.687,0.049
11.48,-0.428,1.221,-0.187
11.49,-0.173,0.903,-0.057
11.5,-0.106,1.086,0.092
11.51,-0.076,0.719,0.133
11.52,-0.408,1.029,-0.161
11.53,-0.212,0.965,-0.178
11.54,-0.069,1.132,0.086
11.55,-0.19,0.873,0.122
11.56,-0.158,0.724,-0.012
11.57,-0.441,1.35,-0.209
11.58,-0.035,0.779,0.002
11.59,-0.141,1.155,0.173
11.6,-0.137,0.721,0.081
11.61,-0.432,1.078,-0.196
11.62,-0.134,1.076,-0.08
11.63,-0.13,0.932,0.126
11.64,-0.135,0.973,0.169
11.65,-0.314,0.766,-0.091
11.66,-0.381,1.229,-0.159
11.67,-0.059,0.917,0.104
11.68,-0.178,1.076,0.14
11.69,-0.167,0.697,0.032
11.7,-0.425,1.182,-0.138
11.71,-0.181,1.091,-0.009
11.72,-0.167,0.813,0.155
11.73,-0.176,1.055,0.116
11.74,-0.358,0.738,-0.175
11.75,-0.268,1.306,-0.106
11.76,0.008,0.897,0.069
11.77,-0.189,0.918,0.13
11.78,-0.222,0.844,0.003
11.79,-0.388,1.088,-0.261
11.8,-0.094,1.097,-0.003
11.81,-0.089,0.823,0.11
11.82,-0.188,0.992,0.017
11.83,-0.382,0.829,-0.147
11.84,-0.163,1.315,-0.051
11.85,-0.131,0.755,0.08
11.86,-0.053,0.922,0.107
11.87,-0.366,0.939,-0.134
11.88,-0.282,0.959,-0.119
11.89,-0.066,1.244,0.086
11.9,-0.199,0.599,0.122
11.91,-0.174,1.094,0.006
11.92,-0.36,0.978,-0.193
11.93,-0.098,1.105,-0.017
11.94,-0.062,0.818,0.146
11.95,-0.175,0.968,0.037
11.96,-0.323,0.858,-0.165
11.97,-0.155,1.174,-0.054
11.98,-0.111,0.928,0.082
11.99,-0.164,0.741,0.197
12.0,-0.311,1.145,-0.136
12.01,-0.339,0.813,-0.199
12.02,-0.053,1.283,0.147
12.03,-0.09,0.756,0.115
12.04,-0.3,0.947,0.032
12.05,-0.34,1.073,-0.144
12.06,-0.171,1.013,-0.048
12.07,-0.253,0.968,0.17
12.08,-0.01,0.75,0.105
12.09,-0.5,1.171,-0.206
12.1,-0.251,0.853,-0.046
12.11,-0.069,1.26,0.087
12.12,-0.17,0.685,0.129
12.13,-0.206,0.941,0.002
12.14,-0.347,1.112,-0.248
12.15,-0.12,0.918,0.027
12.16,-0.093,1.116,0.132
12.17,-0.149,0.606,0.044
12.18,-0.475,1.252,-0.19
12.19,-0.042,0.903,-0.07
12.2,-0.164,1.093,0.113
12.21,-0.112,0.822,0.211
12.22,-0.314,0.896,-0.11
12.23,-0.316,1.112,-0.145
12.24,-0.085,1.001,0.12
12.25,-0.186,1.032,0.089
12.26,-0.177,0.619,0.008
12.27,-0.422,1.375,-0.177
12.28,-0.093,0.892,-0.034
12.29,-0.158,1.041,0.17
12.3,-0.124,0.818,0.118
12.31,-0.438,0.909,-0.158
12.32,-0.215,1.188,-0.125
12.33,-0.039,0.837,0.075
12.34,-0.196,1.029,0.13
12.35,-0.234,0.709,-0.054
12.36,-0.343,1.263,-0.205
12.37,-0.109,0.896,0.035
12.38,-0.126,1.016,0.197
12.39,-0.188,0.863,0.015
12.4,-0.406,0.884,-0.172
12.41,-0.128,1.272,-0.043
12.42,-0.114,0.746,0.119
12.43,-0.254,1.038,0.146
12.44,-0.229,0.761,-0.159
12.45,-0.292,1.163,-0.222
12.46,-0.072,1.005,0.166
12.47,-0.131,0.843,0.159
12.48,-0.264,0.936,0.006
12.49,-0.314,0.972,-0.191
12.5,-0.152,1.176,-0.037
12.51,-0.184,0.694,0.181
12.52,-0.105,1.061,0.083
12.53,-0.418,0.859,-0.229
12.54,-0.194,1.122,-0.072
12.55,-0.072,0.96,0.07
12.56,-0.185,0.76,0.162
12.57,-0.228,1.066,-0.046
12.58,-0.331,0.847,-0.197
12.59,-0.168,1.263,0.114
12.6,-0.088,0.765,0.132
12.61,-0.316,0.979,-0.01
12.62,-0.333,0.917,-0.159
12.63,-0.126,1.139,-0.107
12.64,-0.195,0.928,0.126
12.65,-0.105,0.747,0.163
12.66,-0.343,1.161,-0.184
12.67,-0.266,0.809,-0.136
12.68,-0.07,1.302,0.119
12.69,-0.135,0.676,0.137
12.7,-0.308,0.974,0.016
12.71,-0.312,1.057,-0.215
12.72,-0.115,0.968,-0.003
12.73,-0.237,1.06,0.187
12.74,-0.021,0.689,0.096
12.75,-0.514,1.196,-0.191
12.76,-0.043,0.938,-0.063
12.77,-0.149,1.13,0.069
12.78,-0.124,0.668,0.183
12.79,-0.349,1.113,-0.11
12.8,-0.321,0.842,-0.201
12.81,-0.055,1.174,0.127
12.82,-0.203,0.931,0.137
12.83,-0.123,0.732,-0.015
12.84,-0.422,1.318,-0.185
12.85,-0.177,0.858,0.026
12.86,-0.185,1.104,0.115
12.87,-0.104,0.723,0.14
12.88,-0.422,1.09,-0.177
12.89,-0.201,0.962,-0.047
12.9,-0.197,1.121,0.117
12.91,-0.135,0.86,0.128
12.92,-0.21,0.801,-0.022
12.93,-0.44,1.246,-0.221
12.94,-0.072,0.79,0.017
12.95,-0.122,1.229,0.144
12.96,-0.155,0.663,0.081
12.97,-0.425,1.104,-0.213
12.98,-0.095,1.077,-0.079
12.99,-0.107,0.913,0.081
13.0,-0.166,0.965,0.151
13.01,-0.283,0.782,-0.128
13.02,-0.319,1.239,-0.156
13.03,-0.059,0.883,0.1
13.04,-0.154,1.023,0.098
13.05,-0.21,0.738,0.016
13.06,-0.403,1.165,-0.213
13.07,-0.071,1.021,-0.08
13.08,-0.155,0.814,0.187
13.09,-0.12,1.033,0.118
13.1,-0.396,0.735,-0.178
13.11,-0.273,1.273,-0.11
13.12,-0.054,0.892,0.119
13.13,-0.158,0.922,0.108
13.14,-0.23,0.868,0.001
13.15,-0.402,1.119,-0.235
13.16,-0.107,1.022,0.013
13.17,-0.079,0.863,0.157
13.18,-0.165,0.982,0.004
13.19,-0.36,0.803,-0.209
13.2,-0.123,1.33,-0.043
13.21,-0.169,0.756,0.129
13.22,-0.197,0.907,0.171
13.23,-0.3,0.957,-0.098
13.24,-0.301,0.976,-0.183
13.25,-0.093,1.208,0.106
13.26,-0.018,0.688,0.124
13.27,-0.33,1.044,0.011
13.28,-0.294,0.919,-0.144
13.29,-0.141,1.197,-0.027
13.3,-0.154,0.747,0.192
13.31,-0.114,0.924,0.09
13.32,-0.401,1.003,-0.195
13.33,-0.228,0.931,-0.056
13.34,-0.044,1.259,0.104
13.35,-0.145,0.622,0.114
13.36,-0.286,1.125,-0.01
13.37,-0.331,0.917,-0.231
13.38,-0.178,1.074,0.011
13.39,-0.006,0.891,0.144
13.4,-0.148,0.824,-0.003
13.41,-0.478,1.092,-0.189
13.42,-0.022,0.924,-0.13
13.43,-0.197,1.147,0.101
13.44,-0.191,0.666,0.189
13.45,-0.238,1.129,-0.168
13.46,-0.323,0.875,-0.156
13.47,-0.003,1.161,0.101
13.48,-0.074,0.876,0.09
13.49,-0.255,0.75,-0.001
13.5,-0.339,1.288,-0.192
13.51,-0.129,0.86,-0.029
13.52,-0.288,1.135,0.188
13.53,0.013,0.701,0.124
13.54,-0.493,1.138,-0.21
13.55,-0.24,0.912,-0.025
13.56,-0.01,1.098,0.074
13.57,-0.226,0.726,0.17
13.58,-0.175,0.975,-0.073
13.59,-0.314,1.117,-0.223
13.6,-0.227,0.916,0.119
13.61,-0.06,1.149,0.119
13.62,-0.185,0.574,0.006
13.63,-0.505,1.283,-0.134
13.64,-0.063,0.913,-0.081
13.65,-0.255,1.021,0.125
13.66,-0.041,0.843,0.197
13.67,-0.348,0.941,-0.179
13.68,-0.359,1.086,-0.122
13.69,0.055,0.963,0.102
13.7,-0.144,1.04,0.073
13.71,-0.229,0.642,0.028
13.72,-0.349,1.348,-0.205
13.73,-0.148,0.885,-0.011
13.74,-0.174,0.975,0.153
13.75,0.01,0.895,0.083
13.76,-0.48,0.897,-0.196
13.77,-0.253,1.184,-0.051
13.78,0.049,0.849,0.062
13.79,-0.231,1.012,0.086
13.8,-0.203,0.723,-0.038
13.81,-0.331,1.243,-0.193
13.82,-0.208,0.954,0.103
13.83,-0.064,0.948,0.161
13.84,-0.173,0.868,-0.001
13.85,-0.384,0.936,-0.099
13.86,-0.156,1.31,-0.021
13.87,-0.136,0.704,0.075
13.88,-0.197,1.108,0.209
13.89,-0.217,0.781,-0.193
13.9,-0.328,1.096,-0.145
13.91,-0.084,1.067,0.13
13.92,-0.104,0.81,0.122
13.93,-0.34,0.972,0.043
13.94,-0.291,0.938,-0.158
13.95,-0.182,1.216,-0.02
13.96,-0.149,0.646,0.211
13.97,-0.081,1.066,0.087
13.98,-0.389,0.83,-0.249
13.99,-0.221,1.057,-0.028
14.0,-0.025,1.106,0.089
14.01,-0.245,0.646,0.112
14.02,-0.277,1.111,0.012
14.03,-0.249,0.941,-0.227
14.04,-0.242,1.152,0.004
14.05,0.058,0.746,0.182
14.06,-0.173,0.984,-0.011
14.07,-0.538,0.9,-0.121
14.08,-0.051,1.069,-0.044
14.09,-0.188,1.047,0.07
14.1,-0.219,0.661,0.186
14.11,-0.206,1.152,-0.163
14.12,-0.337,0.846,-0.153
14.13,-0.084,1.267,0.148
14.14,0.0,0.741,0.12
14.15,-0.393,0.899,-0.009
14.16,-0.258,1.085,-0.179
14.17,-0.082,0.997,-0.04
14.18,-0.289,1.006,0.155
14.19,0.012,0.684,0.103
14.2,-0.48,1.228,-0.218
14.21,-0.29,0.812,-0.014
14.22,-0.025,1.25,0.084
14.23,-0.165,0.708,0.13
14.24,-0.23,0.946,-0.059
14.25,-0.239,1.115,-0.205
14.26,-0.217,0.922,0.085
14.27,-0.157,1.097,0.128
14.28,-0.043,0.619,0.016
14.29,-0.535,1.31,-0.194
14.3,-0.061,0.886,-0.066
14.31,-0.123,1.094,0.028
14.32,-0.112,0.822,0.22
14.33,-0.295,0.868,-0.174
14.34,-0.305,1.1,-0.159
14.35,-0.053,0.979,0.107
14.36,-0.138,1.036,0.117
14.37,-0.248,0.61,0.058
14.38,-0.385,1.356,-0.223
14.39,-0.067,0.799,0.007
14.4,-0.162,1.202,0.173
14.41,-0.076,0.665,0.083
14.42,-0.51,1.037,-0.158
14.43,-0.043,1.138,-0.054
14.44,-0.143,0.926,0.084
14.45,-0.294,1.009,0.194
14.46,-0.188,0.736,-0.102
14.47,-0.343,1.25,-0.233
14.48,-0.091,0.877,0.129
14.49,-0.085,1.114,0.137
14.5,-0.25,0.714,0.028
14.51,-0.357,1.121,-0.169
14.52,-0.067,1.074,-0.073
14.53,-0.236,0.809,0.145
14.54,-0.065,1.068,0.115
14.55,-0.288,0.701,-0.196
14.56,-0.39,1.263,-0.044
14.57,-0.001,0.987,0.089
14.58,-0.162,0.882,0.062
14.59,-0.251,0.856,0.074
14.6,-0.273,1.138,-0.232
14.61,-0.174,1.018,-0.029
14.62,-0.104,0.743,0.23
14.63,-0.089,1.072,0.058
14.64,-0.45,0.725,-0.194
14.65,-0.173,1.26,-0.029
14.66,-0.046,0.927,0.071
14.67,-0.268,0.822,0.124
14.68,-0.232,0.987,0.003
14.69,-0.297,1.011,-0.239
14.7,-0.127,1.107,0.013
14.71,0.022,0.783,0.166
14.72,-0.205,1.01,0.015
14.73,-0.481,0.829,-0.124
14.74,-0.033,1.25,-0.069
14.75,-0.183,0.84,0.067
14.76,-0.181,0.841,0.227
14.77,-0.271,1.048,-0.151
14.78,-0.368,0.867,-0.145
14.79,0.015,1.26,0.097
14.8,-0.008,0.662,0.085
14.81,-0.394,1.019,0.042
14.82,-0.22,0.972,-0.205
14.83,-0.188,1.096,0.003
14.84,-0.255,0.883,0.178
14.85,-0.016,0.811,0.097
14.86,-0.442,1.107,-0.234
14.87,-0.214,0.825,-0.038
14.88,-0.052,1.274,0.09
14.89,-0.176,0.615,0.156
14.9,-0.287,1.062,0.016
14.91,-0.238,0.972,-0.259
14.92,-0.181,1.005,0.032
14.93,-0.135,1.046,0.158
14.94,-0.098,0.693,0.042
14.95,-0.478,1.171,-0.152
14.96,-0.074,0.939,-0.063
14.97,-0.158,1.156,0.055
14.98,-0.125,0.68,0.218
14.99,-0.302,1.096,-0.094
15.0,-0.273,0.926,-0.201
15.01,-0.137,1.026,0.131
15.02,-0.163,1.038,0.112
15.03,-0.217,0.649,-0.036
15.04,-0.44,1.296,-0.124
15.05,-0.097,0.889,-0.025
15.06,-0.204,1.101,0.103
15.07,-0.083,0.776,0.183
15.08,-0.409,1.011,-0.189
15.09,-0.233,0.996,-0.123
15.1,0.026,1.075,0.087
15.11,-0.172,0.955,0.084
15.12,-0.234,0.693,0.004
15.13,-0.396,1.366,-0.209
15.14,-0.104,0.775,-0.045
15.15,-0.17,1.078,0.217
15.16,-0.132,0.781,0.081
15.17,-0.468,0.942,-0.221
15.18,-0.087,1.154,-0.055
15.19,-0.058,0.881,0.075
15.2,-0.131,0.885,0.192
15.21,-0.299,0.797,-0.111
15.22,-0.295,1.187,-0.22
15.23,-0.018,0.927,0.143
15.24,-0.204,1.044,0.129
15.25,-0.185,0.68,0.014
15.26,-0.379,1.259,-0.207
15.27,-0.112,0.998,-0.037
15.28,-0.209,0.851,0.201
15.29,-0.132,0.978,0.115
15.3,-0.404,0.8,-0.202
15.31,-0.18,1.247,-0.087
15.32,-0.063,0.888,0.091
15.33,-0.209,0.943,0.12
15.34,-0.213,0.748,-0.02
15.35,-0.304,1.204,-0.223
15.36,-0.093,1.02,-0.072
15.37,-0.121,0.84,0.208
15.38,-0.186,1.026,0.062
15.39,-0.398,0.793,-0.189
15.4,-0.165,1.313,-0.05
15.41,-0.029,0.784,0.096
15.42,-0.296,0.955,0.18
15.43,-0.195,0.864,-0.094
15.44,-0.377,1.052,-0.175
15.45,-0.088,1.125,0.093
15.46,-0.002,0.793,0.112
15.47,-0.315,0.997,0.029
15.48,-0.353,0.854,-0.139
15.49,-0.161,1.25,-0.043
15.5,-0.13,0.739,0.127
15.51,-0.142,1.0,0.155
15.52,-0.312,0.928,-0.194
15.53,-0.24,0.992,-0.086
15.54,-0.107,1.232,0.099
15.55,-0.104,0.611,0.151
15.56,-0.309,1.091,-0.003
15.57,-0.284,0.903,-0.217
15.58,-0.156,1.151,0.016
15.59,-0.199,0.845,0.215
15.6,-0.137,0.872,0.111
15.61,-0.396,1.033,-0.227
15.62,-0.221,0.92,-0.016
15.63,-0.124,1.164,0.071
15.64,-0.12,0.639,0.165
15.65,-0.342,1.144,-0.056
15.66,-0.292,0.862,-0.223
15.67,-0.137,1.188,0.111
15.68,-0.104,0.882,0.111
15.69,-0.177,0.77,0.049
15.7,-0.443,1.219,-0.179
15.71,-0.03,0.926,-0.077
15.72,-0.216,1.106,0.088
15.73,-0.106,0.685,0.177
15.74,-0.404,1.125,-0.162
15.75,-0.27,0.876,-0.169
15.76,-0.021,1.195,0.111
15.77,-0.097,0.823,0.086
15.78,-0.271,0.797,0.046
15.79,-0.358,1.279,-0.23
15.8,-0.08,0.787,-0.019
15.81,-0.258,1.155,0.212
15.82,-0.019,0.678,0.042
15.83,-0.466,1.132,-0.218
15.84,-0.142,0.966,-0.014
15.85,-0.163,1.04,0.13
15.86,-0.159,0.885,0.154
15.87,-0.245,0.807,-0.06
15.88,-0.376,1.241,-0.155
15.89,-0.087,0.869,0.067
15.9,-0.139,1.146,0.138
15.91,-0.151,0.622,0.013
15.92,-0.497,1.191,-0.139
15.93,-0.103,1.047,-0.05
15.94,-0.166,0.874,0.087
15.95,-0.151,1.025,0.196
15.96,-0.315,0.759,-0.191
15.97,-0.307,1.199,-0.151
15.98,0.042,0.924,0.115
15.99,-0.151,1.012,0.095
16.0,-0.321,0.741,0.021
16.01,-0.3,1.168,-0.201
16.02,-0.104,0.917,-0.006
16.03,-0.116,0.989,0.194
16.04,-0.137,0.866,0.061
16.05,-0.427,0.883,-0.185
16.06,-0.18,1.26,-0.067
16.07,-0.034,0.737,0.099
16.08,-0.23,1.081,0.176
16.09,-0.238,0.782,-0.094
16.1,-0.347,1.164,-0.215
16.11,-0.064,0.989,0.09
16.12,-0.101,0.926,0.158
16.13,-0.277,0.861,0.008
16.14,-0.384,0.939,-0.129
16.15,-0.113,1.257,-0.048
16.16,-0.16,0.649,0.123
16.17,-0.12,1.083,0.14
16.18,-0.336,0.825,-0.238
16.19,-0.293,1.098,-0.079
16.2,0.029,1.071,0.082
16.21,-0.127,0.725,0.079
16.22,-0.336,1.021,0.013
16.23,-0.244,0.94,-0.199
16.24,-0.091,1.23,-0.055
16.25,-0.099,0.696,0.21
16.26,-0.135,1.004,0.087
16.27,-0.461,0.915,-0.186
16.28,-0.112,1.064,-0.077
16.29,-0.153,0.979,0.111
16.3,-0.198,0.735,0.171
16.31,-0.322,1.132,-0.125
16.32,-0.304,0.816,-0.179
16.33,-0.044,1.264,0.097
16.34,-0.132,0.727,0.175
16.35,-0.282,0.932,-0.008
16.36,-0.401,1.043,-0.16
16.37,-0.072,1.019,-0.008
16.38,-0.281,1.023,0.131
16.39,-0.032,0.69,0.105
16.4,-0.433,1.191,-0.223
16.41,-0.247,0.865,-0.059
16.42,-0.092,1.258,0.121
16.43,-0.124,0.686,0.09
16.44,-0.286,0.931,-0.028
16.45,-0.336,1.077,-0.19
16.46,-0.057,0.942,-0.01
16.47,-0.134,1.065,0.124
16.48,-0.085,0.604,0.022
16.49,-0.49,1.287,-0.206
16.5,-0.025,0.9,-0.06
16.51,-0.177,1.079,0.118
16.52,-0.152,0.8,0.188
16.53,-0.342,0.945,-0.145
16.54,-0.315,1.058,-0.144
16.55,-0.037,0.955,0.142
16.56,-0.215,1.053,0.117
16.57,-0.132,0.602,-0.041
16.58,-0.481,1.37,-0.197
16.59,-0.055,0.86,0.026
16.6,-0.179,1.055,0.146
16.61,-0.13,0.839,0.111
16.62,-0.401,0.922,-0.177
16.63,-0.238,1.18,-0.089
16.64,-0.04,0.845,0.121
16.65,-0.197,1.021,0.119
16.66,-0.261,0.685,-0.054
16.67,-0.347,1.277,-0.213
16.68,-0.065,0.891,0.068
16.69,-0.091,1.0,0.137
16.7,-0.108,0.826,-0.009
16.71,-0.5,0.976,-0.135
16.72,-0.129,1.231,-0.028
16.73,-0.082,0.745,0.093
16.74,-0.165,1.069,0.168
16.75,-0.337,0.776,-0.173
16.76,-0.322,1.162,-0.169
16.77,0.006,0.975,0.107
16.78,-0.153,0.834,0.132
16.79,-0.338,0.964,0.004
16.8,-0.25,0.948,-0.226
16.81,-0.158,1.195,-0.01
16.82,-0.076,0.729,0.199
16.83,-0.203,1.024,0.021
16.84,-0.41,0.791,-0.137
16.85,-0.174,1.293,-0.077
16.86,-0.135,0.718,0.124
16.87,-0.094,0.969,0.156
16.88,-0.325,0.944,-0.142
16.89,-0.366,0.986,-0.065
16.9,-0.021,1.238,0.056
16.91,-0.109,0.626,0.123
16.92,-0.322,1.099,0.051
16.93,-0.303,0.924,-0.243
16.94,-0.136,1.185,-0.05
16.95,-0.132,0.84,0.214
16.96,-0.153,0.845,0.063
16.97,-0.402,1.081,-0.183
16.98,-0.139,0.996,-0.032
16.99,-0.169,1.107,0.084
17.0,-0.141,0.602,0.176
17.01,-0.294,1.202,-0.13
17.02,-0.261,0.826,-0.242
17.03,-0.125,1.159,0.144
17.04,-0.099,0.909,0.15
17.05,-0.253,0.8,0.025
17.06,-0.475,1.204,-0.139
17.07,-0.067,0.915,-0.028
17.08,-0.323,1.142,0.183
17.09,0.025,0.661,0.121
17.1,-0.473,1.127,-0.168
17.11,-0.31,0.902,-0.056
17.12,-0.04,1.166,0.115
17.13,-0.184,0.822,0.099
17.14,-0.171,0.82,0.017
17.15,-0.358,1.306,-0.255
17.16,-0.082,0.756,-0.019
17.17,-0.135,1.218,0.171
17.18,-0.116,0.68,0.081
17.19,-0.492,1.113,-0.195
17.2,-0.046,1.008,-0.112
17.21,-0.079,0.997,0.093
17.22,-0.203,0.922,0.202
17.23,-0.264,0.787,-0.113
17.24,-0.368,1.212,-0.184
17.25,-0.063,0.887,0.132
17.26,-0.2,1.131,0.132
17.27,-0.202,0.627,0.016
17.28,-0.324,1.238,-0.185
17.29,-0.217,1.009,-0.074
17.3,-0.13,0.822,0.153
17.31,-0.082,1.021,0.12
17.32,-0.36,0.741,-0.173
17.33,-0.314,1.298,-0.022
17.34,-0.079,0.894,0.091
17.35,-0.203,0.932,0.113
17.36,-0.18,0.783,0.061
17.37,-0.407,1.193,-0.269
17.38,-0.052,0.96,-0.035
17.39,-0.126,0.885,0.167
17.4,-0.205,1.014,0.078
17.41,-0.34,0.773,-0.177
17.42,-0.209,1.368,-0.074
17.43,-0.099,0.75,0.118
17.44,-0.148,0.947,0.181
17.45,-0.24,0.918,-0.088
17.46,-0.396,1.008,-0.204
17.47,-0.068,1.095,0.108
17.48,-0.116,0.834,0.164
17.49,-0.247,0.99,0.047
17.5,-0.383,0.857,-0.161
17.51,-0.205,1.281,-0.057
17.52,-0.289,0.757,-0.11
17.53,-0.356,1.238,-0.142
17.54,-0.103,0.979,0.128
17.55,-0.148,0.963,0.142
17.56,-0.23,0.823,0.027
17.57,-0.419,1.031,-0.174
17.58,-0.113,1.156,-0.041
17.59,-0.151,0.902,0.18
17.6,-0.104,1.008,0.088
17.61,-0.352,0.725,-0.188
17.62,-0.209,1.343,-0.014
17.63,-0.111,0.84,0.092
17.64,-0.203,0.938,0.119
17.65,-0.185,0.846,-0.032
17.66,-0.373,1.093,-0.223
17.67,-0.109,1.078,0.06
17.68,-0.057,0.861,0.117
17.69,-0.216,0.991,0.01
17.7,-0.387,0.818,-0.139
17.71,-0.092,1.296,-0.095
17.72,-0.124,0.784,0.126
17.73,-0.091,0.968,0.133
17.74,-0.306,0.897,-0.112
17.75,-0.286,0.936,-0.154
17.76,-0.057,1.232,0.092
17.77,-0.107,0.673,0.102
17.78,-0.274,1.081,0.085
17.79,-0.338,0.957,-0.197
17.8,-0.153,1.171,-0.031
17.81,-0.117,0.788,0.169
17.82,-0.135,0.877,0.099
17.83,-0.407,0.978,-0.191
17.84,-0.234,0.949,-0.079
17.85,-0.1,1.235,0.073
17.86,-0.086,0.588,0.115
17.87,-0.314,1.128,-0.021
17.88,-0.255,0.946,-0.225
17.89,-0.119,1.11,0.013
17.9,-0.071,0.839,0.162
17.91,-0.13,0.846,0.041
17.92,-0.505,1.092,-0.21
17.93,-0.004,0.876,-0.11
17.94,-0.183,1.187,0.12
17.95,-0.169,0.656,0.162
17.96,-0.333,1.14,-0.109
17.97,-0.264,0.884,-0.191
17.98,-0.12,1.175,0.146
17.99,-0.098,0.877,0.167
18.0,-0.254,0.793,0.007
18.01,-0.44,1.242,-0.182
18.02,-0.11,0.841,-0.003
18.03,-0.266,1.155,0.156
18.04,-0.065,0.681,0.115
18.05,-0.445,1.147,-0.19
18.06,-0.262,0.95,-0.025
18.07,-0.05,1.099,0.109
18.08,-0.166,0.847,0.118
18.09,-0.233,0.757,-0.029
18.1,-0.356,1.282,-0.234
18.11,-0.039,0.858,-0.02
18.12,-0.193,1.171,0.17
18.13,-0.042,0.637,0.034
18.14,-0.53,1.18,-0.195
18.15,-0.094,1.073,-0.08
18.16,-0.114,0.965,0.117
18.17,-0.164,0.946,0.177
18.18,-0.273,0.765,-0.127
18.19,-0.252,1.262,-0.172
18.2,-0.117,0.904,0.056
18.21,-0.104,1.05,0.095
18.22,-0.213,0.672,0.012
18.23,-0.482,1.188,-0.139
18.24,0.021,1.062,-0.042
18.25,-0.187,0.828,0.146
18.26,-0.154,1.029,0.176
18.27,-0.351,0.752,-0.184
18.28,-0.289,1.23,-0.126
18.29,0.068,0.896,0.094
18.3,-0.222,0.957,0.108
18.31,-0.259,0.773,-0.018
18.32,-0.338,1.124,-0.222
18.33,-0.094,1.063,0.022
18.34,-0.082,0.841,0.199
18.35,-0.107,1.023,0.018
18.36,-0.515,0.769,-0.169
18.37,-0.113,1.307,-0.068
18.38,-0.043,0.799,0.053
18.39,-0.202,0.928,0.159
18.4,-0.249,0.819,-0.147
18.41,-0.435,1.155,-0.06
18.42,0.006,1.023,0.109
18.43,-0.139,0.781,0.116
18.44,-0.355,0.999,0.053
18.45,-0.307,0.937,-0.235
18.46,-0.055,1.196,-0.077
18.47,-0.088,0.728,0.189
18.48,-0.183,1.008,0.077
18.49,-0.354,0.896,-0.179
18.5,-0.168,1.154,-0.071
18.51,-0.126,0.959,0.154
18.52,-0.235,0.745,0.154
18.53,-0.306,1.13,-0.083
18.54,-0.259,0.825,-0.176
18.55,-0.222,1.263,0.113
18.56,0.005,0.723,0.105
18.57,-0.22,0.976,0.036
18.58,-0.434,0.978,-0.165
18.59,-0.083,1.023,-0.03
18.6,-0.208,1.007,0.107
18.61,-0.136,0.725,0.144
18.62,-0.351,1.135,-0.133
18.63,-0.283,0.876,-0.132
18.64,-0.093,1.235,0.115
18.65,-0.056,0.681,0.097
18.66,-0.302,0.935,-0.016
18.67,-0.329,1.087,-0.181
18.68,-0.037,0.932,-0.008
18.69,-0.208,1.067,0.175
18.7,-0.038,0.663,0.084
18.71,-0.481,1.234,-0.204
18.72,-0.241,0.873,-0.009
18.73,-0.041,1.16,0.057
18.74,-0.142,0.75,0.144
18.75,-0.325,0.935,-0.021
18.76,-0.331,1.124,-0.198
18.77,-0.074,0.913,0.097
18.78,-0.196,1.092,0.128
18.79,-0.112,0.604,0.006
18.8,-0.512,1.359,-0.173
18.81,-0.083,0.906,-0.053
18.82,-0.183,1.043,0.147
18.83,-0.136,0.861,0.161
18.84,-0.37,0.905,-0.148
18.85,-0.248,1.127,-0.164
18.86,-0.002,0.929,0.107
18.87,-0.209,1.067,0.128
18.88,-0.271,0.667,0.03
18.89,-0.34,1.252,-0.233
18.9,-0.04,0.929,0.002
18.91,-0.2,1.046,0.197
18.92,-0.173,0.84,0.063
18.93,-0.375,0.91,-0.164
18.94,-0.14,1.294,-0.078
18.95,-0.082,0.709,0.102
18.96,-0.187,1.071,0.181
18.97,-0.307,0.741,-0.122
18.98,-0.331,1.13,-0.164
18.99,-0.052,1.042,0.131
19.0,-0.193,0.89,0.152
19.01,-0.294,0.901,0.021
19.02,-0.303,0.97,-0.189
19.03,-0.212,1.194,-0.052
19.04,-0.09,0.706,0.147
19.05,-0.113,1.072,0.112
19.06,-0.34,0.807,-0.185
19.07,-0.249,1.158,-0.059
19.08,-0.146,1.004,0.096
19.09,-0.187,0.736,0.17
19.1,-0.258,1.066,-0.002
19.11,-0.373,0.877,-0.209
19.12,-0.139,1.17,0.037
19.13,-0.065,0.803,0.167
19.14,-0.209,0.978,0.039
19.15,-0.356,0.893,-0.136
19.16,-0.173,1.175,-0.072
19.17,-0.176,0.943,0.063
19.18,-0.16,0.739,0.159
19.19,-0.307,1.115,-0.108
19.2,-0.332,0.812,-0.163
19.21,-0.112,1.259,0.121
19.22,-0.162,0.661,0.137
19.23,-0.256,1.023,0.014
19.24,-0.293,0.99,-0.16
19.25,-0.208,1.091,-0.051
19.26,-0.16,0.856,0.215
19.27,-0.066,0.871,0.095
19.28,-0.452,1.044,-0.174
19.29,-0.219,0.917,-0.035
19.3,-0.067,1.249,0.075
19.31,-0.174,0.592,0.118
19.32,-0.211,1.083,0.011
19.33,-0.377,0.945,-0.246
19.34,-0.154,1.042,0.019
19.35,-0.063,1.008,0.152
19.36,-0.183,0.704,0.029
19.37,-0.45,1.175,-0.141
19.38,-0.041,0.989,-0.07
19.39,-0.173,1.143,0.061
19.4,-0.124,0.653,0.212
19.41,-0.324,1.098,-0.129
19.42,-0.411,0.912,-0.216
19.43,-0.041,1.06,0.147
19.44,-0.033,1.019,0.081
19.45,-0.282,0.704,0.032
19.46,-0.35,1.271,-0.145
19.47,-0.17,0.839,-0.057
19.48,-0.301,1.098,0.198
19.49,0.063,0.799,0.106
19.5,-0.497,1.054,-0.227
19.51,-0.235,0.926,-0.071
19.52,0.075,1.124,0.075
19.53,-0.226,0.915,0.082
19.54,-0.19,0.709,0.05
19.55,-0.385,1.336,-0.225
19.56,-0.198,0.801,0.01
19.57,-0.144,1.125,0.206
19.58,-0.13,0.719,0.042
19.59,-0.504,1.056,-0.164
19.6,-0.117,1.131,-0.077
19.61,-0.1,0.823,0.126
19.62,-0.187,1.005,0.174
19.63,-0.251,0.775,-0.092
19.64,-0.329,1.194,-0.229
19.65,-0.109,0.892,0.146
19.66,-0.141,1.071,0.123
19.67,-0.195,0.771,0.001
19.68,-0.418,1.081,-0.14
19.69,-0.168,1.139,-0.051
19.7,-0.217,0.816,0.126
19.71,-0.07,1.028,0.093
19.72,-0.284,0.696,-0.185
19.73,-0.32,1.258,-0.103
19.74,0.007,0.931,0.058
19.75,-0.128,0.883,0.112
19.76,-0.276,0.885,0.057
19.77,-0.382,1.023,-0.217
19.78,-0.189,1.134,0.028
19.79,-0.157,0.789,0.143
19.8,-0.197,1.029,0.086
19.81,-0.319,0.753,-0.172
19.82,-0.229,1.275,-0.065
19.83,-0.107,0.921,0.092
19.84,-0.175,0.775,0.155
19.85,-0.31,1.002,-0.004
19.86,-0.342,0.943,-0.242
19.87,-0.141,1.17,0.022
19.88,-0.067,0.785,0.157
19.89,-0.217,1.019,0.012
19.9,-0.32,0.828,-0.198
19.91,-0.03,1.208,-0.109
19.92,-0.087,0.882,0.111
19.93,-0.209,0.836,0.187
19.94,-0.26,1.087,-0.114
19.95,-0.436,0.827,-0.187
19.96,-0.081,1.257,0.101
19.97,-0.054,0.738,0.114
19.98,-0.357,1.008,0.035
19.99,-0.299,0.991,-0.183
20.0,-0.138,1.084,-0.055
20.01,-0.201,0.915,0.206
20.02,-0.084,0.789,0.179
20.03,-0.443,0.96,-0.208
20.04,-0.123,0.958,-0.037
20.05,-0.085,1.228,0.058
20.06,-0.235,0.598,0.17
20.07,-0.252,1.141,0.014
20.08,-0.308,0.898,-0.274
20.09,-0.224,1.069,0.05
20.1,-0.009,0.907,0.144
20.11,-0.173,0.821,0.022
20.12,-0.457,1.079,-0.156
20.13,-0.024,0.917,-0.087
20.14,-0.185,1.166,0.081
20.15,-0.115,0.681,0.149
20.16,-0.324,1.141,-0.114
20.17,-0.324,0.847,-0.211
20.18,-0.046,1.211,0.136
20.19,-0.134,0.956,0.128
20.2,-0.263,0.72,0.027
20.21,-0.396,1.259,-0.198
20.22,-0.035,0.901,-0.088
20.23,-0.277,1.077,0.149
20.24,0.012,0.756,0.139
20.25,-0.463,1.112,-0.192
20.26,-0.333,0.848,-0.094
20.27,0.045,1.198,0.081
20.28,-0.213,0.87,0.109
20.29,-0.256,0.737,0.051
20.3,-0.298,1.362,-0.253
20.31,-0.131,0.773,-0.058
20.32,-0.094,1.166,0.167
20.33,-0.034,0.688,0.058
20.34,-0.542,1.074,-0.159
20.35,-0.058,1.071,-0.023
20.36,-0.134,0.987,0.084
20.37,-0.251,0.945,0.17
20.38,-0.195,0.782,-0.079
20.39,-0.451,1.272,-0.19
20.4,-0.079,0.826,0.09
20.41,-0.094,1.216,0.1
20.42,-0.178,0.608,0.033
20.43,-0.421,1.101,-0.143
20.44,-0.072,1.165,-0.143
20.45,-0.08,0.765,0.045
20.46,-0.135,1.067,0.181
20.47,-0.346,0.722,-0.172
20.48,-0.359,1.169,-0.191
20.49,0.012,0.934,0.136
20.5,-0.148,0.991,0.1
20.51,-0.199,0.735,0.013
20.52,-0.373,1.184,-0.172
20.53,-0.117,1.072,-0.056
20.54,-0.131,0.782,0.152
20.55,-0.086,1.067,0.14
20.56,-0.394,0.733,-0.185
20.57,-0.26,1.224,-0.028
20.58,-0.027,0.99,0.087
20.59,-0.193,0.847,0.084
20.6,-0.248,0.888,0.049
20.61,-0.35,1.094,-0.256
20.62,-0.116,1.033,-0.005
20.63,-0.081,0.815,0.199
20.64,-0.139,1.07,0.023
20.65,-0.396,0.77,-0.205
20.66,-0.176,1.267,0.007
20.67,-0.097,0.871,0.077
20.68,-0.301,0.865,0.21
20.69,-0.19,0.999,-0.067
20.7,-0.312,0.978,-0.226
20.71,-0.229,1.15,0.142
20.72,0.006,0.702,0.131
20.73,-0.27,1.002,-0.017
20.74,-0.366,0.893,-0.128
20.75,-0.11,1.186,-0.042
20.76,-0.166,0.805,0.096
20.77,-0.082,0.878,0.197
20.78,-0.399,1.054,-0.177
20.79,-0.39,0.809,-0.038
20.8,-0.008,1.272,0.06
20.81,-0.067,0.647,0.101
20.82,-0.335,1.027,0.023
20.83,-0.118,0.936,-0.214
20.84,-0.185,1.112,0.01
20.85,-0.046,0.802,0.208
20.86,-0.117,0.907,0.013
20.87,-0.499,1.057,-0.185
20.88,-0.0,0.991,-0.111
20.89,-0.162,1.114,0.076
20.9,-0.191,0.667,0.211
20.91,-0.251,1.163,-0.133
20.92,-0.28,0.805,-0.239
20.93,-0.102,1.209,0.155
20.94,-0.082,0.816,0.11
20.95,-0.333,0.838,0.054
20.96,-0.342,1.2,-0.163
20.97,-0.128,0.911,-0.014
20.98,-0.349,1.099,0.193
20.99,0.013,0.661,0.152
21.0,-0.402,1.176,-0.199
21.01,-0.294,0.885,-0.036
21.02,-0.078,1.203,0.066
21.03,-0.11,0.769,0.104
21.04,-0.296,0.846,0.015
21.05,-0.324,1.226,-0.227
21.06,-0.056,0.81,-0.062
21.07,-0.277,1.17,0.208
21.08,-0.018,0.656,0.136
21.09,-0.54,1.181,-0.223
21.1,-0.2,0.927,-0.027
21.11,-0.039,1.081,0.085
21.12,-0.243,0.85,0.191
21.13,-0.217,0.794,-0.068
21.14,-0.271,1.27,-0.215
21.15,-0.188,0.827,0.095
21.16,-0.13,1.129,0.149
21.17,-0.123,0.626,0.047
21.18,-0.505,1.198,-0.19
21.19,0.013,0.999,-0.059
21.2,-0.124,0.956,0.067
21.21,-0.198,0.934,0.211
21.22,-0.28,0.789,-0.115
21.23,-0.383,1.221,-0.168
21.24,-0.064,0.935,0.146
21.25,-0.136,1.032,0.106
21.26,-0.26,0.717,0.066
21.27,-0.402,1.199,-0.218
21.28,-0.076,0.969,-0.09
21.29,-0.179,0.906,0.161
21.3,-0.131,1.007,0.124
21.31,-0.372,0.759,-0.212
21.32,-0.229,1.269,-0.086
21.33,-0.032,0.881,0.077
21.34,-0.145,0.953,0.102
21.35,-0.272,0.783,0.015
21.36,-0.276,1.166,-0.207
21.37,-0.094,1.06,-0.02
21.38,-0.179,0.808,0.201
21.39,-0.128,1.015,0.062
21.4,-0.417,0.81,-0.201
21.41,-0.154,1.274,-0.047
21.42,-0.091,0.833,0.115
21.43,-0.235,0.931,0.142
21.44,-0.232,0.921,-0.102
21.45,-0.281,1.039,-0.212
21.46,-0.168,1.159,0.117
21.47,-0.064,0.722,0.123
21.48,-0.265,1.037,-0.012
21.49,-0.348,0.881,-0.146
21.5,-0.229,1.219,-0.03
21.51,-0.114,0.747,0.085
21.52,-0.092,0.951,0.181
21.53,-0.373,0.986,-0.175
21.54,-0.281,0.892,-0.122
21.55,0.001,1.288,0.045
21.56,-0.186,0.628,0.168
21.57,-0.322,1.058,0.037
21.58,-0.27,0.918,-0.215
21.59,-0.123,1.119,-0.006
21.6,-0.192,0.867,0.222
21.61,-0.116,0.85,0.092
21.62,-0.408,1.071,-0.216
21.63,-0.19,0.912,-0.029
21.64,-0.132,1.173,0.075
21.65,-0.109,0.625,0.154
21.66,-0.332,1.117,-0.062
21.67,-0.265,0.77,-0.172
21.68,-0.163,1.276,0.096
21.69,-0.102,0.782,0.125
21.7,-0.127,0.89,0.011
21.71,-0.479,1.076,-0.198
21.72,-0.064,0.971,-0.099
21.73,-0.138,1.041,0.102
21.74,-0.141,0.708,0.207
21.75,-0.403,1.151,-0.138
21.76,-0.289,0.834,-0.134
21.77,-0.057,1.241,0.124
21.78,-0.069,0.719,0.077
21.79,-0.27,0.921,0.014
21.8,-0.384,1.156,-0.247
21.81,-0.052,0.858,-0.0
21.82,-0.234,1.192,0.183
21.83,-0.081,0.637,0.085
21.84,-0.473,1.176,-0.167
21.85,-0.115,0.928,-0.073
21.86,-0.1,1.1,0.084
21.87,-0.185,0.804,0.192
21.88,-0.289,0.885,-0.063
21.89,-0.336,1.142,-0.243
21.9,-0.141,0.878,0.118
21.91,-0.137,1.17,0.098
21.92,-0.142,0.599,-0.012
21.93,-0.361,1.281,-0.18
21.94,-0.144,0.962,-0.073
21.95,-0.117,0.965,0.109
21.96,-0.09,0.903,0.165
21.97,-0.346,0.798,-0.159
21.98,-0.31,1.201,-0.161
21.99,0.0,0.89,0.023
22.0,-0.135,1.052,0.145
22.01,-0.196,0.697,0.068
22.02,-0.418,1.263,-0.211
22.03,-0.022,0.911,-0.077
22.04,-0.169,1.005,0.182
22.05,-0.128,0.92,0.131
22.06,-0.343,0.809,-0.2
22.07,-0.253,1.296,-0.06
22.08,-0.056,0.86,0.1
22.09,-0.203,1.013,0.104
22.1,-0.272,0.778,-0.001
22.11,-0.365,1.153,-0.227
22.12,-0.126,0.977,0.046
22.13,-0.156,0.949,0.224
22.14,-0.147,0.973,0.042
22.15,-0.377,0.785,-0.167
22.16,-0.206,1.331,-0.017
22.17,-0.112,0.744,0.11
22.18,-0.211,0.993,0.165
22.19,-0.268,0.894,-0.099
22.2,-0.377,1.085,-0.183
22.21,-0.17,1.098,0.148
22.22,-0.094,0.825,0.189
22.23,-0.284,0.971,-0.015
22.24,-0.31,0.899,-0.138
22.25,-0.21,1.204,-0.066
22.26,-0.121,0.721,0.195
22.27,-0.159,1.042,0.125
22.28,-0.28,0.878,-0.2
22.29,-0.346,1.02,-0.074
22.3,-0.029,1.178,0.031
22.31,-0.07,0.627,0.081
22.32,-0.334,1.094,0.071
22.33,-0.24,0.884,-0.249
22.34,-0.141,1.172,-0.04
22.35,-0.156,0.81,0.185
22.36,-0.148,0.904,0.062
22.37,-0.375,0.991,-0.2
22.38,-0.106,0.998,-0.13
22.39,-0.083,1.095,0.059
22.4,-0.201,0.642,0.211
22.41,-0.3,1.155,-0.046
22.42,-0.281,0.823,-0.223
22.43,-0.095,1.168,0.073
22.44,-0.061,0.917,0.115
22.45,-0.119,0.831,0.016
22.46,-0.445,1.136,-0.137
22.47,-0.148,0.954,-0.079
22.48,-0.211,0.939,0.123
22.49,-0.036,0.776,0.192
22.5,-0.464,1.157,-0.167
22.51,-0.266,0.737,-0.147
22.52,-0.015,1.35,0.085
22.53,-0.148,0.711,0.116
22.54,-0.243,0.922,-0.002
22.55,-0.253,1.131,-0.223
22.56,-0.14,0.926,-0.043
22.57,-0.19,1.056,0.176
22.58,-0.096,0.65,0.098
22.59,-0.465,1.186,-0.199
22.6,-0.14,0.914,-0.067
22.61,-0.134,1.16,0.068
22.62,-0.138,0.706,0.185
22.63,-0.211,0.972,0.026
22.64,-0.401,1.064,-0.241
22.65,-0.103,0.927,0.053
22.66,-0.102,1.235,0.108
22.67,-0.127,0.581,0.048
22.68,-0.419,1.228,-0.118
22.69,-0.149,0.983,-0.114
22.7,-0.121,1.027,0.064
22.71,-0.124,0.815,0.152
22.72,-0.264,0.922,-0.132
22.73,-0.308,1.06,-0.197
22.74,-0.085,0.933,0.104
22.75,-0.118,1.142,0.071
22.76,-0.132,0.615,0.031
22.77,-0.467,1.273,-0.15
22.78,-0.076,0.941,-0.09
22.79,-0.164,1.001,0.118
22.8,-0.128,0.88,0.157
22.81,-0.374,0.81,-0.155
22.82,-0.277,1.162,-0.12
22.83,0.02,0.963,0.069
22.84,-0.286,0.974,0.15
22.85,-0.134,0.682,0.055
22.86,-0.425,1.357,-0.225
22.87,-0.163,0.85,-0.028
22.88,-0.14,0.97,0.186
22.89,-0.096,0.969,0.081
22.9,-0.403,0.793,-0.198
22.91,-0.191,1.233,-0.11
22.92,-0.043,0.903,0.081
22.93,-0.214,0.966,0.133
22.94,-0.248,0.766,0.008
22.95,-0.331,1.214,-0.255
22.96,-0.065,0.939,-0.045
22.97,-0.111,0.946,0.19
22.98,-0.183,0.976,0.047
22.99,-0.387,0.836,-0.197
23.0,-0.066,1.328,-0.061
23.01,-0.128,0.765,0.112
23.02,-0.239,0.975,0.209
23.03,-0.212,0.817,-0.103
23.04,-0.386,1.076,-0.235
23.05,-0.031,1.106,0.138
23.06,-0.111,0.848,0.129
23.07,-0.28,0.97,-0.002
23.08,-0.308,0.915,-0.152
23.09,-0.157,1.257,-0.106
23.1,-0.191,0.713,0.164
23.11,-0.137,1.019,0.134
23.12,-0.337,0.865,-0.167
23.13,-0.321,1.003,-0.087
23.14,-0.005,1.19,0.031
23.15,-0.098,0.629,0.139
23.16,-0.328,1.076,0.062
23.17,-0.263,0.91,-0.235
23.18,-0.196,1.163,-0.012
23.19,-0.092,0.792,0.209
23.2,-0.146,0.949,0.044
23.21,-0.368,0.956,-0.198
23.22,-0.113,1.006,-0.052
23.23,-0.164,1.18,0.106
23.24,-0.112,0.595,0.099
23.25,-0.205,1.147,-0.043
23.26,-0.327,0.897,-0.186
23.27,-0.271,1.191,0.093
23.28,0.019,0.844,0.088
23.29,-0.198,0.815,0.029
23.3,-0.324,1.04,-0.14
23.31,-0.199,1.091,-0.08
23.32,-0.248,0.919,0.139
23.33,-0.072,0.777,0.148
23.34,-0.337,1.116,-0.19
23.35,-0.322,0.783,-0.086
23.36,0.019,1.319,0.062
23.37,-0.139,0.659,0.104
23.38,-0.294,0.969,0.082
23.39,-0.318,1.067,-0.242
23.4,-0.12,0.922,-0.087
23.41,-0.168,1.068,0.212
23.42,-0.092,0.694,0.071
23.43,-0.477,1.149,-0.167
23.44,-0.174,0.884,-0.054
23.45,-0.116,1.242,0.096
23.46,-0.173,0.636,0.156
23.47,-0.256,0.995,0.0
23.48,-0.337,1.073,-0.208
23.49,-0.181,0.925,0.053
23.5,-0.138,1.172,0.157
23.51,-0.088,0.633,0.064
23.52,-0.497,1.217,-0.127
23.53,-0.075,0.901,-0.123
23.54,-0.108,1.076,0.057
23.55,-0.099,0.758,0.213
23.56,-0.309,0.939,-0.08
23.57,-0.256,1.083,-0.237
23.58,-0.106,0.942,0.101
23.59,-0.151,1.16,0.154
23.6,-0.146,0.618,0.006
23.61,-0.413,1.299,-0.177
23.62,-0.114,0.921,-0.102
23.63,-0.144,1.012,0.068
23.64,-0.078,0.892,0.173
23.65,-0.382,0.858,-0.118
23.66,-0.292,1.083,-0.169
23.67,-0.053,0.977,0.08
23.68,-0.166,1.093,0.092
23.69,-0.17,0.634,0.045
23.7,-0.441,1.276,-0.172
23.71,-0.085,0.924,-0.092
23.72,-0.163,0.96,0.132
23.73,-0.087,0.958,0.172
23.74,-0.395,0.816,-0.214
23.75,-0.279,1.176,-0.094
23.76,-0.036,0.896,0.079
23.77,-0.135,1.026,0.088
23.78,-0.253,0.698,0.037
23.79,-0.354,1.244,-0.212
23.8,-0.131,0.938,-0.065
23.81,-0.17,0.912,0.169
23.82,-0.096,0.972,0.085
23.83,-0.395,0.799,-0.206
23.84,-0.173,1.264,-0.042
23.85,-0.029,0.834,0.08
23.86,-0.258,1.007,0.187
23.87,-0.153,0.785,-0.053
23.88,-0.382,1.128,-0.209
23.89,-0.196,1.048,0.111
23.9,-0.135,0.863,0.097
23.91,-0.163,0.933,0.029
23.92,-0.392,0.905,-0.097
23.93,-0.244,1.29,-0.017
23.94,-0.102,0.69,0.085
23.95,-0.167,1.043,0.235
23.96,-0.245,0.823,-0.109
23.97,-0.344,0.959,-0.175
23.98,-0.022,1.146,0.083
23.99,-0.194,0.833,0.177
24.0,-0.277,0.986,0.019
24.01,-0.322,0.912,-0.189
24.02,-0.199,1.244,-0.019
24.03,-0.171,0.76,0.178
24.04,-0.108,0.921,0.14
24.05,-0.275,0.919,-0.16
24.06,-0.295,0.969,-0.107
24.07,-0.085,1.184,0.055
24.08,-0.138,0.631,0.122
24.09,-0.259,1.059,0.054
24.1,-0.33,0.978,-0.231
24.11,-0.182,1.162,-0.003
24.12,-0.123,0.796,0.203
24.13,-0.149,0.977,0.075
24.14,-0.383,0.849,-0.172
24.15,-0.146,1.109,-0.041
24.16,-0.085,1.023,0.044
24.17,-0.167,0.685,0.147
24.18,-0.272,1.111,-0.023
24.19,-0.35,0.849,-0.232
24.2,-0.214,1.165,0.067
24.21,-0.046,0.82,0.148
24.22,-0.182,0.917,0.036
24.23,-0.351,0.97,-0.183
24.24,-0.056,1.098,-0.081
24.25,-0.156,1.0,0.082
24.26,-0.202,0.704,0.208
24.27,-0.326,1.18,-0.093
24.28,-0.237,0.786,-0.235
24.29,-0.12,1.265,0.116
24.3,-0.08,0.75,0.118
24.31,-0.273,0.9,0.046
24.32,-0.342,1.115,-0.175
24.33,-0.085,0.96,-0.067
24.34,-0.255,1.039,0.133
24.35,-0.021,0.716,0.15
24.36,-0.396,1.172,-0.182
24.37,-0.359,0.793,-0.104
24.38,0.005,1.233,0.063
24.39,-0.129,0.811,0.134
24.4,-0.302,0.867,0.05
24.41,-0.345,1.162,-0.239
24.42,-0.092,0.897,-0.049
24.43,-0.191,1.146,0.121
24.44,-0.05,0.684,0.1
24.45,-0.396,1.173,-0.189
24.46,-0.251,0.903,-0.054
24.47,-0.1,1.198,0.097
24.48,-0.193,0.778,0.136
24.49,-0.255,0.831,0.051
24.5,-0.316,1.272,-0.22
24.51,-0.183,0.823,0.048
24.52,-0.192,1.134,0.159
24.53,-0.048,0.674,0.061
24.54,-0.49,1.126,-0.223
24.55,-0.116,0.945,-0.04
24.56,-0.06,1.085,0.062
24.57,-0.183,0.859,0.151
24.58,-0.192,0.824,-0.016
24.59,-0.339,1.294,-0.168
24.6,-0.216,0.804,0.072
24.61,-0.093,1.182,0.105
24.62,-0.154,0.642,-0.008
24.63,-0.466,1.17,-0.163
24.64,-0.008,1.02,-0.094
24.65,-0.184,0.906,0.087
24.66,-0.186,0.966,0.184
24.67,-0.207,0.794,-0.163
24.68,-0.389,1.178,-0.156
24.69,-0.111,0.901,0.171
24.7,-0.116,1.111,0.11
24.71,-0.272,0.694,0.02
24.72,-0.405,1.211,-0.16
24.73,-0.116,1.05,-0.075
24.74,-0.248,0.798,0.175
24.75,0.012,1.049,0.121
24.76,-0.371,0.775,-0.175
24.77,-0.384,1.207,-0.057
24.78,0.018,0.914,0.081
24.79,-0.199,0.997,0.136
24.8,-0.241,0.797,0.031
24.81,-0.322,1.111,-0.216
24.82,-0.17,1.07,-0.066
24.83,-0.067,0.831,0.188
24.84,-0.138,1.029,0.07
24.85,-0.385,0.718,-0.232
24.86,-0.102,1.312,-0.077
24.87,-0.087,0.882,0.098
24.88,-0.261,0.87,0.165
24.89,-0.191,0.929,-0.015
24.9,-0.332,1.027,-0.244
24.91,-0.15,1.117,0.058
24.92,-0.079,0.835,0.175
24.93,-0.236,0.912,0.011
24.94,-0.334,0.859,-0.129
24.95,-0.079,1.332,-0.108
24.96,-0.112,0.706,0.102
24.97,-0.129,1.037,0.157
24.98,-0.25,0.849,-0.155
24.99,-0.365,1.029,-0.128
25.0,-0.07,1.137,0.107
25.01,-0.156,0.782,0.115
25.02,-0.264,0.998,0.021
25.03,-0.319,0.938,-0.134
25.04,-0.213,1.243,-0.056
25.05,-0.13,0.667,0.124
25.06,-0.059,1.003,0.134
25.07,-0.394,0.95,-0.185
25.08,-0.263,0.966,-0.118
25.09,-0.032,1.202,0.087
25.1,-0.167,0.713,0.147
25.11,-0.346,1.072,0.011
25.12,-0.243,0.878,-0.212
25.13,-0.198,1.186,0.028
25.14,-0.12,0.75,0.181
25.15,-0.117,0.924,0.064
25.16,-0.389,0.99,-0.233
25.17,-0.088,0.945,-0.074
25.18,-0.087,1.155,0.08
25.19,-0.142,0.637,0.17
25.2,-0.295,1.139,-0.028
25.21,-0.334,0.889,-0.154
25.22,-0.189,1.137,0.027
25.23,-0.092,0.852,0.164
25.24,-0.177,0.842,0.041
25.25,-0.409,1.103,-0.216
25.26,-0.015,0.925,-0.079
25.27,-0.167,1.115,0.09
25.28,-0.154,0.68,0.226
25.29,-0.333,1.158,-0.139
25.3,-0.332,0.855,-0.186
25.31,-0.096,1.178,0.132
25.32,-0.128,0.885,0.126
25.33,-0.33,0.782,0.042
25.34,-0.302,1.234,-0.185
25.35,-0.09,0.845,-0.06
25.36,-0.236,1.153,0.181
25.37,0.009,0.734,0.179
25.38,-0.501,1.067,-0.227
25.39,-0.192,0.913,-0.034
25.4,-0.022,1.202,0.08
25.41,-0.197,0.82,0.108
25.42,-0.241,0.782,0.035
25.43,-0.35,1.316,-0.24
25.44,-0.101,0.792,0.025
25.45,-0.158,1.164,0.178
25.46,-0.064,0.677,0.083
25.47,-0.502,1.126,-0.156
25.48,-0.18,0.986,-0.054
25.49,-0.042,0.964,0.072
25.5,-0.186,0.916,0.139
25.51,-0.283,0.79,-0.017
25.52,-0.337,1.24,-0.231
25.53,-0.158,0.79,0.042
25.54,-0.082,1.2,0.174
25.55,-0.138,0.656,0.006
25.56,-0.509,1.098,-0.168
25.57,0.017,1.114,-0.088
25.58,-0.172,0.844,0.112
25.59,-0.216,0.995,0.231
25.6,-0.256,0.791,-0.138
25.61,-0.386,1.2,-0.198
25.62,-0.029,0.886,0.167
25.63,-0.103,1.079,0.07
25.64,-0.247,0.724,-0.03
25.65,-0.314,1.136,-0.172
25.66,-0.085,1.109,-0.116
25.67,-0.172,0.755,0.134
25.68,-0.101,1.05,0.137
25.69,-0.343,0.785,-0.227
25.7,-0.324,1.237,-0.065
25.71,0.026,0.915,0.094
25.72,-0.163,0.879,0.136
25.73,-0.302,0.876,-0.003
25.74,-0.292,1.205,-0.261
25.75,-0.18,0.995,-0.005
25.76,-0.089,0.949,0.188
25.77,-0.178,0.942,0.023
25.78,-0.477,0.837,-0.143
25.79,-0.108,1.284,-0.034
25.8,-0.106,0.709,0.091
25.81,-0.214,1.003,0.206
25.82,-0.223,0.888,-0.103
25.83,-0.353,0.999,-0.195
25.84,-0.133,1.128,0.142
25.85,-0.053,0.876,0.099
25.86,-0.046,0.961,-0.061
25.87,-0.247,1.053,0.124
25.88,-0.077,0.825,0.16
25.89,-0.401,1.004,-0.21
25.9,-0.277,1.048,-0.088
25.91,-0.034,0.967,0.12
25.92,-0.18,1.0,0.118
25.93,-0.26,0.681,-0.005
25.94,-0.328,1.33,-0.227
25.95,-0.044,0.85,-0.031
25.96,-0.253,1.055,0.241
25.97,-0.03,0.792,0.058
25.98,-0.528,0.968,-0.211
25.99,-0.129,1.174,-0.013
26.0,-0.068,0.888,0.103
26.01,-0.321,1.02,0.166
26.02,-0.105,0.733,-0.113
26.03,-0.394,1.277,-0.213
26.04,-0.172,0.861,0.182
26.05,-0.066,1.013,0.154
26.06,-0.296,0.802,-0.03
26.07,-0.348,0.948,-0.142
26.08,-0.074,1.226,-0.071
26.09,-0.199,0.734,0.156
26.1,-0.105,1.106,0.179
26.11,-0.283,0.769,-0.2
26.12,-0.366,1.134,-0.113
26.13,0.065,1.012,0.078
26.14,-0.161,0.863,0.104
26.15,-0.343,0.92,0.026
26.16,-0.251,0.986,-0.177
26.17,-0.212,1.18,-0.036
26.18,-0.198,0.689,0.227
26.19,-0.078,1.065,0.072
26.2,-0.404,0.817,-0.236
26.21,-0.221,1.154,-0.057
26.22,-0.037,0.988,0.071
26.23,-0.288,0.744,0.165
26.24,-0.187,1.044,-0.066
26.25,-0.307,0.909,-0.23
26.26,-0.223,1.185,0.042
26.27,-0.011,0.773,0.145
26.28,-0.215,0.994,0.022
26.29,-0.413,0.905,-0.203
26.3,-0.024,1.085,-0.108
26.31,-0.161,0.992,0.087
26.32,-0.228,0.733,0.208
26.33,-0.226,1.13,-0.142
26.34,-0.304,0.806,-0.201
26.35,-0.114,1.273,0.159
26.36,-0.084,0.729,0.079
26.37,-0.343,0.91,-0.0
26.38,-0.324,1.038,-0.129
26.39,-0.103,1.063,-0.027
26.4,-0.258,1.001,0.128
26.41,-0.013,0.747,0.158
26.42,-0.438,1.166,-0.176
26.43,-0.379,0.785,-0.053
26.44,0.002,1.3,0.1
26.45,-0.139,0.728,0.095
26.46,-0.353,0.913,0.047
26.47,-0.204,1.094,-0.236
26.48,-0.123,0.947,-0.007
26.49,-0.074,0.96,0.15
26.5,-0.114,0.779,0.049
26.51,-0.559,1.163,-0.195
26.52,-0.01,0.839,-0.049
26.53,-0.114,1.224,0.086
26.54,-0.255,0.662,0.203
26.55,-0.186,1.048,-0.087
26.56,-0.29,0.978,-0.208
26.57,-0.187,1.013,0.17
26.58,-0.025,1.014,0.13
26.59,-0.301,0.685,-0.03
26.6,-0.405,1.238,-0.129
26.61,-0.01,0.885,-0.028
26.62,-0.358,1.161,0.167
26.63,-0.001,0.715,0.135
26.64,-0.338,1.085,-0.176
26.65,-0.402,1.016,-0.089
26.66,0.051,1.025,0.072
26.67,-0.121,1.03,0.103
26.68,-0.363,0.66,0.057
26.69,-0.309,1.321,-0.205
26.7,-0.118,0.834,-0.054
26.71,-0.187,1.104,0.176
26.72,-0.039,0.707,0.09
26.73,-0.467,1.015,-0.194
26.74,-0.163,1.128,-0.058
26.75,-0.071,0.883,0.068
26.76,-0.149,0.992,0.161
26.77,-0.279,0.709,-0.039
26.78,-0.282,1.265,-0.221
26.79,-0.076,0.858,0.053
26.8,-0.185,1.101,0.164
26.81,-0.086,0.741,0.0
26.82,-0.485,1.02,-0.18
26.83,-0.028,1.215,-0.026
26.84,-0.189,0.801,0.104
26.85,-0.212,0.999,0.177
26.86,-0.211,0.772,-0.141
26.87,-0.356,1.18,-0.186
26.88,-0.047,0.952,0.113
26.89,-0.113,0.967,0.136
26.9,-0.26,0.82,0.014
26.91,-0.328,1.027,-0.165
26.92,-0.142,1.195,-0.026
26.93,-0.192,0.734,0.139
26.94,-0.112,1.064,0.11
26.95,-0.362,0.786,-0.202
26.96,-0.215,1.22,-0.134
26.97,-0.056,0.979,0.075
26.98,-0.109,0.782,0.125
26.99,-0.302,0.986,0.011
27.0,-0.256,0.952,-0.214
27.01,-0.128,1.192,-0.032
27.02,-0.121,0.753,0.174
27.03,-0.156,1.033,0.051
27.04,-0.408,0.866,-0.176
27.05,-0.191,1.183,-0.067
27.06,-0.094,0.963,0.08
27.07,-0.2,0.768,0.193
27.08,-0.268,1.099,-0.067
27.09,-0.28,0.847,-0.175
27.1,-0.192,1.257,0.117
27.11,-0.089,0.75,0.147
27.12,-0.204,0.971,-0.026
27.13,-0.434,0.953,-0.135
27.14,-0.196,1.112,-0.066
27.15,-0.141,0.883,0.049
27.16,-0.131,0.778,0.203
27.17,-0.409,1.128,-0.177
27.18,-0.277,0.719,-0.144
27.19,-0.077,1.312,0.126
27.2,-0.078,0.68,0.114
27.21,-0.293,0.983,0.045
27.22,-0.374,1.066,-0.201
27.23,-0.069,0.971,-0.039
27.24,-0.244,1.043,0.19
27.25,-0.086,0.703,0.106
27.26,-0.39,1.199,-0.201
27.27,-0.31,0.818,0.018
27.28,-0.097,1.255,0.102
27.29,-0.1,0.689,0.089
27.3,-0.311,0.922,-0.022
27.31,-0.22,0.915,-0.198
27.32,-0.175,1.13,0.099
27.33,-0.168,0.904,0.121
27.34,-0.087,0.723,0.013
27.35,-0.561,1.262,-0.144
27.36,-0.112,0.825,-0.04
27.37,-0.084,1.219,0.054
27.38,-0.178,0.711,0.181
27.39,-0.378,1.067,-0.113
27.4,-0.211,0.935,-0.252
27.41,-0.086,1.085,0.11
27.42,-0.171,0.948,0.139
27.43,-0.228,0.682,0.005
27.44,-0.459,1.264,-0.171
27.45,-0.011,0.871,0.013
27.46,-0.246,1.17,0.191
27.47,-0.13,0.698,0.099
27.48,-0.39,1.062,-0.183
27.49,-0.191,1.044,-0.111
27.5,-0.062,0.981,0.124
27.51,-0.166,0.978,0.144
27.52,-0.271,0.714,-0.046
27.53,-0.386,1.287,-0.174
27.54,-0.095,0.839,0.054
27.55,-0.168,1.021,0.118
27.56,-0.097,0.736,0.052
27.57,-0.438,1.109,-0.22
27.58,-0.133,1.08,-0.071
27.59,-0.074,0.8,0.141
27.6,-0.156,1.063,0.174
27.61,-0.357,0.711,-0.122
27.62,-0.269,1.22,-0.139
27.63,-0.022,0.984,0.06
27.64,-0.187,0.922,0.122
27.65,-0.124,0.831,0.036
27.66,-0.431,1.156,-0.153
27.67,-0.225,1.097,-0.007
27.68,-0.096,0.75,0.106
27.69,-0.155,1.089,0.122
27.7,-0.335,0.736,-0.167
27.71,-0.304,1.242,-0.07
27.72,-0.007,0.942,0.104
27.73,-0.171,0.879,0.093
27.74,-0.237,0.887,-0.022
27.75,-0.331,1.005,-0.226
27.76,-0.087,1.157,0.026
27.77,-0.074,0.81,0.207
27.78,-0.159,1.042,0.046
27.79,-0.363,0.786,-0.254
27.8,-0.092,1.256,-0.055
27.81,-0.085,0.873,0.078
27.82,-0.216,0.834,0.174
27.83,-0.25,1.033,-0.097
27.84,-0.363,0.927,-0.142
27.85,-0.153,1.202,0.079
27.86,-0.018,0.727,0.064
27.87,-0.245,1.036,0.002
27.88,-0.38,0.924,-0.159
27.89,-0.094,1.147,-0.048
27.9,-0.133,0.89,0.17
27.91,-0.226,0.812,0.143
27.92,-0.393,1.073,-0.172
27.93,-0.183,0.898,-0.154
27.94,-0.054,1.26,0.104
27.95,-0.114,0.61,0.154
27.96,-0.32,1.07,-0.007
27.97,-0.274,0.979,-0.258
27.98,-0.05,1.018,-0.017
27.99,-0.176,0.979,0.161
28.0,-0.124,0.763,0.107
28.01,-0.418,1.19,-0.221
28.02,-0.176,0.855,-0.058
28.03,-0.072,1.159,0.065
28.04,-0.134,0.739,0.154
28.05,-0.395,1.039,-0.055
28.06,-0.241,0.955,-0.117
28.07,-0.146,1.085,0.068
28.08,-0.17,0.97,0.149
28.09,-0.125,0.711,0.039
28.1,-0.538,1.314,-0.193
28.11,-0.031,0.837,-0.019
28.12,-0.103,1.183,0.12
28.13,-0.181,0.645,0.123
28.14,-0.344,1.156,-0.183
28.15,-0.275,0.922,-0.096
28.16,-0.086,1.085,0.113
28.17,-0.043,0.885,0.095
28.18,-0.358,0.786,-0.026
28.19,-0.382,1.201,-0.186
28.2,-0.019,0.864,-0.001
28.21,-0.188,1.159,0.156
28.22,-0.044,0.659,0.051
28.23,-0.524,1.188,-0.187
28.24,-0.131,0.969,-0.081
28.25,-0.074,0.973,0.073
28.26,-0.122,0.977,0.128
28.27,-0.287,0.792,-0.132
28.28,-0.259,1.219,-0.163
28.29,-0.133,0.909,0.111
28.3,-0.172,1.036,0.169
28.31,-0.165,0.694,0.011
28.32,-0.459,1.24,-0.217
28.33,-0.052,0.99,-0.031
28.34,-0.102,0.862,0.079
28.35,-0.174,0.984,0.134
28.36,-0.313,0.812,-0.203
28.37,-0.293,1.243,-0.096
28.38,-0.062,0.86,0.154
28.39,-0.129,0.969,0.105
28.4,-0.27,0.739,-0.015
28.41,-0.326,1.145,-0.2
28.42,-0.067,1.064,0.002
28.43,-0.154,0.814,0.173
28.44,-0.137,1.055,0.077
28.45,-0.384,0.806,-0.199
28.46,-0.162,1.271,-0.026
28.47,-0.128,0.774,0.147
28.48,-0.221,0.962,0.135
28.49,-0.274,0.888,-0.059
28.5,-0.301,1.052,-0.202
28.51,-0.115,1.109,0.093
28.52,-0.13,0.694,0.192
28.53,-0.248,1.049,-0.012
28.54,-0.417,0.888,-0.165
28.55,-0.082,1.208,-0.022
28.56,-0.143,0.828,0.127
28.57,-0.156,0.934,0.131
28.58,-0.321,0.978,-0.218
28.59,-0.258,0.948,-0.08
28.6,-0.064,1.247,0.13
28.61,-0.142,0.633,0.149
28.62,-0.375,1.076,0.009
28.63,-0.292,0.877,-0.22
28.64,-0.067,1.144,-0.043
28.65,-0.111,0.886,0.181
28.66,-0.19,0.836,0.038
28.67,-0.368,1.05,-0.246
28.68,-0.076,0.962,-0.056
28.69,-0.147,1.115,0.106
28.7,-0.13,0.656,0.149
28.71,-0.409,1.117,-0.129
28.72,-0.238,0.867,-0.14
28.73,-0.073,1.227,0.107
28.74,-0.177,0.804,0.134
28.75,-0.237,0.806,0.033
28.76,-0.328,1.236,-0.211
28.77,-0.135,0.801,-0.016
28.78,-0.174,1.145,0.189
28.79,-0.059,0.694,0.058
28.8,-0.467,1.128,-0.197
28.81,-0.231,0.948,-0.034
28.82,-0.083,1.082,0.106
28.83,-0.225,0.877,0.148
28.84,-0.226,0.781,-0.056
28.85,-0.338,1.224,-0.199
28.86,-0.121,0.874,0.125
28.87,-0.089,1.181,0.099
28.88,-0.135,0.597,0.013
28.89,-0.412,1.18,-0.18
28.9,-0.109,1.054,-0.108
28.91,-0.198,0.887,0.127
28.92,-0.085,1.011,0.179
28.93,-0.391,0.741,-0.188
28.94,-0.244,1.157,-0.031
28.95,0.043,0.93,0.045
28.96,-0.19,0.988,0.14
28.97,-0.23,0.701,0.054
28.98,-0.342,1.33,-0.25
28.99,-0.118,0.847,-0.015
29.0,-0.126,1.038,0.167
29.01,-0.085,0.853,0.051
29.02,-0.498,0.924,-0.141
29.03,-0.133,1.298,-0.065
29.04,-0.025,0.773,0.053
29.05,-0.18,1.023,0.185
29.06,-0.199,0.761,-0.091
29.07,-0.336,1.243,-0.189
29.08,-0.152,0.958,0.096
29.09,-0.104,0.906,0.151
29.1,-0.227,0.892,0.005
29.11,-0.44,0.938,-0.122
29.12,-0.127,1.231,-0.029
29.13,-0.084,0.735,0.116
29.14,-0.225,1.074,0.131
29.15,-0.217,0.781,-0.229
29.16,-0.294,1.147,-0.087
29.17,-0.124,1.058,0.123
29.18,-0.062,0.745,0.087
29.19,-0.316,1.048,-0.013
29.2,-0.347,0.917,-0.204
29.21,-0.15,1.237,0.019
29.22,-0.134,0.756,0.18
29.23,-0.149,0.981,0.045
29.24,-0.274,0.881,-0.226
29.25,-0.19,1.114,-0.068
29.26,-0.101,0.959,0.084
29.27,-0.111,0.733,0.168
29.28,-0.363,1.143,-0.063
29.29,-0.346,0.823,-0.157
29.3,-0.145,1.241,0.09
29.31,-0.1,0.795,0.175
29.32,-0.252,0.967,0.051
29.33,-0.385,1.015,-0.196
29.34,-0.121,1.062,-0.048
29.35,-0.162,1.015,0.106
29.36,-0.065,0.732,0.149
29.37,-0.433,1.144,-0.205
29.38,-0.259,0.819,-0.054
29.39,-0.117,1.318,0.14
29.4,-0.162,0.67,0.123
29.41,-0.244,0.938,0.021
29.42,-0.332,1.121,-0.218
29.43,-0.092,0.906,0.004
29.44,-0.271,1.111,0.193
29.45,-0.007,0.646,0.054
29.46,-0.545,1.233,-0.209
29.47,-0.051,0.862,-0.054
29.48,-0.137,1.164,0.075
29.49,-0.195,0.77,0.185
29.5,-0.271,0.968,-0.079
29.51,-0.277,1.105,-0.235
29.52,-0.113,0.892,0.131
29.53,-0.1,1.101,0.108
29.54,-0.206,0.645,0.035
29.55,-0.426,1.318,-0.209
29.56,-0.063,0.851,-0.045
29.57,-0.313,1.088,0.237
29.58,-0.077,0.823,0.11
29.59,-0.383,0.908,-0.233
29.6,-0.26,1.187,-0.01
29.61,-0.063,0.899,0.077
29.62,-0.232,1.034,0.138
29.63,-0.198,0.669,0.01
29.64,-0.365,1.249,-0.236
29.65,-0.093,0.941,0.024
29.66,-0.141,1.084,0.127
29.67,-0.095,0.813,0.042
29.68,-0.396,0.879,-0.131
29.69,-0.144,1.314,-0.1
29.7,-0.058,0.694,0.091
29.71,-0.244,1.045,0.193
29.72,-0.296,0.752,-0.068
29.73,-0.376,1.161,-0.18
29.74,-0.047,1.024,0.093
29.75,-0.207,0.865,0.148
29.76,-0.192,0.779,0.054
29.77,-0.405,1.12,-0.193
29.78,-0.149,1.048,-0.029
29.79,-0.151,0.771,0.165
29.8,-0.221,1.092,0.095
29.81,-0.345,0.734,-0.205
29.82,-0.226,1.26,-0.063
29.83,-0.039,0.93,0.07
29.84,-0.127,0.818,0.125
29.85,-0.231,0.947,0.009
29.86,-0.398,1.056,-0.216
29.87,-0.109,1.096,-0.005
29.88,-0.098,0.778,0.152
29.89,-0.191,1.019,0.038
29.9,-0.434,0.817,-0.189
29.91,-0.054,1.223,-0.089
29.92,-0.096,0.839,0.092
29.93,-0.217,0.848,0.21
29.94,-0.279,1.054,-0.106
29.95,-0.36,0.885,-0.131
29.96,-0.118,1.251,0.173
29.97,-0.084,0.683,0.117
29.98,-0.345,1.01,-0.036
29.99,-0.225,0.961,-0.164
30.0,-0.121,1.121,-0.037
30.01,-0.218,0.887,0.198
30.02,-0.095,0.809,0.094
30.03,-0.38,1.111,-0.214
30.04,-0.199,0.891,-0.028
30.05,-0.139,1.222,0.083
30.06,-0.134,0.622,0.139
30.07,-0.185,1.079,-0.094
30.08,-0.331,0.945,-0.239
30.09,-0.173,1.075,0.084
30.1,-0.057,1.003,0.099
30.11,-0.21,0.694,0.052
30.12,-0.386,1.284,-0.178
30.13,-0.101,0.89,-0.099
30.14,-0.192,1.079,0.103
30.15,-0.086,0.75,0.214
30.16,-0.393,1.044,-0.17
30.17,-0.287,0.864,-0.186
30.18,0.026,1.121,0.085
30.19,-0.238,0.995,0.153
30.2,-0.2,0.642,0.031
30.21,-0.401,1.392,-0.191
30.22,-0.188,0.807,-0.053
30.23,-0.214,1.067,0.191
30.24,0.001,0.753,0.05
30.25,-0.501,1.017,-0.211
30.26,-0.176,1.073,-0.026
30.27,-0.127,0.999,0.085
30.28,-0.191,0.924,0.14
30.29,-0.187,0.725,0.025
30.3,-0.382,1.298,-0.238
30.31,-0.078,0.842,0.002
30.32,-0.081,1.162,0.141
30.33,-0.151,0.719,0.062
30.34,-0.503,0.996,-0.144
30.35,-0.066,1.175,-0.079
30.36,-0.087,0.823,0.033
30.37,-0.205,1.009,0.231
30.38,-0.247,0.724,-0.095
30.39,-0.424,1.244,-0.148
30.4,0.013,0.911,0.087
30.41,-0.154,0.976,0.144
30.42,-0.329,0.792,0.026
30.43,-0.304,1.05,-0.18
30.44,-0.126,1.144,-0.045
30.45,-0.105,0.792,0.16
30.46,-0.129,1.059,0.093
30.47,-0.38,0.722,-0.191
30.48,-0.249,1.27,-0.026
30.49,-0.07,0.969,0.046
30.5,-0.17,0.808,0.133
30.51,-0.215,0.97,0.011
30.52,-0.365,0.975,-0.237
30.53,-0.198,1.118,0.024
30.54,-0.055,0.806,0.167
30.55,-0.196,1.027,0.039
30.56,-0.432,0.83,-0.138
30.57,-0.098,1.228,-0.098
30.58,-0.15,0.655,0.089
30.59,-0.098,0.978,0.174
30.6,-0.334,0.94,-0.122
30.61,-0.347,0.911,-0.159
30.62,-0.101,1.195,0.159
30.63,-0.061,0.757,0.136
30.64,-0.342,1.044,0.034
30.65,-0.291,0.912,-0.166
30.66,-0.138,1.201,-0.073
30.67,-0.168,0.74,0.14
30.68,-0.084,0.95,0.132
30.69,-0.404,1.013,-0.144
30.7,-0.341,0.923,-0.101
30.71,0.006,1.229,0.071
30.72,-0.148,0.634,0.096
30.73,-0.374,1.089,0.029
30.74,-0.248,0.923,-0.208
30.75,-0.163,1.145,-0.009
30.76,-0.088,0.837,0.178
30.77,-0.135,0.861,0.055
30.78,-0.523,1.095,-0.178
30.79,-0.099,0.934,-0.09
30.8,-0.164,1.162,0.062
30.81,-0.125,0.684,0.161
30.82,-0.325,1.134,-0.113
30.83,-0.309,0.844,-0.151
30.84,-0.19,1.188,0.124
30.85,-0.153,0.909,0.123
30.86,-0.16,0.769,0.056
30.87,-0.462,1.257,-0.186
30.88,-0.086,0.859,-0.049
30.89,-0.202,1.131,0.109
30.9,-0.088,0.674,0.217
30.91,-0.45,1.111,-0.174
30.92,-0.209,0.876,-0.144
30.93,-0.106,1.191,0.134
30.94,-0.174,0.872,0.13
30.95,-0.233,0.735,-0.023
30.96,-0.375,1.322,-0.206
30.97,-0.056,0.803,0.011
30.98,-0.2,1.148,0.14
30.99,-0.079,0.681,0.09
31.0,-0.448,1.127,-0.21
31.01,-0.16,1.003,-0.06
31.02,-0.059,0.995,0.067
31.03,-0.14,0.913,0.115
31.04,-0.238,0.737,-0.061
31.05,-0.338,1.278,-0.194
31.06,-0.096,0.825,0.049
31.07,-0.116,1.164,0.141
31.08,-0.134,0.668,0.035
31.09,-0.416,1.129,-0.176
31.1,-0.063,1.071,-0.077
31.11,-0.144,0.847,0.098
31.12,-0.155,0.989,0.185
31.13,-0.304,0.762,-0.178
31.14,-0.351,1.22,-0.159
31.15,0.016,0.877,0.062
31.16,-0.171,1.013,0.124
31.17,-0.184,0.766,0.024
31.18,-0.377,1.113,-0.194
31.19,-0.135,1.035,0.011
31.2,-0.175,0.831,0.17
31.21,-0.147,1.041,0.077
31.22,-0.333,0.747,-0.213
31.23,-0.304,1.316,-0.003
31.24,-0.094,0.865,0.096
31.25,-0.135,0.871,0.121
31.26,-0.268,0.885,0.025
31.27,-0.33,1.071,-0.22
31.28,-0.087,1.125,-0.002
31.29,-0.096,0.797,0.151
31.3,-0.193,1.0,0.011
31.31,-0.37,0.857,-0.192
31.32,-0.127,1.274,-0.055
31.33,-0.108,0.75,0.1
31.34,-0.186,0.893,0.202
31.35,-0.339,1.033,-0.135
31.36,-0.289,0.829,-0.168
31.37,-0.033,1.271,0.108
31.38,-0.116,0.719,0.116
31.39,-0.333,1.044,0.029
31.4,-0.285,0.898,-0.237
31.41,-0.183,1.176,-0.026
31.42,-0.083,0.754,0.186
31.43,-0.117,0.983,0.088
31.44,-0.444,0.906,-0.199
31.45,-0.18,1.056,-0.029
31.46,-0.123,1.13,0.12
31.47,-0.206,0.644,0.122
31.48,-0.24,1.115,-0.083
31.49,-0.257,0.826,-0.235
31.5,-0.154,1.251,0.067
31.51,-0.077,0.808,0.129
31.52,-0.212,0.862,0.029
31.53,-0.421,1.059,-0.167
31.54,-0.053,1.006,-0.069
31.55,-0.224,1.057,0.088
31.56,-0.105,0.694,0.197
31.57,-0.384,1.198,-0.153
31.58,-0.336,0.796,-0.129
31.59,-0.058,1.266,0.117
31.6,-0.103,0.746,0.107
31.61,-0.343,0.878,0.065
31.62,-0.296,1.185,-0.233
31.63,-0.083,0.839,-0.064
31.64,-0.207,1.146,0.19
31.65,-0.049,0.653,0.076
31.66,-0.467,1.164,-0.195
31.67,-0.101,0.931,-0.062
31.68,-0.095,1.133,0.118
31.69,-0.238,0.81,0.172
31.7,-0.181,0.866,-0.071
31.71,-0.363,1.178,-0.23
31.72,-0.136,0.848,0.139
31.73,-0.097,1.195,0.143
31.74,-0.168,0.616,-0.001
31.75,-0.534,1.208,-0.152
31.76,-0.017,0.973,-0.097
31.77,-0.152,0.98,0.114
31.78,-0.141,0.907,0.163
31.79,-0.279,0.85,-0.145
31.8,-0.352,1.176,-0.153
31.81,-0.052,0.899,0.126
31.82,-0.106,1.052,0.124
31.83,-0.252,0.654,0.01
31.84,-0.311,1.26,-0.205
31.85,-0.077,0.995,-0.068
31.86,-0.247,0.87,0.176
31.87,-0.062,0.937,0.105
31.88,-0.354,0.814,-0.224
31.89,-0.29,1.28,0.018
31.9,0.001,0.867,0.059
31.91,-0.194,0.959,0.14
31.92,-0.286,0.771,0.01
31.93,-0.326,1.177,-0.208
31.94,-0.064,1.019,0.0
31.95,-0.166,0.919,0.18
31.96,-0.18,0.958,0.061
31.97,-0.427,0.84,-0.185
31.98,-0.119,1.286,-0.062
31.99,-0.133,0.742,0.129
32.0,-0.201,0.982,0.178
32.01,-0.314,0.868,-0.078
32.02,-0.28,1.003,-0.191
32.03,-0.043,1.165,0.075
32.04,-0.147,0.75,0.145
32.05,-0.264,1.05,0.012
32.06,-0.349,0.888,-0.176
32.07,-0.196,1.217,0.005
32.08,-0.233,0.789,0.19
32.09,-0.104,0.964,0.111
32.1,-0.376,0.932,-0.237
32.11,-0.12,0.996,-0.105
32.12,-0.075,1.196,0.074
32.13,-0.122,0.632,0.147
32.14,-0.288,1.088,0.022
32.15,-0.31,0.907,-0.261
32.16,-0.127,1.146,0.004
32.17,-0.167,0.907,0.139
32.18,-0.09,0.871,0.035
32.19,-0.406,0.986,-0.175
32.2,-0.114,1.029,-0.043
32.21,-0.114,0.948,0.078
32.22,-0.161,0.712,0.192
32.23,-0.372,1.154,-0.116
32.24,-0.268,0.839,-0.166
32.25,-0.077,1.275,0.098
32.26,-0.156,0.776,0.152
32.27,-0.263,0.955,-0.004
32.28,-0.353,1.022,-0.205
32.29,-0.096,1.013,-0.075
32.3,-0.136,0.956,0.133
32.31,-0.131,0.778,0.172
32.32,-0.44,1.176,-0.124
32.33,-0.359,0.819,-0.089
32.34,-0.001,1.276,0.052
32.35,-0.037,0.708,0.095
32.36,-0.311,0.95,0.026
32.37,-0.376,1.08,-0.187
32.38,-0.107,0.923,-0.012
32.39,-0.163,1.125,0.156
32.4,-0.072,0.691,0.085
32.41,-0.474,1.227,-0.22
32.42,-0.184,0.834,-0.038
32.43,-0.128,1.153,0.153
32.44,-0.178,0.791,0.172
32.45,-0.291,0.877,-0.084
32.46,-0.297,1.108,-0.181
32.47,-0.071,0.965,0.06
32.48,-0.202,1.024,0.161
32.49,-0.131,0.634,0.054
32.5,-0.424,1.376,-0.215
32.51,-0.173,0.854,-0.013
32.52,-0.167,1.005,0.148
32.53,-0.146,0.882,0.139
32.54,-0.358,0.896,-0.162
32.55,-0.246,1.187,-0.138
32.56,-0.153,0.889,0.101
32.57,-0.191,1.003,0.123
32.58,-0.105,0.682,0.005
32.59,-0.465,1.312,-0.224
32.6,-0.04,0.858,0.0
32.61,-0.11,1.015,0.137
32.62,-0.209,0.865,0.101
32.63,-0.342,0.9,-0.121
32.64,-0.246,1.309,-0.078
32.65,-0.113,0.75,0.093
32.66,-0.153,1.038,0.145
32.67,-0.289,0.721,-0.037
32.68,-0.35,1.197,-0.196
32.69,0.0,0.986,-0.008
32.7,-0.135,0.911,0.173
32.71,-0.181,0.939,0.034
32.72,-0.382,0.866,-0.22
32.73,-0.17,1.256,-0.037
32.74,-0.078,0.759,0.149
32.75,-0.248,1.014,0.113
32.76,-0.28,0.801,-0.129
32.77,-0.325,1.126,-0.111
32.78,-0.135,1.096,0.117
32.79,-0.114,0.792,0.136
32.8,-0.278,1.019,-0.003
32.81,-0.413,0.893,-0.182
32.82,-0.099,1.236,-0.03
32.83,-0.118,0.691,0.138
32.84,-0.1,1.012,0.122
32.85,-0.356,0.91,-0.209
32.86,-0.255,1.038,-0.085
32.87,0.013,1.147,0.111
32.88,-0.219,0.68,0.113
32.89,-0.328,1.061,-0.017
32.9,-0.196,0.928,-0.243
32.91,-0.178,1.203,0.02
32.92,-0.095,0.743,0.21
32.93,-0.232,0.937,-0.005
32.94,-0.363,0.938,-0.258
32.95,-0.065,1.021,-0.047
32.96,-0.125,1.098,0.079
32.97,-0.172,0.651,0.146
32.98,-0.335,1.151,-0.111
32.99,-0.283,0.876,-0.155
33.0,-0.105,1.227,0.124
33.01,-0.099,0.714,0.136
33.02,-0.298,0.876,-0.008
33.03,-0.314,1.003,-0.202
33.04,-0.12,1.02,-0.013
33.05,-0.181,0.934,0.177
33.06,-0.113,0.779,0.076
33.07,-0.473,1.205,-0.199
33.08,-0.213,0.866,-0.043
33.09,-0.153,1.208,0.073
33.1,-0.096,0.676,0.167
33.11,-0.313,1.04,-0.062
33.12,-0.345,0.952,-0.199
33.13,-0.05,1.034,0.072
33.14,-0.148,1.063,0.151
33.15,-0.174,0.661,0.035
33.16,-0.466,1.279,-0.166
33.17,-0.083,0.884,-0.042
33.18,-0.166,1.112,0.132
33.19,-0.085,0.759,0.126
33.2,-0.412,1.011,-0.184
33.21,-0.22,1.024,-0.169
33.22,-0.016,1.009,0.113
33.23,-0.198,0.991,0.14
33.24,-0.254,0.676,-0.017
33.25,-0.326,1.361,-0.196
33.26,-0.058,0.855,-0.04
33.27,-0.124,1.059,0.128
33.28,-0.115,0.763,0.066
33.29,-0.506,1.032,-0.153
33.3,-0.098,1.165,-0.102
33.31,-0.114,0.783,0.047
33.32,-0.132,1.038,0.154
33.33,-0.28,0.735,-0.133
33.34,-0.365,1.223,-0.195
33.35,-0.001,0.924,0.086
33.36,-0.111,0.926,0.109
33.37,-0.284,0.837,0.039
33.38,-0.347,1.031,-0.197
33.39,-0.104,1.121,-0.074
33.4,-0.121,0.747,0.16
33.41,-0.066,1.064,0.053
33.42,-0.39,0.769,-0.196
33.43,-0.174,1.24,-0.1
33.44,-0.014,0.928,0.09
33.45,-0.216,0.868,0.198
33.46,-0.22,0.98,-0.06
33.47,-0.34,0.919,-0.209
33.48,-0.184,1.226,0.096
33.49,-0.037,0.736,0.145
33.5,-0.235,1.024,0.008
33.51,-0.366,0.889,-0.134
33.52,-0.146,1.172,-0.065
33.53,-0.177,0.81,0.132
33.54,-0.08,0.873,0.169
33.55,-0.312,1.074,-0.142
33.56,-0.363,0.839,-0.104
33.57,-0.025,1.329,0.115
33.58,-0.108,0.639,0.106
33.59,-0.283,0.998,0.046
33.6,-0.285,1.0,-0.219
33.61,-0.157,1.047,-0.036
33.62,-0.131,0.936,0.185
33.63,-0.085,0.767,0.06
33.64,-0.459,1.108,-0.212
33.65,-0.14,0.842,-0.071
33.66,-0.102,1.276,0.084
33.67,-0.212,0.611,0.118
33.68,-0.174,1.025,-0.023
33.69,-0.356,1.039,-0.207
33.7,-0.08,0.977,0.01
33.71,-0.052,1.056,0.118
33.72,-0.18,0.648,0.011
33.73,-0.503,1.229,-0.128
33.74,-0.028,0.944,-0.1
33.75,-0.257,1.097,0.081
33.76,-0.062,0.748,0.207
33.77,-0.39,1.051,-0.129
33.78,-0.341,0.965,-0.177
33.79,0.113,1.037,0.118
33.8,-0.208,1.032,0.096
33.81,-0.246,0.644,0.051
33.82,-0.315,1.329,-0.231
33.83,-0.154,0.816,-0.021
33.84,-0.124,1.232,0.18
33.85,-0.146,0.63,0.039
33.86,-0.48,1.18,-0.146
33.87,-0.049,1.039,-0.097
33.88,-0.142,0.933,0.081
33.89,-0.093,0.903,0.203
33.9,-0.236,0.85,-0.127
33.91,-0.381,1.134,-0.188
33.92,-0.017,0.891,0.124
33.93,-0.15,1.196,0.117
33.94,-0.273,0.607,0.039
33.95,-0.407,1.235,-0.171
33.96,-0.138,1.049,-0.083
33.97,-0.176,0.849,0.138
33.98,-0.07,0.978,0.169
33.99,-0.379,0.762,-0.192
34.0,-0.263,1.212,-0.131
34.01,0.072,0.925,0.102
34.02,-0.295,0.985,0.158
34.03,-0.232,0.73,0.051
34.04,-0.279,1.228,-0.22
34.05,-0.161,1.001,-0.026
34.06,-0.167,0.861,0.247
34.07,-0.177,0.99,0.102
34.08,-0.456,0.77,-0.188
34.09,-0.125,1.306,-0.075
34.1,-0.077,0.812,0.046
34.11,-0.246,0.938,0.199
34.12,-0.201,0.851,-0.06
34.13,-0.341,1.052,-0.189
34.14,-0.145,1.102,0.083
34.15,-0.07,0.747,0.14
34.16,-0.303,1.003,0.025
34.17,-0.402,0.88,-0.141
34.18,-0.108,1.264,-0.046
34.19,-0.268,0.746,0.177
34.2,-0.199,1.019,-0.075
34.21,-0.037,1.01,0.071
34.22,-0.251,0.927,0.179
34.23,-0.117,0.736,-0.025
34.24,-0.391,1.258,-0.235
34.25,-0.117,0.828,0.051
34.26,-0.115,1.172,0.127
34.27,-0.183,0.652,0.059
34.28,-0.456,1.105,-0.181
34.29,-0.163,1.118,-0.066
34.3,-0.127,0.827,0.073
34.31,-0.136,1.036,0.208
34.32,-0.278,0.753,-0.092
34.33,-0.327,1.218,-0.222
34.34,0.053,0.912,0.086
34.35,-0.146,1.028,0.124
34.36,-0.227,0.747,0.04
34.37,-0.344,1.15,-0.208
34.38,-0.203,1.084,-0.059
34.39,-0.165,0.766,0.132
34.4,-0.106,1.088,0.099
34.41,-0.345,0.721,-0.194
34.42,-0.241,1.221,-0.102
34.43,-0.065,0.934,0.099
34.44,-0.189,0.859,0.102
34.45,-0.129,0.869,0.01
34.46,-0.363,1.105,-0.204
34.47,-0.196,1.062,-0.02
34.48,-0.132,0.777,0.222
34.49,-0.233,1.062,0.101
34.5,-0.353,0.764,-0.15
34.51,-0.182,1.264,-0.052
34.52,-0.046,0.831,0.081
34.53,-0.19,0.841,0.161
34.54,-0.199,1.018,-0.046
34.55,-0.323,0.941,-0.229
34.56,-0.145,1.2,0.054
34.57,-0.042,0.77,0.139
34.58,-0.253,0.992,-0.012
34.59,-0.268,0.893,-0.171
34.6,-0.168,1.299,-0.023
34.61,-0.151,0.665,0.171
34.62,-0.029,1.026,0.135
34.63,-0.369,0.883,-0.172
34.64,-0.288,0.947,-0.149
34.65,0.023,1.23,0.072
34.66,-0.135,0.626,0.129
34.67,-0.305,1.108,0.053
34.68,-0.319,0.939,-0.176
34.69,-0.223,1.12,-0.004
34.7,-0.086,0.791,0.201
34.71,-0.102,0.969,0.071
34.72,-0.388,0.935,-0.197
34.73,-0.199,0.972,-0.056
34.74,-0.095,1.2,0.062
34.75,-0.111,0.607,0.144
34.76,-0.294,1.127,0.029
34.77,-0.339,0.922,-0.205
34.78,-0.12,1.12,-0.029
34.79,-0.115,0.898,0.197
34.8,-0.161,0.839,0.07
34.81,-0.393,1.077,-0.183
34.82,-0.058,0.927,-0.113
34.83,-0.095,1.126,0.071
34.84,-0.17,0.688,0.193
34.85,-0.294,1.128,-0.092
34.86,-0.283,0.846,-0.172
34.87,-0.12,1.173,0.149
34.88,-0.138,0.914,0.121
34.89,-0.196,0.763,-0.003
34.9,-0.45,1.235,-0.162
34.91,-0.079,0.87,-0.064
34.92,-0.222,1.127,0.113
34.93,-0.092,0.683,0.203
34.94,-0.415,1.065,-0.155
34.95,-0.226,0.882,-0.114
34.96,-0.069,1.183,0.113
34.97,-0.106,0.875,0.068
34.98,-0.214,0.718,0.027
34.99,-0.386,1.352,-0.204
35.0,-0.079,0.829,-0.025
35.01,-0.247,1.156,0.172
35.02,-0.065,0.719,0.127
35.03,-0.431,1.075,-0.192
35.04,-0.225,0.98,-0.069
35.05,-0.059,1.07,0.082
35.06,-0.171,0.937,0.094
35.07,-0.186,0.725,0.018
35.08,-0.434,1.324,-0.225
35.09,-0.131,0.805,0.028
35.1,-0.148,1.18,0.168
35.11,-0.125,0.689,0.099
35.12,-0.45,1.062,-0.138
35.13,-0.132,1.143,-0.098
35.14,-0.093,0.884,0.047
35.15,-0.2,0.978,0.157
35.16,-0.251,0.738,-0.075
35.17,-0.336,1.237,-0.208
35.18,-0.133,0.861,0.086
35.19,-0.11,1.113,0.135
35.2,-0.16,0.691,0.023
35.21,-0.468,1.052,-0.139
35.22,-0.031,1.173,-0.126
35.23,-0.138,0.783,0.07
35.24,-0.218,1.042,0.184
35.25,-0.184,0.771,-0.149
35.26,-0.344,1.172,-0.15
35.27,-0.07,0.967,0.129
35.28,-0.084,1.007,0.113
35.29,-0.264,0.805,0.029
35.3,-0.376,1.06,-0.142
35.31,-0.176,1.146,-0.057
35.32,-0.242,0.713,0.193
35.33,-0.148,1.099,0.145
35.34,-0.252,0.729,-0.231
35.35,-0.341,1.203,-0.036
35.36,0.015,0.957,0.041
35.37,-0.188,0.828,0.164
35.38,-0.294,0.933,0.029
35.39,-0.255,1.021,-0.218
35.4,-0.196,1.135,-0.064
35.41,-0.139,0.846,0.23
35.42,-0.131,1.011,0.08
35.43,-0.375,0.749,-0.204
35.44,-0.134,1.3,-0.003
35.45,-0.092,0.852,0.066
35.46,-0.238,0.882,0.158
35.47,-0.22,0.959,0.003
35.48,-0.356,1.039,-0.232
35.49,-0.227,1.07,0.054
35.5,-0.029,0.828,0.149
35.51,-0.188,1.003,0.068
35.52,-0.427,0.781,-0.137
35.53,0.001,1.287,-0.096
35.54,-0.152,0.818,0.073
35.55,-0.281,0.873,0.231
35.56,-0.223,0.996,-0.135
35.57,-0.285,0.914,-0.216
35.58,-0.166,1.219,0.071
35.59,-0.028,0.705,0.106
35.6,-0.22,1.027,0.019
35.61,-0.39,0.905,-0.154
35.62,-0.103,1.2,-0.072
35.63,-0.117,0.789,0.067
35.64,-0.191,0.869,0.205
35.65,-0.299,1.052,-0.14
35.66,-0.282,0.823,-0.153
35.67,-0.135,1.261,0.137
35.68,-0.056,0.672,0.08
35.69,-0.295,1.034,-0.008
35.7,-0.333,0.964,-0.126
35.71,-0.163,1.107,-0.015
35.72,-0.142,0.904,0.091
35.73,-0.085,0.81,0.124
35.74,-0.366,1.123,-0.185
35.75,-0.277,0.853,-0.069
35.76,-0.143,1.246,0.059
35.77,-0.119,0.643,0.145
35.78,-0.326,0.997,-0.006
35.79,-0.268,1.013,-0.205
35.8,-0.138,1.033,0.032
35.81,-0.232,0.985,0.152
35.82,-0.01,0.733,0.092
35.83,-0.398,1.175,-0.211
35.84,-0.302,0.831,-0.025
35.85,-0.029,1.223,0.042
35.86,-0.149,0.683,0.132
35.87,-0.34,0.986,0.015
35.88,-0.264,1.055,-0.23
35.89,-0.069,0.973,-0.002
35.9,-0.19,1.067,0.185
35.91,-0.08,0.665,0.014
35.92,-0.448,1.255,-0.23
35.93,-0.115,0.863,-0.027
35.94,-0.177,1.157,0.09
35.95,-0.139,0.734,0.148
35.96,-0.272,1.025,-0.097
35.97,-0.32,1.065,-0.154
35.98,-0.125,0.925,0.074
35.99,-0.067,1.112,0.104
36.0,-0.19,0.617,0.02
36.01,-0.481,1.289,-0.151
36.02,-0.064,0.87,-0.075
36.03,-0.194,1.082,0.099
36.04,-0.151,0.799,0.189
36.05,-0.335,0.905,-0.147
36.06,-0.27,1.106,-0.196
36.07,0.003,0.954,0.124
36.08,-0.211,1.047,0.13
36.09,-0.24,0.653,0.017
36.1,-0.373,1.321,-0.219
36.11,-0.056,0.862,-0.045
36.12,-0.152,1.052,0.123
36.13,-0.085,0.9,0.126
36.14,-0.416,0.859,-0.154
36.15,-0.246,1.192,-0.114
36.16,-0.037,0.87,0.074
36.17,-0.174,1.056,0.114
36.18,-0.251,0.708,-0.002
36.19,-0.345,1.21,-0.207
36.2,-0.142,0.956,0.033
36.21,-0.108,1.001,0.129
36.22,-0.106,0.92,0.064
36.23,-0.407,0.992,-0.179
36.24,-0.148,1.19,-0.024
36.25,-0.094,0.828,0.107
36.26,-0.171,1.009,0.117
36.27,-0.272,0.725,-0.052
36.28,-0.382,1.261,-0.158
36.29,-0.093,0.894,0.066
36.3,-0.072,1.042,0.134
36.31,-0.184,0.793,0.012
36.32,-0.451,0.998,-0.137
36.33,-0.099,1.195,-0.053
36.34,-0.181,0.711,0.123
36.35,-0.125,1.082,0.15
36.36,-0.347,0.765,-0.158
36.37,-0.333,1.146,-0.089
36.38,0.036,0.998,0.065
36.39,-0.159,0.859,0.127
36.4,-0.281,0.894,0.052
36.41,-0.284,1.021,-0.155
36.42,-0.163,1.163,-0.04
36.43,-0.199,0.705,0.174
36.44,-0.083,1.073,0.08
36.45,-0.345,0.782,-0.233
36.46,-0.189,1.163,-0.047
36.47,-0.061,1.04,0.105
36.48,-0.244,0.767,0.185
36.49,-0.278,1.0,-0.004
36.5,-0.279,0.946,-0.248
36.51,-0.135,1.223,-0.012
36.52,-0.154,0.746,0.166
36.53,-0.108,1.023,0.039
36.54,-0.391,0.865,-0.193
36.55,-0.119,1.132,-0.058
36.56,-0.08,0.958,0.061
36.57,-0.22,0.737,0.187
36.58,-0.225,1.116,-0.063
36.59,-0.312,0.847,-0.213
36.6,-0.219,1.229,0.102
36.61,0.005,0.745,0.147
36.62,-0.286,0.963,-0.032
36.63,-0.362,0.926,-0.16
36.64,-0.041,1.064,-0.081
36.65,-0.17,1.029,0.069
36.66,-0.099,0.71,0.151
36.67,-0.32,1.154,-0.138
36.68,-0.296,0.831,-0.137
36.69,-0.077,1.315,0.083
36.7,-0.129,0.726,0.138
36.71,-0.266,0.924,0.016
36.72,-0.391,1.103,-0.194
36.73,-0.089,0.927,-0.047
36.74,-0.2,1.083,0.143
36.75,-0.059,0.699,0.165
36.76,-0.392,1.153,-0.203
36.77,-0.265,0.85,-0.041
36.78,-0.104,1.258,0.042
36.79,-0.119,0.722,0.153
36.8,-0.292,0.937,0.042
36.81,-0.381,1.128,-0.211
36.82,-0.082,0.856,0.014
36.83,-0.159,1.188,0.172
36.84,-0.143,0.649,0.121
36.85,-0.403,1.164,-0.183
36.86,-0.105,0.958,-0.088
36.87,-0.164,1.099,0.11
36.88,-0.098,0.773,0.172
36.89,-0.25,0.872,-0.084
36.9,-0.405,1.17,-0.147
36.91,-0.087,0.92,0.022
36.92,-0.147,1.16,0.135
36.93,-0.113,0.6,0.068
36.94,-0.435,1.266,-0.134
36.95,-0.155,0.992,-0.077
36.96,-0.122,0.956,0.058
36.97,-0.105,0.901,0.187
36.98,-0.298,0.879,-0.072
36.99,-0.396,1.162,-0.173
37.0,-0.068,0.893,0.106
37.01,-0.176,1.199,0.119
37.02,-0.207,0.583,0.017
37.03,-0.448,1.172,-0.192
37.04,-0.116,0.884,-0.037
37.05,-0.235,1.041,0.15
37.06,-0.024,0.822,0.122
37.07,-0.43,0.935,-0.198
37.08,-0.221,1.104,-0.097
37.09,-0.021,0.997,0.116
37.1,-0.272,0.994,0.119
37.11,-0.167,0.652,0.031
37.12,-0.373,1.381,-0.23
37.13,-0.082,0.827,-0.015
37.14,-0.248,1.03,0.23
37.15,-0.049,0.843,0.068
37.16,-0.426,0.912,-0.269
37.17,-0.157,1.238,-0.062
37.18,-0.038,0.857,0.069
37.19,-0.26,1.015,0.117
37.2,-0.207,0.713,-0.053
37.21,-0.328,1.229,-0.229
37.22,-0.146,0.929,0.062
37.23,-0.064,1.008,0.151
37.24,-0.19,0.855,-0.014
37.25,-0.357,0.908,-0.17
37.26,-0.137,1.281,-0.104
37.27,-0.058,0.694,0.097
37.28,-0.177,1.054,0.178
37.29,-0.292,0.784,-0.14
37.3,-0.267,1.111,-0.147
37.31,-0.109,1.086,0.116
37.32,-0.118,0.833,0.133
37.33,-0.213,0.965,0.03
37.34,-0.406,0.963,-0.145
37.35,-0.197,1.227,-0.012
37.36,-0.07,0.728,0.139
37.37,-0.21,1.045,0.125
37.38,-0.296,0.815,-0.202
37.39,-0.28,1.116,-0.063
37.4,-0.071,1.085,0.07
37.41,-0.124,0.656,0.125
37.42,-0.277,1.084,0.045
37.43,-0.353,0.905,-0.221
37.44,-0.114,1.18,-0.012
37.45,-0.1,0.8,0.196
37.46,-0.207,0.959,0.091
37.47,-0.343,0.946,-0.23
37.48,-0.235,1.072,-0.052
37.49,-0.093,1.021,0.059
37.5,-0.12,0.695,0.186
37.51,-0.365,1.164,-0.074
37.52,-0.293,0.786,-0.174
37.53,-0.148,1.245,0.085
37.54,-0.117,0.77,0.127
37.55,-0.168,0.867,0.01
37.56,-0.425,1.094,-0.181
37.57,-0.079,0.977,-0.078
37.58,-0.174,1.047,0.128
37.59,-0.138,0.685,0.195
37.6,-0.364,1.154,-0.164
37.61,-0.191,0.795,-0.172
37.62,-0.132,1.256,0.13
37.63,-0.148,0.755,0.127
37.64,-0.238,0.842,0.032
37.65,-0.36,1.222,-0.23
37.66,-0.054,0.86,-0.025
37.67,-0.221,1.142,0.186
37.68,-0.115,0.682,0.135
37.69,-0.427,1.14,-0.161
37.7,-0.295,0.904,-0.079
37.71,-0.066,1.166,0.063
37.72,-0.136,0.792,0.073
37.73,-0.279,0.833,0.022
37.74,-0.39,1.251,-0.194
37.75,-0.081,0.82,-0.005
37.76,-0.134,1.172,0.178
37.77,-0.119,0.661,0.056
37.78,-0.432,1.177,-0.178
37.79,-0.09,0.968,-0.069
37.8,-0.159,1.024,0.101
37.81,-0.118,0.921,0.124
37.82,-0.278,0.809,-0.071
37.83,-0.43,1.227,-0.124
37.84,-0.046,0.842,0.075
37.85,-0.131,1.126,0.112
37.86,-0.152,0.633,0.002
37.87,-0.409,1.329,-0.173
37.88,-0.149,0.897,-0.005
37.89,-0.167,1.014,0.113
37.9,-0.075,0.823,0.124
37.91,-0.435,0.91,-0.172
37.92,-0.213,1.158,-0.105
37.93,0.008,0.913,0.094
37.94,-0.21,0.972,0.126
37.95,-0.191,0.684,-0.035
37.96,-0.297,1.317,-0.208
37.97,-0.136,0.857,0.031
37.98,-0.186,0.986,0.242
37.99,-0.15,0.896,0.033
38.0,-0.398,0.902,-0.258
38.01,-0.064,1.218,-0.051
38.02,-0.125,0.837,0.142
38.03,-0.239,0.996,0.156
38.04,-0.252,0.769,-0.106
38.05,-0.282,1.181,-0.158
38.06,-0.119,1.004,0.105
38.07,-0.12,0.886,0.136
38.08,-0.241,0.878,-0.026
38.09,-0.396,0.962,-0.133
38.1,-0.18,1.253,-0.033
38.11,-0.162,0.704,0.175
38.12,-0.209,1.046,0.135
38.13,-0.319,0.844,-0.176
38.14,-0.193,1.133,-0.129
38.15,-0.098,1.052,0.147
38.16,-0.137,0.75,0.196
38.17,-0.295,1.021,-0.057
38.18,-0.313,0.934,-0.175
38.19,-0.113,1.237,-0.009
38.2,-0.169,0.715,0.172
38.21,-0.207,1.007,0.101
38.22,-0.31,0.926,-0.208
38.23,-0.28,1.047,-0.041
38.24,-0.04,1.036,0.094
38.25,-0.075,0.717,0.118
38.26,-0.384,1.083,-0.07
38.27,-0.289,0.842,-0.191
38.28,-0.127,1.265,0.086
38.29,-0.096,0.753,0.156
38.3,-0.243,0.92,0.029
38.31,-0.442,1.03,-0.181
38.32,-0.078,1.02,-0.044
38.33,-0.167,1.023,0.131
38.34,-0.194,0.703,0.183
38.35,-0.392,1.16,-0.155
38.36,-0.208,0.824,-0.17
38.37,-0.085,1.292,0.175
38.38,-0.185,0.739,0.17
38.39,-0.308,0.89,-0.025
38.4,-0.31,1.121,-0.216
38.41,-0.077,0.917,0.019
38.42,-0.325,1.129,0.25
38.43,-0.116,0.652,0.086
38.44,-0.449,1.193,-0.218
38.45,-0.102,0.895,-0.075
38.46,-0.119,1.138,0.146
38.47,-0.125,0.833,0.115
38.48,-0.339,0.879,-0.081
38.49,-0.247,1.093,-0.205
38.5,-0.042,0.968,0.079
38.51,-0.206,1.11,0.104
38.52,-0.142,0.636,0.048
38.53,-0.45,1.281,-0.216
38.54,-0.187,0.9,-0.044
38.55,-0.071,1.035,0.133
38.56,-0.078,0.89,0.078
38.57,-0.418,0.796,-0.125
38.58,-0.218,1.209,-0.15
38.59,-0.022,0.895,0.08
38.6,-0.222,1.05,0.164
38.61,-0.17,0.688,0.001
38.62,-0.435,1.249,-0.232
38.63,-0.037,0.907,-0.016
38.64,-0.098,1.008,0.138
38.65,-0.13,0.933,0.073
38.66,-0.373,0.816,-0.155
38.67,-0.272,1.274,-0.027
38.68,-0.072,0.805,0.136
38.69,-0.221,1.039,0.128
38.7,-0.283,0.719,-0.086
38.71,-0.284,1.212,-0.193
38.72,-0.089,0.966,0.123
38.73,-0.201,0.966,0.172
38.74,-0.161,0.808,-0.016
38.75,-0.497,1.062,-0.096
38.76,-0.158,1.202,0.003
38.77,-0.127,0.681,0.063
38.78,-0.106,1.076,0.089
38.79,-0.335,0.791,-0.184
38.8,-0.287,1.22,-0.124
38.81,-0.029,0.94,0.111
38.82,-0.213,0.854,0.146
38.83,-0.321,0.931,-0.01
38.84,-0.288,0.966,-0.182
38.85,-0.133,1.192,-0.001
38.86,-0.104,0.73,0.155
38.87,-0.137,1.028,0.047
38.88,-0.41,0.825,-0.187
38.89,-0.154,1.167,-0.107
38.9,-0.063,0.897,0.128
38.91,-0.206,0.814,0.178
38.92,-0.291,1.072,-0.111
38.93,-0.288,0.865,-0.158
38.94,-0.102,1.283,0.119
38.95,-0.041,0.696,0.128
38.96,-0.337,1.049,0.014
38.97,-0.363,1.001,-0.156
38.98,-0.112,1.054,-0.054
38.99,-0.221,0.944,0.185
39.0,-0.118,0.781,0.08
39.01,-0.375,1.117,-0.223
39.02,-0.255,0.873,-0.022
39.03,-0.088,1.274,0.079
39.04,-0.076,0.641,0.125
39.05,-0.313,1.017,-0.025
39.06,-0.335,0.984,-0.211
39.07,-0.195,1.019,0.06
39.08,-0.174,1.08,0.151
39.09,-0.071,0.63,0.02
39.1,-0.457,1.251,-0.173
39.11,-0.119,0.903,-0.06
39.12,-0.165,1.118,0.112
39.13,-0.168,0.736,0.184
39.14,-0.316,0.996,-0.141
39.15,-0.264,1.009,-0.211
39.16,-0.065,1.022,0.093
39.17,-0.135,1.047,0.127
39.18,-0.219,0.619,0.033
39.19,-0.461,1.36,-0.202
39.2,0.038,0.856,-0.061
39.21,-0.226,1.085,0.131
39.22,-0.103,0.785,0.137
39.23,-0.351,0.974,-0.209
39.24,-0.28,1.106,-0.112
39.25,-0.016,0.938,0.082
39.26,-0.152,1.007,0.076
39.27,-0.279,0.701,0.017
39.28,-0.316,1.292,-0.272
39.29,-0.042,0.86,-0.002
39.3,-0.103,1.08,0.144
39.31,-0.126,0.811,0.047
39.32,-0.487,0.947,-0.176
39.33,-0.054,1.214,-0.098
39.34,-0.009,0.771,0.062
39.35,-0.294,1.065,0.217
39.36,-0.223,0.726,-0.113
39.37,-0.369,1.187,-0.203
39.38,0.008,0.97,0.111
39.39,-0.104,0.937,0.107
39.4,-0.268,0.847,0.005
39.41,-0.312,1.0,-0.168
39.42,-0.111,1.237,-0.062
39.43,-0.201,0.655,0.176
39.44,-0.085,1.076,0.118
39.45,-0.374,0.811,-0.201
39.46,-0.344,1.164,-0.038
39.47,0.015,0.998,0.097
39.48,-0.293,0.728,0.139
39.49,-0.182,0.9,-0.033
39.5,-0.319,1.039,-0.222
39.51,-0.19,1.086,0.106
39.52,-0.033,0.785,0.146
39.53,-0.246,1.037,-0.031
39.54,-0.373,0.833,-0.122
39.55,-0.169,1.256,-0.05
39.56,-0.168,0.738,0.095
39.57,-0.124,0.94,0.154
39.58,-0.349,0.968,-0.179
39.59,-0.288,0.903,-0.062
39.6,-0.012,1.272,0.061
39.61,-0.172,0.578,0.136
39.62,-0.276,1.103,0.056
39.63,-0.316,0.899,-0.274
39.64,-0.132,1.102,-0.004
39.65,-0.18,0.878,0.186
39.66,-0.1,0.825,0.06
39.67,-0.383,1.125,-0.21
39.68,-0.161,0.919,-0.026
39.69,-0.131,1.165,0.071
39.7,-0.137,0.608,0.152
39.71,-0.301,1.147,-0.055
39.72,-0.312,0.849,-0.239
39.73,-0.093,1.136,0.076
39.74,-0.14,0.982,0.148
39.75,-0.196,0.714,0.016
39.76,-0.426,1.23,-0.217
39.77,-0.047,0.899,-0.077
39.78,-0.186,1.102,0.136
39.79,-0.167,0.682,0.202
39.8,-0.431,1.13,-0.132
39.81,-0.263,0.899,-0.17
39.82,-0.054,1.121,0.058
39.83,-0.134,0.912,0.131
39.84,-0.27,0.717,0.032
39.85,-0.346,1.292,-0.176
39.86,-0.127,0.819,0.027
39.87,-0.227,1.115,0.161
39.88,-0.092,0.699,0.12
39.89,-0.422,1.106,-0.191
39.9,-0.246,1.017,-0.066
39.91,-0.049,0.968,0.071
39.92,-0.157,0.963,0.123
39.93,-0.284,0.725,-0.04
39.94,-0.368,1.296,-0.162
39.95,-0.18,0.852,0.05
39.96,-0.072,1.084,0.12
39.97,-0.149,0.673,0.027
39.98,-0.469,1.125,-0.161
39.99,-0.096,1.086,-0.097
40.0,-0.144,0.795,0.124
40.01,-0.139,1.043,0.171
40.02,-0.323,0.733,-0.161
40.03,-0.317,1.218,-0.089
40.04,-0.067,0.917,0.117
40.05,-0.21,0.943,0.102
40.06,-0.169,0.822,0.011
40.07,-0.346,1.125,-0.228
40.08,-0.085,1.084,-0.05
40.09,-0.177,0.783,0.198
40.1,-0.173,1.062,0.097
40.11,-0.369,0.749,-0.196
40.12,-0.278,1.284,-0.045
40.13,-0.055,0.872,0.089
40.14,-0.199,0.871,0.138
40.15,-0.266,0.937,-0.014
40.16,-0.304,1.0,-0.207
40.17,-0.144,1.18,0.084
40.18,-0.089,0.777,0.137
40.19,-0.199,0.982,-0.022
40.2,-0.399,0.862,-0.141
40.21,-0.077,1.253,-0.078
40.22,-0.129,0.76,0.092
40.23,-0.177,0.873,0.218
40.24,-0.342,1.016,-0.16
40.25,-0.3,0.808,-0.175
40.26,0.026,1.32,0.116
40.27,-0.142,0.637,0.106
40.28,-0.296,1.036,0.05
40.29,-0.342,0.971,-0.176
40.3,-0.15,1.105,-0.028
40.31,-0.136,0.791,0.218
40.32,-0.112,0.93,0.046
40.33,-0.399,0.995,-0.208
40.34,-0.176,0.999,-0.023
40.35,-0.123,1.106,0.071
40.36,-0.161,0.651,0.149
40.37,-0.311,1.169,-0.075
40.38,-0.355,0.863,-0.2
40.39,-0.175,1.157,0.121
40.4,-0.098,0.84,0.158
40.41,-0.25,0.838,0.034
40.42,-0.392,1.124,-0.222
40.43,0.006,0.958,-0.099
40.44,-0.18,1.082,0.14
40.45,-0.137,0.707,0.173
40.46,-0.406,1.135,-0.179
40.47,-0.221,0.858,-0.156
40.48,-0.069,1.21,0.133
40.49,-0.171,0.811,0.145
40.5,-0.275,0.861,0.003
40.51,-0.317,1.217,-0.214
40.52,-0.129,0.841,-0.016
40.53,-0.108,1.15,0.157
40.54,-0.104,0.698,0.043
40.55,-0.494,1.183,-0.151
40.56,-0.122,0.956,-0.033
40.57,-0.102,1.073,0.069
40.58,-0.171,0.861,0.149
40.59,-0.281,0.804,-0.077
40.6,-0.411,1.257,-0.157
40.61,-0.055,0.833,0.102
40.62,-0.074,1.119,0.122
40.63,-0.225,0.65,0.027
40.64,-0.469,1.201,-0.15
40.65,-0.042,1.072,-0.046
40.66,-0.194,0.859,0.1
40.67,-0.125,1.001,0.152
40.68,-0.393,0.768,-0.178
40.69,-0.324,1.229,-0.12
40.7,0.036,0.886,0.107
40.71,-0.193,0.997,0.083
40.72,-0.229,0.744,-0.002
40.73,-0.345,1.201,-0.203
40.74,-0.157,1.003,0.021
40.75,-0.062,0.849,0.157
40.76,-0.235,0.976,0.038
40.77,-0.409,0.841,-0.163
40.78,-0.13,1.326,-0.08
40.79,-0.172,0.735,0.137
40.8,-0.178,0.988,0.186
40.81,-0.253,0.884,-0.147
40.82,-0.346,1.021,-0.112
40.83,-0.025,1.171,0.129
40.84,-0.117,0.69,0.112
40.85,-0.27,1.057,-0.004
40.86,-0.298,0.955,-0.214
40.87,-0.137,1.173,-0.06
40.88,-0.147,0.764,0.196
40.89,-0.167,0.945,0.081
40.9,-0.376,0.933,-0.218
40.91,-0.102,0.978,-0.055
40.92,-0.143,1.17,0.132
40.93,-0.136,0.641,0.166
40.94,-0.268,1.142,-0.063
40.95,-0.375,0.836,-0.209
40.96,-0.142,1.23,0.104
40.97,-0.063,0.839,0.078
40.98,-0.265,0.843,0.009
40.99,-0.329,1.151,-0.18
41.0,-0.177,0.917,-0.038
41.01,-0.208,1.056,0.169
41.02,-0.034,0.72,0.183
41.03,-0.447,1.139,-0.177
41.04,-0.243,0.835,-0.154
41.05,-0.0,1.248,0.084
41.06,-0.175,0.756,0.099
41.07,-0.243,0.854,0.041
41.08,-0.364,1.231,-0.232
41.09,-0.147,0.812,-0.024
41.1,-0.16,1.189,0.168
41.11,-0.087,0.665,0.064
41.12,-0.424,1.156,-0.191
41.13,-0.083,0.917,-0.111
41.14,-0.149,1.079,0.099
41.15,-0.142,0.804,0.203
41.16,-0.37,0.967,-0.135
41.17,-0.331,1.023,-0.172
41.18,-0.024,0.984,0.12
41.19,-0.14,1.09,0.093
41.2,-0.242,0.636,-0.008
41.21,-0.358,1.321,-0.154
41.22,-0.13,0.881,-0.041
41.23,-0.184,1.017,0.147
41.24,-0.041,0.856,0.127
41.25,-0.467,0.892,-0.211
41.26,-0.291,1.118,-0.059
41.27,0.063,0.964,0.084
41.28,-0.217,0.996,0.113
41.29,-0.268,0.68,0.016
41.3,-0.344,1.309,-0.24
41.31,-0.171,0.853,0.006
41.32,-0.017,1.039,0.186
41.33,-0.139,0.837,0.011
41.34,-0.507,0.898,-0.142
41.35,-0.087,1.242,-0.056
41.36,-0.172,0.78,0.086
41.37,-0.207,1.05,0.212
41.38,-0.293,0.771,-0.128
41.39,-0.366,1.112,-0.146
41.4,-0.106,1.019,0.141
41.41,-0.164,0.85,0.102
41.42,-0.27,0.905,0.006
41.43,-0.294,1.004,-0.173
41.44,-0.126,1.208,-0.082
41.45,-0.241,0.647,0.185
41.46,-0.082,1.043,0.098
41.47,-0.382,0.841,-0.249
41.48,-0.165,1.111,-0.054
41.49,-0.034,1.025,0.089
41.5,-0.24,0.73,0.135
41.51,-0.241,1.045,-0.001
41.52,-0.286,0.923,-0.23
41.53,-0.208,1.246,0.09
41.54,-0.016,0.752,0.132
41.55,-0.224,0.982,0.031
41.56,-0.418,0.919,-0.127
41.57,-0.099,1.107,-0.086
41.58,-0.187,0.938,0.107
41.59,-0.125,0.737,0.219
41.6,-0.321,1.165,-0.138
41.61,-0.322,0.777,-0.165
41.62,-0.095,1.284,0.135
41.63,-0.078,0.745,0.086
41.64,-0.231,0.932,0.026
41.65,-0.352,1.094,-0.181
41.66,-0.043,0.97,-0.062
41.67,-0.268,1.011,0.117
41.68,-0.048,0.748,0.163
41.69,-0.453,1.176,-0.194
41.7,-0.311,0.838,-0.041
41.71,-0.023,1.25,0.072
41.72,-0.141,0.689,0.049
41.73,-0.256,0.947,0.047
41.74,-0.281,1.156,-0.245
41.75,-0.196,0.872,0.051
41.76,-0.12,1.127,0.156
41.77,-0.052,0.678,-0.006
41.78,-0.548,1.207,-0.121
41.79,-0.116,0.881,-0.095
41.8,-0.205,1.116,0.102
41.81,-0.142,0.822,0.166
41.82,-0.32,0.884,-0.114
41.83,-0.261,1.065,-0.195
41.84,-0.024,0.982,0.075
41.85,-0.107,1.077,0.101
41.86,-0.214,0.61,0.057
41.87,-0.439,1.29,-0.163
41.88,-0.072,0.899,-0.077
41.89,-0.229,1.026,0.137
41.9,-0.13,0.882,0.16
41.91,-0.355,0.853,-0.16
41.92,-0.337,1.168,-0.111
41.93,-0.01,0.933,0.056
41.94,-0.161,0.944,0.118
41.95,-0.243,0.719,0.03
41.96,-0.339,1.342,-0.234
41.97,-0.113,0.797,0.015
41.98,-0.212,1.114,0.217
41.99,-0.079,0.761,0.082
42.0,-0.442,1.004,-0.229
42.01,-0.15,1.164,-0.019
42.02,-0.046,0.837,0.079
42.03,-0.248,1.002,0.165
42.04,-0.251,0.747,-0.094
42.05,-0.269,1.211,-0.202
42.06,-0.095,0.898,0.13
42.07,-0.136,0.992,0.157
42.08,-0.18,0.802,-0.013
42.09,-0.378,1.021,-0.178
42.1,-0.137,1.144,-0.056
42.11,-0.114,0.778,0.144
42.12,-0.214,1.052,0.155
42.13,-0.334,0.747,-0.174
42.14,-0.194,1.219,-0.148
42.15,-0.113,0.94,0.073
42.16,-0.114,0.793,0.139
42.17,-0.181,0.986,-0.006
42.18,-0.399,0.983,-0.228
42.19,-0.121,1.14,-0.025
42.2,-0.081,0.785,0.151
42.21,-0.195,1.042,0.061
42.22,-0.348,0.784,-0.171
42.23,-0.153,1.211,-0.085
42.24,-0.165,0.913,0.132
42.25,-0.148,0.739,0.186
42.26,-0.308,1.09,-0.07
42.27,-0.337,0.87,-0.182
42.28,-0.156,1.218,0.072
42.29,-0.1,0.791,0.117
42.3,-0.181,1.0,0.034
42.31,-0.329,0.95,-0.17
42.32,-0.277,1.126,-0.059
42.33,-0.069,0.896,0.126
42.34,-0.133,0.779,0.183
42.35,-0.415,1.099,-0.131
42.36,-0.225,0.828,-0.151
42.37,-0.129,1.285,0.122
42.38,-0.171,0.641,0.11
42.39,-0.2,0.99,-0.031
42.4,-0.308,1.018,-0.198
42.41,-0.18,0.985,-0.006
42.42,-0.167,1.0,0.142
42.43,-0.064,0.742,0.1
42.44,-0.506,1.159,-0.159
42.45,-0.136,0.865,-0.083
42.46,-0.112,1.251,0.109
42.47,-0.205,0.675,0.137
42.48,-0.236,0.983,-0.004
42.49,-0.323,1.085,-0.272
42.5,-0.068,0.876,0.028
42.51,-0.104,1.122,0.163
42.52,-0.153,0.664,0.044
42.53,-0.436,1.206,-0.188
42.54,-0.163,0.593,0.053
42.55,-0.417,1.346,-0.172
42.56,-0.064,0.909,-0.125
42.57,-0.146,0.986,0.113
42.58,-0.16,0.869,0.206
42.59,-0.398,0.919,-0.15
42.6,-0.281,1.14,-0.166
42.61,-0.045,0.954,0.132
42.62,-0.153,1.013,0.106
42.63,-0.181,0.67,0.014
42.64,-0.304,1.368,-0.209
42.65,-0.181,0.863,-0.005
42.66,-0.158,0.958,0.179
42.67,-0.096,0.924,0.072
42.68,-0.443,0.834,-0.214
42.69,-0.112,1.15,-0.024
42.7,-0.145,0.872,0.086
42.71,-0.19,0.962,0.178
42.72,-0.173,0.757,-0.103
42.73,-0.381,1.282,-0.191
42.74,0.011,0.919,0.104
42.75,-0.152,1.018,0.117
42.76,-0.27,0.749,0.024
42.77,-0.372,1.084,-0.164
42.78,-0.178,1.128,-0.052
42.79,-0.172,0.74,0.172
42.8,-0.166,1.106,0.152
42.81,-0.319,0.731,-0.194
42.82,-0.339,1.174,-0.071
42.83,0.017,0.932,0.061
42.84,-0.158,0.883,0.135
42.85,-0.254,0.889,0.015
42.86,-0.263,1.028,-0.215
42.87,-0.18,1.169,-0.018
42.88,-0.132,0.736,0.204
42.89,-0.152,1.054,0.104
42.9,-0.411,0.788,-0.202
42.91,-0.186,1.226,-0.071
42.92,-0.031,0.911,0.079
42.93,-0.202,0.773,0.178
42.94,-0.219,1.019,-0.025
42.95,-0.32,0.938,-0.212
42.96,-0.133,1.19,0.052
42.97,0.01,0.777,0.115
42.98,-0.284,0.999,0.025
42.99,-0.456,0.862,-0.114
43.0,-0.172,1.174,-0.088
43.01,-0.203,0.858,0.076
43.02,-0.094,0.811,0.215
43.03,-0.379,1.115,-0.091
43.04,-0.322,0.813,-0.163
43.05,-0.005,1.253,0.13
43.06,-0.107,0.703,0.117
43.07,-0.3,0.987,-0.0
43.08,-0.323,1.016,-0.167
43.09,-0.13,1.007,-0.11
43.1,-0.148,0.965,0.187
43.11,-0.093,0.768,0.122
43.12,-0.477,1.143,-0.163
43.13,-0.177,0.863,-0.082
43.14,-0.089,1.278,0.094
43.15,-0.15,0.591,0.149
43.16,-0.25,1.024,0.009
43.17,-0.352,1.106,-0.185
43.18,-0.168,0.948,0.044
43.19,-0.147,1.049,0.167
43.2,-0.123,0.647,0.051
43.21,-0.519,1.239,-0.153
43.22,-0.052,0.917,-0.056
43.23,-0.15,1.116,0.053
43.24,-0.195,0.714,0.209
43.25,-0.201,1.019,-0.101
43.26,-0.359,1.045,-0.19
43.27,-0.113,0.957,0.111
43.28,-0.06,1.152,0.094
43.29,-0.215,0.609,0.031
43.3,-0.437,1.292,-0.12
43.31,-0.202,0.881,-0.033
43.32,-0.306,1.063,0.144
43.33,0.012,0.846,0.129
43.34,-0.406,0.921,-0.145
43.35,-0.28,1.078,-0.161
43.36,0.038,0.944,0.117
43.37,-0.169,1.059,0.1
43.38,-0.181,0.616,0.007
43.39,-0.417,1.37,-0.17
43.4,-0.165,0.902,-0.007
43.41,-0.187,1.015,0.177
43.42,-0.137,0.836,0.116
43.43,-0.475,0.872,-0.172
43.44,-0.213,1.238,-0.089
43.45,0.016,0.87,0.087
43.46,-0.246,1.027,0.133
43.47,-0.17,0.708,-0.05
43.48,-0.348,1.331,-0.211
43.49,-0.145,0.931,-0.01
43.5,-0.143,0.952,0.163
43.51,-0.189,0.744,0.007
43.52,-0.418,1.044,-0.178
43.53,-0.067,1.176,-0.045
43.54,-0.149,0.789,0.155
43.55,-0.166,1.007,0.125
43.56,-0.296,0.771,-0.129
43.57,-0.31,1.207,-0.191
43.58,-0.058,0.905,0.143
43.59,-0.109,1.03,0.111
43.6,-0.275,0.793,-0.076
43.61,-0.256,0.994,-0.133
43.62,-0.117,1.241,-0.015
43.63,-0.242,0.661,0.198
43.64,-0.091,1.074,0.07
43.65,-0.347,0.805,-0.268
43.66,-0.178,1.194,-0.072
43.67,-0.008,0.908,0.11
43.68,-0.238,0.846,0.144
43.69,-0.275,0.962,-0.037
43.7,-0.264,0.955,-0.212
43.71,-0.143,1.237,0.063
43.72,-0.055,0.688,0.163
43.73,-0.276,1.017,0.048
43.74,-0.382,0.879,-0.21
43.75,-0.045,1.158,-0.077
43.76,-0.163,0.913,0.154
43.77,-0.176,0.807,0.171
43.78,-0.263,1.093,-0.132
43.79,-0.369,0.859,-0.096
43.8,-0.076,1.274,0.116
43.81,-0.183,0.691,0.12
43.82,-0.301,1.006,0.017
43.83,-0.354,0.995,-0.181
43.84,-0.139,1.063,-0.046
43.85,-0.125,0.884,0.114
43.86,-0.073,0.779,0.106
43.87,-0.431,1.126,-0.186
43.88,-0.207,0.853,-0.042
43.89,-0.019,1.259,0.073
43.9,-0.191,0.639,0.148
43.91,-0.28,1.068,-0.002
43.92,-0.274,1.061,-0.245
43.93,-0.195,0.943,0.011
43.94,-0.055,1.081,0.17
43.95,-0.168,0.685,0.032
43.96,-0.517,1.196,-0.2
43.97,-0.011,0.876,-0.078
43.98,-0.181,1.115,0.096
43.99,-0.127,0.718,0.188
44.0,-0.349,0.992,-0.137
44.01,-0.297,1.02,-0.216
44.02,0.026,1.043,0.075
44.03,-0.195,0.994,0.147
44.04,-0.25,0.673,0.038
44.05,-0.383,1.336,-0.213
44.06,-0.099,0.834,0.017
44.07,-0.177,1.098,0.141
44.08,-0.05,0.812,0.088
44.09,-0.411,0.92,-0.179
44.1,-0.198,1.121,-0.102
44.11,-0.074,0.912,0.129
44.12,-0.211,1.044,0.14
44.13,-0.236,0.698,-0.014
44.14,-0.366,1.253,-0.252
44.15,-0.058,0.876,0.002
44.16,-0.098,1.057,0.163
44.17,-0.143,0.786,0.029
44.18,-0.449,0.962,-0.18
44.19,-0.088,1.228,-0.074
44.2,-0.105,0.727,0.097
44.21,-0.179,1.078,0.191
44.22,-0.309,0.749,-0.113
44.23,-0.348,1.188,-0.172
44.24,-0.089,0.975,0.139
44.25,-0.143,0.867,0.098
44.26,-0.304,0.897,0.024
44.27,-0.323,1.01,-0.205
44.28,-0.102,1.194,-0.062
44.29,-0.181,0.712,0.175
44.3,-0.053,1.064,0.092
44.31,-0.384,0.788,-0.188
44.32,-0.285,1.198,-0.031
44.33,-0.088,0.816,0.079
44.34,-0.249,0.933,0.154
44.35,-0.192,0.881,-0.081
44.36,-0.364,1.009,-0.178
44.37,-0.076,1.145,0.111
44.38,-0.044,0.749,0.124
44.39,-0.248,0.998,0.003
44.4,-0.398,0.859,-0.138
44.41,-0.118,1.252,-0.057
44.42,-0.11,0.735,0.13
44.43,-0.206,0.958,0.167
44.44,-0.326,1.001,-0.176
44.45,-0.29,0.904,-0.093
44.46,-0.066,1.26,0.149
44.47,-0.087,0.649,0.115
44.48,-0.303,1.065,-0.023
44.49,-0.252,0.94,-0.217
44.5,-0.176,1.156,0.011
44.51,-0.153,0.81,0.204
44.52,-0.158,0.832,0.069
44.53,-0.478,1.111,-0.186
44.54,-0.07,0.909,-0.046
44.55,-0.165,1.194,0.061
44.56,-0.18,0.6,0.223
44.57,-0.241,1.17,-0.088
44.58,-0.32,0.912,-0.189
44.59,-0.143,1.171,0.143
44.6,-0.069,0.944,0.127
44.61,-0.247,0.736,0.01
44.62,-0.448,1.271,-0.159
44.63,-0.137,0.902,-0.073
44.64,-0.225,1.106,0.14
44.65,-0.023,0.738,0.145
44.66,-0.419,1.09,-0.205
44.67,-0.295,0.939,-0.074
44.68,-0.022,1.124,0.096
44.69,-0.124,0.888,0.031
44.7,-0.228,0.742,0.047
44.71,-0.403,1.283,-0.203
44.72,-0.149,0.811,0.024
44.73,-0.146,1.22,0.157
44.74,-0.076,0.692,0.035
44.75,-0.468,1.113,-0.15
44.76,-0.102,1.081,-0.075
44.77,-0.077,0.884,0.084
44.78,-0.22,0.965,0.169
44.79,-0.253,0.751,-0.077
44.8,-0.367,1.232,-0.2
44.81,-0.017,0.882,0.141
44.82,-0.182,1.085,0.136
44.83,-0.195,0.684,-0.007
44.84,-0.392,1.138,-0.148
44.85,-0.121,1.108,-0.056
44.86,-0.163,0.778,0.172
44.87,-0.093,1.067,0.094
44.88,-0.394,0.721,-0.176
44.89,-0.266,1.264,-0.097
44.9,0.04,0.948,0.052
44.91,-0.185,0.884,0.11
44.92,-0.189,0.852,0.039
44.93,-0.361,1.092,-0.226
44.94,-0.145,1.117,-0.007
44.95,-0.046,0.817,0.125
44.96,-0.194,0.997,0.06
44.97,-0.402,0.851,-0.131
44.98,-0.106,1.306,-0.131
44.99,-0.164,0.739,0.124
45.0,-0.199,0.937,0.23
45.01,-0.339,0.96,-0.088
45.02,-0.341,0.856,-0.175
45.03,-0.003,1.284,0.114
45.04,-0.165,0.75,0.135
45.05,-0.272,1.007,0.04
45.06,-0.318,0.934,-0.166
45.07,-0.24,1.148,-0.052
45.08,-0.069,0.753,0.139
45.09,-0.067,0.948,0.109
45.1,-0.51,0.978,-0.185
45.11,-0.123,0.85,-0.095
45.12,-0.026,1.353,0.063
45.13,-0.134,0.543,0.099
45.14,-0.196,1.144,-0.014
45.15,-0.396,0.858,-0.223
45.16,-0.228,1.205,0.111
45.17,-0.066,0.869,0.108
45.18,-0.246,0.848,0.004
45.19,-0.362,1.071,-0.13
45.2,-0.16,1.054,-0.096
45.21,-0.163,1.014,0.084
45.22,0.006,0.728,0.176
45.23,-0.474,1.139,-0.152
45.24,-0.328,0.802,-0.128
45.25,0.002,1.243,0.063
45.26,-0.179,0.78,0.089
45.27,-0.209,0.862,0.084
45.28,-0.351,1.18,-0.27
45.29,-0.156,0.804,-0.058
45.3,-0.104,1.196,0.196
45.31,-0.108,0.665,0.047
45.32,-0.468,1.09,-0.139
45.33,-0.079,1.026,-0.051
45.34,-0.096,1.119,0.061
45.35,-0.141,0.766,0.15
45.36,-0.168,0.854,-0.051
45.37,-0.436,1.198,-0.242
45.38,0.001,0.829,0.062
45.39,-0.103,1.274,0.177
45.4,-0.227,0.611,0.055
45.41,-0.429,1.158,-0.188
45.42,-0.116,1.073,-0.083
45.43,-0.169,0.944,0.076
45.44,-0.11,0.896,0.173
45.45,-0.259,0.826,-0.182
45.46,-0.316,1.172,-0.147
45.47,-0.064,0.934,0.123
45.48,-0.183,1.089,0.13
45.49,-0.172,0.666,0.031
45.5,-0.463,1.277,-0.15
45.51,-0.116,1.007,-0.071
45.52,-0.19,0.858,0.13
45.53,-0.122,0.959,0.17
45.54,-0.416,0.77,-0.209
45.55,-0.207,1.245,-0.079
45.56,0.017,0.922,0.083
45.57,-0.255,0.937,0.117
45.58,-0.167,0.774,-0.005
45.59,-0.311,1.201,-0.265
45.6,-0.083,0.987,-0.007
45.61,-0.135,0.877,0.191
45.62,-0.175,0.98,0.014
45.63,-0.396,0.777,-0.143
45.64,-0.09,1.351,-0.059
45.65,-0.125,0.735,0.125
45.66,-0.237,0.981,0.203
45.67,-0.254,0.875,-0.119
45.68,-0.31,0.987,-0.222
45.69,-0.072,1.165,0.133
45.7,-0.136,0.722,0.137
45.71,-0.369,1.026,0.049
45.72,-0.244,0.909,-0.197
45.73,-0.206,1.219,-0.004
45.74,-0.139,0.709,0.17
45.75,-0.116,0.958,0.071
45.76,-0.344,0.964,-0.235
45.77,-0.16,0.968,-0.101
45.78,-0.151,1.142,0.105
45.79,-0.085,0.658,0.163
45.8,-0.348,1.11,0.002
45.81,-0.368,0.794,-0.258
45.82,-0.055,1.157,0.01
45.83,-0.156,0.954,0.156
45.84,-0.163,0.811,0.051
45.85,-0.437,1.069,-0.149
45.86,-0.088,0.991,-0.087
45.87,-0.167,1.131,0.043
45.88,-0.085,0.687,0.179
45.89,-0.422,1.114,-0.078
45.9,-0.319,0.828,-0.159
45.91,-0.085,1.192,0.13
45.92,-0.157,0.896,0.112
45.93,-0.19,0.78,0.01
45.94,-0.328,1.247,-0.193
45.95,-0.137,0.84,-0.029
45.96,-0.149,1.047,0.186
45.97,-0.151,0.687,0.091
45.98,-0.461,1.155,-0.161
45.99,-0.09,0.931,-0.042
46.0,-0.14,1.219,0.11
46.01,-0.171,0.694,0.182
46.02,-0.285,0.962,-0.03
46.03,-0.363,1.123,-0.207
46.04,-0.159,0.924,0.07
46.05,-0.087,1.113,0.108
46.06,-0.104,0.607,-0.011
46.07,-0.455,1.314,-0.16
46.08,-0.11,0.907,-0.056
46.09,-0.192,1.051,0.109
46.1,-0.042,0.807,0.128
46.11,-0.387,0.875,-0.155
46.12,-0.268,1.111,-0.123
46.13,-0.031,0.967,0.119
46.14,-0.214,1.027,0.136
46.15,-0.184,0.633,0.034
46.16,-0.437,1.315,-0.202
46.17,-0.081,0.882,-0.022
46.18,-0.177,1.047,0.192
46.19,-0.079,0.861,0.062
46.2,-0.445,0.854,-0.178
46.21,-0.146,1.265,-0.085
46.22,-0.031,0.825,0.069
46.23,-0.281,1.023,0.152
46.24,-0.184,0.712,-0.012
46.25,-0.374,1.221,-0.201
46.26,-0.075,0.948,0.06
46.27,-0.134,0.964,0.17
46.28,-0.154,0.882,0.024
46.29,-0.428,0.933,-0.159
46.3,-0.09,1.281,-0.09
46.31,-0.13,0.676,0.085
46.32,-0.126,1.036,0.169
46.33,-0.255,0.826,-0.182
46.34,-0.34,1.025,-0.169
46.35,-0.004,1.071,0.126
46.36,-0.123,0.817,0.103
46.37,-0.355,0.958,0.033
46.38,-0.183,0.942,-0.246
46.39,-0.16,1.258,-0.025
46.4,-0.222,0.693,0.218
46.41,-0.1,0.971,0.102
46.42,-0.459,0.923,-0.166
46.43,-0.132,1.08,-0.101
46.44,-0.121,1.061,0.097
46.45,-0.167,0.664,0.142
46.46,-0.271,1.147,-0.036
46.47,-0.291,0.837,-0.198
46.48,-0.229,1.192,0.06
46.49,-0.055,0.819,0.143
46.5,-0.153,0.915,0.001
46.51,-0.378,1.0,-0.169
46.52,-0.158,1.024,-0.059
46.53,-0.125,1.034,0.078
46.54,-0.069,0.708,0.163
46.55,-0.372,1.143,-0.12
46.56,-0.344,0.798,-0.131
46.57,-0.047,1.316,0.111
46.58,-0.154,0.781,0.141
46.59,-0.296,0.845,0.043
46.6,-0.299,1.195,-0.161
46.61,-0.163,0.894,-0.045
46.62,-0.266,1.084,0.19
46.63,-0.032,0.699,0.103
46.64,-0.488,1.143,-0.223
46.65,-0.208,0.864,-0.045
46.66,-0.057,1.202,0.061
46.67,-0.172,0.758,0.13
46.68,-0.191,0.853,0.012
46.69,-0.337,1.22,-0.194
46.7,-0.164,0.908,0.047
46.71,-0.091,1.195,0.137
46.72,-0.091,0.579,0.017
46.73,-0.501,1.22,-0.157
46.74,-0.105,0.99,-0.058
46.75,-0.145,1.012,0.065
46.76,-0.105,0.868,0.173
46.77,-0.287,0.843,-0.124
46.78,-0.302,1.016,-0.16
46.79,-0.039,1.015,0.113
46.8,-0.168,0.987,0.137
46.81,-0.256,0.673,0.044
46.82,-0.469,1.337,-0.205
46.83,-0.118,0.799,-0.008
46.84,-0.167,1.078,0.166
46.85,-0.125,0.821,0.136
46.86,-0.412,0.928,-0.189
46.87,-0.239,1.099,-0.09
46.88,-0.053,0.915,0.106
46.89,-0.171,1.008,0.118
46.9,-0.258,0.712,-0.018
46.91,-0.341,1.304,-0.209
46.92,-0.073,0.872,-0.025
46.93,-0.11,1.072,0.167
46.94,-0.162,0.82,0.073
46.95,-0.442,0.904,-0.169
46.96,-0.124,1.265,-0.054
46.97,-0.116,0.745,0.102
46.98,-0.262,1.038,0.202
46.99,-0.237,0.755,-0.111
47.0,-0.312,1.195,-0.203
47.01,-0.079,0.957,0.157
47.02,-0.155,0.884,0.131
47.03,-0.251,0.882,0.015
47.04,-0.375,0.964,-0.151
47.05,-0.131,1.22,-0.073
47.06,-0.14,0.678,0.128
47.07,-0.115,1.09,0.107
47.08,-0.327,0.841,-0.212
47.09,-0.314,1.143,-0.132
47.1,0.058,1.009,0.049
47.11,-0.11,0.747,0.088
47.12,-0.312,1.039,0.039
47.13,-0.288,0.916,-0.174
47.14,-0.178,1.21,0.011
47.15,-0.103,0.728,0.165
47.16,-0.166,0.99,0.017
47.17,-0.348,0.915,-0.197
47.18,-0.147,1.117,-0.077
47.19,-0.072,0.965,0.113
47.2,-0.227,0.732,0.192
47.21,-0.326,1.12,-0.119
47.22,-0.276,0.827,-0.161
47.23,-0.167,1.252,0.136
47.24,-0.048,0.721,0.115
47.25,-0.261,0.962,-0.0
47.26,-0.46,1.046,-0.135
47.27,-0.127,0.997,-0.048
47.28,-0.179,1.018,0.118
47.29,-0.111,0.728,0.111
47.3,-0.375,1.168,-0.197
47.31,-0.249,0.842,-0.047
47.32,-0.091,1.242,0.085
47.33,-0.104,0.701,0.124
47.34,-0.323,0.949,-0.001
47.35,-0.263,1.095,-0.249
47.36,-0.074,0.924,0.012
47.37,-0.189,1.152,0.194
47.38,-0.111,0.596,0.064
47.39,-0.487,1.251,-0.21
47.4,-0.013,0.917,-0.118
47.41,-0.126,1.084,0.082
47.42,-0.161,0.8,0.203
47.43,-0.334,0.944,-0.142
47.44,-0.261,1.061,-0.23
47.45,-0.036,0.948,0.122
47.46,-0.195,1.091,0.135
47.47,-0.168,0.598,-0.011
47.48,-0.428,1.31,-0.197
47.49,-0.039,0.896,-0.025
47.5,-0.213,1.067,0.15
47.51,-0.125,0.849,0.1
47.52,-0.341,0.87,-0.199
47.53,-0.269,1.226,-0.069
47.54,-0.025,0.86,0.113
47.55,-0.221,1.046,0.153
47.56,-0.244,0.688,-0.033
47.57,-0.347,1.274,-0.197
47.58,-0.154,0.931,0.051
47.59,-0.168,0.939,0.18
47.6,-0.168,0.749,0.03
47.61,-0.458,1.045,-0.17
47.62,-0.108,1.136,-0.05
47.63,-0.081,0.781,0.102
47.64,-0.18,1.05,0.148
47.65,-0.289,0.758,-0.108
47.66,-0.369,1.21,-0.097
47.67,-0.12,0.925,0.142
47.68,-0.13,0.939,0.094
47.69,-0.243,0.826,-0.019
47.7,-0.322,1.094,-0.156
47.71,-0.139,1.179,-0.016
47.72,-0.212,0.667,0.207
47.73,-0.146,1.094,0.096
47.74,-0.36,0.786,-0.273
47.75,-0.162,1.221,-0.035
47.76,-0.077,0.905,0.114
47.77,-0.267,0.833,0.166
47.78,-0.28,0.983,-0.048
47.79,-0.303,0.951,-0.205
47.8,-0.156,1.139,0.076
47.81,-0.049,0.721,0.148
47.82,-0.282,1.043,-0.016
47.83,-0.367,0.875,-0.144
47.84,-0.194,1.193,-0.016
47.85,-0.167,0.832,0.127
47.86,-0.123,0.844,0.17
47.87,-0.384,1.071,-0.171
47.88,-0.233,0.848,-0.126
47.89,-0.015,1.314,0.088
47.9,-0.069,0.613,0.057
47.91,-0.303,1.054,0.053
47.92,-0.278,0.953,-0.226
47.93,-0.157,1.084,0.022
47.94,-0.182,0.932,0.197
47.95,-0.121,0.755,0.082
47.96,-0.399,1.168,-0.218
47.97,-0.013,0.918,-0.079
47.98,-0.208,1.189,0.121
47.99,-0.186,0.699,0.228
48.0,-0.29,1.05,-0.107
48.01,-0.367,0.933,-0.179
48.02,-0.129,1.078,0.151
48.03,-0.176,1.025,0.103
48.04,-0.265,0.675,0.015
48.05,-0.386,1.359,-0.135
48.06,-0.099,0.902,-0.038
48.07,-0.249,1.075,0.203
48.08,-0.03,0.75,0.15
48.09,-0.47,1.023,-0.213
48.1,-0.276,1.047,-0.085
48.11,-0.011,1.026,0.075
48.12,-0.258,0.93,0.12
48.13,-0.126,0.723,0.009
48.14,-0.44,1.35,-0.198
48.15,-0.158,0.764,-0.012
48.16,-0.051,1.139,0.178
48.17,-0.148,0.769,0.022
48.18,-0.475,0.974,-0.153
48.19,-0.074,1.209,-0.056
48.2,-0.133,0.825,0.11
48.21,-0.177,0.986,0.171
48.22,-0.219,0.749,-0.106
48.23,-0.401,1.249,-0.164
48.24,-0.07,0.906,0.132
48.25,-0.053,1.042,0.115
48.26,-0.251,0.819,-0.014
48.27,-0.33,1.058,-0.158
48.28,-0.091,1.19,-0.071
48.29,-0.205,0.711,0.137
48.3,-0.089,1.073,0.129
48.31,-0.39,0.723,-0.214
48.32,-0.269,1.152,-0.077
48.33,0.054,1.027,0.092
48.34,-0.217,0.829,0.096
48.35,-0.288,0.931,0.013
48.36,-0.27,1.031,-0.206
