t,ax,ay,az
0.0,-0.075,1.286,0.065
0.01,-0.095,0.607,0.135
0.02,-0.271,1.014,0.018
0.03,-0.324,1.04,-0.257
0.04,-0.075,0.902,-0.032
0.05,-0.171,1.062,0.172
0.06,-0.148,0.815,0.067
0.07,-0.471,1.123,-0.146
0.08,-0.103,0.957,-0.07
0.09,-0.17,1.163,0.042
0.1,-0.094,0.646,0.219
0.11,-0.368,1.162,-0.075
0.12,-0.259,0.819,-0.237
0.13,-0.066,1.187,0.132
0.14,-0.141,0.876,0.119
0.15,-0.235,0.729,0.042
0.16,-0.354,1.332,-0.221
0.17,-0.095,0.838,-0.065
0.18,-0.29,1.156,0.113
0.19,0.022,0.729,0.142
0.2,-0.4,1.062,-0.155
0.21,-0.305,0.866,-0.101
0.22,-0.008,1.139,0.084
0.23,-0.174,0.873,0.111
0.24,-0.168,0.712,0.078
0.25,-0.413,1.387,-0.173
0.26,-0.111,0.743,-0.061
0.27,-0.288,1.149,0.191
0.28,-0.06,0.757,0.14
0.29,-0.418,0.998,-0.188
0.3,-0.27,0.931,-0.146
0.31,0.053,1.087,0.082
0.32,-0.131,0.961,0.103
0.33,-0.222,0.676,0.032
0.34,-0.36,1.369,-0.219
0.35,-0.112,0.78,-0.047
0.36,-0.161,1.136,0.156
0.37,-0.067,0.766,0.119
0.38,-0.469,0.986,-0.168
0.39,-0.272,1.069,-0.046
0.4,-0.045,0.987,0.052
0.41,-0.186,0.941,0.137
0.42,-0.275,0.73,-0.011
0.43,-0.334,1.284,-0.207
0.44,-0.115,0.827,-0.011
0.45,-0.196,1.137,0.192
0.46,-0.147,0.745,0.088
0.47,-0.441,0.99,-0.171
0.48,-0.193,1.177,-0.066
0.49,-0.025,0.829,0.034
0.5,-0.203,1.023,0.177
0.51,-0.296,0.741,-0.007
0.52,-0.336,1.228,-0.195
0.53,-0.174,0.915,0.07
0.54,-0.063,1.067,0.164
0.55,-0.17,0.813,0.002
0.56,-0.414,0.926,-0.164
0.57,-0.117,1.237,-0.042
0.58,-0.048,0.78,0.073
0.59,-0.203,1.027,0.152
0.6,-0.178,0.797,-0.064
0.61,-0.372,1.208,-0.174
0.62,-0.111,0.887,0.044
0.63,-0.029,1.014,0.178
0.64,-0.245,0.869,0.003
0.65,-0.361,0.868,-0.18
0.66,-0.062,1.319,-0.078
0.67,-0.138,0.699,0.124
0.68,-0.211,1.019,0.153
0.69,-0.213,0.834,-0.14
0.7,-0.375,1.135,-0.15
0.71,-0.135,1.005,0.109
0.72,0.016,0.881,0.112
0.73,-0.285,0.944,0.015
0.74,-0.406,0.903,-0.119
0.75,-0.086,1.277,-0.094
0.76,-0.119,0.683,0.106
0.77,-0.173,1.06,0.203
0.78,-0.309,0.87,-0.181
0.79,-0.33,0.998,-0.107
0.8,0.046,1.131,0.09
0.81,-0.117,0.776,0.109
0.82,-0.399,0.993,0.013
0.83,-0.168,0.936,-0.17
0.84,-0.212,1.248,-0.044
0.85,-0.209,0.658,0.198
0.86,-0.033,1.002,0.046
0.87,-0.371,0.92,-0.222
0.88,-0.114,1.192,-0.074
0.89,-0.06,0.937,0.061
0.9,-0.244,0.8,0.202
0.91,-0.256,1.046,-0.043
0.92,-0.35,0.898,-0.186
0.93,-0.14,1.205,0.038
0.94,-0.052,0.752,0.161
0.95,-0.185,0.976,-0.002
0.96,-0.378,0.918,-0.149
0.97,-0.107,1.11,-0.085
0.98,-0.105,0.864,0.089
0.99,-0.158,0.818,0.205
1.0,-0.311,1.126,-0.103
1.01,-0.331,0.81,-0.168
1.02,-0.145,1.253,0.085
1.03,-0.058,0.734,0.117
1.04,-0.264,0.955,0.039
1.05,-0.37,0.986,-0.152
1.06,-0.08,1.111,-0.056
1.07,-0.191,0.916,0.097
1.08,-0.086,0.733,0.176
1.09,-0.382,1.167,-0.134
1.1,-0.276,0.784,-0.131
1.11,-0.057,1.305,0.103
1.12,-0.126,0.705,0.104
1.13,-0.341,0.956,0.031
1.14,-0.285,1.056,-0.187
1.15,-0.114,0.946,-0.07
1.16,-0.239,1.027,0.163
1.17,-0.01,0.754,0.092
1.18,-0.453,1.137,-0.216
1.19,-0.244,0.855,0.032
1.2,-0.02,1.303,0.058
1.21,-0.171,0.659,0.121
1.22,-0.271,0.982,0.037
1.23,-0.267,1.134,-0.273
1.24,-0.182,0.848,0.037
1.25,-0.205,1.123,0.266
1.26,-0.029,0.664,0.044
1.27,-0.533,1.177,-0.205
1.28,-0.063,0.892,-0.053
1.29,-0.073,1.159,0.035
1.3,-0.177,0.722,0.164
1.31,-0.187,0.96,-0.066
1.32,-0.35,1.116,-0.226
1.33,-0.19,0.869,0.095
1.34,-0.073,1.227,0.133
1.35,-0.167,0.572,0.019
1.36,-0.428,1.227,-0.151
1.37,-0.064,1.008,-0.04
1.38,-0.165,1.006,0.078
1.39,-0.148,0.822,0.193
1.4,-0.289,0.915,-0.11
1.41,-0.329,1.113,-0.176
1.42,-0.105,0.903,0.133
1.43,-0.154,1.171,0.129
1.44,-0.2,0.631,0.002
1.45,-0.523,1.232,-0.138
1.46,-0.053,0.969,-0.087
1.47,-0.163,0.962,0.107
1.48,-0.116,0.923,0.207
1.49,-0.338,0.849,-0.157
1.5,-0.295,1.147,-0.161
1.51,-0.035,0.875,0.128
1.52,-0.095,1.074,0.107
1.53,-0.209,0.729,-0.036
1.54,-0.362,1.202,-0.171
1.55,-0.128,0.961,-0.018
1.56,-0.23,0.917,0.189
1.57,-0.03,0.974,0.08
1.58,-0.394,0.786,-0.226
1.59,-0.197,1.229,-0.025
1.6,-0.404,1.013,-0.169
1.61,-0.252,0.864,-0.134
1.62,-0.006,1.131,0.02
1.63,-0.207,0.663,0.163
1.64,-0.31,1.129,0.022
1.65,-0.308,0.877,-0.22
1.66,-0.204,1.17,-0.011
1.67,-0.069,0.845,0.172
1.68,-0.178,0.931,0.052
1.69,-0.453,0.954,-0.138
1.7,-0.05,1.046,-0.087
1.71,-0.151,1.087,0.076
1.72,-0.162,0.636,0.229
1.73,-0.266,1.187,-0.073
1.74,-0.336,0.799,-0.201
1.75,-0.167,1.19,0.065
1.76,-0.029,0.894,0.129
1.77,-0.204,0.825,0.024
1.78,-0.448,1.119,-0.145
1.79,-0.07,0.946,-0.121
1.8,-0.159,1.032,0.074
1.81,-0.121,0.715,0.221
1.82,-0.398,1.169,-0.141
1.83,-0.272,0.775,-0.194
1.84,-0.047,1.272,0.104
1.85,-0.057,0.848,0.116
1.86,-0.274,0.782,0.05
1.87,-0.277,1.254,-0.158
1.88,-0.219,0.912,-0.006
1.89,-0.301,1.052,0.12
1.9,0.108,0.709,0.161
1.91,-0.476,1.188,-0.215
1.92,-0.284,0.772,-0.11
1.93,-0.002,1.231,0.063
1.94,-0.16,0.844,0.133
1.95,-0.299,0.781,0.076
1.96,-0.337,1.291,-0.191
1.97,-0.15,0.783,-0.026
1.98,-0.276,1.189,0.248
1.99,-0.025,0.682,0.096
2.0,-0.505,1.096,-0.208
2.01,-0.21,0.972,-0.043
2.02,-0.129,1.128,0.093
2.03,-0.181,0.856,0.101
2.04,-0.202,0.768,0.032
2.05,-0.449,1.3,-0.169
2.06,-0.131,0.79,-0.008
2.07,-0.14,1.215,0.177
2.08,-0.098,0.666,0.066
2.09,-0.432,1.088,-0.184
2.1,-0.11,1.07,-0.06
2.11,-0.076,0.951,0.054
2.12,-0.165,0.895,0.16
2.13,-0.234,0.802,-0.028
2.14,-0.354,1.254,-0.204
2.15,-0.17,0.847,0.071
2.16,-0.115,1.164,0.141
2.17,-0.095,0.658,0.021
2.18,-0.466,1.108,-0.143
2.19,-0.077,1.141,-0.114
2.2,-0.069,0.826,0.073
2.21,-0.171,1.025,0.192
2.22,-0.255,0.778,-0.081
2.23,-0.357,1.199,-0.176
2.24,-0.104,0.848,0.105
2.25,-0.136,1.115,0.112
2.26,-0.154,0.72,-0.011
2.27,-0.38,1.055,-0.134
2.28,-0.181,1.149,-0.05
2.29,-0.223,0.748,0.118
2.3,-0.109,1.083,0.158
2.31,-0.294,0.745,-0.173
2.32,-0.299,1.214,-0.089
2.33,-0.039,0.997,0.063
2.34,-0.112,0.88,0.107
2.35,-0.196,0.848,0.048
2.36,-0.38,1.071,-0.191
2.37,-0.119,1.145,-0.067
2.38,-0.162,0.756,0.127
2.39,-0.168,1.05,0.155
2.4,-0.317,0.771,-0.192
2.41,-0.295,1.145,-0.081
2.42,-0.098,0.953,0.09
2.43,-0.117,0.942,0.151
2.44,-0.293,0.799,0.005
2.45,-0.291,1.099,-0.207
2.46,-0.057,1.051,-0.074
2.47,-0.205,0.859,0.188
2.48,-0.141,1.009,0.106
2.49,-0.392,0.823,-0.214
2.5,-0.21,1.243,-0.058
2.51,-0.133,0.852,0.071
2.52,-0.196,0.916,0.186
2.53,-0.247,0.92,-0.023
2.54,-0.313,0.991,-0.181
2.55,-0.146,1.119,-0.009
2.56,-0.098,0.794,0.168
2.57,-0.084,1.011,0.087
2.58,-0.424,0.833,-0.167
2.59,-0.191,1.227,-0.032
2.6,-0.076,0.825,0.03
2.61,-0.258,0.887,0.217
2.62,-0.196,1.0,-0.089
2.63,-0.298,0.889,-0.193
2.64,-0.199,1.184,0.072
2.65,-0.052,0.775,0.13
2.66,-0.166,1.021,0.065
2.67,-0.387,0.893,-0.17
2.68,-0.134,1.197,-0.089
2.69,-0.133,0.855,0.079
2.7,-0.171,0.846,0.222
2.71,-0.337,1.075,-0.101
2.72,-0.251,0.806,-0.214
2.73,-0.125,1.261,0.061
2.74,-0.072,0.701,0.133
2.75,-0.183,1.015,0.045
2.76,-0.404,0.961,-0.126
2.77,-0.222,1.09,-0.059
2.78,-0.156,0.885,0.073
2.79,-0.175,0.864,0.221
2.8,-0.324,1.087,-0.112
2.81,-0.253,0.738,-0.171
2.82,-0.125,1.304,0.076
2.83,-0.056,0.727,0.152
2.84,-0.226,0.95,0.022
2.85,-0.349,1.031,-0.142
2.86,-0.104,1.053,-0.092
2.87,-0.187,0.949,0.063
2.88,-0.12,0.748,0.214
2.89,-0.359,1.168,-0.134
2.9,-0.32,0.743,-0.154
2.91,-0.145,1.295,0.118
2.92,-0.043,0.759,0.137
2.93,-0.249,0.956,0.046
2.94,-0.399,1.058,-0.195
2.95,-0.082,0.97,-0.093
2.96,-0.198,1.028,0.085
2.97,-0.087,0.722,0.165
2.98,-0.445,1.155,-0.132
2.99,-0.235,0.772,-0.159
3.0,-0.116,1.316,0.089
3.01,-0.093,0.734,0.139
3.02,-0.273,0.914,0.067
3.03,-0.382,1.138,-0.172
3.04,-0.118,0.881,-0.034
3.05,-0.286,1.095,0.131
3.06,-0.041,0.689,0.159
3.07,-0.385,1.152,-0.172
3.08,-0.249,0.775,-0.116
3.09,-0.098,1.262,0.054
3.1,-0.123,0.776,0.162
3.11,-0.269,0.881,0.063
3.12,-0.457,1.175,-0.184
3.13,-0.066,0.825,-0.039
3.14,-0.196,1.194,0.121
3.15,-0.085,0.665,0.156
3.16,-0.403,1.099,-0.17
3.17,-0.225,0.83,-0.12
3.18,-0.107,1.219,0.076
3.19,-0.143,0.828,0.153
3.2,-0.21,0.814,0.027
3.21,-0.465,1.247,-0.184
3.22,-0.071,0.857,-0.042
3.23,-0.209,1.162,0.12
3.24,-0.059,0.713,0.142
3.25,-0.48,1.194,-0.181
3.26,-0.238,0.784,-0.081
3.27,-0.066,1.279,0.083
3.28,-0.106,0.757,0.137
3.29,-0.32,0.887,-0.004
3.3,-0.238,1.13,-0.235
3.31,-0.107,0.902,-0.064
3.32,-0.242,1.115,0.175
3.33,-0.055,0.675,0.101
3.34,-0.406,1.168,-0.227
3.35,-0.206,0.834,-0.023
3.36,-0.078,1.223,0.062
3.37,-0.14,0.656,0.157
3.38,-0.295,1.079,-0.025
3.39,-0.283,1.002,-0.183
3.4,-0.172,1.051,0.049
3.41,-0.137,1.077,0.152
3.42,-0.099,0.655,0.069
3.43,-0.49,1.234,-0.172
3.44,-0.154,0.843,-0.031
3.45,-0.089,1.208,0.049
3.46,-0.034,0.724,0.119
3.47,-0.327,1.015,-0.054
3.48,-0.324,1.001,-0.193
3.49,-0.113,0.985,0.05
3.5,-0.243,1.133,0.146
3.51,-0.072,0.603,0.065
3.52,-0.493,1.225,-0.192
3.53,-0.157,0.87,-0.014
3.54,-0.08,1.191,0.072
3.55,-0.135,0.755,0.127
3.56,-0.282,0.946,-0.005
3.57,-0.306,1.103,-0.209
3.58,-0.157,0.924,0.024
3.59,-0.15,1.199,0.121
3.6,-0.079,0.604,0.074
3.61,-0.476,1.229,-0.179
3.62,-0.074,0.913,-0.098
3.63,-0.068,1.083,0.041
3.64,-0.153,0.828,0.195
3.65,-0.257,0.936,-0.064
3.66,-0.338,1.138,-0.201
3.67,-0.201,0.853,0.074
3.68,-0.129,1.214,0.12
3.69,-0.072,0.615,0.033
3.7,-0.502,1.258,-0.18
3.71,-0.105,0.916,-0.115
3.72,-0.13,1.019,0.063
3.73,-0.121,0.859,0.176
3.74,-0.281,0.877,-0.078
3.75,-0.317,1.172,-0.181
3.76,-0.174,0.848,0.052
3.77,-0.157,1.18,0.162
3.78,-0.065,0.652,0.065
3.79,-0.516,1.18,-0.21
3.8,-0.123,1.033,-0.064
3.81,-0.085,0.996,0.05
3.82,-0.177,0.895,0.161
3.83,-0.222,0.808,-0.073
3.84,-0.333,1.264,-0.194
3.85,-0.09,0.809,0.044
3.86,-0.144,1.168,0.175
3.87,-0.073,0.677,0.057
3.88,-0.497,1.127,-0.175
3.89,-0.129,1.085,-0.05
3.9,-0.083,0.903,0.034
3.91,-0.24,0.99,0.2
3.92,-0.201,0.794,-0.089
3.93,-0.34,1.237,-0.162
3.94,-0.209,0.804,0.131
3.95,-0.069,1.14,0.136
3.96,-0.132,0.724,-0.013
3.97,-0.431,1.038,-0.168
3.98,-0.098,1.161,-0.059
3.99,-0.115,0.797,0.05
4.0,-0.166,1.008,0.188
4.01,-0.245,0.753,-0.092
4.02,-0.314,1.203,-0.202
4.03,-0.132,0.923,0.114
4.04,-0.062,1.033,0.103
4.05,-0.145,0.675,0.047
4.06,-0.473,1.256,-0.15
4.07,-0.12,0.97,-0.088
4.08,-0.186,0.895,0.138
4.09,-0.158,1.016,0.156
4.1,-0.292,0.805,-0.133
4.11,-0.299,1.163,-0.14
4.12,-0.114,0.893,0.122
4.13,-0.162,1.1,0.144
4.14,-0.126,0.693,-0.036
4.15,-0.469,1.135,-0.145
4.16,-0.118,1.052,-0.056
4.17,-0.152,0.851,0.12
4.18,-0.221,1.026,0.198
4.19,-0.306,0.754,-0.169
4.2,-0.291,1.189,-0.145
4.21,-0.06,0.954,0.071
4.22,-0.125,1.009,0.148
4.23,-0.203,0.732,0.025
4.24,-0.382,1.096,-0.14
4.25,-0.168,1.116,-0.062
4.26,-0.118,0.752,0.103
4.27,-0.2,1.069,0.193
4.28,-0.251,0.801,-0.161
4.29,-0.352,1.167,-0.162
4.3,-0.043,0.938,0.07
4.31,-0.094,0.989,0.131
4.32,-0.213,0.834,0.016
4.33,-0.429,1.033,-0.126
4.34,-0.137,1.169,-0.029
4.35,-0.227,0.763,0.122
4.36,-0.118,1.064,0.183
4.37,-0.343,0.789,-0.183
4.38,-0.284,1.108,-0.119
4.39,-0.037,1.014,0.07
4.4,-0.149,0.857,0.134
4.41,-0.267,0.868,0.017
4.42,-0.309,1.024,-0.168
4.43,-0.133,1.171,-0.043
4.44,-0.198,0.735,0.139
4.45,-0.073,1.067,0.122
4.46,-0.279,0.796,-0.212
4.47,-0.282,1.107,-0.084
4.48,-0.05,1.059,0.027
4.49,-0.115,0.781,0.142
4.5,-0.273,0.984,0.064
4.51,-0.317,0.972,-0.176
4.52,-0.192,1.183,-0.017
4.53,-0.173,0.723,0.149
4.54,-0.095,1.087,0.147
4.55,-0.319,0.796,-0.204
4.56,-0.246,1.076,-0.067
4.57,-0.057,1.144,0.046
4.58,-0.12,0.722,0.108
4.59,-0.276,1.047,0.01
4.6,-0.329,0.949,-0.148
4.61,-0.185,1.184,-0.041
4.62,-0.156,0.733,0.121
4.63,-0.105,1.039,0.133
4.64,-0.353,0.885,-0.2
4.65,-0.273,0.986,-0.078
4.66,-0.053,1.161,0.044
4.67,-0.089,0.659,0.135
4.68,-0.332,1.071,0.01
4.69,-0.255,0.901,-0.177
4.7,-0.189,1.166,-0.028
4.71,-0.218,0.735,0.161
4.72,-0.104,1.007,0.142
4.73,-0.339,0.975,-0.22
4.74,-0.308,0.934,-0.059
4.75,-0.007,1.184,0.057
4.76,-0.129,0.623,0.134
4.77,-0.334,1.099,0.043
4.78,-0.29,0.919,-0.2
4.79,-0.143,1.117,-0.065
4.8,-0.206,0.827,0.211
4.81,-0.072,0.922,0.066
4.82,-0.432,1.028,-0.192
4.83,-0.174,0.934,-0.062
4.84,-0.135,1.243,0.067
4.85,-0.115,0.553,0.138
4.86,-0.263,1.141,-0.011
4.87,-0.292,0.835,-0.215
4.88,-0.207,1.177,0.046
4.89,-0.075,0.822,0.151
4.9,-0.147,0.953,0.048
4.91,-0.413,0.976,-0.164
4.92,-0.21,1.062,-0.054
4.93,-0.04,1.063,0.049
4.94,-0.146,0.678,0.166
4.95,-0.314,1.168,-0.06
4.96,-0.285,0.821,-0.157
4.97,-0.173,1.212,0.046
4.98,-0.166,0.832,0.152
4.99,-0.138,0.889,0.1
5.0,-0.417,1.053,-0.2
5.01,-0.201,0.948,-0.072
5.02,-0.155,1.084,0.093
5.03,-0.08,0.641,0.145
5.04,-0.337,1.206,-0.079
5.05,-0.264,0.786,-0.24
5.06,-0.185,1.163,0.021
5.07,-0.019,0.926,0.111
5.08,-0.165,0.833,0.001
5.09,-0.394,1.082,-0.152
5.1,-0.051,0.975,-0.053
5.11,-0.166,1.158,0.045
5.12,-0.12,0.624,0.208
5.13,-0.327,1.174,-0.08
5.14,-0.31,0.818,-0.193
5.15,-0.188,1.17,0.072
5.16,-0.082,0.917,0.121
5.17,-0.154,0.745,0.022
5.18,-0.459,1.169,-0.15
5.19,0.017,0.9,-0.088
5.2,-0.22,1.159,0.058
5.21,-0.111,0.664,0.214
5.22,-0.273,1.164,-0.111
5.23,-0.264,0.831,-0.223
5.24,-0.198,1.093,0.117
5.25,-0.044,1.015,0.129
5.26,-0.225,0.685,-0.005
5.27,-0.498,1.202,-0.136
5.28,-0.038,0.877,-0.056
5.29,-0.223,1.164,0.063
5.3,-0.123,0.701,0.239
5.31,-0.335,1.098,-0.129
5.32,-0.262,0.863,-0.186
5.33,-0.156,1.104,0.113
5.34,-0.075,1.028,0.111
5.35,-0.235,0.635,0.005
5.36,-0.452,1.284,-0.134
5.37,-0.04,0.891,-0.104
5.38,-0.25,1.125,0.098
5.39,-0.075,0.702,0.218
5.4,-0.338,1.051,-0.19
5.41,-0.27,1.0,-0.173
5.42,-0.09,1.015,0.033
5.43,-0.088,1.042,0.13
5.44,-0.203,0.653,0.028
5.45,-0.417,1.303,-0.162
5.46,-0.137,0.838,-0.044
5.47,-0.209,1.099,0.094
5.48,-0.082,0.768,0.174
5.49,-0.353,0.964,-0.178
5.5,-0.238,1.041,-0.16
5.51,-0.094,0.971,0.072
5.52,-0.147,1.064,0.123
5.53,-0.192,0.653,0.024
5.54,-0.414,1.32,-0.142
5.55,-0.137,0.874,-0.029
5.56,-0.201,1.035,0.169
5.57,-0.051,0.867,0.165
5.58,-0.414,0.943,-0.161
5.59,-0.264,1.099,-0.119
5.6,-0.034,0.967,0.068
5.61,-0.14,1.017,0.08
5.62,-0.202,0.664,0.046
5.63,-0.357,1.328,-0.193
5.64,-0.141,0.885,-0.021
5.65,-0.183,0.988,0.125
5.66,-0.024,0.87,0.154
5.67,-0.423,0.89,-0.196
5.68,-0.163,1.06,-0.035
5.69,-0.051,1.0,0.064
5.7,-0.218,0.932,0.142
5.71,-0.189,0.752,0.002
5.72,-0.423,1.347,-0.193
5.73,-0.143,0.794,-0.02
5.74,-0.116,1.122,0.182
5.75,-0.079,0.75,0.054
5.76,-0.485,1.002,-0.187
5.77,-0.096,1.163,-0.056
5.78,-0.126,0.863,0.107
5.79,-0.198,1.007,0.153
5.8,-0.17,0.721,-0.062
5.81,-0.357,1.236,-0.168
5.82,-0.178,0.906,0.083
5.83,-0.16,1.071,0.165
5.84,-0.055,0.777,0.024
5.85,-0.469,1.03,-0.145
5.86,-0.129,1.177,-0.09
5.87,-0.097,0.76,0.068
5.88,-0.2,1.066,0.207
5.89,-0.283,0.749,-0.131
5.9,-0.299,1.147,-0.125
5.91,-0.136,0.986,0.034
5.92,-0.105,0.939,0.1
5.93,-0.141,0.84,0.031
5.94,-0.438,0.982,-0.163
5.95,-0.155,1.221,-0.067
5.96,-0.068,0.708,0.075
5.97,-0.171,1.036,0.181
5.98,-0.282,0.804,-0.152
5.99,-0.326,1.093,-0.137
6.0,-0.083,1.062,0.084
6.01,-0.151,0.893,0.139
6.02,-0.169,0.913,0.005
6.03,-0.411,0.955,-0.114
6.04,-0.185,1.219,-0.027
6.05,-0.119,0.69,0.09
6.06,-0.199,1.055,0.207
6.07,-0.263,0.817,-0.151
6.08,-0.302,1.054,-0.14
6.09,-0.081,1.087,0.081
6.1,-0.096,0.775,0.139
6.11,-0.304,0.987,0.006
6.12,-0.355,0.95,-0.129
6.13,-0.136,1.21,-0.01
6.14,-0.221,0.755,0.161
6.15,-0.102,1.0,0.16
6.16,-0.367,0.891,-0.191
6.17,-0.212,1.013,-0.053
6.18,-0.065,1.165,0.045
6.19,-0.133,0.628,0.121
6.2,-0.294,1.103,0.039
6.21,-0.309,0.928,-0.238
6.22,-0.105,1.145,-0.028
6.23,-0.161,0.817,0.199
6.24,-0.1,0.925,0.075
6.25,-0.386,0.971,-0.216
6.26,-0.166,0.986,-0.04
6.27,-0.116,1.133,0.034
6.28,-0.116,0.655,0.141
6.29,-0.318,1.144,-0.01
6.3,-0.313,0.851,-0.222
6.31,-0.166,1.149,0.003
6.32,-0.078,0.869,0.161
6.33,-0.11,0.904,0.06
6.34,-0.378,1.025,-0.188
6.35,-0.132,0.926,-0.015
6.36,-0.086,1.152,0.062
6.37,-0.15,0.646,0.182
6.38,-0.339,1.167,-0.072
6.39,-0.302,0.824,-0.182
6.4,-0.15,1.155,0.031
6.41,-0.038,0.907,0.133
6.42,-0.18,0.793,0.026
6.43,-0.42,1.171,-0.198
6.44,-0.066,0.939,-0.113
6.45,-0.16,1.123,0.034
6.46,-0.135,0.652,0.22
6.47,-0.347,1.176,-0.086
6.48,-0.332,0.815,-0.161
6.49,-0.095,1.308,0.095
6.5,-0.08,0.787,0.119
6.51,-0.292,0.906,0.022
6.52,-0.322,1.103,-0.193
6.53,-0.087,0.945,-0.052
6.54,-0.203,1.047,0.114
6.55,-0.048,0.691,0.155
6.56,-0.399,1.179,-0.209
6.57,-0.257,0.791,-0.076
6.58,-0.143,1.285,0.077
6.59,-0.099,0.723,0.075
6.6,-0.274,0.852,0.017
6.61,-0.316,1.189,-0.186
6.62,-0.146,0.878,-0.001
6.63,-0.23,1.103,0.151
6.64,-0.036,0.716,0.118
6.65,-0.448,1.17,-0.199
6.66,-0.222,0.858,-0.052
6.67,-0.069,1.219,0.076
6.68,-0.14,0.774,0.128
6.69,-0.233,0.832,0.029
6.7,-0.333,1.244,-0.242
6.71,-0.061,0.816,-0.025
6.72,-0.223,1.167,0.193
6.73,-0.072,0.644,0.07
6.74,-0.43,1.182,-0.182
6.75,-0.133,0.967,-0.065
6.76,-0.163,1.058,0.102
6.77,-0.18,0.882,0.212
6.78,-0.207,0.838,-0.044
6.79,-0.429,1.199,-0.2
6.8,0.016,0.851,0.035
6.81,-0.208,1.24,0.171
6.82,-0.164,0.595,0.073
6.83,-0.439,1.168,-0.153
6.84,-0.116,1.077,-0.08
6.85,-0.219,0.944,0.101
6.86,-0.08,0.886,0.118
6.87,-0.314,0.778,-0.058
6.88,-0.376,1.214,-0.131
6.89,-0.073,0.833,0.024
6.9,-0.138,1.136,0.117
6.91,-0.158,0.664,0.05
6.92,-0.41,1.14,-0.207
6.93,-0.046,1.038,-0.109
6.94,-0.122,0.829,0.088
6.95,-0.116,1.043,0.167
6.96,-0.323,0.805,-0.166
6.97,-0.251,1.144,-0.168
6.98,-0.048,0.943,0.1
6.99,-0.169,1.032,0.115
7.0,-0.153,0.73,-0.023
7.01,-0.418,1.146,-0.14
7.02,-0.164,1.065,-0.047
7.03,-0.122,0.815,0.131
7.04,-0.121,1.078,0.142
7.05,-0.363,0.77,-0.173
7.06,-0.284,1.181,-0.092
7.07,-0.011,0.937,0.054
7.08,-0.113,0.903,0.142
7.09,-0.295,0.847,0.035
7.1,-0.274,1.081,-0.229
7.11,-0.109,1.073,-0.093
7.12,-0.171,0.77,0.203
7.13,-0.129,1.05,0.106
7.14,-0.366,0.826,-0.177
7.15,-0.26,1.254,-0.009
7.16,-0.09,0.908,0.053
7.17,-0.164,0.844,0.179
7.18,-0.195,0.967,-0.026
7.19,-0.392,0.948,-0.206
7.2,-0.122,1.135,-0.003
7.21,-0.082,0.803,0.183
7.22,-0.198,1.03,0.091
7.23,-0.349,0.825,-0.173
7.24,-0.202,1.226,-0.035
7.25,-0.146,0.883,0.087
7.26,-0.142,0.814,0.145
7.27,-0.316,1.07,-0.056
7.28,-0.306,0.893,-0.213
7.29,-0.172,1.17,0.084
7.3,-0.077,0.79,0.15
7.31,-0.302,1.005,0.012
7.32,-0.363,0.867,-0.14
7.33,-0.146,1.257,-0.124
7.34,-0.171,0.674,0.089
7.35,-0.047,1.002,0.172
7.36,-0.319,1.018,-0.197
7.37,-0.327,0.861,-0.092
7.38,-0.021,1.266,0.076
7.39,-0.089,0.691,0.1
7.4,-0.317,1.015,0.038
7.41,-0.259,0.939,-0.184
7.42,-0.187,1.17,-0.084
7.43,-0.173,0.746,0.137
7.44,0.007,0.919,0.159
7.45,-0.443,1.008,-0.225
7.46,-0.152,0.833,-0.072
7.47,-0.057,1.319,0.133
7.48,-0.154,0.592,0.136
7.49,-0.295,1.065,0.01
7.5,-0.238,0.982,-0.201
7.51,-0.26,1.1,-0.016
7.52,-0.192,0.821,0.158
7.53,-0.065,0.855,0.106
7.54,-0.531,1.093,-0.207
7.55,-0.186,0.843,-0.029
7.56,-0.075,1.285,0.055
7.57,-0.149,0.582,0.143
7.58,-0.3,1.114,0.061
7.59,-0.323,0.961,-0.234
7.6,-0.161,1.002,-0.027
7.61,-0.036,0.976,0.147
7.62,-0.154,0.76,0.032
7.63,-0.536,1.185,-0.171
7.64,-0.002,0.872,-0.066
7.65,-0.219,1.222,0.074
7.66,-0.077,0.639,0.196
7.67,-0.281,1.144,-0.115
7.68,-0.35,0.85,-0.192
7.69,-0.197,1.068,0.134
7.7,-0.028,1.06,0.083
7.71,-0.229,0.63,0.043
7.72,-0.447,1.275,-0.168
7.73,-0.016,0.888,-0.077
7.74,-0.274,1.128,0.112
7.75,-0.077,0.687,0.176
7.76,-0.265,1.089,-0.129
7.77,-0.36,0.996,-0.146
7.78,-0.138,1.011,0.088
7.79,-0.052,1.078,0.096
7.8,-0.293,0.621,0.025
7.81,-0.418,1.336,-0.137
7.82,-0.048,0.878,-0.066
7.83,-0.289,1.078,0.136
7.84,-0.006,0.747,0.18
7.85,-0.426,1.001,-0.198
7.86,-0.281,1.007,-0.106
7.87,0.022,1.043,0.087
7.88,-0.217,1.039,0.119
7.89,-0.241,0.636,0.021
7.9,-0.337,1.343,-0.175
7.91,-0.149,0.84,-0.013
7.92,-0.247,1.03,0.16
7.93,-0.003,0.802,0.106
7.94,-0.504,0.979,-0.18
7.95,-0.224,1.108,-0.023
7.96,0.015,0.936,0.067
7.97,-0.251,0.965,0.122
7.98,-0.188,0.717,-0.0
7.99,-0.253,1.312,-0.231
8.0,-0.229,0.872,0.077
8.01,-0.106,1.031,0.17
8.02,-0.12,0.83,0.026
8.03,-0.505,0.968,-0.124
8.04,-0.092,1.248,-0.089
8.05,-0.107,0.74,0.067
8.06,-0.239,1.063,0.267
8.07,-0.236,0.787,-0.134
8.08,-0.31,1.094,-0.21
8.09,-0.064,1.0,0.11
8.1,-0.147,0.997,0.149
8.11,-0.186,0.823,0.012
8.12,-0.35,1.181,-0.174
8.13,-0.128,1.107,-0.048
8.14,-0.291,0.774,0.13
8.15,-0.07,1.037,0.155
8.16,-0.337,0.772,-0.216
8.17,-0.323,1.145,-0.08
8.18,0.01,0.962,0.089
8.19,-0.134,0.921,0.105
8.2,-0.26,0.849,0.031
8.21,-0.279,1.129,-0.215
8.22,-0.16,1.096,-0.078
8.23,-0.19,0.753,0.196
8.24,-0.082,1.064,0.138
8.25,-0.406,0.771,-0.229
8.26,-0.299,1.178,0.024
8.27,0.032,1.004,0.081
8.28,-0.224,0.783,0.105
8.29,-0.283,0.946,0.073
8.3,-0.23,1.042,-0.249
8.31,-0.219,1.104,-0.02
8.32,-0.084,0.774,0.203
8.33,-0.117,1.049,0.053
8.34,-0.515,0.795,-0.182
8.35,-0.044,1.19,-0.068
8.36,-0.126,0.966,0.084
8.37,-0.242,0.747,0.222
8.38,-0.167,1.095,-0.053
8.39,-0.331,0.919,-0.246
8.4,-0.215,1.167,0.024
8.41,0.034,0.776,0.15
8.42,-0.243,1.019,0.058
8.43,-0.472,0.902,-0.172
8.44,-0.104,1.137,-0.046
8.45,-0.111,0.917,0.046
8.46,-0.197,0.794,0.217
8.47,-0.228,1.151,-0.122
8.48,-0.339,0.788,-0.166
8.49,-0.177,1.271,0.099
8.5,-0.062,0.81,0.138
8.51,-0.219,0.938,0.015
8.52,-0.402,0.952,-0.186
8.53,-0.042,1.131,-0.096
8.54,-0.177,0.928,0.052
8.55,-0.102,0.734,0.196
8.56,-0.388,1.206,-0.151
8.57,-0.265,0.721,-0.173
8.58,-0.067,1.29,0.125
8.59,-0.08,0.764,0.121
8.6,-0.3,0.894,-0.016
8.61,-0.315,1.052,-0.129
8.62,-0.132,1.018,0.005
8.63,-0.248,1.005,0.123
8.64,-0.035,0.734,0.143
8.65,-0.438,1.216,-0.153
8.66,-0.36,0.787,-0.078
8.67,0.025,1.277,0.058
8.68,-0.042,0.739,0.087
8.69,-0.367,0.917,0.061
8.7,-0.268,1.075,-0.264
8.71,-0.079,0.905,-0.059
8.72,-0.27,1.118,0.176
8.73,0.077,0.64,0.086
8.74,-0.539,1.201,-0.191
8.75,-0.19,0.84,-0.033
8.76,-0.062,1.193,0.032
8.77,-0.104,0.762,0.116
8.78,-0.279,0.945,-0.004
8.79,-0.22,1.123,-0.263
8.8,-0.186,0.879,0.02
8.81,-0.129,1.178,0.144
8.82,-0.005,0.608,0.083
8.83,-0.544,1.201,-0.193
8.84,-0.15,0.89,-0.053
8.85,-0.068,1.141,0.058
8.86,-0.238,0.806,0.184
8.87,-0.217,0.833,-0.018
8.88,-0.292,1.179,-0.202
8.89,-0.188,0.849,0.071
8.9,-0.126,1.216,0.159
8.91,-0.038,0.614,0.046
8.92,-0.562,1.141,-0.179
8.93,-0.001,0.898,-0.06
8.94,-0.223,1.177,0.063
8.95,-0.184,0.739,0.191
8.96,-0.24,0.999,-0.122
8.97,-0.323,1.062,-0.21
8.98,-0.188,0.907,0.134
8.99,-0.006,1.131,0.096
9.0,-0.212,0.593,-0.017
9.01,-0.482,1.273,-0.125
9.02,-0.056,0.93,-0.069
9.03,-0.301,1.025,0.098
9.04,-0.032,0.817,0.183
9.05,-0.345,0.955,-0.154
9.06,-0.356,1.096,-0.157
9.07,-0.016,0.943,0.05
9.08,-0.144,1.062,0.108
9.09,-0.279,0.686,0.08
9.1,-0.405,1.277,-0.227
9.11,-0.077,0.847,-0.069
9.12,-0.235,1.049,0.186
9.13,-0.037,0.864,0.11
9.14,-0.373,0.828,-0.198
9.15,-0.202,1.19,-0.124
9.16,-0.012,0.943,0.086
9.17,-0.184,1.022,0.156
9.18,-0.238,0.669,0.024
9.19,-0.323,1.315,-0.211
9.2,-0.078,0.93,-0.03
9.21,-0.234,0.918,0.181
9.22,-0.116,0.974,0.144
9.23,-0.343,0.856,-0.193
9.24,-0.226,1.242,-0.075
9.25,-0.029,0.882,0.039
9.26,-0.128,0.988,0.123
9.27,-0.272,0.742,-0.002
9.28,-0.325,1.222,-0.215
9.29,-0.053,0.953,-0.029
9.3,-0.242,0.866,0.192
9.31,-0.105,1.011,0.095
9.32,-0.396,0.834,-0.181
9.33,-0.278,1.227,0.015
9.34,-0.03,0.858,0.09
9.35,-0.162,0.941,0.092
9.36,-0.284,0.8,0.004
9.37,-0.286,1.123,-0.194
9.38,-0.151,1.074,-0.006
9.39,-0.092,0.855,0.178
9.4,-0.14,0.983,0.086
9.41,-0.461,0.857,-0.162
9.42,-0.12,1.259,-0.073
9.43,-0.126,0.79,0.092
9.44,-0.219,0.926,0.207
9.45,-0.258,0.975,-0.094
9.46,-0.303,0.998,-0.185
9.47,-0.193,1.12,0.061
9.48,0.016,0.804,0.114
9.49,-0.223,1.02,-0.009
9.5,-0.399,0.85,-0.155
9.51,-0.109,1.237,-0.073
9.52,-0.148,0.784,0.066
9.53,-0.119,0.95,0.232
9.54,-0.278,1.016,-0.153
9.55,-0.384,0.876,-0.105
9.56,-0.001,1.261,0.064
9.57,-0.124,0.703,0.152
9.58,-0.325,1.021,0.052
9.59,-0.337,0.946,-0.152
9.6,-0.192,1.136,-0.045
9.61,-0.198,0.772,0.103
9.62,-0.017,0.889,0.185
9.63,-0.403,1.06,-0.224
9.64,-0.27,0.81,-0.068
9.65,-0.023,1.34,0.054
9.66,-0.108,0.629,0.113
9.67,-0.289,1.029,0.009
9.68,-0.275,0.97,-0.211
9.69,-0.134,1.06,-0.071
9.7,-0.218,0.911,0.171
9.71,-0.051,0.814,0.114
9.72,-0.435,1.098,-0.204
9.73,-0.164,0.833,-0.068
9.74,-0.043,1.152,0.048
9.75,-0.145,0.589,0.138
9.76,-0.303,1.184,-0.035
9.77,-0.302,0.874,-0.172
9.78,-0.278,1.133,0.027
9.79,-0.072,0.867,0.166
9.8,-0.084,0.864,0.023
9.81,-0.527,1.117,-0.145
9.82,-0.031,0.955,-0.088
9.83,-0.184,1.131,0.053
9.84,-0.113,0.602,0.197
9.85,-0.335,1.2,-0.091
9.86,-0.249,0.764,-0.226
9.87,-0.179,1.2,0.108
9.88,-0.103,0.948,0.145
9.89,-0.156,0.763,0.014
9.9,-0.38,1.194,-0.133
9.91,-0.125,0.954,-0.041
9.92,-0.229,1.132,0.067
9.93,-0.079,0.708,0.241
9.94,-0.099,0.891,0.05
9.95,-0.195,0.945,0.128
9.96,-0.164,0.749,-0.055
9.97,-0.375,1.273,-0.202
9.98,-0.161,0.888,0.052
9.99,-0.128,1.078,0.117
10.0,-0.168,0.789,0.048
10.01,-0.424,0.965,-0.14
10.02,-0.047,1.248,-0.067
10.03,-0.099,0.792,0.055
10.04,-0.142,1.001,0.145
10.05,-0.225,0.819,-0.107
10.06,-0.366,1.204,-0.197
10.07,-0.116,0.881,0.072
10.08,-0.04,1.06,0.11
10.09,-0.197,0.837,0.005
10.1,-0.472,0.922,-0.085
10.11,-0.078,1.277,-0.09
10.12,-0.083,0.703,0.083
10.13,-0.134,1.041,0.18
10.14,-0.254,0.851,-0.176
10.15,-0.29,1.076,-0.215
10.16,-0.1,1.013,0.147
10.17,-0.088,0.882,0.13
10.18,-0.301,0.943,0.006
10.19,-0.324,0.956,-0.155
10.2,-0.148,1.23,-0.015
10.21,-0.206,0.706,0.103
10.22,-0.037,1.046,0.144
10.23,-0.294,0.866,-0.195
10.24,-0.375,1.093,-0.069
10.25,0.064,1.083,0.008
10.26,-0.103,0.733,0.076
10.27,-0.334,1.021,0.055
10.28,-0.279,0.93,-0.237
10.29,-0.144,1.133,-0.054
10.3,-0.18,0.718,0.196
10.31,-0.12,1.012,0.09
10.32,-0.375,0.881,-0.181
10.33,-0.229,1.041,-0.019
10.34,-0.065,1.115,0.011
10.35,-0.161,0.647,0.165
10.36,-0.307,1.136,-0.002
10.37,-0.273,0.912,-0.226
10.38,-0.128,1.138,0.008
10.39,-0.137,0.834,0.201
10.4,-0.102,0.919,0.008
10.41,-0.394,0.98,-0.198
10.42,-0.116,1.026,-0.01
10.43,-0.148,1.141,0.083
10.44,-0.216,0.625,0.181
10.45,-0.254,1.188,-0.055
10.46,-0.328,0.832,-0.176
10.47,-0.255,1.204,0.116
10.48,-0.03,0.865,0.13
10.49,-0.353,0.991,0.019
10.5,-0.278,0.976,-0.156
10.51,-0.143,1.062,-0.072
10.52,-0.259,0.923,0.186
10.53,-0.082,0.754,0.174
10.54,-0.376,1.138,-0.179
10.55,-0.292,0.795,-0.105
10.56,-0.064,1.281,0.054
10.57,-0.067,0.685,0.091
10.58,-0.274,0.998,-0.008
10.59,-0.318,1.029,-0.194
10.6,-0.13,0.95,-0.007
10.61,-0.197,1.076,0.124
10.62,-0.029,0.703,0.119
10.63,-0.381,1.112,-0.211
10.64,-0.264,0.823,-0.04
10.65,-0.033,1.327,0.058
10.66,-0.141,0.674,0.103
10.67,-0.268,0.95,0.051
10.68,-0.316,1.163,-0.242
10.69,-0.107,0.887,-0.005
10.7,-0.211,1.08,0.183
10.71,-0.043,0.673,0.087
10.72,-0.535,1.189,-0.173
10.73,-0.157,0.852,-0.017
10.74,-0.094,1.214,0.029
10.75,-0.111,0.715,0.112
10.76,-0.273,0.962,-0.036
10.77,-0.32,1.152,-0.23
10.78,-0.077,0.834,-0.004
10.79,-0.123,1.156,0.18
10.8,-0.097,0.637,0.036
10.81,-0.47,1.18,-0.204
10.82,-0.061,0.938,0.003
10.83,-0.147,1.092,0.1
10.84,-0.167,0.787,0.145
10.85,-0.247,0.927,-0.099
10.86,-0.299,1.172,-0.185
10.87,-0.185,0.837,0.136
10.88,-0.056,1.148,0.095
10.89,-0.15,0.615,-0.004
10.9,-0.461,1.253,-0.15
10.91,-0.102,0.916,-0.069
10.92,-0.148,0.987,0.085
10.93,-0.101,0.927,0.195
10.94,-0.387,0.85,-0.139
10.95,-0.34,1.186,-0.122
10.96,0.027,0.939,0.062
10.97,-0.247,0.981,0.134
10.98,-0.175,0.685,0.076
10.99,-0.368,1.327,-0.209
11.0,-0.127,0.884,-0.061
11.01,-0.206,0.916,0.201
11.02,-0.025,0.97,0.067
11.03,-0.446,0.789,-0.187
11.04,-0.221,1.213,-0.029
11.05,-0.045,0.952,0.052
11.06,-0.165,0.937,0.115
11.07,-0.203,0.777,0.09
11.08,-0.356,1.204,-0.234
11.09,-0.143,0.902,-0.053
11.1,-0.145,0.907,0.212
11.11,-0.146,0.988,0.064
11.12,-0.398,0.751,-0.198
11.13,-0.184,1.287,-0.077
11.14,-0.053,0.831,0.038
11.15,-0.212,0.873,0.16
11.16,-0.216,0.896,-0.017
11.17,-0.32,1.121,-0.189
11.18,-0.181,1.054,0.041
11.19,-0.079,0.827,0.161
11.2,-0.157,1.042,0.045
11.21,-0.396,0.839,-0.187
11.22,-0.155,1.262,-0.052
11.23,-0.091,0.836,0.071
11.24,-0.159,0.905,0.166
11.25,-0.284,0.962,-0.027
11.26,-0.317,0.974,-0.187
11.27,-0.151,1.126,0.055
11.28,-0.086,0.801,0.19
11.29,-0.262,1.004,0.034
11.3,-0.412,0.894,-0.112
11.31,-0.182,1.322,-0.037
11.32,-0.151,0.678,0.085
11.33,-0.101,1.029,0.143
11.34,-0.295,0.857,-0.173
11.35,-0.314,1.056,-0.092
11.36,-0.06,1.125,0.065
11.37,-0.086,0.679,0.096
11.38,-0.353,1.052,0.066
11.39,-0.263,0.903,-0.228
11.4,-0.114,1.181,-0.033
11.41,-0.215,0.78,0.148
11.42,-0.145,1.01,0.111
11.43,-0.312,0.902,-0.201
11.44,-0.267,1.012,-0.046
11.45,-0.073,1.171,0.052
11.46,-0.084,0.641,0.108
11.47,-0.325,1.106,0.004
11.48,-0.312,0.9,-0.218
11.49,-0.128,1.174,0.006
11.5,-0.135,0.843,0.209
11.51,-0.182,0.895,0.088
11.52,-0.317,1.044,-0.185
11.53,-0.179,1.002,-0.082
11.54,-0.126,1.122,0.074
11.55,-0.072,0.607,0.174
11.56,-0.292,1.184,-0.031
11.57,-0.397,0.815,-0.178
11.58,-0.157,1.086,0.079
11.59,-0.111,0.948,0.133
11.6,-0.191,0.828,0.037
11.61,-0.357,1.1,-0.223
11.62,-0.052,0.964,-0.082
11.63,-0.139,1.131,0.082
11.64,-0.165,0.644,0.15
11.65,-0.347,1.144,-0.133
11.66,-0.246,0.886,-0.136
11.67,-0.147,1.155,0.123
11.68,-0.099,0.869,0.103
11.69,-0.216,0.795,0.011
11.7,-0.403,1.208,-0.188
11.71,-0.105,0.827,-0.035
11.72,-0.219,1.154,0.17
11.73,-0.062,0.681,0.148
11.74,-0.423,1.136,-0.135
11.75,-0.273,0.875,-0.12
11.76,-0.07,1.164,0.085
11.77,-0.105,0.897,0.148
11.78,-0.242,0.752,0.029
11.79,-0.385,1.301,-0.224
11.8,-0.118,0.804,0.01
11.81,-0.206,1.168,0.157
11.82,-0.063,0.696,0.116
11.83,-0.471,1.104,-0.205
11.84,-0.191,0.987,-0.041
11.85,-0.09,1.079,0.078
11.86,-0.166,0.884,0.129
11.87,-0.212,0.748,-0.018
11.88,-0.434,1.309,-0.222
11.89,-0.139,0.775,0.034
11.9,-0.131,1.199,0.196
11.91,-0.164,0.657,0.072
11.92,-0.499,1.054,-0.145
11.93,-0.044,1.146,-0.069
11.94,-0.141,0.861,0.08
11.95,-0.177,0.985,0.181
11.96,-0.189,0.793,-0.124
11.97,-0.37,1.203,-0.194
11.98,-0.067,0.88,0.116
11.99,-0.08,1.119,0.114
12.0,-0.2,0.683,-0.016
12.01,-0.434,1.084,-0.114
12.02,-0.094,1.157,-0.059
12.03,-0.215,0.789,0.118
12.04,-0.095,1.082,0.157
12.05,-0.285,0.774,-0.172
12.06,-0.422,1.199,-0.122
12.07,0.044,0.957,0.095
12.08,-0.157,0.974,0.121
12.09,-0.303,0.82,0.071
12.1,-0.307,1.073,-0.213
12.11,-0.131,0.939,-0.038
12.12,-0.129,0.939,0.177
12.13,-0.152,0.952,0.084
12.14,-0.434,0.826,-0.171
12.15,-0.165,1.357,-0.067
12.16,-0.106,0.748,0.103
12.17,-0.181,0.954,0.169
12.18,-0.239,0.862,-0.067
12.19,-0.315,1.089,-0.181
12.2,-0.174,1.05,0.053
12.21,-0.073,0.831,0.123
12.22,-0.16,0.979,0.006
12.23,-0.431,0.874,-0.139
12.24,-0.156,1.244,-0.143
12.25,-0.107,0.747,0.097
12.26,-0.227,1.001,0.227
12.27,-0.293,0.91,-0.147
12.28,-0.233,0.912,-0.153
12.29,-0.159,1.195,0.13
12.3,-0.108,0.771,0.166
12.31,-0.264,1.039,0.018
12.32,-0.42,0.91,-0.141
12.33,-0.136,1.219,-0.037
12.34,-0.196,0.746,0.129
12.35,-0.203,0.931,0.178
12.36,-0.263,1.007,-0.188
12.37,-0.324,0.906,-0.049
12.38,0.014,1.26,0.06
12.39,-0.024,0.641,0.08
12.4,-0.344,1.061,0.007
12.41,-0.278,0.948,-0.204
12.42,-0.099,1.16,-0.019
12.43,-0.308,0.792,0.173
12.44,-0.121,0.832,0.091
12.45,-0.362,1.11,-0.248
12.46,-0.225,0.897,0.023
12.47,-0.116,1.248,0.113
12.48,-0.068,0.596,0.087
12.49,-0.328,1.129,0.0
12.5,-0.349,0.871,-0.24
12.51,-0.138,1.1,0.036
12.52,-0.117,1.001,0.115
12.53,-0.183,0.703,0.023
12.54,-0.397,1.204,-0.189
12.55,-0.035,0.97,-0.069
12.56,-0.146,1.12,0.051
12.57,-0.092,0.687,0.225
12.58,-0.339,1.136,-0.107
12.59,-0.281,0.888,-0.229
12.6,-0.041,1.136,0.112
12.61,-0.152,0.958,0.111
12.62,-0.196,0.706,0.044
12.63,-0.467,1.312,-0.18
12.64,-0.105,0.826,-0.033
12.65,-0.221,1.159,0.108
12.66,-0.098,0.735,0.176
12.67,-0.372,1.049,-0.17
12.68,-0.194,0.942,-0.184
12.69,-0.02,1.072,0.088
12.7,-0.161,0.979,0.138
12.71,-0.2,0.676,0.014
12.72,-0.464,1.349,-0.209
12.73,-0.064,0.768,-0.004
12.74,-0.17,1.167,0.172
12.75,-0.109,0.732,0.088
12.76,-0.405,1.01,-0.195
12.77,-0.247,1.099,-0.082
12.78,0.003,0.891,0.076
12.79,-0.163,0.998,0.126
12.8,-0.212,0.709,-0.034
12.81,-0.404,1.293,-0.239
12.82,-0.126,0.858,0.038
12.83,-0.16,1.154,0.204
12.84,-0.198,0.75,0.051
12.85,-0.357,0.978,-0.225
12.86,-0.105,1.227,-0.055
12.87,-0.083,0.811,0.081
12.88,-0.168,0.996,0.099
12.89,-0.239,0.731,-0.08
12.9,-0.354,1.189,-0.179
12.91,-0.074,0.916,0.081
12.92,-0.08,1.042,0.093
12.93,-0.203,0.704,-0.019
12.94,-0.377,1.166,-0.144
12.95,-0.092,1.04,-0.032
12.96,-0.178,0.873,0.171
12.97,-0.096,0.997,0.038
12.98,-0.343,0.768,-0.218
12.99,-0.292,1.296,-0.015
13.0,-0.053,0.844,0.085
13.01,-0.195,0.942,0.134
13.02,-0.238,0.866,-0.011
13.03,-0.312,1.075,-0.29
13.04,-0.094,1.026,0.013
13.05,-0.103,0.84,0.187
13.06,-0.128,1.017,0.02
13.07,-0.341,0.817,-0.182
13.08,-0.162,1.314,-0.039
13.09,-0.075,0.765,0.083
13.1,-0.163,0.933,0.171
13.11,-0.31,0.929,-0.092
13.12,-0.368,0.939,-0.144
13.13,-0.092,1.199,0.13
13.14,-0.089,0.749,0.115
13.15,-0.293,1.016,0.046
13.16,-0.298,0.917,-0.184
13.17,-0.118,1.258,-0.055
13.18,-0.216,0.72,0.154
13.19,-0.081,0.925,0.176
13.2,-0.41,1.028,-0.186
13.21,-0.283,0.914,-0.057
13.22,-0.05,1.264,0.125
13.23,-0.166,0.613,0.123
13.24,-0.311,1.075,-0.007
13.25,-0.24,0.968,-0.232
13.26,-0.117,1.159,0.045
13.27,-0.155,0.846,0.179
13.28,-0.105,0.822,0.044
13.29,-0.476,1.131,-0.23
13.3,-0.011,0.914,-0.098
13.31,-0.086,1.18,0.061
13.32,-0.242,0.63,0.238
13.33,-0.304,1.145,-0.059
13.34,-0.31,0.925,-0.202
13.35,-0.175,1.092,0.139
13.36,-0.037,0.895,0.114
13.37,-0.214,0.768,0.001
13.38,-0.446,1.295,-0.168
13.39,-0.037,0.878,-0.052
13.4,-0.29,1.115,0.162
13.41,0.031,0.681,0.14
13.42,-0.452,1.108,-0.212
13.43,-0.2,0.864,-0.121
13.44,-0.039,1.195,0.112
13.45,-0.161,0.88,0.09
13.46,-0.219,0.742,-0.01
13.47,-0.34,1.344,-0.261
13.48,-0.074,0.775,0.013
13.49,-0.233,1.195,0.21
13.5,-0.072,0.652,0.063
13.51,-0.506,1.104,-0.172
13.52,-0.106,1.106,-0.018
13.53,-0.143,0.971,0.075
13.54,-0.205,0.909,0.144
13.55,-0.251,0.776,-0.062
13.56,-0.391,1.286,-0.186
13.57,-0.132,0.808,0.114
13.58,-0.103,1.13,0.153
13.59,-0.194,0.698,0.036
13.6,-0.497,1.1,-0.144
13.61,-0.113,1.124,-0.071
13.62,-0.112,0.789,0.115
13.63,-0.187,1.055,0.161
13.64,-0.32,0.768,-0.185
13.65,-0.296,1.222,-0.172
13.66,0.009,0.933,0.103
13.67,-0.116,0.953,0.107
13.68,-0.263,0.823,0.026
13.69,-0.36,1.105,-0.221
13.7,-0.056,1.082,-0.019
13.71,-0.119,0.822,0.148
13.72,-0.131,1.034,0.073
13.73,-0.412,0.804,-0.193
13.74,-0.158,1.228,-0.094
13.75,-0.074,0.726,0.082
13.76,-0.207,1.078,0.214
13.77,-0.314,0.752,-0.132
13.78,-0.297,1.07,-0.15
13.79,-0.052,1.1,0.108
13.8,-0.156,0.729,0.118
13.81,-0.278,1.019,0.053
13.82,-0.294,0.934,-0.223
13.83,-0.126,1.187,-0.029
13.84,-0.13,0.755,0.165
13.85,-0.167,0.968,0.084
13.86,-0.386,0.888,-0.156
13.87,-0.128,1.097,-0.068
13.88,-0.098,1.067,0.07
13.89,-0.128,0.638,0.165
13.9,-0.291,1.106,-0.018
13.91,-0.357,0.846,-0.215
13.92,-0.121,1.235,0.043
13.93,-0.064,0.813,0.121
13.94,-0.148,0.887,0.007
13.95,-0.37,1.073,-0.194
13.96,-0.177,1.013,-0.08
13.97,-0.123,1.025,0.094
13.98,-0.109,0.71,0.172
13.99,-0.381,1.146,-0.119
14.0,-0.245,0.793,-0.158
14.01,-0.097,1.25,0.089
14.02,-0.16,0.731,0.145
14.03,-0.246,0.894,0.043
14.04,-0.397,1.171,-0.228
14.05,-0.091,0.839,-0.017
14.06,-0.198,1.147,0.17
14.07,-0.138,0.669,0.137
14.08,-0.432,1.163,-0.201
14.09,-0.186,0.914,-0.059
14.1,-0.108,1.127,0.05
14.11,-0.098,0.777,0.136
14.12,-0.263,0.849,-0.031
14.13,-0.394,1.178,-0.236
14.14,-0.03,0.836,0.05
14.15,-0.23,1.237,0.184
14.16,-0.174,0.582,0.071
14.17,-0.382,1.248,-0.197
14.18,-0.209,1.001,-0.047
14.19,-0.072,0.99,0.084
14.2,-0.115,0.905,0.167
14.21,-0.319,0.82,-0.144
14.22,-0.268,1.157,-0.108
14.23,-0.063,0.956,0.123
14.24,-0.2,1.096,0.119
14.25,-0.132,0.635,0.04
14.26,-0.487,1.267,-0.197
14.27,-0.136,0.972,-0.064
14.28,-0.099,0.942,0.117
14.29,-0.149,0.99,0.152
14.3,-0.348,0.811,-0.172
14.31,-0.255,1.225,-0.1
14.32,-0.047,0.845,0.122
14.33,-0.213,1.0,0.167
14.34,-0.21,0.757,-0.015
14.35,-0.386,1.202,-0.244
14.36,-0.047,0.992,0.014
14.37,-0.227,0.892,0.236
14.38,-0.185,0.934,0.021
14.39,-0.343,0.861,-0.192
14.4,-0.123,1.302,-0.063
14.41,-0.065,0.713,0.097
14.42,-0.196,0.994,0.156
14.43,-0.314,0.863,-0.099
14.44,-0.307,1.053,-0.149
14.45,-0.11,1.093,0.094
14.46,-0.095,0.782,0.143
14.47,-0.229,1.006,-0.007
14.48,-0.386,0.845,-0.119
14.49,-0.156,1.3,-0.007
14.5,-0.091,0.722,0.112
14.51,-0.051,0.992,0.084
14.52,-0.377,0.937,-0.156
14.53,-0.31,0.991,-0.054
14.54,0.017,1.204,0.063
14.55,-0.212,0.716,0.138
14.56,-0.28,1.073,-0.052
14.57,-0.283,0.918,-0.174
14.58,-0.249,1.229,0.069
14.59,0.003,0.685,0.156
14.6,-0.227,1.011,0.008
14.61,-0.332,0.961,-0.169
14.62,-0.169,1.072,-0.103
14.63,-0.137,0.909,0.081
14.64,-0.046,0.807,0.186
14.65,-0.411,1.116,-0.206
14.66,-0.253,0.795,-0.123
14.67,-0.072,1.413,0.077
14.68,-0.112,0.642,0.128
14.69,-0.219,0.997,0.067
14.7,-0.353,1.064,-0.216
14.71,-0.161,0.941,-0.018
14.72,-0.14,1.051,0.129
14.73,-0.07,0.705,0.096
14.74,-0.505,1.142,-0.173
14.75,-0.167,0.852,-0.068
14.76,-0.11,1.284,0.077
14.77,-0.149,0.645,0.149
14.78,-0.291,0.966,-0.008
14.79,-0.295,1.116,-0.264
14.8,-0.029,0.889,-0.01
14.81,-0.082,1.151,0.192
14.82,-0.142,0.657,0.017
14.83,-0.537,1.227,-0.175
14.84,-0.012,0.944,-0.067
14.85,-0.223,1.084,0.061
14.86,-0.086,0.749,0.206
14.87,-0.333,0.942,-0.115
14.88,-0.325,1.067,-0.175
14.89,-0.067,0.935,0.119
14.9,-0.212,1.078,0.128
14.91,-0.224,0.623,0.003
14.92,-0.397,1.367,-0.17
14.93,-0.128,0.871,-0.006
14.94,-0.226,1.043,0.147
14.95,-0.027,0.861,0.134
14.96,-0.459,0.864,-0.189
14.97,-0.262,1.166,-0.06
14.98,-0.037,0.913,0.088
14.99,-0.253,0.989,0.107
15.0,-0.16,0.705,-0.007
15.01,-0.369,1.33,-0.259
15.02,-0.047,0.849,0.022
15.03,-0.129,0.999,0.204
15.04,-0.131,0.876,0.08
15.05,-0.451,0.925,-0.193
15.06,-0.134,1.281,0.021
15.07,-0.192,0.798,0.135
15.08,-0.276,1.021,0.164
15.09,-0.225,0.775,-0.103
15.1,-0.326,1.198,-0.179
15.11,-0.126,0.993,0.15
15.12,-0.091,0.849,0.141
15.13,-0.261,0.938,0.017
15.14,-0.319,0.976,-0.169
15.15,-0.156,1.213,-0.045
15.16,-0.185,0.687,0.119
15.17,-0.139,1.033,0.122
15.18,-0.344,0.856,-0.195
15.19,-0.238,1.104,-0.068
15.2,-0.004,1.031,0.075
15.21,-0.155,0.679,0.141
15.22,-0.301,1.059,-0.001
15.23,-0.357,0.891,-0.229
15.24,-0.102,1.17,-0.004
15.25,-0.096,0.791,0.158
15.26,-0.17,0.982,0.04
15.27,-0.376,0.931,-0.2
15.28,-0.102,1.042,-0.068
15.29,-0.087,0.979,0.119
15.3,-0.133,0.745,0.168
15.31,-0.373,1.152,-0.119
15.32,-0.245,0.813,-0.156
15.33,-0.138,1.271,0.101
15.34,-0.114,0.712,0.157
15.35,-0.228,0.94,0.005
15.36,-0.365,0.981,-0.176
15.37,-0.145,1.088,0.01
15.38,-0.152,0.866,0.17
15.39,-0.092,0.802,0.092
15.4,-0.443,1.137,-0.196
15.41,-0.248,0.859,0.007
15.42,-0.094,1.26,0.082
15.43,-0.133,0.616,0.084
15.44,-0.248,1.127,-0.075
15.45,-0.291,0.993,-0.197
15.46,-0.212,1.039,0.169
15.47,-0.051,0.955,0.108
15.48,-0.287,0.711,-0.007
15.49,-0.436,1.202,-0.169
15.5,-0.04,0.861,-0.055
15.51,-0.243,1.162,0.157
15.52,-0.084,0.753,0.178
15.53,-0.341,1.052,-0.217
15.54,-0.339,1.002,-0.035
15.55,-0.024,1.067,0.118
15.56,-0.193,0.912,0.124
15.57,-0.225,0.717,-0.015
15.58,-0.277,1.381,-0.267
15.59,-0.104,0.824,0.012
15.6,-0.219,1.109,0.212
15.61,-0.059,0.692,0.029
15.62,-0.519,1.082,-0.22
15.63,0.045,1.092,-0.074
15.64,-0.113,0.902,0.102
15.65,-0.233,0.976,0.172
15.66,-0.155,0.757,-0.137
15.67,-0.356,1.255,-0.197
15.68,-0.012,0.901,0.142
15.69,-0.125,1.052,0.14
15.7,-0.348,0.75,0.012
15.71,-0.306,1.078,-0.187
15.72,-0.053,1.132,-0.07
15.73,-0.194,0.81,0.213
15.74,-0.182,1.017,0.094
15.75,-0.387,0.71,-0.188
15.76,-0.204,1.337,-0.034
15.77,-0.032,0.825,0.058
15.78,-0.236,0.87,0.153
15.79,-0.258,0.94,-0.013
15.8,-0.352,0.989,-0.208
15.81,-0.121,1.129,0.051
15.82,-0.07,0.787,0.169
15.83,-0.21,1.021,0.008
15.84,-0.445,0.817,-0.182
15.85,-0.043,1.262,-0.071
15.86,-0.109,0.854,0.097
15.87,-0.248,0.834,0.215
15.88,-0.247,1.027,-0.147
15.89,-0.354,0.942,-0.102
15.9,-0.073,1.238,0.148
15.91,-0.114,0.639,0.13
15.92,-0.32,1.035,-0.022
15.93,-0.237,0.954,-0.247
15.94,-0.063,1.121,-0.031
15.95,-0.243,0.868,0.169
15.96,-0.077,0.809,0.079
15.97,-0.427,1.15,-0.234
15.98,-0.147,0.898,-0.01
15.99,-0.121,1.189,0.089
16.0,-0.15,0.642,0.156
16.01,-0.3,1.125,-0.07
16.02,-0.324,0.908,-0.197
16.03,-0.136,1.065,0.101
16.04,-0.047,0.989,0.078
16.05,-0.187,0.724,-0.037
16.06,-0.473,1.213,-0.132
16.07,-0.036,0.906,-0.054
16.08,-0.222,1.136,0.145
16.09,-0.031,0.724,0.16
16.1,-0.426,1.094,-0.209
16.11,-0.33,1.003,-0.035
16.12,0.005,1.063,0.066
16.13,-0.193,0.897,0.12
16.14,-0.267,0.744,0.036
16.15,-0.357,1.328,-0.25
16.16,-0.119,0.759,0.025
16.17,-0.115,1.154,0.179
16.18,-0.169,0.611,0.031
16.19,-0.477,1.264,-0.177
16.2,-0.089,0.933,-0.03
16.21,-0.247,1.016,0.102
16.22,-0.076,0.855,0.15
16.23,-0.369,0.878,-0.134
16.24,-0.3,1.194,-0.124
16.25,0.021,0.878,0.066
16.26,-0.17,1.018,0.089
16.27,-0.227,0.698,0.03
16.28,-0.363,1.303,-0.248
16.29,-0.067,0.906,-0.047
16.3,-0.132,1.019,0.16
16.31,-0.125,0.889,0.058
16.32,-0.432,0.9,-0.165
16.33,-0.156,1.338,-0.074
16.34,-0.014,0.723,0.043
16.35,-0.202,1.025,0.18
16.36,-0.196,0.834,-0.111
16.37,-0.316,1.116,-0.178
16.38,-0.138,1.029,0.151
16.39,-0.075,0.834,0.121
16.4,-0.297,0.981,-0.006
16.41,-0.334,0.953,-0.153
16.42,-0.142,1.209,-0.035
16.43,-0.156,0.713,0.184
16.44,-0.13,1.004,0.095
16.45,-0.365,0.858,-0.231
16.46,-0.2,1.104,-0.005
16.47,-0.169,1.1,0.12
16.48,-0.16,0.664,0.137
16.49,-0.334,1.099,0.055
16.5,-0.333,0.881,-0.218
16.51,-0.196,1.207,0.031
16.52,-0.052,0.797,0.163
16.53,-0.19,0.946,0.024
16.54,-0.42,1.024,-0.188
16.55,-0.06,1.027,-0.1
16.56,-0.174,0.996,0.092
16.57,-0.111,0.702,0.195
16.58,-0.417,1.186,-0.15
16.59,-0.262,0.761,-0.13
16.6,-0.077,1.34,0.098
16.61,-0.124,0.74,0.091
16.62,-0.256,0.872,0.011
16.63,-0.355,1.149,-0.189
16.64,-0.113,0.894,-0.025
16.65,-0.231,1.065,0.19
16.66,-0.065,0.689,0.096
16.67,-0.437,1.192,-0.231
16.68,-0.186,0.865,0.027
16.69,-0.16,1.135,0.118
16.7,-0.153,0.754,0.132
16.71,-0.205,0.935,-0.056
16.72,-0.358,1.139,-0.191
16.73,-0.154,0.881,0.113
16.74,-0.098,1.196,0.119
16.75,-0.14,0.577,0.004
16.76,-0.507,1.299,-0.147
16.77,-0.104,0.939,-0.065
16.78,-0.168,0.961,0.092
16.79,-0.067,0.88,0.226
16.8,-0.372,0.867,-0.158
16.81,-0.398,1.105,-0.128
16.82,0.034,0.925,0.098
16.83,-0.196,1.089,0.11
16.84,-0.265,0.639,0.051
16.85,-0.344,1.273,-0.276
16.86,-0.093,0.88,-0.033
16.87,-0.206,1.022,0.195
16.88,-0.087,0.907,0.038
16.89,-0.448,0.833,-0.196
16.9,-0.151,1.287,-0.047
16.91,-0.036,0.806,0.068
16.92,-0.205,1.006,0.152
16.93,-0.176,0.754,-0.064
16.94,-0.447,1.156,-0.208
16.95,-0.087,1.034,0.048
16.96,-0.084,0.965,0.105
16.97,-0.187,0.906,0.003
16.98,-0.396,0.922,-0.11
16.99,-0.082,1.179,-0.085
17.0,-0.178,0.714,0.174
17.01,-0.115,1.091,0.148
17.02,-0.341,0.746,-0.244
17.03,-0.27,1.156,-0.142
17.04,0.014,1.002,0.103
17.05,-0.22,0.846,0.123
17.06,-0.25,0.899,0.006
17.07,-0.262,1.036,-0.224
17.08,-0.162,1.163,0.015
17.09,-0.147,0.759,0.191
17.1,-0.092,1.049,0.032
17.11,-0.448,0.811,-0.198
17.12,-0.119,1.225,-0.042
17.13,-0.083,0.918,0.064
17.14,-0.259,0.794,0.163
17.15,-0.218,1.046,-0.08
17.16,-0.314,0.929,-0.184
17.17,-0.196,1.252,0.125
17.18,-0.025,0.698,0.104
17.19,-0.247,0.988,-0.009
17.2,-0.367,0.969,-0.115
17.21,-0.109,1.159,0.003
17.22,-0.283,0.853,0.158
17.23,-0.046,0.801,0.113
17.24,-0.372,1.126,-0.209
17.25,-0.301,0.856,-0.035
17.26,-0.037,1.29,0.078
17.27,-0.086,0.617,0.094
17.28,-0.322,1.028,-0.015
17.29,-0.302,1.009,-0.273
17.3,-0.103,1.014,0.034
17.31,-0.147,1.078,0.177
17.32,-0.1,0.65,0.015
17.33,-0.452,1.239,-0.168
17.34,-0.14,0.906,-0.04
17.35,-0.122,1.11,0.065
17.36,-0.113,0.709,0.179
17.37,-0.362,1.03,-0.14
17.38,-0.277,0.974,-0.163
17.39,-0.126,1.002,0.116
17.4,-0.06,1.049,0.111
17.41,-0.205,0.634,-0.037
17.42,-0.448,1.303,-0.137
17.43,-0.088,0.922,-0.029
17.44,-0.215,1.056,0.113
17.45,-0.039,0.801,0.15
17.46,-0.45,0.998,-0.215
17.47,-0.249,1.075,-0.01
17.48,-0.095,0.955,0.149
17.49,-0.199,0.948,0.068
17.5,-0.183,0.699,-0.017
17.51,-0.434,1.327,-0.168
17.52,-0.129,0.833,0.025
17.53,-0.091,1.073,0.171
17.54,-0.19,0.787,0.059
17.55,-0.428,0.981,-0.188
17.56,-0.073,1.202,-0.069
17.57,-0.129,0.777,0.139
17.58,-0.218,1.044,0.156
17.59,-0.29,0.743,-0.161
17.6,-0.269,1.224,-0.155
17.61,-0.07,0.93,0.114
17.62,-0.135,0.895,0.168
17.63,-0.228,0.872,-0.013
17.64,-0.34,1.016,-0.18
17.65,-0.1,1.172,-0.018
17.66,-0.207,0.71,0.226
17.67,-0.156,1.07,0.096
17.68,-0.336,0.846,-0.214
17.69,-0.208,1.207,-0.016
17.7,-0.13,0.914,0.096
17.71,-0.157,0.805,0.13
17.72,-0.268,1.052,-0.072
17.73,-0.364,0.905,-0.148
17.74,-0.146,1.239,0.13
17.75,-0.125,0.732,0.147
17.76,-0.238,0.98,-0.015
17.77,-0.39,0.937,-0.131
17.78,-0.204,1.142,-0.016
17.79,-0.133,0.845,0.136
17.8,-0.136,0.962,0.077
17.81,-0.349,0.988,-0.213
17.82,-0.143,0.956,-0.04
17.83,-0.127,1.194,0.101
17.84,-0.158,0.628,0.154
17.85,-0.259,1.135,-0.082
17.86,-0.272,0.854,-0.2
17.87,-0.149,1.232,0.098
17.88,-0.09,0.835,0.119
17.89,-0.205,0.827,0.015
17.9,-0.405,1.153,-0.208
17.91,-0.094,0.922,-0.058
17.92,-0.186,1.103,0.122
17.93,-0.082,0.654,0.164
17.94,-0.371,1.159,-0.194
17.95,-0.235,0.868,-0.157
17.96,-0.125,1.202,0.135
17.97,-0.144,0.815,0.124
17.98,-0.238,0.801,-0.03
17.99,-0.326,1.292,-0.202
18.0,-0.066,0.853,0.034
18.01,-0.271,1.177,0.195
18.02,-0.096,0.642,0.085
18.03,-0.49,1.151,-0.217
18.04,-0.092,1.008,-0.043
18.05,-0.13,1.071,0.073
18.06,-0.212,0.889,0.172
18.07,-0.255,0.798,-0.106
18.08,-0.392,1.227,-0.187
18.09,-0.043,0.87,0.132
18.1,-0.131,1.12,0.105
18.11,-0.22,0.632,0.001
18.12,-0.359,1.214,-0.146
18.13,-0.176,0.97,-0.031
18.14,-0.242,0.902,0.24
18.15,-0.074,1.006,0.099
18.16,-0.399,0.781,-0.211
18.17,-0.235,1.281,-0.027
18.18,-0.041,0.885,0.023
18.19,-0.191,0.951,0.118
18.2,-0.136,0.834,-0.011
18.21,-0.335,1.182,-0.252
18.22,-0.162,0.987,-0.008
18.23,-0.066,0.884,0.15
18.24,-0.192,0.953,0.003
18.25,-0.427,0.844,-0.155
18.26,-0.082,1.341,-0.078
18.27,-0.172,0.705,0.064
18.28,-0.088,0.928,0.143
18.29,-0.12,1.055,0.146
18.3,-0.314,0.765,0.023
18.31,-0.399,1.084,-0.133
18.32,-0.176,1.182,-0.066
18.33,-0.13,0.739,0.145
18.34,-0.155,1.108,0.11
18.35,-0.308,0.711,-0.2
18.36,-0.273,1.216,-0.094
18.37,-0.023,0.993,0.068
18.38,-0.145,0.834,0.128
18.39,-0.257,0.916,0.053
18.4,-0.396,1.049,-0.218
18.41,-0.071,1.121,-0.076
18.42,-0.132,0.784,0.185
18.43,-0.166,1.001,0.058
18.44,-0.465,0.859,-0.184
18.45,-0.098,1.24,-0.107
18.46,-0.072,0.817,0.03
18.47,-0.203,0.81,0.242
18.48,-0.346,1.081,-0.09
18.49,-0.241,0.834,-0.197
18.5,-0.107,1.31,0.129
18.51,-0.125,0.674,0.126
18.52,-0.202,1.027,0.032
18.53,-0.344,1.024,-0.186
18.54,-0.165,1.09,-0.028
18.55,-0.116,0.809,0.223
18.56,-0.194,0.954,0.073
18.57,-0.361,0.918,-0.204
18.58,-0.083,1.053,-0.024
18.59,-0.173,1.168,0.043
18.6,-0.112,0.589,0.142
18.61,-0.3,1.193,-0.011
18.62,-0.373,0.876,-0.256
18.63,-0.073,1.113,0.023
18.64,-0.067,0.91,0.124
18.65,-0.192,0.811,0.017
18.66,-0.418,1.16,-0.163
18.67,-0.087,0.961,-0.072
18.68,-0.146,1.043,0.081
18.69,-0.104,0.691,0.21
18.7,-0.437,1.175,-0.144
18.71,-0.287,0.798,-0.152
18.72,-0.099,1.201,0.156
18.73,-0.119,0.825,0.101
18.74,-0.208,0.79,0.014
18.75,-0.45,1.303,-0.187
18.76,-0.08,0.805,-0.01
18.77,-0.217,1.186,0.184
18.78,-0.099,0.676,0.134
18.79,-0.513,1.121,-0.203
18.8,-0.188,0.94,-0.071
18.81,-0.045,1.111,0.066
18.82,-0.125,0.837,0.076
18.83,-0.279,0.805,-0.017
18.84,-0.334,1.252,-0.22
18.85,-0.067,0.799,0.018
18.86,-0.157,1.204,0.157
18.87,-0.097,0.608,0.002
18.88,-0.454,1.177,-0.205
18.89,-0.087,1.054,-0.071
18.9,-0.129,0.906,0.107
18.91,-0.142,0.922,0.161
18.92,-0.292,0.806,-0.141
18.93,-0.288,1.237,-0.145
18.94,-0.152,0.911,0.164
18.95,-0.182,0.993,0.129
18.96,-0.253,0.711,0.005
18.97,-0.303,1.222,-0.216
18.98,-0.118,0.996,-0.053
18.99,-0.227,0.818,0.214
19.0,-0.089,1.026,0.105
19.01,-0.405,0.793,-0.238
19.02,-0.203,1.269,-0.012
19.03,-0.06,0.859,0.079
19.04,-0.255,0.949,0.14
19.05,-0.156,0.829,-0.07
19.06,-0.365,1.111,-0.214
19.07,-0.17,1.085,0.103
19.08,-0.088,0.784,0.137
19.09,-0.276,1.005,-0.014
19.1,-0.349,0.865,-0.144
19.11,-0.149,1.242,-0.107
19.12,-0.097,0.752,0.096
19.13,-0.136,0.943,0.176
19.14,-0.372,0.944,-0.157
19.15,-0.256,0.918,-0.139
19.16,-0.011,1.29,0.082
19.17,-0.177,0.609,0.111
19.18,-0.274,1.037,0.019
19.19,-0.288,0.921,-0.241
19.2,-0.139,1.126,-0.04
19.21,-0.131,0.835,0.18
19.22,-0.136,0.894,0.08
19.23,-0.424,1.027,-0.233
19.24,-0.087,0.897,-0.036
19.25,-0.145,1.216,0.078
19.26,-0.164,0.591,0.13
19.27,-0.206,1.149,-0.036
19.28,-0.383,0.856,-0.203
19.29,-0.131,1.092,0.072
19.3,-0.083,0.967,0.126
19.31,-0.2,0.759,-0.011
19.32,-0.424,1.153,-0.134
19.33,-0.058,0.904,-0.139
19.34,-0.182,1.105,0.128
19.35,-0.037,0.668,0.211
19.36,-0.551,1.164,-0.149
19.37,-0.205,0.76,-0.177
19.38,-0.023,1.305,0.087
19.39,-0.151,0.743,0.112
19.4,-0.276,0.937,0.011
19.41,-0.353,1.112,-0.213
19.42,-0.131,0.885,0.036
19.43,-0.161,1.134,0.167
19.44,-0.101,0.677,0.076
19.45,-0.515,1.206,-0.189
19.46,-0.168,0.847,-0.064
19.47,-0.101,1.175,0.116
19.48,-0.186,0.781,0.166
19.49,-0.312,0.914,-0.063
19.5,-0.317,1.171,-0.218
19.51,-0.079,0.849,0.104
19.52,-0.193,1.147,0.166
19.53,-0.164,0.619,0.001
19.54,-0.451,1.242,-0.188
19.55,-0.114,0.962,-0.024
19.56,-0.198,0.99,0.127
19.57,-0.045,0.877,0.127
19.58,-0.391,0.91,-0.137
19.59,-0.288,1.184,-0.099
19.6,-0.097,0.914,0.168
19.61,-0.244,1.056,0.127
19.62,-0.21,0.637,-0.015
19.63,-0.302,1.275,-0.224
19.64,-0.057,0.982,-0.021
19.65,-0.209,0.92,0.228
19.66,-0.1,0.913,0.09
19.67,-0.437,0.885,-0.215
19.68,-0.111,1.274,-0.041
19.69,-0.09,0.794,0.093
19.7,-0.218,0.984,0.153
19.71,-0.229,0.802,-0.076
19.72,-0.338,1.135,-0.185
19.73,-0.114,1.054,0.06
19.74,-0.049,0.827,0.14
19.75,-0.305,0.981,0.032
19.76,-0.347,0.926,-0.175
19.77,-0.176,1.217,-0.058
19.78,-0.136,0.719,0.158
19.79,-0.119,1.015,0.135
19.8,-0.343,0.87,-0.2
19.81,-0.237,1.017,-0.126
19.82,-0.025,1.144,0.092
19.83,-0.122,0.692,0.123
19.84,-0.295,1.087,-0.008
19.85,-0.314,0.944,-0.231
19.86,-0.17,1.178,-0.006
19.87,-0.07,0.769,0.176
19.88,-0.171,0.952,0.038
19.89,-0.385,0.96,-0.178
19.9,-0.203,1.04,-0.007
19.91,-0.112,1.075,0.077
19.92,-0.163,0.651,0.153
19.93,-0.323,1.163,-0.064
19.94,-0.299,0.859,-0.179
19.95,-0.162,1.17,0.09
19.96,-0.027,0.823,0.126
19.97,-0.291,0.877,0.005
19.98,-0.396,1.098,-0.138
19.99,-0.083,0.95,-0.048
20.0,-0.235,1.048,0.152
20.01,-0.022,0.716,0.15
20.02,-0.443,1.191,-0.198
20.03,-0.328,0.846,-0.034
20.04,-0.01,1.182,0.059
20.05,-0.187,0.791,0.119
20.06,-0.204,0.878,0.01
20.07,-0.374,1.223,-0.239
20.08,-0.197,0.845,0.057
20.09,-0.097,1.172,0.168
20.1,-0.084,0.626,-0.002
20.11,-0.489,1.215,-0.174
20.12,-0.105,0.975,-0.082
20.13,-0.115,0.985,0.053
20.14,-0.167,0.889,0.195
20.15,-0.296,0.817,-0.106
20.16,-0.345,1.148,-0.158
20.17,-0.067,1.033,0.08
20.18,-0.111,0.981,0.102
20.19,-0.264,0.707,0.056
20.2,-0.413,1.341,-0.249
20.21,-0.103,0.767,-0.025
20.22,-0.15,1.134,0.167
20.23,-0.078,0.796,0.104
20.24,-0.438,0.937,-0.174
20.25,-0.132,1.217,-0.037
20.26,-0.142,0.812,0.102
20.27,-0.178,0.976,0.148
20.28,-0.181,0.768,-0.031
20.29,-0.457,1.227,-0.238
20.3,-0.123,0.841,0.066
20.31,-0.055,1.087,0.129
20.32,-0.184,0.772,0.006
20.33,-0.384,1.023,-0.102
20.34,-0.148,1.297,-0.091
20.35,-0.183,0.648,0.113
20.36,-0.134,1.083,0.222
20.37,-0.293,0.813,-0.17
20.38,-0.421,1.089,-0.135
20.39,-0.008,1.035,0.107
20.4,-0.16,0.868,0.081
20.41,-0.303,0.863,0.048
20.42,-0.309,1.0,-0.167
20.43,-0.127,1.218,-0.012
20.44,-0.224,0.698,0.183
20.45,-0.073,1.051,0.094
20.46,-0.386,0.816,-0.257
20.47,-0.183,1.117,0.001
20.48,-0.092,1.028,0.062
20.49,-0.233,0.734,0.172
20.5,-0.224,1.105,-0.029
20.51,-0.398,0.878,-0.214
20.52,-0.218,1.193,0.117
20.53,-0.049,0.845,0.102
20.54,-0.117,0.923,-0.022
20.55,-0.396,0.937,-0.112
20.56,-0.156,1.116,-0.142
20.57,-0.152,0.923,0.086
20.58,-0.11,0.761,0.251
20.59,-0.398,1.129,-0.133
20.6,-0.261,0.777,-0.17
20.61,-0.091,1.325,0.128
20.62,-0.127,0.761,0.136
20.63,-0.278,0.949,0.053
20.64,-0.303,1.098,-0.188
20.65,-0.143,1.013,-0.063
20.66,-0.217,0.986,0.097
20.67,0.003,0.694,0.158
20.68,-0.484,1.179,-0.183
20.69,-0.248,0.833,-0.068
20.7,-0.03,1.287,0.045
20.71,-0.108,0.693,0.115
20.72,-0.241,0.949,0.016
20.73,-0.331,1.133,-0.233
20.74,-0.126,0.847,0.038
20.75,-0.143,1.143,0.181
20.76,-0.159,0.648,0.093
20.77,-0.43,1.159,-0.197
20.78,-0.116,0.928,-0.015
20.79,-0.198,1.168,0.075
20.8,-0.08,0.734,0.128
20.81,-0.28,0.917,-0.099
20.82,-0.42,1.152,-0.153
20.83,-0.093,0.892,0.127
20.84,-0.156,1.158,0.111
20.85,-0.181,0.559,0.001
20.86,-0.407,1.251,-0.175
20.87,-0.132,0.948,-0.038
20.88,-0.162,0.995,0.128
20.89,-0.036,0.91,0.134
20.9,-0.401,0.837,-0.173
20.91,-0.386,1.184,-0.106
20.92,0.017,0.887,0.085
20.93,-0.16,1.043,0.111
20.94,-0.25,0.68,0.061
20.95,-0.289,1.287,-0.264
20.96,-0.117,0.902,-0.059
20.97,-0.099,0.949,0.169
20.98,-0.113,0.731,0.014
20.99,-0.499,1.056,-0.118
21.0,-0.037,1.209,-0.12
21.01,-0.164,0.767,0.086
21.02,-0.184,1.048,0.235
21.03,-0.23,0.734,-0.133
21.04,-0.373,1.131,-0.212
21.05,0.003,0.976,0.135
21.06,-0.194,1.024,0.148
21.07,-0.232,0.796,0.037
21.08,-0.403,1.069,-0.164
21.09,-0.125,1.192,-0.082
21.1,-0.173,0.767,0.117
21.11,-0.071,1.072,0.122
21.12,-0.362,0.716,-0.212
21.13,-0.303,1.169,-0.051
21.14,-0.02,0.995,0.063
21.15,-0.184,0.781,0.129
21.16,-0.265,0.961,0.046
21.17,-0.211,1.007,-0.276
21.18,-0.183,1.178,-0.035
21.19,-0.094,0.745,0.188
21.2,-0.172,1.025,0.047
21.21,-0.455,0.813,-0.132
21.22,-0.057,1.231,-0.09
21.23,-0.195,0.927,0.13
21.24,-0.207,0.734,0.201
21.25,-0.151,1.114,-0.137
21.26,-0.369,0.826,-0.22
21.27,-0.107,1.242,0.164
21.28,-0.046,0.781,0.116
21.29,-0.323,0.943,0.029
21.3,-0.321,0.995,-0.162
21.31,-0.121,1.126,-0.11
21.32,-0.265,0.922,0.138
21.33,0.013,0.783,0.151
21.34,-0.431,1.101,-0.186
21.35,-0.328,0.761,-0.09
21.36,0.013,1.386,0.046
21.37,-0.116,0.619,0.097
21.38,-0.292,0.984,0.073
21.39,-0.29,1.101,-0.267
21.4,-0.177,0.845,-0.039
21.41,-0.176,1.063,0.232
21.42,-0.073,0.725,0.077
21.43,-0.552,1.121,-0.206
21.44,-0.072,0.893,-0.006
21.45,-0.059,1.292,0.038
21.46,-0.208,0.658,0.166
21.47,-0.251,0.987,0.02
21.48,-0.323,1.152,-0.234
21.49,-0.234,0.846,0.044
21.5,-0.023,1.199,0.161
21.51,-0.119,0.616,0.007
21.52,-0.508,1.214,-0.133
21.53,-0.032,0.967,-0.068
21.54,-0.148,1.046,0.055
21.55,-0.186,0.825,0.23
21.56,-0.281,0.94,-0.128
21.57,-0.287,1.062,-0.234
21.58,0.016,0.997,0.151
21.59,-0.15,1.12,0.109
21.6,-0.215,0.592,-0.004
21.61,-0.373,1.333,-0.168
21.62,-0.13,0.916,-0.048
21.63,-0.235,0.979,0.173
21.64,-0.076,0.904,0.134
21.65,-0.363,0.857,-0.192
21.66,-0.342,1.207,-0.065
21.67,-0.032,0.889,0.053
21.68,-0.143,1.003,0.075
21.69,-0.196,0.699,0.018
21.7,-0.347,1.293,-0.217
21.71,-0.138,0.884,-0.053
21.72,-0.15,0.974,0.188
21.73,-0.096,0.927,0.099
21.74,-0.436,0.852,-0.171
21.75,-0.176,1.272,-0.068
21.76,-0.105,0.796,0.075
21.77,-0.158,1.013,0.151
21.78,-0.254,0.792,-0.031
21.79,-0.389,1.165,-0.186
21.8,-0.095,0.94,0.108
21.81,-0.153,1.01,0.114
21.82,-0.154,0.79,0.052
21.83,-0.465,1.035,-0.142
21.84,-0.126,1.163,-0.094
21.85,-0.113,0.71,0.135
21.86,-0.164,1.091,0.143
21.87,-0.317,0.74,-0.168
21.88,-0.285,1.16,-0.102
21.89,-0.046,0.991,0.106
21.9,-0.12,0.819,0.095
21.91,-0.236,0.919,0.013
21.92,-0.364,1.04,-0.157
21.93,-0.149,1.159,-0.003
21.94,-0.135,0.705,0.15
21.95,-0.116,1.078,0.101
21.96,-0.363,0.777,-0.195
21.97,-0.238,1.14,-0.037
21.98,-0.062,1.017,0.082
21.99,-0.153,0.726,0.102
22.0,-0.266,1.049,-0.028
22.01,-0.249,0.907,-0.235
22.02,-0.154,1.248,0.075
22.03,-0.159,0.715,0.121
22.04,-0.122,0.946,0.034
22.05,-0.443,0.989,-0.178
22.06,-0.181,1.094,-0.101
22.07,-0.084,0.898,0.076
22.08,-0.129,0.773,0.168
22.09,-0.381,1.113,-0.077
22.1,-0.197,0.845,-0.2
22.11,-0.136,1.254,0.089
22.12,-0.073,0.673,0.159
22.13,-0.209,0.989,0.01
22.14,-0.429,1.069,-0.169
22.15,-0.095,0.964,-0.035
22.16,-0.212,1.017,0.151
22.17,-0.159,0.725,0.166
22.18,-0.413,1.148,-0.177
22.19,-0.229,0.865,-0.094
22.2,-0.071,1.291,0.072
22.21,-0.059,0.677,0.105
22.22,-0.343,0.964,0.032
22.23,-0.304,1.13,-0.258
22.24,-0.049,0.884,-0.054
22.25,-0.174,1.123,0.164
22.26,-0.066,0.647,0.101
22.27,-0.505,1.23,-0.216
22.28,-0.09,0.854,-0.031
22.29,-0.171,1.143,0.075
22.3,-0.138,0.741,0.144
22.31,-0.283,0.961,-0.077
22.32,-0.337,1.084,-0.203
22.33,-0.109,0.913,0.141
22.34,-0.088,1.192,0.08
22.35,-0.175,0.581,0.024
22.36,-0.469,1.307,-0.179
22.37,-0.039,0.933,-0.086
22.38,-0.197,0.978,0.114
22.39,-0.083,0.912,0.19
22.4,-0.322,0.9,-0.187
22.41,-0.362,1.102,-0.201
22.42,0.074,0.909,0.116
22.43,-0.172,1.111,0.123
22.44,-0.239,0.617,-0.043
22.45,-0.327,1.279,-0.177
22.46,-0.108,0.962,0.011
22.47,-0.251,0.933,0.143
22.48,-0.041,0.928,0.071
22.49,-0.329,0.875,-0.227
22.5,-0.362,1.242,-0.02
22.51,0.021,0.834,0.115
22.52,-0.202,1.018,0.129
22.53,-0.24,0.734,0.006
22.54,-0.319,1.226,-0.213
22.55,-0.107,0.971,0.007
22.56,-0.139,0.905,0.168
22.57,-0.146,0.959,-0.01
22.58,-0.481,0.877,-0.176
22.59,-0.087,1.261,-0.04
22.6,-0.105,0.723,0.101
22.61,-0.226,1.062,0.184
22.62,-0.283,0.767,-0.176
22.63,-0.281,1.155,-0.144
22.64,-0.017,0.988,0.104
22.65,-0.121,0.896,0.135
22.66,-0.333,0.872,-0.021
22.67,-0.249,0.99,-0.166
22.68,-0.08,1.256,-0.011
22.69,-0.171,0.672,0.163
22.7,-0.116,1.048,0.107
22.71,-0.434,0.868,-0.188
22.72,-0.195,1.107,-0.051
22.73,-0.071,0.926,0.109
22.74,-0.146,0.793,0.125
22.75,-0.356,1.061,-0.068
22.76,-0.202,0.873,-0.184
22.77,-0.142,1.23,0.069
22.78,-0.031,0.713,0.158
22.79,-0.27,0.985,0.003
22.8,-0.456,0.93,-0.166
22.81,-0.076,1.103,0.001
22.82,-0.155,0.96,0.104
22.83,-0.187,0.759,0.169
22.84,-0.315,1.147,-0.211
22.85,-0.224,0.819,-0.183
22.86,0.003,1.265,0.138
22.87,-0.056,0.719,0.166
22.88,-0.409,0.985,0.009
22.89,-0.23,1.031,-0.247
22.9,-0.058,0.997,-0.044
22.91,-0.203,0.964,0.212
22.92,-0.169,0.679,0.092
22.93,-0.471,1.259,-0.233
22.94,-0.07,0.841,-0.066
22.95,-0.158,1.123,0.094
22.96,-0.173,0.732,0.192
22.97,-0.34,0.975,-0.147
22.98,-0.23,1.013,-0.159
22.99,-0.094,1.052,0.156
23.0,-0.182,1.017,0.087
23.01,-0.185,0.63,-0.007
23.02,-0.428,1.368,-0.182
23.03,-0.112,0.823,-0.024
23.04,-0.189,1.09,0.135
23.05,-0.041,0.802,0.071
23.06,-0.456,0.979,-0.174
23.07,-0.237,1.149,-0.033
23.08,-0.013,0.848,0.095
23.09,-0.189,1.016,0.111
23.1,-0.199,0.717,-0.069
23.11,-0.392,1.254,-0.162
23.12,-0.096,0.895,0.109
23.13,-0.151,1.063,0.141
23.14,-0.115,0.749,-0.021
23.15,-0.397,1.044,-0.12
23.16,-0.191,1.23,-0.033
23.17,-0.068,0.722,0.12
23.18,-0.139,1.083,0.139
23.19,-0.36,0.76,-0.19
23.2,-0.243,1.177,-0.169
23.21,-0.021,0.976,0.126
23.22,-0.194,0.827,0.166
23.23,-0.293,0.958,0.013
23.24,-0.346,1.004,-0.172
23.25,-0.108,1.206,0.011
23.26,-0.136,0.773,0.15
23.27,-0.176,1.013,0.071
23.28,-0.343,0.878,-0.198
23.29,-0.204,1.165,-0.009
23.3,-0.136,0.886,0.103
23.31,-0.114,0.817,0.159
23.32,-0.382,1.075,-0.074
23.33,-0.286,0.828,-0.18
23.34,-0.075,1.281,0.075
23.35,-0.165,0.702,0.171
23.36,-0.152,0.992,0.013
23.37,-0.426,1.006,-0.188
23.38,-0.161,1.06,-0.009
23.39,-0.07,0.969,0.092
23.4,-0.184,0.767,0.142
23.41,-0.387,1.139,-0.161
23.42,-0.256,0.944,-0.043
23.43,-0.068,1.156,0.078
23.44,-0.077,0.655,0.102
23.45,-0.355,1.102,-0.018
23.46,-0.309,0.844,-0.208
23.47,-0.118,1.145,0.049
23.48,-0.113,0.892,0.144
23.49,-0.168,0.788,0.044
23.5,-0.477,1.158,-0.225
23.51,-0.002,0.906,-0.053
23.52,-0.203,1.184,0.12
23.53,-0.161,0.655,0.198
23.54,-0.354,1.135,-0.141
23.55,-0.293,0.901,-0.132
23.56,-0.048,1.104,0.146
23.57,-0.128,0.91,0.099
23.58,-0.281,0.752,0.006
23.59,-0.379,1.244,-0.19
23.6,-0.077,0.831,0.0
23.61,-0.161,1.178,0.148
23.62,-0.051,0.703,0.083
23.63,-0.445,1.087,-0.188
23.64,-0.179,1.0,-0.056
23.65,-0.039,0.982,0.124
23.66,-0.198,0.94,0.139
23.67,-0.26,0.779,-0.092
23.68,-0.323,1.25,-0.19
23.69,-0.102,0.877,0.14
23.7,-0.204,1.121,0.14
23.71,-0.124,0.671,0.009
23.72,-0.473,1.16,-0.147
23.73,-0.177,1.034,-0.024
23.74,-0.077,0.861,0.133
23.75,-0.13,1.035,0.143
23.76,-0.337,0.738,-0.188
23.77,-0.24,1.257,-0.115
23.78,-0.033,0.912,0.07
23.79,-0.177,0.947,0.071
23.8,-0.156,0.824,-0.009
23.81,-0.34,1.153,-0.211
23.82,-0.081,1.07,-0.003
23.83,-0.074,0.842,0.15
23.84,-0.117,1.047,0.035
23.85,-0.355,0.762,-0.212
23.86,-0.121,1.303,-0.084
23.87,-0.092,0.826,0.111
23.88,-0.257,0.878,0.174
23.89,-0.245,0.972,-0.095
23.9,-0.309,0.991,-0.196
23.91,-0.098,1.183,0.135
23.92,-0.12,0.72,0.17
23.93,-0.314,1.036,0.024
23.94,-0.333,0.927,-0.24
23.95,-0.099,1.163,-0.038
23.96,-0.231,0.819,0.224
23.97,-0.097,0.87,0.117
23.98,-0.38,1.026,-0.223
23.99,-0.238,0.906,-0.008
24.0,-0.141,1.18,0.136
24.01,-0.204,0.633,0.184
24.02,-0.305,1.11,0.009
24.03,-0.28,0.91,-0.204
24.04,-0.198,1.124,0.04
24.05,-0.091,0.946,0.139
24.06,-0.159,0.796,0.047
24.07,-0.45,1.171,-0.226
24.08,-0.104,0.889,-0.043
24.09,-0.212,1.151,0.121
24.1,-0.139,0.651,0.119
24.11,-0.349,1.083,-0.114
24.12,-0.299,0.947,-0.145
24.13,-0.111,1.136,0.129
24.14,-0.122,0.911,0.112
24.15,-0.229,0.694,0.018
24.16,-0.406,1.283,-0.209
24.17,-0.077,0.803,-0.052
24.18,-0.158,1.135,0.149
24.19,-0.107,0.724,0.099
24.2,-0.462,1.043,-0.2
24.21,-0.217,1.047,-0.086
24.22,-0.043,0.997,0.088
24.23,-0.179,0.831,0.176
24.24,-0.267,0.9,-0.036
24.25,-0.392,1.143,-0.186
24.26,-0.026,0.876,0.084
24.27,-0.145,1.167,0.097
24.28,-0.105,0.58,-0.021
24.29,-0.447,1.277,-0.159
24.3,-0.084,0.944,-0.041
24.31,-0.166,0.991,0.115
24.32,-0.141,0.924,0.153
24.33,-0.345,0.827,-0.196
24.34,-0.231,1.195,-0.139
24.35,0.008,0.926,0.099
24.36,-0.2,0.985,0.114
24.37,-0.205,0.685,0.021
24.38,-0.361,1.318,-0.198
24.39,-0.087,0.931,-0.009
24.4,-0.177,0.929,0.225
24.41,-0.162,0.949,0.063
24.42,-0.405,0.851,-0.2
24.43,-0.233,1.282,0.003
24.44,-0.047,0.772,0.09
24.45,-0.266,1.017,0.174
24.46,-0.216,0.805,-0.077
24.47,-0.344,1.125,-0.182
24.48,-0.12,1.012,0.073
24.49,-0.06,0.825,0.121
24.5,-0.286,0.978,-0.02
24.51,-0.363,0.862,-0.152
24.52,-0.098,1.307,-0.097
24.53,-0.063,0.693,0.097
24.54,-0.118,1.039,0.17
24.55,-0.379,0.874,-0.147
24.56,-0.227,1.024,-0.146
24.57,0.048,1.166,0.098
24.58,-0.197,0.682,0.109
24.59,-0.311,1.063,0.028
24.6,-0.304,0.93,-0.202
24.61,-0.198,1.17,0.052
24.62,-0.081,0.791,0.189
24.63,-0.186,0.921,0.006
24.64,-0.361,0.995,-0.211
24.65,-0.022,1.021,-0.11
24.66,-0.119,1.061,0.082
24.67,-0.147,0.672,0.166
24.68,-0.286,1.137,-0.116
24.69,-0.341,0.817,-0.186
24.7,-0.059,1.221,0.132
24.71,-0.103,0.817,0.123
24.72,-0.312,0.854,0.009
24.73,-0.301,1.174,-0.163
24.74,-0.137,0.918,-0.064
24.75,-0.22,1.073,0.181
24.76,0.019,0.707,0.127
24.77,-0.543,1.161,-0.182
24.78,-0.235,0.872,-0.035
24.79,-0.071,1.172,0.068
24.8,-0.192,0.799,0.145
24.81,-0.193,0.841,-0.042
24.82,-0.403,1.167,-0.193
24.83,-0.089,0.841,0.053
24.84,-0.127,1.203,0.147
24.85,-0.121,0.649,0.01
24.86,-0.457,1.171,-0.151
24.87,-0.014,1.004,-0.122
24.88,-0.079,0.965,0.057
24.89,-0.098,0.939,0.198
24.9,-0.308,0.817,-0.15
24.91,-0.31,1.197,-0.171
24.92,-0.053,0.93,0.134
24.93,-0.18,0.998,0.062
24.94,-0.246,0.657,0.02
24.95,-0.306,1.302,-0.263
24.96,-0.086,0.925,-0.088
24.97,-0.157,0.874,0.189
24.98,-0.092,0.97,0.099
24.99,-0.441,0.756,-0.177
25.0,-0.148,1.281,-0.045
25.01,-0.118,0.843,0.115
25.02,-0.281,0.95,0.15
25.03,-0.175,0.776,-0.064
25.04,-0.33,1.116,-0.208
25.05,-0.04,0.917,0.128
25.06,-0.14,0.963,0.146
25.07,-0.255,0.846,0.031
25.08,-0.374,1.018,-0.147
25.09,-0.194,1.195,-0.042
25.1,-0.22,0.715,0.196
25.11,-0.131,1.087,0.151
25.12,-0.318,0.744,-0.208
25.13,-0.302,1.155,-0.051
25.14,0.044,1.009,0.063
25.15,-0.162,0.788,0.132
25.16,-0.314,0.991,0.017
25.17,-0.315,0.954,-0.209
25.18,-0.182,1.193,0.001
25.19,-0.109,0.762,0.228
25.2,-0.168,1.027,0.075
25.21,-0.438,0.872,-0.168
25.22,-0.123,1.152,-0.09
25.23,-0.07,0.964,0.102
25.24,-0.232,0.771,0.244
25.25,-0.284,1.104,-0.07
25.26,-0.3,0.786,-0.216
25.27,-0.166,1.26,0.098
25.28,-0.066,0.791,0.135
25.29,-0.194,0.946,0.008
25.3,-0.457,0.948,-0.17
25.31,-0.035,1.091,-0.071
25.32,-0.172,0.965,0.063
25.33,-0.168,0.702,0.224
25.34,-0.415,1.163,-0.126
25.35,-0.245,0.792,-0.204
25.36,-0.053,1.279,0.073
25.37,-0.066,0.674,0.114
25.38,-0.264,0.95,-0.008
25.39,-0.383,1.067,-0.19
25.4,-0.103,0.929,0.017
25.41,-0.219,1.113,0.153
25.42,-0.101,0.694,0.114
25.43,-0.458,1.208,-0.207
25.44,-0.157,0.858,-0.074
25.45,-0.117,1.212,0.09
25.46,-0.067,0.703,0.121
25.47,-0.357,0.913,-0.053
25.48,-0.303,1.125,-0.203
25.49,-0.009,0.893,0.021
25.5,-0.186,1.192,0.138
25.51,-0.096,0.63,0.044
25.52,-0.497,1.233,-0.231
25.53,-0.054,0.869,-0.077
25.54,-0.113,1.087,0.072
25.55,-0.129,0.873,0.157
25.56,-0.336,0.885,-0.13
25.57,-0.268,1.143,-0.184
25.58,-0.019,0.967,0.127
25.59,-0.198,1.047,0.112
25.6,-0.184,0.642,0.023
25.61,-0.442,1.318,-0.212
25.62,-0.126,0.877,-0.042
25.63,-0.178,0.976,0.161
25.64,-0.109,0.911,0.116
25.65,-0.433,0.831,-0.197
25.66,-0.117,1.207,-0.086
25.67,-0.073,0.873,0.106
25.68,-0.166,1.021,0.13
25.69,-0.219,0.771,-0.034
25.7,-0.362,1.208,-0.228
25.71,-0.089,0.941,0.02
25.72,-0.106,0.949,0.16
25.73,-0.188,0.89,0.053
25.74,-0.428,0.871,-0.196
25.75,-0.097,1.297,-0.062
25.76,-0.128,0.73,0.068
25.77,-0.163,1.015,0.209
25.78,-0.27,0.812,-0.149
25.79,-0.309,1.054,-0.164
25.8,-0.042,1.14,0.119
25.81,-0.17,0.743,0.109
25.82,-0.189,1.009,0.018
25.83,-0.356,0.97,-0.181
25.84,-0.172,1.159,-0.042
25.85,-0.117,0.756,0.18
25.86,-0.189,1.077,0.06
25.87,-0.338,0.752,-0.223
25.88,-0.169,1.226,-0.023
25.89,-0.115,0.932,0.079
25.9,-0.159,0.76,0.143
25.91,-0.247,1.033,-0.063
25.92,-0.377,0.879,-0.171
25.93,-0.163,1.257,0.093
25.94,-0.028,0.765,0.118
25.95,-0.23,0.996,0.004
25.96,-0.345,0.92,-0.169
25.97,-0.154,1.136,-0.092
25.98,-0.137,0.826,0.153
25.99,-0.112,0.824,0.191
26.0,-0.454,1.094,-0.139
26.01,-0.244,0.77,-0.087
26.02,-0.064,1.359,0.074
26.03,-0.129,0.606,0.096
26.04,-0.184,1.031,0.027
26.05,-0.388,1.056,-0.197
26.06,-0.126,0.982,-0.012
26.07,-0.146,1.004,0.177
26.08,-0.167,0.732,0.133
26.09,-0.452,1.15,-0.182
26.1,-0.138,0.881,-0.068
26.11,-0.084,1.254,0.073
26.12,-0.131,0.629,0.14
26.13,-0.322,1.021,-0.038
26.14,-0.317,1.034,-0.259
26.15,-0.077,0.964,0.051
26.16,-0.16,1.133,0.188
26.17,-0.141,0.631,0.003
26.18,-0.466,1.219,-0.178
26.19,-0.051,0.932,-0.048
26.2,-0.158,1.094,0.082
26.21,-0.142,0.745,0.173
26.22,-0.337,1.0,-0.166
26.23,-0.244,1.038,-0.187
26.24,-0.048,0.977,0.162
26.25,-0.193,1.054,0.154
26.26,-0.209,0.661,-0.01
26.27,-0.327,1.346,-0.216
26.28,-0.127,0.823,-0.013
26.29,-0.15,1.063,0.146
26.3,-0.099,0.837,0.09
26.31,-0.417,0.937,-0.16
26.32,-0.222,1.197,-0.03
26.33,-0.016,0.897,0.075
26.34,-0.2,1.028,0.131
26.35,-0.271,0.709,-0.013
26.36,-0.375,1.26,-0.188
26.37,-0.082,0.916,0.015
26.38,-0.083,1.014,0.154
26.39,-0.158,0.858,0.02
26.4,-0.442,0.948,-0.153
26.41,-0.133,1.282,-0.046
26.42,-0.118,0.7,0.122
26.43,-0.213,1.067,0.178
26.44,-0.284,0.789,-0.177
26.45,-0.354,1.139,-0.142
26.46,-0.023,0.992,0.123
26.47,-0.158,0.846,0.107
26.48,-0.215,0.944,-0.028
26.49,-0.32,1.012,-0.18
26.5,-0.142,1.18,-0.011
26.51,-0.192,0.714,0.232
26.52,-0.157,1.06,0.058
26.53,-0.394,0.849,-0.175
26.54,-0.24,1.131,-0.046
26.55,-0.126,0.995,0.073
26.56,-0.138,0.735,0.133
26.57,-0.281,1.086,-0.051
26.58,-0.377,0.883,-0.173
26.59,-0.146,1.23,0.075
26.6,-0.053,0.756,0.136
26.61,-0.302,0.95,0.002
26.62,-0.109,0.835,0.073
26.63,-0.181,1.065,0.129
26.64,-0.228,0.605,-0.01
26.65,-0.301,1.315,-0.211
26.66,-0.202,0.871,-0.029
26.67,-0.212,1.067,0.184
26.68,0.007,0.828,0.099
26.69,-0.422,0.962,-0.245
26.7,-0.146,1.082,-0.037
26.71,-0.045,1.003,0.092
26.72,-0.252,0.986,0.171
26.73,-0.17,0.7,0.018
26.74,-0.394,1.327,-0.233
26.75,-0.159,0.878,0.052
26.76,-0.149,1.159,0.152
26.77,-0.107,0.68,0.041
26.78,-0.388,1.027,-0.087
26.79,-0.097,1.269,-0.16
26.8,-0.102,0.692,0.094
26.81,-0.171,1.108,0.264
26.82,-0.371,0.744,-0.107
26.83,-0.419,1.109,-0.206
26.84,0.034,1.021,0.076
26.85,-0.171,0.991,0.111
26.86,-0.228,0.834,0.046
26.87,-0.315,1.039,-0.165
26.88,-0.174,1.176,-0.066
26.89,-0.177,0.726,0.159
26.9,-0.064,1.09,0.1
26.91,-0.398,0.728,-0.18
26.92,-0.327,1.149,-0.035
26.93,-0.07,1.068,0.08
26.94,-0.146,0.729,0.074
26.95,-0.259,1.023,0.067
26.96,-0.307,0.971,-0.223
26.97,-0.176,1.121,-0.005
26.98,-0.088,0.756,0.202
26.99,-0.119,1.05,0.063
27.0,-0.433,0.82,-0.22
27.01,-0.182,1.128,-0.039
27.02,-0.134,0.996,0.044
27.03,-0.158,0.697,0.182
27.04,-0.263,1.145,-0.061
27.05,-0.387,0.822,-0.202
27.06,-0.143,1.144,0.056
27.07,-0.038,0.828,0.114
27.08,-0.145,0.926,-0.019
27.09,-0.377,0.969,-0.183
27.1,-0.062,1.09,-0.093
27.11,-0.213,0.934,0.068
27.12,-0.098,0.703,0.217
27.13,-0.416,1.17,-0.157
27.14,-0.304,0.77,-0.168
27.15,-0.113,1.307,0.128
27.16,-0.136,0.769,0.12
27.17,-0.253,0.893,0.03
27.18,-0.327,1.162,-0.184
27.19,-0.083,0.974,-0.082
27.2,-0.245,1.043,0.145
27.21,-0.065,0.7,0.157
27.22,-0.518,1.158,-0.168
27.23,-0.23,0.815,-0.061
27.24,-0.074,1.302,0.077
27.25,-0.157,0.67,0.089
27.26,-0.248,0.942,0.072
27.27,-0.388,1.173,-0.213
27.28,-0.1,0.808,-0.021
27.29,-0.016,1.181,0.139
27.3,-0.183,0.656,0.065
27.31,-0.492,1.17,-0.128
27.32,-0.086,0.95,-0.095
27.33,-0.125,1.116,0.071
27.34,-0.201,0.792,0.178
27.35,-0.246,0.875,-0.103
27.36,-0.349,1.169,-0.162
27.37,-0.132,0.884,0.138
27.38,-0.144,1.134,0.127
27.39,-0.132,0.611,0.01
27.4,-0.447,1.313,-0.142
27.41,-0.211,0.897,-0.058
27.42,-0.179,0.956,0.098
27.43,-0.09,0.779,0.111
27.44,-0.428,0.989,-0.167
27.45,-0.25,1.063,-0.11
27.46,-0.085,1.011,0.079
27.47,-0.112,0.931,0.098
27.48,-0.146,0.682,0.019
27.49,-0.418,1.384,-0.234
27.5,-0.08,0.757,-0.023
27.51,-0.186,1.065,0.203
27.52,-0.183,0.794,0.066
27.53,-0.409,0.971,-0.163
27.54,-0.147,1.218,-0.065
27.55,-0.164,0.844,0.088
27.56,-0.154,1.006,0.196
27.57,-0.267,0.719,-0.074
27.58,-0.329,1.267,-0.217
27.59,0.001,0.886,0.016
27.6,-0.219,1.003,0.177
27.61,-0.174,0.808,0.053
27.62,-0.404,0.945,-0.186
27.63,-0.162,1.25,-0.023
27.64,-0.111,0.781,0.074
27.65,-0.182,0.988,0.067
27.66,-0.271,0.742,-0.131
27.67,-0.233,1.168,-0.188
27.68,-0.062,0.961,0.096
27.69,-0.139,0.844,0.153
27.7,-0.187,0.943,-0.014
27.71,-0.408,0.935,-0.185
27.72,-0.118,1.202,-0.032
27.73,-0.074,0.721,0.128
27.74,-0.215,1.085,0.16
27.75,-0.277,0.838,-0.189
27.76,-0.27,1.109,-0.106
27.77,-0.036,1.051,0.117
27.78,-0.194,0.792,0.176
27.79,-0.338,0.993,-0.041
27.8,-0.24,0.946,-0.16
27.81,-0.145,1.263,0.034
27.82,-0.229,0.691,0.197
27.83,-0.118,1.017,0.066
27.84,-0.422,0.955,-0.204
27.85,-0.253,1.053,0.015
27.86,-0.054,1.053,0.077
27.87,-0.165,0.682,0.118
27.88,-0.297,1.129,-0.055
27.89,-0.306,0.877,-0.155
27.9,-0.137,1.238,0.053
27.91,-0.077,0.767,0.102
27.92,-0.254,0.91,0.008
27.93,-0.437,1.039,-0.154
27.94,-0.071,1.031,-0.048
27.95,-0.207,1.011,0.125
27.96,-0.092,0.7,0.182
27.97,-0.415,1.215,-0.165
27.98,-0.322,0.831,-0.12
27.99,-0.027,1.258,0.094
28.0,-0.115,0.733,0.065
28.01,-0.305,0.928,0.036
28.02,-0.298,1.134,-0.223
28.03,-0.172,0.896,0.003
28.04,-0.196,1.109,0.216
28.05,-0.046,0.66,0.069
28.06,-0.521,1.232,-0.194
28.07,-0.071,0.88,-0.06
28.08,-0.124,1.128,0.099
28.09,-0.202,0.774,0.17
28.1,-0.221,0.918,-0.075
28.11,-0.304,1.132,-0.19
28.12,-0.173,0.918,0.143
28.13,-0.093,1.08,0.117
28.14,-0.191,0.598,0.009
28.15,-0.47,1.3,-0.159
28.16,-0.037,0.927,-0.097
28.17,-0.24,0.981,0.17
28.18,-0.111,0.909,0.169
28.19,-0.315,0.806,-0.187
28.2,-0.294,1.15,-0.135
28.21,0.004,0.959,0.139
28.22,-0.215,1.053,0.1
28.23,-0.199,0.632,0.038
28.24,-0.358,1.387,-0.258
28.25,-0.099,0.78,0.013
28.26,-0.131,1.094,0.192
28.27,-0.07,0.813,0.039
28.28,-0.47,0.961,-0.178
28.29,-0.209,1.182,-0.001
28.3,-0.067,0.864,0.087
28.31,-0.251,1.002,0.112
28.32,-0.209,0.758,-0.033
28.33,-0.405,1.277,-0.17
28.34,-0.199,0.862,0.087
28.35,0.012,1.034,0.129
28.36,-0.278,0.797,-0.03
28.37,-0.411,0.933,-0.087
28.38,-0.061,1.262,-0.087
28.39,-0.183,0.706,0.117
28.4,-0.072,1.07,0.139
28.41,-0.257,0.785,-0.216
28.42,-0.373,1.181,-0.087
28.43,0.064,0.98,0.038
28.44,-0.127,0.851,0.093
28.45,-0.319,0.939,-0.001
28.46,-0.259,1.007,-0.194
28.47,-0.195,1.175,-0.044
28.48,-0.108,0.73,0.168
28.49,-0.083,1.033,0.064
28.5,-0.473,0.854,-0.167
28.51,-0.112,1.136,-0.095
28.52,-0.025,0.964,0.048
28.53,-0.22,0.789,0.185
28.54,-0.3,1.081,-0.055
28.55,-0.258,0.838,-0.211
28.56,-0.174,1.247,0.124
28.57,-0.041,0.75,0.145
28.58,-0.239,0.973,-0.001
28.59,-0.395,0.933,-0.172
28.6,-0.005,1.157,-0.092
28.61,-0.215,0.907,0.117
28.62,-0.209,0.719,0.189
28.63,-0.295,1.215,-0.189
28.64,-0.285,0.787,-0.136
28.65,-0.146,1.255,0.202
28.66,-0.087,0.684,0.121
28.67,-0.336,0.954,-0.053
28.68,-0.28,1.055,-0.238
28.69,-0.087,0.962,-0.04
28.7,-0.261,1.004,0.217
28.71,-0.0,0.74,0.091
28.72,-0.509,1.196,-0.238
28.73,-0.066,0.809,-0.053
28.74,-0.045,1.249,0.092
28.75,-0.222,0.707,0.194
28.76,-0.274,0.971,-0.056
28.77,-0.236,1.115,-0.263
28.78,-0.227,0.927,0.118
28.79,-0.043,1.031,0.078
28.8,-0.123,0.622,-0.005
28.81,-0.442,1.327,-0.187
28.82,-0.093,0.889,-0.066
28.83,-0.176,1.075,0.078
28.84,-0.1,0.824,0.188
28.85,-0.35,0.917,-0.151
28.86,-0.343,1.118,-0.165
28.87,0.001,0.954,0.056
28.88,-0.104,1.038,0.08
28.89,-0.263,0.625,0.033
28.9,-0.343,1.317,-0.209
28.91,-0.016,0.856,-0.033
28.92,-0.207,1.044,0.139
28.93,0.004,0.862,0.082
28.94,-0.439,0.863,-0.162
28.95,-0.269,1.247,-0.009
28.96,-0.004,0.865,0.076
28.97,-0.243,1.007,0.129
28.98,-0.232,0.727,-0.01
28.99,-0.39,1.238,-0.21
29.0,-0.15,0.956,0.05
29.01,-0.098,0.948,0.115
29.02,-0.145,0.872,-0.009
29.03,-0.448,0.907,-0.178
29.04,-0.053,1.233,-0.096
29.05,-0.161,0.791,0.141
29.06,-0.183,1.083,0.173
29.07,-0.273,0.74,-0.173
29.08,-0.38,1.252,-0.09
29.09,0.01,0.925,0.082
29.1,-0.141,0.925,0.083
29.11,-0.281,0.839,0.037
29.12,-0.262,1.103,-0.185
29.13,-0.177,1.139,-0.019
29.14,-0.117,0.741,0.176
29.15,-0.109,1.038,0.086
29.16,-0.403,0.782,-0.198
29.17,-0.238,1.247,-0.04
29.18,-0.052,0.847,0.049
29.19,-0.177,0.856,0.147
29.2,-0.304,1.006,-0.012
29.21,-0.319,0.883,-0.178
29.22,-0.143,1.225,0.088
29.23,-0.065,0.737,0.122
29.24,-0.171,0.989,-0.001
29.25,-0.406,0.889,-0.15
29.26,-0.089,1.184,-0.063
29.27,-0.158,0.813,0.13
29.28,-0.228,0.838,0.22
29.29,-0.354,1.082,-0.152
29.3,-0.277,0.84,-0.164
29.31,-0.129,1.343,0.133
29.32,-0.08,0.643,0.121
29.33,-0.311,1.02,0.014
29.34,-0.341,1.002,-0.173
29.35,-0.146,1.058,-0.05
29.36,-0.14,0.896,0.133
29.37,-0.134,0.812,0.11
29.38,-0.486,1.137,-0.195
29.39,-0.219,0.817,-0.102
29.4,-0.021,1.271,0.068
29.41,-0.095,0.641,0.122
29.42,-0.326,1.017,-0.003
29.43,-0.313,1.037,-0.195
29.44,-0.118,1.009,-0.003
29.45,-0.06,1.038,0.159
29.46,-0.161,0.677,0.057
29.47,-0.492,1.236,-0.157
29.48,-0.068,0.863,-0.087
29.49,-0.162,1.144,0.075
29.5,-0.081,0.736,0.199
29.51,-0.368,1.019,-0.125
29.52,-0.35,0.998,-0.179
29.53,-0.057,1.023,0.124
29.54,-0.155,1.026,0.109
29.55,-0.27,0.636,0.051
29.56,-0.389,1.348,-0.194
29.57,-0.126,0.877,-0.044
29.58,-0.231,1.089,0.205
29.59,-0.013,0.815,0.141
29.6,-0.439,0.918,-0.21
29.61,-0.209,1.093,-0.065
29.62,0.021,0.967,0.056
29.63,-0.233,1.016,0.145
29.64,-0.202,0.706,0.036
29.65,-0.408,1.323,-0.214
29.66,-0.196,0.822,0.046
29.67,-0.061,1.13,0.15
29.68,-0.148,0.795,0.032
29.69,-0.477,0.898,-0.076
29.7,-0.03,1.282,-0.137
29.71,-0.081,0.758,0.064
29.72,-0.199,1.093,0.226
29.73,-0.222,0.736,-0.122
29.74,-0.403,1.14,-0.176
29.75,-0.029,0.994,0.145
29.76,-0.164,0.99,0.133
29.77,-0.248,0.82,0.021
29.78,-0.323,1.005,-0.149
29.79,-0.153,1.244,-0.125
29.8,-0.109,0.645,0.157
29.81,-0.108,1.113,0.163
29.82,-0.373,0.76,-0.173
29.83,-0.327,1.08,-0.112
29.84,0.001,1.093,0.098
29.85,-0.244,0.76,0.127
29.86,-0.242,0.994,0.03
29.87,-0.424,1.096,-0.212
29.88,-0.158,1.083,-0.011
29.89,-0.034,0.826,0.151
29.9,-0.213,1.031,0.067
29.91,-0.403,0.782,-0.16
29.92,-0.135,1.289,-0.113
29.93,-0.115,0.771,0.037
29.94,-0.186,0.856,0.225
29.95,-0.276,1.01,-0.101
29.96,-0.336,0.869,-0.173
29.97,-0.141,1.223,0.114
29.98,-0.066,0.709,0.146
29.99,-0.283,1.021,0.014
30.0,-0.293,0.935,-0.159
30.01,-0.129,1.17,-0.089
30.02,-0.15,0.836,0.147
30.03,-0.049,0.843,0.159
30.04,-0.374,1.047,-0.162
30.05,-0.24,0.832,-0.106
30.06,-0.043,1.327,0.024
30.07,-0.083,0.573,0.128
30.08,-0.292,1.081,0.051
30.09,-0.292,1.027,-0.248
30.1,-0.159,0.984,-0.033
30.11,-0.208,0.922,0.194
30.12,-0.073,0.797,0.082
30.13,-0.414,1.106,-0.203
30.14,-0.213,0.85,-0.043
30.15,-0.093,1.278,0.074
30.16,-0.12,0.607,0.117
30.17,-0.307,1.08,0.009
30.18,-0.348,1.001,-0.253
30.19,-0.077,0.936,0.028
30.2,-0.095,1.123,0.165
30.21,-0.132,0.702,0.048
30.22,-0.47,1.172,-0.162
30.23,-0.131,0.924,-0.021
30.24,-0.1,1.2,0.104
30.25,-0.194,0.688,0.188
30.26,-0.314,1.045,-0.102
30.27,-0.238,0.968,-0.209
30.28,-0.145,1.033,0.128
30.29,-0.118,1.073,0.108
30.3,-0.131,0.633,0.009
30.31,-0.443,1.33,-0.163
30.32,-0.138,0.867,-0.068
30.33,-0.14,1.071,0.094
30.34,-0.097,0.798,0.209
30.35,-0.449,0.961,-0.138
30.36,-0.307,1.043,-0.115
30.37,-0.023,0.998,0.087
30.38,-0.193,1.034,0.122
30.39,-0.196,0.663,0.04
30.4,-0.353,1.329,-0.212
30.41,-0.152,0.804,-0.032
30.42,-0.178,1.08,0.208
30.43,-0.082,0.849,0.084
30.44,-0.466,0.891,-0.186
30.45,-0.174,1.211,-0.054
30.46,-0.065,0.95,0.048
30.47,-0.209,0.967,0.148
30.48,-0.193,0.715,0.031
30.49,-0.402,1.301,-0.247
30.5,-0.135,0.833,0.044
30.51,-0.089,1.082,0.16
30.52,-0.148,0.868,0.08
30.53,-0.432,0.847,-0.167
30.54,-0.12,1.292,-0.033
30.55,-0.104,0.779,0.073
30.56,-0.206,0.988,0.179
30.57,-0.173,0.814,-0.044
30.58,-0.435,1.169,-0.175
30.59,-0.175,0.942,0.067
30.6,-0.026,1.012,0.152
30.61,-0.196,0.885,0.019
30.62,-0.429,0.86,-0.131
30.63,-0.13,1.337,-0.067
30.64,-0.149,0.701,0.08
30.65,-0.216,0.996,0.227
30.66,-0.198,0.882,-0.149
30.67,-0.333,1.086,-0.218
30.68,-0.037,0.958,0.133
30.69,-0.169,0.913,0.174
30.7,-0.302,0.881,0.037
30.71,-0.302,1.07,-0.215
30.72,-0.131,1.171,-0.024
30.73,-0.218,0.72,0.157
30.74,-0.168,1.049,0.104
30.75,-0.335,0.772,-0.179
30.76,-0.255,1.207,-0.05
30.77,-0.083,0.996,0.062
30.78,-0.123,0.789,0.134
30.79,-0.284,1.026,0.005
30.8,-0.377,0.939,-0.199
30.81,-0.115,1.149,0.0
30.82,-0.107,0.763,0.168
30.83,-0.125,1.019,0.06
30.84,-0.354,0.869,-0.183
30.85,-0.244,1.136,-0.02
30.86,-0.026,0.978,0.08
30.87,-0.183,0.726,0.151
30.88,-0.341,1.109,-0.045
30.89,-0.27,0.863,-0.245
30.9,-0.18,1.213,0.081
30.91,-0.122,0.768,0.19
30.92,-0.153,0.959,-0.007
30.93,-0.376,0.893,-0.214
30.94,-0.061,1.104,-0.013
30.95,-0.136,1.002,0.088
30.96,-0.212,0.707,0.168
30.97,-0.26,1.186,-0.156
30.98,-0.313,0.799,-0.19
30.99,-0.137,1.252,0.127
31.0,-0.044,0.748,0.109
31.01,-0.304,0.946,-0.039
31.02,-0.349,1.032,-0.165
31.03,-0.128,1.004,-0.063
31.04,-0.221,1.055,0.178
31.05,-0.012,0.762,0.106
31.06,-0.422,1.151,-0.216
31.07,-0.319,0.86,-0.0
31.08,-0.048,1.255,0.064
31.09,-0.213,0.675,0.127
31.1,-0.314,0.978,0.031
31.11,-0.296,1.119,-0.299
31.12,-0.119,0.839,0.016
31.13,-0.152,1.207,0.166
31.14,-0.036,0.656,0.019
31.15,-0.523,1.212,-0.141
31.16,-0.024,0.946,-0.045
31.17,-0.173,1.15,0.062
31.18,-0.198,0.748,0.197
31.19,-0.231,0.903,-0.086
31.2,-0.368,1.135,-0.198
31.21,-0.158,0.893,0.125
31.22,-0.111,1.173,0.072
31.23,-0.118,0.568,-0.003
31.24,-0.503,1.266,-0.126
31.25,-0.028,0.977,-0.083
31.26,-0.158,0.976,0.101
31.27,-0.151,0.889,0.201
31.28,-0.324,0.847,-0.163
31.29,-0.359,1.165,-0.136
31.3,-0.037,0.907,0.132
31.31,-0.151,1.05,0.051
31.32,-0.235,0.678,0.01
31.33,-0.387,1.288,-0.181
31.34,-0.03,0.93,-0.047
31.35,-0.236,0.932,0.174
31.36,-0.024,0.957,0.087
31.37,-0.371,0.808,-0.218
31.38,-0.284,1.253,-0.002
31.39,-0.078,0.871,0.102
31.4,-0.232,0.97,0.093
31.41,-0.259,0.774,0.031
31.42,-0.329,1.197,-0.228
31.43,-0.173,0.987,0.011
31.44,-0.122,0.903,0.164
31.45,-0.093,0.957,0.028
31.46,-0.422,0.864,-0.173
31.47,-0.138,1.287,-0.065
31.48,-0.061,0.728,0.079
31.49,-0.22,1.066,0.178
31.5,-0.284,0.773,-0.139
31.51,-0.325,1.116,-0.173
31.52,-0.123,0.996,0.137
31.53,-0.099,0.901,0.131
31.54,-0.269,0.899,-0.004
31.55,-0.302,1.006,-0.151
31.56,-0.193,1.18,-0.04
31.57,-0.126,0.674,0.167
31.58,-0.104,1.113,0.125
31.59,-0.404,0.799,-0.198
31.6,-0.26,1.082,-0.031
31.61,-0.072,1.099,0.07
31.62,-0.187,0.704,0.125
31.63,-0.281,1.047,0.028
31.64,-0.289,0.991,-0.212
31.65,-0.212,1.142,-0.014
31.66,-0.088,0.736,0.193
31.67,-0.075,1.044,0.037
31.68,-0.446,0.842,-0.232
31.69,-0.158,1.092,0.015
31.7,-0.12,1.065,0.016
31.71,-0.233,0.675,0.201
31.72,-0.243,1.157,-0.01
31.73,-0.322,0.877,-0.237
31.74,-0.171,1.158,0.036
31.75,0.018,0.792,0.128
31.76,-0.214,0.934,0.001
31.77,-0.424,0.952,-0.191
31.78,0.026,1.079,-0.072
31.79,-0.166,1.024,0.048
31.8,-0.204,0.664,0.194
31.81,-0.321,1.207,-0.15
31.82,-0.336,0.851,-0.122
31.83,-0.152,1.217,0.17
31.84,-0.081,0.76,0.092
31.85,-0.314,0.894,-0.041
31.86,-0.337,1.104,-0.162
31.87,-0.081,0.973,-0.073
31.88,-0.168,1.063,0.114
31.89,-0.045,0.708,0.142
31.9,-0.444,1.192,-0.196
31.91,-0.232,0.843,-0.09
31.92,-0.052,1.196,0.069
31.93,-0.077,0.751,0.11
31.94,-0.364,0.893,-0.03
31.95,-0.237,1.189,-0.255
31.96,-0.076,0.852,-0.007
31.97,-0.241,1.129,0.213
31.98,-0.038,0.635,0.016
31.99,-0.46,1.189,-0.247
32.0,-0.054,0.93,-0.054
32.01,-0.114,1.099,0.102
32.02,-0.216,0.848,0.158
32.03,-0.229,0.864,-0.134
32.04,-0.225,1.152,-0.233
32.05,-0.071,0.904,0.146
32.06,-0.144,1.121,0.117
32.07,-0.179,0.606,-0.017
32.08,-0.349,1.257,-0.177
32.09,-0.095,0.95,-0.013
32.1,-0.255,1.006,0.232
32.11,-0.087,0.94,0.148
32.12,-0.368,0.817,-0.172
32.13,-0.286,1.223,-0.051
32.14,-0.018,0.892,0.046
32.15,-0.158,0.994,0.142
32.16,-0.222,0.715,0.033
32.17,-0.355,1.239,-0.233
32.18,-0.122,0.931,0.001
32.19,-0.108,0.93,0.189
32.2,-0.201,0.968,0.103
32.21,-0.42,0.809,-0.167
32.22,-0.178,1.338,-0.037
32.23,-0.117,0.766,0.061
32.24,-0.259,0.971,0.185
32.25,-0.21,0.843,-0.067
32.26,-0.364,1.034,-0.211
32.27,-0.097,1.065,0.109
32.28,-0.109,0.872,0.113
32.29,-0.182,0.955,-0.011
32.3,-0.27,1.023,-0.173
32.31,-0.192,1.203,-0.088
32.32,-0.141,0.745,0.165
32.33,-0.119,1.081,0.11
32.34,-0.353,0.754,-0.176
32.35,-0.301,1.138,-0.025
32.36,0.026,1.057,0.054
32.37,-0.18,0.752,0.096
32.38,-0.271,0.992,0.042
32.39,-0.3,0.955,-0.194
32.4,-0.186,1.171,-0.012
32.41,-0.139,0.748,0.183
32.42,-0.135,1.024,0.049
32.43,-0.381,0.867,-0.191
32.44,-0.253,1.095,-0.057
32.45,0.002,1.014,0.036
32.46,-0.128,0.73,0.131
32.47,-0.339,1.084,0.001
32.48,-0.304,0.839,-0.199
32.49,-0.179,1.219,0.03
32.5,-0.018,0.832,0.152
32.51,-0.156,0.923,0.022
32.52,-0.428,0.946,-0.147
32.53,-0.071,1.099,-0.096
32.54,-0.19,1.004,0.049
32.55,-0.137,0.721,0.281
32.56,-0.375,1.206,-0.113
32.57,-0.359,0.752,-0.215
32.58,0.026,1.274,0.1
32.59,-0.125,0.785,0.097
32.6,-0.319,0.923,0.091
32.61,-0.272,1.114,-0.263
32.62,-0.171,0.913,-0.054
32.63,-0.238,1.071,0.143
32.64,0.028,0.667,0.135
32.65,-0.488,1.141,-0.174
32.66,-0.25,0.866,-0.062
32.67,-0.015,1.24,0.023
32.68,-0.137,0.646,0.116
32.69,-0.206,0.92,0.07
32.7,-0.346,1.208,-0.263
32.71,-0.133,0.795,-0.026
32.72,-0.149,1.177,0.175
32.73,-0.093,0.65,0.074
32.74,-0.459,1.143,-0.18
32.75,-0.216,0.939,-0.038
32.76,-0.141,1.18,0.044
32.77,-0.106,0.753,0.162
32.78,-0.279,0.878,0.023
32.79,-0.338,1.208,-0.229
32.8,-0.072,0.806,0.0
32.81,-0.169,1.219,0.192
32.82,-0.116,0.656,0.089
32.83,-0.478,1.115,-0.191
32.84,-0.159,0.987,-0.02
32.85,-0.116,1.034,0.103
32.86,-0.195,0.848,0.194
32.87,-0.264,0.836,-0.016
32.88,-0.312,1.22,-0.244
32.89,-0.109,0.782,0.068
32.9,-0.058,1.222,0.122
32.91,-0.119,0.633,0.005
32.92,-0.507,1.11,-0.14
32.93,-0.064,1.043,-0.069
32.94,-0.123,0.915,0.032
32.95,-0.142,0.963,0.217
32.96,-0.32,0.764,-0.125
32.97,-0.352,1.218,-0.147
32.98,0.08,0.921,0.035
32.99,-0.173,1.062,0.159
33.0,-0.225,0.698,0.056
33.01,-0.368,1.181,-0.219
33.02,-0.11,0.978,-0.076
33.03,-0.202,0.869,0.208
33.04,-0.151,1.025,0.134
33.05,-0.38,0.742,-0.161
33.06,-0.271,1.313,-0.061
33.07,-0.076,0.888,0.047
33.08,-0.178,0.906,0.134
33.09,-0.18,0.87,0.041
33.1,-0.43,1.09,-0.23
33.11,-0.112,1.036,-0.021
33.12,-0.055,1.055,0.139
33.13,-0.257,0.87,0.091
33.14,-0.368,0.858,-0.147
33.15,-0.136,1.352,-0.09
33.16,-0.13,0.684,0.069
33.17,-0.208,1.005,0.212
33.18,-0.194,0.811,-0.096
33.19,-0.373,1.07,-0.183
33.2,-0.066,1.04,0.066
33.21,-0.058,0.964,0.135
33.22,-0.187,0.899,-0.004
33.23,-0.357,0.861,-0.149
33.24,-0.043,1.34,-0.094
33.25,-0.18,0.71,0.113
33.26,-0.191,0.94,0.213
33.27,-0.196,0.968,-0.162
33.28,-0.344,0.993,-0.16
33.29,-0.118,1.086,0.107
33.3,-0.001,0.816,0.095
33.31,-0.327,1.024,0.003
33.32,-0.323,0.902,-0.149
33.33,-0.158,1.26,-0.057
33.34,-0.166,0.751,0.095
33.35,-0.046,0.968,0.171
33.36,-0.375,0.969,-0.213
33.37,-0.288,0.894,-0.094
33.38,-0.034,1.243,0.028
33.39,-0.077,0.616,0.075
33.4,-0.305,1.104,0.061
33.41,-0.304,0.923,-0.197
33.42,-0.139,1.098,-0.024
33.43,-0.149,0.882,0.207
33.44,-0.157,0.877,0.106
33.45,-0.391,1.034,-0.207
33.46,-0.139,0.999,-0.034
33.47,-0.201,1.227,0.084
33.48,-0.146,0.592,0.169
33.49,-0.227,1.162,-0.012
33.5,-0.366,0.898,-0.229
33.51,-0.205,1.062,0.038
33.52,-0.101,0.96,0.139
33.53,-0.18,0.765,0.072
33.54,-0.439,1.141,-0.115
33.55,-0.035,0.944,-0.139
33.56,-0.216,1.113,0.065
33.57,-0.084,0.656,0.25
33.58,-0.328,1.147,-0.082
33.59,-0.383,0.773,-0.235
33.6,-0.012,1.135,0.108
33.61,-0.123,1.042,0.093
33.62,-0.193,0.682,0.029
33.63,-0.409,1.23,-0.12
33.64,-0.046,0.912,-0.099
33.65,-0.291,1.129,0.166
33.66,-0.118,0.678,0.199
33.67,-0.354,1.126,-0.149
33.68,-0.314,0.905,-0.153
33.69,-0.083,1.123,0.114
33.7,-0.154,1.018,0.084
33.71,-0.135,0.655,0.019
33.72,-0.461,1.356,-0.147
33.73,-0.146,0.841,-0.042
33.74,-0.185,1.075,0.153
33.75,-0.075,0.755,0.186
33.76,-0.451,1.056,-0.179
33.77,-0.262,0.898,-0.191
33.78,-0.081,1.038,0.139
33.79,-0.122,1.053,0.117
33.8,-0.209,0.636,0.013
33.81,-0.377,1.327,-0.137
33.82,-0.115,0.857,-0.029
33.83,-0.257,1.063,0.131
33.84,-0.003,0.794,0.173
33.85,-0.423,1.027,-0.209
33.86,-0.266,1.025,-0.097
33.87,0.012,1.041,0.064
33.88,-0.207,1.015,0.128
33.89,-0.26,0.677,0.002
33.9,-0.301,1.312,-0.241
33.91,-0.162,0.813,0.025
33.92,-0.2,1.038,0.254
33.93,-0.19,0.677,0.07
33.94,-0.481,1.069,-0.208
33.95,0.022,1.06,-0.095
33.96,-0.169,0.942,0.066
33.97,-0.192,0.962,0.201
33.98,-0.177,0.82,-0.136
33.99,-0.343,1.231,-0.181
34.0,-0.13,0.854,0.118
34.01,-0.013,1.104,0.117
34.02,-0.219,0.711,0.013
34.03,-0.502,1.109,-0.112
34.04,-0.088,1.095,-0.102
34.05,-0.216,0.791,0.124
34.06,-0.125,1.046,0.183
34.07,-0.279,0.762,-0.203
34.08,-0.34,1.18,-0.116
34.09,0.023,0.968,0.056
34.1,-0.096,0.971,0.108
34.11,-0.312,0.778,0.029
34.12,-0.273,1.073,-0.202
34.13,-0.092,1.108,-0.082
34.14,-0.164,0.783,0.19
34.15,-0.123,1.056,0.103
34.16,-0.345,0.786,-0.184
34.17,-0.257,1.256,-0.036
34.18,-0.087,0.896,0.077
34.19,-0.189,0.846,0.158
34.2,-0.223,0.976,-0.004
34.21,-0.342,0.985,-0.213
34.22,-0.131,1.126,-0.006
34.23,-0.101,0.792,0.207
34.24,-0.198,1.039,0.079
34.25,-0.399,0.803,-0.14
34.26,-0.175,1.206,-0.076
34.27,-0.137,0.838,0.073
34.28,-0.173,0.824,0.212
34.29,-0.233,1.097,-0.139
34.3,-0.288,0.812,-0.232
34.31,-0.104,1.268,0.095
34.32,-0.051,0.781,0.118
34.33,-0.249,0.944,0.022
34.34,-0.363,0.96,-0.116
34.35,-0.152,1.151,-0.094
34.36,-0.176,0.859,0.069
34.37,-0.113,0.845,0.239
34.38,-0.379,1.138,-0.155
34.39,-0.261,0.735,-0.191
34.4,-0.039,1.378,0.124
34.41,-0.109,0.71,0.141
34.42,-0.286,0.98,0.083
34.43,-0.265,1.07,-0.137
34.44,-0.247,1.053,-0.033
34.45,-0.254,0.866,0.159
34.46,-0.01,0.773,0.125
34.47,-0.475,1.153,-0.171
34.48,-0.278,0.773,-0.075
34.49,-0.035,1.331,0.052
34.5,-0.173,0.647,0.128
34.51,-0.206,0.954,0.012
34.52,-0.27,1.115,-0.204
34.53,-0.197,0.909,-0.018
34.54,-0.242,1.055,0.21
34.55,-0.036,0.723,0.093
34.56,-0.558,1.133,-0.229
34.57,-0.104,0.863,-0.017
34.58,-0.1,1.336,0.052
34.59,-0.203,0.627,0.079
34.6,-0.146,0.961,0.055
34.61,-0.272,1.152,-0.252
34.62,-0.258,0.838,0.027
34.63,-0.09,1.169,0.143
34.64,-0.086,0.646,0.054
34.65,-0.591,1.181,-0.11
34.66,-0.078,0.95,-0.089
34.67,-0.165,1.165,0.045
34.68,-0.143,0.743,0.185
34.69,-0.243,0.92,-0.047
34.7,-0.329,1.091,-0.193
34.71,-0.166,0.917,0.092
34.72,-0.121,1.229,0.126
34.73,-0.13,0.572,0.034
34.74,-0.432,1.314,-0.153
34.75,-0.106,0.868,-0.098
34.76,-0.181,1.092,0.044
34.77,-0.08,0.799,0.231
34.78,-0.427,0.988,-0.14
34.79,-0.26,0.959,-0.164
34.8,-0.075,1.057,0.083
34.81,-0.18,1.073,0.127
34.82,-0.166,0.635,0.012
34.83,-0.413,1.335,-0.179
34.84,-0.064,0.868,-0.078
34.85,-0.182,1.052,0.131
34.86,-0.081,0.797,0.16
34.87,-0.378,0.975,-0.162
34.88,-0.292,1.078,-0.129
34.89,-0.083,0.976,0.119
34.9,-0.147,0.992,0.095
34.91,-0.26,0.632,0.017
34.92,-0.319,1.345,-0.216
34.93,-0.14,0.872,-0.021
34.94,-0.196,0.987,0.139
34.95,-0.056,0.882,0.111
34.96,-0.17,1.167,0.168
34.97,-0.073,0.636,-0.002
34.98,-0.533,1.252,-0.19
34.99,-0.086,0.941,-0.052
35.0,-0.156,1.021,0.104
35.01,-0.161,0.939,0.145
35.02,-0.315,0.764,-0.164
35.03,-0.278,1.199,-0.107
35.04,-0.007,0.947,0.106
35.05,-0.269,1.087,0.177
35.06,-0.143,0.701,0.013
35.07,-0.446,1.208,-0.198
35.08,-0.073,0.945,-0.032
35.09,-0.115,0.932,0.139
35.1,-0.24,1.002,0.112
35.11,-0.312,0.777,-0.168
35.12,-0.219,1.226,-0.096
35.13,-0.091,0.896,0.092
35.14,-0.124,0.972,0.116
35.15,-0.203,0.736,-0.024
35.16,-0.479,1.162,-0.148
35.17,-0.043,1.056,-0.011
35.18,-0.169,0.789,0.132
35.19,-0.147,1.032,0.123
35.2,-0.393,0.87,-0.209
35.21,-0.245,1.206,-0.077
35.22,0.022,0.862,0.076
35.23,-0.125,0.942,0.11
35.24,-0.316,0.859,-0.019
35.25,-0.337,1.064,-0.19
35.26,-0.074,1.102,-0.014
35.27,-0.085,0.765,0.124
35.28,-0.189,1.003,-0.001
35.29,-0.441,0.838,-0.157
35.3,-0.184,1.252,-0.047
35.31,-0.072,0.777,0.089
35.32,-0.116,0.916,0.144
35.33,-0.357,0.978,-0.149
35.34,-0.242,0.934,-0.09
35.35,-0.044,1.258,0.004
35.36,-0.138,0.584,0.118
35.37,-0.271,1.112,0.043
35.38,-0.317,0.895,-0.282
35.39,-0.091,1.099,-0.07
35.4,-0.096,0.916,0.162
35.41,-0.156,0.814,0.085
35.42,-0.441,1.011,-0.168
35.43,-0.014,0.949,-0.093
35.44,-0.192,1.177,0.089
35.45,-0.139,0.6,0.228
35.46,-0.327,1.132,-0.055
35.47,-0.367,0.852,-0.203
35.48,-0.126,1.302,0.111
35.49,-0.164,0.795,0.169
35.5,-0.201,0.9,0.052
35.51,-0.367,1.071,-0.169
35.52,-0.153,0.976,-0.013
35.53,-0.181,1.081,0.105
35.54,-0.059,0.683,0.171
35.55,-0.459,1.148,-0.138
35.56,-0.225,0.815,-0.091
35.57,-0.133,1.288,0.08
35.58,-0.128,0.68,0.13
35.59,-0.265,0.904,-0.006
35.6,-0.339,1.18,-0.228
35.61,-0.034,0.851,-0.011
35.62,-0.229,1.172,0.156
35.63,0.029,0.654,0.037
35.64,-0.479,1.177,-0.211
35.65,-0.183,0.865,0.018
35.66,-0.079,1.151,0.074
35.67,-0.205,0.79,0.153
35.68,-0.232,0.869,-0.1
35.69,-0.373,1.166,-0.179
35.7,-0.077,0.811,0.015
35.71,-0.071,1.255,0.129
35.72,-0.101,0.602,0.034
35.73,-0.476,1.186,-0.178
35.74,-0.019,1.002,-0.086
35.75,-0.2,1.019,0.084
35.76,-0.16,0.883,0.229
35.77,-0.316,0.814,-0.113
35.78,-0.302,1.197,-0.159
35.79,-0.134,0.904,0.144
35.8,-0.136,1.087,0.096
35.81,-0.196,0.641,0.012
35.82,-0.354,1.248,-0.21
35.83,-0.111,0.974,-0.052
35.84,-0.19,0.908,0.196
35.85,-0.134,0.94,0.145
35.86,-0.353,0.803,-0.181
35.87,-0.236,1.239,-0.1
35.88,-0.103,0.917,0.107
35.89,-0.132,0.996,0.113
35.9,-0.236,0.76,0.011
35.91,-0.392,1.218,-0.189
35.92,-0.053,1.011,-0.028
35.93,-0.084,0.854,0.174
35.94,-0.172,0.983,0.11
35.95,-0.39,0.787,-0.206
35.96,-0.247,1.28,-0.025
35.97,-0.022,0.848,0.068
35.98,-0.206,0.961,0.12
35.99,-0.274,0.85,-0.007
36.0,-0.383,1.077,-0.188
36.01,-0.143,1.119,0.068
36.02,-0.057,0.827,0.12
36.03,-0.2,0.966,-0.006
36.04,-0.395,0.853,-0.121
36.05,-0.142,1.288,-0.054
36.06,-0.104,0.712,0.055
36.07,-0.136,0.936,0.181
36.08,-0.341,0.96,-0.162
36.09,-0.281,0.921,-0.18
36.1,-0.084,1.209,0.101
36.11,-0.071,0.656,0.114
36.12,-0.358,1.08,0.084
36.13,-0.289,0.911,-0.192
36.14,-0.185,1.124,-0.044
36.15,-0.205,0.796,0.184
36.16,-0.051,0.898,0.073
36.17,-0.414,1.015,-0.199
36.18,-0.285,0.899,-0.043
36.19,-0.021,1.237,0.037
36.2,-0.139,0.627,0.116
36.21,-0.32,1.135,0.036
36.22,-0.296,0.88,-0.239
36.23,-0.232,1.079,0.045
36.24,-0.06,0.979,0.143
36.25,-0.099,0.77,0.003
36.26,-0.441,1.131,-0.188
36.27,0.017,0.926,-0.104
36.28,-0.171,1.183,0.011
36.29,-0.039,0.699,0.207
36.3,-0.406,1.15,-0.133
36.31,-0.308,0.772,-0.121
36.32,-0.076,1.313,0.107
36.33,-0.174,0.728,0.141
36.34,-0.31,0.901,0.039
36.35,-0.332,1.129,-0.225
36.36,-0.096,0.855,-0.073
36.37,-0.231,1.11,0.163
36.38,0.009,0.72,0.095
36.39,-0.51,1.116,-0.231
36.4,-0.231,0.855,0.01
36.41,-0.061,1.288,0.055
36.42,-0.131,0.704,0.084
36.43,-0.275,0.942,0.058
36.44,-0.36,1.151,-0.285
36.45,-0.115,0.804,-0.015
36.46,-0.112,1.234,0.16
36.47,-0.088,0.625,0.065
36.48,-0.522,1.171,-0.138
36.49,-0.015,0.931,-0.074
36.5,-0.155,1.073,0.088
36.51,-0.156,0.848,0.216
36.52,-0.274,0.862,-0.09
36.53,-0.34,1.124,-0.219
36.54,-0.171,0.865,0.182
36.55,-0.07,1.149,0.055
36.56,-0.166,0.61,0.034
36.57,-0.395,1.28,-0.2
36.58,-0.024,0.987,-0.124
36.59,-0.21,0.937,0.12
36.6,-0.1,0.932,0.201
36.61,-0.337,0.817,-0.174
36.62,-0.347,1.15,-0.135
36.63,0.02,0.944,0.108
36.64,-0.2,1.056,0.131
36.65,-0.199,0.647,0.012
36.66,-0.344,1.238,-0.225
36.67,-0.055,0.989,-0.029
36.68,-0.222,0.886,0.143
36.69,-0.079,0.989,0.113
36.7,-0.414,0.781,-0.196
36.71,-0.281,1.244,-0.068
36.72,-0.013,0.917,0.08
36.73,-0.188,0.923,0.101
36.74,-0.244,0.835,0.044
36.75,-0.352,1.159,-0.208
36.76,-0.204,0.999,-0.006
36.77,-0.04,0.911,0.165
36.78,-0.168,0.98,0.038
36.79,-0.416,0.775,-0.077
36.8,-0.092,1.338,-0.085
36.81,-0.114,0.763,0.105
36.82,-0.174,0.941,0.206
36.83,-0.28,0.915,-0.108
36.84,-0.31,0.997,-0.169
36.85,-0.158,1.171,0.084
36.86,-0.102,0.753,0.166
36.87,-0.238,1.03,0.011
36.88,-0.336,0.902,-0.16
36.89,-0.123,1.262,-0.067
36.9,-0.159,0.673,0.118
36.91,-0.086,0.952,0.196
36.92,-0.381,1.011,-0.152
36.93,-0.265,0.89,-0.12
36.94,-0.052,1.255,0.078
36.95,-0.119,0.633,0.127
36.96,-0.308,1.069,0.019
36.97,-0.328,0.964,-0.169
36.98,-0.098,1.104,-0.056
36.99,-0.132,0.797,0.13
37.0,-0.107,0.902,0.101
37.01,-0.39,1.042,-0.186
37.02,-0.256,0.874,-0.037
37.03,-0.048,1.262,0.037
37.04,-0.075,0.603,0.087
37.05,-0.389,1.097,0.012
37.06,-0.334,0.899,-0.188
37.07,-0.139,1.097,0.037
37.08,-0.073,0.943,0.162
37.09,-0.129,0.785,0.02
37.1,-0.43,1.144,-0.174
37.11,-0.096,0.977,-0.09
37.12,-0.166,1.058,0.084
37.13,-0.115,0.691,0.153
37.14,-0.41,1.171,-0.146
37.15,-0.303,0.818,-0.124
37.16,-0.046,1.27,0.11
37.17,-0.127,0.725,0.165
37.18,-0.289,0.872,0.07
37.19,-0.293,1.182,-0.237
37.2,-0.116,0.855,-0.009
37.21,-0.262,1.136,0.182
37.22,-0.051,0.646,0.1
37.23,-0.5,1.165,-0.2
37.24,-0.174,0.917,0.003
37.25,-0.135,1.219,0.071
37.26,-0.148,0.712,0.147
37.27,-0.176,0.891,-0.001
37.28,-0.324,1.193,-0.252
37.29,-0.109,0.877,0.007
37.3,-0.155,1.195,0.169
37.31,-0.077,0.59,0.079
37.32,-0.54,1.212,-0.157
37.33,-0.045,1.018,-0.082
37.34,-0.117,1.035,0.058
37.35,-0.219,0.848,0.231
37.36,-0.176,0.837,-0.093
37.37,-0.368,1.155,-0.208
37.38,-0.087,0.88,0.156
37.39,-0.155,1.188,0.093
37.4,-0.204,0.564,-0.014
37.41,-0.363,1.258,-0.206
37.42,-0.084,0.971,-0.094
37.43,-0.187,0.921,0.091
37.44,-0.052,0.97,0.181
37.45,-0.288,0.77,-0.164
37.46,-0.375,1.195,-0.085
37.47,0.077,0.903,0.066
37.48,-0.136,1.024,0.09
37.49,-0.273,0.719,0.055
37.5,-0.313,1.209,-0.213
37.51,-0.159,0.948,-0.009
37.52,-0.175,0.919,0.189
37.53,-0.112,1.043,0.083
37.54,-0.4,0.747,-0.23
37.55,-0.18,1.287,-0.06
37.56,-0.025,0.884,0.048
37.57,-0.2,0.886,0.123
37.58,-0.191,0.836,0.024
37.59,-0.415,1.181,-0.244
37.6,-0.149,0.971,0.017
37.61,-0.029,0.902,0.165
37.62,-0.177,0.998,0.034
37.63,-0.437,0.802,-0.122
37.64,-0.103,1.317,-0.049
37.65,-0.189,0.742,0.07
37.66,-0.133,0.977,0.159
37.67,-0.291,0.922,-0.119
37.68,-0.336,0.934,-0.218
37.69,-0.169,1.184,0.169
37.7,-0.04,0.786,0.098
37.71,-0.261,1.006,0.03
37.72,-0.317,0.882,-0.133
37.73,-0.144,1.248,-0.111
37.74,-0.122,0.723,0.115
37.75,-0.165,0.961,0.186
37.76,-0.351,1.001,-0.171
37.77,-0.34,0.848,-0.107
37.78,-0.069,1.308,0.102
37.79,-0.147,0.685,0.133
37.8,-0.242,1.047,0.028
37.81,-0.323,0.96,-0.148
37.82,-0.211,1.14,-0.041
37.83,-0.137,0.805,0.143
37.84,-0.155,0.893,0.137
37.85,-0.423,1.045,-0.213
37.86,-0.136,0.865,-0.098
37.87,-0.087,1.318,0.101
37.88,-0.132,0.604,0.115
37.89,-0.274,1.058,-0.021
37.9,-0.326,0.987,-0.209
37.91,-0.111,1.06,-0.012
37.92,-0.096,0.84,0.161
37.93,-0.163,0.885,-0.032
37.94,-0.37,0.996,-0.211
37.95,-0.089,1.026,-0.024
37.96,-0.204,1.079,0.129
37.97,-0.126,0.646,0.161
37.98,-0.35,1.197,-0.118
37.99,-0.304,0.822,-0.182
38.0,-0.114,1.213,0.107
38.01,-0.104,0.836,0.112
38.02,-0.273,0.852,0.02
38.03,-0.348,1.129,-0.183
38.04,-0.125,0.926,-0.06
38.05,-0.2,1.076,0.19
38.06,-0.067,0.701,0.158
38.07,-0.54,1.156,-0.165
38.08,-0.146,0.82,-0.115
38.09,-0.056,1.251,0.13
38.1,-0.213,0.79,0.145
38.11,-0.242,0.828,-0.04
38.12,-0.31,1.224,-0.232
38.13,-0.087,0.818,0.007
38.14,-0.195,1.157,0.226
38.15,-0.115,0.656,0.058
38.16,-0.468,1.158,-0.197
38.17,-0.064,1.015,-0.057
38.18,-0.127,1.038,0.079
38.19,-0.152,0.886,0.185
38.2,-0.212,0.875,-0.094
38.21,-0.402,1.189,-0.192
38.22,-0.017,0.882,0.127
38.23,-0.153,1.097,0.12
38.24,-0.2,0.66,0.041
38.25,-0.404,1.326,-0.197
38.26,-0.217,0.948,-0.058
38.27,-0.145,0.911,0.151
38.28,-0.153,0.969,0.121
38.29,-0.335,0.768,-0.209
38.3,-0.287,1.277,-0.029
38.31,-0.016,0.888,0.054
38.32,-0.235,0.979,0.159
38.33,-0.091,0.736,0.015
38.34,-0.447,1.209,-0.216
38.35,-0.128,0.926,0.008
38.36,-0.115,0.935,0.204
38.37,-0.214,0.967,0.087
38.38,-0.356,0.82,-0.156
38.39,-0.157,1.352,-0.103
38.4,-0.195,0.723,0.124
38.41,-0.107,0.985,0.195
38.42,-0.319,0.873,-0.125
38.43,-0.472,0.983,-0.158
38.44,-0.055,1.121,0.086
38.45,-0.155,0.889,0.093
38.46,-0.223,0.939,0.021
38.47,-0.297,0.918,-0.163
38.48,-0.289,1.295,-0.05
38.49,-0.112,0.6,0.102
38.5,-0.055,1.034,0.162
38.51,-0.452,0.894,-0.159
38.52,-0.264,0.885,-0.108
38.53,-0.091,1.263,0.1
38.54,-0.147,0.595,0.101
38.55,-0.171,1.084,0.057
38.56,-0.357,0.986,-0.189
38.57,-0.17,1.144,-0.021
38.58,-0.182,0.807,0.228
38.59,-0.137,0.902,0.057
38.6,-0.318,1.023,-0.242
38.61,-0.18,0.969,-0.029
38.62,-0.129,1.177,0.047
38.63,-0.107,0.631,0.129
38.64,-0.28,1.163,-0.03
38.65,-0.275,0.866,-0.254
38.66,-0.185,1.134,0.108
38.67,-0.089,0.898,0.145
38.68,-0.199,0.827,0.048
38.69,-0.404,1.152,-0.171
38.7,-0.077,0.88,-0.141
38.71,-0.161,1.134,0.09
38.72,-0.085,0.692,0.177
38.73,-0.447,1.102,-0.145
38.74,-0.174,0.862,-0.089
38.75,-0.1,1.309,0.067
38.76,-0.111,0.588,0.132
38.77,-0.267,0.983,0.043
38.78,-0.358,1.136,-0.265
38.79,-0.084,0.884,-0.07
38.8,-0.168,1.141,0.188
38.81,-0.079,0.657,0.108
38.82,-0.458,1.162,-0.154
38.83,-0.212,0.927,-0.013
38.84,-0.186,1.221,0.068
38.85,-0.116,0.672,0.141
38.86,-0.257,0.947,-0.024
38.87,-0.32,1.128,-0.251
38.88,-0.105,0.842,0.014
38.89,-0.124,1.192,0.176
38.9,-0.061,0.624,0.082
38.91,-0.49,1.227,-0.175
38.92,-0.144,0.925,0.009
38.93,-0.166,1.148,0.081
38.94,-0.139,0.769,0.171
38.95,-0.291,0.899,-0.047
38.96,-0.338,1.139,-0.189
38.97,-0.104,0.904,0.087
38.98,-0.113,1.174,0.052
38.99,-0.096,0.6,0.006
39.0,-0.432,1.288,-0.151
39.01,-0.128,0.957,-0.086
39.02,-0.167,0.971,0.083
39.03,-0.107,0.921,0.205
39.04,-0.345,0.835,-0.185
39.05,-0.293,1.106,-0.1
39.06,-0.018,0.991,0.14
39.07,-0.229,1.098,0.108
39.08,-0.146,0.627,0.032
39.09,-0.396,1.296,-0.176
39.1,-0.185,0.948,-0.038
39.11,-0.223,0.934,0.174
39.12,-0.125,0.981,0.137
39.13,-0.36,0.789,-0.19
39.14,-0.266,1.163,-0.147
39.15,0.003,0.922,0.097
39.16,-0.149,0.996,0.115
39.17,-0.243,0.715,0.033
39.18,-0.329,1.235,-0.244
39.19,-0.091,0.933,-0.045
39.2,-0.212,0.914,0.231
39.21,-0.121,0.944,0.032
39.22,-0.385,0.785,-0.206
39.23,-0.224,1.334,-0.037
39.24,-0.052,0.814,0.056
39.25,-0.171,0.953,0.168
39.26,-0.217,0.85,0.005
39.27,-0.367,1.111,-0.251
39.28,-0.107,0.994,0.019
39.29,-0.084,0.932,0.189
39.3,-0.204,0.99,0.017
39.31,-0.431,0.768,-0.12
39.32,-0.11,1.325,-0.105
39.33,-0.124,0.735,0.052
39.34,-0.175,0.934,0.236
39.35,-0.259,0.952,-0.117
39.36,-0.336,0.933,-0.209
39.37,-0.019,1.205,0.085
39.38,-0.125,0.767,0.091
39.39,-0.203,1.002,0.007
39.4,-0.28,0.94,-0.158
39.41,-0.261,1.221,-0.031
39.42,-0.218,0.745,0.173
39.43,-0.04,0.953,0.118
39.44,-0.411,0.958,-0.14
39.45,-0.274,0.882,-0.082
39.46,-0.048,1.287,0.049
39.47,-0.092,0.594,0.077
39.48,-0.272,1.133,0.087
39.49,-0.276,0.924,-0.264
39.5,-0.218,1.058,-0.038
39.51,-0.146,0.919,0.207
39.52,-0.14,0.875,0.11
39.53,-0.402,0.99,-0.204
39.54,-0.096,1.094,-0.057
39.55,-0.146,1.094,0.018
39.56,-0.14,0.62,0.197
39.57,-0.302,1.153,-0.025
39.58,-0.322,0.877,-0.234
39.59,-0.118,1.124,0.03
39.6,-0.079,0.886,0.144
39.61,-0.168,0.912,0.056
39.62,-0.375,0.958,-0.194
39.63,-0.097,1.05,-0.018
39.64,-0.159,1.11,0.037
39.65,-0.1,0.596,0.178
39.66,-0.323,1.208,-0.043
39.67,-0.303,0.824,-0.199
39.68,-0.128,1.176,0.04
39.69,-0.017,0.901,0.15
39.7,-0.26,0.841,0.036
39.71,-0.4,1.08,-0.142
39.72,-0.104,0.987,-0.084
39.73,-0.163,1.054,0.069
39.74,-0.02,0.711,0.164
39.75,-0.408,1.16,-0.154
39.76,-0.309,0.763,-0.124
39.77,-0.02,1.26,0.056
39.78,-0.17,0.822,0.127
39.79,-0.264,0.796,0.072
39.8,-0.343,1.261,-0.198
39.81,-0.174,0.82,-0.053
39.82,-0.14,1.109,0.174
39.83,-0.069,0.682,0.151
39.84,-0.483,1.115,-0.184
39.85,-0.206,0.859,-0.085
39.86,-0.104,1.246,0.066
39.87,-0.127,0.776,0.116
39.88,-0.248,0.794,0.033
39.89,-0.343,1.297,-0.21
39.9,-0.119,0.778,-0.007
39.91,-0.224,1.123,0.158
39.92,-0.009,0.695,0.123
39.93,-0.522,1.128,-0.191
39.94,-0.206,0.914,-0.099
39.95,-0.032,1.118,0.056
39.96,-0.177,0.881,0.134
39.97,-0.299,0.751,-0.011
39.98,-0.338,1.295,-0.217
39.99,-0.045,0.806,-0.015
40.0,-0.194,1.175,0.178
40.01,-0.134,0.696,0.078
40.02,-0.437,1.11,-0.234
40.03,-0.074,1.05,-0.067
40.04,-0.143,0.922,0.119
40.05,-0.203,0.92,0.185
40.06,-0.216,0.771,-0.114
40.07,-0.353,1.263,-0.182
40.08,-0.154,0.855,0.129
40.09,-0.127,1.092,0.122
40.1,-0.149,0.702,0.028
40.11,-0.457,1.131,-0.159
40.12,-0.055,1.08,-0.077
40.13,-0.158,0.788,0.101
40.14,-0.13,1.061,0.216
40.15,-0.324,0.759,-0.143
40.16,-0.381,1.198,-0.118
40.17,-0.137,0.923,0.118
40.18,-0.135,0.994,0.11
40.19,-0.217,0.779,0.021
40.2,-0.413,1.087,-0.153
40.21,-0.071,1.14,-0.094
40.22,-0.163,0.786,0.124
40.23,-0.146,1.047,0.186
40.24,-0.353,0.757,-0.176
40.25,-0.303,1.176,-0.096
40.26,0.021,0.986,0.097
40.27,-0.128,0.879,0.099
40.28,-0.304,0.883,0.01
40.29,-0.223,1.056,-0.179
40.3,-0.194,1.178,0.034
40.31,-0.132,0.7,0.183
40.32,-0.103,1.078,0.04
40.33,-0.401,0.805,-0.216
40.34,-0.225,1.196,-0.03
40.35,-0.028,0.941,0.083
40.36,-0.279,0.956,0.175
40.37,-0.192,0.881,-0.067
40.38,-0.3,1.107,-0.224
40.39,-0.167,1.035,0.083
40.4,-0.038,0.753,0.139
40.41,-0.282,1.012,-0.01
40.42,-0.385,0.862,-0.158
40.43,-0.089,1.26,-0.044
40.44,-0.192,0.729,0.124
40.45,-0.153,0.987,0.165
40.46,-0.315,0.974,-0.175
40.47,-0.28,0.937,-0.121
40.48,-0.096,1.224,0.151
40.49,-0.124,0.665,0.106
40.5,-0.331,1.039,-0.048
40.51,-0.233,0.92,-0.156
40.52,-0.209,1.24,0.005
40.53,-0.192,0.716,0.178
40.54,-0.116,0.94,0.095
40.55,-0.397,1.026,-0.277
40.56,-0.19,0.89,-0.034
40.57,-0.042,1.262,0.108
40.58,-0.202,0.608,0.113
40.59,-0.31,1.105,-0.029
40.6,-0.226,0.928,-0.204
40.61,-0.191,1.146,0.024
40.62,-0.167,0.807,0.172
40.63,-0.141,0.819,0.019
40.64,-0.492,1.171,-0.194
40.65,-0.026,0.869,-0.079
40.66,-0.18,1.167,0.154
40.67,-0.149,0.628,0.146
40.68,-0.302,1.134,-0.126
40.69,-0.287,0.842,-0.155
40.7,-0.108,1.113,0.093
40.71,-0.068,0.92,0.095
40.72,-0.233,0.743,-0.025
40.73,-0.404,1.254,-0.19
40.74,-0.058,0.882,-0.034
40.75,-0.219,1.127,0.136
40.76,-0.07,0.719,0.154
40.77,-0.432,1.096,-0.185
40.78,-0.279,0.923,-0.068
40.79,-0.007,1.106,0.061
40.8,-0.198,0.861,0.127
40.81,-0.255,0.81,-0.012
40.82,-0.35,1.294,-0.236
40.83,-0.056,0.771,0.023
40.84,-0.102,1.207,0.203
40.85,-0.139,0.666,0.022
40.86,-0.499,1.094,-0.205
40.87,-0.007,1.082,-0.089
40.88,-0.138,0.924,0.054
40.89,-0.178,0.956,0.173
40.9,-0.197,0.8,-0.131
40.91,-0.407,1.195,-0.19
40.92,0.031,0.865,0.127
40.93,-0.115,1.116,0.117
40.94,-0.289,0.691,0.038
40.95,-0.297,1.209,-0.206
40.96,-0.121,1.031,-0.078
40.97,-0.23,0.842,0.249
40.98,-0.139,1.031,0.11
40.99,-0.361,0.73,-0.207
41.0,-0.241,1.288,-0.035
41.01,0.032,0.888,0.038
41.02,-0.193,0.899,0.1
41.03,-0.152,0.821,0.002
41.04,-0.33,1.143,-0.222
41.05,-0.185,1.086,0.037
41.06,-0.083,0.859,0.185
41.07,-0.245,0.986,0.096
41.08,-0.381,0.789,-0.165
41.09,-0.097,1.338,-0.073
41.1,-0.125,0.79,0.092
41.11,-0.222,0.924,0.208
41.12,-0.217,0.914,-0.165
41.13,-0.289,0.937,-0.159
41.14,-0.132,1.232,0.158
41.15,-0.156,0.72,0.11
41.16,-0.29,0.995,0.048
41.17,-0.323,0.968,-0.226
41.18,-0.193,1.153,0.01
41.19,-0.135,0.763,0.209
41.2,-0.167,1.027,0.064
41.21,-0.339,0.816,-0.2
41.22,-0.217,1.136,-0.031
41.23,-0.133,1.079,0.043
41.24,-0.147,0.651,0.146
41.25,-0.201,1.148,-0.034
41.26,-0.445,0.858,-0.191
41.27,-0.2,1.158,0.068
41.28,-0.011,0.894,0.107
41.29,-0.223,0.937,0.062
41.3,-0.28,0.946,-0.188
41.31,-0.112,1.124,-0.119
41.32,-0.102,0.985,0.063
41.33,-0.137,0.714,0.199
41.34,-0.409,1.131,-0.106
41.35,-0.234,0.76,-0.171
41.36,-0.087,1.341,0.098
41.37,-0.232,0.721,0.112
41.38,-0.14,0.915,0.033
41.39,-0.36,1.137,-0.198
41.4,-0.201,0.918,-0.026
41.41,-0.106,1.104,0.149
41.42,-0.112,0.735,0.146
41.43,-0.469,1.09,-0.137
41.44,-0.129,0.842,-0.133
41.45,-0.137,1.273,0.085
41.46,-0.088,0.694,0.136
41.47,-0.212,0.891,0.022
41.48,-0.487,1.186,-0.194
41.49,-0.032,0.793,-0.028
41.5,-0.134,1.165,0.123
41.51,-0.167,0.66,0.146
41.52,-0.384,1.146,-0.191
41.53,-0.191,0.913,-0.058
41.54,-0.183,1.139,0.134
41.55,-0.077,0.789,0.188
41.56,-0.38,0.886,-0.023
41.57,-0.377,1.157,-0.214
41.58,-0.046,0.823,0.037
41.59,-0.113,1.253,0.155
41.6,-0.133,0.652,0.054
41.61,-0.446,1.167,-0.209
41.62,-0.07,0.947,-0.081
41.63,-0.162,0.982,0.1
41.64,-0.122,0.875,0.172
41.65,-0.344,0.873,-0.114
41.66,-0.274,1.165,-0.141
41.67,-0.097,0.899,0.129
41.68,-0.216,1.093,0.111
41.69,-0.075,0.625,-0.036
41.7,-0.428,1.281,-0.156
41.71,-0.154,0.95,-0.048
41.72,-0.131,0.909,0.155
41.73,-0.118,0.969,0.099
41.74,-0.434,0.783,-0.182
41.75,-0.215,1.32,-0.059
41.76,-0.096,0.906,0.096
41.77,-0.174,0.936,0.094
41.78,-0.12,0.783,0.016
41.79,-0.42,1.212,-0.222
41.8,-0.099,0.954,-0.024
41.81,-0.051,0.915,0.178
41.82,-0.181,0.957,0.027
41.83,-0.421,0.84,-0.115
41.84,-0.134,1.306,-0.099
41.85,-0.152,0.73,0.108
41.86,-0.159,1.037,0.211
41.87,-0.292,0.836,-0.107
41.88,-0.351,1.031,-0.184
41.89,0.013,1.163,0.067
41.9,-0.128,0.777,0.099
41.91,-0.227,0.981,0.062
41.92,-0.378,0.912,-0.187
41.93,-0.196,1.255,-0.064
41.94,-0.127,0.688,0.144
41.95,-0.133,1.024,0.174
41.96,-0.352,0.906,-0.183
41.97,-0.273,0.966,-0.11
41.98,-0.029,0.987,0.09
41.99,-0.193,0.758,0.121
42.0,-0.224,1.013,0.007
42.01,-0.35,0.956,-0.229
42.02,-0.187,1.173,0.062
42.03,-0.025,0.77,0.169
42.04,-0.217,1.01,0.08
42.05,-0.406,0.859,-0.166
42.06,-0.086,1.125,-0.098
42.07,-0.153,0.939,0.058
42.08,-0.193,0.75,0.219
42.09,-0.264,1.144,-0.08
42.1,-0.419,0.787,-0.169
42.11,-0.094,1.219,0.09
42.12,0.0,0.8,0.09
42.13,-0.261,0.968,0.026
42.14,-0.405,0.947,-0.135
42.15,-0.204,1.092,-0.033
42.16,-0.166,0.959,0.11
42.17,-0.059,0.773,0.167
42.18,-0.462,1.155,-0.164
42.19,-0.282,0.821,-0.046
42.2,-0.083,1.313,0.066
42.21,-0.138,0.587,0.126
42.22,-0.159,1.029,0.042
42.23,-0.453,1.078,-0.266
42.24,-0.163,0.858,0.012
42.25,-0.079,1.216,0.185
42.26,-0.141,0.592,0.028
42.27,-0.466,1.186,-0.108
42.28,-0.061,0.998,-0.057
42.29,-0.154,1.129,0.026
42.3,-0.171,0.691,0.21
42.31,-0.177,0.999,-0.14
42.32,-0.374,1.051,-0.261
42.33,-0.136,0.878,0.148
42.34,-0.09,1.13,0.084
42.35,-0.161,0.604,0.041
42.36,-0.464,1.302,-0.173
42.37,-0.157,0.92,-0.08
42.38,-0.181,1.018,0.13
42.39,-0.118,0.853,0.202
42.4,-0.324,0.916,-0.154
42.41,-0.288,1.066,-0.148
42.42,-0.07,0.971,0.125
42.43,-0.2,1.073,0.16
42.44,-0.303,0.639,0.049
42.45,-0.357,1.337,-0.211
42.46,-0.13,0.861,-0.037
42.47,-0.274,1.049,0.19
42.48,0.002,0.854,0.118
42.49,-0.422,0.878,-0.222
42.5,-0.172,1.24,-0.056
42.51,-0.004,0.893,0.061
42.52,-0.219,0.996,0.151
42.53,-0.189,0.75,-0.002
42.54,-0.446,1.286,-0.234
42.55,-0.183,0.891,0.076
42.56,-0.138,1.045,0.148
42.57,-0.156,0.821,0.041
42.58,-0.405,0.914,-0.117
42.59,-0.106,1.341,-0.059
42.6,-0.084,0.738,0.079
42.61,-0.194,0.992,0.216
42.62,-0.245,0.81,-0.085
42.63,-0.382,1.136,-0.175
42.64,-0.125,1.003,0.061
42.65,-0.107,0.916,0.159
42.66,-0.27,0.925,0.011
42.67,-0.405,0.93,-0.119
42.68,-0.142,1.288,-0.076
42.69,-0.167,0.65,0.096
42.7,-0.085,1.063,0.202
42.71,-0.36,0.851,-0.171
42.72,-0.316,0.977,-0.136
42.73,-0.029,1.096,0.034
42.74,-0.141,0.751,0.085
42.75,-0.26,1.015,0.03
42.76,-0.278,0.948,-0.214
42.77,-0.136,1.187,-0.025
42.78,-0.167,0.783,0.154
42.79,-0.139,1.047,0.06
42.8,-0.356,0.762,-0.216
42.81,-0.138,1.262,-0.015
42.82,-0.144,0.88,0.071
42.83,-0.193,0.764,0.192
42.84,-0.247,1.069,-0.054
42.85,-0.323,0.91,-0.19
42.86,-0.159,1.208,0.091
42.87,-0.089,0.73,0.116
42.88,-0.206,1.002,0.015
42.89,-0.292,1.0,-0.15
42.9,-0.198,1.134,-0.115
42.91,-0.19,0.836,0.128
42.92,-0.07,0.842,0.174
42.93,-0.397,1.068,-0.145
42.94,-0.281,0.771,-0.145
42.95,-0.134,1.306,0.113
42.96,-0.11,0.66,0.13
42.97,-0.304,1.003,0.047
42.98,-0.31,1.062,-0.198
42.99,-0.093,0.995,-0.083
43.0,-0.205,0.966,0.171
43.01,-0.085,0.788,0.127
43.02,-0.414,1.133,-0.138
43.03,-0.276,0.819,-0.027
43.04,-0.088,1.321,0.024
43.05,-0.083,0.631,0.108
43.06,-0.304,0.985,0.067
43.07,-0.351,1.052,-0.274
43.08,-0.076,0.935,-0.017
43.09,-0.138,1.102,0.176
43.1,-0.12,0.687,0.076
43.11,-0.444,1.169,-0.147
43.12,-0.186,0.892,-0.028
43.13,-0.106,1.212,0.041
43.14,-0.095,0.678,0.12
43.15,-0.303,1.013,-0.015
43.16,-0.328,1.019,-0.297
43.17,-0.088,0.872,0.034
43.18,-0.092,1.18,0.161
43.19,-0.125,0.622,0.003
43.2,-0.421,1.212,-0.191
43.21,-0.002,0.936,-0.108
43.22,-0.182,1.072,0.11
43.23,-0.151,0.833,0.189
43.24,-0.326,0.967,-0.138
43.25,-0.292,1.028,-0.2
43.26,-0.021,1.004,0.11
43.27,-0.191,1.086,0.135
43.28,-0.127,0.61,-0.003
43.29,-0.406,1.379,-0.172
43.3,-0.118,0.838,0.237
43.31,-0.067,0.885,0.065
43.32,-0.461,1.055,-0.208
43.33,-0.155,0.941,-0.02
43.34,-0.107,1.279,0.059
43.35,-0.206,0.581,0.118
43.36,-0.175,1.117,-0.027
43.37,-0.331,0.937,-0.269
43.38,-0.129,1.062,0.007
43.39,-0.073,0.983,0.132
43.4,-0.181,0.777,0.048
43.41,-0.414,1.136,-0.152
43.42,-0.019,0.968,-0.099
43.43,-0.218,1.14,0.092
43.44,-0.135,0.659,0.212
43.45,-0.305,1.125,-0.107
43.46,-0.344,0.818,-0.233
43.47,-0.071,1.116,0.15
43.48,-0.18,1.003,0.109
43.49,-0.187,0.667,-0.002
43.5,-0.364,1.275,-0.196
43.51,-0.105,0.858,-0.05
43.52,-0.237,1.174,0.144
43.53,-0.011,0.725,0.16
43.54,-0.421,1.045,-0.189
43.55,-0.156,0.937,-0.038
43.56,-0.093,1.199,0.059
43.57,-0.15,0.729,0.15
43.58,-0.272,0.913,0.005
43.59,-0.309,1.19,-0.298
43.6,-0.114,0.817,-0.004
43.61,-0.129,1.205,0.142
43.62,-0.08,0.616,0.046
43.63,-0.515,1.184,-0.147
43.64,-0.115,0.972,-0.071
43.65,-0.11,1.073,0.045
43.66,-0.125,0.799,0.157
43.67,-0.275,0.905,-0.077
43.68,-0.333,1.186,-0.197
43.69,-0.079,0.865,0.085
43.7,-0.135,1.229,0.125
43.71,-0.149,0.587,0.021
43.72,-0.425,1.189,-0.162
43.73,-0.094,1.027,-0.113
43.74,-0.139,0.9,0.062
43.75,-0.096,0.967,0.188
43.76,-0.348,0.823,-0.155
43.77,-0.341,1.158,-0.148
43.78,0.057,0.948,0.089
43.79,-0.233,1.045,0.13
43.8,-0.197,0.696,0.018
43.81,-0.376,1.281,-0.212
43.82,-0.141,0.926,-0.069
43.83,-0.1,0.948,0.204
43.84,-0.178,1.011,0.125
43.85,-0.36,0.724,-0.17
43.86,-0.222,1.295,-0.088
43.87,-0.019,0.873,0.053
43.88,-0.218,0.926,0.122
43.89,-0.138,0.792,0.006
43.9,-0.442,1.174,-0.213
43.91,-0.165,0.971,-0.001
43.92,-0.043,0.897,0.175
43.93,-0.228,1.031,0.083
43.94,-0.387,0.756,-0.173
43.95,-0.172,1.289,-0.06
43.96,-0.115,0.806,0.102
43.97,-0.191,0.956,0.169
43.98,-0.248,0.87,-0.077
43.99,-0.343,1.002,-0.177
44.0,-0.112,1.113,0.066
44.01,-0.095,0.833,0.14
44.02,-0.194,1.007,0.004
44.03,-0.324,0.839,-0.163
44.04,-0.169,1.259,-0.123
44.05,-0.103,0.766,0.112
44.06,-0.13,0.952,0.202
44.07,-0.369,0.913,-0.146
44.08,-0.215,0.911,-0.152
44.09,-0.129,1.262,0.087
44.1,-0.137,0.682,0.129
44.11,-0.212,1.019,0.069
44.12,-0.371,0.979,-0.122
44.13,-0.216,1.148,-0.024
44.14,-0.187,0.767,0.157
44.15,-0.149,0.919,0.182
44.16,-0.384,0.987,-0.167
44.17,-0.288,0.921,-0.076
44.18,-0.059,1.276,0.064
44.19,-0.126,0.585,0.109
44.2,-0.225,1.098,0.019
44.21,-0.361,0.945,-0.218
44.22,-0.143,1.089,0.011
44.23,-0.094,0.903,0.142
44.24,-0.121,0.817,0.041
44.25,-0.409,1.123,-0.163
44.26,-0.128,0.906,-0.077
44.27,-0.205,1.195,0.099
44.28,-0.095,0.622,0.148
44.29,-0.302,1.127,-0.034
44.3,-0.347,0.849,-0.226
44.31,-0.088,1.043,0.085
44.32,-0.111,0.97,0.109
44.33,-0.108,0.729,0.067
44.34,-0.422,1.247,-0.201
44.35,-0.096,0.887,-0.077
44.36,-0.224,1.081,0.099
44.37,-0.032,0.689,0.168
44.38,-0.496,1.123,-0.136
44.39,-0.249,0.816,-0.114
44.4,-0.038,1.251,0.064
44.41,-0.124,0.723,0.147
44.42,-0.203,0.862,0.04
44.43,-0.368,1.219,-0.243
44.44,-0.12,0.812,-0.005
44.45,-0.185,1.154,0.197
44.46,-0.155,0.656,0.069
44.47,-0.428,1.119,-0.184
44.48,-0.172,0.952,-0.047
44.49,-0.118,1.176,0.073
44.5,-0.135,0.749,0.139
44.51,-0.261,0.878,-0.009
44.52,-0.323,1.208,-0.252
44.53,-0.099,0.808,0.015
44.54,-0.185,1.217,0.232
44.55,-0.188,0.639,0.08
44.56,-0.445,1.138,-0.173
44.57,-0.156,0.993,-0.065
44.58,-0.081,1.013,0.074
44.59,-0.19,0.86,0.199
44.6,-0.32,0.879,-0.058
44.61,-0.293,1.186,-0.187
44.62,-0.118,0.852,0.094
44.63,-0.114,1.125,0.122
44.64,-0.137,0.657,0.014
44.65,-0.538,1.231,-0.174
44.66,-0.059,0.965,-0.081
44.67,-0.146,0.962,0.124
44.68,-0.15,0.939,0.145
44.69,-0.346,0.779,-0.157
44.7,-0.288,1.259,-0.121
44.71,-0.049,0.885,0.091
44.72,-0.112,0.99,0.103
44.73,-0.247,0.718,0.059
44.74,-0.411,1.217,-0.232
44.75,-0.075,0.972,-0.061
44.76,-0.154,0.909,0.171
44.77,-0.156,0.955,0.089
44.78,-0.37,0.802,-0.152
44.79,-0.151,1.305,-0.104
44.8,-0.056,0.767,0.074
44.81,-0.13,0.97,0.114
44.82,-0.303,0.796,-0.036
44.83,-0.324,1.051,-0.167
44.84,-0.098,1.113,0.047
44.85,-0.147,0.833,0.163
44.86,-0.164,0.998,0.036
44.87,-0.324,0.812,-0.179
44.88,-0.167,1.315,-0.057
44.89,-0.101,0.726,0.135
44.9,-0.184,0.955,0.141
44.91,-0.283,0.94,-0.142
44.92,-0.324,0.959,-0.158
44.93,-0.033,1.198,0.094
44.94,-0.156,0.753,0.142
44.95,-0.266,1.044,0.013
44.96,-0.381,0.925,-0.165
44.97,-0.123,1.197,-0.073
44.98,-0.182,0.763,0.153
44.99,-0.045,0.895,0.103
45.0,-0.371,0.998,-0.231
45.01,-0.206,0.952,-0.066
45.02,-0.014,1.222,0.045
45.03,-0.114,0.629,0.154
45.04,-0.314,1.121,0.031
45.05,-0.323,0.915,-0.273
45.06,-0.09,1.114,0.002
45.07,-0.132,0.944,0.199
45.08,-0.174,0.822,0.078
45.09,-0.36,1.1,-0.192
45.1,-0.123,0.995,-0.03
45.11,-0.178,1.119,0.08
45.12,-0.158,0.655,0.155
45.13,-0.299,1.129,-0.119
45.14,-0.258,0.87,-0.184
45.15,-0.134,1.222,0.162
45.16,-0.188,0.827,0.125
45.17,-0.288,0.936,0.056
45.18,-0.348,1.106,-0.237
45.19,-0.084,0.894,-0.048
45.2,-0.206,1.072,0.146
45.21,-0.021,0.72,0.09
45.22,-0.47,1.165,-0.211
45.23,-0.221,0.857,0.006
45.24,-0.063,1.233,0.043
45.25,-0.136,0.687,0.099
45.26,-0.191,0.983,0.008
45.27,-0.387,1.13,-0.243
45.28,-0.142,0.846,0.06
45.29,-0.012,1.217,0.13
45.3,-0.209,0.6,0.034
45.31,-0.491,1.205,-0.108
45.32,-0.096,0.975,-0.035
45.33,-0.212,1.06,0.028
45.34,-0.116,0.855,0.194
45.35,-0.315,0.919,-0.171
45.36,-0.35,1.066,-0.142
45.37,-0.02,0.952,0.12
45.38,-0.146,1.095,0.091
45.39,-0.266,0.653,0.04
45.4,-0.372,1.295,-0.208
45.41,-0.07,0.865,-0.114
45.42,-0.206,1.047,0.19
45.43,-0.065,0.888,0.13
45.44,-0.424,0.859,-0.174
45.45,-0.227,1.186,-0.046
45.46,-0.002,0.951,0.069
45.47,-0.22,0.944,0.101
45.48,-0.266,0.737,0.057
45.49,-0.35,1.319,-0.272
45.5,-0.103,0.83,-0.011
45.51,-0.154,1.024,0.202
45.52,-0.148,0.879,0.041
45.53,-0.433,0.823,-0.182
45.54,-0.097,1.325,-0.023
45.55,-0.137,0.774,0.102
45.56,-0.256,0.995,0.175
45.57,-0.196,0.803,-0.068
45.58,-0.4,1.137,-0.24
45.59,-0.05,0.986,0.097
45.6,-0.081,0.912,0.147
45.61,-0.3,0.912,0.019
45.62,-0.406,0.936,-0.119
45.63,-0.137,1.263,-0.104
45.64,-0.172,0.706,0.129
45.65,-0.103,1.058,0.153
45.66,-0.331,0.833,-0.191
45.67,-0.349,1.024,-0.106
45.68,0.0,1.146,0.049
45.69,-0.181,0.742,0.15
45.7,-0.276,1.042,0.056
45.71,-0.35,0.925,-0.205
45.72,-0.204,1.16,-0.031
45.73,-0.118,0.74,0.167
45.74,-0.102,1.018,0.073
45.75,-0.398,0.876,-0.24
45.76,-0.127,1.029,-0.011
45.77,-0.122,1.143,0.074
45.78,-0.175,0.654,0.133
45.79,-0.216,1.148,-0.015
45.8,-0.36,0.886,-0.22
45.81,-0.168,1.129,0.032
45.82,-0.081,0.907,0.169
45.83,-0.205,0.897,0.049
45.84,-0.381,0.985,-0.148
45.85,-0.077,1.092,-0.076
45.86,-0.144,1.033,0.044
45.87,-0.09,0.681,0.217
45.88,-0.323,1.179,-0.107
45.89,-0.362,0.805,-0.179
45.9,-0.093,1.235,0.118
45.91,-0.11,0.802,0.12
45.92,-0.258,0.842,0.033
45.93,-0.365,1.158,-0.198
45.94,-0.082,0.903,-0.054
45.95,-0.195,1.107,0.122
45.96,-0.055,0.711,0.174
45.97,-0.415,1.141,-0.192
45.98,-0.297,0.818,-0.099
45.99,-0.082,1.303,0.091
46.0,-0.167,0.633,0.142
46.01,-0.223,1.044,0.009
46.02,-0.377,1.052,-0.224
46.03,-0.191,0.884,0.02
46.04,-0.069,1.136,0.159
46.05,-0.131,0.709,0.077
46.06,-0.469,1.17,-0.201
46.07,-0.028,0.877,-0.068
46.08,-0.158,1.195,0.061
46.09,-0.1,0.722,0.211
46.1,-0.302,0.996,-0.096
46.11,-0.346,0.97,-0.185
46.12,-0.132,1.004,0.128
46.13,-0.148,1.141,0.084
46.14,-0.116,0.57,0.005
46.15,-0.436,1.33,-0.136
46.16,-0.152,0.913,-0.02
46.17,-0.26,1.077,0.153
46.18,-0.012,0.785,0.165
46.19,-0.48,0.978,-0.154
46.2,-0.213,1.058,-0.169
46.21,-0.045,0.994,0.085
46.22,-0.18,1.008,0.131
46.23,-0.191,0.657,0.036
46.24,-0.382,1.401,-0.229
46.25,-0.095,0.808,-0.059
46.26,-0.139,1.062,0.199
46.27,-0.134,0.829,0.142
46.28,-0.425,0.89,-0.183
46.29,-0.198,1.227,-0.096
46.3,-0.128,0.912,0.059
46.31,-0.139,0.994,0.106
46.32,-0.129,0.74,-0.016
46.33,-0.446,1.26,-0.223
46.34,-0.107,0.845,0.054
46.35,-0.07,1.099,0.137
46.36,-0.167,0.848,0.072
46.37,-0.465,0.853,-0.134
46.38,-0.036,1.298,-0.089
46.39,-0.167,0.791,0.1
46.4,-0.176,1.007,0.173
46.41,-0.257,0.79,-0.111
46.42,-0.268,1.107,-0.19
46.43,-0.086,1.032,0.117
46.44,-0.094,0.926,0.112
46.45,-0.173,0.87,0.022
46.46,-0.388,1.0,-0.162
46.47,-0.177,1.271,-0.103
46.48,-0.155,0.668,0.111
46.49,-0.114,1.056,0.136
46.5,-0.319,0.829,-0.159
46.51,-0.31,1.062,-0.153
46.52,0.06,1.07,0.081
46.53,-0.108,0.749,0.079
46.54,-0.28,0.982,0.015
46.55,-0.267,0.99,-0.218
46.56,-0.158,1.148,-0.064
46.57,-0.194,0.703,0.169
46.58,-0.025,1.013,0.104
46.59,-0.462,0.875,-0.188
46.6,-0.18,1.012,-0.045
46.61,-0.046,1.171,0.075
46.62,-0.201,0.632,0.113
46.63,-0.233,1.092,0.039
46.64,-0.326,0.973,-0.202
46.65,-0.185,1.187,-0.009
46.66,-0.097,0.779,0.157
46.67,-0.087,0.941,0.067
46.68,-0.449,1.029,-0.196
46.69,-0.07,1.014,-0.039
46.7,-0.156,1.07,0.07
46.71,-0.176,0.691,0.185
46.72,-0.329,1.17,-0.095
46.73,-0.24,0.828,-0.215
46.74,-0.12,1.264,0.065
46.75,-0.028,0.743,0.053
46.76,-0.193,0.887,0.056
46.77,-0.445,1.138,-0.199
46.78,-0.015,0.947,-0.04
46.79,-0.244,1.079,0.118
46.8,-0.063,0.771,0.141
46.81,-0.444,1.123,-0.192
46.82,-0.266,0.825,-0.06
46.83,-0.009,1.339,0.073
46.84,-0.137,0.624,0.101
46.85,-0.282,0.983,0.024
46.86,-0.351,1.058,-0.173
46.87,-0.124,0.98,0.037
46.88,-0.16,0.965,0.146
46.89,-0.055,0.74,0.076
46.9,-0.551,1.213,-0.193
46.91,-0.179,0.837,-0.01
46.92,-0.044,1.279,0.053
46.93,-0.109,0.655,0.119
46.94,-0.303,1.018,-0.036
46.95,-0.279,1.083,-0.205
46.96,-0.176,0.934,0.08
46.97,-0.029,1.054,0.132
46.98,-0.124,0.66,0.003
46.99,-0.557,1.239,-0.087
47.0,-0.138,0.857,0.001
47.01,-0.19,1.117,0.052
47.02,-0.051,0.763,0.133
47.03,-0.35,1.001,-0.17
47.04,-0.325,1.055,-0.101
47.05,0.047,0.975,0.061
47.06,-0.188,1.023,0.135
47.07,-0.197,0.652,0.019
47.08,-0.397,1.353,-0.198
47.09,-0.159,0.8,0.008
47.1,-0.173,1.084,0.189
47.11,-0.072,0.804,0.076
47.12,-0.414,0.944,-0.204
47.13,-0.161,1.219,-0.073
47.14,-0.118,0.794,0.064
47.15,-0.174,0.981,0.194
47.16,-0.202,0.751,-0.07
47.17,-0.411,1.198,-0.174
47.18,-0.074,0.934,0.105
47.19,-0.194,1.059,0.098
47.2,-0.116,0.779,0.042
47.21,-0.382,0.999,-0.175
47.22,-0.153,1.258,-0.069
47.23,-0.102,0.684,0.059
47.24,-0.154,1.063,0.212
47.25,-0.295,0.78,-0.132
47.26,-0.333,1.137,-0.171
47.27,-0.099,0.978,0.109
47.28,-0.107,0.894,0.104
47.29,-0.221,0.896,0.011
47.3,-0.399,1.027,-0.164
47.31,-0.109,1.188,-0.079
47.32,-0.164,0.724,0.159
47.33,-0.2,1.069,0.186
47.34,-0.344,0.812,-0.205
47.35,-0.25,1.082,-0.102
47.36,-0.036,1.05,0.102
47.37,-0.112,0.772,0.104
47.38,-0.315,0.983,-0.012
47.39,-0.279,0.967,-0.177
47.4,-0.141,1.223,0.02
47.41,-0.229,0.677,0.194
47.42,-0.08,1.054,0.085
47.43,-0.362,0.898,-0.227
47.44,-0.238,1.04,0.003
47.45,-0.015,1.037,0.064
47.46,-0.154,0.7,0.135
47.47,-0.342,1.094,-0.037
47.48,-0.266,0.854,-0.185
47.49,-0.159,1.229,0.031
47.5,-0.047,0.751,0.146
47.51,-0.155,0.963,0.02
47.52,-0.464,0.986,-0.183
47.53,-0.082,1.004,-0.049
47.54,-0.152,1.017,0.114
47.55,-0.16,0.7,0.193
47.56,-0.403,1.193,-0.138
47.57,-0.243,0.803,-0.153
47.58,-0.121,1.288,0.126
47.59,-0.101,0.725,0.15
47.6,-0.22,0.927,0.035
47.61,-0.312,0.955,-0.229
47.62,-0.148,1.006,0.008
47.63,-0.165,0.958,0.207
47.64,-0.083,0.779,0.083
47.65,-0.534,1.163,-0.169
47.66,-0.076,0.886,-0.025
47.67,-0.153,1.284,0.087
47.68,-0.179,0.6,0.152
47.69,-0.214,1.093,-0.068
47.7,-0.346,0.958,-0.204
47.71,-0.161,0.998,0.062
47.72,-0.051,1.065,0.097
47.73,-0.186,0.688,0.06
47.74,-0.443,1.247,-0.184
47.75,-0.164,0.888,-0.083
47.76,-0.209,1.071,0.085
47.77,-0.018,0.752,0.163
47.78,-0.439,1.052,-0.172
47.79,-0.283,0.896,-0.18
47.8,-0.002,1.111,0.101
47.81,-0.185,0.984,0.092
47.82,-0.137,0.68,0.027
47.83,-0.401,1.382,-0.184
47.84,-0.22,0.782,-0.024
47.85,-0.215,1.138,0.171
47.86,-0.094,0.784,0.096
47.87,-0.486,0.964,-0.179
47.88,-0.145,1.056,-0.079
47.89,-0.018,1.015,0.076
47.9,-0.273,0.948,0.191
47.91,-0.153,0.714,0.03
47.92,-0.425,1.371,-0.247
47.93,-0.134,0.726,-0.024
47.94,-0.148,1.146,0.202
47.95,-0.167,0.756,0.06
47.96,-0.447,0.968,-0.194
47.97,-0.037,1.211,-0.147
47.98,-0.083,0.833,0.075
47.99,-0.178,1.009,0.214
48.0,-0.235,0.748,-0.07
48.01,-0.334,1.242,-0.268
48.02,-0.102,0.906,0.128
48.03,-0.16,1.006,0.161
48.04,-0.223,0.803,0.038
48.05,-0.335,1.041,-0.148
48.06,-0.324,1.187,-0.028
48.07,-0.058,0.73,0.076
48.08,-0.108,1.13,0.155
48.09,-0.309,0.689,-0.166
48.1,-0.265,1.147,-0.135
48.11,-0.037,1.044,0.073
48.12,-0.196,0.831,0.142
48.13,-0.22,0.925,0.123
48.14,-0.419,1.042,-0.214
48.15,-0.18,1.126,0.011
48.16,-0.172,0.781,0.199
48.17,-0.175,1.065,0.078
48.18,-0.29,0.771,-0.169
48.19,-0.166,1.221,-0.081
48.2,-0.162,0.959,0.069
48.21,-0.117,0.742,0.161
48.22,-0.227,1.042,0.02
48.23,-0.414,0.908,-0.198
48.24,-0.136,1.137,0.038
48.25,-0.124,0.84,0.157
48.26,-0.189,1.022,0.061
48.27,-0.33,0.815,-0.174
48.28,-0.139,1.165,-0.098
48.29,-0.107,0.999,0.073
48.3,-0.141,0.675,0.195
48.31,-0.37,1.124,-0.031
48.32,-0.323,0.84,-0.17
48.33,-0.108,1.215,0.044
48.34,-0.11,0.751,0.124
48.35,-0.171,0.969,0.027
48.36,-0.319,0.949,-0.242
