t,ax,ay,az
0.0,-0.14,0.624,0.111
0.01,-0.269,1.037,-0.0
0.02,-0.353,0.97,-0.201
0.03,-0.16,1.058,-0.007
0.04,-0.162,0.957,0.166
0.05,-0.08,0.771,0.057
0.06,-0.401,1.165,-0.234
0.07,-0.136,0.899,-0.036
0.08,-0.081,1.181,0.102
0.09,-0.151,0.657,0.138
0.1,-0.357,1.068,-0.028
0.11,-0.287,0.872,-0.185
0.12,-0.099,1.17,0.108
0.13,-0.115,0.841,0.163
0.14,-0.236,0.829,-0.001
0.15,-0.44,1.188,-0.148
0.16,-0.065,0.891,-0.036
0.17,-0.165,1.109,0.137
0.18,-0.072,0.688,0.08
0.19,-0.394,1.172,-0.246
0.2,-0.198,0.932,-0.059
0.21,-0.1,1.105,0.106
0.22,-0.141,0.825,0.17
0.23,-0.346,0.825,-0.007
0.24,-0.308,1.211,-0.242
0.25,-0.045,0.836,0.033
0.26,-0.104,1.164,0.136
0.27,-0.167,0.619,0.008
0.28,-0.487,1.205,-0.146
0.29,-0.081,0.983,-0.087
0.3,-0.155,0.934,0.124
0.31,-0.176,0.958,0.168
0.32,-0.346,0.822,-0.149
0.33,-0.345,1.219,-0.128
0.34,0.129,0.907,0.094
0.35,-0.163,1.024,0.077
0.36,-0.207,0.716,0.019
0.37,-0.461,1.189,-0.201
0.38,-0.125,0.989,-0.041
0.39,-0.077,0.893,0.153
0.4,-0.112,0.941,0.003
0.41,-0.455,0.884,-0.122
0.42,-0.17,1.302,-0.08
0.43,-0.038,0.701,0.117
0.44,-0.173,1.007,0.156
0.45,-0.278,0.875,-0.123
0.46,-0.357,1.044,-0.154
0.47,-0.13,1.081,0.093
0.48,-0.079,0.787,0.109
0.49,-0.271,0.996,-0.006
0.5,-0.419,0.896,-0.154
0.51,-0.065,1.268,-0.065
0.52,-0.06,0.725,0.121
0.53,-0.13,0.972,0.149
0.54,-0.384,0.96,-0.215
0.55,-0.247,0.979,-0.069
0.56,-0.047,1.143,0.087
0.57,-0.138,0.654,0.13
0.58,-0.346,1.137,-0.03
0.59,-0.323,0.869,-0.202
0.6,-0.181,1.188,0.075
0.61,-0.096,0.808,0.166
0.62,-0.215,0.904,-0.008
0.63,-0.413,1.065,-0.17
0.64,-0.08,0.96,-0.066
0.65,-0.135,1.065,0.1
0.66,-0.092,0.701,0.144
0.67,-0.436,1.156,-0.167
0.68,-0.069,1.219,0.077
0.69,-0.099,0.607,0.138
0.7,-0.293,1.091,-0.019
0.71,-0.314,0.944,-0.225
0.72,-0.098,1.105,0.016
0.73,-0.146,0.878,0.171
0.74,-0.175,0.808,0.06
0.75,-0.462,1.102,-0.222
0.76,-0.094,0.91,-0.084
0.77,-0.102,1.087,0.099
0.78,-0.178,0.641,0.181
0.79,-0.407,1.137,-0.149
0.8,-0.187,0.857,-0.191
0.81,0.009,1.231,0.06
0.82,-0.167,0.822,0.126
0.83,-0.258,0.81,0.058
0.84,-0.401,1.278,-0.238
0.85,-0.05,0.788,-0.021
0.86,-0.154,1.195,0.183
0.87,-0.142,0.65,0.011
0.88,-0.437,1.214,-0.159
0.89,-0.072,0.968,-0.089
0.9,-0.133,1.067,0.082
0.91,-0.087,0.762,0.216
0.92,-0.404,0.92,-0.149
0.93,-0.374,1.073,-0.121
0.94,0.072,1.001,0.051
0.95,-0.204,1.035,0.072
0.96,-0.199,0.687,0.077
0.97,-0.4,1.333,-0.241
0.98,-0.123,0.795,-0.006
0.99,-0.134,1.1,0.205
1.0,-0.135,0.829,0.033
1.01,-0.414,0.891,-0.13
1.02,-0.159,1.282,-0.032
1.03,-0.124,0.798,0.133
1.04,-0.193,1.001,0.193
1.05,-0.252,0.728,-0.083
1.06,-0.382,1.209,-0.201
1.07,-0.088,0.979,0.137
1.08,-0.074,0.987,0.116
1.09,-0.27,0.854,-0.016
1.1,-0.348,0.952,-0.147
1.11,-0.099,1.222,-0.084
1.12,-0.17,0.657,0.19
1.13,-0.167,1.075,0.123
1.14,-0.37,0.753,-0.225
1.15,-0.243,1.149,-0.064
1.16,0.014,1.035,0.064
1.17,-0.207,0.723,0.1
1.18,-0.26,1.031,-0.019
1.19,-0.327,0.984,-0.226
1.2,-0.14,1.151,0.039
1.21,-0.077,0.768,0.185
1.22,-0.179,1.0,-0.045
1.23,-0.362,0.848,-0.186
1.24,-0.127,1.179,0.028
1.25,-0.199,0.908,0.145
1.26,-0.15,0.761,0.177
1.27,-0.347,1.146,-0.194
1.28,-0.243,0.857,-0.168
1.29,-0.029,1.279,0.14
1.3,-0.149,0.646,0.153
1.31,-0.335,1.017,0.007
1.32,-0.257,1.043,-0.226
1.33,-0.109,0.982,-0.008
1.34,-0.155,0.997,0.211
1.35,-0.092,0.731,0.077
1.36,-0.482,1.179,-0.2
1.37,-0.065,0.917,-0.093
1.38,-0.188,1.149,0.133
1.39,-0.17,0.679,0.199
1.4,-0.359,1.013,-0.125
1.41,-0.264,1.029,-0.16
1.42,-0.085,1.038,0.133
1.43,-0.181,1.009,0.159
1.44,-0.213,0.633,0.002
1.45,-0.42,1.368,-0.172
1.46,-0.118,0.834,0.01
1.47,-0.243,1.094,0.178
1.48,-0.111,0.781,0.06
1.49,-0.407,0.98,-0.221
1.5,-0.132,1.164,-0.044
1.51,-0.075,0.879,0.099
1.52,-0.268,1.0,0.171
1.53,-0.14,0.698,-0.122
1.54,-0.387,1.289,-0.13
1.55,-0.129,0.892,0.139
1.56,-0.103,1.012,0.107
1.57,-0.209,0.783,0.009
1.58,-0.392,1.038,-0.16
1.59,-0.143,1.212,-0.056
1.6,-0.102,0.707,0.119
1.61,-0.131,1.084,0.093
1.62,-0.377,0.759,-0.211
1.63,-0.243,1.216,-0.092
1.64,0.013,0.98,0.09
1.65,-0.13,0.834,0.111
1.66,-0.256,0.921,-0.041
1.67,-0.273,1.039,-0.209
1.68,-0.149,1.134,0.045
1.69,-0.053,0.865,0.18
1.7,-0.271,0.981,-0.027
1.71,-0.343,0.844,-0.172
1.72,-0.188,1.258,-0.019
1.73,-0.056,0.667,0.155
1.74,-0.186,1.097,0.118
1.75,-0.396,0.75,-0.205
1.76,-0.223,1.158,-0.094
1.77,-0.002,1.001,0.108
1.78,-0.196,0.762,0.099
1.79,-0.318,1.002,-0.039
1.8,-0.306,0.965,-0.18
1.81,-0.219,1.215,0.094
1.82,-0.07,0.711,0.144
1.83,-0.229,1.016,-0.078
1.84,-0.343,0.891,-0.148
1.85,-0.149,1.132,0.003
1.86,-0.167,0.913,0.177
1.87,-0.161,0.774,0.11
1.88,-0.425,1.104,-0.178
1.89,-0.25,0.909,-0.042
1.9,-0.019,1.243,0.087
1.91,-0.189,0.613,0.136
1.92,-0.274,1.062,-0.045
1.93,-0.277,1.024,-0.244
1.94,-0.1,1.015,0.12
1.95,-0.171,0.952,0.212
1.96,-0.216,0.722,0.023
1.97,-0.428,1.27,-0.238
1.98,-0.116,0.819,-0.049
1.99,-0.128,1.149,0.121
2.0,-0.138,0.749,0.13
2.01,-0.396,0.99,-0.203
2.02,-0.22,1.043,-0.083
2.03,-0.058,1.085,0.122
2.04,-0.172,0.91,0.129
2.05,-0.2,0.711,-0.008
2.06,-0.448,1.363,-0.204
2.07,-0.156,0.818,0.042
2.08,-0.109,1.159,0.118
2.09,-0.102,0.702,0.002
2.1,-0.46,1.057,-0.144
2.11,-0.076,1.175,-0.057
2.12,-0.135,0.744,0.107
2.13,-0.167,1.042,0.209
2.14,-0.318,0.729,-0.143
2.15,-0.365,1.249,-0.126
2.16,0.033,0.954,0.103
2.17,-0.237,0.946,0.131
2.18,-0.174,0.806,0.054
2.19,-0.392,1.141,-0.235
2.2,-0.088,1.032,-0.09
2.21,-0.003,0.816,0.208
2.22,-0.257,1.032,0.074
2.23,-0.406,0.76,-0.131
2.24,-0.079,1.347,-0.141
2.25,-0.125,0.776,0.09
2.26,-0.15,0.895,0.207
2.27,-0.329,0.981,-0.129
2.28,-0.34,0.893,-0.188
2.29,0.002,1.241,0.142
2.3,-0.169,0.719,0.185
2.31,-0.345,1.052,0.036
2.32,-0.229,0.932,-0.222
2.33,-0.165,1.13,-0.094
2.34,-0.159,0.82,0.25
2.35,-0.116,0.885,0.073
2.36,-0.45,1.058,-0.227
2.37,-0.179,0.893,-0.043
2.38,-0.106,1.23,0.058
2.39,-0.17,0.625,0.158
2.4,-0.286,1.126,-0.063
2.41,-0.313,0.901,-0.227
2.42,-0.105,1.128,0.09
2.43,-0.11,0.947,0.124
2.44,-0.184,0.725,-0.01
2.45,-0.457,1.218,-0.135
2.46,-0.086,0.919,-0.077
2.47,-0.198,1.101,0.083
2.48,-0.119,0.706,0.167
2.49,-0.38,1.111,-0.165
2.5,-0.259,0.834,-0.058
2.51,-0.051,1.22,0.099
2.52,-0.101,0.722,0.112
2.53,-0.348,0.918,0.0
2.54,-0.306,1.132,-0.238
2.55,-0.142,0.865,0.033
2.56,-0.116,1.146,0.172
2.57,-0.128,0.622,0.015
2.58,-0.533,1.202,-0.194
2.59,-0.005,0.939,-0.101
2.6,-0.099,1.061,0.081
2.61,-0.145,0.814,0.141
2.62,-0.322,0.898,-0.171
2.63,-0.278,1.146,-0.124
2.64,0.033,0.915,0.121
2.65,-0.147,1.067,0.111
2.66,-0.273,0.657,-0.036
2.67,-0.293,1.275,-0.196
2.68,-0.111,0.977,0.014
2.69,-0.261,0.952,0.261
2.7,-0.09,0.882,0.052
2.71,-0.423,0.916,-0.221
2.72,-0.132,1.264,-0.013
2.73,-0.035,0.745,0.098
2.74,-0.248,1.05,0.167
2.75,-0.228,0.748,-0.114
2.76,-0.357,1.167,-0.165
2.77,-0.059,1.026,0.175
2.78,-0.137,0.851,0.11
2.79,-0.276,0.936,-0.01
2.8,-0.301,0.975,-0.185
2.81,-0.194,1.216,-0.016
2.82,-0.132,0.698,0.184
2.83,-0.125,1.075,0.079
2.84,-0.413,0.815,-0.199
2.85,-0.18,1.15,-0.073
2.86,-0.01,1.031,0.053
2.87,-0.201,0.713,0.151
2.88,-0.265,1.074,-0.034
2.89,-0.323,0.915,-0.212
2.9,-0.136,1.224,0.071
2.91,-0.091,0.721,0.152
2.92,-0.265,0.95,-0.006
2.93,-0.379,0.955,-0.175
2.94,-0.011,1.124,-0.072
2.95,-0.149,0.931,0.118
2.96,-0.161,0.764,0.185
2.97,-0.424,1.167,-0.153
2.98,-0.314,0.836,-0.118
2.99,0.073,1.209,0.05
3.0,-0.141,0.705,0.115
3.01,-0.373,0.955,0.004
3.02,-0.313,1.077,-0.207
3.03,-0.1,0.93,-0.038
3.04,-0.048,1.037,0.151
3.05,-0.145,0.705,0.048
3.06,-0.571,1.208,-0.166
3.07,0.002,0.862,-0.082
3.08,-0.119,1.129,0.139
3.09,-0.223,0.752,0.221
3.1,-0.38,0.937,-0.132
3.11,-0.293,1.094,-0.183
3.12,0.052,0.967,0.085
3.13,-0.161,1.0,0.117
3.14,-0.27,0.675,0.04
3.15,-0.401,1.351,-0.215
3.16,-0.092,0.826,-0.023
3.17,-0.118,1.089,0.21
3.18,-0.183,0.806,0.072
3.19,-0.47,0.956,-0.168
3.2,-0.134,1.25,-0.114
3.21,-0.056,0.751,0.058
3.22,-0.178,1.045,0.202
3.23,-0.297,0.743,-0.096
3.24,-0.324,1.134,-0.202
3.25,0.124,0.989,0.069
3.26,-0.176,0.952,0.171
3.27,-0.325,0.864,0.03
3.28,-0.333,1.002,-0.196
3.29,-0.118,1.211,-0.076
3.3,-0.167,0.717,0.221
3.31,-0.164,1.045,0.072
3.32,-0.467,0.761,-0.126
3.33,-0.094,1.347,-0.08
3.34,-0.057,0.752,0.08
3.35,-0.211,0.92,0.259
3.36,-0.332,0.905,-0.089
3.37,-0.331,0.972,-0.245
3.38,0.008,1.163,0.087
3.39,-0.078,0.753,0.167
3.4,-0.375,1.024,0.05
3.41,-0.299,0.889,-0.168
3.42,-0.166,1.199,-0.017
3.43,-0.211,0.77,0.202
3.44,-0.059,0.942,0.127
3.45,-0.371,0.971,-0.226
3.46,-0.255,0.976,-0.028
3.47,-0.053,1.181,0.031
3.48,-0.158,0.617,0.131
3.49,-0.284,1.101,-0.008
3.5,-0.345,0.904,-0.223
3.51,-0.166,1.16,0.062
3.52,-0.07,0.865,0.152
3.53,-0.16,0.797,0.037
3.54,-0.471,1.123,-0.153
3.55,-0.041,0.98,-0.073
3.56,-0.219,1.078,0.079
3.57,-0.155,0.656,0.189
3.58,-0.38,1.144,-0.14
3.59,-0.363,0.827,-0.145
3.6,-0.013,1.185,0.131
3.61,-0.114,0.868,0.11
3.62,-0.295,0.755,0.012
3.63,-0.332,1.264,-0.215
3.64,-0.079,0.87,-0.02
3.65,-0.281,1.139,0.217
3.66,0.022,0.699,0.085
3.67,-0.486,1.173,-0.235
3.68,-0.262,0.922,-0.009
3.69,-0.087,1.066,0.135
3.7,-0.227,0.877,0.181
3.71,-0.275,0.803,-0.067
3.72,-0.312,1.233,-0.176
3.73,-0.155,0.858,0.12
3.74,-0.146,1.14,0.135
3.75,-0.172,0.675,-0.025
3.76,-0.454,1.195,-0.18
3.77,-0.082,1.042,-0.052
3.78,-0.183,0.884,0.131
3.79,-0.15,1.001,0.12
3.8,-0.329,0.781,-0.215
3.81,-0.266,1.238,-0.095
3.82,-0.034,0.931,0.082
3.83,-0.186,0.921,0.099
3.84,-0.254,0.794,-0.017
3.85,-0.292,1.187,-0.234
3.86,-0.12,1.025,-0.004
3.87,-0.123,0.819,0.19
3.88,-0.186,0.987,0.062
3.89,-0.421,0.809,-0.182
3.9,-0.149,1.294,-0.064
3.91,-0.107,0.792,0.129
3.92,-0.233,0.956,0.157
3.93,-0.248,0.868,-0.13
3.94,-0.34,1.02,-0.124
3.95,-0.106,1.141,0.147
3.96,-0.079,0.719,0.121
3.97,-0.304,1.057,-0.004
3.98,-0.287,0.918,-0.181
3.99,-0.192,1.185,-0.043
4.0,-0.176,0.719,0.168
4.01,-0.114,0.969,0.099
4.02,-0.425,0.971,-0.183
4.03,-0.223,0.962,-0.024
4.04,-0.127,1.183,0.11
4.05,-0.141,0.602,0.15
4.06,-0.295,1.146,-0.053
4.07,-0.304,0.899,-0.17
4.08,-0.184,1.198,0.082
4.09,-0.071,0.826,0.096
4.1,-0.208,0.844,-0.016
4.11,-0.382,1.17,-0.176
4.12,-0.218,0.922,-0.017
4.13,-0.187,0.956,0.199
4.14,-0.154,0.759,0.118
4.15,-0.426,1.129,-0.207
4.16,-0.255,0.848,-0.057
4.17,-0.136,1.251,0.095
4.18,-0.108,0.643,0.098
4.19,-0.288,0.985,-0.013
4.2,-0.332,1.068,-0.207
4.21,-0.086,0.941,0.047
4.22,-0.161,1.094,0.144
4.23,-0.102,0.627,0.026
4.24,-0.489,1.262,-0.209
4.25,-0.056,0.896,-0.088
4.26,-0.123,1.099,0.104
4.27,-0.254,0.757,0.208
4.28,-0.342,0.942,-0.1
4.29,-0.265,1.1,-0.203
4.3,-0.05,0.947,0.128
4.31,-0.174,1.06,0.164
4.32,-0.274,0.639,-0.005
4.33,-0.379,1.294,-0.218
4.34,-0.031,0.867,0.007
4.35,-0.19,1.103,0.198
4.36,-0.136,0.824,0.054
4.37,-0.394,0.913,-0.173
4.38,-0.206,1.209,-0.049
4.39,-0.064,0.819,0.121
4.4,-0.201,1.029,0.142
4.41,-0.212,0.729,-0.075
4.42,-0.38,1.271,-0.155
4.43,-0.114,0.923,0.074
4.44,-0.106,0.959,0.119
4.45,-0.201,0.873,0.007
4.46,-0.468,0.949,-0.146
4.47,-0.156,1.244,-0.008
4.48,-0.079,0.738,0.145
4.49,-0.237,1.08,0.165
4.5,-0.311,0.755,-0.174
4.51,-0.207,1.175,-0.121
4.52,-0.086,1.041,0.1
4.53,-0.12,0.766,0.128
4.54,-0.297,0.984,-0.011
4.55,-0.371,0.971,-0.192
4.56,-0.081,1.171,-0.017
4.57,-0.112,0.738,0.194
4.58,-0.18,1.016,0.031
4.59,-0.302,0.864,-0.201
4.6,-0.244,1.156,-0.015
4.61,-0.116,0.911,0.123
4.62,-0.178,0.745,0.151
4.63,-0.372,1.091,-0.101
4.64,-0.29,0.83,-0.171
4.65,-0.08,1.221,0.085
4.66,-0.115,0.699,0.169
4.67,-0.191,1.018,-0.009
4.68,-0.396,0.986,-0.213
4.69,-0.11,1.017,-0.045
4.7,-0.105,0.956,0.132
4.71,-0.188,0.71,0.145
4.72,-0.426,1.179,-0.19
4.73,-0.26,0.847,-0.069
4.74,-0.065,1.246,0.088
4.75,-0.143,0.642,0.119
4.76,-0.311,0.994,-0.046
4.77,-0.255,1.077,-0.219
4.78,-0.083,0.928,0.019
4.79,-0.162,1.055,0.176
4.8,-0.124,0.653,0.051
4.81,-0.502,1.224,-0.189
4.82,-0.041,0.908,-0.069
4.83,-0.143,1.098,0.065
4.84,-0.128,0.766,0.204
4.85,-0.391,0.978,-0.131
4.86,-0.296,1.111,-0.148
4.87,-0.017,0.948,0.155
4.88,-0.212,1.004,0.122
4.89,-0.22,0.65,0.008
4.9,-0.354,1.34,-0.239
4.91,-0.102,0.849,-0.058
4.92,-0.145,1.041,0.196
4.93,-0.146,0.82,0.059
4.94,-0.471,0.934,-0.136
4.95,-0.15,1.052,-0.116
4.96,-0.085,0.891,0.114
4.97,-0.22,0.983,0.191
4.98,-0.249,0.738,-0.14
4.99,-0.313,1.262,-0.175
5.0,-0.046,0.892,0.101
5.01,-0.135,1.03,0.132
5.02,-0.249,0.743,-0.011
5.03,-0.367,1.165,-0.178
5.04,-0.143,1.073,0.0
5.05,-0.158,0.821,0.156
5.06,-0.15,1.049,0.057
5.07,-0.354,0.778,-0.156
5.08,-0.235,1.286,-0.086
5.09,-0.003,0.852,0.091
5.1,-0.18,0.939,0.127
5.11,-0.292,0.848,-0.017
5.12,-0.383,1.077,-0.165
5.13,-0.15,1.117,0.053
5.14,-0.113,0.752,0.177
5.15,-0.266,1.034,0.014
5.16,-0.371,0.835,-0.154
5.17,-0.137,1.244,-0.066
5.18,-0.05,0.787,0.112
5.19,-0.133,0.973,0.133
5.2,-0.346,0.943,-0.21
5.21,-0.263,0.985,-0.123
5.22,-0.023,1.23,0.109
5.23,-0.155,0.634,0.124
5.24,-0.32,1.082,0.008
5.25,-0.273,0.925,-0.222
5.26,-0.124,1.153,0.013
5.27,-0.13,0.859,0.19
5.28,-0.139,0.885,0.041
5.29,-0.31,1.07,-0.216
5.3,-0.141,0.939,-0.068
5.31,-0.129,1.104,0.098
5.32,-0.168,0.681,0.213
5.33,-0.388,1.118,-0.099
5.34,-0.273,0.853,-0.197
5.35,-0.03,1.165,0.104
5.36,-0.156,0.869,0.137
5.37,-0.175,0.749,-0.011
5.38,-0.365,1.277,-0.217
5.39,-0.096,0.818,-0.06
5.4,-0.149,1.14,0.177
5.41,-0.121,0.695,0.101
5.42,-0.455,1.126,-0.189
5.43,-0.215,1.007,-0.057
5.44,-0.146,1.045,0.08
5.45,-0.184,0.844,0.171
5.46,-0.194,0.798,-0.043
5.47,-0.421,1.26,-0.246
5.48,-0.057,0.811,0.09
5.49,-0.061,1.229,0.082
5.5,-0.161,0.622,0.018
5.51,-0.426,1.164,-0.131
5.52,-0.179,1.063,-0.106
5.53,-0.146,0.849,0.122
5.54,-0.117,0.994,0.176
5.55,-0.374,0.74,-0.142
5.56,-0.269,1.205,-0.14
5.57,-0.041,0.957,0.101
5.58,-0.189,0.988,0.09
5.59,-0.165,0.733,0.0
5.6,-0.362,1.207,-0.198
5.61,-0.169,1.018,-0.02
5.62,-0.121,0.804,0.197
5.63,-0.124,1.058,0.099
5.64,-0.418,0.76,-0.175
5.65,-0.218,1.292,-0.049
5.66,-0.059,0.873,0.074
5.67,-0.191,0.889,0.141
5.68,-0.223,0.879,-0.02
5.69,-0.378,1.039,-0.216
5.7,-0.169,1.099,0.117
5.71,-0.037,0.828,0.122
5.72,-0.263,1.013,-0.003
5.73,-0.363,0.832,-0.133
5.74,-0.148,1.278,-0.041
5.75,-0.148,0.757,0.144
5.76,-0.149,0.919,0.162
5.77,-0.29,0.793,-0.219
5.78,-0.238,1.132,-0.066
5.79,-0.043,1.062,0.062
5.8,-0.178,0.661,0.15
5.81,-0.242,1.1,0.005
5.82,-0.373,0.901,-0.208
5.83,-0.134,1.16,0.035
5.84,-0.046,0.852,0.153
5.85,-0.176,0.95,-0.016
5.86,-0.388,0.911,-0.19
5.87,-0.07,1.092,-0.073
5.88,-0.172,0.975,0.068
5.89,-0.197,0.692,0.221
5.9,-0.354,1.122,-0.124
5.91,-0.297,0.798,-0.159
5.92,-0.11,1.324,0.151
5.93,-0.117,0.729,0.126
5.94,-0.272,0.906,0.001
5.95,-0.28,1.126,-0.225
5.96,-0.084,0.95,-0.094
5.97,-0.192,1.022,0.185
5.98,-0.071,0.73,0.121
5.99,-0.477,1.134,-0.192
6.0,-0.226,0.877,-0.009
6.01,-0.048,1.246,0.073
6.02,-0.239,0.66,0.091
6.03,-0.192,0.927,-0.047
6.04,-0.349,1.179,-0.254
6.05,-0.096,0.842,0.019
6.06,-0.025,1.172,0.107
6.07,-0.142,0.625,0.002
6.08,-0.518,1.186,-0.12
6.09,-0.041,0.97,-0.107
6.1,-0.208,1.034,0.087
6.11,-0.105,0.83,0.17
6.12,-0.357,0.867,-0.117
6.13,-0.33,1.148,-0.161
6.14,0.044,0.959,0.13
6.15,-0.18,1.053,0.114
6.16,-0.216,0.645,0.052
6.17,-0.395,1.301,-0.251
6.18,-0.076,0.863,-0.03
6.19,-0.171,1.023,0.21
6.2,-0.144,0.87,0.052
6.21,-0.391,0.844,-0.168
6.22,-0.257,1.279,-0.016
6.23,-0.072,0.804,0.091
6.24,-0.231,1.014,0.105
6.25,-0.249,0.732,-0.067
6.26,-0.294,1.193,-0.264
6.27,-0.101,1.017,0.041
6.28,-0.074,0.917,0.148
6.29,-0.19,0.918,0.056
6.3,-0.422,0.911,-0.153
6.31,-0.094,1.322,-0.121
6.32,-0.12,0.677,0.117
6.33,-0.187,1.058,0.21
6.34,-0.37,0.787,-0.144
6.35,-0.245,1.037,-0.154
6.36,0.01,1.159,0.086
6.37,-0.137,0.758,0.092
6.38,-0.287,0.988,-0.005
6.39,-0.25,0.911,-0.194
6.4,-0.136,1.262,0.006
6.41,-0.166,0.687,0.228
6.42,-0.137,0.982,0.067
6.43,-0.412,0.939,-0.174
6.44,-0.231,1.077,-0.054
6.45,-0.077,1.049,0.076
6.46,-0.191,0.655,0.158
6.47,-0.316,1.143,-0.027
6.48,-0.324,0.822,-0.193
6.49,-0.166,1.179,0.05
6.5,-0.047,0.829,0.13
6.51,-0.219,0.874,0.011
6.52,-0.4,1.022,-0.13
6.53,-0.204,1.007,-0.065
6.54,-0.207,1.01,0.08
6.55,-0.035,0.711,0.17
6.56,-0.454,1.167,-0.128
6.57,-0.292,0.782,-0.114
6.58,-0.05,1.342,0.039
6.59,-0.131,0.582,0.12
6.6,-0.22,1.071,0.033
6.61,-0.391,1.037,-0.21
6.62,-0.194,0.958,-0.024
6.63,-0.051,1.066,0.172
6.64,-0.173,0.681,0.096
6.65,-0.5,1.187,-0.126
6.66,-0.105,0.913,-0.074
6.67,-0.148,1.182,0.052
6.68,-0.109,0.639,0.169
6.69,-0.216,1.052,-0.098
6.7,-0.354,0.976,-0.215
6.71,-0.102,0.989,0.061
6.72,-0.064,1.11,0.116
6.73,-0.224,0.609,0.033
6.74,-0.435,1.291,-0.136
6.75,-0.135,0.952,-0.066
6.76,-0.162,1.048,0.051
6.77,-0.014,0.786,0.155
6.78,-0.449,0.962,-0.164
6.79,-0.268,0.986,-0.153
6.8,0.091,1.069,0.036
6.81,-0.187,1.016,0.092
6.82,-0.245,0.659,0.05
6.83,-0.346,1.358,-0.21
6.84,-0.173,0.822,-0.044
6.85,-0.176,1.072,0.19
6.86,-0.135,0.851,0.108
6.87,-0.339,0.86,-0.251
6.88,-0.195,1.203,-0.045
6.89,-0.025,0.918,0.067
6.9,-0.237,0.985,0.143
6.91,-0.167,0.697,0.038
6.92,-0.445,1.334,-0.205
6.93,-0.107,0.838,0.023
6.94,-0.121,1.093,0.152
6.95,-0.147,0.837,0.067
6.96,-0.419,0.878,-0.138
6.97,-0.081,1.31,-0.101
6.98,-0.135,0.742,0.06
6.99,-0.172,1.001,0.181
7.0,-0.233,0.774,-0.083
7.01,-0.391,1.151,-0.177
7.02,-0.139,0.981,0.099
7.03,-0.076,0.989,0.139
7.04,-0.226,0.878,-0.04
7.05,-0.335,0.88,-0.152
7.06,-0.099,1.298,-0.131
7.07,-0.114,0.668,0.092
7.08,-0.132,1.064,0.191
7.09,-0.336,0.815,-0.142
7.1,-0.32,1.021,-0.128
7.11,-0.044,1.135,0.113
7.12,-0.158,0.786,0.154
7.13,-0.32,0.969,0.06
7.14,-0.272,0.959,-0.168
7.15,-0.175,1.23,-0.062
7.16,-0.164,0.709,0.183
7.17,-0.127,1.038,0.158
7.18,-0.403,0.872,-0.199
7.19,-0.181,1.045,-0.044
7.2,-0.072,1.173,0.042
7.21,-0.153,0.65,0.153
7.22,-0.244,1.126,0.001
7.23,-0.321,0.911,-0.202
7.24,-0.224,1.164,0.002
7.25,-0.048,0.82,0.172
7.26,-0.194,0.984,0.071
7.27,-0.384,0.915,-0.202
7.28,-0.149,0.98,-0.01
7.29,-0.08,1.137,0.047
7.3,-0.168,0.633,0.162
7.31,-0.267,1.145,-0.055
7.32,-0.338,0.839,-0.193
7.33,-0.107,1.192,0.047
7.34,-0.116,0.85,0.154
7.35,-0.186,0.838,0.029
7.36,-0.342,1.101,-0.212
7.37,-0.109,0.953,-0.095
7.38,-0.132,1.066,0.092
7.39,-0.163,0.694,0.225
7.4,-0.477,1.11,-0.124
7.41,-0.255,0.731,-0.13
7.42,-0.009,1.366,0.044
7.43,-0.109,0.671,0.1
7.44,-0.324,0.968,0.045
7.45,-0.277,1.073,-0.207
7.46,-0.172,0.965,-0.075
7.47,-0.12,0.979,0.188
7.48,-0.069,0.733,0.119
7.49,-0.473,1.179,-0.209
7.5,-0.147,0.854,-0.05
7.51,-0.143,1.216,0.066
7.52,-0.156,0.702,0.158
7.53,-0.222,0.989,-0.008
7.54,-0.359,1.083,-0.252
7.55,-0.166,0.889,0.059
7.56,-0.055,1.16,0.089
7.57,-0.097,0.623,0.083
7.58,-0.472,1.229,-0.17
7.59,-0.175,0.9,-0.035
7.6,-0.147,1.13,0.055
7.61,-0.128,0.809,0.156
7.62,-0.264,0.908,-0.102
7.63,-0.403,1.115,-0.125
7.64,-0.062,0.88,0.109
7.65,-0.155,1.19,0.153
7.66,-0.175,0.608,0.042
7.67,-0.431,1.244,-0.153
7.68,-0.134,0.974,-0.093
7.69,-0.155,0.912,0.089
7.7,-0.168,0.911,0.193
7.71,-0.324,0.854,-0.191
7.72,-0.276,1.094,-0.176
7.73,0.021,0.968,0.157
7.74,-0.206,1.095,0.123
7.75,-0.126,0.632,-0.013
7.76,-0.366,1.313,-0.173
7.77,-0.18,0.958,-0.025
7.78,-0.148,0.885,0.187
7.79,-0.164,0.946,0.065
7.8,-0.392,0.799,-0.201
7.81,-0.15,1.271,-0.072
7.82,-0.047,0.871,0.115
7.83,-0.235,0.976,0.165
7.84,-0.214,0.782,0.006
7.85,-0.322,1.183,-0.244
7.86,-0.165,1.023,-0.008
7.87,-0.124,0.917,0.166
7.88,-0.158,0.977,0.01
7.89,-0.424,0.841,-0.134
7.9,-0.115,1.32,-0.058
7.91,-0.104,0.744,0.091
7.92,-0.128,0.975,0.152
7.93,-0.31,0.856,-0.087
7.94,-0.35,1.018,-0.169
7.95,-0.105,1.14,0.072
7.96,-0.106,0.866,0.117
7.97,-0.243,0.934,-0.003
7.98,-0.374,0.88,-0.121
7.99,-0.162,1.313,-0.039
8.0,-0.152,0.682,0.148
8.01,-0.066,0.967,0.147
8.02,-0.414,0.945,-0.164
8.03,-0.254,0.927,-0.105
8.04,-0.028,1.204,0.064
8.05,-0.174,0.619,0.152
8.06,-0.298,1.109,0.066
8.07,-0.396,0.908,-0.223
8.08,-0.115,1.094,-0.032
8.09,-0.119,0.839,0.222
8.1,-0.18,0.894,0.104
8.11,-0.398,1.015,-0.207
8.12,-0.136,0.942,-0.06
8.13,-0.104,1.158,0.059
8.14,-0.193,0.645,0.18
8.15,-0.255,1.148,-0.075
8.16,-0.292,0.819,-0.258
8.17,-0.156,1.126,0.129
8.18,-0.059,0.921,0.118
8.19,-0.212,0.808,0.041
8.2,-0.384,1.114,-0.185
8.21,-0.178,1.002,-0.045
8.22,-0.203,1.028,0.129
8.23,-0.066,0.733,0.098
8.24,-0.394,1.128,-0.169
8.25,-0.282,0.857,-0.002
8.26,-0.06,1.306,0.047
8.27,-0.172,0.672,0.131
8.28,-0.212,0.979,0.099
8.29,-0.418,1.156,-0.262
8.3,-0.168,0.841,-0.014
8.31,-0.149,1.173,0.17
8.32,-0.079,0.664,0.022
8.33,-0.478,1.128,-0.168
8.34,-0.072,0.926,-0.018
8.35,-0.121,1.208,0.05
8.36,-0.162,0.68,0.148
8.37,-0.213,0.892,-0.021
8.38,-0.358,1.199,-0.257
8.39,-0.086,0.825,0.034
8.4,-0.122,1.232,0.186
8.41,-0.133,0.579,0.008
8.42,-0.454,1.139,-0.182
8.43,-0.001,1.01,-0.016
8.44,-0.169,0.992,0.078
8.45,-0.161,0.845,0.18
8.46,-0.267,0.882,-0.169
8.47,-0.302,1.137,-0.208
8.48,-0.033,0.945,0.144
8.49,-0.162,1.083,0.1
8.5,-0.248,0.644,0.023
8.51,-0.341,1.261,-0.202
8.52,-0.159,0.901,-0.04
8.53,-0.269,0.903,0.264
8.54,-0.022,0.974,0.077
8.55,-0.476,0.808,-0.162
8.56,-0.264,1.229,-0.066
8.57,0.02,0.924,0.018
8.58,-0.162,0.975,0.098
8.59,-0.156,0.794,-0.006
8.6,-0.419,1.209,-0.204
8.61,-0.172,0.948,0.037
8.62,-0.112,0.998,0.191
8.63,-0.187,0.934,0.033
8.64,-0.378,0.78,-0.172
8.65,-0.101,1.377,-0.064
8.66,-0.111,0.723,0.065
8.67,-0.175,0.967,0.211
8.68,-0.28,0.915,-0.119
8.69,-0.335,0.983,-0.211
8.7,-0.065,1.111,0.131
8.71,-0.111,0.826,0.106
8.72,-0.26,0.981,0.014
8.73,-0.229,0.918,-0.214
8.74,-0.182,1.233,-0.079
8.75,-0.195,0.719,0.228
8.76,-0.108,0.975,0.091
8.77,-0.324,0.874,-0.202
8.78,-0.287,1.042,-0.043
8.79,0.008,1.172,0.019
8.8,-0.18,0.593,0.13
8.81,-0.305,1.138,0.076
8.82,-0.315,0.894,-0.236
8.83,-0.196,1.111,-0.041
8.84,-0.059,0.882,0.197
8.85,-0.202,0.906,0.064
8.86,-0.415,0.999,-0.153
8.87,-0.057,1.011,-0.105
8.88,-0.206,1.13,0.098
8.89,-0.121,0.594,0.171
8.9,-0.3,1.173,-0.061
8.91,-0.312,0.814,-0.188
8.92,-0.219,1.186,0.084
8.93,-0.058,0.93,0.088
8.94,-0.149,0.768,-0.017
8.95,-0.392,1.166,-0.093
8.96,-0.143,0.928,-0.104
8.97,-0.147,1.087,0.071
8.98,-0.019,0.737,0.233
8.99,-0.466,1.13,-0.151
9.0,-0.248,0.783,-0.182
9.01,-0.023,1.225,0.094
9.02,-0.362,1.031,-0.109
9.03,-0.178,1.063,-0.076
9.04,-0.221,0.922,0.157
9.05,-0.099,0.767,0.171
9.06,-0.469,1.122,-0.118
9.07,-0.199,0.792,-0.176
9.08,-0.096,1.34,0.055
9.09,-0.12,0.657,0.138
9.1,-0.266,1.0,0.058
9.11,-0.31,1.051,-0.256
9.12,-0.125,0.942,-0.058
9.13,-0.163,1.055,0.173
9.14,-0.067,0.733,0.101
9.15,-0.44,1.14,-0.164
9.16,-0.272,0.854,-0.005
9.17,-0.073,1.272,0.067
9.18,-0.171,0.679,0.154
9.19,-0.268,1.005,0.07
9.2,-0.412,1.106,-0.274
9.21,-0.114,0.835,-0.017
9.22,-0.178,1.187,0.195
9.23,-0.16,0.629,0.073
9.24,-0.481,1.148,-0.147
9.25,-0.094,0.973,-0.014
9.26,-0.147,1.154,0.114
9.27,-0.231,0.726,0.182
9.28,-0.191,0.93,-0.071
9.29,-0.326,1.14,-0.233
9.3,-0.208,0.869,0.1
9.31,-0.058,1.131,0.125
9.32,-0.071,0.625,-0.011
9.33,-0.495,1.271,-0.14
9.34,-0.173,0.899,-0.03
9.35,-0.198,1.025,0.098
9.36,-0.141,0.91,0.18
9.37,-0.333,0.841,-0.14
9.38,-0.269,1.105,-0.152
9.39,-0.061,0.976,0.114
9.4,-0.215,1.091,0.153
9.41,-0.182,0.651,0.005
9.42,-0.377,1.297,-0.191
9.43,-0.131,0.925,-0.064
9.44,-0.195,0.95,0.177
9.45,-0.205,0.926,0.18
9.46,-0.301,0.816,-0.184
9.47,-0.218,1.21,-0.12
9.48,-0.057,0.921,0.101
9.49,-0.11,1.038,0.133
9.5,-0.211,0.704,0.022
9.51,-0.373,1.21,-0.2
9.52,-0.096,0.966,-0.023
9.53,-0.244,0.909,0.137
9.54,-0.101,0.981,0.068
9.55,-0.302,0.796,-0.231
9.56,-0.241,1.292,-0.089
9.57,-0.016,0.832,0.1
9.58,-0.187,0.955,0.147
9.59,-0.288,0.798,-0.01
9.6,-0.312,1.086,-0.242
9.61,-0.117,1.062,-0.001
9.62,-0.134,0.867,0.173
9.63,-0.148,0.997,0.036
9.64,-0.425,0.822,-0.148
9.65,-0.166,1.274,-0.08
9.66,-0.047,0.812,0.069
9.67,-0.125,0.94,0.174
9.68,-0.295,0.918,-0.095
9.69,-0.28,0.982,-0.134
9.7,-0.172,1.169,0.081
9.71,-0.03,0.765,0.134
9.72,-0.203,1.05,-0.024
9.73,-0.379,0.868,-0.159
9.74,-0.192,1.229,0.009
9.75,-0.128,0.774,0.138
9.76,-0.168,0.911,0.181
9.77,-0.322,0.975,-0.147
9.78,-0.311,1.111,-0.089
9.79,-0.071,1.08,0.06
9.8,-0.125,0.665,0.135
9.81,-0.275,1.059,0.008
9.82,-0.328,0.953,-0.235
9.83,-0.113,1.165,0.001
9.84,-0.152,0.756,0.165
9.85,-0.089,1.007,0.071
9.86,-0.366,0.917,-0.201
9.87,-0.239,0.991,-0.038
9.88,-0.036,1.129,0.039
9.89,-0.099,0.66,0.112
9.9,-0.367,1.128,0.005
9.91,-0.253,0.854,-0.215
9.92,-0.138,1.231,0.056
9.93,-0.104,0.804,0.176
9.94,-0.172,0.896,0.023
9.95,-0.407,1.028,-0.214
9.96,-0.115,0.983,-0.064
9.97,-0.124,1.09,0.098
9.98,-0.165,0.674,0.14
9.99,-0.323,1.156,-0.116
10.0,-0.29,0.841,-0.158
10.01,-0.152,1.179,0.113
10.02,-0.084,0.852,0.107
10.03,-0.213,0.839,-0.007
10.04,-0.422,1.139,-0.17
10.05,-0.11,0.913,-0.042
10.06,-0.148,1.102,0.116
10.07,-0.099,0.683,0.176
10.08,-0.463,1.154,-0.202
10.09,-0.235,0.833,-0.113
10.1,-0.061,1.215,0.091
10.11,-0.107,0.814,0.077
10.12,-0.298,0.791,0.016
10.13,-0.282,1.237,-0.21
10.14,-0.056,0.882,0.018
10.15,-0.239,1.166,0.189
10.16,-0.078,0.67,0.089
10.17,-0.476,1.175,-0.212
10.18,-0.147,0.98,-0.05
10.19,-0.067,1.044,0.095
10.2,-0.193,0.892,0.175
10.21,-0.268,0.804,-0.055
10.22,-0.292,1.251,-0.186
10.23,-0.167,0.851,0.086
10.24,-0.098,1.124,0.137
10.25,-0.125,0.67,-0.02
10.26,-0.457,1.165,-0.182
10.27,-0.078,1.056,-0.078
10.28,-0.177,0.873,0.163
10.29,-0.167,0.967,0.171
10.3,-0.326,0.771,-0.157
10.31,-0.287,1.226,-0.153
10.32,-0.073,0.918,0.136
10.33,-0.126,1.02,0.131
10.34,-0.28,0.727,-0.003
10.35,-0.304,1.153,-0.17
10.36,-0.114,1.072,-0.05
10.37,-0.179,0.791,0.218
10.38,-0.104,1.056,0.07
10.39,-0.357,0.77,-0.217
10.4,-0.259,1.245,-0.018
10.41,-0.046,0.872,0.098
10.42,-0.177,0.956,0.105
10.43,-0.253,0.888,-0.031
10.44,-0.344,1.026,-0.138
10.45,-0.135,1.139,0.017
10.46,-0.025,0.798,0.18
10.47,-0.162,1.037,-0.012
10.48,-0.453,0.807,-0.135
10.49,-0.113,1.236,-0.064
10.5,-0.116,0.834,0.098
10.51,-0.171,0.872,0.154
10.52,-0.345,0.988,-0.158
10.53,-0.271,0.889,-0.166
10.54,-0.044,1.261,0.096
10.55,-0.054,0.66,0.125
10.56,-0.326,1.08,0.028
10.57,-0.315,0.91,-0.195
10.58,-0.132,1.129,-0.024
10.59,-0.159,0.844,0.191
10.6,-0.178,0.938,0.036
10.61,-0.355,0.979,-0.22
10.62,-0.103,1.055,-0.068
10.63,-0.104,1.025,0.09
10.64,-0.187,0.715,0.236
10.65,-0.364,1.153,-0.103
10.66,-0.277,0.801,-0.207
10.67,-0.047,1.279,0.146
10.68,-0.075,0.791,0.121
10.69,-0.266,0.886,0.012
10.7,-0.361,1.123,-0.187
10.71,-0.111,0.929,-0.038
10.72,-0.241,1.071,0.167
10.73,-0.091,0.683,0.126
10.74,-0.416,1.193,-0.221
10.75,-0.191,0.887,-0.022
10.76,-0.156,1.202,0.114
10.77,-0.155,0.709,0.119
10.78,-0.172,0.896,-0.086
10.79,-0.385,1.193,-0.2
10.8,-0.149,0.859,0.046
10.81,-0.127,1.163,0.102
10.82,-0.081,0.611,0.004
10.83,-0.421,1.253,-0.184
10.84,-0.167,0.957,-0.053
10.85,-0.084,1.027,0.117
10.86,-0.159,0.823,0.139
10.87,-0.274,0.858,-0.101
10.88,-0.271,1.206,-0.167
10.89,-0.022,0.879,0.069
10.9,-0.163,1.089,0.145
10.91,-0.209,0.661,0.014
10.92,-0.491,1.252,-0.192
10.93,-0.067,0.936,-0.008
10.94,-0.152,0.982,0.174
10.95,-0.18,0.921,0.095
10.96,-0.333,0.829,-0.197
10.97,-0.22,1.3,-0.135
10.98,0.011,0.805,0.088
10.99,-0.185,1.026,0.151
11.0,-0.34,0.738,-0.053
11.01,-0.28,1.168,-0.206
11.02,-0.107,1.009,0.043
11.03,-0.135,0.862,0.195
11.04,-0.127,0.988,0.011
11.05,-0.397,0.85,-0.166
11.06,-0.18,1.281,-0.02
11.07,-0.063,0.737,0.141
11.08,-0.256,1.001,0.17
11.09,-0.32,0.86,-0.157
11.1,-0.229,1.11,-0.143
11.11,-0.155,1.121,0.102
11.12,-0.099,0.687,0.156
11.13,-0.3,1.074,0.003
11.14,-0.335,0.878,-0.198
11.15,-0.075,1.184,0.006
11.16,-0.122,0.766,0.157
11.17,-0.153,0.996,0.067
11.18,-0.359,0.973,-0.223
11.19,-0.233,0.99,0.01
11.2,-0.121,1.103,0.118
11.21,-0.211,0.661,0.088
11.22,-0.283,1.158,-0.075
11.23,-0.266,0.911,-0.175
11.24,-0.173,1.143,0.145
11.25,-0.084,0.773,0.142
11.26,-0.253,0.864,-0.047
11.27,-0.323,1.097,-0.205
11.28,-0.089,0.948,-0.04
11.29,-0.177,1.059,0.131
11.3,-0.059,0.687,0.143
11.31,-0.493,1.188,-0.202
11.32,-0.213,0.866,-0.012
11.33,-0.073,1.223,0.117
11.34,-0.204,0.784,0.104
11.35,-0.23,0.858,-0.033
11.36,-0.312,1.192,-0.187
11.37,-0.106,0.904,0.089
11.38,-0.13,1.122,0.133
11.39,-0.193,0.655,0.006
11.4,-0.5,1.239,-0.147
11.41,-0.064,0.96,-0.044
11.42,-0.2,1.101,0.171
11.43,-0.081,0.742,0.118
11.44,-0.451,1.013,-0.202
11.45,-0.195,1.063,-0.053
11.46,-0.038,0.941,0.118
11.47,-0.19,0.987,0.126
11.48,-0.204,0.729,-0.064
11.49,-0.429,1.306,-0.159
11.5,-0.171,0.824,0.151
11.51,-0.137,1.097,0.126
11.52,-0.178,0.754,-0.006
11.53,-0.399,1.102,-0.145
11.54,-0.152,1.155,-0.078
11.55,-0.17,0.753,0.163
11.56,-0.104,1.037,0.113
11.57,-0.292,0.733,-0.235
11.58,-0.279,1.261,-0.073
11.59,-0.061,0.93,0.073
11.6,-0.157,0.836,0.102
11.61,-0.273,0.897,0.008
11.62,-0.334,1.012,-0.201
11.63,-0.053,1.156,0.005
11.64,-0.161,0.804,0.179
11.65,-0.167,0.995,0.008
11.66,-0.302,0.815,-0.208
11.67,-0.169,1.259,-0.052
11.68,-0.082,0.831,0.125
11.69,-0.264,0.841,0.157
11.7,-0.317,1.028,-0.095
11.71,-0.274,0.92,-0.189
11.72,0.023,1.261,0.072
11.73,-0.077,0.621,0.132
11.74,-0.416,1.078,0.059
11.75,-0.337,0.908,-0.204
11.76,-0.142,1.116,-0.022
11.77,-0.124,0.902,0.152
11.78,-0.146,0.802,0.102
11.79,-0.417,1.107,-0.225
11.8,-0.086,0.951,-0.091
11.81,-0.137,1.197,0.107
11.82,-0.215,0.608,0.197
11.83,-0.271,1.101,-0.098
11.84,-0.312,0.937,-0.197
11.85,-0.18,1.052,0.129
11.86,-0.092,0.944,0.128
11.87,-0.203,0.732,-0.005
11.88,-0.418,1.28,-0.203
11.89,-0.069,0.844,-0.041
11.9,-0.243,1.175,0.155
11.91,-0.023,0.7,0.134
11.92,-0.417,1.084,-0.179
11.93,-0.21,1.074,-0.092
11.94,-0.049,1.016,0.069
11.95,-0.149,0.911,0.115
11.96,-0.24,0.741,-0.038
11.97,-0.405,1.335,-0.208
11.98,-0.095,0.823,0.038
11.99,-0.176,1.164,0.177
12.0,-0.091,0.695,0.034
12.01,-0.415,1.079,-0.171
12.02,-0.127,1.156,-0.084
12.03,-0.088,0.755,0.087
12.04,-0.193,1.075,0.189
12.05,-0.326,0.708,-0.164
12.06,-0.3,1.198,-0.189
12.07,0.018,0.941,0.109
12.08,-0.144,0.987,0.163
12.09,-0.308,0.774,0.019
12.1,-0.302,1.067,-0.194
12.11,-0.043,1.123,-0.014
12.12,-0.228,0.741,0.219
12.13,-0.139,1.043,0.071
12.14,-0.371,0.805,-0.22
12.15,-0.224,1.292,-0.052
12.16,-0.067,0.879,0.135
12.17,-0.236,0.856,0.167
12.18,-0.245,0.951,-0.05
12.19,-0.269,0.969,-0.227
12.2,-0.109,1.177,0.06
12.21,-0.058,0.705,0.11
12.22,-0.281,1.033,0.014
12.23,-0.361,0.932,-0.18
12.24,-0.112,1.224,-0.093
12.25,-0.123,0.721,0.144
12.26,-0.146,0.997,0.121
12.27,-0.364,0.898,-0.185
12.28,-0.239,0.996,-0.059
12.29,-0.017,1.126,0.089
12.3,-0.139,0.648,0.072
12.31,-0.3,1.122,-0.023
12.32,-0.344,0.88,-0.215
12.33,-0.114,1.187,0.024
12.34,-0.047,0.842,0.152
12.35,-0.196,0.875,0.005
12.36,-0.404,0.985,-0.182
12.37,-0.091,1.039,-0.046
12.38,-0.087,1.057,0.082
12.39,-0.138,0.677,0.2
12.4,-0.391,1.18,-0.156
12.41,-0.267,0.827,-0.154
12.42,-0.0,1.256,0.117
12.43,-0.138,0.771,0.1
12.44,-0.271,0.854,0.018
12.45,-0.312,1.204,-0.203
12.46,-0.057,0.892,-0.006
12.47,-0.198,1.148,0.187
12.48,-0.06,0.641,0.066
12.49,-0.516,1.173,-0.205
12.5,-0.05,0.951,-0.085
12.51,-0.115,1.058,0.116
12.52,-0.241,0.821,0.212
12.53,-0.278,0.863,-0.101
12.54,-0.354,1.193,-0.197
12.55,-0.073,0.888,0.165
12.56,-0.105,1.152,0.079
12.57,-0.21,0.628,-0.006
12.58,-0.4,1.266,-0.158
12.59,-0.091,0.985,-0.047
12.6,-0.186,0.955,0.165
12.61,-0.173,0.959,0.156
12.62,-0.303,0.793,-0.215
12.63,-0.3,1.26,-0.053
12.64,0.028,0.902,0.131
12.65,-0.183,0.976,0.115
12.66,-0.25,0.722,0.012
12.67,-0.337,1.253,-0.239
12.68,-0.058,0.973,-0.04
12.69,-0.08,0.898,0.212
12.7,-0.192,0.96,0.055
12.71,-0.432,0.837,-0.184
12.72,-0.12,1.307,-0.094
12.73,-0.095,0.718,0.102
12.74,-0.164,1.024,0.189
12.75,-0.312,0.826,-0.147
12.76,-0.315,1.058,-0.145
12.77,0.029,1.116,0.059
12.78,-0.182,0.722,0.129
12.79,-0.3,1.031,0.067
12.8,-0.342,0.89,-0.193
12.81,-0.174,1.186,-0.052
12.82,-0.05,0.772,0.198
12.83,-0.175,0.958,0.048
12.84,-0.398,0.929,-0.178
12.85,-0.134,1.055,-0.086
12.86,-0.094,1.069,0.087
12.87,-0.188,0.675,0.193
12.88,-0.248,1.095,-0.074
12.89,-0.315,0.776,-0.221
12.9,-0.099,1.283,0.11
12.91,-0.097,0.814,0.091
12.92,-0.227,0.848,0.017
12.93,-0.28,1.142,-0.178
12.94,-0.196,0.943,-0.057
12.95,-0.139,1.0,0.146
12.96,-0.077,0.724,0.16
12.97,-0.422,1.145,-0.151
12.98,-0.299,0.823,-0.099
12.99,-0.04,1.23,0.089
13.0,-0.118,0.739,0.101
13.01,-0.255,0.877,0.031
13.02,-0.321,1.22,-0.269
13.03,-0.045,0.793,-0.035
13.04,-0.157,1.164,0.213
13.05,-0.185,0.677,0.058
13.06,-0.446,1.208,-0.17
13.07,-0.045,0.938,-0.074
13.08,-0.184,1.112,0.048
13.09,-0.066,0.708,0.227
13.1,-0.36,1.011,-0.118
13.11,-0.379,1.033,-0.18
13.12,0.062,0.998,0.107
13.13,-0.196,1.021,0.122
13.14,-0.29,0.702,0.07
13.15,-0.324,1.338,-0.248
13.16,-0.157,0.821,-0.05
13.17,-0.177,1.082,0.24
13.18,-0.044,0.812,0.079
13.19,-0.477,0.911,-0.172
13.2,-0.23,1.145,-0.046
13.21,-0.037,0.978,0.09
13.22,-0.274,0.981,0.16
13.23,-0.184,0.712,0.008
13.24,-0.372,1.312,-0.239
13.25,-0.198,0.876,0.016
13.26,-0.038,1.062,0.187
13.27,-0.136,0.811,0.007
13.28,-0.416,0.932,-0.145
13.29,-0.05,1.237,-0.113
13.3,-0.134,0.727,0.059
13.31,-0.188,1.073,0.24
13.32,-0.266,0.727,-0.131
13.33,-0.326,1.135,-0.184
13.34,-0.016,1.016,0.118
13.35,-0.204,0.872,0.13
13.36,-0.211,0.898,0.035
13.37,-0.288,1.05,-0.214
13.38,-0.148,1.169,-0.054
13.39,-0.143,0.734,0.167
13.4,-0.147,1.076,0.176
13.41,-0.37,0.75,-0.177
13.42,-0.205,1.122,-0.111
13.43,-0.007,1.077,0.059
13.44,-0.199,0.739,0.149
13.45,-0.26,1.031,0.014
13.46,-0.325,0.942,-0.215
13.47,-0.123,1.164,0.003
13.48,-0.042,0.786,0.178
13.49,-0.143,0.983,0.044
13.5,-0.479,0.887,-0.196
13.51,0.001,1.118,-0.075
13.52,-0.212,1.029,0.106
13.53,-0.241,0.691,0.249
13.54,-0.291,1.153,-0.086
13.55,-0.335,0.794,-0.217
13.56,-0.043,1.248,0.099
13.57,-0.073,0.791,0.125
13.58,-0.316,0.951,0.038
13.59,-0.263,1.047,-0.228
13.6,-0.157,0.997,-0.069
13.61,-0.286,0.989,0.248
13.62,-0.015,0.707,0.139
13.63,-0.535,1.136,-0.179
13.64,-0.212,0.777,-0.053
13.65,-0.052,1.341,0.072
13.66,-0.211,0.659,0.095
13.67,-0.158,0.95,0.034
13.68,-0.354,1.158,-0.234
13.69,-0.233,0.83,0.049
13.7,-0.052,1.168,0.159
13.71,-0.214,0.661,0.094
13.72,-0.538,1.198,-0.125
13.73,-0.08,0.903,-0.086
13.74,-0.135,1.091,0.071
13.75,-0.149,0.794,0.239
13.76,-0.256,0.925,-0.092
13.77,-0.438,1.061,-0.176
13.78,-0.038,0.932,0.143
13.79,-0.143,1.208,0.103
13.8,-0.193,0.606,0.001
13.81,-0.401,1.275,-0.159
13.82,-0.111,0.983,-0.104
13.83,-0.194,0.927,0.139
13.84,-0.149,0.922,0.206
13.85,-0.341,0.879,-0.202
13.86,-0.248,1.009,-0.096
13.87,-0.082,1.176,0.078
13.88,-0.18,0.8,0.07
13.89,-0.188,0.804,-0.038
13.9,-0.353,1.287,-0.241
13.91,-0.188,0.816,0.087
13.92,-0.104,1.164,0.159
13.93,-0.136,0.634,0.052
13.94,-0.511,1.185,-0.12
13.95,-0.064,1.042,-0.085
13.96,-0.184,0.932,0.1
13.97,-0.187,0.946,0.211
13.98,-0.278,0.767,-0.155
13.99,-0.311,1.174,-0.18
14.0,-0.026,0.908,0.111
14.01,-0.155,1.08,0.149
14.02,-0.301,0.702,0.06
14.03,-0.332,1.19,-0.194
14.04,-0.18,1.014,-0.018
14.05,-0.222,0.849,0.205
14.06,-0.17,1.007,0.096
14.07,-0.314,0.729,-0.209
14.08,-0.284,1.302,-0.052
14.09,0.005,0.907,0.066
14.1,-0.154,0.905,0.129
14.11,-0.259,0.834,0.007
14.12,-0.36,1.143,-0.251
14.13,-0.104,1.051,0.001
14.14,-0.09,0.849,0.163
14.15,-0.192,0.978,0.036
14.16,-0.377,0.791,-0.189
14.17,-0.082,1.325,-0.09
14.18,-0.06,0.777,0.105
14.19,-0.205,0.91,0.167
14.2,-0.292,0.94,-0.117
14.21,-0.264,0.943,-0.208
14.22,-0.162,1.229,0.171
14.23,-0.139,0.719,0.146
14.24,-0.255,1.015,-0.046
14.25,-0.415,0.92,-0.121
14.26,-0.134,1.205,-0.013
14.27,-0.209,0.834,0.132
14.28,-0.132,0.915,0.149
14.29,-0.301,0.989,-0.189
14.3,-0.297,0.936,-0.1
14.31,-0.027,1.247,0.067
14.32,-0.054,0.629,0.077
14.33,-0.418,1.089,0.008
14.34,-0.287,0.911,-0.197
14.35,-0.165,1.137,0.017
14.36,-0.091,0.891,0.154
14.37,-0.065,0.843,0.048
14.38,-0.458,1.124,-0.191
14.39,-0.093,0.861,-0.065
14.4,-0.096,1.186,0.06
14.41,-0.102,0.669,0.145
14.42,-0.393,1.118,-0.086
14.43,-0.245,0.912,-0.166
14.44,-0.159,1.144,0.113
14.45,-0.098,0.928,0.123
14.46,-0.177,0.743,0.015
14.47,-0.429,1.261,-0.182
14.48,-0.058,0.817,-0.059
14.49,-0.211,1.151,0.207
14.5,-0.119,0.697,0.124
14.51,-0.409,1.036,-0.193
14.52,-0.209,1.04,-0.071
14.53,-0.115,1.061,0.12
14.54,-0.116,0.901,0.107
14.55,-0.219,0.744,0.006
14.56,-0.406,1.316,-0.214
14.57,-0.074,0.799,-0.008
14.58,-0.174,1.182,0.138
14.59,-0.084,0.721,0.042
14.6,-0.414,1.076,-0.165
14.61,-0.206,1.086,-0.058
14.62,-0.085,0.869,0.099
14.63,-0.128,1.006,0.138
14.64,-0.321,0.716,-0.104
14.65,-0.292,1.258,-0.181
14.66,-0.041,0.885,0.07
14.67,-0.159,0.995,0.124
14.68,-0.184,0.67,-0.025
14.69,-0.39,1.258,-0.203
14.7,-0.102,0.946,-0.027
14.71,-0.2,0.943,0.171
14.72,-0.089,0.939,0.099
14.73,-0.38,0.806,-0.16
14.74,-0.327,1.26,-0.051
14.75,-0.008,0.819,0.087
14.76,-0.135,1.035,0.113
14.77,-0.274,0.758,0.001
14.78,-0.346,1.165,-0.221
14.79,-0.106,1.069,0.042
14.8,-0.139,0.862,0.108
14.81,-0.211,0.964,0.064
14.82,-0.347,0.852,-0.157
14.83,-0.128,1.314,-0.071
14.84,-0.109,0.682,0.103
14.85,-0.171,1.057,0.144
14.86,-0.323,0.832,-0.143
14.87,-0.289,1.005,-0.15
14.88,-0.019,1.212,0.085
14.89,-0.138,0.68,0.111
14.9,-0.229,1.032,0.005
14.91,-0.355,0.906,-0.165
14.92,-0.186,1.153,-0.036
14.93,-0.079,0.751,0.187
14.94,-0.22,0.975,0.064
14.95,-0.365,0.904,-0.195
14.96,-0.211,1.035,-0.075
14.97,-0.082,1.166,0.082
14.98,-0.074,0.574,0.088
14.99,-0.277,1.161,-0.043
15.0,-0.323,0.907,-0.184
15.01,-0.162,1.173,0.092
15.02,-0.128,0.817,0.15
15.03,-0.138,0.844,0.035
15.04,-0.407,1.123,-0.185
15.05,-0.112,0.922,-0.065
15.06,-0.191,1.085,0.12
15.07,-0.062,0.687,0.142
15.08,-0.445,1.139,-0.154
15.09,-0.281,0.867,-0.092
15.1,0.016,1.229,0.061
15.11,-0.177,0.783,0.149
15.12,-0.274,0.847,0.078
15.13,-0.39,1.225,-0.205
15.14,-0.157,0.813,0.029
15.15,-0.178,1.169,0.214
15.16,-0.136,0.659,0.076
15.17,-0.448,1.145,-0.198
15.18,-0.119,0.991,-0.053
15.19,-0.091,1.046,0.114
15.2,-0.138,0.822,0.179
15.21,-0.265,0.811,-0.112
15.22,-0.322,1.223,-0.157
15.23,-0.098,0.905,0.14
15.24,-0.233,1.09,0.144
15.25,-0.138,0.682,-0.012
15.26,-0.419,1.239,-0.178
15.27,-0.185,0.946,-0.016
15.28,-0.202,0.953,0.205
15.29,-0.089,0.959,0.083
15.3,-0.354,0.75,-0.208
15.31,-0.258,1.295,-0.02
15.32,-0.033,0.889,0.065
15.33,-0.219,0.963,0.125
15.34,-0.171,0.777,0.031
15.35,-0.411,1.177,-0.244
15.36,-0.124,1.024,-0.013
15.37,-0.034,0.88,0.15
15.38,-0.186,0.965,0.017
15.39,-0.384,0.828,-0.095
15.4,-0.201,1.337,-0.099
15.41,-0.117,0.728,0.139
15.42,-0.221,1.025,0.182
15.43,-0.291,0.896,-0.132
15.44,-0.323,0.991,-0.147
15.45,-0.072,1.197,0.088
15.46,-0.141,0.723,0.152
15.47,-0.327,1.041,0.046
15.48,-0.299,0.891,-0.227
15.49,-0.123,1.206,-0.076
15.5,-0.09,0.711,0.208
15.51,-0.148,1.042,0.074
15.52,-0.348,0.806,-0.215
15.53,-0.13,1.118,-0.071
15.54,-0.082,1.018,0.093
15.55,-0.198,0.728,0.159
15.56,-0.244,1.091,-0.06
15.57,-0.295,0.858,-0.195
15.58,-0.199,1.218,0.062
15.59,-0.09,0.737,0.138
15.6,-0.202,0.969,0.009
15.61,-0.3,0.965,-0.188
15.62,-0.157,1.056,-0.059
15.63,-0.172,0.958,0.141
15.64,-0.022,0.752,0.152
15.65,-0.377,1.135,-0.171
15.66,-0.311,0.81,-0.086
15.67,-0.03,1.313,0.071
15.68,-0.196,0.68,0.092
15.69,-0.208,0.956,0.09
15.7,-0.374,1.072,-0.242
15.71,-0.135,0.892,0.025
15.72,-0.154,1.135,0.191
15.73,-0.106,0.654,0.062
15.74,-0.455,1.19,-0.158
15.75,-0.088,0.934,-0.078
15.76,-0.115,1.124,0.063
15.77,-0.173,0.718,0.175
15.78,-0.262,0.976,-0.045
15.79,-0.478,1.085,-0.214
15.8,-0.074,0.876,0.054
15.81,-0.022,1.207,0.087
15.82,-0.186,0.615,0.027
15.83,-0.413,1.239,-0.148
15.84,-0.113,0.99,-0.096
15.85,-0.151,0.956,0.117
15.86,-0.082,0.821,0.176
15.87,-0.407,0.941,-0.138
15.88,-0.325,1.13,-0.15
15.89,0.042,0.929,0.045
15.9,-0.17,1.039,0.101
15.91,-0.222,0.686,0.026
15.92,-0.347,1.317,-0.201
15.93,-0.125,0.834,-0.091
15.94,-0.112,0.983,0.187
15.95,-0.085,0.935,0.05
15.96,-0.445,0.798,-0.2
15.97,-0.173,1.254,-0.033
15.98,-0.126,0.857,0.078
15.99,-0.302,0.958,0.18
16.0,-0.098,0.776,-0.095
16.01,-0.42,1.187,-0.19
16.02,-0.15,0.93,0.096
16.03,-0.067,0.971,0.148
16.04,-0.146,0.905,-0.046
16.05,-0.368,0.928,-0.145
16.06,-0.199,1.28,-0.061
16.07,-0.121,0.694,0.102
16.08,-0.178,1.058,0.18
16.09,-0.324,0.819,-0.149
16.1,-0.285,1.027,-0.169
16.11,-0.0,1.155,0.045
16.12,-0.124,0.723,0.089
16.13,-0.289,0.986,0.078
16.14,-0.335,0.931,-0.196
16.15,-0.081,1.189,-0.082
16.16,-0.177,0.739,0.222
16.17,-0.123,0.984,0.105
16.18,-0.361,0.889,-0.222
16.19,-0.186,1.082,-0.02
16.2,-0.132,1.068,0.105
16.21,-0.231,0.648,0.148
16.22,-0.262,1.129,-0.022
16.23,-0.339,0.88,-0.189
16.24,-0.101,1.171,0.038
16.25,-0.07,0.817,0.116
16.26,-0.128,0.929,0.01
16.27,-0.437,1.042,-0.196
16.28,-0.107,0.981,-0.087
16.29,-0.189,1.07,0.133
16.3,-0.175,0.676,0.2
16.31,-0.407,1.052,-0.158
16.32,-0.262,0.843,-0.079
16.33,-0.051,1.336,0.051
16.34,-0.158,0.623,0.137
16.35,-0.281,0.999,0.021
16.36,-0.264,1.037,-0.263
16.37,-0.127,1.026,-0.031
16.38,-0.224,1.004,0.196
16.39,-0.105,0.714,0.107
16.4,-0.556,1.19,-0.181
16.41,-0.116,0.861,-0.051
16.42,-0.082,1.224,0.05
16.43,-0.213,0.663,0.154
16.44,-0.234,1.025,-0.047
16.45,-0.294,1.031,-0.25
16.46,-0.15,0.964,0.117
16.47,-0.085,1.105,0.122
16.48,-0.178,0.615,-0.036
16.49,-0.49,1.242,-0.117
16.5,-0.062,0.881,-0.04
16.51,-0.193,1.089,0.095
16.52,-0.042,0.813,0.16
16.53,-0.373,0.952,-0.158
16.54,-0.292,1.053,-0.14
16.55,-0.006,1.005,0.093
16.56,-0.148,0.992,0.075
16.57,-0.219,0.665,0.037
16.58,-0.381,1.327,-0.227
16.59,-0.144,0.814,-0.026
16.6,-0.187,1.068,0.183
16.61,-0.073,0.837,0.062
16.62,-0.401,0.891,-0.233
16.63,-0.18,1.232,-0.048
16.64,-0.076,0.889,0.122
16.65,-0.271,0.954,0.16
16.66,-0.183,0.735,-0.026
16.67,-0.394,1.319,-0.219
16.68,-0.093,0.864,-0.012
16.69,-0.083,1.006,0.136
16.7,-0.076,0.868,0.035
16.71,-0.448,0.923,-0.179
16.72,-0.109,1.219,-0.067
16.73,-0.072,0.741,0.098
16.74,-0.24,1.057,0.172
16.75,-0.286,0.75,-0.121
16.76,-0.308,1.174,-0.17
16.77,-0.086,1.024,0.083
16.78,-0.107,0.834,0.149
16.79,-0.216,0.942,0.005
16.8,-0.406,0.968,-0.137
16.81,-0.114,1.228,-0.036
16.82,-0.157,0.674,0.136
16.83,-0.158,1.044,0.133
16.84,-0.334,0.847,-0.204
16.85,-0.308,1.078,-0.076
16.86,0.037,1.051,0.072
16.87,-0.114,0.735,0.099
16.88,-0.386,1.029,-0.017
16.89,-0.19,0.905,-0.208
16.9,-0.144,1.217,0.011
16.91,-0.151,0.696,0.226
16.92,-0.141,0.95,0.04
16.93,-0.428,0.958,-0.218
16.94,-0.117,1.044,-0.054
16.95,-0.098,1.029,0.09
16.96,-0.207,0.701,0.161
16.97,-0.28,1.165,-0.11
16.98,-0.256,0.858,-0.187
16.99,-0.149,1.214,0.132
17.0,-0.05,0.72,0.12
17.01,-0.283,0.913,-0.032
17.02,-0.391,1.049,-0.157
17.03,-0.039,0.99,-0.012
17.04,-0.187,1.059,0.11
17.05,-0.114,0.682,0.132
17.06,-0.452,1.226,-0.196
17.07,-0.285,0.823,-0.098
17.08,0.012,1.187,0.113
17.09,-0.144,0.741,0.148
17.1,-0.321,0.884,-0.002
17.11,-0.31,1.147,-0.2
17.12,-0.127,0.927,0.068
17.13,-0.174,1.0,0.182
17.14,-0.165,0.72,0.003
17.15,-0.483,1.267,-0.151
17.16,-0.086,0.915,-0.02
17.17,-0.116,1.113,0.11
17.18,-0.135,0.759,0.139
17.19,-0.425,1.011,-0.157
17.2,-0.244,1.01,-0.142
17.21,-0.055,1.0,0.123
17.22,-0.159,0.965,0.114
17.23,-0.255,0.721,-0.0
17.24,-0.428,1.328,-0.168
17.25,-0.107,0.773,-0.026
17.26,-0.051,1.067,0.146
17.27,-0.113,0.772,0.042
17.28,-0.482,1.062,-0.19
17.29,-0.118,1.122,-0.09
17.3,-0.127,0.856,0.077
17.31,-0.143,1.024,0.152
17.32,-0.324,0.708,-0.117
17.33,-0.266,1.277,-0.134
17.34,-0.075,0.928,0.11
17.35,-0.14,0.912,0.129
17.36,-0.191,1.215,-0.08
17.37,-0.208,0.887,0.151
17.38,-0.113,0.972,0.113
17.39,-0.349,0.732,-0.209
17.4,-0.216,1.311,-0.034
17.41,-0.055,0.93,0.076
17.42,-0.242,0.904,0.134
17.43,-0.146,0.793,-0.002
17.44,-0.414,1.177,-0.242
17.45,-0.056,0.998,0.003
17.46,-0.104,0.866,0.184
17.47,-0.143,1.005,0.052
17.48,-0.426,0.846,-0.168
17.49,-0.148,1.286,-0.059
17.5,-0.092,0.759,0.127
17.51,-0.247,0.945,0.207
17.52,-0.255,0.899,-0.098
17.53,-0.325,0.982,-0.183
17.54,-0.087,1.17,0.145
17.55,-0.04,0.747,0.15
17.56,-0.363,1.051,0.015
17.57,-0.306,0.898,-0.167
17.58,-0.181,1.203,-0.036
17.59,-0.165,0.761,0.188
17.6,-0.126,0.925,0.087
17.61,-0.384,1.016,-0.197
17.62,-0.24,0.899,-0.08
17.63,-0.08,1.206,0.091
17.64,-0.129,0.603,0.126
17.65,-0.32,1.098,-0.009
17.66,-0.288,0.901,-0.201
17.67,-0.119,1.168,0.019
17.68,-0.091,0.887,0.185
17.69,-0.179,0.815,0.03
17.7,-0.481,1.096,-0.178
17.71,-0.074,0.95,-0.059
17.72,-0.146,1.11,0.058
17.73,-0.123,0.665,0.144
17.74,-0.38,1.166,-0.125
17.75,-0.24,0.869,-0.175
17.76,-0.015,1.14,0.061
17.77,-0.169,0.86,0.153
17.78,-0.317,0.806,0.019
17.79,-0.362,1.231,-0.211
17.8,-0.136,0.806,0.037
17.81,-0.21,1.192,0.21
17.82,-0.093,0.678,0.045
17.83,-0.414,1.102,-0.208
17.84,-0.146,1.044,-0.015
17.85,-0.153,1.032,0.098
17.86,-0.208,0.867,0.138
17.87,-0.192,0.816,-0.083
17.88,-0.365,1.311,-0.15
17.89,-0.096,0.898,0.175
17.9,-0.168,1.068,0.162
17.91,-0.268,0.657,-0.012
17.92,-0.357,1.306,-0.216
17.93,-0.09,0.894,-0.03
17.94,-0.155,1.042,0.162
17.95,-0.116,0.848,0.093
17.96,-0.438,0.885,-0.186
17.97,-0.169,1.259,-0.024
17.98,-0.149,0.852,0.118
17.99,-0.22,1.007,0.151
18.0,-0.158,0.735,-0.094
18.01,-0.35,1.23,-0.192
18.02,-0.147,0.944,0.132
18.03,-0.149,0.957,0.138
18.04,-0.233,0.87,-0.007
18.05,-0.438,0.957,-0.133
18.06,-0.067,1.264,-0.108
18.07,-0.146,0.703,0.11
18.08,-0.118,1.05,0.175
18.09,-0.347,0.779,-0.155
18.1,-0.335,1.132,-0.117
18.11,0.031,1.054,0.082
18.12,-0.169,0.746,0.078
18.13,-0.276,1.031,0.057
18.14,-0.326,0.98,-0.216
18.15,-0.11,1.157,-0.03
18.16,-0.145,0.769,0.246
18.17,-0.168,1.012,0.084
18.18,-0.437,0.875,-0.197
18.19,-0.11,1.094,-0.094
18.2,-0.13,1.0,0.069
18.21,-0.17,0.687,0.181
18.22,-0.34,1.101,-0.093
18.23,-0.249,0.856,-0.2
18.24,-0.09,1.251,0.098
18.25,-0.15,0.7,0.178
18.26,-0.263,0.981,0.027
18.27,-0.34,1.082,-0.221
18.28,-0.112,0.893,-0.044
18.29,-0.199,1.052,0.148
18.3,-0.124,0.725,0.12
18.31,-0.426,1.13,-0.205
18.32,-0.191,0.882,-0.118
18.33,-0.085,1.244,0.085
18.34,-0.1,0.68,0.122
18.35,-0.285,0.945,-0.041
18.36,-0.333,1.111,-0.219
18.37,-0.097,0.894,-0.012
18.38,-0.093,1.146,0.153
18.39,-0.128,0.656,0.002
18.4,-0.5,1.179,-0.178
18.41,-0.082,0.934,-0.063
18.42,-0.12,1.076,0.059
18.43,-0.124,0.821,0.163
18.44,-0.294,0.934,-0.151
18.45,-0.291,1.121,-0.158
18.46,-0.046,0.934,0.125
18.47,-0.123,1.094,0.099
18.48,-0.246,0.609,0.004
18.49,-0.381,1.315,-0.184
18.5,-0.145,0.902,-0.013
18.51,-0.181,1.006,0.136
18.52,-0.126,0.902,0.132
18.53,-0.383,0.844,-0.204
18.54,-0.263,1.232,-0.095
18.55,-0.018,0.86,0.11
18.56,-0.156,1.02,0.103
18.57,-0.215,0.708,0.002
18.58,-0.333,1.249,-0.23
18.59,-0.179,0.977,0.063
18.6,-0.116,0.958,0.202
18.61,-0.2,0.904,0.038
18.62,-0.449,0.852,-0.191
18.63,-0.069,1.301,-0.056
18.64,-0.081,0.736,0.11
18.65,-0.245,1.019,0.189
18.66,-0.281,0.794,-0.162
18.67,-0.307,1.082,-0.144
18.68,-0.107,1.067,0.11
18.69,-0.126,0.768,0.154
18.7,-0.343,0.907,0.03
18.71,-0.327,1.009,-0.188
18.72,-0.114,1.141,-0.016
18.73,-0.144,0.75,0.261
18.74,-0.119,1.054,0.013
18.75,-0.354,0.792,-0.265
18.76,-0.085,1.21,-0.076
18.77,-0.114,0.911,0.104
18.78,-0.199,0.82,0.173
18.79,-0.349,1.082,-0.085
18.8,-0.256,0.895,-0.226
18.81,-0.09,1.223,0.09
18.82,-0.103,0.677,0.164
18.83,-0.232,1.052,-0.003
18.84,-0.314,0.928,-0.206
18.85,-0.123,1.092,-0.015
18.86,-0.143,0.921,0.13
18.87,-0.125,0.808,0.094
18.88,-0.404,1.089,-0.198
18.89,-0.202,0.91,-0.078
18.9,-0.102,1.264,0.114
18.91,-0.096,0.608,0.147
18.92,-0.256,1.051,0.006
18.93,-0.383,0.941,-0.197
18.94,-0.069,1.033,0.018
18.95,-0.159,1.061,0.159
18.96,-0.112,0.704,0.019
18.97,-0.398,1.206,-0.197
18.98,-0.148,0.905,-0.036
18.99,-0.149,1.154,0.123
19.0,-0.157,0.71,0.162
19.01,-0.334,1.037,-0.144
19.02,-0.354,1.031,-0.16
19.03,-0.091,0.981,0.078
19.04,-0.042,1.03,0.062
19.05,-0.195,0.686,-0.001
19.06,-0.474,1.316,-0.159
19.07,-0.079,0.86,-0.046
19.08,-0.144,1.062,0.135
19.09,-0.113,0.782,0.142
19.1,-0.432,0.99,-0.192
19.11,-0.26,1.099,-0.11
19.12,0.019,0.91,0.074
19.13,-0.193,1.026,0.108
19.14,-0.229,0.684,-0.009
19.15,-0.289,1.337,-0.239
19.16,-0.071,0.834,0.043
19.17,-0.178,1.064,0.24
19.18,-0.236,0.77,0.061
19.19,-0.429,0.967,-0.19
19.2,-0.071,1.269,-0.103
19.21,-0.054,0.76,0.083
19.22,-0.219,1.059,0.185
19.23,-0.264,0.713,-0.155
19.24,-0.297,1.212,-0.16
19.25,0.055,0.954,0.095
19.26,-0.17,0.876,0.142
19.27,-0.286,0.909,0.022
19.28,-0.347,0.968,-0.212
19.29,-0.139,1.124,-0.03
19.3,-0.051,0.768,0.166
19.31,-0.201,1.059,0.051
19.32,-0.339,0.785,-0.17
19.33,-0.137,1.26,-0.072
19.34,-0.099,0.893,0.089
19.35,-0.118,0.802,0.177
19.36,-0.313,1.056,-0.102
19.37,-0.394,0.839,-0.151
19.38,-0.125,1.295,0.086
19.39,-0.116,0.749,0.147
19.4,-0.333,0.996,0.038
19.41,-0.265,0.914,-0.18
19.42,-0.267,1.113,-0.038
19.43,-0.115,0.851,0.136
19.44,-0.038,0.831,0.125
19.45,-0.449,1.061,-0.207
19.46,-0.181,0.84,-0.121
19.47,-0.001,1.385,0.066
19.48,-0.217,0.603,0.15
19.49,-0.246,1.037,0.088
19.5,-0.402,1.051,-0.252
19.51,-0.1,0.924,0.034
19.52,-0.074,0.959,0.124
19.53,-0.259,0.775,0.046
19.54,-0.346,1.087,-0.187
19.55,-0.077,1.002,-0.109
19.56,-0.157,1.051,0.118
19.57,-0.111,0.724,0.204
19.58,-0.497,1.108,-0.123
19.59,-0.235,0.879,-0.142
19.6,0.012,1.212,0.093
19.61,-0.157,0.812,0.123
19.62,-0.246,0.822,0.022
19.63,-0.373,1.258,-0.207
19.64,-0.164,0.798,0.024
19.65,-0.11,1.173,0.182
19.66,-0.115,0.713,0.066
19.67,-0.501,1.131,-0.152
19.68,-0.118,1.042,-0.031
19.69,-0.159,1.041,0.085
19.7,-0.168,0.89,0.175
19.71,-0.252,0.817,-0.046
19.72,-0.437,1.27,-0.18
19.73,-0.083,0.806,0.073
19.74,-0.091,1.157,0.113
19.75,-0.239,0.644,0.0
19.76,-0.405,1.138,-0.151
19.77,-0.12,1.093,-0.033
19.78,-0.199,0.83,0.138
19.79,-0.089,1.014,0.1
19.8,-0.359,0.77,-0.187
19.81,-0.293,1.292,-0.068
19.82,0.052,0.868,0.082
19.83,-0.187,0.96,0.107
19.84,-0.253,0.8,0.047
19.85,-0.374,1.131,-0.202
19.86,-0.131,1.068,0.012
19.87,-0.057,0.821,0.154
19.88,-0.245,0.979,0.037
19.89,-0.38,0.788,-0.135
19.9,-0.121,1.284,-0.131
19.91,-0.078,0.697,0.084
19.92,-0.112,0.994,0.183
19.93,-0.356,0.931,-0.165
19.94,-0.406,0.973,-0.09
19.95,0.029,1.191,0.082
19.96,-0.072,0.679,0.099
19.97,-0.359,1.076,0.017
19.98,-0.24,0.868,-0.205
19.99,-0.239,1.21,0.017
20.0,-0.134,0.822,0.256
20.01,-0.115,0.885,0.087
20.02,-0.46,1.026,-0.172
20.03,-0.085,0.983,-0.067
20.04,-0.135,1.136,0.078
20.05,-0.185,0.619,0.227
20.06,-0.308,1.162,-0.1
20.07,-0.286,0.844,-0.206
20.08,-0.096,1.182,0.1
20.09,-0.079,0.861,0.128
20.1,-0.283,0.805,0.032
20.11,-0.32,1.2,-0.187
20.12,-0.036,0.878,-0.046
20.13,-0.226,1.158,0.135
20.14,-0.038,0.7,0.106
20.15,-0.459,1.121,-0.221
20.16,-0.108,0.959,-0.092
20.17,-0.115,1.136,0.106
20.18,-0.156,0.783,0.154
20.19,-0.24,0.813,-0.031
20.2,-0.321,1.249,-0.221
20.21,-0.132,0.855,0.044
20.22,-0.165,1.197,0.159
20.23,-0.055,0.652,0.003
20.24,-0.512,1.153,-0.131
20.25,-0.189,1.025,-0.046
20.26,-0.144,0.937,0.095
20.27,-0.167,0.981,0.164
20.28,-0.289,0.723,-0.16
20.29,-0.262,1.236,-0.174
20.3,-0.044,0.923,0.106
20.31,-0.126,0.986,0.113
20.32,-0.238,0.782,0.054
20.33,-0.448,1.17,-0.195
20.34,-0.192,0.828,0.046
20.35,-0.142,1.075,0.213
20.36,-0.093,0.906,0.072
20.37,-0.466,0.913,-0.199
20.38,-0.129,1.242,-0.068
20.39,-0.12,0.805,0.136
20.4,-0.245,1.017,0.187
20.41,-0.258,0.734,-0.126
20.42,-0.286,1.193,-0.206
20.43,-0.034,1.028,0.048
20.44,-0.112,0.859,0.16
20.45,-0.235,0.922,0.038
20.46,-0.354,0.989,-0.179
20.47,-0.131,1.208,-0.073
20.48,-0.132,0.74,0.171
20.49,-0.134,1.052,0.082
20.5,-0.331,0.778,-0.192
20.51,-0.265,1.169,-0.059
20.52,-0.086,1.041,0.107
20.53,-0.239,0.719,0.15
20.54,-0.264,1.043,-0.023
20.55,-0.28,0.893,-0.239
20.56,-0.154,1.225,0.047
20.57,-0.096,0.8,0.171
20.58,-0.097,0.987,0.008
20.59,-0.391,0.946,-0.184
20.6,-0.155,1.096,-0.046
20.61,-0.121,0.972,0.134
20.62,-0.192,0.75,0.165
20.63,-0.343,1.14,-0.108
20.64,-0.292,0.804,-0.198
20.65,-0.086,1.256,0.112
20.66,-0.065,0.715,0.12
20.67,-0.236,0.916,0.012
20.68,-0.398,1.116,-0.149
20.69,-0.136,0.936,-0.028
20.7,-0.212,1.055,0.187
20.71,-0.075,0.701,0.117
20.72,-0.445,1.178,-0.195
20.73,-0.275,0.858,-0.037
20.74,-0.082,1.197,0.08
20.75,-0.138,0.715,0.12
20.76,-0.312,0.931,0.008
20.77,-0.318,1.15,-0.195
20.78,-0.124,0.896,0.041
20.79,-0.147,1.142,0.143
20.8,-0.115,0.621,0.013
20.81,-0.438,1.25,-0.174
20.82,-0.156,0.907,-0.091
20.83,-0.121,1.067,0.094
20.84,-0.075,0.828,0.166
20.85,-0.403,0.863,-0.116
20.86,-0.238,1.161,-0.174
20.87,0.01,0.938,0.034
20.88,-0.174,1.017,0.14
20.89,-0.145,0.692,0.028
20.9,-0.458,1.293,-0.23
20.91,-0.113,0.875,0.006
20.92,-0.172,1.051,0.175
20.93,-0.139,0.884,0.111
20.94,-0.39,0.851,-0.162
20.95,-0.226,1.24,-0.08
20.96,-0.092,0.802,0.12
20.97,-0.112,1.019,0.1
20.98,-0.219,0.774,-0.051
20.99,-0.399,1.186,-0.203
21.0,-0.025,0.988,-0.021
21.01,-0.167,0.943,0.146
21.02,-0.109,0.903,0.03
21.03,-0.405,0.869,-0.203
21.04,-0.191,1.328,-0.04
21.05,-0.051,0.7,0.086
21.06,-0.196,0.986,0.141
21.07,-0.266,0.839,-0.112
21.08,-0.233,1.078,-0.207
21.09,-0.101,1.088,0.151
21.1,-0.148,0.771,0.158
21.11,-0.268,0.998,-0.039
21.12,-0.34,0.897,-0.18
21.13,-0.087,1.212,-0.051
21.14,-0.18,0.757,0.201
21.15,-0.142,1.045,0.09
21.16,-0.442,0.817,-0.166
21.17,-0.072,1.232,-0.124
21.18,-0.062,0.875,0.072
21.19,-0.224,0.823,0.241
21.2,-0.245,1.052,-0.095
21.21,-0.341,0.865,-0.221
21.22,-0.097,1.251,0.079
21.23,-0.12,0.7,0.162
21.24,-0.348,1.019,0.038
21.25,-0.273,0.928,-0.202
21.26,-0.117,1.103,-0.051
21.27,-0.167,0.932,0.169
21.28,-0.102,0.799,0.12
21.29,-0.344,1.081,-0.206
21.3,-0.265,0.872,-0.017
21.31,-0.097,1.287,0.036
21.32,-0.174,0.601,0.184
21.33,-0.247,1.068,0.046
21.34,-0.406,0.991,-0.264
21.35,-0.107,0.903,0.024
21.36,-0.139,1.129,0.213
21.37,-0.198,0.683,0.076
21.38,-0.431,1.119,-0.186
21.39,-0.088,0.943,-0.064
21.4,-0.121,1.229,0.082
21.41,-0.145,0.671,0.135
21.42,-0.268,1.002,-0.047
21.43,-0.386,1.039,-0.194
21.44,-0.125,0.993,0.124
21.45,-0.114,1.138,0.122
21.46,-0.181,0.61,-0.026
21.47,-0.497,1.27,-0.123
21.48,-0.036,0.92,-0.077
21.49,-0.153,1.025,0.099
21.5,-0.129,0.798,0.2
21.51,-0.365,0.99,-0.165
21.52,-0.316,1.05,-0.181
21.53,0.037,1.006,0.101
21.54,-0.164,1.023,0.1
21.55,-0.279,0.67,0.034
21.56,-0.357,1.348,-0.224
21.57,-0.116,0.838,-0.057
21.58,-0.082,1.03,0.175
21.59,-0.017,0.824,0.056
21.6,-0.444,0.912,-0.177
21.61,-0.198,1.225,-0.016
21.62,-0.104,0.847,0.085
21.63,-0.263,1.046,0.151
21.64,-0.175,0.721,-0.059
21.65,-0.439,1.258,-0.208
21.66,-0.139,0.91,0.1
21.67,-0.04,1.011,0.149
21.68,-0.25,0.85,0.016
21.69,-0.366,0.925,-0.141
21.7,-0.11,1.282,-0.102
21.71,-0.135,0.622,0.089
21.72,-0.079,1.131,0.131
21.73,-0.337,0.763,-0.158
21.74,-0.365,1.096,-0.091
21.75,0.041,1.082,0.055
21.76,-0.192,0.742,0.135
21.77,-0.276,0.98,0.051
21.78,-0.316,0.979,-0.216
21.79,-0.144,1.126,-0.071
21.8,0.052,0.76,0.159
21.81,-0.209,1.038,0.101
21.82,-0.429,0.816,-0.172
21.83,-0.098,1.156,-0.053
21.84,-0.17,1.011,0.066
21.85,-0.185,0.667,0.174
21.86,-0.255,1.129,-0.024
21.87,-0.334,0.83,-0.198
21.88,-0.167,1.235,0.117
21.89,-0.068,0.759,0.119
21.9,-0.191,0.929,-0.011
21.91,-0.41,1.004,-0.148
21.92,-0.111,1.023,-0.079
21.93,-0.194,0.994,0.108
21.94,-0.163,0.708,0.206
21.95,-0.374,1.161,-0.126
21.96,-0.334,0.818,-0.124
21.97,-0.068,1.245,0.041
21.98,-0.125,0.609,0.124
21.99,-0.253,1.113,0.067
22.0,-0.319,0.967,-0.259
22.01,-0.155,0.973,0.017
22.02,-0.144,1.014,0.259
22.03,-0.172,0.759,0.063
22.04,-0.49,1.124,-0.165
22.05,-0.065,0.947,-0.039
22.06,-0.23,1.159,0.117
22.07,-0.138,0.578,0.16
22.08,-0.241,1.106,-0.105
22.09,-0.329,0.956,-0.217
22.1,-0.13,1.013,0.133
22.11,-0.121,1.061,0.105
22.12,-0.202,0.652,0.028
22.13,-0.412,1.283,-0.142
22.14,-0.108,0.886,-0.074
22.15,-0.23,1.074,0.118
22.16,-0.059,0.776,0.148
22.17,-0.388,1.03,-0.195
22.18,-0.324,1.004,-0.095
22.19,0.019,1.048,0.083
22.2,-0.196,0.948,0.12
22.21,-0.172,0.681,0.025
22.22,-0.4,1.388,-0.224
22.23,-0.125,0.732,-0.02
22.24,-0.066,1.123,0.163
22.25,-0.17,0.771,0.066
22.26,-0.487,0.945,-0.158
22.27,-0.151,1.177,-0.073
22.28,-0.115,0.875,0.091
22.29,-0.226,0.987,0.182
22.3,-0.203,0.72,-0.091
22.31,-0.402,1.229,-0.172
22.32,-0.075,0.924,0.163
22.33,-0.138,1.082,0.134
22.34,-0.195,0.776,-0.006
22.35,-0.375,1.0,-0.133
22.36,-0.161,1.221,-0.076
22.37,-0.143,0.758,0.091
22.38,-0.179,1.068,0.174
22.39,-0.312,0.706,-0.131
22.4,-0.327,1.19,-0.107
22.41,0.035,1.034,0.071
22.42,-0.19,0.818,0.113
22.43,-0.22,0.915,0.034
22.44,-0.351,1.0,-0.204
22.45,-0.148,1.119,-0.043
22.46,-0.109,0.761,0.234
22.47,-0.204,1.067,0.083
22.48,-0.388,0.777,-0.179
22.49,-0.148,1.189,-0.053
22.5,-0.112,1.009,0.083
22.51,-0.209,0.715,0.157
22.52,-0.178,1.083,-0.056
22.53,-0.359,0.864,-0.227
22.54,-0.196,1.195,0.103
22.55,-0.031,0.783,0.135
22.56,-0.235,0.948,-0.017
22.57,-0.374,0.914,-0.094
22.58,-0.157,1.132,-0.118
22.59,-0.156,0.914,0.085
22.6,-0.096,0.766,0.201
22.61,-0.447,1.147,-0.139
22.62,-0.247,0.698,-0.21
22.63,-0.039,1.369,0.112
22.64,-0.141,0.715,0.155
22.65,-0.235,0.97,0.047
22.66,-0.355,1.049,-0.228
22.67,-0.156,0.949,-0.053
22.68,-0.201,1.041,0.146
22.69,-0.119,0.745,0.136
22.7,-0.463,1.129,-0.174
22.71,-0.18,0.845,-0.053
22.72,-0.088,1.292,0.074
22.73,-0.106,0.666,0.14
22.74,-0.252,0.942,0.013
22.75,-0.405,1.119,-0.202
22.76,-0.133,0.882,-0.04
22.77,-0.028,1.149,0.102
22.78,-0.15,0.734,0.011
22.79,-0.445,1.225,-0.16
22.8,-0.076,0.885,-0.117
22.81,-0.216,1.161,0.097
22.82,-0.086,0.716,0.207
22.83,-0.312,1.032,-0.172
22.84,-0.294,0.912,-0.155
22.85,-0.089,1.133,0.117
22.86,-0.184,0.965,0.095
22.87,-0.154,0.654,0.019
22.88,-0.375,1.411,-0.173
22.89,-0.155,0.863,-0.03
22.9,-0.203,1.085,0.153
22.91,-0.029,0.787,0.122
22.92,-0.484,0.984,-0.185
22.93,-0.273,0.986,-0.074
22.94,-0.027,1.088,0.097
22.95,-0.195,0.95,0.071
22.96,-0.24,0.682,0.027
22.97,-0.388,1.346,-0.231
22.98,-0.112,0.802,-0.046
22.99,-0.075,1.13,0.19
23.0,-0.111,0.769,0.068
23.01,-0.54,0.969,-0.147
23.02,-0.058,1.139,-0.095
23.03,-0.081,0.843,0.066
23.04,-0.263,1.058,0.194
23.05,-0.172,0.733,-0.117
23.06,-0.43,1.218,-0.21
23.07,-0.023,0.945,0.139
23.08,-0.084,1.032,0.081
23.09,-0.314,0.813,0.061
23.1,-0.327,1.035,-0.16
23.11,-0.22,1.168,-0.113
23.12,-0.123,0.683,0.13
23.13,-0.058,1.133,0.107
23.14,-0.36,0.714,-0.167
23.15,-0.347,1.135,-0.094
23.16,0.034,1.028,0.055
23.17,-0.188,0.81,0.155
23.18,-0.279,0.92,0.041
23.19,-0.322,1.003,-0.221
23.2,-0.109,1.152,-0.098
23.21,-0.083,0.728,0.163
23.22,-0.138,1.095,0.066
23.23,-0.401,0.801,-0.166
23.24,-0.236,1.133,-0.044
23.25,0.005,0.999,0.044
23.26,-0.168,0.692,0.113
23.27,-0.271,1.089,0.006
23.28,-0.246,0.9,-0.211
23.29,-0.199,1.18,0.041
23.3,-0.039,0.742,0.18
23.31,-0.179,1.011,0.01
23.32,-0.4,0.892,-0.158
23.33,-0.073,1.127,-0.111
23.34,-0.139,0.934,0.09
23.35,-0.173,0.75,0.23
23.36,-0.362,1.13,-0.148
23.37,-0.252,0.82,-0.172
23.38,-0.06,1.303,0.124
23.39,-0.089,0.684,0.139
23.4,-0.354,0.969,0.027
23.41,-0.293,1.043,-0.238
23.42,-0.112,0.951,-0.073
23.43,-0.146,1.035,0.156
23.44,-0.094,0.698,0.093
23.45,-0.462,1.189,-0.159
23.46,-0.193,0.895,-0.051
23.47,-0.118,1.178,0.034
23.48,-0.088,0.71,0.197
23.49,-0.323,0.951,-0.01
23.5,-0.393,1.051,-0.264
23.51,-0.074,0.888,0.012
23.52,-0.13,1.209,0.144
23.53,-0.09,0.606,0.025
23.54,-0.488,1.246,-0.152
23.55,-0.04,0.937,-0.094
23.56,-0.202,1.065,0.112
23.57,-0.137,0.768,0.217
23.58,-0.297,0.944,-0.114
23.59,-0.319,1.088,-0.178
23.6,0.007,1.106,0.064
23.61,-0.183,0.944,0.094
23.62,-0.213,0.698,0.033
23.63,-0.411,1.376,-0.205
23.64,-0.121,0.717,-0.024
23.65,-0.189,1.125,0.254
23.66,-0.084,0.764,0.043
23.67,-0.426,1.0,-0.194
23.68,-0.204,1.059,-0.027
23.69,-0.039,0.972,0.101
23.7,-0.191,0.954,0.064
23.71,-0.247,0.722,-0.006
23.72,-0.361,1.298,-0.195
23.73,-0.189,0.846,0.071
23.74,-0.063,1.109,0.16
23.75,-0.099,0.752,-0.045
23.76,-0.471,1.021,-0.094
23.77,-0.046,1.197,-0.1
23.78,-0.119,0.773,0.087
23.79,-0.233,1.048,0.205
23.8,-0.265,0.732,-0.154
23.81,-0.329,1.211,-0.15
23.82,-0.072,0.963,0.16
23.83,-0.168,0.923,0.139
23.84,-0.233,0.845,0.038
23.85,-0.34,1.043,-0.207
23.86,-0.071,1.143,-0.037
23.87,-0.142,0.771,0.217
23.88,-0.184,1.046,0.067
23.89,-0.33,0.802,-0.179
23.9,-0.208,1.264,-0.036
23.91,-0.088,0.886,0.069
23.92,-0.143,0.757,0.133
23.93,-0.279,1.027,-0.072
23.94,-0.317,0.896,-0.183
23.95,-0.198,1.216,0.083
23.96,-0.029,0.776,0.139
23.97,-0.196,1.03,-0.036
23.98,-0.394,0.871,-0.172
23.99,-0.182,1.142,-0.065
24.0,-0.119,0.878,0.102
24.01,-0.085,0.812,0.107
24.02,-0.433,1.069,-0.124
24.03,-0.237,0.847,-0.136
24.04,0.026,1.307,0.032
24.05,-0.149,0.607,0.156
24.06,-0.292,1.016,0.067
24.07,-0.324,1.001,-0.214
24.08,-0.099,1.053,-0.018
24.09,-0.2,0.988,0.167
24.1,-0.076,0.695,0.056
24.11,-0.416,1.189,-0.161
24.12,-0.106,0.92,-0.066
24.13,-0.149,1.179,0.089
24.14,-0.191,0.681,0.171
24.15,-0.24,1.009,-0.033
24.16,-0.404,1.006,-0.191
24.17,-0.114,1.008,0.079
24.18,-0.085,1.067,0.127
24.19,-0.229,0.647,0.036
24.2,-0.446,1.253,-0.151
24.21,-0.071,0.888,-0.092
24.22,-0.122,1.065,0.079
24.23,-0.089,0.818,0.188
24.24,-0.379,1.005,-0.172
24.25,-0.326,1.0,-0.132
24.26,0.016,1.023,0.151
24.27,-0.235,1.012,0.098
24.28,-0.245,0.653,-0.007
24.29,-0.329,1.323,-0.205
24.3,-0.1,0.857,-0.03
24.31,-0.234,1.056,0.272
24.32,-0.063,0.808,0.05
24.33,-0.492,0.954,-0.182
24.34,-0.138,1.181,-0.091
24.35,-0.081,0.816,0.104
24.36,-0.248,1.01,0.166
24.37,-0.171,0.764,-0.089
24.38,-0.377,1.241,-0.206
24.39,-0.124,0.889,0.093
24.4,-0.047,1.019,0.141
24.41,-0.225,0.843,0.024
24.42,-0.377,1.153,-0.177
24.43,-0.134,1.0,-0.02
24.44,-0.156,0.898,0.197
24.45,-0.187,1.028,0.091
24.46,-0.329,0.742,-0.222
24.47,-0.215,1.339,-0.048
24.48,-0.114,0.853,0.082
24.49,-0.163,0.899,0.168
24.5,-0.174,0.854,-0.052
24.51,-0.408,1.113,-0.173
24.52,-0.087,1.072,0.011
24.53,-0.089,0.828,0.155
24.54,-0.285,1.012,0.066
24.55,-0.34,0.796,-0.171
24.56,-0.167,1.284,-0.077
24.57,-0.123,0.746,0.129
24.58,-0.178,0.935,0.194
24.59,-0.341,0.937,-0.147
24.6,-0.287,0.905,-0.138
24.61,-0.048,1.274,0.087
24.62,-0.093,0.674,0.069
24.63,-0.292,1.071,0.043
24.64,-0.347,0.937,-0.174
24.65,-0.177,1.157,-0.026
24.66,-0.142,0.797,0.162
24.67,-0.088,0.864,0.073
24.68,-0.44,1.008,-0.177
24.69,-0.163,0.947,-0.035
24.7,-0.116,1.23,0.087
24.71,-0.175,0.577,0.174
24.72,-0.271,1.127,-0.02
24.73,-0.337,0.931,-0.197
24.74,-0.093,1.075,0.016
24.75,-0.022,0.951,0.152
24.76,-0.286,0.793,0.096
24.77,-0.437,1.114,-0.192
24.78,-0.103,0.901,-0.097
24.79,-0.149,1.135,0.081
24.8,-0.102,0.689,0.15
24.81,-0.372,1.086,-0.15
24.82,-0.286,0.926,-0.141
24.83,-0.031,1.153,0.124
24.84,-0.175,0.846,0.125
24.85,-0.203,0.732,0.041
24.86,-0.356,1.331,-0.224
24.87,-0.143,0.777,-0.029
24.88,-0.178,1.157,0.184
24.89,-0.079,0.714,0.081
24.9,-0.431,1.061,-0.199
24.91,-0.093,1.066,-0.114
24.92,-0.079,0.951,0.073
24.93,-0.153,0.884,0.163
24.94,-0.23,0.743,-0.034
24.95,-0.407,1.261,-0.223
24.96,-0.058,0.834,0.069
24.97,-0.136,1.212,0.152
24.98,-0.232,0.663,0.018
24.99,-0.398,1.084,-0.144
25.0,-0.145,1.162,-0.055
25.01,-0.176,0.793,0.129
25.02,-0.167,1.015,0.142
25.03,-0.278,0.744,-0.213
25.04,-0.31,1.219,-0.133
25.05,-0.015,0.924,0.113
25.06,-0.118,0.984,0.085
25.07,-0.233,0.803,-0.004
25.08,-0.319,1.071,-0.19
25.09,-0.126,1.104,-0.052
25.1,-0.091,0.798,0.21
25.11,-0.175,1.039,0.078
25.12,-0.336,0.733,-0.204
25.13,-0.198,1.318,-0.026
25.14,-0.091,0.833,0.095
25.15,-0.208,0.863,0.155
25.16,-0.166,0.973,-0.067
25.17,-0.355,0.966,-0.185
25.18,-0.15,1.138,0.112
25.19,-0.04,0.772,0.117
25.2,-0.22,1.026,-0.016
25.21,-0.353,0.83,-0.124
25.22,-0.189,1.227,-0.068
25.23,-0.156,0.793,0.121
25.24,-0.174,1.003,0.077
25.25,-0.291,0.85,-0.224
25.26,-0.199,1.115,-0.052
25.27,-0.138,1.16,0.124
25.28,-0.206,0.65,0.139
25.29,-0.21,1.1,-0.048
25.3,-0.363,0.874,-0.202
25.31,-0.182,1.203,0.068
25.32,-0.033,0.834,0.137
25.33,-0.214,0.894,0.068
25.34,-0.381,1.032,-0.182
25.35,-0.153,1.028,-0.095
25.36,-0.162,1.033,0.089
25.37,-0.122,0.721,0.188
25.38,-0.382,1.155,-0.108
25.39,-0.271,0.755,-0.166
25.4,-0.054,1.257,0.132
25.41,-0.146,0.814,0.129
25.42,-0.226,0.841,0.032
25.43,-0.35,1.184,-0.171
25.44,-0.21,0.906,-0.053
25.45,-0.183,1.036,0.145
25.46,0.01,0.721,0.1
25.47,-0.532,1.134,-0.165
25.48,-0.25,0.886,-0.011
25.49,-0.086,1.224,0.052
25.5,-0.167,0.735,0.111
25.51,-0.166,0.87,-0.013
25.52,-0.393,1.258,-0.208
25.53,-0.154,0.823,0.004
25.54,-0.051,1.213,0.165
25.55,-0.129,0.64,0.065
25.56,-0.552,1.168,-0.103
25.57,-0.077,1.0,-0.124
25.58,-0.062,1.027,0.024
25.59,-0.19,0.877,0.209
25.6,-0.252,0.826,-0.1
25.61,-0.326,1.19,-0.188
25.62,-0.01,0.883,0.141
25.63,-0.177,1.136,0.115
25.64,-0.188,0.659,0.026
25.65,-0.371,1.243,-0.14
25.66,-0.109,1.027,-0.066
25.67,-0.173,0.916,0.145
25.68,-0.114,0.969,0.128
25.69,-0.379,0.757,-0.165
25.7,-0.102,0.857,0.16
25.71,-0.387,1.032,-0.125
25.72,-0.322,0.895,-0.102
25.73,-0.051,1.303,0.057
25.74,-0.07,0.585,0.106
25.75,-0.291,1.08,0.041
25.76,-0.3,0.941,-0.214
25.77,-0.128,1.041,-0.061
25.78,-0.131,0.947,0.163
25.79,-0.129,0.75,0.076
25.8,-0.46,1.092,-0.179
25.81,-0.081,0.927,-0.101
25.82,-0.096,1.229,0.088
25.83,-0.177,0.601,0.2
25.84,-0.28,1.077,-0.05
25.85,-0.329,0.943,-0.215
25.86,-0.148,1.055,0.1
25.87,-0.088,1.012,0.118
25.88,-0.163,0.71,0.051
25.89,-0.426,1.26,-0.147
25.9,-0.138,0.854,-0.049
25.91,-0.174,1.147,0.119
25.92,-0.079,0.75,0.223
25.93,-0.394,0.989,-0.126
25.94,-0.323,0.991,-0.118
25.95,0.019,1.078,0.052
25.96,-0.183,0.966,0.116
25.97,-0.19,0.677,0.014
25.98,-0.369,1.269,-0.212
25.99,-0.093,0.779,-0.004
26.0,-0.183,1.217,0.153
26.01,-0.103,0.653,0.082
26.02,-0.457,1.141,-0.216
26.03,-0.107,0.972,-0.06
26.04,-0.12,1.013,0.115
26.05,-0.157,0.865,0.185
26.06,-0.282,0.832,-0.063
26.07,-0.342,1.19,-0.189
26.08,-0.109,0.85,0.125
26.09,-0.17,1.188,0.168
26.1,-0.087,0.638,0.001
26.11,-0.454,1.192,-0.18
26.12,-0.171,1.021,-0.023
26.13,-0.138,0.909,0.108
26.14,-0.157,0.98,0.157
26.15,-0.349,0.749,-0.137
26.16,-0.298,1.231,-0.141
26.17,-0.056,0.958,0.07
26.18,-0.082,0.984,0.087
26.19,-0.289,0.729,0.031
26.2,-0.353,1.139,-0.203
26.21,-0.082,1.06,-0.048
26.22,-0.255,0.877,0.189
26.23,-0.121,1.026,0.059
26.24,-0.314,0.741,-0.184
26.25,-0.348,1.33,-0.021
26.26,-0.019,0.851,0.078
26.27,-0.225,0.921,0.145
26.28,-0.212,0.85,-0.034
26.29,-0.373,1.086,-0.18
26.3,-0.173,1.113,0.016
26.31,-0.091,0.793,0.171
26.32,-0.225,1.021,0.077
26.33,-0.334,0.81,-0.174
26.34,-0.122,1.297,-0.091
26.35,-0.118,0.763,0.103
26.36,-0.192,0.907,0.179
26.37,-0.306,1.016,-0.122
26.38,-0.298,0.909,-0.17
26.39,-0.178,1.201,0.105
26.4,-0.067,0.737,0.141
26.41,-0.244,1.061,0.009
26.42,-0.425,0.883,-0.128
26.43,-0.158,1.225,-0.058
26.44,-0.134,0.779,0.098
26.45,-0.186,0.876,0.197
26.46,-0.389,1.053,-0.166
26.47,-0.214,0.833,-0.166
26.48,-0.149,1.285,0.096
26.49,-0.061,0.615,0.113
26.5,-0.281,1.067,-0.02
26.51,-0.336,0.951,-0.194
26.52,-0.06,1.085,-0.046
26.53,-0.19,0.952,0.18
26.54,-0.099,0.792,0.053
26.55,-0.429,1.109,-0.18
26.56,-0.154,0.932,-0.044
26.57,-0.062,1.235,0.034
26.58,-0.12,0.611,0.107
26.59,-0.244,1.095,-0.055
26.6,-0.343,0.952,-0.23
26.61,-0.024,1.015,0.049
26.62,-0.149,0.943,0.124
26.63,-0.196,0.734,0.055
26.64,-0.388,1.266,-0.176
26.65,-0.151,0.844,-0.062
26.66,-0.108,1.152,0.091
26.67,-0.086,0.753,0.159
26.68,-0.379,0.988,-0.15
26.69,-0.25,0.991,-0.151
26.7,-0.067,1.054,0.08
26.71,-0.191,0.957,0.156
26.72,-0.178,0.709,-0.002
26.73,-0.468,1.316,-0.225
26.74,-0.049,0.809,-0.036
26.75,-0.188,1.18,0.168
26.76,-0.145,0.78,0.121
26.77,-0.41,0.951,-0.166
26.78,-0.22,1.126,-0.088
26.79,-0.048,0.947,0.145
26.8,-0.122,0.872,0.14
26.81,-0.337,0.783,-0.017
26.82,-0.388,1.209,-0.197
26.83,-0.008,0.85,0.044
26.84,-0.185,1.199,0.159
26.85,-0.163,0.636,0.042
26.86,-0.417,1.156,-0.164
26.87,-0.132,1.065,-0.071
26.88,-0.087,0.842,0.124
26.89,-0.176,0.97,0.129
26.9,-0.298,0.767,-0.135
26.91,-0.264,1.247,-0.191
26.92,-0.018,0.886,0.098
26.93,-0.214,1.047,0.147
26.94,-0.232,0.727,0.015
26.95,-0.341,1.154,-0.199
26.96,-0.102,1.034,0.008
26.97,-0.199,0.843,0.258
26.98,-0.139,1.009,0.067
26.99,-0.374,0.764,-0.175
27.0,-0.239,1.307,-0.029
27.01,-0.044,0.85,0.102
27.02,-0.22,0.961,0.148
27.03,-0.255,0.836,-0.047
27.04,-0.307,1.057,-0.191
27.05,-0.111,1.111,0.053
27.06,-0.069,0.744,0.141
27.07,-0.211,1.032,0.004
27.08,-0.37,0.844,-0.22
27.09,-0.084,1.263,-0.097
27.1,-0.119,0.762,0.128
27.11,-0.173,0.94,0.164
27.12,-0.275,0.976,-0.145
27.13,-0.353,0.928,-0.129
27.14,-0.062,1.203,0.084
27.15,-0.088,0.646,0.096
27.16,-0.308,1.104,0.008
27.17,-0.277,0.883,-0.178
27.18,-0.259,1.129,-0.036
27.19,-0.085,0.843,0.188
27.2,-0.081,0.886,0.091
27.21,-0.416,1.024,-0.196
27.22,-0.186,0.946,-0.05
27.23,-0.075,1.245,0.071
27.24,-0.2,0.625,0.17
27.25,-0.219,1.103,-0.047
27.26,-0.337,0.935,-0.215
27.27,-0.198,1.064,0.088
27.28,0.027,0.949,0.115
27.29,-0.239,0.745,0.023
27.3,-0.39,1.18,-0.147
27.31,-0.059,0.912,-0.105
27.32,-0.146,1.104,0.115
27.33,-0.113,0.742,0.17
27.34,-0.407,1.045,-0.147
27.35,-0.332,0.89,-0.142
27.36,0.035,1.156,0.062
27.37,-0.102,0.918,0.065
27.38,-0.293,0.714,0.04
27.39,-0.307,1.339,-0.195
27.4,-0.072,0.811,-0.035
27.41,-0.175,1.102,0.244
27.42,-0.101,0.742,0.117
27.43,-0.468,1.059,-0.158
27.44,-0.272,1.05,-0.013
27.45,-0.045,0.942,0.094
27.46,-0.261,0.968,0.155
27.47,-0.2,0.736,-0.026
27.48,-0.358,1.26,-0.217
27.49,-0.147,0.823,0.062
27.5,-0.06,1.17,0.138
27.51,-0.158,0.685,0.04
27.52,-0.454,1.059,-0.163
27.53,-0.058,1.187,-0.081
27.54,-0.198,0.787,0.087
27.55,-0.208,0.998,0.202
27.56,-0.295,0.743,-0.152
27.57,-0.296,1.231,-0.188
27.58,-0.03,0.914,0.127
27.59,-0.152,0.964,0.135
27.6,-0.244,0.81,0.039
27.61,-0.333,1.102,-0.218
27.62,-0.135,0.929,-0.028
27.63,-0.132,0.973,0.17
27.64,-0.134,0.94,0.079
27.65,-0.415,0.787,-0.17
27.66,-0.201,1.324,-0.09
27.67,-0.037,0.756,0.112
27.68,-0.229,1.019,0.167
27.69,-0.276,0.781,-0.051
27.7,-0.282,1.066,-0.202
27.71,-0.131,1.107,0.114
27.72,-0.125,0.799,0.179
27.73,-0.197,0.982,0.004
27.74,-0.38,0.875,-0.191
27.75,-0.195,1.296,-0.031
27.76,-0.076,0.741,0.132
27.77,-0.21,1.025,0.128
27.78,-0.262,0.845,-0.21
27.79,-0.262,0.988,-0.124
27.8,-0.025,1.202,0.084
27.81,-0.105,0.655,0.107
27.82,-0.311,1.05,-0.016
27.83,-0.242,0.914,-0.176
27.84,-0.159,1.177,-0.034
27.85,-0.113,0.768,0.182
27.86,-0.122,0.938,0.074
27.87,-0.421,1.0,-0.197
27.88,-0.156,1.007,-0.028
27.89,-0.076,1.127,0.044
27.9,-0.193,0.598,0.172
27.91,-0.261,1.191,-0.074
27.92,-0.284,0.863,-0.246
27.93,-0.123,1.147,0.104
27.94,-0.046,0.87,0.177
27.95,-0.299,0.829,0.033
27.96,-0.4,1.101,-0.181
27.97,-0.075,0.966,-0.021
27.98,-0.313,1.124,0.191
27.99,-0.068,0.635,0.159
28.0,-0.347,1.148,-0.207
28.01,-0.298,0.935,-0.063
28.02,-0.055,1.174,0.087
28.03,-0.209,0.787,0.146
28.04,-0.294,0.843,0.066
28.05,-0.348,1.23,-0.251
28.06,-0.115,0.81,-0.002
28.07,-0.212,1.223,0.17
28.08,0.004,0.644,0.033
28.09,-0.496,1.167,-0.118
28.1,-0.159,1.022,-0.079
28.11,-0.086,0.98,0.058
28.12,-0.18,0.881,0.181
28.13,-0.321,0.814,-0.098
28.14,-0.329,1.234,-0.173
28.15,-0.171,0.859,0.133
28.16,-0.157,1.101,0.138
28.17,-0.18,0.687,0.016
28.18,-0.429,1.246,-0.22
28.19,-0.118,0.949,-0.056
28.2,-0.104,0.881,0.155
28.21,-0.097,1.01,0.133
28.22,-0.35,0.733,-0.22
28.23,-0.263,1.257,-0.046
28.24,-0.058,0.943,0.116
28.25,-0.211,0.961,0.141
28.26,-0.215,0.792,0.009
28.27,-0.432,1.208,-0.26
28.28,-0.07,1.0,0.005
28.29,-0.105,0.912,0.173
28.3,-0.191,0.982,0.055
28.31,-0.375,0.754,-0.205
28.32,-0.141,1.311,-0.069
28.33,-0.08,0.828,0.097
28.34,-0.195,0.935,0.12
28.35,-0.247,0.885,-0.102
28.36,-0.339,1.054,-0.148
28.37,-0.141,1.173,0.106
28.38,-0.064,0.689,0.106
28.39,-0.285,1.064,0.013
28.4,-0.314,0.902,-0.171
28.41,-0.212,1.196,-0.038
28.42,-0.13,0.754,0.151
28.43,-0.06,0.989,0.089
28.44,-0.377,0.813,-0.228
28.45,-0.229,1.113,-0.02
28.46,-0.053,1.055,0.069
28.47,-0.236,0.672,0.143
28.48,-0.24,1.11,-0.044
28.49,-0.285,0.873,-0.224
28.5,-0.226,1.267,0.104
28.51,-0.083,0.753,0.157
28.52,-0.188,0.973,0.015
28.53,-0.382,0.978,-0.178
28.54,-0.15,1.026,-0.065
28.55,-0.172,0.99,0.116
28.56,-0.081,0.737,0.152
28.57,-0.473,1.123,-0.147
28.58,-0.225,0.842,-0.06
28.59,-0.06,1.31,0.061
28.6,-0.133,0.65,0.137
28.61,-0.223,0.958,0.076
28.62,-0.462,1.049,-0.219
28.63,-0.083,0.918,0.038
28.64,-0.198,1.18,0.143
28.65,-0.116,0.633,0.07
28.66,-0.473,1.225,-0.153
28.67,-0.088,0.973,-0.076
28.68,-0.202,1.14,0.084
28.69,-0.112,0.75,0.134
28.7,-0.295,0.898,-0.046
28.71,-0.45,1.069,-0.19
28.72,-0.054,0.898,0.13
28.73,-0.146,1.195,0.08
28.74,-0.188,0.604,-0.007
28.75,-0.429,1.272,-0.161
28.76,-0.111,0.922,-0.077
28.77,-0.179,0.992,0.113
28.78,-0.121,0.873,0.138
28.79,-0.392,0.893,-0.17
28.8,-0.287,1.192,-0.13
28.81,0.0,0.932,0.123
28.82,-0.209,1.048,0.124
28.83,-0.204,0.64,-0.02
28.84,-0.342,1.271,-0.23
28.85,-0.085,0.929,0.016
28.86,-0.228,0.974,0.246
28.87,-0.115,0.902,0.025
28.88,-0.405,0.848,-0.225
28.89,-0.174,1.295,-0.004
28.9,-0.097,0.852,0.108
28.91,-0.278,0.993,0.159
28.92,-0.211,0.764,-0.095
28.93,-0.35,1.188,-0.2
28.94,-0.111,1.025,0.105
28.95,-0.014,0.895,0.115
28.96,-0.292,0.962,0.041
28.97,-0.372,0.886,-0.189
28.98,-0.123,1.296,-0.082
28.99,-0.146,0.692,0.131
29.0,-0.093,1.02,0.092
29.01,-0.367,0.869,-0.192
29.02,-0.289,1.043,-0.122
29.03,-0.002,1.097,0.074
29.04,-0.2,0.704,0.137
29.05,-0.293,1.055,-0.039
29.06,-0.29,0.909,-0.208
29.07,-0.132,1.175,0.025
29.08,-0.062,0.774,0.164
29.09,-0.248,1.05,0.011
29.1,-0.333,0.841,-0.195
29.11,-0.149,1.215,-0.05
29.12,-0.164,0.844,0.17
29.13,-0.143,0.842,0.16
29.14,-0.407,1.095,-0.161
29.15,-0.305,0.854,-0.114
29.16,-0.133,1.262,0.129
29.17,-0.144,0.635,0.153
29.18,-0.295,1.044,-0.001
29.19,-0.305,0.946,-0.201
29.2,-0.151,1.097,0.013
29.21,-0.126,0.898,0.141
29.22,-0.13,0.792,0.074
29.23,-0.508,1.179,-0.208
29.24,-0.116,0.867,-0.062
29.25,-0.204,1.128,0.123
29.26,-0.112,0.609,0.122
29.27,-0.296,1.185,-0.118
29.28,-0.322,0.898,-0.179
29.29,-0.081,1.145,0.139
29.3,-0.117,0.83,0.134
29.31,-0.392,0.825,0.004
29.32,-0.299,1.16,-0.203
29.33,-0.045,0.937,-0.062
29.34,-0.219,1.073,0.205
29.35,-0.06,0.693,0.095
29.36,-0.527,1.211,-0.228
29.37,-0.119,0.918,-0.049
29.38,-0.164,1.06,0.152
29.39,-0.146,0.84,0.169
29.4,-0.26,0.819,-0.108
29.41,-0.384,1.167,-0.188
29.42,0.039,0.891,0.115
29.43,-0.188,1.105,0.119
29.44,-0.203,0.656,0.004
29.45,-0.33,1.23,-0.224
29.46,-0.128,0.984,-0.019
29.47,-0.16,0.957,0.176
29.48,-0.123,0.942,0.077
29.49,-0.404,0.806,-0.187
29.5,-0.208,1.307,-0.091
29.51,0.021,0.805,0.104
29.52,-0.279,0.991,0.183
29.53,-0.179,0.733,-0.068
29.54,-0.332,1.202,-0.208
29.55,-0.111,1.063,0.073
29.56,-0.125,0.844,0.151
29.57,-0.264,0.929,0.037
29.58,-0.42,0.877,-0.124
29.59,-0.08,1.3,-0.066
29.6,-0.222,0.708,0.157
29.61,-0.082,1.024,0.165
29.62,-0.336,0.858,-0.194
29.63,-0.286,1.096,-0.074
29.64,0.008,1.121,0.052
29.65,-0.131,0.659,0.076
29.66,-0.312,1.094,0.012
29.67,-0.297,0.915,-0.225
29.68,-0.176,1.211,0.005
29.69,-0.074,0.782,0.204
29.7,-0.192,0.929,0.059
29.71,-0.438,0.963,-0.186
29.72,-0.044,1.047,-0.106
29.73,-0.125,1.06,0.048
29.74,-0.115,0.668,0.153
29.75,-0.35,1.15,-0.128
29.76,-0.306,0.873,-0.147
29.77,-0.071,1.237,0.117
29.78,-0.108,0.718,0.134
29.79,-0.248,0.898,0.05
29.8,-0.426,1.155,-0.226
29.81,-0.072,0.863,-0.066
29.82,-0.11,1.144,0.152
29.83,-0.107,0.637,0.077
29.84,-0.45,1.182,-0.184
29.85,-0.189,0.925,-0.043
29.86,-0.173,1.106,0.122
29.87,-0.156,0.793,0.155
29.88,-0.294,0.852,-0.039
29.89,-0.341,1.134,-0.201
29.9,-0.047,0.948,0.107
29.91,-0.156,1.121,0.102
29.92,-0.123,0.621,0.024
29.93,-0.439,1.301,-0.202
29.94,-0.118,0.921,-0.073
29.95,-0.164,0.966,0.158
29.96,-0.126,0.918,0.101
29.97,-0.405,0.829,-0.144
29.98,-0.271,1.26,-0.075
29.99,-0.033,0.901,0.104
30.0,-0.251,0.981,0.128
30.01,-0.173,0.732,0.006
30.02,-0.44,1.263,-0.247
30.03,-0.142,0.884,0.021
30.04,-0.031,0.993,0.174
30.05,-0.203,0.906,-0.023
30.06,-0.383,0.805,-0.161
30.07,-0.043,1.238,-0.126
30.08,-0.197,0.687,0.128
30.09,-0.158,1.08,0.182
30.1,-0.356,0.754,-0.183
30.11,-0.411,1.213,-0.1
30.12,0.115,0.955,0.057
30.13,-0.179,0.91,0.107
30.14,-0.26,0.881,0.037
30.15,-0.374,1.034,-0.197
30.16,-0.25,1.152,-0.006
30.17,-0.039,0.805,0.12
30.18,-0.148,1.009,0.014
30.19,-0.401,0.825,-0.121
30.2,-0.168,1.27,-0.101
30.21,-0.094,0.817,0.041
30.22,-0.185,0.878,0.221
30.23,-0.309,1.005,-0.111
30.24,-0.282,0.825,-0.187
30.25,-0.062,1.302,0.096
30.26,-0.146,0.679,0.108
30.27,-0.204,1.022,0.027
30.28,-0.315,0.978,-0.18
30.29,-0.173,1.102,0.012
30.3,-0.184,0.87,0.134
30.31,-0.096,0.819,0.159
30.32,-0.437,1.118,-0.131
30.33,-0.284,0.874,-0.041
30.34,-0.204,1.277,0.11
30.35,-0.078,0.589,0.088
30.36,-0.267,1.062,0.018
30.37,-0.278,0.993,-0.263
30.38,-0.154,0.997,0.022
30.39,-0.064,1.059,0.145
30.4,-0.093,0.685,0.028
30.41,-0.479,1.196,-0.132
30.42,-0.064,0.881,-0.12
30.43,-0.155,1.156,0.028
30.44,-0.03,0.706,0.194
30.45,-0.308,1.029,-0.12
30.46,-0.371,0.961,-0.118
30.47,-0.074,1.079,0.113
30.48,-0.149,0.972,0.102
30.49,-0.187,0.688,0.079
30.5,-0.457,1.404,-0.191
30.51,-0.165,0.763,-0.025
30.52,-0.229,1.119,0.198
30.53,-0.104,0.798,0.154
30.54,-0.458,0.9,-0.172
30.55,-0.199,1.046,-0.089
30.56,-0.032,1.06,0.073
30.57,-0.184,0.93,0.098
30.58,-0.179,0.642,-0.003
30.59,-0.344,1.389,-0.21
30.6,-0.029,0.858,-0.049
30.61,-0.242,1.086,0.187
30.62,-0.102,0.785,0.095
30.63,-0.488,0.952,-0.183
30.64,-0.135,1.212,-0.035
30.65,-0.091,0.816,0.082
30.66,-0.216,1.031,0.151
30.67,-0.187,0.729,-0.099
30.68,-0.384,1.215,-0.168
30.69,-0.13,0.945,0.125
30.7,-0.109,1.018,0.108
30.71,-0.238,0.831,0.005
30.72,-0.357,0.985,-0.174
30.73,-0.173,1.188,-0.045
30.74,-0.154,0.728,0.137
30.75,-0.081,1.119,0.112
30.76,-0.308,0.725,-0.195
30.77,-0.31,1.144,-0.058
30.78,-0.021,1.011,0.039
30.79,-0.156,0.784,0.124
30.8,-0.237,0.992,0.037
30.81,-0.324,0.954,-0.219
30.82,-0.197,1.174,-0.006
30.83,-0.121,0.782,0.201
30.84,-0.173,1.021,0.089
30.85,-0.335,0.834,-0.193
30.86,-0.181,1.116,-0.051
30.87,-0.057,0.994,0.056
30.88,-0.24,0.694,0.152
30.89,-0.22,0.976,-0.084
30.9,-0.356,0.969,-0.168
30.91,-0.1,1.165,0.091
30.92,-0.06,0.788,0.154
30.93,-0.253,1.032,0.027
30.94,-0.415,0.888,-0.131
30.95,-0.16,1.214,-0.048
30.96,-0.213,0.784,0.107
30.97,-0.062,0.879,0.14
30.98,-0.333,1.045,-0.203
30.99,-0.333,0.867,-0.076
31.0,-0.005,1.291,0.024
31.01,-0.075,0.624,0.072
31.02,-0.328,1.065,0.084
31.03,-0.251,0.966,-0.243
31.04,-0.16,1.073,-0.06
31.05,-0.146,0.92,0.219
31.06,-0.077,0.751,0.039
31.07,-0.445,1.104,-0.201
31.08,-0.065,0.886,-0.02
31.09,-0.145,1.287,0.076
31.1,-0.225,0.565,0.141
31.11,-0.201,1.075,-0.058
31.12,-0.315,0.994,-0.209
31.13,-0.288,1.031,0.091
31.14,-0.021,1.007,0.133
31.15,-0.236,0.723,-0.012
31.16,-0.438,1.209,-0.133
31.17,-0.071,0.894,-0.083
31.18,-0.169,1.118,0.092
31.19,-0.127,0.702,0.192
31.2,-0.353,1.059,-0.168
31.21,-0.317,0.961,-0.168
31.22,0.021,1.083,0.048
31.23,-0.118,0.939,0.1
31.24,-0.26,0.693,0.074
31.25,-0.313,1.376,-0.213
31.26,-0.148,0.766,-0.014
31.27,-0.277,1.078,0.235
31.28,-0.034,0.778,0.092
31.29,-0.46,1.022,-0.188
31.3,-0.253,1.096,-0.017
31.31,-0.11,0.952,0.03
31.32,-0.161,0.943,0.12
31.33,-0.189,0.74,0.013
31.34,-0.415,1.342,-0.246
31.35,-0.104,0.786,0.01
31.36,-0.16,1.181,0.22
31.37,-0.13,0.761,0.072
31.38,-0.482,0.915,-0.174
31.39,-0.068,1.261,-0.088
31.4,-0.137,0.821,0.073
31.41,-0.26,0.982,0.231
31.42,-0.243,0.734,-0.093
31.43,-0.325,1.209,-0.219
31.44,-0.166,0.93,0.174
31.45,-0.111,0.997,0.12
31.46,-0.236,0.82,-0.001
31.47,-0.425,1.006,-0.118
31.48,-0.083,1.229,-0.073
31.49,-0.192,0.711,0.118
31.5,-0.119,1.094,0.161
31.51,-0.327,0.774,-0.193
31.52,-0.269,1.108,-0.119
31.53,-0.029,1.075,0.088
31.54,-0.146,0.79,0.145
31.55,-0.234,0.936,0.034
31.56,-0.338,0.99,-0.19
31.57,-0.151,1.142,-0.039
31.58,-0.13,0.712,0.195
31.59,-0.183,1.046,0.09
31.6,-0.365,0.81,-0.222
31.61,-0.188,1.14,-0.058
31.62,-0.082,1.005,0.082
31.63,-0.13,0.681,0.098
31.64,-0.226,1.077,-0.048
31.65,-0.329,0.882,-0.209
31.66,-0.107,1.202,0.038
31.67,-0.072,0.803,0.138
31.68,-0.154,0.944,0.047
31.69,-0.387,0.962,-0.182
31.7,-0.131,1.173,-0.079
31.71,-0.124,0.788,0.09
31.72,-0.158,0.9,0.167
31.73,-0.38,1.047,-0.129
31.74,-0.292,0.858,-0.093
31.75,-0.054,1.274,0.048
31.76,-0.055,0.594,0.127
31.77,-0.332,1.101,0.07
31.78,-0.365,0.943,-0.244
31.79,-0.099,1.022,-0.056
31.8,-0.154,0.987,0.197
31.81,-0.124,0.743,0.073
31.82,-0.426,1.098,-0.153
31.83,-0.163,0.898,-0.038
31.84,-0.121,1.231,0.117
31.85,-0.161,0.608,0.155
31.86,-0.193,1.089,-0.085
31.87,-0.358,0.927,-0.189
31.88,-0.162,1.025,0.092
31.89,-0.103,1.057,0.117
31.9,-0.14,0.681,0.025
31.91,-0.498,1.226,-0.174
31.92,-0.107,0.882,-0.087
31.93,-0.122,1.152,0.067
31.94,-0.148,0.694,0.146
31.95,-0.292,1.047,-0.154
31.96,-0.184,0.984,-0.192
31.97,-0.095,1.071,0.115
31.98,-0.133,0.972,0.152
31.99,-0.203,0.667,0.03
32.0,-0.516,1.34,-0.16
32.01,-0.125,0.839,-0.075
32.02,-0.194,1.093,0.161
32.03,-0.095,0.803,0.12
32.04,-0.381,0.978,-0.232
32.05,-0.255,1.093,-0.078
32.06,-0.01,0.986,0.085
32.07,-0.139,0.967,0.111
32.08,-0.26,0.693,-0.013
32.09,-0.393,1.342,-0.208
32.1,-0.085,0.83,0.009
32.11,-0.17,1.089,0.187
32.12,-0.118,0.807,0.019
32.13,-0.44,0.935,-0.213
32.14,-0.191,1.229,-0.013
32.15,-0.087,0.865,0.117
32.16,-0.236,1.001,0.124
32.17,-0.193,0.746,-0.105
32.18,-0.348,1.252,-0.153
32.19,-0.156,0.957,0.123
32.2,-0.086,0.973,0.136
32.21,-0.217,0.847,-0.015
32.22,-0.373,0.993,-0.118
32.23,-0.168,1.246,-0.027
32.24,-0.162,0.694,0.141
32.25,-0.141,1.071,0.115
32.26,-0.3,0.799,-0.193
32.27,-0.28,1.181,-0.094
32.28,-0.091,0.961,0.081
32.29,-0.106,0.802,0.139
32.3,-0.316,1.012,-0.022
32.31,-0.351,0.939,-0.195
32.32,-0.098,1.168,-0.003
32.33,-0.136,0.81,0.198
32.34,-0.127,1.002,0.036
32.35,-0.353,0.809,-0.187
32.36,-0.108,1.154,-0.072
32.37,-0.107,0.954,0.108
32.38,-0.197,0.757,0.158
32.39,-0.341,1.117,-0.056
32.4,-0.301,0.861,-0.176
32.41,-0.208,1.27,0.137
32.42,-0.097,0.716,0.139
32.43,-0.171,0.988,-0.019
32.44,-0.397,0.979,-0.171
32.45,-0.128,1.018,-0.052
32.46,-0.122,0.942,0.091
32.47,-0.114,0.754,0.148
32.48,-0.404,1.164,-0.182
32.49,-0.249,0.865,-0.066
32.5,-0.108,1.266,0.107
32.51,-0.097,0.636,0.118
32.52,-0.331,1.116,-0.032
32.53,-0.301,0.898,-0.262
32.54,-0.07,1.01,0.01
32.55,-0.118,0.961,0.155
32.56,-0.094,0.765,0.039
32.57,-0.405,1.176,-0.216
32.58,-0.153,0.913,0.002
32.59,-0.19,1.183,0.123
32.6,-0.163,0.663,0.155
32.61,-0.339,1.097,-0.1
32.62,-0.25,0.966,-0.186
32.63,-0.091,1.089,0.121
32.64,-0.125,0.927,0.129
32.65,-0.229,0.681,0.03
32.66,-0.402,1.312,-0.174
32.67,-0.119,0.844,-0.053
32.68,-0.196,1.096,0.136
32.69,-0.104,0.759,0.142
32.7,-0.458,1.035,-0.167
32.71,-0.285,1.004,-0.042
32.72,0.009,1.045,0.073
32.73,-0.182,0.928,0.085
32.74,-0.192,0.718,-0.039
32.75,-0.378,1.342,-0.174
32.76,-0.153,0.832,0.056
32.77,-0.032,1.13,0.144
32.78,-0.179,0.707,0.003
32.79,-0.492,1.079,-0.101
32.8,-0.077,1.12,-0.084
32.81,-0.16,0.812,0.067
32.82,-0.115,1.035,0.162
32.83,-0.266,0.73,-0.158
32.84,-0.37,1.184,-0.145
32.85,0.036,0.945,0.118
32.86,-0.176,0.973,0.133
32.87,-0.292,0.794,0.054
32.88,-0.284,1.105,-0.182
32.89,-0.18,1.123,-0.033
32.9,-0.186,0.751,0.202
32.91,-0.134,1.039,0.081
32.92,-0.432,0.749,-0.201
32.93,-0.164,1.288,-0.057
32.94,-0.065,0.896,0.07
32.95,-0.185,0.832,0.144
32.96,-0.199,0.931,-0.078
32.97,-0.306,1.006,-0.188
32.98,-0.17,1.177,0.067
32.99,-0.057,0.742,0.096
33.0,-0.194,1.021,0.007
33.01,-0.375,0.854,-0.154
33.02,-0.136,1.211,-0.092
33.03,-0.148,0.806,0.124
33.04,-0.151,0.883,0.163
33.05,-0.37,1.019,-0.167
33.06,-0.237,0.803,-0.128
33.07,-0.039,1.326,0.076
33.08,-0.092,0.602,0.099
33.09,-0.269,1.083,0.034
33.1,-0.285,0.975,-0.224
33.11,-0.144,1.037,-0.022
33.12,-0.184,0.918,0.179
33.13,-0.097,0.789,0.067
33.14,-0.428,1.141,-0.232
33.15,-0.143,0.881,-0.008
33.16,-0.166,1.229,0.095
33.17,-0.138,0.604,0.16
33.18,-0.287,1.084,0.005
33.19,-0.335,0.97,-0.221
33.2,-0.096,1.031,0.044
33.21,-0.094,1.097,0.156
33.22,-0.216,0.65,0.027
33.23,-0.494,1.212,-0.138
33.24,-0.033,0.917,-0.074
33.25,-0.188,1.099,0.094
33.26,-0.128,0.704,0.224
33.27,-0.358,1.082,-0.167
33.28,-0.321,0.952,-0.175
33.29,0.032,1.045,0.136
33.3,-0.166,1.002,0.109
33.31,-0.262,0.675,0.005
33.32,-0.34,1.325,-0.235
33.33,-0.158,0.733,-0.023
33.34,-0.103,1.225,0.212
33.35,-0.186,0.648,0.048
33.36,-0.461,1.154,-0.164
33.37,-0.041,1.063,-0.067
33.38,-0.203,0.956,0.09
33.39,-0.12,0.859,0.171
33.4,-0.263,0.87,-0.109
33.41,-0.383,1.167,-0.178
33.42,-0.1,0.896,0.167
33.43,-0.144,1.176,0.108
33.44,-0.202,0.641,-0.0
33.45,-0.431,1.214,-0.125
33.46,-0.119,1.033,-0.059
33.47,-0.2,0.857,0.146
33.48,-0.105,0.991,0.165
33.49,-0.417,0.748,-0.22
33.5,-0.256,1.259,-0.071
33.51,0.021,0.956,0.054
33.52,-0.223,0.947,0.099
33.53,-0.14,0.769,-0.0
33.54,-0.4,1.223,-0.263
33.55,-0.078,0.96,-0.002
33.56,-0.131,0.916,0.236
33.57,-0.222,0.986,0.042
33.58,-0.389,0.763,-0.175
33.59,-0.122,1.324,-0.026
33.6,-0.114,0.764,0.109
33.61,-0.184,0.937,0.183
33.62,-0.229,0.927,-0.095
33.63,-0.351,1.0,-0.106
33.64,-0.193,1.134,0.141
33.65,-0.105,0.76,0.124
33.66,-0.245,1.061,-0.037
33.67,-0.368,0.923,-0.129
33.68,-0.155,1.212,-0.051
33.69,-0.125,0.779,0.2
33.7,-0.147,0.972,0.099
33.71,-0.358,0.931,-0.221
33.72,-0.213,0.997,-0.002
33.73,-0.153,1.218,0.084
33.74,-0.13,0.6,0.103
33.75,-0.29,1.137,0.011
33.76,-0.416,0.913,-0.201
33.77,-0.156,1.121,0.021
33.78,-0.053,0.913,0.117
33.79,-0.12,0.804,-0.009
33.8,-0.415,1.14,-0.116
33.81,-0.157,0.937,-0.118
33.82,-0.206,1.065,0.114
33.83,-0.04,0.743,0.168
33.84,-0.438,1.119,-0.19
33.85,-0.313,0.797,-0.133
33.86,0.0,1.289,0.082
33.87,-0.157,0.83,0.117
33.88,-0.196,0.775,0.028
33.89,-0.366,1.358,-0.194
33.9,-0.115,0.787,-0.054
33.91,-0.214,1.126,0.213
33.92,-0.051,0.677,0.1
33.93,-0.502,1.113,-0.197
33.94,-0.172,0.983,-0.051
33.95,-0.113,1.087,0.054
33.96,-0.113,0.864,0.159
33.97,-0.188,0.763,-0.023
33.98,-0.401,1.277,-0.217
33.99,-0.087,0.81,0.015
34.0,-0.102,1.238,0.108
34.01,-0.08,0.637,0.06
34.02,-0.453,1.114,-0.167
34.03,-0.064,1.068,-0.098
34.04,-0.409,1.089,-0.167
34.05,-0.303,0.798,-0.064
34.06,-0.044,1.332,0.078
34.07,-0.106,0.657,0.121
34.08,-0.281,0.973,0.085
34.09,-0.367,0.929,-0.256
34.1,-0.137,1.062,0.013
34.11,-0.071,1.002,0.182
34.12,-0.149,0.761,0.064
34.13,-0.445,1.167,-0.158
34.14,-0.092,0.956,-0.064
34.15,-0.195,1.094,0.105
34.16,-0.157,0.664,0.235
34.17,-0.31,1.122,-0.104
34.18,-0.314,0.852,-0.174
34.19,-0.073,1.101,0.134
34.2,-0.125,1.018,0.124
34.21,-0.249,0.705,0.032
34.22,-0.413,1.294,-0.157
34.23,-0.108,0.885,-0.064
34.24,-0.25,1.135,0.141
34.25,-0.035,0.729,0.152
34.26,-0.393,1.039,-0.22
34.27,-0.296,1.01,-0.027
34.28,-0.048,1.043,0.072
34.29,-0.157,0.911,0.072
34.3,-0.199,0.734,0.035
34.31,-0.426,1.333,-0.202
34.32,-0.108,0.764,-0.016
34.33,-0.092,1.209,0.152
34.34,-0.16,0.728,0.063
34.35,-0.5,0.991,-0.127
34.36,-0.017,1.192,-0.095
34.37,-0.163,0.856,0.085
34.38,-0.225,0.956,0.174
34.39,-0.16,0.764,-0.124
34.4,-0.379,1.223,-0.18
34.41,-0.052,0.879,0.124
34.42,-0.086,1.091,0.099
34.43,-0.179,0.773,0.01
34.44,-0.397,1.042,-0.183
34.45,-0.088,1.17,-0.099
34.46,-0.198,0.783,0.156
34.47,-0.158,1.048,0.133
34.48,-0.264,0.727,-0.169
34.49,-0.334,1.209,-0.111
34.5,-0.026,0.952,0.106
34.51,-0.119,0.862,0.09
34.52,-0.276,0.901,0.016
34.53,-0.292,1.027,-0.194
34.54,-0.123,1.092,-0.057
34.55,-0.146,0.7,0.222
34.56,-0.136,1.115,0.091
34.57,-0.359,0.736,-0.238
34.58,-0.16,1.196,0.005
34.59,-0.105,0.992,0.117
34.6,-0.302,0.723,0.154
34.61,-0.19,1.039,-0.091
34.62,-0.318,0.979,-0.194
34.63,-0.269,1.168,0.081
34.64,-0.014,0.728,0.137
34.65,-0.225,1.042,0.007
34.66,-0.437,0.885,-0.152
34.67,-0.052,1.122,-0.129
34.68,-0.158,0.896,0.087
34.69,-0.119,0.794,0.19
34.7,-0.385,1.104,-0.144
34.71,-0.295,0.806,-0.113
34.72,-0.072,1.332,0.12
34.73,-0.064,0.636,0.122
34.74,-0.312,1.01,0.038
34.75,-0.31,1.024,-0.211
34.76,-0.09,1.013,-0.073
34.77,-0.23,0.991,0.235
34.78,-0.027,0.716,0.075
34.79,-0.51,1.152,-0.189
34.8,-0.142,0.852,-0.048
34.81,-0.118,1.258,0.107
34.82,-0.172,0.667,0.142
34.83,-0.274,0.996,-0.037
34.84,-0.291,1.053,-0.24
34.85,-0.1,0.949,0.039
34.86,-0.117,1.068,0.12
34.87,-0.117,0.645,0.004
34.88,-0.505,1.286,-0.155
34.89,-0.072,0.872,-0.087
34.9,-0.202,1.116,0.133
34.91,-0.104,0.727,0.158
34.92,-0.395,1.104,-0.204
34.93,-0.26,0.924,-0.128
34.94,-0.02,1.155,0.093
34.95,-0.137,0.846,0.105
34.96,-0.243,0.788,0.051
34.97,-0.332,1.352,-0.232
34.98,-0.095,0.785,0.013
34.99,-0.219,1.167,0.2
35.0,-0.069,0.698,0.097
35.01,-0.519,1.108,-0.198
35.02,-0.139,1.038,-0.022
35.03,-0.033,1.04,0.089
35.04,-0.24,0.886,0.139
35.05,-0.149,0.773,-0.046
35.06,-0.335,1.347,-0.216
35.07,-0.169,0.788,0.115
35.08,-0.053,1.121,0.136
35.09,-0.216,0.693,0.001
35.1,-0.45,1.097,-0.128
35.11,-0.044,1.117,-0.075
35.12,-0.154,0.837,0.117
35.13,-0.188,1.057,0.175
35.14,-0.273,0.692,-0.202
35.15,-0.294,1.269,-0.095
35.16,0.011,0.952,0.118
35.17,-0.179,0.945,0.094
35.18,-0.265,0.806,0.011
35.19,-0.326,1.169,-0.183
35.2,-0.133,1.102,-0.03
35.21,-0.142,0.76,0.19
35.22,-0.114,1.045,0.035
35.23,-0.418,0.777,-0.221
35.24,-0.201,1.248,-0.043
35.25,-0.003,0.895,0.06
35.26,-0.228,0.864,0.106
35.27,-0.247,0.922,-0.076
35.28,-0.361,1.025,-0.155
35.29,-0.108,1.15,0.118
35.3,-0.049,0.727,0.145
35.31,-0.292,1.056,-0.045
35.32,-0.386,0.862,-0.152
35.33,-0.114,1.228,-0.016
35.34,-0.161,0.803,0.112
35.35,-0.129,0.883,0.127
35.36,-0.382,1.084,-0.176
35.37,-0.249,0.864,-0.106
35.38,-0.006,1.26,0.092
35.39,-0.093,0.63,0.127
35.4,-0.392,1.062,-0.003
35.41,-0.277,0.91,-0.208
35.42,-0.089,1.125,-0.001
35.43,-0.144,0.863,0.173
35.44,-0.187,0.782,0.098
35.45,-0.511,1.168,-0.221
35.46,-0.054,0.871,-0.034
35.47,-0.135,1.178,0.145
35.48,-0.166,0.711,0.208
35.49,-0.397,1.087,-0.124
35.5,-0.323,0.907,-0.149
35.51,-0.005,1.14,0.092
35.52,-0.209,0.888,0.112
35.53,-0.302,0.778,0.069
35.54,-0.42,1.292,-0.194
35.55,-0.076,0.812,-0.027
35.56,-0.131,1.185,0.166
35.57,-0.127,0.688,0.071
35.58,-0.483,1.098,-0.178
35.59,-0.072,1.07,-0.112
35.6,-0.119,0.909,0.111
35.61,-0.214,0.978,0.197
35.62,-0.317,0.732,-0.119
35.63,-0.299,1.243,-0.172
35.64,-0.03,0.936,0.108
35.65,-0.182,1.038,0.106
35.66,-0.146,0.71,0.027
35.67,-0.338,1.218,-0.215
35.68,-0.152,1.01,-0.115
35.69,-0.076,0.788,0.205
35.7,-0.143,1.079,0.082
35.71,-0.422,0.719,-0.176
35.72,-0.156,1.292,-0.005
35.73,-0.154,0.807,0.132
35.74,-0.253,1.02,0.178
35.75,-0.221,0.759,-0.112
35.76,-0.327,1.2,-0.206
35.77,-0.034,1.0,0.144
35.78,-0.115,0.892,0.094
35.79,-0.167,0.896,-0.022
35.8,-0.323,0.99,-0.198
35.81,-0.191,1.185,-0.069
35.82,-0.122,0.712,0.169
35.83,-0.178,1.056,0.106
35.84,-0.381,0.809,-0.198
35.85,-0.237,1.157,-0.06
35.86,-0.077,1.034,0.082
35.87,-0.206,0.655,0.122
35.88,-0.209,1.052,0.003
35.89,-0.341,0.918,-0.244
35.9,-0.168,1.161,0.012
35.91,0.006,0.777,0.105
35.92,-0.225,0.951,-0.005
35.93,-0.373,0.958,-0.142
35.94,-0.167,1.103,-0.085
35.95,-0.156,0.911,0.085
35.96,-0.096,0.741,0.169
35.97,-0.363,1.134,-0.16
35.98,-0.242,0.813,-0.129
35.99,-0.063,1.292,0.121
36.0,-0.101,0.648,0.099
36.01,-0.287,0.989,0.021
36.02,-0.328,1.097,-0.271
36.03,-0.084,0.902,-0.051
36.04,-0.177,1.079,0.219
36.05,-0.137,0.657,0.088
36.06,-0.462,1.199,-0.177
36.07,-0.097,0.955,-0.038
36.08,-0.114,1.169,0.088
36.09,-0.162,0.694,0.207
36.1,-0.28,1.001,-0.069
36.11,-0.338,1.077,-0.232
36.12,-0.135,0.918,0.141
36.13,-0.172,1.086,0.163
36.14,-0.179,0.657,0.026
36.15,-0.331,1.322,-0.233
36.16,-0.126,0.869,-0.065
36.17,-0.158,1.08,0.202
36.18,-0.126,0.848,0.139
36.19,-0.407,0.832,-0.197
36.2,-0.217,1.22,-0.042
36.21,-0.07,0.931,0.081
36.22,-0.247,0.996,0.184
36.23,-0.15,0.704,-0.018
36.24,-0.478,1.269,-0.224
36.25,-0.066,0.862,0.034
36.26,-0.153,1.083,0.202
36.27,-0.186,0.856,0.07
36.28,-0.349,0.921,-0.16
36.29,-0.176,1.277,-0.107
36.3,-0.075,0.676,0.091
36.31,-0.103,1.074,0.177
36.32,-0.344,0.758,-0.126
36.33,-0.321,1.111,-0.173
36.34,-0.062,1.045,0.106
36.35,-0.168,0.888,0.135
36.36,-0.24,0.9,-0.018
36.37,-0.341,0.985,-0.18
36.38,-0.096,1.227,-0.065
36.39,-0.135,0.667,0.165
36.4,-0.098,1.038,0.105
36.41,-0.361,0.81,-0.192
36.42,-0.259,1.153,-0.032
36.43,-0.051,1.069,0.077
36.44,-0.172,0.692,0.123
36.45,-0.257,1.054,0.022
36.46,-0.382,0.905,-0.215
36.47,-0.205,1.204,0.123
36.48,-0.033,0.783,0.14
36.49,-0.205,0.924,-0.056
36.5,-0.331,0.942,-0.091
36.51,-0.205,1.158,-0.072
36.52,-0.123,0.875,0.055
36.53,-0.073,0.779,0.175
36.54,-0.354,1.026,-0.192
36.55,-0.307,0.901,-0.004
36.56,-0.083,1.251,0.143
36.57,-0.207,0.584,0.133
36.58,-0.242,1.087,0.018
36.59,-0.326,0.928,-0.233
36.6,-0.171,1.103,0.022
36.61,-0.039,0.921,0.123
36.62,-0.114,0.791,0.038
36.63,-0.421,1.187,-0.097
36.64,-0.178,0.896,-0.084
36.65,-0.16,1.151,0.088
36.66,-0.08,0.718,0.169
36.67,-0.34,1.075,-0.135
36.68,-0.302,0.869,-0.155
36.69,-0.153,1.144,0.128
36.7,-0.125,0.964,0.119
36.71,-0.219,0.721,0.005
36.72,-0.417,1.27,-0.164
36.73,-0.116,0.876,-0.03
36.74,-0.209,1.118,0.151
36.75,-0.022,0.723,0.14
36.76,-0.462,1.04,-0.195
36.77,-0.252,0.975,-0.043
36.78,-0.047,1.114,0.116
36.79,-0.207,0.914,0.101
36.8,-0.191,0.74,0.018
36.81,-0.379,1.301,-0.212
36.82,-0.18,0.832,0.058
36.83,-0.147,1.148,0.139
36.84,-0.069,0.706,0.012
36.85,-0.484,1.107,-0.137
36.86,-0.052,1.116,-0.115
36.87,-0.11,0.896,0.071
36.88,-0.182,1.012,0.172
36.89,-0.28,0.736,-0.119
36.9,-0.338,1.26,-0.158
36.91,-0.029,0.921,0.116
36.92,-0.175,0.977,0.136
36.93,-0.209,0.804,0.05
36.94,-0.388,1.144,-0.262
36.95,-0.064,1.06,-0.056
36.96,-0.158,0.841,0.194
36.97,-0.185,1.002,0.08
36.98,-0.299,0.767,-0.163
36.99,-0.268,1.302,-0.097
37.0,-0.069,0.842,0.043
37.01,-0.087,0.882,0.138
37.02,-0.27,0.923,-0.026
37.03,-0.397,0.973,-0.182
37.04,-0.111,1.156,0.035
37.05,-0.109,0.837,0.138
37.06,-0.117,1.004,0.036
37.07,-0.361,0.853,-0.154
37.08,-0.173,1.3,-0.075
37.09,-0.138,0.779,0.093
37.1,-0.145,0.876,0.196
37.11,-0.413,1.008,-0.1
37.12,-0.24,0.897,-0.194
37.13,-0.117,1.279,0.104
37.14,-0.108,0.622,0.133
37.15,-0.276,1.039,0.063
37.16,-0.357,0.981,-0.147
37.17,-0.16,1.102,-0.033
37.18,-0.149,0.843,0.15
37.19,-0.168,0.844,0.123
37.2,-0.354,1.069,-0.209
37.21,-0.225,0.884,-0.09
37.22,-0.018,1.267,0.059
37.23,-0.052,0.612,0.108
37.24,-0.312,1.103,-0.026
37.25,-0.305,0.973,-0.191
37.26,-0.16,1.028,0.037
37.27,-0.152,0.961,0.163
37.28,-0.092,0.766,0.029
37.29,-0.435,1.17,-0.196
37.3,-0.201,0.88,-0.027
37.31,-0.034,1.198,0.057
37.32,-0.109,0.681,0.112
37.33,-0.303,1.041,-0.045
37.34,-0.313,0.999,-0.176
37.35,-0.124,1.207,0.179
37.36,-0.14,0.81,0.119
37.37,-0.29,0.833,-0.035
37.38,-0.302,1.183,-0.2
37.39,-0.103,0.899,-0.001
37.4,-0.235,1.124,0.173
37.41,-0.054,0.663,0.085
37.42,-0.429,1.212,-0.198
37.43,-0.253,0.942,0.007
37.44,-0.103,1.106,0.085
37.45,-0.168,0.813,0.13
37.46,-0.298,0.847,-0.059
37.47,-0.329,1.206,-0.212
37.48,-0.103,0.854,0.044
37.49,-0.158,1.149,0.166
37.5,-0.142,0.615,0.057
37.51,-0.471,1.217,-0.199
37.52,-0.133,0.944,-0.07
37.53,-0.15,0.934,0.124
37.54,-0.118,0.899,0.132
37.55,-0.352,0.806,-0.165
37.56,-0.272,1.229,-0.156
37.57,-0.031,0.905,0.101
37.58,-0.185,1.009,0.136
37.59,-0.171,0.721,0.023
37.6,-0.408,1.249,-0.191
37.61,-0.147,0.935,0.015
37.62,-0.116,0.932,0.21
37.63,-0.12,0.995,0.024
37.64,-0.413,0.768,-0.2
37.65,-0.213,1.313,-0.029
37.66,-0.038,0.844,0.115
37.67,-0.2,0.963,0.155
37.68,-0.221,0.816,-0.015
37.69,-0.432,1.128,-0.205
37.7,-0.147,0.99,0.067
37.71,-0.053,0.905,0.224
37.72,-0.314,0.995,0.011
37.73,-0.409,0.79,-0.181
37.74,-0.053,1.326,-0.076
37.75,-0.166,0.71,0.129
37.76,-0.169,0.973,0.211
37.77,-0.339,0.912,-0.167
37.78,-0.311,1.007,-0.113
37.79,-0.046,1.169,0.096
37.8,-0.098,0.656,0.111
37.81,-0.327,1.088,0.004
37.82,-0.277,0.93,-0.211
37.83,-0.142,1.177,-0.015
37.84,-0.157,0.781,0.219
37.85,-0.152,0.925,0.092
37.86,-0.4,0.982,-0.224
37.87,-0.161,0.982,-0.065
37.88,-0.084,1.106,0.074
37.89,-0.182,0.661,0.186
37.9,-0.383,1.142,-0.083
37.91,-0.282,0.849,-0.19
37.92,-0.15,1.157,0.072
37.93,-0.088,0.831,0.168
37.94,-0.188,0.865,-0.011
37.95,-0.465,1.146,-0.191
37.96,-0.067,0.931,-0.025
37.97,-0.192,1.135,0.107
37.98,-0.167,0.663,0.16
37.99,-0.361,1.174,-0.177
38.0,-0.284,0.909,-0.126
38.01,-0.075,1.133,0.105
38.02,-0.114,0.861,0.126
38.03,-0.289,0.774,-0.065
38.04,-0.273,1.24,-0.201
38.05,-0.103,0.92,0.026
38.06,-0.206,1.108,0.181
38.07,-0.115,0.656,0.01
38.08,-0.479,1.284,-0.152
38.09,-0.091,0.911,-0.008
38.1,-0.186,1.125,0.123
38.11,-0.158,0.746,0.148
38.12,-0.287,1.005,-0.133
38.13,-0.308,1.104,-0.164
38.14,-0.083,0.919,0.107
38.15,-0.077,1.063,0.117
38.16,-0.253,0.628,-0.021
38.17,-0.299,1.298,-0.199
38.18,-0.138,0.855,0.015
38.19,-0.198,1.056,0.197
38.2,-0.077,0.714,0.03
38.21,-0.492,1.085,-0.263
38.22,-0.035,1.003,-0.056
38.23,-0.008,1.008,0.089
38.24,-0.305,0.954,0.161
38.25,-0.23,0.76,-0.086
38.26,-0.316,1.286,-0.25
38.27,0.011,0.822,0.089
38.28,-0.097,1.065,0.15
38.29,-0.316,0.724,0.009
38.3,-0.303,1.105,-0.222
38.31,-0.086,1.062,-0.07
38.32,-0.109,0.831,0.193
38.33,-0.083,1.004,0.048
38.34,-0.445,0.783,-0.159
38.35,-0.171,1.301,-0.081
38.36,-0.078,0.778,0.099
38.37,-0.247,0.94,0.19
38.38,-0.232,0.861,-0.073
38.39,-0.324,1.049,-0.216
38.4,-0.04,1.122,0.072
38.41,-0.094,0.738,0.167
38.42,-0.304,1.028,0.063
38.43,-0.344,0.907,-0.214
38.44,-0.149,1.219,-0.003
38.45,-0.236,0.823,0.225
38.46,-0.158,0.935,0.122
38.47,-0.405,0.922,-0.194
38.48,-0.192,1.018,-0.085
38.49,-0.037,1.219,0.053
38.5,-0.188,0.593,0.125
38.51,-0.237,1.102,-0.011
38.52,-0.279,0.912,-0.227
38.53,-0.197,1.179,0.087
38.54,-0.156,0.831,0.173
38.55,-0.135,0.827,0.045
38.56,-0.474,1.159,-0.126
38.57,-0.154,0.966,-0.088
38.58,-0.192,1.093,0.095
38.59,-0.103,0.71,0.17
38.6,-0.348,1.094,-0.12
38.61,-0.242,0.817,-0.196
38.62,-0.01,1.216,0.092
38.63,-0.204,0.839,0.141
38.64,-0.236,0.794,0.054
38.65,-0.342,1.24,-0.283
38.66,-0.056,0.833,-0.11
38.67,-0.158,1.204,0.193
38.68,-0.179,0.655,0.095
38.69,-0.416,1.08,-0.154
38.7,-0.25,1.029,-0.028
38.71,-0.052,1.072,0.067
38.72,-0.178,0.849,0.149
38.73,-0.194,0.8,-0.031
38.74,-0.424,1.244,-0.182
38.75,-0.122,0.852,0.011
38.76,-0.175,1.181,0.147
38.77,-0.087,0.643,0.046
38.78,-0.456,1.198,-0.173
38.79,-0.163,1.055,-0.068
38.8,-0.121,0.932,0.096
38.81,-0.195,0.924,0.157
38.82,-0.273,0.748,-0.138
38.83,-0.277,1.207,-0.152
38.84,-0.071,0.917,0.133
38.85,-0.203,1.058,0.18
38.86,-0.276,0.711,0.047
38.87,-0.399,1.231,-0.161
38.88,-0.128,1.009,-0.077
38.89,-0.226,0.867,0.198
38.9,-0.095,1.023,0.145
38.91,-0.332,0.763,-0.199
38.92,-0.278,1.328,-0.041
38.93,-0.028,0.867,0.056
38.94,-0.142,0.881,0.123
38.95,-0.194,0.857,0.026
38.96,-0.389,1.196,-0.266
38.97,-0.115,1.0,-0.061
38.98,-0.1,0.896,0.212
38.99,-0.239,0.879,0.08
39.0,-0.388,0.855,-0.164
39.01,-0.091,1.3,-0.109
39.02,-0.043,0.715,0.053
39.03,-0.18,1.044,0.203
39.04,-0.291,0.777,-0.121
39.05,-0.281,1.06,-0.198
39.06,-0.017,1.121,0.085
39.07,-0.218,0.835,0.154
39.08,-0.211,0.948,0.038
39.09,-0.402,0.942,-0.168
39.1,-0.155,1.243,-0.077
39.11,-0.075,0.733,0.137
39.12,-0.179,1.053,0.13
39.13,-0.35,0.803,-0.169
39.14,-0.295,1.073,-0.056
39.15,-0.056,1.132,0.054
39.16,-0.139,0.687,0.114
39.17,-0.283,1.112,0.036
39.18,-0.375,0.895,-0.231
39.19,-0.117,1.168,-0.041
39.2,-0.067,0.812,0.168
39.21,-0.146,0.949,0.066
39.22,-0.355,0.928,-0.233
39.23,-0.177,1.043,-0.059
39.24,-0.089,1.091,0.083
39.25,-0.179,0.666,0.176
39.26,-0.339,1.147,-0.056
39.27,-0.258,0.819,-0.215
39.28,-0.187,1.245,0.08
39.29,-0.063,0.781,0.119
39.3,-0.195,0.898,-0.013
39.31,-0.327,1.097,-0.175
39.32,-0.148,0.966,-0.093
39.33,-0.113,1.028,0.114
39.34,-0.091,0.721,0.194
39.35,-0.445,1.114,-0.147
39.36,-0.272,0.789,-0.146
39.37,-0.05,1.269,0.051
39.38,-0.11,0.752,0.118
39.39,-0.275,0.866,0.026
39.4,-0.308,1.167,-0.246
39.41,-0.082,0.859,-0.05
39.42,-0.115,1.204,0.154
39.43,-0.107,0.628,0.109
39.44,-0.438,1.147,-0.139
39.45,-0.156,0.971,-0.045
39.46,-0.107,1.128,0.073
39.47,-0.176,0.801,0.147
39.48,-0.229,0.851,-0.019
39.49,-0.384,1.196,-0.25
39.5,-0.119,0.856,0.068
39.51,-0.119,1.217,0.147
39.52,-0.115,0.629,0.036
39.53,-0.443,1.182,-0.184
39.54,-0.126,1.006,-0.05
39.55,-0.135,0.965,0.071
39.56,-0.177,0.901,0.137
39.57,-0.255,0.802,-0.089
39.58,-0.361,1.178,-0.2
39.59,-0.05,0.885,0.08
39.6,-0.071,1.133,0.099
39.61,-0.206,0.653,0.008
39.62,-0.425,1.224,-0.134
39.63,-0.073,1.03,-0.109
39.64,-0.184,0.859,0.138
39.65,-0.081,1.021,0.149
39.66,-0.391,0.785,-0.163
39.67,-0.354,1.202,-0.037
39.68,-0.017,0.928,0.096
39.69,-0.214,0.993,0.103
39.7,-0.19,0.786,0.015
39.71,-0.443,1.151,-0.202
39.72,-0.218,0.982,-0.0
39.73,0.005,0.89,0.147
39.74,-0.207,1.001,0.041
39.75,-0.417,0.739,-0.142
39.76,-0.101,1.335,-0.128
39.77,-0.047,0.803,0.105
39.78,-0.201,0.98,0.244
39.79,-0.219,0.879,-0.111
39.8,-0.321,1.138,-0.147
39.81,-0.089,1.007,0.091
39.82,-0.104,0.849,0.113
39.83,-0.271,0.934,0.038
39.84,-0.251,1.015,-0.224
39.85,-0.238,1.176,-0.02
39.86,-0.191,0.667,0.206
39.87,-0.098,1.082,0.11
39.88,-0.363,0.789,-0.221
39.89,-0.241,1.116,-0.056
39.9,-0.049,1.052,0.041
39.91,-0.215,0.695,0.158
39.92,-0.196,1.073,-0.005
39.93,-0.337,0.943,-0.233
39.94,-0.191,1.136,-0.002
39.95,0.01,0.792,0.163
39.96,-0.171,1.012,0.068
39.97,-0.401,0.857,-0.143
39.98,-0.143,1.122,-0.063
39.99,-0.17,1.026,0.049
40.0,-0.176,0.698,0.18
40.01,-0.264,1.114,-0.09
40.02,-0.386,0.815,-0.204
40.03,-0.187,1.24,0.141
40.04,-0.012,0.761,0.089
40.05,-0.288,0.912,0.024
40.06,-0.321,1.012,-0.18
40.07,-0.074,1.07,-0.066
40.08,-0.182,0.955,0.117
40.09,-0.09,0.751,0.19
40.1,-0.426,1.183,-0.134
40.11,-0.318,0.768,-0.158
40.12,0.003,1.302,0.082
40.13,-0.097,0.725,0.119
40.14,-0.283,0.896,0.041
40.15,-0.34,1.136,-0.219
40.16,-0.105,0.899,-0.005
40.17,-0.172,1.051,0.156
40.18,-0.037,0.686,0.047
40.19,-0.489,1.191,-0.179
40.2,-0.292,0.849,-0.028
40.21,-0.049,1.192,0.098
40.22,-0.201,0.753,0.111
40.23,-0.193,0.868,0.006
40.24,-0.324,1.205,-0.187
40.25,-0.193,0.873,0.021
40.26,-0.077,1.169,0.135
40.27,-0.076,0.646,0.014
40.28,-0.5,1.199,-0.163
40.29,-0.043,0.956,-0.126
40.3,-0.146,1.042,0.079
40.31,-0.164,0.878,0.185
40.32,-0.294,0.82,-0.087
40.33,-0.313,1.153,-0.151
40.34,-0.032,0.952,0.078
40.35,-0.15,1.072,0.091
40.36,-0.206,0.656,0.036
40.37,-0.392,1.305,-0.181
40.38,-0.099,0.981,-0.075
40.39,-0.168,0.917,0.163
40.4,-0.139,0.939,0.136
40.41,-0.416,0.818,-0.163
40.42,-0.275,1.198,-0.1
40.43,0.007,0.901,0.082
40.44,-0.161,0.991,0.104
40.45,-0.252,0.74,0.01
40.46,-0.352,1.236,-0.205
40.47,-0.115,0.968,-0.048
40.48,-0.087,0.921,0.173
40.49,-0.175,0.936,0.069
40.5,-0.462,0.864,-0.145
40.51,-0.147,1.289,-0.107
40.52,-0.111,0.754,0.084
40.53,-0.204,1.03,0.196
40.54,-0.228,0.823,-0.134
40.55,-0.343,1.058,-0.156
40.56,-0.079,1.04,0.084
40.57,-0.052,0.807,0.122
40.58,-0.297,0.999,0.071
40.59,-0.315,0.939,-0.155
40.6,-0.187,1.241,-0.058
40.61,-0.158,0.722,0.182
40.62,-0.104,1.085,0.1
40.63,-0.347,0.798,-0.191
40.64,-0.332,1.146,-0.046
40.65,-0.002,0.985,0.088
40.66,-0.202,0.804,0.132
40.67,-0.287,0.97,-0.01
40.68,-0.283,0.949,-0.225
40.69,-0.122,1.196,0.025
40.7,-0.104,0.745,0.184
40.71,-0.17,1.006,0.016
40.72,-0.403,0.865,-0.195
40.73,-0.146,1.134,-0.073
40.74,-0.092,0.936,0.067
40.75,-0.179,0.768,0.146
40.76,-0.286,1.096,-0.112
40.77,-0.263,0.814,-0.156
40.78,-0.122,1.278,0.128
40.79,-0.073,0.707,0.122
40.8,-0.3,0.994,0.001
40.81,-0.392,0.995,-0.163
40.82,-0.11,1.056,-0.013
40.83,-0.253,0.95,0.166
40.84,-0.019,0.719,0.107
40.85,-0.4,1.179,-0.183
40.86,-0.275,0.846,-0.039
40.87,-0.058,1.24,0.09
40.88,-0.118,0.678,0.094
40.89,-0.31,1.005,-0.005
40.9,-0.328,1.036,-0.204
40.91,-0.128,0.97,-0.014
40.92,-0.148,1.075,0.15
40.93,-0.051,0.656,0.043
40.94,-0.482,1.249,-0.18
40.95,-0.061,0.888,-0.067
40.96,-0.118,1.158,0.087
40.97,-0.156,0.753,0.178
40.98,-0.321,0.98,-0.084
40.99,-0.319,1.057,-0.193
41.0,-0.145,0.979,0.094
41.01,-0.064,1.052,0.115
41.02,-0.165,0.681,0.023
41.03,-0.48,1.289,-0.187
41.04,-0.056,0.865,-0.055
41.05,-0.196,1.077,0.148
41.06,-0.089,0.798,0.081
41.07,-0.343,0.931,-0.143
41.08,-0.316,1.165,-0.088
41.09,-0.05,0.913,0.115
41.1,-0.127,1.02,0.107
41.11,-0.292,0.685,0.022
41.12,-0.38,1.293,-0.183
41.13,-0.018,0.882,-0.01
41.14,-0.236,1.037,0.205
41.15,-0.042,0.851,0.02
41.16,-0.39,0.948,-0.211
41.17,-0.281,1.232,-0.006
41.18,-0.041,0.818,0.082
41.19,-0.22,1.04,0.105
41.2,-0.184,0.718,-0.083
41.21,-0.294,1.22,-0.209
41.22,-0.118,0.947,0.096
41.23,-0.063,0.947,0.157
41.24,-0.196,0.875,-0.009
41.25,-0.394,0.949,-0.136
41.26,-0.141,1.303,-0.033
41.27,-0.173,0.694,0.117
41.28,-0.148,1.074,0.16
41.29,-0.285,0.772,-0.181
41.3,-0.333,1.167,-0.065
41.31,-0.066,1.025,0.058
41.32,-0.102,0.742,0.089
41.33,-0.295,1.006,0.017
41.34,-0.337,0.944,-0.221
41.35,-0.105,1.202,-0.051
41.36,-0.075,0.786,0.15
41.37,-0.177,0.994,0.09
41.38,-0.35,0.876,-0.164
41.39,-0.138,1.156,-0.079
41.4,-0.189,0.909,0.08
41.41,-0.15,0.717,0.21
41.42,-0.287,1.149,-0.102
41.43,-0.304,0.829,-0.18
41.44,-0.04,1.266,0.095
41.45,-0.087,0.693,0.092
41.46,-0.292,1.073,0.051
41.47,-0.334,0.927,-0.181
41.48,-0.225,1.117,-0.032
41.49,-0.16,0.853,0.199
41.5,-0.135,0.899,0.128
41.51,-0.407,0.985,-0.194
41.52,-0.256,0.879,-0.058
41.53,-0.044,1.312,0.02
41.54,-0.094,0.568,0.125
41.55,-0.297,1.094,0.056
41.56,-0.309,0.973,-0.264
41.57,-0.143,1.023,0.015
41.58,-0.122,0.966,0.17
41.59,-0.117,0.799,0.033
41.6,-0.382,1.125,-0.185
41.61,-0.163,0.93,0.006
41.62,-0.197,1.2,0.09
41.63,-0.134,0.616,0.135
41.64,-0.265,1.114,-0.068
41.65,-0.368,0.891,-0.211
41.66,-0.103,1.054,0.123
41.67,-0.077,1.093,0.137
41.68,-0.276,0.651,-0.01
41.69,-0.409,1.23,-0.105
41.7,-0.034,0.943,-0.081
41.71,-0.206,1.083,0.114
41.72,-0.041,0.729,0.2
41.73,-0.451,1.047,-0.174
41.74,-0.296,0.949,-0.125
41.75,-0.001,1.095,0.108
41.76,-0.138,0.927,0.097
41.77,-0.26,0.719,0.05
41.78,-0.34,1.366,-0.231
41.79,-0.118,0.786,-0.034
41.8,-0.148,1.147,0.167
41.81,-0.093,0.733,0.087
41.82,-0.467,1.033,-0.17
41.83,-0.148,1.138,-0.052
41.84,-0.119,0.892,0.072
41.85,-0.27,0.976,0.221
41.86,-0.228,0.706,-0.049
41.87,-0.403,1.221,-0.219
41.88,-0.121,0.853,0.137
41.89,-0.105,1.128,0.073
41.9,-0.134,0.745,-0.041
41.91,-0.42,1.024,-0.091
41.92,-0.123,1.169,-0.114
41.93,-0.151,0.755,0.093
41.94,-0.078,1.112,0.133
41.95,-0.365,0.685,-0.166
41.96,-0.338,1.159,-0.122
41.97,0.109,1.021,0.072
41.98,-0.168,0.89,0.091
41.99,-0.214,0.857,0.057
42.0,-0.35,1.066,-0.188
42.01,-0.219,1.1,-0.032
42.02,-0.137,0.779,0.248
42.03,-0.12,1.102,0.057
42.04,-0.411,0.75,-0.202
42.05,-0.228,1.222,-0.055
42.06,-0.036,0.928,0.048
42.07,-0.182,0.82,0.165
42.08,-0.15,1.019,-0.042
42.09,-0.4,0.918,-0.218
42.1,-0.198,1.091,0.046
42.11,-0.036,0.86,0.171
42.12,-0.192,1.021,0.043
42.13,-0.364,0.822,-0.138
42.14,-0.111,1.239,-0.08
42.15,-0.163,0.872,0.062
42.16,-0.193,0.798,0.224
42.17,-0.28,1.075,-0.131
42.18,-0.321,0.831,-0.175
42.19,-0.061,1.303,0.09
42.2,-0.102,0.687,0.134
42.21,-0.265,0.993,0.061
42.22,-0.287,1.002,-0.192
42.23,-0.178,1.096,-0.047
42.24,-0.199,0.918,0.115
42.25,-0.002,0.951,0.078
42.26,-0.461,0.984,-0.154
42.27,-0.274,0.919,-0.046
42.28,-0.068,1.245,0.092
42.29,-0.185,0.576,0.129
42.3,-0.295,1.097,0.034
42.31,-0.2,0.926,-0.249
42.32,-0.168,1.123,-0.014
42.33,-0.091,0.821,0.174
42.34,-0.095,0.868,0.061
42.35,-0.483,1.1,-0.161
42.36,-0.123,0.928,-0.017
42.37,-0.083,1.189,0.01
42.38,-0.315,0.929,-0.217
42.39,-0.14,1.119,0.085
42.4,-0.099,0.816,0.16
42.41,-0.215,1.013,0.038
42.42,-0.393,0.855,-0.153
42.43,-0.122,1.259,-0.104
42.44,-0.127,0.769,0.078
42.45,-0.135,0.917,0.184
42.46,-0.359,0.959,-0.119
42.47,-0.311,0.867,-0.137
42.48,-0.046,1.264,0.067
42.49,-0.143,0.698,0.13
42.5,-0.242,1.046,0.058
42.51,-0.35,0.912,-0.171
42.52,-0.238,1.163,0.019
42.53,-0.158,0.795,0.133
42.54,-0.099,0.904,0.115
42.55,-0.422,1.045,-0.159
42.56,-0.254,0.884,-0.049
42.57,-0.102,1.271,0.091
42.58,-0.102,0.606,0.094
42.59,-0.266,1.086,0.015
42.6,-0.329,0.947,-0.202
42.61,-0.168,1.043,0.019
42.62,-0.087,0.959,0.183
42.63,-0.151,0.793,0.069
42.64,-0.422,1.131,-0.202
42.65,-0.064,0.911,-0.032
42.66,-0.151,1.192,0.084
42.67,-0.121,0.622,0.185
42.68,-0.36,1.155,-0.063
42.69,-0.316,0.881,-0.215
42.7,-0.127,1.071,0.096
42.71,-0.104,1.016,0.122
42.72,-0.114,0.713,0.027
42.73,-0.47,1.232,-0.197
42.74,-0.053,0.877,-0.07
42.75,-0.149,1.178,0.099
42.76,-0.164,0.687,0.223
42.77,-0.373,1.031,-0.133
42.78,-0.268,0.968,-0.143
42.79,-0.055,1.073,0.104
42.8,-0.188,0.927,0.123
42.81,-0.193,0.698,0.022
42.82,-0.368,1.39,-0.222
42.83,-0.092,0.79,-0.038
42.84,-0.26,1.11,0.186
42.85,-0.07,0.769,0.115
42.86,-0.448,1.002,-0.187
42.87,-0.238,1.076,-0.047
42.88,0.007,0.99,0.056
42.89,-0.228,0.958,0.11
42.9,-0.187,0.716,0.007
42.91,-0.398,1.344,-0.25
42.92,-0.062,0.812,-0.021
42.93,-0.128,1.146,0.171
42.94,-0.169,0.768,0.07
42.95,-0.444,1.039,-0.162
42.96,-0.149,1.175,-0.071
42.97,-0.142,0.79,0.106
42.98,-0.231,1.061,0.166
42.99,-0.238,0.728,-0.1
43.0,-0.303,1.177,-0.168
43.01,0.002,0.905,0.089
43.02,-0.118,1.066,0.119
43.03,-0.235,0.693,0.058
43.04,-0.432,1.212,-0.171
43.05,-0.188,0.967,-0.039
43.06,-0.159,0.879,0.145
43.07,-0.104,1.018,0.12
43.08,-0.331,0.747,-0.208
43.09,-0.309,1.256,-0.009
43.1,-0.037,0.934,0.077
43.11,-0.134,0.945,0.121
43.12,-0.238,0.789,0.024
43.13,-0.39,1.164,-0.22
43.14,-0.075,1.026,-0.016
43.15,-0.171,0.857,0.237
43.16,-0.222,0.979,0.061
43.17,-0.345,0.823,-0.209
43.18,-0.186,1.331,-0.01
43.19,-0.11,0.814,0.125
43.2,-0.22,0.934,0.166
43.21,-0.198,0.877,-0.069
43.22,-0.395,1.031,-0.171
43.23,-0.116,1.094,0.032
43.24,-0.042,0.786,0.142
43.25,-0.242,1.014,0.022
43.26,-0.392,0.843,-0.163
43.27,-0.097,1.246,-0.094
43.28,-0.114,0.729,0.127
43.29,-0.194,0.948,0.176
43.3,-0.308,0.959,-0.128
43.31,-0.27,0.945,-0.121
43.32,-0.093,1.222,0.077
43.33,-0.063,0.657,0.117
43.34,-0.271,1.065,0.011
43.35,-0.342,0.916,-0.198
43.36,-0.119,1.149,-0.026
43.37,-0.154,0.784,0.161
43.38,-0.162,0.895,0.133
43.39,-0.332,1.084,-0.191
43.4,-0.242,0.899,-0.091
43.41,-0.102,1.176,0.12
43.42,-0.138,0.624,0.095
43.43,-0.293,1.051,-0.06
43.44,-0.303,0.946,-0.186
43.45,-0.098,1.136,0.034
43.46,-0.169,0.831,0.184
43.47,-0.118,0.812,0.011
43.48,-0.463,1.105,-0.244
43.49,-0.087,0.873,-0.029
43.5,-0.094,1.229,0.143
43.51,-0.22,0.604,0.107
43.52,-0.297,1.144,-0.117
43.53,-0.19,1.0,-0.21
43.54,-0.152,1.081,0.148
43.55,-0.169,0.88,0.18
43.56,-0.186,0.742,-0.027
43.57,-0.475,1.287,-0.158
43.58,-0.1,0.847,-0.001
43.59,-0.21,1.199,0.162
43.6,-0.068,0.717,0.111
43.61,-0.416,1.073,-0.215
43.62,-0.192,0.958,-0.11
43.63,-0.077,1.059,0.128
43.64,-0.175,0.894,0.136
43.65,-0.294,0.724,-0.031
43.66,-0.344,1.298,-0.213
43.67,-0.046,0.857,0.033
43.68,-0.164,1.15,0.177
43.69,-0.146,0.684,0.063
43.7,-0.468,1.126,-0.202
43.71,-0.052,1.08,-0.096
43.72,-0.1,0.869,0.112
43.73,-0.191,0.99,0.184
43.74,-0.328,0.708,-0.146
43.75,-0.323,1.201,-0.153
43.76,0.041,0.95,0.15
43.77,-0.198,1.038,0.121
43.78,-0.261,0.725,0.048
43.79,-0.327,1.143,-0.216
43.8,-0.136,1.074,-0.04
43.81,-0.117,0.829,0.228
43.82,-0.126,0.898,-0.003
43.83,-0.475,0.903,-0.12
43.84,-0.129,1.284,-0.087
43.85,-0.12,0.722,0.063
43.86,-0.154,1.047,0.204
43.87,-0.266,0.779,-0.11
43.88,-0.377,1.115,-0.097
43.89,-0.034,1.069,0.114
43.9,-0.142,0.865,0.127
43.91,-0.34,0.946,0.013
43.92,-0.262,0.993,-0.177
43.93,-0.232,1.243,-0.041
43.94,-0.089,0.676,0.157
43.95,-0.151,1.074,0.093
43.96,-0.375,0.813,-0.199
43.97,-0.269,1.089,-0.073
43.98,-0.051,1.092,0.065
43.99,-0.18,0.69,0.129
44.0,-0.257,1.079,0.017
44.01,-0.398,0.93,-0.223
44.02,-0.121,1.172,-0.011
44.03,0.003,0.812,0.15
44.04,-0.218,0.938,0.051
44.05,-0.37,0.908,-0.152
44.06,-0.09,1.113,-0.101
44.07,-0.103,0.99,0.097
44.08,-0.141,0.708,0.207
44.09,-0.391,1.143,-0.116
44.1,-0.291,0.818,-0.189
44.11,-0.042,1.299,0.108
44.12,-0.137,0.694,0.118
44.13,-0.224,0.932,0.022
44.14,-0.317,1.124,-0.167
44.15,-0.206,0.918,-0.009
44.16,-0.157,1.07,0.16
44.17,-0.054,0.699,0.133
44.18,-0.496,1.151,-0.164
44.19,-0.213,0.873,-0.073
44.2,-0.08,1.26,0.048
44.21,-0.138,0.684,0.13
44.22,-0.254,0.945,-0.011
44.23,-0.379,1.155,-0.197
44.24,-0.063,0.83,-0.006
44.25,-0.084,1.168,0.167
44.26,-0.104,0.649,0.047
44.27,-0.492,1.25,-0.184
44.28,-0.113,0.948,-0.021
44.29,-0.182,1.078,0.077
44.3,-0.131,0.822,0.155
44.31,-0.314,0.895,-0.123
44.32,-0.29,0.951,-0.111
44.33,-0.027,1.069,0.14
44.34,-0.194,0.964,0.126
44.35,-0.279,0.701,0.012
44.36,-0.347,1.355,-0.182
44.37,-0.142,0.8,-0.025
44.38,-0.229,1.085,0.209
44.39,-0.042,0.752,0.076
44.4,-0.532,1.044,-0.2
44.41,-0.194,1.077,-0.018
44.42,-0.051,0.981,0.101
44.43,-0.217,0.926,0.114
44.44,-0.178,0.736,-0.055
44.45,-0.339,1.339,-0.211
44.46,-0.174,0.834,0.081
44.47,-0.063,1.066,0.132
44.48,-0.2,0.736,-0.013
44.49,-0.447,1.095,-0.12
44.5,-0.095,1.134,-0.066
44.51,-0.182,0.812,0.102
44.52,-0.139,1.052,0.151
44.53,-0.281,0.715,-0.211
44.54,-0.269,1.253,-0.058
44.55,0.018,0.96,0.112
44.56,-0.22,0.865,0.117
44.57,-0.251,0.84,0.028
44.58,-0.3,1.077,-0.183
44.59,-0.156,1.128,0.012
44.6,-0.147,0.788,0.211
44.61,-0.106,1.037,0.04
44.62,-0.483,0.801,-0.162
44.63,-0.075,1.288,-0.099
44.64,-0.091,0.747,0.069
44.65,-0.198,0.983,0.163
44.66,-0.215,0.858,-0.182
44.67,-0.284,1.059,-0.173
44.68,-0.022,1.1,0.091
44.69,-0.089,0.711,0.092
44.7,-0.323,1.047,0.006
44.71,-0.353,0.879,-0.165
44.72,-0.138,1.187,-0.032
44.73,-0.105,0.795,0.172
44.74,-0.083,0.96,0.081
44.75,-0.416,0.928,-0.148
44.76,-0.28,1.053,-0.005
44.77,-0.118,1.114,0.05
44.78,-0.134,0.622,0.104
44.79,-0.28,1.14,-0.041
44.8,-0.305,0.86,-0.259
44.81,-0.118,1.202,0.027
44.82,-0.089,0.819,0.148
44.83,-0.217,0.846,-0.014
44.84,-0.349,1.09,-0.21
44.85,0.017,0.981,-0.141
44.86,-0.179,1.037,0.1
44.87,-0.098,0.704,0.209
44.88,-0.408,1.182,-0.148
44.89,-0.385,0.754,-0.125
44.9,0.043,1.275,0.082
44.91,-0.106,0.789,0.097
44.92,-0.342,0.882,0.092
44.93,-0.29,1.16,-0.248
44.94,-0.132,0.85,-0.052
44.95,-0.201,1.125,0.237
44.96,-0.111,0.679,0.104
44.97,-0.5,1.144,-0.205
44.98,-0.116,0.939,-0.025
44.99,-0.109,1.125,0.052
45.0,-0.189,0.791,0.141
45.01,-0.204,0.865,-0.076
45.02,-0.324,1.197,-0.184
45.03,-0.155,0.868,0.099
45.04,-0.105,1.18,0.16
45.05,-0.197,0.621,0.042
45.06,-0.455,1.222,-0.127
45.07,-0.104,0.975,-0.08
45.08,-0.234,0.969,0.133
45.09,-0.133,0.912,0.198
45.1,-0.292,0.812,-0.16
45.11,-0.302,1.194,-0.147
45.12,-0.01,0.946,0.102
45.13,-0.203,1.06,0.111
45.14,-0.22,0.664,0.019
45.15,-0.343,1.3,-0.214
45.16,-0.168,0.957,-0.012
45.17,-0.179,0.904,0.213
45.18,-0.141,0.969,0.121
45.19,-0.376,0.776,-0.167
45.2,-0.225,1.249,-0.115
45.21,0.038,0.914,0.071
45.22,-0.229,0.964,0.127
45.23,-0.198,0.785,-0.026
45.24,-0.297,1.183,-0.253
45.25,-0.158,0.956,-0.002
45.26,-0.014,0.904,0.204
45.27,-0.242,0.987,0.058
45.28,-0.466,0.743,-0.161
45.29,-0.054,1.317,-0.075
45.3,-0.101,0.813,0.082
45.31,-0.248,0.979,0.205
45.32,-0.179,0.884,-0.133
45.33,-0.352,1.052,-0.156
45.34,-0.124,1.143,0.143
45.35,-0.12,0.789,0.127
45.36,-0.346,0.983,0.01
45.37,-0.281,0.906,-0.192
45.38,-0.202,1.208,-0.035
45.39,-0.137,0.752,0.161
45.4,-0.162,0.986,0.136
45.41,-0.356,0.907,-0.196
45.42,-0.193,0.98,-0.123
45.43,-0.087,1.169,0.037
45.44,-0.054,0.616,0.135
45.45,-0.28,1.066,-0.051
45.46,-0.215,0.92,-0.172
45.47,-0.151,1.233,0.024
45.48,-0.133,0.735,0.186
45.49,-0.147,0.991,0.046
45.5,-0.474,0.901,-0.186
45.51,-0.065,1.094,-0.109
45.52,-0.141,0.944,0.073
45.53,-0.2,0.756,0.224
45.54,-0.342,1.12,-0.104
45.55,-0.285,0.762,-0.185
45.56,-0.096,1.292,0.136
45.57,-0.152,0.748,0.12
45.58,-0.243,0.959,-0.026
45.59,-0.36,1.062,-0.16
45.6,-0.128,1.011,-0.04
45.61,-0.231,0.958,0.158
45.62,-0.077,0.743,0.108
45.63,-0.398,1.134,-0.217
45.64,-0.225,0.833,-0.033
45.65,-0.104,1.283,0.1
45.66,-0.132,0.664,0.115
45.67,-0.271,0.988,0.015
45.68,-0.354,1.085,-0.244
45.69,-0.116,0.876,-0.013
45.7,-0.107,1.115,0.176
45.71,-0.083,0.697,0.022
45.72,-0.434,1.22,-0.189
45.73,-0.125,0.886,-0.045
45.74,-0.15,1.129,0.064
45.75,-0.081,0.747,0.155
45.76,-0.415,0.935,-0.076
45.77,-0.196,1.051,-0.187
45.78,-0.113,1.007,0.087
45.79,-0.147,1.022,0.143
45.8,-0.163,0.648,0.062
45.81,-0.443,1.366,-0.18
45.82,-0.071,0.868,-0.047
45.83,-0.159,1.058,0.175
45.84,-0.159,0.842,0.126
45.85,-0.371,0.87,-0.195
45.86,-0.255,1.157,-0.082
45.87,-0.052,0.961,0.116
45.88,-0.231,1.015,0.115
45.89,-0.18,0.672,0.041
45.9,-0.417,1.358,-0.244
45.91,-0.028,0.868,-0.018
45.92,-0.204,1.049,0.208
45.93,-0.136,0.836,0.041
45.94,-0.327,0.882,-0.212
45.95,-0.194,1.269,-0.038
45.96,0.002,0.795,0.111
45.97,-0.233,1.049,0.131
45.98,-0.228,0.728,-0.077
45.99,-0.355,1.233,-0.175
46.0,-0.16,0.948,0.082
46.01,-0.106,0.91,0.16
46.02,-0.146,0.937,0.016
46.03,-0.432,0.963,-0.15
46.04,-0.191,1.25,-0.042
46.05,-0.085,0.678,0.117
46.06,-0.162,1.056,0.137
46.07,-0.32,0.81,-0.148
46.08,-0.284,1.151,-0.114
46.09,-0.052,1.07,0.063
46.1,-0.149,0.718,0.138
46.11,-0.278,1.017,-0.005
46.12,-0.347,0.929,-0.204
46.13,-0.136,1.198,-0.014
46.14,-0.111,0.775,0.2
46.15,-0.191,0.989,0.056
46.16,-0.31,0.85,-0.178
46.17,-0.191,1.091,-0.07
46.18,-0.173,1.04,0.097
46.19,-0.05,0.751,0.162
46.2,-0.417,1.094,-0.045
46.21,-0.326,0.768,-0.177
46.22,-0.08,1.321,0.065
46.23,-0.137,0.807,0.155
46.24,-0.152,0.894,0.024
46.25,-0.329,1.014,-0.25
46.26,-0.107,1.038,-0.071
46.27,-0.093,0.841,0.085
46.28,-0.227,0.867,0.231
46.29,-0.448,1.043,-0.125
46.3,-0.201,0.896,-0.105
46.31,-0.11,1.296,0.123
46.32,-0.124,0.559,0.143
46.33,-0.274,1.072,0.001
46.34,-0.297,0.991,-0.209
46.35,-0.1,1.079,0.033
46.36,-0.186,0.926,0.188
46.37,-0.14,0.798,0.079
46.38,-0.432,1.167,-0.214
46.39,-0.207,0.883,-0.019
46.4,-0.157,1.231,0.107
46.41,-0.077,0.607,0.063
46.42,-0.286,1.077,-0.052
46.43,-0.266,1.034,-0.144
46.44,-0.187,1.04,0.031
46.45,-0.09,0.938,0.123
46.46,-0.13,0.721,0.006
46.47,-0.458,1.288,-0.195
46.48,-0.083,0.864,-0.027
46.49,-0.177,1.144,0.116
46.5,-0.17,0.724,0.198
46.51,-0.358,1.044,-0.173
46.52,-0.24,0.995,-0.192
46.53,0.001,1.035,0.106
46.54,-0.183,0.957,0.147
46.55,-0.258,0.683,0.011
46.56,-0.397,1.334,-0.196
46.57,-0.079,0.783,0.011
46.58,-0.173,1.155,0.182
46.59,-0.104,0.767,0.11
46.6,-0.442,1.004,-0.218
46.61,-0.138,1.123,-0.083
46.62,-0.082,0.915,0.097
46.63,-0.179,0.97,0.123
46.64,-0.224,0.727,-0.075
46.65,-0.352,1.292,-0.186
46.66,-0.148,0.869,0.073
46.67,-0.114,1.038,0.116
46.68,-0.183,0.79,0.001
46.69,-0.436,1.025,-0.149
46.7,-0.128,1.162,-0.089
46.71,-0.09,0.771,0.109
46.72,-0.256,1.079,0.168
46.73,-0.278,0.718,-0.141
46.74,-0.305,1.224,-0.159
46.75,-0.066,0.981,0.141
46.76,-0.112,0.884,0.115
46.77,-0.309,0.886,-0.038
46.78,-0.288,1.047,-0.176
46.79,-0.118,1.17,-0.036
46.8,-0.177,0.72,0.152
46.81,-0.138,1.066,0.054
46.82,-0.36,0.779,-0.222
46.83,-0.212,1.258,-0.038
46.84,-0.001,0.878,0.084
46.85,-0.221,0.829,0.161
46.86,-0.269,0.979,-0.095
46.87,-0.25,0.925,-0.209
46.88,-0.142,1.241,0.09
46.89,-0.052,0.684,0.151
46.9,-0.272,1.009,0.012
46.91,-0.413,0.884,-0.177
46.92,-0.098,1.146,-0.038
46.93,-0.171,0.858,0.128
46.94,-0.101,0.826,0.157
46.95,-0.32,1.079,-0.161
46.96,-0.26,0.861,-0.114
46.97,-0.085,1.298,0.079
46.98,-0.179,0.608,0.143
46.99,-0.278,1.042,0.035
47.0,-0.396,0.981,-0.216
47.01,-0.139,0.989,-0.016
47.02,-0.124,0.969,0.195
47.03,-0.107,0.785,0.087
47.04,-0.379,1.141,-0.205
47.05,-0.128,0.891,-0.036
47.06,-0.136,1.212,0.126
47.07,-0.187,0.639,0.193
47.08,-0.376,1.156,-0.081
47.09,-0.237,0.837,-0.168
47.1,-0.161,1.222,0.114
47.11,-0.135,0.832,0.126
47.12,-0.174,0.856,-0.007
47.13,-0.414,1.224,-0.212
47.14,-0.11,0.848,-0.038
47.15,-0.176,1.126,0.188
47.16,-0.178,0.691,0.131
47.17,-0.398,1.12,-0.155
47.18,-0.237,0.958,-0.081
47.19,-0.095,1.131,0.114
47.2,-0.131,0.791,0.169
47.21,-0.304,0.841,-0.014
47.22,-0.371,1.233,-0.234
47.23,-0.103,0.834,0.008
47.24,-0.095,1.184,0.128
47.25,-0.161,0.679,0.066
47.26,-0.366,1.159,-0.204
47.27,-0.198,1.024,-0.032
47.28,-0.14,0.964,0.081
47.29,-0.156,0.896,0.136
47.3,-0.289,0.839,-0.084
47.31,-0.314,1.207,-0.228
47.32,-0.056,0.884,0.115
47.33,-0.12,1.158,0.126
47.34,-0.198,0.642,0.036
47.35,-0.447,1.197,-0.125
47.36,-0.112,1.038,-0.091
47.37,-0.151,0.849,0.096
47.38,-0.099,1.011,0.125
47.39,-0.433,0.787,-0.165
47.4,-0.269,1.218,-0.123
47.41,0.02,0.946,0.114
47.42,-0.206,0.943,0.116
47.43,-0.232,0.746,0.022
47.44,-0.278,1.194,-0.23
47.45,-0.182,1.012,-0.039
47.46,-0.127,0.85,0.21
47.47,-0.164,1.018,0.024
47.48,-0.386,0.797,-0.185
47.49,-0.227,1.285,-0.012
47.5,-0.088,0.787,0.146
47.51,-0.213,0.969,0.197
47.52,-0.265,0.849,-0.072
47.53,-0.36,0.995,-0.158
47.54,-0.123,1.17,0.076
47.55,-0.093,0.766,0.143
47.56,-0.245,0.982,0.011
47.57,-0.353,0.93,-0.142
47.58,-0.213,1.266,-0.054
47.59,-0.162,0.7,0.133
47.6,-0.13,0.971,0.173
47.61,-0.377,0.948,-0.163
47.62,-0.194,0.971,-0.156
47.63,-0.074,1.219,0.08
47.64,-0.153,0.606,0.149
47.65,-0.272,1.097,0.006
47.66,-0.343,0.912,-0.25
47.67,-0.136,1.128,0.006
47.68,-0.114,0.87,0.154
47.69,-0.133,0.913,0.07
47.7,-0.362,1.01,-0.214
47.71,-0.204,0.941,-0.021
47.72,-0.081,1.202,0.073
47.73,-0.154,0.602,0.109
47.74,-0.28,1.157,-0.026
47.75,-0.296,0.921,-0.219
47.76,-0.119,1.11,-0.021
47.77,-0.068,0.9,0.159
47.78,-0.202,0.766,0.015
47.79,-0.448,1.13,-0.127
47.8,-0.145,0.945,-0.039
47.81,-0.189,1.1,0.059
47.82,-0.069,0.674,0.162
47.83,-0.395,1.154,-0.192
47.84,-0.233,0.852,-0.2
47.85,-0.026,1.17,0.088
47.86,-0.152,0.88,0.145
47.87,-0.308,0.777,-0.001
47.88,-0.317,1.275,-0.226
47.89,-0.14,0.856,-0.027
47.9,-0.175,1.081,0.192
47.91,-0.112,0.688,0.091
47.92,-0.507,1.214,-0.178
47.93,-0.093,0.876,-0.096
47.94,-0.145,1.151,0.097
47.95,-0.156,0.742,0.162
47.96,-0.307,0.938,-0.039
47.97,-0.305,1.068,-0.196
47.98,-0.118,0.962,0.114
47.99,-0.095,1.149,0.111
48.0,-0.174,0.586,-0.0
48.01,-0.504,1.263,-0.123
48.02,-0.017,0.902,-0.116
48.03,-0.19,1.006,0.114
48.04,-0.11,0.896,0.19
48.05,-0.318,0.899,-0.183
48.06,-0.372,1.113,-0.129
48.07,0.051,0.972,0.111
48.08,-0.175,1.025,0.102
48.09,-0.273,0.661,0.071
48.1,-0.326,1.375,-0.207
48.11,-0.171,0.836,-0.063
48.12,-0.168,0.969,0.227
48.13,-0.043,0.925,0.055
48.14,-0.429,0.814,-0.248
48.15,-0.173,1.258,-0.038
48.16,-0.066,0.862,0.082
48.17,-0.291,0.991,0.153
48.18,-0.154,0.745,0.001
48.19,-0.382,1.224,-0.206
48.2,-0.14,0.926,0.091
48.21,-0.068,0.968,0.127
48.22,-0.142,0.89,-0.003
48.23,-0.391,0.86,-0.116
48.24,-0.135,1.274,-0.096
48.25,-0.173,0.701,0.097
48.26,-0.121,1.064,0.093
48.27,-0.279,0.806,-0.149
48.28,-0.351,1.103,-0.174
48.29,0.069,1.075,0.035
48.3,-0.175,0.771,0.16
48.31,-0.31,0.996,0.066
48.32,-0.338,0.948,-0.234
48.33,-0.133,1.18,-0.071
48.34,-0.094,0.775,0.177
48.35,-0.185,1.023,0.073
48.36,-0.319,0.799,-0.18
48.37,-0.196,1.079,-0.062
