t,ax,ay,az
0.0,-0.26,0.95,0.008
0.01,-0.345,1.05,-0.167
0.02,-0.13,0.992,-0.035
0.03,-0.221,0.986,0.156
0.04,-0.09,0.769,0.138
0.05,-0.411,1.119,-0.217
0.06,-0.224,0.87,-0.06
0.07,-0.061,1.297,0.073
0.08,-0.105,0.68,0.13
0.09,-0.295,0.955,0.034
0.1,-0.406,1.095,-0.246
0.11,-0.029,0.892,0.012
0.12,-0.176,1.165,0.174
0.13,-0.084,0.626,0.029
0.14,-0.506,1.236,-0.163
0.15,-0.081,0.908,-0.096
0.16,-0.12,1.063,0.058
0.17,-0.159,0.838,0.228
0.18,-0.379,0.883,-0.112
0.19,-0.287,1.115,-0.172
0.2,0.002,0.974,0.042
0.21,-0.151,0.986,0.086
0.22,-0.234,0.641,0.059
0.23,-0.37,1.342,-0.217
0.24,-0.119,0.812,-0.057
0.25,-0.106,1.061,0.238
0.26,-0.172,0.859,0.086
0.27,-0.48,0.883,-0.18
0.28,-0.132,1.244,-0.053
0.29,-0.113,0.833,0.134
0.3,-0.262,1.003,0.22
0.31,-0.162,0.749,-0.109
0.32,-0.341,1.166,-0.255
0.33,-0.105,0.941,0.146
0.34,-0.102,1.007,0.123
0.35,-0.219,0.876,0.052
0.36,-0.394,0.959,-0.154
0.37,-0.215,1.224,-0.042
0.38,-0.237,0.717,0.168
0.39,-0.116,1.094,0.135
0.4,-0.352,0.75,-0.188
0.41,-0.315,1.144,-0.083
0.42,-0.019,1.024,0.023
0.43,-0.135,0.762,0.102
0.44,-0.206,1.008,0.053
0.45,-0.362,0.942,-0.228
0.46,-0.195,1.147,-0.049
0.47,-0.023,0.771,0.142
0.48,-0.161,1.002,0.075
0.49,-0.46,0.842,-0.124
0.5,-0.181,1.267,-0.063
0.51,-0.177,0.767,0.083
0.52,-0.086,0.924,0.159
0.53,-0.357,1.02,-0.146
0.54,-0.341,0.876,-0.155
0.55,-0.037,1.257,0.096
0.56,-0.137,0.685,0.139
0.57,-0.267,1.053,0.026
0.58,-0.288,0.942,-0.256
0.59,-0.092,1.068,-0.094
0.6,-0.125,0.874,0.15
0.61,-0.103,0.863,0.136
0.62,-0.426,1.061,-0.152
0.63,-0.315,0.875,-0.071
0.64,-0.044,1.239,0.045
0.65,-0.119,0.61,0.096
0.66,-0.332,1.073,0.009
0.67,-0.333,0.918,-0.216
0.68,-0.186,1.069,0.04
0.69,-0.09,0.959,0.135
0.7,-0.115,0.732,0.052
0.71,-0.508,1.205,-0.199
0.72,-0.074,0.859,-0.095
0.73,-0.198,1.159,0.122
0.74,-0.109,0.696,0.159
0.75,-0.352,1.091,-0.123
0.76,-0.281,0.93,-0.169
0.77,-0.056,1.07,0.047
0.78,-0.149,0.926,0.125
0.79,-0.216,0.72,0.008
0.8,-0.403,1.334,-0.155
0.81,-0.138,0.805,-0.048
0.82,-0.181,1.128,0.164
0.83,-0.034,0.78,0.126
0.84,-0.449,1.01,-0.2
0.85,-0.24,1.025,-0.096
0.86,-0.009,1.046,0.049
0.87,-0.149,0.929,0.091
0.88,-0.246,0.714,0.016
0.89,-0.4,1.391,-0.249
0.9,-0.029,0.767,-0.043
0.91,-0.136,1.148,0.145
0.92,-0.101,0.712,0.063
0.93,-0.498,1.019,-0.178
0.94,-0.006,1.147,-0.077
0.95,-0.135,0.873,0.068
0.96,-0.276,1.015,0.219
0.97,-0.231,0.724,-0.134
0.98,-0.328,1.237,-0.178
0.99,-0.071,0.927,0.113
1.0,-0.345,0.681,0.043
1.01,-0.403,1.339,-0.159
1.02,-0.081,0.869,-0.016
1.03,-0.258,1.124,0.191
1.04,-0.02,0.766,0.146
1.05,-0.414,1.042,-0.215
1.06,-0.223,1.012,-0.053
1.07,-0.047,1.051,0.092
1.08,-0.173,0.93,0.11
1.09,-0.26,0.711,-0.022
1.1,-0.355,1.345,-0.235
1.11,-0.12,0.796,0.025
1.12,-0.114,1.145,0.182
1.13,-0.13,0.733,0.032
1.14,-0.469,1.035,-0.153
1.15,-0.06,1.167,-0.053
1.16,-0.1,0.848,0.101
1.17,-0.259,0.992,0.224
1.18,-0.211,0.751,-0.129
1.19,-0.315,1.263,-0.167
1.2,-0.075,0.891,0.156
1.21,-0.191,1.008,0.153
1.22,-0.213,0.79,-0.03
1.23,-0.341,1.082,-0.174
1.24,-0.147,1.133,-0.021
1.25,-0.146,0.765,0.158
1.26,-0.166,0.971,0.087
1.27,-0.373,0.782,-0.191
1.28,-0.16,1.288,-0.056
1.29,-0.088,0.809,0.125
1.3,-0.242,0.981,0.202
1.31,-0.294,0.806,-0.039
1.32,-0.342,1.088,-0.19
1.33,-0.115,1.072,0.054
1.34,-0.092,0.802,0.124
1.35,-0.143,1.008,0.018
1.36,-0.451,0.878,-0.115
1.37,-0.134,1.256,-0.099
1.38,-0.096,0.705,0.098
1.39,-0.139,1.022,0.19
1.4,-0.407,0.89,-0.182
1.41,-0.235,0.955,-0.093
1.42,-0.095,1.268,0.129
1.43,-0.136,0.651,0.105
1.44,-0.267,1.061,0.005
1.45,-0.324,0.939,-0.195
1.46,-0.161,1.168,0.025
1.47,-0.165,0.767,0.172
1.48,-0.086,0.941,0.063
1.49,-0.407,1.003,-0.228
1.5,-0.199,0.965,-0.041
1.51,-0.086,1.172,0.071
1.52,-0.161,0.614,0.134
1.53,-0.287,1.155,-0.054
1.54,-0.328,0.85,-0.196
1.55,-0.155,1.131,0.078
1.56,-0.092,0.884,0.128
1.57,-0.164,0.818,0.026
1.58,-0.469,1.158,-0.173
1.59,-0.082,0.934,-0.078
1.6,-0.159,1.087,0.099
1.61,-0.178,0.688,0.239
1.62,-0.457,1.161,-0.134
1.63,-0.224,0.866,-0.163
1.64,-0.058,1.195,0.145
1.65,-0.154,0.822,0.098
1.66,-0.227,0.788,-0.019
1.67,-0.325,1.272,-0.238
1.68,-0.114,0.828,0.001
1.69,-0.186,1.133,0.149
1.7,-0.107,0.71,0.071
1.71,-0.479,1.159,-0.171
1.72,-0.174,0.98,-0.053
1.73,-0.141,1.001,0.137
1.74,-0.135,0.893,0.148
1.75,-0.241,0.804,-0.089
1.76,-0.411,1.241,-0.165
1.77,-0.051,0.834,0.055
1.78,-0.141,1.138,0.126
1.79,-0.138,0.652,-0.006
1.8,-0.441,1.201,-0.171
1.81,-0.065,1.052,-0.047
1.82,-0.111,0.859,0.108
1.83,-0.157,1.005,0.146
1.84,-0.358,0.783,-0.196
1.85,-0.27,1.223,-0.129
1.86,0.055,0.881,0.068
1.87,-0.175,0.993,0.124
1.88,-0.288,0.76,0.008
1.89,-0.324,1.161,-0.217
1.9,-0.071,1.033,-0.033
1.91,-0.088,0.832,0.188
1.92,-0.189,1.001,0.011
1.93,-0.477,0.797,-0.162
1.94,-0.054,1.289,-0.087
1.95,-0.151,0.754,0.115
1.96,-0.145,0.958,0.155
1.97,-0.284,0.911,-0.162
1.98,-0.345,0.998,-0.127
1.99,-0.022,1.172,0.076
2.0,-0.121,0.68,0.094
2.01,-0.281,1.099,0.035
2.02,-0.244,0.903,-0.261
2.03,-0.155,1.144,0.009
2.04,-0.14,0.812,0.198
2.05,-0.143,0.919,0.064
2.06,-0.408,0.99,-0.217
2.07,-0.124,1.0,-0.029
2.08,-0.126,0.96,0.124
2.09,-0.162,0.729,0.191
2.1,-0.338,1.106,-0.124
2.11,-0.331,0.81,-0.131
2.12,-0.156,1.309,0.137
2.13,-0.048,0.706,0.091
2.14,-0.322,0.97,0.009
2.15,-0.328,1.015,-0.159
2.16,-0.107,1.027,-0.021
2.17,-0.149,0.941,0.175
2.18,-0.045,0.764,0.101
2.19,-0.48,1.158,-0.246
2.2,-0.099,0.852,-0.054
2.21,-0.12,1.277,0.082
2.22,-0.152,0.627,0.128
2.23,-0.271,1.013,-0.02
2.24,-0.345,1.052,-0.201
2.25,-0.121,0.95,0.122
2.26,-0.129,1.127,0.162
2.27,-0.189,0.621,0.033
2.28,-0.478,1.273,-0.178
2.29,-0.058,0.856,-0.069
2.3,-0.217,1.094,0.144
2.31,-0.115,0.804,0.148
2.32,-0.361,0.95,-0.209
2.33,-0.299,1.067,-0.122
2.34,-0.008,0.983,0.129
2.35,-0.176,1.027,0.124
2.36,-0.253,0.653,-0.025
2.37,-0.337,1.322,-0.23
2.38,-0.068,0.871,0.004
2.39,-0.222,1.069,0.191
2.4,-0.104,0.802,0.028
2.41,-0.411,0.953,-0.207
2.42,-0.115,1.214,0.016
2.43,-0.117,0.821,0.146
2.44,-0.246,1.011,0.189
2.45,-0.263,0.752,-0.147
2.46,-0.285,1.244,-0.166
2.47,-0.064,0.954,0.092
2.48,-0.135,0.916,0.081
2.49,-0.259,0.868,0.0
2.5,-0.325,1.006,-0.185
2.51,-0.14,1.187,-0.013
2.52,-0.17,0.708,0.18
2.53,-0.114,1.063,0.058
2.54,-0.359,0.803,-0.224
2.55,-0.236,1.225,0.011
2.56,-0.098,0.93,0.092
2.57,-0.2,0.776,0.121
2.58,-0.245,1.07,-0.084
2.59,-0.292,0.917,-0.222
2.6,-0.148,1.18,0.156
2.61,-0.072,0.73,0.167
2.62,-0.289,1.007,-0.009
2.63,-0.393,0.957,-0.149
2.64,-0.141,1.117,-0.041
2.65,-0.197,0.871,0.121
2.66,-0.036,0.789,0.139
2.67,-0.486,1.15,-0.179
2.68,-0.256,0.852,-0.082
2.69,-0.025,1.269,0.074
2.7,-0.16,0.626,0.12
2.71,-0.256,1.028,-0.022
2.72,-0.34,1.036,-0.243
2.73,-0.139,0.966,0.023
2.74,-0.133,1.035,0.17
2.75,-0.144,0.663,0.016
2.76,-0.481,1.233,-0.19
2.77,-0.088,0.859,-0.017
2.78,-0.099,1.133,0.128
2.79,-0.117,0.732,0.152
2.8,-0.396,1.012,-0.13
2.81,-0.213,0.981,-0.178
2.82,-0.094,1.077,0.119
2.83,-0.156,0.961,0.125
2.84,-0.22,0.716,0.007
2.85,-0.471,1.356,-0.178
2.86,-0.102,0.803,-0.03
2.87,-0.104,1.127,0.167
2.88,-0.115,0.736,0.067
2.89,-0.473,1.15,-0.175
2.9,-0.072,0.99,-0.095
2.91,-0.153,0.924,0.079
2.92,-0.124,0.944,0.187
2.93,-0.369,0.786,-0.144
2.94,-0.321,1.182,-0.176
2.95,0.131,0.907,0.077
2.96,-0.206,1.052,0.142
2.97,-0.253,0.694,0.075
2.98,-0.345,1.229,-0.21
2.99,-0.184,0.971,-0.068
3.0,-0.076,0.898,0.219
3.01,-0.165,0.983,0.073
3.02,-0.478,0.78,-0.179
3.03,-0.08,1.285,-0.123
3.04,-0.072,0.815,0.126
3.05,-0.243,0.959,0.211
3.06,-0.244,0.818,-0.092
3.07,-0.337,1.111,-0.141
3.08,-0.103,1.107,0.091
3.09,-0.134,0.76,0.13
3.1,-0.28,1.02,0.057
3.11,-0.315,0.923,-0.242
3.12,-0.146,1.209,-0.011
3.13,-0.208,0.729,0.173
3.14,-0.147,0.977,0.12
3.15,-0.397,0.896,-0.168
3.16,-0.257,1.008,-0.068
3.17,-0.061,1.135,0.073
3.18,-0.146,0.656,0.117
3.19,-0.281,1.085,-0.011
3.2,-0.354,0.907,-0.21
3.21,-0.096,1.155,0.051
3.22,-0.083,0.829,0.174
3.23,-0.236,0.887,0.059
3.24,-0.382,1.038,-0.193
3.25,-0.133,1.026,0.001
3.26,-0.182,1.049,0.137
3.27,-0.171,0.675,0.105
3.28,-0.317,1.179,-0.147
3.29,-0.284,0.887,-0.122
3.3,-0.102,1.205,0.164
3.31,-0.135,0.759,0.103
3.32,-0.263,0.858,-0.048
3.33,-0.341,1.166,-0.183
3.34,-0.103,0.851,0.004
3.35,-0.144,1.099,0.232
3.36,-0.124,0.696,0.068
3.37,-0.518,1.155,-0.213
3.38,-0.038,0.912,-0.105
3.39,-0.07,1.124,0.092
3.4,-0.224,0.813,0.205
3.41,-0.27,0.844,-0.103
3.42,-0.333,1.205,-0.183
3.43,-0.034,0.869,0.101
3.44,-0.117,1.057,0.089
3.45,-0.254,0.654,0.029
3.46,-0.356,1.281,-0.188
3.47,-0.124,0.903,-0.032
3.48,-0.133,0.968,0.225
3.49,-0.177,0.933,0.097
3.5,-0.424,0.803,-0.198
3.51,-0.194,1.3,-0.031
3.52,-0.071,0.807,0.114
3.53,-0.26,0.995,0.161
3.54,-0.184,0.744,-0.081
3.55,-0.376,1.193,-0.22
3.56,-0.038,0.972,0.076
3.57,-0.036,0.925,0.168
3.58,-0.299,0.943,0.013
3.59,-0.305,0.888,-0.174
3.6,-0.099,1.279,-0.045
3.61,-0.156,0.722,0.157
3.62,-0.156,1.055,0.15
3.63,-0.368,0.826,-0.178
3.64,-0.313,1.101,-0.062
3.65,0.029,1.12,0.065
3.66,-0.174,0.651,0.095
3.67,-0.284,1.062,-0.009
3.68,-0.309,0.903,-0.206
3.69,-0.17,1.206,0.025
3.7,-0.066,0.773,0.167
3.71,-0.265,1.004,-0.027
3.72,-0.427,0.87,-0.124
3.73,-0.136,1.224,0.01
3.74,-0.187,0.824,0.106
3.75,-0.037,0.847,0.135
3.76,-0.382,1.068,-0.208
3.77,-0.245,0.883,-0.063
3.78,-0.022,1.273,0.097
3.79,-0.143,0.633,0.084
3.8,-0.306,1.086,0.014
3.81,-0.313,0.94,-0.253
3.82,-0.122,1.033,0.032
3.83,-0.105,0.969,0.175
3.84,-0.191,0.752,0.037
3.85,-0.434,1.181,-0.174
3.86,-0.111,0.884,-0.091
3.87,-0.139,1.124,0.088
3.88,-0.082,0.709,0.155
3.89,-0.349,1.106,-0.168
3.9,-0.307,0.968,-0.134
3.91,-0.033,1.117,0.097
3.92,-0.187,0.89,0.134
3.93,-0.205,0.738,0.026
3.94,-0.432,1.378,-0.203
3.95,-0.095,0.737,0.014
3.96,-0.206,1.195,0.217
3.97,-0.096,0.709,0.057
3.98,-0.488,1.06,-0.203
3.99,-0.107,1.119,-0.021
4.0,-0.09,0.912,0.129
4.01,-0.212,0.969,0.157
4.02,-0.239,0.766,-0.092
4.03,-0.341,1.254,-0.202
4.04,-0.066,0.912,0.131
4.05,-0.183,1.048,0.172
4.06,-0.267,0.726,-0.017
4.07,-0.375,1.131,-0.168
4.08,-0.144,1.063,-0.036
4.09,-0.197,0.784,0.168
4.1,-0.167,1.052,0.111
4.11,-0.349,0.748,-0.203
4.12,-0.277,1.26,-0.032
4.13,-0.056,0.864,0.106
4.14,-0.219,0.903,0.136
4.15,-0.258,0.898,-0.051
4.16,-0.317,1.083,-0.21
4.17,-0.179,1.115,0.053
4.18,-0.083,0.785,0.138
4.19,-0.164,1.009,0.0
4.2,-0.438,0.847,-0.168
4.21,-0.066,1.272,-0.073
4.22,-0.127,0.797,0.097
4.23,-0.157,0.898,0.153
4.24,-0.335,0.995,-0.17
4.25,-0.291,0.968,-0.115
4.26,-0.073,1.186,0.114
4.27,-0.059,0.607,0.099
4.28,-0.343,1.101,0.0
4.29,-0.282,0.912,-0.215
4.3,-0.087,1.112,-0.023
4.31,-0.14,0.838,0.207
4.32,-0.179,0.852,0.08
4.33,-0.408,1.12,-0.239
4.34,-0.087,0.902,-0.044
4.35,-0.108,1.166,0.106
4.36,-0.259,0.646,0.179
4.37,-0.356,1.131,-0.106
4.38,-0.246,0.943,-0.19
4.39,-0.044,1.136,0.095
4.4,-0.087,0.854,0.119
4.41,-0.286,0.775,0.072
4.42,-0.437,1.19,-0.245
4.43,-0.033,0.832,-0.033
4.44,-0.124,1.187,0.164
4.45,-0.119,0.625,0.054
4.46,-0.451,1.147,-0.173
4.47,-0.115,1.038,-0.148
4.48,-0.091,0.948,0.092
4.49,-0.124,0.95,0.188
4.5,-0.323,0.787,-0.114
4.51,-0.306,1.172,-0.148
4.52,-0.001,0.955,0.133
4.53,-0.23,1.005,0.138
4.54,-0.139,0.671,0.018
4.55,-0.441,1.341,-0.242
4.56,-0.132,0.794,0.014
4.57,-0.102,1.115,0.189
4.58,-0.132,0.843,0.035
4.59,-0.473,0.905,-0.136
4.6,-0.128,1.286,-0.045
4.61,-0.097,0.786,0.1
4.62,-0.2,0.999,0.16
4.63,-0.208,0.755,-0.089
4.64,-0.404,1.226,-0.225
4.65,0.024,0.924,0.093
4.66,-0.122,0.984,0.138
4.67,-0.325,0.841,0.039
4.68,-0.414,0.959,-0.113
4.69,-0.15,1.293,-0.052
4.7,-0.152,0.653,0.112
4.71,-0.094,1.081,0.076
4.72,-0.407,0.79,-0.191
4.73,-0.239,1.215,-0.011
4.74,-0.017,0.997,0.068
4.75,-0.276,0.699,0.107
4.76,-0.157,1.077,-0.039
4.77,-0.339,0.969,-0.218
4.78,-0.236,1.147,0.115
4.79,0.012,0.716,0.141
4.8,-0.296,1.021,-0.044
4.81,-0.364,0.906,-0.159
4.82,-0.115,1.144,-0.037
4.83,-0.241,0.925,0.14
4.84,-0.013,0.774,0.126
4.85,-0.464,1.113,-0.125
4.86,-0.326,0.848,-0.024
4.87,-0.029,1.313,0.115
4.88,-0.195,0.628,0.136
4.89,-0.255,1.044,-0.017
4.9,-0.325,1.037,-0.229
4.91,-0.162,0.986,0.04
4.92,-0.046,1.071,0.152
4.93,-0.157,0.648,0.0
4.94,-0.508,1.197,-0.183
4.95,-0.108,0.927,-0.063
4.96,-0.18,1.087,0.146
4.97,-0.179,0.73,0.23
4.98,-0.394,1.017,-0.171
4.99,-0.25,0.956,-0.198
5.0,0.022,1.082,0.132
5.01,-0.182,1.002,0.14
5.02,-0.245,0.706,0.035
5.03,-0.358,1.35,-0.266
5.04,-0.126,0.765,-0.032
5.05,-0.147,1.13,0.193
5.06,-0.131,0.75,0.027
5.07,-0.431,0.994,-0.18
5.08,-0.128,1.188,-0.081
5.09,-0.08,0.84,0.079
5.1,-0.181,1.023,0.17
5.11,-0.222,0.717,-0.121
5.12,-0.355,1.23,-0.187
5.13,-0.007,0.968,0.107
5.14,-0.156,0.982,0.082
5.15,-0.234,0.816,0.005
5.16,-0.318,1.067,-0.205
5.17,-0.106,1.176,-0.074
5.18,-0.14,0.746,0.158
5.19,-0.18,1.054,0.116
5.2,-0.371,0.732,-0.203
5.21,-0.122,1.258,-0.057
5.22,-0.097,0.911,0.117
5.23,-0.214,0.834,0.152
5.24,-0.256,0.972,-0.04
5.25,-0.382,0.968,-0.165
5.26,-0.122,1.19,0.074
5.27,-0.102,0.777,0.149
5.28,-0.175,1.019,0.01
5.29,-0.393,0.864,-0.194
5.3,-0.137,1.19,-0.055
5.31,-0.109,0.829,0.086
5.32,-0.118,0.864,0.166
5.33,-0.376,1.044,-0.163
5.34,-0.264,1.042,-0.017
5.35,-0.096,1.184,0.116
5.36,-0.178,0.617,0.124
5.37,-0.241,1.102,0.007
5.38,-0.372,0.92,-0.205
5.39,-0.143,1.126,0.02
5.4,-0.023,0.839,0.158
5.41,-0.18,0.897,0.042
5.42,-0.359,1.055,-0.186
5.43,-0.229,0.997,-0.03
5.44,-0.162,1.072,0.094
5.45,-0.149,0.677,0.193
5.46,-0.349,1.156,-0.158
5.47,-0.263,0.818,-0.185
5.48,-0.065,1.245,0.075
5.49,-0.1,0.769,0.109
5.5,-0.268,0.868,0.051
5.51,-0.389,1.19,-0.253
5.52,-0.013,0.824,-0.077
5.53,-0.182,1.171,0.175
5.54,-0.144,0.651,0.1
5.55,-0.404,1.136,-0.178
5.56,-0.197,0.981,-0.085
5.57,-0.048,1.071,0.096
5.58,-0.247,0.805,0.149
5.59,-0.221,0.865,-0.021
5.6,-0.316,1.261,-0.208
5.61,-0.088,0.818,0.041
5.62,-0.121,1.172,0.171
5.63,-0.139,0.635,0.001
5.64,-0.475,1.156,-0.193
5.65,-0.068,1.01,-0.027
5.66,-0.131,0.96,0.116
5.67,-0.218,0.867,0.191
5.68,-0.26,0.832,-0.162
5.69,-0.316,1.228,-0.165
5.7,-0.111,0.877,0.147
5.71,-0.071,1.075,0.072
5.72,-0.233,0.655,-0.01
5.73,-0.384,1.224,-0.104
5.74,-0.117,1.035,-0.014
5.75,-0.289,0.817,0.175
5.76,-0.069,1.012,0.08
5.77,-0.402,0.818,-0.252
5.78,-0.101,1.164,-0.049
5.79,-0.008,0.862,0.135
5.8,-0.347,1.038,0.188
5.81,-0.143,0.721,-0.105
5.82,-0.29,1.244,-0.207
5.83,-0.185,0.946,0.164
5.84,-0.086,0.911,0.125
5.85,-0.3,0.894,-0.034
5.86,-0.411,0.948,-0.167
5.87,-0.113,1.199,-0.046
5.88,-0.162,0.772,0.169
5.89,-0.101,1.078,0.078
5.9,-0.312,0.769,-0.207
5.91,-0.167,1.187,-0.089
5.92,-0.091,1.01,0.088
5.93,-0.148,0.766,0.154
5.94,-0.326,1.019,-0.041
5.95,-0.264,0.912,-0.217
5.96,-0.194,1.22,0.075
5.97,-0.132,0.748,0.158
5.98,-0.199,0.999,0.026
5.99,-0.374,0.887,-0.206
6.0,-0.115,1.126,-0.086
6.01,-0.158,0.923,0.151
6.02,-0.214,0.763,0.158
6.03,-0.327,1.098,-0.157
6.04,-0.213,0.854,-0.16
6.05,-0.059,1.289,0.1
6.06,-0.063,0.616,0.109
6.07,-0.244,1.017,0.011
6.08,-0.37,1.034,-0.191
6.09,-0.081,0.981,-0.018
6.1,-0.218,1.014,0.175
6.11,-0.139,0.738,0.113
6.12,-0.445,1.187,-0.204
6.13,-0.183,0.856,-0.04
6.14,-0.084,1.218,0.091
6.15,-0.118,0.657,0.137
6.16,-0.323,1.142,-0.133
6.17,-0.274,0.856,-0.235
6.18,-0.067,1.153,0.121
6.19,-0.083,0.914,0.146
6.2,-0.318,0.771,0.002
6.21,-0.32,1.231,-0.201
6.22,-0.093,0.876,-0.084
6.23,-0.178,1.125,0.215
6.24,-0.055,0.697,0.104
6.25,-0.458,1.112,-0.191
6.26,-0.224,1.004,-0.019
6.27,-0.073,1.054,0.065
6.28,-0.193,0.867,0.15
6.29,-0.249,0.796,-0.001
6.3,-0.338,1.269,-0.225
6.31,-0.148,0.819,0.056
6.32,-0.003,1.132,0.086
6.33,-0.126,0.664,0.016
6.34,-0.483,1.13,-0.128
6.35,-0.117,1.029,-0.082
6.36,-0.137,0.842,0.104
6.37,-0.151,0.999,0.171
6.38,-0.318,0.767,-0.184
6.39,-0.236,1.167,-0.145
6.4,0.014,0.977,0.076
6.41,-0.15,0.972,0.108
6.42,-0.236,0.743,0.028
6.43,-0.345,1.198,-0.19
6.44,-0.1,0.997,-0.023
6.45,-0.172,0.809,0.202
6.46,-0.174,0.973,0.06
6.47,-0.394,0.792,-0.188
6.48,-0.161,1.319,-0.09
6.49,-0.045,0.783,0.102
6.5,-0.24,0.937,0.202
6.51,-0.217,0.891,-0.086
6.52,-0.343,1.031,-0.178
6.53,-0.182,1.121,0.147
6.54,-0.048,0.799,0.15
6.55,-0.272,1.005,-0.013
6.56,-0.405,0.883,-0.135
6.57,-0.192,1.258,-0.066
6.58,-0.172,0.717,0.156
6.59,-0.122,0.953,0.16
6.6,-0.349,0.968,-0.172
6.61,-0.217,0.936,-0.132
6.62,-0.046,1.246,0.06
6.63,-0.066,0.648,0.126
6.64,-0.296,1.092,-0.005
6.65,-0.323,0.918,-0.232
6.66,-0.098,1.148,0.01
6.67,-0.182,0.862,0.153
6.68,-0.155,0.852,0.107
6.69,-0.425,1.088,-0.21
6.7,-0.131,0.902,-0.099
6.71,-0.114,1.131,0.077
6.72,-0.157,0.653,0.156
6.73,-0.274,1.115,-0.081
6.74,-0.364,0.868,-0.154
6.75,-0.14,1.172,0.134
6.76,-0.105,0.944,0.112
6.77,-0.184,0.778,-0.012
6.78,-0.41,1.233,-0.169
6.79,-0.068,0.868,-0.06
6.8,-0.171,1.109,0.1
6.81,-0.06,0.747,0.151
6.82,-0.444,1.113,-0.16
6.83,-0.272,0.898,-0.149
6.84,0.014,1.178,0.116
6.85,-0.174,0.867,0.09
6.86,-0.312,0.765,0.067
6.87,-0.299,1.321,-0.234
6.88,-0.108,0.812,-0.005
6.89,-0.196,1.12,0.212
6.9,-0.066,0.717,0.062
6.91,-0.522,1.134,-0.192
6.92,-0.104,1.03,-0.048
6.93,-0.13,0.952,0.112
6.94,-0.187,0.948,0.168
6.95,-0.301,0.772,-0.069
6.96,-0.332,1.223,-0.163
6.97,-0.093,0.955,0.143
6.98,-0.157,1.087,0.104
6.99,-0.163,0.598,-0.017
7.0,-0.374,1.314,-0.205
7.01,-0.018,0.916,-0.061
7.02,-0.216,0.983,0.168
7.03,-0.173,0.903,0.111
7.04,-0.367,0.85,-0.19
7.05,-0.226,1.227,-0.104
7.06,0.02,0.902,0.114
7.07,-0.204,0.994,0.089
7.08,-0.32,0.697,-0.005
7.09,-0.295,1.268,-0.252
7.1,-0.112,0.921,-0.003
7.11,-0.095,0.924,0.213
7.12,-0.166,0.93,0.007
7.13,-0.419,0.832,-0.2
7.14,-0.094,1.314,-0.036
7.15,-0.116,0.756,0.116
7.16,-0.216,1.035,0.154
7.17,-0.206,0.825,-0.181
7.18,-0.297,1.152,-0.119
7.19,-0.105,1.037,0.17
7.2,-0.095,0.778,0.147
7.21,-0.278,0.99,-0.014
7.22,-0.348,0.922,-0.151
7.23,-0.115,1.244,-0.037
7.24,-0.143,0.736,0.156
7.25,-0.11,1.038,0.091
7.26,-0.372,0.852,-0.214
7.27,-0.203,1.068,-0.045
7.28,-0.078,1.124,0.115
7.29,-0.123,0.641,0.095
7.3,-0.281,1.103,-0.052
7.31,-0.229,0.901,-0.247
7.32,-0.122,1.193,0.045
7.33,-0.125,0.762,0.186
7.34,-0.18,0.947,0.016
7.35,-0.424,0.99,-0.205
7.36,-0.115,1.032,-0.005
7.37,-0.109,1.035,0.138
7.38,-0.197,0.691,0.15
7.39,-0.319,1.185,-0.151
7.4,-0.199,0.863,-0.145
7.41,-0.126,1.235,0.18
7.42,-0.149,0.739,0.141
7.43,-0.307,0.875,-0.04
7.44,-0.299,1.126,-0.2
7.45,-0.101,0.922,0.05
7.46,-0.212,1.068,0.213
7.47,-0.074,0.687,0.027
7.48,-0.43,1.215,-0.193
7.49,-0.144,0.914,-0.023
7.5,-0.09,1.122,0.127
7.51,-0.165,0.808,0.132
7.52,-0.318,0.88,-0.084
7.53,-0.23,1.165,-0.215
7.54,-0.106,0.92,0.116
7.55,-0.091,1.079,0.145
7.56,-0.186,0.636,0.004
7.57,-0.447,1.303,-0.179
7.58,-0.033,0.914,-0.033
7.59,-0.159,0.951,0.127
7.6,-0.167,0.916,0.125
7.61,-0.363,0.867,-0.22
7.62,-0.274,1.19,-0.099
7.63,0.014,0.88,0.131
7.64,-0.18,1.037,0.109
7.65,-0.277,0.693,0.007
7.66,-0.356,1.237,-0.179
7.67,-0.094,0.947,0.058
7.68,-0.118,0.925,0.18
7.69,-0.206,0.889,-0.026
7.7,-0.436,0.907,-0.157
7.71,-0.111,1.283,-0.011
7.72,-0.106,0.71,0.108
7.73,-0.117,1.05,0.13
7.74,-0.354,0.791,-0.154
7.75,-0.311,1.149,-0.058
7.76,-0.013,1.06,0.081
7.77,-0.165,0.723,0.095
7.78,-0.299,1.028,0.006
7.79,-0.343,1.03,-0.173
7.8,-0.183,1.156,0.107
7.81,-0.06,0.705,0.15
7.82,-0.213,1.031,-0.017
7.83,-0.362,0.885,-0.164
7.84,-0.154,1.19,-0.052
7.85,-0.15,0.825,0.164
7.86,-0.161,0.925,0.163
7.87,-0.387,0.995,-0.154
7.88,-0.265,0.937,-0.118
7.89,-0.048,1.252,0.101
7.9,-0.117,0.608,0.086
7.91,-0.277,1.061,-0.023
7.92,-0.315,0.972,-0.177
7.93,-0.141,1.084,0.012
7.94,-0.17,0.875,0.151
7.95,-0.129,0.809,0.012
7.96,-0.469,1.138,-0.182
7.97,-0.094,0.943,-0.047
7.98,-0.176,1.142,0.109
7.99,-0.242,0.632,0.218
8.0,-0.313,1.085,-0.112
8.01,-0.217,0.961,-0.223
8.02,-0.023,1.108,0.104
8.03,-0.13,0.875,0.141
8.04,-0.301,0.759,0.003
8.05,-0.381,1.253,-0.235
8.06,-0.038,0.812,-0.004
8.07,-0.285,1.155,0.201
8.08,-0.005,0.675,0.063
8.09,-0.431,1.096,-0.22
8.1,-0.138,1.011,-0.095
8.11,-0.031,1.026,0.101
8.12,-0.196,0.898,0.145
8.13,-0.257,0.762,-0.057
8.14,-0.353,1.257,-0.184
8.15,-0.102,0.873,0.098
8.16,-0.133,1.084,0.118
8.17,-0.092,0.664,-0.03
8.18,-0.463,1.215,-0.147
8.19,-0.141,1.059,-0.063
8.2,-0.151,0.827,0.146
8.21,-0.173,1.03,0.171
8.22,-0.323,0.775,-0.197
8.23,-0.258,1.216,-0.152
8.24,0.071,0.907,0.067
8.25,-0.134,0.974,0.136
8.26,-0.382,0.786,0.028
8.27,-0.294,1.108,-0.211
8.28,-0.079,1.092,-0.01
8.29,-0.137,0.788,0.19
8.3,-0.136,1.013,0.045
8.31,-0.357,0.837,-0.206
8.32,-0.201,1.279,-0.054
8.33,-0.025,0.789,0.104
8.34,-0.218,0.96,0.132
8.35,-0.286,0.897,-0.11
8.36,-0.218,0.963,-0.162
8.37,-0.166,1.205,0.108
8.38,-0.056,0.656,0.113
8.39,-0.278,1.042,-0.018
8.4,-0.373,0.925,-0.126
8.41,-0.117,1.205,-0.028
8.42,-0.128,0.779,0.147
8.43,-0.126,0.917,0.114
8.44,-0.429,1.035,-0.197
8.45,-0.213,0.886,-0.018
8.46,-0.092,1.251,0.114
8.47,-0.11,0.627,0.128
8.48,-0.323,1.112,-0.039
8.49,-0.249,0.906,-0.214
8.5,-0.101,1.144,0.048
8.51,-0.093,0.866,0.152
8.52,-0.206,0.784,-0.01
8.53,-0.475,1.164,-0.174
8.54,-0.043,0.92,-0.086
8.55,-0.156,1.081,0.098
8.56,-0.141,0.704,0.185
8.57,-0.44,1.125,-0.145
8.58,-0.279,0.902,-0.149
8.59,0.038,1.164,0.082
8.6,-0.137,0.688,0.09
8.61,-0.28,0.932,-0.021
8.62,-0.299,1.123,-0.214
8.63,-0.147,0.897,0.051
8.64,-0.095,1.102,0.191
8.65,-0.205,0.633,-0.001
8.66,-0.485,1.223,-0.189
8.67,-0.094,0.926,-0.057
8.68,-0.152,1.062,0.077
8.69,-0.154,0.786,0.204
8.7,-0.323,0.938,-0.165
8.71,-0.246,1.116,-0.202
8.72,0.044,0.956,0.144
8.73,-0.19,1.059,0.144
8.74,-0.301,0.646,0.024
8.75,-0.323,1.317,-0.216
8.76,-0.103,0.901,-0.006
8.77,-0.149,1.003,0.167
8.78,-0.099,0.853,0.06
8.79,-0.436,0.93,-0.181
8.8,-0.145,1.217,-0.048
8.81,-0.089,0.745,0.092
8.82,-0.219,1.054,0.178
8.83,-0.273,0.76,-0.1
8.84,-0.346,1.134,-0.176
8.85,-0.065,1.004,0.105
8.86,-0.154,0.931,0.12
8.87,-0.218,0.912,0.017
8.88,-0.378,0.973,-0.197
8.89,-0.043,1.226,-0.072
8.9,-0.162,0.669,0.142
8.91,-0.15,1.062,0.144
8.92,-0.359,0.825,-0.188
8.93,-0.312,1.103,-0.076
8.94,0.004,1.032,0.122
8.95,-0.219,0.742,0.136
8.96,-0.299,0.983,-0.03
8.97,-0.259,0.955,-0.21
8.98,-0.091,1.249,0.005
8.99,-0.061,0.717,0.189
9.0,-0.197,1.01,0.026
9.01,-0.483,0.887,-0.188
9.02,-0.082,1.116,-0.018
9.03,-0.125,0.986,0.125
9.04,-0.274,0.731,0.201
9.05,-0.328,1.121,-0.16
9.06,-0.29,0.843,-0.146
9.07,-0.018,1.276,0.147
9.08,-0.08,0.683,0.149
9.09,-0.435,0.957,0.03
9.1,-0.218,1.055,-0.22
9.11,-0.078,1.02,-0.039
9.12,-0.224,0.996,0.223
9.13,-0.011,0.717,0.053
9.14,-0.532,1.222,-0.172
9.15,-0.061,0.876,-0.037
9.16,-0.092,1.147,0.073
9.17,-0.197,0.737,0.182
9.18,-0.298,0.967,-0.107
9.19,-0.261,1.088,-0.193
9.2,-0.146,0.958,0.113
9.21,-0.101,1.023,0.081
9.22,-0.18,0.65,-0.012
9.23,-0.45,1.381,-0.157
9.24,-0.116,0.841,-0.046
9.25,-0.164,1.031,0.196
9.26,-0.046,0.86,0.131
9.27,-0.464,0.903,-0.181
9.28,-0.268,1.12,-0.076
9.29,0.02,0.931,0.087
9.3,-0.263,1.043,0.13
9.31,-0.208,0.702,-0.047
9.32,-0.395,1.298,-0.176
9.33,-0.122,0.906,0.079
9.34,-0.491,1.052,-0.167
9.35,-0.049,0.992,-0.095
9.36,-0.139,1.004,0.083
9.37,-0.146,0.858,0.179
9.38,-0.327,0.858,-0.132
9.39,-0.282,1.147,-0.176
9.4,0.055,0.972,0.095
9.41,-0.194,1.035,0.089
9.42,-0.265,0.662,0.037
9.43,-0.302,1.277,-0.226
9.44,-0.097,0.919,-0.035
9.45,-0.133,0.941,0.244
9.46,-0.18,0.93,0.077
9.47,-0.425,0.793,-0.187
9.48,-0.133,1.3,-0.104
9.49,-0.086,0.765,0.099
9.5,-0.178,1.025,0.209
9.51,-0.291,0.769,-0.1
9.52,-0.29,1.096,-0.175
9.53,-0.103,1.096,0.135
9.54,-0.128,0.848,0.147
9.55,-0.286,0.955,0.044
9.56,-0.344,0.974,-0.137
9.57,-0.204,1.26,-0.038
9.58,-0.206,0.666,0.208
9.59,-0.1,1.02,0.131
9.6,-0.376,0.856,-0.218
9.61,-0.245,1.102,-0.077
9.62,-0.042,1.093,0.035
9.63,-0.145,0.677,0.094
9.64,-0.25,1.092,0.002
9.65,-0.334,0.898,-0.224
9.66,-0.196,1.205,0.076
9.67,0.008,0.812,0.11
9.68,-0.163,0.925,0.085
9.69,-0.439,0.978,-0.149
9.7,-0.103,1.017,-0.097
9.71,-0.148,1.028,0.076
9.72,-0.204,0.772,0.192
9.73,-0.331,1.069,-0.143
9.74,-0.356,0.797,-0.146
9.75,0.042,1.274,0.054
9.76,-0.073,0.734,0.075
9.77,-0.331,0.872,0.06
9.78,-0.2,1.156,-0.206
9.79,-0.146,0.892,-0.113
9.8,-0.148,1.048,0.219
9.81,-0.134,0.709,0.105
9.82,-0.551,1.144,-0.172
9.83,-0.129,0.911,-0.081
9.84,-0.072,1.132,0.082
9.85,-0.236,0.753,0.22
9.86,-0.287,0.909,-0.052
9.87,-0.309,1.118,-0.24
9.88,-0.058,0.882,0.049
9.89,-0.094,1.189,0.143
9.9,-0.125,0.634,0.025
9.91,-0.523,1.255,-0.159
9.92,-0.145,0.957,-0.066
9.93,-0.135,1.026,0.094
9.94,-0.156,0.87,0.162
9.95,-0.319,0.856,-0.143
9.96,-0.261,1.125,-0.181
9.97,-0.057,0.909,0.124
9.98,-0.134,1.116,0.133
9.99,-0.267,0.63,0.006
10.0,-0.321,1.261,-0.184
10.01,-0.166,0.986,-0.013
10.02,-0.229,0.927,0.185
10.03,-0.09,0.931,0.082
10.04,-0.421,0.832,-0.191
10.05,-0.231,1.249,-0.057
10.06,0.005,0.843,0.064
10.07,-0.205,0.985,0.149
10.08,-0.207,0.782,-0.037
10.09,-0.312,1.149,-0.193
10.1,-0.184,1.048,0.073
10.11,-0.078,0.895,0.179
10.12,-0.23,0.955,0.022
10.13,-0.427,0.872,-0.124
10.14,-0.178,1.299,-0.078
10.15,-0.12,0.706,0.116
10.16,-0.161,1.017,0.18
10.17,-0.269,0.718,-0.193
10.18,-0.267,1.204,-0.069
10.19,-0.042,0.971,0.072
10.2,-0.084,0.801,0.119
10.21,-0.285,0.971,0.05
10.22,-0.386,0.994,-0.173
10.23,-0.131,1.145,-0.015
10.24,-0.167,0.773,0.171
10.25,-0.092,1.085,0.066
10.26,-0.336,0.785,-0.233
10.27,-0.149,1.165,-0.011
10.28,-0.117,0.959,0.09
10.29,-0.145,0.741,0.164
10.3,-0.263,1.074,-0.061
10.31,-0.37,0.844,-0.162
10.32,-0.144,1.238,0.119
10.33,-0.122,0.784,0.13
10.34,-0.263,0.957,-0.013
10.35,-0.303,0.943,-0.148
10.36,-0.12,1.141,-0.074
10.37,-0.214,0.911,0.138
10.38,-0.046,0.794,0.157
10.39,-0.404,1.111,-0.192
10.4,-0.261,0.802,-0.094
10.41,-0.032,1.355,-0.006
10.42,-0.061,0.644,0.103
10.43,-0.296,1.014,0.059
10.44,-0.358,1.047,-0.249
10.45,-0.113,0.897,-0.024
10.46,-0.091,1.075,0.229
10.47,-0.197,0.712,0.116
10.48,-0.476,1.139,-0.18
10.49,-0.087,0.903,-0.092
10.5,-0.172,1.207,0.045
10.51,-0.104,0.658,0.162
10.52,-0.312,1.009,-0.059
10.53,-0.362,1.026,-0.232
10.54,-0.079,0.94,0.061
10.55,-0.113,1.193,0.181
10.56,-0.234,0.568,0.045
10.57,-0.388,1.244,-0.141
10.58,-0.088,0.996,-0.086
10.59,-0.156,0.992,0.069
10.6,-0.046,0.814,0.223
10.61,-0.435,0.962,-0.161
10.62,-0.25,1.008,-0.2
10.63,0.051,1.028,0.091
10.64,-0.231,1.037,0.135
10.65,-0.219,0.66,0.063
10.66,-0.365,1.334,-0.222
10.67,-0.13,0.832,-0.075
10.68,-0.147,1.032,0.234
10.69,-0.114,0.831,0.102
10.7,-0.487,0.883,-0.192
10.71,-0.122,1.236,-0.075
10.72,-0.103,0.846,0.08
10.73,-0.287,0.998,0.206
10.74,-0.165,0.755,-0.037
10.75,-0.462,1.225,-0.215
10.76,-0.098,0.916,0.083
10.77,-0.071,1.07,0.091
10.78,-0.182,0.816,-0.03
10.79,-0.354,0.936,-0.123
10.8,-0.12,1.287,-0.091
10.81,-0.183,0.688,0.109
10.82,-0.09,1.075,0.195
10.83,-0.349,0.796,-0.179
10.84,-0.396,1.067,-0.093
10.85,0.045,1.083,0.055
10.86,-0.161,0.792,0.086
10.87,-0.256,0.952,0.05
10.88,-0.254,0.968,-0.212
10.89,-0.234,1.135,-0.01
10.9,-0.176,0.727,0.254
10.91,-0.111,1.056,0.095
10.92,-0.467,0.828,-0.209
10.93,-0.197,1.13,-0.016
10.94,-0.073,1.092,0.059
10.95,-0.21,0.623,0.128
10.96,-0.226,1.128,0.024
10.97,-0.292,0.903,-0.267
10.98,-0.126,1.127,0.104
10.99,0.0,0.801,0.143
11.0,-0.294,0.979,-0.007
11.01,-0.403,0.825,-0.104
11.02,-0.176,1.26,-0.043
11.03,-0.175,0.795,0.069
11.04,-0.117,0.86,0.177
11.05,-0.26,1.04,-0.174
11.06,-0.386,0.825,-0.131
11.07,0.04,1.306,0.115
11.08,-0.105,0.672,0.093
11.09,-0.361,1.003,0.038
11.1,-0.236,0.99,-0.185
11.11,-0.183,1.07,-0.075
11.12,-0.207,0.838,0.208
11.13,-0.049,0.838,0.106
11.14,-0.52,1.12,-0.216
11.15,-0.186,0.846,-0.03
11.16,-0.046,1.292,0.058
11.17,-0.178,0.599,0.159
11.18,-0.32,1.057,0.002
11.19,-0.252,1.038,-0.258
11.2,-0.17,1.007,0.008
11.21,-0.087,0.972,0.196
11.22,-0.119,0.728,0.026
11.23,-0.537,1.227,-0.171
11.24,-0.074,0.849,-0.066
11.25,-0.135,1.163,0.038
11.26,-0.178,0.718,0.163
11.27,-0.294,1.11,-0.112
11.28,-0.317,0.949,-0.206
11.29,-0.116,0.991,0.106
11.3,-0.027,1.072,0.058
11.31,-0.19,0.66,-0.011
11.32,-0.461,1.327,-0.132
11.33,-0.064,0.9,-0.073
11.34,-0.266,1.079,0.168
11.35,-0.042,0.777,0.169
11.36,-0.467,1.005,-0.182
11.37,-0.205,1.005,-0.099
11.38,0.013,1.027,0.073
11.39,-0.176,0.989,0.112
11.4,-0.256,0.658,0.013
11.41,-0.395,1.339,-0.17
11.42,-0.139,0.824,-0.007
11.43,-0.156,1.076,0.207
11.44,-0.061,0.841,0.044
11.45,-0.452,0.947,-0.206
11.46,-0.127,1.186,-0.002
11.47,-0.128,0.877,0.085
11.48,-0.222,0.99,0.175
11.49,-0.153,0.769,-0.075
11.5,-0.396,1.238,-0.188
11.51,-0.174,0.897,0.142
11.52,-0.051,1.043,0.134
11.53,-0.274,0.81,-0.015
11.54,-0.346,0.965,-0.108
11.55,-0.143,1.247,-0.061
11.56,-0.179,0.683,0.118
11.57,-0.081,1.083,0.151
11.58,-0.32,0.772,-0.176
11.59,-0.353,1.176,-0.141
11.6,-0.008,1.014,0.061
11.61,-0.082,0.816,0.111
11.62,-0.304,0.981,0.003
11.63,-0.287,0.969,-0.24
11.64,-0.159,1.18,-0.019
11.65,-0.138,0.735,0.176
11.66,-0.081,1.06,0.091
11.67,-0.345,0.828,-0.24
11.68,-0.202,1.098,-0.082
11.69,-0.071,0.998,0.041
11.7,-0.159,0.752,0.155
11.71,-0.31,1.066,-0.03
11.72,-0.312,0.874,-0.193
11.73,-0.156,1.212,0.05
11.74,-0.089,0.785,0.118
11.75,-0.084,0.962,0.02
11.76,-0.42,0.938,-0.162
11.77,-0.11,1.09,-0.049
11.78,-0.11,1.013,0.06
11.79,-0.192,0.693,0.183
11.8,-0.324,1.078,-0.115
11.81,-0.41,0.874,-0.083
11.82,-0.147,1.222,0.151
11.83,-0.098,0.666,0.12
11.84,-0.353,1.019,-0.009
11.85,-0.253,0.928,-0.175
11.86,-0.049,1.151,-0.053
11.87,-0.258,0.847,0.19
11.88,-0.042,0.808,0.088
11.89,-0.437,1.1,-0.239
11.9,-0.239,0.854,-0.005
11.91,-0.035,1.285,0.03
11.92,-0.118,0.621,0.06
11.93,-0.288,1.062,0.004
11.94,-0.248,0.982,-0.214
11.95,-0.106,1.024,0.047
11.96,-0.092,0.952,0.192
11.97,-0.113,0.76,-0.02
11.98,-0.526,1.219,-0.159
11.99,-0.08,0.837,-0.026
12.0,-0.2,1.177,0.114
12.01,-0.191,0.677,0.177
12.02,-0.329,1.06,-0.138
12.03,-0.335,0.975,-0.141
12.04,-0.136,1.024,0.158
12.05,-0.092,0.979,0.119
12.06,-0.23,0.653,-0.024
12.07,-0.351,1.362,-0.226
12.08,-0.088,0.778,-0.052
12.09,-0.252,1.086,0.18
12.1,-0.052,0.759,0.082
12.11,-0.466,1.005,-0.217
12.12,-0.19,1.077,-0.045
12.13,-0.102,0.983,0.101
12.14,-0.23,0.933,0.135
12.15,-0.188,0.697,-0.018
12.16,-0.358,1.334,-0.229
12.17,-0.052,0.838,0.03
12.18,-0.109,1.104,0.195
12.19,-0.214,0.761,0.055
12.2,-0.477,1.011,-0.181
12.21,-0.085,1.176,-0.056
12.22,-0.13,0.819,0.091
12.23,-0.292,1.044,0.185
12.24,-0.232,0.706,-0.131
12.25,-0.368,1.2,-0.183
12.26,-0.023,0.946,0.159
12.27,-0.093,0.991,0.118
12.28,-0.267,0.81,-0.012
12.29,-0.335,1.041,-0.161
12.3,-0.045,1.19,-0.059
12.31,-0.211,0.698,0.171
12.32,-0.179,1.08,0.139
12.33,-0.385,0.773,-0.187
12.34,-0.282,1.144,-0.066
12.35,0.078,1.03,0.07
12.36,-0.176,0.813,0.093
12.37,-0.302,0.928,-0.035
12.38,-0.232,0.987,-0.191
12.39,-0.14,1.161,-0.009
12.4,-0.113,0.659,0.239
12.41,-0.197,1.072,0.043
12.42,-0.454,0.829,-0.229
12.43,-0.058,1.162,-0.042
12.44,-0.084,0.921,0.112
12.45,-0.292,0.778,0.198
12.46,-0.24,1.08,-0.13
12.47,-0.236,0.855,-0.199
12.48,-0.126,1.239,0.153
12.49,-0.044,0.658,0.159
12.5,-0.327,1.0,-0.031
12.51,-0.293,0.954,-0.184
12.52,-0.129,1.058,0.011
12.53,-0.238,0.938,0.17
12.54,-0.143,0.758,0.128
12.55,-0.392,1.168,-0.202
12.56,-0.187,0.862,-0.03
12.57,-0.068,1.218,0.073
12.58,-0.088,0.668,0.105
12.59,-0.362,1.022,-0.047
12.6,-0.241,0.993,-0.206
12.61,-0.134,1.179,0.063
12.62,-0.059,0.83,0.09
12.63,-0.257,0.828,-0.014
12.64,-0.446,1.18,-0.181
12.65,0.004,0.885,-0.056
12.66,-0.198,1.132,0.125
12.67,-0.147,0.696,0.144
12.68,-0.388,1.149,-0.199
12.69,-0.259,0.902,-0.065
12.7,-0.041,1.097,0.098
12.71,-0.123,0.857,0.131
12.72,-0.349,0.803,-0.015
12.73,-0.285,1.259,-0.203
12.74,-0.074,0.826,-0.013
12.75,-0.178,1.147,0.153
12.76,-0.056,0.668,0.002
12.77,-0.489,1.142,-0.197
12.78,-0.103,1.024,-0.027
12.79,-0.074,0.962,0.141
12.8,-0.229,0.9,0.144
12.81,-0.234,0.812,-0.181
12.82,-0.245,1.245,-0.204
12.83,-0.03,0.878,0.119
12.84,-0.157,1.036,0.142
12.85,-0.276,0.717,0.016
12.86,-0.355,1.202,-0.183
12.87,-0.023,1.014,-0.037
12.88,-0.176,0.879,0.238
12.89,-0.118,0.954,0.073
12.9,-0.382,0.819,-0.222
12.91,-0.163,1.3,-0.037
12.92,-0.122,0.805,0.131
12.93,-0.271,0.97,0.19
12.94,-0.253,0.823,-0.104
12.95,-0.301,1.068,-0.19
12.96,-0.068,1.134,0.104
12.97,-0.106,0.758,0.097
12.98,-0.215,1.014,0.038
12.99,-0.352,0.969,-0.199
13.0,-0.167,1.233,-0.03
13.01,-0.158,0.705,0.149
13.02,-0.161,0.974,0.099
13.03,-0.336,0.927,-0.2
13.04,-0.24,1.015,-0.086
13.05,-0.014,1.165,0.097
13.06,-0.138,0.624,0.121
13.07,-0.326,1.087,0.027
13.08,-0.326,0.923,-0.216
13.09,-0.145,1.144,0.014
13.1,-0.089,0.837,0.142
13.11,-0.121,0.855,0.023
13.12,-0.404,1.041,-0.181
13.13,-0.075,0.986,-0.088
13.14,-0.118,1.088,0.08
13.15,-0.093,0.703,0.213
13.16,-0.447,1.101,-0.105
13.17,-0.254,0.846,-0.164
13.18,0.003,1.26,0.113
13.19,-0.209,0.768,0.114
13.2,-0.18,0.794,-0.007
13.21,-0.317,1.294,-0.21
13.22,-0.156,0.808,-0.015
13.23,-0.141,1.141,0.197
13.24,-0.105,0.707,0.088
13.25,-0.535,1.134,-0.17
13.26,-0.162,0.929,-0.024
13.27,-0.136,1.1,0.069
13.28,-0.143,0.815,0.169
13.29,-0.291,0.859,-0.075
13.3,-0.321,1.172,-0.219
13.31,-0.088,0.881,0.138
13.32,-0.165,1.154,0.091
13.33,-0.161,0.622,-0.018
13.34,-0.397,1.255,-0.192
13.35,-0.184,0.992,-0.019
13.36,-0.189,0.922,0.128
13.37,-0.068,0.947,0.161
13.38,-0.383,0.768,-0.165
13.39,-0.272,1.219,-0.07
13.4,-0.004,0.951,0.059
13.41,-0.217,0.956,0.12
13.42,-0.149,0.75,0.033
13.43,-0.466,1.337,-0.209
13.44,-0.179,0.829,0.063
13.45,-0.078,1.137,0.117
13.46,-0.166,0.751,0.017
13.47,-0.392,0.937,-0.106
13.48,-0.153,1.277,-0.052
13.49,-0.14,0.73,0.098
13.5,-0.204,1.076,0.186
13.51,-0.296,0.753,-0.153
13.52,-0.37,1.12,-0.175
13.53,-0.029,1.002,0.106
13.54,-0.129,0.89,0.134
13.55,-0.343,0.886,0.088
13.56,-0.278,1.022,-0.176
13.57,-0.146,1.204,-0.059
13.58,-0.176,0.697,0.156
13.59,-0.102,1.048,0.063
13.6,-0.337,0.804,-0.236
13.61,-0.169,1.175,-0.068
13.62,-0.083,1.01,0.05
13.63,-0.186,0.723,0.111
13.64,-0.209,1.068,-0.021
13.65,-0.338,0.931,-0.207
13.66,-0.224,1.171,0.081
13.67,-0.064,0.806,0.156
13.68,-0.185,0.956,0.003
13.69,-0.391,0.915,-0.089
13.7,-0.2,1.128,-0.096
13.71,-0.107,0.932,0.033
13.72,-0.109,0.772,0.204
13.73,-0.421,1.093,-0.098
13.74,-0.246,0.81,-0.149
13.75,-0.027,1.311,0.054
13.76,-0.099,0.678,0.12
13.77,-0.275,1.01,0.064
13.78,-0.382,1.041,-0.191
13.79,-0.178,0.932,-0.022
13.8,-0.168,1.074,0.172
13.81,-0.141,0.724,0.14
13.82,-0.469,1.103,-0.164
13.83,-0.245,0.912,-0.024
13.84,-0.112,1.27,0.099
13.85,-0.144,0.636,0.13
13.86,-0.286,0.983,0.02
13.87,-0.353,1.113,-0.26
13.88,-0.136,0.87,0.002
13.89,-0.181,1.148,0.181
13.9,-0.076,0.654,0.066
13.91,-0.501,1.183,-0.18
13.92,-0.061,0.936,-0.043
13.93,-0.112,1.143,0.058
13.94,-0.107,0.721,0.18
13.95,-0.281,0.983,-0.088
13.96,-0.36,1.106,-0.167
13.97,-0.145,0.942,0.116
13.98,-0.116,1.152,0.091
13.99,-0.183,0.607,-0.023
14.0,-0.384,1.282,-0.143
14.01,-0.122,0.93,-0.074
14.02,-0.151,1.023,0.109
14.03,-0.063,0.862,0.166
14.04,-0.359,0.877,-0.163
14.05,-0.325,1.117,-0.143
14.06,0.036,0.929,0.049
14.07,-0.232,1.067,0.096
14.08,-0.264,0.666,0.061
14.09,-0.324,1.316,-0.246
14.1,-0.107,0.87,-0.028
14.11,-0.152,1.006,0.194
14.12,-0.109,0.934,0.09
14.13,-0.42,0.815,-0.206
14.14,-0.169,1.232,-0.074
14.15,-0.084,0.847,0.096
14.16,-0.21,1.002,0.169
14.17,-0.236,0.761,-0.05
14.18,-0.368,1.17,-0.177
14.19,-0.128,0.981,0.111
14.2,-0.136,0.943,0.123
14.21,-0.163,0.92,0.005
14.22,-0.315,0.891,-0.183
14.23,-0.202,1.28,-0.098
14.24,-0.121,0.716,0.124
14.25,-0.077,1.091,0.077
14.26,-0.287,0.729,-0.155
14.27,-0.348,1.22,-0.058
14.28,0.044,0.999,-0.012
14.29,-0.129,0.833,0.121
14.3,-0.202,0.937,0.11
14.31,-0.349,1.032,-0.233
14.32,-0.148,1.054,-0.061
14.33,-0.101,0.76,0.193
14.34,-0.135,1.076,0.093
14.35,-0.356,0.782,-0.173
14.36,-0.223,1.193,-0.049
14.37,-0.088,0.961,0.069
14.38,-0.212,0.743,0.152
14.39,-0.252,1.051,-0.01
14.4,-0.39,0.957,-0.216
14.41,-0.112,1.134,0.033
14.42,-0.081,0.834,0.157
14.43,-0.153,0.972,0.061
14.44,-0.375,0.874,-0.145
14.45,-0.123,1.205,-0.1
14.46,-0.174,0.904,0.105
14.47,-0.174,0.758,0.243
14.48,-0.344,1.122,-0.155
14.49,-0.257,0.779,-0.176
14.5,-0.127,1.308,0.152
14.51,-0.176,0.696,0.116
14.52,-0.17,0.961,0.069
14.53,-0.259,1.07,-0.235
14.54,-0.207,0.998,-0.02
14.55,-0.177,0.97,0.175
14.56,-0.105,0.772,0.161
14.57,-0.437,1.102,-0.195
14.58,-0.23,0.772,-0.091
14.59,-0.008,1.362,0.049
14.6,-0.156,0.639,0.128
14.61,-0.218,0.953,0.066
14.62,-0.415,1.107,-0.175
14.63,-0.146,0.86,0.011
14.64,-0.177,1.116,0.162
14.65,-0.2,0.692,0.113
14.66,-0.451,1.144,-0.217
14.67,-0.173,0.9,-0.035
14.68,-0.125,1.19,0.077
14.69,-0.125,0.671,0.166
14.7,-0.342,0.943,-0.009
14.71,-0.263,1.107,-0.237
14.72,-0.136,0.892,0.014
14.73,-0.191,1.134,0.207
14.74,-0.046,0.663,0.001
14.75,-0.522,1.215,-0.19
14.76,-0.178,0.897,-0.04
14.77,-0.064,1.133,0.052
14.78,-0.15,0.781,0.165
14.79,-0.316,0.896,-0.048
14.8,-0.284,1.152,-0.182
14.81,-0.156,0.884,0.098
14.82,-0.116,1.156,0.154
14.83,-0.125,0.619,-0.056
14.84,-0.493,1.228,-0.124
14.85,-0.006,0.957,-0.038
14.86,-0.13,0.962,0.071
14.87,-0.123,0.877,0.19
14.88,-0.342,0.865,-0.146
14.89,-0.333,1.192,-0.143
14.9,-0.025,0.889,0.138
14.91,-0.173,1.089,0.148
14.92,-0.253,0.641,0.007
14.93,-0.348,1.252,-0.21
14.94,-0.019,0.955,-0.039
14.95,-0.221,0.95,0.21
14.96,-0.148,0.978,0.12
14.97,-0.4,0.805,-0.212
14.98,-0.21,1.264,-0.026
14.99,-0.065,0.802,0.084
15.0,-0.177,0.976,0.099
15.01,-0.239,0.839,-0.062
15.02,-0.334,1.114,-0.19
15.03,-0.174,0.99,0.06
15.04,0.0,0.894,0.119
15.05,-0.166,0.839,-0.014
15.06,-0.401,1.023,-0.151
15.07,-0.182,1.199,-0.049
15.08,-0.16,0.724,0.16
15.09,-0.086,1.076,0.146
15.1,-0.377,0.768,-0.177
15.11,-0.264,1.172,-0.099
15.12,-0.038,1.019,0.057
15.13,-0.147,0.791,0.115
15.14,-0.271,0.998,0.032
15.15,-0.357,0.971,-0.254
15.16,-0.12,1.137,-0.034
15.17,-0.118,0.73,0.174
15.18,-0.201,1.058,0.096
15.19,-0.286,0.798,-0.218
15.2,-0.187,1.131,-0.053
15.21,-0.124,1.001,0.117
15.22,-0.102,0.739,0.137
15.23,-0.286,1.073,-0.036
15.24,-0.344,0.89,-0.197
15.25,-0.065,1.239,-0.011
15.26,-0.099,0.792,0.124
15.27,-0.183,0.933,0.02
15.28,-0.351,0.949,-0.146
15.29,-0.126,1.124,-0.084
15.3,-0.169,0.939,0.067
15.31,-0.145,0.728,0.164
15.32,-0.344,1.18,-0.149
15.33,-0.271,0.794,-0.197
15.34,-0.126,1.263,0.125
15.35,-0.083,0.757,0.09
15.36,-0.273,0.921,0.017
15.37,-0.372,1.076,-0.138
15.38,-0.146,0.971,-0.022
15.39,-0.311,1.004,0.181
15.4,0.01,0.749,0.099
15.41,-0.476,1.167,-0.203
15.42,-0.227,0.832,-0.022
15.43,-0.083,1.327,0.108
15.44,-0.163,0.681,0.087
15.45,-0.214,0.931,0.036
15.46,-0.411,1.153,-0.23
15.47,-0.113,0.846,0.012
15.48,-0.157,1.16,0.212
15.49,-0.171,0.654,0.111
15.5,-0.476,1.227,-0.141
15.51,-0.089,0.93,-0.093
15.52,-0.153,1.088,0.079
15.53,-0.186,0.772,0.193
15.54,-0.276,0.921,-0.082
15.55,-0.277,1.107,-0.245
15.56,-0.08,0.896,0.101
15.57,-0.111,1.174,0.106
15.58,-0.116,0.57,0.031
15.59,-0.456,1.285,-0.152
15.6,-0.115,0.993,-0.102
15.61,-0.147,0.93,0.055
15.62,-0.051,0.894,0.186
15.63,-0.419,0.834,-0.146
15.64,-0.257,1.136,-0.151
15.65,-0.021,0.98,0.098
15.66,-0.127,1.005,0.115
15.67,-0.275,0.677,0.05
15.68,-0.337,1.286,-0.195
15.69,-0.145,0.909,-0.023
15.7,-0.239,0.949,0.245
15.71,-0.098,0.964,0.102
15.72,-0.429,0.783,-0.198
15.73,-0.225,1.237,-0.0
15.74,-0.102,0.898,0.079
15.75,-0.231,0.956,0.101
15.76,-0.138,0.808,-0.042
15.77,-0.382,1.179,-0.194
15.78,-0.193,0.966,0.014
15.79,-0.04,0.918,0.135
15.8,-0.212,0.991,0.063
15.81,-0.388,0.816,-0.146
15.82,-0.133,1.32,-0.075
15.83,-0.111,0.752,0.061
15.84,-0.163,0.976,0.152
15.85,-0.265,0.894,-0.105
15.86,-0.268,1.022,-0.201
15.87,0.015,1.044,0.097
15.88,-0.11,0.868,0.119
15.89,-0.319,0.936,0.025
15.9,-0.324,0.954,-0.139
15.91,-0.17,1.203,-0.052
15.92,-0.204,0.675,0.2
15.93,-0.102,1.068,0.137
15.94,-0.381,0.823,-0.254
15.95,-0.196,1.126,-0.067
15.96,-0.073,1.07,0.081
15.97,-0.174,0.695,0.112
15.98,-0.243,1.061,0.008
15.99,-0.252,0.915,-0.259
16.0,-0.184,1.167,-0.016
16.01,-0.073,0.768,0.151
16.02,-0.158,0.999,0.072
16.03,-0.395,0.887,-0.201
16.04,-0.078,1.079,-0.08
16.05,-0.131,1.002,0.078
16.06,-0.133,0.711,0.183
16.07,-0.323,1.164,-0.095
16.08,-0.252,0.825,-0.192
16.09,-0.168,1.269,0.108
16.1,-0.118,0.749,0.155
16.11,-0.264,0.948,-0.003
16.12,-0.399,1.063,-0.188
16.13,-0.098,0.981,-0.015
16.14,-0.163,1.022,0.065
16.15,-0.068,0.689,0.117
16.16,-0.369,1.164,-0.163
16.17,-0.251,0.823,-0.092
16.18,-0.092,1.273,0.045
16.19,-0.087,0.681,0.14
16.2,-0.22,0.939,0.006
16.21,-0.356,1.134,-0.238
16.22,-0.088,0.86,-0.011
16.23,-0.117,1.126,0.146
16.24,-0.074,0.649,0.091
16.25,-0.468,1.194,-0.194
16.26,-0.131,0.918,-0.012
16.27,-0.129,1.193,0.088
16.28,-0.145,0.714,0.168
16.29,-0.299,0.948,-0.038
16.3,-0.303,1.156,-0.199
16.31,-0.129,0.87,0.059
16.32,-0.061,1.181,0.105
16.33,-0.184,0.597,0.043
16.34,-0.478,1.22,-0.175
16.35,-0.083,1.015,-0.077
16.36,-0.153,0.965,0.066
16.37,-0.15,0.835,0.201
16.38,-0.343,0.886,-0.133
16.39,-0.304,1.084,-0.172
16.4,-0.012,0.928,0.127
16.41,-0.146,1.156,0.122
16.42,-0.304,0.633,0.063
16.43,-0.344,1.248,-0.147
16.44,-0.126,1.024,-0.07
16.45,-0.203,0.87,0.143
16.46,-0.048,0.978,0.105
16.47,-0.462,0.806,-0.201
16.48,-0.267,1.157,-0.063
16.49,0.164,0.924,0.052
16.5,-0.251,0.967,0.037
16.51,-0.168,0.763,0.032
16.52,-0.341,1.228,-0.216
16.53,-0.249,0.975,0.032
16.54,-0.024,0.902,0.189
16.55,-0.167,0.954,0.013
16.56,-0.474,0.792,-0.134
16.57,-0.118,1.328,-0.052
16.58,-0.09,0.769,0.095
16.59,-0.311,0.973,0.216
16.6,-0.214,0.858,-0.079
16.61,-0.371,1.056,-0.221
16.62,-0.043,1.101,0.056
16.63,-0.065,0.766,0.125
16.64,-0.272,1.04,0.027
16.65,-0.424,0.881,-0.149
16.66,-0.131,1.21,-0.013
16.67,-0.155,0.785,0.134
16.68,-0.122,1.092,0.082
16.69,-0.36,0.785,-0.214
16.7,-0.195,1.191,-0.095
16.71,0.011,0.975,0.088
16.72,-0.244,0.747,0.18
16.73,-0.255,1.029,-0.034
16.74,-0.38,0.923,-0.152
16.75,-0.149,1.24,0.055
16.76,-0.129,0.739,0.146
16.77,-0.186,0.976,0.024
16.78,-0.369,0.937,-0.207
16.79,-0.053,1.082,-0.094
16.8,-0.147,1.025,0.124
16.81,-0.208,0.748,0.165
16.82,-0.298,1.127,-0.133
16.83,-0.236,0.822,-0.161
16.84,-0.144,1.278,0.066
16.85,-0.075,0.688,0.116
16.86,-0.299,0.981,0.024
16.87,-0.326,1.031,-0.21
16.88,-0.095,0.963,-0.012
16.89,-0.236,1.027,0.174
16.9,-0.019,0.745,0.118
16.91,-0.393,1.175,-0.197
16.92,-0.295,0.856,0.013
16.93,-0.141,1.281,0.105
16.94,-0.039,0.697,0.08
16.95,-0.311,0.965,0.001
16.96,-0.375,1.051,-0.18
16.97,-0.093,0.897,0.024
16.98,-0.144,1.177,0.134
16.99,-0.012,0.648,0.049
17.0,-0.489,1.239,-0.173
17.01,-0.09,0.893,-0.115
17.02,-0.1,1.134,0.112
17.03,-0.182,0.792,0.164
17.04,-0.379,0.89,-0.093
17.05,-0.266,1.152,-0.193
17.06,-0.089,0.938,0.096
17.07,-0.166,1.098,0.154
17.08,-0.156,0.642,0.052
17.09,-0.485,1.306,-0.159
17.1,-0.04,0.916,-0.036
17.11,-0.193,1.027,0.103
17.12,-0.124,0.887,0.163
17.13,-0.374,0.877,-0.172
17.14,-0.314,1.205,-0.115
17.15,-0.034,0.946,0.079
17.16,-0.14,1.032,0.099
17.17,-0.168,0.679,0.036
17.18,-0.456,1.294,-0.194
17.19,-0.021,0.883,-0.044
17.2,-0.234,0.979,0.2
17.21,-0.063,0.963,0.082
17.22,-0.377,0.82,-0.225
17.23,-0.229,1.229,-0.066
17.24,-0.063,0.802,0.143
17.25,-0.266,1.029,0.19
17.26,-0.283,0.751,-0.04
17.27,-0.346,1.141,-0.182
17.28,-0.036,1.02,-0.0
17.29,-0.109,0.902,0.146
17.3,-0.115,0.981,-0.005
17.31,-0.374,0.919,-0.145
17.32,-0.274,1.284,-0.039
17.33,-0.046,0.71,0.103
17.34,-0.153,1.021,0.119
17.35,-0.339,0.837,-0.141
17.36,-0.252,1.002,-0.122
17.37,-0.107,1.134,0.059
17.38,-0.032,0.723,0.151
17.39,-0.282,1.054,0.009
17.4,-0.329,0.918,-0.183
17.41,-0.112,1.194,-0.032
17.42,-0.118,0.759,0.169
17.43,-0.1,0.979,0.104
17.44,-0.406,0.939,-0.156
17.45,-0.253,0.996,-0.037
17.46,-0.132,1.213,0.05
17.47,-0.099,0.602,0.103
17.48,-0.287,1.157,-0.007
17.49,-0.255,0.932,-0.231
17.5,-0.203,1.241,0.096
17.51,-0.017,0.717,0.117
17.52,-0.242,0.979,0.011
17.53,-0.305,0.979,-0.186
17.54,-0.151,1.077,-0.067
17.55,-0.224,0.967,0.104
17.56,-0.136,0.744,0.184
17.57,-0.37,1.166,-0.159
17.58,-0.27,0.816,-0.135
17.59,-0.092,1.273,0.106
17.6,-0.042,0.686,0.112
17.61,-0.316,0.953,0.065
17.62,-0.295,1.061,-0.208
17.63,-0.119,0.949,-0.033
17.64,-0.236,1.027,0.152
17.65,-0.134,0.69,0.107
17.66,-0.427,1.162,-0.225
17.67,-0.208,0.865,-0.059
17.68,-0.12,0.667,0.064
17.69,-0.463,1.26,-0.131
17.7,-0.151,0.885,-0.064
17.71,-0.087,1.092,0.036
17.72,-0.062,0.764,0.175
17.73,-0.379,1.061,-0.157
17.74,-0.219,0.868,-0.184
17.75,-0.061,1.105,0.097
17.76,-0.105,0.956,0.103
17.77,-0.265,0.717,0.017
17.78,-0.426,1.324,-0.178
17.79,-0.079,0.805,-0.046
17.8,-0.157,1.125,0.161
17.81,-0.118,0.787,0.146
17.82,-0.42,0.974,-0.212
17.83,-0.205,1.022,-0.101
17.84,-0.023,1.015,0.089
17.85,-0.194,0.975,0.115
17.86,-0.245,0.681,-0.028
17.87,-0.333,1.341,-0.222
17.88,-0.074,0.829,-0.036
17.89,-0.112,1.074,0.188
17.9,-0.12,0.778,0.073
17.91,-0.551,0.993,-0.152
17.92,-0.089,1.148,-0.081
17.93,-0.099,0.845,0.039
17.94,-0.193,1.053,0.236
17.95,-0.285,0.734,-0.131
17.96,-0.313,1.191,-0.161
17.97,-0.066,0.961,0.113
17.98,-0.132,0.938,0.15
17.99,-0.295,0.849,0.042
18.0,-0.348,1.007,-0.172
18.01,-0.041,1.157,-0.088
18.02,-0.168,0.784,0.174
18.03,-0.139,1.075,0.107
18.04,-0.3,0.79,-0.181
18.05,-0.33,1.18,-0.053
18.06,-0.02,0.982,0.074
18.07,-0.138,0.83,0.141
18.08,-0.314,0.943,0.018
18.09,-0.226,0.979,-0.221
18.1,-0.168,1.2,0.015
18.11,-0.16,0.696,0.239
18.12,-0.142,1.058,0.118
18.13,-0.465,0.856,-0.224
18.14,-0.123,1.114,-0.028
18.15,-0.096,0.97,0.122
18.16,-0.252,0.751,0.191
18.17,-0.249,1.102,-0.06
18.18,-0.322,0.866,-0.224
18.19,-0.151,1.197,0.116
18.2,-0.04,0.751,0.155
18.21,-0.281,0.964,-0.025
18.22,-0.392,0.972,-0.155
18.23,-0.029,1.088,-0.095
18.24,-0.204,0.946,0.075
18.25,0.033,0.92,0.114
18.26,-0.41,1.053,-0.201
18.27,-0.289,0.873,-0.016
18.28,-0.041,1.261,0.087
18.29,-0.172,0.587,0.103
18.3,-0.296,1.108,0.053
18.31,-0.286,0.936,-0.252
18.32,-0.2,1.037,0.025
18.33,-0.052,0.979,0.152
18.34,-0.161,0.763,0.055
18.35,-0.439,1.158,-0.187
18.36,-0.093,0.949,-0.061
18.37,-0.161,1.121,0.112
18.38,-0.148,0.662,0.194
18.39,-0.351,1.125,-0.069
18.4,-0.303,0.918,-0.205
18.41,-0.066,1.124,0.097
18.42,-0.076,0.927,0.103
18.43,-0.267,0.711,0.062
18.44,-0.41,1.312,-0.174
18.45,-0.082,0.88,-0.073
18.46,-0.213,1.124,0.136
18.47,-0.013,0.759,0.118
18.48,-0.442,1.081,-0.193
18.49,-0.262,0.974,-0.097
18.5,-0.031,1.07,0.094
18.51,-0.201,0.92,0.132
18.52,-0.217,0.71,0.015
18.53,-0.346,1.373,-0.17
18.54,-0.141,0.779,0.02
18.55,-0.158,1.111,0.19
18.56,-0.012,0.805,0.039
18.57,-0.514,1.025,-0.221
18.58,-0.117,1.098,-0.025
18.59,-0.072,0.958,0.107
18.6,-0.281,0.923,0.161
18.61,-0.195,0.746,-0.063
18.62,-0.33,1.298,-0.185
18.63,-0.198,0.843,0.096
18.64,-0.096,1.051,0.125
18.65,-0.127,0.772,-0.021
18.66,-0.478,1.048,-0.13
18.67,-0.052,1.176,-0.077
18.68,-0.16,0.759,0.086
18.69,-0.133,1.034,0.138
18.7,-0.261,0.756,-0.179
18.71,-0.334,1.237,-0.099
18.72,-0.054,0.956,0.11
18.73,-0.103,0.906,0.115
18.74,-0.29,0.866,0.016
18.75,-0.274,1.024,-0.196
18.76,-0.075,1.185,-0.037
18.77,-0.187,0.708,0.198
18.78,-0.128,1.068,0.091
18.79,-0.404,0.785,-0.218
18.8,-0.162,1.172,-0.027
18.81,-0.086,0.958,0.092
18.82,-0.281,0.811,0.191
18.83,-0.264,1.02,-0.088
18.84,-0.23,0.909,-0.205
18.85,-0.134,1.235,0.071
18.86,-0.053,0.717,0.129
18.87,-0.161,1.038,0.015
18.88,-0.402,0.92,-0.157
18.89,-0.159,1.156,-0.051
18.9,-0.15,0.893,0.099
18.91,-0.136,0.799,0.156
18.92,-0.409,1.099,-0.139
18.93,-0.244,0.863,-0.117
18.94,-0.063,1.32,0.132
18.95,-0.129,0.629,0.116
18.96,-0.298,0.995,0.005
18.97,-0.308,1.065,-0.164
18.98,-0.197,1.0,0.006
18.99,-0.144,0.985,0.133
19.0,-0.043,0.749,0.081
19.01,-0.528,1.164,-0.172
19.02,-0.124,0.822,-0.046
19.03,-0.08,1.239,0.088
19.04,-0.207,0.659,0.165
19.05,-0.23,1.017,-0.024
19.06,-0.383,0.878,-0.168
19.07,-0.042,1.118,0.091
19.08,-0.014,0.958,0.085
19.09,-0.325,0.779,0.012
19.1,-0.39,1.197,-0.148
19.11,-0.059,0.917,-0.082
19.12,-0.184,1.087,0.145
19.13,-0.092,0.72,0.171
19.14,-0.402,1.127,-0.25
19.15,-0.285,0.891,-0.086
19.16,0.032,1.115,0.141
19.17,-0.158,0.928,0.14
19.18,-0.276,0.733,-0.027
19.19,-0.342,1.312,-0.175
19.2,-0.147,0.844,0.03
19.21,-0.173,1.146,0.179
19.22,-0.078,0.723,0.061
19.23,-0.498,1.115,-0.225
19.24,-0.16,1.099,-0.015
19.25,-0.111,0.929,0.13
19.26,-0.231,0.953,0.15
19.27,-0.218,0.735,-0.155
19.28,-0.277,1.257,-0.176
19.29,-0.019,0.907,0.148
19.3,-0.197,1.031,0.147
19.31,-0.249,0.736,0.039
19.32,-0.343,1.156,-0.218
19.33,-0.087,1.054,-0.081
19.34,-0.154,0.788,0.161
19.35,-0.071,1.015,0.061
19.36,-0.36,0.78,-0.21
19.37,-0.21,1.324,-0.083
19.38,-0.048,0.83,0.057
19.39,-0.199,0.888,0.167
19.4,-0.206,0.937,-0.044
19.41,-0.376,1.011,-0.184
19.42,-0.197,1.123,0.096
19.43,-0.072,0.806,0.155
19.44,-0.216,1.01,0.003
19.45,-0.339,0.824,-0.18
19.46,-0.156,1.251,-0.06
19.47,-0.117,0.793,0.102
19.48,-0.205,0.865,0.193
19.49,-0.356,1.015,-0.131
19.5,-0.266,0.871,-0.14
19.51,-0.052,1.308,0.091
19.52,-0.056,0.631,0.09
19.53,-0.26,1.065,-0.016
19.54,-0.272,0.97,-0.201
19.55,-0.138,1.075,-0.09
19.56,-0.16,0.85,0.204
19.57,-0.109,0.849,0.091
19.58,-0.435,1.103,-0.213
19.59,-0.183,0.854,-0.017
19.6,-0.09,1.274,0.077
19.61,-0.13,0.553,0.113
19.62,-0.291,1.135,-0.009
19.63,-0.342,1.01,-0.215
19.64,-0.165,0.994,0.013
19.65,-0.022,1.016,0.103
19.66,-0.135,0.696,0.011
19.67,-0.483,1.2,-0.162
19.68,-0.052,0.914,-0.088
19.69,-0.128,1.122,0.108
19.7,-0.139,0.674,0.228
19.71,-0.392,1.065,-0.143
19.72,-0.198,0.949,-0.203
19.73,-0.024,1.096,0.114
19.74,-0.156,0.935,0.143
19.75,-0.222,0.672,-0.009
19.76,-0.34,1.341,-0.24
19.77,-0.108,0.803,-0.017
19.78,-0.206,1.152,0.179
19.79,-0.091,0.745,0.119
19.8,-0.471,1.005,-0.198
19.81,-0.107,1.119,-0.075
19.82,-0.104,0.933,0.092
19.83,-0.135,0.959,0.143
19.84,-0.164,0.729,-0.057
19.85,-0.39,1.293,-0.185
19.86,-0.095,0.862,0.059
19.87,-0.138,1.081,0.115
19.88,-0.186,0.657,0.059
19.89,-0.414,1.295,-0.178
19.9,-0.136,0.963,-0.068
19.91,-0.246,0.897,0.214
19.92,-0.072,0.963,0.129
19.93,-0.37,0.759,-0.184
19.94,-0.241,1.215,-0.1
19.95,0.001,0.906,0.064
19.96,-0.172,0.973,0.09
19.97,-0.215,0.789,0.026
19.98,-0.436,1.219,-0.199
19.99,-0.123,0.947,-0.028
20.0,-0.066,0.931,0.161
20.01,-0.146,0.958,0.071
20.02,-0.356,0.755,-0.156
20.03,-0.144,1.334,-0.06
20.04,-0.127,0.781,0.12
20.05,-0.214,0.95,0.172
20.06,-0.282,0.893,-0.086
20.07,-0.281,1.05,-0.188
20.08,-0.162,1.145,0.033
20.09,-0.083,0.75,0.145
20.1,-0.195,1.055,-0.01
20.11,-0.383,0.874,-0.146
20.12,-0.153,1.207,-0.029
20.13,-0.031,0.772,0.094
20.14,-0.2,0.951,0.185
20.15,-0.338,0.955,-0.129
20.16,-0.267,0.933,-0.117
20.17,-0.086,1.247,0.082
20.18,-0.095,0.647,0.138
20.19,-0.312,1.098,0.007
20.2,-0.389,0.889,-0.206
20.21,-0.093,1.111,0.025
20.22,-0.139,0.907,0.187
20.23,-0.173,0.844,0.052
20.24,-0.349,1.07,-0.226
20.25,-0.201,0.902,-0.045
20.26,-0.083,1.185,0.081
20.27,-0.053,0.617,0.085
20.28,-0.409,1.149,-0.011
20.29,-0.303,0.882,-0.179
20.3,-0.206,1.098,0.1
20.31,-0.139,0.946,0.13
20.32,-0.094,0.753,-0.006
20.33,-0.5,1.224,-0.148
20.34,-0.129,0.85,-0.066
20.35,-0.101,1.145,0.083
20.36,-0.092,0.702,0.165
20.37,-0.444,1.047,-0.143
20.38,-0.283,0.975,-0.113
20.39,-0.045,1.106,0.07
20.4,-0.154,0.879,0.108
20.41,-0.196,0.739,0.063
20.42,-0.453,1.371,-0.244
20.43,-0.009,0.717,-0.019
20.44,-0.175,1.21,0.2
20.45,-0.184,0.701,0.097
20.46,-0.449,1.055,-0.181
20.47,-0.087,1.085,-0.082
20.48,-0.133,0.921,0.087
20.49,-0.125,0.973,0.132
20.5,-0.298,0.719,-0.039
20.51,-0.397,1.263,-0.205
20.52,0.0,0.896,0.073
20.53,-0.133,1.144,0.12
20.54,-0.172,0.703,0.028
20.55,-0.418,1.091,-0.175
20.56,-0.078,1.16,-0.102
20.57,-0.132,0.761,0.128
20.58,-0.207,1.07,0.139
20.59,-0.32,0.74,-0.203
20.6,-0.242,1.179,-0.159
20.61,-0.013,0.962,0.115
20.62,-0.135,0.901,0.13
20.63,-0.242,0.843,0.017
20.64,-0.319,1.101,-0.161
20.65,-0.121,1.152,-0.038
20.66,-0.151,0.706,0.237
20.67,-0.175,1.071,0.077
20.68,-0.353,0.752,-0.236
20.69,-0.108,1.343,-0.095
20.7,-0.059,0.732,0.078
20.71,-0.224,0.97,0.214
20.72,-0.265,0.897,-0.116
20.73,-0.32,0.986,-0.199
20.74,-0.009,1.155,0.134
20.75,-0.129,0.778,0.114
20.76,-0.279,0.995,0.015
20.77,-0.321,0.949,-0.147
20.78,-0.189,1.219,-0.062
20.79,-0.126,0.716,0.15
20.8,-0.125,0.995,0.141
20.81,-0.398,0.922,-0.222
20.82,-0.225,0.975,-0.049
20.83,-0.056,1.182,0.068
20.84,-0.15,0.619,0.164
20.85,-0.251,1.14,0.012
20.86,-0.416,0.874,-0.219
20.87,-0.161,1.135,0.077
20.88,-0.07,0.946,0.122
20.89,-0.18,0.798,0.032
20.9,-0.417,1.114,-0.113
20.91,-0.075,0.998,-0.124
20.92,-0.193,1.061,0.092
20.93,-0.11,0.693,0.23
20.94,-0.368,1.149,-0.142
20.95,-0.307,0.785,-0.153
20.96,-0.037,1.267,0.082
20.97,-0.232,0.92,0.134
20.98,-0.224,0.76,0.036
20.99,-0.355,1.233,-0.185
21.0,-0.13,0.882,-0.049
21.01,-0.096,1.141,0.104
21.02,-0.032,0.719,0.107
21.03,-0.449,1.088,-0.16
21.04,-0.139,0.888,-0.135
21.05,-0.117,1.167,0.137
21.06,-0.179,0.89,0.11
21.07,-0.156,0.769,-0.041
21.08,-0.445,1.311,-0.182
21.09,-0.062,0.788,0.022
21.1,-0.136,1.169,0.135
21.11,-0.136,0.707,0.062
21.12,-0.452,1.089,-0.188
21.13,-0.162,1.066,-0.064
21.14,-0.116,0.95,0.113
21.15,-0.156,0.914,0.145
21.16,-0.275,0.745,-0.086
21.17,-0.323,1.271,-0.162
21.18,-0.032,0.854,0.066
21.19,-0.182,1.095,0.14
21.2,-0.193,0.723,-0.009
21.21,-0.47,1.102,-0.157
21.22,-0.091,1.104,-0.052
21.23,-0.153,0.822,0.15
21.24,-0.216,1.04,0.147
21.25,-0.269,0.734,-0.144
21.26,-0.29,1.224,-0.116
21.27,-0.071,0.951,0.144
21.28,-0.149,0.957,0.068
21.29,-0.236,0.818,-0.068
21.3,-0.346,1.068,-0.177
21.31,-0.131,1.125,-0.018
21.32,-0.078,0.731,0.199
21.33,-0.173,1.064,0.044
21.34,-0.368,0.783,-0.221
21.35,-0.086,1.231,-0.047
21.36,-0.173,0.89,0.161
21.37,-0.245,0.861,0.169
21.38,-0.222,1.005,-0.152
21.39,-0.336,0.934,-0.15
21.4,-0.104,1.238,0.102
21.41,-0.06,0.7,0.111
21.42,-0.317,1.03,0.033
21.43,-0.323,0.933,-0.143
21.44,-0.19,1.198,-0.034
21.45,-0.127,0.795,0.134
21.46,-0.122,0.862,0.139
21.47,-0.399,1.072,-0.211
21.48,-0.231,0.864,-0.081
21.49,-0.052,1.318,0.091
21.5,-0.138,0.605,0.091
21.51,-0.284,1.139,-0.039
21.52,-0.285,0.863,-0.222
21.53,-0.132,1.164,0.08
21.54,-0.06,0.84,0.205
21.55,-0.209,0.884,0.024
21.56,-0.414,1.035,-0.163
21.57,-0.086,0.995,-0.045
21.58,-0.148,1.082,0.087
21.59,-0.156,0.636,0.188
21.6,-0.382,1.173,-0.123
21.61,-0.24,0.853,-0.163
21.62,-0.118,1.216,0.134
21.63,-0.134,0.803,0.124
21.64,-0.193,0.844,-0.035
21.65,-0.401,1.23,-0.186
21.66,-0.083,0.866,-0.008
21.67,-0.219,1.113,0.157
21.68,-0.034,0.705,0.06
21.69,-0.461,1.163,-0.184
21.7,-0.28,0.923,0.005
21.71,-0.092,1.111,0.123
21.72,-0.148,0.874,0.094
21.73,-0.268,0.816,-0.043
21.74,-0.331,1.22,-0.207
21.75,-0.099,0.856,0.086
21.76,-0.091,1.157,0.127
21.77,-0.177,0.665,0.01
21.78,-0.48,1.186,-0.163
21.79,-0.096,1.031,-0.06
21.8,-0.131,0.945,0.12
21.81,-0.131,0.95,0.131
21.82,-0.356,0.808,-0.146
21.83,-0.264,1.215,-0.145
21.84,-0.008,0.895,0.082
21.85,-0.128,1.005,0.129
21.86,-0.281,0.726,0.021
21.87,-0.337,1.171,-0.196
21.88,-0.073,1.027,-0.026
21.89,-0.188,0.87,0.212
21.9,-0.154,1.014,0.081
21.91,-0.428,0.799,-0.193
21.92,-0.181,1.27,-0.061
21.93,-0.052,0.805,0.106
21.94,-0.211,0.951,0.168
21.95,-0.281,0.886,-0.076
21.96,-0.268,1.022,-0.187
21.97,-0.103,1.128,0.059
21.98,-0.133,0.776,0.159
21.99,-0.237,1.047,0.042
22.0,-0.392,0.862,-0.168
22.01,-0.151,1.218,-0.061
22.02,-0.101,0.771,0.151
22.03,-0.209,0.913,0.157
22.04,-0.382,0.968,-0.141
22.05,-0.269,0.955,-0.117
22.06,-0.018,1.269,0.081
22.07,-0.087,0.597,0.116
22.08,-0.294,1.081,0.003
22.09,-0.296,0.951,-0.224
22.1,-0.096,1.112,0.029
22.11,-0.182,0.864,0.186
22.12,-0.124,0.831,0.046
22.13,-0.448,1.114,-0.209
22.14,-0.107,0.925,-0.077
22.15,-0.099,1.165,0.091
22.16,-0.186,0.643,0.168
22.17,-0.306,1.14,-0.103
22.18,-0.263,0.911,-0.195
22.19,-0.107,1.134,0.11
22.2,-0.075,0.926,0.112
22.21,-0.206,0.756,-0.032
22.22,-0.457,1.253,-0.131
22.23,-0.102,0.877,-0.026
22.24,-0.255,1.132,0.167
22.25,-0.046,0.703,0.108
22.26,-0.432,1.115,-0.207
22.27,-0.246,0.977,-0.057
22.28,-0.026,1.031,0.099
22.29,-0.22,0.946,0.121
22.3,-0.278,0.713,-0.026
22.31,-0.351,1.292,-0.215
22.32,-0.143,0.885,0.101
22.33,-0.121,1.163,0.127
22.34,-0.124,0.598,0.004
22.35,-0.495,1.27,-0.135
22.36,-0.094,0.924,-0.074
22.37,-0.141,0.927,0.105
22.38,-0.085,0.946,0.121
22.39,-0.355,0.872,-0.179
22.4,-0.306,1.174,-0.09
22.41,-0.027,0.922,0.111
22.42,-0.135,1.033,0.12
22.43,-0.232,0.732,0.02
22.44,-0.393,1.225,-0.232
22.45,-0.059,0.942,-0.043
22.46,-0.163,0.998,0.209
22.47,-0.149,0.9,0.065
22.48,-0.38,0.855,-0.187
22.49,-0.161,1.34,-0.05
22.5,-0.082,0.735,0.082
22.51,-0.184,0.994,0.19
22.52,-0.25,0.847,-0.154
22.53,-0.3,1.091,-0.176
22.54,-0.066,1.108,0.08
22.55,-0.207,0.798,0.185
22.56,-0.201,0.973,0.018
22.57,-0.38,0.924,-0.148
22.58,-0.208,1.242,-0.008
22.59,-0.143,0.726,0.13
22.6,-0.045,0.958,0.06
22.61,-0.417,0.876,-0.183
22.62,-0.241,1.033,-0.025
22.63,-0.05,1.154,0.048
22.64,-0.193,0.618,0.133
22.65,-0.243,1.109,0.034
22.66,-0.324,0.889,-0.246
22.67,-0.143,1.142,0.022
22.68,-0.052,0.854,0.166
22.69,-0.162,0.914,0.018
22.7,-0.414,0.98,-0.179
22.71,-0.125,0.99,-0.053
22.72,-0.146,1.125,0.083
22.73,-0.145,0.666,0.185
22.74,-0.359,1.15,-0.08
22.75,-0.22,0.83,-0.188
22.76,-0.105,1.206,0.126
22.77,-0.108,0.843,0.168
22.78,-0.233,0.834,0.016
22.79,-0.456,1.195,-0.137
22.8,-0.139,0.886,-0.042
22.81,-0.156,1.118,0.112
22.82,-0.146,0.66,0.127
22.83,-0.419,1.124,-0.154
22.84,-0.248,0.948,-0.082
22.85,-0.038,1.11,0.1
22.86,-0.132,0.839,0.111
22.87,-0.282,0.826,0.038
22.88,-0.376,1.248,-0.249
22.89,-0.111,0.772,-0.023
22.9,-0.083,1.185,0.162
22.91,-0.129,0.684,0.076
22.92,-0.5,1.113,-0.176
22.93,-0.083,1.03,-0.094
22.94,-0.106,0.964,0.078
22.95,-0.186,0.948,0.168
22.96,-0.248,0.776,-0.115
22.97,-0.334,1.211,-0.213
22.98,-0.05,0.888,0.121
22.99,-0.183,1.077,0.109
23.0,-0.151,0.696,-0.012
23.01,-0.439,1.147,-0.179
23.02,-0.085,1.068,-0.016
23.03,-0.164,0.884,0.164
23.04,-0.218,1.004,0.163
23.05,-0.307,0.739,-0.164
23.06,-0.28,1.264,-0.098
23.07,0.017,0.926,0.085
23.08,-0.137,0.909,0.108
23.09,-0.271,0.843,0.05
23.1,-0.363,1.128,-0.193
23.11,-0.104,1.069,-0.062
23.12,-0.088,0.798,0.158
23.13,-0.166,1.035,0.063
23.14,-0.389,0.864,-0.132
23.15,-0.21,1.249,-0.044
23.16,-0.036,0.699,0.063
23.17,-0.184,1.045,0.168
23.18,-0.329,0.792,-0.136
23.19,-0.278,1.09,-0.103
23.2,-0.064,1.108,0.048
23.21,-0.112,0.662,0.103
23.22,-0.256,1.091,0.074
23.23,-0.338,0.912,-0.241
23.24,-0.167,1.136,0.007
23.25,-0.14,0.81,0.153
23.26,-0.142,0.983,0.053
23.27,-0.316,0.89,-0.208
23.28,-0.19,1.064,-0.047
23.29,-0.088,1.08,0.032
23.3,-0.064,0.632,0.156
23.31,-0.374,1.145,-0.026
23.32,-0.264,0.864,-0.212
23.33,-0.125,1.178,0.009
23.34,-0.137,0.85,0.22
23.35,-0.178,0.894,0.077
23.36,-0.42,1.047,-0.212
23.37,-0.069,0.978,-0.046
23.38,-0.154,1.093,0.096
23.39,-0.108,0.652,0.164
23.4,-0.383,1.153,-0.143
23.41,-0.267,0.799,-0.142
23.42,-0.075,1.238,0.152
23.43,-0.169,0.851,0.126
23.44,-0.207,0.805,-0.037
23.45,-0.391,1.224,-0.127
23.46,-0.109,0.889,0.017
23.47,-0.215,1.122,0.174
23.48,-0.051,0.713,0.082
23.49,-0.419,1.099,-0.233
23.5,-0.234,0.96,-0.029
23.51,-0.092,1.088,0.095
23.52,-0.146,0.819,0.116
23.53,-0.244,0.807,-0.054
23.54,-0.343,1.241,-0.179
23.55,-0.144,0.829,0.073
23.56,-0.144,1.135,0.143
23.57,-0.053,0.682,-0.007
23.58,-0.451,1.195,-0.146
23.59,-0.121,0.991,-0.105
23.6,-0.097,0.886,0.057
23.61,-0.066,0.99,0.083
23.62,-0.372,0.752,-0.115
23.63,-0.361,1.257,-0.11
23.64,0.048,0.893,0.054
23.65,-0.244,0.978,0.179
23.66,-0.245,0.744,0.045
23.67,-0.306,1.19,-0.264
23.68,-0.116,1.004,-0.045
23.69,-0.118,0.804,0.184
23.7,-0.119,1.048,0.09
23.71,-0.375,0.763,-0.169
23.72,-0.241,1.244,-0.109
23.73,-0.029,0.871,0.074
23.74,-0.235,0.938,0.166
23.75,-0.225,0.871,-0.04
23.76,-0.36,1.037,-0.187
23.77,-0.108,1.119,0.032
23.78,-0.1,0.813,0.195
23.79,-0.266,1.018,0.089
23.8,-0.297,0.84,-0.22
23.81,-0.175,1.25,-0.102
23.82,-0.123,0.774,0.099
23.83,-0.162,0.902,0.159
23.84,-0.332,1.028,-0.129
23.85,-0.312,0.898,-0.115
23.86,-0.124,1.241,0.107
23.87,-0.064,0.718,0.132
23.88,-0.309,1.012,0.006
23.89,-0.345,0.935,-0.116
23.9,-0.135,1.181,-0.072
23.91,-0.157,0.791,0.11
23.92,-0.093,0.862,0.144
23.93,-0.407,1.095,-0.187
23.94,-0.262,0.804,-0.063
23.95,-0.136,1.172,0.105
23.96,-0.167,0.577,0.107
23.97,-0.248,1.152,0.002
23.98,-0.348,0.894,-0.233
23.99,-0.048,1.146,-0.042
24.0,-0.027,0.89,0.133
24.01,-0.21,0.856,0.045
24.02,-0.374,1.063,-0.216
24.03,-0.104,0.979,-0.061
24.04,-0.144,1.119,0.119
24.05,-0.14,0.664,0.202
24.06,-0.336,1.153,-0.116
24.07,-0.272,0.833,-0.167
24.08,-0.131,1.174,0.089
24.09,-0.147,0.873,0.143
24.1,-0.15,0.779,0.037
24.11,-0.47,1.292,-0.152
24.12,-0.124,0.856,-0.007
24.13,-0.218,1.137,0.146
24.14,-0.061,0.666,0.139
24.15,-0.451,1.103,-0.179
24.16,-0.21,0.94,-0.058
24.17,-0.095,1.144,0.084
24.18,-0.17,0.854,0.136
24.19,-0.227,0.712,-0.015
24.2,-0.397,1.309,-0.212
24.21,-0.034,0.816,-0.004
24.22,-0.236,1.198,0.164
24.23,-0.078,0.685,0.075
24.24,-0.433,1.095,-0.196
24.25,-0.193,1.081,-0.045
24.26,-0.083,0.941,0.073
24.27,-0.158,0.94,0.106
24.28,-0.225,0.742,-0.073
24.29,-0.381,1.257,-0.195
24.3,-0.148,0.84,0.09
24.31,-0.093,1.071,0.151
24.32,-0.167,0.731,0.028
24.33,-0.424,1.078,-0.169
24.34,-0.088,1.145,-0.099
24.35,-0.125,0.795,0.111
24.36,-0.115,1.031,0.14
24.37,-0.317,0.739,-0.111
24.38,-0.345,1.184,-0.14
24.39,0.071,0.944,0.064
24.4,-0.249,0.962,0.172
24.41,-0.19,0.804,0.027
24.42,-0.409,1.089,-0.205
24.43,-0.143,1.128,-0.058
24.44,-0.124,0.708,0.117
24.45,-0.175,1.087,0.142
24.46,-0.363,0.805,-0.19
24.47,-0.332,1.168,-0.051
24.48,0.031,0.967,0.083
24.49,-0.155,0.818,0.11
24.5,-0.246,0.956,0.017
24.51,-0.307,1.036,-0.218
24.52,-0.174,1.147,-0.007
24.53,-0.077,0.723,0.188
24.54,-0.147,1.105,0.044
24.55,-0.379,0.816,-0.203
24.56,-0.189,1.128,-0.008
24.57,-0.126,0.989,0.076
24.58,-0.102,0.708,0.131
24.59,-0.318,1.116,-0.043
24.6,-0.304,0.849,-0.197
24.61,-0.162,1.181,0.004
24.62,0.008,0.744,0.169
24.63,-0.264,0.982,0.005
24.64,-0.383,0.938,-0.173
24.65,-0.034,1.086,-0.084
24.66,-0.204,0.945,0.103
24.67,-0.125,0.671,0.215
24.68,-0.384,1.222,-0.157
24.69,-0.304,0.798,-0.171
24.7,0.01,1.284,0.069
24.71,-0.081,0.742,0.113
24.72,-0.295,0.912,-0.002
24.73,-0.233,1.094,-0.188
24.74,-0.175,0.918,-0.007
24.75,-0.24,1.029,0.185
24.76,-0.011,0.691,0.101
24.77,-0.505,1.161,-0.195
24.78,-0.129,0.847,-0.045
24.79,-0.117,1.25,0.026
24.8,-0.06,0.625,0.121
24.81,-0.336,1.061,-0.044
24.82,-0.256,0.967,-0.197
24.83,-0.125,1.003,0.034
24.84,-0.109,1.023,0.141
24.85,-0.131,0.69,0.016
24.86,-0.452,1.267,-0.214
24.87,-0.105,0.849,-0.033
24.88,-0.179,1.151,0.128
24.89,-0.167,0.751,0.197
24.9,-0.369,0.996,-0.135
24.91,-0.224,1.035,-0.152
24.92,-0.114,1.001,0.134
24.93,-0.156,1.025,0.106
24.94,-0.198,0.656,-0.012
24.95,-0.457,1.354,-0.151
24.96,-0.022,0.838,-0.082
24.97,-0.211,1.044,0.168
24.98,-0.09,0.823,0.12
24.99,-0.444,0.93,-0.169
25.0,-0.24,1.152,-0.075
25.01,-0.012,0.926,0.075
25.02,-0.194,0.99,0.139
25.03,-0.187,0.704,-0.029
25.04,-0.319,1.309,-0.215
25.05,-0.093,0.884,-0.01
25.06,-0.143,1.039,0.196
25.07,-0.114,0.858,0.039
25.08,-0.425,0.908,-0.184
25.09,-0.15,1.248,-0.056
25.1,-0.087,0.767,0.089
25.11,-0.229,1.029,0.174
25.12,-0.24,0.769,-0.086
25.13,-0.294,1.159,-0.253
25.14,-0.089,0.989,0.115
25.15,-0.064,0.934,0.153
25.16,-0.232,0.933,0.0
25.17,-0.404,0.889,-0.153
25.18,-0.08,1.288,-0.074
25.19,-0.133,0.716,0.121
25.2,-0.217,1.024,0.196
25.21,-0.292,0.845,-0.159
25.22,-0.29,1.028,-0.148
25.23,-0.049,1.101,0.09
25.24,-0.071,0.725,0.117
25.25,-0.288,1.043,0.007
25.26,-0.348,0.937,-0.124
25.27,-0.184,1.224,0.003
25.28,-0.191,0.709,0.188
25.29,-0.133,0.972,0.105
25.3,-0.402,0.963,-0.206
25.31,-0.224,1.012,0.004
25.32,-0.148,1.116,0.071
25.33,-0.071,0.61,0.139
25.34,-0.322,1.179,-0.004
25.35,-0.314,0.836,-0.244
25.36,-0.169,1.125,0.002
25.37,-0.004,0.896,0.161
25.38,-0.176,0.89,0.081
25.39,-0.449,1.033,-0.219
25.4,-0.05,0.896,-0.094
25.41,-0.142,1.143,0.079
25.42,-0.143,0.666,0.187
25.43,-0.354,1.14,-0.117
25.44,-0.255,0.869,-0.154
25.45,-0.108,1.211,0.093
25.46,-0.107,0.881,0.1
25.47,-0.188,0.783,0.034
25.48,-0.432,1.247,-0.179
25.49,-0.106,0.854,-0.017
25.5,-0.198,1.142,0.169
25.51,-0.131,0.702,0.154
25.52,-0.39,1.095,-0.191
25.53,-0.269,0.885,-0.145
25.54,-0.007,1.154,0.088
25.55,-0.144,0.857,0.099
25.56,-0.232,0.77,0.037
25.57,-0.412,1.331,-0.182
25.58,-0.139,0.841,0.064
25.59,-0.148,1.188,0.191
25.6,-0.157,0.651,0.018
25.61,-0.482,1.188,-0.152
25.62,-0.083,0.973,-0.018
25.63,-0.17,1.072,0.062
25.64,-0.144,0.79,0.161
25.65,-0.221,0.885,-0.09
25.66,-0.329,1.164,-0.203
25.67,-0.178,0.889,0.169
25.68,-0.079,1.168,0.086
25.69,-0.194,0.609,-0.106
25.7,-0.413,1.194,-0.098
25.71,-0.093,1.013,-0.003
25.72,-0.177,0.953,0.098
25.73,-0.167,0.973,0.183
25.74,-0.336,0.795,-0.172
25.75,-0.343,1.196,-0.089
25.76,-0.011,0.929,0.118
25.77,-0.166,1.017,0.096
25.78,-0.302,0.715,-0.012
25.79,-0.319,1.198,-0.188
25.8,-0.097,0.996,-0.046
25.81,-0.201,0.839,0.228
25.82,-0.058,1.032,0.06
25.83,-0.401,0.806,-0.2
25.84,-0.262,1.22,-0.035
25.85,-0.052,0.81,0.075
25.86,-0.184,1.002,0.129
25.87,-0.281,0.873,-0.048
25.88,-0.305,1.042,-0.182
25.89,-0.148,1.1,0.031
25.9,-0.07,0.823,0.167
25.91,-0.203,0.987,0.026
25.92,-0.374,0.826,-0.2
25.93,-0.122,1.282,-0.069
25.94,-0.125,0.75,0.074
25.95,-0.183,0.947,0.179
25.96,-0.291,0.979,-0.115
25.97,-0.313,0.898,-0.14
25.98,-0.122,1.247,0.126
25.99,-0.101,0.754,0.119
26.0,-0.254,0.991,0.01
26.01,-0.344,0.934,-0.158
26.02,-0.126,0.7,0.155
26.03,-0.349,1.114,-0.169
26.04,-0.289,0.963,-0.109
26.05,-0.064,1.061,0.121
26.06,-0.119,0.92,0.108
26.07,-0.238,0.711,-0.024
26.08,-0.363,1.348,-0.178
26.09,-0.042,0.844,0.007
26.1,-0.25,1.111,0.134
26.11,-0.01,0.776,0.061
26.12,-0.426,1.084,-0.218
26.13,-0.263,1.035,-0.026
26.14,-0.015,0.964,0.102
26.15,-0.207,0.99,0.135
26.16,-0.273,0.705,-0.036
26.17,-0.321,1.294,-0.208
26.18,-0.079,0.858,0.069
26.19,-0.138,1.083,0.145
26.2,-0.112,0.743,-0.0
26.21,-0.467,0.994,-0.167
26.22,-0.032,1.198,-0.035
26.23,-0.065,0.788,0.112
26.24,-0.301,1.053,0.182
26.25,-0.176,0.775,-0.141
26.26,-0.364,1.235,-0.149
26.27,-0.164,0.873,0.17
26.28,0.038,0.966,0.093
26.29,-0.296,0.747,-0.065
26.3,-0.262,1.159,-0.165
26.31,-0.18,1.07,-0.017
26.32,-0.21,0.737,0.228
26.33,-0.072,1.029,0.083
26.34,-0.443,0.822,-0.229
26.35,-0.288,1.229,-0.013
26.36,0.013,0.832,0.079
26.37,-0.271,0.947,0.144
26.38,-0.266,0.885,-0.043
26.39,-0.322,1.053,-0.203
26.4,-0.092,1.107,0.064
26.41,-0.017,0.766,0.123
26.42,-0.314,1.009,0.013
26.43,-0.356,0.826,-0.174
26.44,0.004,1.279,-0.036
26.45,-0.183,0.772,0.126
26.46,-0.138,0.912,0.187
26.47,-0.389,1.02,-0.129
26.48,-0.387,0.895,-0.122
26.49,0.057,1.254,0.106
26.5,-0.046,0.658,0.073
26.51,-0.456,1.069,0.046
26.52,-0.232,0.94,-0.184
26.53,-0.232,1.122,-0.031
26.54,-0.037,0.818,0.171
26.55,-0.074,0.838,0.028
26.56,-0.561,1.097,-0.208
26.57,-0.014,0.88,-0.052
26.58,-0.146,1.203,0.1
26.59,-0.176,0.633,0.188
26.6,-0.275,1.108,-0.134
26.61,-0.364,0.934,-0.168
26.62,-0.11,1.07,0.143
26.63,-0.085,0.979,0.136
26.64,-0.299,0.702,0.019
26.65,-0.366,1.304,-0.157
26.66,-0.134,0.883,-0.018
26.67,-0.223,1.091,0.121
26.68,-0.021,0.73,0.121
26.69,-0.465,1.062,-0.211
26.7,-0.265,0.99,-0.081
26.71,-0.064,1.023,0.092
26.72,-0.129,0.944,0.096
26.73,-0.28,0.709,-0.01
26.74,-0.334,1.331,-0.259
26.75,-0.036,0.796,0.017
26.76,-0.096,1.127,0.178
26.77,-0.137,0.742,0.045
26.78,-0.54,1.061,-0.149
26.79,-0.048,1.132,-0.058
26.8,-0.124,0.862,0.133
26.81,-0.272,1.031,0.179
26.82,-0.206,0.705,-0.17
26.83,-0.373,1.224,-0.172
26.84,-0.023,0.922,0.119
26.85,-0.077,0.992,0.097
26.86,-0.398,0.822,-0.017
26.87,-0.194,0.987,-0.181
26.88,-0.119,1.239,-0.016
26.89,-0.228,0.662,0.182
26.9,-0.077,1.098,0.076
26.91,-0.354,0.82,-0.231
26.92,-0.315,1.161,-0.019
26.93,-0.0,0.925,0.065
26.94,-0.154,0.848,0.076
26.95,-0.277,1.008,-0.063
26.96,-0.217,0.988,-0.174
26.97,-0.194,1.198,0.1
26.98,-0.078,0.664,0.159
26.99,-0.181,1.075,-0.027
27.0,-0.488,0.903,-0.169
27.01,-0.098,1.087,-0.054
27.02,-0.113,0.91,0.119
27.03,-0.17,0.799,0.136
27.04,-0.359,1.102,-0.197
27.05,-0.201,0.867,-0.103
27.06,-0.06,1.277,0.082
27.07,-0.065,0.66,0.125
27.08,-0.299,1.017,-0.03
27.09,-0.319,1.001,-0.215
27.1,-0.144,1.167,0.065
27.11,-0.139,0.856,0.153
27.12,-0.196,0.8,0.053
27.13,-0.444,1.169,-0.159
27.14,-0.135,0.927,-0.041
27.15,-0.129,1.073,0.082
27.16,-0.046,0.687,0.124
27.17,-0.382,1.152,-0.16
27.18,-0.297,0.891,-0.113
27.19,0.007,1.2,0.1
27.2,-0.179,0.83,0.092
27.21,-0.23,0.789,0.07
27.22,-0.418,1.311,-0.216
27.23,-0.118,0.802,0.034
27.24,-0.196,1.2,0.176
27.25,-0.121,0.65,0.048
27.26,-0.447,1.094,-0.158
27.27,-0.188,1.096,-0.037
27.28,-0.057,0.92,0.08
27.29,-0.216,0.963,0.172
27.3,-0.273,0.761,-0.093
27.31,-0.302,1.252,-0.197
27.32,-0.073,0.909,0.102
27.33,-0.1,1.043,0.129
27.34,-0.204,0.74,0.022
27.35,-0.466,1.123,-0.134
27.36,-0.104,1.108,-0.04
27.37,-0.162,0.796,0.165
27.38,-0.215,1.041,0.123
27.39,-0.303,0.738,-0.195
27.4,-0.271,1.259,-0.075
27.41,-0.022,0.934,0.122
27.42,-0.147,0.928,0.129
27.43,-0.308,0.838,-0.002
27.44,-0.328,1.102,-0.209
27.45,-0.057,1.137,-0.046
27.46,-0.163,0.738,0.157
27.47,-0.176,1.011,0.096
27.48,-0.37,0.852,-0.209
27.49,-0.181,1.203,-0.066
27.5,-0.057,0.807,0.123
27.51,-0.189,0.904,0.178
27.52,-0.358,1.006,-0.104
27.53,-0.249,0.881,-0.169
27.54,-0.14,1.25,0.124
27.55,-0.102,0.655,0.121
27.56,-0.249,1.074,0.013
27.57,-0.41,0.934,-0.163
27.58,-0.149,1.086,-0.053
27.59,-0.111,0.883,0.114
27.6,-0.125,0.824,0.087
27.61,-0.379,1.068,-0.175
27.62,-0.218,0.875,-0.071
27.63,-0.048,1.226,0.065
27.64,-0.096,0.625,0.117
27.65,-0.324,1.09,-0.008
27.66,-0.323,0.947,-0.222
27.67,-0.132,1.029,0.05
27.68,-0.068,1.04,0.162
27.69,-0.209,0.731,-0.006
27.7,-0.417,1.198,-0.173
27.71,-0.07,0.927,-0.052
27.72,-0.166,1.131,0.096
27.73,-0.126,0.696,0.164
27.74,-0.378,1.057,-0.139
27.75,-0.274,0.969,-0.188
27.76,0.02,1.015,0.095
27.77,-0.158,1.011,0.128
27.78,-0.273,0.665,-0.006
27.79,-0.328,1.291,-0.2
27.8,-0.113,0.897,-0.032
27.81,-0.178,1.092,0.207
27.82,-0.062,0.784,0.108
27.83,-0.449,0.995,-0.186
27.84,-0.232,1.113,-0.027
27.85,-0.117,0.928,0.095
27.86,-0.201,0.973,0.121
27.87,-0.192,0.723,-0.089
27.88,-0.347,1.278,-0.196
27.89,-0.091,0.868,0.068
27.9,-0.127,0.989,0.166
27.91,-0.143,0.809,0.044
27.92,-0.386,1.266,-0.201
27.93,-0.163,0.999,-0.029
27.94,-0.18,0.876,0.17
27.95,-0.115,0.98,0.106
27.96,-0.425,0.788,-0.188
27.97,-0.209,1.271,-0.107
27.98,-0.039,0.885,0.103
27.99,-0.196,0.924,0.172
28.0,-0.235,0.815,-0.014
28.01,-0.35,1.071,-0.225
28.02,-0.085,1.1,0.005
28.03,-0.113,0.82,0.154
28.04,-0.244,0.984,0.048
28.05,-0.298,0.834,-0.18
28.06,-0.14,1.328,-0.056
28.07,-0.125,0.771,0.095
28.08,-0.109,0.925,0.166
28.09,-0.317,0.977,-0.118
28.1,-0.413,0.917,-0.078
28.11,-0.015,1.266,0.083
28.12,-0.14,0.686,0.122
28.13,-0.283,1.072,0.012
28.14,-0.322,0.917,-0.163
28.15,-0.269,1.11,-0.028
28.16,-0.099,0.838,0.211
28.17,-0.145,0.903,0.127
28.18,-0.418,1.045,-0.196
28.19,-0.165,0.892,-0.072
28.2,-0.129,1.281,0.034
28.21,-0.073,0.621,0.144
28.22,-0.327,1.076,0.008
28.23,-0.334,0.903,-0.251
28.24,-0.119,1.064,0.054
28.25,-0.14,1.023,0.151
28.26,-0.208,0.684,0.077
28.27,-0.355,1.205,-0.146
28.28,-0.099,0.938,-0.117
28.29,-0.205,1.137,0.12
28.3,-0.065,0.734,0.156
28.31,-0.365,1.053,-0.152
28.32,-0.275,0.906,-0.181
28.33,-0.029,1.105,0.12
28.34,-0.241,1.026,0.147
28.35,-0.174,0.676,-0.008
28.36,-0.391,1.333,-0.179
28.37,-0.15,0.851,-0.045
28.38,-0.153,1.136,0.137
28.39,-0.064,0.822,0.152
28.4,-0.453,0.943,-0.181
28.41,-0.237,1.094,-0.039
28.42,-0.09,1.001,0.095
28.43,-0.225,0.962,0.108
28.44,-0.118,0.697,-0.034
28.45,-0.457,1.295,-0.21
28.46,-0.101,0.827,0.027
28.47,-0.108,1.171,0.18
28.48,-0.163,0.777,0.027
28.49,-0.377,0.936,-0.124
28.5,-0.088,1.302,-0.083
28.51,-0.112,0.735,0.023
28.52,-0.077,1.072,0.2
28.53,-0.269,0.753,-0.126
28.54,-0.422,1.121,-0.148
28.55,-0.048,1.028,0.12
28.56,-0.27,0.957,0.148
28.57,-0.234,0.855,0.01
28.58,-0.269,1.013,-0.177
28.59,-0.212,1.223,-0.08
28.6,-0.15,0.665,0.2
28.61,-0.064,1.088,0.09
28.62,-0.412,0.761,-0.17
28.63,-0.274,1.134,-0.031
28.64,-0.068,1.085,0.028
28.65,-0.154,0.716,0.1
28.66,-0.187,1.082,0.014
28.67,-0.44,0.941,-0.214
28.68,-0.127,1.122,-0.022
28.69,-0.008,0.825,0.204
28.7,-0.156,1.009,0.062
28.71,-0.342,0.878,-0.214
28.72,-0.151,1.115,-0.08
28.73,-0.142,0.826,0.101
28.74,-0.121,0.865,0.177
28.75,-0.398,1.042,-0.098
28.76,-0.281,0.868,-0.158
28.77,-0.083,1.25,0.128
28.78,-0.138,0.622,0.16
28.79,-0.208,1.018,0.03
28.8,-0.344,1.014,-0.18
28.81,-0.19,1.046,-0.082
28.82,-0.163,0.864,0.156
28.83,-0.105,0.818,0.122
28.84,-0.434,1.102,-0.171
28.85,-0.237,0.841,-0.082
28.86,-0.088,1.292,0.11
28.87,-0.154,0.609,0.146
28.88,-0.295,1.037,-0.004
28.89,-0.287,1.015,-0.244
28.9,-0.194,1.016,0.026
28.91,-0.006,1.036,0.089
28.92,-0.115,0.733,0.056
28.93,-0.468,1.201,-0.168
28.94,-0.114,0.893,-0.097
28.95,-0.105,1.142,0.071
28.96,-0.129,0.748,0.2
28.97,-0.31,0.979,-0.152
28.98,-0.31,0.987,-0.196
28.99,-0.035,1.024,0.102
29.0,-0.164,1.077,0.134
29.01,-0.131,0.638,0.033
29.02,-0.464,1.35,-0.166
29.03,-0.069,0.869,-0.047
29.04,-0.16,1.048,0.138
29.05,-0.11,0.808,0.11
29.06,-0.381,0.931,-0.155
29.07,-0.274,1.124,-0.125
29.08,-0.021,0.955,0.071
29.09,-0.194,1.036,0.099
29.1,-0.174,0.681,0.003
29.11,-0.429,1.315,-0.179
29.12,-0.088,0.833,-0.012
29.13,-0.15,1.012,0.194
29.14,-0.158,0.922,0.079
29.15,-0.412,0.842,-0.189
29.16,-0.274,1.252,-0.018
29.17,-0.052,0.847,0.119
29.18,-0.199,0.98,0.101
29.19,-0.3,0.769,-0.009
29.2,-0.27,1.231,-0.219
29.21,-0.141,0.925,0.034
29.22,-0.026,0.929,0.172
29.23,-0.215,0.964,-0.016
29.24,-0.387,0.798,-0.164
29.25,-0.129,1.298,-0.106
29.26,-0.093,0.713,0.119
29.27,-0.169,1.04,0.156
29.28,-0.313,0.812,-0.15
29.29,-0.278,1.1,-0.103
29.3,-0.049,1.104,0.083
29.31,-0.12,0.715,0.139
29.32,-0.338,1.071,0.05
29.33,-0.289,0.891,-0.239
29.34,-0.137,1.202,-0.051
29.35,-0.124,0.779,0.138
29.36,-0.127,0.933,0.092
29.37,-0.372,0.982,-0.162
29.38,-0.167,1.049,-0.031
29.39,-0.136,1.082,0.061
29.4,-0.136,0.618,0.152
29.41,-0.334,1.172,-0.07
29.42,-0.343,0.794,-0.194
29.43,-0.182,1.213,0.117
29.44,-0.081,0.868,0.129
29.45,-0.143,0.84,0.063
29.46,-0.411,1.115,-0.177
29.47,-0.142,0.971,-0.046
29.48,-0.164,1.107,0.143
29.49,-0.111,0.657,0.148
29.5,-0.417,1.115,-0.157
29.51,-0.219,0.837,-0.179
29.52,-0.019,1.226,0.082
29.53,-0.12,0.821,0.101
29.54,-0.198,0.802,0.026
29.55,-0.315,1.098,-0.215
29.56,-0.092,0.913,-0.008
29.57,-0.17,1.107,0.142
29.58,-0.076,0.654,0.113
29.59,-0.478,1.215,-0.185
29.6,-0.121,0.876,-0.087
29.61,-0.071,1.163,0.033
29.62,-0.176,0.781,0.218
29.63,-0.326,0.933,-0.088
29.64,-0.264,1.054,-0.229
29.65,-0.146,0.906,0.153
29.66,-0.136,1.154,0.104
29.67,-0.16,0.58,0.042
29.68,-0.388,1.346,-0.182
29.69,-0.169,0.883,-0.083
29.7,-0.182,0.986,0.127
29.71,-0.013,0.926,0.175
29.72,-0.455,0.854,-0.114
29.73,-0.302,1.073,-0.134
29.74,-0.012,0.976,0.071
29.75,-0.198,1.014,0.106
29.76,-0.129,0.647,-0.01
29.77,-0.389,1.345,-0.211
29.78,-0.08,0.887,-0.069
29.79,-0.112,0.941,0.189
29.8,-0.109,0.946,0.072
29.81,-0.393,0.813,-0.193
29.82,-0.206,1.301,0.004
29.83,-0.132,0.838,0.09
29.84,-0.248,0.968,0.131
29.85,-0.195,0.814,0.022
29.86,-0.377,1.16,-0.256
29.87,-0.163,0.956,0.059
29.88,-0.028,0.952,0.152
29.89,-0.167,0.964,-0.007
29.9,-0.379,0.798,-0.137
29.91,-0.094,1.313,-0.105
29.92,-0.143,0.738,0.079
29.93,-0.185,0.983,0.188
29.94,-0.334,0.86,-0.091
29.95,-0.314,1.007,-0.187
29.96,-0.094,1.127,0.063
29.97,-0.015,0.704,0.126
29.98,-0.3,1.062,0.061
29.99,-0.325,0.917,-0.174
30.0,-0.182,1.213,-0.032
30.01,-0.127,0.788,0.174
30.02,-0.151,0.966,0.114
30.03,-0.327,0.946,-0.191
30.04,-0.3,0.974,-0.056
30.05,-0.039,1.203,0.041
30.06,-0.084,0.596,0.095
30.07,-0.278,1.134,0.04
30.08,-0.3,0.938,-0.233
30.09,-0.162,1.065,0.0
30.1,-0.108,0.874,0.222
30.11,-0.125,0.882,0.086
30.12,-0.418,1.039,-0.193
30.13,-0.213,0.913,0.006
30.14,-0.087,1.236,0.067
30.15,-0.119,0.607,0.089
30.16,-0.268,1.139,-0.002
30.17,-0.305,0.955,-0.208
30.18,-0.202,1.044,0.089
30.19,-0.069,0.966,0.17
30.2,-0.181,0.715,0.004
30.21,-0.412,1.24,-0.16
30.22,-0.114,0.879,-0.038
30.23,-0.307,1.143,0.13
30.24,-0.034,0.666,0.149
30.25,-0.421,1.11,-0.133
30.26,-0.37,0.968,-0.096
30.27,-0.045,1.018,0.064
30.28,-0.094,0.923,0.108
30.29,-0.204,0.725,0.005
30.3,-0.395,1.336,-0.22
30.31,-0.085,0.807,-0.011
30.32,-0.233,1.165,0.176
30.33,-0.074,0.718,0.134
30.34,-0.454,1.004,-0.22
30.35,-0.171,1.096,-0.044
30.36,-0.102,1.11,0.07
30.37,-0.175,0.842,0.207
30.38,-0.303,0.787,-0.031
30.39,-0.327,1.214,-0.189
30.4,-0.079,0.865,0.051
30.41,-0.147,1.182,0.155
30.42,-0.135,0.63,0.033
30.43,-0.536,1.151,-0.16
30.44,-0.065,1.048,-0.043
30.45,-0.178,0.902,0.075
30.46,-0.189,0.968,0.164
30.47,-0.279,0.775,-0.177
30.48,-0.299,1.173,-0.178
30.49,0.031,0.93,0.116
30.5,-0.137,1.053,0.099
30.51,-0.257,0.73,0.021
30.52,-0.352,1.14,-0.176
30.53,-0.138,1.054,-0.055
30.54,-0.179,0.796,0.221
30.55,-0.139,1.043,0.083
30.56,-0.349,0.777,-0.193
30.57,-0.253,1.297,-0.06
30.58,-0.05,0.862,0.136
30.59,-0.223,0.878,0.145
30.6,-0.209,0.939,-0.03
30.61,-0.344,1.021,-0.207
30.62,-0.192,1.131,0.042
30.63,-0.1,0.834,0.17
30.64,-0.201,0.987,0.038
30.65,-0.371,0.839,-0.146
30.66,-0.169,1.305,-0.111
30.67,-0.15,0.762,0.079
30.68,-0.136,0.885,0.22
30.69,-0.303,1.031,-0.132
30.7,-0.272,0.808,-0.197
30.71,-0.098,1.32,0.137
30.72,-0.174,0.721,0.103
30.73,-0.243,1.004,0.009
30.74,-0.328,0.934,-0.143
30.75,-0.255,1.144,-0.044
30.76,-0.122,0.85,0.129
30.77,-0.051,0.85,0.126
30.78,-0.379,1.058,-0.176
30.79,-0.216,0.792,-0.089
30.8,-0.062,1.33,0.075
30.81,-0.094,0.626,0.112
30.82,-0.324,1.043,0.053
30.83,-0.339,0.975,-0.246
30.84,-0.108,0.988,-0.023
30.85,-0.15,1.057,0.18
30.86,-0.12,0.689,0.065
30.87,-0.419,1.153,-0.193
30.88,-0.122,0.893,-0.006
30.89,-0.116,1.232,0.105
30.9,-0.104,0.65,0.141
30.91,-0.297,1.045,-0.03
30.92,-0.325,1.021,-0.226
30.93,-0.118,0.963,0.028
30.94,-0.093,1.132,0.172
30.95,-0.117,0.624,0.054
30.96,-0.535,1.255,-0.107
30.97,-0.102,0.944,-0.093
30.98,-0.146,1.036,0.006
30.99,-0.026,0.806,0.179
31.0,-0.39,0.973,-0.105
31.01,-0.263,1.036,-0.205
31.02,-0.002,0.976,0.101
31.03,-0.175,1.071,0.079
31.04,-0.209,0.609,0.028
31.05,-0.367,1.35,-0.196
31.06,-0.127,0.873,-0.044
31.07,-0.207,1.005,0.165
31.08,-0.025,0.887,0.144
31.09,-0.431,0.88,-0.161
31.1,-0.306,1.159,-0.118
31.11,0.022,0.905,0.071
31.12,-0.199,1.033,0.097
31.13,-0.245,0.683,0.029
31.14,-0.27,1.29,-0.249
31.15,-0.162,0.919,-0.006
31.16,-0.179,0.92,0.198
31.17,-0.08,0.953,0.095
31.18,-0.508,1.031,-0.151
31.19,-0.062,1.186,-0.107
31.2,-0.149,0.78,0.057
31.21,-0.171,1.049,0.181
31.22,-0.252,0.751,-0.098
31.23,-0.396,1.161,-0.169
31.24,-0.074,0.905,0.107
31.25,-0.117,1.043,0.13
31.26,-0.222,0.816,0.023
31.27,-0.366,1.011,-0.121
31.28,-0.158,1.203,-0.059
31.29,-0.224,0.708,0.142
31.3,-0.074,1.074,0.143
31.31,-0.313,0.768,-0.168
31.32,-0.373,1.129,-0.111
31.33,0.029,1.038,0.066
31.34,-0.142,0.815,0.102
31.35,-0.376,0.983,0.088
31.36,-0.286,0.93,-0.19
31.37,-0.175,1.211,-0.036
31.38,-0.106,0.711,0.162
31.39,-0.123,1.045,0.093
31.4,-0.355,0.859,-0.192
31.41,-0.255,1.085,-0.023
31.42,-0.081,1.086,0.08
31.43,-0.183,0.694,0.14
31.44,-0.283,1.122,-0.037
31.45,-0.298,0.867,-0.217
31.46,-0.228,1.182,0.044
31.47,-0.07,0.795,0.131
31.48,-0.093,0.966,0.077
31.49,-0.405,0.939,-0.213
31.5,-0.11,0.99,-0.013
31.51,-0.137,1.084,0.085
31.52,-0.186,0.637,0.172
31.53,-0.314,1.183,-0.044
31.54,-0.25,0.831,-0.222
31.55,-0.262,1.178,0.098
31.56,-0.016,0.852,0.14
31.57,-0.135,0.873,-0.002
31.58,-0.488,1.104,-0.125
31.59,-0.08,0.948,-0.101
31.6,-0.143,1.045,0.007
31.61,-0.105,0.693,0.206
31.62,-0.415,1.156,-0.145
31.63,-0.322,0.826,-0.139
31.64,-0.07,1.253,0.089
31.65,-0.101,0.826,0.146
31.66,-0.28,0.766,0.044
31.67,-0.368,1.256,-0.156
31.68,-0.134,0.868,-0.023
31.69,-0.199,1.134,0.123
31.7,-0.092,0.703,0.153
31.71,-0.377,1.118,-0.214
31.72,-0.289,0.916,-0.101
31.73,-0.033,1.129,0.103
31.74,-0.106,0.866,0.111
31.75,-0.317,0.753,0.049
31.76,-0.385,1.303,-0.21
31.77,-0.03,0.795,-0.034
31.78,-0.225,1.184,0.143
31.79,-0.004,0.746,0.099
31.8,-0.471,1.076,-0.191
31.81,-0.277,0.981,-0.031
31.82,0.036,1.015,0.048
31.83,-0.129,0.944,0.083
31.84,-0.319,0.746,-0.003
31.85,-0.316,1.301,-0.193
31.86,-0.17,0.846,0.018
31.87,-0.153,1.119,0.178
31.88,-0.063,0.709,0.023
31.89,-0.519,1.067,-0.147
31.9,-0.104,1.114,-0.046
31.91,-0.103,0.814,0.089
31.92,-0.221,1.002,0.221
31.93,-0.281,0.767,-0.158
31.94,-0.26,1.225,-0.177
31.95,-0.151,0.954,0.108
31.96,-0.098,0.966,0.116
31.97,-0.222,0.814,0.032
31.98,-0.411,1.06,-0.149
31.99,-0.059,0.973,-0.014
32.0,-0.208,0.916,0.169
32.01,-0.058,0.974,0.03
32.02,-0.314,0.771,-0.231
32.03,-0.254,1.29,-0.0
32.04,-0.103,0.873,0.08
32.05,-0.163,0.932,0.146
32.06,-0.234,0.861,-0.016
32.07,-0.314,1.056,-0.253
32.08,-0.134,1.084,0.075
32.09,-0.109,0.851,0.154
32.1,-0.182,0.952,0.043
32.11,-0.302,0.874,-0.149
32.12,-0.186,1.305,-0.092
32.13,-0.091,0.736,0.062
32.14,-0.09,0.966,0.213
32.15,-0.384,0.965,-0.092
32.16,-0.345,0.864,-0.123
32.17,-0.121,1.247,0.128
32.18,-0.141,0.747,0.156
32.19,-0.24,1.041,0.005
32.2,-0.341,0.921,-0.179
32.21,-0.174,1.172,-0.085
32.22,-0.181,0.8,0.132
32.23,-0.029,0.873,0.152
32.24,-0.394,1.07,-0.162
32.25,-0.312,0.831,-0.083
32.26,-0.046,1.308,0.034
32.27,-0.128,0.631,0.114
32.28,-0.329,1.028,0.022
32.29,-0.292,0.952,-0.198
32.3,-0.175,1.036,-0.027
32.31,-0.224,0.93,0.187
32.32,-0.078,0.793,0.112
32.33,-0.464,1.11,-0.175
32.34,-0.259,0.864,0.009
32.35,-0.081,1.286,0.068
32.36,-0.179,0.624,0.128
32.37,-0.262,1.095,0.023
32.38,-0.349,1.008,-0.24
32.39,-0.183,0.951,-0.0
32.4,-0.093,1.074,0.149
32.41,-0.105,0.677,0.047
32.42,-0.51,1.221,-0.107
32.43,-0.094,0.888,-0.051
32.44,-0.195,1.149,0.022
32.45,-0.074,0.698,0.202
32.46,-0.306,1.035,-0.137
32.47,-0.301,0.95,-0.195
32.48,-0.054,1.035,0.118
32.49,-0.151,1.066,0.095
32.5,-0.206,0.59,0.064
32.51,-0.375,1.354,-0.156
32.52,-0.148,0.91,-0.075
32.53,-0.172,1.017,0.106
32.54,-0.034,0.859,0.175
32.55,-0.396,0.896,-0.142
32.56,-0.327,1.052,-0.089
32.57,0.024,1.013,0.039
32.58,-0.182,1.019,0.102
32.59,-0.143,0.636,0.047
32.6,-0.364,1.383,-0.199
32.61,-0.161,0.877,-0.045
32.62,-0.168,1.006,0.149
32.63,-0.056,0.893,0.113
32.64,-0.465,0.826,-0.17
32.65,-0.19,1.188,-0.066
32.66,-0.035,0.941,0.068
32.67,-0.172,0.977,0.125
32.68,-0.186,0.723,0.005
32.69,-0.373,1.281,-0.241
32.7,-0.092,0.889,-0.037
32.71,-0.172,0.965,0.228
32.72,-0.138,0.933,0.065
32.73,-0.436,0.8,-0.214
32.74,-0.153,1.291,-0.055
32.75,-0.111,0.816,0.08
32.76,-0.186,0.941,0.153
32.77,-0.277,0.863,-0.022
32.78,-0.255,1.092,-0.214
32.79,-0.165,1.02,0.068
32.8,-0.051,0.881,0.144
32.81,-0.191,0.84,0.035
32.82,-0.438,0.988,-0.102
32.83,-0.077,1.249,-0.096
32.84,-0.217,0.734,0.116
32.85,-0.083,1.03,0.162
32.86,-0.352,0.81,-0.132
32.87,-0.305,1.133,-0.17
32.88,0.002,1.001,0.064
32.89,-0.169,0.812,0.149
32.9,-0.241,0.979,0.029
32.91,-0.362,0.97,-0.215
32.92,-0.15,1.148,-0.041
32.93,-0.127,0.788,0.184
32.94,-0.088,1.028,0.05
32.95,-0.392,0.858,-0.163
32.96,-0.218,1.119,-0.046
32.97,-0.06,1.119,0.057
32.98,-0.156,0.662,0.109
32.99,-0.192,1.108,0.026
33.0,-0.336,0.927,-0.249
33.01,-0.233,1.113,-0.021
33.02,-0.062,0.831,0.167
33.03,-0.165,0.958,0.053
33.04,-0.403,0.902,-0.211
33.05,-0.029,1.068,-0.091
33.06,-0.147,1.103,0.037
33.07,-0.146,0.609,0.215
33.08,-0.255,1.18,-0.072
33.09,-0.339,0.797,-0.223
33.1,-0.131,1.194,0.101
33.11,-0.051,0.869,0.139
33.12,-0.2,0.85,0.023
33.13,-0.379,1.101,-0.159
33.14,-0.094,0.964,-0.091
33.15,-0.202,1.1,0.108
33.16,-0.167,0.703,0.193
33.17,-0.328,1.145,-0.172
33.18,-0.296,0.844,-0.174
33.19,-0.099,1.191,0.139
33.2,-0.127,0.841,0.097
33.21,-0.248,0.798,0.037
33.22,-0.365,1.239,-0.133
33.23,-0.137,0.861,-0.044
33.24,-0.194,1.124,0.163
33.25,-0.024,0.749,0.129
33.26,-0.451,1.105,-0.214
33.27,-0.277,0.853,-0.077
33.28,-0.018,1.217,0.069
33.29,-0.157,0.862,0.052
33.3,-0.262,0.751,0.049
33.31,-0.302,1.314,-0.233
33.32,-0.126,0.751,-0.002
33.33,-0.246,1.146,0.257
33.34,-0.018,0.726,0.061
33.35,-0.489,1.077,-0.213
33.36,-0.097,1.04,-0.026
33.37,-0.139,1.008,0.083
33.38,-0.191,0.916,0.142
33.39,-0.227,0.779,-0.046
33.4,-0.37,1.274,-0.225
33.41,-0.146,0.815,0.087
33.42,-0.102,1.153,0.117
33.43,-0.101,0.676,0.006
33.44,-0.419,1.104,-0.133
33.45,-0.165,1.129,-0.047
33.46,-0.214,0.795,0.106
33.47,-0.139,1.026,0.163
33.48,-0.313,0.777,-0.149
33.49,-0.28,1.198,-0.152
33.5,-0.124,0.942,0.159
33.51,-0.115,0.987,0.118
33.52,-0.23,0.802,0.012
33.53,-0.381,1.079,-0.148
33.54,-0.057,1.149,-0.128
33.55,-0.172,0.758,0.156
33.56,-0.081,1.069,0.139
33.57,-0.343,0.746,-0.19
33.58,-0.326,1.185,-0.04
33.59,-0.013,0.995,0.044
33.6,-0.159,0.814,0.15
33.61,-0.232,0.979,0.024
33.62,-0.366,1.14,-0.239
33.63,-0.114,1.011,0.001
33.64,-0.059,0.91,0.158
33.65,-0.227,1.022,0.075
33.66,-0.355,0.77,-0.179
33.67,-0.122,1.325,-0.051
33.68,-0.126,0.802,0.072
33.69,-0.205,0.881,0.203
33.7,-0.277,0.955,-0.087
33.71,-0.371,0.936,-0.164
33.72,-0.143,1.206,0.124
33.73,-0.034,0.803,0.129
33.74,-0.24,0.962,-0.025
33.75,-0.361,0.878,-0.109
33.76,-0.125,1.231,-0.104
33.77,-0.158,0.815,0.092
33.78,-0.123,0.902,0.185
33.79,-0.339,1.043,-0.172
33.8,-0.335,0.825,-0.123
33.81,-0.104,1.31,0.109
33.82,-0.081,0.675,0.118
33.83,-0.309,1.025,0.026
33.84,-0.324,0.96,-0.164
33.85,-0.167,1.098,-0.054
33.86,-0.227,0.857,0.134
33.87,-0.041,0.822,0.132
33.88,-0.412,1.132,-0.219
33.89,-0.236,0.812,-0.049
33.9,-0.06,1.297,0.084
33.91,-0.153,0.649,0.137
33.92,-0.337,1.031,0.025
33.93,-0.234,1.013,-0.252
33.94,-0.164,1.008,0.033
33.95,-0.206,1.013,0.175
33.96,-0.081,0.693,0.083
33.97,-0.47,1.198,-0.186
33.98,-0.115,0.844,-0.025
33.99,-0.162,1.218,0.072
34.0,-0.118,0.681,0.157
34.01,-0.267,1.013,-0.106
34.02,-0.292,0.991,-0.223
34.03,-0.087,0.979,0.067
34.04,-0.118,1.117,0.126
34.05,-0.111,0.609,0.018
34.06,-0.47,1.292,-0.162
34.07,-0.095,0.938,-0.04
34.08,-0.183,1.078,0.076
34.09,-0.096,0.798,0.159
34.1,-0.385,0.938,-0.167
34.11,-0.221,1.039,-0.21
34.12,-0.046,0.961,0.091
34.13,-0.171,1.103,0.118
34.14,-0.129,0.632,0.008
34.15,-0.39,1.323,-0.205
34.16,-0.115,0.864,-0.049
34.17,-0.285,1.023,0.22
34.18,-0.098,0.848,0.099
34.19,-0.444,0.856,-0.184
34.2,-0.238,1.173,-0.093
34.21,-0.046,0.932,0.061
34.22,-0.144,1.002,0.134
34.23,-0.209,0.685,-0.005
34.24,-0.336,1.26,-0.237
34.25,-0.052,0.951,-0.03
34.26,-0.218,0.973,0.171
34.27,-0.106,0.915,0.047
34.28,-0.395,0.825,-0.21
34.29,-0.094,1.291,-0.033
34.3,-0.077,0.833,0.067
34.31,-0.206,0.966,0.134
34.32,-0.204,0.854,-0.021
34.33,-0.362,1.104,-0.221
34.34,-0.121,0.998,0.03
34.35,-0.06,0.903,0.155
34.36,-0.425,1.24,-0.164
34.37,-0.124,0.919,0.109
34.38,-0.124,1.089,0.081
34.39,-0.183,0.663,0.016
34.4,-0.426,1.253,-0.148
34.41,-0.134,1.013,-0.065
34.42,-0.136,0.867,0.125
34.43,-0.112,1.025,0.153
34.44,-0.36,0.792,-0.172
34.45,-0.308,1.165,-0.134
34.46,0.034,0.935,0.039
34.47,-0.163,1.008,0.151
34.48,-0.341,0.773,0.072
34.49,-0.283,1.133,-0.197
34.5,-0.166,1.04,-0.105
34.51,-0.136,0.81,0.231
34.52,-0.04,1.031,0.04
34.53,-0.428,0.759,-0.197
34.54,-0.173,1.265,-0.031
34.55,-0.004,0.94,0.046
34.56,-0.279,0.874,0.178
34.57,-0.154,0.931,-0.018
34.58,-0.35,1.036,-0.229
34.59,-0.201,1.069,0.018
34.6,-0.062,0.866,0.234
34.61,-0.166,1.025,0.002
34.62,-0.337,0.755,-0.156
34.63,-0.081,1.322,-0.057
34.64,-0.166,0.83,0.07
34.65,-0.163,0.816,0.209
34.66,-0.279,1.035,-0.063
34.67,-0.391,0.872,-0.189
34.68,-0.171,1.158,0.082
34.69,-0.008,0.774,0.123
34.7,-0.263,1.014,0.007
34.71,-0.304,0.88,-0.161
34.72,-0.084,1.202,-0.133
34.73,-0.154,0.812,0.07
34.74,-0.081,0.818,0.215
34.75,-0.382,1.125,-0.161
34.76,-0.34,0.773,-0.134
34.77,-0.039,1.347,0.087
34.78,-0.119,0.687,0.128
34.79,-0.317,1.0,0.081
34.8,-0.259,1.019,-0.211
34.81,-0.188,1.015,-0.083
34.82,-0.213,0.92,0.201
34.83,0.025,0.765,0.104
34.84,-0.466,1.13,-0.221
34.85,-0.224,0.811,-0.013
34.86,-0.092,1.363,0.052
34.87,-0.119,0.618,0.116
34.88,-0.242,0.996,0.054
34.89,-0.323,1.094,-0.256
34.9,-0.143,0.878,-0.043
34.91,-0.143,1.127,0.203
34.92,-0.094,0.667,0.085
34.93,-0.491,1.181,-0.177
34.94,-0.08,0.887,-0.039
34.95,-0.16,1.178,0.077
34.96,-0.139,0.712,0.176
34.97,-0.23,0.952,-0.025
34.98,-0.404,1.083,-0.238
34.99,-0.062,0.89,0.02
35.0,-0.123,1.233,0.125
35.01,-0.11,0.586,0.059
35.02,-0.398,1.225,-0.172
35.03,-0.092,0.988,-0.112
35.04,-0.117,0.995,0.087
35.05,-0.18,0.873,0.186
35.06,-0.329,0.872,-0.086
35.07,-0.318,1.121,-0.186
35.08,-0.077,0.912,0.106
35.09,-0.152,1.142,0.121
35.1,-0.132,0.616,0.03
35.11,-0.415,1.265,-0.173
35.12,-0.107,0.95,-0.101
35.13,-0.111,0.934,0.085
35.14,-0.113,0.975,0.157
35.15,-0.405,0.947,-0.141
35.16,-0.273,1.109,-0.076
35.17,-0.032,0.996,0.058
35.18,-0.203,0.986,0.128
35.19,-0.19,0.662,0.049
35.2,-0.39,1.348,-0.22
35.21,-0.102,0.822,-0.025
35.22,-0.106,1.083,0.156
35.23,-0.115,0.832,0.113
35.24,-0.493,0.929,-0.184
35.25,-0.056,1.239,-0.126
35.26,-0.152,0.843,0.065
35.27,-0.202,1.025,0.165
35.28,-0.188,0.759,-0.055
35.29,-0.372,1.198,-0.23
35.3,-0.164,0.972,0.079
35.31,-0.063,0.99,0.117
35.32,-0.128,0.836,0.069
35.33,-0.441,0.97,-0.118
35.34,-0.103,1.254,-0.138
35.35,-0.092,0.731,0.056
35.36,-0.177,1.08,0.186
35.37,-0.276,0.77,-0.089
35.38,-0.386,1.074,-0.139
35.39,-0.119,1.062,0.107
35.4,-0.083,0.878,0.088
35.41,-0.195,0.94,-0.015
35.42,-0.366,0.888,-0.154
35.43,-0.146,1.28,-0.088
35.44,-0.168,0.712,0.117
35.45,-0.2,1.004,0.172
35.46,-0.255,0.864,-0.122
35.47,-0.361,0.989,-0.105
35.48,-0.113,1.146,0.107
35.49,-0.075,0.731,0.116
35.5,-0.231,1.046,0.026
35.51,-0.357,0.944,-0.153
35.52,-0.187,1.181,-0.01
35.53,-0.144,0.769,0.16
35.54,-0.134,0.979,0.151
35.55,-0.395,0.94,-0.163
35.56,-0.291,0.967,-0.037
35.57,-0.085,1.233,0.041
35.58,-0.041,0.583,0.077
35.59,-0.309,1.129,0.074
35.6,-0.254,0.897,-0.273
35.61,-0.177,1.073,-0.042
35.62,-0.112,0.885,0.165
35.63,-0.127,0.856,0.061
35.64,-0.357,1.043,-0.196
35.65,-0.199,0.966,-0.014
35.66,-0.086,1.238,0.083
35.67,-0.22,0.627,0.153
35.68,-0.235,1.115,-0.019
35.69,-0.368,0.938,-0.19
35.7,-0.163,1.064,0.068
35.71,-0.059,0.936,0.12
35.72,-0.151,0.778,0.065
35.73,-0.401,1.121,-0.189
35.74,-0.064,0.89,-0.058
35.75,-0.207,1.195,0.104
35.76,-0.187,0.653,0.204
35.77,-0.257,1.108,-0.084
35.78,-0.274,0.946,-0.238
35.79,-0.203,0.994,0.177
35.8,-0.053,0.989,0.157
35.81,-0.182,0.668,0.002
35.82,-0.418,1.26,-0.166
35.83,-0.073,0.841,-0.077
35.84,-0.209,1.128,0.094
35.85,-0.103,0.738,0.192
35.86,-0.349,0.994,-0.148
35.87,-0.29,0.967,-0.18
35.88,-0.004,1.037,0.086
35.89,-0.086,1.006,0.131
35.9,-0.294,0.65,0.04
35.91,-0.385,1.354,-0.21
35.92,-0.058,0.843,-0.068
35.93,-0.25,1.072,0.175
35.94,-0.006,0.829,0.125
35.95,-0.391,0.911,-0.192
35.96,-0.189,1.007,-0.043
35.97,-0.108,1.104,0.121
35.98,-0.261,0.883,0.134
35.99,-0.177,0.796,0.027
36.0,-0.443,1.289,-0.232
36.01,-0.165,0.747,0.064
36.02,-0.039,1.21,0.114
36.03,-0.151,0.694,0.047
36.04,-0.449,1.019,-0.173
36.05,-0.126,1.113,-0.026
36.06,-0.101,0.912,0.061
36.07,-0.22,0.993,0.158
36.08,-0.208,0.743,-0.067
36.09,-0.372,1.276,-0.189
36.1,-0.137,0.819,0.052
36.11,0.019,1.118,0.104
36.12,-0.202,0.741,0.051
36.13,-0.401,1.029,-0.196
36.14,-0.052,1.174,-0.126
36.15,-0.134,0.732,0.066
36.16,-0.168,1.044,0.227
36.17,-0.26,0.809,-0.128
36.18,-0.405,1.132,-0.178
36.19,-0.04,0.943,0.108
36.2,-0.059,1.021,0.1
36.21,-0.35,0.845,0.031
36.22,-0.312,1.045,-0.138
36.23,-0.116,1.171,-0.104
36.24,-0.246,0.733,0.216
36.25,-0.062,1.078,0.108
36.26,-0.308,0.756,-0.18
36.27,-0.386,1.202,-0.058
36.28,0.017,1.002,0.024
36.29,-0.174,0.808,0.136
36.3,-0.268,0.959,0.02
36.31,-0.254,0.982,-0.235
36.32,-0.17,1.165,-0.044
36.33,-0.2,0.712,0.152
36.34,-0.099,1.062,0.081
36.35,-0.337,0.822,-0.192
36.36,-0.246,1.115,-0.034
36.37,-0.059,1.074,0.033
36.38,-0.14,0.711,0.099
36.39,-0.268,1.064,0.008
36.4,-0.249,0.951,-0.237
36.41,-0.181,1.17,-0.006
36.42,-0.098,0.746,0.21
36.43,-0.113,0.999,0.048
36.44,-0.478,0.924,-0.192
36.45,-0.107,1.048,-0.036
36.46,-0.113,1.056,0.044
36.47,-0.216,0.671,0.227
36.48,-0.24,1.159,-0.057
36.49,-0.388,0.802,-0.201
36.5,-0.101,1.153,0.041
36.51,-0.012,0.871,0.141
36.52,-0.224,0.883,0.008
36.53,-0.407,1.038,-0.165
36.54,-0.019,1.001,-0.08
36.55,-0.202,1.095,0.104
36.56,-0.133,0.671,0.204
36.57,-0.327,1.209,-0.131
36.58,-0.296,0.8,-0.168
36.59,-0.164,1.221,0.129
36.6,-0.029,0.799,0.08
36.61,-0.244,0.828,0.015
36.62,-0.356,1.214,-0.169
36.63,-0.136,0.874,-0.029
36.64,-0.229,1.083,0.103
36.65,-0.015,0.703,0.17
36.66,-0.483,1.151,-0.185
36.67,-0.203,0.809,-0.119
36.68,-0.006,1.244,0.039
36.69,-0.111,0.808,0.119
36.7,-0.276,0.786,0.05
36.71,-0.366,1.281,-0.222
36.72,-0.128,0.757,0.007
36.73,-0.221,1.157,0.22
36.74,-0.063,0.705,0.101
36.75,-0.49,1.125,-0.195
36.76,-0.178,0.977,-0.064
36.77,-0.155,1.103,0.077
36.78,-0.096,0.722,0.172
36.79,-0.315,0.967,-0.046
36.8,-0.389,1.121,-0.22
36.81,-0.07,0.82,0.041
36.82,-0.064,1.219,0.127
36.83,-0.118,0.607,0.028
36.84,-0.499,1.204,-0.156
36.85,-0.058,0.98,-0.061
36.86,-0.133,1.032,0.086
36.87,-0.161,0.824,0.193
36.88,-0.252,0.918,-0.12
36.89,-0.338,1.15,-0.162
36.9,-0.083,0.867,0.124
36.91,-0.076,1.174,0.127
36.92,-0.219,0.642,0.022
36.93,-0.457,1.214,-0.157
36.94,-0.03,1.0,-0.08
36.95,-0.187,0.922,0.088
36.96,-0.111,0.945,0.187
36.97,-0.346,0.812,-0.162
36.98,-0.336,1.162,-0.126
36.99,0.045,0.906,0.126
37.0,-0.167,1.058,0.127
37.01,-0.252,0.691,0.025
37.02,-0.314,1.209,-0.163
37.03,-0.096,1.024,-0.058
37.04,-0.168,0.851,0.201
37.05,-0.082,1.019,0.105
37.06,-0.446,0.769,-0.18
37.07,-0.228,1.271,-0.03
37.08,0.001,0.879,0.078
37.09,-0.209,0.915,0.127
37.1,-0.244,0.869,0.008
37.11,-0.365,1.071,-0.219
37.12,-0.19,1.053,0.035
37.13,0.009,0.857,0.149
37.14,-0.256,0.972,0.029
37.15,-0.406,0.818,-0.155
37.16,-0.086,1.299,-0.066
37.17,-0.143,0.789,0.063
37.18,-0.155,0.922,0.221
37.19,-0.268,0.976,-0.142
37.2,-0.334,0.89,-0.166
37.21,-0.088,1.22,0.125
37.22,-0.121,0.748,0.158
37.23,-0.309,1.028,0.021
37.24,-0.314,0.911,-0.181
37.25,-0.143,1.19,-0.059
37.26,-0.139,0.764,0.121
37.27,-0.153,0.927,0.199
37.28,-0.369,1.028,-0.176
37.29,-0.263,0.831,-0.094
37.3,-0.006,1.3,0.075
37.31,-0.144,0.602,0.119
37.32,-0.342,1.09,0.004
37.33,-0.229,0.975,-0.248
37.34,-0.135,1.057,-0.013
37.35,-0.252,0.864,0.248
37.36,-0.088,0.799,0.082
37.37,-0.443,1.155,-0.22
37.38,-0.146,0.861,-0.031
37.39,-0.064,1.208,0.063
37.4,-0.167,0.649,0.173
37.41,-0.268,1.116,-0.032
37.42,-0.34,0.93,-0.218
37.43,-0.226,1.054,0.072
37.44,-0.065,1.064,0.137
37.45,-0.147,0.648,0.031
37.46,-0.456,1.228,-0.14
37.47,-0.05,0.891,-0.082
37.48,-0.193,1.147,0.101
37.49,-0.132,0.696,0.184
37.5,-0.312,1.06,-0.167
37.51,-0.267,0.967,-0.182
37.52,-0.107,1.039,0.126
37.53,-0.101,1.032,0.132
37.54,-0.198,0.683,0.022
37.55,-0.504,1.294,-0.16
37.56,-0.094,0.829,-0.078
37.57,-0.171,1.071,0.127
37.58,-0.109,0.8,0.164
37.59,-0.357,0.973,-0.185
37.6,-0.226,0.918,-0.068
37.61,-0.073,1.146,0.103
37.62,-0.171,0.894,0.108
37.63,-0.249,0.722,-0.021
37.64,-0.246,1.336,-0.249
37.65,-0.079,0.823,-0.021
37.66,-0.229,1.113,0.188
37.67,-0.069,0.689,0.045
37.68,-0.447,1.101,-0.225
37.69,-0.128,1.063,-0.046
37.7,-0.099,0.995,0.122
37.71,-0.226,0.925,0.121
37.72,-0.22,0.755,-0.072
37.73,-0.384,1.294,-0.146
37.74,-0.174,0.842,0.101
37.75,-0.105,1.099,0.141
37.76,-0.149,0.705,-0.009
37.77,-0.445,1.128,-0.124
37.78,-0.142,1.099,-0.054
37.79,-0.161,0.763,0.119
37.8,-0.073,1.078,0.124
37.81,-0.373,0.743,-0.126
37.82,-0.344,1.217,-0.076
37.83,-0.004,0.97,0.023
37.84,-0.135,0.896,0.144
37.85,-0.234,0.857,0.056
37.86,-0.417,1.054,-0.213
37.87,-0.109,1.079,-0.059
37.88,-0.015,0.829,0.173
37.89,-0.189,1.049,0.071
37.9,-0.344,0.762,-0.187
37.91,-0.151,1.26,-0.094
37.92,-0.125,0.874,0.074
37.93,-0.166,0.852,0.163
37.94,-0.268,0.988,-0.051
37.95,-0.345,0.884,-0.168
37.96,-0.128,1.195,0.06
37.97,-0.037,0.773,0.115
37.98,-0.206,1.003,0.081
37.99,-0.403,0.884,-0.144
38.0,-0.164,1.138,-0.109
38.01,-0.118,0.912,0.075
38.02,-0.096,0.855,0.215
38.03,-0.405,1.063,-0.121
38.04,-0.266,0.797,-0.136
38.05,-0.105,1.327,0.112
38.06,-0.117,0.683,0.093
38.07,-0.255,0.995,0.013
38.08,-0.314,1.015,-0.187
38.09,-0.201,1.028,-0.007
38.1,-0.216,0.937,0.19
38.11,-0.125,0.802,0.163
38.12,-0.457,1.111,-0.166
38.13,-0.271,0.797,-0.095
38.14,-0.03,1.329,0.045
38.15,-0.067,0.608,0.128
38.16,-0.271,0.991,0.061
38.17,-0.405,1.083,-0.227
38.18,-0.148,0.897,-0.031
38.19,-0.163,1.106,0.182
38.2,-0.061,0.661,0.071
38.21,-0.453,1.174,-0.195
38.22,-0.094,0.918,-0.081
38.23,-0.148,1.195,0.07
38.24,-0.144,0.68,0.173
38.25,-0.222,1.004,-0.034
38.26,-0.376,1.069,-0.202
38.27,-0.205,0.894,0.076
38.28,-0.076,1.169,0.109
38.29,-0.086,0.587,0.0
38.3,-0.503,1.289,-0.133
38.31,-0.108,0.927,-0.08
38.32,-0.17,1.035,0.073
38.33,-0.123,0.84,0.209
38.34,-0.302,0.913,-0.114
38.35,-0.285,1.051,-0.195
38.36,-0.076,0.941,0.174
38.37,-0.125,1.151,0.091
38.38,-0.149,0.6,0.038
38.39,-0.484,1.287,-0.14
38.4,-0.119,0.933,-0.089
38.41,-0.232,1.1,0.163
38.42,-0.013,0.773,0.106
38.43,-0.455,0.997,-0.211
38.44,-0.23,1.073,-0.046
38.45,-0.027,0.979,0.085
38.46,-0.193,0.988,0.134
38.47,-0.246,0.697,0.021
38.48,-0.305,1.329,-0.262
38.49,-0.149,0.783,-0.025
38.5,-0.084,1.109,0.147
38.51,-0.056,0.811,0.057
38.52,-0.541,0.934,-0.175
38.53,-0.069,1.254,-0.053
38.54,-0.086,0.827,0.072
38.55,-0.232,0.984,0.207
38.56,-0.197,0.772,-0.094
38.57,-0.364,1.202,-0.227
38.58,-0.166,0.91,0.103
38.59,-0.084,1.058,0.118
38.6,-0.18,0.804,0.013
38.61,-0.441,0.942,-0.109
38.62,-0.113,1.261,-0.078
38.63,-0.107,0.714,0.076
38.64,-0.181,1.039,0.204
38.65,-0.316,0.794,-0.133
38.66,-0.266,1.084,-0.195
38.67,-0.027,1.065,0.07
38.68,-0.117,0.835,0.136
38.69,-0.298,0.965,0.074
38.7,-0.342,0.978,-0.201
38.71,-0.123,1.187,-0.053
38.72,-0.184,0.752,0.182
38.73,-0.15,1.06,0.078
38.74,-0.305,0.812,-0.175
38.75,-0.296,1.096,-0.034
38.76,-0.062,1.102,0.03
38.77,-0.112,0.65,0.146
38.78,-0.268,1.079,0.013
38.79,-0.377,0.919,-0.22
38.8,-0.104,1.137,-0.025
38.81,-0.113,0.796,0.2
38.82,-0.206,0.984,0.067
38.83,-0.362,0.92,-0.157
38.84,-0.21,1.076,-0.049
38.85,-0.064,1.111,0.045
38.86,-0.133,0.612,0.123
38.87,-0.302,1.147,0.009
38.88,-0.346,0.849,-0.217
38.89,-0.197,1.152,0.038
38.9,-0.1,0.894,0.154
38.91,-0.195,0.848,0.011
38.92,-0.441,1.014,-0.146
38.93,-0.062,1.0,-0.129
38.94,-0.194,1.032,0.042
38.95,-0.055,0.702,0.241
38.96,-0.389,1.192,-0.111
38.97,-0.315,0.778,-0.166
38.98,-0.017,1.301,0.084
38.99,-0.169,0.846,0.12
39.0,-0.254,0.833,0.042
39.01,-0.345,1.261,-0.177
39.02,-0.162,0.875,-0.057
39.03,-0.19,1.094,0.123
39.04,0.028,0.7,0.126
39.05,-0.428,1.126,-0.14
39.06,-0.251,0.865,-0.08
39.07,-0.023,1.169,0.033
39.08,-0.128,0.817,0.114
39.09,-0.253,0.814,0.064
39.1,-0.405,1.293,-0.224
39.11,-0.097,0.752,-0.048
39.12,-0.196,1.202,0.17
39.13,-0.065,0.657,0.057
39.14,-0.445,1.087,-0.209
39.15,-0.092,1.009,-0.072
39.16,-0.125,1.021,0.099
39.17,-0.169,0.877,0.172
39.18,-0.236,0.769,-0.024
39.19,-0.379,1.269,-0.201
39.2,-0.063,0.841,0.007
39.21,-0.117,1.211,0.122
39.22,-0.112,0.662,0.053
39.23,-0.414,1.327,-0.135
39.24,-0.116,0.96,-0.1
39.25,-0.17,0.983,0.106
39.26,-0.082,0.884,0.206
39.27,-0.322,0.833,-0.165
39.28,-0.282,1.139,-0.135
39.29,-0.071,0.942,0.098
39.3,-0.183,1.078,0.148
39.31,-0.226,0.656,0.021
39.32,-0.367,1.303,-0.203
39.33,-0.118,0.964,-0.013
39.34,-0.193,0.951,0.141
39.35,-0.069,0.957,0.117
39.36,-0.338,0.801,-0.157
39.37,-0.371,1.199,-0.082
39.38,0.041,0.894,0.062
39.39,-0.156,1.036,0.097
39.4,-0.284,0.733,0.025
39.41,-0.299,1.21,-0.196
39.42,-0.135,0.959,-0.028
39.43,-0.194,0.835,0.204
39.44,-0.095,1.027,0.077
39.45,-0.418,0.775,-0.204
39.46,-0.23,1.291,-0.048
39.47,-0.04,0.861,0.054
39.48,-0.234,0.942,0.133
39.49,-0.204,0.86,-0.037
39.5,-0.315,1.111,-0.198
39.51,-0.183,1.023,0.036
39.52,-0.071,0.815,0.175
39.53,-0.148,1.034,0.034
39.54,-0.425,0.794,-0.198
39.55,-0.1,1.238,-0.045
39.56,-0.084,0.816,0.061
39.57,-0.179,0.921,0.134
39.58,-0.268,0.97,-0.088
39.59,-0.364,0.968,-0.172
39.6,-0.14,1.169,0.128
39.61,-0.037,0.781,0.143
39.62,-0.328,1.01,-0.003
39.63,-0.381,0.861,-0.142
39.64,-0.113,1.245,-0.041
39.65,-0.134,0.77,0.094
39.66,-0.125,0.917,0.137
39.67,-0.361,1.044,-0.177
39.68,-0.319,0.901,-0.119
39.69,-0.015,1.27,0.094
39.7,-0.078,0.606,0.109
39.71,-0.324,1.076,0.002
39.72,-0.201,0.978,-0.235
39.73,-0.169,1.088,-0.035
39.74,-0.152,0.84,0.234
39.75,-0.042,0.818,0.042
39.76,-0.494,1.162,-0.234
39.77,-0.123,0.872,-0.019
39.78,-0.098,1.242,0.08
39.79,-0.253,0.637,0.171
39.8,-0.237,1.1,-0.084
39.81,-0.278,0.926,-0.203
39.82,-0.157,1.065,0.075
39.83,-0.011,0.95,0.093
39.84,-0.182,0.689,0.021
39.85,-0.471,1.275,-0.147
39.86,-0.103,0.87,-0.056
39.87,-0.197,1.142,0.092
39.88,-0.101,0.742,0.178
39.89,-0.366,1.06,-0.158
39.9,-0.264,0.986,-0.142
39.91,-0.104,1.078,0.091
39.92,-0.091,0.943,0.109
39.93,-0.218,0.653,-0.004
39.94,-0.377,1.368,-0.172
39.95,-0.108,0.821,0.016
39.96,-0.16,1.081,0.124
39.97,-0.068,0.776,0.123
39.98,-0.446,1.03,-0.165
39.99,-0.243,1.07,-0.086
40.0,-0.086,0.914,0.123
40.01,-0.147,1.022,0.135
40.02,-0.265,0.699,-0.044
40.03,-0.314,1.288,-0.197
40.04,-0.088,0.865,0.082
40.05,-0.154,1.121,0.125
40.06,-0.129,0.65,0.029
40.07,-0.446,1.208,-0.202
40.08,-0.062,1.022,-0.069
40.09,-0.17,0.904,0.124
40.1,-0.176,0.987,0.181
40.11,-0.325,0.784,-0.131
40.12,-0.356,1.213,-0.151
40.13,0.076,0.902,0.075
40.14,-0.18,1.037,0.117
40.15,-0.314,0.711,0.035
40.16,-0.324,1.195,-0.206
40.17,-0.078,1.035,-0.06
40.18,-0.177,0.779,0.207
40.19,-0.145,1.0,0.077
40.2,-0.43,0.773,-0.173
40.21,-0.189,1.279,-0.036
40.22,-0.123,0.835,0.095
40.23,-0.191,0.93,0.159
40.24,-0.232,0.883,-0.072
40.25,-0.336,0.999,-0.212
40.26,-0.141,1.136,0.03
40.27,-0.068,0.795,0.131
40.28,-0.167,1.001,0.026
40.29,-0.375,0.861,-0.138
40.3,-0.171,1.265,-0.072
40.31,-0.125,0.736,0.092
40.32,-0.162,0.931,0.2
40.33,-0.38,0.958,-0.136
40.34,-0.264,0.889,-0.144
40.35,-0.071,1.266,0.117
40.36,-0.138,0.664,0.133
40.37,-0.304,1.026,0.035
40.38,-0.298,0.974,-0.139
40.39,-0.167,1.123,-0.006
40.4,-0.193,0.808,0.205
40.41,-0.126,0.875,0.092
40.42,-0.429,1.072,-0.177
40.43,-0.221,0.902,-0.066
40.44,-0.02,1.274,0.081
40.45,-0.104,0.625,0.111
40.46,-0.319,1.074,-0.011
40.47,-0.3,0.954,-0.235
40.48,-0.159,1.065,0.034
40.49,-0.102,0.961,0.165
40.5,-0.136,0.765,0.042
40.51,-0.49,1.181,-0.192
40.52,-0.091,0.873,-0.083
40.53,-0.092,1.195,0.083
40.54,-0.182,0.677,0.172
40.55,-0.307,1.063,-0.101
40.56,-0.254,0.947,-0.201
40.57,-0.085,1.096,0.145
40.58,-0.147,0.943,0.152
40.59,-0.229,0.685,0.006
40.6,-0.47,1.316,-0.164
40.61,-0.098,0.848,-0.052
40.62,-0.197,1.126,0.071
40.63,-0.06,0.728,0.133
40.64,-0.375,1.025,-0.213
40.65,-0.277,1.028,-0.044
40.66,-0.04,1.014,0.092
40.67,-0.147,0.937,0.128
40.68,-0.247,0.708,0.016
40.69,-0.35,1.35,-0.224
40.7,-0.133,0.823,-0.001
40.71,-0.164,1.144,0.164
40.72,-0.121,0.729,0.075
40.73,-0.479,1.066,-0.161
40.74,-0.145,1.174,-0.111
40.75,-0.018,0.794,0.054
40.76,-0.218,1.062,0.215
40.77,-0.296,0.728,-0.11
40.78,-0.314,1.166,-0.203
40.79,-0.005,0.999,0.141
40.8,-0.163,1.077,0.153
40.81,-0.295,0.745,-0.004
40.82,-0.321,1.023,-0.123
40.83,-0.17,1.215,-0.047
40.84,-0.195,0.711,0.132
40.85,-0.134,1.122,0.155
40.86,-0.36,0.737,-0.207
40.87,-0.241,1.279,-0.018
40.88,-0.043,0.934,0.074
40.89,-0.195,0.912,0.112
40.9,-0.198,0.858,0.016
40.91,-0.401,1.119,-0.214
40.92,-0.179,1.028,0.012
40.93,-0.017,0.878,0.174
40.94,-0.222,0.993,0.036
40.95,-0.403,0.788,-0.162
40.96,-0.071,1.305,-0.077
40.97,-0.121,0.79,0.109
40.98,-0.283,0.908,0.201
40.99,-0.214,0.971,-0.122
41.0,-0.296,0.983,-0.149
41.01,-0.232,1.145,0.088
41.02,0.03,0.745,0.115
41.03,-0.306,1.04,-0.036
41.04,-0.405,0.86,-0.102
41.05,-0.084,1.257,-0.037
41.06,-0.167,0.741,0.08
41.07,-0.086,0.895,0.179
41.08,-0.389,1.052,-0.164
41.09,-0.299,0.891,-0.109
41.1,-0.012,1.258,0.08
41.11,-0.086,0.629,0.126
41.12,-0.412,1.081,0.019
41.13,-0.263,0.919,-0.231
41.14,-0.112,1.104,0.009
41.15,-0.162,0.878,0.213
41.16,-0.121,0.824,0.088
41.17,-0.414,1.123,-0.226
41.18,-0.099,0.873,-0.04
41.19,-0.192,1.213,0.129
41.2,-0.181,0.66,0.192
41.21,-0.361,1.093,-0.101
41.22,-0.247,0.9,-0.228
41.23,-0.025,1.158,0.116
41.24,-0.165,0.936,0.111
41.25,-0.135,0.695,0.032
41.26,-0.426,1.27,-0.172
41.27,-0.065,0.863,-0.084
41.28,-0.128,1.104,0.046
41.29,-0.101,0.755,0.203
41.3,-0.399,1.048,-0.133
41.31,-0.323,0.958,-0.12
41.32,-0.048,1.074,0.15
41.33,-0.168,0.951,0.13
41.34,-0.283,0.686,-0.034
41.35,-0.304,1.329,-0.194
41.36,-0.057,0.855,-0.0
41.37,-0.265,1.108,0.19
41.38,-0.075,0.759,0.116
41.39,-0.426,1.059,-0.216
41.4,-0.239,1.055,-0.017
41.41,-0.062,0.906,0.102
41.42,-0.149,0.98,0.129
41.43,-0.276,0.768,-0.058
41.44,-0.335,1.271,-0.155
41.45,-0.212,0.835,0.116
41.46,-0.091,1.087,0.153
41.47,-0.189,0.765,0.055
41.48,-0.497,1.041,-0.123
41.49,-0.059,1.175,-0.113
41.5,-0.128,0.763,0.111
41.51,-0.206,1.054,0.189
41.52,-0.321,0.761,-0.159
41.53,-0.303,1.187,-0.162
41.54,-0.015,0.97,0.132
41.55,-0.139,0.903,0.134
41.56,-0.244,0.896,-0.023
41.57,-0.399,1.056,-0.157
41.58,-0.176,1.158,0.015
41.59,-0.21,0.743,0.217
41.6,-0.141,1.057,0.03
41.61,-0.363,0.829,-0.228
41.62,-0.241,1.203,0.006
41.63,-0.075,0.856,0.09
41.64,-0.195,0.807,0.167
41.65,-0.29,1.072,-0.049
41.66,-0.338,0.887,-0.203
41.67,-0.12,1.122,0.107
41.68,-0.062,0.762,0.123
41.69,-0.249,1.032,-0.014
41.7,-0.415,0.876,-0.148
41.71,-0.142,1.209,-0.063
41.72,-0.079,0.777,0.139
41.73,-0.169,0.949,0.099
41.74,-0.36,0.945,-0.202
41.75,-0.163,0.969,-0.098
41.76,-0.087,1.199,0.092
41.77,-0.09,0.616,0.149
41.78,-0.32,1.129,0.006
41.79,-0.287,0.914,-0.225
41.8,-0.136,1.121,0.035
41.81,-0.157,0.861,0.189
41.82,-0.18,0.869,0.029
41.83,-0.403,1.091,-0.24
41.84,-0.077,0.963,-0.033
41.85,-0.199,1.139,0.105
41.86,-0.137,0.609,0.155
41.87,-0.331,1.172,-0.107
41.88,-0.311,0.875,-0.149
41.89,-0.091,1.154,0.118
41.9,-0.105,0.88,0.096
41.91,-0.193,0.776,-0.049
41.92,-0.407,1.248,-0.124
41.93,-0.102,0.91,-0.029
41.94,-0.268,1.084,0.13
41.95,-0.049,0.713,0.095
41.96,-0.385,1.129,-0.223
41.97,-0.269,0.964,-0.066
41.98,-0.058,1.047,0.1
41.99,-0.145,0.88,0.11
42.0,-0.26,0.792,-0.041
42.01,-0.368,1.265,-0.193
42.02,-0.078,0.819,0.011
42.03,-0.135,1.195,0.175
42.04,-0.161,0.685,0.049
42.05,-0.449,1.096,-0.224
42.06,-0.083,1.048,-0.048
42.07,-0.164,0.941,0.155
42.08,-0.211,0.928,0.155
42.09,-0.278,0.784,-0.159
42.1,-0.226,1.252,-0.181
42.11,-0.055,0.921,0.112
42.12,-0.146,1.048,0.122
42.13,-0.216,0.722,-0.036
42.14,-0.367,1.199,-0.182
42.15,-0.143,1.056,-0.052
42.16,-0.23,0.79,0.181
42.17,-0.107,1.039,0.134
42.18,-0.392,0.781,-0.253
42.19,-0.217,1.263,-0.061
42.2,0.022,0.878,0.098
42.21,-0.237,0.904,0.122
42.22,-0.213,0.849,-0.002
42.23,-0.337,1.1,-0.242
42.24,-0.128,1.062,-0.002
42.25,-0.089,0.789,0.192
42.26,-0.205,1.013,0.034
42.27,-0.43,0.836,-0.188
42.28,-0.1,1.255,-0.099
42.29,-0.096,0.787,0.097
42.3,-0.248,0.903,0.23
42.31,-0.277,0.99,-0.153
42.32,-0.254,0.904,-0.173
42.33,-0.089,1.187,0.15
42.34,-0.109,0.669,0.131
42.35,-0.347,1.05,0.03
42.36,-0.298,0.919,-0.191
42.37,-0.188,1.149,-0.028
42.38,-0.167,0.838,0.177
42.39,-0.096,0.859,0.135
42.4,-0.403,1.045,-0.22
42.41,-0.212,0.84,-0.035
42.42,-0.007,1.245,0.027
42.43,-0.124,0.65,0.123
42.44,-0.315,1.102,0.002
42.45,-0.298,0.929,-0.218
42.46,-0.16,1.082,0.016
42.47,-0.08,0.99,0.159
42.48,-0.157,0.708,0.054
42.49,-0.333,1.079,-0.167
42.5,-0.106,0.987,-0.059
42.51,-0.198,1.043,0.11
42.52,-0.076,0.697,0.175
42.53,-0.431,1.144,-0.203
42.54,-0.229,0.771,-0.132
42.55,-0.04,1.282,0.12
42.56,-0.189,0.757,0.134
42.57,-0.169,0.863,0.035
42.58,-0.375,1.214,-0.204
42.59,-0.091,0.83,-0.037
42.6,-0.186,1.179,0.168
42.61,-0.101,0.692,0.061
42.62,-0.436,1.132,-0.216
42.63,-0.243,0.935,-0.019
42.64,-0.075,1.117,0.079
42.65,-0.207,0.827,0.122
42.66,-0.203,0.851,-0.044
42.67,-0.364,1.205,-0.182
42.68,-0.15,0.844,0.096
42.69,-0.157,1.176,0.148
42.7,-0.343,1.059,-0.207
42.71,-0.179,0.992,0.118
42.72,-0.052,0.954,0.162
42.73,-0.244,0.924,-0.033
42.74,-0.373,0.87,-0.102
42.75,-0.165,1.332,-0.107
42.76,-0.169,0.674,0.07
42.77,-0.07,1.043,0.159
42.78,-0.392,0.856,-0.137
42.79,-0.321,1.021,-0.144
42.8,-0.017,1.157,0.076
42.81,-0.141,0.691,0.105
42.82,-0.314,1.048,0.029
42.83,-0.255,0.908,-0.209
42.84,-0.195,1.168,-0.011
42.85,-0.088,0.743,0.193
42.86,-0.185,0.978,0.125
42.87,-0.411,0.896,-0.212
42.88,-0.187,1.01,-0.049
42.89,-0.121,1.125,0.068
42.9,-0.147,0.628,0.15
42.91,-0.245,1.165,-0.025
42.92,-0.337,0.853,-0.207
42.93,-0.164,1.157,0.054
42.94,-0.084,0.86,0.178
42.95,-0.206,0.888,0.067
42.96,-0.353,1.027,-0.208
42.97,-0.114,0.979,-0.07
42.98,-0.142,1.085,0.082
42.99,-0.141,0.698,0.181
43.0,-0.397,1.127,-0.09
43.01,-0.253,0.828,-0.207
43.02,-0.077,1.204,0.078
43.03,-0.104,0.877,0.106
43.04,-0.169,0.818,0.013
43.05,-0.438,1.15,-0.153
43.06,-0.061,0.927,-0.061
43.07,-0.185,1.08,0.056
43.08,-0.11,0.701,0.154
43.09,-0.422,1.16,-0.178
43.1,-0.24,0.883,-0.077
43.11,-0.147,1.162,0.115
43.12,-0.069,0.792,0.073
43.13,-0.272,0.843,0.067
43.14,-0.44,1.241,-0.224
43.15,-0.036,0.795,-0.018
43.16,-0.146,1.236,0.167
43.17,-0.141,0.604,0.072
43.18,-0.494,1.126,-0.16
43.19,-0.089,1.063,-0.112
43.2,-0.205,0.98,0.133
43.21,-0.203,0.842,0.216
43.22,-0.239,0.819,-0.091
43.23,-0.364,1.224,-0.167
43.24,-0.069,0.839,0.097
43.25,-0.154,1.072,0.106
43.26,-0.137,0.614,-0.026
43.27,-0.413,1.346,-0.155
43.28,-0.138,0.879,-0.055
43.29,-0.202,1.007,0.174
43.3,-0.055,0.881,0.128
43.31,-0.415,0.825,-0.185
43.32,-0.257,1.15,-0.062
43.33,-0.036,0.939,0.084
43.34,-0.186,0.969,0.14
43.35,-0.233,0.705,0.039
43.36,-0.373,1.299,-0.243
43.37,-0.08,0.88,-0.031
43.38,-0.143,0.993,0.201
43.39,-0.17,0.919,0.065
43.4,-0.387,0.852,-0.189
43.41,-0.169,1.258,-0.069
43.42,-0.091,0.776,0.101
43.43,-0.164,1.029,0.15
43.44,-0.24,0.762,-0.081
43.45,-0.336,1.136,-0.207
43.46,-0.123,1.033,0.059
43.47,-0.095,0.923,0.119
43.48,-0.148,0.91,0.029
43.49,-0.393,0.91,-0.179
43.5,-0.183,1.285,-0.103
43.51,-0.038,0.673,0.083
43.52,-0.085,1.041,0.122
43.53,-0.358,0.807,-0.131
43.54,-0.305,1.001,-0.142
43.55,0.039,1.165,0.058
43.56,-0.188,0.766,0.115
43.57,-0.216,1.003,0.037
43.58,-0.323,0.969,-0.184
43.59,-0.234,1.19,-0.015
43.6,-0.113,0.706,0.157
43.61,-0.101,1.015,0.111
43.62,-0.384,0.873,-0.206
43.63,-0.219,0.989,-0.063
43.64,-0.083,1.242,0.113
43.65,-0.167,0.619,0.119
43.66,-0.295,1.094,-0.004
43.67,-0.235,0.929,-0.178
43.68,-0.123,1.202,-0.025
43.69,-0.133,0.789,0.162
43.7,-0.125,0.915,0.068
43.71,-0.445,1.016,-0.164
43.72,-0.164,0.95,-0.054
43.73,-0.073,1.15,0.072
43.74,-0.093,0.659,0.141
43.75,-0.279,1.102,-0.082
43.76,-0.335,0.861,-0.16
43.77,-0.124,1.133,0.029
43.78,-0.104,0.881,0.154
43.79,-0.159,0.811,0.026
43.8,-0.386,1.146,-0.184
43.81,-0.068,0.945,-0.103
43.82,-0.138,1.114,0.094
43.83,-0.11,0.692,0.155
43.84,-0.365,1.133,-0.115
43.85,-0.262,0.837,-0.144
43.86,-0.144,1.179,0.144
43.87,-0.145,0.881,0.107
43.88,-0.236,0.76,-0.006
43.89,-0.427,1.274,-0.127
43.9,-0.094,0.879,-0.023
43.91,-0.259,1.121,0.113
43.92,-0.021,0.716,0.132
43.93,-0.419,1.091,-0.196
43.94,-0.273,0.917,-0.106
43.95,-0.001,1.127,0.09
43.96,-0.149,0.931,0.12
43.97,-0.253,0.732,-0.002
43.98,-0.381,1.299,-0.17
43.99,-0.126,0.78,-0.034
44.0,-0.178,1.116,0.188
44.01,-0.101,0.74,0.127
44.02,-0.431,1.078,-0.223
44.03,-0.156,1.036,-0.071
44.04,-0.054,0.961,0.086
44.05,-0.207,0.957,0.158
44.06,-0.292,0.839,-0.108
44.07,-0.28,1.172,-0.205
44.08,-0.056,0.893,0.111
44.09,-0.187,1.154,0.141
44.1,-0.174,0.638,0.021
44.11,-0.456,1.229,-0.183
44.12,-0.076,0.944,-0.051
44.13,-0.147,0.955,0.144
44.14,-0.187,0.944,0.169
44.15,-0.337,0.761,-0.133
44.16,-0.235,1.207,-0.126
44.17,-0.071,0.96,0.14
44.18,-0.211,1.023,0.158
44.19,-0.187,0.68,0.03
44.2,-0.397,1.241,-0.222
44.21,-0.088,0.953,-0.052
44.22,-0.213,0.874,0.202
44.23,-0.177,0.978,0.106
44.24,-0.394,0.776,-0.199
44.25,-0.214,1.269,-0.069
44.26,-0.027,0.883,0.102
44.27,-0.173,0.936,0.12
44.28,-0.192,0.847,-0.018
44.29,-0.379,1.153,-0.202
44.3,-0.104,0.985,-0.036
44.31,-0.046,0.828,0.173
44.32,-0.167,1.03,0.003
44.33,-0.37,0.79,-0.201
44.34,-0.11,1.273,-0.031
44.35,-0.135,0.774,0.118
44.36,-0.201,0.912,0.175
44.37,-0.211,0.939,-0.111
44.38,-0.33,0.994,-0.136
44.39,-0.134,1.143,0.089
44.4,-0.025,0.767,0.113
44.41,-0.305,1.035,-0.023
44.42,-0.365,0.892,-0.148
44.43,-0.128,1.247,-0.031
44.44,-0.215,0.786,0.127
44.45,-0.072,0.907,0.157
44.46,-0.364,1.04,-0.195
44.47,-0.243,0.896,-0.078
44.48,-0.038,1.249,0.097
44.49,-0.174,0.634,0.128
44.5,-0.349,1.067,0.006
44.51,-0.223,0.937,-0.247
44.52,-0.141,1.147,-0.005
44.53,-0.184,0.827,0.215
44.54,-0.036,0.812,0.049
44.55,-0.47,1.136,-0.215
44.56,-0.146,0.894,-0.028
44.57,-0.096,1.217,0.077
44.58,-0.214,0.623,0.147
44.59,-0.27,1.115,-0.094
44.6,-0.292,0.912,-0.15
44.61,-0.185,1.108,0.115
44.62,-0.098,0.918,0.154
44.63,-0.19,0.783,0.013
44.64,-0.492,1.238,-0.177
44.65,-0.124,0.852,-0.02
44.66,-0.125,1.167,0.099
44.67,-0.122,0.671,0.122
44.68,-0.389,1.092,-0.118
44.69,-0.217,0.968,-0.203
44.7,-0.092,1.045,0.103
44.71,-0.113,0.9,0.182
44.72,-0.28,0.74,0.015
44.73,-0.474,1.305,-0.18
44.74,-0.058,0.781,-0.015
44.75,-0.213,1.145,0.161
44.76,-0.082,0.713,0.129
44.77,-0.442,1.071,-0.215
44.78,-0.235,1.058,-0.027
44.79,-0.108,0.929,0.102
44.8,-0.165,0.947,0.13
44.81,-0.236,0.731,-0.028
44.82,-0.359,1.278,-0.183
44.83,-0.1,0.865,0.055
44.84,-0.109,1.121,0.157
44.85,-0.111,0.716,0.007
44.86,-0.436,1.084,-0.156
44.87,-0.162,1.143,-0.07
44.88,-0.195,0.937,0.17
44.89,-0.155,0.939,0.116
44.9,-0.337,0.771,-0.18
44.91,-0.256,1.285,-0.089
44.92,0.002,0.878,0.053
44.93,-0.207,0.967,0.138
44.94,-0.191,0.707,0.024
44.95,-0.332,1.281,-0.217
44.96,-0.094,0.949,-0.021
44.97,-0.172,0.916,0.2
44.98,-0.206,0.964,0.086
44.99,-0.352,0.755,-0.181
45.0,-0.189,1.318,-0.087
45.01,-0.064,0.808,0.068
45.02,-0.198,0.937,0.12
45.03,-0.236,0.818,-0.015
45.04,-0.318,1.07,-0.177
45.05,-0.145,1.119,0.089
45.06,-0.161,0.806,0.166
45.07,-0.193,0.989,0.032
45.08,-0.38,0.879,-0.204
45.09,-0.143,1.268,-0.086
45.1,-0.117,0.75,0.13
45.11,-0.128,0.969,0.143
45.12,-0.357,0.923,-0.147
45.13,-0.263,0.89,-0.17
45.14,-0.026,1.228,0.076
45.15,-0.135,0.726,0.155
45.16,-0.278,1.017,0.034
45.17,-0.369,0.933,-0.193
45.18,-0.18,1.183,-0.054
45.19,-0.21,0.785,0.143
45.2,-0.063,0.896,0.114
45.21,-0.358,1.005,-0.216
45.22,-0.222,0.918,-0.052
45.23,-0.084,1.227,0.067
45.24,-0.114,0.596,0.114
45.25,-0.293,1.11,-0.007
45.26,-0.272,0.937,-0.233
45.27,-0.15,1.09,-0.017
45.28,-0.118,0.914,0.161
45.29,-0.19,0.857,0.117
45.3,-0.481,1.079,-0.141
45.31,-0.048,0.959,-0.037
45.32,-0.16,1.236,0.085
45.33,-0.17,0.588,0.193
45.34,-0.232,1.128,-0.118
45.35,-0.338,0.887,-0.188
45.36,-0.118,1.082,0.045
45.37,-0.067,0.984,0.119
45.38,-0.226,0.719,0.032
45.39,-0.409,1.182,-0.17
45.4,-0.083,0.91,-0.094
45.41,-0.191,1.109,0.099
45.42,-0.002,0.699,0.193
45.43,-0.406,1.141,-0.196
45.44,-0.317,0.862,-0.177
45.45,0.031,1.116,0.096
45.46,-0.154,1.021,0.111
45.47,-0.253,0.678,0.034
45.48,-0.336,1.341,-0.174
45.49,-0.197,0.813,-0.021
45.5,-0.264,1.077,0.242
45.51,-0.012,0.737,0.086
45.52,-0.55,1.034,-0.172
45.53,-0.218,1.043,-0.111
45.54,0.087,1.004,0.043
45.55,-0.234,0.945,0.12
45.56,-0.14,0.74,0.001
45.57,-0.428,1.369,-0.202
45.58,-0.141,0.82,0.083
45.59,-0.054,1.216,0.133
45.6,-0.24,0.612,0.042
45.61,-0.47,1.163,-0.155
45.62,-0.132,1.032,-0.075
45.63,-0.18,0.891,0.088
45.64,-0.151,0.958,0.192
45.65,-0.296,0.815,-0.136
45.66,-0.294,1.191,-0.136
45.67,-0.025,0.912,0.122
45.68,-0.166,1.045,0.116
45.69,-0.243,0.687,0.031
45.7,-0.395,1.341,-0.24
45.71,-0.113,0.795,-0.081
45.72,-0.171,1.045,0.214
45.73,-0.075,0.865,0.069
45.74,-0.469,0.88,-0.184
45.75,-0.061,1.24,-0.103
45.76,-0.121,0.895,0.123
45.77,-0.243,0.981,0.143
45.78,-0.144,0.754,-0.019
45.79,-0.436,1.24,-0.249
45.8,-0.078,0.93,0.024
45.81,-0.129,1.035,0.135
45.82,-0.185,0.86,0.055
45.83,-0.339,0.901,-0.149
45.84,-0.247,1.287,-0.032
45.85,-0.094,0.721,0.106
45.86,-0.139,1.094,0.151
45.87,-0.274,0.773,-0.112
45.88,-0.413,1.071,-0.164
45.89,-0.009,1.05,0.072
45.9,-0.223,0.892,0.166
45.91,-0.226,0.91,0.055
45.92,-0.313,0.902,-0.121
45.93,-0.254,1.289,-0.06
45.94,-0.012,0.638,0.07
45.95,-0.141,1.082,0.15
45.96,-0.374,0.864,-0.146
45.97,-0.275,1.009,-0.181
45.98,-0.007,1.156,0.084
45.99,-0.2,0.711,0.145
46.0,-0.207,1.048,0.022
46.01,-0.293,0.939,-0.167
46.02,-0.236,1.193,-0.02
46.03,-0.095,0.73,0.096
46.04,-0.102,1.004,0.084
46.05,-0.384,0.93,-0.197
46.06,-0.209,0.985,-0.088
46.07,-0.084,1.168,0.072
46.08,-0.113,0.614,0.155
46.09,-0.208,1.114,0.003
46.1,-0.384,0.9,-0.143
46.11,-0.131,1.134,-0.031
46.12,-0.073,0.882,0.158
46.13,-0.181,0.908,0.085
46.14,-0.428,1.043,-0.218
46.15,-0.013,0.958,-0.016
46.16,-0.235,1.204,0.088
46.17,-0.15,0.59,0.163
46.18,-0.196,1.16,-0.057
46.19,-0.348,0.852,-0.218
46.2,-0.121,1.092,0.056
46.21,-0.083,0.964,0.126
46.22,-0.171,0.758,0.021
46.23,-0.394,1.16,-0.199
46.24,-0.027,0.895,-0.094
46.25,-0.185,1.088,0.094
46.26,-0.09,0.678,0.207
46.27,-0.403,1.142,-0.136
46.28,-0.294,0.805,-0.171
46.29,-0.07,1.157,0.148
46.3,-0.145,0.948,0.126
46.31,-0.262,0.736,0.024
46.32,-0.354,1.261,-0.145
46.33,-0.202,0.89,0.001
46.34,-0.169,1.136,0.093
46.35,-0.034,0.721,0.167
46.36,-0.418,1.11,-0.171
46.37,-0.253,0.885,-0.116
46.38,-0.081,1.105,0.073
46.39,-0.162,0.922,0.127
46.4,-0.252,0.707,-0.026
46.41,-0.328,1.353,-0.204
46.42,-0.09,0.816,-0.01
46.43,-0.268,1.145,0.147
46.44,-0.037,0.726,0.126
46.45,-0.486,1.041,-0.214
46.46,-0.23,1.018,-0.093
46.47,-0.004,0.993,0.055
46.48,-0.214,0.972,0.145
46.49,-0.212,0.684,-0.028
46.5,-0.314,1.315,-0.213
46.51,-0.114,0.832,0.036
46.52,-0.062,1.157,0.113
46.53,-0.095,0.614,0.036
46.54,-0.544,1.189,-0.155
46.55,-0.022,0.981,-0.076
46.56,-0.126,0.992,0.085
46.57,-0.194,0.974,0.199
46.58,-0.291,0.778,-0.155
46.59,-0.31,1.198,-0.169
46.6,-0.018,0.907,0.076
46.61,-0.088,1.078,0.117
46.62,-0.224,0.645,0.016
46.63,-0.408,1.211,-0.143
46.64,-0.098,1.058,-0.052
46.65,-0.207,0.833,0.175
46.66,-0.124,1.048,0.148
46.67,-0.375,0.781,-0.166
46.68,-0.314,1.236,-0.13
46.69,0.032,0.898,0.065
46.7,-0.134,0.986,0.125
46.71,-0.267,0.752,0.013
46.72,-0.283,1.142,-0.182
46.73,-0.125,1.064,-0.04
46.74,-0.225,0.761,0.149
46.75,-0.073,1.051,0.07
46.76,-0.398,0.761,-0.204
46.77,-0.25,1.207,-0.05
46.78,-0.042,0.935,0.128
46.79,-0.234,0.849,0.112
46.8,-0.182,0.873,-0.03
46.81,-0.239,1.086,-0.231
46.82,-0.17,1.143,0.034
46.83,-0.089,0.757,0.191
46.84,-0.213,1.043,0.051
46.85,-0.407,0.852,-0.176
46.86,-0.143,1.253,-0.044
46.87,-0.163,0.816,0.123
46.88,-0.225,0.871,0.205
46.89,-0.271,1.031,-0.105
46.9,-0.287,0.885,-0.17
46.91,-0.178,1.197,0.053
46.92,0.041,0.741,0.099
46.93,-0.222,1.041,0.027
46.94,-0.428,0.883,-0.142
46.95,-0.106,1.212,-0.076
46.96,-0.183,0.796,0.09
46.97,-0.142,0.851,0.207
46.98,-0.388,1.076,-0.151
46.99,-0.271,0.808,-0.162
47.0,-0.087,1.261,0.142
47.01,-0.12,0.674,0.129
47.02,-0.261,1.007,-0.018
47.03,-0.307,1.025,-0.171
47.04,-0.129,1.062,-0.016
47.05,-0.215,0.876,0.152
47.06,-0.093,0.79,0.121
47.07,-0.421,1.133,-0.228
47.08,-0.282,0.819,-0.014
47.09,-0.071,1.243,0.053
47.1,-0.074,0.661,0.083
47.11,-0.298,1.0,-0.023
47.12,-0.286,1.05,-0.196
47.13,-0.092,0.995,0.009
47.14,-0.256,0.968,0.198
47.15,-0.079,0.709,0.083
47.16,-0.466,1.242,-0.216
47.17,-0.148,0.861,-0.029
47.18,-0.141,1.222,0.071
47.19,-0.14,0.719,0.15
47.2,-0.29,0.967,-0.041
47.21,-0.342,1.015,-0.172
47.22,-0.086,0.963,0.052
47.23,-0.068,1.099,0.107
47.24,-0.185,0.617,0.014
47.25,-0.506,1.274,-0.137
47.26,-0.058,0.875,-0.09
47.27,-0.208,1.07,0.122
47.28,-0.125,0.823,0.171
47.29,-0.335,0.957,-0.132
47.3,-0.225,1.064,-0.188
47.31,-0.046,0.932,0.104
47.32,-0.178,0.911,0.132
47.33,-0.179,0.733,0.002
47.34,-0.518,1.286,-0.189
47.35,-0.051,0.77,-0.027
47.36,-0.107,1.253,0.155
47.37,-0.157,0.71,0.071
47.38,-0.447,0.998,-0.116
47.39,-0.186,1.124,-0.042
47.4,-0.111,0.947,0.095
47.41,-0.06,0.917,0.113
47.42,-0.231,0.734,-0.036
47.43,-0.393,1.259,-0.207
47.44,-0.054,0.861,0.036
47.45,-0.205,1.126,0.169
47.46,-0.187,0.733,0.053
47.47,-0.361,1.032,-0.179
47.48,-0.1,1.201,-0.098
47.49,-0.078,0.737,0.063
47.5,-0.138,1.045,0.22
47.51,-0.291,0.805,-0.106
47.52,-0.422,1.185,-0.165
47.53,0.006,0.888,0.074
47.54,-0.137,1.043,0.157
47.55,-0.3,0.793,0.038
47.56,-0.308,1.06,-0.136
47.57,-0.18,1.209,-0.098
47.58,-0.157,0.684,0.131
47.59,-0.049,1.104,0.087
47.6,-0.355,0.772,-0.171
47.61,-0.293,1.161,-0.116
47.62,0.038,1.019,0.07
47.63,-0.165,0.806,0.1
47.64,-0.21,0.891,0.049
47.65,-0.312,1.036,-0.201
47.66,-0.154,1.144,-0.036
47.67,-0.163,0.695,0.181
47.68,-0.136,1.076,0.11
47.69,-0.392,0.804,-0.18
47.7,-0.219,1.139,-0.062
47.71,-0.092,1.009,0.088
47.72,-0.154,0.757,0.147
47.73,-0.249,1.047,0.011
47.74,-0.317,0.924,-0.216
47.75,-0.15,1.216,0.01
47.76,-0.139,0.8,0.137
47.77,-0.169,0.996,0.046
47.78,-0.314,0.912,-0.2
47.79,-0.196,1.116,-0.03
47.8,-0.074,0.974,0.064
47.81,-0.145,0.704,0.153
47.82,-0.328,1.118,-0.061
47.83,-0.313,0.825,-0.162
47.84,-0.179,1.234,0.08
47.85,-0.027,0.774,0.13
47.86,-0.268,0.937,-0.011
47.87,-0.346,0.986,-0.191
47.88,-0.12,1.042,-0.016
47.89,-0.132,0.985,0.048
47.9,-0.077,0.69,0.182
47.91,-0.377,1.199,-0.148
47.92,-0.281,0.788,-0.14
47.93,-0.138,1.253,0.142
47.94,-0.095,0.748,0.101
47.95,-0.275,0.894,0.008
47.96,-0.362,1.106,-0.193
47.97,-0.08,0.931,-0.054
47.98,-0.231,1.029,0.16
47.99,-0.066,0.691,0.142
48.0,-0.419,1.18,-0.194
48.01,-0.262,0.81,-0.101
48.02,0.024,1.213,0.079
48.03,-0.089,0.81,0.079
48.04,-0.35,0.88,0.0
48.05,-0.364,1.162,-0.198
48.06,-0.043,0.835,-0.004
48.07,-0.177,1.164,0.173
48.08,-0.112,0.65,0.073
48.09,-0.426,1.209,-0.175
48.1,-0.168,0.934,-0.039
48.11,-0.122,1.006,0.07
48.12,-0.107,0.84,0.139
48.13,-0.315,0.875,-0.041
48.14,-0.298,1.037,-0.139
48.15,-0.174,1.009,0.14
48.16,-0.104,1.074,0.117
48.17,-0.217,0.635,-0.035
48.18,-0.388,1.339,-0.147
48.19,-0.099,0.914,0.0
48.2,-0.31,1.027,0.184
48.21,0.032,0.84,0.117
48.22,-0.421,0.97,-0.211
48.23,-0.305,1.038,-0.062
48.24,0.033,0.961,0.074
48.25,-0.192,1.058,0.103
48.26,-0.234,0.69,0.007
48.27,-0.344,1.304,-0.193
48.28,-0.132,0.886,-0.027
48.29,-0.168,1.009,0.181
48.3,0.001,0.838,0.056
48.31,-0.526,1.145,-0.168
48.32,-0.067,1.075,-0.101
