t,ax,ay,az
0.0,-0.373,0.899,-0.159
0.01,-0.164,1.09,0.026
0.02,-0.014,0.888,0.107
0.03,-0.156,0.827,0.023
0.04,-0.466,1.119,-0.16
0.05,-0.065,0.896,-0.101
0.06,-0.151,1.12,0.06
0.07,-0.128,0.689,0.194
0.08,-0.33,1.163,-0.156
0.09,-0.287,0.81,-0.165
0.1,-0.14,1.163,0.131
0.11,-0.06,0.897,0.119
0.12,-0.292,0.762,0.017
0.13,-0.428,1.254,-0.163
0.14,0.008,0.864,-0.055
0.15,-0.205,1.14,0.13
0.16,-0.081,0.723,0.181
0.17,-0.403,1.096,-0.177
0.18,-0.205,0.894,-0.128
0.19,-0.045,1.172,0.128
0.2,-0.167,0.883,0.086
0.21,-0.235,0.747,0.021
0.22,-0.378,1.344,-0.22
0.23,-0.073,0.779,0.007
0.24,-0.198,1.168,0.158
0.25,-0.087,0.742,0.066
0.26,-0.459,1.059,-0.189
0.27,-0.159,0.972,-0.075
0.28,0.018,1.018,0.099
0.29,-0.185,0.946,0.112
0.3,-0.299,0.745,-0.001
0.31,-0.404,1.265,-0.165
0.32,-0.109,0.817,0.07
0.33,-0.11,1.174,0.154
0.34,-0.137,0.701,-0.023
0.35,-0.448,1.064,-0.16
0.36,-0.055,1.129,-0.09
0.37,-0.097,0.781,0.113
0.38,-0.193,1.019,0.145
0.39,-0.26,0.781,-0.158
0.4,-0.332,1.215,-0.131
0.41,-0.116,0.888,0.116
0.42,-0.09,1.021,0.119
0.43,-0.259,0.784,0.01
0.44,-0.436,1.074,-0.173
0.45,-0.055,1.162,-0.049
0.46,-0.217,0.738,0.161
0.47,-0.112,1.052,0.125
0.48,-0.278,0.78,-0.212
0.49,-0.248,1.164,-0.103
0.5,-0.01,0.955,0.113
0.51,-0.108,0.893,0.101
0.52,-0.349,0.927,-0.005
0.53,-0.307,0.991,-0.22
0.54,-0.071,1.187,-0.034
0.55,-0.12,0.773,0.165
0.56,-0.151,1.028,0.069
0.57,-0.391,0.828,-0.188
0.58,-0.067,1.18,-0.068
0.59,-0.096,0.888,0.078
0.6,-0.231,0.805,0.226
0.61,-0.353,1.06,-0.104
0.62,-0.268,0.87,-0.196
0.63,-0.063,1.28,0.113
0.64,-0.063,0.704,0.125
0.65,-0.285,1.013,0.013
0.66,-0.279,0.978,-0.184
0.67,-0.133,1.1,-0.058
0.68,-0.181,0.887,0.142
0.69,-0.062,0.819,0.133
0.7,-0.484,1.118,-0.195
0.71,-0.247,0.863,-0.004
0.72,-0.123,1.333,0.097
0.73,-0.186,0.574,0.167
0.74,-0.31,1.073,0.039
0.75,-0.284,1.038,-0.254
0.76,-0.118,0.957,-0.041
0.77,0.0,0.925,0.111
0.78,-0.149,0.824,0.022
0.79,-0.476,1.093,-0.096
0.8,-0.062,0.966,-0.116
0.81,-0.14,1.09,0.054
0.82,-0.123,0.7,0.255
0.83,-0.366,1.136,-0.115
0.84,-0.288,0.813,-0.181
0.85,-0.11,1.196,0.133
0.86,-0.054,0.883,0.104
0.87,-0.207,0.752,0.01
0.88,-0.398,1.25,-0.153
0.89,-0.122,0.893,-0.075
0.9,-0.279,1.136,0.14
0.91,-0.034,0.698,0.202
0.92,-0.437,1.115,-0.197
0.93,-0.246,0.896,-0.089
0.94,-0.003,1.199,0.073
0.95,-0.125,0.867,0.09
0.96,-0.235,0.744,0.027
0.97,-0.36,1.329,-0.187
0.98,-0.202,0.789,-0.026
0.99,-0.127,1.179,0.156
1.0,-0.025,0.711,0.076
1.01,-0.495,1.106,-0.166
1.02,-0.135,1.028,-0.051
1.03,-0.099,0.958,0.066
1.04,-0.192,0.926,0.151
1.05,-0.271,0.744,-0.058
1.06,-0.294,1.243,-0.231
1.07,-0.213,0.909,0.124
1.08,-0.12,1.15,0.132
1.09,-0.112,0.679,0.032
1.1,-0.448,1.12,-0.085
1.11,-0.107,1.114,-0.124
1.12,-0.107,0.805,0.053
1.13,-0.189,1.012,0.208
1.14,-0.316,0.772,-0.161
1.15,-0.271,1.184,-0.167
1.16,-0.072,0.979,0.135
1.17,-0.126,1.03,0.117
1.18,-0.23,0.751,-0.017
1.19,-0.391,1.106,-0.079
1.2,-0.178,1.154,-0.032
1.21,-0.131,0.726,0.119
1.22,-0.119,1.083,0.154
1.23,-0.33,0.775,-0.22
1.24,-0.26,1.132,-0.124
1.25,-0.024,1.011,0.117
1.26,-0.121,0.907,0.121
1.27,-0.267,0.89,-0.002
1.28,-0.376,1.024,-0.134
1.29,-0.099,1.123,-0.028
1.3,-0.163,0.734,0.182
1.31,-0.109,1.103,0.107
1.32,-0.299,0.789,-0.265
1.33,-0.249,1.169,-0.036
1.34,-0.103,1.006,0.114
1.35,-0.162,0.791,0.114
1.36,-0.252,0.985,-0.011
1.37,-0.325,0.968,-0.185
1.38,-0.095,1.177,0.033
1.39,-0.154,0.755,0.147
1.4,-0.095,1.058,0.058
1.41,-0.38,0.879,-0.207
1.42,-0.166,1.063,-0.082
1.43,0.005,0.993,0.043
1.44,-0.152,0.756,0.129
1.45,-0.306,1.076,-0.035
1.46,-0.235,0.917,-0.153
1.47,-0.214,1.202,0.027
1.48,-0.027,0.733,0.132
1.49,-0.168,1.01,-0.003
1.5,-0.448,0.938,-0.186
1.51,-0.089,1.09,-0.055
1.52,-0.149,0.978,0.113
1.53,-0.204,0.706,0.175
1.54,-0.351,1.169,-0.143
1.55,-0.22,0.82,-0.089
1.56,-0.099,1.291,0.119
1.57,-0.095,0.678,0.117
1.58,-0.244,0.966,-0.011
1.59,-0.295,0.912,-0.185
1.6,-0.098,1.17,0.061
1.61,-0.235,0.862,0.126
1.62,-0.064,0.819,0.09
1.63,-0.408,1.182,-0.202
1.64,-0.233,0.828,0.01
1.65,-0.088,1.208,0.109
1.66,-0.134,0.663,0.143
1.67,-0.357,1.095,-0.07
1.68,-0.249,0.917,-0.175
1.69,-0.175,1.103,0.108
1.7,-0.109,0.975,0.12
1.71,-0.128,0.719,0.02
1.72,-0.527,1.259,-0.166
1.73,-0.074,0.812,-0.066
1.74,-0.153,1.144,0.091
1.75,-0.142,0.722,0.173
1.76,-0.358,1.053,-0.169
1.77,-0.265,0.953,-0.13
1.78,-0.004,1.11,0.081
1.79,-0.108,0.963,0.082
1.8,-0.218,0.658,0.055
1.81,-0.432,1.342,-0.199
1.82,-0.096,0.759,-0.051
1.83,-0.146,1.184,0.154
1.84,-0.092,0.736,0.118
1.85,-0.443,1.0,-0.209
1.86,-0.126,1.118,-0.08
1.87,-0.009,0.918,0.052
1.88,-0.228,0.976,0.18
1.89,-0.199,0.757,-0.033
1.9,-0.389,1.282,-0.211
1.91,-0.133,0.843,0.08
1.92,-0.11,1.143,0.157
1.93,-0.147,0.766,0.04
1.94,-0.42,1.025,-0.161
1.95,-0.136,1.188,-0.096
1.96,-0.049,0.768,0.105
1.97,-0.226,1.053,0.193
1.98,-0.268,0.771,-0.148
1.99,-0.324,1.129,-0.173
2.0,-0.316,1.129,0.033
2.01,-0.305,0.945,-0.221
2.02,-0.136,1.037,0.021
2.03,-0.166,0.941,0.168
2.04,-0.072,0.832,0.047
2.05,-0.417,1.114,-0.198
2.06,-0.102,0.93,-0.057
2.07,-0.148,1.185,0.098
2.08,-0.134,0.623,0.152
2.09,-0.401,1.126,-0.055
2.1,-0.214,0.915,-0.213
2.11,-0.143,1.079,0.092
2.12,-0.115,0.934,0.146
2.13,-0.175,0.744,0.028
2.14,-0.493,1.222,-0.182
2.15,-0.037,0.861,-0.072
2.16,-0.147,1.152,0.112
2.17,-0.198,0.728,0.184
2.18,-0.39,1.062,-0.16
2.19,-0.223,0.95,-0.149
2.2,-0.032,1.088,0.096
2.21,-0.129,0.925,0.105
2.22,-0.222,0.702,0.002
2.23,-0.409,1.329,-0.205
2.24,-0.08,0.758,-0.034
2.25,-0.199,1.182,0.169
2.26,-0.051,0.732,0.067
2.27,-0.47,1.016,-0.18
2.28,-0.144,1.089,-0.058
2.29,-0.04,0.961,0.065
2.3,-0.106,0.892,0.141
2.31,-0.301,0.733,-0.016
2.32,-0.347,1.319,-0.216
2.33,-0.032,0.817,0.039
2.34,-0.193,1.175,0.15
2.35,-0.069,0.654,0.034
2.36,-0.515,1.259,-0.128
2.37,-0.148,0.986,-0.028
2.38,-0.14,0.93,0.133
2.39,-0.158,0.972,0.176
2.4,-0.375,0.777,-0.151
2.41,-0.276,1.175,-0.121
2.42,0.021,0.935,0.077
2.43,-0.114,1.018,0.114
2.44,-0.234,0.711,0.016
2.45,-0.404,1.213,-0.225
2.46,-0.038,0.95,-0.048
2.47,-0.187,0.924,0.235
2.48,-0.126,0.981,0.07
2.49,-0.346,0.749,-0.195
2.5,-0.226,1.33,-0.033
2.51,-0.09,0.836,0.106
2.52,-0.156,0.958,0.177
2.53,-0.26,0.856,-0.043
2.54,-0.342,1.053,-0.207
2.55,-0.107,1.094,0.084
2.56,-0.165,0.833,0.143
2.57,-0.196,0.975,0.015
2.58,-0.359,0.875,-0.141
2.59,-0.176,1.221,-0.129
2.6,-0.041,0.732,0.078
2.61,-0.127,0.985,0.201
2.62,-0.424,0.933,-0.142
2.63,-0.205,0.875,-0.151
2.64,-0.058,1.311,0.076
2.65,-0.126,0.724,0.1
2.66,-0.191,1.059,0.037
2.67,-0.39,0.938,-0.18
2.68,-0.196,1.091,-0.01
2.69,-0.106,0.847,0.145
2.7,-0.173,0.932,0.118
2.71,-0.314,0.973,-0.168
2.72,-0.205,0.967,-0.052
2.73,-0.173,1.213,0.073
2.74,-0.047,0.58,0.158
2.75,-0.263,1.116,-0.02
2.76,-0.372,0.923,-0.22
2.77,-0.028,1.077,-0.004
2.78,-0.099,0.93,0.121
2.79,-0.154,0.777,0.112
2.8,-0.344,1.132,-0.179
2.81,-0.204,0.918,-0.054
2.82,-0.125,1.155,0.064
2.83,-0.057,0.615,0.16
2.84,-0.396,1.133,-0.06
2.85,-0.311,0.896,-0.186
2.86,-0.076,1.084,0.052
2.87,-0.145,0.973,0.111
2.88,-0.107,0.729,0.056
2.89,-0.411,1.24,-0.212
2.9,-0.134,0.85,-0.035
2.91,-0.195,1.169,0.097
2.92,-0.095,0.724,0.218
2.93,-0.479,1.05,-0.131
2.94,-0.156,0.862,-0.197
2.95,-0.009,1.153,0.066
2.96,-0.174,0.947,0.088
2.97,-0.212,0.688,0.093
2.98,-0.349,1.34,-0.232
2.99,-0.151,0.8,-0.018
3.0,-0.163,1.143,0.213
3.01,-0.098,0.736,0.105
3.02,-0.478,1.002,-0.156
3.03,-0.219,1.041,-0.03
3.04,-0.066,1.014,0.044
3.05,-0.207,0.928,0.171
3.06,-0.167,0.707,0.019
3.07,-0.488,1.361,-0.214
3.08,-0.09,0.764,-0.014
3.09,-0.079,1.163,0.136
3.1,-0.169,0.766,0.092
3.11,-0.392,1.001,-0.157
3.12,-0.201,1.161,-0.057
3.13,-0.059,0.858,0.054
3.14,-0.104,0.974,0.163
3.15,-0.309,0.835,-0.091
3.16,-0.408,1.149,-0.16
3.17,-0.1,0.831,0.097
3.18,-0.131,1.198,0.131
3.19,-0.167,0.646,-0.012
3.2,-0.411,1.141,-0.14
3.21,-0.17,1.081,-0.067
3.22,-0.133,0.847,0.043
3.23,-0.085,1.012,0.175
3.24,-0.351,0.771,-0.15
3.25,-0.303,1.16,-0.155
3.26,0.017,0.994,0.044
3.27,-0.176,1.016,0.127
3.28,-0.199,0.756,0.036
3.29,-0.366,1.163,-0.201
3.3,-0.15,0.99,-0.081
3.31,-0.127,0.825,0.201
3.32,-0.121,1.069,0.101
3.33,-0.377,0.714,-0.17
3.34,-0.298,1.215,-0.075
3.35,-0.014,0.966,0.096
3.36,-0.221,0.899,0.167
3.37,-0.254,0.85,0.041
3.38,-0.37,1.082,-0.202
3.39,-0.032,1.051,-0.041
3.4,-0.084,0.82,0.174
3.41,-0.199,1.042,0.095
3.42,-0.332,0.757,-0.19
3.43,-0.236,1.259,-0.086
3.44,-0.07,0.924,0.08
3.45,-0.076,0.87,0.154
3.46,-0.311,0.942,-0.026
3.47,-0.276,0.981,-0.209
3.48,-0.12,1.15,0.029
3.49,-0.188,0.762,0.208
3.5,-0.155,1.049,0.08
3.51,-0.362,0.827,-0.193
3.52,-0.203,1.171,-0.017
3.53,-0.087,0.91,0.08
3.54,-0.147,0.804,0.148
3.55,-0.349,1.02,-0.059
3.56,-0.251,0.913,-0.142
3.57,-0.191,1.249,0.034
3.58,-0.079,0.704,0.166
3.59,-0.206,1.037,0.003
3.6,-0.339,0.918,-0.212
3.61,-0.153,1.132,-0.066
3.62,-0.112,0.875,0.099
3.63,-0.127,0.782,0.177
3.64,-0.388,1.144,-0.121
3.65,-0.232,0.787,-0.138
3.66,-0.196,1.288,0.105
3.67,-0.086,0.72,0.133
3.68,-0.237,0.984,0.019
3.69,-0.344,0.995,-0.177
3.7,-0.152,1.042,-0.007
3.71,-0.113,0.974,0.105
3.72,-0.066,0.746,0.129
3.73,-0.409,1.161,-0.143
3.74,-0.285,0.822,-0.092
3.75,-0.082,1.316,0.072
3.76,-0.141,0.683,0.145
3.77,-0.37,0.95,0.035
3.78,-0.354,1.051,-0.192
3.79,-0.098,0.915,-0.032
3.8,-0.165,1.015,0.112
3.81,-0.114,0.76,0.155
3.82,-0.448,1.19,-0.195
3.83,-0.221,0.793,-0.043
3.84,-0.021,1.266,0.1
3.85,-0.096,0.74,0.141
3.86,-0.398,0.925,-0.007
3.87,-0.268,1.14,-0.201
3.88,-0.094,0.899,0.005
3.89,-0.221,1.101,0.206
3.9,-0.077,0.692,0.04
3.91,-0.517,1.202,-0.25
3.92,-0.119,0.868,0.001
3.93,-0.098,1.208,0.121
3.94,-0.213,0.749,0.141
3.95,-0.318,1.104,-0.144
3.96,-0.225,0.978,-0.206
3.97,-0.11,1.044,0.12
3.98,-0.162,0.986,0.101
3.99,-0.24,0.672,-0.003
4.0,-0.4,1.344,-0.156
4.01,-0.122,0.843,0.004
4.02,-0.262,1.098,0.148
4.03,-0.03,0.749,0.124
4.04,-0.429,1.016,-0.162
4.05,-0.242,1.068,-0.08
4.06,-0.027,1.044,0.065
4.07,-0.207,0.94,0.168
4.08,-0.193,0.68,0.006
4.09,-0.449,1.361,-0.183
4.1,-0.08,0.791,0.007
4.11,-0.168,1.14,0.177
4.12,-0.111,0.767,0.09
4.13,-0.485,0.957,-0.158
4.14,-0.08,1.124,-0.11
4.15,-0.113,0.905,0.102
4.16,-0.202,0.97,0.164
4.17,-0.251,0.714,-0.03
4.18,-0.388,1.263,-0.229
4.19,-0.06,0.857,0.031
4.2,-0.167,1.068,0.177
4.21,-0.135,0.834,0.017
4.22,-0.435,0.918,-0.149
4.23,-0.14,1.22,-0.02
4.24,-0.076,0.799,0.09
4.25,-0.217,0.994,0.145
4.26,-0.18,0.769,-0.087
4.27,-0.434,1.256,-0.137
4.28,-0.159,0.88,0.066
4.29,0.016,1.013,0.09
4.3,-0.236,0.894,-0.073
4.31,-0.508,0.862,-0.101
4.32,-0.012,1.26,-0.078
4.33,-0.157,0.719,0.089
4.34,-0.171,1.037,0.179
4.35,-0.246,0.859,-0.167
4.36,-0.354,1.104,-0.129
4.37,-0.104,1.026,0.153
4.38,-0.081,0.824,0.112
4.39,-0.299,0.956,0.029
4.4,-0.413,0.953,-0.139
4.41,-0.146,1.2,-0.042
4.42,-0.167,0.714,0.109
4.43,-0.116,1.067,0.142
4.44,-0.305,0.869,-0.222
4.45,-0.276,1.046,-0.09
4.46,-0.077,1.082,0.096
4.47,-0.123,0.725,0.13
4.48,-0.326,1.066,-0.011
4.49,-0.236,0.934,-0.224
4.5,-0.185,1.161,0.019
4.51,-0.196,0.755,0.206
4.52,-0.007,0.984,0.061
4.53,-0.401,0.932,-0.265
4.54,-0.134,0.994,-0.015
4.55,-0.104,1.123,0.056
4.56,-0.234,0.642,0.156
4.57,-0.233,1.123,-0.026
4.58,-0.302,0.875,-0.183
4.59,-0.152,1.172,0.043
4.6,-0.067,0.815,0.156
4.61,-0.21,0.89,0.068
4.62,-0.39,1.036,-0.195
4.63,-0.052,0.989,-0.105
4.64,-0.186,1.115,0.098
4.65,-0.125,0.666,0.153
4.66,-0.356,1.165,-0.133
4.67,-0.295,0.841,-0.127
4.68,-0.083,1.204,0.121
4.69,-0.072,0.784,0.094
4.7,-0.272,0.872,0.042
4.71,-0.427,1.16,-0.166
4.72,-0.052,0.846,-0.074
4.73,-0.191,1.097,0.101
4.74,-0.033,0.717,0.154
4.75,-0.398,1.172,-0.192
4.76,-0.259,0.815,-0.121
4.77,-0.027,1.195,0.113
4.78,-0.086,0.697,0.103
4.79,-0.357,0.99,-0.029
4.8,-0.261,1.088,-0.211
4.81,-0.13,0.923,0.044
4.82,-0.206,1.077,0.156
4.83,0.0,0.732,0.044
4.84,-0.476,1.213,-0.24
4.85,-0.181,0.827,-0.009
4.86,-0.109,1.226,0.055
4.87,-0.106,0.683,0.144
4.88,-0.387,0.969,-0.022
4.89,-0.284,1.127,-0.232
4.9,-0.059,0.878,0.03
4.91,-0.161,1.139,0.167
4.92,-0.063,0.611,0.024
4.93,-0.499,1.262,-0.217
4.94,-0.041,0.873,-0.025
4.95,-0.205,1.113,0.095
4.96,-0.176,0.819,0.141
4.97,-0.327,0.903,-0.132
4.98,-0.274,1.144,-0.146
4.99,-0.097,0.925,0.089
5.0,-0.175,1.086,0.147
5.01,-0.173,0.645,0.007
5.02,-0.466,1.279,-0.186
5.03,-0.052,0.916,-0.026
5.04,-0.169,0.965,0.116
5.05,-0.128,0.882,0.126
5.06,-0.383,0.899,-0.184
5.07,-0.224,1.185,-0.091
5.08,-0.101,0.898,0.101
5.09,-0.144,1.049,0.16
5.1,-0.245,0.685,-0.023
5.11,-0.383,1.25,-0.172
5.12,-0.036,0.97,-0.032
5.13,-0.202,0.948,0.165
5.14,-0.068,0.937,0.08
5.15,-0.38,0.883,-0.192
5.16,-0.221,1.209,-0.061
5.17,-0.06,0.839,0.108
5.18,-0.1,1.008,0.086
5.19,-0.28,0.793,-0.036
5.2,-0.282,1.167,-0.149
5.21,-0.103,0.997,0.007
5.22,-0.141,0.837,0.207
5.23,-0.16,1.019,0.018
5.24,-0.379,0.813,-0.234
5.25,-0.165,1.26,-0.021
5.26,-0.08,0.76,0.129
5.27,-0.258,0.988,0.145
5.28,-0.274,0.877,-0.109
5.29,-0.302,1.046,-0.148
5.3,-0.139,1.078,0.112
5.31,-0.042,0.745,0.133
5.32,-0.275,1.034,-0.014
5.33,-0.389,0.855,-0.14
5.34,-0.098,1.28,-0.02
5.35,-0.122,0.741,0.075
5.36,-0.126,0.964,0.132
5.37,-0.373,0.979,-0.21
5.38,-0.249,0.915,-0.102
5.39,-0.041,1.23,0.081
5.4,-0.053,0.659,0.09
5.41,-0.338,1.088,0.009
5.42,-0.301,0.875,-0.191
5.43,-0.11,1.195,0.004
5.44,-0.11,0.844,0.166
5.45,-0.156,0.861,0.042
5.46,-0.406,1.058,-0.195
5.47,-0.065,0.949,-0.087
5.48,-0.163,1.122,0.098
5.49,-0.169,0.655,0.191
5.5,-0.338,1.162,-0.107
5.51,-0.263,0.852,-0.171
5.52,-0.121,1.2,0.119
5.53,-0.093,0.833,0.122
5.54,-0.235,0.812,0.028
5.55,-0.434,1.241,-0.152
5.56,-0.118,0.87,-0.038
5.57,-0.242,1.106,0.141
5.58,-0.038,0.701,0.122
5.59,-0.446,1.202,-0.159
5.6,-0.227,0.869,-0.026
5.61,-0.186,1.219,0.091
5.62,-0.1,0.657,0.117
5.63,-0.267,0.972,0.023
5.64,-0.341,1.125,-0.24
5.65,-0.152,0.843,0.035
5.66,-0.077,1.179,0.143
5.67,-0.153,0.657,0.081
5.68,-0.491,1.205,-0.171
5.69,-0.052,0.913,-0.106
5.7,-0.187,1.146,0.115
5.71,-0.177,0.774,0.153
5.72,-0.219,0.931,-0.14
5.73,-0.295,1.112,-0.19
5.74,-0.058,0.957,0.135
5.75,-0.174,1.117,0.137
5.76,-0.183,0.611,0.058
5.77,-0.457,1.306,-0.193
5.78,-0.059,0.899,-0.084
5.79,-0.144,0.985,0.137
5.8,-0.165,0.887,0.159
5.81,-0.365,0.876,-0.17
5.82,-0.272,1.12,-0.156
5.83,-0.035,0.947,0.113
5.84,-0.17,1.073,0.108
5.85,-0.118,0.632,0.02
5.86,-0.455,1.314,-0.148
5.87,-0.085,0.943,-0.018
5.88,-0.146,0.962,0.13
5.89,-0.092,0.938,0.088
5.9,-0.432,0.826,-0.196
5.91,-0.209,1.211,-0.101
5.92,-0.015,0.926,0.088
5.93,-0.175,0.975,0.099
5.94,-0.25,0.749,0.016
5.95,-0.31,1.208,-0.205
5.96,-0.096,0.975,-0.014
5.97,-0.085,0.916,0.186
5.98,-0.179,0.973,0.03
5.99,-0.426,0.833,-0.201
6.0,-0.056,1.287,-0.041
6.01,-0.16,0.78,0.101
6.02,-0.195,0.94,0.177
6.03,-0.254,0.872,-0.084
6.04,-0.396,1.06,-0.127
6.05,-0.092,1.037,0.06
6.06,-0.077,0.848,0.118
6.07,-0.246,0.992,0.021
6.08,-0.41,0.916,-0.14
6.09,-0.208,1.251,-0.047
6.1,-0.175,0.714,0.123
6.11,-0.103,1.031,0.157
6.12,-0.382,0.914,-0.175
6.13,-0.247,0.96,-0.129
6.14,-0.029,1.237,0.067
6.15,-0.102,0.654,0.101
6.16,-0.312,1.063,0.016
6.17,-0.249,0.948,-0.23
6.18,-0.174,1.12,-0.003
6.19,-0.17,0.742,0.207
6.2,-0.14,0.918,0.101
6.21,-0.417,0.99,-0.213
6.22,-0.096,0.962,0.0
6.23,-0.194,1.213,0.099
6.24,-0.163,0.569,0.155
6.25,-0.233,1.202,-0.045
6.26,-0.267,0.902,-0.245
6.27,-0.187,1.098,0.085
6.28,-0.035,0.885,0.112
6.29,-0.158,0.809,0.015
6.3,-0.449,1.114,-0.174
6.31,-0.079,0.924,-0.068
6.32,-0.183,1.104,0.088
6.33,-0.125,0.702,0.21
6.34,-0.399,1.12,-0.137
6.35,-0.279,0.783,-0.144
6.36,-0.037,1.197,0.111
6.37,-0.173,0.904,0.141
6.38,-0.262,0.752,0.036
6.39,-0.395,1.256,-0.162
6.4,-0.126,0.925,-0.006
6.41,-0.22,1.059,0.132
6.42,-0.079,0.708,0.102
6.43,-0.438,1.173,-0.193
6.44,-0.251,0.871,-0.03
6.45,-0.046,1.172,0.086
6.46,-0.132,0.728,0.156
6.47,-0.32,0.937,-0.008
6.48,-0.341,1.147,-0.251
6.49,-0.112,0.839,0.023
6.5,-0.146,1.17,0.158
6.51,-0.11,0.618,0.007
6.52,-0.48,1.232,-0.18
6.53,-0.026,0.91,-0.068
6.54,-0.223,1.044,0.132
6.55,-0.105,0.809,0.164
6.56,-0.33,0.903,-0.123
6.57,-0.279,1.117,-0.187
6.58,-0.029,0.941,0.092
6.59,-0.22,1.122,0.13
6.6,-0.145,0.618,0.022
6.61,-0.442,1.274,-0.18
6.62,-0.123,0.951,-0.012
6.63,-0.118,0.97,0.13
6.64,-0.178,0.879,0.141
6.65,-0.354,0.846,-0.154
6.66,-0.258,1.174,-0.131
6.67,-0.066,0.901,0.124
6.68,-0.153,1.079,0.117
6.69,-0.187,0.66,-0.051
6.7,-0.374,1.257,-0.164
6.71,-0.093,1.006,0.04
6.72,-0.28,0.936,0.232
6.73,-0.064,0.935,0.052
6.74,-0.392,0.833,-0.244
6.75,-0.221,1.249,0.006
6.76,-0.046,0.854,0.108
6.77,-0.198,0.957,0.101
6.78,-0.253,0.777,-0.072
6.79,-0.33,1.145,-0.183
6.8,-0.095,1.037,0.046
6.81,-0.092,0.824,0.12
6.82,-0.182,0.996,0.025
6.83,-0.421,0.87,-0.189
6.84,-0.187,1.223,-0.055
6.85,-0.123,0.783,0.115
6.86,-0.14,0.972,0.151
6.87,-0.298,0.903,-0.142
6.88,-0.225,1.035,-0.122
6.89,-0.138,1.077,0.085
6.9,-0.108,0.699,0.153
6.91,-0.271,1.044,-0.005
6.92,-0.349,0.923,-0.165
6.93,-0.152,1.182,-0.022
6.94,-0.137,0.755,0.14
6.95,-0.106,0.983,0.101
6.96,-0.379,0.953,-0.166
6.97,-0.295,0.946,-0.005
6.98,-0.005,1.217,0.036
6.99,-0.129,0.639,0.092
7.0,-0.312,1.109,0.008
7.01,-0.332,0.918,-0.198
7.02,-0.267,1.146,0.09
7.03,-0.102,0.836,0.156
7.04,-0.178,0.89,0.058
7.05,-0.377,1.099,-0.212
7.06,-0.052,0.902,-0.12
7.07,-0.159,1.112,0.076
7.08,-0.144,0.674,0.198
7.09,-0.384,1.172,-0.096
7.1,-0.24,0.82,-0.18
7.11,-0.139,1.206,0.104
7.12,-0.14,0.846,0.137
7.13,-0.202,0.812,0.05
7.14,-0.406,1.215,-0.225
7.15,-0.027,0.85,-0.083
7.16,-0.242,1.134,0.119
7.17,-0.093,0.659,0.165
7.18,-0.396,1.142,-0.173
7.19,-0.246,0.886,-0.143
7.2,-0.085,1.157,0.127
7.21,-0.102,0.902,0.089
7.22,-0.305,0.941,0.018
7.23,-0.326,1.122,-0.235
7.24,-0.119,0.855,0.026
7.25,-0.185,1.12,0.134
7.26,-0.006,0.696,0.031
7.27,-0.506,1.218,-0.186
7.28,-0.133,0.904,0.021
7.29,-0.129,1.176,0.103
7.3,-0.213,0.749,0.156
7.31,-0.177,0.9,-0.071
7.32,-0.355,1.159,-0.235
7.33,-0.12,0.858,0.122
7.34,-0.078,1.154,0.132
7.35,-0.165,0.591,0.036
7.36,-0.434,1.324,-0.161
7.37,-0.163,0.936,-0.04
7.38,-0.226,0.989,0.134
7.39,-0.088,0.905,0.2
7.4,-0.388,0.827,-0.123
7.41,-0.309,1.12,-0.135
7.42,-0.032,0.94,0.08
7.43,-0.199,1.081,0.11
7.44,-0.215,0.684,0.055
7.45,-0.412,1.282,-0.228
7.46,-0.095,0.899,-0.051
7.47,-0.146,0.972,0.191
7.48,-0.038,0.966,0.093
7.49,-0.427,0.824,-0.173
7.5,-0.233,1.207,-0.111
7.51,0.009,0.918,0.058
7.52,-0.234,1.005,0.156
7.53,-0.216,0.747,0.012
7.54,-0.399,1.21,-0.234
7.55,-0.063,0.902,-0.053
7.56,-0.092,0.965,0.213
7.57,-0.111,0.946,0.054
7.58,-0.459,0.765,-0.179
7.59,-0.041,1.287,-0.044
7.6,-0.186,0.853,0.088
7.61,-0.183,0.904,0.174
7.62,-0.193,0.868,-0.062
7.63,-0.381,1.076,-0.219
7.64,-0.086,1.009,0.023
7.65,-0.065,0.899,0.142
7.66,-0.2,0.956,0.049
7.67,-0.421,0.828,-0.157
7.68,-0.082,1.317,-0.094
7.69,-0.16,0.77,0.067
7.7,-0.173,0.932,0.205
7.71,-0.258,0.937,-0.119
7.72,-0.352,0.944,-0.181
7.73,-0.116,1.162,0.111
7.74,-0.003,0.791,0.096
7.75,-0.337,1.016,-0.001
7.76,-0.302,0.915,-0.123
7.77,-0.185,1.236,-0.045
7.78,-0.234,0.738,0.153
7.79,-0.069,0.956,0.14
7.8,-0.373,0.989,-0.193
7.81,-0.303,0.887,-0.041
7.82,-0.026,1.297,0.037
7.83,-0.048,0.621,0.096
7.84,-0.379,1.109,0.072
7.85,-0.274,0.912,-0.26
7.86,-0.147,1.072,-0.068
7.87,-0.165,0.881,0.192
7.88,-0.126,0.869,0.105
7.89,-0.405,1.053,-0.207
7.9,-0.18,0.907,-0.027
7.91,-0.088,1.241,0.058
7.92,-0.077,0.612,0.169
7.93,-0.344,1.118,0.002
7.94,-0.283,0.936,-0.25
7.95,-0.081,1.058,0.006
7.96,-0.163,1.011,0.154
7.97,-0.098,0.767,0.063
7.98,-0.432,1.131,-0.206
7.99,-0.097,0.872,-0.003
8.0,-0.124,1.242,0.061
8.01,-0.076,0.596,0.12
8.02,-0.303,1.115,-0.063
8.03,-0.269,0.79,-0.178
8.04,-0.13,1.216,0.134
8.05,-0.138,0.863,0.098
8.06,-0.135,0.814,0.002
8.07,-0.37,1.161,-0.147
8.08,-0.203,0.937,-0.008
8.09,-0.161,1.052,0.136
8.1,-0.043,0.724,0.155
8.11,-0.446,1.157,-0.154
8.12,-0.236,0.85,-0.129
8.13,-0.084,1.25,0.021
8.14,-0.093,0.789,0.108
8.15,-0.257,0.803,0.057
8.16,-0.301,1.276,-0.225
8.17,-0.118,0.813,-0.021
8.18,-0.163,1.129,0.175
8.19,-0.109,0.721,0.122
8.2,-0.409,1.096,-0.185
8.21,-0.236,0.956,-0.065
8.22,-0.107,1.127,0.087
8.23,-0.108,0.81,0.105
8.24,-0.187,0.795,-0.013
8.25,-0.399,1.304,-0.232
8.26,-0.074,0.763,0.025
8.27,-0.193,1.211,0.172
8.28,-0.106,0.706,0.098
8.29,-0.459,1.115,-0.166
8.3,-0.229,0.999,-0.038
8.31,-0.061,1.011,0.056
8.32,-0.184,0.914,0.144
8.33,-0.237,0.788,-0.052
8.34,-0.397,1.243,-0.211
8.35,-0.084,0.81,0.023
8.36,-0.084,1.181,0.145
8.37,-0.115,0.703,0.035
8.38,-0.433,1.074,-0.16
8.39,-0.082,1.095,-0.047
8.4,-0.134,0.867,0.08
8.41,-0.207,1.01,0.191
8.42,-0.283,0.821,-0.115
8.43,-0.336,1.139,-0.182
8.44,-0.117,0.854,0.15
8.45,-0.096,1.149,0.149
8.46,-0.137,0.718,-0.03
8.47,-0.468,1.066,-0.092
8.48,-0.117,1.121,-0.113
8.49,-0.199,0.766,0.124
8.5,-0.128,1.059,0.176
8.51,-0.342,0.764,-0.16
8.52,-0.272,1.172,-0.148
8.53,-0.078,1.0,0.121
8.54,-0.085,0.925,0.139
8.55,-0.291,0.826,0.059
8.56,-0.315,1.08,-0.194
8.57,-0.146,1.137,-0.056
8.58,-0.194,0.714,0.141
8.59,-0.078,1.065,0.135
8.6,-0.361,0.786,-0.206
8.61,-0.268,1.146,-0.096
8.62,-0.042,1.008,0.079
8.63,-0.11,0.781,0.158
8.64,-0.274,0.927,0.038
8.65,-0.295,1.06,-0.202
8.66,-0.085,1.129,-0.04
8.67,-0.219,0.751,0.196
8.68,-0.128,1.055,0.126
8.69,-0.387,0.83,-0.191
8.7,-0.241,1.136,-0.032
8.71,-0.098,1.019,0.041
8.72,-0.135,0.76,0.145
8.73,-0.299,1.053,-0.024
8.74,-0.32,0.902,-0.204
8.75,-0.095,1.162,-0.022
8.76,-0.143,0.786,0.21
8.77,-0.062,1.006,0.032
8.78,-0.394,0.909,-0.189
8.79,-0.106,1.082,-0.036
8.8,-0.116,1.001,0.035
8.81,-0.157,0.69,0.198
8.82,-0.331,1.167,-0.07
8.83,-0.324,0.771,-0.21
8.84,-0.191,1.177,0.092
8.85,-0.067,0.758,0.117
8.86,-0.229,0.982,0.02
8.87,-0.341,0.919,-0.17
8.88,-0.216,1.215,-0.026
8.89,-0.126,0.81,0.057
8.9,-0.07,0.844,0.18
8.91,-0.391,1.077,-0.137
8.92,-0.267,0.849,-0.134
8.93,-0.113,1.288,0.075
8.94,-0.062,0.671,0.143
8.95,-0.307,1.043,0.024
8.96,-0.317,0.948,-0.214
8.97,-0.155,1.032,-0.031
8.98,-0.203,0.941,0.166
8.99,-0.104,0.793,0.123
9.0,-0.389,1.087,-0.176
9.01,-0.243,0.886,-0.011
9.02,-0.111,1.317,0.019
9.03,-0.134,0.606,0.133
9.04,-0.255,1.024,0.002
9.05,-0.296,1.037,-0.209
9.06,-0.182,0.968,0.034
9.07,-0.222,1.003,0.176
9.08,-0.088,0.746,0.118
9.09,-0.456,1.153,-0.201
9.1,-0.185,0.817,-0.069
9.11,-0.062,1.33,0.091
9.12,-0.175,0.639,0.143
9.13,-0.261,0.968,0.029
9.14,-0.314,1.096,-0.2
9.15,-0.143,0.904,-0.047
9.16,-0.188,1.077,0.163
9.17,0.025,0.698,0.056
9.18,-0.542,1.207,-0.171
9.19,-0.098,0.851,-0.053
9.2,-0.136,1.218,0.07
9.21,-0.219,0.649,0.156
9.22,-0.22,0.989,-0.057
9.23,-0.294,1.125,-0.249
9.24,-0.212,0.859,0.077
9.25,-0.152,1.134,0.209
9.26,-0.082,0.644,0.045
9.27,-0.525,1.218,-0.179
9.28,-0.01,0.936,-0.05
9.29,-0.158,1.15,0.032
9.3,-0.214,0.754,0.138
9.31,-0.198,0.94,-0.089
9.32,-0.317,1.137,-0.241
9.33,-0.195,0.872,0.162
9.34,-0.067,1.16,0.14
9.35,-0.199,0.635,-0.044
9.36,-0.402,1.24,-0.151
9.37,-0.062,0.921,-0.078
9.38,-0.186,0.996,0.061
9.39,-0.173,0.866,0.191
9.4,-0.287,0.918,-0.166
9.41,-0.327,1.09,-0.172
9.42,-0.054,0.912,0.099
9.43,-0.089,1.134,0.12
9.44,-0.241,0.622,0.012
9.45,-0.382,1.225,-0.144
9.46,-0.05,0.974,-0.081
9.47,-0.19,0.923,0.152
9.48,-0.128,0.986,0.172
9.49,-0.321,0.811,-0.196
9.5,-0.296,1.147,-0.113
9.51,-0.021,0.969,0.121
9.52,-0.173,1.055,0.112
9.53,-0.296,0.697,0.034
9.54,-0.312,1.222,-0.155
9.55,-0.13,1.011,-0.044
9.56,-0.253,0.827,0.191
9.57,-0.036,1.035,0.124
9.58,-0.391,0.795,-0.236
9.59,-0.274,1.179,-0.082
9.6,0.003,0.95,0.056
9.61,-0.145,0.95,0.151
9.62,-0.252,0.78,-0.003
9.63,-0.33,1.169,-0.224
9.64,-0.131,0.99,-0.028
9.65,-0.144,0.802,0.2
9.66,-0.058,0.912,0.02
9.67,-0.469,0.875,-0.179
9.68,-0.161,1.187,-0.037
9.69,-0.016,0.834,0.064
9.7,-0.207,0.989,0.131
9.71,-0.248,0.781,-0.029
9.72,-0.323,1.196,-0.175
9.73,-0.167,0.959,0.041
9.74,-0.131,0.916,0.19
9.75,-0.108,0.969,-0.022
9.76,-0.46,0.842,-0.194
9.77,-0.111,1.283,-0.013
9.78,-0.072,0.823,0.081
9.79,-0.253,0.951,0.206
9.8,-0.243,0.871,-0.089
9.81,-0.277,1.061,-0.175
9.82,-0.211,1.028,0.118
9.83,-0.019,0.841,0.126
9.84,-0.267,0.989,-0.023
9.85,-0.46,0.871,-0.103
9.86,-0.116,1.26,-0.024
9.87,-0.207,0.736,0.104
9.88,-0.1,1.011,0.188
9.89,-0.304,0.948,-0.171
9.9,-0.352,0.944,-0.105
9.91,-0.067,1.179,0.084
9.92,-0.06,0.694,0.112
9.93,-0.354,1.032,0.015
9.94,-0.372,0.932,-0.17
9.95,-0.074,1.182,-0.045
9.96,-0.19,0.756,0.082
9.97,-0.047,0.942,0.144
9.98,-0.369,1.044,-0.184
9.99,-0.257,0.91,-0.095
10.0,-0.055,1.226,0.062
10.01,-0.099,0.647,0.136
10.02,-0.406,1.067,0.039
10.03,-0.272,0.906,-0.237
10.04,-0.131,1.113,0.023
10.05,-0.185,0.848,0.186
10.06,-0.093,0.867,0.093
10.07,-0.486,1.077,-0.188
10.08,-0.055,0.881,-0.067
10.09,-0.103,1.205,0.054
10.1,-0.217,0.631,0.187
10.11,-0.254,1.162,-0.071
10.12,-0.279,0.854,-0.235
10.13,-0.22,1.088,0.104
10.14,-0.062,0.965,0.105
10.15,-0.149,0.742,0.044
10.16,-0.494,1.18,-0.12
10.17,-0.068,0.907,-0.096
10.18,-0.178,1.118,0.055
10.19,-0.159,0.707,0.226
10.2,-0.333,1.128,-0.151
10.21,-0.299,0.884,-0.162
10.22,-0.136,1.134,0.116
10.23,-0.148,0.907,0.1
10.24,-0.172,0.701,0.041
10.25,-0.406,1.354,-0.18
10.26,-0.112,0.8,-0.023
10.27,-0.235,1.163,0.125
10.28,-0.122,0.739,0.201
10.29,-0.342,1.064,-0.168
10.3,-0.35,0.944,-0.09
10.31,-0.052,1.075,0.044
10.32,-0.125,0.932,0.088
10.33,-0.22,0.703,0.074
10.34,-0.138,0.86,0.13
10.35,-0.126,0.823,0.126
10.36,-0.414,1.107,-0.161
10.37,-0.219,0.852,-0.052
10.38,-0.136,1.275,0.051
10.39,-0.087,0.593,0.128
10.4,-0.251,1.084,0.023
10.41,-0.344,0.847,-0.223
10.42,-0.108,1.13,0.02
10.43,-0.088,0.928,0.146
10.44,-0.127,0.852,0.075
10.45,-0.439,1.104,-0.139
10.46,-0.122,0.984,-0.088
10.47,-0.243,1.096,0.065
10.48,-0.111,0.682,0.18
10.49,-0.326,1.168,-0.089
10.5,-0.372,0.753,-0.195
10.51,-0.025,1.17,0.056
10.52,-0.057,0.983,0.027
10.53,-0.199,0.735,0.055
10.54,-0.338,1.202,-0.149
10.55,-0.11,0.92,-0.122
10.56,-0.243,1.061,0.118
10.57,-0.137,0.71,0.196
10.58,-0.397,1.138,-0.139
10.59,-0.322,0.795,-0.162
10.6,-0.055,1.135,0.129
10.61,-0.098,0.969,0.066
10.62,-0.206,0.718,0.021
10.63,-0.373,1.251,-0.177
10.64,-0.042,0.841,-0.092
10.65,-0.278,1.124,0.127
10.66,-0.124,0.734,0.197
10.67,-0.398,1.101,-0.18
10.68,-0.326,0.894,-0.118
10.69,-0.003,1.135,0.133
10.7,-0.134,0.942,0.119
10.71,-0.276,0.698,-0.002
10.72,-0.336,1.348,-0.239
10.73,-0.076,0.795,-0.084
10.74,-0.206,1.148,0.172
10.75,0.013,0.743,0.088
10.76,-0.512,1.044,-0.185
10.77,-0.26,1.013,-0.04
10.78,-0.093,1.066,0.045
10.79,-0.143,0.912,0.076
10.8,-0.183,0.751,-0.003
10.81,-0.339,1.336,-0.246
10.82,-0.156,0.768,0.021
10.83,-0.131,1.17,0.136
10.84,-0.077,0.708,0.082
10.85,-0.501,1.022,-0.148
10.86,-0.113,1.164,-0.116
10.87,-0.126,0.802,0.017
10.88,-0.159,0.996,0.184
10.89,-0.24,0.793,-0.08
10.9,-0.401,1.212,-0.194
10.91,-0.134,0.865,0.044
10.92,-0.099,1.139,0.147
10.93,-0.108,0.767,0.024
10.94,-0.437,0.98,-0.115
10.95,-0.155,1.206,-0.09
10.96,-0.042,0.749,0.041
10.97,-0.247,1.034,0.191
10.98,-0.321,0.749,-0.055
10.99,-0.336,1.173,-0.177
11.0,-0.12,0.933,0.067
11.01,-0.065,1.056,0.156
11.02,-0.205,0.831,0.011
11.03,-0.432,0.908,-0.117
11.04,-0.1,1.248,-0.095
11.05,-0.129,0.739,0.093
11.06,-0.198,1.053,0.179
11.07,-0.265,0.827,-0.134
11.08,-0.314,1.078,-0.169
11.09,-0.085,1.031,0.114
11.1,-0.097,0.929,0.098
11.11,-0.214,0.891,0.005
11.12,-0.364,0.986,-0.132
11.13,-0.201,1.211,-0.071
11.14,-0.144,0.66,0.165
11.15,-0.14,1.093,0.183
11.16,-0.346,0.806,-0.152
11.17,-0.291,1.006,-0.151
11.18,0.014,1.137,0.072
11.19,-0.121,0.749,0.096
11.2,-0.271,0.988,0.063
11.21,-0.319,0.96,-0.197
11.22,-0.134,1.035,0.002
11.23,-0.148,0.773,0.202
11.24,-0.131,1.06,0.043
11.25,-0.375,0.787,-0.194
11.26,-0.213,1.201,-0.071
11.27,-0.07,0.966,0.071
11.28,-0.146,0.773,0.126
11.29,-0.246,1.018,-0.035
11.3,-0.335,1.0,-0.214
11.31,-0.095,1.136,-0.009
11.32,-0.131,0.807,0.168
11.33,-0.206,1.032,0.037
11.34,-0.365,0.827,-0.224
11.35,-0.094,1.157,-0.048
11.36,-0.143,0.92,0.095
11.37,-0.193,0.769,0.217
11.38,-0.27,1.086,-0.097
11.39,-0.326,0.816,-0.178
11.4,-0.151,1.25,0.105
11.41,-0.122,0.758,0.15
11.42,-0.165,0.948,0.026
11.43,-0.409,0.983,-0.137
11.44,-0.075,1.057,-0.084
11.45,-0.226,0.925,0.117
11.46,-0.115,0.771,0.161
11.47,-0.346,1.15,-0.129
11.48,-0.268,0.749,-0.168
11.49,-0.046,1.325,0.098
11.5,-0.141,0.741,0.117
11.51,-0.27,0.929,0.062
11.52,-0.377,1.071,-0.164
11.53,-0.111,1.031,-0.061
11.54,-0.16,0.988,0.088
11.55,-0.098,0.75,0.176
11.56,-0.384,1.137,-0.198
11.57,-0.303,0.789,-0.089
11.58,-0.065,1.31,0.098
11.59,-0.137,0.703,0.134
11.6,-0.303,0.906,0.068
11.61,-0.316,1.15,-0.216
11.62,-0.089,0.912,-0.03
11.63,-0.278,1.038,0.19
11.64,-0.003,0.712,0.069
11.65,-0.477,1.187,-0.217
11.66,-0.192,0.85,-0.042
11.67,-0.12,1.202,0.056
11.68,-0.182,0.721,0.151
11.69,-0.242,0.962,0.006
11.7,-0.306,1.146,-0.226
11.71,-0.15,0.843,0.002
11.72,-0.133,1.158,0.142
11.73,-0.125,0.655,0.102
11.74,-0.468,1.187,-0.167
11.75,-0.117,0.908,-0.059
11.76,-0.132,1.072,0.089
11.77,-0.176,0.828,0.195
11.78,-0.31,0.899,-0.051
11.79,-0.347,1.142,-0.177
11.8,-0.13,0.847,0.084
11.81,-0.127,1.218,0.106
11.82,-0.103,0.606,-0.025
11.83,-0.464,1.216,-0.151
11.84,-0.068,0.995,-0.088
11.85,-0.107,0.976,0.066
11.86,-0.196,0.92,0.206
11.87,-0.315,0.808,-0.147
11.88,-0.26,1.149,-0.15
11.89,-0.143,0.914,0.151
11.9,-0.141,1.121,0.126
11.91,-0.116,0.67,0.008
11.92,-0.447,1.227,-0.131
11.93,-0.123,0.999,-0.059
11.94,-0.24,0.878,0.121
11.95,-0.122,0.984,0.15
11.96,-0.4,0.813,-0.168
11.97,-0.305,1.199,-0.112
11.98,-0.029,0.955,0.085
11.99,-0.166,0.975,0.142
12.0,-0.227,0.732,0.037
12.01,-0.355,1.221,-0.184
12.02,-0.151,1.005,-0.045
12.03,-0.147,0.801,0.148
12.04,-0.101,0.899,0.066
12.05,-0.431,0.873,-0.191
12.06,-0.208,1.207,-0.072
12.07,-0.005,0.883,0.041
12.08,-0.182,0.99,0.119
12.09,-0.242,0.766,-0.004
12.1,-0.42,1.237,-0.193
12.11,-0.062,0.869,-0.029
12.12,-0.092,1.014,0.176
12.13,-0.171,0.912,0.004
12.14,-0.393,0.816,-0.171
12.15,-0.16,1.308,-0.009
12.16,-0.096,0.797,0.104
12.17,-0.234,0.984,0.182
12.18,-0.249,0.822,-0.103
12.19,-0.329,1.09,-0.178
12.2,-0.165,1.031,0.087
12.21,-0.04,0.881,0.115
12.22,-0.192,0.942,-0.003
12.23,-0.374,0.903,-0.14
12.24,-0.136,1.277,-0.08
12.25,-0.111,0.665,0.085
12.26,-0.113,1.034,0.176
12.27,-0.399,0.896,-0.151
12.28,-0.248,0.964,-0.15
12.29,-0.056,1.167,0.103
12.3,-0.16,0.729,0.149
12.31,-0.258,1.034,-0.005
12.32,-0.284,0.964,-0.195
12.33,-0.173,1.176,-0.034
12.34,-0.191,0.74,0.142
12.35,-0.054,1.025,0.129
12.36,-0.426,0.922,-0.208
12.37,-0.321,0.906,0.011
12.38,-0.043,1.271,0.039
12.39,-0.151,0.612,0.105
12.4,-0.344,1.099,0.031
12.41,-0.255,0.947,-0.282
12.42,-0.124,1.083,-0.031
12.43,-0.153,0.845,0.167
12.44,-0.067,0.919,0.043
12.45,-0.428,1.017,-0.184
12.46,-0.201,0.935,-0.037
12.47,-0.067,1.203,0.054
12.48,-0.109,0.588,0.141
12.49,-0.357,1.15,0.009
12.5,-0.296,0.907,-0.227
12.51,-0.117,1.097,0.011
12.52,-0.118,0.932,0.179
12.53,-0.099,0.781,-0.006
12.54,-0.44,1.137,-0.193
12.55,-0.094,0.943,-0.022
12.56,-0.164,1.114,0.098
12.57,-0.149,0.645,0.206
12.58,-0.343,1.165,-0.107
12.59,-0.336,0.85,-0.17
12.6,-0.105,1.107,0.149
12.61,-0.103,0.961,0.082
12.62,-0.168,0.726,0.017
12.63,-0.44,1.249,-0.131
12.64,-0.118,0.865,-0.046
12.65,-0.218,1.11,0.069
12.66,-0.028,0.747,0.174
12.67,-0.466,1.111,-0.202
12.68,-0.269,0.868,-0.142
12.69,0.023,1.174,0.093
12.7,-0.17,0.895,0.063
12.71,-0.249,0.728,0.052
12.72,-0.351,1.34,-0.238
12.73,-0.097,0.754,-0.013
12.74,-0.189,1.152,0.204
12.75,-0.021,0.719,0.099
12.76,-0.528,1.061,-0.215
12.77,-0.122,1.091,-0.04
12.78,-0.155,1.008,0.087
12.79,-0.188,0.892,0.167
12.8,-0.236,0.764,-0.02
12.81,-0.381,1.261,-0.222
12.82,-0.149,0.798,0.064
12.83,-0.103,1.202,0.161
12.84,-0.143,0.701,0.058
12.85,-0.419,1.218,-0.171
12.86,-0.047,0.987,-0.139
12.87,-0.116,0.95,0.076
12.88,-0.086,0.934,0.19
12.89,-0.399,0.847,-0.149
12.9,-0.281,1.133,-0.135
12.91,-0.054,0.964,0.09
12.92,-0.178,1.062,0.111
12.93,-0.21,0.676,0.044
12.94,-0.372,1.281,-0.2
12.95,-0.186,0.917,-0.029
12.96,-0.207,0.872,0.239
12.97,-0.083,0.999,0.107
12.98,-0.434,0.799,-0.186
12.99,-0.348,1.21,-0.02
13.0,0.036,0.911,0.047
13.01,-0.205,0.969,0.157
13.02,-0.233,0.769,0.032
13.03,-0.351,1.229,-0.224
13.04,-0.127,0.961,-0.035
13.05,-0.066,0.892,0.162
13.06,-0.167,0.994,0.085
13.07,-0.379,0.802,-0.148
13.08,-0.248,1.275,-0.065
13.09,-0.101,0.833,0.085
13.1,-0.199,0.966,0.131
13.11,-0.215,0.88,-0.066
13.12,-0.316,1.012,-0.194
13.13,-0.187,1.114,0.078
13.14,-0.052,0.872,0.148
13.15,-0.182,0.973,0.081
13.16,-0.367,0.84,-0.146
13.17,-0.139,1.289,-0.099
13.18,-0.11,0.772,0.065
13.19,-0.173,0.933,0.188
13.2,-0.283,0.981,-0.12
13.21,-0.349,0.91,-0.129
13.22,-0.149,1.182,0.076
13.23,-0.097,0.799,0.156
13.24,-0.179,1.014,0.006
13.25,-0.369,0.9,-0.121
13.26,-0.152,1.242,-0.069
13.27,-0.166,0.781,0.108
13.28,-0.165,0.888,0.164
13.29,-0.354,1.069,-0.165
13.3,-0.319,0.846,-0.09
13.31,-0.171,1.242,0.136
13.32,-0.096,0.702,0.12
13.33,-0.267,1.042,0.024
13.34,-0.359,0.96,-0.15
13.35,-0.143,1.115,-0.066
13.36,-0.163,0.82,0.135
13.37,-0.122,0.896,0.154
13.38,-0.425,1.106,-0.146
13.39,-0.23,0.812,-0.105
13.4,-0.098,1.314,0.141
13.41,-0.193,0.618,0.141
13.42,-0.336,1.064,-0.005
13.43,-0.222,0.989,-0.249
13.44,-0.167,1.03,0.038
13.45,-0.212,0.911,0.197
13.46,-0.045,0.786,0.054
13.47,-0.467,1.171,-0.214
13.48,-0.097,0.857,-0.022
13.49,-0.12,1.231,0.068
13.5,-0.195,0.671,0.169
13.51,-0.273,1.118,-0.049
13.52,-0.295,0.947,-0.258
13.53,-0.141,1.022,0.136
13.54,-0.137,1.042,0.114
13.55,-0.132,0.626,0.019
13.56,-0.543,1.288,-0.112
13.57,-0.052,0.858,-0.076
13.58,-0.149,1.151,0.064
13.59,-0.141,0.749,0.226
13.6,-0.377,1.012,-0.138
13.61,-0.294,1.004,-0.167
13.62,-0.026,1.072,0.054
13.63,-0.126,0.988,0.09
13.64,-0.23,0.673,0.058
13.65,-0.406,1.354,-0.2
13.66,-0.028,0.718,-0.055
13.67,-0.149,1.213,0.192
13.68,-0.102,0.697,0.11
13.69,-0.44,1.065,-0.212
13.7,-0.197,1.033,-0.031
13.71,-0.131,1.085,0.034
13.72,-0.151,0.849,0.097
13.73,-0.232,0.825,0.005
13.74,-0.407,1.277,-0.228
13.75,-0.093,0.8,0.024
13.76,-0.119,1.217,0.14
13.77,-0.093,0.651,0.039
13.78,-0.422,1.117,-0.172
13.79,-0.159,1.078,-0.05
13.8,-0.167,0.905,0.128
13.81,-0.189,0.949,0.163
13.82,-0.283,0.775,-0.119
13.83,-0.312,1.204,-0.158
13.84,-0.112,0.903,0.104
13.85,-0.113,1.112,0.12
13.86,-0.146,0.703,0.024
13.87,-0.39,1.162,-0.152
13.88,-0.081,1.083,-0.15
13.89,-0.117,0.761,0.088
13.9,-0.219,1.071,0.209
13.91,-0.316,0.751,-0.179
13.92,-0.304,1.204,-0.082
13.93,-0.083,0.949,0.097
13.94,-0.173,0.959,0.151
13.95,-0.184,0.803,0.03
13.96,-0.333,1.119,-0.199
13.97,-0.17,1.094,-0.012
13.98,-0.136,0.791,0.094
13.99,-0.105,1.053,0.093
14.0,-0.341,0.773,-0.161
14.01,-0.311,1.27,-0.069
14.02,-0.016,0.944,0.036
14.03,-0.143,0.85,0.138
14.04,-0.223,0.889,0.041
14.05,-0.326,0.998,-0.254
14.06,-0.1,1.115,-0.036
14.07,-0.125,0.795,0.135
14.08,-0.122,1.048,0.055
14.09,-0.347,0.803,-0.171
14.1,-0.212,1.205,-0.04
14.11,-0.106,0.998,0.095
14.12,-0.156,0.76,0.134
14.13,-0.236,0.993,-0.044
14.14,-0.362,0.965,-0.152
14.15,-0.117,1.182,0.031
14.16,-0.079,0.776,0.117
14.17,-0.165,1.018,0.104
14.18,-0.332,0.902,-0.186
14.19,-0.176,1.171,-0.066
14.2,-0.151,0.893,0.124
14.21,-0.18,0.792,0.167
14.22,-0.32,1.071,-0.095
14.23,-0.258,0.834,-0.181
14.24,-0.104,1.26,0.062
14.25,-0.122,0.755,0.122
14.26,-0.147,0.97,0.005
14.27,-0.389,1.012,-0.181
14.28,-0.209,1.047,-0.0
14.29,-0.145,0.937,0.096
14.3,-0.156,0.774,0.171
14.31,-0.443,1.131,-0.156
14.32,-0.154,0.81,-0.142
14.33,-0.174,1.326,0.1
14.34,-0.079,0.639,0.081
14.35,-0.198,0.97,0.04
14.36,-0.385,1.092,-0.202
14.37,-0.09,0.886,-0.025
14.38,-0.203,1.013,0.142
14.39,-0.059,0.732,0.075
14.4,-0.463,1.187,-0.169
14.41,-0.207,0.829,-0.066
14.42,-0.118,1.284,0.038
14.43,-0.025,0.665,0.085
14.44,-0.324,0.99,0.039
14.45,-0.316,1.091,-0.243
14.46,-0.132,0.855,-0.007
14.47,-0.07,1.176,0.151
14.48,-0.177,0.73,-0.005
14.49,-0.419,1.178,-0.12
14.5,-0.159,0.878,-0.058
14.51,-0.204,1.176,0.086
14.52,-0.094,0.712,0.183
14.53,-0.324,1.058,-0.149
14.54,-0.262,0.902,-0.182
14.55,-0.043,1.122,0.086
14.56,-0.07,0.929,0.076
14.57,-0.195,0.717,0.055
14.58,-0.487,1.342,-0.187
14.59,-0.039,0.804,-0.093
14.6,-0.205,1.182,0.134
14.61,-0.081,0.728,0.15
14.62,-0.393,0.989,-0.184
14.63,-0.19,1.06,-0.082
14.64,-0.073,1.053,0.088
14.65,-0.2,0.933,0.115
14.66,-0.193,0.701,0.042
14.67,-0.343,1.338,-0.238
14.68,-0.123,0.803,0.008
14.69,-0.182,1.119,0.179
14.7,-0.083,0.793,0.074
14.71,-0.509,0.949,-0.177
14.72,-0.174,1.138,-0.067
14.73,-0.001,0.968,0.048
14.74,-0.218,0.937,0.165
14.75,-0.208,0.689,-0.006
14.76,-0.313,1.324,-0.223
14.77,-0.133,0.845,0.015
14.78,-0.172,1.069,0.21
14.79,-0.141,0.812,0.049
14.8,-0.448,0.978,-0.183
14.81,-0.139,1.205,-0.02
14.82,-0.166,0.826,0.099
14.83,-0.18,0.993,0.154
14.84,-0.234,0.797,-0.132
14.85,-0.347,1.18,-0.148
14.86,-0.128,0.928,0.129
14.87,-0.11,1.02,0.105
14.88,-0.239,0.829,-0.0
14.89,-0.358,0.98,-0.12
14.9,-0.191,1.225,-0.048
14.91,-0.207,0.704,0.113
14.92,-0.086,1.094,0.156
14.93,-0.34,0.801,-0.183
14.94,-0.327,1.119,-0.072
14.95,0.004,1.062,0.047
14.96,-0.152,0.792,0.102
14.97,-0.217,0.952,0.032
14.98,-0.353,1.021,-0.162
14.99,-0.203,1.148,-0.001
15.0,-0.145,0.736,0.173
15.01,-0.082,1.062,0.102
15.02,-0.318,0.826,-0.206
15.03,-0.239,1.084,-0.073
15.04,-0.097,1.059,0.067
15.05,-0.093,0.735,0.154
15.06,-0.3,1.028,-0.019
15.07,-0.295,0.911,-0.196
15.08,-0.153,1.192,0.02
15.09,-0.155,0.786,0.179
15.1,-0.135,1.008,0.068
15.11,-0.34,0.845,-0.213
15.12,-0.126,1.092,-0.045
15.13,-0.118,1.076,0.034
15.14,-0.161,0.656,0.14
15.15,-0.258,1.137,-0.015
15.16,-0.364,0.883,-0.168
15.17,-0.242,1.169,0.088
15.18,0.005,0.83,0.113
15.19,-0.187,0.937,0.048
15.2,-0.475,0.99,-0.146
15.21,-0.141,1.001,-0.049
15.22,-0.085,1.064,0.035
15.23,-0.222,0.726,0.246
15.24,-0.322,1.158,-0.113
15.25,-0.293,0.769,-0.21
15.26,-0.123,1.242,0.107
15.27,-0.092,0.788,0.122
15.28,-0.201,0.859,0.019
15.29,-0.287,1.007,-0.241
15.3,-0.14,0.99,-0.075
15.31,-0.253,0.937,0.17
15.32,-0.041,0.778,0.14
15.33,-0.455,1.132,-0.139
15.34,-0.22,0.777,-0.085
15.35,-0.054,1.303,0.048
15.36,-0.151,0.648,0.169
15.37,-0.259,0.982,0.013
15.38,-0.317,1.094,-0.227
15.39,-0.156,0.943,-0.019
15.4,-0.156,1.043,0.164
15.41,-0.045,0.702,0.078
15.42,-0.473,1.187,-0.211
15.43,-0.167,0.871,-0.028
15.44,-0.12,1.235,0.064
15.45,-0.188,0.658,0.167
15.46,-0.267,1.007,0.003
15.47,-0.377,1.091,-0.253
15.48,-0.132,0.821,0.024
15.49,-0.166,1.167,0.193
15.5,-0.123,0.663,0.069
15.51,-0.51,1.14,-0.165
15.52,-0.07,0.912,-0.038
15.53,-0.197,1.179,0.085
15.54,-0.21,0.735,0.195
15.55,-0.255,0.931,-0.08
15.56,-0.363,1.09,-0.221
15.57,-0.103,0.87,0.107
15.58,-0.066,1.211,0.112
15.59,-0.176,0.599,0.039
15.6,-0.435,1.232,-0.146
15.61,-0.087,0.979,-0.085
15.62,-0.187,1.036,0.073
15.63,-0.103,0.817,0.166
15.64,-0.345,0.892,-0.136
15.65,-0.282,1.126,-0.153
15.66,-0.028,0.933,0.051
15.67,-0.16,1.061,0.136
15.68,-0.136,0.656,0.028
15.69,-0.29,1.313,-0.229
15.7,-0.219,0.889,-0.04
15.71,-0.124,0.964,0.161
15.72,-0.114,0.959,0.123
15.73,-0.422,0.753,-0.135
15.74,-0.236,1.169,-0.143
15.75,-0.018,0.956,0.065
15.76,-0.175,1.0,0.117
15.77,-0.196,0.7,0.033
15.78,-0.362,1.262,-0.191
15.79,-0.168,0.927,-0.048
15.8,-0.132,0.89,0.182
15.81,-0.17,1.032,0.112
15.82,-0.417,0.757,-0.239
15.83,-0.188,1.192,-0.064
15.84,-0.059,0.98,0.077
15.85,-0.18,0.948,0.13
15.86,-0.198,0.789,0.014
15.87,-0.352,1.179,-0.214
15.88,-0.141,0.971,-0.0
15.89,-0.118,0.859,0.195
15.9,-0.139,1.028,0.06
15.91,-0.433,0.776,-0.215
15.92,-0.116,1.255,-0.005
15.93,-0.198,0.867,0.081
15.94,-0.128,0.877,0.182
15.95,-0.218,0.943,-0.071
15.96,-0.316,1.009,-0.176
15.97,-0.121,1.084,0.021
15.98,-0.044,0.843,0.103
15.99,-0.16,0.976,0.014
16.0,-0.38,0.907,-0.125
16.01,-0.16,1.259,-0.113
16.02,-0.215,0.717,0.089
16.03,-0.118,0.935,0.232
16.04,-0.337,1.013,-0.163
16.05,-0.317,0.883,-0.142
16.06,-0.15,1.222,0.144
16.07,-0.107,0.74,0.113
16.08,-0.208,1.007,0.027
16.09,-0.286,0.954,-0.206
16.1,-0.176,1.14,-0.03
16.11,-0.184,0.768,0.238
16.12,-0.159,0.995,0.06
16.13,-0.347,0.863,-0.208
16.14,-0.22,1.111,-0.003
16.15,-0.098,1.135,0.042
16.16,-0.195,0.625,0.139
16.17,-0.207,1.102,0.002
16.18,-0.347,0.926,-0.175
16.19,-0.242,1.139,0.03
16.2,-0.061,0.811,0.142
16.21,-0.185,0.9,0.069
16.22,-0.445,0.975,-0.138
16.23,-0.13,1.017,-0.066
16.24,-0.114,1.091,0.067
16.25,-0.129,0.638,0.158
16.26,-0.283,1.153,-0.094
16.27,-0.292,0.837,-0.183
16.28,-0.172,1.155,0.049
16.29,-0.067,0.882,0.142
16.3,-0.149,0.854,0.042
16.31,-0.386,1.1,-0.158
16.32,-0.131,0.969,-0.034
16.33,-0.156,1.11,0.051
16.34,-0.212,0.657,0.21
16.35,-0.316,1.19,-0.116
16.36,-0.287,0.821,-0.185
16.37,-0.124,1.146,0.096
16.38,-0.057,0.909,0.073
16.39,-0.166,0.783,0.033
16.4,-0.445,1.196,-0.199
16.41,-0.049,0.887,-0.099
16.42,-0.248,1.155,0.088
16.43,-0.094,0.681,0.139
16.44,-0.362,1.118,-0.143
16.45,-0.263,0.898,-0.155
16.46,-0.139,1.1,0.091
16.47,-0.085,0.892,0.096
16.48,-0.238,0.75,0.007
16.49,-0.359,1.292,-0.202
16.5,-0.073,0.816,-0.081
16.51,-0.216,1.151,0.122
16.52,-0.051,0.761,0.187
16.53,-0.432,1.098,-0.179
16.54,-0.269,0.894,-0.127
16.55,-0.047,1.14,0.102
16.56,-0.167,0.946,0.1
16.57,-0.163,0.65,-0.012
16.58,-0.36,1.317,-0.242
16.59,-0.063,0.824,0.001
16.6,-0.183,1.098,0.153
16.61,-0.108,0.744,0.121
16.62,-0.467,1.049,-0.182
16.63,-0.208,0.981,-0.071
16.64,-0.084,1.029,0.081
16.65,-0.131,0.929,0.113
16.66,-0.205,0.723,-0.043
16.67,-0.371,1.314,-0.213
16.68,-0.034,0.794,-0.006
16.69,-0.151,1.125,0.16
16.7,-0.102,0.763,0.028
16.71,-0.408,1.016,-0.181
16.72,-0.06,1.172,-0.044
16.73,-0.117,0.896,0.096
16.74,-0.238,1.02,0.164
16.75,-0.229,0.756,-0.103
16.76,-0.358,1.203,-0.208
16.77,-0.187,0.865,0.117
16.78,-0.021,1.056,0.098
16.79,-0.236,0.784,-0.012
16.8,-0.432,0.997,-0.078
16.81,-0.133,1.185,-0.032
16.82,-0.196,0.759,0.168
16.83,-0.171,1.093,0.211
16.84,-0.304,0.752,-0.196
16.85,-0.301,1.149,-0.121
16.86,-0.041,1.023,0.098
16.87,-0.145,0.838,0.127
16.88,-0.279,0.899,0.045
16.89,-0.287,1.043,-0.184
16.9,-0.156,1.172,-0.032
16.91,-0.092,0.71,0.192
16.92,-0.16,1.026,0.05
16.93,-0.372,0.775,-0.177
16.94,-0.2,1.295,-0.059
16.95,-0.05,0.809,0.072
16.96,-0.188,0.936,0.152
16.97,-0.296,0.879,-0.023
16.98,-0.314,1.019,-0.17
16.99,-0.068,1.129,0.047
17.0,-0.134,0.8,0.158
17.01,-0.232,1.013,0.009
17.02,-0.352,0.841,-0.21
17.03,-0.127,1.263,-0.023
17.04,-0.177,0.8,0.092
17.05,-0.136,0.857,0.128
17.06,-0.31,1.021,-0.141
17.07,-0.28,0.886,-0.161
17.08,-0.069,1.222,0.096
17.09,-0.091,0.712,0.135
17.1,-0.291,1.053,0.012
17.11,-0.348,0.933,-0.15
17.12,-0.148,1.169,-0.033
17.13,-0.206,0.762,0.124
17.14,-0.0,0.859,0.112
17.15,-0.487,1.121,-0.185
17.16,-0.28,0.819,-0.045
17.17,-0.01,1.295,0.059
17.18,-0.125,0.658,0.138
17.19,-0.293,1.049,-0.023
17.2,-0.268,0.963,-0.237
17.21,-0.101,1.072,-0.031
17.22,-0.18,0.93,0.18
17.23,-0.038,0.787,0.055
17.24,-0.51,1.218,-0.15
17.25,-0.062,0.871,-0.037
17.26,-0.196,1.192,0.094
17.27,-0.144,0.668,0.184
17.28,-0.282,1.104,-0.093
17.29,-0.366,0.896,-0.145
17.3,-0.069,1.068,0.115
17.31,-0.101,1.023,0.095
17.32,-0.219,0.656,0.036
17.33,-0.477,1.283,-0.145
17.34,-0.072,0.887,-0.066
17.35,-0.225,1.143,0.14
17.36,-0.073,0.729,0.19
17.37,-0.449,1.035,-0.147
17.38,-0.284,0.997,-0.121
17.39,0.01,1.084,0.06
17.4,-0.156,0.94,0.091
17.41,-0.216,0.692,0.059
17.42,-0.405,1.339,-0.22
17.43,-0.114,0.751,-0.064
17.44,-0.171,1.122,0.169
17.45,-0.111,0.755,0.113
17.46,-0.51,1.002,-0.161
17.47,-0.057,1.145,-0.111
17.48,-0.095,0.918,0.05
17.49,-0.228,0.945,0.206
17.5,-0.129,0.759,-0.083
17.51,-0.385,1.267,-0.151
17.52,-0.125,0.848,0.071
17.53,-0.076,1.101,0.142
17.54,-0.146,0.812,0.014
17.55,-0.416,1.009,-0.195
17.56,-0.082,1.191,-0.102
17.57,-0.158,0.766,0.074
17.58,-0.163,1.03,0.198
17.59,-0.27,0.804,-0.159
17.6,-0.333,1.137,-0.111
17.61,-0.093,0.974,0.079
17.62,-0.061,0.978,0.108
17.63,-0.214,0.84,0.03
17.64,-0.397,1.059,-0.143
17.65,-0.139,1.198,-0.106
17.66,-0.195,0.646,0.145
17.67,-0.065,1.078,0.168
17.68,-0.35,0.788,-0.224
17.69,-0.273,1.041,-0.086
17.7,0.013,1.097,0.074
17.71,-0.168,0.802,0.078
17.72,-0.238,0.958,0.014
17.73,-0.351,1.128,-0.22
17.74,-0.141,1.046,-0.054
17.75,-0.021,0.835,0.192
17.76,-0.195,1.041,0.061
17.77,-0.513,0.778,-0.129
17.78,-0.035,1.262,-0.078
17.79,-0.115,0.886,0.091
17.8,-0.24,0.835,0.185
17.81,-0.149,0.992,-0.081
17.82,-0.37,0.947,-0.192
17.83,-0.159,1.157,0.151
17.84,0.013,0.763,0.099
17.85,-0.278,1.017,0.0
17.86,-0.385,0.892,-0.112
17.87,-0.107,1.211,-0.09
17.88,-0.229,0.8,0.119
17.89,-0.093,0.876,0.204
17.9,-0.343,1.056,-0.143
17.91,-0.338,0.874,-0.095
17.92,-0.024,1.282,0.07
17.93,-0.094,0.651,0.137
17.94,-0.368,1.049,0.027
17.95,-0.27,0.965,-0.204
17.96,-0.16,1.062,-0.025
17.97,-0.251,0.903,0.182
17.98,-0.015,0.833,0.092
17.99,-0.412,1.108,-0.23
18.0,-0.235,0.869,-0.017
18.01,-0.071,1.291,0.053
18.02,-0.135,0.612,0.109
18.03,-0.338,1.084,0.029
18.04,-0.292,0.989,-0.23
18.05,-0.194,0.999,0.054
18.06,-0.121,1.03,0.139
18.07,-0.069,0.708,0.043
18.08,-0.514,1.196,-0.148
18.09,-0.064,0.913,-0.069
18.1,-0.155,1.219,0.103
18.11,-0.226,0.655,0.215
18.12,-0.265,1.046,-0.068
18.13,-0.293,1.021,-0.216
18.14,-0.215,0.965,0.145
18.15,-0.086,1.027,0.126
18.16,-0.124,0.682,0.029
18.17,-0.548,1.266,-0.19
18.18,0.02,0.875,-0.086
18.19,-0.195,1.172,0.062
18.2,-0.158,0.753,0.203
18.21,-0.37,0.977,-0.095
18.22,-0.312,1.024,-0.189
18.23,-0.028,0.962,0.087
18.24,-0.094,1.069,0.117
18.25,-0.304,0.656,0.026
18.26,-0.399,1.28,-0.215
18.27,-0.048,0.842,-0.067
18.28,-0.169,1.113,0.166
18.29,-0.069,0.818,0.074
18.3,-0.39,0.912,-0.151
18.31,-0.208,1.187,-0.066
18.32,-0.127,0.924,0.082
18.33,-0.082,0.966,0.08
18.34,-0.239,0.755,-0.009
18.35,-0.514,1.257,-0.198
18.36,-0.012,0.86,-0.001
18.37,-0.146,1.087,0.143
18.38,-0.138,0.834,0.076
18.39,-0.365,0.932,-0.155
18.4,-0.222,1.26,-0.032
18.41,-0.124,0.776,0.085
18.42,-0.161,1.026,0.153
18.43,-0.247,0.809,-0.084
18.44,-0.369,1.172,-0.187
18.45,-0.09,0.906,0.073
18.46,-0.133,1.017,0.171
18.47,-0.189,0.84,0.034
18.48,-0.348,0.919,-0.176
18.49,-0.118,1.303,-0.095
18.5,-0.122,0.679,0.1
18.51,-0.178,1.024,0.184
18.52,-0.32,0.836,-0.12
18.53,-0.312,1.07,-0.142
18.54,-0.101,1.068,0.102
18.55,-0.147,0.871,0.128
18.56,-0.232,0.876,0.037
18.57,-0.338,1.085,-0.188
18.58,-0.098,1.154,-0.008
18.59,-0.201,0.743,0.148
18.6,-0.069,1.075,0.066
18.61,-0.385,0.784,-0.186
18.62,-0.255,1.131,-0.054
18.63,-0.026,0.946,0.086
18.64,-0.211,0.784,0.116
18.65,-0.265,1.002,-0.011
18.66,-0.315,0.931,-0.214
18.67,-0.12,1.173,0.02
18.68,-0.262,0.697,0.045
18.69,-0.367,1.282,-0.206
18.7,-0.144,0.785,-0.011
18.71,-0.135,1.183,0.145
18.72,-0.058,0.701,0.077
18.73,-0.425,1.109,-0.16
18.74,-0.209,1.028,-0.084
18.75,-0.084,1.016,0.083
18.76,-0.139,0.878,0.172
18.77,-0.292,0.732,-0.019
18.78,-0.362,1.305,-0.225
18.79,-0.011,0.823,-0.031
18.8,-0.203,1.171,0.213
18.81,-0.078,0.706,0.049
18.82,-0.387,1.081,-0.198
18.83,-0.145,1.093,-0.01
18.84,-0.147,0.928,0.086
18.85,-0.119,0.977,0.099
18.86,-0.25,0.774,-0.064
18.87,-0.435,1.24,-0.121
18.88,-0.119,0.844,0.101
18.89,-0.058,1.115,0.126
18.9,-0.204,0.749,0.024
18.91,-0.463,1.055,-0.109
18.92,-0.106,1.189,-0.058
18.93,-0.119,0.759,0.1
18.94,-0.129,1.07,0.144
18.95,-0.35,0.768,-0.191
18.96,-0.279,1.209,-0.112
18.97,0.006,0.965,0.075
18.98,-0.182,0.907,0.147
18.99,-0.237,0.844,0.008
19.0,-0.274,1.06,-0.205
19.01,-0.149,1.127,-0.042
19.02,-0.194,0.71,0.19
19.03,-0.088,1.044,0.106
19.04,-0.443,0.788,-0.191
19.05,-0.209,1.156,-0.048
19.06,-0.051,0.944,0.041
19.07,-0.13,0.81,0.12
19.08,-0.292,1.015,-0.016
19.09,-0.356,0.945,-0.221
19.1,-0.084,1.14,0.027
19.11,-0.109,0.817,0.168
19.12,-0.217,0.955,0.037
19.13,-0.385,0.847,-0.164
19.14,-0.086,1.196,-0.06
19.15,-0.131,0.878,0.079
19.16,-0.17,0.754,0.181
19.17,-0.315,1.148,-0.089
19.18,-0.3,0.834,-0.18
19.19,-0.176,1.217,0.155
19.2,-0.071,0.731,0.116
19.21,-0.239,0.993,0.007
19.22,-0.37,0.993,-0.177
19.23,-0.112,1.072,-0.041
19.24,-0.246,0.936,0.133
19.25,-0.068,0.786,0.163
19.26,-0.447,1.153,-0.186
19.27,-0.253,0.788,-0.094
19.28,-0.001,1.356,0.085
19.29,-0.098,0.659,0.108
19.3,-0.316,1.106,0.03
19.31,-0.279,0.942,-0.238
19.32,-0.195,1.068,0.017
19.33,-0.084,0.924,0.182
19.34,-0.177,0.822,0.027
19.35,-0.434,1.138,-0.167
19.36,-0.06,0.957,-0.038
19.37,-0.196,1.195,0.086
19.38,-0.198,0.627,0.233
19.39,-0.279,1.16,-0.098
19.4,-0.31,0.887,-0.207
19.41,-0.126,1.124,0.14
19.42,-0.088,0.981,0.07
19.43,-0.199,0.692,-0.016
19.44,-0.409,1.283,-0.133
19.45,-0.118,0.869,-0.047
19.46,-0.231,1.085,0.159
19.47,-0.027,0.748,0.162
19.48,-0.432,1.046,-0.203
19.49,-0.239,0.928,-0.086
19.5,-0.018,1.134,0.067
19.51,-0.183,0.906,0.067
19.52,-0.22,0.739,0.068
19.53,-0.449,1.357,-0.219
19.54,-0.092,0.731,-0.017
19.55,-0.162,1.154,0.219
19.56,-0.156,0.734,0.085
19.57,-0.513,1.011,-0.162
19.58,-0.116,1.125,-0.091
19.59,-0.061,0.882,0.044
19.6,-0.166,0.997,0.16
19.61,-0.209,0.753,-0.094
19.62,-0.414,1.188,-0.161
19.63,-0.123,0.862,0.126
19.64,-0.08,1.155,0.108
19.65,-0.133,0.73,0.011
19.66,-0.405,1.061,-0.15
19.67,-0.174,1.158,-0.062
19.68,-0.143,0.77,0.076
19.69,-0.14,1.042,0.158
19.7,-0.281,0.723,-0.138
19.71,-0.241,1.178,-0.165
19.72,-0.037,1.001,0.071
19.73,-0.188,0.895,0.12
19.74,-0.138,0.809,0.035
19.75,-0.392,1.133,-0.223
19.76,-0.083,1.117,-0.104
19.77,-0.17,0.753,0.183
19.78,-0.126,1.08,0.117
19.79,-0.351,0.752,-0.208
19.8,-0.247,1.142,-0.044
19.81,-0.063,0.98,0.041
19.82,-0.108,0.808,0.101
19.83,-0.28,0.986,-0.001
19.84,-0.309,0.955,-0.222
19.85,-0.118,1.102,-0.036
19.86,-0.153,0.802,0.189
19.87,-0.165,1.043,0.028
19.88,-0.396,0.793,-0.221
19.89,-0.077,1.18,-0.053
19.9,-0.073,1.052,0.066
19.91,-0.295,0.701,0.193
19.92,-0.253,1.078,-0.006
19.93,-0.281,0.882,-0.246
19.94,-0.221,1.234,0.141
19.95,-0.08,0.79,0.144
19.96,-0.208,0.965,0.052
19.97,-0.434,0.922,-0.11
19.98,-0.125,1.112,-0.117
19.99,-0.132,0.941,0.028
20.0,-0.065,0.725,0.204
20.01,-0.324,1.167,-0.106
20.02,-0.291,0.738,-0.175
20.03,-0.132,1.306,0.099
20.04,-0.083,0.77,0.087
20.05,-0.247,0.928,0.051
20.06,-0.317,1.032,-0.158
20.07,-0.239,0.975,-0.089
20.08,-0.143,1.003,0.125
20.09,-0.124,0.758,0.183
20.1,-0.441,1.094,-0.153
20.11,-0.209,0.744,-0.13
20.12,-0.063,1.356,-0.024
20.13,-0.103,0.618,0.117
20.14,-0.219,1.025,0.051
20.15,-0.396,1.048,-0.193
20.16,-0.13,0.971,-0.035
20.17,-0.185,0.965,0.167
20.18,-0.117,0.811,0.122
20.19,-0.432,1.127,-0.206
20.2,-0.159,0.802,-0.037
20.21,-0.142,1.32,0.076
20.22,-0.162,0.601,0.166
20.23,-0.274,1.003,0.046
20.24,-0.353,1.073,-0.242
20.25,-0.088,0.906,-0.013
20.26,-0.165,1.093,0.137
20.27,-0.031,0.679,0.08
20.28,-0.481,1.205,-0.159
20.29,-0.213,0.868,-0.01
20.3,-0.157,1.203,0.057
20.31,-0.088,0.668,0.156
20.32,-0.273,0.983,0.005
20.33,-0.445,1.071,-0.197
20.34,-0.14,0.855,0.01
20.35,-0.044,1.186,0.064
20.36,-0.17,0.631,0.068
20.37,-0.423,1.18,-0.142
20.38,-0.028,0.924,-0.104
20.39,-0.209,1.103,0.08
20.4,-0.1,0.771,0.207
20.41,-0.293,0.935,-0.093
20.42,-0.402,1.08,-0.187
20.43,-0.024,0.873,0.051
20.44,-0.151,1.237,0.129
20.45,-0.17,0.604,0.066
20.46,-0.419,1.225,-0.137
20.47,-0.116,1.021,-0.07
20.48,-0.198,0.997,0.085
20.49,-0.098,0.822,0.188
20.5,-0.311,0.856,-0.122
20.51,-0.385,1.146,-0.148
20.52,-0.061,0.905,0.071
20.53,-0.082,1.179,0.106
20.54,-0.151,0.597,0.04
20.55,-0.441,1.193,-0.198
20.56,-0.006,1.015,-0.094
20.57,-0.191,0.946,0.103
20.58,-0.104,0.941,0.197
20.59,-0.322,0.818,-0.16
20.6,-0.306,1.164,-0.171
20.61,-0.058,0.964,0.126
20.62,-0.128,1.109,0.112
20.63,-0.184,0.676,0.03
20.64,-0.365,1.229,-0.17
20.65,-0.127,1.016,-0.043
20.66,-0.282,0.831,0.171
20.67,-0.043,1.019,0.145
20.68,-0.355,0.753,-0.19
20.69,-0.297,1.243,-0.067
20.7,-0.0,0.932,0.041
20.71,-0.184,0.969,0.119
20.72,-0.271,0.788,0.049
20.73,-0.275,1.146,-0.215
20.74,-0.122,1.017,-0.046
20.75,-0.17,0.804,0.2
20.76,-0.131,1.065,0.091
20.77,-0.369,0.746,-0.208
20.78,-0.236,1.24,-0.036
20.79,-0.065,0.946,0.075
20.8,-0.145,0.888,0.147
20.81,-0.233,0.899,-0.004
20.82,-0.353,1.014,-0.212
20.83,-0.105,1.091,0.017
20.84,-0.15,0.825,0.219
20.85,-0.143,1.03,0.039
20.86,-0.396,0.779,-0.162
20.87,-0.19,1.227,-0.053
20.88,-0.102,0.89,0.053
20.89,-0.187,0.805,0.171
20.9,-0.259,1.062,-0.05
20.91,-0.315,0.921,-0.172
20.92,-0.225,1.136,0.046
20.93,-0.058,0.872,0.145
20.94,-0.211,1.002,0.008
20.95,-0.409,0.851,-0.146
20.96,-0.136,1.269,-0.081
20.97,-0.147,0.75,0.042
20.98,-0.134,0.952,0.185
20.99,-0.312,0.936,-0.176
21.0,-0.266,0.901,-0.159
21.01,-0.072,1.227,0.079
21.02,-0.08,0.753,0.159
21.03,-0.312,1.026,-0.003
21.04,-0.329,0.895,-0.155
21.05,-0.147,1.188,-0.029
21.06,-0.25,0.82,0.129
21.07,-0.035,0.904,0.18
21.08,-0.416,1.036,-0.12
21.09,-0.306,0.869,-0.044
21.1,-0.128,1.295,0.033
21.11,-0.126,0.608,0.148
21.12,-0.266,1.062,0.054
21.13,-0.34,1.001,-0.181
21.14,-0.144,1.076,-0.014
21.15,-0.225,0.844,0.182
21.16,-0.064,0.866,0.11
21.17,-0.421,1.091,-0.188
21.18,-0.249,0.862,-0.008
21.19,-0.176,1.322,0.083
21.2,-0.049,0.576,0.096
21.21,-0.313,1.102,0.029
21.22,-0.269,1.009,-0.236
21.23,-0.076,0.996,-0.056
21.24,-0.21,0.923,0.194
21.25,-0.09,0.759,0.057
21.26,-0.471,1.183,-0.193
21.27,-0.138,0.859,-0.039
21.28,-0.161,1.242,0.033
21.29,-0.121,0.633,0.157
21.3,-0.279,1.056,-0.051
21.31,-0.237,0.974,-0.275
21.32,-0.155,0.99,0.12
21.33,-0.128,1.093,0.149
21.34,-0.146,0.637,0.126
21.35,-0.42,1.214,-0.188
21.36,-0.099,0.877,-0.092
21.37,-0.178,1.184,0.09
21.38,-0.136,0.731,0.188
21.39,-0.303,1.024,-0.131
21.4,-0.293,0.982,-0.16
21.41,-0.138,1.004,0.142
21.42,-0.164,1.161,0.1
21.43,-0.113,0.617,0.032
21.44,-0.48,1.25,-0.137
21.45,-0.103,0.893,-0.08
21.46,-0.158,1.082,0.085
21.47,-0.107,0.811,0.204
21.48,-0.404,0.936,-0.125
21.49,-0.197,1.036,-0.173
21.5,-0.085,0.987,0.114
21.51,-0.117,1.114,0.135
21.52,-0.156,0.638,-0.002
21.53,-0.435,1.291,-0.151
21.54,-0.111,0.874,-0.074
21.55,-0.178,1.044,0.121
21.56,-0.111,0.856,0.187
21.57,-0.4,0.885,-0.137
21.58,-0.232,1.139,-0.144
21.59,-0.133,0.948,0.083
21.6,-0.117,1.057,0.11
21.61,-0.095,0.648,0.004
21.62,-0.499,1.294,-0.154
21.63,-0.095,0.936,-0.046
21.64,-0.159,0.936,0.117
21.65,-0.126,0.929,0.152
21.66,-0.4,0.836,-0.155
21.67,-0.253,1.179,-0.118
21.68,0.023,0.944,0.064
21.69,-0.15,1.025,0.111
21.7,-0.306,0.701,0.028
21.71,-0.273,1.192,-0.238
21.72,-0.098,0.982,-0.097
21.73,-0.21,0.856,0.197
21.74,-0.089,1.001,0.066
21.75,-0.5,0.875,-0.186
21.76,-0.101,1.191,-0.012
21.77,-0.054,0.877,0.05
21.78,-0.178,0.985,0.154
21.79,-0.233,0.774,-0.028
21.8,-0.374,1.198,-0.233
21.81,-0.133,0.908,0.038
21.82,-0.075,1.041,0.163
21.83,-0.165,0.865,0.04
21.84,-0.4,0.88,-0.139
21.85,-0.127,1.327,-0.06
21.86,-0.099,0.708,0.054
21.87,-0.174,1.015,0.188
21.88,-0.313,0.834,-0.105
21.89,-0.34,1.054,-0.174
21.9,-0.106,1.0,0.053
21.91,-0.037,0.951,0.145
21.92,-0.223,0.949,-0.007
21.93,-0.382,0.889,-0.149
21.94,-0.198,1.296,-0.049
21.95,-0.139,0.666,0.113
21.96,-0.161,1.028,0.188
21.97,-0.294,0.923,-0.132
21.98,-0.315,0.969,-0.162
21.99,-0.186,1.081,0.092
22.0,-0.04,0.797,0.144
22.01,-0.273,1.009,-0.003
22.02,-0.366,0.904,-0.149
22.03,-0.15,1.269,-0.033
22.04,-0.205,0.71,0.134
22.05,-0.112,1.002,0.152
22.06,-0.348,0.983,-0.187
22.07,-0.235,0.973,-0.123
22.08,-0.074,1.216,0.076
22.09,-0.088,0.635,0.144
22.1,-0.384,1.063,0.044
22.11,-0.292,0.921,-0.217
22.12,-0.111,1.143,-0.014
22.13,-0.246,0.798,0.197
22.14,-0.085,0.907,0.061
22.15,-0.359,1.011,-0.207
22.16,-0.227,0.962,-0.009
22.17,-0.146,1.195,0.069
22.18,-0.107,0.6,0.116
22.19,-0.288,1.125,0.012
22.2,-0.365,0.893,-0.248
22.21,-0.052,1.074,-0.017
22.22,-0.076,0.965,0.124
22.23,-0.145,0.789,0.04
22.24,-0.411,1.139,-0.145
22.25,-0.043,0.987,-0.09
22.26,-0.212,1.118,0.071
22.27,-0.076,0.648,0.194
22.28,-0.344,1.204,-0.096
22.29,-0.251,0.804,-0.215
22.3,-0.086,1.157,0.123
22.31,-0.138,0.955,0.138
22.32,-0.206,0.698,0.034
22.33,-0.395,1.251,-0.189
22.34,-0.107,0.842,-0.087
22.35,-0.241,1.129,0.133
22.36,-0.117,0.717,0.193
22.37,-0.406,1.095,-0.135
22.38,-0.299,0.905,-0.164
22.39,-0.076,1.119,0.095
22.4,-0.063,1.003,0.067
22.41,-0.217,0.663,0.015
22.42,-0.418,1.344,-0.141
22.43,-0.121,0.879,-0.059
22.44,-0.186,1.059,0.09
22.45,-0.005,0.795,0.177
22.46,-0.502,1.035,-0.159
22.47,-0.21,0.93,-0.13
22.48,-0.026,1.112,0.077
22.49,-0.156,0.939,0.074
22.5,-0.188,0.687,0.062
22.51,-0.414,1.378,-0.212
22.52,-0.11,0.746,-0.054
22.53,-0.165,1.113,0.224
22.54,-0.055,0.812,0.048
22.55,-0.483,0.948,-0.236
22.56,-0.103,1.032,-0.079
22.57,-0.124,0.992,0.062
22.58,-0.176,0.887,0.171
22.59,-0.282,0.779,-0.02
22.6,-0.365,1.218,-0.21
22.61,-0.127,0.809,0.05
22.62,-0.089,1.192,0.169
22.63,-0.141,0.667,0.018
22.64,-0.476,1.083,-0.147
22.65,-0.051,1.134,-0.029
22.66,-0.178,0.875,0.063
22.67,-0.171,0.954,0.202
22.68,-0.248,0.802,-0.1
22.69,-0.45,1.213,-0.145
22.7,-0.117,0.856,0.109
22.71,0.011,1.156,0.077
22.72,-0.295,0.706,-0.019
22.73,-0.386,1.054,-0.1
22.74,-0.062,1.17,-0.088
22.75,-0.2,0.758,0.128
22.76,-0.089,1.084,0.179
22.77,-0.342,0.77,-0.198
22.78,-0.351,1.132,-0.151
22.79,-0.023,0.986,0.122
22.8,-0.152,0.983,0.091
22.81,-0.305,0.798,-0.0
22.82,-0.263,1.075,-0.14
22.83,-0.112,1.21,-0.049
22.84,-0.257,0.662,0.162
22.85,0.015,1.056,0.108
22.86,-0.423,0.816,-0.204
22.87,-0.277,1.111,-0.071
22.88,-0.007,1.023,0.103
22.89,-0.195,0.776,0.121
22.9,-0.289,0.936,0.018
22.91,-0.238,0.988,-0.196
22.92,-0.169,1.175,0.041
22.93,-0.115,0.755,0.208
22.94,-0.107,1.064,0.034
22.95,-0.371,0.858,-0.181
22.96,-0.233,1.13,-0.002
22.97,-0.086,0.975,0.06
22.98,-0.189,0.77,0.149
22.99,-0.342,1.067,-0.045
23.0,-0.21,0.872,-0.226
23.01,-0.161,1.229,0.009
23.02,-0.029,0.736,0.172
23.03,-0.214,0.991,0.013
23.04,-0.357,0.921,-0.19
23.05,-0.085,1.09,-0.088
23.06,-0.177,0.949,0.1
23.07,-0.135,0.715,0.169
23.08,-0.365,1.179,-0.131
23.09,-0.296,0.788,-0.123
23.1,-0.176,1.226,0.112
23.11,-0.042,0.778,0.143
23.12,-0.265,0.958,0.008
23.13,-0.405,1.018,-0.135
23.14,-0.111,1.046,-0.017
23.15,-0.208,0.966,0.092
23.16,-0.105,0.73,0.149
23.17,-0.399,1.229,-0.154
23.18,-0.296,0.816,-0.11
23.19,-0.031,1.219,0.09
23.2,-0.107,0.721,0.125
23.21,-0.374,0.914,0.02
23.22,-0.314,1.111,-0.245
23.23,-0.047,0.913,-0.027
23.24,-0.228,1.111,0.181
23.25,-0.005,0.7,0.054
23.26,-0.493,1.212,-0.207
23.27,-0.107,0.852,-0.029
23.28,-0.104,1.162,0.077
23.29,-0.143,0.76,0.123
23.3,-0.306,0.923,-0.028
23.31,-0.352,1.155,-0.2
23.32,-0.066,0.823,0.056
23.33,-0.156,1.208,0.167
23.34,-0.167,0.6,0.023
23.35,-0.444,1.223,-0.164
23.36,-0.045,1.015,-0.051
23.37,-0.18,1.075,0.085
23.38,-0.049,0.774,0.146
23.39,-0.474,1.029,-0.165
23.4,-0.279,0.992,-0.14
23.41,0.029,0.998,0.059
23.42,-0.138,1.007,0.124
23.43,-0.248,0.665,-0.022
23.44,-0.316,1.319,-0.152
23.45,-0.096,0.87,0.034
23.46,-0.228,1.072,0.145
23.47,-0.055,0.815,0.079
23.48,-0.476,0.981,-0.159
23.49,-0.177,1.134,-0.035
23.5,-0.047,0.914,0.096
23.51,-0.22,0.992,0.115
23.52,-0.265,0.707,-0.069
23.53,-0.295,1.236,-0.188
23.54,-0.103,0.892,0.044
23.55,-0.143,1.012,0.174
23.56,-0.135,0.817,-0.009
23.57,-0.498,0.925,-0.176
23.58,-0.114,1.216,-0.027
23.59,-0.127,0.802,0.115
23.6,-0.215,1.001,0.134
23.61,-0.252,0.781,-0.112
23.62,-0.355,1.164,-0.11
23.63,-0.131,0.939,0.103
23.64,-0.03,0.954,0.105
23.65,-0.338,0.916,-0.033
23.66,-0.409,0.903,-0.133
23.67,-0.013,1.278,-0.064
23.68,-0.203,0.669,0.124
23.69,-0.088,1.056,0.164
23.7,-0.387,0.923,-0.216
23.71,-0.346,1.05,-0.065
23.72,0.074,1.046,0.066
23.73,-0.18,0.749,0.101
23.74,-0.395,1.056,0.044
23.75,-0.228,0.927,-0.19
23.76,-0.215,1.184,0.002
23.77,-0.048,0.718,0.175
23.78,-0.113,0.985,0.005
23.79,-0.504,0.934,-0.157
23.8,-0.12,1.051,-0.045
23.81,-0.165,1.042,0.05
23.82,-0.119,0.692,0.172
23.83,-0.333,1.127,-0.131
23.84,-0.273,0.847,-0.15
23.85,-0.061,1.286,0.107
23.86,-0.049,0.707,0.129
23.87,-0.331,0.936,0.028
23.88,-0.3,1.084,-0.175
23.89,-0.115,0.966,-0.005
23.9,-0.245,1.034,0.156
23.91,-0.049,0.71,0.105
23.92,-0.469,1.171,-0.217
23.93,-0.182,0.851,-0.058
23.94,-0.116,1.235,0.079
23.95,-0.138,0.695,0.125
23.96,-0.26,0.955,-0.052
23.97,-0.304,1.157,-0.204
23.98,-0.1,0.865,0.022
23.99,-0.167,1.155,0.184
24.0,-0.109,0.654,0.04
24.01,-0.447,1.199,-0.202
24.02,-0.14,0.962,-0.048
24.03,-0.132,1.084,0.063
24.04,-0.182,0.774,0.149
24.05,-0.28,0.906,-0.08
24.06,-0.31,1.156,-0.192
24.07,-0.092,0.858,0.111
24.08,-0.124,1.155,0.158
24.09,-0.25,0.615,-0.01
24.1,-0.391,1.215,-0.094
24.11,-0.128,0.983,-0.009
24.12,-0.291,0.955,0.207
24.13,-0.062,0.931,0.149
24.14,-0.383,0.856,-0.193
24.15,-0.335,1.206,-0.041
24.16,0.009,0.927,0.092
24.17,-0.199,0.984,0.118
24.18,-0.206,0.72,0.004
24.19,-0.33,1.294,-0.249
24.2,-0.142,0.843,0.03
24.21,-0.119,1.078,0.184
24.22,-0.175,0.77,0.014
24.23,-0.467,0.979,-0.133
24.24,-0.115,1.233,-0.097
24.25,-0.1,0.732,0.075
24.26,-0.203,1.032,0.199
24.27,-0.26,0.805,-0.168
24.28,-0.275,1.135,-0.171
24.29,-0.047,0.962,0.089
24.3,-0.111,0.947,0.146
24.31,-0.256,0.876,0.011
24.32,-0.404,1.005,-0.116
24.33,-0.166,1.191,-0.017
24.34,-0.196,0.704,0.141
24.35,-0.12,1.053,0.131
24.36,-0.34,0.823,-0.21
24.37,-0.248,1.144,-0.082
24.38,-0.031,1.032,0.069
24.39,-0.086,0.724,0.163
24.4,-0.315,1.028,0.031
24.41,-0.318,0.97,-0.206
24.42,-0.141,1.149,0.006
24.43,-0.132,0.816,0.199
24.44,-0.133,0.998,0.055
24.45,-0.393,0.858,-0.229
24.46,-0.1,1.13,-0.004
24.47,-0.155,1.004,0.096
24.48,-0.177,0.72,0.193
24.49,-0.303,1.142,-0.087
24.5,-0.296,0.795,-0.206
24.51,-0.173,1.254,0.128
24.52,-0.058,0.772,0.126
24.53,-0.281,0.947,0.024
24.54,-0.385,1.0,-0.161
24.55,-0.107,1.017,-0.025
24.56,-0.224,0.982,0.11
24.57,-0.016,0.712,0.169
24.58,-0.507,1.205,-0.177
24.59,-0.262,0.75,-0.136
24.6,-0.008,1.309,0.101
24.61,-0.144,0.729,0.087
24.62,-0.319,0.935,0.031
24.63,-0.289,1.104,-0.247
24.64,-0.072,0.868,-0.0
24.65,-0.209,1.115,0.151
24.66,-0.031,0.676,0.107
24.67,-0.437,1.181,-0.242
24.68,-0.16,0.905,-0.013
24.69,-0.143,1.153,0.077
24.7,-0.154,0.728,0.189
24.71,-0.197,0.921,-0.094
24.72,-0.36,1.177,-0.17
24.73,-0.142,0.868,0.076
24.74,-0.12,1.179,0.128
24.75,-0.148,0.597,0.074
24.76,-0.461,1.248,-0.171
24.77,-0.078,0.943,-0.077
24.78,-0.171,0.993,0.055
24.79,-0.087,0.885,0.227
24.8,-0.342,0.827,-0.135
24.81,-0.303,1.118,-0.179
24.82,-0.056,0.945,0.115
24.83,-0.211,1.104,0.118
24.84,-0.186,0.642,0.029
24.85,-0.378,1.286,-0.195
24.86,-0.085,0.948,-0.063
24.87,-0.252,0.97,0.191
24.88,-0.065,0.928,0.111
24.89,-0.383,0.757,-0.19
24.9,-0.294,1.244,-0.018
24.91,-0.036,0.897,0.058
24.92,-0.179,0.994,0.106
24.93,-0.259,0.717,0.051
24.94,-0.342,1.177,-0.221
24.95,-0.086,0.978,-0.043
24.96,-0.115,0.918,0.181
24.97,-0.177,0.96,0.107
24.98,-0.369,0.779,-0.175
24.99,-0.241,1.303,-0.026
25.0,-0.149,0.785,0.117
25.01,-0.209,1.041,0.211
25.02,-0.232,0.773,-0.118
25.03,-0.373,1.12,-0.188
25.04,-0.141,1.001,0.12
25.05,-0.066,1.032,0.13
25.06,-0.231,0.855,0.049
25.07,-0.392,0.883,-0.143
25.08,-0.062,1.314,-0.141
25.09,-0.148,0.664,0.059
25.1,-0.129,1.045,0.164
25.11,-0.356,0.856,-0.193
25.12,-0.332,1.043,-0.132
25.13,0.014,1.122,0.04
25.14,-0.143,0.756,0.133
25.15,-0.283,0.977,0.057
25.16,-0.351,0.957,-0.182
25.17,-0.142,1.133,-0.074
25.18,-0.151,0.764,0.195
25.19,-0.157,1.012,0.106
25.2,-0.379,0.88,-0.184
25.21,-0.27,1.03,-0.019
25.22,-0.077,1.142,0.055
25.23,-0.083,0.691,0.12
25.24,-0.261,1.093,-0.023
25.25,-0.337,0.888,-0.202
25.26,-0.171,1.15,-0.023
25.27,-0.106,0.832,0.156
25.28,-0.146,0.937,0.045
25.29,-0.378,0.955,-0.181
25.3,-0.119,1.012,-0.038
25.31,-0.221,1.129,0.061
25.32,-0.049,0.583,0.148
25.33,-0.311,1.159,-0.038
25.34,-0.294,0.817,-0.236
25.35,-0.185,1.158,0.049
25.36,-0.089,0.943,0.128
25.37,-0.128,0.812,0.051
25.38,-0.406,1.07,-0.182
25.39,-0.063,0.994,-0.071
25.4,-0.16,1.128,0.05
25.41,-0.147,0.646,0.196
25.42,-0.312,1.207,-0.111
25.43,-0.27,0.801,-0.212
25.44,-0.187,1.187,0.169
25.45,-0.163,0.933,0.168
25.46,-0.233,0.757,0.003
25.47,-0.422,1.221,-0.146
25.48,-0.036,0.896,-0.07
25.49,-0.197,1.125,0.097
25.5,-0.069,0.714,0.203
25.51,-0.419,1.115,-0.158
25.52,-0.269,0.841,-0.2
25.53,-0.07,1.182,0.081
25.54,-0.134,0.922,0.088
25.55,-0.255,0.729,0.052
25.56,-0.434,1.291,-0.175
25.57,-0.054,0.808,-0.019
25.58,-0.225,1.178,0.129
25.59,-0.073,0.74,0.169
25.6,-0.395,1.051,-0.188
25.61,-0.217,0.947,-0.16
25.62,-0.023,1.074,0.047
25.63,-0.104,0.945,0.085
25.64,-0.282,0.709,0.078
25.65,-0.422,1.32,-0.236
25.66,-0.02,0.764,-0.038
25.67,-0.193,1.199,0.167
25.68,-0.092,0.751,0.104
25.69,-0.397,0.96,-0.206
25.7,-0.157,1.134,-0.033
25.71,-0.162,0.922,0.063
25.72,-0.12,0.944,0.16
25.73,-0.202,0.74,-0.02
25.74,-0.504,1.268,-0.197
25.75,-0.156,0.799,0.068
25.76,-0.124,1.147,0.113
25.77,-0.15,0.77,0.062
25.78,-0.366,0.945,-0.164
25.79,-0.117,1.211,-0.085
25.8,-0.076,0.785,0.05
25.81,-0.207,1.023,0.173
25.82,-0.28,0.801,-0.108
25.83,-0.4,1.175,-0.157
25.84,-0.064,0.901,0.114
25.85,-0.173,1.17,0.136
25.86,-0.204,0.658,0.001
25.87,-0.419,1.123,-0.101
25.88,-0.07,1.156,-0.101
25.89,-0.182,0.78,0.105
25.9,-0.185,1.034,0.202
25.91,-0.327,0.76,-0.147
25.92,-0.247,1.174,-0.165
25.93,-0.095,0.963,0.121
25.94,-0.159,0.999,0.145
25.95,-0.164,0.791,0.002
25.96,-0.434,1.089,-0.131
25.97,-0.141,1.12,-0.061
25.98,-0.226,0.745,0.145
25.99,-0.116,1.065,0.157
26.0,-0.334,0.76,-0.164
26.01,-0.292,1.135,-0.098
26.02,-0.024,0.969,0.057
26.03,-0.15,0.9,0.145
26.04,-0.332,0.909,0.039
26.05,-0.353,0.984,-0.174
26.06,-0.146,1.105,-0.067
26.07,-0.15,0.775,0.2
26.08,-0.151,1.048,0.09
26.09,-0.33,0.778,-0.178
26.1,-0.226,1.14,-0.04
26.11,-0.067,1.032,0.042
26.12,-0.146,0.761,0.155
26.13,-0.257,1.006,0.007
26.14,-0.337,0.975,-0.229
26.15,-0.169,1.123,-0.028
26.16,-0.121,0.749,0.198
26.17,-0.149,1.038,0.112
26.18,-0.381,0.854,-0.196
26.19,-0.158,1.064,-0.085
26.2,-0.074,1.083,0.029
26.21,-0.104,0.646,0.116
26.22,-0.281,1.122,0.003
26.23,-0.307,0.937,-0.229
26.24,-0.153,1.138,-0.038
26.25,-0.104,0.812,0.209
26.26,-0.199,0.997,0.05
26.27,-0.349,0.886,-0.225
26.28,-0.145,1.049,-0.027
26.29,-0.149,1.108,0.052
26.3,-0.137,0.616,0.125
26.31,-0.278,1.153,-0.043
26.32,-0.286,0.832,-0.212
26.33,-0.162,1.18,0.045
26.34,-0.057,0.849,0.107
26.35,-0.224,0.896,0.059
26.36,-0.325,1.035,-0.171
26.37,-0.16,1.015,-0.085
26.38,-0.173,1.059,0.048
26.39,-0.038,0.642,0.153
26.4,-0.39,1.208,-0.109
26.41,-0.265,0.759,-0.208
26.42,-0.12,1.177,0.121
26.43,-0.093,0.911,0.151
26.44,-0.237,0.811,0.042
26.45,-0.344,1.141,-0.202
26.46,-0.153,0.94,-0.058
26.47,-0.149,1.129,0.1
26.48,-0.109,0.686,0.151
26.49,-0.383,1.183,-0.113
26.5,-0.244,0.838,-0.195
26.51,-0.042,1.187,0.095
26.52,-0.161,0.891,0.129
26.53,-0.177,0.756,0.028
26.54,-0.404,1.239,-0.147
26.55,-0.134,0.866,-0.066
26.56,-0.173,1.106,0.105
26.57,-0.086,0.727,0.147
26.58,-0.418,1.102,-0.18
26.59,-0.186,0.866,-0.171
26.6,-0.085,1.116,0.109
26.61,-0.137,0.922,0.123
26.62,-0.228,0.678,-0.032
26.63,-0.299,1.196,-0.216
26.64,-0.129,0.821,-0.054
26.65,-0.257,1.107,0.236
26.66,-0.123,0.699,0.102
26.67,-0.497,1.146,-0.206
26.68,-0.164,0.923,-0.023
26.69,-0.087,1.156,0.068
26.7,-0.097,0.784,0.154
26.71,-0.227,0.854,-0.033
26.72,-0.39,1.198,-0.201
26.73,-0.141,0.81,0.07
26.74,-0.147,1.301,0.147
26.75,-0.151,0.621,0.059
26.76,-0.442,1.131,-0.139
26.77,-0.058,1.077,-0.112
26.78,-0.201,0.991,0.107
26.79,-0.08,0.84,0.184
26.8,-0.303,0.831,-0.081
26.81,-0.365,1.176,-0.164
26.82,-0.08,0.873,0.073
26.83,-0.164,1.163,0.132
26.84,-0.119,0.668,0.035
26.85,-0.493,1.167,-0.185
26.86,-0.075,1.073,-0.098
26.87,-0.158,0.891,0.014
26.88,-0.115,0.982,0.15
26.89,-0.293,0.791,-0.105
26.9,-0.381,1.168,-0.146
26.91,-0.013,0.894,0.061
26.92,-0.117,1.093,0.114
26.93,-0.191,0.734,0.013
26.94,-0.435,1.108,-0.115
26.95,-0.103,1.087,-0.078
26.96,-0.147,0.796,0.095
26.97,-0.176,1.031,0.199
26.98,-0.353,0.776,-0.168
26.99,-0.291,1.177,-0.143
27.0,-0.004,0.949,0.06
27.01,-0.127,0.953,0.119
27.02,-0.411,1.204,-0.192
27.03,-0.077,0.84,-0.115
27.04,-0.122,1.189,0.071
27.05,-0.078,0.655,0.211
27.06,-0.401,1.109,-0.068
27.07,-0.273,0.828,-0.156
27.08,-0.135,1.102,0.057
27.09,-0.179,1.004,0.122
27.1,-0.068,0.69,0.032
27.11,-0.36,1.224,-0.182
27.12,-0.063,0.919,-0.059
27.13,-0.122,1.157,0.069
27.14,-0.133,0.683,0.209
27.15,-0.41,1.085,-0.099
27.16,-0.25,0.932,-0.148
27.17,-0.138,1.062,0.1
27.18,-0.15,1.028,0.116
27.19,-0.147,0.68,0.016
27.2,-0.48,1.263,-0.18
27.21,-0.045,0.893,-0.069
27.22,-0.133,1.113,0.086
27.23,-0.114,0.753,0.156
27.24,-0.372,1.033,-0.126
27.25,-0.225,0.989,-0.152
27.26,-0.098,1.011,0.055
27.27,-0.136,1.076,0.113
27.28,-0.178,0.655,0.014
27.29,-0.473,1.271,-0.155
27.3,-0.047,0.888,-0.045
27.31,-0.219,1.08,0.127
27.32,-0.149,0.763,0.211
27.33,-0.339,1.004,-0.167
27.34,-0.279,1.056,-0.173
27.35,-0.038,1.14,0.106
27.36,-0.152,0.933,0.103
27.37,-0.27,0.682,0.023
27.38,-0.295,1.316,-0.164
27.39,-0.146,0.782,-0.035
27.4,-0.223,1.092,0.164
27.41,-0.017,0.76,0.095
27.42,-0.495,1.018,-0.204
27.43,-0.211,0.979,-0.061
27.44,0.021,1.064,0.059
27.45,-0.219,0.978,0.14
27.46,-0.271,0.699,0.03
27.47,-0.311,1.305,-0.197
27.48,-0.099,0.828,-0.009
27.49,-0.183,1.086,0.199
27.5,-0.061,0.792,0.063
27.51,-0.437,1.038,-0.176
27.52,-0.212,1.094,-0.076
27.53,-0.012,0.858,0.092
27.54,-0.133,1.025,0.131
27.55,-0.317,0.742,-0.069
27.56,-0.267,1.192,-0.161
27.57,-0.118,0.939,0.044
27.58,-0.19,1.018,0.196
27.59,-0.056,0.856,0.054
27.6,-0.445,0.971,-0.198
27.61,-0.154,1.202,-0.047
27.62,-0.139,0.847,0.115
27.63,-0.149,0.959,0.147
27.64,-0.271,0.77,-0.082
27.65,-0.296,1.187,-0.16
27.66,-0.119,0.95,0.069
27.67,-0.208,0.942,0.172
27.68,-0.085,0.88,0.005
27.69,-0.373,0.947,-0.187
27.7,-0.166,1.201,-0.081
27.71,-0.052,0.776,0.07
27.72,-0.111,1.034,0.139
27.73,-0.345,0.79,-0.106
27.74,-0.235,1.072,-0.116
27.75,-0.136,1.083,0.045
27.76,-0.129,0.822,0.143
27.77,-0.153,0.961,0.041
27.78,-0.409,0.929,-0.175
27.79,-0.101,1.266,-0.063
27.8,-0.042,0.729,0.09
27.81,-0.199,1.016,0.138
27.82,-0.347,0.874,-0.159
27.83,-0.235,1.024,-0.093
27.84,-0.128,1.179,0.042
27.85,-0.144,0.676,0.163
27.86,-0.255,1.082,0.009
27.87,-0.314,0.9,-0.205
27.88,-0.12,1.195,-0.02
27.89,-0.112,0.809,0.144
27.9,-0.097,0.97,0.059
27.91,-0.377,0.953,-0.142
27.92,-0.271,0.98,-0.026
27.93,-0.115,1.215,0.069
27.94,-0.094,0.615,0.117
27.95,-0.307,1.125,0.022
27.96,-0.381,0.904,-0.21
27.97,-0.072,1.11,-0.036
27.98,-0.098,0.85,0.136
27.99,-0.166,0.891,0.055
28.0,-0.345,1.044,-0.187
28.01,-0.216,0.935,-0.025
28.02,-0.119,1.189,0.081
28.03,-0.135,0.592,0.137
28.04,-0.284,1.142,-0.069
28.05,-0.271,0.899,-0.184
28.06,-0.202,1.066,0.055
28.07,-0.133,0.925,0.176
28.08,-0.07,0.822,0.043
28.09,-0.502,1.117,-0.177
28.1,-0.062,0.892,-0.044
28.11,-0.135,1.21,0.056
28.12,-0.157,0.651,0.214
28.13,-0.32,1.122,-0.1
28.14,-0.298,0.922,-0.172
28.15,-0.136,1.083,0.097
28.16,-0.093,0.793,0.107
28.17,-0.188,0.86,0.003
28.18,-0.45,1.175,-0.133
28.19,-0.175,0.878,-0.015
28.2,-0.163,1.04,0.13
28.21,-0.081,0.744,0.143
28.22,-0.457,1.186,-0.147
28.23,-0.243,0.797,-0.088
28.24,-0.135,1.233,0.118
28.25,-0.12,0.774,0.113
28.26,-0.312,0.838,0.012
28.27,-0.353,1.249,-0.2
28.28,-0.068,0.806,-0.004
28.29,-0.248,1.134,0.18
28.3,-0.072,0.711,0.076
28.31,-0.429,1.215,-0.214
28.32,-0.182,0.85,0.016
28.33,-0.102,1.168,0.116
28.34,-0.16,0.709,0.108
28.35,-0.291,0.989,-0.049
28.36,-0.234,1.125,-0.21
28.37,-0.17,0.892,0.065
28.38,-0.101,1.121,0.168
28.39,-0.098,0.646,-0.009
28.4,-0.474,1.195,-0.166
28.41,-0.061,0.913,-0.02
28.42,-0.117,1.093,0.073
28.43,-0.227,0.771,0.161
28.44,-0.292,0.959,-0.103
28.45,-0.236,1.175,-0.177
28.46,-0.161,0.88,0.101
28.47,-0.09,1.106,0.121
28.48,-0.198,0.655,-0.033
28.49,-0.436,1.238,-0.138
28.5,-0.042,0.968,-0.064
28.51,-0.161,0.953,0.104
28.52,-0.131,0.902,0.173
28.53,-0.363,0.895,-0.183
28.54,-0.263,1.148,-0.116
28.55,-0.086,0.897,0.145
28.56,-0.13,1.037,0.134
28.57,-0.261,0.689,-0.044
28.58,-0.307,1.231,-0.178
28.59,-0.127,0.972,-0.013
28.6,-0.177,0.924,0.168
28.61,-0.115,0.918,0.074
28.62,-0.418,0.861,-0.156
28.63,-0.213,1.249,-0.03
28.64,-0.01,0.831,0.043
28.65,-0.192,0.984,0.151
28.66,-0.224,0.784,-0.038
28.67,-0.361,1.141,-0.185
28.68,-0.08,1.021,0.031
28.69,-0.004,0.873,0.125
28.7,-0.256,0.974,0.038
28.71,-0.391,0.823,-0.198
28.72,-0.062,1.268,-0.075
28.73,-0.155,0.749,0.1
28.74,-0.111,0.961,0.146
28.75,-0.28,0.908,-0.147
28.76,-0.386,0.971,-0.105
28.77,-0.116,1.117,0.137
28.78,-0.065,0.775,0.127
28.79,-0.317,1.011,0.006
28.8,-0.368,0.927,-0.156
28.81,-0.189,1.229,-0.027
28.82,-0.148,0.729,0.112
28.83,-0.067,0.997,0.151
28.84,-0.41,0.979,-0.188
28.85,-0.304,0.898,-0.055
28.86,-0.011,1.229,0.069
28.87,-0.164,0.643,0.131
28.88,-0.264,1.095,0.051
28.89,-0.265,0.958,-0.249
28.9,-0.19,1.14,0.027
28.91,-0.163,0.824,0.18
28.92,-0.102,0.884,0.066
28.93,-0.444,1.075,-0.223
28.94,-0.074,0.898,-0.009
28.95,-0.182,1.212,0.113
28.96,-0.178,0.619,0.165
28.97,-0.273,1.153,-0.066
28.98,-0.333,0.792,-0.157
28.99,-0.037,1.258,0.122
29.0,-0.116,0.768,0.144
29.01,-0.316,0.905,0.03
29.02,-0.324,1.1,-0.182
29.03,-0.17,0.961,-0.028
29.04,-0.24,1.016,0.184
29.05,-0.071,0.72,0.108
29.06,-0.465,1.149,-0.179
29.07,-0.196,0.851,-0.051
29.08,-0.108,1.264,0.066
29.09,-0.171,0.67,0.156
29.1,-0.191,0.91,0.016
29.11,-0.382,1.146,-0.246
29.12,-0.038,0.854,0.016
29.13,-0.153,1.197,0.15
29.14,-0.145,0.595,0.09
29.15,-0.459,1.187,-0.168
29.16,-0.093,0.957,-0.054
29.17,-0.182,1.109,0.075
29.18,-0.076,0.751,0.164
29.19,-0.292,0.898,-0.048
29.2,-0.37,1.169,-0.199
29.21,-0.094,0.847,0.077
29.22,-0.16,1.228,0.131
29.23,-0.199,0.609,0.049
29.24,-0.405,1.187,-0.162
29.25,-0.101,1.056,-0.126
29.26,-0.146,0.909,0.025
29.27,-0.099,0.919,0.17
29.28,-0.335,0.836,-0.128
29.29,-0.345,1.14,-0.154
29.3,0.055,0.939,0.068
29.31,-0.201,1.065,0.133
29.32,-0.226,0.679,0.087
29.33,-0.379,1.25,-0.197
29.34,-0.131,0.955,-0.13
29.35,-0.167,0.846,0.192
29.36,-0.03,1.024,0.129
29.37,-0.382,0.757,-0.19
29.38,-0.246,1.192,-0.094
29.39,0.019,0.937,0.088
29.4,-0.214,0.981,0.123
29.41,-0.215,0.783,0.042
29.42,-0.354,1.177,-0.234
29.43,-0.135,0.981,-0.068
29.44,-0.077,0.868,0.19
29.45,-0.167,1.029,0.058
29.46,-0.416,0.744,-0.173
29.47,-0.14,1.302,-0.034
29.48,-0.106,0.894,0.055
29.49,-0.238,0.851,0.158
29.5,-0.12,0.927,-0.04
29.51,-0.414,1.07,-0.208
29.52,-0.189,1.059,0.066
29.53,-0.008,0.875,0.15
29.54,-0.178,0.984,0.015
29.55,-0.373,0.802,-0.136
29.56,-0.156,1.27,-0.109
29.57,-0.147,0.771,0.077
29.58,-0.143,0.943,0.238
29.59,-0.344,0.999,-0.1
29.6,-0.238,0.845,-0.184
29.61,-0.137,1.268,0.076
29.62,-0.148,0.704,0.151
29.63,-0.208,1.048,0.061
29.64,-0.411,0.923,-0.19
29.65,-0.141,1.107,-0.076
29.66,-0.153,0.857,0.143
29.67,-0.129,0.854,0.18
29.68,-0.376,1.049,-0.149
29.69,-0.169,0.804,-0.141
29.7,-0.183,1.354,0.137
29.71,-0.092,0.686,0.102
29.72,-0.209,1.023,0.02
29.73,-0.415,0.954,-0.161
29.74,-0.157,1.091,-0.045
29.75,-0.137,0.91,0.107
29.76,-0.163,0.802,0.17
29.77,-0.435,1.105,-0.162
29.78,-0.174,0.787,-0.134
29.79,-0.12,1.224,0.061
29.8,-0.074,0.605,0.13
29.81,-0.371,1.121,0.025
29.82,-0.294,0.891,-0.219
29.83,-0.152,1.092,0.012
29.84,-0.189,0.904,0.145
29.85,-0.1,0.834,0.06
29.86,-0.385,1.102,-0.218
29.87,-0.16,0.902,-0.059
29.88,-0.084,1.129,0.059
29.89,-0.105,0.658,0.183
29.9,-0.294,1.159,-0.087
29.91,-0.35,0.827,-0.171
29.92,-0.199,1.069,0.12
29.93,-0.089,1.025,0.134
29.94,-0.177,0.752,-0.016
29.95,-0.399,1.158,-0.207
29.96,-0.024,0.9,-0.076
29.97,-0.156,1.184,0.086
29.98,-0.127,0.668,0.184
29.99,-0.258,1.136,-0.149
30.0,-0.263,0.91,-0.164
30.01,-0.154,1.093,0.12
30.02,-0.07,0.971,0.082
30.03,-0.237,0.681,0.018
30.04,-0.423,1.305,-0.163
30.05,-0.033,0.852,-0.06
30.06,-0.259,1.135,0.14
30.07,-0.01,0.734,0.147
30.08,-0.44,1.04,-0.178
30.09,-0.229,0.935,-0.118
30.1,-0.05,1.072,0.004
30.11,-0.147,0.968,0.115
30.12,-0.17,0.715,0.047
30.13,-0.407,1.294,-0.236
30.14,-0.164,0.768,-0.01
30.15,-0.174,1.129,0.174
30.16,-0.068,0.778,0.08
30.17,-0.439,0.956,-0.167
30.18,-0.207,1.064,-0.108
30.19,-0.011,1.004,0.06
30.2,-0.206,0.987,0.125
30.21,-0.22,0.674,0.015
30.22,-0.352,1.328,-0.211
30.23,-0.169,0.826,0.002
30.24,-0.153,1.054,0.179
30.25,-0.109,0.846,0.076
30.26,-0.458,0.885,-0.157
30.27,-0.182,1.179,-0.07
30.28,0.008,0.933,0.079
30.29,-0.247,0.988,0.148
30.3,-0.179,0.723,0.008
30.31,-0.339,1.29,-0.243
30.32,-0.121,0.875,-0.027
30.33,-0.084,1.033,0.19
30.34,-0.177,0.905,0.042
30.35,-0.462,0.832,-0.114
30.36,-0.143,1.272,-0.054
30.37,-0.066,0.795,0.066
30.38,-0.249,0.968,0.141
30.39,-0.205,0.79,-0.001
30.4,-0.37,1.215,-0.191
30.41,-0.119,0.931,-0.026
30.42,-0.023,0.944,0.163
30.43,-0.185,0.943,0.001
30.44,-0.394,0.844,-0.2
30.45,-0.056,1.259,-0.016
30.46,-0.21,0.756,0.104
30.47,-0.199,0.967,0.196
30.48,-0.198,0.913,-0.122
30.49,-0.344,1.028,-0.17
30.5,-0.07,1.06,0.105
30.51,-0.031,0.88,0.12
30.52,-0.344,0.98,0.018
30.53,-0.369,0.868,-0.115
30.54,-0.166,1.305,-0.043
30.55,-0.199,0.706,0.105
30.56,-0.074,0.971,0.191
30.57,-0.291,0.915,-0.208
30.58,-0.3,0.976,-0.093
30.59,-0.111,1.145,0.089
30.6,-0.1,0.686,0.142
30.61,-0.26,0.995,-0.009
30.62,-0.313,0.964,-0.178
30.63,-0.117,1.165,-0.031
30.64,-0.227,0.717,0.163
30.65,-0.046,1.052,0.088
30.66,-0.398,0.885,-0.196
30.67,-0.284,1.057,-0.048
30.68,-0.0,1.066,0.042
30.69,-0.153,0.707,0.144
30.7,-0.334,1.091,0.009
30.71,-0.23,0.906,-0.237
30.72,-0.195,1.181,0.007
30.73,-0.067,0.778,0.157
30.74,-0.138,0.994,0.069
30.75,-0.368,0.928,-0.193
30.76,-0.087,1.036,-0.058
30.77,-0.172,1.048,0.075
30.78,-0.177,0.678,0.208
30.79,-0.315,1.171,-0.085
30.8,-0.332,0.768,-0.168
30.81,-0.202,1.184,0.117
30.82,-0.023,0.886,0.106
30.83,-0.17,0.871,0.024
30.84,-0.4,1.023,-0.141
30.85,-0.056,1.038,-0.114
30.86,-0.14,1.054,0.017
30.87,-0.116,0.699,0.208
30.88,-0.367,1.214,-0.114
30.89,-0.267,0.743,-0.193
30.9,-0.201,1.237,0.168
30.91,-0.077,0.887,0.114
30.92,-0.144,0.791,-0.008
30.93,-0.434,1.155,-0.139
30.94,-0.079,0.927,-0.096
30.95,-0.176,1.079,0.066
30.96,-0.091,0.687,0.212
30.97,-0.362,1.181,-0.162
30.98,-0.225,0.799,-0.221
30.99,-0.072,1.193,0.129
31.0,-0.121,0.883,0.128
31.01,-0.23,0.764,0.017
31.02,-0.387,1.248,-0.141
31.03,-0.1,0.868,-0.051
31.04,-0.239,1.122,0.076
31.05,-0.007,0.694,0.128
31.06,-0.432,1.119,-0.145
31.07,-0.25,0.85,-0.131
31.08,-0.037,1.164,0.065
31.09,-0.182,0.944,0.124
31.1,-0.228,0.723,0.023
31.11,-0.379,1.288,-0.163
31.12,-0.102,0.797,-0.024
31.13,-0.253,1.149,0.173
31.14,-0.065,0.736,0.132
31.15,-0.401,1.067,-0.185
31.16,-0.223,1.002,-0.084
31.17,-0.027,1.073,0.047
31.18,-0.126,0.934,0.135
31.19,-0.263,0.735,0.054
31.2,-0.399,1.338,-0.23
31.21,-0.145,0.739,-0.004
31.22,-0.215,1.149,0.174
31.23,-0.066,0.778,0.092
31.24,-0.467,0.979,-0.184
31.25,-0.212,1.095,-0.047
31.26,-0.056,1.009,0.078
31.27,-0.181,0.982,0.12
31.28,-0.237,0.681,0.003
31.29,-0.347,1.332,-0.241
31.3,-0.071,0.803,-0.059
31.31,-0.192,1.11,0.156
31.32,-0.138,0.798,0.106
31.33,-0.458,0.913,-0.157
31.34,-0.145,1.222,-0.044
31.35,-0.136,0.837,0.084
31.36,-0.195,0.979,0.148
31.37,-0.196,0.773,-0.052
31.38,-0.32,1.273,-0.217
31.39,-0.131,0.853,0.028
31.4,-0.152,1.038,0.173
31.41,-0.141,0.852,0.042
31.42,-0.417,1.073,-0.164
31.43,-0.082,1.125,-0.065
31.44,-0.166,0.861,0.096
31.45,-0.169,0.989,0.14
31.46,-0.234,0.782,-0.114
31.47,-0.333,1.253,-0.151
31.48,-0.131,0.874,0.042
31.49,-0.111,1.068,0.144
31.5,-0.188,0.748,0.049
31.51,-0.416,1.067,-0.178
31.52,-0.08,1.198,-0.069
31.53,-0.122,0.76,0.068
31.54,-0.113,1.044,0.171
31.55,-0.333,0.774,-0.139
31.56,-0.302,1.149,-0.182
31.57,-0.041,0.972,0.087
31.58,-0.2,0.943,0.175
31.59,-0.203,0.863,0.034
31.6,-0.322,1.062,-0.175
31.61,-0.176,1.149,-0.036
31.62,-0.174,0.712,0.121
31.63,-0.139,1.067,0.143
31.64,-0.303,0.783,-0.208
31.65,-0.243,1.145,-0.11
31.66,-0.078,0.996,0.074
31.67,-0.142,0.795,0.142
31.68,-0.25,0.976,-0.004
31.69,-0.329,0.99,-0.161
31.7,-0.173,1.152,0.006
31.71,-0.151,0.71,0.185
31.72,-0.12,1.053,0.111
31.73,-0.395,0.833,-0.174
31.74,-0.245,1.052,-0.067
31.75,-0.05,1.102,0.02
31.76,-0.114,0.745,0.156
31.77,-0.275,1.044,-0.021
31.78,-0.312,0.898,-0.181
31.79,-0.188,1.189,0.054
31.8,-0.149,0.764,0.168
31.81,-0.046,1.016,0.05
31.82,-0.434,0.914,-0.186
31.83,-0.178,1.006,-0.082
31.84,-0.088,1.134,0.064
31.85,-0.161,0.648,0.121
31.86,-0.331,1.11,-0.014
31.87,-0.232,0.906,-0.194
31.88,-0.146,1.184,0.031
31.89,-0.145,0.798,0.168
31.9,-0.138,0.952,0.079
31.91,-0.403,0.972,-0.188
31.92,-0.149,0.963,0.033
31.93,-0.176,1.174,0.084
31.94,-0.164,0.63,0.124
31.95,-0.299,1.162,-0.059
31.96,-0.222,0.889,-0.171
31.97,-0.189,1.186,0.058
31.98,-0.091,0.814,0.15
31.99,-0.154,0.866,0.009
32.0,-0.42,1.094,-0.192
32.01,-0.039,0.911,-0.047
32.02,-0.151,1.153,0.06
32.03,-0.104,0.675,0.177
32.04,-0.332,1.154,-0.122
32.05,-0.298,0.884,-0.126
32.06,-0.122,1.157,0.085
32.07,-0.074,0.888,0.115
32.08,-0.308,0.804,0.01
32.09,-0.387,1.163,-0.139
32.1,-0.073,0.911,-0.054
32.11,-0.204,1.076,0.088
32.12,-0.041,0.685,0.166
32.13,-0.452,1.208,-0.16
32.14,-0.228,0.833,-0.159
32.15,-0.063,1.132,0.084
32.16,-0.111,0.884,0.109
32.17,-0.293,0.724,-0.006
32.18,-0.363,1.271,-0.154
32.19,-0.092,0.831,-0.033
32.2,-0.187,1.086,0.153
32.21,-0.071,0.729,0.171
32.22,-0.511,1.122,-0.221
32.23,-0.158,0.806,-0.054
32.24,-0.023,1.218,0.06
32.25,-0.155,0.772,0.124
32.26,-0.277,0.879,-0.009
32.27,-0.268,1.209,-0.227
32.28,-0.106,0.818,0.019
32.29,-0.115,1.157,0.185
32.3,-0.073,0.643,0.03
32.31,-0.509,1.181,-0.233
32.32,-0.069,0.945,0.019
32.33,-0.16,1.069,0.118
32.34,-0.146,0.817,0.135
32.35,-0.287,0.872,-0.092
32.36,-0.253,1.208,-0.169
32.37,-0.071,0.824,0.114
32.38,-0.126,1.112,0.141
32.39,-0.195,0.665,-0.027
32.4,-0.472,1.174,-0.142
32.41,-0.031,0.998,-0.029
32.42,-0.215,0.98,0.14
32.43,-0.137,0.924,0.165
32.44,-0.326,0.811,-0.201
32.45,-0.321,1.222,-0.11
32.46,0.026,0.897,0.112
32.47,-0.177,1.028,0.144
32.48,-0.335,0.711,0.032
32.49,-0.282,1.207,-0.203
32.5,-0.057,1.01,-0.062
32.51,-0.212,0.827,0.209
32.52,-0.123,1.017,0.108
32.53,-0.38,0.794,-0.222
32.54,-0.202,1.247,-0.023
32.55,-0.061,0.834,0.126
32.56,-0.242,0.981,0.142
32.57,-0.24,0.854,-0.055
32.58,-0.281,1.025,-0.211
32.59,-0.171,1.135,0.086
32.6,-0.057,0.785,0.125
32.61,-0.158,1.001,-0.001
32.62,-0.422,0.864,-0.13
32.63,-0.118,1.231,-0.091
32.64,-0.105,0.792,0.1
32.65,-0.207,0.948,0.217
32.66,-0.272,0.931,-0.117
32.67,-0.295,0.908,-0.182
32.68,-0.104,1.227,0.088
32.69,-0.078,0.692,0.139
32.7,-0.275,1.046,0.043
32.71,-0.337,0.932,-0.186
32.72,-0.131,1.172,-0.027
32.73,-0.185,0.753,0.129
32.74,-0.054,0.918,0.142
32.75,-0.383,1.063,-0.19
32.76,-0.341,0.877,-0.05
32.77,-0.056,1.261,0.066
32.78,-0.131,0.612,0.13
32.79,-0.35,1.086,0.025
32.8,-0.309,0.946,-0.195
32.81,-0.109,1.07,-0.007
32.82,-0.213,0.881,0.162
32.83,-0.05,0.825,0.058
32.84,-0.409,1.105,-0.199
32.85,-0.238,0.842,0.018
32.86,-0.099,1.228,0.068
32.87,-0.131,0.619,0.129
32.88,-0.329,1.09,-0.057
32.89,-0.295,0.944,-0.203
32.9,-0.045,1.029,-0.022
32.91,-0.115,0.972,0.109
32.92,-0.045,0.707,0.019
32.93,-0.473,1.258,-0.228
32.94,-0.051,0.865,-0.034
32.95,-0.158,1.177,0.095
32.96,-0.177,0.69,0.204
32.97,-0.336,1.059,-0.099
32.98,-0.276,0.958,-0.202
32.99,-0.113,1.073,0.148
33.0,-0.115,0.994,0.088
33.01,-0.199,0.647,0.006
33.02,-0.396,1.359,-0.212
33.03,-0.06,0.849,-0.052
33.04,-0.232,1.11,0.137
33.05,-0.06,0.69,0.125
33.06,-0.489,1.141,-0.2
33.07,-0.218,0.912,-0.092
33.08,-0.061,1.129,0.102
33.09,-0.162,0.826,0.128
33.1,-0.315,0.811,0.012
33.11,-0.395,1.287,-0.201
33.12,-0.05,0.787,-0.008
33.13,-0.172,1.198,0.195
33.14,-0.064,0.682,0.058
33.15,-0.502,1.138,-0.189
33.16,-0.154,0.995,-0.038
33.17,-0.085,1.029,0.08
33.18,-0.217,0.902,0.131
33.19,-0.181,0.811,-0.074
33.2,-0.396,1.292,-0.144
33.21,-0.118,0.796,0.101
33.22,-0.027,1.181,0.137
33.23,-0.204,0.655,0.021
33.24,-0.429,1.127,-0.11
33.25,-0.127,1.113,-0.072
33.26,-0.161,0.817,0.08
33.27,-0.139,1.037,0.166
33.28,-0.309,0.753,-0.207
33.29,-0.3,1.2,-0.134
33.3,-0.047,0.903,0.08
33.31,-0.166,0.978,0.135
33.32,-0.198,0.766,0.027
33.33,-0.414,1.117,-0.165
33.34,-0.056,1.089,-0.046
33.35,-0.143,0.801,0.148
33.36,-0.163,1.056,0.091
33.37,-0.33,0.787,-0.215
33.38,-0.291,1.258,-0.067
33.39,-0.037,0.893,0.059
33.4,-0.044,0.885,0.105
33.41,-0.313,0.906,-0.032
33.42,-0.299,1.002,-0.17
33.43,-0.101,1.16,0.008
33.44,-0.146,0.778,0.162
33.45,-0.147,1.026,0.083
33.46,-0.342,0.879,-0.228
33.47,-0.24,1.192,-0.005
33.48,-0.141,0.847,0.13
33.49,-0.2,0.843,0.176
33.5,-0.343,1.035,-0.084
33.51,-0.246,0.901,-0.176
33.52,-0.125,1.242,0.104
33.53,-0.087,0.733,0.163
33.54,-0.213,1.023,-0.004
33.55,-0.361,0.919,-0.167
33.56,-0.098,1.152,-0.04
33.57,-0.231,0.872,0.125
33.58,-0.117,0.862,0.182
33.59,-0.399,1.076,-0.189
33.6,-0.303,0.843,-0.047
33.61,-0.106,1.319,0.133
33.62,-0.111,0.621,0.081
33.63,-0.328,1.03,0.015
33.64,-0.29,0.984,-0.19
33.65,-0.072,1.066,-0.014
33.66,-0.227,0.904,0.152
33.67,-0.135,0.795,0.094
33.68,-0.418,1.156,-0.199
33.69,-0.241,0.849,0.016
33.7,-0.088,1.257,0.104
33.71,-0.099,0.626,0.137
33.72,-0.375,1.019,-0.024
33.73,-0.215,1.058,-0.221
33.74,-0.136,0.982,0.042
33.75,-0.133,1.013,0.158
33.76,-0.028,0.702,-0.002
33.77,-0.485,1.243,-0.202
33.78,-0.125,0.856,0.006
33.79,-0.13,1.177,0.091
33.8,-0.19,0.702,0.153
33.81,-0.339,1.031,-0.084
33.82,-0.25,1.088,-0.184
33.83,-0.202,0.937,0.133
33.84,-0.074,1.056,0.13
33.85,-0.193,0.638,-0.026
33.86,-0.316,1.26,-0.199
33.87,0.023,0.886,-0.05
33.88,-0.304,1.1,0.209
33.89,0.018,0.677,0.095
33.9,-0.468,1.158,-0.216
33.91,-0.246,0.936,-0.052
33.92,-0.009,1.055,0.079
33.93,-0.151,0.915,0.128
33.94,-0.309,0.738,-0.002
33.95,-0.33,1.251,-0.236
33.96,-0.066,0.846,0.017
33.97,-0.156,1.17,0.155
33.98,-0.104,0.674,0.033
33.99,-0.528,1.116,-0.171
34.0,-0.054,1.057,-0.08
34.01,-0.082,0.874,0.09
34.02,-0.188,0.987,0.185
34.03,-0.282,0.768,-0.154
34.04,-0.268,1.221,-0.198
34.05,-0.069,0.907,0.139
34.06,-0.12,1.031,0.136
34.07,-0.274,0.759,0.034
34.08,-0.381,1.113,-0.198
34.09,-0.093,1.078,-0.005
34.1,-0.207,0.841,0.14
34.11,-0.112,1.042,0.123
34.12,-0.271,0.795,-0.225
34.13,-0.302,1.235,-0.08
34.14,0.007,0.894,0.062
34.15,-0.128,0.891,0.133
34.16,-0.306,0.9,0.038
34.17,-0.276,1.054,-0.224
34.18,-0.097,1.111,-0.024
34.19,-0.208,0.823,0.228
34.2,-0.037,1.046,0.04
34.21,-0.413,0.818,-0.25
34.22,-0.131,1.213,-0.045
34.23,-0.036,0.876,0.04
34.24,-0.26,0.839,0.216
34.25,-0.254,1.001,-0.073
34.26,-0.287,0.897,-0.227
34.27,-0.158,1.186,0.106
34.28,-0.083,0.777,0.131
34.29,-0.229,0.992,-0.008
34.3,-0.412,0.921,-0.148
34.31,-0.094,1.168,-0.057
34.32,-0.185,0.835,0.093
34.33,-0.116,0.802,0.19
34.34,-0.358,1.093,-0.149
34.35,-0.248,0.81,-0.144
34.36,-0.097,1.289,0.086
34.37,-0.05,0.662,0.08
34.38,-0.315,1.047,0.011
34.39,-0.393,0.967,-0.169
34.4,-0.101,1.017,-0.043
34.41,-0.135,0.956,0.126
34.42,-0.055,0.795,0.123
34.43,-0.392,1.14,-0.197
34.44,-0.266,0.85,-0.045
34.45,-0.045,1.285,0.134
34.46,-0.122,0.655,0.15
34.47,-0.36,0.993,0.024
34.48,-0.277,1.005,-0.234
34.49,-0.097,0.978,0.003
34.5,-0.271,1.003,0.174
34.51,0.019,0.702,0.061
34.52,-0.502,1.231,-0.201
34.53,-0.108,0.853,-0.008
34.54,-0.13,1.249,0.061
34.55,-0.198,0.665,0.148
34.56,-0.255,1.009,-0.039
34.57,-0.321,1.085,-0.215
34.58,-0.181,0.958,0.075
34.59,-0.106,1.111,0.103
34.6,-0.171,0.626,0.032
34.61,-0.546,1.252,-0.157
34.62,-0.012,0.893,-0.051
34.63,-0.15,1.113,0.057
34.64,-0.167,0.775,0.221
34.65,-0.299,0.95,-0.184
34.66,-0.254,1.061,-0.178
34.67,-0.057,0.952,0.124
34.68,-0.131,0.938,0.079
34.69,-0.289,0.697,0.003
34.7,-0.34,1.302,-0.195
34.71,-0.059,0.837,-0.018
34.72,-0.21,1.182,0.151
34.73,0.002,0.7,0.096
34.74,-0.453,1.082,-0.213
34.75,-0.251,1.036,-0.015
34.76,-0.031,0.97,0.065
34.77,-0.205,0.979,0.106
34.78,-0.224,0.737,-0.01
34.79,-0.405,1.299,-0.176
34.8,-0.18,0.817,0.085
34.81,-0.069,1.142,0.128
34.82,-0.107,0.747,0.018
34.83,-0.458,1.061,-0.144
34.84,-0.079,1.116,-0.076
34.85,-0.132,0.821,0.067
34.86,-0.215,0.985,0.209
34.87,-0.283,0.744,-0.107
34.88,-0.356,1.21,-0.167
34.89,-0.09,0.932,0.085
34.9,-0.099,1.015,0.149
34.91,-0.209,0.786,0.033
34.92,-0.427,1.078,-0.13
34.93,-0.118,1.148,-0.037
34.94,-0.213,0.742,0.113
34.95,-0.114,1.073,0.121
34.96,-0.293,0.793,-0.172
34.97,-0.365,1.187,-0.095
34.98,-0.007,0.947,0.083
34.99,-0.123,0.885,0.137
35.0,-0.251,0.927,-0.001
35.01,-0.374,1.003,-0.226
35.02,-0.062,1.13,-0.031
35.03,-0.155,0.803,0.174
35.04,-0.14,1.019,0.091
35.05,-0.334,0.804,-0.18
35.06,-0.198,1.189,-0.08
35.07,-0.123,0.993,0.086
35.08,-0.126,0.767,0.135
35.09,-0.257,1.011,0.0
35.1,-0.298,0.95,-0.253
35.11,-0.028,1.166,-0.021
35.12,-0.096,0.773,0.203
35.13,-0.172,1.003,0.089
35.14,-0.39,0.878,-0.185
35.15,-0.117,1.111,-0.074
35.16,-0.131,0.965,0.069
35.17,-0.201,0.76,0.196
35.18,-0.317,1.126,-0.076
35.19,-0.256,0.824,-0.175
35.2,-0.205,1.234,0.119
35.21,-0.085,0.751,0.128
35.22,-0.157,0.995,0.029
35.23,-0.374,0.998,-0.159
35.24,-0.181,0.987,-0.042
35.25,-0.163,0.971,0.106
35.26,-0.146,0.733,0.166
35.27,-0.353,1.157,-0.15
35.28,-0.256,0.788,-0.178
35.29,-0.092,1.289,0.078
35.3,-0.08,0.737,0.128
35.31,-0.236,0.929,0.03
35.32,-0.376,1.123,-0.171
35.33,-0.119,0.938,-0.037
35.34,-0.203,1.035,0.131
35.35,-0.079,0.747,0.142
35.36,-0.081,1.235,0.113
35.37,-0.104,0.719,0.146
35.38,-0.295,1.043,-0.012
35.39,-0.295,0.93,-0.183
35.4,-0.184,1.14,-0.051
35.41,-0.213,0.818,0.161
35.42,-0.03,0.883,0.125
35.43,-0.366,0.891,-0.217
35.44,-0.227,1.042,-0.009
35.45,-0.105,1.127,0.069
35.46,-0.203,0.633,0.186
35.47,-0.331,1.13,-0.017
35.48,-0.257,0.892,-0.232
35.49,-0.157,1.136,0.029
35.5,-0.114,0.819,0.209
35.51,-0.12,0.97,0.036
35.52,-0.416,0.963,-0.226
35.53,-0.107,0.975,0.02
35.54,-0.187,1.169,0.078
35.55,-0.18,0.588,0.169
35.56,-0.25,1.21,-0.061
35.57,-0.343,0.857,-0.228
35.58,-0.198,1.13,0.108
35.59,-0.065,0.91,0.11
35.6,-0.164,0.824,0.027
35.61,-0.479,1.133,-0.168
35.62,-0.034,0.92,-0.087
35.63,-0.187,1.096,0.048
35.64,-0.103,0.674,0.25
35.65,-0.4,1.184,-0.169
35.66,-0.261,0.786,-0.215
35.67,-0.048,1.178,0.116
35.68,-0.114,0.887,0.099
35.69,-0.269,0.778,0.064
35.7,-0.302,1.261,-0.221
35.71,-0.119,0.854,-0.052
35.72,-0.269,1.136,0.17
35.73,-0.056,0.713,0.137
35.74,-0.409,1.088,-0.222
35.75,-0.241,0.872,-0.096
35.76,-0.023,1.184,0.001
35.77,-0.121,0.824,0.099
35.78,-0.221,0.79,0.058
35.79,-0.389,1.312,-0.235
35.8,-0.124,0.723,-0.072
35.81,-0.176,1.207,0.165
35.82,-0.073,0.715,0.078
35.83,-0.489,1.052,-0.194
35.84,-0.193,1.044,-0.058
35.85,-0.03,1.07,0.007
35.86,-0.173,0.851,0.181
35.87,-0.239,0.756,0.035
35.88,-0.4,1.333,-0.189
35.89,-0.123,0.772,0.017
35.9,-0.162,1.22,0.18
35.91,-0.115,0.694,0.047
35.92,-0.435,1.03,-0.178
35.93,-0.062,1.121,-0.035
35.94,-0.154,0.946,0.072
35.95,-0.171,0.914,0.162
35.96,-0.191,0.777,-0.063
35.97,-0.423,1.225,-0.198
35.98,-0.076,0.817,0.057
35.99,-0.096,1.178,0.12
36.0,-0.132,0.71,0.01
36.01,-0.455,1.049,-0.157
36.02,-0.04,1.188,-0.101
36.03,-0.148,0.787,0.052
36.04,-0.168,0.997,0.214
36.05,-0.209,0.819,-0.16
36.06,-0.374,1.151,-0.158
36.07,-0.085,0.956,0.165
36.08,-0.153,1.066,0.145
36.09,-0.208,0.768,-0.017
36.1,-0.367,1.056,-0.138
36.11,-0.187,1.168,-0.046
36.12,-0.152,0.707,0.13
36.13,-0.134,1.098,0.2
36.14,-0.354,0.784,-0.152
36.15,-0.293,1.059,-0.159
36.16,-0.044,1.086,0.1
36.17,-0.154,0.893,0.114
36.18,-0.246,0.876,0.023
36.19,-0.352,1.043,-0.138
36.2,-0.186,1.195,-0.038
36.21,-0.242,0.693,0.184
36.22,-0.081,1.08,0.139
36.23,-0.367,0.798,-0.214
36.24,-0.138,1.232,-0.05
36.25,-0.134,0.893,0.079
36.26,-0.217,0.849,0.198
36.27,-0.228,0.927,0.013
36.28,-0.393,1.032,-0.216
36.29,-0.201,1.043,0.022
36.3,-0.044,0.865,0.157
36.31,-0.198,1.001,0.021
36.32,-0.386,0.733,-0.14
36.33,-0.083,1.314,-0.057
36.34,-0.147,0.861,0.045
36.35,-0.186,0.787,0.184
36.36,-0.197,1.089,-0.073
36.37,-0.339,0.941,-0.167
36.38,-0.245,1.125,0.095
36.39,0.033,0.814,0.133
36.4,-0.221,1.014,0.017
36.41,-0.427,0.838,-0.13
36.42,-0.066,1.188,-0.126
36.43,-0.129,0.856,0.012
36.44,-0.106,0.808,0.231
36.45,-0.323,1.1,-0.144
36.46,-0.302,0.786,-0.187
36.47,-0.174,1.263,0.117
36.48,-0.049,0.759,0.118
36.49,-0.236,1.009,0.016
36.5,-0.364,0.974,-0.157
36.51,-0.214,1.11,-0.074
36.52,-0.185,0.89,0.091
36.53,-0.027,0.788,0.173
36.54,-0.393,1.14,-0.158
36.55,-0.259,0.762,-0.115
36.56,-0.133,1.307,0.067
36.57,-0.044,0.732,0.11
36.58,-0.216,0.993,0.039
36.59,-0.341,1.051,-0.184
36.6,-0.141,1.03,-0.046
36.61,-0.242,0.946,0.107
36.62,-0.046,0.718,0.139
36.63,-0.421,1.208,-0.166
36.64,-0.191,0.784,-0.128
36.65,-0.088,1.264,0.026
36.66,-0.111,0.675,0.149
36.67,-0.234,0.961,0.024
36.68,-0.412,1.14,-0.187
36.69,-0.089,0.895,-0.061
36.7,-0.255,1.05,0.158
36.71,-0.036,0.718,0.133
36.72,-0.505,1.167,-0.178
36.73,-0.181,0.775,-0.102
36.74,-0.035,1.342,0.033
36.75,-0.125,0.691,0.136
36.76,-0.3,0.895,0.076
36.77,-0.311,1.164,-0.282
36.78,-0.066,0.823,-0.052
36.79,-0.194,1.18,0.183
36.8,-0.078,0.693,0.071
36.81,-0.459,1.11,-0.231
36.82,-0.145,0.868,-0.017
36.83,-0.132,1.182,0.113
36.84,-0.168,0.764,0.128
36.85,-0.302,0.894,0.037
36.86,-0.369,1.152,-0.217
36.87,-0.089,0.799,0.015
36.88,-0.152,1.243,0.137
36.89,-0.078,0.648,0.052
36.9,-0.484,1.121,-0.157
36.91,-0.069,0.961,-0.047
36.92,-0.106,1.093,0.075
36.93,-0.113,0.817,0.155
36.94,-0.309,0.824,-0.052
36.95,-0.384,1.208,-0.174
36.96,-0.141,0.805,0.067
36.97,-0.173,1.204,0.131
36.98,-0.158,0.629,0.031
36.99,-0.435,1.129,-0.141
37.0,-0.034,1.062,-0.113
37.01,-0.101,0.92,0.043
37.02,-0.15,0.942,0.224
37.03,-0.314,0.816,-0.126
37.04,-0.347,1.153,-0.155
37.05,-0.051,0.968,0.134
37.06,-0.173,1.105,0.12
37.07,-0.202,0.615,0.048
37.08,-0.406,1.3,-0.15
37.09,-0.12,0.911,-0.051
37.1,-0.164,0.976,0.107
37.11,-0.082,0.875,0.17
37.12,-0.333,0.839,-0.199
37.13,-0.264,1.157,-0.102
37.14,-0.011,0.946,0.072
37.15,-0.179,1.037,0.114
37.16,-0.196,0.657,0.035
37.17,-0.328,1.294,-0.195
37.18,-0.148,0.909,-0.061
37.19,-0.203,0.904,0.227
37.2,-0.146,0.974,0.101
37.21,-0.387,0.785,-0.244
37.22,-0.164,1.246,-0.01
37.23,-0.111,0.944,0.062
37.24,-0.226,0.939,0.132
37.25,-0.17,0.803,0.024
37.26,-0.359,1.175,-0.244
37.27,-0.14,0.919,0.001
37.28,-0.079,0.991,0.154
37.29,-0.168,0.955,0.069
37.3,-0.428,0.768,-0.136
37.31,-0.162,1.326,-0.068
37.32,-0.097,0.776,0.055
37.33,-0.179,0.92,0.191
37.34,-0.182,0.896,-0.058
37.35,-0.367,1.09,-0.2
37.36,-0.125,1.033,0.038
37.37,-0.168,0.894,0.165
37.38,-0.103,0.973,0.065
37.39,-0.41,0.845,-0.15
37.4,-0.1,1.296,-0.076
37.41,-0.115,0.734,0.04
37.42,-0.186,0.924,0.207
37.43,-0.253,0.957,-0.093
37.44,-0.312,0.918,-0.202
37.45,-0.134,1.163,0.099
37.46,-0.115,0.843,0.119
37.47,-0.202,0.997,0.05
37.48,-0.404,0.881,-0.142
37.49,-0.144,1.255,-0.082
37.5,-0.121,0.763,0.052
37.51,-0.142,0.893,0.203
37.52,-0.328,1.015,-0.153
37.53,-0.285,0.857,-0.192
37.54,-0.1,1.28,0.09
37.55,-0.066,0.71,0.133
37.56,-0.222,0.992,-0.001
37.57,-0.327,0.962,-0.151
37.58,-0.17,1.205,-0.045
37.59,-0.193,0.811,0.091
37.6,-0.086,0.851,0.228
37.61,-0.433,1.11,-0.149
37.62,-0.293,0.777,-0.114
37.63,-0.144,1.353,0.121
37.64,-0.112,0.695,0.123
37.65,-0.255,1.002,0.046
37.66,-0.35,0.989,-0.163
37.67,-0.137,1.096,-0.082
37.68,-0.184,0.867,0.106
37.69,-0.037,0.812,0.192
37.7,-0.445,1.142,-0.175
37.71,-0.255,0.7,-0.155
37.72,-0.055,1.342,0.068
37.73,-0.123,0.687,0.115
37.74,-0.264,0.985,0.033
37.75,-0.341,1.062,-0.156
37.76,-0.154,0.986,-0.05
37.77,-0.237,0.944,0.143
37.78,-0.062,0.801,0.146
37.79,-0.436,1.121,-0.192
37.8,-0.176,0.732,-0.059
37.81,-0.097,1.382,0.069
37.82,-0.142,0.659,0.125
37.83,-0.273,0.949,0.053
37.84,-0.301,1.117,-0.202
37.85,-0.145,0.893,-0.003
37.86,-0.175,1.08,0.164
37.87,-0.068,0.795,0.057
37.88,-0.415,1.104,-0.182
37.89,-0.171,0.885,-0.042
37.9,-0.105,1.266,0.064
37.91,-0.095,0.639,0.107
37.92,-0.284,1.085,-0.021
37.93,-0.325,0.963,-0.187
37.94,-0.202,1.037,0.031
37.95,-0.146,1.027,0.122
37.96,-0.083,0.705,0.046
37.97,-0.443,1.177,-0.173
37.98,-0.086,0.858,-0.099
37.99,-0.161,1.207,0.07
38.0,-0.113,0.656,0.215
38.01,-0.334,1.06,-0.063
38.02,-0.386,0.964,-0.201
38.03,-0.121,0.943,0.082
38.04,-0.089,1.138,0.117
38.05,-0.181,0.639,0.052
38.06,-0.396,1.221,-0.192
38.07,-0.07,0.947,-0.072
38.08,-0.168,1.107,0.075
38.09,-0.114,0.676,0.214
38.1,-0.302,1.062,-0.094
38.11,-0.292,1.018,-0.206
38.12,-0.143,0.905,0.071
38.13,-0.074,1.132,0.108
38.14,-0.154,0.598,0.001
38.15,-0.461,1.291,-0.164
38.16,-0.135,0.931,-0.025
38.17,-0.219,1.095,0.098
38.18,-0.129,0.782,0.195
38.19,-0.328,0.955,-0.128
38.2,-0.28,1.07,-0.136
38.21,-0.073,0.943,0.074
38.22,-0.169,1.122,0.122
38.23,-0.165,0.606,0.023
38.24,-0.447,1.246,-0.173
38.25,-0.11,0.934,-0.065
38.26,-0.236,1.043,0.108
38.27,-0.064,0.871,0.185
38.28,-0.408,0.862,-0.135
38.29,-0.172,1.116,-0.154
38.3,-0.098,0.986,0.097
38.31,-0.19,1.048,0.141
38.32,-0.159,0.65,0.022
38.33,-0.447,1.296,-0.118
38.34,-0.186,0.917,-0.065
38.35,-0.197,0.934,0.135
38.36,-0.118,0.929,0.17
38.37,-0.345,0.826,-0.185
38.38,-0.226,1.151,-0.141
38.39,-0.036,0.923,0.04
38.4,-0.106,1.005,0.117
38.41,-0.22,0.694,0.04
38.42,-0.409,1.248,-0.169
38.43,-0.147,0.993,-0.048
38.44,-0.205,0.833,0.171
38.45,-0.095,0.978,0.132
38.46,-0.406,0.824,-0.198
38.47,-0.253,1.162,-0.108
38.48,-0.086,0.934,0.119
38.49,-0.107,0.981,0.127
38.5,-0.279,0.743,-0.029
38.51,-0.271,1.156,-0.16
38.52,-0.105,1.077,-0.059
38.53,-0.167,0.777,0.179
38.54,-0.05,1.046,0.071
38.55,-0.409,0.793,-0.228
38.56,-0.209,1.207,-0.002
38.57,-0.094,0.959,0.08
38.58,-0.192,0.862,0.128
38.59,-0.227,0.892,-0.009
38.6,-0.337,1.086,-0.184
38.61,-0.164,1.083,-0.033
38.62,-0.024,0.849,0.17
38.63,-0.161,1.041,0.058
38.64,-0.411,0.771,-0.175
38.65,-0.094,1.264,-0.079
38.66,-0.124,0.896,0.046
38.67,-0.184,0.824,0.201
38.68,-0.269,0.882,-0.116
38.69,-0.35,1.001,-0.174
38.7,-0.066,1.066,0.12
38.71,-0.137,0.872,0.143
38.72,-0.219,0.961,0.032
38.73,-0.372,0.915,-0.162
38.74,-0.148,1.249,-0.102
38.75,-0.166,0.716,0.106
38.76,-0.16,0.993,0.199
38.77,-0.353,0.92,-0.129
38.78,-0.286,0.908,-0.156
38.79,-0.082,1.201,0.085
38.8,-0.129,0.777,0.134
38.81,-0.181,0.999,0.019
38.82,-0.381,0.918,-0.127
38.83,-0.188,1.192,-0.027
38.84,-0.197,0.742,0.119
38.85,-0.087,0.958,0.149
38.86,-0.322,0.988,-0.195
38.87,-0.273,0.895,-0.098
38.88,-0.141,1.245,0.127
38.89,-0.069,0.68,0.12
38.9,-0.35,1.058,0.038
38.91,-0.296,0.953,-0.187
38.92,-0.169,1.118,-0.019
38.93,-0.235,0.795,0.148
38.94,-0.094,0.887,0.102
38.95,-0.362,1.036,-0.209
38.96,-0.287,0.893,-0.006
38.97,-0.087,1.245,0.03
38.98,-0.054,0.607,0.132
38.99,-0.358,1.085,0.033
39.0,-0.297,0.926,-0.217
39.01,-0.072,1.079,-0.027
39.02,-0.218,0.955,0.142
39.03,-0.156,0.781,0.082
39.04,-0.33,1.121,-0.209
39.05,-0.192,0.927,-0.038
39.06,-0.118,1.19,0.044
39.07,-0.082,0.639,0.191
39.08,-0.342,1.123,-0.011
39.09,-0.323,0.9,-0.205
39.1,-0.149,1.051,0.017
39.11,-0.122,1.023,0.127
39.12,-0.133,0.711,0.044
39.13,-0.455,1.197,-0.156
39.14,-0.067,0.855,-0.107
39.15,-0.099,1.179,0.052
39.16,-0.15,0.664,0.22
39.17,-0.282,1.088,-0.107
39.18,-0.309,0.918,-0.215
39.19,-0.058,1.008,0.118
39.2,-0.14,1.078,0.145
39.21,-0.204,0.643,-0.015
39.22,-0.417,1.279,-0.129
39.23,-0.157,0.92,-0.106
39.24,-0.14,1.086,0.078
39.25,-0.111,0.784,0.19
39.26,-0.401,0.999,-0.122
39.27,-0.249,0.939,-0.178
39.28,-0.114,1.03,0.133
39.29,-0.163,1.033,0.094
39.3,-0.094,0.636,0.01
39.31,-0.418,1.346,-0.179
39.32,-0.131,0.85,-0.042
39.33,-0.2,1.073,0.095
39.34,-0.117,0.805,0.191
39.35,-0.414,0.937,-0.146
39.36,-0.198,1.019,-0.159
39.37,-0.052,1.006,0.062
39.38,-0.157,1.055,0.132
39.39,-0.146,0.615,0.01
39.4,-0.44,1.37,-0.167
39.41,-0.133,0.864,-0.024
39.42,-0.246,1.077,0.168
39.43,-0.133,0.847,0.154
39.44,-0.36,0.878,-0.186
39.45,-0.307,1.17,-0.07
39.46,-0.076,0.903,0.061
39.47,-0.145,0.981,0.137
39.48,-0.206,0.712,0.065
39.49,-0.396,1.302,-0.227
39.5,-0.062,0.767,-0.026
39.51,-0.165,1.18,0.183
39.52,-0.041,0.751,0.072
39.53,-0.482,1.0,-0.177
39.54,-0.147,1.152,-0.015
39.55,-0.127,0.928,0.051
39.56,-0.137,0.952,0.158
39.57,-0.244,0.797,-0.018
39.58,-0.379,1.27,-0.204
39.59,-0.132,0.825,-0.014
39.6,-0.153,1.115,0.172
39.61,-0.112,0.796,0.076
39.62,-0.458,0.946,-0.147
39.63,-0.132,1.238,-0.056
39.64,-0.093,0.834,0.041
39.65,-0.232,0.947,0.203
39.66,-0.177,0.775,-0.069
39.67,-0.376,1.226,-0.188
39.68,-0.118,0.888,0.025
39.69,-0.121,1.063,0.194
39.7,-0.164,0.854,0.039
39.71,-0.439,0.88,-0.152
39.72,-0.085,1.275,-0.061
39.73,-0.09,0.814,0.059
39.74,-0.21,0.982,0.17
39.75,-0.268,0.829,-0.087
39.76,-0.31,1.13,-0.159
39.77,-0.202,0.943,0.102
39.78,-0.025,0.955,0.118
39.79,-0.187,0.944,-0.025
39.8,-0.4,0.878,-0.118
39.81,-0.106,1.194,-0.081
39.82,-0.174,0.758,0.094
39.83,-0.11,1.027,0.191
39.84,-0.321,0.878,-0.143
39.85,-0.319,1.025,-0.131
39.86,-0.154,1.106,0.096
39.87,-0.056,0.833,0.135
39.88,-0.257,0.966,0.016
39.89,-0.32,0.944,-0.123
39.9,-0.267,1.251,-0.067
39.91,-0.107,0.703,0.061
39.92,-0.122,1.029,0.231
39.93,-0.337,0.897,-0.158
39.94,-0.271,0.96,-0.139
39.95,-0.134,1.184,0.066
39.96,-0.101,0.731,0.141
39.97,-0.18,1.008,0.042
39.98,-0.37,0.97,-0.177
39.99,-0.178,1.185,-0.076
40.0,-0.169,0.696,0.079
40.01,-0.121,0.952,0.187
40.02,-0.373,0.979,-0.144
40.03,-0.22,0.903,-0.126
40.04,-0.069,1.273,0.061
40.05,-0.093,0.664,0.12
40.06,-0.317,1.068,0.055
40.07,-0.346,0.94,-0.189
40.08,-0.13,1.117,-0.029
40.09,-0.189,0.829,0.155
40.1,-0.073,0.903,0.103
40.11,-0.365,1.014,-0.186
40.12,-0.237,0.908,-0.033
40.13,-0.081,1.273,-0.016
40.14,-0.079,0.608,0.116
40.15,-0.277,1.112,0.063
40.16,-0.358,0.951,-0.204
40.17,-0.141,1.023,-0.03
40.18,-0.174,0.9,0.163
40.19,-0.09,0.87,0.111
40.2,-0.378,1.06,-0.187
40.21,-0.259,0.871,-0.002
40.22,-0.155,1.28,0.059
40.23,-0.096,0.606,0.113
40.24,-0.329,1.107,0.036
40.25,-0.316,0.952,-0.21
40.26,-0.11,1.015,-0.061
40.27,-0.176,0.978,0.156
40.28,-0.054,0.763,0.043
40.29,-0.404,1.123,-0.189
40.3,-0.204,0.86,-0.041
40.31,-0.168,1.154,0.043
40.32,-0.105,0.612,0.153
40.33,-0.31,1.155,-0.016
40.34,-0.365,0.871,-0.23
40.35,-0.119,1.072,-0.023
40.36,-0.08,0.938,0.14
40.37,-0.14,0.808,0.071
40.38,-0.403,1.083,-0.167
40.39,-0.095,0.94,-0.085
40.4,-0.116,1.132,0.001
40.41,-0.105,0.627,0.192
40.42,-0.278,1.186,-0.116
40.43,-0.35,0.845,-0.187
40.44,-0.155,1.077,0.087
40.45,-0.051,1.014,0.117
40.46,-0.199,0.747,0.015
40.47,-0.387,1.176,-0.152
40.48,-0.078,0.893,-0.111
40.49,-0.198,1.126,0.1
40.5,-0.073,0.679,0.168
40.51,-0.372,1.155,-0.111
40.52,-0.35,0.795,-0.185
40.53,-0.071,1.078,0.084
40.54,-0.106,1.099,0.099
40.55,-0.135,0.653,0.018
40.56,-0.393,1.249,-0.191
40.57,-0.084,0.952,-0.1
40.58,-0.18,1.116,0.081
40.59,-0.124,0.696,0.183
40.6,-0.396,1.138,-0.116
40.61,-0.213,0.914,-0.16
40.62,-0.133,1.045,0.104
40.63,-0.138,1.081,0.117
40.64,-0.106,0.655,-0.024
40.65,-0.496,1.285,-0.156
40.66,-0.052,0.831,-0.038
40.67,-0.15,1.144,0.104
40.68,-0.216,0.734,0.193
40.69,-0.367,1.034,-0.119
40.7,-0.233,1.052,-0.187
40.71,-0.081,0.993,0.088
40.72,-0.116,1.037,0.127
40.73,-0.193,0.632,0.024
40.74,-0.382,1.346,-0.16
40.75,-0.148,0.894,-0.014
40.76,-0.216,1.024,0.118
40.77,-0.023,0.836,0.138
40.78,-0.474,0.938,-0.162
40.79,-0.226,1.055,-0.113
40.8,-0.048,1.017,0.059
40.81,-0.168,0.991,0.103
40.82,-0.151,0.635,0.006
40.83,-0.402,1.363,-0.194
40.84,-0.152,0.858,0.011
40.85,-0.214,0.986,0.203
40.86,-0.095,0.871,0.125
40.87,-0.478,0.912,-0.196
40.88,-0.126,1.175,-0.056
40.89,-0.076,0.952,0.044
40.9,-0.184,0.958,0.175
40.91,-0.213,0.709,0.029
40.92,-0.391,1.276,-0.253
40.93,-0.02,0.806,-0.033
40.94,-0.158,1.059,0.169
40.95,-0.146,0.885,0.051
40.96,-0.357,0.844,-0.173
40.97,-0.219,1.293,-0.031
40.98,-0.134,0.86,0.053
40.99,-0.104,0.958,0.096
41.0,-0.166,0.811,-0.024
41.01,-0.437,1.151,-0.196
41.02,-0.098,0.928,0.042
41.03,-0.046,1.001,0.141
41.04,-0.206,0.895,0.073
41.05,-0.396,0.824,-0.114
41.06,-0.13,1.37,-0.112
41.07,-0.135,0.72,0.057
41.08,-0.15,0.965,0.176
41.09,-0.257,0.906,-0.069
41.1,-0.413,1.033,-0.176
41.11,-0.14,0.982,0.077
41.12,-0.153,1.058,0.127
41.13,-0.179,0.839,0.025
41.14,-0.311,0.961,-0.154
41.15,-0.261,1.267,-0.084
41.16,-0.118,0.657,0.082
41.17,-0.163,1.087,0.197
41.18,-0.357,0.766,-0.167
41.19,-0.273,1.042,-0.149
41.2,-0.031,1.121,0.144
41.21,-0.184,0.844,0.122
41.22,-0.191,0.889,0.027
41.23,-0.251,1.031,-0.164
41.24,-0.238,1.185,-0.088
41.25,-0.138,0.639,0.155
41.26,-0.052,1.116,0.125
41.27,-0.439,0.801,-0.181
41.28,-0.247,1.015,-0.055
41.29,-0.035,1.193,-0.008
41.3,-0.165,0.64,0.08
41.31,-0.261,1.073,0.114
41.32,-0.252,0.976,-0.239
41.33,-0.216,1.085,-0.064
41.34,-0.126,0.758,0.236
41.35,-0.113,1.078,0.092
41.36,-0.395,0.832,-0.241
41.37,-0.184,0.994,-0.026
41.38,-0.073,1.192,0.02
41.39,-0.175,0.653,0.136
41.4,-0.23,1.104,0.022
41.41,-0.328,0.913,-0.207
41.42,-0.204,1.126,-0.044
41.43,-0.083,0.82,0.202
41.44,-0.069,0.984,0.081
41.45,-0.402,0.965,-0.209
41.46,-0.104,0.972,-0.045
41.47,-0.203,1.199,0.095
41.48,-0.176,0.639,0.16
41.49,-0.266,1.145,-0.05
41.5,-0.331,0.791,-0.192
41.51,-0.235,1.13,0.025
41.52,-0.009,0.927,0.103
41.53,-0.115,0.905,0.063
41.54,-0.364,0.993,-0.185
41.55,-0.088,0.921,-0.053
41.56,-0.163,1.196,0.082
41.57,-0.163,0.629,0.165
41.58,-0.325,1.16,-0.039
41.59,-0.306,0.865,-0.215
41.6,-0.155,1.092,0.011
41.61,-0.116,0.943,0.16
41.62,-0.078,0.781,0.035
41.63,-0.437,1.11,-0.174
41.64,-0.004,0.919,-0.081
41.65,-0.14,1.162,0.045
41.66,-0.111,0.605,0.215
41.67,-0.295,1.154,-0.09
41.68,-0.344,0.864,-0.156
41.69,-0.184,1.083,0.08
41.7,-0.119,0.993,0.097
41.71,-0.142,0.713,0.023
41.72,-0.443,1.246,-0.136
41.73,-0.071,0.905,-0.101
41.74,-0.206,1.128,0.1
41.75,-0.118,0.709,0.228
41.76,-0.423,1.113,-0.123
41.77,-0.243,0.841,-0.196
41.78,-0.118,1.125,0.164
41.79,-0.184,0.989,0.09
41.8,-0.196,0.655,0.029
41.81,-0.38,1.331,-0.165
41.82,-0.176,0.844,-0.054
41.83,-0.196,1.074,0.082
41.84,-0.056,0.765,0.192
41.85,-0.403,1.036,-0.149
41.86,-0.275,0.951,-0.178
41.87,-0.059,1.057,0.085
41.88,-0.158,1.021,0.098
41.89,-0.232,0.688,0.03
41.9,-0.364,1.347,-0.203
41.91,-0.154,0.796,-0.057
41.92,-0.171,1.082,0.15
41.93,-0.001,0.819,0.139
41.94,-0.532,1.069,-0.193
41.95,-0.115,0.924,-0.045
41.96,-0.103,1.185,0.037
41.97,-0.214,0.827,0.166
41.98,-0.235,0.777,0.081
41.99,-0.407,1.313,-0.194
42.0,-0.179,0.734,0.006
42.01,-0.129,1.187,0.175
42.02,-0.147,0.677,0.082
42.03,-0.514,1.077,-0.198
42.04,-0.034,1.029,-0.08
42.05,-0.104,0.99,0.044
42.06,-0.253,0.861,0.178
42.07,-0.133,0.783,-0.071
42.08,-0.38,1.294,-0.213
42.09,-0.17,0.761,0.049
42.1,-0.026,1.135,0.109
42.11,-0.146,0.741,0.052
42.12,-0.512,1.076,-0.131
42.13,-0.072,1.11,-0.116
42.14,-0.18,0.878,0.089
42.15,-0.181,0.973,0.199
42.16,-0.157,0.78,-0.129
42.17,-0.397,1.198,-0.174
42.18,-0.079,0.882,0.112
42.19,-0.104,1.101,0.129
42.2,-0.183,0.719,0.03
42.21,-0.446,1.057,-0.129
42.22,-0.103,1.173,-0.085
42.23,-0.146,0.784,0.071
42.24,-0.167,1.021,0.175
42.25,-0.291,0.756,-0.134
42.26,-0.306,1.162,-0.133
42.27,-0.061,0.958,0.083
42.28,-0.15,1.028,0.127
42.29,-0.156,0.816,0.035
42.3,-0.399,1.021,-0.13
42.31,-0.2,1.208,-0.063
42.32,-0.104,0.681,0.096
42.33,-0.147,1.083,0.141
42.34,-0.337,0.788,-0.142
42.35,-0.272,1.124,-0.144
42.36,-0.092,1.016,0.099
42.37,-0.091,0.87,0.09
42.38,-0.247,0.907,-0.003
42.39,-0.396,1.013,-0.114
42.4,-0.137,1.194,-0.064
42.41,-0.146,0.672,0.131
42.42,-0.122,1.066,0.13
42.43,-0.37,0.8,-0.174
42.44,-0.251,1.11,-0.071
42.45,-0.0,1.096,0.066
42.46,-0.145,0.75,0.154
42.47,-0.287,1.009,0.033
42.48,-0.274,0.945,-0.233
42.49,-0.214,1.193,-0.011
42.5,-0.105,0.74,0.186
42.51,-0.148,1.035,0.065
42.52,-0.396,0.834,-0.155
42.53,-0.215,1.103,-0.002
42.54,-0.166,1.091,0.067
42.55,-0.12,0.646,0.11
42.56,-0.234,1.104,-0.007
42.57,-0.321,0.917,-0.196
42.58,-0.171,1.171,0.022
42.59,-0.061,0.785,0.197
42.6,-0.199,0.977,0.043
42.61,-0.442,0.914,-0.146
42.62,-0.064,1.096,-0.057
42.63,-0.132,1.05,0.007
42.64,-0.094,0.663,0.224
42.65,-0.254,1.187,-0.108
42.66,-0.326,0.788,-0.2
42.67,-0.119,1.268,0.122
42.68,-0.059,0.799,0.124
42.69,-0.275,0.876,0.039
42.7,-0.365,1.077,-0.136
42.71,-0.065,1.014,-0.086
42.72,-0.218,1.022,0.105
42.73,-0.07,0.706,0.226
42.74,-0.355,1.188,-0.166
42.75,-0.269,0.761,-0.126
42.76,-0.001,1.328,0.073
42.77,-0.177,0.686,0.121
42.78,-0.35,0.983,0.018
42.79,-0.219,1.031,-0.22
42.8,-0.133,0.996,-0.035
42.81,-0.231,0.937,0.184
42.82,-0.076,0.782,0.078
42.83,-0.517,1.136,-0.187
42.84,-0.212,0.818,-0.022
42.85,0.027,1.335,0.024
42.86,-0.204,0.642,0.116
42.87,-0.246,1.034,0.049
42.88,-0.316,1.08,-0.25
42.89,-0.218,0.884,-0.004
42.9,-0.016,1.069,0.187
42.91,-0.17,0.702,0.065
42.92,-0.527,1.192,-0.168
42.93,-0.019,0.888,-0.042
42.94,-0.162,1.212,0.023
42.95,-0.172,0.692,0.173
42.96,-0.245,0.991,-0.09
42.97,-0.327,1.031,-0.188
42.98,-0.178,0.934,0.122
42.99,-0.042,1.099,0.119
43.0,-0.196,0.6,-0.009
43.01,-0.509,1.304,-0.126
43.02,-0.011,0.919,-0.092
43.03,-0.263,1.088,0.128
43.04,-0.103,0.812,0.183
43.05,-0.315,0.927,-0.143
43.06,-0.288,1.091,-0.156
43.07,-0.042,0.974,0.114
43.08,-0.154,1.101,0.138
43.09,-0.247,0.642,0.028
43.1,-0.419,1.308,-0.138
43.11,-0.126,0.886,-0.069
43.12,-0.206,0.983,0.175
43.13,-0.107,0.9,0.16
43.14,-0.449,0.838,-0.169
43.15,-0.185,1.145,-0.122
43.16,0.018,0.99,0.062
43.17,-0.184,0.99,0.118
43.18,-0.19,0.687,0.018
43.19,-0.332,1.306,-0.236
43.2,-0.156,0.873,0.006
43.21,-0.185,0.974,0.232
43.22,-0.086,0.93,0.059
43.23,-0.503,0.819,-0.184
43.24,-0.075,1.25,-0.054
43.25,-0.058,0.878,0.067
43.26,-0.23,0.991,0.183
43.27,-0.185,0.786,-0.053
43.28,-0.374,1.124,-0.226
43.29,-0.162,1.014,0.072
43.3,-0.071,1.0,0.128
43.31,-0.228,0.884,0.016
43.32,-0.397,0.85,-0.162
43.33,-0.102,1.275,-0.121
43.34,-0.049,0.698,0.052
43.35,-0.131,1.041,0.211
43.36,-0.289,0.901,-0.143
43.37,-0.322,0.978,-0.147
43.38,-0.134,1.14,0.159
43.39,-0.048,0.86,0.093
43.4,-0.346,0.983,0.016
43.41,-0.323,0.919,-0.135
43.42,-0.207,1.277,-0.022
43.43,-0.232,0.705,0.144
43.44,-0.044,1.03,0.156
43.45,-0.394,0.922,-0.187
43.46,-0.295,0.931,-0.038
43.47,0.051,1.197,-0.022
43.48,-0.106,0.677,0.144
43.49,-0.344,1.106,0.029
43.5,-0.203,0.88,-0.234
43.51,-0.193,1.196,0.011
43.52,-0.245,0.784,0.213
43.53,-0.037,0.916,0.084
43.54,-0.509,1.023,-0.197
43.55,-0.046,0.917,-0.088
43.56,-0.068,1.184,0.049
43.57,-0.147,0.761,0.186
43.58,-0.244,1.13,-0.093
43.59,-0.358,0.777,-0.182
43.6,-0.096,1.258,0.122
43.61,-0.014,0.801,0.102
43.62,-0.301,0.911,0.038
43.63,-0.337,1.005,-0.178
43.64,-0.103,1.116,-0.085
43.65,-0.227,0.913,0.115
43.66,-0.055,0.74,0.2
43.67,-0.46,1.213,-0.158
43.68,-0.278,0.761,-0.159
43.69,0.026,1.287,0.071
43.7,-0.367,1.24,-0.254
43.71,-0.106,0.831,0.114
43.72,-0.086,1.152,0.147
43.73,-0.229,0.699,0.028
43.74,-0.411,1.012,-0.12
43.75,-0.072,1.221,-0.083
43.76,-0.215,0.767,0.04
43.77,-0.103,1.04,0.193
43.78,-0.322,0.761,-0.147
43.79,-0.265,1.124,-0.185
43.8,-0.045,0.985,0.085
43.81,-0.107,0.995,0.12
43.82,-0.278,0.815,0.04
43.83,-0.303,1.079,-0.122
43.84,-0.209,1.192,-0.078
43.85,-0.192,0.663,0.161
43.86,-0.071,1.122,0.139
43.87,-0.41,0.77,-0.193
43.88,-0.239,1.081,-0.111
43.89,0.051,1.088,0.046
43.9,-0.241,0.789,0.129
43.91,-0.224,0.906,0.039
43.92,-0.223,1.034,-0.236
43.93,-0.208,1.147,-0.029
43.94,-0.107,0.734,0.23
43.95,-0.109,1.087,0.066
43.96,-0.423,0.799,-0.188
43.97,-0.229,1.161,-0.045
43.98,-0.026,1.038,0.031
43.99,-0.206,0.701,0.151
44.0,-0.246,1.056,-0.001
44.01,-0.307,0.963,-0.218
44.02,-0.272,1.159,0.052
44.03,-0.059,0.797,0.208
44.04,-0.238,0.972,0.059
44.05,-0.43,0.852,-0.186
44.06,-0.031,1.126,-0.085
44.07,-0.141,0.987,0.051
44.08,-0.194,0.699,0.235
44.09,-0.276,1.191,-0.082
44.1,-0.315,0.787,-0.205
44.11,-0.167,1.246,0.147
44.12,-0.032,0.775,0.098
44.13,-0.282,0.943,0.03
44.14,-0.312,1.045,-0.176
44.15,-0.128,0.99,-0.117
44.16,-0.197,0.974,0.084
44.17,-0.02,0.761,0.151
44.18,-0.427,1.151,-0.182
44.19,-0.248,0.74,-0.148
44.2,-0.02,1.394,0.094
44.21,-0.144,0.745,0.133
44.22,-0.256,0.879,0.024
44.23,-0.292,1.159,-0.219
44.24,-0.157,0.937,-0.083
44.25,-0.268,1.015,0.157
44.26,0.055,0.722,0.09
44.27,-0.535,1.21,-0.157
44.28,-0.237,0.797,-0.049
44.29,-0.08,1.277,0.079
44.3,-0.186,0.69,0.155
44.31,-0.289,1.097,0.025
44.32,-0.263,0.999,-0.261
44.33,-0.203,0.943,0.065
44.34,-0.082,1.037,0.126
44.35,-0.084,0.727,0.075
44.36,-0.525,1.217,-0.138
44.37,-0.08,0.882,-0.043
44.38,-0.186,1.231,0.059
44.39,-0.125,0.651,0.154
44.4,-0.243,1.046,-0.085
44.41,-0.373,0.987,-0.18
44.42,-0.088,0.944,0.111
44.43,-0.079,1.137,0.113
44.44,-0.196,0.604,0.01
44.45,-0.411,1.237,-0.176
44.46,0.02,0.925,-0.098
44.47,-0.221,1.04,0.054
44.48,-0.123,0.756,0.215
44.49,-0.352,1.037,-0.143
44.5,-0.399,0.983,-0.152
44.51,-0.003,0.969,0.139
44.52,-0.108,1.122,0.123
44.53,-0.272,0.635,0.04
44.54,-0.355,1.345,-0.206
44.55,-0.074,0.849,-0.084
44.56,-0.231,1.03,0.158
44.57,0.003,0.855,0.17
44.58,-0.49,0.901,-0.24
44.59,-0.216,1.091,-0.085
44.6,0.074,1.016,0.093
44.61,-0.271,0.985,0.122
44.62,-0.172,0.656,-0.015
44.63,-0.346,1.368,-0.253
44.64,-0.169,0.832,0.031
44.65,-0.171,1.037,0.226
44.66,-0.086,0.843,0.037
44.67,-0.518,0.866,-0.171
44.68,-0.113,1.25,-0.039
44.69,-0.031,0.882,0.058
44.7,-0.271,0.977,0.177
44.71,-0.209,0.742,0.003
44.72,-0.361,1.258,-0.227
44.73,-0.112,0.877,0.035
44.74,0.04,1.033,0.131
44.75,-0.297,0.86,0.0
44.76,-0.487,0.835,-0.102
44.77,-0.044,1.338,-0.085
44.78,-0.132,0.71,0.072
44.79,-0.209,1.037,0.233
44.8,-0.275,0.831,-0.141
44.81,-0.423,1.054,-0.156
44.82,0.042,1.063,0.09
44.83,-0.068,0.832,0.097
44.84,-0.391,0.959,0.02
44.85,-0.298,0.943,-0.158
44.86,-0.126,1.203,-0.09
44.87,-0.21,0.703,0.24
44.88,-0.05,1.064,0.063
44.89,-0.395,0.851,-0.191
44.9,-0.262,1.039,-0.021
44.91,-0.047,1.13,0.082
44.92,-0.155,0.656,0.123
44.93,-0.299,1.107,0.026
44.94,-0.301,0.921,-0.263
44.95,-0.173,1.141,0.04
44.96,-0.092,0.824,0.202
44.97,-0.19,0.931,0.072
44.98,-0.393,0.965,-0.16
44.99,-0.053,1.098,-0.069
45.0,-0.167,0.998,0.074
45.01,-0.138,0.717,0.189
45.02,-0.35,1.157,-0.115
45.03,-0.295,0.789,-0.186
45.04,-0.078,1.277,0.128
45.05,-0.091,0.728,0.116
45.06,-0.276,0.897,0.095
45.07,-0.307,1.161,-0.191
45.08,-0.118,0.962,-0.117
45.09,-0.153,1.012,0.141
45.1,-0.021,0.756,0.135
45.11,-0.497,1.165,-0.216
45.12,-0.2,0.764,-0.122
45.13,-0.067,1.287,0.068
45.14,-0.164,0.625,0.166
45.15,-0.265,1.045,-0.003
45.16,-0.317,1.017,-0.241
45.17,-0.088,0.961,0.04
45.18,-0.106,1.104,0.152
45.19,-0.117,0.662,0.027
45.2,-0.467,1.179,-0.182
45.21,-0.024,0.925,-0.074
45.22,-0.211,1.148,0.125
45.23,-0.158,0.711,0.267
45.24,-0.399,1.062,-0.072
45.25,-0.298,0.964,-0.205
45.26,-0.083,0.989,0.136
45.27,-0.09,1.05,0.094
45.28,-0.222,0.661,0.009
45.29,-0.4,1.302,-0.189
45.3,-0.071,0.809,-0.056
45.31,-0.302,1.11,0.171
45.32,-0.004,0.773,0.127
45.33,-0.447,0.985,-0.177
45.34,-0.309,1.085,-0.004
45.35,-0.045,1.028,0.063
45.36,-0.197,0.952,0.105
45.37,-0.214,0.677,0.013
45.38,-0.303,1.339,-0.321
45.39,-0.108,0.786,-0.015
45.4,-0.065,1.131,0.176
45.41,-0.173,0.796,0.092
45.42,-0.501,0.936,-0.139
45.43,-0.005,1.261,-0.095
45.44,-0.166,0.813,0.076
45.45,-0.169,0.971,0.188
45.46,-0.137,0.735,-0.123
45.47,-0.431,1.225,-0.189
45.48,-0.109,0.91,0.115
45.49,-0.089,1.01,0.12
45.5,-0.248,0.805,0.025
45.51,-0.389,0.983,-0.151
45.52,-0.065,1.236,-0.089
45.53,-0.207,0.716,0.116
45.54,-0.12,1.071,0.179
45.55,-0.332,0.77,-0.176
45.56,-0.326,1.09,-0.104
45.57,-0.065,1.063,0.134
45.58,-0.161,0.839,0.126
45.59,-0.33,0.942,0.044
45.6,-0.274,0.971,-0.229
45.61,-0.161,1.187,-0.061
45.62,-0.12,0.73,0.199
45.63,-0.04,1.056,0.05
45.64,-0.385,0.824,-0.202
45.65,-0.208,1.117,-0.009
45.66,-0.016,1.052,0.079
45.67,-0.212,0.725,0.14
45.68,-0.262,1.058,-0.011
45.69,-0.36,0.911,-0.235
45.7,-0.199,1.179,0.065
45.71,-0.138,0.779,0.197
45.72,-0.108,0.994,0.051
45.73,-0.408,0.93,-0.189
45.74,-0.112,1.068,-0.058
45.75,-0.072,1.0,0.062
45.76,-0.179,0.747,0.175
45.77,-0.325,1.141,-0.064
45.78,-0.314,0.799,-0.198
45.79,-0.222,1.252,0.137
45.8,-0.083,0.773,0.088
45.81,-0.236,0.908,0.02
45.82,-0.353,1.091,-0.138
45.83,-0.149,0.976,-0.04
45.84,-0.269,0.95,0.159
45.85,-0.032,0.742,0.163
45.86,-0.392,1.176,-0.197
45.87,-0.279,0.785,-0.083
45.88,-0.01,1.307,0.064
45.89,-0.108,0.708,0.065
45.9,-0.272,0.926,0.085
45.91,-0.398,1.135,-0.241
45.92,-0.091,0.81,-0.036
45.93,-0.146,1.199,0.17
45.94,-0.098,0.716,0.056
45.95,-0.496,1.163,-0.133
45.96,-0.066,0.896,-0.068
45.97,-0.166,1.18,0.028
45.98,-0.161,0.644,0.207
45.99,-0.276,1.094,-0.067
46.0,-0.404,0.907,-0.209
46.01,-0.135,1.012,0.139
46.02,-0.093,1.117,0.105
46.03,-0.161,0.615,0.034
46.04,-0.41,1.279,-0.158
46.05,-0.096,0.912,-0.119
46.06,-0.161,1.037,0.077
46.07,-0.136,0.751,0.215
46.08,-0.363,1.008,-0.152
46.09,-0.323,0.937,-0.164
46.1,-0.058,1.042,0.14
46.11,-0.144,1.039,0.105
46.12,-0.23,0.654,-0.0
46.13,-0.4,1.337,-0.138
46.14,-0.081,0.842,-0.081
46.15,-0.165,1.094,0.142
46.16,-0.031,0.805,0.122
46.17,-0.429,0.923,-0.189
46.18,-0.22,1.075,-0.098
46.19,-0.02,1.017,0.106
46.2,-0.273,0.975,0.152
46.21,-0.263,0.675,0.055
46.22,-0.34,1.366,-0.263
46.23,-0.106,0.796,-0.053
46.24,-0.083,1.066,0.163
46.25,-0.076,0.828,0.031
46.26,-0.496,0.884,-0.147
46.27,-0.082,1.236,-0.057
46.28,-0.097,0.82,0.054
46.29,-0.219,1.031,0.165
46.3,-0.217,0.74,-0.064
46.31,-0.391,1.182,-0.222
46.32,-0.119,0.96,0.087
46.33,-0.066,1.041,0.136
46.34,-0.156,0.788,0.067
46.35,-0.41,0.938,-0.112
46.36,-0.113,1.299,-0.087
46.37,-0.122,0.672,0.074
46.38,-0.127,1.029,0.174
46.39,-0.333,0.821,-0.109
46.4,-0.333,1.142,-0.137
46.41,-0.099,1.044,0.09
46.42,-0.096,0.925,0.104
46.43,-0.245,0.914,-0.006
46.44,-0.363,0.965,-0.132
46.45,-0.168,1.253,-0.079
46.46,-0.131,0.661,0.128
46.47,-0.057,1.095,0.126
46.48,-0.421,0.813,-0.18
46.49,-0.295,1.042,-0.056
46.5,0.003,1.155,0.053
46.51,-0.149,0.704,0.097
46.52,-0.289,1.062,0.052
46.53,-0.281,0.947,-0.25
46.54,-0.175,1.132,-0.039
46.55,-0.087,0.742,0.206
46.56,-0.132,1.006,0.077
46.57,-0.404,0.881,-0.23
46.58,-0.181,1.04,-0.008
46.59,-0.092,1.07,0.065
46.6,-0.171,0.695,0.138
46.61,-0.294,1.147,-0.054
46.62,-0.335,0.833,-0.209
46.63,-0.225,1.165,0.098
46.64,0.003,0.845,0.149
46.65,-0.189,0.957,0.04
46.66,-0.419,0.985,-0.137
46.67,-0.087,0.979,-0.11
46.68,-0.143,1.018,0.085
46.69,-0.157,0.7,0.175
46.7,-0.334,1.162,-0.128
46.71,-0.27,0.81,-0.132
46.72,-0.13,1.257,0.107
46.73,-0.055,0.795,0.113
46.74,-0.191,0.863,0.013
46.75,-0.321,1.032,-0.221
46.76,-0.074,1.007,-0.073
46.77,-0.167,0.975,0.141
46.78,-0.094,0.781,0.113
46.79,-0.464,1.131,-0.149
46.8,-0.246,0.854,-0.048
46.81,-0.087,1.273,0.063
46.82,-0.141,0.661,0.13
46.83,-0.26,1.013,0.028
46.84,-0.413,1.046,-0.206
46.85,-0.115,0.947,0.027
46.86,-0.11,1.1,0.132
46.87,-0.136,0.672,0.062
46.88,-0.468,1.2,-0.157
46.89,-0.102,0.908,-0.069
46.9,-0.135,1.143,0.084
46.91,-0.189,0.74,0.207
46.92,-0.325,0.988,-0.1
46.93,-0.286,1.0,-0.223
46.94,-0.016,0.987,0.088
46.95,-0.117,1.073,0.123
46.96,-0.243,0.612,0.026
46.97,-0.365,1.331,-0.167
46.98,-0.159,0.872,-0.033
46.99,-0.2,1.092,0.113
47.0,-0.055,0.818,0.124
47.01,-0.381,0.902,-0.149
47.02,-0.229,1.104,-0.099
47.03,-0.054,1.004,0.045
47.04,-0.147,0.992,0.123
47.05,-0.193,0.697,0.029
47.06,-0.367,1.342,-0.244
47.07,-0.109,0.819,-0.002
47.08,-0.173,1.07,0.163
47.09,-0.105,0.85,0.085
47.1,-0.417,0.888,-0.16
47.11,-0.257,1.24,-0.028
47.12,-0.131,0.912,0.071
47.13,-0.116,0.966,0.131
47.14,-0.22,0.755,-0.016
47.15,-0.416,1.248,-0.24
47.16,-0.074,0.899,0.031
47.17,-0.155,1.058,0.165
47.18,-0.119,0.845,0.045
47.19,-0.413,0.901,-0.146
47.2,-0.16,1.284,-0.1
47.21,-0.069,0.749,0.08
47.22,-0.175,1.055,0.186
47.23,-0.322,0.771,-0.058
47.24,-0.389,1.146,-0.155
47.25,-0.042,0.998,0.049
47.26,-0.119,0.929,0.157
47.27,-0.199,0.937,0.019
47.28,-0.42,0.868,-0.168
47.29,-0.11,1.293,-0.03
47.3,-0.131,0.734,0.147
47.31,-0.23,1.008,0.15
47.32,-0.292,0.839,-0.14
47.33,-0.256,1.048,-0.138
47.34,-0.079,1.039,0.099
47.35,-0.107,0.797,0.15
47.36,-0.283,1.0,0.007
47.37,-0.404,0.896,-0.115
47.38,-0.135,1.276,-0.04
47.39,-0.151,0.707,0.108
47.4,-0.143,0.988,0.14
47.41,-0.433,0.953,-0.196
47.42,-0.27,1.009,-0.03
47.43,-0.036,1.141,0.08
47.44,-0.204,0.648,0.107
47.45,-0.263,1.073,-0.027
47.46,-0.255,0.908,-0.217
47.47,-0.195,1.167,0.054
47.48,-0.012,0.785,0.102
47.49,-0.219,0.917,0.019
47.5,-0.45,1.03,-0.154
47.51,-0.062,0.993,-0.081
47.52,-0.141,1.071,0.069
47.53,-0.108,0.661,0.201
47.54,-0.379,1.189,-0.152
47.55,-0.249,0.804,-0.139
47.56,0.028,1.27,0.075
47.57,-0.101,0.667,0.094
47.58,-0.314,1.035,0.018
47.59,-0.357,0.979,-0.204
47.6,-0.117,1.057,0.011
47.61,-0.17,1.019,0.146
47.62,-0.035,0.714,0.045
47.63,-0.472,1.188,-0.181
47.64,-0.002,0.853,-0.113
47.65,-0.106,1.185,0.043
47.66,-0.164,0.689,0.185
47.67,-0.316,1.047,-0.079
47.68,-0.31,0.96,-0.211
47.69,-0.074,1.039,0.113
47.7,-0.141,1.005,0.09
47.71,-0.194,0.666,0.053
47.72,-0.378,1.334,-0.2
47.73,-0.083,0.793,-0.053
47.74,-0.191,1.095,0.161
47.75,-0.034,0.792,0.157
47.76,-0.434,0.969,-0.16
47.77,-0.278,1.034,-0.096
47.78,-0.065,1.011,0.078
47.79,-0.143,0.982,0.104
47.8,-0.296,0.666,0.046
47.81,-0.398,1.374,-0.248
47.82,-0.012,0.755,0.003
47.83,-0.194,1.116,0.157
47.84,-0.039,0.828,0.06
47.85,-0.443,0.903,-0.188
47.86,-0.214,1.148,-0.022
47.87,-0.062,0.938,0.071
47.88,-0.181,0.989,0.111
47.89,-0.208,0.716,-0.016
47.9,-0.385,1.305,-0.182
47.91,-0.193,0.865,0.083
47.92,-0.054,1.05,0.125
47.93,-0.113,0.826,0.018
47.94,-0.508,0.971,-0.08
47.95,-0.125,1.196,-0.06
47.96,-0.113,0.744,0.063
47.97,-0.143,1.093,0.123
47.98,-0.32,0.706,-0.191
47.99,-0.297,1.109,-0.121
48.0,-0.033,1.074,0.127
48.01,-0.203,0.852,0.127
48.02,-0.228,0.911,0.069
48.03,-0.357,0.978,-0.216
48.04,-0.138,1.17,-0.047
48.05,-0.181,0.754,0.222
48.06,-0.15,1.057,0.093
48.07,-0.355,0.816,-0.198
48.08,-0.225,1.161,-0.054
48.09,-0.031,0.983,0.056
48.1,-0.204,0.724,0.258
48.11,-0.207,1.115,-0.022
48.12,-0.45,0.902,-0.177
48.13,-0.117,1.105,0.007
48.14,-0.086,0.815,0.171
48.15,-0.176,1.017,0.039
48.16,-0.354,0.871,-0.168
48.17,-0.201,1.133,-0.005
48.18,-0.103,1.004,0.09
48.19,-0.148,0.712,0.189
48.2,-0.298,1.157,-0.115
48.21,-0.315,0.811,-0.145
48.22,-0.157,1.254,0.074
48.23,-0.107,0.804,0.149
48.24,-0.191,0.923,0.028
48.25,-0.429,1.055,-0.144
48.26,-0.174,1.049,-0.055
48.27,-0.172,0.971,0.085
48.28,-0.096,0.705,0.187
48.29,-0.472,1.141,-0.148
48.3,-0.212,0.753,-0.193
48.31,-0.017,1.312,0.051
48.32,-0.091,0.705,0.113
48.33,-0.263,0.892,0.041
48.34,-0.31,1.151,-0.216
48.35,-0.102,0.898,-0.085
48.36,-0.24,1.107,0.17
48.37,-0.029,0.718,0.127
