t,ax,ay,az
0.0,-0.313,1.091,-0.176
0.01,-0.064,1.04,0.133
0.02,-0.122,0.896,0.124
0.03,-0.218,0.918,0.003
0.04,-0.369,0.979,-0.164
0.05,-0.187,1.217,-0.023
0.06,-0.125,0.684,0.184
0.07,-0.174,1.052,0.135
0.08,-0.383,0.807,-0.159
0.09,-0.17,1.095,-0.105
0.1,-0.07,1.089,0.087
0.11,-0.141,0.737,0.151
0.12,-0.244,1.013,-0.016
0.13,-0.352,0.969,-0.183
0.14,-0.105,1.162,-0.011
0.15,-0.154,0.756,0.2
0.16,-0.161,1.008,0.105
0.17,-0.348,0.871,-0.19
0.18,-0.228,1.081,-0.037
0.19,-0.049,1.016,0.019
0.2,-0.092,0.686,0.138
0.21,-0.3,1.139,-0.075
0.22,-0.25,0.87,-0.192
0.23,-0.183,1.177,0.039
0.24,-0.136,0.774,0.167
0.25,-0.073,0.968,0.039
0.26,-0.42,0.998,-0.218
0.27,-0.119,0.979,-0.077
0.28,-0.133,1.006,0.103
0.29,-0.1,0.722,0.154
0.3,-0.407,1.133,-0.115
0.31,-0.248,0.8,-0.168
0.32,-0.182,1.261,0.102
0.33,-0.149,0.769,0.151
0.34,-0.204,0.918,0.036
0.35,-0.372,1.05,-0.206
0.36,-0.115,0.989,-0.04
0.37,-0.111,1.007,0.109
0.38,-0.133,0.706,0.163
0.39,-0.389,1.173,-0.202
0.4,-0.209,0.769,-0.16
0.41,-0.119,1.323,0.157
0.42,-0.204,0.758,0.184
0.43,-0.22,0.908,-0.027
0.44,-0.334,1.112,-0.187
0.45,-0.171,0.901,0.042
0.46,-0.184,1.073,0.143
0.47,-0.142,0.759,0.076
0.48,-0.468,1.18,-0.213
0.49,0.009,0.864,-0.08
0.5,-0.185,1.165,0.092
0.51,-0.123,0.667,0.198
0.52,-0.3,1.173,-0.07
0.53,-0.296,0.898,-0.203
0.54,-0.125,1.064,0.109
0.55,-0.044,1.032,0.076
0.56,-0.185,0.698,-0.007
0.57,-0.456,1.279,-0.168
0.58,-0.105,0.868,-0.055
0.59,-0.198,1.128,0.116
0.6,-0.119,0.692,0.209
0.61,-0.427,1.069,-0.138
0.62,-0.257,0.959,-0.149
0.63,-0.074,1.077,0.111
0.64,-0.183,0.909,0.128
0.65,-0.194,0.679,0.019
0.66,-0.368,1.372,-0.2
0.67,-0.167,0.771,-0.009
0.68,-0.187,1.149,0.182
0.69,-0.125,0.769,0.114
0.7,-0.426,0.985,-0.2
0.71,-0.156,1.103,-0.057
0.72,-0.154,1.021,0.099
0.73,-0.09,0.931,0.106
0.74,-0.295,0.708,0.026
0.75,-0.333,1.293,-0.26
0.76,-0.069,0.831,0.004
0.77,-0.174,1.139,0.206
0.78,-0.184,0.759,0.092
0.79,-0.404,1.021,-0.203
0.8,-0.11,1.184,-0.019
0.81,-0.153,0.855,0.091
0.82,-0.204,0.985,0.174
0.83,-0.245,0.716,-0.091
0.84,-0.337,1.223,-0.18
0.85,-0.058,0.889,0.099
0.86,-0.163,1.083,0.113
0.87,-0.163,0.7,0.048
0.88,-0.4,1.078,-0.107
0.89,-0.22,1.202,-0.087
0.9,-0.041,0.716,0.095
0.91,-0.125,1.119,0.15
0.92,-0.416,0.68,-0.152
0.93,-0.315,1.177,-0.095
0.94,-0.003,0.992,0.078
0.95,-0.207,0.9,0.113
0.96,-0.161,0.881,0.019
0.97,-0.356,1.083,-0.199
0.98,-0.162,1.068,-0.029
0.99,-0.059,0.809,0.204
1.0,-0.234,1.079,0.031
1.01,-0.351,0.73,-0.174
1.02,-0.184,1.284,-0.077
1.03,-0.116,0.958,0.059
1.04,-0.165,0.761,0.141
1.05,-0.209,0.99,-0.011
1.06,-0.439,0.979,-0.183
1.07,-0.139,1.099,0.046
1.08,-0.016,0.834,0.163
1.09,-0.249,0.998,0.061
1.1,-0.332,0.878,-0.19
1.11,-0.144,1.222,-0.074
1.12,-0.203,0.794,0.145
1.13,-0.064,0.861,0.2
1.14,-0.415,1.067,-0.169
1.15,-0.263,0.75,-0.185
1.16,-0.039,1.332,0.065
1.17,-0.194,0.712,0.109
1.18,-0.162,0.997,0.065
1.19,-0.323,1.014,-0.206
1.2,-0.152,1.107,-0.055
1.21,-0.265,0.834,0.178
1.22,-0.076,0.805,0.147
1.23,-0.458,1.075,-0.162
1.24,-0.139,0.824,-0.14
1.25,-0.11,1.302,0.113
1.26,-0.133,0.607,0.16
1.27,-0.266,1.049,0.042
1.28,-0.341,0.899,-0.265
1.29,-0.055,1.134,-0.002
1.3,-0.114,0.851,0.173
1.31,-0.225,0.886,0.085
1.32,-0.425,1.067,-0.167
1.33,-0.159,0.992,-0.073
1.34,-0.13,1.068,0.094
1.35,-0.105,0.704,0.194
1.36,-0.344,1.155,-0.123
1.37,-0.277,0.818,-0.159
1.38,-0.116,1.233,0.131
1.39,-0.129,0.801,0.114
1.4,-0.246,0.851,0.048
1.41,-0.328,1.203,-0.207
1.42,-0.146,0.905,-0.062
1.43,-0.128,1.085,0.135
1.44,-0.075,0.751,0.158
1.45,-0.436,1.099,-0.18
1.46,-0.225,0.855,-0.112
1.47,-0.077,1.233,0.058
1.48,-0.138,0.757,0.137
1.49,-0.292,0.846,0.035
1.5,-0.386,1.258,-0.22
1.51,-0.078,0.781,-0.033
1.52,-0.138,1.198,0.142
1.53,-0.181,0.641,0.12
1.54,-0.422,1.122,-0.223
1.55,-0.057,0.961,-0.091
1.56,-0.16,1.088,0.102
1.57,-0.19,0.829,0.158
1.58,-0.247,0.808,-0.05
1.59,-0.351,1.226,-0.181
1.6,-0.123,0.856,0.106
1.61,-0.185,1.134,0.116
1.62,-0.043,0.63,-0.024
1.63,-0.473,1.229,-0.185
1.64,-0.131,0.931,-0.058
1.65,-0.058,0.975,0.106
1.66,-0.141,0.977,0.173
1.67,-0.449,0.793,-0.108
1.68,-0.228,1.223,-0.142
1.69,-0.136,0.92,0.13
1.7,-0.231,0.995,0.165
1.71,-0.169,0.705,0.003
1.72,-0.378,1.27,-0.236
1.73,-0.136,0.938,-0.025
1.74,-0.127,0.949,0.18
1.75,-0.152,0.987,0.135
1.76,-0.059,0.998,0.126
1.77,-0.163,1.071,0.108
1.78,-0.106,0.631,-0.023
1.79,-0.445,1.311,-0.157
1.8,-0.142,0.902,0.025
1.81,-0.189,1.019,0.13
1.82,-0.109,0.883,0.064
1.83,-0.389,0.899,-0.206
1.84,-0.255,1.223,-0.034
1.85,-0.125,0.865,0.103
1.86,-0.179,0.978,0.131
1.87,-0.235,0.731,-0.026
1.88,-0.301,1.258,-0.269
1.89,-0.104,0.87,-0.028
1.9,-0.055,1.0,0.16
1.91,-0.131,0.88,0.042
1.92,-0.482,0.892,-0.169
1.93,-0.141,1.279,-0.014
1.94,-0.108,0.76,0.049
1.95,-0.19,1.033,0.191
1.96,-0.265,0.768,-0.103
1.97,-0.32,1.156,-0.2
1.98,0.055,1.016,0.063
1.99,-0.194,0.861,0.14
2.0,-0.227,0.909,0.016
2.01,-0.375,0.996,-0.156
2.02,-0.185,1.208,0.021
2.03,-0.181,0.717,0.148
2.04,-0.234,1.059,0.087
2.05,-0.377,0.745,-0.187
2.06,-0.19,1.269,-0.06
2.07,-0.083,0.928,0.119
2.08,-0.149,0.874,0.118
2.09,-0.282,0.887,-0.057
2.1,-0.299,1.004,-0.217
2.11,-0.112,1.174,0.028
2.12,-0.093,0.748,0.146
2.13,-0.255,1.071,0.056
2.14,-0.304,0.802,-0.22
2.15,-0.173,1.254,-0.029
2.16,-0.147,0.807,0.164
2.17,-0.139,0.864,0.175
2.18,-0.424,1.021,-0.129
2.19,-0.284,0.927,-0.164
2.2,-0.046,1.272,0.073
2.21,-0.134,0.66,0.11
2.22,-0.234,1.038,0.013
2.23,-0.381,0.969,-0.194
2.24,-0.164,1.101,-0.064
2.25,-0.116,0.789,0.153
2.26,-0.132,0.898,0.103
2.27,-0.439,1.016,-0.225
2.28,-0.208,0.833,-0.045
2.29,-0.088,1.312,0.107
2.3,-0.145,0.556,0.137
2.31,-0.311,1.107,-0.02
2.32,-0.273,0.97,-0.24
2.33,-0.083,1.028,-0.021
2.34,-0.036,0.944,0.175
2.35,-0.226,0.794,0.019
2.36,-0.426,1.115,-0.181
2.37,-0.049,0.932,-0.123
2.38,-0.162,1.107,0.062
2.39,-0.022,0.679,0.196
2.4,-0.433,1.124,-0.134
2.41,-0.278,0.881,-0.143
2.42,-0.016,1.173,0.046
2.43,-0.148,0.855,0.115
2.44,-0.212,0.784,0.016
2.45,-0.399,1.287,-0.23
2.46,-0.118,0.762,-0.018
2.47,-0.087,1.221,0.155
2.48,-0.111,0.676,0.091
2.49,-0.463,1.083,-0.163
2.5,-0.14,1.023,-0.073
2.51,-0.204,1.044,0.146
2.52,-0.159,0.867,0.168
2.53,-0.27,0.746,-0.075
2.54,-0.324,1.26,-0.18
2.55,-0.068,0.898,0.072
2.56,-0.234,1.11,0.087
2.57,-0.068,0.653,0.076
2.58,-0.424,1.179,-0.214
2.59,-0.154,1.021,-0.112
2.6,-0.059,0.837,0.109
2.61,-0.187,1.001,0.158
2.62,-0.35,0.733,-0.122
2.63,-0.3,1.201,-0.15
2.64,-0.052,0.919,0.129
2.65,-0.217,1.049,0.11
2.66,-0.174,0.712,0.001
2.67,-0.382,1.166,-0.136
2.68,-0.165,1.045,-0.053
2.69,-0.1,0.777,0.149
2.7,-0.156,1.063,0.087
2.71,-0.405,0.762,-0.188
2.72,-0.156,1.273,-0.044
2.73,-0.123,0.891,0.126
2.74,-0.179,0.917,0.102
2.75,-0.14,0.863,-0.069
2.76,-0.341,1.063,-0.261
2.77,-0.123,1.094,0.068
2.78,-0.071,0.823,0.113
2.79,-0.16,0.967,0.04
2.8,-0.422,0.895,-0.108
2.81,-0.193,1.269,-0.066
2.82,-0.197,0.717,0.106
2.83,-0.107,0.983,0.157
2.84,-0.311,0.888,-0.165
2.85,-0.251,1.129,-0.12
2.86,-0.03,1.051,0.072
2.87,-0.14,0.746,0.094
2.88,-0.237,0.983,0.022
2.89,-0.375,0.941,-0.176
2.9,-0.071,1.167,-0.044
2.91,-0.124,0.827,0.178
2.92,-0.128,0.984,0.046
2.93,-0.364,0.83,-0.176
2.94,-0.222,1.182,-0.023
2.95,-0.016,0.999,0.071
2.96,-0.161,0.738,0.144
2.97,-0.314,1.076,-0.055
2.98,-0.312,0.878,-0.201
2.99,-0.125,1.217,0.05
3.0,-0.102,0.729,0.166
3.01,-0.12,0.985,0.002
3.02,-0.416,0.953,-0.203
3.03,-0.143,1.043,-0.052
3.04,-0.092,0.971,0.113
3.05,-0.198,0.74,0.169
3.06,-0.323,1.156,-0.12
3.07,-0.26,0.802,-0.171
3.08,-0.175,1.268,0.142
3.09,-0.101,0.708,0.103
3.1,-0.257,0.948,-0.013
3.11,-0.291,1.042,-0.186
3.12,-0.149,0.972,-0.023
3.13,-0.219,1.011,0.178
3.14,-0.035,0.744,0.095
3.15,-0.483,1.142,-0.161
3.16,-0.242,0.861,-0.07
3.17,0.0,1.269,0.075
3.18,-0.205,0.66,0.15
3.19,-0.302,0.994,-0.014
3.2,-0.336,1.041,-0.232
3.21,-0.151,0.919,0.079
3.22,-0.146,1.122,0.167
3.23,-0.047,0.672,0.042
3.24,-0.502,1.22,-0.172
3.25,-0.198,0.852,0.005
3.26,-0.121,1.155,0.074
3.27,-0.26,0.764,0.179
3.28,-0.28,0.951,-0.095
3.29,-0.207,1.059,-0.213
3.3,-0.128,0.992,0.135
3.31,-0.078,1.074,0.121
3.32,-0.122,0.616,0.026
3.33,-0.532,1.322,-0.12
3.34,-0.045,0.897,-0.086
3.35,-0.207,1.068,0.087
3.36,-0.164,0.8,0.174
3.37,-0.288,0.948,-0.189
3.38,-0.319,1.105,-0.116
3.39,-0.027,0.92,0.164
3.4,-0.142,1.091,0.11
3.41,-0.244,0.631,0.011
3.42,-0.388,1.323,-0.176
3.43,-0.074,0.865,-0.028
3.44,-0.149,1.031,0.142
3.45,-0.134,0.869,0.068
3.46,-0.371,0.866,-0.196
3.47,-0.222,1.232,-0.096
3.48,-0.099,0.861,0.141
3.49,-0.172,1.0,0.112
3.5,-0.233,0.72,-0.007
3.51,-0.382,1.262,-0.21
3.52,-0.079,0.904,0.004
3.53,-0.166,1.052,0.14
3.54,-0.154,0.894,0.015
3.55,-0.353,0.867,-0.164
3.56,-0.232,1.278,-0.064
3.57,-0.048,0.773,0.1
3.58,-0.153,1.089,0.145
3.59,-0.253,0.79,-0.109
3.6,-0.33,1.153,-0.148
3.61,-0.092,1.024,0.104
3.62,-0.106,0.901,0.102
3.63,-0.249,0.939,-0.009
3.64,-0.355,0.949,-0.129
3.65,-0.194,1.211,-0.055
3.66,-0.118,0.781,0.234
3.67,-0.194,1.077,0.122
3.68,-0.347,0.727,-0.173
3.69,-0.249,1.291,-0.075
3.7,-0.077,0.923,0.084
3.71,-0.14,0.864,0.12
3.72,-0.192,0.931,-0.061
3.73,-0.37,1.048,-0.215
3.74,-0.119,1.093,0.041
3.75,-0.098,0.878,0.167
3.76,-0.241,1.026,0.081
3.77,-0.314,0.742,-0.196
3.78,-0.21,1.285,-0.09
3.79,-0.099,0.832,0.076
3.8,-0.134,0.844,0.153
3.81,-0.296,0.99,-0.071
3.82,-0.282,0.945,-0.175
3.83,-0.088,1.171,0.048
3.84,-0.085,0.773,0.127
3.85,-0.2,1.002,0.058
3.86,-0.403,0.872,-0.166
3.87,-0.053,1.227,-0.134
3.88,-0.169,0.794,0.093
3.89,-0.171,0.869,0.204
3.9,-0.353,1.03,-0.144
3.91,-0.26,0.818,-0.194
3.92,-0.094,1.265,0.158
3.93,-0.127,0.691,0.144
3.94,-0.301,0.993,0.018
3.95,-0.293,0.978,-0.182
3.96,-0.165,1.087,-0.051
3.97,-0.156,0.862,0.164
3.98,-0.133,0.857,0.13
3.99,-0.363,1.086,-0.175
4.0,-0.237,0.867,-0.032
4.01,-0.157,1.268,0.085
4.02,-0.122,0.629,0.132
4.03,-0.275,1.077,-0.024
4.04,-0.343,0.941,-0.217
4.05,-0.095,1.021,-0.035
4.06,-0.138,1.018,0.17
4.07,-0.164,0.767,0.113
4.08,-0.408,1.091,-0.187
4.09,-0.141,0.865,-0.042
4.1,-0.198,1.268,0.109
4.11,-0.078,0.604,0.141
4.12,-0.3,1.076,-0.056
4.13,-0.32,0.986,-0.21
4.14,-0.057,0.99,-0.019
4.15,-0.166,1.033,0.126
4.16,-0.113,0.753,0.102
4.17,-0.437,1.163,-0.206
4.18,-0.095,0.847,-0.062
4.19,-0.228,1.238,0.124
4.2,-0.122,0.629,0.166
4.21,-0.359,1.059,-0.066
4.22,-0.335,1.019,-0.185
4.23,-0.109,0.948,0.027
4.24,-0.115,1.094,0.147
4.25,-0.085,0.681,0.028
4.26,-0.427,1.263,-0.218
4.27,-0.117,0.841,-0.049
4.28,-0.161,1.148,0.072
4.29,-0.091,0.738,0.179
4.3,-0.424,0.993,-0.126
4.31,-0.247,0.977,-0.187
4.32,-0.078,1.044,0.124
4.33,-0.201,1.022,0.107
4.34,-0.157,0.643,0.043
4.35,-0.341,1.364,-0.166
4.36,-0.215,0.897,-0.007
4.37,-0.253,1.079,0.17
4.38,-0.041,0.799,0.127
4.39,-0.45,0.948,-0.156
4.4,-0.273,1.064,-0.078
4.41,-0.061,0.965,0.017
4.42,-0.15,0.953,0.083
4.43,-0.156,0.727,0.061
4.44,-0.419,1.321,-0.263
4.45,-0.11,0.739,-0.03
4.46,-0.118,1.143,0.177
4.47,-0.134,0.838,0.081
4.48,-0.43,0.902,-0.169
4.49,-0.08,1.104,-0.069
4.5,-0.145,0.984,0.069
4.51,-0.114,0.872,0.153
4.52,-0.233,0.782,-0.041
4.53,-0.451,1.258,-0.179
4.54,-0.079,0.818,0.096
4.55,-0.158,1.191,0.142
4.56,-0.169,0.68,0.061
4.57,-0.377,1.098,-0.182
4.58,-0.136,1.127,-0.089
4.59,-0.17,0.853,0.101
4.6,-0.082,0.976,0.149
4.61,-0.323,0.762,-0.09
4.62,-0.375,1.207,-0.094
4.63,-0.031,0.904,0.085
4.64,-0.182,1.139,0.128
4.65,-0.205,0.726,0.049
4.66,-0.374,1.069,-0.164
4.67,-0.166,1.162,-0.102
4.68,-0.127,0.756,0.103
4.69,-0.169,1.042,0.169
4.7,-0.312,0.766,-0.172
4.71,-0.263,1.149,-0.198
4.72,0.013,0.988,0.076
4.73,-0.181,0.986,0.119
4.74,-0.123,0.77,-0.01
4.75,-0.452,1.134,-0.115
4.76,-0.093,1.092,-0.089
4.77,-0.2,0.758,0.198
4.78,-0.172,1.053,0.119
4.79,-0.356,0.754,-0.173
4.8,-0.238,1.222,-0.088
4.81,-0.069,0.92,0.036
4.82,-0.096,0.841,0.113
4.83,-0.224,0.938,0.009
4.84,-0.337,1.016,-0.192
4.85,-0.154,1.115,-0.007
4.86,-0.145,0.773,0.136
4.87,-0.13,1.075,0.032
4.88,-0.354,0.785,-0.194
4.89,-0.184,1.224,-0.075
4.9,-0.125,0.946,0.095
4.91,-0.102,0.773,0.161
4.92,-0.28,1.017,-0.011
4.93,-0.41,0.955,-0.164
4.94,-0.098,1.119,0.002
4.95,-0.09,0.819,0.144
4.96,-0.162,1.062,0.09
4.97,-0.314,0.847,-0.164
4.98,-0.182,1.196,-0.081
4.99,-0.131,0.899,0.102
5.0,-0.112,0.785,0.137
5.01,-0.318,1.072,-0.073
5.02,-0.346,0.855,-0.185
5.03,-0.104,1.223,0.045
5.04,-0.067,0.729,0.137
5.05,-0.218,1.002,0.073
5.06,-0.311,0.929,-0.197
5.07,-0.119,1.119,-0.092
5.08,-0.167,0.904,0.124
5.09,-0.132,0.783,0.154
5.1,-0.354,1.134,-0.133
5.11,-0.289,0.81,-0.152
5.12,-0.245,1.247,0.098
5.13,-0.081,0.75,0.151
5.14,-0.186,0.977,0.026
5.15,-0.406,0.963,-0.156
5.16,-0.135,1.036,-0.079
5.17,-0.068,0.963,0.083
5.18,-0.113,0.76,0.158
5.19,-0.421,1.143,-0.124
5.2,-0.218,0.782,-0.136
5.21,-0.131,1.323,0.099
5.22,-0.154,0.708,0.15
5.23,-0.203,0.942,0.048
5.24,-0.376,1.049,-0.21
5.25,-0.139,0.96,0.003
5.26,-0.147,1.037,0.116
5.27,-0.172,0.707,0.137
5.28,-0.408,1.168,-0.152
5.29,-0.222,0.846,-0.11
5.3,-0.09,1.214,0.075
5.31,-0.074,0.631,0.146
5.32,-0.379,1.108,-0.009
5.33,-0.292,0.924,-0.225
5.34,-0.083,1.052,0.016
5.35,-0.163,0.967,0.223
5.36,-0.186,0.767,0.062
5.37,-0.422,1.152,-0.216
5.38,-0.037,0.877,-0.109
5.39,-0.125,1.135,0.067
5.4,-0.051,0.708,0.173
5.41,-0.383,1.128,-0.111
5.42,-0.314,0.841,-0.143
5.43,-0.071,1.172,0.144
5.44,-0.17,0.96,0.093
5.45,-0.196,0.715,0.041
5.46,-0.401,1.284,-0.166
5.47,-0.187,0.85,-0.015
5.48,-0.129,1.159,0.112
5.49,-0.04,0.697,0.152
5.5,-0.435,1.044,-0.157
5.51,-0.178,0.983,-0.172
5.52,-0.116,1.104,0.066
5.53,-0.132,0.923,0.126
5.54,-0.188,0.683,-0.02
5.55,-0.437,1.281,-0.211
5.56,-0.101,0.81,0.048
5.57,-0.169,1.206,0.089
5.58,-0.111,0.716,0.121
5.59,-0.385,1.013,-0.185
5.6,-0.151,1.089,-0.093
5.61,-0.186,0.993,0.129
5.62,-0.1,0.889,0.147
5.63,-0.2,0.712,-0.036
5.64,-0.423,1.315,-0.159
5.65,-0.049,0.822,0.01
5.66,-0.183,1.126,0.1
5.67,-0.127,0.728,0.147
5.68,-0.419,1.043,-0.19
5.69,-0.157,1.096,-0.086
5.7,-0.057,0.879,0.092
5.71,-0.175,1.02,0.159
5.72,-0.293,0.728,-0.077
5.73,-0.367,1.192,-0.178
5.74,-0.059,0.938,0.056
5.75,-0.159,1.084,0.082
5.76,-0.13,0.757,0.007
5.77,-0.42,0.987,-0.137
5.78,-0.169,1.149,-0.082
5.79,-0.062,0.833,0.111
5.8,-0.207,1.049,0.137
5.81,-0.31,0.743,-0.101
5.82,-0.298,1.19,-0.146
5.83,-0.133,0.952,0.124
5.84,-0.128,1.01,0.17
5.85,-0.165,0.829,-0.002
5.86,-0.514,1.013,-0.105
5.87,-0.16,1.198,-0.008
5.88,-0.144,0.739,0.174
5.89,-0.231,1.085,0.17
5.9,-0.289,0.746,-0.24
5.91,-0.243,1.123,-0.14
5.92,-0.042,1.035,0.127
5.93,-0.196,0.852,0.152
5.94,-0.25,0.907,0.049
5.95,-0.344,0.986,-0.221
5.96,-0.094,1.118,-0.059
5.97,-0.141,0.761,0.18
5.98,-0.151,1.048,0.089
5.99,-0.329,0.807,-0.217
6.0,-0.162,1.193,-0.094
6.01,-0.137,1.014,0.048
6.02,-0.112,0.749,0.151
6.03,-0.203,1.021,-0.089
6.04,-0.361,0.932,-0.178
6.05,-0.118,1.165,0.018
6.06,-0.103,0.792,0.132
6.07,-0.14,1.065,0.079
6.08,-0.34,0.854,-0.22
6.09,-0.153,1.091,-0.034
6.1,-0.135,0.994,0.058
6.11,-0.12,0.75,0.197
6.12,-0.319,0.955,-0.119
6.13,-0.327,0.918,-0.121
6.14,-0.124,1.232,0.102
6.15,-0.096,0.747,0.111
6.16,-0.258,1.035,0.018
6.17,-0.392,0.905,-0.17
6.18,-0.123,1.198,-0.006
6.19,-0.142,0.79,0.123
6.2,-0.171,0.898,0.152
6.21,-0.36,1.032,-0.18
6.22,-0.202,0.888,-0.092
6.23,-0.158,1.274,0.114
6.24,-0.068,0.634,0.133
6.25,-0.315,1.083,-0.001
6.26,-0.389,0.918,-0.204
6.27,-0.062,1.14,0.009
6.28,-0.187,0.893,0.146
6.29,-0.092,0.846,0.08
6.3,-0.392,1.122,-0.214
6.31,-0.217,0.88,0.004
6.32,-0.086,1.231,0.057
6.33,-0.11,0.614,0.065
6.34,-0.337,1.093,-0.034
6.35,-0.286,0.916,-0.192
6.36,-0.07,1.112,0.024
6.37,-0.107,0.937,0.147
6.38,-0.174,0.725,0.02
6.39,-0.479,1.19,-0.188
6.4,-0.02,0.89,-0.126
6.41,-0.126,1.142,0.105
6.42,-0.184,0.656,0.173
6.43,-0.392,1.117,-0.158
6.44,-0.213,0.894,-0.168
6.45,-0.116,1.124,0.139
6.46,-0.16,0.905,0.119
6.47,-0.232,0.721,0.009
6.48,-0.38,1.284,-0.188
6.49,-0.12,0.831,0.011
6.5,-0.161,1.166,0.131
6.51,-0.08,0.716,0.08
6.52,-0.466,1.082,-0.178
6.53,-0.114,1.013,-0.08
6.54,-0.068,1.034,0.078
6.55,-0.168,0.876,0.147
6.56,-0.221,0.764,-0.044
6.57,-0.411,1.295,-0.204
6.58,-0.077,0.79,0.044
6.59,-0.065,1.172,0.144
6.6,-0.212,0.678,-0.008
6.61,-0.415,1.107,-0.173
6.62,-0.004,1.114,-0.085
6.63,-0.132,0.834,0.118
6.64,-0.187,1.014,0.176
6.65,-0.316,0.755,-0.138
6.66,-0.33,1.241,-0.123
6.67,-0.056,0.903,0.108
6.68,-0.093,0.998,0.123
6.69,-0.338,0.757,0.016
6.7,-0.262,1.13,-0.215
6.71,-0.12,1.088,-0.034
6.72,-0.161,0.771,0.196
6.73,-0.15,1.027,0.078
6.74,-0.405,0.801,-0.209
6.75,-0.167,1.253,-0.062
6.76,-0.051,0.824,0.104
6.77,-0.189,0.958,0.167
6.78,-0.245,0.85,-0.09
6.79,-0.33,1.01,-0.123
6.8,-0.14,1.206,0.128
6.81,-0.091,0.765,0.127
6.82,-0.242,1.021,-0.024
6.83,-0.355,0.89,-0.147
6.84,-0.201,1.25,-0.028
6.85,-0.142,0.747,0.12
6.86,-0.127,0.957,0.151
6.87,-0.381,0.96,-0.158
6.88,-0.207,0.945,-0.14
6.89,-0.121,1.219,0.096
6.9,-0.074,0.592,0.094
6.91,-0.284,1.117,-0.011
6.92,-0.317,0.895,-0.262
6.93,-0.063,1.154,0.031
6.94,-0.086,0.775,0.144
6.95,-0.267,0.947,0.111
6.96,-0.335,0.962,-0.212
6.97,-0.16,1.071,-0.116
6.98,-0.117,0.922,0.105
6.99,-0.164,0.774,0.172
7.0,-0.399,1.172,-0.128
7.01,-0.311,0.801,-0.131
7.02,-0.125,1.259,0.147
7.03,-0.096,0.713,0.127
7.04,-0.228,0.925,0.009
7.05,-0.416,1.091,-0.158
7.06,-0.126,0.941,-0.006
7.07,-0.198,1.011,0.117
7.08,-0.091,0.735,0.122
7.09,-0.403,1.193,-0.204
7.1,-0.258,0.845,-0.017
7.11,-0.054,1.212,0.101
7.12,-0.134,0.701,0.138
7.13,-0.303,0.95,-0.01
7.14,-0.299,1.115,-0.262
7.15,-0.124,0.91,0.029
7.16,-0.058,1.139,0.135
7.17,-0.176,0.629,-0.0
7.18,-0.512,1.208,-0.109
7.19,-0.092,0.914,-0.037
7.2,-0.176,1.083,0.071
7.21,-0.08,0.794,0.163
7.22,-0.335,0.919,-0.158
7.23,-0.316,1.068,-0.17
7.24,0.066,0.987,0.07
7.25,-0.174,1.053,0.09
7.26,-0.243,0.642,0.036
7.27,-0.443,1.336,-0.173
7.28,-0.094,0.802,-0.041
7.29,-0.219,1.11,0.18
7.3,-0.114,0.855,0.115
7.31,-0.364,0.875,-0.223
7.32,-0.132,1.258,-0.101
7.33,-0.047,0.836,0.09
7.34,-0.191,1.001,0.176
7.35,-0.216,0.704,-0.043
7.36,-0.375,1.251,-0.233
7.37,-0.068,0.9,0.046
7.38,-0.187,1.034,0.129
7.39,-0.144,0.823,0.053
7.4,-0.381,0.916,-0.179
7.41,-0.171,1.264,-0.066
7.42,-0.086,0.708,0.12
7.43,-0.18,1.093,0.125
7.44,-0.264,0.744,-0.114
7.45,-0.277,1.142,-0.124
7.46,-0.108,1.075,0.121
7.47,-0.184,0.861,0.141
7.48,-0.209,0.942,0.02
7.49,-0.426,0.968,-0.151
7.5,-0.076,1.19,-0.055
7.51,-0.059,0.709,0.12
7.52,-0.238,1.086,0.139
7.53,-0.255,0.816,-0.183
7.54,-0.293,1.111,-0.139
7.55,-0.098,1.002,0.108
7.56,-0.089,0.806,0.115
7.57,-0.315,1.033,-0.047
7.58,-0.309,0.912,-0.188
7.59,-0.122,1.181,0.035
7.6,-0.154,0.751,0.206
7.61,-0.138,1.03,0.059
7.62,-0.304,0.863,-0.243
7.63,-0.207,1.091,-0.039
7.64,-0.089,1.004,0.106
7.65,-0.132,0.752,0.154
7.66,-0.345,1.073,-0.106
7.67,-0.309,0.833,-0.149
7.68,-0.115,1.269,0.084
7.69,-0.153,0.719,0.144
7.7,-0.182,0.96,0.052
7.71,-0.332,1.035,-0.258
7.72,-0.118,1.009,-0.059
7.73,-0.092,0.959,0.119
7.74,-0.204,0.75,0.177
7.75,-0.401,1.022,-0.158
7.76,-0.199,0.895,-0.118
7.77,-0.051,1.244,0.106
7.78,-0.172,0.621,0.126
7.79,-0.289,1.033,-0.005
7.8,-0.264,0.971,-0.208
7.81,-0.041,1.092,0.009
7.82,-0.203,0.91,0.178
7.83,-0.198,0.783,0.059
7.84,-0.392,1.148,-0.219
7.85,-0.116,0.896,-0.061
7.86,-0.17,1.143,0.124
7.87,-0.189,0.704,0.147
7.88,-0.383,1.078,-0.116
7.89,-0.186,0.872,-0.198
7.9,-0.066,1.166,0.141
7.91,-0.181,0.908,0.109
7.92,-0.193,0.727,-0.019
7.93,-0.381,1.313,-0.187
7.94,-0.181,0.81,-0.029
7.95,-0.274,1.11,0.211
7.96,-0.067,0.778,0.112
7.97,-0.462,1.045,-0.219
7.98,-0.162,0.986,-0.051
7.99,-0.045,1.069,0.082
8.0,-0.18,0.898,0.127
8.01,-0.187,0.758,-0.061
8.02,-0.421,1.269,-0.188
8.03,-0.092,0.845,0.032
8.04,-0.143,1.218,0.155
8.05,-0.152,0.683,0.046
8.06,-0.441,1.045,-0.154
8.07,-0.098,1.175,-0.062
8.08,-0.089,0.93,0.079
8.09,-0.204,0.947,0.163
8.1,-0.19,0.733,-0.133
8.11,-0.41,1.268,-0.141
8.12,-0.028,0.916,0.09
8.13,-0.158,1.054,0.136
8.14,-0.174,0.724,0.012
8.15,-0.421,1.139,-0.145
8.16,-0.153,1.097,-0.028
8.17,-0.161,0.81,0.129
8.18,-0.138,1.049,0.166
8.19,-0.345,0.743,-0.18
8.2,-0.342,1.191,-0.131
8.21,0.028,0.926,0.126
8.22,-0.165,0.98,0.108
8.23,-0.256,0.802,-0.013
8.24,-0.352,1.111,-0.151
8.25,-0.145,1.113,-0.021
8.26,-0.14,0.757,0.173
8.27,-0.173,1.08,0.083
8.28,-0.295,0.773,-0.223
8.29,-0.278,1.197,-0.057
8.3,-0.031,0.847,0.093
8.31,-0.091,0.876,0.133
8.32,-0.383,0.969,-0.025
8.33,-0.24,0.962,-0.203
8.34,-0.115,1.166,0.023
8.35,-0.095,0.756,0.179
8.36,-0.233,1.062,0.033
8.37,-0.37,0.86,-0.209
8.38,-0.105,1.208,-0.061
8.39,-0.178,0.856,0.167
8.4,-0.162,0.858,0.162
8.41,-0.336,1.027,-0.187
8.42,-0.266,0.862,-0.095
8.43,-0.044,1.318,0.076
8.44,-0.169,0.601,0.113
8.45,-0.258,1.059,-0.015
8.46,-0.297,0.976,-0.193
8.47,-0.216,1.089,0.029
8.48,-0.202,0.829,0.177
8.49,-0.043,0.844,0.073
8.5,-0.477,1.119,-0.204
8.51,-0.176,0.883,-0.008
8.52,-0.084,1.24,0.054
8.53,-0.131,0.574,0.144
8.54,-0.261,1.118,-0.038
8.55,-0.285,0.919,-0.256
8.56,-0.102,1.094,0.11
8.57,-0.085,0.78,0.092
8.58,-0.265,0.904,0.075
8.59,-0.422,1.127,-0.162
8.6,-0.015,0.934,-0.138
8.61,-0.132,1.036,0.091
8.62,-0.033,0.74,0.193
8.63,-0.469,1.163,-0.145
8.64,-0.289,0.83,-0.097
8.65,0.018,1.24,0.058
8.66,-0.099,0.721,0.067
8.67,-0.318,0.928,0.073
8.68,-0.388,1.176,-0.242
8.69,-0.072,0.811,-0.019
8.7,-0.115,1.184,0.149
8.71,-0.073,0.651,0.088
8.72,-0.418,1.209,-0.187
8.73,-0.171,0.942,-0.085
8.74,-0.025,1.044,0.049
8.75,-0.216,0.837,0.192
8.76,-0.314,0.849,-0.077
8.77,-0.274,1.14,-0.143
8.78,-0.113,0.93,0.124
8.79,-0.237,1.104,0.154
8.8,-0.112,0.634,0.016
8.81,-0.353,1.32,-0.252
8.82,-0.133,0.917,-0.029
8.83,-0.13,0.994,0.139
8.84,-0.157,0.864,0.134
8.85,-0.382,0.819,-0.093
8.86,-0.246,1.249,-0.134
8.87,-0.036,0.896,0.068
8.88,-0.128,1.021,0.148
8.89,-0.228,0.703,0.016
8.9,-0.488,1.222,-0.199
8.91,-0.01,0.913,-0.07
8.92,-0.12,1.007,0.134
8.93,-0.172,0.94,0.107
8.94,-0.307,0.803,-0.197
8.95,-0.19,1.265,-0.064
8.96,-0.073,0.799,0.109
8.97,-0.139,0.987,0.116
8.98,-0.257,0.782,-0.122
8.99,-0.33,1.102,-0.171
9.0,-0.122,1.061,0.094
9.01,-0.109,0.872,0.102
9.02,-0.155,0.985,0.029
9.03,-0.355,0.947,-0.127
9.04,-0.26,1.215,-0.087
9.05,-0.059,0.757,0.114
9.06,-0.149,1.046,0.145
9.07,-0.373,0.802,-0.119
9.08,-0.269,1.074,-0.112
9.09,-0.002,1.186,-0.032
9.1,-0.116,0.64,0.164
9.11,-0.253,1.058,0.127
9.12,-0.328,0.98,-0.254
9.13,-0.182,1.108,-0.026
9.14,-0.103,0.783,0.189
9.15,-0.165,1.004,0.129
9.16,-0.417,0.89,-0.208
9.17,-0.223,1.008,-0.074
9.18,-0.066,1.192,0.07
9.19,-0.217,0.642,0.168
9.2,-0.308,1.118,0.046
9.21,-0.316,0.921,-0.237
9.22,-0.106,1.134,-0.024
9.23,-0.095,0.864,0.146
9.24,-0.116,0.956,0.047
9.25,-0.409,0.962,-0.169
9.26,-0.154,1.031,-0.065
9.27,-0.103,1.072,0.078
9.28,-0.088,0.662,0.151
9.29,-0.331,1.164,-0.064
9.3,-0.325,0.824,-0.175
9.31,-0.085,1.16,0.092
9.32,-0.136,0.839,0.115
9.33,-0.173,0.837,0.027
9.34,-0.382,1.174,-0.201
9.35,-0.129,0.922,-0.066
9.36,-0.131,1.086,0.09
9.37,-0.133,0.689,0.171
9.38,-0.394,1.154,-0.124
9.39,-0.271,0.791,-0.089
9.4,-0.128,1.279,0.132
9.41,-0.075,0.695,0.102
9.42,-0.345,0.958,-0.035
9.43,-0.255,1.082,-0.196
9.44,-0.137,1.004,0.006
9.45,-0.206,0.943,0.16
9.46,0.026,0.76,0.051
9.47,-0.489,1.22,-0.234
9.48,-0.202,0.807,0.028
9.49,-0.087,1.276,0.089
9.5,-0.213,0.696,0.138
9.51,-0.272,0.958,-0.021
9.52,-0.303,1.123,-0.177
9.53,-0.126,0.928,0.069
9.54,-0.111,1.065,0.109
9.55,-0.198,0.635,0.05
9.56,-0.484,1.307,-0.172
9.57,-0.051,0.881,-0.106
9.58,-0.174,1.056,0.113
9.59,-0.091,0.802,0.184
9.6,-0.405,0.961,-0.157
9.61,-0.322,1.103,-0.049
9.62,-0.057,0.946,0.068
9.63,-0.152,1.016,0.093
9.64,-0.206,0.686,0.043
9.65,-0.356,1.362,-0.197
9.66,-0.12,0.848,-0.057
9.67,-0.101,1.059,0.187
9.68,-0.18,0.815,0.092
9.69,-0.487,0.937,-0.099
9.7,-0.177,1.231,-0.144
9.71,-0.041,0.81,0.083
9.72,-0.263,1.035,0.166
9.73,-0.226,0.696,-0.084
9.74,-0.335,1.256,-0.149
9.75,-0.047,0.952,-0.003
9.76,-0.047,0.911,0.099
9.77,-0.138,0.885,0.05
9.78,-0.403,0.967,-0.16
9.79,-0.191,1.217,-0.043
9.8,-0.137,0.767,0.116
9.81,-0.179,1.081,0.123
9.82,-0.291,0.728,-0.105
9.83,-0.313,1.149,-0.135
9.84,-0.062,1.037,0.052
9.85,-0.129,0.781,0.123
9.86,-0.236,0.976,0.012
9.87,-0.429,0.96,-0.187
9.88,-0.107,1.137,-0.051
9.89,-0.081,0.768,0.169
9.9,-0.171,1.042,0.08
9.91,-0.357,0.826,-0.21
9.92,-0.203,1.119,-0.053
9.93,-0.074,1.035,0.089
9.94,-0.105,0.723,0.102
9.95,-0.375,1.064,-0.036
9.96,-0.268,0.871,-0.199
9.97,-0.067,1.253,-0.019
9.98,-0.184,0.752,0.17
9.99,-0.103,0.99,0.069
10.0,-0.361,0.944,-0.221
10.01,-0.175,1.062,-0.063
10.02,-0.093,0.965,0.105
10.03,-0.162,0.757,0.169
10.04,-0.441,1.08,-0.092
10.05,-0.187,0.811,-0.18
10.06,-0.084,1.315,0.082
10.07,-0.127,0.707,0.118
10.08,-0.178,0.949,0.039
10.09,-0.384,1.089,-0.201
10.1,-0.151,0.891,0.072
10.11,-0.435,0.879,-0.144
10.12,-0.234,1.271,-0.006
10.13,-0.011,0.789,0.101
10.14,-0.209,1.012,0.122
10.15,-0.234,0.786,-0.144
10.16,-0.296,1.245,-0.144
10.17,-0.169,0.892,0.128
10.18,-0.069,0.974,0.116
10.19,-0.21,0.823,-0.01
10.2,-0.447,1.049,-0.124
10.21,-0.064,1.152,-0.066
10.22,-0.12,0.733,0.129
10.23,-0.142,1.073,0.151
10.24,-0.376,0.771,-0.217
10.25,-0.224,1.178,-0.108
10.26,-0.006,0.959,0.117
10.27,-0.15,0.87,0.098
10.28,-0.315,0.915,0.009
10.29,-0.252,1.03,-0.192
10.3,-0.133,1.169,-0.011
10.31,-0.109,0.762,0.18
10.32,-0.189,1.033,0.042
10.33,-0.408,0.813,-0.199
10.34,-0.118,1.207,-0.047
10.35,-0.107,0.87,0.101
10.36,-0.28,0.807,0.174
10.37,-0.27,1.031,-0.096
10.38,-0.302,0.946,-0.149
10.39,-0.155,1.201,0.143
10.4,-0.06,0.735,0.113
10.41,-0.295,1.015,0.0
10.42,-0.416,0.903,-0.118
10.43,-0.123,1.153,-0.029
10.44,-0.138,0.86,0.084
10.45,-0.126,0.849,0.175
10.46,-0.465,1.119,-0.162
10.47,-0.246,0.818,-0.114
10.48,0.012,1.31,0.054
10.49,-0.062,0.654,0.091
10.5,-0.377,1.044,0.007
10.51,-0.196,0.962,-0.25
10.52,-0.138,1.074,0.014
10.53,-0.187,0.948,0.189
10.54,-0.095,0.729,0.052
10.55,-0.479,1.218,-0.189
10.56,-0.088,0.88,-0.049
10.57,-0.144,1.201,0.107
10.58,-0.19,0.66,0.167
10.59,-0.236,1.081,-0.095
10.6,-0.298,0.964,-0.168
10.61,-0.123,1.042,0.136
10.62,-0.108,1.031,0.09
10.63,-0.176,0.667,0.007
10.64,-0.494,1.312,-0.159
10.65,-0.08,0.835,-0.037
10.66,-0.211,1.118,0.183
10.67,-0.123,0.739,0.158
10.68,-0.391,0.999,-0.195
10.69,-0.231,1.03,-0.111
10.7,-0.093,1.06,0.132
10.71,-0.117,0.959,0.128
10.72,-0.254,0.668,-0.016
10.73,-0.339,1.347,-0.171
10.74,-0.094,0.846,0.007
10.75,-0.312,1.075,0.218
10.76,-0.136,0.776,0.092
10.77,-0.413,1.013,-0.211
10.78,-0.183,1.112,-0.04
10.79,-0.031,0.948,0.092
10.8,-0.126,0.971,0.079
10.81,-0.205,0.698,-0.04
10.82,-0.325,1.331,-0.167
10.83,-0.167,0.876,0.039
10.84,-0.118,1.041,0.136
10.85,-0.129,0.77,0.018
10.86,-0.498,0.995,-0.143
10.87,-0.139,1.199,-0.021
10.88,0.016,0.785,0.062
10.89,-0.181,1.037,0.153
10.9,-0.28,0.73,-0.137
10.91,-0.26,1.278,-0.152
10.92,-0.038,0.917,0.101
10.93,-0.128,0.881,0.148
10.94,-0.262,0.933,0.048
10.95,-0.436,0.979,-0.211
10.96,-0.129,1.003,0.038
10.97,-0.052,0.943,0.13
10.98,-0.185,0.949,0.046
10.99,-0.338,0.848,-0.162
11.0,-0.158,1.262,-0.094
11.01,-0.155,0.745,0.11
11.02,-0.111,0.989,0.17
11.03,-0.345,0.863,-0.126
11.04,-0.332,0.96,-0.159
11.05,-0.033,1.206,0.062
11.06,-0.16,0.746,0.129
11.07,-0.166,1.019,0.072
11.08,-0.416,0.961,-0.199
11.09,-0.17,1.182,-0.075
11.1,-0.087,0.697,0.125
11.11,-0.129,1.035,0.135
11.12,-0.416,0.927,-0.159
11.13,-0.26,0.928,-0.061
11.14,-0.037,1.222,0.058
11.15,-0.167,0.61,0.143
11.16,-0.191,1.11,0.025
11.17,-0.358,0.98,-0.195
11.18,-0.198,1.09,0.007
11.19,-0.044,0.787,0.18
11.2,-0.162,0.945,0.091
11.21,-0.429,1.028,-0.184
11.22,-0.183,0.915,-0.047
11.23,-0.042,1.198,0.07
11.24,-0.163,0.598,0.111
11.25,-0.272,1.117,-0.001
11.26,-0.263,0.927,-0.208
11.27,-0.175,1.131,0.073
11.28,-0.083,0.845,0.128
11.29,-0.19,0.808,0.009
11.3,-0.386,1.201,-0.145
11.31,-0.138,0.889,-0.006
11.32,-0.264,1.084,0.165
11.33,-0.113,0.687,0.181
11.34,-0.409,1.135,-0.175
11.35,-0.299,0.859,-0.1
11.36,-0.033,1.208,0.064
11.37,-0.097,0.831,0.101
11.38,-0.242,0.779,0.069
11.39,-0.394,1.28,-0.265
11.4,-0.021,0.833,-0.05
11.41,-0.129,1.175,0.156
11.42,-0.133,0.653,0.085
11.43,-0.411,1.156,-0.176
11.44,-0.18,1.06,-0.072
11.45,-0.189,1.022,0.106
11.46,-0.102,0.864,0.189
11.47,-0.271,0.831,-0.093
11.48,-0.38,1.209,-0.184
11.49,-0.061,0.817,0.099
11.5,-0.144,1.221,0.065
11.51,-0.23,0.644,0.084
11.52,-0.389,1.126,-0.214
11.53,-0.154,1.066,-0.115
11.54,-0.185,0.879,0.102
11.55,-0.092,0.967,0.17
11.56,-0.305,0.775,-0.126
11.57,-0.323,1.169,-0.141
11.58,-0.052,0.931,0.16
11.59,-0.217,1.102,0.127
11.6,-0.166,0.676,0.033
11.61,-0.387,1.169,-0.182
11.62,-0.167,1.094,-0.059
11.63,-0.1,0.809,0.15
11.64,-0.176,1.047,0.115
11.65,-0.354,0.729,-0.167
11.66,-0.278,1.223,-0.092
11.67,0.027,0.931,0.106
11.68,-0.204,0.931,0.16
11.69,-0.217,0.794,-0.001
11.7,-0.297,1.154,-0.231
11.71,-0.103,1.076,-0.039
11.72,-0.152,0.828,0.218
11.73,-0.205,1.044,0.084
11.74,-0.38,0.732,-0.203
11.75,-0.138,1.316,-0.072
11.76,-0.093,0.834,0.101
11.77,-0.161,1.011,0.196
11.78,-0.266,0.809,-0.105
11.79,-0.355,1.099,-0.193
11.8,-0.007,1.088,0.067
11.81,-0.166,0.83,0.169
11.82,-0.347,0.978,0.076
11.83,-0.326,0.928,-0.182
11.84,-0.228,1.2,-0.006
11.85,-0.124,0.698,0.163
11.86,-0.07,1.075,0.108
11.87,-0.353,0.821,-0.174
11.88,-0.279,1.024,-0.096
11.89,-0.101,1.137,0.057
11.9,-0.119,0.704,0.138
11.91,-0.295,1.081,0.013
11.92,-0.415,0.879,-0.208
11.93,-0.045,1.167,-0.024
11.94,-0.116,0.816,0.177
11.95,-0.198,0.984,0.087
11.96,-0.313,0.933,-0.202
11.97,-0.189,1.014,-0.067
11.98,-0.069,1.154,0.089
11.99,-0.143,0.654,0.13
12.0,-0.403,1.139,-0.014
12.01,-0.26,0.839,-0.203
12.02,-0.153,1.171,0.022
12.03,-0.11,0.803,0.16
12.04,-0.187,0.892,0.018
12.05,-0.421,1.029,-0.206
12.06,-0.086,0.964,-0.092
12.07,-0.104,1.069,0.082
12.08,-0.073,0.685,0.16
12.09,-0.44,1.168,-0.131
12.1,-0.288,0.848,-0.115
12.11,-0.026,1.252,0.065
12.12,-0.177,0.717,0.169
12.13,-0.272,0.889,0.021
12.14,-0.369,1.185,-0.259
12.15,-0.05,0.834,-0.027
12.16,-0.138,1.198,0.175
12.17,-0.118,0.627,0.127
12.18,-0.44,1.161,-0.185
12.19,-0.141,0.958,-0.037
12.2,-0.193,1.135,0.071
12.21,-0.088,0.745,0.158
12.22,-0.265,0.865,-0.06
12.23,-0.4,1.195,-0.195
12.24,-0.027,0.845,0.022
12.25,-0.205,1.167,0.167
12.26,-0.111,0.627,0.08
12.27,-0.462,1.21,-0.176
12.28,-0.073,0.994,-0.07
12.29,-0.132,0.988,0.06
12.3,-0.108,0.882,0.2
12.31,-0.403,0.776,-0.126
12.32,-0.294,1.142,-0.19
12.33,0.01,0.955,0.115
12.34,-0.221,1.092,0.107
12.35,-0.186,0.633,0.013
12.36,-0.358,1.272,-0.189
12.37,-0.124,0.969,-0.014
12.38,-0.149,0.9,0.162
12.39,-0.113,0.985,0.101
12.4,-0.37,0.774,-0.192
12.41,-0.279,1.273,-0.103
12.42,0.016,0.856,0.084
12.43,-0.183,0.992,0.144
12.44,-0.188,0.778,-0.005
12.45,-0.407,1.197,-0.208
12.46,-0.144,0.975,0.03
12.47,-0.074,0.928,0.164
12.48,-0.166,0.948,0.028
12.49,-0.45,0.815,-0.165
12.5,-0.14,1.318,-0.094
12.51,-0.051,0.747,0.02
12.52,-0.194,0.988,0.223
12.53,-0.277,0.882,-0.11
12.54,-0.302,1.015,-0.166
12.55,-0.152,1.127,0.16
12.56,-0.098,0.781,0.16
12.57,-0.274,1.015,0.012
12.58,-0.323,0.926,-0.218
12.59,-0.108,1.133,-0.032
12.6,-0.168,0.739,0.183
12.61,-0.212,1.05,0.086
12.62,-0.304,0.803,-0.202
12.63,-0.236,1.186,-0.037
12.64,-0.074,0.961,0.058
12.65,-0.119,0.739,0.135
12.66,-0.29,1.063,-0.023
12.67,-0.339,0.876,-0.173
12.68,-0.172,1.202,0.055
12.69,-0.128,0.786,0.143
12.7,-0.154,0.977,0.012
12.71,-0.368,0.97,-0.175
12.72,-0.155,1.117,-0.075
12.73,-0.13,0.871,0.084
12.74,-0.115,0.758,0.198
12.75,-0.438,1.135,-0.121
12.76,-0.226,0.788,-0.202
12.77,-0.125,1.307,0.108
12.78,-0.162,0.645,0.153
12.79,-0.277,1.0,0.077
12.8,-0.35,1.074,-0.255
12.81,-0.084,0.926,-0.09
12.82,-0.188,1.027,0.202
12.83,-0.066,0.727,0.104
12.84,-0.465,1.158,-0.18
12.85,-0.245,0.847,-0.006
12.86,-0.045,1.251,0.052
12.87,-0.157,0.683,0.128
12.88,-0.229,0.99,-0.041
12.89,-0.339,1.058,-0.223
12.9,-0.182,0.935,0.062
12.91,-0.091,1.112,0.144
12.92,-0.154,0.635,0.019
12.93,-0.453,1.238,-0.138
12.94,-0.042,0.891,-0.079
12.95,-0.194,1.109,0.078
12.96,-0.092,0.764,0.2
12.97,-0.32,0.983,-0.129
12.98,-0.284,1.025,-0.171
12.99,-0.011,1.021,0.1
13.0,-0.201,1.028,0.129
13.01,-0.236,0.654,0.063
13.02,-0.348,1.366,-0.192
13.03,-0.138,0.844,-0.05
13.04,-0.186,1.04,0.182
13.05,-0.029,0.849,0.102
13.06,-0.446,0.884,-0.173
13.07,-0.257,1.123,-0.1
13.08,-0.031,0.962,0.058
13.09,-0.225,0.967,0.118
13.1,-0.262,0.729,0.046
13.11,-0.353,1.322,-0.243
13.12,-0.078,0.812,-0.049
13.13,-0.144,1.076,0.219
13.14,-0.122,0.862,0.042
13.15,-0.459,0.854,-0.177
13.16,-0.092,1.272,-0.066
13.17,-0.074,0.821,0.092
13.18,-0.224,0.987,0.174
13.19,-0.188,0.791,-0.065
13.2,-0.338,1.197,-0.211
13.21,-0.158,0.944,0.138
13.22,-0.113,0.973,0.137
13.23,-0.203,0.88,-0.046
13.24,-0.396,0.937,-0.122
13.25,-0.103,1.279,-0.062
13.26,-0.086,0.672,0.092
13.27,-0.135,1.089,0.179
13.28,-0.324,0.803,-0.163
13.29,-0.347,1.083,-0.112
13.3,-0.079,1.048,0.111
13.31,-0.09,0.783,0.13
13.32,-0.342,1.003,0.029
13.33,-0.347,0.916,-0.174
13.34,-0.083,1.243,-0.024
13.35,-0.148,0.736,0.186
13.36,-0.126,1.02,0.11
13.37,-0.327,0.864,-0.203
13.38,-0.266,1.087,-0.03
13.39,-0.108,0.995,0.081
13.4,-0.12,0.686,0.137
13.41,-0.363,1.0,-0.1
13.42,-0.288,0.887,-0.19
13.43,-0.223,1.214,0.104
13.44,-0.056,0.741,0.139
13.45,-0.185,1.031,-0.017
13.46,-0.396,0.898,-0.14
13.47,-0.142,1.154,-0.033
13.48,-0.188,0.867,0.134
13.49,-0.149,0.85,0.159
13.5,-0.384,1.047,-0.156
13.51,-0.295,0.92,-0.043
13.52,-0.118,1.309,0.056
13.53,-0.086,0.567,0.125
13.54,-0.27,1.067,0.036
13.55,-0.419,0.997,-0.215
13.56,-0.04,1.015,-0.05
13.57,-0.079,0.989,0.148
13.58,-0.206,0.759,0.093
13.59,-0.394,1.134,-0.167
13.6,-0.11,0.898,-0.07
13.61,-0.186,1.242,0.083
13.62,-0.08,0.649,0.132
13.63,-0.362,1.057,-0.065
13.64,-0.246,0.938,-0.223
13.65,-0.138,1.047,0.113
13.66,-0.136,1.006,0.126
13.67,-0.129,0.687,0.026
13.68,-0.481,1.276,-0.179
13.69,-0.056,0.858,-0.076
13.7,-0.182,1.111,0.087
13.71,-0.142,0.744,0.193
13.72,-0.388,1.03,-0.163
13.73,-0.25,0.968,-0.147
13.74,-0.018,1.075,0.109
13.75,-0.181,0.957,0.123
13.76,-0.177,0.672,-0.023
13.77,-0.429,1.379,-0.215
13.78,-0.052,0.806,-0.027
13.79,-0.215,1.13,0.158
13.8,-0.086,0.737,0.102
13.81,-0.449,1.006,-0.209
13.82,-0.15,1.069,-0.054
13.83,-0.095,0.936,0.123
13.84,-0.209,0.984,0.143
13.85,-0.171,0.704,-0.09
13.86,-0.372,1.263,-0.209
13.87,-0.159,0.844,0.127
13.88,-0.074,1.089,0.109
13.89,-0.197,0.74,0.004
13.9,-0.409,1.015,-0.128
13.91,-0.12,1.133,-0.044
13.92,-0.153,0.801,0.12
13.93,-0.146,1.047,0.157
13.94,-0.288,0.733,-0.169
13.95,-0.298,1.244,-0.126
13.96,-0.023,0.935,0.039
13.97,-0.125,0.864,0.121
13.98,-0.204,0.878,0.048
13.99,-0.342,1.063,-0.239
14.0,-0.089,1.121,-0.031
14.01,-0.139,0.791,0.149
14.02,-0.147,1.029,0.078
14.03,-0.308,0.765,-0.196
14.04,-0.244,1.234,-0.069
14.05,-0.087,0.864,0.07
14.06,-0.102,0.816,0.131
14.07,-0.208,0.988,-0.066
14.08,-0.381,0.944,-0.226
14.09,-0.12,1.158,0.032
14.1,-0.112,0.767,0.184
14.11,-0.203,0.985,0.041
14.12,-0.368,0.859,-0.209
14.13,-0.072,1.153,-0.126
14.14,-0.085,0.881,0.111
14.15,-0.202,0.809,0.178
14.16,-0.311,1.088,-0.117
14.17,-0.259,0.828,-0.168
14.18,-0.104,1.271,0.105
14.19,-0.116,0.694,0.13
14.2,-0.274,1.03,-0.007
14.21,-0.352,0.962,-0.17
14.22,-0.14,1.154,0.018
14.23,-0.178,0.771,0.227
14.24,-0.165,0.919,0.109
14.25,-0.379,0.99,-0.241
14.26,-0.148,0.933,0.011
14.27,-0.092,1.157,0.088
14.28,-0.163,0.655,0.178
14.29,-0.297,1.154,-0.034
14.3,-0.34,0.896,-0.197
14.31,-0.208,1.124,0.107
14.32,-0.018,0.849,0.104
14.33,-0.175,0.826,-0.011
14.34,-0.484,1.138,-0.161
14.35,0.009,0.905,-0.066
14.36,-0.202,1.108,0.077
14.37,-0.091,0.68,0.23
14.38,-0.375,1.175,-0.197
14.39,-0.324,0.838,-0.133
14.4,0.053,1.23,0.111
14.41,-0.096,0.859,0.073
14.42,-0.402,0.767,0.063
14.43,-0.294,1.283,-0.228
14.44,-0.106,0.846,-0.009
14.45,-0.27,1.135,0.218
14.46,0.015,0.674,0.075
14.47,-0.465,1.189,-0.214
14.48,-0.216,0.971,0.007
14.49,-0.085,1.037,0.117
14.5,-0.246,0.899,0.135
14.51,-0.273,0.796,-0.057
14.52,-0.291,1.265,-0.186
14.53,-0.186,0.848,0.114
14.54,-0.084,1.109,0.105
14.55,-0.124,0.617,0.034
14.56,-0.524,1.205,-0.143
14.57,-0.046,1.024,-0.093
14.58,-0.165,0.901,0.114
14.59,-0.158,0.998,0.147
14.6,-0.319,0.754,-0.168
14.61,-0.287,1.232,-0.092
14.62,-0.071,0.909,0.155
14.63,-0.205,1.005,0.118
14.64,-0.284,0.722,-0.04
14.65,-0.324,1.159,-0.199
14.66,-0.123,1.041,0.03
14.67,-0.148,0.839,0.234
14.68,-0.104,1.037,0.004
14.69,-0.365,0.78,-0.214
14.7,-0.21,1.276,0.018
14.71,-0.048,0.839,0.119
14.72,-0.252,0.941,0.163
14.73,-0.209,0.897,-0.1
14.74,-0.316,1.054,-0.223
14.75,-0.116,1.112,0.126
14.76,-0.056,0.727,0.141
14.77,-0.385,1.003,0.033
14.78,-0.292,0.908,-0.189
14.79,-0.093,1.216,-0.09
14.8,-0.204,0.713,0.181
14.81,-0.079,0.967,0.128
14.82,-0.334,0.963,-0.276
14.83,-0.271,0.92,-0.007
14.84,-0.022,1.25,0.061
14.85,-0.143,0.635,0.079
14.86,-0.338,1.083,0.046
14.87,-0.255,0.899,-0.254
14.88,-0.187,1.125,0.036
14.89,-0.06,0.859,0.187
14.9,-0.181,0.895,0.048
14.91,-0.468,1.064,-0.17
14.92,-0.083,0.951,-0.038
14.93,-0.173,1.106,0.101
14.94,-0.239,0.656,0.197
14.95,-0.301,1.124,-0.125
14.96,-0.284,0.856,-0.172
14.97,-0.122,1.171,0.164
14.98,-0.091,0.851,0.109
14.99,-0.263,0.801,-0.01
15.0,-0.329,1.259,-0.19
15.01,-0.044,0.873,-0.047
15.02,-0.26,1.118,0.21
15.03,-0.092,0.712,0.135
15.04,-0.478,1.187,-0.194
15.05,-0.221,0.879,-0.012
15.06,-0.053,1.218,0.098
15.07,-0.187,0.71,0.097
15.08,-0.301,0.973,-0.021
15.09,-0.355,1.08,-0.174
15.1,-0.186,0.929,0.091
15.11,-0.073,1.087,0.144
15.12,-0.173,0.648,-0.013
15.13,-0.512,1.249,-0.114
15.14,-0.073,0.892,-0.011
15.15,-0.186,1.038,0.1
15.16,-0.083,0.817,0.144
15.17,-0.37,0.958,-0.186
15.18,-0.305,1.139,-0.087
15.19,0.028,0.977,0.072
15.2,-0.161,1.006,0.117
15.21,-0.236,0.684,-0.032
15.22,-0.388,1.317,-0.25
15.23,-0.017,0.835,-0.02
15.24,-0.126,1.082,0.169
15.25,-0.13,0.826,0.055
15.26,-0.443,0.955,-0.213
15.27,-0.104,1.22,-0.046
15.28,-0.08,0.821,0.06
15.29,-0.225,1.007,0.171
15.3,-0.203,0.755,-0.138
15.31,-0.308,1.203,-0.198
15.32,-0.07,0.943,0.149
15.33,-0.121,0.968,0.175
15.34,-0.299,0.861,-0.001
15.35,-0.315,0.946,-0.21
15.36,-0.055,1.251,-0.036
15.37,-0.174,0.7,0.142
15.38,-0.119,1.043,0.127
15.39,-0.324,0.856,-0.257
15.4,-0.26,1.133,-0.044
15.41,-0.059,1.0,0.114
15.42,-0.176,0.744,0.094
15.43,-0.29,1.025,-0.072
15.44,-0.206,0.906,-0.224
15.45,-0.181,1.25,0.096
15.46,-0.113,0.689,0.152
15.47,-0.117,0.997,0.01
15.48,-0.405,0.944,-0.17
15.49,-0.169,1.069,-0.062
15.5,-0.148,0.945,0.119
15.51,-0.174,0.768,0.151
15.52,-0.382,1.075,-0.141
15.53,-0.171,0.814,-0.183
15.54,-0.055,1.288,0.076
15.55,-0.063,0.675,0.138
15.56,-0.265,1.003,0.024
15.57,-0.413,1.006,-0.204
15.58,-0.079,0.975,-0.011
15.59,-0.2,1.074,0.14
15.6,-0.111,0.708,0.118
15.61,-0.365,1.144,-0.234
15.62,-0.225,0.886,-0.037
15.63,0.005,1.227,0.041
15.64,-0.142,0.659,0.135
15.65,-0.321,0.995,-0.032
15.66,-0.289,1.057,-0.198
15.67,-0.158,0.976,0.1
15.68,-0.201,1.124,0.136
15.69,-0.112,0.618,0.015
15.7,-0.436,1.213,-0.203
15.71,-0.06,0.875,-0.063
15.72,-0.094,1.089,0.071
15.73,-0.146,0.752,0.241
15.74,-0.368,0.949,-0.141
15.75,-0.183,1.057,-0.209
15.76,-0.041,1.011,0.111
15.77,-0.187,1.027,0.11
15.78,-0.176,0.653,0.037
15.79,-0.427,1.375,-0.249
15.8,-0.059,0.825,-0.017
15.81,-0.168,1.106,0.216
15.82,-0.157,0.843,0.103
15.83,-0.355,0.846,-0.188
15.84,-0.243,1.188,-0.015
15.85,-0.128,0.949,0.062
15.86,-0.173,0.936,0.136
15.87,-0.288,0.741,-0.003
15.88,-0.407,1.283,-0.182
15.89,-0.077,0.812,0.088
15.9,-0.164,1.117,0.145
15.91,-0.165,0.681,0.025
15.92,-0.404,1.12,-0.17
15.93,-0.092,1.114,-0.076
15.94,-0.183,0.786,0.097
15.95,-0.177,1.037,0.172
15.96,-0.299,0.762,-0.149
15.97,-0.335,1.22,-0.143
15.98,-0.031,0.911,0.131
15.99,-0.191,0.996,0.153
16.0,-0.313,0.763,0.065
16.01,-0.298,1.117,-0.218
16.02,-0.056,1.063,-0.072
16.03,-0.184,0.766,0.203
16.04,-0.094,1.08,0.079
16.05,-0.398,0.731,-0.221
16.06,-0.186,1.256,-0.03
16.07,-0.079,0.905,0.099
16.08,-0.218,0.857,0.125
16.09,-0.176,0.946,-0.053
16.1,-0.382,1.012,-0.168
16.11,-0.165,1.1,0.024
16.12,0.016,0.827,0.145
16.13,-0.164,1.031,-0.016
16.14,-0.416,0.797,-0.166
16.15,-0.083,1.249,-0.101
16.16,-0.104,0.818,0.052
16.17,-0.181,0.869,0.206
16.18,-0.296,1.033,-0.185
16.19,-0.299,0.865,-0.158
16.2,-0.078,1.296,0.1
16.21,-0.11,0.654,0.115
16.22,-0.334,1.031,0.03
16.23,-0.26,0.981,-0.205
16.24,-0.14,1.095,-0.062
16.25,-0.18,0.814,0.211
16.26,-0.098,0.861,0.115
16.27,-0.446,1.066,-0.245
16.28,-0.141,0.853,-0.017
16.29,-0.167,1.257,0.085
16.3,-0.159,0.591,0.11
16.31,-0.248,1.133,0.008
16.32,-0.326,0.955,-0.219
16.33,-0.118,1.011,0.015
16.34,-0.068,1.043,0.138
16.35,-0.181,0.72,0.026
16.36,-0.375,1.171,-0.167
16.37,-0.092,0.947,-0.098
16.38,-0.168,1.114,0.089
16.39,-0.085,0.664,0.178
16.4,-0.405,1.077,-0.109
16.41,-0.234,0.937,-0.146
16.42,-0.034,1.121,0.098
16.43,-0.18,0.968,0.126
16.44,-0.124,0.697,-0.009
16.45,-0.437,1.36,-0.164
16.46,-0.186,0.812,-0.009
16.47,-0.196,1.074,0.158
16.48,-0.135,0.78,0.172
16.49,-0.417,1.012,-0.199
16.5,-0.217,0.998,-0.113
16.51,-0.077,1.034,0.083
16.52,-0.204,0.945,0.132
16.53,-0.203,0.721,0.022
16.54,-0.384,1.358,-0.24
16.55,-0.114,0.758,0.034
16.56,-0.171,1.153,0.237
16.57,-0.118,0.749,0.054
16.58,-0.426,0.995,-0.211
16.59,-0.129,1.138,-0.041
16.6,-0.136,0.899,0.11
16.61,-0.236,0.978,0.173
16.62,-0.167,0.74,-0.054
16.63,-0.413,1.278,-0.177
16.64,-0.169,0.841,0.125
16.65,-0.082,1.115,0.128
16.66,-0.219,0.739,0.003
16.67,-0.391,1.214,-0.141
16.68,-0.16,1.01,-0.064
16.69,-0.168,0.858,0.153
16.7,-0.067,1.007,0.117
16.71,-0.376,0.778,-0.218
16.72,-0.288,1.209,-0.071
16.73,0.024,0.882,0.1
16.74,-0.245,0.976,0.155
16.75,-0.252,0.742,0.033
16.76,-0.301,1.189,-0.216
16.77,-0.116,0.969,-0.031
16.78,-0.152,0.888,0.211
16.79,-0.115,1.023,0.068
16.8,-0.423,0.807,-0.18
16.81,-0.209,1.293,-0.023
16.82,-0.029,0.823,0.071
16.83,-0.258,0.925,0.163
16.84,-0.231,0.862,-0.034
16.85,-0.369,1.068,-0.18
16.86,-0.181,1.083,0.065
16.87,0.089,0.835,0.083
16.88,-0.238,0.998,-0.014
16.89,-0.417,0.82,-0.133
16.9,-0.116,1.27,-0.055
16.91,-0.137,0.736,0.074
16.92,-0.139,0.958,0.187
16.93,-0.357,0.958,-0.182
16.94,-0.282,0.879,-0.122
16.95,-0.062,1.268,0.082
16.96,-0.128,0.691,0.127
16.97,-0.288,1.033,0.045
16.98,-0.354,0.931,-0.193
16.99,-0.183,1.152,-0.048
17.0,-0.127,0.719,0.148
17.01,-0.097,0.914,0.105
17.02,-0.409,1.042,-0.196
17.03,-0.18,0.85,-0.07
17.04,-0.134,1.283,0.132
17.05,-0.123,0.623,0.147
17.06,-0.386,1.086,0.006
17.07,-0.294,0.943,-0.196
17.08,-0.145,1.123,0.011
17.09,-0.157,0.861,0.141
17.1,-0.073,0.833,0.074
17.11,-0.447,1.119,-0.202
17.12,-0.131,0.873,-0.015
17.13,-0.146,1.244,0.117
17.14,-0.207,0.645,0.164
17.15,-0.281,1.128,-0.123
17.16,-0.292,0.957,-0.183
17.17,-0.15,1.098,0.131
17.18,-0.037,0.913,0.107
17.19,-0.201,0.741,-0.017
17.2,-0.407,1.243,-0.171
17.21,-0.148,0.879,-0.011
17.22,-0.241,1.09,0.119
17.23,-0.024,0.735,0.123
17.24,-0.367,1.107,-0.178
17.25,-0.341,0.927,-0.105
17.26,0.05,1.107,0.023
17.27,-0.149,0.91,0.1
17.28,-0.267,0.719,0.035
17.29,-0.374,1.299,-0.215
17.3,-0.086,0.778,0.002
17.31,-0.219,1.187,0.178
17.32,-0.085,0.718,0.108
17.33,-0.471,1.076,-0.195
17.34,-0.196,1.047,-0.037
17.35,-0.029,0.966,0.059
17.36,-0.225,0.951,0.153
17.37,-0.214,0.732,-0.071
17.38,-0.407,1.276,-0.209
17.39,-0.048,0.796,0.051
17.4,-0.163,1.208,0.164
17.41,-0.099,0.671,0.052
17.42,-0.502,1.052,-0.157
17.43,-0.03,1.187,-0.087
17.44,-0.119,0.777,0.088
17.45,-0.246,1.01,0.258
17.46,-0.328,0.758,-0.134
17.47,-0.283,1.192,-0.189
17.48,-0.133,0.93,0.117
17.49,-0.156,1.051,0.139
17.5,-0.285,0.656,0.012
17.51,-0.281,1.254,-0.216
17.52,-0.076,0.987,-0.051
17.53,-0.234,0.883,0.237
17.54,-0.081,0.974,0.061
17.55,-0.404,0.816,-0.214
17.56,-0.203,1.218,-0.07
17.57,-0.016,0.805,0.081
17.58,-0.245,0.998,0.123
17.59,-0.21,0.77,-0.07
17.6,-0.307,1.107,-0.159
17.61,-0.156,1.066,0.102
17.62,-0.093,0.829,0.174
17.63,-0.171,0.989,0.004
17.64,-0.489,0.872,-0.168
17.65,-0.117,1.22,-0.086
17.66,-0.103,0.793,0.118
17.67,-0.22,1.007,0.166
17.68,-0.261,0.844,-0.145
17.69,-0.27,1.016,-0.127
17.7,-0.135,1.168,0.088
17.71,-0.102,0.708,0.13
17.72,-0.233,1.05,0.007
17.73,-0.407,0.971,-0.151
17.74,-0.142,1.173,-0.049
17.75,-0.213,0.755,0.163
17.76,-0.138,0.973,0.105
17.77,-0.341,0.94,-0.206
17.78,-0.276,0.959,-0.036
17.79,-0.031,1.231,0.062
17.8,-0.029,0.597,0.079
17.81,-0.338,1.12,0.052
17.82,-0.275,0.956,-0.201
17.83,-0.151,1.095,-0.054
17.84,-0.062,0.851,0.144
17.85,-0.156,0.887,0.068
17.86,-0.41,1.035,-0.206
17.87,-0.106,0.984,-0.101
17.88,-0.08,1.111,0.044
17.89,-0.1,0.627,0.174
17.9,-0.357,1.159,-0.08
17.91,-0.302,0.83,-0.179
17.92,-0.145,1.177,0.169
17.93,-0.16,0.903,0.14
17.94,-0.191,0.798,-0.034
17.95,-0.437,1.187,-0.141
17.96,-0.125,0.924,-0.035
17.97,-0.141,1.116,0.067
17.98,-0.078,0.679,0.172
17.99,-0.398,1.114,-0.163
18.0,-0.262,0.876,-0.077
18.01,-0.071,1.198,0.058
18.02,-0.085,0.862,0.083
18.03,-0.297,0.776,0.054
18.04,-0.382,1.238,-0.243
18.05,-0.086,0.773,0.018
18.06,-0.221,1.24,0.179
18.07,-0.037,0.67,0.073
18.08,-0.459,1.073,-0.165
18.09,-0.214,0.994,-0.038
18.1,-0.075,1.057,0.081
18.11,-0.176,0.876,0.134
18.12,-0.251,0.784,-0.072
18.13,-0.34,1.278,-0.198
18.14,-0.17,0.825,0.088
18.15,-0.135,1.176,0.179
18.16,-0.122,0.68,0.054
18.17,-0.458,1.103,-0.17
18.18,-0.023,1.072,-0.102
18.19,-0.105,0.863,0.059
18.2,-0.189,0.973,0.193
18.21,-0.28,0.76,-0.167
18.22,-0.271,1.175,-0.214
18.23,-0.055,0.963,0.116
18.24,-0.153,1.077,0.126
18.25,-0.303,0.679,-0.023
18.26,-0.281,1.135,-0.178
18.27,-0.115,1.073,-0.041
18.28,-0.217,0.787,0.183
18.29,-0.046,1.053,0.105
18.3,-0.456,0.837,-0.227
18.31,-0.165,1.246,-0.025
18.32,-0.06,0.893,0.061
18.33,-0.3,0.965,0.16
18.34,-0.119,0.78,-0.058
18.35,-0.335,1.236,-0.225
18.36,-0.266,0.895,0.098
18.37,-0.01,0.964,0.158
18.38,-0.15,0.932,0.009
18.39,-0.447,0.884,-0.141
18.4,-0.1,1.255,-0.101
18.41,-0.101,0.736,0.114
18.42,-0.295,1.027,0.219
18.43,-0.25,0.832,-0.133
18.44,-0.104,0.821,-0.031
18.45,-0.181,1.173,0.184
18.46,-0.081,0.673,0.104
18.47,-0.43,1.145,-0.215
18.48,-0.168,0.969,-0.039
18.49,-0.132,1.087,0.066
18.5,-0.126,0.826,0.14
18.51,-0.284,0.836,-0.031
18.52,-0.395,1.218,-0.206
18.53,-0.141,0.852,0.107
18.54,-0.158,1.216,0.134
18.55,-0.102,0.596,0.042
18.56,-0.433,1.146,-0.172
18.57,-0.117,1.062,-0.066
18.58,-0.089,0.941,0.093
18.59,-0.213,0.928,0.189
18.6,-0.293,0.799,-0.117
18.61,-0.349,1.184,-0.14
18.62,-0.129,0.859,0.156
18.63,-0.19,1.11,0.132
18.64,-0.167,0.667,0.003
18.65,-0.439,1.19,-0.144
18.66,-0.08,1.043,-0.118
18.67,-0.122,0.827,0.101
18.68,-0.105,1.064,0.162
18.69,-0.333,0.764,-0.205
18.7,-0.27,1.186,-0.155
18.71,0.053,0.969,0.08
18.72,-0.198,0.997,0.111
18.73,-0.203,0.755,-0.004
18.74,-0.391,1.191,-0.196
18.75,-0.123,1.005,-0.026
18.76,-0.192,0.829,0.218
18.77,-0.149,1.034,0.088
18.78,-0.392,0.743,-0.203
18.79,-0.177,1.284,-0.05
18.8,-0.096,0.864,0.091
18.81,-0.179,0.891,0.14
18.82,-0.26,0.899,-0.003
18.83,-0.402,1.052,-0.2
18.84,-0.106,1.087,0.001
18.85,-0.062,0.844,0.13
18.86,-0.189,1.002,0.005
18.87,-0.398,0.856,-0.181
18.88,-0.135,1.251,-0.045
18.89,-0.133,0.771,0.082
18.9,-0.118,0.893,0.176
18.91,-0.319,1.026,-0.104
18.92,-0.316,0.897,-0.144
18.93,-0.164,1.196,0.125
18.94,-0.075,0.767,0.125
18.95,-0.231,1.038,0.008
18.96,-0.428,0.865,-0.163
18.97,-0.194,1.193,-0.046
18.98,-0.131,0.81,0.088
18.99,-0.09,0.878,0.155
19.0,-0.374,1.065,-0.184
19.01,-0.218,0.868,-0.118
19.02,-0.059,1.147,0.056
19.03,-0.129,0.641,0.131
19.04,-0.315,1.086,-0.012
19.05,-0.289,0.942,-0.215
19.06,-0.143,1.173,-0.046
19.07,-0.084,0.756,0.21
19.08,-0.144,0.933,0.061
19.09,-0.474,1.004,-0.195
19.1,-0.077,0.972,-0.067
19.11,-0.113,1.114,0.04
19.12,-0.142,0.685,0.148
19.13,-0.286,1.204,-0.095
19.14,-0.286,0.833,-0.183
19.15,-0.094,1.225,0.087
19.16,-0.084,0.82,0.103
19.17,-0.218,0.866,0.023
19.18,-0.42,1.111,-0.189
19.19,-0.038,0.928,-0.082
19.2,-0.167,1.089,0.117
19.21,-0.064,0.702,0.135
19.22,-0.397,1.185,-0.177
19.23,-0.289,0.852,-0.097
19.24,-0.042,1.236,0.083
19.25,-0.083,0.786,0.097
19.26,-0.351,0.851,0.082
19.27,-0.329,1.152,-0.204
19.28,-0.165,0.823,-0.016
19.29,-0.168,1.178,0.187
19.3,-0.106,0.641,0.06
19.31,-0.47,1.157,-0.19
19.32,-0.135,0.997,-0.043
19.33,-0.095,1.061,0.037
19.34,-0.095,0.823,0.147
19.35,-0.289,0.849,-0.038
19.36,-0.357,1.165,-0.221
19.37,-0.134,0.819,0.088
19.38,-0.09,1.209,0.13
19.39,-0.17,0.635,0.036
19.4,-0.401,1.178,-0.189
19.41,-0.105,1.017,-0.071
19.42,-0.115,0.895,0.088
19.43,-0.149,0.914,0.179
19.44,-0.286,0.798,-0.124
19.45,-0.293,1.191,-0.166
19.46,-0.044,0.915,0.049
19.47,-0.099,1.126,0.142
19.48,-0.174,0.645,-0.001
19.49,-0.485,1.174,-0.117
19.5,-0.051,1.076,-0.071
19.51,-0.147,0.829,0.081
19.52,-0.141,1.008,0.202
19.53,-0.321,0.859,-0.163
19.54,-0.389,1.167,-0.081
19.55,0.018,0.876,0.102
19.56,-0.117,1.06,0.109
19.57,-0.384,0.774,-0.008
19.58,-0.26,1.099,-0.208
19.59,-0.095,1.033,-0.035
19.6,-0.154,0.84,0.234
19.61,-0.126,1.048,0.084
19.62,-0.401,0.767,-0.233
19.63,-0.232,1.26,-0.024
19.64,-0.027,0.849,0.107
19.65,-0.188,0.937,0.142
19.66,-0.25,0.882,-0.057
19.67,-0.245,1.042,-0.22
19.68,-0.238,1.117,0.097
19.69,-0.025,0.812,0.123
19.7,-0.192,1.017,-0.023
19.71,-0.435,0.839,-0.161
19.72,-0.069,1.256,-0.084
19.73,-0.124,0.76,0.045
19.74,-0.091,0.928,0.154
19.75,-0.296,0.974,-0.129
19.76,-0.361,0.908,-0.112
19.77,-0.062,1.248,0.048
19.78,-0.063,0.648,0.109
19.79,-0.362,1.056,0.091
19.8,-0.31,0.943,-0.225
19.81,-0.102,1.119,-0.071
19.82,-0.193,0.798,0.203
19.83,-0.063,0.899,0.109
19.84,-0.378,0.903,-0.175
19.85,-0.097,1.14,-0.065
19.86,-0.181,1.036,0.031
19.87,-0.192,0.646,0.221
19.88,-0.24,1.182,-0.073
19.89,-0.332,0.804,-0.229
19.9,-0.116,1.19,0.083
19.91,-0.049,0.863,0.103
19.92,-0.207,0.922,0.067
19.93,-0.334,0.992,-0.152
19.94,-0.118,1.04,-0.115
19.95,-0.123,0.994,0.091
19.96,-0.089,0.731,0.223
19.97,-0.338,1.179,-0.152
19.98,-0.308,0.784,-0.144
19.99,-0.149,1.271,0.128
20.0,-0.134,0.758,0.121
20.01,-0.172,0.856,0.025
20.02,-0.377,1.231,-0.153
20.03,-0.14,0.897,-0.061
20.04,-0.19,1.023,0.151
20.05,-0.032,0.719,0.188
20.06,-0.483,1.165,-0.158
20.07,-0.194,0.767,-0.115
20.08,-0.085,1.331,0.11
20.09,-0.128,0.724,0.138
20.1,-0.253,0.856,0.046
20.11,-0.35,1.258,-0.232
20.12,-0.03,0.803,-0.054
20.13,-0.282,1.126,0.211
20.14,-0.027,0.669,0.1
20.15,-0.473,1.156,-0.226
20.16,-0.153,0.916,-0.016
20.17,-0.154,1.171,0.104
20.18,-0.194,0.821,0.142
20.19,-0.19,0.879,-0.015
20.2,-0.376,1.199,-0.242
20.21,-0.164,0.812,0.067
20.22,-0.043,1.26,0.117
20.23,-0.097,0.618,0.029
20.24,-0.497,1.173,-0.112
20.25,-0.053,1.003,-0.117
20.26,-0.195,0.97,0.075
20.27,-0.131,0.881,0.214
20.28,-0.311,0.84,-0.129
20.29,-0.417,1.145,-0.175
20.3,-0.058,0.886,0.131
20.31,-0.072,1.198,0.054
20.32,-0.144,0.612,0.032
20.33,-0.348,1.241,-0.12
20.34,-0.159,1.07,-0.124
20.35,-0.176,0.849,0.106
20.36,-0.099,0.999,0.204
20.37,-0.377,0.817,-0.154
20.38,-0.295,1.116,-0.173
20.39,-0.057,0.956,0.143
20.4,-0.186,1.097,0.122
20.41,-0.167,0.665,0.009
20.42,-0.309,1.268,-0.164
20.43,-0.183,1.026,-0.081
20.44,-0.144,0.759,0.157
20.45,-0.061,1.059,0.151
20.46,-0.455,0.735,-0.176
20.47,-0.251,1.147,-0.123
20.48,0.033,1.0,0.035
20.49,-0.202,0.914,0.095
20.5,-0.22,0.764,0.065
20.51,-0.326,1.176,-0.229
20.52,-0.09,1.004,-0.101
20.53,-0.124,0.849,0.214
20.54,-0.171,1.066,0.09
20.55,-0.333,0.734,-0.181
20.56,-0.162,1.257,-0.053
20.57,-0.164,0.932,0.075
20.58,-0.16,0.853,0.153
20.59,-0.214,0.917,0.026
20.6,-0.428,1.081,-0.204
20.61,-0.14,1.06,-0.039
20.62,-0.063,0.839,0.173
20.63,-0.216,1.013,0.092
20.64,-0.307,0.795,-0.167
20.65,-0.179,1.26,-0.067
20.66,-0.062,0.725,0.075
20.67,-0.185,0.985,0.182
20.68,-0.271,0.891,-0.091
20.69,-0.274,1.054,-0.189
20.7,-0.185,1.03,0.082
20.71,-0.013,0.885,0.127
20.72,-0.203,0.998,-0.0
20.73,-0.439,0.815,-0.13
20.74,-0.057,1.274,-0.086
20.75,-0.132,0.69,0.062
20.76,-0.126,0.99,0.226
20.77,-0.281,0.971,-0.189
20.78,-0.401,0.908,-0.124
20.79,-0.071,1.176,0.149
20.8,-0.145,0.771,0.113
20.81,-0.33,0.988,0.032
20.82,-0.251,0.965,-0.195
20.83,-0.171,1.182,-0.02
20.84,-0.241,0.708,0.162
20.85,-0.022,0.977,0.159
20.86,-0.395,0.953,-0.167
20.87,-0.323,0.898,-0.065
20.88,0.026,1.238,0.036
20.89,-0.156,0.636,0.097
20.9,-0.281,1.067,0.02
20.91,-0.273,0.907,-0.203
20.92,-0.165,1.096,-0.024
20.93,-0.136,0.821,0.186
20.94,0.0,0.926,0.063
20.95,-0.439,1.019,-0.183
20.96,-0.205,0.912,-0.031
20.97,-0.067,1.267,0.056
20.98,-0.216,0.628,0.109
20.99,-0.301,1.118,0.005
21.0,-0.292,0.905,-0.229
21.01,-0.122,1.065,0.021
21.02,-0.088,0.92,0.18
21.03,-0.093,0.829,0.064
21.04,-0.461,1.092,-0.17
21.05,-0.15,0.89,-0.008
21.06,-0.088,1.208,0.037
21.07,-0.161,0.619,0.17
21.08,-0.299,1.171,-0.024
21.09,-0.32,0.905,-0.238
21.1,-0.201,1.021,0.125
21.11,-0.063,1.02,0.143
21.12,-0.185,0.719,0.016
21.13,-0.425,1.151,-0.165
21.14,-0.092,0.902,-0.065
21.15,-0.101,1.117,0.072
21.16,-0.152,0.677,0.172
21.17,-0.348,1.115,-0.117
21.18,-0.224,0.898,-0.21
21.19,-0.128,1.073,0.14
21.2,-0.114,0.99,0.122
21.21,-0.204,0.682,-0.033
21.22,-0.434,1.296,-0.146
21.23,-0.051,0.844,-0.069
21.24,-0.26,1.134,0.137
21.25,-0.018,0.717,0.154
21.26,-0.414,1.065,-0.177
21.27,-0.225,1.014,-0.139
21.28,-0.037,1.088,0.098
21.29,-0.144,0.956,0.101
21.3,-0.214,0.682,-0.008
21.31,-0.351,1.333,-0.203
21.32,-0.021,0.858,0.014
21.33,-0.262,1.114,0.159
21.34,0.028,0.766,0.101
21.35,-0.474,1.058,-0.187
21.36,-0.273,1.059,-0.068
21.37,-0.053,0.928,0.077
21.38,-0.176,1.017,0.114
21.39,-0.323,0.701,-0.044
21.4,-0.307,1.247,-0.212
21.41,-0.035,0.844,0.02
21.42,-0.176,1.091,0.172
21.43,-0.111,0.811,0.082
21.44,-0.429,0.986,-0.215
21.45,-0.158,1.19,-0.023
21.46,-0.1,0.827,0.099
21.47,-0.198,0.938,0.181
21.48,-0.328,0.823,-0.149
21.49,-0.253,1.195,-0.166
21.5,-0.11,0.872,0.139
21.51,-0.098,1.072,0.115
21.52,-0.204,0.701,0.002
21.53,-0.437,1.222,-0.146
21.54,-0.056,1.037,-0.041
21.55,-0.169,0.865,0.157
21.56,-0.184,1.017,0.169
21.57,-0.344,0.781,-0.156
21.58,-0.266,1.228,-0.13
21.59,0.02,0.861,0.105
21.6,-0.132,1.015,0.141
21.61,-0.336,0.748,-0.026
21.62,-0.265,1.137,-0.193
21.63,-0.096,1.092,-0.002
21.64,-0.234,0.796,0.197
21.65,-0.072,1.025,0.071
21.66,-0.376,0.806,-0.21
21.67,-0.28,1.245,-0.012
21.68,-0.055,0.865,0.089
21.69,-0.214,0.945,0.118
21.7,-0.218,0.857,-0.013
21.71,-0.367,1.035,-0.17
21.72,-0.171,1.14,0.049
21.73,-0.072,0.8,0.153
21.74,-0.181,0.995,0.052
21.75,-0.499,0.816,-0.134
21.76,-0.135,1.221,-0.054
21.77,-0.123,0.826,0.073
21.78,-0.233,0.912,0.202
21.79,-0.242,1.008,-0.111
21.8,-0.342,0.925,-0.183
21.81,-0.142,1.19,0.113
21.82,-0.031,0.747,0.114
21.83,-0.31,1.004,0.046
21.84,-0.367,0.9,-0.187
21.85,-0.099,1.188,-0.113
21.86,-0.166,0.805,0.126
21.87,-0.113,0.883,0.15
21.88,-0.325,1.016,-0.137
21.89,-0.332,0.89,-0.067
21.9,0.015,1.289,0.043
21.91,-0.143,0.637,0.099
21.92,-0.303,1.002,0.087
21.93,-0.278,1.009,-0.222
21.94,-0.109,1.051,-0.053
21.95,-0.184,0.866,0.174
21.96,-0.102,0.86,0.077
21.97,-0.428,1.04,-0.194
21.98,-0.194,0.864,-0.075
21.99,-0.055,1.335,0.057
22.0,-0.134,0.582,0.109
22.01,-0.29,1.07,0.059
22.02,-0.32,1.008,-0.224
22.03,-0.132,0.959,-0.042
22.04,-0.132,1.008,0.198
22.05,-0.14,0.729,0.052
22.06,-0.508,1.163,-0.178
22.07,-0.082,0.885,-0.036
22.08,-0.188,1.207,0.107
22.09,-0.168,0.618,0.209
22.1,-0.208,1.081,-0.098
22.11,-0.308,0.97,-0.213
22.12,-0.211,0.989,0.089
22.13,-0.07,1.086,0.124
22.14,-0.111,0.678,0.043
22.15,-0.444,1.234,-0.163
22.16,-0.021,0.903,-0.09
22.17,-0.168,1.167,0.074
22.18,-0.157,0.687,0.206
22.19,-0.212,1.041,-0.118
22.2,-0.29,1.025,-0.202
22.21,-0.125,0.967,0.09
22.22,-0.06,1.117,0.079
22.23,-0.158,0.625,-0.003
22.24,-0.44,1.28,-0.142
22.25,-0.106,0.914,-0.097
22.26,-0.15,1.072,0.112
22.27,-0.156,0.786,0.212
22.28,-0.346,0.996,-0.114
22.29,-0.217,0.872,-0.165
22.3,-0.011,1.204,0.085
22.31,-0.197,0.931,0.121
22.32,-0.205,0.674,0.023
22.33,-0.447,1.338,-0.177
22.34,-0.094,0.775,-0.031
22.35,-0.297,1.144,0.216
22.36,-0.062,0.721,0.14
22.37,-0.375,1.03,-0.193
22.38,-0.28,0.979,-0.074
22.39,-0.018,1.069,0.007
22.4,-0.134,0.953,0.148
22.41,-0.243,0.68,0.019
22.42,-0.436,1.337,-0.182
22.43,-0.156,0.77,0.011
22.44,-0.202,1.11,0.182
22.45,-0.104,0.774,0.126
22.46,-0.391,0.988,-0.228
22.47,-0.257,1.018,-0.061
22.48,-0.042,1.067,0.062
22.49,-0.138,0.946,0.087
22.5,-0.258,0.691,0.051
22.51,-0.352,1.349,-0.25
22.52,-0.088,0.764,-0.038
22.53,-0.182,1.116,0.187
22.54,-0.093,0.822,0.076
22.55,-0.413,0.927,-0.211
22.56,-0.193,1.153,-0.048
22.57,-0.102,0.933,0.107
22.58,-0.211,0.986,0.149
22.59,-0.16,0.728,-0.028
22.6,-0.363,1.289,-0.219
22.61,-0.204,0.884,0.074
22.62,-0.075,1.087,0.11
22.63,-0.116,0.834,0.083
22.64,-0.416,0.937,-0.163
22.65,-0.17,1.196,-0.096
22.66,-0.084,0.809,0.064
22.67,-0.218,1.029,0.188
22.68,-0.31,0.782,-0.031
22.69,-0.347,1.198,-0.221
22.7,-0.156,0.911,0.045
22.71,-0.144,1.025,0.191
22.72,-0.203,0.894,0.055
22.73,-0.427,0.888,-0.177
22.74,-0.166,1.233,-0.053
22.75,-0.022,0.797,0.066
22.76,-0.233,1.019,0.153
22.77,-0.198,0.808,-0.073
22.78,-0.304,1.146,-0.184
22.79,-0.226,0.952,0.068
22.8,-0.039,0.944,0.131
22.81,-0.162,0.941,0.01
22.82,-0.424,0.87,-0.222
22.83,-0.077,1.271,-0.069
22.84,-0.086,0.781,0.079
22.85,-0.265,0.997,0.211
22.86,-0.183,0.853,-0.094
22.87,-0.321,1.087,-0.167
22.88,-0.225,1.004,0.094
22.89,0.007,0.859,0.119
22.9,-0.216,0.992,-0.026
22.91,-0.444,0.87,-0.147
22.92,-0.065,1.286,-0.053
22.93,-0.179,0.758,0.082
22.94,-0.156,0.99,0.214
22.95,-0.253,0.903,-0.119
22.96,-0.331,1.002,-0.135
22.97,-0.12,1.154,0.101
22.98,-0.034,0.767,0.094
22.99,-0.377,1.009,0.024
23.0,-0.331,0.912,-0.158
23.01,-0.161,1.196,-0.04
23.02,-0.188,0.736,0.167
23.03,-0.122,1.0,0.146
23.04,-0.335,0.919,-0.169
23.05,-0.277,0.895,-0.101
23.06,-0.131,1.26,0.09
23.07,-0.056,0.696,0.112
23.08,-0.325,1.085,0.057
23.09,-0.383,0.924,-0.167
23.1,-0.096,1.148,-0.024
23.11,-0.187,0.735,0.165
23.12,-0.072,1.052,0.09
23.13,-0.345,0.878,-0.209
23.14,-0.283,1.014,-0.041
23.15,-0.056,1.152,0.041
23.16,-0.095,0.714,0.102
23.17,-0.298,1.064,-0.052
23.18,-0.268,0.943,-0.187
23.19,-0.137,1.197,-0.062
23.2,-0.142,0.738,0.186
23.21,-0.096,0.985,0.079
23.22,-0.369,0.901,-0.229
23.23,-0.229,0.979,-0.028
23.24,-0.097,1.138,0.081
23.25,-0.128,0.648,0.112
23.26,-0.298,1.124,-0.008
23.27,-0.318,0.883,-0.186
23.28,-0.237,1.135,0.013
23.29,-0.061,0.816,0.181
23.3,-0.116,0.961,0.07
23.31,-0.406,1.002,-0.188
23.32,-0.061,0.983,-0.083
23.33,-0.138,1.094,0.035
23.34,-0.183,0.676,0.225
23.35,-0.292,1.195,-0.095
23.36,-0.344,0.771,-0.185
23.37,-0.213,1.178,0.123
23.38,-0.088,0.87,0.15
23.39,-0.185,0.823,-0.001
23.4,-0.412,1.105,-0.137
23.41,-0.066,0.928,-0.105
23.42,-0.211,1.102,0.059
23.43,-0.091,0.665,0.202
23.44,-0.345,1.173,-0.177
23.45,-0.285,0.811,-0.158
23.46,-0.111,1.214,0.104
23.47,-0.043,0.814,0.111
23.48,-0.297,0.812,0.074
23.49,-0.374,1.228,-0.165
23.5,-0.103,0.888,-0.06
23.51,-0.191,1.099,0.083
23.52,-0.059,0.704,0.224
23.53,-0.462,1.151,-0.158
23.54,-0.248,0.834,-0.154
23.55,-0.041,1.179,0.069
23.56,-0.139,0.849,0.121
23.57,-0.282,0.759,0.028
23.58,-0.333,1.301,-0.192
23.59,-0.101,0.826,-0.056
23.6,-0.253,1.089,0.178
23.61,-0.032,0.749,0.133
23.62,-0.443,1.085,-0.194
23.63,-0.247,0.859,-0.091
23.64,-0.058,1.178,0.091
23.65,-0.16,0.891,0.11
23.66,-0.253,0.736,0.018
23.67,-0.324,1.311,-0.214
23.68,-0.067,0.779,-0.022
23.69,-0.255,1.127,0.191
23.7,-0.041,0.757,0.105
23.71,-0.484,1.048,-0.174
23.72,-0.248,0.954,-0.033
23.73,-0.003,1.034,0.063
23.74,-0.2,0.934,0.103
23.75,-0.277,0.758,0.017
23.76,-0.343,1.292,-0.216
23.77,-0.16,0.793,0.012
23.78,-0.088,1.184,0.168
23.79,-0.092,0.727,0.058
23.8,-0.517,1.067,-0.136
23.81,-0.079,1.105,-0.057
23.82,-0.14,0.893,0.108
23.83,-0.232,0.985,0.157
23.84,-0.196,0.759,-0.115
23.85,-0.358,1.222,-0.197
23.86,-0.123,0.861,0.15
23.87,-0.16,1.106,0.155
23.88,-0.11,0.704,-0.026
23.89,-0.485,1.069,-0.12
23.9,-0.109,1.172,-0.041
23.91,-0.149,0.81,0.038
23.92,-0.075,0.939,0.148
23.93,-0.305,0.817,-0.179
23.94,-0.38,1.172,-0.117
23.95,0.011,0.916,0.028
23.96,-0.08,1.032,0.074
23.97,-0.256,0.703,0.057
23.98,-0.291,1.222,-0.231
23.99,-0.137,0.965,-0.053
24.0,-0.211,0.859,0.178
24.01,-0.103,1.034,0.127
24.02,-0.341,0.758,-0.204
24.03,-0.28,1.215,-0.07
24.04,0.01,0.916,0.085
24.05,-0.162,0.968,0.116
24.06,-0.288,0.764,0.058
24.07,-0.26,1.179,-0.199
24.08,-0.089,1.028,-0.07
24.09,-0.179,0.816,0.208
24.1,-0.094,1.038,0.074
24.11,-0.429,0.783,-0.248
24.12,-0.142,1.252,-0.037
24.13,-0.072,0.909,0.054
24.14,-0.207,0.874,0.158
24.15,-0.218,0.91,0.014
24.16,-0.292,1.067,-0.233
24.17,-0.247,0.997,-0.003
24.18,0.023,0.894,0.175
24.19,-0.218,1.052,0.045
24.2,-0.425,0.758,-0.195
24.21,-0.066,1.254,-0.049
24.22,-0.132,0.876,0.083
24.23,-0.226,0.871,0.221
24.24,-0.221,0.964,-0.069
24.25,-0.321,0.917,-0.167
24.26,-0.172,1.152,0.058
24.27,0.014,0.81,0.131
24.28,-0.247,1.032,0.04
24.29,-0.361,0.822,-0.176
24.3,-0.099,1.242,-0.073
24.31,-0.127,0.794,0.065
24.32,-0.115,0.84,0.211
24.33,-0.338,1.11,-0.137
24.34,-0.273,0.829,-0.159
24.35,-0.138,1.261,0.117
24.36,-0.067,0.767,0.144
24.37,-0.245,1.014,-0.02
24.38,-0.301,0.905,-0.162
24.39,-0.137,1.167,-0.027
24.4,-0.253,0.856,0.12
24.41,-0.02,0.838,0.175
24.42,-0.45,1.111,-0.153
24.43,-0.282,0.807,-0.066
24.44,-0.071,1.351,0.056
24.45,-0.068,0.636,0.083
24.46,-0.286,1.037,0.043
24.47,-0.346,1.019,-0.182
24.48,-0.166,0.988,-0.009
24.49,-0.22,0.959,0.218
24.5,-0.069,0.761,0.111
24.51,-0.454,1.127,-0.176
24.52,-0.2,0.872,-0.044
24.53,-0.1,1.323,0.04
24.54,-0.128,0.596,0.107
24.55,-0.235,1.045,0.029
24.56,-0.319,1.049,-0.242
24.57,-0.087,0.959,-0.035
24.58,-0.137,0.999,0.146
24.59,-0.121,0.72,0.083
24.6,-0.441,1.151,-0.169
24.61,-0.214,0.863,-0.035
24.62,-0.052,1.284,0.008
24.63,-0.12,0.649,0.104
24.64,-0.25,1.013,-0.006
24.65,-0.358,1.063,-0.212
24.66,-0.098,0.899,-0.001
24.67,-0.122,1.14,0.15
24.68,-0.051,0.663,0.045
24.69,-0.516,1.206,-0.128
24.7,-0.098,0.912,-0.047
24.71,-0.154,1.173,0.076
24.72,-0.223,0.694,0.205
24.73,-0.374,1.109,-0.13
24.74,-0.263,0.867,-0.184
24.75,-0.073,1.136,0.129
24.76,-0.163,0.935,0.113
24.77,-0.157,0.678,0.036
24.78,-0.421,1.337,-0.163
24.79,-0.159,0.829,-0.059
24.8,-0.226,1.125,0.121
24.81,-0.135,0.728,0.206
24.82,-0.45,1.021,-0.143
24.83,-0.198,0.88,-0.14
24.84,0.009,1.151,0.091
24.85,-0.181,0.965,0.099
24.86,-0.228,0.68,0.06
24.87,-0.343,1.376,-0.216
24.88,-0.117,0.789,-0.06
24.89,-0.213,1.127,0.196
24.9,-0.036,0.744,0.097
24.91,-0.492,0.986,-0.201
24.92,-0.207,0.998,-0.065
24.93,-0.087,1.103,0.069
24.94,-0.113,0.913,0.098
24.95,-0.208,0.715,0.005
24.96,-0.394,1.366,-0.216
24.97,-0.098,0.786,-0.016
24.98,-0.147,1.097,0.144
24.99,-0.094,0.803,0.11
25.0,-0.496,0.966,-0.209
25.01,-0.166,1.088,-0.065
25.02,-0.095,1.002,0.085
25.03,-0.209,0.94,0.147
25.04,-0.193,0.7,-0.008
25.05,-0.362,1.373,-0.202
25.06,-0.132,0.848,-0.012
25.07,-0.082,1.085,0.137
25.08,-0.089,0.802,0.048
25.09,-0.487,0.969,-0.177
25.1,-0.057,1.182,-0.116
25.11,-0.148,0.854,0.111
25.12,-0.223,0.999,0.15
25.13,-0.245,0.744,-0.065
25.14,-0.384,1.198,-0.198
25.15,-0.141,0.886,0.112
25.16,-0.044,1.083,0.099
25.17,-0.22,0.804,0.005
25.18,-0.422,0.914,-0.142
25.19,-0.062,1.246,-0.061
25.2,-0.205,0.768,0.119
25.21,-0.164,1.018,0.175
25.22,-0.303,0.853,-0.106
25.23,-0.35,1.117,-0.155
25.24,-0.141,0.985,0.111
25.25,-0.095,0.979,0.157
25.26,-0.179,0.917,-0.016
25.27,-0.391,0.914,-0.138
25.28,-0.126,1.25,-0.105
25.29,-0.152,0.699,0.127
25.3,-0.191,1.038,0.177
25.31,-0.347,0.823,-0.167
25.32,-0.23,1.047,-0.144
25.33,-0.027,1.1,0.075
25.34,-0.079,0.792,0.111
25.35,-0.292,0.988,0.043
25.36,-0.294,0.95,-0.109
25.37,-0.16,1.234,-0.031
25.38,-0.223,0.702,0.144
25.39,-0.077,1.02,0.109
25.4,-0.377,0.868,-0.228
25.41,-0.287,1.072,0.007
25.42,0.004,1.137,0.018
25.43,-0.111,0.677,0.12
25.44,-0.309,1.067,0.021
25.45,-0.224,0.945,-0.175
25.46,-0.223,1.166,-0.004
25.47,-0.213,0.72,0.189
25.48,-0.063,0.992,0.075
25.49,-0.444,0.918,-0.208
25.5,-0.23,0.994,-0.009
25.51,-0.062,1.166,0.064
25.52,-0.146,0.62,0.117
25.53,-0.358,1.11,0.006
25.54,-0.155,0.938,-0.236
25.55,-0.175,1.19,0.051
25.56,-0.019,0.756,0.153
25.57,-0.21,0.99,-0.013
25.58,-0.425,0.887,-0.185
25.59,-0.027,1.164,-0.061
25.6,-0.162,0.913,0.104
25.61,-0.193,0.753,0.202
25.62,-0.286,1.123,-0.144
25.63,-0.308,0.781,-0.15
25.64,-0.127,1.273,0.141
25.65,-0.063,0.757,0.088
25.66,-0.261,0.975,0.012
25.67,-0.417,0.99,-0.16
25.68,-0.044,1.092,-0.051
25.69,-0.177,0.964,0.084
25.7,-0.129,0.759,0.196
25.71,-0.405,1.181,-0.183
25.72,-0.206,0.809,-0.122
25.73,-0.042,1.312,0.069
25.74,-0.115,0.665,0.147
25.75,-0.314,0.964,0.007
25.76,-0.347,1.063,-0.192
25.77,-0.023,0.974,-0.005
25.78,-0.288,1.047,0.16
25.79,-0.009,0.706,0.092
25.8,-0.501,1.196,-0.205
25.81,-0.2,0.819,-0.056
25.82,-0.029,1.241,0.08
25.83,-0.131,0.675,0.104
25.84,-0.253,0.97,-0.027
25.85,-0.312,1.1,-0.242
25.86,-0.139,0.879,0.038
25.87,-0.131,1.154,0.164
25.88,-0.123,0.64,0.031
25.89,-0.452,1.215,-0.185
25.9,-0.073,0.933,-0.028
25.91,-0.227,1.113,0.137
25.92,-0.212,0.755,0.216
25.93,-0.263,0.966,-0.112
25.94,-0.25,1.098,-0.192
25.95,-0.093,0.918,0.132
25.96,-0.155,1.105,0.103
25.97,-0.21,0.617,0.007
25.98,-0.425,1.322,-0.158
25.99,-0.097,0.894,-0.06
26.0,-0.247,1.038,0.171
26.01,-0.125,0.861,0.176
26.02,-0.386,0.877,-0.181
26.03,-0.302,1.147,-0.075
26.04,-0.027,0.914,0.088
26.05,-0.219,1.021,0.123
26.06,-0.197,0.7,0.037
26.07,-0.483,1.299,-0.22
26.08,-0.072,0.834,-0.054
26.09,-0.158,1.069,0.174
26.1,-0.117,0.885,0.081
26.11,-0.41,0.819,-0.189
26.12,-0.175,1.265,-0.065
26.13,-0.075,0.853,0.057
26.14,-0.181,0.976,0.141
26.15,-0.199,0.777,-0.008
26.16,-0.414,1.233,-0.206
26.17,-0.07,0.917,0.008
26.18,-0.124,0.992,0.145
26.19,-0.14,0.922,0.03
26.2,-0.414,0.834,-0.165
26.21,-0.146,1.277,-0.013
26.22,-0.067,0.821,0.127
26.23,-0.237,0.977,0.151
26.24,-0.24,0.831,-0.092
26.25,-0.307,1.12,-0.186
26.26,-0.195,1.044,0.099
26.27,-0.093,0.857,0.14
26.28,-0.208,0.967,-0.046
26.29,-0.373,0.901,-0.128
26.3,-0.17,1.252,-0.014
26.31,-0.152,0.668,0.11
26.32,-0.11,1.048,0.148
26.33,-0.394,0.885,-0.146
26.34,-0.255,0.985,-0.113
26.35,0.003,1.18,0.026
26.36,-0.116,0.794,0.097
26.37,-0.292,0.983,0.038
26.38,-0.342,0.967,-0.209
26.39,-0.102,1.139,-0.032
26.4,-0.054,0.787,0.17
26.41,-0.153,1.034,0.05
26.42,-0.355,0.848,-0.184
26.43,-0.099,1.168,-0.103
26.44,-0.15,0.916,0.089
26.45,-0.194,0.802,0.233
26.46,-0.339,1.092,-0.089
26.47,-0.283,0.822,-0.18
26.48,-0.133,1.308,0.122
26.49,-0.07,0.739,0.118
26.5,-0.219,0.973,0.012
26.51,-0.323,0.973,-0.172
26.52,-0.115,1.093,-0.081
26.53,-0.183,0.9,0.114
26.54,-0.119,0.796,0.176
26.55,-0.458,1.113,-0.122
26.56,-0.246,0.803,-0.142
26.57,-0.139,1.337,0.101
26.58,-0.093,0.679,0.116
26.59,-0.276,0.967,0.02
26.6,-0.326,1.076,-0.179
26.61,-0.129,1.039,-0.062
26.62,-0.169,0.922,0.178
26.63,-0.122,0.741,0.133
26.64,-0.415,1.166,-0.196
26.65,-0.248,0.786,-0.11
26.66,0.01,1.292,0.079
26.67,-0.135,0.67,0.142
26.68,-0.343,0.984,0.05
26.69,-0.301,1.1,-0.25
26.7,-0.051,0.866,-0.053
26.71,-0.164,1.072,0.182
26.72,-0.077,0.685,0.07
26.73,-0.464,1.2,-0.224
26.74,-0.123,0.864,0.013
26.75,-0.111,1.201,0.07
26.76,-0.162,0.717,0.192
26.77,-0.342,0.994,-0.022
26.78,-0.205,0.784,0.113
26.79,-0.121,0.897,0.176
26.8,-0.401,1.016,-0.191
26.81,-0.257,0.783,-0.109
26.82,-0.012,1.313,0.062
26.83,-0.159,0.625,0.143
26.84,-0.235,1.028,0.016
26.85,-0.339,0.984,-0.205
26.86,-0.11,1.069,-0.028
26.87,-0.221,0.853,0.141
26.88,-0.166,0.814,0.131
26.89,-0.428,1.117,-0.187
26.9,-0.213,0.848,-0.058
26.91,-0.021,1.271,0.09
26.92,-0.129,0.621,0.127
26.93,-0.343,1.069,0.017
26.94,-0.314,0.95,-0.251
26.95,-0.092,1.043,0.001
26.96,-0.206,0.982,0.218
26.97,-0.128,0.746,0.061
26.98,-0.498,1.184,-0.213
26.99,-0.051,0.87,-0.0
27.0,-0.182,1.227,0.097
27.01,-0.162,0.616,0.18
27.02,-0.285,1.14,-0.096
27.03,-0.309,0.941,-0.197
27.04,-0.15,1.001,0.115
27.05,-0.11,1.038,0.091
27.06,-0.188,0.665,-0.017
27.07,-0.488,1.296,-0.132
27.08,-0.176,0.879,-0.001
27.09,-0.227,1.108,0.131
27.1,0.011,0.712,0.134
27.11,-0.498,1.12,-0.22
27.12,-0.227,0.844,-0.062
27.13,-0.023,1.226,0.091
27.14,-0.249,0.817,0.105
27.15,-0.255,0.812,0.005
27.16,-0.28,1.267,-0.232
27.17,-0.154,0.811,0.043
27.18,-0.177,1.168,0.173
27.19,-0.023,0.68,0.035
27.2,-0.543,1.159,-0.171
27.21,-0.082,0.987,-0.035
27.22,-0.11,1.076,0.048
27.23,-0.228,0.845,0.147
27.24,-0.22,0.83,-0.028
27.25,-0.376,1.25,-0.162
27.26,-0.135,0.801,0.076
27.27,-0.036,1.196,0.114
27.28,-0.205,0.641,-0.012
27.29,-0.477,1.16,-0.161
27.3,0.022,1.042,-0.09
27.31,-0.197,0.921,0.145
27.32,-0.238,0.919,0.201
27.33,-0.282,0.839,-0.157
27.34,-0.31,1.179,-0.156
27.35,-0.02,0.88,0.155
27.36,-0.2,1.084,0.132
27.37,-0.343,0.694,-0.009
27.38,-0.261,1.179,-0.211
27.39,-0.08,1.025,-0.08
27.4,-0.202,0.824,0.204
27.41,-0.038,1.03,0.093
27.42,-0.422,0.79,-0.228
27.43,-0.274,1.239,-0.012
27.44,-0.034,0.883,0.086
27.45,-0.236,0.928,0.157
27.46,-0.267,0.836,-0.031
27.47,-0.27,1.11,-0.214
27.48,-0.114,1.076,-0.006
27.49,-0.091,0.828,0.159
27.5,-0.13,0.993,0.043
27.51,-0.422,0.852,-0.179
27.52,-0.119,1.263,-0.05
27.53,-0.17,0.8,0.095
27.54,-0.207,0.901,0.21
27.55,-0.298,0.934,-0.138
27.56,-0.285,0.954,-0.19
27.57,-0.099,1.205,0.094
27.58,-0.115,0.727,0.127
27.59,-0.253,1.026,0.008
27.6,-0.386,0.936,-0.162
27.61,-0.135,1.173,-0.033
27.62,-0.189,0.79,0.149
27.63,-0.08,0.944,0.134
27.64,-0.381,0.981,-0.213
27.65,-0.25,0.914,-0.052
27.66,-0.03,1.285,0.072
27.67,-0.145,0.63,0.106
27.68,-0.323,1.075,0.039
27.69,-0.286,0.957,-0.234
27.7,-0.104,1.109,-0.016
27.71,-0.239,0.843,0.18
27.72,-0.09,0.855,0.061
27.73,-0.462,1.092,-0.216
27.74,-0.093,0.913,-0.009
27.75,-0.117,1.218,0.08
27.76,-0.155,0.592,0.14
27.77,-0.26,1.144,-0.068
27.78,-0.292,0.907,-0.21
27.79,-0.171,1.094,0.076
27.8,-0.072,0.958,0.106
27.81,-0.096,0.751,-0.019
27.82,-0.494,1.182,-0.164
27.83,-0.015,0.863,-0.073
27.84,-0.13,1.143,0.025
27.85,-0.137,0.677,0.225
27.86,-0.386,1.108,-0.167
27.87,-0.248,0.87,-0.165
27.88,-0.017,1.158,0.094
27.89,-0.1,0.714,0.063
27.9,-0.278,0.884,0.086
27.91,-0.325,1.15,-0.26
27.92,-0.097,0.839,-0.027
27.93,-0.139,1.193,0.155
27.94,-0.131,0.637,0.071
27.95,-0.478,1.19,-0.174
27.96,-0.117,0.938,-0.033
27.97,-0.141,1.1,0.078
27.98,-0.156,0.779,0.195
27.99,-0.277,0.908,-0.074
28.0,-0.31,1.075,-0.22
28.01,-0.109,0.92,0.127
28.02,-0.119,1.181,0.14
28.03,-0.15,0.601,0.038
28.04,-0.441,1.231,-0.198
28.05,-0.093,0.991,-0.089
28.06,-0.152,0.975,0.082
28.07,-0.175,0.868,0.204
28.08,-0.312,0.849,-0.125
28.09,-0.298,1.153,-0.168
28.1,-0.091,0.907,0.134
28.11,-0.128,1.094,0.125
28.12,-0.178,0.644,0.01
28.13,-0.4,1.258,-0.184
28.14,-0.103,0.965,-0.054
28.15,-0.232,0.906,0.143
28.16,-0.054,0.946,0.124
28.17,-0.382,0.802,-0.209
28.18,-0.236,1.237,-0.06
28.19,-0.034,0.896,0.051
28.2,-0.138,0.978,0.116
28.21,-0.212,0.741,0.046
28.22,-0.386,1.226,-0.25
28.23,-0.117,0.927,-0.052
28.24,-0.089,0.957,0.189
28.25,-0.126,0.991,0.085
28.26,-0.459,0.76,-0.155
28.27,-0.082,1.286,-0.099
28.28,-0.038,0.835,0.072
28.29,-0.24,0.972,0.211
28.3,-0.228,0.813,-0.075
28.31,-0.371,1.024,-0.155
28.32,-0.125,1.085,0.095
28.33,-0.116,0.875,0.12
28.34,-0.261,0.977,0.007
28.35,-0.297,0.873,-0.144
28.36,-0.22,1.295,-0.061
28.37,-0.079,0.693,0.027
28.38,-0.063,0.994,0.185
28.39,-0.343,0.897,-0.167
28.4,-0.337,0.942,-0.134
28.41,-0.087,1.217,0.081
28.42,-0.075,0.681,0.105
28.43,-0.269,1.06,0.04
28.44,-0.338,0.909,-0.192
28.45,-0.147,1.206,-0.023
28.46,-0.157,0.777,0.174
28.47,-0.068,0.967,0.138
28.48,-0.42,0.981,-0.176
28.49,-0.289,0.907,-0.08
28.5,-0.006,1.251,0.045
28.51,-0.101,0.598,0.102
28.52,-0.272,1.107,0.01
28.53,-0.311,0.946,-0.226
28.54,-0.167,1.063,-0.04
28.55,-0.131,0.878,0.179
28.56,-0.109,0.875,0.077
28.57,-0.416,1.032,-0.239
28.58,-0.128,0.907,-0.024
28.59,-0.121,1.219,0.09
28.6,-0.186,0.587,0.161
28.61,-0.292,1.136,-0.043
28.62,-0.285,0.876,-0.221
28.63,-0.2,1.09,0.072
28.64,-0.028,0.982,0.147
28.65,-0.157,0.758,0.06
28.66,-0.515,1.161,-0.131
28.67,-0.089,0.938,-0.086
28.68,-0.188,1.127,0.018
28.69,-0.099,0.687,0.225
28.7,-0.378,1.167,-0.159
28.71,-0.23,0.734,-0.125
28.72,-0.036,1.357,0.092
28.73,-0.147,0.72,0.12
28.74,-0.241,0.924,0.031
28.75,-0.358,1.159,-0.162
28.76,-0.147,0.865,-0.054
28.77,-0.227,1.068,0.191
28.78,-0.03,0.729,0.112
28.79,-0.488,1.166,-0.199
28.8,-0.217,0.8,-0.055
28.81,-0.05,1.294,0.072
28.82,-0.121,0.709,0.113
28.83,-0.298,0.91,0.03
28.84,-0.307,1.207,-0.246
28.85,-0.098,0.815,0.023
28.86,-0.218,1.196,0.201
28.87,-0.102,0.652,0.089
28.88,-0.465,1.162,-0.202
28.89,-0.069,0.944,-0.033
28.9,-0.178,1.116,0.106
28.91,-0.184,0.753,0.173
28.92,-0.248,0.872,-0.054
28.93,-0.359,1.199,-0.161
28.94,-0.172,0.824,0.078
28.95,-0.126,1.212,0.147
28.96,-0.06,0.572,-0.005
28.97,-0.495,1.213,-0.172
28.98,-0.008,0.977,-0.087
28.99,-0.169,0.973,0.077
29.0,-0.119,0.889,0.2
29.01,-0.352,0.831,-0.135
29.02,-0.299,1.159,-0.139
29.03,-0.092,0.921,0.111
29.04,-0.152,1.091,0.105
29.05,-0.146,0.639,-0.011
29.06,-0.404,1.248,-0.2
29.07,-0.125,0.961,-0.018
29.08,-0.127,0.912,0.137
29.09,-0.196,0.99,0.181
29.1,-0.383,0.756,-0.172
29.11,-0.23,1.222,-0.122
29.12,-0.029,0.963,0.074
29.13,-0.146,0.964,0.089
29.14,-0.182,0.716,-0.008
29.15,-0.394,1.212,-0.179
29.16,-0.028,0.99,-0.013
29.17,-0.191,0.852,0.162
29.18,-0.175,1.029,0.106
29.19,-0.4,0.774,-0.201
29.2,-0.243,1.248,-0.051
29.21,-0.016,0.888,0.094
29.22,-0.192,0.94,0.13
29.23,-0.252,0.837,-0.043
29.24,-0.287,1.104,-0.187
29.25,-0.105,1.078,-0.012
29.26,-0.075,0.793,0.181
29.27,-0.228,1.03,0.064
29.28,-0.448,0.821,-0.21
29.29,-0.074,1.247,-0.09
29.3,-0.135,0.801,0.111
29.31,-0.185,0.901,0.201
29.32,-0.325,0.917,-0.1
29.33,-0.29,0.966,-0.201
29.34,0.001,1.181,0.063
29.35,-0.101,0.695,0.145
29.36,-0.323,1.041,0.034
29.37,-0.28,0.921,-0.193
29.38,-0.199,1.154,-0.063
29.39,-0.171,0.756,0.19
29.4,-0.155,0.949,0.132
29.41,-0.353,0.979,-0.211
29.42,-0.286,0.904,-0.052
29.43,-0.062,1.261,0.063
29.44,-0.073,0.613,0.121
29.45,-0.329,1.125,0.042
29.46,-0.289,0.919,-0.255
29.47,-0.132,1.131,-0.001
29.48,-0.156,0.905,0.154
29.49,-0.149,0.835,0.074
29.5,-0.403,1.082,-0.188
29.51,-0.198,0.889,-0.044
29.52,-0.134,1.03,0.09
29.53,-0.154,0.717,0.166
29.54,-0.356,1.142,-0.093
29.55,-0.248,0.798,-0.206
29.56,-0.154,1.271,0.136
29.57,-0.109,0.782,0.148
29.58,-0.215,0.917,0.009
29.59,-0.395,1.091,-0.178
29.6,-0.158,0.946,-0.028
29.61,-0.204,1.058,0.118
29.62,-0.114,0.719,0.179
29.63,-0.413,1.131,-0.182
29.64,-0.256,0.773,-0.122
29.65,-0.005,1.299,0.07
29.66,-0.08,0.76,0.093
29.67,-0.28,0.867,-0.01
29.68,-0.29,1.176,-0.207
29.69,-0.082,0.866,-0.051
29.7,-0.257,1.061,0.219
29.71,-0.01,0.703,0.079
29.72,-0.446,1.191,-0.265
29.73,-0.179,0.838,-0.002
29.74,-0.077,1.163,0.072
29.75,-0.147,0.807,0.107
29.76,-0.278,0.856,-0.037
29.77,-0.371,1.161,-0.201
29.78,-0.161,0.829,0.07
29.79,-0.115,1.25,0.14
29.8,-0.079,0.63,0.024
29.81,-0.421,1.169,-0.199
29.82,-0.01,0.997,-0.057
29.83,-0.15,1.008,0.076
29.84,-0.176,0.862,0.196
29.85,-0.327,0.845,-0.113
29.86,-0.322,1.207,-0.147
29.87,-0.141,0.865,0.115
29.88,-0.115,1.087,0.112
29.89,-0.158,0.648,0.002
29.9,-0.454,1.257,-0.151
29.91,-0.016,0.955,-0.054
29.92,-0.185,0.938,0.144
29.93,-0.186,0.974,0.164
29.94,-0.358,0.786,-0.165
29.95,-0.28,1.186,-0.109
29.96,-0.081,0.935,0.109
29.97,-0.158,0.973,0.069
29.98,-0.22,0.748,-0.001
29.99,-0.385,1.256,-0.205
30.0,-0.079,0.944,-0.039
30.01,-0.159,0.881,0.195
30.02,-0.12,1.02,0.071
30.03,-0.361,0.773,-0.232
30.04,-0.256,1.269,-0.012
30.05,-0.057,0.855,0.108
30.06,-0.194,0.96,0.119
30.07,-0.296,0.792,-0.036
30.08,-0.27,1.126,-0.215
30.09,-0.126,1.043,-0.004
30.1,-0.102,0.791,0.14
30.11,-0.172,1.01,-0.019
30.12,-0.413,0.906,-0.134
30.13,-0.184,1.254,-0.015
30.14,-0.142,0.722,0.097
30.15,-0.169,0.994,0.158
30.16,-0.296,0.923,-0.169
30.17,-0.305,0.969,-0.144
30.18,-0.079,1.187,0.095
30.19,-0.076,0.663,0.094
30.2,-0.309,1.051,0.02
30.21,-0.298,0.925,-0.176
30.22,-0.114,1.194,-0.009
30.23,-0.239,0.729,0.188
30.24,-0.129,0.942,0.119
30.25,-0.366,0.991,-0.244
30.26,-0.282,0.914,-0.004
30.27,-0.062,1.205,0.106
30.28,-0.104,0.623,0.11
30.29,-0.366,1.1,-0.013
30.3,-0.26,0.891,-0.213
30.31,-0.112,1.169,0.001
30.32,-0.13,0.839,0.165
30.33,-0.127,0.828,0.025
30.34,-0.432,1.011,-0.149
30.35,-0.078,1.078,-0.052
30.36,-0.192,0.971,0.108
30.37,-0.111,0.751,0.154
30.38,-0.404,1.174,-0.169
30.39,-0.278,0.824,-0.08
30.4,-0.027,1.283,0.066
30.41,-0.104,0.703,0.13
30.42,-0.31,0.958,0.017
30.43,-0.347,1.067,-0.208
30.44,-0.099,0.947,0.042
30.45,-0.209,1.074,0.157
30.46,-0.11,0.681,0.08
30.47,-0.439,1.224,-0.224
30.48,-0.134,0.873,-0.059
30.49,-0.114,1.177,0.089
30.5,-0.181,0.723,0.154
30.51,-0.286,0.96,-0.088
30.52,-0.294,1.098,-0.205
30.53,-0.133,0.928,0.102
30.54,-0.149,1.109,0.152
30.55,-0.155,0.616,0.034
30.56,-0.523,1.251,-0.181
30.57,0.011,0.915,-0.06
30.58,-0.214,1.12,0.118
30.59,-0.174,0.761,0.188
30.6,-0.281,0.961,-0.148
30.61,-0.283,1.135,-0.156
30.62,-0.106,0.926,0.123
30.63,-0.153,1.071,0.117
30.64,-0.258,0.63,0.002
30.65,-0.373,1.311,-0.185
30.66,-0.074,0.88,-0.028
30.67,-0.228,1.014,0.163
30.68,-0.024,0.872,0.081
30.69,-0.49,0.931,-0.199
30.7,-0.201,1.186,-0.04
30.71,-0.042,0.882,0.072
30.72,-0.185,1.003,0.102
30.73,-0.254,0.737,-0.013
30.74,-0.35,1.266,-0.206
30.75,-0.147,0.903,0.064
30.76,-0.028,0.993,0.138
30.77,-0.252,0.914,0.023
30.78,-0.466,0.893,-0.14
30.79,-0.039,1.27,-0.064
30.8,-0.155,0.729,0.13
30.81,-0.2,1.065,0.182
30.82,-0.234,0.803,-0.204
30.83,-0.335,1.148,-0.151
30.84,0.049,1.025,0.098
30.85,-0.158,0.817,0.153
30.86,-0.359,0.955,-0.005
30.87,-0.215,0.946,-0.208
30.88,-0.131,1.239,-0.021
30.89,-0.214,0.705,0.225
30.9,-0.066,1.029,0.102
30.91,-0.421,0.875,-0.249
30.92,-0.098,1.056,-0.065
30.93,-0.069,1.022,0.058
30.94,-0.194,0.725,0.167
30.95,-0.302,1.104,-0.087
30.96,-0.28,0.868,-0.207
30.97,-0.128,1.247,0.073
30.98,-0.167,0.75,0.167
30.99,-0.216,0.955,0.011
31.0,-0.303,0.954,-0.197
31.01,-0.145,1.013,-0.018
31.02,-0.196,1.003,0.117
31.03,-0.058,0.718,0.142
31.04,-0.417,1.146,-0.164
31.05,-0.202,0.818,-0.115
31.06,-0.105,1.324,0.125
31.07,-0.15,0.69,0.152
31.08,-0.267,0.94,-0.03
31.09,-0.283,1.103,-0.2
31.1,-0.104,0.966,-0.011
31.11,-0.24,1.024,0.165
31.12,0.0,0.706,0.035
31.13,-0.478,1.167,-0.238
31.14,-0.13,0.868,-0.007
31.15,-0.167,1.207,0.081
31.16,-0.167,0.659,0.193
31.17,-0.316,1.075,-0.101
31.18,-0.305,0.929,-0.175
31.19,-0.069,1.139,0.149
31.2,-0.104,0.914,0.111
31.21,-0.265,0.721,0.023
31.22,-0.37,1.328,-0.198
31.23,-0.041,0.861,-0.062
31.24,-0.334,1.092,0.207
31.25,0.02,0.731,0.145
31.26,-0.463,1.096,-0.215
31.27,-0.289,0.97,-0.031
31.28,-0.041,1.068,0.068
31.29,-0.175,0.926,0.085
31.3,-0.302,0.756,-0.042
31.31,-0.327,1.319,-0.223
31.32,-0.114,0.821,0.041
31.33,-0.125,1.156,0.186
31.34,-0.087,0.708,0.089
31.35,-0.424,1.125,-0.205
31.36,-0.096,1.089,-0.089
31.37,-0.117,0.837,0.132
31.38,-0.213,1.031,0.184
31.39,-0.27,0.748,-0.15
31.4,-0.316,1.219,-0.191
31.41,-0.094,0.917,0.131
31.42,-0.172,1.015,0.122
31.43,-0.148,0.742,-0.0
31.44,-0.417,1.139,-0.181
31.45,-0.112,1.103,-0.007
31.46,-0.172,0.806,0.126
31.47,-0.127,1.035,0.09
31.48,-0.344,0.753,-0.233
31.49,-0.228,1.259,-0.089
31.5,0.029,0.922,0.059
31.51,-0.147,0.907,0.114
31.52,-0.234,0.873,-0.006
31.53,-0.36,1.057,-0.207
31.54,-0.151,1.102,0.005
31.55,-0.073,0.814,0.14
31.56,-0.198,1.025,0.043
31.57,-0.386,0.825,-0.157
31.58,-0.086,1.258,-0.107
31.59,-0.125,0.789,0.105
31.6,-0.201,0.901,0.246
31.61,-0.297,0.972,-0.131
31.62,-0.332,0.889,-0.162
31.63,-0.046,1.272,0.099
31.64,-0.066,0.718,0.15
31.65,-0.241,1.062,0.027
31.66,-0.314,0.906,-0.166
31.67,-0.171,1.122,-0.05
31.68,-0.192,0.868,0.132
31.69,-0.08,0.872,0.118
31.7,-0.423,1.024,-0.176
31.71,-0.191,0.895,-0.05
31.72,-0.068,1.334,0.075
31.73,-0.144,0.615,0.138
31.74,-0.3,1.073,0.02
31.75,-0.292,0.959,-0.228
31.76,-0.168,1.101,0.03
31.77,-0.182,0.938,0.18
31.78,-0.091,0.782,0.078
31.79,-0.517,1.144,-0.172
31.8,-0.174,0.841,-0.029
31.81,-0.043,1.218,0.063
31.82,-0.15,0.627,0.154
31.83,-0.249,1.099,-0.047
31.84,-0.308,0.934,-0.236
31.85,-0.168,0.994,0.097
31.86,-0.021,1.034,0.106
31.87,-0.187,0.68,0.001
31.88,-0.502,1.241,-0.139
31.89,-0.048,0.88,-0.054
31.9,-0.241,1.12,0.117
31.91,-0.056,0.723,0.162
31.92,-0.373,1.087,-0.188
31.93,-0.365,0.926,-0.089
31.94,-0.014,1.061,0.092
31.95,-0.133,0.973,0.092
31.96,-0.315,0.708,0.029
31.97,-0.347,1.185,-0.222
31.98,-0.084,0.872,-0.021
31.99,-0.207,1.221,0.173
32.0,-0.054,0.616,0.031
32.01,-0.511,1.164,-0.145
32.02,-0.1,1.009,-0.05
32.03,-0.137,1.051,0.094
32.04,-0.143,0.829,0.162
32.05,-0.274,0.852,-0.101
32.06,-0.282,1.174,-0.189
32.07,-0.153,0.915,0.139
32.08,-0.153,1.161,0.118
32.09,-0.142,0.65,0.003
32.1,-0.427,1.228,-0.166
32.11,-0.153,0.968,-0.049
32.12,-0.189,0.952,0.109
32.13,-0.099,0.943,0.141
32.14,-0.335,0.773,-0.17
32.15,-0.348,1.241,-0.071
32.16,-0.045,0.864,0.046
32.17,-0.145,0.998,0.087
32.18,-0.205,0.748,0.065
32.19,-0.34,1.206,-0.273
32.2,-0.136,0.941,-0.013
32.21,-0.084,0.963,0.179
32.22,-0.118,0.968,0.049
32.23,-0.384,0.752,-0.166
32.24,-0.19,1.312,-0.057
32.25,-0.027,0.826,0.054
32.26,-0.166,0.932,0.154
32.27,-0.263,0.88,-0.032
32.28,-0.383,1.09,-0.199
32.29,-0.184,0.994,0.058
32.3,-0.003,0.93,0.153
32.31,-0.2,0.987,0.036
32.32,-0.406,0.81,-0.099
32.33,-0.149,1.286,-0.096
32.34,-0.083,0.779,0.037
32.35,-0.137,0.961,0.188
32.36,-0.299,0.888,-0.148
32.37,-0.292,0.968,-0.173
32.38,-0.064,1.184,0.085
32.39,-0.076,0.753,0.13
32.4,-0.334,1.031,0.065
32.41,-0.292,0.919,-0.177
32.42,-0.246,1.198,-0.028
32.43,-0.19,0.721,0.209
32.44,-0.01,1.002,0.117
32.45,-0.394,0.924,-0.214
32.46,-0.251,0.862,-0.051
32.47,-0.005,1.292,0.038
32.48,-0.16,0.631,0.133
32.49,-0.275,1.087,0.056
32.5,-0.274,0.937,-0.276
32.51,-0.189,1.091,-0.031
32.52,-0.13,0.848,0.159
32.53,-0.114,0.826,0.095
32.54,-0.435,1.072,-0.159
32.55,-0.161,0.953,-0.062
32.56,-0.18,1.174,0.095
32.57,-0.12,0.624,0.172
32.58,-0.221,1.172,-0.067
32.59,-0.387,0.865,-0.191
32.6,-0.1,1.097,0.051
32.61,-0.142,1.015,0.147
32.62,-0.116,0.778,0.07
32.63,-0.443,1.118,-0.203
32.64,-0.056,0.925,-0.04
32.65,-0.146,1.184,0.061
32.66,-0.224,0.647,0.231
32.67,-0.268,1.131,-0.063
32.68,-0.322,0.895,-0.212
32.69,-0.137,1.067,0.131
32.7,-0.057,1.017,0.061
32.71,-0.187,0.721,0.013
32.72,-0.451,1.233,-0.162
32.73,-0.054,0.884,-0.087
32.74,-0.15,1.118,0.081
32.75,-0.091,0.727,0.178
32.76,-0.384,1.084,-0.157
32.77,-0.274,0.883,-0.189
32.78,-0.067,1.25,0.073
32.79,-0.06,0.725,0.1
32.8,-0.254,0.878,0.055
32.81,-0.396,1.181,-0.234
32.82,-0.083,0.776,-0.074
32.83,-0.212,1.187,0.224
32.84,-0.051,0.671,0.079
32.85,-0.494,1.165,-0.211
32.86,-0.112,0.947,-0.019
32.87,-0.161,1.148,0.099
32.88,-0.183,0.771,0.156
32.89,-0.171,0.848,-0.034
32.9,-0.438,1.207,-0.182
32.91,-0.114,0.817,0.018
32.92,-0.149,1.243,0.131
32.93,-0.143,0.619,0.036
32.94,-0.493,1.181,-0.127
32.95,0.003,1.048,-0.144
32.96,-0.155,0.99,0.08
32.97,-0.089,0.904,0.165
32.98,-0.234,0.819,-0.135
32.99,-0.363,1.169,-0.141
33.0,-0.089,0.908,0.119
33.01,-0.114,1.179,0.115
33.02,-0.193,0.625,0.039
33.03,-0.411,1.197,-0.141
33.04,-0.089,1.046,-0.05
33.05,-0.202,0.855,0.095
33.06,-0.111,0.987,0.188
33.07,-0.288,0.818,-0.186
33.08,-0.37,1.139,-0.111
33.09,-0.059,0.902,0.108
33.1,-0.147,1.119,0.145
33.11,-0.235,0.686,0.018
33.12,-0.376,1.196,-0.118
33.13,-0.133,1.076,-0.092
33.14,-0.172,0.773,0.159
33.15,-0.098,1.068,0.159
33.16,-0.388,0.782,-0.204
33.17,-0.327,1.149,-0.106
33.18,0.06,0.982,0.06
33.19,-0.132,0.94,0.118
33.2,-0.322,0.8,0.055
33.21,-0.332,1.127,-0.206
33.22,-0.078,1.062,-0.091
33.23,-0.121,0.795,0.186
33.24,-0.168,1.013,0.07
33.25,-0.437,0.808,-0.204
33.26,-0.135,1.271,-0.066
33.27,-0.081,0.855,0.032
33.28,-0.184,0.902,0.187
33.29,-0.24,0.958,-0.046
33.3,-0.378,0.959,-0.226
33.31,-0.083,1.099,0.046
33.32,-0.065,0.856,0.172
33.33,-0.288,0.979,0.087
33.34,-0.333,0.821,-0.175
33.35,-0.138,1.271,-0.081
33.36,-0.157,0.814,0.079
33.37,-0.194,0.871,0.186
33.38,-0.296,1.029,-0.118
33.39,-0.337,0.856,-0.154
33.4,-0.136,1.224,0.145
33.41,-0.01,0.775,0.12
33.42,-0.255,1.027,-0.022
33.43,-0.344,0.903,-0.116
33.44,-0.211,1.216,-0.089
33.45,-0.171,0.779,0.088
33.46,-0.084,0.87,0.168
33.47,-0.425,1.118,-0.175
33.48,-0.259,0.802,-0.128
33.49,-0.009,1.352,0.071
33.5,-0.157,0.622,0.156
33.51,-0.308,0.982,0.014
33.52,-0.258,1.022,-0.183
33.53,-0.172,1.058,-0.025
33.54,-0.192,0.909,0.162
33.55,-0.067,0.777,0.08
33.56,-0.42,1.152,-0.225
33.57,-0.142,0.857,-0.043
33.58,-0.155,1.296,0.065
33.59,-0.125,0.617,0.157
33.6,-0.293,1.182,-0.069
33.61,-0.265,0.815,-0.222
33.62,-0.23,1.135,0.083
33.63,-0.032,0.918,0.122
33.64,-0.181,0.797,0.006
33.65,-0.376,1.133,-0.149
33.66,-0.099,0.945,-0.066
33.67,-0.213,1.079,0.032
33.68,-0.048,0.693,0.19
33.69,-0.284,1.211,-0.147
33.7,-0.344,0.819,-0.131
33.71,-0.123,1.162,0.123
33.72,-0.07,0.884,0.072
33.73,-0.264,0.767,0.064
33.74,-0.404,1.242,-0.143
33.75,-0.067,0.893,-0.109
33.76,-0.189,1.091,0.109
33.77,-0.036,0.705,0.221
33.78,-0.397,1.135,-0.162
33.79,-0.311,0.825,-0.159
33.8,0.048,1.157,0.041
33.81,-0.16,0.946,0.093
33.82,-0.249,0.743,0.026
33.83,-0.323,1.317,-0.223
33.84,-0.158,0.782,-0.013
33.85,-0.219,1.159,0.161
33.86,0.075,0.733,0.082
33.87,-0.472,1.072,-0.212
33.88,-0.213,0.944,-0.024
33.89,-0.047,1.137,0.038
33.9,-0.171,0.884,0.093
33.91,-0.127,0.766,0.007
33.92,-0.397,1.377,-0.172
33.93,-0.223,0.737,0.011
33.94,-0.099,1.155,0.182
33.95,-0.087,0.725,0.104
33.96,-0.55,1.042,-0.171
33.97,-0.071,1.095,-0.057
33.98,-0.134,0.94,0.062
33.99,-0.183,0.925,0.182
34.0,-0.173,0.754,-0.061
34.01,-0.365,1.266,-0.217
34.02,-0.153,0.834,0.07
34.03,-0.117,1.164,0.157
34.04,-0.133,0.701,0.051
34.05,-0.426,1.051,-0.152
34.06,-0.096,1.181,-0.052
34.07,-0.168,0.81,0.057
34.08,-0.201,0.992,0.195
34.09,-0.226,0.745,-0.085
34.1,-0.37,1.217,-0.169
34.11,-0.098,0.875,0.129
34.12,-0.176,1.08,0.137
34.13,-0.156,0.784,0.035
34.14,-0.415,1.021,-0.156
34.15,-0.121,1.202,-0.058
34.16,-0.153,0.771,0.072
34.17,-0.17,1.031,0.209
34.18,-0.29,0.798,-0.114
34.19,-0.305,1.135,-0.2
34.2,-0.107,0.947,0.09
34.21,-0.124,0.938,0.163
34.22,-0.269,0.87,0.016
34.23,-0.361,0.968,-0.148
34.24,-0.16,1.184,-0.024
34.25,-0.178,0.735,0.13
34.26,-0.132,1.085,0.153
34.27,-0.378,0.787,-0.154
34.28,-0.237,1.096,-0.114
34.29,-0.021,1.078,0.079
34.3,-0.164,0.822,0.134
34.31,-0.279,0.944,0.047
34.32,-0.354,0.991,-0.184
34.33,-0.188,1.172,-0.038
34.34,-0.218,0.702,0.193
34.35,-0.077,1.053,0.131
34.36,-0.4,0.861,-0.193
34.37,-0.219,1.035,-0.065
34.38,-0.02,1.113,0.019
34.39,-0.107,0.712,0.125
34.4,-0.28,1.059,0.042
34.41,-0.295,1.01,-0.227
34.42,-0.167,1.081,0.0
34.43,-0.125,0.8,0.224
34.44,-0.129,1.06,0.081
34.45,-0.41,0.795,-0.207
34.46,-0.127,1.224,-0.036
34.47,-0.093,0.913,0.061
34.48,-0.203,0.769,0.158
34.49,-0.235,1.037,-0.004
34.5,-0.309,0.983,-0.206
34.51,-0.177,1.122,0.007
34.52,-0.077,0.785,0.175
34.53,-0.15,0.996,0.029
34.54,-0.459,0.854,-0.172
34.55,-0.086,1.169,-0.03
34.56,-0.16,0.957,0.081
34.57,-0.163,0.784,0.19
34.58,-0.282,1.101,-0.112
34.59,-0.264,0.836,-0.175
34.6,-0.192,1.242,0.085
34.61,-0.04,0.74,0.123
34.62,-0.262,0.987,0.025
34.63,-0.35,0.964,-0.176
34.64,-0.19,1.085,-0.061
34.65,-0.109,0.887,0.057
34.66,-0.16,0.778,0.202
34.67,-0.374,1.155,-0.125
34.68,-0.271,0.77,-0.155
34.69,-0.112,1.272,0.063
34.7,-0.01,0.778,0.096
34.71,-0.256,0.91,0.029
34.72,-0.369,1.037,-0.132
34.73,-0.13,1.072,-0.064
34.74,-0.217,0.962,0.104
34.75,-0.06,0.725,0.191
34.76,-0.418,1.192,-0.183
34.77,-0.269,0.731,-0.165
34.78,-0.052,1.311,0.103
34.79,-0.095,0.751,0.127
34.8,-0.261,0.903,0.026
34.81,-0.357,1.115,-0.148
34.82,-0.161,0.936,-0.038
34.83,-0.148,1.039,0.098
34.84,-0.081,0.709,0.156
34.85,-0.467,1.153,-0.182
34.86,-0.25,0.807,-0.089
34.87,-0.055,1.274,0.12
34.88,-0.175,0.721,0.157
34.89,-0.243,0.864,0.029
34.9,-0.267,1.19,-0.19
34.91,-0.186,0.879,-0.025
34.92,-0.191,1.063,0.117
34.93,-0.021,0.705,0.094
34.94,-0.518,1.136,-0.199
34.95,-0.143,0.849,-0.058
34.96,-0.012,1.249,0.054
34.97,-0.212,0.758,0.123
34.98,-0.247,0.822,-0.015
34.99,-0.332,1.235,-0.2
35.0,-0.146,0.819,-0.018
35.01,-0.197,1.131,0.165
35.02,-0.057,0.698,0.074
35.03,-0.582,1.133,-0.186
35.04,-0.117,0.849,-0.031
35.05,-0.04,1.164,0.111
35.06,-0.151,0.83,0.104
35.07,-0.29,0.793,-0.019
35.08,-0.272,1.271,-0.214
35.09,-0.16,0.797,-0.005
35.1,-0.105,1.157,0.187
35.11,-0.112,0.727,0.022
35.12,-0.035,0.99,0.022
35.13,-0.473,0.822,-0.175
35.14,-0.148,1.256,-0.011
35.15,-0.19,0.781,0.115
35.16,-0.195,0.994,0.208
35.17,-0.229,0.812,-0.141
35.18,-0.297,1.15,-0.209
35.19,-0.044,0.957,0.073
35.2,-0.147,0.946,0.174
35.21,-0.166,0.872,0.018
35.22,-0.438,0.97,-0.164
35.23,-0.066,1.228,-0.093
35.24,-0.11,0.75,0.135
35.25,-0.199,1.048,0.177
35.26,-0.264,0.831,-0.14
35.27,-0.303,1.088,-0.158
35.28,-0.11,1.046,0.126
35.29,-0.136,0.832,0.121
35.3,-0.259,0.943,0.027
35.31,-0.385,0.947,-0.156
35.32,-0.149,1.205,-0.05
35.33,-0.166,0.713,0.125
35.34,-0.088,1.06,0.13
35.35,-0.359,0.811,-0.218
35.36,-0.281,0.999,-0.043
35.37,0.104,1.12,-0.0
35.38,-0.197,0.74,0.14
35.39,-0.336,1.026,0.057
35.4,-0.234,0.893,-0.221
35.41,-0.213,1.179,0.007
35.42,-0.132,0.769,0.202
35.43,-0.137,0.994,0.056
35.44,-0.424,0.894,-0.196
35.45,-0.199,1.051,-0.001
35.46,-0.072,1.129,0.067
35.47,-0.155,0.602,0.153
35.48,-0.297,1.159,-0.008
35.49,-0.287,0.896,-0.252
35.5,-0.16,1.115,0.016
35.51,-0.064,0.847,0.183
35.52,-0.216,0.94,0.033
35.53,-0.415,0.977,-0.183
35.54,-0.041,1.041,-0.047
35.55,-0.183,1.091,0.071
35.56,-0.111,0.605,0.197
35.57,-0.265,1.236,-0.1
35.58,-0.284,0.817,-0.24
35.59,-0.187,1.167,0.137
35.6,-0.043,0.877,0.112
35.61,-0.266,0.82,0.013
35.62,-0.373,1.105,-0.173
35.63,-0.074,0.972,-0.074
35.64,-0.215,1.052,0.109
35.65,-0.054,0.667,0.189
35.66,-0.369,1.195,-0.145
35.67,-0.276,0.804,-0.169
35.68,-0.029,1.217,0.08
35.69,-0.085,0.858,0.112
35.7,-0.285,0.801,0.016
35.71,-0.401,1.205,-0.185
35.72,-0.086,0.902,-0.069
35.73,-0.221,1.093,0.105
35.74,-0.06,0.722,0.167
35.75,-0.371,1.142,-0.159
35.76,-0.273,0.84,-0.112
35.77,-0.057,1.171,0.106
35.78,-0.123,0.843,0.089
35.79,-0.311,0.763,0.035
35.8,-0.332,1.301,-0.19
35.81,-0.109,0.819,-0.013
35.82,-0.253,1.083,0.177
35.83,-0.007,0.716,0.108
35.84,-0.494,1.108,-0.232
35.85,-0.219,0.908,-0.062
35.86,0.021,1.083,0.078
35.87,-0.22,0.93,0.138
35.88,-0.239,0.719,-0.022
35.89,-0.257,1.32,-0.237
35.9,-0.124,0.835,0.031
35.91,-0.227,1.149,0.205
35.92,-0.054,0.698,0.072
35.93,-0.531,1.102,-0.201
35.94,-0.159,1.028,-0.039
35.95,-0.02,0.974,0.059
35.96,-0.226,0.942,0.134
35.97,-0.206,0.919,-0.13
35.98,-0.265,1.189,-0.203
35.99,-0.126,0.853,0.151
36.0,-0.114,1.114,0.163
36.01,-0.217,0.639,-0.01
36.02,-0.462,1.274,-0.152
36.03,-0.005,0.919,-0.068
36.04,-0.245,1.013,0.145
36.05,-0.107,0.91,0.114
36.06,-0.298,0.831,-0.182
36.07,-0.302,1.206,-0.114
36.08,-0.014,0.836,0.058
36.09,-0.109,1.059,0.153
36.1,-0.272,0.696,0.005
36.11,-0.355,1.231,-0.181
36.12,-0.066,0.971,-0.045
36.13,-0.241,0.916,0.168
36.14,-0.072,0.975,0.105
36.15,-0.34,0.861,-0.178
36.16,-0.314,1.211,-0.089
36.17,-0.006,0.822,0.073
36.18,-0.149,0.988,0.129
36.19,-0.339,0.794,-0.017
36.2,-0.292,1.09,-0.207
36.21,-0.115,1.059,0.015
36.22,-0.147,0.863,0.193
36.23,-0.115,0.991,0.03
36.24,-0.435,0.835,-0.194
36.25,-0.185,1.213,-0.062
36.26,-0.015,0.8,0.08
36.27,-0.161,0.972,0.156
36.28,-0.312,0.917,-0.06
36.29,-0.241,1.01,-0.153
36.3,-0.213,1.136,0.078
36.31,-0.081,0.78,0.152
36.32,-0.167,1.023,-0.009
36.33,-0.451,0.9,-0.145
36.34,-0.224,1.205,0.01
36.35,-0.126,0.764,0.105
36.36,-0.157,0.962,0.183
36.37,-0.304,0.935,-0.17
36.38,-0.212,0.978,-0.13
36.39,-0.105,1.221,0.026
36.4,-0.016,0.59,0.041
36.41,-0.259,1.118,0.051
36.42,-0.385,0.921,-0.186
36.43,-0.063,1.063,-0.055
36.44,-0.209,0.848,0.196
36.45,-0.097,0.888,0.099
36.46,-0.363,1.045,-0.204
36.47,-0.223,0.89,-0.064
36.48,-0.087,1.247,0.061
36.49,-0.087,0.588,0.125
36.5,-0.378,1.124,0.008
36.51,-0.296,0.943,-0.216
36.52,-0.103,1.063,-0.012
36.53,-0.111,0.97,0.167
36.54,-0.131,0.819,0.047
36.55,-0.369,1.116,-0.199
36.56,-0.115,0.916,-0.028
36.57,-0.186,1.139,0.101
36.58,-0.114,0.642,0.161
36.59,-0.368,1.161,-0.077
36.6,-0.237,0.867,-0.179
36.61,-0.206,1.136,0.151
36.62,-0.21,0.93,0.154
36.63,-0.098,0.701,0.004
36.64,-0.421,1.265,-0.158
36.65,-0.112,0.88,-0.023
36.66,-0.188,1.146,0.034
36.67,-0.064,0.707,0.16
36.68,-0.389,1.089,-0.142
36.69,-0.296,0.947,-0.129
36.7,-0.037,1.083,0.063
36.71,-0.154,0.908,0.112
36.72,-0.281,0.709,0.046
36.73,-0.36,1.333,-0.202
36.74,-0.057,0.817,-0.041
36.75,-0.252,1.116,0.197
36.76,-0.051,0.743,0.119
36.77,-0.421,1.079,-0.198
36.78,-0.189,0.883,-0.019
36.79,-0.17,1.083,0.098
36.8,-0.191,0.81,0.146
36.81,-0.31,0.876,-0.056
36.82,-0.235,1.123,-0.24
36.83,-0.161,0.913,0.107
36.84,-0.121,1.154,0.152
36.85,-0.05,0.621,0.039
36.86,-0.487,1.229,-0.154
36.87,-0.084,1.047,-0.099
36.88,-0.168,0.938,0.101
36.89,-0.172,0.883,0.217
36.9,-0.365,0.826,-0.119
36.91,-0.299,1.144,-0.181
36.92,-0.032,0.939,0.142
36.93,-0.135,1.139,0.115
36.94,-0.201,0.634,0.016
36.95,-0.384,1.254,-0.135
36.96,-0.118,1.025,-0.068
36.97,-0.217,0.85,0.123
36.98,-0.123,0.997,0.181
36.99,-0.346,0.764,-0.194
37.0,-0.35,1.178,-0.107
37.01,0.002,0.954,0.088
37.02,-0.098,1.014,0.1
37.03,-0.3,0.732,0.067
37.04,-0.286,1.19,-0.219
37.05,-0.125,1.015,-0.059
37.06,-0.129,0.794,0.196
37.07,-0.074,1.038,0.063
37.08,-0.391,0.772,-0.22
37.09,-0.242,1.256,-0.047
37.1,-0.063,0.899,0.074
37.11,-0.192,0.902,0.146
37.12,-0.177,0.854,-0.005
37.13,-0.375,1.125,-0.189
37.14,-0.181,1.045,-0.01
37.15,-0.073,0.872,0.158
37.16,-0.139,1.018,0.054
37.17,-0.404,0.771,-0.158
37.18,-0.114,1.303,-0.104
37.19,-0.079,0.799,0.066
37.2,-0.21,0.867,0.231
37.21,-0.236,0.932,-0.065
37.22,-0.373,0.975,-0.15
37.23,-0.145,1.181,0.072
37.24,-0.079,0.804,0.096
37.25,-0.19,0.972,0.058
37.26,-0.34,0.871,-0.14
37.27,-0.157,1.26,-0.121
37.28,-0.102,0.755,0.052
37.29,-0.15,0.886,0.204
37.3,-0.303,1.051,-0.13
37.31,-0.29,0.844,-0.174
37.32,-0.168,1.19,0.138
37.33,-0.108,0.725,0.149
37.34,-0.297,1.005,0.008
37.35,-0.27,0.935,-0.16
37.36,-0.141,1.157,-0.056
37.37,-0.208,0.83,0.108
37.38,-0.036,0.823,0.188
37.39,-0.379,1.133,-0.183
37.4,-0.33,0.805,-0.126
37.41,-0.024,1.319,0.035
37.42,-0.053,0.643,0.094
37.43,-0.322,1.017,0.031
37.44,-0.296,1.033,-0.164
37.45,-0.192,1.033,-0.038
37.46,-0.216,0.88,0.137
37.47,-0.047,0.823,0.169
37.48,-0.417,1.156,-0.205
37.49,-0.288,0.79,-0.074
37.5,-0.042,1.343,0.086
37.51,-0.154,0.605,0.114
37.52,-0.299,1.019,0.075
37.53,-0.244,1.074,-0.27
37.54,-0.136,0.898,-0.031
37.55,-0.16,1.01,0.176
37.56,-0.076,0.745,0.085
37.57,-0.471,1.163,-0.191
37.58,-0.163,0.844,-0.013
37.59,-0.102,1.289,0.047
37.6,-0.168,0.622,0.17
37.61,-0.3,1.141,-0.094
37.62,-0.274,0.874,-0.189
37.63,-0.257,1.095,0.124
37.64,-0.083,0.901,0.109
37.65,-0.16,0.751,0.032
37.66,-0.424,1.231,-0.181
37.67,-0.066,0.868,-0.097
37.68,-0.166,1.143,0.07
37.69,-0.136,0.668,0.224
37.7,-0.33,1.125,-0.122
37.71,-0.311,0.889,-0.151
37.72,-0.178,1.073,0.131
37.73,-0.052,0.97,0.093
37.74,-0.184,0.691,0.002
37.75,-0.422,1.298,-0.149
37.76,-0.05,0.855,-0.06
37.77,-0.256,1.151,0.125
37.78,-0.092,0.728,0.145
37.79,-0.386,1.036,-0.151
37.8,-0.208,0.956,-0.139
37.81,-0.037,1.09,0.097
37.82,-0.183,0.938,0.158
37.83,-0.245,0.699,0.056
37.84,-0.425,1.332,-0.204
37.85,-0.111,0.806,-0.014
37.86,-0.201,1.148,0.13
37.87,-0.106,0.75,0.11
37.88,-0.376,0.983,-0.181
37.89,-0.235,1.058,-0.072
37.9,-0.104,0.978,0.102
37.91,-0.168,0.965,0.116
37.92,-0.229,0.709,-0.004
37.93,-0.422,1.32,-0.208
37.94,-0.114,0.808,0.021
37.95,-0.154,1.119,0.143
37.96,-0.118,0.791,0.1
37.97,-0.421,0.983,-0.172
37.98,-0.216,1.176,-0.001
37.99,-0.148,0.864,0.082
38.0,-0.168,0.948,0.149
38.01,-0.176,0.788,-0.052
38.02,-0.441,1.289,-0.234
38.03,-0.159,0.781,0.05
38.04,-0.033,1.146,0.143
38.05,-0.217,0.81,0.045
38.06,-0.437,0.911,-0.152
38.07,-0.02,1.251,-0.093
38.08,-0.158,0.754,0.06
38.09,-0.185,1.009,0.228
38.1,-0.225,0.807,-0.129
38.11,-0.346,1.15,-0.207
38.12,-0.086,0.998,0.108
38.13,-0.095,0.973,0.112
38.14,-0.218,0.845,0.008
38.15,-0.411,0.97,-0.113
38.16,-0.148,1.273,-0.08
38.17,-0.158,0.701,0.126
38.18,-0.202,1.065,0.164
38.19,-0.249,0.801,-0.164
38.2,-0.293,1.113,-0.121
38.21,-0.107,1.1,0.108
38.22,-0.101,0.822,0.106
38.23,-0.292,0.938,0.018
38.24,-0.366,0.947,-0.165
38.25,-0.142,1.186,-0.027
38.26,-0.17,0.722,0.151
38.27,-0.135,1.061,0.138
38.28,-0.343,0.854,-0.175
38.29,-0.24,1.029,-0.09
38.3,-0.051,1.115,0.062
38.31,-0.066,0.733,0.116
38.32,-0.312,1.019,0.005
38.33,-0.287,0.954,-0.187
38.34,-0.159,1.213,-0.027
38.35,-0.145,0.679,0.178
38.36,-0.116,1.013,0.086
38.37,-0.395,0.93,-0.203
38.38,-0.232,0.959,-0.033
38.39,-0.045,1.131,0.081
38.4,-0.157,0.674,0.143
38.41,-0.29,1.061,-0.072
38.42,-0.297,0.887,-0.168
38.43,-0.189,1.243,0.059
38.44,-0.06,0.763,0.141
38.45,-0.223,0.996,0.039
38.46,-0.448,0.906,-0.154
38.47,-0.106,1.115,-0.108
38.48,-0.143,0.881,0.107
38.49,-0.142,0.816,0.179
38.5,-0.393,1.142,-0.143
38.51,-0.26,0.771,-0.152
38.52,-0.065,1.308,0.079
38.53,-0.083,0.698,0.137
38.54,-0.288,0.986,0.007
38.55,-0.289,1.018,-0.174
38.56,-0.164,1.017,-0.03
38.57,-0.226,0.94,0.145
38.58,0.006,0.769,0.128
38.59,-0.499,1.146,-0.195
38.6,-0.207,0.8,-0.063
38.61,-0.084,1.362,0.08
38.62,-0.119,0.652,0.139
38.63,-0.329,1.0,0.055
38.64,-0.244,1.041,-0.236
38.65,-0.172,0.955,0.042
38.66,-0.252,1.041,0.162
38.67,-0.011,0.672,0.091
38.68,-0.553,1.25,-0.199
38.69,-0.114,0.823,-0.05
38.7,-0.144,1.209,0.089
38.71,-0.119,0.7,0.179
38.72,-0.289,0.987,-0.026
38.73,-0.303,1.056,-0.199
38.74,-0.158,0.898,0.056
38.75,-0.119,1.153,0.108
38.76,-0.108,0.645,0.016
38.77,-0.507,1.229,-0.202
38.78,-0.012,0.899,-0.085
38.79,-0.154,1.153,0.089
38.8,-0.171,0.76,0.195
38.81,-0.275,0.935,-0.116
38.82,-0.26,1.109,-0.158
38.83,-0.1,0.959,0.115
38.84,-0.145,1.083,0.133
38.85,-0.231,0.603,-0.01
38.86,-0.436,1.259,-0.152
38.87,-0.111,0.921,-0.049
38.88,-0.195,1.016,0.124
38.89,-0.12,0.873,0.16
38.9,-0.317,0.912,-0.17
38.91,-0.257,1.128,-0.119
38.92,-0.027,0.955,0.091
38.93,-0.135,1.039,0.096
38.94,-0.282,0.673,0.02
38.95,-0.346,1.28,-0.191
38.96,-0.11,0.934,0.003
38.97,-0.227,0.955,0.189
38.98,-0.097,0.9,0.125
38.99,-0.423,0.848,-0.177
39.0,-0.195,1.228,-0.111
39.01,0.012,0.905,0.058
39.02,-0.182,0.944,0.171
39.03,-0.214,0.742,-0.065
39.04,-0.389,1.208,-0.219
39.05,-0.049,0.967,0.055
39.06,-0.166,0.957,0.168
39.07,-0.15,0.927,0.051
39.08,-0.375,0.841,-0.185
39.09,-0.24,1.285,-0.034
39.1,-0.081,0.811,0.082
39.11,-0.175,1.003,0.161
39.12,-0.307,0.833,-0.074
39.13,-0.314,1.111,-0.199
39.14,-0.095,1.024,0.051
39.15,-0.014,0.871,0.119
39.16,-0.199,0.987,-0.016
39.17,-0.464,0.859,-0.091
39.18,-0.196,1.268,-0.043
39.19,-0.079,0.725,0.046
39.2,-0.13,1.021,0.13
39.21,-0.303,0.915,-0.143
39.22,-0.229,0.989,-0.178
39.23,0.035,0.96,0.062
39.24,-0.153,0.817,0.147
39.25,-0.321,0.978,0.033
39.26,-0.35,0.951,-0.164
39.27,-0.153,1.213,0.001
39.28,-0.177,0.778,0.17
39.29,-0.14,1.017,0.021
39.3,-0.365,0.844,-0.193
39.31,-0.117,1.167,-0.07
39.32,-0.085,0.941,0.112
39.33,-0.187,0.753,0.198
39.34,-0.308,1.112,-0.082
39.35,-0.293,0.808,-0.184
39.36,-0.206,1.261,0.117
39.37,-0.079,0.781,0.127
39.38,-0.184,0.937,-0.032
39.39,-0.351,0.985,-0.12
39.4,-0.2,1.095,-0.042
39.41,-0.224,0.913,0.108
39.42,-0.078,0.771,0.181
39.43,-0.39,1.158,-0.146
39.44,-0.3,0.784,-0.13
39.45,-0.024,1.351,0.026
39.46,-0.148,0.682,0.121
39.47,-0.244,0.935,0.067
39.48,-0.335,1.092,-0.2
39.49,-0.109,0.943,-0.025
39.5,-0.219,1.058,0.154
39.51,-0.029,0.697,0.136
39.52,-0.441,1.154,-0.196
39.53,-0.164,0.839,-0.038
39.54,-0.089,1.282,0.084
39.55,-0.107,0.697,0.113
39.56,-0.288,0.964,0.042
39.57,-0.315,1.11,-0.265
39.58,-0.146,0.869,0.028
39.59,-0.143,1.183,0.163
39.6,-0.131,0.639,0.101
39.61,-0.502,1.167,-0.167
39.62,-0.007,0.915,-0.104
39.63,-0.156,1.142,0.058
39.64,-0.147,0.714,0.207
39.65,-0.256,0.943,-0.101
39.66,-0.387,1.076,-0.199
39.67,-0.089,0.888,0.155
39.68,-0.117,1.188,0.104
39.69,-0.169,0.574,0.033
39.7,-0.457,1.287,-0.15
39.71,-0.105,0.97,-0.086
39.72,-0.141,0.995,0.088
39.73,-0.115,0.885,0.233
39.74,-0.36,0.881,-0.167
39.75,-0.258,1.121,-0.159
39.76,-0.114,0.968,0.12
39.77,-0.153,1.074,0.097
39.78,-0.192,0.661,0.024
39.79,-0.402,1.298,-0.207
39.8,-0.124,0.908,-0.077
39.81,-0.19,0.939,0.142
39.82,-0.099,0.936,0.123
39.83,-0.399,0.812,-0.179
39.84,-0.314,1.181,-0.066
39.85,0.016,0.94,0.063
39.86,-0.165,1.015,0.098
39.87,-0.239,0.682,0.061
39.88,-0.412,1.234,-0.252
39.89,-0.108,0.918,-0.022
39.9,-0.149,0.995,0.178
39.91,-0.167,0.934,0.088
39.92,-0.375,0.764,-0.158
39.93,-0.064,1.325,-0.16
39.94,-0.032,0.748,0.046
39.95,-0.155,1.005,0.197
39.96,-0.184,0.807,-0.077
39.97,-0.396,1.084,-0.177
39.98,-0.053,1.081,0.02
39.99,-0.119,0.905,0.127
40.0,-0.194,0.942,0.057
40.01,-0.346,0.845,-0.172
40.02,-0.157,1.319,-0.082
40.03,-0.095,0.745,0.086
40.04,-0.127,1.056,0.151
40.05,-0.339,0.794,-0.148
40.06,-0.266,1.108,-0.134
40.07,-0.167,1.028,0.146
40.08,-0.148,0.862,0.099
40.09,-0.167,0.907,0.011
40.1,-0.331,0.999,-0.173
40.11,-0.113,1.222,-0.028
40.12,-0.102,0.683,0.097
40.13,-0.07,1.037,0.072
40.14,-0.383,0.843,-0.175
40.15,-0.258,1.098,-0.045
40.16,-0.051,1.092,0.089
40.17,-0.139,0.727,0.1
40.18,-0.294,1.045,-0.011
40.19,-0.287,0.936,-0.201
40.2,-0.141,1.149,0.027
40.21,-0.168,0.749,0.223
40.22,-0.121,1.047,0.026
40.23,-0.403,0.904,-0.2
40.24,-0.146,1.085,-0.019
40.25,-0.134,1.004,0.048
40.26,-0.169,0.706,0.189
40.27,-0.334,1.131,-0.034
40.28,-0.31,0.834,-0.182
40.29,-0.133,1.208,0.083
40.3,-0.025,0.776,0.121
40.31,-0.224,0.921,0.053
40.32,-0.4,1.017,-0.156
40.33,-0.096,1.053,-0.063
40.34,-0.157,1.01,0.135
40.35,-0.226,0.717,0.156
40.36,-0.34,1.158,-0.173
40.37,-0.285,0.82,-0.091
40.38,-0.102,1.285,0.144
40.39,-0.087,0.722,0.101
40.4,-0.282,0.912,-0.002
40.41,-0.376,1.117,-0.182
40.42,-0.065,0.964,-0.068
40.43,-0.172,1.036,0.1
40.44,-0.094,0.711,0.113
40.45,-0.481,1.185,-0.187
40.46,-0.195,0.799,-0.077
40.47,-0.014,1.269,0.079
40.48,-0.141,0.716,0.102
40.49,-0.332,0.86,-0.016
40.5,-0.259,1.196,-0.227
40.51,-0.094,0.872,-0.036
40.52,-0.13,1.088,0.173
40.53,-0.079,0.649,0.009
40.54,-0.508,1.226,-0.176
40.55,-0.024,0.948,-0.036
40.56,-0.129,1.064,0.109
40.57,-0.216,0.789,0.199
40.58,-0.251,0.926,-0.156
40.59,-0.265,1.177,-0.195
40.6,-0.138,0.896,0.122
40.61,-0.104,1.098,0.09
40.62,-0.183,0.627,-0.006
40.63,-0.461,1.296,-0.15
40.64,-0.048,0.944,-0.06
40.65,-0.25,0.969,0.179
40.66,-0.063,0.943,0.152
40.67,-0.403,0.833,-0.173
40.68,-0.259,1.161,-0.091
40.69,0.006,0.951,0.073
40.7,-0.196,1.055,0.132
40.71,-0.291,0.723,0.027
40.72,-0.385,1.246,-0.234
40.73,-0.061,0.927,0.0
40.74,-0.166,0.996,0.201
40.75,-0.096,0.933,0.037
40.76,-0.392,0.83,-0.203
40.77,-0.147,1.272,-0.088
40.78,-0.041,0.791,0.1
40.79,-0.24,1.022,0.172
40.8,-0.237,0.8,-0.094
40.81,-0.375,1.111,-0.187
40.82,-0.176,1.006,0.109
40.83,-0.039,0.893,0.127
40.84,-0.222,0.954,0.01
40.85,-0.357,0.91,-0.138
40.86,-0.101,1.174,-0.067
40.87,-0.171,0.706,0.195
40.88,-0.097,1.091,0.111
40.89,-0.335,0.745,-0.221
40.9,-0.361,1.224,0.004
40.91,-0.068,0.979,0.072
40.92,-0.191,0.804,0.08
40.93,-0.187,0.982,0.032
40.94,-0.359,1.015,-0.189
40.95,-0.253,1.104,0.045
40.96,-0.102,0.786,0.204
40.97,-0.103,1.066,0.032
40.98,-0.366,0.794,-0.219
40.99,-0.126,1.175,-0.028
41.0,-0.104,0.955,0.099
41.01,-0.265,0.799,0.216
41.02,-0.281,1.042,-0.044
41.03,-0.263,0.881,-0.173
41.04,-0.2,1.241,0.055
41.05,-0.007,0.72,0.102
41.06,-0.15,1.003,-0.003
41.07,-0.412,0.961,-0.153
41.08,-0.105,1.095,-0.025
41.09,-0.246,0.919,0.11
41.1,-0.121,0.775,0.163
41.11,-0.326,1.121,-0.147
41.12,-0.337,0.788,-0.092
41.13,-0.073,1.296,0.099
41.14,-0.108,0.682,0.131
41.15,-0.314,0.938,0.018
41.16,-0.281,1.082,-0.188
41.17,-0.049,1.03,-0.072
41.18,-0.189,0.966,0.156
41.19,-0.073,0.715,0.088
41.2,-0.452,1.206,-0.163
41.21,-0.277,0.87,-0.058
41.22,-0.057,1.216,0.103
41.23,-0.105,0.677,0.122
41.24,-0.302,0.991,-0.01
41.25,-0.367,1.059,-0.241
41.26,-0.073,0.881,0.003
41.27,-0.112,1.145,0.183
41.28,-0.092,0.668,0.042
41.29,-0.48,1.201,-0.174
41.3,-0.182,0.938,-0.049
41.31,-0.065,1.146,0.1
41.32,-0.241,0.748,0.161
41.33,-0.321,0.964,-0.11
41.34,-0.187,1.075,-0.195
41.35,-0.122,0.966,0.112
41.36,-0.117,1.056,0.117
41.37,-0.124,0.644,0.024
41.38,-0.515,1.321,-0.137
41.39,-0.076,0.884,-0.091
41.4,-0.172,1.049,0.101
41.41,-0.189,0.82,0.169
41.42,-0.397,0.923,-0.102
41.43,-0.288,1.141,-0.154
41.44,-0.01,0.937,0.105
41.45,-0.071,1.029,0.131
41.46,-0.253,0.655,0.016
41.47,-0.407,1.312,-0.196
41.48,-0.021,0.886,-0.018
41.49,-0.234,1.021,0.164
41.5,-0.164,0.843,0.044
41.51,-0.365,0.92,-0.188
41.52,-0.234,1.258,-0.061
41.53,-0.039,0.796,0.072
41.54,-0.165,1.021,0.156
41.55,-0.244,0.74,-0.091
41.56,-0.297,1.219,-0.157
41.57,-0.121,0.978,0.048
41.58,-0.162,0.891,0.162
41.59,-0.124,0.879,0.021
41.6,-0.545,0.964,-0.128
41.61,-0.151,1.229,-0.085
41.62,-0.13,0.743,0.111
41.63,-0.23,1.03,0.194
41.64,-0.211,0.782,-0.123
41.65,-0.358,1.107,-0.154
41.66,-0.073,1.013,0.079
41.67,-0.075,0.942,0.059
41.68,-0.317,0.809,0.02
41.69,-0.308,1.103,-0.184
41.7,-0.134,1.141,-0.033
41.71,-0.197,0.703,0.188
41.72,-0.126,1.079,0.122
41.73,-0.403,0.768,-0.199
41.74,-0.249,1.158,-0.083
41.75,0.031,0.951,0.063
41.76,-0.223,0.821,0.114
41.77,-0.218,0.957,-0.019
41.78,-0.341,0.978,-0.217
41.79,-0.165,1.142,0.037
41.8,-0.07,0.794,0.185
41.81,-0.225,1.02,0.041
41.82,-0.394,0.812,-0.2
41.83,-0.15,1.224,-0.062
41.84,-0.059,0.893,0.083
41.85,-0.21,0.791,0.151
41.86,-0.203,1.062,-0.11
41.87,-0.308,0.873,-0.17
41.88,-0.15,1.226,0.148
41.89,-0.032,0.749,0.132
41.9,-0.329,1.005,0.036
41.91,-0.425,0.934,-0.165
41.92,-0.076,1.147,-0.066
41.93,-0.199,0.903,0.13
41.94,-0.128,0.795,0.144
41.95,-0.378,1.125,-0.169
41.96,-0.193,0.82,-0.129
41.97,-0.049,1.327,0.089
41.98,-0.104,0.625,0.113
41.99,-0.273,1.021,0.019
42.0,-0.262,1.049,-0.218
42.01,-0.194,1.02,0.03
42.02,-0.212,0.98,0.168
42.03,-0.073,0.735,0.04
42.04,-0.472,1.18,-0.169
42.05,-0.081,0.876,-0.043
42.06,-0.159,1.207,0.101
42.07,-0.159,0.679,0.184
42.08,-0.229,1.088,-0.096
42.09,-0.371,0.967,-0.209
42.1,-0.176,0.982,0.163
42.11,-0.119,1.108,0.139
42.12,-0.279,0.622,0.004
42.13,-0.444,1.274,-0.145
42.14,-0.112,0.879,-0.032
42.15,-0.255,1.094,0.131
42.16,-0.004,0.789,0.127
42.17,-0.347,0.99,-0.221
42.18,-0.261,0.986,-0.165
42.19,0.045,1.035,0.076
42.2,-0.204,1.011,0.104
42.21,-0.146,0.642,0.002
42.22,-0.385,1.388,-0.227
42.23,-0.145,0.821,-0.038
42.24,-0.19,1.123,0.183
42.25,-0.071,0.811,0.138
42.26,-0.472,0.921,-0.198
42.27,-0.187,1.165,-0.088
42.28,0.016,0.894,0.011
42.29,-0.184,1.008,0.147
42.3,-0.206,0.724,-0.013
42.31,-0.359,1.281,-0.251
42.32,-0.108,0.854,0.027
42.33,-0.083,1.183,0.133
42.34,-0.13,0.793,0.032
42.35,-0.454,0.887,-0.143
42.36,-0.118,1.239,-0.071
42.37,-0.103,0.815,0.095
42.38,-0.181,1.004,0.138
42.39,-0.21,0.753,-0.077
42.4,-0.323,1.192,-0.202
42.41,-0.077,0.939,0.072
42.42,-0.132,0.981,0.163
42.43,-0.233,0.855,-0.013
42.44,-0.364,0.947,-0.158
42.45,-0.163,1.219,-0.039
42.46,-0.191,0.746,0.126
42.47,-0.076,1.044,0.127
42.48,-0.306,0.757,-0.177
42.49,-0.232,1.261,-0.003
42.5,-0.123,0.922,0.069
42.51,-0.182,0.894,0.138
42.52,-0.178,0.885,0.024
42.53,-0.366,1.073,-0.195
42.54,-0.17,1.088,0.014
42.55,-0.065,0.856,0.155
42.56,-0.236,1.009,0.085
42.57,-0.355,0.777,-0.14
42.58,-0.211,1.284,-0.087
42.59,-0.118,0.783,0.083
42.6,-0.238,0.868,0.218
42.61,-0.2,0.96,-0.101
42.62,-0.379,0.912,-0.17
42.63,-0.149,1.139,0.097
42.64,-0.052,0.868,0.131
42.65,-0.179,1.028,0.063
42.66,-0.349,0.808,-0.164
42.67,-0.195,1.251,-0.066
42.68,-0.089,0.818,0.057
42.69,-0.155,0.849,0.187
42.7,-0.29,1.05,-0.091
42.71,-0.286,0.844,-0.182
42.72,-0.194,1.23,0.136
42.73,-0.057,0.763,0.115
42.74,-0.212,1.005,-0.015
42.75,-0.385,0.929,-0.098
42.76,-0.213,1.156,-0.07
42.77,-0.137,0.865,0.087
42.78,-0.129,0.822,0.172
42.79,-0.365,1.075,-0.147
42.8,-0.261,0.795,-0.125
42.81,-0.121,1.334,0.114
42.82,-0.091,0.657,0.134
42.83,-0.235,1.019,0.045
42.84,-0.327,1.033,-0.21
42.85,-0.15,1.014,-0.047
42.86,-0.186,0.95,0.168
42.87,-0.09,0.81,0.088
42.88,-0.42,1.129,-0.153
42.89,-0.22,0.774,-0.087
42.9,-0.107,1.293,0.03
42.91,-0.074,0.635,0.136
42.92,-0.263,1.004,0.044
42.93,-0.365,1.056,-0.244
42.94,-0.118,0.918,-0.016
42.95,-0.159,1.078,0.148
42.96,-0.117,0.733,0.126
42.97,-0.421,1.115,-0.225
42.98,-0.219,0.851,0.007
42.99,-0.155,1.28,0.077
43.0,-0.127,0.669,0.172
43.01,-0.224,0.974,-0.006
43.02,-0.447,1.065,-0.2
43.03,-0.061,0.901,-0.03
43.04,-0.112,1.156,0.117
43.05,-0.113,0.62,0.103
43.06,-0.473,1.238,-0.124
43.07,-0.233,0.89,-0.043
43.08,-0.074,1.167,0.018
43.09,-0.14,0.768,0.167
43.1,-0.25,0.981,-0.034
43.11,-0.354,1.113,-0.198
43.12,-0.115,0.875,0.018
43.13,-0.094,1.207,0.118
43.14,-0.091,0.621,0.073
43.15,-0.467,1.2,-0.164
43.16,-0.129,0.943,-0.034
43.17,-0.145,1.082,0.069
43.18,-0.15,0.758,0.173
43.19,-0.261,0.948,-0.035
43.2,-0.341,1.153,-0.217
43.21,-0.112,0.809,0.008
43.22,-0.061,1.245,0.123
43.23,-0.113,0.617,0.033
43.24,-0.476,1.176,-0.151
43.25,-0.078,1.009,-0.073
43.26,-0.082,1.023,0.046
43.27,-0.186,0.864,0.185
43.28,-0.248,0.835,-0.097
43.29,-0.322,1.189,-0.185
43.3,-0.091,0.988,0.117
43.31,-0.129,1.079,0.094
43.32,-0.146,0.642,-0.001
43.33,-0.44,1.304,-0.168
43.34,-0.073,0.865,-0.052
43.35,-0.228,1.089,0.094
43.36,-0.095,0.793,0.181
43.37,-0.371,0.959,-0.164
43.38,-0.334,1.085,-0.106
43.39,0.002,0.973,0.047
43.4,-0.16,1.036,0.118
43.41,-0.273,0.662,0.022
43.42,-0.345,1.299,-0.202
43.43,-0.13,0.794,-0.04
43.44,-0.194,1.063,0.176
43.45,-0.073,0.861,0.105
43.46,-0.154,0.895,0.035
43.47,-0.136,0.96,0.186
43.48,-0.285,0.946,-0.116
43.49,-0.429,0.923,-0.169
43.5,-0.129,1.12,0.082
43.51,0.063,0.856,0.135
43.52,-0.352,0.977,0.025
43.53,-0.26,0.821,-0.171
43.54,-0.083,1.32,-0.082
43.55,-0.238,0.698,0.075
43.56,-0.135,0.949,0.202
43.57,-0.298,1.032,-0.188
43.58,-0.385,0.823,-0.146
43.59,-0.026,1.27,0.131
43.6,-0.063,0.72,0.106
43.61,-0.401,0.976,0.07
43.62,-0.29,0.954,-0.121
43.63,-0.142,1.224,-0.08
43.64,-0.245,0.747,0.112
43.65,-0.063,0.931,0.184
43.66,-0.381,1.052,-0.199
43.67,-0.395,0.809,-0.054
43.68,0.032,1.296,0.074
43.69,-0.08,0.677,0.082
43.7,-0.334,1.065,0.025
43.71,-0.218,0.969,-0.215
43.72,-0.143,1.018,-0.074
43.73,-0.226,0.888,0.224
43.74,-0.06,0.883,0.095
43.75,-0.441,1.071,-0.192
43.76,-0.278,0.829,-0.061
43.77,-0.032,1.347,0.056
43.78,-0.065,0.615,0.101
43.79,-0.409,1.075,0.049
43.8,-0.239,0.967,-0.244
43.81,-0.167,1.03,-0.066
43.82,-0.192,0.931,0.178
43.83,0.04,0.786,0.063
43.84,-0.522,1.153,-0.22
43.85,-0.244,0.805,-0.012
43.86,-0.068,1.307,0.063
43.87,-0.126,0.649,0.118
43.88,-0.326,1.056,-0.007
43.89,-0.254,0.965,-0.169
43.9,-0.277,1.014,0.038
43.91,-0.198,0.996,0.17
43.92,-0.013,0.678,0.064
43.93,-0.543,1.257,-0.145
43.94,-0.027,0.82,-0.072
43.95,-0.123,1.203,0.034
43.96,-0.136,0.676,0.205
43.97,-0.256,1.038,-0.087
43.98,-0.251,0.974,-0.239
43.99,-0.176,1.017,0.052
44.0,-0.094,1.096,0.091
44.01,-0.123,0.647,0.05
44.02,-0.498,1.267,-0.15
44.03,-0.057,0.868,-0.145
44.04,-0.141,1.106,0.038
44.05,-0.081,0.729,0.217
44.06,-0.427,1.098,-0.172
44.07,-0.222,0.844,-0.151
44.08,-0.103,1.211,0.07
44.09,-0.123,0.883,0.117
44.1,-0.282,0.721,0.066
44.11,-0.419,1.318,-0.179
44.12,-0.094,0.787,-0.062
44.13,-0.195,1.147,0.14
44.14,0.009,0.727,0.128
44.15,-0.394,1.059,-0.19
44.16,-0.26,0.921,-0.122
44.17,-0.037,1.131,0.066
44.18,-0.126,0.919,0.104
44.19,-0.246,0.674,0.023
44.2,-0.398,1.372,-0.193
44.21,-0.029,0.823,-0.066
44.22,-0.282,1.093,0.157
44.23,-0.033,0.797,0.172
44.24,-0.442,1.037,-0.223
44.25,-0.283,0.94,-0.095
44.26,-0.032,1.087,0.076
44.27,-0.127,0.976,0.085
44.28,-0.347,0.658,0.037
44.29,-0.295,1.347,-0.212
44.3,-0.082,0.806,-0.035
44.31,-0.265,1.056,0.229
44.32,-0.054,0.805,0.107
44.33,-0.462,0.996,-0.204
44.34,-0.262,1.071,-0.002
44.35,-0.044,0.937,0.079
44.36,-0.192,1.017,0.121
44.37,-0.29,0.721,-0.028
44.38,-0.264,1.264,-0.24
44.39,-0.167,0.882,0.031
44.4,-0.169,1.074,0.206
44.41,-0.034,0.823,0.064
44.42,-0.477,0.973,-0.159
44.43,-0.172,1.198,-0.016
44.44,-0.087,0.845,0.078
44.45,-0.225,1.035,0.184
44.46,-0.203,0.771,-0.08
44.47,-0.348,1.228,-0.201
44.48,-0.184,0.905,0.066
44.49,-0.063,1.04,0.15
44.5,-0.184,0.862,0.063
44.51,-0.489,0.941,-0.115
44.52,-0.077,1.228,-0.077
44.53,-0.134,0.782,0.065
44.54,-0.205,1.055,0.175
44.55,-0.235,0.771,-0.125
44.56,-0.323,1.095,-0.179
44.57,-0.163,0.962,0.087
44.58,-0.051,0.939,0.114
44.59,-0.22,0.91,-0.013
44.6,-0.413,0.895,-0.118
44.61,-0.14,1.252,-0.061
44.62,-0.15,0.717,0.058
44.63,-0.106,1.024,0.169
44.64,-0.215,0.867,-0.158
44.65,-0.354,1.087,-0.18
44.66,-0.067,1.026,0.104
44.67,-0.043,0.821,0.12
44.68,-0.367,1.007,0.011
44.69,-0.345,0.9,-0.129
44.7,-0.138,1.254,-0.033
44.71,-0.199,0.716,0.156
44.72,-0.136,1.022,0.183
44.73,-0.29,0.913,-0.205
44.74,-0.326,0.977,-0.078
44.75,-0.034,1.115,0.067
44.76,-0.088,0.744,0.11
44.77,-0.349,1.019,0.033
44.78,-0.325,0.903,-0.146
44.79,-0.17,1.223,-0.03
44.8,-0.2,0.71,0.126
44.81,-0.066,0.994,0.115
44.82,-0.416,0.976,-0.193
44.83,-0.298,0.943,-0.037
44.84,-0.066,1.184,0.084
44.85,-0.116,0.663,0.128
44.86,-0.305,1.11,0.003
44.87,-0.314,0.858,-0.169
44.88,-0.171,1.214,0.066
44.89,-0.075,0.796,0.141
44.9,-0.157,0.965,-0.013
44.91,-0.407,0.971,-0.134
44.92,-0.103,1.168,-0.144
44.93,-0.172,0.931,0.062
44.94,-0.033,0.749,0.201
44.95,-0.403,1.121,-0.151
44.96,-0.278,0.78,-0.153
44.97,-0.135,1.286,0.045
44.98,-0.156,0.75,0.104
44.99,-0.209,0.958,0.079
45.0,-0.336,1.01,-0.196
45.01,-0.187,1.059,-0.037
45.02,-0.14,0.957,0.107
45.03,-0.103,0.733,0.192
45.04,-0.399,1.143,-0.115
45.05,-0.201,0.774,-0.155
45.06,-0.119,1.301,0.07
45.07,-0.117,0.742,0.102
45.08,-0.234,0.929,0.058
45.09,-0.35,1.117,-0.156
45.1,-0.16,0.968,-0.008
45.11,-0.162,1.015,0.125
45.12,-0.097,0.737,0.133
45.13,-0.441,1.146,-0.146
45.14,-0.266,0.861,-0.058
45.15,-0.102,1.284,0.051
45.16,-0.055,0.712,0.098
45.17,-0.302,0.962,0.06
45.18,-0.388,1.132,-0.241
45.19,-0.065,0.833,-0.064
45.2,-0.107,1.159,0.153
45.21,-0.136,0.623,0.088
45.22,-0.428,1.191,-0.181
45.23,-0.149,0.924,-0.065
45.24,-0.113,1.067,0.037
45.25,-0.12,0.777,0.206
45.26,-0.303,0.923,-0.061
45.27,-0.345,1.134,-0.17
45.28,-0.137,0.869,0.056
45.29,-0.166,1.167,0.142
45.3,-0.142,0.616,0.051
45.31,-0.448,1.227,-0.194
45.32,-0.125,0.929,-0.08
45.33,-0.143,1.072,0.091
45.34,-0.148,0.88,0.185
45.35,-0.294,0.874,-0.125
45.36,-0.347,1.133,-0.153
45.37,-0.082,0.905,0.111
45.38,-0.142,1.181,0.12
45.39,-0.177,0.622,0.06
45.4,-0.497,1.239,-0.169
45.41,-0.086,0.995,-0.097
45.42,-0.14,0.92,0.047
45.43,-0.125,0.941,0.188
45.44,-0.305,0.863,-0.166
45.45,-0.295,1.141,-0.176
45.46,0.01,0.875,0.083
45.47,-0.112,1.076,0.137
45.48,-0.298,0.702,0.035
45.49,-0.356,1.207,-0.179
45.5,-0.129,0.978,-0.089
45.51,-0.208,0.874,0.198
45.52,-0.062,0.979,0.104
45.53,-0.39,0.794,-0.191
45.54,-0.287,1.283,-0.061
45.55,0.006,0.855,0.067
45.56,-0.252,0.981,0.147
45.57,-0.149,0.817,0.013
45.58,-0.354,1.191,-0.247
45.59,-0.128,0.969,-0.027
45.6,-0.116,0.867,0.177
45.61,-0.103,1.007,0.033
45.62,-0.484,0.811,-0.16
45.63,-0.162,1.281,-0.046
45.64,-0.071,0.851,0.04
45.65,-0.252,0.907,0.209
45.66,-0.216,0.884,-0.033
45.67,-0.33,1.043,-0.212
45.68,-0.179,0.983,0.097
45.69,-0.054,0.94,0.107
45.7,-0.202,0.901,0.046
45.71,-0.413,0.938,-0.143
45.72,-0.163,1.257,-0.082
45.73,-0.156,0.685,0.083
45.74,-0.127,1.059,0.173
45.75,-0.265,0.827,-0.135
45.76,-0.344,1.053,-0.149
45.77,-0.096,1.08,0.063
45.78,-0.033,0.881,0.093
45.79,-0.239,0.942,0.024
45.8,-0.408,0.923,-0.131
45.81,-0.124,1.266,-0.056
45.82,-0.196,0.7,0.135
45.83,-0.17,1.002,0.169
45.84,-0.255,0.88,-0.188
45.85,-0.367,1.016,-0.115
45.86,-0.013,1.159,0.125
45.87,-0.116,0.758,0.094
45.88,-0.376,0.994,0.038
45.89,-0.257,0.911,-0.174
45.9,-0.166,1.222,-0.037
45.91,-0.232,0.709,0.211
45.92,-0.07,1.011,0.103
45.93,-0.424,0.881,-0.195
45.94,-0.283,0.984,0.04
45.95,-0.111,1.213,0.056
45.96,-0.166,0.619,0.094
45.97,-0.235,1.101,0.051
45.98,-0.316,0.916,-0.236
45.99,-0.223,1.122,0.004
46.0,-0.046,0.843,0.181
46.01,-0.204,0.907,0.067
46.02,-0.42,1.012,-0.171
46.03,-0.118,1.024,-0.125
46.04,-0.172,1.074,0.048
46.05,-0.116,0.615,0.191
46.06,-0.217,1.198,-0.086
46.07,-0.349,0.815,-0.174
46.08,-0.179,1.135,0.061
46.09,-0.037,0.897,0.102
46.1,-0.12,0.825,0.08
46.11,-0.416,1.143,-0.197
46.12,-0.093,0.895,-0.093
46.13,-0.151,1.13,0.038
46.14,-0.138,0.662,0.211
46.15,-0.277,1.173,-0.07
46.16,-0.348,0.833,-0.176
46.17,-0.184,1.119,0.136
46.18,-0.075,0.991,0.077
46.19,-0.2,0.758,0.006
46.2,-0.376,1.222,-0.178
46.21,-0.063,0.918,-0.101
46.22,-0.21,1.112,0.056
46.23,-0.056,0.672,0.275
46.24,-0.422,1.165,-0.153
46.25,-0.255,0.839,-0.187
46.26,-0.02,1.146,0.102
46.27,-0.183,0.935,0.102
46.28,-0.226,0.709,0.022
46.29,-0.351,1.299,-0.19
46.3,-0.172,0.817,-0.004
46.31,-0.238,1.156,0.168
46.32,-0.002,0.718,0.146
46.33,-0.432,1.057,-0.178
46.34,-0.254,0.937,-0.099
46.35,-0.023,1.126,0.019
46.36,-0.15,0.929,0.132
46.37,-0.255,0.716,0.038
46.38,-0.356,1.314,-0.233
46.39,-0.065,0.832,-0.041
46.4,-0.237,1.183,0.161
46.41,-0.064,0.702,0.101
46.42,-0.43,1.031,-0.147
46.43,-0.254,1.071,-0.085
46.44,-0.054,0.953,0.054
46.45,-0.178,0.945,0.186
46.46,-0.271,0.747,0.043
46.47,-0.39,1.331,-0.245
46.48,-0.102,0.795,-0.02
46.49,-0.172,1.121,0.165
46.5,-0.074,0.68,0.072
46.51,-0.492,1.1,-0.191
46.52,-0.108,0.988,-0.06
46.53,-0.077,1.06,0.027
46.54,-0.173,0.834,0.18
46.55,-0.313,0.8,-0.009
46.56,-0.258,1.219,-0.226
46.57,-0.162,0.84,0.032
46.58,-0.1,1.196,0.156
46.59,-0.172,0.645,0.058
46.6,-0.503,1.086,-0.121
46.61,-0.045,1.074,-0.035
46.62,-0.169,0.967,0.061
46.63,-0.141,0.923,0.151
46.64,-0.212,0.795,-0.095
46.65,-0.419,1.212,-0.167
46.66,-0.067,0.872,0.066
46.67,-0.102,1.145,0.143
46.68,-0.157,0.689,0.037
46.69,-0.423,1.127,-0.162
46.7,-0.115,1.057,-0.092
46.71,-0.173,0.837,0.152
46.72,-0.16,1.034,0.181
46.73,-0.328,0.787,-0.136
46.74,-0.325,1.171,-0.092
46.75,-0.151,0.909,0.093
46.76,-0.126,1.05,0.164
46.77,-0.182,0.783,0.028
46.78,-0.285,1.07,-0.228
46.79,-0.195,1.113,-0.031
46.8,-0.092,0.781,0.129
46.81,-0.136,1.081,0.14
46.82,-0.337,0.726,-0.168
46.83,-0.235,1.152,-0.137
46.84,-0.148,1.021,0.081
46.85,-0.167,0.917,0.162
46.86,-0.211,0.857,0.02
46.87,-0.409,1.064,-0.146
46.88,-0.108,1.139,-0.055
46.89,-0.135,0.753,0.116
46.9,-0.13,1.061,0.149
46.91,-0.358,0.77,-0.165
46.92,-0.285,1.135,-0.129
46.93,-0.051,1.02,0.075
46.94,-0.185,0.86,0.125
46.95,-0.271,0.91,0.011
46.96,-0.368,1.003,-0.177
46.97,-0.107,1.18,-0.034
46.98,-0.201,0.744,0.167
46.99,-0.118,1.066,0.107
47.0,-0.33,0.803,-0.208
47.01,-0.187,1.124,-0.093
47.02,-0.067,1.031,0.056
47.03,-0.131,0.8,0.159
47.04,-0.341,0.979,-0.024
47.05,-0.277,0.922,-0.173
47.06,-0.144,1.208,-0.022
47.07,-0.192,0.712,0.177
47.08,-0.093,1.041,0.123
47.09,-0.332,0.877,-0.25
47.1,-0.209,1.054,-0.03
47.11,-0.047,1.097,0.053
47.12,-0.144,0.738,0.138
47.13,-0.335,1.081,0.009
47.14,-0.265,0.847,-0.172
47.15,-0.281,1.222,-0.03
47.16,-0.059,0.774,0.168
47.17,-0.1,1.015,0.047
47.18,-0.414,0.896,-0.195
47.19,-0.144,1.053,-0.048
47.2,-0.107,1.081,0.047
47.21,-0.155,0.655,0.151
47.22,-0.315,1.129,-0.028
47.23,-0.248,0.837,-0.196
47.24,-0.247,1.196,0.051
47.25,-0.116,0.797,0.183
47.26,-0.062,0.969,0.058
47.27,-0.443,0.966,-0.2
47.28,-0.169,0.973,-0.003
47.29,-0.074,1.176,0.028
47.3,-0.134,0.643,0.163
47.31,-0.281,1.123,-0.114
47.32,-0.28,0.847,-0.177
47.33,-0.211,1.255,0.091
47.34,-0.039,0.719,0.174
47.35,-0.211,1.013,0.011
47.36,-0.376,0.913,-0.195
47.37,-0.027,1.092,-0.081
47.38,-0.176,0.984,0.056
47.39,-0.15,0.758,0.204
47.4,-0.347,1.178,-0.105
47.41,-0.226,0.787,-0.172
47.42,-0.192,1.26,0.163
47.43,-0.102,0.725,0.153
47.44,-0.247,0.989,-0.007
47.45,-0.341,0.983,-0.191
47.46,-0.129,1.016,-0.045
47.47,-0.232,1.029,0.152
47.48,-0.125,0.709,0.141
47.49,-0.414,1.195,-0.123
47.5,-0.233,0.829,-0.16
47.51,-0.133,1.231,0.139
47.52,-0.109,0.713,0.183
47.53,-0.272,0.979,0.038
47.54,-0.365,1.061,-0.229
47.55,-0.117,0.921,-0.051
47.56,-0.139,1.08,0.103
47.57,-0.102,0.704,0.135
47.58,-0.384,1.167,-0.136
47.59,-0.23,0.803,-0.138
47.6,-0.07,1.296,0.062
47.61,-0.193,0.782,0.169
47.62,-0.208,0.857,0.02
47.63,-0.417,1.185,-0.2
47.64,-0.117,0.904,-0.047
47.65,-0.179,1.08,0.077
47.66,-0.054,0.672,0.145
47.67,-0.463,1.172,-0.157
47.68,-0.191,0.788,-0.122
47.69,-0.061,1.218,0.052
47.7,-0.137,0.766,0.14
47.71,-0.253,0.821,0.058
47.72,-0.381,1.233,-0.253
47.73,-0.018,0.824,-0.044
47.74,-0.355,1.136,0.197
47.75,0.035,0.642,0.1
47.76,-0.456,1.206,-0.201
47.77,-0.191,0.905,-0.041
47.78,-0.073,1.166,0.02
47.79,-0.118,0.86,0.138
47.8,-0.251,0.787,-0.017
47.81,-0.362,1.26,-0.244
47.82,-0.071,0.8,-0.015
47.83,-0.248,1.202,0.183
47.84,-0.04,0.666,0.084
47.85,-0.52,1.121,-0.178
47.86,-0.206,0.982,-0.019
47.87,-0.061,1.11,0.05
47.88,-0.157,0.872,0.106
47.89,-0.251,0.77,0.015
47.9,-0.359,1.293,-0.217
47.91,-0.083,0.76,-0.003
47.92,-0.197,1.201,0.201
47.93,-0.048,0.687,0.055
47.94,-0.486,1.061,-0.164
47.95,-0.165,1.048,-0.062
47.96,-0.009,1.042,0.04
47.97,-0.177,0.938,0.116
47.98,-0.236,0.738,-0.039
47.99,-0.331,1.304,-0.209
48.0,-0.095,0.798,-0.024
48.01,-0.187,1.164,0.201
48.02,-0.07,0.755,0.093
48.03,-0.501,1.015,-0.195
48.04,-0.172,1.089,-0.016
48.05,-0.078,0.914,0.067
48.06,-0.15,0.928,0.137
48.07,-0.251,0.74,-0.045
48.08,-0.273,1.29,-0.218
48.09,-0.091,0.869,0.01
48.1,-0.105,1.078,0.162
48.11,-0.094,0.817,0.07
48.12,-0.468,1.028,-0.194
48.13,-0.083,0.991,-0.067
48.14,-0.1,0.939,0.074
48.15,-0.2,0.933,0.192
48.16,-0.299,0.79,-0.131
48.17,-0.255,1.222,-0.14
48.18,-0.123,0.897,0.1
48.19,-0.126,1.1,0.142
48.2,-0.154,0.658,0.032
48.21,-0.437,1.196,-0.152
48.22,-0.116,1.038,-0.065
48.23,-0.23,0.846,0.121
48.24,-0.143,0.987,0.168
48.25,-0.288,0.775,-0.189
48.26,-0.262,1.177,-0.116
48.27,-0.054,0.944,0.088
48.28,-0.111,1.024,0.099
48.29,-0.191,0.729,0.03
48.3,-0.383,1.132,-0.153
48.31,-0.123,1.117,-0.063
48.32,-0.164,0.768,0.131
48.33,-0.172,1.063,0.183
48.34,-0.281,0.789,-0.197
