t,ax,ay,az
0.0,-0.063,1.131,0.061
0.01,-0.163,0.91,0.109
0.02,-0.287,0.738,-0.008
0.03,-0.319,1.263,-0.25
0.04,-0.045,0.801,-0.031
0.05,-0.138,1.198,0.176
0.06,-0.095,0.677,0.099
0.07,-0.574,1.106,-0.135
0.08,-0.002,1.055,-0.11
0.09,-0.146,0.925,0.024
0.1,-0.189,1.028,0.262
0.11,-0.243,0.721,-0.119
0.12,-0.412,1.173,-0.154
0.13,-0.098,0.925,0.144
0.14,-0.055,1.157,0.057
0.15,-0.127,0.658,-0.003
0.16,-0.348,1.115,-0.116
0.17,-0.178,1.171,-0.076
0.18,-0.188,0.716,0.068
0.19,-0.053,1.044,0.172
0.2,-0.353,0.778,-0.158
0.21,-0.35,1.181,-0.103
0.22,0.023,0.98,0.1
0.23,-0.138,0.906,0.077
0.24,-0.244,0.838,0.109
0.25,-0.31,1.104,-0.239
0.26,-0.19,1.037,-0.045
0.27,-0.167,0.747,0.202
0.28,-0.085,1.088,0.029
0.29,-0.385,0.749,-0.215
0.3,-0.183,1.266,-0.033
0.31,-0.115,0.974,0.061
0.32,-0.212,0.758,0.14
0.33,-0.209,1.013,0.083
0.34,-0.38,0.953,-0.262
0.35,-0.157,1.124,-0.006
0.36,-0.035,0.834,0.143
0.37,-0.145,1.004,0.02
0.38,-0.464,0.803,-0.142
0.39,-0.026,1.193,-0.104
0.4,-0.18,0.908,0.032
0.41,-0.195,0.741,0.204
0.42,-0.233,1.12,-0.058
0.43,-0.382,0.831,-0.169
0.44,-0.172,1.172,0.092
0.45,-0.007,0.817,0.113
0.46,-0.204,0.93,-0.015
0.47,-0.371,0.943,-0.122
0.48,-0.153,1.135,-0.062
0.49,-0.168,0.935,0.079
0.5,-0.176,0.753,0.221
0.51,-0.34,1.133,-0.184
0.52,-0.26,0.795,-0.168
0.53,-0.039,1.347,0.071
0.54,-0.043,0.689,0.101
0.55,-0.323,0.936,0.057
0.56,-0.264,1.085,-0.219
0.57,-0.058,0.948,-0.085
0.58,-0.311,1.025,0.213
0.59,-0.004,0.705,0.154
0.6,-0.496,1.191,-0.207
0.61,-0.258,0.834,-0.04
0.62,-0.021,1.308,0.062
0.63,-0.19,0.694,0.105
0.64,-0.23,0.937,0.044
0.65,-0.304,1.153,-0.247
0.66,-0.183,0.845,-0.017
0.67,-0.043,1.02,0.127
0.68,-0.149,0.687,0.061
0.69,-0.508,1.229,-0.17
0.7,-0.012,0.882,-0.103
0.71,-0.193,1.201,0.052
0.72,-0.15,0.713,0.232
0.73,-0.292,1.051,-0.128
0.74,-0.267,0.907,-0.159
0.75,-0.137,1.093,0.152
0.76,-0.174,1.063,0.092
0.77,-0.068,0.615,-0.021
0.78,-0.512,1.348,-0.146
0.79,-0.106,0.823,-0.079
0.8,-0.126,1.082,0.1
0.81,-0.114,0.79,0.179
0.82,-0.36,0.955,-0.17
0.83,-0.243,1.039,-0.175
0.84,0.016,1.014,0.045
0.85,-0.107,1.021,0.099
0.86,-0.207,0.658,0.026
0.87,-0.429,1.347,-0.197
0.88,-0.101,0.809,-0.022
0.89,-0.219,1.073,0.168
0.9,-0.051,0.864,0.092
0.91,-0.431,0.908,-0.191
0.92,-0.314,1.137,-0.053
0.93,0.0,0.943,0.074
0.94,-0.162,1.014,0.076
0.95,-0.177,0.69,0.013
0.96,-0.341,1.329,-0.19
0.97,-0.124,0.88,-0.031
0.98,-0.201,0.993,0.212
0.99,-0.069,0.879,0.055
1.0,-0.473,0.91,-0.182
1.01,-0.064,1.267,-0.081
1.02,-0.167,0.807,0.097
1.03,-0.221,1.016,0.227
1.04,-0.225,0.792,-0.06
1.05,-0.362,1.155,-0.209
1.06,-0.19,0.979,0.103
1.07,-0.028,0.937,0.111
1.08,-0.077,1.137,-0.116
1.09,-0.117,0.896,0.071
1.1,-0.222,0.964,0.196
1.11,-0.206,0.753,-0.095
1.12,-0.359,1.227,-0.189
1.13,-0.098,0.846,0.11
1.14,-0.102,1.108,0.128
1.15,-0.136,0.725,0.023
1.16,-0.436,1.094,-0.161
1.17,-0.182,1.117,-0.088
1.18,-0.133,0.776,0.098
1.19,-0.142,1.058,0.144
1.2,-0.303,0.737,-0.151
1.21,-0.308,1.199,-0.16
1.22,-0.054,0.951,0.116
1.23,-0.171,0.957,0.144
1.24,-0.257,0.805,0.014
1.25,-0.324,1.058,-0.199
1.26,-0.135,1.135,-0.057
1.27,-0.181,0.732,0.178
1.28,-0.057,1.066,0.103
1.29,-0.322,0.779,-0.177
1.3,-0.287,1.227,-0.044
1.31,-0.087,0.933,0.078
1.32,-0.163,0.846,0.128
1.33,-0.206,0.985,0.02
1.34,-0.444,0.949,-0.175
1.35,-0.15,1.154,-0.009
1.36,-0.025,0.797,0.146
1.37,-0.229,1.003,0.098
1.38,-0.369,0.836,-0.138
1.39,-0.171,1.218,-0.046
1.4,-0.131,0.919,0.089
1.41,-0.157,0.758,0.177
1.42,-0.27,1.093,-0.08
1.43,-0.3,0.897,-0.172
1.44,-0.059,1.203,0.068
1.45,-0.125,0.732,0.131
1.46,-0.202,1.043,0.04
1.47,-0.405,0.907,-0.163
1.48,-0.159,1.211,-0.053
1.49,-0.177,0.804,0.126
1.5,-0.115,0.891,0.159
1.51,-0.337,1.041,-0.152
1.52,-0.333,0.933,-0.073
1.53,-0.154,1.23,0.066
1.54,-0.093,0.593,0.124
1.55,-0.283,1.078,0.033
1.56,-0.289,0.958,-0.202
1.57,-0.141,1.047,-0.052
1.58,-0.149,0.914,0.17
1.59,-0.142,0.826,0.103
1.6,-0.419,1.086,-0.199
1.61,-0.145,0.935,-0.007
1.62,-0.236,1.244,0.09
1.63,-0.082,0.562,0.109
1.64,-0.248,1.144,0.013
1.65,-0.343,0.984,-0.247
1.66,-0.083,0.953,-0.017
1.67,-0.112,1.075,0.167
1.68,-0.135,0.711,0.047
1.69,-0.416,1.2,-0.218
1.7,-0.088,0.901,-0.089
1.71,-0.136,1.15,0.065
1.72,-0.172,0.686,0.229
1.73,-0.31,1.081,-0.08
1.74,-0.297,0.906,-0.252
1.75,-0.069,1.027,0.074
1.76,-0.076,1.064,0.07
1.77,-0.176,0.641,0.02
1.78,-0.423,1.302,-0.18
1.79,-0.104,0.875,-0.062
1.8,-0.305,1.137,0.143
1.81,-0.069,0.749,0.174
1.82,-0.404,0.96,-0.171
1.83,-0.328,1.022,-0.084
1.84,0.071,0.988,0.02
1.85,-0.18,1.021,0.121
1.86,-0.243,0.625,0.052
1.87,-0.341,1.338,-0.195
1.88,-0.135,0.826,-0.003
1.89,-0.249,1.106,0.204
1.9,-0.073,0.843,0.075
1.91,-0.453,0.919,-0.175
1.92,-0.188,1.151,-0.027
1.93,-0.012,0.899,0.102
1.94,-0.234,1.012,0.146
1.95,-0.212,0.699,-0.018
1.96,-0.374,1.258,-0.254
1.97,-0.169,0.873,-0.003
1.98,-0.05,1.093,0.143
1.99,-0.105,0.858,0.057
2.0,-0.51,0.859,-0.133
2.01,-0.048,1.281,-0.085
2.02,-0.141,0.834,0.103
2.03,-0.212,1.016,0.163
2.04,-0.214,0.811,-0.08
2.05,-0.37,1.098,-0.229
2.06,-0.143,1.003,0.089
2.07,-0.034,0.934,0.096
2.08,-0.205,0.867,0.017
2.09,-0.429,0.872,-0.131
2.1,-0.093,1.328,-0.108
2.11,-0.151,0.71,0.078
2.12,-0.168,1.007,0.209
2.13,-0.26,0.917,-0.168
2.14,-0.329,1.011,-0.17
2.15,-0.124,1.097,0.125
2.16,-0.119,0.803,0.145
2.17,-0.317,0.972,0.015
2.18,-0.292,0.899,-0.15
2.19,-0.167,1.231,-0.046
2.2,-0.251,0.734,0.189
2.21,-0.083,1.004,0.106
2.22,-0.316,0.906,-0.212
2.23,-0.302,0.984,-0.038
2.24,-0.049,1.203,0.042
2.25,-0.174,0.728,0.134
2.26,-0.22,1.072,0.041
2.27,-0.362,0.964,-0.219
2.28,-0.195,1.135,-0.007
2.29,-0.06,0.755,0.206
2.3,-0.198,1.001,0.079
2.31,-0.421,0.853,-0.169
2.32,-0.085,1.116,-0.126
2.33,-0.086,0.984,0.029
2.34,-0.17,0.728,0.206
2.35,-0.274,1.142,-0.078
2.36,-0.304,0.745,-0.173
2.37,-0.172,1.257,0.138
2.38,-0.113,0.699,0.132
2.39,-0.273,1.047,0.039
2.4,-0.329,0.948,-0.187
2.41,-0.201,1.139,-0.017
2.42,-0.211,0.872,0.139
2.43,-0.087,0.823,0.151
2.44,-0.399,1.074,-0.166
2.45,-0.297,0.854,-0.076
2.46,-0.049,1.281,0.014
2.47,-0.14,0.604,0.15
2.48,-0.285,1.064,0.061
2.49,-0.327,0.976,-0.261
2.5,-0.144,0.99,-0.038
2.51,-0.156,1.001,0.14
2.52,-0.03,0.785,0.085
2.53,-0.444,1.11,-0.171
2.54,-0.237,0.854,-0.013
2.55,-0.145,1.291,0.057
2.56,-0.097,0.616,0.151
2.57,-0.265,1.043,0.055
2.58,-0.302,1.02,-0.221
2.59,-0.11,0.961,0.011
2.6,-0.163,1.077,0.167
2.61,-0.117,0.668,0.083
2.62,-0.43,1.233,-0.177
2.63,-0.146,0.86,-0.081
2.64,-0.157,1.125,0.042
2.65,-0.124,0.746,0.177
2.66,-0.277,1.002,-0.063
2.67,-0.388,1.025,-0.154
2.68,-0.095,0.938,0.045
2.69,-0.109,1.149,0.109
2.7,-0.117,0.62,0.036
2.71,-0.463,1.254,-0.164
2.72,-0.122,0.913,-0.066
2.73,-0.194,1.073,0.114
2.74,-0.127,0.792,0.193
2.75,-0.35,0.937,-0.121
2.76,-0.36,1.057,-0.155
2.77,-0.113,0.934,0.081
2.78,-0.102,1.166,0.114
2.79,-0.129,0.578,0.003
2.8,-0.415,1.289,-0.161
2.81,-0.129,0.926,-0.076
2.82,-0.157,0.955,0.07
2.83,-0.097,0.921,0.214
2.84,-0.401,0.842,-0.162
2.85,-0.318,1.137,-0.092
2.86,0.013,0.986,0.036
2.87,-0.199,1.052,0.134
2.88,-0.182,0.658,0.041
2.89,-0.37,1.283,-0.184
2.9,-0.18,0.935,-0.018
2.91,-0.165,0.946,0.161
2.92,-0.114,0.951,0.086
2.93,-0.353,0.793,-0.218
2.94,-0.208,1.26,-0.06
2.95,-0.05,0.871,0.052
2.96,-0.107,0.936,0.129
2.97,-0.247,0.793,-0.005
2.98,-0.355,1.182,-0.213
2.99,-0.08,0.982,0.006
3.0,-0.166,0.892,0.15
3.01,-0.227,1.001,0.092
3.02,-0.331,0.784,-0.23
3.03,-0.158,1.327,-0.038
3.04,-0.191,0.837,0.098
3.05,-0.125,0.891,0.171
3.06,-0.252,0.794,-0.086
3.07,-0.374,1.15,-0.142
3.08,-0.079,0.964,0.057
3.09,-0.128,0.937,0.116
3.1,-0.209,0.9,0.049
3.11,-0.34,0.907,-0.142
3.12,-0.164,1.269,-0.111
3.13,-0.121,0.704,0.092
3.14,-0.134,1.056,0.185
3.15,-0.289,0.848,-0.154
3.16,-0.302,1.05,-0.168
3.17,0.0,1.12,0.07
3.18,-0.148,0.776,0.129
3.19,-0.282,1.041,0.044
3.2,-0.365,0.928,-0.218
3.21,-0.133,1.166,-0.044
3.22,-0.104,0.774,0.175
3.23,-0.147,1.022,0.185
3.24,-0.396,0.847,-0.158
3.25,-0.249,1.024,-0.083
3.26,-0.068,1.217,0.078
3.27,-0.126,0.629,0.111
3.28,-0.341,1.099,0.058
3.29,-0.328,0.896,-0.202
3.3,-0.213,1.149,-0.005
3.31,-0.119,0.767,0.181
3.32,-0.141,0.947,0.078
3.33,-0.392,0.983,-0.22
3.34,-0.044,0.956,-0.125
3.35,-0.141,1.151,0.081
3.36,-0.14,0.615,0.169
3.37,-0.276,1.148,-0.057
3.38,-0.379,0.856,-0.169
3.39,-0.131,1.12,0.03
3.4,-0.051,0.974,0.109
3.41,-0.202,0.822,0.047
3.42,-0.361,1.088,-0.192
3.43,-0.088,0.942,-0.079
3.44,-0.167,1.139,0.07
3.45,-0.099,0.686,0.237
3.46,-0.397,1.125,-0.129
3.47,-0.268,0.828,-0.158
3.48,-0.138,1.205,0.122
3.49,-0.159,0.922,0.102
3.5,-0.163,0.732,0.027
3.51,-0.43,1.301,-0.181
3.52,-0.082,0.859,-0.075
3.53,-0.212,1.088,0.109
3.54,-0.052,0.721,0.191
3.55,-0.43,1.128,-0.179
3.56,-0.331,0.892,-0.107
3.57,-0.019,1.131,0.055
3.58,-0.117,0.891,0.093
3.59,-0.239,0.706,0.06
3.6,-0.43,1.373,-0.231
3.61,-0.021,0.762,-0.053
3.62,-0.224,1.121,0.202
3.63,-0.077,0.741,0.143
3.64,-0.496,1.032,-0.185
3.65,-0.266,1.052,-0.069
3.66,-0.086,0.969,0.085
3.67,-0.18,0.955,0.095
3.68,-0.241,0.733,-0.028
3.69,-0.351,1.314,-0.217
3.7,-0.015,0.803,-0.018
3.71,-0.177,1.139,0.135
3.72,-0.021,0.764,0.089
3.73,-0.515,1.027,-0.181
3.74,-0.108,1.142,-0.08
3.75,-0.091,0.867,0.072
3.76,-0.214,0.983,0.164
3.77,-0.251,0.746,-0.097
3.78,-0.276,1.28,-0.2
3.79,-0.081,0.882,0.087
3.8,-0.11,1.013,0.135
3.81,-0.116,0.824,0.026
3.82,-0.417,1.01,-0.19
3.83,-0.109,1.184,-0.062
3.84,-0.092,0.757,0.117
3.85,-0.209,1.067,0.137
3.86,-0.344,0.712,-0.098
3.87,-0.273,1.171,-0.155
3.88,-0.107,0.854,0.097
3.89,-0.136,0.979,0.172
3.9,-0.213,0.801,0.008
3.91,-0.43,1.092,-0.209
3.92,-0.035,1.075,-0.019
3.93,-0.074,0.87,0.094
3.94,-0.195,1.007,0.073
3.95,-0.32,0.762,-0.137
3.96,-0.207,1.313,-0.058
3.97,-0.087,0.881,0.052
3.98,-0.125,0.833,0.148
3.99,-0.217,0.951,-0.013
4.0,-0.426,1.029,-0.213
4.01,-0.103,1.084,0.04
4.02,0.004,0.851,0.134
4.03,-0.281,0.989,0.04
4.04,-0.336,0.821,-0.167
4.05,-0.15,1.265,-0.084
4.06,-0.161,0.821,0.124
4.07,-0.146,0.856,0.221
4.08,-0.369,1.052,-0.103
4.09,-0.203,0.85,-0.193
4.1,-0.019,1.271,0.059
4.11,-0.176,0.646,0.157
4.12,-0.269,1.071,0.075
4.13,-0.312,0.944,-0.198
4.14,-0.201,1.079,-0.024
4.15,-0.225,0.882,0.176
4.16,-0.075,0.83,0.142
4.17,-0.395,1.058,-0.199
4.18,-0.24,0.848,-0.062
4.19,-0.052,1.262,0.044
4.2,-0.079,0.567,0.111
4.21,-0.276,1.065,0.037
4.22,-0.332,0.999,-0.244
4.23,-0.118,0.929,-0.016
4.24,-0.153,1.032,0.174
4.25,-0.092,0.724,0.08
4.26,-0.46,1.166,-0.163
4.27,-0.127,0.89,-0.049
4.28,-0.188,1.234,0.096
4.29,-0.096,0.663,0.163
4.3,-0.288,1.011,-0.072
4.31,-0.306,1.024,-0.234
4.32,-0.099,0.929,0.042
4.33,-0.153,1.109,0.179
4.34,-0.117,0.637,0.028
4.35,-0.443,1.246,-0.194
4.36,-0.055,0.906,-0.062
4.37,-0.147,1.129,0.081
4.38,-0.198,0.777,0.192
4.39,-0.26,0.978,-0.118
4.4,-0.325,1.052,-0.189
4.41,-0.054,0.974,0.097
4.42,-0.149,1.063,0.125
4.43,-0.212,0.63,-0.001
4.44,-0.334,1.355,-0.233
4.45,-0.122,0.831,-0.058
4.46,-0.177,1.071,0.187
4.47,-0.03,0.855,0.099
4.48,-0.422,0.866,-0.162
4.49,-0.305,1.16,-0.077
4.5,0.054,0.912,0.015
4.51,-0.193,1.043,0.142
4.52,-0.252,0.692,0.036
4.53,-0.378,1.293,-0.226
4.54,-0.065,0.804,-0.06
4.55,-0.109,1.073,0.168
4.56,-0.133,0.897,0.11
4.57,-0.449,0.823,-0.2
4.58,-0.134,1.245,-0.083
4.59,-0.039,0.85,0.052
4.6,-0.192,0.986,0.156
4.61,-0.221,0.764,-0.024
4.62,-0.326,1.222,-0.237
4.63,-0.15,0.949,0.025
4.64,-0.118,0.918,0.2
4.65,-0.135,0.948,0.044
4.66,-0.448,0.858,-0.141
4.67,-0.05,1.293,-0.066
4.68,-0.122,0.767,0.082
4.69,-0.275,1.022,0.214
4.7,-0.271,0.725,-0.186
4.71,-0.375,1.14,-0.166
4.72,0.02,1.009,0.134
4.73,-0.198,0.914,0.151
4.74,-0.312,0.836,0.068
4.75,-0.3,1.03,-0.2
4.76,-0.168,1.143,-0.044
4.77,-0.162,0.713,0.144
4.78,-0.033,1.082,0.078
4.79,-0.375,0.815,-0.217
4.8,-0.207,1.184,-0.054
4.81,-0.046,1.013,0.07
4.82,-0.196,0.744,0.163
4.83,-0.192,1.048,-0.034
4.84,-0.307,0.912,-0.223
4.85,-0.198,1.205,0.044
4.86,-0.043,0.767,0.108
4.87,-0.115,1.0,0.06
4.88,-0.401,0.898,-0.15
4.89,-0.165,1.134,-0.122
4.9,-0.061,0.965,0.068
4.91,-0.172,0.74,0.218
4.92,-0.307,1.103,-0.062
4.93,-0.241,0.781,-0.207
4.94,-0.193,1.266,0.104
4.95,-0.093,0.73,0.138
4.96,-0.167,0.951,0.006
4.97,-0.437,1.082,-0.163
4.98,-0.186,0.981,-0.075
4.99,-0.176,0.952,0.099
5.0,-0.117,0.723,0.227
5.01,-0.462,1.147,-0.172
5.02,-0.187,0.758,-0.119
5.03,-0.121,1.356,0.126
5.04,-0.185,0.744,0.15
5.05,-0.169,0.917,0.036
5.06,-0.421,1.169,-0.229
5.07,-0.021,0.858,-0.049
5.08,-0.172,1.169,0.135
5.09,-0.128,0.676,0.159
5.1,-0.45,1.151,-0.166
5.11,-0.235,0.874,-0.074
5.12,-0.071,1.206,0.101
5.13,-0.11,0.768,0.124
5.14,-0.294,0.879,0.026
5.15,-0.422,1.184,-0.195
5.16,-0.12,0.844,0.024
5.17,-0.132,1.183,0.112
5.18,-0.076,0.622,0.103
5.19,-0.523,1.195,-0.154
5.2,-0.044,0.953,-0.103
5.21,-0.144,1.047,0.075
5.22,-0.126,0.849,0.205
5.23,-0.294,0.87,-0.072
5.24,-0.383,1.153,-0.207
5.25,-0.053,0.88,0.147
5.26,-0.165,1.196,0.114
5.27,-0.115,0.627,0.012
5.28,-0.425,1.239,-0.219
5.29,-0.134,1.012,-0.079
5.3,-0.086,0.944,0.103
5.31,-0.137,0.959,0.145
5.32,-0.346,0.743,-0.191
5.33,-0.321,1.168,-0.141
5.34,0.007,0.942,0.079
5.35,-0.174,1.079,0.156
5.36,-0.252,0.713,0.076
5.37,-0.358,1.169,-0.189
5.38,-0.153,1.014,-0.047
5.39,-0.157,0.831,0.183
5.4,-0.114,1.034,0.085
5.41,-0.351,0.752,-0.217
5.42,-0.231,1.286,-0.017
5.43,-0.055,0.894,0.08
5.44,-0.176,0.918,0.1
5.45,-0.171,0.889,0.019
5.46,-0.416,1.114,-0.23
5.47,-0.185,1.025,0.018
5.48,-0.002,0.874,0.155
5.49,-0.303,0.984,0.044
5.5,-0.406,0.769,-0.139
5.51,-0.086,1.324,-0.142
5.52,-0.151,0.742,0.099
5.53,-0.127,1.024,0.193
5.54,-0.22,0.787,-0.18
5.55,-0.344,1.055,-0.149
5.56,-0.062,1.104,0.137
5.57,-0.15,0.78,0.099
5.58,-0.245,1.009,0.038
5.59,-0.294,0.957,-0.241
5.6,-0.192,1.196,-0.052
5.61,-0.156,0.73,0.188
5.62,-0.101,1.018,0.123
5.63,-0.388,0.859,-0.211
5.64,-0.241,1.018,-0.031
5.65,0.01,1.135,0.058
5.66,-0.267,0.647,0.16
5.67,-0.245,1.106,0.082
5.68,-0.29,0.923,-0.225
5.69,-0.281,1.124,-0.005
5.7,-0.067,0.827,0.178
5.71,-0.122,0.943,0.054
5.72,-0.468,0.943,-0.155
5.73,-0.15,0.994,-0.056
5.74,-0.095,1.184,0.019
5.75,-0.172,0.569,0.134
5.76,-0.23,1.182,-0.038
5.77,-0.324,0.876,-0.221
5.78,-0.217,1.131,0.048
5.79,0.032,0.929,0.155
5.8,-0.214,0.832,0.021
5.81,-0.503,1.057,-0.129
5.82,-0.033,0.97,-0.106
5.83,-0.22,1.135,0.064
5.84,-0.117,0.651,0.228
5.85,-0.309,1.144,-0.129
5.86,-0.38,0.795,-0.136
5.87,-0.098,1.154,0.137
5.88,-0.085,0.915,0.122
5.89,-0.319,0.757,0.075
5.9,-0.363,1.245,-0.197
5.91,-0.088,0.856,-0.049
5.92,-0.28,1.181,0.116
5.93,0.044,0.687,0.121
5.94,-0.425,1.085,-0.174
5.95,-0.259,0.874,-0.094
5.96,0.035,1.138,0.093
5.97,-0.188,0.868,0.128
5.98,-0.315,0.712,0.084
5.99,-0.292,1.369,-0.209
6.0,-0.196,0.758,-0.054
6.01,-0.146,1.111,0.165
6.02,-0.054,0.75,0.102
6.03,-0.459,1.083,-0.207
6.04,-0.224,1.049,-0.02
6.05,-0.071,0.974,0.055
6.06,-0.128,0.885,0.145
6.07,-0.249,0.789,-0.025
6.08,-0.349,1.315,-0.178
6.09,-0.194,0.802,0.076
6.1,-0.152,1.149,0.149
6.11,-0.138,0.755,0.034
6.12,-0.436,1.027,-0.22
6.13,-0.062,1.118,-0.084
6.14,-0.083,0.904,0.077
6.15,-0.241,1.001,0.208
6.16,-0.215,0.717,-0.109
6.17,-0.321,1.291,-0.14
6.18,-0.098,0.935,0.074
6.19,-0.084,0.998,0.086
6.2,-0.164,0.803,0.037
6.21,-0.465,1.054,-0.149
6.22,-0.112,1.134,-0.07
6.23,-0.165,0.761,0.148
6.24,-0.123,1.091,0.176
6.25,-0.386,0.737,-0.163
6.26,-0.246,1.125,-0.157
6.27,-0.061,1.051,0.09
6.28,-0.156,0.854,0.14
6.29,-0.291,0.907,0.034
6.3,-0.333,1.032,-0.198
6.31,-0.204,1.181,-0.033
6.32,-0.053,0.718,0.133
6.33,-0.16,1.01,0.044
6.34,-0.435,0.76,-0.144
6.35,-0.219,1.332,-0.052
6.36,-0.063,0.899,0.036
6.37,-0.183,0.823,0.112
6.38,-0.214,0.912,0.015
6.39,-0.338,1.069,-0.26
6.4,-0.127,1.09,0.007
6.41,-0.101,0.821,0.155
6.42,-0.163,1.01,0.036
6.43,-0.378,0.861,-0.199
6.44,-0.086,1.222,-0.116
6.45,-0.089,0.783,0.1
6.46,-0.169,0.913,0.201
6.47,-0.362,1.017,-0.097
6.48,-0.257,0.896,-0.192
6.49,-0.153,1.277,0.1
6.5,-0.062,0.657,0.112
6.51,-0.196,1.074,0.058
6.52,-0.465,0.945,-0.164
6.53,-0.009,1.124,-0.081
6.54,-0.154,0.893,0.098
6.55,-0.221,0.814,0.234
6.56,-0.344,1.07,-0.143
6.57,-0.253,0.865,-0.146
6.58,-0.039,1.314,0.04
6.59,-0.076,0.583,0.126
6.6,-0.338,1.059,0.044
6.61,-0.323,0.985,-0.229
6.62,-0.08,0.974,-0.052
6.63,-0.152,1.022,0.227
6.64,-0.112,0.756,0.07
6.65,-0.43,1.111,-0.197
6.66,-0.15,0.887,-0.004
6.67,-0.141,1.249,0.053
6.68,-0.162,0.651,0.163
6.69,-0.224,1.06,0.003
6.7,-0.383,0.965,-0.197
6.71,-0.203,0.964,0.077
6.72,-0.045,1.14,0.123
6.73,-0.09,0.646,0.045
6.74,-0.487,1.224,-0.137
6.75,-0.026,0.917,-0.093
6.76,-0.242,1.15,0.084
6.77,-0.098,0.7,0.212
6.78,-0.273,1.012,-0.087
6.79,-0.377,0.948,-0.197
6.8,-0.048,0.98,0.123
6.81,-0.112,1.175,0.098
6.82,-0.195,0.599,-0.008
6.83,-0.396,1.295,-0.14
6.84,-0.081,0.921,-0.104
6.85,-0.179,1.026,0.062
6.86,-0.051,0.858,0.194
6.87,-0.413,0.875,-0.164
6.88,-0.302,1.042,-0.133
6.89,-0.032,0.995,0.074
6.9,-0.124,1.058,0.083
6.91,-0.264,0.64,0.023
6.92,-0.359,1.312,-0.171
6.93,-0.178,0.882,-0.01
6.94,-0.217,0.984,0.161
6.95,0.06,0.922,0.093
6.96,-0.455,0.834,-0.202
6.97,-0.276,1.158,-0.059
6.98,0.085,0.975,0.064
6.99,-0.258,1.001,0.084
7.0,-0.182,0.726,0.071
7.01,-0.294,1.274,-0.229
7.02,-0.26,0.86,-0.015
7.03,-0.031,0.923,0.219
7.04,-0.101,0.991,0.036
7.05,-0.525,0.792,-0.164
7.06,-0.137,1.292,-0.047
7.07,-0.019,0.844,0.032
7.08,-0.285,0.973,0.205
7.09,-0.132,0.826,-0.08
7.1,-0.361,1.122,-0.21
7.11,-0.2,1.011,0.099
7.12,0.006,0.905,0.173
7.13,-0.232,0.939,0.043
7.14,-0.389,0.829,-0.107
7.15,-0.16,1.271,-0.083
7.16,-0.138,0.63,0.08
7.17,-0.152,1.111,0.185
7.18,-0.307,0.777,-0.161
7.19,-0.37,1.101,-0.139
7.2,-0.027,1.05,0.1
7.21,-0.125,0.826,0.106
7.22,-0.275,0.982,0.056
7.23,-0.325,0.976,-0.182
7.24,-0.16,1.148,-0.102
7.25,-0.068,0.755,0.159
7.26,-0.156,1.043,0.097
7.27,-0.323,0.806,-0.195
7.28,-0.223,1.179,-0.04
7.29,-0.154,1.024,0.11
7.3,-0.182,0.766,0.188
7.31,-0.268,1.103,-0.023
7.32,-0.396,0.823,-0.198
7.33,-0.187,1.179,0.033
7.34,0.008,0.801,0.12
7.35,-0.25,0.932,0.089
7.36,-0.383,0.915,-0.172
7.37,-0.06,1.071,-0.124
7.38,-0.217,1.033,0.074
7.39,-0.151,0.672,0.228
7.4,-0.252,1.157,-0.051
7.41,-0.357,0.791,-0.2
7.42,-0.148,1.183,0.106
7.43,-0.084,0.827,0.129
7.44,-0.162,0.91,0.057
7.45,-0.437,1.045,-0.173
7.46,-0.05,0.971,-0.086
7.47,-0.142,1.101,0.015
7.48,-0.101,0.675,0.195
7.49,-0.345,1.19,-0.119
7.5,-0.299,0.774,-0.143
7.51,-0.099,1.234,0.091
7.52,-0.091,0.855,0.111
7.53,-0.175,0.804,0.023
7.54,-0.466,1.207,-0.168
7.55,-0.133,0.861,-0.044
7.56,-0.188,1.105,0.106
7.57,-0.061,0.698,0.155
7.58,-0.448,1.139,-0.14
7.59,-0.276,0.86,-0.123
7.6,-0.024,1.173,0.015
7.61,-0.178,0.833,0.155
7.62,-0.251,0.797,0.069
7.63,-0.333,1.282,-0.264
7.64,-0.161,0.78,0.006
7.65,-0.264,1.207,0.215
7.66,-0.029,0.669,0.129
7.67,-0.453,1.064,-0.208
7.68,-0.166,0.976,-0.041
7.69,-0.1,1.169,0.047
7.7,-0.18,0.883,0.108
7.71,-0.185,0.731,0.037
7.72,-0.428,1.32,-0.233
7.73,-0.06,0.746,-0.017
7.74,-0.224,1.271,0.191
7.75,-0.038,0.682,0.092
7.76,-0.474,1.047,-0.184
7.77,-0.186,1.071,-0.028
7.78,-0.057,0.958,0.061
7.79,-0.198,0.943,0.138
7.8,-0.217,0.719,-0.05
7.81,-0.394,1.331,-0.152
7.82,-0.148,0.853,0.035
7.83,-0.148,1.111,0.161
7.84,-0.083,0.733,0.028
7.85,-0.42,1.074,-0.181
7.86,-0.093,1.169,-0.038
7.87,-0.113,0.819,0.07
7.88,-0.222,0.984,0.13
7.89,-0.155,0.759,-0.088
7.9,-0.392,1.233,-0.155
7.91,-0.137,0.871,0.126
7.92,-0.106,1.109,0.15
7.93,-0.197,0.778,-0.029
7.94,-0.379,1.019,-0.172
7.95,-0.096,1.191,-0.079
7.96,-0.133,0.736,0.088
7.97,-0.104,1.001,0.102
7.98,-0.325,0.752,-0.183
7.99,-0.293,1.248,-0.091
8.0,-0.01,0.907,0.087
8.01,-0.123,0.993,0.103
8.02,-0.192,0.772,-0.001
8.03,-0.374,1.153,-0.155
8.04,-0.099,1.043,-0.032
8.05,-0.159,0.814,0.185
8.06,-0.144,1.029,0.115
8.07,-0.382,0.791,-0.199
8.08,-0.209,1.257,-0.032
8.09,-0.111,0.908,0.112
8.1,-0.178,0.881,0.122
8.11,-0.278,0.889,-0.005
8.12,-0.336,1.033,-0.165
8.13,-0.085,1.115,-0.065
8.14,-0.113,0.778,0.198
8.15,-0.175,1.036,0.066
8.16,-0.365,0.786,-0.214
8.17,-0.168,1.246,-0.067
8.18,-0.086,0.87,0.097
8.19,-0.172,0.852,0.166
8.2,-0.262,0.995,-0.125
8.21,-0.24,0.895,-0.144
8.22,-0.164,1.206,0.062
8.23,-0.08,0.707,0.13
8.24,-0.216,1.043,0.021
8.25,-0.357,0.938,-0.179
8.26,-0.147,1.167,-0.091
8.27,-0.156,0.833,0.113
8.28,-0.156,0.835,0.201
8.29,-0.346,1.105,-0.168
8.3,-0.304,0.793,-0.128
8.31,-0.116,1.304,0.112
8.32,-0.113,0.69,0.141
8.33,-0.318,1.03,-0.001
8.34,-0.335,0.985,-0.179
8.35,-0.127,1.052,-0.04
8.36,-0.223,0.903,0.169
8.37,-0.028,0.752,0.137
8.38,-0.456,1.176,-0.184
8.39,-0.218,0.818,-0.07
8.4,-0.115,1.334,0.101
8.41,-0.122,0.631,0.128
8.42,-0.228,1.029,-0.015
8.43,-0.31,1.063,-0.249
8.44,-0.147,0.931,0.021
8.45,-0.246,1.059,0.216
8.46,-0.054,0.703,0.064
8.47,-0.448,1.194,-0.236
8.48,-0.133,0.843,-0.038
8.49,-0.157,1.223,0.094
8.5,-0.143,0.71,0.153
8.51,-0.284,0.977,-0.055
8.52,-0.351,1.03,-0.197
8.53,-0.086,0.958,0.032
8.54,-0.117,1.178,0.124
8.55,-0.088,0.582,0.025
8.56,-0.426,1.292,-0.185
8.57,-0.123,0.922,-0.088
8.58,-0.086,1.05,0.055
8.59,-0.17,0.824,0.184
8.6,-0.33,0.924,-0.106
8.61,-0.319,1.092,-0.122
8.62,-0.184,0.9,0.145
8.63,-0.116,1.125,0.123
8.64,-0.161,0.652,-0.006
8.65,-0.472,1.293,-0.143
8.66,-0.087,0.915,-0.04
8.67,-0.24,1.003,0.152
8.68,-0.053,0.868,0.128
8.69,-0.392,0.873,-0.151
8.7,-0.216,1.209,-0.145
8.71,-0.036,0.889,0.067
8.72,-0.119,1.038,0.099
8.73,-0.287,0.709,0.022
8.74,-0.379,1.221,-0.227
8.75,-0.082,0.958,-0.056
8.76,-0.16,0.946,0.162
8.77,-0.079,0.912,0.083
8.78,-0.426,0.825,-0.172
8.79,-0.14,1.202,-0.075
8.8,-0.089,0.837,0.077
8.81,-0.159,1.019,0.128
8.82,-0.251,0.736,-0.078
8.83,-0.326,1.237,-0.186
8.84,-0.161,0.9,0.117
8.85,-0.07,1.041,0.164
8.86,-0.19,0.821,0.016
8.87,-0.478,0.951,-0.161
8.88,-0.057,1.222,-0.066
8.89,-0.159,0.761,0.07
8.9,-0.17,1.014,0.165
8.91,-0.225,0.809,-0.132
8.92,-0.334,1.13,-0.15
8.93,-0.05,1.037,0.113
8.94,-0.122,0.912,0.166
8.95,-0.328,0.91,0.017
8.96,-0.333,0.953,-0.157
8.97,-0.179,1.24,-0.05
8.98,-0.138,0.707,0.11
8.99,-0.026,1.062,0.102
9.0,-0.351,0.822,-0.197
9.01,-0.248,1.091,-0.106
9.02,-0.051,1.088,0.075
9.03,-0.163,0.728,0.151
9.04,-0.239,1.079,0.014
9.05,-0.368,0.916,-0.186
9.06,-0.224,1.185,-0.002
9.07,-0.086,0.745,0.15
9.08,-0.151,1.003,0.036
9.09,-0.373,0.872,-0.194
9.1,-0.087,1.049,-0.089
9.11,-0.088,1.053,0.08
9.12,-0.208,0.68,0.194
9.13,-0.303,1.139,-0.063
9.14,-0.274,0.837,-0.183
9.15,-0.166,1.214,0.079
9.16,-0.014,0.836,0.143
9.17,-0.248,0.9,0.042
9.18,-0.342,1.001,-0.192
9.19,-0.128,1.027,-0.075
9.2,-0.127,1.014,0.08
9.21,-0.077,0.687,0.199
9.22,-0.436,1.178,-0.132
9.23,-0.25,0.8,-0.177
9.24,-0.153,1.293,0.133
9.25,-0.143,0.81,0.135
9.26,-0.203,0.834,-0.002
9.27,-0.294,1.216,-0.2
9.28,-0.176,0.862,-0.09
9.29,-0.221,1.05,0.135
9.3,0.018,0.688,0.149
9.31,-0.509,1.166,-0.171
9.32,-0.249,0.795,-0.091
9.33,-0.003,1.238,0.031
9.34,-0.165,0.752,0.128
9.35,-0.181,0.832,0.091
9.36,-0.334,1.325,-0.286
9.37,-0.192,0.738,-0.014
9.38,-0.132,1.198,0.195
9.39,-0.048,0.67,0.076
9.4,-0.525,1.075,-0.155
9.41,-0.15,0.999,-0.036
9.42,-0.263,1.012,0.064
9.43,-0.322,1.044,-0.237
9.44,-0.158,0.944,-0.026
9.45,-0.17,1.04,0.184
9.46,-0.128,0.736,0.08
9.47,-0.503,1.126,-0.17
9.48,-0.093,0.873,-0.033
9.49,-0.154,1.316,0.077
9.5,-0.146,0.621,0.13
9.51,-0.139,1.013,-0.005
9.52,-0.439,1.058,-0.175
9.53,-0.193,0.946,0.063
9.54,-0.109,0.983,0.077
9.55,-0.179,0.718,0.02
9.56,-0.342,1.253,-0.186
9.57,-0.294,0.912,-0.019
9.58,-0.183,1.082,0.057
9.59,-0.024,0.707,0.227
9.6,-0.45,1.088,-0.088
9.61,-0.231,0.857,-0.155
9.62,-0.079,1.175,0.087
9.63,-0.202,0.971,0.149
9.64,-0.171,0.684,0.041
9.65,-0.457,1.341,-0.215
9.66,-0.097,0.805,-0.062
9.67,-0.237,1.111,0.138
9.68,-0.046,0.739,0.162
9.69,-0.402,1.031,-0.176
9.7,-0.262,0.932,-0.135
9.71,-0.051,1.067,0.071
9.72,-0.142,1.015,0.12
9.73,-0.282,0.675,0.071
9.74,-0.39,1.318,-0.207
9.75,-0.109,0.836,-0.053
9.76,-0.199,1.084,0.191
9.77,-0.143,0.811,0.163
9.78,-0.386,0.93,-0.237
9.79,-0.189,1.061,-0.098
9.8,-0.007,1.026,0.049
9.81,-0.183,0.957,0.1
9.82,-0.202,0.694,0.04
9.83,-0.378,1.382,-0.248
9.84,-0.076,0.764,-0.073
9.85,-0.098,1.06,0.175
9.86,-0.072,0.816,0.087
9.87,-0.491,0.945,-0.154
9.88,-0.126,1.198,-0.016
9.89,-0.097,0.871,0.03
9.9,-0.251,0.968,0.156
9.91,-0.2,0.76,-0.028
9.92,-0.33,1.271,-0.206
9.93,-0.166,0.906,0.04
9.94,-0.046,1.019,0.146
9.95,-0.108,0.86,0.039
9.96,-0.457,0.919,-0.145
9.97,-0.128,1.262,-0.059
9.98,-0.091,0.742,0.087
9.99,-0.248,1.063,0.201
10.0,-0.303,0.765,-0.083
10.01,-0.284,1.091,-0.182
10.02,-0.074,1.035,0.089
10.03,-0.14,0.933,0.148
10.04,-0.152,0.9,0.007
10.05,-0.352,0.91,-0.178
10.06,-0.212,1.248,-0.072
10.07,-0.018,0.696,0.098
10.08,-0.162,1.0,0.184
10.09,-0.362,0.858,-0.127
10.1,-0.171,1.013,-0.171
10.11,-0.153,1.17,0.132
10.12,-0.07,0.757,0.144
10.13,-0.222,1.031,0.006
10.14,-0.39,0.933,-0.174
10.15,-0.152,1.186,-0.011
10.16,-0.109,0.75,0.142
10.17,-0.181,0.977,0.14
10.18,-0.356,0.918,-0.144
10.19,-0.3,1.011,-0.04
10.2,-0.152,1.165,0.058
10.21,-0.108,0.641,0.138
10.22,-0.235,1.083,0.046
10.23,-0.338,0.892,-0.214
10.24,-0.137,1.159,0.021
10.25,-0.115,0.832,0.119
10.26,-0.14,0.911,0.101
10.27,-0.381,1.021,-0.172
10.28,-0.226,0.977,-0.032
10.29,-0.195,1.205,0.139
10.3,-0.129,0.592,0.141
10.31,-0.274,1.152,0.027
10.32,-0.364,0.898,-0.189
10.33,-0.085,1.085,-0.005
10.34,-0.14,0.888,0.188
10.35,-0.158,0.837,0.131
10.36,-0.376,1.012,-0.221
10.37,-0.177,1.023,-0.108
10.38,-0.14,1.033,0.087
10.39,-0.142,0.703,0.13
10.4,-0.377,1.151,-0.1
10.41,-0.262,0.773,-0.171
10.42,-0.093,1.249,0.059
10.43,-0.072,0.795,0.139
10.44,-0.148,0.886,0.0
10.45,-0.338,1.14,-0.179
10.46,-0.149,0.996,-0.03
10.47,-0.16,1.066,0.101
10.48,-0.147,0.7,0.176
10.49,-0.411,1.107,-0.162
10.5,-0.227,0.855,-0.152
10.51,-0.142,1.256,0.058
10.52,-0.086,0.763,0.111
10.53,-0.219,0.792,0.03
10.54,-0.386,1.236,-0.17
10.55,-0.05,0.886,-0.064
10.56,-0.183,1.081,0.115
10.57,-0.07,0.711,0.186
10.58,-0.449,1.131,-0.159
10.59,-0.206,0.836,-0.157
10.6,-0.055,1.188,0.11
10.61,-0.175,0.86,0.123
10.62,-0.223,0.731,-0.012
10.63,-0.395,1.272,-0.162
10.64,-0.065,0.818,0.03
10.65,-0.195,1.175,0.132
10.66,-0.05,0.726,0.11
10.67,-0.432,1.104,-0.203
10.68,-0.277,0.979,-0.026
10.69,-0.071,1.055,0.064
10.7,-0.113,0.892,0.136
10.71,-0.317,0.766,0.01
10.72,-0.425,1.257,-0.21
10.73,-0.082,0.774,0.005
10.74,-0.114,1.23,0.129
10.75,-0.149,0.641,0.067
10.76,-0.387,1.098,-0.12
10.77,-0.112,1.136,-0.114
10.78,-0.198,0.844,0.117
10.79,-0.071,1.009,0.176
10.8,-0.318,0.742,-0.113
10.81,-0.414,1.142,-0.191
10.82,-0.074,0.922,0.12
10.83,-0.134,1.183,0.121
10.84,-0.171,0.688,0.062
10.85,-0.344,1.081,-0.187
10.86,-0.072,1.165,-0.112
10.87,-0.146,0.778,0.128
10.88,-0.113,1.072,0.161
10.89,-0.33,0.725,-0.154
10.9,-0.344,1.181,-0.104
10.91,-0.034,0.989,0.063
10.92,-0.229,0.95,0.144
10.93,-0.194,0.805,0.053
10.94,-0.338,1.071,-0.173
10.95,-0.199,1.166,-0.04
10.96,-0.125,0.713,0.163
10.97,-0.092,1.092,0.117
10.98,-0.417,0.749,-0.177
10.99,-0.233,1.132,-0.128
11.0,-0.034,1.047,0.071
11.01,-0.201,0.823,0.105
11.02,-0.224,0.905,0.029
11.03,-0.312,1.048,-0.167
11.04,-0.212,1.131,-0.051
11.05,-0.033,0.654,0.161
11.06,-0.091,1.121,0.077
11.07,-0.43,0.804,-0.202
11.08,-0.265,1.115,-0.067
11.09,0.003,1.077,0.043
11.1,-0.208,0.719,0.124
11.11,-0.215,1.02,0.021
11.12,-0.252,0.969,-0.214
11.13,-0.219,1.167,0.0
11.14,0.006,0.777,0.128
11.15,-0.088,1.032,0.031
11.16,-0.404,0.889,-0.154
11.17,-0.135,1.24,-0.097
11.18,-0.135,0.792,0.034
11.19,-0.172,0.923,0.187
11.2,-0.305,1.015,-0.085
11.21,-0.336,0.873,-0.136
11.22,-0.081,1.241,0.066
11.23,-0.075,0.666,0.111
11.24,-0.297,1.043,0.064
11.25,-0.358,0.963,-0.159
11.26,-0.108,1.089,-0.055
11.27,-0.19,0.874,0.107
11.28,-0.076,0.817,0.158
11.29,-0.322,1.082,-0.2
11.3,-0.309,0.871,-0.054
11.31,-0.057,1.275,0.04
11.32,-0.086,0.594,0.115
11.33,-0.298,1.063,0.036
11.34,-0.305,1.033,-0.181
11.35,-0.139,1.021,-0.025
11.36,-0.181,0.901,0.141
11.37,-0.006,0.78,0.099
11.38,-0.472,1.154,-0.211
11.39,-0.249,0.793,-0.053
11.4,-0.072,1.305,0.101
11.41,-0.166,0.633,0.142
11.42,-0.325,1.031,0.018
11.43,-0.248,1.035,-0.234
11.44,-0.139,0.959,0.026
11.45,-0.142,1.077,0.171
11.46,-0.029,0.681,0.058
11.47,-0.453,1.201,-0.205
11.48,-0.156,0.906,-0.002
11.49,-0.14,1.204,0.027
11.5,-0.139,0.687,0.153
11.51,-0.326,1.003,-0.048
11.52,-0.28,1.07,-0.26
11.53,-0.097,0.859,0.051
11.54,-0.087,1.195,0.174
11.55,-0.155,0.604,0.056
11.56,-0.538,1.193,-0.169
11.57,0.01,0.94,-0.054
11.58,-0.209,1.088,0.052
11.59,-0.072,0.773,0.195
11.6,-0.357,0.917,-0.13
11.61,-0.326,1.14,-0.149
11.62,-0.044,0.93,0.084
11.63,-0.105,1.051,0.134
11.64,-0.211,0.658,0.01
11.65,-0.398,1.294,-0.195
11.66,-0.077,0.889,-0.033
11.67,-0.189,1.017,0.132
11.68,-0.059,0.87,0.111
11.69,-0.433,0.842,-0.172
11.7,-0.193,1.186,-0.114
11.71,-0.063,0.93,0.077
11.72,-0.196,0.991,0.139
11.73,-0.222,0.699,-0.031
11.74,-0.374,1.229,-0.181
11.75,-0.074,0.945,-0.004
11.76,-0.186,0.983,0.165
11.77,-0.169,0.928,0.087
11.78,-0.375,0.824,-0.154
11.79,-0.227,1.281,-0.065
11.8,-0.044,0.764,0.106
11.81,-0.166,1.007,0.148
11.82,-0.283,0.829,-0.04
11.83,-0.356,1.096,-0.161
11.84,-0.054,1.02,0.035
11.85,-0.087,0.904,0.165
11.86,-0.232,0.953,0.032
11.87,-0.357,0.846,-0.173
11.88,-0.156,1.301,-0.065
11.89,-0.112,0.715,0.139
11.9,-0.192,0.994,0.177
11.91,-0.333,0.911,-0.144
11.92,-0.228,1.002,-0.154
11.93,-0.087,1.201,0.092
11.94,-0.124,0.679,0.13
11.95,-0.322,1.059,0.058
11.96,-0.333,0.93,-0.168
11.97,-0.187,1.126,-0.051
11.98,-0.184,0.737,0.191
11.99,-0.119,1.081,0.063
12.0,-0.494,0.802,-0.212
12.01,-0.086,1.107,-0.074
12.02,-0.124,1.031,0.078
12.03,-0.173,0.68,0.154
12.04,-0.297,1.079,-0.041
12.05,-0.267,0.907,-0.195
12.06,-0.142,1.199,0.019
12.07,-0.013,0.746,0.141
12.08,-0.137,0.942,0.019
12.09,-0.448,0.984,-0.134
12.1,-0.127,1.097,-0.072
12.11,-0.132,0.966,0.082
12.12,-0.106,0.753,0.199
12.13,-0.384,1.114,-0.108
12.14,-0.248,0.811,-0.167
12.15,-0.083,1.297,0.061
12.16,-0.099,0.695,0.074
12.17,-0.217,0.95,0.023
12.18,-0.369,1.102,-0.191
12.19,-0.078,0.944,-0.054
12.2,-0.235,1.041,0.151
12.21,-0.115,0.692,0.149
12.22,-0.401,1.177,-0.197
12.23,-0.226,0.831,-0.072
12.24,-0.082,1.28,0.138
12.25,-0.093,0.726,0.109
12.26,-0.351,0.876,0.048
12.27,-0.256,1.148,-0.215
12.28,-0.104,0.916,0.048
12.29,-0.349,1.112,0.176
12.3,-0.038,0.666,0.087
12.31,-0.489,1.225,-0.228
12.32,-0.158,0.897,-0.055
12.33,-0.089,1.127,0.071
12.34,-0.118,0.809,0.156
12.35,-0.33,0.864,-0.041
12.36,-0.288,1.161,-0.211
12.37,-0.1,0.863,0.103
12.38,-0.204,1.138,0.123
12.39,-0.098,0.614,0.003
12.4,-0.456,1.277,-0.188
12.41,-0.132,0.924,-0.045
12.42,-0.125,0.977,0.085
12.43,-0.097,0.934,0.152
12.44,-0.382,0.797,-0.137
12.45,-0.251,1.201,-0.159
12.46,-0.021,0.889,0.12
12.47,-0.184,1.071,0.115
12.48,-0.2,0.698,0.049
12.49,-0.404,1.268,-0.241
12.5,-0.095,0.94,-0.055
12.51,-0.153,0.938,0.209
12.52,-0.184,0.954,0.103
12.53,-0.375,0.775,-0.204
12.54,-0.124,1.302,-0.115
12.55,-0.064,0.81,0.083
12.56,-0.197,0.998,0.163
12.57,-0.23,0.806,-0.035
12.58,-0.405,1.107,-0.207
12.59,-0.079,1.062,0.08
12.6,-0.166,0.876,0.107
12.61,-0.182,0.969,0.033
12.62,-0.281,0.868,-0.179
12.63,-0.193,1.274,-0.123
12.64,-0.01,0.687,0.1
12.65,-0.104,1.031,0.16
12.66,-0.399,0.869,-0.119
12.67,-0.26,0.913,-0.155
12.68,-0.018,1.235,0.058
12.69,-0.181,0.687,0.133
12.7,-0.204,1.053,0.035
12.71,-0.437,0.909,-0.19
12.72,-0.152,1.154,-0.022
12.73,-0.072,0.804,0.119
12.74,-0.169,0.926,0.146
12.75,-0.394,0.936,-0.17
12.76,-0.187,0.955,-0.082
12.77,-0.093,1.231,0.093
12.78,-0.101,0.634,0.122
12.79,-0.346,1.101,-0.004
12.8,-0.337,0.905,-0.203
12.81,-0.119,1.228,0.042
12.82,-0.136,0.781,0.141
12.83,-0.124,0.956,0.006
12.84,-0.408,0.986,-0.207
12.85,-0.057,1.042,-0.048
12.86,-0.155,1.025,0.098
12.87,-0.219,0.7,0.165
12.88,-0.321,1.147,-0.117
12.89,-0.308,0.827,-0.174
12.9,-0.07,1.256,0.095
12.91,-0.108,0.721,0.115
12.92,-0.299,0.939,0.05
12.93,-0.387,1.104,-0.168
12.94,-0.042,0.911,-0.07
12.95,-0.209,1.074,0.182
12.96,-0.073,0.67,0.093
12.97,-0.431,1.219,-0.201
12.98,-0.175,0.908,-0.073
12.99,-0.139,1.193,0.075
13.0,-0.167,0.747,0.13
13.01,-0.176,0.918,-0.02
13.02,-0.428,1.156,-0.18
13.03,-0.028,0.856,0.018
13.04,-0.138,1.193,0.136
13.05,-0.1,0.64,0.085
13.06,-0.422,1.264,-0.204
13.07,-0.163,0.912,-0.082
13.08,-0.118,1.041,0.1
13.09,-0.142,0.867,0.153
13.1,-0.342,0.865,-0.085
13.11,-0.321,1.12,-0.167
13.12,-0.065,0.904,0.134
13.13,-0.196,1.151,0.144
13.14,-0.124,0.61,0.038
13.15,-0.423,1.254,-0.21
13.16,-0.088,0.978,-0.063
13.17,-0.183,0.904,0.126
13.18,-0.178,0.933,0.161
13.19,-0.349,0.821,-0.153
13.2,-0.31,1.23,-0.083
13.21,-0.059,0.909,0.121
13.22,-0.163,1.015,0.135
13.23,-0.175,0.721,0.017
13.24,-0.405,1.23,-0.173
13.25,-0.065,0.986,-0.03
13.26,-0.134,0.886,0.138
13.27,-0.238,0.971,0.141
13.28,-0.38,0.768,-0.172
13.29,-0.208,1.271,-0.098
13.3,-0.03,0.827,0.093
13.31,-0.113,0.944,0.149
13.32,-0.331,0.837,0.028
13.33,-0.359,1.104,-0.188
13.34,-0.059,1.024,-0.022
13.35,-0.039,0.852,0.171
13.36,-0.259,1.049,0.017
13.37,-0.445,0.78,-0.153
13.38,-0.16,1.295,-0.051
13.39,-0.043,0.776,0.051
13.4,-0.134,0.934,0.175
13.41,-0.355,0.926,-0.14
13.42,-0.189,0.993,-0.172
13.43,-0.024,1.203,0.073
13.44,-0.138,0.627,0.123
13.45,-0.257,1.117,0.024
13.46,-0.31,0.877,-0.213
13.47,-0.164,1.171,-0.018
13.48,-0.122,0.827,0.153
13.49,-0.11,0.874,0.062
13.5,-0.352,1.074,-0.172
13.51,-0.187,0.954,-0.08
13.52,-0.127,1.109,0.09
13.53,-0.094,0.637,0.138
13.54,-0.396,1.142,-0.049
13.55,-0.226,0.818,-0.221
13.56,-0.132,1.158,0.065
13.57,-0.104,0.897,0.167
13.58,-0.067,0.789,0.02
13.59,-0.491,1.204,-0.174
13.6,-0.113,0.871,-0.048
13.61,-0.164,1.138,0.087
13.62,-0.184,0.664,0.165
13.63,-0.384,1.14,-0.19
13.64,-0.235,0.856,-0.08
13.65,-0.102,1.253,0.101
13.66,-0.077,0.689,0.111
13.67,-0.281,0.915,-0.001
13.68,-0.359,1.093,-0.21
13.69,-0.059,0.872,0.007
13.7,-0.241,1.128,0.171
13.71,-0.115,0.675,0.123
13.72,-0.434,1.245,-0.204
13.73,-0.242,0.903,-0.056
13.74,-0.029,1.093,0.075
13.75,-0.167,0.773,0.153
13.76,-0.329,0.905,-0.03
13.77,-0.286,1.088,-0.213
13.78,-0.077,0.884,0.066
13.79,-0.117,1.178,0.112
13.8,-0.123,0.588,-0.015
13.81,-0.501,1.262,-0.113
13.82,-0.109,0.959,-0.031
13.83,-0.135,1.025,0.115
13.84,-0.081,0.896,0.142
13.85,-0.38,0.814,-0.149
13.86,-0.292,1.233,-0.056
13.87,-0.016,0.912,0.082
13.88,-0.175,1.023,0.089
13.89,-0.178,0.707,0.003
13.9,-0.408,1.27,-0.216
13.91,-0.076,0.91,0.0
13.92,-0.154,0.954,0.221
13.93,-0.198,0.93,0.095
13.94,-0.362,0.836,-0.192
13.95,-0.16,1.307,-0.072
13.96,-0.089,0.711,0.082
13.97,-0.142,1.031,0.132
13.98,-0.216,0.798,-0.075
13.99,-0.348,1.102,-0.164
14.0,-0.11,1.079,0.1
14.01,-0.137,0.867,0.099
14.02,-0.09,0.969,0.013
14.03,-0.429,0.935,-0.168
14.04,-0.189,1.26,-0.059
14.05,-0.075,0.719,0.115
14.06,-0.188,0.986,0.209
14.07,-0.334,0.889,-0.145
14.08,-0.236,1.015,-0.139
14.09,-0.018,1.098,0.101
14.1,-0.159,0.705,0.159
14.11,-0.253,1.028,-0.002
14.12,-0.337,0.93,-0.153
14.13,-0.211,1.23,0.035
14.14,-0.229,0.787,0.139
14.15,-0.074,0.943,0.059
14.16,-0.359,0.954,-0.253
14.17,-0.19,0.976,-0.014
14.18,-0.121,1.187,0.088
14.19,-0.082,0.605,0.088
14.2,-0.29,1.15,-0.054
14.21,-0.288,0.841,-0.235
14.22,-0.123,1.151,0.043
14.23,-0.12,0.875,0.137
14.24,-0.164,0.806,0.028
14.25,-0.371,1.156,-0.203
14.26,-0.142,0.963,-0.036
14.27,-0.223,1.077,0.118
14.28,-0.073,0.664,0.175
14.29,-0.401,1.142,-0.151
14.3,-0.267,0.823,-0.142
14.31,-0.026,1.227,0.093
14.32,-0.18,0.877,0.124
14.33,-0.191,0.722,0.07
14.34,-0.323,1.289,-0.212
14.35,-0.103,0.879,-0.015
14.36,-0.236,1.171,0.115
14.37,-0.041,0.71,0.15
14.38,-0.46,1.1,-0.162
14.39,-0.264,0.941,-0.113
14.4,-0.031,1.144,0.098
14.41,-0.2,0.875,0.097
14.42,-0.248,0.717,0.031
14.43,-0.313,1.298,-0.226
14.44,-0.119,0.891,0.028
14.45,-0.215,1.131,0.192
14.46,-0.051,0.661,0.025
14.47,-0.519,1.225,-0.224
14.48,-0.069,0.899,-0.051
14.49,-0.069,1.081,0.062
14.5,-0.223,0.81,0.155
14.51,-0.212,0.89,-0.065
14.52,-0.309,1.181,-0.215
14.53,-0.101,0.863,0.151
14.54,-0.059,1.109,0.125
14.55,-0.219,0.648,-0.017
14.56,-0.498,1.244,-0.145
14.57,-0.013,0.96,-0.073
14.58,-0.183,1.008,0.122
14.59,-0.172,0.909,0.206
14.6,-0.298,0.824,-0.183
14.61,-0.319,1.202,-0.138
14.62,-0.005,0.846,0.107
14.63,-0.176,1.031,0.135
14.64,-0.28,0.656,0.004
14.65,-0.241,1.273,-0.205
14.66,-0.075,0.981,-0.052
14.67,-0.245,0.854,0.199
14.68,-0.053,0.974,0.119
14.69,-0.451,0.834,-0.232
14.7,-0.223,1.213,-0.031
14.71,0.018,0.84,0.064
14.72,-0.177,1.021,0.105
14.73,-0.277,0.747,-0.01
14.74,-0.256,1.121,-0.206
14.75,-0.079,1.086,-0.019
14.76,-0.119,0.801,0.141
14.77,-0.17,0.99,0.042
14.78,-0.445,0.856,-0.187
14.79,-0.189,1.281,-0.02
14.8,-0.055,0.74,0.063
14.81,-0.23,0.961,0.172
14.82,-0.234,0.864,-0.119
14.83,-0.28,1.037,-0.134
14.84,-0.139,1.11,0.09
14.85,-0.016,0.729,0.137
14.86,-0.271,1.025,0.013
14.87,-0.354,0.89,-0.168
14.88,-0.124,1.255,-0.004
14.89,-0.158,0.777,0.136
14.9,-0.136,0.944,0.14
14.91,-0.318,1.023,-0.2
14.92,-0.279,0.937,-0.086
14.93,-0.079,1.201,0.107
14.94,-0.078,0.655,0.118
14.95,-0.334,1.092,0.012
14.96,-0.344,0.872,-0.218
14.97,-0.098,1.142,0.008
14.98,-0.062,0.906,0.096
14.99,-0.157,0.785,0.041
15.0,-0.369,1.084,-0.165
15.01,-0.102,0.96,-0.074
15.02,-0.125,1.141,0.098
15.03,-0.162,0.677,0.161
15.04,-0.267,1.14,-0.134
15.05,-0.248,0.9,-0.163
15.06,-0.138,1.131,0.148
15.07,-0.145,0.909,0.125
15.08,-0.196,0.772,0.031
15.09,-0.43,1.261,-0.155
15.1,-0.13,0.833,-0.015
15.11,-0.206,1.165,0.149
15.12,-0.118,0.71,0.164
15.13,-0.417,1.065,-0.161
15.14,-0.24,0.93,-0.13
15.15,-0.001,1.079,0.08
15.16,-0.176,0.919,0.101
15.17,-0.237,0.717,0.045
15.18,-0.411,1.343,-0.245
15.19,-0.102,0.772,-0.006
15.2,-0.226,1.203,0.164
15.21,-0.038,0.678,0.059
15.22,-0.433,1.057,-0.195
15.23,-0.146,1.049,-0.072
15.24,-0.072,0.92,0.098
15.25,-0.167,0.975,0.129
15.26,-0.255,0.857,-0.127
15.27,-0.365,1.124,-0.19
15.28,-0.156,0.886,0.15
15.29,-0.14,1.173,0.134
15.3,-0.192,0.593,0.027
15.31,-0.383,1.272,-0.179
15.32,-0.088,0.94,-0.063
15.33,-0.223,0.942,0.156
15.34,-0.035,0.976,0.113
15.35,-0.43,0.756,-0.156
15.36,-0.309,1.188,-0.099
15.37,0.071,0.957,0.029
15.38,-0.289,0.996,0.157
15.39,-0.207,0.699,0.063
15.4,-0.336,1.254,-0.256
15.41,-0.114,0.948,-0.039
15.42,-0.154,0.876,0.233
15.43,-0.147,0.989,0.087
15.44,-0.448,0.799,-0.173
15.45,-0.23,1.273,-0.048
15.46,-0.09,0.821,0.066
15.47,-0.166,0.929,0.119
15.48,-0.231,0.87,-0.044
15.49,-0.409,1.095,-0.225
15.5,-0.147,0.995,0.036
15.51,-0.066,0.922,0.128
15.52,-0.216,0.974,0.061
15.53,-0.364,0.827,-0.176
15.54,-0.107,1.323,-0.086
15.55,-0.11,0.713,0.063
15.56,-0.162,0.962,0.239
15.57,-0.335,0.947,-0.119
15.58,-0.245,0.908,-0.198
15.59,-0.037,1.181,0.104
15.6,-0.178,0.725,0.171
15.61,-0.263,1.053,0.06
15.62,-0.344,0.928,-0.177
15.63,-0.201,1.167,-0.041
15.64,-0.155,0.811,0.12
15.65,-0.083,0.914,0.125
15.66,-0.398,0.998,-0.16
15.67,-0.253,0.888,-0.101
15.68,-0.01,1.259,0.019
15.69,-0.131,0.58,0.133
15.7,-0.265,1.089,0.023
15.71,-0.312,0.958,-0.209
15.72,-0.179,1.066,-0.01
15.73,-0.193,0.894,0.157
15.74,-0.119,0.806,0.11
15.75,-0.455,1.1,-0.206
15.76,-0.133,0.917,-0.029
15.77,-0.153,1.212,0.079
15.78,-0.106,0.594,0.169
15.79,-0.296,1.099,0.018
15.8,-0.267,0.926,-0.242
15.81,-0.135,1.062,0.053
15.82,-0.157,1.01,0.169
15.83,-0.135,0.706,0.07
15.84,-0.391,1.242,-0.197
15.85,-0.132,0.902,-0.059
15.86,-0.15,1.178,0.091
15.87,-0.136,0.712,0.166
15.88,-0.406,1.04,-0.095
15.89,-0.211,0.936,-0.151
15.9,-0.106,1.127,0.099
15.91,-0.187,0.97,0.123
15.92,-0.101,0.669,0.015
15.93,-0.469,1.331,-0.176
15.94,-0.136,0.81,-0.076
15.95,-0.129,1.121,0.106
15.96,-0.166,0.751,0.161
15.97,-0.426,0.996,-0.136
15.98,-0.257,1.014,-0.141
15.99,-0.067,1.024,0.088
16.0,-0.101,0.955,0.125
16.01,-0.245,0.641,0.023
16.02,-0.338,1.345,-0.205
16.03,-0.057,0.819,-0.034
16.04,-0.182,1.097,0.16
16.05,-0.174,0.791,0.139
16.06,-0.407,0.979,-0.223
16.07,-0.173,1.163,-0.084
16.08,-0.159,1.0,0.116
16.09,-0.179,0.914,0.16
16.1,-0.232,0.758,-0.066
16.11,-0.349,1.266,-0.162
16.12,-0.086,0.839,0.055
16.13,-0.123,1.121,0.114
16.14,-0.107,0.666,0.012
16.15,-0.51,1.201,-0.164
16.16,-0.121,1.06,-0.017
16.17,-0.164,0.877,0.081
16.18,-0.231,0.988,0.176
16.19,-0.243,0.764,-0.137
16.2,-0.29,1.235,-0.16
16.21,-0.128,0.89,0.139
16.22,-0.147,0.982,0.112
16.23,-0.246,0.738,0.004
16.24,-0.402,1.119,-0.13
16.25,-0.115,1.134,-0.01
16.26,-0.221,0.792,0.137
16.27,-0.117,1.061,0.163
16.28,-0.358,0.798,-0.235
16.29,-0.292,1.236,-0.072
16.3,0.036,0.928,0.066
16.31,-0.119,0.861,0.119
16.32,-0.326,0.935,0.018
16.33,-0.279,1.057,-0.259
16.34,-0.184,1.074,-0.012
16.35,-0.137,0.797,0.22
16.36,-0.173,1.052,0.049
16.37,-0.43,0.807,-0.195
16.38,-0.09,1.229,-0.089
16.39,-0.077,0.889,0.05
16.4,-0.172,0.818,0.198
16.41,-0.231,1.065,-0.105
16.42,-0.323,0.873,-0.198
16.43,-0.149,1.206,0.123
16.44,-0.077,0.721,0.134
16.45,-0.262,1.002,0.006
16.46,-0.413,0.932,-0.136
16.47,-0.154,1.146,-0.011
16.48,-0.225,0.885,0.102
16.49,-0.06,0.818,0.206
16.5,-0.35,1.136,-0.189
16.51,-0.306,0.77,-0.127
16.52,-0.004,1.33,0.058
16.53,-0.08,0.67,0.107
16.54,-0.387,1.014,0.06
16.55,-0.336,0.982,-0.193
16.56,-0.086,1.02,-0.014
16.57,-0.26,0.998,0.177
16.58,-0.024,0.716,0.103
16.59,-0.428,1.177,-0.204
16.6,-0.204,0.84,-0.007
16.61,-0.053,1.27,0.092
16.62,-0.139,0.658,0.121
16.63,-0.308,1.026,0.005
16.64,-0.32,1.059,-0.227
16.65,-0.199,0.921,-0.019
16.66,-0.09,1.098,0.18
16.67,-0.084,0.69,0.012
16.68,-0.513,1.255,-0.214
16.69,-0.031,0.867,-0.037
16.7,-0.193,1.125,0.078
16.71,-0.167,0.701,0.17
16.72,-0.256,1.021,-0.134
16.73,-0.305,1.051,-0.197
16.74,-0.073,0.947,0.125
16.75,-0.099,1.114,0.108
16.76,-0.227,0.622,-0.013
16.77,-0.47,1.333,-0.118
16.78,-0.046,0.845,-0.055
16.79,-0.274,1.05,0.146
16.8,-0.1,0.843,0.162
16.81,-0.381,0.887,-0.216
16.82,-0.275,1.166,-0.045
16.83,-0.004,0.937,0.093
16.84,-0.183,1.011,0.137
16.85,-0.25,0.698,-0.017
16.86,-0.368,1.321,-0.194
16.87,-0.105,0.876,0.006
16.88,-0.178,1.042,0.17
16.89,-0.054,0.874,0.046
16.9,-0.439,1.113,-0.176
16.91,-0.122,1.097,-0.051
16.92,-0.097,0.826,0.105
16.93,-0.182,0.98,0.153
16.94,-0.255,0.769,-0.162
16.95,-0.328,1.23,-0.151
16.96,-0.154,0.896,0.113
16.97,-0.142,1.015,0.128
16.98,-0.177,0.749,0.004
16.99,-0.385,1.116,-0.177
17.0,-0.071,1.111,-0.036
17.01,-0.234,0.766,0.146
17.02,-0.069,1.031,0.121
17.03,-0.347,0.823,-0.189
17.04,-0.305,1.219,-0.057
17.05,-0.07,0.939,0.11
17.06,-0.139,0.841,0.112
17.07,-0.287,0.935,0.028
17.08,-0.255,1.036,-0.216
17.09,-0.182,1.151,0.053
17.1,-0.185,0.76,0.215
17.11,-0.155,1.05,0.06
17.12,-0.436,0.811,-0.237
17.13,-0.093,1.194,-0.067
17.14,-0.086,0.942,0.064
17.15,-0.247,0.812,0.178
17.16,-0.286,1.022,-0.077
17.17,-0.305,0.892,-0.174
17.18,-0.13,1.23,0.123
17.19,-0.074,0.708,0.129
17.2,-0.26,1.025,0.021
17.21,-0.403,0.94,-0.166
17.22,-0.098,1.113,-0.054
17.23,-0.132,0.902,0.101
17.24,-0.143,0.83,0.171
17.25,-0.382,1.091,-0.171
17.26,-0.262,0.828,-0.134
17.27,-0.025,1.326,0.095
17.28,-0.106,0.618,0.12
17.29,-0.295,1.003,0.02
17.3,-0.357,1.037,-0.21
17.31,-0.098,0.995,-0.008
17.32,-0.188,1.021,0.184
17.33,-0.106,0.709,0.092
17.34,-0.506,1.199,-0.23
17.35,-0.084,0.846,-0.068
17.36,-0.186,1.235,0.134
17.37,-0.155,0.65,0.147
17.38,-0.296,1.012,-0.074
17.39,-0.287,1.048,-0.209
17.4,-0.162,0.986,0.084
17.41,-0.187,1.093,0.156
17.42,-0.135,0.609,-0.002
17.43,-0.493,1.323,-0.155
17.44,-0.083,0.872,-0.031
17.45,-0.224,1.093,0.089
17.46,-0.026,0.761,0.169
17.47,-0.41,0.952,-0.16
17.48,-0.25,1.085,-0.167
17.49,-0.119,0.979,0.135
17.5,-0.183,1.026,0.091
17.51,-0.18,0.633,0.019
17.52,-0.381,1.376,-0.205
17.53,-0.147,0.793,0.003
17.54,-0.207,1.017,0.2
17.55,-0.056,0.863,0.077
17.56,-0.434,0.878,-0.206
17.57,-0.17,1.223,-0.04
17.58,-0.056,0.886,0.067
17.59,-0.222,0.993,0.119
17.6,-0.185,0.731,-0.001
17.61,-0.408,1.281,-0.202
17.62,-0.106,0.886,0.051
17.63,-0.088,1.025,0.131
17.64,-0.122,0.811,0.011
17.65,-0.454,0.904,-0.095
17.66,-0.118,1.336,-0.078
17.67,-0.141,0.684,0.083
17.68,-0.163,1.047,0.183
17.69,-0.292,0.813,-0.161
17.7,-0.384,1.104,-0.147
17.71,0.01,0.956,0.105
17.72,-0.162,0.906,0.099
17.73,-0.301,0.865,0.046
17.74,-0.24,1.065,-0.237
17.75,-0.145,1.102,-0.047
17.76,-0.405,1.015,-0.147
17.77,-0.033,0.993,0.121
17.78,-0.095,0.884,0.115
17.79,-0.267,0.886,0.033
17.8,-0.364,1.011,-0.163
17.81,-0.138,1.192,-0.016
17.82,-0.145,0.697,0.16
17.83,-0.146,1.077,0.119
17.84,-0.371,0.824,-0.221
17.85,-0.278,1.126,-0.054
17.86,-0.012,1.017,0.095
17.87,-0.157,0.728,0.134
17.88,-0.318,1.039,-0.008
17.89,-0.252,0.917,-0.216
17.9,-0.128,1.201,0.032
17.91,-0.121,0.719,0.148
17.92,-0.169,0.997,0.013
17.93,-0.364,0.925,-0.22
17.94,-0.065,1.107,-0.072
17.95,-0.097,0.963,0.087
17.96,-0.24,0.746,0.174
17.97,-0.296,1.148,-0.109
17.98,-0.274,0.829,-0.141
17.99,-0.144,1.238,0.127
18.0,-0.06,0.732,0.099
18.01,-0.253,0.958,-0.069
18.02,-0.405,1.037,-0.127
18.03,-0.129,1.019,-0.009
18.04,-0.234,0.962,0.152
18.05,-0.072,0.722,0.134
18.06,-0.438,1.231,-0.218
18.07,-0.191,0.855,-0.018
18.08,-0.091,1.222,0.1
18.09,-0.158,0.663,0.144
18.1,-0.228,0.997,-0.041
18.11,-0.338,1.099,-0.202
18.12,-0.144,0.876,0.04
18.13,-0.103,1.155,0.162
18.14,-0.175,0.621,0.072
18.15,-0.511,1.239,-0.16
18.16,-0.08,0.951,-0.074
18.17,-0.179,1.068,0.056
18.18,-0.068,0.809,0.176
18.19,-0.356,0.929,-0.147
18.2,-0.266,1.123,-0.161
18.21,-0.047,0.944,0.122
18.22,-0.169,1.061,0.113
18.23,-0.138,0.609,-0.025
18.24,-0.442,1.291,-0.184
18.25,-0.11,0.876,-0.01
18.26,-0.191,1.015,0.149
18.27,-0.092,0.9,0.129
18.28,-0.457,0.813,-0.212
18.29,-0.151,1.223,-0.053
18.3,-0.071,0.869,0.102
18.31,-0.211,0.969,0.124
18.32,-0.176,0.792,-0.043
18.33,-0.425,1.17,-0.22
18.34,-0.089,0.953,0.155
18.35,-0.144,0.996,0.188
18.36,-0.222,0.87,-0.007
18.37,-0.388,0.889,-0.128
18.38,-0.087,1.337,-0.095
18.39,-0.237,0.695,0.113
18.4,-0.112,1.041,0.179
18.41,-0.256,0.852,-0.218
18.42,-0.378,1.036,-0.12
18.43,0.023,1.108,0.049
18.44,-0.087,0.776,0.089
18.45,-0.312,1.015,0.079
18.46,-0.261,1.061,-0.216
18.47,-0.248,1.118,0.002
18.48,-0.137,0.731,0.214
18.49,-0.148,1.052,0.046
18.5,-0.397,0.802,-0.212
18.51,-0.119,1.206,-0.063
18.52,-0.143,0.929,0.13
18.53,-0.232,0.8,0.19
18.54,-0.238,1.067,-0.075
18.55,-0.282,0.891,-0.213
18.56,-0.14,1.235,0.067
18.57,-0.104,0.722,0.14
18.58,-0.255,0.996,0.052
18.59,-0.328,0.972,-0.197
18.6,-0.107,1.115,-0.07
18.61,-0.192,0.864,0.131
18.62,-0.102,0.809,0.189
18.63,-0.44,1.124,-0.172
18.64,-0.257,0.755,-0.09
18.65,0.019,1.348,0.048
18.66,-0.202,0.666,0.144
18.67,-0.203,1.011,0.043
18.68,-0.376,1.045,-0.242
18.69,-0.096,0.958,-0.014
18.7,-0.187,1.04,0.135
18.71,-0.111,0.685,0.089
18.72,-0.494,1.193,-0.174
18.73,-0.116,0.854,-0.052
18.74,-0.112,1.233,0.096
18.75,-0.188,0.648,0.158
18.76,-0.207,1.011,-0.06
18.77,-0.338,1.08,-0.206
18.78,-0.194,0.909,0.094
18.79,-0.138,1.136,0.14
18.8,-0.137,0.59,-0.001
18.81,-0.441,1.293,-0.154
18.82,0.008,0.899,-0.059
18.83,-0.26,1.051,0.075
18.84,0.01,0.783,0.189
18.85,-0.401,0.939,-0.159
18.86,-0.342,1.033,-0.177
18.87,-0.019,0.955,0.092
18.88,-0.168,1.048,0.075
18.89,-0.188,0.659,0.045
18.9,-0.377,1.374,-0.22
18.91,-0.101,0.823,-0.023
18.92,-0.144,1.06,0.158
18.93,-0.006,0.897,0.067
18.94,-0.483,0.866,-0.163
18.95,-0.25,1.2,-0.03
18.96,-0.083,0.904,0.085
18.97,-0.321,0.996,0.126
18.98,-0.151,0.732,-0.021
18.99,-0.412,1.275,-0.206
19.0,-0.16,0.884,0.042
19.01,0.052,1.009,0.14
19.02,-0.135,0.869,0.003
19.03,-0.436,0.875,-0.119
19.04,-0.064,1.302,-0.081
19.05,-0.213,0.708,0.08
19.06,-0.187,1.046,0.193
19.07,-0.236,0.806,-0.118
19.08,-0.419,1.144,-0.146
19.09,0.005,1.03,0.083
19.1,-0.132,0.803,0.107
19.11,-0.244,0.952,-0.002
19.12,-0.304,0.944,-0.16
19.13,-0.144,1.191,-0.065
19.14,-0.143,0.709,0.127
19.15,-0.051,1.031,0.067
19.16,-0.388,0.836,-0.201
19.17,-0.231,1.079,-0.072
19.18,-0.053,1.072,0.088
19.19,-0.202,0.657,0.127
19.2,-0.199,1.117,0.017
19.21,-0.303,0.914,-0.242
19.22,-0.208,1.156,0.034
19.23,0.028,0.823,0.149
19.24,-0.201,0.924,0.031
19.25,-0.458,1.0,-0.137
19.26,-0.09,1.013,-0.099
19.27,-0.216,1.034,0.086
19.28,-0.098,0.82,0.209
19.29,-0.401,1.129,-0.146
19.3,-0.258,0.746,-0.135
19.31,-0.078,1.292,0.078
19.32,-0.079,0.674,0.105
19.33,-0.261,0.986,-0.038
19.34,-0.262,1.004,-0.165
19.35,-0.199,1.06,0.043
19.36,-0.234,0.938,0.171
19.37,0.021,0.739,0.07
19.38,-0.537,1.201,-0.204
19.39,-0.146,0.809,0.009
19.4,-0.023,1.289,0.04
19.41,-0.183,0.605,0.124
19.42,-0.217,1.002,-0.002
19.43,-0.295,1.07,-0.243
19.44,-0.186,0.926,0.074
19.45,-0.066,1.095,0.159
19.46,-0.167,0.623,0.019
19.47,-0.52,1.268,-0.122
19.48,-0.062,0.914,-0.054
19.49,-0.202,1.115,0.061
19.5,-0.048,0.749,0.201
19.51,-0.389,0.966,-0.126
19.52,-0.305,1.034,-0.165
19.53,0.047,1.02,0.036
19.54,-0.134,1.053,0.133
19.55,-0.212,0.611,0.033
19.56,-0.44,1.351,-0.193
19.57,-0.059,0.857,-0.011
19.58,-0.307,1.125,0.231
19.59,-0.096,0.832,0.117
19.6,-0.429,0.893,-0.214
19.61,-0.243,1.144,-0.048
19.62,-0.006,0.924,0.089
19.63,-0.258,1.008,0.126
19.64,-0.214,0.688,0.019
19.65,-0.345,1.296,-0.214
19.66,-0.156,0.93,0.02
19.67,-0.118,1.035,0.172
19.68,-0.091,0.857,-0.0
19.69,-0.454,0.874,-0.157
19.7,-0.066,1.297,-0.015
19.71,-0.116,0.78,0.09
19.72,-0.259,0.982,0.203
19.73,-0.174,0.789,-0.106
19.74,-0.348,1.165,-0.179
19.75,-0.12,0.971,0.115
19.76,-0.101,0.912,0.139
19.77,-0.251,0.878,-0.005
19.78,-0.362,0.977,-0.131
19.79,-0.132,1.272,-0.022
19.8,-0.209,0.694,0.143
19.81,-0.008,1.04,0.181
19.82,-0.411,0.881,-0.181
19.83,-0.285,1.085,-0.098
19.84,-0.036,1.124,0.091
19.85,-0.187,0.694,0.092
19.86,-0.249,1.054,0.027
19.87,-0.282,0.965,-0.218
19.88,-0.202,1.184,0.01
19.89,-0.112,0.759,0.195
19.9,-0.107,0.984,0.091
19.91,-0.442,0.941,-0.21
19.92,-0.098,1.021,-0.097
19.93,-0.134,1.062,0.052
19.94,-0.22,0.684,0.212
19.95,-0.338,1.165,-0.064
19.96,-0.241,0.803,-0.224
19.97,-0.201,1.236,0.149
19.98,-0.006,0.812,0.119
19.99,-0.21,0.91,0.016
20.0,-0.476,1.064,-0.16
20.01,-0.098,0.938,-0.045
20.02,-0.245,1.08,0.085
20.03,-0.075,0.659,0.176
20.04,-0.414,1.176,-0.143
20.05,-0.261,0.834,-0.1
20.06,-0.062,1.241,0.098
20.07,-0.125,0.757,0.12
20.08,-0.293,0.813,0.035
20.09,-0.32,1.223,-0.228
20.1,-0.13,0.95,-0.008
20.11,-0.135,1.077,0.154
20.12,-0.13,0.71,0.072
20.13,-0.511,1.204,-0.192
20.14,-0.019,0.93,-0.046
20.15,-0.221,1.229,0.135
20.16,-0.152,0.65,0.182
20.17,-0.256,1.056,-0.112
20.18,-0.29,1.042,-0.252
20.19,-0.11,0.961,0.135
20.2,-0.083,1.118,0.092
20.21,-0.175,0.609,0.024
20.22,-0.499,1.31,-0.132
20.23,-0.094,0.887,-0.059
20.24,-0.219,1.061,0.095
20.25,-0.074,0.815,0.159
20.26,-0.367,0.969,-0.182
20.27,-0.281,1.069,-0.129
20.28,0.023,0.971,0.068
20.29,-0.185,1.04,0.128
20.3,-0.273,0.614,0.058
20.31,-0.395,1.344,-0.23
20.32,-0.057,0.848,-0.093
20.33,-0.19,0.997,0.171
20.34,-0.119,0.831,0.118
20.35,-0.4,0.945,-0.226
20.36,-0.184,1.242,-0.083
20.37,-0.068,0.785,0.08
20.38,-0.171,1.005,0.117
20.39,-0.196,0.722,-0.07
20.4,-0.348,1.217,-0.209
20.41,-0.146,0.955,0.085
20.42,-0.187,0.982,0.151
20.43,-0.135,0.881,0.053
20.44,-0.408,0.893,-0.2
20.45,-0.131,1.269,-0.051
20.46,-0.064,0.745,0.054
20.47,-0.181,1.035,0.172
20.48,-0.256,0.802,-0.098
20.49,-0.265,1.128,-0.173
20.5,-0.12,1.085,0.095
20.51,-0.086,0.783,0.125
20.52,-0.281,0.964,0.043
20.53,-0.413,0.933,-0.137
20.54,-0.107,1.241,-0.056
20.55,-0.132,0.682,0.094
20.56,-0.117,1.051,0.133
20.57,-0.362,0.893,-0.189
20.58,-0.257,1.033,-0.081
20.59,-0.011,1.135,0.078
20.6,-0.133,0.695,0.107
20.61,-0.32,1.06,0.003
20.62,-0.316,0.909,-0.244
20.63,-0.144,1.191,-0.016
20.64,-0.045,0.788,0.135
20.65,-0.118,0.921,0.052
20.66,-0.413,1.039,-0.195
20.67,-0.056,0.985,-0.1
20.68,-0.174,1.116,0.123
20.69,-0.144,0.653,0.163
20.7,-0.271,1.18,-0.063
20.71,-0.398,0.808,-0.184
20.72,-0.209,1.187,0.161
20.73,-0.063,0.849,0.149
20.74,-0.252,0.812,0.008
20.75,-0.366,1.112,-0.175
20.76,-0.123,0.929,-0.055
20.77,-0.189,1.107,0.087
20.78,-0.025,0.691,0.168
20.79,-0.457,1.141,-0.151
20.8,-0.245,0.812,-0.14
20.81,-0.008,1.256,0.06
20.82,-0.193,0.848,0.117
20.83,-0.285,0.762,0.083
20.84,-0.348,1.229,-0.204
20.85,-0.095,0.809,0.004
20.86,-0.247,1.201,0.214
20.87,-0.11,0.671,0.119
20.88,-0.452,1.113,-0.21
20.89,-0.16,0.991,-0.03
20.9,-0.118,1.127,0.051
20.91,-0.112,0.724,0.155
20.92,-0.243,0.945,-0.07
20.93,-0.356,1.069,-0.231
20.94,-0.068,0.909,0.096
20.95,-0.14,1.158,0.125
20.96,-0.122,0.589,0.03
20.97,-0.438,1.239,-0.19
20.98,-0.025,0.97,-0.079
20.99,-0.166,1.042,0.088
21.0,-0.129,0.831,0.197
21.01,-0.297,0.883,-0.143
21.02,-0.257,1.148,-0.18
21.03,-0.051,0.944,0.111
21.04,-0.178,1.038,0.123
21.05,-0.265,0.646,0.05
21.06,-0.345,1.317,-0.208
21.07,-0.139,0.904,-0.045
21.08,-0.17,0.952,0.19
21.09,-0.066,0.954,0.125
21.1,-0.402,0.808,-0.2
21.11,-0.265,1.208,-0.043
21.12,-0.032,0.907,0.069
21.13,-0.178,0.97,0.1
21.14,-0.256,0.759,0.052
21.15,-0.384,1.25,-0.22
21.16,-0.138,0.893,-0.05
21.17,-0.077,0.943,0.187
21.18,-0.132,0.935,0.085
21.19,-0.444,0.801,-0.199
21.2,-0.1,1.33,-0.051
21.21,-0.097,0.771,0.076
21.22,-0.185,0.978,0.212
21.23,-0.192,0.842,-0.088
21.24,-0.525,1.049,-0.144
21.25,-0.069,1.01,0.077
21.26,-0.063,0.909,0.1
21.27,-0.264,0.948,0.018
21.28,-0.323,0.879,-0.181
21.29,-0.058,1.336,-0.118
21.3,-0.151,0.649,0.077
21.31,-0.042,0.945,0.161
21.32,-0.343,0.938,-0.152
21.33,-0.337,0.894,-0.141
21.34,-0.0,1.214,0.107
21.35,-0.152,0.738,0.118
21.36,-0.326,1.042,0.038
21.37,-0.31,0.94,-0.169
21.38,-0.2,1.131,-0.006
21.39,-0.183,0.768,0.205
21.4,-0.014,0.938,0.09
21.41,-0.405,0.995,-0.209
21.42,-0.223,0.936,0.003
21.43,-0.062,1.255,0.065
21.44,-0.175,0.625,0.112
21.45,-0.218,1.159,0.007
21.46,-0.374,0.894,-0.228
21.47,-0.205,1.101,0.081
21.48,-0.008,0.993,0.15
21.49,-0.14,0.739,0.018
21.5,-0.429,1.054,-0.133
21.51,-0.02,0.974,-0.076
21.52,-0.164,1.155,0.036
21.53,-0.118,0.636,0.245
21.54,-0.277,1.185,-0.101
21.55,-0.376,0.826,-0.189
21.56,-0.186,1.092,0.153
21.57,-0.011,0.993,0.121
21.58,-0.278,0.697,-0.021
21.59,-0.449,1.258,-0.09
21.6,-0.136,0.888,-0.053
21.61,-0.295,1.08,0.124
21.62,-0.012,0.734,0.198
21.63,-0.398,1.083,-0.167
21.64,-0.388,0.891,-0.119
21.65,0.06,1.089,0.007
21.66,-0.126,0.967,0.098
21.67,-0.26,0.703,0.075
21.68,-0.336,1.349,-0.245
21.69,-0.094,0.757,-0.056
21.7,-0.274,1.178,0.237
21.71,-0.031,0.764,0.12
21.72,-0.496,0.989,-0.259
21.73,-0.022,0.956,-0.049
21.74,-0.151,1.124,0.088
21.75,-0.294,0.825,0.199
21.76,-0.165,0.832,-0.055
21.77,-0.376,1.235,-0.221
21.78,-0.176,0.89,0.072
21.79,-0.046,1.195,0.076
21.8,-0.086,0.591,-0.013
21.81,-0.449,1.159,-0.1
21.82,-0.1,1.079,-0.088
21.83,-0.163,0.903,0.089
21.84,-0.144,0.972,0.201
21.85,-0.277,0.794,-0.153
21.86,-0.37,1.165,-0.135
21.87,-0.087,0.932,0.143
21.88,-0.126,1.141,0.141
21.89,-0.238,0.682,0.054
21.9,-0.405,1.175,-0.176
21.91,-0.082,1.031,-0.097
21.92,-0.251,0.817,0.13
21.93,-0.108,1.026,0.191
21.94,-0.323,0.776,-0.207
21.95,-0.291,1.162,-0.144
21.96,-0.046,0.944,0.119
21.97,-0.197,0.963,0.134
21.98,-0.204,0.774,0.001
21.99,-0.343,1.202,-0.161
22.0,-0.161,1.039,-0.018
22.01,-0.242,0.767,0.208
22.02,-0.112,1.056,0.121
22.03,-0.406,0.746,-0.233
22.04,-0.165,1.281,-0.008
22.05,-0.133,0.923,0.088
22.06,-0.241,0.834,0.148
22.07,-0.171,0.952,-0.002
22.08,-0.38,1.034,-0.226
22.09,-0.135,1.052,-0.02
22.1,-0.107,0.862,0.206
22.11,-0.152,1.018,0.054
22.12,-0.389,0.76,-0.157
22.13,-0.148,1.228,-0.031
22.14,-0.177,0.894,0.095
22.15,-0.233,0.79,0.156
22.16,-0.221,1.046,-0.059
22.17,-0.351,0.894,-0.201
22.18,-0.209,1.162,0.123
22.19,0.02,0.801,0.093
22.2,-0.218,0.977,-0.003
22.21,-0.386,0.916,-0.088
22.22,-0.114,1.184,-0.093
22.23,-0.175,0.865,0.053
22.24,-0.173,0.807,0.273
22.25,-0.378,1.13,-0.153
22.26,-0.383,0.761,-0.16
22.27,-0.085,1.246,0.092
22.28,-0.112,0.78,0.078
22.29,-0.282,0.941,0.047
22.3,-0.357,0.987,-0.168
22.31,-0.141,1.128,-0.07
22.32,-0.274,0.901,0.076
22.33,-0.022,0.743,0.17
22.34,-0.435,1.181,-0.213
22.35,-0.225,0.719,-0.164
22.36,0.064,1.348,0.048
22.37,-0.147,0.733,0.15
22.38,-0.292,0.94,0.106
22.39,-0.261,1.126,-0.222
22.4,-0.176,0.884,-0.032
22.41,-0.24,1.092,0.195
22.42,-0.031,0.741,0.076
22.43,-0.475,1.148,-0.223
22.44,-0.12,0.876,-0.031
22.45,-0.137,1.303,0.05
22.46,-0.109,0.65,0.086
22.47,-0.243,0.947,0.065
22.48,-0.327,1.196,-0.279
22.49,-0.188,0.829,0.035
22.5,-0.148,1.182,0.178
22.51,-0.183,0.62,0.123
22.52,-0.452,1.185,-0.183
22.53,-0.089,0.959,-0.067
22.54,-0.128,1.086,0.073
22.55,-0.091,0.662,0.183
22.56,-0.266,1.119,-0.114
22.57,-0.284,0.979,-0.206
22.58,-0.085,1.034,0.127
22.59,-0.167,1.087,0.131
22.6,-0.176,0.624,0.024
22.61,-0.503,1.354,-0.165
22.62,-0.15,0.844,-0.026
22.63,-0.177,1.101,0.091
22.64,-0.078,0.788,0.153
22.65,-0.426,0.969,-0.165
22.66,-0.252,1.051,-0.141
22.67,-0.041,1.0,0.057
22.68,-0.107,0.99,0.085
22.69,-0.245,0.7,0.054
22.7,-0.427,1.344,-0.216
22.71,-0.106,0.791,-0.012
22.72,-0.191,1.112,0.209
22.73,-0.165,0.806,0.147
22.74,-0.38,0.903,-0.239
22.75,-0.069,1.196,-0.062
22.76,-0.099,0.873,0.065
22.77,-0.183,0.979,0.136
22.78,-0.165,0.775,-0.035
22.79,-0.382,1.254,-0.216
22.8,-0.154,0.907,0.068
22.81,-0.128,1.034,0.147
22.82,-0.122,0.813,0.074
22.83,-0.479,0.935,-0.134
22.84,-0.158,1.288,-0.084
22.85,-0.089,0.762,0.063
22.86,-0.21,1.057,0.171
22.87,-0.19,0.739,-0.131
22.88,-0.329,1.156,-0.149
22.89,-0.157,1.057,0.144
22.9,-0.12,0.874,0.108
22.91,-0.23,0.909,0.06
22.92,-0.411,0.927,-0.138
22.93,-0.084,1.287,-0.129
22.94,-0.156,0.68,0.083
22.95,-0.097,1.054,0.192
22.96,-0.318,0.83,-0.139
22.97,-0.424,1.023,-0.064
22.98,0.047,1.127,0.016
22.99,-0.125,0.754,0.093
23.0,-0.341,1.035,0.081
23.01,-0.291,0.907,-0.257
23.02,-0.144,1.187,-0.062
23.03,-0.136,0.746,0.213
23.04,-0.06,0.98,0.063
23.05,-0.424,0.928,-0.2
23.06,-0.2,1.019,-0.057
23.07,-0.085,1.117,0.066
23.08,-0.218,0.667,0.124
23.09,-0.217,1.144,-0.056
23.1,-0.286,0.852,-0.206
23.11,-0.206,1.195,0.048
23.12,-0.045,0.884,0.121
23.13,-0.115,0.897,0.052
23.14,-0.509,1.021,-0.119
23.15,-0.052,0.969,-0.131
23.16,-0.17,1.104,0.076
23.17,-0.21,0.661,0.269
23.18,-0.306,1.182,-0.102
23.19,-0.307,0.757,-0.205
23.2,-0.137,1.202,0.115
23.21,-0.039,0.931,0.086
23.22,-0.13,0.78,-0.02
23.23,-0.437,1.182,-0.127
23.24,-0.114,0.927,-0.055
23.25,-0.296,1.08,0.097
23.26,-0.062,0.728,0.204
23.27,-0.43,1.1,-0.158
23.28,-0.329,0.783,-0.122
23.29,0.036,1.225,0.067
23.3,-0.163,0.87,0.131
23.31,-0.295,0.732,0.114
23.32,-0.314,1.304,-0.207
23.33,-0.067,0.82,-0.106
23.34,-0.315,1.175,0.185
23.35,-0.052,0.685,0.088
23.36,-0.479,1.164,-0.173
23.37,-0.219,0.922,-0.027
23.38,-0.041,1.163,0.062
23.39,-0.155,0.732,0.148
23.4,-0.209,0.921,-0.03
23.41,-0.36,1.138,-0.208
23.42,-0.134,0.822,0.068
23.43,-0.127,1.172,0.142
23.44,-0.128,0.642,0.061
23.45,-0.482,1.245,-0.196
23.46,-0.051,0.952,-0.084
23.47,-0.156,1.062,0.06
23.48,-0.155,0.825,0.203
23.49,-0.268,0.864,-0.111
23.5,-0.271,1.177,-0.194
23.51,-0.042,0.889,0.07
23.52,-0.06,1.124,0.094
23.53,-0.195,0.635,0.063
23.54,-0.506,1.251,-0.167
23.55,-0.066,0.981,-0.078
23.56,-0.248,0.963,0.118
23.57,-0.142,0.936,0.176
23.58,-0.289,0.834,-0.199
23.59,-0.3,1.163,-0.136
23.6,-0.081,0.914,0.13
23.61,-0.139,1.044,0.128
23.62,-0.234,0.704,0.022
23.63,-0.338,1.25,-0.176
23.64,-0.129,0.951,-0.023
23.65,-0.239,0.864,0.187
23.66,-0.125,1.0,0.115
23.67,-0.361,0.797,-0.224
23.68,-0.263,1.283,-0.038
23.69,-0.079,0.884,0.092
23.7,-0.166,0.917,0.12
23.71,-0.168,0.854,0.001
23.72,-0.351,1.118,-0.255
23.73,-0.112,1.021,0.015
23.74,-0.068,0.89,0.134
23.75,-0.18,0.973,0.086
23.76,-0.458,0.81,-0.097
23.77,-0.168,1.351,-0.051
23.78,-0.105,0.768,0.055
23.79,-0.225,0.921,0.174
23.8,-0.254,0.93,-0.08
23.81,-0.291,0.953,-0.201
23.82,-0.087,1.208,0.092
23.83,-0.101,0.7,0.124
23.84,-0.226,1.017,0.037
23.85,-0.372,0.902,-0.189
23.86,-0.184,1.203,-0.042
23.87,-0.197,0.78,0.144
23.88,-0.09,0.903,0.161
23.89,-0.385,0.996,-0.16
23.9,-0.268,0.857,-0.103
23.91,-0.075,1.303,0.071
23.92,-0.102,0.65,0.124
23.93,-0.259,1.072,0.039
23.94,-0.306,0.932,-0.218
23.95,-0.173,1.199,0.019
23.96,-0.157,0.777,0.192
23.97,-0.099,0.943,0.076
23.98,-0.414,0.968,-0.196
23.99,-0.212,0.984,-0.045
24.0,-0.126,1.133,0.023
24.01,-0.178,0.636,0.15
24.02,-0.262,1.173,-0.032
24.03,-0.376,0.864,-0.196
24.04,-0.138,1.152,0.056
24.05,-0.021,0.89,0.118
24.06,-0.149,0.831,0.035
24.07,-0.47,1.096,-0.154
24.08,-0.13,0.956,-0.071
24.09,-0.178,1.12,0.045
24.1,-0.119,0.705,0.181
24.11,-0.327,1.184,-0.15
24.12,-0.295,0.854,-0.144
24.13,-0.078,1.199,0.071
24.14,-0.126,0.824,0.156
24.15,-0.288,0.829,0.063
24.16,-0.36,1.228,-0.24
24.17,-0.103,0.813,-0.07
24.18,-0.125,1.081,0.184
24.19,-0.133,0.719,0.103
24.2,-0.401,1.165,-0.18
24.21,-0.182,0.894,-0.029
24.22,-0.181,1.227,0.059
24.23,-0.067,0.694,0.134
24.24,-0.245,0.969,-0.018
24.25,-0.411,1.077,-0.252
24.26,-0.075,0.84,0.016
24.27,-0.141,1.209,0.147
24.28,-0.106,0.638,0.098
24.29,-0.489,1.2,-0.189
24.3,-0.042,0.927,-0.067
24.31,-0.119,1.12,0.048
24.32,-0.112,0.767,0.205
24.33,-0.322,0.947,-0.092
24.34,-0.338,1.122,-0.202
24.35,-0.08,0.927,0.092
24.36,-0.19,1.133,0.109
24.37,-0.188,0.609,0.023
24.38,-0.339,1.321,-0.191
24.39,-0.169,0.905,-0.078
24.4,-0.116,0.949,0.085
24.41,-0.073,0.929,0.199
24.42,-0.465,0.813,-0.143
24.43,-0.223,1.147,-0.134
24.44,-0.009,0.974,0.023
24.45,-0.198,0.999,0.101
24.46,-0.158,0.719,0.087
24.47,-0.376,1.292,-0.282
24.48,-0.117,0.874,-0.049
24.49,-0.092,0.99,0.2
24.5,-0.17,0.949,0.125
24.51,-0.414,0.768,-0.2
24.52,-0.122,1.323,-0.054
24.53,-0.119,0.851,0.01
24.54,-0.213,0.962,0.163
24.55,-0.193,0.797,0.009
24.56,-0.339,1.18,-0.264
24.57,-0.12,0.966,-0.01
24.58,-0.017,0.945,0.139
24.59,-0.266,0.958,0.102
24.6,-0.402,0.776,-0.112
24.61,-0.107,1.353,-0.106
24.62,-0.126,0.721,0.088
24.63,-0.252,0.967,0.175
24.64,-0.247,0.879,-0.034
24.65,-0.35,1.024,-0.185
24.66,-0.175,1.082,0.098
24.67,-0.029,0.822,0.142
24.68,-0.272,1.0,-0.024
24.69,-0.344,0.836,-0.139
24.7,-0.088,1.3,-0.084
24.71,-0.143,0.691,0.091
24.72,-0.112,0.948,0.183
24.73,-0.327,1.02,-0.165
24.74,-0.316,0.851,-0.148
24.75,-0.059,1.255,0.155
24.76,-0.109,0.732,0.104
24.77,-0.317,1.002,-0.028
24.78,-0.3,0.92,-0.16
24.79,-0.128,1.187,-0.086
24.8,-0.241,0.804,0.186
24.81,-0.049,0.891,0.153
24.82,-0.35,1.083,-0.224
24.83,-0.249,0.887,-0.039
24.84,-0.05,1.236,0.076
24.85,-0.127,0.62,0.145
24.86,-0.341,1.106,0.036
24.87,-0.244,0.897,-0.221
24.88,-0.224,1.071,0.03
24.89,-0.145,0.954,0.172
24.9,-0.113,0.803,0.089
24.91,-0.472,1.072,-0.181
24.92,-0.076,0.917,-0.055
24.93,-0.12,1.239,0.054
24.94,-0.187,0.62,0.2
24.95,-0.261,1.089,-0.053
24.96,-0.323,0.96,-0.215
24.97,-0.223,1.03,0.078
24.98,-0.032,1.03,0.096
24.99,-0.191,0.7,-0.006
25.0,-0.312,1.117,-0.161
25.01,-0.125,0.937,-0.039
25.02,-0.277,1.067,0.148
25.03,-0.068,0.7,0.146
25.04,-0.409,1.096,-0.169
25.05,-0.283,0.82,-0.093
25.06,-0.02,1.245,0.081
25.07,-0.112,0.772,0.099
25.08,-0.29,0.824,0.038
25.09,-0.279,1.252,-0.202
25.1,-0.165,0.815,-0.01
25.11,-0.2,1.144,0.203
25.12,-0.089,0.731,0.078
25.13,-0.489,1.11,-0.226
25.14,-0.166,0.961,-0.009
25.15,-0.138,1.139,0.063
25.16,-0.111,0.781,0.11
25.17,-0.221,0.842,-0.002
25.18,-0.399,1.323,-0.219
25.19,-0.155,0.746,0.006
25.2,-0.065,1.213,0.158
25.21,-0.137,0.666,0.035
25.22,-0.522,1.098,-0.154
25.23,-0.065,1.048,-0.08
25.24,-0.161,0.957,0.082
25.25,-0.168,0.918,0.184
25.26,-0.238,0.792,-0.102
25.27,-0.308,1.21,-0.184
25.28,-0.047,0.874,0.112
25.29,-0.127,1.109,0.116
25.3,-0.214,0.671,0.002
25.31,-0.314,1.179,-0.215
25.32,-0.139,1.076,-0.074
25.33,-0.187,0.825,0.108
25.34,-0.095,1.062,0.168
25.35,-0.341,0.722,-0.171
25.36,-0.303,1.172,-0.124
25.37,0.048,0.95,0.047
25.38,-0.146,0.929,0.122
25.39,-0.234,0.787,0.057
25.4,-0.353,1.127,-0.203
25.41,-0.157,1.088,-0.025
25.42,-0.128,0.786,0.176
25.43,-0.135,1.093,0.113
25.44,-0.365,0.774,-0.194
25.45,-0.296,1.247,-0.039
25.46,0.014,0.956,0.067
25.47,-0.205,0.842,0.094
25.48,-0.199,0.931,-0.003
25.49,-0.286,1.069,-0.19
25.5,-0.245,1.087,-0.022
25.51,-0.092,0.753,0.226
25.52,-0.179,1.08,0.087
25.53,-0.483,0.824,-0.153
25.54,-0.112,1.227,-0.08
25.55,-0.157,0.883,0.064
25.56,-0.179,0.835,0.244
25.57,-0.249,1.027,-0.077
25.58,-0.336,0.843,-0.208
25.59,-0.107,1.246,0.079
25.6,-0.011,0.735,0.071
25.61,-0.293,0.998,0.045
25.62,-0.357,0.951,-0.138
25.63,-0.124,1.153,-0.099
25.64,-0.212,0.84,0.082
25.65,-0.088,0.815,0.209
25.66,-0.33,1.141,-0.14
25.67,-0.374,0.783,-0.097
25.68,-0.073,1.294,0.098
25.69,-0.053,0.647,0.066
25.7,-0.304,0.995,0.079
25.71,-0.302,1.052,-0.191
25.72,-0.192,0.987,-0.052
25.73,-0.202,0.919,0.168
25.74,-0.01,0.788,0.128
25.75,-0.475,1.148,-0.188
25.76,-0.237,0.782,-0.096
25.77,0.014,1.354,0.052
25.78,-0.119,0.634,0.117
25.79,-0.333,0.98,0.035
25.8,-0.214,1.085,-0.264
25.81,-0.163,1.055,-0.002
25.82,-0.077,0.937,0.16
25.83,-0.094,0.79,0.014
25.84,-0.473,1.144,-0.23
25.85,-0.058,0.885,-0.04
25.86,-0.141,1.213,0.066
25.87,-0.171,0.653,0.173
25.88,-0.259,1.142,-0.1
25.89,-0.258,0.88,-0.242
25.9,-0.187,1.081,0.13
25.91,0.0,0.987,0.094
25.92,-0.241,0.665,0.058
25.93,-0.473,1.304,-0.165
25.94,-0.046,0.877,-0.116
25.95,-0.18,1.098,0.035
25.96,-0.066,0.741,0.217
25.97,-0.369,1.079,-0.168
25.98,-0.339,0.919,-0.168
25.99,0.003,1.072,0.09
26.0,-0.125,1.009,0.135
26.01,-0.262,0.667,0.039
26.02,-0.417,1.359,-0.191
26.03,-0.044,0.78,-0.102
26.04,-0.287,1.145,0.214
26.05,-0.046,0.727,0.124
26.06,-0.435,1.03,-0.182
26.07,-0.249,1.062,-0.089
26.08,-0.075,0.964,0.091
26.09,-0.115,0.986,0.094
26.1,-0.152,1.272,0.042
26.11,-0.085,0.769,0.095
26.12,-0.083,0.932,-0.018
26.13,-0.425,1.022,-0.15
26.14,-0.177,1.052,-0.104
26.15,-0.145,0.934,0.075
26.16,-0.199,0.725,0.179
26.17,-0.325,1.173,-0.164
26.18,-0.241,0.765,-0.18
26.19,-0.152,1.285,0.132
26.2,-0.05,0.714,0.148
26.21,-0.223,0.936,0.027
26.22,-0.422,1.117,-0.144
26.23,-0.148,0.957,-0.055
26.24,-0.169,1.002,0.093
26.25,-0.093,0.689,0.148
26.26,-0.435,1.208,-0.15
26.27,-0.171,0.814,-0.114
26.28,-0.124,1.279,0.085
26.29,-0.095,0.69,0.14
26.3,-0.28,0.905,-0.02
26.31,-0.371,1.121,-0.208
26.32,-0.065,0.881,-0.011
26.33,-0.237,1.124,0.104
26.34,-0.072,0.65,0.119
26.35,-0.464,1.209,-0.168
26.36,-0.237,0.868,-0.109
26.37,-0.014,1.167,0.092
26.38,-0.094,0.781,0.136
26.39,-0.355,0.815,0.003
26.4,-0.307,1.208,-0.193
26.41,-0.104,0.86,0.028
26.42,-0.214,1.181,0.15
26.43,-0.102,0.65,0.048
26.44,-0.512,1.22,-0.213
26.45,-0.071,0.979,-0.041
26.46,-0.082,1.052,0.089
26.47,-0.193,0.894,0.245
26.48,-0.272,0.809,-0.128
26.49,-0.259,1.166,-0.213
26.5,-0.017,0.955,0.126
26.51,-0.238,1.111,0.114
26.52,-0.112,0.624,0.034
26.53,-0.406,1.273,-0.228
26.54,-0.094,0.954,-0.035
26.55,-0.187,0.972,0.151
26.56,-0.131,0.954,0.152
26.57,-0.406,0.914,-0.164
26.58,-0.259,1.191,-0.038
26.59,-0.083,0.898,0.081
26.6,-0.152,1.038,0.127
26.61,-0.227,0.687,-0.034
26.62,-0.42,1.275,-0.208
26.63,-0.114,0.901,0.077
26.64,-0.21,1.048,0.133
26.65,-0.003,0.852,0.047
26.66,-0.415,0.94,-0.18
26.67,-0.18,1.259,-0.037
26.68,-0.05,0.781,0.089
26.69,-0.204,1.051,0.139
26.7,-0.25,0.755,-0.07
26.71,-0.268,1.156,-0.217
26.72,-0.176,0.986,0.128
26.73,-0.146,0.952,0.19
26.74,-0.18,0.876,-0.013
26.75,-0.369,0.911,-0.157
26.76,-0.162,1.255,-0.042
26.77,-0.131,0.702,0.136
26.78,-0.094,1.062,0.129
26.79,-0.317,0.785,-0.152
26.8,-0.329,1.155,-0.01
26.81,-0.025,1.082,0.021
26.82,-0.137,0.706,0.129
26.83,-0.288,1.057,0.081
26.84,-0.344,0.94,-0.233
26.85,-0.182,1.117,-0.012
26.86,-0.215,0.819,0.261
26.87,-0.153,0.969,0.042
26.88,-0.377,0.872,-0.182
26.89,-0.134,1.114,-0.018
26.9,-0.177,1.09,0.086
26.91,-0.086,0.651,0.161
26.92,-0.248,1.169,-0.037
26.93,-0.373,0.837,-0.212
26.94,-0.174,1.178,0.069
26.95,-0.01,0.872,0.079
26.96,-0.225,0.901,0.055
26.97,-0.368,1.01,-0.138
26.98,-0.111,1.084,-0.136
26.99,-0.234,1.038,0.098
27.0,-0.052,0.662,0.196
27.01,-0.371,1.171,-0.139
27.02,-0.329,0.76,-0.158
27.03,-0.07,1.274,0.127
27.04,-0.156,0.84,0.116
27.05,-0.234,0.866,0.068
27.06,-0.322,1.172,-0.184
27.07,-0.163,0.897,-0.096
27.08,-0.174,1.088,0.121
27.09,-0.019,0.699,0.154
27.1,-0.515,1.144,-0.186
27.11,-0.204,0.786,-0.124
27.12,0.033,1.308,0.043
27.13,-0.192,0.772,0.085
27.14,-0.174,0.813,0.084
27.15,-0.302,1.292,-0.252
27.16,-0.228,0.745,0.02
27.17,-0.179,1.154,0.166
27.18,-0.055,0.676,0.073
27.19,-0.545,1.149,-0.175
27.2,-0.177,0.92,-0.093
27.21,-0.037,1.115,0.059
27.22,-0.208,0.828,0.152
27.23,-0.177,0.787,0.002
27.24,-0.429,1.27,-0.198
27.25,-0.097,0.801,0.024
27.26,-0.155,1.224,0.139
27.27,-0.109,0.634,0.067
27.28,-0.502,1.153,-0.172
27.29,-0.034,1.079,-0.046
27.3,-0.149,0.973,0.068
27.31,-0.138,0.889,0.185
27.32,-0.277,0.831,-0.057
27.33,-0.378,1.231,-0.21
27.34,-0.073,0.817,0.078
27.35,-0.047,1.169,0.122
27.36,-0.261,0.663,0.013
27.37,-0.465,1.106,-0.162
27.38,-0.055,0.915,-0.046
27.39,-0.246,0.965,0.139
27.4,0.008,0.903,0.141
27.41,-0.465,0.915,-0.174
27.42,-0.261,1.156,-0.098
27.43,0.084,0.927,0.032
27.44,-0.208,0.996,0.102
27.45,-0.276,0.732,0.05
27.46,-0.322,1.289,-0.213
27.47,-0.143,0.927,-0.04
27.48,-0.104,0.938,0.231
27.49,-0.17,0.918,0.082
27.5,-0.521,0.825,-0.184
27.51,-0.027,1.283,-0.105
27.52,-0.119,0.786,0.066
27.53,-0.282,1.008,0.221
27.54,-0.176,0.793,-0.131
27.55,-0.376,1.091,-0.169
27.56,-0.134,1.054,0.126
27.57,-0.101,0.845,0.131
27.58,-0.278,0.969,-0.003
27.59,-0.326,0.923,-0.176
27.6,-0.134,1.24,-0.057
27.61,-0.153,0.722,0.16
27.62,-0.049,1.057,0.118
27.63,-0.384,0.822,-0.193
27.64,-0.324,1.012,-0.045
27.65,-0.028,1.175,0.064
27.66,-0.191,0.651,0.126
27.67,-0.301,1.081,0.024
27.68,-0.234,0.909,-0.244
27.69,-0.135,1.189,-0.013
27.7,-0.123,0.779,0.227
27.71,-0.169,0.943,0.052
27.72,-0.396,0.977,-0.213
27.73,-0.082,1.028,-0.066
27.74,-0.102,1.114,0.045
27.75,-0.223,0.67,0.203
27.76,-0.346,1.167,-0.066
27.77,-0.275,0.805,-0.254
27.78,-0.118,1.235,0.126
27.79,-0.063,0.854,0.115
27.8,-0.275,0.82,0.03
27.81,-0.376,1.115,-0.188
27.82,-0.075,0.911,-0.052
27.83,-0.293,1.078,0.159
27.84,-0.04,0.687,0.181
27.85,-0.456,1.125,-0.171
27.86,-0.369,0.814,-0.073
27.87,0.024,1.259,0.12
27.88,-0.196,0.778,0.108
27.89,-0.254,0.817,0.075
27.9,-0.306,1.28,-0.231
27.91,-0.139,0.782,-0.015
27.92,-0.233,1.186,0.189
27.93,-0.008,0.657,0.034
27.94,-0.516,1.147,-0.21
27.95,-0.121,0.969,-0.059
27.96,-0.038,1.074,0.068
27.97,-0.198,0.828,0.162
27.98,-0.182,0.802,-0.019
27.99,-0.375,1.257,-0.253
28.0,-0.193,0.79,0.054
28.01,0.002,1.155,0.111
28.02,-0.146,0.633,-0.016
28.03,-0.444,1.159,-0.173
28.04,-0.071,1.038,-0.056
28.05,-0.18,0.907,0.079
28.06,-0.076,0.959,0.181
28.07,-0.29,0.832,-0.144
28.08,-0.384,1.168,-0.171
28.09,0.015,0.882,0.133
28.1,-0.19,1.08,0.098
28.11,-0.269,0.686,0.002
28.12,-0.259,1.171,-0.217
28.13,-0.135,1.064,-0.018
28.14,-0.298,0.832,0.195
28.15,-0.023,1.019,0.115
28.16,-0.467,0.774,-0.213
28.17,-0.246,1.276,-0.034
28.18,-0.014,0.897,0.064
28.19,-0.216,0.903,0.127
28.2,-0.159,0.759,-0.071
28.21,-0.399,1.179,-0.129
28.22,-0.178,0.951,0.095
28.23,-0.151,0.934,0.146
28.24,-0.168,0.9,0.007
28.25,-0.389,0.924,-0.144
28.26,-0.154,1.257,-0.055
28.27,-0.173,0.733,0.123
28.28,-0.111,1.035,0.164
28.29,-0.306,0.763,-0.153
28.3,-0.347,1.087,-0.094
28.31,-0.101,1.138,0.071
28.32,-0.127,0.7,0.092
28.33,-0.291,1.031,0.061
28.34,-0.316,0.943,-0.208
28.35,-0.217,1.158,0.013
28.36,-0.14,0.773,0.164
28.37,-0.081,1.024,0.11
28.38,-0.339,0.863,-0.214
28.39,-0.165,1.059,-0.067
28.4,-0.13,1.13,0.068
28.41,-0.145,0.663,0.151
28.42,-0.354,1.132,0.027
28.43,-0.285,0.883,-0.229
28.44,-0.148,1.16,0.024
28.45,-0.109,0.815,0.19
28.46,-0.135,0.957,0.064
28.47,-0.426,0.98,-0.226
28.48,-0.038,0.972,-0.092
28.49,-0.111,1.14,0.076
28.5,-0.185,0.657,0.204
28.51,-0.318,1.151,-0.087
28.52,-0.32,0.818,-0.177
28.53,-0.151,1.201,0.126
28.54,-0.148,0.781,0.144
28.55,-0.193,0.876,0.04
28.56,-0.388,1.166,-0.231
28.57,-0.077,0.883,-0.1
28.58,-0.178,1.092,0.112
28.59,-0.029,0.695,0.116
28.6,-0.422,1.156,-0.15
28.61,-0.242,0.826,-0.143
28.62,-0.126,1.238,0.082
28.63,-0.102,0.777,0.119
28.64,-0.191,0.834,0.03
28.65,-0.408,1.25,-0.214
28.66,-0.056,0.788,-0.05
28.67,-0.155,1.165,0.142
28.68,-0.11,0.694,0.131
28.69,-0.463,1.121,-0.193
28.7,-0.21,0.897,-0.093
28.71,-0.05,1.108,0.047
28.72,-0.063,0.821,0.093
28.73,-0.32,0.824,0.027
28.74,-0.362,1.242,-0.212
28.75,-0.148,0.752,-0.003
28.76,-0.101,1.213,0.166
28.77,-0.146,0.662,0.046
28.78,-0.481,1.129,-0.136
28.79,-0.126,1.066,-0.074
28.8,-0.163,0.928,0.046
28.81,-0.133,0.95,0.188
28.82,-0.28,0.781,-0.151
28.83,-0.311,1.211,-0.163
28.84,-0.066,0.896,0.134
28.85,-0.122,1.013,0.12
28.86,-0.294,0.717,0.044
28.87,-0.345,1.202,-0.226
28.88,-0.134,1.02,-0.064
28.89,-0.173,0.843,0.155
28.9,-0.121,1.031,0.16
28.91,-0.34,0.787,-0.19
28.92,-0.286,1.2,-0.114
28.93,-0.002,0.925,0.077
28.94,-0.177,0.959,0.121
28.95,-0.256,0.814,0.036
28.96,-0.295,1.14,-0.199
28.97,-0.17,1.042,-0.032
28.98,-0.121,0.814,0.193
28.99,-0.128,1.016,0.075
29.0,-0.445,0.774,-0.153
29.01,-0.167,1.258,-0.09
29.02,-0.121,0.737,0.05
29.03,-0.188,1.048,0.194
29.04,-0.271,0.785,-0.107
29.05,-0.275,1.095,-0.171
29.06,-0.094,1.104,0.105
29.07,-0.132,0.771,0.15
29.08,-0.263,1.016,0.032
29.09,-0.31,0.962,-0.171
29.1,-0.166,1.195,-0.042
29.11,-0.155,0.727,0.194
29.12,-0.089,1.02,0.102
29.13,-0.366,0.899,-0.152
29.14,-0.297,1.075,-0.051
29.15,-0.067,1.106,0.06
29.16,-0.165,0.686,0.158
29.17,-0.306,1.088,-0.02
29.18,-0.235,0.898,-0.257
29.19,-0.138,1.19,0.033
29.2,-0.157,0.813,0.203
29.21,-0.097,0.947,0.053
29.22,-0.439,0.972,-0.216
29.23,-0.094,1.026,-0.059
29.24,-0.122,1.117,0.07
29.25,-0.2,0.651,0.19
29.26,-0.332,1.141,-0.114
29.27,-0.271,0.834,-0.212
29.28,-0.091,1.266,0.112
29.29,-0.133,0.799,0.131
29.3,-0.135,0.851,0.033
29.31,-0.344,1.183,-0.193
29.32,-0.14,0.865,-0.065
29.33,-0.225,1.076,0.13
29.34,-0.084,0.68,0.126
29.35,-0.422,1.163,-0.175
29.36,-0.278,0.819,-0.137
29.37,-0.004,1.194,0.064
29.38,-0.099,0.786,0.109
29.39,-0.249,0.816,0.073
29.4,-0.323,1.237,-0.206
29.41,-0.113,0.853,-0.002
29.42,-0.208,1.123,0.182
29.43,-0.022,0.654,0.079
29.44,-0.506,1.155,-0.192
29.45,-0.2,0.931,-0.058
29.46,-0.056,1.11,0.077
29.47,-0.18,0.84,0.124
29.48,-0.19,0.821,-0.031
29.49,-0.3,1.265,-0.226
29.5,-0.154,0.812,0.081
29.51,-0.131,1.2,0.156
29.52,-0.124,0.633,0.039
29.53,-0.542,1.159,-0.153
29.54,-0.117,1.004,-0.044
29.55,-0.123,0.997,0.048
29.56,-0.161,0.964,0.169
29.57,-0.299,0.724,-0.122
29.58,-0.333,1.229,-0.13
29.59,0.015,0.91,0.064
29.6,-0.16,1.013,0.114
29.61,-0.206,0.728,0.063
29.62,-0.45,1.209,-0.206
29.63,-0.096,0.988,-0.029
29.64,-0.241,0.939,0.175
29.65,-0.127,0.983,0.098
29.66,-0.323,0.753,-0.197
29.67,-0.177,1.339,-0.057
29.68,-0.126,0.835,0.054
29.69,-0.093,0.886,0.148
29.7,-0.219,0.87,0.017
29.71,-0.36,1.134,-0.216
29.72,-0.098,1.002,0.007
29.73,-0.194,0.859,0.179
29.74,-0.183,1.013,0.082
29.75,-0.349,0.777,-0.206
29.76,-0.267,1.315,-0.024
29.77,-0.077,0.828,0.098
29.78,-0.208,0.88,0.163
29.79,-0.25,0.937,-0.025
29.8,-0.309,0.99,-0.243
29.81,-0.153,1.131,0.093
29.82,-0.096,0.801,0.142
29.83,-0.198,1.008,0.028
29.84,-0.383,0.911,-0.146
29.85,-0.123,1.296,-0.055
29.86,-0.126,0.673,0.085
29.87,-0.155,1.024,0.148
29.88,-0.275,0.921,-0.166
29.89,-0.35,1.027,-0.093
29.9,-0.078,1.088,0.128
29.91,-0.082,0.74,0.094
29.92,-0.285,1.025,-0.03
29.93,-0.315,0.926,-0.13
29.94,-0.131,1.213,-0.0
29.95,-0.189,0.684,0.149
29.96,-0.01,0.977,0.068
29.97,-0.413,0.991,-0.229
29.98,-0.265,0.962,0.021
29.99,-0.054,1.165,0.082
30.0,-0.145,0.633,0.116
30.01,-0.312,1.147,-0.007
30.02,-0.293,0.886,-0.205
30.03,-0.216,1.145,0.042
30.04,-0.032,0.841,0.134
30.05,-0.148,0.837,0.044
30.06,-0.499,1.117,-0.234
30.07,-0.001,0.949,-0.079
30.08,-0.228,1.119,0.096
30.09,-0.147,0.631,0.208
30.1,-0.313,1.166,-0.139
30.11,-0.269,0.836,-0.164
30.12,-0.113,1.186,0.104
30.13,-0.077,0.854,0.125
30.14,-0.303,0.787,0.019
30.15,-0.387,1.207,-0.158
30.16,-0.078,0.909,-0.06
30.17,-0.285,1.065,0.104
30.18,0.067,0.718,0.119
30.19,-0.434,1.177,-0.217
30.2,-0.245,0.878,-0.021
30.21,-0.099,1.157,0.101
30.22,-0.141,0.861,0.091
30.23,-0.224,0.81,0.012
30.24,-0.421,1.265,-0.224
30.25,-0.07,0.809,0.019
30.26,-0.181,1.222,0.124
30.27,-0.067,0.638,0.036
30.28,-0.505,1.168,-0.178
30.29,-0.038,1.01,-0.096
30.3,-0.098,0.977,0.082
30.31,-0.166,0.923,0.176
30.32,-0.298,0.806,-0.136
30.33,-0.302,1.196,-0.159
30.34,-0.052,0.884,0.082
30.35,-0.125,1.137,0.15
30.36,-0.152,0.649,0.001
30.37,-0.488,1.191,-0.151
30.38,-0.107,1.053,-0.054
30.39,-0.11,0.821,0.106
30.4,-0.164,1.059,0.202
30.41,-0.346,0.772,-0.158
30.42,-0.239,1.189,-0.174
30.43,-0.05,0.94,0.116
30.44,-0.128,0.979,0.118
30.45,-0.226,0.76,-0.002
30.46,-0.372,1.147,-0.212
30.47,-0.03,1.021,-0.057
30.48,-0.217,0.859,0.237
30.49,-0.201,1.016,0.094
30.5,-0.31,0.769,-0.236
30.51,-0.183,1.32,-0.025
30.52,-0.056,0.872,0.125
30.53,-0.234,0.904,0.095
30.54,-0.232,0.911,-0.065
30.55,-0.289,1.048,-0.18
30.56,-0.145,1.151,0.071
30.57,-0.099,0.747,0.165
30.58,-0.216,1.022,0.015
30.59,-0.353,0.872,-0.185
30.6,-0.1,1.281,-0.062
30.61,-0.122,0.809,0.105
30.62,-0.128,0.896,0.164
30.63,-0.312,1.015,-0.161
30.64,-0.309,0.913,-0.103
30.65,-0.05,1.069,0.103
30.66,-0.148,0.701,0.126
30.67,-0.32,1.06,-0.02
30.68,-0.323,0.947,-0.215
30.69,-0.144,1.19,-0.042
30.7,-0.132,0.763,0.195
30.71,-0.144,0.953,0.06
30.72,-0.389,0.943,-0.208
30.73,-0.188,1.031,-0.034
30.74,-0.087,1.06,0.065
30.75,-0.194,0.718,0.183
30.76,-0.346,1.156,-0.064
30.77,-0.286,0.844,-0.182
30.78,-0.219,1.249,0.163
30.79,-0.06,0.777,0.141
30.8,-0.214,0.886,-0.037
30.81,-0.384,1.119,-0.152
30.82,-0.098,0.935,-0.048
30.83,-0.179,1.049,0.089
30.84,-0.1,0.721,0.173
30.85,-0.433,1.159,-0.202
30.86,-0.312,0.832,-0.066
30.87,-0.003,1.264,0.103
30.88,-0.085,0.757,0.136
30.89,-0.326,0.874,0.041
30.9,-0.334,1.217,-0.218
30.91,-0.022,0.864,0.004
30.92,-0.239,1.177,0.203
30.93,-0.054,0.612,0.052
30.94,-0.514,1.225,-0.224
30.95,-0.09,0.958,-0.039
30.96,-0.128,1.044,0.09
30.97,-0.232,0.836,0.2
30.98,-0.262,0.854,-0.106
30.99,-0.279,1.181,-0.188
31.0,-0.085,0.91,0.175
31.01,-0.144,1.125,0.088
31.02,-0.173,0.627,-0.008
31.03,-0.391,1.265,-0.217
31.04,-0.122,0.896,-0.015
31.05,-0.208,0.989,0.185
31.06,-0.117,0.926,0.126
31.07,-0.389,0.778,-0.188
31.08,-0.218,1.293,-0.071
31.09,-0.068,0.878,0.074
31.1,-0.179,0.967,0.12
31.11,-0.184,0.756,0.02
31.12,-0.411,1.189,-0.237
31.13,-0.084,0.97,0.038
31.14,-0.135,0.981,0.156
31.15,-0.178,0.9,0.049
31.16,-0.388,0.872,-0.142
31.17,-0.111,1.347,-0.079
31.18,-0.087,0.733,0.114
31.19,-0.234,1.02,0.205
31.2,-0.297,0.842,-0.144
31.21,-0.35,1.085,-0.163
31.22,-0.068,1.136,0.14
31.23,-0.19,0.771,0.153
31.24,-0.24,0.998,0.027
31.25,-0.425,0.964,-0.127
31.26,-0.116,1.225,-0.026
31.27,-0.14,0.71,0.134
31.28,-0.163,0.997,0.123
31.29,-0.359,0.941,-0.213
31.3,-0.272,0.962,-0.088
31.31,0.025,1.13,0.043
31.32,-0.169,0.645,0.077
31.33,-0.349,1.103,-0.006
31.34,-0.263,0.877,-0.218
31.35,-0.171,1.163,-0.006
31.36,-0.036,0.792,0.148
31.37,-0.162,0.877,0.01
31.38,-0.472,1.061,-0.189
31.39,-0.09,0.987,-0.079
31.4,-0.151,1.079,0.073
31.41,-0.15,0.679,0.19
31.42,-0.332,1.198,-0.154
31.43,-0.24,0.82,-0.197
31.44,-0.082,1.231,0.159
31.45,-0.059,0.789,0.12
31.46,-0.277,0.866,0.015
31.47,-0.298,1.056,-0.234
31.48,-0.143,0.988,0.015
31.49,-0.166,0.994,0.165
31.5,-0.083,0.701,0.072
31.51,-0.485,1.213,-0.208
31.52,-0.163,0.883,0.016
31.53,-0.1,1.201,0.082
31.54,-0.121,0.704,0.168
31.55,-0.288,1.065,-0.047
31.56,-0.342,1.049,-0.228
31.57,-0.103,0.971,0.133
31.58,-0.12,1.113,0.103
31.59,-0.253,0.579,-0.001
31.6,-0.381,1.311,-0.136
31.61,-0.09,0.953,-0.031
31.62,-0.255,1.05,0.119
31.63,0.048,0.814,0.134
31.64,-0.413,0.98,-0.254
31.65,-0.288,1.035,-0.052
31.66,-0.005,1.014,0.095
31.67,-0.177,0.987,0.056
31.68,-0.208,0.662,-0.03
31.69,-0.312,1.318,-0.169
31.7,-0.128,0.868,0.063
31.71,-0.093,1.048,0.179
31.72,-0.186,0.784,0.035
31.73,-0.445,1.002,-0.129
31.74,-0.144,1.205,-0.073
31.75,-0.166,0.698,0.101
31.76,-0.111,1.09,0.176
31.77,-0.371,0.741,-0.125
31.78,-0.253,1.138,-0.2
31.79,-0.039,0.962,0.091
31.8,-0.17,0.885,0.14
31.81,-0.176,0.848,0.003
31.82,-0.395,1.035,-0.184
31.83,-0.088,1.16,-0.038
31.84,-0.161,0.722,0.163
31.85,-0.198,1.071,0.083
31.86,-0.281,0.799,-0.225
31.87,-0.221,1.248,-0.023
31.88,-0.106,0.929,0.116
31.89,-0.162,0.748,0.131
31.9,-0.241,1.051,-0.042
31.91,-0.396,0.913,-0.197
31.92,-0.126,1.182,0.08
31.93,-0.072,0.772,0.127
31.94,-0.213,0.993,0.003
31.95,-0.435,0.91,-0.15
31.96,-0.092,1.129,-0.091
31.97,-0.116,0.89,0.083
31.98,-0.07,0.803,0.175
31.99,-0.365,1.137,-0.148
32.0,-0.325,0.872,-0.083
32.01,-0.079,1.288,0.101
32.02,-0.118,0.634,0.089
32.03,-0.3,1.025,-0.008
32.04,-0.365,1.001,-0.167
32.05,-0.094,1.031,0.023
32.06,-0.118,1.071,0.119
32.07,-0.107,0.694,0.07
32.08,-0.472,1.221,-0.164
32.09,-0.112,0.899,-0.107
32.1,-0.113,1.095,0.061
32.11,-0.175,0.759,0.262
32.12,-0.421,1.048,-0.096
32.13,-0.223,0.909,-0.18
32.14,-0.115,1.062,0.166
32.15,-0.212,1.044,0.141
32.16,-0.118,0.657,-0.013
32.17,-0.466,1.357,-0.213
32.18,-0.09,0.84,-0.015
32.19,-0.218,1.177,0.161
32.2,-0.155,0.729,0.136
32.21,-0.405,0.966,-0.191
32.22,-0.191,1.138,-0.055
32.23,-0.113,0.949,0.075
32.24,-0.106,0.952,0.104
32.25,-0.24,0.674,0.006
32.26,-0.431,1.308,-0.225
32.27,-0.022,0.858,0.043
32.28,-0.2,1.15,0.166
32.29,-0.127,0.588,0.006
32.3,-0.419,1.236,-0.155
32.31,-0.133,1.048,-0.074
32.32,-0.14,0.852,0.1
32.33,-0.075,0.99,0.161
32.34,-0.401,0.751,-0.184
32.35,-0.303,1.203,-0.079
32.36,0.009,0.925,0.051
32.37,-0.194,0.991,0.124
32.38,-0.27,0.74,0.072
32.39,-0.338,1.18,-0.225
32.4,-0.128,0.969,-0.065
32.41,-0.06,0.878,0.195
32.42,-0.16,1.031,0.059
32.43,-0.459,0.772,-0.151
32.44,-0.149,1.313,-0.082
32.45,-0.029,0.783,0.07
32.46,-0.254,0.981,0.225
32.47,-0.236,0.843,-0.116
32.48,-0.304,1.015,-0.137
32.49,-0.148,1.183,0.096
32.5,-0.122,0.733,0.164
32.51,-0.16,1.051,0.003
32.52,-0.379,0.926,-0.165
32.53,-0.16,1.219,-0.042
32.54,-0.096,0.774,0.105
32.55,-0.233,0.947,0.2
32.56,-0.27,0.944,-0.178
32.57,-0.243,0.929,-0.131
32.58,-0.144,1.245,0.143
32.59,-0.104,0.67,0.122
32.6,-0.37,1.041,0.017
32.61,-0.22,0.909,-0.218
32.62,-0.109,1.15,-0.02
32.63,-0.256,0.811,0.197
32.64,-0.084,0.878,0.115
32.65,-0.415,1.105,-0.218
32.66,-0.172,0.921,-0.029
32.67,-0.116,1.193,0.062
32.68,-0.122,0.63,0.156
32.69,-0.346,1.155,-0.054
32.7,-0.248,0.872,-0.194
32.71,-0.189,1.135,0.086
32.72,-0.083,0.895,0.151
32.73,-0.194,0.785,0.002
32.74,-0.448,1.17,-0.147
32.75,-0.054,0.896,-0.076
32.76,-0.167,1.128,0.101
32.77,-0.057,0.699,0.175
32.78,-0.424,1.119,-0.161
32.79,-0.297,0.914,-0.121
32.8,-0.066,1.171,0.096
32.81,-0.13,0.836,0.109
32.82,-0.319,0.782,0.067
32.83,-0.426,1.264,-0.223
32.84,-0.078,0.739,0.016
32.85,-0.167,1.246,0.169
32.86,-0.133,0.654,0.089
32.87,-0.415,1.074,-0.133
32.88,-0.184,1.074,-0.02
32.89,-0.099,0.971,0.077
32.9,-0.183,0.899,0.136
32.91,-0.213,0.765,-0.067
32.92,-0.387,1.3,-0.144
32.93,-0.115,0.826,0.066
32.94,-0.107,1.14,0.167
32.95,-0.184,0.661,0.016
32.96,-0.52,1.114,-0.151
32.97,0.019,1.094,-0.082
32.98,-0.169,0.85,0.101
32.99,-0.145,0.996,0.158
33.0,-0.285,0.803,-0.186
33.01,-0.316,1.235,-0.103
33.02,-0.073,0.898,0.186
33.03,-0.205,1.003,0.15
33.04,-0.274,0.747,-0.049
33.05,-0.24,1.14,-0.225
33.06,-0.084,1.095,-0.091
33.07,-0.148,0.742,0.23
33.08,-0.139,1.036,0.09
33.09,-0.389,0.742,-0.231
33.1,-0.13,1.309,-0.025
33.11,-0.086,0.768,0.076
33.12,-0.214,1.022,0.18
33.13,-0.204,0.786,-0.131
33.14,-0.316,1.113,-0.189
33.15,-0.04,1.05,0.122
33.16,-0.085,0.847,0.138
33.17,-0.246,0.973,0.022
33.18,-0.331,0.967,-0.193
33.19,-0.159,1.239,-0.036
33.2,-0.197,0.692,0.148
33.21,-0.117,1.036,0.089
33.22,-0.317,0.858,-0.245
33.23,-0.271,1.04,-0.072
33.24,0.032,1.101,0.077
33.25,-0.184,0.676,0.124
33.26,-0.328,1.04,0.042
33.27,-0.219,0.926,-0.245
33.28,-0.123,1.205,0.001
33.29,-0.17,0.776,0.228
33.3,-0.15,0.901,0.017
33.31,-0.47,0.986,-0.204
33.32,-0.043,1.079,-0.111
33.33,-0.109,1.02,0.043
33.34,-0.212,0.661,0.237
33.35,-0.257,1.194,-0.129
33.36,-0.253,0.833,-0.217
33.37,-0.108,1.244,0.157
33.38,-0.104,0.785,0.11
33.39,-0.318,0.883,-0.003
33.4,-0.295,1.124,-0.225
33.41,-0.098,0.956,-0.077
33.42,-0.165,1.037,0.125
33.43,-0.008,0.733,0.142
33.44,-0.459,1.167,-0.21
33.45,-0.244,0.852,-0.093
33.46,-0.051,1.23,0.095
33.47,-0.162,0.745,0.103
33.48,-0.25,0.887,0.005
33.49,-0.274,1.176,-0.199
33.5,-0.166,0.851,0.046
33.51,-0.2,1.154,0.192
33.52,-0.004,0.657,0.04
33.53,-0.565,1.197,-0.208
33.54,-0.057,0.923,-0.032
33.55,-0.084,1.124,0.057
33.56,-0.224,0.852,0.186
33.57,-0.297,0.835,-0.066
33.58,-0.29,1.161,-0.221
33.59,-0.106,0.868,0.138
33.6,-0.121,1.167,0.109
33.61,-0.245,0.619,-0.011
33.62,-0.433,1.227,-0.173
33.63,-0.083,1.005,-0.04
33.64,-0.181,0.918,0.14
33.65,-0.116,0.919,0.168
33.66,-0.383,0.858,-0.234
33.67,-0.245,1.167,-0.146
33.68,0.075,0.904,0.128
33.69,-0.244,0.998,0.108
33.7,-0.298,0.687,0.016
33.71,-0.286,1.266,-0.227
33.72,-0.062,0.955,-0.055
33.73,-0.108,0.894,0.22
33.74,-0.144,0.936,0.076
33.75,-0.492,0.854,-0.215
33.76,-0.041,1.285,-0.081
33.77,-0.081,0.778,0.096
33.78,-0.198,0.979,0.16
33.79,-0.282,0.812,-0.101
33.8,-0.302,1.068,-0.171
33.81,-0.037,1.101,0.161
33.82,-0.165,0.756,0.152
33.83,-0.332,0.98,-0.017
33.84,-0.308,0.928,-0.178
33.85,-0.144,1.245,-0.058
33.86,-0.121,0.698,0.119
33.87,-0.054,1.022,0.09
33.88,-0.417,0.936,-0.173
33.89,-0.174,0.99,-0.042
33.9,-0.046,1.123,0.083
33.91,-0.141,0.652,0.126
33.92,-0.27,1.063,-0.115
33.93,-0.328,0.877,-0.163
33.94,-0.164,1.265,0.097
33.95,-0.026,0.691,0.1
33.96,-0.306,1.025,0.04
33.97,-0.337,0.99,-0.143
33.98,-0.125,1.113,-0.047
33.99,-0.204,0.885,0.151
34.0,-0.051,0.781,0.123
34.01,-0.439,1.099,-0.198
34.02,-0.22,0.881,-0.067
34.03,-0.035,1.269,0.073
34.04,-0.098,0.621,0.117
34.05,-0.341,1.029,0.02
34.06,-0.247,0.989,-0.243
34.07,-0.099,1.035,0.0
34.08,-0.116,1.037,0.177
34.09,-0.108,0.697,0.024
34.1,-0.535,1.196,-0.155
34.11,-0.031,0.892,-0.037
34.12,-0.16,1.136,0.066
34.13,-0.209,0.722,0.213
34.14,-0.293,1.067,-0.159
34.15,-0.362,0.991,-0.199
34.16,-0.07,0.979,0.152
34.17,-0.133,1.019,0.104
34.18,-0.267,0.658,-0.032
34.19,-0.34,1.328,-0.164
34.2,-0.097,0.81,0.021
34.21,-0.195,1.096,0.154
34.22,-0.055,0.763,0.073
34.23,-0.431,1.004,-0.182
34.24,-0.223,1.14,-0.02
34.25,-0.114,0.907,0.114
34.26,-0.2,0.972,0.145
34.27,-0.297,0.699,-0.037
34.28,-0.379,1.275,-0.16
34.29,-0.14,0.916,0.098
34.3,-0.106,1.07,0.117
34.31,-0.148,0.725,-0.001
34.32,-0.41,1.081,-0.164
34.33,-0.101,1.15,-0.074
34.34,-0.119,0.769,0.101
34.35,-0.084,1.071,0.146
34.36,-0.329,0.736,-0.184
34.37,-0.313,1.214,-0.092
34.38,-0.019,0.973,0.103
34.39,-0.187,0.855,0.176
34.4,-0.257,0.877,0.008
34.41,-0.367,1.065,-0.218
34.42,-0.074,1.133,-0.007
34.43,-0.152,0.8,0.179
34.44,-0.455,1.313,-0.213
34.45,-0.07,0.945,-0.093
34.46,-0.102,0.956,0.101
34.47,-0.106,0.909,0.127
34.48,-0.4,0.811,-0.159
34.49,-0.243,1.189,-0.147
34.5,-0.023,0.96,0.115
34.51,-0.182,0.991,0.091
34.52,-0.169,0.667,0.006
34.53,-0.401,1.337,-0.214
34.54,0.02,0.928,-0.062
34.55,-0.156,0.961,0.163
34.56,-0.126,0.92,0.07
34.57,-0.362,0.859,-0.195
34.58,-0.241,1.279,-0.04
34.59,-0.034,0.769,0.12
34.6,-0.269,1.019,0.135
34.61,-0.207,0.795,-0.041
34.62,-0.287,1.174,-0.268
34.63,-0.144,0.967,0.072
34.64,-0.037,0.872,0.154
34.65,-0.18,0.941,-0.027
34.66,-0.436,0.915,-0.134
34.67,-0.083,1.3,-0.016
34.68,-0.246,0.678,0.15
34.69,-0.082,1.085,0.108
34.7,-0.278,0.809,-0.23
34.71,-0.348,1.179,-0.024
34.72,0.011,0.918,0.1
34.73,-0.183,0.843,0.11
34.74,-0.321,0.973,-0.018
34.75,-0.212,0.932,-0.202
34.76,-0.204,1.238,0.069
34.77,-0.051,0.683,0.157
34.78,-0.177,1.026,-0.007
34.79,-0.373,0.94,-0.174
34.8,-0.167,1.137,-0.063
34.81,-0.094,0.862,0.124
34.82,-0.198,0.84,0.172
34.83,-0.322,1.082,-0.169
34.84,-0.22,0.845,-0.125
34.85,-0.105,1.263,0.069
34.86,-0.053,0.597,0.062
34.87,-0.298,1.074,0.032
34.88,-0.37,0.999,-0.227
34.89,-0.093,1.033,-0.008
34.9,-0.163,0.951,0.174
34.91,-0.096,0.742,0.096
34.92,-0.455,1.195,-0.228
34.93,-0.125,0.873,-0.02
34.94,-0.13,1.19,0.104
34.95,-0.147,0.673,0.164
34.96,-0.327,1.071,-0.034
34.97,-0.335,0.948,-0.18
34.98,-0.074,1.047,0.116
34.99,-0.156,1.059,0.116
35.0,-0.182,0.64,0.032
35.01,-0.449,1.288,-0.147
35.02,-0.073,0.885,-0.009
35.03,-0.259,1.137,0.151
35.04,-0.036,0.766,0.168
35.05,-0.426,1.032,-0.191
35.06,-0.296,1.034,-0.079
35.07,-0.0,1.032,0.07
35.08,-0.199,0.937,0.09
35.09,-0.187,0.723,-0.005
35.1,-0.381,1.368,-0.194
35.11,-0.118,0.803,0.026
35.12,-0.126,1.131,0.167
35.13,-0.149,0.738,0.067
35.14,-0.429,1.042,-0.217
35.15,-0.05,1.156,-0.117
35.16,-0.089,0.799,0.06
35.17,-0.233,1.037,0.21
35.18,-0.213,0.708,-0.105
35.19,-0.359,1.24,-0.172
35.2,-0.029,0.953,0.139
35.21,-0.127,1.019,0.138
35.22,-0.24,0.775,0.018
35.23,-0.396,1.098,-0.139
35.24,-0.102,1.139,-0.064
35.25,-0.22,0.728,0.179
35.26,-0.088,1.093,0.091
35.27,-0.315,0.735,-0.233
35.28,-0.323,1.218,-0.022
35.29,-0.049,0.958,0.114
35.3,-0.145,0.812,0.091
35.31,-0.239,0.965,0.002
35.32,-0.331,1.036,-0.24
35.33,-0.108,1.093,-0.007
35.34,-0.108,0.786,0.19
35.35,-0.147,1.036,0.042
35.36,-0.409,0.842,-0.183
35.37,-0.151,1.195,-0.051
35.38,-0.111,0.848,0.096
35.39,-0.218,0.83,0.218
35.4,-0.357,1.048,-0.115
35.41,-0.257,0.823,-0.206
35.42,-0.093,1.259,0.134
35.43,-0.099,0.669,0.119
35.44,-0.26,1.018,0.046
35.45,-0.428,0.989,-0.143
35.46,-0.155,1.055,-0.007
35.47,-0.179,0.893,0.134
35.48,-0.145,0.804,0.13
35.49,-0.375,1.14,-0.23
35.5,-0.178,0.994,-0.05
35.51,-0.111,1.099,0.095
35.52,-0.111,0.637,0.165
35.53,-0.365,1.152,-0.021
35.54,-0.237,0.843,-0.226
35.55,-0.116,1.149,0.044
35.56,-0.112,0.871,0.165
35.57,-0.183,0.847,0.021
35.58,-0.507,1.111,-0.165
35.59,-0.082,0.928,-0.066
35.6,-0.135,1.098,0.035
35.61,-0.062,0.677,0.218
35.62,-0.432,1.195,-0.104
35.63,-0.38,0.834,-0.151
35.64,0.044,1.16,0.046
35.65,-0.137,0.837,0.093
35.66,-0.337,0.809,0.008
35.67,-0.311,1.222,-0.254
35.68,-0.06,0.884,-0.004
35.69,-0.195,1.158,0.182
35.7,-0.036,0.656,0.086
35.71,-0.447,1.185,-0.205
35.72,-0.124,0.973,-0.04
35.73,-0.141,1.045,0.106
35.74,-0.177,0.871,0.159
35.75,-0.27,0.84,-0.062
35.76,-0.321,1.206,-0.148
35.77,-0.129,0.893,0.094
35.78,-0.135,1.146,0.112
35.79,-0.038,0.617,-0.039
35.8,-0.436,1.244,-0.138
35.81,-0.163,1.007,-0.038
35.82,-0.242,0.895,0.111
35.83,-0.05,0.938,0.132
35.84,-0.379,0.81,-0.167
35.85,-0.296,1.219,-0.088
35.86,-0.058,0.927,0.06
35.87,-0.091,0.921,0.063
35.88,-0.19,0.768,0.063
35.89,-0.387,1.232,-0.222
35.9,-0.105,0.957,-0.002
35.91,-0.123,0.934,0.227
35.92,-0.149,0.975,0.063
35.93,-0.408,0.789,-0.191
35.94,-0.186,1.319,0.005
35.95,-0.079,0.8,0.11
35.96,-0.254,0.961,0.203
35.97,-0.275,0.871,-0.057
35.98,-0.353,1.056,-0.209
35.99,-0.111,1.077,0.082
36.0,-0.074,0.833,0.162
36.01,-0.264,0.967,-0.016
36.02,-0.379,0.905,-0.146
36.03,-0.074,1.272,-0.063
36.04,-0.147,0.698,0.118
36.05,-0.139,0.973,0.149
36.06,-0.351,0.94,-0.213
36.07,-0.317,0.937,-0.102
36.08,-0.032,1.252,0.131
36.09,-0.075,0.671,0.071
36.1,-0.333,1.045,-0.004
36.11,-0.252,0.945,-0.122
36.12,-0.196,1.24,0.017
36.13,-0.195,0.713,0.221
36.14,-0.055,0.924,0.033
36.15,-0.477,1.03,-0.262
36.16,-0.16,0.927,0.019
36.17,-0.097,1.231,0.108
36.18,-0.215,0.605,0.122
36.19,-0.249,1.195,-0.099
36.2,-0.276,0.929,-0.225
36.21,-0.158,1.135,0.13
36.22,-0.053,0.83,0.133
36.23,-0.264,0.816,-0.011
36.24,-0.347,1.173,-0.171
36.25,-0.105,0.911,-0.016
36.26,-0.236,1.121,0.125
36.27,-0.017,0.667,0.126
36.28,-0.467,1.152,-0.195
36.29,-0.23,0.897,-0.057
36.3,-0.082,1.225,0.101
36.31,-0.151,0.801,0.131
36.32,-0.28,0.995,-0.053
36.33,-0.316,1.063,-0.194
36.34,-0.09,0.986,0.087
36.35,-0.157,1.112,0.14
36.36,-0.135,0.607,0.051
36.37,-0.527,1.284,-0.158
36.38,-0.045,0.895,-0.066
36.39,-0.226,1.107,0.101
36.4,-0.045,0.799,0.191
36.41,-0.452,0.949,-0.145
36.42,-0.304,1.055,-0.114
36.43,-0.005,0.998,0.138
36.44,-0.212,1.038,0.092
36.45,-0.219,0.634,0.054
36.46,-0.394,1.405,-0.195
36.47,-0.063,0.808,-0.041
36.48,-0.266,1.045,0.204
36.49,-0.037,0.791,0.077
36.5,-0.481,0.96,-0.222
36.51,-0.134,1.21,-0.016
36.52,0.003,0.85,0.076
36.53,-0.251,1.018,0.189
36.54,-0.177,0.679,-0.098
36.55,-0.321,1.263,-0.186
36.56,-0.142,0.933,0.126
36.57,-0.148,0.971,0.134
36.58,-0.23,0.834,-0.008
36.59,-0.332,1.027,-0.17
36.6,-0.114,1.191,-0.036
36.61,-0.218,0.719,0.159
36.62,-0.076,1.078,0.139
36.63,-0.335,0.772,-0.203
36.64,-0.275,1.202,-0.049
36.65,-0.097,0.989,0.068
36.66,-0.15,0.774,0.09
36.67,-0.247,1.02,0.043
36.68,-0.348,0.95,-0.237
36.69,-0.093,1.117,0.001
36.7,-0.044,0.807,0.133
36.71,-0.187,0.957,0.082
36.72,-0.422,0.876,-0.174
36.73,-0.073,1.183,-0.094
36.74,-0.116,0.917,0.09
36.75,-0.275,0.784,0.243
36.76,-0.294,1.079,-0.091
36.77,-0.304,0.835,-0.208
36.78,-0.084,1.311,0.128
36.79,-0.055,0.71,0.115
36.8,-0.276,0.986,0.047
36.81,-0.283,1.071,-0.193
36.82,-0.144,1.015,-0.06
36.83,-0.24,0.879,0.131
36.84,-0.023,0.802,0.143
36.85,-0.473,1.131,-0.22
36.86,-0.333,0.782,-0.007
36.87,-0.045,1.297,0.096
36.88,-0.114,0.679,0.1
36.89,-0.326,0.99,0.071
36.9,-0.241,1.104,-0.225
36.91,-0.161,0.892,0.033
36.92,-0.187,1.082,0.235
36.93,-0.11,0.701,0.044
36.94,-0.513,1.204,-0.187
36.95,-0.092,0.954,-0.005
36.96,-0.185,1.203,0.096
36.97,-0.22,0.681,0.172
36.98,-0.204,1.0,-0.094
36.99,-0.371,1.107,-0.207
37.0,-0.159,0.912,0.146
37.01,-0.043,1.092,0.083
37.02,-0.244,0.593,-0.026
37.03,-0.46,1.302,-0.119
37.04,-0.028,0.919,-0.059
37.05,-0.243,1.01,0.106
37.06,0.005,0.87,0.14
37.07,-0.446,0.977,-0.196
37.08,-0.354,1.08,-0.04
37.09,0.039,1.011,0.093
37.1,-0.18,1.004,0.052
37.11,-0.187,0.673,-0.018
37.12,-0.294,1.363,-0.201
37.13,-0.287,0.783,0.111
37.14,-0.018,1.128,0.153
37.15,-0.12,0.681,-0.016
37.16,-0.53,1.117,-0.131
37.17,-0.025,1.083,-0.067
37.18,-0.215,0.854,0.073
37.19,-0.158,0.99,0.193
37.2,-0.264,0.739,-0.178
37.21,-0.347,1.197,-0.139
37.22,0.006,0.909,0.123
37.23,-0.231,1.034,0.137
37.24,-0.242,0.677,0.041
37.25,-0.302,1.231,-0.203
37.26,-0.113,1.042,-0.072
37.27,-0.262,0.742,0.189
37.28,-0.076,1.055,0.088
37.29,-0.399,0.755,-0.273
37.3,-0.208,1.199,-0.025
37.31,-0.041,0.958,0.102
37.32,-0.255,0.853,0.078
37.33,-0.121,0.865,-0.021
37.34,-0.349,1.099,-0.229
37.35,-0.231,1.077,0.095
37.36,-0.049,0.773,0.13
37.37,-0.225,1.012,-0.027
37.38,-0.406,0.839,-0.126
37.39,-0.108,1.239,-0.101
37.4,-0.147,0.761,0.058
37.41,-0.138,0.927,0.179
37.42,-0.268,0.99,-0.174
37.43,-0.391,0.888,-0.114
37.44,0.018,1.24,0.045
37.45,-0.101,0.636,0.101
37.46,-0.319,1.056,0.059
37.47,-0.295,0.955,-0.233
37.48,-0.143,1.084,-0.066
37.49,-0.142,0.887,0.203
37.5,-0.137,0.854,0.102
37.51,-0.398,1.029,-0.21
37.52,-0.192,0.927,-0.048
37.53,-0.12,1.258,0.052
37.54,-0.106,0.599,0.138
37.55,-0.272,1.088,-0.002
37.56,-0.393,0.968,-0.241
37.57,-0.084,1.07,-0.009
37.58,-0.126,1.016,0.142
37.59,-0.177,0.706,0.095
37.6,-0.466,1.169,-0.166
37.61,-0.036,0.958,-0.049
37.62,-0.199,1.146,0.047
37.63,-0.138,0.652,0.159
37.64,-0.258,1.119,-0.094
37.65,-0.307,0.936,-0.19
37.66,-0.081,1.089,0.184
37.67,-0.172,0.983,0.103
37.68,-0.242,0.676,-0.026
37.69,-0.368,1.305,-0.181
37.7,-0.097,0.866,-0.04
37.71,-0.187,1.153,0.147
37.72,-0.062,0.756,0.16
37.73,-0.445,1.001,-0.185
37.74,-0.285,0.982,-0.041
37.75,-0.111,1.102,0.112
37.76,-0.215,0.909,0.095
37.77,-0.211,0.707,0.04
37.78,-0.398,1.353,-0.241
37.79,-0.055,0.794,0.016
37.8,-0.197,1.15,0.134
37.81,-0.08,0.721,0.061
37.82,-0.397,1.062,-0.168
37.83,-0.235,1.128,-0.045
37.84,-0.083,0.88,0.083
37.85,-0.157,0.992,0.144
37.86,-0.28,0.726,-0.077
37.87,-0.324,1.279,-0.194
37.88,-0.105,0.85,0.08
37.89,-0.156,1.11,0.173
37.9,-0.151,0.753,0.033
37.91,-0.421,1.043,-0.199
37.92,-0.174,1.146,-0.032
37.93,-0.077,0.787,0.115
37.94,-0.201,1.017,0.135
37.95,-0.368,0.793,-0.175
37.96,-0.217,1.259,-0.094
37.97,-0.067,0.891,0.086
37.98,-0.21,1.003,0.163
37.99,-0.193,0.743,0.011
38.0,-0.356,1.21,-0.271
38.01,-0.04,0.963,-0.009
38.02,-0.188,0.922,0.213
38.03,-0.193,0.981,0.035
38.04,-0.335,0.817,-0.215
38.05,-0.142,1.308,-0.069
38.06,-0.104,0.737,0.084
38.07,-0.116,0.995,0.135
38.08,-0.292,0.853,-0.103
38.09,-0.392,0.989,-0.163
38.1,0.014,1.122,0.09
38.11,-0.089,0.82,0.134
38.12,-0.307,0.985,0.048
38.13,-0.343,0.926,-0.157
38.14,-0.137,1.26,-0.097
38.15,-0.144,0.692,0.137
38.16,-0.078,1.02,0.131
38.17,-0.333,0.926,-0.227
38.18,-0.305,0.95,-0.085
38.19,-0.063,1.22,0.104
38.2,-0.138,0.654,0.102
38.21,-0.256,1.08,0.005
38.22,-0.278,0.932,-0.182
38.23,-0.235,1.175,0.036
38.24,-0.134,0.766,0.178
38.25,-0.082,0.954,0.098
38.26,-0.454,1.006,-0.22
38.27,-0.194,0.922,-0.023
38.28,-0.08,1.21,0.072
38.29,-0.199,0.585,0.13
38.3,-0.272,1.143,0.014
38.31,-0.311,0.948,-0.169
38.32,-0.215,1.112,0.075
38.33,-0.05,0.863,0.112
38.34,-0.161,0.836,0.004
38.35,-0.453,1.149,-0.198
38.36,-0.049,0.893,-0.054
38.37,-0.21,1.111,0.116
38.38,-0.12,0.662,0.146
38.39,-0.368,1.094,-0.194
38.4,-0.254,0.879,-0.148
38.41,-0.009,1.198,0.092
38.42,-0.152,0.81,0.107
38.43,-0.204,0.795,0.006
38.44,-0.343,1.302,-0.199
38.45,-0.132,0.797,0.01
38.46,-0.205,1.146,0.155
38.47,-0.019,0.677,0.048
38.48,-0.459,1.124,-0.174
38.49,-0.252,0.959,-0.006
38.5,-0.076,1.077,0.079
38.51,-0.143,0.869,0.089
38.52,-0.256,0.781,-0.028
38.53,-0.319,1.236,-0.225
38.54,-0.083,0.847,0.097
38.55,-0.156,1.169,0.149
38.56,-0.102,0.648,0.017
38.57,-0.478,1.196,-0.191
38.58,-0.07,1.028,-0.074
38.59,-0.157,0.869,0.077
38.6,-0.17,0.934,0.182
38.61,-0.281,0.823,-0.158
38.62,-0.296,1.225,-0.172
38.63,-0.01,0.905,0.131
38.64,-0.151,1.009,0.122
38.65,-0.262,0.706,0.035
38.66,-0.352,1.225,-0.199
38.67,-0.092,0.995,-0.06
38.68,-0.278,0.804,0.197
38.69,-0.035,1.025,0.096
38.7,-0.447,0.748,-0.207
38.71,-0.26,1.239,-0.002
38.72,-0.038,0.837,0.122
38.73,-0.311,0.928,0.149
38.74,-0.135,0.845,-0.045
38.75,-0.303,1.138,-0.189
38.76,-0.214,1.039,0.105
38.77,-0.083,0.895,0.141
38.78,-0.297,0.903,-0.002
38.79,-0.343,0.961,-0.212
38.8,-0.084,1.187,-0.051
38.81,-0.179,0.718,0.144
38.82,-0.125,1.057,0.135
38.83,-0.267,0.787,-0.224
38.84,-0.317,1.166,-0.073
38.85,-0.042,1.04,0.087
38.86,-0.141,0.715,0.074
38.87,-0.272,1.0,0.049
38.88,-0.271,0.987,-0.263
38.89,-0.103,1.156,-0.036
38.9,-0.136,0.721,0.226
38.91,-0.107,0.966,0.036
38.92,-0.458,0.931,-0.191
38.93,-0.055,1.125,-0.048
38.94,-0.121,0.987,0.089
38.95,-0.205,0.731,0.204
38.96,-0.324,1.173,-0.05
38.97,-0.333,0.806,-0.175
38.98,-0.162,1.214,0.14
38.99,-0.047,0.773,0.125
39.0,-0.313,0.925,-0.012
39.01,-0.278,1.011,-0.148
39.02,-0.091,1.091,-0.02
39.03,-0.263,0.97,0.116
39.04,0.061,0.702,0.136
39.05,-0.465,1.21,-0.199
39.06,-0.297,0.852,-0.002
39.07,-0.045,1.283,0.075
39.08,-0.168,0.691,0.089
39.09,-0.203,0.991,0.038
39.1,-0.342,1.102,-0.224
39.11,-0.264,0.846,0.045
39.12,-0.072,1.161,0.133
39.13,-0.048,0.652,0.046
39.14,-0.564,1.187,-0.162
39.15,0.0,0.896,-0.101
39.16,-0.146,1.153,0.087
39.17,-0.292,0.756,0.228
39.18,-0.187,0.94,-0.093
39.19,-0.317,1.088,-0.182
39.2,-0.117,0.921,0.141
39.21,-0.062,1.119,0.13
39.22,-0.245,0.621,0.032
39.23,-0.512,1.263,-0.149
39.24,0.002,0.92,-0.09
39.25,-0.217,1.084,0.126
39.26,-0.171,0.826,0.177
39.27,-0.328,0.889,-0.182
39.28,-0.287,1.128,-0.134
39.29,-0.066,0.96,0.125
39.3,-0.075,1.015,0.104
39.31,-0.313,0.669,0.026
39.32,-0.41,1.303,-0.172
39.33,-0.061,0.888,-0.017
39.34,-0.208,0.971,0.189
39.35,-0.116,0.905,0.086
39.36,-0.398,0.88,-0.247
39.37,-0.239,1.234,-0.035
39.38,-0.003,0.852,0.052
39.39,-0.175,0.972,0.094
39.4,-0.27,0.764,-0.03
39.41,-0.308,1.232,-0.187
39.42,-0.203,0.936,0.06
39.43,-0.045,0.898,0.116
39.44,-0.139,0.927,-0.011
39.45,-0.454,0.904,-0.118
39.46,-0.134,1.231,-0.041
39.47,-0.091,0.706,0.116
39.48,-0.179,1.069,0.174
39.49,-0.305,0.821,-0.201
39.5,-0.277,1.106,-0.139
39.51,-0.024,1.086,0.066
39.52,-0.114,0.745,0.139
39.53,-0.255,1.022,0.0
39.54,-0.371,0.941,-0.195
39.55,-0.13,1.195,-0.04
39.56,-0.096,0.737,0.172
39.57,-0.148,0.97,0.083
39.58,-0.402,0.86,-0.158
39.59,-0.151,1.176,-0.12
39.6,-0.097,0.821,0.123
39.61,-0.182,0.872,0.207
39.62,-0.385,1.021,-0.121
39.63,-0.246,0.834,-0.155
39.64,-0.135,1.313,0.079
39.65,-0.16,0.681,0.15
39.66,-0.19,1.051,0.027
39.67,-0.419,0.965,-0.182
39.68,-0.165,1.114,-0.016
39.69,-0.176,0.871,0.103
39.7,-0.117,0.823,0.139
39.71,-0.381,1.095,-0.22
39.72,-0.22,0.84,-0.083
39.73,-0.066,1.317,0.068
39.74,-0.124,0.599,0.135
39.75,-0.244,1.064,0.05
39.76,-0.348,0.992,-0.269
39.77,-0.076,0.936,-0.041
39.78,-0.144,1.022,0.169
39.79,-0.155,0.712,0.093
39.8,-0.459,1.158,-0.171
39.81,-0.039,0.888,-0.064
39.82,-0.201,1.21,0.068
39.83,-0.074,0.627,0.174
39.84,-0.293,1.083,-0.045
39.85,-0.346,0.947,-0.206
39.86,-0.14,1.014,0.114
39.87,-0.054,1.051,0.067
39.88,-0.236,0.652,0.013
39.89,-0.413,1.272,-0.195
39.9,-0.104,0.88,-0.054
39.91,-0.208,1.092,0.07
39.92,0.01,0.743,0.171
39.93,-0.349,1.018,-0.158
39.94,-0.329,0.994,-0.162
39.95,0.072,1.045,0.041
39.96,-0.166,0.998,0.086
39.97,-0.283,0.667,0.095
39.98,-0.351,1.348,-0.267
39.99,-0.095,0.799,-0.041
40.0,-0.198,1.125,0.168
40.01,-0.056,0.795,0.122
40.02,-0.462,0.966,-0.229
40.03,-0.139,1.093,-0.075
40.04,-0.009,0.946,0.093
40.05,-0.209,1.014,0.143
40.06,-0.225,0.688,-0.023
40.07,-0.319,1.328,-0.236
40.08,-0.091,0.863,0.018
40.09,-0.14,1.137,0.212
40.1,-0.14,0.777,0.026
40.11,-0.443,0.942,-0.15
40.12,-0.128,1.24,-0.049
40.13,-0.092,0.8,0.097
40.14,-0.25,1.005,0.149
40.15,-0.17,0.741,-0.12
40.16,-0.403,1.214,-0.136
40.17,-0.092,0.894,0.119
40.18,-0.108,1.031,0.127
40.19,-0.223,0.823,-0.033
40.2,-0.395,0.959,-0.099
40.21,-0.138,1.28,-0.071
40.22,-0.116,0.678,0.118
40.23,-0.121,1.09,0.186
40.24,-0.285,0.803,-0.179
40.25,-0.318,1.192,-0.155
40.26,0.011,0.983,0.079
40.27,-0.076,0.808,0.098
40.28,-0.324,0.948,0.024
40.29,-0.255,0.975,-0.179
40.3,-0.176,1.184,-0.003
40.31,-0.24,0.704,0.208
40.32,-0.13,1.044,0.063
40.33,-0.381,0.822,-0.204
40.34,-0.229,1.144,-0.007
40.35,-0.071,0.986,0.062
40.36,-0.157,0.686,0.168
40.37,-0.234,1.12,-0.028
40.38,-0.323,0.917,-0.178
40.39,-0.228,1.144,0.061
40.4,-0.099,0.77,0.155
40.41,-0.217,1.011,-0.058
40.42,-0.358,0.889,-0.17
40.43,-0.165,1.216,-0.018
40.44,-0.19,0.788,0.097
40.45,-0.054,0.885,0.164
40.46,-0.369,1.004,-0.139
40.47,-0.283,0.88,-0.074
40.48,-0.114,1.292,0.056
40.49,-0.157,0.576,0.095
40.5,-0.22,1.092,0.052
40.51,-0.397,0.967,-0.243
40.52,-0.132,0.994,0.0
40.53,-0.141,0.899,0.201
40.54,-0.166,0.816,0.074
40.55,-0.325,1.093,-0.236
40.56,-0.132,0.945,-0.045
40.57,-0.174,1.195,0.047
40.58,-0.062,0.62,0.149
40.59,-0.268,1.158,-0.033
40.6,-0.432,0.918,-0.174
40.61,-0.103,1.019,0.057
40.62,-0.073,1.081,0.104
40.63,-0.227,0.676,0.083
40.64,-0.393,1.164,-0.14
40.65,-0.095,0.978,-0.099
40.66,-0.159,1.125,0.08
40.67,-0.041,0.715,0.205
40.68,-0.447,1.064,-0.14
40.69,-0.248,0.882,-0.188
40.7,-0.042,1.155,0.141
40.71,-0.255,0.946,0.143
40.72,-0.227,0.689,0.071
40.73,-0.334,1.352,-0.213
40.74,-0.161,0.794,-0.081
40.75,-0.184,1.142,0.165
40.76,-0.013,0.766,0.109
40.77,-0.499,1.006,-0.187
40.78,-0.192,1.019,-0.055
40.79,-0.08,1.066,0.059
40.8,-0.168,0.905,0.115
40.81,-0.203,0.716,0.022
40.82,-0.414,1.365,-0.258
40.83,-0.072,0.728,-0.012
40.84,-0.113,1.187,0.169
40.85,-0.12,0.742,0.083
40.86,-0.446,0.99,-0.181
40.87,-0.033,1.15,-0.089
40.88,-0.17,0.895,0.094
40.89,-0.222,0.975,0.203
40.9,-0.178,0.729,-0.062
40.91,-0.462,1.221,-0.255
40.92,-0.052,0.877,0.155
40.93,-0.081,1.168,0.125
40.94,-0.282,0.696,0.015
40.95,-0.271,1.033,-0.123
40.96,-0.083,1.244,-0.116
40.97,-0.223,0.72,0.117
40.98,-0.098,1.097,0.206
40.99,-0.317,0.755,-0.164
41.0,-0.39,1.141,-0.143
41.01,0.001,0.999,0.066
41.02,-0.201,0.908,0.066
41.03,-0.178,0.856,0.024
41.04,-0.338,1.103,-0.172
41.05,-0.141,1.161,-0.056
41.06,-0.197,0.745,0.18
41.07,-0.03,1.069,0.08
41.08,-0.421,0.724,-0.19
41.09,-0.231,1.183,-0.047
41.1,-0.04,1.024,0.048
41.11,-0.236,0.75,0.148
41.12,-0.177,0.987,-0.001
41.13,-0.296,1.047,-0.232
41.14,-0.155,1.099,-0.015
41.15,-0.071,0.746,0.204
41.16,-0.177,1.052,0.053
41.17,-0.455,0.826,-0.186
41.18,-0.043,1.204,-0.043
41.19,-0.121,0.939,0.068
41.2,-0.199,0.73,0.219
41.21,-0.195,1.133,-0.051
41.22,-0.391,0.929,-0.183
41.23,-0.087,1.146,0.123
41.24,-0.078,0.766,0.099
41.25,-0.357,1.009,0.034
41.26,-0.307,0.909,-0.166
41.27,-0.197,1.229,-0.055
41.28,-0.14,0.738,0.128
41.29,-0.052,0.953,0.195
41.3,-0.411,1.027,-0.199
41.31,-0.277,0.867,-0.095
41.32,-0.04,1.268,0.062
41.33,-0.145,0.619,0.093
41.34,-0.28,1.094,0.046
41.35,-0.332,0.926,-0.207
41.36,-0.227,1.099,0.036
41.37,-0.132,0.926,0.16
41.38,-0.121,0.795,0.086
41.39,-0.371,1.083,-0.154
41.4,-0.161,0.942,-0.05
41.41,-0.148,1.155,0.053
41.42,-0.128,0.63,0.167
41.43,-0.338,1.125,-0.04
41.44,-0.355,0.849,-0.195
41.45,-0.123,1.117,0.071
41.46,-0.116,1.015,0.144
41.47,-0.161,0.716,0.043
41.48,-0.389,1.197,-0.191
41.49,-0.064,0.927,-0.077
41.5,-0.157,1.149,0.092
41.51,-0.1,0.684,0.176
41.52,-0.394,1.083,-0.111
41.53,-0.262,0.869,-0.15
41.54,-0.103,1.154,0.147
41.55,-0.17,1.007,0.129
41.56,-0.245,0.681,0.03
41.57,-0.371,1.301,-0.145
41.58,-0.089,0.866,-0.059
41.59,-0.273,1.132,0.165
41.6,-0.008,0.736,0.15
41.61,-0.484,1.01,-0.182
41.62,-0.249,0.967,-0.053
41.63,-0.024,1.082,0.013
41.64,-0.202,0.909,0.086
41.65,-0.198,0.726,0.066
41.66,-0.386,1.363,-0.28
41.67,-0.108,0.725,0.022
41.68,-0.203,1.207,0.196
41.69,-0.075,0.696,0.061
41.7,-0.514,1.016,-0.173
41.71,-0.07,1.126,-0.109
41.72,-0.086,0.895,0.046
41.73,-0.198,1.002,0.159
41.74,-0.167,0.707,-0.037
41.75,-0.38,1.281,-0.198
41.76,-0.104,0.808,0.076
41.77,-0.019,1.12,0.129
41.78,-0.173,0.738,0.031
41.79,-0.456,0.991,-0.136
41.8,-0.027,1.221,-0.095
41.81,-0.145,0.781,0.082
41.82,-0.194,1.08,0.162
41.83,-0.256,0.716,-0.133
41.84,-0.364,1.213,-0.141
41.85,-0.082,0.959,0.126
41.86,-0.166,0.946,0.107
41.87,-0.272,0.816,0.022
41.88,-0.282,1.074,-0.169
41.89,-0.188,1.166,-0.048
41.9,-0.157,0.702,0.17
41.91,-0.12,1.106,0.109
41.92,-0.425,0.727,-0.176
41.93,-0.219,1.16,-0.047
41.94,-0.03,1.035,0.07
41.95,-0.215,0.777,0.137
41.96,-0.231,0.965,0.009
41.97,-0.381,0.999,-0.218
41.98,-0.134,1.089,-0.005
41.99,0.008,0.778,0.193
42.0,-0.187,1.08,0.033
42.01,-0.424,0.785,-0.177
42.02,-0.12,1.173,-0.048
42.03,-0.157,0.753,0.123
42.04,-0.125,0.962,0.181
42.05,-0.336,0.968,-0.159
42.06,-0.303,0.924,-0.161
42.07,-0.04,1.246,0.089
42.08,-0.093,0.724,0.139
42.09,-0.319,1.021,-0.012
42.1,-0.308,0.9,-0.146
42.11,-0.162,1.184,-0.03
42.12,-0.191,0.762,0.164
42.13,-0.119,0.907,0.138
42.14,-0.408,1.029,-0.204
42.15,-0.173,0.939,-0.075
42.16,-0.116,1.202,0.058
42.17,-0.116,0.624,0.131
42.18,-0.297,1.133,0.008
42.19,-0.275,0.871,-0.264
42.2,-0.16,1.131,0.053
42.21,-0.09,0.899,0.139
42.22,-0.195,0.837,0.071
42.23,-0.383,1.082,-0.166
42.24,-0.126,0.899,-0.069
42.25,-0.145,1.18,0.086
42.26,-0.132,0.664,0.176
42.27,-0.323,1.095,-0.027
42.28,-0.326,0.877,-0.213
42.29,-0.122,1.138,0.073
42.3,-0.053,0.953,0.129
42.31,-0.2,0.729,0.01
42.32,-0.419,1.175,-0.19
42.33,0.001,0.893,-0.075
42.34,-0.201,1.14,0.119
42.35,-0.115,0.667,0.184
42.36,-0.394,1.138,-0.15
42.37,-0.322,0.894,-0.108
42.38,-0.028,1.134,0.072
42.39,-0.103,0.917,0.103
42.4,-0.246,0.74,0.018
42.41,-0.377,1.314,-0.194
42.42,-0.078,0.797,-0.051
42.43,-0.217,1.158,0.187
42.44,-0.004,0.667,0.056
42.45,-0.463,1.085,-0.196
42.46,-0.197,1.029,-0.046
42.47,-0.079,0.996,0.037
42.48,-0.129,0.907,0.12
42.49,-0.243,0.768,-0.018
42.5,-0.358,1.284,-0.205
42.51,-0.127,0.836,0.097
42.52,-0.159,1.174,0.149
42.53,-0.136,0.636,0.017
42.54,-0.463,1.098,-0.17
42.55,-0.078,1.146,-0.079
42.56,-0.137,0.809,0.087
42.57,-0.159,1.031,0.229
42.58,-0.249,0.755,-0.177
42.59,-0.414,1.211,-0.098
42.6,-0.005,0.931,0.112
42.61,-0.138,1.008,0.12
42.62,-0.229,0.779,0.056
42.63,-0.362,1.173,-0.167
42.64,-0.146,1.062,-0.091
42.65,-0.11,0.792,0.208
42.66,-0.212,1.054,0.113
42.67,-0.329,0.709,-0.206
42.68,-0.177,1.32,-0.039
42.69,-0.107,0.894,0.089
42.7,-0.217,0.852,0.17
42.71,-0.201,0.94,0.016
42.72,-0.418,1.034,-0.209
42.73,-0.17,1.083,0.036
42.74,-0.021,0.827,0.138
42.75,-0.218,1.026,0.028
42.76,-0.379,0.836,-0.139
42.77,-0.174,1.252,-0.072
42.78,-0.041,0.669,0.083
42.79,-0.451,1.156,-0.183
42.8,-0.124,0.914,-0.007
42.81,-0.118,1.224,0.091
42.82,-0.167,0.694,0.163
42.83,-0.217,0.99,-0.074
42.84,-0.378,1.013,-0.223
42.85,-0.072,0.96,0.102
42.86,-0.156,1.174,0.114
42.87,-0.137,0.606,-0.019
42.88,-0.437,1.244,-0.143
42.89,-0.076,0.922,-0.072
42.9,-0.155,1.087,0.109
42.91,-0.117,0.824,0.184
42.92,-0.352,0.939,-0.15
42.93,-0.298,1.057,-0.154
42.94,-0.001,0.977,0.056
42.95,-0.179,1.025,0.105
42.96,-0.17,0.647,0.014
42.97,-0.407,1.396,-0.179
42.98,-0.154,0.861,-0.045
42.99,-0.199,1.005,0.167
43.0,-0.079,0.886,0.149
43.01,-0.405,0.878,-0.2
43.02,-0.309,1.129,-0.098
43.03,-0.041,0.926,0.099
43.04,-0.136,1.033,0.082
43.05,-0.233,0.656,-0.017
43.06,-0.312,1.253,-0.2
43.07,-0.117,0.904,-0.001
43.08,-0.198,1.011,0.203
43.09,-0.099,0.869,0.071
43.1,-0.407,0.895,-0.178
43.11,-0.151,1.299,-0.107
43.12,-0.053,0.754,0.059
43.13,-0.167,1.063,0.198
43.14,-0.267,0.76,-0.06
43.15,-0.396,1.142,-0.194
43.16,-0.125,0.964,0.062
43.17,-0.075,0.955,0.132
43.18,-0.176,0.905,0.049
43.19,-0.413,0.88,-0.16
43.2,-0.173,1.238,-0.059
43.21,-0.115,0.722,0.133
43.22,-0.193,1.046,0.172
43.23,-0.27,0.78,-0.159
43.24,-0.275,1.08,-0.137
43.25,-0.06,1.129,0.114
43.26,-0.133,0.774,0.101
43.27,-0.239,0.984,0.03
43.28,-0.348,0.989,-0.182
43.29,-0.189,1.169,-0.039
43.3,-0.12,0.748,0.178
43.31,-0.112,1.034,0.105
43.32,-0.372,0.862,-0.201
43.33,-0.241,1.071,-0.05
43.34,-0.047,1.098,0.026
43.35,-0.14,0.642,0.143
43.36,-0.32,1.13,0.055
43.37,-0.368,0.907,-0.248
43.38,-0.129,1.154,-0.002
43.39,-0.122,0.852,0.146
43.4,-0.156,0.898,0.042
43.41,-0.348,0.926,-0.194
43.42,-0.059,1.069,-0.114
43.43,-0.122,1.057,0.046
43.44,-0.094,0.646,0.17
43.45,-0.246,1.169,-0.055
43.46,-0.378,0.816,-0.183
43.47,-0.116,1.203,0.089
43.48,-0.059,0.838,0.08
43.49,-0.25,0.864,0.044
43.5,-0.314,1.135,-0.226
43.51,-0.112,0.948,-0.071
43.52,-0.213,1.087,0.121
43.53,-0.064,0.69,0.174
43.54,-0.416,1.155,-0.149
43.55,-0.275,0.795,-0.148
43.56,-0.015,1.251,0.081
43.57,-0.184,0.793,0.115
43.58,-0.226,0.827,0.057
43.59,-0.313,1.26,-0.238
43.6,-0.111,0.82,-0.045
43.61,-0.083,1.074,0.117
43.62,-0.095,0.692,0.108
43.63,-0.489,1.176,-0.18
43.64,-0.084,0.86,-0.065
43.65,-0.09,1.219,0.081
43.66,-0.224,0.711,0.181
43.67,-0.173,0.995,-0.102
43.68,-0.372,1.031,-0.205
43.69,-0.125,0.917,0.089
43.7,-0.086,1.143,0.08
43.71,-0.089,0.609,0.009
43.72,-0.447,1.295,-0.2
43.73,-0.043,0.902,-0.113
43.74,-0.23,1.098,0.096
43.75,-0.083,0.79,0.224
43.76,-0.309,0.99,-0.134
43.77,-0.242,1.036,-0.176
43.78,-0.079,0.974,0.109
43.79,-0.147,1.055,0.128
43.8,-0.172,0.67,0.04
43.81,-0.385,1.351,-0.209
43.82,-0.128,0.83,-0.029
43.83,-0.22,1.074,0.195
43.84,-0.105,0.83,0.146
43.85,-0.38,0.889,-0.139
43.86,-0.356,1.144,-0.087
43.87,-0.044,0.911,0.103
43.88,-0.181,1.029,0.102
43.89,-0.194,0.69,0.047
43.9,-0.384,1.309,-0.237
43.91,-0.114,0.865,-0.014
43.92,-0.163,1.024,0.149
43.93,-0.07,0.861,0.071
43.94,-0.504,0.939,-0.142
43.95,-0.076,1.245,-0.123
43.96,-0.133,0.802,0.07
43.97,-0.207,0.992,0.155
43.98,-0.22,0.771,-0.042
43.99,-0.368,1.141,-0.198
44.0,-0.065,1.026,0.033
44.01,-0.167,0.977,0.17
44.02,-0.135,0.878,0.039
44.03,-0.414,0.909,-0.124
44.04,-0.147,1.268,-0.082
44.05,-0.106,0.711,0.101
44.06,-0.157,1.032,0.169
44.07,-0.316,0.852,-0.114
44.08,-0.264,1.096,-0.135
44.09,-0.146,1.075,0.115
44.1,-0.125,0.861,0.155
44.11,-0.205,0.964,-0.005
44.12,-0.44,0.894,-0.16
44.13,-0.107,1.239,-0.031
44.14,-0.129,0.695,0.089
44.15,-0.191,1.015,0.224
44.16,-0.318,0.873,-0.155
44.17,-0.29,1.054,-0.093
44.18,-0.062,1.138,0.105
44.19,-0.116,0.683,0.1
44.2,-0.294,1.061,0.041
44.21,-0.296,0.901,-0.238
44.22,-0.106,1.164,-0.032
44.23,-0.146,0.763,0.162
44.24,-0.116,0.946,0.094
44.25,-0.417,0.973,-0.221
44.26,-0.138,1.016,-0.037
44.27,-0.127,1.151,0.054
44.28,-0.129,0.639,0.129
44.29,-0.262,1.12,-0.045
44.3,-0.331,0.831,-0.185
44.31,-0.16,1.182,0.107
44.32,-0.102,0.844,0.13
44.33,-0.173,0.855,0.066
44.34,-0.404,1.104,-0.188
44.35,-0.07,0.953,-0.151
44.36,-0.152,1.073,0.078
44.37,-0.149,0.751,0.209
44.38,-0.387,1.133,-0.121
44.39,-0.334,0.779,-0.132
44.4,0.016,1.256,0.081
44.41,-0.129,0.825,0.091
44.42,-0.319,0.973,0.026
44.43,-0.24,1.036,-0.242
44.44,-0.121,0.93,-0.04
44.45,-0.224,1.029,0.232
44.46,-0.119,0.737,0.104
44.47,-0.479,1.121,-0.176
44.48,-0.172,0.895,-0.031
44.49,-0.056,1.279,0.061
44.5,-0.154,0.601,0.147
44.51,-0.265,1.021,0.024
44.52,-0.327,1.092,-0.254
44.53,-0.09,0.872,-0.023
44.54,-0.127,1.173,0.178
44.55,-0.101,0.622,-0.012
44.56,-0.522,1.234,-0.143
44.57,-0.039,0.895,-0.055
44.58,-0.097,1.124,0.041
44.59,-0.167,0.743,0.229
44.6,-0.286,1.025,-0.096
44.61,-0.291,1.027,-0.212
44.62,-0.107,0.971,0.126
44.63,-0.092,1.135,0.078
44.64,-0.193,0.627,-0.008
44.65,-0.5,1.311,-0.148
44.66,-0.067,0.911,-0.054
44.67,-0.166,1.077,0.119
44.68,-0.17,0.789,0.226
44.69,-0.355,0.929,-0.138
44.7,-0.281,1.151,-0.142
44.71,-0.104,0.871,0.054
44.72,-0.111,1.039,0.116
44.73,-0.202,0.681,0.006
44.74,-0.455,1.297,-0.161
44.75,-0.091,0.886,0.005
44.76,-0.241,1.064,0.148
44.77,-0.075,0.885,0.147
44.78,-0.371,0.849,-0.208
44.79,-0.293,1.216,-0.027
44.8,-0.003,0.873,0.099
44.81,-0.204,1.016,0.119
44.82,-0.195,0.731,-0.022
44.83,-0.383,1.248,-0.262
44.84,-0.076,0.914,0.033
44.85,-0.201,1.026,0.239
44.86,-0.201,0.871,0.047
44.87,-0.439,0.844,-0.196
44.88,-0.132,1.316,-0.023
44.89,-0.1,0.768,0.075
44.9,-0.187,1.006,0.198
44.91,-0.22,0.819,-0.108
44.92,-0.339,1.08,-0.17
44.93,-0.148,1.02,0.142
44.94,-0.076,0.891,0.144
44.95,-0.26,0.931,0.028
44.96,-0.407,0.911,-0.151
44.97,-0.153,1.262,-0.028
44.98,-0.157,0.705,0.109
44.99,-0.14,0.997,0.173
45.0,-0.335,0.883,-0.169
45.01,-0.285,1.016,-0.109
45.02,-0.022,1.159,0.06
45.03,-0.094,0.674,0.129
45.04,-0.343,1.063,0.026
45.05,-0.344,0.898,-0.213
45.06,-0.109,1.172,-0.02
45.07,-0.163,0.809,0.189
45.08,-0.154,0.938,0.066
45.09,-0.347,0.944,-0.194
45.1,-0.186,1.028,-0.043
45.11,-0.128,1.078,0.044
45.12,-0.106,0.639,0.184
45.13,-0.32,1.179,-0.08
45.14,-0.337,0.798,-0.194
45.15,-0.149,1.205,0.054
45.16,-0.105,0.875,0.13
45.17,-0.14,0.837,-0.012
45.18,-0.386,1.087,-0.164
45.19,-0.048,0.987,-0.124
45.2,-0.165,1.062,0.116
45.21,-0.084,0.665,0.199
45.22,-0.401,1.189,-0.145
45.23,-0.267,0.765,-0.191
45.24,-0.11,1.364,0.076
45.25,-0.083,0.663,0.114
45.26,-0.319,1.0,0.041
45.27,-0.315,1.036,-0.209
45.28,-0.091,1.007,-0.011
45.29,-0.183,0.941,0.139
45.3,-0.014,0.757,0.107
45.31,-0.538,1.212,-0.212
45.32,-0.164,0.774,-0.036
45.33,-0.013,1.298,0.07
45.34,-0.208,0.664,0.077
45.35,-0.199,0.99,-0.015
45.36,-0.347,1.09,-0.184
45.37,-0.246,0.924,0.108
45.38,-0.115,1.072,0.143
45.39,-0.089,0.654,0.014
45.4,-0.558,1.261,-0.156
45.41,-0.052,0.854,-0.082
45.42,-0.147,1.108,0.06
45.43,-0.133,0.78,0.171
45.44,-0.33,0.96,-0.117
45.45,-0.281,1.095,-0.161
45.46,-0.077,0.976,0.142
45.47,-0.16,1.012,0.123
45.48,-0.272,0.677,0.069
45.49,-0.379,1.366,-0.249
45.5,-0.096,0.778,-0.061
45.51,-0.189,1.066,0.184
45.52,-0.05,0.829,0.119
45.53,-0.485,0.927,-0.153
45.54,-0.216,1.172,-0.032
45.55,-0.088,0.918,0.081
45.56,-0.215,0.975,0.154
45.57,-0.184,0.734,-0.009
45.58,-0.408,1.318,-0.248
45.59,-0.079,0.847,-0.017
45.6,-0.09,1.081,0.176
45.61,-0.128,0.851,0.053
45.62,-0.453,0.888,-0.179
45.63,-0.068,1.277,-0.054
45.64,-0.159,0.797,0.108
45.65,-0.255,1.048,0.213
45.66,-0.22,0.764,-0.156
45.67,-0.33,1.163,-0.155
45.68,-0.124,0.984,0.141
45.69,-0.159,0.912,0.15
45.7,-0.208,0.879,-0.03
45.71,-0.359,0.986,-0.173
45.72,-0.13,1.174,-0.043
45.73,-0.155,0.736,0.14
45.74,-0.128,1.066,0.145
45.75,-0.399,0.812,-0.161
45.76,-0.265,1.135,-0.106
45.77,-0.086,1.07,0.08
45.78,-0.108,0.719,0.113
45.79,-0.266,1.031,0.038
45.8,-0.343,0.939,-0.24
45.81,-0.118,1.167,-0.0
45.82,-0.137,0.779,0.177
45.83,-0.203,0.996,0.076
45.84,-0.379,0.901,-0.195
45.85,-0.208,1.118,-0.012
45.86,-0.197,0.98,0.131
45.87,-0.157,0.701,0.149
45.88,-0.275,1.178,-0.067
45.89,-0.288,0.816,-0.207
45.9,-0.133,1.185,0.085
45.91,-0.052,0.77,0.13
45.92,-0.178,0.916,-0.039
45.93,-0.426,1.02,-0.143
45.94,-0.151,1.003,-0.027
45.95,-0.189,0.998,0.064
45.96,-0.054,0.723,0.2
45.97,-0.432,1.164,-0.175
45.98,-0.263,0.779,-0.127
45.99,-0.019,1.295,0.089
46.0,-0.155,0.677,0.131
46.01,-0.278,0.919,0.028
46.02,-0.274,1.128,-0.25
46.03,-0.176,0.905,0.006
46.04,-0.276,1.095,0.194
46.05,-0.011,0.679,0.094
46.06,-0.544,1.183,-0.167
46.07,-0.004,0.887,-0.082
46.08,-0.174,1.216,0.075
46.09,-0.167,0.685,0.225
46.1,-0.263,1.053,-0.11
46.11,-0.379,0.916,-0.189
46.12,-0.12,1.11,0.139
46.13,-0.126,1.013,0.079
46.14,-0.276,0.646,0.036
46.15,-0.415,1.332,-0.137
46.16,-0.076,0.885,-0.074
46.17,-0.251,1.065,0.115
46.18,-0.006,0.764,0.187
46.19,-0.431,1.047,-0.157
46.2,-0.31,0.969,-0.09
46.21,0.005,1.118,0.075
46.22,-0.208,0.988,0.111
46.23,-0.267,0.676,0.059
46.24,-0.353,1.336,-0.233
46.25,-0.088,0.74,-0.034
46.26,-0.148,1.131,0.216
46.27,-0.141,0.742,0.089
46.28,-0.495,0.97,-0.158
46.29,-0.136,1.162,-0.028
46.3,-0.117,0.948,0.079
46.31,-0.188,0.934,0.102
46.32,-0.211,0.751,-0.05
46.33,-0.355,1.274,-0.196
46.34,-0.206,0.856,0.137
46.35,-0.026,1.055,0.118
46.36,-0.189,0.778,0.009
46.37,-0.428,1.036,-0.154
46.38,-0.093,1.143,-0.126
46.39,-0.151,0.772,0.12
46.4,-0.168,1.078,0.193
46.41,-0.291,0.749,-0.171
46.42,-0.353,1.217,-0.129
46.43,-0.06,0.96,0.115
46.44,-0.141,0.882,0.113
46.45,-0.293,0.865,0.049
46.46,-0.352,1.075,-0.178
46.47,-0.087,1.115,-0.066
46.48,-0.176,0.733,0.175
46.49,-0.088,1.072,0.092
46.5,-0.373,0.762,-0.216
46.51,-0.272,1.19,-0.042
46.52,-0.036,0.967,0.076
46.53,-0.17,0.787,0.155
46.54,-0.295,1.01,-0.012
46.55,-0.335,0.937,-0.184
46.56,-0.159,1.187,0.032
46.57,-0.017,0.784,0.114
46.58,-0.191,1.003,0.037
46.59,-0.419,0.873,-0.17
46.6,-0.057,1.188,-0.077
46.61,-0.156,0.869,0.07
46.62,-0.155,0.784,0.204
46.63,-0.366,1.107,-0.13
46.64,-0.268,0.761,-0.177
46.65,-0.026,1.311,0.11
46.66,-0.126,0.683,0.102
46.67,-0.334,1.002,0.055
46.68,-0.251,1.04,-0.233
46.69,-0.141,1.013,-0.064
46.7,-0.185,0.927,0.186
46.71,-0.014,0.748,0.096
46.72,-0.517,1.148,-0.179
46.73,-0.115,0.885,-0.053
46.74,-0.098,1.213,0.02
46.75,-0.134,0.645,0.153
46.76,-0.2,1.043,-0.045
46.77,-0.399,1.012,-0.206
46.78,-0.102,0.969,0.041
46.79,-0.131,1.141,0.115
46.8,-0.094,0.636,0.051
46.81,-0.454,1.258,-0.156
46.82,-0.084,0.925,-0.096
46.83,-0.117,1.144,0.066
46.84,-0.151,0.747,0.207
46.85,-0.356,0.983,-0.121
46.86,-0.298,1.01,-0.173
46.87,-0.023,1.179,0.057
46.88,-0.189,0.843,0.123
46.89,-0.205,0.767,0.057
46.9,-0.427,1.287,-0.215
46.91,-0.065,0.751,-0.006
46.92,-0.182,1.222,0.177
46.93,-0.104,0.673,0.084
46.94,-0.459,1.095,-0.187
46.95,-0.163,1.038,-0.064
46.96,-0.171,1.039,0.1
46.97,-0.112,0.846,0.153
46.98,-0.313,0.782,-0.035
46.99,-0.385,1.271,-0.239
47.0,-0.033,0.784,0.038
47.01,-0.131,1.199,0.124
47.02,-0.098,0.659,0.006
47.03,-0.45,1.132,-0.209
47.04,-0.046,1.096,-0.086
47.05,-0.136,0.845,0.124
47.06,-0.176,0.978,0.201
47.07,-0.311,0.755,-0.176
47.08,-0.304,1.248,-0.18
47.09,-0.034,0.946,0.106
47.1,-0.124,0.973,0.081
47.11,-0.222,0.743,0.044
47.12,-0.328,1.158,-0.214
47.13,-0.078,1.027,-0.041
47.14,-0.105,0.852,0.192
47.15,-0.212,1.021,0.072
47.16,-0.352,0.742,-0.176
47.17,-0.267,1.316,-0.069
47.18,-0.087,0.853,0.086
47.19,-0.103,0.932,0.137
47.2,-0.302,0.867,-0.038
47.21,-0.347,0.991,-0.217
47.22,-0.1,1.135,0.044
47.23,-0.125,0.81,0.148
47.24,-0.206,1.004,0.028
47.25,-0.362,0.852,-0.161
47.26,-0.222,1.268,-0.062
47.27,-0.114,0.716,0.114
47.28,-0.143,0.947,0.188
47.29,-0.377,0.976,-0.177
47.3,-0.251,0.89,-0.116
47.31,-0.055,1.26,0.062
47.32,-0.116,0.616,0.145
47.33,-0.213,1.07,0.031
47.34,-0.355,0.964,-0.23
47.35,-0.102,1.082,-0.031
47.36,-0.194,0.853,0.205
47.37,-0.211,0.841,0.1
47.38,-0.359,1.031,-0.205
47.39,-0.195,0.928,-0.014
47.4,-0.101,1.194,0.09
47.41,-0.093,0.605,0.133
47.42,-0.322,1.129,-0.065
47.43,-0.283,0.889,-0.216
47.44,-0.145,1.141,0.07
47.45,-0.124,0.94,0.105
47.46,-0.112,0.749,0.032
47.47,-0.412,1.205,-0.178
47.48,-0.176,0.881,-0.07
47.49,-0.101,1.102,0.078
47.5,-0.064,0.706,0.175
47.51,-0.456,1.095,-0.143
47.52,-0.178,0.871,-0.164
47.53,-0.086,1.164,0.103
47.54,-0.147,0.839,0.1
47.55,-0.212,0.754,0.048
47.56,-0.414,1.294,-0.246
47.57,-0.036,0.755,0.002
47.58,-0.162,1.251,0.181
47.59,-0.141,0.646,0.083
47.6,-0.39,1.049,-0.17
47.61,-0.198,1.09,-0.073
47.62,-0.101,0.973,0.065
47.63,-0.074,0.916,0.134
47.64,-0.263,0.768,-0.036
47.65,-0.418,1.26,-0.2
47.66,-0.099,0.834,0.105
47.67,-0.192,1.204,0.126
47.68,-0.131,0.66,0.004
47.69,-0.404,1.301,-0.209
47.7,-0.105,0.877,-0.053
47.71,-0.184,1.031,0.173
47.72,-0.089,0.843,0.093
47.73,-0.349,0.819,-0.216
47.74,-0.243,1.249,-0.072
47.75,0.022,0.846,0.071
47.76,-0.326,1.075,0.177
47.77,-0.127,0.702,-0.005
47.78,-0.444,1.247,-0.205
47.79,-0.119,0.937,0.049
47.8,-0.071,1.0,0.172
47.81,-0.143,0.865,0.056
47.82,-0.439,0.898,-0.152
47.83,-0.063,1.308,-0.102
47.84,-0.176,0.729,0.101
47.85,-0.177,1.034,0.213
47.86,-0.252,0.772,-0.12
47.87,-0.406,1.11,-0.173
47.88,-0.024,1.076,0.113
47.89,-0.189,0.841,0.139
47.9,-0.319,0.942,0.071
47.91,-0.252,1.009,-0.183
47.92,-0.222,1.193,-0.036
47.93,-0.161,0.677,0.182
47.94,-0.068,1.068,0.126
47.95,-0.395,0.794,-0.188
47.96,-0.249,1.086,-0.025
47.97,-0.025,1.162,0.062
47.98,-0.175,0.649,0.114
47.99,-0.269,1.061,0.069
48.0,-0.298,0.962,-0.239
48.01,-0.23,1.144,0.029
48.02,-0.024,0.771,0.186
48.03,-0.151,0.978,0.059
48.04,-0.504,0.945,-0.147
48.05,-0.073,1.026,-0.087
48.06,-0.192,1.064,0.092
48.07,-0.205,0.724,0.24
48.08,-0.312,1.152,-0.097
48.09,-0.378,0.772,-0.179
48.1,-0.154,1.267,0.13
48.11,-0.053,0.793,0.12
48.12,-0.246,0.903,0.065
48.13,-0.381,1.153,-0.18
48.14,-0.153,0.951,-0.037
48.15,-0.221,1.021,0.106
48.16,-0.06,0.714,0.162
48.17,-0.478,1.135,-0.191
48.18,-0.274,0.765,-0.117
48.19,-0.025,1.328,0.097
48.2,-0.187,0.733,0.09
48.21,-0.167,0.84,0.037
48.22,-0.334,1.261,-0.182
48.23,-0.163,0.832,-0.006
48.24,-0.174,1.072,0.184
48.25,-0.106,0.695,0.082
48.26,-0.57,1.148,-0.206
48.27,-0.162,0.897,-0.049
48.28,-0.063,1.18,0.095
48.29,-0.226,0.768,0.104
48.3,-0.237,0.891,-0.015
48.31,-0.348,1.229,-0.192
48.32,-0.192,0.809,0.06
48.33,-0.013,1.139,0.096
48.34,-0.141,0.636,-0.029
48.35,-0.489,1.243,-0.111
48.36,-0.089,0.964,-0.053
48.37,-0.246,0.987,0.11
