t,ax,ay,az
0.0,-0.425,0.938,-0.103
0.01,-0.09,1.236,-0.063
0.02,-0.26,0.712,0.107
0.03,-0.096,0.896,0.199
0.04,-0.34,1.102,-0.171
0.05,-0.311,0.768,-0.133
0.06,-0.06,1.321,0.052
0.07,0.009,0.729,0.111
0.08,-0.427,1.088,0.045
0.09,-0.29,0.904,-0.204
0.1,-0.079,1.117,-0.076
0.11,-0.231,0.902,0.118
0.12,-0.036,0.795,0.184
0.13,-0.371,1.119,-0.201
0.14,-0.318,0.774,-0.077
0.15,-0.043,1.338,0.06
0.16,-0.08,0.673,0.085
0.17,-0.323,0.98,0.005
0.18,-0.275,0.989,-0.192
0.19,-0.048,0.997,-0.085
0.2,-0.267,0.991,0.155
0.21,-0.018,0.76,0.136
0.22,-0.445,1.212,-0.194
0.23,-0.306,0.748,-0.071
0.24,-0.035,1.319,0.069
0.25,-0.052,0.717,0.131
0.26,-0.425,0.941,0.045
0.27,-0.221,1.11,-0.201
0.28,-0.117,0.905,-0.068
0.29,-0.225,1.066,0.154
0.3,-0.046,0.715,0.089
0.31,-0.433,1.177,-0.21
0.32,-0.21,0.814,-0.092
0.33,-0.045,1.236,0.06
0.34,-0.101,0.754,0.135
0.35,-0.391,0.868,0.033
0.36,-0.281,1.133,-0.21
0.37,-0.074,0.852,-0.026
0.38,-0.23,1.173,0.142
0.39,-0.12,0.685,0.11
0.4,-0.413,1.142,-0.197
0.41,-0.183,0.954,-0.076
0.42,-0.045,1.101,0.049
0.43,-0.092,0.845,0.145
0.44,-0.296,0.806,-0.035
0.45,-0.39,1.263,-0.15
0.46,-0.123,0.837,-0.038
0.47,-0.19,1.14,0.171
0.48,-0.094,0.681,0.089
0.49,-0.466,1.095,-0.185
0.5,-0.1,1.003,-0.12
0.51,-0.049,0.968,0.051
0.52,-0.19,0.936,0.192
0.53,-0.178,0.776,-0.049
0.54,-0.356,1.291,-0.172
0.55,-0.17,0.852,0.02
0.56,-0.164,1.131,0.147
0.57,-0.06,0.76,0.072
0.58,-0.479,1.044,-0.157
0.59,-0.184,1.096,-0.085
0.6,-0.016,0.892,0.055
0.61,-0.182,0.998,0.167
0.62,-0.217,0.708,-0.061
0.63,-0.307,1.232,-0.187
0.64,-0.14,0.928,0.028
0.65,-0.157,1.052,0.161
0.66,-0.144,0.841,0.025
0.67,-0.46,0.899,-0.173
0.68,-0.131,1.202,-0.046
0.69,-0.057,0.864,0.087
0.7,-0.243,0.954,0.183
0.71,-0.188,0.764,-0.081
0.72,-0.406,1.271,-0.14
0.73,-0.065,0.814,0.037
0.74,-0.063,1.133,0.14
0.75,-0.285,0.752,0.005
0.76,-0.415,0.977,-0.145
0.77,-0.036,1.185,-0.074
0.78,-0.189,0.791,0.144
0.79,-0.196,1.039,0.177
0.8,-0.188,0.774,-0.167
0.81,-0.361,1.153,-0.11
0.82,-0.107,0.955,0.097
0.83,-0.124,0.984,0.145
0.84,-0.255,0.863,0.009
0.85,-0.43,0.966,-0.128
0.86,-0.081,1.239,-0.075
0.87,-0.138,0.692,0.113
0.88,-0.155,1.05,0.142
0.89,-0.28,0.817,-0.167
0.9,-0.275,1.063,-0.151
0.91,-0.009,1.018,0.046
0.92,-0.116,0.815,0.14
0.93,-0.251,0.996,0.026
0.94,-0.415,0.952,-0.139
0.95,-0.172,1.19,-0.021
0.96,-0.167,0.778,0.134
0.97,-0.141,1.024,0.138
0.98,-0.333,0.879,-0.161
0.99,-0.238,1.02,-0.131
1.0,-0.089,1.145,0.042
1.01,-0.051,0.679,0.124
1.02,-0.318,1.079,0.015
1.03,-0.28,0.897,-0.176
1.04,-0.141,1.224,0.001
1.05,-0.202,0.787,0.19
1.06,-0.148,0.964,0.117
1.07,-0.359,0.967,-0.189
1.08,-0.269,0.923,-0.084
1.09,-0.075,1.239,0.115
1.1,-0.104,0.628,0.101
1.11,-0.374,1.067,0.019
1.12,-0.218,0.954,-0.18
1.13,-0.164,1.129,-0.028
1.14,-0.25,0.776,0.184
1.15,-0.084,0.878,0.094
1.16,-0.454,1.068,-0.208
1.17,-0.244,0.841,-0.002
1.18,-0.058,1.316,0.049
1.19,-0.135,0.609,0.084
1.2,-0.275,1.102,-0.005
1.21,-0.185,1.011,-0.245
1.22,-0.206,1.048,-0.014
1.23,-0.107,0.94,0.133
1.24,-0.039,0.768,0.053
1.25,-0.571,1.181,-0.175
1.26,-0.054,0.803,-0.092
1.27,-0.125,1.246,0.081
1.28,-0.2,0.642,0.201
1.29,-0.249,1.064,-0.04
1.3,-0.23,1.016,-0.233
1.31,-0.205,0.968,0.074
1.32,-0.102,1.049,0.123
1.33,-0.079,0.696,0.038
1.34,-0.541,1.26,-0.207
1.35,-0.04,0.868,-0.029
1.36,-0.188,1.202,0.078
1.37,-0.195,0.73,0.176
1.38,-0.221,0.976,-0.084
1.39,-0.248,1.054,-0.206
1.4,-0.224,0.926,0.134
1.41,-0.088,1.136,0.115
1.42,-0.068,0.64,-0.016
1.43,-0.513,1.234,-0.182
1.44,-0.077,0.906,-0.06
1.45,-0.132,1.069,0.058
1.46,-0.224,0.83,0.177
1.47,-0.235,0.898,-0.111
1.48,-0.316,1.156,-0.16
1.49,-0.153,0.895,0.102
1.5,-0.098,1.163,0.139
1.51,-0.167,0.624,-0.01
1.52,-0.408,1.286,-0.172
1.53,-0.07,0.885,-0.039
1.54,-0.249,1.08,0.137
1.55,-0.086,0.823,0.155
1.56,-0.307,0.967,-0.189
1.57,-0.299,1.039,-0.107
1.58,-0.073,0.956,0.139
1.59,-0.153,1.039,0.105
1.6,-0.284,0.664,-0.003
1.61,-0.342,1.341,-0.197
1.62,-0.109,0.859,-0.052
1.63,-0.181,0.964,0.142
1.64,-0.06,0.93,0.093
1.65,-0.403,0.859,-0.166
1.66,-0.254,1.152,-0.034
1.67,-0.053,0.941,0.049
1.68,-0.073,1.002,0.085
1.69,-0.226,0.734,-0.016
1.7,-0.358,1.248,-0.195
1.71,-0.105,0.939,-0.047
1.72,-0.224,0.938,0.192
1.73,-0.063,0.952,0.044
1.74,-0.426,0.837,-0.19
1.75,-0.164,1.279,-0.062
1.76,-0.071,0.848,0.08
1.77,-0.143,0.913,0.147
1.78,-0.245,0.844,-0.035
1.79,-0.292,1.124,-0.176
1.8,-0.145,1.084,-0.019
1.81,-0.15,0.819,0.171
1.82,-0.118,1.009,0.07
1.83,-0.397,0.864,-0.205
1.84,-0.232,1.242,-0.072
1.85,-0.019,0.821,0.072
1.86,-0.161,0.911,0.111
1.87,-0.307,0.921,-0.059
1.88,-0.219,0.979,-0.179
1.89,-0.164,1.144,0.029
1.9,-0.099,0.776,0.163
1.91,-0.136,1.023,0.051
1.92,-0.382,0.835,-0.196
1.93,-0.217,1.191,-0.013
1.94,-0.118,0.9,0.13
1.95,-0.154,0.853,0.178
1.96,-0.333,1.049,-0.071
1.97,-0.314,0.835,-0.171
1.98,-0.146,1.233,0.08
1.99,-0.075,0.781,0.14
2.0,-0.182,1.003,-0.005
2.01,-0.38,0.915,-0.166
2.02,-0.049,1.139,-0.093
2.03,-0.155,0.911,0.05
2.04,-0.202,0.792,0.197
2.05,-0.315,1.126,-0.128
2.06,-0.288,0.796,-0.164
2.07,-0.103,1.318,0.133
2.08,-0.045,0.766,0.115
2.09,-0.228,0.926,0.006
2.1,-0.374,1.016,-0.107
2.11,-0.1,1.043,-0.069
2.12,-0.188,0.957,0.056
2.13,-0.112,0.751,0.214
2.14,-0.441,1.187,-0.177
2.15,-0.24,0.738,-0.105
2.16,-0.009,1.316,0.097
2.17,-0.152,0.711,0.141
2.18,-0.282,0.888,0.015
2.19,-0.278,1.171,-0.174
2.2,-0.141,0.891,-0.018
2.21,-0.196,1.106,0.174
2.22,-0.068,0.705,0.069
2.23,-0.514,1.147,-0.143
2.24,-0.2,0.956,-0.051
2.25,-0.146,1.194,0.076
2.26,-0.092,0.734,0.145
2.27,-0.292,0.871,0.018
2.28,-0.331,1.211,-0.222
2.29,-0.063,0.833,-0.044
2.3,-0.2,1.123,0.18
2.31,-0.102,0.677,0.106
2.32,-0.479,1.182,-0.21
2.33,-0.147,0.881,-0.018
2.34,-0.094,1.15,0.071
2.35,-0.145,0.775,0.156
2.36,-0.294,0.975,-0.07
2.37,-0.301,1.068,-0.18
2.38,-0.108,0.897,0.059
2.39,-0.119,1.196,0.139
2.4,-0.166,0.62,0.005
2.41,-0.497,1.229,-0.159
2.42,-0.032,1.007,-0.085
2.43,-0.142,1.006,0.098
2.44,-0.24,0.844,0.234
2.45,-0.292,0.913,-0.128
2.46,-0.274,1.094,-0.203
2.47,-0.049,0.877,0.098
2.48,-0.141,1.092,0.142
2.49,-0.18,0.672,-0.006
2.5,-0.473,1.248,-0.141
2.51,-0.09,0.979,-0.092
2.52,-0.453,1.165,-0.139
2.53,-0.273,0.79,-0.074
2.54,-0.091,1.289,0.054
2.55,-0.104,0.708,0.145
2.56,-0.267,0.947,-0.014
2.57,-0.41,1.103,-0.124
2.58,-0.182,0.891,-0.007
2.59,-0.215,1.066,0.107
2.6,-0.062,0.731,0.138
2.61,-0.39,1.15,-0.211
2.62,-0.204,0.789,-0.13
2.63,-0.062,1.227,0.068
2.64,-0.121,0.78,0.128
2.65,-0.287,0.88,0.03
2.66,-0.334,1.194,-0.209
2.67,-0.144,0.807,-0.022
2.68,-0.213,1.136,0.152
2.69,-0.032,0.718,0.095
2.7,-0.47,1.112,-0.181
2.71,-0.167,0.858,-0.091
2.72,-0.055,1.191,0.096
2.73,-0.158,0.837,0.149
2.74,-0.312,0.787,0.036
2.75,-0.319,1.291,-0.162
2.76,-0.118,0.833,-0.014
2.77,-0.268,1.137,0.175
2.78,-0.03,0.711,0.111
2.79,-0.454,1.126,-0.203
2.8,-0.238,0.927,-0.098
2.81,-0.032,1.08,0.094
2.82,-0.133,0.954,0.136
2.83,-0.289,0.72,-0.012
2.84,-0.313,1.292,-0.159
2.85,-0.129,0.824,-0.025
2.86,-0.169,1.114,0.15
2.87,-0.073,0.789,0.123
2.88,-0.467,1.009,-0.195
2.89,-0.198,1.028,-0.076
2.9,-0.075,0.977,0.093
2.91,-0.136,1.053,0.17
2.92,-0.301,0.686,-0.021
2.93,-0.298,1.313,-0.208
2.94,-0.08,0.883,0.006
2.95,-0.272,1.039,0.209
2.96,-0.094,0.827,0.078
2.97,-0.423,0.941,-0.192
2.98,-0.231,1.182,-0.009
2.99,-0.059,0.85,0.037
3.0,-0.165,1.013,0.135
3.01,-0.231,0.744,-0.039
3.02,-0.309,1.251,-0.244
3.03,-0.096,0.923,-0.042
3.04,-0.108,0.954,0.208
3.05,-0.21,0.914,0.114
3.06,-0.365,0.847,-0.215
3.07,-0.141,1.263,-0.005
3.08,-0.154,0.817,0.097
3.09,-0.167,1.051,0.184
3.1,-0.276,0.774,-0.117
3.11,-0.317,1.135,-0.181
3.12,-0.135,0.943,0.129
3.13,-0.065,1.005,0.117
3.14,-0.25,0.861,0.029
3.15,-0.357,0.969,-0.126
3.16,-0.123,1.211,-0.104
3.17,-0.165,0.748,0.102
3.18,-0.142,1.044,0.168
3.19,-0.248,0.788,-0.133
3.2,-0.311,1.091,-0.139
3.21,-0.091,1.029,0.081
3.22,-0.085,0.861,0.143
3.23,-0.195,0.919,0.007
3.24,-0.371,0.941,-0.139
3.25,-0.121,1.24,-0.076
3.26,-0.162,0.718,0.084
3.27,-0.16,1.043,0.19
3.28,-0.305,0.882,-0.139
3.29,-0.353,0.976,-0.136
3.3,-0.101,1.134,0.079
3.31,-0.065,0.82,0.15
3.32,-0.297,1.005,0.038
3.33,-0.383,0.861,-0.143
3.34,-0.137,1.282,-0.059
3.35,-0.175,0.722,0.143
3.36,-0.17,0.965,0.141
3.37,-0.291,1.01,-0.173
3.38,-0.292,0.894,-0.134
3.39,-0.074,1.231,0.08
3.4,-0.072,0.724,0.138
3.41,-0.301,1.047,0.003
3.42,-0.324,0.879,-0.14
3.43,-0.073,1.216,-0.028
3.44,-0.16,0.804,0.094
3.45,-0.2,0.864,0.187
3.46,-0.292,1.094,-0.194
3.47,-0.307,0.838,-0.11
3.48,-0.073,1.229,0.101
3.49,-0.024,0.706,0.12
3.5,-0.329,1.048,0.01
3.51,-0.301,0.903,-0.15
3.52,-0.121,1.108,-0.015
3.53,-0.196,0.932,0.099
3.54,-0.103,0.835,0.19
3.55,-0.391,1.184,-0.188
3.56,-0.248,0.756,-0.122
3.57,-0.126,1.323,0.113
3.58,-0.063,0.659,0.133
3.59,-0.379,0.968,-0.017
3.6,-0.232,1.043,-0.171
3.61,-0.085,1.021,-0.054
3.62,-0.202,0.958,0.112
3.63,0.001,0.725,0.123
3.64,-0.457,1.216,-0.168
3.65,-0.319,0.783,-0.063
3.66,-0.105,1.309,0.054
3.67,-0.046,0.736,0.13
3.68,-0.319,0.937,0.016
3.69,-0.281,1.101,-0.181
3.7,-0.128,0.895,-0.029
3.71,-0.271,1.059,0.213
3.72,0.005,0.707,0.097
3.73,-0.478,1.208,-0.23
3.74,-0.267,0.838,-0.04
3.75,-0.039,1.23,0.048
3.76,-0.131,0.788,0.121
3.77,-0.319,0.835,0.03
3.78,-0.283,1.204,-0.234
3.79,-0.111,0.842,-0.026
3.8,-0.199,1.131,0.181
3.81,-0.015,0.674,0.068
3.82,-0.477,1.128,-0.186
3.83,-0.202,0.952,-0.036
3.84,-0.105,1.094,0.069
3.85,-0.176,0.872,0.135
3.86,-0.25,0.801,-0.0
3.87,-0.334,1.27,-0.194
3.88,-0.186,0.793,0.003
3.89,-0.139,1.127,0.14
3.9,-0.07,0.652,0.101
3.91,-0.502,1.206,-0.191
3.92,-0.119,0.891,-0.071
3.93,-0.127,1.118,0.076
3.94,-0.19,0.79,0.191
3.95,-0.251,0.885,-0.04
3.96,-0.311,1.223,-0.194
3.97,-0.144,0.822,0.046
3.98,-0.122,1.184,0.164
3.99,-0.103,0.688,0.08
4.0,-0.516,1.122,-0.152
4.01,-0.099,0.989,-0.058
4.02,-0.106,1.03,0.08
4.03,-0.233,0.902,0.174
4.04,-0.207,0.801,-0.037
4.05,-0.347,1.259,-0.21
4.06,-0.087,0.82,0.041
4.07,-0.188,1.162,0.202
4.08,-0.098,0.684,0.042
4.09,-0.48,1.064,-0.126
4.1,-0.139,1.097,-0.11
4.11,-0.063,0.85,0.04
4.12,-0.203,1.004,0.18
4.13,-0.195,0.791,-0.078
4.14,-0.405,1.239,-0.175
4.15,-0.138,0.84,0.059
4.16,-0.079,1.133,0.135
4.17,-0.135,0.799,0.048
4.18,-0.431,0.908,-0.14
4.19,-0.114,1.233,-0.097
4.2,-0.082,0.817,0.027
4.21,-0.25,0.997,0.164
4.22,-0.179,0.796,-0.083
4.23,-0.402,1.172,-0.178
4.24,-0.149,0.898,0.032
4.25,-0.135,1.051,0.17
4.26,-0.08,0.909,0.009
4.27,-0.432,0.834,-0.166
4.28,-0.146,1.282,-0.065
4.29,-0.077,0.86,0.052
4.3,-0.132,0.971,0.148
4.31,-0.23,0.812,-0.038
4.32,-0.317,1.189,-0.21
4.33,-0.221,0.977,0.018
4.34,-0.103,0.945,0.149
4.35,-0.15,0.997,0.021
4.36,-0.452,0.785,-0.138
4.37,-0.096,1.242,-0.079
4.38,-0.106,0.86,0.059
4.39,-0.126,0.933,0.187
4.4,-0.235,0.867,-0.05
4.41,-0.322,1.048,-0.169
4.42,-0.115,1.054,0.01
4.43,-0.147,0.851,0.181
4.44,-0.222,1.055,0.057
4.45,-0.389,0.792,-0.181
4.46,-0.127,1.251,-0.074
4.47,-0.094,0.884,0.082
4.48,-0.112,0.841,0.165
4.49,-0.218,0.964,-0.046
4.5,-0.319,0.97,-0.168
4.51,-0.152,1.166,0.001
4.52,-0.164,0.768,0.118
4.53,-0.205,1.058,0.077
4.54,-0.314,0.834,-0.18
4.55,-0.209,1.175,-0.064
4.56,-0.129,0.95,0.084
4.57,-0.164,0.779,0.172
4.58,-0.278,1.035,-0.019
4.59,-0.245,0.909,-0.193
4.6,-0.097,1.191,-0.025
4.61,-0.168,0.756,0.148
4.62,-0.144,1.033,0.053
4.63,-0.394,0.864,-0.175
4.64,-0.294,1.051,-0.019
4.65,-0.077,1.105,0.074
4.66,-0.125,0.682,0.139
4.67,-0.353,1.113,-0.006
4.68,-0.177,0.898,-0.226
4.69,-0.202,1.162,-0.021
4.7,-0.186,0.743,0.177
4.71,-0.2,1.063,0.039
4.72,-0.361,0.835,-0.173
4.73,-0.197,1.128,-0.031
4.74,-0.086,0.955,0.032
4.75,-0.065,0.75,0.15
4.76,-0.326,1.116,-0.049
4.77,-0.31,0.843,-0.167
4.78,-0.161,1.209,0.032
4.79,-0.105,0.771,0.159
4.8,-0.234,0.982,0.108
4.81,-0.309,0.981,-0.181
4.82,-0.098,1.079,-0.091
4.83,-0.196,0.999,0.048
4.84,-0.007,0.694,0.176
4.85,-0.392,1.144,-0.047
4.86,-0.289,0.769,-0.207
4.87,-0.138,1.201,0.0
4.88,-0.118,0.865,0.153
4.89,-0.145,0.921,0.066
4.9,-0.339,1.009,-0.214
4.91,-0.198,0.964,-0.019
4.92,-0.126,1.161,0.107
4.93,-0.097,0.637,0.146
4.94,-0.419,1.112,-0.03
4.95,-0.208,0.866,-0.219
4.96,-0.073,1.149,-0.014
4.97,-0.219,0.861,0.179
4.98,-0.1,0.805,0.071
4.99,-0.402,1.162,-0.193
5.0,-0.229,0.868,0.005
5.01,-0.052,1.18,0.052
5.02,-0.096,0.624,0.179
5.03,-0.367,1.105,-0.053
5.04,-0.278,0.937,-0.201
5.05,-0.144,1.069,0.025
5.06,-0.172,0.987,0.203
5.07,-0.087,0.807,0.088
5.08,-0.456,1.183,-0.205
5.09,-0.146,0.776,-0.014
5.1,-0.118,1.306,0.069
5.11,-0.123,0.67,0.1
5.12,-0.285,1.018,-0.042
5.13,-0.214,1.062,-0.193
5.14,-0.13,0.995,0.006
5.15,-0.137,1.02,0.148
5.16,-0.123,0.692,0.079
5.17,-0.479,1.244,-0.189
5.18,-0.139,0.836,-0.031
5.19,-0.154,1.198,0.085
5.2,-0.14,0.758,0.161
5.21,-0.329,0.954,-0.058
5.22,-0.297,1.079,-0.172
5.23,-0.086,0.932,0.032
5.24,-0.187,1.099,0.147
5.25,-0.063,0.641,0.056
5.26,-0.424,1.23,-0.248
5.27,-0.104,0.918,0.008
5.28,-0.168,1.113,0.079
5.29,-0.131,0.839,0.117
5.3,-0.336,0.88,-0.013
5.31,-0.297,1.178,-0.184
5.32,-0.088,0.836,-0.002
5.33,-0.156,1.158,0.165
5.34,-0.105,0.65,0.073
5.35,-0.464,1.18,-0.209
5.36,-0.081,1.003,-0.07
5.37,-0.137,0.989,0.094
5.38,-0.171,0.9,0.167
5.39,-0.255,0.812,-0.069
5.4,-0.332,1.227,-0.127
5.41,-0.136,0.864,0.065
5.42,-0.098,1.125,0.116
5.43,-0.122,0.723,0.013
5.44,-0.406,1.155,-0.185
5.45,-0.094,1.048,-0.124
5.46,-0.103,0.848,0.17
5.47,-0.222,1.048,0.174
5.48,-0.306,0.744,-0.118
5.49,-0.313,1.196,-0.138
5.5,-0.073,0.929,0.058
5.51,-0.2,0.983,0.129
5.52,-0.112,0.752,0.035
5.53,-0.419,1.273,-0.216
5.54,-0.048,0.969,-0.071
5.55,-0.143,0.916,0.142
5.56,-0.193,0.98,0.17
5.57,-0.35,0.776,-0.171
5.58,-0.208,1.203,-0.121
5.59,-0.102,0.936,0.101
5.6,-0.191,0.969,0.133
5.61,-0.18,0.765,0.014
5.62,-0.379,1.146,-0.186
5.63,-0.214,1.021,-0.026
5.64,-0.058,0.774,0.139
5.65,-0.177,1.078,0.081
5.66,-0.359,0.747,-0.169
5.67,-0.235,1.186,-0.104
5.68,-0.053,0.962,0.069
5.69,-0.17,0.929,0.155
5.7,-0.174,0.825,-0.028
5.71,-0.404,1.062,-0.106
5.72,-0.159,1.163,-0.005
5.73,-0.109,0.72,0.123
5.74,-0.145,1.094,0.114
5.75,-0.385,0.819,-0.161
5.76,-0.29,1.123,-0.086
5.77,-0.071,0.966,0.029
5.78,-0.074,0.849,0.159
5.79,-0.321,0.99,0.031
5.8,-0.294,0.913,-0.238
5.81,-0.104,1.15,-0.031
5.82,-0.115,0.754,0.197
5.83,-0.166,1.036,0.062
5.84,-0.383,0.821,-0.18
5.85,-0.121,1.155,-0.092
5.86,-0.118,1.029,0.078
5.87,-0.136,0.711,0.177
5.88,-0.336,1.088,-0.007
5.89,-0.309,0.865,-0.219
5.9,-0.137,1.213,0.001
5.91,-0.083,0.798,0.167
5.92,-0.172,0.991,0.082
5.93,-0.356,0.957,-0.209
5.94,-0.122,1.044,-0.045
5.95,-0.112,1.085,0.057
5.96,-0.101,0.669,0.121
5.97,-0.371,1.109,-0.06
5.98,-0.295,0.86,-0.171
5.99,-0.125,1.199,0.01
6.0,-0.157,0.81,0.188
6.01,-0.121,0.893,0.084
6.02,-0.329,1.067,-0.236
6.03,-0.227,0.954,-0.016
6.04,-0.033,1.138,0.057
6.05,-0.07,0.712,0.11
6.06,-0.426,1.152,-0.036
6.07,-0.258,0.841,-0.194
6.08,-0.148,1.139,0.012
6.09,-0.12,0.902,0.174
6.1,-0.16,0.834,0.076
6.11,-0.422,1.151,-0.229
6.12,-0.133,0.83,-0.03
6.13,-0.143,1.172,0.105
6.14,-0.145,0.667,0.152
6.15,-0.367,1.132,-0.1
6.16,-0.252,0.919,-0.164
6.17,-0.138,1.085,0.103
6.18,-0.082,0.965,0.12
6.19,-0.19,0.69,0.044
6.2,-0.499,1.283,-0.164
6.21,-0.049,0.852,-0.055
6.22,-0.13,1.138,0.045
6.23,-0.061,0.735,0.162
6.24,-0.374,1.071,-0.157
6.25,-0.172,0.935,-0.184
6.26,-0.047,1.072,0.063
6.27,-0.139,1.035,0.114
6.28,-0.143,0.664,0.016
6.29,-0.549,1.316,-0.131
6.3,-0.101,0.879,-0.03
6.31,-0.144,1.103,0.114
6.32,-0.143,0.807,0.151
6.33,-0.411,0.957,-0.179
6.34,-0.19,0.924,-0.098
6.35,-0.119,1.094,0.114
6.36,-0.159,0.865,0.156
6.37,-0.222,0.746,-0.015
6.38,-0.408,1.318,-0.168
6.39,-0.103,0.784,0.034
6.4,-0.207,1.15,0.152
6.41,-0.119,0.733,0.079
6.42,-0.392,1.05,-0.174
6.43,-0.178,1.082,-0.074
6.44,-0.099,0.945,0.06
6.45,-0.076,0.967,0.139
6.46,-0.296,0.729,-0.076
6.47,-0.357,1.266,-0.198
6.48,-0.032,0.864,0.014
6.49,-0.173,1.083,0.173
6.5,-0.161,0.785,0.075
6.51,-0.389,1.015,-0.184
6.52,-0.248,1.171,-0.029
6.53,-0.098,0.817,0.096
6.54,-0.124,1.037,0.153
6.55,-0.237,0.755,-0.117
6.56,-0.332,1.19,-0.181
6.57,-0.072,0.931,0.056
6.58,-0.129,1.0,0.112
6.59,-0.173,0.876,0.045
6.6,-0.4,0.924,-0.153
6.61,-0.166,1.231,-0.057
6.62,-0.129,0.77,0.112
6.63,-0.154,1.05,0.149
6.64,-0.291,0.772,-0.103
6.65,-0.342,1.111,-0.134
6.66,-0.064,1.02,0.056
6.67,-0.109,0.91,0.144
6.68,-0.211,0.948,0.025
6.69,-0.466,0.913,-0.164
6.7,-0.059,1.26,-0.079
6.71,-0.108,0.717,0.107
6.72,-0.187,0.987,0.166
6.73,-0.265,0.889,-0.181
6.74,-0.24,1.027,-0.126
6.75,-0.067,1.119,0.111
6.76,-0.157,0.739,0.17
6.77,-0.266,1.018,-0.037
6.78,-0.366,0.919,-0.152
6.79,-0.16,1.219,0.016
6.8,-0.188,0.744,0.126
6.81,-0.143,0.951,0.112
6.82,-0.327,1.004,-0.186
6.83,-0.229,0.957,-0.105
6.84,-0.036,1.178,0.066
6.85,-0.111,0.654,0.132
6.86,-0.331,1.093,0.01
6.87,-0.305,0.917,-0.195
6.88,-0.155,1.173,0.024
6.89,-0.154,0.869,0.163
6.9,-0.125,0.813,0.091
6.91,-0.438,1.113,-0.147
6.92,-0.162,0.888,-0.099
6.93,-0.083,1.194,0.069
6.94,-0.09,0.636,0.156
6.95,-0.4,1.08,-0.033
6.96,-0.259,0.882,-0.189
6.97,-0.12,1.09,0.04
6.98,-0.191,0.932,0.188
6.99,-0.121,0.768,0.08
7.0,-0.402,1.203,-0.224
7.01,-0.14,0.842,-0.02
7.02,-0.118,1.204,0.103
7.03,-0.171,0.719,0.115
7.04,-0.353,1.046,-0.075
7.05,-0.253,0.985,-0.208
7.06,-0.079,1.037,0.071
7.07,-0.099,1.044,0.114
7.08,-0.183,0.679,0.052
7.09,-0.519,1.257,-0.139
7.1,-0.043,0.83,-0.069
7.11,-0.188,1.124,0.133
7.12,-0.175,0.753,0.177
7.13,-0.325,1.007,-0.142
7.14,-0.27,1.073,-0.139
7.15,-0.061,0.933,0.117
7.16,-0.094,0.907,0.102
7.17,-0.27,0.764,-0.002
7.18,-0.439,1.295,-0.153
7.19,-0.057,0.819,0.003
7.2,-0.203,1.139,0.148
7.21,-0.084,0.734,0.124
7.22,-0.461,1.093,-0.182
7.23,-0.24,0.986,-0.079
7.24,-0.065,0.982,0.102
7.25,-0.161,0.955,0.141
7.26,-0.319,0.701,-0.04
7.27,-0.344,1.261,-0.164
7.28,-0.024,0.861,0.031
7.29,-0.176,1.099,0.179
7.3,-0.114,0.76,0.071
7.31,-0.385,1.047,-0.191
7.32,-0.138,1.114,-0.05
7.33,-0.086,0.823,0.099
7.34,-0.143,1.032,0.138
7.35,-0.302,0.773,-0.159
7.36,-0.317,1.195,-0.093
7.37,-0.184,0.937,0.086
7.38,-0.139,0.949,0.142
7.39,-0.186,0.834,-0.011
7.4,-0.366,1.053,-0.18
7.41,-0.103,1.134,-0.056
7.42,-0.179,0.726,0.174
7.43,-0.131,1.058,0.18
7.44,-0.353,0.793,-0.194
7.45,-0.197,1.153,-0.128
7.46,-0.059,1.052,0.037
7.47,-0.132,0.759,0.119
7.48,-0.223,0.978,-0.004
7.49,-0.291,0.993,-0.203
7.5,-0.05,1.155,-0.028
7.51,-0.135,0.747,0.166
7.52,-0.152,1.015,0.046
7.53,-0.308,0.877,-0.221
7.54,-0.165,1.12,-0.08
7.55,-0.131,1.006,0.057
7.56,-0.095,0.679,0.141
7.57,-0.295,1.13,-0.009
7.58,-0.349,0.846,-0.202
7.59,-0.079,1.173,0.062
7.6,-0.093,0.847,0.141
7.61,-0.197,0.901,0.03
7.62,-0.334,0.988,-0.151
7.63,-0.183,1.075,-0.035
7.64,-0.177,0.951,0.091
7.65,-0.115,0.679,0.178
7.66,-0.336,1.225,-0.142
7.67,-0.304,0.777,-0.168
7.68,-0.097,1.241,0.12
7.69,-0.101,0.837,0.103
7.7,-0.244,0.846,0.039
7.71,-0.41,1.151,-0.163
7.72,-0.155,0.898,-0.03
7.73,-0.256,1.083,0.132
7.74,-0.026,0.713,0.164
7.75,-0.456,1.171,-0.154
7.76,-0.249,0.846,-0.059
7.77,-0.072,1.238,0.077
7.78,-0.185,0.805,0.108
7.79,-0.275,0.819,0.042
7.8,-0.325,1.221,-0.255
7.81,-0.163,0.767,-0.025
7.82,-0.144,1.198,0.151
7.83,-0.049,0.697,0.123
7.84,-0.506,1.123,-0.147
7.85,-0.239,0.941,-0.037
7.86,-0.093,1.085,0.059
7.87,-0.207,0.881,0.133
7.88,-0.262,0.806,-0.059
7.89,-0.355,1.292,-0.21
7.9,-0.129,0.82,0.039
7.91,-0.175,1.162,0.201
7.92,-0.06,0.689,0.034
7.93,-0.499,1.058,-0.121
7.94,-0.101,1.108,-0.036
7.95,-0.173,0.892,0.061
7.96,-0.125,0.945,0.149
7.97,-0.216,0.778,-0.121
7.98,-0.302,1.037,-0.165
7.99,-0.038,0.971,0.122
8.0,-0.158,1.115,0.123
8.01,-0.274,0.648,0.035
8.02,-0.247,1.263,-0.194
8.03,-0.128,0.98,-0.106
8.04,-0.213,0.888,0.172
8.05,-0.025,1.004,0.135
8.06,-0.447,0.765,-0.202
8.07,-0.318,1.193,-0.038
8.08,0.019,0.95,0.026
8.09,-0.194,0.97,0.101
8.1,-0.262,0.781,0.042
8.11,-0.264,1.18,-0.227
8.12,-0.141,0.97,-0.063
8.13,-0.156,0.824,0.213
8.14,-0.083,1.058,0.06
8.15,-0.441,0.754,-0.217
8.16,-0.201,1.223,-0.034
8.17,-0.025,0.971,0.043
8.18,-0.224,0.858,0.159
8.19,-0.172,0.945,0.011
8.2,-0.368,1.11,-0.24
8.21,-0.172,1.021,-0.044
8.22,0.002,0.884,0.157
8.23,-0.229,1.055,0.017
8.24,-0.375,0.712,-0.159
8.25,-0.116,1.266,-0.013
8.26,-0.162,0.908,0.055
8.27,-0.167,0.758,0.184
8.28,-0.213,1.046,-0.021
8.29,-0.419,0.912,-0.167
8.3,-0.167,1.118,0.051
8.31,0.015,0.825,0.161
8.32,-0.28,1.01,0.016
8.33,-0.381,0.83,-0.17
8.34,-0.002,1.214,-0.098
8.35,-0.204,0.903,0.068
8.36,-0.115,0.742,0.205
8.37,-0.288,1.214,-0.146
8.38,-0.358,0.762,-0.163
8.39,-0.157,1.254,0.178
8.4,-0.073,0.771,0.136
8.41,-0.305,0.959,-0.018
8.42,-0.307,0.988,-0.158
8.43,-0.114,1.082,-0.041
8.44,-0.275,0.971,0.123
8.45,-0.033,0.717,0.181
8.46,-0.418,1.158,-0.172
8.47,-0.268,0.741,-0.106
8.48,-0.058,1.374,0.037
8.49,-0.104,0.69,0.09
8.5,-0.277,0.932,0.048
8.51,-0.281,1.151,-0.217
8.52,-0.132,0.858,-0.025
8.53,-0.226,1.07,0.152
8.54,0.013,0.702,0.106
8.55,-0.516,1.173,-0.178
8.56,-0.23,0.838,-0.049
8.57,-0.084,1.279,0.027
8.58,-0.099,0.715,0.099
8.59,-0.296,0.878,0.047
8.6,-0.298,1.192,-0.266
8.61,-0.1,0.811,-0.011
8.62,-0.187,1.212,0.165
8.63,-0.104,0.651,0.097
8.64,-0.546,1.161,-0.173
8.65,0.005,0.948,-0.111
8.66,-0.149,1.09,0.04
8.67,-0.189,0.816,0.173
8.68,-0.17,0.823,-0.082
8.69,-0.452,1.205,-0.164
8.7,-0.079,0.84,0.111
8.71,-0.128,1.242,0.112
8.72,-0.171,0.623,0.036
8.73,-0.416,1.145,-0.151
8.74,-0.115,1.072,-0.065
8.75,-0.179,0.898,0.116
8.76,-0.125,0.978,0.212
8.77,-0.357,0.803,-0.133
8.78,-0.307,1.159,-0.177
8.79,0.015,0.996,0.045
8.8,-0.244,1.076,0.141
8.81,-0.135,0.613,0.018
8.82,-0.424,1.357,-0.2
8.83,-0.098,0.907,-0.037
8.84,-0.236,0.955,0.16
8.85,-0.04,0.906,0.113
8.86,-0.423,0.838,-0.197
8.87,-0.256,1.184,-0.069
8.88,-0.043,0.921,0.058
8.89,-0.17,0.986,0.147
8.9,-0.226,0.731,0.047
8.91,-0.332,1.263,-0.26
8.92,-0.046,0.93,-0.06
8.93,-0.167,0.909,0.244
8.94,-0.09,0.964,0.112
8.95,-0.479,0.766,-0.192
8.96,-0.109,1.234,-0.077
8.97,-0.072,0.863,0.09
8.98,-0.257,0.954,0.166
8.99,-0.217,0.847,-0.047
9.0,-0.257,1.062,-0.216
9.01,-0.195,1.113,0.048
9.02,-0.146,0.788,0.137
9.03,-0.113,0.981,0.016
9.04,-0.424,0.912,-0.115
9.05,-0.085,1.251,-0.133
9.06,-0.061,0.798,0.076
9.07,-0.229,0.94,0.238
9.08,-0.277,0.967,-0.117
9.09,-0.34,0.893,-0.118
9.1,-0.187,1.217,0.087
9.11,-0.077,0.769,0.127
9.12,-0.207,0.975,0.015
9.13,-0.405,0.889,-0.154
9.14,-0.139,1.179,-0.056
9.15,-0.123,0.843,0.046
9.16,-0.099,0.865,0.188
9.17,-0.319,1.089,-0.162
9.18,-0.3,0.808,-0.12
9.19,-0.114,1.295,0.122
9.2,-0.073,0.73,0.102
9.21,-0.235,0.984,0.022
9.22,-0.318,1.002,-0.145
9.23,-0.13,1.121,-0.052
9.24,-0.231,0.879,0.088
9.25,-0.068,0.802,0.179
9.26,-0.405,1.179,-0.177
9.27,-0.272,0.727,-0.125
9.28,-0.013,1.367,0.089
9.29,-0.039,0.689,0.098
9.3,-0.355,0.912,0.039
9.31,-0.25,1.107,-0.17
9.32,-0.071,0.975,-0.065
9.33,-0.278,0.972,0.207
9.34,0.041,0.726,0.068
9.35,-0.478,1.205,-0.181
9.36,-0.274,0.802,-0.009
9.37,-0.042,1.263,0.049
9.38,-0.159,0.722,0.128
9.39,-0.28,0.945,0.025
9.4,-0.288,1.124,-0.264
9.41,-0.092,0.861,-0.0
9.42,-0.191,1.173,0.208
9.43,-0.078,0.665,0.115
9.44,-0.521,1.176,-0.174
9.45,-0.072,0.922,-0.046
9.46,-0.149,1.144,0.057
9.47,-0.145,0.774,0.172
9.48,-0.284,0.904,-0.036
9.49,-0.342,1.185,-0.252
9.5,-0.158,0.809,0.06
9.51,-0.127,1.22,0.155
9.52,-0.079,0.628,0.06
9.53,-0.494,1.171,-0.169
9.54,-0.039,0.982,-0.07
9.55,-0.197,0.979,0.111
9.56,-0.161,0.858,0.176
9.57,-0.285,0.876,-0.061
9.58,-0.344,1.208,-0.176
9.59,-0.17,0.784,0.116
9.6,-0.096,1.204,0.126
9.61,-0.127,0.602,-0.009
9.62,-0.478,1.283,-0.157
9.63,-0.068,0.909,-0.108
9.64,-0.199,0.985,0.139
9.65,-0.127,0.872,0.155
9.66,-0.369,0.869,-0.168
9.67,-0.267,1.133,-0.122
9.68,-0.015,0.969,0.106
9.69,-0.115,1.024,0.098
9.7,-0.171,0.665,-0.015
9.71,-0.35,1.291,-0.149
9.72,-0.116,0.954,-0.027
9.73,-0.265,0.873,0.167
9.74,-0.138,0.995,0.144
9.75,-0.301,0.82,-0.225
9.76,-0.366,1.207,-0.035
9.77,0.025,0.872,0.074
9.78,-0.088,0.989,0.125
9.79,-0.295,0.767,0.012
9.8,-0.297,1.146,-0.185
9.81,-0.124,1.003,-0.058
9.82,-0.184,0.891,0.178
9.83,-0.075,1.05,0.068
9.84,-0.431,0.769,-0.186
9.85,-0.214,1.224,0.002
9.86,-0.085,0.895,0.065
9.87,-0.158,0.874,0.128
9.88,-0.263,0.926,-0.011
9.89,-0.346,1.061,-0.216
9.9,-0.174,1.098,-0.004
9.91,-0.08,0.808,0.169
9.92,-0.188,1.013,0.049
9.93,-0.423,0.8,-0.173
9.94,-0.091,1.258,-0.037
9.95,-0.187,0.885,0.057
9.96,-0.177,0.786,0.179
9.97,-0.229,1.074,-0.08
9.98,-0.324,0.902,-0.174
9.99,-0.183,1.201,0.038
10.0,0.027,0.754,0.122
10.01,-0.217,1.003,0.04
10.02,-0.44,0.899,-0.156
10.03,-0.057,1.146,-0.122
10.04,-0.147,0.859,0.068
10.05,-0.158,0.813,0.227
10.06,-0.332,1.15,-0.151
10.07,-0.288,0.776,-0.188
10.08,-0.169,1.268,0.101
10.09,-0.051,0.75,0.127
10.1,-0.301,0.96,0.032
10.11,-0.369,1.025,-0.143
10.12,-0.089,1.039,-0.098
10.13,-0.262,0.942,0.118
10.14,0.016,0.731,0.182
10.15,-0.445,1.176,-0.143
10.16,-0.23,0.734,-0.148
10.17,-0.08,1.312,0.071
10.18,-0.128,0.705,0.119
10.19,-0.299,0.922,0.065
10.2,-0.291,1.167,-0.198
10.21,-0.142,0.927,-0.047
10.22,-0.247,1.06,0.152
10.23,-0.017,0.725,0.153
10.24,-0.391,1.187,-0.201
10.25,-0.232,0.78,-0.142
10.26,-0.045,1.24,0.049
10.27,-0.136,0.774,0.092
10.28,-0.247,0.839,0.036
10.29,-0.401,1.216,-0.219
10.3,-0.085,0.799,-0.029
10.31,-0.202,1.167,0.164
10.32,-0.075,0.718,0.106
10.33,-0.464,1.122,-0.152
10.34,-0.175,0.89,-0.091
10.35,-0.101,1.211,0.044
10.36,-0.122,0.797,0.147
10.37,-0.268,0.805,0.035
10.38,-0.367,1.299,-0.176
10.39,-0.154,0.734,0.018
10.4,-0.23,1.152,0.216
10.41,-0.055,0.752,0.085
10.42,-0.493,1.213,-0.158
10.43,-0.138,0.891,-0.056
10.44,-0.091,1.106,0.055
10.45,-0.184,0.787,0.181
10.46,-0.203,0.924,-0.086
10.47,-0.316,1.124,-0.189
10.48,-0.138,0.873,0.074
10.49,-0.057,1.168,0.11
10.5,-0.132,0.66,0.028
10.51,-0.492,1.22,-0.162
10.52,-0.117,0.943,-0.111
10.53,-0.132,1.01,0.075
10.54,-0.157,0.901,0.169
10.55,-0.248,0.844,-0.123
10.56,-0.269,1.111,-0.15
10.57,-0.098,0.907,0.128
10.58,-0.142,1.142,0.107
10.59,-0.139,0.67,0.031
10.6,-0.397,1.198,-0.141
10.61,-0.189,1.092,-0.072
10.62,-0.108,0.848,0.081
10.63,-0.202,1.003,0.189
10.64,-0.283,0.771,-0.114
10.65,-0.226,1.211,-0.151
10.66,-0.128,0.937,0.09
10.67,-0.137,1.082,0.163
10.68,-0.152,0.709,0.014
10.69,-0.442,1.067,-0.174
10.7,-0.085,1.163,-0.077
10.71,-0.193,0.799,0.118
10.72,-0.27,1.01,0.201
10.73,-0.212,0.776,-0.151
10.74,-0.316,1.167,-0.163
10.75,-0.127,0.902,0.126
10.76,-0.126,1.043,0.152
10.77,-0.149,0.818,-0.01
10.78,-0.357,1.007,-0.145
10.79,-0.164,1.189,-0.102
10.8,-0.044,0.723,0.083
10.81,-0.211,1.089,0.209
10.82,-0.354,0.762,-0.126
10.83,-0.235,1.099,-0.153
10.84,-0.143,1.049,0.116
10.85,-0.119,0.848,0.135
10.86,-0.056,1.026,0.001
10.87,-0.174,0.907,0.181
10.88,-0.156,0.979,0.077
10.89,-0.349,0.807,-0.143
10.9,-0.237,1.284,-0.07
10.91,-0.129,0.783,0.068
10.92,-0.079,0.936,0.123
10.93,-0.337,0.889,-0.061
10.94,-0.269,0.981,-0.192
10.95,-0.072,1.135,-0.019
10.96,-0.183,0.813,0.174
10.97,-0.156,1.014,0.087
10.98,-0.32,0.861,-0.227
10.99,-0.275,1.189,-0.005
11.0,-0.116,0.84,0.064
11.01,-0.077,0.878,0.124
11.02,-0.357,0.988,-0.065
11.03,-0.285,0.881,-0.155
11.04,-0.081,1.22,0.004
11.05,-0.06,0.762,0.139
11.06,-0.263,1.028,0.068
11.07,-0.283,0.886,-0.175
11.08,-0.184,1.162,-0.059
11.09,-0.204,0.847,0.106
11.1,-0.135,0.833,0.194
11.11,-0.377,1.122,-0.132
11.12,-0.284,0.786,-0.15
11.13,-0.004,1.298,0.066
11.14,-0.146,0.697,0.123
11.15,-0.249,1.003,0.058
11.16,-0.308,0.996,-0.155
11.17,-0.253,1.179,-0.068
11.18,-0.166,0.724,0.124
11.19,-0.089,0.942,0.138
11.2,-0.505,1.046,-0.161
11.21,-0.17,0.756,-0.082
11.22,-0.128,1.368,0.092
11.23,-0.15,0.604,0.139
11.24,-0.214,1.033,0.007
11.25,-0.291,1.015,-0.185
11.26,-0.193,1.083,0.008
11.27,-0.193,0.882,0.128
11.28,-0.159,0.807,0.163
11.29,-0.47,1.138,-0.168
11.3,-0.208,0.815,-0.083
11.31,-0.053,1.362,0.061
11.32,-0.134,0.6,0.144
11.33,-0.335,1.028,0.028
11.34,-0.274,1.042,-0.222
11.35,-0.131,0.967,-0.064
11.36,-0.148,1.001,0.172
11.37,-0.187,0.729,0.113
11.38,-0.488,1.171,-0.207
11.39,-0.146,0.843,-0.044
11.4,-0.135,1.274,0.062
11.41,-0.06,0.666,0.136
11.42,-0.293,1.001,-0.047
11.43,-0.34,1.041,-0.194
11.44,-0.096,0.901,0.02
11.45,-0.181,1.123,0.162
11.46,-0.069,0.67,0.093
11.47,-0.438,1.241,-0.194
11.48,-0.106,0.854,-0.067
11.49,-0.212,1.163,0.098
11.5,-0.113,0.716,0.172
11.51,-0.329,0.936,-0.072
11.52,-0.323,1.145,-0.194
11.53,-0.012,0.851,0.011
11.54,-0.232,1.175,0.154
11.55,-0.103,0.619,0.081
11.56,-0.399,1.236,-0.225
11.57,-0.201,0.952,-0.01
11.58,-0.155,1.004,0.104
11.59,-0.14,0.858,0.119
11.6,-0.362,0.837,-0.082
11.61,-0.263,1.169,-0.148
11.62,-0.057,0.859,0.039
11.63,-0.173,1.131,0.117
11.64,-0.113,0.652,0.026
11.65,-0.444,1.189,-0.198
11.66,-0.08,1.024,-0.069
11.67,-0.12,0.91,0.095
11.68,-0.187,0.964,0.161
11.69,-0.342,0.783,-0.117
11.7,-0.269,1.235,-0.145
11.71,-0.091,0.858,0.117
11.72,-0.175,1.018,0.119
11.73,-0.2,0.777,0.012
11.74,-0.431,1.125,-0.213
11.75,-0.051,1.035,-0.034
11.76,-0.149,0.851,0.148
11.77,-0.182,1.059,0.101
11.78,-0.322,0.751,-0.151
11.79,-0.273,1.244,-0.091
11.8,-0.091,0.953,0.103
11.81,-0.086,0.943,0.124
11.82,-0.29,0.881,-0.017
11.83,-0.372,1.024,-0.192
11.84,-0.053,1.099,-0.024
11.85,-0.124,0.793,0.204
11.86,-0.239,1.062,0.09
11.87,-0.271,0.817,-0.17
11.88,-0.307,1.224,-0.067
11.89,-0.119,0.878,0.088
11.9,-0.041,0.835,0.095
11.91,-0.352,1.038,-0.073
11.92,-0.302,0.865,-0.195
11.93,-0.072,1.221,-0.002
11.94,-0.101,0.825,0.144
11.95,-0.131,1.0,0.007
11.96,-0.398,0.866,-0.202
11.97,-0.172,1.22,-0.043
11.98,-0.171,0.743,0.103
11.99,-0.123,0.904,0.172
12.0,-0.354,1.012,-0.15
12.01,-0.228,0.906,-0.12
12.02,-0.188,1.203,0.114
12.03,-0.111,0.687,0.143
12.04,-0.214,1.036,0.003
12.05,-0.341,0.948,-0.152
12.06,-0.172,1.099,-0.028
12.07,-0.199,0.792,0.104
12.08,-0.079,0.889,0.111
12.09,-0.369,1.043,-0.202
12.1,-0.25,0.878,-0.062
12.11,-0.041,1.288,0.066
12.12,-0.108,0.625,0.095
12.13,-0.267,1.055,0.037
12.14,-0.282,0.978,-0.24
12.15,-0.161,1.084,-0.005
12.16,-0.107,0.937,0.119
12.17,-0.101,0.74,0.077
12.18,-0.436,1.169,-0.169
12.19,-0.086,0.893,-0.065
12.2,-0.175,1.186,0.059
12.21,-0.131,0.656,0.178
12.22,-0.26,1.103,-0.046
12.23,-0.325,0.928,-0.222
12.24,-0.176,0.985,0.035
12.25,-0.057,1.115,0.118
12.26,-0.115,0.681,0.04
12.27,-0.449,1.243,-0.167
12.28,-0.064,0.893,-0.089
12.29,-0.159,1.153,0.022
12.3,-0.047,0.723,0.204
12.31,-0.341,1.031,-0.147
12.32,-0.326,0.958,-0.147
12.33,-0.075,0.974,0.083
12.34,-0.104,1.172,0.08
12.35,-0.113,0.596,0.029
12.36,-0.472,1.313,-0.165
12.37,-0.102,0.911,-0.09
12.38,-0.209,1.049,0.113
12.39,-0.112,0.788,0.183
12.4,-0.368,0.93,-0.121
12.41,-0.273,1.04,-0.132
12.42,-0.093,0.979,0.088
12.43,-0.134,1.103,0.083
12.44,-0.158,0.603,0.015
12.45,-0.387,1.303,-0.171
12.46,-0.097,0.95,-0.069
12.47,-0.206,0.958,0.114
12.48,-0.051,0.904,0.184
12.49,-0.396,0.818,-0.185
12.5,-0.328,1.118,-0.105
12.51,0.024,0.947,0.062
12.52,-0.163,1.056,0.091
12.53,-0.255,0.694,0.072
12.54,-0.332,1.271,-0.181
12.55,-0.171,0.962,-0.044
12.56,-0.218,0.849,0.241
12.57,-0.082,1.033,0.059
12.58,-0.431,0.735,-0.168
12.59,-0.293,1.21,-0.07
12.6,-0.031,0.94,0.054
12.61,-0.196,0.929,0.133
12.62,-0.204,0.81,0.038
12.63,-0.294,1.179,-0.24
12.64,-0.17,0.997,-0.05
12.65,-0.09,0.783,0.22
12.66,-0.057,1.098,0.054
12.67,-0.443,0.78,-0.185
12.68,-0.195,1.203,-0.088
12.69,-0.05,0.97,0.006
12.7,-0.176,0.87,0.184
12.71,-0.186,0.914,0.012
12.72,-0.368,1.049,-0.224
12.73,-0.127,1.055,-0.058
12.74,-0.095,0.792,0.186
12.75,-0.136,1.035,0.068
12.76,-0.391,0.788,-0.13
12.77,-0.114,1.324,-0.06
12.78,-0.122,0.822,0.056
12.79,-0.144,0.903,0.165
12.8,-0.262,0.78,-0.111
12.81,-0.298,1.144,-0.172
12.82,-0.167,0.983,0.117
12.83,-0.094,0.954,0.113
12.84,-0.246,0.903,0.059
12.85,-0.31,0.941,-0.176
12.86,-0.148,1.268,-0.073
12.87,-0.089,0.7,0.05
12.88,-0.091,1.049,0.169
12.89,-0.334,0.807,-0.107
12.9,-0.275,1.015,-0.154
12.91,-0.047,1.114,0.079
12.92,-0.187,0.819,0.13
12.93,-0.195,0.982,-0.015
12.94,-0.34,0.916,-0.21
12.95,-0.144,1.212,-0.075
12.96,-0.131,0.753,0.109
12.97,-0.133,1.006,0.164
12.98,-0.288,0.876,-0.166
12.99,-0.25,0.926,-0.137
13.0,-0.067,1.234,0.053
13.01,-0.116,0.704,0.118
13.02,-0.255,1.042,0.064
13.03,-0.293,0.934,-0.184
13.04,-0.185,1.189,-0.065
13.05,-0.155,0.787,0.123
13.06,-0.137,0.934,0.187
13.07,-0.373,0.981,-0.147
13.08,-0.312,0.821,-0.137
13.09,-0.032,1.298,0.075
13.1,-0.122,0.73,0.134
13.11,-0.346,0.996,0.032
13.12,-0.33,0.951,-0.141
13.13,-0.138,1.156,-0.035
13.14,-0.239,0.792,0.106
13.15,-0.053,0.858,0.166
13.16,-0.318,1.138,-0.159
13.17,-0.304,0.763,-0.114
13.18,-0.072,1.301,0.081
13.19,-0.015,0.716,0.1
13.2,-0.339,1.018,0.037
13.21,-0.337,0.984,-0.139
13.22,-0.205,1.068,-0.039
13.23,-0.19,0.911,0.123
13.24,-0.071,0.755,0.155
13.25,-0.37,1.152,-0.192
13.26,-0.236,0.746,-0.107
13.27,-0.138,1.32,0.086
13.28,-0.1,0.685,0.13
13.29,-0.294,0.969,0.047
13.3,-0.353,1.106,-0.174
13.31,-0.148,0.932,-0.064
13.32,-0.211,0.987,0.122
13.33,-0.072,0.758,0.193
13.34,-0.452,1.182,-0.158
13.35,-0.226,0.7,-0.149
13.36,-0.042,1.327,0.059
13.37,-0.148,0.772,0.127
13.38,-0.299,0.815,0.016
13.39,-0.264,1.178,-0.174
13.4,-0.207,0.894,0.001
13.41,-0.218,1.072,0.114
13.42,-0.068,0.698,0.162
13.43,-0.439,1.149,-0.183
13.44,-0.257,0.806,-0.082
13.45,-0.012,1.268,0.05
13.46,-0.095,0.817,0.108
13.47,-0.314,0.792,0.064
13.48,-0.282,1.255,-0.201
13.49,-0.086,0.834,-0.048
13.5,-0.35,1.139,0.195
13.51,-0.033,0.72,0.152
13.52,-0.437,1.094,-0.201
13.53,-0.248,0.862,-0.08
13.54,-0.016,1.188,0.037
13.55,-0.093,0.896,0.111
13.56,-0.293,0.736,0.067
13.57,-0.304,1.173,-0.265
13.58,-0.087,0.778,-0.043
13.59,-0.209,1.161,0.212
13.6,-0.081,0.672,0.07
13.61,-0.511,1.165,-0.179
13.62,-0.259,0.942,0.051
13.63,-0.121,1.159,0.037
13.64,-0.167,0.761,0.15
13.65,-0.221,0.868,0.008
13.66,-0.384,1.271,-0.22
13.67,-0.071,0.73,-0.002
13.68,-0.16,1.208,0.195
13.69,-0.116,0.705,0.127
13.7,-0.47,1.105,-0.198
13.71,-0.227,1.011,0.014
13.72,-0.135,1.054,0.052
13.73,-0.139,0.874,0.133
13.74,-0.226,0.814,-0.001
13.75,-0.38,1.258,-0.175
13.76,-0.121,0.78,0.043
13.77,-0.132,1.202,0.165
13.78,-0.133,0.712,0.085
13.79,-0.453,1.021,-0.194
13.8,-0.1,1.075,-0.056
13.81,-0.161,0.979,0.084
13.82,-0.223,0.972,0.167
13.83,-0.162,0.773,-0.085
13.84,-0.384,1.224,-0.173
13.85,-0.212,0.846,0.107
13.86,-0.07,1.137,0.103
13.87,-0.108,0.772,0.039
13.88,-0.457,0.919,-0.102
13.89,-0.045,1.186,-0.152
13.9,-0.087,0.821,0.028
13.91,-0.252,1.019,0.209
13.92,-0.188,0.761,-0.056
13.93,-0.375,1.198,-0.236
13.94,-0.169,0.845,0.06
13.95,-0.042,1.102,0.093
13.96,-0.173,0.817,0.074
13.97,-0.419,0.861,-0.147
13.98,-0.132,1.296,-0.105
13.99,-0.146,0.73,0.079
14.0,-0.216,0.985,0.214
14.01,-0.251,0.836,-0.03
14.02,-0.388,1.16,-0.206
14.03,-0.108,0.924,0.03
14.04,-0.094,1.032,0.188
14.05,-0.169,0.917,0.037
14.06,-0.373,0.793,-0.158
14.07,-0.145,1.323,-0.04
14.08,-0.13,0.793,0.075
14.09,-0.212,0.926,0.166
14.1,-0.226,0.882,-0.093
14.11,-0.344,1.048,-0.172
14.12,-0.191,1.029,0.047
14.13,-0.088,0.934,0.172
14.14,-0.188,0.985,0.079
14.15,-0.447,0.774,-0.135
14.16,-0.07,1.257,-0.067
14.17,-0.126,0.848,0.071
14.18,-0.218,0.913,0.224
14.19,-0.235,0.951,-0.104
14.2,-0.272,0.943,-0.196
14.21,-0.232,1.185,0.085
14.22,-0.064,0.788,0.121
14.23,-0.145,1.015,0.077
14.24,-0.462,0.863,-0.141
14.25,-0.065,1.185,-0.083
14.26,-0.148,0.897,0.078
14.27,-0.23,0.823,0.179
14.28,-0.194,1.034,-0.087
14.29,-0.25,0.883,-0.15
14.3,-0.301,1.214,0.083
14.31,-0.042,0.756,0.103
14.32,-0.191,1.019,0.06
14.33,-0.432,0.901,-0.183
14.34,-0.029,1.142,-0.134
14.35,-0.077,0.926,0.041
14.36,-0.222,0.774,0.263
14.37,-0.3,1.115,-0.112
14.38,-0.261,0.806,-0.15
14.39,-0.175,1.243,0.091
14.4,-0.022,0.709,0.119
14.41,-0.33,1.052,0.036
14.42,-0.311,0.901,-0.185
14.43,-0.201,1.129,-0.038
14.44,-0.106,0.856,0.095
14.45,-0.19,0.85,0.2
14.46,-0.256,1.071,-0.156
14.47,-0.274,0.835,-0.103
14.48,-0.203,1.275,0.048
14.49,-0.027,0.731,0.138
14.5,-0.252,1.051,0.024
14.51,-0.411,0.929,-0.17
14.52,-0.159,1.055,-0.06
14.53,-0.142,0.924,0.097
14.54,-0.171,0.756,0.167
14.55,-0.283,1.146,-0.165
14.56,-0.232,0.806,-0.143
14.57,-0.175,1.291,0.059
14.58,-0.02,0.721,0.129
14.59,-0.265,0.977,0.08
14.6,-0.372,1.01,-0.198
14.61,-0.057,1.05,-0.036
14.62,-0.221,1.023,0.108
14.63,-0.091,0.661,0.15
14.64,-0.346,1.206,-0.123
14.65,-0.312,0.792,-0.148
14.66,-0.17,1.187,0.066
14.67,-0.023,0.802,0.12
14.68,-0.29,0.916,-0.002
14.69,-0.382,1.014,-0.172
14.7,0.004,0.98,-0.055
14.71,-0.219,1.082,0.12
14.72,-0.126,0.664,0.176
14.73,-0.341,1.268,-0.183
14.74,-0.22,0.79,-0.156
14.75,-0.159,1.185,0.118
14.76,-0.065,0.856,0.159
14.77,-0.274,0.839,-0.02
14.78,-0.367,1.166,-0.185
14.79,-0.078,0.889,-0.041
14.8,-0.257,1.135,0.167
14.81,-0.036,0.692,0.153
14.82,-0.475,1.151,-0.171
14.83,-0.201,0.865,-0.093
14.84,-0.065,1.179,0.043
14.85,-0.102,0.844,0.093
14.86,-0.286,0.804,0.03
14.87,-0.337,1.292,-0.231
14.88,-0.11,0.777,-0.029
14.89,-0.19,1.149,0.18
14.9,-0.011,0.737,0.117
14.91,-0.5,1.065,-0.179
14.92,-0.211,1.015,-0.02
14.93,-0.088,1.107,0.02
14.94,-0.194,0.896,0.127
14.95,-0.196,0.762,0.043
14.96,-0.428,1.381,-0.231
14.97,-0.14,0.713,0.003
14.98,-0.173,1.167,0.199
14.99,-0.142,0.721,0.067
15.0,-0.466,1.011,-0.172
15.01,-0.13,1.136,-0.073
15.02,-0.124,0.874,0.064
15.03,-0.198,0.979,0.143
15.04,-0.131,0.748,-0.035
15.05,-0.428,1.279,-0.195
15.06,-0.104,0.821,0.023
15.07,-0.125,1.134,0.16
15.08,-0.189,0.766,0.058
15.09,-0.422,0.918,-0.127
15.1,-0.059,1.292,-0.115
15.11,-0.097,0.819,0.046
15.12,-0.197,1.009,0.152
15.13,-0.11,0.802,-0.112
15.14,-0.401,1.154,-0.217
15.15,-0.137,0.906,0.133
15.16,-0.091,1.048,0.134
15.17,-0.206,0.833,-0.008
15.18,-0.408,0.935,-0.107
15.19,-0.119,1.251,-0.07
15.2,-0.162,0.733,0.055
15.21,-0.088,1.088,0.183
15.22,-0.302,0.777,-0.174
15.23,-0.443,1.163,-0.054
15.24,0.079,1.017,0.05
15.25,-0.123,0.94,0.065
15.26,-0.241,0.817,0.103
15.27,-0.328,1.072,-0.2
15.28,-0.186,1.112,-0.09
15.29,-0.227,0.729,0.178
15.3,-0.1,1.113,0.14
15.31,-0.319,0.743,-0.18
15.32,-0.317,1.104,-0.069
15.33,0.008,1.044,0.045
15.34,-0.1,0.82,0.115
15.35,-0.273,0.978,0.059
15.36,-0.349,0.993,-0.197
15.37,-0.147,1.146,-0.081
15.38,-0.127,0.725,0.164
15.39,-0.117,1.074,0.14
15.4,-0.343,0.841,-0.196
15.41,-0.297,1.015,-0.104
15.42,-0.054,1.124,0.058
15.43,-0.089,0.693,0.107
15.44,-0.336,1.052,0.07
15.45,-0.271,0.941,-0.183
15.46,-0.265,1.124,-0.055
15.47,-0.12,0.728,0.17
15.48,-0.066,1.066,0.102
15.49,-0.392,0.85,-0.207
15.5,-0.217,0.931,-0.065
15.51,-0.037,1.259,0.039
15.52,-0.137,0.619,0.137
15.53,-0.248,1.039,0.007
15.54,-0.356,0.922,-0.183
15.55,-0.213,1.146,-0.019
15.56,-0.037,0.822,0.15
15.57,-0.124,1.014,0.037
15.58,-0.435,0.868,-0.136
15.59,-0.093,1.104,-0.079
15.6,-0.147,1.015,0.051
15.61,-0.21,0.682,0.22
15.62,-0.284,1.149,-0.023
15.63,-0.29,0.82,-0.175
15.64,-0.288,1.171,0.074
15.65,-0.017,0.816,0.149
15.66,-0.136,0.967,0.025
15.67,-0.404,0.929,-0.145
15.68,-0.102,1.007,-0.06
15.69,-0.056,1.115,0.051
15.7,-0.188,0.635,0.156
15.71,-0.334,1.15,-0.016
15.72,-0.307,0.814,-0.183
15.73,-0.197,1.145,0.021
15.74,-0.069,0.924,0.155
15.75,-0.135,0.877,0.028
15.76,-0.42,1.023,-0.176
15.77,-0.051,0.953,-0.057
15.78,-0.146,1.2,0.014
15.79,-0.098,0.544,0.143
15.8,-0.278,1.193,-0.044
15.81,-0.362,0.91,-0.175
15.82,-0.214,1.048,0.04
15.83,-0.022,0.971,0.177
15.84,-0.24,0.81,0.064
15.85,-0.469,1.107,-0.127
15.86,0.014,0.896,-0.071
15.87,-0.169,1.221,0.007
15.88,-0.104,0.589,0.22
15.89,-0.271,1.15,-0.141
15.9,-0.307,0.874,-0.213
15.91,-0.166,1.076,0.13
15.92,-0.101,1.066,0.091
15.93,-0.165,0.694,0.055
15.94,-0.41,1.252,-0.184
15.95,-0.068,0.889,-0.086
15.96,-0.241,1.164,0.072
15.97,-0.092,0.706,0.179
15.98,-0.31,1.021,-0.103
15.99,-0.335,0.905,-0.186
16.0,-0.123,1.019,0.072
16.01,-0.108,1.149,0.103
16.02,-0.18,0.73,0.041
16.03,-0.365,1.234,-0.204
16.04,-0.062,0.899,-0.066
16.05,-0.294,1.141,0.13
16.06,-0.045,0.695,0.196
16.07,-0.416,1.147,-0.152
16.08,-0.273,0.855,-0.163
16.09,-0.086,1.093,0.081
16.1,-0.076,1.044,0.092
16.11,-0.276,0.69,0.084
16.12,-0.439,1.282,-0.155
16.13,-0.065,0.861,-0.124
16.14,-0.258,1.086,0.051
16.15,0.055,0.759,0.177
16.16,-0.445,1.069,-0.175
16.17,-0.306,0.897,-0.167
16.18,0.078,1.026,0.087
16.19,-0.15,1.078,0.119
16.2,-0.229,0.638,0.028
16.21,-0.319,1.331,-0.192
16.22,-0.174,0.84,-0.072
16.23,-0.211,1.064,0.136
16.24,0.024,0.826,0.143
16.25,-0.44,0.963,-0.164
16.26,-0.171,1.066,-0.166
16.27,-0.088,0.949,0.075
16.28,-0.13,1.024,0.146
16.29,-0.198,0.677,0.035
16.3,-0.42,1.302,-0.191
16.31,-0.109,0.881,-0.053
16.32,-0.216,1.011,0.157
16.33,-0.074,0.897,0.135
16.34,-0.403,0.857,-0.199
16.35,-0.305,1.095,-0.091
16.36,0.055,0.979,0.083
16.37,-0.203,1.093,0.099
16.38,-0.196,0.644,0.025
16.39,-0.298,1.239,-0.176
16.4,-0.152,1.001,-0.063
16.41,-0.23,0.886,0.168
16.42,-0.067,0.965,0.11
16.43,-0.379,0.807,-0.195
16.44,-0.271,1.152,-0.106
16.45,0.032,0.976,0.095
16.46,-0.094,1.017,0.077
16.47,-0.222,0.717,0.016
16.48,-0.333,1.164,-0.146
16.49,-0.112,1.057,-0.06
16.5,-0.188,0.784,0.12
16.51,-0.081,1.066,0.132
16.52,-0.384,0.761,-0.17
16.53,-0.358,1.207,-0.063
16.54,0.062,0.93,0.066
16.55,-0.157,0.929,0.132
16.56,-0.299,0.796,0.041
16.57,-0.217,1.089,-0.186
16.58,-0.145,1.112,-0.06
16.59,-0.216,0.748,0.18
16.6,-0.051,1.075,0.078
16.61,-0.406,0.804,-0.187
16.62,-0.305,1.149,-0.01
16.63,0.01,1.016,0.077
16.64,-0.134,0.844,0.096
16.65,-0.325,0.946,0.027
16.66,-0.22,0.985,-0.206
16.67,-0.167,1.142,-0.056
16.68,-0.174,0.726,0.207
16.69,-0.131,1.069,0.081
16.7,-0.428,0.813,-0.178
16.71,-0.227,1.121,-0.011
16.72,-0.061,1.033,0.052
16.73,-0.101,0.685,0.122
16.74,-0.298,1.078,0.03
16.75,-0.261,0.93,-0.233
16.76,-0.217,1.192,-0.005
16.77,-0.09,0.771,0.167
16.78,-0.155,1.01,0.073
16.79,-0.387,0.919,-0.187
16.8,-0.175,1.074,-0.04
16.81,-0.143,1.033,0.062
16.82,-0.129,0.624,0.155
16.83,-0.237,1.195,-0.063
16.84,-0.298,0.787,-0.179
16.85,-0.167,1.195,0.098
16.86,-0.032,0.793,0.137
16.87,-0.247,1.022,0.034
16.88,-0.386,0.87,-0.163
16.89,-0.119,1.16,-0.054
16.9,-0.212,0.912,0.073
16.91,-0.142,0.757,0.21
16.92,-0.31,1.157,-0.124
16.93,-0.312,0.79,-0.168
16.94,-0.097,1.27,0.087
16.95,-0.072,0.751,0.106
16.96,-0.235,0.969,0.033
16.97,-0.399,1.015,-0.146
16.98,-0.106,1.028,-0.097
16.99,-0.22,0.966,0.102
17.0,-0.046,0.748,0.16
17.01,-0.437,1.199,-0.16
17.02,-0.267,0.729,-0.115
17.03,-0.115,1.294,0.094
17.04,-0.058,0.807,0.092
17.05,-0.254,0.89,0.057
17.06,-0.308,1.136,-0.18
17.07,-0.079,0.909,-0.054
17.08,-0.307,1.086,0.15
17.09,-0.021,0.694,0.145
17.1,-0.436,1.184,-0.166
17.11,-0.266,0.792,-0.069
17.12,-0.015,1.273,0.039
17.13,-0.138,0.75,0.105
17.14,-0.25,0.814,0.063
17.15,-0.33,1.282,-0.239
17.16,-0.085,0.795,-0.041
17.17,-0.254,1.146,0.191
17.18,-0.059,0.704,0.137
17.19,-0.464,1.127,-0.188
17.2,-0.254,0.837,-0.081
17.21,-0.065,1.2,0.038
17.22,-0.107,0.851,0.094
17.23,-0.249,0.765,0.063
17.24,-0.38,1.303,-0.237
17.25,-0.07,0.767,-0.031
17.26,-0.208,1.205,0.206
17.27,-0.019,0.679,0.06
17.28,-0.495,1.064,-0.155
17.29,-0.128,1.06,-0.045
17.3,-0.154,1.074,0.059
17.31,-0.188,0.862,0.172
17.32,-0.225,0.768,0.014
17.33,-0.363,1.309,-0.238
17.34,-0.09,0.74,0.008
17.35,-0.192,1.19,0.198
17.36,-0.176,0.727,0.096
17.37,-0.434,0.977,-0.167
17.38,-0.138,1.171,-0.037
17.39,-0.123,0.933,0.043
17.4,-0.185,0.938,0.123
17.41,-0.211,0.749,-0.02
17.42,-0.38,1.292,-0.204
17.43,-0.146,0.829,0.043
17.44,-0.065,1.113,0.151
17.45,-0.113,0.775,0.074
17.46,-0.533,0.927,-0.133
17.47,-0.11,1.227,-0.088
17.48,-0.044,0.821,0.004
17.49,-0.259,1.014,0.232
17.5,-0.17,0.781,-0.098
17.51,-0.336,1.171,-0.193
17.52,-0.164,0.939,0.125
17.53,-0.051,0.962,0.103
17.54,-0.198,0.893,0.009
17.55,-0.396,0.944,-0.117
17.56,-0.146,1.262,-0.098
17.57,-0.094,0.724,0.082
17.58,-0.157,1.037,0.213
17.59,-0.309,0.841,-0.134
17.6,-0.354,1.04,-0.138
17.61,-0.143,1.048,0.063
17.62,-0.02,0.855,0.1
17.63,-0.201,0.959,0.016
17.64,-0.296,0.945,-0.129
17.65,-0.191,1.118,-0.081
17.66,-0.159,0.674,0.219
17.67,-0.107,1.075,0.136
17.68,-0.376,0.787,-0.185
17.69,-0.236,1.096,-0.102
17.7,-0.029,1.079,0.035
17.71,-0.136,0.788,0.128
17.72,-0.296,0.967,0.081
17.73,-0.32,1.013,-0.218
17.74,-0.064,1.146,-0.076
17.75,-0.212,0.719,0.221
17.76,-0.027,1.04,0.087
17.77,-0.386,0.857,-0.155
17.78,-0.263,1.084,-0.068
17.79,-0.029,1.131,0.015
17.8,-0.141,0.66,0.097
17.81,-0.236,1.098,0.057
17.82,-0.354,0.947,-0.229
17.83,-0.135,1.108,-0.068
17.84,-0.092,0.793,0.225
17.85,-0.123,0.967,0.081
17.86,-0.407,0.933,-0.159
17.87,-0.24,1.01,-0.024
17.88,-0.103,1.131,0.02
17.89,-0.147,0.63,0.161
17.9,-0.263,1.149,-0.0
17.91,-0.331,0.903,-0.199
17.92,-0.198,1.088,0.006
17.93,-0.016,0.849,0.133
17.94,-0.109,0.933,0.057
17.95,-0.441,1.016,-0.186
17.96,-0.11,0.926,-0.06
17.97,-0.207,1.19,0.077
17.98,-0.161,0.61,0.199
17.99,-0.283,1.168,-0.049
18.0,-0.328,0.833,-0.197
18.01,-0.162,1.082,0.096
18.02,-0.041,0.964,0.128
18.03,-0.234,0.811,0.095
18.04,-0.335,1.128,-0.173
18.05,-0.09,0.931,-0.061
18.06,-0.211,1.22,0.064
18.07,-0.138,0.625,0.175
18.08,-0.258,1.146,-0.064
18.09,-0.282,0.888,-0.209
18.1,-0.188,1.052,0.114
18.11,-0.065,1.031,0.119
18.12,-0.146,0.72,-0.007
18.13,-0.468,1.264,-0.139
18.14,-0.062,0.843,-0.128
18.15,-0.214,1.17,0.09
18.16,-0.17,0.734,0.191
18.17,-0.307,1.052,-0.131
18.18,-0.323,0.877,-0.205
18.19,-0.073,1.028,0.146
18.2,-0.132,1.089,0.113
18.21,-0.113,0.621,0.017
18.22,-0.489,1.271,-0.146
18.23,-0.08,0.889,-0.117
18.24,-0.17,1.116,0.097
18.25,-0.157,0.784,0.18
18.26,-0.314,0.979,-0.13
18.27,-0.273,1.017,-0.222
18.28,-0.124,0.971,0.14
18.29,-0.101,1.149,0.099
18.3,-0.168,0.597,0.004
18.31,-0.49,1.251,-0.159
18.32,-0.02,0.891,-0.104
18.33,-0.176,1.023,0.09
18.34,-0.161,0.854,0.182
18.35,-0.277,0.9,-0.173
18.36,-0.302,1.085,-0.144
18.37,-0.042,0.957,0.151
18.38,-0.152,1.099,0.131
18.39,-0.257,0.636,-0.011
18.4,-0.334,1.263,-0.15
18.41,-0.156,0.944,-0.082
18.42,-0.22,0.899,0.201
18.43,-0.044,0.971,0.127
18.44,-0.334,0.817,-0.218
18.45,-0.262,1.217,-0.055
18.46,-0.011,0.919,0.031
18.47,-0.111,0.984,0.124
18.48,-0.245,0.731,0.054
18.49,-0.366,1.301,-0.222
18.5,-0.145,0.833,-0.002
18.51,-0.157,1.064,0.16
18.52,-0.08,0.838,0.081
18.53,-0.4,0.889,-0.179
18.54,-0.249,1.233,-0.026
18.55,-0.057,0.878,0.034
18.56,-0.16,0.996,0.152
18.57,-0.21,0.741,-0.015
18.58,-0.414,1.207,-0.228
18.59,-0.052,0.909,-0.011
18.6,-0.118,1.021,0.133
18.61,-0.159,0.954,0.094
18.62,-0.387,0.786,-0.129
18.63,-0.167,1.281,-0.083
18.64,-0.104,0.835,0.083
18.65,-0.224,0.976,0.158
18.66,-0.213,0.832,-0.02
18.67,-0.373,1.145,-0.192
18.68,-0.103,1.005,-0.005
18.69,-0.088,0.909,0.15
18.7,-0.141,1.007,0.028
18.71,-0.409,0.778,-0.169
18.72,-0.143,1.301,-0.0
18.73,-0.117,0.844,0.113
18.74,-0.245,0.894,0.168
18.75,-0.217,0.934,-0.08
18.76,-0.281,1.003,-0.2
18.77,-0.205,1.146,0.095
18.78,-0.01,0.815,0.119
18.79,-0.207,0.984,0.015
18.8,-0.413,0.833,-0.089
18.81,-0.099,1.235,-0.122
18.82,-0.137,0.806,0.029
18.83,-0.16,0.913,0.219
18.84,-0.296,1.038,-0.149
18.85,-0.275,0.851,-0.147
18.86,-0.192,1.25,0.109
18.87,-0.066,0.716,0.141
18.88,-0.236,1.007,0.021
18.89,-0.29,0.959,-0.178
18.9,-0.192,1.128,-0.089
18.91,-0.133,0.841,0.092
18.92,-0.134,0.85,0.154
18.93,-0.368,1.089,-0.146
18.94,-0.341,0.776,-0.106
18.95,-0.112,1.328,0.094
18.96,-0.041,0.706,0.091
18.97,-0.257,1.02,0.02
18.98,-0.338,0.955,-0.131
18.99,-0.067,1.059,-0.026
19.0,-0.18,0.934,0.106
19.01,-0.13,0.763,0.162
19.02,-0.435,1.186,-0.145
19.03,-0.295,0.807,-0.081
19.04,-0.1,1.315,0.046
19.05,-0.111,0.661,0.144
19.06,-0.309,0.988,0.042
19.07,-0.285,1.048,-0.241
19.08,-0.14,0.92,-0.024
19.09,-0.146,1.071,0.112
19.1,-0.09,0.724,0.154
19.11,-0.43,1.199,-0.168
19.12,-0.25,0.797,-0.072
19.13,-0.163,1.261,0.118
19.14,-0.144,0.742,0.14
19.15,-0.244,0.897,-0.002
19.16,-0.338,1.187,-0.188
19.17,-0.094,0.852,-0.021
19.18,-0.207,1.137,0.172
19.19,-0.042,0.689,0.119
19.2,-0.03,1.153,-0.103
19.21,-0.148,0.791,0.09
19.22,-0.159,1.012,0.181
19.23,-0.344,0.837,-0.22
19.24,-0.236,1.165,-0.14
19.25,-0.04,0.904,0.134
19.26,-0.167,1.042,0.143
19.27,-0.265,0.698,0.003
19.28,-0.354,1.202,-0.178
19.29,-0.072,0.987,-0.071
19.3,-0.187,0.837,0.173
19.31,-0.117,0.995,0.099
19.32,-0.397,0.793,-0.21
19.33,-0.174,1.227,-0.06
19.34,-0.072,0.898,0.076
19.35,-0.201,0.937,0.142
19.36,-0.258,0.878,-0.014
19.37,-0.341,1.07,-0.186
19.38,-0.138,1.054,-0.029
19.39,-0.105,0.85,0.203
19.4,-0.133,1.015,0.067
19.41,-0.427,0.77,-0.154
19.42,-0.109,1.297,-0.077
19.43,-0.106,0.83,0.034
19.44,-0.227,0.853,0.219
19.45,-0.259,1.018,-0.08
19.46,-0.317,0.89,-0.197
19.47,-0.197,1.157,0.097
19.48,-0.072,0.791,0.152
19.49,-0.191,1.001,0.031
19.5,-0.406,0.898,-0.165
19.51,-0.141,1.191,-0.068
19.52,-0.085,0.825,0.047
19.53,-0.192,0.864,0.218
19.54,-0.32,1.079,-0.139
19.55,-0.288,0.799,-0.152
19.56,-0.148,1.295,0.126
19.57,-0.027,0.708,0.106
19.58,-0.278,1.0,0.045
19.59,-0.336,0.975,-0.142
19.6,-0.138,1.105,-0.054
19.61,-0.219,0.899,0.116
19.62,-0.077,0.783,0.159
19.63,-0.362,1.143,-0.154
19.64,-0.321,0.815,-0.073
19.65,-0.025,1.288,0.023
19.66,-0.044,0.681,0.077
19.67,-0.301,0.99,0.069
19.68,-0.272,1.095,-0.231
19.69,-0.147,0.929,-0.065
19.7,-0.214,1.025,0.178
19.71,0.002,0.716,0.088
19.72,-0.438,1.186,-0.182
19.73,-0.306,0.807,-0.05
19.74,-0.094,1.287,0.02
19.75,-0.091,0.713,0.095
19.76,-0.284,0.912,0.034
19.77,-0.299,1.156,-0.231
19.78,-0.174,0.875,0.002
19.79,-0.227,1.113,0.129
19.8,0.057,0.703,0.084
19.81,-0.505,1.19,-0.154
19.82,-0.346,0.83,-0.039
19.83,-0.037,1.196,0.045
19.84,-0.119,0.806,0.108
19.85,-0.307,0.852,0.031
19.86,-0.325,1.182,-0.217
19.87,-0.048,0.8,-0.018
19.88,-0.222,1.199,0.159
19.89,-0.031,0.654,0.109
19.9,-0.464,1.159,-0.205
19.91,-0.186,0.949,-0.07
19.92,-0.119,1.089,0.098
19.93,-0.17,0.897,0.134
19.94,-0.308,0.806,-0.03
19.95,-0.301,1.242,-0.195
19.96,-0.09,0.825,0.006
19.97,-0.199,1.181,0.17
19.98,-0.052,0.691,0.069
19.99,-0.483,1.065,-0.194
20.0,-0.053,1.031,-0.057
20.01,-0.125,0.984,0.074
20.02,-0.204,0.972,0.19
20.03,-0.178,0.741,-0.097
20.04,-0.27,1.111,-0.199
20.05,-0.079,0.93,0.145
20.06,-0.115,1.153,0.101
20.07,-0.136,0.6,0.006
20.08,-0.407,1.272,-0.156
20.09,-0.158,1.0,-0.062
20.1,-0.147,0.923,0.063
20.11,-0.07,0.978,0.18
20.12,-0.41,0.79,-0.131
20.13,-0.287,1.161,-0.129
20.14,-0.088,0.95,0.115
20.15,-0.196,1.028,0.109
20.16,-0.117,0.685,0.014
20.17,-0.4,1.24,-0.162
20.18,-0.126,1.01,-0.088
20.19,-0.149,0.825,0.183
20.2,-0.108,1.056,0.142
20.21,-0.401,0.74,-0.132
20.22,-0.298,1.227,-0.107
20.23,-0.089,0.936,0.092
20.24,-0.151,0.981,0.124
20.25,-0.243,0.797,0.025
20.26,-0.354,1.118,-0.194
20.27,-0.079,1.119,-0.082
20.28,-0.18,0.764,0.147
20.29,-0.105,1.057,0.164
20.3,-0.389,0.769,-0.175
20.31,-0.301,1.132,-0.086
20.32,-0.042,1.003,0.068
20.33,-0.151,0.887,0.115
20.34,-0.35,0.903,0.028
20.35,-0.292,0.998,-0.146
20.36,-0.159,1.16,-0.068
20.37,-0.188,0.702,0.196
20.38,-0.085,1.077,0.087
20.39,-0.419,0.818,-0.202
20.4,-0.223,1.113,-0.055
20.41,0.011,1.04,0.049
20.42,-0.206,0.76,0.16
20.43,-0.34,1.031,0.012
20.44,-0.249,0.923,-0.23
20.45,-0.165,1.177,-0.012
20.46,-0.116,0.752,0.246
20.47,-0.154,1.008,0.047
20.48,-0.443,0.884,-0.184
20.49,-0.109,1.089,-0.061
20.5,-0.088,1.086,0.045
20.51,-0.192,0.688,0.171
20.52,-0.284,1.145,-0.038
20.53,-0.314,0.837,-0.185
20.54,-0.187,1.185,0.066
20.55,-0.091,0.837,0.198
20.56,-0.201,0.903,0.055
20.57,-0.389,0.965,-0.169
20.58,-0.147,1.022,-0.072
20.59,-0.081,1.066,0.024
20.6,-0.163,0.694,0.188
20.61,-0.299,1.201,-0.074
20.62,-0.296,0.793,-0.202
20.63,-0.14,1.158,0.034
20.64,-0.049,0.883,0.135
20.65,-0.196,0.808,-0.001
20.66,-0.4,1.106,-0.166
20.67,-0.082,0.912,-0.081
20.68,-0.146,1.112,0.052
20.69,-0.115,0.69,0.194
20.7,-0.398,1.113,-0.148
20.71,-0.232,0.803,-0.175
20.72,-0.115,1.202,0.134
20.73,-0.11,0.92,0.099
20.74,-0.2,0.748,0.033
20.75,-0.408,1.221,-0.172
20.76,-0.101,0.853,-0.041
20.77,-0.197,1.141,0.113
20.78,-0.076,0.678,0.17
20.79,-0.358,1.092,-0.166
20.8,-0.278,0.891,-0.128
20.81,-0.074,1.105,0.088
20.82,-0.129,0.943,0.125
20.83,-0.104,0.69,0.002
20.84,-0.38,1.398,-0.18
20.85,-0.198,0.81,-0.026
20.86,-0.198,1.122,0.177
20.87,-0.115,0.682,0.08
20.88,-0.463,1.158,-0.183
20.89,-0.215,0.946,-0.052
20.9,-0.113,1.155,0.05
20.91,-0.141,0.798,0.134
20.92,-0.223,0.854,0.025
20.93,-0.407,1.285,-0.252
20.94,-0.103,0.756,-0.015
20.95,-0.123,1.223,0.147
20.96,-0.121,0.664,0.075
20.97,-0.486,1.11,-0.133
20.98,-0.107,1.088,-0.049
20.99,-0.183,0.963,0.074
21.0,-0.168,0.901,0.148
21.01,-0.189,0.809,-0.078
21.02,-0.342,1.243,-0.209
21.03,-0.147,0.848,0.051
21.04,-0.095,1.169,0.117
21.05,-0.043,0.693,0.028
21.06,-0.525,1.1,-0.099
21.07,-0.084,1.126,-0.133
21.08,-0.129,0.821,0.039
21.09,-0.198,1.019,0.216
21.1,-0.223,0.784,-0.118
21.11,-0.487,1.198,-0.145
21.12,-0.114,0.859,0.107
21.13,-0.04,1.117,0.08
21.14,-0.17,0.741,0.036
21.15,-0.386,1.028,-0.121
21.16,-0.157,1.189,-0.086
21.17,-0.173,0.76,0.059
21.18,-0.135,1.063,0.231
21.19,-0.287,0.761,-0.177
21.2,-0.293,1.139,-0.116
21.21,-0.176,1.016,0.124
21.22,-0.097,0.931,0.113
21.23,-0.193,0.859,0.054
21.24,-0.365,1.034,-0.169
21.25,-0.237,1.214,-0.052
21.26,-0.165,0.687,0.109
21.27,-0.08,1.076,0.164
21.28,-0.332,0.802,-0.145
21.29,-0.309,1.029,-0.114
21.3,-0.115,1.094,0.064
21.31,-0.089,0.797,0.102
21.32,-0.249,0.951,0.021
21.33,-0.332,0.982,-0.148
21.34,-0.157,1.235,-0.014
21.35,-0.21,0.694,0.127
21.36,-0.086,1.049,0.095
21.37,-0.374,0.769,-0.213
21.38,-0.248,1.188,-0.011
21.39,-0.073,1.016,0.059
21.4,-0.183,0.822,0.115
21.41,-0.265,1.009,0.015
21.42,-0.248,0.931,-0.244
21.43,-0.123,1.146,-0.042
21.44,-0.102,0.774,0.177
21.45,-0.125,1.018,0.091
21.46,-0.395,0.846,-0.207
21.47,-0.199,1.113,-0.021
21.48,-0.156,1.054,0.08
21.49,-0.188,0.708,0.157
21.5,-0.274,1.128,-0.05
21.51,-0.286,0.846,-0.2
21.52,-0.217,1.175,0.034
21.53,-0.125,0.854,0.146
21.54,-0.119,0.951,0.066
21.55,-0.368,0.953,-0.185
21.56,-0.189,1.008,-0.02
21.57,-0.157,1.117,0.073
21.58,-0.168,0.638,0.17
21.59,-0.314,1.177,-0.004
21.6,-0.312,0.853,-0.207
21.61,-0.191,1.089,0.029
21.62,-0.053,0.921,0.131
21.63,-0.13,0.93,0.085
21.64,-0.394,1.003,-0.229
21.65,-0.095,0.919,0.004
21.66,-0.168,1.212,0.074
21.67,-0.187,0.687,0.21
21.68,-0.305,1.204,-0.096
21.69,-0.297,0.81,-0.135
21.7,-0.219,1.187,0.079
21.71,-0.006,0.829,0.118
21.72,-0.222,0.927,-0.002
21.73,-0.388,0.983,-0.158
21.74,-0.038,1.026,-0.11
21.75,-0.168,1.033,0.071
21.76,-0.149,0.673,0.241
21.77,-0.342,1.213,-0.139
21.78,-0.31,0.77,-0.177
21.79,-0.114,1.224,0.089
21.8,-0.044,0.843,0.131
21.81,-0.283,0.863,0.012
21.82,-0.36,1.11,-0.145
21.83,-0.103,0.89,-0.05
21.84,-0.235,1.124,0.119
21.85,-0.037,0.678,0.148
21.86,-0.419,1.164,-0.166
21.87,-0.295,0.801,-0.12
21.88,-0.068,1.219,0.089
21.89,-0.07,0.828,0.082
21.9,-0.234,0.815,0.038
21.91,-0.386,1.26,-0.196
21.92,-0.062,0.79,-0.05
21.93,-0.219,1.172,0.166
21.94,-0.082,0.719,0.148
21.95,-0.422,1.073,-0.184
21.96,-0.231,0.914,-0.096
21.97,-0.057,1.153,0.052
21.98,-0.115,0.893,0.068
21.99,-0.27,0.708,0.025
22.0,-0.353,1.331,-0.185
22.01,-0.061,0.787,-0.023
22.02,-0.268,1.146,0.174
22.03,-0.115,0.764,0.144
22.04,-0.404,1.039,-0.197
22.05,-0.256,1.064,-0.072
22.06,-0.037,0.994,0.054
22.07,-0.133,0.948,0.136
22.08,-0.266,0.682,-0.041
22.09,-0.318,1.313,-0.211
22.1,-0.036,0.843,-0.002
22.11,-0.261,1.064,0.175
22.12,-0.032,0.835,0.097
22.13,-0.423,0.96,-0.206
22.14,-0.235,1.112,-0.064
22.15,-0.12,0.939,0.087
22.16,-0.15,1.021,0.104
22.17,-0.245,0.735,-0.018
22.18,-0.353,1.231,-0.213
22.19,-0.109,0.879,0.01
22.2,-0.101,1.046,0.156
22.21,-0.157,0.863,0.111
22.22,-0.396,0.875,-0.159
22.23,-0.093,1.224,-0.098
22.24,-0.111,0.777,0.051
22.25,-0.198,1.037,0.161
22.26,-0.269,0.786,-0.059
22.27,-0.314,1.112,-0.188
22.28,-0.152,0.971,0.052
22.29,-0.142,0.977,0.191
22.3,-0.161,0.972,0.073
22.31,-0.343,0.781,-0.2
22.32,-0.121,1.261,-0.045
22.33,-0.162,0.812,0.098
22.34,-0.22,0.964,0.178
22.35,-0.177,0.854,-0.089
22.36,-0.348,1.087,-0.146
22.37,-0.21,0.997,0.074
22.38,-0.026,0.868,0.163
22.39,-0.149,1.023,0.059
22.4,-0.373,0.82,-0.16
22.41,-0.135,1.258,-0.077
22.42,-0.122,0.805,0.039
22.43,-0.244,0.952,0.226
22.44,-0.293,0.926,-0.11
22.45,-0.282,0.91,-0.187
22.46,-0.114,1.211,0.066
22.47,-0.031,0.717,0.098
22.48,-0.18,1.037,0.077
22.49,-0.43,0.926,-0.162
22.5,-0.116,1.192,-0.064
22.51,-0.148,0.718,0.124
22.52,-0.182,1.031,0.164
22.53,-0.352,0.896,-0.159
22.54,-0.301,0.955,-0.105
22.55,-0.035,1.186,0.051
22.56,-0.098,0.718,0.128
22.57,-0.329,1.07,0.055
22.58,-0.27,0.933,-0.239
22.59,-0.101,1.128,-0.082
22.6,-0.173,0.814,0.206
22.61,-0.128,0.93,0.089
22.62,-0.313,0.97,-0.187
22.63,-0.264,0.941,-0.026
22.64,-0.152,1.244,0.057
22.65,-0.013,0.596,0.091
22.66,-0.351,1.132,0.028
22.67,-0.373,0.887,-0.202
22.68,-0.107,1.048,-0.049
22.69,-0.103,0.962,0.128
22.7,-0.106,0.88,0.093
22.71,-0.31,1.034,-0.167
22.72,-0.249,0.89,-0.018
22.73,-0.157,1.267,0.083
22.74,-0.105,0.644,0.179
22.75,-0.323,1.065,-0.005
22.76,-0.341,0.927,-0.217
22.77,-0.159,1.052,0.017
22.78,-0.214,1.021,0.131
22.79,-0.058,0.751,0.066
22.8,-0.37,1.129,-0.174
22.81,-0.173,0.856,-0.067
22.82,-0.081,1.292,0.046
22.83,-0.168,0.682,0.104
22.84,-0.28,1.006,0.001
22.85,-0.262,1.039,-0.23
22.86,-0.176,0.948,0.051
22.87,-0.155,1.065,0.124
22.88,-0.098,0.696,0.075
22.89,-0.462,1.164,-0.17
22.9,-0.147,0.859,-0.011
22.91,-0.07,1.213,0.063
22.92,-0.16,0.728,0.151
22.93,-0.29,0.975,0.009
22.94,-0.335,1.097,-0.257
22.95,-0.189,0.851,0.036
22.96,-0.066,1.168,0.135
22.97,-0.087,0.629,0.053
22.98,-0.478,1.186,-0.164
22.99,-0.102,0.961,-0.035
23.0,-0.107,1.083,0.083
23.01,-0.181,0.772,0.177
23.02,-0.236,0.946,-0.091
23.03,-0.362,1.145,-0.203
23.04,-0.193,0.807,0.079
23.05,-0.069,1.232,0.119
23.06,-0.15,0.643,0.056
23.07,-0.522,1.212,-0.13
23.08,-0.059,1.029,-0.119
23.09,-0.125,0.966,0.03
23.1,-0.139,0.899,0.23
23.11,-0.298,0.843,-0.13
23.12,-0.314,1.176,-0.204
23.13,-0.115,0.875,0.12
23.14,-0.067,1.157,0.095
23.15,-0.101,0.675,0.027
23.16,-0.45,1.176,-0.146
23.17,-0.088,1.065,-0.116
23.18,-0.109,0.879,0.074
23.19,-0.164,1.018,0.167
23.2,-0.265,0.833,-0.153
23.21,-0.277,1.167,-0.189
23.22,-0.146,0.891,0.084
23.23,-0.003,1.07,0.107
23.24,-0.138,0.758,-0.003
23.25,-0.508,1.037,-0.096
23.26,-0.061,1.153,-0.1
23.27,-0.152,0.778,0.073
23.28,-0.201,1.066,0.192
23.29,-0.314,0.793,-0.161
23.3,-0.27,1.125,-0.137
23.31,-0.033,0.936,0.085
23.32,-0.109,0.963,0.123
23.33,-0.2,0.765,0.045
23.34,-0.436,1.193,-0.161
23.35,-0.115,1.005,-0.089
23.36,-0.142,0.846,0.135
23.37,-0.152,1.052,0.142
23.38,-0.391,0.747,-0.191
23.39,-0.211,1.186,-0.118
23.4,-0.062,0.949,0.093
23.41,-0.117,0.881,0.141
23.42,-0.281,0.839,0.012
23.43,-0.361,1.093,-0.176
23.44,-0.079,1.109,-0.034
23.45,-0.167,0.729,0.132
23.46,-0.156,1.058,0.125
23.47,-0.324,0.79,-0.189
23.48,-0.227,1.157,-0.078
23.49,-0.102,0.977,0.069
23.5,-0.041,0.792,0.132
23.51,-0.242,0.974,-0.051
23.52,-0.334,1.001,-0.173
23.53,-0.091,1.16,-0.003
23.54,-0.21,0.758,0.212
23.55,-0.116,1.071,0.086
23.56,-0.262,0.852,-0.25
23.57,-0.202,1.122,-0.03
23.58,-0.117,0.972,0.068
23.59,-0.055,0.742,0.144
23.6,-0.365,1.097,-0.021
23.61,-0.282,0.826,-0.194
23.62,-0.182,1.268,0.056
23.63,-0.132,0.798,0.142
23.64,-0.154,0.956,0.045
23.65,-0.375,0.955,-0.15
23.66,-0.111,1.076,-0.068
23.67,-0.195,1.006,0.085
23.68,-0.095,0.707,0.189
23.69,-0.352,1.187,-0.124
23.7,-0.274,0.783,-0.14
23.71,-0.151,1.287,0.097
23.72,-0.117,0.792,0.179
23.73,-0.226,0.897,0.044
23.74,-0.355,1.076,-0.178
23.75,-0.13,0.969,-0.063
23.76,-0.133,1.07,0.103
23.77,-0.158,0.708,0.165
23.78,-0.356,1.121,-0.153
23.79,-0.257,0.798,-0.144
23.8,-0.131,1.212,0.09
23.81,-0.054,0.831,0.103
23.82,-0.305,0.853,0.073
23.83,-0.376,1.139,-0.16
23.84,-0.026,0.907,-0.077
23.85,-0.205,1.103,0.119
23.86,-0.142,0.711,0.192
23.87,-0.389,1.183,-0.211
23.88,-0.219,0.809,-0.162
23.89,-0.041,1.173,0.112
23.9,-0.128,0.893,0.136
23.91,-0.307,0.73,-0.0
23.92,-0.323,1.294,-0.192
23.93,-0.102,0.84,-0.031
23.94,-0.229,1.101,0.17
23.95,0.023,0.726,0.109
23.96,-0.47,1.115,-0.19
23.97,-0.192,0.971,-0.069
23.98,-0.078,1.096,0.085
23.99,-0.187,0.932,0.15
24.0,-0.271,0.729,0.058
24.01,-0.335,1.314,-0.223
24.02,-0.095,0.772,-0.001
24.03,-0.157,1.144,0.197
24.04,-0.055,0.75,0.087
24.05,-0.486,0.989,-0.19
24.06,-0.133,1.149,-0.028
24.07,-0.138,0.919,0.061
24.08,-0.211,0.969,0.172
24.09,-0.156,0.775,-0.066
24.1,-0.436,1.297,-0.171
24.11,-0.12,0.834,0.023
24.12,-0.09,1.143,0.068
24.13,-0.111,0.646,0.028
24.14,-0.45,1.198,-0.155
24.15,-0.094,1.055,-0.112
24.16,-0.151,0.832,0.054
24.17,-0.128,1.006,0.206
24.18,-0.353,0.767,-0.148
24.19,-0.328,1.162,-0.105
24.2,-0.03,0.99,0.097
24.21,-0.131,1.009,0.108
24.22,-0.225,0.727,0.047
24.23,-0.372,1.167,-0.108
24.24,-0.109,1.117,-0.104
24.25,-0.105,0.761,0.11
24.26,-0.203,1.049,0.151
24.27,-0.302,0.769,-0.176
24.28,-0.295,1.183,-0.106
24.29,-0.123,0.952,0.106
24.3,-0.107,0.912,0.171
24.31,-0.316,0.908,0.022
24.32,-0.367,1.028,-0.157
24.33,-0.12,1.137,-0.031
24.34,-0.156,0.751,0.137
24.35,-0.064,1.041,0.11
24.36,-0.401,0.825,-0.187
24.37,-0.301,1.127,-0.059
24.38,-0.036,1.015,0.029
24.39,-0.14,0.797,0.146
24.4,-0.317,0.999,0.001
24.41,-0.274,0.925,-0.234
24.42,-0.078,1.177,0.027
24.43,-0.168,0.78,0.195
24.44,-0.074,1.01,0.082
24.45,-0.411,0.901,-0.204
24.46,-0.201,1.062,-0.062
24.47,-0.052,1.042,0.022
24.48,-0.156,0.713,0.129
24.49,-0.365,1.116,-0.005
24.5,-0.27,0.855,-0.191
24.51,-0.15,1.169,0.023
24.52,-0.072,0.78,0.191
24.53,-0.158,0.955,0.02
24.54,-0.385,0.912,-0.228
24.55,-0.012,1.032,-0.06
24.56,-0.179,1.109,0.054
24.57,-0.237,0.656,0.201
24.58,-0.285,1.209,-0.111
24.59,-0.283,0.855,-0.172
24.6,-0.177,1.18,0.123
24.61,-0.086,0.831,0.184
24.62,-0.271,0.874,0.028
24.63,-0.396,1.135,-0.17
24.64,-0.032,0.874,-0.076
24.65,-0.221,1.117,0.124
24.66,-0.088,0.661,0.161
24.67,-0.435,1.16,-0.174
24.68,-0.295,0.815,-0.106
24.69,-0.098,1.219,0.107
24.7,-0.121,0.852,0.088
24.71,-0.232,0.776,-0.004
24.72,-0.322,1.25,-0.177
24.73,-0.076,0.815,-0.066
24.74,-0.223,1.144,0.149
24.75,0.061,0.714,0.078
24.76,-0.49,1.108,-0.205
24.77,-0.22,0.963,-0.015
24.78,-0.154,1.125,0.105
24.79,-0.191,0.869,0.124
24.8,-0.291,0.77,0.026
24.81,-0.388,1.286,-0.207
24.82,-0.111,0.78,-0.009
24.83,-0.118,1.194,0.128
24.84,-0.024,0.696,0.053
24.85,-0.455,1.062,-0.189
24.86,-0.072,1.094,-0.125
24.87,-0.061,0.901,0.028
24.88,-0.22,0.988,0.204
24.89,-0.209,0.736,-0.084
24.9,-0.381,1.235,-0.17
24.91,-0.172,0.831,0.13
24.92,-0.114,1.155,0.149
24.93,-0.12,0.733,0.027
24.94,-0.372,1.238,-0.198
24.95,-0.055,0.996,-0.113
24.96,-0.214,0.926,0.128
24.97,-0.1,0.974,0.206
24.98,-0.325,0.765,-0.147
24.99,-0.299,1.218,-0.107
25.0,-0.094,0.944,0.068
25.01,-0.196,0.988,0.122
25.02,-0.204,0.729,0.042
25.03,-0.382,1.217,-0.192
25.04,-0.148,1.033,-0.044
25.05,-0.133,0.773,0.137
25.06,-0.083,1.067,0.153
25.07,-0.358,0.761,-0.16
25.08,-0.297,1.171,-0.109
25.09,-0.029,0.989,0.073
25.1,-0.155,0.917,0.101
25.11,-0.275,0.84,0.042
25.12,-0.333,1.073,-0.2
25.13,-0.123,1.094,-0.065
25.14,-0.135,0.785,0.179
25.15,-0.131,1.073,0.087
25.16,-0.399,0.74,-0.231
25.17,-0.143,1.212,-0.045
25.18,-0.093,0.952,0.026
25.19,-0.155,0.764,0.165
25.2,-0.272,1.028,0.027
25.21,-0.357,0.929,-0.24
25.22,-0.094,1.105,-0.017
25.23,-0.087,0.818,0.202
25.24,-0.189,1.063,0.087
25.25,-0.334,0.813,-0.227
25.26,-0.117,1.134,-0.035
25.27,-0.142,1.026,0.08
25.28,-0.201,0.702,0.203
25.29,-0.313,1.13,0.01
25.3,-0.326,0.899,-0.174
25.31,-0.213,1.187,0.044
25.32,-0.028,0.825,0.165
25.33,-0.191,0.979,0.034
25.34,-0.326,0.907,-0.15
25.35,-0.135,1.083,-0.031
25.36,-0.191,1.02,0.071
25.37,-0.113,0.627,0.242
25.38,-0.298,1.213,-0.086
25.39,-0.391,0.796,-0.18
25.4,-0.142,1.132,0.045
25.41,-0.086,0.901,0.166
25.42,-0.206,0.879,0.023
25.43,-0.358,1.022,-0.195
25.44,-0.1,0.987,-0.066
25.45,-0.201,1.06,0.055
25.46,-0.094,0.63,0.223
25.47,-0.409,1.226,-0.1
25.48,-0.286,0.741,-0.223
25.49,-0.074,1.187,0.133
25.5,-0.161,0.912,0.127
25.51,-0.171,0.766,0.038
25.52,-0.312,1.218,-0.196
25.53,-0.101,0.917,-0.075
25.54,-0.209,1.092,0.115
25.55,-0.074,0.682,0.193
25.56,-0.434,1.17,-0.15
25.57,-0.285,0.824,-0.159
25.58,-0.16,1.127,0.126
25.59,-0.124,0.992,0.117
25.6,-0.204,0.706,0.0
25.61,-0.399,1.272,-0.159
25.62,-0.117,0.859,-0.045
25.63,-0.221,1.108,0.093
25.64,-0.057,0.718,0.191
25.65,-0.471,1.052,-0.14
25.66,-0.215,0.91,-0.168
25.67,-0.031,1.11,0.064
25.68,-0.185,0.99,0.153
25.69,-0.221,0.667,0.042
25.7,-0.387,1.352,-0.166
25.71,-0.071,0.824,-0.049
25.72,-0.217,1.095,0.201
25.73,-0.055,0.798,0.121
25.74,-0.443,0.969,-0.164
25.75,-0.208,0.985,-0.079
25.76,-0.149,1.061,0.062
25.77,-0.111,0.898,0.138
25.78,-0.274,0.786,-0.02
25.79,-0.396,1.271,-0.189
25.8,-0.07,0.79,-0.005
25.81,-0.168,1.159,0.146
25.82,-0.082,0.681,0.09
25.83,-0.475,1.027,-0.151
25.84,-0.08,1.066,-0.07
25.85,-0.156,0.904,0.073
25.86,-0.196,0.957,0.169
25.87,-0.218,0.747,-0.039
25.88,-0.412,1.283,-0.184
25.89,-0.096,0.818,0.022
25.9,-0.135,1.145,0.121
25.91,-0.064,0.746,-0.008
25.92,-0.423,1.044,-0.097
25.93,-0.112,1.191,-0.066
25.94,-0.1,0.75,0.058
25.95,-0.166,1.067,0.156
25.96,-0.29,0.764,-0.106
25.97,-0.374,1.169,-0.159
25.98,-0.116,0.927,0.106
25.99,-0.082,1.026,0.134
26.0,-0.177,0.86,-0.015
26.01,-0.409,0.921,-0.151
26.02,-0.096,1.247,-0.082
26.03,-0.091,0.718,0.098
26.04,-0.195,1.02,0.17
26.05,-0.265,0.837,-0.115
26.06,-0.37,1.115,-0.146
26.07,-0.17,1.039,0.115
26.08,-0.082,0.912,0.145
26.09,-0.23,0.96,-0.022
26.1,-0.424,0.903,-0.118
26.11,-0.146,1.266,-0.047
26.12,-0.087,0.721,0.117
26.13,-0.162,1.039,0.135
26.14,-0.379,0.874,-0.161
26.15,-0.249,0.977,-0.154
26.16,-0.12,1.164,0.084
26.17,-0.05,0.711,0.112
26.18,-0.298,1.046,-0.004
26.19,-0.308,0.925,-0.144
26.2,-0.134,1.176,-0.061
26.21,-0.125,0.76,0.1
26.22,-0.134,0.994,0.176
26.23,-0.366,0.986,-0.19
26.24,-0.24,0.877,-0.104
26.25,-0.058,1.242,0.086
26.26,-0.122,0.666,0.118
26.27,-0.328,1.072,-0.014
26.28,-0.27,0.913,-0.199
26.29,-0.12,1.161,0.019
26.3,-0.176,0.824,0.141
26.31,-0.091,0.855,0.064
26.32,-0.451,1.063,-0.211
26.33,-0.174,0.844,-0.036
26.34,-0.035,1.252,0.048
26.35,-0.115,0.63,0.13
26.36,-0.37,1.067,0.019
26.37,-0.268,0.903,-0.207
26.38,-0.114,1.084,0.023
26.39,-0.147,0.98,0.12
26.4,-0.073,0.751,0.092
26.41,-0.479,1.183,-0.159
26.42,-0.088,0.862,-0.058
26.43,-0.129,1.229,0.071
26.44,-0.165,0.649,0.167
26.45,-0.329,1.064,-0.027
26.46,-0.264,0.951,-0.212
26.47,-0.121,0.994,0.056
26.48,-0.11,1.055,0.139
26.49,-0.11,0.68,-0.012
26.5,-0.492,1.248,-0.169
26.51,-0.101,0.852,-0.062
26.52,-0.144,1.126,0.088
26.53,-0.165,0.756,0.162
26.54,-0.389,1.026,-0.105
26.55,-0.281,0.99,-0.127
26.56,-0.144,0.975,0.118
26.57,-0.09,0.91,0.127
26.58,-0.263,0.703,-0.034
26.59,-0.384,1.283,-0.149
26.6,-0.063,0.862,-0.005
26.61,-0.296,1.126,0.154
26.62,-0.036,0.702,0.135
26.63,-0.387,1.095,-0.197
26.64,-0.248,1.014,-0.105
26.65,-0.041,1.056,0.062
26.66,-0.149,0.97,0.119
26.67,-0.263,0.685,0.043
26.68,-0.383,1.3,-0.213
26.69,-0.071,0.778,-0.011
26.7,-0.191,1.15,0.172
26.71,-0.116,0.77,0.084
26.72,-0.461,0.947,-0.179
26.73,-0.08,1.143,-0.09
26.74,-0.123,0.904,0.081
26.75,-0.175,0.977,0.149
26.76,-0.263,0.755,-0.04
26.77,-0.373,1.243,-0.201
26.78,-0.117,0.895,0.034
26.79,-0.115,1.032,0.132
26.8,-0.12,0.818,0.072
26.81,-0.454,0.937,-0.164
26.82,-0.194,1.231,-0.082
26.83,-0.061,0.799,0.095
26.84,-0.172,1.056,0.18
26.85,-0.277,0.773,-0.074
26.86,-0.332,1.152,-0.216
26.87,-0.115,0.933,0.033
26.88,-0.114,0.963,0.122
26.89,-0.154,0.92,0.031
26.9,-0.421,0.889,-0.184
26.91,-0.125,1.252,-0.118
26.92,-0.079,0.712,0.061
26.93,-0.12,1.027,0.17
26.94,-0.365,0.847,-0.128
26.95,-0.228,1.0,-0.153
26.96,-0.02,1.142,0.07
26.97,-0.14,0.776,0.16
26.98,-0.281,1.046,0.041
26.99,-0.322,0.909,-0.172
27.0,-0.191,1.188,-0.03
27.01,-0.19,0.757,0.193
27.02,-0.145,0.992,0.165
27.03,-0.348,0.923,-0.211
27.04,-0.179,0.967,-0.074
27.05,-0.151,1.232,0.037
27.06,-0.079,0.574,0.154
27.07,-0.254,1.106,-0.008
27.08,-0.333,0.944,-0.203
27.09,-0.132,1.102,0.0
27.1,-0.173,0.814,0.127
27.11,-0.121,0.899,0.075
27.12,-0.392,1.028,-0.192
27.13,-0.236,0.887,-0.023
27.14,-0.112,1.268,0.059
27.15,-0.087,0.619,0.11
27.16,-0.339,1.103,-0.0
27.17,-0.315,0.928,-0.252
27.18,-0.116,1.058,0.04
27.19,-0.139,0.974,0.15
27.2,-0.12,0.768,0.056
27.21,-0.407,1.127,-0.215
27.22,-0.086,0.877,-0.007
27.23,-0.212,1.255,0.065
27.24,-0.099,0.614,0.103
27.25,-0.275,1.098,-0.086
27.26,-0.247,0.979,-0.211
27.27,-0.16,1.02,0.122
27.28,-0.103,1.031,0.124
27.29,-0.15,0.666,0.051
27.3,-0.459,1.286,-0.16
27.31,-0.101,0.834,-0.077
27.32,-0.209,1.128,0.096
27.33,-0.109,0.79,0.173
27.34,-0.392,0.971,-0.142
27.35,-0.234,0.958,-0.192
27.36,0.028,1.043,0.083
27.37,-0.138,1.075,0.11
27.38,-0.296,0.757,0.07
27.39,-0.328,1.291,-0.203
27.4,-0.112,0.84,-0.023
27.41,-0.288,1.141,0.141
27.42,0.018,0.716,0.121
27.43,-0.519,1.122,-0.187
27.44,-0.232,0.931,-0.071
27.45,-0.007,1.08,0.078
27.46,-0.172,0.944,0.106
27.47,-0.256,0.69,0.009
27.48,-0.296,1.342,-0.219
27.49,-0.127,0.804,0.003
27.5,-0.191,1.164,0.181
27.51,-0.033,0.733,0.087
27.52,-0.519,0.995,-0.187
27.53,-0.098,1.126,-0.02
27.54,-0.411,0.791,-0.188
27.55,-0.069,1.237,-0.067
27.56,-0.139,0.781,0.082
27.57,-0.215,1.022,0.228
27.58,-0.24,0.789,-0.091
27.59,-0.312,1.166,-0.162
27.6,-0.162,0.947,0.064
27.61,-0.073,0.931,0.115
27.62,-0.159,0.912,0.023
27.63,-0.411,0.918,-0.138
27.64,-0.163,1.233,-0.063
27.65,-0.081,0.693,0.056
27.66,-0.192,1.069,0.165
27.67,-0.313,0.816,-0.129
27.68,-0.257,0.996,-0.129
27.69,-0.126,1.175,0.144
27.7,-0.151,0.783,0.109
27.71,-0.251,0.99,0.016
27.72,-0.347,0.957,-0.127
27.73,-0.149,1.207,-0.014
27.74,-0.139,0.714,0.129
27.75,-0.108,1.025,0.155
27.76,-0.425,0.914,-0.171
27.77,-0.204,0.92,-0.078
27.78,-0.059,1.222,0.06
27.79,-0.119,0.617,0.119
27.8,-0.292,1.109,0.087
27.81,-0.33,0.914,-0.227
27.82,-0.124,1.061,-0.017
27.83,-0.107,0.89,0.172
27.84,-0.111,0.89,0.106
27.85,-0.417,1.007,-0.173
27.86,-0.121,0.96,-0.042
27.87,-0.198,1.235,0.084
27.88,-0.101,0.547,0.157
27.89,-0.252,1.18,-0.003
27.9,-0.353,0.91,-0.219
27.91,-0.145,1.025,0.035
27.92,-0.183,0.964,0.2
27.93,-0.108,0.779,0.097
27.94,-0.47,1.155,-0.203
27.95,-0.063,0.872,-0.045
27.96,-0.119,1.225,0.041
27.97,-0.209,0.587,0.207
27.98,-0.221,1.113,-0.051
27.99,-0.302,0.934,-0.192
28.0,-0.16,1.017,0.067
28.01,-0.097,1.032,0.145
28.02,-0.116,0.698,0.022
28.03,-0.479,1.241,-0.136
28.04,-0.085,0.889,-0.074
28.05,-0.175,1.185,0.06
28.06,-0.134,0.715,0.209
28.07,-0.352,1.054,-0.113
28.08,-0.284,0.971,-0.15
28.09,-0.141,0.987,0.122
28.1,-0.133,1.098,0.09
28.11,-0.126,0.595,0.023
28.12,-0.451,1.317,-0.152
28.13,-0.119,0.819,-0.046
28.14,-0.244,1.151,0.136
28.15,-0.045,0.737,0.181
28.16,-0.454,1.072,-0.181
28.17,-0.251,0.886,-0.122
28.18,-0.003,1.146,0.086
28.19,-0.182,0.948,0.126
28.2,-0.255,0.644,0.045
28.21,-0.371,1.365,-0.159
28.22,-0.119,0.806,-0.024
28.23,-0.266,1.128,0.143
28.24,-0.021,0.794,0.12
28.25,-0.447,0.955,-0.202
28.26,-0.242,1.079,-0.047
28.27,0.016,1.049,0.038
28.28,-0.168,0.952,0.083
28.29,-0.197,0.683,0.028
28.3,-0.334,1.343,-0.236
28.31,-0.093,0.796,-0.002
28.32,-0.146,1.097,0.178
28.33,-0.079,0.856,0.011
28.34,-0.456,0.869,-0.172
28.35,-0.153,1.212,-0.057
28.36,-0.06,0.867,0.083
28.37,-0.26,1.018,0.123
28.38,-0.144,0.774,-0.053
28.39,-0.35,1.219,-0.222
28.4,-0.189,0.922,-0.0
28.41,-0.071,0.972,0.191
28.42,-0.141,0.903,0.017
28.43,-0.445,0.876,-0.14
28.44,-0.104,1.275,-0.082
28.45,-0.147,0.741,0.081
28.46,-0.189,1.018,0.215
28.47,-0.242,0.848,-0.111
28.48,-0.331,1.069,-0.171
28.49,-0.126,1.005,0.002
28.5,-0.063,0.86,0.121
28.51,-0.169,0.965,0.027
28.52,-0.415,0.905,-0.179
28.53,-0.147,1.271,-0.054
28.54,-0.104,0.729,0.058
28.55,-0.165,0.96,0.195
28.56,-0.315,0.91,-0.115
28.57,-0.281,0.951,-0.159
28.58,-0.126,1.151,0.077
28.59,-0.116,0.793,0.147
28.6,-0.24,1.023,0.027
28.61,-0.412,0.865,-0.172
28.62,-0.104,1.239,-0.051
28.63,-0.165,0.787,0.074
28.64,-0.111,0.889,0.197
28.65,-0.312,1.061,-0.161
28.66,-0.235,0.858,-0.132
28.67,-0.116,1.232,0.086
28.68,-0.081,0.694,0.154
28.69,-0.344,1.057,0.007
28.7,-0.342,0.943,-0.172
28.71,-0.154,1.12,-0.012
28.72,-0.142,0.859,0.099
28.73,-0.042,0.829,0.166
28.74,-0.385,1.114,-0.144
28.75,-0.277,0.819,-0.025
28.76,-0.113,1.338,0.028
28.77,-0.065,0.619,0.1
28.78,-0.34,1.076,0.05
28.79,-0.363,0.99,-0.224
28.8,-0.101,0.959,-0.081
28.81,-0.153,1.036,0.176
28.82,-0.077,0.695,0.086
28.83,-0.488,1.188,-0.162
28.84,-0.139,0.859,-0.079
28.85,-0.12,1.296,0.029
28.86,-0.123,0.66,0.177
28.87,-0.28,1.042,0.021
28.88,-0.423,1.039,-0.24
28.89,-0.077,0.87,0.025
28.9,-0.153,1.175,0.119
28.91,-0.106,0.613,0.087
28.92,-0.449,1.163,-0.158
28.93,-0.125,0.872,-0.04
28.94,-0.167,1.184,0.038
28.95,-0.096,0.641,0.174
28.96,-0.327,1.104,-0.094
28.97,-0.329,0.928,-0.133
28.98,-0.13,0.999,0.085
28.99,-0.137,1.071,0.177
29.0,-0.145,0.691,0.032
29.01,-0.449,1.226,-0.215
29.02,-0.035,0.871,-0.064
29.03,-0.162,1.161,0.098
29.04,-0.169,0.711,0.186
29.05,-0.306,1.064,-0.11
29.06,-0.289,1.041,-0.18
29.07,-0.169,0.894,0.129
29.08,-0.063,1.105,0.13
29.09,-0.199,0.626,0.032
29.1,-0.496,1.29,-0.162
29.11,-0.048,0.861,-0.06
29.12,-0.261,1.06,0.08
29.13,-0.081,0.813,0.192
29.14,-0.354,0.923,-0.154
29.15,-0.267,1.142,-0.122
29.16,-0.05,0.958,0.048
29.17,-0.134,1.027,0.121
29.18,-0.227,0.666,0.032
29.19,-0.421,1.316,-0.178
29.2,-0.094,0.927,-0.064
29.21,-0.219,1.004,0.149
29.22,-0.088,0.899,0.103
29.23,-0.338,0.783,-0.181
29.24,-0.216,1.203,-0.118
29.25,-0.08,0.94,0.079
29.26,-0.15,0.979,0.134
29.27,-0.204,0.725,0.054
29.28,-0.343,1.266,-0.237
29.29,-0.091,0.956,-0.058
29.3,-0.186,0.877,0.197
29.31,-0.158,1.025,0.117
29.32,-0.338,0.754,-0.181
29.33,-0.234,1.262,-0.064
29.34,-0.06,0.929,0.055
29.35,-0.119,0.892,0.133
29.36,-0.26,0.836,0.039
29.37,-0.366,1.117,-0.235
29.38,-0.038,1.019,-0.09
29.39,-0.142,0.812,0.205
29.4,-0.183,1.048,0.069
29.41,-0.323,0.786,-0.177
29.42,-0.266,1.234,-0.042
29.43,-0.073,0.912,0.03
29.44,-0.085,0.85,0.138
29.45,-0.305,0.979,-0.027
29.46,-0.257,0.985,-0.196
29.47,-0.164,1.128,-0.044
29.48,-0.08,0.755,0.155
29.49,-0.08,1.097,0.04
29.5,-0.382,0.841,-0.215
29.51,-0.248,1.116,-0.038
29.52,-0.045,0.952,0.066
29.53,-0.136,0.787,0.123
29.54,-0.328,1.076,-0.027
29.55,-0.288,0.896,-0.193
29.56,-0.131,1.162,-0.023
29.57,-0.118,0.784,0.159
29.58,-0.12,0.991,0.073
29.59,-0.363,0.931,-0.203
29.6,-0.126,1.086,-0.05
29.61,-0.123,0.993,0.04
29.62,-0.164,0.714,0.2
29.63,-0.357,1.185,-0.089
29.64,-0.186,0.776,-0.193
29.65,-0.219,1.227,0.092
29.66,-0.02,0.782,0.099
29.67,-0.155,0.926,0.051
29.68,-0.443,1.049,-0.198
29.69,0.002,0.928,-0.137
29.7,-0.144,1.107,0.054
29.71,-0.076,0.672,0.17
29.72,-0.412,1.178,-0.079
29.73,-0.251,0.791,-0.183
29.74,-0.215,1.2,0.145
29.75,-0.101,0.8,0.157
29.76,-0.286,1.001,0.019
29.77,-0.299,1.039,-0.191
29.78,-0.144,0.976,-0.015
29.79,-0.235,0.974,0.127
29.8,-0.039,0.772,0.147
29.81,-0.475,1.163,-0.191
29.82,-0.205,0.735,-0.069
29.83,-0.111,1.362,0.051
29.84,-0.121,0.705,0.13
29.85,-0.271,0.885,0.039
29.86,-0.298,1.138,-0.209
29.87,-0.076,0.904,-0.043
29.88,-0.197,1.076,0.174
29.89,-0.081,0.664,0.107
29.9,-0.419,1.19,-0.211
29.91,-0.28,0.87,0.034
29.92,-0.105,1.222,0.058
29.93,-0.079,0.766,0.114
29.94,-0.256,0.897,0.012
29.95,-0.476,1.179,-0.193
29.96,-0.07,0.767,-0.003
29.97,-0.117,1.264,0.152
29.98,-0.111,0.656,0.098
29.99,-0.437,1.117,-0.191
30.0,-0.123,0.948,-0.048
30.01,-0.189,1.065,0.107
30.02,-0.125,0.828,0.164
30.03,-0.328,0.823,-0.024
30.04,-0.372,1.207,-0.203
30.05,-0.144,0.802,0.047
30.06,-0.102,1.234,0.159
30.07,-0.125,0.662,0.048
30.08,-0.41,1.08,-0.115
30.09,-0.133,1.09,-0.046
30.1,-0.161,0.904,0.102
30.11,-0.172,0.942,0.164
30.12,-0.285,0.753,-0.052
30.13,-0.365,1.262,-0.211
30.14,-0.076,0.829,0.062
30.15,-0.158,1.187,0.188
30.16,-0.154,0.735,0.041
30.17,-0.376,0.97,-0.173
30.18,-0.068,1.21,-0.063
30.19,-0.112,0.801,0.054
30.2,-0.198,1.031,0.205
30.21,-0.299,0.772,-0.127
30.22,-0.338,1.169,-0.153
30.23,-0.113,0.952,0.078
30.24,-0.101,1.042,0.101
30.25,-0.21,0.835,-0.002
30.26,-0.359,0.978,-0.118
30.27,-0.228,1.224,-0.074
30.28,-0.136,0.659,0.138
30.29,-0.079,1.124,0.175
30.3,-0.391,0.787,-0.157
30.31,-0.286,1.076,-0.112
30.32,-0.019,1.095,0.026
30.33,-0.199,0.785,0.143
30.34,-0.267,0.964,0.051
30.35,-0.309,0.983,-0.194
30.36,-0.2,1.179,0.014
30.37,-0.159,0.702,0.192
30.38,-0.087,1.067,0.116
30.39,-0.434,0.848,-0.201
30.4,-0.224,1.024,-0.04
30.41,-0.032,1.148,0.01
30.42,-0.183,0.625,0.134
30.43,-0.285,1.084,0.035
30.44,-0.283,0.933,-0.245
30.45,-0.21,1.107,0.012
30.46,-0.123,0.802,0.192
30.47,-0.142,0.976,0.06
30.48,-0.381,0.946,-0.171
30.49,-0.175,1.025,-0.034
30.5,-0.19,1.155,0.049
30.51,-0.084,0.609,0.16
30.52,-0.341,1.172,-0.012
30.53,-0.31,0.852,-0.25
30.54,-0.122,1.094,0.021
30.55,-0.001,0.923,0.154
30.56,-0.226,0.839,0.042
30.57,-0.301,0.953,-0.14
30.58,-0.095,1.137,-0.06
30.59,-0.176,0.948,0.05
30.6,-0.14,0.729,0.188
30.61,-0.357,1.236,-0.114
30.62,-0.332,0.786,-0.163
30.63,-0.067,1.277,0.103
30.64,-0.031,0.778,0.115
30.65,-0.281,0.897,0.022
30.66,-0.334,1.134,-0.169
30.67,-0.183,0.929,-0.05
30.68,-0.229,1.025,0.13
30.69,-0.01,0.718,0.161
30.7,-0.448,1.173,-0.167
30.71,-0.275,0.76,-0.114
30.72,-0.043,1.237,0.064
30.73,-0.102,0.787,0.122
30.74,-0.312,0.866,0.086
30.75,-0.273,1.251,-0.238
30.76,-0.098,0.808,-0.051
30.77,-0.256,1.175,0.218
30.78,-0.001,0.722,0.098
30.79,-0.506,1.08,-0.179
30.8,-0.185,0.878,-0.013
30.81,-0.077,1.297,-0.004
30.82,-0.14,0.789,0.114
30.83,-0.212,0.759,0.05
30.84,-0.366,1.327,-0.266
30.85,-0.061,0.759,-0.033
30.86,-0.13,1.196,0.16
30.87,-0.126,0.681,0.148
30.88,-0.514,1.041,-0.189
30.89,-0.11,1.081,-0.046
30.9,-0.14,1.026,0.07
30.91,-0.144,0.883,0.143
30.92,-0.169,0.788,-0.02
30.93,-0.452,1.293,-0.213
30.94,-0.103,0.752,0.045
30.95,-0.136,1.174,0.165
30.96,-0.129,0.742,0.083
30.97,-0.46,1.013,-0.132
30.98,-0.162,1.171,-0.052
30.99,-0.159,0.86,0.092
31.0,-0.127,0.976,0.161
31.01,-0.261,0.769,-0.074
31.02,-0.404,1.194,-0.162
31.03,-0.095,0.881,0.048
31.04,-0.117,1.069,0.146
31.05,-0.217,0.794,0.069
31.06,-0.394,0.954,-0.178
31.07,-0.083,1.293,-0.063
31.08,-0.104,0.742,0.069
31.09,-0.253,1.015,0.217
31.1,-0.222,0.8,-0.125
31.11,-0.313,1.142,-0.178
31.12,-0.131,1.001,0.116
31.13,-0.083,0.918,0.15
31.14,-0.24,0.921,0.016
31.15,-0.383,0.925,-0.16
31.16,-0.172,1.256,-0.027
31.17,-0.12,0.708,0.081
31.18,-0.113,1.036,0.145
31.19,-0.389,0.844,-0.138
31.2,-0.273,0.965,-0.123
31.21,-0.082,1.147,0.067
31.22,-0.13,0.713,0.117
31.23,-0.172,1.021,0.014
31.24,-0.392,0.959,-0.189
31.25,-0.155,1.165,-0.031
31.26,-0.126,0.756,0.154
31.27,-0.139,0.989,0.134
31.28,-0.379,0.933,-0.2
31.29,-0.207,0.95,-0.067
31.3,-0.109,1.237,0.048
31.31,-0.131,0.623,0.13
31.32,-0.224,1.079,0.013
31.33,-0.367,0.965,-0.202
31.34,-0.16,1.097,0.005
31.35,-0.109,0.813,0.129
31.36,-0.144,0.881,0.098
31.37,-0.476,1.04,-0.199
31.38,-0.09,0.845,-0.081
31.39,-0.124,1.046,0.03
31.4,-0.086,0.673,0.134
31.41,-0.363,1.139,-0.046
31.42,-0.27,0.839,-0.197
31.43,-0.066,1.198,0.051
31.44,-0.145,0.826,0.177
31.45,-0.177,0.909,-0.008
31.46,-0.352,0.993,-0.229
31.47,-0.102,0.968,-0.002
31.48,-0.137,1.154,0.114
31.49,-0.218,0.652,0.165
31.5,-0.326,1.184,-0.123
31.51,-0.243,0.884,-0.18
31.52,-0.154,1.155,0.15
31.53,-0.141,0.837,0.15
31.54,-0.26,0.795,-0.016
31.55,-0.332,1.199,-0.194
31.56,-0.051,0.872,-0.041
31.57,-0.274,1.094,0.163
31.58,-0.069,0.697,0.111
31.59,-0.466,1.187,-0.192
31.6,-0.236,0.924,-0.018
31.61,-0.093,1.106,0.087
31.62,-0.14,0.841,0.129
31.63,-0.319,0.808,0.029
31.64,-0.35,1.253,-0.211
31.65,-0.113,0.788,-0.017
31.66,-0.141,1.193,0.188
31.67,-0.094,0.7,0.047
31.68,-0.525,1.081,-0.153
31.69,-0.078,1.043,-0.075
31.7,-0.119,0.968,0.078
31.71,-0.207,0.932,0.204
31.72,-0.201,0.747,-0.081
31.73,-0.349,1.236,-0.148
31.74,-0.063,0.884,0.138
31.75,-0.143,1.105,0.144
31.76,-0.15,0.706,0.001
31.77,-0.421,1.15,-0.135
31.78,-0.196,1.073,-0.044
31.79,-0.165,0.794,0.139
31.8,-0.134,1.087,0.162
31.81,-0.364,0.743,-0.158
31.82,-0.277,1.165,-0.101
31.83,-0.094,1.0,0.105
31.84,-0.165,0.888,0.149
31.85,-0.211,0.84,0.005
31.86,-0.365,1.094,-0.209
31.87,-0.07,1.109,-0.071
31.88,-0.177,0.743,0.174
31.89,-0.166,1.035,0.133
31.9,-0.332,0.808,-0.176
31.91,-0.229,1.192,-0.038
31.92,-0.091,0.968,0.04
31.93,-0.173,0.754,0.151
31.94,-0.242,1.037,0.021
31.95,-0.375,0.997,-0.211
31.96,-0.142,1.14,0.011
31.97,-0.104,0.792,0.18
31.98,-0.162,1.026,0.064
31.99,-0.392,0.883,-0.186
32.0,-0.116,1.116,-0.045
32.01,-0.129,0.988,0.04
32.02,-0.194,0.679,0.188
32.03,-0.268,1.175,-0.075
32.04,-0.34,0.837,-0.152
32.05,-0.221,1.167,0.128
32.06,-0.056,0.762,0.114
32.07,-0.209,0.906,0.023
32.08,-0.399,1.004,-0.179
32.09,-0.111,1.047,-0.107
32.1,-0.121,1.002,0.047
32.11,-0.078,0.72,0.224
32.12,-0.478,1.179,-0.132
32.13,-0.22,0.723,-0.192
32.14,-0.009,1.345,0.078
32.15,-0.141,0.753,0.107
32.16,-0.237,0.885,0.083
32.17,-0.366,1.173,-0.235
32.18,-0.123,0.837,-0.073
32.19,-0.239,1.108,0.207
32.2,-0.192,0.757,0.099
32.21,-0.424,1.118,-0.216
32.22,-0.059,0.887,-0.023
32.23,-0.206,1.285,0.094
32.24,-0.076,0.632,0.131
32.25,-0.326,1.03,0.046
32.26,-0.372,1.055,-0.252
32.27,-0.085,0.893,-0.017
32.28,-0.17,1.12,0.138
32.29,-0.061,0.683,0.082
32.3,-0.536,1.233,-0.173
32.31,-0.179,0.836,-0.067
32.32,-0.101,1.162,0.074
32.33,-0.129,0.767,0.165
32.34,-0.248,0.945,-0.095
32.35,-0.351,1.124,-0.212
32.36,-0.074,0.858,0.085
32.37,-0.138,1.175,0.143
32.38,-0.161,0.632,0.065
32.39,-0.425,1.245,-0.197
32.4,-0.086,0.982,-0.09
32.41,-0.236,0.999,0.107
32.42,-0.129,0.869,0.168
32.43,-0.377,0.855,-0.109
32.44,-0.292,1.116,-0.128
32.45,-0.09,0.942,0.104
32.46,-0.149,1.088,0.103
32.47,-0.103,0.637,0.003
32.48,-0.423,1.29,-0.15
32.49,-0.238,0.985,-0.057
32.5,-0.207,0.86,0.136
32.51,-0.027,0.979,0.124
32.52,-0.436,0.768,-0.138
32.53,-0.259,1.245,-0.068
32.54,-0.028,0.963,0.025
32.55,-0.132,0.958,0.099
32.56,-0.245,0.787,0.055
32.57,-0.336,1.151,-0.251
32.58,-0.118,0.985,-0.078
32.59,-0.109,0.837,0.207
32.6,-0.223,1.029,0.122
32.61,-0.392,0.752,-0.121
32.62,-0.257,1.298,-0.08
32.63,-0.05,0.906,0.033
32.64,-0.179,0.869,0.187
32.65,-0.209,0.902,0.006
32.66,-0.358,1.041,-0.244
32.67,-0.134,1.1,-0.005
32.68,-0.027,0.817,0.116
32.69,-0.211,1.042,0.084
32.7,-0.356,0.799,-0.164
32.71,-0.108,1.256,-0.066
32.72,-0.166,0.902,0.09
32.73,-0.249,0.808,0.19
32.74,-0.165,1.038,-0.121
32.75,-0.296,0.863,-0.227
32.76,-0.186,1.224,0.094
32.77,-0.05,0.802,0.145
32.78,-0.178,1.017,0.029
32.79,-0.37,0.906,-0.197
32.8,-0.139,1.101,-0.079
32.81,-0.099,0.913,0.041
32.82,-0.123,0.793,0.184
32.83,-0.37,1.132,-0.096
32.84,-0.263,0.756,-0.206
32.85,-0.146,1.273,0.073
32.86,-0.107,0.739,0.143
32.87,-0.173,0.961,0.016
32.88,-0.375,1.042,-0.204
32.89,-0.072,1.012,-0.117
32.9,-0.125,0.985,0.089
32.91,-0.14,0.71,0.192
32.92,-0.363,1.165,-0.136
32.93,-0.261,0.802,-0.126
32.94,-0.085,1.31,0.087
32.95,-0.076,0.719,0.136
32.96,-0.259,0.911,0.063
32.97,-0.366,1.177,-0.213
32.98,-0.131,0.869,-0.051
32.99,-0.19,1.121,0.177
33.0,-0.028,0.724,0.1
33.01,-0.499,1.126,-0.168
33.02,-0.137,0.887,-0.002
33.03,-0.199,1.266,0.094
33.04,-0.186,0.645,0.183
33.05,-0.278,1.006,-0.036
33.06,-0.359,1.019,-0.231
33.07,-0.108,0.907,0.03
33.08,-0.087,1.153,0.138
33.09,-0.13,0.642,0.059
33.1,-0.443,1.241,-0.145
33.11,-0.08,0.897,-0.094
33.12,-0.144,1.098,0.083
33.13,-0.102,0.778,0.217
33.14,-0.322,0.969,-0.083
33.15,-0.323,1.025,-0.202
33.16,-0.081,0.926,0.09
33.17,-0.137,1.16,0.095
33.18,-0.148,0.628,0.047
33.19,-0.428,1.25,-0.172
33.2,-0.072,0.933,-0.121
33.21,-0.157,1.019,0.073
33.22,-0.067,0.887,0.175
33.23,-0.368,0.859,-0.137
33.24,-0.29,1.121,-0.139
33.25,-0.107,0.975,0.135
33.26,-0.148,1.096,0.113
33.27,-0.191,0.628,0.035
33.28,-0.393,1.26,-0.149
33.29,-0.166,0.975,-0.06
33.3,-0.169,0.858,0.145
33.31,-0.074,0.986,0.132
33.32,-0.411,0.78,-0.19
33.33,-0.24,1.192,-0.075
33.34,0.005,1.011,0.076
33.35,-0.25,0.948,0.129
33.36,-0.145,0.735,0.022
33.37,-0.375,1.207,-0.199
33.38,-0.102,0.996,-0.059
33.39,-0.15,0.812,0.149
33.4,-0.082,1.029,0.103
33.41,-0.366,0.75,-0.19
33.42,-0.27,1.215,-0.044
33.43,-0.025,0.959,0.094
33.44,-0.208,0.933,0.15
33.45,-0.265,0.877,0.009
33.46,-0.348,1.042,-0.203
33.47,-0.108,1.082,-0.035
33.48,-0.078,0.809,0.131
33.49,-0.138,1.039,0.048
33.5,-0.367,0.774,-0.194
33.51,-0.137,1.23,-0.088
33.52,-0.085,0.894,0.068
33.53,-0.164,0.855,0.14
33.54,-0.276,1.031,-0.019
33.55,-0.344,0.887,-0.229
33.56,-0.055,1.174,0.009
33.57,-0.066,0.835,0.152
33.58,-0.241,1.015,0.058
33.59,-0.345,0.857,-0.149
33.6,-0.135,1.216,-0.128
33.61,-0.119,0.873,0.048
33.62,-0.069,0.801,0.18
33.63,-0.36,1.097,-0.088
33.64,-0.351,0.765,-0.152
33.65,-0.135,1.295,0.058
33.66,-0.034,0.75,0.06
33.67,-0.233,0.965,0.03
33.68,-0.268,1.009,-0.161
33.69,-0.213,1.069,-0.04
33.7,-0.115,0.922,0.088
33.71,-0.05,0.74,0.17
33.72,-0.424,1.135,-0.142
33.73,-0.189,0.817,-0.159
33.74,-0.068,1.326,0.079
33.75,-0.172,0.69,0.125
33.76,-0.237,0.928,0.061
33.77,-0.304,1.151,-0.212
33.78,-0.164,0.893,-0.023
33.79,-0.14,1.044,0.162
33.8,-0.051,0.739,0.101
33.81,-0.484,1.144,-0.132
33.82,-0.226,0.804,-0.115
33.83,-0.086,1.283,0.046
33.84,-0.188,0.634,0.158
33.85,-0.238,1.042,-0.021
33.86,-0.313,1.043,-0.233
33.87,-0.145,0.93,0.05
33.88,-0.084,1.103,0.16
33.89,-0.073,0.684,0.02
33.9,-0.473,1.193,-0.147
33.91,-0.182,0.952,-0.026
33.92,-0.148,1.132,0.036
33.93,-0.097,0.691,0.163
33.94,-0.33,1.028,-0.036
33.95,-0.39,1.037,-0.202
33.96,-0.125,0.858,0.08
33.97,-0.056,1.233,0.138
33.98,-0.212,0.57,-0.005
33.99,-0.48,1.207,-0.179
34.0,-0.0,0.994,-0.074
34.01,-0.172,1.012,0.108
34.02,-0.178,0.842,0.19
34.03,-0.328,0.941,-0.149
34.04,-0.261,1.102,-0.18
34.05,-0.022,0.937,0.133
34.06,-0.167,1.109,0.129
34.07,-0.251,0.645,0.009
34.08,-0.347,1.269,-0.235
34.09,-0.138,0.919,-0.08
34.1,-0.203,0.989,0.172
34.11,-0.093,0.937,0.125
34.12,-0.4,0.787,-0.214
34.13,-0.219,1.253,-0.009
34.14,-0.076,0.892,0.074
34.15,-0.152,0.96,0.16
34.16,-0.158,0.757,-0.017
34.17,-0.51,1.213,-0.142
34.18,-0.045,0.98,-0.033
34.19,-0.15,0.947,0.141
34.2,-0.219,0.981,0.11
34.21,-0.333,0.77,-0.193
34.22,-0.194,1.297,-0.008
34.23,-0.111,0.878,0.087
34.24,-0.116,0.888,0.11
34.25,-0.259,0.919,-0.05
34.26,-0.333,1.021,-0.184
34.27,-0.163,1.091,0.044
34.28,-0.074,0.81,0.165
34.29,-0.223,1.003,0.057
34.3,-0.4,0.847,-0.142
34.31,-0.137,1.25,-0.099
34.32,-0.121,0.807,0.041
34.33,-0.116,0.93,0.193
34.34,-0.294,0.996,-0.14
34.35,-0.314,0.864,-0.149
34.36,-0.062,1.295,0.059
34.37,-0.107,0.722,0.134
34.38,-0.231,1.023,0.064
34.39,-0.398,0.973,-0.18
34.4,-0.16,1.132,-0.011
34.41,-0.229,0.844,0.135
34.42,-0.1,0.82,0.172
34.43,-0.401,1.086,-0.149
34.44,-0.253,0.811,-0.062
34.45,-0.074,1.309,0.056
34.46,-0.129,0.651,0.106
34.47,-0.215,1.023,0.058
34.48,-0.396,1.03,-0.178
34.49,-0.102,1.007,-0.024
34.5,-0.172,0.976,0.123
34.51,-0.067,0.75,0.119
34.52,-0.467,1.17,-0.197
34.53,-0.242,0.843,-0.058
34.54,-0.121,1.28,0.086
34.55,-0.142,0.642,0.13
34.56,-0.258,1.015,0.039
34.57,-0.331,1.073,-0.236
34.58,-0.177,0.855,0.031
34.59,-0.099,1.115,0.154
34.6,-0.127,0.68,0.068
34.61,-0.461,1.217,-0.183
34.62,-0.119,0.89,-0.035
34.63,-0.194,1.177,0.108
34.64,-0.136,0.722,0.157
34.65,-0.339,1.108,-0.11
34.66,-0.3,0.915,-0.151
34.67,-0.101,1.072,0.153
34.68,-0.161,1.014,0.11
34.69,-0.188,0.657,0.005
34.7,-0.383,1.34,-0.173
34.71,-0.13,0.893,-0.056
34.72,-0.195,1.089,0.104
34.73,-0.063,0.763,0.177
34.74,-0.461,1.005,-0.136
34.75,-0.228,0.975,-0.166
34.76,-0.074,1.038,0.081
34.77,-0.165,1.01,0.109
34.78,-0.161,0.653,0.021
34.79,-0.374,1.353,-0.251
34.8,-0.08,0.793,-0.034
34.81,-0.162,1.096,0.161
34.82,-0.122,0.836,0.098
34.83,-0.414,0.873,-0.197
34.84,-0.184,1.169,-0.037
34.85,-0.07,0.962,0.058
34.86,-0.195,0.949,0.117
34.87,-0.168,0.751,-0.045
34.88,-0.342,1.305,-0.229
34.89,-0.142,0.87,0.022
34.9,-0.128,1.036,0.176
34.91,-0.146,0.882,0.019
34.92,-0.448,0.865,-0.189
34.93,-0.138,1.248,-0.026
34.94,-0.045,0.802,0.08
34.95,-0.186,1.017,0.159
34.96,-0.269,0.84,-0.108
34.97,-0.322,1.115,-0.174
34.98,-0.089,1.006,0.069
34.99,-0.07,0.929,0.138
35.0,-0.285,0.951,0.028
35.01,-0.436,0.864,-0.123
35.02,-0.159,1.331,-0.02
35.03,-0.102,0.729,0.069
35.04,-0.088,1.009,0.151
35.05,-0.389,0.91,-0.159
35.06,-0.305,1.003,-0.102
35.07,0.017,1.159,0.052
35.08,-0.128,0.7,0.11
35.09,-0.365,1.053,0.044
35.1,-0.272,0.879,-0.184
35.11,-0.218,1.177,-0.011
35.12,-0.153,0.792,0.2
35.13,-0.067,0.92,0.044
35.14,-0.445,0.979,-0.2
35.15,-0.005,0.973,-0.096
35.16,-0.082,1.156,0.032
35.17,-0.197,0.641,0.201
35.18,-0.221,1.142,-0.079
35.19,-0.322,0.81,-0.214
35.2,-0.163,1.233,0.159
35.21,-0.078,0.896,0.081
35.22,-0.207,0.751,0.022
35.23,-0.364,1.18,-0.152
35.24,-0.029,0.932,-0.099
35.25,-0.257,1.083,0.091
35.26,-0.023,0.708,0.19
35.27,-0.409,1.157,-0.169
35.28,-0.348,0.792,-0.142
35.29,0.078,1.225,0.067
35.3,-0.155,0.881,0.072
35.31,-0.239,0.749,0.038
35.32,-0.391,1.295,-0.207
35.33,-0.082,0.755,-0.073
35.34,-0.216,1.158,0.211
35.35,-0.046,0.763,0.071
35.36,-0.424,1.025,-0.214
35.37,-0.132,1.015,-0.05
35.38,-0.088,1.044,0.08
35.39,-0.162,0.888,0.141
35.4,-0.24,0.769,0.014
35.41,-0.435,1.321,-0.253
35.42,-0.116,0.73,0.058
35.43,-0.109,1.203,0.159
35.44,-0.129,0.763,0.039
35.45,-0.448,1.001,-0.16
35.46,-0.038,1.043,-0.064
35.47,-0.206,0.922,0.133
35.48,-0.166,0.88,0.21
35.49,-0.338,0.855,-0.165
35.5,-0.312,1.168,-0.183
35.51,-0.008,0.925,0.117
35.52,-0.187,1.095,0.121
35.53,-0.18,0.649,-0.035
35.54,-0.342,1.242,-0.176
35.55,-0.102,0.994,-0.027
35.56,-0.262,0.843,0.185
35.57,-0.069,1.026,0.114
35.58,-0.396,0.764,-0.202
35.59,-0.299,1.232,-0.01
35.6,-0.041,0.919,0.071
35.61,-0.216,0.931,0.108
35.62,-0.149,0.842,0.011
35.63,-0.375,1.11,-0.24
35.64,-0.162,1.052,0.055
35.65,-0.03,0.876,0.142
35.66,-0.243,0.984,0.054
35.67,-0.392,0.809,-0.123
35.68,-0.13,1.325,-0.083
35.69,-0.137,0.751,0.038
35.7,-0.148,0.893,0.237
35.71,-0.277,1.021,-0.157
35.72,-0.336,0.869,-0.171
35.73,-0.078,1.233,0.105
35.74,-0.079,0.792,0.133
35.75,-0.351,1.017,0.046
35.76,-0.351,0.914,-0.137
35.77,-0.234,1.185,-0.026
35.78,-0.212,0.738,0.114
35.79,-0.009,0.897,0.187
35.8,-0.427,1.084,-0.204
35.81,-0.255,0.779,-0.091
35.82,0.018,1.337,0.068
35.83,-0.104,0.622,0.104
35.84,-0.312,1.05,0.027
35.85,-0.261,1.027,-0.228
35.86,-0.12,0.989,-0.02
35.87,-0.258,0.94,0.19
35.88,-0.267,1.153,0.007
35.89,-0.097,0.992,0.081
35.9,-0.185,0.767,0.117
35.91,-0.275,1.036,0.012
35.92,-0.35,0.929,-0.231
35.93,-0.126,1.169,0.027
35.94,-0.063,0.817,0.177
35.95,-0.191,0.987,0.031
35.96,-0.378,0.91,-0.176
35.97,-0.03,1.128,-0.118
35.98,-0.135,0.909,0.066
35.99,-0.153,0.795,0.21
36.0,-0.337,1.134,-0.15
36.01,-0.283,0.762,-0.164
36.02,-0.127,1.318,0.157
36.03,-0.078,0.743,0.129
36.04,-0.288,0.949,0.035
36.05,-0.337,1.069,-0.133
36.06,-0.11,0.986,-0.077
36.07,-0.205,0.946,0.139
36.08,-0.061,0.758,0.185
36.09,-0.481,1.167,-0.191
36.1,-0.221,0.794,-0.074
36.11,-0.023,1.341,0.042
36.12,-0.121,0.659,0.084
36.13,-0.245,0.914,0.016
36.14,-0.279,1.197,-0.243
36.15,-0.117,0.837,0.012
36.16,-0.238,1.143,0.171
36.17,-0.034,0.682,0.083
36.18,-0.485,1.174,-0.176
36.19,-0.151,0.853,-0.033
36.2,-0.114,1.187,0.073
36.21,-0.139,0.765,0.124
36.22,-0.32,1.091,-0.078
36.23,-0.383,0.985,-0.162
36.24,-0.055,0.989,0.114
36.25,-0.121,1.118,0.073
36.26,-0.137,0.608,-0.032
36.27,-0.434,1.306,-0.159
36.28,-0.11,0.914,-0.075
36.29,-0.079,1.023,0.14
36.3,-0.134,0.802,0.223
36.31,-0.466,1.016,-0.166
36.32,-0.209,1.014,-0.187
36.33,-0.076,0.983,0.123
36.34,-0.147,1.042,0.125
36.35,-0.178,0.647,-0.036
36.36,-0.368,1.353,-0.197
36.37,-0.115,0.814,-0.02
36.38,-0.2,1.049,0.182
36.39,-0.04,0.86,0.092
36.4,-0.493,0.878,-0.184
36.41,-0.195,1.189,-0.015
36.42,-0.086,0.892,0.059
36.43,-0.221,0.972,0.165
36.44,-0.247,0.747,0.022
36.45,-0.348,1.265,-0.27
36.46,-0.112,0.879,-0.011
36.47,-0.066,1.005,0.178
36.48,-0.164,0.888,0.026
36.49,-0.494,0.845,-0.15
36.5,-0.045,1.3,-0.024
36.51,-0.164,0.812,0.085
36.52,-0.245,0.988,0.2
36.53,-0.167,0.832,-0.143
36.54,-0.367,1.085,-0.171
36.55,-0.032,1.103,0.122
36.56,-0.074,0.857,0.146
36.57,-0.319,0.962,0.036
36.58,-0.337,0.928,-0.168
36.59,-0.157,1.279,-0.1
36.6,-0.207,0.675,0.127
36.61,-0.071,1.029,0.166
36.62,-0.344,0.936,-0.17
36.63,-0.301,0.904,-0.11
36.64,0.001,1.223,0.082
36.65,-0.165,0.65,0.116
36.66,-0.335,1.073,0.049
36.67,-0.282,0.961,-0.216
36.68,-0.207,1.124,-0.066
36.69,-0.171,0.795,0.155
36.7,0.011,0.932,0.088
36.71,-0.435,0.989,-0.182
36.72,-0.211,0.879,-0.048
36.73,-0.088,1.253,0.06
36.74,-0.17,0.606,0.134
36.75,-0.271,1.145,0.013
36.76,-0.334,0.901,-0.198
36.77,-0.274,1.068,0.074
36.78,-0.031,0.953,0.122
36.79,-0.122,0.8,0.061
36.8,-0.454,1.11,-0.184
36.81,-0.112,0.884,-0.053
36.82,-0.087,1.144,0.015
36.83,-0.162,0.642,0.182
36.84,-0.3,1.129,-0.044
36.85,-0.344,0.905,-0.205
36.86,-0.195,1.013,0.086
36.87,-0.04,1.04,0.125
36.88,-0.184,0.673,0.024
36.89,-0.462,1.212,-0.161
36.9,0.004,0.917,-0.086
36.91,-0.194,1.146,0.063
36.92,-0.09,0.72,0.232
36.93,-0.372,1.07,-0.146
36.94,-0.346,0.967,-0.159
36.95,-0.056,1.077,0.122
36.96,-0.165,1.034,0.112
36.97,-0.238,0.635,0.028
36.98,-0.414,1.316,-0.139
36.99,-0.088,0.818,-0.063
37.0,-0.259,1.075,0.175
37.01,-0.069,0.787,0.157
37.02,-0.397,0.951,-0.181
37.03,-0.188,0.953,-0.083
37.04,-0.036,1.121,0.061
37.05,-0.198,0.864,0.14
37.06,-0.253,0.74,0.024
37.07,-0.322,1.356,-0.242
37.08,-0.137,0.779,-0.015
37.09,-0.193,1.134,0.18
37.1,-0.057,0.738,0.094
37.11,-0.561,1.01,-0.198
37.12,-0.082,1.079,-0.053
37.13,-0.153,0.978,0.068
37.14,-0.273,0.968,0.195
37.15,-0.149,0.718,-0.003
37.16,-0.42,1.322,-0.238
37.17,-0.146,0.79,0.028
37.18,-0.106,1.171,0.154
37.19,-0.099,0.765,0.05
37.2,-0.429,0.945,-0.169
37.21,-0.075,1.205,-0.023
37.22,-0.18,0.867,0.061
37.23,-0.223,1.004,0.156
37.24,-0.256,0.747,-0.038
37.25,-0.385,1.243,-0.209
37.26,-0.113,0.921,0.052
37.27,-0.08,1.039,0.117
37.28,-0.14,0.829,0.03
37.29,-0.357,0.895,-0.202
37.3,-0.091,1.275,-0.053
37.31,-0.16,0.745,0.059
37.32,-0.181,1.021,0.205
37.33,-0.237,0.822,-0.14
37.34,-0.409,1.075,-0.154
37.35,-0.09,0.988,0.083
37.36,-0.071,0.948,0.126
37.37,-0.214,0.905,0.001
37.38,-0.358,0.901,-0.117
37.39,-0.141,1.283,-0.119
37.4,-0.167,0.67,0.083
37.41,-0.102,1.042,0.186
37.42,-0.356,0.89,-0.172
37.43,-0.327,0.985,-0.148
37.44,-0.004,1.186,0.072
37.45,-0.131,0.723,0.11
37.46,-0.28,1.007,0.017
37.47,-0.248,0.969,-0.186
37.48,-0.298,1.175,-0.024
37.49,-0.166,0.721,0.152
37.5,-0.039,0.991,0.156
37.51,-0.443,0.921,-0.163
37.52,-0.208,0.884,-0.066
37.53,-0.072,1.312,0.048
37.54,-0.173,0.602,0.113
37.55,-0.243,1.082,0.063
37.56,-0.298,0.961,-0.216
37.57,-0.2,1.067,-0.038
37.58,-0.186,0.85,0.198
37.59,-0.07,0.905,0.081
37.6,-0.413,0.979,-0.245
37.61,-0.165,0.887,-0.042
37.62,-0.058,1.275,0.053
37.63,-0.11,0.605,0.134
37.64,-0.335,1.102,0.063
37.65,-0.305,0.916,-0.255
37.66,-0.138,1.04,-0.029
37.67,-0.128,0.985,0.155
37.68,-0.052,0.765,0.086
37.69,-0.474,1.128,-0.166
37.7,-0.076,0.878,-0.063
37.71,-0.153,1.259,0.081
37.72,-0.182,0.615,0.158
37.73,-0.237,1.071,-0.015
37.74,-0.425,0.976,-0.207
37.75,-0.213,0.917,0.078
37.76,-0.06,1.115,0.128
37.77,-0.183,0.657,0.045
37.78,-0.496,1.194,-0.097
37.79,-0.118,0.876,-0.044
37.8,-0.132,1.128,0.019
37.81,-0.132,0.726,0.208
37.82,-0.26,1.001,-0.104
37.83,-0.324,0.96,-0.211
37.84,-0.179,0.971,0.11
37.85,-0.105,0.985,0.128
37.86,-0.268,0.66,0.07
37.87,-0.322,1.265,-0.148
37.88,-0.103,0.911,-0.099
37.89,-0.219,1.074,0.092
37.9,-0.084,0.76,0.228
37.91,-0.395,1.087,-0.133
37.92,-0.315,0.851,-0.191
37.93,-0.048,1.106,0.109
37.94,-0.165,1.059,0.105
37.95,-0.237,0.635,0.007
37.96,-0.419,1.296,-0.157
37.97,-0.122,0.849,-0.057
37.98,-0.25,1.096,0.106
37.99,-0.021,0.808,0.188
38.0,-0.43,1.017,-0.17
38.01,-0.252,0.973,-0.154
38.02,-0.027,1.019,0.073
38.03,-0.102,1.066,0.098
38.04,-0.243,0.654,-0.008
38.05,-0.413,1.283,-0.139
38.06,-0.127,0.881,-0.049
38.07,-0.236,1.031,0.12
38.08,-0.019,0.855,0.128
38.09,-0.387,0.919,-0.128
38.1,-0.293,1.132,-0.159
38.11,-0.034,0.925,0.044
38.12,-0.075,1.007,0.154
38.13,-0.303,0.711,0.038
38.14,-0.326,1.265,-0.183
38.15,-0.108,0.924,-0.043
38.16,-0.269,0.939,0.239
38.17,-0.042,0.919,0.118
38.18,-0.407,0.861,-0.223
38.19,-0.243,1.218,-0.043
38.2,-0.034,0.895,0.025
38.21,-0.145,0.98,0.174
38.22,-0.264,0.767,0.02
38.23,-0.302,1.223,-0.242
38.24,-0.139,0.967,-0.048
38.25,-0.216,0.926,0.181
38.26,-0.094,1.006,0.111
38.27,-0.389,0.786,-0.204
38.28,-0.235,1.24,-0.042
38.29,-0.116,0.915,0.071
38.3,-0.172,0.915,0.138
38.31,-0.27,0.835,0.004
38.32,-0.243,1.086,-0.217
38.33,-0.143,1.042,-0.024
38.34,-0.182,0.821,0.168
38.35,-0.089,1.051,0.045
38.36,-0.365,0.749,-0.231
38.37,-0.205,1.227,0.002
38.38,-0.05,0.968,0.036
38.39,-0.119,0.842,0.154
38.4,-0.354,0.969,0.026
38.41,-0.252,0.998,-0.224
38.42,-0.1,1.142,-0.035
38.43,-0.175,0.772,0.216
38.44,-0.089,1.022,0.053
38.45,-0.398,0.8,-0.2
38.46,-0.148,1.18,-0.05
38.47,-0.061,0.939,0.066
38.48,-0.158,0.774,0.134
38.49,-0.327,1.077,-0.024
38.5,-0.31,0.864,-0.192
38.51,-0.175,1.222,0.05
38.52,-0.064,0.825,0.123
38.53,-0.106,0.99,0.003
38.54,-0.424,0.868,-0.174
38.55,-0.073,1.109,-0.066
38.56,-0.075,1.007,0.039
38.57,-0.145,0.688,0.196
38.58,-0.342,1.177,-0.06
38.59,-0.239,0.797,-0.193
38.6,-0.228,1.217,0.056
38.61,-0.072,0.796,0.168
38.62,-0.087,0.959,-0.021
38.63,-0.453,0.963,-0.183
38.64,-0.075,0.978,-0.052
38.65,-0.124,1.058,0.053
38.66,-0.132,0.804,0.198
38.67,-0.29,1.145,-0.178
38.68,-0.29,0.764,-0.122
38.69,-0.178,1.313,0.123
38.7,-0.073,0.74,0.132
38.71,-0.302,0.967,0.007
38.72,-0.393,1.026,-0.103
38.73,-0.101,1.096,-0.053
38.74,-0.223,0.912,0.067
38.75,-0.014,0.772,0.175
38.76,-0.396,1.232,-0.202
38.77,-0.314,0.72,-0.14
38.78,-0.039,1.304,0.063
38.79,-0.091,0.718,0.139
38.8,-0.318,0.941,0.026
38.81,-0.294,1.105,-0.218
38.82,-0.07,0.901,-0.046
38.83,-0.3,1.071,0.182
38.84,0.07,0.698,0.094
38.85,-0.461,1.208,-0.225
38.86,-0.258,0.776,-0.065
38.87,-0.045,1.272,0.064
38.88,-0.084,0.766,0.083
38.89,-0.296,0.901,0.024
38.9,-0.28,1.167,-0.206
38.91,-0.116,0.823,0.01
38.92,-0.257,1.165,0.197
38.93,-0.001,0.662,0.094
38.94,-0.456,1.187,-0.236
38.95,-0.231,0.907,0.011
38.96,-0.11,1.135,0.073
38.97,-0.146,0.815,0.133
38.98,-0.316,0.826,-0.011
38.99,-0.334,1.219,-0.184
39.0,-0.106,0.844,-0.002
39.01,-0.187,1.242,0.156
39.02,-0.031,0.637,0.052
39.03,-0.456,1.178,-0.17
39.04,-0.079,1.04,-0.094
39.05,-0.09,0.951,0.057
39.06,-0.17,0.926,0.193
39.07,-0.292,0.789,-0.105
39.08,-0.323,1.195,-0.125
39.09,-0.175,0.904,0.096
39.1,-0.161,1.137,0.093
39.11,-0.056,0.676,0.061
39.12,-0.458,1.159,-0.164
39.13,-0.169,1.089,-0.065
39.14,-0.06,0.819,0.092
39.15,-0.195,1.033,0.19
39.16,-0.311,0.748,-0.117
39.17,-0.232,1.176,-0.144
39.18,-0.118,0.954,0.102
39.19,-0.158,1.05,0.153
39.2,-0.134,0.789,0.028
39.21,-0.506,1.107,-0.143
39.22,-0.058,1.102,-0.123
39.23,-0.102,0.785,0.103
39.24,-0.124,1.051,0.184
39.25,-0.3,0.774,-0.161
39.26,-0.283,1.142,-0.155
39.27,-0.125,0.964,0.134
39.28,-0.092,0.872,0.13
39.29,-0.328,0.905,0.019
39.3,-0.34,0.993,-0.174
39.31,-0.067,1.161,-0.064
39.32,-0.226,0.748,0.152
39.33,-0.038,1.073,0.147
39.34,-0.317,0.829,-0.202
39.35,-0.311,1.093,-0.075
39.36,-0.006,1.047,0.022
39.37,-0.074,0.767,0.135
39.38,-0.343,1.009,0.028
39.39,-0.297,0.947,-0.2
39.4,-0.116,1.198,-0.019
39.41,-0.214,0.742,0.181
39.42,-0.036,0.995,0.073
39.43,-0.361,0.902,-0.227
39.44,-0.197,1.073,-0.043
39.45,-0.116,1.063,0.047
39.46,-0.112,0.653,0.167
39.47,-0.309,1.155,-0.002
39.48,-0.247,0.883,-0.164
39.49,-0.228,1.196,0.072
39.5,-0.063,0.751,0.141
39.51,-0.176,1.025,0.039
39.52,-0.405,0.908,-0.21
39.53,-0.068,1.089,-0.098
39.54,-0.135,0.928,0.075
39.55,-0.226,0.78,0.2
39.56,-0.276,1.125,-0.088
39.57,-0.276,0.81,-0.177
39.58,-0.206,1.241,0.119
39.59,-0.03,0.811,0.151
39.6,-0.226,0.943,-0.006
39.61,-0.414,0.94,-0.179
39.62,-0.042,1.061,-0.082
39.63,-0.219,1.013,0.086
39.64,-0.139,0.707,0.204
39.65,-0.355,1.181,-0.141
39.66,-0.235,0.774,-0.18
39.67,-0.135,1.296,0.126
39.68,-0.083,0.741,0.136
39.69,-0.289,0.901,0.038
39.7,-0.349,1.099,-0.193
39.71,-0.087,0.921,-0.07
39.72,-0.299,1.052,0.157
39.73,-0.002,0.721,0.134
39.74,-0.384,1.193,-0.205
39.75,-0.305,0.769,-0.06
39.76,-0.012,1.251,0.024
39.77,-0.061,0.794,0.111
39.78,-0.299,0.852,0.051
39.79,-0.359,1.225,-0.216
39.8,-0.056,0.83,-0.026
39.81,-0.258,1.194,0.144
39.82,-0.084,0.643,0.174
39.83,-0.45,1.176,-0.192
39.84,-0.265,0.854,-0.062
39.85,-0.081,1.156,0.096
39.86,-0.084,0.853,0.138
39.87,-0.35,0.757,0.027
39.88,-0.32,1.217,-0.197
39.89,-0.035,0.832,-0.018
39.9,-0.238,1.152,0.149
39.91,-0.106,0.735,0.119
39.92,-0.368,1.074,-0.213
39.93,-0.287,0.98,-0.009
39.94,-0.014,1.043,0.076
39.95,-0.087,0.964,0.106
39.96,-0.305,0.725,-0.026
39.97,-0.351,1.273,-0.177
39.98,-0.056,0.851,0.017
39.99,-0.25,1.124,0.156
40.0,-0.103,0.745,0.087
40.01,-0.401,1.058,-0.181
40.02,-0.243,1.105,-0.03
40.03,-0.083,0.905,0.076
40.04,-0.086,0.986,0.136
40.05,-0.306,0.724,-0.066
40.06,-0.327,1.26,-0.195
40.07,-0.103,0.898,0.011
40.08,-0.16,1.081,0.161
40.09,-0.105,0.779,0.067
40.1,-0.466,0.982,-0.156
40.11,-0.161,1.17,-0.052
40.12,-0.041,0.803,0.087
40.13,-0.208,1.065,0.161
40.14,-0.263,0.752,-0.133
40.15,-0.292,1.148,-0.186
40.16,-0.091,0.981,0.042
40.17,-0.07,0.977,0.15
40.18,-0.187,0.901,0.019
40.19,-0.423,0.954,-0.149
40.2,-0.102,1.206,-0.049
40.21,-0.16,0.763,0.143
40.22,-0.21,1.013,0.121
40.23,-0.229,0.815,-0.139
40.24,-0.318,1.093,-0.143
40.25,-0.168,1.062,0.134
40.26,-0.046,0.829,0.125
40.27,-0.273,0.949,0.003
40.28,-0.371,0.912,-0.132
40.29,-0.06,1.16,-0.04
40.3,-0.145,0.749,0.139
40.31,-0.165,1.076,0.142
40.32,-0.377,0.84,-0.204
40.33,-0.295,1.14,-0.06
40.34,-0.087,1.01,0.117
40.35,-0.098,0.827,0.147
40.36,-0.294,0.997,-0.021
40.37,-0.308,0.94,-0.171
40.38,-0.086,1.192,-0.02
40.39,-0.137,0.715,0.17
40.4,-0.182,1.062,0.117
40.41,-0.288,0.888,-0.257
40.42,-0.291,1.089,-0.005
40.43,-0.083,1.013,0.072
40.44,-0.139,0.743,0.139
40.45,-0.336,1.064,-0.058
40.46,-0.29,0.827,-0.17
40.47,-0.123,1.221,0.04
40.48,-0.094,0.77,0.152
40.49,-0.138,0.975,0.053
40.5,-0.398,1.0,-0.207
40.51,-0.143,1.009,-0.064
40.52,-0.154,1.07,0.111
40.53,-0.133,0.691,0.188
40.54,-0.376,1.179,-0.08
40.55,-0.256,0.774,-0.193
40.56,-0.15,1.229,0.056
40.57,-0.076,0.809,0.147
40.58,-0.177,0.878,0.033
40.59,-0.447,1.103,-0.189
40.6,-0.144,0.932,-0.046
40.61,-0.142,1.066,0.066
40.62,-0.107,0.718,0.16
40.63,-0.374,1.183,-0.169
40.64,-0.212,0.788,-0.127
40.65,-0.134,1.23,0.116
40.66,-0.144,0.86,0.153
40.67,-0.242,0.818,0.03
40.68,-0.417,1.181,-0.176
40.69,-0.169,0.877,-0.015
40.7,-0.204,1.125,0.116
40.71,-0.049,0.717,0.151
40.72,-0.416,1.117,-0.16
40.73,-0.227,0.883,-0.099
40.74,-0.049,1.198,0.042
40.75,-0.077,0.874,0.108
40.76,-0.233,0.756,0.035
40.77,-0.448,1.284,-0.188
40.78,-0.088,0.81,-0.017
40.79,-0.191,1.149,0.129
40.8,-0.081,0.718,0.133
40.81,-0.454,1.068,-0.201
40.82,-0.169,0.944,-0.097
40.83,-0.124,1.049,0.123
40.84,-0.131,0.932,0.116
40.85,-0.256,0.672,-0.049
40.86,-0.326,1.342,-0.165
40.87,-0.13,0.871,0.024
40.88,-0.21,1.076,0.166
40.89,-0.021,0.779,0.082
40.9,-0.49,1.049,-0.214
40.91,-0.151,1.061,-0.0
40.92,-0.118,0.943,0.113
40.93,-0.23,0.982,0.095
40.94,-0.155,0.734,-0.098
40.95,-0.328,1.302,-0.179
40.96,-0.214,0.89,0.098
40.97,-0.056,1.061,0.128
40.98,-0.165,0.786,-0.017
40.99,-0.416,0.95,-0.124
41.0,-0.114,1.208,-0.045
41.01,-0.192,0.818,0.101
41.02,-0.144,1.024,0.177
41.03,-0.317,0.782,-0.142
41.04,-0.286,1.179,-0.175
41.05,-0.058,0.985,0.092
41.06,-0.155,0.847,0.157
41.07,-0.282,0.927,0.05
41.08,-0.326,0.995,-0.184
41.09,-0.165,1.131,-0.057
41.1,-0.156,0.727,0.161
41.11,-0.148,1.073,0.086
41.12,-0.363,0.768,-0.166
41.13,-0.305,1.204,-0.074
41.14,-0.08,0.92,0.119
41.15,-0.147,0.898,0.164
41.16,-0.303,0.917,-0.036
41.17,-0.353,1.012,-0.168
41.18,-0.098,1.13,-0.01
41.19,-0.111,0.79,0.163
41.2,-0.116,1.04,0.035
41.21,-0.395,0.816,-0.207
41.22,-0.206,1.174,-0.042
41.23,-0.053,0.94,0.061
41.24,-0.174,0.77,0.135
41.25,-0.263,1.046,-0.076
41.26,-0.297,0.906,-0.235
41.27,-0.115,1.201,0.02
41.28,-0.031,0.762,0.177
41.29,-0.227,1.015,0.03
41.3,-0.368,0.896,-0.184
41.31,-0.176,1.098,-0.059
41.32,-0.095,0.949,0.074
41.33,-0.148,0.763,0.148
41.34,-0.36,1.144,-0.083
41.35,-0.322,0.802,-0.145
41.36,-0.115,1.225,0.06
41.37,-0.048,0.765,0.119
41.38,-0.234,0.964,-0.027
41.39,-0.36,1.008,-0.146
41.4,-0.145,1.048,-0.016
41.41,-0.257,0.977,0.118
41.42,-0.042,0.71,0.179
41.43,-0.426,1.212,-0.157
41.44,-0.26,0.802,-0.102
41.45,-0.008,1.243,0.043
41.46,-0.142,0.694,0.145
41.47,-0.269,0.91,0.039
41.48,-0.329,1.147,-0.248
41.49,-0.114,0.828,-0.05
41.5,-0.104,1.165,0.122
41.51,-0.131,0.689,0.118
41.52,-0.438,1.177,-0.212
41.53,-0.115,0.848,-0.073
41.54,-0.214,1.14,0.14
41.55,-0.06,0.79,0.146
41.56,-0.361,0.833,-0.045
41.57,-0.345,1.151,-0.215
41.58,0.03,0.882,0.005
41.59,-0.284,1.202,0.17
41.6,0.053,0.638,0.084
41.61,-0.424,1.255,-0.222
41.62,-0.126,0.96,-0.047
41.63,-0.152,1.032,0.101
41.64,-0.197,0.839,0.186
41.65,-0.259,0.814,-0.066
41.66,-0.263,1.25,-0.23
41.67,-0.14,0.844,0.081
41.68,-0.106,1.135,0.106
41.69,-0.151,0.65,0.062
41.7,-0.448,1.17,-0.177
41.71,-0.048,1.08,-0.088
41.72,-0.215,0.848,0.11
41.73,-0.205,0.986,0.167
41.74,-0.226,0.79,-0.178
41.75,-0.335,1.165,-0.146
41.76,-0.044,0.935,0.118
41.77,-0.133,1.068,0.109
41.78,-0.266,0.725,0.024
41.79,-0.406,1.14,-0.136
41.8,-0.11,1.061,-0.044
41.81,-0.249,0.8,0.2
41.82,-0.128,1.059,0.113
41.83,-0.334,0.739,-0.198
41.84,-0.318,1.217,-0.085
41.85,-0.025,0.948,0.072
41.86,-0.116,0.883,0.107
41.87,-0.232,0.908,-0.016
41.88,-0.352,1.042,-0.217
41.89,-0.09,1.084,-0.004
41.9,-0.097,0.763,0.223
41.91,-0.211,1.053,0.079
41.92,-0.339,0.802,-0.193
41.93,-0.201,1.295,-0.046
41.94,-0.088,0.818,0.09
41.95,-0.129,0.956,0.122
41.96,-0.258,0.852,-0.101
41.97,-0.273,1.018,-0.168
41.98,-0.176,1.131,0.075
41.99,-0.187,0.778,0.162
42.0,-0.161,1.021,0.018
42.01,-0.394,0.868,-0.183
42.02,-0.146,1.195,-0.07
42.03,-0.053,0.807,0.081
42.04,-0.244,0.926,0.155
42.05,-0.275,0.947,-0.138
42.06,-0.233,0.957,-0.153
42.07,-0.196,1.208,0.113
42.08,-0.086,0.69,0.116
42.09,-0.25,1.059,-0.001
42.1,-0.427,0.908,-0.134
42.11,-0.063,1.147,-0.047
42.12,-0.147,0.863,0.105
42.13,-0.177,0.849,0.174
42.14,-0.33,1.089,-0.164
42.15,-0.218,0.874,-0.169
42.16,-0.088,1.269,0.114
42.17,-0.099,0.632,0.132
42.18,-0.271,1.049,-0.056
42.19,-0.308,0.966,-0.142
42.2,-0.099,1.079,0.04
42.21,-0.19,0.905,0.113
42.22,-0.008,0.776,0.047
42.23,-0.459,1.231,-0.21
42.24,-0.26,0.777,-0.028
42.25,-0.101,1.229,0.089
42.26,-0.173,0.646,0.146
42.27,-0.304,1.017,-0.036
42.28,-0.21,1.014,-0.234
42.29,-0.129,0.958,-0.003
42.3,-0.115,1.043,0.168
42.31,-0.079,0.673,0.033
42.32,-0.475,1.19,-0.225
42.33,-0.125,0.858,-0.019
42.34,-0.14,1.163,0.103
42.35,-0.16,0.717,0.166
42.36,-0.333,1.01,-0.113
42.37,-0.208,1.073,-0.206
42.38,-0.092,0.974,0.105
42.39,-0.105,1.062,0.114
42.4,-0.145,0.618,-0.001
42.41,-0.531,1.332,-0.171
42.42,-0.058,0.893,-0.036
42.43,-0.186,1.071,0.118
42.44,-0.158,0.844,0.165
42.45,-0.297,0.922,-0.157
42.46,-0.264,1.116,-0.171
42.47,-0.001,0.875,0.103
42.48,-0.168,1.08,0.132
42.49,-0.212,0.645,-0.032
42.5,-0.393,1.274,-0.134
42.51,-0.154,0.895,0.008
42.52,-0.202,0.904,0.178
42.53,-0.136,0.98,0.079
42.54,-0.382,0.835,-0.215
42.55,-0.161,1.215,-0.08
42.56,-0.0,0.826,0.076
42.57,-0.174,1.041,0.155
42.58,-0.279,0.765,-0.036
42.59,-0.305,1.19,-0.202
42.6,-0.148,1.006,-0.002
42.61,-0.114,0.88,0.158
42.62,-0.162,0.961,0.05
42.63,-0.377,0.843,-0.208
42.64,-0.103,1.245,-0.054
42.65,-0.113,0.819,0.124
42.66,-0.18,0.976,0.145
42.67,-0.231,0.874,-0.118
42.68,-0.317,1.078,-0.164
42.69,-0.113,1.096,0.074
42.7,-0.116,0.769,0.14
42.71,-0.279,1.014,0.029
42.72,-0.386,0.892,-0.161
42.73,-0.147,1.222,0.013
42.74,-0.145,0.722,0.156
42.75,-0.156,1.062,0.105
42.76,-0.283,0.847,-0.227
42.77,-0.274,1.094,-0.044
42.78,-0.094,1.057,0.121
42.79,-0.118,0.77,0.137
42.8,-0.363,1.028,0.003
42.81,-0.225,0.885,-0.204
42.82,-0.121,1.245,0.023
42.83,-0.236,0.73,0.251
42.84,-0.174,1.004,0.076
42.85,-0.333,0.968,-0.298
42.86,-0.103,1.003,-0.056
42.87,-0.103,1.076,0.1
42.88,-0.184,0.682,0.134
42.89,-0.239,1.151,-0.091
42.9,-0.241,0.904,-0.181
42.91,-0.225,1.235,0.112
42.92,-0.061,0.767,0.11
42.93,-0.249,0.904,0.034
42.94,-0.421,1.067,-0.204
42.95,-0.033,0.936,-0.052
42.96,-0.155,1.08,0.12
42.97,-0.18,0.673,0.198
42.98,-0.311,1.201,-0.125
42.99,-0.352,0.862,-0.152
43.0,-0.053,1.153,0.104
43.01,-0.127,0.844,0.148
43.02,-0.318,0.825,-0.028
43.03,-0.323,1.171,-0.178
43.04,-0.123,0.861,0.025
43.05,-0.245,1.125,0.151
43.06,-0.011,0.671,0.104
43.07,-0.467,1.16,-0.195
43.08,-0.258,0.93,-0.051
43.09,-0.036,1.114,0.06
43.1,-0.178,0.858,0.121
43.11,-0.312,0.812,-0.01
43.12,-0.286,1.242,-0.248
43.13,-0.145,0.831,0.043
43.14,-0.166,1.172,0.188
43.15,-0.039,0.701,0.04
43.16,-0.532,1.109,-0.189
43.17,-0.042,1.025,-0.071
43.18,-0.147,0.971,0.112
43.19,-0.237,0.922,0.194
43.2,-0.202,0.792,-0.095
43.21,-0.358,1.213,-0.181
43.22,-0.074,0.863,0.117
43.23,-0.081,1.124,0.118
43.24,-0.224,0.679,0.015
43.25,-0.43,1.116,-0.145
43.26,-0.056,1.122,-0.078
43.27,-0.202,0.783,0.099
43.28,-0.153,1.044,0.191
43.29,-0.286,0.751,-0.172
43.3,-0.348,1.155,-0.11
43.31,-0.07,0.969,0.112
43.32,-0.145,0.969,0.074
43.33,-0.229,0.782,0.04
43.34,-0.382,1.103,-0.146
43.35,-0.087,1.159,-0.046
43.36,-0.196,0.731,0.135
43.37,-0.081,1.104,0.112
43.38,-0.397,0.79,-0.183
43.39,-0.341,1.124,-0.025
43.4,0.007,1.022,0.073
43.41,-0.15,0.813,0.11
43.42,-0.308,0.897,0.003
43.43,-0.246,0.994,-0.239
43.44,-0.125,1.214,0.017
43.45,-0.17,0.728,0.203
43.46,-0.148,1.068,0.055
43.47,-0.374,0.848,-0.246
43.48,-0.155,1.116,-0.057
43.49,-0.078,0.976,0.084
43.5,-0.173,0.762,0.169
43.51,-0.339,1.071,-0.059
43.52,-0.249,0.83,-0.208
43.53,-0.166,1.259,0.045
43.54,-0.037,0.777,0.123
43.55,-0.207,0.985,-0.007
43.56,-0.408,0.928,-0.125
43.57,-0.147,1.205,-0.012
43.58,-0.186,0.778,0.101
43.59,-0.091,0.897,0.179
43.6,-0.378,1.078,-0.156
43.61,-0.306,0.845,-0.078
43.62,-0.026,1.291,0.06
43.63,-0.075,0.631,0.092
43.64,-0.337,1.047,0.024
43.65,-0.296,0.99,-0.174
43.66,-0.202,1.029,0.016
43.67,-0.222,0.885,0.201
43.68,-0.134,0.793,0.113
43.69,-0.444,1.122,-0.217
43.7,-0.18,0.847,-0.035
43.71,-0.068,1.22,0.074
43.72,-0.102,0.654,0.155
43.73,-0.355,1.06,-0.01
43.74,-0.282,0.975,-0.227
43.75,-0.156,0.958,0.022
43.76,-0.163,1.034,0.152
43.77,-0.038,0.738,0.027
43.78,-0.486,1.217,-0.202
43.79,-0.119,0.858,-0.032
43.8,-0.141,1.205,0.097
43.81,-0.136,0.648,0.129
43.82,-0.351,1.014,-0.035
43.83,-0.298,1.087,-0.143
43.84,-0.172,0.968,0.054
43.85,-0.154,1.083,0.131
43.86,-0.094,0.602,-0.005
43.87,-0.528,1.3,-0.143
43.88,-0.114,0.89,-0.045
43.89,-0.163,1.055,0.062
43.9,-0.137,0.81,0.172
43.91,-0.352,0.901,-0.152
43.92,-0.232,1.084,-0.167
43.93,-0.04,0.938,0.092
43.94,-0.186,1.065,0.139
43.95,-0.204,0.671,0.026
43.96,-0.408,1.286,-0.205
43.97,-0.145,0.857,-0.028
43.98,-0.209,1.013,0.164
43.99,-0.029,0.91,0.1
44.0,-0.389,0.854,-0.172
44.01,-0.146,1.196,-0.106
44.02,-0.116,0.918,0.108
44.03,-0.087,0.967,0.135
44.04,-0.272,0.746,-0.031
44.05,-0.339,1.239,-0.217
44.06,-0.065,0.975,-0.03
44.07,-0.225,0.881,0.176
44.08,-0.088,0.999,0.112
44.09,-0.432,0.832,-0.165
44.1,-0.254,1.205,-0.034
44.11,0.0,0.861,0.049
44.12,-0.15,0.954,0.125
44.13,-0.327,0.787,-0.029
44.14,-0.254,1.135,-0.222
44.15,-0.059,1.055,0.013
44.16,-0.151,0.829,0.188
44.17,-0.187,0.994,0.043
44.18,-0.439,0.833,-0.205
44.19,-0.101,1.237,-0.063
44.2,-0.08,0.747,0.077
44.21,-0.116,0.963,0.154
44.22,-0.155,0.912,0.185
44.23,-0.396,1.049,-0.195
44.24,-0.276,0.847,-0.081
44.25,-0.016,1.251,0.069
44.26,-0.07,0.655,0.143
44.27,-0.328,1.076,0.004
44.28,-0.246,0.896,-0.2
44.29,-0.16,1.199,-0.011
44.3,-0.096,0.784,0.148
44.31,-0.125,0.913,0.058
44.32,-0.447,1.031,-0.186
44.33,-0.031,0.975,-0.106
44.34,-0.195,1.081,0.076
44.35,-0.116,0.644,0.214
44.36,-0.343,1.21,-0.103
44.37,-0.312,0.779,-0.185
44.38,-0.165,1.175,0.124
44.39,-0.147,0.902,0.123
44.4,-0.168,0.808,0.016
44.41,-0.411,1.143,-0.19
44.42,-0.136,0.926,-0.062
44.43,-0.178,1.091,0.075
44.44,-0.043,0.723,0.181
44.45,-0.489,1.134,-0.131
44.46,-0.197,0.789,-0.166
44.47,-0.022,1.237,0.078
44.48,-0.184,0.86,0.117
44.49,-0.205,0.775,0.06
44.5,-0.408,1.267,-0.234
44.51,-0.152,0.803,-0.013
44.52,-0.202,1.136,0.127
44.53,-0.033,0.752,0.162
44.54,-0.458,1.082,-0.208
44.55,-0.187,0.865,-0.106
44.56,0.004,1.175,0.104
44.57,-0.151,0.901,0.102
44.58,-0.254,0.741,0.05
44.59,-0.419,1.3,-0.245
44.6,-0.062,0.751,-0.012
44.61,-0.25,1.19,0.216
44.62,-0.106,0.72,0.055
44.63,-0.474,1.005,-0.161
44.64,-0.072,1.094,-0.056
44.65,-0.1,0.918,0.097
44.66,-0.187,0.98,0.173
44.67,-0.222,0.77,-0.06
44.68,-0.431,1.22,-0.188
44.69,-0.119,0.835,0.109
44.7,-0.056,1.151,0.067
44.71,-0.172,0.762,-0.02
44.72,-0.338,1.009,-0.137
44.73,-0.174,1.167,-0.084
44.74,-0.084,0.719,0.086
44.75,-0.158,1.085,0.199
44.76,-0.314,0.737,-0.154
44.77,-0.294,1.157,-0.129
44.78,-0.058,1.028,0.08
44.79,-0.217,0.934,0.131
44.8,-0.195,0.854,0.048
44.81,-0.349,1.055,-0.144
44.82,-0.153,1.165,-0.017
44.83,-0.197,0.715,0.176
44.84,-0.119,1.088,0.164
44.85,-0.295,0.781,-0.184
44.86,-0.271,1.122,-0.094
44.87,-0.007,1.036,0.054
44.88,-0.134,0.773,0.146
44.89,-0.271,0.973,-0.008
44.9,-0.348,0.971,-0.142
44.91,-0.117,1.183,-0.003
44.92,-0.167,0.736,0.162
44.93,-0.091,1.043,0.097
44.94,-0.354,0.89,-0.211
44.95,-0.268,1.048,-0.02
44.96,-0.084,1.085,0.048
44.97,-0.105,0.699,0.106
44.98,-0.35,1.133,-0.009
44.99,-0.315,0.878,-0.195
45.0,-0.155,1.16,0.012
45.01,-0.099,0.834,0.172
45.02,-0.18,0.963,0.082
45.03,-0.411,0.98,-0.153
45.04,-0.19,1.023,-0.02
45.05,-0.157,1.093,0.046
45.06,-0.07,0.683,0.142
45.07,-0.366,1.185,-0.1
45.08,-0.285,0.771,-0.196
45.09,-0.139,1.201,0.077
45.1,-0.076,0.723,0.139
45.11,-0.28,1.011,0.041
45.12,-0.365,0.981,-0.218
45.13,-0.134,1.033,-0.059
45.14,-0.155,0.957,0.104
45.15,-0.111,0.762,0.148
45.16,-0.44,1.159,-0.171
45.17,-0.188,0.781,-0.113
45.18,-0.072,1.304,0.093
45.19,-0.122,0.669,0.148
45.2,-0.296,0.973,0.024
45.21,-0.335,1.085,-0.189
45.22,-0.103,0.944,-0.027
45.23,-0.169,1.043,0.11
45.24,-0.08,0.723,0.1
45.25,-0.478,1.198,-0.188
45.26,-0.235,0.818,-0.033
45.27,-0.05,1.22,0.102
45.28,-0.162,0.72,0.165
45.29,-0.352,0.89,-0.009
45.3,-0.225,1.137,-0.214
45.31,-0.113,0.873,0.029
45.32,-0.247,1.124,0.171
45.33,0.006,0.674,0.026
45.34,-0.536,1.218,-0.167
45.35,-0.12,0.913,0.001
45.36,-0.06,1.153,0.094
45.37,-0.234,0.791,0.126
45.38,-0.228,0.858,-0.053
45.39,-0.313,1.242,-0.177
45.4,-0.124,0.85,0.096
45.41,-0.1,1.176,0.141
45.42,-0.17,0.634,-0.0
45.43,-0.53,1.198,-0.157
45.44,-0.003,1.009,-0.053
45.45,-0.19,0.969,0.081
45.46,-0.176,0.894,0.165
45.47,-0.279,0.873,-0.149
45.48,-0.333,1.212,-0.109
45.49,-0.179,0.843,0.138
45.5,-0.086,1.09,0.093
45.51,-0.24,0.697,-0.021
45.52,-0.439,1.205,-0.147
45.53,-0.046,1.044,-0.06
45.54,-0.225,0.842,0.136
45.55,-0.138,1.02,0.164
45.56,-0.362,0.781,-0.218
45.57,-0.251,1.252,-0.078
45.58,-0.043,0.925,0.079
45.59,-0.142,0.913,0.095
45.6,-0.239,0.841,0.06
45.61,-0.392,1.106,-0.218
45.62,-0.048,1.05,-0.03
45.63,-0.123,0.878,0.191
45.64,-0.194,1.023,0.061
45.65,-0.384,0.802,-0.193
45.66,-0.2,1.317,0.016
45.67,-0.115,0.848,0.113
45.68,-0.229,0.85,0.178
45.69,-0.279,0.992,-0.049
45.7,-0.307,0.928,-0.201
45.71,-0.159,1.164,0.069
45.72,-0.017,0.803,0.16
45.73,-0.253,1.029,-0.015
45.74,-0.385,0.807,-0.167
45.75,-0.062,1.204,-0.086
45.76,-0.156,0.837,0.1
45.77,-0.198,0.815,0.19
45.78,-0.308,1.121,-0.171
45.79,-0.251,0.827,-0.168
45.8,-0.078,1.25,0.064
45.81,-0.054,0.657,0.14
45.82,-0.298,1.04,0.006
45.83,-0.305,0.977,-0.171
45.84,-0.14,1.026,-0.056
45.85,-0.246,0.904,0.181
45.86,-0.074,0.805,0.121
45.87,-0.418,1.142,-0.224
45.88,-0.206,0.827,-0.047
45.89,-0.128,1.298,0.09
45.9,-0.066,0.611,0.131
45.91,-0.32,1.055,0.0
45.92,-0.297,0.838,-0.206
45.93,-0.125,1.124,0.057
45.94,-0.152,0.963,0.183
45.95,-0.185,0.79,0.063
45.96,-0.39,1.149,-0.167
45.97,-0.121,0.938,-0.028
45.98,-0.185,1.173,0.063
45.99,-0.163,0.629,0.16
46.0,-0.312,1.13,-0.058
46.01,-0.305,0.901,-0.178
46.02,-0.159,1.085,0.116
46.03,-0.093,0.997,0.123
46.04,-0.207,0.673,-0.013
46.05,-0.443,1.208,-0.142
46.06,-0.096,0.9,-0.039
46.07,-0.164,1.129,0.065
46.08,-0.089,0.736,0.191
46.09,-0.457,1.008,-0.146
46.1,-0.147,0.945,-0.178
46.11,-0.095,1.076,0.097
46.12,-0.157,0.96,0.112
46.13,-0.158,0.715,-0.034
46.14,-0.459,1.327,-0.161
46.15,-0.098,0.805,-0.008
46.16,-0.141,1.135,0.113
46.17,-0.119,0.792,0.094
46.18,-0.38,0.972,-0.157
46.19,-0.22,1.122,-0.092
46.2,-0.146,0.958,0.094
46.21,-0.073,0.977,0.139
46.22,-0.276,0.748,-0.046
46.23,-0.41,1.321,-0.186
46.24,-0.046,0.821,-0.017
46.25,-0.15,1.07,0.145
46.26,-0.134,0.857,0.085
46.27,-0.385,0.935,-0.2
46.28,-0.099,1.19,-0.065
46.29,-0.174,0.814,0.122
46.3,-0.19,0.991,0.187
46.31,-0.292,0.744,-0.064
46.32,-0.365,1.169,-0.185
46.33,-0.144,0.926,0.011
46.34,-0.122,0.98,0.16
46.35,-0.102,0.9,0.023
46.36,-0.415,0.885,-0.203
46.37,-0.104,1.257,-0.066
46.38,-0.153,0.751,0.059
46.39,-0.209,1.019,0.2
46.4,-0.265,0.844,-0.123
46.41,-0.312,1.056,-0.177
46.42,-0.127,1.085,0.132
46.43,-0.101,0.842,0.159
46.44,-0.282,0.955,0.014
46.45,-0.28,0.89,-0.188
46.46,-0.119,1.251,-0.07
46.47,-0.195,0.678,0.131
46.48,-0.178,1.017,0.182
46.49,-0.299,0.912,-0.21
46.5,-0.34,0.939,-0.067
46.51,-0.019,1.212,0.083
46.52,-0.144,0.723,0.11
46.53,-0.309,1.041,0.011
46.54,-0.339,0.929,-0.145
46.55,-0.133,1.184,-0.03
46.56,-0.171,0.749,0.147
46.57,-0.14,0.92,0.123
46.58,-0.404,1.0,-0.195
46.59,-0.25,0.888,-0.073
46.6,-0.02,1.24,0.101
46.61,-0.106,0.635,0.119
46.62,-0.367,1.098,-0.014
46.63,-0.322,0.95,-0.153
46.64,-0.192,1.106,0.026
46.65,-0.198,0.823,0.18
46.66,-0.054,0.867,0.062
46.67,-0.409,1.144,-0.223
46.68,-0.201,0.863,0.053
46.69,-0.19,1.214,0.069
46.7,-0.125,0.607,0.136
46.71,-0.312,1.175,-0.074
46.72,-0.281,0.906,-0.2
46.73,-0.167,1.201,0.119
46.74,-0.082,0.785,0.15
46.75,-0.255,0.873,0.034
46.76,-0.374,1.163,-0.195
46.77,-0.083,0.924,-0.026
46.78,-0.259,1.106,0.134
46.79,-0.059,0.694,0.157
46.8,-0.436,1.204,-0.202
46.81,-0.222,0.821,-0.085
46.82,-0.186,1.208,0.076
46.83,-0.056,0.765,0.127
46.84,-0.271,0.858,-0.013
46.85,-0.364,1.206,-0.185
46.86,-0.089,0.829,0.026
46.87,-0.231,1.195,0.158
46.88,-0.077,0.647,0.083
46.89,-0.469,1.169,-0.227
46.9,-0.174,0.964,-0.01
46.91,-0.119,1.036,0.097
46.92,-0.129,0.892,0.144
46.93,-0.343,0.806,-0.022
46.94,-0.341,1.199,-0.192
46.95,-0.122,0.856,0.065
46.96,-0.136,1.179,0.12
46.97,-0.094,0.645,0.052
46.98,-0.476,1.182,-0.141
46.99,-0.088,1.056,-0.064
47.0,-0.164,0.874,0.084
47.01,-0.099,0.992,0.171
47.02,-0.348,0.788,-0.143
47.03,-0.339,1.167,-0.198
47.04,0.021,0.93,0.126
47.05,-0.241,1.039,0.139
47.06,-0.285,0.733,0.039
47.07,-0.341,1.169,-0.19
47.08,-0.185,1.043,-0.089
47.09,-0.16,0.772,0.163
47.1,-0.081,1.088,0.123
47.11,-0.389,0.741,-0.193
47.12,-0.223,1.178,-0.084
47.13,-0.007,0.988,0.049
47.14,-0.168,0.889,0.089
47.15,-0.289,0.888,0.037
47.16,-0.269,1.057,-0.193
47.17,-0.219,1.14,-0.002
47.18,-0.111,0.707,0.209
47.19,-0.175,1.089,0.064
47.2,-0.409,0.751,-0.232
47.21,-0.178,1.2,-0.031
47.22,-0.089,0.906,0.066
47.23,-0.219,0.763,0.201
47.24,-0.245,1.053,-0.045
47.25,-0.328,0.934,-0.22
47.26,-0.096,1.143,0.031
47.27,-0.03,0.806,0.15
47.28,-0.245,0.972,0.002
47.29,-0.402,0.874,-0.191
47.3,-0.161,1.161,-0.052
47.31,-0.166,0.917,0.06
47.32,-0.099,0.724,0.155
47.33,-0.326,1.219,-0.127
47.34,-0.294,0.748,-0.199
47.35,-0.155,1.253,0.158
47.36,-0.045,0.781,0.138
47.37,-0.341,0.949,0.008
47.38,-0.317,1.033,-0.167
47.39,-0.19,1.035,-0.014
47.4,-0.35,0.941,0.151
47.41,0.055,0.724,0.15
47.42,-0.487,1.235,-0.225
47.43,-0.312,0.746,-0.035
47.44,-0.01,1.304,0.059
47.45,-0.13,0.662,0.128
47.46,-0.29,0.928,0.043
47.47,-0.208,1.146,-0.286
47.48,-0.09,0.846,-0.042
47.49,-0.243,1.132,0.161
47.5,-0.031,0.684,0.09
47.51,-0.506,1.212,-0.207
47.52,-0.154,0.886,-0.032
47.53,-0.141,1.186,0.042
47.54,-0.103,0.661,0.212
47.55,-0.326,1.099,-0.101
47.56,-0.31,0.929,-0.223
47.57,-0.111,1.01,0.114
47.58,-0.163,1.101,0.12
47.59,-0.216,0.641,0.011
47.6,-0.467,1.325,-0.147
47.61,-0.098,0.844,-0.058
47.62,-0.175,1.104,0.108
47.63,-0.077,0.797,0.194
47.64,-0.414,0.967,-0.178
47.65,-0.225,0.984,-0.145
47.66,-0.043,1.059,0.042
47.67,-0.147,1.037,0.109
47.68,-0.16,0.646,0.026
47.69,-0.366,1.354,-0.201
47.7,-0.118,0.832,-0.001
47.71,-0.254,1.076,0.187
47.72,-0.048,0.839,0.099
47.73,-0.421,0.915,-0.215
47.74,-0.264,1.17,-0.045
47.75,-0.02,0.931,0.022
47.76,-0.144,0.977,0.125
47.77,-0.272,0.725,0.027
47.78,-0.339,1.291,-0.236
47.79,-0.118,0.865,-0.007
47.8,-0.159,1.024,0.186
47.81,-0.111,0.911,0.043
47.82,-0.428,0.852,-0.216
47.83,-0.129,1.241,-0.046
47.84,-0.037,0.787,0.073
47.85,-0.195,1.01,0.184
47.86,-0.241,0.79,-0.052
47.87,-0.367,1.131,-0.187
47.88,-0.144,1.018,0.052
47.89,-0.135,0.932,0.137
47.9,-0.172,0.937,0.003
47.91,-0.374,0.87,-0.171
47.92,-0.127,1.281,-0.093
47.93,-0.096,0.721,0.092
47.94,-0.172,0.983,0.187
47.95,-0.282,0.883,-0.155
47.96,-0.256,0.982,-0.189
47.97,-0.099,1.222,0.084
47.98,-0.125,0.737,0.121
47.99,-0.255,1.011,0.01
48.0,-0.365,0.952,-0.14
48.01,-0.157,1.177,-0.044
48.02,-0.186,0.698,0.151
48.03,-0.089,0.99,0.114
48.04,-0.34,0.964,-0.214
48.05,-0.236,0.924,-0.021
48.06,-0.075,1.273,0.024
48.07,-0.092,0.563,0.117
48.08,-0.247,1.125,0.039
48.09,-0.409,0.919,-0.208
48.1,-0.109,1.072,-0.025
48.11,-0.154,0.935,0.151
48.12,-0.148,0.794,0.067
48.13,-0.366,1.088,-0.169
48.14,-0.161,0.959,-0.032
48.15,-0.131,1.213,0.079
48.16,-0.09,0.605,0.169
48.17,-0.288,1.143,-0.065
48.18,-0.356,0.918,-0.154
48.19,-0.148,1.064,0.015
48.2,-0.157,0.998,0.155
48.21,-0.099,0.719,0.043
48.22,-0.418,1.211,-0.193
48.23,-0.139,0.913,-0.082
48.24,-0.091,1.149,0.064
48.25,-0.102,0.658,0.217
48.26,-0.386,1.113,-0.105
48.27,-0.242,0.93,-0.186
48.28,-0.135,1.025,0.091
48.29,-0.191,1.057,0.13
48.3,-0.078,0.626,0.015
48.31,-0.48,1.302,-0.169
48.32,-0.105,0.875,-0.048
48.33,-0.125,1.078,0.069
48.34,-0.134,0.751,0.246
48.35,-0.396,0.969,-0.156
48.36,-0.282,0.84,-0.125
48.37,-0.027,1.187,0.049
