t,ax,ay,az
0.0,-0.164,1.011,0.173
0.01,-0.266,0.841,-0.065
0.02,-0.285,1.035,-0.16
0.03,-0.121,1.069,0.003
0.04,-0.042,0.871,0.102
0.05,-0.181,0.997,0.054
0.06,-0.381,0.873,-0.161
0.07,-0.151,1.247,-0.062
0.08,-0.126,0.793,0.098
0.09,-0.146,0.903,0.133
0.1,-0.342,0.922,-0.034
0.11,-0.225,0.998,-0.186
0.12,-0.158,1.098,-0.017
0.13,-0.13,0.807,0.221
0.14,-0.085,1.047,0.051
0.15,-0.422,0.842,-0.192
0.16,-0.236,1.196,-0.025
0.17,-0.089,0.896,0.034
0.18,-0.179,0.998,0.198
0.19,-0.298,0.904,-0.066
0.2,-0.321,1.068,-0.165
0.21,-0.134,1.007,-0.016
0.22,-0.045,0.897,0.173
0.23,-0.156,0.986,0.031
0.24,-0.388,0.812,-0.161
0.25,-0.218,1.253,-0.004
0.26,-0.102,0.826,0.048
0.27,-0.184,0.908,0.18
0.28,-0.273,0.947,-0.062
0.29,-0.265,1.033,-0.155
0.3,-0.154,1.086,-0.009
0.31,-0.145,0.847,0.191
0.32,-0.112,1.06,0.063
0.33,-0.386,0.784,-0.17
0.34,-0.244,1.197,-0.038
0.35,-0.128,0.909,0.082
0.36,-0.183,0.848,0.169
0.37,-0.357,0.95,0.009
0.38,-0.221,0.987,-0.204
0.39,-0.125,1.148,-0.045
0.4,-0.126,0.737,0.165
0.41,-0.085,1.079,0.063
0.42,-0.367,0.82,-0.19
0.43,-0.227,1.141,-0.027
0.44,-0.059,1.018,0.04
0.45,-0.147,0.806,0.16
0.46,-0.33,1.022,0.006
0.47,-0.252,0.941,-0.217
0.48,-0.171,1.157,-0.047
0.49,-0.149,0.748,0.193
0.5,-0.1,1.073,0.057
0.51,-0.314,0.809,-0.225
0.52,-0.278,1.087,0.019
0.53,-0.088,1.093,0.015
0.54,-0.065,0.698,0.139
0.55,-0.372,1.105,0.037
0.56,-0.235,0.885,-0.174
0.57,-0.193,1.142,-0.062
0.58,-0.183,0.768,0.217
0.59,-0.105,1.063,0.101
0.6,-0.34,0.906,-0.215
0.61,-0.199,0.976,-0.051
0.62,-0.04,1.187,-0.008
0.63,-0.059,0.649,0.132
0.64,-0.319,1.034,0.047
0.65,-0.241,0.977,-0.191
0.66,-0.198,1.142,-0.075
0.67,-0.215,0.74,0.202
0.68,-0.069,0.974,0.109
0.69,-0.331,0.944,-0.214
0.7,-0.258,0.882,-0.04
0.71,-0.064,1.253,0.013
0.72,-0.074,0.652,0.127
0.73,-0.304,1.085,0.056
0.74,-0.321,0.929,-0.173
0.75,-0.207,1.127,-0.05
0.76,-0.175,0.819,0.11
0.77,-0.106,0.917,0.147
0.78,-0.391,0.998,-0.186
0.79,-0.187,0.78,-0.112
0.8,-0.076,1.35,0.048
0.81,-0.105,0.665,0.135
0.82,-0.253,1.049,0.045
0.83,-0.326,0.963,-0.156
0.84,-0.21,1.122,-0.057
0.85,-0.181,0.817,0.118
0.86,-0.13,0.836,0.197
0.87,-0.351,1.112,-0.175
0.88,-0.331,0.754,-0.116
0.89,-0.095,1.278,0.085
0.9,-0.051,0.753,0.134
0.91,-0.261,1.002,0.034
0.92,-0.332,0.963,-0.17
0.93,-0.077,1.113,-0.078
0.94,-0.216,0.907,0.09
0.95,-0.116,0.743,0.181
0.96,-0.352,1.214,-0.134
0.97,-0.343,0.761,-0.098
0.98,-0.146,1.235,0.029
0.99,-0.082,0.74,0.124
1.0,-0.265,1.059,0.041
1.01,-0.33,0.901,-0.181
1.02,-0.15,1.167,-0.047
1.03,-0.153,0.865,0.114
1.04,-0.117,0.798,0.151
1.05,-0.407,1.146,-0.139
1.06,-0.212,0.782,-0.138
1.07,-0.2,1.276,0.059
1.08,-0.066,0.757,0.141
1.09,-0.202,1.023,-0.0
1.1,-0.334,0.934,-0.18
1.11,-0.169,1.072,-0.08
1.12,-0.133,0.944,0.087
1.13,-0.123,0.747,0.159
1.14,-0.414,1.169,-0.111
1.15,-0.247,0.767,-0.121
1.16,-0.175,1.258,0.068
1.17,-0.053,0.795,0.155
1.18,-0.194,0.996,0.019
1.19,-0.425,0.948,-0.174
1.2,-0.136,0.998,-0.045
1.21,-0.183,1.056,0.051
1.22,-0.091,0.67,0.147
1.23,-0.399,1.211,-0.122
1.24,-0.24,0.801,-0.148
1.25,-0.128,1.217,0.047
1.26,-0.06,0.848,0.141
1.27,-0.232,0.884,-0.003
1.28,-0.425,1.015,-0.222
1.29,-0.017,0.946,-0.047
1.3,-0.21,1.147,0.077
1.31,-0.101,0.651,0.168
1.32,-0.358,1.221,-0.123
1.33,-0.271,0.796,-0.14
1.34,-0.206,1.165,0.105
1.35,-0.001,0.905,0.111
1.36,-0.223,0.83,0.039
1.37,-0.456,1.11,-0.188
1.38,0.005,0.903,-0.091
1.39,-0.157,1.167,0.085
1.4,-0.118,0.654,0.196
1.41,-0.321,1.187,-0.133
1.42,-0.234,0.865,-0.193
1.43,-0.131,1.148,0.085
1.44,-0.073,0.947,0.097
1.45,-0.182,0.724,0.008
1.46,-0.425,1.242,-0.148
1.47,-0.109,0.845,-0.067
1.48,-0.235,1.158,0.091
1.49,-0.108,0.729,0.181
1.5,-0.317,1.115,-0.145
1.51,-0.268,0.921,-0.121
1.52,-0.144,1.031,0.072
1.53,-0.081,1.031,0.133
1.54,-0.211,0.703,0.052
1.55,-0.474,1.219,-0.178
1.56,-0.09,0.857,-0.019
1.57,-0.25,1.183,0.121
1.58,-0.092,0.698,0.134
1.59,-0.328,1.032,-0.112
1.6,-0.333,1.001,-0.164
1.61,-0.05,0.986,0.057
1.62,-0.112,1.125,0.15
1.63,-0.162,0.621,0.023
1.64,-0.447,1.259,-0.165
1.65,-0.112,0.927,-0.024
1.66,-0.156,1.124,0.083
1.67,-0.143,0.743,0.159
1.68,-0.31,1.0,-0.066
1.69,-0.316,1.091,-0.178
1.7,-0.104,0.875,0.056
1.71,-0.142,1.175,0.159
1.72,-0.143,0.624,0.008
1.73,-0.451,1.168,-0.137
1.74,-0.114,0.984,-0.039
1.75,-0.141,1.036,0.063
1.76,-0.148,0.811,0.155
1.77,-0.344,0.903,-0.064
1.78,-0.254,1.151,-0.172
1.79,-0.062,0.852,0.042
1.8,-0.14,1.182,0.186
1.81,-0.227,0.661,0.028
1.82,-0.455,1.23,-0.157
1.83,-0.037,0.903,-0.039
1.84,-0.207,1.091,0.127
1.85,-0.138,0.746,0.137
1.86,-0.351,0.986,-0.125
1.87,-0.292,1.087,-0.172
1.88,-0.049,0.888,0.067
1.89,-0.137,1.131,0.145
1.9,-0.224,0.628,-0.008
1.91,-0.418,1.226,-0.156
1.92,-0.052,0.944,-0.044
1.93,-0.239,1.046,0.11
1.94,-0.126,0.834,0.134
1.95,-0.328,0.936,-0.117
1.96,-0.307,1.144,-0.175
1.97,-0.083,0.84,0.083
1.98,-0.083,1.149,0.157
1.99,-0.263,0.648,-0.004
2.0,-0.447,1.145,-0.173
2.01,-0.037,1.036,-0.012
2.02,-0.209,0.971,0.124
2.03,-0.15,0.858,0.135
2.04,-0.315,0.851,-0.146
2.05,-0.35,1.173,-0.125
2.06,-0.066,0.856,0.125
2.07,-0.074,1.124,0.146
2.08,-0.291,0.667,-0.017
2.09,-0.325,1.139,-0.101
2.1,-0.096,1.11,-0.038
2.11,-0.295,0.792,0.124
2.12,0.001,1.033,0.135
2.13,-0.413,0.856,-0.188
2.14,-0.399,1.145,-0.035
2.15,0.032,0.95,0.069
2.16,-0.192,0.987,0.099
2.17,-0.293,0.797,0.038
2.18,-0.262,1.15,-0.166
2.19,-0.198,1.053,-0.085
2.2,-0.056,0.776,0.163
2.21,-0.066,1.08,0.06
2.22,-0.387,0.795,-0.21
2.23,-0.315,1.205,-0.067
2.24,-0.03,0.901,0.035
2.25,-0.159,0.919,0.178
2.26,-0.273,0.894,-0.031
2.27,-0.256,0.987,-0.213
2.28,-0.111,1.147,0.098
2.29,-0.157,0.645,0.029
2.3,-0.464,1.259,-0.186
2.31,-0.083,0.958,-0.096
2.32,-0.192,1.015,0.074
2.33,-0.077,0.881,0.196
2.34,-0.329,0.888,-0.129
2.35,-0.301,1.105,-0.113
2.36,-0.074,0.92,0.083
2.37,-0.102,1.156,0.133
2.38,-0.167,0.602,0.01
2.39,-0.412,1.349,-0.195
2.4,-0.086,0.846,-0.072
2.41,-0.185,1.026,0.129
2.42,-0.074,0.822,0.182
2.43,-0.434,0.968,-0.131
2.44,-0.275,1.039,-0.119
2.45,0.042,0.972,0.024
2.46,-0.146,1.038,0.118
2.47,-0.267,0.678,0.006
2.48,-0.35,1.303,-0.177
2.49,-0.158,0.903,-0.057
2.5,-0.193,0.959,0.158
2.51,-0.081,0.917,0.178
2.52,-0.411,0.933,-0.202
2.53,-0.282,1.101,-0.068
2.54,-0.065,0.961,0.101
2.55,-0.133,1.009,0.134
2.56,-0.245,0.658,0.035
2.57,-0.312,1.334,-0.204
2.58,-0.167,0.901,-0.045
2.59,-0.201,0.918,0.168
2.6,-0.092,0.975,0.122
2.61,-0.402,0.832,-0.172
2.62,-0.262,1.174,-0.082
2.63,-0.02,0.93,0.042
2.64,-0.105,0.981,0.114
2.65,-0.286,0.754,0.073
2.66,-0.329,1.196,-0.22
2.67,-0.07,0.966,-0.049
2.68,-0.16,0.899,0.199
2.69,-0.118,0.982,0.093
2.7,-0.391,0.781,-0.178
2.71,-0.238,1.277,-0.027
2.72,-0.052,0.893,0.017
2.73,-0.154,0.957,0.161
2.74,-0.287,0.83,0.025
2.75,-0.231,1.107,-0.215
2.76,-0.111,1.053,-0.08
2.77,-0.198,0.845,0.193
2.78,-0.078,1.045,0.085
2.79,-0.381,0.803,-0.211
2.8,-0.259,1.252,-0.028
2.81,-0.048,0.917,0.018
2.82,-0.104,0.872,0.145
2.83,-0.294,0.911,0.033
2.84,-0.349,1.028,-0.198
2.85,-0.124,1.109,-0.018
2.86,-0.186,0.783,0.183
2.87,-0.179,1.043,0.089
2.88,-0.329,0.783,-0.187
2.89,-0.247,1.171,-0.044
2.9,-0.051,0.955,0.059
2.91,-0.115,0.808,0.192
2.92,-0.305,0.977,0.002
2.93,-0.296,0.99,-0.183
2.94,-0.15,1.196,-0.005
2.95,-0.172,0.689,0.162
2.96,-0.115,1.052,0.095
2.97,-0.359,0.818,-0.199
2.98,-0.224,1.087,-0.074
2.99,-0.061,1.042,0.102
3.0,-0.232,0.752,0.139
3.01,-0.298,1.014,0.027
3.02,-0.2,0.951,-0.204
3.03,-0.186,1.226,-0.02
3.04,-0.182,0.682,0.183
3.05,-0.078,1.047,0.054
3.06,-0.401,0.879,-0.218
3.07,-0.178,1.037,0.01
3.08,-0.111,1.085,0.062
3.09,-0.144,0.698,0.13
3.1,-0.293,1.149,-0.022
3.11,-0.325,0.857,-0.18
3.12,-0.129,1.168,0.008
3.13,-0.083,0.828,0.14
3.14,-0.181,0.938,0.06
3.15,-0.353,0.973,-0.195
3.16,-0.121,1.044,-0.085
3.17,-0.135,1.073,0.055
3.18,-0.092,0.629,0.189
3.19,-0.358,1.165,-0.046
3.2,-0.283,0.826,-0.128
3.21,-0.167,1.217,0.036
3.22,-0.016,0.757,0.134
3.23,-0.278,0.992,0.044
3.24,-0.358,0.917,-0.185
3.25,-0.054,1.137,-0.07
3.26,-0.186,0.938,0.082
3.27,-0.104,0.704,0.19
3.28,-0.356,1.184,-0.142
3.29,-0.252,0.762,-0.147
3.3,-0.135,1.316,0.116
3.31,-0.132,0.768,0.113
3.32,-0.168,0.906,0.033
3.33,-0.344,1.089,-0.173
3.34,-0.154,1.022,-0.107
3.35,-0.207,0.952,0.082
3.36,-0.033,0.714,0.195
3.37,-0.487,1.181,-0.126
3.38,-0.223,0.754,-0.143
3.39,-0.08,1.301,0.078
3.4,-0.117,0.754,0.122
3.41,-0.223,0.902,0.068
3.42,-0.423,1.141,-0.168
3.43,-0.065,0.894,-0.06
3.44,-0.216,1.113,0.113
3.45,-0.07,0.674,0.151
3.46,-0.429,1.146,-0.147
3.47,-0.189,0.806,-0.155
3.48,-0.141,1.212,0.081
3.49,-0.056,0.812,0.115
3.5,-0.222,0.843,-0.013
3.51,-0.386,1.168,-0.164
3.52,-0.071,0.882,-0.04
3.53,-0.248,1.104,0.138
3.54,-0.102,0.669,0.173
3.55,-0.426,1.162,-0.176
3.56,-0.216,0.844,-0.106
3.57,-0.061,1.183,0.051
3.58,-0.091,0.848,0.126
3.59,-0.324,0.788,0.07
3.6,-0.356,1.293,-0.24
3.61,-0.093,0.764,-0.063
3.62,-0.255,1.203,0.234
3.63,-0.048,0.691,0.058
3.64,-0.417,1.059,-0.198
3.65,-0.208,0.975,-0.046
3.66,-0.082,1.132,0.013
3.67,-0.139,0.869,0.101
3.68,-0.212,0.755,0.073
3.69,-0.368,1.314,-0.231
3.7,-0.217,0.765,0.006
3.71,-0.13,1.164,0.159
3.72,-0.101,0.76,0.079
3.73,-0.484,0.981,-0.136
3.74,-0.172,1.041,-0.064
3.75,-0.084,1.031,0.006
3.76,-0.194,0.919,0.159
3.77,-0.181,0.718,0.012
3.78,-0.372,1.354,-0.223
3.79,-0.131,0.769,-0.012
3.8,-0.115,1.114,0.2
3.81,-0.118,0.826,0.102
3.82,-0.456,0.958,-0.166
3.83,-0.183,1.081,-0.074
3.84,-0.083,1.016,0.01
3.85,-0.176,0.971,0.137
3.86,-0.229,0.724,0.05
3.87,-0.355,1.33,-0.222
3.88,-0.193,0.786,-0.011
3.89,-0.1,1.005,0.189
3.9,-0.153,0.888,0.099
3.91,-0.472,0.868,-0.18
3.92,-0.121,1.152,-0.104
3.93,-0.043,0.987,0.055
3.94,-0.166,0.968,0.151
3.95,-0.19,0.733,-0.022
3.96,-0.307,1.275,-0.212
3.97,-0.112,0.868,-0.038
3.98,-0.191,0.951,0.242
3.99,-0.108,0.955,0.085
4.0,-0.441,0.812,-0.218
4.01,-0.194,1.238,-0.007
4.02,-0.177,0.866,0.067
4.03,-0.153,0.951,0.147
4.04,-0.163,0.818,-0.074
4.05,-0.389,1.196,-0.217
4.06,-0.202,0.907,0.069
4.07,-0.113,1.08,0.138
4.08,-0.147,0.795,0.04
4.09,-0.469,0.965,-0.113
4.1,-0.096,1.232,-0.082
4.11,-0.178,0.786,0.074
4.12,-0.16,0.962,0.17
4.13,-0.221,0.806,-0.076
4.14,-0.334,1.135,-0.187
4.15,-0.173,0.948,0.054
4.16,-0.08,1.002,0.134
4.17,-0.136,0.894,0.052
4.18,-0.42,0.927,-0.148
4.19,-0.157,1.28,-0.049
4.2,-0.126,0.751,0.05
4.21,-0.113,1.001,0.158
4.22,-0.249,0.842,-0.074
4.23,-0.336,1.097,-0.18
4.24,-0.143,1.031,0.053
4.25,-0.168,0.937,0.147
4.26,-0.146,0.932,0.051
4.27,-0.401,0.87,-0.171
4.28,-0.156,1.28,-0.026
4.29,-0.137,0.797,0.074
4.3,-0.183,0.944,0.172
4.31,-0.226,0.905,-0.071
4.32,-0.327,1.057,-0.169
4.33,-0.128,1.082,0.075
4.34,-0.085,0.839,0.133
4.35,-0.22,0.992,0.031
4.36,-0.33,0.815,-0.158
4.37,-0.201,1.231,-0.043
4.38,-0.149,0.805,0.091
4.39,-0.147,0.929,0.153
4.4,-0.219,0.997,-0.139
4.41,-0.306,0.897,-0.165
4.42,-0.186,1.168,0.104
4.43,-0.052,0.828,0.132
4.44,-0.253,1.023,0.028
4.45,-0.369,0.866,-0.152
4.46,-0.133,1.21,-0.107
4.47,-0.163,0.8,0.06
4.48,-0.129,0.884,0.201
4.49,-0.294,1.07,-0.105
4.5,-0.351,0.812,-0.135
4.51,-0.206,1.188,0.062
4.52,0.013,0.819,0.157
4.53,-0.256,1.018,0.057
4.54,-0.389,0.891,-0.154
4.55,-0.078,1.155,-0.127
4.56,-0.158,0.864,0.021
4.57,-0.193,0.813,0.261
4.58,-0.263,1.137,-0.121
4.59,-0.29,0.776,-0.145
4.6,-0.245,1.205,0.069
4.61,-0.016,0.778,0.134
4.62,-0.181,1.009,0.029
4.63,-0.402,0.937,-0.179
4.64,-0.071,1.071,-0.099
4.65,-0.185,1.0,0.06
4.66,-0.151,0.735,0.21
4.67,-0.271,1.173,-0.116
4.68,-0.312,0.81,-0.133
4.69,-0.206,1.231,0.076
4.7,-0.047,0.806,0.141
4.71,-0.162,0.956,0.044
4.72,-0.395,0.96,-0.182
4.73,-0.078,1.015,-0.102
4.74,-0.152,1.051,0.057
4.75,-0.142,0.655,0.204
4.76,-0.33,1.219,-0.069
4.77,-0.288,0.784,-0.172
4.78,-0.13,1.174,0.043
4.79,-0.068,0.907,0.165
4.8,-0.161,0.88,0.037
4.81,-0.385,1.031,-0.22
4.82,-0.062,0.977,-0.066
4.83,-0.171,0.959,0.061
4.84,-0.177,0.743,0.219
4.85,-0.35,1.154,-0.126
4.86,-0.249,0.803,-0.142
4.87,-0.176,1.238,0.111
4.88,-0.074,0.771,0.14
4.89,-0.247,0.947,0.021
4.9,-0.372,0.967,-0.185
4.91,-0.047,1.049,-0.055
4.92,-0.227,1.039,0.078
4.93,-0.105,0.668,0.179
4.94,-0.353,1.196,-0.132
4.95,-0.271,0.79,-0.139
4.96,-0.27,1.185,0.134
4.97,0.052,0.82,0.108
4.98,-0.234,0.929,0.008
4.99,-0.433,1.046,-0.195
5.0,0.002,0.964,-0.088
5.01,-0.24,1.091,0.085
5.02,-0.109,0.674,0.201
5.03,-0.324,1.195,-0.185
5.04,-0.245,0.791,-0.102
5.05,-0.194,1.25,0.117
5.06,-0.02,0.842,0.088
5.07,-0.24,0.802,0.038
5.08,-0.399,1.192,-0.192
5.09,0.001,0.884,-0.06
5.1,-0.253,1.093,0.126
5.11,-0.074,0.645,0.2
5.12,-0.382,1.19,-0.144
5.13,-0.3,0.839,-0.134
5.14,-0.132,1.151,0.048
5.15,-0.003,0.937,0.107
5.16,-0.321,0.775,0.043
5.17,-0.372,1.198,-0.161
5.18,-0.071,0.889,-0.036
5.19,-0.222,1.111,0.113
5.2,-0.088,0.673,0.198
5.21,-0.348,1.146,-0.184
5.22,-0.32,0.916,-0.131
5.23,-0.059,1.058,0.077
5.24,-0.152,1.008,0.143
5.25,-0.25,0.655,0.001
5.26,-0.417,1.312,-0.135
5.27,-0.08,0.878,-0.055
5.28,-0.243,1.049,0.099
5.29,-0.041,0.756,0.179
5.3,-0.444,1.084,-0.162
5.31,-0.326,0.893,-0.123
5.32,0.046,1.098,0.087
5.33,-0.179,1.017,0.114
5.34,-0.301,0.669,0.029
5.35,-0.301,1.331,-0.222
5.36,-0.094,0.833,-0.05
5.37,-0.238,1.08,0.182
5.38,-0.001,0.793,0.091
5.39,-0.402,0.989,-0.192
5.4,-0.291,1.077,-0.056
5.41,0.014,0.965,0.046
5.42,-0.152,1.014,0.103
5.43,-0.332,0.706,0.071
5.44,-0.312,1.271,-0.253
5.45,-0.098,0.83,-0.059
5.46,-0.238,1.046,0.24
5.47,-0.023,0.846,0.089
5.48,-0.424,0.89,-0.207
5.49,-0.203,1.163,-0.005
5.5,-0.046,0.976,0.071
5.51,-0.115,0.987,0.095
5.52,-0.319,0.744,0.088
5.53,-0.28,1.234,-0.24
5.54,-0.187,0.877,-0.04
5.55,-0.172,0.98,0.198
5.56,-0.098,0.921,0.12
5.57,-0.462,0.846,-0.174
5.58,-0.215,1.274,-0.005
5.59,-0.113,0.856,0.037
5.6,-0.163,0.942,0.18
5.61,-0.241,0.774,0.002
5.62,-0.338,1.217,-0.243
5.63,-0.093,0.93,-0.026
5.64,-0.234,0.924,0.19
5.65,-0.097,0.804,0.066
5.66,-0.461,0.91,-0.165
5.67,-0.159,1.223,-0.025
5.68,-0.089,0.887,0.059
5.69,-0.136,0.943,0.157
5.7,-0.271,0.776,-0.011
5.71,-0.352,1.25,-0.214
5.72,-0.119,0.907,-0.014
5.73,-0.159,1.03,0.166
5.74,-0.123,0.854,0.062
5.75,-0.44,0.877,-0.193
5.76,-0.037,1.271,-0.042
5.77,-0.104,0.822,0.062
5.78,-0.214,0.973,0.167
5.79,-0.162,0.816,-0.092
5.8,-0.33,1.115,-0.174
5.81,-0.173,1.001,0.052
5.82,-0.124,0.933,0.143
5.83,-0.127,0.901,0.008
5.84,-0.468,0.895,-0.114
5.85,-0.122,1.254,-0.081
5.86,-0.105,0.752,0.079
5.87,-0.196,0.984,0.195
5.88,-0.213,0.892,-0.141
5.89,-0.324,1.015,-0.199
5.9,-0.17,1.066,0.06
5.91,0.003,0.882,0.141
5.92,-0.209,0.962,0.04
5.93,-0.397,0.826,-0.125
5.94,-0.101,1.311,-0.07
5.95,-0.15,0.779,0.039
5.96,-0.134,0.906,0.218
5.97,-0.239,0.978,-0.136
5.98,-0.363,0.952,-0.15
5.99,-0.166,1.095,0.09
6.0,-0.028,0.883,0.101
6.01,-0.282,0.98,0.03
6.02,-0.328,0.867,-0.122
6.03,-0.149,1.28,-0.105
6.04,-0.156,0.734,0.064
6.05,-0.093,0.878,0.212
6.06,-0.293,1.068,-0.157
6.07,-0.354,0.812,-0.143
6.08,-0.106,1.221,0.048
6.09,-0.045,0.838,0.136
6.1,-0.228,0.995,0.067
6.11,-0.353,0.889,-0.151
6.12,-0.119,1.203,-0.105
6.13,-0.156,0.823,0.091
6.14,-0.166,0.824,0.23
6.15,-0.275,1.104,-0.149
6.16,-0.308,0.806,-0.132
6.17,-0.186,1.242,0.061
6.18,-0.059,0.772,0.137
6.19,-0.208,0.995,0.073
6.2,-0.359,0.897,-0.194
6.21,-0.082,1.104,-0.095
6.22,-0.096,0.938,0.034
6.23,-0.212,0.773,0.213
6.24,-0.26,1.164,-0.124
6.25,-0.28,0.773,-0.172
6.26,-0.21,1.219,0.102
6.27,-0.022,0.793,0.132
6.28,-0.164,0.948,-0.02
6.29,-0.397,0.975,-0.161
6.3,-0.077,1.033,-0.085
6.31,-0.124,0.996,0.041
6.32,-0.15,0.722,0.222
6.33,-0.312,1.213,-0.142
6.34,-0.247,0.729,-0.217
6.35,-0.194,1.216,0.117
6.36,-0.02,0.849,0.107
6.37,-0.205,0.914,0.019
6.38,-0.381,1.059,-0.162
6.39,-0.127,0.963,-0.11
6.4,-0.115,1.058,0.027
6.41,-0.111,0.711,0.21
6.42,-0.321,1.143,-0.121
6.43,-0.262,0.764,-0.174
6.44,-0.143,1.216,0.095
6.45,-0.115,0.837,0.154
6.46,-0.269,0.988,0.074
6.47,-0.307,1.049,-0.195
6.48,-0.167,0.997,-0.035
6.49,-0.221,0.96,0.121
6.5,-0.095,0.75,0.238
6.51,-0.377,1.18,-0.173
6.52,-0.305,0.729,-0.127
6.53,-0.086,1.304,0.085
6.54,-0.078,0.76,0.129
6.55,-0.243,0.923,0.053
6.56,-0.35,1.077,-0.164
6.57,-0.169,0.896,-0.003
6.58,-0.227,1.084,0.119
6.59,-0.056,0.734,0.158
6.6,-0.404,1.165,-0.151
6.61,-0.229,0.74,-0.12
6.62,-0.129,1.273,0.094
6.63,-0.104,0.867,0.103
6.64,-0.233,0.823,0.047
6.65,-0.431,1.123,-0.132
6.66,-0.028,0.95,-0.053
6.67,-0.244,1.11,0.08
6.68,-0.132,0.627,0.195
6.69,-0.351,1.212,-0.141
6.7,-0.265,0.841,-0.132
6.71,-0.161,1.177,0.087
6.72,-0.05,0.931,0.104
6.73,-0.178,0.772,0.017
6.74,-0.541,1.211,-0.12
6.75,-0.048,0.835,-0.068
6.76,-0.193,1.169,0.069
6.77,-0.13,0.695,0.222
6.78,-0.456,1.155,-0.149
6.79,-0.227,0.879,-0.176
6.8,-0.105,1.146,0.091
6.81,-0.098,0.932,0.137
6.82,-0.212,0.716,0.034
6.83,-0.466,1.274,-0.124
6.84,-0.072,0.84,-0.057
6.85,-0.224,1.122,0.112
6.86,-0.097,0.747,0.183
6.87,-0.379,1.05,-0.173
6.88,-0.233,0.962,-0.126
6.89,-0.102,1.086,0.059
6.9,-0.106,0.99,0.121
6.91,-0.236,0.684,0.03
6.92,-0.432,1.303,-0.172
6.93,-0.159,0.838,-0.034
6.94,-0.181,1.103,0.135
6.95,-0.09,0.802,0.188
6.96,-0.395,0.983,-0.138
6.97,-0.273,1.033,-0.112
6.98,-0.092,1.014,0.068
6.99,-0.159,1.054,0.17
7.0,-0.2,0.646,0.015
7.01,-0.403,1.32,-0.148
7.02,-0.041,0.843,-0.062
7.03,-0.219,1.047,0.084
7.04,-0.041,0.849,0.193
7.05,-0.396,0.938,-0.097
7.06,-0.308,1.101,-0.138
7.07,-0.124,0.961,0.087
7.08,-0.123,1.1,0.139
7.09,-0.196,0.65,0.048
7.1,-0.474,1.249,-0.137
7.11,-0.063,0.931,-0.062
7.12,-0.265,0.998,0.121
7.13,-0.069,0.873,0.144
7.14,-0.34,0.859,-0.166
7.15,-0.242,1.135,-0.133
7.16,-0.067,0.951,0.084
7.17,-0.128,1.123,0.124
7.18,-0.166,0.655,0.002
7.19,-0.453,1.189,-0.119
7.2,-0.083,1.011,-0.09
7.21,-0.19,0.892,0.087
7.22,-0.112,0.977,0.183
7.23,-0.339,0.864,-0.135
7.24,-0.284,1.115,-0.13
7.25,-0.165,0.919,0.122
7.26,-0.094,1.134,0.105
7.27,-0.143,0.71,-0.021
7.28,-0.39,1.262,-0.183
7.29,-0.052,0.887,-0.094
7.3,-0.191,0.991,0.153
7.31,-0.141,0.894,0.164
7.32,-0.322,0.842,-0.181
7.33,-0.236,1.108,-0.127
7.34,-0.149,0.929,0.127
7.35,-0.07,1.078,0.106
7.36,-0.231,0.679,-0.032
7.37,-0.418,1.173,-0.147
7.38,-0.097,1.053,-0.022
7.39,-0.221,0.905,0.088
7.4,-0.113,0.963,0.195
7.41,-0.318,0.837,-0.171
7.42,-0.26,1.155,-0.172
7.43,-0.086,0.906,0.106
7.44,-0.071,1.03,0.142
7.45,-0.321,0.761,0.019
7.46,-0.352,1.142,-0.171
7.47,-0.119,1.053,-0.076
7.48,-0.154,0.87,0.122
7.49,-0.155,1.032,0.152
7.5,-0.348,0.796,-0.178
7.51,-0.209,1.191,-0.154
7.52,-0.158,0.947,0.076
7.53,-0.1,0.961,0.17
7.54,-0.253,0.839,0.035
7.55,-0.419,1.061,-0.16
7.56,-0.16,1.085,-0.029
7.57,-0.179,0.789,0.113
7.58,-0.092,1.061,0.136
7.59,-0.306,0.814,-0.151
7.6,-0.225,1.164,-0.124
7.61,-0.145,0.996,0.051
7.62,-0.049,0.869,0.156
7.63,-0.302,0.884,0.015
7.64,-0.394,1.037,-0.13
7.65,-0.191,1.158,-0.051
7.66,-0.207,0.677,0.132
7.67,-0.1,1.071,0.149
7.68,-0.261,0.843,-0.211
7.69,-0.287,1.044,-0.097
7.7,-0.078,1.032,0.092
7.71,-0.056,0.858,0.107
7.72,-0.252,0.95,0.029
7.73,-0.408,0.972,-0.15
7.74,-0.118,1.204,-0.045
7.75,-0.246,0.713,0.119
7.76,-0.113,1.052,0.161
7.77,-0.336,0.849,-0.174
7.78,-0.239,0.995,-0.115
7.79,-0.047,1.124,0.07
7.8,-0.086,0.74,0.132
7.81,-0.368,1.034,0.048
7.82,-0.289,0.945,-0.176
7.83,-0.127,1.204,-0.053
7.84,-0.267,0.742,0.149
7.85,-0.071,0.994,0.147
7.86,-0.373,0.928,-0.194
7.87,-0.21,0.937,-0.055
7.88,-0.11,1.205,0.05
7.89,-0.05,0.646,0.108
7.9,-0.345,1.076,0.033
7.91,-0.262,0.938,-0.197
7.92,-0.16,1.167,-0.058
7.93,-0.166,0.764,0.117
7.94,-0.112,0.969,0.139
7.95,-0.383,0.998,-0.188
7.96,-0.266,0.892,-0.065
7.97,-0.118,1.229,0.102
7.98,-0.075,0.642,0.149
7.99,-0.349,1.121,0.025
8.0,-0.242,0.905,-0.209
8.01,-0.114,1.118,-0.013
8.02,-0.201,0.873,0.12
8.03,-0.095,0.873,0.088
8.04,-0.386,1.069,-0.195
8.05,-0.243,0.85,-0.037
8.06,-0.145,1.301,0.09
8.07,-0.056,0.602,0.117
8.08,-0.369,1.109,-0.003
8.09,-0.24,0.866,-0.199
8.1,-0.136,1.167,-0.023
8.11,-0.112,0.79,0.186
8.12,-0.127,0.945,0.093
8.13,-0.474,1.003,-0.203
8.14,-0.109,0.91,-0.065
8.15,-0.145,1.137,0.093
8.16,-0.105,0.662,0.162
8.17,-0.389,1.187,-0.061
8.18,-0.226,0.8,-0.192
8.19,-0.233,1.142,0.025
8.2,-0.074,0.88,0.135
8.21,-0.108,0.859,0.004
8.22,-0.417,1.087,-0.147
8.23,-0.125,0.918,-0.063
8.24,-0.116,1.163,0.08
8.25,-0.206,0.637,0.178
8.26,-0.325,1.153,-0.095
8.27,-0.23,0.86,-0.204
8.28,-0.175,1.122,0.085
8.29,-0.138,0.914,0.154
8.3,-0.11,0.791,0.014
8.31,-0.451,1.154,-0.174
8.32,-0.118,0.869,-0.036
8.33,-0.137,1.139,0.085
8.34,-0.236,0.684,0.209
8.35,-0.313,1.103,-0.117
8.36,-0.266,0.884,-0.174
8.37,-0.111,1.085,0.103
8.38,-0.102,1.026,0.131
8.39,-0.194,0.675,-0.01
8.4,-0.47,1.24,-0.118
8.41,-0.008,0.887,-0.071
8.42,-0.245,1.117,0.079
8.43,-0.063,0.715,0.175
8.44,-0.392,1.099,-0.154
8.45,-0.281,0.934,-0.195
8.46,-0.037,1.038,0.101
8.47,-0.087,1.016,0.113
8.48,-0.232,0.671,0.032
8.49,-0.388,1.332,-0.167
8.5,-0.114,0.82,-0.038
8.51,-0.242,1.104,0.152
8.52,-0.087,0.795,0.159
8.53,-0.393,0.991,-0.177
8.54,-0.316,1.032,-0.125
8.55,-0.061,1.003,0.096
8.56,-0.115,1.044,0.086
8.57,-0.289,0.633,0.0
8.58,-0.322,1.284,-0.204
8.59,-0.095,0.932,-0.034
8.6,-0.22,1.043,0.168
8.61,-0.046,0.845,0.093
8.62,-0.391,0.881,-0.162
8.63,-0.266,1.124,-0.077
8.64,-0.001,0.962,0.08
8.65,-0.166,1.058,0.102
8.66,-0.299,0.672,0.02
8.67,-0.279,1.271,-0.176
8.68,-0.123,0.935,-0.034
8.69,-0.247,0.931,0.198
8.7,-0.044,0.969,0.109
8.71,-0.37,0.851,-0.21
8.72,-0.329,1.186,-0.016
8.73,-0.004,0.889,0.053
8.74,-0.146,1.025,0.109
8.75,-0.356,0.75,0.016
8.76,-0.331,1.194,-0.201
8.77,-0.132,0.952,-0.038
8.78,-0.238,0.912,0.236
8.79,-0.064,0.99,0.052
8.8,-0.407,0.828,-0.191
8.81,-0.272,1.23,-0.034
8.82,0.016,0.852,0.026
8.83,-0.146,0.985,0.108
8.84,-0.262,0.787,-0.019
8.85,-0.361,1.117,-0.162
8.86,-0.122,1.053,-0.001
8.87,-0.176,0.832,0.19
8.88,-0.095,0.996,0.04
8.89,-0.429,0.814,-0.183
8.9,-0.16,1.232,-0.048
8.91,-0.097,0.791,0.071
8.92,-0.227,1.015,0.167
8.93,-0.199,0.8,-0.097
8.94,-0.345,1.191,-0.145
8.95,-0.159,0.954,0.061
8.96,-0.071,0.901,0.135
8.97,-0.223,0.959,0.021
8.98,-0.432,0.882,-0.185
8.99,-0.052,1.27,-0.077
9.0,-0.105,0.728,0.111
9.01,-0.198,0.984,0.17
9.02,-0.301,0.84,-0.149
9.03,-0.278,1.041,-0.154
9.04,-0.142,1.104,0.11
9.05,-0.069,0.739,0.135
9.06,-0.322,1.055,0.013
9.07,-0.362,0.894,-0.139
9.08,-0.147,1.187,-0.008
9.09,-0.117,0.769,0.119
9.1,-0.087,0.974,0.108
9.11,-0.364,0.91,-0.166
9.12,-0.201,0.948,-0.096
9.13,-0.093,1.208,0.108
9.14,-0.215,0.665,0.184
9.15,-0.336,1.084,-0.018
9.16,-0.238,0.915,-0.229
9.17,-0.162,1.153,0.012
9.18,-0.146,0.795,0.167
9.19,-0.08,0.932,0.055
9.2,-0.412,0.985,-0.179
9.21,-0.166,0.931,-0.03
9.22,-0.069,1.234,0.074
9.23,-0.173,0.633,0.158
9.24,-0.288,1.141,-0.025
9.25,-0.274,0.866,-0.229
9.26,-0.129,1.116,0.023
9.27,-0.096,0.925,0.163
9.28,-0.122,0.814,0.071
9.29,-0.421,1.119,-0.184
9.3,-0.099,0.907,-0.067
9.31,-0.085,1.162,0.055
9.32,-0.098,0.635,0.218
9.33,-0.292,1.141,-0.126
9.34,-0.312,0.875,-0.165
9.35,-0.133,1.08,0.044
9.36,-0.104,0.981,0.138
9.37,-0.127,0.702,0.037
9.38,-0.39,1.223,-0.202
9.39,-0.079,0.917,-0.109
9.4,-0.095,1.119,0.029
9.41,-0.126,0.705,0.214
9.42,-0.36,1.094,-0.134
9.43,-0.295,0.936,-0.149
9.44,-0.055,1.061,0.079
9.45,-0.113,1.036,0.112
9.46,-0.198,0.662,0.037
9.47,-0.48,1.276,-0.163
9.48,0.005,0.893,-0.063
9.49,-0.205,1.1,0.129
9.5,-0.154,0.728,0.216
9.51,-0.428,1.018,-0.165
9.52,-0.244,0.978,-0.208
9.53,-0.068,1.076,0.106
9.54,-0.138,1.036,0.101
9.55,-0.226,0.674,0.029
9.56,-0.371,1.343,-0.186
9.57,-0.184,0.854,-0.003
9.58,-0.251,1.1,0.182
9.59,-0.083,0.835,0.14
9.6,-0.454,0.89,-0.175
9.61,-0.181,1.069,-0.119
9.62,-0.002,0.999,0.044
9.63,-0.187,0.987,0.123
9.64,-0.161,0.687,0.028
9.65,-0.376,1.306,-0.193
9.66,-0.182,0.807,-0.026
9.67,-0.15,1.038,0.216
9.68,-0.161,0.908,0.11
9.69,-0.45,0.869,-0.15
9.7,-0.171,1.177,-0.115
9.71,-0.082,0.938,0.039
9.72,-0.14,0.945,0.181
9.73,-0.203,0.736,-0.03
9.74,-0.529,1.289,-0.164
9.75,-0.03,0.805,0.034
9.76,-0.167,1.211,0.144
9.77,-0.163,0.728,0.088
9.78,-0.387,0.97,-0.155
9.79,-0.184,1.223,-0.087
9.8,-0.111,0.823,0.064
9.81,-0.113,0.971,0.158
9.82,-0.312,0.765,0.002
9.83,-0.334,1.262,-0.193
9.84,-0.133,0.863,-0.01
9.85,-0.112,1.067,0.105
9.86,-0.068,0.839,0.049
9.87,-0.439,0.953,-0.153
9.88,-0.123,1.237,-0.067
9.89,-0.087,0.78,0.052
9.9,-0.197,1.03,0.194
9.91,-0.215,0.775,-0.099
9.92,-0.401,1.141,-0.204
9.93,-0.133,0.967,0.112
9.94,-0.105,1.017,0.087
9.95,-0.214,0.85,0.041
9.96,-0.36,0.891,-0.131
9.97,-0.139,1.311,-0.111
9.98,-0.115,0.697,0.056
9.99,-0.125,1.053,0.186
10.0,-0.312,0.782,-0.087
10.01,-0.361,1.027,-0.147
10.02,-0.034,1.134,0.04
10.03,-0.154,0.862,0.085
10.04,-0.171,0.961,0.022
10.05,-0.37,0.926,-0.135
10.06,-0.184,1.238,-0.074
10.07,-0.083,0.749,0.08
10.08,-0.172,1.031,0.189
10.09,-0.263,0.857,-0.14
10.1,-0.297,0.979,-0.147
10.11,-0.082,1.172,0.014
10.12,-0.084,0.783,0.131
10.13,-0.2,1.021,0.042
10.14,-0.353,0.906,-0.194
10.15,-0.179,1.221,-0.056
10.16,-0.145,0.761,0.124
10.17,-0.093,0.969,0.167
10.18,-0.344,0.985,-0.099
10.19,-0.33,0.855,-0.149
10.2,-0.136,1.219,0.09
10.21,-0.142,0.802,0.16
10.22,-0.241,0.994,0.028
10.23,-0.359,0.915,-0.173
10.24,-0.106,1.231,-0.074
10.25,-0.18,0.776,0.064
10.26,-0.054,0.863,0.175
10.27,-0.414,1.097,-0.119
10.28,-0.262,0.809,-0.148
10.29,-0.095,1.301,0.055
10.3,-0.106,0.694,0.131
10.31,-0.26,1.041,0.05
10.32,-0.319,0.974,-0.196
10.33,-0.146,1.031,-0.085
10.34,-0.197,0.873,0.132
10.35,-0.06,0.805,0.153
10.36,-0.404,1.092,-0.147
10.37,-0.241,0.79,-0.12
10.38,-0.073,1.362,0.04
10.39,-0.087,0.696,0.107
10.4,-0.246,1.019,0.035
10.41,-0.376,1.027,-0.193
10.42,-0.162,0.964,-0.026
10.43,-0.162,0.998,0.153
10.44,-0.116,0.762,0.137
10.45,-0.398,1.129,-0.154
10.46,-0.142,0.801,-0.14
10.47,-0.115,1.32,0.059
10.48,-0.108,0.708,0.13
10.49,-0.263,0.951,0.025
10.5,-0.428,1.089,-0.195
10.51,-0.157,0.888,0.002
10.52,-0.221,1.081,0.163
10.53,-0.12,0.672,0.133
10.54,-0.341,1.145,-0.163
10.55,-0.192,0.805,-0.139
10.56,-0.138,1.276,0.076
10.57,-0.054,0.633,0.101
10.58,-0.339,1.018,-0.015
10.59,-0.367,0.975,-0.189
10.6,-0.107,0.993,-0.01
10.61,-0.177,0.987,0.153
10.62,-0.148,1.163,-0.026
10.63,-0.084,0.771,0.184
10.64,-0.105,1.053,0.056
10.65,-0.374,0.772,-0.198
10.66,-0.224,1.225,-0.065
10.67,-0.116,0.901,0.066
10.68,-0.252,0.86,0.173
10.69,-0.234,0.971,-0.015
10.7,-0.342,1.012,-0.169
10.71,-0.09,1.123,-0.024
10.72,-0.092,0.791,0.157
10.73,-0.13,1.022,0.067
10.74,-0.344,0.824,-0.179
10.75,-0.231,1.187,-0.084
10.76,-0.094,0.934,0.083
10.77,-0.216,0.801,0.178
10.78,-0.287,1.05,-0.02
10.79,-0.283,0.894,-0.221
10.8,-0.146,1.145,0.007
10.81,-0.102,0.761,0.176
10.82,-0.087,1.037,0.047
10.83,-0.387,0.856,-0.202
10.84,-0.125,1.092,-0.044
10.85,-0.104,1.042,0.055
10.86,-0.195,0.703,0.153
10.87,-0.282,1.127,-0.009
10.88,-0.283,0.895,-0.197
10.89,-0.29,1.158,0.056
10.9,-0.022,0.769,0.17
10.91,-0.169,0.977,0.072
10.92,-0.458,0.934,-0.191
10.93,-0.087,1.012,-0.068
10.94,-0.072,1.078,0.022
10.95,-0.192,0.651,0.175
10.96,-0.26,1.156,-0.079
10.97,-0.287,0.823,-0.173
10.98,-0.212,1.171,0.042
10.99,-0.091,0.836,0.179
11.0,-0.146,0.913,0.047
11.01,-0.396,1.029,-0.175
11.02,-0.171,0.918,-0.029
11.03,-0.112,1.184,0.03
11.04,-0.126,0.61,0.14
11.05,-0.263,1.164,-0.065
11.06,-0.348,0.876,-0.187
11.07,-0.181,1.125,0.021
11.08,-0.045,0.922,0.116
11.09,-0.157,0.821,0.033
11.1,-0.412,1.074,-0.202
11.11,-0.023,0.9,-0.078
11.12,-0.16,1.173,0.028
11.13,-0.115,0.625,0.225
11.14,-0.287,1.162,-0.084
11.15,-0.293,0.823,-0.259
11.16,-0.176,1.08,0.073
11.17,-0.008,0.983,0.1
11.18,-0.204,0.742,0.07
11.19,-0.405,1.215,-0.171
11.2,-0.063,0.904,-0.071
11.21,-0.238,1.151,0.077
11.22,-0.166,0.697,0.198
11.23,-0.265,1.084,-0.111
11.24,-0.324,0.77,-0.137
11.25,-0.056,1.209,0.068
11.26,-0.087,0.841,0.082
11.27,-0.256,0.805,0.067
11.28,-0.4,1.223,-0.144
11.29,-0.16,0.875,-0.06
11.3,-0.221,1.086,0.107
11.31,-0.062,0.748,0.173
11.32,-0.404,1.148,-0.178
11.33,-0.26,0.771,-0.124
11.34,-0.141,1.216,0.142
11.35,-0.141,0.942,0.1
11.36,-0.237,0.744,0.036
11.37,-0.409,1.277,-0.173
11.38,-0.138,0.84,-0.044
11.39,-0.221,1.136,0.128
11.4,-0.073,0.731,0.191
11.41,-0.415,1.061,-0.176
11.42,-0.235,0.84,-0.122
11.43,-0.109,1.162,0.104
11.44,-0.136,0.945,0.093
11.45,-0.178,0.713,0.041
11.46,-0.41,1.344,-0.162
11.47,-0.169,0.782,-0.062
11.48,-0.169,1.084,0.142
11.49,-0.021,0.793,0.176
11.5,-0.45,1.012,-0.187
11.51,-0.188,0.897,-0.168
11.52,-0.002,1.126,0.067
11.53,-0.185,0.991,0.099
11.54,-0.123,0.67,0.05
11.55,-0.403,1.36,-0.225
11.56,-0.151,0.773,-0.047
11.57,-0.207,1.085,0.138
11.58,-0.057,0.841,0.154
11.59,-0.45,0.906,-0.202
11.6,-0.16,1.026,-0.14
11.61,-0.036,1.036,0.084
11.62,-0.187,0.994,0.138
11.63,-0.177,0.624,0.028
11.64,-0.383,1.375,-0.137
11.65,-0.154,0.84,-0.06
11.66,-0.218,1.009,0.136
11.67,-0.101,0.876,0.168
11.68,-0.396,0.873,-0.189
11.69,-0.214,1.105,-0.153
11.7,-0.034,0.979,0.074
11.71,-0.121,1.036,0.103
11.72,-0.172,0.658,0.024
11.73,-0.376,1.282,-0.168
11.74,-0.125,0.939,-0.027
11.75,-0.278,0.936,0.19
11.76,-0.096,0.947,0.143
11.77,-0.396,0.831,-0.18
11.78,-0.278,1.183,-0.058
11.79,-0.007,0.931,0.027
11.8,-0.141,0.982,0.113
11.81,-0.207,0.747,0.046
11.82,-0.308,1.238,-0.176
11.83,-0.21,0.961,-0.022
11.84,-0.199,0.886,0.183
11.85,-0.083,0.989,0.101
11.86,-0.51,0.781,-0.159
11.87,-0.271,1.213,-0.031
11.88,-0.066,0.958,0.008
11.89,-0.157,0.868,0.115
11.9,-0.241,0.804,0.048
11.91,-0.324,1.171,-0.201
11.92,-0.128,1.022,-0.004
11.93,-0.143,0.8,0.151
11.94,-0.137,1.056,0.124
11.95,-0.47,0.799,-0.17
11.96,-0.197,1.154,-0.072
11.97,-0.032,0.995,0.05
11.98,-0.146,0.858,0.106
11.99,-0.301,0.837,0.039
12.0,-0.208,1.083,-0.177
12.01,-0.143,1.115,-0.064
12.02,-0.135,0.718,0.194
12.03,-0.063,1.071,0.079
12.04,-0.403,0.778,-0.227
12.05,-0.166,1.29,-0.036
12.06,-0.099,0.89,0.06
12.07,-0.254,0.879,0.19
12.08,-0.181,0.891,-0.025
12.09,-0.335,1.106,-0.2
12.1,-0.183,1.042,0.01
12.11,-0.022,0.875,0.137
12.12,-0.194,1.024,0.063
12.13,-0.394,0.787,-0.139
12.14,-0.129,1.261,-0.041
12.15,-0.145,0.793,0.069
12.16,-0.225,0.868,0.19
12.17,-0.166,0.999,-0.054
12.18,-0.374,0.959,-0.194
12.19,-0.18,1.057,0.049
12.2,-0.007,0.809,0.199
12.21,-0.185,1.031,0.067
12.22,-0.422,0.836,-0.161
12.23,-0.03,1.186,-0.135
12.24,-0.192,0.875,0.063
12.25,-0.167,0.823,0.223
12.26,-0.256,1.085,-0.098
12.27,-0.341,0.86,-0.139
12.28,-0.21,1.147,0.078
12.29,-0.1,0.842,0.198
12.3,-0.166,0.989,0.084
12.31,-0.389,0.87,-0.179
12.32,-0.09,1.154,-0.123
12.33,-0.107,0.906,0.001
12.34,-0.188,0.794,0.225
12.35,-0.275,1.109,-0.096
12.36,-0.29,0.803,-0.185
12.37,-0.152,1.233,0.101
12.38,-0.038,0.813,0.121
12.39,-0.163,0.978,0.066
12.4,-0.406,0.959,-0.132
12.41,-0.156,1.069,-0.055
12.42,-0.137,0.998,0.045
12.43,-0.12,0.708,0.183
12.44,-0.286,1.196,-0.092
12.45,-0.356,0.814,-0.145
12.46,-0.183,1.15,0.084
12.47,-0.056,0.862,0.151
12.48,-0.172,0.933,0.037
12.49,-0.354,0.979,-0.207
12.5,-0.161,0.98,-0.084
12.51,-0.135,1.104,0.057
12.52,-0.06,0.645,0.151
12.53,-0.368,1.174,-0.052
12.54,-0.305,0.783,-0.21
12.55,-0.086,1.146,0.006
12.56,-0.131,0.907,0.154
12.57,-0.135,0.839,0.047
12.58,-0.412,1.091,-0.209
12.59,-0.056,0.982,-0.048
12.6,-0.143,1.171,0.054
12.61,-0.149,0.64,0.162
12.62,-0.322,1.165,-0.095
12.63,-0.243,0.835,-0.202
12.64,-0.185,1.125,0.068
12.65,-0.045,0.89,0.1
12.66,-0.167,0.795,0.043
12.67,-0.478,1.204,-0.169
12.68,-0.14,0.828,-0.046
12.69,-0.206,1.163,0.101
12.7,-0.057,0.735,0.168
12.71,-0.379,1.094,-0.118
12.72,-0.183,0.827,-0.18
12.73,-0.096,1.15,0.103
12.74,-0.153,0.975,0.129
12.75,-0.165,0.695,0.046
12.76,-0.393,1.263,-0.156
12.77,-0.139,0.878,-0.059
12.78,-0.189,1.118,0.083
12.79,-0.122,0.742,0.189
12.8,-0.381,1.072,-0.133
12.81,-0.291,0.916,-0.096
12.82,-0.112,1.083,0.116
12.83,-0.18,1.068,0.118
12.84,-0.193,0.634,0.032
12.85,-0.423,1.304,-0.161
12.86,-0.134,0.874,-0.078
12.87,-0.228,1.091,0.168
12.88,-0.068,0.735,0.136
12.89,-0.5,1.097,-0.177
12.9,-0.2,0.81,-0.136
12.91,-0.026,1.182,0.066
12.92,-0.145,0.876,0.132
12.93,-0.252,0.743,0.034
12.94,-0.365,1.294,-0.202
12.95,-0.114,0.81,-0.043
12.96,-0.16,1.147,0.136
12.97,-0.015,0.747,0.157
12.98,-0.543,1.079,-0.191
12.99,-0.254,0.917,-0.076
13.0,-0.057,1.119,0.052
13.01,-0.111,0.895,0.143
13.02,-0.264,0.694,0.059
13.03,-0.318,1.311,-0.236
13.04,-0.107,0.795,-0.053
13.05,-0.205,1.101,0.15
13.06,-0.027,0.752,0.089
13.07,-0.454,1.031,-0.178
13.08,-0.285,1.08,-0.012
13.09,-0.049,0.987,0.067
13.1,-0.155,1.001,0.128
13.11,-0.207,0.716,0.021
13.12,-0.362,1.266,-0.223
13.13,-0.055,0.828,-0.003
13.14,-0.159,1.112,0.166
13.15,-0.149,0.809,0.108
13.16,-0.446,0.953,-0.171
13.17,-0.169,1.239,-0.063
13.18,-0.133,0.873,0.053
13.19,-0.166,0.955,0.152
13.2,-0.165,0.816,-0.087
13.21,-0.37,1.252,-0.205
13.22,-0.095,0.832,-0.017
13.23,-0.146,1.044,0.16
13.24,-0.056,0.878,0.06
13.25,-0.463,0.892,-0.13
13.26,-0.267,1.244,-0.014
13.27,-0.047,0.829,0.008
13.28,-0.18,0.989,0.181
13.29,-0.247,0.787,-0.04
13.3,-0.311,1.198,-0.236
13.31,-0.154,0.916,0.014
13.32,-0.128,0.994,0.172
13.33,-0.147,0.916,0.06
13.34,-0.375,0.801,-0.174
13.35,-0.135,1.284,-0.043
13.36,-0.092,0.835,0.074
13.37,-0.177,0.934,0.114
13.38,-0.247,0.864,-0.024
13.39,-0.293,1.077,-0.207
13.4,-0.154,1.035,0.055
13.41,-0.155,0.888,0.181
13.42,-0.129,0.998,0.015
13.43,-0.444,0.802,-0.157
13.44,-0.125,1.258,-0.043
13.45,-0.082,0.807,0.071
13.46,-0.25,0.929,0.202
13.47,-0.26,0.96,-0.093
13.48,-0.277,0.958,-0.212
13.49,-0.181,1.127,0.076
13.5,-0.008,0.793,0.132
13.51,-0.232,1.025,0.043
13.52,-0.334,0.865,-0.164
13.53,-0.134,1.25,-0.071
13.54,-0.115,0.775,0.074
13.55,-0.178,0.928,0.198
13.56,-0.285,1.042,-0.131
13.57,-0.278,0.889,-0.147
13.58,-0.235,1.199,0.073
13.59,0.013,0.711,0.123
13.6,-0.254,1.062,0.029
13.61,-0.37,0.908,-0.149
13.62,-0.173,1.167,-0.058
13.63,-0.191,0.826,0.062
13.64,-0.089,0.885,0.177
13.65,-0.34,1.108,-0.167
13.66,-0.295,0.762,-0.15
13.67,-0.015,1.228,0.062
13.68,-0.148,0.693,0.096
13.69,-0.252,1.044,0.015
13.7,-0.323,0.924,-0.155
13.71,-0.119,1.205,-0.055
13.72,-0.178,0.768,0.149
13.73,-0.135,0.94,0.186
13.74,-0.387,0.977,-0.183
13.75,-0.272,0.875,-0.103
13.76,0.018,1.304,0.058
13.77,-0.109,0.629,0.141
13.78,-0.368,1.07,0.055
13.79,-0.262,0.95,-0.21
13.8,-0.133,1.095,-0.04
13.81,-0.229,0.836,0.174
13.82,0.001,0.879,0.129
13.83,-0.408,1.105,-0.225
13.84,-0.232,0.787,-0.03
13.85,-0.035,1.335,0.048
13.86,-0.144,0.658,0.078
13.87,-0.243,1.088,0.012
13.88,-0.268,0.921,-0.22
13.89,-0.225,1.043,0.001
13.9,-0.141,1.016,0.13
13.91,-0.091,0.8,0.066
13.92,-0.472,1.099,-0.149
13.93,-0.147,0.883,-0.021
13.94,-0.103,1.308,0.043
13.95,-0.183,0.626,0.149
13.96,-0.287,1.036,0.031
13.97,-0.333,1.038,-0.204
13.98,-0.133,0.975,0.029
13.99,-0.227,0.998,0.154
14.0,-0.135,0.706,0.119
14.01,-0.471,1.182,-0.153
14.02,-0.276,0.837,0.013
14.03,-0.073,1.275,0.068
14.04,-0.073,0.657,0.107
14.05,-0.273,1.0,0.045
14.06,-0.398,1.102,-0.214
14.07,-0.102,0.861,0.001
14.08,-0.216,1.163,0.19
14.09,-0.032,0.657,0.029
14.1,-0.493,1.186,-0.16
14.11,-0.165,0.927,-0.022
14.12,-0.101,1.149,0.056
14.13,-0.124,0.735,0.14
14.14,-0.306,0.966,-0.003
14.15,-0.314,1.11,-0.266
14.16,-0.138,0.851,0.011
14.17,-0.122,1.196,0.133
14.18,-0.09,0.636,0.024
14.19,-0.522,1.182,-0.144
14.2,-0.085,0.965,-0.051
14.21,-0.18,1.078,0.07
14.22,-0.153,0.824,0.186
14.23,-0.269,0.876,-0.065
14.24,-0.352,1.154,-0.189
14.25,-0.084,0.907,0.053
14.26,-0.208,1.217,0.135
14.27,-0.074,0.605,0.046
14.28,-0.417,1.189,-0.157
14.29,-0.122,1.02,-0.028
14.3,-0.171,1.015,0.052
14.31,-0.115,0.924,0.151
14.32,-0.269,0.798,-0.062
14.33,-0.309,1.175,-0.228
14.34,-0.171,0.871,0.052
14.35,-0.082,1.157,0.162
14.36,-0.146,0.671,0.049
14.37,-0.49,1.104,-0.14
14.38,-0.058,1.101,-0.084
14.39,-0.15,0.895,0.058
14.4,-0.217,0.983,0.161
14.41,-0.256,0.781,-0.091
14.42,-0.296,1.194,-0.195
14.43,-0.172,0.881,0.071
14.44,-0.053,1.114,0.146
14.45,-0.169,0.736,0.042
14.46,-0.457,1.043,-0.115
14.47,-0.058,1.137,-0.072
14.48,-0.146,0.83,0.035
14.49,-0.187,1.029,0.198
14.5,-0.299,0.849,-0.155
14.51,-0.343,1.15,-0.112
14.52,-0.024,0.939,0.079
14.53,-0.103,1.05,0.125
14.54,-0.254,0.703,0.005
14.55,-0.338,1.185,-0.201
14.56,-0.099,1.038,-0.103
14.57,-0.304,0.826,0.159
14.58,-0.093,1.004,0.19
14.59,-0.35,0.786,-0.19
14.6,-0.257,1.151,-0.138
14.61,-0.062,0.93,0.071
14.62,-0.089,1.0,0.106
14.63,-0.214,0.79,0.016
14.64,-0.359,1.135,-0.161
14.65,-0.081,1.094,-0.088
14.66,-0.17,0.778,0.079
14.67,-0.113,1.069,0.151
14.68,-0.23,0.746,-0.156
14.69,-0.317,1.17,-0.132
14.7,-0.069,1.003,0.091
14.71,-0.149,0.945,0.127
14.72,-0.244,0.853,0.033
14.73,-0.324,1.066,-0.169
14.74,-0.158,1.164,-0.082
14.75,-0.134,0.694,0.11
14.76,-0.086,1.069,0.159
14.77,-0.376,0.809,-0.144
14.78,-0.321,1.085,-0.105
14.79,-0.072,1.007,0.072
14.8,-0.135,0.841,0.137
14.81,-0.194,0.935,0.021
14.82,-0.387,0.982,-0.142
14.83,-0.129,1.175,-0.06
14.84,-0.168,0.712,0.142
14.85,-0.145,1.075,0.166
14.86,-0.352,0.869,-0.164
14.87,-0.312,1.013,-0.067
14.88,-0.089,1.117,0.067
14.89,-0.146,0.828,0.141
14.9,-0.229,0.99,0.02
14.91,-0.314,0.952,-0.175
14.92,-0.201,1.232,-0.001
14.93,-0.223,0.726,0.13
14.94,-0.071,1.006,0.149
14.95,-0.375,0.891,-0.224
14.96,-0.273,0.968,-0.015
14.97,-0.083,1.174,0.019
14.98,-0.137,0.687,0.16
14.99,-0.256,1.072,0.024
15.0,-0.339,0.923,-0.178
15.01,-0.178,1.137,-0.064
15.02,-0.09,0.778,0.117
15.03,-0.092,0.997,0.178
15.04,-0.368,0.953,-0.188
15.05,-0.244,0.875,-0.07
15.06,-0.053,1.296,0.038
15.07,-0.104,0.653,0.098
15.08,-0.332,1.09,0.053
15.09,-0.275,0.921,-0.184
15.1,-0.181,1.156,-0.024
15.11,-0.185,0.803,0.133
15.12,-0.046,0.901,0.132
15.13,-0.445,1.034,-0.188
15.14,-0.19,0.832,-0.058
15.15,-0.093,1.304,0.02
15.16,-0.109,0.602,0.149
15.17,-0.268,1.109,0.041
15.18,-0.32,0.939,-0.224
15.19,-0.187,1.029,-0.053
15.2,-0.076,0.971,0.136
15.21,-0.099,0.793,0.101
15.22,-0.391,1.11,-0.181
15.23,-0.2,0.85,-0.024
15.24,-0.113,1.279,0.037
15.25,-0.111,0.633,0.16
15.26,-0.24,1.064,0.013
15.27,-0.305,0.959,-0.228
15.28,-0.162,0.935,-0.039
15.29,-0.166,1.041,0.147
15.3,-0.151,0.774,0.143
15.31,-0.437,1.065,-0.169
15.32,-0.101,0.916,-0.095
15.33,-0.148,1.234,0.076
15.34,-0.069,0.603,0.161
15.35,-0.33,1.105,-0.008
15.36,-0.274,0.901,-0.196
15.37,-0.177,1.106,-0.018
15.38,-0.123,0.922,0.139
15.39,-0.14,0.804,0.093
15.4,-0.417,1.104,-0.186
15.41,-0.174,0.896,-0.011
15.42,-0.134,1.292,0.037
15.43,-0.115,0.633,0.164
15.44,-0.289,1.088,-0.006
15.45,-0.288,0.966,-0.233
15.46,-0.132,0.999,0.015
15.47,-0.171,0.983,0.128
15.48,-0.058,0.756,0.078
15.49,-0.477,1.161,-0.15
15.5,-0.215,0.826,-0.033
15.51,-0.108,1.312,0.054
15.52,-0.088,0.656,0.155
15.53,-0.319,1.025,0.007
15.54,-0.235,1.064,-0.271
15.55,-0.17,0.869,-0.007
15.56,-0.174,1.072,0.226
15.57,-0.079,0.712,0.087
15.58,-0.53,1.152,-0.207
15.59,-0.122,0.866,-0.035
15.6,-0.097,1.254,0.066
15.61,-0.203,0.708,0.157
15.62,-0.246,0.97,-0.021
15.63,-0.323,1.105,-0.217
15.64,-0.162,0.859,0.034
15.65,-0.141,1.196,0.133
15.66,-0.098,0.635,0.103
15.67,-0.565,1.231,-0.113
15.68,-0.027,0.951,-0.082
15.69,-0.157,1.123,0.035
15.7,-0.126,0.77,0.175
15.71,-0.314,0.871,-0.027
15.72,-0.314,1.167,-0.184
15.73,-0.126,0.841,-0.008
15.74,-0.17,1.146,0.167
15.75,-0.017,0.665,0.061
15.76,-0.509,1.198,-0.187
15.77,-0.084,0.952,-0.05
15.78,-0.1,1.101,0.035
15.79,-0.132,0.832,0.151
15.8,-0.303,0.809,-0.057
15.81,-0.266,1.236,-0.195
15.82,-0.136,0.858,0.021
15.83,-0.199,1.171,0.18
15.84,-0.004,0.671,0.027
15.85,-0.517,1.113,-0.168
15.86,-0.076,1.026,-0.047
15.87,-0.127,0.993,0.073
15.88,-0.182,0.916,0.129
15.89,-0.239,0.788,-0.052
15.9,-0.238,1.302,-0.216
15.91,-0.201,0.834,0.011
15.92,-0.115,1.088,0.169
15.93,-0.07,0.765,0.083
15.94,-0.534,1.06,-0.169
15.95,-0.121,1.108,-0.068
15.96,-0.069,0.925,0.077
15.97,-0.212,0.974,0.117
15.98,-0.19,0.756,-0.075
15.99,-0.256,1.261,-0.215
16.0,-0.187,0.87,0.042
16.01,-0.124,1.044,0.166
16.02,-0.131,0.814,0.057
16.03,-0.51,1.008,-0.14
16.04,-0.137,1.166,-0.102
16.05,-0.102,0.834,0.062
16.06,-0.202,1.014,0.181
16.07,-0.255,0.75,-0.087
16.08,-0.24,1.165,-0.201
16.09,-0.101,0.967,0.052
16.1,-0.19,0.968,0.159
16.11,-0.088,0.854,0.014
16.12,-0.456,0.971,-0.101
16.13,-0.222,1.101,-0.025
16.14,-0.168,0.848,0.082
16.15,-0.155,1.028,0.166
16.16,-0.334,0.71,-0.143
16.17,-0.229,1.161,-0.181
16.18,0.007,1.004,0.067
16.19,-0.174,0.983,0.127
16.2,-0.206,0.792,0.052
16.21,-0.357,1.079,-0.141
16.22,-0.257,1.133,-0.038
16.23,-0.168,0.738,0.076
16.24,-0.167,1.094,0.148
16.25,-0.257,0.782,-0.131
16.26,-0.317,1.112,-0.137
16.27,-0.018,0.965,0.079
16.28,-0.144,0.952,0.178
16.29,-0.151,0.868,-0.044
16.3,-0.376,0.964,-0.148
16.31,-0.197,1.19,-0.043
16.32,-0.14,0.744,0.077
16.33,-0.106,1.092,0.168
16.34,-0.33,0.831,-0.147
16.35,-0.267,1.052,-0.126
16.36,-0.08,1.087,0.085
16.37,-0.069,0.816,0.114
16.38,-0.236,0.953,0.029
16.39,-0.293,0.982,-0.183
16.4,-0.163,1.195,-0.1
16.41,-0.206,0.711,0.169
16.42,-0.098,1.062,0.161
16.43,-0.374,0.85,-0.152
16.44,-0.29,0.993,-0.095
16.45,-0.122,1.163,0.068
16.46,-0.158,0.744,0.152
16.47,-0.291,1.023,0.063
16.48,-0.306,0.963,-0.174
16.49,-0.226,1.181,-0.011
16.5,-0.17,0.715,0.117
16.51,-0.114,0.976,0.154
16.52,-0.341,0.939,-0.139
16.53,-0.293,0.928,-0.114
16.54,-0.139,1.2,0.075
16.55,-0.043,0.737,0.124
16.56,-0.292,1.026,0.043
16.57,-0.316,0.911,-0.153
16.58,-0.156,1.243,-0.052
16.59,-0.116,0.77,0.077
16.6,-0.148,0.909,0.171
16.61,-0.269,1.025,-0.143
16.62,-0.262,0.872,-0.131
16.63,-0.151,1.25,0.098
16.64,-0.093,0.715,0.135
16.65,-0.335,1.051,0.059
16.66,-0.29,0.907,-0.159
16.67,-0.159,1.142,-0.04
16.68,-0.223,0.85,0.104
16.69,-0.044,0.822,0.136
16.7,-0.384,1.103,-0.148
16.71,-0.272,0.806,-0.114
16.72,-0.128,1.301,0.064
16.73,-0.052,0.683,0.136
16.74,-0.289,1.037,0.007
16.75,-0.331,0.943,-0.179
16.76,-0.177,1.082,-0.001
16.77,-0.185,0.915,0.098
16.78,-0.063,0.771,0.156
16.79,-0.406,1.162,-0.153
16.8,-0.227,0.768,-0.103
16.81,-0.178,1.338,0.081
16.82,-0.123,0.71,0.151
16.83,-0.326,0.972,0.047
16.84,-0.295,1.036,-0.191
16.85,-0.118,1.016,-0.038
16.86,-0.249,0.98,0.109
16.87,0.025,0.733,0.139
16.88,-0.437,1.196,-0.184
16.89,-0.267,0.762,-0.13
16.9,-0.072,1.302,0.034
16.91,-0.126,0.734,0.114
16.92,-0.271,0.929,0.036
16.93,-0.327,1.12,-0.23
16.94,-0.097,0.945,-0.066
16.95,-0.181,0.993,0.154
16.96,0.018,0.797,0.077
16.97,-0.45,1.114,-0.196
16.98,-0.223,0.852,-0.018
16.99,-0.107,1.357,0.049
17.0,-0.141,0.618,0.125
17.01,-0.286,1.054,0.023
17.02,-0.326,1.053,-0.238
17.03,-0.147,0.862,-0.038
17.04,-0.118,1.076,0.192
17.05,-0.049,0.758,0.064
17.06,-0.487,1.135,-0.17
17.07,-0.171,0.846,-0.068
17.08,-0.067,1.261,0.037
17.09,-0.115,0.696,0.133
17.1,-0.341,0.948,0.011
17.11,-0.308,1.107,-0.18
17.12,-0.152,0.891,0.016
17.13,-0.266,1.089,0.142
17.14,0.067,0.726,0.059
17.15,-0.509,1.164,-0.229
17.16,-0.222,0.803,-0.048
17.17,-0.019,1.272,0.062
17.18,-0.185,0.745,0.124
17.19,-0.299,0.851,0.007
17.2,-0.251,1.24,-0.219
17.21,-0.131,0.812,-0.003
17.22,-0.223,1.122,0.171
17.23,-0.035,0.715,0.1
17.24,-0.472,1.14,-0.226
17.25,-0.205,0.889,-0.037
17.26,-0.025,1.179,0.055
17.27,-0.162,0.813,0.141
17.28,-0.267,0.806,0.01
17.29,-0.285,1.273,-0.229
17.3,-0.123,0.774,-0.041
17.31,-0.197,1.138,0.19
17.32,-0.011,0.731,0.077
17.33,-0.557,1.125,-0.177
17.34,-0.171,0.966,-0.038
17.35,-0.021,1.076,0.066
17.36,-0.187,0.897,0.13
17.37,-0.275,0.78,0.005
17.38,-0.311,1.306,-0.222
17.39,-0.191,0.78,0.02
17.4,-0.152,1.182,0.176
17.41,-0.077,0.709,0.05
17.42,-0.496,1.047,-0.16
17.43,-0.186,1.068,-0.054
17.44,-0.084,0.95,0.045
17.45,-0.145,0.952,0.119
17.46,-0.209,0.789,-0.046
17.47,-0.354,1.287,-0.229
17.48,-0.157,0.796,0.016
17.49,-0.168,1.096,0.202
17.5,-0.09,0.779,0.064
17.51,-0.447,0.99,-0.162
17.52,-0.182,1.133,-0.057
17.53,-0.091,0.842,0.066
17.54,-0.147,0.969,0.149
17.55,-0.301,0.781,-0.045
17.56,-0.248,1.272,-0.209
17.57,-0.201,0.88,0.018
17.58,-0.119,1.002,0.193
17.59,-0.062,0.899,0.017
17.6,-0.473,0.892,-0.179
17.61,-0.177,1.2,-0.046
17.62,0.015,0.885,0.058
17.63,-0.22,1.0,0.122
17.64,-0.227,0.753,-0.058
17.65,-0.267,1.208,-0.215
17.66,-0.16,0.918,0.02
17.67,-0.07,0.962,0.194
17.68,-0.14,0.949,0.036
17.69,-0.463,0.838,-0.185
17.7,-0.102,1.263,-0.014
17.71,-0.123,0.812,0.114
17.72,-0.247,0.956,0.15
17.73,-0.22,0.85,-0.064
17.74,-0.255,1.102,-0.191
17.75,-0.224,1.023,0.081
17.76,-0.065,1.024,0.139
17.77,-0.245,0.845,-0.005
17.78,-0.459,1.001,-0.054
17.79,-0.106,1.18,-0.086
17.8,-0.142,0.735,0.109
17.81,-0.14,1.073,0.164
17.82,-0.299,0.783,-0.157
17.83,-0.327,1.117,-0.119
17.84,-0.059,1.062,0.099
17.85,-0.116,0.846,0.148
17.86,-0.236,0.935,0.033
17.87,-0.311,0.956,-0.191
17.88,-0.245,1.197,0.007
17.89,-0.141,0.7,0.144
17.9,-0.065,1.073,0.111
17.91,-0.331,0.84,-0.172
17.92,-0.29,1.029,-0.086
17.93,-0.083,1.108,0.039
17.94,-0.071,0.783,0.125
17.95,-0.221,1.044,0.026
17.96,-0.358,0.971,-0.196
17.97,-0.181,1.127,-0.026
17.98,-0.153,0.756,0.158
17.99,-0.132,1.023,0.141
18.0,-0.323,0.91,-0.172
18.01,-0.216,0.987,-0.098
18.02,-0.151,1.154,-0.004
18.03,-0.039,0.687,0.169
18.04,-0.243,1.077,0.028
18.05,-0.446,0.925,-0.184
18.06,-0.121,1.149,-0.003
18.07,-0.164,0.789,0.118
18.08,-0.166,0.939,0.159
18.09,-0.312,1.015,-0.188
18.1,-0.188,0.875,-0.098
18.11,-0.135,1.234,0.068
18.12,-0.075,0.669,0.138
18.13,-0.222,1.068,-0.017
18.14,-0.348,0.954,-0.149
18.15,-0.181,1.112,0.01
18.16,-0.127,0.811,0.11
18.17,-0.052,0.899,0.101
18.18,-0.472,1.064,-0.145
18.19,-0.205,0.833,-0.063
18.2,-0.104,1.287,0.031
18.21,-0.084,0.62,0.102
18.22,-0.245,1.125,0.016
18.23,-0.339,0.932,-0.199
18.24,-0.157,0.998,0.002
18.25,-0.17,0.955,0.196
18.26,-0.124,0.784,0.061
18.27,-0.399,1.132,-0.191
18.28,-0.201,0.905,-0.003
18.29,-0.151,1.261,0.041
18.3,-0.084,0.586,0.195
18.31,-0.285,1.092,0.027
18.32,-0.397,0.962,-0.23
18.33,-0.164,0.945,0.016
18.34,-0.079,1.101,0.144
18.35,-0.164,0.69,0.109
18.36,-0.408,1.163,-0.2
18.37,-0.11,0.865,-0.02
18.38,-0.144,1.27,0.029
18.39,-0.104,0.629,0.147
18.4,-0.277,1.055,-0.022
18.41,-0.349,1.055,-0.22
18.42,-0.158,0.885,0.027
18.43,-0.132,1.093,0.146
18.44,-0.099,0.68,0.054
18.45,-0.394,1.217,-0.191
18.46,-0.177,0.851,-0.017
18.47,-0.116,1.179,0.032
18.48,-0.124,0.729,0.182
18.49,-0.291,0.955,-0.018
18.5,-0.314,1.111,-0.221
18.51,-0.174,0.849,0.03
18.52,-0.118,1.171,0.18
18.53,-0.095,0.667,0.052
18.54,-0.52,1.186,-0.17
18.55,-0.038,0.891,-0.048
18.56,-0.155,1.134,0.049
18.57,-0.151,0.757,0.189
18.58,-0.333,1.088,-0.088
18.59,-0.3,0.945,-0.182
18.6,-0.146,0.948,0.063
18.61,-0.023,1.104,0.116
18.62,-0.105,0.626,-0.014
18.63,-0.485,1.235,-0.147
18.64,-0.008,0.926,-0.027
18.65,-0.241,1.116,0.083
18.66,-0.144,0.73,0.201
18.67,-0.333,1.034,-0.117
18.68,-0.295,1.036,-0.171
18.69,-0.116,0.956,0.089
18.7,-0.068,1.148,0.111
18.71,-0.171,0.584,0.019
18.72,-0.425,1.22,-0.17
18.73,-0.004,0.971,-0.074
18.74,-0.175,1.019,0.092
18.75,-0.168,0.827,0.22
18.76,-0.342,0.895,-0.157
18.77,-0.271,1.083,-0.174
18.78,-0.129,0.926,0.149
18.79,-0.118,1.119,0.145
18.8,-0.177,0.643,-0.013
18.81,-0.439,1.236,-0.119
18.82,-0.091,0.911,-0.048
18.83,-0.211,0.994,0.106
18.84,-0.104,0.898,0.163
18.85,-0.318,0.849,-0.156
18.86,-0.316,1.183,-0.136
18.87,-0.063,0.909,0.075
18.88,-0.092,1.09,0.106
18.89,-0.239,0.699,0.023
18.9,-0.379,1.201,-0.181
18.91,-0.094,0.945,-0.055
18.92,-0.201,0.91,0.15
18.93,-0.135,0.985,0.141
18.94,-0.314,0.789,-0.199
18.95,-0.255,1.179,-0.102
18.96,-0.125,0.942,0.08
18.97,-0.078,0.959,0.127
18.98,-0.17,0.827,0.015
18.99,-0.454,1.006,-0.144
19.0,-0.147,1.167,-0.045
19.01,-0.145,0.784,0.128
19.02,-0.116,1.034,0.155
19.03,-0.355,0.794,-0.136
19.04,-0.219,1.171,-0.101
19.05,-0.111,1.008,0.074
19.06,-0.105,0.86,0.112
19.07,-0.24,0.809,-0.008
19.08,-0.371,1.083,-0.224
19.09,-0.059,1.043,-0.062
19.1,-0.159,0.825,0.19
19.11,-0.131,1.064,0.081
19.12,-0.337,0.744,-0.199
19.13,-0.189,1.233,-0.035
19.14,-0.092,0.945,0.08
19.15,-0.087,0.862,0.093
19.16,-0.26,0.964,-0.024
19.17,-0.341,1.044,-0.206
19.18,-0.131,1.097,-0.003
19.19,-0.1,0.829,0.204
19.2,-0.176,1.041,0.063
19.21,-0.339,0.791,-0.19
19.22,-0.181,1.239,-0.014
19.23,-0.11,0.926,0.083
19.24,-0.148,0.79,0.133
19.25,-0.28,1.047,-0.033
19.26,-0.27,0.918,-0.192
19.27,-0.126,1.166,0.02
19.28,-0.113,0.768,0.177
19.29,-0.137,1.004,0.007
19.3,-0.392,0.859,-0.198
19.31,-0.169,1.135,-0.049
19.32,-0.079,0.923,0.063
19.33,-0.198,0.76,0.18
19.34,-0.32,1.123,-0.065
19.35,-0.284,0.866,-0.189
19.36,-0.152,1.193,0.042
19.37,-0.083,0.766,0.179
19.38,-0.198,1.014,-0.006
19.39,-0.432,0.943,-0.208
19.4,-0.074,1.075,-0.008
19.41,-0.188,0.983,0.069
19.42,-0.154,0.681,0.164
19.43,-0.271,1.215,-0.163
19.44,-0.297,0.822,-0.17
19.45,-0.129,1.198,0.135
19.46,-0.042,0.79,0.132
19.47,-0.33,0.926,0.001
19.48,-0.359,1.038,-0.191
19.49,-0.031,1.042,-0.081
19.5,-0.252,0.984,0.106
19.51,-0.104,0.699,0.208
19.52,-0.383,1.223,-0.194
19.53,-0.297,0.772,-0.097
19.54,-0.089,1.261,0.146
19.55,-0.072,0.765,0.086
19.56,-0.327,0.888,0.037
19.57,-0.294,1.14,-0.179
19.58,-0.166,0.938,0.007
19.59,-0.286,1.056,0.161
19.6,-0.034,0.695,0.13
19.61,-0.48,1.204,-0.203
19.62,-0.185,0.851,-0.041
19.63,-0.079,1.22,0.11
19.64,-0.165,0.803,0.129
19.65,-0.268,0.82,-0.021
19.66,-0.337,1.216,-0.167
19.67,-0.157,0.872,0.02
19.68,-0.176,1.103,0.113
19.69,-0.056,0.689,0.087
19.7,-0.522,1.174,-0.199
19.71,-0.122,0.872,-0.113
19.72,-0.034,1.12,0.111
19.73,-0.166,0.866,0.128
19.74,-0.304,0.762,-0.054
19.75,-0.329,1.255,-0.168
19.76,-0.088,0.831,0.044
19.77,-0.175,1.133,0.175
19.78,-0.121,0.711,0.001
19.79,-0.43,1.136,-0.225
19.8,-0.094,1.015,-0.009
19.81,-0.117,0.955,0.1
19.82,-0.199,0.931,0.13
19.83,-0.253,0.807,-0.108
19.84,-0.341,1.261,-0.122
19.85,-0.105,0.857,0.114
19.86,-0.14,1.098,0.131
19.87,-0.221,0.711,0.004
19.88,-0.487,1.128,-0.161
19.89,-0.061,1.098,-0.06
19.9,-0.185,0.97,0.145
19.91,-0.146,0.915,0.162
19.92,-0.384,0.874,-0.175
19.93,-0.241,1.174,-0.122
19.94,0.022,0.879,0.054
19.95,-0.132,1.035,0.133
19.96,-0.262,0.721,-0.027
19.97,-0.338,1.214,-0.193
19.98,-0.141,0.975,0.047
19.99,-0.145,0.94,0.151
20.0,-0.145,0.969,0.081
20.01,-0.358,0.795,-0.201
20.02,-0.18,1.284,-0.053
20.03,-0.059,0.824,0.081
20.04,-0.188,0.958,0.172
20.05,-0.233,0.836,-0.084
20.06,-0.337,1.121,-0.215
20.07,-0.164,1.022,0.066
20.08,-0.109,0.857,0.159
20.09,-0.198,0.981,0.025
20.1,-0.367,0.798,-0.182
20.11,-0.128,1.287,-0.033
20.12,-0.093,0.801,0.094
20.13,-0.176,0.914,0.157
20.14,-0.244,0.957,-0.084
20.15,-0.291,1.031,-0.167
20.16,-0.201,1.141,0.057
20.17,0.003,0.789,0.1
20.18,-0.289,1.012,-0.007
20.19,-0.415,0.883,-0.104
20.2,-0.135,1.284,-0.03
20.21,-0.138,0.74,0.091
20.22,-0.096,0.934,0.18
20.23,-0.336,1.036,-0.187
20.24,-0.335,0.864,-0.089
20.25,-0.003,1.277,0.058
20.26,-0.144,0.685,0.128
20.27,-0.338,1.067,0.005
20.28,-0.344,0.932,-0.171
20.29,-0.15,1.116,-0.044
20.3,-0.17,0.87,0.122
20.31,-0.088,0.855,0.123
20.32,-0.404,1.084,-0.186
20.33,-0.257,0.845,-0.057
20.34,-0.122,1.282,0.092
20.35,-0.067,0.6,0.178
20.36,-0.396,1.067,-0.005
20.37,-0.284,0.938,-0.214
20.38,-0.1,1.061,-0.013
20.39,-0.203,0.946,0.169
20.4,-0.075,0.775,0.107
20.41,-0.402,1.179,-0.222
20.42,-0.193,0.816,-0.03
20.43,-0.111,1.291,0.066
20.44,-0.068,0.64,0.09
20.45,-0.297,1.022,0.002
20.46,-0.312,1.001,-0.197
20.47,-0.132,1.007,0.004
20.48,-0.152,1.049,0.144
20.49,-0.04,0.68,0.05
20.5,-0.425,1.23,-0.199
20.51,-0.072,0.852,-0.08
20.52,-0.098,1.158,0.053
20.53,-0.123,0.755,0.15
20.54,-0.37,1.002,-0.08
20.55,-0.281,0.988,-0.163
20.56,-0.095,0.945,0.063
20.57,-0.134,1.124,0.087
20.58,-0.069,0.621,0.016
20.59,-0.482,1.268,-0.192
20.6,-0.093,0.851,-0.064
20.61,-0.121,1.094,0.11
20.62,-0.141,0.79,0.168
20.63,-0.361,0.958,-0.113
20.64,-0.262,1.093,-0.14
20.65,-0.163,0.913,0.099
20.66,-0.125,1.127,0.145
20.67,-0.078,0.619,0.036
20.68,-0.565,1.289,-0.189
20.69,-0.025,0.909,-0.073
20.7,-0.172,1.043,0.117
20.71,-0.114,0.733,0.164
20.72,-0.389,1.026,-0.189
20.73,-0.204,1.002,-0.158
20.74,-0.095,1.037,0.121
20.75,-0.126,1.023,0.099
20.76,-0.222,0.631,-0.035
20.77,-0.417,1.326,-0.176
20.78,-0.069,0.819,-0.045
20.79,-0.205,1.032,0.145
20.8,-0.052,0.841,0.148
20.81,-0.421,0.981,-0.178
20.82,-0.288,1.062,-0.087
20.83,0.04,0.985,0.096
20.84,-0.163,1.064,0.115
20.85,-0.236,0.657,-0.027
20.86,-0.256,1.284,-0.228
20.87,-0.143,0.917,0.009
20.88,-0.222,0.997,0.168
20.89,-0.07,0.878,0.082
20.9,-0.462,0.879,-0.18
20.91,-0.195,1.221,-0.02
20.92,-0.03,0.845,0.057
20.93,-0.21,1.002,0.141
20.94,-0.223,0.752,-0.031
20.95,-0.273,1.243,-0.183
20.96,-0.152,0.947,-0.003
20.97,-0.113,0.968,0.165
20.98,-0.104,0.886,0.077
20.99,-0.457,0.897,-0.161
21.0,-0.177,1.248,-0.067
21.01,-0.073,0.754,0.052
21.02,-0.172,1.023,0.165
21.03,-0.252,0.836,-0.106
21.04,-0.296,1.073,-0.175
21.05,-0.12,1.046,0.073
21.06,-0.068,0.91,0.14
21.07,-0.158,0.965,0.06
21.08,-0.438,0.87,-0.144
21.09,-0.109,1.276,-0.058
21.1,-0.183,0.729,0.067
21.11,-0.207,0.966,0.215
21.12,-0.232,0.915,-0.093
21.13,-0.3,0.991,-0.171
21.14,-0.117,1.066,0.064
21.15,-0.039,0.816,0.149
21.16,-0.225,1.01,-0.013
21.17,-0.434,0.849,-0.175
21.18,0.006,1.273,-0.134
21.19,-0.177,0.784,0.085
21.2,-0.171,0.896,0.183
21.21,-0.246,1.018,-0.155
21.22,-0.305,0.907,-0.139
21.23,-0.111,1.18,0.086
21.24,-0.029,0.762,0.098
21.25,-0.299,1.032,-0.013
21.26,-0.382,0.887,-0.139
21.27,-0.152,1.191,-0.015
21.28,-0.215,0.814,0.11
21.29,-0.05,0.862,0.156
21.3,-0.349,1.075,-0.15
21.31,-0.272,0.829,-0.071
21.32,-0.122,1.3,0.119
21.33,-0.086,0.67,0.155
21.34,-0.301,1.05,0.016
21.35,-0.363,0.966,-0.162
21.36,-0.161,1.085,-0.054
21.37,-0.157,0.848,0.121
21.38,-0.07,0.824,0.156
21.39,-0.364,1.135,-0.195
21.4,-0.241,0.769,-0.107
21.41,-0.1,1.344,0.073
21.42,-0.093,0.681,0.114
21.43,-0.311,0.979,-0.029
21.44,-0.241,1.036,-0.196
21.45,-0.168,1.051,-0.017
21.46,-0.266,0.928,0.138
21.47,-0.043,0.782,0.185
21.48,-0.427,1.2,-0.179
21.49,-0.296,0.771,-0.051
21.5,-0.104,1.301,0.054
21.51,-0.092,0.685,0.142
21.52,-0.348,0.995,0.008
21.53,-0.311,0.894,-0.217
21.54,-0.127,1.062,0.013
21.55,-0.184,0.94,0.197
21.56,-0.065,0.776,0.079
21.57,-0.409,1.126,-0.189
21.58,-0.189,0.835,-0.009
21.59,-0.143,1.271,0.049
21.6,-0.079,0.626,0.139
21.61,-0.341,1.088,-0.031
21.62,-0.318,0.916,-0.213
21.63,-0.102,1.009,0.006
21.64,-0.156,1.063,0.158
21.65,-0.113,0.7,0.065
21.66,-0.431,1.221,-0.175
21.67,-0.088,0.855,-0.068
21.68,-0.143,1.193,0.074
21.69,-0.097,0.696,0.158
21.7,-0.355,1.063,-0.068
21.71,-0.254,0.945,-0.21
21.72,-0.157,0.996,0.049
21.73,-0.192,1.063,0.173
21.74,-0.06,0.628,0.058
21.75,-0.474,1.296,-0.17
21.76,-0.135,0.856,-0.089
21.77,-0.103,1.148,0.098
21.78,-0.138,0.746,0.177
21.79,-0.369,0.98,-0.068
21.8,-0.25,1.026,-0.203
21.81,-0.159,0.913,0.056
21.82,-0.147,1.124,0.159
21.83,-0.055,0.645,0.064
21.84,-0.465,1.247,-0.189
21.85,-0.114,0.903,-0.027
21.86,-0.152,1.119,0.087
21.87,-0.219,0.783,0.148
21.88,-0.251,0.868,-0.06
21.89,-0.298,1.169,-0.147
21.9,-0.141,0.864,0.049
21.91,-0.178,1.159,0.143
21.92,-0.074,0.599,0.036
21.93,-0.46,1.243,-0.186
21.94,-0.042,0.978,-0.07
21.95,-0.179,1.043,0.046
21.96,-0.122,0.854,0.133
21.97,-0.281,0.86,-0.089
21.98,-0.26,1.185,-0.188
21.99,-0.113,0.883,0.131
22.0,-0.128,1.146,0.12
22.01,-0.142,0.637,0.017
22.02,-0.463,1.185,-0.124
22.03,-0.104,1.051,-0.072
22.04,-0.196,0.906,0.085
22.05,-0.172,0.967,0.173
22.06,-0.305,0.838,-0.119
22.07,-0.264,1.139,-0.181
22.08,-0.156,0.873,0.118
22.09,-0.104,1.11,0.124
22.1,-0.118,0.702,0.032
22.11,-0.439,1.126,-0.172
22.12,-0.096,1.104,-0.097
22.13,-0.173,0.837,0.078
22.14,-0.213,1.002,0.201
22.15,-0.279,0.792,-0.154
22.16,-0.227,1.156,-0.165
22.17,-0.137,0.942,0.109
22.18,-0.129,1.039,0.14
22.19,-0.184,0.77,0.031
22.2,-0.418,1.088,-0.153
22.21,-0.155,1.149,-0.084
22.22,-0.127,0.724,0.07
22.23,-0.196,1.01,0.178
22.24,-0.292,0.805,-0.097
22.25,-0.281,1.177,-0.147
22.26,-0.162,0.947,0.064
22.27,-0.068,1.013,0.153
22.28,-0.139,0.859,0.018
22.29,-0.461,0.974,-0.183
22.3,-0.036,1.215,-0.096
22.31,-0.106,0.756,0.038
22.32,-0.205,1.026,0.199
22.33,-0.304,0.814,-0.133
22.34,-0.285,1.174,-0.116
22.35,-0.124,0.925,0.11
22.36,-0.078,0.974,0.154
22.37,-0.293,0.812,0.008
22.38,-0.347,1.093,-0.107
22.39,-0.107,1.166,-0.047
22.4,-0.165,0.753,0.101
22.41,-0.123,1.049,0.14
22.42,-0.342,0.795,-0.148
22.43,-0.302,1.168,-0.087
22.44,-0.102,0.984,0.088
22.45,-0.064,0.862,0.131
22.46,-0.28,0.911,0.024
22.47,-0.349,1.021,-0.162
22.48,-0.111,1.116,-0.053
22.49,-0.174,0.721,0.168
22.5,-0.135,1.098,0.133
22.51,-0.312,0.79,-0.17
22.52,-0.211,1.1,-0.087
22.53,-0.103,1.074,0.054
22.54,-0.098,0.769,0.118
22.55,-0.229,0.973,-0.003
22.56,-0.384,0.989,-0.162
22.57,-0.119,1.147,-0.073
22.58,-0.141,0.684,0.157
22.59,-0.102,1.051,0.107
22.6,-0.416,0.858,-0.18
22.61,-0.212,1.024,-0.067
22.62,-0.076,1.128,0.03
22.63,-0.082,0.692,0.149
22.64,-0.299,1.064,0.011
22.65,-0.277,0.951,-0.188
22.66,-0.137,1.164,-0.009
22.67,-0.15,0.732,0.168
22.68,-0.084,1.013,0.134
22.69,-0.375,0.92,-0.177
22.7,-0.303,0.975,-0.039
22.71,-0.061,1.181,0.037
22.72,-0.119,0.664,0.148
22.73,-0.375,1.1,0.019
22.74,-0.289,0.904,-0.168
22.75,-0.138,1.169,-0.064
22.76,-0.148,0.801,0.185
22.77,-0.106,0.92,0.118
22.78,-0.354,0.991,-0.206
22.79,-0.229,0.928,-0.038
22.8,-0.089,1.227,0.036
22.81,-0.105,0.643,0.169
22.82,-0.308,1.145,0.005
22.83,-0.289,0.909,-0.222
22.84,-0.136,1.109,-0.008
22.85,-0.169,0.894,0.162
22.86,-0.065,0.857,0.079
22.87,-0.378,1.049,-0.168
22.88,-0.232,0.884,-0.023
22.89,-0.115,1.252,0.056
22.9,-0.173,0.583,0.153
22.91,-0.343,1.137,0.052
22.92,-0.308,0.96,-0.224
22.93,-0.186,0.988,-0.02
22.94,-0.174,0.93,0.165
22.95,0.025,0.802,0.072
22.96,-0.491,1.117,-0.187
22.97,-0.251,0.812,0.005
22.98,-0.062,1.31,0.018
22.99,-0.13,0.626,0.115
23.0,-0.285,1.116,0.06
23.01,-0.324,1.003,-0.21
23.02,-0.241,0.902,0.001
23.03,-0.093,1.069,0.159
23.04,-0.069,0.724,0.07
23.05,-0.516,1.174,-0.163
23.06,-0.097,0.878,-0.052
23.07,-0.151,1.236,0.055
23.08,-0.085,0.63,0.165
23.09,-0.315,1.049,-0.027
23.1,-0.313,0.988,-0.195
23.11,-0.235,0.886,0.019
23.12,-0.061,1.175,0.129
23.13,-0.032,0.688,0.054
23.14,-0.463,1.15,-0.166
23.15,-0.156,0.891,-0.046
23.16,-0.141,1.218,0.05
23.17,-0.123,0.596,0.192
23.18,-0.31,1.132,-0.06
23.19,-0.319,0.968,-0.18
23.2,-0.152,0.989,0.062
23.21,-0.17,1.086,0.158
23.22,-0.134,0.686,0.053
23.23,-0.439,1.157,-0.162
23.24,-0.072,0.874,-0.062
23.25,-0.187,1.218,0.065
23.26,-0.076,0.648,0.177
23.27,-0.295,1.067,-0.062
23.28,-0.305,1.0,-0.165
23.29,-0.23,0.988,0.087
23.3,-0.065,1.141,0.131
23.31,-0.155,0.631,0.04
23.32,-0.51,1.178,-0.105
23.33,-0.067,0.929,-0.085
23.34,-0.163,1.131,0.052
23.35,-0.144,0.706,0.226
23.36,-0.283,1.009,-0.087
23.37,-0.361,1.068,-0.216
23.38,-0.126,0.861,0.063
23.39,-0.122,1.193,0.202
23.4,-0.124,0.645,0.077
23.41,-0.494,1.206,-0.143
23.42,-0.135,0.918,-0.059
23.43,-0.169,1.112,0.044
23.44,-0.198,0.772,0.191
23.45,-0.249,0.915,-0.055
23.46,-0.303,1.2,-0.206
23.47,-0.104,0.814,0.017
23.48,-0.174,1.138,0.163
23.49,-0.068,0.687,0.073
23.5,-0.474,1.108,-0.194
23.51,-0.135,0.978,0.015
23.52,-0.148,1.159,0.048
23.53,-0.157,0.804,0.146
23.54,-0.282,0.842,0.024
23.55,-0.315,1.312,-0.239
23.56,-0.128,0.729,-0.035
23.57,-0.135,1.156,0.198
23.58,-0.116,0.742,0.045
23.59,-0.489,1.04,-0.179
23.6,-0.176,1.051,-0.034
23.61,-0.141,1.024,0.034
23.62,-0.134,0.885,0.104
23.63,-0.237,0.802,-0.002
23.64,-0.355,1.299,-0.193
23.65,-0.121,0.76,-0.005
23.66,-0.1,1.166,0.135
23.67,-0.083,0.771,0.075
23.68,-0.441,0.979,-0.174
23.69,-0.215,1.117,-0.067
23.7,-0.104,0.979,0.068
23.71,-0.212,0.976,0.135
23.72,-0.24,0.703,-0.002
23.73,-0.349,1.299,-0.208
23.74,-0.117,0.817,-0.026
23.75,-0.149,1.04,0.143
23.76,-0.073,0.863,0.084
23.77,-0.436,0.917,-0.173
23.78,-0.184,1.134,-0.082
23.79,-0.049,0.978,0.043
23.8,-0.16,0.986,0.141
23.81,-0.216,0.727,0.031
23.82,-0.393,1.308,-0.204
23.83,-0.135,0.876,-0.026
23.84,-0.18,0.95,0.182
23.85,-0.145,0.935,0.095
23.86,-0.384,0.824,-0.173
23.87,-0.148,1.174,-0.128
23.88,-0.13,0.926,0.057
23.89,-0.145,0.977,0.132
23.9,-0.208,0.745,-0.023
23.91,-0.393,1.207,-0.162
23.92,-0.108,0.946,-0.021
23.93,-0.194,0.882,0.156
23.94,-0.107,0.991,0.121
23.95,-0.393,0.807,-0.169
23.96,-0.235,1.162,-0.116
23.97,-0.067,0.97,0.029
23.98,-0.136,0.976,0.133
23.99,-0.244,0.721,0.035
24.0,-0.389,1.247,-0.216
24.01,-0.156,0.887,-0.052
24.02,-0.141,1.008,0.152
24.03,-0.106,0.928,0.09
24.04,-0.451,0.849,-0.132
24.05,-0.201,1.173,-0.105
24.06,-0.024,0.905,0.017
24.07,-0.182,0.99,0.161
24.08,-0.213,0.751,-0.014
24.09,-0.35,1.244,-0.211
24.1,-0.183,0.924,-0.048
24.11,-0.195,0.842,0.171
24.12,-0.084,0.999,0.108
24.13,-0.436,0.812,-0.148
24.14,-0.253,1.163,-0.069
24.15,-0.055,0.929,0.031
24.16,-0.146,0.95,0.151
24.17,-0.135,0.782,0.011
24.18,-0.454,1.177,-0.161
24.19,-0.168,0.999,-0.057
24.2,-0.11,0.842,0.136
24.21,-0.141,1.054,0.12
24.22,-0.383,0.8,-0.153
24.23,-0.225,1.177,-0.133
24.24,-0.073,0.925,0.014
24.25,-0.089,0.924,0.159
24.26,-0.203,0.841,0.004
24.27,-0.401,1.073,-0.152
24.28,-0.188,1.121,-0.016
24.29,-0.157,0.754,0.125
24.3,-0.125,1.065,0.135
24.31,-0.362,0.818,-0.179
24.32,-0.204,1.162,-0.11
24.33,-0.142,0.995,0.057
24.34,-0.08,0.84,0.117
24.35,-0.178,0.941,0.018
24.36,-0.386,1.006,-0.163
24.37,-0.143,1.167,-0.078
24.38,-0.142,0.719,0.151
24.39,-0.127,1.074,0.154
24.4,-0.368,0.809,-0.155
24.41,-0.242,1.078,-0.108
24.42,-0.146,1.065,0.047
24.43,-0.118,0.799,0.16
24.44,-0.157,0.967,0.028
24.45,-0.342,0.981,-0.145
24.46,-0.167,1.224,-0.073
24.47,-0.11,0.668,0.149
24.48,-0.144,1.062,0.174
24.49,-0.386,0.862,-0.134
24.5,-0.216,1.009,-0.125
24.51,-0.129,1.145,0.075
24.52,-0.166,0.76,0.134
24.53,-0.24,1.053,-0.01
24.54,-0.308,0.923,-0.155
24.55,-0.176,1.235,-0.044
24.56,-0.15,0.737,0.117
24.57,-0.062,0.987,0.116
24.58,-0.358,0.933,-0.168
24.59,-0.224,0.927,-0.106
24.6,-0.099,1.192,0.096
24.61,-0.104,0.7,0.121
24.62,-0.357,1.117,0.061
24.63,-0.35,0.905,-0.19
24.64,-0.182,1.16,-0.009
24.65,-0.236,0.802,0.203
24.66,-0.063,0.937,0.13
24.67,-0.401,1.018,-0.141
24.68,-0.221,0.853,-0.098
24.69,-0.139,1.248,0.059
24.7,-0.128,0.652,0.157
24.71,-0.291,1.084,0.016
24.72,-0.373,0.938,-0.165
24.73,-0.191,1.084,-0.022
24.74,-0.147,0.805,0.116
24.75,-0.088,0.861,0.168
24.76,-0.411,1.076,-0.146
24.77,-0.195,0.837,-0.092
24.78,-0.101,1.322,0.053
24.79,-0.077,0.646,0.086
24.8,-0.26,1.12,0.034
24.81,-0.358,0.895,-0.234
24.82,-0.157,1.116,-0.025
24.83,-0.16,0.825,0.159
24.84,-0.068,0.945,0.103
24.85,-0.382,0.984,-0.169
24.86,-0.169,0.899,-0.052
24.87,-0.184,1.274,0.031
24.88,-0.082,0.587,0.15
24.89,-0.34,1.113,0.014
24.9,-0.35,0.933,-0.246
24.91,-0.064,1.091,-0.036
24.92,-0.144,0.882,0.159
24.93,-0.089,0.831,0.094
24.94,-0.448,1.069,-0.158
24.95,-0.184,0.841,-0.042
24.96,-0.129,1.322,0.025
24.97,-0.095,0.609,0.144
24.98,-0.352,1.074,0.037
24.99,-0.271,0.924,-0.216
25.0,-0.161,1.026,-0.045
25.01,-0.174,0.944,0.173
25.02,-0.108,0.782,0.104
25.03,-0.423,1.135,-0.171
25.04,-0.159,0.84,-0.041
25.05,-0.11,1.292,0.031
25.06,-0.157,0.642,0.132
25.07,-0.225,1.062,-0.001
25.08,-0.382,0.989,-0.209
25.09,-0.173,0.899,-0.014
25.1,-0.115,1.089,0.172
25.11,-0.094,0.74,0.103
25.12,-0.411,1.137,-0.165
25.13,-0.261,0.818,-0.062
25.14,-0.046,1.308,-0.002
25.15,-0.134,0.678,0.142
25.16,-0.293,0.943,0.023
25.17,-0.313,1.13,-0.245
25.18,-0.18,0.897,-0.008
25.19,-0.194,1.095,0.16
25.2,-0.042,0.728,0.125
25.21,-0.496,1.138,-0.167
25.22,-0.23,0.802,-0.058
25.23,-0.067,1.274,0.048
25.24,-0.213,0.722,0.16
25.25,-0.284,0.853,0.061
25.26,-0.301,1.24,-0.23
25.27,-0.127,0.835,-0.091
25.28,-0.204,1.102,0.158
25.29,-0.064,0.725,0.106
25.3,-0.402,1.113,-0.205
25.31,-0.241,0.85,-0.028
25.32,-0.016,1.193,0.04
25.33,-0.188,0.843,0.129
25.34,-0.267,0.784,0.032
25.35,-0.37,1.265,-0.222
25.36,-0.1,0.802,-0.037
25.37,-0.231,1.191,0.198
25.38,-0.091,0.716,0.082
25.39,-0.462,1.067,-0.192
25.4,-0.211,0.933,-0.083
25.41,0.02,1.111,-0.011
25.42,-0.226,0.899,0.148
25.43,-0.187,0.745,0.006
25.44,-0.348,1.34,-0.212
25.45,-0.156,0.776,-0.018
25.46,-0.202,1.132,0.191
25.47,-0.046,0.78,0.095
25.48,-0.479,0.997,-0.147
25.49,-0.242,0.99,-0.06
25.5,-0.027,1.075,0.044
25.51,-0.136,0.926,0.114
25.52,-0.268,0.682,0.042
25.53,-0.299,1.341,-0.216
25.54,-0.159,0.812,-0.042
25.55,-0.211,1.037,0.17
25.56,-0.066,0.843,0.109
25.57,-0.456,0.933,-0.176
25.58,-0.217,1.036,-0.079
25.59,-0.062,1.015,0.045
25.6,-0.149,0.844,0.111
25.61,-0.213,0.798,-0.002
25.62,-0.367,1.295,-0.212
25.63,-0.137,0.753,-0.019
25.64,-0.177,1.172,0.17
25.65,-0.0,0.754,0.059
25.66,-0.517,1.024,-0.142
25.67,-0.208,1.074,-0.013
25.68,-0.114,1.069,0.043
25.69,-0.153,0.927,0.175
25.7,-0.251,0.697,0.047
25.71,-0.341,1.334,-0.225
25.72,-0.108,0.827,-0.083
25.73,-0.169,1.062,0.174
25.74,-0.065,0.803,0.114
25.75,-0.445,0.934,-0.183
25.76,-0.218,1.11,-0.018
25.77,-0.092,0.991,0.022
25.78,-0.139,1.002,0.1
25.79,-0.19,0.693,0.022
25.8,-0.365,1.308,-0.22
25.81,-0.095,0.871,-0.017
25.82,-0.224,1.038,0.178
25.83,-0.049,0.856,0.084
25.84,-0.451,0.897,-0.149
25.85,-0.217,1.134,-0.058
25.86,-0.084,0.918,0.072
25.87,-0.185,1.035,0.176
25.88,-0.227,0.729,-0.011
25.89,-0.407,1.229,-0.184
25.9,-0.174,0.896,-0.01
25.91,-0.167,0.95,0.174
25.92,-0.086,0.942,0.077
25.93,-0.418,0.822,-0.146
25.94,-0.224,1.181,-0.057
25.95,-0.059,0.939,0.02
25.96,-0.155,1.0,0.127
25.97,-0.178,0.757,0.006
25.98,-0.367,1.24,-0.182
25.99,-0.185,0.983,-0.028
26.0,-0.115,0.808,0.16
26.01,-0.145,1.049,0.14
26.02,-0.406,0.754,-0.156
26.03,-0.193,1.174,-0.118
26.04,-0.05,0.959,0.061
26.05,-0.122,0.933,0.138
26.06,-0.243,0.813,0.033
26.07,-0.338,1.131,-0.163
26.08,-0.172,1.082,-0.022
26.09,-0.164,0.791,0.151
26.1,-0.098,1.06,0.133
26.11,-0.299,0.736,-0.204
26.12,-0.296,1.194,-0.069
26.13,-0.09,1.011,0.063
26.14,-0.115,0.885,0.123
26.15,-0.26,0.854,0.014
26.16,-0.302,1.068,-0.177
26.17,-0.166,1.138,-0.073
26.18,-0.226,0.668,0.173
26.19,-0.121,1.093,0.16
26.2,-0.274,0.804,-0.171
26.21,-0.276,1.046,-0.131
26.22,-0.033,1.058,0.083
26.23,-0.13,0.877,0.146
26.24,-0.262,0.913,-0.0
26.25,-0.347,0.99,-0.139
26.26,-0.156,1.228,-0.039
26.27,-0.182,0.697,0.089
26.28,-0.116,1.054,0.167
26.29,-0.376,0.874,-0.171
26.3,-0.205,0.971,-0.173
26.31,-0.108,1.116,0.105
26.32,-0.073,0.801,0.077
26.33,-0.25,0.988,0.025
26.34,-0.352,0.961,-0.162
26.35,-0.197,1.215,-0.052
26.36,-0.175,0.669,0.113
26.37,-0.102,1.043,0.169
26.38,-0.405,0.907,-0.157
26.39,-0.202,0.958,-0.11
26.4,-0.125,1.202,0.04
26.41,-0.084,0.749,0.128
26.42,-0.215,0.947,-0.001
26.43,-0.38,1.0,-0.155
26.44,-0.185,1.202,-0.03
26.45,-0.204,0.67,0.158
26.46,-0.119,1.061,0.16
26.47,-0.372,0.875,-0.168
26.48,-0.222,0.966,-0.092
26.49,-0.052,1.154,0.067
26.5,-0.09,0.817,0.093
26.51,-0.272,0.985,0.015
26.52,-0.292,0.936,-0.131
26.53,-0.256,1.266,-0.039
26.54,-0.154,0.643,0.113
26.55,-0.104,1.047,0.143
26.56,-0.33,0.945,-0.186
26.57,-0.309,0.934,-0.112
26.58,-0.064,1.206,0.05
26.59,-0.015,0.714,0.089
26.6,-0.379,1.073,0.042
26.61,-0.25,0.908,-0.152
26.62,-0.146,1.176,-0.084
26.63,-0.243,0.783,0.153
26.64,-0.047,0.976,0.147
26.65,-0.356,0.984,-0.172
26.66,-0.302,0.822,-0.099
26.67,-0.075,1.252,0.079
26.68,-0.078,0.668,0.14
26.69,-0.327,1.056,0.032
26.7,-0.29,0.963,-0.177
26.71,-0.221,1.109,-0.036
26.72,-0.214,0.817,0.106
26.73,-0.033,0.891,0.163
26.74,-0.383,1.091,-0.169
26.75,-0.271,0.759,-0.085
26.76,-0.169,1.315,0.107
26.77,-0.042,0.686,0.106
26.78,-0.293,1.045,0.042
26.79,-0.333,0.968,-0.169
26.8,-0.146,1.073,-0.106
26.81,-0.183,0.867,0.076
26.82,-0.029,0.838,0.211
26.83,-0.358,1.119,-0.17
26.84,-0.315,0.718,-0.113
26.85,-0.09,1.354,0.12
26.86,-0.094,0.784,0.109
26.87,-0.236,0.933,0.029
26.88,-0.312,1.02,-0.149
26.89,-0.145,1.084,-0.132
26.9,-0.203,0.925,0.086
26.91,-0.069,0.761,0.185
26.92,-0.368,1.209,-0.139
26.93,-0.291,0.715,-0.176
26.94,-0.172,1.267,0.101
26.95,-0.093,0.796,0.12
26.96,-0.208,0.885,0.036
26.97,-0.315,1.056,-0.168
26.98,-0.122,0.991,-0.118
26.99,-0.194,1.017,0.051
27.0,-0.081,0.734,0.213
27.01,-0.391,1.211,-0.127
27.02,-0.31,0.724,-0.155
27.03,-0.088,1.253,0.11
27.04,-0.098,0.854,0.113
27.05,-0.214,0.847,0.027
27.06,-0.373,1.189,-0.172
27.07,-0.136,0.895,-0.1
27.08,-0.136,1.098,0.055
27.09,-0.156,0.7,0.211
27.1,-0.365,1.186,-0.104
27.11,-0.281,0.794,-0.181
27.12,-0.181,1.133,0.066
27.13,-0.018,1.034,0.116
27.14,-0.174,0.759,0.045
27.15,-0.42,1.13,-0.144
27.16,-0.136,0.892,-0.07
27.17,-0.149,1.172,0.044
27.18,-0.164,0.648,0.191
27.19,-0.299,1.166,-0.095
27.2,-0.286,0.876,-0.217
27.21,-0.161,0.964,0.08
27.22,-0.136,1.125,0.171
27.23,-0.2,0.804,0.017
27.24,-0.389,1.123,-0.2
27.25,0.018,0.995,-0.077
27.26,-0.283,1.131,0.057
27.27,-0.091,0.605,0.197
27.28,-0.336,1.217,-0.063
27.29,-0.401,0.791,-0.168
27.3,-0.271,0.791,0.018
27.31,-0.284,1.115,-0.208
27.32,-0.178,0.862,0.017
27.33,-0.126,1.134,0.161
27.34,-0.083,0.636,0.066
27.35,-0.55,1.186,-0.162
27.36,-0.05,0.916,-0.063
27.37,-0.17,1.133,0.045
27.38,-0.158,0.734,0.199
27.39,-0.258,0.906,-0.0
27.4,-0.317,1.204,-0.213
27.41,-0.124,0.762,-0.008
27.42,-0.108,1.202,0.165
27.43,-0.09,0.671,0.068
27.44,-0.468,1.133,-0.163
27.45,-0.132,1.001,-0.057
27.46,-0.112,1.057,0.031
27.47,-0.121,0.834,0.152
27.48,-0.269,0.815,0.029
27.49,-0.391,1.263,-0.225
27.5,-0.105,0.732,0.005
27.51,-0.137,1.221,0.181
27.52,-0.122,0.739,0.087
27.53,-0.47,1.005,-0.147
27.54,-0.13,1.032,-0.067
27.55,-0.077,1.048,0.102
27.56,-0.167,0.932,0.12
27.57,-0.249,0.731,0.006
27.58,-0.374,1.332,-0.174
27.59,-0.169,0.784,0.017
27.6,-0.212,1.058,0.175
27.61,-0.054,0.857,0.106
27.62,-0.484,0.998,-0.148
27.63,-0.263,1.036,-0.105
27.64,0.06,0.995,0.076
27.65,-0.184,1.048,0.118
27.66,-0.241,0.681,0.003
27.67,-0.312,1.299,-0.174
27.68,-0.219,0.872,0.001
27.69,-0.166,0.989,0.152
27.7,-0.091,0.905,0.09
27.71,-0.396,0.93,-0.152
27.72,-0.286,1.159,-0.096
27.73,0.002,0.894,0.05
27.74,-0.145,1.019,0.149
27.75,-0.274,0.721,0.034
27.76,-0.347,1.289,-0.194
27.77,-0.168,0.905,-0.056
27.78,-0.176,0.927,0.201
27.79,-0.033,0.932,0.091
27.8,-0.424,0.874,-0.173
27.81,-0.251,1.168,-0.098
27.82,-0.062,0.891,0.082
27.83,-0.123,1.031,0.142
27.84,-0.23,0.736,0.004
27.85,-0.37,1.21,-0.14
27.86,-0.145,1.025,-0.054
27.87,-0.24,0.854,0.156
27.88,-0.136,0.995,0.147
27.89,-0.312,0.824,-0.202
27.9,-0.297,1.173,-0.089
27.91,-0.103,0.915,0.085
27.92,-0.105,1.006,0.111
27.93,-0.221,0.762,0.026
27.94,-0.394,1.151,-0.14
27.95,-0.087,1.091,-0.092
27.96,-0.198,0.768,0.137
27.97,-0.098,1.039,0.158
27.98,-0.408,0.876,-0.195
27.99,-0.236,1.142,-0.095
28.0,-0.022,0.924,0.098
28.01,-0.14,1.077,0.129
28.02,-0.268,0.712,0.004
28.03,-0.282,1.195,-0.158
28.04,-0.147,1.05,-0.037
28.05,-0.201,0.827,0.13
28.06,-0.07,1.039,0.13
28.07,-0.358,0.795,-0.192
28.08,-0.297,1.179,-0.132
28.09,0.002,0.952,0.054
28.1,-0.137,0.948,0.092
28.11,-0.247,0.786,-0.012
28.12,-0.319,1.123,-0.135
28.13,-0.134,1.083,-0.05
28.14,-0.146,0.787,0.127
28.15,-0.15,1.068,0.156
28.16,-0.309,0.802,-0.184
28.17,-0.272,1.139,-0.105
28.18,-0.068,0.97,0.077
28.19,-0.064,0.939,0.122
28.2,-0.274,0.865,0.007
28.21,-0.351,1.022,-0.123
28.22,-0.128,1.153,-0.063
28.23,-0.212,0.707,0.121
28.24,-0.076,1.071,0.139
28.25,-0.327,0.847,-0.163
28.26,-0.271,1.066,-0.124
28.27,-0.114,1.042,0.071
28.28,-0.041,0.884,0.123
28.29,-0.28,0.929,0.026
28.3,-0.386,0.936,-0.109
28.31,-0.166,1.224,-0.04
28.32,-0.189,0.712,0.073
28.33,-0.111,1.048,0.193
28.34,-0.271,0.854,-0.152
28.35,-0.371,1.069,-0.104
28.36,-0.017,1.061,0.019
28.37,-0.051,0.856,0.125
28.38,-0.289,1.013,0.001
28.39,-0.312,0.887,-0.158
28.4,-0.16,1.227,-0.071
28.41,-0.179,0.727,0.087
28.42,-0.154,0.993,0.175
28.43,-0.312,0.958,-0.114
28.44,-0.285,0.942,-0.149
28.45,-0.137,1.13,0.068
28.46,-0.025,0.804,0.144
28.47,-0.237,1.04,-0.007
28.48,-0.323,0.874,-0.122
28.49,-0.201,1.248,-0.078
28.5,-0.187,0.775,0.113
28.51,-0.148,0.927,0.191
28.52,-0.271,0.982,-0.156
28.53,-0.294,0.881,-0.118
28.54,-0.202,1.159,0.002
28.55,0.035,0.759,0.134
28.56,-0.225,1.032,0.015
28.57,-0.369,0.844,-0.146
28.58,-0.088,1.198,-0.069
28.59,-0.185,0.868,0.073
28.6,-0.195,0.829,0.207
28.61,-0.209,1.096,-0.118
28.62,-0.318,0.868,-0.167
28.63,-0.216,1.194,0.057
28.64,-0.011,0.788,0.154
28.65,-0.204,1.027,0.072
28.66,-0.386,0.878,-0.153
28.67,-0.094,1.156,-0.109
28.68,-0.284,0.938,0.103
28.69,-0.09,0.746,0.2
28.7,-0.338,1.149,-0.039
28.71,-0.299,0.77,-0.182
28.72,-0.187,1.238,0.029
28.73,-0.099,0.769,0.18
28.74,-0.175,0.978,0.091
28.75,-0.333,0.912,-0.173
28.76,-0.132,1.044,-0.044
28.77,-0.24,1.09,0.098
28.78,-0.055,0.651,0.143
28.79,-0.39,1.09,-0.055
28.8,-0.3,0.845,-0.148
28.81,-0.217,1.157,0.001
28.82,-0.048,0.786,0.175
28.83,-0.101,1.062,0.036
28.84,-0.393,0.805,-0.182
28.85,-0.236,1.104,-0.004
28.86,-0.039,1.062,0.027
28.87,-0.132,0.723,0.161
28.88,-0.383,1.13,0.013
28.89,-0.185,0.901,-0.194
28.9,-0.212,1.194,-0.051
28.91,-0.139,0.765,0.171
28.92,-0.069,1.004,0.068
28.93,-0.398,0.899,-0.183
28.94,-0.221,1.016,-0.021
28.95,-0.122,1.15,0.017
28.96,-0.104,0.653,0.162
28.97,-0.31,1.096,-0.005
28.98,-0.311,0.918,-0.172
28.99,-0.194,1.181,-0.032
29.0,-0.126,0.803,0.119
29.01,-0.114,0.965,0.157
29.02,-0.294,1.022,-0.184
29.03,-0.244,0.882,-0.116
29.04,-0.151,1.19,0.048
29.05,-0.053,0.738,0.149
29.06,-0.299,1.081,0.009
29.07,-0.314,0.869,-0.188
29.08,-0.168,1.141,-0.076
29.09,-0.107,0.842,0.094
29.1,-0.191,0.881,0.185
29.11,-0.335,1.074,-0.132
29.12,-0.23,0.797,-0.142
29.13,-0.174,1.259,0.083
29.14,-0.052,0.724,0.142
29.15,-0.231,1.034,0.004
29.16,-0.39,0.885,-0.137
29.17,-0.109,1.104,-0.092
29.18,-0.137,0.918,0.088
29.19,-0.226,0.769,0.201
29.2,-0.328,1.151,-0.101
29.21,-0.242,0.815,-0.177
29.22,-0.236,1.251,0.076
29.23,-0.015,0.76,0.142
29.24,-0.166,0.978,0.011
29.25,-0.402,0.945,-0.153
29.26,-0.083,1.032,-0.115
29.27,-0.13,1.049,0.068
29.28,-0.128,0.703,0.14
29.29,-0.342,1.168,-0.061
29.3,-0.274,0.811,-0.152
29.31,-0.176,1.22,0.065
29.32,-0.139,0.839,0.157
29.33,-0.119,0.937,0.075
29.34,-0.387,1.015,-0.196
29.35,-0.171,0.905,-0.054
29.36,-0.081,1.186,0.025
29.37,-0.087,0.645,0.138
29.38,-0.4,1.126,-0.013
29.39,-0.316,0.909,-0.153
29.4,-0.144,1.148,-0.001
29.41,-0.19,0.841,0.152
29.42,-0.09,0.861,0.064
29.43,-0.393,1.115,-0.173
29.44,-0.247,0.844,-0.087
29.45,-0.088,1.228,0.086
29.46,-0.097,0.639,0.131
29.47,-0.318,1.087,-0.018
29.48,-0.31,0.945,-0.149
29.49,-0.185,1.057,0.027
29.5,-0.193,0.87,0.127
29.51,-0.104,0.8,0.107
29.52,-0.395,1.161,-0.207
29.53,-0.229,0.785,-0.066
29.54,-0.108,1.312,0.094
29.55,-0.009,0.672,0.142
29.56,-0.364,1.009,0.0
29.57,-0.246,0.995,-0.183
29.58,-0.139,0.998,-0.022
29.59,-0.213,0.979,0.114
29.6,-0.1,0.776,0.148
29.61,-0.395,1.097,-0.188
29.62,-0.273,0.802,-0.077
29.63,-0.103,1.28,0.086
29.64,-0.035,0.652,0.146
29.65,-0.391,1.046,0.021
29.66,-0.281,0.952,-0.129
29.67,-0.166,1.106,-0.048
29.68,-0.184,0.881,0.089
29.69,-0.07,0.823,0.152
29.7,-0.324,1.186,-0.224
29.71,-0.324,0.754,-0.072
29.72,-0.103,1.297,0.079
29.73,-0.011,0.726,0.139
29.74,-0.353,0.99,0.001
29.75,-0.333,0.995,-0.142
29.76,-0.106,1.054,-0.077
29.77,-0.208,0.926,0.082
29.78,-0.073,0.697,0.14
29.79,-0.398,1.25,-0.137
29.8,-0.241,0.73,-0.159
29.81,-0.162,1.248,0.092
29.82,-0.079,0.792,0.154
29.83,-0.243,0.914,-0.005
29.84,-0.368,1.018,-0.163
29.85,-0.093,1.003,-0.004
29.86,-0.193,1.087,0.079
29.87,-0.138,0.649,0.151
29.88,-0.339,1.237,-0.095
29.89,-0.274,0.855,-0.164
29.9,-0.22,1.136,0.098
29.91,-0.022,0.881,0.145
29.92,-0.246,0.846,-0.011
29.93,-0.437,1.067,-0.154
29.94,-0.03,0.923,-0.053
29.95,-0.246,1.133,0.08
29.96,-0.147,0.639,0.185
29.97,-0.295,1.235,-0.113
29.98,-0.3,0.807,-0.156
29.99,-0.235,1.084,0.096
30.0,0.035,0.99,0.126
30.01,-0.237,0.769,0.016
30.02,-0.44,1.1,-0.176
30.03,0.001,0.897,-0.054
30.04,-0.261,1.189,0.096
30.05,-0.118,0.629,0.16
30.06,-0.276,1.19,-0.073
30.07,-0.326,0.926,-0.183
30.08,-0.226,0.991,0.081
30.09,0.054,1.079,0.133
30.1,-0.243,0.717,0.017
30.11,-0.458,1.163,-0.158
30.12,-0.014,0.908,-0.069
30.13,-0.22,1.169,0.093
30.14,-0.197,0.671,0.19
30.15,-0.253,1.075,-0.122
30.16,-0.258,0.994,-0.209
30.17,-0.194,0.969,0.092
30.18,-0.06,1.126,0.142
30.19,-0.092,0.652,-0.004
30.2,-0.407,1.237,-0.155
30.21,-0.129,0.922,-0.023
30.22,-0.167,1.124,0.058
30.23,-0.155,0.755,0.18
30.24,-0.28,0.965,-0.054
30.25,-0.335,1.086,-0.204
30.26,-0.104,0.857,0.026
30.27,-0.123,1.184,0.157
30.28,-0.081,0.651,0.052
30.29,-0.497,1.168,-0.159
30.3,-0.097,0.95,-0.038
30.31,-0.148,1.113,0.039
30.32,-0.149,0.776,0.149
30.33,-0.277,0.914,-0.044
30.34,-0.325,1.194,-0.194
30.35,-0.154,0.823,0.045
30.36,-0.131,1.182,0.142
30.37,-0.071,0.647,0.024
30.38,-0.468,1.108,-0.203
30.39,-0.031,0.998,-0.098
30.4,-0.134,1.05,0.081
30.41,-0.185,0.846,0.139
30.42,-0.183,0.833,-0.04
30.43,-0.346,1.052,-0.179
30.44,-0.199,0.926,0.099
30.45,-0.146,1.188,0.116
30.46,-0.094,0.62,0.031
30.47,-0.474,1.189,-0.125
30.48,-0.076,0.944,-0.062
30.49,-0.225,1.054,0.077
30.5,-0.132,0.804,0.204
30.51,-0.309,0.904,-0.06
30.52,-0.309,1.146,-0.185
30.53,-0.2,0.859,0.028
30.54,-0.081,1.175,0.123
30.55,-0.117,0.626,0.082
30.56,-0.448,1.163,-0.155
30.57,-0.026,1.014,-0.132
30.58,-0.18,0.989,0.072
30.59,-0.128,0.842,0.177
30.6,-0.289,0.876,-0.081
30.61,-0.404,1.227,-0.145
30.62,-0.161,0.772,0.0
30.63,-0.122,1.185,0.17
30.64,-0.156,0.697,0.094
30.65,-0.486,1.017,-0.145
30.66,-0.037,1.094,-0.09
30.67,-0.197,0.977,0.052
30.68,-0.134,0.92,0.17
30.69,-0.168,0.789,0.013
30.7,-0.409,1.274,-0.218
30.71,-0.095,0.77,-0.033
30.72,-0.183,1.164,0.191
30.73,-0.126,0.75,0.078
30.74,-0.411,0.969,-0.15
30.75,-0.146,1.197,-0.079
30.76,-0.057,0.955,0.038
30.77,-0.18,0.964,0.123
30.78,-0.219,0.71,0.054
30.79,-0.357,1.298,-0.213
30.8,-0.126,0.866,-0.043
30.81,-0.224,1.048,0.16
30.82,-0.099,0.883,0.099
30.83,-0.452,0.855,-0.161
30.84,-0.162,1.205,-0.094
30.85,-0.099,0.893,0.089
30.86,-0.157,1.019,0.16
30.87,-0.199,0.741,0.008
30.88,-0.471,1.242,-0.16
30.89,-0.066,0.884,-0.044
30.9,-0.195,0.983,0.134
30.91,-0.153,0.972,0.153
30.92,-0.326,0.825,-0.124
30.93,-0.288,1.164,-0.088
30.94,-0.051,0.903,0.013
30.95,-0.115,1.085,0.146
30.96,-0.178,0.71,0.026
30.97,-0.384,1.137,-0.201
30.98,-0.144,1.072,-0.049
30.99,-0.13,0.872,0.083
31.0,-0.166,0.976,0.103
31.01,-0.282,0.817,-0.092
31.02,-0.295,1.187,-0.136
31.03,-0.128,0.852,0.072
31.04,-0.072,1.073,0.154
31.05,-0.168,0.798,0.023
31.06,-0.447,1.016,-0.121
31.07,-0.13,1.126,-0.066
31.08,-0.096,0.855,0.071
31.09,-0.192,1.033,0.16
31.1,-0.258,0.791,-0.123
31.11,-0.325,1.162,-0.172
31.12,-0.177,0.904,0.111
31.13,-0.104,1.038,0.129
31.14,-0.187,0.831,0.036
31.15,-0.446,0.952,-0.138
31.16,-0.136,1.178,-0.098
31.17,-0.138,0.781,0.096
31.18,-0.168,1.009,0.146
31.19,-0.263,0.839,-0.076
31.2,-0.334,1.145,-0.126
31.21,-0.145,0.931,0.009
31.22,-0.108,0.962,0.164
31.23,-0.125,0.936,0.071
31.24,-0.435,1.096,-0.169
31.25,-0.156,1.121,-0.092
31.26,-0.119,0.837,0.067
31.27,-0.167,0.981,0.2
31.28,-0.297,0.766,-0.104
31.29,-0.298,1.179,-0.124
31.3,-0.115,0.933,-0.007
31.31,-0.102,0.994,0.135
31.32,-0.097,0.84,0.067
31.33,-0.394,0.996,-0.172
31.34,-0.218,1.217,-0.068
31.35,-0.058,0.816,0.079
31.36,-0.171,1.036,0.155
31.37,-0.252,0.806,-0.05
31.38,-0.363,1.209,-0.16
31.39,-0.161,0.945,-0.01
31.4,-0.166,0.945,0.219
31.41,-0.147,0.906,0.047
31.42,-0.417,0.793,-0.186
31.43,-0.159,1.248,-0.041
31.44,-0.118,0.875,0.109
31.45,-0.211,0.98,0.158
31.46,-0.205,0.843,-0.015
31.47,-0.283,1.15,-0.19
31.48,-0.172,0.995,-0.012
31.49,-0.171,0.881,0.165
31.5,-0.176,1.052,0.065
31.51,-0.294,0.783,-0.197
31.52,-0.244,1.238,-0.055
31.53,-0.059,0.899,0.049
31.54,-0.154,0.93,0.175
31.55,-0.234,0.833,-0.008
31.56,-0.291,1.105,-0.194
31.57,-0.122,1.034,-0.074
31.58,-0.118,0.757,0.169
31.59,-0.136,1.059,0.092
31.6,-0.385,0.831,-0.167
31.61,-0.219,1.22,-0.091
31.62,-0.144,0.954,0.029
31.63,-0.073,0.875,0.153
31.64,-0.171,0.929,-0.033
31.65,-0.395,1.006,-0.161
31.66,-0.144,1.081,-0.019
31.67,-0.078,0.802,0.12
31.68,-0.218,1.057,0.139
31.69,-0.311,0.801,-0.155
31.7,-0.249,1.167,-0.088
31.71,-0.211,0.98,0.047
31.72,-0.029,0.839,0.176
31.73,-0.255,1.004,-0.034
31.74,-0.441,0.944,-0.154
31.75,-0.168,1.171,-0.054
31.76,-0.059,0.724,0.12
31.77,-0.18,1.076,0.128
31.78,-0.309,0.848,-0.184
31.79,-0.2,1.015,-0.114
31.8,-0.185,1.114,0.095
31.81,-0.144,0.793,0.158
31.82,-0.199,1.008,0.014
31.83,-0.376,0.939,-0.151
31.84,-0.192,1.202,-0.066
31.85,-0.036,0.733,0.09
31.86,-0.135,1.011,0.157
31.87,-0.36,0.901,-0.118
31.88,-0.233,0.995,-0.105
31.89,-0.171,1.182,0.07
31.9,-0.054,0.747,0.128
31.91,-0.241,1.061,0.023
31.92,-0.33,0.907,-0.148
31.93,-0.244,1.206,-0.076
31.94,-0.149,0.751,0.094
31.95,-0.019,0.959,0.118
31.96,-0.403,1.007,-0.152
31.97,-0.269,0.857,-0.108
31.98,-0.169,1.207,0.05
31.99,-0.072,0.692,0.156
32.0,-0.253,1.09,0.019
32.01,-0.329,0.86,-0.185
32.02,-0.171,1.14,-0.093
32.03,-0.179,0.826,0.114
32.04,-0.023,0.895,0.164
32.05,-0.393,1.04,-0.119
32.06,-0.204,0.896,-0.089
32.07,-0.134,1.213,0.072
32.08,-0.123,0.774,0.156
32.09,-0.166,1.034,0.021
32.1,-0.352,0.902,-0.16
32.11,-0.202,1.235,-0.071
32.12,-0.084,0.776,0.074
32.13,-0.133,0.944,0.16
32.14,-0.358,1.02,-0.123
32.15,-0.278,0.844,-0.149
32.16,-0.159,1.218,0.049
32.17,0.01,0.786,0.118
32.18,-0.29,1.024,-0.002
32.19,-0.321,0.853,-0.145
32.2,-0.135,1.222,-0.088
32.21,-0.146,0.8,0.077
32.22,-0.096,0.869,0.162
32.23,-0.331,1.104,-0.13
32.24,-0.34,0.796,-0.132
32.25,-0.072,1.225,0.007
32.26,-0.049,0.794,0.153
32.27,-0.252,0.996,0.058
32.28,-0.431,0.854,-0.16
32.29,-0.092,1.107,-0.087
32.3,-0.157,0.978,0.1
32.31,-0.182,0.759,0.189
32.32,-0.305,1.144,-0.108
32.33,-0.28,0.794,-0.123
32.34,-0.198,1.259,0.053
32.35,-0.07,0.786,0.126
32.36,-0.119,0.973,0.024
32.37,-0.396,0.936,-0.16
32.38,-0.143,1.029,-0.063
32.39,-0.147,1.052,0.018
32.4,-0.128,0.638,0.168
32.41,-0.325,1.179,-0.082
32.42,-0.267,0.824,-0.136
32.43,-0.152,1.19,-0.002
32.44,-0.124,0.8,0.179
32.45,-0.148,0.937,0.069
32.46,-0.428,0.999,-0.178
32.47,-0.117,0.931,-0.053
32.48,-0.127,1.156,0.048
32.49,-0.093,0.61,0.128
32.5,-0.387,1.169,-0.01
32.51,-0.222,0.851,-0.218
32.52,-0.219,1.167,0.005
32.53,-0.089,0.883,0.154
32.54,-0.104,0.835,0.047
32.55,-0.429,1.053,-0.192
32.56,-0.129,0.925,-0.054
32.57,-0.126,1.208,0.053
32.58,-0.166,0.603,0.206
32.59,-0.262,1.183,-0.055
32.6,-0.259,0.889,-0.208
32.61,-0.288,1.026,0.035
32.62,-0.086,0.979,0.154
32.63,-0.107,0.831,0.093
32.64,-0.469,1.117,-0.154
32.65,-0.188,0.799,-0.106
32.66,-0.119,1.3,0.077
32.67,-0.118,0.629,0.181
32.68,-0.349,1.023,-0.023
32.69,-0.194,0.964,-0.153
32.7,-0.16,1.061,-0.031
32.71,-0.195,0.942,0.119
32.72,-0.077,0.772,0.136
32.73,-0.411,1.203,-0.184
32.74,-0.251,0.783,-0.057
32.75,-0.115,1.324,0.093
32.76,-0.087,0.702,0.114
32.77,-0.325,0.957,0.01
32.78,-0.276,1.042,-0.138
32.79,-0.116,0.99,-0.035
32.8,-0.204,1.042,0.116
32.81,-0.115,0.683,0.168
32.82,-0.415,1.228,-0.17
32.83,-0.216,0.779,-0.16
32.84,-0.077,1.236,0.111
32.85,-0.116,0.792,0.145
32.86,-0.298,0.882,-0.03
32.87,-0.215,1.001,-0.177
32.88,-0.161,1.004,-0.042
32.89,-0.197,0.95,0.145
32.9,-0.021,0.755,0.108
32.91,-0.472,1.178,-0.194
32.92,-0.247,0.759,-0.054
32.93,-0.109,1.358,0.096
32.94,-0.095,0.672,0.108
32.95,-0.314,0.963,-0.009
32.96,-0.268,1.081,-0.166
32.97,-0.134,0.931,-0.004
32.98,-0.24,1.063,0.133
32.99,-0.101,0.744,0.138
33.0,-0.418,1.2,-0.175
33.01,-0.272,0.819,-0.071
33.02,-0.144,1.243,0.06
33.03,-0.033,0.777,0.119
33.04,-0.27,0.899,-0.028
33.05,-0.464,1.092,-0.107
33.06,-0.055,0.891,0.013
33.07,-0.191,1.188,0.058
33.08,-0.151,0.656,0.18
33.09,-0.382,1.169,-0.164
33.1,-0.149,0.833,-0.159
33.11,-0.163,1.193,0.096
33.12,-0.1,0.84,0.152
33.13,-0.206,0.803,0.016
33.14,-0.514,1.242,-0.146
33.15,-0.061,0.816,-0.064
33.16,-0.18,1.179,0.133
33.17,-0.108,0.679,0.117
33.18,-0.404,1.114,-0.161
33.19,-0.161,0.89,-0.138
33.2,-0.172,1.119,0.087
33.21,-0.082,0.927,0.147
33.22,-0.208,0.742,0.046
33.23,-0.444,1.265,-0.177
33.24,-0.055,0.863,-0.064
33.25,-0.185,1.126,0.1
33.26,-0.093,0.748,0.161
33.27,-0.406,1.072,-0.142
33.28,-0.19,0.954,-0.149
33.29,-0.11,1.029,0.059
33.3,-0.116,1.052,0.141
33.31,-0.255,0.653,0.046
33.32,-0.429,1.243,-0.182
33.33,-0.072,0.888,-0.079
33.34,-0.196,1.11,0.071
33.35,-0.065,0.769,0.14
33.36,-0.328,1.038,-0.124
33.37,-0.288,1.06,-0.14
33.38,-0.101,0.901,0.07
33.39,-0.028,1.152,0.141
33.4,-0.24,0.657,0.055
33.41,-0.452,1.173,-0.185
33.42,-0.073,0.955,-0.023
33.43,-0.194,1.056,0.075
33.44,-0.131,0.795,0.163
33.45,-0.305,0.97,-0.114
33.46,-0.284,1.118,-0.172
33.47,-0.142,0.848,0.1
33.48,-0.037,1.172,0.129
33.49,-0.195,0.649,0.029
33.5,-0.473,1.17,-0.146
33.51,-0.062,0.987,-0.084
33.52,-0.208,0.943,0.085
33.53,-0.183,0.899,0.209
33.54,-0.26,0.895,-0.145
33.55,-0.337,1.153,-0.143
33.56,-0.118,0.853,0.122
33.57,-0.084,1.163,0.11
33.58,-0.144,0.678,0.01
33.59,-0.504,1.115,-0.151
33.6,-0.004,1.039,-0.097
33.61,-0.183,0.92,0.051
33.62,-0.208,0.959,0.185
33.63,-0.259,0.823,-0.152
33.64,-0.266,1.198,-0.132
33.65,-0.217,0.91,0.118
33.66,-0.052,1.06,0.127
33.67,-0.176,0.746,0.025
33.68,-0.455,1.083,-0.164
33.69,-0.058,0.945,-0.089
33.7,-0.171,0.927,0.076
33.71,-0.143,0.918,0.196
33.72,-0.289,0.887,-0.163
33.73,-0.3,1.138,-0.126
33.74,-0.163,0.89,0.109
33.75,-0.074,1.101,0.123
33.76,-0.172,0.656,0.004
33.77,-0.391,1.187,-0.156
33.78,-0.065,1.065,-0.106
33.79,-0.204,0.816,0.081
33.8,-0.046,0.98,0.194
33.81,-0.319,0.861,-0.168
33.82,-0.29,1.144,-0.111
33.83,-0.162,0.905,0.117
33.84,-0.047,1.089,0.133
33.85,-0.255,0.761,0.007
33.86,-0.398,1.04,-0.127
33.87,-0.04,1.17,-0.114
33.88,-0.251,0.757,0.065
33.89,-0.146,1.021,0.204
33.9,-0.26,0.864,-0.15
33.91,-0.381,1.106,-0.118
33.92,-0.126,0.916,0.142
33.93,-0.077,1.073,0.102
33.94,-0.291,0.789,0.018
33.95,-0.363,1.019,-0.125
33.96,-0.094,1.234,-0.136
33.97,-0.185,0.675,0.058
33.98,-0.094,1.073,0.202
33.99,-0.291,0.861,-0.164
34.0,-0.372,1.054,-0.12
34.01,-0.067,0.984,0.105
34.02,-0.112,1.004,0.146
34.03,-0.325,0.874,0.049
34.04,-0.387,0.911,-0.09
34.05,-0.15,1.274,-0.076
34.06,-0.214,0.718,0.068
34.07,-0.062,1.015,0.163
34.08,-0.257,0.854,-0.132
34.09,-0.361,1.05,-0.153
34.1,-0.04,1.053,0.043
34.11,-0.032,0.883,0.132
34.12,-0.339,0.979,0.039
34.13,-0.305,0.895,-0.171
34.14,-0.194,1.222,-0.085
34.15,-0.161,0.742,0.114
34.16,-0.139,1.062,0.182
34.17,-0.262,0.875,-0.195
34.18,-0.348,0.931,-0.121
34.19,-0.063,1.135,0.035
34.2,-0.102,0.839,0.119
34.21,-0.19,1.01,0.044
34.22,-0.353,0.841,-0.159
34.23,-0.167,1.213,-0.075
34.24,-0.141,0.801,0.1
34.25,-0.096,0.926,0.118
34.26,-0.331,0.996,-0.12
34.27,-0.288,0.906,-0.152
34.28,-0.14,1.178,0.032
34.29,-0.073,0.816,0.191
34.3,-0.238,1.02,0.029
34.31,-0.281,0.817,-0.235
34.32,-0.181,1.226,0.003
34.33,-0.156,0.855,0.104
34.34,-0.176,0.821,0.134
34.35,-0.329,1.083,-0.065
34.36,-0.254,0.882,-0.164
34.37,-0.158,1.174,0.008
34.38,-0.074,0.784,0.179
34.39,-0.188,1.055,0.062
34.4,-0.349,0.833,-0.173
34.41,-0.165,1.151,-0.064
34.42,-0.164,0.942,0.062
34.43,-0.099,0.733,0.161
34.44,-0.343,1.131,-0.059
34.45,-0.283,0.818,-0.156
34.46,-0.174,1.194,0.024
34.47,-0.076,0.799,0.189
34.48,-0.192,1.031,0.072
34.49,-0.373,0.949,-0.178
34.5,-0.17,1.146,-0.063
34.51,-0.123,0.872,0.085
34.52,-0.12,0.872,0.165
34.53,-0.331,1.043,-0.12
34.54,-0.246,0.812,-0.137
34.55,-0.206,1.22,0.059
34.56,-0.035,0.759,0.142
34.57,-0.196,1.028,0.046
34.58,-0.356,0.892,-0.171
34.59,-0.177,1.152,-0.082
34.6,-0.147,0.885,0.029
34.61,-0.057,0.786,0.161
34.62,-0.409,1.157,-0.073
34.63,-0.233,0.779,-0.164
34.64,-0.176,1.236,-0.008
34.65,-0.112,0.771,0.173
34.66,-0.193,0.978,0.072
34.67,-0.297,0.91,-0.193
34.68,-0.177,1.132,-0.079
34.69,-0.127,0.997,0.04
34.7,-0.057,0.662,0.171
34.71,-0.368,1.14,-0.045
34.72,-0.259,0.84,-0.193
34.73,-0.106,1.18,0.014
34.74,-0.141,0.85,0.178
34.75,-0.173,0.968,0.088
34.76,-0.357,0.962,-0.18
34.77,-0.134,0.948,-0.061
34.78,-0.175,1.173,0.086
34.79,-0.091,0.639,0.116
34.8,-0.368,1.147,-0.015
34.81,-0.312,0.869,-0.196
34.82,-0.087,1.128,0.01
34.83,-0.175,0.795,0.18
34.84,-0.132,0.918,0.07
34.85,-0.343,1.035,-0.201
34.86,-0.245,0.876,0.009
34.87,-0.076,1.228,0.041
34.88,-0.066,0.632,0.141
34.89,-0.332,1.144,-0.005
34.9,-0.303,0.89,-0.181
34.91,-0.191,1.098,-0.039
34.92,-0.113,0.926,0.157
34.93,-0.088,0.838,0.05
34.94,-0.387,1.153,-0.173
34.95,-0.26,0.864,-0.056
34.96,-0.085,1.248,0.049
34.97,-0.073,0.635,0.183
34.98,-0.404,1.091,0.013
34.99,-0.282,0.914,-0.215
35.0,-0.179,0.98,-0.022
35.01,-0.143,0.986,0.124
35.02,-0.104,0.788,0.093
35.03,-0.384,1.137,-0.197
35.04,-0.239,0.837,0.006
35.05,-0.164,1.31,0.075
35.06,-0.094,0.638,0.141
35.07,-0.303,0.992,0.006
35.08,-0.336,1.002,-0.201
35.09,-0.105,0.927,-0.028
35.1,-0.194,1.116,0.132
35.11,-0.063,0.742,0.107
35.12,-0.427,1.159,-0.16
35.13,-0.224,0.795,-0.095
35.14,-0.148,1.329,0.071
35.15,-0.08,0.712,0.137
35.16,-0.266,0.908,0.034
35.17,-0.322,1.142,-0.2
35.18,-0.111,0.892,-0.036
35.19,-0.201,1.085,0.124
35.2,-0.156,0.708,0.142
35.21,-0.373,1.141,-0.178
35.22,-0.188,0.77,-0.122
35.23,-0.135,1.257,0.096
35.24,-0.134,0.825,0.146
35.25,-0.236,0.808,0.059
35.26,-0.373,1.211,-0.165
35.27,-0.115,0.838,-0.063
35.28,-0.211,1.087,0.123
35.29,-0.135,0.702,0.128
35.3,-0.39,1.157,-0.163
35.31,-0.174,0.829,-0.148
35.32,-0.131,1.279,0.068
35.33,-0.129,0.726,0.17
35.34,-0.194,0.906,-0.019
35.35,-0.368,1.133,-0.152
35.36,-0.148,0.895,-0.025
35.37,-0.113,1.071,0.107
35.38,-0.129,0.732,0.163
35.39,-0.479,1.175,-0.168
35.4,-0.136,0.75,-0.123
35.41,-0.22,1.275,0.107
35.42,-0.156,0.788,0.156
35.43,-0.18,0.844,0.012
35.44,-0.423,1.233,-0.158
35.45,-0.175,0.836,-0.032
35.46,-0.125,1.111,0.1
35.47,-0.078,0.72,0.154
35.48,-0.455,1.13,-0.162
35.49,-0.171,0.876,-0.175
35.5,-0.113,1.19,0.043
35.51,-0.109,0.865,0.155
35.52,-0.17,0.761,0.022
35.53,-0.431,1.28,-0.18
35.54,-0.169,0.781,-0.053
35.55,-0.149,1.133,0.083
35.56,-0.127,0.727,0.128
35.57,-0.385,1.042,-0.095
35.58,-0.171,0.932,-0.129
35.59,-0.199,1.049,0.083
35.6,-0.122,0.97,0.129
35.61,-0.113,0.667,0.024
35.62,-0.474,1.323,-0.179
35.63,-0.107,0.856,-0.068
35.64,-0.419,1.175,-0.202
35.65,-0.213,0.96,-0.038
35.66,-0.083,0.997,0.105
35.67,-0.148,0.909,0.147
35.68,-0.354,0.766,-0.05
35.69,-0.246,1.254,-0.177
35.7,-0.144,0.866,0.035
35.71,-0.246,1.144,0.226
35.72,-0.042,0.729,0.039
35.73,-0.401,1.092,-0.177
35.74,-0.278,1.058,0.003
35.75,-0.067,0.9,0.047
35.76,-0.157,0.981,0.101
35.77,-0.335,0.792,-0.011
35.78,-0.317,1.213,-0.186
35.79,-0.134,0.886,0.027
35.8,-0.159,1.098,0.191
35.81,-0.049,0.794,0.066
35.82,-0.458,0.995,-0.181
35.83,-0.209,1.14,-0.063
35.84,-0.049,0.861,0.068
35.85,-0.15,1.021,0.118
35.86,-0.264,0.794,-0.056
35.87,-0.288,1.197,-0.185
35.88,-0.151,0.893,0.003
35.89,-0.123,0.979,0.171
35.9,-0.062,0.893,0.062
35.91,-0.425,0.891,-0.184
35.92,-0.155,1.176,-0.077
35.93,-0.088,0.845,0.096
35.94,-0.169,1.026,0.144
35.95,-0.295,0.8,-0.033
35.96,-0.304,1.168,-0.221
35.97,-0.078,0.963,-0.004
35.98,-0.164,0.962,0.169
35.99,-0.115,0.945,0.122
36.0,-0.347,0.896,-0.189
36.01,-0.31,1.204,-0.059
36.02,-0.071,0.847,0.103
36.03,-0.17,0.991,0.155
36.04,-0.264,0.777,-0.039
36.05,-0.288,1.17,-0.166
36.06,-0.094,0.895,-0.022
36.07,-0.128,1.001,0.169
36.08,-0.07,0.84,0.068
36.09,-0.399,0.913,-0.182
36.1,-0.223,1.204,-0.038
36.11,-0.13,0.857,0.094
36.12,-0.125,1.052,0.121
36.13,-0.282,0.785,-0.043
36.14,-0.324,1.174,-0.18
36.15,-0.088,0.904,-0.039
36.16,-0.119,0.969,0.16
36.17,-0.119,0.944,0.101
36.18,-0.393,0.858,-0.124
36.19,-0.278,1.223,-0.055
36.2,-0.082,0.838,0.068
36.21,-0.107,1.013,0.165
36.22,-0.346,0.809,-0.023
36.23,-0.267,1.12,-0.171
36.24,-0.126,0.986,-0.052
36.25,-0.175,0.853,0.169
36.26,-0.125,1.026,0.133
36.27,-0.33,0.839,-0.178
36.28,-0.366,1.173,-0.096
36.29,-0.048,0.908,0.114
36.3,-0.094,1.011,0.111
36.31,-0.3,0.818,0.013
36.32,-0.31,1.106,-0.137
36.33,-0.094,1.097,-0.097
36.34,-0.159,0.759,0.184
36.35,-0.137,1.053,0.152
36.36,-0.327,0.821,-0.177
36.37,-0.271,1.123,-0.13
36.38,-0.081,0.951,0.088
36.39,-0.15,0.935,0.183
36.4,-0.281,0.856,-0.005
36.41,-0.381,0.979,-0.109
36.42,-0.09,1.15,-0.056
36.43,-0.199,0.73,0.134
36.44,-0.11,1.088,0.145
36.45,-0.301,0.844,-0.185
36.46,-0.325,1.079,-0.101
36.47,-0.087,1.031,0.081
36.48,-0.084,0.92,0.135
36.49,-0.265,0.938,0.027
36.5,-0.437,0.933,-0.105
36.51,-0.117,1.204,-0.061
36.52,-0.218,0.721,0.068
36.53,-0.16,1.017,0.192
36.54,-0.249,0.897,-0.13
36.55,-0.291,1.038,-0.168
36.56,-0.193,1.057,0.061
36.57,0.047,0.859,0.104
36.58,-0.214,0.996,0.047
36.59,-0.477,0.897,-0.181
36.6,-0.008,1.246,-0.075
36.61,-0.169,0.788,0.079
36.62,-0.228,0.955,0.208
36.63,-0.201,0.947,-0.113
36.64,-0.341,0.994,-0.141
36.65,-0.221,1.075,0.036
36.66,-0.061,0.854,0.176
36.67,-0.203,1.026,0.036
36.68,-0.385,0.813,-0.178
36.69,-0.099,1.208,-0.074
36.7,-0.082,0.849,0.044
36.71,-0.201,0.882,0.182
36.72,-0.269,0.986,-0.06
36.73,-0.252,0.93,-0.197
36.74,-0.182,1.126,0.021
36.75,-0.098,0.813,0.205
36.76,-0.152,1.048,0.05
36.77,-0.41,0.773,-0.15
36.78,-0.208,1.148,-0.059
36.79,-0.073,0.969,0.057
36.8,-0.177,0.809,0.162
36.81,-0.234,1.025,-0.032
36.82,-0.308,0.968,-0.161
36.83,-0.158,1.121,-0.012
36.84,-0.106,0.729,0.139
36.85,-0.206,1.083,0.106
36.86,-0.363,0.807,-0.181
36.87,-0.256,1.054,-0.054
36.88,-0.064,0.941,0.096
36.89,-0.198,0.896,0.172
36.9,-0.256,0.911,-0.033
36.91,-0.335,1.033,-0.161
36.92,-0.15,1.115,0.006
36.93,-0.125,0.713,0.166
36.94,-0.207,1.101,0.124
36.95,-0.372,0.812,-0.166
36.96,-0.235,1.099,-0.117
36.97,-0.07,0.976,0.05
36.98,-0.156,0.854,0.177
36.99,-0.235,0.952,-0.02
37.0,-0.311,0.967,-0.13
37.01,-0.227,1.177,0.021
37.02,-0.146,0.701,0.136
37.03,-0.096,1.074,0.151
37.04,-0.356,0.894,-0.161
37.05,-0.313,1.071,-0.081
37.06,-0.063,1.056,0.006
37.07,-0.117,0.791,0.131
37.08,-0.294,1.005,0.014
37.09,-0.407,0.96,-0.102
37.1,-0.186,1.208,-0.042
37.11,-0.13,0.708,0.133
37.12,-0.142,1.038,0.154
37.13,-0.348,0.931,-0.167
37.14,-0.245,0.978,-0.088
37.15,-0.153,1.152,0.059
37.16,-0.041,0.745,0.106
37.17,-0.209,1.049,-0.015
37.18,-0.396,0.909,-0.129
37.19,-0.154,1.207,-0.038
37.2,-0.136,0.789,0.118
37.21,-0.197,0.948,0.161
37.22,-0.282,0.986,-0.124
37.23,-0.27,0.936,-0.169
37.24,-0.196,1.172,0.079
37.25,-0.048,0.761,0.119
37.26,-0.3,1.03,0.012
37.27,-0.319,0.894,-0.18
37.28,-0.074,1.228,-0.093
37.29,-0.144,0.788,0.099
37.3,-0.14,0.894,0.198
37.31,-0.343,1.096,-0.12
37.32,-0.254,0.81,-0.15
37.33,-0.262,1.247,0.056
37.34,-0.074,0.724,0.148
37.35,-0.21,1.07,0.066
37.36,-0.384,0.882,-0.207
37.37,-0.121,1.095,-0.061
37.38,-0.105,0.935,0.059
37.39,-0.209,0.796,0.199
37.4,-0.282,1.129,-0.105
37.41,-0.184,0.856,-0.177
37.42,-0.27,1.196,0.032
37.43,-0.069,0.754,0.181
37.44,-0.136,1.035,0.051
37.45,-0.404,0.94,-0.191
37.46,-0.172,1.052,-0.016
37.47,-0.124,1.078,0.041
37.48,-0.119,0.651,0.15
37.49,-0.295,1.189,-0.013
37.5,-0.286,0.889,-0.173
37.51,-0.233,1.143,-0.021
37.52,-0.104,0.791,0.194
37.53,-0.107,0.967,0.059
37.54,-0.387,0.951,-0.186
37.55,-0.197,0.954,-0.054
37.56,-0.16,1.151,0.076
37.57,-0.074,0.655,0.123
37.58,-0.359,1.153,-0.022
37.59,-0.19,0.847,-0.179
37.6,-0.274,1.162,-0.005
37.61,-0.135,0.819,0.17
37.62,-0.091,0.928,0.117
37.63,-0.416,1.025,-0.184
37.64,-0.263,0.843,-0.047
37.65,-0.043,1.274,0.032
37.66,-0.114,0.673,0.155
37.67,-0.32,1.064,-0.007
37.68,-0.263,0.936,-0.162
37.69,-0.145,1.2,-0.026
37.7,-0.123,0.772,0.177
37.71,-0.09,1.021,0.088
37.72,-0.427,0.943,-0.193
37.73,-0.198,0.936,-0.05
37.74,-0.076,1.211,0.041
37.75,-0.12,0.644,0.114
37.76,-0.308,1.094,-0.018
37.77,-0.27,0.905,-0.134
37.78,-0.153,1.148,-0.023
37.79,-0.191,0.789,0.112
37.8,-0.126,0.911,0.164
37.81,-0.387,1.063,-0.185
37.82,-0.211,0.852,-0.128
37.83,-0.084,1.277,0.081
37.84,-0.071,0.659,0.126
37.85,-0.292,1.076,-0.023
37.86,-0.302,0.934,-0.15
37.87,-0.142,1.141,-0.033
37.88,-0.201,0.837,0.102
37.89,-0.135,0.826,0.16
37.9,-0.367,1.145,-0.13
37.91,-0.207,0.807,-0.13
37.92,-0.188,1.28,0.065
37.93,-0.064,0.698,0.167
37.94,-0.253,1.037,0.003
37.95,-0.388,0.951,-0.166
37.96,-0.096,1.04,-0.06
37.97,-0.169,0.945,0.106
37.98,-0.108,0.781,0.152
37.99,-0.374,1.194,-0.153
38.0,-0.247,0.742,-0.13
38.01,-0.166,1.305,0.089
38.02,-0.05,0.776,0.136
38.03,-0.24,0.949,0.013
38.04,-0.365,0.996,-0.175
38.05,-0.118,1.036,-0.067
38.06,-0.187,1.037,0.081
38.07,-0.064,0.702,0.167
38.08,-0.392,1.252,-0.125
38.09,-0.219,0.747,-0.181
38.1,-0.198,1.229,0.042
38.11,-0.098,0.854,0.153
38.12,-0.176,0.886,0.012
38.13,-0.376,1.034,-0.18
38.14,-0.111,0.974,-0.041
38.15,-0.198,1.109,0.08
38.16,-0.094,0.613,0.149
38.17,-0.324,1.208,-0.107
38.18,-0.2,0.828,-0.187
38.19,-0.191,1.154,0.026
38.2,-0.08,0.877,0.179
38.21,-0.073,0.853,0.045
38.22,-0.463,1.16,-0.199
38.23,-0.109,0.823,-0.075
38.24,-0.187,1.243,0.076
38.25,-0.145,0.639,0.171
38.26,-0.329,1.109,-0.057
38.27,-0.23,0.856,-0.238
38.28,-0.117,1.097,0.026
38.29,-0.118,0.969,0.143
38.3,-0.135,0.76,0.09
38.31,-0.385,1.184,-0.203
38.32,-0.102,0.856,-0.058
38.33,-0.156,1.229,0.058
38.34,-0.098,0.694,0.152
38.35,-0.31,1.102,-0.044
38.36,-0.32,0.958,-0.155
38.37,-0.103,1.017,-0.019
38.38,-0.273,1.053,0.181
38.39,-0.06,0.68,0.052
38.4,-0.402,1.17,-0.151
38.41,-0.2,0.881,-0.01
38.42,-0.139,1.236,0.017
38.43,-0.114,0.66,0.148
38.44,-0.297,0.992,-0.008
38.45,-0.33,1.091,-0.204
38.46,-0.082,0.883,-0.009
38.47,-0.163,1.104,0.138
38.48,-0.094,0.732,0.122
38.49,-0.486,1.159,-0.204
38.5,-0.18,0.873,-0.025
38.51,-0.184,1.24,0.052
38.52,-0.118,0.622,0.181
38.53,-0.313,1.102,-0.038
38.54,-0.256,0.992,-0.181
38.55,-0.157,0.995,0.06
38.56,-0.177,0.983,0.121
38.57,-0.086,0.732,0.087
38.58,-0.447,1.201,-0.18
38.59,-0.204,0.802,-0.063
38.6,-0.122,1.252,0.063
38.61,-0.076,0.703,0.162
38.62,-0.389,0.993,-0.008
38.63,-0.265,1.054,-0.22
38.64,-0.143,0.923,-0.021
38.65,-0.187,1.041,0.165
38.66,-0.055,0.7,0.076
38.67,-0.463,1.176,-0.206
38.68,-0.234,0.816,-0.045
38.69,-0.054,1.251,0.066
38.7,-0.13,0.733,0.139
38.71,-0.297,0.899,-0.005
38.72,-0.211,1.171,-0.215
38.73,-0.185,0.827,-0.022
38.74,-0.164,1.104,0.174
38.75,-0.062,0.691,0.099
38.76,-0.406,1.175,-0.172
38.77,-0.269,0.881,-0.061
38.78,-0.125,1.139,0.055
38.79,-0.127,0.799,0.163
38.8,-0.28,0.809,-0.044
38.81,-0.329,1.248,-0.179
38.82,-0.086,0.855,-0.022
38.83,-0.242,1.125,0.141
38.84,-0.035,0.683,0.165
38.85,-0.45,1.148,-0.137
38.86,-0.211,0.872,-0.124
38.87,-0.133,1.135,0.063
38.88,-0.104,0.912,0.116
38.89,-0.208,0.735,-0.03
38.9,-0.413,1.329,-0.154
38.91,-0.09,0.867,-0.043
38.92,-0.252,1.067,0.1
38.93,-0.058,0.721,0.199
38.94,-0.426,1.109,-0.172
38.95,-0.222,0.873,-0.171
38.96,-0.115,1.111,0.112
38.97,-0.189,0.996,0.135
38.98,-0.231,0.64,0.034
38.99,-0.368,1.355,-0.181
39.0,-0.107,0.817,-0.066
39.01,-0.235,1.091,0.133
39.02,0.007,0.802,0.134
39.03,-0.422,0.948,-0.133
39.04,-0.222,1.051,-0.104
39.05,-0.067,1.036,0.025
39.06,-0.191,1.016,0.107
39.07,-0.114,0.632,0.002
39.08,-0.45,1.343,-0.155
39.09,-0.109,0.893,-0.053
39.1,-0.127,1.01,0.06
39.11,-0.165,0.818,0.182
39.12,-0.312,0.913,-0.088
39.13,-0.239,1.133,-0.166
39.14,-0.165,0.89,0.082
39.15,-0.094,1.126,0.152
39.16,-0.146,0.641,0.014
39.17,-0.43,1.24,-0.172
39.18,-0.108,0.957,-0.08
39.19,-0.191,0.971,0.107
39.2,-0.157,0.888,0.151
39.21,-0.308,0.868,-0.101
39.22,-0.257,1.15,-0.117
39.23,-0.187,0.883,0.03
39.24,-0.077,1.125,0.164
39.25,-0.118,0.69,-0.01
39.26,-0.437,1.155,-0.176
39.27,-0.15,1.052,-0.047
39.28,-0.091,0.91,0.041
39.29,-0.133,0.953,0.157
39.3,-0.301,0.814,-0.071
39.31,-0.317,1.209,-0.143
39.32,-0.139,0.878,0.022
39.33,-0.116,1.109,0.119
39.34,-0.114,0.654,0.058
39.35,-0.44,1.242,-0.174
39.36,-0.105,0.969,-0.04
39.37,-0.155,0.991,0.082
39.38,-0.195,0.876,0.175
39.39,-0.305,0.856,-0.047
39.4,-0.306,1.182,-0.149
39.41,-0.14,0.859,0.086
39.42,-0.107,1.138,0.124
39.43,-0.159,0.684,0.055
39.44,-0.461,1.166,-0.169
39.45,-0.101,1.07,-0.071
39.46,-0.109,0.919,0.074
39.47,-0.203,0.945,0.164
39.48,-0.266,0.809,-0.085
39.49,-0.332,1.174,-0.162
39.5,-0.11,0.873,0.068
39.51,-0.105,1.136,0.133
39.52,-0.079,0.709,0.02
39.53,-0.436,1.062,-0.163
39.54,-0.094,1.136,-0.075
39.55,-0.117,0.855,0.043
39.56,-0.128,0.985,0.12
39.57,-0.291,0.796,-0.065
39.58,-0.314,1.193,-0.199
39.59,-0.111,0.85,0.014
39.6,-0.165,1.079,0.152
39.61,-0.093,0.782,0.055
39.62,-0.429,0.974,-0.136
39.63,-0.16,1.174,-0.063
39.64,-0.142,0.837,0.071
39.65,-0.123,0.999,0.166
39.66,-0.293,0.787,-0.063
39.67,-0.355,1.197,-0.202
39.68,-0.146,0.895,-0.006
39.69,-0.153,1.013,0.154
39.7,-0.096,0.879,0.083
39.71,-0.358,0.892,-0.164
39.72,-0.219,1.23,-0.061
39.73,-0.085,0.867,0.047
39.74,-0.144,0.982,0.162
39.75,-0.229,0.791,-0.016
39.76,-0.356,1.247,-0.208
39.77,-0.144,0.901,-0.026
39.78,-0.101,0.942,0.155
39.79,-0.185,1.002,0.097
39.8,-0.36,0.8,-0.172
39.81,-0.22,1.206,-0.052
39.82,-0.006,0.923,0.039
39.83,-0.167,0.955,0.171
39.84,-0.295,0.8,0.042
39.85,-0.29,1.14,-0.225
39.86,-0.169,0.994,-0.065
39.87,-0.185,0.838,0.196
39.88,-0.085,1.07,0.089
39.89,-0.384,0.759,-0.134
39.9,-0.298,1.215,-0.082
39.91,-0.009,0.908,-0.005
39.92,-0.155,0.929,0.162
39.93,-0.215,0.867,0.011
39.94,-0.379,1.097,-0.14
39.95,-0.14,1.086,-0.046
39.96,-0.196,0.76,0.168
39.97,-0.146,1.071,0.132
39.98,-0.321,0.808,-0.136
39.99,-0.294,1.157,-0.126
40.0,-0.07,0.939,0.035
40.01,-0.117,0.91,0.174
40.02,-0.216,0.918,0.009
40.03,-0.379,0.985,-0.155
40.04,-0.11,1.181,-0.081
40.05,-0.152,0.723,0.13
40.06,-0.198,1.062,0.175
40.07,-0.283,0.856,-0.14
40.08,-0.258,1.083,-0.119
40.09,-0.155,1.043,0.045
40.1,-0.055,0.869,0.112
40.11,-0.202,0.943,0.055
40.12,-0.411,0.894,-0.173
40.13,-0.164,1.246,-0.035
40.14,-0.128,0.75,0.094
40.15,-0.189,1.033,0.15
40.16,-0.249,0.851,-0.157
40.17,-0.282,1.111,-0.147
40.18,-0.144,0.956,0.069
40.19,-0.081,0.995,0.146
40.2,-0.22,0.843,0.015
40.21,-0.359,0.924,-0.149
40.22,-0.139,1.218,-0.081
40.23,-0.093,0.73,0.082
40.24,-0.177,1.063,0.185
40.25,-0.234,0.824,-0.128
40.26,-0.308,1.073,-0.143
40.27,-0.165,1.006,0.068
40.28,-0.015,0.981,0.135
40.29,-0.238,0.919,0.006
40.3,-0.383,0.857,-0.146
40.31,-0.088,1.271,-0.057
40.32,-0.134,0.768,0.093
40.33,-0.16,0.984,0.17
40.34,-0.288,0.894,-0.088
40.35,-0.293,1.052,-0.163
40.36,-0.166,1.059,0.012
40.37,-0.092,0.859,0.158
40.38,-0.207,0.989,0.052
40.39,-0.434,0.848,-0.135
40.4,-0.149,1.253,-0.057
40.41,-0.077,0.806,0.075
40.42,-0.153,0.953,0.175
40.43,-0.297,0.934,-0.064
40.44,-0.282,0.989,-0.184
40.45,-0.237,1.105,-0.017
40.46,-0.114,0.802,0.214
40.47,-0.124,1.056,0.064
40.48,-0.38,0.807,-0.196
40.49,-0.269,1.215,-0.027
40.5,-0.042,0.894,0.025
40.51,-0.123,0.865,0.171
40.52,-0.323,0.972,-0.04
40.53,-0.341,0.967,-0.185
40.54,-0.099,1.156,-0.034
40.55,-0.222,0.776,0.169
40.56,-0.089,1.055,0.078
40.57,-0.367,0.831,-0.178
40.58,-0.257,1.084,-0.08
40.59,-0.113,1.008,0.086
40.6,-0.053,0.81,0.118
40.61,-0.274,1.004,-0.044
40.62,-0.305,0.915,-0.131
40.63,-0.142,1.189,-0.03
40.64,-0.137,0.724,0.11
40.65,-0.19,1.043,0.174
40.66,-0.314,0.874,-0.167
40.67,-0.261,1.08,-0.1
40.68,-0.134,1.083,0.107
40.69,-0.001,0.754,0.09
40.7,-0.342,1.034,-0.065
40.71,-0.344,0.896,-0.121
40.72,-0.043,1.25,-0.063
40.73,-0.189,0.731,0.1
40.74,-0.191,1.019,0.19
40.75,-0.311,0.947,-0.197
40.76,-0.281,0.92,-0.078
40.77,-0.153,1.179,0.098
40.78,-0.027,0.766,0.138
40.79,-0.342,1.059,-0.026
40.8,-0.267,0.88,-0.14
40.81,-0.14,1.231,-0.028
40.82,-0.232,0.734,0.124
40.83,-0.139,0.934,0.172
40.84,-0.304,1.032,-0.193
40.85,-0.3,0.908,-0.079
40.86,-0.196,1.197,0.067
40.87,-0.053,0.663,0.119
40.88,-0.296,1.096,0.009
40.89,-0.362,0.909,-0.152
40.9,-0.073,1.183,-0.063
40.91,-0.139,0.854,0.114
40.92,-0.16,0.84,0.194
40.93,-0.355,1.093,-0.11
40.94,-0.244,0.873,-0.131
40.95,-0.229,1.234,0.029
40.96,-0.049,0.742,0.17
40.97,-0.257,1.067,-0.061
40.98,-0.422,0.862,-0.129
40.99,-0.115,1.214,-0.017
41.0,-0.143,0.795,0.07
41.01,-0.153,0.92,0.185
41.02,-0.309,1.021,-0.16
41.03,-0.251,0.881,-0.081
41.04,-0.219,1.198,0.089
41.05,-0.053,0.708,0.146
41.06,-0.268,1.089,0.022
41.07,-0.394,0.892,-0.144
41.08,-0.188,1.12,-0.009
41.09,-0.144,0.884,0.141
41.1,-0.182,0.841,0.16
41.11,-0.302,1.078,-0.116
41.12,-0.198,0.908,-0.108
41.13,-0.223,1.26,0.053
41.14,-0.093,0.678,0.171
41.15,-0.227,1.074,0.014
41.16,-0.422,0.934,-0.211
41.17,-0.131,1.059,-0.03
41.18,-0.112,0.931,0.122
41.19,-0.147,0.78,0.157
41.2,-0.363,1.127,-0.116
41.21,-0.236,0.831,-0.106
41.22,-0.135,1.281,0.013
41.23,-0.112,0.709,0.193
41.24,-0.245,1.021,0.007
41.25,-0.412,0.932,-0.21
41.26,-0.101,1.05,-0.025
41.27,-0.156,1.036,0.113
41.28,-0.118,0.682,0.126
41.29,-0.381,1.182,-0.096
41.3,-0.201,0.812,-0.14
41.31,-0.168,1.242,0.028
41.32,-0.065,0.787,0.175
41.33,-0.203,0.97,0.055
41.34,-0.448,1.023,-0.19
41.35,-0.037,0.959,-0.027
41.36,-0.171,1.116,0.134
41.37,-0.225,0.676,0.188
41.38,-0.337,1.179,-0.163
41.39,-0.187,0.837,-0.178
41.4,-0.161,1.232,0.09
41.41,-0.156,0.818,0.132
41.42,-0.205,0.865,0.016
41.43,-0.386,1.162,-0.189
41.44,-0.083,0.877,-0.065
41.45,-0.157,1.141,0.126
41.46,-0.072,0.707,0.143
41.47,-0.41,1.146,-0.155
41.48,-0.212,0.806,-0.11
41.49,-0.141,1.225,0.049
41.5,-0.141,0.881,0.111
41.51,-0.158,0.771,0.029
41.52,-0.47,1.238,-0.18
41.53,-0.04,0.855,-0.042
41.54,-0.158,1.158,0.099
41.55,-0.135,0.669,0.173
41.56,-0.323,1.132,-0.161
41.57,-0.209,0.905,-0.129
41.58,-0.204,1.106,0.076
41.59,-0.059,0.968,0.11
41.6,-0.17,0.7,0.011
41.61,-0.47,1.246,-0.151
41.62,-0.068,0.874,-0.048
41.63,-0.136,1.167,0.067
41.64,-0.214,0.696,0.199
41.65,-0.309,1.043,-0.125
41.66,-0.23,1.004,-0.161
41.67,-0.155,0.984,0.039
41.68,-0.121,1.05,0.147
41.69,-0.146,0.666,-0.021
41.7,-0.5,1.271,-0.174
41.71,-0.046,0.883,-0.027
41.72,-0.164,1.137,0.154
41.73,-0.194,0.758,0.146
41.74,-0.298,0.991,-0.158
41.75,-0.27,1.074,-0.171
41.76,-0.134,0.946,0.11
41.77,-0.113,0.966,0.121
41.78,-0.256,0.729,-0.05
41.79,-0.408,1.242,-0.131
41.8,-0.115,0.8,-0.007
41.81,-0.205,1.101,0.124
41.82,-0.097,0.742,0.139
41.83,-0.356,1.092,-0.139
41.84,-0.296,0.987,-0.132
41.85,-0.058,1.025,0.062
41.86,-0.095,0.948,0.14
41.87,-0.25,0.708,0.004
41.88,-0.457,1.3,-0.143
41.89,-0.094,0.802,-0.003
41.9,-0.204,1.083,0.113
41.91,-0.137,0.781,0.102
41.92,-0.377,1.012,-0.166
41.93,-0.244,1.052,-0.126
41.94,-0.053,1.005,0.079
41.95,-0.134,1.005,0.119
41.96,-0.162,0.663,-0.036
41.97,-0.415,1.296,-0.164
41.98,-0.125,0.891,-0.025
41.99,-0.203,1.029,0.157
42.0,-0.109,0.851,0.124
42.01,-0.454,0.914,-0.12
42.02,-0.19,1.146,-0.091
42.03,-0.03,0.95,0.092
42.04,-0.224,0.998,0.143
42.05,-0.235,0.689,0.001
42.06,-0.333,1.285,-0.151
42.07,-0.195,0.898,-0.025
42.08,-0.181,0.931,0.131
42.09,-0.037,0.945,0.094
42.1,-0.42,0.86,-0.187
42.11,-0.255,1.208,-0.053
42.12,-0.044,0.916,0.048
42.13,-0.169,0.972,0.142
42.14,-0.227,0.779,0.016
42.15,-0.309,1.254,-0.214
42.16,-0.153,0.908,-0.03
42.17,-0.169,0.874,0.184
42.18,-0.095,1.033,0.124
42.19,-0.415,0.789,-0.198
42.2,-0.234,1.2,-0.055
42.21,-0.082,0.965,0.041
42.22,-0.159,0.921,0.135
42.23,-0.236,0.801,-0.019
42.24,-0.308,1.157,-0.202
42.25,-0.088,0.982,-0.056
42.26,-0.157,0.792,0.159
42.27,-0.078,1.036,0.116
42.28,-0.376,0.814,-0.188
42.29,-0.249,1.189,-0.094
42.3,-0.003,0.934,0.037
42.31,-0.115,0.921,0.108
42.32,-0.289,0.905,0.013
42.33,-0.327,1.038,-0.182
42.34,-0.133,1.089,-0.039
42.35,-0.185,0.791,0.157
42.36,-0.134,1.066,0.073
42.37,-0.274,0.783,-0.173
42.38,-0.316,1.184,-0.058
42.39,-0.077,0.971,0.033
42.4,-0.094,0.847,0.082
42.41,-0.329,0.954,0.042
42.42,-0.312,0.968,-0.21
42.43,-0.083,1.148,-0.04
42.44,-0.227,0.744,0.173
42.45,-0.017,1.073,0.104
42.46,-0.315,0.814,-0.204
42.47,-0.308,1.108,-0.054
42.48,0.019,1.051,0.027
42.49,-0.175,0.79,0.155
42.5,-0.298,1.0,-0.006
42.51,-0.285,0.948,-0.135
42.52,-0.16,1.154,-0.012
42.53,-0.202,0.765,0.18
42.54,-0.16,1.035,0.082
42.55,-0.344,0.873,-0.153
42.56,-0.297,1.037,-0.101
42.57,-0.101,1.089,0.006
42.58,-0.081,0.732,0.155
42.59,-0.306,0.965,-0.01
42.6,-0.293,0.966,-0.172
42.61,-0.076,1.12,-0.064
42.62,-0.21,0.749,0.159
42.63,-0.115,1.093,0.08
42.64,-0.302,0.845,-0.166
42.65,-0.318,1.097,-0.072
42.66,-0.027,1.022,0.021
42.67,-0.099,0.789,0.166
42.68,-0.357,1.004,0.044
42.69,-0.305,0.917,-0.178
42.7,-0.172,1.202,-0.008
42.71,-0.102,0.704,0.139
42.72,-0.15,1.067,0.111
42.73,-0.321,0.858,-0.158
42.74,-0.196,1.022,-0.097
42.75,-0.123,1.123,0.041
42.76,-0.038,0.723,0.132
42.77,-0.297,1.103,0.012
42.78,-0.383,0.883,-0.133
42.79,-0.137,1.199,-0.022
42.8,-0.106,0.792,0.129
42.81,-0.21,0.988,0.167
42.82,-0.344,0.896,-0.167
42.83,-0.188,0.971,-0.123
42.84,-0.019,1.216,-0.019
42.85,-0.088,0.616,0.137
42.86,-0.255,1.092,0.017
42.87,-0.383,0.911,-0.147
42.88,-0.209,1.102,0.006
42.89,-0.071,0.824,0.101
42.9,-0.167,0.929,0.132
42.91,-0.363,0.999,-0.151
42.92,-0.206,0.873,-0.104
42.93,-0.095,1.255,0.02
42.94,-0.131,0.648,0.179
42.95,-0.192,1.076,-0.011
42.96,-0.348,0.94,-0.187
42.97,-0.226,1.071,-0.044
42.98,-0.083,0.864,0.112
42.99,-0.155,0.863,0.135
43.0,-0.396,1.072,-0.15
43.01,-0.187,0.783,-0.113
43.02,-0.19,1.3,0.095
43.03,-0.111,0.699,0.165
43.04,-0.165,1.023,0.015
43.05,-0.378,0.988,-0.144
43.06,-0.161,1.01,-0.084
43.07,-0.17,0.892,0.071
43.08,-0.091,0.812,0.185
43.09,-0.485,1.172,-0.137
43.1,-0.202,0.692,-0.136
43.11,-0.049,1.369,0.057
43.12,-0.087,0.719,0.108
43.13,-0.163,0.927,0.064
43.14,-0.346,1.061,-0.155
43.15,-0.16,1.019,-0.072
43.16,-0.165,1.013,0.087
43.17,-0.149,0.733,0.206
43.18,-0.365,1.198,-0.144
43.19,-0.249,0.743,-0.158
43.2,-0.14,1.278,0.078
43.21,-0.066,0.817,0.159
43.22,-0.231,0.916,0.04
43.23,-0.329,1.067,-0.219
43.24,-0.121,0.902,-0.076
43.25,-0.143,1.097,0.095
43.26,-0.064,0.676,0.11
43.27,-0.343,1.166,-0.106
43.28,-0.339,0.779,-0.169
43.29,-0.183,1.146,0.059
43.3,-0.054,0.976,0.17
43.31,-0.2,0.818,0.066
43.32,-0.419,1.094,-0.163
43.33,-0.092,0.886,-0.106
43.34,-0.079,1.176,0.056
43.35,-0.137,0.648,0.19
43.36,-0.359,1.121,-0.076
43.37,-0.276,0.855,-0.183
43.38,-0.191,1.061,0.039
43.39,-0.073,1.041,0.163
43.4,-0.154,0.746,0.024
43.41,-0.359,1.042,-0.152
43.42,-0.18,0.958,-0.042
43.43,-0.164,1.097,0.075
43.44,-0.024,0.632,0.15
43.45,-0.376,1.187,-0.098
43.46,-0.259,0.81,-0.153
43.47,-0.138,1.149,0.011
43.48,-0.137,0.899,0.151
43.49,-0.089,0.819,0.056
43.5,-0.397,1.135,-0.19
43.51,-0.133,0.859,-0.027
43.52,-0.144,1.208,0.054
43.53,-0.051,0.633,0.148
43.54,-0.365,1.155,-0.013
43.55,-0.291,0.894,-0.198
43.56,-0.196,1.029,0.036
43.57,-0.153,1.033,0.166
43.58,-0.081,0.713,0.07
43.59,-0.477,1.151,-0.144
43.6,-0.134,0.888,-0.04
43.61,-0.185,1.299,0.094
43.62,-0.1,0.641,0.169
43.63,-0.267,1.054,-0.019
43.64,-0.259,1.016,-0.223
43.65,-0.152,0.962,-0.05
43.66,-0.204,1.043,0.111
43.67,-0.098,0.747,0.142
43.68,-0.43,1.183,-0.146
43.69,-0.219,0.787,-0.062
43.7,-0.182,1.298,0.082
43.71,-0.004,0.736,0.125
43.72,-0.274,0.951,-0.003
43.73,-0.432,1.07,-0.15
43.74,-0.039,0.921,-0.087
43.75,-0.254,1.094,0.112
43.76,-0.172,0.684,0.164
43.77,-0.33,1.172,-0.131
43.78,-0.272,0.825,-0.084
43.79,-0.142,1.198,0.059
43.8,-0.055,0.832,0.099
43.81,-0.162,0.84,0.037
43.82,-0.397,1.166,-0.17
43.83,-0.085,0.876,-0.107
43.84,-0.127,1.111,0.081
43.85,-0.168,0.709,0.193
43.86,-0.351,1.157,-0.102
43.87,-0.26,0.836,-0.161
43.88,-0.156,1.091,0.038
43.89,-0.074,0.945,0.145
43.9,-0.122,0.78,0.019
43.91,-0.406,1.215,-0.143
43.92,-0.132,0.849,-0.044
43.93,-0.111,1.198,0.058
43.94,-0.133,0.702,0.187
43.95,-0.337,1.082,-0.059
43.96,-0.263,0.958,-0.214
43.97,-0.191,0.962,0.034
43.98,-0.433,0.827,-0.175
43.99,-0.286,1.228,-0.009
44.0,-0.034,0.913,0.029
44.01,-0.179,0.97,0.153
44.02,-0.305,0.827,-0.037
44.03,-0.219,1.186,-0.207
44.04,-0.188,0.942,-0.028
44.05,-0.132,0.873,0.14
44.06,-0.058,1.046,0.068
44.07,-0.388,0.82,-0.147
44.08,-0.29,1.181,-0.106
44.09,-0.095,0.919,0.086
44.1,-0.117,0.97,0.152
44.11,-0.36,0.816,-0.005
44.12,-0.285,1.084,-0.119
44.13,-0.167,1.095,-0.078
44.14,-0.155,0.776,0.122
44.15,-0.12,1.109,0.143
44.16,-0.339,0.819,-0.184
44.17,-0.248,1.215,-0.1
44.18,-0.083,0.932,0.08
44.19,-0.087,1.004,0.12
44.2,-0.248,0.737,-0.015
44.21,-0.44,1.183,-0.097
44.22,-0.045,1.038,-0.101
44.23,-0.181,0.808,0.135
44.24,-0.196,1.024,0.199
44.25,-0.282,0.824,-0.154
44.26,-0.3,1.143,-0.104
44.27,-0.147,0.93,0.064
44.28,-0.091,1.032,0.126
44.29,-0.206,0.756,0.028
44.3,-0.402,1.054,-0.132
44.31,-0.05,1.16,-0.1
44.32,-0.179,0.794,0.138
44.33,-0.208,1.008,0.201
44.34,-0.211,0.787,-0.146
44.35,-0.319,1.171,-0.133
44.36,-0.221,0.939,0.088
44.37,-0.079,1.031,0.143
44.38,-0.183,0.831,0.053
44.39,-0.414,0.974,-0.129
44.4,-0.153,1.219,-0.053
44.41,-0.1,0.776,0.048
44.42,-0.17,1.024,0.156
44.43,-0.235,0.817,-0.072
44.44,-0.352,1.146,-0.184
44.45,-0.177,0.909,0.005
44.46,-0.129,0.995,0.185
44.47,-0.13,0.945,0.07
44.48,-0.42,0.818,-0.153
44.49,-0.232,1.221,-0.024
44.5,-0.039,0.908,0.058
44.51,-0.148,0.945,0.128
44.52,-0.274,0.812,0.01
44.53,-0.328,1.226,-0.187
44.54,-0.12,0.966,-0.08
44.55,-0.212,0.849,0.186
44.56,-0.069,1.049,0.104
44.57,-0.365,0.814,-0.165
44.58,-0.357,1.169,-0.096
44.59,-0.002,0.902,0.078
44.6,-0.15,1.006,0.139
44.61,-0.299,0.79,0.003
44.62,-0.369,1.126,-0.116
44.63,-0.065,1.087,-0.127
44.64,-0.208,0.775,0.134
44.65,-0.119,1.046,0.164
44.66,-0.295,0.824,-0.141
44.67,-0.325,1.132,-0.099
44.68,-0.122,0.955,0.081
44.69,-0.074,0.974,0.145
44.7,-0.22,0.872,0.024
44.71,-0.407,0.972,-0.153
44.72,-0.135,1.165,-0.072
44.73,-0.093,0.782,0.078
44.74,-0.16,1.041,0.122
44.75,-0.296,0.808,-0.058
44.76,-0.213,1.171,-0.187
44.77,-0.186,0.976,-0.013
44.78,-0.111,0.9,0.209
44.79,-0.128,0.945,0.032
44.8,-0.44,0.862,-0.133
44.81,-0.229,1.233,-0.047
44.82,-0.006,0.835,0.055
44.83,-0.196,0.983,0.161
44.84,-0.283,0.841,-0.028
44.85,-0.244,1.15,-0.144
44.86,-0.181,0.975,-0.022
44.87,-0.17,0.813,0.189
44.88,-0.139,1.059,0.095
44.89,-0.363,0.804,-0.191
44.9,-0.295,1.198,-0.061
44.91,-0.036,0.909,0.051
44.92,-0.138,0.948,0.152
44.93,-0.245,0.86,-0.009
44.94,-0.29,1.076,-0.184
44.95,-0.125,1.053,-0.049
44.96,-0.211,0.797,0.136
44.97,-0.068,0.962,0.104
44.98,-0.41,0.872,-0.167
44.99,-0.32,1.169,-0.068
45.0,-0.002,0.86,0.054
45.01,-0.086,1.015,0.145
45.02,-0.297,0.779,-0.019
45.03,-0.326,1.167,-0.124
45.04,-0.156,1.02,-0.057
45.05,-0.218,0.857,0.13
45.06,-0.1,1.007,0.119
45.07,-0.314,0.822,-0.175
45.08,-0.271,1.192,-0.13
45.09,-0.069,0.906,0.055
45.1,-0.104,0.984,0.159
45.11,-0.212,0.794,-0.007
45.12,-0.486,1.057,-0.117
45.13,-0.13,1.109,-0.064
45.14,-0.135,0.844,0.082
45.15,-0.18,1.0,0.142
45.16,-0.272,0.831,-0.107
45.17,-0.251,1.189,-0.128
45.18,-0.15,0.909,0.02
45.19,-0.063,0.956,0.175
45.2,-0.18,0.872,0.0
45.21,-0.393,0.949,-0.204
45.22,-0.212,1.193,-0.033
45.23,-0.057,0.811,0.049
45.24,-0.164,1.034,0.122
45.25,-0.312,0.841,-0.062
45.26,-0.281,1.166,-0.147
45.27,-0.133,0.923,0.03
45.28,-0.134,0.928,0.199
45.29,-0.126,0.992,0.03
45.3,-0.373,0.87,-0.18
45.31,-0.263,1.208,-0.049
45.32,-0.021,0.849,0.039
45.33,-0.147,0.977,0.132
45.34,-0.362,0.814,-0.007
45.35,-0.226,1.171,-0.168
45.36,-0.066,1.01,-0.019
45.37,-0.164,0.825,0.174
45.38,-0.137,1.035,0.076
45.39,-0.349,0.812,-0.208
45.4,-0.285,1.201,-0.023
45.41,-0.09,0.911,0.057
45.42,-0.149,0.958,0.164
45.43,-0.325,0.843,-0.015
45.44,-0.262,1.039,-0.168
45.45,-0.168,1.046,-0.012
45.46,-0.16,0.791,0.161
45.47,-0.101,1.082,0.086
45.48,-0.366,0.781,-0.17
45.49,-0.226,1.17,-0.112
45.5,-0.088,0.962,0.09
45.51,-0.117,0.892,0.165
45.52,-0.255,0.913,-0.015
45.53,-0.346,1.029,-0.165
45.54,-0.157,1.113,-0.012
45.55,-0.161,0.75,0.15
45.56,-0.087,1.083,0.105
45.57,-0.374,0.779,-0.168
45.58,-0.207,1.06,-0.154
45.59,-0.083,1.02,0.051
45.6,-0.111,0.834,0.168
45.61,-0.292,0.954,0.03
45.62,-0.333,0.966,-0.144
45.63,-0.224,1.198,-0.028
45.64,-0.144,0.718,0.135
45.65,-0.136,1.087,0.147
45.66,-0.33,0.845,-0.16
45.67,-0.284,1.016,-0.107
45.68,-0.16,1.08,0.059
45.69,-0.05,0.823,0.152
45.7,-0.242,0.986,0.057
45.71,-0.377,0.896,-0.156
45.72,-0.159,1.262,-0.068
45.73,-0.151,0.738,0.101
45.74,-0.185,1.025,0.168
45.75,-0.227,0.962,-0.133
45.76,-0.31,0.975,-0.137
45.77,-0.147,1.08,-0.001
45.78,0.02,0.857,0.146
45.79,-0.198,0.915,-0.018
45.8,-0.382,0.925,-0.135
45.81,-0.149,1.259,-0.081
45.82,-0.064,0.714,0.066
45.83,-0.196,1.035,0.241
45.84,-0.272,0.85,-0.135
45.85,-0.319,1.039,-0.127
45.86,-0.152,1.042,0.033
45.87,-0.02,0.875,0.122
45.88,-0.226,1.025,0.039
45.89,-0.361,0.85,-0.202
45.9,-0.195,1.219,-0.044
45.91,-0.109,0.809,0.074
45.92,-0.161,0.952,0.15
45.93,-0.261,0.901,-0.037
45.94,-0.289,1.062,-0.169
45.95,-0.139,1.044,-0.016
45.96,-0.129,0.784,0.208
45.97,-0.156,1.102,0.054
45.98,-0.353,0.784,-0.19
45.99,-0.262,1.196,-0.022
46.0,-0.072,0.942,0.032
46.01,-0.134,0.826,0.141
46.02,-0.267,0.982,-0.002
46.03,-0.297,1.031,-0.185
46.04,-0.104,1.098,-0.057
46.05,-0.094,0.791,0.179
46.06,-0.203,1.089,0.09
46.07,-0.355,0.775,-0.164
46.08,-0.209,1.139,-0.069
46.09,-0.099,1.064,0.005
46.1,-0.152,0.75,0.154
46.11,-0.268,0.989,0.027
46.12,-0.288,0.989,-0.15
46.13,-0.14,1.147,-0.036
46.14,-0.142,0.688,0.13
46.15,-0.084,1.091,0.104
46.16,-0.363,0.876,-0.166
46.17,-0.34,1.027,-0.049
46.18,-0.092,1.098,0.032
46.19,-0.088,0.78,0.148
46.2,-0.389,1.058,0.083
46.21,-0.31,0.906,-0.152
46.22,-0.169,1.236,-0.057
46.23,-0.153,0.734,0.119
46.24,-0.147,0.992,0.154
46.25,-0.24,0.96,-0.163
46.26,-0.291,0.941,-0.115
46.27,-0.152,1.168,0.039
46.28,-0.026,0.806,0.159
46.29,-0.236,1.047,0.035
46.3,-0.361,0.855,-0.128
46.31,-0.192,1.227,-0.039
46.32,-0.133,0.802,0.051
46.33,-0.167,0.901,0.213
46.34,-0.311,1.027,-0.102
46.35,-0.248,0.918,-0.123
46.36,-0.192,1.196,0.03
46.37,-0.033,0.817,0.187
46.38,-0.211,1.043,0.035
46.39,-0.397,0.799,-0.164
46.4,-0.143,1.193,-0.05
46.41,-0.133,0.925,0.04
46.42,-0.136,0.777,0.125
46.43,-0.265,1.101,-0.048
46.44,-0.303,0.886,-0.179
46.45,-0.178,1.136,-0.03
46.46,-0.028,0.792,0.158
46.47,-0.173,1.038,0.079
46.48,-0.354,0.853,-0.165
46.49,-0.225,1.129,-0.065
46.5,-0.09,1.025,0.035
46.51,-0.086,0.746,0.17
46.52,-0.361,1.123,-0.027
46.53,-0.25,0.837,-0.161
46.54,-0.188,1.183,-0.041
46.55,-0.12,0.777,0.155
46.56,-0.062,0.998,0.092
46.57,-0.388,0.927,-0.19
46.58,-0.237,0.974,-0.034
46.59,-0.073,1.183,-0.016
46.6,-0.102,0.749,0.193
46.61,-0.268,1.082,-0.023
46.62,-0.309,0.92,-0.138
46.63,-0.157,1.18,-0.011
46.64,-0.145,0.753,0.152
46.65,-0.153,1.048,0.134
46.66,-0.289,0.887,-0.211
46.67,-0.233,1.009,-0.09
46.68,-0.147,1.058,0.058
46.69,-0.01,0.794,0.116
46.7,-0.344,1.034,0.015
46.71,-0.325,0.875,-0.104
46.72,-0.129,1.312,-0.017
46.73,-0.135,0.696,0.111
46.74,-0.139,0.975,0.181
46.75,-0.298,1.006,-0.181
46.76,-0.3,0.947,-0.138
46.77,-0.174,1.102,0.052
46.78,0.047,0.836,0.149
46.79,-0.309,1.053,-0.012
46.8,-0.407,0.793,-0.128
46.81,-0.066,1.286,-0.061
46.82,-0.158,0.827,0.095
46.83,-0.177,0.861,0.19
46.84,-0.265,1.061,-0.119
46.85,-0.265,0.892,-0.175
46.86,-0.265,1.177,0.067
46.87,0.045,0.728,0.135
46.88,-0.261,1.074,0.026
46.89,-0.374,0.842,-0.156
46.9,-0.135,1.138,-0.059
46.91,-0.122,0.931,0.083
46.92,-0.137,0.804,0.133
46.93,-0.297,1.098,-0.068
46.94,-0.237,0.865,-0.141
46.95,-0.211,1.228,-0.028
46.96,-0.074,0.72,0.172
46.97,-0.14,1.087,0.108
46.98,-0.35,0.9,-0.198
46.99,-0.178,1.053,-0.094
47.0,-0.116,1.006,0.089
47.01,-0.073,0.74,0.128
47.02,-0.382,1.123,-0.075
47.03,-0.265,0.822,-0.186
47.04,-0.182,1.176,0.01
47.05,-0.16,0.809,0.185
47.06,-0.124,1.016,0.09
47.07,-0.315,0.938,-0.18
47.08,-0.274,0.999,-0.024
47.09,-0.115,1.115,0.06
47.1,-0.078,0.677,0.162
47.11,-0.366,1.122,-0.037
47.12,-0.319,0.886,-0.166
47.13,-0.16,1.145,-0.027
47.14,-0.229,0.785,0.192
47.15,-0.092,0.978,0.129
47.16,-0.34,0.992,-0.175
47.17,-0.295,0.878,-0.025
47.18,-0.084,1.281,0.025
47.19,-0.051,0.646,0.125
47.2,-0.302,1.048,-0.011
47.21,-0.337,0.94,-0.114
47.22,-0.135,1.157,-0.05
47.23,-0.214,0.809,0.086
47.24,-0.108,0.862,0.203
47.25,-0.324,1.149,-0.191
47.26,-0.222,0.777,-0.148
47.27,-0.166,1.246,0.105
47.28,0.039,0.72,0.139
47.29,-0.33,1.048,-0.035
47.3,-0.364,0.886,-0.12
47.31,-0.111,1.079,-0.102
47.32,-0.139,0.949,0.076
47.33,-0.17,0.807,0.173
47.34,-0.354,1.159,-0.147
47.35,-0.218,0.762,-0.116
47.36,-0.199,1.325,0.081
47.37,-0.043,0.699,0.172
47.38,-0.215,1.002,0.004
47.39,-0.386,0.993,-0.175
47.4,-0.112,1.004,-0.092
47.41,-0.135,1.034,0.039
47.42,-0.047,0.838,0.151
47.43,-0.413,1.112,-0.12
47.44,-0.203,0.766,-0.176
47.45,-0.134,1.302,0.042
47.46,-0.082,0.715,0.171
47.47,-0.17,1.014,0.027
47.48,-0.392,0.963,-0.197
47.49,-0.135,1.077,-0.083
47.5,-0.16,0.956,0.043
47.51,-0.09,0.716,0.187
47.52,-0.362,1.204,-0.087
47.53,-0.318,0.767,-0.138
47.54,-0.179,1.187,0.016
47.55,-0.095,0.83,0.147
47.56,-0.148,0.996,0.036
47.57,-0.321,0.92,-0.19
47.58,-0.115,1.011,-0.067
47.59,-0.125,1.111,0.05
47.6,-0.077,0.636,0.17
47.61,-0.375,1.164,-0.022
47.62,-0.262,0.865,-0.161
47.63,-0.22,1.141,0.011
47.64,-0.16,0.788,0.186
47.65,-0.144,0.956,0.052
47.66,-0.378,0.981,-0.203
47.67,-0.206,0.859,-0.063
47.68,-0.119,1.278,0.044
47.69,-0.101,0.592,0.144
47.7,-0.268,1.082,0.022
47.71,-0.26,0.965,-0.165
47.72,-0.178,1.126,-0.039
47.73,-0.18,0.769,0.125
47.74,-0.161,0.888,0.157
47.75,-0.36,1.143,-0.186
47.76,-0.245,0.771,-0.122
47.77,-0.038,1.311,0.08
47.78,-0.116,0.708,0.131
47.79,-0.283,1.023,0.011
47.8,-0.343,0.961,-0.139
47.81,-0.103,1.076,-0.048
47.82,-0.229,0.851,0.115
47.83,-0.087,0.792,0.17
47.84,-0.383,1.227,-0.185
47.85,-0.28,0.722,-0.145
47.86,-0.197,1.262,0.112
47.87,-0.031,0.786,0.107
47.88,-0.284,0.947,0.007
47.89,-0.322,0.977,-0.148
47.9,-0.149,1.019,-0.074
47.91,-0.158,1.002,0.067
47.92,-0.123,0.728,0.173
47.93,-0.37,1.214,-0.141
47.94,-0.279,0.76,-0.112
47.95,-0.189,1.283,0.089
47.96,-0.06,0.785,0.157
47.97,-0.182,0.913,0.055
47.98,-0.441,1.08,-0.141
47.99,-0.15,0.931,-0.063
48.0,-0.124,1.158,0.07
48.01,-0.136,0.647,0.152
48.02,-0.345,1.136,-0.086
48.03,-0.261,0.841,-0.169
48.04,-0.188,1.179,0.04
48.05,-0.137,0.895,0.176
48.06,-0.188,0.807,0.07
48.07,-0.402,1.107,-0.143
48.08,-0.139,0.923,-0.054
48.09,-0.116,1.178,0.027
48.1,-0.104,0.625,0.174
48.11,-0.332,1.194,-0.034
48.12,-0.248,0.886,-0.214
48.13,-0.171,1.026,0.013
48.14,-0.15,1.0,0.172
48.15,-0.108,0.792,0.065
48.16,-0.481,1.108,-0.157
48.17,-0.199,0.868,-0.008
48.18,-0.08,1.278,0.041
48.19,-0.127,0.581,0.121
48.2,-0.282,1.048,0.018
48.21,-0.247,1.078,-0.218
48.22,-0.2,0.944,-0.028
48.23,-0.163,0.97,0.146
48.24,-0.121,0.878,0.05
48.25,-0.403,1.064,-0.192
48.26,-0.202,0.872,-0.029
48.27,-0.142,1.268,0.056
48.28,-0.083,0.587,0.161
48.29,-0.337,1.131,0.013
48.3,-0.26,0.982,-0.22
48.31,-0.13,1.029,-0.04
