t,ax,ay,az
0.0,-0.19,1.212,-0.093
0.01,-0.079,0.906,0.118
0.02,-0.181,0.771,0.142
0.03,-0.381,1.047,-0.081
0.04,-0.287,0.879,-0.149
0.05,-0.014,1.308,0.061
0.06,-0.132,0.621,0.146
0.07,-0.198,1.011,0.029
0.08,-0.411,1.037,-0.255
0.09,-0.103,0.994,-0.024
0.1,-0.126,1.021,0.165
0.11,-0.251,0.682,0.105
0.12,-0.359,1.187,-0.172
0.13,-0.255,0.945,-0.037
0.14,-0.068,1.152,0.139
0.15,-0.078,0.701,0.113
0.16,-0.367,0.966,-0.017
0.17,-0.26,1.082,-0.207
0.18,-0.055,0.968,0.108
0.19,-0.213,1.069,0.171
0.2,-0.117,0.613,-0.007
0.21,-0.56,1.318,-0.183
0.22,-0.081,0.882,-0.039
0.23,-0.1,1.062,0.13
0.24,-0.12,0.833,0.125
0.25,-0.344,0.909,-0.205
0.26,-0.289,1.219,-0.055
0.27,-0.056,0.865,0.149
0.28,-0.105,1.03,0.066
0.29,-0.273,0.695,-0.068
0.3,-0.366,1.223,-0.18
0.31,-0.085,0.99,0.097
0.32,-0.123,1.046,0.03
0.33,-0.182,0.833,0.218
0.34,-0.081,0.839,0.041
0.35,-0.48,1.145,-0.21
0.36,-0.132,0.907,-0.035
0.37,-0.154,1.127,0.081
0.38,-0.179,0.645,0.186
0.39,-0.416,1.117,-0.107
0.4,-0.285,0.897,-0.171
0.41,-0.042,1.179,0.072
0.42,-0.07,0.845,0.143
0.43,-0.308,0.765,0.032
0.44,-0.429,1.26,-0.206
0.45,-0.038,0.845,-0.037
0.46,-0.084,1.193,0.146
0.47,-0.134,0.664,0.088
0.48,-0.517,1.145,-0.173
0.49,-0.121,1.049,-0.133
0.5,-0.063,0.887,0.09
0.51,-0.145,0.996,0.221
0.52,-0.377,0.741,-0.093
0.53,-0.295,1.226,-0.191
0.54,0.078,0.958,0.056
0.55,-0.214,1.001,0.17
0.56,-0.232,0.726,0.053
0.57,-0.423,1.127,-0.246
0.58,-0.055,1.059,-0.119
0.59,-0.078,0.826,0.206
0.6,-0.186,1.024,0.088
0.61,-0.369,0.764,-0.186
0.62,-0.168,1.36,-0.079
0.63,0.014,0.785,0.09
0.64,-0.194,0.926,0.223
0.65,-0.344,0.932,-0.107
0.66,-0.243,0.946,-0.217
0.67,-0.12,1.274,0.097
0.68,-0.195,0.68,0.165
0.69,-0.226,1.034,0.021
0.7,-0.405,0.94,-0.166
0.71,-0.076,1.148,-0.053
0.72,-0.092,0.831,0.128
0.73,-0.299,0.849,0.103
0.74,-0.309,1.026,-0.214
0.75,-0.183,0.931,-0.075
0.76,-0.165,1.171,0.144
0.77,-0.088,0.614,0.141
0.78,-0.382,1.11,-0.069
0.79,-0.33,0.911,-0.177
0.8,-0.116,1.103,0.093
0.81,-0.179,0.949,0.139
0.82,-0.168,0.732,-0.014
0.83,-0.408,1.295,-0.187
0.84,-0.206,0.851,0.033
0.85,-0.23,1.153,0.188
0.86,-0.026,0.736,0.089
0.87,-0.454,1.038,-0.245
0.88,-0.159,1.072,-0.094
0.89,-0.164,0.995,0.098
0.9,-0.15,0.916,0.145
0.91,-0.153,0.697,-0.035
0.92,-0.42,1.377,-0.2
0.93,-0.153,0.844,0.128
0.94,-0.221,1.09,0.152
0.95,-0.156,0.669,0.03
0.96,-0.39,1.131,-0.173
0.97,-0.084,1.191,-0.102
0.98,-0.174,0.738,0.165
0.99,-0.185,1.074,0.162
1.0,-0.325,0.687,-0.166
1.01,-0.347,1.253,-0.076
1.02,-0.021,0.949,0.077
1.03,-0.191,0.868,0.071
1.04,-0.264,0.885,-0.009
1.05,-0.324,1.013,-0.219
1.06,-0.113,1.143,-0.003
1.07,0.004,0.739,0.175
1.08,-0.24,1.023,0.017
1.09,-0.419,0.801,-0.159
1.1,-0.125,1.25,-0.057
1.11,-0.164,0.876,0.102
1.12,-0.217,0.784,0.176
1.13,-0.29,1.035,-0.15
1.14,-0.276,0.997,-0.088
1.15,-0.003,1.181,0.097
1.16,-0.087,0.596,0.143
1.17,-0.396,1.099,0.056
1.18,-0.289,0.908,-0.175
1.19,-0.179,1.196,-0.02
1.2,-0.073,0.817,0.095
1.21,-0.073,0.859,-0.038
1.22,-0.465,1.114,-0.133
1.23,-0.128,0.922,-0.055
1.24,-0.136,1.13,0.084
1.25,-0.052,0.635,0.141
1.26,-0.412,1.127,-0.133
1.27,-0.25,0.874,-0.137
1.28,-0.055,1.215,0.045
1.29,-0.104,0.804,0.094
1.3,-0.22,0.81,0.065
1.31,-0.485,1.289,-0.207
1.32,-0.043,0.773,-0.025
1.33,-0.077,1.218,0.113
1.34,-0.144,0.658,0.08
1.35,-0.454,1.133,-0.184
1.36,-0.126,1.053,-0.067
1.37,-0.069,0.948,0.122
1.38,-0.26,0.971,0.167
1.39,-0.285,0.716,-0.111
1.4,-0.341,1.269,-0.157
1.41,-0.017,0.915,0.105
1.42,-0.22,1.054,0.145
1.43,-0.235,0.674,0.042
1.44,-0.338,1.155,-0.165
1.45,-0.112,1.057,-0.038
1.46,-0.209,0.796,0.241
1.47,-0.163,1.025,0.084
1.48,-0.434,0.758,-0.195
1.49,-0.174,1.332,-0.044
1.5,-0.081,0.833,0.139
1.51,-0.263,0.894,0.2
1.52,-0.292,0.902,-0.068
1.53,-0.292,1.034,-0.23
1.54,-0.043,1.21,0.089
1.55,-0.104,0.649,0.157
1.56,-0.303,1.059,0.044
1.57,-0.373,0.928,-0.205
1.58,-0.11,1.139,-0.062
1.59,-0.123,0.832,0.178
1.6,-0.19,0.852,0.12
1.61,-0.381,1.022,-0.169
1.62,-0.212,0.951,-0.08
1.63,-0.075,1.247,0.092
1.64,-0.107,0.573,0.106
1.65,-0.292,1.115,-0.06
1.66,-0.32,0.905,-0.195
1.67,-0.121,1.098,0.095
1.68,-0.12,0.949,0.117
1.69,-0.175,0.753,-0.001
1.7,-0.398,1.252,-0.204
1.71,-0.082,0.854,-0.105
1.72,-0.16,1.125,0.127
1.73,-0.149,0.686,0.165
1.74,-0.419,1.108,-0.15
1.75,-0.235,0.986,-0.102
1.76,-0.086,1.053,0.112
1.77,-0.145,0.892,0.091
1.78,-0.167,0.721,-0.027
1.79,-0.4,1.363,-0.198
1.8,-0.134,0.835,0.027
1.81,-0.114,1.093,0.178
1.82,-0.129,0.736,0.024
1.83,-0.495,1.024,-0.156
1.84,-0.078,1.153,-0.075
1.85,-0.121,0.814,0.119
1.86,-0.189,0.986,0.146
1.87,-0.205,0.75,-0.144
1.88,-0.366,1.261,-0.174
1.89,-0.047,0.917,0.166
1.9,-0.061,0.999,0.113
1.91,-0.386,0.825,-0.023
1.92,-0.243,0.986,-0.179
1.93,-0.13,1.21,-0.039
1.94,-0.216,0.665,0.267
1.95,-0.108,1.01,0.003
1.96,-0.473,0.778,-0.216
1.97,-0.102,1.271,-0.075
1.98,-0.011,0.795,0.096
1.99,-0.26,0.972,0.164
2.0,-0.273,0.837,-0.108
2.01,-0.301,1.061,-0.14
2.02,-0.035,1.175,0.096
2.03,-0.101,0.631,0.145
2.04,-0.309,1.086,-0.0
2.05,-0.315,0.917,-0.224
2.06,-0.138,1.188,0.005
2.07,-0.1,0.793,0.177
2.08,-0.172,0.855,0.036
2.09,-0.401,1.064,-0.168
2.1,-0.117,1.03,-0.091
2.11,-0.114,1.055,0.043
2.12,-0.128,0.681,0.181
2.13,-0.409,1.123,-0.097
2.14,-0.291,0.841,-0.175
2.15,-0.08,1.181,0.148
2.16,-0.169,0.81,0.134
2.17,-0.246,0.801,0.011
2.18,-0.372,1.287,-0.217
2.19,-0.047,0.818,-0.09
2.2,-0.201,1.152,0.218
2.21,-0.099,0.677,0.069
2.22,-0.432,1.13,-0.187
2.23,-0.233,1.015,0.009
2.24,-0.11,1.01,0.124
2.25,-0.17,0.892,0.132
2.26,-0.3,0.777,-0.031
2.27,-0.341,1.228,-0.208
2.28,-0.087,0.851,0.135
2.29,-0.162,1.106,0.114
2.3,-0.176,0.649,-0.025
2.31,-0.426,1.159,-0.133
2.32,-0.093,1.13,-0.031
2.33,-0.227,0.811,0.169
2.34,-0.117,1.016,0.083
2.35,-0.301,0.77,-0.255
2.36,-0.239,1.281,-0.072
2.37,-0.006,0.858,0.123
2.38,-0.198,0.903,0.136
2.39,-0.256,0.872,-0.008
2.4,-0.308,1.042,-0.228
2.41,-0.093,1.155,0.042
2.42,-0.062,0.78,0.115
2.43,-0.265,1.038,0.037
2.44,-0.365,0.849,-0.196
2.45,-0.125,1.243,-0.082
2.46,-0.163,0.771,0.129
2.47,-0.117,0.888,0.102
2.48,-0.333,0.98,-0.18
2.49,-0.287,0.931,-0.056
2.5,0.002,1.271,0.065
2.51,-0.135,0.592,0.111
2.52,-0.232,1.093,-0.001
2.53,-0.352,0.936,-0.249
2.54,-0.124,1.081,0.036
2.55,-0.032,0.996,0.175
2.56,-0.184,0.74,0.037
2.57,-0.407,1.177,-0.159
2.58,-0.087,0.959,-0.135
2.59,-0.186,1.087,0.078
2.6,-0.075,0.678,0.187
2.61,-0.358,1.083,-0.133
2.62,-0.32,0.874,-0.171
2.63,0.048,1.113,0.087
2.64,-0.218,0.974,0.107
2.65,-0.214,0.699,0.041
2.66,-0.375,1.362,-0.246
2.67,-0.116,0.841,-0.038
2.68,-0.134,1.101,0.148
2.69,-0.036,0.726,0.094
2.7,-0.459,1.013,-0.189
2.71,-0.16,1.113,-0.082
2.72,-0.045,0.934,0.038
2.73,-0.176,0.968,0.11
2.74,-0.104,0.715,-0.025
2.75,-0.483,1.319,-0.207
2.76,-0.134,0.857,0.143
2.77,-0.175,1.205,0.146
2.78,-0.3,0.598,0.031
2.79,-0.244,1.203,-0.184
2.8,-0.166,1.077,-0.053
2.81,-0.203,0.849,0.239
2.82,-0.077,0.999,0.105
2.83,-0.449,0.735,-0.238
2.84,-0.184,1.295,-0.097
2.85,0.028,0.906,0.065
2.86,-0.313,0.912,0.179
2.87,-0.138,0.827,0.032
2.88,-0.432,1.092,-0.221
2.89,-0.137,1.047,0.03
2.9,-0.012,0.892,0.166
2.91,-0.253,0.991,0.046
2.92,-0.384,0.802,-0.153
2.93,-0.14,1.321,-0.063
2.94,-0.103,0.767,0.086
2.95,-0.173,0.909,0.172
2.96,-0.292,0.939,-0.141
2.97,-0.293,0.84,-0.178
2.98,-0.029,1.308,0.085
2.99,-0.062,0.698,0.101
3.0,-0.275,1.045,0.025
3.01,-0.326,0.953,-0.191
3.02,-0.191,1.094,-0.026
3.03,-0.187,0.826,0.192
3.04,-0.064,0.829,0.07
3.05,-0.526,1.052,-0.223
3.06,-0.146,0.882,-0.011
3.07,-0.148,1.328,0.103
3.08,-0.182,0.574,0.112
3.09,-0.204,1.073,-0.022
3.1,-0.398,1.016,-0.217
3.11,-0.177,0.979,0.096
3.12,-0.027,1.069,0.088
3.13,-0.211,0.69,0.007
3.14,-0.463,1.188,-0.174
3.15,0.023,0.886,-0.121
3.16,-0.173,1.136,0.114
3.17,-0.17,0.71,0.192
3.18,-0.345,0.995,-0.167
3.19,-0.292,1.041,-0.186
3.2,-0.086,1.006,0.118
3.21,-0.171,0.976,0.143
3.22,-0.171,0.664,0.028
3.23,-0.444,1.37,-0.197
3.24,-0.035,0.801,-0.034
3.25,-0.203,1.121,0.186
3.26,-0.104,0.807,0.104
3.27,-0.389,0.941,-0.218
3.28,-0.164,1.173,-0.084
3.29,-0.104,0.872,0.129
3.3,-0.202,1.007,0.204
3.31,-0.221,0.652,-0.051
3.32,-0.408,1.273,-0.168
3.33,0.031,0.962,0.058
3.34,-0.198,1.003,0.157
3.35,-0.178,0.848,0.046
3.36,-0.423,0.97,-0.173
3.37,-0.143,1.272,-0.083
3.38,-0.054,0.729,0.128
3.39,-0.2,1.082,0.125
3.4,-0.325,0.741,-0.169
3.41,-0.226,1.151,-0.123
3.42,0.004,1.085,0.09
3.43,-0.2,0.749,0.164
3.44,-0.29,0.989,0.019
3.45,-0.336,0.943,-0.2
3.46,-0.149,1.196,-0.012
3.47,-0.049,0.722,0.198
3.48,-0.244,1.011,0.081
3.49,-0.349,0.901,-0.17
3.5,-0.13,1.091,-0.071
3.51,-0.109,0.998,0.071
3.52,-0.121,0.693,0.155
3.53,-0.337,1.155,-0.073
3.54,-0.3,0.79,-0.159
3.55,-0.154,1.22,0.089
3.56,-0.104,0.8,0.187
3.57,-0.223,0.922,0.036
3.58,-0.398,0.942,-0.183
3.59,-0.063,1.092,-0.008
3.6,-0.198,0.973,0.184
3.61,-0.129,0.738,0.105
3.62,-0.39,1.191,-0.202
3.63,-0.223,0.886,-0.082
3.64,-0.094,1.231,0.103
3.65,-0.124,0.665,0.155
3.66,-0.335,1.006,-0.066
3.67,-0.329,0.989,-0.193
3.68,-0.079,1.005,0.088
3.69,-0.125,1.082,0.152
3.7,-0.116,0.648,-0.004
3.71,-0.472,1.278,-0.184
3.72,-0.035,0.894,-0.097
3.73,-0.127,1.073,0.088
3.74,-0.062,0.797,0.117
3.75,-0.4,1.004,-0.148
3.76,-0.302,1.099,-0.109
3.77,-0.013,0.991,0.102
3.78,-0.147,1.029,0.085
3.79,-0.216,0.662,0.017
3.8,-0.416,1.348,-0.186
3.81,-0.173,0.909,0.016
3.82,-0.172,1.014,0.171
3.83,-0.125,0.853,0.017
3.84,-0.44,0.994,-0.178
3.85,-0.172,1.169,-0.082
3.86,-0.051,0.752,0.111
3.87,-0.159,1.073,0.159
3.88,-0.296,0.689,-0.126
3.89,-0.242,1.173,-0.167
3.9,-0.076,1.024,0.053
3.91,-0.158,0.796,0.163
3.92,-0.214,0.978,0.027
3.93,-0.382,0.964,-0.25
3.94,-0.068,1.191,-0.037
3.95,-0.103,0.772,0.161
3.96,-0.21,1.03,0.092
3.97,-0.271,0.794,-0.176
3.98,-0.216,1.124,-0.049
3.99,-0.125,1.014,0.091
4.0,-0.096,0.715,0.153
4.01,-0.333,1.14,-0.07
4.02,-0.276,0.829,-0.179
4.03,-0.142,1.241,0.1
4.04,-0.163,0.725,0.155
4.05,-0.145,0.933,0.062
4.06,-0.371,1.069,-0.219
4.07,-0.143,1.008,-0.052
4.08,-0.155,1.014,0.098
4.09,-0.133,0.689,0.12
4.1,-0.426,1.172,-0.136
4.11,-0.25,0.874,-0.129
4.12,-0.099,1.235,0.104
4.13,-0.121,0.717,0.134
4.14,-0.228,0.905,0.052
4.15,-0.436,1.174,-0.176
4.16,-0.027,0.866,0.019
4.17,-0.179,1.195,0.159
4.18,-0.124,0.622,0.063
4.19,-0.447,1.183,-0.214
4.2,-0.091,0.965,-0.093
4.21,-0.141,1.064,0.125
4.22,-0.153,0.86,0.176
4.23,-0.298,0.813,-0.122
4.24,-0.328,1.212,-0.165
4.25,-0.048,0.897,0.131
4.26,-0.186,1.073,0.089
4.27,-0.179,0.667,0.019
4.28,-0.406,1.269,-0.213
4.29,-0.132,0.954,-0.017
4.3,-0.16,0.915,0.225
4.31,-0.182,0.977,0.154
4.32,-0.392,0.783,-0.174
4.33,-0.229,1.321,-0.056
4.34,-0.074,0.856,0.098
4.35,-0.166,0.963,0.099
4.36,-0.19,0.787,-0.037
4.37,-0.407,1.154,-0.171
4.38,-0.131,1.064,0.037
4.39,-0.109,0.837,0.165
4.4,-0.144,0.862,-0.01
4.41,-0.448,0.954,-0.141
4.42,-0.126,1.286,-0.074
4.43,-0.06,0.699,0.101
4.44,-0.207,1.068,0.145
4.45,-0.365,0.776,-0.149
4.46,-0.273,1.128,-0.106
4.47,-0.092,1.079,0.108
4.48,-0.112,0.722,0.126
4.49,-0.273,1.047,-0.006
4.5,-0.295,0.907,-0.214
4.51,-0.156,1.208,0.03
4.52,-0.092,0.718,0.237
4.53,-0.207,1.002,0.007
4.54,-0.348,0.921,-0.211
4.55,-0.184,1.043,-0.055
4.56,-0.113,1.029,0.155
4.57,-0.167,0.697,0.151
4.58,-0.36,1.135,-0.144
4.59,-0.21,0.813,-0.164
4.6,-0.083,1.284,0.107
4.61,-0.116,0.699,0.151
4.62,-0.252,0.896,0.001
4.63,-0.325,1.145,-0.238
4.64,-0.132,0.882,0.009
4.65,-0.181,1.108,0.163
4.66,-0.131,0.632,0.084
4.67,-0.442,1.177,-0.164
4.68,-0.209,0.939,-0.03
4.69,-0.09,1.135,0.084
4.7,-0.082,0.777,0.125
4.71,-0.245,0.874,-0.091
4.72,-0.29,1.156,-0.223
4.73,-0.101,0.895,0.139
4.74,-0.157,1.121,0.153
4.75,-0.16,0.663,0.033
4.76,-0.501,1.285,-0.202
4.77,-0.116,0.932,-0.044
4.78,-0.117,0.971,0.153
4.79,-0.218,0.924,0.127
4.8,-0.292,0.799,-0.187
4.81,-0.306,1.24,-0.116
4.82,-0.014,0.858,0.08
4.83,-0.167,1.015,0.128
4.84,-0.237,0.738,-0.014
4.85,-0.362,1.211,-0.214
4.86,-0.09,1.019,0.022
4.87,-0.151,0.811,0.189
4.88,-0.164,1.024,0.047
4.89,-0.361,0.792,-0.227
4.9,-0.203,1.277,-0.009
4.91,-0.077,0.825,0.16
4.92,-0.303,0.957,0.146
4.93,-0.244,0.865,-0.109
4.94,-0.308,1.058,-0.145
4.95,-0.153,1.146,0.112
4.96,-0.073,0.685,0.091
4.97,-0.231,1.069,-0.039
4.98,-0.357,0.905,-0.127
4.99,-0.253,1.208,0.05
5.0,-0.153,0.764,0.214
5.01,-0.193,0.885,0.075
5.02,-0.391,1.028,-0.204
5.03,-0.126,0.993,-0.055
5.04,-0.103,1.186,0.076
5.05,-0.106,0.616,0.134
5.06,-0.34,1.13,-0.085
5.07,-0.259,0.899,-0.196
5.08,-0.08,1.205,0.083
5.09,-0.124,0.828,0.155
5.1,-0.225,0.844,0.058
5.11,-0.459,1.212,-0.227
5.12,-0.13,0.803,-0.051
5.13,-0.142,1.203,0.19
5.14,-0.162,0.652,0.114
5.15,-0.416,1.1,-0.18
5.16,-0.113,1.068,-0.138
5.17,-0.094,1.025,0.096
5.18,-0.13,0.875,0.144
5.19,-0.241,0.741,-0.069
5.2,-0.351,1.24,-0.236
5.21,0.015,0.962,0.094
5.22,-0.235,1.094,0.144
5.23,-0.161,0.656,0.038
5.24,-0.395,1.304,-0.243
5.25,-0.126,0.886,-0.03
5.26,-0.155,1.043,0.222
5.27,-0.276,0.873,0.148
5.28,-0.298,0.801,-0.2
5.29,-0.244,1.302,-0.11
5.3,-0.117,0.823,0.094
5.31,-0.064,0.997,0.127
5.32,-0.284,0.734,-0.005
5.33,-0.369,1.191,-0.197
5.34,-0.036,1.041,0.054
5.35,-0.28,0.921,0.163
5.36,-0.056,0.957,0.043
5.37,-0.319,0.897,-0.23
5.38,-0.228,1.278,-0.048
5.39,0.015,0.745,0.139
5.4,-0.243,1.028,0.124
5.41,-0.316,0.795,-0.124
5.42,-0.255,1.06,-0.16
5.43,-0.167,1.163,0.121
5.44,-0.132,0.662,0.147
5.45,-0.211,1.068,-0.013
5.46,-0.431,0.906,-0.246
5.47,-0.005,1.132,-0.075
5.48,-0.057,0.838,0.151
5.49,-0.267,0.909,0.114
5.5,-0.274,0.936,-0.213
5.51,-0.211,1.012,-0.088
5.52,-0.128,1.131,0.127
5.53,-0.054,0.595,0.122
5.54,-0.45,1.142,-0.023
5.55,-0.208,0.863,-0.18
5.56,-0.17,1.169,0.001
5.57,-0.146,0.824,0.163
5.58,-0.042,0.855,-0.001
5.59,-0.505,1.197,-0.197
5.6,-0.115,0.847,-0.055
5.61,-0.116,1.141,0.118
5.62,-0.144,0.636,0.161
5.63,-0.385,1.121,-0.145
5.64,-0.229,0.942,-0.109
5.65,-0.176,1.138,0.085
5.66,-0.105,0.822,0.131
5.67,-0.245,0.765,-0.004
5.68,-0.391,1.282,-0.246
5.69,0.038,0.825,-0.041
5.7,-0.199,1.209,0.166
5.71,-0.186,0.671,0.075
5.72,-0.41,1.107,-0.197
5.73,-0.179,1.078,-0.052
5.74,-0.058,0.903,0.118
5.75,-0.161,0.989,0.116
5.76,-0.3,0.722,-0.109
5.77,-0.292,1.283,-0.161
5.78,-0.042,0.901,0.115
5.79,-0.179,0.994,0.156
5.8,-0.206,0.759,0.04
5.81,-0.406,1.115,-0.176
5.82,-0.166,1.089,-0.009
5.83,-0.044,0.791,0.129
5.84,-0.184,1.088,0.118
5.85,-0.352,0.745,-0.193
5.86,-0.292,1.248,-0.107
5.87,0.001,0.912,0.055
5.88,-0.125,0.896,0.114
5.89,-0.304,0.924,0.017
5.9,-0.357,0.972,-0.217
5.91,-0.099,1.2,-0.009
5.92,-0.13,0.732,0.189
5.93,-0.142,1.008,0.006
5.94,-0.366,0.865,-0.222
5.95,-0.14,1.19,-0.043
5.96,-0.103,0.837,0.101
5.97,-0.174,0.816,0.169
5.98,-0.354,1.058,-0.103
5.99,-0.263,0.841,-0.169
6.0,-0.071,1.267,0.083
6.01,-0.162,0.627,0.14
6.02,-0.256,1.037,0.028
6.03,-0.372,0.902,-0.212
6.04,-0.096,1.123,0.001
6.05,-0.058,0.851,0.154
6.06,-0.173,0.848,0.019
6.07,-0.349,1.101,-0.214
6.08,-0.18,0.953,-0.021
6.09,-0.221,1.075,0.165
6.1,-0.12,0.667,0.13
6.11,-0.393,1.13,-0.149
6.12,-0.225,0.873,-0.177
6.13,-0.008,1.186,0.126
6.14,-0.135,0.824,0.143
6.15,-0.252,0.773,-0.025
6.16,-0.379,1.252,-0.174
6.17,-0.094,0.854,0.012
6.18,-0.245,1.157,0.189
6.19,-0.068,0.707,0.067
6.2,-0.444,1.117,-0.216
6.21,-0.251,1.016,-0.043
6.22,0.01,1.003,0.051
6.23,-0.052,0.912,0.085
6.24,-0.332,0.763,-0.04
6.25,-0.328,1.277,-0.157
6.26,-0.1,0.861,0.054
6.27,-0.147,1.099,0.164
6.28,-0.109,0.715,0.003
6.29,-0.485,1.147,-0.139
6.3,-0.114,1.084,-0.001
6.31,-0.144,0.817,0.108
6.32,-0.177,1.01,0.134
6.33,-0.351,0.746,-0.147
6.34,-0.275,1.273,-0.106
6.35,-0.037,0.898,0.132
6.36,-0.157,0.908,0.099
6.37,-0.326,0.837,-0.024
6.38,-0.347,1.027,-0.177
6.39,-0.085,1.183,0.022
6.4,-0.11,0.743,0.168
6.41,-0.245,1.026,0.033
6.42,-0.36,0.819,-0.176
6.43,-0.214,1.274,-0.048
6.44,-0.055,0.793,0.135
6.45,-0.215,0.891,0.185
6.46,-0.374,1.003,-0.131
6.47,-0.259,0.888,-0.132
6.48,-0.108,1.299,0.171
6.49,-0.129,0.637,0.133
6.5,-0.349,1.047,-0.029
6.51,-0.291,0.974,-0.142
6.52,-0.206,1.099,0.043
6.53,-0.122,0.854,0.202
6.54,-0.125,0.782,0.051
6.55,-0.416,1.144,-0.227
6.56,-0.127,0.878,-0.007
6.57,-0.121,1.228,0.099
6.58,-0.173,0.618,0.119
6.59,-0.272,1.08,-0.132
6.6,-0.273,1.059,-0.21
6.61,-0.102,0.984,0.146
6.62,-0.13,0.98,0.154
6.63,-0.283,0.673,-0.027
6.64,-0.356,1.302,-0.179
6.65,-0.087,0.874,-0.023
6.66,-0.217,1.088,0.187
6.67,-0.116,0.78,0.066
6.68,-0.431,1.015,-0.193
6.69,-0.221,1.15,-0.049
6.7,-0.052,0.864,0.126
6.71,-0.158,1.042,0.166
6.72,-0.321,0.69,-0.106
6.73,-0.27,1.281,-0.144
6.74,-0.051,0.966,0.117
6.75,-0.209,0.917,0.157
6.76,-0.119,0.822,-0.002
6.77,-0.469,1.084,-0.2
6.78,-0.129,1.115,-0.038
6.79,-0.048,0.735,0.161
6.8,-0.246,1.06,0.118
6.81,-0.35,0.753,-0.17
6.82,-0.27,1.242,-0.028
6.83,-0.055,0.886,0.119
6.84,-0.148,0.825,0.146
6.85,-0.302,0.852,-0.112
6.86,-0.286,1.009,-0.176
6.87,-0.089,1.22,0.117
6.88,-0.096,0.699,0.111
6.89,-0.286,1.05,-0.022
6.9,-0.333,0.918,-0.143
6.91,-0.206,1.221,0.025
6.92,-0.144,0.723,0.21
6.93,-0.202,0.91,0.088
6.94,-0.386,1.017,-0.234
6.95,-0.126,0.977,-0.077
6.96,-0.119,1.128,0.147
6.97,-0.157,0.634,0.146
6.98,-0.333,1.119,-0.134
6.99,-0.181,0.914,-0.156
7.0,-0.151,1.227,0.122
7.01,-0.168,0.777,0.15
7.02,-0.189,0.808,-0.005
7.03,-0.383,1.28,-0.249
7.04,-0.003,0.846,-0.03
7.05,-0.162,1.171,0.139
7.06,-0.119,0.643,0.118
7.07,-0.435,1.14,-0.189
7.08,-0.123,1.009,-0.106
7.09,-0.138,0.982,0.14
7.1,-0.164,0.943,0.156
7.11,-0.334,0.751,-0.092
7.12,-0.304,1.23,-0.152
7.13,-0.027,0.929,0.078
7.14,-0.219,1.028,0.135
7.15,-0.127,0.706,0.011
7.16,-0.383,1.194,-0.235
7.17,-0.09,1.019,0.012
7.18,-0.214,0.887,0.224
7.19,-0.176,0.997,0.079
7.2,-0.34,0.719,-0.248
7.21,-0.169,1.344,-0.079
7.22,-0.035,0.802,0.092
7.23,-0.242,0.925,0.18
7.24,-0.217,0.855,-0.106
7.25,-0.336,1.047,-0.209
7.26,-0.027,1.153,0.122
7.27,-0.069,0.693,0.096
7.28,-0.273,1.047,0.024
7.29,-0.372,0.874,-0.176
7.3,-0.155,1.188,-0.067
7.31,-0.134,0.784,0.17
7.32,-0.11,0.926,0.099
7.33,-0.389,0.997,-0.177
7.34,-0.245,0.935,-0.011
7.35,-0.077,1.188,0.119
7.36,-0.068,0.605,0.106
7.37,-0.334,1.108,-0.06
7.38,-0.326,0.874,-0.189
7.39,-0.159,1.177,0.097
7.4,-0.193,0.889,0.173
7.41,-0.183,0.758,0.043
7.42,-0.444,1.259,-0.199
7.43,-0.084,0.874,-0.023
7.44,-0.157,1.161,0.117
7.45,-0.111,0.697,0.154
7.46,-0.365,1.114,-0.164
7.47,-0.323,0.98,-0.142
7.48,-0.036,1.016,0.091
7.49,-0.101,0.955,0.119
7.5,-0.289,0.717,-0.054
7.51,-0.388,1.26,-0.21
7.52,-0.023,0.831,0.037
7.53,-0.177,1.184,0.111
7.54,-0.047,0.685,0.005
7.55,-0.423,1.122,-0.231
7.56,-0.141,1.082,-0.102
7.57,-0.046,0.818,0.148
7.58,-0.249,1.021,0.113
7.59,-0.246,0.722,-0.169
7.6,-0.279,1.292,-0.141
7.61,-0.054,0.898,0.09
7.62,-0.143,0.934,0.1
7.63,-0.244,0.834,-0.029
7.64,-0.358,1.081,-0.196
7.65,-0.058,1.113,-0.049
7.66,-0.099,0.884,0.186
7.67,-0.124,1.002,0.029
7.68,-0.394,0.812,-0.214
7.69,-0.143,1.281,-0.031
7.7,-0.064,0.772,0.169
7.71,-0.315,0.997,0.125
7.72,-0.236,0.845,-0.181
7.73,-0.302,1.092,-0.146
7.74,-0.153,1.117,0.147
7.75,-0.064,0.676,0.146
7.76,-0.399,1.068,-0.002
7.77,-0.306,0.887,-0.199
7.78,-0.036,1.2,-0.048
7.79,-0.115,0.781,0.212
7.8,-0.088,0.946,0.074
7.81,-0.424,1.044,-0.238
7.82,-0.156,0.94,-0.131
7.83,-0.071,1.092,0.066
7.84,-0.141,0.647,0.161
7.85,-0.428,1.124,-0.096
7.86,-0.209,0.834,-0.155
7.87,-0.076,1.242,0.054
7.88,-0.098,0.74,0.145
7.89,-0.174,0.845,0.022
7.9,-0.442,1.283,-0.287
7.91,-0.037,0.763,-0.072
7.92,-0.12,1.209,0.15
7.93,-0.189,0.602,0.125
7.94,-0.442,1.119,-0.159
7.95,-0.196,1.008,-0.052
7.96,-0.121,1.038,0.123
7.97,-0.145,0.862,0.161
7.98,-0.309,0.783,-0.039
7.99,-0.313,1.23,-0.23
8.0,-0.029,0.89,0.106
8.01,-0.222,1.129,0.143
8.02,-0.155,0.681,-0.003
8.03,-0.508,1.18,-0.147
8.04,-0.091,1.053,-0.057
8.05,-0.115,0.844,0.123
8.06,-0.242,1.002,0.153
8.07,-0.307,0.786,-0.166
8.08,-0.305,1.256,-0.148
8.09,0.001,0.818,0.126
8.1,-0.092,0.986,0.128
8.11,-0.361,0.799,-0.008
8.12,-0.371,1.092,-0.157
8.13,-0.094,1.131,-0.024
8.14,-0.189,0.788,0.134
8.15,-0.151,1.042,0.043
8.16,-0.341,0.829,-0.187
8.17,-0.254,1.242,-0.032
8.18,-0.019,0.797,0.168
8.19,-0.188,0.921,0.107
8.2,-0.309,0.946,-0.14
8.21,-0.265,0.98,-0.108
8.22,-0.119,1.218,0.123
8.23,-0.084,0.665,0.122
8.24,-0.397,1.061,-0.03
8.25,-0.192,0.87,-0.219
8.26,-0.1,1.196,-0.034
8.27,-0.099,0.808,0.239
8.28,-0.192,0.828,0.123
8.29,-0.495,1.114,-0.191
8.3,-0.017,0.898,-0.094
8.31,-0.133,1.175,0.091
8.32,-0.157,0.644,0.182
8.33,-0.342,1.072,-0.137
8.34,-0.297,0.949,-0.138
8.35,-0.037,1.141,0.111
8.36,-0.203,0.888,0.155
8.37,-0.213,0.676,0.005
8.38,-0.415,1.386,-0.198
8.39,-0.036,0.798,-0.053
8.4,-0.152,1.122,0.153
8.41,-0.097,0.687,0.114
8.42,-0.474,1.079,-0.195
8.43,-0.159,1.041,-0.107
8.44,-0.113,0.924,0.132
8.45,-0.182,0.983,0.149
8.46,-0.288,0.695,-0.062
8.47,-0.307,1.278,-0.186
8.48,0.015,0.932,0.102
8.49,-0.192,1.056,0.131
8.5,-0.185,0.613,0.015
8.51,-0.405,1.288,-0.2
8.52,-0.151,0.949,0.028
8.53,-0.121,0.913,0.206
8.54,-0.155,0.954,0.038
8.55,-0.395,0.811,-0.203
8.56,-0.188,1.298,-0.071
8.57,-0.047,0.806,0.133
8.58,-0.246,1.035,0.178
8.59,-0.252,0.785,-0.105
8.6,-0.392,1.078,-0.145
8.61,-0.076,1.103,0.109
8.62,-0.146,0.794,0.148
8.63,-0.236,0.991,0.02
8.64,-0.401,0.921,-0.183
8.65,-0.143,1.239,-0.037
8.66,-0.343,0.781,-0.145
8.67,-0.235,1.265,-0.103
8.68,-0.076,0.931,0.103
8.69,-0.118,0.832,0.119
8.7,-0.258,0.94,-0.012
8.71,-0.363,1.002,-0.222
8.72,-0.158,1.144,0.038
8.73,-0.112,0.751,0.171
8.74,-0.159,1.017,-0.018
8.75,-0.349,0.862,-0.132
8.76,-0.238,1.169,-0.036
8.77,-0.071,0.845,0.085
8.78,-0.106,0.849,0.135
8.79,-0.374,1.03,-0.133
8.8,-0.284,0.906,-0.044
8.81,-0.113,1.249,0.071
8.82,-0.147,0.555,0.145
8.83,-0.183,1.079,-0.031
8.84,-0.396,0.974,-0.209
8.85,-0.073,0.999,0.017
8.86,-0.089,1.066,0.122
8.87,-0.115,0.72,0.082
8.88,-0.354,1.214,-0.192
8.89,-0.221,0.902,-0.101
8.9,-0.159,1.116,0.124
8.91,-0.123,0.743,0.185
8.92,-0.422,0.971,-0.109
8.93,-0.249,0.954,-0.206
8.94,-0.039,1.032,0.131
8.95,-0.244,1.044,0.162
8.96,-0.108,0.638,0.008
8.97,-0.413,1.437,-0.183
8.98,-0.142,0.855,-0.013
8.99,-0.158,1.052,0.138
9.0,-0.125,0.79,0.117
9.01,-0.456,0.912,-0.176
9.02,-0.21,1.183,-0.051
9.03,-0.073,0.907,0.087
9.04,-0.228,1.014,0.124
9.05,-0.183,0.675,-0.025
9.06,-0.389,1.278,-0.202
9.07,-0.107,0.91,0.051
9.08,-0.114,1.008,0.127
9.09,-0.144,0.834,0.004
9.1,-0.435,0.968,-0.136
9.11,-0.112,1.248,-0.077
9.12,-0.15,0.708,0.157
9.13,-0.139,1.096,0.148
9.14,-0.304,0.758,-0.172
9.15,-0.237,1.141,-0.154
9.16,0.013,1.087,0.094
9.17,-0.214,0.721,0.156
9.18,-0.277,0.998,0.015
9.19,-0.273,0.968,-0.243
9.2,-0.17,1.17,0.001
9.21,-0.069,0.753,0.182
9.22,-0.217,0.992,0.037
9.23,-0.355,0.809,-0.139
9.24,-0.146,1.294,-0.078
9.25,-0.17,0.777,0.068
9.26,-0.049,0.838,0.159
9.27,-0.343,1.074,-0.137
9.28,-0.283,0.855,-0.131
9.29,-0.041,1.316,0.106
9.3,-0.11,0.602,0.085
9.31,-0.264,1.082,0.029
9.32,-0.336,0.996,-0.208
9.33,-0.176,1.016,0.008
9.34,-0.154,0.948,0.192
9.35,-0.13,0.776,0.073
9.36,-0.479,1.129,-0.195
9.37,-0.165,0.875,0.002
9.38,-0.087,1.195,0.094
9.39,-0.189,0.681,0.186
9.4,-0.275,1.045,-0.057
9.41,-0.281,0.983,-0.259
9.42,-0.052,1.054,0.143
9.43,-0.177,0.981,0.13
9.44,-0.178,0.674,0.013
9.45,-0.438,1.37,-0.18
9.46,-0.135,0.829,0.004
9.47,-0.171,1.092,0.152
9.48,-0.132,0.814,0.123
9.49,-0.369,0.957,-0.183
9.5,-0.213,1.135,-0.033
9.51,-0.079,0.959,0.065
9.52,-0.188,0.971,0.106
9.53,-0.151,0.69,-0.013
9.54,-0.398,1.349,-0.226
9.55,-0.07,0.877,-0.019
9.56,-0.077,1.036,0.124
9.57,-0.143,0.807,0.029
9.58,-0.421,0.968,-0.157
9.59,-0.142,1.245,-0.081
9.6,-0.085,0.659,0.083
9.61,-0.101,1.083,0.108
9.62,-0.339,0.7,-0.149
9.63,-0.256,1.173,-0.119
9.64,-0.006,1.07,0.101
9.65,-0.224,0.796,0.13
9.66,-0.212,0.95,0.003
9.67,-0.296,0.996,-0.192
9.68,-0.211,1.185,0.005
9.69,-0.073,0.711,0.209
9.7,-0.251,1.05,0.068
9.71,-0.419,0.82,-0.214
9.72,-0.073,1.157,-0.036
9.73,-0.13,1.037,0.052
9.74,-0.2,0.667,0.164
9.75,-0.255,1.151,-0.072
9.76,-0.415,0.846,-0.219
9.77,-0.102,1.238,0.09
9.78,-0.04,0.771,0.134
9.79,-0.31,0.914,0.018
9.8,-0.291,1.044,-0.193
9.81,-0.141,1.029,-0.06
9.82,-0.186,0.969,0.137
9.83,-0.042,0.75,0.154
9.84,-0.458,1.165,-0.202
9.85,-0.286,0.816,-0.071
9.86,-0.08,1.293,0.088
9.87,-0.2,0.716,0.092
9.88,-0.216,0.894,0.02
9.89,-0.324,1.173,-0.232
9.9,-0.119,0.873,0.021
9.91,-0.127,1.174,0.196
9.92,-0.198,0.625,0.061
9.93,-0.483,1.174,-0.186
9.94,-0.029,0.999,-0.09
9.95,-0.139,0.976,0.1
9.96,-0.205,0.877,0.223
9.97,-0.3,0.833,-0.108
9.98,-0.345,1.178,-0.184
9.99,0.016,0.921,0.105
10.0,-0.153,1.079,0.117
10.01,-0.296,0.69,0.016
10.02,-0.324,1.282,-0.175
10.03,-0.148,0.943,-0.091
10.04,-0.093,1.053,0.243
10.05,-0.147,0.817,0.052
10.06,-0.458,0.91,-0.183
10.07,-0.035,1.24,-0.071
10.08,-0.089,0.824,0.07
10.09,-0.238,1.023,0.194
10.1,-0.183,0.74,-0.118
10.11,-0.391,1.194,-0.215
10.12,-0.053,0.996,0.17
10.13,-0.167,0.952,0.168
10.14,-0.332,0.835,0.017
10.15,-0.286,0.985,-0.172
10.16,-0.187,1.264,-0.039
10.17,-0.166,0.667,0.181
10.18,-0.093,1.075,0.109
10.19,-0.376,0.776,-0.192
10.2,-0.273,1.122,-0.044
10.21,-0.028,1.057,0.073
10.22,-0.186,0.714,0.156
10.23,-0.298,1.055,0.038
10.24,-0.393,0.897,-0.21
10.25,-0.172,1.198,0.034
10.26,-0.01,0.833,0.138
10.27,-0.206,0.928,0.007
10.28,-0.387,0.928,-0.127
10.29,-0.125,1.071,-0.118
10.3,-0.092,0.984,0.095
10.31,-0.112,0.712,0.174
10.32,-0.41,1.134,-0.151
10.33,-0.225,0.767,-0.199
10.34,-0.08,1.335,0.116
10.35,-0.142,0.737,0.13
10.36,-0.214,0.872,-0.012
10.37,-0.401,1.156,-0.178
10.38,-0.115,0.889,-0.013
10.39,-0.203,1.099,0.186
10.4,-0.036,0.681,0.066
10.41,-0.398,1.149,-0.22
10.42,-0.131,0.925,-0.015
10.43,-0.16,1.168,0.131
10.44,-0.202,0.782,0.176
10.45,-0.183,0.85,-0.052
10.46,-0.412,1.251,-0.204
10.47,-0.108,0.844,0.11
10.48,-0.13,1.174,0.124
10.49,-0.18,0.616,0.005
10.5,-0.363,1.25,-0.206
10.51,-0.137,0.982,-0.084
10.52,-0.165,0.909,0.118
10.53,-0.045,0.972,0.114
10.54,-0.409,0.759,-0.148
10.55,-0.316,1.202,-0.088
10.56,0.024,0.924,0.08
10.57,-0.192,0.995,0.154
10.58,-0.221,0.728,0.033
10.59,-0.315,1.24,-0.213
10.6,-0.147,0.973,-0.035
10.61,-0.079,0.847,0.202
10.62,-0.185,0.981,0.083
10.63,-0.437,0.774,-0.151
10.64,-0.192,1.357,-0.067
10.65,-0.073,0.77,0.058
10.66,-0.146,0.921,0.196
10.67,-0.257,0.893,-0.041
10.68,-0.314,1.012,-0.227
10.69,-0.148,1.133,0.062
10.7,-0.069,0.792,0.169
10.71,-0.233,1.004,-0.01
10.72,-0.383,0.869,-0.166
10.73,-0.111,1.259,-0.072
10.74,-0.128,0.75,0.099
10.75,-0.129,0.914,0.184
10.76,-0.411,1.008,-0.18
10.77,-0.304,0.899,-0.086
10.78,-0.009,1.322,0.078
10.79,-0.101,0.595,0.094
10.8,-0.357,1.082,0.053
10.81,-0.3,0.946,-0.223
10.82,-0.129,1.073,-0.002
10.83,-0.159,0.947,0.205
10.84,-0.144,0.746,0.021
10.85,-0.435,1.131,-0.21
10.86,-0.028,1.022,-0.101
10.87,-0.201,1.048,0.087
10.88,-0.139,0.651,0.217
10.89,-0.4,1.161,-0.183
10.9,-0.259,0.823,-0.14
10.91,-0.057,1.252,0.149
10.92,-0.143,0.784,0.128
10.93,-0.25,0.846,-0.024
10.94,-0.36,1.204,-0.212
10.95,-0.112,0.841,0.012
10.96,-0.172,1.154,0.213
10.97,-0.135,0.656,0.099
10.98,-0.47,1.172,-0.197
10.99,-0.151,0.97,-0.039
11.0,-0.105,1.063,0.099
11.01,-0.132,0.823,0.091
11.02,-0.271,0.824,-0.036
11.03,-0.337,1.293,-0.195
11.04,-0.096,0.833,0.033
11.05,-0.038,1.153,0.107
11.06,-0.205,0.658,-0.015
11.07,-0.467,1.141,-0.109
11.08,-0.082,1.07,-0.045
11.09,-0.232,0.864,0.17
11.1,-0.098,1.023,0.127
11.11,-0.365,0.751,-0.189
11.12,-0.319,1.235,-0.081
11.13,0.088,0.904,0.098
11.14,-0.215,0.944,0.135
11.15,-0.268,0.81,-0.01
11.16,-0.304,1.094,-0.21
11.17,-0.158,1.093,0.018
11.18,-0.065,0.812,0.198
11.19,-0.215,1.011,-0.001
11.2,-0.38,0.809,-0.155
11.21,-0.089,1.336,-0.067
11.22,-0.112,0.778,0.092
11.23,-0.164,0.887,0.201
11.24,-0.27,1.005,-0.115
11.25,-0.362,0.89,-0.194
11.26,0.021,1.235,0.07
11.27,-0.074,0.669,0.099
11.28,-0.367,1.027,0.056
11.29,-0.256,0.963,-0.195
11.3,-0.141,1.148,-0.041
11.31,-0.266,0.776,0.256
11.32,-0.078,0.851,0.129
11.33,-0.495,1.111,-0.249
11.34,-0.206,0.84,-0.045
11.35,-0.033,1.236,0.093
11.36,-0.185,0.64,0.159
11.37,-0.332,1.078,-0.045
11.38,-0.243,0.948,-0.232
11.39,-0.138,1.049,0.063
11.4,-0.079,1.05,0.118
11.41,-0.124,0.666,0.009
11.42,-0.482,1.268,-0.187
11.43,-0.058,0.85,-0.072
11.44,-0.122,1.101,0.112
11.45,-0.151,0.737,0.198
11.46,-0.425,1.005,-0.134
11.47,-0.32,1.012,-0.134
11.48,-0.02,1.044,0.11
11.49,-0.133,1.006,0.081
11.5,-0.239,0.65,0.022
11.51,-0.359,1.374,-0.256
11.52,-0.022,0.817,-0.057
11.53,-0.165,1.082,0.213
11.54,-0.092,0.783,0.083
11.55,-0.425,1.017,-0.205
11.56,-0.179,1.18,-0.037
11.57,-0.094,0.789,0.134
11.58,-0.262,1.038,0.163
11.59,-0.241,0.74,-0.118
11.6,-0.339,1.227,-0.208
11.61,-0.031,0.984,0.107
11.62,-0.186,0.931,0.141
11.63,-0.198,0.837,-0.011
11.64,-0.362,1.018,-0.187
11.65,-0.125,1.211,-0.063
11.66,-0.134,0.743,0.18
11.67,-0.145,1.075,0.106
11.68,-0.399,0.782,-0.176
11.69,-0.218,1.266,-0.041
11.7,-0.063,0.842,0.097
11.71,-0.229,0.89,0.196
11.72,-0.215,0.936,-0.099
11.73,-0.349,0.965,-0.166
11.74,-0.094,1.189,0.087
11.75,-0.099,0.785,0.162
11.76,-0.209,1.039,0.03
11.77,-0.377,0.896,-0.18
11.78,-0.174,1.2,-0.035
11.79,-0.154,0.842,0.142
11.8,-0.152,0.86,0.183
11.81,-0.376,1.003,-0.161
11.82,-0.298,0.863,-0.101
11.83,-0.057,1.306,0.085
11.84,-0.096,0.582,0.1
11.85,-0.314,1.044,0.05
11.86,-0.303,1.0,-0.263
11.87,-0.148,1.043,0.023
11.88,-0.144,0.982,0.205
11.89,-0.135,0.742,0.08
11.9,-0.497,1.187,-0.161
11.91,-0.11,0.865,-0.073
11.92,-0.149,1.165,0.083
11.93,-0.128,0.684,0.149
11.94,-0.286,1.052,-0.138
11.95,-0.313,0.97,-0.174
11.96,-0.158,1.039,0.171
11.97,-0.111,1.03,0.114
11.98,-0.216,0.647,0.001
11.99,-0.448,1.355,-0.164
12.0,-0.134,0.857,-0.013
12.01,-0.248,1.094,0.186
12.02,-0.096,0.811,0.133
12.03,-0.416,0.955,-0.188
12.04,-0.29,1.105,-0.052
12.05,-0.085,0.941,0.115
12.06,-0.207,1.0,0.12
12.07,-0.155,0.673,-0.004
12.08,-0.424,1.355,-0.244
12.09,-0.049,0.828,-0.038
12.1,-0.089,1.065,0.182
12.11,-0.14,0.853,0.023
12.12,-0.47,0.867,-0.152
12.13,-0.115,1.286,-0.043
12.14,-0.092,0.742,0.082
12.15,-0.227,1.021,0.178
12.16,-0.194,0.768,-0.142
12.17,-0.368,1.156,-0.196
12.18,-0.072,1.049,0.128
12.19,-0.05,0.892,0.095
12.2,-0.344,0.91,-0.009
12.21,-0.313,0.922,-0.157
12.22,-0.144,1.299,-0.052
12.23,-0.169,0.653,0.176
12.24,-0.085,1.051,0.077
12.25,-0.351,0.87,-0.229
12.26,-0.273,1.058,-0.033
12.27,-0.031,1.12,0.109
12.28,-0.161,0.671,0.093
12.29,-0.236,1.124,-0.05
12.3,-0.325,0.906,-0.199
12.31,-0.254,1.177,0.11
12.32,-0.047,0.757,0.156
12.33,-0.218,0.939,-0.025
12.34,-0.427,1.003,-0.151
12.35,-0.072,0.983,-0.043
12.36,-0.263,1.055,0.143
12.37,0.006,0.684,0.165
12.38,-0.438,1.163,-0.176
12.39,-0.26,0.812,-0.132
12.4,-0.037,1.255,0.107
12.41,-0.147,0.77,0.107
12.42,-0.3,0.866,0.011
12.43,-0.274,1.23,-0.227
12.44,-0.094,0.829,0.004
12.45,-0.199,1.156,0.214
12.46,-0.086,0.682,0.052
12.47,-0.534,1.193,-0.19
12.48,-0.064,0.989,-0.035
12.49,-0.143,1.111,0.093
12.5,-0.185,0.761,0.223
12.51,-0.39,0.955,-0.161
12.52,-0.268,1.06,-0.191
12.53,0.019,1.022,0.099
12.54,-0.174,1.03,0.107
12.55,-0.251,0.644,0.013
12.56,-0.297,1.337,-0.217
12.57,-0.077,0.879,-0.049
12.58,-0.192,1.026,0.239
12.59,-0.084,0.854,0.028
12.6,-0.458,0.921,-0.198
12.61,-0.187,1.206,-0.004
12.62,-0.066,0.84,0.115
12.63,-0.267,1.032,0.156
12.64,-0.179,0.743,-0.128
12.65,-0.323,1.223,-0.199
12.66,-0.115,0.992,0.14
12.67,-0.102,0.876,0.141
12.68,-0.283,0.907,-0.033
12.69,-0.36,0.949,-0.154
12.7,-0.126,1.244,-0.079
12.71,-0.167,0.67,0.171
12.72,-0.09,1.058,0.093
12.73,-0.384,0.853,-0.225
12.74,-0.277,1.081,-0.071
12.75,-0.052,1.019,0.109
12.76,-0.18,0.726,0.135
12.77,-0.276,1.067,-0.065
12.78,-0.325,0.826,-0.191
12.79,-0.153,1.289,0.11
12.8,-0.096,0.741,0.162
12.81,-0.154,0.926,0.037
12.82,-0.419,1.017,-0.209
12.83,-0.085,1.003,-0.031
12.84,-0.191,1.029,0.153
12.85,-0.121,0.699,0.126
12.86,-0.413,1.167,-0.154
12.87,-0.228,0.857,-0.082
12.88,-0.128,1.252,0.109
12.89,-0.12,0.712,0.108
12.9,-0.247,0.869,-0.001
12.91,-0.341,1.178,-0.225
12.92,-0.067,0.882,0.013
12.93,-0.174,1.16,0.189
12.94,-0.128,0.636,-0.019
12.95,-0.474,1.198,-0.182
12.96,-0.072,0.948,-0.049
12.97,-0.118,1.056,0.117
12.98,-0.248,0.842,0.184
12.99,-0.223,0.865,-0.13
13.0,-0.344,1.191,-0.218
13.01,0.032,0.871,0.16
13.02,-0.176,1.135,0.149
13.03,-0.319,0.628,0.002
13.04,-0.323,1.234,-0.215
13.05,-0.116,1.015,-0.056
13.06,-0.204,0.901,0.253
13.07,-0.115,0.918,0.076
13.08,-0.395,0.836,-0.182
13.09,-0.164,1.306,0.007
13.1,-0.165,0.806,0.139
13.11,-0.28,0.992,0.163
13.12,-0.159,0.781,-0.117
13.13,-0.361,1.085,-0.202
13.14,-0.066,1.094,0.142
13.15,-0.123,0.806,0.109
13.16,-0.308,0.959,-0.036
13.17,-0.295,0.864,-0.116
13.18,-0.14,1.296,-0.035
13.19,-0.187,0.698,0.212
13.2,-0.12,0.978,0.087
13.21,-0.396,0.947,-0.245
13.22,-0.234,0.994,-0.033
13.23,-0.074,1.15,0.081
13.24,-0.157,0.6,0.155
13.25,-0.325,1.137,-0.067
13.26,-0.275,0.833,-0.202
13.27,-0.136,1.173,0.035
13.28,-0.06,0.851,0.153
13.29,-0.175,0.823,0.015
13.3,-0.442,1.13,-0.182
13.31,-0.152,1.009,-0.065
13.32,-0.18,0.959,0.113
13.33,-0.086,0.718,0.141
13.34,-0.495,1.184,-0.181
13.35,-0.211,0.812,-0.066
13.36,-0.08,1.251,0.104
13.37,-0.113,0.734,0.113
13.38,-0.235,0.941,-0.038
13.39,-0.314,1.116,-0.239
13.4,-0.111,0.925,-0.021
13.41,-0.074,1.133,0.135
13.42,-0.221,0.612,0.026
13.43,-0.475,1.214,-0.196
13.44,-0.069,0.959,-0.051
13.45,-0.208,1.073,0.11
13.46,-0.058,0.781,0.171
13.47,-0.31,0.884,-0.171
13.48,-0.307,1.173,-0.153
13.49,-0.013,0.941,0.08
13.5,-0.168,1.04,0.063
13.51,-0.172,0.672,0.007
13.52,-0.359,1.311,-0.2
13.53,-0.21,0.945,0.079
13.54,-0.163,0.969,0.187
13.55,-0.106,0.931,0.079
13.56,-0.419,0.81,-0.211
13.57,-0.199,1.291,-0.073
13.58,-0.033,0.801,0.076
13.59,-0.248,1.031,0.133
13.6,-0.19,0.765,-0.076
13.61,-0.368,1.118,-0.219
13.62,-0.073,1.048,0.06
13.63,-0.062,0.885,0.151
13.64,-0.255,0.971,0.025
13.65,-0.316,0.851,-0.193
13.66,-0.102,1.307,-0.094
13.67,-0.15,0.67,0.13
13.68,-0.106,0.989,0.151
13.69,-0.4,0.903,-0.155
13.7,-0.311,1.002,-0.036
13.71,-0.059,1.191,0.037
13.72,-0.148,0.613,0.125
13.73,-0.211,1.149,-0.006
13.74,-0.292,0.933,-0.243
13.75,-0.272,1.117,0.052
13.76,-0.094,0.854,0.191
13.77,-0.141,0.855,0.06
13.78,-0.517,1.063,-0.177
13.79,-0.027,0.957,-0.08
13.8,-0.203,1.149,0.058
13.81,-0.125,0.639,0.221
13.82,-0.265,1.163,-0.108
13.83,-0.375,0.85,-0.174
13.84,-0.093,1.148,0.142
13.85,-0.097,0.946,0.078
13.86,-0.175,0.734,-0.001
13.87,-0.355,1.284,-0.2
13.88,-0.138,0.864,-0.036
13.89,-0.24,1.089,0.166
13.9,-0.001,0.717,0.123
13.91,-0.499,1.08,-0.169
13.92,-0.276,0.971,-0.041
13.93,-0.093,1.08,0.113
13.94,-0.188,0.892,0.094
13.95,-0.191,0.744,-0.02
13.96,-0.39,1.314,-0.234
13.97,-0.126,0.798,0.054
13.98,-0.101,1.169,0.116
13.99,-0.112,0.706,0.031
14.0,-0.414,1.075,-0.18
14.01,-0.13,1.135,-0.107
14.02,-0.132,0.807,0.092
14.03,-0.174,1.037,0.15
14.04,-0.282,0.721,-0.142
14.05,-0.271,1.192,-0.196
14.06,0.018,0.975,0.092
14.07,-0.171,0.965,0.128
14.08,-0.244,0.802,0.022
14.09,-0.409,1.095,-0.144
14.1,-0.171,1.097,-0.034
14.11,-0.161,0.719,0.168
14.12,-0.222,0.984,0.087
14.13,-0.394,0.794,-0.18
14.14,-0.158,1.318,-0.065
14.15,-0.105,0.73,0.136
14.16,-0.193,0.996,0.205
14.17,-0.294,0.856,-0.097
14.18,-0.292,1.016,-0.153
14.19,-0.109,1.161,0.047
14.2,-0.095,0.777,0.167
14.21,-0.227,1.037,0.024
14.22,-0.371,0.912,-0.161
14.23,-0.156,1.255,-0.022
14.24,-0.087,0.745,0.175
14.25,-0.23,0.932,0.164
14.26,-0.355,0.99,-0.173
14.27,-0.224,0.934,-0.157
14.28,-0.106,1.2,0.136
14.29,-0.115,0.639,0.15
14.3,-0.379,1.062,-0.03
14.31,-0.303,0.869,-0.181
14.32,-0.098,1.16,0.062
14.33,-0.172,0.862,0.151
14.34,-0.139,0.796,0.08
14.35,-0.369,1.176,-0.23
14.36,-0.14,0.89,-0.057
14.37,-0.141,1.145,0.059
14.38,-0.073,0.648,0.124
14.39,-0.341,1.125,-0.148
14.4,-0.252,0.974,-0.138
14.41,-0.104,1.087,0.095
14.42,-0.095,0.894,0.149
14.43,-0.177,0.717,-0.028
14.44,-0.447,1.307,-0.187
14.45,-0.079,0.831,-0.018
14.46,-0.151,1.096,0.141
14.47,-0.132,0.768,0.123
14.48,-0.472,1.071,-0.191
14.49,-0.209,1.027,-0.084
14.5,0.01,1.006,0.104
14.51,-0.235,0.991,0.09
14.52,-0.152,0.697,-0.072
14.53,-0.367,1.352,-0.19
14.54,-0.127,0.825,0.074
14.55,-0.003,1.072,0.112
14.56,-0.221,0.75,-0.041
14.57,-0.447,1.014,-0.094
14.58,-0.139,1.262,0.044
14.59,-0.238,0.778,0.209
14.6,-0.16,1.041,0.108
14.61,-0.316,0.785,-0.193
14.62,-0.309,1.224,-0.079
14.63,-0.009,0.923,0.073
14.64,-0.129,0.873,0.092
14.65,-0.281,0.941,-0.092
14.66,-0.354,0.921,-0.173
14.67,-0.122,1.229,0.05
14.68,-0.129,0.767,0.124
14.69,-0.156,1.011,0.013
14.7,-0.384,0.877,-0.202
14.71,-0.171,1.171,-0.038
14.72,-0.149,0.842,0.179
14.73,-0.146,0.803,0.142
14.74,-0.407,1.092,-0.17
14.75,-0.238,0.867,-0.109
14.76,-0.11,1.318,0.144
14.77,-0.141,0.641,0.109
14.78,-0.26,1.004,-0.015
14.79,-0.374,1.011,-0.205
14.8,-0.116,0.998,0.045
14.81,-0.163,1.023,0.145
14.82,-0.099,0.684,0.013
14.83,-0.431,1.21,-0.173
14.84,-0.13,0.895,-0.025
14.85,-0.159,1.161,0.118
14.86,-0.155,0.721,0.105
14.87,-0.265,1.011,-0.093
14.88,-0.376,1.114,-0.168
14.89,-0.104,0.904,0.125
14.9,-0.138,1.08,0.126
14.91,-0.247,0.631,-0.004
14.92,-0.399,1.302,-0.182
14.93,-0.063,0.91,-0.052
14.94,-0.192,1.067,0.2
14.95,-0.059,0.712,-0.005
14.96,-0.472,1.109,-0.246
14.97,-0.102,1.061,-0.007
14.98,-0.137,0.965,0.167
14.99,-0.319,0.946,0.16
15.0,-0.208,0.732,-0.146
15.01,-0.304,1.315,-0.178
15.02,-0.01,0.86,0.18
15.03,-0.183,1.005,0.162
15.04,-0.255,0.736,-0.047
15.05,-0.272,1.121,-0.239
15.06,-0.075,1.137,-0.01
15.07,-0.21,0.781,0.225
15.08,-0.173,1.004,0.025
15.09,-0.476,0.785,-0.155
15.1,-0.141,1.277,-0.08
15.11,-0.099,0.821,0.148
15.12,-0.208,0.882,0.174
15.13,-0.323,0.952,-0.113
15.14,-0.286,0.967,-0.145
15.15,-0.078,1.217,0.118
15.16,-0.126,0.629,0.118
15.17,-0.338,1.085,-0.012
15.18,-0.337,0.917,-0.2
15.19,-0.107,1.166,0.039
15.2,-0.167,0.887,0.206
15.21,-0.162,0.78,0.038
15.22,-0.376,1.135,-0.237
15.23,-0.048,0.944,-0.053
15.24,-0.137,1.138,0.122
15.25,-0.173,0.652,0.18
15.26,-0.369,1.084,-0.135
15.27,-0.303,0.927,-0.179
15.28,-0.005,1.166,0.136
15.29,-0.158,0.882,0.11
15.3,-0.231,0.759,-0.015
15.31,-0.333,1.327,-0.234
15.32,-0.087,0.824,-0.003
15.33,-0.15,1.156,0.19
15.34,-0.111,0.699,0.022
15.35,-0.488,1.091,-0.201
15.36,-0.118,1.124,-0.048
15.37,-0.094,0.898,0.11
15.38,-0.218,0.971,0.122
15.39,-0.169,0.716,-0.135
15.4,-0.376,1.308,-0.165
15.41,-0.09,0.884,0.158
15.42,-0.125,1.029,0.125
15.43,-0.275,0.733,-0.023
15.44,-0.314,1.09,-0.151
15.45,-0.094,1.195,-0.016
15.46,-0.171,0.73,0.218
15.47,-0.169,1.063,0.057
15.48,-0.338,0.781,-0.24
15.49,-0.235,1.274,-0.035
15.5,-0.012,0.843,0.105
15.51,-0.253,0.882,0.112
15.52,-0.251,0.96,-0.123
15.53,-0.254,0.958,-0.182
15.54,-0.116,1.226,0.142
15.55,-0.077,0.626,0.106
15.56,-0.292,1.052,-0.047
15.57,-0.235,0.953,-0.173
15.58,-0.126,1.193,0.001
15.59,-0.183,0.806,0.219
15.6,-0.161,0.806,0.019
15.61,-0.387,1.123,-0.272
15.62,-0.077,0.912,-0.054
15.63,-0.144,1.18,0.146
15.64,-0.2,0.626,0.183
15.65,-0.383,1.069,-0.122
15.66,-0.268,0.989,-0.216
15.67,0.052,1.11,0.075
15.68,-0.17,0.922,0.099
15.69,-0.232,0.726,0.002
15.7,-0.421,1.3,-0.215
15.71,-0.098,0.803,-0.025
15.72,-0.073,1.183,0.147
15.73,-0.156,0.703,0.026
15.74,-0.426,1.108,-0.175
15.75,-0.185,0.969,-0.06
15.76,-0.202,0.979,0.164
15.77,-0.121,0.912,0.184
15.78,-0.422,0.831,-0.159
15.79,-0.304,1.19,-0.097
15.8,0.022,0.917,0.069
15.81,-0.186,1.036,0.12
15.82,-0.197,0.73,0.037
15.83,-0.44,1.228,-0.247
15.84,-0.126,0.908,0.018
15.85,0.006,0.998,0.141
15.86,-0.258,0.908,0.01
15.87,-0.382,0.81,-0.13
15.88,-0.143,1.362,-0.117
15.89,-0.071,0.645,0.065
15.9,-0.088,1.037,0.164
15.91,-0.354,0.813,-0.166
15.92,-0.28,1.051,-0.134
15.93,0.022,1.167,0.085
15.94,-0.194,0.636,0.152
15.95,-0.238,1.099,0.054
15.96,-0.395,0.925,-0.281
15.97,-0.15,1.149,0.028
15.98,0.003,0.866,0.176
15.99,-0.292,0.85,0.034
16.0,-0.387,0.995,-0.15
16.01,-0.052,1.078,-0.139
16.02,-0.171,0.981,0.072
16.03,-0.042,0.676,0.213
16.04,-0.414,1.157,-0.149
16.05,-0.309,0.817,-0.125
16.06,0.023,1.272,0.061
16.07,-0.133,0.763,0.052
16.08,-0.255,0.864,0.075
16.09,-0.41,1.221,-0.221
16.1,-0.131,0.834,-0.01
16.11,-0.082,1.215,0.155
16.12,-0.121,0.593,-0.003
16.13,-0.474,1.186,-0.121
16.14,-0.058,1.084,-0.079
16.15,-0.159,0.975,0.096
16.16,-0.159,0.865,0.219
16.17,-0.274,0.816,-0.174
16.18,-0.307,1.19,-0.177
16.19,-0.014,0.887,0.132
16.2,-0.169,1.054,0.101
16.21,-0.244,0.678,0.008
16.22,-0.346,1.226,-0.2
16.23,-0.071,0.99,-0.006
16.24,-0.226,0.874,0.246
16.25,-0.061,0.986,0.07
16.26,-0.376,0.813,-0.22
16.27,-0.176,1.32,0.001
16.28,-0.065,0.788,0.092
16.29,-0.33,0.969,0.178
16.3,-0.236,0.865,-0.074
16.31,-0.295,1.069,-0.211
16.32,-0.046,1.135,0.079
16.33,-0.05,0.704,0.149
16.34,-0.325,1.049,0.037
16.35,-0.394,0.873,-0.177
16.36,-0.052,1.172,-0.084
16.37,-0.135,0.814,0.195
16.38,-0.194,0.871,0.123
16.39,-0.39,1.04,-0.221
16.4,-0.179,0.976,-0.058
16.41,-0.11,1.142,0.077
16.42,-0.08,0.621,0.145
16.43,-0.361,1.132,-0.053
16.44,-0.26,0.841,-0.207
16.45,-0.099,1.164,0.104
16.46,-0.139,0.843,0.15
16.47,-0.223,0.815,0.046
16.48,-0.401,1.232,-0.257
16.49,-0.055,0.851,-0.071
16.5,-0.183,1.182,0.159
16.51,-0.106,0.651,0.116
16.52,-0.432,1.116,-0.141
16.53,-0.238,1.014,-0.079
16.54,-0.109,1.046,0.097
16.55,-0.158,0.871,0.151
16.56,-0.173,0.763,-0.04
16.57,-0.342,1.079,-0.189
16.58,-0.057,0.986,0.099
16.59,-0.178,1.17,0.122
16.6,-0.142,0.586,-0.01
16.61,-0.427,1.319,-0.161
16.62,-0.102,0.942,-0.084
16.63,-0.099,0.985,0.153
16.64,-0.111,0.9,0.133
16.65,-0.361,0.839,-0.188
16.66,-0.216,1.224,-0.096
16.67,-0.042,0.916,0.105
16.68,-0.196,0.975,0.129
16.69,-0.222,0.71,0.017
16.7,-0.393,1.25,-0.239
16.71,-0.053,0.958,-0.014
16.72,-0.104,0.994,0.176
16.73,-0.149,0.924,0.003
16.74,-0.408,0.793,-0.154
16.75,-0.124,1.33,-0.089
16.76,-0.048,0.781,0.092
16.77,-0.25,0.991,0.138
16.78,-0.222,0.798,-0.149
16.79,-0.271,1.098,-0.159
16.8,-0.044,1.114,0.091
16.81,-0.134,0.704,0.134
16.82,-0.242,1.063,-0.024
16.83,-0.341,0.888,-0.216
16.84,-0.142,1.184,-0.011
16.85,-0.066,0.788,0.175
16.86,-0.116,0.948,0.052
16.87,-0.35,0.953,-0.221
16.88,-0.152,1.023,-0.054
16.89,-0.089,1.087,0.075
16.9,-0.141,0.642,0.207
16.91,-0.352,1.152,-0.063
16.92,-0.354,0.788,-0.208
16.93,-0.112,1.217,0.129
16.94,-0.105,0.885,0.115
16.95,-0.213,0.82,0.017
16.96,-0.298,1.191,-0.247
16.97,-0.101,0.887,-0.096
16.98,-0.177,1.072,0.147
16.99,-0.127,0.713,0.189
17.0,-0.023,0.867,0.115
17.01,-0.177,0.994,0.111
17.02,-0.284,0.772,-0.015
17.03,-0.406,1.106,-0.18
17.04,-0.119,1.083,-0.024
17.05,-0.022,0.82,0.136
17.06,-0.201,1.016,0.015
17.07,-0.399,0.813,-0.158
17.08,-0.181,1.261,-0.066
17.09,-0.115,0.723,0.113
17.1,-0.079,0.979,0.136
17.11,-0.372,0.952,-0.129
17.12,-0.304,0.929,-0.092
17.13,-0.072,1.222,0.013
17.14,-0.078,0.633,0.116
17.15,-0.296,1.093,0.063
17.16,-0.35,0.918,-0.24
17.17,-0.105,1.114,-0.049
17.18,-0.145,0.838,0.166
17.19,-0.033,0.849,0.091
17.2,-0.422,1.1,-0.25
17.21,-0.15,0.879,-0.073
17.22,-0.135,1.2,0.097
17.23,-0.144,0.596,0.199
17.24,-0.293,1.137,-0.09
17.25,-0.269,0.865,-0.185
17.26,-0.166,1.1,0.122
17.27,-0.141,0.988,0.122
17.28,-0.151,0.877,-0.002
17.29,-0.377,1.174,-0.161
17.3,-0.118,0.94,-0.025
17.31,-0.256,1.085,0.165
17.32,-0.035,0.718,0.121
17.33,-0.456,1.129,-0.159
17.34,-0.253,0.839,-0.038
17.35,-0.048,1.251,0.078
17.36,-0.168,0.763,0.108
17.37,-0.203,0.877,0.001
17.38,-0.416,1.252,-0.242
17.39,-0.14,0.801,0.023
17.4,-0.027,1.217,0.134
17.41,-0.146,0.7,0.019
17.42,-0.476,1.172,-0.146
17.43,-0.124,0.983,-0.09
17.44,-0.126,0.965,0.093
17.45,-0.205,0.927,0.231
17.46,-0.29,0.809,-0.126
17.47,-0.304,1.155,-0.167
17.48,-0.044,0.932,0.12
17.49,-0.121,1.098,0.148
17.5,-0.211,0.695,0.045
17.51,-0.357,1.199,-0.215
17.52,-0.148,1.019,-0.037
17.53,-0.181,0.843,0.162
17.54,-0.132,1.027,0.129
17.55,-0.306,0.756,-0.214
17.56,-0.29,1.287,-0.031
17.57,-0.029,0.922,0.059
17.58,-0.148,0.909,0.115
17.59,-0.291,0.871,0.035
17.6,-0.358,1.059,-0.24
17.61,-0.145,1.099,-0.018
17.62,-0.074,0.855,0.15
17.63,-0.108,0.977,0.001
17.64,-0.433,0.816,-0.15
17.65,-0.134,1.264,-0.072
17.66,-0.097,0.761,0.041
17.67,-0.166,0.869,0.227
17.68,-0.292,1.0,-0.095
17.69,-0.316,0.882,-0.128
17.7,-0.026,1.285,0.099
17.71,-0.156,0.668,0.114
17.72,-0.258,1.052,0.077
17.73,-0.319,1.005,-0.247
17.74,-0.122,1.059,-0.052
17.75,-0.191,0.891,0.252
17.76,-0.113,0.777,0.099
17.77,-0.422,1.066,-0.202
17.78,-0.18,0.89,-0.036
17.79,-0.187,1.282,0.084
17.8,-0.146,0.606,0.132
17.81,-0.212,1.086,0.009
17.82,-0.383,0.972,-0.227
17.83,-0.058,0.961,0.056
17.84,-0.122,1.166,0.175
17.85,-0.169,0.635,0.04
17.86,-0.463,1.209,-0.108
17.87,-0.093,0.984,-0.146
17.88,-0.143,1.107,0.04
17.89,-0.144,0.735,0.243
17.9,-0.348,0.972,-0.156
17.91,-0.279,1.004,-0.187
17.92,-0.086,1.01,0.141
17.93,-0.162,1.026,0.123
17.94,-0.204,0.649,0.049
17.95,-0.35,1.364,-0.207
17.96,-0.102,0.846,-0.051
17.97,-0.231,1.072,0.196
17.98,-0.085,0.833,0.11
17.99,-0.391,0.905,-0.212
18.0,-0.251,1.186,-0.048
18.01,-0.039,0.906,0.102
18.02,-0.216,1.038,0.133
18.03,-0.142,0.713,-0.014
18.04,-0.487,1.236,-0.208
18.05,-0.125,0.906,0.014
18.06,-0.077,1.064,0.127
18.07,-0.167,0.864,0.06
18.08,-0.414,0.888,-0.176
18.09,-0.114,1.156,-0.095
18.1,-0.132,0.788,0.106
18.11,-0.158,1.062,0.142
18.12,-0.232,0.72,-0.15
18.13,-0.317,1.236,-0.156
18.14,-0.02,0.961,0.103
18.15,-0.13,0.896,0.12
18.16,-0.238,0.863,0.019
18.17,-0.371,1.042,-0.176
18.18,-0.126,1.152,-0.04
18.19,-0.116,0.742,0.199
18.2,-0.154,1.069,0.059
18.21,-0.333,0.738,-0.188
18.22,-0.19,1.217,-0.05
18.23,-0.1,0.976,0.09
18.24,-0.148,0.725,0.168
18.25,-0.28,1.077,0.009
18.26,-0.408,0.909,-0.231
18.27,-0.114,1.186,0.034
18.28,0.021,0.823,0.109
18.29,-0.252,0.978,-0.018
18.3,-0.299,0.871,-0.172
18.31,-0.191,1.125,-0.05
18.32,-0.159,0.93,0.162
18.33,-0.148,0.735,0.166
18.34,-0.356,1.147,-0.143
18.35,-0.239,0.794,-0.157
18.36,-0.059,1.343,0.103
18.37,-0.097,0.686,0.154
18.38,-0.286,0.949,0.018
18.39,-0.32,1.101,-0.197
18.4,-0.159,0.92,-0.035
18.41,-0.176,1.063,0.16
18.42,-0.031,0.689,0.112
18.43,-0.514,1.151,-0.202
18.44,-0.169,0.847,-0.053
18.45,-0.078,1.233,0.099
18.46,-0.16,0.745,0.143
18.47,-0.287,0.903,-0.013
18.48,-0.307,1.157,-0.257
18.49,-0.093,0.867,0.041
18.5,-0.117,1.2,0.158
18.51,-0.154,0.601,0.033
18.52,-0.472,1.246,-0.162
18.53,-0.077,0.97,-0.084
18.54,-0.11,0.938,0.094
18.55,-0.172,0.915,0.17
18.56,-0.305,0.84,-0.148
18.57,-0.363,1.146,-0.154
18.58,-0.025,0.91,0.145
18.59,-0.173,1.072,0.115
18.6,-0.228,0.649,0.014
18.61,-0.307,1.303,-0.191
18.62,-0.147,0.959,-0.029
18.63,-0.165,0.857,0.245
18.64,-0.111,0.992,0.087
18.65,-0.456,0.822,-0.203
18.66,-0.149,1.275,-0.079
18.67,-0.035,0.793,0.115
18.68,-0.22,0.984,0.18
18.69,-0.236,0.821,-0.09
18.7,-0.323,1.042,-0.181
18.71,-0.164,1.107,0.098
18.72,-0.101,0.81,0.15
18.73,-0.24,0.994,-0.007
18.74,-0.387,0.882,-0.131
18.75,-0.137,1.27,-0.072
18.76,-0.102,0.727,0.113
18.77,-0.126,0.954,0.155
18.78,-0.372,0.957,-0.197
18.79,-0.273,0.947,-0.097
18.8,-0.036,1.241,0.11
18.81,-0.136,0.607,0.119
18.82,-0.331,1.109,0.033
18.83,-0.285,0.906,-0.223
18.84,-0.187,1.159,0.0
18.85,-0.054,0.856,0.154
18.86,-0.18,0.826,0.048
18.87,-0.429,1.127,-0.154
18.88,-0.066,0.911,-0.105
18.89,-0.172,1.144,0.145
18.9,-0.115,0.668,0.168
18.91,-0.418,1.134,-0.152
18.92,-0.268,0.81,-0.113
18.93,-0.041,1.318,0.064
18.94,-0.133,0.697,0.098
18.95,-0.268,0.888,0.002
18.96,-0.287,1.186,-0.191
18.97,-0.177,0.891,0.002
18.98,-0.156,1.102,0.142
18.99,-0.057,0.69,0.082
19.0,-0.546,1.193,-0.212
19.01,-0.115,0.878,-0.06
19.02,-0.092,1.163,0.088
19.03,-0.18,0.809,0.153
19.04,-0.258,0.823,-0.035
19.05,-0.356,1.24,-0.169
19.06,-0.073,0.845,0.035
19.07,-0.122,1.153,0.136
19.08,-0.173,0.634,-0.017
19.09,-0.449,1.225,-0.157
19.1,-0.103,0.982,-0.032
19.11,-0.141,0.923,0.137
19.12,-0.136,0.985,0.19
19.13,-0.346,0.792,-0.208
19.14,-0.266,1.227,-0.07
19.15,-0.028,0.932,0.106
19.16,-0.215,0.998,0.107
19.17,-0.174,0.781,0.009
19.18,-0.411,1.172,-0.247
19.19,-0.076,0.975,0.025
19.2,-0.076,0.867,0.167
19.21,-0.13,1.013,0.007
19.22,-0.377,0.772,-0.168
19.23,-0.144,1.289,-0.051
19.24,-0.067,0.817,0.103
19.25,-0.139,0.95,0.144
19.26,-0.26,0.91,-0.118
19.27,-0.324,1.0,-0.151
19.28,-0.117,1.156,0.125
19.29,-0.076,0.729,0.147
19.3,-0.26,1.04,-0.022
19.31,-0.338,0.892,-0.15
19.32,-0.151,1.199,-0.002
19.33,-0.15,0.78,0.118
19.34,-0.118,0.91,0.122
19.35,-0.401,1.046,-0.188
19.36,-0.266,0.901,-0.015
19.37,-0.092,1.236,0.087
19.38,-0.13,0.615,0.095
19.39,-0.314,1.103,-0.044
19.4,-0.287,0.94,-0.225
19.41,-0.07,1.103,0.051
19.42,-0.132,0.89,0.119
19.43,-0.157,0.742,0.041
19.44,-0.455,1.231,-0.171
19.45,-0.091,0.883,-0.057
19.46,-0.183,1.113,0.125
19.47,-0.106,0.709,0.13
19.48,-0.427,1.047,-0.177
19.49,-0.23,0.98,-0.117
19.5,-0.035,1.113,0.136
19.51,-0.153,0.911,0.109
19.52,-0.247,0.705,-0.026
19.53,-0.352,1.335,-0.193
19.54,-0.065,0.858,0.029
19.55,-0.224,1.108,0.209
19.56,-0.137,0.724,0.055
19.57,-0.437,1.062,-0.224
19.58,-0.129,1.115,-0.047
19.59,-0.083,0.848,0.104
19.6,-0.191,1.006,0.158
19.61,-0.282,0.705,-0.081
19.62,-0.284,1.261,-0.187
19.63,-0.034,0.877,0.072
19.64,-0.111,0.936,0.154
19.65,-0.259,0.848,0.026
19.66,-0.351,1.037,-0.203
19.67,-0.166,1.106,-0.025
19.68,-0.125,0.728,0.209
19.69,-0.219,1.08,0.113
19.7,-0.355,0.742,-0.189
19.71,-0.233,1.227,-0.039
19.72,-0.026,0.794,0.087
19.73,-0.219,0.936,0.185
19.74,-0.273,0.872,-0.08
19.75,-0.327,1.051,-0.177
19.76,-0.102,1.148,0.103
19.77,-0.062,0.737,0.11
19.78,-0.312,1.017,-0.008
19.79,-0.329,0.918,-0.128
19.8,-0.124,1.284,-0.019
19.81,-0.153,0.676,0.124
19.82,-0.075,0.941,0.081
19.83,-0.411,1.037,-0.259
19.84,-0.257,0.904,0.003
19.85,-0.047,1.23,0.079
19.86,-0.132,0.618,0.108
19.87,-0.357,1.114,-0.042
19.88,-0.207,0.908,-0.23
19.89,-0.178,1.146,0.083
19.9,-0.032,0.835,0.141
19.91,-0.214,0.808,0.016
19.92,-0.462,1.205,-0.16
19.93,-0.037,0.909,-0.086
19.94,-0.232,1.149,0.16
19.95,-0.158,0.699,0.175
19.96,-0.417,1.11,-0.205
19.97,-0.256,0.964,-0.082
19.98,-0.043,1.101,0.132
19.99,-0.139,0.865,0.104
20.0,-0.267,0.756,-0.008
20.01,-0.342,1.333,-0.226
20.02,-0.079,0.784,-0.001
20.03,-0.142,1.143,0.169
20.04,-0.157,0.67,-0.024
20.05,-0.42,1.064,-0.186
20.06,-0.17,1.081,-0.026
20.07,-0.094,0.859,0.113
20.08,-0.133,1.016,0.128
20.09,-0.306,0.765,-0.148
20.1,-0.403,1.282,-0.123
20.11,-0.017,0.911,0.077
20.12,-0.126,0.945,0.095
20.13,-0.249,0.834,0.049
20.14,-0.387,1.142,-0.189
20.15,-0.172,1.059,-0.004
20.16,-0.08,0.822,0.165
20.17,-0.149,1.01,0.088
20.18,-0.386,0.799,-0.17
20.19,-0.157,1.277,-0.105
20.2,-0.071,0.817,0.076
20.21,-0.212,0.877,0.242
20.22,-0.318,0.961,-0.125
20.23,-0.347,0.895,-0.113
20.24,-0.096,1.264,0.138
20.25,-0.146,0.642,0.147
20.26,-0.336,1.063,0.068
20.27,-0.276,0.987,-0.266
20.28,-0.103,1.075,-0.051
20.29,-0.15,0.875,0.156
20.3,-0.123,0.808,0.074
20.31,-0.44,1.11,-0.181
20.32,-0.141,0.895,-0.033
20.33,-0.117,1.233,0.125
20.34,-0.222,0.628,0.16
20.35,-0.234,1.042,-0.067
20.36,-0.385,0.965,-0.181
20.37,-0.089,1.044,0.089
20.38,-0.117,1.03,0.107
20.39,-0.156,0.639,0.008
20.4,-0.429,1.293,-0.15
20.41,-0.139,0.863,-0.036
20.42,-0.209,1.128,0.133
20.43,-0.041,0.739,0.125
20.44,-0.437,1.006,-0.195
20.45,-0.228,1.069,-0.022
20.46,-0.015,1.022,0.049
20.47,-0.205,0.928,0.091
20.48,-0.109,0.728,0.012
20.49,-0.497,1.373,-0.209
20.5,-0.128,0.792,0.039
20.51,-0.051,1.153,0.108
20.52,-0.165,0.75,0.017
20.53,-0.461,0.966,-0.126
20.54,-0.182,1.073,-0.066
20.55,-0.156,0.867,0.131
20.56,-0.082,1.003,0.131
20.57,-0.423,0.715,-0.142
20.58,-0.278,1.271,-0.105
20.59,0.011,0.892,0.047
20.6,-0.215,0.921,0.161
20.61,-0.175,0.795,0.02
20.62,-0.363,1.152,-0.266
20.63,-0.088,1.024,-0.048
20.64,-0.033,0.857,0.174
20.65,-0.161,0.997,0.02
20.66,-0.421,0.787,-0.158
20.67,-0.106,1.295,-0.071
20.68,-0.118,0.782,0.074
20.69,-0.138,0.92,0.199
20.7,-0.285,0.952,-0.111
20.71,-0.343,0.906,-0.179
20.72,-0.092,1.229,0.085
20.73,-0.111,0.757,0.131
20.74,-0.267,1.023,-0.008
20.75,-0.295,0.934,-0.158
20.76,-0.221,1.178,-0.004
20.77,-0.242,0.795,0.207
20.78,-0.077,0.853,0.086
20.79,-0.407,1.077,-0.195
20.8,-0.224,0.868,-0.054
20.81,-0.047,1.291,0.108
20.82,-0.12,0.573,0.117
20.83,-0.359,1.062,0.029
20.84,-0.281,0.972,-0.251
20.85,-0.077,1.026,0.025
20.86,-0.171,1.04,0.208
20.87,-0.151,0.69,0.045
20.88,-0.417,1.185,-0.181
20.89,-0.156,0.885,-0.07
20.9,-0.128,1.107,0.052
20.91,-0.089,0.729,0.176
20.92,-0.374,1.001,-0.183
20.93,-0.269,0.983,-0.158
20.94,-0.104,1.064,0.104
20.95,-0.162,0.984,0.088
20.96,-0.146,0.637,0.007
20.97,-0.414,1.359,-0.184
20.98,-0.095,0.808,-0.002
20.99,-0.158,1.087,0.173
21.0,-0.146,0.802,0.133
21.01,-0.469,0.957,-0.167
21.02,-0.228,1.156,-0.051
21.03,-0.056,0.873,0.098
21.04,-0.2,1.015,0.122
21.05,-0.247,0.737,-0.018
21.06,-0.422,1.269,-0.189
21.07,-0.117,0.873,0.108
21.08,-0.013,1.026,0.134
21.09,-0.217,0.85,0.017
21.1,-0.456,0.959,-0.113
21.11,-0.162,1.233,-0.067
21.12,-0.161,0.702,0.165
21.13,-0.148,1.064,0.124
21.14,-0.357,0.814,-0.177
21.15,-0.321,1.191,-0.071
21.16,-0.004,0.998,0.094
21.17,-0.179,0.726,0.157
21.18,-0.217,1.004,-0.012
21.19,-0.331,0.951,-0.198
21.2,-0.18,1.185,0.013
21.21,-0.018,0.785,0.116
21.22,-0.197,0.988,0.021
21.23,-0.358,0.885,-0.187
21.24,-0.021,1.137,-0.102
21.25,-0.147,0.978,0.081
21.26,-0.163,0.696,0.216
21.27,-0.369,1.134,-0.124
21.28,-0.317,0.812,-0.182
21.29,0.033,1.328,0.089
21.3,-0.09,0.709,0.094
21.31,-0.33,0.929,0.057
21.32,-0.309,1.054,-0.22
21.33,-0.159,0.888,-0.027
21.34,-0.2,1.086,0.238
21.35,-0.092,0.682,0.086
21.36,-0.504,1.171,-0.163
21.37,-0.091,0.927,-0.109
21.38,-0.108,1.146,0.051
21.39,-0.08,0.723,0.208
21.4,-0.35,1.071,-0.153
21.41,-0.31,0.917,-0.135
21.42,-0.088,1.099,0.151
21.43,-0.195,1.003,0.124
21.44,-0.165,0.668,0.002
21.45,-0.407,1.378,-0.188
21.46,-0.098,0.83,-0.039
21.47,-0.222,1.083,0.195
21.48,-0.019,0.8,0.118
21.49,-0.446,0.989,-0.193
21.5,-0.192,1.123,-0.054
21.51,-0.072,0.937,0.055
21.52,-0.14,0.951,0.108
21.53,-0.2,0.735,-0.018
21.54,-0.438,1.318,-0.225
21.55,-0.118,0.838,0.034
21.56,0.006,1.108,0.106
21.57,-0.173,0.784,0.045
21.58,-0.462,0.944,-0.132
21.59,-0.081,1.262,-0.078
21.6,-0.179,0.742,0.074
21.61,-0.162,1.052,0.206
21.62,-0.28,0.786,-0.156
21.63,-0.435,1.178,-0.116
21.64,0.068,0.978,0.064
21.65,-0.125,0.815,0.125
21.66,-0.335,0.958,0.071
21.67,-0.262,0.954,-0.201
21.68,-0.173,1.196,-0.066
21.69,-0.036,0.734,0.184
21.7,-0.079,1.051,0.06
21.71,-0.433,0.851,-0.177
21.72,-0.142,1.106,-0.076
21.73,-0.071,1.011,0.066
21.74,-0.266,0.748,0.189
21.75,-0.253,1.083,-0.096
21.76,-0.272,0.79,-0.21
21.77,-0.125,1.267,0.101
21.78,-0.059,0.761,0.089
21.79,-0.142,0.915,-0.018
21.8,-0.396,1.085,-0.152
21.81,-0.205,1.01,-0.023
21.82,-0.231,1.009,0.115
21.83,-0.087,0.714,0.188
21.84,-0.449,1.168,-0.19
21.85,-0.265,0.813,-0.093
21.86,-0.03,1.264,0.097
21.87,-0.173,0.693,0.121
21.88,-0.226,0.876,0.058
21.89,-0.373,1.219,-0.253
21.9,-0.132,0.834,-0.005
21.91,-0.195,1.149,0.198
21.92,-0.118,0.657,0.09
21.93,-0.512,1.171,-0.209
21.94,0.002,0.961,-0.058
21.95,-0.103,1.124,0.059
21.96,-0.236,0.797,0.22
21.97,-0.154,0.822,-0.062
21.98,-0.427,1.219,-0.229
21.99,-0.024,0.832,0.132
22.0,-0.116,1.176,0.105
22.01,-0.263,0.62,0.01
22.02,-0.406,1.247,-0.151
22.03,-0.063,1.02,-0.073
22.04,-0.181,0.921,0.137
22.05,-0.117,0.995,0.188
22.06,-0.325,0.735,-0.185
22.07,-0.256,1.259,-0.102
22.08,0.01,0.896,0.093
22.09,-0.185,0.978,0.122
22.1,-0.198,0.767,0.018
22.11,-0.44,1.163,-0.274
22.12,-0.064,0.997,-0.058
22.13,-0.093,0.857,0.16
22.14,-0.201,1.011,0.068
22.15,-0.286,0.779,-0.199
22.16,-0.189,1.288,-0.087
22.17,-0.1,0.723,0.12
22.18,-0.217,1.068,0.159
22.19,-0.28,0.788,-0.136
22.2,-0.324,1.117,-0.141
22.21,-0.184,1.083,0.146
22.22,-0.112,0.833,0.099
22.23,-0.229,0.988,-0.024
22.24,-0.324,0.935,-0.189
22.25,-0.147,1.238,0.014
22.26,-0.154,0.695,0.159
22.27,-0.122,0.975,0.08
22.28,-0.397,0.906,-0.205
22.29,-0.188,1.036,-0.026
22.3,-0.14,1.143,0.084
22.31,-0.149,0.619,0.148
22.32,-0.244,1.145,-0.009
22.33,-0.342,0.885,-0.225
22.34,-0.104,1.18,0.04
22.35,-0.019,0.847,0.106
22.36,-0.197,0.861,0.048
22.37,-0.409,1.098,-0.196
22.38,-0.076,0.933,-0.078
22.39,-0.197,1.112,0.138
22.4,-0.156,0.666,0.177
22.41,-0.36,1.077,-0.161
22.42,-0.265,0.858,-0.129
22.43,-0.048,1.218,0.072
22.44,-0.183,0.81,0.119
22.45,-0.224,0.817,0.032
22.46,-0.412,1.268,-0.193
22.47,-0.201,0.757,0.01
22.48,-0.077,1.175,0.156
22.49,-0.146,0.709,0.083
22.5,-0.482,1.066,-0.157
22.51,-0.19,0.961,-0.084
22.52,-0.037,1.081,0.056
22.53,-0.152,0.9,0.119
22.54,-0.171,0.752,-0.053
22.55,-0.445,1.322,-0.203
22.56,-0.066,0.79,0.065
22.57,-0.128,1.148,0.183
22.58,-0.17,0.706,0.05
22.59,-0.432,1.088,-0.193
22.6,-0.098,1.104,-0.061
22.61,-0.098,0.83,0.123
22.62,-0.164,1.022,0.147
22.63,-0.274,0.76,-0.129
22.64,-0.441,1.228,-0.107
22.65,-0.014,0.901,0.145
22.66,-0.112,1.054,0.109
22.67,-0.298,0.788,-0.062
22.68,-0.253,1.061,-0.159
22.69,-0.156,1.174,-0.01
22.7,-0.189,0.694,0.266
22.71,-0.162,1.074,0.055
22.72,-0.42,0.792,-0.262
22.73,-0.111,1.208,-0.067
22.74,-0.012,0.975,0.095
22.75,-0.281,0.812,0.17
22.76,-0.252,0.973,-0.113
22.77,-0.25,0.95,-0.2
22.78,-0.159,1.222,0.134
22.79,-0.085,0.64,0.135
22.8,-0.34,1.034,-0.015
22.81,-0.293,0.913,-0.194
22.82,-0.151,1.083,-0.007
22.83,-0.208,0.899,0.192
22.84,-0.081,0.788,0.091
22.85,-0.386,1.163,-0.247
22.86,-0.216,0.845,-0.035
22.87,-0.101,1.229,0.126
22.88,-0.187,0.658,0.135
22.89,-0.285,1.035,-0.055
22.9,-0.287,1.003,-0.181
22.91,-0.237,1.027,0.124
22.92,-0.108,0.943,0.176
22.93,-0.171,0.692,0.018
22.94,-0.512,1.314,-0.212
22.95,-0.008,0.832,-0.078
22.96,-0.191,1.177,0.141
22.97,-0.189,0.722,0.138
22.98,-0.344,0.946,-0.16
22.99,-0.297,0.98,-0.032
23.0,-0.054,1.069,0.088
23.01,-0.18,0.89,0.144
23.02,-0.26,0.747,-0.063
23.03,-0.325,1.239,-0.216
23.04,-0.071,0.868,0.115
23.05,-0.211,1.107,0.121
23.06,-0.098,0.685,0.027
23.07,-0.452,1.213,-0.187
23.08,-0.161,1.019,-0.081
23.09,-0.042,0.847,0.111
23.1,-0.158,1.005,0.078
23.11,-0.29,0.734,-0.179
23.12,-0.261,1.304,-0.106
23.13,-0.052,0.873,0.107
23.14,-0.192,0.956,0.108
23.15,-0.171,0.842,0.011
23.16,-0.406,1.088,-0.2
23.17,-0.148,1.094,0.025
23.18,-0.055,0.822,0.156
23.19,-0.183,1.004,0.031
23.2,-0.354,0.85,-0.13
23.21,-0.229,1.266,-0.084
23.22,-0.131,0.762,0.11
23.23,-0.105,0.935,0.105
23.24,-0.282,0.934,-0.151
23.25,-0.246,0.966,-0.122
23.26,-0.071,1.273,0.098
23.27,-0.146,0.561,0.151
23.28,-0.219,1.076,0.062
23.29,-0.39,0.951,-0.224
23.3,-0.104,1.085,-0.067
23.31,0.006,0.956,0.139
23.32,-0.183,0.785,0.101
23.33,-0.439,1.1,-0.155
23.34,-0.107,0.96,-0.047
23.35,-0.18,1.166,0.069
23.36,-0.083,0.632,0.123
23.37,-0.256,1.09,-0.126
23.38,-0.302,0.9,-0.245
23.39,0.002,1.114,0.103
23.4,-0.225,0.974,0.146
23.41,-0.219,0.673,0.029
23.42,-0.368,1.36,-0.194
23.43,-0.181,0.851,-0.051
23.44,-0.219,1.107,0.156
23.45,-0.034,0.743,0.093
23.46,-0.456,0.968,-0.174
23.47,-0.202,1.058,-0.074
23.48,-0.034,1.042,0.033
23.49,-0.191,0.911,0.12
23.5,-0.143,0.732,0.006
23.51,-0.461,1.315,-0.234
23.52,-0.102,0.778,0.002
23.53,-0.063,1.191,0.168
23.54,-0.157,0.767,0.028
23.55,-0.448,0.931,-0.118
23.56,-0.035,1.263,-0.069
23.57,-0.129,0.772,0.099
23.58,-0.209,1.0,0.245
23.59,-0.258,0.75,-0.128
23.6,-0.457,1.216,-0.16
23.61,-0.033,0.955,0.107
23.62,-0.098,0.943,0.128
23.63,-0.314,0.933,0.05
23.64,-0.318,0.983,-0.163
23.65,-0.155,1.12,-0.105
23.66,-0.146,0.71,0.278
23.67,-0.085,1.085,0.08
23.68,-0.395,0.737,-0.225
23.69,-0.187,1.176,-0.035
23.7,-0.089,1.082,0.088
23.71,-0.247,0.68,0.109
23.72,-0.19,1.087,0.021
23.73,-0.311,0.904,-0.26
23.74,-0.195,1.12,0.082
23.75,0.056,0.829,0.14
23.76,-0.242,0.944,0.019
23.77,-0.388,0.877,-0.107
23.78,-0.054,1.135,-0.104
23.79,-0.26,0.99,0.063
23.8,-0.072,0.883,0.2
23.81,-0.402,1.052,-0.169
23.82,-0.311,0.814,-0.098
23.83,0.019,1.35,0.072
23.84,-0.143,0.591,0.093
23.85,-0.249,1.087,0.052
23.86,-0.26,0.999,-0.234
23.87,-0.231,1.003,-0.045
23.88,-0.117,0.975,0.195
23.89,-0.116,0.746,0.057
23.9,-0.504,1.149,-0.176
23.91,-0.088,0.864,-0.042
23.92,-0.173,1.23,0.093
23.93,-0.115,0.617,0.154
23.94,-0.238,1.053,-0.078
23.95,-0.308,1.009,-0.235
23.96,-0.089,0.963,0.054
23.97,-0.083,1.129,0.128
23.98,-0.186,0.624,0.03
23.99,-0.416,1.305,-0.167
24.0,-0.134,0.906,-0.068
24.01,-0.194,1.041,0.114
24.02,-0.05,0.764,0.134
24.03,-0.412,0.926,-0.169
24.04,-0.221,1.074,-0.155
24.05,0.032,0.981,0.057
24.06,-0.152,1.021,0.106
24.07,-0.213,0.677,0.036
24.08,-0.407,1.326,-0.171
24.09,-0.099,0.855,-0.02
24.1,-0.147,1.041,0.204
24.11,-0.179,0.886,0.086
24.12,-0.422,0.83,-0.192
24.13,-0.106,1.253,-0.101
24.14,-0.051,0.825,0.077
24.15,-0.198,0.999,0.144
24.16,-0.202,0.778,-0.081
24.17,-0.368,1.144,-0.218
24.18,-0.052,0.989,0.044
24.19,-0.084,0.905,0.141
24.2,-0.238,0.968,0.031
24.21,-0.354,0.838,-0.143
24.22,-0.157,1.307,-0.09
24.23,-0.139,0.683,0.085
24.24,-0.111,1.037,0.184
24.25,-0.305,0.897,-0.19
24.26,-0.321,0.968,-0.11
24.27,-0.003,1.178,0.13
24.28,-0.087,0.689,0.088
24.29,-0.294,1.042,0.047
24.3,-0.245,0.968,-0.182
24.31,-0.244,1.17,-0.039
24.32,-0.145,0.717,0.219
24.33,-0.109,0.929,0.098
24.34,-0.474,0.973,-0.187
24.35,-0.155,0.942,-0.015
24.36,-0.095,1.242,0.083
24.37,-0.215,0.556,0.115
24.38,-0.239,1.125,-0.009
24.39,-0.286,0.935,-0.231
24.4,-0.188,1.095,0.061
24.41,-0.038,0.912,0.135
24.42,-0.164,0.777,0.033
24.43,-0.477,1.169,-0.144
24.44,-0.044,0.907,-0.097
24.45,-0.146,1.157,0.061
24.46,-0.093,0.657,0.157
24.47,-0.342,1.068,-0.154
24.48,-0.278,0.914,-0.154
24.49,-0.111,1.13,0.136
24.5,-0.124,0.897,0.133
24.51,-0.275,0.747,0.029
24.52,-0.41,1.315,-0.18
24.53,-0.067,0.793,-0.017
24.54,-0.221,1.143,0.162
24.55,-0.028,0.726,0.119
24.56,-0.444,1.051,-0.168
24.57,-0.257,1.04,-0.063
24.58,-0.061,0.965,0.089
24.59,-0.149,0.957,0.107
24.6,-0.25,0.709,-0.012
24.61,-0.329,1.213,-0.162
24.62,-0.107,0.958,0.115
24.63,-0.125,1.059,0.118
24.64,-0.162,0.664,0.002
24.65,-0.496,1.306,-0.176
24.66,-0.01,0.889,-0.034
24.67,-0.17,1.012,0.16
24.68,-0.194,0.863,0.175
24.69,-0.406,0.899,-0.218
24.7,-0.216,1.184,-0.103
24.71,-0.007,0.936,0.142
24.72,-0.196,1.012,0.142
24.73,-0.284,0.699,-0.081
24.74,-0.37,1.3,-0.191
24.75,-0.078,0.852,-0.007
24.76,-0.127,0.96,0.194
24.77,-0.146,0.911,0.027
24.78,-0.491,0.848,-0.192
24.79,-0.129,1.278,-0.003
24.8,-0.1,0.776,0.133
24.81,-0.257,1.013,0.154
24.82,-0.249,0.847,-0.109
24.83,-0.312,1.176,-0.156
24.84,-0.159,0.98,0.118
24.85,-0.063,0.791,0.164
24.86,-0.345,0.985,-0.053
24.87,-0.289,0.898,-0.134
24.88,-0.084,1.292,0.034
24.89,-0.179,0.642,0.165
24.9,-0.164,1.007,0.124
24.91,-0.369,0.965,-0.287
24.92,-0.201,0.976,-0.07
24.93,-0.077,1.106,0.153
24.94,-0.234,0.665,0.105
24.95,-0.347,1.119,-0.083
24.96,-0.185,0.897,-0.201
24.97,-0.159,1.221,0.095
24.98,-0.028,0.713,0.113
24.99,-0.254,0.875,-0.029
25.0,-0.406,1.121,-0.164
25.01,-0.109,0.933,0.016
25.02,-0.266,1.092,0.175
25.03,-0.118,0.631,0.102
25.04,-0.419,1.243,-0.208
25.05,-0.17,0.95,-0.094
25.06,-0.124,1.083,0.112
25.07,-0.083,0.801,0.14
25.08,-0.3,0.86,-0.054
25.09,-0.34,1.2,-0.151
25.1,-0.077,0.903,0.066
25.11,-0.214,1.111,0.137
25.12,-0.155,0.655,-0.015
25.13,-0.433,1.25,-0.196
25.14,-0.162,0.957,0.016
25.15,-0.148,0.982,0.171
25.16,-0.151,0.955,0.107
25.17,-0.372,0.739,-0.203
25.18,-0.165,1.319,-0.035
25.19,-0.044,0.893,0.093
25.2,-0.229,0.91,0.091
25.21,-0.182,0.794,-0.019
25.22,-0.414,1.169,-0.221
25.23,-0.139,1.04,0.022
25.24,-0.082,0.827,0.12
25.25,-0.206,0.986,-0.045
25.26,-0.325,0.828,-0.197
25.27,-0.197,1.247,-0.041
25.28,-0.141,0.757,0.15
25.29,-0.054,1.001,0.109
25.3,-0.312,0.873,-0.233
25.31,-0.249,1.014,-0.013
25.32,-0.139,1.216,0.086
25.33,-0.181,0.62,0.14
25.34,-0.245,0.812,-0.142
25.35,-0.122,1.289,0.075
25.36,-0.161,0.609,0.107
25.37,-0.281,1.072,-0.015
25.38,-0.234,0.978,-0.261
25.39,-0.151,1.034,0.036
25.4,-0.044,1.011,0.167
25.41,-0.189,0.703,0.006
25.42,-0.443,1.169,-0.161
25.43,-0.107,0.935,-0.076
25.44,-0.173,1.103,0.089
25.45,-0.095,0.714,0.18
25.46,-0.434,1.049,-0.096
25.47,-0.235,0.981,-0.189
25.48,0.046,1.062,0.065
25.49,-0.131,0.934,0.13
25.5,-0.235,0.691,0.077
25.51,-0.466,1.335,-0.173
25.52,-0.176,0.796,-0.014
25.53,-0.13,1.147,0.217
25.54,-0.119,0.769,0.027
25.55,-0.413,0.952,-0.17
25.56,-0.139,1.225,-0.069
25.57,-0.077,0.832,0.144
25.58,-0.206,1.021,0.184
25.59,-0.203,0.739,-0.096
25.6,-0.417,1.256,-0.164
25.61,-0.027,0.941,0.093
25.62,-0.185,0.964,0.137
25.63,-0.23,0.894,0.003
25.64,-0.421,0.966,-0.14
25.65,-0.164,1.249,-0.057
25.66,-0.075,0.714,0.151
25.67,-0.224,1.07,0.156
25.68,-0.299,0.77,-0.188
25.69,-0.298,1.158,-0.114
25.7,-0.026,0.997,0.102
25.71,-0.114,0.719,0.122
25.72,-0.311,1.066,0.019
25.73,-0.304,0.916,-0.202
25.74,-0.138,1.195,0.007
25.75,-0.135,0.781,0.169
25.76,-0.178,0.978,0.04
25.77,-0.379,0.892,-0.229
25.78,-0.184,1.066,-0.027
25.79,-0.103,1.013,0.126
25.8,-0.19,0.696,0.153
25.81,-0.347,1.12,-0.1
25.82,-0.32,0.825,-0.166
25.83,0.018,1.267,0.062
25.84,-0.085,0.733,0.114
25.85,-0.304,0.914,0.033
25.86,-0.332,1.123,-0.225
25.87,-0.078,0.911,-0.01
25.88,-0.148,1.084,0.183
25.89,-0.114,0.657,0.096
25.9,-0.44,1.186,-0.191
25.91,-0.132,0.947,-0.036
25.92,-0.136,1.101,0.111
25.93,-0.133,0.787,0.173
25.94,-0.269,0.904,-0.065
25.95,-0.343,1.1,-0.26
25.96,-0.078,0.873,0.136
25.97,-0.13,1.146,0.127
25.98,-0.167,0.64,-0.01
25.99,-0.369,1.278,-0.165
26.0,-0.134,0.979,-0.059
26.01,-0.219,0.96,0.156
26.02,-0.135,0.907,0.141
26.03,-0.304,0.757,-0.184
26.04,-0.291,1.285,-0.066
26.05,0.032,0.898,0.078
26.06,-0.233,0.992,0.119
26.07,-0.172,0.74,0.012
26.08,-0.351,1.269,-0.255
26.09,-0.105,0.985,-0.023
26.1,-0.14,0.901,0.188
26.11,-0.251,0.957,0.061
26.12,-0.336,0.764,-0.192
26.13,-0.106,1.355,-0.082
26.14,-0.1,0.719,0.098
26.15,-0.079,1.094,0.148
26.16,-0.4,0.756,-0.164
26.17,-0.302,1.118,-0.122
26.18,0.071,1.114,0.073
26.19,-0.183,0.751,0.126
26.2,-0.283,1.025,0.032
26.21,-0.29,0.973,-0.171
26.22,-0.213,1.141,-0.066
26.23,-0.01,0.706,0.16
26.24,-0.193,1.052,0.098
26.25,-0.406,0.867,-0.192
26.26,-0.053,1.073,-0.134
26.27,-0.101,0.996,0.067
26.28,-0.123,0.708,0.232
26.29,-0.325,1.098,-0.096
26.3,-0.363,0.77,-0.176
26.31,-0.058,1.306,0.142
26.32,-0.127,0.76,0.143
26.33,-0.25,0.894,0.064
26.34,-0.349,1.146,-0.175
26.35,-0.181,0.984,-0.003
26.36,-0.221,1.033,0.146
26.37,-0.074,0.706,0.14
26.38,-0.45,1.174,-0.165
26.39,-0.262,0.854,-0.083
26.4,-0.067,1.21,0.097
26.41,-0.188,0.761,0.158
26.42,-0.264,0.884,0.027
26.43,-0.441,1.194,-0.227
26.44,-0.016,0.867,-0.023
26.45,-0.167,1.209,0.174
26.46,-0.122,0.625,0.074
26.47,-0.455,1.179,-0.152
26.48,-0.177,1.057,-0.076
26.49,-0.066,0.973,0.077
26.5,-0.186,0.901,0.161
26.51,-0.258,0.814,-0.109
26.52,-0.328,1.247,-0.156
26.53,-0.028,0.872,0.13
26.54,-0.177,1.112,0.142
26.55,-0.169,0.697,0.01
26.56,-0.381,1.213,-0.189
26.57,-0.153,1.011,-0.062
26.58,-0.135,0.831,0.155
26.59,-0.096,1.044,0.13
26.6,-0.421,0.719,-0.24
26.61,-0.233,1.232,-0.059
26.62,-0.008,0.95,0.063
26.63,-0.156,0.886,0.088
26.64,-0.201,0.846,0.024
26.65,-0.4,1.1,-0.199
26.66,-0.152,1.114,0.04
26.67,-0.091,0.818,0.156
26.68,-0.279,0.99,0.022
26.69,-0.356,0.827,-0.135
26.7,-0.165,1.283,-0.111
26.71,-0.166,0.749,0.11
26.72,-0.139,0.922,0.14
26.73,-0.301,0.983,-0.182
26.74,-0.31,0.931,-0.084
26.75,0.013,1.249,0.041
26.76,-0.167,0.633,0.117
26.77,-0.271,1.085,0.05
26.78,-0.352,0.925,-0.219
26.79,-0.183,1.088,-0.046
26.8,-0.086,0.925,0.162
26.81,-0.158,0.789,0.071
26.82,-0.423,1.104,-0.187
26.83,-0.152,0.924,-0.097
26.84,-0.056,1.219,0.061
26.85,-0.138,0.642,0.192
26.86,-0.344,1.042,-0.053
26.87,-0.298,0.929,-0.19
26.88,-0.065,1.112,0.066
26.89,-0.081,0.978,0.103
26.9,-0.21,0.687,0.045
26.91,-0.423,1.283,-0.186
26.92,-0.123,0.873,-0.061
26.93,-0.214,1.125,0.114
26.94,-0.055,0.716,0.15
26.95,-0.38,0.987,-0.178
26.96,-0.228,0.901,-0.094
26.97,-0.101,1.149,0.148
26.98,-0.171,0.837,0.133
26.99,-0.218,0.783,-0.025
27.0,-0.359,1.296,-0.236
27.01,-0.106,0.832,0.037
27.02,-0.215,1.166,0.182
27.03,-0.119,0.675,0.053
27.04,-0.438,1.134,-0.174
27.05,-0.193,1.085,-0.008
27.06,-0.124,0.899,0.085
27.07,-0.142,0.975,0.114
27.08,-0.285,0.744,-0.087
27.09,-0.374,1.253,-0.135
27.1,-0.091,0.945,0.129
27.11,-0.175,1.064,0.102
27.12,-0.224,0.729,0.027
27.13,-0.309,1.117,-0.21
27.14,-0.187,1.085,-0.03
27.15,-0.062,0.744,0.196
27.16,-0.202,1.055,0.108
27.17,-0.397,0.743,-0.168
27.18,-0.15,1.286,-0.183
27.19,-0.06,0.847,0.065
27.2,-0.174,0.884,0.145
27.21,-0.216,0.96,-0.039
27.22,-0.337,0.984,-0.191
27.23,-0.128,1.193,0.059
27.24,-0.063,0.787,0.14
27.25,-0.213,1.017,0.031
27.26,-0.352,0.88,-0.187
27.27,-0.189,1.145,-0.104
27.28,-0.114,0.852,0.136
27.29,-0.207,0.855,0.165
27.3,-0.318,1.027,-0.149
27.31,-0.204,0.831,-0.115
27.32,-0.128,1.351,0.149
27.33,-0.151,0.632,0.131
27.34,-0.183,0.98,0.016
27.35,-0.381,1.021,-0.191
27.36,-0.18,1.008,-0.017
27.37,-0.197,0.957,0.183
27.38,-0.071,0.735,0.101
27.39,-0.463,1.136,-0.175
27.4,-0.194,0.884,-0.035
27.41,-0.143,1.263,0.072
27.42,-0.115,0.612,0.098
27.43,-0.205,0.984,-0.017
27.44,-0.393,1.086,-0.203
27.45,-0.111,0.936,0.068
27.46,-0.15,1.131,0.127
27.47,-0.186,0.606,-0.012
27.48,-0.401,1.271,-0.182
27.49,-0.073,0.953,-0.056
27.5,-0.122,1.084,0.113
27.51,-0.133,0.804,0.182
27.52,-0.371,0.902,-0.134
27.53,-0.255,1.109,-0.156
27.54,-0.02,0.953,0.072
27.55,-0.143,1.035,0.079
27.56,-0.19,0.706,0.019
27.57,-0.453,1.287,-0.196
27.58,-0.082,0.875,-0.03
27.59,-0.143,1.027,0.167
27.6,-0.118,0.881,0.05
27.61,-0.34,0.863,-0.177
27.62,-0.227,1.292,-0.069
27.63,-0.086,0.76,0.09
27.64,-0.179,1.017,0.156
27.65,-0.237,0.788,-0.07
27.66,-0.371,1.138,-0.172
27.67,-0.139,0.984,0.081
27.68,-0.065,0.87,0.11
27.69,-0.226,0.962,0.007
27.7,-0.379,0.891,-0.164
27.71,-0.175,1.264,-0.05
27.72,-0.134,0.707,0.148
27.73,-0.13,1.008,0.134
27.74,-0.303,0.876,-0.149
27.75,-0.285,1.037,-0.077
27.76,-0.095,1.127,0.118
27.77,-0.175,0.668,0.138
27.78,-0.245,1.016,-0.034
27.79,-0.322,0.911,-0.213
27.8,-0.149,1.17,0.076
27.81,-0.066,0.794,0.164
27.82,-0.238,0.98,0.026
27.83,-0.388,0.91,-0.181
27.84,-0.058,1.156,-0.137
27.85,-0.148,0.903,0.095
27.86,-0.108,0.747,0.175
27.87,-0.385,1.131,-0.136
27.88,-0.333,0.77,-0.145
27.89,0.032,1.33,0.066
27.9,-0.122,0.68,0.109
27.91,-0.281,0.947,0.052
27.92,-0.376,1.058,-0.227
27.93,-0.131,0.939,-0.044
27.94,-0.151,1.113,0.182
27.95,-0.141,0.653,0.068
27.96,-0.501,1.202,-0.129
27.97,-0.089,0.921,-0.077
27.98,-0.083,1.13,0.095
27.99,-0.164,0.749,0.144
28.0,-0.278,0.936,-0.051
28.01,-0.366,1.1,-0.213
28.02,-0.093,0.932,0.103
28.03,-0.13,1.17,0.111
28.04,-0.177,0.574,0.048
28.05,-0.415,1.268,-0.166
28.06,-0.085,0.983,-0.097
28.07,-0.197,0.979,0.176
28.08,-0.172,0.903,0.169
28.09,-0.361,0.81,-0.164
28.1,-0.297,1.211,-0.147
28.11,0.039,0.92,0.122
28.12,-0.27,1.039,0.165
28.13,-0.148,0.667,-0.04
28.14,-0.343,1.294,-0.234
28.15,-0.117,0.964,-0.028
28.16,-0.099,0.906,0.202
28.17,-0.225,0.977,0.1
28.18,-0.421,0.805,-0.174
28.19,-0.136,1.339,-0.071
28.2,-0.084,0.799,0.119
28.21,-0.246,0.979,0.198
28.22,-0.253,0.849,-0.093
28.23,-0.359,1.055,-0.203
28.24,-0.078,1.114,0.104
28.25,-0.124,0.784,0.125
28.26,-0.345,1.035,0.006
28.27,-0.325,0.87,-0.172
28.28,-0.193,1.242,-0.016
28.29,-0.208,0.772,0.215
28.3,-0.131,0.957,0.13
28.31,-0.399,0.934,-0.192
28.32,-0.218,0.977,-0.056
28.33,-0.019,1.213,0.058
28.34,-0.209,0.634,0.149
28.35,-0.256,1.117,-0.003
28.36,-0.363,0.862,-0.237
28.37,-0.198,1.107,0.093
28.38,-0.065,0.963,0.158
28.39,-0.223,0.784,0.038
28.4,-0.388,1.134,-0.137
28.41,-0.11,0.956,-0.1
28.42,-0.203,1.062,0.138
28.43,-0.149,0.684,0.213
28.44,-0.403,1.104,-0.129
28.45,-0.302,0.86,-0.159
28.46,-0.027,1.14,0.079
28.47,-0.179,0.924,0.126
28.48,-0.225,0.722,0.027
28.49,-0.382,1.302,-0.253
28.5,-0.064,0.772,-0.04
28.51,-0.091,1.211,0.203
28.52,-0.162,0.676,0.107
28.53,-0.45,1.052,-0.155
28.54,-0.12,1.128,-0.109
28.55,-0.098,0.874,0.052
28.56,-0.186,0.985,0.181
28.57,-0.216,0.719,-0.154
28.58,-0.343,1.224,-0.233
28.59,-0.069,0.902,0.167
28.6,-0.18,1.096,0.166
28.61,-0.169,0.666,0.059
28.62,-0.363,1.259,-0.213
28.63,-0.202,0.953,-0.005
28.64,-0.156,0.97,0.127
28.65,-0.072,0.988,0.081
28.66,-0.41,0.776,-0.171
28.67,-0.249,1.271,-0.085
28.68,-0.027,0.887,0.05
28.69,-0.163,0.952,0.13
28.7,-0.167,0.763,0.028
28.71,-0.392,1.176,-0.204
28.72,-0.086,1.065,0.026
28.73,-0.157,0.863,0.174
28.74,-0.213,0.971,0.04
28.75,-0.333,0.817,-0.189
28.76,-0.199,1.332,-0.035
28.77,-0.042,0.805,0.11
28.78,-0.163,0.905,0.134
28.79,-0.323,0.928,-0.057
28.8,-0.285,0.989,-0.178
28.81,-0.167,1.178,0.097
28.82,-0.059,0.745,0.123
28.83,-0.247,1.047,-0.011
28.84,-0.378,0.886,-0.177
28.85,-0.179,1.188,-0.032
28.86,-0.067,0.838,0.104
28.87,-0.078,0.884,0.149
28.88,-0.412,1.044,-0.148
28.89,-0.292,0.9,-0.091
28.9,0.002,1.269,0.055
28.91,-0.134,0.63,0.099
28.92,-0.261,1.062,-0.022
28.93,-0.336,0.929,-0.231
28.94,-0.116,1.097,0.034
28.95,-0.109,0.991,0.144
28.96,-0.098,0.709,0.016
28.97,-0.474,1.263,-0.13
28.98,-0.109,0.882,-0.138
28.99,-0.15,1.106,0.059
29.0,-0.117,0.725,0.182
29.01,-0.398,1.062,-0.12
29.02,-0.292,0.921,-0.149
29.03,-0.129,1.042,0.143
29.04,-0.164,0.995,0.133
29.05,-0.251,0.698,0.075
29.06,-0.464,1.351,-0.26
29.07,-0.027,0.811,-0.088
29.08,-0.201,1.166,0.186
29.09,-0.084,0.729,0.106
29.1,-0.448,0.955,-0.177
29.11,-0.177,1.206,-0.046
29.12,-0.087,0.864,0.041
29.13,-0.207,0.982,0.205
29.14,-0.196,0.716,-0.042
29.15,-0.428,1.303,-0.265
29.16,-0.03,0.854,0.024
29.17,-0.076,1.122,0.142
29.18,-0.232,0.82,0.048
29.19,-0.372,0.904,-0.12
29.2,-0.108,1.291,-0.116
29.21,-0.129,0.706,0.113
29.22,-0.203,1.091,0.191
29.23,-0.359,0.785,-0.081
29.24,-0.392,1.105,-0.165
29.25,0.043,1.047,0.07
29.26,-0.165,0.856,0.128
29.27,-0.227,0.975,0.004
29.28,-0.365,0.92,-0.189
29.29,-0.242,1.145,-0.047
29.3,-0.09,0.796,0.18
29.31,-0.083,1.033,0.034
29.32,-0.379,0.814,-0.197
29.33,-0.148,1.145,-0.057
29.34,-0.072,1.095,0.052
29.35,-0.187,0.621,0.152
29.36,-0.215,1.134,-0.019
29.37,-0.337,0.881,-0.212
29.38,-0.208,1.22,0.101
29.39,-0.07,0.819,0.133
29.4,-0.225,0.854,-0.006
29.41,-0.272,0.975,-0.199
29.42,-0.127,1.111,-0.101
29.43,-0.225,0.842,0.178
29.44,-0.06,0.814,0.156
29.45,-0.443,1.104,-0.214
29.46,-0.262,0.791,-0.033
29.47,-0.015,1.318,0.028
29.48,-0.113,0.61,0.113
29.49,-0.244,1.038,0.07
29.5,-0.364,1.041,-0.258
29.51,-0.138,0.898,-0.011
29.52,-0.088,1.115,0.165
29.53,-0.144,0.661,0.095
29.54,-0.513,1.145,-0.193
29.55,-0.065,0.896,-0.036
29.56,-0.133,1.19,0.09
29.57,-0.174,0.651,0.226
29.58,-0.221,0.992,-0.081
29.59,-0.403,1.072,-0.186
29.6,-0.122,0.905,0.124
29.61,-0.164,1.234,0.127
29.62,-0.116,0.542,0.015
29.63,-0.508,1.332,-0.117
29.64,-0.114,0.957,-0.068
29.65,-0.166,0.996,0.073
29.66,-0.097,0.848,0.222
29.67,-0.372,0.881,-0.184
29.68,-0.286,1.124,-0.181
29.69,0.075,0.965,0.057
29.7,-0.162,1.042,0.111
29.71,-0.186,0.686,0.078
29.72,-0.46,1.292,-0.261
29.73,-0.017,0.846,-0.115
29.74,-0.143,1.015,0.229
29.75,-0.203,0.921,0.117
29.76,-0.421,0.791,-0.196
29.77,-0.083,1.314,-0.129
29.78,-0.102,0.739,0.072
29.79,-0.156,0.974,0.167
29.8,-0.255,0.833,-0.11
29.81,-0.378,1.079,-0.17
29.82,-0.097,1.058,0.091
29.83,-0.162,0.878,0.113
29.84,-0.183,0.974,0.031
29.85,-0.306,0.876,-0.181
29.86,-0.231,1.254,-0.069
29.87,-0.056,0.76,0.121
29.88,-0.146,0.961,0.144
29.89,-0.376,0.866,-0.105
29.9,-0.227,0.952,-0.123
29.91,-0.106,1.232,0.079
29.92,-0.132,0.621,0.142
29.93,-0.248,1.067,0.024
29.94,-0.291,0.941,-0.239
29.95,-0.119,1.129,-0.045
29.96,-0.16,0.825,0.214
29.97,-0.126,0.862,0.075
29.98,-0.402,1.036,-0.2
29.99,-0.196,0.959,-0.043
30.0,-0.159,1.189,0.099
30.01,-0.149,0.605,0.196
30.02,-0.268,1.11,-0.067
30.03,-0.312,0.898,-0.224
30.04,-0.136,1.109,0.008
30.05,-0.07,0.965,0.112
30.06,-0.064,0.722,0.038
30.07,-0.454,1.25,-0.176
30.08,-0.147,0.859,-0.049
30.09,-0.191,1.115,0.059
30.1,-0.099,0.672,0.198
30.11,-0.419,1.075,-0.121
30.12,-0.273,0.949,-0.19
30.13,-0.028,1.064,0.068
30.14,-0.138,0.982,0.14
30.15,-0.237,0.647,0.021
30.16,-0.418,1.349,-0.179
30.17,-0.058,0.866,-0.027
30.18,-0.229,1.09,0.144
30.19,-0.131,0.751,0.168
30.2,-0.413,0.982,-0.207
30.21,-0.255,1.119,-0.093
30.22,0.001,0.945,0.081
30.23,-0.16,0.899,0.133
30.24,-0.265,0.756,-0.041
30.25,-0.382,1.225,-0.205
30.26,-0.073,0.792,0.081
30.27,-0.104,1.205,0.118
30.28,-0.087,0.631,-0.012
30.29,-0.463,1.15,-0.164
30.3,-0.12,1.081,-0.028
30.31,-0.103,0.869,0.06
30.32,-0.189,0.959,0.167
30.33,-0.303,0.725,-0.159
30.34,-0.259,1.272,-0.17
30.35,-0.012,0.91,0.141
30.36,-0.175,0.978,0.135
30.37,-0.247,0.794,0.012
30.38,-0.352,1.119,-0.199
30.39,-0.104,1.072,-0.026
30.4,-0.164,0.771,0.203
30.41,-0.222,1.06,0.134
30.42,-0.274,0.771,-0.223
30.43,-0.213,1.247,-0.039
30.44,-0.038,0.875,0.113
30.45,-0.198,0.887,0.142
30.46,-0.275,0.938,-0.043
30.47,-0.321,0.938,-0.195
30.48,-0.133,1.206,0.1
30.49,-0.133,0.757,0.144
30.5,-0.186,1.03,-0.002
30.51,-0.319,0.859,-0.194
30.52,-0.203,1.204,-0.03
30.53,-0.088,0.843,0.103
30.54,-0.138,0.824,0.159
30.55,-0.368,1.064,-0.142
30.56,-0.302,0.802,-0.128
30.57,-0.017,1.321,0.088
30.58,-0.11,0.66,0.118
30.59,-0.256,1.022,-0.017
30.6,-0.323,1.008,-0.206
30.61,-0.135,1.042,0.032
30.62,-0.153,0.944,0.157
30.63,-0.098,0.729,0.088
30.64,-0.517,1.225,-0.173
30.65,-0.171,0.827,-0.035
30.66,-0.126,1.253,0.075
30.67,-0.131,0.676,0.087
30.68,-0.218,1.004,-0.064
30.69,-0.356,1.157,-0.135
30.7,-0.238,0.886,0.139
30.71,-0.117,1.066,0.114
30.72,-0.148,0.656,-0.04
30.73,-0.489,1.284,-0.17
30.74,-0.072,0.917,0.011
30.75,-0.255,1.104,0.16
30.76,-0.098,0.828,0.149
30.77,-0.362,0.918,-0.154
30.78,-0.267,1.227,-0.079
30.79,-0.078,0.86,0.093
30.8,-0.199,1.013,0.105
30.81,-0.208,0.714,-0.012
30.82,-0.403,1.261,-0.224
30.83,-0.067,0.927,-0.009
30.84,-0.044,1.009,0.131
30.85,-0.19,0.867,0.063
30.86,-0.409,0.883,-0.16
30.87,-0.121,1.307,-0.056
30.88,-0.107,0.746,0.101
30.89,-0.208,1.0,0.181
30.9,-0.272,0.807,-0.132
30.91,-0.322,1.098,-0.14
30.92,0.002,1.091,0.126
30.93,-0.206,0.774,0.131
30.94,-0.304,0.991,0.037
30.95,-0.336,0.899,-0.171
30.96,-0.174,1.204,-0.014
30.97,-0.127,0.732,0.192
30.98,-0.145,1.0,0.067
30.99,-0.392,0.87,-0.205
31.0,-0.142,1.08,-0.006
31.01,-0.084,1.113,0.088
31.02,-0.224,0.631,0.175
31.03,-0.299,1.149,-0.039
31.04,-0.352,0.882,-0.185
31.05,-0.096,1.276,0.106
31.06,-0.066,0.665,0.101
31.07,-0.309,0.991,-0.028
31.08,-0.375,0.984,-0.149
31.09,-0.106,1.036,-0.066
31.1,-0.163,0.924,0.137
31.11,-0.044,0.77,0.123
31.12,-0.459,1.111,-0.185
31.13,-0.265,0.845,0.008
31.14,-0.065,1.28,0.085
31.15,-0.144,0.661,0.099
31.16,-0.283,1.023,0.005
31.17,-0.291,1.081,-0.274
31.18,-0.169,0.885,0.048
31.19,-0.061,1.118,0.183
31.2,-0.164,0.62,0.002
31.21,-0.483,1.243,-0.133
31.22,-0.065,0.92,-0.093
31.23,-0.168,1.084,0.061
31.24,-0.048,0.814,0.161
31.25,-0.395,1.082,-0.232
31.26,-0.193,0.993,-0.063
31.27,-0.062,1.089,0.131
31.28,-0.248,0.907,0.141
31.29,-0.141,0.738,-0.046
31.3,-0.363,1.301,-0.249
31.31,-0.173,0.817,0.083
31.32,-0.14,1.148,0.132
31.33,-0.093,0.688,-0.032
31.34,-0.403,1.11,-0.133
31.35,-0.169,1.158,-0.071
31.36,-0.088,0.793,0.077
31.37,-0.075,1.039,0.125
31.38,-0.312,0.691,-0.14
31.39,-0.333,1.277,-0.126
31.4,-0.016,0.922,0.071
31.41,-0.098,0.891,0.096
31.42,-0.239,0.896,0.053
31.43,-0.391,1.047,-0.206
31.44,-0.134,1.093,-0.053
31.45,-0.131,0.845,0.224
31.46,-0.15,1.075,0.053
31.47,-0.317,0.75,-0.206
31.48,-0.164,1.269,-0.099
31.49,-0.111,0.841,0.086
31.5,-0.176,0.81,0.246
31.51,-0.31,1.016,-0.079
31.52,-0.313,0.866,-0.185
31.53,-0.08,1.255,0.079
31.54,-0.123,0.782,0.144
31.55,-0.228,0.979,0.016
31.56,-0.386,0.896,-0.171
31.57,-0.126,1.167,-0.049
31.58,-0.125,0.86,0.075
31.59,-0.112,0.793,0.175
31.6,-0.421,1.129,-0.154
31.61,-0.308,0.768,-0.119
31.62,0.038,1.333,0.052
31.63,-0.161,0.625,0.123
31.64,-0.256,0.997,0.054
31.65,-0.305,1.037,-0.281
31.66,-0.129,0.917,-0.034
31.67,-0.101,1.07,0.223
31.68,-0.125,0.656,0.074
31.69,-0.568,1.214,-0.15
31.7,0.009,0.892,-0.136
31.71,-0.195,1.156,0.106
31.72,-0.143,0.719,0.239
31.73,-0.344,0.968,-0.077
31.74,-0.341,1.048,-0.23
31.75,-0.002,0.952,0.123
31.76,-0.212,1.1,0.14
31.77,-0.212,0.64,0.087
31.78,-0.413,1.366,-0.235
31.79,-0.066,0.812,-0.095
31.8,-0.301,1.068,0.219
31.81,-0.03,0.823,0.14
31.82,-0.42,0.835,-0.193
31.83,-0.221,1.186,-0.05
31.84,-0.073,0.915,0.063
31.85,-0.149,0.989,0.115
31.86,-0.176,0.722,-0.098
31.87,-0.439,1.262,-0.184
31.88,-0.108,0.913,0.13
31.89,-0.161,1.141,0.112
31.9,-0.091,0.689,0.012
31.91,-0.437,1.099,-0.137
31.92,-0.13,1.209,-0.078
31.93,-0.149,0.755,0.101
31.94,-0.131,1.079,0.187
31.95,-0.336,0.716,-0.139
31.96,-0.369,1.178,-0.166
31.97,-0.006,0.973,0.102
31.98,-0.153,0.875,0.087
31.99,-0.264,0.85,0.074
32.0,-0.329,1.036,-0.203
32.01,-0.066,1.162,-0.08
32.02,-0.14,0.739,0.196
32.03,-0.154,1.047,0.115
32.04,-0.379,0.811,-0.203
32.05,-0.175,1.142,-0.102
32.06,-0.058,0.981,0.094
32.07,-0.174,0.737,0.124
32.08,-0.279,1.088,-0.013
32.09,-0.348,0.862,-0.199
32.1,-0.13,1.205,0.041
32.11,-0.077,0.795,0.196
32.12,-0.224,0.939,0.016
32.13,-0.347,0.956,-0.163
32.14,-0.166,1.113,-0.074
32.15,-0.156,0.969,0.062
32.16,-0.149,0.727,0.192
32.17,-0.364,1.117,-0.146
32.18,-0.285,0.77,-0.141
32.19,0.032,1.326,0.082
32.2,-0.117,0.717,0.087
32.21,-0.285,0.907,0.061
32.22,-0.301,1.172,-0.237
32.23,-0.118,0.838,-0.104
32.24,-0.211,1.04,0.231
32.25,-0.117,0.673,0.057
32.26,-0.523,1.174,-0.183
32.27,-0.118,0.909,-0.058
32.28,-0.102,1.164,0.101
32.29,-0.273,0.749,0.206
32.3,-0.115,0.868,-0.068
32.31,-0.368,1.212,-0.229
32.32,-0.121,0.855,0.104
32.33,-0.107,1.15,0.096
32.34,-0.127,0.631,0.015
32.35,-0.472,1.228,-0.165
32.36,-0.027,1.0,-0.148
32.37,-0.145,0.934,0.099
32.38,-0.159,0.967,0.213
32.39,-0.334,0.812,-0.14
32.4,-0.308,1.207,-0.143
32.41,0.047,0.881,0.028
32.42,-0.149,1.018,0.117
32.43,-0.155,0.701,0.021
32.44,-0.458,1.244,-0.172
32.45,-0.096,1.029,-0.044
32.46,-0.188,0.858,0.131
32.47,-0.18,0.998,0.116
32.48,-0.284,0.762,-0.203
32.49,-0.283,1.266,-0.082
32.5,-0.011,0.852,0.098
32.51,-0.112,0.949,0.092
32.52,-0.294,0.851,-0.013
32.53,-0.324,1.078,-0.256
32.54,-0.097,1.085,-0.023
32.55,-0.147,0.803,0.218
32.56,-0.211,1.026,0.024
32.57,-0.373,0.784,-0.198
32.58,-0.17,1.279,-0.059
32.59,-0.029,0.815,0.105
32.6,-0.168,0.884,0.168
32.61,-0.355,0.965,-0.086
32.62,-0.223,0.933,-0.132
32.63,-0.061,1.228,0.069
32.64,-0.186,0.617,0.161
32.65,-0.208,1.058,0.008
32.66,-0.336,0.946,-0.207
32.67,-0.187,1.129,0.042
32.68,-0.172,0.755,0.179
32.69,-0.117,0.934,0.056
32.7,-0.393,1.025,-0.172
32.71,-0.185,1.025,-0.067
32.72,-0.141,1.081,0.072
32.73,-0.096,0.665,0.119
32.74,-0.315,1.126,-0.073
32.75,-0.284,0.83,-0.179
32.76,-0.155,1.211,0.068
32.77,-0.082,0.823,0.126
32.78,-0.171,0.836,0.001
32.79,-0.415,1.174,-0.19
32.8,-0.081,0.907,-0.043
32.81,-0.18,1.105,0.113
32.82,-0.089,0.691,0.175
32.83,-0.423,1.151,-0.177
32.84,-0.228,0.865,-0.126
32.85,-0.066,1.157,0.106
32.86,-0.127,0.846,0.127
32.87,-0.296,0.812,0.003
32.88,-0.365,1.288,-0.208
32.89,-0.101,0.783,0.005
32.9,-0.133,1.174,0.216
32.91,-0.035,0.706,0.035
32.92,-0.465,1.115,-0.187
32.93,-0.116,1.041,-0.02
32.94,-0.138,0.98,0.144
32.95,-0.239,0.939,0.176
32.96,-0.259,0.78,-0.096
32.97,-0.354,1.28,-0.205
32.98,-0.064,0.894,0.109
32.99,-0.085,1.091,0.132
33.0,-0.194,0.685,-0.001
33.01,-0.392,1.144,-0.158
33.02,-0.072,1.093,-0.045
33.03,-0.182,0.765,0.148
33.04,-0.128,1.067,0.13
33.05,-0.348,0.775,-0.203
33.06,-0.292,1.238,-0.078
33.07,-0.003,0.93,0.102
33.08,-0.18,0.89,0.108
33.09,-0.236,0.871,0.002
33.1,-0.291,1.009,-0.23
33.11,-0.172,1.13,0.02
33.12,-0.07,0.754,0.203
33.13,-0.221,1.037,0.023
33.14,-0.465,0.79,-0.193
33.15,-0.059,1.202,-0.097
33.16,-0.174,0.881,0.12
33.17,-0.186,0.798,0.174
33.18,-0.295,1.047,-0.131
33.19,-0.223,0.888,-0.112
33.2,-0.186,1.247,0.121
33.21,-0.03,0.649,0.122
33.22,-0.303,1.026,-0.027
33.23,-0.326,0.962,-0.192
33.24,-0.081,1.094,0.003
33.25,-0.232,0.957,0.173
33.26,-0.091,0.747,0.106
33.27,-0.433,1.173,-0.21
33.28,-0.175,0.83,-0.039
33.29,-0.054,1.244,0.11
33.3,-0.163,0.661,0.131
33.31,-0.295,1.004,-0.042
33.32,-0.31,1.038,-0.198
33.33,-0.15,0.982,0.104
33.34,-0.142,1.072,0.161
33.35,-0.137,0.655,0.008
33.36,-0.532,1.286,-0.171
33.37,-0.057,0.837,-0.026
33.38,-0.199,1.104,0.166
33.39,-0.168,0.796,0.146
33.4,-0.333,0.939,-0.167
33.41,-0.289,1.151,-0.13
33.42,0.019,0.906,0.07
33.43,-0.127,1.047,0.112
33.44,-0.255,0.686,-0.041
33.45,-0.408,1.309,-0.223
33.46,-0.051,0.864,-0.028
33.47,-0.121,1.064,0.179
33.48,-0.162,0.843,0.076
33.49,-0.433,1.097,-0.136
33.5,-0.114,1.078,-0.034
33.51,-0.141,0.843,0.131
33.52,-0.123,1.026,0.101
33.53,-0.327,0.734,-0.164
33.54,-0.304,1.319,-0.084
33.55,-0.036,0.919,0.045
33.56,-0.141,0.897,0.103
33.57,-0.213,0.829,0.029
33.58,-0.388,1.083,-0.221
33.59,-0.085,1.117,-0.002
33.6,-0.095,0.814,0.173
33.61,-0.097,1.016,0.03
33.62,-0.381,0.814,-0.232
33.63,-0.107,1.238,-0.107
33.64,-0.081,0.837,0.118
33.65,-0.171,0.889,0.179
33.66,-0.311,0.965,-0.091
33.67,-0.269,0.849,-0.174
33.68,-0.283,0.807,-0.062
33.69,-0.272,1.06,-0.187
33.7,-0.071,0.965,0.098
33.71,-0.162,1.07,0.136
33.72,-0.148,0.623,0.006
33.73,-0.51,1.344,-0.18
33.74,-0.064,0.874,-0.039
33.75,-0.141,1.042,0.127
33.76,-0.147,0.885,0.099
33.77,-0.348,0.842,-0.215
33.78,-0.165,1.235,-0.074
33.79,-0.072,0.885,0.1
33.8,-0.189,0.973,0.123
33.81,-0.271,0.732,0.051
33.82,-0.426,1.281,-0.182
33.83,-0.086,0.943,0.014
33.84,-0.114,0.95,0.18
33.85,-0.176,0.898,0.02
33.86,-0.42,0.873,-0.144
33.87,-0.15,1.315,-0.082
33.88,-0.04,0.717,0.101
33.89,-0.196,1.035,0.149
33.9,-0.305,0.797,-0.129
33.91,-0.29,1.107,-0.14
33.92,-0.033,1.096,0.106
33.93,-0.182,0.68,0.159
33.94,-0.277,1.065,0.012
33.95,-0.347,0.919,-0.189
33.96,-0.152,1.2,0.039
33.97,-0.126,0.743,0.187
33.98,-0.129,0.969,0.078
33.99,-0.405,0.94,-0.24
34.0,-0.091,0.982,-0.075
34.01,-0.064,1.15,0.091
34.02,-0.147,0.643,0.146
34.03,-0.36,1.135,-0.054
34.04,-0.282,0.874,-0.182
34.05,-0.063,1.21,0.061
34.06,-0.106,0.829,0.158
34.07,-0.217,0.825,0.002
34.08,-0.404,1.132,-0.184
34.09,-0.039,0.945,-0.039
34.1,-0.131,1.083,0.128
34.11,-0.105,0.68,0.134
34.12,-0.379,1.181,-0.202
34.13,-0.233,0.941,-0.08
34.14,-0.046,1.158,0.093
34.15,-0.105,0.82,0.077
34.16,-0.301,0.786,-0.017
34.17,-0.306,1.276,-0.214
34.18,-0.106,0.818,0.039
34.19,-0.18,1.131,0.198
34.2,-0.068,0.656,0.033
34.21,-0.477,1.13,-0.186
34.22,-0.121,1.041,-0.003
34.23,-0.121,0.953,0.137
34.24,-0.23,0.83,0.199
34.25,-0.327,0.917,-0.147
34.26,-0.283,1.158,-0.134
34.27,0.001,0.917,0.14
34.28,-0.126,1.066,0.135
34.29,-0.333,0.641,-0.015
34.3,-0.289,1.278,-0.205
34.31,-0.107,0.977,-0.004
34.32,-0.202,0.922,0.215
34.33,-0.14,0.894,0.057
34.34,-0.439,0.844,-0.191
34.35,-0.078,1.268,-0.053
34.36,-0.078,0.757,0.138
34.37,-0.222,1.02,0.167
34.38,-0.181,0.762,-0.126
34.39,-0.352,1.14,-0.17
34.4,-0.073,1.078,0.123
34.41,-0.149,0.799,0.115
34.42,-0.269,0.994,-0.016
34.43,-0.276,0.932,-0.187
34.44,-0.173,1.23,-0.033
34.45,-0.179,0.673,0.219
34.46,-0.156,0.997,0.088
34.47,-0.354,0.904,-0.202
34.48,-0.217,1.047,-0.012
34.49,-0.103,1.103,0.127
34.5,-0.247,0.654,0.13
34.51,-0.299,1.131,-0.07
34.52,-0.269,0.853,-0.192
34.53,-0.18,1.231,0.063
34.54,-0.011,0.771,0.119
34.55,-0.127,0.907,-0.015
34.56,-0.437,1.078,-0.147
34.57,-0.14,0.878,-0.023
34.58,-0.131,1.124,0.163
34.59,-0.099,0.686,0.116
34.6,-0.44,1.104,-0.16
34.61,-0.221,0.906,-0.104
34.62,-0.011,1.202,0.093
34.63,-0.15,0.774,0.151
34.64,-0.188,0.806,-0.019
34.65,-0.377,1.273,-0.211
34.66,-0.082,0.808,0.056
34.67,-0.148,1.177,0.154
34.68,-0.089,0.677,0.031
34.69,-0.454,1.173,-0.189
34.7,-0.12,1.007,-0.036
34.71,-0.075,0.983,0.102
34.72,-0.156,0.958,0.154
34.73,-0.316,0.769,-0.107
34.74,-0.269,1.219,-0.172
34.75,0.008,0.976,0.135
34.76,-0.216,1.039,0.136
34.77,-0.137,0.705,-0.005
34.78,-0.417,1.213,-0.183
34.79,-0.173,1.023,0.001
34.8,-0.1,0.812,0.211
34.81,-0.198,1.04,0.106
34.82,-0.409,0.753,-0.178
34.83,-0.274,1.287,-0.06
34.84,-0.071,0.838,0.104
34.85,-0.119,0.939,0.15
34.86,-0.314,0.893,-0.096
34.87,-0.246,0.975,-0.182
34.88,-0.114,1.162,0.061
34.89,-0.122,0.761,0.153
34.9,-0.191,1.036,-0.016
34.91,-0.375,0.841,-0.181
34.92,-0.125,1.237,-0.026
34.93,-0.127,0.79,0.118
34.94,-0.235,0.874,0.209
34.95,-0.3,1.051,-0.211
34.96,-0.283,0.893,-0.12
34.97,-0.072,1.265,0.162
34.98,-0.137,0.641,0.1
34.99,-0.346,1.016,-0.018
35.0,-0.28,0.979,-0.21
35.01,-0.099,1.091,-0.049
35.02,-0.172,0.871,0.207
35.03,-0.1,0.77,0.034
35.04,-0.511,1.168,-0.204
35.05,-0.033,0.87,-0.068
35.06,-0.195,1.057,0.087
35.07,-0.066,0.654,0.155
35.08,-0.383,1.19,-0.141
35.09,-0.288,0.854,-0.152
35.1,0.01,1.191,0.04
35.11,-0.087,0.76,0.107
35.12,-0.299,0.867,0.025
35.13,-0.335,1.22,-0.256
35.14,-0.117,0.877,0.012
35.15,-0.173,1.203,0.142
35.16,-0.032,0.627,0.085
35.17,-0.518,1.209,-0.137
35.18,-0.059,0.969,-0.124
35.19,-0.076,1.006,0.07
35.2,-0.209,0.894,0.188
35.21,-0.256,0.777,-0.069
35.22,-0.339,1.262,-0.168
35.23,-0.139,0.882,0.079
35.24,-0.114,1.12,0.065
35.25,-0.152,0.637,-0.017
35.26,-0.45,1.229,-0.155
35.27,-0.108,1.041,-0.044
35.28,-0.197,0.818,0.17
35.29,-0.176,1.035,0.156
35.3,-0.311,0.766,-0.234
35.31,-0.306,1.265,-0.062
35.32,0.031,0.88,0.104
35.33,-0.198,0.933,0.096
35.34,-0.283,0.854,0.01
35.35,-0.329,1.136,-0.212
35.36,-0.11,1.064,-0.057
35.37,-0.022,0.807,0.169
35.38,-0.163,1.02,-0.0
35.39,-0.432,0.799,-0.129
35.4,-0.21,1.292,-0.041
35.41,-0.087,0.779,0.068
35.42,-0.113,0.911,0.148
35.43,-0.35,0.98,-0.136
35.44,-0.307,0.882,-0.11
35.45,-0.052,1.278,0.081
35.46,-0.116,0.603,0.129
35.47,-0.303,1.087,0.096
35.48,-0.408,0.936,-0.213
35.49,-0.177,1.063,-0.003
35.5,-0.106,0.969,0.142
35.51,-0.136,0.75,0.08
35.52,-0.409,1.093,-0.143
35.53,-0.082,0.967,-0.08
35.54,-0.227,1.16,0.106
35.55,-0.075,0.612,0.22
35.56,-0.351,1.102,-0.078
35.57,-0.348,0.854,-0.217
35.58,-0.018,1.089,0.134
35.59,-0.208,1.051,0.116
35.6,-0.094,0.681,0.001
35.61,-0.412,1.279,-0.189
35.62,-0.157,0.85,-0.024
35.63,-0.17,1.131,0.082
35.64,-0.114,0.759,0.13
35.65,-0.358,0.97,-0.162
35.66,-0.275,1.035,-0.125
35.67,-0.033,1.036,0.112
35.68,-0.141,0.959,0.089
35.69,-0.216,0.694,0.038
35.7,-0.387,1.364,-0.216
35.71,-0.082,0.796,-0.002
35.72,-0.192,1.131,0.21
35.73,-0.119,0.778,0.057
35.74,-0.45,0.929,-0.163
35.75,-0.105,1.264,-0.05
35.76,-0.137,0.834,0.09
35.77,-0.177,0.983,0.212
35.78,-0.207,0.771,-0.119
35.79,-0.392,1.215,-0.154
35.8,-0.142,0.936,0.141
35.81,-0.155,0.997,0.157
35.82,-0.255,0.889,-0.011
35.83,-0.303,0.944,-0.146
35.84,-0.179,1.225,-0.081
35.85,-0.065,0.717,0.135
35.86,-0.165,1.108,0.176
35.87,-0.401,0.71,-0.169
35.88,-0.143,1.286,-0.08
35.89,-0.071,0.931,0.049
35.9,-0.198,0.815,0.122
35.91,-0.202,0.928,-0.021
35.92,-0.306,1.009,-0.226
35.93,-0.18,1.104,0.045
35.94,-0.053,0.793,0.143
35.95,-0.23,1.027,0.05
35.96,-0.355,0.81,-0.175
35.97,-0.099,1.229,-0.103
35.98,-0.072,0.829,0.084
35.99,-0.135,0.855,0.21
36.0,-0.367,1.022,-0.086
36.01,-0.304,0.768,-0.159
36.02,0.008,1.344,0.113
36.03,-0.171,0.701,0.146
36.04,-0.269,0.996,0.096
36.05,-0.296,1.007,-0.255
36.06,-0.183,1.045,-0.053
36.07,-0.143,0.946,0.138
36.08,-0.066,0.737,0.064
36.09,-0.441,1.121,-0.219
36.1,-0.068,0.876,-0.064
36.11,-0.211,1.221,0.123
36.12,-0.099,0.696,0.135
36.13,-0.297,1.026,0.013
36.14,-0.402,1.031,-0.22
36.15,-0.084,0.95,-0.001
36.16,-0.161,1.152,0.121
36.17,-0.13,0.611,0.053
36.18,-0.401,1.237,-0.139
36.19,-0.194,0.914,-0.069
36.2,-0.079,1.013,0.063
36.21,-0.112,0.833,0.188
36.22,-0.351,0.922,-0.112
36.23,-0.281,1.114,-0.161
36.24,-0.117,0.945,0.113
36.25,-0.194,1.113,0.109
36.26,-0.128,0.604,-0.016
36.27,-0.443,1.323,-0.161
36.28,-0.07,0.879,-0.025
36.29,-0.207,0.998,0.173
36.3,-0.128,0.925,0.137
36.31,-0.364,0.829,-0.195
36.32,-0.294,1.219,-0.045
36.33,-0.032,0.929,0.079
36.34,-0.146,1.001,0.092
36.35,-0.241,0.746,0.048
36.36,-0.387,1.255,-0.256
36.37,-0.034,0.962,-0.044
36.38,-0.077,0.904,0.209
36.39,-0.161,0.949,0.063
36.4,-0.432,0.814,-0.194
36.41,-0.12,1.289,-0.044
36.42,-0.079,0.751,0.097
36.43,-0.229,0.98,0.185
36.44,-0.268,0.881,-0.08
36.45,-0.302,1.048,-0.181
36.46,-0.12,1.105,0.113
36.47,-0.041,0.738,0.109
36.48,-0.28,1.011,0.014
36.49,-0.352,0.919,-0.175
36.5,-0.137,1.242,-0.043
36.51,-0.157,0.726,0.167
36.52,-0.128,0.945,0.114
36.53,-0.36,0.995,-0.175
36.54,-0.272,0.932,-0.044
36.55,-0.042,1.216,0.111
36.56,-0.061,0.611,0.077
36.57,-0.34,1.105,-0.005
36.58,-0.286,0.926,-0.217
36.59,-0.177,1.135,0.0
36.6,-0.072,0.906,0.158
36.61,-0.172,0.808,0.036
36.62,-0.412,1.148,-0.2
36.63,-0.088,0.902,-0.059
36.64,-0.135,1.126,0.095
36.65,-0.173,0.658,0.214
36.66,-0.375,1.105,-0.148
36.67,-0.26,0.879,-0.173
36.68,-0.074,1.148,0.119
36.69,-0.132,0.688,0.146
36.7,-0.275,0.897,0.069
36.71,-0.344,1.206,-0.226
36.72,-0.083,0.839,-0.001
36.73,-0.181,1.172,0.149
36.74,-0.044,0.615,0.074
36.75,-0.495,1.219,-0.149
36.76,-0.191,0.957,-0.011
36.77,-0.098,1.07,0.066
36.78,-0.2,0.84,0.149
36.79,-0.273,0.809,-0.027
36.8,-0.391,1.176,-0.197
36.81,-0.049,0.891,0.136
36.82,-0.131,1.209,0.122
36.83,-0.193,0.589,0.006
36.84,-0.44,1.182,-0.168
36.85,-0.056,1.074,-0.128
36.86,-0.158,0.858,0.158
36.87,-0.196,1.004,0.182
36.88,-0.292,0.745,-0.214
36.89,-0.323,1.225,-0.079
36.9,-0.003,0.94,0.181
36.91,-0.274,0.979,0.12
36.92,-0.212,0.733,-0.05
36.93,-0.293,1.191,-0.186
36.94,-0.139,1.064,-0.012
36.95,-0.205,0.772,0.249
36.96,-0.125,1.017,0.044
36.97,-0.378,0.789,-0.224
36.98,-0.164,1.272,-0.054
36.99,-0.054,0.814,0.126
37.0,-0.266,0.936,0.197
37.01,-0.244,0.933,-0.106
37.02,-0.296,0.954,-0.237
37.03,-0.097,1.171,0.115
37.04,-0.121,0.713,0.174
37.05,-0.267,1.043,0.014
37.06,-0.361,0.888,-0.161
37.07,-0.148,1.205,-0.018
37.08,-0.109,0.775,0.192
37.09,-0.172,0.977,0.046
37.1,-0.407,0.886,-0.183
37.11,-0.179,1.071,-0.062
37.12,-0.042,1.103,0.039
37.13,-0.211,0.634,0.183
37.14,-0.273,1.116,-0.069
37.15,-0.311,0.791,-0.192
37.16,-0.11,1.239,0.079
37.17,-0.047,0.845,0.105
37.18,-0.213,0.842,0.016
37.19,-0.427,1.143,-0.158
37.2,-0.133,0.935,-0.041
37.21,-0.225,1.073,0.162
37.22,-0.106,0.655,0.175
37.23,-0.408,1.142,-0.156
37.24,-0.222,0.841,-0.147
37.25,-0.089,1.218,0.085
37.26,-0.149,0.807,0.125
37.27,-0.239,0.823,0.037
37.28,-0.414,1.318,-0.244
37.29,-0.055,0.769,-0.046
37.3,-0.121,1.191,0.156
37.31,-0.129,0.665,0.104
37.32,-0.457,1.06,-0.196
37.33,-0.086,1.039,-0.083
37.34,-0.18,0.987,0.08
37.35,-0.154,0.87,0.146
37.36,-0.187,0.799,-0.072
37.37,-0.371,1.265,-0.232
37.38,-0.106,0.851,0.09
37.39,-0.121,1.157,0.124
37.4,-0.147,0.68,0.064
37.41,-0.422,1.079,-0.162
37.42,-0.091,1.137,-0.121
37.43,-0.157,0.802,0.118
37.44,-0.183,1.049,0.169
37.45,-0.286,0.709,-0.151
37.46,-0.337,1.196,-0.131
37.47,-0.067,0.971,0.154
37.48,-0.238,0.978,0.13
37.49,-0.22,0.812,0.008
37.5,-0.383,1.247,-0.224
37.51,-0.111,0.939,-0.042
37.52,-0.101,0.911,0.211
37.53,-0.129,0.997,0.057
37.54,-0.405,0.763,-0.199
37.55,-0.157,1.326,-0.041
37.56,-0.092,0.8,0.101
37.57,-0.201,0.91,0.15
37.58,-0.206,0.866,-0.067
37.59,-0.393,1.026,-0.235
37.6,-0.068,1.121,0.071
37.61,-0.065,0.804,0.118
37.62,-0.287,0.995,0.006
37.63,-0.296,0.867,-0.199
37.64,-0.106,1.262,-0.106
37.65,-0.164,0.729,0.14
37.66,-0.072,0.911,0.173
37.67,-0.393,0.999,-0.145
37.68,-0.267,0.877,-0.133
37.69,-0.038,1.241,0.129
37.7,-0.169,0.596,0.146
37.71,-0.316,1.098,0.014
37.72,-0.296,0.989,-0.213
37.73,-0.158,1.073,-0.045
37.74,-0.136,0.856,0.202
37.75,-0.089,0.792,0.104
37.76,-0.539,1.122,-0.181
37.77,-0.19,0.837,-0.046
37.78,-0.108,1.267,0.033
37.79,-0.138,0.598,0.128
37.8,-0.314,1.07,-0.003
37.81,-0.324,1.017,-0.229
37.82,-0.115,0.942,0.055
37.83,-0.085,1.045,0.131
37.84,-0.186,0.677,0.049
37.85,-0.417,1.235,-0.21
37.86,-0.06,0.944,-0.022
37.87,-0.147,1.109,0.096
37.88,-0.184,0.712,0.179
37.89,-0.356,0.977,-0.125
37.9,-0.222,1.055,-0.189
37.91,-0.102,1.006,0.138
37.92,-0.166,1.036,0.124
37.93,-0.174,0.631,-0.018
37.94,-0.381,1.347,-0.193
37.95,-0.129,0.861,-0.015
37.96,-0.217,1.038,0.193
37.97,-0.074,0.865,0.06
37.98,-0.492,0.887,-0.179
37.99,-0.236,1.196,-0.049
38.0,-0.064,0.889,0.076
38.01,-0.104,0.99,0.106
38.02,-0.277,0.73,0.002
38.03,-0.373,1.264,-0.198
38.04,-0.1,0.917,0.044
38.05,-0.16,0.973,0.146
38.06,-0.132,0.879,0.006
38.07,-0.39,0.915,-0.173
38.08,-0.165,1.287,-0.061
38.09,-0.09,0.655,0.07
38.1,-0.139,1.031,0.163
38.11,-0.363,0.809,-0.133
38.12,-0.236,1.092,-0.176
38.13,-0.079,1.108,0.108
38.14,-0.125,0.728,0.138
38.15,-0.313,1.017,0.015
38.16,-0.331,0.885,-0.169
38.17,-0.094,1.284,-0.004
38.18,-0.196,0.76,0.164
38.19,-0.103,0.965,0.072
38.2,-0.336,0.935,-0.213
38.21,-0.255,1.036,-0.053
38.22,-0.03,1.1,0.073
38.23,-0.15,0.675,0.129
38.24,-0.321,1.13,-0.058
38.25,-0.236,0.867,-0.204
38.26,-0.18,1.202,0.105
38.27,-0.092,0.76,0.151
38.28,-0.115,0.888,0.003
38.29,-0.48,1.128,-0.185
38.3,-0.143,0.891,-0.017
38.31,-0.193,1.117,0.142
38.32,-0.189,0.752,0.132
38.33,-0.414,1.131,-0.184
38.34,-0.217,0.842,-0.109
38.35,-0.062,1.278,0.106
38.36,-0.08,0.678,0.135
38.37,-0.349,0.967,-0.022
38.38,-0.29,1.118,-0.216
38.39,-0.018,0.917,-0.03
38.4,-0.168,1.112,0.165
38.41,-0.128,0.638,0.027
38.42,-0.487,1.243,-0.187
38.43,-0.121,0.914,-0.011
38.44,-0.116,1.122,0.111
38.45,-0.117,0.798,0.133
38.46,-0.328,0.861,-0.083
38.47,-0.24,1.214,-0.161
38.48,-0.089,0.886,0.072
38.49,-0.113,1.061,0.123
38.5,-0.191,0.654,-0.012
38.51,-0.482,1.276,-0.123
38.52,-0.024,0.974,-0.036
38.53,-0.194,0.911,0.144
38.54,-0.107,0.943,0.131
38.55,-0.353,0.829,-0.238
38.56,-0.224,1.241,-0.108
38.57,0.032,0.848,0.1
38.58,-0.232,0.997,0.115
38.59,-0.24,0.757,-0.048
38.6,-0.281,1.258,-0.204
38.61,-0.148,0.987,0.029
38.62,-0.057,0.79,0.197
38.63,-0.252,1.017,0.013
38.64,-0.456,0.829,-0.146
38.65,-0.059,1.278,-0.06
38.66,-0.121,0.713,0.112
38.67,-0.174,0.998,0.181
38.68,-0.387,0.913,-0.141
38.69,-0.308,0.999,-0.079
38.7,-0.016,1.189,0.064
38.71,-0.07,0.615,0.027
38.72,-0.26,1.102,0.015
38.73,-0.316,0.93,-0.166
38.74,-0.209,1.179,0.052
38.75,-0.03,0.793,0.165
38.76,-0.235,0.869,0.034
38.77,-0.422,1.059,-0.179
38.78,-0.099,0.917,-0.088
38.79,-0.153,1.089,0.163
38.8,-0.108,0.692,0.18
38.81,-0.428,1.141,-0.177
38.82,-0.171,0.857,-0.137
38.83,-0.047,1.249,0.128
38.84,-0.149,0.745,0.128
38.85,-0.285,0.818,0.0
38.86,-0.342,1.29,-0.262
38.87,-0.104,0.806,0.018
38.88,-0.202,1.177,0.182
38.89,-0.099,0.665,0.057
38.9,-0.482,1.123,-0.199
38.91,-0.124,1.053,-0.088
38.92,-0.123,0.962,0.108
38.93,-0.148,0.932,0.153
38.94,-0.288,0.741,-0.107
38.95,-0.348,1.257,-0.156
38.96,-0.088,0.899,0.129
38.97,-0.217,1.099,0.164
38.98,-0.162,0.699,0.02
38.99,-0.448,1.16,-0.117
39.0,-0.137,1.102,-0.059
39.01,-0.146,0.795,0.123
39.02,-0.113,1.073,0.12
39.03,-0.384,0.723,-0.164
39.04,-0.271,1.283,-0.055
39.05,-0.047,0.912,0.11
39.06,-0.22,0.881,0.115
39.07,-0.211,0.907,-0.025
39.08,-0.407,1.014,-0.165
39.09,-0.121,1.13,0.031
39.1,-0.045,0.754,0.148
39.11,-0.257,1.047,-0.029
39.12,-0.319,0.846,-0.16
39.13,-0.234,1.191,-0.071
39.14,-0.085,0.75,0.219
39.15,-0.209,0.994,0.074
39.16,-0.313,0.843,-0.199
39.17,-0.203,1.086,-0.042
39.18,-0.2,1.088,0.088
39.19,-0.099,0.617,0.157
39.2,-0.229,1.123,-0.043
39.21,-0.453,0.849,-0.202
39.22,-0.124,1.169,0.056
39.23,-0.036,0.899,0.111
39.24,-0.215,0.837,0.026
39.25,-0.316,1.11,-0.16
39.26,-0.162,0.998,-0.052
39.27,-0.158,1.018,0.117
39.28,-0.113,0.683,0.136
39.29,-0.391,1.174,-0.158
39.3,-0.269,0.826,-0.161
39.31,-0.03,1.214,0.131
39.32,-0.161,0.806,0.117
39.33,-0.242,0.79,-0.007
39.34,-0.33,1.292,-0.206
39.35,-0.07,0.833,0.01
39.36,-0.278,1.131,0.213
39.37,-0.085,0.663,0.109
39.38,-0.442,1.137,-0.221
39.39,-0.086,1.0,-0.089
39.4,-0.062,0.918,0.103
39.41,-0.212,0.959,0.222
39.42,-0.339,0.779,-0.056
39.43,-0.35,1.24,-0.209
39.44,-0.105,0.871,0.125
39.45,-0.151,1.031,0.122
39.46,-0.184,0.737,0.012
39.47,-0.419,1.159,-0.169
39.48,-0.107,1.074,-0.078
39.49,-0.118,0.79,0.188
39.5,-0.19,1.037,0.114
39.51,-0.39,0.76,-0.167
39.52,-0.238,1.261,-0.127
39.53,-0.034,0.894,0.083
39.54,-0.163,0.878,0.12
39.55,-0.257,0.896,-0.032
39.56,-0.336,1.023,-0.245
39.57,-0.073,1.159,0.022
39.58,-0.094,0.782,0.152
39.59,-0.203,0.987,0.026
39.6,-0.341,0.883,-0.165
39.61,-0.176,1.254,-0.085
39.62,-0.154,0.727,0.085
39.63,-0.143,0.909,0.191
39.64,-0.449,0.999,-0.154
39.65,-0.239,0.853,-0.117
39.66,0.034,1.34,0.075
39.67,-0.154,0.587,0.121
39.68,-0.252,1.061,0.038
39.69,-0.297,1.006,-0.235
39.7,-0.117,1.032,-0.003
39.71,-0.139,0.976,0.226
39.72,-0.148,0.728,0.037
39.73,-0.479,1.176,-0.121
39.74,-0.115,0.914,-0.082
39.75,-0.126,1.123,0.087
39.76,-0.204,0.713,0.211
39.77,-0.315,1.014,-0.118
39.78,-0.289,1.009,-0.182
39.79,-0.062,1.055,0.121
39.8,-0.203,0.955,0.11
39.81,-0.219,0.681,0.014
39.82,-0.434,1.363,-0.227
39.83,-0.066,0.79,-0.077
39.84,-0.122,1.112,0.197
39.85,-0.157,0.798,0.124
39.86,-0.403,0.942,-0.19
39.87,-0.171,1.173,-0.069
39.88,-0.121,0.869,0.065
39.89,-0.143,1.009,0.149
39.9,-0.229,0.724,-0.053
39.91,-0.435,1.241,-0.177
39.92,-0.077,0.891,0.108
39.93,-0.194,1.04,0.157
39.94,-0.149,0.812,0.013
39.95,-0.374,1.172,-0.194
39.96,-0.184,1.02,-0.005
39.97,-0.154,0.839,0.187
39.98,-0.138,1.038,0.078
39.99,-0.369,0.742,-0.221
40.0,-0.178,1.32,-0.058
40.01,-0.159,0.885,0.115
40.02,-0.151,0.85,0.124
40.03,-0.151,0.916,-0.054
40.04,-0.329,1.037,-0.198
40.05,-0.141,1.177,0.095
40.06,-0.102,0.727,0.156
40.07,-0.171,1.006,-0.007
40.08,-0.356,0.923,-0.188
40.09,-0.195,1.218,-0.041
40.1,-0.119,0.847,0.15
40.11,-0.23,0.843,0.19
40.12,-0.292,0.95,-0.171
40.13,-0.261,0.928,-0.131
40.14,-0.099,1.297,0.105
40.15,-0.076,0.588,0.113
40.16,-0.297,1.087,0.021
40.17,-0.322,0.953,-0.224
40.18,-0.142,1.063,0.016
40.19,-0.163,0.984,0.2
40.2,-0.09,0.763,0.083
40.21,-0.4,1.181,-0.176
40.22,-0.208,0.899,-0.016
40.23,-0.119,1.168,0.075
40.24,-0.112,0.667,0.147
40.25,-0.391,1.044,-0.013
40.26,-0.275,0.964,-0.25
40.27,-0.048,0.974,0.045
40.28,-0.205,1.074,0.158
40.29,-0.11,0.629,0.002
40.3,-0.525,1.33,-0.166
40.31,-0.095,0.917,-0.036
40.32,-0.082,1.092,0.097
40.33,-0.162,0.79,0.16
40.34,-0.42,0.937,-0.183
40.35,-0.19,1.083,-0.161
40.36,0.001,0.994,0.099
40.37,-0.205,1.038,0.123
40.38,-0.23,0.67,0.026
40.39,-0.437,1.332,-0.194
40.4,-0.055,0.898,-0.016
40.41,-0.12,1.011,0.166
40.42,-0.188,0.851,0.059
40.43,-0.409,0.906,-0.176
40.44,-0.128,1.232,-0.11
40.45,-0.075,0.781,0.109
40.46,-0.229,1.061,0.161
40.47,-0.268,0.746,-0.102
40.48,-0.324,1.167,-0.134
40.49,-0.064,1.057,0.147
40.5,-0.161,0.786,0.133
40.51,-0.262,0.978,0.005
40.52,-0.314,0.969,-0.206
40.53,-0.149,1.166,-0.087
40.54,-0.117,0.738,0.16
40.55,-0.176,1.017,0.093
40.56,-0.312,0.86,-0.188
40.57,-0.251,1.084,-0.077
40.58,-0.094,1.042,0.081
40.59,-0.146,0.645,0.146
40.6,-0.24,1.11,-0.048
40.61,-0.415,0.844,-0.198
40.62,-0.066,1.232,0.078
40.63,-0.142,0.838,0.105
40.64,-0.169,0.843,0.006
40.65,-0.354,1.111,-0.155
40.66,-0.154,0.999,-0.09
40.67,-0.159,1.021,0.13
40.68,-0.098,0.701,0.167
40.69,-0.43,1.151,-0.156
40.7,-0.247,0.771,-0.18
40.71,-0.06,1.266,0.119
40.72,-0.165,0.847,0.112
40.73,-0.208,0.796,0.023
40.74,-0.384,1.253,-0.17
40.75,-0.161,0.828,0.024
40.76,-0.193,1.147,0.164
40.77,-0.122,0.685,0.029
40.78,-0.419,1.201,-0.191
40.79,-0.128,0.917,-0.061
40.8,-0.082,1.139,0.134
40.81,-0.192,0.804,0.183
40.82,-0.336,0.921,-0.093
40.83,-0.242,1.075,-0.214
40.84,-0.032,1.003,0.115
40.85,-0.188,1.055,0.126
40.86,-0.187,0.613,0.0
40.87,-0.364,1.349,-0.22
40.88,-0.138,0.878,-0.069
40.89,-0.159,0.99,0.166
40.9,-0.059,0.902,0.098
40.91,-0.393,0.857,-0.178
40.92,-0.237,1.25,-0.039
40.93,-0.059,0.898,0.082
40.94,-0.199,0.98,0.123
40.95,-0.17,0.732,-0.012
40.96,-0.421,1.234,-0.241
40.97,-0.118,0.958,0.051
40.98,-0.08,0.963,0.164
40.99,-0.179,0.927,0.034
41.0,-0.395,0.843,-0.143
41.01,-0.193,1.339,-0.076
41.02,-0.106,0.676,0.07
41.03,-0.201,1.028,0.224
41.04,-0.3,0.882,-0.168
41.05,-0.327,0.968,-0.174
41.06,-0.08,1.188,0.158
41.07,-0.157,0.76,0.097
41.08,-0.277,1.001,0.026
41.09,-0.315,0.928,-0.192
41.1,-0.103,1.199,-0.056
41.11,-0.179,0.734,0.162
41.12,-0.095,0.912,0.119
41.13,-0.411,0.949,-0.196
41.14,-0.224,0.979,-0.039
41.15,-0.069,1.219,0.065
41.16,-0.144,0.586,0.101
41.17,-0.257,1.139,0.01
41.18,-0.35,0.922,-0.206
41.19,-0.238,1.096,0.043
41.2,-0.042,0.938,0.112
41.21,-0.165,0.81,0.031
41.22,-0.504,1.098,-0.158
41.23,-0.004,0.887,-0.107
41.24,-0.196,1.172,0.084
41.25,-0.105,0.636,0.205
41.26,-0.339,1.095,-0.111
41.27,-0.3,0.915,-0.183
41.28,-0.007,1.129,0.083
41.29,-0.114,0.965,0.093
41.3,-0.289,0.701,0.069
41.31,-0.387,1.339,-0.187
41.32,-0.116,0.851,-0.082
41.33,-0.171,1.123,0.159
41.34,-0.067,0.747,0.163
41.35,-0.497,0.982,-0.184
41.36,-0.249,1.027,-0.123
41.37,-0.001,1.041,0.083
41.38,-0.225,0.937,0.145
41.39,-0.196,0.707,0.023
41.4,-0.401,1.346,-0.243
41.41,-0.099,0.769,0.027
41.42,-0.153,1.143,0.225
41.43,-0.18,0.78,0.072
41.44,-0.482,0.95,-0.14
41.45,-0.083,1.232,-0.093
41.46,-0.128,0.767,0.085
41.47,-0.202,1.041,0.217
41.48,-0.201,0.767,-0.107
41.49,-0.409,1.176,-0.153
41.5,-0.125,0.92,0.148
41.51,-0.09,0.998,0.152
41.52,-0.308,0.887,0.019
41.53,-0.3,0.956,-0.171
41.54,-0.163,1.209,-0.063
41.55,-0.175,0.714,0.221
41.56,-0.096,1.085,0.167
41.57,-0.371,0.78,-0.211
41.58,-0.207,1.301,-0.04
41.59,-0.061,0.947,0.036
41.6,-0.199,0.766,0.133
41.61,-0.109,0.977,0.0
41.62,-0.343,1.067,-0.252
41.63,-0.241,1.066,0.062
41.64,-0.001,0.794,0.167
41.65,-0.238,1.026,0.027
41.66,-0.372,0.82,-0.156
41.67,-0.114,1.218,-0.104
41.68,-0.138,0.871,0.061
41.69,-0.19,0.784,0.238
41.7,-0.275,1.082,-0.11
41.71,-0.319,0.862,-0.145
41.72,-0.183,1.259,0.115
41.73,-0.006,0.742,0.107
41.74,-0.324,1.008,0.001
41.75,-0.346,0.981,-0.171
41.76,-0.083,1.062,-0.092
41.77,-0.233,0.924,0.139
41.78,-0.076,0.766,0.192
41.79,-0.452,1.126,-0.179
41.8,-0.258,0.756,-0.054
41.81,-0.002,1.343,0.087
41.82,-0.12,0.59,0.12
41.83,-0.332,1.008,0.094
41.84,-0.287,1.105,-0.242
41.85,-0.206,0.846,-0.051
41.86,-0.055,1.095,0.173
41.87,-0.122,0.683,0.036
41.88,-0.508,1.188,-0.16
41.89,-0.114,0.906,-0.034
41.9,-0.085,1.151,0.067
41.91,-0.183,0.791,0.146
41.92,-0.158,0.928,-0.072
41.93,-0.351,1.119,-0.231
41.94,-0.164,0.878,0.113
41.95,-0.102,1.189,0.104
41.96,-0.122,0.592,-0.048
41.97,-0.422,1.254,-0.125
41.98,-0.109,0.99,-0.084
41.99,-0.181,0.934,0.075
42.0,-0.09,0.931,0.157
42.01,-0.288,0.791,-0.165
42.02,-0.136,0.791,0.107
42.03,-0.259,0.828,0.025
42.04,-0.35,1.281,-0.179
42.05,-0.113,0.809,-0.037
42.06,-0.235,1.109,0.202
42.07,-0.047,0.704,0.121
42.08,-0.545,1.105,-0.198
42.09,-0.138,0.913,-0.071
42.1,-0.053,1.177,0.06
42.11,-0.22,0.837,0.117
42.12,-0.187,0.799,0.037
42.13,-0.416,1.313,-0.269
42.14,-0.101,0.725,0.027
42.15,-0.13,1.266,0.177
42.16,-0.113,0.66,0.006
42.17,-0.481,1.053,-0.165
42.18,-0.031,1.169,-0.071
42.19,-0.161,0.902,0.098
42.2,-0.221,0.93,0.175
42.21,-0.243,0.765,-0.097
42.22,-0.371,1.26,-0.187
42.23,-0.113,0.852,0.14
42.24,-0.177,1.081,0.17
42.25,-0.195,0.732,-0.011
42.26,-0.298,1.109,-0.19
42.27,-0.144,1.136,-0.083
42.28,-0.226,0.776,0.158
42.29,-0.116,1.054,0.131
42.3,-0.333,0.7,-0.215
42.31,-0.254,1.234,-0.08
42.32,-0.067,0.965,0.076
42.33,-0.184,0.818,0.094
42.34,-0.159,0.8,-0.041
42.35,-0.394,1.136,-0.225
42.36,-0.121,1.052,0.03
42.37,-0.025,0.897,0.122
42.38,-0.202,0.977,0.03
42.39,-0.365,0.819,-0.14
42.4,-0.169,1.315,-0.075
42.41,-0.095,0.753,0.049
42.42,-0.141,0.93,0.165
42.43,-0.281,0.949,-0.113
42.44,-0.328,0.912,-0.182
42.45,-0.104,1.235,0.07
42.46,-0.058,0.745,0.123
42.47,-0.259,1.017,0.012
42.48,-0.417,0.885,-0.114
42.49,-0.145,1.196,-0.046
42.5,-0.187,0.774,0.145
42.51,-0.067,0.888,0.168
42.52,-0.385,1.11,-0.231
42.53,-0.284,0.833,-0.021
42.54,-0.076,1.343,0.072
42.55,-0.164,0.626,0.071
42.56,-0.216,1.048,0.033
42.57,-0.328,0.972,-0.213
42.58,-0.216,1.0,0.011
42.59,-0.139,1.015,0.184
42.6,-0.098,0.735,0.069
42.61,-0.48,1.155,-0.197
42.62,-0.11,0.886,-0.056
42.63,-0.068,1.22,0.009
42.64,-0.147,0.655,0.147
42.65,-0.206,1.026,-0.051
42.66,-0.352,1.084,-0.199
42.67,-0.172,0.923,0.097
42.68,-0.093,1.067,0.182
42.69,-0.147,0.667,0.024
42.7,-0.49,1.24,-0.184
42.71,-0.007,0.898,-0.08
42.72,-0.118,1.062,0.095
42.73,-0.139,0.807,0.15
42.74,-0.342,0.96,-0.127
42.75,-0.277,1.069,-0.165
42.76,-0.163,0.936,0.184
42.77,-0.108,1.072,0.104
42.78,-0.256,0.646,-0.004
42.79,-0.354,1.334,-0.218
42.8,-0.026,0.901,-0.103
42.81,-0.187,0.949,0.199
42.82,-0.056,0.911,0.096
42.83,-0.426,0.857,-0.21
42.84,-0.222,1.235,-0.012
42.85,-0.049,0.873,0.088
42.86,-0.254,0.994,0.114
42.87,-0.216,0.772,-0.031
42.88,-0.292,1.154,-0.256
42.89,-0.105,0.983,0.08
42.9,-0.088,0.872,0.163
42.91,-0.186,0.946,0.044
42.92,-0.389,0.871,-0.195
42.93,-0.112,1.263,-0.098
42.94,-0.116,0.736,0.11
42.95,-0.19,1.015,0.178
42.96,-0.332,0.901,-0.162
42.97,-0.274,0.986,-0.119
42.98,-0.104,1.136,0.089
42.99,-0.081,0.747,0.117
43.0,-0.234,1.046,-0.021
43.01,-0.347,0.925,-0.142
43.02,-0.186,1.187,-0.062
43.03,-0.146,0.806,0.155
43.04,-0.125,0.919,0.13
43.05,-0.44,0.937,-0.178
43.06,-0.272,0.96,-0.054
43.07,-0.103,1.245,0.085
43.08,-0.099,0.562,0.084
43.09,-0.348,1.12,0.028
43.1,-0.22,0.938,-0.25
43.11,-0.112,1.101,0.03
43.12,-0.158,0.902,0.212
43.13,-0.116,0.803,0.034
43.14,-0.399,1.129,-0.179
43.15,-0.07,1.061,-0.012
43.16,-0.201,1.044,0.093
43.17,-0.17,0.626,0.156
43.18,-0.381,1.187,-0.127
43.19,-0.22,0.858,-0.203
43.2,-0.111,1.203,0.122
43.21,-0.16,0.753,0.173
43.22,-0.253,0.855,-0.011
43.23,-0.403,1.197,-0.196
43.24,-0.121,0.821,-0.015
43.25,-0.191,1.138,0.161
43.26,-0.068,0.655,0.143
43.27,-0.529,1.159,-0.206
43.28,-0.151,0.904,-0.073
43.29,-0.025,1.169,0.027
43.3,-0.123,0.833,0.134
43.31,-0.25,0.795,0.021
43.32,-0.408,1.267,-0.225
43.33,-0.074,0.811,0.028
43.34,-0.206,1.216,0.199
43.35,-0.138,0.657,0.042
43.36,-0.448,1.148,-0.194
43.37,-0.146,1.061,-0.071
43.38,-0.106,0.874,0.119
43.39,-0.226,0.972,0.151
43.4,-0.267,0.774,-0.101
43.41,-0.277,1.219,-0.207
43.42,-0.077,0.894,0.084
43.43,-0.098,1.046,0.145
43.44,-0.15,0.766,-0.011
43.45,-0.439,1.08,-0.147
43.46,-0.134,1.083,-0.024
43.47,-0.149,0.818,0.164
43.48,-0.207,1.06,0.115
43.49,-0.313,0.757,-0.169
43.5,-0.217,1.274,-0.063
43.51,-0.148,0.934,0.093
43.52,-0.125,0.817,0.152
43.53,-0.22,0.926,-0.013
43.54,-0.376,0.991,-0.227
43.55,-0.097,1.129,0.019
43.56,-0.1,0.798,0.152
43.57,-0.161,1.021,0.05
43.58,-0.343,0.842,-0.166
43.59,-0.166,1.24,-0.081
43.6,-0.127,0.847,0.044
43.61,-0.126,0.842,0.215
43.62,-0.32,1.035,-0.102
43.63,-0.29,0.776,-0.167
43.64,-0.09,1.316,0.103
43.65,-0.128,0.733,0.155
43.66,-0.255,0.996,0.022
43.67,-0.384,0.983,-0.189
43.68,-0.138,1.057,-0.052
43.69,-0.111,0.939,0.116
43.7,-0.135,0.749,0.183
43.71,-0.4,1.154,-0.165
43.72,-0.212,0.791,-0.143
43.73,-0.096,1.284,0.096
43.74,-0.087,0.684,0.127
43.75,-0.219,0.983,-0.018
43.76,-0.408,1.096,-0.165
43.77,-0.097,0.918,0.05
43.78,-0.168,1.13,0.145
43.79,-0.078,0.671,0.113
43.8,-0.477,1.207,-0.195
43.81,-0.144,0.866,-0.033
43.82,-0.141,1.176,0.131
43.83,-0.074,0.763,0.1
43.84,-0.338,0.875,-0.029
43.85,-0.32,1.193,-0.157
43.86,-0.1,0.902,0.045
43.87,-0.168,1.09,0.141
43.88,-0.156,0.639,0.066
43.89,-0.447,1.27,-0.235
43.9,-0.121,0.925,-0.067
43.91,-0.133,0.978,0.109
43.92,-0.157,0.869,0.138
43.93,-0.323,0.83,-0.156
43.94,-0.282,1.235,-0.164
43.95,-0.021,0.824,0.129
43.96,-0.191,1.092,0.202
43.97,-0.242,0.659,-0.032
43.98,-0.336,1.277,-0.21
43.99,-0.114,0.93,-0.002
44.0,-0.143,1.031,0.151
44.01,-0.113,0.841,0.071
44.02,-0.398,0.918,-0.192
44.03,-0.22,1.223,0.001
44.04,-0.087,0.78,0.083
44.05,-0.224,1.033,0.137
44.06,-0.159,0.772,-0.112
44.07,-0.359,1.233,-0.158
44.08,-0.108,0.963,0.086
44.09,-0.086,0.905,0.126
44.1,-0.226,0.945,-0.03
44.11,-0.435,0.926,-0.122
44.12,-0.108,1.24,-0.068
44.13,-0.184,0.696,0.152
44.14,-0.121,1.049,0.125
44.15,-0.361,0.85,-0.175
44.16,-0.298,1.051,-0.14
44.17,-0.0,1.127,0.088
44.18,-0.145,0.677,0.112
44.19,-0.286,1.084,-0.015
44.2,-0.316,0.905,-0.182
44.21,-0.161,1.218,0.031
44.22,-0.061,0.798,0.175
44.23,-0.177,0.907,0.01
44.24,-0.38,0.98,-0.166
44.25,-0.156,1.05,-0.047
44.26,-0.164,1.044,0.105
44.27,-0.167,0.69,0.178
44.28,-0.351,1.179,-0.093
44.29,-0.367,0.783,-0.156
44.3,-0.034,1.218,0.131
44.31,-0.11,0.865,0.132
44.32,-0.263,0.812,0.013
44.33,-0.375,1.203,-0.187
44.34,-0.084,0.886,-0.047
44.35,-0.246,1.135,0.161
44.36,-0.064,0.707,0.139
44.37,-0.451,1.131,-0.199
44.38,-0.198,0.94,-0.041
44.39,-0.086,1.14,0.11
44.4,-0.166,0.827,0.092
44.41,-0.256,0.782,0.005
44.42,-0.304,1.286,-0.252
44.43,-0.134,0.822,0.022
44.44,-0.111,1.175,0.16
44.45,-0.131,0.663,0.04
44.46,-0.447,1.113,-0.148
44.47,-0.174,1.103,-0.08
44.48,-0.075,0.869,0.042
44.49,-0.097,0.992,0.211
44.5,-0.363,0.781,-0.105
44.51,-0.272,1.225,-0.181
44.52,-0.121,0.939,0.091
44.53,-0.165,1.004,0.139
44.54,-0.202,0.789,-0.006
44.55,-0.394,1.117,-0.187
44.56,-0.12,1.114,-0.066
44.57,-0.135,0.775,0.172
44.58,-0.166,1.052,0.136
44.59,-0.293,0.736,-0.216
44.6,-0.282,1.248,-0.09
44.61,0.005,0.903,0.089
44.62,-0.222,0.883,0.155
44.63,-0.338,0.929,0.005
44.64,-0.28,1.022,-0.233
44.65,-0.137,1.156,0.011
44.66,-0.087,0.758,0.222
44.67,-0.218,1.024,0.086
44.68,-0.411,0.804,-0.193
44.69,-0.112,1.176,-0.072
44.7,-0.069,0.914,0.048
44.71,-0.191,0.806,0.16
44.72,-0.279,1.091,-0.103
44.73,-0.305,0.837,-0.194
44.74,-0.078,1.277,0.075
44.75,-0.084,0.679,0.158
44.76,-0.31,0.993,0.071
44.77,-0.348,1.003,-0.213
44.78,-0.111,1.138,-0.066
44.79,-0.097,0.863,0.148
44.8,-0.136,0.862,0.117
44.81,-0.434,1.092,-0.176
44.82,-0.104,0.906,-0.088
44.83,-0.232,1.203,0.122
44.84,-0.147,0.596,0.171
44.85,-0.265,1.117,-0.101
44.86,-0.34,0.871,-0.17
44.87,-0.129,1.113,0.063
44.88,-0.125,0.979,0.122
44.89,-0.14,0.701,0.059
44.9,-0.393,1.265,-0.234
44.91,-0.096,0.9,-0.078
44.92,-0.183,1.13,0.094
44.93,-0.102,0.727,0.206
44.94,-0.434,1.014,-0.109
44.95,-0.269,0.964,-0.156
44.96,-0.111,1.069,0.123
44.97,-0.175,1.006,0.118
44.98,-0.144,0.667,-0.026
44.99,-0.464,1.339,-0.167
45.0,-0.088,0.85,-0.029
45.01,-0.185,1.061,0.123
45.02,-0.035,0.785,0.111
45.03,-0.432,1.003,-0.148
45.04,-0.314,1.12,-0.032
45.05,0.019,0.927,0.048
45.06,-0.131,1.025,0.076
45.07,-0.238,0.701,-0.016
45.08,-0.396,1.292,-0.224
45.09,-0.097,0.855,-0.025
45.1,-0.046,1.03,0.169
45.11,-0.156,0.872,0.053
45.12,-0.419,0.919,-0.205
45.13,-0.087,1.235,-0.067
45.14,-0.121,0.754,0.094
45.15,-0.207,1.06,0.147
45.16,-0.23,0.77,-0.132
45.17,-0.293,1.157,-0.16
45.18,-0.053,1.057,0.082
45.19,-0.077,0.83,0.127
45.2,-0.239,0.993,-0.007
45.21,-0.379,0.934,-0.16
45.22,-0.154,1.202,-0.048
45.23,-0.132,0.719,0.134
45.24,-0.2,1.024,0.087
45.25,-0.353,0.868,-0.19
45.26,-0.216,1.062,-0.055
45.27,-0.125,1.109,0.117
45.28,-0.157,0.646,0.103
45.29,-0.319,1.119,0.001
45.3,-0.292,0.882,-0.183
45.31,-0.078,1.182,-0.012
45.32,-0.011,0.796,0.122
45.33,-0.25,0.969,0.045
45.34,-0.351,0.955,-0.175
45.35,-0.138,1.018,-0.092
45.36,-0.145,1.076,0.158
45.37,-0.163,0.658,0.176
45.38,-0.405,1.17,-0.104
45.39,-0.267,0.871,-0.164
45.4,-0.107,1.208,0.087
45.41,-0.122,0.756,0.155
45.42,-0.203,0.861,-0.001
45.43,-0.416,1.198,-0.224
45.44,-0.133,0.803,0.007
45.45,-0.178,1.178,0.148
45.46,-0.097,0.683,0.094
45.47,-0.425,1.11,-0.178
45.48,-0.215,0.982,-0.069
45.49,-0.044,1.093,0.066
45.5,-0.138,0.849,0.123
45.51,-0.262,0.767,-0.04
45.52,-0.363,1.298,-0.203
45.53,-0.041,0.796,0.035
45.54,-0.211,1.186,0.174
45.55,-0.082,0.641,0.088
45.56,-0.5,1.117,-0.165
45.57,-0.091,1.108,-0.059
45.58,-0.092,0.899,0.108
45.59,-0.261,0.981,0.189
45.6,-0.366,0.885,-0.118
45.61,-0.365,1.184,-0.134
45.62,0.007,0.873,0.112
45.63,-0.135,1.077,0.106
45.64,-0.258,0.671,0.023
45.65,-0.453,1.235,-0.166
45.66,-0.072,0.969,-0.036
45.67,-0.216,0.95,0.213
45.68,-0.123,0.924,0.051
45.69,-0.338,0.872,-0.2
45.7,-0.27,1.309,-0.039
45.71,-0.002,0.762,0.108
45.72,-0.219,1.001,0.152
45.73,-0.28,0.843,-0.073
45.74,-0.255,1.123,-0.177
45.75,-0.185,1.08,0.068
45.76,-0.099,0.749,0.179
45.77,-0.253,1.011,-0.006
45.78,-0.396,0.877,-0.185
45.79,-0.139,1.254,0.003
45.8,-0.125,0.794,0.137
45.81,-0.204,0.925,0.155
45.82,-0.267,0.943,-0.172
45.83,-0.225,1.011,-0.146
45.84,-0.087,1.149,0.089
45.85,-0.11,0.645,0.11
45.86,-0.268,1.097,-0.004
45.87,-0.349,0.942,-0.192
45.88,-0.153,1.116,0.0
45.89,-0.121,0.828,0.189
45.9,-0.193,0.833,0.067
45.91,-0.477,1.072,-0.19
45.92,-0.054,0.934,-0.104
45.93,-0.104,1.143,0.093
45.94,-0.168,0.641,0.155
45.95,-0.373,1.111,-0.083
45.96,-0.203,0.941,-0.206
45.97,-0.124,1.111,0.119
45.98,-0.124,0.897,0.151
45.99,-0.227,0.743,0.006
46.0,-0.467,1.312,-0.201
46.01,-0.112,0.841,-0.014
46.02,-0.249,1.152,0.143
46.03,-0.092,0.696,0.118
46.04,-0.367,1.062,-0.183
46.05,-0.251,1.032,-0.092
46.06,-0.02,0.963,0.106
46.07,-0.141,0.992,0.128
46.08,-0.303,0.698,-0.025
46.09,-0.396,1.294,-0.19
46.1,-0.101,0.872,0.036
46.11,-0.239,1.124,0.19
46.12,-0.051,0.744,0.021
46.13,-0.476,1.037,-0.189
46.14,-0.093,1.128,-0.062
46.15,-0.081,0.816,0.137
46.16,-0.227,1.017,0.142
46.17,-0.234,0.738,-0.123
46.18,-0.318,1.238,-0.168
46.19,-0.102,0.914,0.107
46.2,-0.125,0.939,0.124
46.21,-0.284,0.847,0.006
46.22,-0.347,1.025,-0.168
46.23,-0.089,1.178,-0.029
46.24,-0.105,0.698,0.133
46.25,-0.129,1.114,0.098
46.26,-0.35,0.806,-0.229
46.27,-0.219,1.167,-0.078
46.28,-0.082,0.973,0.126
46.29,-0.146,0.752,0.081
46.3,-0.311,1.044,-0.064
46.31,-0.227,0.953,-0.165
46.32,-0.112,1.182,0.062
46.33,-0.125,0.711,0.223
46.34,-0.187,1.012,0.034
46.35,-0.442,0.915,-0.236
46.36,-0.089,1.091,-0.018
46.37,-0.158,0.961,0.112
46.38,-0.172,0.725,0.167
46.39,-0.371,1.123,-0.193
46.4,-0.257,0.89,-0.126
46.41,0.005,1.276,0.104
46.42,-0.141,0.636,0.125
46.43,-0.3,1.064,-0.014
46.44,-0.273,0.95,-0.221
46.45,-0.146,1.097,0.061
46.46,-0.074,0.896,0.158
46.47,-0.206,0.754,0.024
46.48,-0.532,1.184,-0.148
46.49,0.023,0.917,-0.06
46.5,-0.151,1.162,0.086
46.51,-0.181,0.69,0.186
46.52,-0.311,1.063,-0.158
46.53,-0.315,1.015,-0.132
46.54,0.008,1.04,0.12
46.55,-0.116,0.956,0.106
46.56,-0.302,0.722,-0.02
46.57,-0.408,1.325,-0.171
46.58,-0.104,0.835,-0.021
46.59,-0.166,1.093,0.199
46.6,-0.078,0.767,0.067
46.61,-0.471,1.034,-0.241
46.62,-0.152,1.108,-0.056
46.63,-0.027,0.853,0.115
46.64,-0.176,1.044,0.086
46.65,-0.264,0.708,-0.134
46.66,-0.239,1.281,-0.131
46.67,-0.117,0.926,0.108
46.68,-0.165,0.911,0.173
46.69,-0.256,0.839,-0.003
46.7,-0.412,1.021,-0.179
46.71,-0.06,1.163,-0.005
46.72,-0.171,0.768,0.192
46.73,-0.117,1.051,0.07
46.74,-0.328,0.8,-0.239
46.75,-0.22,1.228,-0.009
46.76,-0.077,0.904,0.098
46.77,-0.206,0.801,0.116
46.78,-0.244,1.039,-0.09
46.79,-0.323,0.911,-0.201
46.8,-0.119,1.239,0.135
46.81,-0.11,0.691,0.135
46.82,-0.376,0.992,-0.015
46.83,-0.213,0.978,-0.206
46.84,-0.17,1.097,-0.028
46.85,-0.228,0.882,0.249
46.86,-0.135,0.752,0.113
46.87,-0.49,1.151,-0.178
46.88,-0.211,0.882,-0.07
46.89,-0.06,1.208,0.076
46.9,-0.181,0.681,0.125
46.91,-0.223,1.015,-0.083
46.92,-0.324,1.031,-0.2
46.93,-0.124,1.03,0.089
46.94,-0.053,1.033,0.14
46.95,-0.198,0.676,0.004
46.96,-0.502,1.264,-0.15
46.97,-0.102,0.857,-0.034
46.98,-0.139,1.1,0.105
46.99,-0.222,0.825,0.132
47.0,-0.339,0.925,-0.187
47.01,-0.24,1.191,-0.037
47.02,-0.07,0.933,0.131
47.03,-0.167,0.955,0.143
47.04,-0.222,0.695,-0.049
47.05,-0.394,1.29,-0.204
47.06,-0.049,0.934,-0.035
47.07,-0.125,1.001,0.148
47.08,-0.142,0.854,0.045
47.09,-0.439,0.932,-0.186
47.1,-0.154,1.233,-0.041
47.11,-0.104,0.733,0.12
47.12,-0.225,1.054,0.216
47.13,-0.292,0.74,-0.13
47.14,-0.364,1.161,-0.127
47.15,-0.01,1.019,0.081
47.16,-0.091,0.765,0.075
47.17,-0.199,1.009,0.03
47.18,-0.389,0.963,-0.14
47.19,-0.188,1.156,-0.048
47.2,0.007,0.717,0.135
47.21,-0.277,1.031,0.131
47.22,-0.395,0.891,-0.184
47.23,-0.19,1.19,-0.062
47.24,-0.149,0.839,0.124
47.25,-0.133,0.882,0.123
47.26,-0.359,0.988,-0.144
47.27,-0.252,0.853,-0.144
47.28,-0.094,1.277,0.068
47.29,-0.148,0.598,0.16
47.3,-0.284,1.079,0.059
47.31,-0.33,0.973,-0.252
47.32,-0.099,1.007,-0.043
47.33,-0.118,0.963,0.185
47.34,-0.191,0.726,0.094
47.35,-0.454,1.139,-0.204
47.36,-0.144,0.925,-0.029
47.37,-0.167,1.179,0.121
47.38,-0.16,0.661,0.146
47.39,-0.303,1.041,-0.088
47.4,-0.282,1.011,-0.21
47.41,-0.067,1.047,0.09
47.42,-0.099,1.022,0.12
47.43,-0.204,0.648,0.036
47.44,-0.402,1.358,-0.184
47.45,-0.119,0.88,-0.055
47.46,-0.256,1.084,0.161
47.47,-0.044,0.792,0.104
47.48,-0.427,0.951,-0.221
47.49,-0.192,1.127,-0.027
47.5,-0.062,0.944,0.11
47.51,-0.173,0.978,0.106
47.52,-0.211,0.681,-0.006
47.53,-0.386,1.307,-0.204
47.54,-0.155,0.933,0.112
47.55,-0.109,1.023,0.18
47.56,-0.186,0.84,0.054
47.57,-0.455,0.953,-0.183
47.58,-0.146,1.209,-0.088
47.59,-0.093,0.718,0.133
47.6,-0.179,1.102,0.124
47.61,-0.191,0.75,-0.201
47.62,-0.314,1.157,-0.117
47.63,0.011,1.044,0.101
47.64,-0.197,0.777,0.119
47.65,-0.223,0.983,-0.0
47.66,-0.264,0.992,-0.24
47.67,-0.204,1.182,0.017
47.68,-0.067,0.767,0.235
47.69,-0.194,1.01,0.039
47.7,-0.431,0.824,-0.18
47.71,-0.097,1.187,-0.07
47.72,-0.153,1.002,0.092
47.73,-0.212,0.668,0.213
47.74,-0.247,1.147,-0.102
47.75,-0.397,0.822,-0.187
47.76,-0.063,1.211,0.158
47.77,-0.114,0.797,0.093
47.78,-0.323,0.909,-0.008
47.79,-0.266,1.104,-0.208
47.8,-0.128,0.979,-0.078
47.81,-0.191,1.042,0.187
47.82,-0.042,0.678,0.077
47.83,-0.523,1.144,-0.203
47.84,-0.196,0.864,-0.044
47.85,0.005,1.204,0.094
47.86,-0.27,0.786,0.165
47.87,-0.223,0.85,-0.056
47.88,-0.3,1.166,-0.228
47.89,-0.106,0.936,0.143
47.9,-0.177,1.132,0.154
47.91,-0.117,0.598,-0.008
47.92,-0.452,1.263,-0.142
47.93,-0.107,0.952,-0.064
47.94,-0.139,0.965,0.101
47.95,-0.134,0.933,0.159
47.96,-0.373,0.833,-0.15
47.97,-0.283,1.194,-0.121
47.98,-0.018,0.9,0.11
47.99,-0.177,0.99,0.127
48.0,-0.25,0.695,0.031
48.01,-0.328,1.229,-0.251
48.02,-0.104,0.947,-0.022
48.03,-0.121,0.897,0.159
48.04,-0.212,0.978,0.068
48.05,-0.45,0.971,-0.15
48.06,-0.144,1.218,-0.105
48.07,-0.055,0.722,0.096
48.08,-0.131,1.112,0.142
48.09,-0.313,0.699,-0.157
48.1,-0.279,1.176,-0.094
48.11,0.014,1.031,0.094
48.12,-0.18,0.769,0.12
48.13,-0.308,0.964,0.017
48.14,-0.269,0.946,-0.212
48.15,-0.204,1.207,-0.003
48.16,-0.098,0.766,0.203
48.17,-0.249,0.994,0.071
48.18,-0.378,0.811,-0.189
48.19,-0.129,1.193,-0.086
48.2,-0.124,0.954,0.113
48.21,-0.155,0.716,0.179
48.22,-0.35,1.109,-0.094
48.23,-0.29,0.791,-0.195
48.24,-0.124,1.322,0.144
48.25,-0.14,0.721,0.141
48.26,-0.244,0.928,-0.016
48.27,-0.332,1.084,-0.178
48.28,-0.181,0.993,0.003
48.29,-0.19,0.995,0.155
48.3,-0.045,0.676,0.076
48.31,-0.453,1.2,-0.179
