t,ax,ay,az
0.0,-0.354,1.279,-0.142
0.01,-0.122,0.904,0.124
0.02,-0.097,1.106,0.141
0.03,-0.154,0.638,0.035
0.04,-0.497,1.2,-0.17
0.05,-0.06,1.056,-0.049
0.06,-0.165,0.871,0.148
0.07,-0.249,0.965,0.21
0.08,-0.279,0.766,-0.13
0.09,-0.306,1.265,-0.15
0.1,-0.049,0.862,0.126
0.11,-0.146,0.994,0.134
0.12,-0.251,0.815,-0.018
0.13,-0.38,1.135,-0.186
0.14,-0.043,1.054,-0.034
0.15,-0.182,0.786,0.205
0.16,-0.136,1.052,0.11
0.17,-0.349,0.78,-0.193
0.18,-0.28,1.275,-0.034
0.19,-0.013,0.877,0.101
0.2,-0.201,0.889,0.095
0.21,-0.268,0.94,-0.039
0.22,-0.312,1.015,-0.174
0.23,-0.141,1.143,0.031
0.24,-0.01,0.708,0.159
0.25,-0.219,1.035,-0.014
0.26,-0.464,0.867,-0.127
0.27,-0.073,1.241,-0.072
0.28,-0.132,0.81,0.101
0.29,-0.208,0.856,0.206
0.3,-0.309,1.048,-0.133
0.31,-0.335,0.911,-0.14
0.32,-0.081,1.192,0.119
0.33,-0.042,0.653,0.152
0.34,-0.399,1.067,-0.017
0.35,-0.252,0.909,-0.204
0.36,-0.098,1.106,-0.008
0.37,-0.171,0.927,0.138
0.38,-0.102,0.775,0.069
0.39,-0.425,1.217,-0.218
0.4,-0.045,1.046,0.108
0.41,-0.201,0.877,0.142
0.42,-0.27,0.818,-0.127
0.43,-0.236,1.227,-0.19
0.44,-0.107,0.913,0.121
0.45,-0.142,1.041,0.141
0.46,-0.256,0.681,-0.023
0.47,-0.42,1.318,-0.209
0.48,-0.056,0.888,0.039
0.49,-0.285,1.058,0.205
0.5,-0.109,0.783,0.055
0.51,-0.38,0.979,-0.2
0.52,-0.245,1.214,0.003
0.53,-0.084,0.794,0.133
0.54,-0.177,1.057,0.089
0.55,-0.216,0.716,-0.097
0.56,-0.363,1.22,-0.147
0.57,-0.142,0.993,0.156
0.58,-0.138,0.908,0.149
0.59,-0.281,0.917,0.024
0.6,-0.367,0.981,-0.172
0.61,-0.157,1.188,-0.068
0.62,-0.085,0.74,0.111
0.63,-0.177,1.08,0.133
0.64,-0.352,0.797,-0.181
0.65,-0.279,1.135,-0.143
0.66,-0.005,1.03,0.106
0.67,-0.149,0.771,0.164
0.68,-0.311,1.003,0.007
0.69,-0.303,0.918,-0.205
0.7,-0.101,1.229,-0.016
0.71,-0.116,0.75,0.174
0.72,-0.165,0.998,0.057
0.73,-0.37,0.92,-0.233
0.74,-0.136,1.098,-0.082
0.75,-0.122,0.965,0.083
0.76,-0.171,0.709,0.158
0.77,-0.305,1.113,-0.125
0.78,-0.24,0.835,-0.177
0.79,-0.096,1.309,0.124
0.8,-0.185,0.704,0.153
0.81,-0.221,0.928,-0.031
0.82,-0.378,1.099,-0.195
0.83,-0.061,0.912,-0.077
0.84,-0.142,1.09,0.192
0.85,-0.123,0.693,0.093
0.86,-0.444,1.164,-0.155
0.87,-0.2,0.922,-0.087
0.88,-0.08,1.14,0.025
0.89,-0.096,0.78,0.148
0.9,-0.265,0.905,-0.015
0.91,-0.451,1.112,-0.223
0.92,-0.088,0.865,0.094
0.93,-0.176,1.19,0.136
0.94,-0.132,0.595,0.049
0.95,-0.405,1.24,-0.207
0.96,-0.11,0.93,-0.099
0.97,-0.17,0.966,0.118
0.98,-0.075,0.902,0.104
0.99,-0.338,0.858,-0.134
1.0,-0.364,1.135,-0.145
1.01,-0.002,0.936,0.105
1.02,-0.222,1.095,0.126
1.03,-0.152,0.654,0.025
1.04,-0.392,1.294,-0.205
1.05,-0.156,0.933,-0.059
1.06,-0.102,0.857,0.16
1.07,-0.083,1.001,0.126
1.08,-0.411,0.812,-0.179
1.09,-0.329,1.253,-0.076
1.1,0.025,0.863,0.068
1.11,-0.192,0.984,0.099
1.12,-0.216,0.783,-0.015
1.13,-0.307,1.179,-0.214
1.14,-0.135,1.049,0.004
1.15,-0.105,0.828,0.193
1.16,-0.206,1.003,0.025
1.17,-0.409,0.824,-0.219
1.18,-0.052,1.308,-0.062
1.19,-0.151,0.779,0.124
1.2,-0.233,0.923,0.178
1.21,-0.215,0.891,-0.114
1.22,-0.365,1.003,-0.148
1.23,-0.1,1.113,0.132
1.24,-0.066,0.713,0.121
1.25,-0.376,0.968,-0.017
1.26,-0.232,0.912,-0.218
1.27,-0.109,1.238,-0.028
1.28,-0.098,0.744,0.206
1.29,-0.127,0.977,0.071
1.3,-0.419,0.876,-0.173
1.31,-0.187,1.106,-0.058
1.32,-0.047,0.984,0.062
1.33,-0.131,0.754,0.22
1.34,-0.372,1.118,-0.073
1.35,-0.31,0.732,-0.202
1.36,-0.135,1.291,0.111
1.37,-0.148,0.797,0.107
1.38,-0.197,0.894,-0.005
1.39,-0.402,1.065,-0.152
1.4,-0.104,1.043,-0.041
1.41,-0.232,1.049,0.129
1.42,-0.055,0.694,0.157
1.43,-0.436,1.171,-0.126
1.44,-0.234,0.849,-0.105
1.45,-0.069,1.255,0.065
1.46,-0.131,0.71,0.099
1.47,-0.206,0.893,0.022
1.48,-0.406,1.204,-0.212
1.49,-0.101,0.824,0.027
1.5,-0.16,1.193,0.172
1.51,-0.163,0.676,0.114
1.52,-0.513,1.109,-0.183
1.53,-0.109,0.952,-0.06
1.54,-0.045,1.139,0.065
1.55,-0.178,0.77,0.133
1.56,-0.313,0.843,-0.028
1.57,-0.343,1.211,-0.217
1.58,-0.052,0.79,0.057
1.59,-0.103,1.171,0.166
1.6,-0.128,0.669,-0.01
1.61,-0.532,1.171,-0.184
1.62,-0.049,0.961,-0.06
1.63,-0.126,0.949,0.102
1.64,-0.151,0.969,0.194
1.65,-0.304,0.768,-0.174
1.66,-0.317,1.248,-0.137
1.67,-0.038,0.907,0.118
1.68,-0.19,1.01,0.104
1.69,-0.272,0.747,0.066
1.7,-0.352,1.183,-0.246
1.71,-0.113,1.009,-0.048
1.72,-0.161,0.871,0.214
1.73,-0.073,0.987,0.061
1.74,-0.352,0.791,-0.185
1.75,-0.196,1.299,-0.046
1.76,-0.028,0.819,0.096
1.77,-0.216,0.943,0.164
1.78,-0.24,0.858,-0.049
1.79,-0.38,1.021,-0.16
1.8,-0.193,1.141,0.078
1.81,-0.12,0.766,0.167
1.82,-0.149,1.014,-0.021
1.83,-0.354,0.86,-0.183
1.84,-0.206,1.197,-0.041
1.85,-0.115,0.735,0.08
1.86,-0.111,0.941,0.163
1.87,-0.321,1.002,-0.121
1.88,-0.306,0.855,-0.155
1.89,-0.06,1.249,0.083
1.9,-0.11,0.665,0.135
1.91,-0.227,1.039,-0.009
1.92,-0.376,0.964,-0.186
1.93,-0.118,1.112,-0.039
1.94,-0.185,0.856,0.162
1.95,-0.121,0.809,0.118
1.96,-0.404,1.132,-0.196
1.97,-0.258,0.85,-0.061
1.98,-0.107,1.283,0.068
1.99,-0.071,0.624,0.107
2.0,-0.33,1.035,-0.007
2.01,-0.303,0.966,-0.239
2.02,-0.099,1.016,-0.011
2.03,-0.119,1.007,0.166
2.04,-0.101,0.688,0.041
2.05,-0.515,1.222,-0.207
2.06,-0.02,0.879,-0.091
2.07,-0.157,1.123,0.056
2.08,-0.083,0.667,0.18
2.09,-0.381,1.121,-0.153
2.1,-0.275,0.9,-0.128
2.11,-0.058,1.136,0.042
2.12,-0.141,0.819,0.116
2.13,-0.213,0.777,0.054
2.14,-0.446,1.304,-0.241
2.15,-0.009,0.822,-0.046
2.16,-0.173,1.211,0.138
2.17,-0.117,0.633,0.143
2.18,-0.417,1.116,-0.152
2.19,-0.178,1.063,-0.103
2.2,-0.131,0.965,0.125
2.21,-0.201,0.897,0.143
2.22,-0.146,0.767,-0.101
2.23,-0.409,1.257,-0.178
2.24,-0.084,0.845,0.09
2.25,-0.111,1.219,0.128
2.26,-0.092,0.648,0.034
2.27,-0.429,1.113,-0.146
2.28,-0.126,1.153,-0.089
2.29,-0.103,0.802,0.047
2.3,-0.206,1.017,0.218
2.31,-0.304,0.758,-0.105
2.32,-0.333,1.166,-0.155
2.33,-0.075,0.917,0.119
2.34,-0.208,1.051,0.152
2.35,-0.161,0.733,-0.01
2.36,-0.392,1.108,-0.15
2.37,-0.12,1.144,-0.049
2.38,-0.171,0.716,0.165
2.39,-0.132,1.092,0.146
2.4,-0.349,0.769,-0.217
2.41,-0.279,1.216,-0.053
2.42,-0.023,0.965,0.085
2.43,-0.108,0.815,0.102
2.44,-0.233,0.934,0.009
2.45,-0.336,1.004,-0.205
2.46,-0.16,1.17,-0.035
2.47,-0.115,0.728,0.165
2.48,-0.174,1.049,0.1
2.49,-0.395,0.832,-0.16
2.5,-0.168,1.176,-0.088
2.51,-0.097,0.903,0.098
2.52,-0.192,0.801,0.184
2.53,-0.299,1.093,-0.101
2.54,-0.244,0.818,-0.194
2.55,-0.129,1.278,0.1
2.56,-0.081,0.716,0.12
2.57,-0.172,1.008,0.017
2.58,-0.413,0.977,-0.115
2.59,-0.203,1.048,-0.04
2.6,-0.131,0.928,0.076
2.61,-0.112,0.762,0.174
2.62,-0.377,1.172,-0.19
2.63,-0.232,0.819,-0.133
2.64,-0.109,1.294,0.107
2.65,-0.024,0.652,0.13
2.66,-0.27,0.941,0.029
2.67,-0.324,1.125,-0.216
2.68,-0.185,0.886,-0.001
2.69,-0.221,1.087,0.192
2.7,-0.146,0.658,0.11
2.71,-0.424,1.162,-0.197
2.72,-0.163,0.902,-0.065
2.73,-0.156,1.219,0.091
2.74,-0.085,0.721,0.151
2.75,-0.269,0.875,-0.032
2.76,-0.399,1.13,-0.17
2.77,-0.04,0.878,0.006
2.78,-0.215,1.204,0.152
2.79,-0.142,0.637,0.081
2.8,-0.389,1.209,-0.218
2.81,-0.189,0.937,-0.064
2.82,-0.068,1.054,0.125
2.83,-0.163,0.883,0.132
2.84,-0.391,0.799,-0.104
2.85,-0.212,1.164,-0.18
2.86,-0.009,0.969,0.09
2.87,-0.218,1.05,0.138
2.88,-0.116,0.658,0.007
2.89,-0.491,1.342,-0.186
2.9,-0.031,0.827,-0.031
2.91,-0.126,1.073,0.19
2.92,-0.224,0.841,0.105
2.93,-0.322,0.948,-0.181
2.94,-0.277,1.181,-0.033
2.95,-0.1,0.852,0.138
2.96,-0.135,1.018,0.095
2.97,-0.219,0.738,-0.051
2.98,-0.408,1.238,-0.189
2.99,-0.101,0.911,0.026
3.0,-0.065,0.998,0.093
3.01,-0.145,0.896,0.023
3.02,-0.402,0.906,-0.153
3.03,-0.18,1.251,-0.101
3.04,-0.029,0.71,0.028
3.05,-0.089,1.056,0.143
3.06,-0.343,0.777,-0.108
3.07,-0.255,1.091,-0.202
3.08,-0.009,1.039,0.06
3.09,-0.112,0.808,0.136
3.1,-0.233,1.0,0.045
3.11,-0.403,0.945,-0.177
3.12,-0.177,1.187,-0.025
3.13,-0.122,0.758,0.17
3.14,-0.21,0.966,0.127
3.15,-0.345,0.869,-0.156
3.16,-0.146,1.122,-0.121
3.17,-0.122,1.068,0.057
3.18,-0.114,0.684,0.137
3.19,-0.264,1.091,0.01
3.2,-0.369,0.865,-0.206
3.21,-0.095,1.184,0.03
3.22,-0.096,0.866,0.162
3.23,-0.195,0.881,0.071
3.24,-0.35,0.972,-0.169
3.25,-0.08,1.08,-0.077
3.26,-0.118,1.058,0.061
3.27,-0.125,0.674,0.17
3.28,-0.317,1.195,-0.111
3.29,-0.334,0.806,-0.169
3.3,-0.11,1.253,0.157
3.31,-0.116,0.859,0.155
3.32,-0.276,0.832,0.045
3.33,-0.366,1.19,-0.171
3.34,-0.119,0.918,-0.082
3.35,-0.184,1.061,0.142
3.36,-0.048,0.709,0.123
3.37,-0.413,1.118,-0.191
3.38,-0.304,0.865,-0.093
3.39,-0.039,1.202,0.088
3.4,-0.108,0.839,0.099
3.41,-0.246,0.79,0.054
3.42,-0.425,1.293,-0.188
3.43,-0.064,0.774,-0.028
3.44,-0.196,1.166,0.154
3.45,-0.036,0.726,0.082
3.46,-0.439,1.09,-0.206
3.47,-0.177,1.017,-0.064
3.48,-0.12,1.018,0.1
3.49,-0.152,0.904,0.12
3.5,-0.263,0.779,-0.032
3.51,-0.425,1.296,-0.191
3.52,-0.09,0.84,0.093
3.53,-0.056,1.166,0.109
3.54,-0.19,0.668,0.031
3.55,-0.422,1.038,-0.156
3.56,-0.059,1.152,-0.11
3.57,-0.07,0.803,0.097
3.58,-0.181,1.048,0.227
3.59,-0.327,0.742,-0.117
3.6,-0.3,1.215,-0.199
3.61,0.025,0.933,0.091
3.62,-0.134,0.925,0.107
3.63,-0.279,0.849,-0.004
3.64,-0.269,1.07,-0.211
3.65,-0.107,1.12,-0.055
3.66,-0.122,0.744,0.219
3.67,-0.131,1.061,0.084
3.68,-0.423,0.748,-0.206
3.69,-0.224,1.231,-0.055
3.7,-0.083,0.813,0.11
3.71,-0.264,0.987,0.189
3.72,-0.214,0.852,-0.101
3.73,-0.332,1.044,-0.197
3.74,-0.158,1.125,0.127
3.75,-0.054,0.767,0.121
3.76,-0.203,0.964,0.007
3.77,-0.323,0.903,-0.141
3.78,-0.215,1.259,-0.037
3.79,-0.127,0.691,0.122
3.8,-0.087,0.983,0.172
3.81,-0.396,0.938,-0.17
3.82,-0.276,0.862,-0.094
3.83,-0.01,1.274,0.084
3.84,-0.154,0.604,0.135
3.85,-0.235,1.093,0.037
3.86,-0.277,0.965,-0.218
3.87,-0.168,1.102,-0.015
3.88,-0.154,0.875,0.228
3.89,-0.136,0.836,0.05
3.9,-0.409,1.033,-0.225
3.91,-0.125,0.967,-0.035
3.92,-0.155,1.238,0.062
3.93,-0.14,0.539,0.13
3.94,-0.196,1.135,-0.023
3.95,-0.344,0.925,-0.241
3.96,-0.154,1.027,0.099
3.97,-0.078,1.004,0.097
3.98,-0.219,0.717,0.009
3.99,-0.381,1.235,-0.145
4.0,-0.09,0.894,-0.078
4.01,-0.239,1.132,0.106
4.02,-0.018,0.729,0.186
4.03,-0.43,1.017,-0.126
4.04,-0.252,0.958,-0.134
4.05,-0.001,1.092,0.082
4.06,-0.161,0.905,0.09
4.07,-0.216,0.71,0.016
4.08,-0.374,1.388,-0.194
4.09,-0.16,0.753,-0.036
4.1,-0.181,1.118,0.228
4.11,-0.072,0.791,0.079
4.12,-0.482,0.982,-0.176
4.13,-0.155,1.115,-0.081
4.14,-0.063,0.947,0.052
4.15,-0.188,0.954,0.125
4.16,-0.197,0.738,-0.05
4.17,-0.406,1.317,-0.244
4.18,-0.09,0.844,0.003
4.19,-0.094,1.13,0.145
4.2,-0.124,0.766,0.058
4.21,-0.457,0.929,-0.16
4.22,-0.109,1.281,-0.02
4.23,-0.125,0.756,0.087
4.24,-0.244,1.031,0.194
4.25,-0.195,0.775,-0.11
4.26,-0.406,1.163,-0.198
4.27,-0.082,0.948,0.118
4.28,-0.09,0.976,0.111
4.29,-0.255,0.882,-0.024
4.3,-0.383,0.949,-0.101
4.31,-0.162,1.301,-0.053
4.32,-0.14,0.653,0.101
4.33,-0.089,1.078,0.165
4.34,-0.332,0.835,-0.176
4.35,-0.372,1.078,-0.104
4.36,0.1,1.078,0.061
4.37,-0.185,0.74,0.125
4.38,-0.335,1.035,0.049
4.39,-0.207,0.956,-0.183
4.4,-0.254,1.229,0.062
4.41,-0.089,0.712,0.178
4.42,-0.152,0.96,0.085
4.43,-0.426,0.952,-0.193
4.44,-0.151,1.056,-0.043
4.45,-0.103,1.058,0.081
4.46,-0.214,0.693,0.165
4.47,-0.346,1.163,-0.07
4.48,-0.238,0.819,-0.25
4.49,-0.17,1.239,0.11
4.5,-0.048,0.805,0.158
4.51,-0.208,0.864,0.037
4.52,-0.384,0.994,-0.169
4.53,-0.086,1.092,-0.082
4.54,-0.227,0.879,0.133
4.55,-0.053,0.788,0.139
4.56,-0.469,1.13,-0.18
4.57,-0.274,0.81,-0.046
4.58,-0.012,1.301,0.107
4.59,-0.123,0.62,0.068
4.6,-0.283,1.0,-0.008
4.61,-0.284,1.121,-0.193
4.62,-0.173,0.887,0.029
4.63,-0.171,1.077,0.207
4.64,-0.073,0.689,0.051
4.65,-0.549,1.185,-0.204
4.66,-0.083,0.902,0.009
4.67,-0.117,1.204,0.091
4.68,-0.221,0.699,0.138
4.69,-0.206,0.979,-0.074
4.7,-0.315,1.142,-0.233
4.71,-0.107,0.869,0.089
4.72,-0.069,1.108,0.139
4.73,-0.25,0.637,-0.009
4.74,-0.472,1.234,-0.145
4.75,-0.018,0.948,-0.062
4.76,-0.193,1.0,0.09
4.77,-0.096,0.872,0.161
4.78,-0.32,0.927,-0.21
4.79,-0.264,1.149,-0.175
4.8,0.071,0.91,0.126
4.81,-0.199,1.047,0.138
4.82,-0.297,0.683,0.01
4.83,-0.259,1.275,-0.243
4.84,-0.13,0.94,-0.003
4.85,-0.196,0.914,0.226
4.86,-0.111,0.921,0.059
4.87,-0.418,0.867,-0.232
4.88,-0.112,1.287,-0.041
4.89,-0.005,0.801,0.078
4.9,-0.221,1.008,0.123
4.91,-0.204,0.789,-0.092
4.92,-0.333,1.138,-0.185
4.93,-0.124,1.048,0.092
4.94,-0.091,0.808,0.141
4.95,-0.324,0.977,0.017
4.96,-0.411,0.902,-0.125
4.97,-0.133,1.269,-0.012
4.98,-0.145,0.705,0.128
4.99,-0.147,0.992,0.131
5.0,-0.329,0.951,-0.195
5.01,-0.295,0.991,-0.118
5.02,-0.005,1.174,0.094
5.03,-0.135,0.668,0.122
5.04,-0.299,1.075,-0.018
5.05,-0.306,0.893,-0.197
5.06,-0.17,1.147,0.002
5.07,-0.064,0.788,0.17
5.08,-0.143,0.885,0.036
5.09,-0.448,1.064,-0.23
5.1,-0.122,0.946,-0.076
5.11,-0.101,1.139,0.085
5.12,-0.158,0.632,0.181
5.13,-0.318,1.129,-0.115
5.14,-0.242,0.889,-0.145
5.15,-0.118,1.17,0.094
5.16,-0.128,0.833,0.164
5.17,-0.221,0.808,0.01
5.18,-0.476,1.264,-0.209
5.19,-0.024,0.826,-0.078
5.2,-0.226,1.163,0.107
5.21,-0.059,0.698,0.128
5.22,-0.406,1.104,-0.217
5.23,-0.289,0.928,-0.033
5.24,-0.019,1.104,0.127
5.25,-0.182,0.894,0.101
5.26,-0.263,0.749,-0.018
5.27,-0.337,1.313,-0.212
5.28,-0.117,0.808,0.021
5.29,-0.186,1.178,0.214
5.3,-0.134,0.663,0.018
5.31,-0.534,1.084,-0.196
5.32,-0.017,1.106,-0.043
5.33,-0.208,1.034,0.122
5.34,-0.1,0.865,0.173
5.35,-0.352,0.834,-0.197
5.36,-0.292,1.18,-0.131
5.37,0.029,0.909,0.083
5.38,-0.191,1.063,0.109
5.39,-0.255,0.734,-0.002
5.4,-0.321,1.229,-0.213
5.41,-0.165,0.953,0.038
5.42,-0.082,0.96,0.203
5.43,-0.155,0.929,0.052
5.44,-0.442,0.806,-0.173
5.45,-0.115,1.285,-0.064
5.46,-0.083,0.779,0.079
5.47,-0.2,1.02,0.176
5.48,-0.272,0.776,-0.132
5.49,-0.283,1.056,-0.161
5.5,-0.047,1.146,0.104
5.51,-0.152,0.718,0.169
5.52,-0.303,0.989,0.079
5.53,-0.293,0.952,-0.204
5.54,-0.129,1.218,-0.049
5.55,-0.151,0.747,0.197
5.56,-0.142,0.967,0.074
5.57,-0.353,0.913,-0.198
5.58,-0.24,1.01,-0.055
5.59,-0.068,1.167,0.081
5.6,-0.142,0.587,0.126
5.61,-0.312,1.101,0.005
5.62,-0.285,0.922,-0.214
5.63,-0.095,1.162,0.034
5.64,-0.133,0.822,0.172
5.65,-0.136,0.842,0.049
5.66,-0.508,1.125,-0.207
5.67,-0.041,0.896,-0.082
5.68,-0.147,1.136,0.091
5.69,-0.191,0.696,0.229
5.7,-0.395,1.103,-0.125
5.71,-0.27,0.861,-0.173
5.72,-0.012,1.207,0.072
5.73,-0.095,0.815,0.072
5.74,-0.249,0.8,0.042
5.75,-0.438,1.273,-0.219
5.76,-0.046,0.78,-0.02
5.77,-0.223,1.166,0.229
5.78,-0.073,0.669,0.099
5.79,-0.537,1.133,-0.181
5.8,-0.135,0.972,-0.062
5.81,-0.053,1.059,0.094
5.82,-0.218,0.911,0.184
5.83,-0.204,0.785,-0.074
5.84,-0.373,1.28,-0.212
5.85,-0.076,0.811,0.134
5.86,-0.123,1.134,0.102
5.87,-0.18,0.67,0.033
5.88,-0.442,1.192,-0.149
5.89,-0.149,1.095,-0.088
5.9,-0.173,0.803,0.156
5.91,-0.135,1.041,0.162
5.92,-0.345,0.747,-0.15
5.93,-0.267,1.293,-0.101
5.94,0.044,0.875,0.084
5.95,-0.231,0.898,0.148
5.96,-0.258,0.842,0.01
5.97,-0.34,1.094,-0.225
5.98,-0.136,1.114,-0.007
5.99,-0.061,0.788,0.151
6.0,-0.187,1.012,0.034
6.01,-0.397,0.821,-0.16
6.02,-0.112,1.275,-0.076
6.03,-0.141,0.795,0.127
6.04,-0.206,0.886,0.208
6.05,-0.287,0.98,-0.121
6.06,-0.299,0.885,-0.181
6.07,-0.078,1.243,0.09
6.08,-0.141,0.647,0.133
6.09,-0.35,1.046,0.024
6.1,-0.252,0.931,-0.253
6.11,-0.106,1.109,-0.051
6.12,-0.185,0.876,0.167
6.13,-0.033,0.815,0.064
6.14,-0.457,1.11,-0.204
6.15,-0.108,1.007,-0.057
6.16,-0.105,1.14,0.113
6.17,-0.214,0.653,0.152
6.18,-0.231,1.132,-0.058
6.19,-0.329,0.859,-0.168
6.2,-0.144,1.207,0.126
6.21,-0.107,0.807,0.136
6.22,-0.24,0.856,-0.034
6.23,-0.357,1.185,-0.204
6.24,-0.104,0.882,-0.033
6.25,-0.196,1.098,0.152
6.26,-0.072,0.691,0.089
6.27,-0.435,1.1,-0.202
6.28,-0.221,0.89,-0.047
6.29,-0.028,1.155,0.077
6.3,-0.076,0.825,0.067
6.31,-0.268,0.78,0.01
6.32,-0.351,1.274,-0.213
6.33,-0.049,0.814,-0.008
6.34,-0.09,1.17,0.144
6.35,-0.141,0.661,0.038
6.36,-0.456,1.173,-0.198
6.37,-0.088,1.012,-0.084
6.38,-0.147,0.898,0.158
6.39,-0.222,0.951,0.161
6.4,-0.406,0.933,-0.16
6.41,-0.24,1.196,-0.12
6.42,-0.013,0.871,0.08
6.43,-0.13,1.022,0.143
6.44,-0.233,0.717,-0.02
6.45,-0.426,1.253,-0.209
6.46,-0.05,0.933,0.001
6.47,-0.182,1.038,0.194
6.48,-0.197,0.889,0.082
6.49,-0.408,0.866,-0.199
6.5,-0.098,1.314,-0.1
6.51,-0.102,0.716,0.132
6.52,-0.21,1.025,0.167
6.53,-0.273,0.765,-0.122
6.54,-0.351,1.113,-0.136
6.55,-0.098,1.046,0.137
6.56,-0.162,0.763,0.131
6.57,-0.213,0.972,-0.036
6.58,-0.344,0.967,-0.177
6.59,-0.156,1.234,0.039
6.6,-0.125,0.733,0.15
6.61,-0.105,0.996,0.045
6.62,-0.343,0.887,-0.201
6.63,-0.258,1.083,0.006
6.64,-0.085,1.074,0.108
6.65,-0.172,0.678,0.119
6.66,-0.332,1.122,-0.054
6.67,-0.248,0.874,-0.22
6.68,-0.135,1.232,0.07
6.69,-0.05,0.757,0.136
6.7,-0.232,0.901,0.013
6.71,-0.448,1.071,-0.164
6.72,-0.031,0.995,-0.071
6.73,-0.2,1.061,0.112
6.74,-0.12,0.699,0.164
6.75,-0.47,1.16,-0.175
6.76,-0.231,0.861,-0.085
6.77,-0.066,1.209,0.114
6.78,-0.148,0.739,0.114
6.79,-0.283,0.868,-0.014
6.8,-0.335,1.226,-0.248
6.81,-0.048,0.815,-0.028
6.82,-0.095,1.178,0.182
6.83,-0.131,0.66,0.061
6.84,-0.544,1.175,-0.146
6.85,-0.099,1.012,-0.072
6.86,-0.129,0.983,0.086
6.87,-0.175,0.891,0.175
6.88,-0.264,0.798,-0.129
6.89,-0.302,1.249,-0.186
6.9,-0.012,0.857,0.108
6.91,-0.259,1.044,0.174
6.92,-0.176,0.695,0.003
6.93,-0.351,1.242,-0.241
6.94,-0.082,0.971,-0.021
6.95,-0.216,0.917,0.234
6.96,-0.153,0.802,0.079
6.97,-0.399,0.966,-0.194
6.98,-0.177,1.227,-0.077
6.99,-0.077,0.763,0.14
7.0,-0.191,1.051,0.132
7.01,-0.332,0.716,-0.107
7.02,-0.315,1.143,-0.144
7.03,-0.053,1.027,0.073
7.04,-0.165,0.87,0.156
7.05,-0.218,0.922,0.036
7.06,-0.368,0.963,-0.197
7.07,-0.138,1.24,-0.018
7.08,-0.114,0.71,0.147
7.09,-0.242,1.048,0.086
7.1,-0.356,0.831,-0.201
7.11,-0.209,1.14,-0.082
7.12,-0.057,0.99,0.095
7.13,-0.13,0.702,0.167
7.14,-0.316,1.062,-0.01
7.15,-0.328,0.83,-0.214
7.16,-0.077,1.223,0.021
7.17,-0.062,0.773,0.15
7.18,-0.206,0.954,0.017
7.19,-0.472,0.967,-0.211
7.2,-0.054,1.06,-0.054
7.21,-0.124,1.007,0.104
7.22,-0.148,0.689,0.187
7.23,-0.434,1.153,-0.134
7.24,-0.248,0.873,-0.118
7.25,-0.06,1.261,0.105
7.26,-0.13,0.679,0.118
7.27,-0.286,0.923,0.025
7.28,-0.348,1.152,-0.221
7.29,-0.077,0.932,-0.037
7.3,-0.127,1.141,0.143
7.31,-0.068,0.626,0.028
7.32,-0.468,1.242,-0.156
7.33,-0.087,0.967,-0.071
7.34,-0.145,1.037,0.079
7.35,-0.102,0.843,0.183
7.36,-0.346,0.896,-0.139
7.37,-0.328,1.117,-0.168
7.38,-0.038,0.968,0.115
7.39,-0.131,1.105,0.107
7.4,-0.193,0.627,0.016
7.41,-0.444,1.277,-0.14
7.42,-0.129,0.953,-0.04
7.43,-0.217,0.939,0.157
7.44,-0.128,0.929,0.103
7.45,-0.363,0.808,-0.224
7.46,-0.267,1.268,-0.066
7.47,-0.014,0.825,0.098
7.48,-0.135,0.997,0.112
7.49,-0.246,0.752,-0.001
7.5,-0.39,1.193,-0.186
7.51,-0.198,0.988,0.023
7.52,-0.027,0.889,0.149
7.53,-0.162,0.961,-0.026
7.54,-0.445,0.827,-0.137
7.55,-0.135,1.318,-0.033
7.56,-0.102,0.757,0.097
7.57,-0.209,0.976,0.224
7.58,-0.316,0.855,-0.14
7.59,-0.313,1.021,-0.159
7.6,-0.021,1.156,0.093
7.61,-0.136,0.661,0.097
7.62,-0.285,1.071,0.011
7.63,-0.276,0.89,-0.231
7.64,-0.159,1.206,0.016
7.65,-0.143,0.79,0.178
7.66,-0.098,0.903,0.033
7.67,-0.349,1.035,-0.199
7.68,-0.18,0.969,-0.035
7.69,-0.105,1.12,0.094
7.7,-0.134,0.64,0.118
7.71,-0.291,1.131,-0.088
7.72,-0.295,0.867,-0.2
7.73,-0.161,1.183,0.106
7.74,-0.093,0.89,0.159
7.75,-0.225,0.769,0.02
7.76,-0.405,1.182,-0.16
7.77,-0.083,0.955,-0.084
7.78,-0.141,0.982,0.131
7.79,-0.069,0.759,0.101
7.8,-0.44,1.159,-0.219
7.81,-0.243,0.79,-0.051
7.82,-0.014,1.218,0.052
7.83,-0.142,0.706,0.135
7.84,-0.285,0.944,0.004
7.85,-0.374,1.131,-0.21
7.86,-0.109,0.89,0.056
7.87,-0.077,1.174,0.153
7.88,-0.184,0.587,0.014
7.89,-0.45,1.222,-0.149
7.9,-0.038,0.989,-0.107
7.91,-0.149,0.966,0.082
7.92,-0.046,0.853,0.202
7.93,-0.383,0.884,-0.142
7.94,-0.321,1.183,-0.127
7.95,0.004,0.921,0.091
7.96,-0.182,1.033,0.127
7.97,-0.23,0.683,0.067
7.98,-0.398,1.317,-0.217
7.99,-0.042,0.889,-0.097
8.0,-0.164,0.939,0.208
8.01,-0.147,0.929,0.072
8.02,-0.408,0.822,-0.159
8.03,-0.133,1.293,-0.1
8.04,-0.083,0.755,0.129
8.05,-0.179,1.007,0.127
8.06,-0.259,0.788,-0.036
8.07,-0.362,1.083,-0.166
8.08,-0.125,1.12,0.074
8.09,-0.134,0.848,0.159
8.1,-0.248,0.977,0.002
8.11,-0.269,0.852,-0.126
8.12,-0.296,1.291,-0.035
8.13,-0.026,0.678,0.119
8.14,-0.154,1.05,0.151
8.15,-0.423,0.892,-0.157
8.16,-0.218,0.997,-0.068
8.17,-0.002,1.249,0.018
8.18,-0.207,0.559,0.156
8.19,-0.265,1.122,0.058
8.2,-0.331,0.943,-0.255
8.21,-0.125,1.043,-0.027
8.22,-0.034,0.845,0.201
8.23,-0.198,0.898,0.092
8.24,-0.436,1.04,-0.209
8.25,-0.058,0.998,-0.068
8.26,-0.224,1.153,0.096
8.27,-0.146,0.634,0.212
8.28,-0.339,1.162,-0.086
8.29,-0.311,0.812,-0.212
8.3,-0.029,1.182,0.118
8.31,-0.177,0.92,0.138
8.32,-0.23,0.752,0.052
8.33,-0.315,1.258,-0.226
8.34,-0.191,0.875,-0.015
8.35,-0.168,1.122,0.138
8.36,-0.03,0.732,0.099
8.37,-0.478,1.103,-0.185
8.38,-0.264,0.909,-0.085
8.39,-0.061,1.121,0.119
8.4,-0.162,0.879,0.127
8.41,-0.195,0.739,0.013
8.42,-0.351,1.312,-0.239
8.43,-0.073,0.794,-0.026
8.44,-0.199,1.165,0.173
8.45,-0.087,0.7,0.047
8.46,-0.483,1.039,-0.203
8.47,-0.109,1.151,-0.037
8.48,-0.112,0.911,0.085
8.49,-0.2,0.959,0.177
8.5,-0.185,0.755,-0.048
8.51,-0.408,1.258,-0.159
8.52,-0.084,0.896,0.157
8.53,-0.11,1.11,0.149
8.54,-0.283,0.753,-0.004
8.55,-0.36,1.043,-0.177
8.56,-0.171,1.157,-0.07
8.57,-0.157,0.754,0.163
8.58,-0.165,1.071,0.176
8.59,-0.336,0.764,-0.203
8.6,-0.186,1.268,-0.097
8.61,-0.049,0.848,0.075
8.62,-0.234,0.982,0.158
8.63,-0.228,0.773,-0.008
8.64,-0.378,1.102,-0.171
8.65,-0.059,1.091,0.03
8.66,-0.125,0.823,0.14
8.67,-0.233,0.979,0.084
8.68,-0.404,0.851,-0.138
8.69,-0.234,1.309,-0.086
8.7,-0.098,0.634,0.058
8.71,-0.112,0.971,0.171
8.72,-0.297,0.97,-0.148
8.73,-0.313,0.931,-0.116
8.74,-0.343,0.892,-0.209
8.75,-0.049,1.288,-0.056
8.76,-0.104,0.833,0.098
8.77,-0.15,0.804,0.207
8.78,-0.393,1.074,-0.139
8.79,-0.315,0.849,-0.146
8.8,-0.014,1.283,0.09
8.81,-0.177,0.625,0.179
8.82,-0.277,1.036,0.014
8.83,-0.317,1.003,-0.166
8.84,-0.177,1.053,0.035
8.85,-0.193,0.917,0.179
8.86,-0.076,0.759,0.1
8.87,-0.484,1.175,-0.184
8.88,-0.167,0.861,-0.03
8.89,-0.154,1.231,0.07
8.9,-0.151,0.637,0.156
8.91,-0.259,1.021,-0.034
8.92,-0.361,0.971,-0.252
8.93,-0.034,0.999,0.06
8.94,-0.109,1.141,0.108
8.95,-0.137,0.59,-0.02
8.96,-0.386,1.281,-0.16
8.97,-0.007,0.895,-0.091
8.98,-0.208,1.09,0.134
8.99,-0.114,0.748,0.192
9.0,-0.363,0.97,-0.162
9.01,-0.331,1.092,-0.157
9.02,-0.028,0.96,0.128
9.03,-0.16,1.034,0.112
9.04,-0.196,0.625,-0.004
9.05,-0.339,1.38,-0.202
9.06,-0.11,0.844,0.01
9.07,-0.205,1.055,0.207
9.08,-0.108,0.842,0.074
9.09,-0.404,0.929,-0.199
9.1,-0.212,1.209,-0.019
9.11,-0.056,0.807,0.101
9.12,-0.225,1.048,0.137
9.13,-0.219,0.744,-0.037
9.14,-0.385,1.229,-0.179
9.15,-0.125,0.957,0.102
9.16,-0.089,0.954,0.118
9.17,-0.192,0.855,-0.025
9.18,-0.375,0.953,-0.152
9.19,-0.161,1.26,-0.096
9.2,-0.101,0.683,0.125
9.21,-0.162,1.048,0.138
9.22,-0.311,0.829,-0.186
9.23,-0.287,1.073,-0.099
9.24,-0.031,1.101,0.094
9.25,-0.127,0.73,0.148
9.26,-0.331,1.034,0.003
9.27,-0.232,0.925,-0.184
9.28,-0.181,1.264,0.014
9.29,-0.16,0.692,0.19
9.3,-0.128,0.986,0.069
9.31,-0.434,0.953,-0.195
9.32,-0.168,1.027,-0.054
9.33,-0.061,1.11,0.085
9.34,-0.158,0.76,0.145
9.35,-0.35,1.059,-0.079
9.36,-0.355,0.89,-0.153
9.37,-0.1,1.239,0.095
9.38,-0.034,0.695,0.11
9.39,-0.301,0.97,0.002
9.4,-0.347,0.973,-0.155
9.41,-0.13,1.086,-0.01
9.42,-0.22,0.891,0.18
9.43,-0.095,0.791,0.094
9.44,-0.448,1.167,-0.214
9.45,-0.24,0.818,-0.008
9.46,-0.097,1.259,0.093
9.47,-0.15,0.675,0.143
9.48,-0.313,0.998,-0.015
9.49,-0.299,1.045,-0.233
9.5,-0.084,0.939,0.025
9.51,-0.134,1.101,0.178
9.52,-0.15,0.623,-0.008
9.53,-0.52,1.255,-0.165
9.54,-0.062,0.94,-0.003
9.55,-0.21,1.083,0.115
9.56,-0.118,0.766,0.136
9.57,-0.288,0.98,-0.145
9.58,-0.286,1.099,-0.126
9.59,-0.05,0.929,0.154
9.6,-0.21,1.052,0.145
9.61,-0.268,0.649,0.019
9.62,-0.329,1.303,-0.237
9.63,-0.059,0.878,-0.075
9.64,-0.138,1.022,0.199
9.65,-0.114,0.855,0.091
9.66,-0.541,0.861,-0.125
9.67,-0.023,1.233,-0.126
9.68,-0.09,0.822,0.131
9.69,-0.246,1.006,0.187
9.7,-0.204,0.78,-0.075
9.71,-0.364,1.211,-0.19
9.72,-0.093,0.944,0.134
9.73,-0.092,0.887,0.182
9.74,-0.288,0.943,-0.038
9.75,-0.336,0.937,-0.197
9.76,-0.159,1.24,-0.044
9.77,-0.139,0.689,0.122
9.78,-0.093,1.06,0.102
9.79,-0.343,0.863,-0.184
9.8,-0.283,1.05,-0.124
9.81,0.029,1.098,0.095
9.82,-0.162,0.691,0.082
9.83,-0.296,1.043,0.001
9.84,-0.329,0.902,-0.234
9.85,-0.111,1.218,0.013
9.86,-0.065,0.789,0.155
9.87,-0.218,0.91,0.029
9.88,-0.436,0.958,-0.172
9.89,-0.127,1.113,-0.055
9.9,-0.088,1.025,0.071
9.91,-0.151,0.683,0.17
9.92,-0.38,1.141,-0.115
9.93,-0.245,0.83,-0.158
9.94,-0.021,1.262,0.137
9.95,-0.164,0.747,0.129
9.96,-0.334,0.884,0.021
9.97,-0.306,1.149,-0.194
9.98,-0.091,0.896,-0.035
9.99,-0.173,1.105,0.177
10.0,-0.032,0.682,0.078
10.01,-0.512,1.22,-0.167
10.02,-0.104,0.941,-0.074
10.03,-0.126,1.101,0.112
10.04,-0.19,0.837,0.177
10.05,-0.252,0.858,-0.088
10.06,-0.381,1.188,-0.202
10.07,-0.008,0.873,0.095
10.08,-0.185,1.191,0.149
10.09,-0.186,0.611,0.023
10.1,-0.425,1.234,-0.171
10.11,-0.102,1.0,-0.053
10.12,-0.181,0.906,0.128
10.13,-0.123,0.963,0.169
10.14,-0.349,0.82,-0.183
10.15,-0.274,1.234,-0.119
10.16,0.002,0.895,0.116
10.17,-0.22,1.041,0.117
10.18,-0.209,0.682,-0.05
10.19,-0.355,1.306,-0.22
10.2,-0.112,0.864,0.067
10.21,-0.12,0.97,0.134
10.22,-0.139,0.832,-0.004
10.23,-0.443,0.953,-0.152
10.24,-0.153,1.266,-0.005
10.25,-0.098,0.708,0.143
10.26,-0.145,1.082,0.137
10.27,-0.299,0.791,-0.176
10.28,-0.366,1.149,-0.131
10.29,0.002,1.053,0.128
10.3,-0.211,0.79,0.139
10.31,-0.285,0.97,-0.071
10.32,-0.231,0.928,-0.247
10.33,-0.141,1.255,0.019
10.34,-0.148,0.709,0.199
10.35,-0.15,0.999,0.043
10.36,-0.411,0.866,-0.246
10.37,-0.104,1.069,-0.081
10.38,-0.097,1.016,0.115
10.39,-0.239,0.707,0.154
10.4,-0.317,1.115,-0.128
10.41,-0.25,0.892,-0.128
10.42,-0.136,1.295,0.126
10.43,-0.041,0.667,0.119
10.44,-0.296,0.982,0.001
10.45,-0.375,1.046,-0.199
10.46,-0.083,0.954,0.009
10.47,-0.173,1.01,0.167
10.48,-0.08,0.72,0.074
10.49,-0.506,1.241,-0.188
10.5,-0.205,0.846,-0.008
10.51,-0.124,1.196,0.108
10.52,-0.143,0.735,0.086
10.53,-0.244,0.916,-0.115
10.54,-0.364,1.191,-0.129
10.55,-0.099,0.892,0.135
10.56,-0.123,1.077,0.106
10.57,-0.158,0.617,-0.039
10.58,-0.428,1.306,-0.2
10.59,-0.094,0.905,0.009
10.6,-0.155,0.991,0.143
10.61,-0.156,0.877,0.092
10.62,-0.43,0.893,-0.193
10.63,-0.236,1.224,-0.031
10.64,-0.05,0.843,0.153
10.65,-0.185,1.017,0.107
10.66,-0.21,0.738,-0.102
10.67,-0.314,1.265,-0.195
10.68,-0.085,0.968,0.092
10.69,-0.152,0.833,0.165
10.7,-0.232,0.959,-0.001
10.71,-0.427,0.905,-0.174
10.72,-0.129,1.233,-0.033
10.73,-0.113,0.699,0.16
10.74,-0.199,1.066,0.126
10.75,-0.37,0.804,-0.202
10.76,-0.212,1.103,-0.106
10.77,-0.033,1.053,0.125
10.78,-0.177,0.716,0.159
10.79,-0.354,1.047,-0.028
10.8,-0.312,0.905,-0.169
10.81,-0.155,1.283,0.124
10.82,-0.128,0.692,0.124
10.83,-0.212,0.947,-0.022
10.84,-0.382,1.054,-0.194
10.85,-0.06,1.004,-0.003
10.86,-0.19,1.009,0.165
10.87,-0.086,0.731,0.147
10.88,-0.542,1.157,-0.175
10.89,-0.201,0.823,-0.065
10.9,-0.042,1.243,0.105
10.91,-0.15,0.671,0.064
10.92,-0.249,0.979,-0.051
10.93,-0.299,1.197,-0.16
10.94,-0.182,0.891,0.159
10.95,-0.17,1.048,0.166
10.96,-0.211,0.647,-0.047
10.97,-0.432,1.294,-0.23
10.98,0.007,0.861,-0.054
10.99,-0.177,1.148,0.163
11.0,-0.134,0.676,0.059
11.01,-0.397,1.106,-0.167
11.02,-0.208,1.162,-0.054
11.03,-0.088,0.786,0.101
11.04,-0.145,0.953,0.174
11.05,-0.371,0.738,-0.098
11.06,-0.272,1.257,-0.183
11.07,-0.05,0.899,0.101
11.08,-0.193,0.963,0.141
11.09,-0.123,0.761,-0.013
11.1,-0.396,1.197,-0.227
11.11,-0.031,1.065,-0.049
11.12,-0.084,0.779,0.194
11.13,-0.257,0.993,0.123
11.14,-0.352,0.816,-0.183
11.15,-0.173,1.327,-0.08
11.16,-0.115,0.792,0.16
11.17,-0.217,0.913,0.178
11.18,-0.358,0.916,-0.091
11.19,-0.269,0.95,-0.2
11.2,-0.028,1.236,0.081
11.21,-0.188,0.63,0.159
11.22,-0.215,1.043,-0.027
11.23,-0.34,0.941,-0.187
11.24,-0.092,1.152,-0.014
11.25,-0.117,0.847,0.168
11.26,-0.241,0.838,0.126
11.27,-0.412,1.059,-0.147
11.28,-0.136,0.924,-0.117
11.29,-0.134,1.135,0.137
11.3,-0.114,0.693,0.165
11.31,-0.415,1.099,-0.128
11.32,-0.186,0.91,-0.184
11.33,-0.014,1.194,0.121
11.34,-0.179,0.833,0.12
11.35,-0.208,0.781,0.041
11.36,-0.463,1.333,-0.219
11.37,-0.144,0.787,0.023
11.38,-0.174,1.148,0.212
11.39,-0.05,0.717,0.028
11.4,-0.42,1.067,-0.216
11.41,-0.212,1.097,-0.013
11.42,-0.065,0.955,0.1
11.43,-0.153,0.969,0.128
11.44,-0.206,0.717,-0.124
11.45,-0.368,1.287,-0.157
11.46,-0.016,0.925,0.167
11.47,-0.199,1.045,0.144
11.48,-0.234,0.722,-0.02
11.49,-0.297,1.142,-0.243
11.5,-0.115,1.104,-0.07
11.51,-0.14,0.769,0.198
11.52,-0.244,1.02,0.087
11.53,-0.41,0.741,-0.192
11.54,-0.157,1.332,-0.102
11.55,-0.063,0.796,0.095
11.56,-0.148,0.918,0.172
11.57,-0.353,0.904,-0.076
11.58,-0.272,0.946,-0.233
11.59,-0.077,1.22,0.1
11.6,-0.072,0.698,0.133
11.61,-0.274,1.077,0.037
11.62,-0.419,0.872,-0.153
11.63,-0.137,1.153,-0.054
11.64,-0.105,0.852,0.184
11.65,-0.081,0.888,0.077
11.66,-0.38,1.005,-0.231
11.67,-0.161,0.949,-0.045
11.68,-0.116,1.19,0.141
11.69,-0.175,0.618,0.164
11.7,-0.302,1.1,-0.096
11.71,-0.246,0.886,-0.227
11.72,-0.093,1.206,0.168
11.73,-0.141,0.885,0.143
11.74,-0.179,0.745,0.014
11.75,-0.429,1.332,-0.159
11.76,-0.128,0.859,-0.059
11.77,-0.229,1.138,0.164
11.78,-0.05,0.712,0.091
11.79,-0.47,1.178,-0.228
11.8,-0.141,0.92,-0.035
11.81,-0.13,1.157,0.085
11.82,-0.2,0.741,0.125
11.83,-0.201,0.885,-0.075
11.84,-0.324,1.185,-0.188
11.85,-0.037,0.901,0.111
11.86,-0.164,1.1,0.115
11.87,-0.205,0.626,0.001
11.88,-0.449,1.318,-0.175
11.89,-0.094,0.876,-0.044
11.9,-0.252,0.972,0.222
11.91,-0.14,0.919,0.127
11.92,-0.403,0.824,-0.22
11.93,-0.241,1.257,-0.038
11.94,-0.003,0.824,0.108
11.95,-0.17,1.032,0.123
11.96,-0.258,0.72,-0.004
11.97,-0.386,1.185,-0.247
11.98,-0.096,1.0,0.027
11.99,-0.141,0.907,0.172
12.0,-0.184,0.933,0.021
12.01,-0.432,0.888,-0.164
12.02,-0.157,1.315,-0.076
12.03,-0.032,0.738,0.091
12.04,-0.154,1.019,0.123
12.05,-0.319,0.847,-0.14
12.06,-0.275,1.115,-0.126
12.07,-0.089,1.063,0.078
12.08,-0.133,0.684,0.159
12.09,-0.256,1.089,0.0
12.1,-0.375,0.879,-0.235
12.11,-0.088,1.214,-0.014
12.12,-0.052,0.828,0.12
12.13,-0.198,0.902,0.048
12.14,-0.329,1.024,-0.217
12.15,-0.182,1.011,-0.108
12.16,-0.124,1.018,0.118
12.17,-0.124,0.697,0.132
12.18,-0.344,1.161,-0.124
12.19,-0.273,0.844,-0.159
12.2,-0.079,1.212,0.076
12.21,-0.089,0.751,0.103
12.22,-0.213,0.884,0.018
12.23,-0.437,1.196,-0.225
12.24,-0.044,0.854,-0.014
12.25,-0.196,1.187,0.171
12.26,-0.132,0.64,0.125
12.27,-0.399,1.162,-0.174
12.28,-0.212,0.984,-0.062
12.29,-0.091,1.009,0.092
12.3,-0.17,0.847,0.164
12.31,-0.315,0.837,-0.06
12.32,-0.335,1.176,-0.228
12.33,-0.018,0.912,0.109
12.34,-0.28,1.169,0.174
12.35,-0.095,0.598,-0.005
12.36,-0.455,1.284,-0.145
12.37,-0.2,0.988,-0.015
12.38,-0.125,0.909,0.163
12.39,-0.113,0.962,0.075
12.4,-0.355,0.751,-0.162
12.41,-0.302,1.301,-0.048
12.42,-0.084,0.848,0.09
12.43,-0.215,0.986,0.13
12.44,-0.147,0.759,-0.029
12.45,-0.412,1.153,-0.207
12.46,-0.088,1.057,0.025
12.47,-0.12,0.886,0.103
12.48,-0.162,0.973,0.021
12.49,-0.345,0.867,-0.193
12.5,-0.202,1.291,-0.109
12.51,-0.1,0.69,0.114
12.52,-0.188,0.977,0.153
12.53,-0.298,0.9,-0.144
12.54,-0.333,0.969,-0.149
12.55,-0.022,1.187,0.035
12.56,-0.092,0.679,0.087
12.57,-0.307,1.055,-0.003
12.58,-0.304,0.863,-0.205
12.59,-0.144,1.182,-0.017
12.6,-0.114,0.771,0.187
12.61,-0.188,0.982,0.058
12.62,-0.397,0.874,-0.165
12.63,-0.167,1.159,-0.059
12.64,-0.074,1.005,0.05
12.65,-0.156,0.685,0.187
12.66,-0.308,1.14,-0.079
12.67,-0.287,0.829,-0.201
12.68,-0.091,1.281,0.099
12.69,-0.078,0.735,0.147
12.7,-0.288,0.958,0.021
12.71,-0.359,1.051,-0.167
12.72,-0.133,0.961,-0.094
12.73,-0.2,1.028,0.196
12.74,-0.095,0.72,0.139
12.75,-0.456,1.13,-0.207
12.76,-0.232,0.86,-0.069
12.77,-0.081,1.256,0.112
12.78,-0.125,0.705,0.132
12.79,-0.297,0.914,0.011
12.8,-0.369,1.159,-0.184
12.81,-0.136,0.881,0.039
12.82,-0.149,1.16,0.137
12.83,-0.084,0.645,0.051
12.84,-0.509,1.233,-0.189
12.85,-0.063,0.97,-0.085
12.86,-0.134,1.036,0.062
12.87,-0.166,0.839,0.172
12.88,-0.296,0.844,-0.117
12.89,-0.307,1.167,-0.147
12.9,-0.112,0.915,0.131
12.91,-0.175,1.069,0.133
12.92,-0.214,0.655,0.036
12.93,-0.414,1.282,-0.213
12.94,-0.078,0.937,-0.076
12.95,-0.111,0.919,0.181
12.96,-0.125,0.994,0.141
12.97,-0.402,0.763,-0.227
12.98,-0.223,1.283,-0.083
12.99,0.032,0.9,0.094
13.0,-0.212,0.966,0.095
13.01,-0.29,0.75,0.004
13.02,-0.27,1.182,-0.214
13.03,-0.116,1.093,0.008
13.04,-0.081,0.826,0.205
13.05,-0.199,0.991,0.025
13.06,-0.397,0.824,-0.164
13.07,-0.173,1.286,-0.078
13.08,-0.068,0.742,0.119
13.09,-0.198,0.952,0.183
13.1,-0.337,0.875,-0.125
13.11,-0.273,0.946,-0.151
13.12,-0.084,1.194,0.083
13.13,-0.109,0.674,0.136
13.14,-0.259,1.071,0.035
13.15,-0.344,0.89,-0.203
13.16,-0.189,1.157,0.03
13.17,-0.073,0.834,0.191
13.18,-0.145,0.893,0.06
13.19,-0.356,0.994,-0.202
13.2,-0.142,0.983,-0.093
13.21,-0.145,1.222,0.099
13.22,-0.127,0.595,0.176
13.23,-0.24,1.131,-0.047
13.24,-0.392,0.858,-0.183
13.25,-0.124,1.125,0.094
13.26,-0.073,0.954,0.14
13.27,-0.223,0.761,0.053
13.28,-0.383,1.169,-0.193
13.29,-0.109,0.907,-0.07
13.3,-0.149,1.132,0.065
13.31,-0.085,0.703,0.189
13.32,-0.431,1.094,-0.094
13.33,-0.28,0.902,-0.146
13.34,0.011,1.166,0.068
13.35,-0.148,0.885,0.125
13.36,-0.291,0.731,0.054
13.37,-0.34,1.303,-0.254
13.38,-0.053,0.806,0.006
13.39,-0.194,1.184,0.205
13.4,-0.099,0.688,0.087
13.41,-0.505,1.072,-0.188
13.42,-0.177,0.948,-0.09
13.43,-0.038,1.047,0.07
13.44,-0.143,0.865,0.178
13.45,-0.334,0.818,-0.123
13.46,-0.254,1.17,-0.182
13.47,-0.024,0.941,0.121
13.48,-0.25,1.077,0.156
13.49,-0.17,0.666,0.031
13.5,-0.454,1.302,-0.236
13.51,-0.082,0.928,-0.041
13.52,-0.171,0.993,0.18
13.53,-0.15,0.893,0.136
13.54,-0.338,0.792,-0.214
13.55,-0.216,1.295,-0.104
13.56,-0.002,0.862,0.049
13.57,-0.119,0.991,0.122
13.58,-0.256,0.739,-0.01
13.59,-0.381,1.166,-0.179
13.6,-0.097,1.056,0.033
13.61,-0.127,0.882,0.135
13.62,-0.2,0.936,0.031
13.63,-0.407,0.882,-0.161
13.64,-0.101,1.344,-0.088
13.65,-0.151,0.651,0.099
13.66,-0.141,0.97,0.154
13.67,-0.281,0.927,-0.165
13.68,-0.289,0.951,-0.176
13.69,-0.07,1.206,0.149
13.7,-0.104,0.692,0.116
13.71,-0.362,1.04,0.008
13.72,-0.286,0.896,-0.176
13.73,-0.175,1.197,-0.028
13.74,-0.15,0.778,0.217
13.75,-0.132,0.934,0.093
13.76,-0.371,0.999,-0.221
13.77,-0.18,0.958,-0.034
13.78,-0.13,1.17,0.099
13.79,-0.104,0.601,0.151
13.8,-0.32,1.161,-0.069
13.81,-0.283,0.85,-0.215
13.82,-0.176,1.184,0.133
13.83,-0.168,0.86,0.136
13.84,-0.215,0.785,0.037
13.85,-0.327,1.235,-0.208
13.86,-0.14,0.861,-0.07
13.87,-0.154,1.116,0.14
13.88,0.002,0.718,0.138
13.89,-0.498,1.077,-0.139
13.9,-0.257,0.902,-0.111
13.91,-0.039,1.188,0.082
13.92,-0.221,0.867,0.14
13.93,-0.228,0.782,0.045
13.94,-0.392,1.304,-0.209
13.95,-0.167,0.828,0.003
13.96,-0.114,1.177,0.171
13.97,-0.096,0.679,0.06
13.98,-0.5,1.087,-0.181
13.99,-0.032,1.081,-0.066
14.0,-0.124,0.952,0.049
14.01,-0.193,0.947,0.197
14.02,-0.21,0.81,-0.093
14.03,-0.397,1.24,-0.149
14.04,-0.119,0.858,0.146
14.05,-0.1,1.115,0.08
14.06,-0.186,0.681,-0.012
14.07,-0.315,1.146,-0.172
14.08,-0.154,1.145,-0.054
14.09,-0.187,0.735,0.184
14.1,-0.045,1.058,0.084
14.11,-0.375,0.759,-0.221
14.12,-0.258,1.254,-0.065
14.13,-0.008,0.93,0.064
14.14,-0.138,0.873,0.069
14.15,-0.278,0.866,0.011
14.16,-0.289,1.005,-0.243
14.17,-0.091,1.175,0.016
14.18,-0.101,0.764,0.15
14.19,-0.192,1.017,0.024
14.2,-0.3,0.86,-0.184
14.21,-0.183,1.271,-0.054
14.22,-0.12,0.792,0.128
14.23,-0.171,0.853,0.164
14.24,-0.354,0.876,-0.171
14.25,-0.262,1.019,-0.141
14.26,-0.041,1.154,0.095
14.27,-0.138,0.629,0.168
14.28,-0.256,1.102,0.004
14.29,-0.397,0.875,-0.23
14.3,-0.14,1.152,0.057
14.31,-0.125,0.864,0.178
14.32,-0.141,0.865,0.059
14.33,-0.323,1.038,-0.184
14.34,-0.171,1.05,-0.039
14.35,-0.177,1.024,0.144
14.36,-0.135,0.7,0.192
14.37,-0.387,1.136,-0.087
14.38,-0.294,0.819,-0.189
14.39,-0.078,1.205,0.095
14.4,-0.175,0.82,0.157
14.41,-0.181,0.802,-0.017
14.42,-0.373,1.234,-0.17
14.43,-0.087,0.896,-0.053
14.44,-0.2,1.096,0.181
14.45,-0.068,0.679,0.116
14.46,-0.483,1.109,-0.18
14.47,-0.218,0.943,-0.029
14.48,-0.085,1.121,0.094
14.49,-0.159,0.82,0.135
14.5,-0.23,0.796,-0.014
14.51,-0.415,1.246,-0.228
14.52,-0.137,0.837,0.11
14.53,-0.082,1.188,0.109
14.54,-0.156,0.616,0.018
14.55,-0.477,1.201,-0.141
14.56,-0.108,1.072,-0.073
14.57,-0.223,0.888,0.152
14.58,-0.089,0.969,0.138
14.59,-0.326,0.734,-0.194
14.6,-0.28,1.261,-0.095
14.61,-0.016,0.905,0.046
14.62,-0.153,0.931,0.101
14.63,-0.199,0.834,0.062
14.64,-0.392,1.149,-0.224
14.65,-0.123,0.994,-0.017
14.66,-0.067,0.906,0.191
14.67,-0.258,0.975,0.053
14.68,-0.373,0.77,-0.126
14.69,-0.16,1.384,-0.08
14.7,-0.115,0.718,0.09
14.71,-0.113,0.938,0.185
14.72,-0.289,0.937,-0.127
14.73,-0.304,0.917,-0.166
14.74,-0.076,1.222,0.047
14.75,-0.054,0.747,0.108
14.76,-0.203,1.077,0.04
14.77,-0.333,0.93,-0.205
14.78,-0.238,1.171,-0.058
14.79,-0.106,0.777,0.181
14.8,-0.155,0.905,0.147
14.81,-0.421,1.003,-0.161
14.82,-0.157,0.915,-0.107
14.83,-0.12,1.243,0.081
14.84,-0.104,0.573,0.125
14.85,-0.278,1.125,-0.021
14.86,-0.254,0.94,-0.256
14.87,-0.165,1.079,0.021
14.88,-0.104,0.962,0.233
14.89,-0.188,0.771,-0.006
14.9,-0.458,1.118,-0.194
14.91,-0.067,0.932,-0.08
14.92,-0.155,1.153,0.108
14.93,-0.083,0.66,0.143
14.94,-0.409,1.063,-0.102
14.95,-0.257,0.92,-0.172
14.96,-0.083,1.129,0.119
14.97,-0.194,0.896,0.158
14.98,-0.2,0.725,-0.008
14.99,-0.423,1.316,-0.191
15.0,-0.131,0.806,0.03
15.01,-0.099,1.159,0.15
15.02,-0.155,0.697,0.087
15.03,-0.388,1.048,-0.167
15.04,-0.213,1.114,-0.052
15.05,-0.172,1.038,0.128
15.06,-0.095,0.842,0.133
15.07,-0.344,0.852,-0.089
15.08,-0.366,1.187,-0.196
15.09,-0.006,0.906,0.088
15.1,-0.211,1.091,0.119
15.11,-0.178,0.651,0.035
15.12,-0.382,1.269,-0.183
15.13,-0.165,0.965,-0.051
15.14,-0.138,0.905,0.177
15.15,-0.135,0.954,0.085
15.16,-0.448,0.749,-0.203
15.17,-0.147,1.304,-0.068
15.18,-0.068,0.89,0.091
15.19,-0.32,0.921,0.115
15.2,-0.059,0.795,-0.029
15.21,-0.379,1.236,-0.259
15.22,-0.092,0.942,0.027
15.23,0.005,0.851,0.139
15.24,-0.273,0.982,0.008
15.25,-0.425,0.847,-0.155
15.26,-0.108,1.312,-0.095
15.27,-0.155,0.714,0.143
15.28,-0.227,1.005,0.189
15.29,-0.31,0.864,-0.178
15.3,-0.252,1.005,-0.148
15.31,-0.016,1.17,0.07
15.32,-0.159,0.653,0.162
15.33,-0.298,1.092,0.04
15.34,-0.293,0.906,-0.254
15.35,-0.142,1.16,-0.043
15.36,-0.104,0.84,0.193
15.37,-0.165,0.888,0.112
15.38,-0.445,1.026,-0.198
15.39,-0.126,0.982,-0.089
15.4,-0.068,1.09,0.084
15.41,-0.123,0.681,0.18
15.42,-0.386,1.09,-0.065
15.43,-0.283,0.876,-0.182
15.44,-0.069,1.246,0.081
15.45,-0.211,0.797,0.145
15.46,-0.221,0.836,0.074
15.47,-0.45,1.219,-0.263
15.48,0.002,0.833,-0.04
15.49,-0.153,1.196,0.154
15.5,-0.131,0.69,0.12
15.51,-0.404,1.1,-0.204
15.52,-0.178,1.009,-0.055
15.53,-0.151,1.062,0.071
15.54,-0.115,0.843,0.15
15.55,-0.241,0.785,-0.05
15.56,-0.414,1.244,-0.215
15.57,-0.081,0.852,0.064
15.58,-0.161,1.205,0.112
15.59,-0.078,0.635,-0.001
15.6,-0.318,1.212,-0.195
15.61,-0.203,1.056,-0.077
15.62,-0.132,0.835,0.176
15.63,-0.168,0.995,0.162
15.64,-0.353,0.745,-0.123
15.65,-0.285,1.238,-0.137
15.66,-0.152,0.899,0.145
15.67,-0.164,0.989,0.121
15.68,-0.171,0.75,-0.032
15.69,-0.423,1.126,-0.152
15.7,-0.098,1.091,-0.039
15.71,-0.068,0.793,0.105
15.72,-0.158,1.06,0.116
15.73,-0.304,0.776,-0.191
15.74,-0.238,1.265,-0.116
15.75,-0.081,0.876,0.12
15.76,-0.097,0.894,0.067
15.77,-0.351,0.889,-0.003
15.78,-0.325,1.045,-0.156
15.79,-0.104,1.175,0.011
15.8,-0.137,0.814,0.174
15.81,-0.185,0.988,0.025
15.82,-0.399,0.927,-0.21
15.83,-0.191,1.223,-0.054
15.84,-0.064,0.763,0.158
15.85,-0.25,1.021,0.133
15.86,-0.255,0.899,-0.212
15.87,-0.228,1.209,-0.103
15.88,-0.094,0.977,0.14
15.89,-0.115,0.792,0.121
15.9,-0.25,1.007,-0.069
15.91,-0.302,0.906,-0.18
15.92,-0.094,1.234,0.013
15.93,-0.093,0.684,0.115
15.94,-0.125,1.031,0.032
15.95,-0.352,0.952,-0.228
15.96,-0.178,1.109,-0.066
15.97,-0.099,0.871,0.128
15.98,-0.133,0.774,0.154
15.99,-0.44,1.093,-0.139
16.0,-0.184,0.816,-0.136
16.01,-0.11,1.306,0.064
16.02,-0.115,0.586,0.109
16.03,-0.216,1.014,0.014
16.04,-0.337,1.062,-0.255
16.05,-0.064,0.964,-0.03
16.06,-0.163,1.026,0.192
16.07,-0.158,0.673,0.087
16.08,-0.463,1.207,-0.168
16.09,-0.155,0.901,-0.03
16.1,-0.162,1.177,0.102
16.11,-0.139,0.693,0.098
16.12,-0.203,0.999,-0.081
16.13,-0.409,1.057,-0.203
16.14,-0.102,0.95,0.138
16.15,-0.061,1.152,0.114
16.16,-0.253,0.603,0.035
16.17,-0.387,1.241,-0.153
16.18,-0.043,0.905,-0.093
16.19,-0.224,1.055,0.173
16.2,-0.1,0.846,0.17
16.21,-0.398,0.904,-0.165
16.22,-0.348,1.118,-0.103
16.23,0.049,0.967,0.116
16.24,-0.222,1.027,0.123
16.25,-0.19,0.682,0.037
16.26,-0.34,1.317,-0.246
16.27,-0.15,0.823,-0.022
16.28,-0.102,1.026,0.197
16.29,-0.203,0.888,0.072
16.3,-0.469,0.845,-0.166
16.31,-0.148,1.315,-0.051
16.32,-0.052,0.786,0.037
16.33,-0.277,1.007,0.194
16.34,-0.15,0.758,-0.029
16.35,-0.423,1.172,-0.22
16.36,-0.002,0.995,0.103
16.37,-0.082,0.93,0.175
16.38,-0.32,0.906,0.005
16.39,-0.338,0.901,-0.127
16.4,-0.16,1.283,-0.037
16.41,-0.193,0.668,0.113
16.42,-0.048,1.031,0.115
16.43,-0.28,0.869,-0.221
16.44,-0.363,1.038,-0.094
16.45,0.033,1.117,0.106
16.46,-0.162,0.728,0.164
16.47,-0.371,1.025,0.035
16.48,-0.214,0.93,-0.208
16.49,-0.149,1.271,-0.005
16.5,-0.199,0.737,0.215
16.51,-0.05,0.953,0.027
16.52,-0.404,0.985,-0.211
16.53,-0.159,1.036,0.006
16.54,-0.144,1.111,0.088
16.55,-0.231,0.646,0.19
16.56,-0.293,1.162,-0.069
16.57,-0.261,0.864,-0.182
16.58,-0.178,1.202,0.078
16.59,-0.003,0.761,0.066
16.6,-0.176,0.842,-0.005
16.61,-0.427,1.154,-0.166
16.62,-0.06,0.92,-0.041
16.63,-0.231,1.095,0.18
16.64,-0.134,0.68,0.18
16.65,-0.403,1.131,-0.169
16.66,-0.289,0.877,-0.114
16.67,-0.047,1.214,0.13
16.68,-0.135,0.676,0.133
16.69,-0.283,0.977,-0.008
16.7,-0.294,1.094,-0.217
16.71,-0.142,0.966,0.037
16.72,-0.175,1.058,0.165
16.73,-0.09,0.648,0.003
16.74,-0.514,1.234,-0.186
16.75,-0.087,0.888,-0.059
16.76,-0.115,1.059,0.096
16.77,-0.151,0.814,0.164
16.78,-0.296,0.979,-0.135
16.79,-0.35,1.079,-0.214
16.8,0.019,0.906,0.086
16.81,-0.102,1.119,0.113
16.82,-0.284,0.63,0.003
16.83,-0.348,1.309,-0.176
16.84,-0.086,0.924,-0.034
16.85,-0.29,0.973,0.19
16.86,-0.052,0.881,0.083
16.87,-0.385,0.881,-0.238
16.88,-0.259,1.198,-0.012
16.89,0.006,0.882,0.119
16.9,-0.311,1.032,0.148
16.91,-0.148,0.713,-0.03
16.92,-0.348,1.296,-0.185
16.93,-0.25,0.908,0.026
16.94,-0.033,0.938,0.162
16.95,-0.17,0.895,-0.002
16.96,-0.518,0.874,-0.118
16.97,-0.068,1.254,-0.077
16.98,-0.075,0.714,0.071
16.99,-0.241,1.065,0.201
17.0,-0.234,0.793,-0.167
17.01,-0.321,1.112,-0.162
17.02,-0.062,1.058,0.072
17.03,-0.087,0.765,0.112
17.04,-0.315,1.012,0.023
17.05,-0.314,0.901,-0.208
17.06,-0.107,1.211,-0.016
17.07,-0.21,0.735,0.199
17.08,-0.085,1.0,0.072
17.09,-0.078,0.784,0.122
17.1,-0.287,0.976,0.003
17.11,-0.297,0.926,-0.178
17.12,-0.146,1.238,-0.057
17.13,-0.178,0.766,0.194
17.14,-0.1,1.024,0.063
17.15,-0.398,0.877,-0.204
17.16,-0.206,1.1,-0.012
17.17,-0.08,1.006,0.096
17.18,-0.245,0.721,0.179
17.19,-0.313,1.111,-0.038
17.2,-0.289,0.819,-0.232
17.21,-0.178,1.252,0.103
17.22,-0.03,0.793,0.153
17.23,-0.237,0.925,-0.013
17.24,-0.446,1.03,-0.157
17.25,-0.015,1.063,-0.078
17.26,-0.196,1.0,0.073
17.27,-0.073,0.678,0.174
17.28,-0.417,1.201,-0.158
17.29,-0.25,0.798,-0.176
17.3,0.001,1.274,0.12
17.31,-0.139,0.722,0.154
17.32,-0.366,0.9,0.054
17.33,-0.33,1.114,-0.217
17.34,-0.053,0.932,-0.026
17.35,-0.181,1.147,0.183
17.36,-0.071,0.617,0.053
17.37,-0.483,1.254,-0.176
17.38,-0.105,0.937,-0.049
17.39,-0.132,1.096,0.075
17.4,-0.152,0.824,0.192
17.41,-0.289,0.906,-0.124
17.42,-0.282,1.081,-0.245
17.43,0.031,1.05,0.046
17.44,-0.152,1.02,0.146
17.45,-0.255,0.66,0.069
17.46,-0.402,1.328,-0.254
17.47,-0.114,0.796,-0.042
17.48,-0.161,1.133,0.186
17.49,-0.088,0.759,0.077
17.5,-0.41,0.956,-0.22
17.51,-0.092,1.177,-0.142
17.52,-0.115,0.892,0.072
17.53,-0.246,0.976,0.215
17.54,-0.117,0.745,-0.092
17.55,-0.407,1.264,-0.213
17.56,-0.135,0.869,0.16
17.57,-0.151,1.116,0.126
17.58,-0.126,0.782,0.048
17.59,-0.342,1.007,-0.204
17.6,-0.131,1.235,-0.113
17.61,-0.061,0.713,0.141
17.62,-0.248,1.08,0.214
17.63,-0.279,0.702,-0.125
17.64,-0.357,1.141,-0.161
17.65,0.003,1.035,0.079
17.66,-0.123,0.898,0.125
17.67,-0.249,0.879,0.035
17.68,-0.294,1.023,-0.167
17.69,-0.132,1.202,-0.047
17.7,-0.237,0.696,0.204
17.71,-0.105,1.063,0.134
17.72,-0.313,0.821,-0.229
17.73,-0.312,1.113,-0.012
17.74,-0.082,1.078,0.126
17.75,-0.184,0.74,0.121
17.76,-0.224,1.046,0.004
17.77,-0.418,0.883,-0.174
17.78,-0.213,1.217,0.032
17.79,-0.024,0.784,0.14
17.8,-0.166,0.981,0.051
17.81,-0.422,0.942,-0.173
17.82,-0.095,1.074,-0.135
17.83,-0.136,1.005,0.111
17.84,-0.156,0.745,0.193
17.85,-0.326,1.119,-0.132
17.86,-0.277,0.772,-0.16
17.87,-0.149,1.328,0.124
17.88,-0.176,0.731,0.167
17.89,-0.235,0.927,0.043
17.9,-0.407,1.161,-0.151
17.91,-0.15,0.92,-0.051
17.92,-0.164,1.073,0.119
17.93,-0.115,0.686,0.15
17.94,-0.382,1.164,-0.179
17.95,-0.267,0.815,-0.123
17.96,-0.074,1.233,0.062
17.97,-0.109,0.781,0.129
17.98,-0.3,0.865,0.025
17.99,-0.352,1.175,-0.225
18.0,-0.084,0.845,-0.0
18.01,-0.191,1.144,0.152
18.02,-0.005,0.678,0.087
18.03,-0.5,1.184,-0.221
18.04,-0.203,0.875,-0.043
18.05,-0.018,1.167,0.09
18.06,-0.179,0.819,0.1
18.07,-0.253,0.806,-0.07
18.08,-0.352,1.248,-0.223
18.09,-0.07,0.851,0.066
18.1,-0.146,1.171,0.16
18.11,-0.102,0.625,-0.002
18.12,-0.508,1.198,-0.165
18.13,-0.014,1.021,-0.075
18.14,-0.176,0.921,0.111
18.15,-0.223,0.894,0.169
18.16,-0.238,0.81,-0.145
18.17,-0.341,1.237,-0.148
18.18,-0.127,0.819,0.155
18.19,-0.105,1.1,0.129
18.2,-0.278,0.671,-0.046
18.21,-0.331,1.139,-0.136
18.22,-0.063,1.137,-0.007
18.23,-0.228,0.795,0.107
18.24,-0.032,0.853,0.076
18.25,-0.435,0.947,-0.227
18.26,-0.213,1.21,-0.018
18.27,0.014,0.837,0.087
18.28,-0.243,1.027,0.116
18.29,-0.177,0.762,-0.084
18.3,-0.358,1.25,-0.155
18.31,-0.153,0.966,0.108
18.32,-0.089,0.869,0.162
18.33,-0.255,0.932,0.025
18.34,-0.405,0.9,-0.191
18.35,-0.109,1.246,-0.035
18.36,-0.07,0.73,0.117
18.37,-0.181,1.041,0.108
18.38,-0.259,0.873,-0.154
18.39,-0.337,1.122,-0.11
18.4,-0.072,1.006,0.127
18.41,-0.128,0.751,0.12
18.42,-0.347,1.056,-0.057
18.43,-0.3,0.906,-0.176
18.44,-0.161,1.22,0.038
18.45,-0.102,0.695,0.152
18.46,-0.126,0.999,0.002
18.47,-0.39,0.927,-0.217
18.48,-0.116,1.034,-0.035
18.49,-0.149,1.099,0.133
18.5,-0.225,0.658,0.137
18.51,-0.296,1.181,-0.124
18.52,-0.262,0.883,-0.225
18.53,-0.036,1.201,0.086
18.54,-0.093,0.78,0.11
18.55,-0.262,0.876,-0.063
18.56,-0.384,1.085,-0.213
18.57,-0.019,0.95,-0.028
18.58,-0.233,1.087,0.168
18.59,-0.067,0.678,0.103
18.6,-0.492,1.222,-0.191
18.61,-0.242,0.854,-0.079
18.62,0.05,1.203,0.09
18.63,-0.177,0.767,0.146
18.64,-0.305,0.867,-0.007
18.65,-0.304,1.22,-0.208
18.66,-0.116,0.855,0.021
18.67,-0.095,1.116,0.155
18.68,-0.127,0.619,-0.001
18.69,-0.456,1.266,-0.177
18.7,-0.103,0.954,-0.018
18.71,-0.207,0.986,0.102
18.72,-0.03,0.897,0.11
18.73,-0.335,0.834,-0.18
18.74,-0.27,1.219,-0.117
18.75,-0.03,0.915,0.09
18.76,-0.23,1.015,0.156
18.77,-0.21,0.702,0.019
18.78,-0.351,1.285,-0.235
18.79,-0.116,0.926,-0.005
18.8,-0.06,0.917,0.185
18.81,-0.169,0.977,0.11
18.82,-0.424,0.779,-0.153
18.83,-0.156,1.338,-0.09
18.84,-0.061,0.765,0.073
18.85,-0.23,1.004,0.212
18.86,-0.3,0.767,-0.073
18.87,-0.295,1.111,-0.188
18.88,-0.042,1.122,0.101
18.89,-0.149,0.748,0.122
18.9,-0.25,1.01,0.036
18.91,-0.297,0.931,-0.23
18.92,-0.102,1.212,-0.065
18.93,-0.172,0.758,0.196
18.94,-0.124,0.974,0.104
18.95,-0.36,0.903,-0.189
18.96,-0.197,1.046,-0.099
18.97,-0.034,1.142,0.068
18.98,-0.192,0.604,0.182
18.99,-0.307,1.103,0.017
19.0,-0.333,0.948,-0.219
19.01,-0.141,1.13,-0.017
19.02,-0.034,0.828,0.129
19.03,-0.198,0.879,0.037
19.04,-0.4,1.048,-0.185
19.05,-0.117,0.993,-0.065
19.06,-0.124,0.953,0.105
19.07,-0.153,0.763,0.191
19.08,-0.372,1.152,-0.185
19.09,-0.268,0.813,-0.13
19.1,-0.001,1.311,0.111
19.11,-0.123,0.678,0.152
19.12,-0.386,0.957,0.013
19.13,-0.258,1.052,-0.196
19.14,-0.141,0.986,-0.024
19.15,-0.144,1.021,0.147
19.16,-0.059,0.688,0.072
19.17,-0.486,1.217,-0.204
19.18,-0.096,0.857,-0.044
19.19,-0.166,1.198,0.104
19.2,-0.149,0.736,0.162
19.21,-0.27,0.975,-0.082
19.22,-0.316,1.116,-0.178
19.23,-0.126,0.977,0.107
19.24,-0.091,1.088,0.128
19.25,-0.167,0.625,-0.032
19.26,-0.481,1.293,-0.156
19.27,-0.104,0.918,-0.02
19.28,-0.216,1.072,0.127
19.29,-0.067,0.844,0.134
19.3,-0.385,0.905,-0.186
19.31,-0.286,1.184,-0.07
19.32,-0.021,0.919,0.086
19.33,-0.153,1.016,0.099
19.34,-0.262,0.695,0.031
19.35,-0.377,1.276,-0.237
19.36,-0.067,0.893,-0.021
19.37,-0.19,0.956,0.21
19.38,-0.137,0.896,0.057
19.39,-0.402,0.869,-0.179
19.4,-0.178,1.248,-0.058
19.41,-0.012,0.747,0.127
19.42,-0.227,1.029,0.114
19.43,-0.273,0.754,-0.081
19.44,-0.257,1.242,-0.132
19.45,-0.205,0.992,0.101
19.46,-0.088,0.788,0.174
19.47,-0.232,0.975,-0.028
19.48,-0.381,0.86,-0.168
19.49,-0.124,1.256,-0.009
19.5,-0.107,0.678,0.093
19.51,-0.166,1.028,0.157
19.52,-0.399,0.929,-0.142
19.53,-0.278,1.074,-0.089
19.54,-0.021,1.055,0.053
19.55,-0.122,0.673,0.111
19.56,-0.297,1.093,-0.047
19.57,-0.265,0.9,-0.177
19.58,-0.086,1.201,0.06
19.59,-0.082,0.719,0.158
19.6,-0.191,0.922,0.008
19.61,-0.385,1.02,-0.207
19.62,-0.156,1.009,-0.034
19.63,-0.148,1.04,0.106
19.64,-0.168,0.71,0.179
19.65,-0.401,1.17,-0.158
19.66,-0.246,0.818,-0.161
19.67,-0.026,1.218,0.121
19.68,-0.124,0.751,0.155
19.69,-0.282,0.878,-0.01
19.7,-0.276,1.159,-0.232
19.71,-0.074,0.918,-0.022
19.72,-0.221,1.115,0.173
19.73,-0.088,0.628,0.059
19.74,-0.512,1.245,-0.155
19.75,-0.16,0.98,-0.045
19.76,-0.104,1.075,0.069
19.77,-0.192,0.838,0.198
19.78,-0.197,0.853,-0.12
19.79,-0.355,1.182,-0.202
19.8,-0.041,0.908,0.096
19.81,-0.101,1.115,0.052
19.82,-0.202,0.637,0.02
19.83,-0.398,1.28,-0.183
19.84,-0.062,0.957,-0.065
19.85,-0.177,0.937,0.162
19.86,-0.097,0.961,0.157
19.87,-0.39,0.762,-0.21
19.88,-0.201,1.137,-0.077
19.89,0.027,0.898,0.071
19.9,-0.198,1.045,0.139
19.91,-0.206,0.664,-0.018
19.92,-0.33,1.315,-0.2
19.93,-0.181,0.913,0.103
19.94,-0.12,1.043,0.186
19.95,-0.191,0.8,0.004
19.96,-0.453,0.965,-0.139
19.97,-0.026,1.238,-0.103
19.98,-0.08,0.694,0.102
19.99,-0.226,1.091,0.199
20.0,-0.287,0.776,-0.15
20.01,-0.393,1.15,-0.143
20.02,0.036,1.024,0.133
20.03,-0.131,0.853,0.153
20.04,-0.382,0.941,0.047
20.05,-0.339,0.942,-0.218
20.06,-0.09,1.216,-0.095
20.07,-0.119,0.779,0.175
20.08,-0.177,1.044,0.086
20.09,-0.294,0.822,-0.198
20.1,-0.245,1.19,-0.041
20.11,-0.07,0.958,0.093
20.12,-0.15,0.744,0.159
20.13,-0.394,1.072,-0.054
20.14,-0.269,0.859,-0.177
20.15,-0.115,1.287,0.049
20.16,-0.059,0.698,0.146
20.17,-0.175,0.958,0.017
20.18,-0.436,0.999,-0.188
20.19,-0.034,1.072,-0.059
20.2,-0.198,0.964,0.131
20.21,-0.078,0.744,0.171
20.22,-0.408,1.161,-0.169
20.23,-0.32,0.86,-0.078
20.24,-0.024,1.264,0.072
20.25,-0.129,0.695,0.119
20.26,-0.314,0.951,0.04
20.27,-0.295,1.084,-0.269
20.28,-0.122,0.905,0.013
20.29,-0.11,1.13,0.18
20.3,-0.098,0.616,0.051
20.31,-0.523,1.234,-0.144
20.32,-0.082,0.973,-0.081
20.33,-0.136,1.063,0.021
20.34,-0.156,0.79,0.238
20.35,-0.28,0.949,-0.109
20.36,-0.336,1.031,-0.204
20.37,0.03,0.969,0.121
20.38,-0.139,1.121,0.109
20.39,-0.192,0.59,0.024
20.4,-0.402,1.375,-0.159
20.41,-0.054,0.917,-0.056
20.42,-0.276,1.039,0.172
20.43,-0.048,0.859,0.126
20.44,-0.427,0.871,-0.196
20.45,-0.215,1.211,-0.081
20.46,-0.011,0.879,0.074
20.47,-0.25,1.024,0.135
20.48,-0.185,0.696,0.01
20.49,-0.325,1.29,-0.233
20.5,-0.17,0.909,0.011
20.51,-0.047,0.952,0.186
20.52,-0.171,0.91,0.021
20.53,-0.483,0.871,-0.143
20.54,-0.123,1.293,-0.047
20.55,-0.084,0.763,0.073
20.56,-0.237,1.012,0.177
20.57,-0.155,0.805,-0.098
20.58,-0.358,1.101,-0.189
20.59,-0.129,1.052,0.101
20.6,-0.041,0.855,0.088
20.61,-0.27,0.947,0.038
20.62,-0.358,0.954,-0.118
20.63,-0.221,1.31,-0.063
20.64,-0.196,0.664,0.129
20.65,-0.143,1.019,0.119
20.66,-0.264,0.882,-0.226
20.67,-0.284,0.984,-0.106
20.68,-0.054,1.16,0.106
20.69,-0.167,0.767,0.118
20.7,-0.282,0.969,-0.021
20.71,-0.322,0.946,-0.227
20.72,-0.142,1.209,0.003
20.73,-0.148,0.802,0.199
20.74,-0.171,1.013,0.063
20.75,-0.386,0.866,-0.198
20.76,-0.089,1.155,-0.11
20.77,-0.091,0.923,0.083
20.78,-0.213,0.763,0.182
20.79,-0.3,1.107,-0.076
20.8,-0.263,0.794,-0.194
20.81,-0.12,1.306,0.152
20.82,-0.122,0.723,0.097
20.83,-0.21,0.948,0.002
20.84,-0.422,1.048,-0.137
20.85,-0.151,1.018,-0.05
20.86,-0.157,1.007,0.155
20.87,-0.152,0.729,0.197
20.88,-0.359,1.172,-0.152
20.89,-0.246,0.83,-0.152
20.9,-0.121,1.239,0.142
20.91,-0.087,0.697,0.12
20.92,-0.31,0.926,-0.038
20.93,-0.313,1.094,-0.184
20.94,-0.108,0.957,0.013
20.95,-0.227,1.119,0.171
20.96,-0.073,0.674,0.08
20.97,-0.448,1.198,-0.212
20.98,-0.144,0.891,-0.026
20.99,-0.119,1.146,0.111
21.0,-0.18,0.745,0.13
21.01,-0.258,0.913,-0.085
21.02,-0.317,1.201,-0.16
21.03,-0.105,0.92,0.079
21.04,-0.163,1.123,0.137
21.05,-0.111,0.618,0.006
21.06,-0.552,1.293,-0.155
21.07,-0.045,0.908,-0.079
21.08,-0.15,1.052,0.111
21.09,-0.118,0.897,0.14
21.1,-0.354,0.843,-0.178
21.11,-0.279,1.176,-0.132
21.12,-0.048,0.93,0.084
21.13,-0.138,1.017,0.108
21.14,-0.231,0.677,0.02
21.15,-0.365,1.292,-0.226
21.16,-0.082,0.938,-0.045
21.17,-0.199,0.917,0.206
21.18,-0.15,0.957,0.106
21.19,-0.401,0.796,-0.208
21.2,-0.205,1.275,-0.05
21.21,-0.061,0.841,0.11
21.22,-0.249,0.983,0.132
21.23,-0.166,0.794,-0.051
21.24,-0.324,1.133,-0.181
21.25,-0.167,1.046,0.138
21.26,-0.131,0.857,0.162
21.27,-0.272,0.979,-0.008
21.28,-0.333,0.864,-0.184
21.29,-0.151,1.29,-0.043
21.3,-0.14,0.738,0.102
21.31,-0.079,0.996,0.18
21.32,-0.347,0.891,-0.157
21.33,-0.322,0.964,-0.136
21.34,0.005,1.16,0.069
21.35,-0.117,0.666,0.118
21.36,-0.341,1.087,0.045
21.37,-0.325,0.88,-0.223
21.38,-0.138,1.159,-0.026
21.39,-0.179,0.799,0.174
21.4,-0.122,0.913,0.102
21.41,-0.373,1.031,-0.193
21.42,-0.164,0.94,-0.057
21.43,-0.103,1.172,0.094
21.44,-0.159,0.627,0.118
21.45,-0.284,1.105,-0.034
21.46,-0.277,0.862,-0.211
21.47,-0.149,1.182,0.07
21.48,-0.108,0.867,0.139
21.49,-0.147,0.768,-0.016
21.5,-0.453,1.177,-0.134
21.51,-0.119,1.004,-0.019
21.52,-0.235,0.989,0.165
21.53,-0.082,0.736,0.165
21.54,-0.382,1.202,-0.173
21.55,-0.352,0.851,-0.089
21.56,0.057,1.236,0.073
21.57,-0.156,0.704,0.117
21.58,-0.285,0.953,0.012
21.59,-0.279,1.154,-0.273
21.6,-0.11,0.866,-0.037
21.61,-0.162,1.109,0.153
21.62,-0.031,0.651,0.053
21.63,-0.472,1.229,-0.194
21.64,-0.071,0.927,-0.031
21.65,-0.163,1.122,0.11
21.66,-0.203,0.795,0.193
21.67,-0.276,0.914,-0.098
21.68,-0.335,1.135,-0.233
21.69,-0.114,0.871,0.112
21.7,-0.052,1.193,0.104
21.71,-0.199,0.604,-0.002
21.72,-0.44,1.241,-0.137
21.73,-0.053,0.942,-0.065
21.74,-0.201,0.979,0.088
21.75,-0.058,0.936,0.123
21.76,-0.349,0.801,-0.191
21.77,-0.299,1.16,-0.105
21.78,0.035,0.956,0.057
21.79,-0.197,1.025,0.141
21.8,-0.184,0.677,0.047
21.81,-0.343,1.27,-0.242
21.82,-0.12,0.941,0.008
21.83,-0.191,0.927,0.174
21.84,-0.159,0.969,0.123
21.85,-0.444,0.798,-0.174
21.86,-0.212,1.3,-0.075
21.87,-0.074,0.777,0.067
21.88,-0.147,0.989,0.156
21.89,-0.247,0.818,-0.031
21.9,-0.354,1.139,-0.19
21.91,-0.106,1.038,0.048
21.92,-0.095,0.835,0.159
21.93,-0.163,0.973,0.021
21.94,-0.383,0.845,-0.141
21.95,-0.126,1.301,-0.071
21.96,-0.114,0.742,0.05
21.97,-0.179,0.975,0.218
21.98,-0.282,0.884,-0.119
21.99,-0.374,0.966,-0.095
22.0,-0.035,1.18,0.072
22.01,-0.087,0.72,0.099
22.02,-0.291,1.049,0.009
22.03,-0.298,0.918,-0.213
22.04,-0.131,1.218,-0.036
22.05,-0.186,0.746,0.16
22.06,-0.082,0.887,0.096
22.07,-0.366,1.01,-0.199
22.08,-0.261,0.944,-0.059
22.09,-0.066,1.221,0.106
22.1,-0.147,0.599,0.12
22.11,-0.233,1.105,-0.008
22.12,-0.376,0.902,-0.21
22.13,-0.145,1.084,0.021
22.14,-0.075,0.96,0.158
22.15,-0.109,0.793,0.049
22.16,-0.447,1.094,-0.176
22.17,-0.042,0.911,-0.076
22.18,-0.152,1.158,0.091
22.19,-0.149,0.645,0.19
22.2,-0.305,1.138,-0.131
22.21,-0.346,0.845,-0.192
22.22,-0.188,1.125,0.206
22.23,-0.107,0.995,0.123
22.24,-0.235,0.693,0.015
22.25,-0.377,1.243,-0.142
22.26,-0.069,0.898,-0.06
22.27,-0.264,1.156,0.155
22.28,-0.06,0.704,0.137
22.29,-0.412,1.055,-0.183
22.3,-0.313,1.031,-0.052
22.31,-0.055,1.067,0.069
22.32,-0.222,0.763,0.169
22.33,-0.193,0.89,-0.025
22.34,-0.373,1.227,-0.21
22.35,-0.148,0.78,0.056
22.36,-0.124,1.202,0.147
22.37,-0.083,0.641,0.052
22.38,-0.478,1.192,-0.201
22.39,-0.118,0.982,-0.043
22.4,-0.159,0.997,0.12
22.41,-0.225,0.901,0.176
22.42,-0.271,0.813,-0.084
22.43,-0.3,1.18,-0.198
22.44,-0.089,0.887,0.149
22.45,-0.141,1.131,0.122
22.46,-0.138,0.659,-0.02
22.47,-0.448,1.214,-0.151
22.48,-0.157,1.015,-0.061
22.49,-0.181,0.871,0.132
22.5,-0.131,1.006,0.109
22.51,-0.294,0.815,-0.168
22.52,-0.382,1.254,-0.064
22.53,0.028,0.863,0.062
22.54,-0.102,1.008,0.082
22.55,-0.223,0.79,0.062
22.56,-0.336,1.154,-0.241
22.57,-0.092,1.042,-0.058
22.58,-0.172,0.844,0.186
22.59,-0.143,1.0,0.078
22.6,-0.38,0.775,-0.196
22.61,-0.186,1.282,-0.047
22.62,-0.047,0.807,0.11
22.63,-0.21,0.911,0.133
22.64,-0.227,0.866,-0.044
22.65,-0.271,1.014,-0.227
22.66,-0.104,1.152,0.027
22.67,-0.094,0.762,0.138
22.68,-0.202,1.024,0.006
22.69,-0.405,0.872,-0.191
22.7,-0.108,1.25,-0.045
22.71,-0.153,0.742,0.058
22.72,-0.109,0.89,0.198
22.73,-0.295,0.991,-0.17
22.74,-0.351,0.889,-0.099
22.75,0.014,1.272,0.066
22.76,-0.099,0.657,0.094
22.77,-0.281,1.03,0.043
22.78,-0.262,0.967,-0.191
22.79,-0.206,1.133,-0.003
22.8,-0.159,0.82,0.155
22.81,-0.072,0.857,0.102
22.82,-0.423,1.129,-0.204
22.83,-0.204,0.873,-0.055
22.84,-0.069,1.242,0.1
22.85,-0.241,0.626,0.145
22.86,-0.212,1.069,-0.042
22.87,-0.278,0.935,-0.218
22.88,-0.178,1.021,0.082
22.89,-0.112,0.991,0.225
22.9,-0.133,0.712,0.051
22.91,-0.518,1.209,-0.238
22.92,-0.027,0.896,-0.076
22.93,-0.153,1.17,0.045
22.94,-0.141,0.68,0.212
22.95,-0.305,1.046,-0.048
22.96,-0.319,0.99,-0.215
22.97,-0.09,1.015,0.126
22.98,-0.105,1.017,0.081
22.99,-0.148,0.633,-0.003
23.0,-0.425,1.351,-0.171
23.01,-0.121,0.871,-0.052
23.02,-0.244,1.031,0.157
23.03,-0.041,0.822,0.139
23.04,-0.381,0.956,-0.207
23.05,-0.293,1.025,-0.058
23.06,-0.044,0.991,0.136
23.07,-0.199,1.015,0.072
23.08,-0.247,0.684,0.003
23.09,-0.308,1.294,-0.201
23.1,-0.159,0.869,0.032
23.11,-0.222,1.094,0.217
23.12,-0.087,0.832,0.056
23.13,-0.548,0.949,-0.148
23.14,-0.122,1.094,-0.032
23.15,-0.125,0.901,0.059
23.16,-0.143,0.944,0.18
23.17,-0.251,0.784,-0.14
23.18,-0.351,1.244,-0.162
23.19,-0.127,0.863,0.09
23.2,-0.168,1.062,0.106
23.21,-0.147,0.713,0.011
23.22,-0.399,1.191,-0.204
23.23,-0.067,1.071,-0.052
23.24,-0.232,0.816,0.157
23.25,-0.073,1.042,0.103
23.26,-0.345,0.752,-0.205
23.27,-0.342,1.239,-0.039
23.28,-0.047,0.911,0.082
23.29,-0.172,0.923,0.131
23.3,-0.244,0.87,0.021
23.31,-0.458,1.025,-0.163
23.32,-0.081,1.099,-0.015
23.33,-0.105,0.821,0.145
23.34,-0.121,0.986,0.008
23.35,-0.43,0.84,-0.131
23.36,-0.087,1.248,-0.13
23.37,-0.071,0.856,0.101
23.38,-0.194,0.867,0.204
23.39,-0.318,0.969,-0.093
23.4,-0.264,0.85,-0.16
23.41,-0.198,1.3,0.163
23.42,-0.143,0.669,0.128
23.43,-0.168,1.009,0.001
23.44,-0.31,0.979,-0.186
23.45,-0.214,1.131,-0.019
23.46,-0.17,0.878,0.15
23.47,-0.059,0.829,0.127
23.48,-0.385,1.056,-0.177
23.49,-0.198,0.862,-0.141
23.5,-0.135,1.304,0.064
23.51,-0.098,0.608,0.147
23.52,-0.311,1.032,0.039
23.53,-0.345,0.994,-0.199
23.54,-0.102,0.997,-0.02
23.55,-0.232,0.969,0.174
23.56,-0.092,0.783,0.104
23.57,-0.397,1.156,-0.222
23.58,-0.193,0.847,-0.021
23.59,-0.074,1.309,0.098
23.6,-0.177,0.62,0.082
23.61,-0.314,1.007,-0.008
23.62,-0.238,1.093,-0.24
23.63,-0.131,0.908,0.02
23.64,-0.063,1.054,0.202
23.65,-0.156,0.699,0.038
23.66,-0.6,1.211,-0.141
23.67,0.004,0.908,-0.059
23.68,-0.19,1.129,0.074
23.69,-0.153,0.745,0.202
23.7,-0.331,0.982,-0.148
23.71,-0.371,1.062,-0.158
23.72,0.002,0.94,0.108
23.73,-0.14,1.068,0.143
23.74,-0.294,0.625,0.022
23.75,-0.357,1.313,-0.205
23.76,-0.069,0.91,-0.061
23.77,-0.223,1.041,0.173
23.78,-0.098,0.843,0.145
23.79,-0.421,0.956,-0.228
23.8,-0.109,1.181,-0.098
23.81,-0.091,0.854,0.105
23.82,-0.218,1.025,0.179
23.83,-0.182,0.695,-0.084
23.84,-0.321,1.208,-0.177
23.85,-0.116,0.951,0.061
23.86,-0.098,0.97,0.145
23.87,-0.138,0.831,0.045
23.88,-0.39,0.968,-0.139
23.89,-0.106,1.283,-0.103
23.9,-0.113,0.661,0.077
23.91,-0.182,1.026,0.206
23.92,-0.279,0.815,-0.126
23.93,-0.341,1.1,-0.15
23.94,-0.177,1.045,0.152
23.95,-0.152,0.959,0.137
23.96,-0.33,0.835,0.017
23.97,-0.299,1.051,-0.201
23.98,-0.058,1.108,-0.065
23.99,-0.123,0.767,0.19
24.0,-0.133,1.042,0.075
24.01,-0.4,0.819,-0.219
24.02,-0.177,1.255,-0.025
24.03,-0.06,0.909,0.082
24.04,-0.203,0.841,0.125
24.05,-0.228,0.99,-0.079
24.06,-0.331,0.961,-0.196
24.07,-0.183,1.171,0.039
24.08,-0.02,0.74,0.173
24.09,-0.194,1.013,-0.001
24.1,-0.43,0.876,-0.175
24.11,-0.156,1.164,-0.051
24.12,-0.113,0.868,0.069
24.13,-0.126,0.827,0.198
24.14,-0.32,1.091,-0.151
24.15,-0.287,0.806,-0.122
24.16,-0.154,1.244,0.12
24.17,-0.059,0.669,0.145
24.18,-0.388,1.0,0.013
24.19,-0.295,0.968,-0.19
24.2,-0.081,1.07,-0.038
24.21,-0.242,0.961,0.18
24.22,-0.068,0.717,0.094
24.23,-0.407,1.205,-0.214
24.24,-0.239,0.856,-0.012
24.25,-0.035,1.265,0.088
24.26,-0.152,0.655,0.118
24.27,-0.261,1.004,-0.055
24.28,-0.334,1.032,-0.215
24.29,-0.16,0.973,0.079
24.3,-0.12,1.079,0.148
24.31,-0.108,0.611,-0.005
24.32,-0.494,1.275,-0.154
24.33,-0.082,0.892,-0.037
24.34,-0.148,1.129,0.074
24.35,-0.1,0.789,0.187
24.36,-0.351,0.933,-0.129
24.37,-0.344,1.092,-0.139
24.38,0.01,0.937,0.061
24.39,-0.18,1.068,0.109
24.4,-0.196,0.633,0.037
24.41,-0.436,1.328,-0.211
24.42,-0.103,0.803,-0.047
24.43,-0.118,1.092,0.196
24.44,-0.14,0.844,0.101
24.45,-0.411,0.909,-0.152
24.46,-0.182,1.294,-0.079
24.47,-0.128,0.818,0.078
24.48,-0.203,0.985,0.167
24.49,-0.157,0.738,-0.049
24.5,-0.504,1.257,-0.221
24.51,-0.079,0.898,0.063
24.52,-0.079,1.051,0.151
24.53,-0.153,0.848,0.022
24.54,-0.388,0.931,-0.17
24.55,-0.074,1.289,-0.133
24.56,-0.164,0.672,0.11
24.57,-0.201,1.061,0.185
24.58,-0.307,0.79,-0.17
24.59,-0.311,1.057,-0.151
24.6,-0.074,1.129,0.128
24.61,-0.162,0.765,0.123
24.62,-0.306,0.978,0.048
24.63,-0.278,0.971,-0.195
24.64,-0.22,1.173,-0.053
24.65,-0.096,0.689,0.162
24.66,-0.074,1.049,0.071
24.67,-0.406,0.858,-0.201
24.68,-0.18,1.055,-0.051
24.69,-0.09,1.095,0.042
24.7,-0.168,0.642,0.147
24.71,-0.215,1.131,-0.019
24.72,-0.331,0.859,-0.23
24.73,-0.224,1.163,0.077
24.74,0.026,0.846,0.154
24.75,-0.306,0.904,0.077
24.76,-0.381,0.959,-0.203
24.77,-0.114,1.208,-0.114
24.78,-0.175,0.828,0.099
24.79,-0.125,0.812,0.199
24.8,-0.398,1.108,-0.151
24.81,-0.297,0.792,-0.175
24.82,0.028,1.345,0.091
24.83,-0.14,0.622,0.101
24.84,-0.301,0.993,0.065
24.85,-0.307,1.011,-0.217
24.86,-0.131,1.014,-0.06
24.87,-0.203,0.984,0.227
24.88,-0.104,0.711,0.05
24.89,-0.453,1.171,-0.216
24.9,-0.156,0.883,-0.023
24.91,-0.157,1.247,0.129
24.92,-0.175,0.663,0.168
24.93,-0.214,1.019,-0.053
24.94,-0.366,1.014,-0.199
24.95,-0.16,0.964,0.102
24.96,-0.135,1.088,0.146
24.97,-0.146,0.645,0.027
24.98,-0.48,1.238,-0.168
24.99,-0.066,0.894,-0.103
25.0,-0.155,1.124,0.111
25.01,-0.131,0.774,0.199
25.02,-0.366,0.966,-0.098
25.03,-0.292,1.093,-0.178
25.04,-0.059,0.956,0.111
25.05,-0.167,1.058,0.106
25.06,-0.193,0.651,-0.027
25.07,-0.373,1.277,-0.206
25.08,-0.109,0.874,-0.033
25.09,-0.202,1.051,0.205
25.1,-0.054,0.816,0.1
25.11,-0.413,0.877,-0.213
25.12,-0.173,1.198,-0.07
25.13,-0.089,0.934,0.106
25.14,-0.225,0.956,0.147
25.15,-0.151,0.728,0.023
25.16,-0.366,1.335,-0.245
25.17,-0.103,0.839,-0.017
25.18,-0.139,1.027,0.197
25.19,-0.124,0.913,0.037
25.2,-0.405,0.871,-0.204
25.21,-0.094,1.283,-0.091
25.22,-0.101,0.743,0.091
25.23,-0.249,1.035,0.159
25.24,-0.176,0.747,-0.087
25.25,-0.362,1.112,-0.2
25.26,-0.058,1.062,0.078
25.27,-0.145,0.891,0.131
25.28,-0.247,0.908,0.055
25.29,-0.356,0.863,-0.175
25.3,-0.174,1.301,-0.037
25.31,-0.089,0.706,0.121
25.32,-0.244,1.009,0.139
25.33,-0.275,0.822,-0.125
25.34,-0.256,1.033,-0.16
25.35,-0.117,1.122,0.067
25.36,-0.125,0.713,0.155
25.37,-0.264,1.036,0.01
25.38,-0.417,0.868,-0.149
25.39,-0.13,1.235,0.006
25.4,-0.144,0.768,0.18
25.41,-0.206,0.95,0.099
25.42,-0.165,0.895,0.092
25.43,-0.184,0.964,0.118
25.44,-0.174,0.744,-0.037
25.45,-0.498,1.293,-0.206
25.46,-0.051,0.839,0.069
25.47,-0.038,1.118,0.118
25.48,-0.28,0.789,0.041
25.49,-0.394,0.886,-0.126
25.5,-0.051,1.326,-0.128
25.51,-0.15,0.673,0.088
25.52,-0.053,1.044,0.111
25.53,-0.377,0.77,-0.192
25.54,-0.269,1.277,-0.065
25.55,0.01,0.898,0.067
25.56,-0.219,0.875,0.108
25.57,-0.187,0.864,0.045
25.58,-0.386,1.108,-0.21
25.59,-0.233,1.042,-0.026
25.6,-0.039,0.837,0.141
25.61,-0.171,1.061,0.059
25.62,-0.456,0.798,-0.166
25.63,-0.11,1.286,-0.11
25.64,-0.125,0.81,0.089
25.65,-0.173,0.859,0.201
25.66,-0.277,0.966,-0.07
25.67,-0.365,0.872,-0.17
25.68,-0.109,1.21,0.068
25.69,-0.098,0.796,0.088
25.7,-0.245,1.0,0.026
25.71,-0.346,0.857,-0.124
25.72,-0.133,1.243,-0.086
25.73,-0.159,0.798,0.117
25.74,-0.107,0.85,0.164
25.75,-0.313,1.06,-0.141
25.76,-0.276,0.801,-0.135
25.77,-0.016,1.306,0.129
25.78,-0.142,0.659,0.132
25.79,-0.357,1.03,0.051
25.8,-0.299,0.987,-0.238
25.81,-0.152,1.009,-0.113
25.82,-0.133,0.918,0.222
25.83,-0.143,0.768,0.081
25.84,-0.541,1.147,-0.185
25.85,-0.062,0.883,-0.103
25.86,-0.119,1.252,0.1
25.87,-0.133,0.622,0.121
25.88,-0.296,1.026,-0.022
25.89,-0.326,0.968,-0.252
25.9,-0.146,1.011,0.027
25.91,-0.111,1.1,0.162
25.92,-0.064,0.664,0.031
25.93,-0.483,1.251,-0.155
25.94,-0.032,0.929,-0.066
25.95,-0.195,1.157,0.083
25.96,-0.157,0.686,0.17
25.97,-0.28,1.0,-0.119
25.98,-0.278,1.025,-0.232
25.99,-0.116,1.016,0.164
26.0,-0.172,1.085,0.138
26.01,-0.247,0.595,0.014
26.02,-0.346,1.355,-0.183
26.03,-0.114,0.878,-0.072
26.04,-0.237,1.027,0.184
26.05,-0.051,0.883,0.131
26.06,-0.417,0.902,-0.225
26.07,-0.275,1.139,-0.075
26.08,0.006,0.952,0.039
26.09,-0.201,0.973,0.085
26.1,-0.19,0.698,0.069
26.11,-0.42,1.303,-0.208
26.12,-0.116,0.837,-0.036
26.13,-0.112,1.053,0.167
26.14,-0.122,0.885,0.069
26.15,-0.433,0.856,-0.153
26.16,-0.146,1.291,-0.092
26.17,-0.045,0.792,0.062
26.18,-0.191,1.004,0.179
26.19,-0.223,0.775,-0.064
26.2,-0.399,1.176,-0.175
26.21,-0.12,0.969,0.065
26.22,-0.106,0.984,0.12
26.23,-0.139,0.896,0.012
26.24,-0.397,0.906,-0.133
26.25,-0.171,1.327,-0.109
26.26,-0.066,0.633,0.079
26.27,-0.146,1.068,0.194
26.28,-0.315,0.821,-0.148
26.29,-0.297,1.005,-0.175
26.3,-0.062,1.136,0.108
26.31,-0.21,0.781,0.137
26.32,-0.192,0.967,0.001
26.33,-0.316,0.968,-0.195
26.34,-0.105,1.117,-0.043
26.35,-0.117,0.749,0.184
26.36,-0.192,1.062,0.092
26.37,-0.324,0.797,-0.218
26.38,-0.109,1.205,-0.082
26.39,-0.099,0.937,0.11
26.4,-0.198,0.786,0.172
26.41,-0.222,1.048,-0.101
26.42,-0.319,0.863,-0.212
26.43,-0.173,1.222,0.085
26.44,-0.074,0.745,0.154
26.45,-0.193,0.981,0.031
26.46,-0.358,0.945,-0.191
26.47,-0.115,1.107,-0.13
26.48,-0.219,0.908,0.132
26.49,-0.079,0.801,0.132
26.5,-0.389,1.115,-0.154
26.51,-0.324,0.757,-0.121
26.52,-0.027,1.315,0.096
26.53,-0.14,0.694,0.129
26.54,-0.273,0.952,0.062
26.55,-0.321,1.088,-0.228
26.56,-0.174,0.951,-0.027
26.57,-0.188,1.045,0.203
26.58,-0.076,0.72,0.088
26.59,-0.458,1.11,-0.237
26.6,-0.201,0.856,-0.027
26.61,-0.079,1.252,0.099
26.62,-0.146,0.663,0.101
26.63,-0.22,0.997,0.081
26.64,-0.454,1.128,-0.21
26.65,-0.166,0.812,0.028
26.66,-0.057,1.202,0.174
26.67,-0.19,0.643,0.084
26.68,-0.476,1.217,-0.128
26.69,-0.075,1.013,-0.068
26.7,-0.104,1.068,0.055
26.71,-0.249,0.788,0.265
26.72,-0.216,0.909,-0.082
26.73,-0.336,1.122,-0.244
26.74,-0.127,0.871,0.136
26.75,-0.094,1.115,0.087
26.76,-0.183,0.617,-0.006
26.77,-0.416,1.295,-0.194
26.78,-0.119,0.937,-0.055
26.79,-0.231,0.977,0.142
26.8,-0.073,0.915,0.119
26.81,-0.31,0.808,-0.183
26.82,-0.299,1.205,-0.099
26.83,-0.042,0.889,0.047
26.84,-0.139,0.967,0.128
26.85,-0.254,0.713,0.073
26.86,-0.409,1.253,-0.27
26.87,-0.104,0.879,-0.057
26.88,-0.136,0.964,0.186
26.89,-0.178,0.937,0.128
26.9,-0.382,0.809,-0.175
26.91,-0.206,1.311,-0.051
26.92,-0.059,0.806,0.094
26.93,-0.266,1.0,0.158
26.94,-0.159,0.784,-0.043
26.95,-0.39,1.103,-0.234
26.96,-0.164,1.058,0.097
26.97,-0.057,0.863,0.142
26.98,-0.221,0.968,0.046
26.99,-0.433,0.868,-0.116
27.0,-0.123,1.322,-0.091
27.01,-0.209,0.68,0.081
27.02,-0.07,0.996,0.218
27.03,-0.389,0.937,-0.127
27.04,-0.354,0.878,-0.162
27.05,-0.004,1.255,0.105
27.06,-0.179,0.76,0.129
27.07,-0.259,1.003,0.027
27.08,-0.346,0.93,-0.154
27.09,-0.222,1.223,-0.029
27.1,-0.172,0.725,0.127
27.11,-0.074,0.946,0.151
27.12,-0.392,0.983,-0.199
27.13,-0.254,0.859,-0.054
27.14,0.009,1.298,0.026
27.15,-0.206,0.642,0.146
27.16,-0.218,1.1,0.027
27.17,-0.347,0.898,-0.251
27.18,-0.188,1.178,0.017
27.19,-0.002,0.865,0.134
27.2,-0.223,0.923,0.018
27.21,-0.41,0.938,-0.154
27.22,-0.102,1.086,-0.097
27.23,-0.13,1.019,0.08
27.24,-0.151,0.665,0.172
27.25,-0.322,1.172,-0.107
27.26,-0.298,0.81,-0.184
27.27,-0.117,1.235,0.13
27.28,-0.137,0.799,0.19
27.29,-0.247,0.883,0.002
27.3,-0.338,1.157,-0.194
27.31,-0.148,0.91,-0.038
27.32,-0.197,1.073,0.138
27.33,-0.055,0.696,0.126
27.34,-0.479,1.115,-0.139
27.35,-0.281,0.844,-0.097
27.36,-0.001,1.258,0.026
27.37,-0.146,0.767,0.113
27.38,-0.189,0.855,0.065
27.39,-0.388,1.256,-0.237
27.4,-0.138,0.782,-0.002
27.41,-0.14,1.208,0.173
27.42,-0.122,0.679,0.09
27.43,-0.482,1.143,-0.174
27.44,-0.164,0.982,-0.045
27.45,-0.12,1.067,0.093
27.46,-0.175,0.84,0.182
27.47,-0.286,0.795,-0.03
27.48,-0.358,1.228,-0.211
27.49,-0.06,0.808,0.018
27.5,-0.093,1.155,0.127
27.51,-0.134,0.66,0.057
27.52,-0.449,1.157,-0.171
27.53,-0.037,1.054,-0.07
27.54,-0.152,0.92,0.088
27.55,-0.149,0.931,0.154
27.56,-0.253,0.794,-0.136
27.57,-0.315,1.263,-0.17
27.58,-0.043,0.867,0.107
27.59,-0.141,1.046,0.135
27.6,-0.245,0.718,0.023
27.61,-0.363,1.129,-0.176
27.62,-0.184,1.068,-0.01
27.63,-0.167,0.749,0.145
27.64,-0.126,1.064,0.117
27.65,-0.352,0.777,-0.232
27.66,-0.32,1.255,-0.039
27.67,0.021,0.916,0.071
27.68,-0.222,0.911,0.135
27.69,-0.232,0.859,0.016
27.7,-0.368,1.092,-0.227
27.71,-0.115,1.062,-0.019
27.72,-0.028,0.827,0.175
27.73,-0.205,1.025,0.059
27.74,-0.386,0.821,-0.161
27.75,-0.11,1.32,-0.09
27.76,-0.079,0.756,0.034
27.77,-0.216,0.914,0.26
27.78,-0.329,0.987,-0.108
27.79,-0.285,0.897,-0.173
27.8,-0.14,1.262,0.099
27.81,-0.048,0.706,0.086
27.82,-0.255,1.033,0.014
27.83,-0.333,0.916,-0.179
27.84,-0.193,1.162,-0.02
27.85,-0.166,0.845,0.139
27.86,-0.101,0.849,0.138
27.87,-0.398,1.089,-0.151
27.88,-0.244,0.89,-0.097
27.89,-0.114,1.257,0.084
27.9,-0.085,0.603,0.125
27.91,-0.275,1.081,0.006
27.92,-0.318,0.98,-0.21
27.93,-0.081,1.028,-0.006
27.94,-0.169,0.992,0.203
27.95,-0.187,0.723,0.105
27.96,-0.466,1.141,-0.184
27.97,-0.071,1.008,-0.066
27.98,-0.218,1.106,0.124
27.99,-0.13,0.624,0.194
28.0,-0.302,1.205,-0.144
28.01,-0.267,0.853,-0.181
28.02,-0.07,1.193,0.139
28.03,-0.116,0.891,0.139
28.04,-0.295,0.774,-0.007
28.05,-0.328,1.221,-0.191
28.06,-0.063,0.871,-0.057
28.07,-0.259,1.156,0.184
28.08,-0.038,0.677,0.093
28.09,-0.415,1.094,-0.207
28.1,-0.235,0.967,-0.073
28.11,-0.042,1.12,0.072
28.12,-0.169,0.867,0.106
28.13,-0.181,0.77,-0.036
28.14,-0.411,1.276,-0.232
28.15,-0.06,0.831,0.001
28.16,-0.179,1.213,0.144
28.17,-0.073,0.636,0.042
28.18,-0.469,1.164,-0.179
28.19,-0.109,1.06,-0.13
28.2,-0.067,0.825,0.052
28.21,-0.187,0.994,0.208
28.22,-0.27,0.753,-0.139
28.23,-0.342,1.186,-0.174
28.24,-0.045,0.915,0.131
28.25,-0.191,1.116,0.138
28.26,-0.154,0.711,-0.009
28.27,-0.413,1.167,-0.202
28.28,-0.083,1.102,-0.059
28.29,-0.184,0.79,0.204
28.3,-0.18,1.037,0.159
28.31,-0.323,0.741,-0.217
28.32,-0.265,1.231,-0.13
28.33,0.064,0.942,0.097
28.34,-0.204,0.902,0.096
28.35,-0.328,0.871,0.057
28.36,-0.354,1.068,-0.206
28.37,-0.185,1.095,-0.038
28.38,0.027,0.754,0.162
28.39,-0.143,1.02,0.017
28.4,-0.477,0.818,-0.117
28.41,-0.091,1.24,-0.066
28.42,-0.129,0.833,0.081
28.43,-0.169,0.885,0.252
28.44,-0.319,0.987,-0.106
28.45,-0.386,0.876,-0.161
28.46,0.042,1.246,0.062
28.47,-0.079,0.682,0.123
28.48,-0.322,1.052,0.017
28.49,-0.259,0.919,-0.2
28.5,-0.207,1.105,0.003
28.51,-0.238,0.903,0.176
28.52,-0.066,0.81,0.101
28.53,-0.417,1.128,-0.203
28.54,-0.2,0.907,-0.053
28.55,-0.125,1.218,0.084
28.56,-0.156,0.616,0.176
28.57,-0.325,1.062,-0.021
28.58,-0.274,0.941,-0.253
28.59,-0.091,1.069,0.018
28.6,-0.169,1.046,0.094
28.61,-0.068,0.681,-0.009
28.62,-0.414,1.266,-0.174
28.63,-0.117,0.91,-0.065
28.64,-0.185,1.072,0.094
28.65,-0.067,0.746,0.196
28.66,-0.354,1.046,-0.14
28.67,-0.318,0.91,-0.174
28.68,-0.051,1.07,0.117
28.69,-0.164,1.042,0.098
28.7,-0.235,0.643,-0.021
28.71,-0.387,1.31,-0.164
28.72,-0.1,0.819,-0.066
28.73,-0.195,1.055,0.17
28.74,-0.011,0.812,0.106
28.75,-0.43,0.981,-0.223
28.76,-0.204,1.095,-0.02
28.77,-0.062,0.965,0.102
28.78,-0.259,0.866,0.164
28.79,-0.202,0.783,-0.11
28.8,-0.338,1.27,-0.202
28.81,-0.053,0.85,0.105
28.82,-0.158,1.121,0.159
28.83,-0.173,0.667,0.018
28.84,-0.381,1.182,-0.175
28.85,-0.157,1.033,-0.067
28.86,-0.142,0.884,0.15
28.87,-0.113,0.991,0.132
28.88,-0.349,0.747,-0.166
28.89,-0.266,1.302,-0.089
28.9,-0.025,0.882,0.097
28.91,-0.201,0.927,0.179
28.92,-0.164,0.818,-0.009
28.93,-0.366,1.119,-0.168
28.94,-0.127,1.046,-0.015
28.95,-0.141,0.855,0.169
28.96,-0.154,1.038,0.064
28.97,-0.375,0.809,-0.17
28.98,-0.162,1.308,-0.092
28.99,-0.092,0.796,0.105
29.0,-0.19,0.911,0.167
29.01,-0.24,0.91,-0.073
29.02,-0.347,1.001,-0.154
29.03,-0.086,1.169,0.05
29.04,-0.033,0.729,0.11
29.05,-0.314,1.037,0.038
29.06,-0.299,0.91,-0.177
29.07,-0.165,1.186,-0.065
29.08,-0.153,0.77,0.181
29.09,-0.144,0.887,0.166
29.1,-0.388,0.999,-0.176
29.11,-0.237,0.891,-0.064
29.12,-0.061,1.267,0.053
29.13,-0.11,0.532,0.114
29.14,-0.183,1.111,0.008
29.15,-0.359,0.957,-0.238
29.16,-0.076,1.041,0.009
29.17,-0.115,0.977,0.209
29.18,-0.142,0.784,0.103
29.19,-0.441,1.139,-0.18
29.2,-0.12,0.933,-0.057
29.21,-0.135,1.2,0.066
29.22,-0.14,0.651,0.19
29.23,-0.339,1.102,-0.047
29.24,-0.292,0.881,-0.207
29.25,-0.084,1.063,0.078
29.26,-0.15,1.024,0.132
29.27,-0.179,0.669,0.017
29.28,-0.398,1.309,-0.182
29.29,-0.133,0.88,-0.045
29.3,-0.229,1.104,0.155
29.31,-0.11,0.745,0.157
29.32,-0.383,1.032,-0.177
29.33,-0.28,1.011,-0.141
29.34,-0.03,1.033,0.067
29.35,-0.122,0.918,0.097
29.36,-0.159,0.702,0.087
29.37,-0.505,1.431,-0.205
29.38,-0.133,0.758,-0.036
29.39,-0.185,1.123,0.157
29.4,-0.199,0.733,0.1
29.41,-0.431,0.984,-0.143
29.42,-0.17,1.191,-0.107
29.43,-0.132,0.779,0.094
29.44,-0.214,1.028,0.193
29.45,-0.246,0.718,-0.081
29.46,-0.378,1.171,-0.219
29.47,-0.058,0.986,0.082
29.48,-0.109,1.054,0.104
29.49,-0.176,0.811,0.013
29.5,-0.467,1.005,-0.123
29.51,-0.103,1.177,-0.096
29.52,-0.146,0.727,0.13
29.53,-0.182,1.094,0.147
29.54,-0.219,0.72,-0.2
29.55,-0.333,1.154,-0.126
29.56,0.018,0.989,0.106
29.57,-0.089,0.87,0.113
29.58,-0.264,0.928,0.024
29.59,-0.369,0.978,-0.177
29.6,-0.123,1.058,-0.003
29.61,-0.183,0.804,0.214
29.62,-0.15,1.045,0.049
29.63,-0.36,0.773,-0.223
29.64,-0.194,1.296,-0.039
29.65,-0.014,0.821,0.067
29.66,-0.178,0.848,0.126
29.67,-0.2,0.953,-0.056
29.68,-0.385,1.031,-0.17
29.69,-0.208,1.116,0.121
29.7,-0.112,0.735,0.177
29.71,-0.233,1.042,0.006
29.72,-0.364,0.914,-0.18
29.73,-0.157,1.217,-0.035
29.74,-0.098,0.865,0.126
29.75,-0.148,0.881,0.15
29.76,-0.339,1.009,-0.168
29.77,-0.202,0.958,-0.094
29.78,-0.104,1.278,0.061
29.79,-0.083,0.552,0.104
29.8,-0.289,1.108,0.002
29.81,-0.367,0.965,-0.185
29.82,-0.12,1.046,-0.001
29.83,-0.101,0.897,0.148
29.84,-0.185,0.815,0.152
29.85,-0.393,1.172,-0.237
29.86,-0.099,0.866,-0.077
29.87,-0.146,1.169,0.117
29.88,-0.144,0.695,0.127
29.89,-0.336,1.035,-0.088
29.9,-0.34,0.921,-0.194
29.91,-0.053,1.055,0.134
29.92,-0.238,1.029,0.154
29.93,-0.104,0.654,0.027
29.94,-0.493,1.311,-0.21
29.95,-0.023,0.9,-0.068
29.96,-0.162,1.114,0.102
29.97,-0.134,0.752,0.159
29.98,-0.405,0.999,-0.15
29.99,-0.25,1.022,-0.148
30.0,-0.006,1.048,0.113
30.01,-0.178,0.959,0.111
30.02,-0.177,0.687,0.018
30.03,-0.42,1.404,-0.178
30.04,-0.055,0.818,0.003
30.05,-0.177,1.071,0.197
30.06,-0.144,0.801,0.079
30.07,-0.484,0.986,-0.218
30.08,-0.125,1.149,-0.051
30.09,-0.031,0.924,0.086
30.1,-0.254,1.007,0.149
30.11,-0.214,0.728,-0.071
30.12,-0.382,1.269,-0.171
30.13,-0.1,0.872,0.059
30.14,-0.03,0.994,0.106
30.15,-0.283,0.844,0.021
30.16,-0.452,0.977,-0.122
30.17,-0.108,1.261,-0.05
30.18,-0.182,0.702,0.131
30.19,-0.162,1.05,0.115
30.2,-0.305,0.832,-0.192
30.21,-0.295,1.21,-0.102
30.22,0.035,0.958,0.095
30.23,-0.166,0.817,0.167
30.24,-0.361,0.948,-0.013
30.25,-0.281,0.964,-0.221
30.26,-0.132,1.231,-0.013
30.27,-0.111,0.718,0.18
30.28,-0.207,1.04,0.053
30.29,-0.446,0.886,-0.171
30.3,-0.202,1.113,-0.027
30.31,-0.131,0.924,0.106
30.32,-0.114,0.734,0.117
30.33,-0.384,1.114,-0.089
30.34,-0.261,0.87,-0.174
30.35,-0.11,1.273,0.06
30.36,-0.097,0.655,0.123
30.37,-0.241,0.982,-0.017
30.38,-0.337,0.989,-0.208
30.39,-0.112,1.001,0.028
30.4,-0.171,1.013,0.193
30.41,-0.146,0.72,0.094
30.42,-0.402,1.101,-0.216
30.43,-0.136,0.955,-0.064
30.44,-0.146,1.17,0.115
30.45,-0.122,0.651,0.147
30.46,-0.333,1.105,-0.103
30.47,-0.301,0.919,-0.182
30.48,-0.052,1.13,0.157
30.49,-0.191,0.937,0.12
30.5,-0.252,0.723,-0.007
30.51,-0.36,1.263,-0.225
30.52,-0.087,0.856,-0.082
30.53,-0.179,1.091,0.149
30.54,-0.021,0.733,0.109
30.55,-0.492,1.081,-0.218
30.56,-0.212,0.99,-0.02
30.57,-0.047,1.088,0.102
30.58,-0.242,0.875,0.106
30.59,-0.166,0.759,0.003
30.6,-0.37,1.369,-0.246
30.61,-0.178,0.792,0.084
30.62,-0.074,1.16,0.137
30.63,-0.184,0.65,-0.02
30.64,-0.466,1.118,-0.142
30.65,-0.015,1.116,-0.077
30.66,-0.243,0.851,0.119
30.67,-0.127,0.998,0.183
30.68,-0.32,0.719,-0.188
30.69,-0.356,1.26,-0.086
30.7,-0.002,0.942,0.098
30.71,-0.222,0.931,0.086
30.72,-0.221,0.813,0.031
30.73,-0.34,1.131,-0.197
30.74,-0.06,1.11,-0.017
30.75,-0.116,0.792,0.169
30.76,-0.175,1.031,0.061
30.77,-0.399,0.807,-0.226
30.78,-0.147,1.269,-0.073
30.79,-0.067,0.842,0.122
30.8,-0.253,0.857,0.134
30.81,-0.264,0.946,-0.1
30.82,-0.278,0.955,-0.196
30.83,-0.015,1.178,0.081
30.84,-0.095,0.666,0.158
30.85,-0.231,1.087,0.016
30.86,-0.4,0.902,-0.241
30.87,-0.146,1.131,0.004
30.88,-0.104,0.86,0.118
30.89,-0.17,0.831,0.11
30.9,-0.427,1.052,-0.171
30.91,-0.176,0.926,-0.03
30.92,-0.118,1.246,0.094
30.93,-0.141,0.587,0.13
30.94,-0.266,1.058,-0.062
30.95,-0.315,0.962,-0.205
30.96,-0.015,1.121,0.029
30.97,-0.146,0.92,0.125
30.98,-0.129,0.724,0.01
30.99,-0.448,1.236,-0.199
31.0,-0.032,0.895,-0.051
31.01,-0.177,1.116,0.151
31.02,-0.161,0.695,0.127
31.03,-0.371,1.091,-0.211
31.04,-0.183,0.986,-0.122
31.05,-0.01,1.057,0.136
31.06,-0.14,0.882,0.129
31.07,-0.319,0.728,0.01
31.08,-0.378,1.341,-0.2
31.09,-0.027,0.766,-0.01
31.1,-0.168,1.108,0.219
31.11,-0.146,0.726,0.034
31.12,-0.515,1.072,-0.172
31.13,-0.072,1.09,-0.054
31.14,-0.1,0.881,0.112
31.15,-0.17,0.994,0.142
31.16,-0.279,0.713,-0.125
31.17,-0.294,1.297,-0.137
31.18,-0.046,0.92,0.124
31.19,-0.212,0.939,0.125
31.2,-0.182,0.832,0.006
31.21,-0.393,1.132,-0.223
31.22,-0.073,1.089,-0.017
31.23,-0.086,0.872,0.115
31.24,-0.189,0.927,0.023
31.25,-0.387,0.903,-0.167
31.26,-0.125,1.264,-0.079
31.27,-0.092,0.711,0.164
31.28,-0.186,1.039,0.133
31.29,-0.304,0.824,-0.158
31.3,-0.273,1.124,-0.111
31.31,-0.105,1.101,0.141
31.32,-0.156,0.68,0.114
31.33,-0.281,1.035,-0.05
31.34,-0.277,0.927,-0.201
31.35,-0.116,1.233,0.01
31.36,-0.147,0.719,0.228
31.37,-0.145,0.96,0.056
31.38,-0.429,0.91,-0.216
31.39,-0.152,1.02,-0.029
31.4,-0.125,1.075,0.126
31.41,-0.184,0.69,0.136
31.42,-0.416,1.146,-0.117
31.43,-0.232,0.841,-0.159
31.44,-0.093,1.265,0.147
31.45,-0.126,0.721,0.137
31.46,-0.263,0.911,0.018
31.47,-0.363,1.163,-0.213
31.48,-0.069,0.908,0.001
31.49,-0.193,1.139,0.185
31.5,-0.136,0.644,0.082
31.51,-0.467,1.223,-0.191
31.52,-0.178,0.982,-0.013
31.53,-0.131,1.074,0.102
31.54,-0.127,0.795,0.2
31.55,-0.35,0.892,-0.114
31.56,-0.335,1.143,-0.178
31.57,0.013,0.932,0.091
31.58,-0.191,1.066,0.138
31.59,-0.27,0.649,0.038
31.6,-0.404,1.316,-0.239
31.61,-0.111,0.874,-0.072
31.62,-0.055,0.995,0.183
31.63,-0.223,0.886,0.09
31.64,-0.454,0.804,-0.168
31.65,-0.064,1.317,-0.116
31.66,-0.05,0.78,0.099
31.67,-0.245,1.008,0.222
31.68,-0.248,0.764,-0.07
31.69,-0.417,1.176,-0.228
31.7,0.014,1.033,0.096
31.71,-0.123,0.866,0.168
31.72,-0.367,0.957,0.057
31.73,-0.22,0.934,-0.247
31.74,-0.153,1.244,-0.071
31.75,-0.155,0.737,0.234
31.76,-0.218,1.011,0.121
31.77,-0.318,0.827,-0.196
31.78,-0.18,1.164,-0.109
31.79,-0.122,1.006,0.111
31.8,-0.155,0.657,0.155
31.81,-0.255,1.066,-0.039
31.82,-0.372,0.885,-0.15
31.83,-0.143,1.264,0.083
31.84,-0.154,0.785,0.13
31.85,-0.142,0.927,-0.011
31.86,-0.378,1.02,-0.211
31.87,-0.115,1.05,-0.08
31.88,-0.109,0.991,0.078
31.89,-0.154,0.726,0.155
31.9,-0.376,1.152,-0.177
31.91,-0.239,0.822,-0.129
31.92,-0.117,1.28,0.163
31.93,-0.113,0.704,0.112
31.94,-0.24,0.905,-0.048
31.95,-0.31,1.159,-0.245
31.96,-0.064,0.887,-0.011
31.97,-0.18,1.133,0.209
31.98,-0.154,0.64,0.073
31.99,-0.488,1.221,-0.22
32.0,-0.009,0.953,-0.109
32.01,-0.09,1.072,0.052
32.02,-0.083,0.801,0.198
32.03,-0.364,0.908,-0.105
32.04,-0.374,1.177,-0.133
32.05,-0.04,1.038,0.095
32.06,-0.219,0.978,0.138
32.07,-0.201,0.699,0.042
32.08,-0.428,1.322,-0.201
32.09,-0.133,0.811,0.023
32.1,-0.102,1.126,0.162
32.11,-0.19,0.744,0.084
32.12,-0.433,1.046,-0.205
32.13,-0.115,1.142,-0.143
32.14,-0.082,0.765,0.081
32.15,-0.138,1.044,0.159
32.16,-0.312,0.711,-0.096
32.17,-0.313,1.274,-0.137
32.18,-0.054,0.926,0.125
32.19,-0.149,0.913,0.126
32.2,-0.198,0.835,0.008
32.21,-0.366,1.084,-0.204
32.22,-0.128,1.134,-0.013
32.23,-0.11,0.761,0.145
32.24,-0.105,1.038,0.06
32.25,-0.327,0.794,-0.194
32.26,-0.173,1.282,-0.055
32.27,-0.144,0.864,0.134
32.28,-0.226,0.837,0.177
32.29,-0.246,0.974,-0.059
32.3,-0.39,0.908,-0.189
32.31,-0.083,1.202,0.112
32.32,-0.104,0.725,0.143
32.33,-0.29,1.038,0.059
32.34,-0.379,0.931,-0.161
32.35,-0.143,1.129,-0.096
32.36,-0.145,0.876,0.14
32.37,-0.121,0.833,0.124
32.38,-0.461,1.052,-0.186
32.39,-0.191,0.873,-0.087
32.4,-0.073,1.298,0.064
32.41,-0.135,0.571,0.118
32.42,-0.215,1.07,0.016
32.43,-0.396,0.999,-0.227
32.44,-0.111,0.933,0.029
32.45,-0.084,1.116,0.141
32.46,-0.152,0.66,0.026
32.47,-0.424,1.182,-0.215
32.48,-0.076,0.932,-0.02
32.49,-0.159,1.108,0.154
32.5,-0.177,0.694,0.192
32.51,-0.297,1.069,-0.107
32.52,-0.305,0.998,-0.178
32.53,-0.071,0.987,0.128
32.54,-0.191,1.01,0.139
32.55,-0.158,0.687,-0.019
32.56,-0.459,1.379,-0.213
32.57,-0.075,0.811,0.015
32.58,-0.196,1.089,0.124
32.59,-0.059,0.752,0.095
32.6,-0.37,1.024,-0.219
32.61,-0.226,1.179,-0.025
32.62,-0.111,0.857,0.134
32.63,-0.239,1.039,0.16
32.64,-0.238,0.711,-0.061
32.65,-0.35,1.282,-0.184
32.66,-0.12,0.908,0.123
32.67,-0.108,0.958,0.107
32.68,-0.152,0.827,-0.027
32.69,-0.44,1.028,-0.163
32.7,-0.122,1.156,-0.046
32.71,-0.134,0.796,0.168
32.72,-0.224,1.08,0.123
32.73,-0.294,0.712,-0.224
32.74,-0.238,1.239,-0.081
32.75,-0.133,0.97,0.146
32.76,-0.171,0.775,0.156
32.77,-0.183,0.994,-0.033
32.78,-0.441,0.943,-0.191
32.79,-0.159,1.165,0.046
32.8,-0.052,0.758,0.091
32.81,-0.177,1.01,0.04
32.82,-0.362,0.895,-0.213
32.83,-0.148,1.148,-0.1
32.84,-0.114,0.866,0.105
32.85,-0.135,0.786,0.196
32.86,-0.377,0.914,-0.17
32.87,-0.248,0.966,-0.088
32.88,-0.045,1.22,0.06
32.89,-0.162,0.578,0.112
32.9,-0.26,1.109,-0.013
32.91,-0.316,0.908,-0.287
32.92,-0.121,1.088,0.037
32.93,-0.099,0.877,0.181
32.94,-0.181,0.851,0.072
32.95,-0.43,1.082,-0.182
32.96,-0.08,0.948,-0.086
32.97,-0.131,1.139,0.088
32.98,-0.141,0.66,0.176
32.99,-0.371,1.105,-0.079
33.0,-0.32,0.895,-0.215
33.01,-0.096,1.125,0.107
33.02,-0.112,0.943,0.132
33.03,-0.215,0.728,0.021
33.04,-0.398,1.275,-0.196
33.05,-0.108,0.864,-0.039
33.06,-0.194,1.143,0.082
33.07,-0.047,0.715,0.108
33.08,-0.442,1.074,-0.224
33.09,-0.228,0.986,-0.062
33.1,-0.064,1.052,0.123
33.11,-0.184,0.897,0.111
33.12,-0.152,0.716,-0.037
33.13,-0.408,1.362,-0.151
33.14,-0.154,0.854,0.089
33.15,-0.083,1.091,0.139
33.16,-0.189,0.703,0.047
33.17,-0.407,1.121,-0.187
33.18,-0.09,1.112,-0.118
33.19,-0.112,0.778,0.108
33.2,-0.142,1.052,0.16
33.21,-0.307,0.757,-0.146
33.22,-0.389,1.239,-0.108
33.23,0.041,0.906,0.079
33.24,-0.142,0.94,0.112
33.25,-0.267,0.822,0.025
33.26,-0.288,1.136,-0.206
33.27,-0.147,1.11,-0.076
33.28,-0.147,0.769,0.189
33.29,-0.107,1.024,0.051
33.3,-0.384,0.793,-0.205
33.31,-0.182,1.284,-0.029
33.32,-0.068,0.824,0.094
33.33,-0.229,0.844,0.178
33.34,-0.23,1.002,-0.072
33.35,-0.347,0.925,-0.186
33.36,-0.168,1.207,0.12
33.37,-0.034,0.751,0.153
33.38,-0.309,0.999,-0.006
33.39,-0.358,0.889,-0.107
33.4,-0.183,1.204,-0.011
33.41,-0.197,0.812,0.114
33.42,-0.075,0.852,0.166
33.43,-0.393,1.052,-0.183
33.44,-0.27,0.813,-0.143
33.45,0.001,1.33,0.108
33.46,-0.139,0.631,0.126
33.47,-0.325,1.042,0.043
33.48,-0.282,0.982,-0.222
33.49,-0.177,1.006,0.006
33.5,-0.093,0.961,0.203
33.51,-0.083,0.765,0.027
33.52,-0.547,1.164,-0.17
33.53,-0.029,0.868,-0.058
33.54,-0.132,1.193,0.065
33.55,-0.16,0.66,0.15
33.56,-0.236,1.063,-0.08
33.57,-0.359,1.005,-0.184
33.58,-0.198,1.02,0.121
33.59,-0.032,1.047,0.101
33.6,-0.284,0.649,-0.009
33.61,-0.418,1.299,-0.155
33.62,-0.076,0.903,-0.055
33.63,-0.314,1.05,0.148
33.64,0.095,0.765,0.107
33.65,-0.406,1.03,-0.195
33.66,-0.347,1.057,-0.05
33.67,0.031,1.011,0.097
33.68,-0.295,0.862,0.119
33.69,-0.179,0.798,-0.04
33.7,-0.284,1.292,-0.262
33.71,-0.231,0.838,0.097
33.72,-0.016,1.116,0.158
33.73,-0.166,0.681,0.058
33.74,-0.539,1.097,-0.18
33.75,-0.0,1.044,-0.085
33.76,-0.139,1.009,0.019
33.77,-0.445,0.858,-0.152
33.78,-0.118,1.266,-0.077
33.79,-0.113,0.728,0.116
33.8,-0.124,0.992,0.175
33.81,-0.37,0.94,-0.139
33.82,-0.29,0.982,-0.085
33.83,-0.042,1.195,0.085
33.84,-0.114,0.647,0.151
33.85,-0.317,1.098,0.064
33.86,-0.382,0.911,-0.231
33.87,-0.109,1.122,-0.017
33.88,-0.114,0.871,0.191
33.89,-0.174,0.876,0.095
33.9,-0.393,1.034,-0.192
33.91,-0.091,1.009,-0.119
33.92,-0.143,1.109,0.066
33.93,-0.129,0.676,0.235
33.94,-0.388,1.126,-0.074
33.95,-0.284,0.827,-0.198
33.96,-0.08,1.208,0.139
33.97,-0.222,0.896,0.171
33.98,-0.183,0.775,0.035
33.99,-0.374,1.273,-0.225
34.0,-0.137,0.837,-0.056
34.01,-0.183,1.148,0.186
34.02,-0.089,0.703,0.153
34.03,-0.48,1.076,-0.189
34.04,-0.218,0.938,-0.086
34.05,-0.049,1.175,0.062
34.06,-0.125,0.864,0.105
34.07,-0.239,0.769,0.024
34.08,-0.372,1.299,-0.231
34.09,-0.084,0.8,0.008
34.1,-0.182,1.158,0.178
34.11,-0.086,0.697,0.048
34.12,-0.458,1.111,-0.179
34.13,-0.243,1.063,-0.003
34.14,-0.083,0.92,0.093
34.15,-0.19,0.97,0.123
34.16,-0.231,0.747,-0.09
34.17,-0.363,1.284,-0.156
34.18,-0.112,0.871,0.146
34.19,-0.1,1.064,0.101
34.2,-0.201,0.68,-0.031
34.21,-0.38,1.103,-0.153
34.22,-0.091,1.167,-0.041
34.23,-0.154,0.75,0.091
34.24,-0.052,1.061,0.108
34.25,-0.365,0.764,-0.212
34.26,-0.321,1.24,-0.065
34.27,-0.007,0.917,0.094
34.28,-0.187,0.853,0.107
34.29,-0.267,0.876,-0.001
34.3,-0.278,1.031,-0.224
34.31,-0.106,1.12,0.009
34.32,-0.097,0.748,0.167
34.33,-0.228,1.036,0.028
34.34,-0.366,0.806,-0.181
34.35,-0.187,1.282,-0.067
34.36,-0.077,0.815,0.113
34.37,-0.164,0.877,0.182
34.38,-0.284,0.991,-0.146
34.39,-0.271,0.866,-0.107
34.4,-0.1,1.298,0.11
34.41,-0.132,0.608,0.143
34.42,-0.312,1.067,-0.013
34.43,-0.301,0.99,-0.207
34.44,-0.128,1.171,-0.016
34.45,-0.076,0.796,0.177
34.46,-0.157,0.929,0.062
34.47,-0.409,0.984,-0.172
34.48,-0.108,0.999,-0.033
34.49,-0.158,1.092,0.113
34.5,-0.215,0.642,0.171
34.51,-0.324,1.176,-0.138
34.52,-0.32,0.864,-0.194
34.53,-0.099,1.206,0.147
34.54,-0.077,0.816,0.118
34.55,-0.289,0.826,-0.008
34.56,-0.326,1.179,-0.176
34.57,-0.099,0.881,-0.044
34.58,-0.183,1.098,0.204
34.59,-0.076,0.679,0.102
34.6,-0.484,1.139,-0.223
34.61,-0.202,0.927,-0.06
34.62,-0.042,1.086,0.086
34.63,-0.201,0.838,0.151
34.64,-0.22,0.845,-0.002
34.65,-0.378,1.258,-0.229
34.66,-0.157,0.855,0.136
34.67,-0.109,1.149,0.149
34.68,-0.186,0.625,0.037
34.69,-0.45,1.217,-0.203
34.7,-0.097,1.036,-0.09
34.71,-0.15,0.857,0.138
34.72,-0.146,0.952,0.149
34.73,-0.308,0.816,-0.173
34.74,-0.302,1.216,-0.134
34.75,-0.016,0.882,0.122
34.76,-0.182,1.013,0.147
34.77,-0.258,0.729,-0.035
34.78,-0.306,1.207,-0.182
34.79,-0.098,1.065,0.008
34.8,-0.178,0.827,0.184
34.81,-0.116,0.994,0.078
34.82,-0.403,0.802,-0.197
34.83,-0.2,1.261,-0.05
34.84,-0.004,0.805,0.146
34.85,-0.258,0.946,0.133
34.86,-0.259,0.858,-0.082
34.87,-0.305,1.074,-0.174
34.88,-0.079,1.149,0.08
34.89,-0.074,0.69,0.123
34.9,-0.272,1.053,-0.016
34.91,-0.361,0.896,-0.148
34.92,-0.098,1.215,0.003
34.93,-0.201,0.728,0.186
34.94,-0.114,0.918,0.094
34.95,-0.373,1.019,-0.255
34.96,-0.209,0.955,0.008
34.97,-0.069,1.187,0.114
34.98,-0.247,0.583,0.144
34.99,-0.249,1.179,-0.043
35.0,-0.301,0.919,-0.199
35.01,-0.258,1.118,0.132
35.02,-0.048,0.861,0.136
35.03,-0.262,0.797,-0.028
35.04,-0.478,1.19,-0.143
35.05,0.018,0.907,-0.094
35.06,-0.209,1.096,0.119
35.07,-0.063,0.685,0.183
35.08,-0.425,1.152,-0.209
35.09,-0.308,0.925,-0.069
35.1,-0.019,1.112,0.11
35.11,-0.177,0.875,0.112
35.12,-0.319,0.739,0.019
35.13,-0.324,1.305,-0.237
35.14,-0.085,0.846,0.037
35.15,-0.136,1.135,0.147
35.16,-0.104,0.619,0.023
35.17,-0.533,1.189,-0.16
35.18,-0.058,1.092,-0.095
35.19,-0.11,0.877,0.095
35.2,-0.161,0.99,0.139
35.21,-0.299,0.743,-0.159
35.22,-0.373,1.244,-0.111
35.23,0.08,0.887,0.075
35.24,-0.166,0.98,0.06
35.25,-0.2,0.715,-0.035
35.26,-0.366,1.297,-0.225
35.27,-0.236,0.917,0.099
35.28,-0.036,0.927,0.116
35.29,-0.15,0.913,-0.038
35.3,-0.452,0.891,-0.138
35.31,-0.109,1.203,-0.051
35.32,-0.116,0.776,0.146
35.33,-0.144,1.068,0.137
35.34,-0.262,0.744,-0.208
35.35,-0.305,1.205,-0.05
35.36,-0.006,1.065,0.063
35.37,-0.197,0.713,0.138
35.38,-0.243,1.003,-0.01
35.39,-0.353,0.976,-0.217
35.4,-0.121,1.198,-0.018
35.41,-0.116,0.782,0.157
35.42,-0.199,0.955,0.092
35.43,-0.332,0.908,-0.186
35.44,-0.134,1.153,-0.065
35.45,-0.175,0.942,0.096
35.46,-0.118,0.698,0.134
35.47,-0.308,1.15,-0.116
35.48,-0.334,0.83,-0.142
35.49,-0.143,1.276,0.148
35.5,-0.15,0.747,0.075
35.51,-0.185,0.906,0.002
35.52,-0.376,1.117,-0.188
35.53,-0.15,0.946,0.015
35.54,-0.181,1.054,0.163
35.55,-0.132,0.668,0.116
35.56,-0.463,1.168,-0.206
35.57,-0.2,0.875,-0.023
35.58,-0.124,1.197,0.125
35.59,-0.15,0.727,0.097
35.6,-0.226,0.917,-0.049
35.61,-0.288,1.169,-0.225
35.62,-0.105,0.908,0.092
35.63,-0.124,1.092,0.164
35.64,-0.124,0.661,-0.001
35.65,-0.557,1.295,-0.168
35.66,-0.06,0.92,-0.045
35.67,-0.1,1.051,0.094
35.68,-0.171,0.848,0.142
35.69,-0.355,0.863,-0.174
35.7,-0.258,1.176,-0.104
35.71,-0.048,0.874,0.108
35.72,-0.096,1.031,0.115
35.73,-0.317,0.682,-0.041
35.74,-0.281,1.242,-0.222
35.75,-0.062,0.974,0.028
35.76,-0.197,0.953,0.205
35.77,-0.154,0.904,0.107
35.78,-0.511,0.867,-0.169
35.79,-0.123,1.269,-0.02
35.8,-0.054,0.746,0.147
35.81,-0.292,1.031,0.185
35.82,-0.272,0.782,-0.125
35.83,-0.341,1.175,-0.115
35.84,-0.041,1.077,0.122
35.85,-0.136,0.755,0.135
35.86,-0.334,1.032,0.001
35.87,-0.341,0.94,-0.174
35.88,-0.117,1.188,-0.023
35.89,-0.079,0.735,0.189
35.9,-0.215,0.98,0.06
35.91,-0.407,0.917,-0.203
35.92,-0.114,1.061,-0.075
35.93,-0.108,1.032,0.124
35.94,-0.249,0.722,0.209
35.95,-0.377,1.121,-0.118
35.96,-0.311,0.89,-0.217
35.97,-0.025,1.223,0.095
35.98,-0.104,0.683,0.126
35.99,-0.29,0.913,0.002
36.0,-0.33,1.135,-0.178
36.01,-0.131,0.942,0.001
36.02,-0.196,1.066,0.177
36.03,-0.084,0.681,0.085
36.04,-0.512,1.158,-0.202
36.05,-0.148,0.908,-0.042
36.06,-0.057,1.141,0.119
36.07,-0.148,0.674,0.157
36.08,-0.346,1.046,-0.106
36.09,-0.269,0.986,-0.213
36.1,0.012,1.038,0.099
36.11,-0.127,0.998,0.105
36.12,-0.291,0.676,0.012
36.13,-0.38,1.315,-0.199
36.14,-0.096,0.869,0.011
36.15,-0.237,1.101,0.214
36.16,-0.084,0.758,0.1
36.17,-0.464,1.06,-0.228
36.18,-0.211,1.122,-0.014
36.19,-0.045,0.885,0.093
36.2,-0.21,0.994,0.11
36.21,-0.219,0.743,-0.069
36.22,-0.385,1.317,-0.185
36.23,-0.1,0.86,0.119
36.24,-0.103,1.035,0.139
36.25,-0.228,0.762,0.001
36.26,-0.385,1.015,-0.132
36.27,-0.108,1.201,-0.04
36.28,-0.152,0.707,0.162
36.29,-0.195,1.067,0.077
36.3,-0.375,0.787,-0.227
36.31,-0.241,1.26,-0.052
36.32,0.006,0.896,0.114
36.33,-0.227,0.833,0.143
36.34,-0.286,0.993,-0.045
36.35,-0.284,1.029,-0.206
36.36,-0.093,1.182,0.074
36.37,-0.026,0.687,0.137
36.38,-0.347,1.036,-0.046
36.39,-0.308,0.841,-0.171
36.4,-0.128,1.227,-0.021
36.41,-0.203,0.83,0.158
36.42,-0.02,0.818,0.09
36.43,-0.515,1.094,-0.164
36.44,-0.159,0.907,-0.029
36.45,0.018,1.271,0.064
36.46,-0.195,0.625,0.108
36.47,-0.217,1.058,-0.065
36.48,-0.345,1.056,-0.219
36.49,-0.151,1.031,0.11
36.5,-0.087,0.94,0.084
36.51,-0.163,0.702,-0.044
36.52,-0.384,1.309,-0.205
36.53,-0.077,0.872,0.021
36.54,-0.23,1.124,0.179
36.55,-0.088,0.718,0.09
36.56,-0.391,1.057,-0.221
36.57,-0.193,1.081,-0.058
36.58,-0.061,0.958,0.132
36.59,-0.205,0.997,0.132
36.6,-0.277,0.719,-0.07
36.61,-0.31,1.288,-0.186
36.62,-0.058,0.925,0.106
36.63,-0.137,0.999,0.109
36.64,-0.178,0.771,0.033
36.65,-0.374,1.136,-0.261
36.66,-0.094,1.059,-0.094
36.67,-0.098,0.798,0.181
36.68,-0.187,1.023,0.085
36.69,-0.404,0.727,-0.173
36.7,-0.247,1.309,-0.035
36.71,-0.039,0.846,0.099
36.72,-0.206,0.89,0.133
36.73,-0.297,0.903,-0.023
36.74,-0.32,1.035,-0.201
36.75,-0.171,1.172,0.115
36.76,-0.045,0.708,0.132
36.77,-0.261,1.036,-0.051
36.78,-0.31,0.862,-0.177
36.79,-0.142,1.208,-0.033
36.8,-0.112,0.798,0.18
36.81,-0.155,0.884,0.111
36.82,-0.407,1.016,-0.187
36.83,-0.227,0.922,-0.044
36.84,-0.04,1.241,0.116
36.85,-0.206,0.583,0.142
36.86,-0.309,1.11,-0.058
36.87,-0.319,0.939,-0.191
36.88,-0.117,1.108,0.082
36.89,-0.08,0.708,0.153
36.9,-0.236,0.919,-0.023
36.91,-0.381,1.132,-0.216
36.92,-0.08,0.914,-0.035
36.93,-0.19,1.087,0.172
36.94,-0.1,0.653,0.114
36.95,-0.476,1.181,-0.18
36.96,-0.223,0.929,0.009
36.97,-0.099,1.139,0.111
36.98,-0.159,0.755,0.155
36.99,-0.293,0.922,-0.04
37.0,-0.273,1.195,-0.247
37.01,-0.093,0.876,0.088
37.02,-0.125,1.077,0.164
37.03,-0.237,0.654,0.024
37.04,-0.487,1.286,-0.149
37.05,-0.002,0.957,-0.059
37.06,-0.256,0.99,0.167
37.07,-0.097,0.882,0.142
37.08,-0.35,0.857,-0.212
37.09,-0.295,1.217,-0.063
37.1,0.015,0.874,0.146
37.11,-0.272,1.013,0.107
37.12,-0.243,0.742,-0.038
37.13,-0.291,1.242,-0.206
37.14,-0.187,0.937,0.086
37.15,-0.045,0.949,0.218
37.16,-0.258,0.945,-0.028
37.17,-0.456,0.842,-0.164
37.18,-0.059,1.309,-0.064
37.19,-0.1,0.705,0.086
37.2,-0.14,1.019,0.143
37.21,-0.351,0.854,-0.208
37.22,-0.298,1.078,-0.134
37.23,0.067,1.079,0.024
37.24,-0.102,0.671,0.072
37.25,-0.299,1.078,-0.0
37.26,-0.291,0.909,-0.228
37.27,-0.152,1.24,0.06
37.28,-0.1,0.745,0.177
37.29,-0.194,0.925,0.006
37.3,-0.412,1.018,-0.209
37.31,-0.0,1.036,-0.065
37.32,-0.195,1.028,0.13
37.33,-0.138,0.713,0.17
37.34,-0.414,1.125,-0.162
37.35,-0.311,0.877,-0.041
37.36,-0.102,1.257,0.142
37.37,-0.169,0.696,0.097
37.38,-0.24,0.93,0.014
37.39,-0.382,1.173,-0.221
37.4,-0.132,0.881,0.08
37.41,-0.118,1.136,0.159
37.42,-0.089,0.603,-0.044
37.43,-0.402,1.298,-0.187
37.44,-0.136,0.917,-0.034
37.45,-0.177,1.012,0.107
37.46,-0.08,0.849,0.157
37.47,-0.369,0.849,-0.141
37.48,-0.358,1.222,-0.036
37.49,0.034,0.958,0.038
37.5,-0.204,0.957,0.086
37.51,-0.126,0.713,0.048
37.52,-0.401,1.344,-0.234
37.53,-0.088,0.869,-0.023
37.54,-0.024,1.023,0.171
37.55,-0.201,0.874,0.05
37.56,-0.475,0.889,-0.154
37.57,-0.086,1.332,-0.093
37.58,-0.132,0.709,0.105
37.59,-0.208,1.029,0.174
37.6,-0.219,0.781,-0.139
37.61,-0.349,1.154,-0.137
37.62,-0.004,1.06,0.081
37.63,-0.1,0.764,0.11
37.64,-0.375,0.994,0.057
37.65,-0.251,0.922,-0.234
37.66,-0.138,1.221,-0.089
37.67,-0.091,0.718,0.2
37.68,-0.166,0.996,0.108
37.69,-0.487,0.87,-0.153
37.7,-0.165,1.209,-0.086
37.71,-0.102,0.84,0.108
37.72,-0.118,0.853,0.181
37.73,-0.357,0.949,-0.157
37.74,-0.304,0.906,-0.068
37.75,-0.052,1.295,0.048
37.76,-0.102,0.587,0.102
37.77,-0.268,1.081,0.003
37.78,-0.262,0.922,-0.269
37.79,-0.095,1.081,-0.002
37.8,-0.171,1.0,0.175
37.81,-0.045,0.766,0.065
37.82,-0.41,1.128,-0.208
37.83,-0.102,0.915,-0.054
37.84,-0.148,1.24,0.102
37.85,-0.191,0.648,0.162
37.86,-0.263,1.041,-0.092
37.87,-0.276,0.99,-0.2
37.88,-0.132,1.09,0.082
37.89,-0.132,0.985,0.099
37.9,-0.122,0.654,-0.004
37.91,-0.423,1.324,-0.177
37.92,-0.089,0.86,-0.031
37.93,-0.251,1.118,0.161
37.94,-0.063,0.761,0.08
37.95,-0.405,0.997,-0.229
37.96,-0.254,1.089,-0.053
37.97,-0.043,0.955,0.098
37.98,-0.203,0.999,0.102
37.99,-0.19,0.708,-0.033
38.0,-0.442,1.271,-0.218
38.01,-0.127,0.865,0.099
38.02,-0.133,1.124,0.14
38.03,-0.138,0.712,0.017
38.04,-0.406,1.039,-0.155
38.05,-0.183,1.156,-0.112
38.06,-0.079,0.773,0.137
38.07,-0.19,1.116,0.156
38.08,-0.28,0.712,-0.174
38.09,-0.292,1.21,-0.106
38.1,-0.056,0.987,0.126
38.11,-0.153,0.884,0.133
38.12,-0.259,0.879,0.046
38.13,-0.37,1.022,-0.215
38.14,-0.117,1.16,-0.052
38.15,-0.108,0.745,0.235
38.16,-0.18,1.051,0.101
38.17,-0.386,0.794,-0.227
38.18,-0.11,1.252,-0.13
38.19,-0.12,0.885,0.115
38.2,-0.226,0.803,0.207
38.21,-0.269,1.054,-0.11
38.22,-0.286,0.856,-0.192
38.23,-0.104,1.285,0.117
38.24,-0.12,0.69,0.121
38.25,-0.277,1.004,-0.004
38.26,-0.318,1.0,-0.166
38.27,-0.123,1.097,-0.051
38.28,-0.145,0.928,0.143
38.29,-0.125,0.786,0.135
38.3,-0.421,1.11,-0.192
38.31,-0.256,0.855,-0.036
38.32,-0.043,1.275,0.058
38.33,-0.121,0.592,0.104
38.34,-0.244,1.028,0.017
38.35,-0.324,1.091,-0.22
38.36,-0.134,0.95,0.036
38.37,-0.068,1.122,0.171
38.38,-0.159,0.616,0.016
38.39,-0.479,1.25,-0.169
38.4,-0.185,0.928,-0.071
38.41,-0.128,1.04,0.084
38.42,-0.11,0.806,0.194
38.43,-0.394,0.976,-0.141
38.44,-0.318,1.019,-0.198
38.45,0.066,0.976,0.064
38.46,-0.201,1.06,0.129
38.47,-0.239,0.676,0.057
38.48,-0.423,1.343,-0.224
38.49,-0.08,0.811,-0.034
38.5,-0.133,1.08,0.213
38.51,-0.147,0.79,0.103
38.52,-0.49,1.113,-0.15
38.53,-0.097,1.128,-0.083
38.54,-0.172,0.857,0.082
38.55,-0.146,0.974,0.192
38.56,-0.333,0.742,-0.116
38.57,-0.31,1.232,-0.211
38.58,0.034,0.955,0.067
38.59,-0.173,1.023,0.097
38.6,-0.204,0.745,0.04
38.61,-0.348,1.176,-0.198
38.62,-0.143,1.023,-0.05
38.63,-0.249,0.758,0.247
38.64,-0.119,1.08,0.09
38.65,-0.413,0.719,-0.233
38.66,-0.211,1.258,-0.001
38.67,-0.079,0.91,0.1
38.68,-0.208,0.864,0.125
38.69,-0.167,0.905,-0.03
38.7,-0.319,1.015,-0.244
38.71,-0.173,1.16,0.078
38.72,-0.031,0.77,0.16
38.73,-0.229,1.011,0.029
38.74,-0.455,0.87,-0.129
38.75,-0.156,1.239,-0.079
38.76,-0.167,0.779,0.061
38.77,-0.165,0.868,0.23
38.78,-0.305,1.056,-0.144
38.79,-0.352,0.867,-0.165
38.8,-0.079,1.251,0.147
38.81,-0.088,0.673,0.135
38.82,-0.358,1.02,0.004
38.83,-0.3,0.967,-0.213
38.84,-0.13,1.09,-0.109
38.85,-0.171,0.893,0.147
38.86,-0.05,0.749,0.059
38.87,-0.445,1.137,-0.193
38.88,-0.221,0.849,-0.054
38.89,-0.085,1.241,0.095
38.9,-0.156,0.634,0.131
38.91,-0.24,1.051,-0.062
38.92,-0.301,1.011,-0.23
38.93,-0.152,1.029,0.085
38.94,-0.103,1.026,0.153
38.95,-0.191,0.669,0.011
38.96,-0.501,1.298,-0.141
38.97,-0.063,0.875,-0.08
38.98,-0.233,1.083,0.103
38.99,-0.044,0.774,0.2
39.0,-0.4,1.026,-0.165
39.01,-0.286,0.997,-0.155
39.02,0.017,1.019,0.088
39.03,-0.131,1.022,0.104
39.04,-0.277,0.661,0.046
39.05,-0.344,1.366,-0.252
39.06,-0.102,0.846,-0.019
39.07,-0.246,1.073,0.187
39.08,-0.052,0.779,0.093
39.09,-0.51,0.925,-0.211
39.1,-0.12,1.207,-0.101
39.11,-0.034,0.886,0.106
39.12,-0.283,0.988,0.155
39.13,-0.136,0.696,-0.056
39.14,-0.408,1.303,-0.19
39.15,-0.143,0.895,0.066
39.16,-0.118,0.98,0.138
39.17,-0.225,0.835,0.02
39.18,-0.343,0.961,-0.132
39.19,-0.222,1.253,-0.063
39.2,-0.14,0.671,0.094
39.21,-0.098,1.071,0.135
39.22,-0.281,0.768,-0.157
39.23,-0.329,1.134,-0.104
39.24,0.015,1.033,0.087
39.25,-0.15,0.769,0.128
39.26,-0.29,0.997,0.075
39.27,-0.266,0.966,-0.209
39.28,-0.156,1.177,-0.064
39.29,-0.028,0.715,0.15
39.3,-0.18,1.038,0.113
39.31,-0.411,0.814,-0.17
39.32,-0.105,1.092,-0.095
39.33,-0.104,0.818,0.107
39.34,-0.245,0.858,0.21
39.35,-0.303,1.019,-0.084
39.36,-0.292,0.894,-0.186
39.37,-0.156,1.29,0.121
39.38,-0.082,0.689,0.145
39.39,-0.299,1.016,0.05
39.4,-0.301,0.957,-0.151
39.41,-0.174,1.135,-0.073
39.42,-0.192,0.831,0.166
39.43,-0.111,0.854,0.171
39.44,-0.407,1.05,-0.164
39.45,-0.264,0.857,-0.054
39.46,-0.072,1.341,0.079
39.47,-0.114,0.592,0.083
39.48,-0.239,1.054,0.009
39.49,-0.297,0.991,-0.225
39.5,-0.131,1.052,-0.018
39.51,-0.144,1.011,0.188
39.52,-0.136,0.72,0.066
39.53,-0.482,1.23,-0.187
39.54,-0.151,0.865,-0.054
39.55,-0.161,1.177,0.077
39.56,-0.155,0.665,0.197
39.57,-0.283,1.045,-0.094
39.58,-0.397,0.984,-0.207
39.59,-0.136,0.957,0.104
39.6,-0.086,1.154,0.1
39.61,-0.143,0.596,-0.031
39.62,-0.389,1.324,-0.159
39.63,-0.139,0.893,-0.046
39.64,-0.242,1.063,0.087
39.65,-0.03,0.782,0.143
39.66,-0.392,0.948,-0.165
39.67,-0.296,1.101,-0.1
39.68,-0.071,0.986,0.039
39.69,-0.141,0.969,0.089
39.7,-0.181,0.638,0.05
39.71,-0.369,1.371,-0.229
39.72,-0.084,0.845,-0.058
39.73,-0.182,1.04,0.168
39.74,-0.104,0.861,0.115
39.75,-0.44,0.854,-0.183
39.76,-0.249,1.232,-0.064
39.77,0.013,0.876,0.047
39.78,-0.204,0.975,0.107
39.79,-0.173,0.746,0.043
39.8,-0.404,1.237,-0.221
39.81,-0.124,0.932,-0.0
39.82,-0.091,0.985,0.142
39.83,-0.135,0.889,0.024
39.84,-0.477,0.884,-0.118
39.85,-0.173,1.275,-0.083
39.86,-0.058,0.771,0.066
39.87,-0.191,1.027,0.191
39.88,-0.288,0.781,-0.109
39.89,-0.319,1.153,-0.162
39.9,-0.013,1.062,0.033
39.91,-0.131,0.743,0.146
39.92,-0.241,1.029,0.03
39.93,-0.381,0.945,-0.164
39.94,-0.216,1.171,-0.022
39.95,-0.223,0.734,0.191
39.96,-0.139,0.979,0.115
39.97,-0.328,0.867,-0.183
39.98,-0.251,1.045,-0.037
39.99,-0.094,1.161,0.012
40.0,-0.094,0.631,0.164
40.01,-0.275,1.053,0.022
40.02,-0.359,0.909,-0.228
40.03,-0.108,1.173,-0.006
40.04,-0.049,0.825,0.138
40.05,-0.245,0.995,0.044
40.06,-0.343,0.867,-0.185
40.07,-0.099,1.168,-0.063
40.08,-0.139,0.906,0.072
40.09,-0.138,0.705,0.207
40.1,-0.314,1.177,-0.061
40.11,-0.321,0.774,-0.198
40.12,-0.181,1.211,0.09
40.13,-0.067,0.804,0.132
40.14,-0.195,0.894,-0.006
40.15,-0.374,0.957,-0.154
40.16,-0.117,1.164,-0.012
40.17,-0.251,0.818,0.109
40.18,-0.054,0.818,0.13
40.19,-0.385,1.126,-0.205
40.2,-0.246,0.844,-0.022
40.21,-0.139,1.282,0.066
40.22,-0.066,0.622,0.093
40.23,-0.26,1.098,0.036
40.24,-0.377,0.965,-0.212
40.25,-0.229,0.994,0.065
40.26,-0.026,1.088,0.15
40.27,-0.202,0.725,0.117
40.28,-0.495,1.154,-0.155
40.29,-0.052,0.923,-0.077
40.3,-0.126,1.204,0.044
40.31,-0.148,0.674,0.239
40.32,-0.368,1.039,-0.066
40.33,-0.353,0.981,-0.206
40.34,-0.14,1.014,0.143
40.35,-0.173,1.08,0.118
40.36,-0.193,0.638,0.011
40.37,-0.434,1.291,-0.164
40.38,-0.105,0.906,-0.079
40.39,-0.142,1.023,0.088
40.4,-0.003,0.813,0.147
40.41,-0.394,0.985,-0.138
40.42,-0.328,1.069,-0.106
40.43,0.037,0.982,0.086
40.44,-0.17,1.019,0.113
40.45,-0.195,0.689,0.083
40.46,-0.422,1.328,-0.266
40.47,-0.111,0.789,-0.02
40.48,-0.122,1.127,0.202
40.49,-0.117,0.841,0.087
40.5,-0.459,0.849,-0.154
40.51,-0.122,1.292,-0.045
40.52,-0.146,0.789,0.092
40.53,-0.208,0.979,0.162
40.54,-0.189,0.777,-0.05
40.55,-0.415,1.25,-0.197
40.56,-0.14,0.904,0.08
40.57,-0.089,1.028,0.103
40.58,-0.16,0.868,0.045
40.59,-0.37,0.892,-0.151
40.6,-0.102,1.314,-0.076
40.61,-0.114,0.669,0.079
40.62,-0.106,1.031,0.178
40.63,-0.346,0.843,-0.095
40.64,-0.322,1.044,-0.166
40.65,-0.064,1.122,0.114
40.66,-0.156,0.832,0.113
40.67,-0.23,0.98,0.015
40.68,-0.334,0.935,-0.173
40.69,-0.112,1.236,-0.058
40.7,-0.084,0.711,0.151
40.71,-0.118,1.043,0.15
40.72,-0.392,0.866,-0.203
40.73,-0.283,1.025,-0.089
40.74,0.048,1.173,0.051
40.75,-0.18,0.667,0.139
40.76,-0.343,1.078,0.038
40.77,-0.275,0.876,-0.242
40.78,-0.169,1.174,0.024
40.79,-0.077,0.843,0.162
40.8,-0.179,0.916,0.064
40.81,-0.371,1.026,-0.195
40.82,-0.112,1.016,-0.055
40.83,-0.166,1.066,0.077
40.84,-0.128,0.667,0.18
40.85,-0.357,1.154,-0.092
40.86,-0.376,0.808,-0.162
40.87,-0.124,1.245,0.115
40.88,-0.059,0.872,0.096
40.89,-0.233,0.778,0.016
40.9,-0.394,1.219,-0.152
40.91,-0.075,0.91,-0.066
40.92,-0.224,1.108,0.135
40.93,-0.025,0.694,0.153
40.94,-0.483,1.125,-0.192
40.95,-0.278,0.879,-0.042
40.96,-0.14,1.27,0.102
40.97,-0.167,0.627,0.144
40.98,-0.22,0.988,-0.039
40.99,-0.38,1.101,-0.213
41.0,-0.104,0.872,0.03
41.01,-0.044,1.217,0.139
41.02,-0.176,0.622,0.041
41.03,-0.465,1.188,-0.15
41.04,-0.068,0.965,-0.12
41.05,-0.199,1.062,0.115
41.06,-0.14,0.81,0.198
41.07,-0.278,0.9,-0.153
41.08,-0.302,1.129,-0.143
41.09,-0.059,0.932,0.051
41.1,-0.124,1.1,0.119
41.11,-0.16,0.607,0.041
41.12,-0.4,1.278,-0.148
41.13,-0.114,0.981,-0.04
41.14,-0.218,0.914,0.146
41.15,-0.045,0.948,0.165
41.16,-0.452,0.801,-0.191
41.17,-0.269,1.152,-0.07
41.18,0.079,1.007,0.09
41.19,-0.248,0.956,0.121
41.2,-0.223,0.702,0.031
41.21,-0.344,1.271,-0.226
41.22,-0.123,0.934,-0.059
41.23,-0.067,0.89,0.21
41.24,-0.165,0.996,0.045
41.25,-0.485,0.797,-0.132
41.26,-0.16,1.312,-0.04
41.27,-0.088,0.796,0.058
41.28,-0.132,0.984,0.189
41.29,-0.246,0.824,-0.111
41.3,-0.343,1.049,-0.184
41.31,-0.083,1.1,0.101
41.32,-0.091,0.762,0.1
41.33,-0.216,1.029,0.042
41.34,-0.313,0.924,-0.172
41.35,-0.226,1.22,-0.095
41.36,-0.111,0.674,0.166
41.37,-0.123,0.984,0.152
41.38,-0.388,0.966,-0.177
41.39,-0.262,0.934,-0.116
41.4,-0.073,1.204,0.11
41.41,-0.148,0.635,0.112
41.42,-0.28,1.059,-0.009
41.43,-0.221,0.95,-0.201
41.44,-0.199,1.174,-0.019
41.45,-0.12,0.809,0.181
41.46,-0.138,0.881,0.08
41.47,-0.426,1.037,-0.241
41.48,-0.083,0.944,-0.043
41.49,-0.153,1.204,0.06
41.5,-0.134,0.586,0.149
41.51,-0.272,1.184,-0.045
41.52,-0.333,0.873,-0.257
41.53,-0.176,1.12,0.12
41.54,-0.087,0.956,0.144
41.55,-0.26,0.728,0.02
41.56,-0.373,1.206,-0.193
41.57,-0.011,0.927,-0.119
41.58,-0.226,1.087,0.085
41.59,-0.038,0.684,0.195
41.6,-0.359,1.128,-0.17
41.61,-0.304,0.9,-0.151
41.62,0.024,1.103,0.104
41.63,-0.121,0.916,0.083
41.64,-0.271,0.737,0.088
41.65,-0.353,1.333,-0.261
41.66,-0.089,0.771,-0.025
41.67,-0.261,1.168,0.208
41.68,-0.026,0.721,0.057
41.69,-0.471,1.044,-0.186
41.7,-0.111,1.092,-0.038
41.71,-0.03,1.001,0.056
41.72,-0.293,0.945,0.152
41.73,-0.145,0.726,-0.043
41.74,-0.437,1.338,-0.191
41.75,-0.198,0.811,0.09
41.76,-0.061,1.137,0.086
41.77,-0.169,0.724,-0.031
41.78,-0.374,1.242,-0.15
41.79,-0.167,0.978,-0.032
41.8,-0.198,0.915,0.145
41.81,-0.042,1.01,0.146
41.82,-0.336,0.766,-0.177
41.83,-0.358,1.216,-0.086
41.84,0.028,0.899,0.097
41.85,-0.19,1.021,0.102
41.86,-0.217,0.743,0.014
41.87,-0.335,1.182,-0.229
41.88,-0.16,1.026,0.018
41.89,-0.166,0.878,0.228
41.9,-0.153,0.995,0.091
41.91,-0.381,0.795,-0.157
41.92,-0.27,1.31,-0.031
41.93,-0.055,0.767,0.098
41.94,-0.135,0.95,0.128
41.95,-0.313,0.882,-0.039
41.96,-0.336,1.054,-0.187
41.97,-0.176,1.103,0.032
41.98,-0.041,0.783,0.144
41.99,-0.219,0.997,0.017
42.0,-0.384,0.846,-0.126
42.01,-0.173,1.292,-0.05
42.02,-0.129,0.753,0.111
42.03,-0.104,0.907,0.151
42.04,-0.371,1.006,-0.171
42.05,-0.252,0.884,-0.139
42.06,-0.049,1.267,0.075
42.07,-0.068,0.621,0.116
42.08,-0.335,1.072,0.092
42.09,-0.29,0.916,-0.202
42.1,-0.185,0.587,0.03
42.11,-0.344,1.233,-0.211
42.12,-0.123,0.986,-0.053
42.13,-0.173,0.93,0.126
42.14,-0.054,0.94,0.145
42.15,-0.42,0.743,-0.159
42.16,-0.269,1.216,-0.096
42.17,0.033,0.946,0.062
42.18,-0.213,0.966,0.094
42.19,-0.195,0.74,0.113
42.2,-0.31,1.254,-0.228
42.21,-0.202,0.932,-0.059
42.22,-0.041,0.875,0.181
42.23,-0.111,1.012,0.037
42.24,-0.479,0.775,-0.154
42.25,-0.095,1.333,-0.071
42.26,-0.111,0.788,0.075
42.27,-0.219,0.927,0.213
42.28,-0.195,0.905,-0.047
42.29,-0.398,1.002,-0.16
42.3,-0.141,1.112,0.103
42.31,-0.044,0.83,0.118
42.32,-0.247,0.977,-0.008
42.33,-0.367,0.861,-0.11
42.34,-0.144,1.308,-0.074
42.35,-0.2,0.757,0.115
42.36,-0.12,0.896,0.205
42.37,-0.311,1.002,-0.161
42.38,-0.36,0.873,-0.129
42.39,-0.006,1.24,0.106
42.4,-0.153,0.697,0.118
42.41,-0.331,1.053,0.006
42.42,-0.223,0.91,-0.254
42.43,-0.172,1.08,-0.039
42.44,-0.186,0.885,0.217
42.45,-0.075,0.842,0.082
42.46,-0.436,1.064,-0.208
42.47,-0.15,0.915,-0.002
42.48,-0.13,1.235,0.059
42.49,-0.154,0.583,0.171
42.5,-0.233,1.116,-0.025
42.51,-0.319,0.927,-0.236
42.52,-0.2,1.063,0.066
42.53,0.016,0.837,0.117
42.54,-0.23,0.846,0.038
42.55,-0.441,1.134,-0.153
42.56,-0.048,0.962,-0.095
42.57,-0.2,1.053,0.105
42.58,-0.06,0.649,0.184
42.59,-0.395,1.192,-0.191
42.6,-0.321,0.784,-0.16
42.61,-0.045,1.201,0.092
42.62,-0.132,0.825,0.102
42.63,-0.277,0.798,0.055
42.64,-0.326,1.204,-0.236
42.65,-0.017,0.838,-0.066
42.66,-0.236,1.185,0.206
42.67,-0.065,0.631,0.101
42.68,-0.458,1.122,-0.197
42.69,-0.154,0.999,-0.031
42.7,-0.145,1.117,0.066
42.71,-0.176,0.811,0.12
42.72,-0.15,0.814,-0.041
42.73,-0.401,1.271,-0.216
42.74,-0.1,0.805,0.061
42.75,-0.112,1.206,0.123
42.76,-0.171,0.635,0.051
42.77,-0.405,1.123,-0.164
42.78,-0.125,1.1,-0.117
42.79,-0.128,0.876,0.088
42.8,-0.165,1.002,0.217
42.81,-0.294,0.756,-0.145
42.82,-0.342,1.193,-0.113
42.83,-0.063,0.944,0.125
42.84,-0.138,1.038,0.115
42.85,-0.247,0.724,0.063
42.86,-0.341,1.183,-0.173
42.87,-0.137,1.085,-0.049
42.88,-0.248,0.779,0.17
42.89,-0.075,1.039,0.1
42.9,-0.344,0.752,-0.204
42.91,-0.286,1.275,-0.056
42.92,0.04,0.893,0.043
42.93,-0.156,0.852,0.097
42.94,-0.181,0.881,0.046
42.95,-0.367,1.075,-0.269
42.96,-0.069,1.044,-0.063
42.97,-0.027,0.857,0.187
42.98,-0.185,1.033,0.057
42.99,-0.383,0.758,-0.172
43.0,-0.129,1.331,-0.015
43.01,-0.14,0.852,0.092
43.02,-0.239,0.796,0.185
43.03,-0.232,1.076,-0.072
43.04,-0.306,0.88,-0.215
43.05,-0.148,1.216,0.11
43.06,-0.039,0.725,0.135
43.07,-0.212,1.022,0.009
43.08,-0.396,0.934,-0.133
43.09,-0.171,1.19,-0.067
43.1,-0.195,0.75,0.18
43.11,-0.121,0.951,0.116
43.12,-0.367,0.988,-0.202
43.13,-0.202,0.954,-0.064
43.14,-0.089,1.183,0.091
43.15,-0.093,0.616,0.153
43.16,-0.336,1.146,0.045
43.17,-0.33,0.866,-0.226
43.18,-0.137,1.131,0.024
43.19,-0.08,0.911,0.134
43.2,-0.166,0.826,0.086
43.21,-0.403,1.06,-0.191
43.22,-0.097,0.97,-0.105
43.23,-0.039,1.134,0.057
43.24,-0.083,0.667,0.169
43.25,-0.397,1.122,-0.038
43.26,-0.242,0.874,-0.192
43.27,-0.189,1.183,0.138
43.28,-0.142,0.918,0.133
43.29,-0.161,0.757,0.006
43.3,-0.478,1.24,-0.157
43.31,-0.081,0.842,-0.035
43.32,-0.177,1.153,0.135
43.33,-0.063,0.709,0.158
43.34,-0.454,1.146,-0.218
43.35,-0.14,0.918,-0.021
43.36,-0.222,1.224,0.128
43.37,-0.113,0.718,0.128
43.38,-0.219,0.938,0.006
43.39,-0.414,1.124,-0.256
43.4,-0.052,0.828,0.009
43.41,-0.158,1.269,0.158
43.42,-0.085,0.612,0.062
43.43,-0.473,1.202,-0.184
43.44,-0.023,0.994,-0.083
43.45,-0.214,0.991,0.07
43.46,-0.153,0.865,0.225
43.47,-0.344,0.825,-0.135
43.48,-0.326,1.116,-0.186
43.49,-0.063,0.989,0.142
43.5,-0.165,1.11,0.071
43.51,-0.12,0.612,-0.009
43.52,-0.388,1.285,-0.145
43.53,-0.135,1.001,-0.074
43.54,-0.166,0.882,0.132
43.55,-0.087,0.973,0.15
43.56,-0.427,0.759,-0.187
43.57,-0.251,1.161,-0.091
43.58,-0.005,0.966,0.077
43.59,-0.193,0.958,0.113
43.6,-0.228,0.798,0.012
43.61,-0.359,1.206,-0.225
43.62,-0.159,0.953,0.009
43.63,-0.082,0.911,0.254
43.64,-0.194,0.978,0.029
43.65,-0.415,0.782,-0.212
43.66,-0.07,1.36,-0.032
43.67,-0.146,0.768,0.079
43.68,-0.235,0.92,0.193
43.69,-0.226,0.888,-0.085
43.7,-0.34,1.026,-0.178
43.71,-0.089,1.166,0.102
43.72,-0.089,0.756,0.128
43.73,-0.223,0.999,0.009
43.74,-0.336,0.914,-0.119
43.75,-0.222,1.304,-0.013
43.76,-0.148,0.71,0.104
43.77,-0.103,0.944,0.17
43.78,-0.399,1.008,-0.196
43.79,-0.288,0.949,-0.092
43.8,-0.033,1.231,0.072
43.81,-0.147,0.577,0.115
43.82,-0.218,1.123,0.017
43.83,-0.318,0.929,-0.231
43.84,-0.23,1.09,0.037
43.85,-0.063,0.901,0.142
43.86,-0.154,0.82,0.104
43.87,-0.446,1.11,-0.208
43.88,-0.146,0.911,-0.04
43.89,-0.195,1.166,0.06
43.9,-0.135,0.62,0.199
43.91,-0.288,1.152,-0.032
43.92,-0.363,0.866,-0.217
43.93,-0.161,1.066,0.092
43.94,-0.057,1.043,0.123
43.95,-0.257,0.676,-0.039
43.96,-0.473,1.224,-0.121
43.97,-0.034,0.88,-0.03
43.98,-0.297,1.135,0.098
43.99,0.002,0.691,0.154
44.0,-0.41,1.061,-0.201
44.01,-0.352,0.939,-0.067
44.02,-0.006,1.136,0.079
44.03,-0.136,0.924,0.057
44.04,-0.198,0.685,0.04
44.05,-0.439,1.368,-0.188
44.06,-0.072,0.776,-0.037
44.07,-0.159,1.167,0.173
44.08,-0.087,0.706,0.116
44.09,-0.477,1.049,-0.153
44.1,-0.19,1.153,-0.088
44.11,-0.08,0.861,0.053
44.12,-0.205,1.025,0.116
44.13,-0.149,0.683,-0.06
44.14,-0.458,1.255,-0.196
44.15,-0.124,0.864,0.113
44.16,-0.162,1.156,0.108
44.17,-0.14,0.634,0.01
44.18,-0.419,1.256,-0.161
44.19,-0.05,0.995,-0.109
44.2,-0.205,0.902,0.139
44.21,-0.095,1.001,0.119
44.22,-0.36,0.729,-0.2
44.23,-0.274,1.224,-0.058
44.24,0.002,0.945,0.078
44.25,-0.246,0.957,0.115
44.26,-0.149,0.767,0.04
44.27,-0.374,1.219,-0.234
44.28,-0.098,0.961,-0.069
44.29,-0.093,0.853,0.267
44.3,-0.232,1.004,0.082
44.31,-0.454,0.729,-0.181
44.32,-0.101,1.356,-0.057
44.33,-0.099,0.799,0.084
44.34,-0.233,0.888,0.207
44.35,-0.186,0.916,-0.045
44.36,-0.385,1.004,-0.235
44.37,-0.04,1.125,0.075
44.38,-0.046,0.775,0.132
44.39,-0.359,1.032,0.053
44.4,-0.267,0.874,-0.174
44.41,-0.24,1.232,-0.079
44.42,-0.161,0.749,0.164
44.43,-0.055,0.931,0.121
44.44,-0.372,0.913,-0.184
44.45,-0.291,0.884,-0.013
44.46,-0.017,1.332,0.063
44.47,-0.192,0.565,0.09
44.48,-0.152,1.06,0.053
44.49,-0.283,1.008,-0.284
44.5,-0.162,1.032,-0.055
44.51,-0.154,0.891,0.201
44.52,-0.128,0.805,0.044
44.53,-0.437,1.066,-0.237
44.54,-0.089,0.904,-0.014
44.55,-0.11,1.252,0.073
44.56,-0.189,0.569,0.144
44.57,-0.137,1.118,-0.035
44.58,-0.343,0.999,-0.261
44.59,-0.264,0.992,0.128
44.6,-0.002,1.037,0.137
44.61,-0.249,0.669,-0.037
44.62,-0.425,1.236,-0.104
44.63,-0.069,0.912,-0.09
44.64,-0.249,1.106,0.085
44.65,-0.022,0.728,0.219
44.66,-0.369,1.06,-0.143
44.67,-0.385,0.935,-0.147
44.68,0.016,1.065,0.089
44.69,-0.168,0.981,0.092
44.7,-0.262,0.679,0.059
44.71,-0.358,1.392,-0.24
44.72,-0.131,0.792,-0.014
44.73,-0.296,1.13,0.246
44.74,-0.032,0.735,0.081
44.75,-0.489,0.984,-0.231
44.76,-0.179,1.165,-0.03
44.77,-0.082,0.931,0.099
44.78,-0.268,0.946,0.14
44.79,-0.123,0.744,-0.003
44.8,-0.442,1.349,-0.229
44.81,-0.194,0.82,0.044
44.82,-0.044,1.112,0.115
44.83,-0.181,0.767,0.045
44.84,-0.447,0.957,-0.109
44.85,-0.08,1.269,-0.096
44.86,-0.076,0.755,0.081
44.87,-0.183,1.068,0.19
44.88,-0.266,0.733,-0.109
44.89,-0.36,1.172,-0.161
44.9,-0.085,0.979,0.103
44.91,-0.17,0.905,0.137
44.92,-0.204,0.922,0.0
44.93,-0.37,0.996,-0.173
44.94,-0.18,1.185,-0.053
44.95,-0.147,0.715,0.112
44.96,-0.11,1.08,0.176
44.97,-0.352,0.76,-0.199
44.98,-0.2,1.282,-0.046
44.99,-0.14,0.871,0.082
45.0,-0.188,0.823,0.113
45.01,-0.16,0.937,0.018
45.02,-0.408,1.053,-0.227
45.03,-0.143,1.051,0.025
45.04,-0.004,0.869,0.128
45.05,-0.202,0.987,0.022
45.06,-0.371,0.793,-0.13
45.07,-0.086,1.282,-0.091
45.08,-0.149,0.799,0.072
45.09,-0.18,0.872,0.205
45.1,-0.274,1.016,-0.131
45.11,-0.38,0.844,-0.144
45.12,-0.024,1.299,0.15
45.13,-0.161,0.687,0.138
45.14,-0.338,0.99,0.096
45.15,-0.301,0.99,-0.183
45.16,-0.229,1.114,-0.011
45.17,-0.168,0.903,0.162
45.18,-0.027,0.813,0.13
45.19,-0.448,1.084,-0.207
45.2,-0.173,0.838,-0.109
45.21,-0.055,1.334,0.058
45.22,-0.131,0.597,0.085
45.23,-0.263,1.05,0.039
45.24,-0.294,1.047,-0.26
45.25,-0.146,0.942,0.004
45.26,-0.143,1.01,0.174
45.27,-0.044,0.716,0.052
45.28,-0.476,1.203,-0.223
45.29,-0.113,0.866,-0.013
45.3,-0.154,1.228,0.102
45.31,-0.246,0.696,0.154
45.32,-0.252,1.024,-0.11
45.33,-0.274,1.055,-0.246
45.34,-0.125,1.008,0.162
45.35,-0.109,1.066,0.132
45.36,-0.265,0.603,0.001
45.37,-0.366,1.297,-0.18
45.38,-0.064,0.886,-0.073
45.39,-0.258,1.098,0.156
45.4,-0.011,0.792,0.104
45.41,-0.4,0.991,-0.19
45.42,-0.292,1.147,-0.027
45.43,-0.012,0.941,0.074
45.44,-0.203,0.953,0.152
45.45,-0.232,0.659,0.052
45.46,-0.312,1.329,-0.25
45.47,-0.12,0.868,0.023
45.48,-0.147,1.072,0.158
45.49,-0.067,0.792,0.049
45.5,-0.407,0.969,-0.136
45.51,-0.125,1.295,-0.097
45.52,-0.052,0.757,0.082
45.53,-0.201,1.063,0.229
45.54,-0.302,0.714,-0.088
45.55,-0.415,1.15,-0.153
45.56,-0.047,1.003,0.073
45.57,-0.094,0.929,0.11
45.58,-0.232,0.891,0.019
45.59,-0.348,0.98,-0.148
45.6,-0.164,1.24,-0.078
45.61,-0.12,0.708,0.152
45.62,-0.123,1.085,0.173
45.63,-0.415,0.761,-0.161
45.64,-0.279,1.113,-0.119
45.65,0.036,1.067,0.042
45.66,-0.226,0.72,0.126
45.67,-0.284,1.035,0.048
45.68,-0.285,0.948,-0.219
45.69,-0.19,1.152,-0.018
45.7,-0.017,0.766,0.194
45.71,-0.163,0.991,0.023
45.72,-0.421,0.904,-0.192
45.73,-0.12,1.116,-0.053
45.74,-0.082,1.02,0.045
45.75,-0.264,0.702,0.236
45.76,-0.252,1.138,-0.111
45.77,-0.324,0.818,-0.22
45.78,-0.134,1.239,0.146
45.79,-0.057,0.655,0.095
45.8,-0.309,0.996,0.053
45.81,-0.329,1.005,-0.197
45.82,-0.146,1.03,-0.067
45.83,-0.101,0.796,0.196
45.84,-0.164,0.938,0.086
45.85,-0.468,0.977,-0.211
45.86,-0.053,0.974,-0.055
45.87,-0.132,1.181,0.088
45.88,-0.174,0.611,0.165
45.89,-0.251,1.127,-0.083
45.9,-0.307,0.829,-0.196
45.91,-0.167,1.208,0.111
45.92,-0.102,0.874,0.141
45.93,-0.194,0.812,0.04
45.94,-0.52,1.164,-0.152
45.95,-0.084,0.863,-0.078
45.96,-0.179,1.154,0.107
45.97,-0.063,0.696,0.131
45.98,-0.355,1.129,-0.2
45.99,-0.266,0.869,-0.114
46.0,0.028,1.215,0.09
46.01,-0.152,0.857,0.084
46.02,-0.304,0.748,0.074
46.03,-0.366,1.279,-0.255
46.04,-0.099,0.803,0.009
46.05,-0.223,1.196,0.194
46.06,-0.041,0.675,0.072
46.07,-0.536,1.119,-0.205
46.08,-0.085,1.042,-0.027
46.09,-0.103,1.031,0.095
46.1,-0.235,0.901,0.147
46.11,-0.217,0.807,-0.03
46.12,-0.366,1.286,-0.196
46.13,-0.265,0.811,0.129
46.14,-0.058,1.159,0.129
46.15,-0.139,0.662,-0.015
46.16,-0.53,1.109,-0.121
46.17,-0.004,1.081,-0.08
46.18,-0.21,0.869,0.103
46.19,-0.161,0.992,0.177
46.2,-0.284,0.762,-0.185
46.21,-0.382,1.245,-0.124
46.22,0.061,0.885,0.104
46.23,-0.208,0.99,0.115
46.24,-0.319,0.754,0.029
46.25,-0.26,1.112,-0.21
46.26,-0.116,1.132,0.02
46.27,-0.184,0.748,0.175
46.28,-0.128,1.048,0.044
46.29,-0.334,0.803,-0.225
46.3,-0.167,1.283,-0.077
46.31,-0.005,0.832,0.136
46.32,-0.294,0.934,0.164
46.33,-0.232,0.921,-0.089
46.34,-0.326,0.964,-0.161
46.35,-0.119,1.214,0.077
46.36,-0.058,0.737,0.149
46.37,-0.227,1.014,-0.038
46.38,-0.342,0.896,-0.172
46.39,-0.138,1.177,-0.025
46.4,-0.177,0.792,0.145
46.41,-0.068,0.86,0.118
46.42,-0.369,1.098,-0.182
46.43,-0.307,0.88,-0.112
46.44,0.002,1.266,0.088
46.45,-0.114,0.639,0.112
46.46,-0.343,1.048,0.001
46.47,-0.233,0.956,-0.229
46.48,-0.121,1.086,-0.001
46.49,-0.1,0.951,0.164
46.5,-0.105,0.763,0.041
46.51,-0.548,1.211,-0.178
46.52,-0.014,0.921,-0.09
46.53,-0.137,1.19,0.029
46.54,-0.161,0.652,0.185
46.55,-0.289,1.083,-0.115
46.56,-0.293,0.963,-0.175
46.57,-0.062,1.071,0.15
46.58,-0.108,1.0,0.108
46.59,-0.247,0.651,0.0
46.6,-0.41,1.333,-0.211
46.61,-0.118,0.875,0.007
46.62,-0.238,1.183,0.169
46.63,-0.009,0.659,0.065
46.64,-0.479,1.173,-0.234
46.65,-0.081,0.944,-0.019
46.66,-0.084,1.103,0.119
46.67,-0.258,0.809,0.171
46.68,-0.212,0.822,-0.057
46.69,-0.298,1.228,-0.23
46.7,-0.121,0.881,0.119
46.71,-0.119,1.115,0.107
46.72,-0.235,0.63,-0.005
46.73,-0.461,1.248,-0.148
46.74,-0.064,0.994,-0.079
46.75,-0.213,0.917,0.14
46.76,-0.067,0.983,0.18
46.77,-0.378,0.796,-0.203
46.78,-0.351,1.224,-0.067
46.79,0.043,0.901,0.091
46.8,-0.181,1.016,0.094
46.81,-0.289,0.761,-0.009
46.82,-0.361,1.13,-0.227
46.83,-0.104,1.054,-0.02
46.84,-0.087,0.907,0.179
46.85,-0.116,0.959,0.02
46.86,-0.443,0.844,-0.144
46.87,-0.123,1.336,-0.085
46.88,-0.108,0.729,0.098
46.89,-0.223,0.929,0.171
46.9,-0.242,0.897,-0.136
46.91,-0.38,1.017,-0.157
46.92,-0.181,1.119,0.132
46.93,-0.074,0.744,0.109
46.94,-0.289,0.994,-0.051
46.95,-0.219,0.898,-0.228
46.96,-0.121,1.213,-0.069
46.97,-0.092,0.733,0.158
46.98,-0.075,0.901,0.082
46.99,-0.433,0.987,-0.226
47.0,-0.145,0.96,-0.058
47.01,-0.128,1.187,0.105
47.02,-0.234,0.615,0.162
47.03,-0.239,1.138,-0.028
47.04,-0.395,0.866,-0.251
47.05,-0.095,1.151,0.084
47.06,-0.018,0.894,0.129
47.07,-0.25,0.807,0.025
47.08,-0.329,1.128,-0.18
47.09,-0.081,0.954,-0.097
47.1,-0.259,1.075,0.15
47.11,-0.126,0.655,0.143
47.12,-0.373,1.166,-0.177
47.13,-0.266,0.875,-0.142
47.14,-0.103,1.178,0.158
47.15,-0.161,0.863,0.153
47.16,-0.185,0.73,-0.033
47.17,-0.345,1.276,-0.175
47.18,-0.153,0.864,0.041
47.19,-0.249,1.169,0.182
47.2,-0.053,0.682,0.115
47.21,-0.533,1.128,-0.21
47.22,-0.104,0.981,-0.059
47.23,-0.076,1.041,0.114
47.24,-0.194,0.905,0.135
47.25,-0.215,0.749,-0.026
47.26,-0.39,1.247,-0.207
47.27,-0.107,0.865,0.125
47.28,-0.094,1.151,0.11
47.29,-0.174,0.662,0.011
47.3,-0.47,1.173,-0.128
47.31,-0.047,1.109,-0.083
47.32,-0.174,0.84,0.114
47.33,-0.107,1.014,0.144
47.34,-0.323,0.731,-0.165
47.35,-0.37,1.248,-0.104
47.36,0.003,0.892,0.096
47.37,-0.165,0.938,0.069
47.38,-0.212,0.816,0.017
47.39,-0.331,1.134,-0.211
47.4,-0.215,1.061,-0.006
47.41,-0.077,0.82,0.165
47.42,-0.163,0.901,0.006
47.43,-0.441,0.891,-0.142
47.44,-0.147,1.27,-0.075
47.45,-0.11,0.698,0.087
47.46,-0.186,1.05,0.132
47.47,-0.247,0.772,-0.173
47.48,-0.272,1.093,-0.175
47.49,-0.033,1.134,0.1
47.5,-0.138,0.719,0.107
47.51,-0.261,1.024,0.047
47.52,-0.308,0.947,-0.184
47.53,-0.178,1.184,-0.023
47.54,-0.135,0.757,0.196
47.55,-0.098,1.023,0.08
47.56,-0.371,0.886,-0.206
47.57,-0.213,1.055,-0.022
47.58,-0.059,1.122,0.11
47.59,-0.218,0.659,0.16
47.6,-0.325,1.131,0.027
47.61,-0.309,0.832,-0.251
47.62,-0.192,1.198,0.069
47.63,-0.025,0.833,0.149
47.64,-0.23,0.906,-0.028
47.65,-0.425,1.029,-0.185
47.66,-0.048,0.974,-0.14
47.67,-0.097,1.033,0.078
47.68,-0.153,0.677,0.208
47.69,-0.389,1.176,-0.152
47.7,-0.3,0.845,-0.115
47.71,-0.061,1.26,0.096
47.72,-0.072,0.737,0.107
47.73,-0.212,0.88,0.033
47.74,-0.393,1.228,-0.239
47.75,-0.032,0.822,-0.023
47.76,-0.198,1.193,0.193
47.77,-0.099,0.612,0.092
47.78,-0.442,1.181,-0.181
47.79,-0.195,0.956,-0.039
47.8,-0.068,1.06,0.094
47.81,-0.206,0.837,0.13
47.82,-0.265,0.867,-0.075
47.83,-0.331,1.221,-0.187
47.84,-0.116,0.88,0.089
47.85,-0.135,1.153,0.145
47.86,-0.172,0.627,-0.005
47.87,-0.482,1.217,-0.154
47.88,-0.086,1.0,-0.077
47.89,-0.155,0.912,0.116
47.9,-0.111,0.958,0.112
47.91,-0.343,0.815,-0.161
47.92,-0.302,1.245,-0.07
47.93,0.066,0.887,0.09
47.94,-0.213,0.999,0.113
47.95,-0.159,0.734,-0.001
47.96,-0.367,1.26,-0.218
47.97,-0.208,0.965,-0.019
47.98,-0.014,0.918,0.196
47.99,-0.207,1.003,0.037
48.0,-0.38,0.785,-0.196
48.01,-0.12,1.305,-0.076
48.02,-0.113,0.761,0.129
48.03,-0.229,0.974,0.17
48.04,-0.226,0.833,-0.114
48.05,-0.378,1.048,-0.164
48.06,-0.024,1.14,0.051
48.07,-0.052,0.727,0.113
48.08,-0.282,1.038,0.015
48.09,-0.341,0.914,-0.149
48.1,-0.183,1.153,-0.053
48.11,-0.17,0.762,0.189
48.12,-0.123,0.952,0.105
48.13,-0.368,0.92,-0.184
48.14,-0.245,0.986,-0.041
48.15,-0.06,1.154,0.092
48.16,-0.193,0.611,0.152
48.17,-0.26,1.127,-0.018
48.18,-0.257,0.868,-0.246
48.19,-0.175,1.176,0.069
48.2,-0.092,0.879,0.19
48.21,-0.223,0.813,0.041
48.22,-0.44,1.091,-0.17
48.23,-0.083,0.961,-0.088
48.24,-0.21,0.914,0.064
48.25,-0.069,0.749,0.2
48.26,-0.453,1.153,-0.16
48.27,-0.21,0.809,-0.115
48.28,-0.087,1.312,0.099
48.29,-0.143,0.641,0.12
48.3,-0.246,0.99,0.004
48.31,-0.289,1.084,-0.233
48.32,-0.128,0.931,0.02
48.33,-0.187,1.096,0.182
48.34,-0.096,0.676,0.075
48.35,-0.458,1.226,-0.176
48.36,-0.113,0.915,-0.012
48.37,-0.182,1.121,0.111
