t,ax,ay,az
0.0,-0.365,1.017,-0.201
0.01,-0.121,0.93,0.048
0.02,-0.081,1.133,0.118
0.03,-0.1,0.625,0.032
0.04,-0.449,1.267,-0.193
0.05,-0.104,0.895,-0.057
0.06,-0.208,1.104,0.104
0.07,-0.135,0.757,0.208
0.08,-0.299,0.982,-0.126
0.09,-0.28,1.085,-0.17
0.1,-0.118,0.951,0.136
0.11,-0.141,1.111,0.141
0.12,-0.198,0.594,0.025
0.13,-0.4,1.344,-0.159
0.14,-0.081,0.925,-0.052
0.15,-0.217,1.105,0.145
0.16,-0.037,0.776,0.11
0.17,-0.467,0.992,-0.214
0.18,-0.186,0.977,-0.087
0.19,-0.026,1.056,0.088
0.2,-0.221,0.963,0.096
0.21,-0.182,0.67,0.038
0.22,-0.328,1.381,-0.22
0.23,-0.161,0.809,0.023
0.24,-0.203,1.098,0.196
0.25,-0.083,0.802,0.066
0.26,-0.49,0.945,-0.165
0.27,-0.221,1.162,-0.007
0.28,-0.113,0.903,0.082
0.29,-0.215,1.004,0.181
0.3,-0.206,0.74,-0.044
0.31,-0.371,1.262,-0.178
0.32,-0.146,0.911,0.054
0.33,-0.062,1.06,0.133
0.34,-0.126,0.832,0.009
0.35,-0.492,0.934,-0.135
0.36,-0.136,1.245,-0.081
0.37,-0.041,0.744,0.014
0.38,-0.196,1.059,0.211
0.39,-0.227,0.787,-0.136
0.4,-0.292,1.087,-0.191
0.41,-0.092,1.079,0.134
0.42,-0.144,0.862,0.12
0.43,-0.24,0.924,0.016
0.44,-0.316,0.971,-0.174
0.45,-0.216,1.232,-0.054
0.46,-0.139,0.669,0.142
0.47,-0.158,1.053,0.16
0.48,-0.331,0.844,-0.165
0.49,-0.204,1.023,-0.115
0.5,-0.013,1.173,0.041
0.51,-0.156,0.671,0.107
0.52,-0.304,1.031,0.009
0.53,-0.283,0.94,-0.191
0.54,-0.103,1.194,-0.063
0.55,-0.207,0.756,0.188
0.56,-0.081,0.982,0.097
0.57,-0.375,0.968,-0.176
0.58,-0.254,0.968,-0.024
0.59,-0.036,1.187,0.036
0.6,-0.158,0.667,0.127
0.61,-0.311,1.115,-0.003
0.62,-0.242,0.941,-0.239
0.63,-0.167,1.128,0.022
0.64,-0.177,0.822,0.185
0.65,-0.134,0.895,0.085
0.66,-0.434,1.087,-0.218
0.67,-0.152,0.888,-0.041
0.68,-0.076,1.189,0.058
0.69,-0.191,0.631,0.169
0.7,-0.262,1.126,-0.113
0.71,-0.238,0.893,-0.193
0.72,-0.217,1.115,0.099
0.73,-0.071,0.911,0.132
0.74,-0.124,0.777,0.031
0.75,-0.494,1.267,-0.169
0.76,-0.126,0.791,-0.09
0.77,-0.161,1.196,0.084
0.78,-0.162,0.753,0.175
0.79,-0.417,1.054,-0.115
0.8,-0.207,0.869,-0.172
0.81,-0.147,1.104,0.092
0.82,-0.113,1.0,0.099
0.83,-0.201,0.687,0.034
0.84,-0.427,1.296,-0.181
0.85,-0.101,0.861,-0.042
0.86,-0.261,1.091,0.125
0.87,-0.006,0.72,0.132
0.88,-0.42,1.02,-0.19
0.89,-0.197,0.98,-0.129
0.9,-0.132,1.046,0.098
0.91,-0.078,1.046,0.094
0.92,-0.239,0.624,-0.006
0.93,-0.357,1.321,-0.164
0.94,-0.1,0.896,-0.022
0.95,-0.231,1.014,0.137
0.96,-0.077,0.685,0.116
0.97,-0.48,1.108,-0.2
0.98,-0.16,0.934,-0.079
0.99,0.006,1.078,0.088
1.0,-0.171,0.913,0.104
1.01,-0.321,0.707,-0.045
1.02,-0.266,1.299,-0.185
1.03,-0.119,0.843,0.04
1.04,-0.193,1.106,0.167
1.05,-0.1,0.752,0.058
1.06,-0.494,1.044,-0.192
1.07,-0.145,1.056,-0.015
1.08,-0.087,0.9,0.077
1.09,-0.213,0.999,0.138
1.1,-0.257,0.772,-0.051
1.11,-0.351,1.231,-0.161
1.12,-0.113,0.874,0.116
1.13,-0.092,1.076,0.126
1.14,-0.18,0.774,-0.011
1.15,-0.467,0.996,-0.113
1.16,-0.096,1.193,-0.04
1.17,-0.221,0.705,0.15
1.18,-0.166,1.069,0.172
1.19,-0.314,0.838,-0.191
1.2,-0.307,1.128,-0.106
1.21,-0.046,1.025,0.137
1.22,-0.133,0.839,0.092
1.23,-0.284,0.888,0.016
1.24,-0.288,1.058,-0.144
1.25,-0.149,1.19,-0.1
1.26,-0.21,0.651,0.206
1.27,-0.036,1.078,0.071
1.28,-0.348,0.838,-0.233
1.29,-0.249,1.05,-0.017
1.3,-0.014,1.024,0.062
1.31,-0.183,0.744,0.114
1.32,-0.254,1.084,-0.025
1.33,-0.292,0.912,-0.234
1.34,-0.183,1.163,0.032
1.35,-0.09,0.815,0.199
1.36,-0.183,0.985,0.017
1.37,-0.386,0.922,-0.174
1.38,-0.092,1.099,-0.049
1.39,-0.212,1.015,0.115
1.4,-0.176,0.676,0.215
1.41,-0.377,1.177,-0.106
1.42,-0.251,0.788,-0.183
1.43,-0.007,1.297,0.079
1.44,-0.134,0.773,0.13
1.45,-0.182,0.892,0.062
1.46,-0.4,1.151,-0.169
1.47,-0.161,0.894,-0.061
1.48,-0.162,1.039,0.132
1.49,-0.132,0.718,0.154
1.5,-0.485,1.146,-0.164
1.51,-0.17,0.806,-0.11
1.52,-0.122,1.284,0.136
1.53,-0.211,0.755,0.172
1.54,-0.232,0.814,0.022
1.55,-0.333,1.249,-0.226
1.56,-0.068,0.821,0.005
1.57,-0.228,1.128,0.194
1.58,-0.111,0.688,0.083
1.59,-0.519,1.164,-0.202
1.6,-0.138,0.883,-0.036
1.61,-0.094,1.14,0.112
1.62,-0.151,0.851,0.095
1.63,-0.28,0.784,-0.039
1.64,-0.345,1.264,-0.199
1.65,-0.075,0.796,0.005
1.66,-0.088,1.191,0.155
1.67,-0.182,0.687,0.069
1.68,-0.496,1.083,-0.174
1.69,-0.074,1.064,-0.038
1.7,-0.173,0.928,0.106
1.71,-0.117,0.953,0.163
1.72,-0.364,0.77,-0.115
1.73,-0.295,1.201,-0.142
1.74,-0.038,0.885,0.079
1.75,-0.176,1.055,0.134
1.76,-0.217,0.722,0.04
1.77,-0.341,1.303,-0.202
1.78,-0.126,0.925,-0.032
1.79,-0.175,0.924,0.194
1.8,-0.082,0.978,0.093
1.81,-0.435,0.809,-0.203
1.82,-0.282,1.178,-0.062
1.83,-0.011,0.885,0.078
1.84,-0.132,1.005,0.085
1.85,-0.246,0.74,-0.022
1.86,-0.334,1.194,-0.166
1.87,-0.156,1.025,0.052
1.88,-0.127,0.853,0.147
1.89,-0.171,0.959,0.007
1.9,-0.398,0.879,-0.155
1.91,-0.204,1.251,-0.059
1.92,-0.015,0.701,0.035
1.93,-0.101,1.023,0.121
1.94,-0.352,0.869,-0.137
1.95,-0.277,0.976,-0.125
1.96,-0.096,1.205,0.082
1.97,-0.153,0.713,0.139
1.98,-0.254,1.038,0.021
1.99,-0.454,0.897,-0.175
2.0,-0.063,1.178,-0.033
2.01,-0.148,0.815,0.124
2.02,-0.185,0.93,0.102
2.03,-0.325,0.962,-0.179
2.04,-0.228,0.969,-0.049
2.05,-0.104,1.183,0.072
2.06,-0.052,0.621,0.129
2.07,-0.397,1.121,-0.01
2.08,-0.324,0.907,-0.181
2.09,-0.069,1.093,-0.013
2.1,-0.14,0.931,0.145
2.11,-0.138,0.823,0.08
2.12,-0.404,1.095,-0.211
2.13,-0.087,0.915,-0.025
2.14,-0.132,1.146,0.097
2.15,-0.136,0.629,0.172
2.16,-0.4,1.157,-0.093
2.17,-0.25,0.924,-0.164
2.18,-0.21,1.125,0.105
2.19,-0.135,0.935,0.111
2.2,-0.134,0.751,-0.036
2.21,-0.435,1.294,-0.182
2.22,-0.109,0.824,-0.002
2.23,-0.233,1.125,0.177
2.24,-0.088,0.733,0.135
2.25,-0.45,1.041,-0.155
2.26,-0.27,0.973,-0.073
2.27,-0.037,1.055,0.062
2.28,-0.126,0.945,0.111
2.29,-0.289,0.737,0.007
2.3,-0.453,1.263,-0.187
2.31,-0.088,0.814,0.004
2.32,-0.094,1.197,0.115
2.33,-0.135,0.705,0.048
2.34,-0.405,1.0,-0.14
2.35,-0.09,1.163,-0.103
2.36,-0.11,0.844,0.087
2.37,-0.161,1.024,0.15
2.38,-0.282,0.731,-0.113
2.39,-0.366,1.243,-0.141
2.4,-0.083,0.941,0.038
2.41,-0.105,1.053,0.156
2.42,-0.151,0.79,-0.004
2.43,-0.419,1.001,-0.143
2.44,-0.077,1.195,-0.047
2.45,-0.081,0.719,0.166
2.46,-0.16,1.101,0.128
2.47,-0.349,0.77,-0.171
2.48,-0.256,1.165,-0.122
2.49,-0.074,1.032,0.096
2.5,-0.147,0.815,0.125
2.51,-0.241,0.97,-0.008
2.52,-0.277,1.01,-0.161
2.53,-0.184,1.173,0.002
2.54,-0.091,0.709,0.188
2.55,-0.219,1.047,0.109
2.56,-0.378,0.815,-0.213
2.57,-0.152,1.126,-0.086
2.58,-0.098,1.029,0.062
2.59,-0.106,0.888,0.146
2.6,-0.344,0.955,-0.046
2.61,-0.368,0.957,-0.145
2.62,-0.044,1.169,0.076
2.63,-0.062,0.735,0.096
2.64,-0.298,1.026,-0.025
2.65,-0.312,0.896,-0.155
2.66,-0.098,1.221,-0.028
2.67,-0.146,0.791,0.099
2.68,-0.067,0.858,0.115
2.69,-0.442,1.119,-0.179
2.7,-0.264,0.88,-0.017
2.71,-0.002,1.281,0.08
2.72,-0.122,0.619,0.082
2.73,-0.318,1.069,-0.031
2.74,-0.257,0.948,-0.223
2.75,-0.136,1.059,0.045
2.76,-0.091,0.967,0.13
2.77,-0.167,0.723,0.014
2.78,-0.466,1.202,-0.161
2.79,-0.084,0.891,-0.048
2.8,-0.177,1.137,0.092
2.81,-0.112,0.688,0.166
2.82,-0.377,1.096,-0.108
2.83,-0.273,0.964,-0.167
2.84,-0.445,0.864,-0.19
2.85,-0.146,1.045,-0.042
2.86,-0.069,0.962,0.137
2.87,-0.244,0.99,0.116
2.88,-0.21,0.71,-0.081
2.89,-0.323,1.3,-0.16
2.9,-0.149,0.897,0.086
2.91,-0.119,1.026,0.12
2.92,-0.164,0.802,-0.015
2.93,-0.428,1.016,-0.138
2.94,-0.08,1.187,-0.052
2.95,-0.155,0.761,0.165
2.96,-0.113,1.057,0.134
2.97,-0.343,0.783,-0.215
2.98,-0.274,1.178,-0.081
2.99,-0.002,1.03,0.088
3.0,-0.183,0.835,0.101
3.01,-0.252,0.949,0.016
3.02,-0.33,1.003,-0.166
3.03,-0.152,1.157,-0.002
3.04,-0.139,0.711,0.18
3.05,-0.11,1.057,0.054
3.06,-0.372,0.881,-0.235
3.07,-0.09,1.108,-0.023
3.08,-0.129,0.979,0.09
3.09,-0.188,0.761,0.192
3.1,-0.315,1.119,-0.082
3.11,-0.336,0.89,-0.166
3.12,-0.089,1.234,0.088
3.13,-0.066,0.759,0.125
3.14,-0.326,0.944,0.052
3.15,-0.369,1.058,-0.178
3.16,-0.033,1.05,-0.086
3.17,-0.206,0.921,0.131
3.18,-0.06,0.746,0.164
3.19,-0.49,1.193,-0.21
3.2,-0.229,0.749,-0.08
3.21,0.013,1.28,0.083
3.22,-0.198,0.698,0.133
3.23,-0.313,0.927,0.039
3.24,-0.26,1.142,-0.245
3.25,-0.156,0.876,0.009
3.26,-0.017,1.103,0.156
3.27,-0.091,0.634,0.023
3.28,-0.578,1.256,-0.183
3.29,0.012,0.886,-0.076
3.3,-0.154,1.097,0.077
3.31,-0.231,0.81,0.241
3.32,-0.334,0.91,-0.136
3.33,-0.32,0.946,-0.086
3.34,0.061,1.057,0.066
3.35,-0.147,0.944,0.076
3.36,-0.294,0.73,0.021
3.37,-0.334,1.324,-0.174
3.38,-0.149,0.781,0.005
3.39,-0.131,1.129,0.163
3.4,-0.031,0.758,0.026
3.41,-0.573,1.061,-0.128
3.42,-0.084,1.122,-0.077
3.43,-0.109,0.854,0.108
3.44,-0.209,1.026,0.23
3.45,-0.255,0.744,-0.165
3.46,-0.33,1.23,-0.133
3.47,-0.087,0.971,0.095
3.48,-0.142,0.96,0.099
3.49,-0.157,0.807,0.001
3.5,-0.39,1.11,-0.147
3.51,-0.131,1.167,0.004
3.52,-0.183,0.734,0.143
3.53,-0.144,1.06,0.15
3.54,-0.372,0.783,-0.173
3.55,-0.246,1.174,-0.105
3.56,-0.013,0.938,0.057
3.57,-0.211,0.815,0.138
3.58,-0.272,0.964,0.018
3.59,-0.352,0.974,-0.199
3.6,-0.144,1.208,0.062
3.61,-0.044,0.764,0.156
3.62,-0.216,0.975,0.035
3.63,-0.446,0.864,-0.147
3.64,-0.127,1.19,-0.018
3.65,-0.101,0.909,0.095
3.66,-0.22,0.761,0.138
3.67,-0.305,1.163,-0.126
3.68,-0.274,0.803,-0.154
3.69,-0.149,1.258,0.131
3.7,0.036,0.727,0.146
3.71,-0.406,0.982,0.011
3.72,-0.374,1.004,-0.128
3.73,-0.118,1.071,-0.001
3.74,-0.279,0.902,0.161
3.75,-0.056,0.735,0.093
3.76,-0.469,1.251,-0.246
3.77,-0.186,0.799,0.028
3.78,-0.093,1.286,0.14
3.79,-0.191,0.668,0.118
3.8,-0.307,0.957,-0.052
3.81,-0.229,1.16,-0.18
3.82,-0.24,0.943,0.1
3.83,-0.176,1.054,0.158
3.84,-0.082,0.655,-0.011
3.85,-0.584,1.315,-0.143
3.86,-0.041,0.866,-0.033
3.87,-0.13,1.141,0.086
3.88,-0.151,0.798,0.145
3.89,-0.367,0.895,-0.164
3.9,-0.227,1.163,-0.144
3.91,-0.011,0.948,0.093
3.92,-0.136,1.052,0.105
3.93,-0.237,0.65,-0.045
3.94,-0.358,1.284,-0.22
3.95,0.015,0.914,-0.007
3.96,-0.226,1.006,0.191
3.97,-0.173,0.859,0.069
3.98,-0.42,0.876,-0.209
3.99,-0.107,1.298,-0.075
4.0,-0.062,0.757,0.061
4.01,-0.22,1.014,0.197
4.02,-0.271,0.784,-0.131
4.03,-0.293,1.112,-0.202
4.04,-0.015,1.034,0.117
4.05,-0.106,0.867,0.122
4.06,-0.278,0.932,-0.005
4.07,-0.325,0.938,-0.165
4.08,-0.122,1.239,-0.06
4.09,-0.155,0.709,0.192
4.1,-0.102,1.052,0.135
4.11,-0.391,0.864,-0.196
4.12,-0.242,1.034,-0.05
4.13,-0.034,1.135,0.084
4.14,-0.171,0.641,0.147
4.15,-0.259,1.018,-0.059
4.16,-0.443,0.865,-0.18
4.17,-0.082,1.218,0.069
4.18,-0.098,0.773,0.137
4.19,-0.283,0.979,0.026
4.2,-0.365,0.915,-0.148
4.21,-0.123,1.162,-0.036
4.22,-0.188,0.828,0.097
4.23,-0.158,0.785,0.165
4.24,-0.353,1.158,-0.201
4.25,-0.294,0.813,-0.092
4.26,-0.073,1.314,0.121
4.27,-0.139,0.706,0.118
4.28,-0.323,0.981,0.052
4.29,-0.278,1.05,-0.213
4.3,-0.119,1.002,-0.01
4.31,-0.229,0.982,0.175
4.32,-0.033,0.717,0.057
4.33,-0.497,1.228,-0.201
4.34,-0.179,0.848,-0.018
4.35,-0.1,1.218,0.077
4.36,-0.193,0.72,0.168
4.37,-0.32,0.969,-0.025
4.38,-0.294,1.07,-0.23
4.39,-0.119,0.915,0.099
4.4,-0.146,1.14,0.119
4.41,-0.186,0.614,0.015
4.42,-0.511,1.256,-0.139
4.43,-0.057,0.943,-0.046
4.44,-0.162,1.023,0.092
4.45,-0.137,0.851,0.185
4.46,-0.362,0.929,-0.159
4.47,-0.324,1.09,-0.09
4.48,0.084,0.942,0.116
4.49,-0.226,1.06,0.119
4.5,-0.351,0.662,0.039
4.51,-0.338,1.27,-0.226
4.52,-0.136,0.915,-0.018
4.53,-0.108,1.02,0.151
4.54,-0.107,0.896,0.022
4.55,-0.442,0.892,-0.175
4.56,-0.141,1.277,-0.014
4.57,-0.114,0.754,0.093
4.58,-0.245,1.01,0.171
4.59,-0.222,0.825,-0.153
4.6,-0.366,1.101,-0.198
4.61,-0.066,1.021,0.126
4.62,-0.067,0.868,0.113
4.63,-0.343,0.955,0.028
4.64,-0.333,0.943,-0.192
4.65,-0.094,1.223,-0.022
4.66,-0.218,0.711,0.185
4.67,-0.031,0.997,0.087
4.68,-0.384,0.902,-0.245
4.69,-0.24,1.061,-0.024
4.7,-0.132,1.099,0.084
4.71,-0.229,0.644,0.163
4.72,-0.216,1.122,-0.067
4.73,-0.388,0.899,-0.141
4.74,-0.164,1.176,0.078
4.75,-0.118,0.873,0.153
4.76,-0.199,0.869,0.064
4.77,-0.422,1.069,-0.178
4.78,-0.023,0.983,-0.106
4.79,-0.211,1.026,0.105
4.8,-0.163,0.715,0.223
4.81,-0.453,1.142,-0.155
4.82,-0.26,0.772,-0.19
4.83,-0.03,1.3,0.138
4.84,-0.112,0.803,0.087
4.85,-0.319,0.798,0.038
4.86,-0.307,1.232,-0.222
4.87,-0.063,0.84,-0.062
4.88,-0.213,1.126,0.173
4.89,-0.065,0.68,0.1
4.9,-0.497,1.162,-0.21
4.91,-0.199,0.946,-0.054
4.92,0.029,1.106,0.071
4.93,-0.197,0.85,0.138
4.94,-0.211,0.82,-0.085
4.95,-0.294,1.231,-0.204
4.96,-0.068,0.97,0.102
4.97,-0.114,1.016,0.099
4.98,-0.148,0.631,0.003
4.99,-0.489,1.384,-0.179
5.0,-0.088,0.844,-0.042
5.01,-0.224,1.095,0.129
5.02,-0.081,0.82,0.134
5.03,-0.367,0.912,-0.168
5.04,-0.311,1.144,-0.112
5.05,-0.03,0.938,0.075
5.06,-0.104,1.019,0.124
5.07,-0.257,0.635,-0.01
5.08,-0.353,1.327,-0.223
5.09,-0.03,0.89,-0.021
5.1,-0.243,0.983,0.175
5.11,-0.055,0.88,0.09
5.12,-0.461,0.893,-0.202
5.13,-0.199,1.217,-0.027
5.14,-0.086,0.834,0.098
5.15,-0.209,1.021,0.121
5.16,-0.23,0.793,-0.054
5.17,-0.328,1.18,-0.155
5.18,-0.183,0.994,0.117
5.19,-0.1,0.87,0.147
5.2,-0.206,0.943,-0.021
5.21,-0.409,0.889,-0.136
5.22,-0.145,1.271,-0.001
5.23,-0.15,0.717,0.104
5.24,-0.09,1.04,0.159
5.25,-0.337,0.871,-0.174
5.26,-0.333,1.019,-0.046
5.27,-0.027,1.162,0.087
5.28,-0.154,0.719,0.113
5.29,-0.269,1.059,0.007
5.3,-0.349,0.896,-0.159
5.31,-0.181,1.183,0.025
5.32,-0.153,0.766,0.146
5.33,-0.137,0.95,0.088
5.34,-0.408,1.003,-0.239
5.35,-0.159,0.91,-0.059
5.36,-0.04,1.149,0.068
5.37,-0.124,0.642,0.151
5.38,-0.369,1.145,-0.016
5.39,-0.312,0.854,-0.207
5.4,-0.154,1.135,0.082
5.41,-0.154,0.909,0.152
5.42,-0.196,0.8,0.02
5.43,-0.486,1.15,-0.172
5.44,-0.038,0.884,-0.061
5.45,-0.197,1.126,0.107
5.46,-0.078,0.648,0.17
5.47,-0.409,1.139,-0.183
5.48,-0.229,0.901,-0.183
5.49,-0.05,1.172,0.077
5.5,-0.122,0.823,0.088
5.51,-0.203,0.74,0.011
5.52,-0.383,1.325,-0.197
5.53,-0.06,0.795,-0.017
5.54,-0.243,1.156,0.162
5.55,-0.105,0.72,0.116
5.56,-0.402,1.079,-0.213
5.57,-0.205,1.019,-0.066
5.58,-0.038,1.023,0.08
5.59,-0.192,0.941,0.134
5.6,-0.278,0.736,-0.039
5.61,-0.356,1.295,-0.179
5.62,-0.091,0.832,0.065
5.63,-0.166,1.137,0.135
5.64,-0.089,0.735,-0.012
5.65,-0.481,1.037,-0.192
5.66,-0.059,1.071,-0.086
5.67,-0.104,0.814,0.119
5.68,-0.229,1.022,0.18
5.69,-0.261,0.744,-0.153
5.7,-0.235,1.253,-0.172
5.71,-0.065,0.943,0.138
5.72,-0.168,0.943,0.159
5.73,-0.257,0.834,0.023
5.74,-0.399,1.07,-0.209
5.75,-0.007,1.093,-0.114
5.76,-0.088,0.764,0.166
5.77,-0.229,1.065,0.116
5.78,-0.406,0.804,-0.181
5.79,-0.137,1.292,-0.046
5.8,-0.067,0.79,0.075
5.81,-0.177,0.983,0.173
5.82,-0.297,0.857,-0.125
5.83,-0.26,0.989,-0.177
5.84,-0.118,1.175,0.107
5.85,-0.115,0.741,0.124
5.86,-0.183,1.011,-0.007
5.87,-0.343,0.915,-0.182
5.88,-0.189,1.223,-0.051
5.89,-0.141,0.773,0.165
5.9,-0.188,0.951,0.166
5.91,-0.36,0.962,-0.151
5.92,-0.302,0.964,-0.018
5.93,-0.127,1.256,0.061
5.94,-0.098,0.605,0.096
5.95,-0.278,1.108,0.017
5.96,-0.312,0.939,-0.255
5.97,-0.103,1.074,0.01
5.98,-0.06,0.885,0.137
5.99,-0.265,0.845,0.142
6.0,-0.362,1.092,-0.209
6.01,-0.186,0.941,-0.056
6.02,-0.14,1.155,0.097
6.03,-0.1,0.612,0.133
6.04,-0.358,1.136,-0.071
6.05,-0.311,0.862,-0.19
6.06,-0.038,1.064,0.109
6.07,-0.205,1.033,0.144
6.08,-0.098,0.697,-0.033
6.09,-0.478,1.262,-0.156
6.1,-0.079,0.864,-0.061
6.11,-0.198,1.156,0.1
6.12,-0.126,0.729,0.179
6.13,-0.428,1.058,-0.137
6.14,-0.227,0.955,-0.201
6.15,0.039,1.119,0.061
6.16,-0.187,0.955,0.149
6.17,-0.217,0.651,0.048
6.18,-0.365,1.369,-0.223
6.19,-0.066,0.823,-0.043
6.2,-0.233,1.099,0.162
6.21,-0.094,0.754,0.118
6.22,-0.483,1.015,-0.19
6.23,-0.151,1.113,-0.084
6.24,-0.022,0.934,0.059
6.25,-0.154,0.933,0.127
6.26,-0.208,0.733,-0.025
6.27,-0.366,1.313,-0.184
6.28,-0.141,0.872,0.029
6.29,-0.161,1.058,0.172
6.3,-0.096,0.809,0.006
6.31,-0.515,0.973,-0.167
6.32,-0.094,1.187,-0.028
6.33,-0.125,0.794,0.115
6.34,-0.241,0.992,0.175
6.35,-0.186,0.778,-0.105
6.36,-0.259,1.189,-0.216
6.37,-0.096,0.944,0.124
6.38,-0.08,0.914,0.111
6.39,-0.27,0.911,-0.018
6.4,-0.373,0.969,-0.197
6.41,-0.067,1.21,-0.029
6.42,-0.19,0.72,0.161
6.43,-0.175,1.043,0.135
6.44,-0.309,0.839,-0.198
6.45,-0.261,1.099,-0.092
6.46,-0.047,1.039,0.106
6.47,-0.138,0.752,0.085
6.48,-0.289,1.009,-0.023
6.49,-0.267,0.957,-0.168
6.5,-0.176,1.219,0.022
6.51,-0.145,0.712,0.235
6.52,-0.191,0.966,0.082
6.53,-0.488,0.945,-0.212
6.54,-0.039,1.033,-0.071
6.55,-0.089,1.055,0.055
6.56,-0.233,0.644,0.174
6.57,-0.24,1.185,-0.131
6.58,-0.283,0.837,-0.229
6.59,-0.023,1.287,0.109
6.6,-0.066,0.657,0.116
6.61,-0.409,0.989,0.009
6.62,-0.252,0.97,-0.187
6.63,-0.099,1.063,-0.044
6.64,-0.207,0.927,0.155
6.65,-0.036,0.782,0.102
6.66,-0.442,1.17,-0.229
6.67,-0.172,0.797,-0.008
6.68,-0.144,1.25,0.095
6.69,-0.18,0.628,0.16
6.7,-0.263,1.023,-0.063
6.71,-0.295,1.033,-0.246
6.72,-0.155,0.97,0.122
6.73,-0.134,1.088,0.145
6.74,-0.117,0.634,0.024
6.75,-0.478,1.274,-0.175
6.76,-0.02,0.869,-0.07
6.77,-0.131,1.083,0.057
6.78,-0.109,0.792,0.193
6.79,-0.399,0.99,-0.136
6.8,-0.301,1.028,-0.169
6.81,0.027,1.023,0.087
6.82,-0.156,1.061,0.061
6.83,-0.232,0.641,0.036
6.84,-0.403,1.373,-0.226
6.85,-0.057,0.803,-0.063
6.86,-0.171,1.011,0.183
6.87,-0.132,0.859,0.126
6.88,-0.46,0.898,-0.185
6.89,-0.213,1.194,-0.072
6.9,-0.021,0.85,0.096
6.91,-0.265,0.992,0.157
6.92,-0.149,0.707,-0.083
6.93,-0.346,1.271,-0.201
6.94,-0.226,0.934,0.092
6.95,-0.036,0.948,0.116
6.96,-0.256,0.901,0.037
6.97,-0.455,0.914,-0.124
6.98,-0.158,1.238,-0.035
6.99,-0.106,0.664,0.065
7.0,-0.158,1.086,0.167
7.01,-0.272,0.791,-0.143
7.02,-0.343,1.056,-0.113
7.03,-0.015,1.153,0.059
7.04,-0.118,0.754,0.095
7.05,-0.284,1.012,0.078
7.06,-0.324,0.957,-0.17
7.07,-0.179,1.187,-0.031
7.08,-0.135,0.73,0.184
7.09,-0.163,1.041,0.098
7.1,-0.338,0.876,-0.208
7.11,-0.212,1.037,-0.041
7.12,-0.06,1.161,0.065
7.13,-0.182,0.638,0.134
7.14,-0.353,1.095,0.021
7.15,-0.299,0.898,-0.211
7.16,-0.15,1.155,0.022
7.17,-0.114,0.84,0.199
7.18,-0.172,0.895,0.023
7.19,-0.432,1.027,-0.203
7.2,-0.021,0.973,-0.081
7.21,-0.115,1.093,0.056
7.22,-0.131,0.674,0.178
7.23,-0.366,1.213,-0.118
7.24,-0.284,0.798,-0.177
7.25,-0.001,1.213,0.114
7.26,-0.122,0.872,0.128
7.27,-0.277,0.788,0.024
7.28,-0.301,1.213,-0.206
7.29,-0.064,0.86,-0.03
7.3,-0.28,1.179,0.18
7.31,0.003,0.703,0.11
7.32,-0.48,1.149,-0.187
7.33,-0.302,0.901,-0.021
7.34,0.006,1.171,0.086
7.35,-0.158,0.823,0.077
7.36,-0.205,0.755,0.016
7.37,-0.344,1.336,-0.227
7.38,-0.126,0.786,0.001
7.39,-0.166,1.17,0.17
7.4,-0.043,0.611,0.027
7.41,-0.531,1.263,-0.16
7.42,-0.043,0.941,-0.064
7.43,-0.215,1.04,0.089
7.44,-0.201,0.825,0.22
7.45,-0.3,0.914,-0.136
7.46,-0.296,1.117,-0.171
7.47,-0.026,0.931,0.139
7.48,-0.174,1.129,0.129
7.49,-0.286,0.603,0.019
7.5,-0.393,1.261,-0.197
7.51,-0.084,0.95,0.002
7.52,-0.299,0.984,0.194
7.53,-0.041,0.957,0.083
7.54,-0.356,0.804,-0.197
7.55,-0.239,1.226,-0.045
7.56,-0.03,0.873,0.059
7.57,-0.198,0.978,0.142
7.58,-0.193,0.781,0.005
7.59,-0.405,1.213,-0.241
7.6,-0.083,0.943,-0.022
7.61,-0.118,0.941,0.175
7.62,-0.177,0.941,0.08
7.63,-0.405,0.832,-0.193
7.64,-0.151,1.295,-0.075
7.65,-0.053,0.759,0.071
7.66,-0.175,0.973,0.179
7.67,-0.249,0.896,-0.125
7.68,-0.348,0.971,-0.184
7.69,-0.067,1.147,0.069
7.7,-0.063,0.847,0.106
7.71,-0.22,0.971,0.011
7.72,-0.396,0.887,-0.188
7.73,-0.114,1.29,-0.058
7.74,-0.157,0.735,0.145
7.75,-0.185,0.918,0.2
7.76,-0.344,0.967,-0.149
7.77,-0.272,0.866,-0.157
7.78,0.011,1.282,0.073
7.79,-0.188,0.627,0.125
7.8,-0.325,1.059,0.048
7.81,-0.268,0.974,-0.191
7.82,-0.121,1.097,-0.032
7.83,-0.214,0.807,0.207
7.84,-0.061,0.895,0.083
7.85,-0.427,1.061,-0.231
7.86,-0.222,0.81,-0.003
7.87,-0.045,1.288,0.082
7.88,-0.191,0.628,0.164
7.89,-0.321,1.082,-0.013
7.9,-0.298,0.949,-0.199
7.91,-0.181,1.056,0.038
7.92,-0.074,1.019,0.163
7.93,-0.15,0.708,0.041
7.94,-0.465,1.209,-0.163
7.95,-0.001,0.912,-0.078
7.96,-0.167,1.106,0.064
7.97,-0.176,0.706,0.254
7.98,-0.446,1.084,-0.122
7.99,-0.199,0.91,-0.218
8.0,-0.067,1.086,0.087
8.01,-0.161,0.968,0.123
8.02,-0.205,0.658,0.04
8.03,-0.465,1.365,-0.167
8.04,-0.039,0.823,-0.023
8.05,-0.273,1.099,0.189
8.06,-0.016,0.8,0.15
8.07,-0.47,1.029,-0.16
8.08,-0.323,1.015,-0.1
8.09,0.026,0.996,0.076
8.1,-0.187,1.018,0.123
8.11,-0.275,0.666,0.035
8.12,-0.396,1.356,-0.201
8.13,-0.08,0.791,-0.022
8.14,-0.156,1.106,0.16
8.15,-0.069,0.831,0.069
8.16,-0.452,0.93,-0.189
8.17,-0.11,1.25,-0.098
8.18,-0.094,0.786,0.066
8.19,-0.212,1.025,0.199
8.2,-0.248,0.748,-0.07
8.21,-0.355,1.2,-0.197
8.22,-0.157,0.882,0.119
8.23,-0.092,1.057,0.116
8.24,-0.178,0.753,0.013
8.25,-0.384,1.143,-0.18
8.26,-0.138,1.079,-0.054
8.27,-0.162,0.758,0.106
8.28,-0.156,1.086,0.146
8.29,-0.311,0.742,-0.176
8.3,-0.329,1.177,-0.097
8.31,-0.072,0.953,0.143
8.32,-0.143,0.911,0.117
8.33,-0.295,0.87,0.043
8.34,-0.258,1.059,-0.21
8.35,-0.133,1.131,-0.01
8.36,-0.135,0.748,0.166
8.37,-0.162,1.121,0.086
8.38,-0.364,0.774,-0.193
8.39,-0.245,1.144,-0.069
8.4,-0.091,1.022,0.076
8.41,-0.134,0.744,0.134
8.42,-0.255,1.022,-0.006
8.43,-0.329,0.947,-0.198
8.44,-0.161,1.164,0.029
8.45,-0.128,0.769,0.198
8.46,-0.188,1.036,0.061
8.47,-0.395,0.885,-0.202
8.48,-0.164,1.112,-0.045
8.49,-0.133,0.962,0.081
8.5,-0.154,0.694,0.18
8.51,-0.264,1.151,-0.069
8.52,-0.301,0.839,-0.16
8.53,-0.219,1.193,0.092
8.54,-0.05,0.798,0.134
8.55,-0.232,0.953,-0.01
8.56,-0.411,0.97,-0.158
8.57,-0.144,0.995,-0.017
8.58,-0.16,1.057,0.073
8.59,-0.12,0.685,0.19
8.6,-0.348,1.17,-0.131
8.61,-0.295,0.798,-0.103
8.62,-0.088,1.272,0.072
8.63,-0.042,0.774,0.082
8.64,-0.349,0.87,0.038
8.65,-0.292,1.16,-0.184
8.66,-0.151,0.937,-0.041
8.67,-0.262,1.042,0.137
8.68,0.024,0.703,0.128
8.69,-0.445,1.169,-0.202
8.7,-0.276,0.831,-0.061
8.71,-0.027,1.23,0.066
8.72,-0.15,0.791,0.053
8.73,-0.254,0.826,0.031
8.74,-0.248,1.251,-0.252
8.75,-0.13,0.834,-0.0
8.76,-0.212,1.159,0.173
8.77,0.018,0.708,0.045
8.78,-0.531,1.151,-0.202
8.79,-0.101,0.952,-0.037
8.8,-0.065,1.048,0.073
8.81,-0.284,0.845,0.181
8.82,-0.217,0.818,-0.03
8.83,-0.266,1.264,-0.223
8.84,-0.257,0.816,0.091
8.85,-0.064,1.156,0.128
8.86,-0.042,0.708,0.006
8.87,-0.54,1.113,-0.146
8.88,-0.078,1.042,-0.072
8.89,-0.133,0.862,0.045
8.9,-0.213,0.983,0.173
8.91,-0.211,0.791,-0.141
8.92,-0.332,1.173,-0.167
8.93,-0.131,0.851,0.109
8.94,-0.125,1.105,0.134
8.95,-0.185,0.735,0.005
8.96,-0.419,1.072,-0.153
8.97,-0.13,1.162,-0.091
8.98,-0.082,0.779,0.131
8.99,-0.174,1.093,0.15
9.0,-0.279,0.779,-0.173
9.01,-0.317,1.169,-0.134
9.02,-0.082,0.979,0.118
9.03,-0.159,0.992,0.099
9.04,-0.217,0.72,0.035
9.05,-0.35,1.228,-0.197
9.06,-0.096,0.986,-0.026
9.07,-0.173,0.845,0.167
9.08,-0.063,1.042,0.036
9.09,-0.419,0.774,-0.2
9.1,-0.277,1.246,0.013
9.11,-0.071,0.908,0.086
9.12,-0.199,0.927,0.164
9.13,-0.232,0.858,-0.001
9.14,-0.342,1.023,-0.223
9.15,-0.221,1.111,0.052
9.16,-0.067,0.862,0.161
9.17,-0.111,1.013,-0.005
9.18,-0.418,0.83,-0.115
9.19,-0.168,1.259,-0.033
9.2,-0.123,0.845,0.079
9.21,-0.203,0.839,0.2
9.22,-0.243,1.031,-0.118
9.23,-0.267,0.87,-0.193
9.24,-0.198,1.187,0.081
9.25,-0.047,0.79,0.17
9.26,-0.214,1.003,0.024
9.27,-0.432,0.885,-0.127
9.28,-0.114,1.128,-0.117
9.29,-0.171,0.839,0.064
9.3,-0.133,0.827,0.216
9.31,-0.313,1.122,-0.135
9.32,-0.367,0.745,-0.147
9.33,-0.108,1.291,0.113
9.34,-0.069,0.799,0.095
9.35,-0.266,0.947,0.024
9.36,-0.332,0.973,-0.135
9.37,-0.165,1.116,-0.028
9.38,-0.155,0.902,0.042
9.39,-0.086,0.757,0.201
9.4,-0.404,1.2,-0.135
9.41,-0.34,0.754,-0.142
9.42,-0.073,1.271,0.052
9.43,-0.069,0.718,0.131
9.44,-0.282,0.944,0.025
9.45,-0.375,1.078,-0.187
9.46,0.0,0.926,-0.056
9.47,-0.218,1.082,0.099
9.48,-0.082,0.694,0.133
9.49,-0.373,1.179,-0.184
9.5,-0.292,0.831,-0.079
9.51,-0.079,1.236,0.076
9.52,-0.047,0.723,0.076
9.53,-0.312,0.872,0.033
9.54,-0.324,1.209,-0.217
9.55,-0.074,0.844,-0.036
9.56,-0.233,1.155,0.13
9.57,0.006,0.707,0.092
9.58,-0.471,1.139,-0.192
9.59,-0.302,0.874,-0.024
9.6,-0.066,1.193,0.084
9.61,-0.165,0.802,0.091
9.62,-0.237,0.786,0.014
9.63,-0.311,1.294,-0.229
9.64,-0.096,0.798,0.012
9.65,-0.237,1.161,0.149
9.66,0.0,0.729,0.096
9.67,-0.427,1.136,-0.227
9.68,-0.212,0.939,-0.075
9.69,-0.009,1.014,0.093
9.7,-0.138,0.975,0.093
9.71,-0.364,0.743,-0.006
9.72,-0.311,1.265,-0.19
9.73,-0.135,0.833,0.028
9.74,-0.228,1.162,0.182
9.75,-0.042,0.728,0.049
9.76,-0.418,1.077,-0.225
9.77,-0.178,1.111,-0.037
9.78,-0.023,0.882,0.062
9.79,-0.176,0.963,0.134
9.8,-0.329,0.716,-0.05
9.81,-0.33,1.266,-0.183
9.82,-0.148,0.861,0.05
9.83,-0.147,1.085,0.123
9.84,-0.114,0.647,-0.006
9.85,-0.514,1.221,-0.13
9.86,-0.03,0.999,-0.058
9.87,-0.083,0.921,0.093
9.88,-0.178,0.969,0.142
9.89,-0.295,0.767,-0.143
9.9,-0.267,1.231,-0.174
9.91,-0.142,0.915,0.085
9.92,-0.156,1.039,0.143
9.93,-0.168,0.751,0.013
9.94,-0.46,1.155,-0.154
9.95,-0.062,1.082,-0.052
9.96,-0.142,0.82,0.142
9.97,-0.237,1.013,0.162
9.98,-0.236,0.744,-0.17
9.99,-0.264,1.212,-0.16
10.0,-0.123,0.932,0.154
10.01,-0.098,0.978,0.096
10.02,-0.321,0.846,-0.032
10.03,-0.41,1.049,-0.043
10.04,-0.077,1.183,-0.021
10.05,-0.204,0.731,0.129
10.06,-0.105,1.081,0.131
10.07,-0.258,0.841,-0.223
10.08,-0.355,1.142,-0.062
10.09,-0.057,0.934,0.077
10.1,-0.063,0.898,0.115
10.11,-0.345,0.979,-0.02
10.12,-0.366,0.882,-0.165
10.13,-0.162,1.186,-0.036
10.14,-0.188,0.754,0.192
10.15,-0.046,1.048,0.075
10.16,-0.308,0.874,-0.228
10.17,-0.214,1.101,-0.072
10.18,-0.014,1.031,0.046
10.19,-0.094,0.72,0.116
10.2,-0.361,1.07,-0.048
10.21,-0.273,0.873,-0.148
10.22,-0.2,1.23,0.009
10.23,-0.132,0.771,0.153
10.24,-0.035,0.993,0.081
10.25,-0.365,1.028,-0.219
10.26,-0.169,1.026,-0.073
10.27,-0.054,1.019,0.019
10.28,-0.116,0.718,0.188
10.29,-0.402,1.164,-0.097
10.3,-0.276,0.76,-0.131
10.31,-0.221,1.259,0.034
10.32,-0.174,0.763,0.166
10.33,-0.138,0.879,0.021
10.34,-0.357,1.088,-0.209
10.35,-0.13,0.912,-0.03
10.36,-0.065,1.154,0.081
10.37,-0.192,0.686,0.192
10.38,-0.383,1.162,-0.086
10.39,-0.277,0.845,-0.14
10.4,-0.167,1.184,0.12
10.41,-0.059,0.847,0.129
10.42,-0.26,0.84,0.029
10.43,-0.485,1.197,-0.16
10.44,-0.074,0.861,-0.042
10.45,-0.207,1.126,0.113
10.46,-0.086,0.719,0.171
10.47,-0.374,1.129,-0.198
10.48,-0.284,0.839,-0.136
10.49,-0.057,1.202,0.089
10.5,-0.115,0.886,0.103
10.51,-0.233,0.731,0.016
10.52,-0.464,1.284,-0.204
10.53,-0.022,0.821,-0.012
10.54,-0.293,1.2,0.158
10.55,-0.115,0.7,0.113
10.56,-0.355,1.052,-0.184
10.57,-0.251,1.035,-0.095
10.58,-0.113,0.986,0.13
10.59,-0.062,0.95,0.1
10.6,-0.326,0.669,0.007
10.61,-0.445,1.281,-0.177
10.62,-0.014,0.854,-0.025
10.63,-0.287,1.153,0.143
10.64,0.003,0.766,0.124
10.65,-0.427,1.018,-0.207
10.66,-0.19,0.97,0.011
10.67,-0.023,1.049,0.066
10.68,-0.125,0.873,0.131
10.69,-0.26,0.809,-0.029
10.7,-0.407,1.24,-0.193
10.71,-0.198,0.796,0.087
10.72,-0.136,1.204,0.177
10.73,-0.17,0.654,0.003
10.74,-0.452,1.086,-0.149
10.75,-0.031,1.106,-0.073
10.76,-0.1,0.866,0.099
10.77,-0.181,0.983,0.172
10.78,-0.235,0.792,-0.111
10.79,-0.324,1.195,-0.142
10.8,-0.148,0.924,0.102
10.81,-0.127,1.081,0.14
10.82,-0.19,0.757,0.008
10.83,-0.45,1.069,-0.124
10.84,-0.111,1.18,-0.046
10.85,-0.112,0.759,0.112
10.86,-0.236,1.055,0.196
10.87,-0.236,0.743,-0.144
10.88,-0.304,1.185,-0.167
10.89,-0.096,0.936,0.125
10.9,-0.073,0.971,0.126
10.91,-0.325,0.854,-0.031
10.92,-0.349,0.995,-0.167
10.93,-0.062,1.192,-0.055
10.94,-0.165,0.764,0.146
10.95,-0.158,1.083,0.162
10.96,-0.322,0.775,-0.195
10.97,-0.256,1.158,-0.054
10.98,-0.083,1.037,0.097
10.99,-0.132,0.769,0.149
11.0,-0.305,0.973,0.026
11.01,-0.28,0.987,-0.179
11.02,-0.117,1.167,-0.066
11.03,-0.169,0.694,0.209
11.04,-0.126,1.068,0.135
11.05,-0.41,0.927,-0.209
11.06,-0.224,1.034,-0.051
11.07,-0.09,1.047,0.078
11.08,-0.156,0.714,0.117
11.09,-0.319,1.106,-0.046
11.1,-0.31,0.843,-0.206
11.11,-0.156,1.179,0.078
11.12,-0.192,0.815,0.168
11.13,-0.113,0.964,0.07
11.14,-0.312,0.963,-0.225
11.15,-0.245,0.98,-0.027
11.16,-0.029,1.097,0.047
11.17,-0.118,0.658,0.119
11.18,-0.095,0.959,0.047
11.19,-0.106,0.719,0.16
11.2,-0.382,1.158,-0.168
11.21,-0.247,0.777,-0.169
11.22,-0.084,1.304,0.053
11.23,-0.102,0.671,0.107
11.24,-0.197,0.932,0.009
11.25,-0.326,1.14,-0.202
11.26,-0.176,0.868,-0.01
11.27,-0.193,1.057,0.173
11.28,-0.165,0.71,0.126
11.29,-0.387,1.14,-0.168
11.3,-0.204,0.871,-0.086
11.31,-0.16,1.211,0.111
11.32,-0.055,0.733,0.108
11.33,-0.339,0.877,0.033
11.34,-0.357,1.12,-0.242
11.35,-0.015,0.868,-0.005
11.36,-0.239,1.18,0.136
11.37,-0.082,0.673,0.118
11.38,-0.409,1.156,-0.19
11.39,-0.294,0.974,-0.041
11.4,-0.054,1.169,0.044
11.41,-0.165,0.723,0.173
11.42,-0.328,0.967,-0.048
11.43,-0.219,1.065,-0.231
11.44,-0.056,0.921,0.02
11.45,-0.284,1.076,0.178
11.46,-0.003,0.671,0.022
11.47,-0.483,1.252,-0.221
11.48,-0.139,0.862,-0.028
11.49,-0.081,1.134,0.064
11.5,-0.191,0.782,0.118
11.51,-0.313,0.884,-0.033
11.52,-0.255,1.177,-0.19
11.53,-0.134,0.89,0.081
11.54,-0.144,1.155,0.129
11.55,-0.097,0.618,0.008
11.56,-0.458,1.224,-0.186
11.57,-0.097,0.97,-0.065
11.58,-0.135,0.941,0.132
11.59,-0.201,0.925,0.178
11.6,-0.36,0.833,-0.104
11.61,-0.313,1.132,-0.162
11.62,-0.067,0.88,0.106
11.63,-0.16,1.147,0.109
11.64,-0.1,0.714,-0.027
11.65,-0.46,1.172,-0.109
11.66,-0.181,1.001,-0.043
11.67,-0.076,0.857,0.097
11.68,-0.199,1.023,0.159
11.69,-0.391,0.748,-0.133
11.7,-0.223,1.195,-0.166
11.71,-0.099,0.932,0.126
11.72,-0.121,0.988,0.152
11.73,-0.164,0.755,-0.04
11.74,-0.4,1.139,-0.196
11.75,-0.072,1.031,-0.047
11.76,-0.116,0.828,0.136
11.77,-0.186,1.083,0.13
11.78,-0.273,0.779,-0.174
11.79,-0.259,1.288,-0.066
11.8,-0.139,0.917,0.1
11.81,-0.092,0.859,0.16
11.82,-0.279,0.877,-0.002
11.83,-0.338,1.039,-0.198
11.84,-0.003,1.09,-0.055
11.85,-0.151,0.766,0.163
11.86,-0.191,1.07,0.123
11.87,-0.271,0.797,-0.199
11.88,-0.278,1.177,-0.061
11.89,-0.126,0.941,0.091
11.9,-0.065,0.836,0.137
11.91,-0.364,1.005,-0.034
11.92,-0.291,0.894,-0.191
11.93,-0.08,1.189,0.034
11.94,-0.137,0.771,0.158
11.95,-0.163,1.034,0.097
11.96,-0.292,0.86,-0.205
11.97,-0.225,1.125,-0.071
11.98,-0.089,0.99,0.072
11.99,-0.106,0.78,0.079
12.0,-0.399,1.068,-0.029
12.01,-0.26,0.844,-0.18
12.02,-0.125,1.227,-0.008
12.03,-0.154,0.762,0.169
12.04,-0.035,0.974,0.08
12.05,-0.43,0.982,-0.207
12.06,-0.235,1.002,-0.014
12.07,-0.017,1.049,0.04
12.08,-0.172,0.695,0.144
12.09,-0.37,1.161,-0.064
12.1,-0.208,0.831,-0.192
12.11,-0.224,1.21,0.057
12.12,-0.092,0.786,0.188
12.13,-0.191,0.921,0.048
12.14,-0.4,1.045,-0.205
12.15,-0.063,0.934,-0.058
12.16,-0.148,1.107,0.085
12.17,-0.11,0.646,0.164
12.18,-0.36,1.192,-0.108
12.19,-0.269,0.832,-0.162
12.2,-0.122,1.195,0.103
12.21,-0.044,0.707,0.125
12.22,-0.236,0.975,0.03
12.23,-0.459,1.064,-0.149
12.24,-0.097,0.983,-0.032
12.25,-0.178,1.047,0.075
12.26,-0.119,0.706,0.166
12.27,-0.37,1.194,-0.189
12.28,-0.261,0.802,-0.123
12.29,-0.075,1.271,0.103
12.3,-0.081,0.747,0.14
12.31,-0.286,0.861,0.022
12.32,-0.377,1.161,-0.175
12.33,-0.085,0.882,-0.059
12.34,-0.224,1.128,0.118
12.35,-0.066,0.716,0.123
12.36,-0.433,1.174,-0.183
12.37,-0.23,0.795,-0.11
12.38,-0.05,1.194,0.088
12.39,-0.023,0.818,0.085
12.4,-0.33,0.814,0.062
12.41,-0.344,1.206,-0.194
12.42,-0.1,0.872,-0.001
12.43,-0.29,1.125,0.149
12.44,-0.001,0.714,0.091
12.45,-0.477,1.169,-0.226
12.46,-0.249,0.912,-0.069
12.47,-0.053,1.102,0.105
12.48,-0.107,0.902,0.13
12.49,-0.279,0.771,-0.006
12.5,-0.346,1.296,-0.192
12.51,-0.042,0.804,-0.055
12.52,-0.237,1.181,0.128
12.53,-0.006,0.689,0.091
12.54,-0.45,1.091,-0.197
12.55,-0.237,1.067,-0.054
12.56,-0.001,0.948,0.018
12.57,-0.066,0.927,0.124
12.58,-0.315,0.775,-0.012
12.59,-0.304,1.289,-0.191
12.6,-0.084,0.854,-0.034
12.61,-0.252,1.091,0.175
12.62,-0.03,0.799,0.083
12.63,-0.433,1.025,-0.195
12.64,-0.26,1.124,-0.012
12.65,-0.036,0.857,0.052
12.66,-0.133,1.021,0.116
12.67,-0.3,0.76,-0.047
12.68,-0.32,1.203,-0.214
12.69,-0.097,0.894,0.014
12.7,-0.127,1.045,0.171
12.71,-0.163,0.867,0.07
12.72,-0.403,0.893,-0.201
12.73,-0.099,1.236,-0.082
12.74,-0.132,0.763,0.107
12.75,-0.193,1.024,0.129
12.76,-0.267,0.778,-0.066
12.77,-0.297,1.111,-0.214
12.78,-0.122,1.001,0.075
12.79,-0.049,0.987,0.118
12.8,-0.172,0.932,0.032
12.81,-0.383,0.862,-0.13
12.82,-0.234,1.287,-0.09
12.83,0.01,0.717,0.091
12.84,-0.207,1.047,0.174
12.85,-0.317,0.848,-0.105
12.86,-0.294,1.028,-0.159
12.87,-0.169,1.108,0.067
12.88,-0.123,0.819,0.139
12.89,-0.085,0.988,0.053
12.9,-0.432,0.91,-0.163
12.91,-0.198,1.22,-0.08
12.92,-0.03,0.776,0.067
12.93,-0.207,0.983,0.16
12.94,-0.322,0.915,-0.116
12.95,-0.146,0.93,-0.166
12.96,-0.161,1.218,0.051
12.97,-0.135,0.701,0.173
12.98,-0.08,1.045,0.051
12.99,-0.404,0.929,-0.237
13.0,-0.193,1.111,-0.03
13.01,-0.072,0.857,0.106
13.02,-0.256,1.027,0.157
13.03,-0.256,0.896,-0.142
13.04,-0.17,0.986,-0.18
13.05,-0.205,1.093,0.099
13.06,-0.038,0.765,0.151
13.07,-0.23,1.025,-0.011
13.08,-0.443,0.888,-0.119
13.09,-0.126,1.262,-0.015
13.1,-0.026,0.764,0.05
13.11,-0.203,0.95,0.195
13.12,-0.319,0.971,-0.129
13.13,-0.251,0.886,-0.135
13.14,-0.062,1.211,0.052
13.15,-0.045,0.723,0.133
13.16,-0.307,1.059,0.01
13.17,-0.378,0.908,-0.112
13.18,-0.164,1.146,-0.031
13.19,-0.135,0.845,0.083
13.2,-0.199,0.883,0.197
13.21,-0.366,1.068,-0.167
13.22,-0.239,0.789,-0.106
13.23,-0.15,1.294,0.089
13.24,-0.024,0.664,0.131
13.25,-0.268,1.06,-0.019
13.26,-0.375,0.923,-0.151
13.27,-0.111,1.083,-0.033
13.28,-0.143,0.948,0.057
13.29,-0.169,0.781,0.171
13.3,-0.318,1.188,-0.176
13.31,-0.219,0.801,-0.136
13.32,-0.183,1.307,0.176
13.33,-0.047,0.697,0.143
13.34,-0.312,0.955,0.003
13.35,-0.336,1.042,-0.126
13.36,-0.073,1.042,-0.014
13.37,-0.265,0.986,0.122
13.38,-0.076,0.719,0.133
13.39,-0.375,1.256,-0.203
13.4,-0.286,0.814,-0.084
13.41,-0.094,1.279,0.086
13.42,-0.101,0.71,0.172
13.43,-0.334,0.911,0.027
13.44,-0.295,1.121,-0.225
13.45,-0.121,0.903,-0.025
13.46,-0.194,1.11,0.108
13.47,-0.046,0.693,0.111
13.48,-0.412,1.154,-0.172
13.49,-0.269,0.817,-0.067
13.5,-0.107,1.237,0.097
13.51,-0.114,0.831,0.128
13.52,-0.299,0.8,0.024
13.53,-0.364,1.22,-0.181
13.54,-0.07,0.892,-0.036
13.55,-0.197,1.144,0.092
13.56,-0.055,0.708,0.144
13.57,-0.41,1.129,-0.157
13.58,-0.258,0.85,-0.102
13.59,-0.073,1.126,0.126
13.6,-0.131,0.916,0.129
13.61,-0.271,0.72,-0.026
13.62,-0.352,1.252,-0.158
13.63,-0.047,0.855,-0.013
13.64,-0.297,1.15,0.142
13.65,-0.028,0.755,0.078
13.66,-0.401,1.067,-0.167
13.67,-0.262,0.989,-0.058
13.68,-0.018,1.039,0.087
13.69,-0.148,0.955,0.121
13.7,-0.323,0.726,0.026
13.71,-0.357,1.329,-0.214
13.72,-0.109,0.779,-0.032
13.73,-0.191,1.067,0.17
13.74,-0.085,0.849,0.109
13.75,-0.414,0.981,-0.19
13.76,-0.253,1.03,-0.043
13.77,-0.058,0.964,0.083
13.78,-0.172,1.036,0.149
13.79,-0.314,0.669,0.023
13.8,-0.326,1.312,-0.224
13.81,-0.102,0.847,-0.037
13.82,-0.217,1.021,0.18
13.83,-0.079,0.908,0.075
13.84,-0.495,1.015,-0.149
13.85,-0.09,1.083,-0.051
13.86,-0.063,0.932,0.069
13.87,-0.188,0.949,0.168
13.88,-0.311,0.738,-0.03
13.89,-0.284,1.303,-0.173
13.9,-0.157,0.88,-0.012
13.91,-0.191,1.07,0.162
13.92,-0.064,0.796,0.065
13.93,-0.484,0.993,-0.176
13.94,-0.12,1.153,-0.074
13.95,-0.049,0.844,0.064
13.96,-0.15,1.006,0.115
13.97,-0.296,0.73,-0.054
13.98,-0.289,1.232,-0.186
13.99,-0.116,0.95,-0.002
14.0,-0.174,0.992,0.156
14.01,-0.13,0.883,0.068
14.02,-0.453,0.914,-0.169
14.03,-0.187,1.179,-0.051
14.04,-0.01,0.812,0.07
14.05,-0.163,1.027,0.129
14.06,-0.309,0.758,-0.068
14.07,-0.25,1.152,-0.16
14.08,-0.15,1.041,0.023
14.09,-0.118,0.854,0.172
14.1,-0.153,0.962,0.039
14.11,-0.432,0.873,-0.143
14.12,-0.16,1.24,-0.061
14.13,-0.051,0.784,0.08
14.14,-0.17,1.007,0.151
14.15,-0.29,0.877,-0.142
14.16,-0.27,1.022,-0.143
14.17,-0.106,1.122,0.033
14.18,-0.065,0.772,0.128
14.19,-0.185,1.054,0.06
14.2,-0.37,0.864,-0.189
14.21,-0.2,1.188,-0.037
14.22,-0.165,0.819,0.112
14.23,-0.187,0.948,0.156
14.24,-0.279,0.971,-0.135
14.25,-0.284,0.923,-0.131
14.26,-0.099,1.226,0.051
14.27,-0.039,0.737,0.14
14.28,-0.272,1.045,0.035
14.29,-0.394,0.866,-0.196
14.3,-0.074,1.177,-0.038
14.31,-0.168,0.869,0.094
14.32,-0.229,0.832,0.163
14.33,-0.279,1.054,-0.161
14.34,-0.247,0.841,-0.149
14.35,-0.239,1.219,0.154
14.36,0.022,0.736,0.125
14.37,-0.239,1.043,-0.03
14.38,-0.406,0.922,-0.125
14.39,-0.11,1.126,-0.034
14.4,-0.161,0.889,0.083
14.41,-0.13,0.792,0.18
14.42,-0.39,1.197,-0.185
14.43,-0.273,0.765,-0.113
14.44,-0.087,1.285,0.09
14.45,-0.078,0.693,0.107
14.46,-0.303,0.971,0.02
14.47,-0.348,1.049,-0.116
14.48,-0.157,0.985,-0.058
14.49,-0.203,0.972,0.152
14.5,-0.089,0.752,0.157
14.51,-0.424,1.197,-0.206
14.52,-0.262,0.761,-0.078
14.53,-0.095,1.275,0.113
14.54,-0.13,0.717,0.113
14.55,-0.332,0.926,0.021
14.56,-0.279,1.143,-0.194
14.57,-0.126,0.892,-0.055
14.58,-0.209,1.044,0.129
14.59,0.029,0.718,0.128
14.6,-0.49,1.208,-0.215
14.61,-0.249,0.798,-0.079
14.62,-0.025,1.239,0.077
14.63,-0.168,0.808,0.119
14.64,-0.326,0.803,0.047
14.65,-0.25,1.077,-0.231
14.66,-0.165,0.94,-0.038
14.67,-0.112,1.074,0.133
14.68,-0.039,0.665,0.09
14.69,-0.511,1.192,-0.182
14.7,-0.12,0.838,-0.032
14.71,-0.084,1.208,0.078
14.72,-0.183,0.753,0.131
14.73,-0.311,0.918,-0.004
14.74,-0.265,1.128,-0.229
14.75,-0.134,0.925,0.006
14.76,-0.199,1.123,0.178
14.77,-0.041,0.66,0.054
14.78,-0.494,1.255,-0.167
14.79,-0.101,0.885,-0.01
14.8,-0.119,1.089,0.077
14.81,-0.179,0.858,0.121
14.82,-0.273,0.845,-0.063
14.83,-0.315,1.173,-0.188
14.84,-0.153,0.877,0.048
14.85,-0.122,1.169,0.149
14.86,0.003,0.661,0.014
14.87,-0.559,1.182,-0.131
14.88,-0.059,0.969,-0.044
14.89,-0.061,1.006,0.079
14.9,-0.236,0.923,0.178
14.91,-0.266,0.773,-0.034
14.92,-0.304,1.252,-0.182
14.93,-0.209,0.854,0.045
14.94,-0.016,1.135,0.138
14.95,-0.149,0.698,0.022
14.96,-0.543,1.083,-0.097
14.97,0.001,1.122,-0.073
14.98,-0.114,0.896,0.046
14.99,-0.226,0.951,0.205
15.0,-0.189,0.807,-0.123
15.01,-0.355,1.23,-0.185
15.02,-0.199,0.838,0.093
15.03,-0.061,1.069,0.164
15.04,-0.136,0.788,0.033
15.05,-0.503,1.006,-0.134
15.06,-0.083,1.165,-0.042
15.07,-0.124,0.8,0.028
15.08,-0.228,1.035,0.205
15.09,-0.203,0.766,-0.105
15.1,-0.303,1.184,-0.177
15.11,-0.166,0.956,0.069
15.12,-0.031,0.96,0.128
15.13,-0.177,0.892,0.03
15.14,-0.436,0.948,-0.158
15.15,-0.062,1.242,-0.092
15.16,-0.086,0.74,0.039
15.17,-0.187,1.039,0.18
15.18,-0.228,0.844,-0.122
15.19,-0.313,1.063,-0.197
15.2,-0.172,1.002,0.053
15.21,0.001,0.905,0.125
15.22,-0.187,0.949,-0.034
15.23,-0.484,0.871,-0.101
15.24,-0.065,1.242,-0.057
15.25,-0.148,0.794,0.071
15.26,-0.212,0.969,0.229
15.27,-0.23,0.937,-0.136
15.28,-0.362,0.966,-0.164
15.29,-0.194,1.087,0.117
15.3,0.058,0.835,0.101
15.31,-0.27,1.008,-0.011
15.32,-0.43,0.829,-0.12
15.33,-0.045,1.249,-0.097
15.34,-0.16,0.747,0.034
15.35,-0.157,0.925,0.203
15.36,-0.245,1.056,-0.156
15.37,-0.32,0.861,-0.178
15.38,-0.16,1.174,0.116
15.39,-0.004,0.745,0.127
15.4,-0.27,1.04,0.006
15.41,-0.376,0.88,-0.135
15.42,-0.109,1.157,-0.056
15.43,-0.208,0.838,0.106
15.44,-0.188,0.867,0.214
15.45,-0.303,1.096,-0.168
15.46,-0.301,0.936,-0.096
15.47,-0.123,1.191,0.081
15.48,-0.085,0.755,0.132
15.49,-0.325,1.041,0.031
15.5,-0.369,0.922,-0.124
15.51,-0.163,1.207,-0.016
15.52,-0.175,0.752,0.149
15.53,-0.146,0.945,0.175
15.54,-0.324,1.02,-0.157
15.55,-0.295,0.808,-0.148
15.56,-0.118,1.266,0.094
15.57,-0.042,0.76,0.134
15.58,-0.338,1.047,0.033
15.59,-0.325,0.913,-0.181
15.6,-0.105,1.153,-0.067
15.61,-0.188,0.837,0.105
15.62,-0.164,0.817,0.18
15.63,-0.331,1.123,-0.169
15.64,-0.236,0.754,-0.131
15.65,-0.076,1.364,0.077
15.66,-0.118,0.704,0.134
15.67,-0.293,0.998,0.027
15.68,-0.363,0.994,-0.151
15.69,-0.096,1.004,-0.062
15.7,-0.158,0.963,0.111
15.71,-0.114,0.786,0.157
15.72,-0.383,1.12,-0.18
15.73,-0.271,0.766,-0.111
15.74,-0.089,1.338,0.091
15.75,-0.088,0.714,0.137
15.76,-0.323,0.941,0.055
15.77,-0.372,1.062,-0.143
15.78,-0.083,0.907,-0.013
15.79,-0.228,1.065,0.137
15.8,0.005,0.734,0.112
15.81,-0.457,1.185,-0.172
15.82,-0.253,0.77,-0.137
15.83,-0.04,1.29,0.047
15.84,-0.13,0.792,0.101
15.85,-0.304,0.839,0.024
15.86,-0.35,1.18,-0.131
15.87,-0.148,0.882,-0.043
15.88,-0.159,1.092,0.094
15.89,-0.069,0.686,0.148
15.9,-0.369,1.174,-0.177
15.91,-0.267,0.844,-0.137
15.92,-0.169,1.15,0.083
15.93,-0.046,0.852,0.122
15.94,-0.295,0.765,0.013
15.95,-0.434,1.253,-0.111
15.96,-0.112,0.829,-0.021
15.97,-0.252,1.129,0.15
15.98,-0.086,0.719,0.149
15.99,-0.389,1.065,-0.189
16.0,-0.245,0.876,-0.146
16.01,-0.035,1.09,0.077
16.02,-0.114,0.979,0.12
16.03,-0.28,0.682,0.03
16.04,-0.401,1.307,-0.148
16.05,-0.083,0.852,-0.046
16.06,-0.281,1.138,0.147
16.07,-0.077,0.743,0.143
16.08,-0.362,1.021,-0.18
16.09,-0.278,1.043,-0.12
16.1,-0.042,0.958,0.046
16.11,-0.125,0.997,0.136
16.12,-0.258,0.676,0.013
16.13,-0.365,1.313,-0.224
16.14,-0.081,0.803,-0.066
16.15,-0.208,1.04,0.136
16.16,-0.105,0.859,0.128
16.17,-0.332,0.905,-0.16
16.18,-0.312,1.097,-0.077
16.19,-0.052,0.931,0.094
16.2,-0.114,1.06,0.126
16.21,-0.24,0.663,0.054
16.22,-0.396,1.336,-0.183
16.23,-0.094,0.949,-0.07
16.24,-0.21,0.933,0.16
16.25,-0.12,0.953,0.155
16.26,-0.408,0.847,-0.163
16.27,-0.252,1.134,-0.099
16.28,-0.036,1.004,0.06
16.29,-0.174,0.985,0.133
16.3,-0.21,0.684,0.017
16.31,-0.367,1.35,-0.196
16.32,-0.153,0.811,-0.013
16.33,-0.207,1.01,0.161
16.34,-0.075,0.899,0.067
16.35,-0.422,0.902,-0.187
16.36,-0.246,1.156,-0.06
16.37,0.008,0.933,0.054
16.38,-0.165,1.016,0.14
16.39,-0.235,0.705,-0.034
16.4,-0.332,1.259,-0.186
16.41,-0.128,0.91,-0.027
16.42,-0.163,0.892,0.149
16.43,-0.091,0.963,0.072
16.44,-0.362,0.827,-0.21
16.45,-0.183,1.204,-0.044
16.46,-0.052,0.877,0.074
16.47,-0.151,0.974,0.197
16.48,-0.262,0.78,-0.016
16.49,-0.359,1.151,-0.206
16.5,-0.101,1.041,-0.039
16.51,-0.152,0.879,0.126
16.52,-0.11,0.995,0.083
16.53,-0.381,0.817,-0.163
16.54,-0.221,1.269,-0.045
16.55,-0.049,0.929,0.069
16.56,-0.143,0.887,0.142
16.57,-0.289,0.875,-0.036
16.58,-0.285,1.057,-0.196
16.59,-0.118,1.102,-0.064
16.6,-0.095,0.755,0.163
16.61,-0.116,1.047,0.064
16.62,-0.334,0.818,-0.198
16.63,-0.26,1.197,-0.048
16.64,-0.066,0.906,0.076
16.65,-0.101,0.84,0.143
16.66,-0.341,0.992,-0.055
16.67,-0.312,0.941,-0.163
16.68,-0.138,1.206,-0.002
16.69,-0.101,0.737,0.151
16.7,-0.15,1.041,0.057
16.71,-0.345,0.901,-0.207
16.72,-0.181,1.073,-0.078
16.73,-0.086,0.976,0.075
16.74,-0.074,0.762,0.12
16.75,-0.372,1.099,-0.067
16.76,-0.23,0.872,-0.188
16.77,-0.177,1.197,0.002
16.78,-0.109,0.748,0.176
16.79,-0.125,0.991,0.063
16.8,-0.379,0.952,-0.198
16.81,-0.146,1.035,-0.041
16.82,-0.086,1.024,0.052
16.83,-0.18,0.698,0.193
16.84,-0.312,1.198,-0.087
16.85,-0.259,0.792,-0.164
16.86,-0.138,1.235,0.098
16.87,-0.121,0.81,0.134
16.88,-0.166,0.892,0.05
16.89,-0.444,1.065,-0.194
16.9,-0.101,0.949,-0.098
16.91,-0.121,1.087,0.065
16.92,-0.114,0.643,0.149
16.93,-0.412,1.186,-0.113
16.94,-0.193,0.835,-0.163
16.95,-0.175,1.213,0.094
16.96,-0.111,0.843,0.174
16.97,-0.172,0.839,0.008
16.98,-0.459,1.168,-0.184
16.99,-0.067,0.868,-0.052
17.0,-0.133,1.136,0.074
17.01,-0.083,0.673,0.146
17.02,-0.417,1.14,-0.131
17.03,-0.232,0.87,-0.129
17.04,-0.104,1.175,0.074
17.05,-0.17,0.873,0.166
17.06,-0.159,0.739,0.006
17.07,-0.471,1.316,-0.173
17.08,-0.151,0.789,-0.002
17.09,-0.199,1.118,0.172
17.1,-0.141,0.659,0.108
17.11,-0.406,1.173,-0.214
17.12,-0.157,0.895,-0.06
17.13,-0.11,1.145,0.084
17.14,-0.096,0.79,0.166
17.15,-0.325,0.854,-0.019
17.16,-0.319,1.203,-0.216
17.17,-0.054,0.802,-0.017
17.18,-0.17,1.188,0.146
17.19,-0.134,0.64,0.056
17.2,-0.422,1.198,-0.187
17.21,-0.128,0.979,-0.069
17.22,-0.161,0.981,0.129
17.23,-0.133,0.881,0.157
17.24,-0.291,0.818,-0.081
17.25,-0.365,1.189,-0.185
17.26,-0.081,0.847,0.075
17.27,-0.102,1.171,0.121
17.28,-0.148,0.643,0.021
17.29,-0.394,1.17,-0.177
17.3,-0.082,1.065,-0.117
17.31,-0.12,0.819,0.102
17.32,-0.124,1.006,0.201
17.33,-0.377,0.758,-0.158
17.34,-0.272,1.167,-0.164
17.35,-0.047,0.959,0.099
17.36,-0.202,1.014,0.148
17.37,-0.165,0.746,0.012
17.38,-0.36,1.152,-0.145
17.39,-0.213,1.075,-0.011
17.4,-0.179,0.757,0.2
17.41,-0.093,1.117,0.14
17.42,-0.391,0.727,-0.204
17.43,-0.26,1.164,-0.077
17.44,-0.047,0.995,0.07
17.45,-0.164,0.853,0.144
17.46,-0.223,0.907,0.02
17.47,-0.362,1.036,-0.201
17.48,-0.064,1.131,-0.021
17.49,-0.144,0.739,0.188
17.5,-0.168,1.083,0.085
17.51,-0.323,0.807,-0.212
17.52,-0.193,1.148,-0.028
17.53,-0.1,1.067,0.078
17.54,-0.132,0.742,0.125
17.55,-0.25,1.046,-0.015
17.56,-0.347,0.911,-0.197
17.57,-0.208,1.168,0.038
17.58,-0.051,0.816,0.174
17.59,-0.189,0.982,0.064
17.6,-0.374,0.877,-0.175
17.61,-0.025,1.109,-0.094
17.62,-0.167,0.981,0.048
17.63,-0.148,0.687,0.229
17.64,-0.277,1.178,-0.095
17.65,-0.343,0.747,-0.182
17.66,-0.17,1.265,0.149
17.67,-0.115,0.811,0.114
17.68,-0.154,0.882,0.02
17.69,-0.356,1.107,-0.189
17.7,-0.162,0.982,-0.085
17.71,-0.163,0.974,0.075
17.72,-0.053,0.722,0.214
17.73,-0.425,1.176,-0.152
17.74,-0.271,0.749,-0.185
17.75,-0.043,1.279,0.124
17.76,-0.161,0.82,0.112
17.77,-0.247,0.825,0.04
17.78,-0.323,1.238,-0.179
17.79,-0.128,0.875,-0.021
17.8,-0.196,1.132,0.141
17.81,-0.022,0.704,0.169
17.82,-0.481,1.148,-0.166
17.83,-0.218,0.864,-0.103
17.84,-0.02,1.224,0.058
17.85,-0.187,0.814,0.142
17.86,-0.292,0.772,0.073
17.87,-0.357,1.323,-0.252
17.88,-0.051,0.75,-0.001
17.89,-0.169,1.185,0.183
17.9,-0.118,0.658,0.087
17.91,-0.409,1.2,-0.187
17.92,-0.114,0.928,-0.03
17.93,-0.174,1.12,0.088
17.94,-0.154,0.792,0.192
17.95,-0.394,0.911,-0.053
17.96,-0.302,1.136,-0.189
17.97,-0.123,0.886,0.083
17.98,-0.128,1.133,0.139
17.99,-0.087,0.6,0.006
18.0,-0.476,1.258,-0.17
18.01,-0.131,0.93,-0.057
18.02,-0.14,0.947,0.105
18.03,-0.12,0.945,0.164
18.04,-0.386,0.802,-0.173
18.05,-0.233,1.157,-0.15
18.06,-0.022,0.98,0.075
18.07,-0.169,1.028,0.102
18.08,-0.117,0.692,0.024
18.09,-0.491,1.267,-0.147
18.1,-0.093,1.004,-0.052
18.11,-0.173,0.844,0.14
18.12,-0.175,0.987,0.169
18.13,-0.375,0.802,-0.208
18.14,-0.257,1.186,-0.106
18.15,-0.001,0.908,0.092
18.16,-0.127,0.999,0.144
18.17,-0.328,0.747,0.027
18.18,-0.305,1.126,-0.201
18.19,0.001,1.118,-0.081
18.2,-0.146,0.764,0.193
18.21,-0.229,1.016,0.12
18.22,-0.358,0.821,-0.199
18.23,-0.205,1.265,-0.071
18.24,-0.069,0.808,0.072
18.25,-0.144,0.911,0.161
18.26,-0.302,0.999,-0.059
18.27,-0.295,0.926,-0.192
18.28,-0.115,1.16,0.042
18.29,-0.06,0.761,0.164
18.3,-0.212,1.047,0.012
18.31,-0.426,0.851,-0.174
18.32,-0.128,1.157,-0.06
18.33,-0.128,0.873,0.088
18.34,-0.17,0.829,0.175
18.35,-0.26,1.1,-0.117
18.36,-0.321,0.854,-0.156
18.37,-0.09,1.226,0.098
18.38,-0.043,0.722,0.126
18.39,-0.317,0.996,0.014
18.4,-0.363,0.98,-0.177
18.41,-0.062,1.104,-0.081
18.42,-0.219,0.891,0.099
18.43,-0.091,0.775,0.17
18.44,-0.372,1.182,-0.182
18.45,-0.273,0.752,-0.096
18.46,-0.072,1.28,0.135
18.47,-0.056,0.695,0.11
18.48,-0.361,0.957,0.043
18.49,-0.269,1.097,-0.206
18.5,-0.128,0.973,0.022
18.51,-0.274,1.03,0.12
18.52,0.005,0.722,0.101
18.53,-0.485,1.218,-0.181
18.54,-0.252,0.783,-0.002
18.55,-0.034,1.212,0.088
18.56,-0.125,0.749,0.125
18.57,-0.317,0.889,-0.002
18.58,-0.291,1.157,-0.22
18.59,-0.186,0.881,0.081
18.6,-0.179,1.143,0.149
18.61,-0.077,0.611,0.033
18.62,-0.517,1.256,-0.177
18.63,-0.008,0.963,-0.112
18.64,-0.082,1.037,0.059
18.65,-0.234,0.836,0.189
18.66,-0.232,0.849,-0.107
18.67,-0.287,1.175,-0.177
18.68,-0.108,0.891,0.097
18.69,-0.153,1.132,0.099
18.7,-0.14,0.62,0.016
18.71,-0.444,1.244,-0.174
18.72,-0.083,0.838,-0.04
18.73,-0.179,1.088,0.144
18.74,-0.119,0.838,0.116
18.75,-0.382,0.866,-0.183
18.76,-0.199,1.149,-0.093
18.77,0.045,0.984,0.027
18.78,-0.2,1.0,0.152
18.79,-0.265,0.654,0.017
18.8,-0.391,1.305,-0.207
18.81,-0.13,0.87,0.06
18.82,-0.184,1.02,0.179
18.83,-0.15,0.894,0.051
18.84,-0.405,0.859,-0.193
18.85,-0.158,1.272,-0.001
18.86,-0.057,0.83,0.088
18.87,-0.166,1.014,0.152
18.88,-0.212,0.782,-0.069
18.89,-0.398,1.171,-0.18
18.9,-0.062,0.974,0.026
18.91,-0.064,0.952,0.12
18.92,-0.199,0.946,-0.003
18.93,-0.428,0.876,-0.147
18.94,-0.14,1.27,-0.053
18.95,-0.117,0.7,0.121
18.96,-0.182,1.023,0.185
18.97,-0.301,0.861,-0.133
18.98,-0.338,1.029,-0.141
18.99,-0.035,1.118,0.048
19.0,-0.117,0.718,0.089
19.01,-0.32,1.044,0.018
19.02,-0.31,0.902,-0.221
19.03,-0.221,1.15,0.032
19.04,-0.141,0.826,0.158
19.05,-0.146,0.969,0.094
19.06,-0.369,0.923,-0.188
19.07,-0.207,0.98,-0.05
19.08,-0.047,1.191,0.057
19.09,-0.168,0.656,0.149
19.1,-0.312,1.105,-0.02
19.11,-0.31,0.938,-0.193
19.12,-0.131,1.131,0.022
19.13,-0.21,0.845,0.172
19.14,-0.114,0.853,0.086
19.15,-0.431,1.096,-0.23
19.16,-0.119,0.849,-0.04
19.17,-0.172,1.182,0.167
19.18,-0.168,0.652,0.142
19.19,-0.278,1.148,-0.082
19.2,-0.28,0.926,-0.21
19.21,-0.183,1.097,0.13
19.22,-0.118,0.91,0.119
19.23,-0.218,0.753,-0.001
19.24,-0.49,1.25,-0.176
19.25,-0.027,0.813,-0.029
19.26,-0.146,1.198,0.095
19.27,-0.097,0.705,0.177
19.28,-0.342,1.069,-0.166
19.29,-0.274,1.005,-0.12
19.3,-0.054,1.059,0.105
19.31,-0.197,0.976,0.127
19.32,-0.255,0.664,0.004
19.33,-0.333,1.301,-0.237
19.34,-0.092,0.828,-0.008
19.35,-0.166,1.122,0.113
19.36,-0.073,0.795,0.093
19.37,-0.432,0.946,-0.22
19.38,-0.176,1.086,-0.031
19.39,-0.11,0.976,0.085
19.4,-0.158,0.96,0.104
19.41,-0.243,0.699,-0.016
19.42,-0.377,1.312,-0.23
19.43,-0.085,0.854,0.002
19.44,-0.18,1.093,0.155
19.45,-0.101,0.797,0.014
19.46,-0.438,0.963,-0.14
19.47,-0.149,1.173,-0.089
19.48,-0.066,0.765,0.041
19.49,-0.172,1.047,0.18
19.5,-0.282,0.741,-0.109
19.51,-0.311,1.141,-0.14
19.52,-0.078,0.843,0.113
19.53,-0.198,0.972,0.136
19.54,-0.338,0.756,-0.087
19.55,-0.305,1.23,-0.167
19.56,-0.128,0.868,0.127
19.57,-0.102,1.118,0.174
19.58,-0.231,0.715,0.015
19.59,-0.5,1.056,-0.148
19.6,-0.053,1.147,-0.111
19.61,-0.102,0.762,0.09
19.62,-0.165,1.064,0.18
19.63,-0.311,0.797,-0.193
19.64,-0.33,1.176,-0.147
19.65,0.047,0.932,0.088
19.66,-0.138,0.95,0.149
19.67,-0.312,0.812,0.014
19.68,-0.318,1.025,-0.149
19.69,-0.086,1.15,-0.068
19.7,-0.206,0.727,0.185
19.71,-0.111,1.078,0.101
19.72,-0.344,0.788,-0.215
19.73,-0.273,1.209,-0.026
19.74,0.001,0.94,0.083
19.75,-0.218,0.821,0.147
19.76,-0.292,0.998,-0.025
19.77,-0.252,0.905,-0.222
19.78,-0.125,1.231,0.052
19.79,-0.092,0.728,0.121
19.8,-0.16,1.004,0.03
19.81,-0.376,0.933,-0.155
19.82,-0.173,1.101,-0.084
19.83,-0.062,0.927,0.09
19.84,-0.181,0.805,0.186
19.85,-0.379,1.128,-0.106
19.86,-0.228,0.807,-0.192
19.87,-0.116,1.34,0.098
19.88,-0.121,0.691,0.135
19.89,-0.23,0.964,0.029
19.9,-0.411,1.075,-0.159
19.91,-0.116,0.964,-0.021
19.92,-0.149,0.993,0.094
19.93,-0.118,0.726,0.179
19.94,-0.381,1.186,-0.183
19.95,-0.285,0.812,-0.105
19.96,-0.075,1.259,0.086
19.97,-0.045,0.751,0.084
19.98,-0.338,0.878,0.05
19.99,-0.389,1.154,-0.176
20.0,-0.076,0.846,-0.015
20.01,-0.227,1.117,0.12
20.02,-0.033,0.684,0.129
20.03,-0.437,1.205,-0.204
20.04,-0.256,0.851,-0.05
20.05,-0.042,1.151,0.074
20.06,-0.145,0.803,0.085
20.07,-0.33,0.829,-0.017
20.08,-0.327,1.232,-0.191
20.09,-0.042,0.817,-0.004
20.1,-0.144,1.182,0.168
20.11,-0.062,0.671,0.073
20.12,-0.479,1.162,-0.196
20.13,-0.132,0.967,-0.042
20.14,-0.092,1.006,0.117
20.15,-0.238,0.934,0.171
20.16,-0.287,0.784,-0.077
20.17,-0.267,1.209,-0.221
20.18,-0.125,0.898,0.128
20.19,-0.159,1.083,0.103
20.2,-0.096,0.648,0.041
20.21,-0.416,1.227,-0.184
20.22,-0.092,1.055,-0.074
20.23,-0.18,0.807,0.12
20.24,-0.158,1.03,0.193
20.25,-0.425,0.826,-0.198
20.26,-0.216,1.174,-0.079
20.27,-0.052,0.948,0.102
20.28,-0.16,1.015,0.123
20.29,-0.255,0.665,0.024
20.3,-0.411,1.265,-0.203
20.31,-0.051,0.94,-0.013
20.32,-0.248,0.913,0.184
20.33,-0.086,0.975,0.106
20.34,-0.35,0.795,-0.22
20.35,-0.263,1.229,-0.031
20.36,-0.014,0.855,0.099
20.37,-0.243,0.987,0.118
20.38,-0.257,0.804,-0.026
20.39,-0.272,1.099,-0.192
20.4,-0.119,1.069,0.003
20.41,-0.138,0.814,0.184
20.42,-0.122,1.014,0.059
20.43,-0.408,0.831,-0.247
20.44,-0.097,1.253,-0.025
20.45,-0.136,0.853,0.124
20.46,-0.287,0.887,0.173
20.47,-0.176,0.954,-0.133
20.48,-0.263,0.986,-0.184
20.49,-0.22,1.137,0.156
20.5,-0.011,0.715,0.163
20.51,-0.284,1.07,0.002
20.52,-0.359,0.899,-0.183
20.53,-0.089,1.165,-0.038
20.54,-0.278,0.824,0.129
20.55,-0.095,0.88,0.165
20.56,-0.35,1.068,-0.186
20.57,-0.279,0.866,-0.087
20.58,-0.059,1.307,0.05
20.59,-0.049,0.596,0.11
20.6,-0.331,1.057,0.05
20.61,-0.306,0.996,-0.22
20.62,-0.154,1.061,0.013
20.63,-0.252,0.93,0.162
20.64,-0.055,0.758,0.091
20.65,-0.48,1.147,-0.199
20.66,-0.126,0.82,-0.079
20.67,-0.09,1.262,0.091
20.68,-0.155,0.661,0.141
20.69,-0.338,1.033,-0.046
20.7,-0.231,1.011,-0.201
20.71,-0.184,1.011,0.052
20.72,-0.144,1.077,0.143
20.73,-0.048,0.705,0.059
20.74,-0.538,1.221,-0.157
20.75,-0.114,0.864,-0.028
20.76,-0.159,1.163,0.071
20.77,-0.191,0.716,0.175
20.78,-0.265,0.99,-0.055
20.79,-0.305,1.069,-0.224
20.8,-0.112,0.901,0.127
20.81,-0.021,1.134,0.094
20.82,-0.142,0.652,-0.001
20.83,-0.447,1.259,-0.179
20.84,0.004,0.902,-0.067
20.85,-0.247,1.061,0.099
20.86,-0.161,0.864,0.182
20.87,-0.339,0.89,-0.154
20.88,-0.264,1.11,-0.143
20.89,0.045,0.955,0.073
20.9,-0.135,1.057,0.107
20.91,-0.231,0.614,0.038
20.92,-0.336,1.322,-0.17
20.93,-0.07,0.959,-0.061
20.94,-0.22,0.957,0.164
20.95,-0.112,0.914,0.093
20.96,-0.418,0.808,-0.174
20.97,-0.236,1.227,-0.088
20.98,-0.008,0.882,0.078
20.99,-0.209,0.956,0.156
21.0,-0.268,0.736,0.039
21.01,-0.351,1.205,-0.171
21.02,-0.097,0.973,-0.059
21.03,-0.151,0.879,0.213
21.04,-0.177,0.988,0.073
21.05,-0.424,0.787,-0.168
21.06,-0.111,1.274,-0.076
21.07,-0.044,0.769,0.087
21.08,-0.226,1.01,0.178
21.09,-0.262,0.805,-0.063
21.1,-0.342,1.143,-0.172
21.11,-0.076,0.97,0.057
21.12,-0.063,0.958,0.114
21.13,-0.203,0.944,0.007
21.14,-0.448,0.854,-0.164
21.15,-0.154,1.297,-0.045
21.16,-0.133,0.731,0.139
21.17,-0.177,0.983,0.135
21.18,-0.291,0.877,-0.152
21.19,-0.224,1.043,-0.16
21.2,-0.031,1.072,0.036
21.21,-0.126,0.716,0.152
21.22,-0.263,1.078,0.007
21.23,-0.385,0.945,-0.173
21.24,-0.22,1.156,0.025
21.25,-0.15,0.747,0.153
21.26,-0.076,0.989,0.096
21.27,-0.386,0.953,-0.164
21.28,-0.248,0.939,-0.077
21.29,-0.073,1.185,0.072
21.3,-0.108,0.639,0.147
21.31,-0.331,1.112,-0.002
21.32,-0.312,0.891,-0.219
21.33,-0.215,1.153,0.039
21.34,-0.135,0.869,0.131
21.35,-0.129,0.875,0.064
21.36,-0.406,1.085,-0.203
21.37,-0.108,0.892,-0.051
21.38,-0.136,1.206,0.069
21.39,-0.187,0.634,0.182
21.4,-0.3,1.15,-0.094
21.41,-0.321,0.836,-0.212
21.42,-0.074,1.079,0.084
21.43,-0.158,1.006,0.132
21.44,-0.142,0.725,0.04
21.45,-0.402,1.216,-0.212
21.46,-0.112,0.865,-0.073
21.47,-0.195,1.139,0.113
21.48,-0.109,0.734,0.16
21.49,-0.39,1.053,-0.149
21.5,-0.21,0.875,-0.189
21.51,-0.066,1.104,0.125
21.52,-0.176,1.027,0.135
21.53,-0.137,0.649,0.003
21.54,-0.458,1.315,-0.175
21.55,-0.053,0.878,-0.064
21.56,-0.235,1.082,0.094
21.57,-0.112,0.745,0.197
21.58,-0.429,1.031,-0.163
21.59,-0.227,1.0,-0.159
21.6,-0.036,1.006,0.151
21.61,-0.215,1.058,0.137
21.62,-0.215,0.594,0.018
21.63,-0.335,1.38,-0.195
21.64,-0.107,0.864,-0.062
21.65,-0.196,1.036,0.18
21.66,-0.103,0.835,0.133
21.67,-0.503,0.89,-0.209
21.68,-0.161,1.123,-0.071
21.69,-0.019,0.878,0.072
21.7,-0.268,1.003,0.123
21.71,-0.15,0.732,-0.032
21.72,-0.358,1.283,-0.202
21.73,-0.145,0.901,0.031
21.74,-0.101,1.006,0.128
21.75,-0.156,0.874,0.015
21.76,-0.42,0.868,-0.161
21.77,-0.145,1.272,-0.039
21.78,-0.069,0.793,0.101
21.79,-0.143,1.023,0.141
21.8,-0.301,0.787,-0.063
21.81,-0.351,1.099,-0.165
21.82,-0.143,1.026,0.064
21.83,-0.094,0.901,0.164
21.84,-0.17,0.974,-0.007
21.85,-0.447,0.853,-0.154
21.86,-0.148,1.247,-0.031
21.87,-0.133,0.757,0.077
21.88,-0.141,1.094,0.159
21.89,-0.336,0.798,-0.175
21.9,-0.28,1.114,-0.13
21.91,-0.036,1.013,0.062
21.92,-0.115,0.795,0.129
21.93,-0.227,0.995,-0.022
21.94,-0.367,0.946,-0.164
21.95,-0.13,1.154,-0.005
21.96,-0.124,0.797,0.129
21.97,-0.192,1.039,0.089
21.98,-0.302,0.818,-0.204
21.99,-0.237,1.113,-0.046
22.0,-0.122,1.093,0.088
22.01,-0.073,0.706,0.115
22.02,-0.318,1.088,0.012
22.03,-0.33,0.897,-0.17
22.04,-0.097,1.252,0.006
22.05,-0.21,0.776,0.171
22.06,-0.096,0.974,0.088
22.07,-0.315,0.998,-0.218
22.08,-0.218,0.985,-0.006
22.09,-0.084,1.117,0.066
22.1,-0.138,0.648,0.105
22.11,-0.3,1.159,-0.074
22.12,-0.237,0.871,-0.188
22.13,-0.219,1.188,0.129
22.14,-0.125,0.868,0.163
22.15,-0.14,0.865,0.028
22.16,-0.441,1.098,-0.184
22.17,-0.108,0.934,-0.042
22.18,-0.103,1.104,0.035
22.19,-0.084,0.694,0.203
22.2,-0.406,1.168,-0.11
22.21,-0.267,0.854,-0.182
22.22,-0.026,1.167,0.076
22.23,-0.159,0.891,0.129
22.24,-0.264,0.744,0.083
22.25,-0.337,1.3,-0.222
22.26,-0.081,0.808,-0.063
22.27,-0.243,1.147,0.176
22.28,-0.038,0.754,0.156
22.29,-0.521,1.071,-0.141
22.3,-0.185,0.908,-0.132
22.31,-0.089,1.154,0.08
22.32,-0.206,0.889,0.125
22.33,-0.191,0.705,0.048
22.34,-0.427,1.335,-0.231
22.35,-0.069,0.735,-0.021
22.36,-0.119,1.161,0.157
22.37,-0.142,0.801,0.091
22.38,-0.394,0.991,-0.166
22.39,-0.15,1.059,-0.102
22.4,-0.05,1.021,0.088
22.41,-0.17,0.99,0.147
22.42,-0.217,0.71,-0.009
22.43,-0.44,1.32,-0.188
22.44,-0.086,0.844,0.03
22.45,-0.16,1.113,0.183
22.46,-0.113,0.824,0.084
22.47,-0.464,0.925,-0.15
22.48,-0.179,1.138,-0.054
22.49,-0.017,0.879,0.078
22.5,-0.219,1.009,0.145
22.51,-0.257,0.731,-0.038
22.52,-0.334,1.265,-0.166
22.53,-0.205,0.935,0.053
22.54,-0.093,0.974,0.14
22.55,-0.154,0.883,0.029
22.56,-0.434,0.942,-0.15
22.57,-0.145,1.217,-0.056
22.58,-0.097,0.729,0.045
22.59,-0.183,1.056,0.213
22.6,-0.291,0.814,-0.129
22.61,-0.291,1.051,-0.174
22.62,-0.173,1.049,0.086
22.63,-0.077,0.888,0.144
22.64,-0.233,0.938,-0.018
22.65,-0.323,0.886,-0.157
22.66,-0.166,1.282,-0.048
22.67,-0.151,0.676,0.074
22.68,-0.174,1.031,0.15
22.69,-0.345,0.745,-0.18
22.7,-0.251,1.162,-0.051
22.71,-0.025,1.01,0.053
22.72,-0.116,0.795,0.156
22.73,-0.294,0.969,0.012
22.74,-0.252,0.958,-0.202
22.75,-0.113,1.212,-0.029
22.76,-0.188,0.712,0.2
22.77,-0.16,1.016,0.095
22.78,-0.372,0.86,-0.259
22.79,-0.15,1.102,-0.037
22.8,-0.107,1.054,0.063
22.81,-0.159,0.676,0.139
22.82,-0.256,1.131,-0.027
22.83,-0.298,0.853,-0.208
22.84,-0.233,1.157,0.049
22.85,-0.053,0.85,0.127
22.86,-0.157,0.938,0.035
22.87,-0.399,0.907,-0.166
22.88,-0.016,1.028,-0.083
22.89,-0.113,1.106,0.063
22.9,-0.197,0.808,0.245
22.91,-0.326,1.119,-0.15
22.92,-0.257,0.796,-0.19
22.93,-0.134,1.348,0.11
22.94,-0.073,0.669,0.148
22.95,-0.311,0.985,0.023
22.96,-0.318,1.022,-0.185
22.97,-0.108,1.027,-0.074
22.98,-0.257,0.97,0.173
22.99,-0.116,0.749,0.186
23.0,-0.441,1.173,-0.172
23.01,-0.222,0.761,-0.104
23.02,-0.113,1.302,0.073
23.03,-0.047,0.629,0.108
23.04,-0.339,0.96,0.052
23.05,-0.312,1.12,-0.24
23.06,-0.101,0.869,-0.067
23.07,-0.195,1.05,0.187
23.08,-0.048,0.74,0.101
23.09,-0.46,1.157,-0.192
23.1,-0.21,0.809,-0.073
23.11,-0.094,1.256,0.072
23.12,-0.074,0.727,0.119
23.13,-0.317,0.886,0.01
23.14,-0.309,1.212,-0.205
23.15,-0.09,0.814,-0.013
23.16,-0.214,1.133,0.167
23.17,-0.007,0.7,0.079
23.18,-0.494,1.153,-0.225
23.19,-0.21,0.884,-0.018
23.2,-0.11,1.152,0.063
23.21,-0.072,0.833,0.098
23.22,-0.263,0.858,-0.029
23.23,-0.386,1.215,-0.202
23.24,-0.122,0.811,0.014
23.25,-0.12,1.22,0.157
23.26,-0.041,0.649,0.043
23.27,-0.483,1.152,-0.167
23.28,-0.115,1.059,-0.054
23.29,-0.149,0.962,0.064
23.3,-0.196,0.876,0.172
23.31,-0.268,0.781,-0.079
23.32,-0.292,1.239,-0.188
23.33,-0.155,0.837,0.088
23.34,-0.103,1.165,0.163
23.35,-0.146,0.677,0.046
23.36,-0.438,1.052,-0.135
23.37,-0.108,1.172,-0.094
23.38,-0.176,0.783,0.064
23.39,-0.143,0.996,0.218
23.4,-0.306,0.822,-0.159
23.41,-0.281,1.153,-0.198
23.42,-0.039,0.976,0.134
23.43,-0.222,1.011,0.144
23.44,-0.214,0.771,0.005
23.45,-0.34,1.07,-0.163
23.46,-0.162,1.156,-0.081
23.47,-0.169,0.756,0.144
23.48,-0.13,1.071,0.161
23.49,-0.336,0.743,-0.158
23.5,-0.282,1.263,-0.017
23.51,-0.022,0.913,0.055
23.52,-0.182,0.929,0.15
23.53,-0.254,0.86,0.006
23.54,-0.293,1.098,-0.259
23.55,-0.108,0.994,-0.05
23.56,-0.093,0.821,0.199
23.57,-0.115,1.083,0.074
23.58,-0.427,0.748,-0.192
23.59,-0.205,1.249,-0.08
23.6,-0.09,0.87,0.089
23.61,-0.19,0.857,0.149
23.62,-0.219,0.973,-0.067
23.63,-0.348,0.923,-0.213
23.64,-0.124,1.145,0.047
23.65,-0.093,0.846,0.142
23.66,-0.176,0.996,0.076
23.67,-0.341,0.859,-0.178
23.68,-0.088,1.203,-0.079
23.69,-0.183,0.873,0.078
23.7,-0.136,0.772,0.193
23.71,-0.375,1.097,-0.062
23.72,-0.227,0.817,-0.177
23.73,-0.142,1.243,0.029
23.74,-0.123,0.781,0.185
23.75,-0.189,1.003,0.045
23.76,-0.335,0.905,-0.225
23.77,-0.08,1.075,-0.083
23.78,-0.121,0.976,0.097
23.79,-0.284,0.742,0.215
23.8,-0.332,1.125,-0.094
23.81,-0.191,0.802,-0.16
23.82,-0.184,1.292,0.125
23.83,-0.026,0.745,0.098
23.84,-0.18,0.95,0.009
23.85,-0.407,1.052,-0.163
23.86,-0.068,0.98,-0.104
23.87,-0.143,1.051,0.088
23.88,-0.075,0.693,0.151
23.89,-0.412,1.192,-0.15
23.9,-0.187,0.803,-0.165
23.91,-0.148,1.25,0.084
23.92,-0.114,0.753,0.14
23.93,-0.212,0.878,-0.005
23.94,-0.408,1.192,-0.201
23.95,-0.022,0.856,-0.024
23.96,-0.144,1.169,0.107
23.97,-0.128,0.679,0.136
23.98,-0.444,1.143,-0.165
23.99,-0.189,0.919,-0.075
24.0,-0.138,1.196,0.095
24.01,-0.11,0.773,0.132
24.02,-0.301,0.794,0.035
24.03,-0.297,1.278,-0.213
24.04,-0.108,0.797,-0.023
24.05,-0.153,1.196,0.181
24.06,-0.079,0.677,0.073
24.07,-0.51,1.101,-0.157
24.08,-0.19,1.006,-0.009
24.09,-0.044,1.017,0.025
24.1,-0.195,0.882,0.154
24.11,-0.232,0.806,-0.05
24.12,-0.374,1.24,-0.189
24.13,-0.14,0.808,0.047
24.14,-0.107,1.165,0.145
24.15,-0.167,0.743,0.035
24.16,-0.405,1.047,-0.184
24.17,-0.165,1.127,-0.019
24.18,-0.135,0.875,0.084
24.19,-0.156,0.994,0.167
24.2,-0.235,0.792,-0.104
24.21,-0.346,1.184,-0.137
24.22,-0.105,0.897,0.104
24.23,-0.099,1.085,0.149
24.24,-0.166,0.793,0.022
24.25,-0.489,1.001,-0.114
24.26,-0.084,1.215,-0.066
24.27,-0.154,0.719,0.141
24.28,-0.215,1.044,0.209
24.29,-0.319,0.794,-0.181
24.3,-0.231,1.134,-0.164
24.31,-0.022,0.945,0.083
24.32,-0.122,0.958,0.13
24.33,-0.297,0.818,0.007
24.34,-0.323,1.085,-0.196
24.35,-0.064,1.094,-0.065
24.36,-0.187,0.804,0.187
24.37,-0.18,1.021,0.097
24.38,-0.293,0.783,-0.2
24.39,-0.256,1.269,-0.034
24.4,-0.118,0.893,0.099
24.41,-0.171,0.865,0.154
24.42,-0.255,0.969,-0.063
24.43,-0.36,0.945,-0.18
24.44,-0.163,1.179,0.061
24.45,-0.113,0.823,0.124
24.46,-0.144,0.976,0.04
24.47,-0.379,0.87,-0.146
24.48,-0.137,1.208,-0.14
24.49,-0.058,0.824,0.043
24.5,-0.16,0.832,0.205
24.51,-0.347,1.101,-0.113
24.52,-0.29,0.798,-0.171
24.53,-0.137,1.256,0.047
24.54,-0.12,0.753,0.134
24.55,-0.15,0.983,0.028
24.56,-0.336,1.03,-0.172
24.57,-0.239,1.078,-0.001
24.58,-0.15,0.922,0.065
24.59,-0.095,0.78,0.182
24.6,-0.374,1.142,-0.165
24.61,-0.231,0.765,-0.136
24.62,-0.144,1.305,0.099
24.63,-0.12,0.739,0.127
24.64,-0.237,0.923,0.006
24.65,-0.352,1.109,-0.162
24.66,-0.146,0.939,-0.015
24.67,-0.194,1.009,0.106
24.68,0.033,0.742,0.098
24.69,-0.495,1.189,-0.153
24.7,-0.223,0.784,-0.051
24.71,-0.152,1.306,0.073
24.72,-0.14,0.732,0.106
24.73,-0.231,0.898,0.063
24.74,-0.37,1.18,-0.232
24.75,-0.102,0.834,-0.012
24.76,-0.087,1.158,0.106
24.77,-0.102,0.662,0.109
24.78,-0.61,1.18,-0.172
24.79,0.004,0.91,-0.113
24.8,-0.088,1.121,0.059
24.81,-0.173,0.828,0.184
24.82,-0.206,0.856,-0.032
24.83,-0.398,1.178,-0.178
24.84,-0.146,0.854,0.089
24.85,-0.096,1.241,0.074
24.86,-0.135,0.619,0.027
24.87,-0.448,1.165,-0.127
24.88,-0.103,1.078,-0.087
24.89,-0.156,0.918,0.083
24.9,-0.146,0.911,0.18
24.91,-0.294,0.81,-0.067
24.92,-0.421,1.18,-0.154
24.93,-0.077,0.838,0.109
24.94,-0.16,1.194,0.14
24.95,-0.184,0.661,0.004
24.96,-0.386,1.105,-0.123
24.97,-0.071,1.161,-0.099
24.98,-0.166,0.775,0.133
24.99,-0.091,1.059,0.153
25.0,-0.314,0.764,-0.182
25.01,-0.335,1.152,-0.141
25.02,-0.04,0.961,0.124
25.03,-0.196,1.024,0.12
25.04,-0.227,0.768,-0.019
25.05,-0.374,1.056,-0.127
25.06,-0.15,1.146,-0.056
25.07,-0.165,0.701,0.136
25.08,-0.106,1.104,0.13
25.09,-0.34,0.774,-0.203
25.1,-0.325,1.166,-0.056
25.11,-0.046,1.01,0.075
25.12,-0.172,0.822,0.122
25.13,-0.156,0.844,-0.03
25.14,-0.389,1.131,-0.175
25.15,-0.195,1.066,0.033
25.16,-0.047,0.845,0.138
25.17,-0.215,1.003,0.047
25.18,-0.388,0.819,-0.153
25.19,-0.148,1.309,-0.067
25.2,-0.139,0.772,0.097
25.21,-0.193,0.919,0.227
25.22,-0.29,0.996,-0.124
25.23,-0.347,0.854,-0.179
25.24,-0.087,1.201,0.047
25.25,-0.083,0.779,0.095
25.26,-0.209,1.019,0.047
25.27,-0.376,0.891,-0.166
25.28,-0.181,1.161,-0.096
25.29,-0.134,0.808,0.103
25.3,-0.142,0.848,0.171
25.31,-0.342,1.064,-0.151
25.32,-0.25,0.807,-0.165
25.33,-0.058,1.314,0.106
25.34,-0.07,0.757,0.113
25.35,-0.224,0.978,0.019
25.36,-0.318,1.006,-0.157
25.37,-0.161,1.156,-0.059
25.38,-0.194,0.85,0.094
25.39,-0.142,0.795,0.167
25.4,-0.449,1.169,-0.148
25.41,-0.205,0.756,-0.1
25.42,-0.102,1.339,0.103
25.43,-0.088,0.706,0.1
25.44,-0.255,0.95,-0.043
25.45,-0.255,1.088,-0.182
25.46,-0.086,0.999,-0.024
25.47,-0.261,0.983,0.161
25.48,-0.072,0.725,0.102
25.49,-0.469,1.199,-0.196
25.5,-0.267,0.801,-0.007
25.51,-0.031,1.234,0.114
25.52,-0.151,0.721,0.126
25.53,-0.314,0.945,-0.014
25.54,-0.264,1.14,-0.226
25.55,-0.19,0.883,0.053
25.56,-0.161,1.125,0.169
25.57,-0.055,0.654,0.02
25.58,-0.521,1.236,-0.159
25.59,-0.147,0.899,-0.025
25.6,-0.125,1.07,0.095
25.61,-0.165,0.824,0.127
25.62,-0.325,0.894,-0.064
25.63,-0.246,1.142,-0.194
25.64,-0.124,0.892,0.096
25.65,-0.125,1.138,0.146
25.66,-0.145,0.599,-0.023
25.67,-0.462,1.207,-0.149
25.68,-0.068,1.003,-0.035
25.69,-0.131,0.911,0.1
25.7,-0.146,0.967,0.184
25.71,-0.401,0.821,-0.15
25.72,-0.315,1.152,-0.164
25.73,0.048,0.928,0.079
25.74,-0.151,1.025,0.131
25.75,-0.308,0.699,0.054
25.76,-0.284,1.159,-0.214
25.77,-0.089,1.022,-0.042
25.78,-0.2,0.775,0.201
25.79,-0.075,1.048,0.068
25.8,-0.357,0.788,-0.278
25.81,-0.176,1.173,-0.056
25.82,-0.044,0.897,0.108
25.83,-0.17,0.916,0.122
25.84,-0.22,0.906,-0.002
25.85,-0.34,1.062,-0.195
25.86,-0.143,1.055,0.029
25.87,-0.085,0.811,0.174
25.88,-0.181,1.05,0.07
25.89,-0.404,0.817,-0.215
25.9,-0.101,1.185,-0.086
25.91,-0.099,0.841,0.092
25.92,-0.241,0.889,0.228
25.93,-0.24,1.001,-0.127
25.94,-0.269,0.995,-0.174
25.95,-0.006,1.174,0.065
25.96,-0.078,0.753,0.101
25.97,-0.312,0.97,0.004
25.98,-0.313,0.953,-0.149
25.99,-0.079,1.204,-0.071
26.0,-0.272,0.711,0.195
26.01,-0.127,0.977,0.151
26.02,-0.385,0.961,-0.228
26.03,-0.26,0.958,-0.027
26.04,-0.033,1.237,0.088
26.05,-0.153,0.594,0.104
26.06,-0.31,1.074,0.024
26.07,-0.239,0.969,-0.217
26.08,-0.146,1.108,-0.043
26.09,-0.163,0.819,0.189
26.1,-0.115,0.874,0.099
26.11,-0.453,1.099,-0.21
26.12,-0.116,0.88,-0.013
26.13,-0.162,1.243,0.104
26.14,-0.204,0.625,0.182
26.15,-0.297,1.111,-0.045
26.16,-0.226,0.934,-0.206
26.17,-0.102,1.093,-0.019
26.18,-0.087,0.953,0.143
26.19,-0.083,0.717,0.034
26.2,-0.576,1.221,-0.15
26.21,0.025,0.851,-0.086
26.22,-0.151,1.165,0.032
26.23,-0.204,0.71,0.24
26.24,-0.288,1.069,-0.14
26.25,-0.267,0.939,-0.187
26.26,-0.041,1.101,0.108
26.27,-0.048,1.0,0.07
26.28,-0.268,0.637,0.036
26.29,-0.43,1.369,-0.132
26.3,-0.088,0.85,-0.069
26.31,-0.271,1.055,0.169
26.32,-0.04,0.818,0.167
26.33,-0.431,0.998,-0.201
26.34,-0.3,1.011,-0.07
26.35,-0.069,1.017,0.138
26.36,-0.144,1.023,0.095
26.37,-0.291,0.658,0.021
26.38,-0.292,1.314,-0.184
26.39,-0.119,0.876,-0.02
26.4,-0.22,1.028,0.176
26.41,-0.036,0.881,0.106
26.42,-0.451,0.892,-0.164
26.43,-0.263,1.174,-0.086
26.44,0.007,0.894,0.07
26.45,-0.179,0.985,0.141
26.46,-0.308,0.716,-0.001
26.47,-0.236,1.26,-0.223
26.48,-0.179,0.93,-0.031
26.49,-0.115,0.971,0.221
26.5,-0.081,0.952,0.04
26.51,-0.469,0.853,-0.179
26.52,-0.168,1.275,-0.023
26.53,-0.064,0.792,0.075
26.54,-0.266,1.014,0.151
26.55,-0.211,0.789,-0.044
26.56,-0.332,1.147,-0.177
26.57,-0.17,1.008,0.088
26.58,-0.071,0.845,0.14
26.59,-0.199,0.985,0.043
26.6,-0.457,0.86,-0.155
26.61,-0.104,1.271,-0.069
26.62,-0.125,0.734,0.076
26.63,-0.209,0.979,0.191
26.64,-0.226,0.902,-0.136
26.65,-0.398,0.932,-0.116
26.66,-0.115,1.183,0.14
26.67,-0.075,0.797,0.105
26.68,-0.267,0.969,-0.017
26.69,-0.349,0.93,-0.16
26.7,-0.143,1.228,-0.032
26.71,-0.185,0.729,0.092
26.72,-0.11,0.956,0.193
26.73,-0.392,1.023,-0.166
26.74,-0.31,0.888,-0.066
26.75,-0.019,1.119,0.061
26.76,-0.161,0.675,0.12
26.77,-0.302,1.077,0.008
26.78,-0.285,0.915,-0.213
26.79,-0.166,1.189,0.027
26.8,-0.13,0.812,0.172
26.81,-0.126,0.926,0.074
26.82,-0.403,0.99,-0.181
26.83,-0.182,1.027,-0.033
26.84,-0.112,1.09,0.042
26.85,-0.172,0.679,0.136
26.86,-0.271,1.185,-0.096
26.87,-0.26,0.814,-0.195
26.88,-0.141,1.177,0.097
26.89,-0.009,0.856,0.102
26.9,-0.24,0.85,0.01
26.91,-0.376,1.053,-0.164
26.92,-0.051,0.944,-0.063
26.93,-0.171,1.061,0.073
26.94,-0.116,0.675,0.196
26.95,-0.364,1.183,-0.196
26.96,-0.281,0.842,-0.177
26.97,-0.017,1.227,0.109
26.98,-0.095,0.903,0.122
26.99,-0.271,0.752,-0.017
27.0,-0.341,1.298,-0.164
27.01,-0.104,0.842,-0.072
27.02,-0.242,1.108,0.151
27.03,-0.023,0.708,0.138
27.04,-0.504,1.091,-0.184
27.05,-0.222,0.95,-0.074
27.06,-0.001,1.106,0.064
27.07,-0.152,0.893,0.114
27.08,-0.234,0.75,0.024
27.09,-0.328,1.325,-0.204
27.1,-0.124,0.791,0.019
27.11,-0.183,1.121,0.182
27.12,-0.04,0.757,0.046
27.13,-0.475,1.037,-0.178
27.14,-0.157,1.031,-0.07
27.15,0.002,0.929,0.054
27.16,-0.249,1.001,0.148
27.17,-0.234,0.698,-0.018
27.18,-0.369,1.24,-0.193
27.19,-0.096,0.863,0.058
27.2,-0.104,1.161,0.132
27.21,-0.18,0.767,0.035
27.22,-0.386,0.945,-0.166
27.23,-0.082,1.246,-0.061
27.24,-0.106,0.744,0.127
27.25,-0.225,1.039,0.171
27.26,-0.269,0.781,-0.128
27.27,-0.277,1.14,-0.178
27.28,-0.101,1.001,0.128
27.29,-0.061,0.928,0.098
27.3,-0.265,0.877,-0.003
27.31,-0.351,0.987,-0.145
27.32,-0.178,1.22,-0.02
27.33,-0.174,0.699,0.126
27.34,-0.153,1.077,0.146
27.35,-0.325,0.802,-0.197
27.36,-0.241,1.066,-0.065
27.37,-0.041,1.124,0.075
27.38,-0.13,0.747,0.129
27.39,-0.25,1.005,-0.002
27.4,-0.321,0.972,-0.222
27.41,-0.109,1.202,-0.031
27.42,-0.18,0.719,0.174
27.43,-0.143,0.99,0.092
27.44,-0.393,0.904,-0.181
27.45,-0.214,0.994,-0.038
27.46,-0.086,1.107,0.073
27.47,-0.073,0.665,0.119
27.48,-0.358,1.161,-0.034
27.49,-0.241,0.896,-0.203
27.5,-0.182,1.19,0.009
27.51,-0.149,0.792,0.187
27.52,-0.14,0.927,0.076
27.53,-0.388,1.072,-0.268
27.54,-0.186,0.923,-0.026
27.55,-0.123,1.162,0.09
27.56,-0.167,0.676,0.151
27.57,-0.316,1.137,-0.134
27.58,-0.194,0.81,-0.157
27.59,-0.199,1.257,0.115
27.6,-0.092,0.716,0.141
27.61,-0.256,0.969,0.028
27.62,-0.437,1.037,-0.18
27.63,-0.118,0.975,0.001
27.64,-0.186,1.063,0.09
27.65,-0.097,0.713,0.156
27.66,-0.406,1.176,-0.169
27.67,-0.25,0.813,-0.116
27.68,-0.023,1.264,0.057
27.69,-0.102,0.716,0.114
27.7,-0.269,0.88,0.032
27.71,-0.368,1.122,-0.214
27.72,-0.083,0.859,0.036
27.73,-0.249,1.183,0.155
27.74,-0.077,0.674,0.089
27.75,-0.41,1.205,-0.169
27.76,-0.229,0.869,-0.093
27.77,-0.011,1.151,0.058
27.78,-0.103,0.863,0.115
27.79,-0.312,0.804,-0.039
27.8,-0.317,1.189,-0.19
27.81,-0.083,0.877,0.049
27.82,-0.205,1.147,0.167
27.83,-0.114,0.683,0.032
27.84,-0.522,1.165,-0.209
27.85,-0.174,0.961,-0.011
27.86,-0.229,0.916,0.179
27.87,-0.307,0.873,-0.209
27.88,-0.196,1.001,-0.149
27.89,-0.064,1.113,0.101
27.9,-0.065,0.701,0.135
27.91,-0.365,1.059,-0.014
27.92,-0.246,0.905,-0.212
27.93,-0.043,1.216,-0.014
27.94,-0.153,0.788,0.179
27.95,-0.132,0.916,0.046
27.96,-0.333,0.986,-0.212
27.97,-0.112,0.985,-0.063
27.98,-0.174,1.133,0.111
27.99,-0.173,0.661,0.202
28.0,-0.346,1.204,-0.078
28.01,-0.237,0.836,-0.189
28.02,-0.153,1.231,0.101
28.03,-0.069,0.809,0.099
28.04,-0.159,0.841,0.021
28.05,-0.44,1.188,-0.187
28.06,-0.098,0.828,-0.077
28.07,-0.167,1.117,0.109
28.08,-0.118,0.662,0.145
28.09,-0.417,1.131,-0.149
28.1,-0.217,0.869,-0.076
28.11,-0.052,1.229,0.049
28.12,-0.197,0.822,0.147
28.13,-0.164,0.743,0.018
28.14,-0.459,1.314,-0.21
28.15,-0.101,0.8,0.022
28.16,-0.161,1.208,0.113
28.17,-0.112,0.717,0.105
28.18,-0.411,1.028,-0.185
28.19,-0.24,0.985,-0.066
28.2,-0.007,1.061,0.093
28.21,-0.158,0.934,0.126
28.22,-0.267,0.721,0.012
28.23,-0.372,1.306,-0.23
28.24,-0.037,0.813,-0.001
28.25,-0.204,1.188,0.202
28.26,-0.087,0.729,0.057
28.27,-0.463,1.019,-0.167
28.28,-0.14,1.129,-0.044
28.29,-0.135,0.873,0.152
28.3,-0.224,1.009,0.192
28.31,-0.233,0.759,-0.087
28.32,-0.27,1.155,-0.154
28.33,-0.068,0.938,0.125
28.34,-0.177,1.082,0.16
28.35,-0.185,0.673,0.017
28.36,-0.416,1.211,-0.168
28.37,-0.089,1.018,-0.058
28.38,-0.157,0.893,0.198
28.39,-0.131,0.995,0.137
28.4,-0.384,0.741,-0.155
28.41,-0.201,1.266,-0.118
28.42,-0.039,0.93,0.052
28.43,-0.127,0.984,0.166
28.44,-0.238,0.789,-0.035
28.45,-0.355,1.091,-0.168
28.46,-0.085,1.071,-0.0
28.47,-0.126,0.808,0.111
28.48,-0.181,1.044,0.09
28.49,-0.336,0.769,-0.165
28.5,-0.249,1.21,-0.058
28.51,-0.102,0.891,0.096
28.52,-0.086,0.879,0.161
28.53,-0.28,0.971,-0.051
28.54,-0.38,0.944,-0.146
28.55,-0.037,1.176,0.0
28.56,-0.176,0.788,0.163
28.57,-0.176,1.002,0.083
28.58,-0.321,0.902,-0.212
28.59,-0.201,1.178,-0.103
28.6,-0.1,0.834,0.087
28.61,-0.067,0.865,0.162
28.62,-0.464,1.056,-0.111
28.63,-0.274,0.844,-0.119
28.64,-0.103,1.302,0.028
28.65,-0.156,0.701,0.132
28.66,-0.189,0.99,0.034
28.67,-0.335,0.984,-0.22
28.68,-0.143,1.102,-0.049
28.69,-0.144,0.897,0.101
28.7,-0.056,0.774,0.155
28.71,-0.498,1.141,-0.151
28.72,-0.198,0.78,-0.133
28.73,-0.084,1.373,0.08
28.74,-0.217,0.676,0.147
28.75,-0.202,0.923,0.017
28.76,-0.276,1.133,-0.23
28.77,-0.098,0.936,-0.029
28.78,-0.19,0.983,0.174
28.79,-0.129,0.729,0.089
28.8,-0.518,1.171,-0.213
28.81,-0.223,0.796,0.01
28.82,-0.097,1.259,0.091
28.83,-0.207,0.725,0.12
28.84,-0.231,0.949,-0.018
28.85,-0.342,1.126,-0.237
28.86,-0.076,0.898,0.014
28.87,-0.106,1.157,0.126
28.88,-0.143,0.634,0.031
28.89,-0.509,1.274,-0.147
28.9,-0.154,0.901,-0.08
28.91,-0.206,1.037,0.089
28.92,-0.074,0.843,0.162
28.93,-0.35,0.882,-0.122
28.94,-0.28,1.109,-0.138
28.95,-0.089,0.933,0.088
28.96,-0.115,1.103,0.103
28.97,-0.152,0.605,0.06
28.98,-0.445,1.317,-0.181
28.99,-0.116,0.981,-0.044
29.0,-0.263,0.938,0.184
29.01,-0.161,0.948,0.181
29.02,-0.377,0.804,-0.195
29.03,-0.223,1.171,-0.092
29.04,-0.034,0.928,0.107
29.05,-0.17,1.001,0.097
29.06,-0.141,0.683,-0.001
29.07,-0.462,1.238,-0.158
29.08,-0.111,0.976,-0.021
29.09,-0.107,0.838,0.132
29.1,-0.16,1.02,0.073
29.11,-0.417,0.769,-0.193
29.12,-0.271,1.233,-0.06
29.13,-0.053,0.855,0.075
29.14,-0.19,1.015,0.166
29.15,-0.2,0.758,-0.112
29.16,-0.387,1.166,-0.144
29.17,-0.099,0.98,0.062
29.18,-0.124,0.942,0.135
29.19,-0.172,0.927,-0.003
29.2,-0.435,0.908,-0.139
29.21,-0.234,1.229,-0.022
29.22,-0.119,0.714,0.128
29.23,-0.125,1.055,0.152
29.24,-0.347,0.807,-0.167
29.25,-0.121,1.047,-0.142
29.26,-0.071,1.177,0.084
29.27,-0.223,0.677,0.157
29.28,-0.251,1.029,0.012
29.29,-0.41,0.941,-0.176
29.3,-0.093,1.146,-0.024
29.31,-0.173,0.762,0.145
29.32,-0.176,0.958,0.102
29.33,-0.366,0.942,-0.161
29.34,-0.159,0.992,-0.082
29.35,-0.15,1.146,0.049
29.36,-0.059,0.599,0.123
29.37,-0.305,1.133,-0.027
29.38,-0.416,0.876,-0.183
29.39,-0.075,1.141,0.028
29.4,-0.148,0.909,0.129
29.41,-0.19,0.831,0.097
29.42,-0.401,1.095,-0.209
29.43,-0.119,0.93,-0.112
29.44,-0.053,1.123,0.054
29.45,-0.135,0.688,0.143
29.46,-0.332,1.11,-0.102
29.47,-0.283,0.884,-0.152
29.48,-0.107,1.15,0.08
29.49,-0.162,0.872,0.128
29.5,-0.218,0.802,0.069
29.51,-0.508,1.245,-0.199
29.52,-0.095,0.83,-0.026
29.53,-0.16,1.172,0.133
29.54,-0.134,0.671,0.132
29.55,-0.443,1.088,-0.127
29.56,-0.189,0.927,-0.158
29.57,-0.087,1.075,0.096
29.58,-0.144,0.929,0.139
29.59,-0.184,0.722,-0.013
29.6,-0.478,1.313,-0.159
29.61,-0.053,0.792,0.001
29.62,-0.176,1.204,0.13
29.63,-0.13,0.729,0.105
29.64,-0.414,1.023,-0.191
29.65,-0.187,1.058,-0.057
29.66,-0.059,0.966,0.123
29.67,-0.144,1.01,0.119
29.68,-0.27,0.666,-0.045
29.69,-0.407,1.29,-0.152
29.7,-0.061,0.842,0.04
29.71,-0.231,1.094,0.156
29.72,-0.117,0.756,0.031
29.73,-0.389,0.999,-0.21
29.74,-0.18,1.153,-0.042
29.75,-0.017,0.783,0.084
29.76,-0.132,1.055,0.15
29.77,-0.347,0.712,-0.113
29.78,-0.327,1.22,-0.155
29.79,-0.077,0.993,0.118
29.8,-0.143,0.902,0.121
29.81,-0.248,0.904,-0.003
29.82,-0.36,1.0,-0.115
29.83,-0.214,1.168,0.029
29.84,-0.09,0.664,0.163
29.85,-0.121,1.114,0.088
29.86,-0.35,0.811,-0.198
29.87,-0.299,1.086,-0.046
29.88,-0.095,1.031,0.12
29.89,-0.158,0.784,0.15
29.9,-0.279,1.028,-0.074
29.91,-0.309,0.923,-0.194
29.92,-0.106,1.187,0.058
29.93,-0.094,0.763,0.177
29.94,-0.182,0.982,0.056
29.95,-0.335,0.836,-0.197
29.96,-0.098,1.258,-0.057
29.97,-0.119,0.769,0.078
29.98,-0.219,0.868,0.195
29.99,-0.331,1.037,-0.142
30.0,-0.279,0.912,-0.145
30.01,-0.075,1.266,0.081
30.02,-0.104,0.658,0.111
30.03,-0.238,1.023,-0.01
30.04,-0.31,1.01,-0.196
30.05,-0.133,1.119,-0.023
30.06,-0.17,0.837,0.117
30.07,-0.114,0.791,0.082
30.08,-0.479,1.161,-0.231
30.09,-0.229,0.811,-0.013
30.1,-0.053,1.263,0.076
30.11,-0.101,0.623,0.132
30.12,-0.31,1.087,-0.022
30.13,-0.315,1.035,-0.201
30.14,-0.117,0.977,0.048
30.15,-0.094,1.06,0.155
30.16,-0.172,0.677,0.038
30.17,-0.548,1.275,-0.155
30.18,-0.043,0.884,-0.045
30.19,-0.219,1.132,0.091
30.2,-0.092,0.709,0.195
30.21,-0.387,1.042,-0.184
30.22,-0.244,1.012,-0.222
30.23,0.019,1.004,0.048
30.24,-0.114,1.015,0.105
30.25,-0.219,0.647,0.048
30.26,-0.417,1.354,-0.232
30.27,-0.088,0.799,-0.05
30.28,-0.175,1.104,0.157
30.29,-0.094,0.784,0.122
30.3,-0.483,0.96,-0.168
30.31,-0.076,1.197,-0.14
30.32,-0.052,0.846,0.071
30.33,-0.206,1.035,0.158
30.34,-0.183,0.715,-0.079
30.35,-0.36,1.25,-0.164
30.36,-0.1,0.979,0.116
30.37,-0.135,0.953,0.151
30.38,-0.195,0.86,0.015
30.39,-0.368,0.956,-0.192
30.4,-0.208,1.201,-0.04
30.41,-0.037,0.717,0.091
30.42,-0.221,1.06,0.13
30.43,-0.248,0.762,-0.15
30.44,-0.231,1.131,-0.13
30.45,-0.07,1.035,0.086
30.46,-0.086,0.762,0.114
30.47,-0.255,1.017,-0.015
30.48,-0.354,0.936,-0.18
30.49,-0.077,1.175,-0.023
30.5,-0.139,0.758,0.172
30.51,-0.18,1.001,0.087
30.52,-0.339,0.854,-0.189
30.53,-0.168,1.074,-0.019
30.54,-0.168,1.136,0.13
30.55,-0.136,0.644,0.147
30.56,-0.266,1.136,-0.02
30.57,-0.344,0.867,-0.213
30.58,-0.089,1.196,0.05
30.59,-0.116,0.838,0.173
30.6,-0.212,0.902,0.022
30.61,-0.366,1.012,-0.167
30.62,-0.111,0.99,-0.076
30.63,-0.118,1.082,0.08
30.64,-0.133,0.696,0.191
30.65,-0.407,1.171,-0.157
30.66,-0.232,0.808,-0.174
30.67,-0.052,1.25,0.127
30.68,-0.136,0.816,0.115
30.69,-0.237,0.871,0.003
30.7,-0.363,1.208,-0.23
30.71,-0.129,0.801,-0.061
30.72,-0.157,1.124,0.195
30.73,-0.092,0.71,0.118
30.74,-0.481,1.122,-0.183
30.75,-0.19,0.914,-0.013
30.76,-0.159,1.172,0.071
30.77,-0.136,0.696,0.207
30.78,-0.309,0.992,-0.055
30.79,-0.391,1.026,-0.184
30.8,-0.145,0.917,0.067
30.81,-0.023,1.129,0.103
30.82,-0.14,0.635,0.032
30.83,-0.469,1.249,-0.183
30.84,-0.032,0.923,-0.082
30.85,-0.162,1.04,0.078
30.86,-0.095,0.819,0.176
30.87,-0.347,0.951,-0.127
30.88,-0.316,1.102,-0.158
30.89,-0.062,0.926,0.126
30.9,-0.141,1.106,0.106
30.91,-0.21,0.664,0.011
30.92,-0.396,1.303,-0.157
30.93,-0.106,0.926,-0.073
30.94,-0.271,0.926,0.174
30.95,-0.028,0.93,0.183
30.96,-0.443,0.85,-0.213
30.97,-0.271,1.133,-0.035
30.98,0.062,0.92,0.068
30.99,-0.205,1.019,0.112
31.0,-0.231,0.753,-0.007
31.01,-0.296,1.215,-0.233
31.02,-0.135,0.958,-0.008
31.03,-0.09,0.899,0.185
31.04,-0.068,0.973,0.052
31.05,-0.467,0.796,-0.221
31.06,-0.11,1.227,-0.068
31.07,-0.03,0.831,0.114
31.08,-0.265,0.966,0.202
31.09,-0.264,0.862,-0.094
31.1,-0.249,1.044,-0.187
31.11,-0.162,1.106,0.055
31.12,-0.048,0.799,0.135
31.13,-0.188,1.042,-0.003
31.14,-0.388,0.887,-0.148
31.15,-0.17,1.229,-0.007
31.16,-0.139,0.763,0.134
31.17,-0.167,0.936,0.182
31.18,-0.394,0.972,-0.166
31.19,-0.251,0.9,-0.147
31.2,-0.036,1.236,0.066
31.21,-0.143,0.629,0.142
31.22,-0.346,1.059,0.022
31.23,-0.28,0.928,-0.222
31.24,-0.179,1.104,0.006
31.25,-0.163,0.845,0.165
31.26,-0.112,0.851,0.079
31.27,-0.402,1.059,-0.225
31.28,-0.196,0.868,-0.023
31.29,-0.11,1.234,0.06
31.3,-0.107,0.624,0.149
31.31,-0.329,1.114,-0.014
31.32,-0.272,0.898,-0.217
31.33,-0.127,1.086,0.053
31.34,-0.061,0.977,0.144
31.35,-0.179,0.701,0.051
31.36,-0.444,1.23,-0.19
31.37,-0.122,0.889,-0.047
31.38,-0.192,1.139,0.078
31.39,-0.125,0.724,0.209
31.4,-0.351,1.068,-0.136
31.41,-0.322,0.911,-0.143
31.42,0.04,1.069,0.069
31.43,-0.11,1.011,0.098
31.44,-0.216,0.684,0.045
31.45,-0.385,1.318,-0.199
31.46,-0.096,0.846,-0.038
31.47,-0.218,1.147,0.162
31.48,-0.078,0.775,0.131
31.49,-0.422,0.969,-0.164
31.5,-0.211,1.033,-0.119
31.51,0.034,0.999,0.093
31.52,-0.17,0.997,0.099
31.53,-0.221,0.678,0.019
31.54,-0.366,1.34,-0.197
31.55,-0.096,0.818,-0.036
31.56,-0.136,1.061,0.194
31.57,-0.121,0.685,0.016
31.58,-0.452,1.108,-0.163
31.59,-0.099,1.061,-0.085
31.6,-0.126,0.887,0.098
31.61,-0.191,1.002,0.172
31.62,-0.228,0.769,-0.164
31.63,-0.322,1.209,-0.165
31.64,-0.074,0.905,0.12
31.65,-0.156,1.086,0.171
31.66,-0.279,0.735,0.057
31.67,-0.411,1.092,-0.153
31.68,-0.086,1.091,-0.073
31.69,-0.215,0.812,0.166
31.7,-0.082,1.07,0.116
31.71,-0.323,0.734,-0.169
31.72,-0.318,1.242,-0.072
31.73,0.001,0.975,0.084
31.74,-0.194,0.887,0.142
31.75,-0.24,0.857,0.041
31.76,-0.321,1.068,-0.2
31.77,-0.131,1.119,-0.085
31.78,-0.175,0.678,0.205
31.79,-0.149,1.082,0.111
31.8,-0.359,0.814,-0.176
31.81,-0.277,1.136,-0.065
31.82,-0.037,1.015,0.056
31.83,-0.125,0.746,0.103
31.84,-0.367,1.014,0.04
31.85,-0.291,0.944,-0.18
31.86,-0.227,1.172,0.024
31.87,-0.087,0.766,0.212
31.88,-0.157,1.028,0.038
31.89,-0.422,0.899,-0.163
31.9,-0.112,1.106,-0.083
31.91,-0.141,0.979,0.043
31.92,-0.159,0.734,0.194
31.93,-0.337,1.176,-0.095
31.94,-0.307,0.776,-0.155
31.95,-0.22,1.245,0.13
31.96,-0.025,0.767,0.162
31.97,-0.307,0.929,0.023
31.98,-0.465,0.992,-0.126
31.99,-0.097,1.032,-0.077
32.0,-0.199,1.008,0.102
32.01,-0.108,0.659,0.181
32.02,-0.39,1.217,-0.179
32.03,-0.245,0.794,-0.137
32.04,-0.073,1.28,0.07
32.05,-0.105,0.75,0.144
32.06,-0.285,0.885,0.041
32.07,-0.33,1.197,-0.246
32.08,-0.073,0.848,-0.073
32.09,-0.215,1.145,0.173
32.1,-0.065,0.688,0.12
32.11,-0.449,1.147,-0.183
32.12,-0.19,0.894,-0.025
32.13,-0.184,1.213,0.108
32.14,-0.166,0.753,0.149
32.15,-0.249,0.856,0.014
32.16,-0.351,1.198,-0.231
32.17,-0.091,0.797,-0.005
32.18,-0.139,1.204,0.131
32.19,-0.096,0.647,0.076
32.2,-0.415,1.14,-0.177
32.21,-0.133,1.018,-0.085
32.22,-0.116,0.997,0.086
32.23,-0.073,0.874,0.15
32.24,-0.339,0.819,-0.05
32.25,-0.348,1.241,-0.193
32.26,-0.033,0.889,0.02
32.27,-0.21,1.191,0.148
32.28,-0.081,0.654,0.059
32.29,-0.472,1.146,-0.172
32.3,-0.154,1.084,-0.071
32.31,-0.122,0.846,0.092
32.32,-0.21,0.996,0.18
32.33,-0.288,0.777,-0.116
32.34,-0.311,1.189,-0.139
32.35,-0.052,0.916,0.066
32.36,-0.175,1.026,0.129
32.37,-0.117,0.754,0.024
32.38,-0.486,1.079,-0.165
32.39,-0.076,0.993,-0.041
32.4,-0.167,0.907,0.116
32.41,-0.151,0.966,0.128
32.42,-0.363,0.804,-0.156
32.43,-0.289,1.173,-0.081
32.44,0.01,0.913,0.08
32.45,-0.13,0.993,0.113
32.46,-0.26,0.752,-0.014
32.47,-0.357,1.167,-0.186
32.48,-0.099,1.009,-0.049
32.49,-0.117,0.851,0.196
32.5,-0.131,1.05,0.053
32.51,-0.441,0.77,-0.192
32.52,-0.141,1.25,-0.04
32.53,-0.048,0.873,0.079
32.54,-0.298,0.896,0.211
32.55,-0.22,0.896,-0.069
32.56,-0.282,1.02,-0.218
32.57,-0.185,1.096,0.076
32.58,-0.066,0.743,0.15
32.59,-0.214,1.032,0.011
32.6,-0.351,0.876,-0.161
32.61,-0.235,1.17,-0.068
32.62,-0.131,0.873,0.096
32.63,-0.109,0.912,0.167
32.64,-0.343,0.978,-0.144
32.65,-0.229,0.839,-0.139
32.66,-0.097,1.286,0.066
32.67,-0.14,0.676,0.158
32.68,-0.195,1.041,0.057
32.69,-0.376,0.966,-0.175
32.7,-0.155,1.124,-0.041
32.71,-0.123,0.853,0.098
32.72,-0.125,0.809,0.175
32.73,-0.404,1.132,-0.179
32.74,-0.197,0.823,-0.108
32.75,-0.092,1.324,0.052
32.76,-0.115,0.641,0.103
32.77,-0.285,1.013,0.033
32.78,-0.322,1.057,-0.219
32.79,-0.077,0.979,-0.031
32.8,-0.255,0.984,0.173
32.81,-0.084,0.732,0.097
32.82,-0.497,1.196,-0.214
32.83,-0.174,0.792,-0.043
32.84,-0.047,1.287,0.083
32.85,-0.145,0.657,0.124
32.86,-0.338,0.995,0.025
32.87,-0.314,1.131,-0.212
32.88,-0.126,0.869,0.033
32.89,-0.125,1.1,0.142
32.9,-0.095,0.657,0.031
32.91,-0.577,1.262,-0.173
32.92,-0.046,0.892,-0.01
32.93,-0.183,1.134,0.084
32.94,-0.12,0.737,0.205
32.95,-0.364,0.965,-0.099
32.96,-0.219,1.104,-0.213
32.97,-0.112,0.941,0.109
32.98,-0.135,1.101,0.112
32.99,-0.203,0.655,0.035
33.0,-0.455,1.274,-0.157
33.01,-0.164,0.916,-0.016
33.02,-0.184,1.032,0.123
33.03,-0.061,0.885,0.125
33.04,-0.401,0.847,-0.169
33.05,-0.223,1.186,-0.126
33.06,-0.047,0.874,0.067
33.07,-0.096,1.033,0.107
33.08,-0.226,0.722,0.004
33.09,-0.336,1.228,-0.246
33.1,-0.086,0.949,0.005
33.11,-0.238,0.948,0.184
33.12,-0.126,0.938,0.111
33.13,-0.409,0.815,-0.2
33.14,-0.151,1.272,-0.068
33.15,-0.072,0.795,0.056
33.16,-0.191,0.967,0.166
33.17,-0.253,0.842,-0.052
33.18,-0.372,1.091,-0.191
33.19,-0.079,1.062,0.021
33.2,-0.096,0.955,0.114
33.21,-0.208,0.868,0.031
33.22,-0.407,0.924,-0.131
33.23,-0.087,1.255,-0.091
33.24,-0.078,0.701,0.116
33.25,-0.172,1.063,0.165
33.26,-0.336,0.798,-0.15
33.27,-0.271,1.07,-0.113
33.28,-0.032,1.119,0.074
33.29,-0.111,0.768,0.099
33.3,-0.284,1.002,0.004
33.31,-0.341,0.957,-0.156
33.32,-0.116,1.202,-0.028
33.33,-0.134,0.715,0.159
33.34,-0.135,1.031,0.098
33.35,-0.327,0.89,-0.18
33.36,-0.316,1.031,-0.04
33.37,-0.021,1.129,0.069
33.38,-0.088,0.671,0.098
33.39,-0.399,1.116,0.017
33.4,-0.234,0.869,-0.245
33.41,-0.167,1.162,0.001
33.42,-0.101,0.841,0.172
33.43,-0.133,0.898,0.042
33.44,-0.388,1.024,-0.169
33.45,-0.102,0.995,-0.094
33.46,-0.121,1.087,0.044
33.47,-0.092,0.664,0.194
33.48,-0.383,1.199,-0.076
33.49,-0.272,0.767,-0.215
33.5,-0.089,1.219,0.083
33.51,-0.145,0.844,0.117
33.52,-0.226,0.818,0.034
33.53,-0.321,1.25,-0.21
33.54,-0.178,0.836,-0.052
33.55,-0.122,1.117,0.105
33.56,-0.045,0.734,0.159
33.57,-0.438,1.103,-0.168
33.58,-0.166,0.849,-0.123
33.59,-0.142,1.196,0.083
33.6,-0.164,0.852,0.129
33.61,-0.154,0.725,0.015
33.62,-0.422,1.336,-0.217
33.63,-0.052,0.79,-0.038
33.64,-0.211,1.164,0.146
33.65,-0.139,0.694,0.151
33.66,-0.446,1.042,-0.155
33.67,-0.196,0.986,-0.086
33.68,-0.05,1.068,0.066
33.69,-0.155,0.911,0.111
33.7,-0.19,0.714,0.013
33.71,-0.427,1.322,-0.241
33.72,-0.015,0.795,-0.023
33.73,-0.171,1.148,0.168
33.74,-0.185,0.771,0.061
33.75,-0.424,1.0,-0.125
33.76,-0.215,1.136,-0.026
33.77,-0.093,0.877,0.086
33.78,-0.156,0.991,0.134
33.79,-0.237,0.72,-0.06
33.8,-0.4,1.253,-0.187
33.81,-0.0,0.859,0.051
33.82,-0.073,1.09,0.087
33.83,-0.184,0.758,0.006
33.84,-0.395,1.005,-0.135
33.85,-0.11,1.258,-0.093
33.86,-0.2,0.701,0.129
33.87,-0.133,1.068,0.202
33.88,-0.326,0.807,-0.155
33.89,-0.294,1.111,-0.17
33.9,0.02,1.073,0.101
33.91,-0.187,0.885,0.092
33.92,-0.24,0.86,0.021
33.93,-0.261,1.039,-0.224
33.94,-0.159,1.174,-0.075
33.95,-0.208,0.673,0.247
33.96,-0.063,1.056,0.087
33.97,-0.418,0.773,-0.231
33.98,-0.179,1.058,-0.033
33.99,0.038,1.153,0.034
34.0,-0.275,0.651,0.122
34.01,-0.148,1.087,0.031
34.02,-0.373,0.963,-0.25
34.03,-0.261,1.1,0.122
34.04,-0.011,0.836,0.136
34.05,-0.198,1.011,0.014
34.06,-0.412,0.826,-0.122
34.07,-0.027,1.242,-0.113
34.08,-0.172,0.864,0.05
34.09,-0.174,0.766,0.21
34.1,-0.227,1.153,-0.152
34.11,-0.295,0.81,-0.198
34.12,-0.118,1.22,0.077
34.13,-0.017,0.75,0.15
34.14,-0.32,0.997,0.07
34.15,-0.345,0.951,-0.197
34.16,-0.146,1.066,-0.065
34.17,-0.239,0.907,0.148
34.18,-0.035,0.794,0.178
34.19,-0.424,1.146,-0.184
34.2,-0.285,0.736,-0.105
34.21,0.02,1.377,0.038
34.22,-0.08,0.761,0.119
34.23,-0.252,0.944,0.041
34.24,-0.31,1.116,-0.191
34.25,-0.126,0.94,-0.038
34.26,-0.259,1.013,0.183
34.27,0.014,0.716,0.135
34.28,-0.518,1.133,-0.182
34.29,-0.205,0.742,-0.055
34.3,-0.058,1.382,0.056
34.31,-0.164,0.685,0.124
34.32,-0.215,0.861,0.038
34.33,-0.28,1.25,-0.258
34.34,-0.076,0.827,-0.064
34.35,-0.237,1.103,0.214
34.36,-0.075,0.697,0.107
34.37,-0.573,1.157,-0.171
34.38,-0.212,0.856,0.003
34.39,-0.102,1.185,0.022
34.4,-0.186,0.755,0.116
34.41,-0.119,0.861,-0.011
34.42,-0.397,1.237,-0.216
34.43,-0.16,0.728,0.002
34.44,-0.031,1.222,0.113
34.45,-0.11,0.678,0.046
34.46,-0.552,1.131,-0.109
34.47,-0.056,1.032,-0.086
34.48,-0.131,1.005,0.055
34.49,-0.155,0.901,0.162
34.5,-0.284,0.795,-0.113
34.51,-0.274,1.185,-0.192
34.52,-0.118,0.878,0.124
34.53,-0.126,1.144,0.107
34.54,-0.121,0.688,0.009
34.55,-0.406,1.148,-0.165
34.56,-0.129,1.062,-0.074
34.57,-0.168,0.868,0.1
34.58,-0.147,1.013,0.196
34.59,-0.317,0.717,-0.118
34.6,-0.278,1.244,-0.154
34.61,-0.034,0.995,0.059
34.62,-0.165,0.944,0.123
34.63,-0.16,0.782,0.008
34.64,-0.4,1.183,-0.164
34.65,-0.131,1.088,-0.065
34.66,-0.158,0.715,0.166
34.67,-0.171,1.056,0.135
34.68,-0.363,0.763,-0.16
34.69,-0.212,1.172,-0.101
34.7,-0.143,0.965,0.066
34.71,-0.098,0.875,0.107
34.72,-0.192,0.904,0.002
34.73,-0.474,0.993,-0.142
34.74,-0.062,1.206,0.026
34.75,-0.139,0.724,0.108
34.76,-0.162,1.07,0.085
34.77,-0.291,0.835,-0.209
34.78,-0.232,1.119,-0.053
34.79,-0.094,1.014,0.099
34.8,-0.057,0.778,0.099
34.81,-0.354,1.05,-0.004
34.82,-0.344,0.868,-0.148
34.83,-0.102,1.165,0.062
34.84,-0.073,0.75,0.155
34.85,-0.215,1.03,0.007
34.86,-0.378,0.864,-0.166
34.87,-0.207,1.179,-0.056
34.88,-0.12,0.803,0.126
34.89,-0.139,0.912,0.158
34.9,-0.362,1.026,-0.151
34.91,-0.237,0.811,-0.131
34.92,-0.125,1.306,0.122
34.93,-0.114,0.672,0.131
34.94,-0.269,1.007,-0.019
34.95,-0.326,0.971,-0.16
34.96,-0.141,1.072,-0.028
34.97,-0.201,0.855,0.147
34.98,-0.061,0.832,0.095
34.99,-0.454,1.15,-0.198
35.0,-0.216,0.806,-0.031
35.01,-0.092,1.361,0.091
35.02,-0.132,0.634,0.122
35.03,-0.32,1.008,0.018
35.04,-0.273,1.043,-0.207
35.05,-0.161,0.992,-0.007
35.06,-0.136,0.997,0.177
35.07,-0.116,0.706,0.072
35.08,-0.506,1.248,-0.179
35.09,-0.052,0.835,-0.077
35.1,-0.187,1.189,0.101
35.11,-0.145,0.756,0.172
35.12,-0.321,0.992,-0.083
35.13,-0.276,1.04,-0.157
35.14,-0.093,0.988,0.093
35.15,-0.158,1.082,0.128
35.16,-0.08,0.646,0.014
35.17,-0.508,1.322,-0.199
35.18,-0.102,0.864,-0.04
35.19,-0.13,1.058,0.116
35.2,-0.147,0.823,0.154
35.21,-0.427,0.911,-0.128
35.22,-0.204,1.108,-0.147
35.23,-0.027,0.932,0.095
35.24,-0.154,1.032,0.121
35.25,-0.216,0.664,-0.014
35.26,-0.401,1.283,-0.216
35.27,-0.026,0.892,-0.029
35.28,-0.147,1.021,0.144
35.29,-0.16,0.907,0.059
35.3,-0.37,0.853,-0.159
35.31,-0.247,1.247,0.006
35.32,-0.102,0.806,0.1
35.33,-0.155,1.03,0.154
35.34,-0.315,0.776,-0.045
35.35,-0.318,1.159,-0.211
35.36,-0.097,0.975,0.001
35.37,-0.109,0.884,0.147
35.38,-0.203,0.987,0.024
35.39,-0.39,0.842,-0.179
35.4,-0.198,1.268,-0.051
35.41,-0.083,0.72,0.104
35.42,-0.152,1.03,0.147
35.43,-0.305,0.878,-0.163
35.44,-0.278,1.031,-0.107
35.45,-0.05,1.159,0.042
35.46,-0.123,0.691,0.134
35.47,-0.322,1.05,0.059
35.48,-0.293,0.909,-0.167
35.49,-0.132,1.154,-0.025
35.5,-0.175,0.763,0.162
35.51,-0.086,0.959,0.093
35.52,-0.387,0.967,-0.212
35.53,-0.202,0.969,-0.067
35.54,-0.115,1.177,0.067
35.55,-0.119,0.616,0.179
35.56,-0.367,1.14,-0.02
35.57,-0.327,0.857,-0.22
35.58,-0.094,1.102,0.028
35.59,-0.119,0.92,0.17
35.6,-0.147,0.854,0.072
35.61,-0.396,1.08,-0.221
35.62,-0.052,0.909,-0.097
35.63,-0.137,1.135,0.119
35.64,-0.115,0.728,0.182
35.65,-0.458,1.201,-0.149
35.66,-0.273,0.797,-0.097
35.67,-0.021,1.291,0.108
35.68,-0.18,0.698,0.121
35.69,-0.256,0.875,-0.027
35.7,-0.28,1.171,-0.227
35.71,-0.133,0.867,-0.039
35.72,-0.19,1.069,0.155
35.73,-0.032,0.679,0.116
35.74,-0.528,1.203,-0.197
35.75,-0.139,0.854,-0.077
35.76,-0.032,1.162,0.089
35.77,-0.174,0.79,0.177
35.78,-0.294,0.864,-0.074
35.79,-0.283,1.193,-0.189
35.8,-0.091,0.893,0.051
35.81,-0.183,1.12,0.139
35.82,-0.099,0.632,0.093
35.83,-0.51,1.249,-0.214
35.84,-0.079,0.938,-0.012
35.85,-0.169,1.021,0.119
35.86,-0.183,0.892,0.158
35.87,-0.346,0.792,-0.115
35.88,-0.237,1.202,-0.18
35.89,0.021,0.925,0.1
35.9,-0.136,1.059,0.137
35.91,-0.25,0.676,0.018
35.92,-0.393,1.241,-0.177
35.93,-0.106,0.959,-0.02
35.94,-0.189,0.877,0.19
35.95,-0.063,1.033,0.073
35.96,-0.413,0.77,-0.206
35.97,-0.251,1.204,-0.03
35.98,0.021,0.883,0.1
35.99,-0.204,0.961,0.129
36.0,-0.234,0.806,-0.034
36.01,-0.321,1.122,-0.183
36.02,-0.137,1.09,0.037
36.03,-0.09,0.796,0.148
36.04,-0.155,1.022,0.035
36.05,-0.439,0.829,-0.205
36.06,-0.113,1.236,-0.032
36.07,-0.161,0.799,0.131
36.08,-0.193,0.918,0.174
36.09,-0.302,0.984,-0.121
36.1,-0.295,0.922,-0.148
36.11,-0.093,1.191,0.084
36.12,-0.073,0.661,0.124
36.13,-0.291,1.062,0.009
36.14,-0.386,0.938,-0.181
36.15,-0.113,1.16,-0.035
36.16,-0.181,0.79,0.12
36.17,-0.106,0.872,0.099
36.18,-0.402,1.064,-0.178
36.19,-0.281,0.856,-0.048
36.2,-0.307,0.921,-0.035
36.21,-0.262,1.003,-0.226
36.22,-0.062,1.145,0.04
36.23,-0.177,0.788,0.177
36.24,-0.247,1.005,0.043
36.25,-0.357,0.852,-0.189
36.26,-0.18,1.209,-0.041
36.27,-0.096,0.795,0.124
36.28,-0.147,0.902,0.186
36.29,-0.37,1.026,-0.135
36.3,-0.238,0.853,-0.109
36.31,-0.09,1.3,0.119
36.32,-0.126,0.634,0.123
36.33,-0.299,1.043,0.031
36.34,-0.364,0.992,-0.186
36.35,-0.084,1.075,-0.04
36.36,-0.173,0.862,0.104
36.37,-0.11,0.82,0.112
36.38,-0.395,1.144,-0.181
36.39,-0.247,0.949,-0.022
36.4,-0.075,1.142,0.101
36.41,-0.173,0.69,0.119
36.42,-0.37,1.141,-0.039
36.43,-0.26,0.884,-0.181
36.44,-0.121,1.167,0.108
36.45,-0.056,0.815,0.118
36.46,-0.235,0.844,0.026
36.47,-0.447,1.187,-0.146
36.48,-0.075,0.919,-0.078
36.49,-0.129,1.088,0.088
36.5,-0.099,0.712,0.137
36.51,-0.43,1.139,-0.199
36.52,-0.228,0.947,-0.092
36.53,-0.068,1.125,0.109
36.54,-0.089,0.832,0.104
36.55,-0.276,0.812,0.01
36.56,-0.426,1.264,-0.191
36.57,-0.033,0.785,-0.028
36.58,-0.148,1.209,0.161
36.59,-0.073,0.669,0.037
36.6,-0.417,1.14,-0.178
36.61,-0.153,1.059,-0.054
36.62,-0.106,0.9,0.095
36.63,-0.167,0.986,0.188
36.64,-0.33,0.724,-0.122
36.65,-0.302,1.212,-0.164
36.66,0.048,0.938,0.062
36.67,-0.217,1.034,0.123
36.68,-0.156,0.72,0.026
36.69,-0.352,1.179,-0.227
36.7,-0.145,1.024,-0.013
36.71,-0.116,0.836,0.182
36.72,-0.18,1.053,0.104
36.73,-0.364,0.719,-0.187
36.74,-0.18,1.271,-0.082
36.75,-0.043,0.896,0.073
36.76,-0.169,0.861,0.171
36.77,-0.236,0.895,-0.01
36.78,-0.423,1.028,-0.19
36.79,-0.028,1.119,0.055
36.8,-0.13,0.834,0.117
36.81,-0.198,0.973,0.054
36.82,-0.306,0.833,-0.175
36.83,-0.197,1.277,-0.026
36.84,-0.115,0.782,0.096
36.85,-0.136,0.83,0.13
36.86,-0.323,1.065,-0.152
36.87,-0.269,0.894,-0.11
36.88,-0.141,1.264,0.145
36.89,-0.148,0.673,0.117
36.9,-0.23,0.997,-0.067
36.91,-0.271,0.966,-0.207
36.92,-0.108,1.141,0.016
36.93,-0.217,0.865,0.151
36.94,-0.064,0.794,0.064
36.95,-0.434,1.151,-0.185
36.96,-0.15,0.866,-0.01
36.97,-0.102,1.253,0.07
36.98,-0.101,0.619,0.12
36.99,-0.301,1.089,-0.026
37.0,-0.319,0.904,-0.209
37.01,-0.117,1.035,0.102
37.02,-0.103,1.065,0.104
37.03,-0.191,0.62,-0.012
37.04,-0.405,1.27,-0.141
37.05,-0.083,0.903,-0.06
37.06,-0.168,1.085,0.136
37.07,-0.115,0.757,0.208
37.08,-0.355,1.0,-0.156
37.09,-0.28,1.014,-0.17
37.1,0.006,1.032,0.052
37.11,-0.127,0.982,0.08
37.12,-0.176,0.673,0.058
37.13,-0.495,1.353,-0.243
37.14,-0.051,0.774,-0.01
37.15,-0.198,1.177,0.162
37.16,-0.071,0.765,0.063
37.17,-0.349,0.888,-0.148
37.18,-0.083,1.306,-0.115
37.19,-0.097,0.834,0.045
37.2,-0.172,1.016,0.185
37.21,-0.302,0.735,-0.135
37.22,-0.332,1.18,-0.154
37.23,-0.054,0.951,0.128
37.24,-0.215,1.09,0.137
37.25,-0.132,0.688,0.01
37.26,-0.413,1.139,-0.175
37.27,-0.087,1.11,-0.095
37.28,-0.069,0.788,0.162
37.29,-0.21,1.064,0.168
37.3,-0.315,0.731,-0.156
37.31,-0.259,1.244,-0.087
37.32,-0.061,0.926,0.042
37.33,-0.171,0.894,0.154
37.34,-0.253,0.865,-0.009
37.35,-0.304,1.057,-0.195
37.36,-0.053,1.069,-0.051
37.37,-0.069,0.787,0.19
37.38,-0.168,1.101,0.06
37.39,-0.433,0.74,-0.153
37.4,-0.116,1.227,-0.063
37.41,-0.073,0.899,0.079
37.42,-0.232,0.826,0.251
37.43,-0.261,0.994,-0.088
37.44,-0.352,0.865,-0.192
37.45,-0.006,1.247,0.07
37.46,-0.095,0.733,0.161
37.47,-0.242,1.01,0.014
37.48,-0.283,0.951,-0.183
37.49,-0.144,1.079,-0.058
37.5,-0.237,0.918,0.179
37.51,-0.118,0.795,0.15
37.52,-0.395,1.088,-0.157
37.53,-0.23,0.844,-0.042
37.54,-0.116,1.326,0.071
37.55,-0.06,0.598,0.064
37.56,-0.295,1.023,0.034
37.57,-0.312,1.035,-0.219
37.58,-0.145,0.941,-0.012
37.59,-0.168,1.081,0.161
37.6,-0.085,0.704,0.046
37.61,-0.472,1.118,-0.178
37.62,-0.126,0.922,-0.016
37.63,-0.169,1.235,0.091
37.64,-0.091,0.641,0.164
37.65,-0.236,0.997,-0.089
37.66,-0.309,1.071,-0.195
37.67,-0.031,0.919,0.085
37.68,-0.101,1.158,0.096
37.69,-0.111,0.619,0.042
37.7,-0.437,1.272,-0.18
37.71,-0.093,0.917,-0.076
37.72,-0.159,1.045,0.113
37.73,-0.157,0.836,0.231
37.74,-0.462,0.911,-0.125
37.75,-0.26,1.061,-0.192
37.76,-0.007,0.939,0.094
37.77,-0.176,1.063,0.111
37.78,-0.12,0.64,-0.012
37.79,-0.4,1.284,-0.143
37.8,-0.126,0.927,-0.033
37.81,-0.131,0.959,0.109
37.82,-0.137,0.927,0.112
37.83,-0.388,0.833,-0.195
37.84,-0.182,1.24,-0.058
37.85,-0.095,0.886,0.086
37.86,-0.145,0.979,0.144
37.87,-0.223,0.788,-0.022
37.88,-0.392,1.207,-0.208
37.89,-0.05,0.951,0.012
37.9,-0.136,0.971,0.165
37.91,-0.198,0.983,0.065
37.92,-0.369,0.823,-0.166
37.93,-0.19,1.294,-0.072
37.94,-0.086,0.783,0.105
37.95,-0.2,0.985,0.147
37.96,-0.268,0.861,-0.12
37.97,-0.296,1.034,-0.166
37.98,-0.084,1.11,0.065
37.99,-0.059,0.786,0.12
38.0,-0.256,1.028,0.027
38.01,-0.304,0.907,-0.185
38.02,-0.219,1.168,-0.016
38.03,-0.096,0.739,0.181
38.04,-0.132,1.053,0.092
38.05,-0.432,0.802,-0.176
38.06,-0.201,1.142,-0.064
38.07,-0.102,1.077,0.081
38.08,-0.194,0.672,0.159
38.09,-0.177,1.098,-0.008
38.1,-0.362,0.912,-0.219
38.11,-0.17,1.149,0.065
38.12,-0.066,0.837,0.142
38.13,-0.203,0.954,0.042
38.14,-0.402,0.984,-0.172
38.15,-0.151,1.073,-0.077
38.16,-0.168,0.988,0.085
38.17,-0.125,0.731,0.145
38.18,-0.35,1.169,-0.119
38.19,-0.255,0.756,-0.166
38.2,-0.104,1.259,0.107
38.21,-0.146,0.787,0.115
38.22,-0.189,0.894,0.009
38.23,-0.346,1.118,-0.217
38.24,-0.153,0.909,-0.02
38.25,-0.27,1.098,0.164
38.26,-0.075,0.704,0.168
38.27,-0.478,1.145,-0.162
38.28,-0.147,0.807,-0.101
38.29,-0.048,1.276,0.107
38.3,-0.168,0.735,0.111
38.31,-0.3,0.845,0.014
38.32,-0.292,1.228,-0.238
38.33,-0.149,0.804,0.008
38.34,-0.161,1.125,0.167
38.35,-0.078,0.719,0.072
38.36,-0.551,1.157,-0.142
38.37,-0.17,0.932,-0.058
38.38,-0.077,1.09,0.066
38.39,-0.137,0.833,0.112
38.4,-0.236,0.811,-0.03
38.41,-0.386,1.278,-0.21
38.42,-0.098,0.757,0.036
38.43,-0.08,1.161,0.166
38.44,-0.221,0.68,0.054
38.45,-0.484,1.118,-0.168
38.46,-0.042,1.046,-0.089
38.47,-0.191,0.896,0.117
38.48,-0.122,0.963,0.182
38.49,-0.348,0.782,-0.161
38.5,-0.309,1.216,-0.134
38.51,-0.031,0.903,0.119
38.52,-0.157,1.007,0.108
38.53,-0.207,0.713,-0.001
38.54,-0.321,1.176,-0.15
38.55,-0.099,1.097,-0.025
38.56,-0.262,0.745,0.195
38.57,-0.051,1.038,0.052
38.58,-0.396,0.801,-0.199
38.59,-0.249,1.246,-0.036
38.6,0.029,0.888,0.073
38.61,-0.223,0.899,0.124
38.62,-0.172,0.884,-0.036
38.63,-0.369,1.034,-0.195
38.64,-0.157,1.171,0.031
38.65,-0.005,0.758,0.112
38.66,-0.247,1.016,-0.007
38.67,-0.404,0.862,-0.152
38.68,-0.125,1.232,-0.067
38.69,-0.125,0.81,0.066
38.7,-0.09,0.859,0.159
38.71,-0.362,1.063,-0.14
38.72,-0.335,0.853,-0.106
38.73,0.028,1.308,0.054
38.74,-0.131,0.62,0.104
38.75,-0.328,1.075,0.073
38.76,-0.337,0.984,-0.244
38.77,-0.105,0.959,-0.08
38.78,-0.115,0.954,0.218
38.79,-0.102,0.781,0.065
38.8,-0.444,1.138,-0.149
38.81,-0.18,0.902,-0.037
38.82,-0.137,1.226,0.094
38.83,-0.133,0.622,0.172
38.84,-0.374,1.162,-0.112
38.85,-0.295,0.835,-0.17
38.86,-0.124,1.146,0.077
38.87,-0.156,0.889,0.162
38.88,-0.132,0.793,0.062
38.89,-0.476,1.217,-0.169
38.9,-0.059,0.87,-0.089
38.91,-0.13,1.134,0.12
38.92,-0.149,0.697,0.181
38.93,-0.411,1.132,-0.176
38.94,-0.228,0.841,-0.181
38.95,-0.052,1.156,0.135
38.96,-0.153,0.917,0.142
38.97,-0.243,0.718,0.053
38.98,-0.415,1.339,-0.168
38.99,-0.104,0.8,-0.054
39.0,-0.186,1.152,0.166
39.01,-0.07,0.712,0.1
39.02,-0.489,1.052,-0.175
39.03,-0.112,1.037,-0.091
39.04,-0.051,0.98,0.058
39.05,-0.213,0.945,0.179
39.06,-0.175,0.73,-0.035
39.07,-0.42,1.254,-0.242
39.08,-0.137,0.839,0.082
39.09,-0.087,1.193,0.093
39.1,-0.183,0.667,0.049
39.11,-0.444,1.055,-0.098
39.12,-0.102,1.208,-0.101
39.13,-0.14,0.756,0.073
39.14,-0.183,1.068,0.157
39.15,-0.214,0.756,-0.175
39.16,-0.306,1.182,-0.158
39.17,-0.106,0.949,0.148
39.18,-0.125,1.018,0.107
39.19,-0.239,0.823,-0.002
39.2,-0.337,1.04,-0.183
39.21,-0.143,1.178,-0.076
39.22,-0.189,0.742,0.204
39.23,-0.074,1.082,0.114
39.24,-0.363,0.732,-0.185
39.25,-0.24,1.113,-0.115
39.26,0.0,1.049,0.077
39.27,-0.135,0.774,0.117
39.28,-0.268,0.993,0.027
39.29,-0.335,0.998,-0.194
39.3,-0.184,1.123,0.002
39.31,-0.158,0.741,0.202
39.32,-0.141,1.089,0.085
39.33,-0.346,0.818,-0.222
39.34,-0.239,1.119,-0.028
39.35,-0.04,1.0,0.068
39.36,-0.213,0.708,0.13
39.37,-0.288,1.081,-0.006
39.38,-0.273,0.876,-0.224
39.39,-0.13,1.201,0.02
39.4,-0.082,0.757,0.19
39.41,-0.181,0.965,0.034
39.42,-0.414,0.975,-0.189
39.43,-0.094,1.016,-0.084
39.44,-0.14,1.012,0.067
39.45,-0.106,0.686,0.159
39.46,-0.334,1.179,-0.095
39.47,-0.328,0.824,-0.163
39.48,-0.05,1.231,0.1
39.49,-0.126,0.788,0.113
39.5,-0.307,0.903,0.061
39.51,-0.37,1.139,-0.223
39.52,-0.144,0.907,-0.036
39.53,-0.114,1.119,0.128
39.54,-0.101,0.683,0.114
39.55,-0.441,1.125,-0.155
39.56,-0.181,0.92,-0.067
39.57,-0.119,1.209,0.084
39.58,-0.161,0.756,0.159
39.59,-0.225,0.875,0.0
39.6,-0.376,1.211,-0.23
39.61,-0.054,0.779,0.001
39.62,-0.191,1.189,0.182
39.63,-0.074,0.674,0.084
39.64,-0.455,1.137,-0.184
39.65,-0.072,0.912,-0.045
39.66,-0.201,1.096,0.074
39.67,-0.108,0.768,0.192
39.68,-0.396,0.974,-0.12
39.69,-0.247,1.041,-0.187
39.7,-0.097,0.968,0.105
39.71,-0.104,1.072,0.129
39.72,-0.162,0.643,0.052
39.73,-0.45,1.326,-0.169
39.74,-0.136,0.853,-0.039
39.75,-0.182,1.047,0.153
39.76,-0.117,0.885,0.133
39.77,-0.425,0.867,-0.154
39.78,-0.28,1.141,-0.087
39.79,-0.027,0.939,0.082
39.8,-0.156,1.036,0.13
39.81,-0.237,0.711,0.01
39.82,-0.352,1.253,-0.219
39.83,-0.088,0.936,0.016
39.84,-0.12,1.006,0.141
39.85,-0.079,0.914,0.037
39.86,-0.386,0.814,-0.166
39.87,-0.273,1.307,-0.03
39.88,-0.063,0.761,0.108
39.89,-0.116,1.016,0.115
39.9,-0.251,0.809,-0.038
39.91,-0.335,1.13,-0.187
39.92,-0.077,1.064,0.019
39.93,-0.103,0.86,0.141
39.94,-0.225,0.973,0.021
39.95,-0.427,0.862,-0.137
39.96,-0.158,1.288,-0.05
39.97,-0.097,0.725,0.111
39.98,-0.155,0.986,0.175
39.99,-0.342,0.864,-0.164
40.0,-0.285,0.964,-0.127
40.01,-0.014,1.25,0.058
40.02,-0.098,0.669,0.088
40.03,-0.289,1.031,0.085
40.04,-0.365,0.961,-0.211
40.05,-0.11,1.101,-0.064
40.06,-0.156,0.775,0.17
40.07,-0.092,0.913,0.098
40.08,-0.39,0.999,-0.223
40.09,-0.229,0.917,-0.041
40.1,-0.077,1.233,0.06
40.11,-0.124,0.592,0.134
40.12,-0.293,1.107,0.035
40.13,-0.377,0.931,-0.215
40.14,-0.125,1.067,0.018
40.15,-0.088,0.976,0.158
40.16,-0.117,0.76,0.047
40.17,-0.419,1.157,-0.166
40.18,-0.073,0.915,-0.087
40.19,-0.125,1.141,0.059
40.2,-0.148,0.67,0.226
40.21,-0.352,1.144,-0.088
40.22,-0.287,0.871,-0.219
40.23,-0.072,1.1,0.095
40.24,-0.146,0.964,0.142
40.25,-0.197,0.675,0.047
40.26,-0.465,1.304,-0.161
40.27,-0.074,0.836,-0.07
40.28,-0.13,1.144,0.087
40.29,-0.122,0.777,0.171
40.3,-0.358,1.036,-0.184
40.31,-0.249,0.981,-0.196
40.32,-0.02,1.018,0.127
40.33,-0.21,1.01,0.141
40.34,-0.254,0.682,0.003
40.35,-0.357,1.332,-0.205
40.36,-0.112,0.795,-0.027
40.37,-0.187,1.12,0.182
40.38,-0.083,0.815,0.101
40.39,-0.463,0.945,-0.174
40.4,-0.169,1.161,-0.052
40.41,-0.072,0.897,0.08
40.42,-0.186,0.995,0.146
40.43,-0.218,0.714,-0.022
40.44,-0.439,1.273,-0.187
40.45,-0.1,0.85,0.012
40.46,-0.091,1.17,0.087
40.47,-0.133,0.69,0.065
40.48,-0.488,1.102,-0.167
40.49,-0.07,1.09,-0.044
40.5,-0.135,0.851,0.105
40.51,-0.191,1.025,0.179
40.52,-0.301,0.731,-0.127
40.53,-0.32,1.217,-0.148
40.54,-0.018,0.979,0.09
40.55,-0.198,0.957,0.096
40.56,-0.151,0.766,0.023
40.57,-0.384,1.131,-0.156
40.58,-0.126,1.098,-0.063
40.59,-0.186,0.775,0.218
40.6,-0.135,1.065,0.092
40.61,-0.349,0.718,-0.169
40.62,-0.266,1.217,-0.016
40.63,-0.079,1.025,0.068
40.64,-0.124,0.796,0.095
40.65,-0.209,0.983,0.073
40.66,-0.409,1.017,-0.202
40.67,-0.178,1.086,-0.042
40.68,-0.107,0.794,0.205
40.69,-0.196,1.062,0.053
40.7,-0.373,0.802,-0.19
40.71,-0.093,1.17,-0.082
40.72,-0.172,0.998,0.089
40.73,-0.121,0.701,0.174
40.74,-0.256,1.121,-0.073
40.75,-0.276,0.861,-0.181
40.76,-0.193,1.207,0.052
40.77,-0.047,0.776,0.125
40.78,-0.207,0.972,0.041
40.79,-0.358,0.99,-0.171
40.8,-0.106,1.091,-0.086
40.81,-0.16,0.968,0.027
40.82,-0.095,0.719,0.183
40.83,-0.382,1.155,-0.07
40.84,-0.244,0.736,-0.152
40.85,-0.171,1.327,0.103
40.86,-0.103,0.8,0.143
40.87,-0.29,1.017,0.055
40.88,-0.283,0.993,-0.179
40.89,-0.158,1.07,-0.052
40.9,-0.239,0.868,0.136
40.91,-0.034,0.809,0.134
40.92,-0.426,1.128,-0.164
40.93,-0.289,0.785,-0.073
40.94,-0.057,1.333,0.038
40.95,-0.092,0.628,0.087
40.96,-0.296,1.016,0.057
40.97,-0.308,1.038,-0.226
40.98,-0.146,0.973,-0.002
40.99,-0.18,1.048,0.174
41.0,-0.102,0.733,0.119
41.01,-0.397,1.162,-0.203
41.02,-0.204,0.862,-0.024
41.03,-0.131,1.224,0.078
41.04,-0.154,0.677,0.146
41.05,-0.294,0.964,-0.003
41.06,-0.339,1.111,-0.213
41.07,-0.124,0.899,0.041
41.08,-0.194,1.129,0.157
41.09,-0.066,0.628,0.095
41.1,-0.465,1.244,-0.147
41.11,-0.179,0.932,-0.06
41.12,-0.117,1.094,0.074
41.13,-0.108,0.78,0.145
41.14,-0.349,0.887,-0.036
41.15,-0.3,1.151,-0.226
41.16,-0.054,0.852,-0.004
41.17,-0.147,1.148,0.171
41.18,-0.125,0.658,0.075
41.19,-0.523,1.181,-0.163
41.2,-0.082,0.947,-0.06
41.21,-0.135,0.976,0.06
41.22,-0.165,0.94,0.204
41.23,-0.281,0.824,-0.129
41.24,-0.277,1.179,-0.183
41.25,-0.121,0.901,0.155
41.26,-0.14,1.105,0.136
41.27,-0.162,0.659,0.011
41.28,-0.391,1.312,-0.192
41.29,-0.132,0.868,0.01
41.3,-0.226,1.037,0.168
41.31,-0.127,0.891,0.107
41.32,-0.387,0.883,-0.179
41.33,-0.243,1.175,-0.063
41.34,-0.088,0.915,0.093
41.35,-0.131,0.982,0.154
41.36,-0.167,0.738,-0.035
41.37,-0.421,1.238,-0.219
41.38,-0.019,0.894,-0.032
41.39,-0.104,1.021,0.124
41.4,-0.186,0.909,0.061
41.41,-0.361,0.83,-0.171
41.42,-0.236,1.3,-0.055
41.43,-0.12,0.809,0.089
41.44,-0.103,0.999,0.147
41.45,-0.231,0.829,-0.073
41.46,-0.427,1.067,-0.167
41.47,-0.116,1.047,0.033
41.48,-0.111,0.903,0.114
41.49,-0.136,0.961,0.041
41.5,-0.377,0.888,-0.194
41.51,-0.104,1.287,-0.096
41.52,-0.043,0.759,0.05
41.53,-0.179,0.977,0.205
41.54,-0.242,0.893,-0.111
41.55,-0.28,0.973,-0.185
41.56,-0.095,1.166,0.06
41.57,-0.128,0.756,0.167
41.58,-0.205,0.974,0.031
41.59,-0.344,0.906,-0.173
41.6,-0.194,1.222,-0.049
41.61,-0.123,0.771,0.087
41.62,-0.107,0.92,0.181
41.63,-0.34,0.983,-0.128
41.64,-0.321,0.885,-0.1
41.65,0.01,1.292,0.021
41.66,-0.108,0.665,0.075
41.67,-0.262,1.019,0.09
41.68,-0.294,0.996,-0.205
41.69,-0.17,1.075,-0.061
41.7,-0.18,0.84,0.182
41.71,-0.07,0.88,0.121
41.72,-0.407,1.062,-0.19
41.73,-0.206,0.816,-0.054
41.74,-0.076,1.338,0.051
41.75,-0.118,0.586,0.106
41.76,-0.315,1.035,0.093
41.77,-0.315,1.055,-0.236
41.78,-0.15,0.93,-0.036
41.79,-0.216,1.022,0.155
41.8,0.015,0.795,0.065
41.81,-0.428,1.145,-0.216
41.82,-0.223,0.801,-0.03
41.83,-0.112,1.305,0.062
41.84,-0.116,0.635,0.141
41.85,-0.348,0.998,0.047
41.86,-0.324,1.092,-0.269
41.87,-0.068,0.87,-0.055
41.88,-0.136,1.139,0.172
41.89,-0.091,0.675,0.107
41.9,-0.494,1.199,-0.193
41.91,-0.199,0.817,-0.003
41.92,-0.077,1.213,0.045
41.93,-0.128,0.766,0.148
41.94,-0.376,0.93,-0.013
41.95,-0.277,1.126,-0.225
41.96,-0.119,0.865,-0.012
41.97,-0.135,1.197,0.162
41.98,-0.033,0.646,0.078
41.99,-0.493,1.225,-0.174
42.0,-0.065,0.913,-0.068
42.01,-0.117,1.054,0.067
42.02,-0.183,0.861,0.185
42.03,-0.284,0.848,-0.095
42.04,-0.33,1.135,-0.199
42.05,-0.122,0.888,0.116
42.06,-0.089,1.167,0.114
42.07,-0.088,0.636,0.035
42.08,-0.46,1.209,-0.166
42.09,-0.023,0.847,-0.078
42.1,-0.212,1.051,0.106
42.11,-0.106,0.847,0.178
42.12,-0.356,0.906,-0.171
42.13,-0.238,1.083,-0.16
42.14,-0.07,0.958,0.103
42.15,-0.132,1.096,0.103
42.16,-0.207,0.638,0.015
42.17,-0.416,1.326,-0.169
42.18,-0.064,0.899,-0.08
42.19,-0.227,0.965,0.155
42.2,-0.134,0.944,0.123
42.21,-0.353,0.789,-0.168
42.22,-0.254,1.183,-0.123
42.23,-0.055,0.938,0.103
42.24,-0.177,1.017,0.081
42.25,-0.209,0.71,0.029
42.26,-0.43,1.2,-0.146
42.27,-0.111,0.981,-0.05
42.28,-0.167,0.878,0.136
42.29,-0.11,1.031,0.144
42.3,-0.33,0.772,-0.214
42.31,-0.276,1.195,-0.097
42.32,-0.027,0.92,0.124
42.33,-0.145,0.929,0.129
42.34,-0.295,0.788,0.015
42.35,-0.302,1.145,-0.204
42.36,-0.074,1.023,-0.063
42.37,-0.192,0.799,0.23
42.38,-0.128,1.097,0.104
42.39,-0.365,0.762,-0.232
42.4,-0.246,1.211,0.008
42.41,-0.103,0.982,0.055
42.42,-0.157,0.858,0.161
42.43,-0.305,0.934,0.032
42.44,-0.298,0.999,-0.21
42.45,-0.216,1.131,-0.006
42.46,-0.11,0.757,0.144
42.47,-0.113,1.055,0.058
42.48,-0.401,0.834,-0.193
42.49,-0.161,1.161,-0.083
42.5,-0.113,0.935,0.094
42.51,-0.199,0.796,0.192
42.52,-0.277,1.045,-0.041
42.53,-0.287,0.888,-0.205
42.54,-0.131,1.238,0.012
42.55,-0.12,0.783,0.141
42.56,-0.144,0.979,0.099
42.57,-0.344,0.898,-0.199
42.58,-0.186,1.09,-0.047
42.59,-0.088,0.979,0.034
42.6,-0.194,0.718,0.135
42.61,-0.302,1.123,-0.045
42.62,-0.283,0.84,-0.167
42.63,-0.139,1.163,0.038
42.64,-0.076,0.812,0.151
42.65,-0.149,0.95,0.044
42.66,-0.401,0.968,-0.194
42.67,-0.049,1.026,-0.068
42.68,-0.158,1.083,0.05
42.69,-0.208,0.661,0.234
42.7,-0.341,1.179,-0.083
42.71,-0.311,0.797,-0.169
42.72,-0.184,1.193,0.171
42.73,-0.078,0.846,0.156
42.74,-0.188,0.822,0.014
42.75,-0.394,1.163,-0.169
42.76,-0.08,0.91,-0.09
42.77,-0.173,1.086,0.107
42.78,-0.135,0.727,0.189
42.79,-0.375,1.178,-0.143
42.8,-0.301,0.773,-0.142
42.81,-0.118,1.206,0.129
42.82,-0.117,0.902,0.086
42.83,-0.166,0.74,0.021
42.84,-0.449,1.253,-0.163
42.85,-0.02,0.869,-0.062
42.86,-0.202,1.108,0.067
42.87,-0.133,0.707,0.203
42.88,-0.384,1.149,-0.16
42.89,-0.268,0.88,-0.146
42.9,-0.038,1.265,0.096
42.91,-0.082,0.812,0.114
42.92,-0.343,0.831,-0.009
42.93,-0.323,1.205,-0.188
42.94,-0.111,0.86,-0.052
42.95,-0.19,1.103,0.144
42.96,-0.037,0.729,0.139
42.97,-0.484,1.166,-0.176
42.98,-0.22,0.856,-0.092
42.99,-0.032,1.172,0.098
43.0,-0.157,0.841,0.131
43.01,-0.25,0.763,0.003
43.02,-0.32,1.315,-0.183
43.03,-0.134,0.805,0.02
43.04,-0.232,1.132,0.151
43.05,0.004,0.72,0.093
43.06,-0.51,1.136,-0.199
43.07,-0.228,0.933,-0.038
43.08,0.004,1.036,0.068
43.09,-0.18,0.951,0.118
43.1,-0.25,0.699,-0.032
43.11,-0.299,1.29,-0.214
43.12,-0.087,0.831,0.021
43.13,-0.171,1.127,0.194
43.14,-0.12,0.752,0.054
43.15,-0.491,1.027,-0.183
43.16,-0.155,1.113,0.011
43.17,-0.038,0.911,0.054
43.18,-0.191,0.985,0.141
43.19,-0.264,0.709,-0.062
43.2,-0.305,1.281,-0.225
43.21,-0.047,0.843,-0.001
43.22,-0.079,1.054,0.155
43.23,-0.173,0.825,0.034
43.24,-0.441,0.925,-0.173
43.25,-0.094,1.208,-0.027
43.26,-0.17,0.779,0.091
43.27,-0.225,1.022,0.178
43.28,-0.202,0.824,-0.121
43.29,-0.356,1.156,-0.153
43.3,-0.161,0.95,0.107
43.31,-0.034,0.956,0.127
43.32,-0.235,0.878,-0.014
43.33,-0.384,0.928,-0.11
43.34,-0.178,1.266,-0.025
43.35,-0.125,0.702,0.062
43.36,-0.126,1.071,0.189
43.37,-0.304,0.888,-0.164
43.38,-0.315,1.003,-0.128
43.39,-0.013,1.109,0.105
43.4,-0.133,0.725,0.124
43.41,-0.388,1.003,0.059
43.42,-0.266,0.956,-0.189
43.43,-0.152,1.21,-0.048
43.44,-0.163,0.753,0.157
43.45,-0.09,1.068,0.1
43.46,-0.373,0.904,-0.18
43.47,-0.302,0.917,-0.027
43.48,0.012,1.216,0.049
43.49,-0.165,0.676,0.133
43.5,-0.358,1.073,0.023
43.51,-0.273,0.908,-0.197
43.52,-0.124,1.167,-0.032
43.53,-0.119,0.813,0.149
43.54,-0.105,0.912,0.069
43.55,-0.412,1.035,-0.185
43.56,-0.2,0.877,-0.033
43.57,-0.046,1.229,0.083
43.58,-0.153,0.61,0.12
43.59,-0.366,1.135,-0.014
43.6,-0.31,0.957,-0.208
43.61,-0.181,1.038,0.01
43.62,-0.073,0.921,0.156
43.63,-0.134,0.818,0.055
43.64,-0.436,1.129,-0.217
43.65,-0.045,0.845,-0.071
43.66,-0.138,1.272,0.074
43.67,-0.172,0.652,0.208
43.68,-0.31,1.092,-0.067
43.69,-0.325,0.923,-0.199
43.7,-0.213,1.034,0.095
43.71,-0.078,1.019,0.117
43.72,-0.252,0.776,0.043
43.73,-0.407,1.222,-0.184
43.74,-0.057,0.883,-0.012
43.75,-0.294,1.116,0.1
43.76,-0.06,0.675,0.196
43.77,-0.351,1.205,-0.184
43.78,-0.341,0.842,-0.142
43.79,-0.072,1.145,0.118
43.8,-0.097,0.925,0.107
43.81,-0.288,0.729,0.047
43.82,-0.396,1.288,-0.168
43.83,-0.111,0.816,0.014
43.84,-0.28,1.14,0.164
43.85,-0.048,0.693,0.173
43.86,-0.386,1.128,-0.206
43.87,-0.241,0.931,-0.182
43.88,-0.021,1.083,0.086
43.89,-0.08,0.998,0.116
43.9,-0.343,0.68,0.002
43.91,-0.351,1.284,-0.169
43.92,-0.056,0.83,-0.019
43.93,-0.29,1.133,0.158
43.94,-0.004,0.783,0.123
43.95,-0.441,1.016,-0.214
43.96,-0.319,1.004,-0.082
43.97,0.051,1.025,0.09
43.98,-0.166,1.012,0.088
43.99,-0.274,0.663,-0.03
44.0,-0.258,1.307,-0.177
44.01,-0.109,0.873,-0.015
44.02,-0.194,0.969,0.132
44.03,-0.069,0.886,0.085
44.04,-0.491,0.927,-0.201
44.05,-0.219,1.113,-0.051
44.06,0.04,0.891,0.09
44.07,-0.255,1.041,0.148
44.08,-0.259,0.712,-0.004
44.09,-0.294,1.268,-0.18
44.1,-0.131,0.926,-0.008
44.11,-0.084,0.928,0.206
44.12,-0.185,0.945,0.036
44.13,-0.436,0.844,-0.23
44.14,-0.11,1.24,-0.017
44.15,-0.112,0.862,0.108
44.16,-0.269,0.969,0.153
44.17,-0.205,0.859,-0.089
44.18,-0.253,1.158,-0.178
44.19,-0.195,0.997,0.054
44.2,0.006,0.846,0.171
44.21,-0.255,1.023,-0.001
44.22,-0.457,0.813,-0.151
44.23,-0.063,1.267,-0.065
44.24,-0.162,0.741,0.085
44.25,-0.144,0.96,0.157
44.26,-0.321,0.98,-0.139
44.27,-0.299,0.966,-0.121
44.28,-0.04,1.149,0.074
44.29,-0.078,0.688,0.155
44.3,-0.382,1.054,0.02
44.31,-0.273,0.891,-0.191
44.32,-0.149,1.232,0.029
44.33,-0.228,0.754,0.138
44.34,-0.043,0.938,0.134
44.35,-0.386,1.074,-0.19
44.36,-0.215,0.862,-0.009
44.37,-0.104,1.281,0.067
44.38,-0.078,0.626,0.109
44.39,-0.396,1.098,0.023
44.4,-0.222,0.915,-0.211
44.41,-0.069,1.134,-0.025
44.42,-0.191,0.891,0.154
44.43,-0.113,0.771,0.082
44.44,-0.443,1.178,-0.157
44.45,-0.119,0.899,-0.081
44.46,-0.098,1.177,0.079
44.47,-0.149,0.652,0.208
44.48,-0.33,1.131,-0.086
44.49,-0.28,0.898,-0.207
44.5,-0.142,1.057,0.087
44.51,-0.093,1.038,0.127
44.52,-0.143,0.702,0.006
44.53,-0.415,1.2,-0.152
44.54,-0.134,0.677,0.168
44.55,-0.363,1.059,-0.146
44.56,-0.234,0.791,-0.167
44.57,-0.154,1.322,0.105
44.58,-0.138,0.686,0.138
44.59,-0.237,0.976,0.035
44.6,-0.39,1.012,-0.174
44.61,-0.115,1.03,-0.034
44.62,-0.218,0.952,0.09
44.63,-0.084,0.76,0.147
44.64,-0.366,1.159,-0.166
44.65,-0.288,0.777,-0.113
44.66,-0.062,1.326,0.089
44.67,-0.096,0.691,0.127
44.68,-0.262,0.927,0.027
44.69,-0.393,1.121,-0.18
44.7,-0.02,0.903,-0.045
44.71,-0.194,1.103,0.14
44.72,-0.172,0.676,0.137
44.73,-0.398,1.169,-0.149
44.74,-0.262,0.865,-0.087
44.75,-0.121,1.162,0.096
44.76,-0.076,0.752,0.143
44.77,-0.297,0.92,-0.021
44.78,-0.373,1.139,-0.188
44.79,-0.045,0.902,0.056
44.8,-0.156,1.186,0.11
44.81,-0.154,0.643,0.082
44.82,-0.479,1.19,-0.166
44.83,-0.146,0.955,-0.001
44.84,-0.142,1.082,0.124
44.85,-0.153,0.825,0.128
44.86,-0.311,0.871,-0.031
44.87,-0.35,1.198,-0.179
44.88,-0.092,0.822,0.074
44.89,-0.123,1.176,0.117
44.9,-0.12,0.635,-0.005
44.91,-0.412,1.218,-0.168
44.92,-0.113,1.011,-0.063
44.93,-0.171,0.884,0.122
44.94,-0.106,0.956,0.188
44.95,-0.313,0.812,-0.198
44.96,-0.299,1.169,-0.156
44.97,-0.053,0.954,0.082
44.98,-0.16,1.065,0.144
44.99,-0.23,0.676,0.045
45.0,-0.365,1.218,-0.175
45.01,-0.125,1.063,-0.017
45.02,-0.261,0.793,0.209
45.03,-0.062,1.044,0.1
45.04,-0.363,0.781,-0.202
45.05,-0.319,1.249,-0.058
45.06,0.011,0.938,0.034
45.07,-0.142,0.905,0.127
45.08,-0.278,0.848,0.025
45.09,-0.274,1.082,-0.209
45.1,-0.146,1.104,-0.069
45.11,-0.133,0.772,0.195
45.12,-0.125,1.051,0.056
45.13,-0.403,0.796,-0.189
45.14,-0.159,1.204,-0.061
45.15,-0.073,0.932,0.081
45.16,-0.195,0.804,0.173
45.17,-0.212,1.059,-0.076
45.18,-0.324,0.894,-0.197
45.19,-0.155,1.202,0.1
45.2,-0.097,0.783,0.148
45.21,-0.251,0.984,0.016
45.22,-0.377,0.92,-0.139
45.23,-0.104,1.134,-0.116
45.24,-0.214,0.878,0.1
45.25,-0.091,0.769,0.191
45.26,-0.356,1.179,-0.128
45.27,-0.357,0.756,-0.14
45.28,-0.028,1.286,0.082
45.29,-0.143,0.69,0.127
45.3,-0.242,1.047,0.021
45.31,-0.328,0.968,-0.179
45.32,-0.206,1.099,-0.01
45.33,-0.171,0.82,0.165
45.34,-0.092,0.877,0.103
45.35,-0.441,1.096,-0.192
45.36,-0.183,0.867,-0.031
45.37,-0.138,1.257,0.098
45.38,-0.116,0.605,0.154
45.39,-0.304,1.071,0.001
45.4,-0.279,0.962,-0.249
45.41,-0.092,1.015,0.002
45.42,-0.2,1.015,0.18
45.43,-0.121,0.731,0.04
45.44,-0.422,1.172,-0.229
45.45,-0.12,0.866,-0.008
45.46,-0.117,1.225,0.106
45.47,-0.129,0.663,0.112
45.48,-0.33,1.032,-0.072
45.49,-0.309,1.021,-0.156
45.5,-0.105,0.999,0.07
45.51,-0.184,1.06,0.137
45.52,-0.142,0.67,0.037
45.53,-0.484,1.292,-0.199
45.54,-0.094,0.86,-0.065
45.55,-0.099,1.069,0.135
45.56,-0.132,0.8,0.168
45.57,-0.398,0.982,-0.14
45.58,-0.235,1.068,-0.196
45.59,-0.043,0.934,0.082
45.6,-0.147,1.076,0.13
45.61,-0.211,0.661,-0.018
45.62,-0.424,1.335,-0.165
45.63,-0.106,0.877,-0.002
45.64,-0.168,1.018,0.155
45.65,-0.083,0.891,0.099
45.66,-0.419,0.844,-0.192
45.67,-0.221,1.239,-0.058
45.68,-0.052,0.936,0.093
45.69,-0.243,0.992,0.132
45.7,-0.191,0.714,-0.029
45.71,-0.403,1.239,-0.2
45.72,-0.07,0.952,-0.025
45.73,-0.098,0.93,0.164
45.74,-0.126,0.928,0.011
45.75,-0.419,0.855,-0.141
45.76,-0.165,1.271,-0.071
45.77,-0.121,0.766,0.106
45.78,-0.184,1.033,0.156
45.79,-0.199,0.867,-0.095
45.8,-0.319,1.027,-0.182
45.81,-0.073,1.084,0.093
45.82,-0.075,0.843,0.137
45.83,-0.263,0.988,0.018
45.84,-0.343,0.869,-0.166
45.85,-0.239,1.26,-0.019
45.86,-0.194,0.756,0.134
45.87,-0.097,0.973,0.114
45.88,-0.324,0.894,-0.161
45.89,-0.286,0.94,-0.052
45.9,-0.05,1.239,0.053
45.91,-0.126,0.627,0.13
45.92,-0.261,1.067,0.003
45.93,-0.295,0.945,-0.216
45.94,-0.099,1.133,-0.042
45.95,-0.2,0.839,0.145
45.96,-0.131,0.878,0.09
45.97,-0.365,1.073,-0.205
45.98,-0.217,0.911,-0.028
45.99,-0.118,1.188,0.108
46.0,-0.12,0.595,0.184
46.01,-0.331,1.148,-0.046
46.02,-0.298,0.904,-0.282
46.03,-0.092,1.003,0.009
46.04,-0.141,0.957,0.164
46.05,-0.109,0.755,0.049
46.06,-0.407,1.202,-0.22
46.07,-0.108,0.891,-0.023
46.08,-0.124,1.167,0.091
46.09,-0.18,0.687,0.177
46.1,-0.318,1.183,-0.174
46.11,-0.247,0.824,-0.213
46.12,-0.076,1.208,0.136
46.13,-0.188,0.826,0.177
46.14,-0.252,0.806,0.019
46.15,-0.433,1.238,-0.206
46.16,-0.076,0.835,-0.055
46.17,-0.214,1.196,0.182
46.18,-0.096,0.677,0.102
46.19,-0.43,1.086,-0.206
46.2,-0.191,0.956,-0.048
46.21,-0.143,1.128,0.12
46.22,-0.139,0.856,0.106
46.23,-0.27,0.779,0.021
46.24,-0.368,1.246,-0.221
46.25,-0.087,0.784,0.016
46.26,-0.18,1.208,0.148
46.27,-0.043,0.689,0.039
46.28,-0.45,1.113,-0.146
46.29,-0.089,1.035,-0.105
46.3,-0.126,0.918,0.109
46.31,-0.118,0.955,0.165
46.32,-0.313,0.755,-0.063
46.33,-0.377,1.229,-0.167
46.34,-0.068,0.866,0.068
46.35,-0.115,1.127,0.156
46.36,-0.193,0.72,0.047
46.37,-0.417,1.07,-0.168
46.38,-0.119,1.155,-0.093
46.39,-0.109,0.737,0.071
46.4,-0.126,1.052,0.163
46.41,-0.332,0.771,-0.144
46.42,-0.257,1.154,-0.144
46.43,-0.09,0.988,0.119
46.44,-0.128,0.934,0.117
46.45,-0.281,0.897,0.014
46.46,-0.39,1.035,-0.149
46.47,-0.125,1.117,-0.064
46.48,-0.127,0.709,0.17
46.49,-0.128,1.096,0.11
46.5,-0.339,0.793,-0.171
46.51,-0.274,1.145,-0.062
46.52,-0.04,1.013,0.08
46.53,-0.102,0.814,0.142
46.54,-0.373,0.996,-0.031
46.55,-0.296,0.89,-0.221
46.56,-0.098,1.219,-0.022
46.57,-0.156,0.736,0.211
46.58,-0.116,1.011,0.07
46.59,-0.376,0.907,-0.205
46.6,-0.13,1.092,-0.046
46.61,-0.069,1.015,0.059
46.62,-0.208,0.715,0.188
46.63,-0.298,1.152,-0.122
46.64,-0.199,0.853,-0.15
46.65,-0.214,1.256,0.097
46.66,-0.012,0.733,0.145
46.67,-0.277,0.961,0.035
46.68,-0.446,1.011,-0.15
46.69,-0.106,0.934,-0.032
46.7,-0.147,1.05,0.13
46.71,-0.185,0.692,0.16
46.72,-0.384,1.177,-0.183
46.73,-0.231,0.812,-0.166
46.74,-0.078,1.302,0.121
46.75,-0.098,0.732,0.118
46.76,-0.34,0.852,0.017
46.77,-0.293,1.167,-0.196
46.78,-0.097,0.903,-0.025
46.79,-0.25,1.11,0.148
46.8,-0.029,0.658,0.101
46.81,-0.534,1.172,-0.208
46.82,-0.245,0.889,-0.022
46.83,-0.055,1.128,0.063
46.84,-0.154,0.791,0.111
46.85,-0.298,0.838,-0.009
46.86,-0.303,1.236,-0.195
46.87,-0.139,0.865,0.017
46.88,-0.151,1.153,0.135
46.89,-0.06,0.688,0.015
46.9,-0.529,1.181,-0.198
46.91,-0.005,0.843,-0.052
46.92,-0.14,1.134,0.07
46.93,-0.206,0.814,0.167
46.94,-0.328,0.878,-0.122
46.95,-0.222,1.113,-0.177
46.96,-0.058,0.956,0.086
46.97,-0.075,1.07,0.094
46.98,-0.183,0.655,-0.044
46.99,-0.441,1.264,-0.167
47.0,-0.014,0.916,-0.023
47.01,-0.249,1.007,0.14
47.02,-0.151,0.871,0.14
47.03,-0.405,0.899,-0.162
47.04,-0.337,1.232,-0.065
47.05,-0.061,0.854,0.101
47.06,-0.137,1.011,0.144
47.07,-0.242,0.751,-0.015
47.08,-0.307,1.242,-0.237
47.09,-0.113,0.93,-0.025
47.1,-0.108,0.916,0.149
47.11,-0.148,0.979,0.075
47.12,-0.406,0.828,-0.211
47.13,-0.241,1.295,-0.013
47.14,-0.067,0.805,0.099
47.15,-0.225,0.965,0.179
47.16,-0.214,0.86,-0.077
47.17,-0.265,1.09,-0.194
47.18,-0.129,1.094,0.08
47.19,-0.014,0.826,0.158
47.2,-0.25,0.995,0.02
47.21,-0.473,0.838,-0.133
47.22,-0.074,1.302,-0.051
47.23,-0.217,0.739,0.062
47.24,-0.124,0.937,0.2
47.25,-0.307,0.997,-0.155
47.26,-0.413,0.903,-0.072
47.27,0.044,1.22,0.089
47.28,-0.066,0.676,0.095
47.29,-0.388,1.076,0.009
47.3,-0.242,0.953,-0.18
47.31,-0.176,1.129,-0.057
47.32,-0.213,0.818,0.146
47.33,-0.024,0.866,0.076
47.34,-0.485,1.109,-0.181
47.35,-0.257,0.865,-0.006
47.36,-0.094,1.238,0.109
47.37,-0.125,0.608,0.141
47.38,-0.333,1.099,-0.029
47.39,-0.205,0.98,-0.288
47.4,-0.13,1.052,-0.02
47.41,-0.055,0.941,0.15
47.42,-0.143,0.751,0.042
47.43,-0.458,1.222,-0.182
47.44,-0.059,0.874,-0.044
47.45,-0.074,1.181,0.062
47.46,-0.191,0.688,0.212
47.47,-0.344,1.073,-0.122
47.48,-0.225,0.97,-0.203
47.49,-0.102,1.054,0.113
47.5,-0.13,0.972,0.122
47.51,-0.223,0.667,0.054
47.52,-0.452,1.332,-0.146
47.53,-0.108,0.809,-0.037
47.54,-0.173,1.112,0.127
47.55,-0.083,0.778,0.134
47.56,-0.397,0.979,-0.169
47.57,-0.244,1.084,-0.135
47.58,0.007,0.972,0.076
47.59,-0.14,1.01,0.131
47.6,-0.231,0.676,0.011
47.61,-0.376,1.336,-0.233
47.62,-0.086,0.807,0.001
47.63,-0.206,1.092,0.182
47.64,-0.054,0.835,0.091
47.65,-0.436,0.892,-0.186
47.66,-0.165,1.178,-0.081
47.67,-0.071,0.808,0.096
47.68,-0.156,1.046,0.141
47.69,-0.229,0.735,-0.052
47.7,-0.359,1.185,-0.204
47.71,-0.085,0.997,0.063
47.72,-0.2,1.08,0.134
47.73,-0.114,0.709,0.0
47.74,-0.438,1.131,-0.105
47.75,-0.186,1.174,-0.078
47.76,-0.098,0.684,0.069
47.77,-0.164,1.102,0.189
47.78,-0.336,0.764,-0.121
47.79,-0.39,1.15,-0.111
47.8,-0.008,0.996,0.08
47.81,-0.109,0.907,0.085
47.82,-0.32,0.895,0.045
47.83,-0.34,1.004,-0.187
47.84,-0.113,1.127,-0.065
47.85,-0.1,0.762,0.193
47.86,-0.249,1.026,0.099
47.87,-0.354,0.772,-0.195
47.88,-0.096,1.219,-0.088
47.89,-0.172,0.995,0.081
47.9,-0.137,0.741,0.151
47.91,-0.26,1.061,-0.034
47.92,-0.285,0.843,-0.257
47.93,-0.142,1.204,0.05
47.94,-0.099,0.818,0.188
47.95,-0.211,0.983,0.073
47.96,-0.338,0.9,-0.16
47.97,-0.13,1.146,-0.085
47.98,-0.15,0.959,0.075
47.99,-0.133,0.725,0.183
48.0,-0.363,1.151,-0.097
48.01,-0.277,0.782,-0.183
48.02,-0.111,1.284,0.109
48.03,-0.113,0.773,0.129
48.04,-0.204,0.915,0.01
48.05,-0.34,1.084,-0.15
48.06,-0.219,0.981,-0.033
48.07,-0.172,1.017,0.102
48.08,-0.093,0.723,0.151
48.09,-0.435,1.165,-0.149
48.1,-0.21,0.812,-0.105
48.11,-0.153,1.276,0.151
48.12,-0.129,0.73,0.118
48.13,-0.223,0.869,0.035
48.14,-0.393,1.214,-0.22
48.15,-0.068,0.798,-0.02
48.16,-0.223,1.175,0.168
48.17,-0.122,0.667,0.138
48.18,-0.473,1.124,-0.179
48.19,-0.168,0.907,-0.062
48.2,-0.145,1.155,0.069
48.21,-0.075,0.792,0.119
48.22,-0.27,0.817,0.006
48.23,-0.396,1.27,-0.221
48.24,-0.098,0.786,0.02
48.25,-0.184,1.255,0.17
48.26,-0.12,0.678,0.047
48.27,-0.427,1.089,-0.17
48.28,-0.132,1.033,-0.061
48.29,-0.108,0.956,0.093
48.3,-0.136,0.921,0.176
48.31,-0.307,0.793,-0.083
48.32,-0.354,1.2,-0.176
48.33,-0.069,0.878,0.089
48.34,-0.136,1.168,0.097
48.35,-0.138,0.692,0.047
