t,ax,ay,az
0.0,-0.321,1.258,-0.184
0.01,-0.114,0.84,-0.089
0.02,-0.239,1.149,0.215
0.03,-0.04,0.69,0.125
0.04,-0.476,1.101,-0.174
0.05,-0.205,0.91,-0.075
0.06,-0.051,1.196,0.08
0.07,-0.208,0.79,0.102
0.08,-0.178,0.81,0.023
0.09,-0.381,1.294,-0.194
0.1,-0.182,0.775,0.008
0.11,-0.107,1.181,0.183
0.12,-0.122,0.668,0.069
0.13,-0.511,1.107,-0.147
0.14,-0.042,1.041,-0.074
0.15,-0.122,1.011,0.07
0.16,-0.192,0.921,0.194
0.17,-0.23,0.776,-0.051
0.18,-0.425,1.24,-0.219
0.19,-0.135,0.824,0.107
0.2,-0.046,1.229,0.129
0.21,-0.179,0.637,-0.021
0.22,-0.427,1.105,-0.147
0.23,-0.06,1.106,-0.079
0.24,-0.128,0.798,0.101
0.25,-0.173,0.998,0.162
0.26,-0.273,0.763,-0.156
0.27,-0.341,1.195,-0.137
0.28,-0.045,0.936,0.15
0.29,-0.126,1.039,0.106
0.3,-0.27,0.726,-0.002
0.31,-0.28,1.156,-0.2
0.32,-0.121,1.053,-0.06
0.33,-0.211,0.793,0.198
0.34,-0.064,1.054,0.1
0.35,-0.376,0.765,-0.24
0.36,-0.272,1.245,-0.016
0.37,-0.015,0.913,0.087
0.38,-0.23,0.912,0.119
0.39,-0.193,0.848,-0.044
0.4,-0.331,1.068,-0.235
0.41,-0.155,1.097,0.04
0.42,-0.058,0.848,0.184
0.43,-0.201,0.978,-0.001
0.44,-0.41,0.815,-0.134
0.45,-0.108,1.329,-0.08
0.46,-0.205,0.782,0.104
0.47,-0.214,0.898,0.208
0.48,-0.24,0.951,-0.117
0.49,-0.323,0.91,-0.189
0.5,-0.062,1.26,0.116
0.51,-0.09,0.734,0.092
0.52,-0.263,1.002,0.029
0.53,-0.374,0.91,-0.115
0.54,-0.189,1.234,-0.107
0.55,-0.148,0.696,0.109
0.56,-0.053,1.019,0.045
0.57,-0.36,0.91,-0.217
0.58,-0.26,1.066,-0.055
0.59,0.027,1.09,0.095
0.6,-0.209,0.679,0.122
0.61,-0.249,1.109,0.011
0.62,-0.256,0.873,-0.227
0.63,-0.229,1.188,0.016
0.64,-0.003,0.774,0.175
0.65,-0.149,0.935,0.01
0.66,-0.507,0.983,-0.122
0.67,-0.113,1.068,-0.072
0.68,-0.205,1.02,0.1
0.69,-0.215,0.688,0.242
0.7,-0.304,1.152,-0.118
0.71,-0.27,0.798,-0.192
0.72,-0.169,1.247,0.162
0.73,-0.066,0.717,0.123
0.74,-0.281,0.901,0.021
0.75,-0.353,1.129,-0.196
0.76,-0.02,0.947,-0.112
0.77,-0.285,1.089,0.131
0.78,-0.004,0.691,0.142
0.79,-0.355,1.156,-0.209
0.8,-0.286,0.929,-0.002
0.81,-0.304,0.996,-0.214
0.82,-0.111,1.137,-0.006
0.83,-0.086,0.796,0.166
0.84,-0.102,1.002,0.034
0.85,-0.388,0.838,-0.161
0.86,-0.16,1.266,-0.107
0.87,-0.07,0.799,0.036
0.88,-0.223,0.875,0.227
0.89,-0.294,1.048,-0.09
0.9,-0.26,0.806,-0.221
0.91,-0.158,1.255,0.041
0.92,-0.03,0.731,0.126
0.93,-0.127,0.988,-0.032
0.94,-0.386,0.984,-0.141
0.95,-0.155,1.162,-0.101
0.96,-0.135,0.783,0.076
0.97,-0.156,0.819,0.172
0.98,-0.316,1.122,-0.143
0.99,-0.284,0.771,-0.157
1.0,-0.174,1.261,0.137
1.01,-0.012,0.752,0.095
1.02,-0.253,0.995,-0.055
1.03,-0.354,0.966,-0.161
1.04,-0.127,1.105,-0.019
1.05,-0.254,0.912,0.136
1.06,-0.058,0.758,0.174
1.07,-0.42,1.161,-0.172
1.08,-0.266,0.85,-0.076
1.09,-0.052,1.307,0.064
1.1,-0.089,0.607,0.143
1.11,-0.355,1.025,0.073
1.12,-0.311,1.003,-0.223
1.13,-0.121,1.01,-0.008
1.14,-0.138,1.082,0.154
1.15,-0.09,0.653,0.083
1.16,-0.451,1.203,-0.185
1.17,-0.084,0.892,-0.068
1.18,-0.164,1.182,0.106
1.19,-0.167,0.674,0.21
1.2,-0.328,1.042,-0.035
1.21,-0.342,0.989,-0.171
1.22,-0.181,0.997,0.089
1.23,-0.185,1.087,0.171
1.24,-0.062,0.639,0.009
1.25,-0.522,1.281,-0.148
1.26,-0.099,0.881,-0.072
1.27,-0.098,1.125,0.053
1.28,-0.167,0.753,0.163
1.29,-0.27,0.993,-0.131
1.3,-0.272,0.89,-0.181
1.31,-0.092,1.088,0.076
1.32,-0.058,0.914,0.119
1.33,-0.263,0.738,0.028
1.34,-0.428,1.261,-0.165
1.35,-0.063,0.813,-0.016
1.36,-0.282,1.157,0.15
1.37,-0.04,0.707,0.122
1.38,-0.416,1.079,-0.21
1.39,-0.282,0.982,-0.062
1.4,-0.001,1.098,0.055
1.41,-0.158,0.874,0.111
1.42,-0.247,0.752,0.064
1.43,-0.39,1.349,-0.216
1.44,-0.147,0.751,0.0
1.45,-0.154,1.151,0.162
1.46,-0.033,0.719,0.04
1.47,-0.497,1.097,-0.135
1.48,-0.187,1.077,-0.017
1.49,-0.039,0.974,0.06
1.5,-0.3,0.974,0.209
1.51,-0.172,0.756,-0.041
1.52,-0.407,1.308,-0.172
1.53,-0.073,0.825,0.049
1.54,-0.108,1.135,0.152
1.55,-0.173,0.684,0.018
1.56,-0.485,1.048,-0.142
1.57,-0.083,1.131,-0.069
1.58,-0.12,0.823,0.059
1.59,-0.222,1.026,0.201
1.6,-0.225,0.773,-0.149
1.61,-0.327,1.197,-0.165
1.62,-0.12,0.939,0.171
1.63,-0.043,1.006,0.107
1.64,-0.313,0.806,-0.01
1.65,-0.312,1.08,-0.133
1.66,-0.19,1.135,-0.073
1.67,-0.234,0.712,0.198
1.68,-0.111,1.066,0.135
1.69,-0.383,0.754,-0.173
1.7,-0.269,1.207,-0.075
1.71,-0.05,0.97,0.081
1.72,-0.153,0.812,0.118
1.73,-0.245,0.941,0.029
1.74,-0.334,1.011,-0.199
1.75,-0.209,1.137,-0.01
1.76,-0.102,0.798,0.17
1.77,-0.102,1.047,0.056
1.78,-0.381,0.802,-0.174
1.79,-0.19,1.236,-0.023
1.8,-0.012,0.935,0.073
1.81,-0.225,0.792,0.162
1.82,-0.248,0.999,-0.033
1.83,-0.298,0.895,-0.237
1.84,-0.087,1.195,0.046
1.85,-0.088,0.772,0.158
1.86,-0.126,1.016,0.025
1.87,-0.418,0.891,-0.191
1.88,-0.141,1.183,-0.056
1.89,-0.088,0.852,0.079
1.9,-0.232,0.808,0.172
1.91,-0.332,1.105,-0.074
1.92,-0.297,0.832,-0.178
1.93,-0.14,1.199,0.096
1.94,-0.03,0.747,0.14
1.95,-0.234,1.001,-0.015
1.96,-0.447,0.9,-0.157
1.97,-0.01,1.122,-0.072
1.98,-0.154,0.928,0.114
1.99,-0.177,0.781,0.201
2.0,-0.407,1.167,-0.158
2.01,-0.221,0.796,-0.189
2.02,-0.014,1.258,0.059
2.03,-0.049,0.678,0.132
2.04,-0.366,1.009,0.023
2.05,-0.281,0.971,-0.217
2.06,-0.053,0.997,0.009
2.07,-0.264,1.001,0.231
2.08,-0.126,0.705,0.092
2.09,-0.428,1.25,-0.224
2.1,-0.161,0.854,-0.033
2.11,-0.187,1.175,0.098
2.12,-0.089,0.676,0.204
2.13,-0.394,1.134,-0.12
2.14,-0.236,0.826,-0.207
2.15,-0.084,1.202,0.12
2.16,-0.191,0.854,0.086
2.17,-0.167,0.777,0.011
2.18,-0.359,1.267,-0.206
2.19,-0.171,0.82,-0.035
2.2,-0.247,1.179,0.132
2.21,0.035,0.679,0.124
2.22,-0.455,1.085,-0.171
2.23,-0.213,0.929,-0.038
2.24,-0.051,1.163,0.041
2.25,-0.185,0.798,0.119
2.26,-0.258,0.783,0.075
2.27,-0.316,1.331,-0.273
2.28,-0.087,0.771,-0.088
2.29,-0.121,1.194,0.149
2.3,-0.06,0.67,0.07
2.31,-0.498,1.096,-0.182
2.32,-0.133,1.076,-0.053
2.33,-0.114,0.966,0.065
2.34,-0.175,0.852,0.168
2.35,-0.172,0.828,-0.079
2.36,-0.39,1.266,-0.207
2.37,-0.174,0.777,0.074
2.38,-0.101,1.251,0.138
2.39,-0.086,0.661,0.052
2.4,-0.437,1.123,-0.139
2.41,-0.139,1.13,-0.053
2.42,-0.157,0.835,0.085
2.43,-0.175,0.999,0.206
2.44,-0.288,0.738,-0.13
2.45,-0.239,1.204,-0.196
2.46,-0.06,0.945,0.144
2.47,-0.128,1.045,0.139
2.48,-0.2,0.726,0.018
2.49,-0.435,1.141,-0.167
2.5,-0.073,1.073,-0.1
2.51,-0.16,0.818,0.13
2.52,-0.055,1.056,0.108
2.53,-0.274,0.703,-0.186
2.54,-0.336,1.228,-0.054
2.55,0.02,0.917,0.094
2.56,-0.16,0.909,0.09
2.57,-0.251,0.893,0.056
2.58,-0.34,1.053,-0.225
2.59,-0.142,1.041,-0.05
2.6,-0.088,0.867,0.184
2.61,-0.125,1.064,0.068
2.62,-0.419,0.69,-0.16
2.63,-0.15,1.27,-0.052
2.64,-0.091,0.899,0.099
2.65,-0.198,0.854,0.189
2.66,-0.208,0.949,-0.036
2.67,-0.427,0.946,-0.214
2.68,-0.174,1.162,0.07
2.69,-0.089,0.799,0.132
2.7,-0.157,1.002,0.041
2.71,-0.432,0.891,-0.109
2.72,-0.073,1.274,-0.141
2.73,-0.158,0.812,0.091
2.74,-0.15,0.853,0.225
2.75,-0.32,1.041,-0.109
2.76,-0.304,0.81,-0.184
2.77,-0.144,1.277,0.111
2.78,-0.104,0.721,0.143
2.79,-0.277,1.024,0.073
2.8,-0.393,0.933,-0.163
2.81,-0.123,1.147,-0.059
2.82,-0.187,0.851,0.109
2.83,-0.051,0.833,0.165
2.84,-0.382,1.093,-0.184
2.85,-0.213,0.819,-0.111
2.86,-0.07,1.325,0.006
2.87,-0.042,0.617,0.111
2.88,-0.288,1.057,0.03
2.89,-0.328,0.975,-0.207
2.9,-0.121,1.001,-0.056
2.91,-0.162,1.012,0.203
2.92,-0.137,0.75,0.105
2.93,-0.475,0.999,-0.153
2.94,-0.004,0.999,-0.092
2.95,-0.23,1.159,0.07
2.96,-0.115,0.62,0.203
2.97,-0.239,1.191,-0.104
2.98,-0.447,0.787,-0.158
2.99,-0.102,1.19,0.145
3.0,-0.066,0.969,0.108
3.01,-0.253,0.755,0.006
3.02,-0.339,1.153,-0.126
3.03,-0.132,1.002,-0.093
3.04,-0.254,1.078,0.083
3.05,0.069,0.71,0.147
3.06,-0.447,1.14,-0.143
3.07,-0.285,0.819,0.003
3.08,-0.08,1.316,0.06
3.09,-0.153,0.621,0.093
3.1,-0.195,0.986,0.102
3.11,-0.32,1.123,-0.315
3.12,-0.165,0.811,-0.012
3.13,-0.09,1.103,0.203
3.14,-0.146,0.731,0.068
3.15,-0.418,1.157,-0.175
3.16,-0.236,0.957,0.002
3.17,-0.214,1.188,0.096
3.18,-0.153,0.696,0.179
3.19,-0.177,0.956,-0.03
3.2,-0.429,1.085,-0.24
3.21,0.021,0.862,0.035
3.22,-0.139,1.234,0.159
3.23,-0.104,0.619,0.061
3.24,-0.407,1.17,-0.193
3.25,-0.106,0.965,-0.015
3.26,-0.141,1.135,0.079
3.27,-0.133,0.779,0.176
3.28,-0.29,0.948,-0.057
3.29,-0.391,1.15,-0.218
3.3,-0.152,0.824,0.066
3.31,-0.064,1.222,0.115
3.32,-0.173,0.567,0.011
3.33,-0.438,1.238,-0.134
3.34,-0.057,1.003,-0.106
3.35,-0.198,0.94,0.061
3.36,0.028,0.9,0.18
3.37,-0.413,0.855,-0.167
3.38,-0.373,1.084,-0.114
3.39,0.099,0.969,0.055
3.4,-0.231,1.095,0.142
3.41,-0.22,0.652,0.056
3.42,-0.32,1.296,-0.146
3.43,-0.178,0.972,-0.022
3.44,-0.21,0.937,0.12
3.45,-0.056,0.943,0.117
3.46,-0.347,0.812,-0.163
3.47,-0.298,1.255,-0.053
3.48,-0.023,0.911,0.062
3.49,-0.167,0.964,0.104
3.5,-0.164,0.729,0.018
3.51,-0.378,1.253,-0.195
3.52,-0.158,0.926,-0.022
3.53,-0.106,0.925,0.232
3.54,-0.154,1.0,0.079
3.55,-0.462,0.737,-0.201
3.56,-0.165,1.324,-0.046
3.57,-0.023,0.831,0.031
3.58,-0.237,0.948,0.183
3.59,-0.214,0.851,-0.034
3.6,-0.401,1.089,-0.198
3.61,-0.107,0.993,0.012
3.62,-0.036,0.932,0.155
3.63,-0.155,0.936,0.005
3.64,-0.433,0.805,-0.134
3.65,-0.068,1.348,-0.092
3.66,-0.11,0.744,0.091
3.67,-0.228,0.93,0.238
3.68,-0.222,0.928,-0.123
3.69,-0.358,1.026,-0.152
3.7,-0.196,1.08,0.078
3.71,-0.001,0.799,0.132
3.72,-0.306,1.031,0.01
3.73,-0.381,0.873,-0.133
3.74,-0.164,1.181,-0.067
3.75,-0.169,0.731,0.154
3.76,-0.118,1.039,0.129
3.77,-0.342,0.832,-0.209
3.78,-0.267,1.098,-0.074
3.79,-0.035,1.055,0.046
3.8,-0.085,0.697,0.102
3.81,-0.286,1.056,0.03
3.82,-0.278,0.939,-0.209
3.83,-0.149,1.192,-0.004
3.84,-0.151,0.753,0.227
3.85,-0.225,1.008,0.087
3.86,-0.37,0.879,-0.232
3.87,-0.101,1.089,-0.073
3.88,-0.142,1.054,0.066
3.89,-0.166,0.657,0.119
3.9,-0.249,1.131,-0.034
3.91,-0.29,0.817,-0.204
3.92,-0.171,1.2,0.069
3.93,-0.057,0.769,0.136
3.94,-0.152,0.951,0.029
3.95,-0.376,0.994,-0.207
3.96,-0.108,1.034,-0.089
3.97,-0.154,1.031,0.082
3.98,-0.111,0.711,0.162
3.99,-0.353,1.155,-0.092
4.0,-0.327,0.818,-0.139
4.01,-0.104,1.252,0.105
4.02,-0.115,0.787,0.111
4.03,-0.216,0.919,0.015
4.04,-0.334,1.13,-0.198
4.05,-0.141,0.937,-0.033
4.06,-0.214,1.073,0.163
4.07,-0.053,0.731,0.151
4.08,-0.446,1.119,-0.171
4.09,-0.235,0.809,-0.061
4.1,-0.102,1.28,0.093
4.11,-0.15,0.727,0.118
4.12,-0.26,0.901,0.064
4.13,-0.321,1.168,-0.262
4.14,-0.151,0.792,0.01
4.15,-0.094,1.207,0.169
4.16,-0.15,0.67,0.093
4.17,-0.458,1.118,-0.18
4.18,-0.076,0.97,-0.042
4.19,-0.196,1.133,0.096
4.2,-0.139,0.776,0.154
4.21,-0.217,0.897,-0.051
4.22,-0.419,1.133,-0.224
4.23,-0.067,0.811,0.017
4.24,-0.123,1.235,0.157
4.25,-0.148,0.621,0.03
4.26,-0.424,1.183,-0.176
4.27,-0.105,1.02,-0.117
4.28,-0.119,0.948,0.063
4.29,-0.102,0.9,0.205
4.3,-0.344,0.847,-0.116
4.31,-0.343,1.134,-0.171
4.32,0.068,0.952,0.061
4.33,-0.254,1.097,0.177
4.34,-0.218,0.657,0.074
4.35,-0.395,1.264,-0.23
4.36,-0.21,0.933,-0.032
4.37,-0.135,0.948,0.15
4.38,-0.163,0.965,0.132
4.39,-0.38,0.757,-0.143
4.4,-0.258,1.278,-0.058
4.41,-0.008,0.86,0.024
4.42,-0.271,0.963,0.172
4.43,-0.213,0.764,0.088
4.44,-0.367,1.237,-0.26
4.45,-0.109,0.951,-0.001
4.46,-0.159,0.919,0.138
4.47,-0.075,0.967,0.06
4.48,-0.393,0.824,-0.161
4.49,-0.216,1.289,-0.066
4.5,-0.115,0.808,0.088
4.51,-0.103,0.94,0.12
4.52,-0.304,0.864,-0.026
4.53,-0.363,1.04,-0.226
4.54,-0.062,1.054,0.018
4.55,-0.11,0.906,0.193
4.56,-0.251,0.834,0.044
4.57,-0.333,0.949,-0.196
4.58,-0.114,1.313,-0.082
4.59,-0.192,0.648,0.14
4.6,-0.144,1.046,0.171
4.61,-0.291,0.814,-0.177
4.62,-0.309,1.096,-0.135
4.63,-0.057,1.047,0.145
4.64,-0.148,0.827,0.122
4.65,-0.335,0.947,0.002
4.66,-0.259,0.938,-0.19
4.67,-0.189,1.186,-0.032
4.68,-0.158,0.695,0.188
4.69,-0.097,1.056,0.101
4.7,-0.397,0.802,-0.225
4.71,-0.2,1.108,0.006
4.72,-0.019,1.075,0.067
4.73,-0.235,0.691,0.124
4.74,-0.251,1.105,0.012
4.75,-0.29,0.876,-0.231
4.76,-0.282,1.184,0.067
4.77,-0.036,0.823,0.132
4.78,-0.128,0.96,-0.017
4.79,-0.44,0.949,-0.16
4.8,-0.026,1.103,-0.14
4.81,-0.169,0.954,0.06
4.82,-0.115,0.712,0.226
4.83,-0.384,1.155,-0.154
4.84,-0.331,0.708,-0.189
4.85,-0.021,1.328,0.107
4.86,-0.112,0.741,0.096
4.87,-0.331,0.947,0.098
4.88,-0.263,1.097,-0.187
4.89,-0.166,0.977,-0.069
4.9,-0.176,1.023,0.141
4.91,0.012,0.774,0.134
4.92,-0.47,1.105,-0.183
4.93,-0.264,0.789,-0.101
4.94,0.067,1.327,0.034
4.95,-0.228,0.67,0.14
4.96,-0.286,0.946,0.095
4.97,-0.313,1.193,-0.265
4.98,-0.155,0.807,-0.028
4.99,-0.165,1.148,0.228
5.0,-0.077,0.648,0.062
5.01,-0.57,1.145,-0.178
5.02,0.014,0.902,-0.066
5.03,-0.13,1.168,0.056
5.04,-0.276,0.758,0.185
5.05,-0.158,0.952,-0.025
5.06,-0.44,1.14,-0.234
5.07,-0.142,0.829,0.068
5.08,-0.006,1.226,0.106
5.09,-0.195,0.591,-0.014
5.1,-0.494,1.193,-0.102
5.11,0.045,1.0,-0.111
5.12,-0.234,0.989,0.106
5.13,-0.123,0.856,0.231
5.14,-0.259,0.875,-0.133
5.15,-0.398,1.113,-0.148
5.16,-0.03,0.94,0.122
5.17,-0.118,1.11,0.091
5.18,-0.212,0.643,-0.002
5.19,-0.379,1.319,-0.151
5.2,-0.072,0.919,-0.078
5.21,-0.229,0.937,0.204
5.22,-0.021,0.942,0.096
5.23,-0.399,0.806,-0.203
5.24,-0.331,1.205,-0.025
5.25,0.039,0.919,0.068
5.26,-0.298,1.0,0.117
5.27,-0.257,0.731,-0.002
5.28,-0.281,1.215,-0.236
5.29,-0.164,0.933,0.039
5.3,-0.185,0.97,0.216
5.31,-0.056,0.934,0.029
5.32,-0.474,0.82,-0.134
5.33,-0.087,1.318,-0.101
5.34,-0.07,0.784,0.065
5.35,-0.243,0.983,0.149
5.36,-0.183,0.84,-0.074
5.37,-0.374,1.216,-0.173
5.38,-0.068,0.93,0.108
5.39,-0.117,0.997,0.118
5.4,-0.272,0.811,-0.01
5.41,-0.374,0.998,-0.127
5.42,-0.152,1.214,-0.04
5.43,-0.165,0.737,0.124
5.44,-0.127,1.094,0.127
5.45,-0.288,0.736,-0.253
5.46,-0.261,1.208,-0.032
5.47,0.011,0.994,0.066
5.48,-0.158,0.779,0.117
5.49,-0.264,1.016,0.051
5.5,-0.32,1.003,-0.208
5.51,-0.215,1.137,-0.011
5.52,-0.134,0.785,0.218
5.53,-0.164,1.038,0.054
5.54,-0.453,0.812,-0.197
5.55,-0.084,1.208,-0.079
5.56,-0.111,0.954,0.068
5.57,-0.172,0.748,0.191
5.58,-0.273,1.073,-0.063
5.59,-0.366,0.812,-0.177
5.6,-0.134,1.217,0.088
5.61,-0.057,0.783,0.113
5.62,-0.202,0.973,0.01
5.63,-0.358,0.927,-0.14
5.64,-0.104,1.152,-0.129
5.65,-0.176,0.907,0.109
5.66,-0.077,0.809,0.168
5.67,-0.438,1.134,-0.168
5.68,-0.262,0.765,-0.125
5.69,-0.007,1.359,0.085
5.7,-0.158,0.652,0.082
5.71,-0.22,0.981,0.004
5.72,-0.306,1.062,-0.168
5.73,-0.207,0.957,-0.032
5.74,-0.207,0.957,0.174
5.75,-0.046,0.751,0.112
5.76,-0.481,1.152,-0.179
5.77,-0.254,0.836,0.001
5.78,-0.022,1.273,0.06
5.79,-0.131,0.641,0.11
5.8,-0.266,1.146,-0.027
5.81,-0.32,0.901,-0.202
5.82,-0.223,1.077,0.119
5.83,-0.022,0.979,0.147
5.84,-0.181,0.752,0.028
5.85,-0.541,1.155,-0.131
5.86,-0.027,0.922,-0.043
5.87,-0.213,1.179,0.053
5.88,-0.086,0.655,0.205
5.89,-0.333,1.108,-0.168
5.9,-0.339,0.906,-0.169
5.91,0.006,1.121,0.089
5.92,-0.089,0.907,0.067
5.93,-0.243,0.706,0.017
5.94,-0.38,1.332,-0.156
5.95,-0.141,0.796,-0.039
5.96,-0.239,1.107,0.17
5.97,0.044,0.774,0.102
5.98,-0.537,1.053,-0.22
5.99,-0.216,0.998,-0.06
6.0,0.025,1.053,0.045
6.01,-0.267,0.895,0.176
6.02,-0.168,0.781,0.018
6.03,-0.363,1.336,-0.277
6.04,-0.141,0.771,0.023
6.05,-0.065,1.201,0.215
6.06,-0.125,0.703,0.003
6.07,-0.476,1.031,-0.172
6.08,-0.015,1.168,-0.044
6.09,-0.128,0.867,0.05
6.1,-0.252,0.983,0.2
6.11,-0.135,0.756,-0.14
6.12,-0.397,1.242,-0.222
6.13,-0.079,0.886,0.154
6.14,-0.066,1.067,0.101
6.15,-0.374,0.749,0.012
6.16,-0.312,1.107,-0.132
6.17,-0.074,1.119,-0.104
6.18,-0.278,0.759,0.232
6.19,-0.04,0.928,0.071
6.2,-0.48,0.815,-0.185
6.21,-0.23,1.279,-0.048
6.22,0.034,0.835,0.043
6.23,-0.278,1.005,0.165
6.24,-0.257,0.77,0.028
6.25,-0.332,1.165,-0.212
6.26,-0.206,0.99,0.026
6.27,-0.031,0.935,0.177
6.28,-0.163,0.967,0.003
6.29,-0.463,0.849,-0.175
6.3,-0.089,1.288,-0.083
6.31,-0.104,0.722,0.087
6.32,-0.206,1.002,0.179
6.33,-0.219,0.841,-0.151
6.34,-0.346,1.007,-0.148
6.35,-0.053,1.114,0.134
6.36,-0.076,0.802,0.144
6.37,-0.312,0.997,0.036
6.38,-0.373,0.906,-0.149
6.39,-0.139,1.29,-0.061
6.4,-0.143,0.707,0.117
6.41,-0.12,0.997,0.16
6.42,-0.365,0.899,-0.191
6.43,-0.273,0.982,-0.127
6.44,0.028,1.184,0.062
6.45,-0.09,0.636,0.132
6.46,-0.302,1.095,0.019
6.47,-0.253,0.915,-0.24
6.48,-0.171,1.163,-0.027
6.49,-0.136,0.836,0.176
6.5,-0.136,0.9,0.105
6.51,-0.425,0.97,-0.185
6.52,-0.136,0.995,-0.034
6.53,-0.119,1.127,0.058
6.54,-0.205,0.623,0.182
6.55,-0.253,1.163,-0.022
6.56,-0.354,0.799,-0.229
6.57,-0.17,1.156,0.091
6.58,-0.071,0.914,0.115
6.59,-0.19,0.808,0.015
6.6,-0.439,1.089,-0.17
6.61,-0.04,0.972,-0.122
6.62,-0.178,1.1,0.112
6.63,-0.124,0.662,0.19
6.64,-0.347,1.175,-0.163
6.65,-0.253,0.841,-0.174
6.66,-0.063,1.21,0.118
6.67,-0.115,0.842,0.109
6.68,-0.21,0.776,0.05
6.69,-0.426,1.266,-0.176
6.7,-0.074,0.843,-0.078
6.71,-0.229,1.139,0.13
6.72,-0.052,0.707,0.125
6.73,-0.466,1.12,-0.21
6.74,-0.217,0.892,-0.099
6.75,0.026,1.185,0.101
6.76,-0.181,0.834,0.148
6.77,-0.24,0.753,-0.009
6.78,-0.309,1.283,-0.245
6.79,-0.07,0.828,-0.004
6.8,-0.178,1.197,0.186
6.81,-0.108,0.652,0.05
6.82,-0.502,1.171,-0.164
6.83,-0.059,1.038,-0.073
6.84,-0.125,0.997,0.081
6.85,-0.176,0.905,0.178
6.86,-0.254,0.811,-0.108
6.87,-0.343,1.239,-0.145
6.88,-0.043,0.897,0.107
6.89,-0.132,1.09,0.1
6.9,-0.186,0.679,0.027
6.91,-0.413,1.224,-0.104
6.92,-0.196,1.013,-0.025
6.93,-0.207,0.828,0.18
6.94,-0.065,1.046,0.089
6.95,-0.399,0.752,-0.225
6.96,-0.26,1.269,-0.014
6.97,-0.051,0.882,0.075
6.98,-0.232,0.922,0.094
6.99,-0.15,0.844,-0.046
7.0,-0.439,1.22,-0.172
7.01,-0.109,0.898,0.087
7.02,-0.021,1.013,0.103
7.03,-0.287,0.848,0.05
7.04,-0.396,0.934,-0.09
7.05,-0.208,1.28,-0.056
7.06,-0.178,0.699,0.146
7.07,-0.097,1.087,0.183
7.08,-0.343,0.755,-0.168
7.09,-0.32,1.14,-0.13
7.1,0.071,1.049,0.052
7.11,-0.179,0.78,0.119
7.12,-0.261,0.976,0.03
7.13,-0.354,0.971,-0.196
7.14,-0.241,1.179,-0.016
7.15,-0.053,0.787,0.169
7.16,-0.152,1.018,0.074
7.17,-0.445,0.8,-0.182
7.18,-0.055,1.169,-0.086
7.19,-0.092,0.959,0.067
7.2,-0.159,0.695,0.158
7.21,-0.233,1.135,-0.101
7.22,-0.312,0.845,-0.173
7.23,-0.189,1.281,0.156
7.24,-0.117,0.731,0.111
7.25,-0.242,0.951,0.012
7.26,-0.295,0.999,-0.174
7.27,-0.183,1.059,-0.037
7.28,-0.124,0.928,0.118
7.29,-0.096,0.757,0.191
7.3,-0.415,1.145,-0.205
7.31,-0.228,0.813,-0.104
7.32,-0.06,1.373,0.074
7.33,-0.14,0.657,0.129
7.34,-0.301,1.015,0.067
7.35,-0.35,1.111,-0.274
7.36,-0.06,0.876,-0.033
7.37,-0.162,1.084,0.21
7.38,-0.054,0.657,0.06
7.39,-0.444,1.187,-0.19
7.4,-0.167,0.908,-0.009
7.41,-0.167,1.16,0.087
7.42,-0.184,0.72,0.15
7.43,-0.296,0.985,-0.087
7.44,-0.317,1.095,-0.213
7.45,-0.132,0.926,0.136
7.46,-0.143,1.101,0.101
7.47,-0.085,0.614,-0.025
7.48,-0.448,1.306,-0.178
7.49,-0.114,0.874,-0.037
7.5,-0.198,1.136,0.158
7.51,-0.139,0.809,0.122
7.52,-0.374,0.862,-0.162
7.53,-0.293,1.217,-0.064
7.54,-0.059,0.949,0.112
7.55,-0.196,0.958,0.128
7.56,-0.159,0.704,0.017
7.57,-0.415,1.327,-0.266
7.58,-0.021,0.817,-0.021
7.59,-0.162,1.106,0.199
7.6,-0.092,0.813,0.034
7.61,-0.447,0.908,-0.159
7.62,-0.129,1.296,-0.062
7.63,-0.071,0.757,0.111
7.64,-0.238,1.046,0.197
7.65,-0.264,0.734,-0.106
7.66,-0.327,1.167,-0.186
7.67,-0.095,0.982,0.144
7.68,-0.139,0.942,0.116
7.69,-0.235,0.876,0.012
7.7,-0.324,1.013,-0.172
7.71,-0.145,1.184,-0.091
7.72,-0.19,0.718,0.23
7.73,-0.147,1.063,0.139
7.74,-0.357,0.769,-0.17
7.75,-0.274,1.193,-0.045
7.76,-0.081,1.026,0.074
7.77,-0.129,0.708,0.1
7.78,-0.232,1.063,0.06
7.79,-0.413,0.966,-0.208
7.8,-0.174,1.196,0.02
7.81,-0.078,0.806,0.141
7.82,-0.146,0.945,-0.031
7.83,-0.394,0.886,-0.167
7.84,-0.12,1.274,-0.127
7.85,-0.126,0.713,0.08
7.86,-0.15,0.951,0.198
7.87,-0.336,0.98,-0.139
7.88,-0.312,0.868,-0.15
7.89,-0.065,1.25,0.092
7.9,-0.076,0.616,0.103
7.91,-0.268,1.071,0.058
7.92,-0.358,0.958,-0.203
7.93,-0.066,1.078,-0.068
7.94,-0.179,0.862,0.211
7.95,-0.132,0.863,0.094
7.96,-0.432,1.045,-0.201
7.97,-0.23,0.961,-0.027
7.98,-0.099,1.207,0.063
7.99,-0.145,0.568,0.125
8.0,-0.335,1.144,-0.012
8.01,-0.273,0.919,-0.245
8.02,-0.15,1.021,0.041
8.03,-0.116,1.008,0.158
8.04,-0.132,0.75,0.005
8.05,-0.374,1.102,-0.207
8.06,-0.072,0.946,-0.039
8.07,-0.154,1.138,0.098
8.08,-0.157,0.649,0.148
8.09,-0.302,1.129,-0.103
8.1,-0.313,0.946,-0.169
8.11,-0.151,1.073,0.147
8.12,-0.086,0.977,0.133
8.13,-0.279,0.696,-0.002
8.14,-0.394,1.261,-0.165
8.15,-0.072,0.883,-0.011
8.16,-0.196,1.151,0.14
8.17,-0.049,0.747,0.104
8.18,-0.395,1.045,-0.224
8.19,-0.3,0.996,-0.036
8.2,-0.024,1.037,0.079
8.21,-0.216,0.901,0.107
8.22,-0.252,0.746,0.001
8.23,-0.311,1.297,-0.212
8.24,-0.162,0.792,0.007
8.25,-0.046,1.139,0.154
8.26,-0.171,0.735,0.041
8.27,-0.447,1.068,-0.149
8.28,-0.115,1.118,-0.072
8.29,-0.146,0.806,0.089
8.3,-0.23,1.014,0.225
8.31,-0.276,0.73,-0.134
8.32,-0.306,1.188,-0.158
8.33,-0.079,0.944,0.125
8.34,-0.123,1.002,0.15
8.35,-0.27,0.778,0.034
8.36,-0.331,1.127,-0.193
8.37,-0.152,1.036,-0.068
8.38,-0.128,0.791,0.135
8.39,-0.154,1.023,0.086
8.4,-0.376,0.782,-0.186
8.41,-0.252,1.3,-0.083
8.42,-0.045,0.896,0.077
8.43,-0.169,0.883,0.152
8.44,-0.25,0.888,0.027
8.45,-0.354,1.073,-0.246
8.46,-0.114,1.101,0.002
8.47,-0.091,0.81,0.135
8.48,-0.207,1.007,0.048
8.49,-0.407,0.792,-0.16
8.5,-0.087,1.29,-0.087
8.51,-0.106,0.817,0.114
8.52,-0.224,0.905,0.217
8.53,-0.282,1.004,-0.123
8.54,-0.335,0.88,-0.152
8.55,-0.113,1.271,0.161
8.56,-0.128,0.707,0.13
8.57,-0.298,1.044,0.036
8.58,-0.325,0.947,-0.193
8.59,-0.221,1.152,-0.011
8.6,-0.159,0.836,0.189
8.61,-0.083,0.885,0.103
8.62,-0.397,1.034,-0.192
8.63,-0.232,0.92,-0.089
8.64,-0.107,1.073,0.057
8.65,-0.187,0.665,0.165
8.66,-0.257,1.13,-0.066
8.67,-0.308,0.82,-0.207
8.68,-0.219,1.23,0.157
8.69,-0.05,0.816,0.13
8.7,-0.24,0.889,-0.004
8.71,-0.328,1.109,-0.132
8.72,-0.182,0.993,-0.136
8.73,-0.152,0.973,0.132
8.74,-0.01,0.733,0.182
8.75,-0.48,1.152,-0.122
8.76,-0.309,0.761,-0.116
8.77,0.008,1.316,0.064
8.78,-0.197,0.755,0.17
8.79,-0.183,0.878,0.045
8.8,-0.385,1.211,-0.195
8.81,-0.145,0.822,-0.005
8.82,-0.191,1.122,0.183
8.83,-0.081,0.677,0.073
8.84,-0.479,1.14,-0.224
8.85,-0.137,0.939,-0.034
8.86,-0.155,1.171,0.085
8.87,-0.142,0.732,0.147
8.88,-0.215,0.943,-0.006
8.89,-0.454,1.195,-0.23
8.9,-0.121,0.756,0.016
8.91,-0.027,1.3,0.121
8.92,-0.169,0.614,0.008
8.93,-0.426,1.14,-0.135
8.94,-0.062,1.066,-0.074
8.95,-0.175,0.94,0.069
8.96,-0.15,0.887,0.216
8.97,-0.401,0.846,-0.143
8.98,-0.322,1.098,-0.183
8.99,0.025,0.96,0.101
9.0,-0.177,1.081,0.129
9.01,-0.264,0.652,0.05
9.02,-0.359,1.294,-0.204
9.03,-0.146,0.893,-0.074
9.04,-0.203,0.916,0.223
9.05,-0.034,0.974,0.082
9.06,-0.474,0.797,-0.147
9.07,-0.327,1.223,-0.08
9.08,0.018,0.878,0.055
9.09,-0.225,1.006,0.136
9.1,-0.179,0.75,-0.006
9.11,-0.398,1.213,-0.204
9.12,-0.152,0.985,0.039
9.13,-0.087,0.886,0.157
9.14,-0.267,1.191,-0.137
9.15,0.022,0.897,0.089
9.16,-0.209,0.974,0.122
9.17,-0.211,0.751,0.003
9.18,-0.301,1.181,-0.247
9.19,-0.131,1.018,-0.037
9.2,-0.161,0.82,0.19
9.21,-0.134,1.011,0.036
9.22,-0.392,0.759,-0.214
9.23,-0.163,1.323,0.007
9.24,-0.1,0.88,0.124
9.25,-0.24,0.86,0.135
9.26,-0.107,0.902,-0.093
9.27,-0.365,1.049,-0.208
9.28,-0.144,1.095,0.115
9.29,-0.012,0.789,0.159
9.3,-0.383,0.993,0.036
9.31,-0.281,0.841,-0.166
9.32,-0.159,1.25,-0.059
9.33,-0.196,0.721,0.129
9.34,-0.027,0.94,0.167
9.35,-0.357,0.99,-0.153
9.36,-0.402,0.902,-0.076
9.37,-0.005,1.265,0.044
9.38,-0.133,0.646,0.073
9.39,-0.205,1.068,0.013
9.4,-0.4,0.922,-0.2
9.41,-0.163,1.184,0.027
9.42,0.009,0.824,0.124
9.43,-0.188,0.961,0.03
9.44,-0.372,0.91,-0.178
9.45,-0.091,1.114,-0.134
9.46,-0.13,0.977,0.066
9.47,-0.115,0.713,0.226
9.48,-0.322,1.177,-0.115
9.49,-0.27,0.781,-0.188
9.5,-0.174,1.232,0.118
9.51,-0.043,0.755,0.113
9.52,-0.182,0.947,0.007
9.53,-0.427,1.095,-0.191
9.54,-0.138,0.916,-0.049
9.55,-0.23,1.043,0.159
9.56,-0.079,0.713,0.133
9.57,-0.423,1.139,-0.177
9.58,-0.252,0.823,-0.055
9.59,-0.094,1.303,0.069
9.6,-0.18,0.689,0.126
9.61,-0.247,0.923,0.033
9.62,-0.409,1.143,-0.25
9.63,-0.146,0.816,0.015
9.64,-0.08,1.124,0.143
9.65,-0.125,0.687,0.069
9.66,-0.521,1.171,-0.169
9.67,-0.159,0.898,-0.05
9.68,-0.079,1.145,0.067
9.69,-0.186,0.782,0.137
9.7,-0.24,0.919,-0.037
9.71,-0.333,1.181,-0.247
9.72,-0.099,0.818,0.073
9.73,-0.042,1.201,0.125
9.74,-0.166,0.611,0.023
9.75,-0.49,1.198,-0.195
9.76,0.082,0.988,-0.079
9.77,-0.182,1.013,0.088
9.78,-0.086,0.873,0.205
9.79,-0.306,0.872,-0.167
9.8,-0.434,1.174,-0.114
9.81,0.052,0.881,0.089
9.82,-0.142,1.097,0.103
9.83,-0.262,0.637,0.073
9.84,-0.369,1.285,-0.244
9.85,-0.063,0.876,-0.053
9.86,-0.191,1.0,0.215
9.87,-0.125,0.884,0.059
9.88,-0.448,0.827,-0.216
9.89,-0.146,1.291,-0.066
9.9,-0.095,0.807,0.102
9.91,-0.273,1.024,0.161
9.92,-0.177,0.784,-0.08
9.93,-0.345,1.123,-0.214
9.94,-0.109,1.045,0.097
9.95,-0.083,0.877,0.077
9.96,-0.193,0.917,0.014
9.97,-0.346,0.933,-0.149
9.98,-0.226,1.26,-0.008
9.99,-0.197,0.695,0.14
10.0,-0.096,1.018,0.11
10.01,-0.306,0.813,-0.165
10.02,-0.351,1.126,-0.062
10.03,-0.049,1.075,0.003
10.04,-0.105,0.653,0.108
10.05,-0.247,1.099,0.04
10.06,-0.336,0.93,-0.279
10.07,-0.176,1.145,-0.035
10.08,-0.059,0.821,0.206
10.09,-0.208,0.974,0.069
10.1,-0.377,0.894,-0.184
10.11,-0.133,1.11,-0.07
10.12,-0.158,1.08,0.131
10.13,-0.203,0.658,0.148
10.14,-0.256,1.161,-0.05
10.15,-0.374,0.809,-0.197
10.16,-0.181,1.189,0.111
10.17,-0.002,0.857,0.087
10.18,-0.197,0.893,0.028
10.19,-0.39,1.012,-0.155
10.2,-0.149,1.125,-0.114
10.21,-0.169,0.863,0.12
10.22,-0.122,0.837,0.169
10.23,-0.407,1.063,-0.192
10.24,-0.289,0.799,-0.07
10.25,0.016,1.38,0.056
10.26,-0.115,0.563,0.122
10.27,-0.316,1.018,0.082
10.28,-0.294,1.035,-0.236
10.29,-0.176,0.972,-0.041
10.3,-0.126,1.01,0.178
10.31,-0.116,0.68,0.106
10.32,-0.519,1.202,-0.131
10.33,-0.138,0.926,-0.026
10.34,-0.081,1.161,0.01
10.35,-0.164,0.699,0.219
10.36,-0.258,1.063,-0.062
10.37,-0.339,0.939,-0.224
10.38,-0.197,0.998,0.139
10.39,-0.076,1.091,0.082
10.4,-0.152,0.614,0.01
10.41,-0.483,1.305,-0.155
10.42,-0.149,0.881,-0.066
10.43,-0.211,1.055,0.059
10.44,-0.076,0.771,0.216
10.45,-0.391,1.045,-0.153
10.46,-0.346,0.959,-0.152
10.47,0.112,1.051,0.053
10.48,-0.16,1.036,0.122
10.49,-0.258,0.622,0.073
10.5,-0.333,1.38,-0.249
10.51,-0.092,0.808,-0.043
10.52,-0.27,1.115,0.225
10.53,-0.054,0.792,0.082
10.54,-0.487,0.948,-0.228
10.55,-0.158,1.178,0.005
10.56,-0.091,0.972,0.055
10.57,-0.255,0.925,0.156
10.58,-0.107,0.733,-0.052
10.59,-0.369,1.312,-0.228
10.6,-0.19,0.851,0.116
10.61,-0.124,1.111,0.154
10.62,-0.119,0.75,0.045
10.63,-0.525,0.968,-0.092
10.64,-0.095,1.272,-0.104
10.65,-0.071,0.737,0.03
10.66,-0.238,1.034,0.244
10.67,-0.178,0.766,-0.123
10.68,-0.386,1.181,-0.173
10.69,-0.134,0.979,0.148
10.7,-0.111,0.917,0.139
10.71,-0.317,0.877,0.044
10.72,-0.283,1.014,-0.177
10.73,-0.13,1.194,-0.081
10.74,-0.233,0.709,0.197
10.75,-0.09,1.092,0.121
10.76,-0.307,0.716,-0.236
10.77,-0.209,1.179,-0.02
10.78,-0.041,1.054,0.086
10.79,-0.231,0.73,0.101
10.8,-0.202,1.028,0.047
10.81,-0.349,0.953,-0.215
10.82,-0.151,1.148,-0.014
10.83,-0.088,0.76,0.194
10.84,-0.204,1.033,0.072
10.85,-0.393,0.843,-0.161
10.86,-0.212,1.162,-0.099
10.87,-0.107,0.942,0.079
10.88,-0.146,0.748,0.17
10.89,-0.346,1.092,-0.066
10.9,-0.339,0.81,-0.187
10.91,-0.101,1.263,0.024
10.92,-0.142,0.763,0.158
10.93,-0.227,0.959,0.041
10.94,-0.393,0.976,-0.161
10.95,-0.081,1.086,-0.098
10.96,-0.165,0.979,0.129
10.97,-0.114,0.727,0.207
10.98,-0.428,1.164,-0.166
10.99,-0.297,0.767,-0.131
11.0,-0.043,1.384,0.07
11.01,-0.142,0.706,0.097
11.02,-0.224,1.1,0.035
11.03,-0.323,0.959,-0.222
11.04,-0.178,1.061,0.007
11.05,-0.142,0.881,0.206
11.06,-0.119,0.798,0.054
11.07,-0.46,1.057,-0.196
11.08,-0.182,0.891,-0.016
11.09,-0.052,1.273,0.08
11.1,-0.14,0.611,0.106
11.11,-0.242,1.149,-0.049
11.12,-0.363,0.957,-0.201
11.13,-0.198,1.018,0.111
11.14,-0.056,0.989,0.137
11.15,-0.194,0.722,0.001
11.16,-0.452,1.207,-0.184
11.17,-0.05,0.859,-0.064
11.18,-0.159,1.187,0.111
11.19,-0.058,0.699,0.127
11.2,-0.391,1.07,-0.184
11.21,-0.286,0.982,-0.141
11.22,-0.006,1.09,0.061
11.23,-0.192,0.887,0.12
11.24,-0.214,0.712,0.013
11.25,-0.351,1.379,-0.229
11.26,-0.071,0.795,-0.003
11.27,-0.201,1.194,0.185
11.28,-0.021,0.677,0.063
11.29,-0.502,1.096,-0.191
11.3,-0.088,1.08,-0.085
11.31,-0.07,0.91,0.091
11.32,-0.237,0.96,0.171
11.33,-0.199,0.766,-0.085
11.34,-0.357,1.284,-0.219
11.35,-0.058,0.839,0.121
11.36,-0.104,1.068,0.144
11.37,-0.282,0.712,0.034
11.38,-0.362,1.089,-0.184
11.39,-0.104,1.101,-0.09
11.4,-0.179,0.806,0.156
11.41,-0.188,1.049,0.131
11.42,-0.289,0.735,-0.214
11.43,-0.3,1.274,-0.094
11.44,-0.056,0.89,0.112
11.45,-0.139,0.871,0.101
11.46,-0.199,0.889,0.017
11.47,-0.33,1.046,-0.231
11.48,-0.17,1.111,0.013
11.49,-0.127,0.838,0.171
11.5,-0.144,1.004,0.011
11.51,-0.315,0.798,-0.18
11.52,-0.171,1.326,-0.077
11.53,-0.092,0.75,0.105
11.54,-0.124,0.898,0.246
11.55,-0.329,0.957,-0.099
11.56,-0.284,0.855,-0.199
11.57,-0.059,1.235,0.072
11.58,-0.066,0.705,0.082
11.59,-0.177,1.034,0.043
11.6,-0.359,0.97,-0.142
11.61,-0.22,1.166,-0.041
11.62,-0.197,0.788,0.196
11.63,-0.062,0.868,0.154
11.64,-0.423,1.042,-0.206
11.65,-0.256,0.879,-0.08
11.66,-0.06,1.284,0.049
11.67,-0.121,0.576,0.132
11.68,-0.234,1.116,0.049
11.69,-0.384,0.937,-0.252
11.7,-0.139,1.026,0.05
11.71,-0.085,1.049,0.127
11.72,-0.141,0.734,0.072
11.73,-0.445,1.129,-0.144
11.74,-0.042,0.95,-0.106
11.75,-0.133,1.145,0.067
11.76,-0.134,0.661,0.222
11.77,-0.364,1.089,-0.095
11.78,-0.272,0.847,-0.227
11.79,-0.138,1.119,0.127
11.8,-0.129,1.015,0.104
11.81,-0.179,0.687,0.005
11.82,-0.456,1.308,-0.15
11.83,-0.121,0.871,-0.05
11.84,-0.226,1.13,0.174
11.85,-0.012,0.687,0.104
11.86,-0.465,1.143,-0.21
11.87,-0.235,0.873,-0.079
11.88,-0.104,1.233,0.085
11.89,-0.163,0.731,0.17
11.9,-0.202,0.863,0.028
11.91,-0.414,1.219,-0.237
11.92,-0.048,0.778,-0.018
11.93,-0.086,1.235,0.175
11.94,-0.175,0.625,0.068
11.95,-0.441,1.16,-0.178
11.96,0.028,1.035,-0.101
11.97,-0.172,1.01,0.068
11.98,-0.16,0.887,0.223
11.99,-0.244,0.834,-0.147
12.0,-0.346,1.177,-0.189
12.01,-0.052,0.901,0.148
12.02,-0.18,1.115,0.109
12.03,-0.24,0.646,0.035
12.04,-0.339,1.254,-0.186
12.05,-0.107,0.994,-0.08
12.06,-0.255,0.929,0.192
12.07,-0.069,0.959,0.122
12.08,-0.343,0.812,-0.219
12.09,-0.281,1.24,-0.038
12.1,-0.027,0.893,0.087
12.11,-0.182,0.969,0.098
12.12,-0.176,0.791,0.0
12.13,-0.353,1.202,-0.22
12.14,-0.101,0.942,-0.084
12.15,-0.072,0.908,0.177
12.16,-0.148,0.988,0.089
12.17,-0.465,0.82,-0.167
12.18,-0.139,1.269,-0.118
12.19,-0.028,0.764,0.07
12.2,-0.199,1.016,0.206
12.21,-0.278,0.836,-0.114
12.22,-0.292,1.039,-0.166
12.23,-0.108,1.171,0.126
12.24,-0.187,0.801,0.15
12.25,-0.217,1.015,0.018
12.26,-0.35,0.888,-0.184
12.27,-0.211,1.259,-0.031
12.28,-0.089,0.711,0.109
12.29,-0.157,0.99,0.179
12.3,-0.35,0.9,-0.188
12.31,-0.249,1.005,-0.078
12.32,-0.065,1.233,0.082
12.33,-0.162,0.595,0.121
12.34,-0.192,1.098,0.001
12.35,-0.377,0.954,-0.192
12.36,-0.101,1.142,-0.036
12.37,-0.117,0.785,0.156
12.38,-0.168,0.927,0.091
12.39,-0.377,1.005,-0.212
12.4,-0.173,0.969,-0.019
12.41,-0.129,1.153,0.084
12.42,-0.154,0.597,0.114
12.43,-0.279,1.174,-0.033
12.44,-0.319,0.87,-0.214
12.45,-0.164,1.145,0.08
12.46,-0.088,0.842,0.177
12.47,-0.227,0.852,-0.004
12.48,-0.454,1.123,-0.185
12.49,-0.067,0.915,-0.035
12.5,-0.206,1.141,0.134
12.51,-0.073,0.69,0.173
12.52,-0.369,1.171,-0.188
12.53,-0.268,0.836,-0.158
12.54,-0.018,1.225,0.125
12.55,-0.109,0.85,0.103
12.56,-0.356,0.811,0.002
12.57,-0.292,1.229,-0.203
12.58,-0.185,0.856,0.026
12.59,-0.188,1.129,0.232
12.6,-0.087,0.693,0.091
12.61,-0.416,1.158,-0.255
12.62,-0.156,0.944,-0.039
12.63,-0.126,1.118,0.118
12.64,-0.174,0.835,0.1
12.65,-0.31,0.977,-0.099
12.66,-0.258,1.131,-0.217
12.67,-0.167,0.931,0.116
12.68,-0.081,1.031,0.129
12.69,-0.241,0.633,-0.009
12.7,-0.424,1.282,-0.216
12.71,-0.059,0.864,-0.017
12.72,-0.217,1.028,0.167
12.73,-0.096,0.855,0.166
12.74,-0.394,0.947,-0.224
12.75,-0.244,1.115,-0.108
12.76,0.015,0.941,0.149
12.77,-0.23,1.027,0.135
12.78,-0.298,0.661,-0.042
12.79,-0.216,1.334,-0.248
12.8,-0.098,0.885,-0.005
12.81,-0.199,0.952,0.233
12.82,-0.102,0.829,0.027
12.83,-0.516,0.928,-0.205
12.84,-0.024,1.231,-0.042
12.85,-0.085,0.79,0.125
12.86,-0.268,1.033,0.165
12.87,-0.228,0.765,-0.141
12.88,-0.351,1.186,-0.168
12.89,-0.008,0.966,0.117
12.9,-0.091,0.876,0.129
12.91,-0.353,0.899,0.007
12.92,-0.289,0.955,-0.153
12.93,-0.083,1.247,0.002
12.94,-0.233,0.695,0.198
12.95,-0.137,1.03,0.056
12.96,-0.395,0.869,-0.215
12.97,-0.187,1.196,-0.067
12.98,-0.042,0.958,0.125
12.99,-0.24,0.766,0.192
13.0,-0.371,1.044,-0.054
13.01,-0.224,0.877,-0.231
13.02,-0.125,1.257,0.092
13.03,-0.087,0.682,0.135
13.04,-0.179,1.014,0.015
13.05,-0.406,1.021,-0.195
13.06,-0.157,1.03,-0.065
13.07,-0.163,0.89,0.113
13.08,-0.011,0.765,0.11
13.09,-0.496,1.136,-0.178
13.1,-0.197,0.832,-0.1
13.11,-0.033,1.296,0.07
13.12,-0.19,0.647,0.138
13.13,-0.26,1.029,0.008
13.14,-0.425,1.043,-0.237
13.15,-0.106,0.95,0.02
13.16,-0.072,1.055,0.151
13.17,-0.198,0.668,0.049
13.18,-0.463,1.213,-0.162
13.19,-0.075,0.938,-0.102
13.2,-0.099,1.077,0.06
13.21,-0.107,0.744,0.181
13.22,-0.347,1.014,-0.153
13.23,-0.366,0.998,-0.18
13.24,-0.009,1.008,0.117
13.25,-0.157,1.014,0.108
13.26,-0.241,0.662,0.025
13.27,-0.357,1.353,-0.202
13.28,-0.143,0.815,-0.045
13.29,-0.071,1.084,0.127
13.3,-0.046,0.747,0.082
13.31,-0.495,0.958,-0.174
13.32,-0.072,1.173,-0.108
13.33,-0.101,0.895,0.102
13.34,-0.244,1.021,0.144
13.35,-0.177,0.676,-0.067
13.36,-0.378,1.306,-0.221
13.37,-0.051,0.886,0.105
13.38,-0.19,1.026,0.158
13.39,-0.175,0.751,0.009
13.4,-0.4,1.063,-0.173
13.41,-0.058,1.165,-0.125
13.42,-0.124,0.737,0.141
13.43,-0.174,1.115,0.177
13.44,-0.372,0.668,-0.177
13.45,-0.288,1.213,-0.095
13.46,-0.018,1.02,0.087
13.47,-0.246,0.954,0.133
13.48,-0.241,0.767,0.028
13.49,-0.363,1.137,-0.224
13.5,-0.123,1.042,0.025
13.51,-0.071,0.879,0.149
13.52,-0.178,0.937,0.004
13.53,-0.417,0.841,-0.156
13.54,-0.14,1.322,-0.062
13.55,-0.15,0.737,0.126
13.56,-0.193,0.964,0.195
13.57,-0.246,0.907,-0.156
13.58,-0.294,1.014,-0.197
13.59,-0.034,1.149,0.119
13.6,-0.086,0.697,0.099
13.61,-0.343,1.046,0.049
13.62,-0.334,0.924,-0.198
13.63,-0.14,1.189,-0.053
13.64,-0.111,0.77,0.158
13.65,-0.105,0.925,0.087
13.66,-0.38,0.965,-0.21
13.67,-0.139,1.005,-0.067
13.68,-0.123,1.138,0.088
13.69,-0.146,0.624,0.155
13.7,-0.285,1.16,-0.041
13.71,-0.294,0.823,-0.216
13.72,-0.19,1.203,0.112
13.73,-0.072,0.862,0.14
13.74,-0.183,0.827,0.008
13.75,-0.427,1.109,-0.133
13.76,-0.118,0.937,-0.03
13.77,-0.2,1.109,0.079
13.78,-0.058,0.692,0.161
13.79,-0.369,1.117,-0.168
13.8,-0.251,0.866,-0.118
13.81,-0.03,1.25,0.059
13.82,-0.125,0.75,0.129
13.83,-0.259,0.826,0.07
13.84,-0.368,1.256,-0.242
13.85,-0.077,0.75,-0.035
13.86,-0.182,1.2,0.209
13.87,-0.079,0.695,0.085
13.88,-0.442,1.104,-0.2
13.89,-0.181,0.953,0.006
13.9,-0.08,1.112,0.074
13.91,-0.191,0.863,0.151
13.92,-0.281,0.815,-0.02
13.93,-0.34,1.214,-0.223
13.94,-0.123,0.865,0.071
13.95,-0.089,1.221,0.147
13.96,-0.146,0.575,0.016
13.97,-0.46,1.178,-0.203
13.98,0.016,1.046,-0.12
13.99,-0.148,0.9,0.099
14.0,-0.181,0.942,0.275
14.01,-0.296,0.781,-0.184
14.02,-0.311,1.153,-0.192
14.03,0.02,0.94,0.154
14.04,-0.143,1.074,0.108
14.05,-0.276,0.69,0.043
14.06,-0.374,1.245,-0.22
14.07,-0.11,0.966,-0.023
14.08,-0.207,0.873,0.203
14.09,-0.076,1.017,0.133
14.1,-0.455,0.762,-0.19
14.11,-0.203,1.282,-0.089
14.12,-0.021,0.843,0.073
14.13,-0.215,0.942,0.127
14.14,-0.201,0.801,0.006
14.15,-0.373,1.121,-0.263
14.16,-0.095,1.03,0.019
14.17,-0.095,0.868,0.171
14.18,-0.2,0.955,0.009
14.19,-0.4,0.837,-0.155
14.2,-0.091,1.302,-0.086
14.21,-0.074,0.69,0.073
14.22,-0.227,0.995,0.191
14.23,-0.25,0.913,-0.176
14.24,-0.323,0.928,-0.14
14.25,-0.119,1.207,0.192
14.26,-0.137,0.722,0.103
14.27,-0.298,1.015,-0.021
14.28,-0.275,0.992,-0.223
14.29,-0.14,1.148,-0.028
14.3,-0.066,0.752,0.181
14.31,-0.169,1.037,0.053
14.32,-0.36,0.824,-0.211
14.33,-0.093,1.158,-0.035
14.34,-0.115,0.976,0.104
14.35,-0.273,0.73,0.242
14.36,-0.263,1.108,-0.081
14.37,-0.306,0.882,-0.186
14.38,-0.104,1.281,0.116
14.39,-0.055,0.725,0.124
14.4,-0.329,0.99,0.012
14.41,-0.305,0.992,-0.168
14.42,-0.164,1.02,-0.052
14.43,-0.236,0.956,0.182
14.44,-0.03,0.759,0.141
14.45,-0.456,1.139,-0.145
14.46,-0.237,0.845,-0.031
14.47,-0.099,1.314,0.094
14.48,-0.169,0.584,0.081
14.49,-0.228,1.057,0.057
14.5,-0.335,1.082,-0.262
14.51,-0.158,0.855,-0.013
14.52,-0.083,1.124,0.216
14.53,-0.131,0.673,0.03
14.54,-0.49,1.189,-0.16
14.55,-0.063,0.934,-0.019
14.56,-0.232,1.14,0.098
14.57,-0.185,0.724,0.244
14.58,-0.281,0.993,-0.094
14.59,-0.291,1.04,-0.242
14.6,-0.068,0.959,0.113
14.61,-0.064,1.047,0.118
14.62,-0.172,0.618,0.031
14.63,-0.499,1.401,-0.163
14.64,-0.013,0.878,-0.086
14.65,-0.271,1.06,0.152
14.66,-0.081,0.819,0.195
14.67,-0.437,0.908,-0.199
14.68,-0.28,1.102,-0.095
14.69,-0.039,1.006,0.108
14.7,-0.19,0.99,0.126
14.71,-0.241,0.643,0.052
14.72,-0.298,1.382,-0.237
14.73,-0.087,0.833,-0.021
14.74,-0.179,1.051,0.223
14.75,-0.169,0.841,0.088
14.76,-0.469,0.914,-0.18
14.77,-0.156,1.235,-0.053
14.78,-0.095,0.792,0.057
14.79,-0.223,1.027,0.142
14.8,-0.196,0.744,-0.045
14.81,-0.403,1.208,-0.206
14.82,-0.073,0.934,0.117
14.83,-0.062,1.004,0.17
14.84,-0.259,0.865,0.02
14.85,-0.436,0.896,-0.148
14.86,-0.163,1.27,-0.037
14.87,-0.145,0.71,0.129
14.88,-0.163,1.055,0.138
14.89,-0.296,0.802,-0.185
14.9,-0.342,1.134,-0.115
14.91,0.003,1.048,0.087
14.92,-0.088,0.772,0.124
14.93,-0.326,1.002,0.013
14.94,-0.253,0.951,-0.203
14.95,-0.175,1.219,0.011
14.96,-0.178,0.738,0.191
14.97,-0.137,1.004,0.05
14.98,-0.382,0.863,-0.237
14.99,-0.129,1.149,-0.043
15.0,-0.074,0.998,0.059
15.01,-0.22,0.695,0.225
15.02,-0.28,1.132,-0.097
15.03,-0.267,0.85,-0.215
15.04,-0.159,1.289,0.108
15.05,-0.055,0.727,0.157
15.06,-0.261,0.95,-0.016
15.07,-0.419,0.997,-0.146
15.08,-0.127,1.051,-0.038
15.09,-0.25,1.021,0.136
15.1,-0.047,0.85,0.119
15.11,-0.358,1.109,-0.231
15.12,-0.301,0.902,-0.017
15.13,-0.059,1.215,0.049
15.14,-0.156,0.641,0.119
15.15,-0.303,1.129,0.005
15.16,-0.275,0.902,-0.26
15.17,-0.182,1.084,0.032
15.18,-0.114,0.965,0.185
15.19,-0.053,0.763,0.048
15.2,-0.517,1.187,-0.159
15.21,-0.087,0.982,-0.04
15.22,-0.159,1.08,0.091
15.23,-0.125,0.656,0.187
15.24,-0.396,1.161,-0.144
15.25,-0.334,0.853,-0.126
15.26,-0.051,1.211,0.071
15.27,-0.107,0.752,0.122
15.28,-0.305,0.911,0.068
15.29,-0.307,1.158,-0.227
15.3,-0.09,0.859,-0.023
15.31,-0.201,1.142,0.157
15.32,-0.013,0.672,0.098
15.33,-0.478,1.155,-0.205
15.34,-0.246,0.894,-0.042
15.35,-0.074,1.128,0.091
15.36,-0.176,0.815,0.142
15.37,-0.283,0.845,-0.035
15.38,-0.329,1.19,-0.226
15.39,-0.136,0.842,0.042
15.4,-0.138,1.154,0.147
15.41,-0.082,0.653,0.032
15.42,-0.491,1.237,-0.227
15.43,-0.126,0.983,-0.017
15.44,-0.119,1.034,0.067
15.45,-0.137,0.867,0.141
15.46,-0.309,0.82,-0.104
15.47,-0.334,1.216,-0.14
15.48,-0.09,0.881,0.085
15.49,-0.117,1.088,0.121
15.5,-0.193,0.635,0.026
15.51,-0.429,1.236,-0.186
15.52,-0.074,0.99,-0.042
15.53,-0.17,0.891,0.151
15.54,-0.126,0.999,0.162
15.55,-0.424,0.812,-0.183
15.56,-0.311,1.209,-0.09
15.57,0.037,0.878,0.08
15.58,-0.181,0.977,0.065
15.59,-0.205,0.725,-0.023
15.6,-0.37,1.251,-0.16
15.61,-0.201,1.013,-0.013
15.62,-0.027,0.849,0.153
15.63,-0.196,0.986,0.087
15.64,-0.469,0.853,-0.15
15.65,-0.122,1.283,-0.098
15.66,-0.079,0.712,0.058
15.67,-0.164,1.027,0.193
15.68,-0.256,0.84,-0.16
15.69,-0.328,0.977,-0.167
15.7,-0.079,1.089,0.148
15.71,-0.109,0.797,0.127
15.72,-0.272,1.008,0.023
15.73,-0.309,0.911,-0.192
15.74,-0.112,1.22,-0.024
15.75,-0.218,0.741,0.148
15.76,-0.101,0.974,0.152
15.77,-0.418,0.942,-0.232
15.78,-0.231,1.002,-0.015
15.79,-0.073,1.194,0.083
15.8,-0.196,0.595,0.149
15.81,-0.294,1.121,0.01
15.82,-0.249,0.933,-0.285
15.83,-0.143,1.115,0.001
15.84,-0.084,0.855,0.201
15.85,-0.151,0.884,0.051
15.86,-0.466,1.018,-0.195
15.87,-0.015,0.969,-0.061
15.88,-0.184,1.137,0.078
15.89,-0.214,0.67,0.221
15.9,-0.283,1.167,-0.117
15.91,-0.27,0.765,-0.151
15.92,-0.09,1.313,0.122
15.93,-0.092,0.7,0.122
15.94,-0.359,0.965,0.043
15.95,-0.299,1.054,-0.2
15.96,-0.164,0.979,-0.006
15.97,-0.23,1.017,0.199
15.98,-0.083,0.702,0.082
15.99,-0.427,1.172,-0.227
16.0,-0.211,0.859,-0.042
16.01,-0.061,1.263,0.067
16.02,-0.149,0.664,0.128
16.03,-0.294,0.99,-0.001
16.04,-0.269,1.045,-0.261
16.05,-0.132,0.92,0.038
16.06,-0.123,1.135,0.159
16.07,-0.137,0.608,0.019
16.08,-0.493,1.238,-0.173
16.09,-0.033,0.927,-0.069
16.1,-0.24,1.12,0.117
16.11,-0.17,0.757,0.183
16.12,-0.308,0.965,-0.138
16.13,-0.337,1.02,-0.208
16.14,-0.096,0.953,0.142
16.15,-0.112,1.123,0.099
16.16,-0.236,0.606,0.0
16.17,-0.454,1.292,-0.143
16.18,-0.073,0.892,-0.044
16.19,-0.208,1.044,0.135
16.2,-0.144,0.871,0.166
16.21,-0.397,0.887,-0.204
16.22,-0.24,1.095,-0.095
16.23,0.042,0.943,0.121
16.24,-0.192,1.008,0.075
16.25,-0.295,0.691,0.031
16.26,-0.334,1.302,-0.226
16.27,-0.073,0.877,-0.033
16.28,-0.135,1.04,0.181
16.29,-0.178,0.862,0.068
16.3,-0.479,0.861,-0.191
16.31,-0.071,1.24,-0.048
16.32,-0.078,0.772,0.105
16.33,-0.194,1.044,0.177
16.34,-0.243,0.796,-0.117
16.35,-0.326,1.175,-0.165
16.36,-0.111,1.003,0.124
16.37,-0.109,0.924,0.129
16.38,-0.249,0.925,-0.021
16.39,-0.375,0.946,-0.141
16.4,-0.075,1.254,-0.054
16.41,-0.121,0.694,0.112
16.42,-0.111,1.051,0.132
16.43,-0.295,0.817,-0.214
16.44,-0.252,1.123,-0.092
16.45,-0.022,1.058,0.103
16.46,-0.176,0.716,0.108
16.47,-0.353,1.057,0.027
16.48,-0.217,0.955,-0.251
16.49,-0.152,1.194,-0.027
16.5,-0.089,0.715,0.198
16.51,-0.176,0.996,0.057
16.52,-0.421,0.891,-0.198
16.53,-0.083,1.087,-0.085
16.54,-0.082,0.986,0.045
16.55,-0.202,0.756,0.212
16.56,-0.366,1.126,-0.081
16.57,-0.328,0.84,-0.154
16.58,-0.028,1.273,0.086
16.59,-0.13,0.678,0.11
16.6,-0.341,0.991,0.043
16.61,-0.306,1.061,-0.221
16.62,-0.13,0.943,-0.063
16.63,-0.181,1.006,0.168
16.64,-0.046,0.723,0.073
16.65,-0.475,1.173,-0.196
16.66,-0.182,0.844,-0.046
16.67,-0.057,1.221,0.086
16.68,-0.166,0.703,0.135
16.69,-0.238,0.949,-0.02
16.7,-0.355,1.088,-0.199
16.71,-0.093,0.934,0.012
16.72,-0.099,1.14,0.139
16.73,-0.181,0.687,0.018
16.74,-0.417,1.273,-0.148
16.75,-0.123,0.872,-0.018
16.76,-0.261,1.138,0.118
16.77,-0.033,0.719,0.156
16.78,-0.421,1.046,-0.207
16.79,-0.199,0.888,-0.138
16.8,-0.065,1.187,0.09
16.81,-0.146,0.875,0.111
16.82,-0.229,0.714,0.041
16.83,-0.325,1.365,-0.214
16.84,-0.098,0.744,-0.031
16.85,-0.204,1.152,0.202
16.86,-0.038,0.721,0.091
16.87,-0.526,1.056,-0.207
16.88,-0.139,1.062,-0.012
16.89,-0.087,1.02,0.103
16.9,-0.244,0.927,0.154
16.91,-0.167,0.714,-0.05
16.92,-0.398,1.3,-0.205
16.93,-0.128,0.835,0.096
16.94,-0.161,1.158,0.139
16.95,-0.098,0.684,0.01
16.96,-0.431,1.092,-0.168
16.97,-0.117,1.152,-0.057
16.98,-0.087,0.806,0.087
16.99,-0.183,1.053,0.175
17.0,-0.305,0.745,-0.171
17.01,-0.286,1.192,-0.169
17.02,-0.066,0.952,0.109
17.03,-0.117,0.985,0.121
17.04,-0.253,0.844,-0.014
17.05,-0.345,1.091,-0.183
17.06,-0.093,1.077,-0.062
17.07,-0.154,0.765,0.204
17.08,-0.125,1.052,0.092
17.09,-0.381,0.741,-0.216
17.1,-0.183,1.248,-0.055
17.11,-0.064,0.96,0.098
17.12,-0.172,0.799,0.088
17.13,-0.208,0.951,-0.014
17.14,-0.338,1.031,-0.233
17.15,-0.154,1.142,-0.002
17.16,-0.11,0.771,0.159
17.17,-0.19,1.016,0.043
17.18,-0.365,0.843,-0.2
17.19,-0.141,1.226,-0.072
17.2,-0.108,0.816,0.077
17.21,-0.163,0.859,0.214
17.22,-0.393,1.0,-0.09
17.23,-0.322,0.841,-0.148
17.24,-0.151,1.299,0.12
17.25,-0.119,0.703,0.124
17.26,-0.222,1.055,0.021
17.27,-0.326,0.96,-0.22
17.28,-0.168,1.062,-0.019
17.29,-0.166,0.849,0.158
17.3,-0.122,0.806,0.108
17.31,-0.438,1.09,-0.172
17.32,-0.166,0.873,-0.067
17.33,-0.158,1.297,0.09
17.34,-0.094,0.59,0.128
17.35,-0.253,1.093,-0.004
17.36,-0.39,1.006,-0.185
17.37,-0.104,1.007,0.015
17.38,-0.114,1.003,0.118
17.39,-0.123,0.714,0.044
17.4,-0.426,1.175,-0.212
17.41,-0.101,0.893,-0.042
17.42,-0.14,1.192,0.094
17.43,-0.114,0.684,0.151
17.44,-0.367,1.078,-0.059
17.45,-0.245,0.998,-0.193
17.46,-0.1,1.008,0.083
17.47,-0.106,1.014,0.15
17.48,-0.18,1.237,0.06
17.49,-0.115,0.714,0.205
17.5,-0.189,1.039,0.059
17.51,-0.341,0.822,-0.228
17.52,-0.096,1.18,-0.084
17.53,-0.142,0.927,0.138
17.54,-0.25,0.797,0.184
17.55,-0.287,1.054,-0.128
17.56,-0.293,0.9,-0.125
17.57,-0.124,1.296,0.086
17.58,-0.123,0.6,0.115
17.59,-0.227,1.044,0.001
17.6,-0.362,0.996,-0.196
17.61,-0.118,1.018,-0.027
17.62,-0.139,1.003,0.135
17.63,-0.102,0.736,0.076
17.64,-0.362,1.13,-0.191
17.65,-0.188,0.891,-0.014
17.66,-0.204,1.248,0.119
17.67,-0.076,0.661,0.16
17.68,-0.299,1.024,-0.039
17.69,-0.374,0.955,-0.219
17.7,-0.091,1.05,0.073
17.71,-0.148,1.072,0.089
17.72,-0.045,0.638,-0.008
17.73,-0.378,1.302,-0.147
17.74,-0.242,0.862,-0.03
17.75,-0.212,1.119,0.148
17.76,-0.002,0.751,0.096
17.77,-0.46,0.96,-0.138
17.78,-0.23,1.034,-0.112
17.79,-0.035,1.079,0.029
17.8,-0.18,0.921,0.092
17.81,-0.14,0.693,0.064
17.82,-0.419,1.347,-0.24
17.83,-0.135,0.732,-0.028
17.84,-0.117,1.15,0.197
17.85,-0.152,0.775,0.071
17.86,-0.38,0.946,-0.175
17.87,-0.167,1.183,-0.107
17.88,-0.121,0.836,0.039
17.89,-0.15,0.989,0.162
17.9,-0.189,0.766,-0.063
17.91,-0.423,1.256,-0.218
17.92,-0.126,0.86,0.114
17.93,-0.08,1.173,0.143
17.94,-0.134,0.763,-0.002
17.95,-0.361,0.98,-0.12
17.96,-0.138,1.262,-0.082
17.97,-0.129,0.697,0.106
17.98,-0.223,1.051,0.209
17.99,-0.288,0.793,-0.162
18.0,-0.295,1.134,-0.178
18.01,0.001,0.977,0.085
18.02,-0.121,0.928,0.112
18.03,-0.232,0.845,0.01
18.04,-0.259,1.037,-0.187
18.05,-0.213,1.205,-0.03
18.06,-0.199,0.717,0.217
18.07,-0.12,1.039,0.103
18.08,-0.407,0.809,-0.241
18.09,-0.14,1.162,-0.056
18.1,-0.139,0.991,0.093
18.11,-0.217,0.782,0.195
18.12,-0.226,1.015,0.009
18.13,-0.367,0.901,-0.207
18.14,-0.168,1.231,0.041
18.15,-0.053,0.795,0.122
18.16,-0.209,0.972,0.07
18.17,-0.359,0.849,-0.14
18.18,-0.2,1.18,-0.096
18.19,-0.084,0.925,0.09
18.2,-0.136,0.779,0.184
18.21,-0.341,1.088,-0.084
18.22,-0.278,0.775,-0.153
18.23,-0.087,1.348,0.078
18.24,-0.195,0.706,0.124
18.25,-0.195,0.963,0.05
18.26,-0.357,1.027,-0.171
18.27,-0.19,1.056,-0.048
18.28,-0.152,0.99,0.134
18.29,-0.206,0.891,0.144
18.3,-0.389,1.022,-0.173
18.31,-0.18,0.931,-0.062
18.32,-0.19,1.254,0.086
18.33,-0.058,0.594,0.132
18.34,-0.229,1.145,-0.021
18.35,-0.416,0.955,-0.201
18.36,-0.121,1.047,0.031
18.37,-0.175,0.962,0.197
18.38,-0.165,0.769,0.06
18.39,-0.415,1.135,-0.209
18.4,-0.107,0.941,-0.037
18.41,-0.183,1.204,0.08
18.42,-0.158,0.612,0.177
18.43,-0.258,1.138,-0.052
18.44,-0.343,0.916,-0.192
18.45,-0.15,1.048,0.114
18.46,-0.043,0.997,0.115
18.47,-0.247,0.681,0.004
18.48,-0.432,1.264,-0.156
18.49,-0.079,0.884,-0.058
18.5,-0.219,1.147,0.106
18.51,-0.047,0.715,0.195
18.52,-0.443,1.069,-0.154
18.53,-0.251,0.941,-0.162
18.54,0.02,1.075,0.078
18.55,-0.173,0.937,0.111
18.56,-0.257,0.709,0.015
18.57,-0.398,1.311,-0.209
18.58,-0.119,0.798,-0.013
18.59,-0.185,1.164,0.161
18.6,-0.052,0.733,0.071
18.61,-0.439,0.993,-0.187
18.62,-0.221,1.114,-0.067
18.63,-0.035,0.961,0.061
18.64,-0.192,0.952,0.133
18.65,-0.21,0.701,-0.066
18.66,-0.344,1.289,-0.229
18.67,-0.157,0.865,0.08
18.68,-0.134,1.15,0.188
18.69,-0.201,0.73,0.063
18.7,-0.398,0.991,-0.195
18.71,-0.053,1.213,-0.097
18.72,-0.139,0.771,0.097
18.73,-0.245,1.032,0.159
18.74,-0.244,0.758,-0.118
18.75,-0.36,1.182,-0.162
18.76,-0.04,0.946,0.114
18.77,-0.069,1.024,0.117
18.78,-0.326,0.798,0.027
18.79,-0.289,1.031,-0.169
18.8,-0.149,1.193,-0.072
18.81,-0.178,0.75,0.176
18.82,-0.12,1.079,0.1
18.83,-0.392,0.742,-0.154
18.84,-0.3,1.229,-0.015
18.85,-0.086,0.987,0.083
18.86,-0.136,0.793,0.149
18.87,-0.268,0.958,0.025
18.88,-0.339,0.984,-0.249
18.89,-0.114,1.118,-0.05
18.9,-0.135,0.804,0.166
18.91,-0.102,1.055,0.061
18.92,-0.347,0.802,-0.176
18.93,-0.22,1.194,-0.04
18.94,-0.094,0.927,0.104
18.95,-0.114,0.777,0.135
18.96,-0.354,1.046,-0.044
18.97,-0.315,0.846,-0.238
18.98,-0.087,1.215,0.037
18.99,-0.096,0.77,0.182
19.0,-0.131,0.958,0.012
19.01,-0.379,0.911,-0.201
19.02,-0.128,1.147,-0.064
19.03,-0.127,0.926,0.112
19.04,-0.18,0.732,0.159
19.05,-0.308,1.132,-0.117
19.06,-0.235,0.862,-0.197
19.07,-0.211,1.251,0.131
19.08,-0.116,0.665,0.107
19.09,-0.165,0.971,-0.037
19.1,-0.412,1.08,-0.141
19.11,-0.126,1.114,0.007
19.12,-0.195,0.843,0.176
19.13,-0.092,0.871,0.071
19.14,-0.342,1.084,-0.223
19.15,-0.264,0.895,-0.037
19.16,-0.069,1.214,0.09
19.17,-0.128,0.626,0.073
19.18,-0.315,1.112,-0.04
19.19,-0.249,0.889,-0.21
19.2,-0.145,1.135,0.046
19.21,-0.123,0.918,0.156
19.22,-0.121,0.777,0.013
19.23,-0.478,1.217,-0.192
19.24,-0.036,0.877,-0.084
19.25,-0.151,1.177,0.084
19.26,-0.173,0.688,0.225
19.27,-0.357,1.083,-0.159
19.28,-0.284,0.902,-0.173
19.29,-0.115,1.125,0.127
19.3,-0.174,0.906,0.125
19.31,-0.219,0.732,0.014
19.32,-0.449,1.315,-0.189
19.33,-0.059,0.81,-0.069
19.34,-0.185,1.151,0.128
19.35,-0.049,0.726,0.111
19.36,-0.452,1.064,-0.18
19.37,-0.229,1.038,-0.045
19.38,-0.107,1.004,0.104
19.39,-0.194,0.948,0.114
19.4,-0.22,0.725,0.005
19.41,-0.391,1.283,-0.213
19.42,-0.038,0.846,-0.009
19.43,-0.175,1.172,0.165
19.44,-0.071,0.701,0.065
19.45,-0.494,1.084,-0.155
19.46,-0.219,1.103,-0.053
19.47,-0.06,0.883,0.078
19.48,-0.249,1.002,0.162
19.49,-0.143,0.748,-0.096
19.5,-0.415,1.243,-0.19
19.51,-0.115,0.848,0.117
19.52,-0.065,1.081,0.148
19.53,-0.256,0.733,0.034
19.54,-0.42,1.034,-0.147
19.55,-0.097,1.152,-0.099
19.56,-0.139,0.771,0.123
19.57,-0.215,1.075,0.166
19.58,-0.298,0.721,-0.141
19.59,-0.365,1.219,-0.142
19.6,-0.018,0.945,0.112
19.61,-0.129,0.916,0.087
19.62,-0.291,0.89,0.052
19.63,-0.385,1.014,-0.185
19.64,-0.104,1.096,-0.071
19.65,-0.129,0.768,0.195
19.66,-0.204,1.093,0.096
19.67,-0.299,0.757,-0.209
19.68,-0.283,1.242,-0.052
19.69,-0.045,0.924,0.064
19.7,-0.141,0.802,0.123
19.71,-0.332,0.999,-0.001
19.72,-0.284,0.938,-0.216
19.73,-0.134,1.158,0.007
19.74,-0.053,0.767,0.176
19.75,-0.128,1.033,0.019
19.76,-0.408,0.852,-0.165
19.77,-0.222,1.18,-0.044
19.78,-0.113,0.933,0.043
19.79,-0.218,0.795,0.212
19.8,-0.299,1.06,-0.103
19.81,-0.23,0.873,-0.203
19.82,-0.172,1.263,0.103
19.83,-0.032,0.71,0.168
19.84,-0.266,1.02,0.032
19.85,-0.421,0.93,-0.168
19.86,-0.103,1.074,-0.06
19.87,-0.14,0.953,0.094
19.88,-0.153,0.76,0.169
19.89,-0.378,1.129,-0.168
19.9,-0.24,0.826,-0.118
19.91,-0.139,1.306,0.106
19.92,-0.076,0.6,0.143
19.93,-0.363,1.111,-0.015
19.94,-0.303,0.901,-0.206
19.95,-0.045,1.115,-0.03
19.96,-0.192,0.905,0.188
19.97,-0.082,0.817,0.088
19.98,-0.392,1.126,-0.212
19.99,-0.203,0.903,0.008
20.0,-0.162,1.198,0.093
20.01,-0.148,0.604,0.168
20.02,-0.357,1.142,-0.05
20.03,-0.208,0.901,-0.21
20.04,-0.15,1.087,0.051
20.05,-0.062,0.972,0.108
20.06,-0.083,0.75,0.032
20.07,-0.524,1.231,-0.182
20.08,-0.074,0.86,-0.078
20.09,-0.084,1.165,0.062
20.1,-0.2,0.674,0.221
20.11,-0.459,1.083,-0.101
20.12,-0.197,0.917,-0.216
20.13,-0.142,1.073,0.114
20.14,-0.106,0.921,0.147
20.15,-0.25,0.701,-0.026
20.16,-0.456,1.269,-0.2
20.17,-0.052,0.839,-0.01
20.18,-0.224,1.162,0.137
20.19,-0.098,0.705,0.148
20.2,-0.432,1.062,-0.181
20.21,-0.284,1.005,-0.107
20.22,-0.007,0.981,0.08
20.23,-0.129,1.009,0.107
20.24,-0.287,0.69,-0.021
20.25,-0.327,1.305,-0.212
20.26,-0.091,0.838,0.039
20.27,-0.229,1.109,0.21
20.28,-0.095,0.743,0.061
20.29,-0.484,1.078,-0.198
20.3,-0.131,1.089,-0.064
20.31,-0.144,0.864,0.135
20.32,-0.203,0.997,0.17
20.33,-0.276,0.722,-0.102
20.34,-0.323,1.235,-0.17
20.35,-0.09,0.882,0.121
20.36,-0.149,1.047,0.14
20.37,-0.174,0.79,-0.026
20.38,-0.43,1.06,-0.108
20.39,-0.117,1.177,-0.049
20.4,-0.193,0.761,0.091
20.41,-0.115,1.047,0.15
20.42,-0.325,0.82,-0.191
20.43,-0.327,1.224,-0.101
20.44,-0.005,0.928,0.089
20.45,-0.156,0.857,0.148
20.46,-0.294,0.906,-0.003
20.47,-0.283,1.059,-0.216
20.48,-0.17,1.159,-0.035
20.49,-0.142,0.694,0.172
20.5,-0.153,1.076,0.084
20.51,-0.382,0.825,-0.204
20.52,-0.242,1.175,-0.029
20.53,-0.091,0.92,0.078
20.54,-0.171,0.797,0.14
20.55,-0.214,1.037,-0.036
20.56,-0.315,0.884,-0.2
20.57,-0.213,1.19,0.112
20.58,-0.019,0.762,0.129
20.59,-0.274,1.016,0.018
20.6,-0.423,0.871,-0.159
20.61,-0.157,1.153,-0.041
20.62,-0.179,0.894,0.121
20.63,-0.165,0.766,0.185
20.64,-0.325,1.123,-0.17
20.65,-0.252,0.828,-0.156
20.66,-0.018,1.303,0.094
20.67,-0.078,0.666,0.129
20.68,-0.26,1.02,-0.019
20.69,-0.301,1.015,-0.181
20.7,-0.209,1.02,0.009
20.71,-0.245,0.974,0.176
20.72,-0.067,0.756,0.128
20.73,-0.453,1.146,-0.222
20.74,-0.082,0.943,-0.016
20.75,-0.158,1.202,0.071
20.76,-0.153,0.572,0.192
20.77,-0.279,1.175,-0.077
20.78,-0.289,0.853,-0.218
20.79,-0.204,1.09,0.062
20.8,-0.052,0.973,0.126
20.81,-0.142,0.752,0.022
20.82,-0.515,1.157,-0.133
20.83,-0.028,0.918,-0.084
20.84,-0.124,1.144,0.046
20.85,-0.098,0.699,0.24
20.86,-0.385,1.134,-0.132
20.87,-0.322,0.872,-0.17
20.88,0.018,1.189,0.041
20.89,-0.094,0.895,0.078
20.9,-0.299,0.759,0.072
20.91,-0.346,1.28,-0.219
20.92,-0.146,0.799,-0.053
20.93,-0.208,1.164,0.214
20.94,-0.044,0.721,0.07
20.95,-0.423,1.052,-0.216
20.96,-0.191,1.043,-0.041
20.97,-0.128,1.038,0.057
20.98,-0.155,0.875,0.157
20.99,-0.252,0.773,0.016
21.0,-0.39,1.308,-0.259
21.01,-0.07,0.804,0.035
21.02,-0.262,1.209,0.182
21.03,-0.003,0.664,0.059
21.04,-0.478,1.085,-0.186
21.05,-0.223,1.07,-0.066
21.06,-0.011,0.937,0.074
21.07,-0.177,0.966,0.117
21.08,-0.238,0.723,-0.049
21.09,-0.275,1.295,-0.189
21.1,-0.228,0.864,0.131
21.11,-0.117,1.101,0.116
21.12,-0.101,0.703,-0.028
21.13,-0.425,1.078,-0.125
21.14,-0.152,1.165,-0.066
21.15,-0.154,0.761,0.057
21.16,-0.13,1.04,0.191
21.17,-0.297,0.746,-0.154
21.18,-0.283,1.17,-0.214
21.19,-0.014,0.972,0.049
21.2,-0.076,0.933,0.097
21.21,-0.312,0.89,0.079
21.22,-0.341,1.045,-0.213
21.23,-0.167,1.084,-0.06
21.24,-0.073,0.813,0.178
21.25,-0.157,1.097,0.084
21.26,-0.351,0.718,-0.188
21.27,-0.234,1.246,-0.026
21.28,-0.106,0.984,0.06
21.29,-0.156,0.794,0.171
21.3,-0.277,0.996,0.011
21.31,-0.371,0.939,-0.244
21.32,-0.156,1.133,0.001
21.33,-0.027,0.836,0.165
21.34,-0.145,1.021,0.028
21.35,-0.339,0.789,-0.19
21.36,-0.097,1.209,-0.079
21.37,-0.111,0.942,0.077
21.38,-0.239,0.755,0.187
21.39,-0.247,1.097,-0.058
21.4,-0.329,0.835,-0.187
21.41,-0.215,1.21,0.098
21.42,-0.033,0.775,0.133
21.43,-0.25,0.974,0.025
21.44,-0.347,0.895,-0.145
21.45,-0.082,1.123,-0.113
21.46,-0.149,0.896,0.09
21.47,-0.123,0.79,0.223
21.48,-0.328,1.127,-0.151
21.49,-0.333,0.77,-0.14
21.5,-0.072,1.34,0.148
21.51,-0.12,0.76,0.164
21.52,-0.327,0.89,0.028
21.53,-0.28,1.047,-0.154
21.54,-0.114,1.041,-0.051
21.55,-0.2,0.819,0.172
21.56,-0.054,0.835,0.109
21.57,-0.479,1.079,-0.185
21.58,-0.219,0.893,-0.029
21.59,-0.066,1.282,0.036
21.6,-0.19,0.595,0.163
21.61,-0.34,1.062,0.019
21.62,-0.268,0.948,-0.225
21.63,-0.115,1.08,0.009
21.64,-0.058,0.988,0.14
21.65,-0.077,0.755,0.035
21.66,-0.537,1.183,-0.12
21.67,-0.115,0.917,-0.055
21.68,-0.128,1.194,0.059
21.69,-0.211,0.669,0.211
21.7,-0.267,1.088,-0.111
21.71,-0.25,0.927,-0.234
21.72,-0.184,1.085,0.101
21.73,-0.114,0.998,0.115
21.74,-0.102,0.674,0.013
21.75,-0.524,1.293,-0.16
21.76,-0.064,0.845,-0.116
21.77,-0.105,1.128,0.061
21.78,-0.076,0.74,0.198
21.79,-0.431,1.041,-0.117
21.8,-0.339,0.99,-0.117
21.81,-0.001,1.051,0.083
21.82,-0.188,0.976,0.107
21.83,-0.214,0.691,0.044
21.84,-0.436,1.363,-0.233
21.85,-0.081,0.75,-0.027
21.86,-0.196,1.145,0.229
21.87,-0.112,0.77,0.113
21.88,-0.447,0.986,-0.191
21.89,-0.219,1.151,-0.026
21.9,-0.122,0.93,0.081
21.91,-0.166,1.003,0.126
21.92,-0.268,0.703,-0.022
21.93,-0.339,1.262,-0.23
21.94,-0.089,0.841,0.036
21.95,-0.107,1.114,0.171
21.96,-0.108,0.753,0.049
21.97,-0.378,0.985,-0.148
21.98,-0.195,1.231,-0.058
21.99,-0.119,0.784,0.084
22.0,-0.183,1.084,0.153
22.01,-0.279,0.723,-0.119
22.02,-0.359,1.183,-0.162
22.03,-0.09,0.959,0.124
22.04,-0.158,0.984,0.139
22.05,-0.143,0.793,-0.001
22.06,-0.395,1.02,-0.136
22.07,-0.127,1.219,-0.06
22.08,-0.171,0.717,0.111
22.09,-0.087,1.077,0.116
22.1,-0.36,0.77,-0.192
22.11,-0.323,1.155,-0.11
22.12,-0.011,1.066,0.071
22.13,-0.124,0.763,0.114
22.14,-0.272,0.966,0.09
22.15,-0.336,0.983,-0.206
22.16,-0.112,1.108,-0.051
22.17,-0.167,0.752,0.225
22.18,-0.176,1.036,0.051
22.19,-0.322,0.786,-0.237
22.2,-0.173,1.138,-0.1
22.21,-0.119,1.021,0.075
22.22,-0.16,0.72,0.174
22.23,-0.275,1.094,-0.02
22.24,-0.317,0.863,-0.212
22.25,-0.208,1.227,0.057
22.26,-0.031,0.823,0.1
22.27,-0.158,0.934,0.005
22.28,-0.385,0.922,-0.132
22.29,-0.139,1.108,-0.096
22.3,-0.141,0.98,0.067
22.31,-0.158,0.705,0.214
22.32,-0.295,1.142,-0.103
22.33,-0.289,0.768,-0.178
22.34,-0.121,1.319,0.099
22.35,-0.109,0.805,0.127
22.36,-0.236,0.93,0.043
22.37,-0.287,0.987,-0.174
22.38,-0.202,1.118,-0.056
22.39,-0.104,0.876,0.173
22.4,-0.102,0.845,0.141
22.41,-0.412,1.074,-0.157
22.42,-0.236,0.834,-0.104
22.43,-0.062,1.337,0.047
22.44,-0.154,0.602,0.143
22.45,-0.28,1.073,0.012
22.46,-0.387,1.025,-0.221
22.47,-0.16,0.917,-0.043
22.48,-0.166,0.993,0.186
22.49,-0.077,0.74,0.087
22.5,-0.471,1.138,-0.181
22.51,-0.202,0.862,-0.014
22.52,-0.157,1.265,0.039
22.53,-0.122,0.63,0.156
22.54,-0.268,1.052,-0.037
22.55,-0.339,0.981,-0.229
22.56,-0.14,0.94,0.011
22.57,-0.101,1.141,0.141
22.58,-0.089,0.665,0.073
22.59,-0.422,1.204,-0.155
22.6,-0.102,0.898,-0.087
22.61,-0.2,1.132,0.063
22.62,-0.143,0.714,0.191
22.63,-0.303,0.997,-0.11
22.64,-0.264,1.019,-0.235
22.65,-0.131,0.995,0.086
22.66,-0.082,1.111,0.106
22.67,-0.068,0.61,0.039
22.68,-0.491,1.312,-0.156
22.69,-0.145,0.883,-0.027
22.7,-0.193,1.096,0.075
22.71,-0.155,0.847,0.197
22.72,-0.342,0.892,-0.106
22.73,-0.311,1.087,-0.16
22.74,-0.083,0.994,0.103
22.75,-0.156,1.065,0.059
22.76,-0.108,0.591,0.057
22.77,-0.439,1.354,-0.178
22.78,-0.091,0.894,-0.086
22.79,-0.177,0.978,0.143
22.8,-0.143,0.899,0.213
22.81,-0.34,0.882,-0.152
22.82,-0.338,1.166,-0.123
22.83,-0.111,0.912,0.126
22.84,-0.162,1.102,0.106
22.85,-0.142,0.629,0.005
22.86,-0.411,1.299,-0.195
22.87,-0.139,0.918,-0.031
22.88,-0.218,0.953,0.182
22.89,-0.094,0.915,0.126
22.9,-0.36,0.812,-0.239
22.91,-0.187,1.233,-0.044
22.92,-0.152,0.896,0.111
22.93,-0.196,0.955,0.122
22.94,-0.148,0.776,-0.02
22.95,-0.414,1.217,-0.203
22.96,-0.081,0.923,-0.017
22.97,-0.129,0.954,0.158
22.98,-0.142,0.947,0.08
22.99,-0.373,0.794,-0.154
23.0,-0.189,1.344,-0.085
23.01,-0.093,0.773,0.071
23.02,-0.166,0.992,0.164
23.03,-0.256,0.816,-0.073
23.04,-0.318,1.082,-0.189
23.05,-0.133,1.087,0.052
23.06,-0.169,0.847,0.146
23.07,-0.107,0.98,0.041
23.08,-0.408,0.858,-0.185
23.09,-0.246,1.264,-0.071
23.1,-0.017,0.742,0.026
23.11,-0.158,0.967,0.167
23.12,-0.323,0.942,-0.096
23.13,-0.27,0.95,-0.155
23.14,-0.165,1.144,0.05
23.15,-0.052,0.789,0.132
23.16,-0.162,1.012,-0.009
23.17,-0.403,0.851,-0.142
23.18,-0.18,1.193,-0.019
23.19,-0.196,0.681,0.194
23.2,-0.134,1.051,0.154
23.21,-0.361,0.842,-0.229
23.22,-0.224,1.056,-0.029
23.23,-0.146,1.129,0.061
23.24,-0.138,0.649,0.104
23.25,-0.293,1.09,0.042
23.26,-0.336,0.926,-0.196
23.27,-0.205,1.14,-0.06
23.28,-0.057,0.771,0.205
23.29,-0.167,0.997,0.101
23.3,-0.389,0.93,-0.168
23.31,-0.178,1.076,-0.087
23.32,-0.127,1.028,0.012
23.33,-0.135,0.688,0.205
23.34,-0.263,1.134,-0.042
23.35,-0.39,0.839,-0.23
23.36,-0.091,1.178,0.003
23.37,-0.082,0.846,0.166
23.38,-0.202,0.909,0.074
23.39,-0.323,0.999,-0.198
23.4,-0.15,0.982,-0.046
23.41,-0.16,1.093,0.045
23.42,-0.128,0.644,0.153
23.43,-0.342,1.179,-0.059
23.44,-0.246,0.812,-0.206
23.45,-0.111,1.18,0.053
23.46,-0.056,0.889,0.157
23.47,-0.191,0.832,0.05
23.48,-0.382,1.082,-0.2
23.49,-0.085,0.931,-0.069
23.5,-0.158,1.114,0.078
23.51,-0.165,0.668,0.133
23.52,-0.313,1.185,-0.134
23.53,-0.312,0.862,-0.115
23.54,-0.109,1.141,0.104
23.55,-0.083,0.889,0.123
23.56,-0.208,0.792,0.013
23.57,-0.369,1.25,-0.163
23.58,-0.14,0.877,-0.06
23.59,-0.212,1.115,0.135
23.6,-0.045,0.722,0.152
23.61,-0.448,1.123,-0.168
23.62,-0.341,0.899,-0.089
23.63,-0.011,1.114,0.062
23.64,-0.123,0.864,0.089
23.65,-0.271,0.759,0.041
23.66,-0.337,1.302,-0.193
23.67,-0.164,0.785,-0.03
23.68,-0.2,1.174,0.179
23.69,-0.07,0.684,0.053
23.7,-0.495,1.068,-0.191
23.71,-0.129,1.009,-0.082
23.72,-0.044,1.046,0.044
23.73,-0.16,0.883,0.132
23.74,-0.207,0.759,-0.024
23.75,-0.36,1.289,-0.218
23.76,-0.1,0.869,0.016
23.77,-0.129,1.165,0.117
23.78,-0.117,0.678,0.065
23.79,-0.498,1.116,-0.134
23.8,-0.034,1.095,-0.131
23.81,-0.12,0.856,0.088
23.82,-0.178,1.007,0.188
23.83,-0.224,0.777,-0.125
23.84,-0.394,1.207,-0.165
23.85,-0.096,0.901,0.106
23.86,-0.085,1.097,0.118
23.87,-0.226,0.729,-0.024
23.88,-0.352,1.074,-0.154
23.89,-0.146,1.151,-0.061
23.9,-0.227,0.753,0.146
23.91,-0.119,1.044,0.166
23.92,-0.282,0.76,-0.199
23.93,-0.327,1.176,-0.144
23.94,-0.047,0.935,0.098
23.95,-0.14,0.928,0.123
23.96,-0.288,0.856,0.038
23.97,-0.302,1.065,-0.18
23.98,-0.156,1.12,-0.044
23.99,-0.174,0.857,0.2
24.0,-0.114,1.001,0.094
24.01,-0.352,0.829,-0.235
24.02,-0.149,1.232,-0.094
24.03,-0.126,0.833,0.108
24.04,-0.2,0.941,0.177
24.05,-0.234,0.86,-0.038
24.06,-0.366,1.044,-0.183
24.07,-0.156,1.109,0.025
24.08,-0.11,0.849,0.155
24.09,-0.199,0.96,0.073
24.1,-0.326,0.863,-0.189
24.11,-0.115,1.297,-0.074
24.12,-0.176,0.717,0.11
24.13,-0.133,0.944,0.198
24.14,-0.298,0.946,-0.122
24.15,-0.363,0.916,-0.117
24.16,-0.109,1.214,0.089
24.17,-0.105,0.768,0.116
24.18,-0.213,1.014,0.03
24.19,-0.334,0.905,-0.162
24.2,-0.199,1.198,-0.048
24.21,-0.165,0.757,0.144
24.22,-0.058,0.919,0.145
24.23,-0.388,1.039,-0.161
24.24,-0.221,0.865,-0.128
24.25,-0.084,1.266,0.044
24.26,-0.084,0.602,0.15
24.27,-0.289,1.089,0.039
24.28,-0.413,0.925,-0.176
24.29,-0.184,1.048,-0.014
24.3,-0.151,0.894,0.155
24.31,-0.118,0.893,0.105
24.32,-0.377,1.094,-0.182
24.33,-0.179,0.864,-0.066
24.34,-0.172,1.279,0.085
24.35,-0.046,0.593,0.133
24.36,-0.291,1.081,-0.011
24.37,-0.325,0.936,-0.201
24.38,-0.101,1.073,0.053
24.39,-0.204,1.012,0.163
24.4,-0.09,0.745,0.063
24.41,-0.433,1.178,-0.232
24.42,-0.17,0.85,-0.023
24.43,-0.069,1.262,0.066
24.44,-0.08,0.631,0.126
24.45,-0.375,1.055,-0.031
24.46,-0.257,1.006,-0.222
24.47,-0.122,0.966,0.027
24.48,-0.141,1.012,0.18
24.49,-0.099,0.712,0.018
24.5,-0.487,1.224,-0.204
24.51,-0.056,0.86,-0.026
24.52,-0.142,1.199,0.106
24.53,-0.142,0.713,0.165
24.54,-0.314,1.026,-0.159
24.55,-0.274,1.014,-0.188
24.56,-0.142,0.978,0.143
24.57,-0.121,1.046,0.103
24.58,-0.227,0.654,-0.037
24.59,-0.405,1.329,-0.178
24.6,-0.114,0.872,0.002
24.61,-0.195,1.104,0.154
24.62,-0.048,0.778,0.127
24.63,-0.452,0.977,-0.204
24.64,-0.173,1.106,-0.092
24.65,-0.031,0.974,0.059
24.66,-0.234,0.997,0.154
24.67,-0.228,0.704,-0.014
24.68,-0.395,1.332,-0.24
24.69,-0.078,0.831,0.042
24.7,-0.19,1.092,0.237
24.71,-0.18,0.783,0.066
24.72,-0.433,0.927,-0.174
24.73,-0.069,1.264,-0.05
24.74,-0.124,0.791,0.098
24.75,-0.243,1.031,0.209
24.76,-0.231,0.754,-0.118
24.77,-0.345,1.188,-0.213
24.78,-0.069,0.947,0.119
24.79,-0.134,0.934,0.143
24.8,-0.329,0.881,0.039
24.81,-0.307,1.144,-0.24
24.82,-0.128,0.996,-0.068
24.83,-0.152,0.849,0.227
24.84,-0.174,1.053,0.084
24.85,-0.378,0.7,-0.172
24.86,-0.258,1.272,-0.052
24.87,-0.053,0.915,0.1
24.88,-0.186,0.878,0.133
24.89,-0.23,0.906,-0.042
24.9,-0.335,1.068,-0.177
24.91,-0.197,1.107,0.024
24.92,-0.042,0.808,0.131
24.93,-0.168,1.03,0.045
24.94,-0.317,0.816,-0.175
24.95,-0.2,1.283,-0.044
24.96,-0.137,0.79,0.09
24.97,-0.221,0.865,0.243
24.98,-0.302,0.972,-0.122
24.99,-0.316,0.893,-0.139
25.0,-0.115,1.218,0.078
25.01,-0.051,0.74,0.128
25.02,-0.239,1.031,0.068
25.03,-0.362,0.949,-0.163
25.04,-0.171,1.198,-0.013
25.05,-0.235,0.794,0.112
25.06,-0.108,0.857,0.167
25.07,-0.375,1.092,-0.173
25.08,-0.29,0.865,-0.073
25.09,-0.043,1.302,0.039
25.1,-0.084,0.613,0.108
25.11,-0.301,1.07,0.051
25.12,-0.344,0.966,-0.19
25.13,-0.181,1.032,-0.005
25.14,-0.156,0.91,0.173
25.15,-0.161,0.772,0.09
25.16,-0.437,1.149,-0.187
25.17,-0.135,0.904,-0.064
25.18,-0.126,1.247,0.097
25.19,-0.146,0.619,0.14
25.2,-0.237,1.078,-0.06
25.21,-0.328,0.996,-0.206
25.22,-0.174,1.022,0.05
25.23,-0.11,1.052,0.138
25.24,-0.075,0.681,-0.002
25.25,-0.507,1.235,-0.168
25.26,-0.108,0.842,-0.097
25.27,-0.11,1.125,0.06
25.28,-0.1,0.757,0.193
25.29,-0.35,1.042,-0.121
25.3,-0.258,0.973,-0.181
25.31,-0.062,1.029,0.068
25.32,-0.088,0.983,0.082
25.33,-0.21,0.682,0.077
25.34,-0.477,1.347,-0.173
25.35,-0.12,0.842,-0.054
25.36,-0.159,1.091,0.152
25.37,-0.133,0.788,0.172
25.38,-0.376,0.991,-0.172
25.39,-0.264,1.079,-0.124
25.4,0.001,0.975,0.102
25.41,-0.127,1.019,0.113
25.42,-0.286,0.693,0.029
25.43,-0.403,1.341,-0.218
25.44,-0.031,0.809,-0.019
25.45,-0.193,1.105,0.185
25.46,-0.139,0.812,0.066
25.47,-0.418,0.903,-0.16
25.48,-0.13,1.223,-0.057
25.49,-0.087,0.806,0.091
25.5,-0.2,1.039,0.177
25.51,-0.226,0.738,-0.076
25.52,-0.316,1.218,-0.235
25.53,-0.218,0.92,0.111
25.54,-0.118,1.035,0.148
25.55,-0.115,0.824,-0.023
25.56,-0.446,0.948,-0.172
25.57,-0.105,1.215,-0.084
25.58,-0.103,0.734,0.113
25.59,-0.209,1.047,0.162
25.6,-0.295,0.794,-0.131
25.61,-0.263,1.136,-0.148
25.62,-0.116,0.878,0.046
25.63,-0.107,0.905,0.14
25.64,-0.215,0.857,-0.014
25.65,-0.346,1.067,-0.234
25.66,-0.092,1.077,0.001
25.67,-0.104,0.849,0.143
25.68,-0.18,1.018,0.104
25.69,-0.324,0.739,-0.196
25.7,-0.22,1.274,-0.035
25.71,-0.119,0.892,0.075
25.72,-0.121,0.855,0.154
25.73,-0.342,0.962,0.011
25.74,-0.282,0.955,-0.245
25.75,-0.058,1.154,0.011
25.76,-0.152,0.786,0.207
25.77,-0.151,1.006,0.047
25.78,-0.347,0.857,-0.212
25.79,-0.151,1.211,-0.039
25.8,-0.025,0.823,0.056
25.81,-0.201,0.867,0.166
25.82,-0.333,1.269,-0.213
25.83,-0.023,0.898,0.11
25.84,-0.137,1.082,0.104
25.85,-0.287,0.653,-0.006
25.86,-0.319,1.208,-0.231
25.87,-0.1,1.007,-0.076
25.88,-0.221,0.888,0.185
25.89,-0.04,0.968,0.116
25.9,-0.367,0.816,-0.207
25.91,-0.219,1.288,-0.018
25.92,-0.127,0.851,0.055
25.93,-0.151,0.961,0.111
25.94,-0.207,0.811,0.019
25.95,-0.358,1.172,-0.23
25.96,-0.154,1.011,-0.013
25.97,-0.142,0.874,0.195
25.98,-0.142,0.961,0.108
25.99,-0.399,0.833,-0.162
26.0,-0.224,1.263,-0.065
26.01,-0.101,0.773,0.065
26.02,-0.183,0.958,0.183
26.03,-0.202,0.881,-0.085
26.04,-0.367,1.0,-0.172
26.05,-0.13,1.106,0.073
26.06,-0.135,0.831,0.145
26.07,-0.15,0.993,0.064
26.08,-0.341,0.862,-0.2
26.09,-0.226,1.282,-0.03
26.1,-0.108,0.792,0.109
26.11,-0.176,0.921,0.18
26.12,-0.308,0.973,-0.088
26.13,-0.296,0.921,-0.16
26.14,-0.147,1.192,0.081
26.15,-0.091,0.75,0.16
26.16,-0.223,1.015,0.017
26.17,-0.448,0.887,-0.165
26.18,-0.066,1.185,-0.07
26.19,-0.136,0.791,0.078
26.2,-0.163,0.875,0.202
26.21,-0.324,1.084,-0.176
26.22,-0.292,0.841,-0.147
26.23,-0.039,1.263,0.15
26.24,-0.119,0.683,0.129
26.25,-0.362,1.032,-0.016
26.26,-0.312,0.917,-0.158
26.27,-0.144,1.132,-0.002
26.28,-0.28,0.84,0.199
26.29,-0.019,0.819,0.142
26.3,-0.422,1.172,-0.187
26.31,-0.299,0.779,-0.102
26.32,-0.035,1.279,0.126
26.33,-0.086,0.676,0.118
26.34,-0.392,1.014,-0.003
26.35,-0.268,0.939,-0.168
26.36,-0.101,1.07,0.003
26.37,-0.218,0.931,0.124
26.38,-0.015,0.885,0.006
26.39,-0.453,1.125,-0.215
26.4,-0.157,0.894,0.013
26.41,-0.135,1.209,0.05
26.42,-0.184,0.63,0.137
26.43,-0.3,1.173,-0.06
26.44,-0.261,0.908,-0.193
26.45,-0.208,1.121,0.109
26.46,-0.055,0.893,0.132
26.47,-0.194,0.807,-0.022
26.48,-0.505,1.191,-0.111
26.49,-0.088,0.898,-0.022
26.5,-0.215,1.135,0.062
26.51,0.001,0.699,0.136
26.52,-0.42,1.172,-0.177
26.53,-0.3,0.873,-0.099
26.54,-0.005,1.166,0.077
26.55,-0.115,0.841,0.093
26.56,-0.311,0.769,0.048
26.57,-0.359,1.275,-0.228
26.58,-0.074,0.791,0.022
26.59,-0.254,1.198,0.198
26.6,-0.051,0.663,0.068
26.61,-0.455,1.123,-0.195
26.62,-0.11,1.042,-0.014
26.63,-0.139,0.99,0.101
26.64,-0.202,0.901,0.163
26.65,-0.248,0.804,-0.07
26.66,-0.348,1.242,-0.239
26.67,-0.12,0.814,0.12
26.68,-0.09,1.16,0.104
26.69,-0.119,0.617,0.007
26.7,-0.479,1.147,-0.128
26.71,-0.117,1.099,-0.108
26.72,-0.113,0.789,0.049
26.73,-0.113,1.053,0.212
26.74,-0.427,0.692,-0.142
26.75,-0.353,1.17,-0.131
26.76,0.036,0.979,0.075
26.77,-0.244,0.98,0.144
26.78,-0.261,0.75,0.097
26.79,-0.342,1.162,-0.218
26.8,-0.146,1.047,-0.081
26.81,-0.155,0.794,0.23
26.82,-0.122,1.032,0.088
26.83,-0.42,0.758,-0.208
26.84,-0.178,1.283,-0.038
26.85,-0.099,0.89,0.021
26.86,-0.195,0.824,0.141
26.87,-0.188,0.942,-0.006
26.88,-0.399,1.028,-0.22
26.89,-0.093,1.09,0.012
26.9,0.031,0.863,0.166
26.91,-0.228,0.986,0.018
26.92,-0.408,0.81,-0.083
26.93,-0.159,1.3,-0.107
26.94,-0.119,0.781,0.048
26.95,-0.187,0.909,0.23
26.96,-0.26,1.038,-0.15
26.97,-0.359,0.798,-0.179
26.98,-0.119,1.275,0.125
26.99,-0.062,0.753,0.117
27.0,-0.287,0.999,-0.006
27.01,-0.292,0.95,-0.108
27.02,-0.186,1.207,-0.073
27.03,-0.193,0.767,0.128
27.04,-0.077,0.849,0.183
27.05,-0.427,1.052,-0.197
27.06,-0.294,0.804,-0.068
27.07,0.032,1.33,0.066
27.08,-0.179,0.588,0.108
27.09,-0.279,1.051,0.047
27.1,-0.216,0.995,-0.266
27.11,-0.198,0.993,-0.016
27.12,-0.11,1.0,0.185
27.13,-0.111,0.744,0.04
27.14,-0.52,1.137,-0.162
27.15,-0.042,0.884,-0.059
27.16,-0.185,1.232,0.055
27.17,-0.202,0.595,0.201
27.18,-0.149,1.069,-0.084
27.19,-0.375,1.002,-0.208
27.2,-0.137,1.183,0.14
27.21,-0.035,0.864,0.084
27.22,-0.227,0.797,0.042
27.23,-0.375,1.24,-0.144
27.24,-0.194,0.864,-0.041
27.25,-0.3,1.124,0.171
27.26,0.001,0.694,0.118
27.27,-0.435,1.114,-0.219
27.28,-0.261,0.86,-0.089
27.29,0.032,1.197,0.048
27.3,-0.127,0.799,0.098
27.31,-0.24,0.788,0.088
27.32,-0.442,1.294,-0.205
27.33,-0.083,0.73,-0.109
27.34,-0.229,1.243,0.212
27.35,-0.057,0.678,0.079
27.36,-0.495,1.052,-0.221
27.37,-0.092,1.049,0.008
27.38,-0.132,1.108,0.074
27.39,-0.198,0.829,0.117
27.4,-0.145,0.811,-0.01
27.41,-0.45,1.275,-0.214
27.42,-0.169,0.769,0.028
27.43,-0.091,1.224,0.13
27.44,-0.123,0.684,0.024
27.45,-0.487,1.074,-0.123
27.46,-0.153,1.102,-0.07
27.47,-0.104,0.876,0.035
27.48,-0.134,1.033,0.188
27.49,-0.203,0.726,-0.135
27.5,-0.379,1.164,-0.156
27.51,-0.11,0.908,0.125
27.52,-0.109,1.116,0.105
27.53,-0.136,0.719,0.019
27.54,-0.456,1.137,-0.161
27.55,-0.115,1.132,-0.111
27.56,-0.144,0.712,0.095
27.57,-0.092,1.069,0.183
27.58,-0.302,0.759,-0.211
27.59,-0.306,1.15,-0.119
27.6,-0.025,0.952,0.12
27.61,-0.147,0.957,0.11
27.62,-0.273,0.812,0.028
27.63,-0.379,1.073,-0.162
27.64,-0.171,1.139,-0.032
27.65,-0.2,0.662,0.14
27.66,-0.092,1.091,0.151
27.67,-0.378,0.788,-0.206
27.68,-0.295,1.147,-0.04
27.69,0.071,1.04,0.08
27.7,-0.186,0.825,0.142
27.71,-0.29,0.933,0.078
27.72,-0.311,1.016,-0.206
27.73,-0.219,1.109,-0.054
27.74,-0.014,0.751,0.19
27.75,-0.221,1.071,0.05
27.76,-0.463,0.794,-0.138
27.77,-0.092,1.168,-0.087
27.78,-0.113,0.952,0.074
27.79,-0.15,0.775,0.213
27.8,-0.288,1.089,-0.096
27.81,-0.274,0.797,-0.213
27.82,-0.17,1.324,0.1
27.83,-0.101,0.721,0.116
27.84,-0.252,0.974,0.032
27.85,-0.375,0.988,-0.138
27.86,-0.13,1.101,-0.112
27.87,-0.156,0.846,0.096
27.88,-0.1,0.81,0.183
27.89,-0.421,1.138,-0.154
27.9,-0.255,0.764,-0.139
27.91,-0.059,1.364,0.081
27.92,-0.123,0.701,0.111
27.93,-0.287,0.978,0.051
27.94,-0.346,1.079,-0.145
27.95,-0.176,0.949,-0.023
27.96,-0.232,1.026,0.154
27.97,-0.049,0.752,0.095
27.98,-0.447,1.131,-0.241
27.99,-0.209,0.836,-0.043
28.0,-0.092,1.315,0.073
28.01,-0.143,0.596,0.133
28.02,-0.225,1.101,-0.06
28.03,-0.307,0.949,-0.223
28.04,-0.17,1.028,0.057
28.05,-0.046,1.05,0.125
28.06,-0.162,0.689,0.035
28.07,-0.482,1.202,-0.13
28.08,-0.127,0.919,-0.094
28.09,-0.182,1.111,0.023
28.1,-0.106,0.709,0.251
28.11,-0.323,1.104,-0.184
28.12,-0.291,0.888,-0.186
28.13,-0.003,1.097,0.123
28.14,-0.2,1.03,0.147
28.15,-0.201,0.646,0.063
28.16,-0.428,1.363,-0.172
28.17,-0.18,0.787,-0.045
28.18,-0.139,1.158,0.115
28.19,-0.04,0.763,0.168
28.2,-0.458,0.994,-0.137
28.21,-0.218,1.015,-0.153
28.22,-0.016,1.049,0.076
28.23,-0.173,0.956,0.126
28.24,-0.234,0.671,0.054
28.25,-0.415,1.345,-0.265
28.26,-0.093,0.772,-0.044
28.27,-0.112,1.176,0.182
28.28,-0.191,0.758,0.073
28.29,-0.408,0.915,-0.196
28.3,-0.015,1.29,-0.109
28.31,-0.181,0.806,0.041
28.32,-0.195,0.979,0.189
28.33,-0.146,0.759,-0.106
28.34,-0.456,1.23,-0.228
28.35,-0.1,0.88,0.124
28.36,-0.083,1.155,0.111
28.37,-0.222,0.764,0.03
28.38,-0.334,0.976,-0.101
28.39,-0.093,1.291,-0.13
28.4,-0.108,0.74,0.104
28.41,-0.155,1.103,0.223
28.42,-0.301,0.743,-0.118
28.43,-0.334,1.097,-0.15
28.44,-0.087,1.068,0.079
28.45,-0.168,0.946,0.118
28.46,-0.191,0.895,0.046
28.47,-0.352,0.977,-0.136
28.48,-0.207,1.229,-0.083
28.49,-0.103,0.676,0.108
28.5,-0.082,1.096,0.137
28.51,-0.342,0.759,-0.185
28.52,-0.209,1.107,-0.129
28.53,0.005,1.127,0.065
28.54,-0.238,0.718,0.136
28.55,-0.252,1.032,0.037
28.56,-0.315,0.975,-0.259
28.57,-0.142,1.094,-0.067
28.58,-0.098,0.767,0.211
28.59,-0.105,1.023,0.038
28.6,-0.368,0.862,-0.253
28.61,-0.142,1.117,-0.038
28.62,-0.131,1.1,0.059
28.63,-0.159,0.642,0.133
28.64,-0.241,1.148,-0.03
28.65,-0.374,0.849,-0.235
28.66,-0.194,1.171,0.033
28.67,0.001,0.875,0.105
28.68,-0.181,0.909,-0.019
28.69,-0.332,0.958,-0.105
28.7,-0.057,1.105,-0.129
28.71,-0.165,1.001,0.06
28.72,-0.127,0.697,0.201
28.73,-0.343,1.157,-0.112
28.74,-0.286,0.755,-0.173
28.75,-0.097,1.277,0.117
28.76,-0.103,0.762,0.123
28.77,-0.273,0.928,0.112
28.78,-0.384,1.129,-0.168
28.79,-0.166,0.889,-0.027
28.8,-0.156,1.12,0.1
28.81,-0.009,0.69,0.125
28.82,-0.44,1.123,-0.169
28.83,-0.196,0.896,-0.024
28.84,-0.151,1.311,0.081
28.85,-0.144,0.599,0.147
28.86,-0.282,1.039,-0.004
28.87,-0.272,1.052,-0.234
28.88,-0.133,0.971,0.018
28.89,-0.17,1.084,0.177
28.9,-0.014,0.675,0.06
28.91,-0.514,1.217,-0.198
28.92,-0.089,0.84,-0.023
28.93,-0.181,1.239,0.074
28.94,-0.208,0.691,0.176
28.95,-0.235,0.986,-0.07
28.96,-0.305,1.058,-0.211
28.97,-0.171,0.902,0.127
28.98,-0.066,1.104,0.124
28.99,-0.111,0.624,0.054
29.0,-0.451,1.262,-0.223
29.01,0.008,0.92,-0.071
29.02,-0.192,1.055,0.087
29.03,-0.13,0.813,0.185
29.04,-0.32,0.918,-0.124
29.05,-0.347,1.042,-0.143
29.06,-0.088,0.957,0.11
29.07,-0.102,1.157,0.095
29.08,-0.164,0.599,0.022
29.09,-0.49,1.31,-0.146
29.1,-0.075,0.941,-0.022
29.11,-0.18,1.0,0.119
29.12,-0.113,0.885,0.148
29.13,-0.351,0.879,-0.16
29.14,-0.346,1.212,-0.107
29.15,-0.005,0.876,0.083
29.16,-0.132,1.052,0.133
29.17,-0.263,0.683,0.015
29.18,-0.396,1.259,-0.207
29.19,-0.087,0.897,-0.039
29.2,-0.161,0.986,0.192
29.21,-0.05,0.925,0.058
29.22,-0.412,0.805,-0.183
29.23,-0.164,1.28,-0.066
29.24,-0.065,0.813,0.083
29.25,-0.232,0.982,0.141
29.26,-0.169,0.808,-0.006
29.27,-0.386,1.132,-0.208
29.28,-0.177,0.976,0.056
29.29,-0.0,0.944,0.127
29.3,-0.16,0.962,0.026
29.31,-0.431,0.797,-0.144
29.32,-0.075,1.298,-0.086
29.33,-0.143,0.755,0.067
29.34,-0.183,1.012,0.217
29.35,-0.263,0.854,-0.108
29.36,-0.382,0.972,-0.177
29.37,0.024,1.159,0.051
29.38,-0.089,0.777,0.131
29.39,-0.303,0.993,0.071
29.4,-0.326,0.921,-0.163
29.41,-0.159,1.226,-0.075
29.42,-0.155,0.728,0.166
29.43,-0.074,0.988,0.121
29.44,-0.397,0.905,-0.159
29.45,-0.292,0.938,-0.095
29.46,-0.006,1.25,0.045
29.47,-0.142,0.602,0.122
29.48,-0.286,1.08,0.047
29.49,-0.263,0.935,-0.254
29.5,-0.122,1.12,-0.038
29.51,-0.149,0.833,0.188
29.52,-0.088,0.893,0.108
29.53,-0.44,1.025,-0.209
29.54,-0.161,0.913,-0.008
29.55,-0.186,1.292,0.064
29.56,-0.088,0.56,0.119
29.57,-0.288,1.204,0.047
29.58,-0.371,0.914,-0.224
29.59,-0.17,1.001,-0.039
29.6,0.015,0.992,0.164
29.61,-0.159,0.791,0.063
29.62,-0.476,1.105,-0.148
29.63,-0.062,0.947,-0.024
29.64,-0.239,1.052,0.126
29.65,-0.135,0.689,0.215
29.66,-0.436,1.193,-0.117
29.67,-0.253,0.749,-0.171
29.68,-0.093,1.309,0.098
29.69,-0.091,0.796,0.121
29.7,-0.275,0.893,0.032
29.71,-0.399,1.122,-0.177
29.72,-0.092,0.87,-0.091
29.73,-0.127,1.121,0.099
29.74,-0.104,0.665,0.159
29.75,-0.446,1.144,-0.166
29.76,-0.252,0.878,-0.045
29.77,-0.093,1.223,0.094
29.78,-0.125,0.761,0.127
29.79,-0.233,0.843,-0.007
29.8,-0.362,1.202,-0.232
29.81,-0.073,0.822,0.041
29.82,-0.248,1.197,0.183
29.83,-0.07,0.656,0.11
29.84,-0.473,1.146,-0.189
29.85,-0.164,0.957,-0.071
29.86,-0.136,1.072,0.089
29.87,-0.083,0.848,0.128
29.88,-0.294,0.833,-0.038
29.89,-0.377,1.189,-0.192
29.9,-0.1,0.817,0.095
29.91,-0.159,1.177,0.136
29.92,-0.094,0.616,0.036
29.93,-0.476,1.175,-0.16
29.94,-0.152,1.054,-0.045
29.95,-0.102,0.897,0.065
29.96,-0.14,0.99,0.181
29.97,-0.4,0.74,-0.115
29.98,-0.291,1.207,-0.141
29.99,0.013,0.96,0.049
30.0,-0.176,0.964,0.126
30.01,-0.162,0.763,0.078
30.02,-0.461,1.195,-0.225
30.03,-0.091,0.959,-0.073
30.04,-0.109,0.948,0.217
30.05,-0.244,0.986,0.052
30.06,-0.333,0.766,-0.203
30.07,-0.153,1.403,-0.057
30.08,-0.085,0.803,0.037
30.09,-0.182,0.9,0.19
30.1,-0.233,0.918,-0.023
30.11,-0.39,1.008,-0.229
30.12,-0.047,1.037,0.007
30.13,-0.101,0.886,0.162
30.14,-0.17,1.016,0.053
30.15,-0.378,0.807,-0.166
30.16,-0.184,1.316,-0.052
30.17,-0.139,0.762,0.096
30.18,-0.172,0.849,0.17
30.19,-0.24,1.01,-0.1
30.2,-0.336,0.912,-0.135
30.21,-0.168,1.202,0.114
30.22,-0.075,0.753,0.092
30.23,-0.261,1.032,-0.021
30.24,-0.314,0.872,-0.152
30.25,-0.174,1.227,-0.038
30.26,-0.258,0.826,0.175
30.27,-0.024,0.894,0.127
30.28,-0.347,1.032,-0.198
30.29,-0.314,0.897,-0.021
30.3,0.024,1.283,0.041
30.31,-0.154,0.545,0.097
30.32,-0.245,1.096,0.034
30.33,-0.267,0.996,-0.257
30.34,-0.133,1.033,-0.039
30.35,-0.17,0.923,0.232
30.36,-0.137,0.804,0.128
30.37,-0.478,1.136,-0.191
30.38,-0.098,0.838,-0.061
30.39,-0.193,1.226,0.133
30.4,-0.141,0.597,0.15
30.41,-0.287,1.071,-0.055
30.42,-0.335,0.938,-0.16
30.43,-0.109,1.024,0.031
30.44,-0.103,1.018,0.139
30.45,-0.161,0.822,0.05
30.46,-0.345,1.043,-0.194
30.47,-0.176,0.993,-0.014
30.48,-0.234,1.03,0.13
30.49,-0.081,0.73,0.166
30.5,-0.395,1.139,-0.216
30.51,-0.247,0.817,-0.03
30.52,-0.132,1.312,0.045
30.53,-0.137,0.652,0.168
30.54,-0.245,0.96,0.05
30.55,-0.36,1.1,-0.232
30.56,-0.098,0.871,-0.011
30.57,-0.199,1.188,0.17
30.58,-0.08,0.632,0.092
30.59,-0.549,1.166,-0.166
30.6,-0.046,0.928,-0.079
30.61,-0.129,1.212,0.08
30.62,-0.198,0.714,0.147
30.63,-0.231,0.909,-0.062
30.64,-0.346,1.086,-0.194
30.65,-0.124,0.924,0.049
30.66,-0.17,1.209,0.104
30.67,-0.041,0.6,0.019
30.68,-0.443,1.231,-0.171
30.69,-0.147,0.938,-0.055
30.7,-0.14,1.045,0.116
30.71,-0.154,0.844,0.195
30.72,-0.366,0.868,-0.082
30.73,-0.279,1.083,-0.176
30.74,-0.06,0.979,0.104
30.75,-0.161,1.136,0.082
30.76,-0.12,0.621,0.01
30.77,-0.412,1.315,-0.152
30.78,-0.172,0.963,-0.089
30.79,-0.152,0.886,0.127
30.8,-0.069,0.924,0.154
30.81,-0.445,0.794,-0.187
30.82,-0.23,1.138,-0.12
30.83,-0.035,0.99,0.08
30.84,-0.184,1.008,0.104
30.85,-0.103,0.701,0.049
30.86,-0.391,1.236,-0.177
30.87,-0.155,0.937,-0.037
30.88,-0.145,0.9,0.169
30.89,-0.116,0.983,0.071
30.9,-0.396,0.75,-0.217
30.91,-0.22,1.261,-0.039
30.92,-0.092,0.899,0.076
30.93,-0.154,0.904,0.106
30.94,-0.216,0.844,0.003
30.95,-0.418,1.11,-0.23
30.96,-0.12,0.984,0.023
30.97,-0.048,0.935,0.159
30.98,-0.211,0.995,0.025
30.99,-0.369,0.792,-0.126
31.0,-0.176,1.343,-0.093
31.01,-0.149,0.792,0.121
31.02,-0.217,0.937,0.19
31.03,-0.247,0.924,-0.116
31.04,-0.327,0.965,-0.191
31.05,-0.054,1.164,0.087
31.06,-0.145,0.774,0.138
31.07,-0.173,1.011,0.035
31.08,-0.357,0.908,-0.132
31.09,-0.229,1.227,-0.075
31.1,-0.171,0.715,0.127
31.11,-0.14,0.93,0.167
31.12,-0.37,1.005,-0.165
31.13,-0.264,0.847,-0.125
31.14,-0.018,1.275,0.06
31.15,-0.107,0.632,0.117
31.16,-0.252,1.083,0.03
31.17,-0.287,0.941,-0.223
31.18,-0.142,1.067,-0.056
31.19,-0.138,0.909,0.176
31.2,-0.138,0.856,0.091
31.21,-0.43,1.057,-0.215
31.22,-0.168,0.899,-0.021
31.23,-0.098,1.311,0.072
31.24,-0.141,0.568,0.119
31.25,-0.256,1.1,0.014
31.26,-0.356,0.969,-0.23
31.27,-0.214,1.144,0.071
31.28,-0.008,0.864,0.101
31.29,-0.168,0.883,-0.02
31.3,-0.397,1.063,-0.15
31.31,-0.111,0.99,-0.043
31.32,-0.163,1.065,0.085
31.33,-0.158,0.64,0.23
31.34,-0.379,1.187,-0.156
31.35,-0.203,0.822,-0.21
31.36,-0.088,1.232,0.139
31.37,-0.113,0.84,0.117
31.38,-0.209,0.813,0.0
31.39,-0.44,1.217,-0.173
31.4,-0.06,0.885,-0.041
31.41,-0.301,1.13,0.164
31.42,-0.022,0.693,0.141
31.43,-0.473,1.157,-0.199
31.44,-0.243,0.89,-0.065
31.45,-0.029,1.166,0.079
31.46,-0.173,0.84,0.125
31.47,-0.264,0.803,0.053
31.48,-0.406,1.252,-0.247
31.49,-0.029,0.78,-0.047
31.5,-0.239,1.214,0.235
31.51,-0.111,0.651,0.078
31.52,-0.479,1.129,-0.199
31.53,-0.122,1.029,-0.037
31.54,-0.143,0.976,0.092
31.55,-0.203,0.884,0.173
31.56,-0.248,0.827,-0.076
31.57,-0.344,1.24,-0.181
31.58,-0.125,0.807,0.119
31.59,-0.044,1.177,0.103
31.6,-0.153,0.65,-0.043
31.61,-0.43,1.137,-0.138
31.62,-0.142,1.057,-0.033
31.63,-0.177,0.878,0.105
31.64,-0.134,1.02,0.166
31.65,-0.357,0.763,-0.162
31.66,-0.296,1.213,-0.152
31.67,-0.016,0.899,0.121
31.68,-0.164,0.959,0.111
31.69,-0.215,0.773,0.018
31.7,-0.349,1.142,-0.215
31.71,-0.089,1.047,-0.045
31.72,-0.172,0.809,0.212
31.73,-0.179,1.022,0.091
31.74,-0.375,0.764,-0.189
31.75,-0.242,1.322,-0.061
31.76,-0.097,0.839,0.065
31.77,-0.154,0.826,0.116
31.78,-0.206,0.974,-0.006
31.79,-0.379,1.038,-0.202
31.8,-0.124,1.091,0.057
31.81,-0.039,0.797,0.138
31.82,-0.238,1.011,0.029
31.83,-0.364,0.8,-0.203
31.84,-0.076,1.26,-0.083
31.85,-0.182,0.769,0.108
31.86,-0.171,0.852,0.203
31.87,-0.326,1.056,-0.121
31.88,-0.294,0.833,-0.177
31.89,-0.091,1.21,0.147
31.9,-0.045,0.708,0.118
31.91,-0.286,1.049,-0.01
31.92,-0.34,0.927,-0.162
31.93,-0.156,1.189,0.002
31.94,-0.198,0.852,0.118
31.95,-0.08,0.805,0.131
31.96,-0.362,1.148,-0.188
31.97,-0.27,0.83,-0.086
31.98,-0.033,1.215,0.098
31.99,-0.097,0.646,0.109
32.0,-0.314,1.031,-0.024
32.01,-0.312,0.95,-0.215
32.02,-0.05,1.051,-0.006
32.03,-0.267,1.035,0.219
32.04,-0.066,0.728,0.017
32.05,-0.453,1.199,-0.22
32.06,-0.103,0.874,-0.007
32.07,-0.164,1.18,0.098
32.08,-0.147,0.645,0.145
32.09,-0.343,1.194,-0.188
32.1,-0.257,0.867,-0.154
32.11,-0.075,1.208,0.121
32.12,-0.096,0.867,0.135
32.13,-0.372,0.833,0.013
32.14,-0.277,1.206,-0.2
32.15,-0.11,0.864,-0.016
32.16,-0.244,1.134,0.181
32.17,-0.03,0.644,0.094
32.18,-0.492,1.141,-0.224
32.19,-0.133,0.944,-0.023
32.2,-0.115,1.105,0.11
32.21,-0.21,0.846,0.143
32.22,-0.249,0.826,-0.077
32.23,-0.3,1.27,-0.186
32.24,-0.153,0.842,0.124
32.25,-0.117,1.108,0.125
32.26,-0.165,0.65,0.017
32.27,-0.4,1.235,-0.178
32.28,-0.1,1.024,-0.103
32.29,-0.145,0.852,0.137
32.3,-0.146,0.999,0.157
32.31,-0.347,0.787,-0.189
32.32,-0.292,1.207,-0.122
32.33,0.01,0.886,0.102
32.34,-0.145,0.993,0.164
32.35,-0.27,0.765,0.026
32.36,-0.367,1.155,-0.22
32.37,-0.042,1.047,-0.052
32.38,-0.082,0.872,0.16
32.39,-0.141,0.986,0.053
32.4,-0.438,0.818,-0.16
32.41,-0.115,1.292,-0.088
32.42,-0.162,0.814,0.122
32.43,-0.171,0.943,0.197
32.44,-0.31,0.876,-0.119
32.45,-0.36,0.994,-0.149
32.46,-0.024,1.176,0.06
32.47,-0.148,0.69,0.109
32.48,-0.24,1.058,0.032
32.49,-0.386,0.947,-0.208
32.5,-0.121,1.174,-0.043
32.51,-0.132,0.817,0.175
32.52,-0.136,0.873,0.121
32.53,-0.41,0.989,-0.165
32.54,-0.205,0.941,-0.073
32.55,-0.166,1.238,0.102
32.56,-0.106,0.603,0.122
32.57,-0.301,1.091,-0.002
32.58,-0.298,0.916,-0.211
32.59,-0.045,1.146,-0.008
32.6,-0.182,0.9,0.16
32.61,-0.147,0.812,0.075
32.62,-0.378,1.109,-0.206
32.63,-0.08,0.933,-0.079
32.64,-0.146,1.143,0.094
32.65,-0.14,0.667,0.156
32.66,-0.404,1.128,-0.073
32.67,-0.233,0.911,-0.182
32.68,-0.052,1.158,0.118
32.69,-0.187,0.875,0.126
32.7,-0.187,0.757,-0.013
32.71,-0.428,1.286,-0.191
32.72,-0.175,0.849,-0.025
32.73,-0.127,1.162,0.135
32.74,-0.148,0.696,0.113
32.75,-0.488,1.04,-0.173
32.76,-0.157,0.965,-0.116
32.77,-0.063,1.065,0.127
32.78,-0.188,0.892,0.135
32.79,-0.268,0.736,0.007
32.8,-0.362,1.346,-0.254
32.81,-0.034,0.792,-0.03
32.82,-0.067,1.155,0.127
32.83,-0.143,0.666,0.027
32.84,-0.492,1.113,-0.154
32.85,-0.139,1.095,-0.085
32.86,-0.127,0.842,0.085
32.87,-0.122,1.019,0.172
32.88,-0.308,0.723,-0.14
32.89,-0.303,1.278,-0.169
32.9,-0.034,0.88,0.067
32.91,-0.179,1.028,0.13
32.92,-0.229,0.727,-0.01
32.93,-0.431,1.252,-0.21
32.94,-0.072,0.936,-0.021
32.95,-0.141,0.996,0.172
32.96,-0.14,0.895,0.039
32.97,-0.384,0.877,-0.135
32.98,-0.165,1.331,-0.075
32.99,-0.09,0.753,0.116
33.0,-0.162,1.031,0.219
33.01,-0.321,0.768,-0.106
33.02,-0.273,1.116,-0.156
33.03,-0.139,1.086,0.081
33.04,-0.168,0.821,0.147
33.05,-0.17,0.984,0.052
33.06,-0.425,0.932,-0.162
33.07,-0.202,1.219,-0.009
33.08,-0.083,0.768,0.154
33.09,-0.242,1.003,0.135
33.1,-0.33,0.83,-0.219
33.11,-0.163,1.083,-0.105
33.12,-0.092,1.121,0.114
33.13,-0.109,0.663,0.085
33.14,-0.264,1.109,-0.039
33.15,-0.367,0.885,-0.233
33.16,-0.083,1.175,0.027
33.17,-0.102,0.817,0.148
33.18,-0.195,0.894,0.004
33.19,-0.358,0.986,-0.197
33.2,-0.065,1.043,-0.066
33.21,-0.19,1.053,0.131
33.22,-0.151,0.622,0.184
33.23,-0.343,1.162,-0.135
33.24,-0.271,0.831,-0.193
33.25,-0.092,1.239,0.146
33.26,-0.162,0.781,0.148
33.27,-0.308,0.858,-0.009
33.28,-0.285,1.186,-0.187
33.29,-0.142,0.891,0.033
33.3,-0.266,1.085,0.215
33.31,-0.072,0.691,0.105
33.32,-0.527,1.205,-0.227
33.33,-0.057,0.907,-0.097
33.34,-0.128,1.136,0.082
33.35,-0.175,0.793,0.146
33.36,-0.248,0.879,-0.074
33.37,-0.318,1.177,-0.173
33.38,-0.071,0.906,0.121
33.39,-0.202,1.175,0.133
33.4,-0.114,0.584,-0.005
33.41,-0.487,1.265,-0.186
33.42,-0.128,0.922,-0.046
33.43,-0.149,0.963,0.108
33.44,-0.17,0.885,0.132
33.45,-0.359,0.838,-0.176
33.46,-0.204,1.246,-0.112
33.47,-0.085,0.909,0.094
33.48,-0.147,0.985,0.114
33.49,-0.174,0.703,-0.0
33.5,-0.439,1.238,-0.212
33.51,-0.063,0.97,0.054
33.52,-0.077,0.927,0.155
33.53,-0.235,0.93,0.052
33.54,-0.368,0.822,-0.182
33.55,-0.2,1.348,-0.039
33.56,-0.101,0.72,0.11
33.57,-0.129,0.998,0.162
33.58,-0.375,0.821,-0.1
33.59,-0.345,1.045,-0.111
33.6,0.015,1.159,0.105
33.61,-0.143,0.765,0.101
33.62,-0.222,1.003,-0.003
33.63,-0.34,0.941,-0.156
33.64,-0.181,1.263,0.006
33.65,-0.159,0.698,0.22
33.66,-0.155,0.971,0.075
33.67,-0.385,0.945,-0.237
33.68,-0.168,1.04,-0.009
33.69,-0.14,1.094,0.12
33.7,-0.194,0.681,0.169
33.71,-0.356,1.134,-0.066
33.72,-0.3,0.869,-0.139
33.73,-0.084,1.302,0.113
33.74,-0.133,0.615,0.104
33.75,-0.23,1.047,-0.01
33.76,-0.393,1.013,-0.188
33.77,-0.127,1.037,-0.03
33.78,-0.128,0.944,0.156
33.79,-0.153,0.75,0.09
33.8,-0.422,1.136,-0.206
33.81,-0.138,0.872,-0.079
33.82,-0.063,1.203,0.11
33.83,-0.15,0.686,0.158
33.84,-0.315,1.046,-0.082
33.85,-0.288,0.979,-0.198
33.86,-0.155,1.056,0.116
33.87,-0.141,1.01,0.136
33.88,-0.267,0.699,0.003
33.89,-0.409,1.311,-0.184
33.9,-0.097,0.8,-0.043
33.91,-0.155,1.106,0.151
33.92,-0.106,0.767,0.091
33.93,-0.409,1.013,-0.209
33.94,-0.242,1.064,-0.089
33.95,-0.026,0.948,0.091
33.96,-0.166,0.949,0.135
33.97,-0.236,0.72,0.0
33.98,-0.373,1.352,-0.247
33.99,-0.1,0.836,0.05
34.0,-0.022,1.099,0.1
34.01,-0.211,0.712,-0.06
34.02,-0.435,1.041,-0.088
34.03,-0.104,1.198,-0.082
34.04,-0.245,0.716,0.14
34.05,-0.066,1.094,0.137
34.06,-0.323,0.742,-0.207
34.07,-0.327,1.26,-0.048
34.08,0.027,0.948,0.081
34.09,-0.21,0.848,0.109
34.1,-0.225,0.9,-0.011
34.11,-0.304,1.03,-0.185
34.12,-0.21,1.182,0.032
34.13,-0.042,0.689,0.147
34.14,-0.194,1.06,0.012
34.15,-0.404,0.881,-0.135
34.16,-0.188,1.053,0.164
34.17,-0.317,0.712,-0.213
34.18,-0.266,1.293,-0.072
34.19,-0.029,0.909,0.109
34.2,-0.208,0.887,0.124
34.21,-0.266,0.821,0.013
34.22,-0.339,1.081,-0.221
34.23,-0.126,1.09,0.041
34.24,-0.164,0.775,0.24
34.25,-0.201,1.01,0.039
34.26,-0.355,0.813,-0.224
34.27,-0.112,1.31,-0.074
34.28,-0.123,0.786,0.118
34.29,-0.151,0.907,0.124
34.3,-0.3,0.975,-0.163
34.31,-0.299,0.897,-0.179
34.32,-0.069,1.273,0.107
34.33,-0.12,0.631,0.112
34.34,-0.288,1.026,0.004
34.35,-0.288,0.938,-0.19
34.36,-0.146,1.126,-0.016
34.37,-0.187,0.809,0.217
34.38,-0.179,0.861,0.074
34.39,-0.386,1.075,-0.256
34.4,-0.136,0.931,-0.03
34.41,-0.132,1.218,0.088
34.42,-0.197,0.602,0.161
34.43,-0.302,1.116,-0.061
34.44,-0.288,0.932,-0.208
34.45,-0.159,1.073,0.118
34.46,-0.068,0.921,0.107
34.47,-0.302,0.887,-0.002
34.48,-0.319,1.13,-0.191
34.49,-0.131,0.937,-0.031
34.5,-0.175,1.037,0.191
34.51,-0.033,0.673,0.081
34.52,-0.503,1.186,-0.203
34.53,-0.183,0.884,-0.009
34.54,-0.101,1.193,0.068
34.55,-0.137,0.688,0.142
34.56,-0.295,0.917,-0.065
34.57,-0.345,1.167,-0.195
34.58,-0.116,0.919,0.082
34.59,-0.107,1.132,0.125
34.6,-0.206,0.59,0.023
34.61,-0.486,1.289,-0.141
34.62,-0.095,0.938,-0.062
34.63,-0.249,1.026,0.14
34.64,-0.098,0.855,0.157
34.65,-0.408,0.866,-0.178
34.66,-0.242,1.215,-0.092
34.67,-0.01,0.901,0.081
34.68,-0.215,0.982,0.128
34.69,-0.245,0.708,0.007
34.7,-0.38,1.287,-0.223
34.71,-0.064,0.911,-0.008
34.72,-0.154,1.001,0.187
34.73,-0.158,0.886,0.031
34.74,-0.431,0.871,-0.175
34.75,-0.192,1.318,-0.026
34.76,-0.113,0.685,0.09
34.77,-0.174,1.012,0.147
34.78,-0.265,0.804,-0.112
34.79,-0.3,1.129,-0.19
34.8,-0.029,1.029,0.095
34.81,-0.051,0.807,0.133
34.82,-0.32,0.977,0.049
34.83,-0.357,0.923,-0.125
34.84,-0.078,1.284,-0.078
34.85,-0.195,0.655,0.183
34.86,-0.082,1.041,0.112
34.87,-0.422,0.924,-0.217
34.88,-0.262,0.987,-0.029
34.89,0.016,1.113,0.102
34.9,-0.216,0.679,0.109
34.91,-0.355,1.111,-0.006
34.92,-0.312,0.92,-0.209
34.93,-0.195,1.197,0.099
34.94,-0.055,0.752,0.128
34.95,-0.186,0.933,0.001
34.96,-0.454,1.09,-0.122
34.97,-0.133,0.975,-0.005
34.98,-0.201,1.051,0.131
34.99,-0.045,0.721,0.109
35.0,-0.442,1.152,-0.192
35.01,-0.247,0.889,-0.032
35.02,-0.093,1.238,0.091
35.03,-0.124,0.68,0.1
35.04,-0.22,0.95,-0.025
35.05,-0.333,1.147,-0.223
35.06,-0.143,0.916,0.08
35.07,-0.057,1.141,0.106
35.08,-0.176,0.605,0.024
35.09,-0.455,1.259,-0.178
35.1,-0.059,0.937,-0.09
35.11,-0.163,1.048,0.105
35.12,-0.088,0.854,0.178
35.13,-0.323,0.866,-0.188
35.14,-0.319,1.102,-0.103
35.15,-0.017,0.992,0.152
35.16,-0.19,1.03,0.107
35.17,-0.193,0.647,0.03
35.18,-0.308,1.349,-0.236
35.19,-0.091,0.897,-0.052
35.2,-0.202,0.967,0.218
35.21,-0.079,0.872,0.05
35.22,-0.5,0.896,-0.18
35.23,-0.13,1.289,0.0
35.24,-0.076,0.798,0.093
35.25,-0.249,0.996,0.169
35.26,-0.232,0.777,-0.081
35.27,-0.32,1.203,-0.188
35.28,-0.165,1.001,0.114
35.29,-0.119,0.963,0.113
35.3,-0.252,0.792,0.01
35.31,-0.338,1.122,-0.186
35.32,-0.118,1.102,0.009
35.33,-0.215,0.763,0.238
35.34,-0.194,1.058,0.102
35.35,-0.34,0.755,-0.249
35.36,-0.189,1.265,-0.027
35.37,-0.138,0.909,0.138
35.38,-0.234,0.83,0.127
35.39,-0.194,0.972,-0.1
35.4,-0.283,1.03,-0.209
35.41,-0.137,1.178,0.113
35.42,-0.09,0.717,0.121
35.43,-0.197,1.057,-0.004
35.44,-0.347,0.939,-0.162
35.45,-0.161,1.171,-0.024
35.46,-0.191,0.83,0.126
35.47,-0.086,0.862,0.112
35.48,-0.381,1.042,-0.195
35.49,-0.219,0.904,-0.061
35.5,-0.099,1.234,0.095
35.51,-0.094,0.565,0.109
35.52,-0.271,1.089,-0.024
35.53,-0.307,0.97,-0.246
35.54,-0.058,1.084,0.004
35.55,-0.156,0.981,0.192
35.56,-0.138,0.751,0.014
35.57,-0.479,1.22,-0.164
35.58,-0.106,0.908,-0.048
35.59,-0.121,1.153,0.081
35.6,-0.159,0.686,0.154
35.61,-0.37,1.052,-0.125
35.62,-0.266,0.958,-0.18
35.63,-0.042,1.101,0.079
35.64,-0.125,0.93,0.093
35.65,-0.22,0.719,0.028
35.66,-0.435,1.356,-0.21
35.67,-0.074,0.78,-0.026
35.68,-0.195,1.123,0.18
35.69,-0.07,0.736,0.08
35.7,-0.439,1.037,-0.197
35.71,-0.208,1.043,-0.073
35.72,-0.035,0.976,0.091
35.73,-0.185,0.959,0.107
35.74,-0.231,0.743,-0.026
35.75,-0.435,1.294,-0.181
35.76,-0.116,0.809,0.09
35.77,-0.083,1.058,0.149
35.78,-0.227,0.741,-0.017
35.79,-0.433,1.076,-0.135
35.8,-0.109,1.128,-0.039
35.81,-0.124,0.768,0.116
35.82,-0.169,1.085,0.152
35.83,-0.316,0.735,-0.219
35.84,-0.306,1.236,-0.07
35.85,-0.011,0.953,0.111
35.86,-0.136,0.857,0.096
35.87,-0.262,0.879,-0.001
35.88,-0.277,1.084,-0.205
35.89,-0.148,1.139,0.037
35.9,-0.117,0.729,0.163
35.91,-0.125,1.06,-0.006
35.92,-0.444,0.832,-0.206
35.93,-0.121,1.206,-0.023
35.94,-0.147,0.808,0.137
35.95,-0.25,0.867,0.172
35.96,-0.266,0.986,-0.179
35.97,-0.261,0.949,-0.13
35.98,-0.065,1.257,0.143
35.99,-0.099,0.645,0.09
36.0,-0.359,1.04,0.013
36.01,-0.302,0.962,-0.199
36.02,-0.039,1.164,-0.038
36.03,-0.205,0.832,0.165
36.04,-0.108,0.823,0.067
36.05,-0.461,1.109,-0.23
36.06,-0.083,0.891,-0.049
36.07,-0.024,1.211,0.092
36.08,-0.224,0.673,0.176
36.09,-0.344,1.104,-0.048
36.1,-0.327,0.907,-0.144
36.11,-0.031,1.213,0.098
36.12,-0.057,0.693,0.093
36.13,-0.318,0.94,0.029
36.14,-0.408,1.139,-0.205
36.15,-0.084,0.874,0.013
36.16,-0.242,1.151,0.167
36.17,-0.086,0.635,0.052
36.18,-0.407,1.241,-0.214
36.19,-0.158,0.949,-0.085
36.2,-0.038,1.053,0.068
36.21,-0.171,0.823,0.215
36.22,-0.389,0.887,-0.083
36.23,-0.208,1.107,-0.237
36.24,-0.017,0.943,0.089
36.25,-0.173,1.049,0.115
36.26,-0.153,0.65,0.009
36.27,-0.39,1.376,-0.235
36.28,-0.035,0.846,-0.104
36.29,-0.179,1.024,0.223
36.3,-0.14,0.848,0.09
36.31,-0.406,0.837,-0.211
36.32,-0.14,1.303,-0.041
36.33,-0.101,0.819,0.066
36.34,-0.158,0.977,0.138
36.35,-0.167,0.726,-0.04
36.36,-0.438,1.254,-0.23
36.37,-0.048,0.923,0.022
36.38,-0.076,0.952,0.146
36.39,-0.202,0.894,0.006
36.4,-0.412,0.931,-0.15
36.41,-0.157,1.295,-0.092
36.42,-0.059,0.664,0.091
36.43,-0.193,1.076,0.161
36.44,-0.351,0.808,-0.178
36.45,-0.226,1.087,-0.149
36.46,-0.046,1.108,0.094
36.47,-0.108,0.708,0.146
36.48,-0.321,1.053,0.04
36.49,-0.331,0.945,-0.23
36.5,-0.11,1.169,-0.064
36.51,-0.014,0.793,0.159
36.52,-0.184,0.986,0.052
36.53,-0.332,0.917,-0.216
36.54,-0.135,1.087,-0.027
36.55,-0.153,1.045,0.099
36.56,-0.199,0.696,0.169
36.57,-0.317,1.145,-0.061
36.58,-0.298,0.869,-0.168
36.59,-0.184,1.222,0.132
36.6,-0.035,0.734,0.103
36.61,-0.251,0.911,-0.028
36.62,-0.406,1.088,-0.126
36.63,-0.121,0.966,0.003
36.64,-0.255,1.076,0.17
36.65,-0.088,0.685,0.095
36.66,-0.382,1.181,-0.22
36.67,-0.233,0.928,-0.005
36.68,-0.078,1.204,0.117
36.69,-0.141,0.738,0.152
36.7,-0.242,0.936,-0.043
36.71,-0.406,1.108,-0.235
36.72,-0.129,0.886,0.147
36.73,-0.179,1.176,0.149
36.74,-0.188,0.589,0.025
36.75,-0.408,1.287,-0.132
36.76,-0.153,0.929,-0.089
36.77,-0.136,0.996,0.098
36.78,-0.111,0.869,0.181
36.79,-0.388,0.851,-0.186
36.8,-0.217,1.153,-0.132
36.81,-0.019,0.963,0.083
36.82,-0.188,0.989,0.085
36.83,-0.157,0.68,0.05
36.84,-0.47,1.365,-0.215
36.85,-0.068,0.852,-0.054
36.86,-0.166,1.022,0.212
36.87,-0.168,0.903,0.101
36.88,-0.387,0.861,-0.184
36.89,-0.236,1.26,0.002
36.9,-0.031,0.812,0.122
36.91,-0.218,1.008,0.155
36.92,-0.229,0.744,-0.154
36.93,-0.333,1.206,-0.177
36.94,-0.034,0.933,0.139
36.95,-0.184,1.005,0.136
36.96,-0.21,0.764,0.011
36.97,-0.349,1.112,-0.15
36.98,-0.183,1.158,0.0
36.99,-0.184,0.673,0.171
37.0,-0.077,1.074,0.112
37.01,-0.409,0.758,-0.228
37.02,-0.324,1.198,-0.034
37.03,0.039,0.912,0.078
37.04,-0.22,0.859,0.124
37.05,-0.28,0.941,0.023
37.06,-0.25,1.024,-0.215
37.07,-0.214,1.205,0.081
37.08,-0.058,0.74,0.188
37.09,-0.194,0.995,-0.031
37.1,-0.466,0.866,-0.106
37.11,-0.207,1.214,-0.031
37.12,-0.087,0.82,0.087
37.13,-0.151,0.887,0.205
37.14,-0.391,1.007,-0.137
37.15,-0.269,0.86,-0.151
37.16,-0.043,1.302,0.127
37.17,-0.057,0.607,0.105
37.18,-0.323,1.042,0.038
37.19,-0.378,0.986,-0.2
37.2,-0.061,1.062,-0.091
37.21,-0.084,0.897,0.142
37.22,-0.076,0.772,0.092
37.23,-0.455,1.225,-0.197
37.24,-0.173,0.843,-0.082
37.25,-0.069,1.176,0.049
37.26,-0.079,0.721,0.172
37.27,-0.396,1.034,-0.065
37.28,-0.281,0.913,-0.232
37.29,-0.078,1.13,0.095
37.3,-0.146,0.9,0.108
37.31,-0.158,0.729,0.079
37.32,-0.46,1.34,-0.21
37.33,-0.114,0.757,-0.048
37.34,-0.149,1.149,0.194
37.35,-0.166,0.75,0.111
37.36,-0.377,0.992,-0.163
37.37,-0.25,1.07,-0.117
37.38,-0.041,1.004,0.118
37.39,-0.19,0.951,0.125
37.4,-0.229,0.687,-0.064
37.41,-0.38,1.307,-0.199
37.42,-0.079,0.847,-0.003
37.43,-0.218,1.092,0.185
37.44,-0.06,0.77,0.049
37.45,-0.451,1.076,-0.211
37.46,-0.218,1.164,-0.023
37.47,-0.072,0.814,0.132
37.48,-0.206,1.013,0.128
37.49,-0.223,0.739,-0.098
37.5,-0.302,1.276,-0.165
37.51,-0.169,0.868,0.106
37.52,-0.063,1.011,0.145
37.53,-0.225,0.82,-0.021
37.54,-0.469,0.989,-0.17
37.55,-0.062,1.204,-0.052
37.56,-0.129,0.768,0.087
37.57,-0.19,1.064,0.139
37.58,-0.307,0.782,-0.179
37.59,-0.265,1.198,-0.143
37.6,0.035,0.926,0.089
37.61,-0.169,0.865,0.107
37.62,-0.361,0.945,0.042
37.63,-0.323,1.009,-0.177
37.64,-0.199,1.17,-0.009
37.65,-0.015,0.653,0.134
37.66,-0.181,1.055,0.032
37.67,-0.493,0.828,-0.146
37.68,-0.082,1.189,-0.066
37.69,-0.145,0.874,0.113
37.7,-0.156,0.823,0.168
37.71,-0.322,1.05,-0.116
37.72,-0.393,0.845,-0.088
37.73,-0.092,1.194,0.139
37.74,-0.217,0.625,0.109
37.75,-0.217,1.09,0.021
37.76,-0.318,0.934,-0.237
37.77,-0.227,1.153,0.026
37.78,0.001,0.83,0.138
37.79,-0.14,0.877,0.026
37.8,-0.391,1.034,-0.17
37.81,-0.033,0.987,-0.095
37.82,-0.23,1.094,0.111
37.83,-0.208,0.671,0.225
37.84,-0.273,1.156,-0.113
37.85,-0.26,0.883,-0.173
37.86,-0.123,1.201,0.126
37.87,-0.116,0.845,0.112
37.88,-0.28,0.818,0.065
37.89,-0.322,1.188,-0.225
37.9,-0.072,0.829,-0.052
37.91,-0.304,1.116,0.188
37.92,0.024,0.691,0.068
37.93,-0.458,1.13,-0.173
37.94,-0.229,0.949,-0.068
37.95,-0.081,1.155,0.066
37.96,-0.154,0.804,0.168
37.97,-0.247,0.836,0.023
37.98,-0.376,1.258,-0.279
37.99,-0.068,0.761,0.038
38.0,-0.161,1.227,0.153
38.01,-0.102,0.68,0.082
38.02,-0.429,1.131,-0.167
38.03,-0.185,1.005,-0.057
38.04,-0.032,0.964,0.095
38.05,-0.241,0.959,0.144
38.06,-0.24,0.794,-0.081
38.07,-0.363,1.192,-0.211
38.08,-0.08,0.873,0.172
38.09,-0.111,1.131,0.113
38.1,-0.184,0.635,-0.01
38.11,-0.408,1.197,-0.144
38.12,-0.094,1.103,-0.134
38.13,-0.145,0.801,0.138
38.14,-0.164,1.041,0.158
38.15,-0.327,0.759,-0.192
38.16,-0.351,1.208,-0.125
38.17,0.115,0.939,0.071
38.18,-0.161,0.969,0.104
38.19,-0.302,0.739,0.07
38.2,-0.306,1.18,-0.216
38.21,-0.168,1.087,-0.089
38.22,-0.088,0.77,0.21
38.23,-0.146,1.025,0.053
38.24,-0.484,0.745,-0.162
38.25,-0.136,1.286,-0.078
38.26,-0.069,0.842,0.077
38.27,-0.217,0.879,0.158
38.28,-0.218,0.945,-0.043
38.29,-0.313,0.97,-0.201
38.3,-0.207,1.154,0.051
38.31,0.054,0.792,0.139
38.32,-0.29,1.032,-0.015
38.33,-0.375,0.846,-0.12
38.34,-0.148,1.317,-0.097
38.35,-0.124,0.735,0.067
38.36,-0.079,0.91,0.206
38.37,-0.328,0.999,-0.175
38.38,-0.356,0.901,-0.089
38.39,-0.034,1.276,0.038
38.4,-0.087,0.626,0.067
38.41,-0.288,1.099,0.08
38.42,-0.299,0.934,-0.267
38.43,-0.152,1.032,-0.025
38.44,-0.135,0.898,0.168
38.45,-0.135,0.83,0.056
38.46,-0.415,1.033,-0.208
38.47,-0.141,0.929,-0.029
38.48,-0.184,1.224,0.073
38.49,-0.176,0.578,0.178
38.5,-0.184,1.143,-0.043
38.51,-0.441,0.941,-0.202
38.52,-0.182,1.023,0.087
38.53,0.008,1.033,0.087
38.54,-0.15,0.725,0.055
38.55,-0.342,1.126,-0.149
38.56,-0.146,0.969,-0.063
38.57,-0.242,1.037,0.108
38.58,-0.044,0.713,0.177
38.59,-0.421,1.172,-0.156
38.6,-0.312,0.838,-0.068
38.61,0.001,1.223,0.071
38.62,-0.16,0.761,0.185
38.63,-0.236,0.863,0.071
38.64,-0.31,1.233,-0.212
38.65,-0.204,0.781,-0.033
38.66,-0.155,1.221,0.175
38.67,-0.048,0.677,0.064
38.68,-0.504,1.115,-0.179
38.69,-0.186,0.956,-0.008
38.7,-0.11,1.167,0.039
38.71,-0.129,0.761,0.147
38.72,-0.183,0.875,0.007
38.73,-0.384,1.273,-0.195
38.74,-0.117,0.795,0.014
38.75,-0.113,1.233,0.163
38.76,-0.159,0.637,0.086
38.77,-0.526,1.14,-0.17
38.78,-0.132,1.018,-0.021
38.79,-0.103,1.023,0.058
38.8,-0.202,0.879,0.211
38.81,-0.281,0.819,-0.009
38.82,-0.416,1.228,-0.213
38.83,-0.046,0.809,0.025
38.84,-0.013,1.235,0.131
38.85,-0.199,0.61,-0.003
38.86,-0.453,1.13,-0.117
38.87,-0.08,1.103,-0.068
38.88,-0.243,0.847,0.072
38.89,0.006,0.97,0.16
38.9,-0.337,0.77,-0.138
38.91,-0.375,1.178,-0.103
38.92,0.036,0.921,0.068
38.93,-0.106,1.019,0.066
38.94,-0.238,0.752,0.076
38.95,-0.336,1.164,-0.191
38.96,-0.136,1.049,-0.038
38.97,-0.144,0.901,0.197
38.98,-0.076,1.016,0.075
38.99,-0.414,0.768,-0.156
39.0,-0.274,1.323,-0.045
39.01,-0.02,0.893,0.031
39.02,-0.213,0.875,0.163
39.03,-0.174,0.88,0.014
39.04,-0.342,1.107,-0.272
39.05,-0.153,1.041,-0.005
39.06,-0.065,0.843,0.19
39.07,-0.154,1.038,0.073
39.08,-0.41,0.798,-0.16
39.09,-0.164,1.292,-0.055
39.1,-0.114,0.801,0.078
39.11,-0.171,0.867,0.169
39.12,-0.256,1.015,-0.083
39.13,-0.352,0.92,-0.191
39.14,-0.143,1.092,0.075
39.15,-0.024,0.817,0.166
39.16,-0.218,1.043,-0.025
39.17,-0.357,0.849,-0.194
39.18,-0.089,1.223,-0.042
39.19,-0.198,0.847,0.084
39.2,-0.157,0.802,0.204
39.21,-0.279,1.086,-0.167
39.22,-0.269,0.824,-0.198
39.23,-0.01,1.279,0.091
39.24,-0.119,0.688,0.131
39.25,-0.264,1.048,0.06
39.26,-0.28,0.988,-0.232
39.27,-0.177,1.03,-0.064
39.28,-0.25,0.912,0.213
39.29,-0.049,0.793,0.102
39.3,-0.481,1.1,-0.186
39.31,-0.171,0.882,-0.023
39.32,-0.123,1.276,0.043
39.33,-0.137,0.604,0.118
39.34,-0.176,1.088,0.027
39.35,-0.425,0.99,-0.177
39.36,-0.24,1.159,0.092
39.37,-0.064,0.879,0.102
39.38,-0.146,0.835,0.006
39.39,-0.439,1.123,-0.179
39.4,-0.076,0.965,-0.098
39.41,-0.137,1.098,0.063
39.42,-0.139,0.672,0.222
39.43,-0.341,1.147,-0.139
39.44,-0.245,0.804,-0.199
39.45,-0.091,1.19,0.093
39.46,-0.137,0.895,0.101
39.47,-0.143,0.761,-0.001
39.48,-0.443,1.231,-0.197
39.49,-0.056,0.88,-0.044
39.5,-0.231,1.144,0.096
39.51,-0.141,0.68,0.256
39.52,-0.451,1.086,-0.145
39.53,-0.252,0.877,-0.179
39.54,-0.028,1.193,0.063
39.55,-0.148,0.862,0.072
39.56,-0.277,0.722,0.047
39.57,-0.323,1.301,-0.185
39.58,-0.116,0.802,-0.053
39.59,-0.217,1.197,0.216
39.6,-0.079,0.704,0.11
39.61,-0.498,1.046,-0.212
39.62,-0.09,1.066,-0.085
39.63,-0.09,1.042,0.055
39.64,-0.242,0.871,0.151
39.65,-0.128,0.784,-0.045
39.66,-0.418,1.28,-0.193
39.67,-0.16,0.834,0.071
39.68,-0.139,1.185,0.141
39.69,-0.081,0.671,-0.019
39.7,-0.412,1.141,-0.135
39.71,-0.07,1.15,-0.127
39.72,-0.172,0.836,0.072
39.73,-0.164,0.982,0.166
39.74,-0.243,0.762,-0.125
39.75,-0.341,1.212,-0.172
39.76,-0.182,0.881,0.09
39.77,-0.11,1.079,0.153
39.78,-0.102,0.755,0.03
39.79,-0.494,1.055,-0.171
39.8,-0.054,1.119,-0.074
39.81,-0.13,0.798,0.091
39.82,-0.214,1.055,0.201
39.83,-0.295,0.748,-0.139
39.84,-0.278,1.195,-0.173
39.85,-0.117,0.967,0.135
39.86,-0.168,0.927,0.118
39.87,-0.232,0.808,0.029
39.88,-0.329,1.09,-0.171
39.89,-0.202,1.137,0.005
39.9,-0.192,0.734,0.16
39.91,-0.057,1.075,0.144
39.92,-0.403,0.802,-0.192
39.93,-0.324,1.161,-0.099
39.94,0.031,0.97,0.046
39.95,-0.156,0.855,0.123
39.96,-0.324,0.926,0.037
39.97,-0.336,0.995,-0.194
39.98,-0.175,1.191,-0.026
39.99,-0.1,0.713,0.133
40.0,-0.124,1.017,0.081
40.01,-0.354,0.841,-0.183
40.02,-0.182,1.175,-0.056
40.03,-0.044,0.966,0.061
40.04,-0.198,0.771,0.181
40.05,-0.279,1.066,-0.021
40.06,-0.363,0.84,-0.225
40.07,-0.184,1.169,0.078
40.08,-0.125,0.799,0.166
40.09,-0.159,0.976,0.037
40.1,-0.355,0.942,-0.19
40.11,-0.102,1.098,-0.125
40.12,-0.109,0.938,0.088
40.13,-0.151,0.796,0.211
40.14,-0.331,1.107,-0.131
40.15,-0.3,0.781,-0.147
40.16,-0.202,1.283,0.106
40.17,-0.141,0.779,0.15
40.18,-0.193,1.031,0.009
40.19,-0.31,0.94,-0.188
40.2,-0.158,1.127,-0.004
40.21,-0.146,0.843,0.131
40.22,-0.096,0.892,0.16
40.23,-0.394,1.059,-0.195
40.24,-0.26,0.863,-0.086
40.25,-0.1,1.275,0.074
40.26,-0.167,0.61,0.146
40.27,-0.334,1.045,0.055
40.28,-0.256,0.944,-0.204
40.29,-0.172,1.045,-0.01
40.3,-0.203,0.912,0.24
40.31,-0.091,0.808,0.097
40.32,-0.501,1.146,-0.194
40.33,-0.074,0.835,-0.085
40.34,-0.083,1.249,0.046
40.35,-0.149,0.636,0.17
40.36,-0.303,1.078,-0.059
40.37,-0.279,0.97,-0.195
40.38,-0.205,0.997,0.053
40.39,-0.035,1.059,0.178
40.4,-0.16,0.718,-0.033
40.41,-0.453,1.172,-0.188
40.42,-0.016,0.925,-0.019
40.43,-0.225,1.225,0.075
40.44,-0.115,0.708,0.184
40.45,-0.361,1.01,-0.115
40.46,-0.286,0.97,-0.164
40.47,-0.08,1.047,0.094
40.48,-0.089,1.051,0.121
40.49,-0.244,0.624,0.0
40.5,-0.436,1.284,-0.168
40.51,-0.02,0.895,-0.073
40.52,-0.224,1.039,0.122
40.53,-0.08,0.778,0.185
40.54,-0.37,1.074,-0.196
40.55,-0.343,0.988,-0.143
40.56,0.062,0.966,0.079
40.57,-0.172,1.056,0.136
40.58,-0.281,0.673,0.04
40.59,-0.363,1.349,-0.22
40.6,-0.152,0.79,-0.039
40.61,-0.13,1.052,0.176
40.62,-0.124,0.801,0.078
40.63,-0.443,0.975,-0.224
40.64,-0.153,1.181,-0.036
40.65,-0.089,0.889,0.084
40.66,-0.182,1.003,0.141
40.67,-0.195,0.723,-0.064
40.68,-0.38,1.27,-0.172
40.69,-0.135,0.878,0.07
40.7,-0.119,1.014,0.162
40.71,-0.2,0.815,0.049
40.72,-0.398,0.98,-0.168
40.73,-0.117,1.23,-0.052
40.74,-0.125,0.763,0.084
40.75,-0.114,1.05,0.15
40.76,-0.309,0.757,-0.158
40.77,-0.288,1.149,-0.141
40.78,0.032,1.041,0.062
40.79,-0.212,0.863,0.172
40.8,-0.299,0.883,0.07
40.81,-0.271,0.985,-0.197
40.82,-0.124,1.191,-0.047
40.83,-0.213,0.694,0.167
40.84,-0.06,1.037,0.074
40.85,-0.343,0.816,-0.206
40.86,-0.248,1.167,-0.051
40.87,-0.023,1.024,0.064
40.88,-0.177,0.741,0.139
40.89,-0.252,1.027,0.005
40.9,-0.32,0.911,-0.247
40.91,-0.146,1.158,0.028
40.92,-0.051,0.818,0.174
40.93,-0.126,0.984,0.047
40.94,-0.454,0.859,-0.152
40.95,-0.132,1.161,-0.075
40.96,-0.083,1.022,0.065
40.97,-0.263,0.694,0.222
40.98,-0.2,1.126,-0.079
40.99,-0.385,0.915,-0.192
41.0,-0.013,1.212,0.093
41.01,-0.066,0.679,0.082
41.02,-0.407,1.01,0.068
41.03,-0.26,0.943,-0.196
41.04,-0.086,1.135,-0.082
41.05,-0.258,0.843,0.167
41.06,-0.038,0.838,0.148
41.07,-0.397,1.104,-0.204
41.08,-0.231,0.864,-0.057
41.09,-0.076,1.285,0.098
41.1,-0.158,0.638,0.128
41.11,-0.326,1.062,0.045
41.12,-0.28,0.907,-0.223
41.13,-0.232,1.082,0.042
41.14,-0.116,1.02,0.15
41.15,-0.078,0.742,0.04
41.16,-0.523,1.136,-0.111
41.17,-0.071,0.857,-0.092
41.18,-0.102,1.238,0.077
41.19,-0.109,0.665,0.169
41.2,-0.355,1.05,-0.063
41.21,-0.295,0.959,-0.187
41.22,-0.152,1.112,0.049
41.23,-0.123,0.997,0.127
41.24,-0.152,0.655,0.004
41.25,-0.451,1.295,-0.151
41.26,-0.067,0.883,-0.07
41.27,-0.189,1.089,0.054
41.28,-0.049,0.744,0.156
41.29,-0.317,1.045,-0.164
41.3,-0.342,0.963,-0.2
41.31,0.021,1.041,0.082
41.32,-0.152,1.043,0.134
41.33,-0.322,0.671,0.059
41.34,-0.389,1.338,-0.247
41.35,-0.083,0.82,-0.08
41.36,-0.226,1.16,0.243
41.37,-0.021,0.773,0.102
41.38,-0.457,0.926,-0.209
41.39,-0.144,1.136,-0.057
41.4,-0.069,0.975,0.037
41.41,-0.254,0.943,0.157
41.42,-0.2,0.748,0.059
41.43,-0.459,1.334,-0.249
41.44,-0.133,0.803,0.026
41.45,-0.107,1.155,0.141
41.46,-0.135,0.729,0.044
41.47,-0.406,0.907,-0.15
41.48,-0.081,1.278,-0.07
41.49,-0.131,0.814,0.084
41.5,-0.155,0.96,0.148
41.51,-0.212,0.75,-0.035
41.52,-0.411,1.219,-0.215
41.53,-0.136,0.888,0.059
41.54,-0.018,1.03,0.142
41.55,-0.262,0.837,0.041
41.56,-0.347,0.918,-0.121
41.57,-0.064,1.293,-0.086
41.58,-0.132,0.676,0.078
41.59,-0.134,1.043,0.208
41.6,-0.277,0.825,-0.169
41.61,-0.308,1.065,-0.183
41.62,-0.047,1.078,0.127
41.63,-0.145,0.927,0.14
41.64,-0.285,0.906,-0.008
41.65,-0.344,0.969,-0.132
41.66,-0.247,1.228,-0.002
41.67,-0.198,0.658,0.17
41.68,-0.1,1.067,0.113
41.69,-0.319,0.834,-0.206
41.7,-0.338,1.091,-0.046
41.71,-0.008,1.051,0.034
41.72,-0.144,0.736,0.098
41.73,-0.289,1.042,0.057
41.74,-0.278,0.905,-0.179
41.75,-0.188,1.225,-0.008
41.76,-0.114,0.755,0.148
41.77,-0.088,0.992,0.063
41.78,-0.41,0.879,-0.196
41.79,-0.159,1.072,-0.064
41.8,-0.122,1.074,0.064
41.81,-0.176,0.858,0.2
41.82,-0.248,1.026,-0.142
41.83,-0.323,0.838,-0.146
41.84,-0.176,1.243,0.146
41.85,-0.024,0.755,0.092
41.86,-0.241,1.007,-0.01
41.87,-0.365,0.93,-0.121
41.88,-0.142,1.186,-0.081
41.89,-0.167,0.806,0.077
41.9,-0.119,0.816,0.207
41.91,-0.42,1.118,-0.152
41.92,-0.341,0.769,-0.134
41.93,-0.032,1.31,0.108
41.94,-0.15,0.662,0.101
41.95,-0.32,1.01,0.046
41.96,-0.291,1.027,-0.189
41.97,-0.147,0.975,-0.066
41.98,-0.206,0.901,0.18
41.99,0.042,0.817,0.105
42.0,-0.474,1.12,-0.216
42.01,-0.222,0.8,-0.027
42.02,-0.003,1.356,0.036
42.03,-0.183,0.592,0.096
42.04,-0.209,1.059,0.07
42.05,-0.307,1.092,-0.247
42.06,-0.194,0.907,-0.001
42.07,-0.07,1.075,0.185
42.08,-0.048,0.7,0.08
42.09,-0.556,1.191,-0.156
42.1,0.023,0.885,-0.072
42.11,-0.175,1.178,0.055
42.12,-0.211,0.681,0.184
42.13,-0.196,0.994,-0.075
42.14,-0.395,1.012,-0.197
42.15,-0.148,0.914,0.08
42.16,-0.04,1.154,0.128
42.17,-0.149,0.591,0.026
42.18,-0.414,1.278,-0.185
42.19,-0.011,0.948,-0.067
42.2,-0.284,1.068,0.126
42.21,-0.129,0.783,0.204
42.22,-0.351,0.977,-0.182
42.23,-0.311,1.004,-0.194
42.24,-0.108,1.021,0.103
42.25,-0.108,1.077,0.081
42.26,-0.193,0.615,0.026
42.27,-0.384,1.348,-0.168
42.28,-0.111,0.886,-0.078
42.29,-0.149,0.961,0.126
42.3,-0.017,0.876,0.157
42.31,-0.471,0.905,-0.169
42.32,-0.262,1.132,-0.07
42.33,-0.019,0.971,0.078
42.34,-0.23,0.959,0.102
42.35,-0.194,0.716,0.025
42.36,-0.357,1.373,-0.231
42.37,-0.143,0.824,-0.016
42.38,-0.133,0.985,0.241
42.39,-0.151,0.906,0.069
42.4,-0.43,0.835,-0.185
42.41,-0.172,1.249,-0.037
42.42,-0.126,0.815,0.067
42.43,-0.167,1.022,0.148
42.44,-0.218,0.758,-0.052
42.45,-0.43,1.193,-0.195
42.46,-0.192,0.917,0.067
42.47,0.021,0.956,0.091
42.48,-0.181,0.892,0.022
42.49,-0.436,0.91,-0.102
42.5,-0.404,0.997,-0.13
42.51,-0.198,1.201,-0.04
42.52,-0.149,0.714,0.136
42.53,-0.117,1.049,0.135
42.54,-0.406,0.746,-0.216
42.55,-0.219,1.211,-0.051
42.56,-0.023,0.982,0.079
42.57,-0.289,0.753,0.159
42.58,-0.215,0.963,0.048
42.59,-0.289,1.03,-0.277
42.6,-0.125,1.164,-0.011
42.61,-0.127,0.757,0.183
42.62,-0.174,1.013,0.038
42.63,-0.439,0.842,-0.177
42.64,-0.126,1.184,-0.027
42.65,-0.126,0.933,0.066
42.66,-0.217,0.767,0.172
42.67,-0.228,1.098,-0.072
42.68,-0.316,0.875,-0.172
42.69,-0.172,1.224,0.067
42.7,-0.001,0.729,0.093
42.71,-0.255,0.969,0.014
42.72,-0.392,0.979,-0.15
42.73,-0.093,1.148,-0.071
42.74,-0.2,0.897,0.103
42.75,-0.047,0.786,0.199
42.76,-0.421,1.126,-0.172
42.77,-0.338,0.792,-0.085
42.78,0.004,1.347,0.07
42.79,-0.11,0.663,0.082
42.8,-0.312,0.954,0.068
42.81,-0.22,1.047,-0.227
42.82,-0.163,0.954,-0.028
42.83,-0.18,0.986,0.207
42.84,0.004,0.732,0.084
42.85,-0.532,1.188,-0.213
42.86,-0.127,0.854,-0.022
42.87,-0.11,1.236,0.071
42.88,-0.214,0.667,0.168
42.89,-0.244,1.004,-0.043
42.9,-0.262,1.064,-0.276
42.91,-0.206,0.944,0.096
42.92,-0.069,1.109,0.108
42.93,-0.082,0.611,-0.002
42.94,-0.519,1.284,-0.13
42.95,-0.099,0.901,-0.035
42.96,-0.277,1.124,0.079
42.97,-0.057,0.801,0.214
42.98,-0.355,0.928,-0.153
42.99,-0.265,1.035,-0.131
43.0,-0.04,1.043,0.11
43.01,-0.166,1.072,0.133
43.02,-0.196,0.608,0.04
43.03,-0.4,1.35,-0.149
43.04,-0.098,0.873,-0.063
43.05,-0.218,1.047,0.157
43.06,-0.078,0.839,0.165
43.07,-0.394,0.932,-0.194
43.08,-0.285,1.129,-0.077
43.09,0.026,0.942,0.12
43.1,-0.219,1.02,0.147
43.11,-0.267,0.66,0.005
43.12,-0.31,1.311,-0.24
43.13,-0.155,0.884,-0.004
43.14,-0.129,1.02,0.154
43.15,-0.073,0.865,0.04
43.16,-0.468,0.869,-0.175
43.17,-0.115,1.279,-0.055
43.18,-0.082,0.819,0.088
43.19,-0.196,1.009,0.153
43.2,-0.156,0.768,-0.086
43.21,-0.353,1.18,-0.194
43.22,-0.158,0.986,0.126
43.23,-0.086,0.963,0.119
43.24,-0.22,0.873,-0.012
43.25,-0.396,0.89,-0.109
43.26,-0.201,1.29,-0.044
43.27,-0.119,0.721,0.106
43.28,-0.146,1.066,0.163
43.29,-0.313,0.778,-0.183
43.3,-0.315,1.067,-0.16
43.31,0.027,1.139,0.072
43.32,-0.18,0.74,0.092
43.33,-0.292,1.019,0.079
43.34,-0.274,0.965,-0.19
43.35,-0.253,1.07,0.029
43.36,-0.104,0.742,0.252
43.37,-0.19,1.065,0.084
43.38,-0.465,0.76,-0.208
43.39,-0.12,1.187,-0.075
43.4,-0.139,0.88,0.074
43.41,-0.202,0.843,0.222
43.42,-0.229,1.01,-0.074
43.43,-0.376,0.86,-0.182
43.44,-0.118,1.212,0.095
43.45,-0.007,0.753,0.089
43.46,-0.197,0.977,0.031
43.47,-0.371,0.917,-0.165
43.48,-0.098,1.128,-0.097
43.49,-0.167,0.856,0.133
43.5,-0.127,0.841,0.203
43.51,-0.425,1.075,-0.147
43.52,-0.282,0.82,-0.136
43.53,-0.02,1.364,0.088
43.54,-0.092,0.651,0.09
43.55,-0.262,1.009,0.036
43.56,-0.385,1.016,-0.124
43.57,-0.156,1.089,-0.007
43.58,-0.217,0.905,0.125
43.59,-0.049,0.776,0.121
43.6,-0.43,1.18,-0.218
43.61,-0.223,0.803,-0.082
43.62,-0.022,1.263,0.099
43.63,-0.168,0.621,0.148
43.64,-0.298,1.034,0.043
43.65,-0.308,1.019,-0.241
43.66,-0.168,0.962,-0.028
43.67,-0.132,1.073,0.17
43.68,-0.094,0.689,0.025
43.69,-0.484,1.213,-0.187
43.7,-0.092,0.884,-0.03
43.71,-0.138,1.192,0.067
43.72,-0.142,0.67,0.151
43.73,-0.272,1.054,-0.046
43.74,-0.4,1.024,-0.218
43.75,-0.123,0.925,0.103
43.76,-0.033,1.144,0.095
43.77,-0.207,0.573,0.005
43.78,-0.41,1.3,-0.117
43.79,-0.115,0.945,-0.071
43.8,-0.228,1.023,0.084
43.81,-0.033,0.793,0.191
43.82,-0.389,1.006,-0.198
43.83,-0.314,1.045,-0.133
43.84,0.03,0.998,0.092
43.85,-0.174,1.017,0.127
43.86,-0.25,0.631,0.049
43.87,-0.347,1.399,-0.201
43.88,-0.136,0.819,-0.007
43.89,-0.241,1.06,0.175
43.9,-0.049,0.854,0.102
43.91,-0.455,0.898,-0.24
43.92,-0.159,1.173,-0.075
43.93,0.007,0.969,0.036
43.94,-0.217,0.946,0.161
43.95,-0.22,0.682,0.001
43.96,-0.329,1.326,-0.262
43.97,-0.059,0.863,-0.006
43.98,-0.141,1.075,0.176
43.99,-0.114,0.794,0.022
44.0,-0.451,0.925,-0.174
44.01,-0.128,1.268,-0.048
44.02,-0.122,0.767,0.104
44.03,-0.235,1.034,0.189
44.04,-0.253,0.784,-0.139
44.05,-0.312,1.131,-0.16
44.06,-0.111,0.984,0.151
44.07,-0.125,0.964,0.159
44.08,-0.193,0.873,-0.014
44.09,-0.4,0.975,-0.131
44.1,-0.225,1.219,-0.026
44.11,-0.181,0.696,0.193
44.12,-0.117,1.09,0.109
44.13,-0.348,0.794,-0.2
44.14,-0.256,1.112,-0.091
44.15,-0.035,1.081,0.044
44.16,-0.104,0.687,0.122
44.17,-0.215,0.935,-0.018
44.18,-0.38,1.028,-0.227
44.19,-0.136,1.063,0.014
44.2,-0.052,0.853,0.138
44.21,-0.155,0.995,0.016
44.22,-0.419,0.831,-0.139
44.23,-0.071,1.313,-0.077
44.24,-0.121,0.823,0.057
44.25,-0.148,0.827,0.235
44.26,-0.281,1.019,-0.114
44.27,-0.294,0.91,-0.202
44.28,-0.16,1.249,0.146
44.29,-0.09,0.677,0.128
44.3,-0.323,1.038,0.033
44.31,-0.29,0.932,-0.182
44.32,-0.155,1.145,-0.045
44.33,-0.256,0.817,0.17
44.34,-0.045,0.867,0.166
44.35,-0.413,1.059,-0.161
44.36,-0.28,0.812,-0.08
44.37,-0.019,1.321,0.011
44.38,-0.125,0.602,0.124
44.39,-0.299,1.08,0.069
44.4,-0.294,0.949,-0.262
44.41,-0.089,0.999,-0.095
44.42,-0.161,0.988,0.194
44.43,-0.094,0.769,0.088
44.44,-0.478,1.135,-0.17
44.45,-0.127,0.868,-0.071
44.46,-0.056,1.25,0.045
44.47,-0.135,0.626,0.136
44.48,-0.233,1.07,-0.04
44.49,-0.412,0.935,-0.177
44.5,-0.203,1.019,0.076
44.51,-0.119,1.088,0.138
44.52,-0.144,0.653,0.048
44.53,-0.446,1.205,-0.158
44.54,-0.031,0.93,-0.097
44.55,-0.15,1.116,0.039
44.56,-0.046,0.7,0.23
44.57,-0.361,1.117,-0.114
44.58,-0.315,0.924,-0.206
44.59,-0.101,1.008,0.14
44.6,-0.143,1.031,0.144
44.61,-0.211,0.664,0.009
44.62,-0.413,1.347,-0.175
44.63,-0.109,0.828,-0.051
44.64,-0.246,1.105,0.124
44.65,-0.052,0.744,0.164
44.66,-0.351,0.992,-0.189
44.67,-0.315,1.055,-0.064
44.68,-0.043,1.036,0.071
44.69,-0.14,0.963,0.105
44.7,-0.301,0.671,0.046
44.71,-0.353,1.375,-0.236
44.72,-0.083,0.785,-0.062
44.73,-0.216,1.071,0.205
44.74,-0.065,0.791,0.106
44.75,-0.41,0.962,-0.205
44.76,-0.191,1.198,-0.036
44.77,-0.145,0.924,0.086
44.78,-0.209,0.969,0.098
44.79,-0.196,0.751,-0.026
44.8,-0.357,1.274,-0.218
44.81,-0.165,0.864,0.056
44.82,-0.107,1.109,0.13
44.83,-0.083,0.786,0.047
44.84,-0.47,0.945,-0.114
44.85,-0.127,1.22,-0.086
44.86,-0.131,0.793,0.091
44.87,-0.194,1.051,0.171
44.88,-0.245,0.736,-0.098
44.89,-0.333,1.17,-0.167
44.9,-0.084,1.001,0.092
44.91,-0.137,0.946,0.146
44.92,-0.15,0.85,0.006
44.93,-0.382,0.969,-0.125
44.94,-0.175,1.236,-0.018
44.95,-0.14,0.712,0.127
44.96,-0.137,1.055,0.132
44.97,-0.23,0.827,-0.165
44.98,-0.287,1.095,-0.178
44.99,0.041,0.944,0.112
45.0,-0.178,0.962,0.121
45.01,-0.296,0.812,-0.02
45.02,-0.307,1.097,-0.145
45.03,-0.115,1.117,-0.047
45.04,-0.242,0.744,0.196
45.05,-0.024,1.058,0.071
45.06,-0.377,0.795,-0.225
45.07,-0.317,1.202,-0.008
45.08,-0.009,0.895,0.085
45.09,-0.179,0.87,0.129
45.1,-0.254,0.943,0.003
45.11,-0.383,1.011,-0.178
45.12,-0.164,1.078,0.017
45.13,-0.026,0.807,0.142
45.14,-0.182,1.029,0.019
45.15,-0.391,0.818,-0.177
45.16,-0.159,1.258,-0.078
45.17,-0.08,0.827,0.08
45.18,-0.16,0.857,0.219
45.19,-0.293,1.002,-0.106
45.2,-0.332,0.874,-0.147
45.21,-0.1,1.283,0.108
45.22,-0.126,0.655,0.108
45.23,-0.257,1.018,0.078
45.24,-0.362,0.979,-0.177
45.25,-0.181,1.116,-0.022
45.26,-0.156,0.83,0.118
45.27,-0.116,0.834,0.178
45.28,-0.385,1.071,-0.162
45.29,-0.241,0.824,-0.109
45.3,-0.102,1.347,0.127
45.31,-0.147,0.6,0.125
45.32,-0.307,1.054,0.023
45.33,-0.286,1.003,-0.226
45.34,-0.13,1.007,-0.064
45.35,-0.136,0.905,0.174
45.36,-0.102,0.776,0.066
45.37,-0.424,1.117,-0.208
45.38,-0.206,0.852,-0.003
45.39,-0.059,1.285,0.04
45.4,-0.106,0.637,0.105
45.41,-0.329,1.038,-0.013
45.42,-0.265,0.994,-0.224
45.43,-0.104,0.977,-0.001
45.44,-0.171,1.023,0.232
45.45,-0.065,0.719,0.059
45.46,-0.443,1.225,-0.252
45.47,-0.162,0.846,-0.04
45.48,-0.136,1.159,0.117
45.49,-0.141,0.708,0.126
45.5,-0.349,1.015,-0.095
45.51,-0.236,1.036,-0.201
45.52,-0.121,0.978,0.134
45.53,-0.133,1.049,0.168
45.54,-0.184,0.639,-0.022
45.55,-0.43,1.336,-0.199
45.56,-0.06,0.862,-0.061
45.57,-0.18,1.087,0.097
45.58,-0.049,0.793,0.131
45.59,-0.391,0.98,-0.193
45.6,-0.292,1.027,-0.088
45.61,-0.032,1.025,0.125
45.62,-0.201,1.007,0.105
45.63,-0.186,0.653,0.014
45.64,-0.428,1.388,-0.202
45.65,-0.04,0.816,-0.067
45.66,-0.163,1.065,0.177
45.67,-0.08,0.794,0.109
45.68,-0.51,0.987,-0.229
45.69,-0.113,1.158,-0.105
45.7,-0.057,0.8,0.109
45.71,-0.287,1.05,0.187
45.72,-0.213,0.722,-0.078
45.73,-0.378,1.242,-0.235
45.74,-0.036,0.901,0.065
45.75,-0.187,0.984,0.168
45.76,-0.181,0.795,0.01
45.77,-0.357,1.076,-0.176
45.78,-0.182,1.163,-0.058
45.79,-0.144,0.722,0.12
45.8,-0.125,0.987,0.101
45.81,-0.318,0.748,-0.202
45.82,-0.27,1.306,-0.045
45.83,-0.072,0.859,0.07
45.84,-0.07,0.935,0.103
45.85,-0.235,0.792,-0.015
45.86,-0.356,1.129,-0.219
45.87,-0.037,1.078,-0.029
45.88,-0.222,0.866,0.162
45.89,-0.121,0.966,0.1
45.9,-0.416,0.805,-0.158
45.91,-0.18,1.322,-0.042
45.92,-0.08,0.811,0.118
45.93,-0.151,0.904,0.148
45.94,-0.28,0.92,-0.033
45.95,-0.322,1.014,-0.198
45.96,-0.112,1.14,0.023
45.97,-0.092,0.838,0.146
45.98,-0.196,1.006,0.038
45.99,-0.407,0.842,-0.174
46.0,-0.078,1.261,-0.097
46.01,-0.142,0.763,0.115
46.02,-0.182,0.905,0.182
46.03,-0.323,1.008,-0.127
46.04,-0.237,0.858,-0.197
46.05,-0.095,1.222,0.129
46.06,-0.132,0.674,0.171
46.07,-0.309,1.069,0.016
46.08,-0.308,0.924,-0.18
46.09,-0.158,1.136,-0.012
46.1,-0.164,0.875,0.173
46.11,-0.125,0.851,0.098
46.12,-0.37,1.049,-0.187
46.13,-0.228,0.98,-0.04
46.14,-0.041,1.259,0.065
46.15,-0.185,0.57,0.126
46.16,-0.204,1.116,0.005
46.17,-0.314,0.949,-0.262
46.18,-0.184,1.014,0.041
46.19,-0.092,0.957,0.161
46.2,-0.14,0.798,0.067
46.21,-0.429,1.12,-0.192
46.22,-0.129,0.866,-0.068
46.23,-0.081,1.177,0.084
46.24,-0.166,0.671,0.181
46.25,-0.282,1.107,-0.038
46.26,-0.343,0.918,-0.213
46.27,-0.139,1.078,0.094
46.28,-0.071,1.018,0.128
46.29,-0.2,0.695,0.015
46.3,-0.459,1.205,-0.18
46.31,-0.041,0.893,-0.098
46.32,-0.117,1.111,0.074
46.33,-0.125,0.701,0.196
46.34,-0.393,1.098,-0.13
46.35,-0.24,0.948,-0.197
46.36,-0.051,1.079,0.084
46.37,-0.127,0.962,0.135
46.38,-0.199,0.684,0.028
46.39,-0.414,1.317,-0.196
46.4,-0.089,0.811,0.003
46.41,-0.225,1.167,0.163
46.42,-0.088,0.762,0.124
46.43,-0.42,1.016,-0.186
46.44,-0.273,1.093,-0.016
46.45,-0.026,0.983,0.112
46.46,-0.239,0.969,0.12
46.47,-0.188,0.724,-0.018
46.48,-0.375,1.323,-0.211
46.49,-0.09,0.871,0.034
46.5,-0.174,1.138,0.117
46.51,-0.059,0.744,0.076
46.52,-0.44,1.062,-0.171
46.53,-0.115,1.173,-0.095
46.54,-0.052,0.826,0.075
46.55,-0.187,1.038,0.179
46.56,-0.213,0.76,-0.119
46.57,-0.349,1.229,-0.194
46.58,-0.141,0.917,0.111
46.59,-0.102,1.082,0.153
46.6,-0.168,0.757,-0.034
46.61,-0.444,1.039,-0.097
46.62,-0.086,1.014,-0.079
46.63,-0.263,0.856,0.2
46.64,-0.075,1.002,0.145
46.65,-0.384,0.796,-0.208
46.66,-0.388,1.26,-0.06
46.67,-0.025,0.889,0.042
46.68,-0.158,0.933,0.051
46.69,-0.182,0.793,0.013
46.7,-0.31,1.256,-0.208
46.71,-0.133,0.968,-0.005
46.72,-0.116,0.841,0.179
46.73,-0.157,1.006,0.068
46.74,-0.351,0.79,-0.161
46.75,-0.268,1.309,0.008
46.76,-0.059,0.81,0.065
46.77,-0.111,0.917,0.099
46.78,-0.298,0.911,-0.021
46.79,-0.326,1.037,-0.214
46.8,-0.136,1.049,0.023
46.81,-0.03,0.848,0.115
46.82,-0.176,1.011,-0.001
46.83,-0.47,0.84,-0.1
46.84,-0.166,1.234,-0.054
46.85,-0.198,0.773,0.094
46.86,-0.123,0.969,0.137
46.87,-0.305,0.933,-0.147
46.88,-0.325,0.912,-0.122
46.89,-0.047,1.222,0.096
46.9,-0.052,0.687,0.11
46.91,-0.296,1.058,0.011
46.92,-0.268,0.943,-0.181
46.93,-0.236,1.169,-0.044
46.94,-0.157,0.78,0.171
46.95,-0.09,0.928,0.133
46.96,-0.403,1.008,-0.211
46.97,-0.2,0.868,-0.105
46.98,-0.056,1.272,0.086
46.99,-0.103,0.604,0.118
47.0,-0.326,1.103,0.021
47.01,-0.268,0.947,-0.226
47.02,-0.133,1.124,-0.033
47.03,-0.148,0.899,0.191
47.04,-0.167,0.834,0.097
47.05,-0.399,1.066,-0.184
47.06,-0.108,0.972,0.003
47.07,-0.154,1.246,0.07
47.08,-0.157,0.583,0.141
47.09,-0.192,1.143,-0.082
47.1,-0.347,0.91,-0.205
47.11,-0.193,1.087,0.117
47.12,-0.037,0.926,0.072
47.13,-0.221,0.779,0.02
47.14,-0.44,1.196,-0.142
47.15,-0.153,0.856,-0.024
47.16,-0.202,1.146,0.111
47.17,-0.069,0.753,0.155
47.18,-0.322,1.056,-0.197
47.19,-0.314,0.915,-0.101
47.2,-0.036,1.182,0.097
47.21,-0.159,0.859,0.153
47.22,-0.296,0.721,0.088
47.23,-0.344,1.33,-0.236
47.24,-0.091,0.791,-0.071
47.25,-0.241,1.143,0.201
47.26,0.023,0.758,0.104
47.27,-0.487,1.062,-0.23
47.28,-0.255,0.977,-0.031
47.29,-0.054,1.094,0.064
47.3,-0.158,0.882,0.1
47.31,-0.186,0.736,0.025
47.32,-0.312,1.331,-0.24
47.33,-0.098,0.825,0.012
47.34,-0.213,1.184,0.203
47.35,-0.028,0.679,0.06
47.36,-0.497,1.088,-0.201
47.37,-0.065,1.115,-0.055
47.38,-0.084,0.92,0.069
47.39,-0.224,0.933,0.186
47.4,-0.207,0.762,-0.083
47.41,-0.364,1.281,-0.217
47.42,-0.189,0.834,0.126
47.43,-0.033,1.146,0.118
47.44,-0.211,0.606,0.006
47.45,-0.438,1.258,-0.119
47.46,-0.152,0.965,-0.06
47.47,-0.21,0.904,0.109
47.48,-0.096,0.965,0.151
47.49,-0.366,0.822,-0.195
47.5,-0.313,1.173,-0.1
47.51,0.019,0.918,0.104
47.52,-0.126,1.002,0.075
47.53,-0.278,0.71,0.033
47.54,-0.298,1.251,-0.235
47.55,-0.111,0.927,-0.03
47.56,-0.223,0.912,0.201
47.57,-0.073,0.997,0.08
47.58,-0.413,0.788,-0.224
47.59,-0.2,1.273,-0.014
47.6,-0.062,0.814,0.076
47.61,-0.226,0.939,0.133
47.62,-0.206,0.824,-0.042
47.63,-0.361,1.155,-0.246
47.64,-0.141,0.979,0.037
47.65,-0.025,0.886,0.139
47.66,-0.151,0.933,0.012
47.67,-0.407,0.852,-0.171
47.68,-0.14,1.349,-0.062
47.69,-0.117,0.694,0.065
47.7,-0.21,0.976,0.192
47.71,-0.259,0.92,-0.113
47.72,-0.296,0.971,-0.19
47.73,-0.162,1.104,0.172
47.74,-0.033,0.759,0.127
47.75,-0.324,0.99,0.015
47.76,-0.352,0.926,-0.145
47.77,-0.169,1.235,-0.016
47.78,-0.184,0.704,0.114
47.79,-0.064,0.958,0.141
47.8,-0.367,0.96,-0.236
47.81,-0.29,0.967,-0.068
47.82,-0.017,1.208,0.07
47.83,-0.135,0.621,0.114
47.84,-0.32,1.096,0.031
47.85,-0.289,0.935,-0.21
47.86,-0.175,1.117,-0.024
47.87,-0.116,0.837,0.191
47.88,-0.138,0.878,0.071
47.89,-0.433,1.032,-0.195
47.9,-0.11,0.968,-0.045
47.91,-0.121,1.151,0.055
47.92,-0.15,0.641,0.158
47.93,-0.31,1.171,-0.068
47.94,-0.301,0.861,-0.181
47.95,-0.138,1.192,0.115
47.96,-0.084,0.865,0.121
47.97,-0.202,0.815,0.006
47.98,-0.445,1.177,-0.156
47.99,-0.122,0.926,-0.022
48.0,-0.192,1.102,0.107
48.01,-0.106,0.698,0.154
48.02,-0.35,1.14,-0.176
48.03,-0.282,0.867,-0.124
48.04,-0.059,1.197,0.091
48.05,-0.096,0.834,0.107
48.06,-0.239,0.794,0.038
48.07,-0.428,1.255,-0.222
48.08,-0.063,0.81,0.006
48.09,-0.184,1.237,0.17
48.1,-0.161,0.641,0.128
48.11,-0.384,1.119,-0.2
48.12,-0.174,1.0,-0.06
48.13,-0.152,1.076,0.101
48.14,-0.114,0.828,0.089
48.15,-0.291,0.782,-0.055
48.16,-0.339,1.25,-0.179
48.17,-0.029,0.823,0.054
48.18,-0.181,1.134,0.145
48.19,-0.073,0.635,0.048
48.2,-0.472,1.197,-0.2
48.21,-0.115,1.03,-0.103
48.22,-0.029,0.874,0.071
48.23,-0.172,0.982,0.147
48.24,-0.276,0.783,-0.162
48.25,-0.22,1.125,-0.151
48.26,-0.018,0.968,0.129
48.27,-0.148,1.007,0.109
48.28,-0.221,0.682,0.012
48.29,-0.423,1.315,-0.26
48.3,-0.056,0.828,-0.022
48.31,-0.108,1.107,0.227
48.32,-0.22,0.856,0.062
48.33,-0.367,0.841,-0.158
48.34,-0.117,1.3,-0.054
48.35,-0.095,0.773,0.108
48.36,-0.182,1.068,0.19
48.37,-0.207,0.781,-0.091
48.38,-0.377,1.163,-0.192
48.39,-0.074,0.996,0.154
48.4,-0.225,0.999,0.13
