t,ax,ay,az
0.0,-0.17,1.146,0.172
0.01,-0.013,0.65,0.101
0.02,-0.483,1.188,-0.174
0.03,-0.189,0.871,-0.033
0.04,-0.132,1.153,0.04
0.05,-0.119,0.773,0.117
0.06,-0.281,0.917,0.032
0.07,-0.365,1.139,-0.239
0.08,-0.052,0.776,-0.016
0.09,-0.223,1.223,0.161
0.1,0.012,0.672,0.08
0.11,-0.49,1.157,-0.171
0.12,-0.257,0.886,-0.033
0.13,-0.007,1.156,0.057
0.14,-0.222,0.863,0.104
0.15,-0.244,0.808,-0.013
0.16,-0.344,1.291,-0.218
0.17,-0.152,0.781,0.021
0.18,-0.164,1.141,0.178
0.19,-0.008,0.733,0.06
0.2,-0.515,1.108,-0.182
0.21,-0.227,0.951,-0.004
0.22,-0.095,1.053,0.044
0.23,-0.151,0.893,0.109
0.24,-0.255,0.796,-0.022
0.25,-0.347,1.267,-0.218
0.26,-0.159,0.797,0.009
0.27,-0.115,1.129,0.195
0.28,-0.117,0.707,0.094
0.29,-0.472,1.069,-0.196
0.3,-0.087,1.085,-0.061
0.31,-0.164,0.921,0.085
0.32,-0.191,0.944,0.206
0.33,-0.235,0.8,-0.093
0.34,-0.316,1.241,-0.174
0.35,-0.229,0.847,0.102
0.36,-0.07,1.099,0.133
0.37,-0.094,0.759,0.053
0.38,-0.483,1.056,-0.167
0.39,-0.092,1.168,-0.095
0.4,-0.145,0.838,0.056
0.41,-0.173,0.989,0.174
0.42,-0.245,0.79,-0.086
0.43,-0.349,1.199,-0.225
0.44,-0.15,0.902,0.094
0.45,-0.12,1.034,0.152
0.46,-0.149,0.835,0.045
0.47,-0.44,0.968,-0.176
0.48,-0.118,1.174,-0.09
0.49,-0.13,0.802,0.078
0.5,-0.193,1.041,0.139
0.51,-0.197,0.773,-0.084
0.52,-0.34,1.163,-0.203
0.53,-0.174,0.936,0.101
0.54,-0.101,0.992,0.205
0.55,-0.192,0.898,0.06
0.56,-0.424,0.898,-0.171
0.57,-0.107,1.286,0.012
0.58,-0.143,0.804,0.063
0.59,-0.244,0.961,0.145
0.6,-0.14,0.841,-0.072
0.61,-0.305,1.13,-0.169
0.62,-0.266,0.994,0.089
0.63,-0.029,0.9,0.13
0.64,-0.161,0.947,-0.021
0.65,-0.386,0.881,-0.15
0.66,-0.136,1.302,-0.059
0.67,-0.129,0.767,0.092
0.68,-0.213,0.977,0.183
0.69,-0.194,0.812,-0.16
0.7,-0.321,1.116,-0.138
0.71,-0.133,0.967,0.127
0.72,-0.073,0.97,0.168
0.73,-0.297,0.886,0.012
0.74,-0.362,0.93,-0.105
0.75,-0.148,1.262,-0.082
0.76,-0.167,0.688,0.096
0.77,-0.165,1.032,0.162
0.78,-0.295,0.866,-0.153
0.79,-0.297,1.047,-0.104
0.8,-0.093,1.084,0.093
0.81,-0.081,0.847,0.126
0.82,-0.239,0.949,0.009
0.83,-0.354,0.948,-0.169
0.84,-0.156,1.271,-0.084
0.85,-0.166,0.649,0.095
0.86,-0.112,1.05,0.173
0.87,-0.301,0.955,-0.188
0.88,-0.344,0.883,-0.135
0.89,-0.055,1.145,0.118
0.9,-0.102,0.842,0.124
0.91,-0.374,0.973,0.026
0.92,-0.275,0.905,-0.136
0.93,-0.148,1.279,-0.085
0.94,-0.228,0.674,0.136
0.95,-0.041,1.026,0.171
0.96,-0.346,0.97,-0.16
0.97,-0.36,0.875,-0.1
0.98,-0.0,1.213,0.071
0.99,-0.136,0.735,0.123
1.0,-0.381,1.058,0.028
1.01,-0.289,0.887,-0.172
1.02,-0.17,1.184,-0.051
1.03,-0.156,0.777,0.132
1.04,-0.118,0.926,0.161
1.05,-0.336,1.043,-0.156
1.06,-0.296,0.869,-0.1
1.07,-0.066,1.275,0.085
1.08,-0.049,0.7,0.117
1.09,-0.341,1.048,0.021
1.1,-0.308,0.96,-0.129
1.11,-0.112,1.124,-0.074
1.12,-0.255,0.821,0.149
1.13,-0.101,0.859,0.202
1.14,-0.34,1.091,-0.206
1.15,-0.291,0.784,-0.094
1.16,-0.055,1.324,0.07
1.17,-0.024,0.654,0.094
1.18,-0.359,1.02,0.017
1.19,-0.285,0.975,-0.189
1.2,-0.138,1.099,-0.068
1.21,-0.225,0.925,0.128
1.22,-0.042,0.782,0.137
1.23,-0.405,1.163,-0.181
1.24,-0.342,0.776,-0.067
1.25,0.013,1.297,0.064
1.26,-0.051,0.669,0.083
1.27,-0.365,0.988,0.017
1.28,-0.239,1.026,-0.193
1.29,-0.087,0.973,-0.092
1.3,-0.272,1.007,0.183
1.31,-0.029,0.77,0.107
1.32,-0.455,1.144,-0.16
1.33,-0.327,0.772,-0.041
1.34,0.044,1.329,0.032
1.35,-0.119,0.694,0.103
1.36,-0.354,0.893,0.013
1.37,-0.265,1.136,-0.191
1.38,-0.112,0.927,-0.048
1.39,-0.232,1.062,0.174
1.4,-0.047,0.724,0.091
1.41,-0.473,1.163,-0.188
1.42,-0.324,0.844,-0.012
1.43,-0.051,1.24,0.05
1.44,-0.122,0.734,0.147
1.45,-0.314,0.882,0.003
1.46,-0.3,1.182,-0.182
1.47,-0.076,0.825,-0.04
1.48,-0.283,1.095,0.236
1.49,-0.057,0.73,0.082
1.5,-0.456,1.139,-0.231
1.51,-0.102,0.857,-0.029
1.52,-0.096,1.254,0.069
1.53,-0.19,0.662,0.187
1.54,-0.259,0.988,-0.026
1.55,-0.244,1.139,-0.226
1.56,-0.158,0.898,0.015
1.57,-0.068,1.084,0.126
1.58,-0.166,0.661,0.087
1.59,-0.515,1.197,-0.18
1.6,-0.098,0.882,-0.035
1.61,-0.141,1.189,0.082
1.62,-0.172,0.676,0.185
1.63,-0.252,0.969,-0.005
1.64,-0.273,1.209,-0.233
1.65,-0.166,0.841,0.009
1.66,-0.121,1.136,0.19
1.67,-0.089,0.685,0.061
1.68,-0.552,1.191,-0.171
1.69,-0.136,0.891,0.003
1.7,-0.113,1.153,0.069
1.71,-0.213,0.76,0.167
1.72,-0.185,0.886,-0.057
1.73,-0.307,1.211,-0.214
1.74,-0.191,0.84,0.047
1.75,-0.091,1.17,0.172
1.76,-0.124,0.654,0.071
1.77,-0.501,1.212,-0.158
1.78,-0.116,1.0,-0.074
1.79,-0.09,1.006,0.032
1.8,-0.211,0.886,0.17
1.81,-0.18,0.841,-0.077
1.82,-0.364,1.227,-0.17
1.83,-0.216,0.835,0.071
1.84,-0.076,1.176,0.132
1.85,-0.167,0.67,0.03
1.86,-0.473,1.07,-0.133
1.87,-0.094,1.065,-0.101
1.88,-0.066,0.916,0.054
1.89,-0.189,0.998,0.171
1.9,-0.225,0.775,-0.105
1.91,-0.323,1.204,-0.198
1.92,-0.253,1.077,0.065
1.93,-0.427,0.899,-0.171
1.94,-0.154,1.169,-0.062
1.95,-0.124,0.809,0.087
1.96,-0.107,0.958,0.164
1.97,-0.363,1.025,-0.155
1.98,-0.257,0.894,-0.094
1.99,-0.115,1.231,0.055
2.0,-0.042,0.695,0.156
2.01,-0.285,1.064,0.02
2.02,-0.376,0.923,-0.155
2.03,-0.151,1.157,-0.097
2.04,-0.181,0.808,0.105
2.05,-0.101,0.861,0.198
2.06,-0.369,1.099,-0.142
2.07,-0.276,0.826,-0.141
2.08,-0.111,1.247,0.086
2.09,-0.063,0.67,0.131
2.1,-0.251,1.055,-0.007
2.11,-0.266,0.961,-0.234
2.12,-0.115,1.053,-0.063
2.13,-0.153,0.883,0.136
2.14,-0.026,0.808,0.142
2.15,-0.451,1.166,-0.136
2.16,-0.219,0.776,-0.091
2.17,-0.227,1.299,0.055
2.18,-0.039,0.67,0.139
2.19,-0.213,1.022,0.008
2.2,-0.36,1.014,-0.198
2.21,-0.102,1.015,-0.031
2.22,-0.21,1.003,0.144
2.23,-0.105,0.717,0.157
2.24,-0.385,1.181,-0.176
2.25,-0.235,0.79,-0.082
2.26,-0.157,1.262,0.06
2.27,-0.098,0.605,0.157
2.28,-0.338,1.108,-0.003
2.29,-0.321,0.907,-0.207
2.3,-0.074,1.057,-0.003
2.31,-0.136,0.946,0.113
2.32,-0.054,0.781,0.12
2.33,-0.427,1.134,-0.171
2.34,-0.214,0.832,-0.066
2.35,-0.132,1.288,0.076
2.36,-0.095,0.608,0.128
2.37,-0.31,1.089,-0.024
2.38,-0.34,0.966,-0.195
2.39,-0.066,0.949,0.008
2.4,-0.136,1.013,0.155
2.41,-0.061,0.758,0.069
2.42,-0.433,1.174,-0.172
2.43,-0.215,0.833,-0.051
2.44,-0.104,1.295,0.066
2.45,-0.102,0.67,0.161
2.46,-0.296,0.996,0.001
2.47,-0.335,1.043,-0.208
2.48,-0.034,0.937,-0.001
2.49,-0.198,1.123,0.134
2.5,-0.007,0.695,0.058
2.51,-0.456,1.198,-0.187
2.52,-0.198,0.833,-0.042
2.53,-0.033,1.259,0.079
2.54,-0.146,0.73,0.107
2.55,-0.312,0.937,0.012
2.56,-0.337,1.135,-0.186
2.57,-0.161,0.866,0.036
2.58,-0.108,1.175,0.158
2.59,-0.054,0.692,0.041
2.6,-0.507,1.198,-0.149
2.61,-0.108,0.854,-0.07
2.62,-0.106,1.129,0.052
2.63,-0.086,0.781,0.141
2.64,-0.334,0.907,-0.003
2.65,-0.301,1.178,-0.216
2.66,-0.156,0.876,0.032
2.67,-0.194,1.159,0.162
2.68,-0.089,0.641,0.039
2.69,-0.458,1.193,-0.175
2.7,-0.151,0.981,-0.05
2.71,-0.08,1.058,0.078
2.72,-0.11,0.832,0.146
2.73,-0.285,0.817,-0.017
2.74,-0.358,1.206,-0.201
2.75,-0.161,0.799,0.039
2.76,-0.138,1.18,0.116
2.77,-0.086,0.666,0.001
2.78,-0.486,1.157,-0.16
2.79,-0.086,1.011,-0.092
2.8,-0.101,0.946,0.148
2.81,-0.193,0.935,0.158
2.82,-0.247,0.781,-0.065
2.83,-0.393,1.197,-0.167
2.84,-0.097,0.88,0.081
2.85,-0.142,1.163,0.111
2.86,-0.182,0.707,0.05
2.87,-0.402,1.102,-0.157
2.88,-0.213,1.139,-0.02
2.89,-0.164,0.816,0.124
2.9,-0.123,1.001,0.134
2.91,-0.254,0.759,-0.093
2.92,-0.352,1.218,-0.143
2.93,-0.126,0.878,0.077
2.94,-0.127,1.08,0.125
2.95,-0.162,0.722,0.005
2.96,-0.393,1.043,-0.103
2.97,-0.167,1.165,-0.05
2.98,-0.106,0.778,0.069
2.99,-0.156,1.019,0.215
3.0,-0.314,0.82,-0.136
3.01,-0.308,1.148,-0.168
3.02,-0.068,0.939,0.052
3.03,-0.157,0.996,0.141
3.04,-0.162,0.821,0.048
3.05,-0.395,0.982,-0.143
3.06,-0.206,1.207,-0.067
3.07,-0.159,0.808,0.134
3.08,-0.186,1.015,0.149
3.09,-0.342,0.759,-0.161
3.1,-0.237,1.17,-0.154
3.11,-0.101,0.979,0.088
3.12,-0.152,0.985,0.108
3.13,-0.156,0.802,0.007
3.14,-0.395,1.14,-0.148
3.15,-0.218,1.081,-0.022
3.16,-0.125,0.755,0.147
3.17,-0.165,1.077,0.128
3.18,-0.356,0.747,-0.192
3.19,-0.245,1.156,-0.126
3.2,-0.053,1.013,0.04
3.21,-0.137,0.862,0.119
3.22,-0.199,0.886,0.054
3.23,-0.353,1.047,-0.179
3.24,-0.2,1.114,-0.015
3.25,-0.152,0.735,0.207
3.26,-0.109,1.116,0.135
3.27,-0.356,0.796,-0.166
3.28,-0.294,1.144,-0.069
3.29,-0.135,1.024,0.068
3.3,-0.101,0.808,0.124
3.31,-0.228,1.006,0.028
3.32,-0.316,0.973,-0.169
3.33,-0.174,1.134,-0.017
3.34,-0.13,0.768,0.176
3.35,-0.181,1.07,0.155
3.36,-0.334,0.808,-0.207
3.37,-0.286,1.112,-0.066
3.38,-0.013,1.096,-0.004
3.39,-0.081,0.72,0.104
3.4,-0.272,1.031,0.037
3.41,-0.233,0.943,-0.225
3.42,-0.206,1.148,0.005
3.43,-0.213,0.755,0.18
3.44,-0.104,1.022,0.105
3.45,-0.348,0.898,-0.18
3.46,-0.256,0.998,-0.098
3.47,-0.078,1.151,0.048
3.48,-0.101,0.698,0.136
3.49,-0.345,1.082,0.028
3.5,-0.262,0.93,-0.214
3.51,-0.177,1.159,-0.046
3.52,-0.211,0.753,0.179
3.53,-0.05,0.974,0.106
3.54,-0.407,0.955,-0.187
3.55,-0.311,0.914,-0.01
3.56,-0.073,1.225,0.059
3.57,-0.114,0.627,0.133
3.58,-0.353,1.1,0.042
3.59,-0.267,0.928,-0.216
3.6,-0.161,1.146,-0.028
3.61,-0.196,0.839,0.18
3.62,-0.063,0.916,0.109
3.63,-0.307,1.016,-0.205
3.64,-0.228,0.896,-0.048
3.65,-0.117,1.254,0.051
3.66,-0.07,0.619,0.161
3.67,-0.301,1.093,-0.029
3.68,-0.385,0.93,-0.204
3.69,-0.12,1.024,-0.054
3.7,-0.167,0.942,0.169
3.71,-0.132,0.865,0.15
3.72,-0.413,1.07,-0.167
3.73,-0.195,0.822,-0.048
3.74,-0.125,1.292,0.032
3.75,-0.067,0.623,0.135
3.76,-0.344,1.073,-0.011
3.77,-0.307,0.983,-0.224
3.78,-0.078,1.018,-0.051
3.79,-0.242,0.959,0.151
3.8,-0.06,0.769,0.122
3.81,-0.424,1.139,-0.196
3.82,-0.197,0.766,-0.082
3.83,-0.041,1.338,0.053
3.84,-0.067,0.623,0.063
3.85,-0.373,1.001,0.03
3.86,-0.246,1.058,-0.192
3.87,-0.18,0.964,-0.055
3.88,-0.164,1.02,0.21
3.89,-0.154,0.845,0.083
3.9,-0.429,1.081,-0.155
3.91,-0.095,0.915,-0.07
3.92,-0.139,1.184,0.047
3.93,-0.145,0.61,0.184
3.94,-0.292,1.139,-0.031
3.95,-0.305,0.918,-0.243
3.96,-0.14,1.033,0.0
3.97,-0.178,0.977,0.189
3.98,-0.051,0.748,0.069
3.99,-0.516,1.179,-0.148
4.0,-0.21,0.825,-0.031
4.01,-0.057,1.231,0.034
4.02,-0.166,0.6,0.162
4.03,-0.258,1.079,-0.047
4.04,-0.248,0.988,-0.22
4.05,-0.211,0.942,0.046
4.06,-0.118,1.073,0.162
4.07,-0.036,0.732,0.057
4.08,-0.522,1.142,-0.173
4.09,-0.174,0.852,0.019
4.1,-0.168,1.274,0.002
4.11,-0.08,0.608,0.133
4.12,-0.272,1.028,0.042
4.13,-0.319,1.124,-0.213
4.14,-0.185,0.898,-0.024
4.15,-0.182,1.116,0.183
4.16,-0.021,0.682,0.063
4.17,-0.533,1.173,-0.183
4.18,-0.148,0.813,-0.036
4.19,-0.092,1.24,0.067
4.2,-0.24,0.713,0.176
4.21,-0.245,0.925,0.007
4.22,-0.283,1.215,-0.209
4.23,-0.144,0.83,-0.006
4.24,-0.137,1.157,0.143
4.25,-0.034,0.703,0.04
4.26,-0.515,1.153,-0.167
4.27,-0.177,0.89,-0.031
4.28,-0.125,1.188,0.032
4.29,-0.138,0.781,0.132
4.3,-0.26,0.875,0.052
4.31,-0.355,1.222,-0.229
4.32,-0.104,0.779,0.002
4.33,-0.111,1.209,0.186
4.34,-0.136,0.657,0.055
4.35,-0.458,1.097,-0.178
4.36,-0.075,1.01,-0.065
4.37,-0.205,1.068,0.067
4.38,-0.131,0.84,0.164
4.39,-0.236,0.813,-0.014
4.4,-0.361,1.259,-0.174
4.41,-0.086,0.789,-0.024
4.42,-0.136,1.144,0.178
4.43,-0.122,0.726,0.106
4.44,-0.495,1.094,-0.191
4.45,-0.086,1.054,-0.068
4.46,-0.178,1.018,0.042
4.47,-0.155,0.869,0.165
4.48,-0.129,0.776,-0.017
4.49,-0.419,1.296,-0.201
4.5,-0.159,0.779,0.012
4.51,-0.117,1.211,0.169
4.52,-0.137,0.706,0.079
4.53,-0.466,0.976,-0.131
4.54,-0.025,1.149,-0.108
4.55,-0.204,0.932,0.069
4.56,-0.169,0.927,0.181
4.57,-0.167,0.789,-0.017
4.58,-0.455,1.279,-0.17
4.59,-0.1,0.808,0.017
4.6,-0.123,1.157,0.125
4.61,-0.21,0.789,0.101
4.62,-0.391,0.963,-0.128
4.63,-0.167,1.189,-0.082
4.64,-0.117,0.896,0.08
4.65,-0.201,1.009,0.159
4.66,-0.221,0.696,-0.023
4.67,-0.4,1.25,-0.175
4.68,-0.08,0.852,-0.008
4.69,-0.098,1.023,0.1
4.7,-0.127,0.701,0.072
4.71,-0.379,1.039,-0.166
4.72,-0.203,1.097,-0.065
4.73,-0.09,0.92,0.085
4.74,-0.125,0.964,0.133
4.75,-0.275,0.784,-0.027
4.76,-0.385,1.261,-0.159
4.77,-0.122,0.84,0.003
4.78,-0.104,1.085,0.155
4.79,-0.156,0.84,0.073
4.8,-0.415,0.953,-0.122
4.81,-0.164,1.154,-0.105
4.82,-0.035,0.876,0.02
4.83,-0.177,0.998,0.132
4.84,-0.244,0.75,-0.032
4.85,-0.331,1.237,-0.205
4.86,-0.098,0.886,-0.015
4.87,-0.116,1.023,0.169
4.88,-0.103,0.87,0.025
4.89,-0.398,0.877,-0.132
4.9,-0.221,1.221,-0.064
4.91,-0.057,0.858,0.028
4.92,-0.13,0.995,0.164
4.93,-0.255,0.745,0.008
4.94,-0.318,1.236,-0.216
4.95,-0.116,0.935,-0.051
4.96,-0.167,0.913,0.187
4.97,-0.108,0.956,0.054
4.98,-0.436,0.852,-0.2
4.99,-0.139,1.239,-0.096
5.0,-0.155,0.829,0.069
5.01,-0.146,0.958,0.172
5.02,-0.242,0.821,-0.01
5.03,-0.319,1.123,-0.252
5.04,-0.142,0.931,-0.01
5.05,-0.146,0.919,0.182
5.06,-0.131,1.012,0.048
5.07,-0.358,0.78,-0.188
5.08,-0.184,1.261,-0.051
5.09,-0.103,0.91,0.054
5.1,-0.126,0.939,0.189
5.11,-0.233,0.822,-0.009
5.12,-0.329,1.089,-0.204
5.13,-0.117,1.097,-0.027
5.14,-0.178,0.812,0.139
5.15,-0.098,1.041,0.084
5.16,-0.356,0.795,-0.197
5.17,-0.228,1.182,-0.048
5.18,-0.07,0.91,0.045
5.19,-0.069,0.893,0.154
5.2,-0.352,0.941,0.013
5.21,-0.28,1.001,-0.237
5.22,-0.126,1.096,-0.072
5.23,-0.141,0.776,0.166
5.24,-0.088,1.07,0.085
5.25,-0.35,0.793,-0.181
5.26,-0.253,1.178,-0.028
5.27,-0.104,0.981,0.064
5.28,-0.153,0.799,0.171
5.29,-0.271,1.014,0.011
5.3,-0.316,0.98,-0.195
5.31,-0.211,1.084,-0.034
5.32,-0.132,0.761,0.169
5.33,-0.101,1.088,0.051
5.34,-0.376,0.812,-0.157
5.35,-0.216,1.093,-0.078
5.36,-0.069,1.037,0.02
5.37,-0.141,0.734,0.143
5.38,-0.279,1.058,0.036
5.39,-0.34,0.948,-0.191
5.4,-0.141,1.167,-0.022
5.41,-0.154,0.751,0.157
5.42,-0.121,1.032,0.116
5.43,-0.361,0.877,-0.163
5.44,-0.272,0.995,-0.084
5.45,-0.093,1.138,0.034
5.46,-0.121,0.701,0.118
5.47,-0.308,1.025,-0.022
5.48,-0.232,0.918,-0.19
5.49,-0.141,1.231,-0.008
5.5,-0.214,0.715,0.144
5.51,-0.081,0.982,0.13
5.52,-0.33,0.871,-0.186
5.53,-0.255,1.106,-0.064
5.54,-0.055,1.007,0.057
5.55,-0.146,0.761,0.148
5.56,-0.341,1.06,0.029
5.57,-0.275,0.934,-0.196
5.58,-0.143,1.158,-0.041
5.59,-0.187,0.778,0.202
5.6,-0.072,1.038,0.077
5.61,-0.362,0.845,-0.211
5.62,-0.243,1.011,-0.033
5.63,-0.084,1.111,0.04
5.64,-0.117,0.674,0.14
5.65,-0.286,1.102,0.029
5.66,-0.262,0.905,-0.227
5.67,-0.198,1.152,-0.036
5.68,-0.12,0.77,0.159
5.69,-0.108,0.979,0.06
5.7,-0.338,0.926,-0.182
5.71,-0.217,0.977,-0.068
5.72,-0.083,1.137,0.035
5.73,-0.118,0.638,0.166
5.74,-0.307,1.123,0.031
5.75,-0.278,0.905,-0.183
5.76,-0.163,1.125,-0.03
5.77,-0.153,0.826,0.144
5.78,-0.107,0.967,0.125
5.79,-0.333,0.952,-0.188
5.8,-0.238,0.875,-0.064
5.81,-0.082,1.268,0.042
5.82,-0.107,0.655,0.138
5.83,-0.288,1.071,0.02
5.84,-0.366,0.931,-0.172
5.85,-0.128,1.123,-0.029
5.86,-0.177,0.846,0.117
5.87,-0.156,0.855,0.16
5.88,-0.342,1.06,-0.148
5.89,-0.217,0.838,-0.106
5.9,-0.164,1.288,0.089
5.91,-0.045,0.671,0.146
5.92,-0.319,1.071,0.042
5.93,-0.351,0.949,-0.158
5.94,-0.117,1.076,-0.091
5.95,-0.245,0.911,0.13
5.96,-0.074,0.803,0.176
5.97,-0.381,1.114,-0.143
5.98,-0.332,0.788,-0.09
5.99,0.0,1.328,0.041
6.0,-0.057,0.679,0.127
6.01,-0.379,0.993,0.08
6.02,-0.281,0.993,-0.204
6.03,-0.158,0.978,-0.068
6.04,-0.199,1.007,0.151
6.05,-0.092,0.781,0.17
6.06,-0.397,1.16,-0.138
6.07,-0.257,0.742,-0.125
6.08,-0.156,1.274,0.058
6.09,-0.033,0.797,0.106
6.1,-0.236,0.936,0.053
6.11,-0.426,1.021,-0.179
6.12,-0.101,0.949,-0.073
6.13,-0.211,1.057,0.075
6.14,-0.11,0.695,0.197
6.15,-0.372,1.216,-0.088
6.16,-0.216,0.741,-0.16
6.17,-0.19,1.194,0.061
6.18,-0.043,0.877,0.142
6.19,-0.218,0.871,0.006
6.2,-0.408,1.068,-0.158
6.21,-0.125,0.919,-0.076
6.22,-0.11,1.159,0.076
6.23,-0.131,0.63,0.189
6.24,-0.372,1.19,-0.067
6.25,-0.225,0.84,-0.174
6.26,-0.159,1.122,0.033
6.27,-0.046,0.939,0.141
6.28,-0.092,0.784,0.022
6.29,-0.444,1.158,-0.17
6.3,-0.055,0.881,-0.061
6.31,-0.199,1.237,0.101
6.32,-0.164,0.622,0.193
6.33,-0.336,1.212,-0.108
6.34,-0.317,0.769,-0.132
6.35,-0.207,1.204,0.071
6.36,-0.039,0.864,0.135
6.37,-0.159,0.856,0.021
6.38,-0.4,1.036,-0.174
6.39,-0.074,0.924,-0.077
6.4,-0.174,1.158,0.086
6.41,-0.133,0.616,0.208
6.42,-0.304,1.208,-0.105
6.43,-0.259,0.823,-0.166
6.44,-0.243,1.134,0.09
6.45,0.015,0.923,0.092
6.46,-0.151,0.829,0.064
6.47,-0.388,1.148,-0.175
6.48,-0.15,0.852,-0.042
6.49,-0.112,1.183,0.037
6.5,-0.153,0.652,0.205
6.51,-0.35,1.125,-0.05
6.52,-0.296,0.893,-0.16
6.53,-0.15,1.079,0.011
6.54,-0.136,0.988,0.183
6.55,-0.135,0.732,0.089
6.56,-0.449,1.161,-0.188
6.57,-0.153,0.837,-0.009
6.58,-0.139,1.276,0.034
6.59,-0.115,0.646,0.131
6.6,-0.336,1.072,-0.015
6.61,-0.256,0.998,-0.199
6.62,-0.182,0.993,-0.006
6.63,-0.144,1.016,0.175
6.64,-0.037,0.716,0.064
6.65,-0.492,1.165,-0.187
6.66,-0.136,0.879,-0.005
6.67,-0.181,1.305,0.05
6.68,-0.13,0.589,0.149
6.69,-0.281,1.038,0.061
6.7,-0.302,1.125,-0.235
6.71,-0.175,0.851,-0.072
6.72,-0.129,1.13,0.186
6.73,-0.113,0.736,0.119
6.74,-0.443,1.164,-0.178
6.75,-0.17,0.817,-0.054
6.76,-0.142,1.272,0.036
6.77,-0.087,0.728,0.148
6.78,-0.267,0.876,-0.027
6.79,-0.331,1.183,-0.177
6.8,-0.128,0.878,-0.021
6.81,-0.278,1.098,0.126
6.82,-0.037,0.702,0.138
6.83,-0.401,1.181,-0.222
6.84,-0.254,0.803,-0.068
6.85,-0.039,1.219,0.041
6.86,-0.085,0.861,0.146
6.87,-0.326,0.792,0.038
6.88,-0.334,1.193,-0.168
6.89,-0.111,0.862,-0.012
6.9,-0.284,1.121,0.136
6.91,0.007,0.698,0.126
6.92,-0.433,1.152,-0.171
6.93,-0.216,0.876,-0.103
6.94,-0.043,1.194,0.019
6.95,-0.034,0.923,0.129
6.96,-0.283,0.758,0.032
6.97,-0.359,1.228,-0.165
6.98,-0.131,0.826,-0.041
6.99,-0.159,1.173,0.097
7.0,-0.093,0.709,0.157
7.01,-0.39,1.06,-0.143
7.02,-0.29,0.902,-0.139
7.03,-0.12,1.058,0.049
7.04,-0.105,1.053,0.149
7.05,-0.169,0.661,0.014
7.06,-0.432,1.281,-0.154
7.07,-0.068,0.902,-0.08
7.08,-0.168,1.115,0.059
7.09,-0.128,0.72,0.188
7.1,-0.323,1.036,-0.12
7.11,-0.3,1.029,-0.147
7.12,-0.174,0.932,0.074
7.13,-0.091,1.143,0.124
7.14,-0.135,0.623,0.059
7.15,-0.408,1.265,-0.153
7.16,-0.054,0.917,-0.118
7.17,-0.23,1.083,0.064
7.18,-0.09,0.717,0.205
7.19,-0.363,1.142,-0.145
7.2,-0.267,0.871,-0.178
7.21,-0.175,1.034,0.12
7.22,-0.043,1.099,0.107
7.23,-0.155,0.648,-0.015
7.24,-0.478,1.25,-0.149
7.25,-0.024,0.88,-0.115
7.26,-0.143,1.125,0.028
7.27,-0.088,0.728,0.185
7.28,-0.337,1.053,-0.099
7.29,-0.278,0.969,-0.198
7.3,-0.18,0.96,0.1
7.31,-0.06,1.137,0.098
7.32,-0.198,0.638,0.051
7.33,-0.408,1.219,-0.176
7.34,-0.019,0.955,-0.102
7.35,-0.26,1.074,0.091
7.36,-0.084,0.704,0.186
7.37,-0.32,1.002,-0.089
7.38,-0.292,1.085,-0.186
7.39,-0.188,0.884,0.079
7.4,-0.068,1.205,0.128
7.41,-0.115,0.634,0.048
7.42,-0.441,1.171,-0.198
7.43,-0.03,0.94,-0.078
7.44,-0.145,1.086,0.047
7.45,-0.139,0.821,0.153
7.46,-0.277,0.894,-0.048
7.47,-0.34,1.158,-0.154
7.48,-0.21,0.85,0.064
7.49,-0.106,1.184,0.125
7.5,-0.139,0.626,0.04
7.51,-0.448,1.101,-0.169
7.52,-0.087,0.991,-0.087
7.53,-0.132,1.011,0.071
7.54,-0.162,0.874,0.17
7.55,-0.274,0.855,-0.017
7.56,-0.35,1.207,-0.2
7.57,-0.188,0.786,-0.0
7.58,-0.105,1.203,0.157
7.59,-0.094,0.74,0.049
7.6,-0.491,1.038,-0.139
7.61,-0.182,1.017,-0.065
7.62,-0.1,1.042,0.05
7.63,-0.124,0.904,0.153
7.64,-0.221,0.77,-0.018
7.65,-0.396,1.273,-0.159
7.66,-0.12,0.807,-0.005
7.67,-0.196,1.126,0.127
7.68,-0.078,0.784,0.113
7.69,-0.452,0.98,-0.149
7.7,-0.198,1.03,-0.086
7.71,-0.045,1.008,0.056
7.72,-0.101,0.981,0.123
7.73,-0.275,0.728,-0.006
7.74,-0.33,1.33,-0.141
7.75,-0.165,0.858,-0.067
7.76,-0.194,0.969,0.141
7.77,-0.045,0.876,0.127
7.78,-0.474,0.943,-0.17
7.79,-0.264,1.066,-0.109
7.8,-0.04,1.006,0.048
7.81,-0.174,0.995,0.148
7.82,-0.252,0.697,0.021
7.83,-0.296,1.282,-0.178
7.84,-0.146,0.878,-0.052
7.85,-0.213,0.971,0.175
7.86,-0.048,0.922,0.099
7.87,-0.435,0.866,-0.177
7.88,-0.277,1.134,-0.08
7.89,-0.014,0.956,-0.022
7.9,-0.177,1.003,0.149
7.91,-0.216,0.721,0.054
7.92,-0.356,1.256,-0.188
7.93,-0.164,0.906,-0.078
7.94,-0.213,0.908,0.189
7.95,-0.014,1.0,0.115
7.96,-0.416,0.879,-0.18
7.97,-0.223,1.103,-0.095
7.98,-0.075,0.965,0.04
7.99,-0.181,1.033,0.174
8.0,-0.166,0.705,0.003
8.01,-0.419,1.311,-0.179
8.02,-0.12,0.869,-0.043
8.03,-0.149,0.994,0.124
8.04,-0.153,0.876,0.164
8.05,-0.399,0.889,-0.153
8.06,-0.28,1.096,-0.119
8.07,-0.147,0.937,0.105
8.08,-0.086,1.082,0.103
8.09,-0.177,0.684,0.024
8.1,-0.462,1.22,-0.126
8.11,-0.082,0.968,-0.1
8.12,-0.171,0.91,0.064
8.13,-0.08,0.969,0.201
8.14,-0.366,0.819,-0.167
8.15,-0.312,1.129,-0.089
8.16,-0.072,0.962,0.072
8.17,-0.073,1.058,0.113
8.18,-0.201,0.703,0.043
8.19,-0.365,1.212,-0.149
8.2,-0.195,1.028,-0.073
8.21,-0.148,0.823,0.062
8.22,-0.049,1.011,0.166
8.23,-0.353,0.818,-0.121
8.24,-0.297,1.104,-0.147
8.25,-0.139,0.923,0.098
8.26,-0.079,1.07,0.107
8.27,-0.141,0.735,0.013
8.28,-0.373,1.11,-0.118
8.29,-0.15,1.166,-0.116
8.3,-0.154,0.795,0.09
8.31,-0.154,1.042,0.204
8.32,-0.291,0.804,-0.137
8.33,-0.334,1.14,-0.147
8.34,-0.123,0.941,0.06
8.35,-0.124,1.071,0.112
8.36,-0.094,0.805,0.018
8.37,-0.47,0.996,-0.109
8.38,-0.113,1.198,-0.07
8.39,-0.155,0.837,0.037
8.4,-0.142,0.955,0.173
8.41,-0.235,0.814,-0.042
8.42,-0.306,1.215,-0.218
8.43,-0.173,0.887,0.032
8.44,-0.11,1.021,0.207
8.45,-0.134,0.891,0.025
8.46,-0.478,0.838,-0.162
8.47,-0.039,1.284,-0.057
8.48,-0.18,0.879,0.032
8.49,-0.152,0.907,0.194
8.5,-0.239,0.833,-0.007
8.51,-0.29,1.225,-0.247
8.52,-0.087,0.892,-0.046
8.53,-0.169,0.94,0.221
8.54,-0.075,0.976,0.064
8.55,-0.46,0.815,-0.205
8.56,-0.138,1.219,-0.013
8.57,-0.102,0.895,0.058
8.58,-0.173,0.902,0.159
8.59,-0.205,0.828,0.009
8.6,-0.241,1.173,-0.198
8.61,-0.146,1.008,-0.053
8.62,-0.186,0.834,0.161
8.63,-0.042,1.028,0.087
8.64,-0.482,0.806,-0.197
8.65,-0.259,1.161,-0.071
8.66,0.031,0.977,0.039
8.67,-0.199,0.934,0.123
8.68,-0.264,0.814,0.006
8.69,-0.255,1.098,-0.158
8.7,-0.158,1.069,-0.072
8.71,-0.189,0.74,0.182
8.72,-0.031,1.1,0.12
8.73,-0.398,0.811,-0.184
8.74,-0.344,1.092,-0.08
8.75,-0.038,0.985,0.072
8.76,-0.102,0.921,0.124
8.77,-0.331,0.906,0.014
8.78,-0.285,1.156,-0.194
8.79,-0.133,0.996,-0.093
8.8,-0.184,0.831,0.185
8.81,-0.06,1.041,0.134
8.82,-0.383,0.833,-0.197
8.83,-0.283,1.139,-0.069
8.84,-0.09,0.946,0.068
8.85,-0.127,0.977,0.168
8.86,-0.243,0.818,0.008
8.87,-0.333,1.125,-0.139
8.88,-0.175,1.08,-0.049
8.89,-0.237,0.744,0.117
8.9,0.019,1.078,0.133
8.91,-0.353,0.795,-0.182
8.92,-0.366,1.106,-0.049
8.93,0.027,0.987,0.022
8.94,-0.105,0.948,0.115
8.95,-0.288,0.854,0.049
8.96,-0.344,1.052,-0.119
8.97,-0.133,1.192,-0.06
8.98,-0.186,0.717,0.115
8.99,-0.046,1.056,0.172
9.0,-0.308,0.833,-0.159
9.01,-0.304,1.045,-0.14
9.02,-0.082,1.046,0.12
9.03,-0.088,0.923,0.15
9.04,-0.322,0.915,0.008
9.05,-0.298,0.969,-0.179
9.06,-0.123,1.242,-0.055
9.07,-0.151,0.732,0.08
9.08,-0.112,1.06,0.2
9.09,-0.301,0.87,-0.186
9.1,-0.224,1.004,-0.155
9.11,-0.181,1.093,0.063
9.12,-0.084,0.849,0.14
9.13,-0.271,0.966,0.022
9.14,-0.369,0.915,-0.122
9.15,-0.191,1.264,-0.03
9.16,-0.178,0.738,0.085
9.17,-0.158,0.972,0.209
9.18,-0.262,0.92,-0.127
9.19,-0.279,0.938,-0.205
9.2,-0.226,1.043,0.081
9.21,0.058,0.885,0.071
9.22,-0.233,0.978,0.023
9.23,-0.429,0.833,-0.087
9.24,-0.125,1.329,-0.075
9.25,-0.208,0.716,0.031
9.26,-0.097,0.889,0.228
9.27,-0.296,1.047,-0.113
9.28,-0.323,0.911,-0.193
9.29,-0.1,1.104,0.023
9.3,-0.081,0.87,0.169
9.31,-0.196,1.016,0.063
9.32,-0.392,0.833,-0.155
9.33,-0.193,1.255,-0.04
9.34,-0.161,0.835,0.05
9.35,-0.161,0.856,0.187
9.36,-0.293,1.051,-0.055
9.37,-0.309,0.884,-0.18
9.38,-0.143,1.146,0.054
9.39,-0.118,0.837,0.196
9.4,-0.147,1.027,0.064
9.41,-0.391,0.823,-0.16
9.42,-0.172,1.19,-0.023
9.43,-0.135,0.962,0.074
9.44,-0.209,0.764,0.14
9.45,-0.306,1.072,-0.002
9.46,-0.267,0.911,-0.214
9.47,-0.165,1.137,-0.035
9.48,-0.017,0.763,0.161
9.49,-0.11,1.031,0.06
9.5,-0.406,0.865,-0.181
9.51,-0.129,1.127,-0.087
9.52,-0.096,0.981,0.06
9.53,-0.127,0.727,0.185
9.54,-0.28,1.163,-0.018
9.55,-0.319,0.852,-0.218
9.56,-0.264,1.114,0.003
9.57,-0.073,0.827,0.18
9.58,-0.137,1.05,0.067
9.59,-0.383,0.864,-0.158
9.6,-0.184,1.15,-0.062
9.61,-0.098,0.93,0.034
9.62,-0.09,0.746,0.166
9.63,-0.287,1.046,-0.023
9.64,-0.293,0.918,-0.205
9.65,-0.181,1.152,-0.02
9.66,-0.076,0.788,0.175
9.67,-0.159,1.037,0.045
9.68,-0.395,0.802,-0.155
9.69,-0.201,1.146,0.014
9.7,-0.043,1.039,0.036
9.71,-0.145,0.704,0.158
9.72,-0.311,1.073,0.029
9.73,-0.234,0.912,-0.21
9.74,-0.173,1.181,-0.017
9.75,-0.179,0.747,0.15
9.76,-0.118,1.03,0.101
9.77,-0.389,0.898,-0.167
9.78,-0.23,0.997,-0.039
9.79,-0.061,1.134,0.081
9.8,-0.118,0.678,0.14
9.81,-0.318,1.131,-0.026
9.82,-0.232,0.923,-0.213
9.83,-0.157,1.156,-0.063
9.84,-0.171,0.76,0.219
9.85,-0.117,1.004,0.096
9.86,-0.393,0.928,-0.229
9.87,-0.22,0.934,0.02
9.88,-0.109,1.195,0.057
9.89,-0.08,0.608,0.129
9.9,-0.359,1.145,0.022
9.91,-0.224,0.87,-0.206
9.92,-0.241,1.121,-0.032
9.93,-0.092,0.852,0.126
9.94,-0.072,0.971,0.082
9.95,-0.382,1.001,-0.194
9.96,-0.222,0.906,-0.058
9.97,-0.072,1.283,0.031
9.98,-0.143,0.605,0.186
9.99,-0.336,1.103,0.014
10.0,-0.282,0.938,-0.182
10.01,-0.155,1.105,-0.024
10.02,-0.16,0.87,0.149
10.03,-0.044,0.883,0.096
10.04,-0.413,1.095,-0.188
10.05,-0.242,0.821,-0.018
10.06,-0.103,1.34,0.043
10.07,-0.119,0.578,0.112
10.08,-0.324,1.089,0.084
10.09,-0.259,0.97,-0.248
10.1,-0.18,0.995,-0.009
10.11,-0.214,0.951,0.177
10.12,-0.055,0.818,0.095
10.13,-0.401,1.123,-0.19
10.14,-0.253,0.842,-0.032
10.15,-0.073,1.316,0.001
10.16,-0.081,0.657,0.145
10.17,-0.317,1.036,0.025
10.18,-0.303,1.012,-0.247
10.19,-0.132,0.976,-0.041
10.2,-0.167,1.058,0.131
10.21,-0.009,0.698,0.084
10.22,-0.483,1.15,-0.162
10.23,-0.178,0.826,-0.036
10.24,-0.138,1.341,0.043
10.25,-0.065,0.644,0.138
10.26,-0.06,0.889,0.05
10.27,-0.139,1.155,0.126
10.28,-0.119,0.646,0.007
10.29,-0.435,1.169,-0.19
10.3,-0.132,1.024,-0.082
10.31,-0.155,0.9,0.095
10.32,-0.11,0.94,0.151
10.33,-0.319,0.826,-0.084
10.34,-0.305,1.053,-0.16
10.35,-0.123,0.925,0.124
10.36,-0.127,1.124,0.15
10.37,-0.181,0.626,-0.021
10.38,-0.413,1.245,-0.148
10.39,-0.073,0.961,-0.068
10.4,-0.217,0.949,0.101
10.41,-0.091,0.901,0.211
10.42,-0.36,0.911,-0.169
10.43,-0.298,1.087,-0.182
10.44,-0.052,0.934,0.095
10.45,-0.128,1.123,0.107
10.46,-0.28,0.666,0.019
10.47,-0.326,1.224,-0.171
10.48,-0.128,0.984,-0.099
10.49,-0.188,0.879,0.106
10.5,-0.125,0.981,0.189
10.51,-0.291,0.804,-0.174
10.52,-0.35,1.159,-0.145
10.53,0.006,0.893,0.064
10.54,-0.134,1.061,0.108
10.55,-0.209,0.704,0.041
10.56,-0.411,1.146,-0.171
10.57,-0.026,1.025,-0.098
10.58,-0.181,0.837,0.17
10.59,-0.203,1.018,0.175
10.6,-0.287,0.811,-0.159
10.61,-0.302,1.2,-0.129
10.62,-0.09,0.897,0.082
10.63,-0.04,1.005,0.108
10.64,-0.259,0.796,0.033
10.65,-0.422,1.057,-0.14
10.66,-0.036,1.156,-0.084
10.67,-0.209,0.78,0.131
10.68,-0.181,1.029,0.191
10.69,-0.291,0.792,-0.171
10.7,-0.355,1.18,-0.11
10.71,-0.045,0.949,0.108
10.72,-0.146,0.909,0.109
10.73,-0.28,0.803,0.051
10.74,-0.281,1.085,-0.154
10.75,-0.134,1.19,-0.076
10.76,-0.163,0.707,0.099
10.77,-0.066,1.105,0.109
10.78,-0.377,0.799,-0.171
10.79,-0.303,1.109,-0.118
10.8,-0.005,1.029,0.054
10.81,-0.146,0.851,0.083
10.82,-0.256,0.928,-0.002
10.83,-0.304,1.002,-0.146
10.84,-0.157,1.171,-0.068
10.85,-0.159,0.726,0.13
10.86,-0.058,1.064,0.13
10.87,-0.321,0.839,-0.171
10.88,-0.337,1.073,-0.059
10.89,-0.09,1.062,0.067
10.9,-0.138,0.772,0.099
10.91,-0.352,1.034,0.017
10.92,-0.26,0.943,-0.184
10.93,-0.151,1.196,-0.092
10.94,-0.166,0.694,0.184
10.95,-0.009,1.072,0.125
10.96,-0.391,0.907,-0.197
10.97,-0.257,0.98,-0.078
10.98,-0.032,1.13,0.082
10.99,-0.154,0.693,0.116
11.0,-0.334,1.047,-0.022
11.01,-0.268,0.937,-0.198
11.02,-0.106,1.159,-0.054
11.03,-0.25,0.712,0.198
11.04,0.026,0.993,0.079
11.05,-0.425,0.922,-0.214
11.06,-0.232,0.927,-0.019
11.07,-0.015,1.241,0.028
11.08,-0.168,0.628,0.104
11.09,-0.339,1.128,0.044
11.1,-0.28,0.897,-0.217
11.11,-0.185,1.119,-0.008
11.12,-0.107,0.81,0.207
11.13,-0.111,0.927,0.071
11.14,-0.488,0.977,-0.206
11.15,-0.058,0.92,-0.069
11.16,-0.085,1.028,0.008
11.17,-0.229,0.706,0.182
11.18,-0.216,1.127,-0.061
11.19,-0.302,0.825,-0.161
11.2,-0.277,1.199,0.089
11.21,0.032,0.786,0.173
11.22,-0.165,0.994,-0.003
11.23,-0.436,0.907,-0.195
11.24,-0.011,1.038,-0.046
11.25,-0.099,1.088,0.026
11.26,-0.179,0.64,0.167
11.27,-0.268,1.202,-0.054
11.28,-0.275,0.829,-0.217
11.29,-0.26,1.169,0.071
11.3,-0.003,0.828,0.166
11.31,-0.174,0.91,0.024
11.32,-0.502,1.004,-0.156
11.33,-0.01,0.937,-0.064
11.34,-0.145,1.128,0.03
11.35,-0.157,0.645,0.217
11.36,-0.293,1.195,-0.105
11.37,-0.292,0.789,-0.216
11.38,-0.171,1.194,0.091
11.39,-0.039,0.866,0.154
11.4,-0.237,0.81,0.016
11.41,-0.367,1.147,-0.177
11.42,-0.075,0.907,-0.083
11.43,-0.187,1.15,0.046
11.44,-0.095,0.667,0.202
11.45,-0.337,1.193,-0.131
11.46,-0.22,0.811,-0.171
11.47,-0.225,1.165,0.076
11.48,-0.03,0.901,0.136
11.49,-0.188,0.768,0.014
11.5,-0.412,1.183,-0.151
11.51,-0.095,0.84,-0.058
11.52,-0.191,1.141,0.108
11.53,-0.15,0.685,0.221
11.54,-0.345,1.159,-0.149
11.55,-0.218,0.867,-0.145
11.56,-0.17,1.146,0.1
11.57,-0.13,0.977,0.097
11.58,-0.147,0.681,0.052
11.59,-0.435,1.259,-0.18
11.6,-0.109,0.861,-0.058
11.61,-0.24,1.124,0.116
11.62,-0.097,0.714,0.185
11.63,-0.382,1.091,-0.144
11.64,-0.243,0.89,-0.156
11.65,-0.151,1.072,0.128
11.66,-0.037,1.038,0.09
11.67,-0.223,0.662,0.03
11.68,-0.456,1.255,-0.147
11.69,0.0,0.866,-0.059
11.7,-0.246,1.123,0.086
11.71,-0.091,0.722,0.235
11.72,-0.336,1.032,-0.14
11.73,-0.323,1.015,-0.176
11.74,-0.093,0.97,0.126
11.75,-0.05,1.11,0.091
11.76,-0.252,0.615,0.033
11.77,-0.425,1.301,-0.129
11.78,-0.143,0.872,-0.079
11.79,-0.219,1.04,0.096
11.8,-0.085,0.849,0.18
11.81,-0.313,0.969,-0.139
11.82,-0.343,1.076,-0.124
11.83,-0.083,0.968,0.079
11.84,-0.095,1.121,0.08
11.85,-0.176,0.633,0.022
11.86,-0.474,1.25,-0.148
11.87,-0.091,0.945,-0.056
11.88,-0.188,1.004,0.077
11.89,-0.096,0.888,0.184
11.9,-0.334,0.911,-0.171
11.91,-0.278,1.099,-0.169
11.92,-0.081,0.932,0.11
11.93,-0.098,1.115,0.091
11.94,-0.157,0.652,0.014
11.95,-0.385,1.272,-0.145
11.96,-0.219,0.931,-0.064
11.97,-0.199,1.104,0.173
11.98,-0.069,0.819,0.073
11.99,-0.399,0.925,-0.189
12.0,-0.23,1.1,-0.059
12.01,-0.071,0.997,0.042
12.02,-0.117,0.965,0.127
12.03,-0.19,0.706,0.064
12.04,-0.406,1.323,-0.257
12.05,-0.099,0.805,-0.038
12.06,-0.178,1.098,0.223
12.07,-0.135,0.862,0.103
12.08,-0.405,0.841,-0.15
12.09,-0.169,1.235,-0.044
12.1,-0.152,0.948,0.065
12.11,-0.132,0.943,0.112
12.12,-0.195,0.75,0.046
12.13,-0.398,1.26,-0.248
12.14,-0.087,0.847,-0.06
12.15,-0.102,1.038,0.225
12.16,-0.124,0.952,0.069
12.17,-0.407,0.803,-0.108
12.18,-0.232,1.238,-0.061
12.19,-0.04,0.905,0.022
12.2,-0.143,0.952,0.126
12.21,-0.204,0.786,0.016
12.22,-0.377,1.193,-0.233
12.23,-0.123,0.915,-0.037
12.24,-0.114,0.927,0.167
12.25,-0.14,1.003,0.097
12.26,-0.357,0.772,-0.187
12.27,-0.238,1.269,-0.037
12.28,-0.115,0.93,0.05
12.29,-0.109,0.926,0.123
12.3,-0.237,0.791,0.025
12.31,-0.286,1.174,-0.202
12.32,-0.09,1.028,-0.086
12.33,-0.236,0.804,0.204
12.34,-0.091,1.027,0.123
12.35,-0.38,0.787,-0.192
12.36,-0.266,1.176,-0.066
12.37,0.053,0.965,0.041
12.38,-0.113,0.902,0.116
12.39,-0.336,0.823,0.06
12.4,-0.242,1.097,-0.197
12.41,-0.117,1.111,-0.052
12.42,-0.228,0.746,0.184
12.43,-0.074,1.095,0.118
12.44,-0.342,0.828,-0.224
12.45,-0.333,1.164,-0.039
12.46,0.019,0.923,0.017
12.47,-0.108,0.849,0.141
12.48,-0.283,0.954,0.004
12.49,-0.327,1.003,-0.21
12.5,-0.168,1.105,-0.029
12.51,-0.151,0.792,0.193
12.52,-0.086,1.07,0.107
12.53,-0.375,0.831,-0.175
12.54,-0.28,1.137,-0.027
12.55,-0.033,0.992,0.06
12.56,-0.188,0.77,0.174
12.57,-0.286,0.999,0.04
12.58,-0.256,0.972,-0.234
12.59,-0.161,1.11,-0.042
12.6,-0.19,0.752,0.208
12.61,-0.153,1.054,0.087
12.62,-0.35,0.828,-0.195
12.63,-0.246,1.098,0.004
12.64,-0.079,1.099,-0.007
12.65,-0.148,0.676,0.136
12.66,-0.244,1.049,0.037
12.67,-0.323,0.961,-0.238
12.68,-0.128,1.108,-0.076
12.69,-0.205,0.805,0.241
12.7,-0.132,1.008,0.122
12.71,-0.373,0.911,-0.174
12.72,-0.274,0.986,-0.007
12.73,-0.102,1.172,0.022
12.74,-0.074,0.625,0.13
12.75,-0.313,1.125,0.033
12.76,-0.267,0.921,-0.228
12.77,-0.137,1.125,-0.023
12.78,-0.187,0.808,0.189
12.79,-0.146,1.035,0.062
12.8,-0.33,0.844,-0.211
12.81,-0.194,1.137,-0.012
12.82,-0.163,1.06,0.078
12.83,-0.141,0.699,0.165
12.84,-0.257,1.121,0.007
12.85,-0.374,0.886,-0.18
12.86,-0.164,1.118,-0.066
12.87,-0.061,0.821,0.17
12.88,-0.187,0.999,0.08
12.89,-0.368,0.834,-0.189
12.9,-0.138,1.032,-0.038
12.91,-0.156,1.156,0.012
12.92,-0.063,0.627,0.163
12.93,-0.281,1.164,0.006
12.94,-0.376,0.873,-0.197
12.95,-0.147,1.113,-0.036
12.96,-0.115,0.873,0.18
12.97,-0.125,0.961,0.113
12.98,-0.331,0.925,-0.194
12.99,-0.184,0.945,-0.068
13.0,-0.104,1.262,-0.005
13.01,-0.146,0.634,0.155
13.02,-0.253,1.101,0.03
13.03,-0.357,0.966,-0.157
13.04,-0.256,1.073,-0.023
13.05,-0.154,0.779,0.15
13.06,-0.101,0.937,0.148
13.07,-0.419,1.021,-0.207
13.08,-0.172,0.771,-0.063
13.09,-0.141,1.339,0.071
13.1,-0.063,0.649,0.109
13.11,-0.292,1.053,0.03
13.12,-0.371,0.95,-0.108
13.13,-0.187,1.13,-0.036
13.14,-0.148,0.838,0.109
13.15,-0.113,0.837,0.204
13.16,-0.384,1.129,-0.185
13.17,-0.276,0.784,-0.113
13.18,-0.078,1.334,0.08
13.19,-0.047,0.682,0.128
13.2,-0.319,1.023,0.023
13.21,-0.308,0.946,-0.152
13.22,-0.106,1.046,-0.066
13.23,-0.196,0.938,0.085
13.24,-0.042,0.776,0.19
13.25,-0.422,1.2,-0.164
13.26,-0.302,0.717,-0.107
13.27,-0.066,1.344,0.029
13.28,-0.022,0.719,0.104
13.29,-0.335,0.956,0.071
13.3,-0.295,1.043,-0.192
13.31,-0.1,0.966,-0.08
13.32,-0.179,0.983,0.098
13.33,-0.087,0.754,0.199
13.34,-0.363,1.185,-0.195
13.35,-0.296,0.701,-0.099
13.36,-0.131,1.353,0.094
13.37,-0.104,0.805,0.142
13.38,-0.253,0.864,0.016
13.39,-0.354,1.125,-0.137
13.4,-0.142,0.945,-0.052
13.41,-0.276,1.05,0.087
13.42,-0.008,0.696,0.153
13.43,-0.433,1.224,-0.147
13.44,-0.258,0.742,-0.162
13.45,-0.16,1.263,0.1
13.46,-0.013,0.863,0.119
13.47,-0.209,0.808,0.026
13.48,-0.451,1.15,-0.111
13.49,-0.108,0.925,-0.078
13.5,-0.213,1.06,0.098
13.51,-0.112,0.704,0.215
13.52,-0.381,1.187,-0.143
13.53,-0.305,0.814,-0.165
13.54,-0.096,1.172,0.071
13.55,-0.021,0.913,0.1
13.56,-0.18,0.759,0.022
13.57,-0.417,1.238,-0.134
13.58,-0.044,0.889,-0.119
13.59,-0.244,1.098,0.06
13.6,-0.064,0.721,0.2
13.61,-0.414,1.204,-0.191
13.62,-0.225,0.739,-0.112
13.63,-0.13,1.313,0.108
13.64,-0.038,0.802,0.099
13.65,-0.248,0.827,0.054
13.66,-0.372,1.21,-0.14
13.67,-0.08,0.91,-0.077
13.68,-0.288,1.104,0.119
13.69,-0.025,0.683,0.182
13.7,-0.42,1.167,-0.162
13.71,-0.317,0.821,-0.149
13.72,-0.021,1.2,0.059
13.73,-0.095,0.885,0.13
13.74,-0.296,0.757,0.041
13.75,-0.301,1.248,-0.168
13.76,-0.099,0.847,-0.072
13.77,-0.302,1.112,0.137
13.78,-0.039,0.71,0.202
13.79,-0.463,1.152,-0.131
13.8,-0.282,0.872,-0.119
13.81,-0.125,1.127,0.056
13.82,-0.055,0.924,0.129
13.83,-0.252,0.703,0.05
13.84,-0.39,1.331,-0.156
13.85,-0.114,0.799,-0.037
13.86,-0.222,1.149,0.093
13.87,-0.095,0.729,0.189
13.88,-0.391,1.054,-0.142
13.89,-0.305,0.961,-0.147
13.9,-0.132,1.061,0.118
13.91,-0.132,1.048,0.108
13.92,-0.163,0.616,0.049
13.93,-0.419,1.28,-0.191
13.94,-0.056,0.872,-0.059
13.95,-0.247,1.124,0.109
13.96,-0.103,0.731,0.169
13.97,-0.297,1.037,-0.124
13.98,-0.333,1.017,-0.139
13.99,-0.176,0.97,0.07
14.0,-0.089,1.12,0.114
14.01,-0.179,0.591,0.021
14.02,-0.478,1.252,-0.139
14.03,-0.059,0.979,-0.093
14.04,-0.13,1.032,0.069
14.05,-0.188,0.796,0.218
14.06,-0.237,0.955,-0.135
14.07,-0.308,1.125,-0.195
14.08,-0.13,0.903,0.119
14.09,-0.131,1.136,0.132
14.1,-0.149,0.626,0.018
14.11,-0.499,1.23,-0.125
14.12,-0.002,0.937,-0.125
14.13,-0.177,1.028,0.051
14.14,-0.132,0.854,0.212
14.15,-0.308,0.895,-0.11
14.16,-0.33,1.155,-0.185
14.17,-0.111,0.888,0.107
14.18,-0.129,1.145,0.129
14.19,-0.161,0.628,0.039
14.2,-0.451,1.189,-0.187
14.21,-0.144,1.04,-0.042
14.22,-0.14,0.964,0.1
14.23,-0.151,0.933,0.174
14.24,-0.301,0.855,-0.098
14.25,-0.319,1.195,-0.146
14.26,-0.114,0.844,0.049
14.27,-0.088,1.147,0.169
14.28,-0.148,0.734,0.027
14.29,-0.43,1.048,-0.17
14.3,-0.151,1.094,-0.021
14.31,-0.167,0.935,0.103
14.32,-0.177,0.96,0.17
14.33,-0.302,0.797,-0.08
14.34,-0.305,1.216,-0.167
14.35,-0.151,0.833,0.053
14.36,-0.008,1.1,0.129
14.37,-0.169,0.751,0.018
14.38,-0.462,0.994,-0.18
14.39,-0.061,1.163,-0.09
14.4,-0.14,0.844,0.082
14.41,-0.203,0.972,0.164
14.42,-0.333,0.833,-0.126
14.43,-0.314,1.146,-0.155
14.44,-0.079,0.901,0.145
14.45,-0.11,1.135,0.116
14.46,-0.19,0.682,-0.02
14.47,-0.442,1.162,-0.094
14.48,-0.109,1.065,-0.045
14.49,-0.259,0.841,0.095
14.5,-0.068,0.982,0.155
14.51,-0.349,0.843,-0.163
14.52,-0.285,1.188,-0.143
14.53,-0.062,0.928,0.091
14.54,-0.117,0.962,0.127
14.55,-0.228,0.78,0.038
14.56,-0.31,1.16,-0.21
14.57,-0.16,1.025,-0.093
14.58,-0.227,0.794,0.182
14.59,-0.041,1.033,0.128
14.6,-0.379,0.776,-0.153
14.61,-0.249,1.193,-0.125
14.62,-0.082,0.959,0.071
14.63,-0.094,0.884,0.123
14.64,-0.243,0.851,0.036
14.65,-0.277,1.111,-0.178
14.66,-0.188,1.078,-0.096
14.67,-0.202,0.704,0.211
14.68,-0.074,1.102,0.136
14.69,-0.342,0.765,-0.176
14.7,-0.286,1.091,-0.126
14.71,0.002,1.058,0.053
14.72,-0.137,0.86,0.106
14.73,-0.289,0.889,0.054
14.74,-0.328,1.042,-0.172
14.75,-0.129,1.196,-0.041
14.76,-0.185,0.684,0.145
14.77,-0.101,1.062,0.149
14.78,-0.344,0.843,-0.18
14.79,-0.285,1.054,-0.119
14.8,-0.125,1.046,0.11
14.81,-0.098,0.841,0.146
14.82,-0.301,0.995,0.004
14.83,-0.34,0.904,-0.179
14.84,-0.128,1.191,-0.027
14.85,-0.149,0.738,0.132
14.86,-0.095,1.043,0.131
14.87,-0.304,0.931,-0.195
14.88,-0.332,1.036,-0.09
14.89,-0.017,1.101,-0.003
14.9,-0.088,0.738,0.134
14.91,-0.36,1.048,0.035
14.92,-0.288,0.917,-0.163
14.93,-0.198,1.202,-0.01
14.94,-0.175,0.725,0.149
14.95,-0.055,1.009,0.119
14.96,-0.306,0.941,-0.217
14.97,-0.276,0.938,-0.086
14.98,-0.063,1.204,0.056
14.99,-0.108,0.705,0.151
15.0,-0.305,1.063,0.011
15.01,-0.299,0.933,-0.143
15.02,-0.136,1.17,-0.018
15.03,-0.192,0.754,0.11
15.04,-0.094,0.959,0.171
15.05,-0.388,1.04,-0.182
15.06,-0.241,0.833,-0.104
15.07,-0.064,1.29,0.108
15.08,-0.097,0.655,0.116
15.09,-0.407,1.069,-0.008
15.1,-0.228,0.916,-0.157
15.11,-0.131,1.14,-0.021
15.12,-0.243,0.766,0.144
15.13,-0.004,0.887,0.107
15.14,-0.435,1.119,-0.19
15.15,-0.225,0.799,-0.071
15.16,0.014,1.313,0.043
15.17,-0.108,0.621,0.145
15.18,-0.352,1.106,-0.007
15.19,-0.259,0.964,-0.204
15.2,-0.183,1.075,0.007
15.21,-0.19,0.915,0.172
15.22,0.0,0.812,0.078
15.23,-0.492,1.171,-0.22
15.24,-0.125,0.903,-0.031
15.25,-0.127,1.218,0.032
15.26,-0.198,0.599,0.155
15.27,-0.318,1.161,-0.042
15.28,-0.263,0.872,-0.223
15.29,-0.211,1.102,0.001
15.3,-0.067,0.852,0.173
15.31,-0.084,0.868,0.025
15.32,-0.514,1.106,-0.184
15.33,-0.019,0.908,-0.038
15.34,-0.11,1.211,0.009
15.35,-0.215,0.584,0.16
15.36,-0.288,1.206,-0.022
15.37,-0.245,0.923,-0.239
15.38,-0.24,1.061,0.051
15.39,-0.043,0.973,0.172
15.4,-0.139,0.755,0.004
15.41,-0.558,1.113,-0.158
15.42,-0.007,0.884,-0.054
15.43,-0.151,1.224,0.077
15.44,-0.208,0.64,0.177
15.45,-0.33,1.125,-0.087
15.46,-0.272,0.946,-0.138
15.47,-0.191,1.055,0.099
15.48,-0.048,0.972,0.123
15.49,-0.172,0.71,0.013
15.5,-0.525,1.219,-0.205
15.51,0.009,0.838,-0.067
15.52,-0.142,1.164,0.098
15.53,-0.249,0.699,0.175
15.54,-0.275,1.081,-0.163
15.55,-0.182,1.018,-0.189
15.56,-0.163,0.97,0.149
15.57,-0.078,1.035,0.141
15.58,-0.221,0.69,-0.002
15.59,-0.434,1.247,-0.183
15.6,-0.112,0.835,-0.007
15.61,-0.268,1.139,0.126
15.62,-0.075,0.756,0.167
15.63,-0.323,0.969,-0.168
15.64,-0.349,1.082,-0.086
15.65,0.049,0.969,0.009
15.66,-0.167,1.027,0.156
15.67,-0.234,0.659,0.058
15.68,-0.385,1.307,-0.25
15.69,-0.131,0.791,-0.016
15.7,-0.212,1.112,0.135
15.71,-0.065,0.835,0.116
15.72,-0.378,0.896,-0.175
15.73,-0.268,1.168,-0.026
15.74,-0.086,0.887,0.052
15.75,-0.135,1.009,0.133
15.76,-0.24,0.747,0.031
15.77,-0.408,1.276,-0.229
15.78,-0.031,0.855,-0.022
15.79,-0.208,1.068,0.18
15.8,-0.153,0.888,0.113
15.81,-0.383,0.843,-0.19
15.82,-0.185,1.223,-0.051
15.83,-0.073,0.924,0.067
15.84,-0.123,1.014,0.128
15.85,-0.207,0.732,0.009
15.86,-0.384,1.247,-0.202
15.87,-0.084,0.911,-0.043
15.88,-0.147,0.954,0.16
15.89,-0.123,0.952,0.074
15.9,-0.403,0.819,-0.177
15.91,-0.21,1.258,-0.035
15.92,-0.013,0.878,0.034
15.93,-0.21,0.959,0.184
15.94,-0.191,0.8,-0.027
15.95,-0.35,1.157,-0.21
15.96,-0.084,0.98,-0.047
15.97,-0.139,0.849,0.158
15.98,-0.1,1.028,0.028
15.99,-0.341,0.799,-0.185
16.0,-0.241,1.255,-0.042
16.01,-0.02,0.867,0.028
16.02,-0.137,0.94,0.187
16.03,-0.313,0.874,0.001
16.04,-0.315,1.07,-0.238
16.05,-0.131,0.968,0.021
16.06,-0.089,0.995,0.149
16.07,-0.114,0.875,0.014
16.08,-0.472,0.861,-0.081
16.09,-0.16,1.287,-0.052
16.1,-0.065,0.773,0.031
16.11,-0.22,0.966,0.184
16.12,-0.193,0.845,-0.084
16.13,-0.343,1.124,-0.173
16.14,-0.214,0.995,0.039
16.15,-0.057,0.858,0.166
16.16,-0.154,0.988,0.046
16.17,-0.454,0.846,-0.154
16.18,-0.169,1.258,-0.028
16.19,-0.124,0.801,0.086
16.2,-0.172,0.942,0.168
16.21,-0.227,0.925,-0.07
16.22,-0.278,1.033,-0.179
16.23,-0.233,1.082,0.025
16.24,-0.054,0.808,0.174
16.25,-0.215,1.016,0.045
16.26,-0.445,0.864,-0.156
16.27,-0.055,1.248,-0.052
16.28,-0.179,0.799,0.12
16.29,-0.192,0.907,0.206
16.3,-0.201,1.009,-0.128
16.31,-0.315,0.888,-0.184
16.32,-0.165,1.167,0.098
16.33,-0.044,0.783,0.134
16.34,-0.199,0.979,-0.004
16.35,-0.454,0.883,-0.088
16.36,-0.06,1.199,-0.091
16.37,-0.187,0.844,0.047
16.38,-0.214,0.836,0.221
16.39,-0.249,1.095,-0.166
16.4,-0.292,0.796,-0.181
16.41,-0.234,1.218,0.113
16.42,0.025,0.777,0.12
16.43,-0.22,0.995,-0.01
16.44,-0.446,0.885,-0.134
16.45,-0.001,1.172,-0.073
16.46,-0.233,0.93,0.082
16.47,-0.152,0.735,0.238
16.48,-0.27,1.158,-0.17
16.49,-0.257,0.797,-0.18
16.5,-0.266,1.236,0.119
16.51,-0.018,0.766,0.161
16.52,-0.188,0.985,0.01
16.53,-0.415,0.96,-0.138
16.54,-0.101,1.074,-0.091
16.55,-0.141,0.948,0.043
16.56,-0.157,0.733,0.241
16.57,-0.28,1.17,-0.161
16.58,-0.265,0.802,-0.167
16.59,-0.21,1.311,0.093
16.6,-0.061,0.761,0.14
16.61,-0.25,0.93,0.051
16.62,-0.37,1.083,-0.164
16.63,-0.143,1.013,-0.03
16.64,-0.251,1.027,0.086
16.65,-0.057,0.713,0.176
16.66,-0.413,1.175,-0.126
16.67,-0.234,0.766,-0.163
16.68,-0.245,1.229,0.091
16.69,-0.031,0.776,0.081
16.7,-0.206,0.902,0.028
16.71,-0.357,1.119,-0.17
16.72,-0.09,0.955,-0.033
16.73,-0.207,1.063,0.063
16.74,-0.06,0.69,0.227
16.75,-0.459,1.182,-0.114
16.76,-0.239,0.812,-0.164
16.77,-0.126,1.252,0.09
16.78,-0.119,0.807,0.125
16.79,-0.254,0.829,0.043
16.8,-0.358,1.236,-0.171
16.81,-0.106,0.844,-0.063
16.82,-0.259,1.115,0.12
16.83,-0.092,0.699,0.186
16.84,-0.339,1.12,-0.148
16.85,-0.282,0.821,-0.155
16.86,-0.094,1.202,0.109
16.87,-0.097,0.723,0.099
16.88,-0.334,0.934,0.055
16.89,-0.268,1.097,-0.228
16.9,-0.109,0.887,-0.06
16.91,-0.171,1.071,0.12
16.92,-0.06,0.719,0.16
16.93,-0.416,1.132,-0.176
16.94,-0.221,0.819,-0.117
16.95,-0.096,1.284,0.064
16.96,-0.109,0.75,0.101
16.97,-0.302,0.837,0.03
16.98,-0.351,1.195,-0.172
16.99,-0.119,0.881,-0.053
17.0,-0.195,1.085,0.132
17.01,-0.12,0.723,0.198
17.02,-0.444,1.134,-0.175
17.03,-0.231,0.795,-0.14
17.04,-0.036,1.229,0.084
17.05,-0.081,0.847,0.089
17.06,-0.349,0.765,0.04
17.07,-0.31,1.246,-0.158
17.08,-0.095,0.859,-0.088
17.09,-0.174,1.109,0.158
17.1,-0.083,0.729,0.152
17.11,-0.428,1.145,-0.183
17.12,-0.231,0.865,-0.123
17.13,-0.053,1.175,0.076
17.14,-0.055,0.94,0.111
17.15,-0.309,0.722,0.01
17.16,-0.408,1.3,-0.114
17.17,-0.119,0.832,-0.04
17.18,-0.27,1.084,0.157
17.19,-0.054,0.776,0.107
17.2,-0.345,1.092,-0.206
17.21,-0.277,0.975,-0.115
17.22,-0.053,1.053,0.079
17.23,-0.079,0.964,0.143
17.24,-0.302,0.685,0.021
17.25,-0.351,1.358,-0.163
17.26,-0.115,0.813,-0.034
17.27,-0.239,1.085,0.13
17.28,-0.004,0.806,0.124
17.29,-0.436,1.024,-0.223
17.3,-0.246,1.032,-0.091
17.31,-0.078,0.998,0.061
17.32,-0.082,0.973,0.131
17.33,-0.253,0.684,0.012
17.34,-0.375,1.345,-0.201
17.35,-0.074,0.822,-0.024
17.36,-0.215,1.033,0.159
17.37,-0.127,0.873,0.15
17.38,-0.386,0.929,-0.218
17.39,-0.251,1.092,-0.099
17.4,-0.031,0.948,0.083
17.41,-0.119,1.049,0.094
17.42,-0.261,0.662,0.005
17.43,-0.352,1.266,-0.152
17.44,-0.119,0.912,-0.045
17.45,-0.179,0.951,0.131
17.46,0.012,0.939,0.115
17.47,-0.471,0.865,-0.192
17.48,-0.245,1.13,-0.061
17.49,0.059,0.923,0.076
17.5,-0.205,0.999,0.153
17.51,-0.314,0.741,0.008
17.52,-0.294,1.226,-0.228
17.53,-0.091,0.915,-0.08
17.54,-0.15,0.896,0.224
17.55,-0.124,0.982,0.058
17.56,-0.435,0.788,-0.193
17.57,-0.193,1.255,-0.017
17.58,-0.066,0.86,0.08
17.59,-0.18,0.943,0.145
17.6,-0.284,0.839,0.006
17.61,-0.304,1.108,-0.234
17.62,-0.147,1.03,-0.012
17.63,-0.117,0.894,0.198
17.64,-0.153,1.018,0.026
17.65,-0.393,0.792,-0.158
17.66,-0.231,1.277,0.0
17.67,-0.073,0.819,0.074
17.68,-0.193,1.01,0.201
17.69,-0.256,0.853,-0.1
17.7,-0.329,1.123,-0.195
17.71,-0.104,0.939,0.028
17.72,-0.01,0.94,0.127
17.73,-0.245,0.937,0.002
17.74,-0.429,0.86,-0.103
17.75,-0.135,1.268,-0.075
17.76,-0.175,0.69,0.049
17.77,-0.125,1.034,0.212
17.78,-0.341,0.887,-0.127
17.79,-0.318,0.994,-0.197
17.8,-0.03,1.123,0.082
17.81,-0.063,0.835,0.118
17.82,-0.27,0.955,0.029
17.83,-0.385,0.93,-0.105
17.84,-0.192,1.254,-0.097
17.85,-0.174,0.653,0.101
17.86,-0.118,1.048,0.163
17.87,-0.326,0.951,-0.189
17.88,-0.287,0.878,-0.127
17.89,-0.105,1.206,0.122
17.9,-0.048,0.791,0.114
17.91,-0.259,1.031,0.001
17.92,-0.369,0.93,-0.105
17.93,-0.176,1.239,-0.037
17.94,-0.208,0.699,0.096
17.95,-0.128,0.965,0.185
17.96,-0.328,1.05,-0.199
17.97,-0.262,0.861,-0.105
17.98,-0.076,1.246,0.09
17.99,-0.026,0.696,0.111
18.0,-0.336,1.063,0.018
18.01,-0.301,0.924,-0.194
18.02,-0.188,1.128,-0.026
18.03,-0.153,0.821,0.106
18.04,-0.105,0.936,0.192
18.05,-0.417,1.048,-0.191
18.06,-0.256,0.827,-0.076
18.07,-0.12,1.323,0.075
18.08,-0.117,0.608,0.123
18.09,-0.328,1.058,0.041
18.1,-0.289,0.994,-0.191
18.11,-0.15,1.049,-0.059
18.12,-0.206,0.875,0.136
18.13,-0.035,0.818,0.143
18.14,-0.426,1.15,-0.193
18.15,-0.254,0.777,-0.035
18.16,-0.138,1.357,0.085
18.17,-0.107,0.58,0.117
18.18,-0.286,1.043,0.023
18.19,-0.268,1.041,-0.22
18.2,-0.18,0.985,-0.042
18.21,-0.187,0.953,0.137
18.22,-0.028,0.753,0.127
18.23,-0.5,1.176,-0.181
18.24,-0.206,0.803,-0.028
18.25,-0.083,1.351,0.022
18.26,-0.125,0.637,0.141
18.27,-0.346,1.0,0.021
18.28,-0.203,1.051,-0.23
18.29,-0.167,0.928,0.016
18.3,-0.183,1.055,0.185
18.31,-0.033,0.694,0.079
18.32,-0.532,1.152,-0.201
18.33,-0.205,0.843,0.006
18.34,-0.093,1.254,0.057
18.35,-0.163,0.692,0.14
18.36,-0.257,0.976,-0.001
18.37,-0.427,1.136,-0.221
18.38,-0.061,0.852,-0.013
18.39,-0.149,1.228,0.171
18.4,-0.086,0.598,0.051
18.41,-0.465,1.209,-0.139
18.42,-0.109,0.941,-0.029
18.43,-0.154,1.109,0.065
18.44,-0.136,0.74,0.16
18.45,-0.277,0.948,-0.019
18.46,-0.348,1.17,-0.242
18.47,-0.115,0.822,0.041
18.48,-0.157,1.205,0.182
18.49,-0.123,0.639,0.06
18.5,-0.471,1.221,-0.167
18.51,-0.069,0.911,-0.057
18.52,-0.099,1.094,0.071
18.53,-0.194,0.762,0.191
18.54,-0.308,1.01,-0.134
18.55,-0.212,1.018,-0.212
18.56,-0.126,0.981,0.128
18.57,-0.135,1.075,0.124
18.58,-0.162,0.64,-0.009
18.59,-0.491,1.34,-0.09
18.6,-0.136,0.971,0.149
18.61,-0.331,0.886,-0.001
18.62,-0.29,1.16,-0.218
18.63,-0.139,0.84,0.01
18.64,-0.193,1.188,0.195
18.65,-0.04,0.648,0.055
18.66,-0.487,1.175,-0.177
18.67,-0.203,0.927,-0.016
18.68,-0.062,1.095,0.041
18.69,-0.167,0.817,0.131
18.7,-0.277,0.851,-0.026
18.71,-0.342,1.237,-0.206
18.72,-0.173,0.801,0.015
18.73,-0.122,1.225,0.174
18.74,-0.068,0.66,0.003
18.75,-0.522,1.143,-0.16
18.76,-0.013,1.023,-0.085
18.77,-0.161,0.997,0.088
18.78,-0.167,0.891,0.17
18.79,-0.237,0.855,-0.115
18.8,-0.298,1.207,-0.213
18.81,-0.185,0.864,0.136
18.82,-0.125,1.146,0.163
18.83,-0.184,0.645,0.03
18.84,-0.502,1.125,-0.143
18.85,0.014,1.074,-0.094
18.86,-0.169,0.902,0.086
18.87,-0.199,0.92,0.221
18.88,-0.241,0.804,-0.161
18.89,-0.331,1.19,-0.141
18.9,-0.166,0.892,0.175
18.91,-0.079,1.081,0.09
18.92,-0.238,0.728,-0.016
18.93,-0.41,1.117,-0.142
18.94,-0.084,1.118,-0.062
18.95,-0.24,0.798,0.13
18.96,-0.088,1.066,0.154
18.97,-0.342,0.757,-0.175
18.98,-0.327,1.16,-0.083
18.99,-0.091,0.984,0.109
19.0,-0.115,0.933,0.103
19.01,-0.255,0.822,0.039
19.02,-0.323,1.081,-0.131
19.03,-0.161,1.145,-0.03
19.04,-0.158,0.744,0.144
19.05,-0.103,1.082,0.131
19.06,-0.3,0.78,-0.213
19.07,-0.312,1.158,-0.088
19.08,-0.006,0.985,0.058
19.09,-0.124,0.823,0.111
19.1,-0.271,0.949,0.015
19.11,-0.318,1.008,-0.198
19.12,-0.151,1.117,-0.028
19.13,-0.208,0.725,0.236
19.14,-0.132,1.068,0.099
19.15,-0.326,0.811,-0.225
19.16,-0.277,1.14,-0.051
19.17,-0.048,0.983,0.053
19.18,-0.12,0.779,0.151
19.19,-0.344,1.043,0.008
19.2,-0.301,0.929,-0.195
19.21,-0.179,1.184,0.02
19.22,-0.127,0.779,0.181
19.23,-0.101,1.029,0.03
19.24,-0.294,0.876,-0.198
19.25,-0.07,1.256,-0.092
19.26,-0.132,0.793,0.096
19.27,-0.17,0.896,0.189
19.28,-0.288,1.022,-0.11
19.29,-0.291,0.874,-0.185
19.3,-0.139,1.276,0.117
19.31,-0.078,0.737,0.121
19.32,-0.222,0.977,0.031
19.33,-0.364,0.938,-0.164
19.34,-0.074,1.212,-0.101
19.35,-0.151,0.797,0.084
19.36,-0.125,0.836,0.187
19.37,-0.385,1.108,-0.156
19.38,-0.28,0.789,-0.148
19.39,-0.105,1.313,0.094
19.4,-0.113,0.654,0.097
19.41,-0.289,0.987,0.013
19.42,-0.322,1.003,-0.17
19.43,-0.162,1.079,-0.048
19.44,-0.155,0.813,0.106
19.45,-0.09,0.86,0.18
19.46,-0.429,1.183,-0.205
19.47,-0.235,0.731,-0.124
19.48,-0.102,1.336,0.095
19.49,-0.102,0.697,0.125
19.5,-0.313,0.99,0.018
19.51,-0.354,1.029,-0.182
19.52,-0.096,1.024,-0.039
19.53,-0.17,0.966,0.122
19.54,-0.109,0.773,0.161
19.55,-0.438,1.196,-0.244
19.56,-0.202,0.749,-0.094
19.57,-0.037,1.333,0.112
19.58,-0.116,0.699,0.103
19.59,-0.312,0.954,-0.019
19.6,-0.243,1.089,-0.194
19.61,-0.106,0.932,-0.027
19.62,-0.257,0.996,0.215
19.63,-0.046,0.708,0.085
19.64,-0.52,1.218,-0.277
19.65,-0.047,0.807,-0.011
19.66,-0.111,1.252,0.094
19.67,-0.208,0.682,0.153
19.68,-0.21,0.96,-0.041
19.69,-0.307,1.158,-0.213
19.7,-0.187,0.877,0.049
19.71,-0.092,1.158,0.171
19.72,-0.177,0.625,0.088
19.73,-0.489,1.22,-0.216
19.74,-0.032,0.919,-0.052
19.75,-0.169,1.084,0.073
19.76,-0.093,0.797,0.182
19.77,-0.291,0.919,-0.084
19.78,-0.294,1.147,-0.138
19.79,-0.128,0.874,0.067
19.8,-0.086,1.145,0.106
19.81,-0.148,0.633,0.014
19.82,-0.5,1.248,-0.188
19.83,-0.089,0.995,-0.052
19.84,-0.164,0.995,0.072
19.85,-0.174,0.887,0.213
19.86,-0.291,0.829,-0.158
19.87,-0.238,1.201,-0.125
19.88,-0.115,0.9,0.098
19.89,-0.149,1.073,0.097
19.9,-0.169,0.692,-0.01
19.91,-0.471,1.225,-0.195
19.92,-0.043,0.959,-0.059
19.93,-0.164,0.921,0.132
19.94,-0.198,0.994,0.173
19.95,-0.292,0.811,-0.197
19.96,-0.281,1.215,-0.09
19.97,0.001,0.893,0.106
19.98,-0.143,1.044,0.123
19.99,-0.301,0.746,-0.001
20.0,-0.375,1.135,-0.164
20.01,-0.119,1.046,-0.015
20.02,-0.147,0.809,0.168
20.03,-0.074,1.037,0.086
20.04,-0.412,0.777,-0.171
20.05,-0.223,1.24,-0.064
20.06,0.049,0.896,0.094
20.07,-0.222,1.027,0.139
20.08,-0.255,0.769,-0.026
20.09,-0.324,1.26,-0.222
20.1,-0.084,0.912,0.037
20.11,-0.076,0.936,0.194
20.12,-0.267,0.93,-0.011
20.13,-0.418,0.832,-0.152
20.14,-0.104,1.263,-0.054
20.15,-0.076,0.757,0.134
20.16,-0.23,1.061,0.189
20.17,-0.308,0.816,-0.149
20.18,-0.293,1.067,-0.184
20.19,0.013,1.096,0.094
20.2,-0.17,0.778,0.146
20.21,-0.322,0.999,-0.015
20.22,-0.312,0.903,-0.161
20.23,-0.176,1.202,0.007
20.24,-0.075,0.739,0.159
20.25,-0.15,1.008,0.104
20.26,-0.408,0.895,-0.185
20.27,-0.17,1.008,-0.101
20.28,-0.076,1.154,0.068
20.29,-0.083,0.667,0.105
20.3,-0.318,1.098,-0.044
20.31,-0.286,0.908,-0.176
20.32,-0.118,1.157,0.016
20.33,-0.127,0.802,0.206
20.34,-0.162,0.91,0.031
20.35,-0.387,1.009,-0.182
20.36,-0.131,1.003,-0.014
20.37,-0.187,1.079,0.07
20.38,-0.113,0.658,0.152
20.39,-0.301,1.176,-0.097
20.4,-0.308,0.823,-0.16
20.41,-0.059,1.179,0.088
20.42,-0.075,0.865,0.123
20.43,-0.272,0.853,0.029
20.44,-0.466,1.108,-0.127
20.45,-0.076,1.006,-0.043
20.46,-0.203,1.067,0.075
20.47,-0.035,0.691,0.171
20.48,-0.401,1.197,-0.165
20.49,-0.31,0.826,-0.102
20.5,0.015,1.177,0.079
20.51,-0.069,0.813,0.058
20.52,-0.29,0.84,0.045
20.53,-0.306,1.197,-0.226
20.54,-0.096,0.869,-0.013
20.55,-0.266,1.162,0.203
20.56,-0.067,0.651,0.079
20.57,-0.531,1.174,-0.148
20.58,-0.056,0.956,-0.062
20.59,-0.15,1.084,0.058
20.6,-0.135,0.836,0.151
20.61,-0.279,0.845,-0.056
20.62,-0.348,1.215,-0.18
20.63,-0.062,0.853,0.067
20.64,-0.164,1.164,0.152
20.65,-0.122,0.651,0.02
20.66,-0.489,1.21,-0.18
20.67,-0.041,1.019,-0.077
20.68,-0.13,0.914,0.085
20.69,-0.149,0.93,0.185
20.7,-0.339,0.801,-0.18
20.71,-0.211,1.166,-0.169
20.72,-0.107,0.971,0.134
20.73,-0.119,1.053,0.128
20.74,-0.241,0.703,0.013
20.75,-0.38,1.219,-0.161
20.76,-0.107,1.006,-0.042
20.77,-0.158,0.805,0.18
20.78,-0.121,1.015,0.11
20.79,-0.425,0.764,-0.185
20.8,-0.291,1.267,-0.067
20.81,0.032,0.884,0.026
20.82,-0.202,0.952,0.094
20.83,-0.257,0.829,-0.012
20.84,-0.268,1.071,-0.249
20.85,-0.111,1.056,0.025
20.86,-0.077,0.842,0.197
20.87,-0.17,1.013,0.018
20.88,-0.411,0.794,-0.173
20.89,-0.118,1.252,-0.078
20.9,-0.157,0.693,0.1
20.91,-0.096,1.032,0.164
20.92,-0.338,0.838,-0.175
20.93,-0.288,1.075,-0.143
20.94,0.004,1.078,0.043
20.95,-0.099,0.749,0.119
20.96,-0.293,1.02,0.035
20.97,-0.28,0.939,-0.231
20.98,-0.198,1.188,0.04
20.99,-0.185,0.771,0.165
21.0,-0.136,1.004,0.093
21.01,-0.353,0.877,-0.174
21.02,-0.179,1.081,-0.035
21.03,-0.243,1.09,0.142
21.04,-0.121,0.674,0.11
21.05,-0.307,1.128,0.01
21.06,-0.317,0.859,-0.231
21.07,-0.118,1.18,-0.008
21.08,-0.122,0.792,0.179
21.09,-0.121,0.92,0.057
21.1,-0.36,0.97,-0.212
21.11,-0.109,0.99,-0.033
21.12,-0.161,1.083,0.087
21.13,-0.066,0.667,0.149
21.14,-0.358,1.208,-0.064
21.15,-0.309,0.876,-0.158
21.16,-0.171,1.199,0.065
21.17,-0.095,0.813,0.106
21.18,-0.174,0.863,0.038
21.19,-0.423,1.095,-0.219
21.2,-0.141,0.917,0.004
21.21,-0.196,1.122,0.121
21.22,-0.113,0.656,0.15
21.23,-0.38,1.148,-0.158
21.24,-0.208,0.832,-0.167
21.25,-0.111,1.216,0.087
21.26,-0.124,0.815,0.148
21.27,-0.268,0.822,0.016
21.28,-0.409,1.198,-0.188
21.29,-0.091,0.848,0.012
21.3,-0.261,1.169,0.122
21.31,0.014,0.662,0.08
21.32,-0.472,1.146,-0.188
21.33,-0.231,0.91,-0.038
21.34,-0.037,1.154,0.046
21.35,-0.147,0.819,0.109
21.36,-0.24,0.77,-0.008
21.37,-0.311,1.291,-0.207
21.38,-0.082,0.845,0.045
21.39,-0.216,1.182,0.195
21.4,-0.075,0.642,0.08
21.41,-0.518,1.176,-0.159
21.42,-0.089,1.006,-0.075
21.43,-0.106,0.982,0.059
21.44,-0.174,0.932,0.195
21.45,-0.246,0.804,-0.106
21.46,-0.327,1.171,-0.189
21.47,-0.052,0.888,0.141
21.48,-0.09,1.135,0.103
21.49,-0.226,0.648,0.025
21.5,-0.436,1.201,-0.132
21.51,-0.128,1.051,-0.116
21.52,-0.179,0.849,0.117
21.53,-0.093,1.03,0.156
21.54,-0.304,0.752,-0.176
21.55,-0.355,1.17,-0.102
21.56,0.024,0.927,0.103
21.57,-0.137,1.023,0.113
21.58,-0.254,0.74,0.015
21.59,-0.324,1.128,-0.208
21.6,-0.144,1.078,-0.061
21.61,-0.212,0.742,0.17
21.62,-0.059,1.043,0.122
21.63,-0.416,0.825,-0.181
21.64,-0.297,1.188,-0.074
21.65,0.02,0.92,0.058
21.66,-0.193,0.918,0.112
21.67,-0.225,0.87,-0.025
21.68,-0.285,1.056,-0.187
21.69,-0.167,1.093,-0.004
21.7,-0.085,0.885,0.166
21.71,-0.169,0.973,0.055
21.72,-0.419,0.868,-0.21
21.73,-0.09,1.254,-0.041
21.74,-0.115,0.802,0.055
21.75,-0.206,0.943,0.2
21.76,-0.187,0.867,-0.104
21.77,-0.361,1.116,-0.166
21.78,-0.105,1.024,0.098
21.79,-0.09,0.803,0.179
21.8,-0.3,1.011,0.042
21.81,-0.398,0.906,-0.156
21.82,-0.062,1.248,-0.073
21.83,-0.201,0.708,0.11
21.84,-0.114,0.959,0.21
21.85,-0.314,0.972,-0.182
21.86,-0.351,0.971,-0.126
21.87,-0.049,1.143,0.086
21.88,-0.082,0.719,0.121
21.89,-0.378,1.026,0.003
21.9,-0.225,0.892,-0.191
21.91,-0.124,1.185,-0.0
21.92,-0.198,0.769,0.146
21.93,-0.076,0.944,0.155
21.94,-0.432,0.997,-0.198
21.95,-0.298,0.908,-0.008
21.96,-0.031,1.242,0.053
21.97,-0.128,0.66,0.104
21.98,-0.354,1.113,0.014
21.99,-0.231,0.95,-0.236
22.0,-0.166,1.108,0.052
22.01,-0.194,0.814,0.165
22.02,-0.038,0.884,0.069
22.03,-0.522,1.112,-0.187
22.04,-0.152,0.875,-0.005
22.05,-0.078,1.229,0.057
22.06,-0.153,0.626,0.134
22.07,-0.331,1.156,-0.031
22.08,-0.252,0.895,-0.255
22.09,-0.216,1.051,0.087
22.1,-0.046,0.989,0.169
22.11,-0.197,0.771,0.023
22.12,-0.516,1.144,-0.178
22.13,0.042,0.898,-0.082
22.14,-0.165,1.167,0.054
22.15,-0.175,0.649,0.243
22.16,-0.39,1.119,-0.136
22.17,-0.237,0.884,-0.205
22.18,-0.048,1.14,0.119
22.19,-0.106,0.917,0.114
22.2,-0.31,0.773,0.082
22.21,-0.442,1.316,-0.209
22.22,0.007,0.807,-0.09
22.23,-0.26,1.202,0.203
22.24,-0.005,0.705,0.119
22.25,-0.455,1.047,-0.207
22.26,-0.223,1.007,-0.098
22.27,-0.076,1.067,0.04
22.28,-0.167,0.904,0.106
22.29,-0.252,0.709,0.022
22.3,-0.341,1.307,-0.23
22.31,-0.091,0.767,0.009
22.32,-0.227,1.161,0.199
22.33,-0.091,0.706,0.085
22.34,-0.439,0.99,-0.188
22.35,-0.114,1.11,-0.086
22.36,-0.099,0.967,0.054
22.37,-0.169,0.956,0.132
22.38,-0.219,0.727,-0.033
22.39,-0.368,1.323,-0.232
22.4,-0.048,0.853,0.015
22.41,-0.229,1.115,0.17
22.42,-0.083,0.759,-0.004
22.43,-0.422,1.004,-0.202
22.44,-0.163,1.178,0.009
22.45,-0.103,0.855,0.113
22.46,-0.241,1.006,0.192
22.47,-0.204,0.767,-0.087
22.48,-0.279,1.215,-0.218
22.49,-0.178,0.894,0.134
22.5,-0.075,1.032,0.151
22.51,-0.208,0.813,-0.011
22.52,-0.398,1.164,-0.183
22.53,-0.099,0.994,-0.077
22.54,-0.202,0.878,0.164
22.55,-0.079,1.004,0.177
22.56,-0.313,0.77,-0.22
22.57,-0.319,1.228,-0.064
22.58,-0.042,0.916,0.078
22.59,-0.173,0.938,0.128
22.6,-0.246,0.763,0.02
22.61,-0.367,1.169,-0.183
22.62,-0.103,1.047,-0.07
22.63,-0.224,0.784,0.238
22.64,-0.118,1.042,0.086
22.65,-0.339,0.79,-0.199
22.66,-0.184,1.236,-0.079
22.67,-0.081,0.882,0.108
22.68,-0.154,0.906,0.141
22.69,-0.339,0.858,-0.03
22.7,-0.271,1.039,-0.205
22.71,-0.022,1.156,0.011
22.72,-0.245,0.776,0.182
22.73,-0.116,1.015,0.057
22.74,-0.359,0.844,-0.185
22.75,-0.175,1.208,-0.013
22.76,-0.059,0.877,0.079
22.77,-0.199,0.869,0.168
22.78,-0.312,1.003,-0.075
22.79,-0.231,0.869,-0.173
22.8,-0.153,1.262,0.096
22.81,-0.083,0.711,0.12
22.82,-0.192,1.009,-0.016
22.83,-0.368,0.916,-0.19
22.84,-0.144,1.188,-0.056
22.85,-0.152,0.843,0.079
22.86,-0.121,0.804,0.162
22.87,-0.348,1.129,-0.174
22.88,-0.232,0.798,-0.169
22.89,-0.081,1.283,0.081
22.9,-0.033,0.683,0.132
22.91,-0.302,1.014,0.018
22.92,-0.416,0.951,-0.168
22.93,-0.079,1.091,-0.052
22.94,-0.192,0.895,0.115
22.95,-0.076,0.797,0.117
22.96,-0.396,1.155,-0.221
22.97,-0.24,0.772,-0.09
22.98,-0.052,1.317,0.122
22.99,-0.114,0.689,0.137
23.0,-0.294,0.977,-0.006
23.01,-0.254,1.028,-0.187
23.02,-0.173,1.019,0.026
23.03,-0.233,0.98,0.18
23.04,-0.047,0.741,0.081
23.05,-0.511,1.207,-0.21
23.06,-0.168,0.794,0.0
23.07,-0.076,1.31,0.076
23.08,-0.124,0.622,0.122
23.09,-0.258,0.99,-0.005
23.1,-0.344,1.119,-0.189
23.11,-0.208,0.904,0.0
23.12,-0.104,1.061,0.143
23.13,-0.092,0.67,0.014
23.14,-0.533,1.272,-0.173
23.15,-0.019,0.864,-0.066
23.16,-0.201,1.128,0.085
23.17,-0.172,0.742,0.213
23.18,-0.267,0.97,-0.138
23.19,-0.301,1.073,-0.179
23.2,-0.089,0.955,0.112
23.21,-0.176,1.093,0.128
23.22,-0.173,0.634,-0.015
23.23,-0.509,1.304,-0.173
23.24,-0.024,0.877,-0.098
23.25,-0.185,1.043,0.142
23.26,-0.066,0.853,0.132
23.27,-0.337,0.908,-0.168
23.28,-0.302,1.14,-0.12
23.29,-0.077,0.945,0.093
23.3,-0.115,1.022,0.105
23.31,-0.262,0.677,0.007
23.32,-0.339,1.323,-0.211
23.33,-0.112,0.794,0.016
23.34,-0.218,1.122,0.188
23.35,-0.043,0.759,0.038
23.36,-0.459,1.019,-0.199
23.37,-0.091,1.09,0.01
23.38,-0.157,0.964,0.144
23.39,-0.246,0.969,0.147
23.4,-0.168,0.739,-0.065
23.41,-0.39,1.301,-0.194
23.42,-0.144,0.858,0.095
23.43,-0.059,1.108,0.136
23.44,-0.224,0.767,0.014
23.45,-0.45,1.024,-0.165
23.46,-0.016,1.172,-0.11
23.47,-0.167,0.754,0.064
23.48,-0.15,1.039,0.18
23.49,-0.287,0.8,-0.177
23.5,-0.298,1.153,-0.152
23.51,-0.134,0.956,0.132
23.52,-0.067,0.906,0.098
23.53,-0.245,0.887,-0.019
23.54,-0.373,1.048,-0.158
23.55,-0.085,1.152,-0.048
23.56,-0.159,0.775,0.15
23.57,-0.123,1.061,0.114
23.58,-0.375,0.782,-0.18
23.59,-0.244,1.141,-0.093
23.6,-0.045,1.031,0.09
23.61,-0.131,0.776,0.13
23.62,-0.291,1.008,0.035
23.63,-0.354,0.983,-0.22
23.64,-0.077,1.119,-0.062
23.65,-0.103,0.783,0.218
23.66,-0.148,1.037,0.095
23.67,-0.396,0.808,-0.153
23.68,-0.169,1.166,-0.012
23.69,-0.099,0.981,0.057
23.7,-0.158,0.687,0.135
23.71,-0.285,1.124,-0.017
23.72,-0.33,0.904,-0.204
23.73,-0.152,1.143,0.059
23.74,-0.029,0.77,0.139
23.75,-0.142,0.979,-0.009
23.76,-0.414,0.936,-0.159
23.77,-0.105,1.082,-0.077
23.78,-0.07,0.923,0.05
23.79,-0.153,0.745,0.187
23.8,-0.378,1.174,-0.135
23.81,-0.291,0.764,-0.175
23.82,-0.123,1.278,0.14
23.83,-0.02,0.767,0.1
23.84,-0.286,0.949,0.035
23.85,-0.377,1.033,-0.163
23.86,-0.082,1.069,-0.027
23.87,-0.164,1.006,0.083
23.88,-0.104,0.727,0.19
23.89,-0.437,1.223,-0.191
23.9,-0.291,0.782,-0.116
23.91,-0.017,1.272,0.112
23.92,-0.125,0.753,0.127
23.93,-0.339,0.907,0.033
23.94,-0.29,1.135,-0.206
23.95,-0.094,0.905,0.01
23.96,-0.25,1.106,0.171
23.97,0.008,0.674,0.08
23.98,-0.464,1.175,-0.245
23.99,-0.168,0.867,-0.002
24.0,-0.129,1.214,0.089
24.01,-0.153,0.739,0.128
24.02,-0.2,0.904,-0.057
24.03,-0.336,1.156,-0.21
24.04,-0.138,0.874,0.054
24.05,-0.16,1.16,0.143
24.06,-0.034,0.595,0.016
24.07,-0.498,1.259,-0.163
24.08,-0.063,0.91,-0.112
24.09,-0.196,1.023,0.117
24.1,-0.157,0.869,0.242
24.11,-0.29,0.895,-0.096
24.12,-0.305,1.111,-0.197
24.13,0.009,0.942,0.142
24.14,-0.204,1.169,0.129
24.15,-0.152,0.66,0.052
24.16,-0.435,1.373,-0.166
24.17,-0.179,0.836,-0.029
24.18,-0.174,1.063,0.158
24.19,-0.114,0.844,0.108
24.2,-0.411,0.928,-0.166
24.21,-0.251,1.104,-0.101
24.22,0.002,0.988,0.081
24.23,-0.179,0.982,0.101
24.24,-0.233,0.672,0.031
24.25,-0.337,1.32,-0.215
24.26,-0.149,0.818,0.026
24.27,-0.196,1.055,0.161
24.28,-0.104,0.85,0.086
24.29,-0.466,0.912,-0.151
24.3,-0.248,1.172,-0.056
24.31,0.017,0.9,0.039
24.32,-0.184,1.002,0.176
24.33,-0.305,0.735,0.012
24.34,-0.308,1.276,-0.22
24.35,-0.125,0.918,-0.049
24.36,-0.134,1.015,0.18
24.37,-0.105,0.869,0.06
24.38,-0.49,0.942,-0.133
24.39,-0.137,1.234,-0.028
24.4,-0.189,0.739,0.092
24.41,-0.176,0.996,0.19
24.42,-0.25,0.838,-0.106
24.43,-0.297,1.114,-0.209
24.44,-0.155,0.976,0.08
24.45,-0.084,0.957,0.125
24.46,-0.18,0.926,0.032
24.47,-0.379,0.899,-0.184
24.48,-0.11,1.256,-0.076
24.49,-0.177,0.717,0.092
24.5,-0.167,1.027,0.197
24.51,-0.319,0.832,-0.129
24.52,-0.313,1.058,-0.145
24.53,-0.06,1.116,0.078
24.54,-0.159,0.778,0.137
24.55,-0.259,0.957,0.023
24.56,-0.335,0.953,-0.108
24.57,-0.183,1.246,-0.039
24.58,-0.164,0.641,0.087
24.59,-0.068,1.058,0.175
24.6,-0.372,0.908,-0.167
24.61,-0.304,0.917,-0.09
24.62,-0.022,1.206,0.05
24.63,-0.104,0.709,0.109
24.64,-0.298,1.055,0.054
24.65,-0.265,0.967,-0.164
24.66,-0.178,1.178,-0.024
24.67,-0.245,0.735,0.196
24.68,-0.076,0.966,0.171
24.69,-0.399,0.977,-0.194
24.7,-0.299,0.908,-0.081
24.71,-0.029,1.227,0.016
24.72,-0.075,0.64,0.072
24.73,-0.296,1.118,0.005
24.74,-0.299,0.922,-0.176
24.75,-0.156,1.107,-0.036
24.76,-0.174,0.871,0.206
24.77,-0.117,0.88,0.087
24.78,-0.403,1.024,-0.194
24.79,-0.203,0.913,-0.024
24.8,-0.107,1.215,0.042
24.81,-0.131,0.613,0.127
24.82,-0.258,1.134,-0.037
24.83,-0.289,0.91,-0.189
24.84,-0.205,1.088,0.052
24.85,-0.122,0.853,0.129
24.86,-0.103,0.822,0.061
24.87,-0.456,1.166,-0.192
24.88,-0.203,0.839,-0.028
24.89,-0.119,1.234,0.031
24.9,-0.116,0.629,0.142
24.91,-0.357,1.101,-0.056
24.92,-0.264,0.865,-0.199
24.93,-0.126,1.1,0.051
24.94,-0.071,1.035,0.139
24.95,-0.089,0.695,-0.007
24.96,-0.409,1.099,-0.191
24.97,-0.062,0.98,-0.056
24.98,-0.208,1.055,0.091
24.99,-0.129,0.685,0.181
25.0,-0.403,1.158,-0.147
25.01,-0.269,0.784,-0.136
25.02,-0.091,1.229,0.107
25.03,-0.141,0.839,0.095
25.04,-0.236,0.829,0.047
25.05,-0.377,1.213,-0.154
25.06,-0.138,0.907,-0.038
25.07,-0.271,1.091,0.128
25.08,-0.005,0.724,0.135
25.09,-0.46,1.132,-0.17
25.1,-0.279,0.823,-0.084
25.11,0.016,1.213,0.045
25.12,-0.124,0.804,0.103
25.13,-0.27,0.818,0.069
25.14,-0.372,1.299,-0.223
25.15,-0.124,0.727,-0.067
25.16,-0.102,1.195,0.143
25.17,-0.078,0.707,0.076
25.18,-0.51,1.105,-0.162
25.19,-0.189,0.985,-0.049
25.2,-0.098,1.115,0.05
25.21,-0.111,0.846,0.139
25.22,-0.275,0.807,0.005
25.23,-0.388,1.291,-0.2
25.24,-0.133,0.784,0.033
25.25,-0.215,1.164,0.194
25.26,-0.022,0.723,0.102
25.27,-0.45,1.103,-0.204
25.28,-0.236,1.007,-0.022
25.29,-0.107,1.007,0.04
25.3,-0.113,0.934,0.15
25.31,-0.33,0.765,-0.044
25.32,-0.362,1.243,-0.178
25.33,-0.076,0.833,0.013
25.34,-0.201,1.137,0.17
25.35,-0.052,0.708,0.013
25.36,-0.433,1.055,-0.18
25.37,-0.125,1.124,-0.025
25.38,-0.102,0.899,0.093
25.39,-0.177,0.991,0.172
25.4,-0.283,0.769,-0.07
25.41,-0.354,1.242,-0.158
25.42,-0.182,0.861,0.074
25.43,-0.074,1.081,0.101
25.44,-0.154,0.779,0.003
25.45,-0.439,1.034,-0.16
25.46,-0.076,1.202,-0.09
25.47,-0.129,0.761,0.075
25.48,-0.141,1.02,0.211
25.49,-0.286,0.807,-0.146
25.5,-0.329,1.146,-0.13
25.51,-0.095,0.984,0.072
25.52,-0.069,0.939,0.099
25.53,-0.201,0.864,-0.004
25.54,-0.387,1.04,-0.152
25.55,-0.159,1.159,-0.078
25.56,-0.154,0.71,0.118
25.57,-0.069,1.072,0.156
25.58,-0.34,0.815,-0.202
25.59,-0.25,1.077,-0.122
25.6,-0.115,1.062,0.094
25.61,-0.14,0.846,0.146
25.62,-0.274,0.903,0.045
25.63,-0.338,1.046,-0.173
25.64,-0.154,1.172,-0.028
25.65,-0.183,0.666,0.144
25.66,-0.097,1.058,0.162
25.67,-0.378,0.858,-0.209
25.68,-0.235,1.018,-0.078
25.69,-0.081,1.095,0.047
25.7,-0.168,0.727,0.152
25.71,-0.241,1.033,0.063
25.72,-0.395,0.956,-0.215
25.73,-0.121,1.104,-0.033
25.74,-0.145,0.784,0.182
25.75,-0.191,1.014,0.117
25.76,-0.339,0.861,-0.252
25.77,-0.176,1.076,-0.021
25.78,-0.125,0.919,0.073
25.79,-0.188,0.826,0.172
25.8,-0.264,1.024,-0.036
25.81,-0.376,0.931,-0.144
25.82,-0.172,1.184,0.081
25.83,-0.053,0.78,0.156
25.84,-0.199,1.011,0.013
25.85,-0.341,0.885,-0.185
25.86,-0.129,1.169,-0.075
25.87,-0.207,0.859,0.063
25.88,-0.087,0.773,0.223
25.89,-0.331,1.098,-0.106
25.9,-0.285,0.756,-0.191
25.91,-0.091,1.27,0.061
25.92,-0.106,0.783,0.12
25.93,-0.189,0.983,0.016
25.94,-0.374,0.977,-0.189
25.95,-0.097,1.096,-0.07
25.96,-0.17,0.906,0.044
25.97,-0.077,0.777,0.219
25.98,-0.344,1.182,-0.121
25.99,-0.313,0.745,-0.138
26.0,-0.168,1.285,0.129
26.01,-0.058,0.778,0.11
26.02,-0.23,0.923,-0.018
26.03,-0.382,1.039,-0.147
26.04,-0.153,1.041,-0.023
26.05,-0.225,0.969,0.069
26.06,-0.085,0.744,0.24
26.07,-0.376,1.205,-0.203
26.08,-0.275,0.716,-0.128
26.09,-0.146,1.332,0.122
26.1,-0.043,0.758,0.079
26.11,-0.266,0.897,0.051
26.12,-0.313,1.126,-0.172
26.13,-0.117,0.944,-0.091
26.14,-0.205,1.004,0.132
26.15,-0.066,0.709,0.189
26.16,-0.393,1.189,-0.217
26.17,-0.236,0.731,-0.121
26.18,-0.151,1.266,0.095
26.19,-0.078,0.814,0.117
26.2,-0.242,0.832,0.011
26.21,-0.363,1.175,-0.143
26.22,-0.092,0.91,-0.043
26.23,-0.28,1.088,0.124
26.24,-0.058,0.687,0.173
26.25,-0.42,1.191,-0.193
26.26,-0.253,0.752,-0.149
26.27,-0.035,1.246,0.104
26.28,-0.145,0.858,0.132
26.29,-0.356,0.777,0.007
26.3,-0.27,1.241,-0.163
26.31,-0.126,0.866,-0.043
26.32,-0.245,1.098,0.151
26.33,0.009,0.709,0.103
26.34,-0.436,1.129,-0.213
26.35,-0.256,0.884,-0.039
26.36,-0.068,1.17,0.073
26.37,-0.088,0.839,0.097
26.38,-0.243,0.771,0.038
26.39,-0.383,1.323,-0.209
26.4,-0.076,0.775,-0.048
26.41,-0.237,1.181,0.19
26.42,-0.0,0.704,0.098
26.43,-0.495,1.072,-0.201
26.44,-0.198,0.99,-0.079
26.45,-0.022,1.078,0.033
26.46,-0.154,0.875,0.132
26.47,-0.263,0.744,0.006
26.48,-0.291,1.342,-0.252
26.49,-0.12,0.764,0.011
26.5,-0.181,1.158,0.167
26.51,-0.045,0.754,0.078
26.52,-0.483,0.993,-0.202
26.53,-0.274,1.039,-0.017
26.54,0.004,1.026,0.023
26.55,-0.198,0.947,0.112
26.56,-0.277,0.742,0.041
26.57,-0.328,1.326,-0.242
26.58,-0.139,0.767,-0.012
26.59,-0.06,1.181,0.129
26.6,-0.1,0.641,-0.016
26.61,-0.525,1.164,-0.126
26.62,-0.046,1.029,-0.086
26.63,-0.107,0.97,0.052
26.64,-0.232,0.893,0.248
26.65,-0.244,0.841,-0.12
26.66,-0.323,1.196,-0.148
26.67,-0.183,0.843,0.109
26.68,-0.045,1.105,0.151
26.69,-0.141,0.683,0.013
26.7,-0.512,1.178,-0.118
26.71,-0.061,1.042,-0.096
26.72,-0.204,0.876,0.108
26.73,-0.21,0.977,0.224
26.74,-0.234,0.816,-0.137
26.75,-0.299,1.199,-0.161
26.76,-0.171,0.881,0.123
26.77,-0.12,1.109,0.136
26.78,-0.198,0.733,-0.027
26.79,-0.433,1.12,-0.12
26.8,-0.09,1.099,-0.104
26.81,-0.151,0.778,0.08
26.82,-0.139,1.059,0.176
26.83,-0.333,0.77,-0.175
26.84,-0.297,1.121,-0.117
26.85,0.035,0.986,0.014
26.86,-0.174,0.963,0.167
26.87,-0.209,0.817,0.029
26.88,-0.384,1.073,-0.191
26.89,-0.125,1.135,-0.065
26.9,-0.085,0.79,0.117
26.91,-0.179,1.061,0.162
26.92,-0.312,0.773,-0.162
26.93,-0.29,1.213,-0.099
26.94,-0.26,0.657,0.036
26.95,-0.412,1.309,-0.16
26.96,-0.046,0.862,-0.044
26.97,-0.225,1.067,0.111
26.98,-0.089,0.789,0.199
26.99,-0.384,1.0,-0.173
27.0,-0.305,1.022,-0.127
27.01,0.013,1.022,0.061
27.02,-0.118,1.021,0.111
27.03,-0.294,0.631,0.03
27.04,-0.323,1.341,-0.208
27.05,-0.064,0.824,-0.026
27.06,-0.287,1.026,0.185
27.07,-0.038,0.822,0.116
27.08,-0.442,0.971,-0.138
27.09,-0.259,1.111,-0.063
27.1,-0.016,0.976,0.046
27.11,-0.171,1.008,0.132
27.12,-0.211,0.698,0.025
27.13,-0.428,1.343,-0.207
27.14,-0.098,0.807,-0.038
27.15,-0.121,1.003,0.208
27.16,-0.086,0.889,0.094
27.17,-0.461,0.889,-0.167
27.18,-0.243,1.22,-0.058
27.19,-0.013,0.896,0.025
27.2,-0.184,1.003,0.146
27.21,-0.263,0.737,0.005
27.22,-0.294,1.232,-0.185
27.23,-0.105,0.941,0.016
27.24,-0.21,0.965,0.215
27.25,-0.068,0.937,0.095
27.26,-0.469,0.848,-0.189
27.27,-0.188,1.231,-0.002
27.28,-0.068,0.857,0.051
27.29,-0.18,0.962,0.119
27.3,-0.234,0.851,-0.021
27.31,-0.315,1.132,-0.18
27.32,-0.17,0.99,0.011
27.33,-0.049,0.898,0.135
27.34,-0.176,0.818,-0.0
27.35,-0.391,1.019,-0.136
27.36,-0.204,1.2,-0.038
27.37,-0.148,0.736,0.068
27.38,-0.135,1.063,0.2
27.39,-0.249,0.801,-0.176
27.4,-0.325,1.135,-0.087
27.41,-0.168,1.008,0.092
27.42,-0.074,0.925,0.137
27.43,-0.239,0.892,0.029
27.44,-0.38,0.987,-0.173
27.45,-0.128,1.234,-0.098
27.46,-0.167,0.717,0.127
27.47,-0.116,1.039,0.175
27.48,-0.297,0.832,-0.154
27.49,-0.252,1.061,-0.151
27.5,-0.115,1.018,0.072
27.51,-0.101,0.828,0.128
27.52,-0.24,0.969,0.011
27.53,-0.31,0.939,-0.182
27.54,-0.108,1.257,-0.046
27.55,-0.232,0.72,0.118
27.56,-0.069,1.008,0.123
27.57,-0.338,0.883,-0.155
27.58,-0.303,1.073,-0.052
27.59,-0.039,1.116,0.037
27.6,-0.16,0.648,0.119
27.61,-0.31,1.049,0.055
27.62,-0.308,0.965,-0.177
27.63,-0.179,1.165,-0.017
27.64,-0.163,0.763,0.179
27.65,-0.183,0.968,0.131
27.66,-0.37,0.915,-0.178
27.67,-0.183,1.019,-0.076
27.68,-0.116,1.136,0.045
27.69,-0.095,0.657,0.117
27.7,-0.269,1.109,0.013
27.71,-0.296,0.898,-0.212
27.72,-0.187,1.148,0.006
27.73,-0.164,0.798,0.169
27.74,-0.086,0.943,0.093
27.75,-0.354,1.002,-0.188
27.76,-0.223,0.916,-0.077
27.77,-0.114,1.204,0.076
27.78,-0.076,0.614,0.172
27.79,-0.341,1.144,0.018
27.8,-0.312,0.914,-0.181
27.81,-0.166,1.106,0.036
27.82,-0.1,0.906,0.164
27.83,-0.193,0.844,0.062
27.84,-0.41,1.035,-0.152
27.85,-0.133,0.925,-0.068
27.86,-0.152,1.173,0.086
27.87,-0.147,0.635,0.187
27.88,-0.326,1.138,-0.064
27.89,-0.237,0.867,-0.209
27.9,-0.163,1.099,0.045
27.91,-0.133,0.958,0.179
27.92,-0.117,0.784,0.086
27.93,-0.448,1.155,-0.2
27.94,-0.123,0.866,-0.047
27.95,-0.178,1.199,0.073
27.96,-0.189,0.634,0.228
27.97,-0.277,1.122,-0.066
27.98,-0.351,0.898,-0.2
27.99,-0.161,1.021,0.059
28.0,-0.043,1.094,0.093
28.01,-0.147,0.683,0.032
28.02,-0.412,1.165,-0.149
28.03,-0.039,0.925,-0.102
28.04,-0.215,1.129,0.072
28.05,-0.132,0.68,0.193
28.06,-0.297,1.053,-0.1
28.07,-0.346,0.895,-0.171
28.08,-0.113,1.018,0.046
28.09,-0.024,1.107,0.083
28.1,-0.148,0.653,0.024
28.11,-0.412,1.277,-0.171
28.12,-0.13,0.885,-0.081
28.13,-0.127,1.067,0.061
28.14,-0.143,0.721,0.201
28.15,-0.308,1.054,-0.125
28.16,-0.278,0.787,-0.187
28.17,-0.107,1.157,0.127
28.18,-0.131,0.935,0.124
28.19,-0.159,0.699,-0.018
28.2,-0.455,1.278,-0.153
28.21,-0.062,0.829,-0.109
28.22,-0.191,1.127,0.102
28.23,-0.097,0.705,0.192
28.24,-0.377,1.133,-0.163
28.25,-0.228,0.919,-0.183
28.26,-0.182,1.08,0.122
28.27,-0.078,0.98,0.131
28.28,-0.191,0.666,-0.013
28.29,-0.507,1.317,-0.16
28.3,-0.045,0.853,-0.076
28.31,-0.22,1.12,0.079
28.32,-0.132,0.74,0.23
28.33,-0.322,1.056,-0.157
28.34,-0.242,0.931,-0.175
28.35,-0.149,1.03,0.099
28.36,-0.131,1.058,0.13
28.37,-0.139,0.649,0.015
28.38,-0.507,1.285,-0.153
28.39,-0.076,0.849,-0.046
28.4,-0.146,1.068,0.06
28.41,-0.191,0.791,0.209
28.42,-0.374,1.01,-0.117
28.43,-0.197,1.043,-0.182
28.44,-0.198,1.016,0.099
28.45,-0.119,1.08,0.117
28.46,-0.101,0.633,0.006
28.47,-0.497,1.323,-0.153
28.48,-0.089,0.881,-0.056
28.49,-0.189,1.06,0.111
28.5,-0.119,0.831,0.17
28.51,-0.375,0.919,-0.129
28.52,-0.238,1.084,-0.149
28.53,-0.148,0.918,0.101
28.54,-0.151,1.112,0.171
28.55,-0.15,0.651,0.001
28.56,-0.463,1.257,-0.183
28.57,-0.077,0.9,-0.069
28.58,-0.118,0.985,0.089
28.59,-0.113,0.951,0.189
28.6,-0.378,0.848,-0.162
28.61,-0.304,1.085,-0.128
28.62,0.005,0.933,0.105
28.63,-0.166,1.106,0.144
28.64,-0.175,0.655,0.057
28.65,-0.397,1.245,-0.199
28.66,-0.089,0.981,-0.087
28.67,-0.183,0.923,0.115
28.68,-0.152,0.958,0.191
28.69,-0.3,0.863,-0.138
28.7,-0.316,1.131,-0.173
28.71,-0.053,0.891,0.096
28.72,-0.051,1.15,0.103
28.73,-0.168,0.68,0.001
28.74,-0.485,1.085,-0.119
28.75,-0.054,1.067,-0.102
28.76,-0.152,0.838,0.035
28.77,-0.134,1.013,0.178
28.78,-0.312,0.814,-0.144
28.79,-0.289,1.164,-0.174
28.8,-0.049,0.932,0.103
28.81,-0.11,1.018,0.125
28.82,-0.21,0.771,0.036
28.83,-0.347,1.142,-0.169
28.84,-0.174,1.064,-0.056
28.85,-0.174,0.774,0.096
28.86,-0.115,1.067,0.169
28.87,-0.318,0.773,-0.126
28.88,-0.287,1.181,-0.108
28.89,-0.155,0.986,0.103
28.9,-0.136,0.94,0.109
28.91,-0.111,0.794,0.04
28.92,-0.453,1.112,-0.169
28.93,-0.085,1.136,-0.12
28.94,-0.121,0.703,0.081
28.95,-0.139,1.054,0.184
28.96,-0.283,0.774,-0.117
28.97,-0.305,1.134,-0.115
28.98,-0.108,0.911,0.094
28.99,-0.107,1.075,0.145
29.0,-0.214,0.732,0.02
29.01,-0.428,1.132,-0.155
29.02,-0.046,1.095,-0.093
29.03,-0.15,0.766,0.111
29.04,-0.193,1.02,0.173
29.05,-0.275,0.823,-0.157
29.06,-0.308,1.126,-0.151
29.07,-0.17,0.944,0.145
29.08,-0.069,1.063,0.124
29.09,-0.226,0.775,-0.011
29.1,-0.469,1.018,-0.107
29.11,-0.091,1.215,-0.088
29.12,-0.101,0.744,0.047
29.13,-0.16,1.036,0.199
29.14,-0.278,0.818,-0.145
29.15,-0.271,1.136,-0.176
29.16,-0.087,0.939,0.088
29.17,-0.084,0.95,0.141
29.18,-0.194,0.884,-0.024
29.19,-0.363,0.997,-0.142
29.2,-0.213,1.165,-0.041
29.21,-0.154,0.736,0.092
29.22,-0.135,1.062,0.165
29.23,-0.316,0.801,-0.156
29.24,-0.272,1.06,-0.135
29.25,-0.119,1.025,0.085
29.26,-0.125,0.864,0.162
29.27,-0.2,0.93,-0.001
29.28,-0.395,0.972,-0.143
29.29,-0.242,1.202,-0.049
29.3,-0.126,0.714,0.105
29.31,-0.13,1.063,0.197
29.32,-0.337,0.893,-0.145
29.33,-0.234,0.996,-0.165
29.34,-0.149,1.088,0.051
29.35,-0.072,0.859,0.131
29.36,-0.193,0.96,0.033
29.37,-0.37,0.881,-0.16
29.38,-0.139,1.274,-0.065
29.39,-0.135,0.743,0.069
29.4,-0.177,0.975,0.209
29.41,-0.306,0.916,-0.124
29.42,-0.248,0.958,-0.12
29.43,-0.177,1.147,0.062
29.44,-0.087,0.793,0.15
29.45,-0.185,1.009,0.014
29.46,-0.404,0.831,-0.179
29.47,-0.078,1.245,-0.044
29.48,-0.128,0.81,0.066
29.49,-0.206,0.893,0.191
29.5,-0.253,0.99,-0.069
29.51,-0.236,0.935,-0.163
29.52,-0.164,1.134,-0.009
29.53,-0.046,0.771,0.16
29.54,-0.146,1.067,-0.008
29.55,-0.364,0.874,-0.17
29.56,-0.176,1.207,-0.031
29.57,-0.09,0.833,0.043
29.58,-0.166,0.875,0.178
29.59,-0.353,1.042,-0.058
29.6,-0.235,0.886,-0.165
29.61,-0.185,1.174,-0.003
29.62,-0.131,0.741,0.203
29.63,-0.113,1.062,0.003
29.64,-0.379,0.815,-0.2
29.65,-0.185,1.091,-0.006
29.66,-0.094,1.012,0.089
29.67,-0.213,0.783,0.134
29.68,-0.27,1.084,-0.059
29.69,-0.256,0.869,-0.151
29.7,-0.21,1.216,0.042
29.71,-0.1,0.761,0.201
29.72,-0.153,0.995,0.062
29.73,-0.365,0.922,-0.198
29.74,-0.093,1.087,-0.092
29.75,-0.131,0.972,0.044
29.76,-0.163,0.732,0.193
29.77,-0.269,1.18,-0.059
29.78,-0.349,0.839,-0.168
29.79,-0.171,1.167,0.04
29.8,-0.059,0.791,0.177
29.81,-0.24,1.023,0.035
29.82,-0.373,0.875,-0.159
29.83,-0.124,1.142,-0.106
29.84,-0.173,0.874,0.073
29.85,-0.075,0.809,0.148
29.86,-0.276,1.109,-0.077
29.87,-0.32,0.861,-0.171
29.88,-0.181,1.211,0.004
29.89,-0.027,0.772,0.159
29.9,-0.229,1.016,0.063
29.91,-0.377,0.842,-0.153
29.92,-0.088,1.153,-0.068
29.93,-0.079,0.958,0.02
29.94,-0.172,0.714,0.183
29.95,-0.272,1.166,-0.021
29.96,-0.311,0.848,-0.198
29.97,-0.165,1.157,-0.019
29.98,-0.056,0.822,0.156
29.99,-0.198,0.998,0.036
30.0,-0.42,0.879,-0.183
30.01,-0.143,1.042,-0.033
30.02,-0.081,1.074,0.039
30.03,-0.17,0.667,0.151
30.04,-0.296,1.168,-0.013
30.05,-0.273,0.851,-0.182
30.06,-0.267,1.165,0.005
30.07,-0.079,0.8,0.186
30.08,-0.103,0.958,0.022
30.09,-0.504,0.941,-0.16
30.1,-0.055,0.982,-0.026
30.11,-0.141,1.183,0.054
30.12,-0.153,0.612,0.193
30.13,-0.244,1.175,-0.032
30.14,-0.275,0.854,-0.201
30.15,-0.292,1.127,0.004
30.16,-0.036,0.862,0.156
30.17,-0.132,0.915,0.061
30.18,-0.457,0.996,-0.164
30.19,-0.158,0.95,-0.018
30.2,-0.121,1.253,0.036
30.21,-0.14,0.584,0.182
30.22,-0.226,1.176,-0.036
30.23,-0.287,0.941,-0.213
30.24,-0.246,1.028,-0.018
30.25,-0.066,0.928,0.168
30.26,-0.156,0.865,0.068
30.27,-0.401,1.04,-0.155
30.28,-0.179,0.866,-0.032
30.29,-0.133,1.286,0.057
30.3,-0.118,0.592,0.139
30.31,-0.323,1.136,0.033
30.32,-0.294,0.945,-0.237
30.33,-0.206,1.013,-0.029
30.34,-0.154,0.95,0.178
30.35,-0.064,0.845,0.079
30.36,-0.488,1.079,-0.204
30.37,-0.128,0.812,0.009
30.38,-0.066,1.38,0.065
30.39,-0.13,0.624,0.104
30.4,-0.288,1.043,0.054
30.41,-0.254,0.991,-0.239
30.42,-0.186,0.948,-0.03
30.43,-0.187,1.009,0.211
30.44,-0.059,0.8,0.052
30.45,-0.496,1.112,-0.179
30.46,-0.199,0.805,-0.04
30.47,-0.031,1.362,0.018
30.48,-0.174,0.607,0.139
30.49,-0.33,0.995,0.057
30.5,-0.29,1.119,-0.251
30.51,-0.133,0.905,-0.037
30.52,-0.23,1.064,0.181
30.53,-0.03,0.708,0.107
30.54,-0.489,1.158,-0.155
30.55,-0.27,0.802,-0.042
30.56,-0.037,1.294,0.045
30.57,-0.119,0.675,0.122
30.58,-0.326,0.893,0.039
30.59,-0.255,1.184,-0.248
30.6,-0.153,0.993,-0.026
30.61,-0.195,0.99,0.19
30.62,-0.077,0.755,0.069
30.63,-0.471,1.146,-0.182
30.64,-0.24,0.826,0.018
30.65,-0.179,1.308,0.061
30.66,-0.116,0.622,0.129
30.67,-0.239,1.054,0.025
30.68,-0.363,1.041,-0.205
30.69,-0.152,0.907,-0.038
30.7,-0.125,1.093,0.14
30.71,-0.105,0.745,0.133
30.72,-0.422,1.171,-0.215
30.73,-0.244,0.83,-0.035
30.74,-0.135,1.249,0.056
30.75,-0.085,0.703,0.133
30.76,-0.342,0.95,0.002
30.77,-0.328,1.06,-0.174
30.78,-0.073,0.885,-0.055
30.79,-0.169,1.084,0.157
30.8,-0.025,0.718,0.12
30.81,-0.43,1.218,-0.188
30.82,-0.327,0.836,-0.049
30.83,-0.06,1.215,0.067
30.84,-0.103,0.762,0.146
30.85,-0.307,0.896,0.02
30.86,-0.379,1.207,-0.163
30.87,-0.094,0.879,-0.017
30.88,-0.223,1.151,0.142
30.89,-0.09,0.671,0.136
30.9,-0.402,1.192,-0.174
30.91,-0.258,0.888,-0.09
30.92,-0.118,1.16,0.074
30.93,-0.018,0.836,0.108
30.94,-0.343,0.816,0.014
30.95,-0.383,1.225,-0.144
30.96,-0.036,0.88,-0.018
30.97,-0.237,1.155,0.127
30.98,-0.143,0.667,0.182
30.99,-0.316,1.135,-0.2
31.0,-0.224,0.889,-0.135
31.01,-0.152,1.096,0.094
31.02,-0.083,0.933,0.123
31.03,-0.269,0.729,-0.008
31.04,-0.419,1.252,-0.133
31.05,-0.063,0.87,-0.029
31.06,-0.287,1.114,0.136
31.07,-0.065,0.689,0.151
31.08,-0.385,1.127,-0.201
31.09,-0.259,0.953,-0.147
31.1,-0.079,1.068,0.092
31.11,-0.16,1.003,0.152
31.12,-0.231,0.716,-0.016
31.13,-0.434,1.303,-0.162
31.14,-0.101,0.825,-0.056
31.15,-0.201,1.132,0.157
31.16,-0.123,0.786,0.17
31.17,-0.399,0.983,-0.169
31.18,-0.208,1.015,-0.122
31.19,-0.111,1.054,0.066
31.2,-0.116,0.988,0.12
31.21,-0.246,0.678,0.034
31.22,-0.426,1.284,-0.185
31.23,-0.107,0.835,-0.054
31.24,-0.207,1.058,0.151
31.25,-0.141,0.781,0.156
31.26,-0.345,0.923,-0.158
31.27,-0.197,1.06,-0.15
31.28,-0.101,0.958,0.071
31.29,-0.081,1.075,0.137
31.3,-0.248,0.646,0.011
31.31,-0.399,1.24,-0.127
31.32,-0.127,0.903,-0.037
31.33,-0.164,0.986,0.105
31.34,-0.116,0.896,0.171
31.35,-0.376,0.892,-0.157
31.36,-0.227,1.089,-0.112
31.37,-0.141,0.977,0.116
31.38,-0.162,1.029,0.149
31.39,-0.171,0.686,-0.027
31.4,-0.418,1.276,-0.157
31.41,-0.093,0.904,-0.063
31.42,-0.21,1.093,0.148
31.43,-0.091,0.835,0.127
31.44,-0.397,0.986,-0.184
31.45,-0.24,1.058,-0.088
31.46,-0.07,0.979,0.036
31.47,-0.118,1.015,0.117
31.48,-0.291,0.679,-0.014
31.49,-0.342,1.279,-0.181
31.5,-0.073,0.874,-0.054
31.51,-0.221,1.043,0.117
31.52,-0.104,0.843,0.17
31.53,-0.348,0.907,-0.191
31.54,-0.27,1.131,-0.125
31.55,-0.106,0.957,0.067
31.56,-0.099,1.021,0.132
31.57,-0.219,0.679,-0.017
31.58,-0.452,1.266,-0.158
31.59,-0.099,0.934,-0.023
31.6,-0.221,0.999,0.153
31.61,-0.129,0.905,0.117
31.62,-0.3,0.828,-0.155
31.63,-0.32,1.21,-0.134
31.64,-0.035,0.903,0.052
31.65,-0.099,1.007,0.105
31.66,-0.268,0.735,0.046
31.67,-0.346,1.226,-0.212
31.68,-0.078,0.941,-0.062
31.69,-0.194,0.898,0.148
31.7,-0.095,1.001,0.123
31.71,-0.337,0.785,-0.181
31.72,-0.279,1.169,-0.113
31.73,-0.048,0.942,0.064
31.74,-0.14,0.995,0.146
31.75,-0.223,0.747,0.042
31.76,-0.433,1.215,-0.154
31.77,-0.086,1.044,-0.056
31.78,-0.191,0.862,0.126
31.79,-0.106,1.002,0.155
31.8,-0.365,0.774,-0.184
31.81,-0.217,1.163,-0.127
31.82,-0.082,0.947,0.053
31.83,-0.116,0.934,0.127
31.84,-0.273,0.802,0.036
31.85,-0.369,1.105,-0.151
31.86,-0.112,1.074,-0.052
31.87,-0.193,0.778,0.188
31.88,-0.067,1.052,0.123
31.89,-0.334,0.786,-0.178
31.9,-0.251,1.207,-0.097
31.91,-0.049,0.949,0.026
31.92,-0.045,0.88,0.106
31.93,-0.312,0.914,0.028
31.94,-0.344,0.998,-0.168
31.95,-0.152,1.102,-0.039
31.96,-0.098,0.785,0.115
31.97,-0.166,1.077,0.137
31.98,-0.271,0.759,-0.191
31.99,-0.253,1.155,-0.112
32.0,-0.108,1.016,0.057
32.01,-0.094,0.843,0.143
32.02,-0.203,0.964,-0.013
32.03,-0.373,1.005,-0.165
32.04,-0.113,1.146,-0.042
32.05,-0.194,0.736,0.148
32.06,-0.098,1.069,0.155
32.07,-0.321,0.833,-0.179
32.08,-0.298,1.028,-0.099
32.09,-0.056,1.059,0.03
32.1,-0.059,0.821,0.13
32.11,-0.284,0.985,-0.002
32.12,-0.333,0.936,-0.155
32.13,-0.057,1.228,-0.056
32.14,-0.213,0.691,0.15
32.15,-0.136,1.003,0.172
32.16,-0.285,0.942,-0.194
32.17,-0.312,0.966,-0.135
32.18,-0.107,1.111,0.085
32.19,-0.085,0.784,0.16
32.2,-0.344,1.046,0.01
32.21,-0.312,0.914,-0.15
32.22,-0.152,1.195,-0.044
32.23,-0.172,0.771,0.186
32.24,-0.068,1.061,0.118
32.25,-0.351,0.826,-0.177
32.26,-0.295,1.15,-0.048
32.27,-0.018,1.005,0.02
32.28,-0.149,0.794,0.168
32.29,-0.31,0.994,-0.021
32.3,-0.296,0.927,-0.182
32.31,-0.076,1.157,-0.073
32.32,-0.124,0.755,0.156
32.33,-0.086,1.035,0.11
32.34,-0.348,0.851,-0.199
32.35,-0.252,1.042,-0.076
32.36,-0.068,1.071,-0.004
32.37,-0.105,0.74,0.142
32.38,-0.318,1.033,-0.001
32.39,-0.316,0.92,-0.178
32.4,-0.067,1.171,-0.036
32.41,-0.197,0.753,0.149
32.42,-0.063,0.993,0.138
32.43,-0.379,0.916,-0.195
32.44,-0.274,0.984,-0.035
32.45,-0.112,1.2,0.078
32.46,-0.152,0.663,0.131
32.47,-0.288,1.076,0.044
32.48,-0.336,0.955,-0.168
32.49,-0.167,1.137,-0.01
32.5,-0.16,0.762,0.117
32.51,-0.105,0.977,0.128
32.52,-0.372,0.948,-0.199
32.53,-0.274,0.906,-0.064
32.54,-0.077,1.236,0.061
32.55,-0.081,0.65,0.112
32.56,-0.347,1.086,0.021
32.57,-0.263,0.882,-0.167
32.58,-0.173,1.175,-0.024
32.59,-0.181,0.783,0.107
32.6,-0.065,0.914,0.152
32.61,-0.395,1.046,-0.191
32.62,-0.238,0.859,-0.075
32.63,-0.093,1.284,0.061
32.64,-0.083,0.626,0.117
32.65,-0.321,1.112,-0.003
32.66,-0.292,0.927,-0.171
32.67,-0.148,1.071,-0.012
32.68,-0.179,0.908,0.157
32.69,-0.125,0.823,0.113
32.7,-0.399,1.079,-0.181
32.71,-0.162,0.835,-0.085
32.72,-0.116,1.3,0.067
32.73,-0.09,0.637,0.131
32.74,-0.318,1.064,-0.035
32.75,-0.364,0.96,-0.148
32.76,-0.137,1.048,0.008
32.77,-0.177,0.913,0.087
32.78,-0.058,0.776,0.108
32.79,-0.404,1.185,-0.202
32.8,-0.241,0.797,-0.062
32.81,-0.029,1.303,0.079
32.82,-0.094,0.682,0.133
32.83,-0.36,1.01,-0.002
32.84,-0.295,0.994,-0.187
32.85,-0.112,0.993,0.011
32.86,-0.216,1.034,0.12
32.87,-0.064,0.732,0.112
32.88,-0.417,1.205,-0.22
32.89,-0.197,0.844,-0.049
32.9,-0.094,1.247,0.057
32.91,-0.065,0.691,0.138
32.92,-0.338,1.005,0.001
32.93,-0.339,1.062,-0.201
32.94,-0.082,0.885,-0.004
32.95,-0.178,1.119,0.183
32.96,-0.183,0.67,0.128
32.97,-0.428,1.186,-0.218
32.98,-0.111,0.841,-0.025
32.99,-0.149,1.215,0.081
33.0,-0.031,0.731,0.103
33.01,-0.298,0.961,-0.03
33.02,-0.358,1.135,-0.161
33.03,-0.138,1.083,0.098
33.04,-0.19,1.176,0.181
33.05,-0.153,0.664,0.03
33.06,-0.402,1.261,-0.201
33.07,-0.098,0.871,-0.076
33.08,-0.155,1.137,0.085
33.09,-0.114,0.741,0.193
33.1,-0.376,1.079,-0.106
33.11,-0.262,0.931,-0.178
33.12,-0.169,1.039,0.101
33.13,-0.131,1.074,0.112
33.14,-0.157,0.646,0.039
33.15,-0.469,1.294,-0.191
33.16,-0.099,0.861,-0.049
33.17,-0.152,1.081,0.107
33.18,-0.126,0.735,0.189
33.19,-0.359,1.008,-0.15
33.2,-0.21,0.999,-0.163
33.21,-0.188,1.029,0.121
33.22,-0.111,1.106,0.116
33.23,-0.12,0.626,-0.002
33.24,-0.469,1.298,-0.143
33.25,-0.133,0.897,-0.072
33.26,-0.166,1.038,0.098
33.27,-0.171,0.793,0.199
33.28,-0.335,0.942,-0.181
33.29,-0.198,1.086,-0.183
33.3,-0.129,0.91,0.106
33.31,-0.116,1.075,0.164
33.32,-0.247,0.7,0.019
33.33,-0.432,1.252,-0.151
33.34,-0.126,0.877,-0.052
33.35,-0.155,1.027,0.113
33.36,-0.18,0.878,0.192
33.37,-0.298,0.851,-0.181
33.38,-0.239,1.181,-0.12
33.39,-0.048,0.95,0.096
33.4,-0.173,1.058,0.13
33.41,-0.231,0.665,0.057
33.42,-0.391,1.285,-0.193
33.43,-0.091,0.953,-0.036
33.44,-0.187,0.928,0.176
33.45,-0.11,0.944,0.141
33.46,-0.339,0.822,-0.182
33.47,-0.284,1.192,-0.086
33.48,-0.055,0.92,0.088
33.49,-0.143,1.032,0.078
33.5,-0.208,0.73,0.001
33.51,-0.331,1.209,-0.191
33.52,-0.156,0.971,-0.022
33.53,-0.184,0.829,0.165
33.54,-0.093,1.03,0.153
33.55,-0.415,0.823,-0.176
33.56,-0.253,1.17,-0.09
33.57,-0.003,0.97,0.08
33.58,-0.169,0.976,0.136
33.59,-0.252,0.791,0.015
33.6,-0.352,1.142,-0.191
33.61,-0.131,1.036,-0.039
33.62,-0.219,0.812,0.204
33.63,-0.109,1.012,0.089
33.64,-0.371,0.78,-0.211
33.65,-0.233,1.226,-0.054
33.66,-0.081,0.921,0.066
33.67,-0.166,0.879,0.145
33.68,-0.22,0.933,-0.023
33.69,-0.365,1.064,-0.159
33.7,-0.153,1.063,-0.012
33.71,-0.076,0.81,0.16
33.72,-0.147,1.103,0.038
33.73,-0.345,0.75,-0.161
33.74,-0.33,1.222,-0.028
33.75,-0.054,0.947,0.057
33.76,-0.138,0.816,0.127
33.77,-0.309,0.945,-0.011
33.78,-0.262,1.013,-0.183
33.79,-0.102,1.125,-0.017
33.8,-0.149,0.713,0.222
33.81,-0.147,1.073,0.07
33.82,-0.332,0.831,-0.25
33.83,-0.18,1.133,-0.039
33.84,-0.078,0.935,0.056
33.85,-0.142,0.772,0.169
33.86,-0.284,0.929,-0.126
33.87,-0.271,0.981,-0.183
33.88,-0.164,1.145,0.068
33.89,-0.091,0.76,0.146
33.9,-0.198,1.037,-0.004
33.91,-0.402,0.89,-0.163
33.92,-0.135,1.203,-0.093
33.93,-0.139,0.826,0.079
33.94,-0.153,0.892,0.182
33.95,-0.244,0.99,-0.137
33.96,-0.308,0.906,-0.122
33.97,-0.136,1.194,0.089
33.98,-0.083,0.775,0.152
33.99,-0.252,1.047,-0.025
34.0,-0.408,0.849,-0.161
34.01,-0.107,1.198,-0.042
34.02,-0.159,0.842,0.068
34.03,-0.17,0.871,0.172
34.04,-0.327,1.054,-0.138
34.05,-0.254,0.884,-0.107
34.06,-0.133,1.287,0.042
34.07,-0.103,0.659,0.177
34.08,-0.209,1.055,-0.026
34.09,-0.448,0.939,-0.179
34.1,-0.161,1.043,-0.012
34.11,-0.125,0.884,0.135
34.12,-0.222,0.854,0.173
34.13,-0.341,1.114,-0.161
34.14,-0.169,0.841,-0.077
34.15,-0.142,1.28,0.047
34.16,-0.038,0.64,0.149
34.17,-0.25,1.053,-0.009
34.18,-0.393,0.958,-0.211
34.19,-0.12,0.998,-0.008
34.2,-0.187,0.968,0.141
34.21,-0.157,0.743,0.165
34.22,-0.41,1.177,-0.17
34.23,-0.214,0.809,-0.068
34.24,-0.115,1.324,0.074
34.25,-0.091,0.64,0.156
34.26,-0.295,1.012,-0.001
34.27,-0.325,1.046,-0.231
34.28,-0.103,0.953,-0.018
34.29,-0.149,1.055,0.132
34.3,-0.108,0.669,0.072
34.31,-0.451,1.206,-0.181
34.32,-0.161,0.878,-0.002
34.33,-0.14,1.216,0.083
34.34,-0.154,0.691,0.172
34.35,-0.282,0.996,-0.01
34.36,-0.284,1.049,-0.222
34.37,-0.113,0.95,0.01
34.38,-0.183,1.121,0.166
34.39,-0.045,0.626,0.081
34.4,-0.483,1.252,-0.18
34.41,-0.125,0.892,-0.069
34.42,-0.097,1.167,0.049
34.43,-0.126,0.712,0.165
34.44,-0.263,0.936,-0.049
34.45,-0.317,1.157,-0.214
34.46,-0.139,0.822,0.012
34.47,-0.172,1.173,0.167
34.48,-0.091,0.643,0.061
34.49,-0.498,1.192,-0.181
34.5,-0.04,0.933,-0.095
34.51,-0.131,1.098,0.083
34.52,-0.155,0.776,0.164
34.53,-0.237,0.897,-0.076
34.54,-0.355,1.172,-0.162
34.55,-0.166,0.87,0.065
34.56,-0.085,1.207,0.089
34.57,-0.079,0.633,0.016
34.58,-0.45,1.18,-0.171
34.59,-0.041,1.016,-0.095
34.6,-0.098,0.951,0.074
34.61,-0.249,0.895,0.27
34.62,-0.287,0.834,-0.085
34.63,-0.29,1.151,-0.211
34.64,-0.116,0.881,0.143
34.65,-0.119,1.165,0.115
34.66,-0.206,0.639,-0.015
34.67,-0.454,1.172,-0.141
34.68,-0.089,0.851,-0.054
34.69,-0.295,1.047,0.184
34.7,-0.041,0.84,0.124
34.71,-0.353,0.887,-0.18
34.72,-0.314,1.105,-0.085
34.73,-0.014,0.991,0.044
34.74,-0.117,1.056,0.12
34.75,-0.276,0.654,0.034
34.76,-0.302,1.271,-0.197
34.77,-0.125,0.958,-0.042
34.78,-0.214,0.989,0.117
34.79,-0.056,0.897,0.142
34.8,-0.365,0.876,-0.185
34.81,-0.238,1.16,-0.061
34.82,-0.031,0.939,0.032
34.83,-0.152,1.0,0.117
34.84,-0.201,0.667,0.001
34.85,-0.376,1.246,-0.184
34.86,-0.141,0.949,-0.031
34.87,-0.219,0.93,0.164
34.88,-0.089,0.956,0.122
34.89,-0.403,0.819,-0.158
34.9,-0.205,1.211,-0.061
34.91,-0.034,0.936,0.066
34.92,-0.11,0.969,0.117
34.93,-0.264,0.766,0.023
34.94,-0.379,1.202,-0.195
34.95,-0.11,0.993,-0.056
34.96,-0.18,0.811,0.163
34.97,-0.178,1.036,0.132
34.98,-0.348,0.812,-0.196
34.99,-0.236,1.178,-0.066
35.0,-0.037,0.897,0.102
35.01,-0.168,0.922,0.148
35.02,-0.306,0.847,-0.007
35.03,-0.283,1.096,-0.223
35.04,-0.073,1.036,-0.064
35.05,-0.156,0.814,0.195
35.06,-0.148,1.048,0.053
35.07,-0.374,0.777,-0.191
35.08,-0.198,1.241,-0.056
35.09,-0.088,0.894,0.072
35.1,-0.134,0.838,0.15
35.11,-0.256,0.945,-0.061
35.12,-0.359,0.999,-0.157
35.13,-0.065,1.114,-0.007
35.14,-0.08,0.812,0.154
35.15,-0.174,1.05,0.073
35.16,-0.37,0.813,-0.174
35.17,-0.228,1.2,-0.051
35.18,-0.068,0.908,0.098
35.19,-0.133,0.819,0.144
35.2,-0.31,1.014,-0.062
35.21,-0.326,0.921,-0.138
35.22,-0.116,1.176,0.033
35.23,-0.097,0.762,0.125
35.24,-0.155,1.038,0.012
35.25,-0.362,0.855,-0.193
35.26,-0.093,1.157,-0.084
35.27,-0.17,0.88,0.115
35.28,-0.344,0.912,-0.218
35.29,-0.158,0.953,0.064
35.3,-0.085,1.101,0.12
35.31,-0.107,0.662,0.032
35.32,-0.496,1.24,-0.154
35.33,-0.069,0.907,-0.107
35.34,-0.18,1.135,0.07
35.35,-0.083,0.709,0.161
35.36,-0.315,1.034,-0.146
35.37,-0.285,0.984,-0.152
35.38,-0.078,1.205,0.061
35.39,-0.137,0.84,0.128
35.4,-0.208,0.742,0.075
35.41,-0.425,1.297,-0.192
35.42,-0.067,0.841,-0.046
35.43,-0.218,1.129,0.117
35.44,-0.116,0.711,0.164
35.45,-0.445,1.127,-0.162
35.46,-0.153,0.833,-0.186
35.47,-0.087,1.152,0.139
35.48,-0.148,0.925,0.138
35.49,-0.236,0.686,-0.012
35.5,-0.393,1.296,-0.177
35.51,-0.021,0.806,-0.01
35.52,-0.24,1.159,0.151
35.53,-0.091,0.748,0.139
35.54,-0.44,1.06,-0.192
35.55,-0.241,0.969,-0.077
35.56,-0.061,1.062,0.084
35.57,-0.152,0.945,0.119
35.58,-0.282,0.721,0.02
35.59,-0.378,1.286,-0.197
35.6,-0.062,0.781,-0.031
35.61,-0.151,1.16,0.181
35.62,-0.136,0.742,0.118
35.63,-0.424,1.028,-0.204
35.64,-0.164,1.127,-0.075
35.65,-0.153,0.9,0.113
35.66,-0.105,0.974,0.126
35.67,-0.245,0.771,-0.051
35.68,-0.362,1.276,-0.2
35.69,-0.144,0.915,0.048
35.7,-0.112,1.097,0.117
35.71,-0.146,0.759,0.077
35.72,-0.415,1.004,-0.162
35.73,-0.029,1.213,-0.096
35.74,-0.166,0.81,0.118
35.75,-0.191,1.001,0.2
35.76,-0.257,0.743,-0.102
35.77,-0.322,1.186,-0.178
35.78,-0.131,0.947,0.106
35.79,-0.111,1.019,0.134
35.8,-0.18,0.833,0.056
35.81,-0.366,0.985,-0.17
35.82,-0.121,1.239,-0.119
35.83,-0.121,0.693,0.057
35.84,-0.144,1.082,0.184
35.85,-0.331,0.798,-0.14
35.86,-0.33,1.068,-0.164
35.87,-0.051,1.05,0.089
35.88,-0.149,0.927,0.128
35.89,-0.242,0.889,-0.01
35.9,-0.351,0.993,-0.119
35.91,-0.172,1.207,-0.059
35.92,-0.192,0.659,0.151
35.93,-0.106,1.061,0.14
35.94,-0.35,0.847,-0.173
35.95,-0.265,1.049,-0.098
35.96,-0.025,1.098,0.085
35.97,-0.136,0.739,0.123
35.98,-0.296,1.018,0.022
35.99,-0.272,0.969,-0.177
36.0,-0.149,1.152,-0.036
36.01,-0.216,0.708,0.204
36.02,-0.078,0.989,0.102
36.03,-0.362,0.907,-0.218
36.04,-0.24,1.028,-0.069
36.05,-0.008,1.124,-0.007
36.06,-0.097,0.641,0.122
36.07,-0.341,1.12,0.019
36.08,-0.252,0.878,-0.253
36.09,-0.173,1.159,-0.018
36.1,-0.168,0.821,0.181
36.11,-0.074,0.939,0.069
36.12,-0.416,0.972,-0.174
36.13,-0.2,0.999,-0.047
36.14,-0.101,1.156,0.06
36.15,-0.095,0.625,0.15
36.16,-0.287,1.185,0.001
36.17,-0.331,0.85,-0.217
36.18,-0.21,1.097,0.079
36.19,-0.066,0.915,0.158
36.2,-0.219,0.929,-0.012
36.21,-0.415,0.932,-0.138
36.22,-0.064,1.132,-0.092
36.23,-0.218,0.944,0.106
36.24,-0.152,0.715,0.2
36.25,-0.353,1.188,-0.151
36.26,-0.287,0.761,-0.156
36.27,-0.137,1.332,0.136
36.28,-0.058,0.737,0.134
36.29,-0.287,0.962,0.006
36.3,-0.386,1.059,-0.135
36.31,-0.14,0.991,-0.053
36.32,-0.278,1.006,0.125
36.33,-0.057,0.721,0.179
36.34,-0.433,1.155,-0.151
36.35,-0.301,0.712,-0.093
36.36,-0.085,1.313,0.092
36.37,-0.056,0.744,0.092
36.38,-0.271,0.907,0.003
36.39,-0.354,1.143,-0.147
36.4,-0.182,0.905,-0.034
36.41,-0.214,1.04,0.161
36.42,-0.004,0.726,0.12
36.43,-0.473,1.171,-0.223
36.44,-0.266,0.84,-0.004
36.45,-0.071,1.29,0.064
36.46,-0.106,0.715,0.097
36.47,-0.275,0.879,0.042
36.48,-0.303,1.228,-0.223
36.49,-0.122,0.818,-0.044
36.5,-0.215,1.107,0.169
36.51,-0.02,0.674,0.117
36.52,-0.53,1.177,-0.191
36.53,-0.182,0.855,-0.02
36.54,-0.128,1.163,0.092
36.55,-0.204,0.794,0.17
36.56,-0.291,0.871,-0.007
36.57,-0.323,1.245,-0.226
36.58,-0.153,0.78,-0.002
36.59,-0.116,1.198,0.137
36.6,-0.024,0.649,0.051
36.61,-0.538,1.119,-0.135
36.62,-0.063,0.994,-0.025
36.63,-0.126,1.029,0.077
36.64,-0.18,0.873,0.2
36.65,-0.28,0.854,-0.059
36.66,-0.379,1.205,-0.168
36.67,-0.177,0.832,0.052
36.68,-0.104,1.192,0.126
36.69,-0.057,0.626,0.015
36.7,-0.477,1.176,-0.147
36.71,-0.112,1.067,-0.048
36.72,-0.182,0.907,0.099
36.73,-0.197,0.935,0.196
36.74,-0.262,0.818,-0.108
36.75,-0.33,1.238,-0.166
36.76,-0.166,0.859,0.072
36.77,-0.071,1.098,0.107
36.78,-0.139,0.688,0.011
36.79,-0.426,1.142,-0.151
36.8,-0.105,1.114,-0.046
36.81,-0.211,0.815,0.063
36.82,-0.114,1.017,0.173
36.83,-0.282,0.787,-0.165
36.84,-0.339,1.158,-0.142
36.85,-0.085,0.966,0.069
36.86,-0.083,1.01,0.087
36.87,-0.214,0.747,0.03
36.88,-0.422,1.075,-0.108
36.89,-0.066,1.165,-0.075
36.9,-0.124,0.756,0.107
36.91,-0.099,1.079,0.168
36.92,-0.348,0.762,-0.181
36.93,-0.303,1.162,-0.116
36.94,-0.043,1.006,0.071
36.95,-0.119,0.894,0.092
36.96,-0.238,0.871,0.047
36.97,-0.31,1.068,-0.147
36.98,-0.143,1.139,-0.019
36.99,-0.211,0.711,0.153
37.0,-0.105,1.083,0.133
37.01,-0.406,0.771,-0.219
37.02,-0.263,1.282,-0.047
37.03,-0.063,0.916,0.029
37.04,-0.164,0.856,0.114
37.05,-0.252,0.851,0.005
37.06,-0.251,1.098,-0.207
37.07,-0.114,1.028,-0.066
37.08,-0.131,0.793,0.206
37.09,-0.126,1.038,0.063
37.1,-0.369,0.733,-0.213
37.11,-0.203,1.259,-0.035
37.12,-0.139,0.925,0.072
37.13,-0.183,0.835,0.176
37.14,-0.24,0.979,-0.032
37.15,-0.364,0.983,-0.146
37.16,-0.135,1.121,-0.015
37.17,-0.072,0.803,0.165
37.18,-0.152,1.067,0.062
37.19,-0.437,0.802,-0.188
37.2,-0.122,1.169,-0.107
37.21,-0.095,0.885,0.073
37.22,-0.151,0.815,0.151
37.23,-0.319,1.032,-0.052
37.24,-0.277,0.879,-0.154
37.25,-0.163,1.176,0.012
37.26,-0.034,0.753,0.123
37.27,-0.154,1.017,0.045
37.28,-0.403,0.899,-0.166
37.29,-0.129,1.14,-0.09
37.3,-0.172,0.884,0.066
37.31,-0.077,0.794,0.221
37.32,-0.392,1.126,-0.101
37.33,-0.252,0.766,-0.145
37.34,-0.195,1.27,0.049
37.35,-0.061,0.745,0.161
37.36,-0.173,1.012,0.034
37.37,-0.394,0.918,-0.203
37.38,-0.095,1.077,-0.054
37.39,-0.147,0.994,0.101
37.4,-0.189,0.728,0.181
37.41,-0.341,1.189,-0.103
37.42,-0.21,0.839,-0.144
37.43,-0.209,1.255,0.112
37.44,-0.083,0.73,0.14
37.45,-0.161,0.969,-0.008
37.46,-0.418,1.041,-0.186
37.47,-0.191,0.981,-0.029
37.48,-0.09,1.025,0.08
37.49,-0.114,0.707,0.181
37.5,-0.404,1.192,-0.126
37.51,-0.252,0.778,-0.136
37.52,-0.142,1.257,0.117
37.53,-0.076,0.779,0.145
37.54,-0.225,0.933,-0.007
37.55,-0.515,1.094,-0.165
37.56,-0.041,0.898,-0.042
37.57,-0.158,1.11,0.069
37.58,-0.136,0.669,0.154
37.59,-0.366,1.2,-0.172
37.6,-0.197,0.83,-0.118
37.61,-0.113,1.234,0.098
37.62,-0.008,0.754,0.099
37.63,-0.324,0.864,-0.001
37.64,-0.297,1.211,-0.212
37.65,-0.068,0.865,-0.038
37.66,-0.247,1.118,0.18
37.67,-0.02,0.692,0.071
37.68,-0.482,1.183,-0.226
37.69,-0.219,0.836,-0.059
37.7,-0.03,1.187,0.076
37.71,-0.115,0.813,0.09
37.72,-0.283,0.83,0.027
37.73,-0.326,1.276,-0.237
37.74,-0.146,0.781,-0.042
37.75,-0.15,1.176,0.184
37.76,-0.069,0.677,0.064
37.77,-0.514,1.138,-0.178
37.78,-0.035,0.962,-0.046
37.79,-0.132,1.073,0.077
37.8,-0.205,0.879,0.161
37.81,-0.217,0.795,-0.045
37.82,-0.36,1.212,-0.211
37.83,-0.073,0.958,0.129
37.84,-0.196,1.138,0.142
37.85,-0.104,0.581,0.008
37.86,-0.452,1.282,-0.209
37.87,-0.044,0.932,-0.063
37.88,-0.135,1.041,0.092
37.89,-0.141,0.827,0.163
37.9,-0.327,0.914,-0.129
37.91,-0.228,1.17,-0.158
37.92,-0.176,0.943,0.135
37.93,-0.142,1.099,0.145
37.94,-0.145,0.627,-0.031
37.95,-0.476,1.277,-0.148
37.96,-0.067,0.951,-0.046
37.97,-0.223,0.946,0.123
37.98,-0.109,0.906,0.183
37.99,-0.369,0.876,-0.179
38.0,-0.295,1.138,-0.104
38.01,0.042,0.959,0.087
38.02,-0.16,1.053,0.126
38.03,-0.323,0.683,0.045
38.04,-0.306,1.245,-0.198
38.05,-0.069,0.965,-0.063
38.06,-0.233,0.842,0.233
38.07,-0.072,1.022,0.091
38.08,-0.365,0.802,-0.268
38.09,-0.286,1.187,0.005
38.1,-0.006,0.905,0.081
38.11,-0.19,0.952,0.131
38.12,-0.276,0.807,0.013
38.13,-0.34,1.166,-0.193
38.14,-0.202,1.032,0.01
38.15,-0.126,0.867,0.202
38.16,-0.093,0.953,0.042
38.17,-0.487,0.852,-0.147
38.18,-0.135,1.309,-0.064
38.19,-0.035,0.782,-0.002
38.2,-0.252,0.937,0.219
38.21,-0.186,0.933,-0.112
38.22,-0.339,1.003,-0.177
38.23,-0.153,1.146,0.094
38.24,-0.117,0.816,0.103
38.25,-0.167,0.99,0.014
38.26,-0.415,0.869,-0.103
38.27,-0.183,1.231,-0.084
38.28,-0.125,0.771,0.07
38.29,-0.113,0.957,0.223
38.3,-0.37,0.965,-0.113
38.31,-0.249,0.859,-0.159
38.32,-0.143,1.283,0.121
38.33,-0.052,0.661,0.097
38.34,-0.232,1.033,0.029
38.35,-0.42,0.941,-0.153
38.36,-0.088,1.142,-0.043
38.37,-0.221,0.807,0.127
38.38,-0.202,0.848,0.187
38.39,-0.308,1.094,-0.17
38.4,-0.322,0.863,-0.117
38.41,-0.127,1.248,0.132
38.42,-0.025,0.67,0.116
38.43,-0.281,1.029,0.023
38.44,-0.375,0.988,-0.149
38.45,-0.118,1.051,-0.02
38.46,-0.254,0.889,0.154
38.47,-0.037,0.844,0.146
38.48,-0.426,1.149,-0.203
38.49,-0.274,0.823,-0.045
38.5,-0.068,1.34,0.035
38.51,-0.036,0.642,0.088
38.52,-0.362,1.049,0.054
38.53,-0.307,1.01,-0.223
38.54,-0.05,1.003,-0.04
38.55,-0.226,1.008,0.166
38.56,-0.052,0.714,0.114
38.57,-0.458,1.157,-0.201
38.58,-0.192,0.854,0.001
38.59,-0.135,1.243,0.063
38.6,-0.135,0.677,0.149
38.61,-0.347,1.015,-0.003
38.62,-0.331,1.042,-0.21
38.63,-0.221,1.122,0.1
38.64,-0.018,0.914,0.092
38.65,-0.115,0.797,0.009
38.66,-0.458,1.211,-0.151
38.67,-0.146,0.846,-0.04
38.68,-0.124,1.139,0.044
38.69,-0.184,0.736,0.217
38.7,-0.414,1.102,-0.116
38.71,-0.203,0.848,-0.224
38.72,-0.11,1.153,0.112
38.73,-0.117,0.897,0.107
38.74,-0.157,0.733,0.015
38.75,-0.485,1.307,-0.17
38.76,-0.11,0.805,-0.021
38.77,-0.219,1.154,0.108
38.78,-0.1,0.765,0.132
38.79,-0.359,1.035,-0.174
38.8,-0.275,0.974,-0.093
38.81,-0.042,1.085,0.063
38.82,-0.141,0.91,0.137
38.83,-0.203,0.695,0.016
38.84,-0.467,1.338,-0.191
38.85,-0.034,0.797,-0.056
38.86,-0.26,1.171,0.163
38.87,-0.104,0.744,0.154
38.88,-0.37,1.049,-0.181
38.89,-0.25,1.075,-0.098
38.9,-0.083,0.942,0.091
38.91,-0.072,1.006,0.106
38.92,-0.251,0.667,-0.027
38.93,-0.376,1.323,-0.174
38.94,-0.072,0.844,-0.035
38.95,-0.208,1.036,0.119
38.96,-0.042,0.811,0.135
38.97,-0.411,0.997,-0.197
38.98,-0.253,1.088,-0.041
38.99,-0.05,0.974,0.099
39.0,-0.124,1.006,0.07
39.01,-0.242,0.699,-0.013
39.02,-0.311,1.304,-0.222
39.03,-0.076,0.864,-0.02
39.04,-0.183,1.061,0.158
39.05,-0.036,0.84,0.014
39.06,-0.486,0.922,-0.189
39.07,-0.105,1.234,-0.009
39.08,-0.092,0.861,0.084
39.09,-0.261,0.971,0.199
39.1,-0.192,0.785,-0.069
39.11,-0.303,1.224,-0.238
39.12,-0.186,0.924,0.097
39.13,-0.06,0.991,0.15
39.14,-0.136,0.887,0.01
39.15,-0.464,0.915,-0.135
39.16,-0.15,1.19,-0.061
39.17,-0.116,0.744,0.064
39.18,-0.162,1.057,0.19
39.19,-0.284,0.8,-0.147
39.2,-0.301,1.057,-0.159
39.21,-0.065,1.099,0.094
39.22,-0.179,0.826,0.165
39.23,-0.167,0.953,0.035
39.24,-0.362,0.945,-0.173
39.25,-0.19,1.15,-0.06
39.26,-0.157,0.76,0.141
39.27,-0.151,1.027,0.165
39.28,-0.366,0.857,-0.169
39.29,-0.28,1.0,-0.114
39.3,-0.05,1.193,0.054
39.31,-0.143,0.723,0.115
39.32,-0.237,1.013,0.025
39.33,-0.316,0.96,-0.165
39.34,-0.214,1.183,-0.005
39.35,-0.167,0.728,0.132
39.36,-0.086,1.015,0.102
39.37,-0.367,0.923,-0.165
39.38,-0.244,0.929,-0.075
39.39,-0.093,1.217,0.039
39.4,-0.088,0.629,0.111
39.41,-0.261,1.07,0.045
39.42,-0.322,0.922,-0.197
39.43,-0.133,1.134,-0.025
39.44,-0.216,0.821,0.141
39.45,-0.127,0.921,0.123
39.46,-0.369,0.892,-0.206
39.47,-0.15,1.08,-0.062
39.48,-0.194,1.028,0.128
39.49,-0.087,0.706,0.186
39.5,-0.418,1.073,0.001
39.51,-0.249,0.829,-0.226
39.52,-0.072,1.256,0.025
39.53,-0.188,0.799,0.171
39.54,-0.161,0.932,0.08
39.55,-0.363,1.0,-0.182
39.56,-0.139,1.015,-0.089
39.57,-0.172,1.022,0.091
39.58,-0.094,0.681,0.186
39.59,-0.374,1.206,-0.091
39.6,-0.302,0.785,-0.151
39.61,-0.157,1.189,0.069
39.62,-0.05,0.895,0.075
39.63,-0.139,0.859,-0.006
39.64,-0.384,1.057,-0.149
39.65,-0.082,1.014,-0.046
39.66,-0.163,1.087,0.077
39.67,-0.125,0.671,0.207
39.68,-0.466,1.185,-0.077
39.69,-0.198,0.787,-0.193
39.7,-0.08,1.3,0.128
39.71,-0.141,0.85,0.107
39.72,-0.188,0.794,0.048
39.73,-0.4,1.204,-0.186
39.74,-0.187,0.891,-0.029
39.75,-0.142,1.092,0.062
39.76,-0.079,0.697,0.18
39.77,-0.492,1.139,-0.138
39.78,-0.26,0.815,-0.14
39.79,-0.029,1.215,0.062
39.8,-0.154,0.854,0.108
39.81,-0.172,0.746,0.035
39.82,-0.423,1.282,-0.161
39.83,-0.098,0.853,-0.056
39.84,-0.256,1.146,0.116
39.85,-0.028,0.683,0.15
39.86,-0.472,1.12,-0.173
39.87,-0.248,0.885,-0.119
39.88,-0.047,1.144,0.084
39.89,-0.139,0.899,0.129
39.9,-0.26,0.71,0.03
39.91,-0.298,1.334,-0.203
39.92,-0.119,0.822,0.013
39.93,-0.194,1.126,0.138
39.94,-0.02,0.749,0.109
39.95,-0.518,1.082,-0.17
39.96,-0.278,0.976,-0.078
39.97,-0.059,1.055,0.064
39.98,-0.124,0.933,0.096
39.99,-0.279,0.733,0.056
40.0,-0.373,1.323,-0.195
40.01,-0.065,0.774,-0.069
40.02,-0.141,1.115,0.157
40.03,-0.056,0.721,0.102
40.04,-0.446,1.08,-0.168
40.05,-0.187,1.085,-0.077
40.06,-0.101,0.866,0.053
40.07,-0.167,0.963,0.189
40.08,-0.243,0.766,-0.062
40.09,-0.395,1.222,-0.2
40.1,-0.078,0.832,0.032
40.11,-0.146,1.162,0.123
40.12,-0.091,0.746,0.049
40.13,-0.453,0.975,-0.148
40.14,-0.099,1.164,-0.105
40.15,-0.08,0.833,0.042
40.16,-0.164,1.039,0.171
40.17,-0.236,0.733,-0.122
40.18,-0.403,1.146,-0.152
40.19,-0.096,0.978,0.088
40.2,-0.131,1.073,0.108
40.21,-0.145,0.807,0.021
40.22,-0.405,0.935,-0.147
40.23,-0.09,1.186,-0.062
40.24,-0.135,0.793,0.083
40.25,-0.2,0.988,0.162
40.26,-0.287,0.825,-0.054
40.27,-0.323,1.22,-0.12
40.28,-0.187,0.934,0.125
40.29,-0.105,1.026,0.126
40.3,-0.188,0.789,0.001
40.31,-0.407,1.1,-0.11
40.32,-0.101,1.151,-0.1
40.33,-0.183,0.728,0.103
40.34,-0.084,1.052,0.204
40.35,-0.342,0.801,-0.168
40.36,-0.332,1.127,-0.129
40.37,-0.011,1.019,0.04
40.38,-0.124,0.906,0.112
40.39,-0.326,0.881,0.086
40.4,-0.285,1.034,-0.194
40.41,-0.106,1.13,-0.076
40.42,-0.254,0.79,0.223
40.43,-0.006,1.026,0.111
40.44,-0.42,0.79,-0.173
40.45,-0.233,1.15,-0.053
40.46,-0.052,1.037,0.003
40.47,-0.131,0.758,0.138
40.48,-0.274,1.016,0.044
40.49,-0.285,0.983,-0.226
40.5,-0.162,1.113,-0.019
40.51,-0.261,0.763,0.209
40.52,-0.112,1.051,0.119
40.53,-0.336,0.803,-0.225
40.54,-0.209,1.111,-0.068
40.55,-0.061,1.093,0.003
40.56,-0.105,0.692,0.139
40.57,-0.274,1.024,0.075
40.58,-0.315,0.994,-0.202
40.59,-0.112,1.132,-0.05
40.6,-0.2,0.747,0.188
40.61,-0.125,0.998,0.103
40.62,-0.412,0.891,-0.202
40.63,-0.194,0.999,-0.05
40.64,-0.062,1.176,0.052
40.65,-0.171,0.633,0.16
40.66,-0.29,1.087,0.029
40.67,-0.308,0.946,-0.174
40.68,-0.164,1.121,-0.04
40.69,-0.106,0.779,0.157
40.7,-0.093,0.97,0.07
40.71,-0.425,0.977,-0.193
40.72,-0.198,0.919,-0.083
40.73,0.0,1.236,0.042
40.74,-0.138,0.62,0.148
40.75,-0.346,1.152,-0.016
40.76,-0.332,0.877,-0.223
40.77,-0.161,1.073,-0.011
40.78,-0.095,0.868,0.22
40.79,-0.141,0.918,0.08
40.8,-0.44,1.008,-0.214
40.81,-0.136,0.904,-0.022
40.82,-0.166,1.256,0.015
40.83,-0.088,0.55,0.163
40.84,-0.329,1.177,0.002
40.85,-0.323,0.878,-0.247
40.86,-0.161,1.044,0.001
40.87,-0.076,0.988,0.165
40.88,-0.146,0.801,0.062
40.89,-0.411,1.107,-0.144
40.9,-0.121,0.933,-0.056
40.91,-0.218,1.187,0.047
40.92,-0.07,0.608,0.197
40.93,-0.378,1.125,-0.056
40.94,-0.315,0.864,-0.196
40.95,-0.135,1.026,0.027
40.96,-0.123,1.044,0.173
40.97,-0.118,0.739,0.07
40.98,-0.425,1.171,-0.188
40.99,-0.081,0.847,-0.03
41.0,-0.2,1.239,0.061
41.01,-0.061,0.656,0.147
41.02,-0.392,1.077,-0.067
41.03,-0.27,0.912,-0.208
41.04,-0.103,1.044,0.035
41.05,-0.196,1.095,0.194
41.06,-0.111,0.66,0.044
41.07,-0.47,1.211,-0.173
41.08,-0.064,0.883,-0.023
41.09,-0.187,1.17,0.095
41.1,-0.13,0.595,0.159
41.11,-0.349,1.197,-0.125
41.12,-0.287,0.898,-0.147
41.13,-0.163,1.068,0.077
41.14,-0.048,0.965,0.109
41.15,-0.208,0.749,0.019
41.16,-0.5,1.211,-0.168
41.17,-0.034,0.868,-0.031
41.18,-0.237,1.176,0.12
41.19,-0.101,0.668,0.19
41.2,-0.396,1.156,-0.199
41.21,-0.19,0.88,-0.17
41.22,-0.144,1.131,0.109
41.23,-0.105,0.968,0.107
41.24,-0.215,0.679,0.005
41.25,-0.487,1.285,-0.134
41.26,-0.068,0.868,-0.053
41.27,-0.165,1.11,0.069
41.28,-0.043,0.734,0.181
41.29,-0.466,1.062,-0.185
41.3,-0.189,0.931,-0.136
41.31,0.021,1.084,0.098
41.32,-0.175,0.974,0.13
41.33,-0.255,0.706,0.002
41.34,-0.317,1.339,-0.241
41.35,-0.117,0.769,-0.011
41.36,-0.22,1.098,0.187
41.37,-0.044,0.776,0.047
41.38,-0.432,0.966,-0.221
41.39,-0.126,1.109,-0.068
41.4,-0.091,0.956,0.041
41.41,-0.162,0.934,0.141
41.42,-0.233,0.743,-0.022
41.43,-0.333,1.308,-0.217
41.44,-0.144,0.866,0.017
41.45,-0.122,1.058,0.215
41.46,-0.14,0.785,0.065
41.47,-0.425,0.988,-0.183
41.48,-0.121,1.213,-0.058
41.49,-0.098,0.773,0.065
41.5,-0.159,1.021,0.166
41.51,-0.255,0.796,-0.083
41.52,-0.349,1.177,-0.19
41.53,-0.086,0.914,0.068
41.54,-0.074,1.037,0.139
41.55,-0.196,0.843,-0.023
41.56,-0.442,0.921,-0.131
41.57,-0.056,1.212,-0.095
41.58,-0.11,0.724,0.043
41.59,-0.11,1.05,0.178
41.6,-0.27,0.78,-0.156
41.61,-0.405,1.112,-0.105
41.62,-0.019,1.05,0.098
41.63,-0.163,0.823,0.125
41.64,-0.291,0.988,0.052
41.65,-0.297,1.014,-0.203
41.66,-0.192,1.176,-0.052
41.67,-0.221,0.714,0.199
41.68,-0.009,1.038,0.111
41.69,-0.431,0.786,-0.187
41.7,-0.208,1.011,-0.045
41.71,-0.043,1.176,0.039
41.72,-0.163,0.674,0.15
41.73,-0.303,1.072,0.068
41.74,-0.257,0.939,-0.259
41.75,-0.175,1.095,-0.035
41.76,-0.165,0.786,0.212
41.77,-0.068,1.001,0.052
41.78,-0.406,0.897,-0.191
41.79,-0.194,1.043,-0.02
41.8,-0.068,1.187,0.043
41.81,-0.142,0.607,0.116
41.82,-0.284,1.124,0.013
41.83,-0.294,0.944,-0.228
41.84,-0.172,1.121,0.036
41.85,-0.142,0.829,0.233
41.86,-0.092,0.916,0.033
41.87,-0.359,0.99,-0.234
41.88,-0.057,0.984,-0.013
41.89,-0.118,1.17,0.049
41.9,-0.138,0.762,0.183
41.91,-0.308,1.144,-0.131
41.92,-0.278,0.792,-0.165
41.93,-0.075,1.265,0.101
41.94,-0.129,0.717,0.124
41.95,-0.249,1.01,0.027
41.96,-0.399,1.019,-0.205
41.97,-0.112,0.943,-0.054
41.98,-0.163,1.019,0.141
41.99,-0.073,0.78,0.156
42.0,-0.454,1.125,-0.17
42.01,-0.194,0.751,-0.102
42.02,-0.109,1.339,0.119
42.03,-0.187,0.66,0.147
42.04,-0.252,0.944,-0.004
42.05,-0.334,1.105,-0.217
42.06,-0.086,0.887,-0.044
42.07,-0.165,1.092,0.147
42.08,-0.068,0.724,0.103
42.09,-0.468,1.176,-0.187
42.1,-0.182,0.841,-0.064
42.11,-0.056,1.228,0.044
42.12,-0.077,0.719,0.139
42.13,-0.41,0.953,0.033
42.14,-0.353,1.106,-0.222
42.15,-0.084,0.847,-0.006
42.16,-0.096,1.194,0.135
42.17,-0.085,0.646,0.043
42.18,-0.433,1.235,-0.193
42.19,-0.109,0.964,-0.015
42.2,-0.177,1.06,0.082
42.21,-0.106,0.788,0.177
42.22,-0.328,0.898,-0.055
42.23,-0.343,1.126,-0.173
42.24,-0.12,0.879,0.1
42.25,-0.141,1.172,0.156
42.26,-0.157,0.618,0.078
42.27,-0.43,1.247,-0.187
42.28,-0.135,0.976,-0.026
42.29,-0.165,0.942,0.102
42.3,-0.066,0.902,0.181
42.31,-0.428,0.859,-0.135
42.32,-0.26,1.134,-0.133
42.33,-0.062,0.944,0.101
42.34,-0.194,1.04,0.121
42.35,-0.134,0.677,0.037
42.36,-0.429,1.304,-0.201
42.37,-0.128,0.961,-0.036
42.38,-0.223,0.906,0.182
42.39,-0.112,0.943,0.117
42.4,-0.38,0.775,-0.193
42.41,-0.18,1.242,-0.081
42.42,-0.145,0.893,0.116
42.43,-0.172,0.935,0.14
42.44,-0.272,0.802,0.008
42.45,-0.368,1.17,-0.223
42.46,-0.032,0.939,-0.05
42.47,-0.169,0.912,0.152
42.48,-0.163,1.011,0.094
42.49,-0.343,0.767,-0.176
42.5,-0.121,1.296,-0.068
42.51,-0.117,0.817,0.072
42.52,-0.147,0.937,0.135
42.53,-0.301,0.87,-0.042
42.54,-0.383,1.002,-0.196
42.55,-0.065,1.08,0.023
42.56,-0.042,0.838,0.113
42.57,-0.199,0.988,0.026
42.58,-0.337,0.829,-0.194
42.59,-0.072,1.264,-0.111
42.6,-0.177,0.766,0.105
42.61,-0.187,0.909,0.244
42.62,-0.315,1.022,-0.128
42.63,-0.415,0.872,-0.166
42.64,-0.078,1.208,0.093
42.65,-0.06,0.752,0.133
42.66,-0.293,1.01,-0.001
42.67,-0.272,0.928,-0.158
42.68,-0.201,1.167,-0.055
42.69,-0.262,0.793,0.192
42.7,-0.045,0.884,0.129
42.71,-0.415,1.013,-0.2
42.72,-0.117,1.057,-0.009
42.73,-0.072,1.192,0.06
42.74,-0.225,0.635,0.13
42.75,-0.238,1.14,0.025
42.76,-0.303,0.912,-0.222
42.77,-0.281,1.175,0.048
42.78,0.009,0.823,0.11
42.79,-0.093,0.9,0.027
42.8,-0.481,1.02,-0.113
42.81,-0.016,0.979,-0.126
42.82,-0.203,1.12,0.118
42.83,-0.173,0.637,0.173
42.84,-0.281,1.164,-0.126
42.85,-0.323,0.821,-0.163
42.86,-0.147,1.188,0.116
42.87,-0.082,0.901,0.139
42.88,-0.194,0.81,0.029
42.89,-0.393,1.149,-0.155
42.9,-0.129,0.936,-0.078
42.91,-0.146,1.122,0.072
42.92,-0.047,0.722,0.162
42.93,-0.427,1.132,-0.152
42.94,-0.287,0.823,-0.147
42.95,-0.088,1.182,0.088
42.96,-0.133,0.871,0.108
42.97,-0.241,0.782,0.079
42.98,-0.385,1.24,-0.163
42.99,-0.105,0.874,-0.044
43.0,-0.221,1.113,0.117
43.01,-0.048,0.712,0.151
43.02,-0.479,1.109,-0.174
43.03,-0.193,0.868,-0.121
43.04,-0.068,1.204,0.12
43.05,-0.132,0.864,0.098
43.06,-0.238,0.746,-0.026
43.07,-0.391,1.299,-0.149
43.08,-0.101,0.784,-0.001
43.09,-0.188,1.109,0.132
43.1,-0.056,0.745,0.065
43.11,-0.417,1.077,-0.213
43.12,-0.188,1.02,-0.018
43.13,-0.147,1.02,0.113
43.14,-0.096,0.904,0.096
43.15,-0.26,0.765,-0.048
43.16,-0.449,1.257,-0.181
43.17,-0.03,0.811,0.053
43.18,-0.115,1.168,0.102
43.19,-0.164,0.689,0.011
43.2,-0.398,1.134,-0.156
43.21,-0.152,1.094,-0.105
43.22,-0.172,0.773,0.139
43.23,-0.143,1.057,0.172
43.24,-0.375,0.783,-0.137
43.25,-0.296,1.189,-0.144
43.26,-0.048,0.925,0.081
43.27,-0.146,0.991,0.112
43.28,-0.138,0.769,-0.004
43.29,-0.36,1.121,-0.159
43.3,-0.198,1.142,0.002
43.31,-0.144,0.745,0.147
43.32,-0.187,1.052,0.094
43.33,-0.339,0.752,-0.219
43.34,-0.173,1.272,-0.029
43.35,-0.1,0.948,0.085
43.36,-0.228,0.782,0.181
43.37,-0.195,0.936,0.001
43.38,-0.341,1.038,-0.231
43.39,-0.113,1.113,0.055
43.4,-0.071,0.83,0.146
43.41,-0.28,1.018,0.046
43.42,-0.416,0.808,-0.134
43.43,-0.138,1.25,-0.064
43.44,-0.108,0.857,0.041
43.45,-0.19,0.863,0.282
43.46,-0.327,1.048,-0.101
43.47,-0.329,0.83,-0.125
43.48,-0.071,1.26,0.113
43.49,-0.091,0.751,0.124
43.5,-0.309,1.002,0.02
43.51,-0.31,0.948,-0.159
43.52,-0.207,1.134,-0.033
43.53,-0.173,0.771,0.175
43.54,-0.121,0.933,0.095
43.55,-0.399,0.954,-0.175
43.56,-0.203,0.946,-0.054
43.57,-0.104,1.211,0.058
43.58,-0.124,0.603,0.151
43.59,-0.314,1.134,0.015
43.6,-0.437,0.905,-0.19
43.61,-0.195,1.069,0.02
43.62,-0.211,1.025,0.018
43.63,-0.325,1.005,-0.232
43.64,-0.146,1.135,-0.043
43.65,-0.135,0.769,0.219
43.66,-0.168,1.018,0.084
43.67,-0.356,0.83,-0.216
43.68,-0.182,1.148,-0.062
43.69,-0.081,0.99,0.036
43.7,-0.193,0.723,0.18
43.71,-0.206,1.089,-0.093
43.72,-0.418,0.867,-0.191
43.73,-0.088,1.227,0.054
43.74,-0.08,0.815,0.074
43.75,-0.198,0.933,0.026
43.76,-0.342,0.986,-0.148
43.77,-0.142,1.088,-0.121
43.78,-0.124,0.927,0.092
43.79,-0.069,0.779,0.178
43.8,-0.481,1.126,-0.148
43.81,-0.22,0.711,-0.192
43.82,-0.06,1.347,0.1
43.83,-0.189,0.688,0.126
43.84,-0.184,0.927,0.033
43.85,-0.383,1.142,-0.183
43.86,-0.139,0.876,-0.042
43.87,-0.117,1.042,0.151
43.88,-0.079,0.748,0.073
43.89,-0.483,1.146,-0.194
43.9,-0.175,0.852,-0.023
43.91,-0.096,1.285,0.078
43.92,-0.164,0.68,0.127
43.93,-0.242,0.927,0.004
43.94,-0.377,1.184,-0.241
43.95,-0.069,0.82,-0.005
43.96,-0.132,1.178,0.174
43.97,-0.102,0.657,0.058
43.98,-0.491,1.22,-0.192
43.99,-0.116,0.932,-0.045
44.0,-0.165,1.076,0.101
44.01,-0.152,0.83,0.17
44.02,-0.293,0.889,-0.097
44.03,-0.333,1.107,-0.2
44.04,-0.067,0.886,0.127
44.05,-0.199,1.123,0.147
44.06,-0.206,0.614,0.026
44.07,-0.332,1.293,-0.193
44.08,-0.107,0.963,-0.057
44.09,-0.268,0.95,0.208
44.1,-0.087,0.928,0.105
44.11,-0.35,0.834,-0.241
44.12,-0.202,1.274,-0.048
44.13,-0.075,0.86,0.051
44.14,-0.252,0.975,0.156
44.15,-0.137,0.757,-0.015
44.16,-0.429,1.228,-0.242
44.17,-0.092,0.923,0.033
44.18,-0.084,1.022,0.144
44.19,-0.261,0.874,0.104
44.2,-0.337,1.054,-0.142
44.21,-0.172,1.203,-0.141
44.22,-0.118,0.695,0.156
44.23,-0.14,1.07,0.208
44.24,-0.353,0.736,-0.164
44.25,-0.26,1.147,-0.163
44.26,0.048,1.03,0.053
44.27,-0.207,0.883,0.13
44.28,-0.257,0.909,0.101
44.29,-0.359,1.028,-0.239
44.3,-0.139,1.06,-0.073
44.31,-0.134,0.788,0.237
44.32,-0.153,1.065,0.048
44.33,-0.361,0.747,-0.214
44.34,-0.243,1.187,-0.026
44.35,-0.116,1.069,0.101
44.36,-0.193,0.72,0.183
44.37,-0.254,1.026,-0.034
44.38,-0.319,0.942,-0.224
44.39,-0.111,1.166,-0.006
44.4,-0.075,0.822,0.193
44.41,-0.224,1.015,0.043
44.42,-0.34,0.842,-0.193
44.43,-0.094,1.184,-0.097
44.44,-0.145,0.907,0.056
44.45,-0.167,0.751,0.245
44.46,-0.31,1.169,-0.106
44.47,-0.303,0.792,-0.173
44.48,-0.103,1.251,0.084
44.49,-0.05,0.756,0.104
44.5,-0.23,0.957,0.009
44.51,-0.29,0.996,-0.189
44.52,-0.245,1.007,-0.056
44.53,-0.183,0.982,0.14
44.54,-0.118,0.778,0.199
44.55,-0.425,1.097,-0.141
44.56,-0.249,0.816,-0.081
44.57,-0.041,1.317,0.078
44.58,-0.14,0.635,0.092
44.59,-0.25,0.97,0.108
44.6,-0.371,1.133,-0.268
44.61,-0.121,0.866,-0.058
44.62,-0.083,1.171,0.171
44.63,-0.157,0.662,0.089
44.64,-0.478,1.159,-0.141
44.65,-0.119,0.974,-0.03
44.66,-0.194,1.179,0.105
44.67,-0.1,0.622,0.149
44.68,-0.233,0.993,-0.01
44.69,-0.385,1.154,-0.213
44.7,-0.095,0.863,0.03
44.71,-0.232,1.181,0.17
44.72,-0.134,0.632,0.091
44.73,-0.386,1.249,-0.185
44.74,-0.165,0.927,-0.091
44.75,-0.111,1.06,0.074
44.76,-0.096,0.838,0.193
44.77,-0.374,0.87,-0.117
44.78,-0.297,1.049,-0.206
44.79,-0.028,0.958,0.112
44.8,-0.196,1.199,0.085
44.81,-0.04,0.583,0.021
44.82,-0.411,1.27,-0.177
44.83,-0.201,0.954,-0.066
44.84,-0.089,0.957,0.064
44.85,-0.101,0.944,0.156
44.86,-0.406,0.795,-0.15
44.87,-0.237,1.15,-0.113
44.88,0.012,0.971,0.078
44.89,-0.201,1.045,0.143
44.9,-0.113,0.691,0.032
44.91,-0.479,1.267,-0.193
44.92,-0.099,0.941,-0.063
44.93,-0.146,0.902,0.174
44.94,-0.099,0.986,0.073
44.95,-0.363,0.802,-0.194
44.96,-0.316,1.217,-0.097
44.97,0.004,0.898,0.056
44.98,-0.114,0.964,0.086
44.99,-0.209,0.75,0.056
45.0,-0.317,1.215,-0.215
45.01,-0.086,0.949,-0.063
45.02,-0.12,1.093,0.19
45.03,-0.116,0.862,0.026
45.04,-0.41,0.903,-0.2
45.05,-0.159,1.258,-0.009
45.06,-0.169,0.804,0.11
45.07,-0.189,1.009,0.199
45.08,-0.273,0.781,-0.107
45.09,-0.311,1.132,-0.229
45.1,-0.027,0.995,0.088
45.11,-0.196,0.917,0.155
45.12,-0.103,0.898,0.016
45.13,-0.405,0.969,-0.147
45.14,-0.172,1.194,-0.08
45.15,-0.148,0.709,0.118
45.16,-0.147,1.079,0.137
45.17,-0.336,0.78,-0.145
45.18,-0.331,1.042,-0.134
45.19,0.0,1.102,0.094
45.2,-0.214,0.759,0.171
45.21,-0.205,0.996,0.023
45.22,-0.329,0.949,-0.203
45.23,-0.198,1.187,0.004
45.24,-0.09,0.749,0.138
45.25,-0.173,1.023,0.138
45.26,-0.299,0.878,-0.183
45.27,-0.231,1.042,-0.127
45.28,-0.114,1.112,0.079
45.29,-0.073,0.684,0.143
45.3,-0.216,1.091,0.0
45.31,-0.388,0.902,-0.166
45.32,-0.161,1.152,-0.017
45.33,-0.08,0.779,0.14
45.34,-0.207,0.948,0.086
45.35,-0.369,0.963,-0.18
45.36,-0.142,0.977,-0.082
45.37,-0.14,1.197,0.1
45.38,-0.113,0.59,0.124
45.39,-0.32,1.126,-0.002
45.4,-0.253,0.901,-0.226
45.41,-0.112,1.094,0.016
45.42,-0.128,0.853,0.148
45.43,-0.097,0.911,0.024
45.44,-0.415,1.05,-0.186
45.45,-0.194,0.92,-0.004
45.46,-0.098,1.167,0.098
45.47,-0.157,0.648,0.126
45.48,-0.283,1.133,-0.066
45.49,-0.297,0.875,-0.179
45.5,-0.168,1.157,0.132
45.51,-0.081,0.869,0.115
45.52,-0.198,0.778,0.007
45.53,-0.454,1.209,-0.154
45.54,-0.088,0.863,-0.078
45.55,-0.245,1.128,0.082
45.56,-0.052,0.701,0.178
45.57,-0.42,1.118,-0.144
45.58,-0.309,0.867,-0.132
45.59,-0.003,1.203,0.038
45.6,-0.142,0.861,0.089
45.61,-0.265,0.738,0.08
45.62,-0.366,1.291,-0.217
45.63,-0.142,0.756,-0.063
45.64,-0.194,1.166,0.202
45.65,-0.072,0.718,0.111
45.66,-0.489,1.045,-0.15
45.67,-0.203,0.963,-0.056
45.68,-0.079,1.111,0.062
45.69,-0.154,0.922,0.126
45.7,-0.248,0.748,0.02
45.71,-0.355,1.316,-0.232
45.72,-0.122,0.783,0.002
45.73,-0.213,1.174,0.21
45.74,-0.044,0.724,0.063
45.75,-0.46,1.031,-0.185
45.76,-0.097,1.087,-0.05
45.77,-0.139,0.966,0.08
45.78,-0.182,0.918,0.162
45.79,-0.147,0.745,-0.044
45.8,-0.412,1.307,-0.208
45.81,-0.136,0.8,0.061
45.82,-0.094,1.181,0.145
45.83,-0.18,0.632,0.043
45.84,-0.379,1.212,-0.187
45.85,-0.136,1.049,-0.107
45.86,-0.205,0.901,0.046
45.87,-0.01,0.938,0.176
45.88,-0.438,0.819,-0.101
45.89,-0.344,1.147,-0.142
45.9,0.054,0.931,0.022
45.91,-0.193,1.043,0.132
45.92,-0.22,0.691,0.024
45.93,-0.302,1.203,-0.198
45.94,-0.163,0.985,-0.067
45.95,-0.173,0.882,0.207
45.96,-0.139,1.01,0.099
45.97,-0.307,0.732,-0.235
45.98,-0.187,1.288,-0.046
45.99,-0.066,0.901,0.047
46.0,-0.19,0.93,0.142
46.01,-0.201,0.819,0.054
46.02,-0.323,1.154,-0.214
46.03,-0.141,0.984,0.001
46.04,-0.124,0.821,0.199
46.05,-0.21,1.052,0.113
46.06,-0.407,0.741,-0.187
46.07,-0.147,1.233,-0.115
46.08,-0.081,0.984,0.096
46.09,-0.187,0.865,0.121
46.1,-0.209,0.878,-0.02
46.11,-0.338,1.098,-0.214
46.12,-0.122,1.076,0.011
46.13,-0.105,0.784,0.169
46.14,-0.169,1.067,0.082
46.15,-0.403,0.783,-0.16
46.16,-0.164,1.227,-0.046
46.17,-0.095,0.9,0.065
46.18,-0.171,0.82,0.13
46.19,-0.307,0.984,-0.023
46.2,-0.346,0.964,-0.147
46.21,-0.114,1.164,0.033
46.22,-0.008,0.744,0.128
46.23,-0.227,1.037,-0.004
46.24,-0.411,0.88,-0.143
46.25,-0.123,1.174,-0.082
46.26,-0.132,0.844,0.091
46.27,-0.03,0.865,0.142
46.28,-0.421,1.094,-0.17
46.29,-0.245,0.784,-0.157
46.3,-0.066,1.334,0.104
46.31,-0.168,0.65,0.147
46.32,-0.314,1.033,0.035
46.33,-0.316,0.967,-0.234
46.34,-0.159,1.023,-0.065
46.35,-0.149,0.992,0.185
46.36,0.008,0.796,0.054
46.37,-0.448,1.104,-0.206
46.38,-0.157,0.885,-0.028
46.39,-0.116,1.307,0.037
46.4,-0.139,0.614,0.152
46.41,-0.253,1.066,0.017
46.42,-0.428,0.992,-0.243
46.43,-0.151,0.928,0.068
46.44,-0.119,1.163,0.159
46.45,-0.146,0.626,0.062
46.46,-0.479,1.164,-0.17
46.47,-0.014,0.926,-0.087
46.48,-0.135,1.208,0.078
46.49,-0.167,0.666,0.187
46.5,-0.246,0.966,-0.088
46.51,-0.321,1.006,-0.199
46.52,-0.113,1.056,0.153
46.53,-0.168,1.092,0.101
46.54,-0.148,0.611,0.027
46.55,-0.46,1.305,-0.159
46.56,-0.058,0.873,-0.103
46.57,-0.194,1.099,0.159
46.58,-0.158,0.795,0.239
46.59,-0.327,0.947,-0.19
46.6,-0.259,1.041,-0.143
46.61,-0.119,0.974,0.141
46.62,-0.168,1.042,0.111
46.63,-0.234,0.669,0.017
46.64,-0.398,1.305,-0.185
46.65,-0.054,0.782,-0.022
46.66,-0.156,1.208,0.169
46.67,-0.068,0.684,0.109
46.68,-0.45,1.06,-0.207
46.69,-0.11,1.079,-0.073
46.7,-0.151,0.944,0.088
46.71,-0.124,0.95,0.159
46.72,-0.247,0.751,-0.072
46.73,-0.407,1.26,-0.183
46.74,-0.127,0.885,0.119
46.75,-0.169,1.18,0.137
46.76,-0.119,0.663,0.067
46.77,-0.457,1.076,-0.141
46.78,-0.092,1.16,-0.126
46.79,-0.051,0.807,0.039
46.8,-0.193,1.055,0.195
46.81,-0.301,0.726,-0.122
46.82,-0.357,1.131,-0.186
46.83,0.021,1.025,0.102
46.84,-0.241,1.049,0.174
46.85,-0.321,0.775,0.053
46.86,-0.231,1.08,-0.18
46.87,-0.122,1.158,-0.09
46.88,-0.206,0.764,0.239
46.89,-0.092,1.103,0.092
46.9,-0.334,0.703,-0.207
46.91,-0.358,1.22,-0.015
46.92,-0.048,0.974,0.069
46.93,-0.156,0.863,0.099
46.94,-0.241,0.945,0.061
46.95,-0.352,0.998,-0.205
46.96,-0.141,1.081,-0.055
46.97,-0.08,0.8,0.177
46.98,-0.132,1.063,0.095
46.99,-0.413,0.8,-0.188
47.0,-0.127,1.199,-0.09
47.01,-0.159,0.98,0.068
47.02,-0.112,0.773,0.189
47.03,-0.269,1.018,-0.015
47.04,-0.406,0.901,-0.176
47.05,-0.169,1.178,-0.005
47.06,-0.096,0.789,0.103
47.07,-0.086,0.986,0.013
47.08,-0.394,0.941,-0.143
47.09,-0.055,1.196,-0.113
47.1,-0.223,0.914,0.116
47.11,-0.142,0.737,0.207
47.12,-0.289,1.103,-0.119
47.13,-0.287,0.804,-0.152
47.14,-0.141,1.284,0.095
47.15,-0.095,0.761,0.115
47.16,-0.233,0.936,0.039
47.17,-0.365,0.975,-0.172
47.18,-0.048,1.114,-0.121
47.19,-0.146,0.939,0.083
47.2,-0.114,0.741,0.19
47.21,-0.385,1.179,-0.168
47.22,-0.3,0.779,-0.122
47.23,-0.086,1.328,0.126
47.24,-0.107,0.72,0.116
47.25,-0.316,0.974,0.019
47.26,-0.332,1.092,-0.179
47.27,-0.134,0.9,-0.027
47.28,-0.232,1.049,0.252
47.29,-0.053,0.698,0.102
47.3,-0.475,1.162,-0.208
47.31,-0.195,0.892,-0.037
47.32,-0.183,1.248,0.112
47.33,-0.122,0.681,0.108
47.34,-0.263,0.935,-0.007
47.35,-0.346,1.104,-0.239
47.36,-0.07,0.863,0.019
47.37,-0.138,1.213,0.128
47.38,-0.131,0.601,0.11
47.39,-0.464,1.183,-0.154
47.4,-0.076,0.913,-0.115
47.41,-0.192,1.106,0.08
47.42,-0.134,0.78,0.19
47.43,-0.295,0.885,-0.076
47.44,-0.342,1.097,-0.192
47.45,-0.076,0.911,0.117
47.46,-0.156,1.024,0.101
47.47,-0.13,0.641,0.066
47.48,-0.473,1.325,-0.179
47.49,-0.106,0.833,-0.064
47.5,-0.194,1.136,0.118
47.51,-0.122,0.768,0.193
47.52,-0.384,0.952,-0.165
47.53,-0.194,1.022,-0.156
47.54,0.034,1.012,0.053
47.55,-0.167,1.017,0.101
47.56,-0.186,0.648,-0.005
47.57,-0.382,1.34,-0.185
47.58,-0.112,0.844,-0.021
47.59,-0.213,1.087,0.181
47.6,-0.052,0.83,0.066
47.61,-0.504,0.884,-0.175
47.62,-0.175,1.169,-0.072
47.63,0.006,1.009,0.052
47.64,-0.165,0.904,0.126
47.65,-0.206,0.738,0.029
47.66,-0.418,1.337,-0.22
47.67,-0.126,0.841,-0.017
47.68,-0.104,1.07,0.146
47.69,-0.131,0.808,0.051
47.7,-0.458,0.91,-0.107
47.71,-0.154,1.264,-0.075
47.72,-0.064,0.76,0.049
47.73,-0.191,1.043,0.203
47.74,-0.248,0.791,-0.093
47.75,-0.343,1.147,-0.212
47.76,-0.077,0.974,0.083
47.77,-0.081,0.977,0.121
47.78,-0.211,0.871,0.05
47.79,-0.352,0.961,-0.175
47.8,-0.16,1.263,-0.067
47.81,-0.133,0.697,0.134
47.82,-0.141,1.061,0.162
47.83,-0.36,0.795,-0.173
47.84,-0.236,1.04,-0.149
47.85,-0.06,1.137,0.078
47.86,-0.152,0.805,0.149
47.87,-0.207,0.954,0.053
47.88,-0.406,0.949,-0.183
47.89,-0.119,1.208,-0.002
47.9,-0.116,0.764,0.159
47.91,-0.218,1.003,0.14
47.92,-0.35,0.881,-0.209
47.93,-0.236,1.07,-0.096
47.94,-0.061,1.128,0.082
47.95,-0.07,0.667,0.138
47.96,-0.302,1.054,0.006
47.97,-0.29,0.933,-0.224
47.98,-0.063,1.178,0.035
47.99,-0.244,0.75,0.219
48.0,-0.116,0.955,0.061
48.01,-0.381,0.978,-0.224
48.02,-0.14,1.0,-0.041
48.03,-0.186,1.115,0.104
48.04,-0.154,0.652,0.183
48.05,-0.284,1.178,-0.083
48.06,-0.271,0.82,-0.215
48.07,-0.143,1.198,0.084
48.08,-0.108,0.784,0.139
48.09,-0.162,0.895,0.022
48.1,-0.432,1.109,-0.2
48.11,-0.099,0.88,-0.095
48.12,-0.181,1.093,0.104
48.13,-0.041,0.681,0.189
48.14,-0.413,1.152,-0.176
48.15,-0.272,0.827,-0.055
48.16,-0.066,1.224,0.077
48.17,-0.097,0.779,0.106
48.18,-0.264,0.849,0.04
48.19,-0.408,1.226,-0.192
48.2,-0.111,0.809,0.013
48.21,-0.298,1.185,0.195
48.22,-0.092,0.654,0.127
48.23,-0.44,1.128,-0.198
48.24,-0.206,0.934,-0.025
48.25,-0.11,1.143,0.058
48.26,-0.127,0.821,0.125
48.27,-0.287,0.82,-0.005
48.28,-0.332,0.986,-0.227
48.29,-0.133,0.973,0.091
48.3,-0.18,1.136,0.115
48.31,-0.092,0.587,0.01
48.32,-0.487,1.323,-0.183
48.33,-0.069,0.86,-0.104
