t,ax,ay,az
0.0,-0.102,1.235,0.067
0.01,-0.129,0.681,0.114
0.02,-0.247,1.004,-0.039
0.03,-0.373,1.077,-0.232
0.04,-0.119,0.872,0.057
0.05,-0.09,1.206,0.132
0.06,-0.099,0.664,0.055
0.07,-0.513,1.195,-0.15
0.08,-0.089,0.907,-0.114
0.09,-0.091,1.142,-0.014
0.1,-0.126,0.798,0.223
0.11,-0.346,0.939,-0.066
0.12,-0.342,1.078,-0.207
0.13,-0.098,0.957,0.163
0.14,-0.18,1.096,0.092
0.15,-0.104,0.586,-0.011
0.16,-0.324,1.365,-0.263
0.17,-0.115,0.789,-0.027
0.18,-0.224,1.159,0.206
0.19,-0.046,0.739,0.135
0.2,-0.434,1.003,-0.215
0.21,-0.25,0.998,-0.043
0.22,-0.155,1.03,0.069
0.23,-0.145,0.925,0.131
0.24,-0.253,0.72,0.042
0.25,-0.368,1.326,-0.277
0.26,-0.002,0.763,-0.045
0.27,-0.202,1.227,0.162
0.28,-0.051,0.714,0.108
0.29,-0.43,0.982,-0.181
0.3,-0.186,1.162,-0.078
0.31,-0.069,0.907,0.064
0.32,-0.181,0.971,0.144
0.33,-0.222,0.727,-0.017
0.34,-0.47,1.309,-0.193
0.35,-0.072,0.827,0.023
0.36,-0.183,1.158,0.156
0.37,-0.066,0.724,0.037
0.38,-0.432,1.0,-0.123
0.39,-0.159,1.22,-0.031
0.4,-0.089,0.769,0.068
0.41,-0.204,1.03,0.182
0.42,-0.288,0.783,-0.033
0.43,-0.365,1.216,-0.195
0.44,-0.143,0.883,0.101
0.45,-0.099,1.069,0.141
0.46,-0.185,0.806,0.025
0.47,-0.396,0.954,-0.137
0.48,-0.08,1.263,-0.12
0.49,-0.109,0.694,0.097
0.5,-0.172,1.064,0.187
0.51,-0.306,0.803,-0.162
0.52,-0.288,1.121,-0.22
0.53,-0.044,0.993,0.137
0.54,-0.188,0.914,0.158
0.55,-0.262,0.866,0.029
0.56,-0.291,1.026,-0.161
0.57,-0.156,1.179,-0.075
0.58,-0.216,0.689,0.183
0.59,-0.04,1.08,0.118
0.6,-0.341,0.826,-0.209
0.61,-0.296,1.132,-0.092
0.62,0.0,1.063,0.057
0.63,-0.165,0.742,0.103
0.64,-0.299,1.011,0.075
0.65,-0.263,0.977,-0.276
0.66,-0.123,1.118,-0.053
0.67,-0.185,0.739,0.248
0.68,-0.104,1.032,0.081
0.69,-0.399,0.87,-0.227
0.7,-0.101,1.111,-0.102
0.71,-0.17,1.066,0.081
0.72,-0.233,0.703,0.142
0.73,-0.261,1.115,-0.057
0.74,-0.33,0.863,-0.204
0.75,-0.204,1.191,0.102
0.76,-0.073,0.838,0.113
0.77,-0.203,0.901,0.045
0.78,-0.384,0.971,-0.146
0.79,-0.145,1.094,-0.123
0.8,-0.172,0.971,0.06
0.81,-0.152,0.721,0.215
0.82,-0.309,1.154,-0.155
0.83,-0.272,0.762,-0.175
0.84,-0.144,1.273,0.132
0.85,-0.043,0.711,0.097
0.86,-0.246,0.922,0.082
0.87,-0.362,1.121,-0.16
0.88,-0.079,0.959,-0.112
0.89,-0.202,1.048,0.12
0.9,-0.065,0.693,0.17
0.91,-0.411,1.165,-0.118
0.92,-0.091,0.93,0.184
0.93,-0.224,0.943,0.007
0.94,-0.362,0.928,-0.145
0.95,-0.082,1.175,-0.102
0.96,-0.216,0.926,0.095
0.97,-0.104,0.734,0.197
0.98,-0.333,1.187,-0.143
0.99,-0.314,0.743,-0.202
1.0,-0.098,1.289,0.187
1.01,-0.086,0.789,0.087
1.02,-0.253,0.925,-0.007
1.03,-0.349,1.049,-0.13
1.04,-0.126,1.04,-0.059
1.05,-0.245,0.998,0.127
1.06,-0.086,0.726,0.171
1.07,-0.463,1.156,-0.147
1.08,-0.271,0.791,-0.081
1.09,-0.008,1.279,0.051
1.1,-0.119,0.648,0.117
1.11,-0.292,0.956,0.094
1.12,-0.299,1.126,-0.276
1.13,-0.119,0.822,-0.058
1.14,-0.162,1.136,0.212
1.15,-0.06,0.662,0.045
1.16,-0.506,1.153,-0.202
1.17,-0.058,0.898,-0.036
1.18,-0.126,1.222,0.07
1.19,-0.184,0.713,0.171
1.2,-0.198,0.944,-0.008
1.21,-0.333,1.106,-0.247
1.22,-0.232,0.852,0.058
1.23,-0.056,1.207,0.119
1.24,-0.074,0.606,0.006
1.25,-0.563,1.234,-0.11
1.26,-0.057,0.984,-0.079
1.27,-0.14,1.07,0.049
1.28,-0.134,0.777,0.247
1.29,-0.274,0.946,-0.154
1.3,-0.329,1.127,-0.176
1.31,-0.198,0.878,0.144
1.32,-0.082,1.139,0.091
1.33,-0.167,0.619,0.017
1.34,-0.44,1.29,-0.16
1.35,-0.11,0.928,-0.066
1.36,-0.221,0.941,0.117
1.37,-0.035,0.922,0.175
1.38,-0.413,0.853,-0.158
1.39,-0.301,1.116,-0.154
1.4,-0.004,0.955,0.072
1.41,-0.168,1.066,0.115
1.42,-0.314,0.654,0.095
1.43,-0.231,1.257,-0.234
1.44,-0.153,1.013,-0.035
1.45,-0.264,0.892,0.179
1.46,0.035,0.937,0.115
1.47,-0.485,0.821,-0.203
1.48,-0.263,1.258,-0.033
1.49,-0.006,0.906,0.006
1.5,-0.236,0.926,0.152
1.51,-0.18,0.797,0.027
1.52,-0.344,1.237,-0.222
1.53,-0.223,0.896,-0.007
1.54,-0.062,0.911,0.181
1.55,-0.151,0.987,0.071
1.56,-0.492,0.77,-0.141
1.57,-0.071,1.308,-0.07
1.58,-0.074,0.807,0.037
1.59,-0.289,0.946,0.23
1.6,-0.163,0.845,-0.064
1.61,-0.328,1.038,-0.231
1.62,-0.133,1.073,0.104
1.63,-0.033,0.84,0.114
1.64,-0.245,0.926,0.005
1.65,-0.368,0.876,-0.087
1.66,-0.075,1.384,-0.069
1.67,-0.226,0.702,0.093
1.68,-0.172,0.916,0.213
1.69,-0.246,1.005,-0.142
1.7,-0.364,0.972,-0.136
1.71,-0.122,1.117,0.085
1.72,-0.076,0.724,0.155
1.73,-0.281,0.948,0.026
1.74,-0.268,0.962,-0.198
1.75,-0.146,1.237,-0.021
1.76,-0.222,0.688,0.138
1.77,-0.148,1.059,0.153
1.78,-0.285,0.859,-0.217
1.79,-0.25,1.059,-0.088
1.8,-0.067,1.076,0.085
1.81,-0.123,0.707,0.129
1.82,-0.322,1.041,0.015
1.83,-0.235,0.906,-0.199
1.84,-0.202,1.223,-0.009
1.85,-0.171,0.709,0.211
1.86,-0.102,0.992,0.055
1.87,-0.439,0.91,-0.207
1.88,-0.203,1.041,-0.008
1.89,-0.085,1.112,0.075
1.9,-0.233,0.631,0.122
1.91,-0.246,1.159,-0.031
1.92,-0.241,0.912,-0.232
1.93,-0.258,1.134,0.044
1.94,0.011,0.798,0.15
1.95,-0.223,0.922,0.021
1.96,-0.461,1.03,-0.166
1.97,-0.099,1.023,-0.062
1.98,-0.168,1.059,0.069
1.99,-0.197,0.662,0.181
2.0,-0.25,1.19,-0.136
2.01,-0.285,0.847,-0.177
2.02,-0.166,1.215,0.152
2.03,-0.004,0.839,0.128
2.04,-0.33,0.875,0.022
2.05,-0.451,1.093,-0.143
2.06,-0.02,0.888,-0.062
2.07,-0.29,1.151,0.139
2.08,-0.105,0.65,0.186
2.09,-0.353,1.161,-0.216
2.1,-0.3,0.786,-0.131
2.11,-0.002,1.246,0.093
2.12,-0.107,0.82,0.08
2.13,-0.31,0.788,0.066
2.14,-0.217,1.267,-0.197
2.15,-0.163,0.866,-0.038
2.16,-0.238,1.081,0.162
2.17,-0.012,0.716,0.079
2.18,-0.525,1.104,-0.228
2.19,-0.196,0.904,0.002
2.2,-0.067,1.151,0.102
2.21,-0.2,0.836,0.128
2.22,-0.209,0.807,0.002
2.23,-0.361,1.261,-0.205
2.24,-0.19,0.813,0.007
2.25,-0.047,1.183,0.12
2.26,-0.115,0.67,0.028
2.27,-0.569,1.135,-0.121
2.28,-0.092,1.056,-0.077
2.29,-0.079,1.01,0.077
2.3,-0.268,0.913,0.237
2.31,-0.188,0.799,-0.074
2.32,-0.322,1.247,-0.229
2.33,-0.168,0.794,0.156
2.34,-0.09,1.121,0.101
2.35,-0.239,0.656,0.044
2.36,-0.417,1.179,-0.16
2.37,-0.062,1.088,-0.102
2.38,-0.228,0.857,0.099
2.39,-0.158,0.999,0.205
2.4,-0.253,0.753,-0.167
2.41,-0.346,1.164,-0.149
2.42,-0.076,0.936,0.099
2.43,-0.092,1.045,0.088
2.44,-0.318,0.721,0.031
2.45,-0.315,1.175,-0.163
2.46,-0.046,1.11,-0.096
2.47,-0.304,0.806,0.215
2.48,-0.067,0.992,0.14
2.49,-0.374,0.791,-0.211
2.5,-0.317,1.248,-0.09
2.51,0.044,0.924,0.002
2.52,-0.121,0.893,0.083
2.53,-0.262,0.883,0.061
2.54,-0.344,1.096,-0.218
2.55,-0.169,0.945,0.032
2.56,-0.068,0.927,0.17
2.57,-0.125,0.943,0.069
2.58,-0.415,0.847,-0.201
2.59,-0.146,1.292,-0.088
2.6,-0.079,0.754,0.077
2.61,-0.197,1.002,0.161
2.62,-0.261,0.826,-0.048
2.63,-0.289,1.07,-0.204
2.64,-0.144,1.038,0.059
2.65,-0.125,0.855,0.196
2.66,-0.204,0.962,0.024
2.67,-0.393,0.839,-0.168
2.68,-0.136,1.316,-0.05
2.69,-0.125,0.734,0.072
2.7,-0.143,0.955,0.178
2.71,-0.282,0.919,-0.112
2.72,-0.349,0.995,-0.134
2.73,-0.147,1.114,0.102
2.74,-0.052,0.778,0.107
2.75,-0.271,1.031,0.019
2.76,-0.285,0.885,-0.152
2.77,-0.259,1.229,-0.047
2.78,-0.206,0.727,0.16
2.79,-0.014,1.02,0.162
2.8,-0.411,0.92,-0.184
2.81,-0.238,0.893,-0.078
2.82,-0.003,1.293,0.057
2.83,-0.192,0.599,0.13
2.84,-0.268,1.08,0.039
2.85,-0.329,0.983,-0.219
2.86,-0.195,1.098,-0.059
2.87,-0.127,0.821,0.236
2.88,-0.118,0.941,0.075
2.89,-0.406,1.002,-0.201
2.9,-0.25,0.929,0.018
2.91,-0.12,1.25,0.032
2.92,-0.135,0.589,0.116
2.93,-0.286,1.157,0.022
2.94,-0.31,0.903,-0.255
2.95,-0.194,1.028,-0.039
2.96,-0.059,0.986,0.173
2.97,-0.137,0.786,0.079
2.98,-0.423,1.036,-0.174
2.99,-0.079,0.942,-0.028
3.0,-0.155,1.254,0.036
3.01,-0.192,0.565,0.174
3.02,-0.237,1.152,-0.045
3.03,-0.302,0.938,-0.218
3.04,-0.215,1.044,0.042
3.05,0.003,1.021,0.151
3.06,-0.165,0.732,0.072
3.07,-0.511,1.15,-0.142
3.08,0.023,0.943,-0.123
3.09,-0.196,1.135,0.012
3.1,-0.167,0.67,0.269
3.11,-0.311,1.131,-0.103
3.12,-0.291,0.866,-0.282
3.13,-0.053,1.082,0.137
3.14,-0.119,1.064,0.105
3.15,-0.225,0.637,-0.001
3.16,-0.433,1.257,-0.145
3.17,-0.081,0.896,-0.081
3.18,-0.238,1.113,0.085
3.19,-0.054,0.78,0.161
3.2,-0.35,1.034,-0.161
3.21,-0.289,0.945,-0.173
3.22,-0.089,1.036,0.109
3.23,-0.104,0.995,0.105
3.24,-0.216,0.686,0.054
3.25,-0.362,1.35,-0.175
3.26,-0.143,0.824,-0.042
3.27,-0.218,1.09,0.178
3.28,-0.101,0.807,0.158
3.29,-0.353,0.974,-0.16
3.3,-0.305,1.027,-0.136
3.31,0.002,0.994,0.068
3.32,-0.141,1.015,0.13
3.33,-0.27,0.687,0.095
3.34,-0.38,1.354,-0.216
3.35,-0.086,0.819,-0.034
3.36,-0.175,1.199,0.166
3.37,-0.027,0.685,0.063
3.38,-0.52,1.061,-0.181
3.39,-0.194,1.047,0.026
3.4,-0.091,1.019,0.053
3.41,-0.223,0.891,0.167
3.42,-0.196,0.78,-0.026
3.43,-0.379,1.287,-0.193
3.44,-0.194,0.806,0.047
3.45,-0.086,1.178,0.163
3.46,-0.084,0.693,0.0
3.47,-0.49,1.079,-0.147
3.48,-0.068,1.089,-0.115
3.49,-0.056,0.836,0.037
3.5,-0.177,1.03,0.224
3.51,-0.25,0.75,-0.12
3.52,-0.4,1.213,-0.159
3.53,-0.113,0.89,0.055
3.54,-0.048,1.07,0.071
3.55,-0.099,0.731,0.049
3.56,-0.442,1.135,-0.117
3.57,-0.149,1.136,-0.082
3.58,-0.144,0.759,0.081
3.59,-0.129,1.024,0.188
3.6,-0.327,0.76,-0.154
3.61,-0.283,1.197,-0.122
3.62,-0.118,0.988,0.096
3.63,-0.149,0.983,0.122
3.64,-0.211,0.771,0.018
3.65,-0.341,1.06,-0.136
3.66,-0.124,1.184,-0.096
3.67,-0.209,0.633,0.123
3.68,-0.112,1.088,0.226
3.69,-0.339,0.791,-0.2
3.7,-0.34,1.066,-0.157
3.71,-0.017,1.064,0.109
3.72,-0.144,0.906,0.115
3.73,-0.279,0.895,0.039
3.74,-0.232,1.025,-0.203
3.75,-0.087,1.147,-0.097
3.76,-0.258,0.691,0.225
3.77,-0.042,1.117,0.141
3.78,-0.365,0.805,-0.224
3.79,-0.315,1.065,-0.037
3.8,0.014,1.096,0.069
3.81,-0.226,0.785,0.13
3.82,-0.244,0.971,0.021
3.83,-0.257,0.969,-0.229
3.84,-0.221,1.18,0.023
3.85,-0.159,0.709,0.162
3.86,-0.041,1.022,0.051
3.87,-0.449,0.868,-0.219
3.88,-0.177,1.089,-0.069
3.89,-0.082,1.032,0.066
3.9,-0.205,0.673,0.147
3.91,-0.271,1.125,0.02
3.92,-0.239,0.908,-0.21
3.93,-0.255,1.171,0.052
3.94,-0.125,0.754,0.206
3.95,-0.091,1.002,0.046
3.96,-0.486,0.915,-0.21
3.97,-0.137,1.067,-0.019
3.98,-0.121,1.097,0.052
3.99,-0.242,0.615,0.181
4.0,-0.195,1.185,-0.016
4.01,-0.276,0.871,-0.227
4.02,-0.272,1.155,0.038
4.03,0.007,0.871,0.16
4.04,-0.094,0.891,-0.032
4.05,-0.469,0.981,-0.167
4.06,-0.003,1.024,-0.07
4.07,-0.127,1.105,-0.006
4.08,-0.251,0.613,0.246
4.09,-0.18,1.209,-0.083
4.1,-0.278,0.862,-0.23
4.11,-0.227,1.128,0.093
4.12,0.032,0.857,0.117
4.13,-0.229,0.863,-0.016
4.14,-0.453,1.049,-0.145
4.15,-0.024,0.938,-0.093
4.16,-0.203,1.121,0.064
4.17,-0.145,0.666,0.212
4.18,-0.384,1.179,-0.186
4.19,-0.282,0.725,-0.15
4.2,-0.038,1.303,0.087
4.21,-0.063,0.733,0.105
4.22,-0.37,0.941,0.048
4.23,-0.235,1.07,-0.183
4.24,-0.192,0.962,-0.019
4.25,-0.236,1.024,0.116
4.26,0.011,0.737,0.158
4.27,-0.412,1.164,-0.192
4.28,-0.29,0.772,-0.067
4.29,-0.065,1.332,0.101
4.3,-0.101,0.712,0.115
4.31,-0.294,0.918,0.048
4.32,-0.272,1.189,-0.206
4.33,-0.181,0.839,-0.035
4.34,-0.224,1.048,0.182
4.35,0.062,0.719,0.081
4.36,-0.541,1.206,-0.187
4.37,-0.259,0.833,-0.023
4.38,-0.021,1.271,0.071
4.39,-0.221,0.764,0.148
4.4,-0.272,0.905,0.073
4.41,-0.334,1.169,-0.242
4.42,-0.172,0.792,-0.003
4.43,-0.148,1.224,0.193
4.44,-0.033,0.645,0.058
4.45,-0.523,1.112,-0.174
4.46,-0.128,0.951,-0.046
4.47,-0.125,1.132,0.052
4.48,-0.194,0.806,0.117
4.49,-0.226,0.886,0.004
4.5,-0.346,1.228,-0.262
4.51,-0.144,0.746,0.046
4.52,-0.155,1.241,0.174
4.53,-0.054,0.624,0.031
4.54,-0.547,1.135,-0.165
4.55,-0.046,0.998,-0.045
4.56,-0.19,1.044,0.079
4.57,-0.201,0.827,0.203
4.58,-0.251,0.846,-0.042
4.59,-0.301,1.233,-0.211
4.6,-0.174,0.836,0.028
4.61,-0.071,1.164,0.136
4.62,-0.109,0.627,0.024
4.63,-0.511,1.165,-0.18
4.64,0.077,1.07,-0.112
4.65,-0.204,0.915,0.039
4.66,-0.221,0.937,0.247
4.67,-0.237,0.755,-0.141
4.68,-0.36,1.19,-0.156
4.69,-0.088,0.885,0.094
4.7,-0.066,1.075,0.119
4.71,-0.222,0.664,0.062
4.72,-0.465,1.175,-0.13
4.73,0.014,1.106,-0.127
4.74,-0.24,0.815,0.098
4.75,-0.158,0.994,0.205
4.76,-0.269,0.829,-0.176
4.77,-0.333,1.196,-0.163
4.78,-0.131,0.935,0.127
4.79,-0.09,1.038,0.093
4.8,-0.271,0.774,-0.005
4.81,-0.304,1.092,-0.143
4.82,-0.116,1.136,-0.105
4.83,-0.218,0.728,0.137
4.84,-0.055,1.05,0.157
4.85,-0.32,0.733,-0.205
4.86,-0.316,1.147,-0.101
4.87,0.041,0.979,0.052
4.88,-0.168,0.907,0.095
4.89,-0.293,0.863,0.051
4.9,-0.29,1.075,-0.168
4.91,-0.11,1.136,-0.082
4.92,-0.144,0.726,0.149
4.93,-0.06,1.119,0.118
4.94,-0.374,0.781,-0.234
4.95,-0.323,1.123,-0.05
4.96,0.028,1.024,0.05
4.97,-0.159,0.793,0.133
4.98,-0.327,0.974,0.001
4.99,-0.338,1.079,-0.227
5.0,-0.167,1.024,0.009
5.01,-0.09,0.855,0.192
5.02,-0.11,1.013,0.036
5.03,-0.404,0.82,-0.15
5.04,-0.19,1.276,-0.011
5.05,-0.087,0.791,0.069
5.06,-0.201,0.915,0.161
5.07,-0.27,0.943,-0.059
5.08,-0.342,0.95,-0.203
5.09,-0.154,1.104,0.051
5.1,-0.052,0.787,0.15
5.11,-0.17,0.995,0.006
5.12,-0.415,0.865,-0.141
5.13,-0.091,1.229,-0.094
5.14,-0.156,0.784,0.097
5.15,-0.219,0.877,0.235
5.16,-0.306,1.032,-0.148
5.17,-0.287,0.855,-0.148
5.18,-0.181,1.252,0.123
5.19,-0.026,0.697,0.124
5.2,-0.298,1.018,0.037
5.21,-0.278,0.921,-0.168
5.22,-0.166,1.161,-0.073
5.23,-0.129,0.815,0.11
5.24,-0.126,0.854,0.203
5.25,-0.371,1.049,-0.182
5.26,-0.244,0.804,-0.141
5.27,-0.049,1.328,0.036
5.28,-0.115,0.658,0.147
5.29,-0.31,1.045,0.057
5.3,-0.311,0.999,-0.192
5.31,-0.131,1.025,-0.04
5.32,-0.182,0.929,0.154
5.33,-0.06,0.822,0.098
5.34,-0.429,1.093,-0.225
5.35,-0.207,0.772,-0.045
5.36,-0.068,1.354,0.06
5.37,-0.129,0.6,0.113
5.38,-0.229,1.03,0.041
5.39,-0.311,1.063,-0.227
5.4,-0.177,0.924,-0.019
5.41,-0.136,1.046,0.196
5.42,-0.085,0.741,0.065
5.43,-0.49,1.143,-0.198
5.44,-0.191,0.851,-0.022
5.45,-0.088,1.311,0.055
5.46,-0.162,0.635,0.142
5.47,-0.271,1.011,-0.021
5.48,-0.28,1.121,-0.224
5.49,-0.129,0.896,0.0
5.5,-0.166,1.07,0.167
5.51,-0.013,0.658,0.012
5.52,-0.507,1.196,-0.192
5.53,-0.102,0.864,0.014
5.54,-0.123,1.199,0.055
5.55,-0.136,0.704,0.142
5.56,-0.318,0.996,-0.013
5.57,-0.35,1.109,-0.205
5.58,-0.159,0.902,0.032
5.59,-0.053,1.171,0.111
5.6,-0.111,0.614,0.027
5.61,-0.537,1.276,-0.172
5.62,-0.003,0.898,-0.108
5.63,-0.191,1.005,0.047
5.64,-0.086,0.816,0.208
5.65,-0.353,0.971,-0.093
5.66,-0.358,1.063,-0.187
5.67,-0.106,0.91,0.124
5.68,-0.072,1.155,0.108
5.69,-0.262,0.62,0.0
5.7,-0.393,1.275,-0.167
5.71,-0.108,0.921,-0.077
5.72,-0.182,1.001,0.127
5.73,-0.046,0.915,0.141
5.74,-0.387,0.833,-0.169
5.75,-0.31,1.178,-0.074
5.76,-0.063,0.936,0.132
5.77,-0.181,1.043,0.105
5.78,-0.284,0.696,0.057
5.79,-0.349,1.244,-0.221
5.8,-0.115,0.928,-0.069
5.81,-0.156,1.125,0.211
5.82,-0.094,0.74,0.075
5.83,-0.461,0.965,-0.182
5.84,-0.138,1.204,-0.061
5.85,-0.083,0.823,0.068
5.86,-0.231,1.025,0.164
5.87,-0.157,0.743,-0.064
5.88,-0.345,1.217,-0.209
5.89,-0.181,0.907,0.123
5.9,-0.131,1.045,0.14
5.91,-0.114,0.757,0.004
5.92,-0.413,0.967,-0.104
5.93,-0.063,1.269,-0.113
5.94,-0.127,0.696,0.077
5.95,-0.205,1.039,0.22
5.96,-0.257,0.793,-0.133
5.97,-0.41,1.115,-0.123
5.98,-0.156,0.95,0.138
5.99,-0.103,0.953,0.146
6.0,-0.221,0.867,0.024
6.01,-0.377,0.972,-0.12
6.02,-0.145,1.257,-0.087
6.03,-0.128,0.718,0.085
6.04,-0.13,1.058,0.165
6.05,-0.267,0.801,-0.155
6.06,-0.354,1.136,-0.117
6.07,-0.019,1.035,0.092
6.08,-0.148,0.774,0.129
6.09,-0.368,0.972,0.075
6.1,-0.241,0.958,-0.201
6.11,-0.146,1.203,-0.054
6.12,-0.198,0.741,0.169
6.13,-0.106,1.025,0.066
6.14,-0.357,0.843,-0.184
6.15,-0.308,1.052,-0.049
6.16,-0.015,1.075,0.076
6.17,-0.157,0.698,0.153
6.18,-0.346,1.083,0.005
6.19,-0.262,0.879,-0.199
6.2,-0.185,1.244,0.009
6.21,-0.108,0.776,0.14
6.22,-0.085,0.944,0.066
6.23,-0.45,0.989,-0.173
6.24,-0.179,1.03,-0.057
6.25,-0.053,1.092,0.04
6.26,-0.155,0.664,0.157
6.27,-0.313,1.136,-0.039
6.28,-0.232,0.848,-0.222
6.29,-0.176,1.187,0.017
6.3,-0.124,0.811,0.18
6.31,-0.142,0.886,0.01
6.32,-0.433,1.042,-0.228
6.33,-0.038,0.962,-0.029
6.34,-0.182,1.12,0.1
6.35,-0.211,0.639,0.211
6.36,-0.25,1.187,-0.083
6.37,-0.333,0.844,-0.194
6.38,-0.18,1.159,0.124
6.39,-0.08,0.914,0.153
6.4,-0.223,0.788,-0.017
6.41,-0.436,1.169,-0.165
6.42,-0.058,0.924,-0.048
6.43,-0.255,1.131,0.094
6.44,-0.061,0.679,0.158
6.45,-0.393,1.142,-0.195
6.46,-0.315,0.843,-0.105
6.47,-0.028,1.194,0.075
6.48,-0.103,0.851,0.091
6.49,-0.278,0.76,0.071
6.5,-0.366,1.27,-0.202
6.51,-0.098,0.806,-0.052
6.52,-0.229,1.191,0.17
6.53,-0.091,0.703,0.147
6.54,-0.424,1.083,-0.18
6.55,-0.203,0.98,-0.087
6.56,-0.066,1.119,0.073
6.57,-0.173,0.855,0.127
6.58,-0.23,0.759,0.006
6.59,-0.372,1.314,-0.269
6.6,-0.085,0.754,0.002
6.61,-0.192,1.224,0.204
6.62,-0.168,0.571,0.032
6.63,-0.412,1.216,-0.194
6.64,-0.076,0.989,-0.082
6.65,-0.075,0.998,0.067
6.66,-0.228,0.848,0.232
6.67,-0.257,0.904,-0.145
6.68,-0.367,1.14,-0.141
6.69,-0.06,0.908,0.11
6.7,-0.127,1.143,0.12
6.71,-0.233,0.623,-0.002
6.72,-0.47,1.259,-0.165
6.73,-0.077,0.929,-0.047
6.74,-0.249,1.01,0.153
6.75,-0.076,0.903,0.141
6.76,-0.345,0.862,-0.173
6.77,-0.341,1.21,-0.084
6.78,-0.02,0.851,0.072
6.79,-0.147,1.059,0.13
6.8,-0.269,0.673,0.019
6.81,-0.349,1.227,-0.221
6.82,-0.122,0.926,-0.025
6.83,-0.192,0.923,0.167
6.84,-0.114,0.904,0.092
6.85,-0.364,0.85,-0.187
6.86,-0.266,1.294,-0.099
6.87,0.014,0.79,0.046
6.88,-0.237,1.006,0.143
6.89,-0.204,0.783,-0.001
6.9,-0.339,1.15,-0.226
6.91,-0.108,1.026,0.023
6.92,-0.128,0.885,0.176
6.93,-0.159,0.964,0.026
6.94,-0.409,0.833,-0.171
6.95,-0.138,1.314,-0.06
6.96,-0.083,0.753,0.039
6.97,-0.205,0.954,0.156
6.98,-0.201,0.89,-0.087
6.99,-0.297,1.028,-0.153
7.0,-0.113,1.121,0.062
7.01,-0.038,0.771,0.131
7.02,-0.299,1.03,0.022
7.03,-0.414,0.864,-0.145
7.04,-0.17,1.262,-0.065
7.05,-0.15,0.771,0.132
7.06,-0.144,0.948,0.176
7.07,-0.316,0.975,-0.197
7.08,-0.242,0.909,-0.158
7.09,0.002,1.274,0.079
7.1,-0.101,0.661,0.104
7.11,-0.302,1.053,0.015
7.12,-0.32,0.925,-0.147
7.13,-0.173,1.17,-0.041
7.14,-0.175,0.794,0.156
7.15,-0.105,0.914,0.11
7.16,-0.388,1.048,-0.208
7.17,-0.274,0.897,-0.01
7.18,-0.054,1.221,0.098
7.19,-0.065,0.64,0.115
7.2,-0.357,1.047,0.002
7.21,-0.259,0.907,-0.249
7.22,-0.028,1.142,-0.034
7.23,-0.217,0.959,0.171
7.24,-0.108,0.737,0.065
7.25,-0.467,1.204,-0.159
7.26,-0.115,0.922,-0.064
7.27,-0.131,1.151,0.12
7.28,-0.155,0.702,0.209
7.29,-0.336,1.095,-0.122
7.3,-0.188,0.882,-0.244
7.31,-0.08,1.154,0.092
7.32,-0.177,0.92,0.11
7.33,-0.174,0.69,0.03
7.34,-0.438,1.271,-0.165
7.35,-0.071,0.862,-0.026
7.36,-0.244,1.217,0.123
7.37,-0.105,0.666,0.186
7.38,-0.368,1.06,-0.183
7.39,-0.237,0.992,-0.134
7.4,-0.073,1.072,0.106
7.41,-0.135,0.943,0.086
7.42,-0.314,0.688,0.005
7.43,-0.387,1.299,-0.156
7.44,-0.162,0.848,0.024
7.45,-0.191,1.107,0.176
7.46,-0.01,0.71,0.03
7.47,-0.47,1.163,-0.259
7.48,-0.175,0.878,-0.025
7.49,-0.104,1.14,0.117
7.5,-0.217,0.835,0.139
7.51,-0.277,0.832,-0.009
7.52,-0.284,1.245,-0.231
7.53,-0.153,0.831,0.079
7.54,-0.047,1.134,0.178
7.55,-0.218,0.64,0.049
7.56,-0.465,1.172,-0.157
7.57,-0.02,1.033,-0.065
7.58,-0.188,0.895,0.085
7.59,-0.183,0.968,0.211
7.6,-0.299,0.802,-0.171
7.61,-0.337,1.158,-0.158
7.62,-0.055,0.921,0.154
7.63,-0.139,1.035,0.131
7.64,-0.324,0.694,0.012
7.65,-0.33,1.217,-0.206
7.66,-0.035,0.998,-0.098
7.67,-0.205,0.857,0.222
7.68,-0.099,1.015,0.105
7.69,-0.39,0.77,-0.217
7.7,-0.275,1.328,-0.004
7.71,-0.082,0.823,0.078
7.72,-0.196,0.926,0.139
7.73,-0.265,0.865,0.023
7.74,-0.352,1.111,-0.219
7.75,-0.11,1.032,0.002
7.76,-0.041,0.829,0.16
7.77,-0.189,1.034,0.03
7.78,-0.449,0.817,-0.194
7.79,-0.094,1.245,-0.078
7.8,-0.112,0.799,0.048
7.81,-0.214,0.924,0.206
7.82,-0.243,0.949,-0.131
7.83,-0.302,0.923,-0.191
7.84,-0.101,1.218,0.151
7.85,-0.066,0.744,0.134
7.86,-0.316,1.028,0.025
7.87,-0.356,0.911,-0.131
7.88,-0.14,1.191,-0.065
7.89,-0.178,0.757,0.125
7.9,-0.094,0.929,0.158
7.91,-0.341,1.043,-0.19
7.92,-0.339,0.883,-0.1
7.93,-0.013,1.239,0.087
7.94,-0.09,0.642,0.089
7.95,-0.316,1.077,0.042
7.96,-0.276,0.92,-0.213
7.97,-0.095,1.115,-0.004
7.98,-0.201,0.892,0.166
7.99,-0.109,0.797,0.109
8.0,-0.438,1.104,-0.19
8.01,-0.162,0.877,-0.0
8.02,-0.176,1.209,0.081
8.03,-0.139,0.622,0.135
8.04,-0.229,1.132,-0.073
8.05,-0.333,0.917,-0.213
8.06,-0.192,1.041,0.112
8.07,-0.106,1.003,0.162
8.08,-0.186,0.697,0.016
8.09,-0.483,1.223,-0.133
8.1,-0.024,0.89,-0.092
8.11,-0.182,1.127,0.096
8.12,-0.101,0.727,0.227
8.13,-0.402,1.127,-0.162
8.14,-0.274,0.88,-0.177
8.15,-0.097,1.081,0.147
8.16,-0.141,0.959,0.12
8.17,-0.251,0.662,-0.005
8.18,-0.401,1.339,-0.193
8.19,-0.064,0.782,-0.02
8.2,-0.327,1.161,0.228
8.21,-0.043,0.726,0.13
8.22,-0.418,1.046,-0.225
8.23,-0.18,1.068,-0.04
8.24,-0.097,0.983,0.064
8.25,-0.101,0.792,0.169
8.26,-0.31,0.861,-0.084
8.27,-0.34,1.222,-0.232
8.28,-0.099,0.821,0.068
8.29,-0.123,1.191,0.127
8.3,-0.108,0.605,0.002
8.31,-0.443,1.229,-0.201
8.32,0.003,0.997,-0.084
8.33,-0.161,0.926,0.074
8.34,-0.106,0.904,0.176
8.35,-0.312,0.82,-0.161
8.36,-0.263,1.21,-0.161
8.37,-0.027,0.945,0.1
8.38,-0.147,1.068,0.095
8.39,-0.25,0.675,0.05
8.4,-0.377,1.219,-0.214
8.41,-0.113,0.974,-0.025
8.42,-0.163,0.877,0.166
8.43,-0.147,0.988,0.096
8.44,-0.386,0.789,-0.195
8.45,-0.348,1.305,-0.054
8.46,-0.019,0.83,0.113
8.47,-0.285,0.947,0.144
8.48,-0.222,0.825,0.003
8.49,-0.341,1.167,-0.213
8.5,-0.206,1.008,0.005
8.51,-0.039,0.828,0.151
8.52,-0.159,0.994,-0.034
8.53,-0.45,0.823,-0.137
8.54,-0.072,1.284,-0.075
8.55,-0.169,0.75,0.06
8.56,-0.151,0.945,0.212
8.57,-0.312,0.913,-0.102
8.58,-0.341,0.959,-0.201
8.59,-0.082,1.175,0.094
8.6,-0.067,0.734,0.132
8.61,-0.335,1.02,0.016
8.62,-0.265,0.87,-0.157
8.63,-0.094,1.206,-0.004
8.64,-0.234,0.819,0.166
8.65,-0.039,0.917,0.151
8.66,-0.426,1.015,-0.208
8.67,-0.191,0.922,-0.052
8.68,-0.086,1.27,0.083
8.69,-0.173,0.605,0.142
8.7,-0.322,1.127,0.058
8.71,-0.216,0.937,-0.273
8.72,-0.182,1.105,0.013
8.73,-0.202,0.865,0.245
8.74,-0.126,0.825,0.068
8.75,-0.514,1.089,-0.202
8.76,-0.041,0.918,-0.056
8.77,-0.119,1.203,0.019
8.78,-0.198,0.624,0.181
8.79,-0.27,1.139,-0.063
8.8,-0.26,0.873,-0.206
8.81,-0.184,1.129,0.127
8.82,-0.077,0.906,0.114
8.83,-0.222,0.717,-0.002
8.84,-0.45,1.246,-0.175
8.85,-0.075,0.864,-0.01
8.86,-0.252,1.179,0.105
8.87,-0.09,0.702,0.207
8.88,-0.335,1.077,-0.18
8.89,-0.309,0.931,-0.164
8.9,-0.003,1.102,0.059
8.91,-0.113,0.952,0.134
8.92,-0.282,0.715,0.01
8.93,-0.301,1.332,-0.221
8.94,-0.125,0.822,-0.015
8.95,-0.216,1.152,0.135
8.96,-0.006,0.759,0.126
8.97,-0.439,1.048,-0.196
8.98,-0.28,1.013,-0.032
8.99,-0.028,0.996,0.04
9.0,-0.147,0.975,0.153
9.01,-0.255,0.702,-0.022
9.02,-0.355,1.284,-0.205
9.03,-0.074,0.832,-0.003
9.04,-0.141,1.123,0.153
9.05,-0.126,0.713,0.071
9.06,-0.405,1.052,-0.174
9.07,-0.038,0.978,-0.107
9.08,-0.161,0.93,0.11
9.09,-0.199,0.928,0.202
9.1,-0.3,0.827,-0.147
9.11,-0.307,1.153,-0.153
9.12,0.012,0.928,0.11
9.13,-0.185,1.08,0.135
9.14,-0.186,0.655,0.008
9.15,-0.398,1.242,-0.149
9.16,-0.106,0.973,-0.052
9.17,-0.182,0.907,0.148
9.18,-0.142,1.002,0.15
9.19,-0.331,0.779,-0.218
9.2,-0.23,1.238,-0.099
9.21,0.029,0.924,0.092
9.22,-0.199,0.957,0.139
9.23,-0.243,0.778,0.015
9.24,-0.349,1.202,-0.178
9.25,-0.198,1.018,0.038
9.26,-0.112,0.652,0.064
9.27,-0.467,1.238,-0.192
9.28,-0.042,0.886,-0.084
9.29,-0.147,1.146,0.08
9.3,-0.08,0.711,0.152
9.31,-0.413,1.122,-0.168
9.32,-0.263,0.912,-0.128
9.33,-0.05,1.133,0.124
9.34,-0.181,0.869,0.164
9.35,-0.203,0.742,0.047
9.36,-0.496,1.316,-0.177
9.37,-0.076,0.728,-0.017
9.38,-0.096,1.233,0.138
9.39,-0.183,0.686,0.09
9.4,-0.413,1.064,-0.168
9.41,-0.173,1.089,-0.082
9.42,-0.136,0.954,0.13
9.43,-0.14,0.95,0.132
9.44,-0.294,0.729,-0.039
9.45,-0.397,1.287,-0.152
9.46,-0.031,0.813,0.059
9.47,-0.167,1.107,0.126
9.48,-0.127,0.681,0.028
9.49,-0.398,1.103,-0.195
9.5,-0.09,1.066,-0.076
9.51,-0.12,0.823,0.096
9.52,-0.147,1.04,0.171
9.53,-0.286,0.745,-0.177
9.54,-0.282,1.233,-0.119
9.55,-0.097,0.927,0.121
9.56,-0.14,0.954,0.12
9.57,-0.215,0.805,-0.016
9.58,-0.346,1.106,-0.176
9.59,-0.144,1.101,-0.04
9.6,-0.158,0.728,0.157
9.61,-0.161,1.073,0.099
9.62,-0.355,0.742,-0.192
9.63,-0.3,1.23,-0.039
9.64,-0.064,0.901,0.078
9.65,-0.17,0.831,0.11
9.66,-0.171,0.941,-0.001
9.67,-0.403,1.038,-0.185
9.68,-0.247,1.08,0.061
9.69,0.02,0.731,0.146
9.7,-0.25,1.04,0.026
9.71,-0.391,0.851,-0.164
9.72,-0.054,1.235,-0.103
9.73,-0.194,0.865,0.125
9.74,-0.12,0.869,0.175
9.75,-0.324,1.052,-0.147
9.76,-0.354,0.845,-0.124
9.77,-0.046,1.274,0.082
9.78,-0.106,0.664,0.113
9.79,-0.33,1.032,0.048
9.8,-0.255,0.956,-0.187
9.81,-0.201,1.084,-0.009
9.82,-0.191,0.894,0.17
9.83,-0.129,0.911,0.059
9.84,-0.427,0.992,-0.178
9.85,-0.135,0.998,-0.046
9.86,-0.09,1.16,0.094
9.87,-0.21,0.623,0.2
9.88,-0.298,1.165,-0.063
9.89,-0.312,0.851,-0.222
9.9,-0.177,1.156,0.093
9.91,-0.014,0.898,0.145
9.92,-0.266,0.826,0.02
9.93,-0.448,1.088,-0.152
9.94,-0.041,0.97,-0.095
9.95,-0.153,1.055,0.072
9.96,-0.126,0.699,0.202
9.97,-0.367,1.162,-0.154
9.98,-0.302,0.81,-0.182
9.99,-0.026,1.18,0.093
10.0,-0.054,0.818,0.085
10.01,-0.337,0.802,0.072
10.02,-0.351,1.241,-0.217
10.03,-0.067,0.797,-0.029
10.04,-0.222,1.196,0.201
10.05,-0.017,0.652,0.046
10.06,-0.455,1.124,-0.187
10.07,-0.16,0.955,-0.019
10.08,-0.079,1.09,0.084
10.09,-0.207,0.865,0.161
10.1,-0.15,0.804,-0.078
10.11,-0.399,1.236,-0.197
10.12,-0.138,0.838,0.185
10.13,-0.194,1.172,0.146
10.14,-0.094,0.627,-0.015
10.15,-0.458,1.208,-0.141
10.16,-0.155,1.031,-0.104
10.17,-0.1,0.851,0.113
10.18,-0.084,0.976,0.145
10.19,-0.39,0.748,-0.175
10.2,-0.221,1.228,-0.152
10.21,-0.02,0.935,0.092
10.22,-0.172,0.978,0.132
10.23,-0.166,0.769,0.015
10.24,-0.399,1.23,-0.25
10.25,-0.127,0.969,-0.013
10.26,-0.102,0.867,0.179
10.27,-0.187,0.982,0.099
10.28,-0.367,0.738,-0.175
10.29,-0.198,1.325,-0.067
10.3,-0.131,0.858,0.106
10.31,-0.121,0.917,0.123
10.32,-0.26,0.875,-0.003
10.33,-0.359,1.048,-0.205
10.34,-0.101,1.098,-0.004
10.35,-0.07,0.852,0.118
10.36,-0.185,0.99,0.039
10.37,-0.382,0.841,-0.163
10.38,-0.139,1.252,-0.102
10.39,-0.1,0.759,0.078
10.4,-0.126,0.926,0.208
10.41,-0.333,0.942,-0.131
10.42,-0.291,0.954,-0.133
10.43,-0.066,1.222,0.072
10.44,-0.175,0.666,0.168
10.45,-0.269,1.067,0.06
10.46,-0.344,0.923,-0.254
10.47,-0.039,1.134,-0.035
10.48,-0.163,0.883,0.179
10.49,-0.147,0.825,0.076
10.5,-0.306,1.038,-0.176
10.51,-0.209,0.999,-0.057
10.52,-0.216,1.17,0.11
10.53,-0.083,0.601,0.117
10.54,-0.283,1.128,-0.053
10.55,-0.33,0.881,-0.173
10.56,-0.083,1.108,0.041
10.57,-0.103,0.968,0.139
10.58,-0.103,0.808,0.079
10.59,-0.398,1.183,-0.209
10.6,-0.13,0.85,-0.104
10.61,-0.101,1.128,0.051
10.62,-0.118,0.67,0.124
10.63,-0.396,1.083,-0.077
10.64,-0.264,0.822,-0.14
10.65,-0.06,1.253,0.054
10.66,-0.055,0.73,0.141
10.67,-0.307,0.902,0.056
10.68,-0.36,1.177,-0.227
10.69,-0.007,0.853,-0.07
10.7,-0.216,1.15,0.2
10.71,-0.08,0.635,0.096
10.72,-0.434,1.174,-0.199
10.73,-0.162,0.97,-0.036
10.74,-0.105,1.118,0.083
10.75,-0.221,0.802,0.187
10.76,-0.149,0.857,-0.066
10.77,-0.344,1.184,-0.212
10.78,-0.059,0.864,0.069
10.79,-0.158,1.191,0.121
10.8,-0.107,0.598,0.065
10.81,-0.428,1.25,-0.168
10.82,-0.104,0.997,-0.11
10.83,-0.136,0.954,0.075
10.84,-0.075,0.933,0.202
10.85,-0.424,0.795,-0.108
10.86,-0.249,1.143,-0.167
10.87,-0.024,0.958,0.092
10.88,-0.239,1.077,0.132
10.89,-0.106,0.654,0.023
10.9,-0.434,1.301,-0.17
10.91,-0.164,0.976,-0.058
10.92,-0.141,0.898,0.167
10.93,-0.201,0.96,0.124
10.94,-0.326,0.809,-0.199
10.95,-0.2,1.231,-0.14
10.96,-0.073,0.926,0.113
10.97,-0.173,0.954,0.156
10.98,-0.225,0.755,-0.002
10.99,-0.346,1.214,-0.283
11.0,-0.108,0.973,-0.021
11.01,-0.054,0.924,0.181
11.02,-0.253,0.96,0.111
11.03,-0.398,0.755,-0.167
11.04,-0.093,1.329,-0.08
11.05,-0.181,0.779,0.083
11.06,-0.156,0.988,0.218
11.07,-0.253,0.863,-0.114
11.08,-0.367,0.977,-0.206
11.09,-0.021,1.15,0.084
11.1,-0.136,0.796,0.122
11.11,-0.318,1.004,0.044
11.12,-0.268,0.897,-0.233
11.13,-0.109,1.219,-0.126
11.14,-0.217,0.742,0.212
11.15,-0.013,0.96,0.064
11.16,-0.387,0.9,-0.167
11.17,-0.233,0.949,-0.062
11.18,-0.047,1.203,0.006
11.19,-0.108,0.609,0.089
11.2,-0.25,1.124,0.052
11.21,-0.297,0.885,-0.248
11.22,-0.164,1.128,-0.035
11.23,-0.084,0.886,0.142
11.24,-0.152,0.873,0.08
11.25,-0.39,1.005,-0.135
11.26,-0.114,0.969,-0.087
11.27,-0.156,1.176,0.081
11.28,-0.13,0.583,0.192
11.29,-0.264,1.163,-0.045
11.3,-0.352,0.866,-0.241
11.31,-0.104,1.051,0.033
11.32,-0.119,0.997,0.187
11.33,-0.195,0.803,0.082
11.34,-0.387,1.09,-0.19
11.35,-0.112,0.976,-0.051
11.36,-0.209,1.153,0.084
11.37,-0.079,0.591,0.16
11.38,-0.321,1.201,-0.103
11.39,-0.296,0.897,-0.214
11.4,-0.167,1.051,0.168
11.41,-0.116,0.99,0.116
11.42,-0.244,0.72,0.019
11.43,-0.319,1.247,-0.173
11.44,-0.182,0.851,-0.038
11.45,-0.271,1.153,0.192
11.46,-0.048,0.69,0.132
11.47,-0.534,1.09,-0.217
11.48,-0.086,0.892,-0.03
11.49,-0.158,1.29,0.096
11.5,-0.201,0.697,0.12
11.51,-0.179,0.886,0.006
11.52,-0.296,1.221,-0.259
11.53,-0.183,0.813,0.018
11.54,-0.148,1.19,0.178
11.55,-0.097,0.642,0.074
11.56,-0.523,1.188,-0.173
11.57,-0.122,0.937,-0.037
11.58,-0.107,1.073,0.049
11.59,-0.204,0.885,0.192
11.6,-0.245,0.787,-0.077
11.61,-0.364,1.114,-0.225
11.62,-0.093,0.873,0.111
11.63,-0.161,1.229,0.137
11.64,-0.086,0.597,0.035
11.65,-0.519,1.15,-0.161
11.66,-0.022,1.022,-0.023
11.67,-0.154,0.98,0.1
11.68,-0.25,0.933,0.149
11.69,-0.204,0.792,-0.116
11.7,-0.306,1.196,-0.184
11.71,-0.185,0.875,0.176
11.72,-0.087,1.11,0.097
11.73,-0.174,0.626,-0.04
11.74,-0.396,1.2,-0.118
11.75,-0.116,1.026,-0.067
11.76,-0.228,0.834,0.187
11.77,-0.138,1.044,0.152
11.78,-0.353,0.746,-0.157
11.79,-0.318,1.252,-0.084
11.8,-0.031,0.885,0.067
11.81,-0.157,0.946,0.144
11.82,-0.218,0.805,0.045
11.83,-0.363,1.121,-0.253
11.84,-0.094,1.054,-0.004
11.85,-0.174,0.856,0.215
11.86,-0.137,1.014,0.09
11.87,-0.376,0.782,-0.166
11.88,-0.222,1.286,-0.077
11.89,-0.091,0.812,0.07
11.9,-0.16,0.907,0.185
11.91,-0.295,0.925,-0.031
11.92,-0.301,0.95,-0.218
11.93,-0.119,1.164,0.051
11.94,-0.151,0.851,0.18
11.95,-0.162,1.017,0.062
11.96,-0.351,0.842,-0.2
11.97,-0.126,1.235,-0.053
11.98,-0.112,0.83,0.11
11.99,-0.141,0.888,0.187
12.0,-0.317,0.996,-0.078
12.01,-0.314,0.873,-0.151
12.02,-0.211,1.234,0.118
12.03,-0.036,0.758,0.13
12.04,-0.283,1.02,0.024
12.05,-0.425,0.907,-0.14
12.06,-0.121,1.181,-0.076
12.07,-0.163,0.819,0.105
12.08,-0.126,0.858,0.188
12.09,-0.4,1.083,-0.197
12.1,-0.266,0.802,-0.127
12.11,-0.042,1.316,0.118
12.12,-0.166,0.594,0.122
12.13,-0.305,1.045,0.008
12.14,-0.265,0.982,-0.233
12.15,-0.184,0.992,-0.037
12.16,-0.195,0.929,0.184
12.17,-0.045,0.78,0.102
12.18,-0.499,1.119,-0.176
12.19,-0.122,0.893,-0.028
12.2,-0.121,1.293,0.034
12.21,-0.162,0.631,0.133
12.22,-0.214,1.057,-0.034
12.23,-0.375,1.005,-0.223
12.24,-0.139,0.973,0.048
12.25,-0.056,1.113,0.15
12.26,-0.175,0.662,0.037
12.27,-0.336,1.206,-0.163
12.28,-0.104,0.934,-0.096
12.29,-0.249,1.072,0.086
12.3,-0.001,0.711,0.169
12.31,-0.435,1.149,-0.181
12.32,-0.334,0.787,-0.128
12.33,0.051,1.241,0.087
12.34,-0.246,0.889,0.132
12.35,-0.255,0.733,0.07
12.36,-0.292,1.303,-0.205
12.37,-0.194,0.817,-0.058
12.38,-0.2,1.113,0.159
12.39,0.009,0.731,0.071
12.4,-0.48,1.075,-0.167
12.41,-0.185,0.995,-0.038
12.42,-0.096,1.081,0.062
12.43,-0.155,0.836,0.124
12.44,-0.131,0.816,0.098
12.45,-0.489,1.317,-0.25
12.46,-0.113,0.733,0.032
12.47,-0.047,1.273,0.167
12.48,-0.195,0.666,0.071
12.49,-0.484,1.063,-0.155
12.5,-0.022,1.097,-0.145
12.51,-0.107,0.899,0.043
12.52,-0.141,0.965,0.189
12.53,-0.166,0.753,-0.13
12.54,-0.409,1.194,-0.184
12.55,-0.075,0.885,0.116
12.56,-0.137,1.109,0.088
12.57,-0.224,0.698,0.068
12.58,-0.362,1.139,-0.163
12.59,-0.153,1.134,-0.116
12.6,-0.118,0.732,0.11
12.61,-0.132,1.052,0.204
12.62,-0.326,0.764,-0.119
12.63,-0.306,1.182,-0.162
12.64,-0.035,0.943,0.122
12.65,-0.143,0.954,0.11
12.66,-0.251,0.802,0.026
12.67,-0.415,1.078,-0.189
12.68,-0.088,1.141,-0.085
12.69,-0.145,0.711,0.132
12.7,-0.196,1.088,0.167
12.71,-0.315,0.78,-0.206
12.72,-0.304,1.166,-0.087
12.73,-0.016,0.96,0.149
12.74,-0.172,0.889,0.13
12.75,-0.295,0.9,-0.041
12.76,-0.266,1.022,-0.2
12.77,-0.144,1.186,0.013
12.78,-0.212,0.721,0.202
12.79,-0.174,1.049,0.06
12.8,-0.306,0.818,-0.235
12.81,-0.147,1.21,-0.069
12.82,-0.076,0.97,0.143
12.83,-0.201,0.768,0.16
12.84,-0.245,1.027,-0.079
12.85,-0.304,0.928,-0.144
12.86,-0.226,1.241,0.069
12.87,-0.097,0.706,0.171
12.88,-0.211,1.027,0.006
12.89,-0.433,0.907,-0.132
12.9,-0.165,1.127,-0.082
12.91,-0.104,0.91,0.127
12.92,-0.13,0.802,0.187
12.93,-0.366,1.087,-0.137
12.94,-0.276,0.813,-0.151
12.95,-0.068,1.308,0.045
12.96,-0.119,0.643,0.144
12.97,-0.259,1.033,0.034
12.98,-0.401,0.984,-0.234
12.99,-0.065,0.971,-0.058
13.0,-0.212,1.086,0.202
13.01,-0.125,0.709,0.093
13.02,-0.413,1.157,-0.171
13.03,-0.217,0.917,-0.053
13.04,-0.193,1.219,0.089
13.05,-0.145,0.66,0.218
13.06,-0.26,1.043,-0.06
13.07,-0.463,0.986,-0.195
13.08,-0.128,0.927,0.062
13.09,-0.14,0.967,0.096
13.1,-0.106,0.73,0.023
13.11,-0.363,1.221,-0.193
13.12,-0.239,0.89,-0.085
13.13,-0.176,1.114,0.059
13.14,-0.01,0.743,0.17
13.15,-0.414,1.067,-0.07
13.16,-0.302,0.871,-0.134
13.17,0.003,1.193,0.052
13.18,-0.22,0.896,0.126
13.19,-0.202,0.727,0.085
13.2,-0.418,1.349,-0.214
13.21,-0.128,0.751,-0.044
13.22,-0.182,1.181,0.162
13.23,-0.031,0.718,0.11
13.24,-0.448,1.018,-0.163
13.25,-0.251,1.026,-0.037
13.26,-0.083,1.024,0.026
13.27,-0.216,0.927,0.182
13.28,-0.182,0.722,0.007
13.29,-0.401,1.339,-0.275
13.3,-0.158,0.752,0.069
13.31,-0.084,1.248,0.169
13.32,-0.188,0.705,0.083
13.33,-0.347,0.976,-0.153
13.34,-0.148,1.196,-0.077
13.35,-0.143,0.889,0.099
13.36,-0.166,0.978,0.145
13.37,-0.205,0.769,-0.036
13.38,-0.511,1.3,-0.212
13.39,-0.133,0.812,0.074
13.4,-0.062,1.156,0.126
13.41,-0.209,0.759,0.065
13.42,-0.379,0.99,-0.165
13.43,-0.131,1.204,-0.11
13.44,-0.151,0.758,0.104
13.45,-0.116,1.067,0.21
13.46,-0.288,0.724,-0.155
13.47,-0.303,1.183,-0.174
13.48,-0.06,0.989,0.11
13.49,-0.174,0.933,0.123
13.5,-0.156,0.827,0.048
13.51,-0.311,1.103,-0.178
13.52,-0.212,1.201,-0.058
13.53,-0.184,0.683,0.171
13.54,-0.078,1.082,0.112
13.55,-0.344,0.743,-0.161
13.56,-0.308,1.169,-0.089
13.57,-0.075,1.033,0.093
13.58,-0.179,0.781,0.093
13.59,-0.223,0.955,0.057
13.6,-0.376,1.006,-0.188
13.61,-0.172,1.088,-0.035
13.62,-0.087,0.755,0.178
13.63,-0.105,1.09,0.083
13.64,-0.391,0.776,-0.199
13.65,-0.224,1.121,-0.02
13.66,-0.138,1.062,0.033
13.67,-0.177,0.701,0.134
13.68,-0.185,1.06,-0.011
13.69,-0.451,0.917,-0.208
13.7,-0.106,1.17,-0.006
13.71,-0.02,0.853,0.107
13.72,-0.195,0.977,0.073
13.73,-0.295,0.909,-0.176
13.74,-0.114,1.121,-0.103
13.75,-0.221,0.939,0.109
13.76,-0.109,0.708,0.158
13.77,-0.336,1.138,-0.096
13.78,-0.336,0.775,-0.182
13.79,-0.09,1.292,0.092
13.8,-0.161,0.784,0.149
13.81,-0.166,0.9,0.016
13.82,-0.325,1.049,-0.188
13.83,-0.117,1.02,-0.072
13.84,-0.16,1.014,0.112
13.85,-0.123,0.74,0.183
13.86,-0.396,1.159,-0.14
13.87,-0.272,0.786,-0.164
13.88,-0.078,1.292,0.08
13.89,-0.152,0.78,0.14
13.9,-0.221,1.01,0.014
13.91,-0.348,1.03,-0.211
13.92,-0.104,0.993,-0.042
13.93,-0.147,0.958,0.162
13.94,-0.127,0.758,0.088
13.95,-0.471,1.106,-0.173
13.96,-0.166,0.893,-0.024
13.97,-0.193,1.288,0.074
13.98,-0.094,0.622,0.118
13.99,-0.298,1.065,0.023
14.0,-0.312,1.012,-0.269
14.01,-0.081,0.941,-0.01
14.02,-0.064,1.103,0.163
14.03,-0.217,0.68,0.105
14.04,-0.449,1.169,-0.15
14.05,-0.079,0.912,-0.063
14.06,-0.177,1.168,0.09
14.07,-0.124,0.72,0.191
14.08,-0.304,1.029,-0.061
14.09,-0.352,0.955,-0.22
14.1,-0.037,1.017,0.13
14.11,-0.157,1.139,0.107
14.12,-0.182,0.62,-0.018
14.13,-0.376,1.327,-0.149
14.14,-0.129,0.868,-0.107
14.15,-0.192,1.049,0.112
14.16,-0.046,0.839,0.202
14.17,-0.411,0.918,-0.183
14.18,-0.265,0.974,-0.165
14.19,0.031,1.061,0.097
14.2,-0.208,1.023,0.08
14.21,-0.188,0.623,0.024
14.22,-0.359,1.395,-0.168
14.23,-0.234,0.853,-0.032
14.24,-0.217,1.005,0.183
14.25,-0.053,0.839,0.091
14.26,-0.471,0.851,-0.199
14.27,-0.242,1.22,-0.01
14.28,0.014,0.958,0.032
14.29,-0.24,0.926,0.13
14.3,-0.165,0.716,0.032
14.31,-0.28,1.359,-0.309
14.32,-0.164,0.832,-0.028
14.33,-0.123,1.053,0.225
14.34,-0.121,0.883,0.053
14.35,-0.519,0.838,-0.16
14.36,-0.112,1.338,0.005
14.37,-0.162,0.807,0.063
14.38,-0.288,0.966,0.22
14.39,-0.085,0.817,-0.079
14.4,-0.403,1.147,-0.228
14.41,-0.23,0.928,0.119
14.42,0.052,0.949,0.112
14.43,-0.252,0.921,-0.022
14.44,-0.347,0.873,-0.11
14.45,-0.092,1.299,-0.09
14.46,-0.235,0.707,0.091
14.47,-0.09,1.012,0.181
14.48,-0.315,0.867,-0.14
14.49,-0.398,1.012,-0.132
14.5,0.052,1.149,0.042
14.51,-0.168,0.723,0.113
14.52,-0.214,0.987,0.062
14.53,-0.289,1.023,-0.2
14.54,-0.194,1.193,-0.012
14.55,-0.246,0.706,0.171
14.56,-0.068,0.999,0.119
14.57,-0.396,0.904,-0.194
14.58,-0.277,1.018,0.003
14.59,-0.064,1.184,0.014
14.6,-0.104,0.607,0.103
14.61,-0.243,1.129,0.075
14.62,-0.316,0.924,-0.212
14.63,-0.188,1.126,-0.046
14.64,-0.034,0.801,0.137
14.65,-0.204,0.91,0.105
14.66,-0.471,1.013,-0.136
14.67,-0.062,1.025,-0.087
14.68,-0.146,1.133,0.076
14.69,-0.193,0.64,0.193
14.7,-0.248,1.134,-0.06
14.71,-0.369,0.808,-0.19
14.72,-0.09,1.239,0.106
14.73,-0.036,0.739,0.094
14.74,-0.3,0.978,0.048
14.75,-0.338,1.0,-0.17
14.76,-0.17,1.077,-0.041
14.77,-0.205,0.996,0.076
14.78,-0.031,0.748,0.15
14.79,-0.419,1.143,-0.117
14.8,-0.332,0.821,-0.123
14.81,0.014,1.299,0.093
14.82,-0.141,0.67,0.134
14.83,-0.348,0.977,0.089
14.84,-0.293,1.097,-0.252
14.85,-0.131,0.895,-0.039
14.86,-0.226,1.089,0.246
14.87,0.03,0.708,0.064
14.88,-0.521,1.135,-0.232
14.89,-0.154,0.847,-0.036
14.9,-0.086,1.276,0.032
14.91,-0.171,0.641,0.145
14.92,-0.181,0.923,0.025
14.93,-0.334,1.126,-0.266
14.94,-0.135,0.855,0.026
14.95,-0.126,1.239,0.18
14.96,-0.141,0.582,0.078
14.97,-0.441,1.18,-0.16
14.98,-0.012,0.991,-0.084
14.99,-0.235,1.113,0.086
15.0,-0.142,0.805,0.203
15.01,-0.273,0.905,-0.093
15.02,-0.358,1.104,-0.168
15.03,-0.112,0.885,0.039
15.04,-0.057,1.215,0.122
15.05,-0.146,0.59,0.037
15.06,-0.51,1.204,-0.156
15.07,0.008,0.996,-0.104
15.08,-0.22,1.017,0.084
15.09,-0.167,0.88,0.206
15.1,-0.255,0.864,-0.161
15.11,-0.311,1.119,-0.151
15.12,-0.072,0.951,0.109
15.13,-0.076,1.131,0.082
15.14,-0.201,0.645,-0.004
15.15,-0.444,1.226,-0.16
15.16,-0.023,1.014,-0.08
15.17,-0.264,0.925,0.144
15.18,-0.097,0.929,0.188
15.19,-0.369,0.825,-0.16
15.2,-0.397,1.18,-0.089
15.21,0.035,0.927,0.091
15.22,-0.126,0.986,0.068
15.23,-0.327,0.735,0.053
15.24,-0.263,1.206,-0.206
15.25,-0.114,0.974,-0.065
15.26,-0.198,0.838,0.238
15.27,-0.039,1.016,0.074
15.28,-0.413,0.792,-0.23
15.29,-0.282,1.278,-0.012
15.3,-0.015,0.906,0.085
15.31,-0.272,0.931,0.131
15.32,-0.217,0.838,-0.012
15.33,-0.29,1.093,-0.212
15.34,-0.148,1.075,0.005
15.35,-0.121,0.805,0.18
15.36,-0.134,1.009,0.068
15.37,-0.42,0.838,-0.185
15.38,-0.148,1.263,-0.065
15.39,-0.121,0.814,0.078
15.4,-0.234,0.916,0.171
15.41,-0.203,0.958,-0.129
15.42,-0.296,0.961,-0.176
15.43,-0.223,1.154,0.12
15.44,-0.025,0.761,0.131
15.45,-0.267,1.02,-0.011
15.46,-0.39,0.89,-0.143
15.47,-0.16,1.181,-0.063
15.48,-0.252,0.794,0.153
15.49,-0.082,0.907,0.131
15.5,-0.361,1.031,-0.169
15.51,-0.32,0.855,-0.126
15.52,-0.016,1.267,0.048
15.53,-0.08,0.624,0.097
15.54,-0.228,1.059,0.024
15.55,-0.324,0.909,-0.261
15.56,-0.16,1.17,-0.023
15.57,-0.168,0.786,0.174
15.58,-0.083,0.949,0.074
15.59,-0.421,1.003,-0.193
15.6,-0.168,1.012,-0.06
15.61,-0.115,1.059,0.073
15.62,-0.148,0.676,0.135
15.63,-0.283,1.139,-0.041
15.64,-0.3,0.787,-0.272
15.65,-0.147,1.15,0.085
15.66,-0.092,0.894,0.157
15.67,-0.23,0.841,0.007
15.68,-0.353,1.054,-0.187
15.69,0.035,1.018,-0.116
15.7,-0.186,1.1,0.031
15.71,-0.13,0.69,0.195
15.72,-0.325,1.188,-0.123
15.73,-0.355,0.781,-0.17
15.74,-0.054,1.257,0.076
15.75,-0.035,0.84,0.088
15.76,-0.306,0.806,0.069
15.77,-0.29,1.248,-0.203
15.78,-0.166,0.851,-0.062
15.79,-0.229,1.122,0.174
15.8,-0.043,0.726,0.16
15.81,-0.45,1.077,-0.196
15.82,-0.204,0.859,-0.108
15.83,-0.049,1.206,0.067
15.84,-0.098,0.793,0.092
15.85,-0.2,0.791,0.064
15.86,-0.345,1.304,-0.226
15.87,-0.087,0.81,-0.043
15.88,-0.251,1.167,0.179
15.89,-0.043,0.699,0.107
15.9,-0.482,1.078,-0.172
15.91,-0.265,0.937,-0.078
15.92,0.028,1.101,0.075
15.93,-0.173,0.879,0.119
15.94,-0.242,0.73,0.04
15.95,-0.306,1.322,-0.21
15.96,-0.124,0.777,0.014
15.97,-0.257,1.175,0.23
15.98,-0.062,0.729,0.061
15.99,-0.501,1.064,-0.219
16.0,-0.121,1.05,-0.048
16.01,-0.051,0.981,0.054
16.02,-0.261,0.902,0.197
16.03,-0.126,0.729,-0.052
16.04,-0.376,1.328,-0.19
16.05,-0.212,0.824,0.079
16.06,0.039,1.141,0.059
16.07,-0.169,0.716,-0.015
16.08,-0.427,1.063,-0.127
16.09,-0.102,1.167,-0.066
16.1,-0.203,0.831,0.122
16.11,-0.182,0.999,0.217
16.12,-0.232,0.757,-0.139
16.13,-0.342,1.234,-0.146
16.14,-0.109,0.871,0.105
16.15,-0.157,0.999,0.12
16.16,-0.197,0.793,0.029
16.17,-0.382,1.107,-0.177
16.18,-0.133,1.168,-0.062
16.19,-0.191,0.737,0.13
16.2,-0.12,1.055,0.12
16.21,-0.256,0.757,-0.13
16.22,-0.292,1.182,-0.095
16.23,-0.111,0.952,0.133
16.24,-0.148,0.885,0.089
16.25,-0.211,0.853,-0.021
16.26,-0.369,1.02,-0.131
16.27,-0.117,1.194,-0.038
16.28,-0.13,0.702,0.128
16.29,-0.116,1.071,0.1
16.3,-0.344,0.801,-0.2
16.31,-0.294,1.165,-0.025
16.32,-0.014,1.025,0.061
16.33,-0.153,0.787,0.147
16.34,-0.287,0.994,0.027
16.35,-0.387,1.045,-0.2
16.36,-0.098,1.087,-0.009
16.37,-0.087,0.855,0.181
16.38,-0.158,1.007,0.025
16.39,-0.376,0.794,-0.19
16.4,-0.178,1.274,-0.053
16.41,-0.135,0.802,0.094
16.42,-0.132,0.901,0.151
16.43,-0.253,0.976,-0.088
16.44,-0.339,0.916,-0.135
16.45,-0.17,1.161,0.135
16.46,-0.056,0.771,0.153
16.47,-0.257,0.993,-0.012
16.48,-0.375,0.848,-0.112
16.49,-0.181,1.259,-0.073
16.5,-0.125,0.777,0.099
16.51,-0.186,0.887,0.191
16.52,-0.361,1.039,-0.122
16.53,-0.242,0.804,-0.18
16.54,-0.039,1.289,0.085
16.55,-0.101,0.671,0.13
16.56,-0.323,1.039,0.015
16.57,-0.32,0.958,-0.133
16.58,-0.202,1.096,-0.027
16.59,-0.193,0.841,0.14
16.6,-0.066,0.869,0.14
16.61,-0.389,1.108,-0.238
16.62,-0.302,0.857,-0.052
16.63,0.035,1.27,0.078
16.64,-0.16,0.591,0.138
16.65,-0.31,1.084,0.045
16.66,-0.248,1.007,-0.243
16.67,-0.209,0.969,0.006
16.68,-0.13,0.994,0.163
16.69,-0.131,0.736,0.1
16.7,-0.504,1.157,-0.2
16.71,-0.095,0.839,-0.07
16.72,-0.114,1.257,0.06
16.73,-0.153,0.627,0.157
16.74,-0.282,1.052,-0.068
16.75,-0.228,0.972,-0.254
16.76,-0.165,0.968,0.051
16.77,-0.054,1.1,0.144
16.78,-0.158,0.624,0.03
16.79,-0.423,1.19,-0.197
16.8,-0.031,1.004,-0.009
16.81,-0.226,1.118,0.088
16.82,-0.162,0.71,0.203
16.83,-0.247,1.03,-0.119
16.84,-0.375,1.0,-0.147
16.85,-0.118,0.968,0.15
16.86,-0.094,1.1,0.101
16.87,-0.284,0.622,0.022
16.88,-0.377,1.3,-0.156
16.89,-0.079,0.885,-0.112
16.9,-0.195,1.036,0.11
16.91,-0.06,0.823,0.216
16.92,-0.47,0.938,-0.148
16.93,-0.304,1.059,-0.146
16.94,0.068,0.985,0.065
16.95,-0.215,1.037,0.102
16.96,-0.22,0.62,0.018
16.97,-0.379,1.333,-0.188
16.98,-0.075,0.843,-0.042
16.99,-0.247,1.045,0.229
17.0,-0.103,0.838,0.098
17.01,-0.419,0.9,-0.174
17.02,-0.214,1.223,-0.069
17.03,-0.03,0.893,0.077
17.04,-0.197,1.024,0.138
17.05,-0.219,0.722,-0.045
17.06,-0.371,1.283,-0.219
17.07,-0.083,0.888,0.018
17.08,-0.14,0.993,0.189
17.09,-0.18,0.893,0.079
17.1,-0.409,0.9,-0.166
17.11,-0.153,1.247,-0.048
17.12,-0.089,0.785,0.101
17.13,-0.141,1.03,0.121
17.14,-0.251,0.789,-0.076
17.15,-0.349,1.158,-0.162
17.16,-0.144,0.948,0.022
17.17,-0.11,1.004,0.166
17.18,-0.266,0.812,0.015
17.19,-0.407,1.001,-0.155
17.2,-0.082,1.145,-0.035
17.21,-0.178,0.795,0.147
17.22,-0.158,1.056,0.132
17.23,-0.356,0.783,-0.183
17.24,-0.22,1.209,-0.143
17.25,0.019,0.955,0.042
17.26,-0.169,0.819,0.157
17.27,-0.237,0.94,0.01
17.28,-0.304,0.991,-0.205
17.29,-0.217,1.087,-0.005
17.3,-0.074,0.744,0.191
17.31,-0.109,1.105,0.048
17.32,-0.428,0.791,-0.19
17.33,-0.151,1.193,-0.03
17.34,-0.046,0.986,0.026
17.35,-0.179,0.735,0.17
17.36,-0.237,1.05,0.011
17.37,-0.352,0.927,-0.205
17.38,-0.135,1.143,0.041
17.39,-0.02,0.777,0.149
17.4,-0.231,0.999,0.004
17.41,-0.357,0.875,-0.213
17.42,-0.092,1.187,-0.058
17.43,-0.115,0.923,0.098
17.44,-0.209,0.77,0.188
17.45,-0.296,1.115,-0.118
17.46,-0.3,0.8,-0.144
17.47,-0.144,1.3,0.145
17.48,-0.128,0.708,0.135
17.49,-0.312,0.939,-0.004
17.5,-0.367,1.052,-0.189
17.51,-0.07,1.043,-0.06
17.52,-0.26,0.986,0.173
17.53,-0.008,0.735,0.125
17.54,-0.459,1.187,-0.178
17.55,-0.25,0.82,-0.084
17.56,0.007,1.279,0.1
17.57,-0.135,0.67,0.089
17.58,-0.267,1.008,0.007
17.59,-0.301,1.102,-0.186
17.6,-0.055,0.949,0.084
17.61,-0.467,0.982,-0.183
17.62,-0.253,0.957,-0.044
17.63,-0.014,1.206,0.046
17.64,-0.222,0.61,0.127
17.65,-0.271,1.123,0.004
17.66,-0.285,0.915,-0.215
17.67,-0.16,1.121,0.073
17.68,-0.074,0.889,0.16
17.69,-0.167,0.82,0.009
17.7,-0.458,1.053,-0.189
17.71,-0.106,0.987,-0.036
17.72,-0.198,1.105,0.058
17.73,-0.132,0.656,0.201
17.74,-0.301,1.16,-0.118
17.75,-0.319,0.838,-0.143
17.76,-0.165,1.163,0.144
17.77,-0.075,0.902,0.116
17.78,-0.269,0.791,-0.052
17.79,-0.382,1.211,-0.166
17.8,-0.094,0.88,-0.059
17.81,-0.25,1.104,0.128
17.82,0.016,0.711,0.162
17.83,-0.529,1.144,-0.176
17.84,-0.233,0.866,-0.082
17.85,0.072,1.192,0.072
17.86,-0.241,0.839,0.114
17.87,-0.235,0.757,0.027
17.88,-0.296,1.295,-0.275
17.89,-0.14,0.843,0.023
17.9,-0.085,1.206,0.189
17.91,-0.115,0.625,-0.012
17.92,-0.443,1.23,-0.131
17.93,-0.006,0.963,-0.094
17.94,-0.189,1.024,0.121
17.95,-0.191,0.833,0.2
17.96,-0.328,0.961,-0.186
17.97,-0.28,1.075,-0.184
17.98,-0.017,0.971,0.156
17.99,-0.193,1.076,0.119
18.0,-0.229,0.637,0.02
18.01,-0.365,1.318,-0.187
18.02,-0.135,0.911,-0.019
18.03,-0.173,0.972,0.144
18.04,-0.054,0.907,0.08
18.05,-0.44,0.862,-0.185
18.06,-0.241,1.187,-0.043
18.07,-0.008,0.901,0.081
18.08,-0.22,0.991,0.097
18.09,-0.215,0.716,0.03
18.1,-0.365,1.231,-0.233
18.11,-0.159,0.962,0.082
18.12,-0.102,0.973,0.143
18.13,-0.127,0.857,-0.024
18.14,-0.439,0.9,-0.109
18.15,-0.123,1.302,-0.125
18.16,-0.095,0.713,0.099
18.17,-0.226,1.079,0.245
18.18,-0.277,0.78,-0.111
18.19,-0.413,1.008,-0.174
18.2,-0.008,1.102,0.112
18.21,-0.138,0.839,0.118
18.22,-0.271,0.965,0.034
18.23,-0.345,0.944,-0.157
18.24,-0.172,1.218,-0.017
18.25,-0.157,0.72,0.117
18.26,-0.115,1.018,0.141
18.27,-0.274,0.846,-0.226
18.28,-0.26,1.065,-0.092
18.29,-0.041,1.122,0.084
18.3,-0.152,0.662,0.108
18.31,-0.331,1.073,0.058
18.32,-0.295,0.945,-0.218
18.33,-0.118,1.211,-0.031
18.34,-0.132,0.738,0.196
18.35,-0.145,0.957,0.076
18.36,-0.425,1.004,-0.181
18.37,-0.177,1.033,-0.088
18.38,-0.068,1.035,0.05
18.39,-0.174,0.691,0.178
18.4,-0.307,1.146,-0.084
18.41,-0.206,0.783,-0.248
18.42,-0.145,1.28,0.088
18.43,-0.163,0.756,0.105
18.44,-0.121,0.86,0.079
18.45,-0.459,1.171,-0.182
18.46,-0.082,0.913,-0.114
18.47,-0.164,1.056,0.1
18.48,-0.101,0.718,0.176
18.49,-0.367,1.13,-0.152
18.5,-0.311,0.823,-0.13
18.51,-0.068,1.228,0.06
18.52,-0.07,0.811,0.056
18.53,-0.191,0.846,0.074
18.54,-0.414,1.231,-0.152
18.55,-0.18,0.827,-0.044
18.56,-0.17,1.131,0.183
18.57,-0.046,0.699,0.125
18.58,-0.476,1.119,-0.164
18.59,-0.161,0.888,-0.062
18.6,-0.12,1.218,0.057
18.61,-0.1,0.789,0.115
18.62,-0.184,0.843,0.056
18.63,-0.387,1.308,-0.19
18.64,-0.168,0.754,-0.024
18.65,-0.158,1.189,0.183
18.66,-0.055,0.695,0.094
18.67,-0.513,1.092,-0.204
18.68,-0.184,0.986,-0.051
18.69,-0.064,1.092,0.074
18.7,-0.151,0.837,0.135
18.71,-0.241,0.769,0.019
18.72,-0.326,1.314,-0.211
18.73,-0.091,0.782,-0.017
18.74,-0.063,1.188,0.136
18.75,-0.211,0.596,0.016
18.76,-0.423,1.234,-0.133
18.77,-0.153,0.97,-0.073
18.78,-0.155,1.019,0.082
18.79,-0.143,0.867,0.202
18.8,-0.3,0.915,-0.112
18.81,-0.323,1.086,-0.183
18.82,0.031,0.91,0.094
18.83,-0.157,1.117,0.134
18.84,-0.261,0.673,0.049
18.85,-0.399,1.299,-0.196
18.86,-0.17,0.888,-0.068
18.87,-0.186,0.979,0.162
18.88,-0.045,0.962,0.143
18.89,-0.401,0.819,-0.151
18.9,-0.295,1.154,-0.113
18.91,-0.034,0.948,0.094
18.92,-0.17,1.016,0.124
18.93,-0.143,0.643,-0.013
18.94,-0.36,1.304,-0.134
18.95,-0.143,0.98,-0.04
18.96,-0.239,0.885,0.143
18.97,-0.166,0.972,0.151
18.98,-0.384,0.786,-0.172
18.99,-0.233,1.25,-0.082
19.0,-0.06,0.878,0.046
19.01,-0.116,0.964,0.108
19.02,-0.222,0.778,0.014
19.03,-0.396,1.218,-0.203
19.04,-0.062,0.986,-0.031
19.05,-0.172,0.849,0.179
19.06,-0.249,0.99,0.132
19.07,-0.346,0.774,-0.207
19.08,-0.202,1.289,-0.023
19.09,-0.116,0.884,0.118
19.1,-0.157,0.911,0.126
19.11,-0.247,0.836,-0.035
19.12,-0.365,1.086,-0.187
19.13,-0.087,1.123,0.003
19.14,-0.171,0.835,0.184
19.15,-0.144,0.977,0.062
19.16,-0.381,0.859,-0.178
19.17,-0.158,1.294,-0.019
19.18,-0.102,0.775,0.087
19.19,-0.216,0.936,0.191
19.2,-0.305,0.943,-0.08
19.21,-0.322,0.92,-0.149
19.22,-0.118,1.182,0.076
19.23,-0.15,0.798,0.139
19.24,-0.152,0.977,-0.026
19.25,-0.335,0.891,-0.158
19.26,-0.22,1.237,-0.016
19.27,-0.083,0.766,0.121
19.28,-0.167,0.902,0.18
19.29,-0.428,1.017,-0.141
19.3,-0.225,0.83,-0.166
19.31,-0.072,1.277,0.09
19.32,-0.151,0.67,0.129
19.33,-0.193,1.054,-0.003
19.34,-0.386,0.946,-0.138
19.35,-0.177,1.114,-0.046
19.36,-0.093,0.88,0.129
19.37,-0.164,0.857,0.138
19.38,-0.447,1.056,-0.178
19.39,-0.26,0.853,-0.116
19.4,-0.028,1.308,0.065
19.41,-0.111,0.604,0.137
19.42,-0.33,1.056,0.034
19.43,-0.279,0.989,-0.244
19.44,-0.104,1.016,-0.042
19.45,-0.199,0.948,0.186
19.46,-0.108,0.762,0.081
19.47,-0.443,1.18,-0.234
19.48,-0.098,0.854,-0.037
19.49,-0.165,1.24,0.094
19.5,-0.119,0.641,0.146
19.51,-0.259,1.089,-0.074
19.52,-0.293,0.963,-0.193
19.53,-0.189,1.01,0.081
19.54,-0.076,1.011,0.102
19.55,-0.314,0.833,0.04
19.56,-0.361,1.183,-0.172
19.57,-0.13,0.899,-0.058
19.58,-0.132,1.12,0.09
19.59,-0.092,0.707,0.163
19.6,-0.388,1.153,-0.153
19.61,-0.37,0.878,-0.05
19.62,-0.074,1.184,0.14
19.63,-0.16,0.863,0.138
19.64,-0.239,0.747,0.004
19.65,-0.399,1.278,-0.178
19.66,-0.049,0.855,0.007
19.67,-0.213,1.179,0.135
19.68,-0.015,0.677,0.099
19.69,-0.459,1.109,-0.2
19.7,-0.211,0.972,-0.07
19.71,-0.017,1.056,0.046
19.72,-0.159,0.915,0.133
19.73,-0.335,0.753,-0.014
19.74,-0.313,1.262,-0.237
19.75,-0.086,0.81,0.047
19.76,-0.16,1.155,0.183
19.77,-0.13,0.661,0.031
19.78,-0.444,1.106,-0.205
19.79,-0.113,1.093,-0.033
19.8,-0.119,0.893,0.101
19.81,-0.204,0.964,0.133
19.82,-0.25,0.812,-0.099
19.83,-0.343,1.237,-0.153
19.84,-0.143,0.841,0.098
19.85,0.002,1.079,0.11
19.86,-0.225,0.698,-0.038
19.87,-0.449,1.074,-0.14
19.88,-0.056,1.158,-0.025
19.89,-0.225,0.772,0.086
19.9,-0.05,1.034,0.156
19.91,-0.344,0.839,-0.193
19.92,-0.315,1.205,-0.075
19.93,0.076,0.921,0.078
19.94,-0.184,0.954,0.164
19.95,-0.312,0.837,0.017
19.96,-0.292,1.096,-0.207
19.97,-0.119,1.135,0.008
19.98,-0.185,0.784,0.182
19.99,-0.115,1.018,0.042
20.0,-0.394,0.797,-0.195
20.01,-0.136,1.237,-0.098
20.02,-0.072,0.828,0.099
20.03,-0.113,0.88,0.131
20.04,-0.313,0.969,-0.062
20.05,-0.305,0.935,-0.155
20.06,-0.098,1.229,0.04
20.07,-0.127,0.731,0.139
20.08,-0.201,1.028,0.002
20.09,-0.359,0.913,-0.151
20.1,-0.203,1.202,-0.038
20.11,-0.143,0.775,0.149
20.12,-0.12,0.852,0.141
20.13,-0.375,1.079,-0.157
20.14,-0.264,0.84,-0.138
20.15,-0.13,1.271,0.103
20.16,-0.13,0.652,0.15
20.17,-0.286,1.018,-0.02
20.18,-0.323,0.972,-0.167
20.19,-0.136,1.116,0.001
20.2,-0.166,0.882,0.133
20.21,-0.113,0.817,0.103
20.22,-0.387,1.148,-0.199
20.23,-0.216,0.866,-0.055
20.24,-0.059,1.246,0.074
20.25,-0.085,0.63,0.104
20.26,-0.306,1.045,-0.03
20.27,-0.296,0.971,-0.183
20.28,-0.03,1.075,0.036
20.29,-0.212,1.005,0.173
20.3,-0.149,0.711,0.05
20.31,-0.506,1.226,-0.236
20.32,-0.069,0.864,-0.002
20.33,-0.175,1.204,0.133
20.34,-0.189,0.678,0.179
20.35,-0.298,1.028,-0.146
20.36,-0.249,1.015,-0.173
20.37,-0.077,1.187,0.153
20.38,-0.103,0.835,0.144
20.39,-0.32,0.802,-0.028
20.4,-0.298,1.221,-0.186
20.41,-0.129,0.882,0.066
20.42,-0.268,1.132,0.209
20.43,-0.101,0.665,0.069
20.44,-0.451,1.222,-0.224
20.45,-0.194,0.951,-0.002
20.46,-0.114,1.042,0.129
20.47,-0.168,0.881,0.123
20.48,-0.263,0.803,-0.105
20.49,-0.3,1.216,-0.195
20.5,-0.079,0.9,0.106
20.51,-0.186,1.13,0.149
20.52,-0.148,0.647,-0.005
20.53,-0.452,1.226,-0.184
20.54,-0.121,0.991,-0.028
20.55,-0.138,0.913,0.124
20.56,-0.203,0.978,0.162
20.57,-0.368,0.845,-0.191
20.58,-0.203,1.227,-0.169
20.59,-0.016,0.871,0.105
20.6,-0.149,0.973,0.167
20.61,-0.327,0.754,-0.008
20.62,-0.337,1.16,-0.196
20.63,-0.106,1.057,0.017
20.64,-0.209,0.874,0.205
20.65,-0.165,0.98,0.044
20.66,-0.392,0.81,-0.165
20.67,-0.15,1.312,-0.02
20.68,-0.072,0.805,0.105
20.69,-0.16,0.968,0.16
20.7,-0.311,0.884,-0.101
20.71,-0.342,1.048,-0.166
20.72,-0.016,1.15,0.065
20.73,-0.135,0.755,0.121
20.74,-0.23,1.027,0.044
20.75,-0.417,0.926,-0.164
20.76,-0.126,1.225,-0.075
20.77,-0.14,0.704,0.11
20.78,-0.101,0.962,0.115
20.79,-0.4,0.948,-0.205
20.8,-0.225,0.972,-0.106
20.81,0.048,1.213,0.07
20.82,-0.17,0.624,0.112
20.83,-0.343,1.093,0.006
20.84,-0.288,0.929,-0.212
20.85,-0.135,1.163,-0.013
20.86,-0.102,0.833,0.189
20.87,-0.146,0.866,0.021
20.88,-0.407,1.051,-0.211
20.89,-0.06,0.994,-0.068
20.9,-0.094,1.078,0.116
20.91,-0.18,0.662,0.148
20.92,-0.339,1.177,-0.126
20.93,-0.257,0.844,-0.185
20.94,-0.098,1.195,0.079
20.95,-0.105,0.814,0.097
20.96,-0.273,0.806,0.008
20.97,-0.349,1.227,-0.188
20.98,-0.104,0.845,0.0
20.99,-0.16,1.128,0.19
21.0,-0.073,0.684,0.091
21.01,-0.466,1.127,-0.197
21.02,-0.164,0.942,-0.117
21.03,-0.098,1.115,0.092
21.04,-0.13,0.851,0.11
21.05,-0.235,0.763,-0.057
21.06,-0.365,1.25,-0.187
21.07,-0.054,0.821,0.029
21.08,-0.172,1.166,0.167
21.09,-0.074,0.629,0.029
21.1,-0.473,1.187,-0.189
21.11,-0.123,1.042,-0.044
21.12,-0.103,0.905,0.097
21.13,-0.122,0.966,0.133
21.14,-0.355,0.773,-0.159
21.15,-0.252,1.217,-0.151
21.16,-0.036,0.897,0.067
21.17,-0.208,1.015,0.121
21.18,-0.183,0.728,0.019
21.19,-0.441,1.314,-0.206
21.2,-0.088,0.834,-0.018
21.21,-0.102,1.058,0.185
21.22,-0.195,0.847,0.076
21.23,-0.407,0.874,-0.189
21.24,-0.127,1.289,-0.055
21.25,-0.142,0.793,0.094
21.26,-0.162,0.999,0.166
21.27,-0.25,0.787,-0.073
21.28,-0.391,1.165,-0.202
21.29,0.005,0.954,0.093
21.3,-0.125,0.939,0.124
21.31,-0.293,0.904,-0.001
21.32,-0.348,0.969,-0.164
21.33,-0.186,1.236,-0.05
21.34,-0.138,0.711,0.174
21.35,-0.114,1.028,0.119
21.36,-0.377,0.817,-0.166
21.37,-0.259,1.144,-0.098
21.38,-0.066,1.045,0.086
21.39,-0.193,0.701,0.116
21.4,-0.25,1.066,-0.014
21.41,-0.245,0.934,-0.253
21.42,-0.174,1.183,-0.014
21.43,-0.044,0.78,0.156
21.44,-0.198,0.983,0.043
21.45,-0.421,0.907,-0.178
21.46,-0.121,1.126,-0.053
21.47,-0.133,0.982,0.084
21.48,-0.2,0.703,0.199
21.49,-0.308,1.181,-0.092
21.5,-0.261,0.807,-0.2
21.51,-0.157,1.272,0.115
21.52,-0.081,0.713,0.136
21.53,-0.265,0.94,0.003
21.54,-0.429,1.074,-0.169
21.55,-0.076,1.002,-0.063
21.56,-0.235,1.018,0.135
21.57,-0.105,0.725,0.137
21.58,-0.391,1.171,-0.21
21.59,-0.237,0.8,-0.104
21.6,-0.046,1.266,0.117
21.61,-0.086,0.703,0.128
21.62,-0.345,0.932,-0.009
21.63,-0.256,1.163,-0.224
21.64,-0.108,0.885,-0.024
21.65,-0.168,1.111,0.203
21.66,-0.068,0.702,0.048
21.67,-0.534,1.228,-0.179
21.68,-0.105,0.918,-0.038
21.69,-0.106,1.076,0.117
21.7,-0.184,0.763,0.15
21.71,-0.244,0.931,-0.142
21.72,-0.246,1.103,-0.159
21.73,-0.092,0.964,0.098
21.74,-0.186,1.069,0.138
21.75,-0.213,0.672,0.045
21.76,-0.43,1.273,-0.183
21.77,-0.13,0.902,-0.029
21.78,-0.13,1.017,0.119
21.79,-0.12,0.902,0.153
21.8,-0.372,0.847,-0.161
21.81,-0.275,1.178,-0.091
21.82,0.085,0.896,0.057
21.83,-0.209,0.998,0.123
21.84,-0.219,0.723,0.016
21.85,-0.39,1.252,-0.219
21.86,-0.134,0.95,0.028
21.87,-0.057,1.002,0.141
21.88,-0.223,0.89,0.035
21.89,-0.365,0.877,-0.183
21.9,-0.129,1.31,-0.045
21.91,-0.137,0.721,0.133
21.92,-0.178,1.004,0.176
21.93,-0.227,0.808,-0.134
21.94,-0.342,1.105,-0.152
21.95,-0.074,1.06,0.083
21.96,-0.056,0.853,0.149
21.97,-0.314,1.004,0.026
21.98,-0.361,0.919,-0.175
21.99,-0.17,1.244,-0.086
22.0,-0.133,0.724,0.205
22.01,-0.081,1.079,0.117
22.02,-0.409,0.756,-0.211
22.03,-0.182,1.223,-0.063
22.04,-0.046,0.962,0.082
22.05,-0.218,0.808,0.161
22.06,-0.188,1.0,-0.083
22.07,-0.354,1.001,-0.186
22.08,-0.149,1.176,0.053
22.09,-0.027,0.746,0.123
22.1,-0.207,1.02,0.02
22.11,-0.372,0.841,-0.148
22.12,-0.061,1.188,-0.048
22.13,-0.151,0.869,0.085
22.14,-0.166,0.816,0.152
22.15,-0.322,1.055,-0.119
22.16,-0.317,0.845,-0.152
22.17,-0.108,1.255,0.088
22.18,-0.1,0.656,0.147
22.19,-0.277,1.019,0.005
22.2,-0.362,0.95,-0.17
22.21,-0.06,1.078,-0.026
22.22,-0.156,0.914,0.146
22.23,-0.122,0.754,0.107
22.24,-0.442,1.168,-0.188
22.25,-0.249,0.848,-0.038
22.26,-0.108,1.282,0.105
22.27,-0.085,0.634,0.104
22.28,-0.326,1.022,-0.053
22.29,-0.267,1.016,-0.175
22.3,-0.064,1.008,0.01
22.31,-0.12,1.007,0.187
22.32,-0.11,0.715,0.018
22.33,-0.509,1.227,-0.227
22.34,-0.07,0.862,-0.01
22.35,-0.162,1.182,0.108
22.36,-0.177,0.678,0.166
22.37,-0.279,1.056,-0.106
22.38,-0.327,1.079,-0.136
22.39,-0.089,0.953,0.17
22.4,-0.131,1.068,0.149
22.41,-0.285,0.619,-0.042
22.42,-0.311,1.296,-0.204
22.43,-0.07,0.892,-0.015
22.44,-0.303,1.06,0.235
22.45,-0.094,0.758,0.095
22.46,-0.438,1.041,-0.234
22.47,-0.138,1.142,-0.038
22.48,-0.104,0.896,0.147
22.49,-0.234,0.997,0.142
22.5,-0.239,0.713,-0.053
22.51,-0.326,1.237,-0.219
22.52,-0.118,0.907,0.087
22.53,-0.066,1.02,0.143
22.54,-0.256,0.801,0.033
22.55,-0.458,1.012,-0.143
22.56,-0.109,1.2,-0.071
22.57,-0.104,0.743,0.074
22.58,-0.055,1.077,0.109
22.59,-0.317,0.786,-0.205
22.6,-0.318,1.192,-0.073
22.61,0.046,0.954,0.099
22.62,-0.188,0.85,0.116
22.63,-0.233,0.948,-0.004
22.64,-0.318,0.986,-0.218
22.65,-0.176,1.208,0.036
22.66,-0.104,0.751,0.167
22.67,-0.165,1.003,0.011
22.68,-0.411,0.854,-0.191
22.69,-0.063,1.169,-0.081
22.7,-0.121,0.842,0.082
22.71,-0.128,0.795,0.231
22.72,-0.308,1.107,-0.108
22.73,-0.411,0.871,-0.113
22.74,-0.006,1.28,0.107
22.75,-0.112,0.667,0.067
22.76,-0.308,1.011,0.066
22.77,-0.31,1.057,-0.216
22.78,-0.12,1.01,-0.057
22.79,-0.165,0.906,0.186
22.8,-0.052,0.806,0.124
22.81,-0.474,1.03,-0.19
22.82,-0.042,0.939,-0.085
22.83,-0.157,1.146,0.061
22.84,-0.17,0.665,0.156
22.85,-0.305,1.12,-0.082
22.86,-0.345,0.906,-0.178
22.87,-0.124,1.136,0.069
22.88,-0.013,0.853,0.075
22.89,-0.224,0.825,0.018
22.9,-0.408,1.212,-0.18
22.91,-0.075,0.905,-0.049
22.92,-0.24,1.085,0.109
22.93,0.016,0.704,0.13
22.94,-0.483,1.128,-0.165
22.95,-0.259,0.889,-0.128
22.96,0.026,1.194,0.089
22.97,-0.23,0.825,0.128
22.98,-0.232,0.786,-0.009
22.99,-0.241,1.292,-0.262
23.0,-0.076,0.828,0.039
23.01,-0.119,1.182,0.201
23.02,-0.147,0.666,0.034
23.03,-0.468,1.132,-0.206
23.04,-0.119,1.063,-0.024
23.05,-0.134,0.972,0.091
23.06,-0.182,0.934,0.157
23.07,-0.243,0.801,-0.111
23.08,-0.33,1.231,-0.186
23.09,-0.051,0.851,0.145
23.1,-0.099,1.122,0.112
23.11,-0.2,0.684,-0.01
23.12,-0.432,1.167,-0.128
23.13,-0.146,1.058,-0.031
23.14,-0.174,0.834,0.1
23.15,-0.108,1.03,0.13
23.16,-0.393,0.766,-0.169
23.17,-0.329,1.271,-0.048
23.18,0.041,0.829,0.095
23.19,-0.164,0.941,0.121
23.2,-0.268,0.807,-0.002
23.21,-0.244,1.128,-0.235
23.22,-0.153,1.091,-0.01
23.23,-0.077,0.808,0.186
23.24,-0.216,0.995,-0.005
23.25,-0.45,0.829,-0.163
23.26,-0.104,1.323,-0.018
23.27,-0.158,0.751,0.098
23.28,-0.114,0.904,0.185
23.29,-0.316,0.991,-0.156
23.3,-0.328,0.938,-0.158
23.31,0.019,1.192,0.083
23.32,-0.136,0.692,0.15
23.33,-0.343,1.079,0.047
23.34,-0.333,0.901,-0.173
23.35,-0.201,1.187,0.004
23.36,-0.145,0.778,0.165
23.37,-0.102,0.883,0.103
23.38,-0.379,1.042,-0.198
23.39,-0.18,0.927,-0.036
23.4,-0.049,1.15,0.063
23.41,-0.168,0.655,0.133
23.42,-0.275,1.171,-0.047
23.43,-0.318,0.878,-0.217
23.44,-0.199,1.149,0.094
23.45,-0.066,0.901,0.138
23.46,-0.263,0.825,0.026
23.47,-0.474,1.154,-0.174
23.48,-0.052,0.906,-0.118
23.49,-0.144,1.103,0.086
23.5,-0.174,0.662,0.195
23.51,-0.33,1.137,-0.185
23.52,-0.287,0.844,-0.132
23.53,-0.011,1.174,0.158
23.54,-0.152,0.897,0.097
23.55,-0.294,0.774,0.028
23.56,-0.303,1.289,-0.216
23.57,-0.161,0.839,-0.009
23.58,-0.172,1.138,0.2
23.59,-0.048,0.682,0.078
23.6,-0.467,1.108,-0.207
23.61,-0.148,1.017,-0.029
23.62,-0.104,0.941,0.116
23.63,-0.211,0.792,0.205
23.64,-0.263,0.942,-0.084
23.65,-0.346,1.095,-0.22
23.66,0.012,0.939,0.079
23.67,-0.171,1.093,0.125
23.68,-0.26,0.612,0.034
23.69,-0.326,1.326,-0.206
23.7,-0.076,0.913,-0.047
23.71,-0.223,0.99,0.197
23.72,-0.035,0.905,0.132
23.73,-0.432,0.854,-0.202
23.74,-0.309,1.185,-0.073
23.75,0.035,0.882,0.084
23.76,-0.26,1.102,0.086
23.77,-0.159,0.706,-0.026
23.78,-0.388,1.21,-0.18
23.79,-0.232,0.913,0.068
23.8,-0.027,0.97,0.154
23.81,-0.139,0.938,0.032
23.82,-0.49,0.849,-0.142
23.83,-0.097,1.283,-0.076
23.84,-0.081,0.736,0.077
23.85,-0.236,1.037,0.211
23.86,-0.247,0.756,-0.095
23.87,-0.324,1.119,-0.133
23.88,-0.113,1.083,0.11
23.89,-0.124,0.866,0.178
23.9,-0.286,0.954,0.021
23.91,-0.342,0.911,-0.161
23.92,-0.203,1.248,-0.095
23.93,-0.049,0.677,0.103
23.94,-0.103,1.093,0.132
23.95,-0.39,0.818,-0.163
23.96,-0.311,1.014,-0.114
23.97,-0.005,1.166,0.057
23.98,-0.134,0.676,0.125
23.99,-0.314,1.071,0.038
24.0,-0.274,0.924,-0.236
24.01,-0.15,1.156,-0.035
24.02,-0.121,0.753,0.218
24.03,-0.121,1.001,0.048
24.04,-0.379,0.917,-0.232
24.05,-0.159,1.029,-0.054
24.06,-0.047,1.099,0.05
24.07,-0.19,0.635,0.178
24.08,-0.324,1.165,-0.018
24.09,-0.35,0.864,-0.173
24.1,-0.186,1.19,0.043
24.11,-0.041,0.863,0.137
24.12,-0.168,0.87,-0.03
24.13,-0.408,1.054,-0.169
24.14,-0.069,0.979,-0.068
24.15,-0.155,1.069,0.119
24.16,-0.171,0.618,0.219
24.17,-0.32,1.199,-0.136
24.18,-0.285,0.844,-0.198
24.19,-0.091,1.216,0.122
24.2,-0.083,0.838,0.145
24.21,-0.275,0.816,0.012
24.22,-0.356,1.206,-0.217
24.23,-0.042,0.878,-0.042
24.24,-0.269,1.115,0.161
24.25,-0.062,0.662,0.105
24.26,-0.391,1.129,-0.204
24.27,-0.34,0.951,0.007
24.28,-0.09,1.135,0.108
24.29,-0.169,0.844,0.116
24.3,-0.222,0.82,-0.032
24.31,-0.358,1.24,-0.19
24.32,-0.124,0.841,0.002
24.33,-0.177,1.147,0.194
24.34,-0.162,0.672,0.073
24.35,-0.49,1.152,-0.158
24.36,-0.139,1.002,-0.093
24.37,-0.11,0.982,0.056
24.38,-0.152,0.903,0.149
24.39,-0.263,0.8,-0.094
24.4,-0.302,1.226,-0.162
24.41,-0.108,0.859,0.083
24.42,-0.099,1.105,0.14
24.43,-0.203,0.672,0.022
24.44,-0.44,1.178,-0.163
24.45,-0.099,0.871,-0.07
24.46,-0.19,1.024,0.132
24.47,-0.074,0.855,0.122
24.48,-0.376,0.897,-0.195
24.49,-0.225,1.16,-0.104
24.5,-0.064,0.899,0.082
24.51,-0.109,0.993,0.072
24.52,-0.248,0.707,0.007
24.53,-0.374,1.276,-0.203
24.54,-0.128,0.902,-0.03
24.55,-0.064,1.008,0.123
24.56,-0.157,0.882,0.065
24.57,-0.436,0.89,-0.136
24.58,-0.119,1.313,-0.095
24.59,-0.076,0.742,0.082
24.6,-0.189,1.036,0.218
24.61,-0.226,0.79,-0.091
24.62,-0.385,1.103,-0.169
24.63,-0.171,1.035,0.13
24.64,-0.165,0.911,0.145
24.65,-0.17,0.937,0.027
24.66,-0.383,0.931,-0.152
24.67,-0.22,1.27,-0.045
24.68,-0.155,0.718,0.107
24.69,-0.176,1.029,0.145
24.7,-0.317,0.833,-0.143
24.71,-0.294,1.026,-0.128
24.72,-0.041,1.092,0.033
24.73,-0.12,0.74,0.127
24.74,-0.268,1.022,0.018
24.75,-0.386,0.944,-0.173
24.76,-0.087,1.221,-0.047
24.77,-0.177,0.741,0.133
24.78,-0.127,0.983,0.105
24.79,-0.423,0.86,-0.178
24.8,-0.21,0.996,-0.04
24.81,-0.069,1.244,0.121
24.82,-0.207,0.618,0.141
24.83,-0.275,1.115,0.02
24.84,-0.306,0.934,-0.24
24.85,-0.126,1.139,-0.023
24.86,-0.092,0.816,0.222
24.87,-0.205,0.933,0.085
24.88,-0.424,0.998,-0.226
24.89,-0.058,0.952,-0.06
24.9,-0.194,1.155,0.101
24.91,-0.133,0.636,0.176
24.92,-0.313,1.173,-0.068
24.93,-0.281,0.797,-0.242
24.94,-0.112,1.158,0.115
24.95,-0.093,0.869,0.111
24.96,-0.164,0.792,0.057
24.97,-0.422,1.176,-0.159
24.98,-0.154,0.926,-0.03
24.99,-0.144,1.125,0.074
25.0,-0.062,0.677,0.159
25.01,-0.367,1.125,-0.128
25.02,-0.216,0.846,-0.17
25.03,-0.098,1.229,0.105
25.04,-0.128,0.894,0.134
25.05,-0.301,0.75,0.065
25.06,-0.375,1.245,-0.204
25.07,-0.065,0.841,-0.06
25.08,-0.2,1.178,0.16
25.09,-0.023,0.698,0.145
25.1,-0.474,1.117,-0.177
25.11,-0.217,0.918,-0.101
25.12,-0.056,1.132,0.066
25.13,-0.17,0.839,0.132
25.14,-0.215,0.746,0.035
25.15,-0.388,1.348,-0.252
25.16,-0.101,0.77,0.028
25.17,-0.182,1.207,0.148
25.18,-0.086,0.66,0.057
25.19,-0.44,1.063,-0.192
25.2,-0.156,1.113,-0.029
25.21,-0.122,0.949,0.067
25.22,-0.154,0.914,0.147
25.23,-0.185,0.808,-0.017
25.24,-0.409,1.304,-0.224
25.25,-0.165,0.809,0.104
25.26,-0.146,1.227,0.159
25.27,-0.267,0.616,0.016
25.28,-0.371,1.21,-0.136
25.29,-0.122,0.966,-0.123
25.3,-0.174,0.946,0.118
25.31,-0.076,0.948,0.133
25.32,-0.358,0.815,-0.14
25.33,-0.333,1.179,-0.134
25.34,0.017,0.92,0.044
25.35,-0.219,1.036,0.126
25.36,-0.185,0.702,0.056
25.37,-0.372,1.255,-0.23
25.38,-0.163,0.927,-0.036
25.39,-0.054,0.926,0.142
25.4,-0.183,0.996,0.108
25.41,-0.361,0.74,-0.172
25.42,-0.198,1.236,-0.131
25.43,-0.016,0.906,0.062
25.44,-0.192,0.974,0.132
25.45,-0.157,0.759,0.083
25.46,-0.422,1.212,-0.211
25.47,-0.051,0.959,-0.053
25.48,-0.1,0.932,0.183
25.49,-0.202,1.044,0.064
25.5,-0.373,0.735,-0.194
25.51,-0.186,1.329,-0.045
25.52,-0.105,0.859,0.054
25.53,-0.12,0.904,0.152
25.54,-0.243,0.888,0.016
25.55,-0.426,1.051,-0.237
25.56,-0.141,0.994,-0.001
25.57,-0.07,0.881,0.176
25.58,-0.183,1.025,0.04
25.59,-0.354,0.759,-0.123
25.6,-0.106,1.288,-0.093
25.61,-0.128,0.771,0.118
25.62,-0.155,0.896,0.211
25.63,-0.222,1.0,-0.103
25.64,-0.365,0.887,-0.19
25.65,-0.144,1.177,0.093
25.66,-0.065,0.794,0.141
25.67,-0.261,1.007,0.038
25.68,-0.339,0.869,-0.181
25.69,-0.164,1.203,-0.046
25.7,-0.158,0.8,0.097
25.71,-0.057,0.884,0.182
25.72,-0.358,1.051,-0.141
25.73,-0.319,0.806,-0.129
25.74,-0.073,1.313,0.07
25.75,-0.135,0.697,0.109
25.76,-0.251,1.063,0.061
25.77,-0.311,0.936,-0.191
25.78,-0.25,1.095,-0.047
25.79,-0.151,0.839,0.165
25.8,-0.08,0.832,0.137
25.81,-0.414,1.085,-0.18
25.82,-0.209,0.805,-0.082
25.83,-0.122,1.332,0.06
25.84,-0.101,0.571,0.094
25.85,-0.221,1.068,0.013
25.86,-0.354,1.018,-0.209
25.87,-0.159,0.931,-0.013
25.88,-0.144,0.978,0.19
25.89,-0.108,0.766,0.062
25.9,-0.473,1.148,-0.172
25.91,-0.19,0.878,-0.073
25.92,-0.076,1.263,0.038
25.93,-0.129,0.624,0.164
25.94,0.012,1.015,0.034
25.95,-0.209,0.955,0.117
25.96,-0.247,0.701,0.035
25.97,-0.323,1.333,-0.218
25.98,-0.173,0.819,0.015
25.99,-0.092,1.138,0.142
26.0,-0.119,0.823,0.108
26.01,-0.469,1.101,-0.167
26.02,-0.121,0.984,-0.059
26.03,-0.108,0.989,0.118
26.04,-0.204,0.975,0.157
26.05,-0.283,0.749,-0.071
26.06,-0.331,1.222,-0.153
26.07,-0.104,0.884,0.095
26.08,-0.158,1.125,0.146
26.09,-0.183,0.676,0.033
26.1,-0.399,1.153,-0.188
26.11,-0.077,1.043,-0.117
26.12,-0.109,0.825,0.116
26.13,-0.103,1.05,0.15
26.14,-0.361,0.721,-0.145
26.15,-0.252,1.196,-0.133
26.16,-0.077,0.967,0.134
26.17,-0.163,0.959,0.105
26.18,-0.186,0.769,0.023
26.19,-0.344,1.183,-0.189
26.2,-0.152,1.04,-0.073
26.21,-0.164,0.778,0.21
26.22,-0.108,1.058,0.097
26.23,-0.42,0.713,-0.189
26.24,-0.202,1.244,-0.049
26.25,-0.049,0.942,0.058
26.26,-0.251,0.854,0.129
26.27,-0.116,0.936,0.002
26.28,-0.382,1.052,-0.218
26.29,-0.271,1.061,0.03
26.3,0.046,0.805,0.145
26.31,-0.289,1.043,0.048
26.32,-0.4,0.775,-0.109
26.33,-0.129,1.292,-0.148
26.34,-0.105,0.819,0.041
26.35,-0.167,0.898,0.21
26.36,-0.244,0.993,-0.116
26.37,-0.345,0.85,-0.166
26.38,-0.136,1.252,0.103
26.39,-0.083,0.725,0.116
26.4,-0.263,1.008,0.041
26.41,-0.279,0.932,-0.18
26.42,-0.226,1.151,-0.104
26.43,-0.155,0.881,0.139
26.44,-0.134,0.875,0.16
26.45,-0.359,1.03,-0.13
26.46,-0.233,0.823,-0.133
26.47,-0.201,1.267,0.102
26.48,-0.09,0.69,0.162
26.49,-0.238,0.989,-0.003
26.5,-0.42,0.976,-0.173
26.51,-0.153,1.097,-0.011
26.52,-0.172,0.929,0.076
26.53,-0.094,0.788,0.165
26.54,-0.442,1.125,-0.173
26.55,-0.269,0.789,-0.08
26.56,0.01,1.342,0.047
26.57,-0.141,0.645,0.144
26.58,-0.292,0.972,0.03
26.59,-0.259,1.068,-0.216
26.6,-0.126,0.942,-0.07
26.61,-0.18,1.041,0.166
26.62,-0.066,0.734,0.094
26.63,-0.502,1.173,-0.139
26.64,-0.185,0.877,-0.087
26.65,-0.076,1.206,0.083
26.66,-0.108,0.686,0.149
26.67,-0.281,0.984,-0.024
26.68,-0.282,1.079,-0.19
26.69,-0.174,0.96,0.025
26.7,-0.228,1.118,0.144
26.71,-0.082,0.632,0.095
26.72,-0.531,1.231,-0.178
26.73,-0.099,0.876,-0.07
26.74,-0.078,1.155,0.032
26.75,-0.152,0.734,0.172
26.76,-0.245,0.924,-0.093
26.77,-0.282,1.087,-0.209
26.78,-0.064,0.947,0.034
26.79,-0.182,1.162,0.141
26.8,-0.093,0.627,0.058
26.81,-0.511,1.272,-0.192
26.82,-0.144,0.937,-0.006
26.83,-0.193,1.162,0.095
26.84,-0.192,0.739,0.179
26.85,-0.341,1.023,-0.138
26.86,-0.235,0.979,-0.181
26.87,-0.115,1.002,0.116
26.88,-0.156,1.039,0.153
26.89,-0.268,0.7,-0.004
26.9,-0.394,1.32,-0.176
26.91,-0.115,0.801,-0.053
26.92,-0.23,1.117,0.153
26.93,-0.045,0.793,0.125
26.94,-0.412,0.96,-0.163
26.95,-0.227,1.089,-0.086
26.96,-0.041,0.947,0.112
26.97,-0.183,0.999,0.107
26.98,-0.223,0.653,0.015
26.99,-0.339,1.352,-0.207
27.0,-0.13,0.814,-0.003
27.01,-0.238,1.051,0.169
27.02,-0.092,0.842,0.115
27.03,-0.394,0.906,-0.181
27.04,-0.303,1.172,-0.039
27.05,-0.038,0.909,0.102
27.06,-0.152,1.026,0.103
27.07,-0.206,0.695,-0.032
27.08,-0.344,1.252,-0.211
27.09,-0.064,0.928,0.018
27.1,-0.238,1.03,0.196
27.11,-0.131,0.853,0.075
27.12,-0.405,0.896,-0.187
27.13,-0.181,1.242,-0.027
27.14,-0.107,0.762,0.131
27.15,-0.203,1.042,0.127
27.16,-0.21,0.785,-0.091
27.17,-0.368,1.12,-0.211
27.18,-0.125,1.006,0.057
27.19,-0.085,0.973,0.089
27.2,-0.202,0.871,0.001
27.21,-0.337,0.86,-0.179
27.22,-0.142,1.295,-0.084
27.23,-0.127,0.701,0.049
27.24,-0.128,0.99,0.124
27.25,-0.297,0.882,-0.137
27.26,-0.322,1.043,-0.161
27.27,-0.168,1.073,0.098
27.28,-0.078,0.851,0.158
27.29,-0.297,1.01,-0.011
27.3,-0.279,0.881,-0.166
27.31,-0.204,1.292,-0.026
27.32,-0.155,0.701,0.137
27.33,-0.105,1.011,0.133
27.34,-0.314,0.888,-0.167
27.35,-0.286,1.013,-0.104
27.36,-0.051,1.146,0.062
27.37,-0.089,0.687,0.117
27.38,-0.289,1.069,0.011
27.39,-0.32,0.886,-0.203
27.4,-0.121,1.165,-0.032
27.41,-0.135,0.791,0.127
27.42,-0.117,0.924,0.104
27.43,-0.407,0.972,-0.156
27.44,-0.182,0.979,-0.065
27.45,-0.096,1.201,0.076
27.46,-0.207,0.619,0.157
27.47,-0.211,1.143,-0.005
27.48,-0.401,0.909,-0.227
27.49,-0.152,1.113,0.026
27.5,-0.102,0.878,0.143
27.51,-0.154,0.823,0.076
27.52,-0.371,1.06,-0.167
27.53,-0.116,0.961,-0.07
27.54,-0.198,1.161,0.108
27.55,-0.097,0.632,0.199
27.56,-0.338,1.146,-0.059
27.57,-0.33,0.852,-0.206
27.58,-0.09,1.072,0.005
27.59,-0.081,0.958,0.138
27.6,-0.174,0.789,0.081
27.61,-0.388,1.166,-0.2
27.62,-0.125,0.904,-0.069
27.63,-0.125,1.156,0.043
27.64,-0.117,0.737,0.201
27.65,-0.357,1.175,-0.137
27.66,-0.27,0.772,-0.137
27.67,-0.118,1.267,0.097
27.68,-0.04,0.776,0.1
27.69,-0.25,0.858,0.062
27.7,-0.378,1.153,-0.182
27.71,-0.056,0.938,-0.064
27.72,-0.201,1.087,0.115
27.73,-0.131,0.684,0.196
27.74,-0.401,1.175,-0.158
27.75,-0.309,0.822,-0.14
27.76,-0.022,1.228,0.073
27.77,-0.097,0.785,0.111
27.78,-0.303,0.788,0.033
27.79,-0.313,1.234,-0.215
27.8,-0.101,0.836,-0.025
27.81,-0.206,1.134,0.165
27.82,-0.064,0.708,0.105
27.83,-0.49,1.124,-0.182
27.84,-0.204,0.896,-0.088
27.85,-0.045,1.166,0.082
27.86,-0.139,0.832,0.133
27.87,-0.252,0.779,0.035
27.88,-0.358,1.249,-0.218
27.89,-0.107,0.799,0.044
27.9,-0.189,1.205,0.124
27.91,-0.047,0.688,0.047
27.92,-0.453,1.116,-0.182
27.93,-0.251,0.98,-0.068
27.94,-0.01,1.039,0.079
27.95,-0.153,0.908,0.145
27.96,-0.28,0.732,-0.033
27.97,-0.277,1.306,-0.227
27.98,-0.09,0.845,0.002
27.99,-0.173,1.148,0.207
28.0,-0.157,0.691,0.053
28.01,-0.466,1.089,-0.234
28.02,-0.067,1.098,-0.036
28.03,-0.156,0.937,0.109
28.04,-0.14,0.928,0.149
28.05,-0.25,0.792,-0.08
28.06,-0.362,1.254,-0.165
28.07,-0.065,0.871,0.067
28.08,-0.097,1.103,0.127
28.09,-0.238,0.73,0.018
28.1,-0.434,1.056,-0.138
28.11,-0.064,1.188,-0.08
28.12,-0.177,0.784,0.122
28.13,-0.136,1.023,0.184
28.14,-0.313,0.768,-0.164
28.15,-0.367,1.19,-0.139
28.16,0.077,0.932,0.078
28.17,-0.144,0.961,0.087
28.18,-0.325,0.844,0.079
28.19,-0.298,1.077,-0.195
28.2,-0.185,1.128,-0.056
28.21,-0.174,0.725,0.203
28.22,-0.115,1.054,0.043
28.23,-0.331,0.747,-0.218
28.24,-0.213,1.24,-0.068
28.25,-0.046,0.96,0.084
28.26,-0.242,0.795,0.176
28.27,-0.27,0.954,0.008
28.28,-0.312,0.994,-0.178
28.29,-0.163,1.215,0.037
28.3,-0.139,0.733,0.15
28.31,-0.139,1.041,0.042
28.32,-0.373,0.828,-0.215
28.33,-0.222,1.177,-0.025
28.34,-0.06,0.953,0.034
28.35,-0.204,0.783,0.147
28.36,-0.299,1.071,-0.052
28.37,-0.291,0.865,-0.205
28.38,-0.169,1.184,0.072
28.39,-0.017,0.767,0.152
28.4,-0.243,0.985,0.038
28.41,-0.337,0.902,-0.193
28.42,-0.071,1.137,-0.086
28.43,-0.201,0.905,0.075
28.44,-0.092,0.734,0.185
28.45,-0.356,1.194,-0.121
28.46,-0.283,0.895,-0.08
28.47,-0.096,1.258,0.147
28.48,-0.114,0.633,0.134
28.49,-0.307,1.073,-0.021
28.5,-0.271,0.936,-0.183
28.51,-0.166,1.109,-0.043
28.52,-0.203,0.801,0.147
28.53,-0.053,0.871,0.11
28.54,-0.46,1.086,-0.176
28.55,-0.244,0.814,-0.071
28.56,-0.034,1.312,0.049
28.57,-0.113,0.612,0.123
28.58,-0.344,1.075,0.024
28.59,-0.274,0.941,-0.254
28.6,-0.082,1.055,0.0
28.61,-0.125,0.987,0.176
28.62,-0.165,0.752,0.07
28.63,-0.453,1.167,-0.173
28.64,-0.021,0.914,-0.098
28.65,-0.164,1.18,0.033
28.66,-0.11,0.624,0.194
28.67,-0.279,1.139,-0.11
28.68,-0.372,0.888,-0.189
28.69,-0.079,1.044,0.098
28.7,-0.047,1.052,0.108
28.71,-0.272,0.656,0.035
28.72,-0.417,1.257,-0.147
28.73,-0.116,0.876,-0.087
28.74,-0.215,1.14,0.146
28.75,-0.122,0.731,0.196
28.76,-0.356,1.021,-0.149
28.77,-0.264,1.003,-0.155
28.78,-0.068,1.038,0.049
28.79,-0.136,0.979,0.133
28.8,-0.165,0.686,0.028
28.81,-0.467,1.328,-0.188
28.82,-0.111,0.836,-0.048
28.83,-0.169,1.096,0.136
28.84,-0.134,0.773,0.182
28.85,-0.453,0.938,-0.201
28.86,-0.191,1.061,-0.118
28.87,-0.008,1.037,0.117
28.88,-0.171,0.96,0.144
28.89,-0.232,0.698,0.01
28.9,-0.376,1.33,-0.205
28.91,-0.134,0.798,0.014
28.92,-0.22,1.098,0.194
28.93,-0.12,0.817,0.047
28.94,-0.418,0.926,-0.171
28.95,-0.154,1.245,-0.032
28.96,-0.073,0.87,0.057
28.97,-0.162,0.958,0.118
28.98,-0.214,0.751,-0.028
28.99,-0.347,1.254,-0.224
29.0,-0.091,0.891,0.009
29.01,-0.058,1.009,0.166
29.02,-0.213,0.844,0.027
29.03,-0.443,0.895,-0.18
29.04,-0.077,1.264,-0.078
29.05,-0.136,0.739,0.094
29.06,-0.195,1.03,0.168
29.07,-0.225,0.77,-0.151
29.08,-0.351,1.103,-0.129
29.09,-0.065,1.046,0.105
29.1,-0.128,0.884,0.124
29.11,-0.251,0.927,0.016
29.12,-0.31,0.982,-0.139
29.13,-0.22,1.224,-0.027
29.14,-0.245,0.689,0.215
29.15,-0.134,1.03,0.135
29.16,-0.351,0.791,-0.213
29.17,-0.273,1.123,-0.04
29.18,-0.011,1.054,0.053
29.19,-0.156,0.704,0.11
29.2,-0.222,1.102,0.038
29.21,-0.44,0.895,-0.191
29.22,-0.272,1.153,0.053
29.23,-0.088,0.839,0.184
29.24,-0.199,0.948,0.076
29.25,-0.416,0.883,-0.165
29.26,-0.002,1.128,-0.105
29.27,-0.15,1.026,0.085
29.28,-0.137,0.818,0.202
29.29,-0.292,1.049,-0.117
29.3,-0.335,0.845,-0.14
29.31,-0.186,1.253,0.098
29.32,-0.087,0.71,0.151
29.33,-0.303,1.036,0.023
29.34,-0.338,0.913,-0.159
29.35,-0.185,1.102,-0.09
29.36,-0.066,0.887,0.085
29.37,-0.095,0.834,0.127
29.38,-0.337,1.121,-0.159
29.39,-0.258,0.819,-0.152
29.4,-0.037,1.303,0.031
29.41,-0.079,0.67,0.123
29.42,-0.263,0.999,0.031
29.43,-0.365,0.99,-0.2
29.44,-0.138,0.993,-0.035
29.45,-0.179,0.975,0.197
29.46,-0.096,0.756,0.108
29.47,-0.424,1.13,-0.17
29.48,-0.218,0.872,-0.077
29.49,-0.083,1.291,0.071
29.5,-0.113,0.619,0.141
29.51,-0.283,1.032,0.022
29.52,-0.355,1.067,-0.251
29.53,-0.12,0.88,0.056
29.54,-0.169,1.147,0.171
29.55,-0.085,0.677,0.058
29.56,-0.467,1.132,-0.154
29.57,-0.144,0.891,-0.029
29.58,-0.128,1.216,0.059
29.59,-0.175,0.681,0.155
29.6,-0.32,0.995,0.019
29.61,-0.321,1.093,-0.232
29.62,-0.126,0.872,0.067
29.63,-0.086,1.199,0.138
29.64,-0.155,0.592,-0.014
29.65,-0.479,1.171,-0.111
29.66,-0.087,0.995,-0.064
29.67,-0.143,1.022,0.04
29.68,-0.104,0.839,0.214
29.69,-0.315,0.938,-0.17
29.7,-0.351,1.075,-0.181
29.71,-0.018,0.959,0.12
29.72,-0.167,1.103,0.126
29.73,-0.227,0.671,0.024
29.74,-0.393,1.316,-0.214
29.75,-0.146,0.862,-0.052
29.76,-0.227,0.978,0.206
29.77,0.005,0.923,0.097
29.78,-0.456,0.828,-0.204
29.79,-0.214,1.146,-0.04
29.8,0.003,0.966,0.105
29.81,-0.237,0.984,0.132
29.82,-0.191,0.739,0.034
29.83,-0.385,1.291,-0.266
29.84,-0.116,0.862,-0.045
29.85,-0.063,1.036,0.192
29.86,-0.191,0.933,0.033
29.87,-0.432,0.773,-0.136
29.88,-0.138,1.33,-0.048
29.89,-0.038,0.789,0.041
29.9,-0.214,0.979,0.162
29.91,-0.232,0.807,-0.033
29.92,-0.399,1.128,-0.242
29.93,-0.1,0.97,0.053
29.94,-0.086,0.974,0.183
29.95,-0.251,0.921,-0.014
29.96,-0.386,0.806,-0.131
29.97,-0.061,1.327,-0.134
29.98,-0.108,0.699,0.082
29.99,-0.141,0.983,0.165
30.0,-0.28,0.921,-0.183
30.01,-0.304,0.959,-0.168
30.02,-0.027,1.18,0.126
30.03,-0.23,0.792,0.164
30.04,-0.276,1.011,0.028
30.05,-0.3,0.926,-0.175
30.06,-0.171,1.249,-0.076
30.07,-0.145,0.713,0.172
30.08,-0.08,0.991,0.108
30.09,-0.36,0.786,-0.22
30.1,-0.221,1.145,-0.067
30.11,-0.029,1.042,0.073
30.12,-0.156,0.76,0.136
30.13,-0.384,1.032,0.012
30.14,-0.242,0.848,-0.22
30.15,-0.157,1.203,0.035
30.16,-0.065,0.782,0.197
30.17,-0.183,0.998,0.025
30.18,-0.351,0.883,-0.197
30.19,-0.1,1.14,-0.122
30.2,-0.086,0.965,0.057
30.21,-0.167,0.737,0.234
30.22,-0.339,1.114,-0.111
30.23,-0.312,0.718,-0.155
30.24,-0.112,1.291,0.144
30.25,-0.136,0.794,0.17
30.26,-0.206,0.935,0.03
30.27,-0.336,1.082,-0.156
30.28,-0.201,0.96,-0.053
30.29,-0.115,1.028,0.085
30.3,-0.076,0.739,0.128
30.31,-0.437,1.121,-0.146
30.32,-0.256,0.82,-0.134
30.33,-0.071,1.286,0.042
30.34,-0.098,0.661,0.128
30.35,-0.24,0.927,0.057
30.36,-0.331,1.174,-0.262
30.37,-0.073,0.827,-0.079
30.38,-0.173,1.111,0.19
30.39,-0.084,0.713,0.103
30.4,-0.458,1.141,-0.16
30.41,-0.225,0.881,-0.083
30.42,-0.084,1.246,0.05
30.43,-0.137,0.719,0.107
30.44,-0.243,0.893,0.039
30.45,-0.369,1.218,-0.27
30.46,-0.06,0.8,-0.008
30.47,-0.168,1.185,0.169
30.48,-0.016,0.631,0.084
30.49,-0.519,1.218,-0.158
30.5,-0.169,0.954,-0.027
30.51,-0.139,1.08,0.029
30.52,-0.139,0.814,0.175
30.53,-0.291,0.874,-0.043
30.54,-0.419,1.163,-0.176
30.55,-0.1,0.804,0.044
30.56,-0.081,1.215,0.149
30.57,-0.138,0.596,0.053
30.58,-0.429,1.181,-0.151
30.59,-0.086,1.028,-0.07
30.6,-0.132,0.966,0.096
30.61,-0.184,0.917,0.212
30.62,-0.29,0.827,-0.115
30.63,-0.336,1.208,-0.148
30.64,-0.132,0.865,0.176
30.65,-0.126,1.151,0.131
30.66,-0.15,0.656,0.01
30.67,-0.373,1.178,-0.19
30.68,-0.18,1.03,-0.08
30.69,-0.124,0.838,0.089
30.7,-0.09,1.023,0.113
30.71,-0.349,0.75,-0.147
30.72,-0.308,1.199,-0.135
30.73,0.066,0.956,0.035
30.74,-0.197,0.986,0.093
30.75,-0.195,0.76,0.074
30.76,-0.272,1.193,-0.254
30.77,-0.242,1.011,-0.009
30.78,-0.093,0.815,0.173
30.79,-0.143,1.09,0.107
30.8,-0.403,0.718,-0.181
30.81,-0.245,1.231,-0.066
30.82,-0.088,0.935,0.07
30.83,-0.17,0.88,0.129
30.84,-0.161,0.842,0.09
30.85,-0.364,1.132,-0.228
30.86,-0.158,1.079,0.005
30.87,-0.149,0.807,0.158
30.88,-0.07,1.039,0.082
30.89,-0.416,0.798,-0.204
30.9,-0.213,1.219,-0.06
30.91,-0.092,0.795,0.064
30.92,-0.213,0.945,0.185
30.93,-0.162,0.827,-0.057
30.94,-0.339,1.103,-0.234
30.95,-0.098,1.031,0.063
30.96,-0.115,0.883,0.126
30.97,-0.195,0.945,0.068
30.98,-0.405,0.877,-0.146
30.99,-0.122,1.285,-0.108
31.0,-0.176,0.76,0.114
31.01,-0.188,0.96,0.207
31.02,-0.242,0.933,-0.112
31.03,-0.347,0.984,-0.182
31.04,-0.11,1.139,0.086
31.05,-0.09,0.799,0.122
31.06,-0.224,0.987,0.054
31.07,-0.365,0.917,-0.196
31.08,-0.156,1.248,-0.084
31.09,-0.166,0.695,0.073
31.1,-0.137,0.966,0.203
31.11,-0.367,0.957,-0.145
31.12,-0.271,0.805,-0.164
31.13,-0.059,1.297,0.097
31.14,-0.121,0.741,0.119
31.15,-0.267,1.007,0.039
31.16,-0.309,0.958,-0.178
31.17,-0.191,1.179,-0.077
31.18,-0.181,0.726,0.123
31.19,-0.105,0.912,0.16
31.2,-0.408,1.082,-0.224
31.21,-0.317,0.83,-0.029
31.22,-0.059,1.321,0.067
31.23,-0.113,0.653,0.148
31.24,-0.292,1.042,0.002
31.25,-0.266,0.978,-0.203
31.26,-0.115,1.06,-0.071
31.27,-0.199,0.917,0.185
31.28,-0.09,0.774,0.125
31.29,-0.491,1.119,-0.149
31.3,-0.183,0.853,-0.06
31.31,-0.115,1.292,0.061
31.32,-0.159,0.595,0.131
31.33,-0.263,1.074,0.009
31.34,-0.343,1.0,-0.228
31.35,-0.112,0.96,-0.006
31.36,-0.135,1.048,0.163
31.37,-0.148,0.694,0.069
31.38,-0.403,1.198,-0.182
31.39,-0.14,0.946,0.004
31.4,-0.153,1.183,0.062
31.41,-0.092,0.622,0.138
31.42,-0.305,1.083,-0.04
31.43,-0.314,0.975,-0.252
31.44,-0.091,0.917,0.047
31.45,-0.09,1.149,0.166
31.46,-0.189,0.652,0.04
31.47,-0.47,1.172,-0.157
31.48,-0.101,0.958,-0.007
31.49,-0.176,1.161,0.112
31.5,-0.216,0.729,0.194
31.51,-0.254,0.989,-0.099
31.52,-0.275,1.089,-0.164
31.53,-0.112,0.963,0.085
31.54,-0.111,1.081,0.086
31.55,-0.198,0.638,0.012
31.56,-0.506,1.317,-0.149
31.57,-0.017,0.886,-0.063
31.58,-0.231,1.082,0.153
31.59,-0.12,0.815,0.163
31.6,-0.316,0.941,-0.171
31.61,-0.273,1.098,-0.179
31.62,-0.029,0.918,0.108
31.63,-0.112,1.061,0.097
31.64,-0.236,0.629,0.005
31.65,-0.448,1.304,-0.196
31.66,-0.018,0.865,-0.04
31.67,-0.219,1.047,0.175
31.68,-0.07,0.844,0.097
31.69,-0.374,0.894,-0.22
31.7,-0.254,1.238,-0.085
31.71,-0.02,0.854,0.031
31.72,-0.128,0.975,0.116
31.73,-0.218,0.712,-0.074
31.74,-0.339,1.258,-0.168
31.75,-0.141,0.869,0.109
31.76,-0.124,1.125,0.146
31.77,-0.111,0.755,0.039
31.78,-0.5,1.051,-0.149
31.79,-0.123,1.174,-0.092
31.8,-0.133,0.775,0.055
31.81,-0.159,1.023,0.165
31.82,-0.262,0.748,-0.131
31.83,-0.295,1.183,-0.187
31.84,-0.038,0.948,0.142
31.85,-0.183,0.978,0.151
31.86,-0.257,0.844,-0.012
31.87,-0.333,1.056,-0.17
31.88,-0.187,1.138,-0.057
31.89,-0.14,0.727,0.174
31.9,-0.114,1.104,0.127
31.91,-0.364,0.747,-0.171
31.92,-0.316,1.126,-0.065
31.93,0.047,1.048,0.085
31.94,-0.146,0.838,0.111
31.95,-0.338,0.949,0.05
31.96,-0.245,0.957,-0.202
31.97,-0.182,1.158,-0.047
31.98,-0.132,0.72,0.226
31.99,-0.102,1.061,0.108
32.0,-0.404,0.797,-0.232
32.01,-0.141,1.148,-0.066
32.02,-0.09,1.046,0.098
32.03,-0.191,0.732,0.131
32.04,-0.206,1.097,-0.025
32.05,-0.314,0.907,-0.194
32.06,-0.327,1.143,0.092
32.07,-0.026,0.809,0.156
32.08,-0.212,1.01,0.048
32.09,-0.391,0.889,-0.192
32.1,-0.049,1.115,-0.122
32.11,-0.116,0.963,0.065
32.12,-0.168,0.693,0.257
32.13,-0.284,1.159,-0.144
32.14,-0.282,0.757,-0.168
32.15,-0.132,1.301,0.121
32.16,-0.165,0.78,0.091
32.17,-0.139,0.919,0.01
32.18,-0.416,1.025,-0.166
32.19,-0.052,0.998,-0.111
32.2,-0.167,0.986,0.105
32.21,-0.097,0.709,0.198
32.22,-0.393,1.154,-0.168
32.23,-0.263,0.74,-0.134
32.24,-0.113,1.349,0.105
32.25,-0.104,0.78,0.085
32.26,-0.237,0.896,0.027
32.27,-0.391,1.145,-0.167
32.28,-0.102,0.921,-0.029
32.29,-0.289,1.045,0.14
32.3,-0.009,0.765,0.139
32.31,-0.453,1.172,-0.207
32.32,-0.27,0.781,-0.044
32.33,-0.053,1.288,0.054
32.34,-0.095,0.739,0.06
32.35,-0.333,0.885,0.016
32.36,-0.312,1.161,-0.211
32.37,-0.124,0.83,-0.03
32.38,-0.195,1.139,0.165
32.39,0.009,0.663,0.038
32.4,-0.45,1.151,-0.207
32.41,-0.182,0.883,-0.039
32.42,-0.041,1.138,0.091
32.43,-0.164,0.817,0.141
32.44,-0.308,0.809,0.003
32.45,-0.357,1.202,-0.186
32.46,-0.136,0.873,0.016
32.47,-0.138,1.18,0.144
32.48,-0.095,0.64,0.072
32.49,-0.479,1.173,-0.17
32.5,-0.099,1.002,-0.095
32.51,-0.031,0.991,0.069
32.52,-0.212,0.88,0.171
32.53,-0.264,0.793,-0.091
32.54,-0.295,1.089,-0.182
32.55,-0.07,0.991,0.102
32.56,-0.189,1.06,0.148
32.57,-0.182,0.628,0.049
32.58,-0.392,1.343,-0.206
32.59,-0.071,0.877,-0.052
32.6,-0.178,1.017,0.168
32.61,-0.069,0.88,0.137
32.62,-0.391,0.872,-0.147
32.63,-0.278,1.158,-0.112
32.64,-0.057,0.927,0.084
32.65,-0.101,1.042,0.057
32.66,-0.243,0.686,0.022
32.67,-0.339,1.259,-0.173
32.68,-0.138,0.909,0.004
32.69,-0.193,0.981,0.157
32.7,-0.035,0.923,0.066
32.71,-0.404,0.839,-0.2
32.72,-0.27,1.259,-0.057
32.73,0.03,0.916,0.037
32.74,-0.236,0.979,0.145
32.75,-0.203,0.741,0.011
32.76,-0.369,1.245,-0.226
32.77,-0.147,0.943,0.038
32.78,-0.118,0.945,0.204
32.79,-0.113,0.983,0.037
32.8,-0.399,0.825,-0.19
32.81,-0.21,1.278,-0.02
32.82,-0.066,0.802,0.043
32.83,-0.148,1.003,0.139
32.84,-0.282,0.818,-0.041
32.85,-0.344,1.043,-0.17
32.86,-0.157,1.053,0.053
32.87,-0.045,0.893,0.129
32.88,-0.226,0.958,0.037
32.89,-0.329,0.823,-0.159
32.9,-0.129,1.333,-0.111
32.91,-0.066,0.69,0.101
32.92,-0.165,0.989,0.158
32.93,-0.304,0.926,-0.124
32.94,-0.343,0.945,-0.173
32.95,-0.122,1.173,0.134
32.96,-0.063,0.781,0.142
32.97,-0.296,1.04,-0.015
32.98,-0.299,0.903,-0.147
32.99,-0.178,1.2,-0.027
33.0,-0.216,0.747,0.184
33.01,-0.075,0.981,0.14
33.02,-0.357,0.978,-0.169
33.03,-0.365,0.903,0.002
33.04,0.008,1.267,0.021
33.05,-0.133,0.628,0.119
33.06,-0.303,1.101,0.021
33.07,-0.246,0.947,-0.275
33.08,-0.165,1.059,-0.074
33.09,-0.095,0.878,0.196
33.1,-0.182,0.867,0.099
33.11,-0.395,1.03,-0.162
33.12,-0.129,0.941,-0.019
33.13,-0.226,1.257,0.085
33.14,-0.113,0.57,0.128
33.15,-0.298,1.113,-0.01
33.16,-0.323,0.88,-0.217
33.17,-0.152,1.092,0.056
33.18,-0.146,0.97,0.148
33.19,-0.078,0.795,0.08
33.2,-0.463,1.113,-0.202
33.21,-0.145,0.853,-0.042
33.22,-0.103,1.254,0.098
33.23,-0.112,0.624,0.158
33.24,-0.369,1.092,-0.035
33.25,-0.268,0.968,-0.204
33.26,-0.107,1.02,-0.015
33.27,-0.159,0.986,0.179
33.28,-0.07,0.742,0.028
33.29,-0.472,1.194,-0.192
33.3,-0.11,0.834,-0.026
33.31,-0.125,1.252,0.078
33.32,-0.118,0.649,0.151
33.33,-0.372,1.056,-0.032
33.34,-0.245,1.056,-0.226
33.35,-0.05,0.979,0.018
33.36,-0.072,0.903,0.118
33.37,-0.228,0.789,-0.0
33.38,-0.482,1.168,-0.109
33.39,-0.097,0.908,-0.009
33.4,-0.204,1.104,0.077
33.41,-0.058,0.68,0.176
33.42,-0.443,1.179,-0.158
33.43,-0.335,0.871,-0.1
33.44,0.042,1.176,0.051
33.45,-0.078,0.93,0.08
33.46,-0.319,0.751,0.024
33.47,-0.395,1.237,-0.173
33.48,-0.081,0.818,-0.046
33.49,-0.18,1.175,0.194
33.5,-0.04,0.658,0.072
33.51,-0.494,1.121,-0.213
33.52,-0.087,1.033,-0.094
33.53,-0.083,0.994,0.098
33.54,-0.157,0.936,0.146
33.55,-0.24,0.771,-0.057
33.56,-0.354,1.242,-0.184
33.57,-0.107,0.857,0.105
33.58,-0.148,1.168,0.113
33.59,-0.115,0.667,0.049
33.6,-0.425,1.132,-0.176
33.61,-0.088,1.088,-0.126
33.62,-0.115,0.862,0.11
33.63,-0.185,1.026,0.193
33.64,-0.282,0.734,-0.134
33.65,-0.344,1.172,-0.141
33.66,-0.099,0.914,0.118
33.67,-0.126,1.067,0.126
33.68,-0.192,0.753,0.04
33.69,-0.448,1.091,-0.133
33.7,-0.12,1.151,-0.066
33.71,-0.102,0.755,0.091
33.72,-0.112,1.07,0.171
33.73,-0.386,0.771,-0.154
33.74,-0.294,1.199,-0.095
33.75,-0.009,1.007,0.111
33.76,-0.142,0.889,0.112
33.77,-0.264,0.882,0.015
33.78,-0.286,1.094,-0.182
33.79,-0.168,1.113,-0.025
33.8,-0.124,0.73,0.228
33.81,-0.127,1.103,0.038
33.82,-0.374,0.753,-0.214
33.83,-0.202,1.222,-0.003
33.84,-0.114,0.929,0.088
33.85,-0.19,0.782,0.125
33.86,-0.236,1.016,-0.052
33.87,-0.336,0.931,-0.167
33.88,-0.203,1.147,0.047
33.89,0.01,0.778,0.139
33.9,-0.184,1.016,-0.025
33.91,-0.335,0.902,-0.169
33.92,-0.113,1.183,-0.12
33.93,-0.152,0.829,0.102
33.94,-0.125,0.827,0.2
33.95,-0.379,1.123,-0.155
33.96,-0.319,0.759,-0.158
33.97,-0.04,1.326,0.064
33.98,-0.13,0.671,0.107
33.99,-0.287,0.961,0.038
34.0,-0.284,1.068,-0.178
34.01,-0.144,1.062,-0.065
34.02,-0.222,0.871,0.194
34.03,-0.025,0.812,0.147
34.04,-0.497,1.13,-0.184
34.05,-0.192,0.777,-0.039
34.06,-0.059,1.366,0.075
34.07,-0.182,0.639,0.115
34.08,-0.311,1.012,0.056
34.09,-0.276,1.066,-0.272
34.1,-0.136,0.941,0.006
34.11,-0.179,1.085,0.209
34.12,-0.082,0.684,0.052
34.13,-0.451,1.164,-0.192
34.14,-0.07,0.924,-0.031
34.15,-0.096,1.191,0.079
34.16,-0.206,0.698,0.194
34.17,-0.35,1.153,-0.143
34.18,-0.298,0.82,-0.191
34.19,0.005,1.181,0.114
34.2,-0.137,0.929,0.11
34.21,-0.305,0.734,0.022
34.22,-0.347,1.282,-0.141
34.23,-0.118,0.884,-0.024
34.24,-0.21,1.14,0.125
34.25,-0.03,0.735,0.142
34.26,-0.453,1.09,-0.199
34.27,-0.282,0.966,-0.045
34.28,-0.292,0.931,-0.197
34.29,-0.203,1.231,0.068
34.3,-0.055,0.787,0.177
34.31,-0.189,0.949,0.009
34.32,-0.421,0.998,-0.171
34.33,-0.063,1.019,-0.102
34.34,-0.214,1.03,0.132
34.35,-0.165,0.698,0.207
34.36,-0.407,1.142,-0.152
34.37,-0.278,0.812,-0.129
34.38,-0.118,1.289,0.07
34.39,-0.091,0.733,0.125
34.4,-0.26,0.903,0.057
34.41,-0.32,1.132,-0.205
34.42,-0.08,0.929,-0.07
34.43,-0.249,1.055,0.094
34.44,0.03,0.703,0.095
34.45,-0.456,1.143,-0.19
34.46,-0.299,0.838,-0.008
34.47,-0.034,1.261,0.085
34.48,-0.146,0.745,0.076
34.49,-0.276,0.899,0.051
34.5,-0.317,1.204,-0.259
34.51,-0.149,0.796,-0.02
34.52,-0.117,1.192,0.227
34.53,-0.095,0.68,0.036
34.54,-0.514,1.133,-0.187
34.55,0.017,0.983,-0.039
34.56,-0.165,1.159,0.054
34.57,-0.219,0.779,0.209
34.58,-0.164,0.867,-0.074
34.59,-0.413,1.154,-0.217
34.6,-0.126,0.821,0.165
34.61,-0.063,1.233,0.091
34.62,-0.131,0.574,0.011
34.63,-0.5,1.218,-0.137
34.64,0.009,0.996,-0.124
34.65,-0.23,0.924,0.089
34.66,-0.17,0.968,0.227
34.67,-0.318,0.793,-0.146
34.68,-0.325,1.158,-0.148
34.69,-0.06,0.948,0.128
34.7,-0.191,1.057,0.149
34.71,-0.205,0.656,0.036
34.72,-0.332,1.259,-0.223
34.73,-0.079,0.977,-0.089
34.74,-0.255,0.884,0.166
34.75,-0.121,0.998,0.14
34.76,-0.366,0.763,-0.176
34.77,-0.322,1.297,-0.053
34.78,-0.071,0.883,0.068
34.79,-0.132,0.917,0.075
34.8,-0.182,0.812,0.019
34.81,-0.336,1.191,-0.245
34.82,-0.125,0.973,-0.03
34.83,-0.173,0.861,0.226
34.84,-0.137,1.037,0.073
34.85,-0.356,0.766,-0.19
34.86,-0.266,1.277,-0.051
34.87,-0.047,0.822,0.091
34.88,-0.23,0.932,0.13
34.89,-0.239,0.866,-0.037
34.9,-0.303,1.036,-0.235
34.91,0.011,1.126,0.002
34.92,-0.066,0.964,0.153
34.93,-0.196,0.893,0.01
34.94,-0.422,0.885,-0.136
34.95,-0.11,1.325,-0.068
34.96,-0.111,0.677,0.086
34.97,-0.186,1.06,0.177
34.98,-0.291,0.897,-0.134
34.99,-0.357,1.04,-0.159
35.0,0.025,1.083,0.069
35.01,-0.086,0.781,0.111
35.02,-0.314,0.998,0.036
35.03,-0.334,0.927,-0.204
35.04,-0.111,1.16,-0.067
35.05,-0.196,0.736,0.24
35.06,-0.13,0.993,0.097
35.07,-0.405,0.885,-0.189
35.08,-0.191,1.015,-0.041
35.09,-0.023,1.17,0.036
35.1,-0.179,0.634,0.154
35.11,-0.233,1.086,0.024
35.12,-0.254,0.929,-0.205
35.13,-0.205,1.198,-0.011
35.14,-0.105,0.792,0.187
35.15,-0.139,0.891,0.094
35.16,-0.487,0.987,-0.205
35.17,-0.009,0.987,-0.065
35.18,-0.135,1.157,0.023
35.19,-0.151,0.599,0.137
35.2,-0.231,1.197,-0.05
35.21,-0.315,0.821,-0.206
35.22,-0.209,1.115,0.084
35.23,-0.059,0.911,0.118
35.24,-0.187,0.806,0.017
35.25,-0.43,1.048,-0.176
35.26,-0.039,0.975,-0.077
35.27,-0.173,1.126,0.131
35.28,-0.186,0.625,0.201
35.29,-0.304,1.195,-0.126
35.3,-0.266,0.826,-0.195
35.31,-0.182,1.186,0.157
35.32,-0.073,0.946,0.132
35.33,-0.233,0.75,0.018
35.34,-0.402,1.237,-0.145
35.35,-0.139,0.87,-0.023
35.36,-0.198,1.142,0.1
35.37,-0.03,0.712,0.17
35.38,-0.46,1.104,-0.165
35.39,-0.238,0.854,-0.127
35.4,-0.05,1.196,0.059
35.41,-0.109,0.882,0.105
35.42,-0.24,0.701,0.012
35.43,-0.354,1.353,-0.175
35.44,-0.068,0.817,-0.03
35.45,-0.213,1.125,0.168
35.46,-0.048,0.748,0.138
35.47,-0.473,1.094,-0.208
35.48,-0.295,0.938,-0.05
35.49,0.004,1.053,0.046
35.5,-0.156,0.939,0.083
35.51,-0.266,0.724,0.026
35.52,-0.345,1.312,-0.223
35.53,-0.043,0.817,-0.005
35.54,-0.232,1.194,0.177
35.55,-0.049,0.704,0.064
35.56,-0.493,1.045,-0.176
35.57,-0.157,1.118,-0.059
35.58,-0.062,0.914,0.094
35.59,-0.215,0.943,0.155
35.6,-0.212,0.742,-0.089
35.61,-0.338,1.274,-0.183
35.62,-0.079,0.841,0.058
35.63,-0.109,1.119,0.147
35.64,-0.11,0.737,0.01
35.65,-0.494,1.109,-0.152
35.66,-0.049,1.142,-0.109
35.67,-0.135,0.781,0.022
35.68,-0.112,1.014,0.222
35.69,-0.304,0.794,-0.136
35.7,-0.338,1.162,-0.114
35.71,-0.127,0.956,0.162
35.72,-0.094,0.956,0.115
35.73,-0.237,0.714,0.086
35.74,-0.359,1.219,-0.228
35.75,-0.103,0.988,-0.051
35.76,-0.17,0.839,0.151
35.77,-0.087,1.029,0.102
35.78,-0.365,0.78,-0.207
35.79,-0.204,1.248,-0.102
35.8,0.007,0.908,0.058
35.81,-0.183,0.932,0.15
35.82,-0.273,0.793,0.027
35.83,-0.327,1.116,-0.244
35.84,-0.045,1.05,-0.043
35.85,-0.109,0.835,0.142
35.86,-0.094,1.006,0.061
35.87,-0.44,0.79,-0.196
35.88,-0.087,1.279,-0.044
35.89,-0.159,0.845,0.106
35.9,-0.241,0.903,0.203
35.91,-0.244,0.958,-0.063
35.92,-0.353,0.961,-0.169
35.93,-0.149,1.157,0.066
35.94,-0.058,0.79,0.134
35.95,-0.163,1.016,-0.03
35.96,-0.366,0.848,-0.174
35.97,-0.112,1.219,-0.096
35.98,-0.081,0.786,0.122
35.99,-0.167,0.914,0.182
36.0,-0.364,1.03,-0.134
36.01,-0.263,0.866,-0.157
36.02,-0.128,1.259,0.108
36.03,-0.079,0.701,0.149
36.04,-0.232,1.046,0.026
36.05,-0.394,0.936,-0.143
36.06,-0.167,1.113,-0.025
36.07,-0.122,0.865,0.092
36.08,-0.096,0.844,0.137
36.09,-0.369,1.08,-0.167
36.1,-0.237,0.872,-0.115
36.11,-0.061,1.276,0.067
36.12,-0.072,0.614,0.137
36.13,-0.332,1.062,0.027
36.14,-0.305,0.95,-0.235
36.15,-0.104,1.025,-0.023
36.16,-0.149,0.997,0.16
36.17,-0.056,0.73,0.061
36.18,-0.478,1.167,-0.176
36.19,-0.078,0.863,-0.073
36.2,-0.134,1.254,0.073
36.21,-0.146,0.617,0.173
36.22,-0.301,1.063,-0.018
36.23,-0.326,0.961,-0.213
36.24,-0.067,0.987,0.016
36.25,-0.116,1.12,0.109
36.26,-0.152,0.683,0.051
36.27,-0.45,1.201,-0.184
36.28,-0.073,0.899,-0.096
36.29,-0.136,1.15,0.066
36.3,-0.149,0.715,0.221
36.31,-0.312,0.988,-0.107
36.32,-0.294,0.97,-0.16
36.33,-0.074,1.013,0.106
36.34,-0.17,1.147,0.077
36.35,-0.165,0.611,0.041
36.36,-0.453,1.311,-0.155
36.37,-0.083,0.898,-0.072
36.38,-0.156,1.062,0.092
36.39,-0.096,0.816,0.226
36.4,-0.419,0.959,-0.163
36.41,-0.255,0.985,-0.193
36.42,-0.022,1.004,0.101
36.43,-0.124,1.072,0.118
36.44,-0.241,0.647,0.016
36.45,-0.378,1.316,-0.13
36.46,-0.149,0.899,-0.0
36.47,-0.218,1.002,0.177
36.48,-0.072,0.897,0.131
36.49,-0.396,0.915,-0.185
36.5,-0.25,1.146,-0.087
36.51,-0.023,0.964,0.05
36.52,-0.092,0.973,0.079
36.53,-0.294,0.72,0.04
36.54,-0.333,1.303,-0.192
36.55,-0.196,0.836,0.025
36.56,-0.16,1.115,0.223
36.57,-0.065,0.756,0.028
36.58,-0.508,1.021,-0.177
36.59,-0.08,1.146,-0.062
36.6,-0.06,0.855,0.048
36.61,-0.262,0.991,0.187
36.62,-0.191,0.749,-0.098
36.63,-0.353,1.233,-0.15
36.64,-0.204,0.899,0.143
36.65,-0.054,1.022,0.128
36.66,-0.213,0.789,-0.008
36.67,-0.431,1.055,-0.127
36.68,-0.107,1.163,-0.071
36.69,-0.18,0.79,0.106
36.7,-0.155,1.058,0.174
36.71,-0.269,0.75,-0.182
36.72,-0.289,1.165,-0.1
36.73,-0.05,1.025,0.103
36.74,-0.081,0.891,0.127
36.75,-0.327,0.935,0.033
36.76,-0.335,0.976,-0.192
36.77,-0.092,1.134,-0.073
36.78,-0.22,0.778,0.191
36.79,-0.068,1.035,0.07
36.8,-0.319,0.8,-0.222
36.81,-0.231,1.199,-0.049
36.82,-0.079,0.97,0.052
36.83,-0.077,0.737,0.144
36.84,-0.356,1.045,0.016
36.85,-0.277,0.927,-0.276
36.86,-0.144,1.137,-0.014
36.87,-0.124,0.809,0.186
36.88,-0.172,1.005,0.103
36.89,-0.389,0.853,-0.167
36.9,-0.096,1.134,-0.114
36.91,-0.071,0.962,0.059
36.92,-0.137,0.745,0.16
36.93,-0.307,1.081,-0.079
36.94,-0.26,0.86,-0.159
36.95,-0.146,1.289,0.052
36.96,-0.14,0.734,0.144
36.97,-0.166,0.977,0.015
36.98,-0.411,0.996,-0.203
36.99,-0.102,1.033,-0.062
37.0,-0.08,0.99,0.075
37.01,-0.178,0.702,0.176
37.02,-0.358,1.151,-0.136
37.03,-0.18,0.82,-0.183
37.04,-0.161,1.259,0.122
37.05,-0.091,0.707,0.132
37.06,-0.243,0.933,-0.05
37.07,-0.386,1.07,-0.147
37.08,-0.113,0.918,0.029
37.09,-0.211,1.054,0.175
37.1,-0.087,0.739,0.11
37.11,-0.363,1.199,-0.218
37.12,-0.253,0.834,-0.033
37.13,-0.15,1.236,0.101
37.14,-0.069,0.734,0.094
37.15,-0.294,0.954,-0.039
37.16,-0.382,1.135,-0.176
37.17,-0.129,0.887,0.028
37.18,-0.216,1.131,0.173
37.19,0.01,0.644,0.02
37.2,-0.515,1.284,-0.174
37.21,-0.118,0.927,-0.091
37.22,-0.06,1.096,0.074
37.23,-0.187,0.804,0.166
37.24,-0.342,0.848,-0.116
37.25,-0.195,1.146,-0.174
37.26,-0.113,0.951,0.089
37.27,-0.187,1.074,0.161
37.28,-0.12,0.673,-0.005
37.29,-0.473,1.28,-0.17
37.3,-0.082,0.911,-0.027
37.31,-0.146,1.023,0.138
37.32,-0.229,0.909,0.139
37.33,-0.259,0.824,-0.178
37.34,-0.334,1.237,-0.07
37.35,-0.071,0.883,0.112
37.36,-0.126,0.997,0.136
37.37,-0.331,0.706,-0.022
37.38,-0.347,1.285,-0.185
37.39,-0.062,0.843,-0.002
37.4,-0.21,1.053,0.162
37.41,-0.03,0.81,0.049
37.42,-0.456,0.996,-0.213
37.43,-0.126,1.167,-0.024
37.44,-0.102,0.805,0.114
37.45,-0.24,1.027,0.186
37.46,-0.248,0.773,-0.126
37.47,-0.254,1.233,-0.208
37.48,-0.115,0.937,0.132
37.49,-0.127,0.905,0.149
37.5,-0.236,0.855,-0.017
37.51,-0.318,1.013,-0.195
37.52,-0.032,1.171,-0.065
37.53,-0.257,0.719,0.22
37.54,-0.098,1.051,0.152
37.55,-0.381,0.832,-0.242
37.56,-0.228,1.13,-0.069
37.57,-0.065,0.991,0.096
37.58,-0.177,0.763,0.111
37.59,-0.295,1.001,-0.017
37.6,-0.23,0.924,-0.197
37.61,-0.186,1.23,0.024
37.62,-0.073,0.721,0.156
37.63,-0.136,1.037,0.004
37.64,-0.411,0.874,-0.184
37.65,-0.109,1.124,-0.075
37.66,-0.093,0.933,0.105
37.67,-0.209,0.769,0.208
37.68,-0.259,1.126,-0.141
37.69,-0.254,0.807,-0.21
37.7,-0.153,1.288,0.142
37.71,-0.036,0.73,0.148
37.72,-0.308,0.958,-0.005
37.73,-0.375,1.026,-0.141
37.74,-0.134,1.033,-0.048
37.75,-0.253,0.941,0.141
37.76,-0.029,0.777,0.138
37.77,-0.413,1.154,-0.246
37.78,-0.245,0.813,0.029
37.79,-0.116,1.329,0.101
37.8,-0.126,0.657,0.111
37.81,-0.293,0.979,0.019
37.82,-0.277,1.068,-0.24
37.83,-0.212,0.973,0.055
37.84,-0.112,1.098,0.108
37.85,-0.072,0.642,0.035
37.86,-0.532,1.255,-0.13
37.87,-0.016,0.892,-0.076
37.88,-0.155,1.122,0.091
37.89,-0.129,0.769,0.237
37.9,-0.323,0.99,-0.117
37.91,-0.342,0.997,-0.158
37.92,-0.141,0.973,0.165
37.93,-0.181,1.099,0.098
37.94,-0.206,0.623,0.004
37.95,-0.411,1.336,-0.172
37.96,-0.064,0.874,-0.053
37.97,-0.212,1.066,0.151
37.98,-0.046,0.836,0.12
37.99,-0.375,0.903,-0.181
38.0,-0.248,1.109,-0.083
38.01,-0.001,0.971,0.123
38.02,-0.208,1.041,0.139
38.03,-0.229,0.652,0.011
38.04,-0.349,1.325,-0.231
38.05,-0.101,0.877,-0.014
38.06,-0.182,1.061,0.21
38.07,-0.104,0.857,0.056
38.08,-0.449,0.876,-0.203
38.09,-0.129,1.276,-0.043
38.1,-0.096,0.818,0.087
38.11,-0.248,0.991,0.176
38.12,-0.228,0.781,-0.034
38.13,-0.402,1.239,-0.188
38.14,-0.142,0.926,0.076
38.15,-0.103,0.955,0.156
38.16,-0.219,0.902,0.041
38.17,-0.374,0.914,-0.124
38.18,-0.095,1.139,-0.095
38.19,-0.097,0.722,0.122
38.2,-0.067,1.079,0.12
38.21,-0.382,0.743,-0.161
38.22,-0.271,1.235,-0.031
38.23,-0.031,0.965,0.082
38.24,-0.243,0.852,0.135
38.25,-0.246,0.955,0.004
38.26,-0.313,1.05,-0.265
38.27,-0.11,1.066,-0.013
38.28,-0.048,0.81,0.203
38.29,-0.206,1.084,0.036
38.3,-0.381,0.79,-0.193
38.31,-0.135,1.229,-0.071
38.32,-0.137,0.844,0.082
38.33,-0.136,0.837,0.166
38.34,-0.321,1.035,-0.122
38.35,-0.356,0.857,-0.198
38.36,-0.106,1.227,0.134
38.37,-0.039,0.792,0.132
38.38,-0.301,1.031,0.005
38.39,-0.348,0.892,-0.154
38.4,-0.097,1.126,-0.091
38.41,-0.185,0.867,0.154
38.42,-0.073,0.857,0.138
38.43,-0.427,1.092,-0.184
38.44,-0.295,0.846,-0.051
38.45,-0.033,1.361,0.074
38.46,-0.135,0.622,0.077
38.47,-0.233,1.051,-0.001
38.48,-0.316,1.05,-0.217
38.49,-0.139,0.973,0.016
38.5,-0.135,1.004,0.194
38.51,-0.113,0.749,0.029
38.52,-0.433,1.163,-0.21
38.53,-0.147,0.913,-0.001
38.54,-0.16,1.176,0.115
38.55,-0.175,0.68,0.156
38.56,-0.279,1.076,-0.11
38.57,-0.281,0.946,-0.201
38.58,-0.098,1.024,0.134
38.59,-0.126,1.055,0.147
38.6,-0.209,0.646,-0.02
38.61,-0.372,1.311,-0.177
38.62,-0.142,0.898,-0.042
38.63,-0.238,1.067,0.139
38.64,-0.018,0.763,0.137
38.65,-0.429,1.0,-0.188
38.66,-0.26,1.069,-0.09
38.67,0.002,1.021,0.101
38.68,-0.18,0.987,0.133
38.69,-0.213,0.657,0.059
38.7,-0.316,1.376,-0.233
38.71,-0.164,0.827,0.01
38.72,-0.132,1.074,0.178
38.73,-0.162,0.786,0.052
38.74,-0.492,0.994,-0.142
38.75,-0.11,1.23,-0.085
38.76,-0.111,0.817,0.082
38.77,-0.256,0.984,0.213
38.78,-0.15,0.747,-0.119
38.79,-0.328,1.265,-0.215
38.8,-0.143,0.898,0.142
38.81,-0.137,0.973,0.138
38.82,-0.256,0.817,-0.001
38.83,-0.366,1.01,-0.147
38.84,-0.156,1.219,-0.035
38.85,-0.209,0.762,0.164
38.86,-0.143,1.102,0.159
38.87,-0.254,0.712,-0.179
38.88,-0.321,1.171,-0.108
38.89,0.022,1.021,0.085
38.9,-0.131,0.822,0.074
38.91,-0.309,0.929,0.01
38.92,-0.281,0.997,-0.184
38.93,-0.154,1.213,-0.018
38.94,-0.19,0.686,0.19
38.95,-0.148,1.044,0.059
38.96,-0.383,0.858,-0.224
38.97,-0.133,1.139,-0.044
38.98,-0.098,1.013,0.127
38.99,-0.25,0.743,0.186
39.0,-0.278,0.793,-0.146
39.01,-0.367,1.089,-0.104
39.02,0.02,1.073,0.072
39.03,-0.12,0.756,0.104
39.04,-0.313,1.021,0.002
39.05,-0.269,0.904,-0.201
39.06,-0.138,1.224,-0.017
39.07,-0.166,0.732,0.192
39.08,-0.059,1.018,0.066
39.09,-0.372,0.88,-0.23
39.1,-0.177,1.034,-0.084
39.11,-0.023,1.086,0.052
39.12,-0.171,0.665,0.155
39.13,-0.299,1.117,-0.037
39.14,-0.294,0.796,-0.214
39.15,-0.177,1.242,0.044
39.16,-0.09,0.82,0.122
39.17,-0.111,0.917,-0.009
39.18,-0.372,1.012,-0.203
39.19,-0.091,1.036,-0.066
39.2,-0.174,1.016,0.12
39.21,-0.163,0.696,0.195
39.22,-0.402,1.152,-0.128
39.23,-0.241,0.798,-0.133
39.24,-0.132,1.27,0.086
39.25,-0.065,0.79,0.079
39.26,-0.232,0.875,0.008
39.27,-0.439,1.177,-0.138
39.28,-0.054,0.91,-0.026
39.29,-0.185,1.076,0.108
39.3,-0.087,0.685,0.142
39.31,-0.416,1.188,-0.184
39.32,-0.302,0.87,-0.047
39.33,-0.039,1.201,0.077
39.34,-0.065,0.78,0.027
39.35,-0.306,0.863,0.026
39.36,-0.316,1.221,-0.199
39.37,-0.143,0.821,0.004
39.38,-0.12,1.151,0.197
39.39,-0.079,0.69,0.048
39.4,-0.526,1.169,-0.196
39.41,-0.049,0.962,-0.069
39.42,-0.137,1.034,0.086
39.43,-0.184,0.848,0.166
39.44,-0.296,0.807,-0.103
39.45,-0.322,1.232,-0.147
39.46,-0.074,0.902,0.131
39.47,-0.182,1.062,0.141
39.48,-0.23,0.666,-0.016
39.49,-0.316,1.269,-0.213
39.5,-0.166,0.979,-0.02
39.51,-0.187,0.904,0.208
39.52,-0.097,0.991,0.107
39.53,-0.366,0.786,-0.207
39.54,-0.245,1.277,-0.032
39.55,-0.083,0.851,0.068
39.56,-0.203,0.95,0.143
39.57,-0.164,0.829,-0.066
39.58,-0.431,1.152,-0.196
39.59,-0.135,0.953,0.058
39.6,0.022,0.962,0.093
39.61,-0.203,0.985,0.027
39.62,-0.347,0.818,-0.149
39.63,-0.14,1.281,-0.119
39.64,-0.146,0.735,0.148
39.65,-0.176,0.982,0.177
39.66,-0.283,0.857,-0.159
39.67,-0.277,0.978,-0.146
39.68,-0.091,1.191,0.091
39.69,-0.087,0.729,0.119
39.7,-0.226,1.007,0.041
39.71,-0.368,0.969,-0.178
39.72,-0.111,1.197,-0.039
39.73,-0.153,0.781,0.169
39.74,-0.123,0.96,0.116
39.75,-0.394,0.938,-0.175
39.76,-0.253,0.974,-0.081
39.77,-0.034,1.233,0.067
39.78,-0.086,0.611,0.112
39.79,-0.329,1.087,0.074
39.8,-0.309,0.955,-0.227
39.81,-0.209,1.188,0.102
39.82,-0.06,0.75,0.11
39.83,-0.183,0.979,0.001
39.84,-0.448,0.948,-0.145
39.85,-0.171,1.083,-0.033
39.86,-0.175,0.955,0.072
39.87,-0.032,0.738,0.121
39.88,-0.353,1.173,-0.128
39.89,-0.368,0.805,-0.131
39.9,0.065,1.241,0.043
39.91,-0.1,0.687,0.087
39.92,-0.287,0.97,0.032
39.93,-0.305,1.077,-0.235
39.94,-0.187,0.901,-0.021
39.95,-0.191,1.094,0.206
39.96,-0.085,0.721,0.076
39.97,-0.53,1.156,-0.146
39.98,-0.156,0.868,-0.04
39.99,-0.131,1.214,0.118
40.0,-0.166,0.72,0.159
40.01,-0.243,0.901,-0.017
40.02,-0.39,1.112,-0.212
40.03,-0.024,0.882,-0.008
40.04,-0.119,1.196,0.157
40.05,-0.18,0.604,0.021
40.06,-0.438,1.192,-0.158
40.07,-0.003,1.0,-0.091
40.08,-0.129,1.035,0.092
40.09,-0.188,0.787,0.179
40.1,-0.283,0.903,-0.086
40.11,-0.355,1.165,-0.215
40.12,0.042,0.941,0.086
40.13,-0.154,1.093,0.107
40.14,-0.295,0.636,0.082
40.15,-0.271,1.331,-0.235
40.16,-0.159,0.913,-0.058
40.17,-0.24,0.929,0.214
40.18,0.032,0.932,0.1
40.19,-0.456,0.845,-0.187
40.2,-0.301,1.174,-0.067
40.21,0.01,0.912,0.028
40.22,-0.247,1.008,0.102
40.23,-0.188,0.742,0.02
40.24,-0.287,1.279,-0.249
40.25,-0.136,0.907,-0.016
40.26,-0.104,0.954,0.196
40.27,-0.083,0.946,0.079
40.28,-0.506,0.838,-0.161
40.29,-0.151,1.273,-0.076
40.3,-0.097,0.781,0.072
40.31,-0.295,1.023,0.195
40.32,-0.266,0.792,-0.069
40.33,-0.34,1.113,-0.191
40.34,-0.109,1.007,0.071
40.35,-0.047,0.911,0.114
40.36,-0.154,0.935,0.026
40.37,-0.363,0.859,-0.149
40.38,-0.122,1.314,-0.07
40.39,-0.163,0.681,0.084
40.4,-0.176,1.004,0.189
40.41,-0.322,0.898,-0.145
40.42,-0.375,0.98,-0.131
40.43,-0.041,1.152,0.143
40.44,-0.077,0.784,0.147
40.45,-0.366,1.009,-0.002
40.46,-0.22,0.902,-0.153
40.47,-0.216,1.218,-0.005
40.48,-0.218,0.728,0.172
40.49,-0.048,0.981,0.094
40.5,-0.388,0.988,-0.213
40.51,-0.259,0.962,-0.007
40.52,-0.089,1.181,0.086
40.53,-0.177,0.624,0.114
40.54,-0.214,1.111,-0.011
40.55,-0.33,0.908,-0.2
40.56,-0.207,1.109,0.013
40.57,0.016,0.886,0.113
40.58,-0.105,0.888,0.049
40.59,-0.508,1.053,-0.12
40.6,-0.052,0.943,-0.077
40.61,-0.238,1.169,0.066
40.62,-0.173,0.661,0.215
40.63,-0.388,1.138,-0.189
40.64,-0.221,0.776,-0.146
40.65,-0.101,1.308,0.118
40.66,0.032,0.731,0.078
40.67,-0.428,0.933,0.056
40.68,-0.251,1.037,-0.186
40.69,-0.094,0.995,-0.037
40.7,-0.285,1.0,0.207
40.71,-0.078,0.73,0.155
40.72,-0.469,1.182,-0.171
40.73,-0.279,0.805,-0.114
40.74,0.009,1.287,0.076
40.75,-0.105,0.7,0.111
40.76,-0.376,0.938,0.097
40.77,-0.292,1.176,-0.228
40.78,-0.177,0.844,-0.031
40.79,-0.186,1.08,0.223
40.8,-0.051,0.701,0.074
40.81,-0.531,1.175,-0.21
40.82,-0.125,0.896,-0.059
40.83,-0.067,1.156,0.034
40.84,-0.254,0.749,0.195
40.85,-0.194,0.93,-0.057
40.86,-0.309,1.118,-0.25
40.87,-0.183,0.848,0.108
40.88,-0.076,1.213,0.136
40.89,-0.135,0.602,0.03
40.9,-0.474,1.229,-0.183
40.91,0.018,0.97,-0.135
40.92,-0.211,1.008,0.093
40.93,-0.156,0.839,0.159
40.94,-0.27,0.869,-0.127
40.95,-0.283,1.167,-0.185
40.96,-0.115,0.85,0.132
40.97,-0.115,1.155,0.121
40.98,-0.227,0.641,-0.036
40.99,-0.356,1.187,-0.155
41.0,-0.138,1.015,-0.041
41.01,-0.207,0.944,0.205
41.02,-0.105,0.96,0.129
41.03,-0.388,0.827,-0.156
41.04,-0.305,1.251,-0.036
41.05,0.016,0.89,0.072
41.06,-0.174,0.978,0.108
41.07,-0.151,0.771,-0.012
41.08,-0.359,1.167,-0.205
41.09,-0.136,0.954,-0.003
41.1,-0.084,0.923,0.179
41.11,-0.216,0.98,0.073
41.12,-0.411,0.785,-0.145
41.13,-0.177,1.298,-0.055
41.14,-0.097,0.772,0.07
41.15,-0.168,0.954,0.167
41.16,-0.227,0.896,-0.115
41.17,-0.379,1.021,-0.135
41.18,-0.12,1.076,0.076
41.19,-0.045,0.821,0.118
41.2,-0.232,1.017,0.014
41.21,-0.372,0.842,-0.145
41.22,-0.149,1.275,-0.082
41.23,-0.183,0.767,0.113
41.24,-0.071,0.931,0.119
41.25,-0.326,0.948,-0.153
41.26,-0.321,0.979,-0.107
41.27,-0.023,1.188,0.051
41.28,-0.109,0.636,0.122
41.29,-0.254,1.07,-0.005
41.3,-0.34,0.923,-0.205
41.31,-0.156,1.126,-0.043
41.32,-0.14,0.813,0.198
41.33,-0.123,0.888,0.107
41.34,-0.447,1.024,-0.192
41.35,-0.132,0.897,-0.039
41.36,-0.136,1.266,0.081
41.37,-0.182,0.583,0.16
41.38,-0.221,1.124,-0.02
41.39,-0.332,0.899,-0.223
41.4,-0.204,1.079,0.049
41.41,-0.037,0.955,0.138
41.42,-0.188,0.796,0.041
41.43,-0.406,1.069,-0.158
41.44,-0.119,1.062,-0.072
41.45,-0.195,1.031,0.084
41.46,-0.047,0.684,0.165
41.47,-0.411,1.152,-0.165
41.48,-0.271,0.818,-0.119
41.49,0.045,1.317,0.052
41.5,-0.141,0.679,0.105
41.51,-0.238,0.901,0.046
41.52,-0.337,1.168,-0.243
41.53,-0.081,0.833,-0.082
41.54,-0.159,1.108,0.197
41.55,-0.091,0.694,0.074
41.56,-0.446,1.172,-0.183
41.57,-0.162,0.904,-0.03
41.58,-0.131,1.174,0.055
41.59,-0.157,0.748,0.166
41.6,-0.207,0.909,0.003
41.61,-0.37,1.174,-0.244
41.62,-0.123,0.791,0.056
41.63,-0.051,1.205,0.068
41.64,-0.21,0.669,0.118
41.65,-0.487,1.182,-0.157
41.66,-0.031,0.95,-0.143
41.67,-0.136,1.052,0.12
41.68,-0.139,0.868,0.156
41.69,-0.275,0.865,-0.129
41.7,-0.363,1.161,-0.14
41.71,-0.066,0.894,0.166
41.72,-0.115,1.125,0.098
41.73,-0.239,0.689,0.001
41.74,-0.35,1.337,-0.232
41.75,-0.135,0.814,-0.022
41.76,-0.207,1.079,0.219
41.77,-0.056,0.825,0.083
41.78,-0.5,0.928,-0.183
41.79,-0.187,1.156,-0.052
41.8,-0.111,0.931,0.119
41.81,-0.222,0.979,0.123
41.82,-0.176,0.74,-0.028
41.83,-0.359,1.296,-0.234
41.84,-0.156,0.876,0.044
41.85,-0.109,1.069,0.141
41.86,-0.158,0.806,0.041
41.87,-0.416,0.949,-0.082
41.88,-0.184,1.262,-0.034
41.89,-0.094,0.724,0.043
41.9,-0.184,1.089,0.21
41.91,-0.253,0.758,-0.137
41.92,-0.364,1.158,-0.159
41.93,-0.062,1.017,0.117
41.94,-0.136,0.882,0.155
41.95,-0.281,0.944,0.036
41.96,-0.295,0.988,-0.197
41.97,-0.171,1.183,-0.059
41.98,-0.224,0.692,0.241
41.99,-0.039,1.061,0.089
42.0,-0.403,0.785,-0.164
42.01,-0.214,1.109,-0.14
42.02,0.014,1.093,0.085
42.03,-0.258,0.726,0.151
42.04,-0.201,1.026,0.013
42.05,-0.278,0.992,-0.222
42.06,-0.197,1.137,-0.037
42.07,-0.119,0.733,0.182
42.08,-0.125,1.063,0.059
42.09,-0.395,0.839,-0.192
42.1,-0.115,1.113,-0.047
42.11,-0.12,1.036,0.071
42.12,-0.245,0.676,0.24
42.13,-0.209,1.124,-0.06
42.14,-0.344,0.831,-0.179
42.15,-0.165,1.201,0.117
42.16,-0.082,0.814,0.142
42.17,-0.252,0.921,-0.033
42.18,-0.36,1.022,-0.149
42.19,-0.1,1.031,-0.12
42.2,-0.171,0.967,0.132
42.21,-0.052,0.729,0.171
42.22,-0.412,1.173,-0.158
42.23,-0.312,0.786,-0.124
42.24,-0.035,1.295,0.035
42.25,-0.152,0.679,0.115
42.26,-0.283,1.08,0.008
42.27,-0.335,0.991,-0.249
42.28,-0.171,0.986,0.009
42.29,-0.052,1.01,0.127
42.3,-0.071,0.752,0.058
42.31,-0.468,1.12,-0.139
42.32,-0.108,0.904,-0.066
42.33,-0.133,1.183,0.079
42.34,-0.222,0.653,0.171
42.35,-0.32,1.037,-0.062
42.36,-0.364,0.923,-0.186
42.37,-0.145,1.015,0.129
42.38,-0.12,1.093,0.122
42.39,-0.172,0.667,0.026
42.4,-0.377,1.288,-0.192
42.41,-0.16,0.837,-0.062
42.42,-0.143,1.097,0.097
42.43,-0.05,0.788,0.133
42.44,-0.409,0.983,-0.187
42.45,-0.27,0.961,-0.124
42.46,-0.052,1.056,0.08
42.47,-0.096,0.993,0.109
42.48,-0.245,0.669,0.068
42.49,-0.372,1.347,-0.194
42.5,-0.082,0.835,-0.067
42.51,-0.176,1.111,0.18
42.52,-0.127,0.785,0.116
42.53,-0.439,0.928,-0.207
42.54,-0.134,1.192,-0.082
42.55,-0.075,0.896,0.087
42.56,-0.21,0.999,0.155
42.57,-0.178,0.705,-0.032
42.58,-0.42,1.26,-0.19
42.59,-0.103,0.889,-0.001
42.6,-0.126,1.077,0.118
42.61,-0.082,0.811,0.03
42.62,-0.107,0.706,0.213
42.63,-0.305,1.02,-0.135
42.64,-0.294,0.966,-0.181
42.65,-0.136,1.004,0.154
42.66,-0.11,1.125,0.116
42.67,-0.218,0.608,0.002
42.68,-0.467,1.317,-0.173
42.69,-0.027,0.885,-0.094
42.7,-0.217,1.086,0.103
42.71,-0.033,0.819,0.148
42.72,-0.348,0.935,-0.166
42.73,-0.283,1.052,-0.172
42.74,0.009,1.001,0.073
42.75,-0.116,1.044,0.087
42.76,-0.285,0.646,0.037
42.77,-0.371,1.33,-0.19
42.78,-0.079,0.913,-0.044
42.79,-0.243,1.007,0.143
42.8,-0.04,0.886,0.116
42.81,-0.435,0.884,-0.163
42.82,-0.232,1.163,-0.086
42.83,-0.017,0.894,0.092
42.84,-0.198,1.017,0.146
42.85,-0.212,0.709,-0.052
42.86,-0.347,1.261,-0.201
42.87,-0.1,0.902,0.02
42.88,-0.14,0.994,0.181
42.89,-0.145,0.9,0.062
42.9,-0.392,0.882,-0.204
42.91,-0.216,1.266,-0.037
42.92,-0.003,0.777,0.085
42.93,-0.251,1.013,0.157
42.94,-0.266,0.783,-0.027
42.95,-0.349,1.195,-0.181
42.96,-0.144,0.983,0.1
42.97,-0.086,0.907,0.141
42.98,-0.198,0.925,-0.024
42.99,-0.381,0.907,-0.123
43.0,-0.151,1.158,-0.005
43.01,-0.143,0.742,0.16
43.02,-0.134,1.114,0.106
43.03,-0.373,0.721,-0.172
43.04,-0.284,1.183,-0.101
43.05,0.029,0.978,0.044
43.06,-0.139,0.852,0.117
43.07,-0.292,0.943,0.025
43.08,-0.333,0.973,-0.194
43.09,-0.182,1.186,0.008
43.1,-0.072,0.709,0.178
43.11,-0.146,1.044,0.068
43.12,-0.435,0.901,-0.164
43.13,-0.141,1.188,-0.075
43.14,-0.086,0.867,0.085
43.15,-0.182,0.846,0.208
43.16,-0.31,1.058,-0.113
43.17,-0.284,0.823,-0.198
43.18,-0.186,1.239,0.112
43.19,-0.08,0.715,0.138
43.2,-0.211,1.02,0.026
43.21,-0.424,0.958,-0.157
43.22,-0.1,1.085,-0.096
43.23,-0.144,0.923,0.11
43.24,-0.126,0.771,0.131
43.25,-0.408,1.113,-0.133
43.26,-0.277,0.83,-0.049
43.27,-0.14,1.289,0.093
43.28,-0.109,0.661,0.134
43.29,-0.285,1.014,0.026
43.3,-0.418,1.017,-0.221
43.31,-0.109,0.962,0.039
43.32,-0.157,1.057,0.157
43.33,-0.125,0.698,0.067
43.34,-0.419,1.151,-0.172
43.35,-0.21,0.902,-0.02
43.36,-0.075,1.207,0.086
43.37,-0.117,0.684,0.118
43.38,-0.297,1.004,-0.031
43.39,-0.371,1.03,-0.25
43.4,-0.127,0.894,0.037
43.41,-0.062,1.153,0.122
43.42,-0.167,0.594,0.046
43.43,-0.516,1.286,-0.133
43.44,-0.014,0.953,-0.108
43.45,-0.222,1.045,0.087
43.46,-0.098,0.758,0.194
43.47,-0.339,0.984,-0.18
43.48,-0.306,1.064,-0.184
43.49,-0.056,0.937,0.094
43.5,-0.156,1.053,0.122
43.51,-0.274,0.648,0.063
43.52,-0.339,1.361,-0.201
43.53,-0.136,0.86,0.011
43.54,-0.271,1.018,0.172
43.55,0.036,0.871,0.08
43.56,-0.44,0.93,-0.2
43.57,-0.29,1.153,-0.028
43.58,-0.021,0.914,0.092
43.59,-0.233,1.034,0.104
43.6,-0.234,0.715,-0.012
43.61,-0.353,1.235,-0.256
43.62,-0.148,0.925,0.047
43.63,-0.082,1.039,0.166
43.64,-0.107,0.839,0.042
43.65,-0.45,0.897,-0.158
43.66,-0.183,1.25,-0.096
43.67,-0.067,0.77,0.066
43.68,-0.267,1.07,0.218
43.69,-0.243,0.756,-0.136
43.7,-0.303,1.147,-0.174
43.71,-0.068,1.073,0.128
43.72,-0.119,0.832,0.126
43.73,-0.268,0.918,0.027
43.74,-0.361,0.987,-0.152
43.75,-0.142,1.21,-0.05
43.76,-0.209,0.716,0.17
43.77,-0.115,1.039,0.119
43.78,-0.311,0.836,-0.193
43.79,-0.271,1.104,-0.098
43.8,-0.02,1.065,0.085
43.81,-0.135,0.683,0.146
43.82,-0.285,0.965,-0.015
43.83,-0.336,0.969,-0.216
43.84,-0.101,1.153,0.028
43.85,-0.093,0.813,0.146
43.86,-0.232,0.994,0.043
43.87,-0.343,0.844,-0.163
43.88,-0.14,1.259,-0.079
43.89,-0.129,0.806,0.076
43.9,-0.194,0.848,0.231
43.91,-0.323,1.061,-0.122
43.92,-0.324,0.791,-0.15
43.93,-0.071,1.306,0.169
43.94,-0.179,0.748,0.13
43.95,-0.174,0.956,0.003
43.96,-0.322,0.991,-0.183
43.97,-0.172,1.101,-0.028
43.98,-0.215,0.882,0.17
43.99,-0.069,0.803,0.101
44.0,-0.458,1.076,-0.204
44.01,-0.227,0.825,-0.017
44.02,-0.089,1.315,0.098
44.03,-0.133,0.575,0.087
44.04,-0.246,1.048,0.065
44.05,-0.301,1.034,-0.252
44.06,-0.202,0.96,0.011
44.07,-0.136,1.031,0.174
44.08,-0.075,0.724,0.059
44.09,-0.505,1.203,-0.158
44.1,-0.066,0.888,-0.061
44.11,-0.166,1.217,0.071
44.12,-0.191,0.625,0.133
44.13,-0.171,1.027,-0.039
44.14,-0.337,1.058,-0.233
44.15,-0.164,0.914,0.091
44.16,-0.045,1.089,0.131
44.17,-0.158,0.67,0.004
44.18,-0.471,1.273,-0.145
44.19,-0.043,0.892,-0.104
44.2,-0.121,1.093,0.057
44.21,-0.088,0.772,0.187
44.22,-0.389,1.022,-0.139
44.23,-0.301,1.001,-0.21
44.24,0.044,1.0,0.068
44.25,-0.16,1.063,0.12
44.26,-0.261,0.625,0.037
44.27,-0.333,1.341,-0.237
44.28,-0.101,0.842,-0.059
44.29,-0.229,1.066,0.204
44.3,-0.074,0.839,0.109
44.31,-0.42,0.906,-0.173
44.32,-0.244,1.156,-0.091
44.33,-0.052,0.936,0.072
44.34,-0.24,0.991,0.138
44.35,-0.139,0.673,0.027
44.36,-0.405,1.332,-0.234
44.37,-0.122,0.841,-0.003
44.38,-0.159,1.033,0.165
44.39,-0.053,0.876,0.04
44.4,-0.458,0.838,-0.181
44.41,-0.194,1.262,-0.01
44.42,-0.09,0.846,0.097
44.43,-0.208,1.006,0.154
44.44,-0.16,0.757,-0.052
44.45,-0.417,1.227,-0.198
44.46,-0.084,0.909,0.036
44.47,-0.071,1.012,0.125
44.48,-0.179,0.867,-0.014
44.49,-0.416,0.888,-0.12
44.5,-0.074,1.329,-0.085
44.51,-0.148,0.665,0.067
44.52,-0.175,1.052,0.186
44.53,-0.245,0.865,-0.143
44.54,-0.466,1.067,-0.119
44.55,0.064,1.045,0.038
44.56,-0.141,0.798,0.095
44.57,-0.248,0.934,0.01
44.58,-0.304,0.978,-0.187
44.59,-0.136,1.192,-0.052
44.6,-0.169,0.732,0.209
44.61,-0.092,1.046,0.139
44.62,-0.406,0.855,-0.196
44.63,-0.196,1.25,-0.039
44.64,-0.113,0.916,0.078
44.65,-0.184,0.79,0.15
44.66,-0.227,1.03,-0.085
44.67,-0.312,0.912,-0.177
44.68,-0.173,1.233,0.094
44.69,-0.099,0.798,0.13
44.7,-0.211,0.999,0.037
44.71,-0.378,0.879,-0.189
44.72,-0.161,1.127,-0.123
44.73,-0.114,0.886,0.066
44.74,-0.14,0.827,0.145
44.75,-0.368,1.065,-0.115
44.76,-0.247,0.814,-0.113
44.77,-0.116,1.347,0.084
44.78,-0.099,0.676,0.141
44.79,-0.201,0.986,0.005
44.8,-0.351,1.013,-0.171
44.81,-0.202,1.034,0.006
44.82,-0.161,0.944,0.164
44.83,-0.104,0.757,0.118
44.84,-0.386,1.156,-0.157
44.85,-0.276,0.844,-0.098
44.86,-0.125,1.289,0.062
44.87,-0.064,0.627,0.123
44.88,-0.289,1.022,0.05
44.89,-0.295,1.05,-0.257
44.9,-0.128,0.939,0.005
44.91,-0.149,1.07,0.153
44.92,-0.105,0.66,0.088
44.93,-0.432,1.202,-0.204
44.94,-0.137,0.915,-0.051
44.95,-0.159,1.147,0.037
44.96,-0.088,0.687,0.177
44.97,-0.309,0.998,-0.017
44.98,-0.347,0.982,-0.215
44.99,-0.122,0.921,0.125
45.0,-0.161,1.185,0.142
45.01,-0.141,0.612,-0.006
45.02,-0.454,1.27,-0.137
45.03,-0.039,0.894,-0.13
45.04,-0.159,1.122,0.105
45.05,-0.149,0.819,0.192
45.06,-0.348,0.94,-0.12
45.07,-0.328,1.018,-0.177
45.08,-0.014,1.025,0.126
45.09,-0.163,1.086,0.12
45.1,-0.249,0.607,0.055
45.11,-0.317,1.328,-0.232
45.12,-0.133,0.877,-0.072
45.13,-0.243,1.028,0.179
45.14,-0.037,0.879,0.1
45.15,-0.424,0.86,-0.179
45.16,-0.271,1.122,-0.081
45.17,0.007,0.95,0.041
45.18,-0.157,0.985,0.1
45.19,-0.187,0.673,0.024
45.2,-0.39,1.296,-0.187
45.21,-0.064,0.871,-0.006
45.22,-0.138,0.993,0.141
45.23,-0.147,0.952,0.111
45.24,-0.366,0.819,-0.22
45.25,-0.165,1.29,-0.047
45.26,-0.133,0.852,0.102
45.27,-0.139,0.992,0.137
45.28,-0.329,0.775,-0.018
45.29,-0.347,1.138,-0.209
45.3,-0.063,1.002,0.022
45.31,-0.144,0.915,0.179
45.32,-0.165,0.959,0.061
45.33,-0.371,0.863,-0.194
45.34,-0.159,1.27,-0.042
45.35,-0.082,0.779,0.149
45.36,-0.227,1.029,0.168
45.37,-0.254,0.848,-0.12
45.38,-0.229,1.048,-0.191
45.39,-0.088,1.132,0.073
45.4,-0.156,0.796,0.162
45.41,-0.242,0.978,0.075
45.42,-0.257,0.949,-0.216
45.43,-0.275,1.206,0.004
45.44,-0.16,0.709,0.179
45.45,-0.185,1.046,0.099
45.46,-0.35,0.778,-0.17
45.47,-0.232,1.221,-0.066
45.48,-0.154,0.928,0.068
45.49,-0.153,0.736,0.15
45.5,-0.173,1.03,-0.006
45.51,-0.387,0.958,-0.206
45.52,-0.134,1.12,0.011
45.53,-0.092,0.83,0.165
45.54,-0.204,1.031,0.077
45.55,-0.296,0.837,-0.19
45.56,-0.12,1.175,-0.112
45.57,-0.177,0.91,0.079
45.58,-0.103,0.747,0.187
45.59,-0.326,1.11,-0.08
45.6,-0.302,0.763,-0.212
45.61,-0.123,1.264,0.116
45.62,-0.087,0.802,0.125
45.63,-0.252,0.946,0.0
45.64,-0.32,0.961,-0.165
45.65,-0.186,1.102,-0.093
45.66,-0.17,0.885,0.108
45.67,-0.024,0.766,0.159
45.68,-0.476,1.168,-0.16
45.69,-0.251,0.744,-0.141
45.7,0.005,1.346,0.065
45.71,-0.184,0.674,0.151
45.72,-0.242,0.938,0.052
45.73,-0.316,1.132,-0.207
45.74,-0.16,0.89,-0.092
45.75,-0.208,1.021,0.195
45.76,-0.009,0.694,0.106
45.77,-0.53,1.152,-0.168
45.78,-0.147,0.858,-0.058
45.79,-0.082,1.235,0.022
45.8,-0.18,0.671,0.148
45.81,-0.163,0.987,0.009
45.82,-0.363,1.139,-0.249
45.83,-0.156,0.823,-0.006
45.84,-0.102,1.156,0.191
45.85,-0.186,0.626,0.112
45.86,-0.486,1.155,-0.167
45.87,-0.078,0.967,-0.056
45.88,-0.131,1.115,0.064
45.89,-0.196,0.804,0.193
45.9,-0.256,0.891,-0.044
45.91,-0.377,1.093,-0.221
45.92,-0.079,0.88,0.115
45.93,-0.084,1.239,0.123
45.94,-0.133,0.602,0.03
45.95,-0.469,1.224,-0.109
45.96,-0.132,0.956,-0.039
45.97,-0.197,1.022,0.092
45.98,-0.086,0.917,0.167
45.99,-0.341,0.824,-0.184
46.0,-0.289,1.13,-0.136
46.01,0.025,0.974,0.118
46.02,-0.215,1.039,0.134
46.03,-0.18,0.612,0.072
46.04,-0.401,1.349,-0.218
46.05,-0.132,0.904,-0.097
46.06,-0.228,0.963,0.195
46.07,-0.093,0.964,0.096
46.08,-0.361,0.767,-0.164
46.09,-0.218,1.257,-0.08
46.1,-0.037,0.886,0.048
46.11,-0.187,0.968,0.125
46.12,-0.158,0.73,0.048
46.13,-0.4,1.24,-0.268
46.14,-0.102,0.928,-0.031
46.15,-0.099,0.946,0.155
46.16,-0.161,0.954,0.075
46.17,-0.38,0.74,-0.185
46.18,-0.142,1.317,-0.059
46.19,-0.094,0.844,0.055
46.2,-0.177,0.907,0.167
46.21,-0.167,0.853,-0.022
46.22,-0.453,1.116,-0.239
46.23,-0.031,0.97,-0.019
46.24,-0.023,0.925,0.126
46.25,-0.284,0.983,0.054
46.26,-0.299,0.791,-0.172
46.27,-0.117,1.31,-0.107
46.28,-0.154,0.661,0.08
46.29,-0.169,1.055,0.194
46.3,-0.358,0.851,-0.171
46.31,-0.283,1.05,-0.201
46.32,-0.01,1.105,0.097
46.33,-0.161,0.847,0.147
46.34,-0.292,0.944,0.059
46.35,-0.34,0.968,-0.182
46.36,-0.169,1.156,-0.078
46.37,-0.199,0.715,0.222
46.38,-0.144,1.046,0.087
46.39,-0.338,0.817,-0.223
46.4,-0.217,1.102,-0.031
46.41,-0.108,1.098,0.059
46.42,-0.135,0.656,0.136
46.43,-0.277,1.079,0.044
46.44,-0.276,0.91,-0.238
46.45,-0.122,1.198,0.007
46.46,-0.172,0.781,0.178
46.47,-0.093,0.97,0.042
46.48,-0.407,0.927,-0.176
46.49,-0.19,1.064,-0.065
46.5,-0.106,1.069,0.103
46.51,-0.16,0.664,0.18
46.52,-0.247,1.143,-0.079
46.53,-0.313,0.805,-0.176
46.54,-0.131,1.216,0.076
46.55,-0.133,0.843,0.17
46.56,-0.157,0.904,0.042
46.57,-0.405,1.016,-0.192
46.58,-0.134,0.983,-0.075
46.59,-0.167,1.084,0.088
46.6,-0.151,0.68,0.195
46.61,-0.379,1.159,-0.074
46.62,-0.241,0.789,-0.195
46.63,-0.104,1.25,0.161
46.64,-0.124,0.83,0.124
46.65,-0.271,0.841,0.046
46.66,-0.351,1.179,-0.201
46.67,-0.168,0.909,-0.067
46.68,-0.21,1.048,0.15
46.69,-0.007,0.705,0.121
46.7,-0.494,1.167,-0.16
46.71,-0.232,0.826,-0.089
46.72,-0.076,1.243,0.078
46.73,-0.149,0.752,0.116
46.74,-0.249,0.809,0.032
46.75,-0.305,1.322,-0.206
46.76,-0.154,0.778,-0.084
46.77,-0.191,1.128,0.184
46.78,-0.119,0.638,0.129
46.79,-0.536,1.156,-0.201
46.8,-0.143,0.982,-0.04
46.81,-0.122,1.097,0.05
46.82,-0.153,0.823,0.131
46.83,-0.233,0.81,-0.011
46.84,-0.354,1.267,-0.263
46.85,-0.088,0.775,-0.021
46.86,-0.107,1.189,0.173
46.87,-0.105,0.681,0.053
46.88,-0.53,1.131,-0.143
46.89,-0.084,1.041,-0.096
46.9,-0.139,0.95,0.031
46.91,-0.228,0.934,0.16
46.92,-0.195,0.788,-0.098
46.93,-0.374,1.207,-0.193
46.94,0.031,0.861,0.105
46.95,-0.076,1.138,0.159
46.96,-0.269,0.689,0.033
46.97,-0.363,1.106,-0.152
46.98,-0.174,1.063,-0.058
46.99,-0.156,0.836,0.128
47.0,-0.146,1.04,0.166
47.01,-0.271,0.771,-0.182
47.02,-0.341,1.223,-0.074
47.03,0.028,0.885,0.073
47.04,-0.153,0.989,0.143
47.05,-0.215,0.77,0.019
47.06,-0.329,1.131,-0.204
47.07,-0.164,1.032,-0.001
47.08,-0.178,0.988,0.194
47.09,-0.125,0.916,0.066
47.1,-0.433,0.82,-0.179
47.11,-0.214,1.265,-0.03
47.12,-0.089,0.859,0.092
47.13,-0.149,0.966,0.158
47.14,-0.242,0.778,-0.074
47.15,-0.329,1.151,-0.205
47.16,-0.096,0.991,0.058
47.17,-0.172,0.934,0.161
47.18,-0.179,0.937,0.05
47.19,-0.412,0.86,-0.181
47.2,-0.146,1.327,-0.04
47.21,-0.089,0.729,0.06
47.22,-0.19,0.959,0.158
47.23,-0.32,0.881,-0.12
47.24,-0.261,1.033,-0.171
47.25,-0.092,1.08,0.081
47.26,-0.135,0.782,0.132
47.27,-0.257,1.013,0.002
47.28,-0.355,0.866,-0.173
47.29,-0.156,1.237,0.001
47.3,-0.168,0.726,0.141
47.31,-0.084,0.989,0.108
47.32,-0.379,0.947,-0.176
47.33,-0.304,0.971,-0.064
47.34,-0.0,1.187,0.076
47.35,-0.138,0.67,0.129
47.36,-0.329,1.071,-0.018
47.37,-0.255,0.912,-0.188
47.38,-0.203,1.205,0.073
47.39,-0.213,0.771,0.232
47.4,-0.082,0.918,0.018
47.41,-0.368,1.044,-0.264
47.42,-0.099,0.943,-0.05
47.43,-0.13,1.127,0.07
47.44,-0.109,0.675,0.164
47.45,-0.32,1.198,-0.073
47.46,-0.279,0.788,-0.198
47.47,-0.153,1.219,0.164
47.48,-0.124,0.876,0.144
47.49,-0.243,0.83,0.027
47.5,-0.366,1.173,-0.195
47.51,-0.153,0.913,-0.031
47.52,-0.208,1.072,0.148
47.53,-0.082,0.712,0.182
47.54,-0.419,1.148,-0.165
47.55,-0.298,0.843,-0.074
47.56,-0.019,1.208,0.095
47.57,-0.177,0.833,0.138
47.58,-0.295,0.764,0.053
47.59,-0.332,1.278,-0.234
47.6,-0.076,0.819,-0.036
47.61,-0.238,1.171,0.193
47.62,-0.069,0.658,0.087
47.63,-0.51,1.136,-0.16
47.64,-0.075,0.991,-0.095
47.65,-0.058,1.047,0.086
47.66,-0.246,0.855,0.163
47.67,-0.181,0.825,-0.08
47.68,-0.382,1.273,-0.203
47.69,-0.156,0.81,0.099
47.7,-0.096,1.164,0.112
47.71,-0.163,0.643,-0.011
47.72,-0.485,1.193,-0.138
47.73,-0.134,1.03,-0.103
47.74,-0.151,0.911,0.089
47.75,-0.018,1.002,0.138
47.76,-0.379,0.732,-0.114
47.77,-0.309,1.181,-0.167
47.78,0.1,0.944,0.046
47.79,-0.224,1.016,0.129
47.8,-0.254,0.728,0.072
47.81,-0.323,1.206,-0.213
47.82,-0.167,1.037,-0.044
47.83,-0.166,0.866,0.152
47.84,-0.024,1.035,0.07
47.85,-0.378,0.744,-0.176
47.86,-0.283,1.281,-0.066
47.87,0.009,0.919,0.069
47.88,-0.208,0.891,0.108
47.89,-0.253,0.818,0.046
47.9,-0.398,1.23,-0.183
47.91,-0.209,0.939,0.101
47.92,-0.062,0.994,0.103
47.93,-0.182,0.863,0.006
47.94,-0.404,0.899,-0.106
47.95,-0.082,1.307,-0.126
47.96,-0.112,0.732,0.084
47.97,-0.183,1.036,0.214
47.98,-0.296,0.789,-0.142
47.99,-0.37,1.028,-0.146
48.0,0.005,1.137,0.108
48.01,-0.202,0.8,0.15
48.02,-0.244,0.96,0.06
48.03,-0.296,0.984,-0.202
48.04,-0.174,1.162,-0.088
48.05,-0.179,0.706,0.206
48.06,-0.006,1.074,0.086
48.07,-0.364,0.822,-0.237
48.08,-0.215,1.057,-0.027
48.09,-0.091,1.195,0.024
48.1,-0.169,0.64,0.141
48.11,-0.281,1.118,0.097
48.12,-0.377,0.918,-0.26
48.13,-0.153,1.092,-0.034
48.14,-0.059,0.85,0.173
48.15,-0.16,0.937,0.077
48.16,-0.385,0.861,-0.174
48.17,-0.072,1.055,-0.077
48.18,-0.155,1.08,0.097
48.19,-0.201,0.626,0.232
48.2,-0.309,1.179,-0.073
48.21,-0.304,0.826,-0.211
48.22,-0.182,1.212,0.126
48.23,-0.073,0.88,0.129
48.24,-0.142,0.849,-0.043
48.25,-0.354,1.112,-0.128
48.26,-0.13,0.951,-0.128
48.27,-0.152,1.011,0.085
48.28,-0.055,0.758,0.211
48.29,-0.399,1.153,-0.149
48.3,-0.269,0.778,-0.148
48.31,-0.055,1.27,0.077
48.32,-0.184,0.797,0.164
48.33,-0.282,0.845,0.037
48.34,-0.339,1.223,-0.216
48.35,-0.134,0.859,-0.034
48.36,-0.171,1.106,0.173
48.37,-0.008,0.701,0.12
