t,ax,ay,az
0.0,-0.171,1.278,-0.076
0.01,-0.093,0.761,0.181
0.02,-0.201,1.006,0.106
0.03,-0.322,0.808,-0.202
0.04,-0.29,1.023,-0.065
0.05,-0.031,1.147,0.11
0.06,-0.176,0.625,0.139
0.07,-0.286,1.104,-0.032
0.08,-0.349,0.876,-0.217
0.09,-0.098,1.273,0.12
0.1,-0.121,0.783,0.123
0.11,-0.25,0.852,-0.031
0.12,-0.289,1.118,-0.207
0.13,-0.105,0.978,-0.05
0.14,-0.193,1.045,0.17
0.15,-0.023,0.695,0.024
0.16,-0.485,1.16,-0.232
0.17,-0.094,0.942,-0.093
0.18,-0.031,1.131,0.104
0.19,-0.217,0.797,0.225
0.2,-0.311,0.863,-0.08
0.21,-0.34,1.192,-0.203
0.22,0.086,0.949,0.113
0.23,-0.155,1.059,0.109
0.24,-0.25,0.635,0.078
0.25,-0.442,1.356,-0.232
0.26,-0.14,0.891,-0.041
0.27,-0.089,0.97,0.204
0.28,-0.192,0.876,0.017
0.29,-0.323,0.851,-0.181
0.3,-0.159,1.348,-0.061
0.31,-0.092,0.712,0.162
0.32,-0.205,1.028,0.153
0.33,-0.277,0.722,-0.139
0.34,-0.307,1.273,-0.144
0.35,0.059,0.939,0.086
0.36,-0.228,0.901,0.128
0.37,-0.179,0.807,0.005
0.38,-0.406,1.076,-0.216
0.39,-0.015,1.155,0.032
0.4,-0.051,0.763,0.15
0.41,-0.329,0.997,-0.002
0.42,-0.329,0.787,-0.182
0.43,-0.133,1.322,-0.065
0.44,-0.144,0.701,0.159
0.45,-0.114,0.933,0.113
0.46,-0.4,1.022,-0.198
0.47,-0.277,0.929,-0.065
0.48,0.021,1.221,0.099
0.49,-0.257,0.622,0.147
0.5,-0.245,1.132,-0.039
0.51,-0.35,0.962,-0.24
0.52,-0.116,1.14,0.124
0.53,-0.061,0.872,0.115
0.54,-0.31,0.754,-0.026
0.55,-0.381,1.225,-0.154
0.56,-0.114,0.878,0.013
0.57,-0.251,1.074,0.208
0.58,-0.043,0.675,0.074
0.59,-0.539,1.152,-0.195
0.6,-0.146,1.013,-0.059
0.61,-0.03,1.024,0.099
0.62,-0.23,0.911,0.187
0.63,-0.232,0.754,-0.135
0.64,-0.345,1.251,-0.221
0.65,0.06,0.929,0.136
0.66,-0.192,1.057,0.159
0.67,-0.226,0.677,0.01
0.68,-0.398,1.28,-0.216
0.69,-0.103,1.001,-0.032
0.7,-0.119,0.896,0.191
0.71,-0.163,0.945,-0.015
0.72,-0.404,0.797,-0.202
0.73,-0.13,1.374,-0.059
0.74,-0.085,0.726,0.153
0.75,-0.28,1.019,0.188
0.76,-0.297,0.796,-0.125
0.77,-0.322,1.114,-0.17
0.78,-0.043,1.159,0.108
0.79,-0.163,0.629,0.103
0.8,-0.289,1.056,0.047
0.81,-0.32,0.962,-0.239
0.82,-0.042,1.217,0.006
0.83,-0.026,0.747,0.156
0.84,-0.236,0.887,0.012
0.85,-0.423,1.018,-0.126
0.86,-0.125,1.069,-0.04
0.87,-0.187,0.945,0.107
0.88,-0.117,0.714,0.115
0.89,-0.412,1.167,-0.186
0.9,-0.28,0.861,-0.068
0.91,0.002,1.219,0.147
0.92,-0.18,0.697,0.116
0.93,-0.258,0.951,-0.001
0.94,-0.395,1.158,-0.207
0.95,-0.162,0.932,0.122
0.96,-0.12,1.103,0.106
0.97,-0.188,0.618,-0.07
0.98,-0.43,1.287,-0.166
0.99,-0.034,0.926,-0.002
1.0,-0.229,1.004,0.224
1.01,-0.098,0.848,0.082
1.02,-0.362,0.884,-0.228
1.03,-0.211,1.26,-0.07
1.04,-0.018,0.811,0.128
1.05,-0.257,1.08,0.178
1.06,-0.25,0.706,-0.114
1.07,-0.385,1.234,-0.191
1.08,0.022,1.016,0.124
1.09,-0.112,0.863,0.124
1.1,-0.31,0.914,0.071
1.11,-0.283,0.995,-0.244
1.12,-0.179,1.211,-0.052
1.13,-0.079,0.685,0.231
1.14,-0.185,1.006,0.039
1.15,-0.451,0.871,-0.168
1.16,-0.156,1.289,-0.098
1.17,-0.126,0.726,0.156
1.18,-0.113,0.984,0.143
1.19,-0.358,0.883,-0.167
1.2,-0.306,0.986,-0.059
1.21,0.012,1.247,0.092
1.22,-0.204,0.603,0.11
1.23,-0.214,1.098,-0.036
1.24,-0.41,0.891,-0.232
1.25,-0.129,1.145,0.08
1.26,-0.081,0.858,0.155
1.27,-0.222,0.789,-0.003
1.28,-0.168,1.039,0.136
1.29,-0.268,0.635,0.045
1.3,-0.367,1.275,-0.24
1.31,-0.123,0.966,0.026
1.32,-0.127,1.023,0.177
1.33,-0.123,0.871,-0.062
1.34,-0.413,0.883,-0.112
1.35,-0.13,1.339,-0.079
1.36,-0.094,0.666,0.1
1.37,-0.146,1.076,0.139
1.38,-0.246,0.737,-0.202
1.39,-0.374,1.156,-0.068
1.4,-0.032,1.095,0.106
1.41,-0.197,0.74,0.126
1.42,-0.233,1.05,0.003
1.43,-0.358,0.926,-0.258
1.44,-0.269,1.172,0.075
1.45,0.024,0.765,0.148
1.46,-0.225,0.952,0.008
1.47,-0.369,0.901,-0.153
1.48,-0.142,1.081,-0.105
1.49,-0.066,0.944,0.127
1.5,-0.115,0.773,0.204
1.51,-0.422,1.094,-0.17
1.52,-0.293,0.857,-0.082
1.53,-0.103,1.304,0.143
1.54,-0.116,0.63,0.136
1.55,-0.223,0.916,0.006
1.56,-0.387,1.123,-0.219
1.57,-0.098,0.908,-0.025
1.58,-0.103,1.122,0.096
1.59,-0.072,0.646,-0.009
1.6,-0.437,1.284,-0.166
1.61,-0.151,0.899,-0.052
1.62,-0.195,1.057,0.148
1.63,-0.057,0.798,0.126
1.64,-0.407,0.881,-0.193
1.65,-0.233,1.166,-0.132
1.66,0.09,0.985,0.061
1.67,-0.195,0.985,0.112
1.68,-0.198,0.673,0.02
1.69,-0.424,1.362,-0.262
1.7,-0.077,0.85,-0.007
1.71,-0.097,1.049,0.165
1.72,-0.176,0.794,0.042
1.73,-0.455,0.94,-0.085
1.74,-0.18,1.268,-0.065
1.75,-0.135,0.697,0.114
1.76,-0.096,1.103,0.132
1.77,-0.326,0.702,-0.15
1.78,-0.291,1.249,-0.097
1.79,0.008,1.044,0.076
1.8,-0.153,0.761,0.109
1.81,-0.159,0.98,-0.021
1.82,-0.542,1.011,-0.197
1.83,-0.138,1.18,0.051
1.84,-0.053,0.778,0.168
1.85,-0.308,0.966,0.069
1.86,-0.31,0.863,-0.173
1.87,-0.203,1.17,-0.084
1.88,-0.061,0.856,0.126
1.89,-0.067,0.844,0.113
1.9,-0.379,0.902,-0.195
1.91,-0.206,1.021,-0.016
1.92,-0.191,1.177,0.124
1.93,-0.124,0.575,0.12
1.94,-0.239,1.134,-0.044
1.95,-0.392,0.86,-0.259
1.96,-0.035,1.182,0.111
1.97,-0.113,0.836,0.111
1.98,-0.216,0.786,0.051
1.99,-0.35,1.248,-0.196
2.0,-0.146,0.885,-0.063
2.01,-0.172,1.051,0.207
2.02,-0.137,0.717,0.108
2.03,-0.503,1.077,-0.197
2.04,-0.167,0.926,-0.07
2.05,0.005,1.152,0.108
2.06,-0.243,0.807,0.147
2.07,-0.249,0.778,-0.016
2.08,-0.364,1.272,-0.222
2.09,-0.084,0.852,0.101
2.1,-0.123,1.12,0.165
2.11,-0.226,0.636,-0.031
2.12,-0.459,1.166,-0.152
2.13,-0.06,1.037,-0.06
2.14,-0.104,0.846,0.131
2.15,-0.143,1.005,0.114
2.16,-0.382,0.754,-0.191
2.17,-0.328,1.251,-0.037
2.18,0.022,0.882,0.125
2.19,-0.232,0.983,0.09
2.2,-0.18,0.785,-0.076
2.21,-0.296,1.183,-0.207
2.22,-0.18,1.066,0.185
2.23,-0.086,0.782,0.2
2.24,-0.357,0.99,-0.046
2.25,-0.362,0.805,-0.174
2.26,-0.143,1.254,-0.006
2.27,-0.178,0.783,0.2
2.28,-0.154,0.967,0.082
2.29,-0.351,0.907,-0.217
2.3,-0.244,1.084,-0.027
2.31,-0.07,1.082,0.147
2.32,-0.238,0.658,0.146
2.33,-0.325,1.108,-0.096
2.34,-0.198,0.878,-0.246
2.35,-0.073,1.267,0.089
2.36,-0.045,0.688,0.11
2.37,-0.25,0.91,0.011
2.38,-0.431,1.151,-0.197
2.39,-0.063,0.909,0.038
2.4,-0.167,1.127,0.192
2.41,-0.158,0.661,0.025
2.42,-0.425,1.178,-0.18
2.43,-0.203,0.971,-0.012
2.44,-0.123,1.056,0.147
2.45,-0.132,0.803,0.145
2.46,-0.399,0.856,-0.119
2.47,-0.324,1.169,-0.198
2.48,0.069,0.969,0.102
2.49,-0.197,1.05,0.134
2.5,-0.257,0.657,0.025
2.51,-0.375,1.323,-0.218
2.52,-0.106,0.953,-0.053
2.53,-0.047,0.921,0.143
2.54,-0.193,0.863,0.059
2.55,-0.494,0.908,-0.139
2.56,-0.16,1.251,-0.058
2.57,-0.132,0.752,0.12
2.58,-0.124,1.095,0.15
2.59,-0.335,0.716,-0.166
2.6,-0.269,1.199,-0.123
2.61,0.072,1.072,0.092
2.62,-0.251,0.749,0.15
2.63,-0.246,0.997,-0.001
2.64,-0.359,0.934,-0.238
2.65,-0.123,1.23,0.038
2.66,-0.026,0.733,0.121
2.67,-0.23,0.967,0.018
2.68,-0.364,0.884,-0.216
2.69,-0.074,1.162,-0.106
2.7,-0.054,0.879,0.092
2.71,-0.111,0.906,0.093
2.72,-0.437,0.969,-0.226
2.73,-0.23,0.977,-0.024
2.74,-0.038,1.162,0.102
2.75,-0.202,0.64,0.142
2.76,-0.269,1.15,-0.101
2.77,-0.336,0.949,-0.181
2.78,-0.155,1.13,0.146
2.79,-0.072,0.829,0.102
2.8,-0.222,0.771,-0.058
2.81,-0.369,1.262,-0.199
2.82,-0.113,0.879,0.009
2.83,-0.212,1.099,0.196
2.84,-0.049,0.664,0.056
2.85,-0.532,1.151,-0.246
2.86,-0.005,0.99,-0.127
2.87,-0.052,1.013,0.055
2.88,-0.14,0.887,0.177
2.89,-0.281,0.771,-0.127
2.9,-0.438,1.285,-0.125
2.91,0.08,0.915,0.085
2.92,-0.237,1.041,0.109
2.93,-0.206,0.691,0.035
2.94,-0.304,1.294,-0.274
2.95,-0.158,0.984,-0.05
2.96,-0.008,0.849,0.173
2.97,-0.16,0.977,0.003
2.98,-0.44,0.82,-0.141
2.99,-0.156,1.34,-0.075
3.0,-0.062,0.723,0.123
3.01,-0.167,1.06,0.094
3.02,-0.297,0.795,-0.147
3.03,-0.395,1.122,-0.063
3.04,-0.026,1.133,0.133
3.05,-0.209,0.658,0.162
3.06,-0.33,1.056,-0.006
3.07,-0.25,0.875,-0.255
3.08,-0.122,1.279,0.132
3.09,-0.213,0.683,0.206
3.1,-0.182,0.92,0.042
3.11,-0.406,1.056,-0.215
3.12,-0.122,0.932,-0.023
3.13,-0.214,1.063,0.231
3.14,-0.18,0.681,0.151
3.15,-0.431,1.1,-0.163
3.16,-0.264,0.962,-0.064
3.17,-0.036,1.174,0.143
3.18,-0.17,0.699,0.139
3.19,-0.233,0.944,-0.091
3.2,-0.35,1.131,-0.202
3.21,-0.043,0.96,0.125
3.22,-0.207,1.047,0.15
3.23,-0.231,0.643,-0.002
3.24,-0.477,1.298,-0.182
3.25,-0.074,0.863,-0.025
3.26,-0.099,1.131,0.178
3.27,-0.172,0.803,0.074
3.28,-0.375,0.83,-0.197
3.29,-0.106,1.317,-0.103
3.3,-0.073,0.793,0.167
3.31,-0.282,1.063,0.204
3.32,-0.252,0.707,-0.09
3.33,-0.363,1.273,-0.167
3.34,0.01,1.003,0.087
3.35,-0.147,0.823,0.089
3.36,-0.183,0.903,-0.002
3.37,-0.42,1.0,-0.222
3.38,-0.068,1.219,-0.046
3.39,-0.051,0.771,0.141
3.4,-0.248,1.023,0.066
3.41,-0.306,0.778,-0.184
3.42,-0.193,1.276,-0.136
3.43,0.021,0.888,0.082
3.44,-0.257,0.777,0.202
3.45,-0.362,1.022,-0.115
3.46,-0.224,0.9,-0.183
3.47,0.015,1.333,0.056
3.48,-0.099,0.596,0.103
3.49,-0.242,1.032,0.006
3.5,-0.386,0.994,-0.227
3.51,-0.101,1.042,0.015
3.52,-0.158,0.831,0.182
3.53,-0.234,0.79,-0.001
3.54,-0.31,1.106,-0.21
3.55,-0.2,0.916,-0.04
3.56,-0.088,1.135,0.179
3.57,-0.148,0.697,0.126
3.58,-0.426,1.042,-0.203
3.59,-0.125,0.991,-0.08
3.6,-0.081,1.192,0.082
3.61,-0.14,0.735,0.146
3.62,-0.195,0.835,-0.004
3.63,-0.493,1.27,-0.225
3.64,-0.043,0.851,0.102
3.65,-0.156,1.236,0.107
3.66,-0.191,0.585,0.001
3.67,-0.311,1.217,-0.159
3.68,-0.191,1.046,-0.058
3.69,-0.116,0.875,0.232
3.7,-0.094,0.981,0.075
3.71,-0.394,0.723,-0.203
3.72,-0.163,1.335,-0.067
3.73,-0.138,0.898,0.148
3.74,-0.227,0.939,0.138
3.75,-0.117,0.801,-0.032
3.76,-0.432,1.2,-0.213
3.77,-0.123,0.974,0.061
3.78,-0.007,0.897,0.115
3.79,-0.25,0.987,-0.027
3.8,-0.362,0.837,-0.141
3.81,-0.232,1.268,-0.011
3.82,-0.15,0.745,0.207
3.83,-0.211,1.018,0.127
3.84,-0.323,0.825,-0.235
3.85,-0.137,1.108,-0.048
3.86,-0.149,1.124,0.171
3.87,-0.223,0.616,0.188
3.88,-0.147,1.109,-0.057
3.89,-0.357,0.866,-0.205
3.9,-0.127,1.216,0.13
3.91,-0.078,0.782,0.15
3.92,-0.326,0.865,0.053
3.93,-0.246,1.076,-0.231
3.94,-0.158,0.997,-0.028
3.95,-0.271,1.072,0.26
3.96,-0.087,0.696,0.101
3.97,-0.484,1.134,-0.208
3.98,-0.15,0.91,-0.073
3.99,-0.033,1.159,0.087
4.0,-0.2,0.709,0.181
4.01,-0.19,0.883,-0.036
4.02,-0.432,1.182,-0.213
4.03,-0.087,0.859,0.096
4.04,-0.133,1.126,0.077
4.05,-0.094,0.615,0.04
4.06,-0.49,1.292,-0.133
4.07,-0.183,0.926,-0.014
4.08,-0.21,0.979,0.216
4.09,-0.174,0.925,0.151
4.1,-0.399,0.782,-0.182
4.11,-0.242,1.215,-0.139
4.12,0.052,0.908,0.103
4.13,-0.212,1.022,0.08
4.14,-0.157,0.701,-0.052
4.15,-0.369,1.272,-0.21
4.16,-0.079,0.966,0.024
4.17,-0.117,0.922,0.17
4.18,-0.194,0.933,-0.007
4.19,-0.372,0.875,-0.166
4.2,-0.226,1.314,-0.073
4.21,-0.119,0.668,0.163
4.22,-0.095,1.074,0.122
4.23,-0.311,0.794,-0.198
4.24,-0.296,1.116,-0.084
4.25,-0.089,1.068,0.108
4.26,-0.182,0.697,0.15
4.27,-0.266,1.052,-0.029
4.28,-0.334,0.862,-0.167
4.29,-0.165,1.275,0.083
4.3,-0.094,0.75,0.137
4.31,-0.206,0.933,-0.008
4.32,-0.295,0.973,-0.19
4.33,-0.181,1.079,-0.033
4.34,-0.14,0.819,0.201
4.35,-0.22,0.855,0.165
4.36,-0.38,1.042,-0.2
4.37,-0.216,0.935,-0.102
4.38,-0.104,1.177,0.119
4.39,-0.15,0.63,0.156
4.4,-0.283,1.094,-0.062
4.41,-0.336,0.884,-0.218
4.42,-0.094,1.143,0.108
4.43,-0.156,0.945,0.099
4.44,-0.172,0.706,0.008
4.45,-0.386,1.32,-0.177
4.46,-0.154,0.853,-0.052
4.47,-0.199,1.065,0.183
4.48,-0.041,0.752,0.091
4.49,-0.452,0.99,-0.213
4.5,-0.181,1.033,-0.091
4.51,0.006,1.058,0.102
4.52,-0.234,0.881,0.156
4.53,-0.153,0.733,-0.014
4.54,-0.521,1.357,-0.163
4.55,-0.148,0.797,0.071
4.56,-0.006,1.131,0.102
4.57,-0.246,0.704,-0.008
4.58,-0.439,1.109,-0.13
4.59,-0.142,1.108,-0.103
4.6,-0.16,0.777,0.198
4.61,-0.101,1.103,0.144
4.62,-0.303,0.747,-0.198
4.63,-0.335,1.271,-0.061
4.64,-0.054,0.882,0.09
4.65,-0.16,0.915,0.109
4.66,-0.186,0.858,-0.042
4.67,-0.457,1.039,-0.244
4.68,-0.122,1.116,0.083
4.69,-0.047,0.823,0.1
4.7,-0.252,0.99,0.04
4.71,-0.328,0.835,-0.125
4.72,-0.2,1.3,-0.069
4.73,-0.104,0.712,0.088
4.74,-0.113,0.944,0.103
4.75,-0.372,0.926,-0.214
4.76,-0.177,0.973,-0.068
4.77,-0.07,1.265,0.116
4.78,-0.213,0.613,0.119
4.79,-0.186,1.104,0.009
4.8,-0.462,0.956,-0.246
4.81,-0.119,1.037,0.063
4.82,0.001,0.98,0.094
4.83,-0.245,0.747,0.015
4.84,-0.397,1.141,-0.101
4.85,-0.17,1.006,-0.061
4.86,-0.193,1.028,0.125
4.87,-0.051,0.732,0.155
4.88,-0.47,1.085,-0.14
4.89,-0.274,0.893,-0.108
4.9,-0.015,1.137,0.088
4.91,-0.175,0.818,0.099
4.92,-0.207,0.793,0.064
4.93,-0.448,1.299,-0.238
4.94,-0.14,0.741,0.003
4.95,-0.013,1.207,0.122
4.96,-0.203,0.657,-0.007
4.97,-0.443,1.102,-0.123
4.98,-0.12,1.115,-0.103
4.99,-0.142,0.806,0.071
5.0,-0.001,1.038,0.137
5.01,-0.362,0.777,-0.168
5.02,-0.464,1.226,-0.117
5.03,0.093,0.926,0.112
5.04,-0.197,1.016,0.123
5.05,-0.185,0.775,0.056
5.06,-0.351,1.184,-0.247
5.07,-0.275,1.075,0.058
5.08,-0.007,0.831,0.162
5.09,-0.212,1.002,0.041
5.1,-0.403,0.778,-0.113
5.11,-0.119,1.382,-0.077
5.12,-0.134,0.714,0.09
5.13,-0.123,0.999,0.152
5.14,-0.313,0.828,-0.162
5.15,-0.245,1.157,-0.057
5.16,-0.001,1.095,0.061
5.17,-0.243,0.689,0.106
5.18,-0.197,1.041,-0.008
5.19,-0.382,0.924,-0.229
5.2,-0.161,1.238,0.057
5.21,-0.02,0.767,0.12
5.22,-0.23,0.966,-0.019
5.23,-0.349,0.91,-0.135
5.24,-0.149,1.145,-0.062
5.25,-0.203,0.866,0.116
5.26,-0.104,0.776,0.159
5.27,-0.424,1.116,-0.167
5.28,-0.35,0.827,-0.049
5.29,0.0,1.34,0.096
5.3,-0.19,0.642,0.066
5.31,-0.171,0.983,-0.042
5.32,-0.34,1.087,-0.234
5.33,-0.203,0.917,0.059
5.34,-0.025,1.101,0.117
5.35,-0.122,0.65,0.004
5.36,-0.489,1.223,-0.14
5.37,-0.07,0.908,-0.077
5.38,-0.205,1.086,0.078
5.39,-0.01,0.775,0.158
5.4,-0.374,0.906,-0.168
5.41,-0.354,1.139,-0.09
5.42,-0.035,0.995,0.044
5.43,-0.166,0.965,0.088
5.44,-0.145,0.677,0.003
5.45,-0.394,1.378,-0.245
5.46,-0.115,0.886,0.005
5.47,-0.091,1.073,0.163
5.48,-0.1,0.83,0.032
5.49,-0.478,0.957,-0.109
5.5,-0.181,1.234,-0.083
5.51,-0.064,0.739,0.083
5.52,-0.194,1.062,0.152
5.53,-0.215,0.71,-0.133
5.54,-0.355,1.212,-0.167
5.55,0.049,1.012,0.106
5.56,-0.128,0.832,0.096
5.57,-0.294,0.94,0.041
5.58,-0.348,0.969,-0.191
5.59,-0.155,1.158,-0.023
5.6,-0.105,0.736,0.232
5.61,-0.212,1.051,0.076
5.62,-0.35,0.804,-0.239
5.63,-0.191,1.208,-0.103
5.64,0.001,0.916,0.07
5.65,-0.221,0.777,0.231
5.66,-0.337,1.048,-0.071
5.67,-0.331,0.822,-0.228
5.68,0.009,1.334,0.058
5.69,-0.085,0.676,0.101
5.7,-0.379,0.965,0.085
5.71,-0.264,1.0,-0.245
5.72,-0.118,1.013,-0.044
5.73,-0.172,0.97,0.196
5.74,-0.068,0.728,0.066
5.75,-0.494,1.15,-0.203
5.76,-0.137,0.883,-0.022
5.77,-0.099,1.219,0.112
5.78,-0.193,0.68,0.164
5.79,-0.3,1.009,-0.086
5.8,-0.3,1.072,-0.187
5.81,-0.082,0.996,0.118
5.82,-0.187,1.017,0.134
5.83,-0.199,0.664,0.013
5.84,-0.403,1.361,-0.215
5.85,-0.099,0.839,-0.048
5.86,-0.166,1.061,0.208
5.87,-0.132,0.774,0.114
5.88,-0.428,0.915,-0.174
5.89,-0.176,1.209,-0.115
5.9,-0.047,0.858,0.085
5.91,-0.176,1.011,0.144
5.92,-0.206,0.708,-0.054
5.93,-0.392,1.269,-0.24
5.94,-0.057,0.916,0.094
5.95,-0.089,1.016,0.131
5.96,-0.192,0.708,0.025
5.97,-0.413,1.207,-0.21
5.98,-0.107,1.04,-0.042
5.99,-0.16,0.872,0.222
6.0,-0.197,1.002,0.103
6.01,-0.369,0.717,-0.212
6.02,-0.25,1.317,-0.065
6.03,0.026,0.855,0.119
6.04,-0.242,0.948,0.162
6.05,-0.251,0.832,-0.038
6.06,-0.334,1.096,-0.205
6.07,-0.18,1.114,0.108
6.08,-0.017,0.726,0.128
6.09,-0.287,1.046,-0.03
6.1,-0.337,0.841,-0.164
6.11,-0.154,1.272,0.049
6.12,-0.243,0.739,0.244
6.13,-0.116,0.925,0.079
6.14,-0.344,1.002,-0.247
6.15,-0.163,0.997,-0.059
6.16,-0.105,1.128,0.122
6.17,-0.161,0.631,0.116
6.18,-0.27,1.142,-0.119
6.19,-0.285,0.895,-0.174
6.2,-0.099,1.21,0.101
6.21,-0.078,0.787,0.092
6.22,-0.256,0.831,0.038
6.23,-0.416,1.23,-0.175
6.24,-0.136,0.889,0.015
6.25,-0.201,1.116,0.168
6.26,-0.098,0.668,0.084
6.27,-0.427,1.184,-0.2
6.28,-0.222,0.999,-0.054
6.29,-0.096,1.0,0.081
6.3,-0.151,0.862,0.133
6.31,-0.29,0.799,-0.105
6.32,-0.29,1.236,-0.21
6.33,-0.027,0.876,0.128
6.34,-0.159,1.06,0.068
6.35,-0.162,0.678,-0.04
6.36,-0.318,1.263,-0.22
6.37,-0.122,0.939,-0.035
6.38,-0.155,0.919,0.25
6.39,-0.231,0.942,0.082
6.4,-0.417,0.797,-0.214
6.41,-0.122,1.313,-0.093
6.42,-0.047,0.736,0.085
6.43,-0.147,0.99,0.158
6.44,-0.281,0.76,-0.068
6.45,-0.381,1.188,-0.194
6.46,0.065,1.05,0.088
6.47,-0.155,0.744,0.132
6.48,-0.319,1.035,0.024
6.49,-0.319,0.885,-0.211
6.5,-0.204,1.276,0.02
6.51,-0.049,0.746,0.218
6.52,-0.217,0.943,0.043
6.53,-0.392,0.911,-0.178
6.54,-0.17,1.069,-0.104
6.55,-0.013,1.029,0.058
6.56,-0.198,0.683,0.209
6.57,-0.365,1.11,-0.109
6.58,-0.269,0.868,-0.175
6.59,-0.056,1.318,0.087
6.6,-0.09,0.644,0.112
6.61,-0.283,0.911,-0.004
6.62,-0.316,1.153,-0.206
6.63,-0.122,0.878,0.037
6.64,-0.136,1.091,0.205
6.65,-0.134,0.635,0.054
6.66,-0.527,1.214,-0.193
6.67,-0.05,0.924,-0.044
6.68,-0.151,1.102,0.101
6.69,-0.184,0.807,0.193
6.7,-0.357,0.851,-0.111
6.71,-0.359,1.202,-0.128
6.72,0.13,0.966,0.085
6.73,-0.213,1.018,0.067
6.74,-0.178,0.661,0.022
6.75,-0.343,1.345,-0.23
6.76,-0.202,0.942,0.078
6.77,-0.091,1.059,0.147
6.78,-0.285,0.717,0.053
6.79,-0.432,1.147,-0.145
6.8,-0.119,1.093,-0.101
6.81,-0.142,0.774,0.135
6.82,-0.107,1.038,0.115
6.83,-0.4,0.664,-0.207
6.84,-0.288,1.301,-0.037
6.85,0.001,0.888,0.132
6.86,-0.235,0.931,0.133
6.87,-0.238,0.83,-0.029
6.88,-0.376,1.088,-0.22
6.89,-0.101,1.129,0.025
6.9,-0.019,0.762,0.117
6.91,-0.252,1.017,0.008
6.92,-0.376,0.823,-0.119
6.93,-0.119,1.281,-0.085
6.94,-0.125,0.725,0.167
6.95,-0.144,0.945,0.111
6.96,-0.417,0.931,-0.234
6.97,-0.219,0.956,-0.026
6.98,-0.055,1.223,0.133
6.99,-0.236,0.597,0.122
7.0,-0.252,1.134,-0.028
7.01,-0.31,0.941,-0.229
7.02,-0.122,1.17,0.148
7.03,-0.092,0.829,0.136
7.04,-0.3,0.801,-0.003
7.05,-0.367,1.228,-0.208
7.06,-0.071,0.844,-0.104
7.07,-0.219,1.116,0.18
7.08,-0.03,0.664,0.131
7.09,-0.52,1.185,-0.188
7.1,-0.126,0.951,-0.07
7.11,-0.103,1.023,0.135
7.12,-0.212,0.878,0.173
7.13,-0.31,0.771,-0.06
7.14,-0.306,1.272,-0.261
7.15,-0.014,0.896,0.102
7.16,-0.238,1.086,0.138
7.17,-0.116,0.639,-0.013
7.18,-0.464,1.265,-0.192
7.19,-0.073,0.982,-0.044
7.2,-0.174,0.866,0.195
7.21,-0.173,1.018,0.092
7.22,-0.336,0.73,-0.215
7.23,-0.218,1.304,-0.083
7.24,0.025,0.812,0.113
7.25,-0.176,1.036,0.11
7.26,-0.247,0.767,-0.071
7.27,-0.35,1.126,-0.189
7.28,-0.047,1.156,0.125
7.29,-0.124,0.745,0.126
7.3,-0.207,0.993,0.004
7.31,-0.397,0.902,-0.178
7.32,-0.163,1.26,-0.01
7.33,-0.097,0.742,0.159
7.34,-0.168,0.962,0.074
7.35,-0.383,0.919,-0.192
7.36,-0.192,1.084,-0.069
7.37,-0.094,1.098,0.147
7.38,-0.164,0.642,0.118
7.39,-0.308,1.12,-0.104
7.4,-0.324,0.893,-0.143
7.41,-0.037,1.254,0.121
7.42,-0.15,0.704,0.13
7.43,-0.261,0.875,-0.008
7.44,-0.349,1.156,-0.172
7.45,-0.146,0.961,0.02
7.46,-0.2,1.079,0.228
7.47,-0.1,0.612,0.014
7.48,-0.457,1.215,-0.227
7.49,-0.035,0.966,-0.084
7.5,-0.122,1.029,0.156
7.51,-0.158,0.841,0.184
7.52,-0.297,0.907,-0.165
7.53,-0.358,1.194,-0.161
7.54,0.122,0.946,0.065
7.55,-0.215,1.034,0.109
7.56,-0.244,0.669,0.048
7.57,-0.356,1.298,-0.266
7.58,-0.098,0.937,0.038
7.59,-0.099,1.058,0.122
7.6,-0.218,0.684,0.028
7.61,-0.415,1.139,-0.152
7.62,-0.146,1.13,-0.083
7.63,-0.137,0.797,0.178
7.64,-0.119,1.081,0.081
7.65,-0.394,0.664,-0.206
7.66,-0.269,1.313,-0.085
7.67,0.023,0.915,0.094
7.68,-0.275,0.917,0.143
7.69,-0.146,0.844,-0.068
7.7,-0.382,1.054,-0.205
7.71,-0.022,1.244,0.122
7.72,-0.089,0.686,0.12
7.73,-0.379,1.04,0.049
7.74,-0.286,0.882,-0.179
7.75,-0.219,1.175,-0.106
7.76,-0.114,0.766,0.225
7.77,-0.099,0.885,0.03
7.78,-0.47,0.948,-0.239
7.79,-0.044,0.988,-0.051
7.8,-0.129,1.184,0.07
7.81,-0.137,0.612,0.184
7.82,-0.223,1.108,-0.085
7.83,-0.431,0.883,-0.17
7.84,-0.005,1.265,0.121
7.85,-0.241,0.851,0.113
7.86,-0.213,0.73,0.028
7.87,-0.265,1.322,-0.265
7.88,-0.121,0.812,-0.084
7.89,-0.167,1.097,0.238
7.9,-0.098,0.683,0.079
7.91,-0.55,1.065,-0.179
7.92,-0.083,1.03,-0.066
7.93,-0.079,1.006,0.089
7.94,-0.24,0.906,0.194
7.95,-0.211,0.787,-0.1
7.96,-0.377,1.191,-0.233
7.97,0.076,0.939,0.165
7.98,-0.184,1.12,0.095
7.99,-0.198,0.65,0.017
8.0,-0.261,1.234,-0.188
8.01,-0.272,1.026,-0.037
8.02,-0.184,0.795,0.285
8.03,-0.165,1.018,0.081
8.04,-0.474,0.713,-0.209
8.05,-0.148,1.367,-0.032
8.06,-0.051,0.812,0.073
8.07,-0.212,0.92,0.159
8.08,-0.153,0.837,-0.059
8.09,-0.398,1.111,-0.195
8.1,-0.094,1.131,0.11
8.11,-0.087,0.782,0.119
8.12,-0.323,1.018,0.002
8.13,-0.288,0.882,-0.184
8.14,-0.189,1.237,-0.062
8.15,-0.069,0.671,0.198
8.16,-0.122,0.996,0.097
8.17,-0.429,0.893,-0.23
8.18,-0.157,1.002,-0.028
8.19,-0.133,1.191,0.117
8.2,-0.186,0.581,0.152
8.21,-0.327,1.141,-0.053
8.22,-0.423,0.896,-0.192
8.23,-0.14,1.172,0.146
8.24,-0.172,0.798,0.133
8.25,-0.279,0.834,0.036
8.26,-0.239,1.204,-0.228
8.27,-0.153,0.857,-0.065
8.28,-0.161,1.07,0.175
8.29,-0.037,0.704,0.08
8.3,-0.511,1.11,-0.224
8.31,-0.134,0.951,-0.055
8.32,-0.049,1.142,0.138
8.33,-0.251,0.804,0.151
8.34,-0.217,0.82,-0.032
8.35,-0.337,1.249,-0.255
8.36,-0.075,0.922,0.121
8.37,-0.054,1.104,0.082
8.38,-0.235,0.632,0.003
8.39,-0.392,1.275,-0.144
8.4,-0.129,0.784,-0.094
8.41,-0.215,1.052,0.278
8.42,-0.132,0.789,0.07
8.43,-0.495,0.901,-0.21
8.44,-0.082,1.191,-0.079
8.45,-0.05,0.834,0.129
8.46,-0.249,1.035,0.167
8.47,-0.156,0.696,-0.103
8.48,-0.363,1.222,-0.219
8.49,-0.009,0.961,0.147
8.5,-0.164,0.988,0.125
8.51,-0.293,0.842,-0.005
8.52,-0.314,0.971,-0.186
8.53,-0.201,1.218,-0.043
8.54,-0.118,0.717,0.264
8.55,-0.239,1.066,0.102
8.56,-0.435,0.729,-0.201
8.57,-0.118,1.291,-0.093
8.58,0.003,0.87,0.073
8.59,-0.251,0.83,0.219
8.6,-0.323,0.962,-0.063
8.61,-0.347,0.881,-0.183
8.62,0.019,1.334,0.114
8.63,-0.111,0.605,0.126
8.64,-0.366,1.012,0.058
8.65,-0.318,0.943,-0.205
8.66,-0.127,1.049,-0.068
8.67,-0.078,0.934,0.167
8.68,-0.053,0.815,0.063
8.69,-0.458,1.101,-0.194
8.7,-0.154,0.912,-0.055
8.71,-0.184,1.196,0.141
8.72,-0.156,0.682,0.199
8.73,-0.324,1.05,-0.098
8.74,-0.399,0.932,-0.148
8.75,-0.005,1.121,0.138
8.76,-0.213,1.003,0.092
8.77,-0.19,0.64,0.0
8.78,-0.349,1.41,-0.184
8.79,-0.182,0.84,-0.059
8.8,-0.168,1.092,0.177
8.81,-0.123,0.725,0.083
8.82,-0.49,0.968,-0.191
8.83,-0.143,1.092,-0.071
8.84,-0.044,0.955,0.122
8.85,-0.205,0.974,0.141
8.86,-0.168,0.737,-0.049
8.87,-0.462,1.302,-0.243
8.88,0.016,0.848,0.063
8.89,-0.024,1.085,0.105
8.9,-0.259,0.733,-0.033
8.91,-0.357,1.025,-0.124
8.92,-0.147,1.216,-0.003
8.93,-0.232,0.711,0.246
8.94,-0.136,1.063,0.061
8.95,-0.384,0.761,-0.263
8.96,-0.14,1.274,-0.097
8.97,0.071,0.874,0.079
8.98,-0.293,0.879,0.172
8.99,-0.229,0.919,-0.077
9.0,-0.306,1.014,-0.2
9.01,0.02,1.25,0.088
9.02,-0.087,0.623,0.138
9.03,-0.415,1.061,0.042
9.04,-0.339,0.868,-0.189
9.05,-0.134,1.171,-0.03
9.06,-0.141,0.861,0.185
9.07,-0.085,0.843,0.083
9.08,-0.391,1.095,-0.181
9.09,-0.142,0.992,-0.061
9.1,-0.094,1.124,0.131
9.11,-0.195,0.691,0.176
9.12,-0.365,1.067,-0.131
9.13,-0.273,0.881,-0.204
9.14,-0.056,1.187,0.121
9.15,-0.131,0.844,0.135
9.16,-0.227,0.782,-0.011
9.17,-0.347,1.314,-0.203
9.18,-0.12,0.797,-0.007
9.19,-0.189,1.114,0.182
9.2,-0.086,0.68,0.07
9.21,-0.465,1.219,-0.213
9.22,-0.123,0.934,-0.059
9.23,-0.062,1.102,0.154
9.24,-0.202,0.808,0.131
9.25,-0.356,0.856,-0.145
9.26,-0.206,1.209,-0.179
9.27,0.06,0.972,0.103
9.28,-0.255,1.008,0.15
9.29,-0.21,0.663,-0.002
9.3,-0.379,1.301,-0.231
9.31,-0.051,0.934,0.002
9.32,-0.067,0.997,0.167
9.33,-0.254,0.875,0.032
9.34,-0.414,0.89,-0.175
9.35,-0.155,1.296,-0.054
9.36,-0.079,0.688,0.147
9.37,-0.242,1.073,0.165
9.38,-0.347,0.702,-0.166
9.39,-0.263,1.159,-0.19
9.4,0.099,1.021,0.093
9.41,-0.153,0.806,0.115
9.42,-0.28,0.938,0.007
9.43,-0.352,0.957,-0.193
9.44,-0.146,1.268,0.002
9.45,-0.094,0.683,0.188
9.46,-0.237,0.984,0.015
9.47,-0.315,0.888,-0.222
9.48,-0.131,1.158,-0.05
9.49,-0.095,0.922,0.122
9.5,-0.169,0.737,0.159
9.51,-0.417,1.081,-0.178
9.52,-0.162,0.849,-0.172
9.53,0.023,1.344,0.125
9.54,-0.182,0.647,0.141
9.55,-0.286,0.982,0.031
9.56,-0.348,1.073,-0.195
9.57,-0.168,0.981,0.026
9.58,-0.041,0.945,0.127
9.59,-0.208,0.695,0.018
9.6,-0.49,1.248,-0.167
9.61,-0.026,0.885,-0.078
9.62,-0.421,1.113,-0.185
9.63,-0.277,0.899,-0.077
9.64,-0.016,1.232,0.106
9.65,-0.212,0.71,0.134
9.66,-0.233,0.926,-0.006
9.67,-0.337,1.201,-0.259
9.68,-0.101,0.87,0.079
9.69,-0.035,1.149,0.142
9.7,-0.238,0.626,0.042
9.71,-0.428,1.264,-0.167
9.72,-0.101,0.952,-0.056
9.73,-0.198,0.962,0.187
9.74,-0.149,0.877,0.146
9.75,-0.446,0.83,-0.193
9.76,-0.209,1.215,-0.123
9.77,0.044,0.861,0.119
9.78,-0.22,1.03,0.16
9.79,-0.227,0.688,-0.0
9.8,-0.391,1.302,-0.185
9.81,-0.112,0.975,0.073
9.82,-0.114,0.898,0.152
9.83,-0.243,0.875,0.029
9.84,-0.383,0.893,-0.174
9.85,-0.115,1.302,-0.069
9.86,-0.052,0.67,0.169
9.87,-0.176,1.064,0.082
9.88,-0.392,0.71,-0.168
9.89,-0.281,1.195,-0.087
9.9,0.027,1.014,0.109
9.91,-0.164,0.74,0.136
9.92,-0.319,1.08,-0.02
9.93,-0.322,0.914,-0.192
9.94,-0.115,1.256,0.065
9.95,-0.031,0.701,0.137
9.96,-0.354,1.047,0.001
9.97,-0.307,0.9,-0.173
9.98,-0.162,1.208,0.014
9.99,-0.203,0.784,0.225
10.0,-0.129,0.852,0.059
10.01,-0.421,1.068,-0.217
10.02,-0.057,0.967,-0.094
10.03,-0.098,1.139,0.116
10.04,-0.24,0.612,0.18
10.05,-0.309,1.118,-0.109
10.06,-0.329,0.953,-0.185
10.07,0.01,1.133,0.15
10.08,-0.106,0.834,0.125
10.09,-0.317,0.758,0.019
10.1,-0.328,1.263,-0.197
10.11,-0.073,0.895,0.013
10.12,-0.252,1.135,0.209
10.13,-0.068,0.646,0.055
10.14,-0.496,1.204,-0.213
10.15,-0.102,1.048,-0.076
10.16,-0.11,0.911,0.122
10.17,-0.22,0.931,0.187
10.18,-0.323,0.751,-0.135
10.19,-0.28,1.265,-0.14
10.2,0.041,0.912,0.126
10.21,-0.184,0.997,0.142
10.22,-0.206,0.731,0.015
10.23,-0.413,1.2,-0.21
10.24,-0.12,1.054,0.015
10.25,-0.073,0.855,0.183
10.26,-0.219,0.961,0.024
10.27,-0.365,0.811,-0.129
10.28,-0.225,1.321,-0.094
10.29,-0.065,0.674,0.137
10.3,-0.17,1.058,0.163
10.31,-0.406,0.789,-0.167
10.32,-0.271,1.017,-0.083
10.33,-0.014,1.237,0.11
10.34,-0.171,0.639,0.111
10.35,-0.271,1.096,0.018
10.36,-0.359,0.909,-0.263
10.37,-0.133,1.167,0.08
10.38,-0.052,0.834,0.179
10.39,-0.243,0.866,-0.013
10.4,-0.336,1.003,-0.163
10.41,-0.111,1.064,-0.079
10.42,-0.139,0.978,0.136
10.43,-0.057,0.721,0.161
10.44,-0.509,1.108,-0.15
10.45,-0.299,0.922,-0.068
10.46,0.033,1.263,0.13
10.47,-0.172,0.731,0.1
10.48,-0.293,0.849,0.021
10.49,-0.329,1.228,-0.243
10.5,-0.18,0.872,0.096
10.51,-0.123,1.083,0.134
10.52,-0.152,0.608,-0.04
10.53,-0.417,1.252,-0.182
10.54,-0.053,0.972,-0.071
10.55,-0.211,0.961,0.153
10.56,-0.083,0.919,0.12
10.57,-0.411,0.844,-0.22
10.58,-0.171,1.248,-0.108
10.59,-0.015,0.845,0.133
10.6,-0.275,1.047,0.156
10.61,-0.101,0.691,-0.067
10.62,-0.408,1.221,-0.216
10.63,-0.123,0.952,0.157
10.64,-0.031,0.929,0.133
10.65,-0.291,0.918,0.02
10.66,-0.349,0.94,-0.176
10.67,-0.168,1.301,-0.005
10.68,-0.194,0.712,0.179
10.69,-0.184,1.043,0.149
10.7,-0.336,0.792,-0.183
10.71,-0.332,1.179,-0.073
10.72,0.006,1.003,0.098
10.73,-0.166,0.706,0.115
10.74,-0.214,1.06,-0.025
10.75,-0.362,0.922,-0.237
10.76,-0.126,1.222,0.095
10.77,-0.092,0.692,0.091
10.78,-0.258,1.003,-0.003
10.79,-0.329,0.936,-0.159
10.8,-0.148,1.183,-0.026
10.81,-0.139,0.78,0.148
10.82,-0.138,0.85,0.079
10.83,-0.385,1.042,-0.22
10.84,-0.247,0.964,-0.023
10.85,-0.073,1.178,0.117
10.86,-0.152,0.646,0.135
10.87,-0.234,1.101,-0.096
10.88,-0.354,0.975,-0.199
10.89,0.007,1.098,0.115
10.9,-0.084,0.906,0.127
10.91,-0.316,0.715,-0.017
10.92,-0.336,1.262,-0.191
10.93,-0.127,0.84,-0.027
10.94,-0.168,1.135,0.186
10.95,-0.038,0.723,0.046
10.96,-0.546,1.095,-0.18
10.97,-0.044,1.057,-0.089
10.98,-0.07,0.971,0.1
10.99,-0.208,0.942,0.173
11.0,-0.273,0.708,-0.1
11.01,-0.369,1.293,-0.214
11.02,0.06,0.939,0.161
11.03,-0.236,1.043,0.102
11.04,-0.279,0.7,0.03
11.05,-0.261,1.186,-0.189
11.06,-0.161,1.094,-0.006
11.07,-0.086,0.775,0.237
11.08,-0.179,1.018,0.052
11.09,-0.415,0.758,-0.217
11.1,-0.125,1.325,-0.085
11.11,-0.028,0.768,0.089
11.12,-0.218,0.994,0.15
11.13,-0.291,0.826,-0.135
11.14,-0.365,1.025,-0.132
11.15,0.03,1.261,0.119
11.16,-0.134,0.61,0.118
11.17,-0.32,1.047,0.014
11.18,-0.304,0.939,-0.246
11.19,-0.143,1.174,-0.02
11.2,-0.054,0.796,0.204
11.21,-0.154,0.88,-0.006
11.22,-0.438,1.046,-0.192
11.23,-0.08,0.987,-0.053
11.24,-0.197,1.099,0.163
11.25,-0.145,0.673,0.222
11.26,-0.421,1.147,-0.181
11.27,-0.282,0.881,-0.172
11.28,0.04,1.212,0.139
11.29,-0.162,0.8,0.136
11.3,-0.331,0.819,-0.007
11.31,-0.276,1.245,-0.289
11.32,-0.098,0.86,0.019
11.33,-0.105,1.123,0.193
11.34,-0.206,0.626,0.065
11.35,-0.56,1.174,-0.164
11.36,-0.04,0.971,-0.092
11.37,-0.12,0.974,0.145
11.38,-0.159,0.939,0.175
11.39,-0.322,0.782,-0.186
11.4,-0.342,1.244,-0.073
11.41,0.049,0.883,0.091
11.42,-0.161,1.057,0.097
11.43,-0.213,0.721,-0.019
11.44,-0.384,1.225,-0.213
11.45,-0.152,1.0,0.083
11.46,-0.092,0.859,0.152
11.47,-0.267,0.928,0.011
11.48,-0.31,0.865,-0.212
11.49,-0.143,1.294,-0.042
11.5,-0.141,0.699,0.202
11.51,-0.25,1.014,0.132
11.52,-0.378,0.802,-0.219
11.53,-0.114,1.144,-0.191
11.54,-0.04,1.024,0.135
11.55,-0.179,0.765,0.162
11.56,-0.279,1.039,-0.091
11.57,-0.287,0.844,-0.178
11.58,-0.021,1.329,0.085
11.59,-0.207,0.571,0.129
11.6,-0.291,1.062,0.043
11.61,-0.274,0.98,-0.281
11.62,-0.169,1.144,0.004
11.63,-0.05,0.858,0.151
11.64,-0.209,0.756,0.024
11.65,-0.421,1.154,-0.143
11.66,-0.187,0.958,-0.071
11.67,-0.103,1.042,0.155
11.68,-0.127,0.728,0.178
11.69,-0.374,1.083,-0.175
11.7,-0.28,0.978,-0.141
11.71,-0.018,1.136,0.149
11.72,-0.19,0.837,0.102
11.73,-0.228,0.734,-0.011
11.74,-0.393,1.338,-0.254
11.75,-0.086,0.797,0.035
11.76,-0.141,1.143,0.175
11.77,-0.133,0.676,0.01
11.78,-0.495,1.115,-0.195
11.79,-0.029,1.103,-0.111
11.8,-0.062,0.812,0.136
11.81,-0.16,1.034,0.131
11.82,-0.328,0.717,-0.189
11.83,-0.329,1.342,-0.038
11.84,-0.056,0.888,0.189
11.85,-0.223,0.974,0.122
11.86,-0.258,0.788,-0.003
11.87,-0.34,1.133,-0.229
11.88,-0.107,1.147,0.084
11.89,-0.069,0.724,0.122
11.9,-0.269,1.014,-0.037
11.91,-0.33,0.83,-0.173
11.92,-0.141,1.262,-0.059
11.93,-0.097,0.726,0.167
11.94,-0.185,0.968,0.102
11.95,-0.398,0.896,-0.195
11.96,-0.236,1.021,-0.027
11.97,-0.001,1.167,0.153
11.98,-0.193,0.634,0.096
11.99,-0.29,1.124,-0.054
12.0,-0.322,0.929,-0.185
12.01,-0.095,1.215,0.138
12.02,-0.148,0.754,0.162
12.03,-0.209,0.829,-0.046
12.04,-0.36,1.211,-0.21
12.05,-0.109,0.925,0.035
12.06,-0.208,1.068,0.174
12.07,-0.126,0.662,0.07
12.08,-0.472,1.198,-0.2
12.09,-0.191,0.919,-0.104
12.1,-0.077,1.019,0.153
12.11,-0.153,0.865,0.119
12.12,-0.342,0.809,-0.126
12.13,-0.244,1.225,-0.129
12.14,-0.015,0.969,0.138
12.15,-0.224,0.984,0.104
12.16,-0.173,0.711,-0.024
12.17,-0.401,1.306,-0.26
12.18,-0.061,0.94,0.018
12.19,-0.177,0.936,0.232
12.2,-0.173,0.881,0.004
12.21,-0.366,0.834,-0.256
12.22,-0.118,1.33,-0.07
12.23,-0.076,0.697,0.181
12.24,-0.269,1.061,0.153
12.25,-0.366,0.718,-0.159
12.26,-0.266,1.16,-0.149
12.27,0.002,1.056,0.148
12.28,-0.169,0.762,0.147
12.29,-0.365,1.01,-0.032
12.3,-0.316,0.93,-0.174
12.31,-0.112,1.309,0.066
12.32,-0.065,0.655,0.165
12.33,-0.29,0.979,0.012
12.34,-0.445,0.963,-0.201
12.35,-0.158,1.093,0.015
12.36,-0.12,0.963,0.159
12.37,-0.127,0.686,0.069
12.38,-0.434,1.202,-0.168
12.39,-0.142,0.936,-0.091
12.4,-0.043,1.126,0.149
12.41,-0.098,0.658,0.112
12.42,-0.406,1.124,-0.153
12.43,-0.225,1.009,-0.171
12.44,0.026,1.113,0.123
12.45,-0.125,0.858,0.121
12.46,-0.326,0.782,-0.031
12.47,-0.391,1.262,-0.198
12.48,0.045,0.863,0.037
12.49,-0.193,1.094,0.139
12.5,-0.173,0.625,0.021
12.51,-0.555,1.212,-0.222
12.52,0.001,0.99,-0.073
12.53,-0.108,0.926,0.158
12.54,-0.094,0.946,0.062
12.55,-0.395,0.767,-0.207
12.56,-0.218,1.314,-0.042
12.57,-0.068,0.813,0.188
12.58,-0.271,1.014,0.106
12.59,-0.255,0.745,-0.125
12.6,-0.267,1.238,-0.138
12.61,-0.112,1.083,0.143
12.62,-0.156,0.702,0.122
12.63,-0.27,1.008,-0.056
12.64,-0.325,0.922,-0.179
12.65,-0.052,1.305,0.019
12.66,-0.143,0.64,0.191
12.67,-0.183,0.971,-0.008
12.68,-0.409,0.969,-0.228
12.69,-0.071,1.069,-0.019
12.7,-0.135,0.95,0.154
12.71,-0.143,0.711,0.117
12.72,-0.481,1.142,-0.221
12.73,-0.156,0.917,-0.086
12.74,-0.048,1.172,0.176
12.75,-0.199,0.699,0.173
12.76,-0.411,0.956,-0.085
12.77,-0.314,1.142,-0.17
12.78,0.011,1.007,0.12
12.79,-0.219,1.013,0.136
12.8,-0.192,0.685,-0.016
12.81,-0.422,1.358,-0.225
12.82,-0.08,0.842,0.037
12.83,-0.088,1.051,0.192
12.84,-0.199,0.754,-0.007
12.85,-0.38,0.959,-0.258
12.86,-0.045,1.223,-0.078
12.87,-0.041,0.719,0.189
12.88,-0.185,1.054,0.131
12.89,-0.408,0.639,-0.159
12.9,-0.253,1.33,-0.031
12.91,-0.031,0.93,0.128
12.92,-0.184,0.83,0.092
12.93,-0.252,0.886,-0.131
12.94,-0.27,1.101,-0.192
12.95,0.033,1.251,0.138
12.96,-0.094,0.621,0.142
12.97,-0.43,1.095,0.035
12.98,-0.296,0.935,-0.195
12.99,-0.08,1.225,0.061
13.0,-0.189,0.751,0.169
13.01,-0.178,0.835,0.043
13.02,-0.495,1.177,-0.285
13.03,-0.015,0.854,-0.029
13.04,-0.12,1.134,0.172
13.05,-0.157,0.643,0.087
13.06,-0.442,1.137,-0.185
13.07,-0.219,1.013,-0.037
13.08,-0.073,1.005,0.16
13.09,-0.166,0.862,0.139
13.1,-0.316,0.82,-0.123
13.11,-0.353,1.307,-0.14
13.12,0.045,0.918,0.137
13.13,-0.179,1.028,0.131
13.14,-0.239,0.664,-0.019
13.15,-0.397,1.287,-0.181
13.16,-0.111,1.011,0.056
13.17,-0.136,0.849,0.171
13.18,-0.16,0.93,-0.034
13.19,-0.392,0.882,-0.217
13.2,-0.118,1.26,-0.042
13.21,-0.008,0.783,0.121
13.22,-0.243,1.007,0.029
13.23,-0.398,0.715,-0.12
13.24,-0.269,1.335,0.015
13.25,-0.103,0.785,0.205
13.26,-0.174,0.883,0.109
13.27,-0.359,0.957,-0.177
13.28,-0.232,1.062,-0.105
13.29,-0.04,1.156,0.089
13.3,-0.098,0.588,0.178
13.31,-0.423,1.116,-0.066
13.32,-0.235,0.964,-0.193
13.33,-0.105,1.192,0.085
13.34,-0.145,0.72,0.178
13.35,-0.152,0.818,-0.044
13.36,-0.489,1.263,-0.221
13.37,0.033,0.859,0.037
13.38,-0.219,1.144,0.172
13.39,-0.089,0.657,0.113
13.4,-0.505,1.196,-0.249
13.41,-0.067,0.944,-0.078
13.42,-0.047,0.994,0.146
13.43,-0.227,0.896,0.1
13.44,-0.369,0.753,-0.144
13.45,-0.272,1.357,-0.05
13.46,-0.024,0.85,0.167
13.47,-0.19,1.004,0.109
13.48,-0.259,0.692,-0.115
13.49,-0.234,1.261,-0.245
13.5,0.041,1.054,0.11
13.51,-0.202,0.781,0.216
13.52,-0.308,0.961,0.01
13.53,-0.415,0.896,-0.22
13.54,-0.092,1.285,0.02
13.55,-0.059,0.742,0.151
13.56,-0.217,0.995,0.038
13.57,-0.402,0.87,-0.147
13.58,-0.209,1.173,-0.042
13.59,-0.135,0.897,0.184
13.6,-0.107,0.739,0.094
13.61,-0.423,1.124,-0.182
13.62,-0.222,0.953,-0.02
13.63,-0.157,1.169,0.196
13.64,-0.203,0.68,0.206
13.65,-0.372,0.988,-0.098
13.66,-0.329,1.042,-0.219
13.67,0.053,1.098,0.065
13.68,-0.074,0.976,0.056
13.69,-0.196,0.669,0.048
13.7,-0.42,1.347,-0.194
13.71,-0.125,0.874,0.013
13.72,-0.081,1.078,0.084
13.73,-0.142,0.711,-0.012
13.74,-0.406,1.04,-0.174
13.75,-0.189,1.143,-0.093
13.76,-0.094,0.834,0.183
13.77,-0.053,1.031,0.057
13.78,-0.332,0.679,-0.197
13.79,-0.232,1.356,-0.082
13.8,0.037,0.884,0.119
13.81,-0.281,0.945,0.162
13.82,-0.271,0.842,-0.064
13.83,-0.357,1.077,-0.217
13.84,0.019,1.228,0.041
13.85,-0.117,0.66,0.135
13.86,-0.298,1.048,0.047
13.87,-0.393,0.897,-0.222
13.88,-0.13,1.216,-0.04
13.89,-0.09,0.825,0.139
13.9,-0.116,0.862,0.039
13.91,-0.448,1.021,-0.169
13.92,-0.16,1.014,-0.082
13.93,-0.132,1.073,0.12
13.94,-0.147,0.649,0.167
13.95,-0.375,1.087,-0.149
13.96,-0.249,0.922,-0.149
13.97,-0.037,1.225,0.136
13.98,-0.114,0.753,0.111
13.99,-0.296,0.856,-0.005
14.0,-0.389,1.271,-0.261
14.01,-0.057,0.842,0.007
14.02,-0.08,1.029,0.118
14.03,-0.108,0.645,-0.08
14.04,-0.4,1.32,-0.17
14.05,-0.088,0.87,0.01
14.06,-0.182,1.115,0.202
14.07,-0.173,0.719,0.079
14.08,-0.48,1.01,-0.164
14.09,-0.04,1.219,-0.144
14.1,-0.079,0.826,0.046
14.11,-0.092,1.046,0.161
14.12,-0.279,0.664,-0.117
14.13,-0.415,1.314,-0.148
14.14,0.063,0.969,0.11
14.15,-0.301,0.917,0.1
14.16,-0.174,0.837,0.005
14.17,-0.287,1.051,-0.276
14.18,-0.192,1.175,0.071
14.19,-0.045,0.736,0.175
14.2,-0.247,0.995,-0.013
14.21,-0.302,0.805,-0.198
14.22,-0.172,1.298,-0.067
14.23,-0.164,0.782,0.233
14.24,-0.128,0.931,0.136
14.25,-0.378,0.944,-0.215
14.26,-0.251,0.964,-0.02
14.27,-0.068,1.274,0.155
14.28,-0.225,0.588,0.158
14.29,-0.285,1.097,0.012
14.3,-0.331,0.883,-0.241
14.31,-0.168,1.198,0.14
14.32,-0.045,0.898,0.107
14.33,-0.272,0.767,0.013
14.34,-0.334,1.242,-0.137
14.35,-0.133,0.93,-0.029
14.36,-0.227,1.066,0.209
14.37,-0.096,0.696,0.08
14.38,-0.485,1.116,-0.218
14.39,-0.15,1.011,-0.074
14.4,-0.079,1.005,0.109
14.41,-0.188,0.861,0.181
14.42,-0.289,0.808,-0.087
14.43,-0.365,1.218,-0.208
14.44,0.05,0.932,0.088
14.45,-0.146,1.083,0.117
14.46,-0.281,0.661,0.053
14.47,-0.398,1.214,-0.196
14.48,-0.195,1.032,-0.014
14.49,-0.045,0.9,0.152
14.5,-0.167,0.966,0.011
14.51,-0.415,0.786,-0.152
14.52,-0.177,1.363,-0.077
14.53,-0.068,0.725,0.091
14.54,-0.116,1.043,0.134
14.55,-0.28,0.804,-0.176
14.56,-0.413,1.117,-0.084
14.57,-0.059,1.144,0.16
14.58,-0.161,0.687,0.074
14.59,-0.273,1.058,0.011
14.6,-0.344,0.888,-0.19
14.61,-0.223,1.283,0.116
14.62,-0.105,0.746,0.132
14.63,-0.197,0.906,-0.056
14.64,-0.324,1.006,-0.165
14.65,-0.157,1.048,-0.079
14.66,-0.152,0.97,0.142
14.67,-0.024,0.754,0.061
14.68,-0.448,1.124,-0.195
14.69,-0.246,0.87,-0.044
14.7,-0.033,1.245,0.136
14.71,-0.306,0.686,0.184
14.72,-0.224,0.951,-0.046
14.73,-0.307,1.155,-0.275
14.74,-0.099,0.928,0.149
14.75,-0.149,1.097,0.147
14.76,-0.208,0.604,-0.002
14.77,-0.39,1.303,-0.188
14.78,-0.084,0.935,-0.071
14.79,-0.208,0.999,0.188
14.8,-0.045,0.832,0.078
14.81,-0.421,0.881,-0.194
14.82,-0.193,1.272,-0.076
14.83,-0.063,0.861,0.117
14.84,-0.176,1.002,0.206
14.85,-0.319,0.695,-0.127
14.86,-0.348,1.271,-0.229
14.87,0.108,0.935,0.065
14.88,-0.186,1.016,0.118
14.89,-0.276,0.754,0.044
14.9,-0.352,1.104,-0.238
14.91,-0.108,1.121,-0.039
14.92,0.016,0.832,0.158
14.93,-0.197,1.0,0.034
14.94,-0.416,0.792,-0.13
14.95,-0.178,1.325,-0.111
14.96,-0.083,0.75,0.144
14.97,-0.219,0.995,0.199
14.98,-0.363,0.841,-0.143
14.99,-0.303,0.994,-0.073
15.0,-0.045,1.283,0.099
15.01,-0.181,0.55,0.107
15.02,-0.219,1.08,0.013
15.03,-0.364,0.932,-0.227
15.04,-0.2,1.207,0.09
15.05,-0.113,0.802,0.116
15.06,-0.166,0.814,-0.045
15.07,-0.356,1.183,-0.165
15.08,-0.202,0.95,-0.057
15.09,-0.126,1.05,0.14
15.1,0.032,0.709,0.089
15.11,-0.384,1.11,-0.191
15.12,-0.305,0.946,-0.017
15.13,-0.094,1.143,0.111
15.14,-0.176,0.793,0.167
15.15,-0.243,0.819,-0.047
15.16,-0.404,1.235,-0.259
15.17,-0.053,0.882,0.11
15.18,-0.115,1.191,0.089
15.19,-0.153,0.594,-0.033
15.2,-0.311,1.232,-0.176
15.21,-0.132,0.997,-0.064
15.22,-0.233,0.875,0.204
15.23,-0.1,0.994,0.116
15.24,-0.401,0.756,-0.237
15.25,-0.264,1.277,-0.061
15.26,0.021,0.808,0.114
15.27,-0.234,1.033,0.173
15.28,-0.212,0.752,-0.041
15.29,-0.311,1.141,-0.25
15.3,-0.104,1.057,0.168
15.31,-0.128,0.788,0.167
15.32,-0.252,0.984,0.005
15.33,-0.359,0.892,-0.211
15.34,-0.123,1.232,-0.09
15.35,-0.11,0.758,0.213
15.36,-0.165,1.003,0.033
15.37,-0.356,0.813,-0.187
15.38,-0.152,1.148,-0.124
15.39,0.014,1.019,0.07
15.4,-0.176,0.715,0.204
15.41,-0.344,1.074,-0.085
15.42,-0.257,0.857,-0.238
15.43,-0.01,1.319,0.116
15.44,-0.119,0.682,0.139
15.45,-0.271,0.94,0.064
15.46,-0.413,1.073,-0.24
15.47,-0.059,0.94,-0.059
15.48,-0.111,1.129,0.166
15.49,-0.105,0.613,0.067
15.5,-0.492,1.173,-0.152
15.51,-0.122,0.971,-0.085
15.52,-0.081,1.066,0.118
15.53,-0.187,0.791,0.185
15.54,-0.325,0.899,-0.112
15.55,-0.3,1.098,-0.189
15.56,-0.069,1.028,0.168
15.57,-0.187,1.033,0.112
15.58,-0.187,0.66,0.007
15.59,-0.402,1.349,-0.255
15.6,-0.023,0.845,-0.074
15.61,-0.045,1.074,0.186
15.62,-0.145,0.837,0.044
15.63,-0.383,0.853,-0.17
15.64,-0.142,1.142,-0.074
15.65,-0.048,0.833,0.105
15.66,-0.246,1.023,0.15
15.67,-0.25,0.714,-0.126
15.68,-0.376,1.29,-0.149
15.69,0.072,0.936,0.14
15.7,-0.122,1.033,0.06
15.71,-0.332,0.728,0.0
15.72,-0.264,1.106,-0.169
15.73,-0.06,1.187,0.02
15.74,-0.19,0.698,0.215
15.75,-0.134,0.999,0.02
15.76,-0.419,0.755,-0.211
15.77,-0.171,1.347,-0.025
15.78,-0.089,0.793,0.172
15.79,-0.265,0.916,0.181
15.8,-0.325,0.92,-0.155
15.81,-0.294,1.017,-0.138
15.82,0.033,1.229,0.103
15.83,-0.133,0.604,0.068
15.84,-0.304,1.088,0.012
15.85,-0.305,0.968,-0.179
15.86,-0.266,1.192,0.067
15.87,-0.057,0.727,0.169
15.88,-0.227,0.869,-0.027
15.89,-0.433,1.122,-0.166
15.9,-0.156,0.922,-0.032
15.91,-0.212,1.074,0.14
15.92,-0.056,0.689,0.141
15.93,-0.465,1.165,-0.209
15.94,-0.223,0.945,-0.067
15.95,-0.065,1.123,0.128
15.96,-0.206,0.807,0.18
15.97,-0.22,0.792,-0.074
15.98,-0.345,1.308,-0.173
15.99,-0.103,0.872,0.108
16.0,-0.139,1.069,0.148
16.01,-0.115,0.662,0.015
16.02,-0.495,1.292,-0.202
16.03,-0.075,0.962,-0.063
16.04,-0.122,0.994,0.156
16.05,-0.175,0.901,0.099
16.06,-0.332,0.751,-0.171
16.07,-0.25,1.367,-0.078
16.08,-0.018,0.765,0.115
16.09,-0.19,1.067,0.161
16.1,-0.26,0.726,-0.058
16.11,-0.365,1.137,-0.243
16.12,0.046,1.103,0.086
16.13,-0.092,0.793,0.105
16.14,-0.307,0.999,0.027
16.15,-0.324,0.883,-0.178
16.16,-0.148,1.239,-0.043
16.17,-0.056,0.756,0.218
16.18,-0.219,0.996,0.052
16.19,-0.436,0.86,-0.151
16.2,-0.167,1.142,-0.089
16.21,-0.056,1.015,0.045
16.22,-0.109,0.69,0.168
16.23,-0.34,1.106,-0.073
16.24,-0.325,0.827,-0.151
16.25,0.004,1.287,0.078
16.26,-0.089,0.68,0.122
16.27,-0.322,0.898,0.074
16.28,-0.326,1.088,-0.239
16.29,-0.157,0.997,-0.021
16.3,-0.115,1.086,0.156
16.31,-0.038,0.642,0.024
16.32,-0.5,1.261,-0.123
16.33,-0.166,0.954,-0.07
16.34,-0.08,1.036,0.112
16.35,-0.09,0.827,0.165
16.36,-0.392,0.861,-0.131
16.37,-0.29,1.173,-0.14
16.38,0.059,1.011,0.045
16.39,-0.223,0.985,0.076
16.4,-0.131,0.691,0.042
16.41,-0.482,1.348,-0.198
16.42,-0.144,0.874,0.042
16.43,-0.044,1.053,0.162
16.44,-0.21,0.83,0.011
16.45,-0.281,1.145,-0.211
16.46,-0.177,1.072,-0.093
16.47,-0.113,0.837,0.249
16.48,-0.174,1.047,0.122
16.49,-0.346,0.665,-0.216
16.5,-0.122,1.361,-0.081
16.51,-0.069,0.901,0.151
16.52,-0.226,0.902,0.15
16.53,-0.114,0.827,-0.08
16.54,-0.383,1.055,-0.211
16.55,-0.03,1.172,0.078
16.56,-0.146,0.764,0.112
16.57,-0.167,1.004,0.002
16.58,-0.313,0.885,-0.181
16.59,-0.265,1.23,-0.004
16.6,-0.128,0.729,0.217
16.61,-0.196,0.962,0.104
16.62,-0.331,0.907,-0.251
16.63,-0.208,1.003,-0.078
16.64,-0.094,1.215,0.125
16.65,-0.153,0.578,0.09
16.66,-0.201,1.124,-0.023
16.67,-0.38,0.925,-0.202
16.68,-0.186,1.203,0.138
16.69,-0.112,0.813,0.12
16.7,-0.268,0.807,0.035
16.71,-0.28,1.17,-0.203
16.72,-0.151,0.9,-0.072
16.73,-0.216,1.08,0.177
16.74,-0.031,0.696,0.094
16.75,-0.501,1.058,-0.189
16.76,-0.184,0.974,-0.051
16.77,-0.033,1.16,0.107
16.78,-0.243,0.793,0.115
16.79,-0.198,0.829,-0.007
16.8,-0.384,1.321,-0.229
16.81,-0.132,0.862,0.139
16.82,-0.119,1.114,0.135
16.83,-0.242,0.682,0.03
16.84,-0.384,1.212,-0.19
16.85,-0.186,0.959,-0.06
16.86,-0.149,0.93,0.225
16.87,-0.218,0.994,0.122
16.88,-0.41,0.734,-0.141
16.89,-0.2,1.356,-0.133
16.9,-0.062,0.784,0.09
16.91,-0.236,1.006,0.176
16.92,-0.145,0.742,-0.084
16.93,-0.385,1.16,-0.177
16.94,-0.058,1.073,0.1
16.95,-0.118,0.842,0.104
16.96,-0.22,0.98,-0.046
16.97,-0.309,0.888,-0.156
16.98,-0.208,1.304,-0.057
16.99,-0.086,0.688,0.189
17.0,-0.175,1.021,0.1
17.01,-0.341,0.829,-0.213
17.02,-0.183,1.107,-0.053
17.03,-0.106,1.082,0.117
17.04,-0.135,0.614,0.169
17.05,-0.298,1.117,-0.019
17.06,-0.326,0.876,-0.226
17.07,-0.138,1.256,0.076
17.08,-0.065,0.757,0.127
17.09,-0.259,0.908,-0.033
17.1,-0.284,1.067,-0.168
17.11,-0.177,0.975,-0.049
17.12,-0.182,0.987,0.196
17.13,-0.087,0.718,0.095
17.14,-0.504,1.122,-0.189
17.15,-0.145,0.866,-0.078
17.16,-0.051,1.185,0.099
17.17,-0.191,0.757,0.141
17.18,-0.24,0.911,-0.086
17.19,-0.317,1.187,-0.215
17.2,-0.064,0.917,0.127
17.21,-0.145,1.083,0.107
17.22,-0.212,0.618,-0.006
17.23,-0.426,1.335,-0.208
17.24,-0.073,0.891,-0.041
17.25,-0.191,1.015,0.202
17.26,-0.129,0.884,0.106
17.27,-0.47,1.068,-0.148
17.28,-0.183,1.13,-0.075
17.29,-0.066,0.843,0.133
17.3,-0.213,1.052,0.147
17.31,-0.258,0.709,-0.125
17.32,-0.353,1.284,-0.202
17.33,0.015,0.943,0.087
17.34,-0.157,1.027,0.125
17.35,-0.217,0.758,0.025
17.36,-0.345,1.133,-0.192
17.37,-0.081,1.102,-0.03
17.38,-0.14,0.774,0.251
17.39,-0.2,1.037,0.037
17.4,-0.4,0.698,-0.307
17.41,-0.093,1.287,-0.098
17.42,-0.067,0.825,0.099
17.43,-0.211,0.867,0.205
17.44,-0.283,0.969,-0.111
17.45,-0.366,0.967,-0.136
17.46,0.017,1.219,0.099
17.47,-0.093,0.663,0.118
17.48,-0.39,1.052,0.017
17.49,-0.298,0.883,-0.23
17.5,-0.138,1.237,0.014
17.51,-0.111,0.832,0.141
17.52,-0.156,0.801,0.023
17.53,-0.406,1.121,-0.176
17.54,-0.149,0.948,-0.084
17.55,-0.082,1.115,0.105
17.56,-0.033,0.656,0.119
17.57,-0.442,1.113,-0.131
17.58,-0.175,0.937,-0.175
17.59,-0.1,1.159,0.1
17.6,-0.168,0.789,0.161
17.61,-0.136,0.795,-0.056
17.62,-0.432,1.279,-0.207
17.63,-0.109,0.827,0.068
17.64,-0.179,1.151,0.162
17.65,-0.114,0.661,0.093
17.66,-0.43,1.182,-0.225
17.67,-0.12,0.975,-0.132
17.68,-0.064,0.921,0.155
17.69,-0.185,0.973,0.125
17.7,-0.348,0.731,-0.134
17.71,-0.271,1.295,-0.105
17.72,0.058,0.918,0.099
17.73,-0.182,0.996,0.115
17.74,-0.229,0.737,-0.022
17.75,-0.376,1.216,-0.231
17.76,-0.068,1.007,-0.018
17.77,-0.1,0.845,0.159
17.78,-0.195,0.991,0.014
17.79,-0.358,0.801,-0.206
17.8,-0.167,1.3,-0.061
17.81,-0.039,0.706,0.14
17.82,-0.146,1.039,0.131
17.83,-0.301,0.848,-0.188
17.84,-0.276,1.105,-0.108
17.85,-0.07,1.142,0.107
17.86,-0.182,0.642,0.146
17.87,-0.29,1.081,-0.028
17.88,-0.317,0.907,-0.23
17.89,-0.086,1.213,0.052
17.9,-0.109,0.765,0.178
17.91,-0.189,0.912,0.035
17.92,-0.421,1.019,-0.237
17.93,-0.149,0.978,-0.066
17.94,-0.131,1.056,0.173
17.95,-0.201,0.702,0.139
17.96,-0.102,1.042,0.124
17.97,-0.152,0.942,0.133
17.98,-0.197,0.672,-0.021
17.99,-0.438,1.32,-0.161
18.0,-0.065,0.855,0.022
18.01,-0.207,1.152,0.208
18.02,-0.128,0.613,0.064
18.03,-0.482,1.22,-0.179
18.04,-0.134,0.979,-0.06
18.05,-0.094,0.947,0.141
18.06,-0.183,0.886,0.154
18.07,-0.38,0.802,-0.108
18.08,-0.317,1.251,-0.198
18.09,0.062,0.903,0.077
18.1,-0.207,1.034,0.106
18.11,-0.184,0.708,-0.005
18.12,-0.372,1.244,-0.242
18.13,-0.095,0.942,0.017
18.14,-0.097,0.929,0.203
18.15,-0.269,0.932,0.042
18.16,-0.434,0.811,-0.157
18.17,-0.141,1.334,-0.083
18.18,-0.062,0.712,0.13
18.19,-0.215,1.075,0.143
18.2,-0.328,0.735,-0.167
18.21,-0.312,1.133,-0.138
18.22,0.163,1.073,0.066
18.23,-0.086,0.731,0.05
18.24,-0.333,1.042,-0.005
18.25,-0.267,0.892,-0.19
18.26,-0.178,1.269,0.085
18.27,-0.076,0.709,0.16
18.28,-0.232,0.939,-0.018
18.29,-0.39,0.984,-0.192
18.3,-0.111,1.051,-0.033
18.31,-0.175,0.959,0.181
18.32,-0.137,0.685,0.14
18.33,-0.418,1.17,-0.227
18.34,-0.159,0.891,-0.078
18.35,-0.076,1.175,0.122
18.36,-0.134,0.691,0.13
18.37,-0.269,0.979,-0.094
18.38,-0.356,1.114,-0.187
18.39,-0.075,1.009,0.17
18.4,-0.2,1.065,0.154
18.41,-0.21,0.611,-0.023
18.42,-0.417,1.32,-0.211
18.43,-0.072,0.836,-0.074
18.44,-0.182,1.069,0.223
18.45,-0.073,0.783,0.044
18.46,-0.54,0.941,-0.15
18.47,-0.178,1.232,-0.069
18.48,-0.031,0.837,0.09
18.49,-0.23,1.037,0.171
18.5,-0.214,0.708,-0.107
18.51,-0.377,1.314,-0.159
18.52,-0.026,0.951,0.15
18.53,-0.178,0.882,0.13
18.54,-0.252,0.854,0.049
18.55,-0.387,1.06,-0.194
18.56,-0.144,1.142,-0.029
18.57,-0.086,0.737,0.218
18.58,-0.21,1.037,0.087
18.59,-0.4,0.731,-0.198
18.6,-0.115,1.249,-0.078
18.61,-0.049,0.847,0.112
18.62,-0.21,0.835,0.187
18.63,-0.318,0.964,-0.126
18.64,-0.358,0.97,-0.116
18.65,-0.027,1.288,0.122
18.66,-0.104,0.602,0.082
18.67,-0.29,1.056,0.031
18.68,-0.377,0.963,-0.22
18.69,-0.113,1.085,0.005
18.7,-0.016,0.94,0.152
18.71,-0.176,0.729,0.017
18.72,-0.405,1.184,-0.194
18.73,-0.103,0.903,-0.063
18.74,-0.14,1.132,0.162
18.75,-0.105,0.69,0.171
18.76,-0.418,1.084,-0.163
18.77,-0.285,1.011,-0.126
18.78,0.029,1.111,0.093
18.79,-0.203,0.866,0.107
18.8,-0.175,0.755,-0.024
18.81,-0.422,1.337,-0.227
18.82,-0.065,0.814,0.052
18.83,-0.154,1.126,0.141
18.84,-0.209,0.612,0.015
18.85,-0.499,1.294,-0.178
18.86,-0.061,0.921,-0.061
18.87,-0.184,1.007,0.148
18.88,-0.076,0.856,0.112
18.89,-0.386,0.851,-0.241
18.9,-0.265,1.275,-0.018
18.91,0.019,0.847,0.133
18.92,-0.233,1.036,0.11
18.93,-0.161,0.744,-0.07
18.94,-0.367,1.281,-0.214
18.95,-0.091,1.005,0.153
18.96,-0.161,0.865,0.137
18.97,-0.257,0.895,-0.006
18.98,-0.353,0.957,-0.149
18.99,-0.176,1.261,0.019
19.0,-0.103,0.713,0.221
19.01,-0.186,1.047,0.037
19.02,-0.351,0.763,-0.229
19.03,-0.149,1.187,-0.082
19.04,-0.078,0.959,0.106
19.05,-0.151,0.748,0.113
19.06,-0.298,1.063,-0.124
19.07,-0.374,0.881,-0.129
19.08,-0.015,1.311,0.148
19.09,-0.099,0.657,0.131
19.1,-0.333,0.989,-0.012
19.11,-0.345,1.058,-0.202
19.12,-0.129,1.014,0.033
19.13,-0.128,0.967,0.191
19.14,-0.121,0.678,0.005
19.15,-0.465,1.207,-0.191
19.16,-0.067,0.944,0.01
19.17,-0.187,1.146,0.192
19.18,-0.173,0.706,0.156
19.19,-0.356,1.027,-0.183
19.2,-0.224,1.095,-0.214
19.21,0.092,1.009,0.105
19.22,-0.225,0.987,0.105
19.23,-0.25,0.672,0.048
19.24,-0.346,1.372,-0.21
19.25,-0.145,0.849,0.044
19.26,-0.093,1.028,0.167
19.27,-0.208,0.735,0.004
19.28,-0.436,1.026,-0.177
19.29,-0.062,1.209,-0.075
19.3,-0.108,0.728,0.179
19.31,-0.199,1.11,0.115
19.32,-0.344,0.663,-0.193
19.33,-0.244,1.287,-0.057
19.34,0.024,0.889,0.139
19.35,-0.243,0.86,0.128
19.36,-0.259,0.906,-0.07
19.37,-0.319,1.04,-0.176
19.38,-0.124,1.191,0.111
19.39,-0.006,0.653,0.153
19.4,-0.351,1.068,-0.041
19.41,-0.331,0.887,-0.161
19.42,-0.142,1.199,0.024
19.43,-0.19,0.785,0.218
19.44,-0.126,0.838,0.051
19.45,-0.522,1.012,-0.248
19.46,-0.083,0.947,-0.067
19.47,-0.105,1.201,0.072
19.48,-0.135,0.637,0.148
19.49,-0.304,1.096,-0.126
19.5,-0.311,0.972,-0.154
19.51,0.001,1.131,0.135
19.52,-0.144,0.844,0.099
19.53,-0.271,0.765,-0.039
19.54,-0.316,1.286,-0.224
19.55,-0.107,0.883,0.058
19.56,-0.177,1.094,0.207
19.57,-0.121,0.653,0.015
19.58,-0.484,1.201,-0.234
19.59,-0.053,1.022,-0.046
19.6,-0.095,0.949,0.16
19.61,-0.196,0.929,0.121
19.62,-0.362,0.743,-0.232
19.63,-0.198,1.287,-0.156
19.64,0.021,0.868,0.085
19.65,-0.197,1.015,0.101
19.66,-0.24,0.68,-0.073
19.67,-0.401,1.371,-0.151
19.68,0.007,0.938,0.159
19.69,-0.173,0.929,0.149
19.7,-0.324,0.829,-0.053
19.71,-0.243,1.029,-0.232
19.72,-0.086,1.225,-0.014
19.73,-0.004,0.662,0.175
19.74,-0.289,1.03,0.01
19.75,-0.436,0.805,-0.121
19.76,-0.26,1.283,0.039
19.77,-0.2,0.775,0.196
19.78,-0.107,0.847,0.094
19.79,-0.386,1.032,-0.221
19.8,-0.201,0.967,-0.05
19.81,-0.101,1.188,0.15
19.82,-0.176,0.646,0.174
19.83,-0.32,1.064,-0.089
19.84,-0.275,0.925,-0.221
19.85,-0.041,1.2,0.12
19.86,-0.177,0.801,0.122
19.87,-0.243,0.766,0.074
19.88,-0.423,1.331,-0.182
19.89,-0.112,0.828,-0.012
19.9,-0.021,1.121,0.104
19.91,-0.097,0.677,-0.005
19.92,-0.479,1.177,-0.114
19.93,-0.198,0.993,-0.055
19.94,-0.078,0.96,0.134
19.95,-0.078,0.952,0.1
19.96,-0.376,0.737,-0.138
19.97,-0.381,1.304,-0.086
19.98,-0.015,0.89,0.112
19.99,-0.174,0.979,0.11
20.0,-0.133,0.745,-0.066
20.01,-0.409,1.179,-0.203
20.02,-0.107,1.05,0.143
20.03,-0.122,0.849,0.141
20.04,-0.344,0.987,0.007
20.05,-0.279,0.874,-0.2
20.06,-0.197,1.289,-0.069
20.07,-0.095,0.739,0.228
20.08,-0.159,0.998,0.062
20.09,-0.39,0.817,-0.172
20.1,-0.174,1.189,-0.098
20.11,-0.076,0.996,0.088
20.12,-0.229,0.682,0.157
20.13,-0.255,1.082,-0.13
20.14,-0.308,0.857,-0.199
20.15,-0.057,1.346,0.168
20.16,-0.172,0.653,0.153
20.17,-0.307,0.952,-0.001
20.18,-0.273,1.103,-0.23
20.19,-0.097,0.962,-0.01
20.2,-0.135,1.042,0.186
20.21,-0.112,0.661,0.044
20.22,-0.525,1.231,-0.159
20.23,-0.143,0.914,-0.012
20.24,-0.134,1.063,0.149
20.25,-0.174,0.807,0.103
20.26,-0.301,0.926,-0.202
20.27,-0.337,1.154,-0.157
20.28,0.068,0.946,0.179
20.29,-0.271,1.029,0.133
20.3,-0.24,0.659,-0.037
20.31,-0.363,1.35,-0.24
20.32,-0.072,0.875,0.028
20.33,0.03,0.984,0.117
20.34,-0.264,0.816,-0.035
20.35,-0.482,0.966,-0.118
20.36,-0.126,1.229,-0.016
20.37,-0.13,0.679,0.208
20.38,-0.142,1.043,0.114
20.39,-0.383,0.76,-0.229
20.4,-0.183,1.258,-0.063
20.41,-0.052,0.889,0.121
20.42,-0.208,0.848,0.149
20.43,-0.26,0.981,-0.132
20.44,-0.317,0.964,-0.195
20.45,0.062,1.197,0.096
20.46,-0.163,0.647,0.106
20.47,-0.322,1.064,0.012
20.48,-0.3,0.901,-0.248
20.49,-0.162,1.22,0.052
20.5,-0.038,0.732,0.142
20.51,-0.207,0.867,-0.035
20.52,-0.349,1.085,-0.174
20.53,-0.133,1.004,-0.015
20.54,-0.24,0.996,0.203
20.55,-0.07,0.688,0.098
20.56,-0.487,1.159,-0.218
20.57,-0.134,0.902,-0.008
20.58,-0.173,1.184,0.176
20.59,-0.21,0.729,0.168
20.6,-0.228,0.906,-0.128
20.61,-0.305,1.168,-0.216
20.62,-0.005,1.001,0.123
20.63,-0.152,1.024,0.076
20.64,-0.232,0.658,0.02
20.65,-0.401,1.404,-0.189
20.66,-0.115,0.858,-0.008
20.67,-0.167,0.969,0.264
20.68,-0.179,0.84,0.062
20.69,-0.428,0.879,-0.232
20.7,-0.089,1.271,-0.131
20.71,-0.031,0.777,0.097
20.72,-0.242,1.077,0.176
20.73,-0.235,0.701,-0.14
20.74,-0.408,1.284,-0.108
20.75,0.015,0.964,0.1
20.76,-0.136,0.818,0.129
20.77,-0.263,0.952,-0.007
20.78,-0.365,1.008,-0.226
20.79,-0.195,1.256,0.105
20.8,-0.127,0.711,0.185
20.81,-0.28,1.017,0.049
20.82,-0.345,0.891,-0.186
20.83,-0.209,1.147,-0.078
20.84,-0.138,0.82,0.182
20.85,-0.151,0.78,0.086
20.86,-0.437,1.065,-0.217
20.87,-0.168,0.91,-0.058
20.88,-0.035,1.259,0.119
20.89,-0.21,0.604,0.133
20.9,-0.221,1.059,-0.055
20.91,-0.385,1.005,-0.252
20.92,-0.024,1.061,0.13
20.93,-0.135,0.982,0.14
20.94,-0.27,0.691,-0.017
20.95,-0.346,1.302,-0.19
20.96,-0.099,0.874,-0.034
20.97,-0.213,1.119,0.2
20.98,-0.061,0.719,0.096
20.99,-0.538,1.038,-0.199
21.0,-0.123,1.136,-0.1
21.01,-0.028,0.903,0.08
21.02,-0.273,0.984,0.196
21.03,-0.228,0.669,-0.116
21.04,-0.383,1.352,-0.17
21.05,0.124,0.908,0.121
21.06,-0.256,1.016,0.123
21.07,-0.311,0.74,0.004
21.08,-0.25,1.159,-0.233
21.09,-0.107,1.134,-0.002
21.1,-0.083,0.721,0.209
21.11,-0.186,1.013,-0.002
21.12,-0.434,0.768,-0.174
21.13,-0.163,1.284,-0.078
21.14,-0.048,0.753,0.129
21.15,-0.162,0.986,0.114
21.16,-0.334,0.882,-0.186
21.17,-0.335,1.026,-0.115
21.18,0.003,1.194,0.076
21.19,-0.045,0.613,0.064
21.2,-0.283,1.104,-0.02
21.21,-0.332,0.907,-0.19
21.22,-0.167,1.212,0.103
21.23,-0.093,0.779,0.126
21.24,-0.22,0.823,-0.05
21.25,-0.384,1.154,-0.175
21.26,-0.083,1.086,-0.003
21.27,-0.181,0.959,0.22
21.28,-0.114,0.676,0.061
21.29,-0.489,1.202,-0.18
21.3,-0.109,0.915,-0.087
21.31,-0.058,1.139,0.069
21.32,-0.074,0.706,0.117
21.33,-0.393,0.977,-0.142
21.34,-0.251,1.074,-0.196
21.35,0.007,1.039,0.095
21.36,-0.213,0.949,0.128
21.37,-0.149,0.697,-0.024
21.38,-0.449,1.346,-0.189
21.39,-0.046,0.849,0.096
21.4,-0.15,1.101,0.127
21.41,-0.118,0.705,0.024
21.42,-0.444,1.054,-0.169
21.43,-0.116,1.156,-0.065
21.44,-0.103,0.782,0.169
21.45,-0.24,1.038,0.16
21.46,-0.303,0.675,-0.17
21.47,-0.325,1.317,-0.108
21.48,0.056,0.866,0.154
21.49,-0.208,0.925,0.098
21.5,-0.258,0.817,-0.023
21.51,-0.288,1.127,-0.212
21.52,-0.095,1.192,0.078
21.53,-0.088,0.655,0.11
21.54,-0.26,1.014,-0.031
21.55,-0.347,0.881,-0.16
21.56,-0.143,1.276,0.041
21.57,-0.175,0.765,0.232
21.58,-0.194,0.865,0.083
21.59,-0.417,1.031,-0.234
21.6,-0.095,1.0,-0.072
21.61,-0.079,1.15,0.112
21.62,-0.119,0.612,0.197
21.63,-0.385,1.116,-0.117
21.64,-0.319,0.917,-0.161
21.65,-0.005,1.224,0.115
21.66,-0.174,0.793,0.084
21.67,-0.239,0.814,0.031
21.68,-0.435,1.249,-0.217
21.69,-0.104,0.834,0.0
21.7,-0.073,1.182,0.138
21.71,-0.084,0.615,-0.001
21.72,-0.424,1.184,-0.174
21.73,-0.095,1.012,-0.063
21.74,-0.229,0.933,0.208
21.75,-0.134,0.933,0.146
21.76,-0.404,0.753,-0.161
21.77,-0.327,1.307,-0.097
21.78,0.073,0.865,0.101
21.79,-0.222,1.038,0.117
21.8,-0.197,0.728,-0.021
21.81,-0.299,1.22,-0.222
21.82,-0.088,1.046,0.089
21.83,-0.063,0.821,0.144
21.84,-0.291,0.974,0.004
21.85,-0.36,0.875,-0.165
21.86,-0.16,1.283,-0.03
21.87,-0.16,0.704,0.25
21.88,-0.209,0.988,0.088
21.89,-0.382,0.772,-0.251
21.9,-0.09,1.177,-0.116
21.91,-0.017,1.002,0.068
21.92,-0.149,0.673,0.216
21.93,-0.343,1.107,-0.087
21.94,-0.287,0.867,-0.177
21.95,-0.029,1.358,0.127
21.96,-0.132,0.65,0.127
21.97,-0.288,0.976,0.027
21.98,-0.31,1.116,-0.283
21.99,-0.092,0.94,-0.017
22.0,-0.106,1.044,0.191
22.01,-0.124,0.639,0.032
22.02,-0.495,1.195,-0.169
22.03,-0.021,0.964,-0.032
22.04,-0.187,1.095,0.157
22.05,-0.187,0.718,0.187
22.06,-0.284,1.013,-0.167
22.07,-0.284,0.978,-0.116
22.08,0.107,1.102,0.13
22.09,-0.187,0.901,0.069
22.1,-0.204,0.736,-0.007
22.11,-0.36,1.327,-0.256
22.12,-0.117,0.824,0.058
22.13,-0.109,1.1,0.125
22.14,-0.148,0.673,-0.003
22.15,-0.462,1.159,-0.148
22.16,-0.137,1.051,-0.036
22.17,-0.157,0.819,0.147
22.18,-0.093,1.036,0.078
22.19,-0.323,0.75,-0.207
22.2,-0.271,1.321,-0.018
22.21,-0.056,0.808,0.176
22.22,-0.259,1.011,0.153
22.23,-0.21,0.803,-0.118
22.24,-0.318,1.088,-0.172
22.25,-0.074,1.139,0.107
22.26,-0.095,0.695,0.09
22.27,-0.274,1.052,-0.0
22.28,-0.358,0.914,-0.21
22.29,-0.116,1.232,0.037
22.3,-0.095,0.73,0.183
22.31,-0.225,0.929,0.059
22.32,-0.381,0.966,-0.219
22.33,-0.166,1.05,-0.063
22.34,-0.12,1.024,0.141
22.35,-0.09,0.634,0.157
22.36,-0.404,1.159,-0.152
22.37,-0.262,0.868,-0.155
22.38,-0.016,1.29,0.138
22.39,-0.205,0.711,0.161
22.4,-0.271,0.887,0.011
22.41,-0.314,1.199,-0.261
22.42,-0.068,0.903,0.0
22.43,-0.162,1.111,0.184
22.44,-0.154,0.604,0.024
22.45,-0.503,1.221,-0.18
22.46,-0.019,0.943,-0.113
22.47,-0.156,1.001,0.122
22.48,-0.03,0.866,0.132
22.49,-0.428,0.849,-0.19
22.5,-0.297,1.185,-0.069
22.51,0.012,0.951,0.125
22.52,-0.291,1.029,0.118
22.53,-0.153,0.672,-0.065
22.54,-0.315,1.29,-0.27
22.55,-0.033,0.986,0.106
22.56,-0.105,0.886,0.141
22.57,-0.287,0.898,0.029
22.58,-0.376,0.966,-0.145
22.59,-0.168,1.202,-0.064
22.6,-0.124,0.697,0.235
22.61,-0.188,1.056,0.095
22.62,-0.45,0.74,-0.132
22.63,-0.137,1.274,-0.083
22.64,-0.04,0.902,0.109
22.65,-0.189,0.786,0.191
22.66,-0.302,1.059,-0.099
22.67,-0.323,0.854,-0.194
22.68,-0.046,1.342,0.102
22.69,-0.095,0.654,0.154
22.7,-0.358,1.018,0.049
22.71,-0.367,0.979,-0.236
22.72,-0.108,1.024,-0.065
22.73,-0.067,0.965,0.172
22.74,-0.129,0.737,0.077
22.75,-0.514,1.197,-0.122
22.76,-0.121,0.935,-0.152
22.77,-0.116,1.089,0.129
22.78,-0.115,0.748,0.177
22.79,-0.439,0.982,-0.1
22.8,-0.343,1.026,-0.154
22.81,0.047,1.086,0.065
22.82,-0.25,0.921,0.149
22.83,-0.196,0.696,-0.005
22.84,-0.397,1.379,-0.248
22.85,-0.062,0.829,0.01
22.86,-0.176,1.113,0.215
22.87,-0.155,0.695,0.038
22.88,-0.477,1.206,-0.221
22.89,-0.054,0.987,-0.084
22.9,-0.068,0.948,0.149
22.91,-0.213,0.923,0.17
22.92,-0.359,0.766,-0.199
22.93,-0.258,1.246,-0.153
22.94,0.109,0.912,0.115
22.95,-0.261,1.041,0.109
22.96,-0.217,0.728,-0.039
22.97,-0.342,1.23,-0.251
22.98,-0.046,0.974,0.034
22.99,-0.029,0.851,0.174
23.0,-0.343,0.961,0.009
23.01,-0.434,0.812,-0.166
23.02,-0.116,1.296,-0.032
23.03,-0.091,0.687,0.157
23.04,-0.093,1.059,0.072
23.05,-0.366,0.84,-0.235
23.06,-0.199,1.123,-0.028
23.07,-0.042,1.09,0.183
23.08,-0.292,0.666,0.194
23.09,-0.316,1.104,-0.12
23.1,-0.263,0.936,-0.202
23.11,-0.001,1.295,0.095
23.12,-0.103,0.636,0.13
23.13,-0.354,0.965,0.046
23.14,-0.371,1.035,-0.216
23.15,-0.12,1.006,-0.021
23.16,-0.087,1.062,0.16
23.17,-0.148,0.651,0.062
23.18,-0.479,1.244,-0.143
23.19,-0.222,0.886,-0.037
23.2,-0.138,1.079,0.119
23.21,-0.094,0.806,0.125
23.22,-0.432,0.932,-0.127
23.23,-0.276,1.132,-0.136
23.24,0.01,0.985,0.092
23.25,-0.204,1.012,0.131
23.26,-0.136,0.661,-0.059
23.27,-0.479,1.323,-0.221
23.28,-0.084,0.886,0.105
23.29,-0.17,1.114,0.144
23.3,-0.154,0.728,0.05
23.31,-0.426,1.049,-0.2
23.32,-0.146,1.216,-0.088
23.33,-0.127,0.708,0.157
23.34,-0.158,1.061,0.096
23.35,-0.256,0.695,-0.182
23.36,-0.285,1.319,-0.094
23.37,-0.045,0.881,0.135
23.38,-0.183,0.868,0.128
23.39,-0.209,0.926,-0.049
23.4,-0.378,0.965,-0.179
23.41,-0.145,1.255,0.107
23.42,-0.127,0.693,0.152
23.43,-0.285,1.041,-0.004
23.44,-0.34,0.886,-0.201
23.45,-0.225,1.128,-0.043
23.46,-0.099,0.887,0.199
23.47,-0.196,0.823,0.118
23.48,-0.409,1.013,-0.171
23.49,-0.111,0.979,-0.107
23.5,-0.036,1.219,0.086
23.51,-0.124,0.594,0.216
23.52,-0.319,1.078,-0.06
23.53,-0.354,0.984,-0.185
23.54,-0.06,1.118,0.092
23.55,-0.104,0.911,0.125
23.56,-0.263,0.733,-0.002
23.57,-0.411,1.312,-0.221
23.58,-0.06,0.842,-0.048
23.59,-0.121,1.108,0.178
23.6,-0.027,0.714,0.094
23.61,-0.518,1.07,-0.204
23.62,-0.214,1.041,-0.015
23.63,-0.092,1.027,0.147
23.64,-0.29,0.934,0.142
23.65,-0.19,0.728,-0.098
23.66,-0.41,1.344,-0.181
23.67,-0.033,0.856,0.131
23.68,-0.129,1.034,0.131
23.69,-0.175,0.722,0.017
23.7,-0.323,1.308,-0.254
23.71,-0.104,0.903,0.035
23.72,-0.078,0.957,0.15
23.73,-0.201,0.867,0.023
23.74,-0.458,0.872,-0.217
23.75,-0.116,1.278,-0.081
23.76,-0.034,0.734,0.156
23.77,-0.21,1.052,0.159
23.78,-0.291,0.756,-0.139
23.79,-0.345,1.198,-0.133
23.8,0.081,1.037,0.103
23.81,-0.175,0.765,0.102
23.82,-0.33,0.982,-0.013
23.83,-0.285,0.933,-0.22
23.84,-0.136,1.296,0.09
23.85,-0.121,0.682,0.172
23.86,-0.258,0.971,0.021
23.87,-0.393,0.939,-0.153
23.88,-0.123,1.107,-0.074
23.89,-0.136,0.883,0.142
23.9,-0.129,0.777,0.109
23.91,-0.437,1.127,-0.209
23.92,-0.285,0.928,-0.024
23.93,-0.084,1.188,0.122
23.94,-0.182,0.637,0.125
23.95,-0.224,1.052,-0.084
23.96,-0.282,1.091,-0.258
23.97,-0.025,1.017,0.112
23.98,-0.125,0.98,0.121
23.99,-0.302,0.665,0.033
24.0,-0.426,1.33,-0.201
24.01,-0.104,0.81,-0.047
24.02,-0.191,1.148,0.193
24.03,-0.084,0.739,0.089
24.04,-0.456,0.995,-0.179
24.05,-0.145,1.156,-0.087
24.06,-0.048,0.861,0.104
24.07,-0.228,1.032,0.134
24.08,-0.177,0.684,-0.119
24.09,-0.363,1.317,-0.163
24.1,-0.114,0.952,0.177
24.11,-0.14,0.947,0.126
24.12,-0.233,0.806,-0.023
24.13,-0.343,1.115,-0.182
24.14,-0.116,1.154,-0.04
24.15,-0.092,0.72,0.2
24.16,-0.138,1.058,0.035
24.17,-0.42,0.735,-0.193
24.18,-0.213,1.284,-0.065
24.19,0.022,0.842,0.111
24.2,-0.243,0.891,0.153
24.21,-0.25,0.937,-0.143
24.22,-0.28,0.982,-0.176
24.23,-0.108,1.286,0.167
24.24,-0.065,0.601,0.108
24.25,-0.402,1.056,-0.004
24.26,-0.298,0.962,-0.175
24.27,-0.088,1.171,-0.001
24.28,-0.196,0.789,0.18
24.29,-0.1,0.811,0.042
24.3,-0.471,1.166,-0.202
24.31,-0.133,0.896,-0.045
24.32,-0.056,1.149,0.096
24.33,-0.187,0.659,0.133
24.34,-0.36,1.093,-0.121
24.35,-0.272,1.037,-0.128
24.36,-0.092,1.112,0.14
24.37,-0.048,0.821,0.062
24.38,-0.236,0.768,-0.069
24.39,-0.365,1.325,-0.167
24.4,-0.067,0.826,0.056
24.41,-0.187,1.104,0.187
24.42,-0.13,0.68,0.018
24.43,-0.493,1.147,-0.228
24.44,-0.111,1.034,-0.078
24.45,-0.058,0.912,0.132
24.46,-0.162,1.006,0.118
24.47,-0.311,0.721,-0.186
24.48,-0.319,1.314,-0.082
24.49,0.018,0.885,0.091
24.5,-0.131,0.993,0.119
24.51,-0.227,0.717,-0.115
24.52,-0.36,1.301,-0.133
24.53,-0.181,0.982,0.131
24.54,-0.151,0.882,0.15
24.55,-0.2,0.883,-0.069
24.56,-0.354,0.945,-0.199
24.57,-0.053,1.21,-0.003
24.58,-0.018,0.738,0.157
24.59,-0.229,1.052,0.056
24.6,-0.287,0.773,-0.198
24.61,-0.335,1.241,-0.009
24.62,-0.109,0.95,0.207
24.63,-0.127,0.788,0.059
24.64,-0.365,1.049,-0.099
24.65,-0.245,0.928,-0.138
24.66,-0.131,1.31,0.141
24.67,-0.062,0.592,0.158
24.68,-0.229,1.033,-0.09
24.69,-0.378,0.996,-0.226
24.7,-0.095,1.052,0.031
24.71,-0.186,0.946,0.159
24.72,-0.089,0.696,0.027
24.73,-0.483,1.187,-0.238
24.74,-0.129,0.901,-0.021
24.75,-0.104,1.151,0.146
24.76,-0.2,0.708,0.169
24.77,-0.383,1.022,-0.166
24.78,-0.289,1.035,-0.125
24.79,0.025,1.033,0.119
24.8,-0.151,0.947,0.076
24.81,-0.204,0.73,0.012
24.82,-0.435,1.371,-0.191
24.83,-0.125,0.831,0.082
24.84,-0.136,1.066,0.163
24.85,-0.173,0.703,-0.024
24.86,-0.44,1.098,-0.161
24.87,-0.099,1.136,-0.038
24.88,-0.097,0.767,0.139
24.89,-0.187,1.054,0.084
24.9,-0.282,0.728,-0.187
24.91,-0.318,1.324,-0.075
24.92,-0.002,0.841,0.16
24.93,-0.262,0.963,0.107
24.94,-0.267,0.842,-0.085
24.95,-0.264,1.037,-0.207
24.96,-0.0,1.244,0.073
24.97,-0.054,0.672,0.126
24.98,-0.273,1.053,0.035
24.99,-0.381,0.864,-0.202
25.0,-0.152,1.219,0.013
25.01,-0.233,0.808,0.208
25.02,-0.2,0.891,0.046
25.03,-0.343,0.979,-0.267
25.04,-0.089,1.024,-0.1
25.05,-0.031,1.112,0.059
25.06,-0.114,0.607,0.163
25.07,-0.396,1.137,-0.048
25.08,-0.246,0.91,-0.216
25.09,0.079,1.199,0.091
25.1,-0.144,0.811,0.113
25.11,-0.264,0.804,-0.008
25.12,-0.392,1.202,-0.212
25.13,-0.133,0.893,0.047
25.14,-0.14,1.117,0.166
25.15,-0.079,0.654,0.069
25.16,-0.493,1.214,-0.171
25.17,-0.137,0.926,-0.034
25.18,-0.134,1.035,0.152
25.19,-0.161,0.91,0.128
25.2,-0.323,0.776,-0.183
25.21,-0.287,1.302,-0.154
25.22,0.019,0.862,0.094
25.23,-0.241,1.001,0.153
25.24,-0.197,0.685,-0.03
25.25,-0.356,1.25,-0.212
25.26,-0.104,1.024,0.128
25.27,-0.159,0.87,0.166
25.28,-0.223,0.937,0.037
25.29,-0.409,0.906,-0.197
25.3,-0.174,1.283,-0.045
25.31,-0.097,0.71,0.202
25.32,-0.251,1.052,0.111
25.33,-0.371,0.687,-0.198
25.34,-0.174,1.303,-0.062
25.35,-0.041,0.875,0.105
25.36,-0.251,0.834,0.18
25.37,-0.24,0.974,-0.084
25.38,-0.363,0.947,-0.21
25.39,0.011,1.239,0.082
25.4,-0.074,0.663,0.123
25.41,-0.383,1.058,0.06
25.42,-0.333,0.908,-0.209
25.43,-0.12,1.186,-0.044
25.44,-0.09,0.836,0.148
25.45,-0.153,0.803,0.048
25.46,-0.482,1.107,-0.171
25.47,-0.097,0.9,-0.109
25.48,-0.108,1.163,0.136
25.49,-0.151,0.662,0.174
25.5,-0.385,1.043,-0.125
25.51,-0.305,0.985,-0.155
25.52,0.029,1.172,0.108
25.53,-0.163,0.814,0.096
25.54,-0.215,0.768,-0.004
25.55,-0.453,1.328,-0.209
25.56,-0.13,0.814,0.016
25.57,-0.139,1.198,0.139
25.58,-0.106,0.656,0.04
25.59,-0.465,1.125,-0.185
25.6,-0.108,1.073,-0.108
25.61,-0.091,0.877,0.157
25.62,-0.126,1.004,0.125
25.63,-0.297,0.733,-0.143
25.64,-0.336,1.326,-0.052
25.65,-0.067,0.919,0.126
25.66,-0.232,0.961,0.132
25.67,-0.164,0.747,-0.006
25.68,-0.391,1.19,-0.223
25.69,-0.089,1.035,-0.022
25.7,-0.105,0.82,0.206
25.71,-0.237,1.042,0.035
25.72,-0.408,0.708,-0.205
25.73,-0.099,1.296,-0.069
25.74,-0.067,0.812,0.16
25.75,-0.207,0.982,0.167
25.76,-0.248,0.861,-0.164
25.77,-0.286,1.073,-0.152
25.78,0.013,1.189,0.104
25.79,-0.189,0.625,0.089
25.8,-0.288,1.089,-0.011
25.81,-0.343,0.918,-0.177
25.82,-0.168,1.207,0.025
25.83,-0.029,0.737,0.154
25.84,-0.249,0.878,0.045
25.85,-0.401,1.032,-0.218
25.86,-0.104,0.998,-0.065
25.87,-0.145,1.042,0.105
25.88,-0.193,0.675,0.164
25.89,-0.41,1.178,-0.175
25.9,-0.259,0.919,-0.151
25.91,-0.034,1.146,0.103
25.92,-0.05,0.754,0.083
25.93,-0.273,0.86,-0.002
25.94,-0.378,1.218,-0.174
25.95,-0.139,0.849,0.082
25.96,-0.111,1.126,0.127
25.97,-0.152,0.611,0.01
25.98,-0.425,1.235,-0.158
25.99,-0.132,0.998,-0.032
26.0,-0.213,1.0,0.183
26.01,-0.116,0.883,0.149
26.02,-0.325,0.807,-0.175
26.03,-0.244,1.287,-0.081
26.04,-0.005,0.837,0.135
26.05,-0.226,1.014,0.167
26.06,-0.195,0.727,0.001
26.07,-0.461,1.205,-0.172
26.08,-0.13,0.977,0.082
26.09,-0.149,0.906,0.177
26.1,-0.223,0.95,0.007
26.11,-0.407,0.87,-0.175
26.12,-0.168,1.278,-0.037
26.13,-0.147,0.762,0.235
26.14,-0.244,1.061,0.128
26.15,-0.311,0.693,-0.199
26.16,-0.296,1.297,-0.082
26.17,-0.021,0.875,0.138
26.18,-0.251,0.923,0.209
26.19,-0.332,0.934,-0.09
26.2,-0.256,0.93,-0.196
26.21,-0.089,1.284,0.086
26.22,-0.101,0.67,0.139
26.23,-0.24,1.017,-0.044
26.24,-0.365,0.929,-0.177
26.25,-0.139,1.156,-0.027
26.26,-0.157,0.82,0.175
26.27,-0.179,0.822,0.104
26.28,-0.411,1.098,-0.216
26.29,-0.213,0.902,-0.034
26.3,-0.236,1.024,0.189
26.31,-0.297,0.738,-0.065
26.32,-0.292,1.145,-0.215
26.33,-0.008,1.12,0.086
26.34,-0.164,0.786,0.146
26.35,-0.256,0.97,0.005
26.36,-0.292,0.895,-0.213
26.37,-0.146,1.256,-0.054
26.38,-0.072,0.669,0.201
26.39,-0.236,0.979,0.082
26.4,-0.366,0.896,-0.192
26.41,-0.252,1.102,-0.048
26.42,-0.044,1.056,0.087
26.43,-0.127,0.687,0.139
26.44,-0.32,1.118,-0.103
26.45,-0.303,0.852,-0.168
26.46,-0.057,1.318,0.068
26.47,-0.131,0.682,0.12
26.48,-0.238,0.93,-0.014
26.49,-0.356,1.114,-0.204
26.5,-0.114,0.943,-0.025
26.51,-0.135,1.071,0.17
26.52,-0.11,0.697,0.064
26.53,-0.441,1.148,-0.187
26.54,-0.128,0.914,-0.092
26.55,-0.079,1.144,0.115
26.56,-0.116,0.756,0.177
26.57,-0.316,0.922,-0.099
26.58,-0.32,1.15,-0.149
26.59,-0.043,0.974,0.11
26.6,-0.208,1.047,0.149
26.61,-0.173,0.652,0.037
26.62,-0.393,1.327,-0.216
26.63,-0.118,0.856,-0.04
26.64,-0.108,0.999,0.246
26.65,-0.136,0.876,0.091
26.66,-0.471,0.862,-0.184
26.67,-0.182,1.281,-0.069
26.68,-0.049,0.796,0.082
26.69,-0.175,1.048,0.131
26.7,-0.233,0.752,-0.079
26.71,-0.405,1.179,-0.17
26.72,-0.04,0.993,0.105
26.73,-0.109,0.87,0.119
26.74,-0.253,0.917,0.018
26.75,-0.293,0.94,-0.193
26.76,-0.168,1.24,-0.041
26.77,-0.134,0.691,0.22
26.78,-0.195,1.088,0.09
26.79,-0.343,0.792,-0.251
26.8,-0.189,1.159,-0.055
26.81,-0.103,0.982,0.169
26.82,-0.221,0.727,0.197
26.83,-0.302,1.075,-0.107
26.84,-0.288,0.98,-0.138
26.85,0.007,1.269,0.06
26.86,-0.123,0.61,0.113
26.87,-0.309,1.079,0.021
26.88,-0.389,0.919,-0.213
26.89,-0.189,1.135,-0.001
26.9,-0.086,0.853,0.195
26.91,-0.159,0.797,0.054
26.92,-0.389,1.091,-0.16
26.93,-0.095,0.996,-0.112
26.94,-0.123,1.098,0.107
26.95,-0.137,0.687,0.179
26.96,-0.368,1.088,-0.113
26.97,-0.274,0.923,-0.195
26.98,0.026,1.15,0.08
26.99,-0.192,0.814,0.14
27.0,-0.289,0.771,0.043
27.01,-0.34,1.321,-0.227
27.02,-0.11,0.816,-0.01
27.03,-0.126,1.154,0.144
27.04,-0.096,0.687,0.046
27.05,-0.461,1.113,-0.174
27.06,-0.15,1.066,-0.068
27.07,-0.132,0.897,0.138
27.08,-0.281,0.973,0.194
27.09,-0.247,0.751,-0.156
27.1,-0.364,1.252,-0.188
27.11,0.046,0.923,0.148
27.12,-0.17,1.07,0.094
27.13,-0.245,0.669,-0.016
27.14,-0.344,1.214,-0.203
27.15,-0.076,1.021,-0.051
27.16,-0.122,0.844,0.213
27.17,-0.212,0.972,0.084
27.18,-0.456,0.789,-0.14
27.19,-0.171,1.357,-0.077
27.2,-0.07,0.765,0.058
27.21,-0.129,0.958,0.158
27.22,-0.248,0.847,-0.106
27.23,-0.321,1.041,-0.196
27.24,0.013,1.151,0.081
27.25,-0.157,0.667,0.143
27.26,-0.306,1.071,-0.002
27.27,-0.331,0.899,-0.245
27.28,-0.161,1.195,0.012
27.29,-0.077,0.791,0.229
27.3,-0.171,0.894,0.085
27.31,-0.442,1.006,-0.142
27.32,-0.181,0.998,-0.093
27.33,-0.096,1.091,0.112
27.34,-0.097,0.677,0.161
27.35,-0.363,1.111,-0.126
27.36,-0.223,0.851,-0.164
27.37,-0.057,1.236,0.099
27.38,-0.113,0.736,0.09
27.39,-0.197,0.887,0.022
27.4,-0.381,1.283,-0.257
27.41,-0.079,0.835,-0.004
27.42,-0.153,1.167,0.157
27.43,-0.164,0.644,0.07
27.44,-0.452,1.177,-0.195
27.45,-0.127,1.002,-0.09
27.46,-0.174,0.969,0.115
27.47,-0.153,0.899,0.197
27.48,-0.393,0.773,-0.099
27.49,-0.364,1.149,-0.204
27.5,0.138,1.027,0.095
27.51,-0.245,1.084,0.093
27.52,-0.156,0.641,0.03
27.53,-0.361,1.291,-0.268
27.54,-0.088,0.918,-0.034
27.55,-0.104,0.982,0.236
27.56,-0.205,0.935,0.067
27.57,-0.423,0.822,-0.131
27.58,-0.158,1.368,-0.096
27.59,-0.07,0.757,0.102
27.6,-0.198,1.0,0.152
27.61,-0.238,0.797,-0.11
27.62,-0.305,1.113,-0.192
27.63,-0.049,1.08,0.143
27.64,-0.17,0.737,0.165
27.65,-0.26,0.878,0.027
27.66,-0.418,1.024,-0.207
27.67,-0.114,1.185,0.006
27.68,-0.016,0.812,0.15
27.69,-0.237,1.012,0.048
27.7,-0.363,0.794,-0.167
27.71,-0.167,1.311,-0.094
27.72,-0.037,0.792,0.057
27.73,-0.085,0.842,0.181
27.74,-0.367,1.041,-0.123
27.75,-0.341,0.883,-0.111
27.76,0.034,1.29,0.059
27.77,-0.172,0.602,0.102
27.78,-0.225,1.036,-0.009
27.79,-0.318,0.971,-0.245
27.8,-0.193,1.07,0.04
27.81,-0.094,0.971,0.177
27.82,-0.145,0.737,0.038
27.83,-0.404,1.164,-0.195
27.84,-0.049,0.948,-0.098
27.85,-0.154,1.145,0.115
27.86,-0.134,0.64,0.181
27.87,-0.33,1.055,-0.137
27.88,-0.246,1.015,-0.191
27.89,-0.01,1.114,0.126
27.9,-0.181,0.935,0.134
27.91,-0.224,0.686,0.06
27.92,-0.404,1.332,-0.215
27.93,-0.082,0.835,0.024
27.94,-0.215,1.135,0.243
27.95,-0.165,0.717,0.046
27.96,-0.454,1.008,-0.173
27.97,-0.198,1.159,-0.101
27.98,-0.02,0.865,0.132
27.99,-0.229,1.031,0.125
28.0,-0.214,0.695,-0.154
28.01,-0.333,1.274,-0.207
28.02,-0.031,0.926,0.15
28.03,-0.144,0.993,0.122
28.04,-0.259,0.797,0.006
28.05,-0.4,1.106,-0.202
28.06,-0.134,1.119,0.013
28.07,-0.135,0.785,0.234
28.08,-0.171,1.045,0.075
28.09,-0.378,0.769,-0.252
28.1,-0.156,1.282,-0.123
28.11,-0.005,0.813,0.071
28.12,-0.188,0.918,0.17
28.13,-0.261,0.9,-0.102
28.14,-0.353,0.971,-0.177
28.15,0.042,1.278,0.066
28.16,-0.155,0.604,0.117
28.17,-0.317,1.042,0.043
28.18,-0.322,0.958,-0.236
28.19,-0.139,1.139,-0.014
28.2,-0.044,0.842,0.17
28.21,-0.159,0.818,0.062
28.22,-0.446,1.092,-0.2
28.23,-0.117,0.949,-0.072
28.24,-0.147,1.117,0.102
28.25,-0.199,0.684,0.178
28.26,-0.302,1.099,-0.165
28.27,-0.269,0.872,-0.208
28.28,-0.005,1.184,0.148
28.29,-0.175,0.85,0.102
28.3,-0.272,0.723,0.002
28.31,-0.341,1.304,-0.216
28.32,-0.039,0.85,-0.007
28.33,-0.203,1.125,0.221
28.34,-0.109,0.66,0.062
28.35,-0.432,1.175,-0.204
28.36,-0.119,1.04,-0.066
28.37,-0.104,0.939,0.152
28.38,-0.211,0.941,0.182
28.39,-0.255,0.776,-0.104
28.4,-0.305,1.273,-0.163
28.41,-0.044,0.87,0.14
28.42,-0.13,1.019,0.132
28.43,-0.2,0.721,0.004
28.44,-0.401,1.207,-0.207
28.45,-0.073,1.02,-0.044
28.46,-0.11,1.007,0.13
28.47,-0.116,0.845,0.004
28.48,-0.428,0.908,-0.188
28.49,-0.117,1.258,-0.104
28.5,-0.029,0.74,0.138
28.51,-0.241,1.055,0.154
28.52,-0.28,0.727,-0.137
28.53,-0.303,1.26,-0.121
28.54,-0.042,0.981,0.102
28.55,-0.122,0.764,0.134
28.56,-0.294,0.992,-0.017
28.57,-0.349,0.953,-0.199
28.58,-0.13,1.193,0.035
28.59,-0.127,0.74,0.199
28.6,-0.186,1.001,0.025
28.61,-0.372,0.86,-0.206
28.62,-0.146,1.147,-0.081
28.63,-0.071,0.917,0.139
28.64,-0.205,0.811,0.143
28.65,-0.338,1.089,-0.186
28.66,-0.225,0.841,-0.163
28.67,-0.064,1.302,0.164
28.68,-0.15,0.641,0.167
28.69,-0.389,0.957,-0.01
28.7,-0.235,1.04,-0.246
28.71,-0.055,1.032,0.001
28.72,-0.143,0.965,0.188
28.73,-0.111,0.718,0.045
28.74,-0.582,1.242,-0.188
28.75,-0.03,0.881,-0.094
28.76,-0.099,1.116,0.083
28.77,-0.153,0.723,0.173
28.78,-0.365,1.02,-0.158
28.79,-0.281,1.122,-0.101
28.8,-0.034,0.964,0.111
28.81,-0.137,0.994,0.134
28.82,-0.241,0.661,-0.058
28.83,-0.366,1.312,-0.212
28.84,-0.023,0.9,0.053
28.85,-0.165,1.033,0.149
28.86,-0.153,0.731,0.005
28.87,-0.401,1.075,-0.184
28.88,-0.058,1.166,-0.074
28.89,-0.108,0.744,0.185
28.9,-0.246,1.083,0.144
28.91,-0.325,0.69,-0.222
28.92,-0.193,1.269,-0.108
28.93,-0.046,0.915,0.156
28.94,-0.199,0.869,0.189
28.95,-0.325,0.918,-0.035
28.96,-0.327,0.981,-0.195
28.97,-0.126,1.254,0.136
28.98,-0.134,0.7,0.187
28.99,-0.318,1.012,-0.02
29.0,-0.255,0.91,-0.277
29.01,-0.15,1.143,-0.113
29.02,-0.116,0.807,0.2
29.03,-0.104,0.863,0.089
29.04,-0.399,1.009,-0.21
29.05,-0.233,0.899,-0.034
29.06,-0.057,1.247,0.128
29.07,-0.158,0.622,0.139
29.08,-0.336,1.079,-0.051
29.09,-0.322,0.931,-0.259
29.1,-0.073,1.159,0.091
29.11,-0.095,0.938,0.109
29.12,-0.211,0.708,0.021
29.13,-0.396,1.249,-0.178
29.14,-0.059,0.877,-0.025
29.15,-0.218,1.069,0.139
29.16,-0.039,0.726,0.107
29.17,-0.43,1.102,-0.194
29.18,-0.277,0.98,-0.019
29.19,-0.089,1.019,0.205
29.2,-0.272,0.929,0.182
29.21,-0.305,0.768,-0.062
29.22,-0.339,1.366,-0.199
29.23,0.008,0.853,0.066
29.24,-0.07,0.997,0.107
29.25,-0.219,0.716,-0.02
29.26,-0.367,1.161,-0.222
29.27,-0.064,1.02,-0.097
29.28,-0.098,1.01,0.172
29.29,-0.15,0.841,0.051
29.3,-0.489,0.902,-0.132
29.31,-0.122,1.301,-0.073
29.32,-0.113,0.731,0.177
29.33,-0.304,1.031,0.199
29.34,-0.179,0.732,-0.155
29.35,-0.289,1.249,-0.168
29.36,-0.074,0.999,0.123
29.37,-0.11,0.813,0.09
29.38,-0.324,0.939,-0.015
29.39,-0.315,0.972,-0.181
29.4,-0.126,1.233,0.011
29.41,-0.172,0.705,0.231
29.42,-0.161,1.012,0.014
29.43,-0.357,0.818,-0.242
29.44,-0.148,1.162,-0.096
29.45,0.027,0.936,0.098
29.46,-0.296,0.778,0.196
29.47,-0.338,1.062,-0.113
29.48,-0.276,0.884,-0.134
29.49,-0.059,1.344,0.167
29.5,-0.088,0.639,0.106
29.51,-0.386,0.993,-0.013
29.52,-0.283,1.069,-0.231
29.53,-0.016,0.996,-0.048
29.54,-0.122,0.955,0.184
29.55,-0.134,0.709,0.031
29.56,-0.551,1.214,-0.152
29.57,-0.074,0.862,-0.044
29.58,-0.11,1.142,0.141
29.59,-0.147,0.75,0.156
29.6,-0.314,0.98,-0.195
29.61,-0.23,1.125,-0.155
29.62,0.056,1.008,0.111
29.63,-0.192,0.974,0.138
29.64,-0.289,0.64,0.0
29.65,-0.297,1.383,-0.214
29.66,-0.055,0.87,0.058
29.67,-0.228,0.997,0.248
29.68,-0.17,0.766,0.043
29.69,-0.492,1.017,-0.185
29.7,-0.08,1.199,-0.031
29.71,-0.121,0.802,0.152
29.72,-0.236,1.071,0.146
29.73,-0.264,0.699,-0.207
29.74,-0.256,1.277,-0.132
29.75,0.021,0.91,0.136
29.76,-0.202,0.894,0.154
29.77,-0.307,0.916,-0.035
29.78,-0.305,0.998,-0.198
29.79,-0.109,1.248,0.06
29.8,-0.139,0.699,0.186
29.81,-0.252,1.006,-0.005
29.82,-0.407,0.862,-0.22
29.83,-0.127,1.201,-0.046
29.84,-0.086,0.797,0.145
29.85,-0.164,0.844,0.144
29.86,-0.425,1.079,-0.185
29.87,-0.292,0.905,-0.047
29.88,-0.083,1.26,0.124
29.89,-0.169,0.636,0.095
29.9,-0.244,1.085,-0.057
29.91,-0.294,1.011,-0.215
29.92,-0.103,1.094,0.166
29.93,-0.162,0.872,0.175
29.94,-0.303,0.726,-0.021
29.95,-0.382,1.285,-0.186
29.96,-0.047,0.873,-0.01
29.97,-0.252,1.151,0.228
29.98,-0.082,0.705,0.135
29.99,-0.54,1.077,-0.282
30.0,-0.075,0.962,-0.102
30.01,-0.028,0.959,0.13
30.02,-0.308,0.954,0.17
30.03,-0.244,0.72,-0.127
30.04,-0.301,1.299,-0.168
30.05,-0.001,0.914,0.162
30.06,-0.143,1.024,0.116
30.07,-0.247,0.74,-0.03
30.08,-0.282,1.15,-0.254
30.09,-0.098,0.921,0.033
30.1,-0.076,0.96,0.177
30.11,-0.227,0.838,-0.005
30.12,-0.399,0.971,-0.177
30.13,-0.117,1.252,-0.078
30.14,-0.133,0.685,0.199
30.15,-0.153,1.075,0.109
30.16,-0.386,0.713,-0.21
30.17,-0.182,1.247,-0.065
30.18,-0.062,0.984,0.124
30.19,-0.28,0.771,0.169
30.2,-0.17,1.02,-0.027
30.21,-0.416,0.975,-0.226
30.22,-0.144,1.233,0.138
30.23,-0.027,0.729,0.11
30.24,-0.362,0.968,-0.017
30.25,-0.271,0.952,-0.174
30.26,-0.148,1.125,-0.053
30.27,-0.266,0.854,0.234
30.28,-0.04,0.782,0.088
30.29,-0.529,1.118,-0.25
30.3,-0.118,0.875,0.001
30.31,-0.135,1.228,0.174
30.32,-0.275,0.624,0.168
30.33,-0.187,1.048,-0.104
30.34,-0.37,1.063,-0.173
30.35,-0.089,1.018,0.198
30.36,-0.136,1.017,0.094
30.37,-0.315,0.646,-0.019
30.38,-0.28,1.379,-0.238
30.39,-0.032,0.874,-0.059
30.4,-0.25,1.077,0.227
30.41,-0.018,0.733,0.077
30.42,-0.47,1.067,-0.211
30.43,-0.201,1.146,-0.018
30.44,-0.086,0.823,0.126
30.45,-0.293,1.045,0.194
30.46,-0.245,0.708,-0.131
30.47,-0.414,1.291,-0.206
30.48,0.116,0.909,0.115
30.49,-0.134,0.978,0.082
30.5,-0.308,0.776,0.034
30.51,-0.321,1.075,-0.173
30.52,-0.142,1.182,-0.01
30.53,-0.065,0.721,0.159
30.54,-0.221,1.001,0.037
30.55,-0.414,0.819,-0.205
30.56,-0.064,1.324,-0.13
30.57,-0.153,0.72,0.144
30.58,-0.115,0.938,0.155
30.59,-0.381,0.926,-0.201
30.6,-0.317,0.948,-0.055
30.61,0.003,1.227,0.093
30.62,-0.121,0.615,0.114
30.63,-0.314,1.096,-0.003
30.64,-0.285,0.9,-0.268
30.65,-0.092,1.17,0.044
30.66,-0.101,0.862,0.163
30.67,-0.235,0.778,0.008
30.68,-0.43,1.171,-0.163
30.69,-0.056,0.938,-0.103
30.7,-0.15,1.05,0.161
30.71,-0.103,0.726,0.179
30.72,-0.469,1.123,-0.197
30.73,-0.272,0.907,-0.089
30.74,-0.006,1.132,0.134
30.75,-0.205,0.851,0.106
30.76,-0.21,0.822,-0.049
30.77,-0.333,1.305,-0.199
30.78,-0.159,0.842,0.173
30.79,-0.176,1.086,0.174
30.8,-0.207,0.662,-0.077
30.81,-0.359,1.198,-0.21
30.82,-0.101,0.972,-0.036
30.83,-0.166,0.894,0.184
30.84,-0.085,0.963,0.056
30.85,-0.377,0.79,-0.227
30.86,-0.168,1.359,-0.043
30.87,-0.047,0.767,0.141
30.88,-0.266,1.01,0.179
30.89,-0.268,0.784,-0.066
30.9,-0.421,1.264,-0.134
30.91,0.087,0.97,0.071
30.92,-0.133,0.835,0.074
30.93,-0.237,0.919,0.04
30.94,-0.351,0.998,-0.206
30.95,-0.178,1.187,0.044
30.96,-0.03,0.746,0.165
30.97,-0.222,1.011,0.007
30.98,-0.374,0.839,-0.151
30.99,-0.163,1.244,-0.043
31.0,-0.195,0.801,0.183
31.01,-0.14,0.863,0.188
31.02,-0.382,1.057,-0.19
31.03,-0.34,0.902,-0.042
31.04,0.002,1.302,0.124
31.05,-0.218,0.603,0.08
31.06,-0.231,1.052,-0.012
31.07,-0.361,0.976,-0.238
31.08,-0.123,1.107,0.135
31.09,-0.132,0.926,0.158
31.1,-0.295,0.733,0.011
31.11,-0.354,1.273,-0.241
31.12,-0.042,0.832,-0.085
31.13,-0.155,1.114,0.221
31.14,-0.102,0.724,0.128
31.15,-0.452,1.057,-0.204
31.16,-0.183,1.073,-0.096
31.17,-0.012,0.978,0.131
31.18,-0.255,0.919,0.209
31.19,-0.224,0.726,-0.055
31.2,-0.336,1.351,-0.227
31.21,-0.124,0.854,0.146
31.22,-0.143,1.048,0.139
31.23,-0.199,0.714,-0.005
31.24,-0.415,1.18,-0.207
31.25,-0.051,1.059,-0.083
31.26,-0.242,0.822,0.193
31.27,-0.134,1.056,0.104
31.28,-0.347,0.693,-0.211
31.29,-0.21,1.365,-0.075
31.3,-0.062,0.816,0.117
31.31,-0.24,0.914,0.19
31.32,-0.26,0.838,-0.101
31.33,-0.34,1.063,-0.219
31.34,0.071,1.248,0.034
31.35,-0.048,0.64,0.087
31.36,-0.341,1.032,0.086
31.37,-0.358,0.88,-0.181
31.38,-0.173,1.193,-0.011
31.39,-0.161,0.766,0.225
31.4,-0.163,0.901,0.092
31.41,-0.414,1.02,-0.192
31.42,-0.235,1.012,-0.05
31.43,-0.109,1.123,0.134
31.44,-0.157,0.607,0.197
31.45,-0.355,1.143,-0.093
31.46,-0.248,0.864,-0.256
31.47,-0.015,1.151,0.127
31.48,-0.146,0.784,0.151
31.49,-0.283,0.775,0.031
31.5,-0.341,1.233,-0.254
31.51,-0.029,0.861,-0.026
31.52,-0.187,1.156,0.204
31.53,-0.08,0.658,0.042
31.54,-0.48,1.167,-0.182
31.55,-0.093,0.956,-0.098
31.56,-0.084,1.01,0.096
31.57,-0.19,0.896,0.135
31.58,-0.228,0.813,-0.18
31.59,-0.266,1.234,-0.21
31.6,0.023,0.906,0.122
31.61,-0.148,1.062,0.098
31.62,-0.227,0.701,0.026
31.63,-0.431,1.245,-0.21
31.64,-0.103,0.948,-0.066
31.65,-0.115,0.916,0.173
31.66,-0.186,0.95,0.037
31.67,-0.397,0.815,-0.201
31.68,-0.166,1.356,-0.063
31.69,-0.065,0.696,0.123
31.7,-0.194,1.009,0.177
31.71,-0.289,0.728,-0.182
31.72,-0.308,1.239,-0.087
31.73,-0.0,1.032,0.132
31.74,-0.195,0.815,0.109
31.75,-0.232,0.934,0.034
31.76,-0.476,1.036,-0.201
31.77,-0.123,1.162,0.04
31.78,-0.067,0.711,0.144
31.79,-0.248,1.013,0.034
31.8,-0.312,0.848,-0.192
31.81,-0.135,1.248,-0.073
31.82,-0.087,0.818,0.114
31.83,-0.165,0.83,0.122
31.84,-0.388,1.042,-0.169
31.85,-0.279,0.922,-0.122
31.86,-0.002,1.224,0.085
31.87,-0.13,0.601,0.12
31.88,-0.318,1.077,-0.031
31.89,-0.342,0.973,-0.212
31.9,-0.173,1.03,0.066
31.91,-0.061,0.94,0.16
31.92,-0.203,0.704,0.017
31.93,-0.465,1.227,-0.201
31.94,-0.055,0.89,-0.033
31.95,-0.184,1.118,0.155
31.96,-0.135,0.704,0.157
31.97,-0.379,1.055,-0.24
31.98,-0.226,1.002,-0.148
31.99,0.05,1.034,0.129
32.0,-0.186,0.984,0.138
32.01,-0.274,0.691,-0.024
32.02,-0.352,1.348,-0.256
32.03,-0.021,0.821,0.053
32.04,-0.12,1.095,0.17
32.05,-0.202,0.73,0.015
32.06,-0.461,1.05,-0.204
32.07,-0.045,1.16,-0.069
32.08,-0.097,0.762,0.168
32.09,-0.196,1.058,0.109
32.1,-0.384,0.746,-0.207
32.11,-0.267,1.29,-0.054
32.12,0.055,0.891,0.128
32.13,-0.191,0.922,0.101
32.14,-0.204,0.851,-0.119
32.15,-0.284,1.07,-0.188
32.16,-0.1,1.191,0.165
32.17,-0.156,0.662,0.185
32.18,-0.396,1.031,0.025
32.19,-0.305,0.9,-0.205
32.2,-0.133,1.25,-0.072
32.21,-0.034,0.747,0.158
32.22,-0.155,0.882,0.078
32.23,-0.522,1.026,-0.157
32.24,-0.138,0.932,-0.04
32.25,-0.163,1.15,0.168
32.26,-0.162,0.66,0.177
32.27,-0.334,1.098,-0.164
32.28,-0.326,0.953,-0.107
32.29,0.037,1.194,0.1
32.3,-0.216,0.785,0.132
32.31,-0.211,0.829,0.042
32.32,-0.419,1.29,-0.232
32.33,-0.163,0.843,0.099
32.34,-0.165,1.171,0.15
32.35,-0.129,0.617,0.003
32.36,-0.45,1.197,-0.195
32.37,-0.153,0.951,-0.079
32.38,-0.105,0.943,0.121
32.39,-0.136,0.938,0.14
32.4,-0.314,0.769,-0.172
32.41,-0.269,1.274,-0.12
32.42,-0.007,0.912,0.117
32.43,-0.163,0.977,0.098
32.44,-0.225,0.734,0.022
32.45,-0.414,1.223,-0.238
32.46,-0.148,0.986,0.053
32.47,-0.075,0.906,0.147
32.48,-0.196,0.971,-0.005
32.49,-0.437,0.84,-0.139
32.5,-0.182,1.278,-0.05
32.51,-0.089,0.728,0.127
32.52,-0.172,1.074,0.094
32.53,-0.332,0.719,-0.253
32.54,-0.155,1.256,-0.099
32.55,-0.064,0.905,0.14
32.56,-0.21,0.834,0.206
32.57,-0.211,0.957,-0.096
32.58,-0.346,0.934,-0.208
32.59,-0.037,1.285,0.087
32.6,-0.081,0.646,0.097
32.61,-0.358,1.033,0.085
32.62,-0.306,0.94,-0.214
32.63,-0.145,1.114,-0.062
32.64,-0.173,0.866,0.217
32.65,-0.176,0.793,0.107
32.66,-0.43,1.061,-0.16
32.67,-0.221,0.939,-0.079
32.68,-0.055,1.154,0.105
32.69,-0.183,0.642,0.167
32.7,-0.3,1.066,-0.043
32.71,-0.298,0.983,-0.219
32.72,-0.114,1.064,0.124
32.73,-0.144,0.96,0.127
32.74,-0.163,0.687,-0.047
32.75,-0.482,1.303,-0.18
32.76,-0.091,0.866,-0.059
32.77,-0.182,1.094,0.169
32.78,-0.082,0.72,0.122
32.79,-0.47,1.062,-0.204
32.8,-0.207,1.08,-0.034
32.81,-0.038,0.973,0.144
32.82,-0.238,0.93,0.153
32.83,-0.186,0.756,-0.089
32.84,-0.376,1.284,-0.259
32.85,-0.053,0.852,0.16
32.86,-0.149,1.096,0.185
32.87,-0.338,0.703,0.044
32.88,-0.351,1.046,-0.189
32.89,-0.092,1.162,-0.117
32.9,-0.039,0.79,0.156
32.91,-0.163,1.049,0.074
32.92,-0.415,0.683,-0.211
32.93,-0.146,1.301,-0.087
32.94,-0.008,0.876,0.134
32.95,-0.193,0.902,0.162
32.96,-0.244,0.914,-0.097
32.97,-0.363,1.019,-0.145
32.98,-0.11,1.206,0.089
32.99,-0.062,0.647,0.132
33.0,-0.255,1.077,0.014
33.01,-0.393,0.905,-0.231
33.02,-0.104,1.123,-0.053
33.03,-0.098,0.887,0.155
33.04,-0.205,0.833,0.127
33.05,-0.354,1.03,-0.181
33.06,-0.124,0.953,-0.079
33.07,-0.108,1.158,0.135
33.08,-0.171,0.625,0.191
33.09,-0.268,1.062,-0.083
33.1,-0.314,0.893,-0.242
33.11,-0.081,1.187,0.118
33.12,-0.123,0.927,0.108
33.13,-0.216,0.767,0.015
33.14,-0.367,1.256,-0.194
33.15,-0.085,0.837,-0.08
33.16,-0.124,1.076,0.148
33.17,-0.069,0.728,0.121
33.18,-0.471,1.052,-0.187
33.19,-0.237,0.999,-0.06
33.2,-0.049,1.059,0.114
33.21,-0.207,0.89,0.132
33.22,-0.192,0.771,-0.067
33.23,-0.392,1.296,-0.179
33.24,-0.099,0.845,0.125
33.25,-0.151,1.112,0.101
33.26,-0.14,0.675,0.029
33.27,-0.432,1.244,-0.198
33.28,-0.106,1.03,-0.079
33.29,-0.207,0.835,0.204
33.3,-0.196,1.036,0.148
33.31,-0.324,0.757,-0.212
33.32,-0.261,1.303,-0.096
33.33,-0.081,0.784,0.131
33.34,-0.202,1.047,0.136
33.35,-0.187,0.719,-0.122
33.36,-0.316,1.19,-0.23
33.37,-0.045,0.989,0.107
33.38,-0.2,0.886,0.153
33.39,-0.157,0.866,0.006
33.4,-0.374,0.96,-0.161
33.41,-0.136,1.252,-0.056
33.42,-0.08,0.678,0.136
33.43,-0.178,1.069,0.101
33.44,-0.319,0.805,-0.205
33.45,-0.236,1.144,-0.078
33.46,-0.057,1.039,0.113
33.47,-0.154,0.676,0.104
33.48,-0.221,1.057,-0.028
33.49,-0.391,0.876,-0.203
33.5,-0.19,1.235,0.102
33.51,-0.044,0.747,0.141
33.52,-0.336,0.949,-0.018
33.53,-0.248,0.96,-0.227
33.54,-0.128,1.081,-0.046
33.55,-0.176,1.01,0.188
33.56,-0.082,0.709,0.145
33.57,-0.422,1.086,-0.215
33.58,-0.164,0.877,-0.085
33.59,-0.066,1.222,0.084
33.6,-0.169,0.667,0.133
33.61,-0.28,0.946,0.023
33.62,-0.366,1.136,-0.199
33.63,-0.186,0.924,0.06
33.64,-0.077,1.144,0.177
33.65,-0.157,0.605,0.022
33.66,-0.398,1.233,-0.158
33.67,-0.194,0.945,-0.082
33.68,-0.128,1.012,0.062
33.69,-0.101,0.864,0.194
33.7,-0.377,0.819,-0.143
33.71,-0.342,1.101,-0.121
33.72,-0.045,1.014,0.137
33.73,-0.158,1.045,0.093
33.74,-0.183,0.638,0.015
33.75,-0.28,1.338,-0.239
33.76,-0.098,0.873,0.002
33.77,-0.13,1.03,0.212
33.78,-0.22,0.84,0.072
33.79,-0.474,0.856,-0.108
33.8,-0.15,1.385,-0.092
33.81,-0.03,0.706,0.064
33.82,-0.238,1.027,0.208
33.83,-0.154,0.755,-0.136
33.84,-0.369,1.172,-0.159
33.85,-0.094,1.025,0.186
33.86,-0.125,0.88,0.1
33.87,-0.318,0.927,-0.037
33.88,-0.302,0.94,-0.162
33.89,-0.183,1.264,-0.087
33.9,-0.16,0.691,0.212
33.91,-0.056,1.061,0.078
33.92,-0.388,0.814,-0.208
33.93,-0.169,1.131,-0.057
33.94,-0.039,1.036,0.065
33.95,-0.205,0.673,0.187
33.96,-0.262,1.102,-0.052
33.97,-0.333,0.86,-0.211
33.98,-0.225,1.22,0.143
33.99,-0.068,0.742,0.161
34.0,-0.277,0.918,0.011
34.01,-0.323,1.018,-0.166
34.02,-0.129,1.051,-0.044
34.03,-0.158,1.0,0.11
34.04,-0.067,0.73,0.132
34.05,-0.359,1.117,-0.181
34.06,-0.342,0.877,-0.081
34.07,-0.001,1.247,0.045
34.08,-0.121,0.712,0.075
34.09,-0.292,0.933,0.007
34.1,-0.321,1.101,-0.286
34.11,-0.01,0.912,0.007
34.12,-0.128,1.154,0.177
34.13,-0.163,0.616,0.078
34.14,-0.446,1.235,-0.162
34.15,-0.184,0.924,-0.055
34.16,-0.179,1.114,0.154
34.17,-0.133,0.743,0.184
34.18,-0.43,1.034,-0.13
34.19,-0.281,0.98,-0.181
34.2,-0.012,1.064,0.112
34.21,-0.14,0.933,0.074
34.22,-0.26,0.725,0.056
34.23,-0.419,1.318,-0.217
34.24,-0.137,0.791,-0.009
34.25,-0.073,1.158,0.165
34.26,-0.172,0.754,0.043
34.27,-0.476,1.174,-0.113
34.28,-0.118,1.0,-0.113
34.29,-0.176,0.944,0.132
34.3,-0.102,0.961,0.128
34.31,-0.307,0.81,-0.162
34.32,-0.35,1.218,-0.091
34.33,0.039,0.907,0.078
34.34,-0.17,1.027,0.134
34.35,-0.252,0.715,0.017
34.36,-0.332,1.216,-0.246
34.37,-0.136,0.953,-0.053
34.38,-0.079,0.961,0.214
34.39,-0.21,0.971,0.058
34.4,-0.411,0.796,-0.144
34.41,-0.159,1.376,-0.068
34.42,-0.065,0.764,0.092
34.43,-0.241,0.98,0.21
34.44,-0.256,0.793,-0.081
34.45,-0.304,1.073,-0.22
34.46,-0.059,1.155,0.083
34.47,-0.141,0.737,0.133
34.48,-0.258,1.022,0.036
34.49,-0.331,0.935,-0.167
34.5,-0.209,1.221,-0.046
34.51,-0.101,0.733,0.207
34.52,-0.154,0.988,0.074
34.53,-0.376,0.906,-0.179
34.54,-0.267,0.975,-0.061
34.55,-0.087,1.184,0.116
34.56,-0.144,0.595,0.104
34.57,-0.346,1.094,-0.028
34.58,-0.308,0.851,-0.218
34.59,-0.186,1.206,0.044
34.6,-0.063,0.871,0.186
34.61,-0.194,0.789,0.017
34.62,-0.402,1.058,-0.172
34.63,-0.126,0.988,-0.052
34.64,-0.309,0.779,0.06
34.65,-0.341,1.271,-0.221
34.66,-0.045,0.857,0.0
34.67,-0.189,1.135,0.175
34.68,-0.069,0.677,0.079
34.69,-0.482,1.183,-0.206
34.7,-0.127,0.99,-0.072
34.71,-0.121,0.998,0.158
34.72,-0.178,0.935,0.173
34.73,-0.283,0.792,-0.099
34.74,-0.344,1.228,-0.215
34.75,0.056,0.913,0.104
34.76,-0.208,1.066,0.167
34.77,-0.215,0.659,0.04
34.78,-0.464,1.237,-0.177
34.79,-0.122,1.009,-0.05
34.8,-0.19,0.865,0.183
34.81,-0.132,1.018,0.099
34.82,-0.326,0.721,-0.226
34.83,-0.304,1.256,-0.078
34.84,0.023,0.893,0.109
34.85,-0.254,0.943,0.107
34.86,-0.216,0.808,-0.001
34.87,-0.332,1.104,-0.232
34.88,-0.176,1.057,0.061
34.89,-0.032,0.855,0.181
34.9,-0.231,0.9,-0.021
34.91,-0.416,0.886,-0.131
34.92,-0.065,1.323,-0.122
34.93,-0.118,0.667,0.111
34.94,-0.109,1.093,0.115
34.95,-0.303,0.797,-0.222
34.96,-0.324,1.096,-0.064
34.97,0.005,1.108,0.129
34.98,-0.186,0.749,0.057
34.99,-0.258,1.026,-0.009
35.0,-0.276,0.88,-0.213
35.01,-0.217,1.261,0.091
35.02,-0.06,0.702,0.163
35.03,-0.114,0.961,-0.028
35.04,-0.454,0.951,-0.158
35.05,-0.01,1.073,-0.086
35.06,-0.183,0.987,0.138
35.07,-0.148,0.742,0.177
35.08,-0.367,1.147,-0.159
35.09,-0.373,0.786,-0.091
35.1,-0.037,1.29,0.129
35.11,-0.184,0.698,0.1
35.12,-0.294,0.902,0.062
35.13,-0.276,1.163,-0.192
35.14,-0.103,0.943,0.014
35.15,-0.208,1.054,0.213
35.16,-0.064,0.669,0.039
35.17,-0.513,1.18,-0.194
35.18,-0.102,0.933,-0.022
35.19,-0.153,1.101,0.119
35.2,-0.269,0.801,0.157
35.21,-0.206,0.918,-0.114
35.22,-0.333,1.146,-0.229
35.23,-0.012,0.924,0.146
35.24,-0.09,1.12,0.128
35.25,-0.329,0.593,0.047
35.26,-0.322,1.299,-0.169
35.27,-0.098,0.977,-0.092
35.28,-0.24,0.922,0.237
35.29,-0.059,0.881,0.118
35.3,-0.448,0.887,-0.237
35.31,-0.22,1.213,-0.043
35.32,-0.062,0.83,0.127
35.33,-0.235,1.05,0.117
35.34,-0.149,0.709,-0.098
35.35,-0.285,1.239,-0.229
35.36,-0.158,1.007,0.132
35.37,-0.067,0.886,0.13
35.38,-0.217,0.928,0.025
35.39,-0.424,0.913,-0.135
35.4,-0.165,1.253,-0.103
35.41,-0.157,0.726,0.151
35.42,-0.123,1.06,0.112
35.43,-0.337,0.792,-0.196
35.44,-0.295,1.07,-0.096
35.45,0.038,1.074,0.073
35.46,-0.213,0.692,0.157
35.47,-0.322,1.041,0.069
35.48,-0.295,0.912,-0.222
35.49,-0.187,1.243,0.027
35.5,-0.088,0.795,0.202
35.51,-0.218,0.941,0.023
35.52,-0.417,0.93,-0.159
35.53,-0.075,1.1,-0.067
35.54,-0.155,0.977,0.078
35.55,-0.146,0.657,0.18
35.56,-0.276,1.193,-0.164
35.57,-0.309,0.813,-0.198
35.58,-0.003,1.263,0.151
35.59,-0.131,0.753,0.088
35.6,-0.289,0.89,-0.027
35.61,-0.348,1.139,-0.197
35.62,-0.108,0.875,-0.049
35.63,-0.135,1.099,0.195
35.64,-0.112,0.672,0.108
35.65,-0.467,1.179,-0.219
35.66,-0.141,0.895,-0.049
35.67,-0.123,1.178,0.085
35.68,-0.227,0.777,0.13
35.69,-0.216,0.88,-0.039
35.7,-0.385,1.193,-0.188
35.71,-0.1,1.027,0.153
35.72,-0.097,1.027,0.099
35.73,-0.265,0.687,0.038
35.74,-0.352,1.357,-0.233
35.75,-0.088,0.828,-0.049
35.76,-0.157,1.104,0.154
35.77,-0.068,0.781,0.097
35.78,-0.453,0.99,-0.207
35.79,-0.249,1.14,-0.063
35.8,-0.009,0.895,0.032
35.81,-0.192,1.014,0.152
35.82,-0.178,0.704,-0.087
35.83,-0.352,1.305,-0.213
35.84,-0.128,0.872,0.114
35.85,-0.075,1.06,0.126
35.86,-0.146,0.746,0.02
35.87,-0.408,1.025,-0.198
35.88,-0.083,1.196,-0.083
35.89,-0.135,0.737,0.129
35.9,-0.216,1.055,0.199
35.91,-0.302,0.724,-0.168
35.92,-0.292,1.223,-0.139
35.93,0.004,0.969,0.085
35.94,-0.144,0.837,0.132
35.95,-0.284,0.903,0.045
35.96,-0.408,0.99,-0.203
35.97,-0.133,1.192,-0.015
35.98,0.007,0.785,0.137
35.99,-0.158,1.0,0.042
36.0,-0.429,0.821,-0.172
36.01,-0.123,1.219,-0.107
36.02,-0.024,0.896,0.076
36.03,-0.149,0.8,0.16
36.04,-0.346,1.085,-0.093
36.05,-0.332,0.845,-0.127
36.06,0.016,1.305,0.074
36.07,-0.072,0.611,0.105
36.08,-0.289,0.999,0.052
36.09,-0.315,1.022,-0.264
36.1,-0.115,0.999,-0.086
36.11,-0.138,1.024,0.177
36.12,-0.097,0.696,0.075
36.13,-0.482,1.191,-0.197
36.14,-0.084,0.886,-0.082
36.15,-0.125,1.191,0.073
36.16,-0.183,0.677,0.233
36.17,-0.287,0.996,-0.078
36.18,-0.31,0.991,-0.245
36.19,-0.006,1.07,0.112
36.2,-0.199,1.014,0.109
36.21,-0.172,0.625,0.064
36.22,-0.45,1.403,-0.198
36.23,-0.091,0.795,-0.071
36.24,-0.279,1.098,0.22
36.25,-0.081,0.804,0.12
36.26,-0.436,0.943,-0.22
36.27,-0.246,1.121,-0.106
36.28,-0.012,0.95,0.071
36.29,-0.23,1.008,0.114
36.3,-0.224,0.686,-0.012
36.31,-0.345,1.32,-0.242
36.32,-0.136,0.852,0.068
36.33,-0.083,1.059,0.179
36.34,-0.132,0.823,0.037
36.35,-0.477,0.936,-0.171
36.36,-0.07,1.302,-0.074
36.37,-0.104,0.733,0.071
36.38,-0.235,1.062,0.207
36.39,-0.186,0.733,-0.162
36.4,-0.386,1.201,-0.164
36.41,0.089,1.01,0.085
36.42,-0.132,0.847,0.103
36.43,-0.297,0.937,0.051
36.44,-0.286,0.937,-0.213
36.45,-0.116,1.207,-0.093
36.46,-0.05,0.74,0.198
36.47,-0.136,1.061,0.06
36.48,-0.376,0.827,-0.162
36.49,-0.266,1.178,-0.046
36.5,-0.064,0.92,0.092
36.51,-0.188,0.768,0.211
36.52,-0.257,0.926,-0.119
36.53,-0.323,0.933,-0.14
36.54,-0.114,1.262,0.134
36.55,-0.108,0.645,0.115
36.56,-0.318,1.047,0.032
36.57,-0.332,0.936,-0.188
36.58,-0.08,1.122,-0.087
36.59,-0.111,0.845,0.222
36.6,-0.198,0.863,0.106
36.61,-0.372,1.015,-0.208
36.62,-0.185,0.952,-0.029
36.63,-0.136,1.187,0.091
36.64,-0.137,0.58,0.14
36.65,-0.297,1.119,-0.062
36.66,-0.349,0.885,-0.234
36.67,-0.098,1.087,0.092
36.68,-0.102,0.993,0.103
36.69,-0.143,0.708,-0.014
36.7,-0.412,1.249,-0.154
36.71,-0.13,0.903,-0.027
36.72,-0.242,1.107,0.14
36.73,-0.061,0.739,0.149
36.74,-0.423,1.054,-0.22
36.75,-0.261,0.972,-0.047
36.76,-0.095,1.133,0.137
36.77,-0.216,0.883,0.095
36.78,-0.152,0.715,-0.021
36.79,-0.38,1.311,-0.224
36.8,-0.137,0.78,0.048
36.81,-0.083,1.19,0.144
36.82,-0.131,0.693,0.018
36.83,-0.449,1.053,-0.119
36.84,-0.112,1.144,-0.089
36.85,-0.134,0.81,0.073
36.86,-0.172,1.08,0.185
36.87,-0.333,0.671,-0.095
36.88,-0.373,1.22,-0.167
36.89,0.056,0.966,0.07
36.9,-0.232,0.932,0.098
36.91,-0.173,0.781,0.038
36.92,-0.307,1.156,-0.25
36.93,-0.135,1.071,-0.079
36.94,-0.11,0.769,0.226
36.95,-0.192,1.092,0.083
36.96,-0.4,0.71,-0.169
36.97,-0.273,1.258,-0.05
36.98,-0.004,0.883,0.106
36.99,-0.224,0.885,0.168
37.0,-0.202,0.947,-0.061
37.01,-0.342,0.952,-0.167
37.02,-0.144,1.206,0.101
37.03,-0.078,0.753,0.12
37.04,-0.252,1.016,-0.005
37.05,-0.391,0.912,-0.133
37.06,-0.187,1.191,-0.059
37.07,-0.198,0.804,0.141
37.08,-0.057,0.883,0.159
37.09,-0.394,1.039,-0.211
37.1,-0.251,0.838,-0.041
37.11,0.019,1.347,0.081
37.12,-0.214,0.546,0.17
37.13,-0.292,1.075,0.082
37.14,-0.32,1.01,-0.276
37.15,-0.194,0.989,-0.028
37.16,-0.021,0.981,0.192
37.17,-0.21,0.75,0.064
37.18,-0.563,1.164,-0.178
37.19,0.039,0.899,-0.089
37.2,-0.153,1.203,0.09
37.21,-0.175,0.629,0.207
37.22,-0.264,1.059,-0.106
37.23,-0.367,0.976,-0.18
37.24,-0.002,1.073,0.116
37.25,-0.148,1.016,0.105
37.26,-0.335,0.661,0.035
37.27,-0.329,1.345,-0.244
37.28,-0.019,0.835,-0.062
37.29,-0.226,1.111,0.164
37.3,0.001,0.782,0.122
37.31,-0.494,0.996,-0.189
37.32,-0.221,1.082,-0.035
37.33,-0.12,1.067,0.105
37.34,-0.234,0.858,0.152
37.35,-0.196,0.839,-0.062
37.36,-0.405,1.286,-0.173
37.37,-0.159,0.826,0.161
37.38,-0.05,1.164,0.123
37.39,-0.246,0.614,-0.009
37.4,-0.389,1.232,-0.14
37.41,-0.061,1.064,-0.082
37.42,-0.283,0.798,0.191
37.43,-0.062,1.038,0.166
37.44,-0.394,0.772,-0.216
37.45,-0.325,1.239,0.021
37.46,-0.022,0.868,0.126
37.47,-0.22,0.946,0.073
37.48,-0.163,0.817,-0.026
37.49,-0.332,1.124,-0.229
37.5,-0.224,1.038,0.099
37.51,-0.033,0.867,0.192
37.52,-0.243,0.974,-0.039
37.53,-0.402,0.778,-0.144
37.54,-0.135,1.318,-0.07
37.55,-0.102,0.742,0.095
37.56,-0.126,0.969,0.168
37.57,-0.303,0.916,-0.2
37.58,-0.317,1.037,-0.079
37.59,-0.021,1.175,0.047
37.6,-0.076,0.61,0.119
37.61,-0.301,1.099,0.033
37.62,-0.382,0.937,-0.238
37.63,-0.114,1.119,0.007
37.64,-0.086,0.885,0.165
37.65,-0.247,0.851,0.099
37.66,-0.395,1.097,-0.168
37.67,-0.124,1.013,-0.072
37.68,-0.175,1.053,0.109
37.69,-0.173,0.663,0.181
37.7,-0.369,1.139,-0.089
37.71,-0.307,0.863,-0.244
37.72,-0.049,1.177,0.126
37.73,-0.125,0.837,0.104
37.74,-0.29,0.756,0.017
37.75,-0.326,1.288,-0.204
37.76,-0.115,0.818,-0.064
37.77,-0.177,1.087,0.178
37.78,-0.052,0.702,0.101
37.79,-0.538,1.078,-0.242
37.8,-0.135,0.986,-0.044
37.81,-0.093,1.122,0.09
37.82,-0.252,0.819,0.092
37.83,-0.157,0.809,-0.038
37.84,-0.398,1.343,-0.222
37.85,-0.116,0.807,0.092
37.86,-0.033,1.155,0.143
37.87,-0.24,0.658,0.039
37.88,-0.442,1.151,-0.136
37.89,-0.083,1.079,-0.063
37.9,-0.23,0.818,0.152
37.91,-0.17,1.041,0.154
37.92,-0.361,0.709,-0.24
37.93,-0.324,1.245,-0.102
37.94,0.061,0.893,0.115
37.95,-0.237,0.937,0.102
37.96,-0.191,0.788,0.014
37.97,-0.402,1.177,-0.159
37.98,-0.17,1.035,0.03
37.99,0.002,0.839,0.148
38.0,-0.208,1.04,-0.031
38.01,-0.434,0.817,-0.125
38.02,-0.129,1.303,-0.055
38.03,-0.167,0.699,0.146
38.04,-0.118,0.982,0.146
38.05,-0.324,0.94,-0.193
38.06,-0.329,0.967,-0.116
38.07,0.031,1.264,0.108
38.08,-0.111,0.61,0.102
38.09,-0.301,1.072,0.021
38.1,-0.321,0.955,-0.268
38.11,-0.108,1.078,-0.029
38.12,-0.098,0.85,0.189
38.13,-0.149,0.819,0.014
38.14,-0.377,0.92,-0.153
38.15,-0.153,1.123,-0.025
38.16,-0.193,0.924,0.138
38.17,-0.111,0.761,0.161
38.18,-0.365,1.146,-0.18
38.19,-0.312,0.879,-0.089
38.2,-0.018,1.249,0.084
38.21,-0.133,0.664,0.15
38.22,-0.291,0.955,-0.015
38.23,-0.308,1.118,-0.254
38.24,-0.146,0.931,0.051
38.25,-0.153,1.097,0.187
38.26,-0.092,0.656,-0.005
38.27,-0.472,1.217,-0.178
38.28,-0.045,0.908,-0.103
38.29,-0.121,1.062,0.1
38.3,-0.141,0.797,0.187
38.31,-0.378,0.951,-0.141
38.32,-0.229,1.111,-0.192
38.33,0.032,1.038,0.143
38.34,-0.185,1.037,0.094
38.35,-0.201,0.656,0.025
38.36,-0.368,1.35,-0.235
38.37,-0.082,0.85,-0.032
38.38,-0.124,1.019,0.236
38.39,-0.149,0.837,0.036
38.4,-0.458,0.892,-0.196
38.41,-0.121,1.286,-0.06
38.42,-0.104,0.728,0.126
38.43,-0.258,1.052,0.217
38.44,-0.25,0.709,-0.137
38.45,-0.314,1.189,-0.19
38.46,0.014,1.03,0.135
38.47,-0.209,0.84,0.142
38.48,-0.276,0.932,0.015
38.49,-0.359,0.991,-0.197
38.5,-0.145,1.237,-0.027
38.51,-0.088,0.644,0.154
38.52,-0.182,1.069,0.072
38.53,-0.364,0.851,-0.206
38.54,-0.203,1.153,-0.026
38.55,-0.078,0.984,0.14
38.56,-0.141,0.72,0.092
38.57,-0.334,1.107,-0.085
38.58,-0.28,0.893,-0.146
38.59,-0.173,1.29,0.133
38.6,-0.09,0.628,0.132
38.61,-0.25,0.987,-0.024
38.62,-0.312,1.022,-0.206
38.63,-0.098,1.024,-0.016
38.64,-0.167,0.946,0.195
38.65,-0.108,0.73,0.11
38.66,-0.474,1.185,-0.211
38.67,-0.226,0.897,-0.03
38.68,-0.08,1.212,0.081
38.69,-0.096,0.684,0.116
38.7,-0.318,1.014,-0.07
38.71,-0.345,1.11,-0.194
38.72,-0.047,0.964,0.159
38.73,-0.13,1.07,0.112
38.74,-0.183,0.612,-0.014
38.75,-0.405,1.338,-0.175
38.76,-0.147,0.851,-0.039
38.77,-0.168,1.015,0.173
38.78,-0.101,0.827,0.103
38.79,-0.467,0.949,-0.198
38.8,-0.246,1.174,-0.019
38.81,-0.034,0.915,0.131
38.82,-0.184,0.994,0.119
38.83,-0.184,0.705,-0.074
38.84,-0.364,1.307,-0.197
38.85,-0.088,0.95,0.115
38.86,-0.108,0.943,0.118
38.87,-0.259,0.812,-0.034
38.88,-0.366,1.002,-0.125
38.89,-0.181,1.243,-0.024
38.9,-0.12,0.679,0.197
38.91,-0.094,1.069,0.052
38.92,-0.378,0.775,-0.223
38.93,-0.252,1.23,-0.023
38.94,-0.046,0.957,0.108
38.95,-0.253,0.93,0.163
38.96,-0.179,0.88,-0.145
38.97,-0.375,1.047,-0.15
38.98,-0.013,1.152,0.167
38.99,-0.156,0.714,0.145
39.0,-0.391,1.015,0.017
39.01,-0.275,0.894,-0.216
39.02,-0.137,1.244,-0.053
39.03,-0.066,0.747,0.222
39.04,-0.164,0.898,0.059
39.05,-0.449,1.008,-0.245
39.06,-0.029,0.979,-0.069
39.07,-0.177,1.109,0.147
39.08,-0.187,0.643,0.198
39.09,-0.293,1.158,-0.106
39.1,-0.389,0.898,-0.157
39.11,0.002,1.176,0.117
39.12,-0.139,0.766,0.078
39.13,-0.226,0.825,0.005
39.14,-0.318,1.23,-0.218
39.15,-0.17,0.834,-0.021
39.16,-0.055,1.1,0.188
39.17,-0.134,0.682,0.068
39.18,-0.531,1.212,-0.163
39.19,-0.056,0.95,-0.125
39.2,-0.142,1.03,0.096
39.21,-0.132,0.859,0.189
39.22,-0.331,0.804,-0.172
39.23,-0.318,1.226,-0.127
39.24,0.042,0.893,0.135
39.25,-0.173,1.057,0.143
39.26,-0.304,0.69,0.058
39.27,-0.346,1.27,-0.229
39.28,-0.144,0.977,0.003
39.29,-0.143,0.918,0.192
39.3,-0.19,0.898,-0.013
39.31,-0.42,0.854,-0.183
39.32,-0.167,1.309,-0.057
39.33,-0.073,0.742,0.14
39.34,-0.13,1.052,0.109
39.35,-0.249,0.769,-0.2
39.36,-0.375,1.184,-0.066
39.37,0.003,1.034,0.058
39.38,-0.156,0.697,0.088
39.39,-0.318,1.057,-0.021
39.4,-0.277,0.879,-0.246
39.41,-0.163,1.236,0.048
39.42,-0.054,0.761,0.181
39.43,-0.21,0.957,0.027
39.44,-0.38,0.917,-0.187
39.45,-0.153,1.086,-0.061
39.46,-0.152,0.955,0.074
39.47,-0.055,0.751,0.137
39.48,-0.442,1.139,-0.171
39.49,-0.346,0.873,0.003
39.5,-0.12,1.301,0.091
39.51,-0.149,0.634,0.077
39.52,-0.212,0.945,0.019
39.53,-0.345,1.16,-0.246
39.54,-0.114,0.904,0.011
39.55,-0.082,1.119,0.105
39.56,-0.14,0.615,0.036
39.57,-0.458,1.262,-0.167
39.58,-0.08,0.917,-0.026
39.59,-0.194,1.064,0.144
39.6,-0.081,0.819,0.14
39.61,-0.406,0.922,-0.152
39.62,-0.289,1.152,-0.134
39.63,0.045,0.952,0.092
39.64,-0.225,1.006,0.076
39.65,-0.186,0.694,-0.021
39.66,-0.406,1.294,-0.278
39.67,-0.107,0.852,0.062
39.68,-0.053,1.048,0.188
39.69,-0.232,0.848,0.026
39.7,-0.408,0.909,-0.128
39.71,-0.156,1.323,-0.066
39.72,-0.159,0.649,0.158
39.73,-0.195,1.083,0.167
39.74,-0.248,0.769,-0.191
39.75,-0.298,1.156,-0.123
39.76,-0.026,1.011,0.134
39.77,-0.237,0.932,0.144
39.78,-0.234,0.856,-0.052
39.79,-0.385,1.066,-0.18
39.8,-0.086,1.126,0.072
39.81,-0.061,0.804,0.16
39.82,-0.271,1.013,-0.042
39.83,-0.354,0.834,-0.121
39.84,-0.16,1.249,-0.039
39.85,-0.157,0.736,0.143
39.86,-0.135,0.926,0.117
39.87,-0.377,0.966,-0.233
39.88,-0.224,0.944,-0.038
39.89,-0.101,1.217,0.112
39.9,-0.132,0.566,0.101
39.91,-0.255,1.118,-0.052
39.92,-0.324,0.932,-0.182
39.93,-0.2,1.174,0.164
39.94,-0.145,0.799,0.162
39.95,-0.275,0.785,0.039
39.96,-0.398,1.227,-0.199
39.97,-0.091,0.862,-0.019
39.98,-0.211,1.141,0.165
39.99,-0.082,0.69,0.091
40.0,-0.446,1.109,-0.192
40.01,-0.234,0.954,-0.08
40.02,-0.009,1.092,0.08
40.03,-0.138,0.863,0.1
40.04,-0.259,0.795,-0.005
40.05,-0.338,1.292,-0.19
40.06,-0.13,0.864,0.077
40.07,-0.146,1.108,0.14
40.08,-0.127,0.69,-0.023
40.09,-0.501,1.202,-0.156
40.1,-0.042,0.987,-0.058
40.11,-0.173,0.933,0.135
40.12,-0.115,0.987,0.094
40.13,-0.329,0.738,-0.212
40.14,-0.272,1.33,-0.023
40.15,-0.076,0.847,0.165
40.16,-0.277,1.021,0.166
40.17,-0.254,0.789,-0.073
40.18,-0.302,1.142,-0.22
40.19,-0.17,1.085,0.127
40.2,-0.055,0.779,0.147
40.21,-0.247,1.003,0.024
40.22,-0.387,0.917,-0.177
40.23,-0.135,1.236,-0.039
40.24,-0.163,0.728,0.151
40.25,-0.107,0.983,0.076
40.26,-0.34,0.873,-0.244
40.27,-0.172,1.042,-0.045
40.28,-0.126,1.101,0.124
40.29,-0.224,0.644,0.211
40.3,-0.333,1.131,-0.026
40.31,-0.313,0.9,-0.247
40.32,-0.159,1.179,0.097
40.33,-0.082,0.782,0.131
40.34,-0.212,0.871,-0.032
40.35,-0.375,1.109,-0.166
40.36,-0.121,0.959,-0.049
40.37,-0.189,1.026,0.18
40.38,-0.123,0.7,0.096
40.39,-0.435,1.154,-0.216
40.4,-0.24,0.906,-0.032
40.41,-0.072,1.174,0.107
40.42,-0.076,0.733,0.06
40.43,-0.272,0.918,-0.051
40.44,-0.32,1.197,-0.214
40.45,-0.098,0.9,0.098
40.46,-0.135,1.122,0.145
40.47,-0.181,0.618,-0.011
40.48,-0.464,1.241,-0.142
40.49,-0.123,0.973,-0.018
40.5,-0.184,0.932,0.156
40.51,-0.105,0.91,0.144
40.52,-0.448,0.8,-0.206
40.53,-0.25,1.232,-0.085
40.54,0.071,0.864,0.097
40.55,-0.208,1.029,0.134
40.56,-0.183,0.746,-0.033
40.57,-0.351,1.263,-0.23
40.58,-0.031,0.865,0.123
40.59,-0.126,1.042,0.116
40.6,-0.235,0.741,0.0
40.61,-0.434,1.056,-0.173
40.62,-0.115,1.204,-0.046
40.63,-0.157,0.742,0.139
40.64,-0.117,1.044,0.07
40.65,-0.403,0.751,-0.208
40.66,-0.229,1.267,0.003
40.67,-0.072,0.895,0.129
40.68,-0.273,0.849,0.119
40.69,-0.161,0.967,-0.109
40.7,-0.345,1.014,-0.15
40.71,-0.081,1.216,0.177
40.72,-0.064,0.616,0.131
40.73,-0.359,1.043,-0.028
40.74,-0.243,0.935,-0.208
40.75,-0.08,1.146,-0.041
40.76,-0.125,0.815,0.229
40.77,-0.207,0.809,0.068
40.78,-0.484,1.12,-0.203
40.79,-0.073,0.933,-0.127
40.8,-0.083,1.142,0.063
40.81,-0.168,0.621,0.216
40.82,-0.423,1.112,-0.089
40.83,-0.229,0.924,-0.185
40.84,-0.014,1.177,0.088
40.85,-0.094,0.834,0.135
40.86,-0.295,0.745,0.009
40.87,-0.348,1.285,-0.243
40.88,-0.07,0.833,0.027
40.89,-0.166,1.169,0.164
40.9,-0.072,0.648,0.017
40.91,-0.462,1.147,-0.228
40.92,-0.115,1.041,-0.041
40.93,-0.093,0.918,0.157
40.94,-0.189,0.981,0.137
40.95,-0.351,0.731,-0.14
40.96,-0.334,1.286,-0.153
40.97,-0.044,0.957,0.148
40.98,-0.162,0.975,0.119
40.99,-0.227,0.743,-0.012
41.0,-0.36,1.163,-0.237
41.01,-0.027,1.023,-0.033
41.02,-0.12,0.843,0.199
41.03,-0.236,0.994,0.02
41.04,-0.406,0.784,-0.205
41.05,-0.158,1.296,-0.075
41.06,-0.064,0.732,0.091
41.07,-0.15,0.993,0.139
41.08,-0.33,0.904,-0.157
41.09,-0.274,1.078,-0.065
41.1,-0.085,1.14,0.103
41.11,-0.204,0.606,0.151
41.12,-0.244,1.105,-0.065
41.13,-0.352,0.911,-0.23
41.14,-0.206,1.179,0.116
41.15,-0.101,0.781,0.104
41.16,-0.177,0.88,-0.002
41.17,-0.417,1.038,-0.174
41.18,-0.157,0.929,-0.011
41.19,-0.148,1.107,0.131
41.2,-0.111,0.686,0.123
41.21,-0.415,1.146,-0.176
41.22,-0.231,0.972,-0.098
41.23,-0.122,1.124,0.119
41.24,-0.178,0.74,0.173
41.25,-0.297,0.89,-0.031
41.26,-0.344,1.211,-0.215
41.27,-0.04,0.873,0.081
41.28,-0.171,1.135,0.119
41.29,-0.098,0.657,-0.012
41.3,-0.465,1.247,-0.18
41.31,-0.092,0.951,-0.078
41.32,-0.121,0.966,0.114
41.33,-0.174,0.906,0.136
41.34,-0.39,0.765,-0.201
41.35,-0.196,1.301,-0.069
41.36,-0.048,0.889,0.183
41.37,-0.225,0.997,0.173
41.38,-0.242,0.704,-0.035
41.39,-0.338,1.323,-0.173
41.4,-0.05,0.932,0.122
41.41,-0.198,0.969,0.168
41.42,-0.222,0.808,-0.004
41.43,-0.415,1.092,-0.165
41.44,-0.104,1.127,-0.017
41.45,-0.16,0.773,0.256
41.46,-0.222,1.066,0.087
41.47,-0.355,0.729,-0.225
41.48,-0.224,1.276,-0.043
41.49,-0.13,0.846,0.169
41.5,-0.249,0.846,0.147
41.51,-0.281,0.962,-0.155
41.52,-0.288,0.967,-0.213
41.53,-0.004,1.268,0.088
41.54,-0.048,0.627,0.096
41.55,-0.337,1.056,0.056
41.56,-0.354,0.909,-0.201
41.57,-0.142,1.164,-0.023
41.58,-0.137,0.872,0.191
41.59,-0.139,0.799,0.045
41.6,-0.461,1.117,-0.186
41.61,-0.06,0.956,-0.106
41.62,-0.157,1.156,0.104
41.63,-0.15,0.648,0.231
41.64,-0.385,1.078,-0.117
41.65,-0.361,0.944,-0.117
41.66,-0.057,1.186,0.079
41.67,-0.15,0.843,0.11
41.68,-0.256,0.725,0.015
41.69,-0.421,1.332,-0.186
41.7,-0.013,0.814,-0.048
41.71,-0.151,1.143,0.124
41.72,-0.101,0.685,0.043
41.73,-0.487,1.141,-0.143
41.74,-0.162,1.067,-0.099
41.75,-0.014,0.859,0.103
41.76,-0.168,1.016,0.146
41.77,-0.352,0.699,-0.152
41.78,-0.264,1.288,-0.155
41.79,-0.017,0.954,0.118
41.8,-0.163,0.91,0.137
41.81,-0.213,0.774,0.038
41.82,-0.461,1.192,-0.181
41.83,-0.188,1.039,0.055
41.84,-0.079,0.84,0.154
41.85,-0.237,1.016,0.062
41.86,-0.371,0.803,-0.21
41.87,-0.216,1.319,-0.092
41.88,-0.05,0.712,0.131
41.89,-0.204,0.993,0.146
41.9,-0.252,0.884,-0.189
41.91,-0.281,1.022,-0.095
41.92,-0.128,1.179,0.164
41.93,-0.139,0.653,0.128
41.94,-0.319,1.054,0.0
41.95,-0.341,0.928,-0.249
41.96,-0.132,1.214,0.001
41.97,-0.095,0.823,0.134
41.98,-0.187,0.861,0.016
41.99,-0.338,1.012,-0.197
42.0,-0.108,1.02,-0.055
42.01,-0.092,1.05,0.125
42.02,-0.145,0.679,0.177
42.03,-0.41,1.133,-0.127
42.04,-0.227,0.896,-0.166
42.05,-0.078,1.238,0.114
42.06,-0.103,0.766,0.107
42.07,-0.288,0.838,0.032
42.08,-0.393,1.245,-0.21
42.09,-0.037,0.848,0.01
42.1,-0.175,1.111,0.173
42.11,-0.089,0.651,0.049
42.12,-0.458,1.185,-0.262
42.13,-0.081,0.941,-0.048
42.14,-0.092,1.021,0.161
42.15,-0.233,0.885,0.16
42.16,-0.362,0.802,-0.07
42.17,-0.322,1.256,-0.225
42.18,0.12,0.86,0.065
42.19,-0.101,1.073,0.079
42.2,-0.235,0.645,-0.061
42.21,-0.361,1.307,-0.181
42.22,-0.029,0.953,0.078
42.23,-0.216,1.014,0.153
42.24,-0.196,0.771,0.034
42.25,-0.416,1.016,-0.183
42.26,-0.187,1.208,-0.037
42.27,-0.084,0.701,0.171
42.28,-0.202,1.081,0.1
42.29,-0.313,0.694,-0.25
42.3,-0.23,1.278,-0.101
42.31,-0.011,0.927,0.116
42.32,-0.133,0.843,0.116
42.33,-0.325,0.953,-0.018
42.34,-0.335,1.02,-0.186
42.35,-0.182,1.242,0.099
42.36,-0.122,0.658,0.154
42.37,-0.252,1.036,-0.014
42.38,-0.386,0.922,-0.175
42.39,-0.129,1.136,-0.059
42.4,-0.052,0.8,0.129
42.41,-0.159,0.889,0.099
42.42,-0.405,1.061,-0.203
42.43,-0.205,0.93,-0.039
42.44,-0.121,1.212,0.141
42.45,-0.15,0.621,0.146
42.46,-0.322,1.102,-0.073
42.47,-0.324,0.962,-0.165
42.48,-0.096,1.122,0.114
42.49,-0.14,0.893,0.129
42.5,-0.209,0.72,-0.05
42.51,-0.333,1.313,-0.226
42.52,-0.02,0.833,-0.066
42.53,-0.177,1.111,0.199
42.54,-0.107,0.692,0.076
42.55,-0.438,1.097,-0.198
42.56,-0.117,1.069,-0.075
42.57,-0.07,0.928,0.124
42.58,-0.215,0.958,0.172
42.59,-0.242,0.757,-0.132
42.6,-0.375,1.291,-0.179
42.61,0.041,0.891,0.121
42.62,-0.124,1.025,0.117
42.63,-0.302,0.696,0.019
42.64,-0.337,1.208,-0.201
42.65,-0.175,1.095,-0.015
42.66,-0.156,0.836,0.185
42.67,-0.184,0.975,0.021
42.68,-0.425,0.795,-0.163
42.69,-0.164,1.301,-0.125
42.7,-0.029,0.749,0.093
42.71,-0.197,0.995,0.183
42.72,-0.311,0.812,-0.143
42.73,-0.279,1.066,-0.131
42.74,-0.01,1.197,0.083
42.75,-0.136,0.655,0.127
42.76,-0.248,1.064,-0.044
42.77,-0.344,0.902,-0.245
42.78,-0.126,1.189,0.044
42.79,-0.063,0.793,0.108
42.8,-0.178,0.853,0.053
42.81,-0.346,1.051,-0.167
42.82,-0.19,1.007,-0.084
42.83,-0.116,0.998,0.11
42.84,-0.069,0.731,0.15
42.85,-0.444,1.098,-0.169
42.86,-0.256,0.885,-0.144
42.87,0.052,1.237,0.11
42.88,-0.23,0.746,0.084
42.89,-0.187,0.878,-0.015
42.9,-0.401,1.217,-0.248
42.91,-0.144,0.841,0.064
42.92,-0.079,1.202,0.149
42.93,-0.188,0.626,0.02
42.94,-0.443,1.187,-0.179
42.95,-0.013,0.966,-0.081
42.96,-0.164,0.947,0.164
42.97,-0.148,0.875,0.16
42.98,-0.084,1.215,0.151
42.99,-0.194,0.659,0.199
43.0,-0.369,1.108,-0.131
43.01,-0.309,0.884,-0.195
43.02,0.062,1.26,0.118
43.03,-0.137,0.729,0.101
43.04,-0.307,0.896,0.017
43.05,-0.297,1.183,-0.228
43.06,-0.173,0.852,-0.002
43.07,-0.016,1.101,0.142
43.08,-0.142,0.665,0.021
43.09,-0.581,1.192,-0.164
43.1,-0.042,0.88,-0.087
43.11,-0.137,1.065,0.124
43.12,-0.11,0.834,0.141
43.13,-0.354,0.861,-0.152
43.14,-0.295,1.219,-0.129
43.15,0.059,0.94,0.094
43.16,-0.16,1.023,0.137
43.17,-0.291,0.678,0.019
43.18,-0.35,1.29,-0.225
43.19,-0.144,0.924,0.16
43.2,-0.168,1.08,0.154
43.21,-0.242,0.697,0.004
43.22,-0.319,1.115,-0.203
43.23,-0.111,1.16,-0.034
43.24,-0.231,0.753,0.216
43.25,-0.126,1.039,0.112
43.26,-0.416,0.699,-0.233
43.27,-0.238,1.312,-0.096
43.28,0.039,0.851,0.08
43.29,-0.25,0.934,0.124
43.3,-0.169,0.91,-0.038
43.31,-0.358,1.019,-0.187
43.32,-0.108,1.168,0.102
43.33,-0.091,0.74,0.153
43.34,-0.374,1.001,-0.017
43.35,-0.253,0.876,-0.174
43.36,-0.16,1.261,-0.061
43.37,-0.247,0.753,0.24
43.38,-0.11,0.867,0.132
43.39,-0.454,1.045,-0.216
43.4,-0.173,0.932,-0.036
43.41,-0.059,1.217,0.092
43.42,-0.198,0.618,0.19
43.43,-0.321,1.12,-0.005
43.44,-0.324,0.874,-0.196
43.45,-0.224,1.133,0.103
43.46,-0.025,0.868,0.112
43.47,-0.265,0.777,-0.005
43.48,-0.375,1.194,-0.187
43.49,-0.097,0.898,-0.032
43.5,-0.28,1.108,0.185
43.51,-0.077,0.683,0.132
43.52,-0.426,1.143,-0.21
43.53,-0.301,0.987,-0.045
43.54,-0.007,1.079,0.085
43.55,-0.209,0.857,0.124
43.56,-0.214,0.778,-0.027
43.57,-0.329,1.296,-0.24
43.58,-0.133,0.863,0.102
43.59,-0.1,1.142,0.138
43.6,-0.217,0.646,0.015
43.61,-0.449,1.132,-0.157
43.62,-0.118,1.051,-0.048
43.63,-0.21,0.878,0.167
43.64,-0.14,1.005,0.108
43.65,-0.308,0.75,-0.2
43.66,-0.333,1.292,-0.073
43.67,0.053,0.86,0.087
43.68,-0.18,0.985,0.102
43.69,-0.235,0.808,0.015
43.7,-0.388,1.124,-0.195
43.71,-0.188,1.065,0.09
43.72,-0.056,0.839,0.155
43.73,-0.269,0.997,-0.014
43.74,-0.366,0.836,-0.19
43.75,-0.131,1.215,-0.059
43.76,-0.183,0.728,0.198
43.77,-0.131,1.054,0.095
43.78,-0.293,0.788,-0.227
43.79,-0.294,1.221,-0.025
43.8,-0.019,0.958,0.082
43.81,-0.24,0.753,0.174
43.82,-0.305,1.049,-0.057
43.83,-0.288,0.945,-0.23
43.84,-0.138,1.273,0.102
43.85,-0.028,0.698,0.12
43.86,-0.245,1.014,-0.01
43.87,-0.468,0.957,-0.147
43.88,-0.103,1.083,-0.03
43.89,-0.178,0.91,0.152
43.9,-0.157,0.758,0.127
43.91,-0.45,1.133,-0.19
43.92,-0.261,0.874,-0.01
43.93,-0.107,1.26,0.174
43.94,-0.137,0.625,0.104
43.95,-0.263,1.036,-0.07
43.96,-0.291,1.068,-0.23
43.97,-0.129,0.983,0.174
43.98,-0.149,1.012,0.179
43.99,-0.179,0.663,-0.018
44.0,-0.456,1.313,-0.192
44.01,-0.106,0.86,-0.042
44.02,-0.191,1.109,0.19
44.03,-0.089,0.746,0.113
44.04,-0.442,0.99,-0.224
44.05,-0.187,1.168,-0.075
44.06,-0.017,0.873,0.09
44.07,-0.224,1.03,0.146
44.08,-0.147,0.683,-0.091
44.09,-0.383,1.298,-0.191
44.1,-0.109,0.878,0.141
44.11,-0.095,1.006,0.131
44.12,-0.276,0.785,0.007
44.13,-0.376,1.047,-0.186
44.14,-0.123,1.169,-0.078
44.15,-0.182,0.714,0.245
44.16,-0.187,1.073,0.115
44.17,-0.394,0.702,-0.195
44.18,-0.187,1.302,-0.093
44.19,-0.011,0.921,0.058
44.2,-0.251,0.824,0.166
44.21,-0.207,0.985,-0.061
44.22,-0.329,0.993,-0.23
44.23,-0.092,1.202,0.129
44.24,-0.118,0.716,0.165
44.25,-0.338,0.997,-0.009
44.26,-0.312,0.903,-0.197
44.27,-0.054,1.149,-0.131
44.28,-0.106,0.837,0.193
44.29,-0.094,0.845,0.098
44.3,-0.469,1.075,-0.195
44.31,-0.198,0.909,-0.031
44.32,-0.079,1.258,0.089
44.33,-0.188,0.606,0.178
44.34,-0.302,1.064,-0.066
44.35,-0.31,0.916,-0.242
44.36,-0.102,1.107,0.128
44.37,-0.182,0.898,0.132
44.38,-0.222,0.735,0.029
44.39,-0.387,1.33,-0.204
44.4,-0.078,0.849,-0.08
44.41,-0.285,1.106,0.229
44.42,-0.06,0.736,0.134
44.43,-0.443,1.053,-0.207
44.44,-0.223,1.016,-0.071
44.45,-0.038,1.02,0.076
44.46,-0.253,0.936,0.155
44.47,-0.233,0.717,-0.049
44.48,-0.454,1.268,-0.275
44.49,0.017,0.87,0.099
44.5,-0.215,1.142,0.204
44.51,-0.181,0.659,0.067
44.52,-0.396,1.125,-0.189
44.53,-0.172,1.083,-0.087
44.54,-0.069,0.806,0.135
44.55,-0.183,1.09,0.108
44.56,-0.316,0.696,-0.22
44.57,-0.221,1.295,-0.093
44.58,-0.003,0.816,0.08
44.59,-0.212,1.021,0.131
44.6,-0.114,0.726,-0.068
44.61,-0.399,1.254,-0.207
44.62,-0.089,0.994,0.074
44.63,-0.09,0.884,0.09
44.64,-0.256,0.908,0.001
44.65,-0.326,0.906,-0.177
44.66,-0.232,1.278,-0.034
44.67,-0.133,0.705,0.191
44.68,-0.168,1.057,0.146
44.69,-0.406,0.78,-0.174
44.7,-0.243,1.117,-0.086
44.71,0.02,1.115,0.045
44.72,-0.243,0.664,0.114
44.73,-0.216,1.102,-0.072
44.74,-0.261,0.896,-0.234
44.75,-0.153,1.285,0.103
44.76,-0.083,0.676,0.188
44.77,-0.262,0.951,0.005
44.78,-0.347,1.022,-0.212
44.79,-0.177,1.011,-0.082
44.8,-0.128,0.969,0.163
44.81,-0.104,0.741,0.126
44.82,-0.49,1.074,-0.177
44.83,-0.202,0.83,-0.098
44.84,-0.098,1.27,0.093
44.85,-0.107,0.658,0.164
44.86,-0.258,0.949,-0.01
44.87,-0.347,1.137,-0.255
44.88,-0.094,0.888,-0.001
44.89,-0.136,1.173,0.129
44.9,-0.15,0.617,0.005
44.91,-0.431,1.228,-0.164
44.92,-0.104,0.948,-0.101
44.93,-0.114,0.991,0.108
44.94,-0.128,0.83,0.193
44.95,-0.421,0.907,-0.137
44.96,-0.282,1.117,-0.19
44.97,0.083,0.992,0.095
44.98,-0.221,1.029,0.068
44.99,-0.123,0.681,-0.001
45.0,-0.388,1.37,-0.22
45.01,-0.156,0.813,0.001
45.02,-0.12,1.021,0.232
45.03,-0.143,0.9,0.05
45.04,-0.449,0.859,-0.21
45.05,-0.009,1.331,-0.076
45.06,-0.123,0.787,0.101
45.07,-0.251,1.03,0.206
45.08,-0.216,0.736,-0.128
45.09,-0.341,1.155,-0.252
45.1,0.052,1.03,0.125
45.11,-0.126,0.836,0.108
45.12,-0.232,0.905,0.017
45.13,-0.335,0.98,-0.154
45.14,-0.24,1.196,-0.056
45.15,-0.092,0.701,0.201
45.16,-0.122,1.049,0.064
45.17,-0.353,0.837,-0.192
45.18,-0.13,1.162,-0.096
45.19,-0.068,0.929,0.089
45.2,-0.179,0.75,0.205
45.21,-0.298,1.108,-0.08
45.22,-0.299,0.821,-0.227
45.23,-0.136,1.334,0.158
45.24,-0.098,0.711,0.137
45.25,-0.298,0.976,0.05
45.26,-0.282,1.009,-0.261
45.27,-0.061,1.043,-0.062
45.28,-0.234,1.004,0.214
45.29,-0.089,0.724,0.111
45.3,-0.437,1.131,-0.169
45.31,-0.239,0.876,-0.03
45.32,-0.033,1.259,0.059
45.33,-0.174,0.674,0.139
45.34,-0.191,0.983,-0.043
45.35,-0.383,1.07,-0.227
45.36,-0.164,0.977,0.136
45.37,-0.106,1.141,0.126
45.38,-0.251,0.738,0.036
45.39,-0.398,1.274,-0.144
45.4,-0.176,0.857,-0.062
45.41,-0.22,1.078,0.233
45.42,-0.061,0.76,0.084
45.43,-0.485,1.052,-0.21
45.44,-0.246,0.998,-0.06
45.45,-0.023,1.072,0.069
45.46,-0.22,0.873,0.128
45.47,-0.189,0.778,-0.023
45.48,-0.418,1.33,-0.205
45.49,-0.17,0.793,0.072
45.5,-0.075,1.146,0.17
45.51,-0.193,0.67,0.02
45.52,-0.444,1.113,-0.178
45.53,-0.126,1.093,-0.102
45.54,-0.152,0.786,0.112
45.55,-0.07,1.054,0.138
45.56,-0.378,0.705,-0.196
45.57,-0.287,1.193,-0.11
45.58,0.014,0.973,0.131
45.59,-0.16,0.963,0.139
45.6,-0.241,0.774,0.042
45.61,-0.374,1.185,-0.224
45.62,-0.153,1.081,-0.048
45.63,-0.04,0.827,0.16
45.64,-0.168,0.995,0.038
45.65,-0.427,0.75,-0.108
45.66,-0.143,1.319,-0.083
45.67,-0.079,0.772,0.071
45.68,-0.205,0.932,0.167
45.69,-0.325,0.885,-0.104
45.7,-0.293,0.988,-0.169
45.71,0.029,1.263,0.09
45.72,-0.161,0.59,0.112
45.73,-0.277,1.043,0.013
45.74,-0.279,0.915,-0.266
45.75,-0.125,1.15,-0.079
45.76,-0.103,0.836,0.2
45.77,-0.183,0.89,0.082
45.78,-0.441,1.035,-0.177
45.79,-0.16,0.951,-0.07
45.8,-0.105,1.184,0.095
45.81,-0.173,0.585,0.183
45.82,-0.249,1.111,-0.079
45.83,-0.247,0.896,-0.222
45.84,-0.086,1.155,0.099
45.85,-0.085,0.897,0.111
45.86,-0.214,0.756,0.002
45.87,-0.431,1.242,-0.188
45.88,-0.165,0.9,-0.051
45.89,-0.19,1.091,0.141
45.9,-0.073,0.716,0.132
45.91,-0.474,1.063,-0.196
45.92,-0.172,0.948,-0.079
45.93,-0.07,1.107,0.106
45.94,-0.129,0.845,0.14
45.95,-0.266,0.756,-0.026
45.96,-0.426,1.318,-0.195
45.97,-0.12,0.822,0.051
45.98,-0.143,1.164,0.155
45.99,-0.135,0.668,0.038
46.0,-0.449,1.151,-0.185
46.01,-0.057,1.075,-0.079
46.02,-0.098,0.868,0.127
46.03,-0.145,1.005,0.149
46.04,-0.326,0.709,-0.173
46.05,-0.306,1.276,-0.113
46.06,-0.017,0.949,0.09
46.07,-0.166,0.959,0.076
46.08,-0.222,0.788,0.002
46.09,-0.368,1.144,-0.216
46.1,-0.057,1.081,0.012
46.11,-0.121,0.855,0.191
46.12,-0.197,0.985,0.016
46.13,-0.383,0.797,-0.155
46.14,-0.197,1.323,-0.079
46.15,-0.044,0.729,0.082
46.16,-0.199,0.994,0.173
46.17,-0.295,0.888,-0.135
46.18,-0.332,0.968,-0.135
46.19,0.021,1.068,0.091
46.2,-0.124,0.734,0.109
46.21,-0.332,0.978,0.012
46.22,-0.298,0.94,-0.215
46.23,-0.075,1.226,-0.054
46.24,-0.105,0.715,0.17
46.25,-0.181,0.972,0.057
46.26,-0.383,0.921,-0.183
46.27,-0.136,1.137,-0.044
46.28,-0.143,0.947,0.124
46.29,-0.142,0.753,0.162
46.3,-0.33,1.106,-0.156
46.31,-0.316,0.863,-0.144
46.32,-0.023,1.263,0.166
46.33,-0.074,0.716,0.135
46.34,-0.347,0.952,0.007
46.35,-0.251,1.041,-0.218
46.36,-0.082,0.997,-0.0
46.37,-0.25,1.039,0.213
46.38,-0.059,0.671,0.036
46.39,-0.455,1.261,-0.264
46.4,-0.054,0.86,-0.041
46.41,-0.092,1.127,0.15
46.42,-0.229,0.716,0.172
46.43,-0.262,0.971,-0.138
46.44,-0.277,1.136,-0.28
46.45,-0.014,0.937,0.134
46.46,-0.065,1.045,0.125
46.47,-0.323,0.653,-0.015
46.48,-0.425,1.308,-0.185
46.49,-0.037,0.841,-0.014
46.5,-0.205,1.057,0.212
46.51,-0.058,0.826,0.044
46.52,-0.404,0.959,-0.191
46.53,-0.148,1.203,-0.076
46.54,-0.02,0.806,0.134
46.55,-0.254,1.053,0.15
46.56,-0.193,0.705,-0.163
46.57,-0.321,1.315,-0.134
46.58,-0.079,0.958,0.142
46.59,-0.201,0.883,0.162
46.6,-0.241,0.879,0.03
46.61,-0.31,1.031,-0.19
46.62,-0.125,1.24,0.043
46.63,-0.206,0.713,0.212
46.64,-0.2,1.047,0.065
46.65,-0.328,0.826,-0.224
46.66,-0.235,1.249,-0.02
46.67,-0.112,0.878,0.168
46.68,-0.246,0.783,0.178
46.69,-0.287,1.043,-0.118
46.7,-0.253,0.901,-0.211
46.71,-0.026,1.301,0.113
46.72,-0.084,0.601,0.144
46.73,-0.328,1.018,0.005
46.74,-0.324,0.997,-0.236
46.75,-0.109,1.081,-0.048
46.76,-0.175,0.927,0.217
46.77,-0.167,0.755,0.08
46.78,-0.487,1.18,-0.156
46.79,-0.059,0.897,-0.094
46.8,-0.161,1.178,0.119
46.81,-0.065,0.682,0.179
46.82,-0.348,1.057,-0.107
46.83,-0.321,0.989,-0.17
46.84,-0.104,1.079,0.165
46.85,-0.222,0.996,0.14
46.86,-0.247,0.641,-0.02
46.87,-0.404,1.358,-0.19
46.88,-0.125,0.853,0.036
46.89,-0.23,1.1,0.21
46.9,-0.103,0.758,0.084
46.91,-0.439,0.99,-0.193
46.92,-0.221,1.111,-0.037
46.93,-0.025,0.903,0.106
46.94,-0.236,1.021,0.103
46.95,-0.211,0.724,-0.067
46.96,-0.359,1.323,-0.164
46.97,-0.143,0.907,0.15
46.98,-0.137,0.972,0.129
46.99,-0.23,0.782,-0.059
47.0,-0.349,1.27,-0.234
47.01,-0.069,0.971,-0.049
47.02,-0.124,0.925,0.186
47.03,-0.121,0.967,0.033
47.04,-0.41,0.817,-0.211
47.05,-0.131,1.345,-0.059
47.06,-0.106,0.74,0.138
47.07,-0.252,1.039,0.195
47.08,-0.286,0.759,-0.133
47.09,-0.343,1.138,-0.186
47.1,0.005,1.134,0.131
47.11,-0.133,0.736,0.097
47.12,-0.295,0.987,0.006
47.13,-0.257,0.931,-0.239
47.14,-0.079,1.275,-0.035
47.15,-0.126,0.711,0.22
47.16,-0.203,0.946,0.038
47.17,-0.403,0.914,-0.227
47.18,-0.123,1.125,-0.051
47.19,-0.142,1.02,0.115
47.2,-0.195,0.701,0.172
47.21,-0.346,1.138,-0.12
47.22,-0.348,0.862,-0.14
47.23,0.087,1.265,0.089
47.24,-0.182,0.684,0.136
47.25,-0.274,0.92,-0.043
47.26,-0.358,1.135,-0.227
47.27,-0.108,0.911,0.012
47.28,-0.166,1.051,0.139
47.29,-0.135,0.645,0.033
47.3,-0.488,1.231,-0.198
47.31,-0.104,0.879,-0.082
47.32,-0.064,1.108,0.115
47.33,-0.095,0.794,0.123
47.34,-0.387,0.889,-0.1
47.35,-0.239,1.181,-0.154
47.36,-0.013,0.98,0.099
47.37,-0.218,1.038,0.122
47.38,-0.216,0.667,0.025
47.39,-0.434,1.344,-0.187
47.4,-0.086,0.889,0.018
47.41,-0.086,1.047,0.189
47.42,-0.092,0.854,-0.012
47.43,-0.462,0.879,-0.183
47.44,-0.145,1.263,-0.019
47.45,-0.088,0.748,0.165
47.46,-0.3,1.071,0.172
47.47,-0.218,0.723,-0.193
47.48,-0.245,1.229,-0.212
47.49,0.04,1.011,0.123
47.5,-0.178,0.811,0.166
47.51,-0.366,0.924,0.015
47.52,-0.319,0.977,-0.194
47.53,-0.074,1.25,-0.07
47.54,-0.032,0.666,0.15
47.55,-0.267,1.027,0.09
47.56,-0.439,0.844,-0.214
47.57,-0.157,1.169,-0.036
47.58,-0.115,0.917,0.154
47.59,-0.161,0.797,0.129
47.6,-0.43,1.083,-0.156
47.61,-0.206,0.898,-0.135
47.62,-0.054,1.26,0.111
47.63,-0.148,0.612,0.123
47.64,-0.352,1.01,-0.022
47.65,-0.215,0.981,-0.276
47.66,-0.055,1.061,0.048
47.67,-0.195,0.926,0.162
47.68,-0.144,0.693,0.005
47.69,-0.423,1.278,-0.178
47.7,-0.167,0.865,-0.037
47.71,-0.102,1.106,0.183
47.72,-0.161,0.733,0.107
47.73,-0.448,0.993,-0.193
47.74,-0.115,1.056,-0.143
47.75,-0.117,1.01,0.169
47.76,-0.196,0.921,0.14
47.77,-0.2,0.726,-0.064
47.78,-0.406,1.375,-0.218
47.79,0.058,0.833,0.072
47.8,-0.16,1.026,0.146
47.81,-0.181,0.665,-0.017
47.82,-0.442,1.268,-0.207
47.83,-0.058,1.003,-0.038
47.84,-0.08,0.947,0.137
47.85,-0.181,0.918,0.064
47.86,-0.487,0.78,-0.129
47.87,-0.201,1.295,0.004
47.88,-0.092,0.791,0.175
47.89,-0.238,0.991,0.14
47.9,-0.273,0.73,-0.15
47.91,-0.289,1.203,-0.224
47.92,0.121,1.089,0.156
47.93,-0.201,0.762,0.141
47.94,-0.353,0.972,-0.021
47.95,-0.271,0.914,-0.204
47.96,-0.131,1.262,-0.035
47.97,-0.023,0.668,0.162
47.98,-0.173,0.966,0.041
47.99,-0.465,0.925,-0.191
48.0,-0.073,1.095,-0.056
48.01,-0.109,0.958,0.111
48.02,-0.098,0.747,0.124
48.03,-0.412,1.118,-0.178
48.04,-0.239,0.866,-0.1
48.05,-0.112,1.235,0.157
48.06,-0.205,0.668,0.145
48.07,-0.269,0.96,-0.064
48.08,-0.322,1.052,-0.208
48.09,-0.056,0.992,0.101
48.1,-0.13,1.004,0.118
48.11,-0.174,0.65,-0.03
48.12,-0.431,1.352,-0.14
48.13,-0.1,0.887,-0.022
48.14,-0.189,1.061,0.186
48.15,-0.111,0.773,0.081
48.16,-0.486,0.933,-0.191
48.17,-0.224,1.168,-0.054
48.18,-0.03,0.899,0.102
48.19,-0.205,1.01,0.144
48.2,-0.236,0.68,-0.127
48.21,-0.352,1.323,-0.19
48.22,0.113,0.954,0.102
48.23,-0.128,0.941,0.163
48.24,-0.296,0.844,0.017
48.25,-0.394,1.082,-0.2
48.26,-0.196,1.119,-0.001
48.27,-0.062,0.757,0.165
48.28,-0.192,1.01,-0.02
48.29,-0.411,0.763,-0.167
48.3,-0.166,1.278,-0.07
48.31,-0.079,0.77,0.156
48.32,-0.18,0.899,0.178
48.33,-0.34,0.936,-0.186
48.34,-0.229,0.987,-0.116
48.35,-0.046,1.311,0.088
48.36,-0.122,0.598,0.076
48.37,-0.206,1.08,-0.015
