t,ax,ay,az
0.0,-0.382,1.202,-0.187
0.01,-0.061,0.859,0.052
0.02,-0.169,1.207,0.169
0.03,-0.143,0.71,0.062
0.04,-0.341,1.078,-0.184
0.05,-0.147,1.096,-0.045
0.06,-0.117,0.895,0.083
0.07,-0.13,0.983,0.14
0.08,-0.265,0.757,-0.085
0.09,-0.368,1.26,-0.185
0.1,-0.125,0.841,0.027
0.11,-0.118,1.13,0.142
0.12,-0.16,0.754,0.045
0.13,-0.414,0.981,-0.176
0.14,-0.161,1.174,-0.05
0.15,-0.05,0.854,0.089
0.16,-0.159,1.026,0.138
0.17,-0.302,0.747,-0.067
0.18,-0.32,1.234,-0.144
0.19,-0.133,0.883,0.103
0.2,-0.137,1.158,0.172
0.21,-0.191,0.704,0.027
0.22,-0.472,1.075,-0.169
0.23,-0.058,1.125,-0.042
0.24,-0.18,0.835,0.124
0.25,-0.228,0.981,0.18
0.26,-0.205,0.802,-0.184
0.27,-0.25,1.183,-0.166
0.28,-0.119,0.912,0.122
0.29,-0.13,1.001,0.162
0.3,-0.284,0.821,-0.02
0.31,-0.376,1.024,-0.095
0.32,-0.14,1.2,-0.06
0.33,-0.229,0.68,0.129
0.34,-0.075,1.071,0.171
0.35,-0.326,0.832,-0.159
0.36,-0.302,1.082,-0.123
0.37,-0.073,1.019,0.114
0.38,-0.102,0.861,0.114
0.39,-0.36,0.926,0.022
0.4,-0.254,0.985,-0.161
0.41,-0.17,1.202,-0.023
0.42,-0.186,0.701,0.129
0.43,-0.072,1.093,0.157
0.44,-0.31,0.849,-0.215
0.45,-0.333,1.03,-0.048
0.46,-0.004,1.177,0.03
0.47,-0.075,0.754,0.068
0.48,-0.378,1.004,0.033
0.49,-0.185,0.926,-0.175
0.5,-0.209,1.202,-0.035
0.51,-0.181,0.733,0.17
0.52,-0.092,1.002,0.141
0.53,-0.423,0.951,-0.201
0.54,-0.292,0.929,-0.061
0.55,-0.028,1.203,0.076
0.56,-0.13,0.674,0.151
0.57,-0.343,1.083,-0.031
0.58,-0.22,0.901,-0.192
0.59,-0.187,1.2,-0.044
0.6,-0.21,0.776,0.127
0.61,-0.036,0.915,0.115
0.62,-0.429,1.029,-0.203
0.63,-0.223,0.802,-0.067
0.64,-0.039,1.34,0.072
0.65,-0.151,0.583,0.131
0.66,-0.352,1.082,0.038
0.67,-0.193,0.982,-0.257
0.68,-0.156,1.016,-0.024
0.69,-0.212,0.894,0.184
0.7,-0.118,0.823,0.128
0.71,-0.461,1.132,-0.227
0.72,-0.16,0.823,-0.014
0.73,-0.125,1.329,0.051
0.74,-0.075,0.604,0.14
0.75,-0.299,1.093,0.033
0.76,-0.299,1.015,-0.259
0.77,-0.156,0.923,-0.007
0.78,-0.147,1.104,0.17
0.79,-0.103,0.691,0.058
0.8,-0.51,1.175,-0.181
0.81,-0.069,0.854,-0.014
0.82,-0.188,1.25,0.061
0.83,-0.155,0.64,0.189
0.84,-0.276,1.001,-0.019
0.85,-0.298,1.099,-0.218
0.86,-0.173,0.896,0.044
0.87,-0.111,1.187,0.174
0.88,-0.122,0.635,0.062
0.89,-0.541,1.186,-0.153
0.9,-0.031,0.954,-0.051
0.91,-0.203,1.129,0.056
0.92,-0.126,0.707,0.169
0.93,-0.223,0.983,-0.064
0.94,-0.411,1.179,-0.151
0.95,-0.092,0.783,0.027
0.96,-0.105,1.25,0.158
0.97,-0.104,0.643,0.034
0.98,-0.459,1.139,-0.159
0.99,-0.002,1.053,-0.09
1.0,-0.237,1.082,0.063
1.01,-0.095,0.787,0.224
1.02,-0.355,1.008,-0.149
1.03,-0.304,0.993,-0.191
1.04,-0.11,0.932,0.133
1.05,-0.115,1.159,0.116
1.06,-0.16,0.608,0.001
1.07,-0.399,1.291,-0.124
1.08,-0.116,0.927,-0.091
1.09,-0.208,0.939,0.099
1.1,-0.12,0.927,0.203
1.11,-0.364,0.874,-0.212
1.12,-0.239,1.088,-0.144
1.13,-0.093,1.0,0.132
1.14,-0.155,1.073,0.137
1.15,-0.226,0.649,0.042
1.16,-0.383,1.274,-0.168
1.17,-0.085,0.985,-0.1
1.18,-0.276,0.863,0.149
1.19,-0.074,0.994,0.173
1.2,-0.384,0.743,-0.219
1.21,-0.289,1.134,-0.069
1.22,-0.016,0.949,0.04
1.23,-0.195,0.943,0.105
1.24,-0.175,0.746,0.024
1.25,-0.364,1.209,-0.147
1.26,-0.155,1.045,-0.055
1.27,-0.214,0.753,0.153
1.28,-0.133,1.077,0.133
1.29,-0.349,0.771,-0.219
1.3,-0.22,1.091,-0.113
1.31,-0.048,1.03,0.066
1.32,-0.118,0.892,0.101
1.33,-0.22,0.837,-0.0
1.34,-0.305,1.057,-0.171
1.35,-0.15,1.129,-0.042
1.36,-0.151,0.702,0.169
1.37,-0.134,1.069,0.119
1.38,-0.458,0.819,-0.206
1.39,-0.186,1.064,-0.081
1.4,-0.039,1.093,0.078
1.41,-0.141,0.781,0.159
1.42,-0.295,1.008,-0.009
1.43,-0.265,0.982,-0.172
1.44,-0.148,1.199,-0.025
1.45,-0.173,0.719,0.14
1.46,-0.083,1.051,0.096
1.47,-0.386,0.889,-0.182
1.48,-0.211,0.998,-0.062
1.49,-0.075,1.141,0.063
1.5,-0.117,0.673,0.113
1.51,-0.284,1.099,0.011
1.52,-0.312,0.902,-0.236
1.53,-0.179,1.16,0.015
1.54,-0.097,0.838,0.158
1.55,-0.125,0.951,0.062
1.56,-0.383,0.943,-0.209
1.57,-0.094,0.976,-0.045
1.58,-0.134,1.18,0.063
1.59,-0.129,0.579,0.137
1.6,-0.306,1.165,-0.056
1.61,-0.343,0.888,-0.189
1.62,-0.157,1.121,0.049
1.63,-0.13,0.932,0.126
1.64,-0.122,0.886,0.024
1.65,-0.374,1.042,-0.197
1.66,-0.092,0.903,-0.058
1.67,-0.151,1.196,0.089
1.68,-0.123,0.598,0.165
1.69,-0.363,1.135,-0.068
1.7,-0.27,0.888,-0.172
1.71,-0.208,1.087,0.1
1.72,-0.121,0.979,0.131
1.73,-0.126,0.764,-0.013
1.74,-0.472,1.2,-0.187
1.75,-0.079,0.856,-0.024
1.76,-0.119,1.192,0.063
1.77,-0.125,0.647,0.2
1.78,-0.388,1.105,-0.112
1.79,-0.255,0.995,-0.205
1.8,-0.124,0.99,0.019
1.81,-0.071,0.865,0.108
1.82,-0.289,0.806,-0.029
1.83,-0.373,1.199,-0.143
1.84,-0.119,0.887,0.007
1.85,-0.208,1.111,0.126
1.86,-0.019,0.72,0.172
1.87,-0.475,1.163,-0.21
1.88,-0.282,0.86,-0.067
1.89,-0.01,1.167,0.074
1.9,-0.137,0.909,0.076
1.91,-0.328,0.739,0.022
1.92,-0.332,1.304,-0.174
1.93,-0.048,0.793,-0.018
1.94,-0.223,1.129,0.189
1.95,0.03,0.727,0.069
1.96,-0.474,1.091,-0.211
1.97,-0.187,1.001,-0.076
1.98,-0.061,0.968,0.076
1.99,-0.207,0.999,0.129
2.0,-0.267,0.708,-0.071
2.01,-0.321,1.253,-0.158
2.02,-0.143,0.86,0.073
2.03,-0.142,1.071,0.154
2.04,-0.055,0.812,0.011
2.05,-0.46,1.001,-0.184
2.06,-0.146,1.142,-0.039
2.07,-0.076,0.807,0.091
2.08,-0.224,1.045,0.155
2.09,-0.308,0.761,-0.115
2.1,-0.281,1.158,-0.154
2.11,-0.172,0.933,0.091
2.12,-0.138,0.996,0.156
2.13,-0.142,0.873,-0.006
2.14,-0.457,0.958,-0.128
2.15,-0.124,1.249,-0.068
2.16,-0.101,0.692,0.068
2.17,-0.156,1.066,0.185
2.18,-0.324,0.842,-0.17
2.19,-0.261,1.074,-0.095
2.2,-0.121,1.083,0.139
2.21,-0.149,0.802,0.147
2.22,-0.284,0.985,-0.006
2.23,-0.318,0.944,-0.147
2.24,-0.138,1.194,-0.044
2.25,-0.111,0.736,0.127
2.26,-0.105,1.043,0.098
2.27,-0.328,0.913,-0.205
2.28,-0.29,1.008,-0.041
2.29,-0.059,1.123,0.09
2.3,-0.107,0.657,0.113
2.31,-0.422,1.09,0.034
2.32,-0.315,0.903,-0.188
2.33,-0.115,1.149,-0.036
2.34,-0.079,0.825,0.144
2.35,-0.079,0.908,0.07
2.36,-0.433,1.057,-0.173
2.37,-0.113,0.904,-0.083
2.38,-0.141,1.15,0.089
2.39,-0.145,0.704,0.192
2.4,-0.403,1.123,-0.103
2.41,-0.251,0.766,-0.212
2.42,-0.17,1.254,0.102
2.43,-0.135,0.841,0.116
2.44,-0.108,0.777,0.022
2.45,-0.406,1.279,-0.18
2.46,-0.121,0.856,-0.045
2.47,-0.196,1.128,0.143
2.48,-0.154,0.694,0.181
2.49,-0.413,1.119,-0.167
2.5,-0.151,0.865,-0.203
2.51,-0.104,1.159,0.077
2.52,-0.201,0.915,0.138
2.53,-0.022,0.686,-0.014
2.54,-0.495,1.3,-0.16
2.55,-0.126,0.832,0.012
2.56,-0.176,1.161,0.127
2.57,-0.148,0.751,0.124
2.58,-0.43,1.035,-0.177
2.59,-0.187,1.06,-0.07
2.6,-0.104,1.052,0.073
2.61,-0.128,0.926,0.132
2.62,-0.246,0.846,-0.02
2.63,-0.412,1.238,-0.225
2.64,-0.001,0.809,0.001
2.65,-0.19,1.216,0.153
2.66,-0.189,0.656,0.088
2.67,-0.365,1.164,-0.181
2.68,-0.202,1.068,-0.035
2.69,-0.149,0.969,0.087
2.7,-0.146,0.922,0.145
2.71,-0.267,0.745,-0.059
2.72,-0.402,1.257,-0.163
2.73,-0.109,0.804,0.072
2.74,-0.144,1.157,0.148
2.75,-0.203,0.679,0.025
2.76,-0.466,1.063,-0.162
2.77,0.043,1.157,-0.078
2.78,-0.201,0.813,0.098
2.79,-0.206,0.978,0.218
2.8,-0.225,0.789,-0.207
2.81,-0.355,1.195,-0.126
2.82,-0.083,0.938,0.112
2.83,-0.063,0.979,0.087
2.84,-0.357,0.789,0.057
2.85,-0.297,1.04,-0.139
2.86,-0.121,1.211,-0.083
2.87,-0.213,0.694,0.129
2.88,-0.039,1.062,0.131
2.89,-0.327,0.844,-0.236
2.9,-0.265,1.106,-0.108
2.91,-0.003,1.052,0.092
2.92,-0.387,1.158,-0.204
2.93,-0.267,0.774,-0.1
2.94,-0.09,1.333,0.101
2.95,-0.115,0.652,0.138
2.96,-0.324,0.976,-0.021
2.97,-0.297,1.019,-0.161
2.98,-0.107,1.002,0.016
2.99,-0.26,1.024,0.151
3.0,-0.023,0.691,0.083
3.01,-0.505,1.196,-0.177
3.02,-0.234,0.858,-0.026
3.03,-0.03,1.258,0.004
3.04,-0.118,0.667,0.097
3.05,-0.306,0.983,0.038
3.06,-0.333,1.115,-0.206
3.07,-0.105,0.863,0.035
3.08,-0.172,1.155,0.18
3.09,-0.035,0.635,0.022
3.1,-0.523,1.256,-0.172
3.11,-0.069,0.891,-0.071
3.12,-0.122,1.104,0.039
3.13,-0.12,0.803,0.186
3.14,-0.304,0.919,-0.1
3.15,-0.308,1.093,-0.163
3.16,-0.122,0.897,0.118
3.17,-0.123,1.2,0.112
3.18,-0.107,0.577,0.034
3.19,-0.523,1.25,-0.134
3.2,0.012,1.013,-0.115
3.21,-0.229,0.951,0.057
3.22,-0.067,0.874,0.18
3.23,-0.329,0.852,-0.138
3.24,-0.339,1.168,-0.098
3.25,-0.015,0.948,0.116
3.26,-0.179,1.059,0.123
3.27,-0.153,0.667,0.044
3.28,-0.494,1.27,-0.124
3.29,-0.087,0.992,-0.085
3.3,-0.229,0.823,0.177
3.31,-0.101,1.027,0.17
3.32,-0.415,0.745,-0.18
3.33,-0.244,1.179,-0.086
3.34,-0.013,0.958,0.082
3.35,-0.13,0.906,0.126
3.36,-0.247,0.799,0.044
3.37,-0.391,1.127,-0.208
3.38,-0.075,0.878,-0.033
3.39,-0.131,0.984,0.193
3.4,-0.131,0.922,0.022
3.41,-0.373,0.8,-0.16
3.42,-0.147,1.291,-0.038
3.43,-0.124,0.806,0.051
3.44,-0.161,0.895,0.16
3.45,-0.191,0.914,-0.063
3.46,-0.413,1.096,-0.208
3.47,-0.127,0.982,0.051
3.48,-0.065,0.935,0.185
3.49,-0.177,0.956,0.024
3.5,-0.394,0.871,-0.168
3.51,-0.138,1.284,-0.047
3.52,-0.118,0.777,0.053
3.53,-0.126,0.919,0.203
3.54,-0.307,0.983,-0.093
3.55,-0.347,0.909,-0.168
3.56,-0.146,1.141,0.075
3.57,-0.103,0.802,0.145
3.58,-0.178,1.0,0.024
3.59,-0.353,0.864,-0.176
3.6,-0.096,1.203,-0.095
3.61,-0.12,0.801,0.062
3.62,-0.107,0.881,0.237
3.63,-0.375,1.112,-0.16
3.64,-0.251,0.796,-0.15
3.65,-0.15,1.324,0.121
3.66,-0.096,0.725,0.113
3.67,-0.288,1.014,0.053
3.68,-0.343,0.981,-0.144
3.69,-0.194,1.079,-0.036
3.7,-0.112,0.884,0.115
3.71,-0.083,0.825,0.17
3.72,-0.458,1.134,-0.168
3.73,-0.216,0.756,-0.131
3.74,-0.164,1.361,0.092
3.75,-0.077,0.674,0.113
3.76,-0.256,0.964,0.008
3.77,-0.282,1.068,-0.235
3.78,-0.08,0.953,-0.026
3.79,-0.247,1.023,0.17
3.8,-0.002,0.746,0.113
3.81,-0.488,1.169,-0.176
3.82,-0.231,0.789,-0.053
3.83,-0.09,1.3,0.083
3.84,-0.128,0.719,0.121
3.85,-0.35,0.919,0.061
3.86,-0.29,1.153,-0.273
3.87,-0.065,0.85,-0.048
3.88,-0.219,1.139,0.186
3.89,0.007,0.672,0.098
3.9,-0.502,1.207,-0.219
3.91,-0.185,0.884,-0.008
3.92,-0.134,1.152,0.075
3.93,-0.145,0.815,0.15
3.94,-0.318,0.871,-0.011
3.95,-0.288,1.223,-0.219
3.96,-0.132,0.814,-0.001
3.97,-0.122,1.189,0.133
3.98,-0.093,0.632,0.08
3.99,-0.491,1.163,-0.153
4.0,-0.084,0.999,-0.071
4.01,-0.121,0.975,0.069
4.02,-0.213,0.907,0.17
4.03,-0.255,0.817,-0.079
4.04,-0.265,1.214,-0.18
4.05,-0.202,0.875,0.114
4.06,-0.099,1.139,0.14
4.07,-0.106,0.698,0.016
4.08,-0.475,1.137,-0.163
4.09,-0.07,1.114,-0.073
4.1,-0.146,0.861,0.082
4.11,-0.18,0.986,0.183
4.12,-0.281,0.76,-0.121
4.13,-0.342,1.149,-0.141
4.14,-0.14,0.864,0.119
4.15,-0.085,1.065,0.111
4.16,-0.183,0.767,0.007
4.17,-0.406,1.046,-0.105
4.18,-0.171,1.181,-0.094
4.19,-0.215,0.878,0.151
4.2,-0.021,1.03,0.133
4.21,-0.387,0.799,-0.229
4.22,-0.283,1.159,-0.116
4.23,0.025,0.919,0.024
4.24,-0.13,0.947,0.097
4.25,-0.274,0.8,0.076
4.26,-0.356,1.154,-0.205
4.27,-0.124,0.978,-0.043
4.28,-0.238,0.833,0.24
4.29,-0.102,1.036,0.084
4.3,-0.372,0.753,-0.198
4.31,-0.231,1.226,0.006
4.32,-0.059,0.971,0.039
4.33,-0.177,0.863,0.13
4.34,-0.241,0.94,0.03
4.35,-0.393,1.057,-0.227
4.36,-0.207,1.069,-0.016
4.37,-0.051,0.789,0.175
4.38,-0.199,1.061,0.07
4.39,-0.346,0.779,-0.193
4.4,-0.151,1.193,-0.045
4.41,-0.142,0.94,0.044
4.42,-0.178,0.804,0.178
4.43,-0.203,1.084,-0.043
4.44,-0.389,0.851,-0.207
4.45,-0.211,1.179,0.061
4.46,-0.009,0.822,0.151
4.47,-0.205,0.979,0.076
4.48,-0.408,0.868,-0.117
4.49,-0.088,1.167,-0.081
4.5,-0.185,0.954,0.021
4.51,-0.101,0.699,0.213
4.52,-0.332,1.187,-0.11
4.53,-0.351,0.777,-0.16
4.54,-0.15,1.212,0.068
4.55,-0.071,0.81,0.079
4.56,-0.214,0.924,0.05
4.57,-0.383,1.02,-0.185
4.58,-0.093,0.984,-0.126
4.59,-0.197,1.036,0.058
4.6,-0.094,0.704,0.223
4.61,-0.409,1.207,-0.101
4.62,-0.276,0.724,-0.206
4.63,-0.129,1.219,0.112
4.64,-0.111,0.874,0.112
4.65,-0.161,0.841,0.03
4.66,-0.352,1.159,-0.198
4.67,-0.125,0.866,-0.084
4.68,-0.173,1.107,0.09
4.69,-0.12,0.739,0.202
4.7,-0.438,1.136,-0.102
4.71,-0.252,0.795,-0.178
4.72,-0.146,1.209,0.119
4.73,-0.077,0.906,0.086
4.74,-0.226,0.729,0.048
4.75,-0.381,1.269,-0.161
4.76,-0.145,0.903,-0.054
4.77,-0.202,1.122,0.133
4.78,-0.16,0.742,0.192
4.79,-0.372,1.065,-0.117
4.8,-0.295,0.901,-0.156
4.81,-0.125,1.101,0.108
4.82,-0.073,1.053,0.095
4.83,-0.225,0.672,0.037
4.84,-0.397,1.277,-0.157
4.85,-0.099,0.883,-0.087
4.86,-0.158,1.074,0.093
4.87,-0.125,0.779,0.198
4.88,-0.396,1.026,-0.176
4.89,-0.191,0.969,-0.159
4.9,-0.14,1.002,0.096
4.91,-0.115,1.081,0.125
4.92,-0.271,0.651,0.014
4.93,-0.422,1.27,-0.136
4.94,-0.065,0.883,-0.088
4.95,-0.19,1.036,0.131
4.96,-0.128,0.86,0.204
4.97,-0.503,1.062,-0.177
4.98,-0.261,0.94,-0.093
4.99,-0.018,1.102,0.043
5.0,-0.114,0.782,0.117
5.01,-0.257,0.853,0.012
5.02,-0.371,1.244,-0.193
5.03,-0.113,0.771,0.009
5.04,-0.18,1.181,0.178
5.05,-0.105,0.713,0.097
5.06,-0.479,1.08,-0.19
5.07,-0.219,0.934,-0.043
5.08,-0.083,1.09,0.068
5.09,-0.1,0.878,0.069
5.1,-0.237,0.815,-0.029
5.11,-0.332,1.329,-0.216
5.12,-0.101,0.76,-0.013
5.13,-0.201,1.145,0.215
5.14,-0.085,0.78,0.07
5.15,-0.454,1.031,-0.253
5.16,-0.141,1.048,-0.007
5.17,-0.062,0.944,0.09
5.18,-0.22,0.983,0.131
5.19,-0.244,0.741,-0.043
5.2,-0.3,1.302,-0.194
5.21,-0.112,0.846,0.024
5.22,-0.173,1.06,0.187
5.23,-0.046,0.798,0.044
5.24,-0.509,1.004,-0.197
5.25,-0.165,1.187,-0.018
5.26,-0.065,0.853,0.061
5.27,-0.227,0.99,0.178
5.28,-0.237,0.791,-0.074
5.29,-0.299,1.229,-0.18
5.3,-0.249,0.89,0.027
5.31,-0.035,0.967,0.15
5.32,-0.158,0.89,0.03
5.33,-0.5,0.885,-0.119
5.34,-0.1,1.251,-0.057
5.35,-0.119,0.765,0.049
5.36,-0.246,0.99,0.204
5.37,-0.205,0.848,-0.134
5.38,-0.327,1.121,-0.181
5.39,-0.174,0.997,0.084
5.4,-0.017,0.906,0.118
5.41,-0.32,0.962,-0.001
5.42,-0.378,0.832,-0.118
5.43,-0.13,1.277,-0.014
5.44,-0.216,0.711,0.056
5.45,-0.063,0.978,0.196
5.46,-0.313,0.957,-0.158
5.47,-0.302,0.958,-0.111
5.48,-0.046,1.173,0.067
5.49,-0.041,0.768,0.102
5.5,-0.347,1.021,0.054
5.51,-0.344,0.938,-0.136
5.52,-0.213,1.235,-0.026
5.53,-0.239,0.724,0.117
5.54,-0.106,0.931,0.21
5.55,-0.337,1.054,-0.202
5.56,-0.308,0.832,-0.1
5.57,-0.127,1.302,0.07
5.58,-0.034,0.687,0.121
5.59,-0.333,1.045,0.007
5.6,-0.3,0.934,-0.156
5.61,-0.182,1.116,-0.032
5.62,-0.191,0.847,0.125
5.63,-0.067,0.893,0.184
5.64,-0.4,1.095,-0.194
5.65,-0.211,0.729,-0.096
5.66,-0.108,1.376,0.07
5.67,-0.082,0.639,0.12
5.68,-0.312,1.033,0.035
5.69,-0.27,0.999,-0.238
5.7,-0.14,0.976,-0.036
5.71,-0.253,0.99,0.191
5.72,-0.046,0.756,0.056
5.73,-0.488,1.122,-0.201
5.74,-0.207,0.826,0.014
5.75,-0.128,1.344,0.063
5.76,-0.16,0.643,0.12
5.77,-0.218,1.038,0.038
5.78,-0.33,1.061,-0.271
5.79,-0.155,0.887,0.005
5.8,-0.115,1.131,0.152
5.81,-0.192,0.735,0.062
5.82,-0.478,1.147,-0.161
5.83,0.001,0.906,-0.131
5.84,-0.163,1.161,0.033
5.85,-0.111,0.624,0.226
5.86,-0.214,1.163,-0.136
5.87,-0.362,0.862,-0.165
5.88,-0.178,0.993,0.129
5.89,-0.091,1.131,0.086
5.9,-0.142,0.647,0.01
5.91,-0.481,1.221,-0.106
5.92,-0.114,0.95,-0.099
5.93,-0.189,1.12,0.032
5.94,-0.086,0.726,0.255
5.95,-0.342,1.05,-0.145
5.96,-0.301,0.954,-0.187
5.97,-0.092,0.994,0.103
5.98,-0.112,1.149,0.089
5.99,-0.12,0.614,-0.006
6.0,-0.452,1.302,-0.11
6.01,-0.163,0.935,-0.093
6.02,-0.181,1.021,0.067
6.03,-0.041,0.833,0.189
6.04,-0.355,0.955,-0.16
6.05,-0.349,0.987,-0.137
6.06,-0.041,0.953,0.114
6.07,-0.165,1.163,0.102
6.08,-0.14,0.618,0.042
6.09,-0.431,1.246,-0.186
6.1,-0.136,0.987,-0.041
6.11,-0.209,0.99,0.115
6.12,-0.163,0.88,0.168
6.13,-0.288,0.818,-0.124
6.14,-0.3,1.187,-0.121
6.15,-0.036,0.903,0.072
6.16,-0.152,1.1,0.164
6.17,-0.212,0.677,0.069
6.18,-0.37,1.191,-0.196
6.19,-0.177,1.015,-0.057
6.2,-0.14,0.874,0.122
6.21,-0.15,1.012,0.131
6.22,-0.311,0.766,-0.136
6.23,-0.281,1.167,-0.153
6.24,-0.02,0.96,0.037
6.25,-0.138,1.039,0.113
6.26,-0.165,0.738,0.028
6.27,-0.406,1.12,-0.14
6.28,-0.126,1.11,-0.053
6.29,-0.198,0.733,0.114
6.3,-0.127,1.07,0.174
6.31,-0.318,0.793,-0.169
6.32,-0.295,1.126,-0.144
6.33,-0.112,0.99,0.065
6.34,-0.061,0.923,0.128
6.35,-0.245,0.861,0.027
6.36,-0.354,1.008,-0.146
6.37,-0.083,1.223,-0.062
6.38,-0.209,0.707,0.133
6.39,-0.153,1.03,0.176
6.4,-0.289,0.88,-0.202
6.41,-0.279,1.078,-0.121
6.42,-0.212,1.043,0.121
6.43,-0.074,0.872,0.095
6.44,-0.243,0.956,-0.019
6.45,-0.379,0.914,-0.108
6.46,-0.184,1.214,-0.019
6.47,-0.167,0.724,0.156
6.48,-0.088,1.042,0.131
6.49,-0.377,0.842,-0.14
6.5,-0.177,1.01,-0.15
6.51,-0.079,1.174,0.022
6.52,-0.116,0.658,0.131
6.53,-0.29,1.08,0.082
6.54,-0.363,0.948,-0.191
6.55,-0.19,1.154,0.013
6.56,-0.073,0.766,0.134
6.57,-0.143,0.959,0.144
6.58,-0.381,0.988,-0.163
6.59,-0.231,0.91,-0.08
6.6,-0.132,1.219,0.046
6.61,-0.132,0.656,0.165
6.62,-0.333,1.061,0.02
6.63,-0.284,0.881,-0.181
6.64,-0.163,1.18,-0.047
6.65,-0.107,0.759,0.192
6.66,-0.082,1.002,0.059
6.67,-0.431,0.92,-0.204
6.68,-0.11,0.991,-0.054
6.69,-0.134,1.156,0.034
6.7,-0.105,0.64,0.127
6.71,-0.307,1.171,-0.012
6.72,-0.264,0.828,-0.211
6.73,-0.2,1.146,-0.002
6.74,-0.125,0.864,0.167
6.75,-0.092,0.941,0.066
6.76,-0.412,1.007,-0.234
6.77,-0.174,0.902,-0.038
6.78,-0.137,1.223,0.047
6.79,-0.132,0.599,0.175
6.8,-0.322,1.133,-0.003
6.81,-0.303,0.879,-0.205
6.82,-0.194,1.087,0.017
6.83,-0.145,0.917,0.186
6.84,-0.088,0.805,0.094
6.85,-0.469,1.124,-0.175
6.86,-0.115,0.891,-0.063
6.87,-0.155,1.246,0.074
6.88,-0.097,0.599,0.153
6.89,-0.302,1.117,-0.001
6.9,-0.285,0.992,-0.219
6.91,-0.131,1.043,-0.005
6.92,-0.186,0.965,0.128
6.93,-0.049,0.751,0.085
6.94,-0.48,1.186,-0.181
6.95,-0.186,0.786,0.02
6.96,-0.126,1.281,0.056
6.97,-0.085,0.684,0.137
6.98,-0.312,1.052,0.009
6.99,-0.299,1.031,-0.214
7.0,-0.152,0.923,0.0
7.01,-0.171,1.143,0.142
7.02,-0.086,0.664,0.065
7.03,-0.482,1.206,-0.179
7.04,-0.144,0.896,-0.025
7.05,-0.109,1.174,0.051
7.06,-0.085,0.705,0.136
7.07,-0.316,0.979,0.008
7.08,-0.334,1.126,-0.198
7.09,-0.072,0.855,-0.007
7.1,-0.169,1.165,0.168
7.11,-0.054,0.668,0.066
7.12,-0.478,1.203,-0.169
7.13,-0.133,0.933,-0.031
7.14,-0.188,1.087,0.09
7.15,-0.139,0.799,0.154
7.16,-0.273,0.883,-0.064
7.17,-0.345,1.166,-0.202
7.18,-0.108,0.829,0.022
7.19,-0.136,1.198,0.13
7.2,-0.069,0.62,0.086
7.21,-0.507,1.153,-0.144
7.22,-0.097,1.0,-0.084
7.23,-0.157,0.986,0.082
7.24,-0.138,0.906,0.171
7.25,-0.279,0.79,-0.069
7.26,-0.386,1.199,-0.188
7.27,-0.116,0.843,0.048
7.28,-0.096,1.19,0.116
7.29,-0.115,0.708,0.047
7.3,-0.444,1.092,-0.16
7.31,-0.07,1.091,-0.088
7.32,-0.171,0.855,0.12
7.33,-0.198,0.975,0.2
7.34,-0.218,0.745,-0.099
7.35,-0.358,1.221,-0.203
7.36,-0.116,0.855,0.076
7.37,-0.114,1.119,0.135
7.38,-0.166,0.759,0.05
7.39,-0.435,1.012,-0.127
7.4,-0.094,1.236,-0.051
7.41,-0.179,0.792,0.091
7.42,-0.184,1.002,0.171
7.43,-0.352,0.816,-0.145
7.44,-0.361,1.13,-0.137
7.45,-0.02,0.941,0.097
7.46,-0.131,1.096,0.128
7.47,-0.268,0.703,0.031
7.48,-0.351,1.099,-0.139
7.49,-0.128,1.163,-0.105
7.5,-0.177,0.723,0.103
7.51,-0.097,1.055,0.172
7.52,-0.325,0.788,-0.172
7.53,-0.319,1.117,-0.103
7.54,-0.061,1.016,0.076
7.55,-0.109,1.006,0.134
7.56,-0.254,0.825,0.018
7.57,-0.37,1.031,-0.106
7.58,-0.103,1.197,-0.094
7.59,-0.171,0.688,0.115
7.6,-0.158,1.093,0.192
7.61,-0.322,0.827,-0.177
7.62,-0.321,1.046,-0.135
7.63,0.012,1.062,0.101
7.64,-0.093,0.909,0.135
7.65,-0.354,0.907,0.026
7.66,-0.282,0.98,-0.129
7.67,-0.122,1.263,-0.042
7.68,-0.291,0.719,0.183
7.69,-0.029,1.033,0.108
7.7,-0.342,0.871,-0.217
7.71,-0.303,1.046,-0.027
7.72,-0.014,1.137,0.019
7.73,-0.113,0.681,0.12
7.74,-0.304,1.042,0.075
7.75,-0.264,0.939,-0.211
7.76,-0.202,1.148,-0.033
7.77,-0.103,0.753,0.113
7.78,-0.089,0.986,0.105
7.79,-0.374,0.928,-0.185
7.8,-0.252,0.952,-0.055
7.81,-0.047,1.2,0.021
7.82,-0.143,0.622,0.129
7.83,-0.24,1.089,0.025
7.84,-0.293,0.969,-0.212
7.85,-0.204,1.102,-0.023
7.86,-0.195,0.782,0.16
7.87,-0.107,0.939,0.107
7.88,-0.367,1.013,-0.214
7.89,-0.201,0.833,-0.059
7.9,-0.087,1.296,0.066
7.91,-0.089,0.635,0.125
7.92,-0.322,1.099,0.032
7.93,-0.274,0.98,-0.177
7.94,-0.203,1.06,-0.024
7.95,-0.177,0.831,0.141
7.96,-0.026,0.862,0.09
7.97,-0.472,1.105,-0.224
7.98,-0.208,0.802,-0.042
7.99,-0.015,1.353,0.05
8.0,-0.149,0.618,0.112
8.01,-0.353,1.034,0.057
8.02,-0.303,1.052,-0.171
8.03,-0.121,0.975,-0.069
8.04,-0.248,0.976,0.221
8.05,-0.01,0.729,0.048
8.06,-0.494,1.179,-0.178
8.07,-0.226,0.772,-0.014
8.08,-0.085,1.284,0.077
8.09,-0.105,0.667,0.119
8.1,-0.346,0.999,0.031
8.11,-0.274,1.114,-0.209
8.12,-0.186,0.916,0.03
8.13,-0.19,1.066,0.189
8.14,-0.043,0.695,0.067
8.15,-0.502,1.202,-0.19
8.16,-0.121,0.844,-0.047
8.17,-0.09,1.198,0.041
8.18,-0.167,0.737,0.137
8.19,-0.27,0.918,-0.026
8.2,-0.291,1.153,-0.21
8.21,-0.14,0.892,0.032
8.22,-0.127,1.18,0.123
8.23,-0.09,0.647,0.051
8.24,-0.496,1.194,-0.168
8.25,-0.027,0.884,-0.12
8.26,-0.222,1.098,0.098
8.27,-0.104,0.736,0.193
8.28,-0.326,1.023,-0.084
8.29,-0.305,0.968,-0.167
8.3,-0.109,0.949,0.099
8.31,-0.122,1.153,0.142
8.32,-0.141,0.665,0.043
8.33,-0.436,1.235,-0.164
8.34,-0.077,0.907,-0.072
8.35,-0.159,1.055,0.08
8.36,-0.152,0.809,0.19
8.37,-0.347,0.948,-0.101
8.38,-0.288,1.08,-0.161
8.39,-0.14,0.912,0.097
8.4,-0.062,1.15,0.111
8.41,-0.151,0.666,0.012
8.42,-0.465,1.198,-0.128
8.43,-0.139,0.946,-0.095
8.44,-0.128,0.953,0.027
8.45,-0.134,0.963,0.168
8.46,-0.347,0.832,-0.15
8.47,-0.273,1.131,-0.113
8.48,-0.11,0.949,0.085
8.49,-0.1,1.073,0.115
8.5,-0.148,0.655,0.02
8.51,-0.431,1.19,-0.166
8.52,-0.104,1.025,-0.092
8.53,-0.182,0.848,0.097
8.54,-0.132,0.992,0.147
8.55,-0.292,0.823,-0.17
8.56,-0.265,1.157,-0.117
8.57,-0.184,0.93,0.134
8.58,-0.072,1.049,0.15
8.59,-0.199,0.749,-0.012
8.6,-0.409,1.073,-0.117
8.61,-0.031,1.156,-0.106
8.62,-0.189,0.774,0.079
8.63,-0.174,1.047,0.204
8.64,-0.304,0.789,-0.158
8.65,-0.265,1.153,-0.131
8.66,-0.126,1.001,0.127
8.67,-0.105,0.915,0.1
8.68,-0.238,0.837,-0.018
8.69,-0.337,1.005,-0.116
8.7,-0.142,1.197,-0.054
8.71,-0.171,0.708,0.126
8.72,-0.181,1.092,0.179
8.73,-0.306,0.807,-0.156
8.74,-0.304,1.124,-0.093
8.75,-0.116,1.072,0.053
8.76,-0.059,0.784,0.114
8.77,-0.259,0.993,0.018
8.78,-0.351,0.966,-0.151
8.79,-0.225,1.184,-0.032
8.8,-0.15,0.711,0.132
8.81,-0.159,1.04,0.153
8.82,-0.275,0.869,-0.198
8.83,-0.251,1.026,-0.106
8.84,-0.152,1.112,0.093
8.85,-0.038,0.705,0.132
8.86,-0.313,1.051,-0.019
8.87,-0.349,0.904,-0.133
8.88,-0.112,1.198,-0.03
8.89,-0.166,0.748,0.124
8.9,-0.13,0.995,0.136
8.91,-0.327,0.975,-0.202
8.92,-0.252,0.898,-0.039
8.93,-0.102,1.221,0.033
8.94,-0.053,0.681,0.11
8.95,-0.389,1.118,0.006
8.96,-0.342,0.859,-0.168
8.97,-0.101,1.151,-0.024
8.98,-0.255,0.885,0.164
8.99,-0.082,0.871,0.081
9.0,-0.363,1.062,-0.222
9.01,-0.205,0.896,-0.033
9.02,-0.115,1.209,0.052
9.03,-0.059,0.644,0.169
9.04,-0.37,1.123,-0.041
9.05,-0.311,0.894,-0.183
9.06,-0.181,1.191,0.047
9.07,-0.152,0.828,0.152
9.08,-0.083,0.939,0.058
9.09,-0.347,0.986,-0.214
9.1,-0.125,0.923,-0.036
9.11,-0.119,1.165,0.103
9.12,-0.123,0.637,0.152
9.13,-0.411,1.205,-0.014
9.14,-0.227,0.872,-0.189
9.15,-0.162,1.146,0.017
9.16,-0.133,0.872,0.148
9.17,-0.116,0.845,0.031
9.18,-0.466,1.133,-0.21
9.19,-0.132,0.873,-0.03
9.2,-0.132,1.185,0.096
9.21,-0.185,0.673,0.201
9.22,-0.352,1.173,-0.11
9.23,-0.217,0.857,-0.198
9.24,-0.264,1.117,0.153
9.25,-0.076,0.913,0.127
9.26,-0.12,0.719,-0.023
9.27,-0.488,1.253,-0.132
9.28,-0.055,0.825,-0.07
9.29,-0.23,1.131,0.084
9.3,-0.096,0.71,0.205
9.31,-0.348,1.102,-0.171
9.32,-0.26,0.909,-0.151
9.33,-0.071,1.053,0.071
9.34,-0.117,1.02,0.134
9.35,-0.246,0.658,0.021
9.36,-0.411,1.315,-0.16
9.37,-0.086,0.849,-0.038
9.38,-0.248,1.104,0.115
9.39,-0.054,0.758,0.183
9.4,-0.37,1.048,-0.167
9.41,-0.357,0.999,-0.128
9.42,-0.034,0.997,0.059
9.43,-0.079,1.056,0.085
9.44,-0.347,0.667,0.056
9.45,-0.346,1.309,-0.197
9.46,-0.088,0.85,-0.066
9.47,-0.258,1.028,0.17
9.48,-0.044,0.853,0.153
9.49,-0.43,0.903,-0.183
9.5,-0.235,1.112,-0.092
9.51,-0.021,0.971,0.065
9.52,-0.162,1.02,0.119
9.53,-0.257,0.656,0.016
9.54,-0.312,1.327,-0.178
9.55,-0.083,0.963,-0.041
9.56,-0.225,0.926,0.151
9.57,-0.016,0.946,0.13
9.58,-0.419,0.876,-0.202
9.59,-0.27,1.182,-0.078
9.6,-0.012,0.914,0.08
9.61,-0.189,1.011,0.123
9.62,-0.254,0.732,-0.001
9.63,-0.28,1.217,-0.197
9.64,-0.133,0.981,-0.009
9.65,-0.198,0.855,0.187
9.66,-0.008,1.031,0.059
9.67,-0.41,0.773,-0.219
9.68,-0.174,1.182,-0.059
9.69,-0.021,0.917,0.066
9.7,-0.159,0.905,0.1
9.71,-0.301,0.872,-0.02
9.72,-0.282,1.099,-0.19
9.73,-0.127,1.045,0.004
9.74,-0.174,0.786,0.255
9.75,-0.08,1.057,0.046
9.76,-0.407,0.794,-0.241
9.77,-0.185,1.187,0.038
9.78,-0.11,0.909,0.062
9.79,-0.185,0.857,0.142
9.8,-0.235,1.008,-0.061
9.81,-0.307,0.944,-0.199
9.82,-0.222,1.145,0.047
9.83,-0.03,0.801,0.128
9.84,-0.18,1.017,0.035
9.85,-0.394,0.859,-0.175
9.86,-0.065,1.19,-0.066
9.87,-0.216,0.721,0.122
9.88,-0.171,0.957,0.234
9.89,-0.331,0.971,-0.167
9.9,-0.309,0.902,-0.156
9.91,-0.136,1.216,0.124
9.92,-0.008,0.771,0.096
9.93,-0.383,1.027,0.014
9.94,-0.297,0.887,-0.144
9.95,-0.131,1.223,-0.047
9.96,-0.24,0.73,0.095
9.97,-0.073,0.92,0.17
9.98,-0.365,1.082,-0.221
9.99,-0.273,0.811,-0.08
10.0,-0.008,1.316,0.053
10.01,-0.074,0.611,0.078
10.02,-0.387,1.027,0.069
10.03,-0.237,0.981,-0.175
10.04,-0.155,1.092,-0.028
10.05,-0.23,0.842,0.127
10.06,0.04,0.867,0.117
10.07,-0.436,1.123,-0.221
10.08,-0.308,0.792,0.002
10.09,-0.059,1.361,0.06
10.1,-0.102,0.598,0.14
10.11,-0.407,1.052,0.046
10.12,-0.208,1.063,-0.245
10.13,-0.191,0.958,-0.025
10.14,-0.199,0.976,0.169
10.15,0.03,0.766,0.048
10.16,-0.51,1.152,-0.223
10.17,-0.162,0.802,0.004
10.18,-0.099,1.337,0.003
10.19,-0.074,0.605,0.13
10.2,-0.314,1.019,0.041
10.21,-0.311,1.146,-0.234
10.22,-0.162,0.889,-0.02
10.23,-0.153,1.128,0.172
10.24,-0.025,0.661,0.073
10.25,-0.507,1.244,-0.161
10.26,-0.138,0.866,-0.052
10.27,-0.113,1.152,0.086
10.28,-0.18,0.781,0.191
10.29,-0.347,0.899,-0.06
10.3,-0.226,1.084,-0.217
10.31,-0.205,0.967,0.108
10.32,-0.165,1.125,0.121
10.33,0.002,0.644,0.029
10.34,-0.482,1.303,-0.152
10.35,-0.111,0.896,-0.081
10.36,-0.101,1.003,0.083
10.37,-0.151,0.912,0.172
10.38,-0.372,0.831,-0.086
10.39,-0.241,1.107,-0.152
10.4,-0.149,0.915,0.082
10.41,-0.175,1.105,0.13
10.42,-0.05,0.667,0.025
10.43,-0.47,1.206,-0.215
10.44,-0.117,0.982,-0.08
10.45,-0.031,0.944,0.078
10.46,-0.219,0.973,0.154
10.47,-0.321,0.806,-0.138
10.48,-0.185,1.218,-0.181
10.49,-0.137,0.915,0.099
10.5,-0.159,1.043,0.15
10.51,-0.149,0.753,0.034
10.52,-0.436,1.179,-0.176
10.53,-0.19,1.03,-0.055
10.54,-0.107,0.802,0.112
10.55,-0.105,1.091,0.1
10.56,-0.422,0.708,-0.131
10.57,-0.219,1.209,-0.111
10.58,-0.005,1.012,0.027
10.59,-0.206,0.884,0.144
10.6,-0.141,0.861,0.033
10.61,-0.351,1.075,-0.27
10.62,-0.115,1.057,-0.038
10.63,-0.094,0.836,0.161
10.64,-0.156,1.056,0.063
10.65,-0.3,0.743,-0.161
10.66,-0.184,1.24,-0.046
10.67,-0.156,0.949,0.039
10.68,-0.168,0.96,0.187
10.69,-0.155,0.872,-0.101
10.7,-0.476,1.036,-0.122
10.71,-0.094,1.068,0.036
10.72,-0.056,0.894,0.121
10.73,-0.21,1.0,0.087
10.74,-0.333,0.792,-0.151
10.75,-0.125,1.292,-0.091
10.76,-0.148,0.796,0.086
10.77,-0.166,0.913,0.178
10.78,-0.223,0.988,-0.165
10.79,-0.346,0.898,-0.125
10.8,-0.114,1.191,0.045
10.81,-0.052,0.845,0.13
10.82,-0.207,0.996,0.019
10.83,-0.362,0.795,-0.168
10.84,-0.097,1.252,-0.072
10.85,-0.167,0.824,0.085
10.86,-0.116,0.815,0.189
10.87,-0.364,1.137,-0.128
10.88,-0.312,0.795,-0.14
10.89,-0.17,1.233,0.091
10.9,-0.041,0.804,0.09
10.91,-0.234,0.976,0.015
10.92,-0.262,0.929,-0.166
10.93,-0.152,1.143,-0.097
10.94,-0.084,0.879,0.088
10.95,-0.141,0.762,0.177
10.96,-0.384,1.15,-0.139
10.97,-0.286,0.791,-0.109
10.98,-0.1,1.28,0.069
10.99,-0.147,0.765,0.139
11.0,-0.248,0.953,0.012
11.01,-0.358,0.977,-0.182
11.02,-0.078,1.049,-0.062
11.03,-0.122,0.999,0.111
11.04,-0.175,0.713,0.195
11.05,-0.352,1.204,-0.166
11.06,-0.254,0.807,-0.127
11.07,-0.087,1.291,0.134
11.08,-0.094,0.742,0.101
11.09,-0.275,0.887,-0.037
11.1,-0.3,1.157,-0.19
11.11,-0.127,0.89,-0.03
11.12,-0.24,1.069,0.173
11.13,0.016,0.712,0.089
11.14,-0.542,1.175,-0.174
11.15,-0.211,0.808,-0.035
11.16,-0.033,1.22,0.061
11.17,-0.154,0.802,0.12
11.18,-0.315,0.865,0.049
11.19,-0.327,1.206,-0.203
11.2,-0.179,0.809,0.02
11.21,-0.169,1.172,0.167
11.22,0.0,0.666,0.042
11.23,-0.528,1.178,-0.15
11.24,-0.121,0.949,-0.05
11.25,-0.128,1.068,0.089
11.26,-0.32,0.969,-0.222
11.27,-0.084,1.01,0.01
11.28,-0.19,1.046,0.11
11.29,-0.024,0.712,0.074
11.3,-0.499,1.223,-0.185
11.31,-0.205,0.827,-0.034
11.32,-0.101,1.269,0.048
11.33,-0.139,0.676,0.131
11.34,-0.32,0.97,-0.003
11.35,-0.289,1.065,-0.225
11.36,-0.156,0.911,-0.0
11.37,-0.12,1.125,0.14
11.38,-0.086,0.653,0.087
11.39,-0.561,1.181,-0.164
11.4,-0.033,0.921,-0.059
11.41,-0.151,1.148,0.059
11.42,-0.164,0.723,0.211
11.43,-0.31,1.114,-0.182
11.44,-0.342,0.867,-0.147
11.45,-0.13,1.047,0.153
11.46,-0.042,1.088,0.077
11.47,-0.229,0.659,0.029
11.48,-0.433,1.278,-0.107
11.49,-0.125,0.86,-0.051
11.5,-0.227,1.094,0.128
11.51,-0.066,0.797,0.184
11.52,-0.384,0.965,-0.167
11.53,-0.309,1.029,-0.125
11.54,0.022,0.982,0.014
11.55,-0.136,1.016,0.11
11.56,-0.214,0.647,0.064
11.57,-0.408,1.347,-0.197
11.58,-0.104,0.876,-0.008
11.59,-0.227,1.106,0.139
11.6,-0.084,0.852,0.149
11.61,-0.34,0.914,-0.182
11.62,-0.217,1.137,-0.133
11.63,-0.055,0.896,0.112
11.64,-0.172,1.015,0.126
11.65,-0.244,0.694,0.037
11.66,-0.35,1.303,-0.222
11.67,-0.063,0.906,-0.051
11.68,-0.233,0.959,0.165
11.69,-0.073,0.949,0.128
11.7,-0.419,0.821,-0.195
11.71,-0.235,1.201,-0.082
11.72,-0.002,0.909,0.073
11.73,-0.156,0.984,0.143
11.74,-0.24,0.752,-0.004
11.75,-0.358,1.19,-0.22
11.76,-0.074,0.935,-0.005
11.77,-0.204,0.919,0.204
11.78,-0.077,1.005,0.029
11.79,-0.409,0.782,-0.194
11.8,-0.21,1.261,0.013
11.81,-0.058,0.893,0.076
11.82,-0.163,0.876,0.138
11.83,-0.173,0.917,-0.033
11.84,-0.36,1.079,-0.194
11.85,-0.197,1.04,0.086
11.86,-0.038,0.851,0.13
11.87,-0.231,1.005,0.025
11.88,-0.423,0.798,-0.12
11.89,-0.127,1.257,-0.072
11.9,-0.139,0.838,0.043
11.91,-0.147,0.894,0.224
11.92,-0.247,0.992,-0.127
11.93,-0.24,0.878,-0.187
11.94,-0.128,1.285,0.066
11.95,-0.072,0.753,0.112
11.96,-0.258,1.069,0.077
11.97,-0.385,0.905,-0.138
11.98,-0.195,1.146,-0.063
11.99,-0.154,0.866,0.118
12.0,-0.154,0.861,0.205
12.01,-0.331,1.096,-0.156
12.02,-0.264,0.818,-0.133
12.03,-0.136,1.318,0.074
12.04,-0.056,0.694,0.15
12.05,-0.306,1.0,0.046
12.06,-0.35,0.953,-0.167
12.07,-0.14,1.116,-0.035
12.08,-0.263,0.881,0.123
12.09,-0.056,0.751,0.16
12.1,-0.395,1.218,-0.208
12.11,-0.151,0.719,-0.132
12.12,-0.103,1.365,0.098
12.13,-0.117,0.689,0.164
12.14,-0.297,0.978,0.022
12.15,-0.292,1.086,-0.174
12.16,-0.183,0.939,-0.036
12.17,-0.228,1.024,0.197
12.18,-0.036,0.701,0.067
12.19,-0.505,1.156,-0.18
12.2,-0.157,0.823,-0.064
12.21,-0.03,1.289,0.047
12.22,-0.13,0.683,0.121
12.23,-0.228,0.928,0.014
12.24,-0.28,0.926,-0.234
12.25,-0.159,1.043,0.061
12.26,-0.083,1.031,0.114
12.27,-0.153,0.698,0.035
12.28,-0.431,1.243,-0.206
12.29,-0.022,0.855,-0.048
12.3,-0.238,1.178,0.114
12.31,-0.103,0.672,0.162
12.32,-0.33,1.067,-0.126
12.33,-0.263,0.982,-0.145
12.34,-0.121,1.031,0.112
12.35,-0.121,1.088,0.101
12.36,-0.214,0.631,0.011
12.37,-0.494,1.322,-0.126
12.38,-0.081,0.885,-0.027
12.39,-0.255,1.092,0.146
12.4,-0.095,0.809,0.165
12.41,-0.429,0.938,-0.169
12.42,-0.258,1.086,-0.063
12.43,0.002,1.004,0.071
12.44,-0.144,1.008,0.088
12.45,-0.272,0.698,0.016
12.46,-0.318,1.351,-0.216
12.47,-0.072,0.848,-0.043
12.48,-0.161,1.041,0.219
12.49,-0.092,0.845,0.059
12.5,-0.471,0.933,-0.163
12.51,-0.156,1.234,-0.019
12.52,-0.117,0.764,0.114
12.53,-0.213,1.024,0.194
12.54,-0.225,0.79,-0.114
12.55,-0.315,1.154,-0.181
12.56,-0.156,0.994,0.114
12.57,-0.084,0.937,0.111
12.58,-0.221,0.919,0.01
12.59,-0.39,0.95,-0.125
12.6,-0.188,1.253,-0.007
12.61,-0.198,0.691,0.191
12.62,-0.107,1.057,0.121
12.63,-0.359,0.841,-0.181
12.64,-0.354,1.092,-0.07
12.65,0.018,1.104,0.061
12.66,-0.133,0.677,0.103
12.67,-0.311,1.061,0.014
12.68,-0.27,0.928,-0.227
12.69,-0.175,1.21,0.027
12.7,-0.159,0.795,0.197
12.71,-0.15,0.944,0.07
12.72,-0.404,0.984,-0.196
12.73,-0.074,1.053,-0.077
12.74,-0.1,1.044,0.04
12.75,-0.201,0.688,0.244
12.76,-0.405,1.169,-0.1
12.77,-0.28,0.777,-0.203
12.78,-0.039,1.267,0.099
12.79,-0.1,0.776,0.089
12.8,-0.287,0.88,0.016
12.81,-0.322,1.193,-0.237
12.82,-0.091,0.855,-0.063
12.83,-0.256,1.122,0.232
12.84,-0.091,0.676,0.145
12.85,-0.524,1.169,-0.216
12.86,-0.196,0.889,-0.045
12.87,-0.026,1.2,0.027
12.88,-0.13,0.767,0.091
12.89,-0.213,0.842,-0.085
12.9,-0.338,1.252,-0.191
12.91,-0.165,0.838,0.123
12.92,-0.123,1.138,0.153
12.93,-0.14,0.601,-0.011
12.94,-0.433,1.226,-0.173
12.95,-0.151,0.924,-0.018
12.96,-0.164,0.979,0.143
12.97,-0.098,0.938,0.137
12.98,-0.337,0.803,-0.205
12.99,-0.314,1.253,-0.087
13.0,-0.045,0.867,0.077
13.01,-0.183,0.984,0.165
13.02,-0.149,0.73,0.012
13.03,-0.397,1.249,-0.231
13.04,-0.146,0.955,-0.016
13.05,-0.104,1.051,0.15
13.06,-0.192,0.803,0.033
13.07,-0.344,0.978,-0.2
13.08,-0.181,1.237,-0.103
13.09,-0.108,0.668,0.106
13.1,-0.127,1.111,0.158
13.11,-0.357,0.729,-0.154
13.12,-0.198,1.146,-0.171
13.13,0.002,1.068,0.057
13.14,-0.119,0.77,0.142
13.15,-0.244,0.955,0.003
13.16,-0.365,1.028,-0.24
13.17,-0.092,1.17,-0.037
13.18,-0.04,0.794,0.168
13.19,-0.204,0.987,0.03
13.2,-0.351,0.82,-0.172
13.21,-0.093,1.2,-0.044
13.22,-0.149,0.917,0.072
13.23,-0.153,0.762,0.233
13.24,-0.385,1.166,-0.093
13.25,-0.287,0.789,-0.197
13.26,-0.021,1.348,0.131
13.27,-0.151,0.691,0.116
13.28,-0.328,0.939,0.056
13.29,-0.29,1.123,-0.219
13.3,-0.13,0.919,-0.098
13.31,-0.141,0.984,0.194
13.32,-0.027,0.738,0.06
13.33,-0.538,1.16,-0.196
13.34,-0.078,0.863,-0.045
13.35,-0.109,1.207,0.094
13.36,-0.194,0.652,0.213
13.37,-0.26,0.953,-0.092
13.38,-0.319,1.057,-0.206
13.39,-0.112,0.986,0.176
13.4,-0.22,1.138,0.099
13.41,-0.111,0.577,-0.004
13.42,-0.392,1.408,-0.187
13.43,-0.172,0.847,-0.058
13.44,-0.163,1.022,0.143
13.45,-0.036,0.867,0.146
13.46,-0.451,0.841,-0.166
13.47,-0.253,1.145,-0.11
13.48,-0.017,0.952,0.12
13.49,-0.238,1.033,0.099
13.5,-0.217,0.656,0.003
13.51,-0.343,1.349,-0.24
13.52,-0.083,0.927,0.003
13.53,-0.126,0.994,0.139
13.54,-0.098,0.867,0.021
13.55,-0.458,0.929,-0.146
13.56,-0.094,1.279,-0.079
13.57,-0.206,0.663,0.145
13.58,-0.127,1.104,0.128
13.59,-0.326,0.793,-0.174
13.6,-0.328,1.128,-0.104
13.61,0.046,1.09,0.07
13.62,-0.139,0.736,0.131
13.63,-0.265,1.025,0.05
13.64,-0.37,0.948,-0.224
13.65,-0.134,1.173,-0.014
13.66,-0.09,0.78,0.156
13.67,-0.156,0.973,0.058
13.68,-0.348,0.947,-0.217
13.69,-0.149,1.089,-0.129
13.7,-0.077,0.937,0.088
13.71,-0.178,0.745,0.209
13.72,-0.378,1.127,-0.086
13.73,-0.302,0.784,-0.157
13.74,-0.044,1.307,0.097
13.75,-0.166,0.73,0.134
13.76,-0.251,0.892,0.047
13.77,-0.375,1.143,-0.245
13.78,-0.054,0.9,-0.035
13.79,-0.178,1.104,0.156
13.8,-0.14,0.661,0.085
13.81,-0.399,1.183,-0.182
13.82,-0.156,0.895,-0.079
13.83,-0.097,1.091,0.102
13.84,-0.138,0.796,0.144
13.85,-0.313,0.881,-0.041
13.86,-0.257,0.945,-0.17
13.87,-0.017,1.084,0.083
13.88,-0.178,0.965,0.142
13.89,-0.185,0.683,0.006
13.9,-0.535,1.363,-0.173
13.91,-0.041,0.773,-0.02
13.92,-0.122,1.212,0.138
13.93,-0.154,0.715,0.164
13.94,-0.459,1.016,-0.187
13.95,-0.173,1.056,-0.082
13.96,-0.046,0.953,0.138
13.97,-0.18,1.02,0.14
13.98,-0.24,0.644,-0.065
13.99,-0.409,1.342,-0.163
14.0,-0.095,0.833,0.102
14.01,-0.142,1.054,0.148
14.02,-0.139,0.757,-0.0
14.03,-0.384,1.074,-0.188
14.04,-0.153,1.128,-0.014
14.05,-0.121,0.711,0.166
14.06,-0.178,1.093,0.121
14.07,-0.33,0.728,-0.208
14.08,-0.207,1.217,-0.085
14.09,-0.122,0.931,0.142
14.1,-0.213,0.854,0.18
14.11,-0.208,0.949,-0.113
14.12,-0.317,0.933,-0.195
14.13,-0.081,1.283,0.152
14.14,-0.184,0.721,0.123
14.15,-0.188,1.001,0.028
14.16,-0.35,0.976,-0.204
14.17,-0.16,1.135,-0.045
14.18,-0.078,0.838,0.156
14.19,-0.17,0.876,0.137
14.2,-0.416,1.051,-0.162
14.21,-0.235,0.828,-0.094
14.22,-0.142,1.253,0.15
14.23,-0.136,0.647,0.134
14.24,-0.358,1.014,-0.032
14.25,-0.293,0.952,-0.229
14.26,-0.058,1.037,0.031
14.27,-0.192,0.993,0.164
14.28,-0.067,0.688,0.088
14.29,-0.509,1.254,-0.201
14.3,-0.055,0.835,-0.037
14.31,-0.198,1.135,0.115
14.32,-0.103,0.724,0.161
14.33,-0.381,1.051,-0.172
14.34,-0.233,1.001,-0.171
14.35,0.0,1.02,0.099
14.36,-0.148,0.988,0.054
14.37,-0.227,0.682,0.034
14.38,-0.455,1.343,-0.158
14.39,-0.176,0.799,0.072
14.4,-0.115,1.13,0.179
14.41,-0.144,0.742,0.015
14.42,-0.421,1.026,-0.161
14.43,-0.149,1.146,-0.067
14.44,-0.15,0.823,0.197
14.45,-0.161,1.088,0.139
14.46,-0.319,0.697,-0.139
14.47,-0.316,1.288,-0.14
14.48,0.025,0.919,0.095
14.49,-0.166,0.899,0.105
14.5,-0.237,0.882,-0.03
14.51,-0.37,1.009,-0.214
14.52,-0.103,1.206,0.055
14.53,-0.159,0.785,0.151
14.54,-0.162,1.011,-0.011
14.55,-0.395,0.801,-0.157
14.56,-0.164,1.263,-0.049
14.57,-0.07,0.788,0.079
14.58,-0.097,0.848,0.15
14.59,-0.36,1.042,-0.17
14.6,-0.243,0.833,-0.127
14.61,-0.12,1.316,0.151
14.62,-0.125,0.657,0.108
14.63,-0.361,1.005,0.015
14.64,-0.265,1.03,-0.213
14.65,-0.063,1.052,0.005
14.66,-0.198,0.932,0.181
14.67,-0.148,0.75,0.077
14.68,-0.454,1.082,-0.14
14.69,-0.139,0.959,0.015
14.7,-0.203,1.038,0.094
14.71,-0.126,0.76,0.128
14.72,-0.406,1.123,-0.258
14.73,-0.182,0.878,-0.036
14.74,-0.091,1.217,0.166
14.75,-0.198,0.761,0.115
14.76,-0.208,0.854,-0.074
14.77,-0.321,1.221,-0.24
14.78,-0.072,0.866,0.147
14.79,-0.173,1.138,0.138
14.8,-0.232,0.588,0.05
14.81,-0.365,1.333,-0.175
14.82,-0.139,0.924,-0.093
14.83,-0.203,0.953,0.215
14.84,-0.14,0.934,0.094
14.85,-0.411,0.787,-0.196
14.86,-0.177,1.31,-0.078
14.87,-0.11,0.826,0.097
14.88,-0.228,0.988,0.19
14.89,-0.205,0.707,-0.088
14.9,-0.364,1.182,-0.231
14.91,-0.017,1.052,0.071
14.92,-0.153,0.859,0.101
14.93,-0.179,0.938,-0.007
14.94,-0.318,0.932,-0.179
14.95,-0.217,1.272,-0.033
14.96,-0.078,0.675,0.158
14.97,-0.185,1.052,0.06
14.98,-0.347,0.783,-0.212
14.99,-0.199,1.107,-0.048
15.0,-0.066,1.147,0.106
15.01,-0.232,0.615,0.097
15.02,-0.21,1.123,-0.045
15.03,-0.344,0.888,-0.223
15.04,-0.149,1.225,0.101
15.05,-0.088,0.76,0.142
15.06,-0.294,0.917,0.025
15.07,-0.395,1.051,-0.162
15.08,-0.058,0.988,-0.09
15.09,-0.163,1.058,0.151
15.1,-0.021,0.732,0.084
15.11,-0.459,1.118,-0.229
15.12,-0.128,0.885,-0.056
15.13,-0.121,1.231,0.139
15.14,-0.221,0.709,0.165
15.15,-0.248,0.909,-0.044
15.16,-0.371,1.163,-0.198
15.17,-0.13,0.888,0.15
15.18,-0.196,1.132,0.146
15.19,-0.138,0.589,-0.038
15.2,-0.409,1.299,-0.148
15.21,-0.114,0.929,-0.056
15.22,-0.222,1.0,0.173
15.23,-0.164,0.885,0.151
15.24,-0.405,0.828,-0.167
15.25,-0.294,1.269,-0.046
15.26,-0.019,0.808,0.102
15.27,-0.205,1.053,0.126
15.28,-0.223,0.698,-0.095
15.29,-0.324,1.186,-0.236
15.3,-0.051,1.052,0.147
15.31,-0.179,0.906,0.188
15.32,-0.278,0.887,0.025
15.33,-0.407,0.952,-0.149
15.34,-0.145,1.28,-0.043
15.35,-0.122,0.667,0.111
15.36,-0.096,1.048,0.069
15.37,-0.413,0.822,-0.22
15.38,-0.174,1.076,-0.077
15.39,-0.051,1.053,0.123
15.4,-0.268,0.708,0.181
15.41,-0.233,1.078,-0.09
15.42,-0.32,0.903,-0.199
15.43,-0.117,1.267,0.123
15.44,-0.057,0.712,0.118
15.45,-0.367,0.942,0.034
15.46,-0.342,1.048,-0.193
15.47,-0.09,0.991,-0.051
15.48,-0.185,0.991,0.178
15.49,-0.153,0.823,0.056
15.5,-0.479,1.088,-0.168
15.51,-0.083,0.905,-0.066
15.52,-0.125,1.186,0.094
15.53,-0.193,0.638,0.148
15.54,-0.295,1.087,-0.144
15.55,-0.299,0.951,-0.206
15.56,0.016,1.131,0.106
15.57,-0.103,0.871,0.054
15.58,-0.296,0.73,0.004
15.59,-0.375,1.306,-0.233
15.6,-0.104,0.813,-0.014
15.61,-0.123,1.138,0.162
15.62,-0.043,0.687,0.024
15.63,-0.542,1.156,-0.178
15.64,-0.057,1.02,-0.08
15.65,-0.157,0.912,0.1
15.66,-0.198,0.969,0.187
15.67,-0.297,0.748,-0.17
15.68,-0.284,1.314,-0.161
15.69,0.061,0.892,0.109
15.7,-0.179,0.961,0.131
15.71,-0.227,0.76,-0.013
15.72,-0.374,1.173,-0.217
15.73,-0.094,1.1,0.034
15.74,-0.125,0.812,0.145
15.75,-0.213,0.979,0.014
15.76,-0.477,0.844,-0.133
15.77,-0.165,1.311,-0.045
15.78,-0.068,0.745,0.088
15.79,-0.17,0.981,0.153
15.8,-0.299,0.938,-0.186
15.81,-0.291,0.982,-0.077
15.82,-0.014,1.178,0.087
15.83,-0.131,0.607,0.113
15.84,-0.358,1.128,-0.016
15.85,-0.324,0.882,-0.182
15.86,-0.16,1.183,0.064
15.87,-0.102,0.803,0.114
15.88,-0.153,0.853,-0.01
15.89,-0.428,1.176,-0.205
15.9,-0.032,0.875,-0.024
15.91,-0.242,1.13,0.143
15.92,-0.046,0.649,0.106
15.93,-0.462,1.188,-0.169
15.94,-0.244,0.92,-0.085
15.95,-0.021,1.116,0.109
15.96,-0.173,0.851,0.135
15.97,-0.215,0.78,-0.097
15.98,-0.357,1.265,-0.162
15.99,0.025,0.88,0.073
16.0,-0.21,1.136,0.126
16.01,-0.152,0.585,0.012
16.02,-0.443,1.281,-0.219
16.03,-0.058,1.008,-0.046
16.04,-0.18,0.868,0.179
16.05,-0.205,0.967,0.116
16.06,-0.41,0.811,-0.162
16.07,-0.245,1.269,-0.085
16.08,0.01,0.793,0.11
16.09,-0.215,1.01,0.085
16.1,-0.221,0.766,-0.055
16.11,-0.362,1.188,-0.173
16.12,-0.087,1.044,0.143
16.13,-0.099,0.768,0.13
16.14,-0.315,0.986,-0.078
16.15,-0.251,0.886,-0.187
16.16,-0.14,1.283,-0.019
16.17,-0.139,0.691,0.276
16.18,-0.218,0.969,0.058
16.19,-0.472,0.915,-0.206
16.2,-0.072,1.046,-0.055
16.21,-0.065,1.043,0.077
16.22,-0.137,0.684,0.178
16.23,-0.397,1.165,-0.136
16.24,-0.297,0.87,-0.071
16.25,-0.017,1.29,0.093
16.26,-0.12,0.676,0.11
16.27,-0.31,0.904,-0.002
16.28,-0.345,1.15,-0.207
16.29,-0.12,0.913,0.088
16.3,-0.134,0.93,0.131
16.31,-0.239,0.677,0.002
16.32,-0.373,1.392,-0.194
16.33,-0.105,0.806,0.018
16.34,-0.248,1.155,0.235
16.35,-0.11,0.704,0.048
16.36,-0.536,1.069,-0.215
16.37,-0.034,1.105,-0.122
16.38,-0.081,0.872,0.054
16.39,-0.182,0.999,0.174
16.4,-0.283,0.679,-0.174
16.41,-0.34,1.212,-0.16
16.42,0.08,0.968,0.154
16.43,-0.233,1.004,0.133
16.44,-0.307,0.722,0.061
16.45,-0.282,1.179,-0.209
16.46,-0.185,1.109,-0.002
16.47,-0.064,0.765,0.198
16.48,-0.208,1.032,-0.007
16.49,-0.472,0.788,-0.147
16.5,-0.046,1.325,-0.082
16.51,-0.122,0.734,0.112
16.52,-0.182,0.956,0.184
16.53,-0.344,0.952,-0.206
16.54,-0.319,0.957,-0.129
16.55,0.076,1.229,0.078
16.56,-0.155,0.606,0.085
16.57,-0.286,1.092,-0.067
16.58,-0.242,0.919,-0.193
16.59,-0.222,1.206,0.116
16.6,-0.11,0.762,0.147
16.61,-0.187,0.82,-0.007
16.62,-0.389,1.229,-0.236
16.63,-0.019,0.829,-0.072
16.64,-0.253,1.147,0.182
16.65,-0.077,0.633,0.126
16.66,-0.452,1.153,-0.185
16.67,-0.179,0.949,-0.065
16.68,-0.038,1.14,0.099
16.69,-0.15,0.837,0.11
16.7,-0.294,0.769,-0.071
16.71,-0.275,1.28,-0.208
16.72,-0.035,0.909,0.128
16.73,-0.16,1.063,0.121
16.74,-0.173,0.649,-0.006
16.75,-0.509,1.278,-0.186
16.76,-0.068,0.918,-0.004
16.77,-0.21,0.957,0.178
16.78,-0.187,0.979,0.116
16.79,-0.391,0.805,-0.212
16.8,-0.209,1.319,-0.031
16.81,-0.051,0.733,0.12
16.82,-0.164,1.019,0.142
16.83,-0.342,0.772,-0.096
16.84,-0.238,1.123,-0.151
16.85,-0.102,1.105,0.138
16.86,-0.121,0.698,0.12
16.87,-0.294,1.034,-0.043
16.88,-0.301,0.97,-0.202
16.89,-0.064,1.228,-0.009
16.9,-0.095,0.702,0.169
16.91,-0.22,0.969,0.068
16.92,-0.433,0.941,-0.208
16.93,-0.103,1.044,-0.028
16.94,-0.098,0.988,0.102
16.95,-0.108,0.675,0.135
16.96,-0.453,1.173,-0.159
16.97,-0.236,0.857,-0.062
16.98,-0.072,1.238,0.143
16.99,-0.075,0.71,0.116
17.0,-0.336,0.918,-0.03
17.01,-0.32,1.159,-0.177
17.02,-0.083,0.934,0.096
17.03,-0.153,1.074,0.109
17.04,-0.198,0.595,0.047
17.05,-0.432,1.38,-0.249
17.06,-0.034,0.844,-0.047
17.07,-0.085,1.056,0.18
17.08,-0.245,0.829,0.126
17.09,-0.408,0.908,-0.196
17.1,-0.18,1.294,-0.09
17.11,-0.043,0.82,0.179
17.12,-0.176,1.023,0.148
17.13,-0.383,0.703,-0.172
17.14,-0.171,1.284,-0.078
17.15,-0.104,0.9,0.224
17.16,-0.287,0.979,0.163
17.17,-0.232,0.779,-0.058
17.18,-0.323,1.104,-0.198
17.19,-0.057,1.167,0.072
17.2,-0.091,0.76,0.144
17.21,-0.35,1.039,0.016
17.22,-0.316,0.882,-0.192
17.23,-0.17,1.258,-0.036
17.24,-0.135,0.729,0.166
17.25,-0.131,0.938,0.074
17.26,-0.32,0.993,-0.233
17.27,-0.241,0.982,-0.03
17.28,-0.081,1.087,0.113
17.29,-0.138,0.635,0.126
17.3,-0.38,1.142,-0.088
17.31,-0.242,0.876,-0.14
17.32,-0.111,1.265,0.141
17.33,-0.121,0.739,0.124
17.34,-0.313,0.848,0.037
17.35,-0.422,1.231,-0.217
17.36,-0.047,0.832,0.018
17.37,-0.21,1.125,0.173
17.38,-0.094,0.61,0.01
17.39,-0.532,1.263,-0.207
17.4,-0.052,0.954,-0.029
17.41,-0.097,1.005,0.139
17.42,-0.176,0.894,0.16
17.43,-0.429,0.859,-0.134
17.44,-0.323,1.25,-0.075
17.45,0.003,0.85,0.142
17.46,-0.205,1.035,0.113
17.47,-0.236,0.702,-0.062
17.48,-0.36,1.246,-0.153
17.49,-0.135,1.029,0.169
17.5,-0.146,0.794,0.134
17.51,-0.269,0.956,0.044
17.52,-0.333,0.976,-0.223
17.53,-0.091,1.21,-0.079
17.54,-0.088,0.72,0.191
17.55,-0.219,0.998,0.074
17.56,-0.375,0.856,-0.175
17.57,-0.119,1.139,-0.121
17.58,-0.103,0.909,0.149
17.59,-0.198,0.765,0.207
17.6,-0.386,1.109,-0.121
17.61,-0.252,0.882,-0.067
17.62,-0.112,1.358,0.13
17.63,-0.209,0.563,0.107
17.64,-0.182,1.004,0.012
17.65,-0.355,1.116,-0.248
17.66,-0.117,0.968,0.046
17.67,-0.081,1.05,0.115
17.68,-0.238,0.635,-0.029
17.69,-0.431,1.238,-0.161
17.7,-0.081,0.912,-0.092
17.71,-0.115,1.051,0.101
17.72,-0.067,0.81,0.118
17.73,-0.451,0.968,-0.201
17.74,-0.198,1.117,-0.056
17.75,-0.092,0.921,0.118
17.76,-0.216,1.008,0.155
17.77,-0.191,0.715,-0.106
17.78,-0.4,1.29,-0.211
17.79,0.037,0.915,0.142
17.8,-0.213,0.971,0.137
17.81,-0.304,0.795,0.043
17.82,-0.303,1.088,-0.219
17.83,-0.162,1.171,-0.08
17.84,-0.01,0.703,0.187
17.85,-0.164,1.045,0.039
17.86,-0.454,0.789,-0.179
17.87,-0.026,1.204,-0.124
17.88,-0.127,0.836,0.092
17.89,-0.128,0.904,0.169
17.9,-0.385,0.993,-0.173
17.91,-0.306,0.919,-0.064
17.92,-0.121,1.169,0.15
17.93,-0.249,0.61,0.186
17.94,-0.241,1.114,-0.059
17.95,-0.37,0.905,-0.22
17.96,-0.031,1.276,0.137
17.97,-0.108,0.739,0.076
17.98,-0.347,0.872,0.015
17.99,-0.22,1.124,-0.252
18.0,-0.22,0.905,-0.035
18.01,-0.134,1.046,0.213
18.02,-0.095,0.656,0.064
18.03,-0.623,1.208,-0.101
18.04,-0.118,0.937,-0.098
18.05,-0.132,1.056,0.051
18.06,0.01,0.824,0.165
18.07,-0.419,0.921,-0.124
18.08,-0.312,1.126,-0.133
18.09,0.073,0.993,0.102
18.1,-0.292,0.999,0.124
18.11,-0.144,0.681,0.035
18.12,-0.459,1.345,-0.244
18.13,-0.124,0.845,0.056
18.14,-0.053,1.054,0.158
18.15,-0.236,0.789,0.006
18.16,-0.346,0.915,-0.119
18.17,-0.14,1.327,-0.079
18.18,-0.155,0.677,0.196
18.19,-0.163,1.129,0.151
18.2,-0.386,0.714,-0.202
18.21,-0.219,1.161,-0.059
18.22,-0.06,1.016,0.118
18.23,-0.273,0.768,0.198
18.24,-0.236,1.032,-0.06
18.25,-0.285,0.886,-0.26
18.26,-0.097,1.294,0.137
18.27,-0.167,0.691,0.164
18.28,-0.345,0.995,0.082
18.29,-0.313,0.991,-0.238
18.3,-0.177,1.013,-0.04
18.31,-0.146,0.927,0.151
18.32,-0.082,0.768,0.057
18.33,-0.467,1.158,-0.205
18.34,-0.062,0.889,-0.106
18.35,-0.082,1.217,0.088
18.36,-0.193,0.699,0.218
18.37,-0.333,0.974,-0.079
18.38,-0.297,1.014,-0.241
18.39,0.074,1.075,0.086
18.4,-0.128,0.997,0.055
18.41,-0.181,0.643,0.061
18.42,-0.475,1.405,-0.198
18.43,-0.159,0.768,-0.012
18.44,-0.019,1.112,0.138
18.45,-0.143,0.727,0.02
18.46,-0.426,1.05,-0.111
18.47,-0.2,1.185,-0.051
18.48,-0.191,0.699,0.176
18.49,-0.14,1.13,0.176
18.5,-0.339,0.677,-0.207
18.51,-0.188,1.252,-0.126
18.52,0.03,0.95,0.08
18.53,-0.327,0.861,0.166
18.54,-0.102,0.859,-0.052
18.55,-0.405,1.078,-0.187
18.56,-0.149,1.214,0.085
18.57,-0.058,0.725,0.061
18.58,-0.238,1.016,0.015
18.59,-0.308,0.914,-0.161
18.6,-0.163,1.258,-0.058
18.61,-0.157,0.709,0.172
18.62,-0.123,0.896,0.136
18.63,-0.476,1.002,-0.219
18.64,-0.274,0.88,-0.02
18.65,0.041,1.305,0.044
18.66,-0.121,0.59,0.061
18.67,-0.233,1.112,-0.02
18.68,-0.358,0.951,-0.207
18.69,-0.104,1.113,0.141
18.7,-0.115,0.946,0.108
18.71,-0.29,0.731,-0.016
18.72,-0.309,1.305,-0.225
18.73,-0.122,0.873,-0.043
18.74,-0.149,1.086,0.212
18.75,-0.116,0.661,0.033
18.76,-0.51,1.234,-0.18
18.77,-0.12,0.9,-0.045
18.78,-0.153,1.068,0.107
18.79,-0.069,0.821,0.143
18.8,-0.379,0.871,-0.208
18.81,-0.281,1.182,-0.05
18.82,-0.003,0.988,0.045
18.83,-0.2,0.999,0.133
18.84,-0.182,0.635,0.044
18.85,-0.404,1.388,-0.246
18.86,-0.084,0.931,0.002
18.87,-0.07,0.977,0.125
18.88,-0.197,0.832,0.029
18.89,-0.354,0.97,-0.2
18.9,-0.097,1.272,-0.041
18.91,-0.156,0.696,0.173
18.92,-0.11,1.078,0.111
18.93,-0.373,0.723,-0.166
18.94,-0.274,1.218,-0.065
18.95,-0.025,1.001,0.051
18.96,-0.277,0.731,0.141
18.97,-0.22,1.044,-0.07
18.98,-0.336,0.941,-0.203
18.99,-0.088,1.234,0.087
19.0,-0.058,0.711,0.126
19.01,-0.303,1.0,0.0
19.02,-0.376,1.002,-0.14
19.03,-0.176,1.09,-0.041
19.04,-0.21,0.895,0.175
19.05,-0.064,0.755,0.109
19.06,-0.458,1.153,-0.242
19.07,-0.125,0.86,-0.043
19.08,-0.137,1.215,0.148
19.09,-0.202,0.667,0.184
19.1,-0.368,1.0,-0.111
19.11,-0.202,1.071,-0.247
19.12,0.012,1.049,0.046
19.13,-0.109,0.977,0.073
19.14,-0.178,0.649,0.006
19.15,-0.424,1.35,-0.237
19.16,-0.052,0.82,0.014
19.17,-0.167,1.16,0.191
19.18,-0.096,0.705,0.039
19.19,-0.468,1.022,-0.136
19.2,-0.141,1.195,-0.057
19.21,-0.074,0.749,0.101
19.22,-0.183,1.112,0.155
19.23,-0.362,0.672,-0.146
19.24,-0.273,1.222,-0.16
19.25,0.07,0.989,0.08
19.26,-0.16,0.851,0.116
19.27,-0.231,0.879,0.049
19.28,-0.426,1.059,-0.215
19.29,-0.155,1.145,0.012
19.3,-0.04,0.775,0.137
19.31,-0.2,1.027,-0.016
19.32,-0.399,0.815,-0.162
19.33,-0.195,1.21,-0.045
19.34,-0.146,0.778,0.157
19.35,-0.139,0.911,0.168
19.36,-0.412,1.044,-0.176
19.37,-0.249,0.875,-0.085
19.38,-0.087,1.287,0.149
19.39,-0.19,0.618,0.096
19.4,-0.286,1.067,-0.061
19.41,-0.321,0.941,-0.225
19.42,-0.133,1.142,0.093
19.43,-0.167,0.901,0.14
19.44,-0.222,0.732,0.055
19.45,-0.442,1.32,-0.187
19.46,-0.075,0.811,-0.038
19.47,-0.212,1.121,0.192
19.48,-0.082,0.724,0.097
19.49,-0.442,1.105,-0.232
19.5,-0.156,1.033,-0.069
19.51,-0.079,0.979,0.17
19.52,-0.248,0.914,0.141
19.53,-0.241,0.738,-0.083
19.54,-0.336,1.315,-0.181
19.55,-0.005,0.903,0.125
19.56,-0.158,1.022,0.099
19.57,-0.228,0.681,-0.018
19.58,-0.321,1.315,-0.263
19.59,-0.097,0.918,-0.012
19.6,-0.408,1.05,0.043
19.61,-0.331,0.923,-0.176
19.62,-0.163,1.313,0.095
19.63,-0.121,0.683,0.126
19.64,-0.169,0.993,-0.026
19.65,-0.368,0.958,-0.185
19.66,-0.092,1.038,-0.059
19.67,-0.162,0.934,0.154
19.68,-0.126,0.746,0.128
19.69,-0.442,1.177,-0.176
19.7,-0.239,0.853,-0.059
19.71,-0.078,1.209,0.11
19.72,-0.087,0.704,0.11
19.73,-0.383,0.98,-0.061
19.74,-0.229,0.912,-0.2
19.75,-0.055,1.142,0.095
19.76,-0.142,0.859,0.119
19.77,-0.229,0.722,-0.016
19.78,-0.354,1.309,-0.155
19.79,-0.119,0.871,0.013
19.8,-0.249,1.129,0.213
19.81,-0.074,0.646,0.065
19.82,-0.515,1.176,-0.248
19.83,-0.077,1.003,-0.074
19.84,-0.032,0.976,0.153
19.85,-0.252,0.965,0.162
19.86,-0.288,0.731,-0.137
19.87,-0.337,1.285,-0.173
19.88,0.074,0.881,0.13
19.89,-0.221,1.042,0.087
19.9,-0.299,0.674,-0.011
19.91,-0.304,1.173,-0.215
19.92,-0.074,1.049,-0.005
19.93,-0.094,0.781,0.191
19.94,-0.161,1.025,-0.057
19.95,-0.506,0.799,-0.099
19.96,-0.128,1.255,0.008
19.97,-0.169,0.719,0.146
19.98,-0.11,1.002,0.083
19.99,-0.295,0.917,-0.234
20.0,-0.224,1.032,-0.067
20.01,-0.049,1.114,0.164
20.02,-0.202,0.672,0.157
20.03,-0.346,1.114,-0.088
20.04,-0.26,0.844,-0.204
20.05,-0.109,1.257,0.149
20.06,-0.072,0.728,0.124
20.07,-0.345,0.875,0.039
20.08,-0.362,1.196,-0.236
20.09,-0.035,0.857,-0.073
20.1,-0.189,1.102,0.173
20.11,-0.077,0.633,0.077
20.12,-0.532,1.209,-0.185
20.13,-0.073,0.949,-0.067
20.14,-0.071,1.038,0.058
20.15,-0.048,0.833,0.12
20.16,-0.371,0.851,-0.088
20.17,-0.332,1.196,-0.132
20.18,0.019,0.922,0.113
20.19,-0.18,1.028,0.138
20.2,-0.247,0.649,0.059
20.21,-0.401,1.368,-0.244
20.22,-0.108,0.866,-0.023
20.23,-0.115,0.974,0.165
20.24,-0.108,0.914,-0.028
20.25,-0.456,0.867,-0.15
20.26,-0.029,1.161,-0.068
20.27,-0.264,0.759,0.188
20.28,-0.135,1.084,0.146
20.29,-0.328,0.66,-0.265
20.3,-0.239,1.287,-0.042
20.31,0.018,0.886,0.104
20.32,-0.321,0.904,0.176
20.33,-0.258,0.899,0.001
20.34,-0.345,1.026,-0.191
20.35,-0.098,1.222,0.12
20.36,-0.063,0.692,0.093
20.37,-0.328,1.013,-0.043
20.38,-0.259,0.935,-0.248
20.39,-0.033,1.216,-0.104
20.4,-0.18,0.814,0.183
20.41,-0.129,0.826,0.073
20.42,-0.466,1.125,-0.196
20.43,-0.054,0.9,-0.089
20.44,-0.07,1.143,0.112
20.45,-0.132,0.639,0.203
20.46,-0.44,1.119,-0.136
20.47,-0.256,0.918,-0.152
20.48,-0.023,1.178,0.11
20.49,-0.174,0.804,0.115
20.5,-0.207,0.761,0.026
20.51,-0.451,1.337,-0.199
20.52,-0.089,0.807,0.049
20.53,-0.163,1.196,0.168
20.54,-0.11,0.568,-0.012
20.55,-0.431,1.188,-0.139
20.56,-0.15,1.047,-0.041
20.57,-0.169,0.878,0.161
20.58,-0.095,1.028,0.142
20.59,-0.415,0.719,-0.183
20.6,-0.271,1.253,-0.054
20.61,-0.051,0.919,0.152
20.62,-0.23,0.949,0.147
20.63,-0.164,0.763,-0.026
20.64,-0.406,1.182,-0.167
20.65,-0.121,1.092,0.097
20.66,-0.112,0.772,0.118
20.67,-0.283,0.996,0.003
20.68,-0.23,0.95,-0.234
20.69,-0.173,1.207,-0.051
20.7,-0.121,0.732,0.222
20.71,-0.207,0.945,0.081
20.72,-0.421,0.881,-0.194
20.73,-0.14,1.066,-0.057
20.74,-0.076,1.129,0.1
20.75,-0.18,0.632,0.206
20.76,-0.279,1.151,-0.102
20.77,-0.309,0.847,-0.212
20.78,0.016,1.255,0.114
20.79,-0.142,0.773,0.11
20.8,-0.374,0.808,0.032
20.81,-0.264,1.186,-0.237
20.82,-0.104,0.915,-0.048
20.83,-0.139,1.118,0.169
20.84,-0.064,0.66,0.012
20.85,-0.525,1.184,-0.179
20.86,-0.052,0.971,-0.064
20.87,-0.076,1.044,0.075
20.88,-0.129,0.845,0.148
20.89,-0.283,0.812,-0.143
20.9,-0.401,1.282,-0.125
20.91,0.006,0.918,0.133
20.92,-0.135,1.031,0.101
20.93,-0.268,0.685,-0.003
20.94,-0.348,1.301,-0.214
20.95,-0.146,0.976,0.017
20.96,-0.126,0.895,0.177
20.97,-0.1,0.951,0.029
20.98,-0.506,0.88,-0.2
20.99,-0.152,1.231,-0.017
21.0,-0.108,0.72,0.17
21.01,-0.236,1.069,0.174
21.02,-0.313,0.798,-0.147
21.03,-0.271,1.145,-0.128
21.04,-0.007,1.092,0.108
21.05,-0.161,0.662,0.091
21.06,-0.178,1.071,-0.037
21.07,-0.352,0.985,-0.222
21.08,-0.039,1.261,0.168
21.09,-0.161,0.658,0.11
21.1,-0.304,1.014,0.035
21.11,-0.267,0.964,-0.227
21.12,-0.15,1.158,-0.051
21.13,-0.098,0.758,0.201
21.14,-0.119,0.875,0.068
21.15,-0.454,1.073,-0.21
21.16,-0.09,0.911,-0.066
21.17,-0.085,1.175,0.153
21.18,-0.196,0.636,0.192
21.19,-0.352,1.095,-0.1
21.2,-0.466,0.963,-0.145
21.21,0.035,1.125,0.121
21.22,-0.149,0.915,0.068
21.23,-0.233,0.754,-0.029
21.24,-0.309,1.328,-0.179
21.25,-0.199,0.888,0.078
21.26,-0.118,1.094,0.156
21.27,-0.168,0.633,0.039
21.28,-0.403,1.168,-0.181
21.29,-0.058,1.034,-0.104
21.3,-0.177,0.859,0.186
21.31,-0.152,1.013,0.104
21.32,-0.308,0.684,-0.222
21.33,-0.287,1.318,-0.074
21.34,0.036,0.85,0.119
21.35,-0.211,1.007,0.125
21.36,-0.227,0.751,-0.016
21.37,-0.438,1.124,-0.173
21.38,-0.077,1.187,0.094
21.39,-0.121,0.776,0.125
21.4,-0.233,0.986,0.017
21.41,-0.349,0.914,-0.189
21.42,-0.199,1.249,-0.022
21.43,-0.075,0.702,0.176
21.44,-0.185,0.986,0.103
21.45,-0.394,0.946,-0.219
21.46,-0.234,0.992,-0.001
21.47,-0.099,1.17,0.139
21.48,-0.227,0.627,0.16
21.49,-0.307,1.119,-0.137
21.5,-0.259,0.912,-0.234
21.51,-0.008,1.24,0.083
21.52,-0.105,0.717,0.091
21.53,-0.271,0.864,0.011
21.54,-0.424,1.245,-0.25
21.55,-0.134,0.82,0.026
21.56,-0.109,1.194,0.133
21.57,-0.093,0.597,-0.008
21.58,-0.504,1.192,-0.109
21.59,-0.157,0.966,-0.011
21.6,-0.175,1.017,0.141
21.61,-0.123,0.886,0.178
21.62,-0.393,0.797,-0.127
21.63,-0.326,1.258,-0.141
21.64,0.043,0.911,0.119
21.65,-0.222,1.016,0.093
21.66,-0.171,0.667,-0.013
21.67,-0.45,1.275,-0.198
21.68,-0.044,0.973,0.059
21.69,-0.093,0.948,0.146
21.7,-0.25,0.903,-0.003
21.71,-0.396,0.878,-0.102
21.72,-0.218,1.355,-0.03
21.73,-0.109,0.635,0.194
21.74,-0.204,1.09,0.1
21.75,-0.38,0.777,-0.197
21.76,-0.237,1.092,-0.061
21.77,0.012,1.086,0.104
21.78,-0.176,0.674,0.107
21.79,-0.237,1.133,-0.083
21.8,-0.385,0.898,-0.204
21.81,-0.068,1.246,0.135
21.82,-0.094,0.721,0.139
21.83,-0.328,0.927,-0.015
21.84,-0.322,1.068,-0.21
21.85,-0.157,1.005,-0.033
21.86,-0.037,1.035,0.118
21.87,-0.084,0.652,-0.005
21.88,-0.391,1.144,-0.2
21.89,-0.076,0.888,-0.088
21.9,-0.186,1.135,0.169
21.91,-0.107,0.703,0.151
21.92,-0.434,1.058,-0.189
21.93,-0.234,0.981,-0.075
21.94,-0.071,1.083,0.159
21.95,-0.204,0.868,0.136
21.96,-0.25,0.72,-0.033
21.97,-0.347,1.319,-0.177
21.98,-0.071,0.874,0.146
21.99,-0.162,1.092,0.141
22.0,-0.209,0.655,-0.038
22.01,-0.375,1.166,-0.193
22.02,0.034,1.036,-0.117
22.03,-0.064,0.871,0.189
22.04,-0.146,1.028,0.086
22.05,-0.437,0.762,-0.172
22.06,-0.154,1.32,-0.078
22.07,-0.058,0.744,0.13
22.08,-0.175,0.988,0.151
22.09,-0.284,0.817,-0.149
22.1,-0.304,1.047,-0.119
22.11,0.042,1.211,0.083
22.12,-0.099,0.651,0.116
22.13,-0.281,1.063,0.006
22.14,-0.401,0.94,-0.22
22.15,-0.118,1.187,0.004
22.16,-0.162,0.79,0.188
22.17,-0.23,0.884,0.074
22.18,-0.435,1.044,-0.204
22.19,-0.111,0.968,-0.072
22.2,-0.115,1.071,0.14
22.21,-0.147,0.729,0.187
22.22,-0.456,1.117,-0.124
22.23,-0.326,0.86,-0.113
22.24,-0.065,1.174,0.127
22.25,-0.209,0.793,0.1
22.26,-0.231,0.816,-0.045
22.27,-0.306,1.242,-0.193
22.28,-0.076,0.918,0.161
22.29,-0.212,1.063,0.178
22.3,-0.173,0.627,-0.007
22.31,-0.446,1.358,-0.186
22.32,-0.069,0.914,-0.108
22.33,-0.108,0.925,0.228
22.34,-0.18,0.92,0.079
22.35,-0.473,0.834,-0.169
22.36,-0.137,1.286,-0.136
22.37,-0.009,0.78,0.117
22.38,-0.199,1.046,0.163
22.39,-0.3,0.698,-0.108
22.4,-0.237,1.153,-0.193
22.41,0.025,1.11,0.041
22.42,-0.103,0.752,0.11
22.43,-0.282,0.988,0.038
22.44,-0.39,0.969,-0.162
22.45,-0.173,1.245,0.026
22.46,-0.085,0.703,0.142
22.47,-0.175,1.004,0.038
22.48,-0.431,0.887,-0.186
22.49,-0.198,1.104,-0.037
22.5,-0.11,0.958,0.131
22.51,-0.091,0.786,0.098
22.52,-0.409,1.072,-0.175
22.53,-0.202,0.884,-0.056
22.54,-0.102,1.288,0.165
22.55,-0.217,0.621,0.149
22.56,-0.222,0.977,-0.085
22.57,-0.35,1.062,-0.229
22.58,-0.091,1.001,0.163
22.59,-0.246,1.05,0.114
22.6,-0.174,0.608,0.011
22.61,-0.361,1.355,-0.228
22.62,-0.129,0.832,-0.024
22.63,-0.133,1.076,0.151
22.64,-0.103,0.798,0.081
22.65,-0.485,0.871,-0.186
22.66,-0.106,1.23,-0.105
22.67,-0.068,0.902,0.135
22.68,-0.232,0.997,0.16
22.69,-0.312,0.689,-0.1
22.7,-0.306,1.281,-0.151
22.71,0.063,0.97,0.132
22.72,-0.193,1.006,0.09
22.73,-0.181,0.685,0.04
22.74,-0.43,1.241,-0.216
22.75,-0.036,1.013,-0.005
22.76,-0.111,0.87,0.188
22.77,-0.248,0.998,-0.01
22.78,-0.373,0.766,-0.171
22.79,-0.166,1.377,-0.066
22.8,-0.04,0.661,0.111
22.81,-0.169,1.009,0.161
22.82,-0.333,0.861,-0.181
22.83,-0.244,1.014,-0.15
22.84,0.028,1.209,0.147
22.85,-0.198,0.618,0.131
22.86,-0.319,1.106,0.014
22.87,-0.302,0.94,-0.211
22.88,-0.17,1.194,0.076
22.89,-0.054,0.775,0.135
22.9,-0.232,0.851,-0.04
22.91,-0.339,1.113,-0.196
22.92,-0.072,0.95,-0.033
22.93,-0.215,1.072,0.21
22.94,-0.064,0.685,0.109
22.95,-0.485,1.188,-0.234
22.96,-0.127,0.894,-0.088
22.97,-0.051,1.084,0.146
22.98,-0.177,0.828,0.12
22.99,-0.25,0.844,-0.122
23.0,-0.341,1.237,-0.184
23.01,0.055,0.885,0.091
23.02,-0.142,1.049,0.117
23.03,-0.231,0.688,-0.002
23.04,-0.451,1.304,-0.246
23.05,-0.069,0.916,-0.021
23.06,-0.13,0.959,0.177
23.07,-0.166,0.888,-0.011
23.08,-0.389,0.831,-0.19
23.09,-0.15,1.323,-0.069
23.1,0.008,0.682,0.142
23.11,-0.253,1.109,0.151
23.12,-0.236,0.742,-0.195
23.13,-0.292,1.188,-0.17
23.14,-0.015,1.029,0.1
23.15,-0.138,0.726,0.094
23.16,-0.33,1.078,-0.031
23.17,-0.327,0.947,-0.219
23.18,-0.178,1.239,0.09
23.19,-0.05,0.694,0.147
23.2,-0.25,0.98,-0.028
23.21,-0.313,0.998,-0.205
23.22,-0.05,1.027,-0.012
23.23,-0.175,1.014,0.199
23.24,-0.153,0.721,0.088
23.25,-0.518,1.188,-0.142
23.26,-0.194,0.944,-0.094
23.27,-0.1,1.102,0.082
23.28,-0.109,0.706,0.161
23.29,-0.42,0.965,-0.104
23.3,-0.22,1.107,-0.12
23.31,-0.017,1.014,0.121
23.32,-0.157,0.968,0.131
23.33,-0.187,0.65,-0.059
23.34,-0.406,1.302,-0.222
23.35,-0.075,0.902,0.146
23.36,-0.21,1.032,0.196
23.37,-0.211,0.75,0.05
23.38,-0.408,1.065,-0.21
23.39,-0.098,1.137,-0.069
23.4,-0.05,0.793,0.215
23.41,-0.237,1.074,0.096
23.42,-0.338,0.648,-0.203
23.43,-0.131,1.332,-0.089
23.44,-0.078,0.861,0.129
23.45,-0.133,0.854,0.169
23.46,-0.33,0.916,-0.106
23.47,-0.335,0.964,-0.15
23.48,-0.034,1.327,0.079
23.49,-0.16,0.578,0.129
23.5,-0.201,1.078,-0.007
23.51,-0.417,0.925,-0.211
23.52,-0.185,1.213,0.108
23.53,-0.131,0.743,0.162
23.54,-0.271,0.932,-0.015
23.55,-0.294,1.013,-0.206
23.56,-0.117,1.008,-0.059
23.57,-0.214,1.028,0.213
23.58,-0.209,0.678,0.106
23.59,-0.447,1.145,-0.186
23.6,-0.107,0.947,-0.108
23.61,-0.076,1.133,0.181
23.62,-0.219,0.731,0.189
23.63,-0.272,0.912,-0.095
23.64,-0.324,1.105,-0.207
23.65,0.031,0.974,0.129
23.66,-0.275,1.077,0.157
23.67,-0.196,0.651,0.048
23.68,-0.358,1.366,-0.306
23.69,-0.058,0.83,-0.067
23.7,-0.09,1.062,0.203
23.71,-0.274,0.842,0.097
23.72,-0.464,0.857,-0.118
23.73,-0.138,1.299,-0.12
23.74,-0.086,0.673,0.096
23.75,-0.107,1.113,0.119
23.76,-0.287,0.707,-0.157
23.77,-0.354,1.244,-0.078
23.78,0.056,1.059,0.126
23.79,-0.27,0.736,0.153
23.8,-0.18,0.969,-0.031
23.81,-0.436,1.017,-0.237
23.82,-0.241,1.166,0.076
23.83,-0.005,0.729,0.142
23.84,-0.336,1.005,0.045
23.85,-0.306,0.891,-0.192
23.86,-0.126,1.203,-0.102
23.87,-0.087,0.779,0.129
23.88,-0.101,0.816,0.122
23.89,-0.501,1.107,-0.185
23.9,-0.229,0.854,-0.058
23.91,-0.062,1.304,0.101
23.92,-0.116,0.609,0.112
23.93,-0.289,1.039,-0.051
23.94,-0.305,1.038,-0.216
23.95,-0.094,1.03,0.122
23.96,-0.064,0.99,0.073
23.97,-0.126,0.616,-0.059
23.98,-0.43,1.377,-0.154
23.99,-0.143,0.867,0.032
24.0,-0.247,1.07,0.241
24.01,-0.165,0.754,0.043
24.02,-0.421,1.004,-0.242
24.03,-0.083,1.097,-0.075
24.04,-0.066,0.86,0.187
24.05,-0.219,1.079,0.157
24.06,-0.305,0.645,-0.168
24.07,-0.318,1.266,-0.103
24.08,0.017,1.03,0.14
24.09,-0.26,0.88,0.143
24.1,-0.174,0.852,-0.014
24.11,-0.4,1.057,-0.221
24.12,-0.115,1.163,0.098
24.13,-0.083,0.697,0.222
24.14,-0.35,1.047,0.023
24.15,-0.278,0.895,-0.22
24.16,-0.156,1.192,-0.084
24.17,-0.101,0.773,0.175
24.18,-0.191,0.904,0.112
24.19,-0.455,0.996,-0.201
24.2,-0.114,0.994,-0.079
24.21,-0.209,1.168,0.15
24.22,-0.151,0.617,0.177
24.23,-0.299,1.1,-0.129
24.24,-0.283,0.92,-0.201
24.25,-0.044,1.227,0.071
24.26,-0.121,0.813,0.094
24.27,-0.27,0.792,0.039
24.28,-0.417,1.317,-0.266
24.29,-0.121,0.804,0.028
24.3,-0.195,1.146,0.21
24.31,-0.25,0.618,0.075
24.32,-0.474,1.245,-0.168
24.33,-0.098,0.909,-0.03
24.34,-0.153,1.055,0.156
24.35,-0.174,0.797,0.108
24.36,-0.368,0.922,-0.182
24.37,-0.242,1.226,-0.092
24.38,0.023,0.875,0.184
24.39,-0.248,1.019,0.149
24.4,-0.243,0.691,-0.055
24.41,-0.327,1.321,-0.204
24.42,-0.071,0.959,0.056
24.43,-0.099,0.926,0.131
24.44,-0.25,0.848,-0.051
24.45,-0.479,1.013,-0.122
24.46,-0.134,1.242,0.039
24.47,-0.089,0.693,0.202
24.48,-0.209,1.052,0.07
24.49,-0.354,0.774,-0.229
24.5,-0.198,1.248,-0.035
24.51,-0.017,0.847,0.139
24.52,-0.18,0.823,0.123
24.53,-0.337,1.025,-0.159
24.54,-0.239,0.959,-0.092
24.55,-0.099,1.302,0.143
24.56,-0.145,0.599,0.155
24.57,-0.267,1.021,-0.055
24.58,-0.27,1.018,-0.223
24.59,-0.088,1.094,0.085
24.6,-0.134,0.911,0.16
24.61,-0.21,0.703,-0.042
24.62,-0.506,1.232,-0.196
24.63,-0.08,0.915,-0.013
24.64,-0.197,1.075,0.171
24.65,-0.094,0.746,0.053
24.66,-0.441,1.054,-0.255
24.67,-0.079,1.043,-0.064
24.68,-0.004,0.98,0.152
24.69,-0.245,0.945,0.171
24.7,-0.323,0.758,-0.153
24.71,-0.324,1.34,-0.16
24.72,0.079,0.841,0.104
24.73,-0.147,1.036,0.087
24.74,-0.272,0.708,-0.048
24.75,-0.314,1.126,-0.18
24.76,-0.082,1.168,0.054
24.77,-0.11,0.692,0.101
24.78,-0.245,1.021,0.019
24.79,-0.439,0.896,-0.153
24.8,-0.207,1.265,0.025
24.81,-0.132,0.707,0.231
24.82,-0.194,0.956,0.054
24.83,-0.389,0.954,-0.217
24.84,-0.083,0.976,-0.084
24.85,-0.076,1.113,0.169
24.86,-0.162,0.682,0.186
24.87,-0.41,1.131,-0.123
24.88,-0.268,0.956,-0.115
24.89,-0.094,1.176,0.175
24.9,-0.176,0.771,0.135
24.91,-0.256,0.835,-0.044
24.92,-0.32,1.209,-0.185
24.93,-0.054,0.941,0.079
24.94,-0.164,1.051,0.101
24.95,-0.114,0.621,-0.022
24.96,-0.464,1.343,-0.156
24.97,-0.126,0.907,-0.018
24.98,-0.184,0.985,0.182
24.99,-0.17,0.88,0.079
25.0,-0.378,0.842,-0.219
25.01,-0.156,1.301,-0.085
25.02,-0.035,0.754,0.13
25.03,-0.126,1.067,0.154
25.04,-0.359,0.681,-0.097
25.05,-0.355,1.264,-0.073
25.06,0.027,1.042,0.073
25.07,-0.225,0.759,0.12
25.08,-0.223,0.992,-0.077
25.09,-0.407,0.943,-0.198
25.1,-0.156,1.259,0.102
25.11,-0.111,0.698,0.167
25.12,-0.251,1.048,-0.013
25.13,-0.379,0.928,-0.246
25.14,-0.108,1.133,-0.044
25.15,-0.124,0.802,0.178
25.16,-0.254,0.872,0.054
25.17,-0.399,1.052,-0.198
25.18,-0.146,0.989,-0.077
25.19,-0.128,1.071,0.156
25.2,-0.072,0.698,0.124
25.21,-0.411,1.066,-0.16
25.22,-0.165,0.979,-0.126
25.23,-0.036,1.124,0.121
25.24,-0.211,0.82,0.16
25.25,-0.283,0.79,-0.067
25.26,-0.342,1.254,-0.183
25.27,-0.042,0.945,0.131
25.28,-0.2,1.043,0.141
25.29,-0.236,0.657,0.07
25.3,-0.46,1.311,-0.203
25.31,-0.104,0.857,-0.093
25.32,-0.007,0.952,0.164
25.33,-0.134,0.977,-0.019
25.34,-0.387,0.799,-0.179
25.35,-0.153,1.315,-0.125
25.36,0.03,0.703,0.102
25.37,-0.211,1.078,0.168
25.38,-0.267,0.728,-0.127
25.39,-0.275,1.183,-0.156
25.4,0.023,1.127,0.118
25.41,-0.164,0.674,0.128
25.42,-0.319,1.012,-0.007
25.43,-0.261,0.957,-0.276
25.44,-0.095,1.223,0.003
25.45,-0.117,0.685,0.194
25.46,-0.253,0.961,0.07
25.47,-0.452,0.983,-0.119
25.48,-0.19,1.065,-0.013
25.49,-0.197,0.969,0.153
25.5,-0.127,0.695,0.072
25.51,-0.451,1.173,-0.207
25.52,-0.104,0.922,-0.131
25.53,-0.068,1.145,0.13
25.54,-0.164,0.732,0.175
25.55,-0.342,0.958,-0.093
25.56,-0.318,1.121,-0.169
25.57,-0.05,1.033,0.142
25.58,-0.203,0.98,0.136
25.59,-0.216,0.657,0.002
25.6,-0.482,1.383,-0.239
25.61,-0.116,0.851,0.03
25.62,-0.141,1.054,0.168
25.63,-0.143,0.748,0.046
25.64,-0.422,1.012,-0.13
25.65,-0.139,1.223,-0.079
25.66,-0.183,0.723,0.224
25.67,-0.251,1.116,0.104
25.68,-0.287,0.645,-0.195
25.69,-0.319,1.282,-0.066
25.7,-0.044,0.936,0.166
25.71,-0.305,0.846,0.181
25.72,-0.227,0.916,-0.057
25.73,-0.303,0.969,-0.239
25.74,0.028,1.294,0.062
25.75,-0.115,0.654,0.122
25.76,-0.314,1.02,0.011
25.77,-0.254,0.921,-0.243
25.78,-0.136,1.145,-0.069
25.79,-0.117,0.862,0.194
25.8,-0.21,0.792,0.086
25.81,-0.433,1.114,-0.167
25.82,-0.119,0.944,-0.119
25.83,-0.05,1.131,0.093
25.84,-0.112,0.682,0.176
25.85,-0.407,1.064,-0.12
25.86,-0.254,0.956,-0.173
25.87,0.004,1.143,0.15
25.88,-0.191,0.87,0.1
25.89,-0.225,0.75,-0.008
25.9,-0.468,1.345,-0.194
25.91,-0.066,0.809,0.031
25.92,-0.148,1.142,0.162
25.93,-0.188,0.647,0.046
25.94,-0.48,1.305,-0.205
25.95,-0.156,0.889,-0.075
25.96,-0.074,0.974,0.154
25.97,-0.185,0.897,0.1
25.98,-0.414,0.815,-0.158
25.99,-0.216,1.33,-0.026
26.0,-0.083,0.77,0.161
26.01,-0.156,1.031,0.126
26.02,-0.235,0.71,-0.114
26.03,-0.352,1.225,-0.174
26.04,0.033,1.057,0.12
26.05,-0.22,0.839,0.133
26.06,-0.236,0.923,0.002
26.07,-0.402,0.971,-0.196
26.08,-0.198,1.225,0.057
26.09,-0.079,0.681,0.165
26.1,-0.211,1.019,-0.025
26.11,-0.343,0.87,-0.216
26.12,-0.131,1.146,-0.009
26.13,-0.145,0.919,0.188
26.14,-0.158,0.744,0.149
26.15,-0.441,1.129,-0.197
26.16,-0.266,0.82,-0.115
26.17,0.041,1.324,0.132
26.18,-0.217,0.615,0.124
26.19,-0.28,0.984,-0.005
26.2,-0.306,1.126,-0.269
26.21,-0.058,0.938,0.152
26.22,-0.152,1.042,0.154
26.23,-0.327,0.611,0.019
26.24,-0.362,1.318,-0.214
26.25,-0.09,0.868,-0.069
26.26,-0.074,1.071,0.2
26.27,-0.132,0.779,0.041
26.28,-0.48,0.991,-0.198
26.29,-0.073,1.137,-0.105
26.3,-0.092,0.799,0.146
26.31,-0.243,1.031,0.178
26.32,-0.324,0.718,-0.184
26.33,-0.201,1.273,-0.183
26.34,0.071,0.931,0.098
26.35,-0.137,0.895,0.124
26.36,-0.293,0.866,-0.006
26.37,-0.339,1.046,-0.217
26.38,-0.083,1.218,0.065
26.39,-0.125,0.689,0.144
26.4,-0.312,1.028,0.016
26.41,-0.393,0.866,-0.193
26.42,-0.127,1.227,-0.02
26.43,-0.085,0.741,0.142
26.44,-0.077,0.903,0.057
26.45,-0.409,1.076,-0.208
26.46,-0.161,0.923,-0.027
26.47,-0.154,1.17,0.173
26.48,-0.154,0.644,0.172
26.49,-0.392,1.126,-0.137
26.5,-0.342,0.929,-0.165
26.51,0.073,1.143,0.086
26.52,-0.146,0.823,0.073
26.53,-0.164,0.778,-0.043
26.54,-0.322,1.306,-0.277
26.55,-0.106,0.833,0.121
26.56,-0.099,1.093,0.137
26.57,-0.253,0.657,0.023
26.58,-0.444,1.216,-0.203
26.59,-0.062,0.964,-0.113
26.6,-0.166,0.948,0.177
26.61,-0.095,0.971,0.083
26.62,-0.455,0.745,-0.168
26.63,-0.073,1.383,-0.109
26.64,-0.053,0.781,0.097
26.65,-0.226,0.996,0.202
26.66,-0.264,0.762,-0.114
26.67,-0.384,1.102,-0.152
26.68,0.039,1.194,0.063
26.69,-0.179,0.666,0.1
26.7,-0.307,1.055,0.057
26.71,-0.316,0.927,-0.25
26.72,-0.17,1.234,-0.003
26.73,0.008,0.74,0.159
26.74,-0.29,0.925,0.002
26.75,-0.3,0.9,-0.184
26.76,-0.126,1.14,-0.06
26.77,-0.154,0.87,0.245
26.78,-0.134,0.804,0.076
26.79,-0.48,1.064,-0.197
26.8,-0.043,0.967,-0.089
26.81,-0.145,1.182,0.081
26.82,-0.142,0.61,0.25
26.83,-0.356,1.067,-0.12
26.84,-0.361,0.932,-0.172
26.85,0.161,1.156,0.065
26.86,-0.202,0.904,0.061
26.87,-0.198,0.736,0.086
26.88,-0.444,1.392,-0.211
26.89,-0.244,0.787,0.039
26.9,-0.049,1.15,0.134
26.91,-0.21,0.658,0.0
26.92,-0.42,1.092,-0.158
26.93,-0.067,1.105,-0.085
26.94,-0.2,0.869,0.225
26.95,-0.146,1.024,0.106
26.96,-0.311,0.713,-0.241
26.97,-0.196,1.334,-0.12
26.98,0.076,0.83,0.08
26.99,-0.247,0.968,0.191
27.0,-0.273,0.817,-0.093
27.01,-0.284,1.016,-0.209
27.02,-0.047,1.221,0.09
27.03,-0.107,0.725,0.14
27.04,-0.349,1.029,0.067
27.05,-0.303,0.883,-0.243
27.06,-0.15,1.175,-0.105
27.07,-0.063,0.774,0.224
27.08,-0.17,0.926,0.084
27.09,-0.433,0.963,-0.194
27.1,-0.042,0.984,-0.117
27.11,-0.083,1.149,0.106
27.12,-0.186,0.691,0.221
27.13,-0.379,1.076,-0.146
27.14,-0.24,0.843,-0.23
27.15,-0.017,1.292,0.109
27.16,-0.128,0.754,0.108
27.17,-0.309,0.816,0.084
27.18,-0.299,1.286,-0.252
27.19,-0.126,0.788,0.002
27.2,-0.112,1.174,0.213
27.21,-0.059,0.646,-0.008
27.22,-0.465,1.138,-0.18
27.23,-0.015,1.068,-0.109
27.24,-0.126,0.924,0.109
27.25,-0.234,0.936,0.218
27.26,-0.304,0.742,-0.175
27.27,-0.292,1.306,-0.149
27.28,0.02,0.904,0.072
27.29,-0.173,0.973,0.069
27.3,-0.141,0.734,-0.052
27.31,-0.311,1.262,-0.25
27.32,-0.167,1.021,0.133
27.33,-0.132,0.85,0.166
27.34,-0.253,0.964,-0.028
27.35,-0.346,0.852,-0.164
27.36,-0.162,1.292,-0.058
27.37,-0.112,0.71,0.227
27.38,-0.21,1.013,0.095
27.39,-0.351,0.813,-0.213
27.4,-0.085,1.099,-0.14
27.41,-0.031,1.03,0.106
27.42,-0.147,0.707,0.179
27.43,-0.303,1.122,-0.126
27.44,-0.318,0.838,-0.195
27.45,-0.062,1.321,0.113
27.46,-0.09,0.686,0.118
27.47,-0.304,0.922,0.031
27.48,-0.299,1.14,-0.273
27.49,-0.075,0.891,-0.05
27.5,-0.119,1.097,0.243
27.51,-0.144,0.622,0.085
27.52,-0.478,1.217,-0.118
27.53,-0.157,0.998,-0.128
27.54,-0.083,0.982,0.058
27.55,-0.081,0.847,0.217
27.56,-0.471,1.015,-0.157
27.57,-0.23,0.975,-0.111
27.58,-0.08,1.119,0.144
27.59,-0.235,0.859,0.14
27.6,-0.083,0.724,-0.009
27.61,-0.568,1.357,-0.207
27.62,-0.05,0.794,0.141
27.63,-0.202,1.191,0.138
27.64,-0.21,0.695,0.005
27.65,-0.33,1.066,-0.136
27.66,-0.183,1.133,-0.097
27.67,-0.112,0.726,0.187
27.68,-0.09,1.094,0.123
27.69,-0.421,0.698,-0.19
27.7,-0.222,1.292,-0.066
27.71,-0.068,0.92,0.132
27.72,-0.217,0.895,0.139
27.73,-0.175,0.892,-0.042
27.74,-0.465,1.045,-0.223
27.75,-0.122,1.13,0.175
27.76,-0.16,0.761,0.174
27.77,-0.297,0.995,-0.003
27.78,-0.298,0.914,-0.221
27.79,-0.096,1.192,-0.128
27.8,-0.109,0.744,0.169
27.81,-0.121,0.866,0.118
27.82,-0.489,1.049,-0.156
27.83,-0.142,0.957,-0.101
27.84,-0.127,1.193,0.092
27.85,-0.241,0.649,0.225
27.86,-0.32,1.082,-0.077
27.87,-0.229,0.894,-0.225
27.88,0.017,1.198,0.081
27.89,-0.162,0.843,0.127
27.9,-0.332,0.763,0.028
27.91,-0.362,1.29,-0.224
27.92,-0.128,0.814,-0.015
27.93,-0.144,1.155,0.181
27.94,-0.371,0.955,-0.181
27.95,-0.137,1.109,-0.057
27.96,-0.153,0.923,0.132
27.97,-0.125,0.742,0.155
27.98,-0.488,1.145,-0.157
27.99,-0.243,0.849,-0.067
28.0,-0.057,1.276,0.081
28.01,-0.161,0.615,0.125
28.02,-0.259,1.016,-0.023
28.03,-0.373,1.064,-0.212
28.04,-0.08,0.951,0.11
28.05,-0.131,1.059,0.096
28.06,-0.167,0.62,-0.046
28.07,-0.391,1.323,-0.163
28.08,-0.184,0.872,-0.019
28.09,-0.182,1.053,0.223
28.1,-0.094,0.804,0.105
28.11,-0.51,0.919,-0.189
28.12,-0.103,1.209,-0.109
28.13,-0.002,0.862,0.07
28.14,-0.228,1.038,0.168
28.15,-0.229,0.683,-0.086
28.16,-0.343,1.262,-0.174
28.17,-0.043,0.984,0.159
28.18,-0.179,0.898,0.144
28.19,-0.232,0.866,0.007
28.2,-0.378,1.004,-0.151
28.21,-0.19,1.176,-0.062
28.22,-0.108,0.74,0.201
28.23,-0.151,1.061,0.043
28.24,-0.327,0.807,-0.184
28.25,-0.15,1.25,-0.105
28.26,-0.058,0.82,0.053
28.27,-0.083,0.826,0.186
28.28,-0.358,1.01,-0.132
28.29,-0.275,0.825,-0.152
28.3,0.023,1.408,0.112
28.31,-0.16,0.594,0.084
28.32,-0.211,1.102,0.023
28.33,-0.431,0.922,-0.226
28.34,-0.147,1.177,0.086
28.35,-0.066,0.869,0.158
28.36,-0.255,0.829,-0.008
28.37,-0.321,1.099,-0.196
28.38,-0.125,0.966,-0.04
28.39,-0.223,1.094,0.172
28.4,0.018,0.712,0.111
28.41,-0.445,1.12,-0.207
28.42,-0.186,0.933,-0.093
28.43,-0.048,1.125,0.129
28.44,-0.221,0.795,0.168
28.45,-0.176,0.822,-0.063
28.46,-0.388,1.236,-0.215
28.47,-0.064,0.897,0.127
28.48,-0.194,1.177,0.113
28.49,-0.233,0.599,0.026
28.5,-0.38,1.289,-0.211
28.51,-0.05,0.985,-0.146
28.52,-0.15,0.904,0.231
28.53,-0.119,0.979,0.104
28.54,-0.46,0.729,-0.209
28.55,-0.188,1.301,-0.029
28.56,-0.049,0.851,0.111
28.57,-0.315,0.999,0.199
28.58,-0.132,0.765,-0.1
28.59,-0.386,1.097,-0.279
28.6,0.046,1.072,0.102
28.61,-0.102,0.846,0.111
28.62,-0.31,0.934,0.023
28.63,-0.196,0.932,-0.226
28.64,-0.2,1.228,-0.095
28.65,-0.123,0.701,0.223
28.66,-0.12,1.013,0.082
28.67,-0.547,0.852,-0.186
28.68,-0.037,1.096,-0.115
28.69,-0.044,1.062,0.044
28.7,-0.25,0.666,0.249
28.71,-0.29,1.114,-0.091
28.72,-0.361,0.863,-0.182
28.73,-0.011,1.31,0.083
28.74,-0.103,0.582,0.044
28.75,-0.19,1.061,0.055
28.76,-0.395,1.049,-0.191
28.77,-0.267,0.989,0.048
28.78,-0.018,0.959,0.159
28.79,-0.2,0.727,0.063
28.8,-0.515,1.236,-0.141
28.81,-0.027,0.876,-0.096
28.82,-0.2,1.156,0.106
28.83,-0.111,0.725,0.185
28.84,-0.336,0.985,-0.16
28.85,-0.291,1.013,-0.141
28.86,0.073,1.07,0.089
28.87,-0.202,0.953,0.095
28.88,-0.238,0.67,0.062
28.89,-0.369,1.363,-0.237
28.9,-0.14,0.853,-0.0
28.91,-0.103,1.108,0.191
28.92,-0.151,0.74,0.02
28.93,-0.459,0.982,-0.12
28.94,-0.053,1.189,-0.083
28.95,-0.097,0.77,0.141
28.96,-0.184,1.105,0.203
28.97,-0.33,0.67,-0.135
28.98,-0.404,1.259,-0.099
28.99,0.086,0.998,0.125
29.0,-0.27,0.857,0.114
29.01,-0.256,0.873,0.043
29.02,-0.367,1.03,-0.176
29.03,-0.198,1.181,0.074
29.04,-0.016,0.737,0.16
29.05,-0.253,1.033,-0.044
29.06,-0.326,0.833,-0.177
29.07,-0.204,1.218,-0.032
29.08,-0.182,0.78,0.164
29.09,-0.088,0.889,0.083
29.1,-0.352,1.035,-0.229
29.11,-0.213,0.901,-0.04
29.12,-0.04,1.102,0.069
29.13,-0.163,0.638,0.171
29.14,-0.265,1.14,-0.068
29.15,-0.335,0.843,-0.225
29.16,-0.048,1.242,0.129
29.17,-0.083,0.762,0.135
29.18,-0.382,0.876,0.038
29.19,-0.281,1.182,-0.26
29.2,-0.165,0.87,-0.064
29.21,-0.12,1.095,0.21
29.22,-0.062,0.684,0.063
29.23,-0.502,1.179,-0.191
29.24,-0.109,0.918,-0.037
29.25,-0.107,1.104,0.11
29.26,-0.263,0.81,0.205
29.27,-0.234,0.85,-0.102
29.28,-0.279,1.201,-0.194
29.29,0.007,0.896,0.157
29.3,-0.173,1.056,0.11
29.31,-0.31,0.616,0.02
29.32,-0.354,1.328,-0.215
29.33,-0.087,0.903,-0.069
29.34,-0.142,0.972,0.23
29.35,-0.101,0.91,0.009
29.36,-0.456,0.825,-0.202
29.37,-0.123,1.315,-0.046
29.38,-0.088,0.724,0.086
29.39,-0.188,1.055,0.15
29.4,-0.265,0.737,-0.146
29.41,-0.302,1.149,-0.148
29.42,0.026,1.103,0.099
29.43,-0.155,0.741,0.115
29.44,-0.357,1.0,-0.008
29.45,-0.245,0.961,-0.219
29.46,-0.247,1.236,0.023
29.47,-0.05,0.724,0.19
29.48,-0.204,0.995,-0.001
29.49,-0.386,0.888,-0.186
29.5,-0.109,1.1,-0.08
29.51,-0.076,0.96,0.067
29.52,-0.139,0.753,0.192
29.53,-0.403,1.142,-0.145
29.54,-0.292,0.832,-0.139
29.55,0.061,1.322,0.119
29.56,-0.143,0.646,0.094
29.57,-0.281,0.946,0.011
29.58,-0.329,1.121,-0.258
29.59,-0.186,0.897,0.079
29.6,-0.047,1.106,0.157
29.61,-0.187,0.605,-0.023
29.62,-0.522,1.244,-0.12
29.63,-0.003,0.943,-0.045
29.64,-0.252,1.061,0.138
29.65,-0.056,0.816,0.158
29.66,-0.357,0.929,-0.197
29.67,-0.333,1.143,-0.102
29.68,0.092,0.931,0.111
29.69,-0.281,1.019,0.142
29.7,-0.198,0.61,0.042
29.71,-0.36,1.364,-0.22
29.72,-0.121,0.916,0.096
29.73,-0.095,0.953,0.143
29.74,-0.206,0.834,-0.014
29.75,-0.457,0.935,-0.108
29.76,-0.076,1.277,-0.014
29.77,-0.281,0.653,0.177
29.78,-0.117,1.108,0.083
29.79,-0.334,0.792,-0.247
29.8,-0.213,1.212,-0.024
29.81,-0.033,0.981,0.145
29.82,-0.326,0.735,0.174
29.83,-0.14,1.05,-0.11
29.84,-0.325,0.974,-0.212
29.85,-0.163,1.223,0.153
29.86,-0.049,0.647,0.124
29.87,-0.379,0.971,-0.011
29.88,-0.283,0.964,-0.228
29.89,-0.079,1.086,-0.044
29.9,-0.238,0.923,0.206
29.91,-0.045,0.721,0.074
29.92,-0.516,1.187,-0.232
29.93,-0.088,0.922,-0.069
29.94,-0.089,1.187,0.122
29.95,-0.179,0.666,0.155
29.96,-0.293,1.132,-0.143
29.97,-0.277,0.932,-0.154
29.98,-0.05,1.172,0.162
29.99,-0.169,0.81,0.129
30.0,-0.359,0.807,0.036
30.01,-0.343,1.25,-0.239
30.02,-0.142,0.819,0.034
30.03,-0.138,1.163,0.199
30.04,-0.118,0.632,0.018
30.05,-0.508,1.166,-0.169
30.06,-0.053,1.015,-0.098
30.07,-0.115,0.898,0.129
30.08,-0.219,0.99,0.203
30.09,-0.33,0.771,-0.208
30.1,-0.336,1.231,-0.111
30.11,-0.024,0.899,0.145
30.12,-0.153,0.983,0.109
30.13,-0.259,0.76,-0.008
30.14,-0.35,1.17,-0.219
30.15,-0.048,1.049,0.001
30.16,-0.085,0.853,0.147
30.17,-0.195,0.966,-0.04
30.18,-0.426,0.873,-0.161
30.19,-0.172,1.289,-0.035
30.2,-0.151,0.701,0.143
30.21,-0.165,0.968,0.136
30.22,-0.326,0.915,-0.217
30.23,-0.21,0.995,-0.116
30.24,-0.06,1.158,0.139
30.25,-0.151,0.635,0.106
30.26,-0.314,1.078,-0.038
30.27,-0.302,0.906,-0.211
30.28,-0.141,1.219,0.081
30.29,-0.06,0.801,0.13
30.3,-0.256,0.86,0.009
30.31,-0.405,1.071,-0.169
30.32,-0.07,0.979,-0.019
30.33,-0.182,1.063,0.114
30.34,-0.02,0.693,0.139
30.35,-0.495,1.241,-0.17
30.36,-0.283,0.864,-0.013
30.37,-0.065,1.167,0.112
30.38,-0.204,0.81,0.091
30.39,-0.247,0.86,-0.093
30.4,-0.282,1.205,-0.188
30.41,-0.084,0.871,0.138
30.42,-0.082,1.081,0.135
30.43,-0.264,0.653,-0.032
30.44,-0.329,1.225,-0.241
30.45,-0.01,0.955,-0.015
30.46,-0.245,0.946,0.252
30.47,-0.086,0.912,0.06
30.48,-0.429,0.881,-0.207
30.49,-0.276,1.34,-0.012
30.5,-0.015,0.737,0.111
30.51,-0.249,1.041,0.14
30.52,-0.175,0.778,-0.161
30.53,-0.25,1.184,-0.169
30.54,-0.063,1.003,0.137
30.55,-0.106,0.744,0.17
30.56,-0.315,0.997,-0.016
30.57,-0.35,0.925,-0.186
30.58,-0.081,1.273,0.047
30.59,-0.175,0.707,0.148
30.6,-0.187,0.969,0.029
30.61,-0.392,0.929,-0.182
30.62,-0.171,1.133,0.01
30.63,-0.088,0.988,0.131
30.64,-0.167,0.676,0.16
30.65,-0.428,1.126,-0.157
30.66,-0.212,0.844,-0.201
30.67,-0.004,1.253,0.141
30.68,-0.135,0.688,0.105
30.69,-0.318,0.902,-0.038
30.7,-0.282,1.114,-0.257
30.71,-0.023,0.933,0.029
30.72,-0.123,1.121,0.175
30.73,-0.187,0.641,0.011
30.74,-0.51,1.241,-0.136
30.75,-0.131,0.921,0.025
30.76,-0.24,1.099,0.227
30.77,-0.138,0.717,0.109
30.78,-0.503,1.097,-0.232
30.79,-0.049,1.004,-0.12
30.8,-0.035,0.972,0.056
30.81,-0.21,0.956,0.169
30.82,-0.288,0.673,-0.086
30.83,-0.289,1.374,-0.164
30.84,0.059,0.906,0.069
30.85,-0.193,0.957,0.108
30.86,-0.172,0.762,-0.027
30.87,-0.407,1.205,-0.247
30.88,-0.094,1.033,0.006
30.89,-0.058,0.807,0.145
30.9,-0.256,1.005,0.02
30.91,-0.393,0.777,-0.174
30.92,-0.132,1.326,-0.051
30.93,-0.068,0.755,0.099
30.94,-0.174,0.949,0.136
30.95,-0.326,0.913,-0.204
30.96,-0.305,0.954,-0.099
30.97,0.033,1.229,0.135
30.98,-0.132,0.636,0.098
30.99,-0.358,1.105,0.015
31.0,-0.323,0.905,-0.208
31.01,-0.127,1.19,0.044
31.02,-0.079,0.775,0.137
31.03,-0.254,0.854,0.011
31.04,-0.383,1.092,-0.222
31.05,-0.111,0.899,0.028
31.06,-0.187,1.089,0.203
31.07,-0.051,0.667,0.085
31.08,-0.483,1.198,-0.186
31.09,-0.197,0.965,-0.042
31.1,-0.113,1.062,0.138
31.11,-0.201,0.856,0.123
31.12,-0.321,0.804,-0.104
31.13,-0.258,1.252,-0.223
31.14,0.048,0.92,0.114
31.15,-0.23,1.034,0.143
31.16,-0.145,0.646,-0.023
31.17,-0.41,1.308,-0.223
31.18,-0.098,0.962,0.016
31.19,-0.084,0.918,0.173
31.2,-0.217,0.932,0.003
31.21,-0.409,0.792,-0.182
31.22,-0.107,1.351,-0.042
31.23,-0.045,0.708,0.139
31.24,-0.2,1.045,0.148
31.25,-0.29,0.773,-0.182
31.26,-0.327,1.123,-0.139
31.27,0.086,1.104,0.111
31.28,-0.257,0.708,0.119
31.29,-0.339,1.04,-0.03
31.3,-0.282,0.916,-0.202
31.31,-0.19,1.264,0.127
31.32,-0.025,0.693,0.156
31.33,-0.347,0.936,-0.023
31.34,-0.264,1.007,-0.193
31.35,-0.082,1.086,-0.045
31.36,-0.168,0.958,0.21
31.37,-0.107,0.707,0.122
31.38,-0.493,1.192,-0.285
31.39,0.0,0.857,-0.108
31.4,-0.123,1.18,0.155
31.41,-0.191,0.721,0.19
31.42,-0.325,0.923,-0.113
31.43,-0.3,1.168,-0.102
31.44,-0.019,1.013,0.145
31.45,-0.187,0.979,0.101
31.46,-0.227,0.65,0.031
31.47,-0.482,1.321,-0.191
31.48,-0.12,0.902,0.061
31.49,-0.081,1.033,0.137
31.5,-0.2,0.795,0.007
31.51,-0.409,0.978,-0.139
31.52,-0.177,1.187,-0.033
31.53,-0.132,0.734,0.159
31.54,-0.095,1.083,0.103
31.55,-0.359,0.729,-0.19
31.56,-0.2,1.364,-0.031
31.57,-0.078,0.71,0.147
31.58,-0.202,0.965,0.219
31.59,-0.295,0.845,-0.133
31.6,-0.283,1.063,-0.182
31.61,0.069,1.182,0.084
31.62,-0.152,0.668,0.088
31.63,-0.293,1.049,0.031
31.64,-0.364,0.958,-0.257
31.65,-0.127,1.179,-0.006
31.66,-0.065,0.802,0.162
31.67,-0.229,0.868,0.03
31.68,-0.428,1.003,-0.184
31.69,-0.03,1.029,-0.078
31.7,-0.156,1.011,0.114
31.71,-0.039,0.68,0.101
31.72,-0.451,1.183,-0.203
31.73,-0.308,0.885,-0.034
31.74,0.031,1.188,0.112
31.75,-0.176,0.772,0.111
31.76,-0.304,0.869,0.026
31.77,-0.354,1.223,-0.188
31.78,-0.076,0.894,0.114
31.79,-0.167,1.09,0.127
31.8,-0.177,0.628,-0.004
31.81,-0.4,1.334,-0.202
31.82,-0.089,0.877,-0.026
31.83,-0.172,1.001,0.258
31.84,-0.195,0.868,0.072
31.85,-0.448,0.857,-0.162
31.86,-0.171,1.32,-0.116
31.87,-0.053,0.687,0.111
31.88,-0.119,1.111,0.146
31.89,-0.322,0.736,-0.13
31.9,-0.349,1.174,-0.101
31.91,0.031,1.092,0.103
31.92,-0.208,0.721,0.088
31.93,-0.203,1.006,-0.033
31.94,-0.391,0.966,-0.202
31.95,-0.193,1.219,0.089
31.96,-0.094,0.709,0.161
31.97,-0.303,0.973,-0.015
31.98,-0.322,0.913,-0.23
31.99,-0.048,1.09,-0.127
32.0,-0.132,0.913,0.175
32.01,-0.147,0.764,0.137
32.02,-0.457,1.127,-0.158
32.03,-0.237,0.897,-0.04
32.04,-0.083,1.207,0.136
32.05,-0.15,0.69,0.151
32.06,-0.342,0.995,-0.05
32.07,-0.294,0.994,-0.221
32.08,0.086,1.065,0.06
32.09,-0.138,1.003,0.102
32.1,-0.24,0.647,0.042
32.11,-0.405,1.348,-0.197
32.12,-0.052,0.807,-0.024
32.13,-0.153,1.116,0.22
32.14,-0.194,0.734,0.077
32.15,-0.426,0.981,-0.135
32.16,-0.199,1.229,-0.115
32.17,-0.059,0.774,0.11
32.18,-0.113,1.087,0.144
32.19,-0.38,0.685,-0.147
32.2,-0.315,1.249,-0.132
32.21,0.079,1.002,0.066
32.22,-0.194,0.853,0.125
32.23,-0.198,0.879,0.048
32.24,-0.406,1.035,-0.206
32.25,-0.217,1.191,0.089
32.26,-0.088,0.711,0.136
32.27,-0.319,1.003,-0.015
32.28,-0.211,0.856,-0.237
32.29,-0.136,1.235,-0.108
32.3,-0.138,0.778,0.228
32.31,-0.151,0.872,0.16
32.32,-0.438,0.989,-0.147
32.33,-0.15,0.923,-0.114
32.34,-0.088,1.269,0.127
32.35,-0.259,0.594,0.157
32.36,-0.233,1.097,-0.127
32.37,-0.346,0.871,-0.181
32.38,-0.066,1.265,0.139
32.39,-0.175,0.735,0.153
32.4,-0.365,0.873,0.025
32.41,-0.219,1.155,-0.271
32.42,-0.099,0.928,-0.056
32.43,-0.146,1.096,0.222
32.44,-0.123,0.661,0.082
32.45,-0.541,1.215,-0.134
32.46,-0.088,0.93,-0.127
32.47,-0.083,1.015,0.081
32.48,-0.114,0.872,0.198
32.49,-0.386,0.81,-0.159
32.5,-0.288,1.167,-0.098
32.51,-0.039,0.98,0.117
32.52,-0.207,0.958,0.081
32.53,-0.067,0.695,0.036
32.54,-0.466,1.328,-0.263
32.55,-0.104,0.925,0.003
32.56,-0.004,1.04,0.096
32.57,-0.23,0.85,-0.003
32.58,-0.288,0.862,-0.185
32.59,-0.25,1.299,0.004
32.6,-0.121,0.668,0.147
32.61,-0.173,1.064,0.153
32.62,-0.372,0.709,-0.143
32.63,-0.244,1.2,-0.059
32.64,-0.131,1.078,0.137
32.65,-0.142,0.694,0.148
32.66,-0.187,1.073,-0.039
32.67,-0.434,0.924,-0.269
32.68,-0.173,1.164,0.064
32.69,-0.071,0.777,0.14
32.7,-0.197,0.952,-0.007
32.71,-0.279,0.987,-0.184
32.72,-0.103,1.077,-0.096
32.73,-0.136,0.923,0.16
32.74,-0.072,0.745,0.18
32.75,-0.494,1.115,-0.141
32.76,-0.271,0.839,-0.116
32.77,-0.03,1.306,0.084
32.78,-0.142,0.69,0.112
32.79,-0.248,0.962,0.031
32.8,-0.342,1.113,-0.264
32.81,-0.045,0.876,0.004
32.82,-0.02,1.146,0.091
32.83,-0.177,0.618,0.027
32.84,-0.482,1.279,-0.125
32.85,-0.1,0.915,-0.075
32.86,-0.225,1.033,0.199
32.87,-0.123,0.808,0.176
32.88,-0.386,0.885,-0.174
32.89,-0.242,1.203,-0.113
32.9,0.003,0.911,0.103
32.91,-0.227,1.004,0.11
32.92,-0.157,0.646,-0.081
32.93,-0.34,1.293,-0.219
32.94,-0.082,0.949,0.106
32.95,-0.145,0.983,0.13
32.96,-0.2,0.825,-0.013
32.97,-0.368,1.007,-0.129
32.98,-0.172,1.24,-0.073
32.99,-0.19,0.678,0.181
33.0,-0.161,1.088,0.132
33.01,-0.354,0.753,-0.284
33.02,-0.156,1.183,-0.05
33.03,-0.073,1.02,0.151
33.04,-0.243,0.74,0.159
33.05,-0.157,1.053,-0.098
33.06,-0.296,0.951,-0.247
33.07,-0.161,1.234,0.139
33.08,-0.055,0.719,0.151
33.09,-0.384,0.967,0.023
33.1,-0.349,0.929,-0.211
33.11,-0.026,1.092,-0.11
33.12,-0.192,0.955,0.18
33.13,-0.03,0.729,0.088
33.14,-0.475,1.138,-0.18
33.15,-0.176,0.886,-0.049
33.16,-0.128,1.205,0.141
33.17,-0.214,0.684,0.193
33.18,-0.41,1.101,-0.106
33.19,-0.256,0.897,-0.184
33.2,-0.077,1.221,0.091
33.21,-0.085,0.799,0.142
33.22,-0.282,0.758,0.022
33.23,-0.369,1.284,-0.187
33.24,-0.072,0.827,-0.057
33.25,-0.144,1.119,0.141
33.26,-0.006,0.693,0.045
33.27,-0.554,1.138,-0.203
33.28,-0.107,0.987,-0.001
33.29,-0.122,1.023,0.053
33.3,-0.247,0.885,0.136
33.31,-0.16,0.756,-0.153
33.32,-0.297,1.254,-0.214
33.33,0.027,0.899,0.162
33.34,-0.123,1.061,0.118
33.35,-0.355,0.706,0.024
33.36,-0.31,1.182,-0.205
33.37,-0.15,1.032,-0.064
33.38,-0.066,0.872,0.198
33.39,-0.121,1.006,-0.025
33.4,-0.48,0.75,-0.115
33.41,-0.179,1.321,-0.053
33.42,-0.128,0.758,0.091
33.43,-0.069,1.004,0.157
33.44,-0.377,0.87,-0.112
33.45,-0.33,0.967,-0.056
33.46,0.045,1.257,0.025
33.47,-0.173,0.648,0.14
33.48,-0.285,1.093,0.079
33.49,-0.311,0.955,-0.265
33.5,-0.247,1.147,0.009
33.51,0.002,0.866,0.113
33.52,-0.164,0.841,0.034
33.53,-0.422,1.072,-0.117
33.54,-0.08,0.979,-0.121
33.55,-0.097,1.042,0.1
33.56,-0.104,0.731,0.209
33.57,-0.473,1.112,-0.139
33.58,-0.274,0.799,-0.113
33.59,0.031,1.323,0.151
33.6,-0.238,0.759,0.112
33.61,-0.307,0.804,0.086
33.62,-0.346,1.288,-0.239
33.63,-0.103,0.785,-0.004
33.64,-0.061,1.203,0.17
33.65,-0.116,0.659,-0.012
33.66,-0.533,1.132,-0.12
33.67,-0.092,1.011,-0.046
33.68,-0.199,0.948,0.117
33.69,-0.046,0.932,0.124
33.7,-0.306,0.779,-0.2
33.71,-0.385,1.279,-0.023
33.72,0.009,0.911,0.141
33.73,-0.261,0.994,0.113
33.74,-0.156,0.757,-0.014
33.75,-0.305,1.252,-0.247
33.76,-0.238,0.968,0.097
33.77,-0.021,0.909,0.154
33.78,-0.216,0.991,0.003
33.79,-0.429,0.842,-0.133
33.8,-0.111,1.252,-0.097
33.81,-0.147,0.746,0.091
33.82,-0.197,1.042,0.175
33.83,-0.261,0.789,-0.212
33.84,-0.329,1.061,-0.078
33.85,0.04,1.15,0.089
33.86,-0.125,0.625,0.111
33.87,-0.257,1.067,0.006
33.88,-0.257,0.956,-0.268
33.89,-0.192,1.226,0.032
33.9,-0.148,0.783,0.18
33.91,-0.152,0.868,0.01
33.92,-0.385,1.046,-0.246
33.93,-0.04,0.996,-0.101
33.94,-0.2,1.025,0.111
33.95,-0.084,0.679,0.192
33.96,-0.386,1.205,-0.122
33.97,-0.425,0.774,-0.108
33.98,0.055,1.229,0.116
33.99,-0.235,0.631,0.081
34.0,-0.194,1.031,-0.014
34.01,-0.278,1.031,-0.256
34.02,-0.236,0.969,0.136
34.03,-0.08,0.999,0.154
34.04,-0.238,0.671,0.019
34.05,-0.417,1.261,-0.193
34.06,-0.052,0.852,-0.04
34.07,-0.217,1.149,0.176
34.08,-0.031,0.755,0.124
34.09,-0.384,0.974,-0.194
34.1,-0.259,1.153,-0.079
34.11,-0.005,0.918,0.098
34.12,-0.204,1.012,0.151
34.13,-0.209,0.696,-0.064
34.14,-0.309,1.272,-0.246
34.15,-0.097,0.903,0.096
34.16,-0.138,1.091,0.151
34.17,-0.097,0.76,0.044
34.18,-0.509,1.033,-0.154
34.19,-0.068,1.214,-0.098
34.2,-0.101,0.725,0.125
34.21,-0.203,1.107,0.22
34.22,-0.317,0.666,-0.174
34.23,-0.311,1.221,-0.095
34.24,-0.048,1.005,0.141
34.25,-0.189,0.826,0.09
34.26,-0.288,0.916,0.0
34.27,-0.303,0.983,-0.204
34.28,-0.1,1.265,0.035
34.29,-0.141,0.704,0.159
34.3,-0.189,1.025,0.038
34.31,-0.411,0.915,-0.147
34.32,-0.15,1.166,-0.056
34.33,-0.186,0.828,0.117
34.34,-0.088,0.83,0.177
34.35,-0.39,1.089,-0.188
34.36,-0.214,0.863,-0.114
34.37,0.002,1.319,0.08
34.38,-0.114,0.593,0.064
34.39,-0.23,1.026,0.004
34.4,-0.353,1.05,-0.242
34.41,-0.166,0.986,0.049
34.42,-0.067,1.02,0.162
34.43,-0.235,0.643,0.041
34.44,-0.465,1.253,-0.166
34.45,-0.035,0.912,-0.124
34.46,-0.169,1.074,0.137
34.47,-0.182,0.776,0.237
34.48,-0.428,0.976,-0.152
34.49,-0.319,0.972,-0.105
34.5,0.061,1.054,0.075
34.51,-0.175,0.977,0.091
34.52,-0.268,0.659,0.055
34.53,-0.398,1.353,-0.242
34.54,-0.094,0.852,0.023
34.55,-0.095,1.126,0.173
34.56,-0.19,0.738,0.011
34.57,-0.489,1.001,-0.122
34.58,-0.104,1.177,-0.107
34.59,-0.121,0.734,0.142
34.6,-0.133,1.08,0.127
34.61,-0.361,0.722,-0.161
34.62,-0.268,1.231,-0.108
34.63,-0.04,1.008,0.118
34.64,-0.156,0.837,0.118
34.65,-0.225,0.939,0.01
34.66,-0.408,0.967,-0.22
34.67,-0.137,1.13,0.007
34.68,-0.037,0.797,0.166
34.69,-0.196,1.033,0.047
34.7,-0.405,0.812,-0.167
34.71,-0.137,1.199,-0.056
34.72,-0.091,0.812,0.082
34.73,-0.122,0.854,0.176
34.74,-0.379,1.073,-0.171
34.75,-0.288,0.929,-0.078
34.76,-0.011,1.311,0.074
34.77,-0.083,0.614,0.12
34.78,-0.341,1.017,0.045
34.79,-0.342,1.016,-0.241
34.8,-0.103,1.207,0.112
34.81,-0.111,0.805,0.127
34.82,-0.22,0.859,0.009
34.83,-0.396,1.105,-0.157
34.84,-0.092,0.941,-0.07
34.85,-0.176,1.084,0.147
34.86,-0.082,0.705,0.135
34.87,-0.458,1.14,-0.198
34.88,-0.268,0.864,-0.039
34.89,0.03,1.174,0.082
34.9,-0.15,0.79,0.081
34.91,-0.207,0.815,-0.052
34.92,-0.325,1.293,-0.238
34.93,-0.096,0.847,0.138
34.94,-0.151,1.123,0.158
34.95,-0.209,0.65,0.007
34.96,-0.475,1.251,-0.144
34.97,-0.136,0.953,-0.047
34.98,-0.176,0.924,0.195
34.99,-0.1,0.953,0.066
35.0,-0.367,0.769,-0.22
35.01,-0.244,1.277,-0.039
35.02,-0.019,0.811,0.095
35.03,-0.189,1.016,0.139
35.04,-0.227,0.777,-0.053
35.05,-0.399,1.128,-0.166
35.06,-0.073,1.073,0.118
35.07,-0.078,0.812,0.102
35.08,-0.328,0.963,-0.005
35.09,-0.282,0.937,-0.177
35.1,-0.169,1.235,-0.02
35.11,-0.139,0.708,0.21
35.12,-0.097,1.001,0.034
35.13,-0.395,0.881,-0.199
35.14,-0.179,1.102,0.017
35.15,-0.151,1.094,0.155
35.16,-0.201,0.644,0.142
35.17,-0.285,1.125,-0.119
35.18,-0.3,0.861,-0.234
35.19,0.008,1.265,0.107
35.2,-0.126,0.722,0.126
35.21,-0.325,0.901,0.025
35.22,-0.341,1.147,-0.21
35.23,-0.126,0.922,-0.01
35.24,-0.157,1.123,0.136
35.25,-0.052,0.662,0.061
35.26,-0.486,1.224,-0.153
35.27,-0.1,0.939,-0.075
35.28,-0.133,1.065,0.068
35.29,-0.08,0.812,0.139
35.3,-0.321,0.891,-0.123
35.31,-0.363,1.192,-0.119
35.32,0.073,0.926,0.092
35.33,-0.241,1.047,0.09
35.34,-0.196,0.669,0.022
35.35,-0.423,1.313,-0.251
35.36,-0.113,0.896,0.04
35.37,-0.066,1.055,0.148
35.38,-0.194,0.83,-0.005
35.39,-0.398,0.858,-0.111
35.4,-0.137,1.36,-0.101
35.41,-0.131,0.638,0.128
35.42,-0.121,1.108,0.178
35.43,-0.363,0.742,-0.211
35.44,-0.225,1.174,-0.054
35.45,-0.007,1.071,0.11
35.46,-0.232,0.703,0.144
35.47,-0.196,1.073,-0.001
35.48,-0.35,0.945,-0.217
35.49,-0.202,1.224,0.067
35.5,-0.005,0.74,0.13
35.51,-0.256,0.954,-0.012
35.52,-0.258,0.944,-0.203
35.53,-0.145,1.091,-0.091
35.54,-0.151,0.899,0.143
35.55,-0.078,0.772,0.097
35.56,-0.477,1.112,-0.185
35.57,-0.231,0.841,-0.015
35.58,-0.033,1.278,0.116
35.59,-0.243,0.656,0.109
35.6,-0.177,0.995,-0.047
35.61,-0.309,0.914,-0.236
35.62,0.031,1.162,0.078
35.63,-0.131,0.83,0.118
35.64,-0.356,0.738,0.007
35.65,-0.361,1.298,-0.21
35.66,-0.092,0.81,-0.072
35.67,-0.16,1.143,0.234
35.68,-0.061,0.693,0.055
35.69,-0.547,1.106,-0.176
35.7,-0.095,1.021,-0.043
35.71,-0.082,0.978,0.061
35.72,-0.201,0.914,0.203
35.73,-0.312,0.726,-0.086
35.74,-0.359,1.313,-0.185
35.75,0.033,0.883,0.121
35.76,-0.185,1.033,0.148
35.77,-0.28,0.725,0.041
35.78,-0.385,1.185,-0.199
35.79,-0.124,1.051,-0.028
35.8,-0.13,0.849,0.186
35.81,-0.207,1.0,0.042
35.82,-0.374,0.807,-0.167
35.83,-0.196,1.342,-0.07
35.84,-0.045,0.677,0.115
35.85,-0.13,1.024,0.128
35.86,-0.305,0.897,-0.187
35.87,-0.266,1.018,-0.105
35.88,-0.037,1.182,0.116
35.89,-0.174,0.651,0.104
35.9,-0.312,1.058,0.01
35.91,-0.298,0.894,-0.191
35.92,-0.168,1.236,0.093
35.93,-0.111,0.779,0.1
35.94,-0.153,0.862,0.009
35.95,-0.349,1.107,-0.217
35.96,-0.132,0.909,-0.048
35.97,-0.191,1.072,0.132
35.98,-0.08,0.689,0.089
35.99,-0.452,1.112,-0.167
36.0,-0.276,0.924,-0.056
36.01,0.012,1.167,0.081
36.02,-0.233,0.793,0.13
36.03,-0.178,0.817,-0.067
36.04,-0.328,1.27,-0.23
36.05,-0.049,0.871,0.138
36.06,-0.214,1.096,0.135
36.07,-0.179,0.658,-0.001
36.08,-0.424,1.289,-0.187
36.09,-0.106,0.934,-0.028
36.1,-0.137,0.955,0.232
36.11,-0.242,0.935,0.145
36.12,-0.414,0.745,-0.144
36.13,-0.193,1.355,-0.098
36.14,-0.048,0.785,0.162
36.15,-0.222,1.02,0.17
36.16,-0.212,0.734,-0.126
36.17,-0.341,1.163,-0.169
36.18,-0.062,1.131,0.137
36.19,-0.156,0.805,0.11
36.2,-0.302,0.963,0.027
36.21,-0.291,0.903,-0.162
36.22,-0.162,1.273,-0.033
36.23,-0.056,0.705,0.231
36.24,-0.228,1.01,0.093
36.25,-0.429,0.856,-0.2
36.26,-0.165,1.088,-0.094
36.27,-0.082,1.003,0.076
36.28,-0.334,0.874,-0.194
36.29,-0.018,1.26,0.113
36.3,-0.058,0.682,0.146
36.31,-0.362,0.994,0.005
36.32,-0.316,0.961,-0.178
36.33,-0.098,1.1,0.004
36.34,-0.229,0.934,0.18
36.35,-0.064,0.746,0.048
36.36,-0.472,1.003,-0.214
36.37,-0.012,0.983,-0.052
36.38,-0.162,1.094,0.121
36.39,-0.154,0.647,0.204
36.4,-0.373,1.168,-0.161
36.41,-0.308,0.873,-0.156
36.42,0.06,1.229,0.094
36.43,-0.146,0.806,0.075
36.44,-0.31,0.781,0.009
36.45,-0.334,1.272,-0.191
36.46,-0.148,0.854,0.04
36.47,-0.12,1.139,0.169
36.48,-0.106,0.627,0.023
36.49,-0.507,1.202,-0.159
36.5,-0.006,1.004,-0.074
36.51,-0.171,0.948,0.124
36.52,-0.066,0.953,0.137
36.53,-0.394,0.784,-0.202
36.54,-0.325,1.246,-0.06
36.55,0.1,0.861,0.091
36.56,-0.265,1.015,0.102
36.57,-0.187,0.726,-0.013
36.58,-0.4,1.236,-0.183
36.59,-0.144,0.996,0.078
36.6,-0.05,0.865,0.089
36.61,-0.278,0.929,-0.049
36.62,-0.335,0.881,-0.164
36.63,-0.12,1.308,-0.033
36.64,-0.182,0.66,0.246
36.65,-0.148,1.007,0.124
36.66,-0.373,0.868,-0.217
36.67,-0.121,1.103,-0.068
36.68,-0.075,1.046,0.127
36.69,-0.207,0.713,0.159
36.7,-0.324,1.115,-0.102
36.71,-0.316,0.842,-0.165
36.72,-0.112,1.328,0.117
36.73,-0.112,0.721,0.098
36.74,-0.232,0.905,-0.008
36.75,-0.419,1.112,-0.202
36.76,-0.064,0.93,0.01
36.77,-0.167,1.114,0.135
36.78,-0.081,0.659,0.062
36.79,-0.457,1.251,-0.197
36.8,-0.192,0.885,-0.03
36.81,-0.103,1.079,0.154
36.82,-0.198,0.796,0.119
36.83,-0.338,0.875,-0.122
36.84,-0.272,1.159,-0.157
36.85,-0.056,0.948,0.159
36.86,-0.168,1.034,0.115
36.87,-0.199,0.661,-0.036
36.88,-0.421,1.324,-0.21
36.89,-0.077,0.933,0.041
36.9,-0.15,0.982,0.185
36.91,-0.228,0.869,0.023
36.92,-0.421,0.866,-0.172
36.93,-0.168,1.283,-0.053
36.94,-0.052,0.694,0.145
36.95,-0.249,1.087,0.107
36.96,-0.303,0.742,-0.167
36.97,-0.326,1.168,-0.134
36.98,0.05,1.012,0.139
36.99,-0.17,0.791,0.135
37.0,-0.308,1.032,-0.012
37.01,-0.35,0.984,-0.216
37.02,-0.173,1.216,0.094
37.03,-0.055,0.696,0.165
37.04,-0.352,0.985,-0.045
37.05,-0.272,0.917,-0.221
37.06,-0.122,1.131,-0.034
37.07,-0.161,0.877,0.184
37.08,-0.077,0.773,0.081
37.09,-0.489,1.211,-0.186
37.1,-0.068,0.912,-0.082
37.11,-0.124,1.139,0.129
37.12,-0.24,0.697,0.2
37.13,-0.357,1.02,-0.174
37.14,-0.241,0.984,-0.22
37.15,0.007,1.092,0.131
37.16,-0.214,0.972,0.106
37.17,-0.255,0.792,-0.042
37.18,-0.358,1.243,-0.229
37.19,-0.077,0.865,0.094
37.2,-0.193,1.096,0.158
37.21,-0.167,0.624,0.018
37.22,-0.391,1.305,-0.206
37.23,-0.066,0.954,-0.082
37.24,-0.176,0.946,0.22
37.25,-0.147,0.932,0.112
37.26,-0.439,0.79,-0.151
37.27,-0.184,1.307,-0.11
37.28,-0.003,0.791,0.074
37.29,-0.179,1.069,0.11
37.3,-0.248,0.717,-0.106
37.31,-0.306,1.128,-0.18
37.32,-0.022,1.155,0.15
37.33,-0.124,0.734,0.125
37.34,-0.249,0.964,-0.004
37.35,-0.339,0.929,-0.178
37.36,-0.127,1.258,-0.03
37.37,-0.078,0.72,0.164
37.38,-0.175,0.992,0.029
37.39,-0.369,0.916,-0.176
37.4,-0.213,1.078,-0.042
37.41,-0.105,0.941,0.141
37.42,-0.062,0.753,0.122
37.43,-0.428,1.125,-0.136
37.44,-0.329,0.868,-0.084
37.45,-0.068,1.293,0.1
37.46,-0.168,0.708,0.095
37.47,-0.271,0.936,-0.034
37.48,-0.319,1.092,-0.253
37.49,-0.117,1.005,0.157
37.5,-0.22,1.1,0.153
37.51,-0.189,0.587,0.004
37.52,-0.409,1.312,-0.166
37.53,-0.114,0.909,-0.064
37.54,-0.152,0.987,0.197
37.55,-0.141,0.846,0.138
37.56,-0.476,0.888,-0.192
37.57,-0.217,1.152,-0.062
37.58,-0.049,0.927,0.14
37.59,-0.227,1.003,0.113
37.6,-0.161,0.696,-0.105
37.61,-0.375,1.295,-0.208
37.62,0.008,0.983,0.153
37.63,-0.19,0.957,0.118
37.64,-0.185,0.814,-0.042
37.65,-0.351,1.033,-0.207
37.66,-0.09,1.192,-0.079
37.67,-0.09,0.725,0.234
37.68,-0.226,1.037,0.071
37.69,-0.399,0.776,-0.207
37.7,-0.178,1.223,-0.079
37.71,-0.051,0.865,0.13
37.72,-0.161,0.833,0.181
37.73,-0.341,1.02,-0.149
37.74,-0.255,0.92,-0.073
37.75,-0.081,1.312,0.108
37.76,-0.117,0.587,0.142
37.77,-0.383,1.056,0.009
37.78,-0.301,0.926,-0.223
37.79,-0.097,1.128,0.091
37.8,-0.199,0.909,0.155
37.81,-0.15,0.76,-0.02
37.82,-0.392,1.299,-0.231
37.83,-0.137,0.773,-0.048
37.84,-0.072,1.166,0.158
37.85,-0.11,0.717,0.038
37.86,-0.392,1.019,-0.189
37.87,-0.115,1.144,-0.103
37.88,-0.089,0.936,0.113
37.89,-0.149,0.965,0.224
37.9,-0.37,0.687,-0.069
37.91,-0.366,1.269,-0.169
37.92,0.022,0.951,0.127
37.93,-0.267,0.972,0.184
37.94,-0.258,0.762,0.112
37.95,-0.431,1.193,-0.208
37.96,-0.121,1.018,-0.084
37.97,-0.027,0.881,0.169
37.98,-0.248,0.845,0.044
37.99,-0.421,0.876,-0.151
38.0,-0.188,1.335,-0.087
38.01,-0.112,0.672,0.146
38.02,-0.21,1.074,0.121
38.03,-0.27,0.712,-0.213
38.04,-0.219,1.201,-0.122
38.05,0.048,1.021,0.063
38.06,-0.14,0.718,0.093
38.07,-0.185,1.064,-0.039
38.08,-0.344,0.905,-0.222
38.09,-0.107,1.31,0.119
38.1,-0.094,0.702,0.099
38.11,-0.346,0.967,0.075
38.12,-0.314,1.007,-0.231
38.13,-0.095,1.032,-0.082
38.14,-0.125,0.914,0.212
38.15,-0.126,0.73,0.048
38.16,-0.456,1.156,-0.201
38.17,-0.069,0.917,-0.099
38.18,-0.152,1.13,0.044
38.19,-0.102,0.71,0.209
38.2,-0.384,0.988,-0.087
38.21,-0.35,1.033,-0.182
38.22,0.005,1.017,0.106
38.23,-0.177,0.99,0.079
38.24,-0.234,0.677,0.075
38.25,-0.451,1.421,-0.226
38.26,-0.143,0.775,-0.021
38.27,-0.132,1.131,0.215
38.28,-0.114,0.764,0.035
38.29,-0.464,0.964,-0.168
38.3,-0.107,1.216,-0.104
38.31,-0.088,0.726,0.087
38.32,-0.123,1.094,0.161
38.33,-0.334,0.673,-0.16
38.34,-0.275,1.234,-0.157
38.35,0.006,0.995,0.106
38.36,-0.162,0.853,0.094
38.37,-0.204,0.865,0.032
38.38,-0.398,1.047,-0.201
38.39,-0.1,1.2,0.025
38.4,-0.072,0.766,0.147
38.41,-0.302,0.989,0.01
38.42,-0.317,0.829,-0.132
38.43,-0.241,1.29,-0.087
38.44,-0.122,0.738,0.146
38.45,-0.103,0.912,0.121
38.46,-0.441,1.063,-0.16
38.47,-0.242,0.89,-0.067
38.48,-0.022,1.309,0.075
38.49,-0.235,0.586,0.103
38.5,-0.235,1.058,-0.068
38.51,-0.278,0.966,-0.286
38.52,-0.124,1.135,0.111
38.53,-0.122,0.896,0.164
38.54,-0.253,0.715,0.028
38.55,-0.354,1.297,-0.198
38.56,-0.038,0.861,-0.085
38.57,-0.178,1.105,0.207
38.58,-0.105,0.716,0.111
38.59,-0.529,1.04,-0.189
38.6,-0.128,1.057,-0.074
38.61,-0.136,1.009,0.125
38.62,-0.238,0.919,0.169
38.63,-0.164,0.731,-0.1
38.64,-0.399,1.229,-0.207
38.65,0.037,0.961,0.17
38.66,-0.229,1.084,0.139
38.67,-0.282,0.667,0.062
38.68,-0.332,1.196,-0.209
38.69,-0.14,1.083,-0.073
38.7,-0.122,0.775,0.254
38.71,-0.171,1.027,0.07
38.72,-0.471,0.708,-0.186
38.73,-0.117,1.36,-0.066
38.74,-0.047,0.816,0.079
38.75,-0.246,0.921,0.185
38.76,-0.175,0.886,-0.113
38.77,-0.392,1.051,-0.194
38.78,-0.018,1.197,0.142
38.79,-0.195,0.757,0.092
38.8,-0.291,1.008,0.059
38.81,-0.362,0.961,-0.236
38.82,-0.287,1.156,0.032
38.83,0.003,0.772,0.19
38.84,-0.213,0.991,-0.043
38.85,-0.354,0.874,-0.124
38.86,-0.181,1.148,-0.056
38.87,-0.229,0.88,0.137
38.88,-0.028,0.79,0.151
38.89,-0.421,1.166,-0.236
38.9,-0.267,0.82,-0.053
38.91,-0.028,1.348,0.134
38.92,-0.174,0.616,0.142
38.93,-0.251,0.976,0.008
38.94,-0.344,1.09,-0.257
38.95,-0.151,0.958,0.05
38.96,-0.177,1.076,0.134
38.97,-0.11,0.605,0.036
38.98,-0.475,1.328,-0.167
38.99,-0.154,0.898,-0.059
39.0,-0.203,1.017,0.129
39.01,-0.096,0.798,0.148
39.02,-0.447,0.94,-0.169
39.03,-0.233,1.071,-0.075
39.04,-0.038,1.004,0.114
39.05,-0.219,0.963,0.114
39.06,-0.15,0.687,-0.024
39.07,-0.463,1.378,-0.22
39.08,-0.073,0.837,0.043
39.09,-0.048,1.059,0.129
39.1,-0.222,0.778,0.034
39.11,-0.445,0.984,-0.105
39.12,-0.097,1.253,-0.121
39.13,-0.178,0.681,0.16
39.14,-0.101,1.119,0.141
39.15,-0.354,0.733,-0.223
39.16,-0.253,1.171,-0.114
39.17,0.03,0.992,0.087
39.18,-0.215,0.769,0.096
39.19,-0.22,1.01,-0.02
39.2,-0.377,0.992,-0.211
39.21,-0.174,1.191,0.034
39.22,0.031,0.762,0.156
39.23,-0.291,0.998,-0.032
39.24,-0.34,0.87,-0.129
39.25,-0.155,1.16,-0.055
39.26,-0.204,0.844,0.125
39.27,-0.034,0.804,0.128
39.28,-0.494,1.095,-0.216
39.29,-0.12,0.896,-0.094
39.3,-0.018,1.261,0.107
39.31,-0.292,0.632,0.196
39.32,-0.204,1.003,-0.07
39.33,-0.338,0.99,-0.267
39.34,0.041,1.081,0.108
39.35,-0.163,0.992,0.1
39.36,-0.288,0.659,0.052
39.37,-0.328,1.333,-0.203
39.38,-0.219,0.799,-0.02
39.39,-0.136,1.098,0.206
39.4,-0.111,0.787,0.076
39.41,-0.459,0.994,-0.181
39.42,-0.24,1.114,-0.05
39.43,-0.068,0.913,0.108
39.44,-0.216,0.992,0.156
39.45,-0.188,0.726,-0.071
39.46,-0.429,1.307,-0.195
39.47,0.061,0.885,0.081
39.48,-0.152,1.013,0.113
39.49,-0.272,0.782,0.074
39.5,-0.361,1.141,-0.209
39.51,-0.165,1.106,-0.076
39.52,-0.07,0.781,0.177
39.53,-0.204,1.039,0.089
39.54,-0.431,0.749,-0.149
39.55,-0.157,1.305,-0.088
39.56,-0.01,0.821,0.042
39.57,-0.124,0.903,0.151
39.58,-0.234,0.931,-0.127
39.59,-0.307,1.115,-0.076
39.6,0.035,1.135,0.075
39.61,-0.189,0.718,0.095
39.62,-0.259,1.044,-0.021
39.63,-0.301,0.899,-0.235
39.64,-0.176,1.246,0.076
39.65,-0.043,0.76,0.133
39.66,-0.201,0.925,-0.019
39.67,-0.357,0.976,-0.148
39.68,-0.207,1.047,-0.05
39.69,-0.188,0.954,0.183
39.7,-0.047,0.738,0.146
39.71,-0.468,1.142,-0.155
39.72,-0.268,0.842,-0.097
39.73,-0.063,1.293,0.07
39.74,-0.156,0.657,0.12
39.75,-0.216,0.958,0.001
39.76,-0.371,1.163,-0.259
39.77,-0.051,0.877,0.052
39.78,-0.134,1.193,0.155
39.79,-0.189,0.58,0.046
39.8,-0.477,1.257,-0.115
39.81,-0.152,0.92,-0.05
39.82,-0.198,0.996,0.164
39.83,-0.1,0.873,0.107
39.84,-0.408,0.854,-0.162
39.85,-0.258,1.223,-0.083
39.86,0.011,0.943,0.072
39.87,-0.177,1.013,0.103
39.88,-0.177,0.655,-0.012
39.89,-0.406,1.278,-0.222
39.9,-0.121,0.967,0.095
39.91,-0.186,0.959,0.156
39.92,-0.221,0.83,0.009
39.93,-0.375,0.965,-0.185
39.94,-0.145,1.254,-0.079
39.95,-0.123,0.668,0.177
39.96,-0.13,1.086,0.131
39.97,-0.369,0.762,-0.189
39.98,-0.233,1.193,-0.066
39.99,-0.022,1.005,0.107
40.0,-0.223,0.75,0.172
40.01,-0.266,1.066,-0.058
40.02,-0.355,0.86,-0.233
40.03,-0.096,1.274,0.078
40.04,-0.082,0.737,0.112
40.05,-0.261,0.939,0.025
40.06,-0.314,0.996,-0.155
40.07,-0.192,1.094,-0.064
40.08,-0.175,0.878,0.191
40.09,-0.097,0.778,0.094
40.1,-0.487,1.134,-0.22
40.11,-0.187,0.833,0.002
40.12,-0.097,1.294,0.13
40.13,-0.202,0.607,0.107
40.14,-0.205,1.033,-0.07
40.15,-0.286,1.106,-0.245
40.16,-0.151,0.968,0.146
40.17,-0.07,1.03,0.148
40.18,-0.337,0.661,0.033
40.19,-0.351,1.32,-0.207
40.2,-0.058,0.835,-0.079
40.21,-0.206,1.116,0.26
40.22,-0.116,0.796,0.157
40.23,-0.533,0.932,-0.174
40.24,-0.052,1.193,-0.086
40.25,-0.069,0.892,0.099
40.26,-0.245,1.026,0.179
40.27,-0.222,0.719,-0.123
40.28,-0.32,1.238,-0.223
40.29,-0.02,0.97,0.127
40.3,-0.152,0.984,0.16
40.31,-0.323,0.792,0.033
40.32,-0.383,0.993,-0.134
40.33,-0.165,1.164,-0.017
40.34,-0.134,0.73,0.193
40.35,-0.139,1.112,0.102
40.36,-0.302,0.756,-0.256
40.37,-0.236,1.271,-0.036
40.38,-0.05,0.909,0.104
40.39,-0.21,0.83,0.17
40.4,-0.242,1.011,-0.106
40.41,-0.345,1.033,-0.151
40.42,0.025,1.209,0.095
40.43,-0.141,0.691,0.103
40.44,-0.322,1.03,0.01
40.45,-0.256,0.966,-0.243
40.46,-0.134,1.213,-0.033
40.47,-0.093,0.745,0.188
40.48,-0.151,0.87,0.02
40.49,-0.432,1.044,-0.187
40.5,-0.086,1.009,-0.026
40.51,-0.143,1.126,0.134
40.52,-0.225,0.656,0.172
40.53,-0.31,1.146,-0.139
40.54,-0.32,0.903,-0.175
40.55,0.008,1.217,0.133
40.56,-0.161,0.762,0.085
40.57,-0.344,0.82,-0.016
40.58,-0.239,1.252,-0.247
40.59,-0.102,0.865,0.009
40.6,-0.202,1.109,0.212
40.61,-0.082,0.646,0.029
40.62,-0.591,1.234,-0.154
40.63,-0.07,0.919,-0.059
40.64,-0.082,1.014,0.089
40.65,-0.198,0.894,0.146
40.66,-0.321,0.806,-0.165
40.67,-0.261,1.246,-0.14
40.68,0.018,0.927,0.115
40.69,-0.133,1.0,0.097
40.7,-0.235,0.692,0.022
40.71,-0.447,1.291,-0.179
40.72,-0.126,0.962,0.065
40.73,-0.172,0.915,0.179
40.74,-0.201,0.917,-0.0
40.75,-0.43,0.887,-0.141
40.76,-0.206,1.279,-0.044
40.77,-0.094,0.708,0.158
40.78,-0.176,1.051,0.114
40.79,-0.325,0.797,-0.173
40.8,-0.26,1.143,-0.072
40.81,-0.073,1.011,0.102
40.82,-0.184,0.69,0.149
40.83,-0.253,1.094,-0.066
40.84,-0.318,0.884,-0.215
40.85,-0.132,1.269,0.081
40.86,-0.083,0.723,0.163
40.87,-0.279,1.019,0.004
40.88,-0.407,0.898,-0.174
40.89,-0.117,1.176,-0.011
40.9,-0.175,0.821,0.184
40.91,-0.231,0.835,0.135
40.92,-0.394,1.13,-0.186
40.93,-0.185,0.897,-0.059
40.94,-0.103,1.184,0.144
40.95,-0.105,0.629,0.153
40.96,-0.406,1.125,-0.079
40.97,-0.286,0.941,-0.196
40.98,-0.055,1.098,0.149
40.99,-0.203,0.91,0.144
41.0,-0.248,0.721,0.029
41.01,-0.462,1.335,-0.184
41.02,-0.168,0.779,0.025
41.03,-0.164,1.154,0.226
41.04,-0.08,0.725,0.062
41.05,-0.475,1.034,-0.234
41.06,-0.062,1.097,-0.058
41.07,-0.078,0.954,0.091
41.08,-0.142,0.98,0.146
41.09,-0.276,0.714,-0.121
41.1,-0.47,1.301,-0.101
41.11,0.018,0.903,0.114
41.12,-0.152,1.018,0.044
41.13,-0.185,0.746,-0.056
41.14,-0.326,1.12,-0.17
41.15,-0.186,1.158,0.062
41.16,-0.096,0.774,0.13
41.17,-0.224,1.026,-0.015
41.18,-0.394,0.863,-0.175
41.19,-0.139,1.219,-0.072
41.2,-0.081,0.758,0.163
41.21,-0.164,0.946,0.098
41.22,-0.302,0.775,-0.203
41.23,-0.183,1.188,-0.1
41.24,-0.053,0.93,0.094
41.25,-0.251,0.782,0.212
41.26,-0.307,1.033,-0.092
41.27,-0.289,0.884,-0.174
41.28,-0.103,1.3,0.143
41.29,-0.118,0.67,0.111
41.3,-0.322,0.954,0.028
41.31,-0.319,1.056,-0.219
41.32,-0.101,1.045,-0.025
41.33,-0.182,0.957,0.178
41.34,-0.08,0.732,0.044
41.35,-0.498,1.178,-0.158
41.36,-0.149,0.917,-0.003
41.37,-0.15,1.167,0.113
41.38,-0.223,0.664,0.148
41.39,-0.259,1.011,-0.115
41.4,-0.298,1.08,-0.251
41.41,-0.046,1.003,0.184
41.42,-0.121,1.015,0.107
41.43,-0.345,0.616,-0.023
41.44,-0.311,1.329,-0.233
41.45,-0.048,0.897,-0.104
41.46,-0.136,1.07,0.21
41.47,-0.128,0.781,0.071
41.48,-0.535,1.01,-0.169
41.49,-0.106,1.184,-0.099
41.5,-0.098,0.793,0.115
41.51,-0.223,1.063,0.216
41.52,-0.28,0.682,-0.188
41.53,-0.346,1.23,-0.132
41.54,0.046,0.964,0.112
41.55,-0.164,0.877,0.087
41.56,-0.287,0.862,0.008
41.57,-0.255,1.042,-0.238
41.58,-0.171,1.18,-0.026
41.59,-0.016,0.674,0.155
41.6,-0.222,1.031,0.002
41.61,-0.477,0.84,-0.135
41.62,-0.116,1.25,-0.022
41.63,-0.179,0.817,0.087
41.64,-0.122,0.877,0.137
41.65,-0.386,1.06,-0.191
41.66,-0.281,0.916,-0.104
41.67,-0.009,1.241,0.063
41.68,-0.135,0.585,0.142
41.69,-0.354,1.08,-0.011
41.7,-0.263,0.974,-0.209
41.71,-0.191,1.143,0.135
41.72,-0.149,0.891,0.166
41.73,-0.23,0.748,-0.004
41.74,-0.427,1.274,-0.204
41.75,-0.055,0.813,-0.044
41.76,-0.135,1.183,0.139
41.77,-0.056,0.684,0.068
41.78,-0.419,1.061,-0.185
41.79,-0.25,1.034,-0.036
41.8,-0.007,1.0,0.13
41.81,-0.17,0.938,0.131
41.82,-0.282,0.729,-0.102
41.83,-0.346,1.277,-0.189
41.84,-0.083,0.891,0.119
41.85,-0.193,1.065,0.106
41.86,-0.128,0.695,-0.034
41.87,-0.377,1.203,-0.203
41.88,-0.084,1.017,-0.04
41.89,-0.128,0.864,0.237
41.9,-0.253,1.004,0.08
41.91,-0.393,0.738,-0.156
41.92,-0.258,1.372,-0.049
41.93,-0.101,0.745,0.077
41.94,-0.133,0.98,0.115
41.95,-0.346,0.857,-0.134
41.96,-0.348,1.042,-0.048
41.97,-0.059,1.189,0.129
41.98,-0.204,0.624,0.14
41.99,-0.264,1.116,-0.043
42.0,-0.415,0.891,-0.225
42.01,-0.217,1.183,0.068
42.02,-0.052,0.803,0.133
42.03,-0.281,1.037,0.012
42.04,-0.349,0.933,-0.21
42.05,-0.186,1.016,-0.018
42.06,-0.135,0.987,0.186
42.07,-0.089,0.747,0.084
42.08,-0.402,1.146,-0.21
42.09,-0.141,0.9,-0.091
42.1,-0.129,1.19,0.095
42.11,-0.13,0.631,0.174
42.12,-0.329,0.986,-0.093
42.13,-0.336,0.998,-0.22
42.14,-0.01,1.057,0.129
42.15,-0.204,1.024,0.111
42.16,-0.181,0.592,0.024
42.17,-0.395,1.416,-0.201
42.18,-0.119,0.805,-0.04
42.19,-0.151,1.116,0.191
42.2,-0.114,0.752,0.055
42.21,-0.489,0.958,-0.159
42.22,-0.071,1.188,-0.053
42.23,-0.135,0.872,0.123
42.24,-0.261,1.046,0.242
42.25,-0.331,0.691,-0.087
42.26,-0.396,1.251,-0.24
42.27,0.103,0.942,0.083
42.28,-0.188,0.936,0.049
42.29,-0.148,0.826,-0.007
42.3,-0.364,1.097,-0.18
42.31,-0.193,1.138,0.001
42.32,-0.01,0.792,0.216
42.33,-0.238,1.022,0.005
42.34,-0.345,0.822,-0.183
42.35,-0.127,1.295,-0.068
42.36,-0.154,0.802,0.11
42.37,-0.15,0.865,0.202
42.38,-0.306,0.98,-0.174
42.39,-0.358,0.906,-0.154
42.4,0.027,1.313,0.105
42.41,-0.144,0.615,0.077
42.42,-0.331,1.065,0.025
42.43,-0.309,0.947,-0.251
42.44,-0.059,1.099,0.015
42.45,-0.153,0.907,0.146
42.46,-0.135,0.773,0.023
42.47,-0.422,1.169,-0.174
42.48,-0.127,0.905,-0.026
42.49,-0.145,1.083,0.158
42.5,-0.242,0.686,0.176
42.51,-0.377,1.116,-0.171
42.52,-0.29,0.957,-0.177
42.53,0.068,1.089,0.106
42.54,-0.183,0.896,0.102
42.55,-0.317,0.702,0.011
42.56,-0.376,1.316,-0.206
42.57,-0.07,0.823,0.06
42.58,-0.189,1.15,0.156
42.59,-0.122,0.652,-0.018
42.6,-0.449,1.125,-0.137
42.61,-0.159,1.088,-0.021
42.62,-0.174,0.837,0.166
42.63,-0.133,1.02,0.08
42.64,-0.33,0.749,-0.216
42.65,-0.262,1.368,-0.008
42.66,0.031,0.834,0.133
42.67,-0.28,0.969,0.218
42.68,-0.289,0.795,-0.083
42.69,-0.275,1.064,-0.206
42.7,-0.117,1.196,0.136
42.71,-0.141,0.689,0.164
42.72,-0.279,1.044,0.033
42.73,-0.369,0.903,-0.276
42.74,-0.114,1.141,-0.061
42.75,-0.128,0.817,0.2
42.76,-0.192,0.957,0.094
42.77,-0.386,0.91,-0.201
42.78,-0.118,1.083,-0.055
42.79,-0.1,1.107,0.101
42.8,-0.18,0.648,0.215
42.81,-0.382,1.089,-0.099
42.82,-0.341,0.839,-0.164
42.83,-0.015,1.29,0.086
42.84,-0.135,0.609,0.073
42.85,-0.321,0.976,0.007
42.86,-0.287,1.034,-0.211
42.87,-0.037,1.026,0.041
42.88,-0.153,0.977,0.165
42.89,-0.149,0.687,0.001
42.9,-0.456,1.232,-0.2
42.91,-0.048,0.884,-0.072
42.92,-0.084,1.12,0.137
42.93,-0.206,0.765,0.199
42.94,-0.435,0.988,-0.123
42.95,-0.258,1.074,-0.134
42.96,0.017,1.0,0.107
42.97,-0.185,0.935,0.121
42.98,-0.137,0.718,-0.087
42.99,-0.41,1.333,-0.201
43.0,-0.129,0.844,0.126
43.01,-0.142,1.066,0.18
43.02,-0.377,0.747,0.035
43.03,-0.331,1.025,-0.181
43.04,-0.148,1.173,-0.115
43.05,-0.064,0.728,0.137
43.06,-0.067,1.087,0.068
43.07,-0.459,0.735,-0.152
43.08,-0.157,1.302,-0.175
43.09,0.043,0.896,0.035
43.1,-0.187,0.919,0.193
43.11,-0.303,0.903,-0.062
43.12,-0.441,0.965,-0.166
43.13,-0.01,1.269,0.127
43.14,-0.141,0.651,0.148
43.15,-0.39,1.027,0.086
43.16,-0.259,0.909,-0.237
43.17,-0.122,1.142,-0.058
43.18,-0.131,0.836,0.213
43.19,-0.147,0.826,0.08
43.2,-0.485,1.063,-0.157
43.21,-0.101,0.972,-0.084
43.22,-0.084,1.18,0.055
43.23,-0.191,0.63,0.2
43.24,-0.326,1.125,-0.117
43.25,-0.302,0.925,-0.201
43.26,-0.04,1.126,0.136
43.27,-0.088,0.879,0.068
43.28,-0.214,0.698,-0.009
43.29,-0.354,1.343,-0.177
43.3,-0.151,0.834,0.042
43.31,-0.231,1.138,0.199
43.32,-0.057,0.677,0.018
43.33,-0.458,1.139,-0.242
43.34,-0.072,1.091,-0.135
43.35,0.001,0.902,0.07
43.36,-0.182,0.971,0.202
43.37,-0.367,0.725,-0.127
43.38,-0.304,1.258,-0.153
43.39,0.057,0.948,0.088
43.4,-0.234,1.018,0.119
43.41,-0.197,0.742,0.002
43.42,-0.371,1.187,-0.218
43.43,-0.096,1.066,-0.026
43.44,-0.108,0.804,0.191
43.45,-0.244,1.021,0.074
43.46,-0.423,0.792,-0.18
43.47,-0.133,1.298,-0.067
43.48,-0.099,0.729,0.173
43.49,-0.212,1.011,0.171
43.5,-0.322,0.839,-0.197
43.51,-0.219,1.062,-0.117
43.52,0.008,1.227,0.072
43.53,-0.141,0.596,0.092
43.54,-0.317,1.087,-0.009
43.55,-0.329,0.905,-0.207
43.56,-0.187,1.209,0.092
43.57,-0.124,0.791,0.151
43.58,-0.194,0.866,0.012
43.59,-0.328,1.099,-0.228
43.6,-0.088,0.925,-0.065
43.61,-0.177,1.074,0.175
43.62,-0.083,0.72,0.098
43.63,-0.446,1.104,-0.221
43.64,-0.072,0.913,-0.122
43.65,-0.124,1.184,0.123
43.66,-0.204,0.667,0.194
43.67,-0.344,0.989,-0.09
43.68,-0.302,1.0,-0.223
43.69,0.086,1.082,0.059
43.7,-0.14,1.007,0.081
43.71,-0.213,0.621,0.016
43.72,-0.344,1.398,-0.2
43.73,-0.098,0.845,-0.004
43.74,-0.201,1.136,0.252
43.75,-0.168,0.716,0.041
43.76,-0.461,0.982,-0.177
43.77,-0.082,1.238,-0.126
43.78,-0.047,0.831,0.021
43.79,-0.142,1.024,0.142
43.8,-0.268,0.727,-0.179
43.81,-0.352,1.236,-0.165
43.82,0.07,0.937,0.108
43.83,-0.155,0.928,0.11
43.84,-0.314,0.843,0.037
43.85,-0.361,1.048,-0.181
43.86,-0.151,1.139,-0.041
43.87,-0.038,0.745,0.147
43.88,-0.185,1.026,0.021
43.89,-0.388,0.803,-0.13
43.9,-0.148,1.267,-0.056
43.91,-0.117,0.784,0.107
43.92,-0.102,0.891,0.157
43.93,-0.348,0.983,-0.142
43.94,-0.317,0.93,-0.113
43.95,0.002,1.237,0.075
43.96,-0.171,0.624,0.133
43.97,-0.242,1.102,-0.037
43.98,-0.377,0.93,-0.205
43.99,-0.134,1.08,0.104
44.0,-0.079,0.959,0.135
44.01,-0.164,0.707,0.024
44.02,-0.359,1.224,-0.188
44.03,-0.148,0.89,-0.079
44.04,-0.222,1.094,0.143
44.05,-0.055,0.742,0.157
44.06,-0.456,1.035,-0.192
44.07,-0.211,0.968,-0.117
44.08,-0.005,1.107,0.104
44.09,-0.148,0.857,0.109
44.1,-0.155,0.693,-0.014
44.11,-0.422,1.347,-0.205
44.12,-0.067,0.885,0.103
44.13,-0.194,1.141,0.156
44.14,-0.237,0.685,-0.005
44.15,-0.397,1.148,-0.141
44.16,-0.152,1.05,-0.059
44.17,-0.179,0.822,0.2
44.18,-0.156,1.072,0.118
44.19,-0.354,0.698,-0.226
44.2,-0.255,1.277,-0.051
44.21,-0.009,0.88,0.127
44.22,-0.209,0.971,0.157
44.23,-0.196,0.833,-0.071
44.24,-0.396,1.036,-0.186
44.25,-0.118,1.159,0.105
44.26,-0.098,0.766,0.146
44.27,-0.299,1.006,0.03
44.28,-0.284,0.909,-0.228
44.29,-0.165,1.212,-0.037
44.3,-0.145,0.771,0.183
44.31,-0.093,0.942,0.083
44.32,-0.378,0.959,-0.204
44.33,-0.187,0.997,-0.065
44.34,-0.095,1.151,0.088
44.35,-0.166,0.637,0.208
44.36,-0.305,1.096,-0.062
44.37,-0.324,0.862,-0.183
44.38,-0.079,1.224,0.15
44.39,-0.167,0.845,0.104
44.4,-0.228,0.729,-0.003
44.41,-0.288,1.312,-0.215
44.42,-0.092,0.833,-0.078
44.43,-0.199,1.095,0.25
44.44,-0.168,0.697,0.118
44.45,-0.518,1.106,-0.229
44.46,-0.07,0.929,-0.107
44.47,-0.152,1.101,0.07
44.48,-0.03,0.717,0.146
44.49,-0.338,1.01,-0.152
44.5,-0.319,1.061,-0.142
44.51,0.04,1.01,0.148
44.52,-0.19,0.98,0.138
44.53,-0.236,0.677,0.036
44.54,-0.477,1.388,-0.177
44.55,-0.17,0.797,0.005
44.56,-0.098,1.104,0.168
44.57,-0.144,0.781,0.044
44.58,-0.476,0.99,-0.13
44.59,-0.084,1.203,-0.128
44.6,-0.04,0.69,0.061
44.61,-0.101,1.125,0.158
44.62,-0.136,1.176,0.074
44.63,-0.045,0.722,0.186
44.64,-0.401,1.112,-0.139
44.65,-0.342,0.801,-0.104
44.66,-0.009,1.308,0.099
44.67,-0.165,0.699,0.085
44.68,-0.238,0.863,0.033
44.69,-0.234,1.195,-0.264
44.7,-0.142,0.9,-0.009
44.71,-0.187,1.101,0.174
44.72,-0.087,0.656,0.042
44.73,-0.529,1.221,-0.137
44.74,-0.146,0.918,-0.063
44.75,-0.13,1.032,0.108
44.76,-0.156,0.821,0.176
44.77,-0.307,0.853,-0.147
44.78,-0.293,1.155,-0.184
44.79,0.08,0.992,0.111
44.8,-0.149,1.03,0.018
44.81,-0.134,0.639,0.004
44.82,-0.421,1.366,-0.199
44.83,-0.183,0.909,0.034
44.84,-0.125,1.03,0.186
44.85,-0.086,0.867,0.02
44.86,-0.506,0.891,-0.103
44.87,-0.115,1.303,-0.08
44.88,-0.132,0.718,0.087
44.89,-0.093,1.074,0.16
44.9,-0.212,0.721,-0.183
44.91,-0.337,1.154,-0.055
44.92,0.019,1.031,0.092
44.93,-0.24,0.784,0.149
44.94,-0.247,1.004,0.004
44.95,-0.322,0.93,-0.216
44.96,-0.26,1.26,0.09
44.97,-0.034,0.81,0.174
44.98,-0.275,0.936,0.022
44.99,-0.371,0.896,-0.135
45.0,-0.093,1.195,-0.101
45.01,-0.163,0.879,0.056
45.02,-0.073,0.719,0.195
45.03,-0.405,1.155,-0.178
45.04,-0.248,0.827,-0.115
45.05,-0.075,1.354,0.081
45.06,-0.118,0.617,0.059
45.07,-0.233,0.98,0.042
45.08,-0.316,1.142,-0.229
45.09,-0.081,0.889,-0.006
45.1,-0.048,1.12,0.148
45.11,-0.151,0.652,0.018
45.12,-0.552,1.21,-0.096
45.13,-0.075,0.956,-0.089
45.14,-0.242,1.085,0.059
45.15,-0.037,0.799,0.182
45.16,-0.482,1.081,-0.204
45.17,-0.209,0.948,-0.03
45.18,-0.033,1.091,0.132
45.19,-0.291,0.884,0.139
45.2,-0.219,0.745,-0.057
45.21,-0.308,1.287,-0.248
45.22,-0.073,0.886,0.139
45.23,-0.178,1.094,0.167
45.24,-0.272,0.675,0.03
45.25,-0.377,1.164,-0.206
45.26,-0.063,1.03,-0.144
45.27,-0.193,0.818,0.216
45.28,-0.152,1.013,0.123
45.29,-0.352,0.74,-0.234
45.3,-0.178,1.336,-0.056
45.31,-0.067,0.835,0.114
45.32,-0.156,0.932,0.163
45.33,-0.219,0.872,-0.083
45.34,-0.281,1.032,-0.255
45.35,-0.108,1.141,0.11
45.36,-0.151,0.803,0.168
45.37,-0.271,0.99,0.01
45.38,-0.339,0.906,-0.183
45.39,-0.188,1.21,-0.067
45.4,-0.118,0.744,0.155
45.41,-0.084,0.966,0.123
45.42,-0.395,0.909,-0.233
45.43,-0.176,0.949,-0.043
45.44,-0.039,1.245,0.079
45.45,-0.142,0.566,0.117
45.46,-0.275,1.14,0.01
45.47,-0.389,0.913,-0.244
45.48,-0.189,1.132,0.145
45.49,-0.12,0.907,0.162
45.5,-0.243,0.789,-0.014
45.51,-0.327,1.167,-0.179
45.52,-0.07,0.892,-0.038
45.53,-0.266,1.123,0.206
45.54,-0.102,0.682,0.136
45.55,-0.507,1.137,-0.198
45.56,-0.137,0.964,-0.11
45.57,-0.027,1.08,0.107
45.58,-0.191,0.855,0.215
45.59,-0.333,0.801,-0.062
45.6,-0.328,1.191,-0.257
45.61,0.005,0.895,0.151
45.62,-0.122,1.113,0.099
45.63,-0.244,0.652,0.013
45.64,-0.347,1.22,-0.205
45.65,-0.094,0.996,-0.078
45.66,-0.185,0.897,0.212
45.67,-0.133,0.959,0.109
45.68,-0.403,0.791,-0.206
45.69,-0.202,1.335,-0.051
45.7,-0.013,0.765,0.121
45.71,-0.176,1.012,0.191
45.72,-0.252,0.774,-0.063
45.73,-0.354,1.101,-0.202
45.74,-0.063,1.128,0.082
45.75,-0.116,0.826,0.114
45.76,-0.218,1.005,-0.001
45.77,-0.378,0.913,-0.158
45.78,-0.186,1.253,-0.016
45.79,-0.08,0.724,0.164
45.8,-0.149,1.006,0.083
45.81,-0.365,0.898,-0.178
45.82,-0.267,1.059,-0.016
45.83,-0.117,1.102,0.135
45.84,-0.142,0.647,0.123
45.85,-0.324,1.142,-0.073
45.86,-0.326,0.866,-0.233
45.87,-0.038,1.228,0.133
45.88,-0.166,0.75,0.148
45.89,-0.288,0.878,0.008
45.9,-0.331,1.144,-0.255
45.91,-0.119,0.885,-0.036
45.92,-0.099,1.128,0.143
45.93,-0.133,0.66,0.084
45.94,-0.541,1.172,-0.131
45.95,-0.03,0.952,-0.121
45.96,-0.18,1.095,0.101
45.97,-0.027,0.743,0.153
45.98,-0.463,1.002,-0.113
45.99,-0.256,1.036,-0.094
46.0,-0.02,1.092,0.137
46.01,-0.238,0.919,0.086
46.02,-0.145,0.693,-0.006
46.03,-0.468,1.378,-0.219
46.04,-0.188,0.794,0.121
46.05,-0.107,1.085,0.137
46.06,-0.259,0.746,-0.02
46.07,-0.36,1.062,-0.141
46.08,-0.159,1.138,-0.141
46.09,-0.123,0.744,0.213
46.1,-0.148,1.087,0.128
46.11,-0.379,0.637,-0.189
46.12,-0.256,1.296,-0.041
46.13,0.007,0.947,0.095
46.14,-0.193,0.863,0.128
46.15,-0.16,0.882,-0.03
46.16,-0.451,1.069,-0.198
46.17,-0.167,1.148,0.062
46.18,-0.109,0.741,0.131
46.19,-0.236,1.005,0.012
46.2,-0.377,0.898,-0.147
46.21,-0.259,1.19,-0.044
46.22,-0.147,0.765,0.148
46.23,-0.053,0.914,0.092
46.24,-0.414,0.957,-0.247
46.25,-0.208,0.909,-0.03
46.26,-0.083,1.258,0.103
46.27,-0.196,0.586,0.146
46.28,-0.225,1.093,-0.048
46.29,-0.343,0.927,-0.247
46.3,-0.067,1.13,0.154
46.31,-0.109,0.895,0.133
46.32,-0.32,0.749,-0.028
46.33,-0.336,1.218,-0.234
46.34,-0.069,0.876,-0.077
46.35,-0.243,1.123,0.171
46.36,0.016,0.653,0.099
46.37,-0.485,1.133,-0.223
46.38,-0.118,0.983,-0.079
46.39,-0.096,1.044,0.11
46.4,-0.227,0.891,0.176
46.41,-0.282,0.755,-0.09
46.42,-0.36,1.282,-0.177
46.43,0.018,0.893,0.069
46.44,-0.176,1.025,0.077
46.45,-0.196,0.667,0.056
46.46,-0.448,1.24,-0.24
46.47,-0.034,0.995,-0.112
46.48,-0.095,0.828,0.186
46.49,-0.2,0.98,0.093
46.5,-0.413,0.769,-0.173
46.51,-0.148,1.343,-0.1
46.52,0.006,0.759,0.088
46.53,-0.184,0.973,0.169
46.54,-0.228,0.827,-0.14
46.55,-0.312,1.078,-0.155
46.56,-0.038,1.197,0.14
46.57,-0.183,0.656,0.129
46.58,-0.32,1.064,0.009
46.59,-0.341,0.933,-0.223
46.6,-0.178,1.16,-0.008
46.61,-0.115,0.83,0.246
46.62,-0.235,0.902,0.071
46.63,-0.427,0.996,-0.177
46.64,-0.117,1.024,-0.103
46.65,-0.109,1.036,0.046
46.66,-0.066,0.684,0.178
46.67,-0.431,1.127,-0.125
46.68,-0.253,0.836,-0.177
46.69,-0.003,1.271,0.057
46.7,-0.156,0.745,0.059
46.71,-0.199,0.822,0.048
46.72,-0.391,1.247,-0.159
46.73,-0.165,0.884,0.059
46.74,-0.161,1.154,0.155
46.75,-0.169,0.609,0.037
46.76,-0.484,1.228,-0.182
46.77,-0.082,0.877,-0.092
46.78,-0.085,1.125,0.121
46.79,-0.138,0.79,0.106
46.8,-0.371,0.924,-0.195
46.81,-0.201,1.132,-0.095
46.82,0.027,0.91,0.137
46.83,-0.207,1.026,0.141
46.84,-0.229,0.682,-0.055
46.85,-0.328,1.327,-0.209
46.86,-0.098,0.928,0.16
46.87,-0.199,1.011,0.163
46.88,-0.152,0.771,-0.014
46.89,-0.392,1.095,-0.183
46.9,-0.154,1.132,0.002
46.91,-0.087,0.747,0.167
46.92,-0.205,1.088,0.112
46.93,-0.304,0.748,-0.221
46.94,-0.236,1.251,-0.096
46.95,0.022,0.825,0.079
46.96,-0.153,0.885,0.13
46.97,-0.28,0.969,-0.116
46.98,-0.248,0.96,-0.186
46.99,-0.098,1.268,0.137
47.0,-0.143,0.597,0.143
47.01,-0.271,1.052,-0.003
47.02,-0.392,0.96,-0.168
47.03,-0.097,1.113,-0.025
47.04,-0.126,0.934,0.147
47.05,-0.117,0.811,0.078
47.06,-0.365,1.126,-0.234
47.07,-0.142,0.912,-0.023
47.08,-0.158,1.151,0.17
47.09,-0.222,0.654,0.141
47.1,-0.306,1.066,-0.131
47.11,-0.244,0.975,-0.181
47.12,-0.029,1.121,0.163
47.13,-0.157,0.906,0.133
47.14,-0.29,0.714,0.016
47.15,-0.368,1.316,-0.214
47.16,-0.082,0.856,0.018
47.17,-0.155,1.119,0.208
47.18,-0.187,0.708,0.052
47.19,-0.491,1.093,-0.18
47.2,-0.078,1.113,-0.081
47.21,-0.093,0.915,0.099
47.22,-0.229,1.013,0.148
47.23,-0.279,0.714,-0.151
47.24,-0.371,1.281,-0.104
47.25,0.135,0.924,0.119
47.26,-0.246,0.948,0.109
47.27,-0.258,0.757,-0.026
47.28,-0.335,1.106,-0.227
47.29,-0.164,1.122,0.055
47.3,-0.038,0.8,0.202
47.31,-0.271,0.993,0.005
47.32,-0.397,0.837,-0.179
47.33,-0.134,1.281,-0.022
47.34,-0.182,0.687,0.166
47.35,-0.097,0.921,0.117
47.36,-0.328,0.963,-0.24
47.37,-0.206,1.008,-0.061
47.38,-0.098,1.134,0.117
47.39,-0.183,0.631,0.182
47.4,-0.322,1.123,-0.063
47.41,-0.264,0.862,-0.228
47.42,-0.099,1.233,0.119
47.43,-0.159,0.784,0.155
47.44,-0.22,0.833,0.053
47.45,-0.381,1.211,-0.254
47.46,-0.082,0.79,-0.031
47.47,-0.159,1.186,0.156
47.48,-0.142,0.645,0.062
47.49,-0.439,1.105,-0.18
47.5,-0.074,0.987,-0.142
47.51,-0.077,1.049,0.099
47.52,-0.142,0.865,0.141
47.53,-0.267,0.809,-0.1
47.54,-0.285,1.205,-0.207
47.55,0.001,0.942,0.149
47.56,-0.24,1.072,0.14
47.57,-0.176,0.632,0.011
47.58,-0.401,1.289,-0.222
47.59,-0.098,0.821,0.025
47.6,-0.123,1.114,0.206
47.61,-0.164,0.74,0.053
47.62,-0.518,0.952,-0.184
47.63,0.004,1.243,-0.131
47.64,-0.132,0.719,0.104
47.65,-0.196,1.084,0.183
47.66,-0.249,0.71,-0.169
47.67,-0.282,1.208,-0.148
47.68,0.022,0.985,0.151
47.69,-0.18,0.851,0.129
47.7,-0.238,0.898,-0.037
47.71,-0.316,1.062,-0.196
47.72,-0.113,1.198,-0.016
47.73,-0.052,0.704,0.164
47.74,-0.308,1.022,0.013
47.75,-0.379,0.841,-0.123
47.76,-0.161,1.265,-0.024
47.77,-0.199,0.805,0.19
47.78,-0.098,0.862,0.127
47.79,-0.367,1.101,-0.227
47.8,-0.21,0.864,-0.079
47.81,-0.005,1.258,0.12
47.82,-0.181,0.655,0.12
47.83,-0.268,1.043,-0.047
47.84,-0.365,0.931,-0.207
47.85,-0.122,1.118,0.165
47.86,-0.129,0.932,0.111
47.87,-0.178,0.695,-0.012
47.88,-0.43,1.292,-0.173
47.89,-0.09,0.843,-0.043
47.9,-0.203,1.074,0.152
47.91,-0.08,0.758,0.103
47.92,-0.492,1.051,-0.193
47.93,-0.146,1.05,-0.075
47.94,-0.052,0.978,0.14
47.95,-0.228,0.942,0.144
47.96,-0.282,0.708,-0.052
47.97,-0.334,1.323,-0.209
47.98,-0.01,0.916,0.129
47.99,-0.209,1.031,0.164
48.0,-0.251,0.707,0.009
48.01,-0.346,1.134,-0.199
48.02,-0.128,1.096,0.003
48.03,-0.113,0.79,0.213
48.04,-0.181,1.074,0.099
48.05,-0.385,0.752,-0.236
48.06,-0.195,1.267,-0.015
48.07,-0.012,0.854,0.117
48.08,-0.183,0.919,0.12
48.09,-0.263,0.891,-0.146
48.1,-0.281,0.998,-0.175
48.11,-0.105,1.234,0.162
48.12,-0.084,0.658,0.15
48.13,-0.337,1.058,-0.024
48.14,-0.325,0.942,-0.185
48.15,-0.106,1.175,-0.029
48.16,-0.085,0.8,0.183
48.17,-0.185,0.828,0.052
48.18,-0.422,1.079,-0.246
48.19,-0.062,0.969,-0.075
48.2,-0.086,1.09,0.115
48.21,-0.19,0.673,0.2
48.22,-0.44,1.15,-0.104
48.23,-0.298,0.945,-0.147
48.24,0.083,1.135,0.086
48.25,-0.184,0.826,0.123
48.26,-0.27,0.75,-0.036
48.27,-0.32,1.253,-0.24
48.28,-0.052,0.906,0.091
48.29,-0.187,1.093,0.15
48.3,-0.154,0.622,0.011
48.31,-0.505,1.281,-0.182
48.32,-0.103,0.977,-0.028
48.33,-0.189,0.948,0.195
48.34,-0.136,0.965,0.135
48.35,-0.37,0.761,-0.164
48.36,-0.251,1.351,-0.091
48.37,0.004,0.789,0.131
48.38,-0.286,1.041,0.157
