t,ax,ay,az
0.0,-0.403,0.267,-0.162
0.01,-0.12,2.0,0.26
0.02,-0.213,0.706,0.112
0.03,-0.101,0.853,0.032
0.04,-0.459,0.53,-0.197
0.05,-0.174,1.607,0.206
0.06,-0.283,1.139,0.075
0.07,0.021,0.483,-0.032
0.08,-0.494,0.951,-0.158
0.09,0.0,1.381,0.133
0.1,-0.3,1.267,0.071
0.11,0.038,0.574,-0.028
0.12,-0.438,0.736,-0.176
0.13,0.042,1.715,0.163
0.14,-0.087,0.84,0.01
0.15,-0.061,0.932,-0.037
0.16,-0.392,0.282,-0.22
0.17,-0.164,1.701,0.121
0.18,-0.208,0.809,0.057
0.19,-0.072,0.902,-0.088
0.2,-0.308,0.465,-0.176
0.21,-0.073,1.464,0.147
0.22,-0.234,1.113,0.095
0.23,0.005,0.585,-0.125
0.24,-0.464,0.922,-0.157
0.25,0.041,1.317,0.195
0.26,-0.267,1.307,0.099
0.27,0.023,0.481,-0.086
0.28,-0.508,0.771,-0.218
0.29,-0.02,1.209,0.123
0.3,-0.226,1.053,0.034
0.31,-0.173,0.855,-0.084
0.32,-0.311,0.319,-0.149
0.33,-0.094,1.455,0.135
0.34,-0.161,0.759,0.073
0.35,-0.187,1.082,-0.152
0.36,-0.38,0.41,-0.193
0.37,-0.042,1.37,0.188
0.38,-0.208,1.234,0.026
0.39,0.037,0.502,-0.153
0.4,-0.482,0.927,-0.173
0.41,0.13,0.936,0.189
0.42,-0.308,1.418,-0.015
0.43,0.004,0.457,-0.113
0.44,-0.467,0.861,-0.185
0.45,0.058,1.087,0.121
0.46,-0.219,1.006,0.024
0.47,-0.163,1.005,-0.131
0.48,-0.436,0.348,-0.128
0.49,-0.076,1.463,0.202
0.5,-0.137,0.877,0.056
0.51,-0.193,0.94,-0.138
0.52,-0.481,0.502,-0.07
0.53,-0.107,1.185,0.171
0.54,-0.307,1.065,-0.01
0.55,-0.092,0.655,-0.128
0.56,-0.508,0.965,-0.11
0.57,0.058,0.797,0.174
0.58,-0.263,1.296,0.101
0.59,-0.25,0.502,-0.148
0.6,-0.441,0.905,-0.116
0.61,-0.021,1.025,0.234
0.62,-0.207,1.239,0.048
0.63,-0.14,0.821,-0.112
0.64,-0.428,0.452,-0.084
0.65,-0.547,0.844,-0.197
0.66,0.053,1.507,0.071
0.67,-0.111,1.22,0.144
0.68,0.115,0.46,-0.009
0.69,-0.447,0.769,-0.209
0.7,0.002,1.883,-0.007
0.71,-0.048,0.795,0.089
0.72,0.05,0.938,-0.025
0.73,-0.412,0.3,-0.218
0.74,-0.19,2.0,0.134
0.75,-0.201,0.553,0.152
0.76,-0.042,0.973,0.04
0.77,-0.552,0.474,-0.183
0.78,-0.105,1.805,0.116
0.79,-0.148,0.982,0.098
0.8,0.132,0.515,-0.055
0.81,-0.498,0.889,-0.197
0.82,0.05,1.632,0.066
0.83,-0.192,1.172,0.07
0.84,0.188,0.557,-0.015
0.85,-0.543,0.858,-0.212
0.86,0.051,1.832,0.118
0.87,-0.22,0.776,0.099
0.88,0.072,0.895,-0.005
0.89,-0.518,0.361,-0.142
0.9,-0.155,1.96,0.155
0.91,-0.118,0.674,0.077
0.92,0.02,0.983,-0.02
0.93,-0.447,0.38,-0.194
0.94,-0.034,1.868,0.158
0.95,-0.153,0.958,0.058
0.96,0.068,0.551,-0.012
0.97,-0.471,0.929,-0.217
0.98,0.014,1.526,0.15
0.99,-0.215,1.179,0.065
1.0,0.067,0.5,-0.009
1.01,-0.454,0.806,-0.166
1.02,-0.104,1.579,0.122
1.03,-0.25,0.902,0.125
1.04,-0.027,0.908,-0.002
1.05,-0.435,0.287,-0.129
1.06,-0.108,1.896,0.208
1.07,-0.15,0.705,0.085
1.08,-0.063,0.969,-0.017
1.09,-0.468,0.356,-0.212
1.1,-0.025,1.786,0.197
1.11,-0.209,0.915,0.024
1.12,-0.012,0.534,-0.05
1.13,-0.472,0.899,-0.22
1.14,-0.017,1.176,0.072
1.15,-0.348,1.332,0.084
1.16,0.052,0.438,-0.053
1.17,-0.412,0.785,-0.105
1.18,-0.005,1.451,0.075
1.19,-0.284,1.013,0.219
1.2,-0.074,0.936,-0.092
1.21,-0.491,0.308,-0.122
1.22,0.031,1.917,0.222
1.23,-0.212,0.753,0.095
1.24,-0.12,0.899,-0.049
1.25,-0.405,0.366,-0.198
1.26,-0.107,1.536,0.156
1.27,-0.313,1.085,0.115
1.28,0.001,0.618,-0.038
1.29,-0.392,0.794,-0.132
1.3,0.01,1.221,0.192
1.31,-0.338,1.459,0.121
1.32,-0.049,0.529,-0.112
1.33,-0.467,0.873,-0.132
1.34,0.103,1.488,0.194
1.35,-0.241,1.159,0.111
1.36,-0.083,0.701,-0.1
1.37,-0.418,0.422,-0.145
1.38,-0.167,1.528,0.156
1.39,-0.281,0.963,0.006
1.4,-0.233,1.009,-0.113
1.41,-0.293,0.316,-0.079
1.42,-0.06,1.282,0.145
1.43,-0.156,0.785,-0.0
1.44,-0.321,0.978,-0.135
1.45,-0.352,0.553,-0.132
1.46,-0.086,1.088,0.227
1.47,-0.297,1.408,-0.016
1.48,-0.025,0.4,-0.156
1.49,-0.387,1.48,-0.072
1.5,0.134,0.719,0.249
1.51,-0.395,1.191,0.013
1.52,-0.317,0.62,-0.133
1.53,-0.325,1.067,-0.061
1.54,-0.081,1.013,0.176
1.55,-0.111,0.708,0.021
1.56,-0.473,0.978,-0.179
1.57,-0.283,0.461,-0.018
1.58,-0.153,1.222,0.169
1.59,-0.204,0.902,0.03
1.6,-0.307,0.768,-0.115
1.61,-0.257,1.427,-0.079
1.62,0.056,0.902,0.201
1.63,-0.297,0.948,-0.006
1.64,-0.339,0.519,-0.156
1.65,-0.354,1.798,-0.048
1.66,-0.015,0.661,0.219
1.67,-0.221,1.09,0.026
1.68,-0.353,0.464,-0.217
1.69,-0.387,1.263,-0.022
1.7,-0.114,0.873,0.185
1.71,-0.157,0.836,-0.001
1.72,-0.358,0.794,-0.149
1.73,-0.189,1.434,-0.011
1.74,-0.113,1.168,0.264
1.75,-0.085,0.492,0.024
1.76,-0.481,0.947,-0.186
1.77,-0.239,1.515,-0.023
1.78,-0.089,0.81,0.19
1.79,-0.122,0.888,0.01
1.8,-0.417,0.421,-0.272
1.81,-0.329,1.631,0.076
1.82,-0.085,0.549,0.154
1.83,-0.234,1.22,0.045
1.84,-0.253,0.34,-0.178
1.85,-0.237,1.836,0.038
1.86,0.026,0.861,0.204
1.87,-0.045,0.602,0.029
1.88,-0.491,0.846,-0.166
1.89,-0.236,1.478,0.031
1.9,-0.23,1.134,0.183
1.91,-0.046,0.497,0.054
1.92,-0.591,0.863,-0.24
1.93,-0.147,1.612,0.028
1.94,-0.285,0.816,0.108
1.95,-0.142,0.851,0.067
1.96,-0.391,0.398,-0.181
1.97,-0.124,2.0,0.048
1.98,0.071,0.744,0.146
1.99,-0.105,0.966,0.031
2.0,-0.324,0.292,-0.25
2.01,-0.205,2.0,-0.005
2.02,-0.033,0.882,0.109
2.03,-0.076,0.723,0.044
2.04,-0.453,0.787,-0.253
2.05,-0.228,1.636,0.106
2.06,-0.267,0.975,0.055
2.07,0.051,0.53,0.08
2.08,-0.48,0.865,-0.245
2.09,-0.038,1.52,0.036
2.1,-0.012,1.112,0.12
2.11,-0.045,0.66,0.001
2.12,-0.339,0.413,-0.179
2.13,-0.216,2.0,0.081
2.14,-0.014,0.613,0.126
2.15,-0.05,1.115,-0.001
2.16,-0.482,0.257,-0.189
2.17,-0.167,2.0,0.133
2.18,-0.341,0.708,0.123
2.19,-0.082,0.699,0.023
2.2,-0.382,0.433,-0.196
2.21,-0.136,1.71,0.176
2.22,-0.196,1.128,0.1
2.23,0.033,0.483,-0.038
2.24,-0.469,0.897,-0.138
2.25,-0.008,1.464,0.179
2.26,-0.256,1.253,0.056
2.27,0.075,0.578,-0.023
2.28,-0.556,0.786,-0.193
2.29,0.054,1.727,0.159
2.3,-0.179,0.859,0.038
2.31,-0.051,0.897,-0.035
2.32,-0.394,0.312,-0.155
2.33,-0.25,1.755,0.099
2.34,-0.225,0.777,0.133
2.35,-0.139,0.896,-0.05
2.36,-0.282,0.389,-0.125
2.37,-0.144,1.579,0.093
2.38,-0.204,1.068,0.079
2.39,-0.014,0.574,-0.108
2.4,-0.452,0.92,-0.164
2.41,-0.059,1.27,0.194
2.42,-0.282,1.36,0.09
2.43,0.058,0.387,-0.05
2.44,-0.462,0.808,-0.15
2.45,-0.029,1.094,0.098
2.46,-0.198,0.994,-0.008
2.47,-0.11,0.873,-0.153
2.48,-0.364,0.375,-0.107
2.49,-0.056,1.392,0.195
2.5,-0.163,0.659,0.095
2.51,-0.262,1.081,-0.175
2.52,-0.339,0.432,-0.155
2.53,-0.111,1.26,0.197
2.54,-0.213,1.197,0.003
2.55,-0.06,0.553,-0.146
2.56,-0.43,0.887,-0.158
2.57,0.034,0.825,0.17
2.58,-0.312,1.397,0.019
2.59,-0.094,0.513,-0.164
2.6,-0.395,0.851,-0.121
2.61,0.016,1.01,0.169
2.62,-0.121,1.093,0.006
2.63,-0.224,0.905,-0.205
2.64,-0.365,0.429,-0.09
2.65,-0.093,1.338,0.232
2.66,-0.133,0.833,0.015
2.67,-0.253,0.937,-0.083
2.68,-0.361,0.617,-0.095
2.69,-0.083,1.139,0.174
2.7,-0.25,0.959,0.008
2.71,-0.265,0.687,-0.089
2.72,-0.469,0.98,-0.098
2.73,-0.01,0.799,0.251
2.74,-0.275,1.323,0.062
2.75,-0.252,0.454,-0.123
2.76,-0.42,1.021,-0.074
2.77,-0.03,0.874,0.173
2.78,-0.249,1.131,-0.011
2.79,-0.246,0.744,-0.124
2.8,-0.233,1.023,-0.069
2.81,-0.034,1.281,0.23
2.82,-0.153,0.501,0.034
2.83,-0.416,1.198,-0.093
2.84,-0.382,0.598,-0.064
2.85,-0.114,1.044,0.168
2.86,-0.181,0.968,-0.014
2.87,-0.352,0.681,-0.128
2.88,-0.331,1.126,-0.1
2.89,0.064,0.679,0.198
2.9,-0.231,1.331,-0.008
2.91,-0.268,0.362,-0.111
2.92,-0.285,1.813,-0.097
2.93,0.038,0.915,0.216
2.94,-0.182,0.826,0.052
2.95,-0.406,0.834,-0.172
2.96,-0.462,0.721,-0.042
2.97,-0.145,1.144,0.194
2.98,-0.099,0.742,0.059
2.99,-0.413,0.969,-0.126
3.0,-0.266,0.862,-0.038
3.01,-0.216,1.051,0.207
3.02,-0.123,0.598,-0.017
3.03,-0.343,0.78,-0.123
3.04,-0.229,1.63,-0.082
3.05,0.006,0.968,0.166
3.06,-0.097,0.847,-0.001
3.07,-0.385,0.422,-0.19
3.08,-0.375,1.729,-0.074
3.09,-0.074,0.534,0.082
3.1,-0.246,1.251,-0.004
3.11,-0.261,0.386,-0.225
3.12,-0.26,1.729,-0.026
3.13,-0.023,0.816,0.12
3.14,-0.116,0.645,0.003
3.15,-0.416,0.853,-0.175
3.16,-0.245,1.39,-0.06
3.17,-0.045,1.27,0.141
3.18,0.0,0.471,0.063
3.19,-0.546,0.948,-0.187
3.2,-0.285,1.551,0.035
3.21,-0.223,0.703,0.123
3.22,-0.194,1.005,-0.007
3.23,-0.261,0.368,-0.243
3.24,-0.351,1.949,0.022
3.25,0.0,0.553,0.112
3.26,-0.172,1.014,0.029
3.27,-0.354,0.332,-0.182
3.28,-0.29,1.906,0.025
3.29,-0.126,0.871,0.163
3.3,0.024,0.702,0.026
3.31,-0.543,0.821,-0.242
3.32,-0.178,1.496,0.057
3.33,-0.285,0.999,0.11
3.34,-0.024,0.529,0.077
3.35,-0.48,0.875,-0.209
3.36,-0.148,1.601,0.051
3.37,-0.078,1.012,0.198
3.38,-0.025,0.751,0.049
3.39,-0.359,0.42,-0.204
3.4,-0.235,2.0,0.095
3.41,-0.043,0.685,0.15
3.42,-0.113,1.03,0.058
3.43,-0.435,0.281,-0.233
3.44,-0.3,2.0,0.109
3.45,-0.209,0.667,0.054
3.46,-0.07,0.734,0.026
3.47,-0.467,0.709,-0.239
3.48,-0.044,1.592,0.067
3.49,-0.139,1.208,0.131
3.5,0.058,0.408,0.048
3.51,-0.492,0.898,-0.152
3.52,-0.108,1.682,0.1
3.53,-0.19,0.957,0.128
3.54,0.02,0.786,0.01
3.55,-0.56,0.472,-0.211
3.56,-0.241,1.991,0.207
3.57,-0.209,0.511,0.066
3.58,-0.146,0.996,0.036
3.59,-0.314,0.326,-0.187
3.6,-0.176,2.0,0.062
3.61,0.038,0.8,0.085
3.62,0.003,0.713,-0.026
3.63,-0.409,0.718,-0.182
3.64,-0.03,1.619,0.085
3.65,-0.189,1.177,0.065
3.66,0.16,0.465,-0.052
3.67,-0.57,0.941,-0.196
3.68,0.11,1.642,0.159
3.69,-0.222,1.097,0.004
3.7,0.049,0.691,-0.027
3.71,-0.385,0.48,-0.159
3.72,-0.105,1.963,0.119
3.73,-0.074,0.682,0.073
3.74,-0.107,0.961,0.006
3.75,-0.419,0.216,-0.14
3.76,-0.153,1.956,0.213
3.77,-0.232,0.803,0.074
3.78,-0.026,0.727,0.012
3.79,-0.471,0.714,-0.171
3.8,-0.014,1.556,0.188
3.81,-0.326,1.243,0.054
3.82,0.032,0.556,-0.066
3.83,-0.401,0.867,-0.161
3.84,0.003,1.339,0.188
3.85,-0.321,1.342,0.096
3.86,-0.031,0.462,-0.008
3.87,-0.477,0.768,-0.133
3.88,-0.048,1.378,0.178
3.89,-0.229,1.051,0.068
3.9,-0.146,0.884,-0.091
3.91,-0.285,0.312,-0.13
3.92,-0.156,1.511,0.197
3.93,-0.165,0.822,0.054
3.94,-0.187,0.985,-0.114
3.95,-0.327,0.424,-0.138
3.96,-0.128,1.292,0.248
3.97,-0.253,1.191,0.028
3.98,-0.095,0.6,-0.114
3.99,-0.498,0.897,-0.076
4.0,-0.032,0.965,0.263
4.01,-0.337,1.477,0.026
4.02,-0.037,0.449,-0.137
4.03,-0.464,0.841,-0.144
4.04,0.028,1.027,0.126
4.05,-0.215,1.031,-0.025
4.06,-0.19,0.934,-0.184
4.07,-0.303,0.385,-0.111
4.08,-0.104,1.391,0.215
4.09,-0.142,0.833,0.039
4.1,-0.319,1.055,-0.131
4.11,-0.368,0.4,-0.04
4.12,-0.153,1.18,0.245
4.13,-0.294,1.2,0.008
4.14,-0.183,0.551,-0.12
4.15,-0.368,1.178,-0.125
4.16,0.041,0.82,0.278
4.17,-0.282,1.207,0.052
4.18,-0.338,0.507,-0.103
4.19,-0.428,1.037,-0.02
4.2,-0.087,0.877,0.25
4.21,-0.236,1.044,0.09
4.22,-0.395,0.794,-0.131
4.23,-0.365,0.561,-0.057
4.24,-0.101,1.177,0.207
4.25,-0.161,0.762,0.034
4.26,-0.36,0.967,-0.102
4.27,-0.237,1.049,-0.099
4.28,-0.035,1.111,0.214
4.29,-0.138,0.799,0.018
4.3,-0.362,0.743,-0.166
4.31,-0.389,1.103,-0.092
4.32,0.004,0.699,0.172
4.33,-0.231,1.359,0.046
4.34,-0.229,0.379,-0.147
4.35,-0.436,1.316,-0.085
4.36,0.02,0.728,0.174
4.37,-0.242,1.124,0.027
4.38,-0.259,0.675,-0.145
4.39,-0.319,1.101,-0.093
4.4,-0.054,1.137,0.215
4.41,-0.129,0.611,0.032
4.42,-0.448,0.983,-0.08
4.43,-0.408,0.775,-0.007
4.44,-0.141,1.053,0.193
4.45,-0.18,0.932,-0.025
4.46,-0.227,0.615,-0.097
4.47,-0.364,1.581,-0.081
4.48,0.034,0.668,0.19
4.49,-0.295,1.182,0.014
4.5,-0.292,0.346,-0.143
4.51,-0.311,1.749,-0.084
4.52,0.031,0.751,0.17
4.53,-0.176,0.972,-0.018
4.54,-0.317,0.683,-0.2
4.55,-0.302,1.3,-0.016
4.56,-0.162,1.029,0.165
4.57,-0.108,0.576,0.013
4.58,-0.352,0.854,-0.155
4.59,-0.223,1.468,-0.068
4.6,-0.076,1.036,0.072
4.61,-0.136,0.686,-0.023
4.62,-0.304,0.672,-0.198
4.63,-0.218,1.649,0.048
4.64,-0.137,0.823,0.082
4.65,-0.042,0.898,0.028
4.66,-0.461,0.368,-0.213
4.67,-0.318,1.981,0.092
4.68,-0.162,0.497,0.087
4.69,-0.191,1.038,0.064
4.7,-0.426,0.285,-0.208
4.71,-0.215,1.963,0.079
4.72,-0.172,0.809,0.173
4.73,0.103,0.661,0.034
4.74,-0.569,0.81,-0.214
4.75,0.023,1.539,0.052
4.76,-0.209,1.182,0.167
4.77,0.134,0.506,0.042
4.78,-0.545,0.903,-0.226
4.79,-0.027,1.744,0.07
4.8,-0.2,0.836,0.083
4.81,0.045,0.802,-0.012
4.82,-0.484,0.408,-0.246
4.83,-0.057,2.0,0.064
4.84,0.026,0.66,0.066
4.85,-0.067,0.936,-0.027
4.86,-0.375,0.333,-0.229
4.87,-0.15,1.985,0.04
4.88,-0.096,0.826,0.084
4.89,0.0,0.654,-0.036
4.9,-0.473,0.831,-0.226
4.91,-0.016,1.621,0.113
4.92,-0.252,1.178,0.141
4.93,0.104,0.428,-0.021
4.94,-0.539,0.947,-0.16
4.95,0.012,1.637,0.09
4.96,-0.117,0.974,0.056
4.97,0.067,0.805,-0.066
4.98,-0.534,0.453,-0.153
4.99,-0.043,2.0,0.125
5.0,-0.13,0.657,0.07
5.01,-0.014,1.017,-0.022
5.02,-0.443,0.309,-0.182
5.03,-0.123,1.9,0.156
5.04,-0.214,0.823,0.079
5.05,-0.014,0.705,0.028
5.06,-0.482,0.796,-0.173
5.07,0.002,1.492,0.201
5.08,-0.326,1.271,0.056
5.09,0.06,0.451,0.019
5.1,-0.451,0.93,-0.178
5.11,0.014,1.538,0.174
5.12,-0.223,1.088,0.05
5.13,0.01,0.746,-0.049
5.14,-0.386,0.458,-0.133
5.15,-0.028,1.889,0.173
5.16,-0.118,0.729,0.033
5.17,-0.037,0.922,-0.076
5.18,-0.394,0.304,-0.156
5.19,-0.169,1.695,0.149
5.2,-0.299,0.832,0.119
5.21,0.004,0.791,-0.105
5.22,-0.37,0.695,-0.192
5.23,-0.024,1.348,0.172
5.24,-0.256,1.307,0.08
5.25,-0.011,0.396,-0.083
5.26,-0.508,0.934,-0.171
5.27,0.003,1.274,0.184
5.28,-0.344,1.303,0.082
5.29,-0.025,0.653,-0.048
5.3,-0.385,0.523,-0.162
5.31,-0.082,1.514,0.17
5.32,-0.179,0.857,0.059
5.33,-0.154,1.047,-0.126
5.34,-0.349,0.226,-0.171
5.35,-0.087,1.642,0.189
5.36,-0.185,0.99,0.082
5.37,-0.165,0.746,-0.081
5.38,-0.402,0.672,-0.138
5.39,-0.068,1.166,0.232
5.4,-0.326,1.377,0.034
5.41,-0.025,0.484,-0.094
5.42,-0.392,0.936,-0.123
5.43,-0.002,0.775,0.232
5.44,-0.261,1.392,-0.005
5.45,-0.185,0.523,-0.146
5.46,-0.344,0.897,-0.094
5.47,-0.034,0.957,0.209
5.48,-0.188,1.075,0.008
5.49,-0.257,0.861,-0.149
5.5,-0.376,0.468,-0.073
5.51,-0.083,1.292,0.203
5.52,-0.239,0.756,0.056
5.53,-0.363,0.971,-0.09
5.54,-0.38,0.673,-0.062
5.55,-0.033,1.081,0.2
5.56,-0.243,1.0,-0.007
5.57,-0.242,0.59,-0.141
5.58,-0.451,1.181,-0.04
5.59,0.032,0.748,0.227
5.6,-0.278,1.334,0.025
5.61,-0.238,0.426,-0.169
5.62,-0.305,1.436,-0.081
5.63,0.052,0.846,0.188
5.64,-0.218,0.937,0.019
5.65,-0.302,0.812,-0.164
5.66,-0.316,0.873,-0.059
5.67,-0.086,1.156,0.203
5.68,-0.101,0.696,0.074
5.69,-0.448,0.951,-0.15
5.7,-0.306,0.928,-0.024
5.71,-0.121,0.974,0.212
5.72,-0.227,0.955,0.025
5.73,-0.263,0.548,-0.128
5.74,-0.391,1.756,-0.097
5.75,0.144,0.699,0.159
5.76,-0.29,1.156,-0.047
5.77,-0.284,0.392,-0.162
5.78,-0.334,1.692,-0.085
5.79,-0.033,0.716,0.195
5.8,-0.191,0.943,0.003
5.81,-0.444,0.664,-0.178
5.82,-0.22,1.077,-0.031
5.83,-0.155,1.094,0.206
5.84,-0.127,0.639,0.033
5.85,-0.336,0.939,-0.172
5.86,-0.24,1.402,0.024
5.87,0.027,1.076,0.13
5.88,-0.112,0.677,0.012
5.89,-0.434,0.609,-0.191
5.9,-0.298,1.884,-0.014
5.91,-0.006,0.683,0.126
5.92,-0.214,1.078,0.03
5.93,-0.381,0.336,-0.201
5.94,-0.355,1.899,0.016
5.95,-0.097,0.611,0.172
5.96,-0.14,0.996,0.037
5.97,-0.392,0.652,-0.2
5.98,-0.209,1.533,0.026
5.99,-0.09,1.119,0.148
6.0,-0.002,0.446,0.072
6.01,-0.524,0.957,-0.202
6.02,-0.221,1.409,0.018
6.03,-0.16,1.017,0.118
6.04,-0.05,0.681,0.056
6.05,-0.476,0.622,-0.219
6.06,-0.308,1.802,0.075
6.07,-0.185,0.497,0.081
6.08,-0.204,1.049,0.017
6.09,-0.313,0.2,-0.194
6.1,-0.29,2.0,0.052
6.11,-0.012,0.762,0.123
6.12,-0.086,0.786,-0.008
6.13,-0.422,0.657,-0.21
6.14,-0.355,1.631,0.019
6.15,-0.246,0.888,0.114
6.16,-0.016,0.593,0.064
6.17,-0.545,0.889,-0.245
6.18,-0.257,1.422,0.06
6.19,-0.223,0.993,0.091
6.2,-0.114,0.634,0.048
6.21,-0.367,0.531,-0.172
6.22,-0.165,1.935,-0.022
6.23,0.083,0.878,0.149
6.24,0.021,0.829,0.012
6.25,-0.457,0.322,-0.194
6.26,-0.113,2.0,0.105
6.27,-0.141,0.563,0.07
6.28,-0.032,1.017,-0.012
6.29,-0.48,0.378,-0.217
6.3,-0.088,1.975,0.109
6.31,-0.149,0.812,0.074
6.32,0.035,0.643,-0.004
6.33,-0.518,0.802,-0.215
6.34,-0.056,1.523,0.108
6.35,-0.131,1.227,0.063
6.36,0.137,0.476,0.022
6.37,-0.51,0.971,-0.208
6.38,-0.02,1.618,0.149
6.39,-0.11,0.959,0.057
6.4,0.033,0.791,-0.053
6.41,-0.418,0.479,-0.224
6.42,-0.066,2.0,0.113
6.43,-0.114,0.564,0.052
6.44,-0.071,0.997,-0.039
6.45,-0.439,0.343,-0.203
6.46,-0.144,1.891,0.115
6.47,-0.151,0.872,0.093
6.48,-0.003,0.635,0.02
6.49,-0.551,0.767,-0.14
6.5,-0.014,1.488,0.115
6.51,-0.271,1.213,0.069
6.52,0.1,0.523,-0.006
6.53,-0.512,0.922,-0.204
6.54,0.046,1.677,0.157
6.55,-0.224,0.98,0.091
6.56,-0.029,0.726,-0.051
6.57,-0.492,0.489,-0.182
6.58,-0.095,1.863,0.153
6.59,-0.182,0.739,0.084
6.6,-0.063,0.96,0.006
6.61,-0.42,0.271,-0.136
6.62,-0.164,1.77,0.106
6.63,-0.214,0.905,0.125
6.64,-0.071,0.745,-0.057
6.65,-0.496,0.789,-0.164
6.66,0.054,1.504,0.237
6.67,-0.345,1.233,0.131
6.68,0.034,0.448,0.024
6.69,-0.53,0.967,-0.2
6.7,-0.049,1.409,0.128
6.71,-0.31,1.154,0.08
6.72,0.003,0.652,-0.043
6.73,-0.464,0.507,-0.141
6.74,-0.104,1.658,0.092
6.75,-0.207,0.726,0.116
6.76,-0.141,1.091,-0.052
6.77,-0.388,0.24,-0.154
6.78,-0.061,1.826,0.194
6.79,-0.173,0.897,0.101
6.8,-0.048,0.698,-0.076
6.81,-0.449,0.712,-0.195
6.82,-0.069,1.296,0.119
6.83,-0.337,1.335,0.126
6.84,0.004,0.39,-0.071
6.85,-0.413,0.948,-0.153
6.86,-0.109,1.283,0.162
6.87,-0.229,1.219,0.109
6.88,-0.139,0.687,-0.054
6.89,-0.439,0.521,-0.149
6.9,-0.089,1.694,0.145
6.91,-0.104,0.872,0.068
6.92,-0.168,0.926,-0.078
6.93,-0.311,0.281,-0.129
6.94,-0.264,1.524,0.161
6.95,-0.155,0.893,0.056
6.96,-0.159,0.791,-0.126
6.97,-0.26,0.644,-0.18
6.98,-0.049,1.231,0.146
6.99,-0.248,1.353,0.091
7.0,-0.038,0.455,-0.157
7.01,-0.403,0.932,-0.186
7.02,0.029,1.205,0.178
7.03,-0.26,1.374,0.06
7.04,-0.081,0.552,-0.064
7.05,-0.452,0.885,-0.124
7.06,-0.01,1.039,0.164
7.07,-0.233,1.038,0.053
7.08,-0.284,0.847,-0.169
7.09,-0.342,0.436,-0.129
7.1,-0.11,1.331,0.145
7.11,-0.181,0.755,0.052
7.12,-0.369,1.011,-0.114
7.13,-0.38,0.452,-0.117
7.14,-0.137,1.162,0.195
7.15,-0.196,1.21,-0.006
7.16,-0.174,0.566,-0.164
7.17,-0.408,0.956,-0.134
7.18,0.077,0.783,0.16
7.19,-0.271,1.378,0.024
7.2,-0.177,0.446,-0.143
7.21,-0.433,0.957,-0.114
7.22,-0.054,0.943,0.184
7.23,-0.232,1.1,0.033
7.24,-0.315,0.834,-0.151
7.25,-0.381,0.436,-0.063
7.26,-0.118,1.305,0.226
7.27,-0.083,0.891,0.045
7.28,-0.361,0.956,-0.131
7.29,-0.275,0.642,-0.038
7.3,-0.079,1.161,0.196
7.31,-0.165,0.915,0.027
7.32,-0.287,0.681,-0.145
7.33,-0.392,1.183,-0.117
7.34,0.037,0.802,0.205
7.35,-0.363,1.203,0.003
7.36,-0.179,0.417,-0.107
7.37,-0.453,1.101,-0.065
7.38,-0.076,0.78,0.184
7.39,-0.213,1.181,0.012
7.4,-0.317,0.705,-0.151
7.41,-0.274,0.924,-0.073
7.42,-0.104,1.189,0.245
7.43,-0.124,0.586,0.06
7.44,-0.467,1.073,-0.097
7.45,-0.359,0.665,-0.068
7.46,-0.175,1.083,0.207
7.47,-0.152,0.903,0.022
7.48,-0.349,0.662,-0.14
7.49,-0.305,1.191,-0.086
7.5,0.018,0.711,0.19
7.51,-0.209,1.319,0.034
7.52,-0.231,0.333,-0.119
7.53,-0.311,1.73,-0.101
7.54,0.107,0.849,0.166
7.55,-0.241,0.936,0.023
7.56,-0.366,0.752,-0.153
7.57,-0.435,0.74,-0.055
7.58,-0.071,1.148,0.157
7.59,-0.096,0.707,0.036
7.6,-0.416,0.954,-0.157
7.61,-0.282,0.682,-0.083
7.62,-0.056,1.075,0.18
7.63,-0.172,0.912,-0.019
7.64,-0.312,0.682,-0.091
7.65,-0.24,1.599,-0.124
7.66,0.072,0.844,0.203
7.67,-0.181,1.054,0.003
7.68,-0.359,0.464,-0.188
7.69,-0.385,1.25,-0.076
7.7,-0.068,0.753,0.208
7.71,-0.168,1.137,0.019
7.72,-0.336,0.617,-0.146
7.73,-0.316,0.943,-0.035
7.74,-0.104,1.092,0.202
7.75,-0.156,0.72,0.056
7.76,-0.382,0.964,-0.089
7.77,-0.261,1.0,-0.068
7.78,-0.015,1.148,0.211
7.79,-0.163,0.728,-0.029
7.8,-0.287,0.768,-0.163
7.81,-0.46,0.96,-0.085
7.82,0.006,0.814,0.149
7.83,-0.24,1.34,-0.001
7.84,-0.19,0.349,-0.159
7.85,-0.299,1.553,-0.13
7.86,0.065,0.618,0.187
7.87,-0.271,1.153,0.005
7.88,-0.307,0.388,-0.14
7.89,-0.375,1.833,-0.077
7.9,0.056,0.863,0.149
7.91,-0.125,0.697,0.015
7.92,-0.461,0.795,-0.233
7.93,-0.339,1.01,-0.049
7.94,-0.174,1.056,0.129
7.95,-0.154,0.675,0.031
7.96,-0.338,0.901,-0.139
7.97,-0.244,1.42,-0.071
7.98,-0.094,0.87,0.188
7.99,-0.117,0.907,0.005
8.0,-0.319,0.493,-0.163
8.01,-0.405,1.909,-0.045
8.02,0.057,0.625,0.115
8.03,-0.226,1.128,0.015
8.04,-0.335,0.389,-0.206
8.05,-0.363,1.751,-0.006
8.06,-0.082,0.749,0.191
8.07,-0.208,0.828,0.054
8.08,-0.385,0.775,-0.145
8.09,-0.261,1.415,-0.053
8.1,-0.093,1.067,0.12
8.11,-0.055,0.523,0.015
8.12,-0.412,0.934,-0.243
8.13,-0.23,1.428,-0.044
8.14,-0.104,0.927,0.114
8.15,-0.11,0.795,0.043
8.16,-0.314,0.521,-0.238
8.17,-0.404,1.903,0.024
8.18,-0.071,0.62,0.192
8.19,-0.259,1.102,0.092
8.2,-0.333,0.254,-0.193
8.21,-0.404,1.971,0.022
8.22,-0.062,0.712,0.145
8.23,-0.169,0.793,0.053
8.24,-0.443,0.705,-0.167
8.25,-0.26,1.568,-0.01
8.26,-0.18,1.039,0.165
8.27,-0.005,0.531,0.117
8.28,-0.485,0.872,-0.204
8.29,-0.225,1.424,0.069
8.3,-0.17,1.024,0.087
8.31,-0.133,0.71,0.068
8.32,-0.329,0.459,-0.202
8.33,-0.382,1.974,0.036
8.34,-0.073,0.588,0.075
8.35,-0.237,1.005,0.065
8.36,-0.3,0.254,-0.163
8.37,-0.423,1.96,0.021
8.38,-0.095,0.639,0.124
8.39,-0.131,0.843,0.024
8.4,-0.366,0.631,-0.227
8.41,-0.202,1.57,0.011
8.42,-0.198,1.082,0.163
8.43,-0.015,0.49,0.056
8.44,-0.494,0.872,-0.172
8.45,-0.193,1.497,0.059
8.46,-0.193,1.029,0.175
8.47,0.0,0.646,0.052
8.48,-0.4,0.639,-0.219
8.49,-0.244,1.858,0.044
8.5,-0.088,0.614,0.109
8.51,-0.106,1.068,0.039
8.52,-0.435,0.239,-0.225
8.53,-0.274,2.0,0.095
8.54,-0.118,0.635,0.1
8.55,-0.08,0.824,0.029
8.56,-0.384,0.598,-0.251
8.57,-0.082,1.61,0.072
8.58,-0.051,1.21,0.144
8.59,0.029,0.423,0.037
8.6,-0.47,0.945,-0.224
8.61,-0.113,1.567,0.087
8.62,-0.149,1.105,0.128
8.63,0.032,0.62,0.025
8.64,-0.479,0.648,-0.222
8.65,-0.132,1.987,0.1
8.66,-0.114,0.666,0.137
8.67,0.103,0.812,-0.03
8.68,-0.5,0.433,-0.178
8.69,-0.19,1.922,0.111
8.7,-0.184,0.634,0.132
8.71,-0.022,1.029,-0.031
8.72,-0.418,0.33,-0.161
8.73,-0.04,2.0,0.11
8.74,-0.286,0.839,0.137
8.75,0.056,0.635,-0.015
8.76,-0.586,0.813,-0.137
8.77,0.065,1.655,0.2
8.78,-0.374,1.152,0.105
8.79,0.176,0.422,-0.004
8.8,-0.678,0.902,-0.116
8.81,-0.013,1.604,0.15
8.82,-0.311,0.948,0.098
8.83,0.124,0.894,-0.025
8.84,-0.437,0.393,-0.218
8.85,-0.068,2.0,0.168
8.86,-0.173,0.636,0.098
8.87,-0.082,0.981,-0.036
8.88,-0.432,0.329,-0.213
8.89,-0.057,1.978,0.162
8.9,-0.196,0.823,0.036
8.91,0.055,0.626,-0.004
8.92,-0.507,0.84,-0.21
8.93,-0.02,1.438,0.177
8.94,-0.307,1.242,0.04
8.95,0.087,0.497,-0.01
8.96,-0.466,0.878,-0.172
8.97,0.069,1.642,0.127
8.98,-0.144,0.994,0.019
8.99,-0.351,0.351,-0.205
9.0,-0.35,1.818,-0.083
9.01,-0.0,0.728,0.114
9.02,-0.224,0.907,0.002
9.03,-0.316,0.748,-0.237
9.04,-0.246,1.488,-0.076
9.05,-0.045,1.045,0.149
9.06,-0.089,0.519,0.046
9.07,-0.423,0.975,-0.165
9.08,-0.238,1.424,-0.032
9.09,-0.085,1.067,0.116
9.1,-0.112,0.68,0.071
9.11,-0.449,0.592,-0.184
9.12,-0.427,1.909,0.019
9.13,-0.051,0.582,0.097
9.14,-0.243,1.076,0.067
9.15,-0.342,0.266,-0.181
9.16,-0.474,1.955,0.07
9.17,-0.067,0.662,0.124
9.18,-0.08,0.896,0.078
9.19,-0.417,0.629,-0.235
9.2,-0.25,1.589,0.05
9.21,-0.126,1.14,0.125
9.22,0.022,0.492,0.035
9.23,-0.425,0.951,-0.243
9.24,-0.297,1.417,0.05
9.25,-0.206,0.895,0.112
9.26,-0.102,0.741,0.008
9.27,-0.418,0.564,-0.227
9.28,-0.321,1.843,0.039
9.29,-0.139,0.555,0.103
9.3,-0.2,1.071,0.075
9.31,-0.263,0.248,-0.222
9.32,-0.224,2.0,0.067
9.33,0.083,0.85,0.202
9.34,-0.137,0.775,0.038
9.35,-0.443,0.623,-0.206
9.36,-0.24,1.681,0.083
9.37,-0.176,0.991,0.106
9.38,0.031,0.532,0.05
9.39,-0.578,0.892,-0.281
9.4,0.057,1.565,0.087
9.41,-0.263,1.124,0.086
9.42,0.144,0.458,0.016
9.43,-0.484,0.905,-0.219
9.44,-0.07,1.655,0.112
9.45,-0.194,0.877,0.127
9.46,0.073,0.927,0.025
9.47,-0.502,0.379,-0.183
9.48,-0.075,2.0,0.127
9.49,-0.146,0.604,0.083
9.5,-0.065,0.947,-0.051
9.51,-0.473,0.357,-0.185
9.52,-0.078,1.978,0.151
9.53,-0.156,0.814,0.103
9.54,0.019,0.542,-0.03
9.55,-0.522,0.884,-0.194
9.56,-0.083,1.465,0.108
9.57,-0.271,1.185,0.127
9.58,0.088,0.5,0.012
9.59,-0.554,0.895,-0.179
9.6,0.111,1.729,0.105
9.61,-0.237,0.935,0.061
9.62,0.104,0.794,-0.069
9.63,-0.552,0.455,-0.179
9.64,-0.085,1.962,0.163
9.65,-0.153,0.65,0.051
9.66,-0.022,1.02,-0.0
9.67,-0.436,0.267,-0.129
9.68,-0.086,1.939,0.181
9.69,-0.208,0.881,0.061
9.7,-0.008,0.713,-0.005
9.71,-0.503,0.808,-0.186
9.72,0.092,1.59,0.178
9.73,-0.289,1.172,0.046
9.74,0.12,0.448,-0.011
9.75,-0.552,0.969,-0.229
9.76,-0.044,1.359,0.118
9.77,-0.319,1.182,0.164
9.78,-0.11,0.654,0.004
9.79,-0.362,0.45,-0.106
9.8,-0.133,1.825,0.079
9.81,-0.102,0.724,0.12
9.82,-0.161,1.07,-0.094
9.83,-0.336,0.276,-0.131
9.84,-0.067,1.773,0.156
9.85,-0.235,0.933,0.098
9.86,-0.031,0.61,-0.039
9.87,-0.482,0.763,-0.21
9.88,-0.059,1.065,0.165
9.89,-0.424,1.274,0.053
9.9,0.008,0.422,-0.06
9.91,-0.45,0.924,-0.171
9.92,0.055,1.192,0.139
9.93,-0.267,1.206,0.079
9.94,-0.024,0.784,-0.143
9.95,-0.401,0.447,-0.135
9.96,-0.108,1.618,0.158
9.97,-0.143,0.895,0.055
9.98,-0.102,0.917,-0.117
9.99,-0.397,0.303,-0.182
10.0,-0.103,1.454,0.208
10.01,-0.301,0.929,0.004
10.02,-0.082,0.779,-0.077
10.03,-0.43,0.716,-0.128
10.04,-0.001,1.142,0.221
10.05,-0.357,1.384,0.101
10.06,0.002,0.501,-0.128
10.07,-0.465,0.951,-0.117
10.08,-0.082,1.14,0.249
10.09,-0.282,1.379,0.043
10.1,-0.115,0.667,-0.093
10.11,-0.411,0.537,-0.112
10.12,-0.141,1.296,0.141
10.13,-0.137,0.865,0.043
10.14,-0.294,0.978,-0.107
10.15,-0.379,0.316,-0.091
10.16,-0.087,1.312,0.175
10.17,-0.225,0.854,0.039
10.18,-0.164,0.866,-0.17
10.19,-0.457,0.739,-0.133
10.2,-0.046,1.107,0.182
10.21,-0.227,1.159,0.024
10.22,-0.211,0.522,-0.099
10.23,-0.365,1.443,-0.064
10.24,-0.051,0.725,0.243
10.25,-0.356,1.226,0.074
10.26,-0.311,0.481,-0.081
10.27,-0.489,1.076,-0.039
10.28,0.01,0.915,0.178
10.29,-0.187,0.902,0.031
10.3,-0.399,0.908,-0.143
10.31,-0.374,0.499,-0.018
10.32,-0.157,1.241,0.188
10.33,-0.119,0.847,0.055
10.34,-0.37,0.88,-0.091
10.35,-0.27,1.16,-0.043
10.36,-0.083,1.017,0.246
10.37,-0.187,0.887,-0.009
10.38,-0.388,0.608,-0.16
10.39,-0.301,1.455,-0.071
10.4,-0.045,0.686,0.162
10.41,-0.197,1.187,0.021
10.42,-0.25,0.409,-0.161
10.43,-0.343,1.345,-0.113
10.44,-0.036,0.757,0.145
10.45,-0.236,0.984,-0.014
10.46,-0.222,0.625,-0.114
10.47,-0.345,1.071,-0.108
10.48,0.044,1.19,0.11
10.49,-0.137,0.632,-0.008
10.5,-0.349,0.979,-0.189
10.51,-0.328,0.752,-0.03
10.52,-0.073,1.022,0.14
10.53,-0.185,1.034,-0.003
10.54,-0.267,0.561,-0.144
10.55,-0.37,1.471,-0.087
10.56,0.033,0.642,0.176
10.57,-0.333,1.265,0.008
10.58,-0.217,0.391,-0.151
10.59,-0.321,1.793,-0.099
10.6,0.052,0.795,0.164
10.61,-0.151,0.879,0.047
10.62,-0.445,0.757,-0.192
10.63,-0.245,1.242,-0.047
10.64,-0.148,1.062,0.138
10.65,-0.079,0.631,0.012
10.66,-0.402,0.948,-0.202
10.67,-0.15,1.318,-0.09
10.68,-0.104,0.919,0.142
10.69,-0.075,0.858,-0.036
10.7,-0.339,0.62,-0.202
10.71,-0.278,1.815,-0.005
10.72,-0.005,0.702,0.153
10.73,-0.183,1.022,0.044
10.74,-0.293,0.327,-0.207
10.75,-0.419,1.93,-0.038
10.76,-0.085,0.694,0.135
10.77,-0.225,0.895,0.076
10.78,-0.325,0.577,-0.197
10.79,-0.374,1.563,0.039
10.8,-0.127,1.045,0.127
10.81,-0.072,0.502,0.048
10.82,-0.442,0.905,-0.21
10.83,-0.236,1.468,0.027
10.84,-0.165,0.999,0.151
10.85,-0.099,0.696,0.071
10.86,-0.417,0.603,-0.2
10.87,-0.322,1.859,0.009
10.88,-0.115,0.577,0.094
10.89,-0.171,1.068,0.069
10.9,-0.345,0.219,-0.167
10.91,-0.383,1.98,0.072
10.92,-0.1,0.676,0.138
10.93,-0.135,0.822,0.077
10.94,-0.52,0.628,-0.18
10.95,-0.189,1.598,0.077
10.96,-0.145,1.031,0.157
10.97,0.074,0.522,0.043
10.98,-0.572,0.946,-0.2
10.99,-0.014,1.454,0.108
11.0,-0.208,1.164,0.132
11.01,0.175,0.454,-0.006
11.02,-0.554,0.888,-0.236
11.03,0.048,1.814,0.028
11.04,-0.1,0.793,0.057
11.05,0.145,0.882,-0.015
11.06,-0.552,0.422,-0.227
11.07,-0.102,2.0,0.145
11.08,-0.13,0.64,0.138
11.09,0.0,0.953,0.025
11.1,-0.455,0.389,-0.174
11.11,-0.062,2.0,0.083
11.12,-0.156,0.839,0.071
11.13,0.1,0.643,-0.03
11.14,-0.488,0.835,-0.187
11.15,0.029,1.636,0.122
11.16,-0.232,1.179,0.093
11.17,0.131,0.44,-0.009
11.18,-0.536,0.929,-0.167
11.19,-0.018,1.742,0.149
11.2,-0.162,0.858,0.103
11.21,0.104,0.854,-0.062
11.22,-0.434,0.441,-0.178
11.23,-0.11,2.0,0.097
11.24,-0.085,0.599,0.111
11.25,0.013,1.027,-0.063
11.26,-0.41,0.355,-0.189
11.27,-0.049,1.99,0.093
11.28,-0.152,0.817,0.033
11.29,0.092,0.666,-0.084
11.3,-0.504,0.824,-0.221
11.31,0.056,1.558,0.119
11.32,-0.27,1.126,0.101
11.33,0.111,0.48,-0.017
11.34,-0.597,0.958,-0.216
11.35,-0.01,1.561,0.142
11.36,-0.219,0.931,0.046
11.37,0.086,0.826,-0.031
11.38,-0.491,0.48,-0.168
11.39,-0.119,1.858,0.126
11.4,-0.159,0.664,0.078
11.41,-0.122,0.991,-0.039
11.42,-0.408,0.321,-0.208
11.43,-0.038,1.9,0.131
11.44,-0.197,0.779,0.063
11.45,0.013,0.673,-0.006
11.46,-0.512,0.837,-0.183
11.47,-0.103,1.389,0.207
11.48,-0.401,1.302,0.121
11.49,0.063,0.415,0.019
11.5,-0.433,0.985,-0.185
11.51,0.008,1.498,0.155
11.52,-0.233,1.054,0.067
11.53,-0.113,0.771,-0.029
11.54,-0.425,0.482,-0.127
11.55,-0.074,1.836,0.172
11.56,-0.07,0.686,0.074
11.57,-0.151,0.953,-0.036
11.58,-0.446,0.305,-0.165
11.59,-0.165,1.571,0.142
11.6,-0.304,0.995,0.09
11.61,-0.122,0.626,-0.066
11.62,-0.333,0.776,-0.14
11.63,-0.065,1.333,0.149
11.64,-0.284,1.176,0.091
11.65,0.084,0.567,-0.152
11.66,-0.591,0.896,-0.109
11.67,0.129,1.385,0.215
11.68,-0.29,1.271,0.108
11.69,-0.038,0.608,-0.069
11.7,-0.395,0.542,-0.165
11.71,-0.181,1.463,0.153
11.72,-0.221,0.799,0.068
11.73,-0.132,1.056,-0.132
11.74,-0.304,0.245,-0.114
11.75,-0.086,1.561,0.189
11.76,-0.148,0.914,0.111
11.77,-0.207,0.8,-0.154
11.78,-0.397,0.721,-0.197
11.79,0.042,1.241,0.157
11.8,-0.334,1.425,0.09
11.81,0.037,0.308,-0.14
11.82,-0.462,1.219,-0.1
11.83,0.07,0.81,0.192
11.84,-0.323,1.244,0.046
11.85,-0.209,0.577,-0.116
11.86,-0.457,0.901,-0.044
11.87,0.081,0.976,0.169
11.88,-0.176,0.898,0.026
11.89,-0.28,0.934,-0.147
11.9,-0.363,0.457,-0.171
11.91,-0.093,1.244,0.192
11.92,-0.179,0.851,0.04
11.93,-0.353,0.887,-0.08
11.94,-0.363,0.794,-0.04
11.95,-0.002,1.044,0.229
11.96,-0.154,1.037,0.052
11.97,-0.321,0.657,-0.145
11.98,-0.45,1.288,-0.091
11.99,-0.006,0.751,0.225
12.0,-0.185,1.296,0.034
12.01,-0.288,0.426,-0.107
12.02,-0.378,1.183,-0.06
12.03,-0.04,0.855,0.194
12.04,-0.203,0.959,0.008
12.05,-0.27,0.778,-0.122
12.06,-0.271,1.097,-0.116
12.07,-0.056,1.239,0.171
12.08,-0.051,0.582,0.012
12.09,-0.476,1.055,-0.129
12.1,-0.282,0.882,-0.019
12.11,-0.174,0.917,0.201
12.12,-0.172,0.982,0.077
12.13,-0.284,0.551,-0.168
12.14,-0.408,1.244,-0.107
12.15,0.03,0.643,0.121
12.16,-0.278,1.371,0.028
12.17,-0.281,0.282,-0.118
12.18,-0.233,1.711,-0.121
12.19,0.079,0.881,0.177
12.2,-0.131,0.844,0.021
12.21,-0.428,0.922,-0.199
12.22,-0.246,0.98,-0.059
12.23,-0.16,1.098,0.205
12.24,-0.115,0.643,0.071
12.25,-0.438,0.978,-0.211
12.26,-0.302,0.946,-0.073
12.27,-0.073,0.942,0.142
12.28,-0.176,1.021,0.018
12.29,-0.329,0.517,-0.123
12.3,-0.238,1.812,-0.136
12.31,0.097,0.8,0.172
12.32,-0.133,1.052,0.047
12.33,-0.311,0.474,-0.198
12.34,-0.427,1.537,-0.045
12.35,-0.091,0.738,0.163
12.36,-0.216,0.949,0.083
12.37,-0.333,0.739,-0.181
12.38,-0.315,1.162,-0.102
12.39,-0.016,1.067,0.137
12.4,-0.085,0.679,-0.028
12.41,-0.305,0.9,-0.157
12.42,-0.191,1.405,-0.144
12.43,0.012,1.128,0.171
12.44,-0.083,0.702,0.045
12.45,-0.432,0.687,-0.162
12.46,-0.362,1.534,-0.043
12.47,-0.119,0.642,0.182
12.48,-0.198,1.217,0.034
12.49,-0.235,0.344,-0.165
12.5,-0.43,1.583,-0.089
12.51,-0.015,0.71,0.187
12.52,-0.232,1.038,-0.008
12.53,-0.314,0.628,-0.142
12.54,-0.196,1.404,-0.134
12.55,-0.038,1.201,0.203
12.56,-0.038,0.497,0.024
12.57,-0.433,1.083,-0.199
12.58,-0.388,0.802,-0.068
12.59,-0.094,1.009,0.135
12.6,-0.191,0.952,0.018
12.61,-0.342,0.631,-0.167
12.62,-0.274,1.555,-0.046
12.63,-0.132,0.719,0.169
12.64,-0.174,0.978,0.026
12.65,-0.315,0.374,-0.182
12.66,-0.279,1.97,-0.024
12.67,0.129,0.79,0.22
12.68,-0.127,0.966,0.045
12.69,-0.423,0.544,-0.194
12.7,-0.349,1.651,-0.015
12.71,-0.146,0.742,0.102
12.72,-0.14,0.787,0.015
12.73,-0.379,0.822,-0.277
12.74,-0.208,1.335,0.034
12.75,-0.149,1.079,0.162
12.76,-0.11,0.504,0.043
12.77,-0.394,0.828,-0.136
12.78,-0.283,1.565,-0.061
12.79,0.16,1.031,0.192
12.8,-0.092,0.841,0.015
12.81,-0.403,0.454,-0.232
12.82,-0.315,1.898,-0.0
12.83,-0.189,0.504,0.173
12.84,-0.268,1.196,0.057
12.85,-0.318,0.38,-0.192
12.86,-0.273,1.801,-0.088
12.87,-0.077,0.78,0.131
12.88,-0.032,0.691,-0.027
12.89,-0.421,0.844,-0.206
12.9,-0.134,1.282,-0.102
12.91,-0.041,1.291,0.179
12.92,-0.004,0.448,0.056
12.93,-0.513,0.989,-0.221
12.94,-0.22,1.396,-0.039
12.95,-0.197,0.714,0.13
12.96,-0.116,1.064,-0.018
12.97,-0.293,0.425,-0.224
12.98,-0.24,1.933,-0.031
12.99,0.003,0.592,0.168
13.0,-0.195,1.063,0.036
13.01,-0.292,0.357,-0.164
13.02,-0.321,1.839,-0.062
13.03,-0.008,0.921,0.18
13.04,-0.093,0.62,0.039
13.05,-0.459,0.875,-0.239
13.06,-0.229,1.225,-0.026
13.07,-0.206,1.036,0.185
13.08,-0.104,0.639,0.05
13.09,-0.446,0.791,-0.185
13.1,-0.197,1.52,-0.017
13.11,-0.138,0.912,0.179
13.12,-0.146,0.854,0.022
13.13,-0.315,0.466,-0.164
13.14,-0.318,1.939,-0.047
13.15,0.01,0.668,0.187
13.16,-0.238,1.088,0.055
13.17,-0.368,0.369,-0.171
13.18,-0.338,1.482,-0.04
13.19,-0.105,0.792,0.183
13.2,-0.21,0.862,0.022
13.21,-0.336,0.722,-0.157
13.22,-0.223,1.355,-0.028
13.23,-0.073,1.142,0.201
13.24,-0.102,0.556,0.024
13.25,-0.428,0.897,-0.172
13.26,-0.271,1.4,-0.005
13.27,-0.074,0.949,0.174
13.28,-0.222,0.841,0.036
13.29,-0.294,0.555,-0.218
13.3,-0.323,1.713,-0.058
13.31,-0.01,0.603,0.2
13.32,-0.291,1.23,0.009
13.33,-0.205,0.324,-0.156
13.34,-0.313,1.886,-0.076
13.35,0.083,0.848,0.212
13.36,-0.178,0.681,0.054
13.37,-0.419,0.801,-0.175
13.38,-0.365,1.33,-0.021
13.39,-0.076,1.109,0.168
13.4,-0.143,0.544,0.075
13.41,-0.419,0.92,-0.167
13.42,-0.34,1.15,0.011
13.43,-0.257,0.966,0.148
13.44,-0.188,0.64,0.077
13.45,-0.368,0.657,-0.143
13.46,-0.308,1.722,0.014
13.47,-0.026,0.762,0.124
13.48,-0.18,0.958,0.022
13.49,-0.35,0.306,-0.192
13.5,-0.375,2.0,0.057
13.51,-0.075,0.625,0.13
13.52,-0.225,0.95,0.092
13.53,-0.387,0.45,-0.197
13.54,-0.355,1.769,0.077
13.55,-0.133,0.876,0.12
13.56,-0.089,0.576,0.035
13.57,-0.43,0.885,-0.215
13.58,-0.182,1.421,0.036
13.59,-0.13,1.142,0.149
13.6,0.019,0.532,0.074
13.61,-0.481,0.838,-0.188
13.62,-0.284,1.684,0.089
13.63,-0.158,0.705,0.166
13.64,-0.196,0.947,0.062
13.65,-0.382,0.281,-0.247
13.66,-0.329,2.0,0.083
13.67,-0.132,0.537,0.132
13.68,-0.154,0.978,0.063
13.69,-0.427,0.407,-0.201
13.7,-0.199,1.752,0.087
13.71,-0.066,1.012,0.186
13.72,0.023,0.567,0.06
13.73,-0.501,0.872,-0.269
13.74,-0.216,1.453,0.11
13.75,-0.213,1.057,0.094
13.76,-0.073,0.542,0.079
13.77,-0.507,0.769,-0.227
13.78,-0.158,1.71,0.061
13.79,-0.114,0.87,0.194
13.8,-0.058,0.835,0.059
13.81,-0.375,0.324,-0.173
13.82,-0.32,2.0,0.097
13.83,-0.011,0.674,0.154
13.84,-0.089,1.004,0.076
13.85,-0.426,0.386,-0.252
13.86,-0.137,1.916,0.095
13.87,-0.153,0.943,0.109
13.88,0.009,0.497,0.018
13.89,-0.447,0.935,-0.237
13.9,-0.11,1.47,0.066
13.91,-0.161,1.081,0.156
13.92,0.059,0.508,0.049
13.93,-0.526,0.857,-0.208
13.94,-0.016,1.661,0.053
13.95,-0.055,0.938,0.127
13.96,-0.025,0.787,0.005
13.97,-0.332,0.369,-0.215
13.98,-0.213,2.0,0.111
13.99,-0.025,0.585,0.122
14.0,-0.099,0.986,0.003
14.01,-0.39,0.4,-0.23
14.02,-0.219,1.885,0.073
14.03,-0.174,0.79,0.105
14.04,0.018,0.645,0.001
14.05,-0.571,0.853,-0.255
14.06,0.101,1.521,0.019
14.07,-0.149,1.168,0.072
14.08,0.202,0.496,0.009
14.09,-0.516,0.86,-0.234
14.1,0.011,1.744,0.058
14.11,-0.172,0.802,0.088
14.12,0.066,0.902,-0.0
14.13,-0.435,0.389,-0.247
14.14,-0.151,2.0,0.164
14.15,-0.125,0.571,0.112
14.16,-0.126,0.97,0.028
14.17,-0.406,0.345,-0.224
14.18,-0.119,1.924,0.024
14.19,-0.029,0.884,0.065
14.2,0.061,0.615,-0.028
14.21,-0.5,0.811,-0.211
14.22,-0.014,1.648,0.11
14.23,-0.292,1.088,0.096
14.24,0.049,0.445,-0.006
14.25,-0.634,1.023,-0.231
14.26,0.054,1.465,0.169
14.27,-0.261,1.197,0.032
14.28,0.094,0.55,0.041
14.29,-0.453,0.704,-0.152
14.3,-0.147,1.69,0.13
14.31,-0.122,0.751,0.104
14.32,-0.133,1.035,-0.05
14.33,-0.401,0.225,-0.182
14.34,-0.062,2.0,0.205
14.35,-0.17,0.659,0.142
14.36,-0.053,0.847,-0.008
14.37,-0.475,0.619,-0.192
14.38,-0.061,1.626,0.227
14.39,-0.224,1.156,0.079
14.4,0.035,0.45,-0.019
14.41,-0.542,0.953,-0.131
14.42,-0.073,1.386,0.15
14.43,-0.315,1.202,0.111
14.44,0.009,0.606,0.001
14.45,-0.528,0.699,-0.161
14.46,0.014,1.795,0.167
14.47,-0.175,0.76,0.064
14.48,-0.095,0.919,-0.026
14.49,-0.432,0.306,-0.16
14.5,-0.265,1.839,0.183
14.51,-0.242,0.723,0.123
14.52,-0.105,0.865,-0.011
14.53,-0.434,0.512,-0.146
14.54,-0.107,1.524,0.17
14.55,-0.253,1.167,0.059
14.56,-0.003,0.505,-0.092
14.57,-0.478,1.007,-0.16
14.58,0.012,1.396,0.225
14.59,-0.258,1.166,0.122
14.6,-0.006,0.544,-0.001
14.61,-0.472,0.75,-0.173
14.62,-0.127,1.408,0.137
14.63,-0.261,0.928,0.1
14.64,-0.104,0.906,-0.049
14.65,-0.366,0.265,-0.12
14.66,-0.105,1.721,0.152
14.67,-0.175,0.791,0.123
14.68,-0.12,0.996,-0.121
14.69,-0.433,0.469,-0.166
14.7,0.024,1.597,0.184
14.71,-0.272,1.201,0.067
14.72,0.038,0.474,-0.045
14.73,-0.436,0.945,-0.178
14.74,-0.012,1.087,0.171
14.75,-0.282,1.384,0.065
14.76,-0.066,0.438,-0.029
14.77,-0.411,0.73,-0.14
14.78,-0.057,1.418,0.134
14.79,-0.215,0.984,0.075
14.8,-0.088,1.013,-0.131
14.81,-0.393,0.278,-0.129
14.82,-0.085,1.804,0.183
14.83,-0.181,0.826,0.1
14.84,-0.088,0.939,-0.039
14.85,-0.399,0.48,-0.174
14.86,-0.135,1.305,0.24
14.87,-0.229,1.248,0.02
14.88,0.006,0.47,-0.091
14.89,-0.404,0.948,-0.194
14.9,0.034,0.969,0.177
14.91,-0.286,1.312,0.007
14.92,-0.063,0.658,-0.147
14.93,-0.335,0.742,-0.189
14.94,-0.108,1.344,0.174
14.95,-0.107,1.179,0.015
14.96,-0.165,0.847,-0.144
14.97,-0.274,0.296,-0.172
14.98,-0.172,1.49,0.137
14.99,-0.103,0.802,-0.002
15.0,-0.165,0.923,-0.137
15.01,-0.315,0.437,-0.193
15.02,-0.062,1.175,0.203
15.03,-0.226,1.108,0.03
15.04,-0.155,0.658,-0.165
15.05,-0.428,0.822,-0.133
15.06,-0.017,0.854,0.211
15.07,-0.264,1.375,-0.001
15.08,-0.112,0.418,-0.135
15.09,-0.478,1.217,-0.081
15.1,0.074,0.797,0.223
15.11,-0.332,1.173,0.085
15.12,-0.303,0.743,-0.098
15.13,-0.443,0.696,-0.063
15.14,-0.048,1.192,0.232
15.15,-0.145,0.711,0.046
15.16,-0.334,1.017,-0.104
15.17,-0.328,0.454,-0.139
15.18,-0.056,1.243,0.186
15.19,-0.195,0.908,0.027
15.2,-0.302,0.782,-0.108
15.21,-0.337,1.073,-0.126
15.22,0.018,0.842,0.216
15.23,-0.271,1.177,0.052
15.24,-0.259,0.428,-0.107
15.25,-0.445,1.29,-0.086
15.26,0.021,0.788,0.222
15.27,-0.299,1.17,0.055
15.28,-0.26,0.634,-0.133
15.29,-0.413,0.801,-0.087
15.3,-0.007,1.122,0.161
15.31,-0.119,0.792,0.01
15.32,-0.351,0.949,-0.129
15.33,-0.269,0.819,-0.064
15.34,-0.117,1.179,0.201
15.35,-0.219,0.713,0.033
15.36,-0.278,0.823,-0.105
15.37,-0.375,0.995,-0.152
15.38,0.078,0.775,0.127
15.39,-0.226,1.229,-0.05
15.4,-0.224,0.422,-0.166
15.41,-0.32,1.294,-0.114
15.42,0.027,0.75,0.152
15.43,-0.238,1.21,0.006
15.44,-0.278,0.495,-0.144
15.45,-0.263,1.326,-0.104
15.46,-0.056,1.059,0.209
15.47,-0.125,0.686,-0.005
15.48,-0.392,0.919,-0.163
15.49,-0.226,0.868,-0.042
15.5,-0.134,1.132,0.184
15.51,-0.179,0.748,0.035
15.52,-0.385,0.791,-0.114
15.53,-0.305,1.345,-0.065
15.54,-0.049,0.762,0.182
15.55,-0.253,1.138,0.022
15.56,-0.25,0.361,-0.144
15.57,-0.301,1.882,-0.077
15.58,0.046,0.664,0.185
15.59,-0.227,1.086,-0.014
15.6,-0.339,0.528,-0.211
15.61,-0.236,1.518,-0.07
15.62,-0.057,0.931,0.156
15.63,-0.103,0.656,0.012
15.64,-0.419,0.92,-0.209
15.65,-0.174,1.23,-0.03
15.66,-0.181,1.042,0.14
15.67,-0.099,0.677,-0.024
15.68,-0.336,0.746,-0.168
15.69,-0.269,1.642,-0.028
15.7,-0.019,0.76,0.127
15.71,-0.18,0.993,-0.027
15.72,-0.32,0.329,-0.232
15.73,-0.424,1.988,0.029
15.74,-0.07,0.592,0.146
15.75,-0.184,1.056,0.05
15.76,-0.331,0.421,-0.211
15.77,-0.338,1.748,0.022
15.78,-0.073,0.821,0.12
15.79,-0.053,0.675,0.011
15.8,-0.469,0.864,-0.192
15.81,-0.156,1.411,0.055
15.82,-0.197,1.161,0.189
15.83,0.015,0.502,0.089
15.84,-0.471,0.79,-0.193
15.85,-0.236,1.65,0.059
15.86,-0.2,0.956,0.073
15.87,0.015,0.699,0.022
15.88,-0.506,0.564,-0.213
15.89,-0.126,1.938,0.124
15.9,-0.12,0.512,0.109
15.91,-0.069,1.012,0.023
15.92,-0.374,0.292,-0.221
15.93,-0.148,2.0,0.045
15.94,-0.031,0.745,0.063
15.95,-0.018,0.769,-0.029
15.96,-0.492,0.678,-0.249
15.97,-0.033,1.752,0.093
15.98,-0.22,1.073,0.123
15.99,0.091,0.479,0.017
16.0,-0.531,0.993,-0.202
16.01,0.069,1.567,0.12
16.02,-0.189,1.147,0.097
16.03,0.058,0.61,-0.02
16.04,-0.496,0.585,-0.174
16.05,0.012,2.0,0.044
16.06,-0.167,0.609,0.074
16.07,0.037,1.04,-0.053
16.08,-0.547,0.29,-0.186
16.09,-0.153,1.919,0.199
16.1,-0.198,0.759,0.104
16.11,-0.02,0.788,0.044
16.12,-0.48,0.677,-0.188
16.13,-0.041,1.603,0.206
16.14,-0.248,1.128,0.057
16.15,0.071,0.496,-0.012
16.16,-0.496,1.035,-0.179
16.17,-0.019,1.408,0.159
16.18,-0.264,1.182,0.081
16.19,-0.036,0.628,-0.003
16.2,-0.425,0.616,-0.126
16.21,-0.102,1.811,0.169
16.22,-0.103,0.759,0.097
16.23,-0.148,0.979,-0.039
16.24,-0.298,0.285,-0.152
16.25,-0.118,1.934,0.143
16.26,-0.143,0.762,0.027
16.27,-0.036,0.761,-0.059
16.28,-0.419,0.605,-0.162
16.29,-0.052,1.479,0.159
16.3,-0.343,1.23,0.111
16.31,0.02,0.443,-0.042
16.32,-0.528,0.986,-0.175
16.33,0.055,1.364,0.192
16.34,-0.396,1.296,0.088
16.35,0.003,0.622,-0.049
16.36,-0.34,0.654,-0.177
16.37,-0.094,1.598,0.077
16.38,-0.198,0.919,0.112
16.39,-0.119,0.971,-0.098
16.4,-0.31,0.218,-0.126
16.41,-0.181,1.55,0.21
16.42,-0.173,0.922,0.072
16.43,-0.18,0.833,-0.112
16.44,-0.372,0.589,-0.138
16.45,-0.075,1.235,0.2
16.46,-0.265,1.31,0.066
16.47,0.012,0.46,-0.142
16.48,-0.496,0.963,-0.107
16.49,0.02,0.899,0.203
16.5,-0.318,1.45,-0.014
16.51,-0.086,0.582,-0.09
16.52,-0.44,0.671,-0.105
16.53,-0.047,1.151,0.218
16.54,-0.178,0.923,0.017
16.55,-0.278,1.025,-0.145
16.56,-0.343,0.316,-0.086
16.57,-0.118,1.364,0.233
16.58,-0.191,0.924,0.02
16.59,-0.296,0.833,-0.093
16.6,-0.429,0.759,-0.074
16.61,-0.024,0.949,0.158
16.62,-0.317,1.164,0.03
16.63,-0.196,0.511,-0.138
16.64,-0.344,1.42,-0.053
16.65,0.027,0.706,0.245
16.66,-0.307,1.214,0.049
16.67,-0.323,0.337,-0.164
16.68,-0.331,1.464,-0.022
16.69,-0.063,0.734,0.183
16.7,-0.209,1.021,-0.02
16.71,-0.356,0.668,-0.198
16.72,-0.111,1.297,-0.086
16.73,-0.099,1.075,0.165
16.74,-0.183,0.586,0.012
16.75,-0.394,0.981,-0.142
16.76,-0.288,1.352,0.031
16.77,-0.08,1.041,0.173
16.78,-0.162,0.695,0.013
16.79,-0.471,0.651,-0.213
16.8,-0.306,1.826,0.004
16.81,-0.103,0.557,0.144
16.82,-0.185,1.151,0.016
16.83,-0.301,0.237,-0.239
16.84,-0.25,1.95,0.048
16.85,-0.044,0.756,0.139
16.86,-0.145,0.763,0.005
16.87,-0.448,0.65,-0.213
16.88,-0.212,1.636,0.04
16.89,-0.095,1.054,0.132
16.9,0.076,0.524,0.035
16.91,-0.566,0.925,-0.241
16.92,-0.207,1.477,0.121
16.93,-0.21,0.993,0.047
16.94,0.016,0.664,0.007
16.95,-0.44,0.516,-0.262
16.96,0.001,2.0,-0.047
16.97,0.003,0.752,0.086
16.98,0.025,0.913,-0.036
16.99,-0.355,0.226,-0.236
17.0,-0.159,2.0,0.049
17.01,-0.029,0.684,0.102
17.02,-0.027,0.869,0.009
17.03,-0.531,0.634,-0.231
17.04,-0.083,1.756,0.121
17.05,-0.292,0.996,0.049
17.06,0.064,0.452,-0.018
17.07,-0.577,0.916,-0.18
17.08,0.03,1.512,0.093
17.09,-0.126,1.117,0.088
17.1,0.116,0.604,-0.021
17.11,-0.493,0.643,-0.147
17.12,-0.084,1.83,0.159
17.13,-0.153,0.681,0.118
17.14,-0.054,1.053,-0.02
17.15,-0.467,0.308,-0.215
17.16,-0.121,2.0,0.188
17.17,-0.127,0.687,0.112
17.18,-0.087,0.793,0.005
17.19,-0.401,0.62,-0.179
17.2,-0.169,1.53,0.14
17.21,-0.279,1.14,0.119
17.22,0.092,0.51,-0.039
17.23,-0.555,0.97,-0.154
17.24,0.061,1.476,0.192
17.25,-0.267,1.16,0.104
17.26,-0.017,0.646,0.001
17.27,-0.455,0.69,-0.225
17.28,-0.022,1.681,0.186
17.29,-0.079,0.877,0.017
17.3,-0.178,0.922,-0.014
17.31,-0.188,0.245,-0.147
17.32,-0.28,1.804,0.094
17.33,-0.498,0.785,-0.103
17.34,-0.024,0.935,0.222
17.35,-0.375,1.493,0.029
17.36,-0.117,0.389,-0.109
17.37,-0.425,0.92,-0.066
17.38,0.006,0.942,0.192
17.39,-0.229,1.123,0.018
17.4,-0.282,0.842,-0.167
17.41,-0.348,0.95,-0.034
17.42,-0.05,1.056,0.137
17.43,-0.183,0.784,0.027
17.44,-0.343,0.916,-0.139
17.45,-0.201,0.913,-0.03
17.46,-0.075,1.156,0.169
17.47,-0.162,0.69,0.005
17.48,-0.394,0.906,-0.129
17.49,-0.212,1.381,-0.041
17.5,0.013,0.825,0.193
17.51,-0.185,1.041,-0.028
17.52,-0.275,0.473,-0.216
17.53,-0.312,1.769,-0.038
17.54,0.041,0.613,0.184
17.55,-0.251,1.154,0.006
17.56,-0.33,0.419,-0.182
17.57,-0.221,1.768,-0.063
17.58,0.025,0.912,0.109
17.59,-0.135,0.602,0.034
17.6,-0.391,0.943,-0.252
17.61,-0.246,1.382,-0.016
17.62,-0.037,1.186,0.131
17.63,-0.152,0.513,0.039
17.64,-0.431,0.847,-0.234
17.65,-0.337,1.628,0.04
17.66,-0.127,0.744,0.135
17.67,-0.185,0.953,0.109
17.68,-0.431,0.318,-0.182
17.69,-0.35,2.0,0.17
17.7,-0.04,0.598,0.172
17.71,-0.118,0.985,0.063
17.72,-0.359,0.362,-0.246
17.73,-0.12,1.87,0.058
17.74,-0.048,0.894,0.112
17.75,0.099,0.613,-0.004
17.76,-0.451,0.883,-0.229
17.77,-0.084,1.508,0.069
17.78,-0.209,1.17,0.169
17.79,0.06,0.48,0.078
17.8,-0.416,0.869,-0.206
17.81,-0.148,1.7,0.056
17.82,-0.126,0.826,0.162
17.83,-0.079,0.804,-0.011
17.84,-0.453,0.311,-0.193
17.85,-0.198,2.0,0.103
17.86,-0.145,0.513,0.134
17.87,-0.071,1.008,0.029
17.88,-0.489,0.335,-0.201
17.89,-0.059,1.947,0.037
17.9,-0.015,0.911,-0.019
17.91,0.083,0.598,-0.03
17.92,-0.451,0.837,-0.218
17.93,-0.052,1.587,0.156
17.94,-0.275,1.105,0.098
17.95,0.035,0.492,0.018
17.96,-0.558,0.904,-0.208
17.97,-0.037,1.692,0.089
17.98,-0.143,0.847,0.115
17.99,0.094,0.809,-0.043
18.0,-0.452,0.413,-0.213
18.01,-0.122,1.895,0.16
18.02,-0.092,0.704,0.094
18.03,0.0,0.987,-0.045
18.04,-0.402,0.367,-0.198
18.05,-0.078,1.968,0.161
18.06,-0.172,0.776,0.083
18.07,0.001,0.663,-0.055
18.08,-0.505,0.845,-0.217
18.09,0.055,1.501,0.178
18.1,-0.22,1.254,0.03
18.11,0.14,0.441,-0.025
18.12,-0.522,0.9,-0.191
18.13,-0.056,1.448,0.134
18.14,-0.214,1.034,0.068
18.15,-0.052,0.85,-0.055
18.16,-0.462,0.354,-0.157
18.17,-0.023,1.954,0.184
18.18,-0.097,0.674,0.087
18.19,-0.147,0.991,-0.042
18.2,-0.397,0.381,-0.18
18.21,-0.093,1.795,0.122
18.22,-0.153,0.839,0.073
18.23,-0.083,0.844,-0.072
18.24,-0.409,0.55,-0.157
18.25,-0.017,1.1,0.191
18.26,-0.322,1.274,0.001
18.27,0.007,0.541,-0.114
18.28,-0.451,0.966,-0.147
18.29,0.036,1.057,0.223
18.3,-0.255,1.34,0.053
18.31,-0.052,0.612,-0.137
18.32,-0.448,0.68,-0.098
18.33,-0.044,1.229,0.207
18.34,-0.194,1.045,-0.005
18.35,-0.152,0.897,-0.088
18.36,-0.431,0.333,-0.096
18.37,-0.066,1.33,0.191
18.38,-0.196,0.731,0.011
18.39,-0.289,1.039,-0.149
18.4,-0.359,0.539,-0.126
18.41,-0.042,1.097,0.209
18.42,-0.252,1.311,0.006
18.43,-0.074,0.445,-0.122
18.44,-0.44,1.113,-0.089
18.45,0.008,0.759,0.224
18.46,-0.275,1.27,0.043
18.47,-0.212,0.536,-0.104
18.48,-0.447,0.975,-0.056
18.49,0.001,1.138,0.174
18.5,-0.169,0.731,0.06
18.51,-0.403,1.052,-0.127
18.52,-0.332,0.422,-0.004
18.53,-0.102,1.306,0.244
18.54,-0.154,0.842,0.076
18.55,-0.28,0.821,-0.116
18.56,-0.34,1.129,-0.109
18.57,0.012,0.994,0.173
18.58,-0.29,1.024,0.057
18.59,-0.188,0.554,-0.136
18.6,-0.462,1.32,-0.053
18.61,0.049,0.782,0.204
18.62,-0.284,1.207,0.081
18.63,-0.236,0.534,-0.139
18.64,-0.417,0.899,-0.058
18.65,-0.017,0.979,0.149
18.66,-0.146,0.952,-0.002
18.67,-0.333,0.803,-0.135
18.68,-0.208,0.887,-0.046
18.69,-0.12,1.198,0.205
18.7,-0.098,0.657,0.019
18.71,-0.401,0.948,-0.073
18.72,-0.26,1.029,-0.079
18.73,-0.105,0.849,0.156
18.74,-0.153,1.068,-0.01
18.75,-0.31,0.374,-0.159
18.76,-0.407,1.211,-0.065
18.77,0.105,0.701,0.084
18.78,-0.243,1.347,-0.046
18.79,-0.236,0.43,-0.188
18.8,-0.18,1.652,-0.122
18.81,-0.008,0.929,0.16
18.82,-0.091,0.685,-0.024
18.83,-0.444,0.876,-0.188
18.84,-0.161,1.199,-0.028
18.85,-0.2,1.103,0.134
18.86,-0.12,0.569,0.029
18.87,-0.427,0.862,-0.161
18.88,-0.275,1.451,-0.016
18.89,-0.098,0.787,0.159
18.9,-0.235,1.033,0.007
18.91,-0.297,0.386,-0.188
18.92,-0.324,1.975,-0.001
18.93,0.0,0.567,0.134
18.94,-0.168,1.088,0.034
18.95,-0.356,0.316,-0.226
18.96,-0.321,1.838,-0.022
18.97,-0.136,0.782,0.096
18.98,-0.1,0.735,0.016
18.99,-0.412,0.778,-0.239
19.0,-0.164,1.456,0.063
19.01,-0.189,1.162,0.176
19.02,-0.026,0.437,0.076
19.03,-0.553,0.938,-0.17
19.04,-0.073,1.515,0.086
19.05,-0.171,1.062,0.123
19.06,0.07,0.629,0.014
19.07,-0.502,0.632,-0.229
19.08,-0.055,1.904,0.098
19.09,-0.135,0.608,0.081
19.1,-0.018,0.979,0.026
19.11,-0.475,0.258,-0.2
19.12,-0.103,2.0,0.167
19.13,-0.06,0.692,0.122
19.14,-0.117,0.871,0.004
19.15,-0.436,0.486,-0.175
19.16,-0.106,1.835,0.114
19.17,-0.315,1.018,0.107
19.18,0.082,0.483,-0.026
19.19,-0.687,0.896,-0.161
19.2,0.055,1.586,0.186
19.21,-0.262,1.145,0.101
19.22,0.105,0.509,-0.027
19.23,-0.487,0.673,-0.156
19.24,-0.015,1.922,0.064
19.25,-0.111,0.696,0.063
19.26,0.016,1.025,-0.049
19.27,-0.447,0.246,-0.192
19.28,-0.081,2.0,0.176
19.29,-0.084,0.681,0.048
19.3,-0.027,0.829,-0.018
19.31,-0.45,0.559,-0.153
19.32,-0.095,1.617,0.198
19.33,-0.268,1.124,0.137
19.34,0.07,0.477,-0.029
19.35,-0.518,0.958,-0.15
19.36,0.015,1.452,0.201
19.37,-0.351,1.214,0.094
19.38,0.06,0.588,-0.022
19.39,-0.553,0.702,-0.195
19.4,-0.018,1.642,0.125
19.41,-0.236,0.955,0.093
19.42,-0.113,0.909,-0.024
19.43,-0.294,0.264,-0.18
19.44,-0.191,1.712,0.12
19.45,-0.129,0.845,0.062
19.46,-0.188,0.949,-0.139
19.47,-0.271,0.507,-0.177
19.48,-0.092,1.498,0.184
19.49,-0.187,1.273,0.058
19.5,0.036,0.443,-0.084
19.51,-0.458,0.963,-0.15
19.52,-0.014,0.943,0.163
19.53,-0.342,1.381,0.001
19.54,-0.022,0.579,-0.083
19.55,-0.432,0.677,-0.094
19.56,-0.038,1.176,0.218
19.57,-0.17,1.106,0.055
19.58,-0.356,0.94,-0.137
19.59,-0.254,0.297,-0.052
19.6,-0.241,1.391,0.225
19.61,-0.167,0.862,0.026
19.62,-0.242,0.888,-0.119
19.63,-0.385,0.63,-0.081
19.64,-0.035,0.995,0.152
19.65,-0.313,1.113,-0.003
19.66,-0.098,0.623,-0.171
19.67,-0.444,1.168,-0.064
19.68,0.08,0.698,0.208
19.69,-0.382,1.281,0.076
19.7,-0.222,0.519,-0.108
19.71,-0.447,0.904,-0.063
19.72,0.015,1.036,0.195
19.73,-0.221,0.925,0.026
19.74,-0.362,0.955,-0.104
19.75,-0.339,0.551,-0.011
19.76,-0.063,1.215,0.182
19.77,-0.129,0.772,0.034
19.78,-0.329,0.906,-0.145
19.79,-0.187,1.348,-0.091
19.8,0.02,0.976,0.158
19.81,-0.258,0.904,0.001
19.82,-0.282,0.521,-0.191
19.83,-0.355,1.533,-0.105
19.84,-0.025,0.656,0.112
19.85,-0.226,1.18,-0.006
19.86,-0.238,0.335,-0.211
19.87,-0.381,1.904,0.011
19.88,-0.069,0.606,0.171
19.89,-0.124,0.925,0.054
19.9,-0.325,0.597,-0.197
19.91,-0.278,1.61,0.009
19.92,-0.09,1.113,0.143
19.93,-0.052,0.5,0.064
19.94,-0.572,0.926,-0.179
19.95,-0.278,1.43,0.068
19.96,-0.307,0.888,0.139
19.97,-0.105,0.74,0.062
19.98,-0.383,0.626,-0.209
19.99,-0.318,1.847,0.042
20.0,-0.108,0.607,0.107
20.01,-0.173,1.034,0.031
20.02,-0.265,0.206,-0.162
20.03,-0.262,2.0,0.012
20.04,0.083,0.839,0.17
20.05,-0.1,0.814,0.016
20.06,-0.43,0.569,-0.228
20.07,-0.23,1.718,0.085
20.08,-0.155,0.995,0.078
20.09,-0.063,0.488,0.007
20.1,-0.53,0.95,-0.19
20.11,-0.178,1.502,0.095
20.12,-0.235,0.938,0.159
20.13,0.002,0.601,0.039
20.14,-0.499,0.669,-0.17
20.15,-0.095,1.81,0.067
20.16,0.006,0.752,0.097
20.17,0.003,0.937,-0.025
20.18,-0.375,0.284,-0.221
20.19,-0.154,2.0,0.049
20.2,-0.038,0.67,0.153
20.21,-0.034,0.888,0.014
20.22,-0.522,0.589,-0.209
20.23,-0.119,1.769,0.12
20.24,-0.265,0.953,0.129
20.25,0.051,0.521,-0.01
20.26,-0.606,0.945,-0.202
20.27,0.043,1.509,0.083
20.28,-0.114,1.199,0.083
20.29,0.046,0.517,-0.017
20.3,-0.399,0.725,-0.204
20.31,-0.097,1.862,0.031
20.32,0.023,0.727,0.087
20.33,-0.023,1.013,-0.047
20.34,-0.425,0.326,-0.215
20.35,-0.121,2.0,0.115
20.36,-0.185,0.61,0.121
20.37,-0.04,0.925,-0.007
20.38,-0.546,0.527,-0.204
20.39,-0.078,1.691,0.124
20.4,-0.15,1.072,0.044
20.41,0.103,0.467,-0.069
20.42,-0.574,0.973,-0.188
20.43,-0.011,1.465,0.181
20.44,-0.277,1.114,0.097
20.45,0.085,0.611,0.021
20.46,-0.597,0.795,-0.203
20.47,0.003,1.77,0.151
20.48,-0.203,0.766,0.062
20.49,-0.021,0.986,-0.022
20.5,-0.387,0.309,-0.174
20.51,-0.181,1.92,0.175
20.52,-0.189,0.702,0.097
20.53,-0.094,0.835,-0.038
20.54,-0.398,0.498,-0.178
20.55,-0.096,1.636,0.159
20.56,-0.321,1.087,0.07
20.57,0.018,0.497,-0.012
20.58,-0.538,1.005,-0.204
20.59,0.042,1.424,0.226
20.6,-0.28,1.232,0.069
20.61,-0.029,0.518,-0.011
20.62,-0.462,0.732,-0.155
20.63,-0.137,1.643,0.12
20.64,-0.152,0.876,0.069
20.65,-0.119,0.715,-0.04
20.66,-0.454,0.439,-0.129
20.67,-0.158,1.585,0.199
20.68,-0.137,0.848,0.119
20.69,-0.295,0.982,-0.05
20.7,-0.31,0.314,-0.109
20.71,-0.154,1.615,0.156
20.72,-0.199,1.003,0.065
20.73,-0.039,0.694,-0.101
20.74,-0.506,0.734,-0.187
20.75,0.027,1.047,0.202
20.76,-0.258,1.43,-0.008
20.77,-0.046,0.348,-0.107
20.78,-0.394,0.92,-0.185
20.79,-0.043,1.1,0.202
20.8,-0.229,1.195,0.049
20.81,-0.195,0.888,-0.134
20.82,-0.368,0.392,-0.123
20.83,-0.122,1.637,0.195
20.84,-0.157,0.897,0.1
20.85,-0.209,0.915,-0.091
20.86,-0.388,0.309,-0.129
20.87,-0.181,1.426,0.195
20.88,-0.238,0.993,0.022
20.89,-0.056,0.745,-0.165
20.9,-0.416,0.789,-0.169
20.91,0.115,0.953,0.184
20.92,-0.308,1.412,0.019
20.93,0.019,0.482,-0.174
20.94,-0.467,0.937,-0.18
20.95,0.123,1.161,0.21
20.96,-0.292,1.22,0.077
20.97,-0.045,0.665,-0.138
20.98,-0.453,0.476,-0.166
20.99,-0.049,1.392,0.175
21.0,-0.2,0.792,0.051
21.01,-0.171,1.119,-0.1
21.02,-0.286,0.292,-0.211
21.03,-0.015,1.356,0.144
21.04,-0.143,0.988,-0.035
21.05,-0.198,0.781,-0.181
21.06,-0.401,0.76,-0.168
21.07,0.055,0.995,0.237
21.08,-0.309,1.452,0.041
21.09,0.019,0.33,-0.109
21.1,-0.538,1.03,-0.178
21.11,0.088,0.935,0.172
21.12,-0.24,1.15,0.042
21.13,-0.245,0.741,-0.136
21.14,-0.48,0.565,-0.083
21.15,-0.066,1.307,0.196
21.16,-0.141,0.776,0.083
21.17,-0.238,1.009,-0.125
21.18,-0.42,0.387,-0.097
21.19,-0.086,1.224,0.176
21.2,-0.215,0.914,0.052
21.21,-0.141,0.76,-0.142
21.22,-0.523,0.808,-0.106
21.23,0.072,0.878,0.214
21.24,-0.306,1.28,0.108
21.25,-0.123,0.493,-0.094
21.26,-0.51,1.025,-0.109
21.27,0.0,0.995,0.23
21.28,-0.242,1.293,0.019
21.29,-0.09,0.737,-0.122
21.3,-0.472,0.548,-0.139
21.31,-0.12,1.297,0.227
21.32,-0.142,0.902,0.033
21.33,-0.23,0.959,-0.135
21.34,-0.348,0.337,-0.11
21.35,-0.024,1.334,0.156
21.36,-0.212,0.943,0.006
21.37,-0.164,0.824,-0.144
21.38,-0.438,0.766,-0.159
21.39,0.04,1.107,0.217
21.4,-0.302,1.398,0.047
21.41,0.023,0.427,-0.141
21.42,-0.51,0.957,-0.137
21.43,0.04,0.932,0.172
21.44,-0.326,1.331,0.006
21.45,-0.137,0.685,-0.105
21.46,-0.53,0.932,-0.072
21.47,0.096,0.998,0.15
21.48,-0.196,0.951,0.073
21.49,-0.301,0.918,-0.171
21.5,-0.41,0.407,-0.093
21.51,-0.07,1.419,0.211
21.52,-0.219,0.839,0.081
21.53,-0.222,0.931,-0.112
21.54,-0.426,0.614,-0.1
21.55,0.011,1.039,0.135
21.56,-0.252,1.115,-0.001
21.57,-0.103,0.593,-0.163
21.58,-0.499,1.203,-0.14
21.59,0.145,0.798,0.18
21.6,-0.319,1.221,0.071
21.61,-0.183,0.589,-0.137
21.62,-0.502,0.841,-0.14
21.63,-0.018,1.071,0.214
21.64,-0.174,1.154,0.052
21.65,-0.184,0.867,-0.129
21.66,-0.376,0.438,-0.143
21.67,-0.088,1.305,0.149
21.68,-0.162,0.811,-0.002
21.69,-0.204,1.012,-0.105
21.7,-0.329,0.562,-0.138
21.71,0.026,1.123,0.184
21.72,-0.165,1.038,0.012
21.73,-0.134,0.716,-0.176
21.74,-0.444,0.961,-0.142
21.75,-0.024,1.003,0.283
21.76,-0.315,1.502,0.094
21.77,-0.047,0.413,-0.06
21.78,-0.463,0.901,-0.08
21.79,-0.035,1.019,0.196
21.8,-0.186,1.108,-0.01
21.81,-0.296,0.883,-0.111
21.82,-0.301,0.37,-0.117
21.83,-0.126,1.326,0.188
21.84,-0.12,0.783,0.103
21.85,-0.394,1.025,-0.1
21.86,-0.393,0.467,-0.064
21.87,-0.172,1.343,0.26
21.88,-0.25,1.314,0.066
21.89,-0.108,0.442,-0.116
21.9,-0.45,1.122,-0.081
21.91,0.043,0.786,0.188
21.92,-0.349,1.264,0.028
21.93,-0.17,0.572,-0.143
21.94,-0.441,0.906,-0.123
21.95,0.03,1.043,0.211
21.96,-0.155,1.081,0.061
21.97,-0.253,0.875,-0.121
21.98,-0.384,0.379,-0.052
21.99,-0.22,1.472,0.274
22.0,-0.182,1.022,0.107
22.01,-0.229,0.87,-0.065
22.02,-0.461,0.629,-0.018
22.03,-0.028,1.135,0.169
22.04,-0.328,1.005,0.059
22.05,-0.2,0.713,-0.151
22.06,-0.537,0.998,-0.074
22.07,-0.015,0.804,0.216
22.08,-0.303,1.346,0.082
22.09,-0.19,0.439,-0.075
22.1,-0.479,0.897,-0.048
22.11,-0.074,0.994,0.258
22.12,-0.294,1.218,0.079
22.13,-0.18,0.764,-0.13
22.14,-0.331,0.716,-0.075
22.15,-0.067,1.291,0.172
22.16,-0.193,0.617,0.073
22.17,-0.322,1.052,-0.101
22.18,-0.408,0.549,-0.071
22.19,-0.068,1.118,0.18
22.2,-0.223,1.035,0.04
22.21,-0.304,0.699,-0.113
22.22,-0.502,0.885,-0.057
22.23,0.01,0.899,0.301
22.24,-0.245,1.644,0.063
22.25,-0.164,0.325,-0.108
22.26,-0.28,1.776,-0.113
22.27,0.079,0.694,0.135
22.28,-0.186,1.059,-0.016
22.29,-0.324,0.578,-0.13
22.3,-0.29,1.442,-0.055
22.31,-0.039,1.013,0.163
22.32,-0.091,0.638,0.032
22.33,-0.415,0.956,-0.205
22.34,-0.27,0.715,-0.022
22.35,-0.229,1.107,0.18
22.36,-0.187,0.798,0.071
22.37,-0.28,0.73,-0.099
22.38,-0.287,1.682,-0.109
22.39,0.042,0.78,0.147
22.4,-0.238,1.041,-0.047
22.41,-0.269,0.334,-0.186
22.42,-0.376,1.848,-0.083
22.43,-0.005,0.635,0.123
22.44,-0.214,1.096,0.008
22.45,-0.305,0.545,-0.174
22.46,-0.332,1.339,-0.05
22.47,-0.12,0.88,0.163
22.48,-0.101,0.747,-0.002
22.49,-0.368,0.859,-0.172
22.5,-0.173,1.311,-0.03
22.51,-0.074,1.205,0.185
22.52,-0.121,0.468,0.103
22.53,-0.466,0.881,-0.137
22.54,-0.36,1.67,0.01
22.55,-0.021,0.727,0.125
22.56,-0.268,1.015,0.008
22.57,-0.312,0.317,-0.233
22.58,-0.43,1.806,0.061
22.59,-0.157,0.52,0.168
22.6,-0.292,1.128,0.06
22.61,-0.184,0.381,-0.142
22.62,-0.284,1.737,0.04
22.63,0.048,1.054,0.128
22.64,-0.058,0.496,0.013
22.65,-0.482,0.956,-0.145
22.66,-0.244,1.384,0.041
22.67,-0.157,1.073,0.174
22.68,-0.05,0.571,0.032
22.69,-0.531,0.83,-0.209
22.7,-0.259,1.726,0.043
22.71,-0.242,0.599,0.14
22.72,-0.162,1.044,0.009
22.73,-0.246,0.232,-0.222
22.74,-0.221,2.0,0.028
22.75,0.029,0.71,0.217
22.76,-0.103,0.909,0.016
22.77,-0.431,0.418,-0.187
22.78,-0.18,1.763,0.051
22.79,-0.08,1.038,0.127
22.8,-0.021,0.571,-0.019
22.81,-0.532,0.864,-0.203
22.82,-0.192,1.496,0.123
22.83,-0.381,0.878,0.123
22.84,-0.08,0.636,0.043
22.85,-0.423,0.743,-0.189
22.86,-0.037,1.712,0.03
22.87,0.033,0.91,0.133
22.88,-0.047,0.804,0.01
22.89,-0.343,0.351,-0.174
22.9,-0.258,2.0,0.045
22.91,-0.02,0.669,0.176
22.92,-0.102,1.049,0.002
22.93,-0.509,0.406,-0.267
22.94,-0.144,1.909,0.104
22.95,-0.298,0.798,0.001
22.96,-0.005,0.532,-0.003
22.97,-0.459,0.87,-0.238
22.98,-0.004,1.437,0.008
22.99,-0.051,1.176,0.072
23.0,0.201,0.5,-0.007
23.01,-0.538,0.828,-0.289
23.02,0.012,1.745,0.037
23.03,-0.124,0.84,0.045
23.04,0.04,0.931,-0.037
23.05,-0.429,0.352,-0.193
23.06,-0.136,2.0,0.169
23.07,-0.042,0.617,0.009
23.08,-0.064,0.955,-0.057
23.09,-0.406,0.288,-0.218
23.1,-0.168,1.88,0.132
23.11,-0.208,0.833,0.079
23.12,0.024,0.751,0.014
23.13,-0.468,0.696,-0.208
23.14,0.012,1.552,0.168
23.15,-0.251,1.181,0.049
23.16,0.055,0.533,-0.025
23.17,-0.549,0.969,-0.199
23.18,0.047,1.528,0.201
23.19,-0.184,1.04,0.053
23.2,0.014,0.645,-0.031
23.21,-0.461,0.637,-0.226
23.22,-0.155,1.713,0.172
23.23,-0.212,0.758,0.109
23.24,-0.039,1.001,-0.029
23.25,-0.367,0.258,-0.148
23.26,-0.124,1.836,0.106
23.27,-0.194,0.786,0.117
23.28,-0.058,0.828,-0.059
23.29,-0.475,0.66,-0.194
23.3,0.094,1.61,0.204
23.31,-0.245,1.209,0.054
23.32,0.073,0.408,-0.018
23.33,-0.57,1.039,-0.204
23.34,-0.033,1.368,0.176
23.35,-0.405,1.197,0.123
23.36,-0.009,0.636,-0.011
23.37,-0.477,0.547,-0.118
23.38,-0.089,1.555,0.171
23.39,-0.184,0.795,0.061
23.4,-0.185,1.003,-0.053
23.41,-0.323,0.221,-0.202
23.42,-0.048,1.773,0.152
23.43,-0.132,0.866,0.071
23.44,-0.125,0.746,-0.066
23.45,-0.452,0.685,-0.222
23.46,-0.027,1.279,0.164
23.47,-0.373,1.371,0.11
23.48,0.008,0.343,-0.026
23.49,-0.519,0.976,-0.155
23.5,0.083,1.101,0.186
23.51,-0.327,1.206,0.062
23.52,-0.097,0.757,-0.098
23.53,-0.41,0.517,-0.194
23.54,0.044,1.729,0.156
23.55,-0.073,0.832,0.02
23.56,-0.154,0.937,-0.11
23.57,-0.442,0.293,-0.175
23.58,-0.122,1.545,0.155
23.59,-0.247,0.969,0.032
23.6,-0.076,0.687,-0.115
23.61,-0.367,0.669,-0.181
23.62,-0.053,1.166,0.183
23.63,-0.278,1.209,0.064
23.64,-0.093,0.544,-0.113
23.65,-0.508,0.924,-0.145
23.66,-0.008,1.258,0.241
23.67,-0.282,1.347,0.077
23.68,-0.061,0.604,-0.039
23.69,-0.427,0.579,-0.148
23.7,-0.074,1.366,0.167
23.71,-0.128,0.888,0.01
23.72,-0.272,0.955,-0.118
23.73,-0.292,0.21,-0.194
23.74,-0.099,1.53,0.222
23.75,-0.16,0.872,0.054
23.76,-0.158,0.824,-0.137
23.77,-0.355,0.686,-0.165
23.78,-0.001,1.331,0.189
23.79,-0.324,1.395,0.072
23.8,0.05,0.395,-0.1
23.81,-0.449,0.984,-0.154
23.82,-0.029,0.973,0.217
23.83,-0.361,1.302,0.08
23.84,-0.074,0.702,-0.101
23.85,-0.393,0.57,-0.166
23.86,-0.071,1.506,0.222
23.87,-0.167,0.845,0.087
23.88,-0.241,0.984,-0.146
23.89,-0.371,0.354,-0.085
23.9,-0.195,1.586,0.254
23.91,-0.148,1.012,0.065
23.92,-0.18,0.897,-0.101
23.93,-0.387,0.488,-0.105
23.94,-0.062,1.16,0.207
23.95,-0.256,1.128,-0.009
23.96,-0.238,0.676,-0.139
23.97,-0.436,0.944,-0.085
23.98,0.041,0.87,0.231
23.99,-0.265,1.339,0.071
24.0,-0.159,0.559,-0.149
24.01,-0.512,0.827,-0.081
24.02,-0.13,1.04,0.304
24.03,-0.256,1.211,0.039
24.04,-0.176,0.743,-0.128
24.05,-0.304,0.752,-0.098
24.06,-0.056,1.345,0.193
24.07,-0.205,0.611,0.016
24.08,-0.315,1.146,-0.107
24.09,-0.378,0.481,-0.164
24.1,-0.032,1.201,0.195
24.11,-0.156,1.085,0.014
24.12,-0.243,0.669,-0.157
24.13,-0.412,0.921,-0.12
24.14,-0.085,0.89,0.262
24.15,-0.284,1.602,0.03
24.16,-0.128,0.26,-0.104
24.17,-0.351,1.304,-0.092
24.18,-0.005,0.955,0.213
24.19,-0.211,0.889,-0.001
24.2,-0.372,0.981,-0.167
24.21,-0.291,0.476,-0.071
24.22,-0.164,1.243,0.217
24.23,-0.138,0.721,0.05
24.24,-0.394,0.996,-0.097
24.25,-0.425,0.459,-0.085
24.26,-0.051,1.208,0.229
24.27,-0.274,1.166,0.037
24.28,-0.154,0.541,-0.119
24.29,-0.41,1.458,-0.086
24.3,0.041,0.762,0.213
24.31,-0.342,1.174,0.021
24.32,-0.217,0.521,-0.113
24.33,-0.444,1.037,-0.126
24.34,0.073,0.947,0.141
24.35,-0.179,1.03,0.033
24.36,-0.337,0.859,-0.148
24.37,-0.373,0.413,-0.061
24.38,-0.067,1.359,0.168
24.39,-0.217,0.945,0.006
24.4,-0.147,0.88,-0.1
24.41,-0.36,1.12,-0.094
24.42,0.067,1.088,0.192
24.43,-0.302,0.878,0.029
24.44,-0.283,0.759,-0.132
24.45,-0.429,1.182,-0.034
24.46,0.042,0.711,0.172
24.47,-0.298,1.246,0.066
24.48,-0.279,0.508,-0.199
24.49,-0.495,1.03,-0.044
24.5,-0.002,0.897,0.164
24.51,-0.268,1.115,0.082
24.52,-0.204,0.687,-0.12
24.53,-0.333,1.298,-0.077
24.54,0.007,1.257,0.179
24.55,-0.146,0.461,0.028
24.56,-0.355,1.082,-0.138
24.57,-0.378,0.756,-0.066
24.58,-0.091,0.978,0.155
24.59,-0.172,0.995,0.012
24.6,-0.337,0.632,-0.164
24.61,-0.412,1.057,-0.044
24.62,0.054,0.772,0.137
24.63,-0.312,1.42,0.032
24.64,-0.133,0.337,-0.118
24.65,-0.302,1.757,-0.175
24.66,0.143,0.887,0.2
24.67,-0.213,0.825,-0.008
24.68,-0.396,0.863,-0.162
24.69,-0.29,1.571,-0.05
24.7,-0.135,0.927,0.141
24.71,-0.044,0.621,0.008
24.72,-0.457,0.964,-0.224
24.73,-0.231,1.159,-0.015
24.74,-0.107,1.048,0.163
24.75,-0.178,0.696,0.008
24.76,-0.335,0.72,-0.159
24.77,-0.281,1.67,-0.033
24.78,0.042,0.899,0.194
24.79,-0.228,0.845,0.042
24.8,-0.355,0.431,-0.206
24.81,-0.397,1.901,-0.043
24.82,-0.021,0.611,0.173
24.83,-0.225,1.118,0.025
24.84,-0.314,0.534,-0.269
24.85,-0.282,1.589,0.006
24.86,-0.151,0.841,0.177
24.87,-0.079,0.64,0.001
24.88,-0.404,0.798,-0.195
24.89,-0.176,1.38,-0.002
24.9,-0.06,1.218,0.14
24.91,-0.03,0.474,0.029
24.92,-0.468,0.799,-0.233
24.93,-0.301,1.708,0.005
24.94,-0.08,0.728,0.111
24.95,-0.211,0.973,0.049
24.96,-0.387,0.343,-0.185
24.97,-0.474,1.95,0.062
24.98,-0.096,0.501,0.127
24.99,-0.214,1.062,0.053
25.0,-0.381,0.387,-0.21
25.01,-0.3,1.727,-0.01
25.02,-0.072,0.982,0.135
25.03,-0.06,0.547,0.02
25.04,-0.49,0.898,-0.216
25.05,-0.251,1.419,0.051
25.06,-0.222,0.966,0.11
25.07,-0.022,0.615,0.053
25.08,-0.483,0.772,-0.209
25.09,-0.255,1.692,0.066
25.1,-0.147,0.725,0.095
25.11,-0.157,0.962,0.051
25.12,-0.276,0.33,-0.183
25.13,-0.404,1.961,0.093
25.14,0.064,0.719,0.178
25.15,-0.166,0.939,0.046
25.16,-0.45,0.452,-0.208
25.17,-0.288,1.838,0.059
25.18,-0.209,0.844,0.084
25.19,-0.037,0.587,0.018
25.2,-0.557,0.881,-0.222
25.21,-0.104,1.442,0.054
25.22,-0.285,1.006,0.128
25.23,-0.035,0.54,0.078
25.24,-0.462,0.784,-0.199
25.25,-0.148,1.682,0.052
25.26,-0.021,0.833,0.164
25.27,-0.1,0.887,0.019
25.28,-0.339,0.341,-0.193
25.29,-0.367,2.0,0.122
25.3,-0.15,0.511,0.108
25.31,-0.205,0.999,0.049
25.32,-0.403,0.34,-0.242
25.33,-0.108,1.824,0.047
25.34,-0.073,1.068,0.101
25.35,0.003,0.406,0.0
25.36,-0.447,0.909,-0.204
25.37,-0.123,1.522,0.077
25.38,-0.151,1.131,0.173
25.39,-0.021,0.474,0.001
25.4,-0.535,0.804,-0.221
25.41,-0.1,1.755,0.038
25.42,-0.11,0.787,0.067
25.43,-0.06,0.814,-0.012
25.44,-0.392,0.342,-0.248
25.45,-0.148,2.0,0.037
25.46,0.02,0.65,0.105
25.47,-0.022,0.95,0.013
25.48,-0.435,0.396,-0.22
25.49,-0.04,1.959,0.041
25.5,-0.111,0.761,0.076
25.51,0.048,0.757,-0.04
25.52,-0.448,0.714,-0.248
25.53,0.009,1.623,0.136
25.54,-0.158,1.147,0.048
25.55,0.104,0.394,-0.011
25.56,-0.514,1.017,-0.187
25.57,-0.029,1.449,0.131
25.58,-0.202,1.053,0.031
25.59,0.059,0.727,-0.025
25.6,-0.415,0.563,-0.164
25.61,-0.094,1.888,0.159
25.62,-0.045,0.668,0.092
25.63,-0.121,1.014,-0.05
25.64,-0.452,0.267,-0.166
25.65,-0.112,1.927,0.184
25.66,-0.17,0.821,0.077
25.67,-0.077,1.114,0.2
25.68,-0.196,0.844,0.012
25.69,-0.246,0.738,-0.108
25.7,-0.41,0.894,-0.091
25.71,0.037,0.831,0.161
25.72,-0.376,1.332,0.024
25.73,-0.154,0.388,-0.088
25.74,-0.485,1.094,-0.068
25.75,0.073,0.79,0.173
25.76,-0.225,1.271,-0.025
25.77,-0.251,0.677,-0.185
25.78,-0.356,0.635,-0.045
25.79,-0.115,1.217,0.191
25.8,-0.154,0.793,0.03
25.81,-0.322,0.994,-0.101
25.82,-0.267,0.853,-0.055
25.83,-0.076,1.109,0.219
25.84,-0.187,0.797,0.073
25.85,-0.387,0.781,-0.106
25.86,-0.34,1.18,-0.085
25.87,-0.009,0.744,0.204
25.88,-0.23,1.187,0.035
25.89,-0.31,0.436,-0.171
25.9,-0.384,1.428,-0.082
25.91,-0.011,0.725,0.207
25.92,-0.212,1.09,0.018
25.93,-0.28,0.706,-0.155
25.94,-0.225,1.336,-0.103
25.95,-0.011,1.179,0.209
25.96,-0.112,0.522,0.015
25.97,-0.416,1.051,-0.138
25.98,-0.421,0.791,-0.045
25.99,-0.122,1.074,0.183
26.0,-0.162,0.851,0.035
26.01,-0.385,0.738,-0.118
26.02,-0.351,1.363,-0.07
26.03,-0.044,0.663,0.227
26.04,-0.205,1.253,0.047
26.05,-0.228,0.351,-0.144
26.06,-0.343,1.885,-0.168
26.07,0.124,0.816,0.138
26.08,-0.176,0.881,-0.001
26.09,-0.343,0.661,-0.188
26.1,-0.378,1.01,-0.061
26.11,-0.064,1.018,0.138
26.12,-0.092,0.744,-0.023
26.13,-0.456,0.96,-0.142
26.14,-0.144,1.02,-0.045
26.15,-0.184,1.048,0.207
26.16,-0.104,0.802,0.041
26.17,-0.383,0.777,-0.143
26.18,-0.277,1.606,-0.067
26.19,0.007,0.746,0.14
26.2,-0.267,1.087,0.013
26.21,-0.248,0.34,-0.185
26.22,-0.298,1.895,-0.105
26.23,0.028,0.668,0.136
26.24,-0.183,1.01,0.012
26.25,-0.403,0.402,-0.214
26.26,-0.241,1.891,-0.024
26.27,-0.074,0.834,0.106
26.28,-0.051,0.67,0.064
26.29,-0.493,0.833,-0.222
26.3,-0.246,1.41,0.032
26.31,-0.191,1.076,0.133
26.32,-0.052,0.492,0.077
26.33,-0.497,0.854,-0.204
26.34,-0.27,1.548,0.042
26.35,-0.145,0.832,0.074
26.36,-0.113,0.808,0.036
26.37,-0.341,0.437,-0.215
26.38,-0.32,1.977,0.009
26.39,-0.037,0.576,0.083
26.4,-0.135,1.062,0.033
26.41,-0.392,0.329,-0.242
26.42,-0.282,1.91,-0.024
26.43,-0.131,0.799,0.096
26.44,-0.067,0.708,0.063
26.45,-0.474,0.755,-0.215
26.46,-0.301,1.465,0.055
26.47,-0.191,1.059,0.139
26.48,-0.125,0.54,0.064
26.49,-0.4,0.888,-0.215
26.5,-0.277,1.533,0.044
26.51,-0.062,0.89,0.145
26.52,-0.161,0.795,0.057
26.53,-0.396,0.466,-0.157
26.54,-0.392,1.918,0.065
26.55,-0.067,0.631,0.115
26.56,-0.243,1.021,0.041
26.57,-0.331,0.316,-0.193
26.58,-0.363,1.942,0.064
26.59,-0.146,0.749,0.125
26.6,-0.146,0.665,0.027
26.61,-0.448,0.793,-0.222
26.62,-0.21,1.453,0.058
26.63,-0.189,1.096,0.15
26.64,-0.081,0.473,0.074
26.65,-0.489,0.903,-0.168
26.66,-0.228,1.505,0.023
26.67,-0.099,0.963,0.151
26.68,-0.072,0.754,0.028
26.69,-0.458,0.416,-0.191
26.7,-0.291,1.989,0.049
26.71,-0.1,0.593,0.147
26.72,-0.193,1.023,0.062
26.73,-0.392,0.309,-0.22
26.74,-0.295,1.905,0.056
26.75,-0.132,0.782,0.16
26.76,-0.16,0.619,0.024
26.77,-0.528,0.766,-0.181
26.78,-0.168,1.519,0.052
26.79,-0.193,1.127,0.18
26.8,0.059,0.45,0.028
26.81,-0.537,0.869,-0.221
26.82,-0.094,1.581,0.079
26.83,-0.149,0.972,0.173
26.84,-0.036,0.748,0.011
26.85,-0.49,0.423,-0.194
26.86,-0.23,2.0,0.139
26.87,-0.121,0.553,0.112
26.88,-0.173,0.988,0.05
26.89,-0.359,0.301,-0.226
26.9,-0.138,1.917,0.031
26.91,-0.032,0.912,0.12
26.92,-0.012,0.589,-0.027
26.93,-0.422,0.779,-0.227
26.94,-0.106,1.571,0.073
26.95,-0.136,1.14,0.156
26.96,0.077,0.438,-0.024
26.97,-0.57,0.935,-0.197
26.98,-0.043,1.667,0.04
26.99,-0.237,0.874,0.089
27.0,0.052,0.772,-0.015
27.01,-0.439,0.464,-0.252
27.02,-0.091,2.0,0.063
27.03,0.053,0.691,0.12
27.04,-0.025,0.931,0.022
27.05,-0.393,0.299,-0.24
27.06,-0.107,2.0,0.09
27.07,-0.138,0.665,0.084
27.08,-0.004,0.87,-0.058
27.09,-0.493,0.539,-0.205
27.1,-0.042,1.781,0.153
27.11,-0.279,0.932,0.099
27.12,0.12,0.445,-0.0
27.13,-0.575,1.029,-0.186
27.14,0.062,1.418,0.164
27.15,-0.229,1.248,-0.032
27.16,0.084,0.511,-0.028
27.17,-0.449,0.765,-0.186
27.18,-0.084,1.75,0.17
27.19,-0.116,0.719,0.093
27.2,-0.105,1.019,-0.022
27.21,-0.405,0.284,-0.118
27.22,-0.106,1.988,0.226
27.23,-0.233,0.692,0.142
27.24,-0.034,0.855,-0.019
27.25,-0.472,0.57,-0.186
27.26,-0.025,1.702,0.203
27.27,-0.217,1.076,0.026
27.28,0.062,0.465,-0.023
27.29,-0.502,0.982,-0.164
27.3,0.045,1.427,0.181
27.31,-0.394,1.236,0.083
27.32,0.073,0.581,-0.049
27.33,-0.459,0.733,-0.146
27.34,0.091,1.799,0.134
27.35,-0.139,0.862,0.042
27.36,-0.061,0.916,-0.056
27.37,-0.319,0.282,-0.117
27.38,-0.107,1.927,0.159
27.39,-0.112,0.728,0.081
27.4,-0.1,0.816,-0.077
27.41,-0.457,0.475,-0.175
27.42,-0.061,1.516,0.14
27.43,-0.285,1.15,0.019
27.44,0.079,0.499,-0.085
27.45,-0.448,0.974,-0.189
27.46,0.061,1.363,0.211
27.47,-0.249,1.267,0.047
27.48,0.061,0.582,-0.058
27.49,-0.48,0.7,-0.162
27.5,-0.042,1.527,0.141
27.51,-0.295,0.996,0.113
27.52,-0.092,0.874,-0.065
27.53,-0.382,0.251,-0.145
27.54,-0.158,1.563,0.195
27.55,-0.239,0.818,0.048
27.56,-0.145,0.991,-0.089
27.57,-0.348,0.53,-0.174
27.58,-0.002,1.438,0.193
27.59,-0.256,1.302,0.031
27.6,0.042,0.522,-0.114
27.61,-0.439,0.95,-0.142
27.62,0.027,1.077,0.155
27.63,-0.312,1.482,0.018
27.64,-0.009,0.507,-0.077
27.65,-0.365,0.707,-0.126
27.66,-0.1,1.248,0.223
27.67,-0.25,1.048,-0.007
27.68,-0.184,0.999,-0.171
27.69,-0.294,0.282,-0.071
27.7,-0.141,1.424,0.201
27.71,-0.28,0.901,0.063
27.72,-0.288,0.996,-0.096
27.73,-0.408,0.569,-0.061
27.74,-0.069,1.044,0.231
27.75,-0.343,1.243,-0.006
27.76,-0.087,0.568,-0.123
27.77,-0.436,1.049,-0.127
27.78,0.085,0.725,0.2
27.79,-0.321,1.414,0.003
27.8,-0.222,0.487,-0.128
27.81,-0.324,1.048,-0.077
27.82,-0.004,0.986,0.187
27.83,-0.187,0.874,0.038
27.84,-0.356,0.931,-0.132
27.85,-0.353,1.242,-0.044
27.86,-0.167,0.987,0.176
27.87,-0.122,0.633,0.004
27.88,-0.416,0.952,-0.146
27.89,-0.219,1.364,-0.012
27.9,-0.174,0.958,0.181
27.91,-0.115,0.747,0.014
27.92,-0.432,0.661,-0.171
27.93,-0.3,1.796,0.037
27.94,-0.094,0.652,0.149
27.95,-0.201,1.093,0.027
27.96,-0.381,0.233,-0.229
27.97,-0.363,1.988,0.065
27.98,-0.182,0.514,0.116
27.99,-0.142,0.89,0.011
28.0,-0.364,0.613,-0.21
28.01,-0.187,1.562,0.081
28.02,-0.171,1.075,0.192
28.03,0.068,0.444,-0.004
28.04,-0.628,0.885,-0.208
28.05,-0.019,1.524,0.066
28.06,-0.236,1.092,0.128
28.07,-0.017,0.603,0.05
28.08,-0.546,0.601,-0.164
28.09,-0.139,1.972,0.118
28.1,-0.203,0.571,0.131
28.11,-0.081,0.936,0.029
28.12,-0.496,0.279,-0.151
28.13,-0.122,2.0,0.071
28.14,-0.012,0.714,0.092
28.15,0.021,0.802,-0.065
28.16,-0.398,0.607,-0.207
28.17,-0.029,1.728,0.094
28.18,-0.151,1.082,0.099
28.19,0.106,0.479,-0.045
28.2,-0.583,0.945,-0.181
28.21,0.003,1.593,0.215
28.22,-0.282,1.041,0.096
28.23,0.015,0.612,-0.001
28.24,-0.523,0.663,-0.156
28.25,-0.14,1.71,0.155
28.26,-0.174,0.735,0.089
28.27,-0.086,0.974,-0.026
28.28,-0.406,0.243,-0.154
28.29,-0.177,1.793,0.169
28.3,-0.149,0.757,0.106
28.31,-0.149,0.839,-0.092
28.32,-0.364,0.624,-0.21
28.33,0.012,1.515,0.16
28.34,-0.251,1.175,0.044
28.35,0.047,0.409,-0.107
28.36,-0.435,0.998,-0.19
28.37,-0.022,1.221,0.154
28.38,-0.323,1.353,0.068
28.39,-0.063,0.554,-0.068
28.4,-0.428,0.573,-0.157
28.41,-0.069,1.451,0.168
28.42,-0.164,0.923,0.064
28.43,-0.209,1.071,-0.107
28.44,-0.32,0.235,-0.107
28.45,-0.134,1.687,0.22
28.46,-0.174,0.988,0.085
28.47,-0.185,0.841,-0.123
28.48,-0.396,0.577,-0.149
28.49,-0.046,1.137,0.233
28.5,-0.343,1.411,-0.012
28.51,-0.055,0.413,-0.126
28.52,-0.419,1.041,-0.109
28.53,0.023,0.793,0.183
28.54,-0.303,1.251,-0.007
28.55,-0.314,0.676,-0.173
28.56,-0.361,0.688,-0.068
28.57,-0.106,1.119,0.175
28.58,-0.141,0.919,0.011
28.59,-0.367,0.999,-0.107
28.6,-0.347,0.512,-0.032
28.61,-0.102,1.18,0.161
28.62,-0.228,0.818,0.014
28.63,-0.343,0.886,-0.144
28.64,-0.225,1.378,-0.079
28.65,0.007,0.854,0.228
28.66,-0.284,1.024,-0.001
28.67,-0.345,0.669,-0.201
28.68,-0.363,1.892,-0.026
28.69,0.047,0.588,0.192
28.7,-0.353,1.123,0.035
28.71,-0.261,0.34,-0.184
28.72,-0.43,1.885,0.028
28.73,0.056,0.741,0.109
28.74,-0.207,0.771,0.008
28.75,-0.454,0.721,-0.225
28.76,-0.23,1.561,0.032
28.77,-0.115,1.141,0.198
28.78,-0.029,0.467,0.033
28.79,-0.542,0.949,-0.216
28.8,-0.15,1.597,0.04
28.81,-0.184,0.961,0.133
28.82,-0.017,0.745,0.03
28.83,-0.468,0.49,-0.213
28.84,-0.223,1.989,0.07
28.85,-0.046,0.666,0.1
28.86,-0.124,0.96,0.043
28.87,-0.372,0.252,-0.231
28.88,-0.232,2.0,0.093
28.89,0.006,0.737,0.112
28.9,-0.07,0.75,0.01
28.91,-0.473,0.73,-0.208
28.92,-0.067,1.662,0.044
28.93,-0.176,1.069,0.069
28.94,0.128,0.505,-0.026
28.95,-0.548,0.971,-0.223
28.96,0.032,1.568,0.075
28.97,-0.131,1.056,0.124
28.98,0.044,0.669,0.011
28.99,-0.536,0.544,-0.138
29.0,-0.035,1.954,0.067
29.01,-0.039,0.658,0.089
29.02,-0.062,1.02,-0.039
29.03,-0.377,0.229,-0.2
29.04,-0.083,2.0,0.171
29.05,-0.206,0.655,0.124
29.06,-0.022,0.717,-0.022
29.07,-0.462,0.733,-0.248
29.08,-0.046,1.482,0.154
29.09,-0.232,1.201,0.043
29.1,0.1,0.487,-0.057
29.11,-0.5,0.933,-0.161
29.12,0.067,1.435,0.153
29.13,-0.325,1.175,0.093
29.14,0.002,0.688,-0.072
29.15,-0.408,0.51,-0.183
29.16,-0.023,1.794,0.124
29.17,-0.154,0.812,0.07
29.18,-0.107,0.937,-0.035
29.19,-0.299,0.258,-0.156
29.2,-0.186,1.72,0.112
29.21,-0.149,0.874,0.049
29.22,-0.165,0.813,-0.131
29.23,-0.233,0.641,-0.139
29.24,-0.038,1.43,0.163
29.25,-0.206,1.305,0.048
29.26,0.006,0.413,-0.126
29.27,-0.485,0.924,-0.142
29.28,-0.021,1.045,0.196
29.29,-0.295,1.326,0.012
29.3,-0.073,0.632,-0.098
29.31,-0.359,0.545,-0.083
29.32,-0.093,1.245,0.198
29.33,-0.154,0.776,0.019
29.34,-0.38,1.119,-0.123
29.35,-0.26,0.299,-0.058
29.36,-0.263,1.375,0.25
29.37,-0.178,0.969,0.036
29.38,-0.223,0.777,-0.11
29.39,-0.369,0.861,-0.079
29.4,0.077,0.848,0.166
29.41,-0.316,1.259,0.001
29.42,-0.203,0.539,-0.158
29.43,-0.387,1.198,-0.077
29.44,0.05,0.812,0.174
29.45,-0.278,1.142,0.022
29.46,-0.308,0.705,-0.108
29.47,-0.468,0.748,-0.001
29.48,-0.037,0.758,0.152
29.49,-0.212,0.933,-0.043
29.5,-0.298,0.821,-0.118
29.51,-0.253,1.384,-0.067
29.52,-0.132,1.089,0.151
29.53,-0.045,0.519,0.011
29.54,-0.425,0.932,-0.173
29.55,-0.219,1.529,-0.013
29.56,-0.134,0.836,0.181
29.57,-0.19,0.87,0.017
29.58,-0.397,0.39,-0.179
29.59,-0.321,1.836,0.061
29.6,-0.115,0.463,0.119
29.61,-0.226,1.181,0.006
29.62,-0.228,0.301,-0.194
29.63,-0.281,1.845,0.09
29.64,0.011,0.887,0.132
29.65,-0.137,0.601,0.008
29.66,-0.423,0.786,-0.196
29.67,-0.168,1.571,0.042
29.68,-0.157,1.166,0.139
29.69,-0.005,0.445,0.011
29.7,-0.544,0.898,-0.21
29.71,-0.156,1.607,0.114
29.72,-0.208,0.885,0.091
29.73,-0.144,0.705,0.062
29.74,-0.428,0.466,-0.157
29.75,-0.165,1.97,0.056
29.76,0.056,0.687,0.15
29.77,-0.09,0.977,-0.003
29.78,-0.4,0.29,-0.181
29.79,-0.15,1.978,0.124
29.8,-0.091,0.768,0.084
29.81,-0.057,0.684,-0.057
29.82,-0.494,0.783,-0.197
29.83,-0.025,1.536,0.141
29.84,-0.174,1.164,0.101
29.85,0.108,0.401,-0.059
29.86,-0.506,0.971,-0.166
29.87,-0.036,1.431,0.089
29.88,-0.212,1.039,0.031
29.89,0.061,0.833,-0.069
29.9,-0.334,0.418,-0.161
29.91,-0.082,1.89,0.134
29.92,-0.025,0.686,0.097
29.93,-0.14,0.98,-0.046
29.94,-0.406,0.293,-0.134
29.95,-0.183,1.754,0.142
29.96,-0.255,0.895,0.074
29.97,-0.048,0.654,-0.05
29.98,-0.414,0.734,-0.137
29.99,-0.088,1.14,0.169
30.0,-0.356,1.286,0.075
30.01,-0.035,0.452,-0.038
30.02,-0.443,0.894,-0.143
30.03,-0.039,1.213,0.171
30.04,-0.262,1.314,0.02
30.05,-0.111,0.729,-0.112
30.06,-0.273,0.413,-0.114
30.07,-0.184,1.531,0.159
30.08,-0.165,0.906,0.038
30.09,-0.13,1.042,-0.165
30.1,-0.318,0.261,-0.113
30.11,-0.073,1.44,0.206
30.12,-0.224,1.057,0.017
30.13,-0.201,0.619,-0.156
30.14,-0.418,0.831,-0.119
30.15,-0.003,0.909,0.213
30.16,-0.393,1.334,0.025
30.17,-0.152,0.474,-0.094
30.18,-0.508,1.094,-0.028
30.19,0.065,0.828,0.218
30.2,-0.256,1.154,0.013
30.21,-0.317,0.783,-0.183
30.22,-0.318,0.72,-0.028
30.23,-0.115,1.186,0.139
30.24,-0.176,0.693,0.006
30.25,-0.295,0.988,-0.109
30.26,-0.308,0.917,-0.078
30.27,-0.047,1.109,0.176
30.28,-0.259,0.794,-0.006
30.29,-0.462,0.884,-0.118
30.3,-0.224,1.443,-0.032
30.31,-0.181,0.738,0.16
30.32,-0.176,1.035,-0.015
30.33,-0.297,0.43,-0.195
30.34,-0.319,1.783,0.023
30.35,-0.09,0.476,0.142
30.36,-0.223,1.178,0.005
30.37,-0.326,0.348,-0.146
30.38,-0.306,1.799,0.039
30.39,-0.073,0.777,0.121
30.4,-0.095,0.652,0.006
30.41,-0.49,0.843,-0.212
30.42,-0.104,1.525,0.078
30.43,-0.155,1.177,0.192
30.44,-0.044,0.427,0.044
30.45,-0.491,0.882,-0.243
30.46,-0.091,1.654,0.087
30.47,-0.083,0.834,0.117
30.48,-0.128,0.758,0.02
30.49,-0.433,0.355,-0.155
30.5,-0.145,2.0,0.089
30.51,-0.029,0.556,0.079
30.52,-0.043,1.023,-0.022
30.53,-0.483,0.336,-0.215
30.54,-0.154,1.908,0.121
30.55,-0.112,0.906,0.087
30.56,0.02,0.574,-0.029
30.57,-0.564,0.827,-0.177
30.58,-0.026,1.591,0.221
30.59,-0.254,1.184,0.142
30.6,0.128,0.442,-0.012
30.61,-0.549,0.903,-0.247
30.62,0.011,1.625,0.164
30.63,-0.23,0.984,0.08
30.64,0.042,0.816,-0.059
30.65,-0.382,0.39,-0.165
30.66,-0.135,1.871,0.113
30.67,-0.176,0.671,0.089
30.68,-0.106,0.973,-0.059
30.69,-0.359,0.289,-0.169
30.7,-0.103,1.739,0.159
30.71,-0.232,0.997,0.043
30.72,-0.021,0.627,-0.102
30.73,-0.448,0.796,-0.202
30.74,0.049,1.354,0.18
30.75,-0.34,1.382,0.022
30.76,0.05,0.411,-0.08
30.77,-0.49,0.816,-0.145
30.78,-0.05,1.18,0.165
30.79,-0.292,1.093,-0.011
30.8,-0.202,0.892,-0.147
30.81,-0.283,0.361,-0.063
30.82,-0.142,1.367,0.202
30.83,-0.135,0.841,-0.011
30.84,-0.249,1.098,-0.155
30.85,-0.355,0.387,-0.086
30.86,-0.055,1.199,0.184
30.87,-0.286,1.091,0.003
30.88,-0.248,0.662,-0.051
30.89,-0.418,0.964,-0.056
30.9,0.025,0.795,0.172
30.91,-0.303,1.44,-0.028
30.92,-0.194,0.414,-0.129
30.93,-0.347,1.119,-0.08
30.94,0.058,0.857,0.149
30.95,-0.247,1.085,0.022
30.96,-0.349,0.816,-0.192
30.97,-0.134,1.113,-0.087
30.98,-0.066,1.135,0.18
30.99,-0.143,0.553,0.021
31.0,-0.431,1.042,-0.122
31.01,-0.331,1.391,-0.004
31.02,-0.065,0.954,0.165
31.03,-0.201,0.793,0.009
31.04,-0.421,0.623,-0.143
31.05,-0.389,1.917,0.044
31.06,-0.035,0.572,0.13
31.07,-0.24,1.106,0.056
31.08,-0.25,0.326,-0.209
31.09,-0.375,1.952,0.081
31.1,0.008,0.568,0.07
31.11,-0.063,0.992,-0.019
31.12,-0.404,0.351,-0.281
31.13,-0.037,1.901,0.025
31.14,-0.076,0.895,0.026
31.15,0.071,0.512,-0.058
31.16,-0.587,0.937,-0.202
31.17,-0.022,1.516,0.069
31.18,-0.177,1.17,0.111
31.19,0.079,0.503,-0.004
31.2,-0.505,0.811,-0.168
31.21,-0.024,1.841,0.072
31.22,-0.199,0.786,0.104
31.23,-0.018,0.886,-0.032
31.24,-0.471,0.328,-0.125
31.25,-0.223,1.98,0.21
31.26,-0.075,0.651,0.121
31.27,-0.077,0.914,-0.047
31.28,-0.345,0.349,-0.128
31.29,-0.13,1.64,0.175
31.3,-0.212,1.079,0.086
31.31,-0.003,0.489,-0.091
31.32,-0.427,0.898,-0.152
31.33,0.089,1.426,0.184
31.34,-0.274,1.304,0.061
31.35,0.071,0.46,-0.049
31.36,-0.429,0.744,-0.149
31.37,-0.085,1.427,0.155
31.38,-0.238,1.073,0.028
31.39,-0.07,0.871,-0.13
31.4,-0.277,0.248,-0.113
31.41,-0.118,1.759,0.166
31.42,-0.118,0.818,0.083
31.43,-0.201,1.037,-0.123
31.44,-0.292,0.397,-0.134
31.45,-0.169,1.489,0.219
31.46,-0.271,1.299,-0.001
31.47,-0.042,0.432,-0.076
31.48,-0.413,0.928,-0.081
31.49,0.024,0.817,0.161
31.5,-0.316,1.33,-0.052
31.51,-0.218,0.63,-0.136
31.52,-0.365,0.9,-0.062
31.53,-0.062,0.957,0.201
31.54,-0.129,0.973,0.041
31.55,-0.406,0.941,-0.183
31.56,-0.218,0.606,-0.041
31.57,-0.183,1.22,0.164
31.58,-0.225,0.691,0.008
31.59,-0.311,0.922,-0.124
31.6,-0.183,1.339,-0.069
31.61,-0.016,1.0,0.192
31.62,-0.197,0.875,-0.008
31.63,-0.356,0.608,-0.152
31.64,-0.358,1.514,-0.011
31.65,0.05,0.646,0.142
31.66,-0.254,1.258,0.055
31.67,-0.271,0.449,-0.185
31.68,-0.366,1.574,0.023
31.69,-0.056,0.739,0.161
31.7,-0.228,0.87,-0.028
31.71,-0.323,0.783,-0.188
31.72,-0.213,1.465,-0.026
31.73,-0.08,1.142,0.16
31.74,-0.015,0.446,0.057
31.75,-0.486,0.971,-0.233
31.76,-0.262,1.534,0.058
31.77,-0.19,0.81,0.135
31.78,-0.11,0.882,0.028
31.79,-0.313,0.369,-0.224
31.8,-0.33,2.0,0.111
31.81,-0.013,0.604,0.183
31.82,-0.239,1.012,0.046
31.83,-0.34,0.252,-0.175
31.84,-0.27,2.0,0.078
31.85,-0.057,0.847,0.108
31.86,-0.142,0.635,0.024
31.87,-0.501,0.738,-0.189
31.88,-0.168,1.601,0.124
31.89,-0.278,1.021,0.121
31.9,-0.012,0.476,0.053
31.91,-0.553,0.972,-0.183
31.92,0.025,1.512,0.133
31.93,-0.115,1.138,0.046
31.94,0.122,0.565,-0.055
31.95,-0.437,0.706,-0.215
31.96,-0.035,1.683,0.081
31.97,-0.148,0.861,0.096
31.98,-0.065,0.974,-0.057
31.99,-0.395,0.22,-0.184
32.0,-0.065,1.973,0.168
32.01,-0.082,0.671,0.052
32.02,-0.124,0.936,-0.061
32.03,-0.43,0.467,-0.165
32.04,-0.114,1.601,0.19
32.05,-0.356,1.164,0.083
32.06,0.122,0.443,-0.064
32.07,-0.501,0.942,-0.168
32.08,-0.096,1.052,0.21
32.09,-0.411,1.26,0.039
32.1,-0.093,0.613,-0.048
32.11,-0.435,0.686,-0.106
32.12,0.001,1.441,0.178
32.13,-0.178,1.038,0.052
32.14,-0.215,0.971,-0.118
32.15,-0.393,0.237,-0.061
32.16,-0.2,1.587,0.196
32.17,-0.225,0.939,0.01
32.18,-0.266,0.832,-0.07
32.19,-0.385,0.64,-0.09
32.2,0.001,1.033,0.199
32.21,-0.302,1.144,-0.018
32.22,-0.153,0.603,-0.169
32.23,-0.376,1.182,-0.054
32.24,0.07,0.743,0.161
32.25,-0.312,1.271,0.021
32.26,-0.283,0.54,-0.156
32.27,-0.382,1.073,-0.018
32.28,-0.029,0.931,0.208
32.29,-0.196,0.846,-0.005
32.3,-0.363,0.944,-0.127
32.31,-0.178,1.249,-0.077
32.32,-0.117,1.258,0.218
32.33,-0.098,0.432,0.016
32.34,-0.412,0.967,-0.169
32.35,-0.304,1.304,-0.044
32.36,-0.098,0.773,0.145
32.37,-0.232,1.067,-0.028
32.38,-0.264,0.415,-0.203
32.39,-0.312,1.791,0.008
32.4,-0.034,0.541,0.15
32.41,-0.216,1.189,0.01
32.42,-0.279,0.418,-0.209
32.43,-0.267,1.778,0.009
32.44,-0.019,0.976,0.18
32.45,-0.082,0.592,0.047
32.46,-0.463,0.871,-0.215
32.47,-0.192,1.489,0.094
32.48,-0.157,1.106,0.123
32.49,-0.024,0.517,0.046
32.5,-0.455,0.877,-0.22
32.51,-0.18,1.663,0.108
32.52,-0.133,0.779,0.142
32.53,-0.078,0.837,0.04
32.54,-0.349,0.392,-0.196
32.55,-0.231,1.971,0.102
32.56,0.029,0.617,0.164
32.57,-0.078,1.052,0.027
32.58,-0.45,0.326,-0.204
32.59,-0.16,1.959,0.126
32.6,-0.214,0.759,0.085
32.61,-0.017,0.604,-0.032
32.62,-0.543,0.894,-0.187
32.63,-0.033,1.481,0.14
32.64,-0.193,1.227,0.096
32.65,0.106,0.389,-0.001
32.66,-0.531,0.931,-0.18
32.67,-0.031,1.577,0.067
32.68,-0.189,0.906,0.064
32.69,-0.035,0.857,-0.044
32.7,-0.472,0.353,-0.129
32.71,-0.153,1.95,0.224
32.72,-0.103,0.792,0.094
32.73,-0.177,0.996,-0.07
32.74,-0.321,0.237,-0.154
32.75,-0.187,1.655,0.12
32.76,-0.201,0.887,0.065
32.77,-0.115,0.739,-0.131
32.78,-0.316,0.593,-0.169
32.79,-0.038,1.183,0.15
32.8,-0.275,1.246,-0.003
32.81,-0.011,0.569,-0.16
32.82,-0.458,0.964,-0.079
32.83,-0.011,1.084,0.262
32.84,-0.333,1.492,0.091
32.85,-0.097,0.636,-0.095
32.86,-0.427,0.591,-0.07
32.87,-0.116,1.369,0.233
32.88,-0.191,1.071,-0.002
32.89,-0.245,0.88,-0.167
32.9,-0.305,0.363,-0.035
32.91,-0.13,1.352,0.173
32.92,-0.216,0.79,-0.014
32.93,-0.334,0.966,-0.142
32.94,-0.282,0.724,-0.103
32.95,-0.012,0.939,0.13
32.96,-0.264,1.25,-0.008
32.97,-0.224,0.515,-0.139
32.98,-0.337,1.234,-0.079
32.99,0.055,0.705,0.18
33.0,-0.283,1.317,-0.038
33.01,-0.269,0.526,-0.128
33.02,-0.19,1.471,-0.085
33.03,0.001,1.045,0.194
33.04,-0.13,0.614,-0.018
33.05,-0.431,1.013,-0.175
33.06,-0.191,1.035,-0.058
33.07,-0.146,1.08,0.171
33.08,-0.133,0.713,0.002
33.09,-0.336,0.871,-0.181
33.1,-0.295,1.595,-0.011
33.11,0.001,0.676,0.157
33.12,-0.243,1.067,-0.023
33.13,-0.245,0.339,-0.179
33.14,-0.421,1.963,0.051
33.15,-0.005,0.607,0.158
33.16,-0.25,1.008,0.048
33.17,-0.388,0.447,-0.22
33.18,-0.266,1.79,0.107
33.19,-0.118,0.872,0.139
33.2,-0.059,0.581,0.05
33.21,-0.44,0.876,-0.216
33.22,-0.09,1.46,0.061
33.23,-0.137,1.171,0.146
33.24,-0.023,0.479,0.034
33.25,-0.475,0.76,-0.194
33.26,-0.01,1.793,0.07
33.27,-0.071,0.839,0.15
33.28,0.002,0.832,-0.012
33.29,-0.468,0.309,-0.167
33.3,-0.121,2.0,0.14
33.31,-0.081,0.586,0.114
33.32,-0.05,0.932,-0.034
33.33,-0.424,0.471,-0.254
33.34,-0.077,1.872,0.059
33.35,-0.149,0.906,0.049
33.36,0.11,0.543,-0.057
33.37,-0.641,0.924,-0.176
33.38,-0.043,1.424,0.145
33.39,-0.297,1.234,0.096
33.4,0.084,0.535,0.017
33.41,-0.537,0.746,-0.173
33.42,0.036,1.718,0.131
33.43,-0.09,0.922,0.038
33.44,-0.031,0.896,-0.076
33.45,-0.345,0.28,-0.168
33.46,-0.072,1.975,0.179
33.47,-0.104,0.676,0.094
33.48,-0.1,0.91,-0.049
33.49,-0.341,0.398,-0.146
33.5,-0.168,1.63,0.123
33.51,-0.208,1.067,0.044
33.52,0.042,0.519,-0.091
33.53,-0.381,0.652,-0.136
33.54,-0.08,1.095,0.157
33.55,-0.338,1.338,0.1
33.56,-0.057,0.416,-0.089
33.57,-0.486,0.986,-0.046
33.58,-0.138,1.031,0.25
33.59,-0.325,1.36,0.027
33.6,-0.082,0.705,-0.1
33.61,-0.348,0.515,-0.073
33.62,-0.101,1.227,0.144
33.63,-0.187,0.897,0.043
33.64,-0.275,1.056,-0.108
33.65,-0.328,0.344,-0.041
33.66,-0.156,1.316,0.241
33.67,-0.188,0.919,0.052
33.68,-0.284,0.794,-0.128
33.69,-0.389,0.801,-0.067
33.7,0.029,0.826,0.115
33.71,-0.347,1.422,-0.004
33.72,-0.175,0.38,-0.138
33.73,-0.318,1.546,-0.058
33.74,0.073,0.676,0.196
33.75,-0.291,1.088,0.044
33.76,-0.416,0.685,-0.146
33.77,-0.339,1.047,-0.016
33.78,-0.125,1.052,0.194
33.79,-0.117,0.671,0.004
33.8,-0.401,0.957,-0.13
33.81,-0.23,1.324,-0.018
33.82,-0.081,1.025,0.187
33.83,-0.191,0.696,-0.014
33.84,-0.331,0.72,-0.168
33.85,-0.299,1.75,0.039
33.86,-0.008,0.682,0.155
33.87,-0.233,0.978,0.017
33.88,-0.331,0.317,-0.232
33.89,-0.414,2.0,0.042
33.9,-0.107,0.552,0.133
33.91,-0.255,0.951,0.007
33.92,-0.378,0.499,-0.184
33.93,-0.183,1.699,0.049
33.94,-0.084,1.063,0.161
33.95,-0.052,0.437,0.048
33.96,-0.573,0.904,-0.191
33.97,-0.047,1.565,0.075
33.98,-0.149,1.159,0.102
33.99,-0.007,0.543,-0.011
34.0,-0.555,0.7,-0.192
34.01,-0.16,0.56,0.016
34.02,-0.394,0.803,-0.185
34.03,-0.253,1.74,0.004
34.04,-0.013,0.693,0.13
34.05,-0.272,0.968,-0.01
34.06,-0.359,0.267,-0.232
34.07,-0.345,1.994,0.057
34.08,-0.153,0.509,0.137
34.09,-0.187,0.966,0.009
34.1,-0.419,0.444,-0.241
34.11,-0.108,1.828,0.028
34.12,-0.124,0.958,0.117
34.13,0.041,0.54,0.008
34.14,-0.593,0.886,-0.196
34.15,-0.013,1.535,0.084
34.16,-0.207,1.157,0.135
34.17,0.038,0.529,0.031
34.18,-0.595,0.764,-0.157
34.19,-0.083,1.748,0.14
34.2,-0.14,0.777,0.132
34.21,-0.13,0.866,0.006
34.22,-0.467,0.349,-0.127
34.23,-0.168,2.0,0.068
34.24,-0.048,0.622,0.074
34.25,-0.019,1.014,-0.017
34.26,-0.431,0.439,-0.213
34.27,-0.092,1.714,0.16
34.28,-0.212,0.958,0.0
34.29,-0.01,0.741,-0.051
34.3,-0.308,0.726,-0.15
34.31,-0.181,1.35,0.205
34.32,-0.311,1.336,0.086
34.33,-0.017,0.441,-0.074
34.34,-0.434,0.896,-0.106
34.35,-0.063,1.051,0.203
34.36,-0.292,1.218,-0.027
34.37,-0.107,0.752,-0.126
34.38,-0.31,0.506,-0.129
34.39,-0.043,1.298,0.149
34.4,-0.2,0.731,-0.071
34.41,-0.279,1.192,-0.111
34.42,-0.291,0.322,-0.077
34.43,-0.133,1.251,0.216
34.44,-0.232,1.037,-0.019
34.45,-0.25,0.749,-0.162
34.46,-0.266,1.106,-0.067
34.47,0.026,0.742,0.149
34.48,-0.323,1.234,-0.008
34.49,-0.224,0.363,-0.151
34.5,-0.315,1.757,-0.045
34.51,0.042,0.727,0.2
34.52,-0.245,0.991,0.045
34.53,-0.365,0.397,-0.245
34.54,-0.243,1.86,-0.053
34.55,-0.045,0.751,0.059
34.56,-0.107,0.729,-0.003
34.57,-0.374,0.786,-0.252
34.58,-0.118,1.474,-0.01
34.59,-0.222,1.081,0.101
34.6,-0.018,0.474,0.075
34.61,-0.566,0.779,-0.184
34.62,-0.021,1.686,0.055
34.63,-0.054,0.924,0.129
34.64,0.07,0.84,0.022
34.65,-0.567,0.391,-0.197
34.66,-0.105,2.0,0.143
34.67,-0.16,0.568,0.071
34.68,-0.122,0.995,-0.036
34.69,-0.416,0.348,-0.158
34.7,-0.222,1.954,0.174
34.71,-0.094,0.833,0.139
34.72,0.003,0.621,-0.024
34.73,-0.556,0.824,-0.15
34.74,-0.11,1.363,0.152
34.75,-0.272,1.298,0.035
34.76,0.033,0.473,-0.003
34.77,-0.477,0.886,-0.158
34.78,0.031,1.66,0.153
34.79,-0.168,0.924,0.085
34.8,-0.03,0.856,-0.07
34.81,-0.472,0.364,-0.14
34.82,-0.093,1.804,0.143
34.83,-0.226,0.756,0.08
34.84,-0.132,0.908,-0.029
34.85,-0.359,0.335,-0.093
34.86,-0.149,1.336,0.13
34.87,-0.321,0.925,0.047
34.88,-0.071,0.775,-0.14
34.89,-0.471,0.846,-0.111
34.9,-0.001,1.138,0.227
34.91,-0.358,1.426,0.067
34.92,0.056,0.493,-0.131
34.93,-0.534,0.873,-0.083
34.94,0.009,0.938,0.225
34.95,-0.284,1.291,0.02
34.96,-0.18,0.694,-0.124
34.97,-0.243,0.831,-0.034
34.98,-0.097,1.274,0.187
34.99,-0.184,0.512,0.085
35.0,-0.452,1.166,-0.095
35.01,-0.368,0.452,-0.048
35.02,-0.177,1.193,0.239
35.03,-0.209,1.046,0.02
35.04,-0.207,0.637,-0.144
35.05,-0.303,1.343,-0.078
35.06,0.069,0.634,0.159
35.07,-0.34,1.336,0.024
35.08,-0.236,0.411,-0.133
35.09,-0.291,1.934,-0.023
35.1,0.118,0.743,0.17
35.11,-0.157,0.935,0.021
35.12,-0.375,0.553,-0.238
35.13,-0.293,1.605,-0.007
35.14,-0.244,0.825,0.121
35.15,-0.153,0.668,0.046
35.16,-0.33,0.818,-0.203
35.17,-0.206,1.392,0.101
35.18,-0.112,1.152,0.151
35.19,-0.08,0.484,0.063
35.2,-0.429,0.788,-0.114
35.21,-0.237,1.7,0.078
35.22,-0.046,0.852,0.171
35.23,0.026,0.954,0.015
35.24,-0.417,0.359,-0.246
35.25,-0.262,2.0,0.145
35.26,-0.203,0.529,0.061
35.27,-0.172,1.0,0.019
35.28,-0.381,0.287,-0.223
35.29,-0.016,1.916,0.039
35.3,-0.02,0.99,0.047
35.31,0.02,0.443,-0.084
35.32,-0.501,0.852,-0.256
35.33,0.025,1.594,0.056
35.34,-0.228,1.171,0.104
35.35,0.081,0.565,0.022
35.36,-0.567,0.87,-0.207
35.37,-0.05,1.767,0.15
35.38,-0.261,0.748,0.09
35.39,-0.035,0.847,-0.004
35.4,-0.499,0.376,-0.163
35.41,-0.178,1.872,0.163
35.42,-0.076,0.715,0.064
35.43,-0.112,0.937,0.005
35.44,-0.366,0.337,-0.179
35.45,-0.075,1.817,0.184
35.46,-0.114,0.984,0.052
35.47,0.014,0.606,-0.054
35.48,-0.561,0.879,-0.178
35.49,0.015,1.474,0.238
35.5,-0.269,1.238,0.091
35.51,0.092,0.466,-0.029
35.52,-0.527,0.866,-0.194
35.53,-0.057,1.379,0.048
35.54,-0.289,1.007,0.056
35.55,-0.065,0.899,-0.042
35.56,-0.424,0.289,-0.11
35.57,-0.165,1.752,0.181
35.58,-0.115,0.787,0.118
35.59,-0.246,0.967,-0.132
35.6,-0.361,0.376,-0.131
35.61,-0.113,1.625,0.162
35.62,-0.211,1.169,0.067
35.63,0.004,0.483,-0.067
35.64,-0.426,0.882,-0.174
35.65,0.01,0.912,0.15
35.66,-0.345,1.392,0.042
35.67,-0.094,0.501,-0.079
35.68,-0.438,0.789,-0.087
35.69,-0.028,1.086,0.216
35.7,-0.211,1.111,0.04
35.71,-0.22,0.941,-0.176
35.72,-0.333,0.342,-0.102
35.73,-0.126,1.557,0.187
35.74,-0.223,0.916,0.021
35.75,-0.139,0.919,-0.123
35.76,-0.371,0.616,-0.119
35.77,0.021,1.115,0.153
35.78,-0.262,1.055,-0.057
35.79,-0.249,0.72,-0.174
35.8,-0.347,1.19,-0.054
35.81,0.015,0.767,0.199
35.82,-0.248,1.211,0.077
35.83,-0.291,0.555,-0.18
35.84,-0.458,0.968,-0.083
35.85,-0.009,0.925,0.148
35.86,-0.275,1.098,-0.011
35.87,-0.226,0.724,-0.13
35.88,-0.315,1.136,-0.07
35.89,0.006,1.204,0.193
35.9,-0.15,0.519,0.005
35.91,-0.407,1.08,-0.159
35.92,-0.252,1.305,-0.03
35.93,-0.109,1.033,0.154
35.94,-0.128,0.628,-0.004
35.95,-0.492,0.796,-0.187
35.96,-0.249,1.641,0.01
35.97,-0.199,0.596,0.12
35.98,-0.259,1.127,0.015
35.99,-0.166,0.291,-0.189
36.0,-0.363,1.972,0.042
36.01,0.029,0.666,0.151
36.02,-0.206,0.91,0.074
36.03,-0.419,0.487,-0.18
36.04,-0.317,1.759,0.091
36.05,-0.14,1.025,0.154
36.06,-0.081,0.525,0.062
36.07,-0.526,0.914,-0.212
36.08,-0.204,1.505,0.105
36.09,-0.247,0.938,0.107
36.1,-0.109,0.618,0.069
36.11,-0.38,0.726,-0.197
36.12,-0.029,1.729,0.034
36.13,0.04,0.816,0.077
36.14,-0.051,0.918,-0.031
36.15,-0.293,0.255,-0.274
36.16,-0.161,2.0,0.09
36.17,-0.048,0.663,0.069
36.18,-0.138,0.922,0.002
36.19,-0.377,0.451,-0.25
36.2,-0.189,1.836,0.128
36.21,-0.171,0.922,0.074
36.22,-0.047,0.465,-0.035
36.23,-0.483,0.902,-0.208
36.24,-0.033,1.507,0.036
36.25,-0.084,1.188,0.071
36.26,0.127,0.5,-0.022
36.27,-0.482,0.802,-0.207
36.28,-0.061,1.7,0.18
36.29,-0.139,0.793,0.103
36.3,-0.059,1.017,-0.041
36.31,-0.481,0.278,-0.18
36.32,-0.103,2.0,0.247
36.33,-0.128,0.66,0.095
36.34,-0.105,0.878,0.004
36.35,-0.434,0.496,-0.191
36.36,-0.252,1.565,0.172
36.37,-0.196,1.095,0.098
36.38,-0.03,0.517,-0.033
36.39,-0.44,0.951,-0.138
36.4,-0.025,1.381,0.189
36.41,-0.293,1.299,0.16
36.42,0.008,0.524,-0.044
36.43,-0.512,0.749,-0.15
36.44,0.025,1.599,0.143
36.45,-0.158,0.932,0.05
36.46,-0.084,0.889,-0.022
36.47,-0.387,0.298,-0.127
36.48,-0.237,1.594,0.152
36.49,-0.23,0.748,0.062
36.5,-0.206,0.983,-0.107
36.51,-0.302,0.43,-0.179
36.52,-0.135,1.304,0.174
36.53,-0.218,1.198,0.003
36.54,-0.069,0.549,-0.13
36.55,-0.418,0.922,-0.131
36.56,-0.078,0.949,0.214
36.57,-0.308,1.428,0.06
36.58,-0.091,0.317,-0.12
36.59,-0.384,0.885,-0.14
36.6,-0.017,1.08,0.118
36.61,-0.29,0.863,-0.025
36.62,-0.274,1.029,-0.128
36.63,-0.369,0.318,-0.099
36.64,-0.104,1.347,0.242
36.65,-0.189,0.79,0.052
36.66,-0.28,1.064,-0.124
36.67,-0.408,0.508,-0.048
36.68,-0.101,1.124,0.241
36.69,-0.339,1.271,-0.038
36.7,-0.073,0.497,-0.12
36.71,-0.257,1.634,-0.094
36.72,0.134,0.792,0.187
36.73,-0.31,1.058,-0.012
36.74,-0.24,0.414,-0.19
36.75,-0.401,1.584,-0.006
36.76,0.073,0.677,0.145
36.77,-0.289,1.062,-0.018
36.78,-0.336,0.718,-0.169
36.79,-0.262,1.345,-0.009
36.8,-0.11,0.998,0.179
36.81,-0.138,0.594,0.018
36.82,-0.374,0.982,-0.159
36.83,-0.198,1.323,0.017
36.84,0.07,1.215,0.147
36.85,-0.101,0.527,0.014
36.86,-0.425,0.686,-0.225
36.87,-0.312,1.845,0.01
36.88,-0.202,0.55,0.112
36.89,-0.211,1.119,0.045
36.9,-0.306,0.266,-0.232
36.91,-0.274,1.999,0.051
36.92,-0.115,0.562,0.09
36.93,-0.179,0.847,0.023
36.94,-0.37,0.494,-0.183
36.95,-0.07,1.741,0.039
36.96,0.023,1.204,0.156
36.97,0.093,0.452,-0.015
36.98,-0.616,0.888,-0.207
36.99,0.015,1.551,0.066
37.0,-0.319,0.955,0.046
37.01,0.014,0.663,0.046
37.02,-0.675,0.671,-0.191
37.03,0.015,1.865,0.128
37.04,-0.187,0.755,0.122
37.05,-0.069,0.889,0.036
37.06,-0.48,0.3,-0.141
37.07,-0.259,1.923,0.084
37.08,-0.115,0.696,0.078
37.09,-0.027,0.947,-0.002
37.1,-0.473,0.469,-0.168
37.11,0.003,1.772,0.187
37.12,-0.258,1.039,0.107
37.13,0.007,0.463,-0.042
37.14,-0.516,0.953,-0.208
37.15,0.041,1.528,0.222
37.16,-0.248,1.181,0.096
37.17,-0.01,0.487,-0.009
37.18,-0.489,0.732,-0.093
37.19,-0.21,1.491,0.078
37.2,-0.174,0.812,0.031
37.21,-0.134,0.967,-0.116
37.22,-0.344,0.209,-0.1
37.23,-0.07,1.964,0.181
37.24,-0.065,0.748,0.072
37.25,-0.17,0.887,-0.082
37.26,-0.436,0.483,-0.194
37.27,-0.08,1.534,0.141
37.28,-0.318,1.289,0.058
37.29,0.08,0.404,-0.088
37.3,-0.469,0.906,-0.142
37.31,0.045,0.956,0.155
37.32,-0.305,1.306,0.004
37.33,-0.122,0.673,-0.156
37.34,-0.343,0.645,-0.123
37.35,-0.122,1.307,0.172
37.36,-0.119,1.03,-0.018
37.37,-0.229,1.032,-0.135
37.38,-0.33,0.262,-0.098
37.39,-0.248,1.471,0.272
37.4,-0.169,0.965,0.007
37.41,-0.254,0.77,-0.098
37.42,-0.266,0.749,-0.093
37.43,-0.067,1.012,0.156
37.44,-0.293,1.075,-0.029
37.45,-0.245,0.564,-0.159
37.46,-0.38,1.065,-0.059
37.47,-0.052,0.788,0.208
37.48,-0.3,1.431,0.084
37.49,-0.311,0.477,-0.165
37.5,-0.279,0.986,-0.051
37.51,-0.002,0.984,0.145
37.52,-0.165,1.057,-0.024
37.53,-0.434,0.771,-0.182
37.54,-0.155,1.455,-0.06
37.55,-0.136,1.054,0.166
37.56,-0.118,0.539,0.058
37.57,-0.469,0.977,-0.185
37.58,-0.265,1.355,0.064
37.59,-0.192,0.902,0.139
37.6,-0.192,0.793,0.025
37.61,-0.404,0.536,-0.18
37.62,-0.29,1.865,0.048
37.63,-0.084,0.498,0.097
37.64,-0.167,1.061,0.015
37.65,-0.356,0.264,-0.201
37.66,-0.259,1.988,0.104
37.67,-0.042,0.737,0.141
37.68,-0.196,0.793,0.052
37.69,-0.468,0.609,-0.228
37.7,-0.09,1.715,0.061
37.71,-0.153,1.077,0.1
37.72,0.009,0.441,0.001
37.73,-0.541,0.918,-0.222
37.74,0.045,1.559,0.044
37.75,-0.105,1.107,0.07
37.76,0.074,0.577,-0.034
37.77,-0.469,0.644,-0.205
37.78,-0.059,1.843,0.054
37.79,0.025,0.681,0.078
37.8,-0.007,1.0,-0.062
37.81,-0.484,0.295,-0.185
37.82,-0.211,2.0,0.171
37.83,-0.156,0.628,0.145
37.84,0.005,0.861,-0.023
37.85,-0.51,0.646,-0.205
37.86,-0.105,1.524,0.17
37.87,-0.246,1.173,0.072
37.88,0.117,0.449,-0.05
37.89,-0.529,0.981,-0.152
37.9,-0.028,1.357,0.192
37.91,-0.323,1.197,0.078
37.92,-0.032,0.637,0.0
37.93,-0.454,0.615,-0.126
37.94,-0.078,1.762,0.158
37.95,-0.193,0.749,0.039
37.96,-0.088,0.983,-0.085
37.97,-0.314,0.234,-0.142
37.98,-0.188,1.724,0.128
37.99,-0.204,0.886,0.062
38.0,-0.149,0.748,-0.109
38.01,-0.367,0.527,-0.135
38.02,-0.035,1.291,0.139
38.03,-0.295,1.271,0.03
38.04,-0.014,0.407,-0.122
38.05,-0.481,0.95,-0.134
38.06,-0.106,1.078,0.231
38.07,-0.353,1.379,0.067
38.08,-0.14,0.594,-0.053
38.09,-0.453,0.593,-0.053
38.1,-0.101,1.197,0.21
38.11,-0.183,0.958,0.02
38.12,-0.309,0.937,-0.109
38.13,-0.286,0.305,-0.064
38.14,-0.103,1.355,0.187
38.15,-0.241,0.763,0.02
38.16,-0.234,0.991,-0.14
38.17,-0.429,0.639,-0.126
38.18,-0.007,0.998,0.222
38.19,-0.299,1.318,0.041
38.2,-0.185,0.497,-0.168
38.21,-0.395,1.177,-0.072
38.22,0.068,0.773,0.161
38.23,-0.367,1.283,-0.011
38.24,-0.189,0.568,-0.125
38.25,-0.359,1.163,-0.086
38.26,0.029,1.006,0.19
38.27,-0.19,0.694,0.002
38.28,-0.434,1.043,-0.177
38.29,-0.297,0.663,-0.045
38.3,-0.157,1.153,0.176
38.31,-0.195,0.778,0.022
38.32,-0.364,0.818,-0.129
38.33,-0.17,1.459,-0.029
38.34,-0.118,0.885,0.123
38.35,-0.13,0.825,-0.009
38.36,-0.391,0.564,-0.183
38.37,-0.281,1.888,0.036
38.38,0.01,0.701,0.21
38.39,-0.205,1.037,0.077
38.4,-0.398,0.354,-0.193
38.41,-0.366,1.982,0.059
38.42,-0.108,0.647,0.102
38.43,-0.163,0.823,0.012
38.44,-0.386,0.61,-0.258
38.45,-0.175,1.599,0.052
38.46,-0.134,1.091,0.129
38.47,0.015,0.385,0.022
38.48,-0.546,0.944,-0.188
38.49,-0.057,1.573,0.055
38.5,-0.196,0.938,0.104
38.51,0.01,0.706,0.022
38.52,-0.522,0.517,-0.21
38.53,-0.133,1.996,0.078
38.54,-0.158,0.586,0.134
38.55,-0.089,1.009,0.044
38.56,-0.522,0.244,-0.197
38.57,-0.016,1.993,0.109
38.58,-0.058,0.807,0.131
38.59,-0.04,0.697,-0.004
38.6,-0.5,0.706,-0.234
38.61,-0.049,1.639,0.092
38.62,-0.15,1.126,0.117
38.63,0.15,0.466,-0.07
38.64,-0.57,1.024,-0.194
38.65,-0.006,1.524,0.156
38.66,-0.168,1.046,0.098
38.67,0.13,0.713,-0.028
38.68,-0.529,0.623,-0.236
38.69,-0.039,1.798,0.114
38.7,-0.089,0.71,0.023
38.71,0.009,1.049,-0.019
38.72,-0.388,0.266,-0.184
38.73,-0.095,1.893,0.163
38.74,-0.126,0.747,0.065
38.75,-0.015,0.815,-0.07
38.76,-0.402,0.682,-0.228
38.77,-0.027,1.509,0.165
38.78,-0.223,1.239,0.054
38.79,-0.041,0.367,0.011
38.8,-0.472,0.973,-0.138
38.81,-0.106,1.26,0.178
38.82,-0.319,1.254,0.059
38.83,-0.067,0.654,-0.069
38.84,-0.33,0.484,-0.137
38.85,-0.134,1.639,0.169
38.86,-0.064,0.897,0.048
38.87,-0.263,0.937,-0.123
38.88,-0.303,0.233,-0.12
38.89,-0.208,1.657,0.153
38.9,-0.24,0.981,0.013
38.91,-0.108,0.723,-0.154
38.92,-0.312,0.651,-0.15
38.93,-0.081,1.038,0.216
38.94,-0.371,1.384,0.034
38.95,-0.173,0.412,-0.095
38.96,-0.464,0.937,-0.071
38.97,-0.019,0.936,0.213
38.98,-0.313,1.303,0.007
38.99,-0.143,0.703,-0.134
39.0,-0.384,0.573,-0.077
39.01,-0.07,1.221,0.232
39.02,-0.184,0.999,0.05
39.03,-0.339,0.937,-0.144
39.04,-0.223,0.681,-0.042
39.05,-0.072,1.177,0.15
39.06,-0.145,0.741,0.007
39.07,-0.308,0.876,-0.137
39.08,-0.302,1.352,-0.11
39.09,0.009,0.811,0.173
39.1,-0.212,1.074,0.011
39.11,-0.296,0.425,-0.142
39.12,-0.373,1.646,-0.084
39.13,-0.016,0.618,0.162
39.14,-0.31,1.199,0.047
39.15,-0.344,0.327,-0.151
39.16,-0.35,1.9,0.018
39.17,-0.057,0.772,0.175
39.18,-0.127,0.729,0.018
39.19,-0.396,0.809,-0.229
39.2,-0.201,1.516,0.027
39.21,-0.137,1.082,0.121
39.22,0.008,0.505,0.079
39.23,-0.444,0.861,-0.221
39.24,-0.119,1.593,0.074
39.25,-0.163,1.018,0.142
39.26,-0.036,0.679,0.026
39.27,-0.42,0.492,-0.18
39.28,-0.196,1.985,0.116
39.29,-0.082,0.611,0.14
39.3,-0.138,1.009,0.06
39.31,-0.419,0.277,-0.211
39.32,-0.163,2.0,0.097
39.33,-0.114,0.745,0.087
39.34,0.0,0.687,-0.027
39.35,-0.512,0.729,-0.229
39.36,-0.005,1.59,0.062
39.37,-0.137,1.205,0.13
39.38,0.149,0.415,-0.062
39.39,-0.538,1.007,-0.216
39.4,0.025,1.626,0.045
39.41,-0.125,1.0,0.086
39.42,0.049,0.772,-0.039
39.43,-0.486,0.542,-0.198
39.44,-0.154,1.955,0.071
39.45,-0.105,0.668,0.173
39.46,-0.091,0.977,0.016
39.47,-0.522,0.288,-0.125
39.48,-0.182,1.946,0.16
39.49,-0.164,0.795,0.099
39.5,0.031,0.746,-0.007
39.51,-0.484,0.736,-0.207
39.52,0.041,1.597,0.144
39.53,-0.199,1.177,0.039
39.54,0.099,0.432,-0.069
39.55,-0.499,0.986,-0.226
39.56,0.022,1.504,0.139
39.57,-0.214,1.124,0.022
39.58,0.057,0.665,-0.079
39.59,-0.362,0.482,-0.151
39.6,-0.151,1.795,0.063
39.61,-0.179,0.727,0.11
39.62,-0.111,0.995,-0.072
39.63,-0.336,0.189,-0.133
39.64,-0.049,1.882,0.15
39.65,-0.238,0.842,0.13
39.66,-0.067,0.703,-0.018
39.67,-0.466,0.731,-0.206
39.68,0.018,1.483,0.163
39.69,-0.316,1.284,0.045
39.7,0.044,0.381,-0.02
39.71,-0.445,0.92,-0.161
39.72,-0.068,1.194,0.145
39.73,-0.282,1.233,0.059
39.74,-0.076,0.657,-0.11
39.75,-0.347,0.451,-0.164
39.76,-0.064,1.607,0.113
39.77,-0.146,0.831,0.075
39.78,-0.131,1.003,-0.11
39.79,-0.41,0.269,-0.152
39.8,-0.092,1.659,0.189
39.81,-0.271,0.996,0.023
39.82,-0.031,0.718,-0.094
39.83,-0.408,0.713,-0.156
39.84,-0.012,1.009,0.19
39.85,-0.385,1.385,0.044
39.86,-0.045,0.419,-0.08
39.87,-0.485,0.928,-0.081
39.88,0.038,0.965,0.219
39.89,-0.294,1.272,0.065
39.9,-0.144,0.725,-0.148
39.91,-0.418,0.49,-0.101
39.92,-0.121,1.308,0.227
39.93,-0.165,0.949,0.026
39.94,-0.291,0.953,-0.112
39.95,-0.232,0.729,-0.084
39.96,-0.109,1.267,0.21
39.97,-0.146,0.61,0.04
39.98,-0.322,1.015,-0.105
39.99,-0.177,1.04,-0.106
40.0,-0.031,1.004,0.176
40.01,-0.229,0.966,-0.032
40.02,-0.215,0.534,-0.104
40.03,-0.421,1.216,-0.086
40.04,0.061,0.7,0.166
40.05,-0.269,1.272,0.041
40.06,-0.293,0.46,-0.147
40.07,-0.334,1.497,-0.086
40.08,-0.017,0.851,0.16
40.09,-0.16,0.862,-0.005
40.1,-0.349,0.906,-0.188
40.11,-0.174,1.209,-0.1
40.12,-0.072,1.21,0.181
40.13,-0.003,0.55,0.048
40.14,-0.564,1.057,-0.143
40.15,-0.354,0.856,-0.007
40.16,-0.122,0.889,0.156
40.17,-0.118,1.121,-0.04
40.18,-0.267,0.519,-0.195
40.19,-0.28,1.869,-0.054
40.2,0.003,0.632,0.182
40.21,-0.244,1.134,0.005
40.22,-0.295,0.374,-0.179
40.23,-0.29,1.84,-0.08
40.24,0.04,0.887,0.136
40.25,-0.068,0.692,0.017
40.26,-0.445,0.825,-0.274
40.27,-0.147,1.37,-0.048
40.28,-0.205,0.973,0.092
40.29,-0.094,0.598,0.073
40.3,-0.347,0.878,-0.215
40.31,-0.265,1.477,0.038
40.32,-0.153,0.842,0.152
40.33,-0.162,0.798,0.086
40.34,-0.376,0.44,-0.17
40.35,-0.279,1.961,0.095
40.36,0.043,0.756,0.146
40.37,-0.125,1.053,0.027
40.38,-0.326,0.27,-0.222
40.39,-0.235,1.995,0.019
40.4,-0.122,0.693,0.076
40.41,-0.087,0.746,0.008
40.42,-0.32,0.681,-0.277
40.43,-0.021,1.561,0.016
40.44,-0.114,1.189,0.114
40.45,0.078,0.414,0.061
40.46,-0.443,0.885,-0.192
40.47,-0.035,1.573,0.034
40.48,-0.108,0.968,0.094
40.49,-0.026,0.751,0.018
40.5,-0.447,0.456,-0.177
40.51,-0.255,2.0,0.165
40.52,-0.24,0.479,0.092
40.53,-0.19,1.041,0.028
40.54,-0.281,0.216,-0.216
40.55,-0.172,2.0,0.058
40.56,-0.025,0.822,0.131
40.57,-0.067,0.68,0.011
40.58,-0.448,0.715,-0.224
40.59,0.001,1.638,0.099
40.6,-0.239,1.068,0.105
40.61,0.07,0.471,0.015
40.62,-0.554,0.979,-0.226
40.63,0.029,1.605,0.116
40.64,-0.235,0.967,0.101
40.65,0.039,0.71,0.042
40.66,-0.545,0.533,-0.107
40.67,-0.111,1.98,0.09
40.68,-0.034,0.682,0.112
40.69,0.012,1.022,-0.022
40.7,-0.515,0.298,-0.135
40.71,-0.143,2.0,0.173
40.72,-0.181,0.722,0.106
40.73,0.068,0.75,-0.017
40.74,-0.485,0.786,-0.257
40.75,0.042,1.614,0.159
40.76,-0.213,1.052,0.051
40.77,0.033,0.468,-0.05
40.78,-0.489,0.974,-0.159
40.79,-0.003,1.323,0.144
40.8,-0.309,1.284,0.087
40.81,0.055,0.493,-0.064
40.82,-0.464,0.74,-0.173
40.83,-0.016,1.531,0.115
40.84,-0.179,0.985,0.071
40.85,-0.125,0.932,-0.048
40.86,-0.376,0.27,-0.146
40.87,-0.059,1.891,0.206
40.88,-0.144,0.753,0.096
40.89,-0.114,0.901,-0.053
40.9,-0.386,0.415,-0.171
40.91,-0.145,1.492,0.186
40.92,-0.253,1.255,0.058
40.93,0.031,0.444,-0.074
40.94,-0.384,0.938,-0.186
40.95,-0.047,1.173,0.17
40.96,-0.262,1.338,0.066
40.97,-0.045,0.467,-0.101
40.98,-0.443,0.72,-0.167
40.99,-0.074,1.327,0.171
41.0,-0.185,1.069,0.011
41.01,-0.143,0.867,-0.106
41.02,-0.344,0.268,-0.146
41.03,-0.097,1.467,0.171
41.04,-0.189,0.741,0.01
41.05,-0.217,0.954,-0.14
41.06,-0.353,0.43,-0.106
41.07,-0.077,1.219,0.209
41.08,-0.313,1.167,0.041
41.09,-0.114,0.604,-0.123
41.1,-0.513,0.919,-0.095
41.11,-0.058,0.942,0.28
41.12,-0.321,1.527,0.076
41.13,-0.089,0.377,-0.107
41.14,-0.482,0.809,-0.094
41.15,-0.009,1.048,0.144
41.16,-0.24,1.098,-0.014
41.17,-0.25,0.876,-0.137
41.18,-0.312,0.425,-0.068
41.19,-0.133,1.318,0.191
41.2,-0.146,0.73,0.054
41.21,-0.386,1.063,-0.094
41.22,-0.35,0.46,-0.072
41.23,-0.172,1.129,0.211
41.24,-0.231,1.273,0.011
41.25,-0.186,0.563,-0.125
41.26,-0.384,1.147,-0.052
41.27,0.002,0.661,0.181
41.28,-0.354,1.34,0.0
41.29,-0.186,0.527,-0.141
41.3,-0.365,1.23,-0.014
41.31,0.004,0.848,0.197
41.32,-0.293,0.846,0.043
41.33,-0.376,0.905,-0.133
41.34,-0.332,0.638,-0.02
41.35,-0.107,1.229,0.176
41.36,-0.195,0.727,0.034
41.37,-0.361,0.953,-0.128
41.38,-0.221,1.285,-0.047
41.39,-0.011,0.983,0.16
41.4,-0.254,0.822,-0.02
41.41,-0.246,0.601,-0.11
41.42,-0.379,1.781,-0.055
41.43,0.114,0.663,0.164
41.44,-0.322,1.15,0.024
41.45,-0.317,0.464,-0.175
41.46,-0.372,1.622,-0.013
41.47,-0.031,0.769,0.187
41.48,-0.182,0.889,0.042
41.49,-0.375,0.824,-0.175
41.5,-0.271,1.39,0.013
41.51,-0.122,1.066,0.155
41.52,-0.099,0.513,0.016
41.53,-0.398,0.938,-0.177
41.54,-0.225,1.467,0.001
41.55,-0.054,0.95,0.164
41.56,-0.137,0.753,0.023
41.57,-0.515,0.713,-0.17
41.58,-0.215,1.796,0.091
41.59,-0.177,0.648,0.083
41.6,-0.135,0.985,0.029
41.61,-0.4,0.315,-0.191
41.62,-0.234,2.0,0.135
41.63,-0.072,0.558,0.119
41.64,-0.101,0.957,0.01
41.65,-0.42,0.385,-0.247
41.66,-0.012,1.709,0.083
41.67,-0.063,1.128,0.099
41.68,0.084,0.446,-0.034
41.69,-0.473,0.957,-0.271
41.7,-0.044,1.614,0.12
41.71,-0.226,1.066,0.104
41.72,0.039,0.578,0.009
41.73,-0.53,0.789,-0.18
41.74,-0.032,1.802,0.105
41.75,-0.123,0.735,0.105
41.76,-0.006,0.896,-0.026
41.77,-0.409,0.326,-0.187
41.78,-0.138,2.0,0.077
41.79,0.019,0.634,0.08
41.8,-0.058,0.94,-0.043
41.81,-0.469,0.472,-0.181
41.82,-0.12,1.79,0.144
41.83,-0.125,0.966,0.097
41.84,0.018,0.502,-0.028
41.85,-0.494,0.972,-0.206
41.86,-0.02,1.499,0.175
41.87,-0.15,1.215,0.038
41.88,0.078,0.53,-0.014
41.89,-0.448,0.833,-0.189
41.9,-0.089,1.593,0.087
41.91,-0.109,0.876,0.068
41.92,-0.072,0.935,-0.075
41.93,-0.417,0.315,-0.173
41.94,-0.161,1.901,0.156
41.95,-0.101,0.675,0.113
41.96,-0.155,0.893,-0.064
41.97,-0.317,0.479,-0.162
41.98,-0.111,1.529,0.103
41.99,-0.242,1.199,0.078
42.0,0.009,0.483,-0.103
42.01,-0.373,0.897,-0.142
42.02,-0.041,1.282,0.179
42.03,-0.304,1.336,0.078
42.04,0.015,0.473,-0.08
42.05,-0.427,0.726,-0.124
42.06,-0.052,1.478,0.164
42.07,-0.25,1.064,0.089
42.08,-0.097,0.809,-0.08
42.09,-0.415,0.27,-0.093
42.1,-0.155,1.526,0.202
42.11,-0.283,0.81,0.106
42.12,-0.244,1.002,-0.12
42.13,-0.307,0.409,-0.136
42.14,-0.086,1.325,0.195
42.15,-0.263,1.247,0.031
42.16,-0.071,0.553,-0.133
42.17,-0.485,0.88,-0.074
42.18,-0.006,0.94,0.238
42.19,-0.351,1.543,-0.022
42.2,-0.077,0.405,-0.059
42.21,-0.466,0.819,-0.072
42.22,-0.01,1.03,0.204
42.23,-0.214,0.993,0.033
42.24,-0.333,0.891,-0.138
42.25,-0.314,0.524,-0.007
42.26,-0.175,1.284,0.178
42.27,-0.194,0.654,0.048
42.28,-0.319,0.963,-0.131
42.29,-0.369,0.622,-0.058
42.3,-0.032,1.003,0.144
42.31,-0.196,1.087,-0.05
42.32,-0.297,0.568,-0.19
42.33,-0.259,1.326,-0.086
42.34,-0.024,0.656,0.177
42.35,-0.03,1.087,0.187
42.36,-0.285,1.349,0.016
42.37,-0.092,0.399,-0.111
42.38,-0.487,0.982,-0.057
42.39,-0.001,0.854,0.267
42.4,-0.329,1.375,-0.011
42.41,-0.246,0.56,-0.111
42.42,-0.379,0.9,-0.027
42.43,-0.052,1.086,0.184
42.44,-0.151,0.698,0.028
42.45,-0.397,1.054,-0.13
42.46,-0.295,0.622,-0.041
42.47,-0.174,1.203,0.189
42.48,-0.18,0.718,0.058
42.49,-0.364,0.888,-0.137
42.5,-0.337,0.9,-0.097
42.51,-0.028,0.801,0.164
42.52,-0.269,1.208,-0.045
42.53,-0.245,0.463,-0.145
42.54,-0.291,1.771,-0.089
42.55,0.006,0.666,0.209
42.56,-0.239,1.062,0.012
42.57,-0.351,0.533,-0.164
42.58,-0.307,1.196,-0.063
42.59,-0.13,0.898,0.163
42.6,-0.125,0.781,-0.037
42.61,-0.359,0.927,-0.206
42.62,-0.205,1.275,-0.016
42.63,-0.103,1.015,0.186
42.64,-0.232,0.627,0.041
42.65,-0.363,0.904,-0.153
42.66,-0.297,1.537,0.059
42.67,-0.0,0.928,0.237
42.68,-0.21,0.833,0.02
42.69,-0.418,0.414,-0.215
42.7,-0.347,2.0,0.064
42.71,-0.14,0.475,0.122
42.72,-0.248,1.055,0.006
42.73,-0.328,0.387,-0.231
42.74,-0.146,1.873,0.034
42.75,-0.093,0.898,0.118
42.76,0.003,0.53,0.001
42.77,-0.504,0.853,-0.212
42.78,0.004,1.522,0.069
42.79,-0.208,1.105,0.114
42.8,0.092,0.508,-0.005
42.81,-0.576,0.824,-0.207
42.82,0.044,1.728,0.093
42.83,-0.18,0.808,0.1
42.84,-0.024,0.825,0.015
42.85,-0.416,0.379,-0.173
42.86,-0.133,2.0,0.12
42.87,-0.066,0.6,0.152
42.88,-0.09,0.955,-0.015
42.89,-0.518,0.409,-0.219
42.9,-0.119,1.856,0.075
42.91,-0.141,0.883,0.09
42.92,0.068,0.58,-0.036
42.93,-0.54,0.891,-0.173
42.94,-0.014,1.52,0.162
42.95,-0.235,1.221,0.085
42.96,0.074,0.475,-0.047
42.97,-0.55,0.877,-0.202
42.98,0.016,1.63,0.128
42.99,-0.204,0.937,0.052
43.0,0.018,0.804,-0.059
43.01,-0.439,0.412,-0.141
43.02,-0.24,1.721,0.161
43.03,-0.143,0.718,0.096
43.04,-0.158,0.964,-0.088
43.05,-0.292,0.323,-0.191
43.06,-0.084,1.691,0.148
43.07,-0.134,1.035,0.054
43.08,0.033,0.593,-0.12
43.09,-0.428,0.804,-0.186
43.1,0.004,1.311,0.227
43.11,-0.351,1.378,0.106
43.12,0.02,0.35,-0.138
43.13,-0.442,0.962,-0.137
43.14,-0.009,0.892,0.167
43.15,-0.354,1.258,0.061
43.16,-0.215,0.68,-0.118
43.17,-0.425,0.608,-0.097
43.18,-0.049,1.203,0.208
43.19,-0.162,0.83,0.034
43.2,-0.293,1.046,-0.114
43.21,-0.367,0.353,-0.038
43.22,-0.172,1.309,0.22
43.23,-0.216,0.885,0.024
43.24,-0.286,0.851,-0.087
43.25,-0.315,0.923,-0.141
43.26,0.03,0.878,0.195
43.27,-0.274,1.147,0.014
43.28,-0.268,0.521,-0.147
43.29,-0.433,1.231,-0.033
43.3,0.01,0.741,0.182
43.31,-0.303,1.224,0.046
43.32,-0.286,0.615,-0.148
43.33,-0.379,0.939,-0.074
43.34,-0.047,0.998,0.139
43.35,-0.187,0.855,0.019
43.36,-0.342,0.956,-0.158
43.37,-0.208,1.174,-0.066
43.38,-0.042,1.194,0.175
43.39,-0.128,0.595,0.018
43.4,-0.43,0.956,-0.167
43.41,-0.245,1.346,-0.088
43.42,-0.051,0.729,0.144
43.43,-0.173,1.059,-0.021
43.44,-0.316,0.462,-0.229
43.45,-0.273,1.712,-0.067
43.46,-0.009,0.59,0.145
43.47,-0.207,1.15,-0.002
43.48,-0.323,0.519,-0.173
43.49,-0.287,1.7,-0.03
43.5,-0.071,0.905,0.167
43.51,-0.068,0.619,0.022
43.52,-0.503,0.92,-0.208
43.53,-0.204,1.373,0.011
43.54,-0.181,1.062,0.163
43.55,-0.107,0.604,0.055
43.56,-0.501,0.88,-0.187
43.57,-0.268,1.608,0.069
43.58,-0.138,0.742,0.17
43.59,-0.122,0.932,0.011
43.6,-0.401,0.369,-0.238
43.61,-0.294,2.0,0.054
43.62,-0.015,0.692,0.165
43.63,-0.172,0.976,0.05
43.64,-0.441,0.4,-0.2
43.65,-0.274,1.904,0.063
43.66,-0.154,0.826,0.118
43.67,-0.062,0.664,0.045
43.68,-0.536,0.774,-0.217
43.69,-0.177,1.53,0.052
43.7,-0.237,1.058,0.064
43.71,0.007,0.485,0.042
43.72,-0.427,0.812,-0.23
43.73,-0.064,1.664,0.056
43.74,0.067,1.009,0.143
43.75,-0.051,0.78,-0.004
43.76,-0.348,0.347,-0.248
43.77,-0.243,2.0,0.054
43.78,-0.044,0.617,0.104
43.79,-0.16,1.025,0.011
43.8,-0.413,0.375,-0.19
43.81,-0.245,1.971,0.126
43.82,-0.136,0.807,0.109
43.83,-0.084,0.587,0.009
43.84,-0.487,0.79,-0.203
43.85,-0.057,1.491,0.025
43.86,-0.082,1.222,0.114
43.87,0.121,0.475,-0.014
43.88,-0.44,0.869,-0.217
43.89,0.018,1.745,0.041
43.9,-0.186,0.848,0.11
43.91,0.028,0.808,-0.058
43.92,-0.458,0.456,-0.176
43.93,0.013,1.837,0.072
43.94,-0.078,0.722,0.1
43.95,-0.085,0.937,-0.027
43.96,-0.368,0.315,-0.149
43.97,-0.232,1.842,0.113
43.98,-0.14,0.769,0.076
43.99,-0.083,0.861,-0.072
44.0,-0.297,0.569,-0.214
44.01,0.009,1.702,0.201
44.02,-0.232,1.107,0.116
44.03,0.035,0.485,-0.047
44.04,-0.583,0.947,-0.17
44.05,0.11,1.464,0.191
44.06,-0.273,1.234,0.108
44.07,0.054,0.542,-0.012
44.08,-0.457,0.744,-0.16
44.09,-0.166,1.475,0.112
44.1,-0.19,0.847,0.125
44.11,-0.175,0.965,-0.061
44.12,-0.321,0.238,-0.127
44.13,-0.084,1.823,0.14
44.14,-0.129,0.775,0.121
44.15,-0.06,0.9,-0.077
44.16,-0.429,0.461,-0.203
44.17,-0.009,1.555,0.192
44.18,-0.252,1.23,0.046
44.19,0.011,0.367,-0.058
44.2,-0.484,0.991,-0.183
44.21,-0.009,1.075,0.122
44.22,-0.362,1.253,0.039
44.23,-0.046,0.575,-0.043
44.24,-0.365,0.649,-0.171
44.25,-0.045,1.387,0.143
44.26,-0.15,1.0,0.041
44.27,-0.205,0.992,-0.119
44.28,-0.337,0.229,-0.117
44.29,-0.123,1.757,0.171
44.3,-0.191,0.893,0.093
44.31,-0.162,0.822,-0.091
44.32,-0.39,0.505,-0.134
44.33,-0.097,1.187,0.199
44.34,-0.31,1.249,0.007
44.35,-0.119,0.45,-0.097
44.36,-0.403,0.954,-0.119
44.37,-0.015,0.879,0.205
44.38,-0.267,1.317,0.067
44.39,-0.216,0.597,-0.177
44.4,-0.394,0.678,-0.094
44.41,-0.113,1.18,0.217
44.42,-0.238,1.112,0.034
44.43,-0.176,0.82,-0.113
44.44,-0.347,0.421,-0.094
44.45,-0.071,1.358,0.174
44.46,-0.248,0.711,0.029
44.47,-0.295,0.987,-0.121
44.48,-0.363,0.861,-0.082
44.49,-0.03,1.019,0.183
44.5,-0.215,1.003,0.035
44.51,-0.255,0.631,-0.15
44.52,-0.467,1.115,-0.082
44.53,0.067,0.741,0.181
44.54,-0.312,1.374,0.039
44.55,-0.222,0.442,-0.124
44.56,-0.411,1.161,-0.035
44.57,0.012,0.867,0.219
44.58,-0.181,0.876,0.047
44.59,-0.319,0.896,-0.139
44.6,-0.242,1.114,-0.07
44.61,-0.069,1.295,0.183
44.62,-0.11,0.466,0.1
44.63,-0.405,1.026,-0.13
44.64,-0.435,0.828,-0.042
44.65,-0.091,0.917,0.192
44.66,-0.266,1.099,0.03
44.67,-0.253,0.571,-0.099
44.68,-0.379,1.583,-0.053
44.69,0.061,0.659,0.181
44.7,-0.248,1.206,0.03
44.71,-0.23,0.442,-0.13
44.72,-0.305,1.696,-0.095
44.73,0.022,0.916,0.173
44.74,-0.271,0.875,-0.02
44.75,-0.356,0.574,-0.212
44.76,-0.312,1.382,-0.049
44.77,-0.155,0.902,0.1
44.78,-0.104,0.702,0.008
44.79,-0.399,1.04,-0.177
44.8,-0.275,1.247,-0.005
44.81,-0.146,0.949,0.166
44.82,-0.12,0.687,0.017
44.83,-0.403,0.777,-0.191
44.84,-0.25,1.699,-0.057
44.85,-0.054,0.745,0.112
44.86,-0.131,1.019,0.033
44.87,-0.363,0.342,-0.258
44.88,-0.371,1.983,0.054
44.89,-0.094,0.542,0.099
44.9,-0.216,1.026,0.099
44.91,-0.325,0.523,-0.179
44.92,-0.266,1.66,0.035
44.93,-0.062,1.08,0.136
44.94,-0.058,0.474,0.05
44.95,-0.526,0.982,-0.198
44.96,-0.181,1.425,0.068
44.97,-0.173,1.038,0.13
44.98,-0.072,0.595,0.091
44.99,-0.476,0.759,-0.222
45.0,-0.285,1.75,0.099
45.01,-0.184,0.616,0.121
45.02,-0.23,1.004,0.064
45.03,-0.256,0.282,-0.201
45.04,-0.293,1.989,0.06
45.05,0.033,0.735,0.159
45.06,-0.215,0.848,0.017
45.07,-0.309,0.439,-0.158
45.08,-0.339,1.811,0.06
45.09,-0.127,0.925,0.121
45.1,-0.075,0.561,0.038
45.11,-0.521,0.919,-0.175
45.12,-0.206,1.427,0.109
45.13,-0.306,1.019,0.162
45.14,-0.119,0.5,0.109
45.15,-0.397,0.781,-0.153
45.16,-0.185,1.701,0.081
45.17,-0.023,0.846,0.191
45.18,-0.076,0.894,-0.008
45.19,-0.401,0.321,-0.221
45.2,-0.273,2.0,0.069
45.21,-0.17,0.556,0.112
45.22,-0.113,1.005,0.025
45.23,-0.484,0.419,-0.216
45.24,-0.146,1.834,0.095
45.25,-0.191,0.91,0.093
45.26,0.018,0.468,-0.035
45.27,-0.474,0.92,-0.231
45.28,0.003,1.443,0.018
45.29,-0.031,1.26,0.082
45.3,0.1,0.498,-0.049
45.31,-0.452,0.803,-0.258
45.32,-0.021,1.772,0.081
45.33,-0.173,0.724,0.092
45.34,-0.028,0.883,-0.021
45.35,-0.436,0.386,-0.198
45.36,-0.158,2.0,0.113
45.37,-0.1,0.635,0.132
45.38,-0.024,0.937,0.014
45.39,-0.483,0.434,-0.196
45.4,-0.121,1.816,0.078
45.41,-0.141,0.938,0.07
45.42,0.105,0.603,-0.019
45.43,-0.484,0.866,-0.196
45.44,0.012,1.59,0.186
45.45,-0.279,1.152,0.114
45.46,0.002,0.469,-0.039
45.47,-0.582,0.872,-0.188
45.48,-0.021,1.689,0.163
45.49,-0.176,0.848,0.123
45.5,0.028,0.822,-0.019
45.51,-0.411,0.403,-0.168
45.52,-0.199,1.937,0.098
45.53,-0.056,0.688,0.077
45.54,-0.096,0.95,-0.019
45.55,-0.444,0.21,-0.13
45.56,-0.102,1.921,0.193
45.57,-0.159,0.774,0.123
45.58,-0.088,0.822,-0.023
45.59,-0.528,0.598,-0.191
45.6,0.023,1.503,0.185
45.61,-0.297,1.263,0.059
45.62,0.105,0.371,-0.027
45.63,-0.541,0.993,-0.149
45.64,-0.103,1.122,0.197
45.65,-0.27,1.2,0.089
45.66,-0.083,0.574,-0.067
45.67,-0.392,0.572,-0.158
45.68,-0.054,1.624,0.138
45.69,-0.126,0.836,0.08
45.7,-0.179,0.993,-0.097
45.71,-0.383,0.202,-0.171
45.72,-0.093,1.774,0.144
45.73,-0.164,0.925,0.086
45.74,-0.124,0.717,-0.09
45.75,-0.396,0.571,-0.193
45.76,0.001,1.24,0.128
45.77,-0.291,1.253,0.063
45.78,-0.03,0.405,-0.095
45.79,-0.435,0.941,-0.212
45.8,0.042,1.197,0.184
45.81,-0.233,1.356,0.06
45.82,-0.039,0.562,-0.13
45.83,-0.431,0.583,-0.148
45.84,-0.089,1.571,0.201
45.85,-0.101,0.994,0.054
45.86,-0.179,0.853,-0.112
45.87,-0.362,0.248,-0.173
45.88,-0.183,1.536,0.181
45.89,-0.19,0.859,0.014
45.9,-0.197,0.86,-0.125
45.91,-0.28,0.56,-0.171
45.92,-0.096,1.208,0.171
45.93,-0.215,1.299,0.052
45.94,-0.094,0.449,-0.11
45.95,-0.484,0.958,-0.108
45.96,-0.093,1.052,0.218
45.97,-0.38,1.456,0.088
45.98,-0.123,0.439,-0.09
45.99,-0.416,0.676,-0.102
46.0,-0.102,1.261,0.172
46.01,-0.157,0.974,0.014
46.02,-0.258,0.947,-0.104
46.03,-0.361,0.274,-0.073
46.04,-0.137,1.395,0.183
46.05,-0.221,0.855,0.043
46.06,-0.232,0.893,-0.126
46.07,-0.394,0.574,-0.141
46.08,-0.053,1.079,0.21
46.09,-0.239,1.32,-0.036
46.1,-0.135,0.509,-0.134
46.11,-0.475,0.97,-0.063
46.12,-0.031,0.795,0.228
46.13,-0.307,1.381,0.031
46.14,-0.107,0.551,-0.156
46.15,-0.414,0.839,-0.05
46.16,-0.046,1.034,0.226
46.17,-0.203,0.845,0.0
46.18,-0.296,0.995,-0.102
46.19,-0.361,0.453,-0.057
46.2,-0.128,1.278,0.232
46.21,-0.203,0.756,0.044
46.22,-0.36,0.997,-0.101
46.23,-0.369,0.727,-0.067
46.24,-0.045,0.942,0.171
46.25,-0.28,1.136,-0.002
46.26,-0.22,0.544,-0.156
46.27,-0.416,1.41,-0.058
46.28,0.055,0.704,0.181
46.29,-0.323,1.216,0.02
46.3,-0.234,0.504,-0.143
46.31,-0.457,1.092,-0.066
46.32,0.042,0.932,0.144
46.33,-0.244,0.877,0.003
46.34,-0.271,0.984,-0.154
46.35,-0.332,0.999,-0.103
46.36,0.005,1.099,0.184
46.37,-0.119,0.524,0.001
46.38,-0.463,1.014,-0.184
46.39,-0.212,1.312,-0.053
46.4,-0.14,1.005,0.183
46.41,-0.086,0.678,-0.016
46.42,-0.426,0.762,-0.169
46.43,-0.28,1.787,-0.012
46.44,-0.064,0.635,0.185
46.45,-0.166,1.01,0.049
46.46,-0.368,0.345,-0.179
46.47,-0.298,2.0,0.002
46.48,-0.127,0.627,0.157
46.49,-0.153,0.95,0.005
46.5,-0.459,0.582,-0.25
46.51,-0.212,1.666,0.005
46.52,-0.185,0.929,0.115
46.53,-0.098,0.536,0.033
46.54,-0.479,0.98,-0.167
46.55,-0.194,1.354,0.058
46.56,-0.099,1.072,0.169
46.57,-0.091,0.567,0.066
46.58,-0.485,0.737,-0.205
46.59,-0.211,1.855,0.001
46.6,-0.09,0.659,0.105
46.61,-0.066,0.998,0.007
46.62,-0.42,0.24,-0.26
46.63,-0.24,2.0,0.093
46.64,-0.17,0.607,0.057
46.65,-0.117,0.861,0.003
46.66,-0.416,0.522,-0.242
46.67,-0.096,1.665,0.018
46.68,-0.117,1.123,0.194
46.69,0.012,0.428,0.032
46.7,-0.528,0.939,-0.182
46.71,-0.214,1.465,0.119
46.72,-0.273,1.043,0.132
46.73,-0.063,0.584,0.061
46.74,-0.583,0.689,-0.128
46.75,-0.241,1.849,0.139
46.76,-0.23,0.563,0.07
46.77,-0.134,0.944,0.02
46.78,-0.308,0.328,-0.235
46.79,-0.129,1.95,0.056
46.8,0.081,0.678,0.113
46.81,-0.047,0.921,0.009
46.82,-0.355,0.508,-0.301
46.83,-0.066,1.787,0.085
46.84,-0.125,1.021,0.102
46.85,0.109,0.519,-0.055
46.86,-0.554,0.985,-0.25
46.87,0.05,1.554,0.128
46.88,-0.21,1.127,0.106
46.89,0.051,0.511,0.01
46.9,-0.522,0.779,-0.19
46.91,-0.018,1.726,0.019
46.92,-0.012,0.825,0.124
46.93,-0.023,0.898,-0.031
46.94,-0.419,0.29,-0.195
46.95,-0.104,2.0,0.116
46.96,0.015,0.659,0.061
46.97,-0.098,0.911,-0.05
46.98,-0.473,0.51,-0.212
46.99,-0.088,1.844,0.145
47.0,-0.193,0.905,0.104
47.01,0.088,0.467,-0.031
47.02,-0.573,0.996,-0.197
47.03,-0.031,1.315,0.108
47.04,-0.325,1.229,0.134
47.05,0.102,0.509,0.015
47.06,-0.58,0.779,-0.143
47.07,-0.002,1.746,0.128
47.08,-0.211,0.862,0.056
47.09,0.002,0.937,-0.054
47.1,-0.461,0.246,-0.155
47.11,-0.028,2.0,0.189
47.12,-0.13,0.591,0.094
47.13,-0.096,0.883,-0.027
47.14,-0.45,0.497,-0.188
47.15,-0.173,1.595,0.166
47.16,-0.328,1.025,0.06
47.17,-0.084,0.762,-0.037
47.18,-0.506,0.658,-0.147
47.19,-0.065,1.24,0.222
47.2,-0.281,1.329,0.109
47.21,-0.081,0.371,-0.104
47.22,-0.411,0.935,-0.234
47.23,0.011,1.291,0.159
47.24,-0.234,1.323,0.053
47.25,-0.1,0.555,-0.081
47.26,-0.354,0.549,-0.178
47.27,-0.139,1.409,0.172
47.28,-0.167,0.872,0.041
47.29,-0.221,1.014,-0.106
47.3,-0.259,0.229,-0.122
47.31,-0.166,1.602,0.17
47.32,-0.17,0.96,0.064
47.33,-0.161,0.818,-0.159
47.34,-0.395,0.63,-0.143
47.35,-0.048,1.292,0.199
47.36,-0.358,1.428,0.087
47.37,-0.007,0.294,-0.1
47.38,-0.53,1.043,-0.113
47.39,0.096,0.958,0.141
47.4,-0.35,1.141,-0.012
47.41,-0.118,0.788,-0.127
47.42,-0.463,0.583,-0.131
47.43,-0.053,1.309,0.211
47.44,-0.171,0.88,0.076
47.45,-0.327,1.008,-0.135
47.46,-0.348,0.291,-0.063
47.47,-0.181,1.479,0.236
47.48,-0.224,0.986,0.039
47.49,-0.147,0.684,-0.082
47.5,-0.353,0.991,-0.121
47.51,-0.012,0.965,0.219
47.52,-0.323,1.07,0.04
47.53,-0.256,0.657,-0.14
47.54,-0.5,1.028,-0.088
47.55,-0.05,0.913,0.247
47.56,-0.217,1.298,0.039
47.57,-0.189,0.548,-0.182
47.58,-0.319,0.814,-0.094
47.59,-0.047,1.143,0.197
47.6,-0.155,0.795,-0.029
47.61,-0.306,0.981,-0.066
47.62,-0.224,0.799,-0.069
47.63,-0.133,1.249,0.235
47.64,-0.083,0.563,0.062
47.65,-0.43,1.032,-0.124
47.66,-0.368,0.757,-0.068
47.67,-0.121,0.954,0.207
47.68,-0.248,1.292,0.019
47.69,-0.119,0.456,-0.188
47.7,-0.456,1.348,-0.067
47.71,0.099,0.704,0.204
47.72,-0.371,1.243,0.074
47.73,-0.241,0.539,-0.13
47.74,-0.344,1.324,-0.063
47.75,0.026,1.086,0.167
47.76,-0.17,0.59,0.031
47.77,-0.34,1.125,-0.128
47.78,-0.479,0.47,-0.068
47.79,-0.107,1.251,0.251
47.8,-0.218,0.837,0.063
47.81,-0.308,0.892,-0.104
47.82,-0.394,0.951,-0.083
47.83,0.012,0.896,0.163
47.84,-0.248,1.133,-0.017
47.85,-0.18,0.525,-0.165
47.86,-0.337,1.801,-0.097
47.87,0.099,0.776,0.211
47.88,-0.239,1.007,0.09
47.89,-0.383,0.592,-0.127
47.9,-0.398,1.106,-0.022
47.91,-0.096,0.968,0.217
47.92,-0.144,0.757,0.02
47.93,-0.405,0.953,-0.101
47.94,-0.356,0.803,-0.043
47.95,-0.226,1.124,0.239
47.96,-0.141,0.708,0.092
47.97,-0.335,0.91,-0.136
47.98,-0.23,1.325,-0.067
47.99,-0.042,1.109,0.133
48.0,-0.133,0.691,0.002
48.01,-0.402,0.686,-0.206
48.02,-0.256,1.548,-0.102
48.03,-0.091,0.615,0.107
48.04,-0.246,1.189,-0.004
48.05,-0.201,0.374,-0.183
48.06,-0.38,1.942,-0.057
48.07,0.042,0.68,0.173
48.08,-0.198,0.9,0.003
48.09,-0.424,0.605,-0.141
48.1,-0.24,1.521,-0.056
48.11,-0.106,1.097,0.16
48.12,-0.022,0.523,0.002
48.13,-0.497,1.054,-0.188
48.14,-0.273,1.136,0.033
48.15,-0.23,0.947,0.176
48.16,-0.204,0.796,0.003
48.17,-0.263,0.682,-0.143
48.18,-0.361,1.781,-0.055
48.19,0.009,0.683,0.185
48.2,-0.261,1.102,-0.009
48.21,-0.257,0.398,-0.166
48.22,-0.317,2.0,-0.024
48.23,-0.039,0.684,0.198
48.24,-0.121,0.918,0.022
48.25,-0.458,0.624,-0.186
48.26,-0.251,1.577,-0.011
48.27,-0.191,0.927,0.112
48.28,-0.044,0.638,0.03
48.29,-0.426,0.873,-0.24
48.3,-0.166,1.411,0.024
48.31,-0.142,0.938,0.101
48.32,-0.077,0.662,0.007
48.33,-0.364,0.698,-0.213
48.34,-0.285,1.753,-0.017
48.35,0.01,0.746,0.108
48.36,-0.175,0.989,0.018
48.37,-0.308,0.341,-0.263
48.38,-0.357,1.998,-0.04
48.39,-0.102,0.537,0.081
48.4,-0.199,0.968,0.038
48.41,-0.306,0.492,-0.237
48.42,-0.208,1.669,0.012
48.43,-0.083,1.005,0.092
48.44,0.003,0.449,0.004
48.45,-0.389,0.979,-0.208
48.46,-0.209,1.434,0.04
48.47,-0.098,1.051,0.142
48.48,-0.086,0.59,0.061
48.49,-0.441,0.696,-0.257
48.5,-0.239,1.731,0.078
48.51,-0.12,0.644,0.111
48.52,-0.255,0.948,0.024
48.53,-0.325,0.278,-0.222
48.54,-0.235,2.0,0.063
48.55,-0.046,0.654,0.113
48.56,-0.185,0.864,-0.002
48.57,-0.392,0.51,-0.229
48.58,-0.205,1.677,0.081
48.59,0.014,1.099,0.168
48.6,-0.031,0.46,-0.002
