t,ax,ay,az
0.0,-0.173,0.763,0.011
0.01,-0.347,0.923,-0.116
0.02,-0.269,1.018,0.011
0.03,-0.147,1.122,0.226
0.04,-0.223,0.764,0.043
0.05,-0.416,0.771,-0.147
0.06,-0.278,1.387,-0.029
0.07,-0.094,0.765,0.13
0.08,-0.213,1.167,-0.006
0.09,-0.246,0.376,-0.185
0.1,-0.3,1.912,-0.041
0.11,-0.062,0.603,0.155
0.12,-0.19,1.082,0.059
0.13,-0.382,0.531,-0.164
0.14,-0.213,1.649,0.003
0.15,-0.141,1.046,0.169
0.16,-0.074,0.51,0.05
0.17,-0.585,1.038,-0.171
0.18,-0.208,1.361,0.084
0.19,-0.33,0.95,0.184
0.2,-0.022,0.693,0.049
0.21,-0.477,0.718,-0.173
0.22,-0.203,1.683,0.086
0.23,-0.18,0.661,0.089
0.24,-0.12,0.966,0.036
0.25,-0.417,0.247,-0.132
0.26,-0.189,2.0,0.119
0.27,-0.06,0.679,0.173
0.28,-0.052,0.894,0.005
0.29,-0.457,0.407,-0.237
0.3,-0.073,1.832,0.118
0.31,-0.194,0.936,0.086
0.32,0.048,0.5,-0.034
0.33,-0.564,0.938,-0.205
0.34,0.012,1.508,0.12
0.35,-0.276,1.026,0.092
0.36,0.171,0.495,-0.032
0.37,-0.462,0.795,-0.225
0.38,-0.014,1.665,0.003
0.39,-0.069,0.868,0.05
0.4,0.008,0.969,-0.048
0.41,-0.394,0.267,-0.193
0.42,-0.13,2.0,0.19
0.43,-0.112,0.542,0.12
0.44,-0.202,0.95,-0.025
0.45,-0.403,0.373,-0.231
0.46,-0.126,1.76,0.194
0.47,-0.024,1.045,0.038
0.48,-0.08,0.353,-0.036
0.49,-0.426,0.912,-0.131
0.5,-0.148,1.317,0.132
0.51,-0.204,1.298,0.062
0.52,-0.036,0.59,-0.037
0.53,-0.455,0.807,-0.149
0.54,0.04,1.669,0.156
0.55,-0.031,0.891,0.031
0.56,-0.056,0.895,-0.126
0.57,-0.296,0.318,-0.183
0.58,-0.21,1.82,0.108
0.59,-0.069,0.832,0.025
0.6,-0.128,0.913,-0.074
0.61,-0.242,0.373,-0.191
0.62,-0.082,1.41,0.127
0.63,-0.171,1.005,0.009
0.64,-0.188,0.679,-0.168
0.65,-0.441,0.828,-0.11
0.66,-0.12,1.212,0.237
0.67,-0.323,1.403,0.095
0.68,-0.043,0.392,-0.083
0.69,-0.457,0.863,-0.122
0.7,-0.019,1.194,0.217
0.71,-0.216,1.14,-0.013
0.72,-0.234,0.886,-0.069
0.73,-0.298,0.395,-0.097
0.74,-0.177,1.425,0.224
0.75,-0.074,0.708,0.064
0.76,-0.428,1.038,-0.095
0.77,-0.26,0.37,-0.119
0.78,-0.135,1.314,0.226
0.79,-0.163,1.189,-0.039
0.8,-0.265,0.75,-0.123
0.81,-0.261,1.452,-0.099
0.82,-0.012,0.801,0.159
0.83,-0.197,1.115,-0.005
0.84,-0.265,0.435,-0.156
0.85,-0.382,1.791,-0.051
0.86,0.02,0.729,0.17
0.87,-0.167,1.088,-0.011
0.88,-0.32,0.583,-0.249
0.89,-0.343,1.223,0.008
0.9,-0.102,0.923,0.095
0.91,-0.063,0.832,-0.021
0.92,-0.303,0.839,-0.22
0.93,-0.182,1.306,0.065
0.94,-0.159,1.04,0.122
0.95,-0.094,0.54,0.035
0.96,-0.469,0.799,-0.159
0.97,-0.171,1.606,0.047
0.98,-0.089,0.896,0.186
0.99,-0.048,0.89,0.029
1.0,-0.525,0.375,-0.201
1.01,-0.088,0.905,-0.122
1.02,-0.433,0.539,-0.048
1.03,-0.064,1.445,0.167
1.04,-0.123,0.701,0.088
1.05,-0.377,1.094,-0.129
1.06,-0.372,0.263,-0.09
1.07,-0.154,1.466,0.25
1.08,-0.19,0.923,-0.018
1.09,-0.175,0.895,-0.104
1.1,-0.319,0.677,-0.069
1.11,0.018,1.057,0.142
1.12,-0.25,1.229,0.05
1.13,-0.142,0.612,-0.188
1.14,-0.39,1.263,-0.043
1.15,0.141,0.752,0.125
1.16,-0.27,1.281,0.035
1.17,-0.215,0.481,-0.151
1.18,-0.498,1.01,-0.032
1.19,-0.016,0.909,0.136
1.2,-0.277,1.028,0.055
1.21,-0.249,0.666,-0.065
1.22,-0.233,1.354,-0.048
1.23,-0.136,1.132,0.128
1.24,-0.073,0.538,0.007
1.25,-0.446,1.009,-0.155
1.26,-0.233,1.385,0.025
1.27,-0.148,0.946,0.155
1.28,-0.153,0.875,0.027
1.29,-0.346,0.649,-0.192
1.3,-0.387,1.678,0.045
1.31,-0.095,0.561,0.199
1.32,-0.281,1.212,0.085
1.33,-0.258,0.287,-0.196
1.34,-0.307,1.845,0.048
1.35,-0.011,0.79,0.141
1.36,-0.154,0.696,0.011
1.37,-0.48,0.721,-0.155
1.38,-0.209,1.513,0.083
1.39,-0.201,1.037,0.164
1.4,0.013,0.537,0.074
1.41,-0.625,0.932,-0.186
1.42,-0.163,1.519,0.083
1.43,-0.393,0.827,0.044
1.44,-0.028,0.801,0.011
1.45,-0.414,0.46,-0.188
1.46,-0.039,1.938,0.05
1.47,0.012,0.71,0.139
1.48,-0.049,0.878,-0.024
1.49,-0.33,0.26,-0.181
1.5,-0.128,1.977,0.03
1.51,-0.081,0.745,0.088
1.52,-0.1,0.768,-0.052
1.53,-0.544,0.606,-0.197
1.54,-0.098,1.823,0.233
1.55,-0.242,0.879,0.124
1.56,0.002,0.391,-0.043
1.57,-0.613,0.933,-0.179
1.58,-0.048,1.302,0.136
1.59,-0.279,1.341,0.11
1.6,0.032,0.415,-0.033
1.61,-0.511,0.815,-0.129
1.62,-0.012,1.61,0.12
1.63,-0.249,0.961,0.079
1.64,-0.082,1.024,-0.082
1.65,-0.424,0.317,-0.165
1.66,-0.046,2.0,0.17
1.67,-0.064,0.731,0.044
1.68,-0.082,0.979,-0.016
1.69,-0.372,0.368,-0.168
1.7,-0.153,1.566,0.15
1.71,-0.233,1.189,0.039
1.72,-0.085,0.542,-0.102
1.73,-0.339,0.843,-0.114
1.74,-0.141,1.171,0.218
1.75,-0.22,1.39,0.07
1.76,-0.161,0.531,-0.094
1.77,-0.395,0.802,-0.088
1.78,-0.141,1.399,0.23
1.79,-0.17,1.211,0.008
1.8,-0.154,0.787,-0.091
1.81,-0.365,0.375,-0.097
1.82,-0.144,1.501,0.176
1.83,-0.175,0.791,-0.026
1.84,-0.204,1.067,-0.113
1.85,-0.275,0.531,-0.087
1.86,0.001,1.153,0.154
1.87,-0.258,0.967,0.0
1.88,-0.243,0.722,-0.113
1.89,-0.518,0.884,-0.019
1.9,0.146,0.863,0.188
1.91,-0.352,1.517,-0.024
1.92,-0.078,0.312,-0.149
1.93,-0.285,1.605,-0.14
1.94,0.062,0.83,0.114
1.95,-0.258,0.921,-0.044
1.96,-0.296,0.821,-0.208
1.97,-0.24,1.211,-0.067
1.98,-0.093,1.17,0.17
1.99,-0.116,0.545,0.072
2.0,-0.443,1.061,-0.155
2.01,-0.333,1.125,0.029
2.02,-0.183,0.944,0.127
2.03,-0.166,0.941,-0.006
2.04,-0.196,0.54,-0.188
2.05,-0.361,1.83,-0.028
2.06,0.025,0.593,0.133
2.07,-0.194,1.192,0.009
2.08,-0.256,0.319,-0.257
2.09,-0.306,1.888,0.007
2.1,-0.103,0.668,0.094
2.11,-0.086,0.886,0.026
2.12,-0.389,0.646,-0.254
2.13,-0.164,1.545,0.04
2.14,-0.225,1.081,0.128
2.15,0.002,0.484,0.045
2.16,-0.495,0.929,-0.179
2.17,-0.08,1.452,0.06
2.18,-0.172,0.993,0.127
2.19,0.005,0.632,0.024
2.2,-0.501,0.58,-0.2
2.21,-0.156,1.905,0.094
2.22,-0.134,0.579,0.118
2.23,-0.17,1.053,0.065
2.24,-0.482,0.245,-0.138
2.25,-0.195,1.999,0.077
2.26,-0.063,0.646,0.12
2.27,-0.098,0.79,-0.026
2.28,-0.51,0.527,-0.211
2.29,-0.011,1.713,0.109
2.3,-0.202,1.116,0.079
2.31,0.042,0.373,-0.036
2.32,-0.478,0.896,-0.192
2.33,-0.021,1.58,0.199
2.34,-0.197,1.166,0.091
2.35,0.02,0.421,-0.028
2.36,-0.445,0.915,-0.167
2.37,-0.03,1.593,0.14
2.38,-0.182,1.017,0.097
2.39,0.028,0.857,-0.046
2.4,-0.351,0.361,-0.155
2.41,-0.198,1.814,0.164
2.42,-0.113,0.78,0.062
2.43,-0.182,1.037,-0.08
2.44,-0.362,0.256,-0.15
2.45,-0.16,1.676,0.154
2.46,-0.167,1.017,0.062
2.47,-0.124,0.563,-0.106
2.48,-0.416,0.784,-0.188
2.49,-0.019,1.086,0.151
2.5,-0.418,1.365,0.044
2.51,-0.034,0.442,-0.032
2.52,-0.544,0.881,-0.036
2.53,0.011,1.042,0.255
2.54,-0.285,1.171,0.004
2.55,-0.215,0.835,-0.123
2.56,-0.432,0.387,-0.051
2.57,-0.106,1.417,0.259
2.58,-0.145,0.779,0.038
2.59,-0.273,1.016,-0.082
2.6,-0.4,0.491,-0.052
2.61,-0.114,1.215,0.222
2.62,-0.214,0.951,-0.042
2.63,-0.123,0.672,-0.16
2.64,-0.324,1.218,-0.128
2.65,0.021,0.784,0.14
2.66,-0.279,1.222,0.026
2.67,-0.254,0.381,-0.12
2.68,-0.379,1.256,-0.093
2.69,-0.068,0.795,0.152
2.7,-0.244,1.124,-0.019
2.71,-0.269,0.596,-0.123
2.72,-0.278,1.102,-0.07
2.73,-0.132,1.077,0.181
2.74,-0.097,0.698,-0.005
2.75,-0.412,0.981,-0.131
2.76,-0.171,1.192,-0.086
2.77,-0.114,1.083,0.147
2.78,-0.088,0.767,0.0
2.79,-0.352,0.744,-0.174
2.8,-0.285,1.634,-0.022
2.81,-0.144,0.655,0.141
2.82,-0.227,1.168,0.011
2.83,-0.283,0.308,-0.197
2.84,-0.404,1.866,0.046
2.85,-0.098,0.576,0.142
2.86,-0.203,1.034,0.017
2.87,-0.291,0.541,-0.207
2.88,-0.281,1.578,0.044
2.89,-0.05,1.059,0.169
2.9,-0.03,0.472,0.02
2.91,-0.496,0.955,-0.218
2.92,-0.085,1.434,0.055
2.93,-0.218,1.05,0.137
2.94,-0.074,0.61,0.061
2.95,-0.518,0.68,-0.158
2.96,-0.237,1.822,0.123
2.97,-0.187,0.582,0.122
2.98,-0.161,1.007,0.046
2.99,-0.415,0.249,-0.177
3.0,-0.168,2.0,0.097
3.01,0.058,0.71,0.118
3.02,-0.164,0.81,-0.024
3.03,-0.403,0.4,-0.197
3.04,-0.111,1.795,0.085
3.05,-0.18,0.93,0.139
3.06,0.074,0.435,-0.025
3.07,-0.579,0.951,-0.211
3.08,0.016,1.494,0.14
3.09,-0.262,1.127,0.09
3.1,0.05,0.482,-0.028
3.11,-0.505,0.711,-0.181
3.12,-0.062,1.765,0.109
3.13,-0.088,0.827,0.138
3.14,-0.051,0.899,-0.055
3.15,-0.426,0.426,-0.126
3.16,-0.186,1.849,0.127
3.17,-0.094,0.755,0.115
3.18,-0.148,1.079,-0.062
3.19,-0.425,0.249,-0.133
3.2,-0.087,1.832,0.166
3.21,-0.157,0.905,0.047
3.22,-0.002,0.725,-0.087
3.23,-0.397,0.725,-0.214
3.24,-0.017,1.246,0.122
3.25,-0.304,1.399,-0.0
3.26,0.037,0.438,-0.099
3.27,-0.502,0.911,-0.183
3.28,-0.017,1.127,0.21
3.29,-0.339,1.27,0.078
3.3,-0.15,0.748,-0.08
3.31,-0.503,0.449,-0.045
3.32,-0.186,1.513,0.278
3.33,-0.2,0.93,0.044
3.34,-0.229,0.917,-0.118
3.35,-0.327,0.41,-0.078
3.36,-0.115,1.379,0.178
3.37,-0.259,0.839,0.036
3.38,-0.129,0.768,-0.079
3.39,-0.427,0.851,-0.106
3.4,0.073,0.963,0.16
3.41,-0.299,1.254,0.013
3.42,-0.214,0.441,-0.127
3.43,-0.434,0.964,-0.018
3.44,-0.047,0.891,0.237
3.45,-0.206,1.404,0.034
3.46,-0.208,0.583,-0.181
3.47,-0.294,0.856,-0.08
3.48,-0.046,1.153,0.126
3.49,-0.143,0.775,-0.031
3.5,-0.282,0.972,-0.151
3.51,-0.213,0.877,-0.033
3.52,-0.09,1.173,0.184
3.53,-0.183,0.814,0.021
3.54,-0.3,0.847,-0.137
3.55,-0.307,1.292,-0.046
3.56,-0.038,0.721,0.119
3.57,-0.272,1.206,-0.013
3.58,-0.151,0.361,-0.234
3.59,-0.39,1.845,-0.051
3.6,-0.071,0.598,0.123
3.61,-0.277,1.088,0.025
3.62,-0.263,0.542,-0.165
3.63,-0.357,1.594,0.031
3.64,-0.119,0.955,0.221
3.65,-0.09,0.579,0.038
3.66,-0.457,0.98,-0.188
3.67,-0.285,1.389,0.091
3.68,-0.245,1.047,0.18
3.69,-0.106,0.613,0.057
3.7,-0.579,0.697,-0.132
3.71,-0.262,1.769,0.136
3.72,-0.208,0.597,0.086
3.73,-0.108,1.013,0.021
3.74,-0.362,0.263,-0.205
3.75,-0.126,2.0,0.033
3.76,0.021,0.637,0.035
3.77,-0.104,0.891,-0.055
3.78,-0.394,0.371,-0.242
3.79,-0.076,1.798,0.04
3.8,-0.119,0.924,0.088
3.81,0.006,0.5,-0.035
3.82,-0.597,0.854,-0.176
3.83,-0.017,1.483,0.145
3.84,-0.321,1.099,0.067
3.85,0.038,0.476,-0.023
3.86,-0.523,0.784,-0.159
3.87,-0.042,1.69,0.146
3.88,-0.112,0.837,0.069
3.89,-0.051,0.803,-0.048
3.9,-0.388,0.289,-0.144
3.91,-0.187,1.906,0.184
3.92,-0.022,0.731,0.082
3.93,-0.156,0.981,-0.093
3.94,-0.334,0.373,-0.175
3.95,-0.136,1.926,0.185
3.96,-0.155,0.827,0.06
3.97,-0.092,0.796,-0.054
3.98,-0.403,0.613,-0.18
3.99,-0.111,1.233,0.21
4.0,-0.364,1.415,0.003
4.01,-0.03,0.407,-0.098
4.02,-0.406,0.939,-0.145
4.03,0.013,0.993,0.187
4.04,-0.313,1.224,0.014
4.05,-0.252,0.818,-0.141
4.06,-0.396,0.504,-0.056
4.07,-0.096,1.389,0.32
4.08,-0.185,0.875,0.04
4.09,-0.26,0.972,-0.09
4.1,-0.263,0.601,-0.04
4.11,-0.118,1.281,0.196
4.12,-0.235,0.822,0.002
4.13,-0.259,0.835,-0.105
4.14,-0.312,1.207,-0.065
4.15,0.035,0.888,0.178
4.16,-0.219,1.122,0.055
4.17,-0.282,0.481,-0.198
4.18,-0.412,1.139,-0.031
4.19,0.016,0.808,0.141
4.2,-0.323,1.293,0.007
4.21,-0.226,0.465,-0.157
4.22,-0.322,1.565,-0.055
4.23,-0.065,0.963,0.156
4.24,-0.233,0.623,0.065
4.25,-0.453,1.019,-0.124
4.26,-0.245,1.281,0.025
4.27,-0.074,1.225,0.227
4.28,-0.122,0.479,0.081
4.29,-0.47,0.873,-0.204
4.3,-0.368,1.53,0.048
4.31,-0.212,0.69,0.116
4.32,-0.233,1.128,0.008
4.33,-0.305,0.275,-0.198
4.34,-0.328,1.971,0.077
4.35,-0.008,0.496,0.128
4.36,-0.214,0.982,0.007
4.37,-0.411,0.316,-0.191
4.38,-0.16,1.824,0.09
4.39,-0.069,1.012,0.165
4.4,-0.049,0.525,-0.022
4.41,-0.568,0.85,-0.215
4.42,-0.07,1.544,0.127
4.43,-0.379,1.053,0.075
4.44,-0.0,0.466,0.006
4.45,-0.581,0.767,-0.188
4.46,-0.011,1.725,0.134
4.47,-0.092,0.825,0.133
4.48,-0.042,0.782,-0.037
4.49,-0.414,0.284,-0.17
4.5,-0.125,2.0,0.141
4.51,0.026,0.7,0.096
4.52,-0.124,1.037,-0.031
4.53,-0.396,0.325,-0.179
4.54,-0.087,1.911,0.185
4.55,-0.18,0.904,0.088
4.56,-0.055,0.472,-0.059
4.57,-0.492,0.898,-0.149
4.58,-0.067,1.485,0.15
4.59,-0.244,1.257,0.101
4.6,0.036,0.468,-0.023
4.61,-0.414,0.814,-0.108
4.62,-0.11,1.308,0.118
4.63,-0.081,1.069,-0.022
4.64,-0.144,0.93,-0.159
4.65,-0.238,0.311,-0.11
4.66,-0.186,1.767,0.136
4.67,-0.155,0.78,0.046
4.68,-0.173,1.042,-0.126
4.69,-0.326,0.36,-0.074
4.7,-0.22,1.439,0.27
4.71,-0.212,1.161,0.006
4.72,-0.234,0.529,-0.117
4.73,-0.267,1.083,-0.083
4.74,-0.012,0.837,0.155
4.75,-0.335,1.229,0.039
4.76,-0.331,0.446,-0.148
4.77,-0.39,1.154,-0.066
4.78,-0.025,0.822,0.156
4.79,-0.213,1.32,-0.073
4.8,-0.274,0.489,-0.131
4.81,-0.195,1.406,-0.049
4.82,-0.067,0.904,0.117
4.83,-0.174,0.76,-0.026
4.84,-0.302,0.96,-0.192
4.85,-0.146,1.281,0.009
4.86,-0.063,1.215,0.205
4.87,-0.095,0.474,0.021
4.88,-0.506,0.776,-0.174
4.89,-0.223,1.669,0.055
4.9,-0.259,0.672,0.093
4.91,-0.225,1.014,0.002
4.92,-0.282,0.291,-0.238
4.93,-0.272,2.0,0.065
4.94,0.051,0.503,0.115
4.95,-0.242,0.924,-0.006
4.96,-0.34,0.328,-0.191
4.97,-0.159,1.823,0.088
4.98,-0.021,0.926,0.1
4.99,-0.011,0.528,-0.049
5.0,-0.508,0.871,-0.191
5.01,-0.023,1.538,0.146
5.02,-0.246,1.187,0.108
5.03,0.061,0.452,-0.033
5.04,-0.63,0.828,-0.173
5.05,-0.014,1.679,0.156
5.06,-0.095,0.87,0.033
5.07,0.025,0.859,-0.073
5.08,-0.446,0.309,-0.147
5.09,-0.151,1.844,0.125
5.1,-0.181,0.747,0.054
5.11,-0.099,1.012,-0.087
5.12,-0.405,0.348,-0.124
5.13,-0.084,1.715,0.175
5.14,-0.195,0.991,0.028
5.15,-0.066,0.628,-0.107
5.16,-0.492,0.767,-0.162
5.17,-0.068,1.127,0.165
5.18,-0.41,1.48,0.033
5.19,-0.054,0.339,-0.062
5.2,-0.39,0.901,-0.134
5.21,0.011,1.064,0.176
5.22,-0.208,1.017,-0.028
5.23,-0.292,0.905,-0.186
5.24,-0.183,0.487,-0.085
5.25,-0.135,1.321,0.138
5.26,-0.113,0.746,0.009
5.27,-0.288,0.979,-0.165
5.28,-0.21,0.847,-0.084
5.29,-0.026,1.072,0.15
5.3,-0.169,0.959,-0.068
5.31,-0.222,0.646,-0.183
5.32,-0.292,1.565,-0.087
5.33,0.035,0.7,0.136
5.34,-0.296,1.257,0.009
5.35,-0.23,0.396,-0.175
5.36,-0.418,1.751,0.05
5.37,-0.086,0.671,0.197
5.38,-0.313,0.922,0.054
5.39,-0.411,0.679,-0.127
5.4,-0.261,1.555,0.13
5.41,-0.172,1.044,0.134
5.42,-0.067,0.511,0.012
5.43,-0.406,0.917,-0.253
5.44,-0.058,1.51,0.075
5.45,-0.178,0.985,0.066
5.46,-0.052,0.653,-0.013
5.47,-0.452,0.528,-0.216
5.48,-0.076,1.953,0.055
5.49,-0.139,0.599,0.119
5.5,-0.11,1.018,-0.005
5.51,-0.537,0.194,-0.162
5.52,-0.096,2.0,0.165
5.53,-0.112,0.698,0.109
5.54,-0.072,0.768,-0.049
5.55,-0.403,0.576,-0.202
5.56,-0.161,1.72,0.148
5.57,-0.167,1.009,0.051
5.58,-0.031,0.641,-0.08
5.59,-0.428,0.82,-0.136
5.6,-0.103,1.246,0.2
5.61,-0.329,1.365,0.034
5.62,-0.099,0.422,-0.082
5.63,-0.465,0.786,-0.081
5.64,-0.114,1.212,0.228
5.65,-0.282,1.199,-0.016
5.66,-0.198,0.835,-0.119
5.67,-0.326,0.364,-0.067
5.68,-0.084,1.394,0.182
5.69,-0.165,0.695,0.042
5.7,-0.31,1.044,-0.16
5.71,-0.287,0.707,-0.078
5.72,-0.079,1.119,0.177
5.73,-0.309,0.985,0.006
5.74,-0.194,0.57,-0.129
5.75,-0.364,1.428,-0.033
5.76,0.05,0.706,0.153
5.77,-0.314,1.285,0.011
5.78,-0.219,0.399,-0.203
5.79,-0.301,1.641,-0.003
5.8,-0.043,0.718,0.129
5.81,-0.195,0.956,-0.027
5.82,-0.301,0.693,-0.162
5.83,-0.146,1.46,0.032
5.84,-0.126,1.104,0.181
5.85,-0.036,0.47,0.025
5.86,-0.555,0.941,-0.188
5.87,-0.144,1.5,0.086
5.88,-0.209,0.931,0.097
5.89,-0.032,0.675,0.002
5.9,-0.496,0.592,-0.178
5.91,-0.002,1.926,0.047
5.92,-0.07,0.597,0.066
5.93,-0.085,0.98,-0.028
5.94,-0.399,0.187,-0.182
5.95,-0.128,2.0,0.158
5.96,-0.128,0.71,0.119
5.97,-0.113,0.726,-0.042
5.98,-0.454,0.62,-0.15
5.99,0.008,1.639,0.155
6.0,-0.206,1.157,0.068
6.01,0.072,0.437,-0.039
6.02,-0.457,0.939,-0.187
6.03,-0.005,1.395,0.107
6.04,-0.208,1.313,-0.012
6.05,-0.032,0.638,-0.137
6.06,-0.381,0.488,-0.133
6.07,-0.104,1.624,0.155
6.08,-0.194,0.875,0.057
6.09,-0.222,1.036,-0.102
6.1,-0.436,0.191,-0.05
6.11,-0.216,1.576,0.245
6.12,-0.318,0.951,0.029
6.13,-0.211,0.9,-0.053
6.14,-0.433,0.599,-0.047
6.15,0.007,0.988,0.193
6.16,-0.365,1.366,0.003
6.17,-0.149,0.425,-0.097
6.18,-0.391,1.323,-0.056
6.19,-0.014,0.74,0.189
6.2,-0.357,1.246,0.009
6.21,-0.265,0.527,-0.14
6.22,-0.367,1.092,0.013
6.23,-0.115,0.956,0.168
6.24,-0.208,0.778,0.012
6.25,-0.328,0.919,-0.15
6.26,-0.272,1.329,0.041
6.27,-0.124,1.071,0.174
6.28,-0.224,0.648,0.005
6.29,-0.376,0.79,-0.15
6.3,-0.268,1.617,0.091
6.31,-0.123,0.719,0.151
6.32,-0.221,0.899,0.041
6.33,-0.412,0.334,-0.163
6.34,-0.287,2.0,0.126
6.35,-0.085,0.545,0.062
6.36,-0.207,0.945,-0.035
6.37,-0.427,0.178,-0.139
6.38,-0.124,2.0,0.144
6.39,-0.06,0.73,0.104
6.4,-0.022,0.722,-0.076
6.41,-0.447,0.613,-0.145
6.42,-0.056,1.476,0.149
6.43,-0.235,1.294,0.054
6.44,0.008,0.495,-0.071
6.45,-0.495,0.914,-0.142
6.46,0.01,1.403,0.117
6.47,-0.235,1.276,0.02
6.48,-0.07,0.712,-0.161
6.49,-0.396,0.46,-0.069
6.5,-0.193,1.557,0.178
6.51,-0.122,1.024,0.029
6.52,-0.278,0.901,-0.157
6.53,-0.253,0.262,-0.035
6.54,-0.106,1.377,0.112
6.55,-0.164,0.838,-0.021
6.56,-0.293,0.911,-0.198
6.57,-0.229,0.77,-0.1
6.58,-0.043,0.935,0.12
6.59,-0.328,1.252,-0.009
6.6,-0.18,0.452,-0.161
6.61,-0.353,1.539,-0.049
6.62,-0.037,0.61,0.165
6.63,-0.385,1.188,0.076
6.64,-0.355,0.519,-0.145
6.65,-0.276,1.631,0.003
6.66,-0.191,0.947,0.18
6.67,-0.088,0.578,0.002
6.68,-0.54,1.016,-0.172
6.69,-0.18,1.333,0.084
6.7,-0.32,0.989,0.158
6.71,-0.15,0.665,0.013
6.72,-0.416,0.787,-0.166
6.73,-0.156,1.663,0.036
6.74,-0.12,0.694,0.136
6.75,-0.219,0.856,0.036
6.76,-0.418,0.17,-0.139
6.77,-0.155,2.0,0.091
6.78,-0.034,0.609,0.079
6.79,-0.143,0.886,-0.034
6.8,-0.505,0.349,-0.166
6.81,-0.164,1.825,0.231
6.82,-0.215,0.935,0.131
6.83,0.033,0.475,-0.058
6.84,-0.523,0.893,-0.16
6.85,0.028,1.47,0.108
6.86,-0.224,1.319,0.021
6.87,0.063,0.485,-0.063
6.88,-0.382,0.766,-0.188
6.89,-0.057,1.514,0.093
6.9,-0.192,0.998,0.066
6.91,-0.054,1.0,-0.097
6.92,-0.412,0.229,-0.086
6.93,-0.071,1.828,0.144
6.94,-0.181,0.803,0.007
6.95,-0.067,1.059,-0.152
6.96,-0.457,0.324,-0.098
6.97,-0.091,1.362,0.23
6.98,-0.354,1.243,0.005
6.99,-0.055,0.571,-0.147
7.0,-0.334,0.968,-0.111
7.01,0.098,0.795,0.112
7.02,-0.293,1.421,-0.044
7.03,-0.215,0.453,-0.185
7.04,-0.26,1.121,-0.116
7.05,-0.031,0.892,0.128
7.06,-0.17,0.952,-0.027
7.07,-0.337,0.836,-0.174
7.08,-0.193,1.318,-0.047
7.09,-0.253,1.08,0.148
7.1,-0.036,0.563,0.031
7.11,-0.483,0.973,-0.137
7.12,-0.246,1.445,0.057
7.13,-0.199,0.879,0.171
7.14,-0.124,0.892,0.012
7.15,-0.392,0.53,-0.212
7.16,-0.294,1.855,0.101
7.17,-0.125,0.734,0.105
7.18,-0.165,0.85,0.018
7.19,-0.348,0.278,-0.145
7.2,-0.142,2.0,0.114
7.21,-0.015,0.628,0.097
7.22,-0.137,0.921,-0.06
7.23,-0.389,0.362,-0.194
7.24,-0.095,1.851,0.166
7.25,-0.205,0.978,0.104
7.26,-0.094,0.401,-0.05
7.27,-0.463,0.919,-0.18
7.28,0.013,1.49,0.181
7.29,-0.21,1.251,0.077
7.3,0.06,0.492,-0.045
7.31,-0.348,0.732,-0.237
7.32,-0.132,1.503,0.107
7.33,-0.201,0.968,0.005
7.34,-0.223,0.968,-0.138
7.35,-0.346,0.22,-0.06
7.36,-0.304,1.666,0.268
7.37,-0.204,0.864,0.119
7.38,-0.267,0.968,-0.073
7.39,-0.381,0.409,-0.005
7.4,-0.124,1.306,0.231
7.41,-0.335,1.212,-0.018
7.42,-0.075,0.572,-0.156
7.43,-0.42,1.017,-0.076
7.44,0.123,0.83,0.139
7.45,-0.343,1.379,0.024
7.46,-0.12,0.403,-0.116
7.47,-0.349,1.206,-0.086
7.48,-0.016,0.842,0.146
7.49,-0.202,0.951,-0.006
7.5,-0.334,0.745,-0.119
7.51,-0.249,1.178,-0.007
7.52,-0.161,1.106,0.179
7.53,-0.097,0.665,-0.065
7.54,-0.448,0.961,-0.147
7.55,-0.226,1.381,0.071
7.56,-0.151,0.872,0.135
7.57,-0.193,0.846,0.008
7.58,-0.375,0.502,-0.14
7.59,-0.259,1.966,0.079
7.6,-0.024,0.5,0.066
7.61,-0.225,1.071,-0.002
7.62,-0.358,0.218,-0.221
7.63,-0.162,2.0,0.078
7.64,0.007,0.784,0.084
7.65,-0.16,0.609,-0.048
7.66,-0.476,0.659,-0.151
7.67,-0.079,1.627,0.161
7.68,-0.091,1.153,0.083
7.69,0.003,0.36,-0.055
7.7,-0.48,0.932,-0.169
7.71,0.003,1.509,0.17
7.72,-0.217,1.131,0.09
7.73,-0.016,0.774,-0.077
7.74,-0.45,0.434,-0.128
7.75,-0.043,1.894,0.139
7.76,-0.104,0.835,0.006
7.77,-0.158,1.01,-0.089
7.78,-0.295,0.178,-0.131
7.79,-0.207,1.625,0.229
7.8,-0.224,0.963,0.042
7.81,-0.218,0.842,-0.095
7.82,-0.307,0.62,-0.069
7.83,-0.122,1.125,0.242
7.84,-0.352,1.442,0.032
7.85,-0.076,0.433,-0.125
7.86,-0.455,1.026,-0.057
7.87,0.119,0.835,0.153
7.88,-0.327,1.384,-0.059
7.89,-0.13,0.558,-0.143
7.9,-0.209,1.342,-0.092
7.91,-0.002,1.126,0.117
7.92,-0.152,0.573,0.019
7.93,-0.456,1.069,-0.173
7.94,-0.289,1.012,0.099
7.95,-0.253,1.041,0.13
7.96,-0.166,0.799,-0.009
7.97,-0.333,0.719,-0.161
7.98,-0.042,1.6,0.056
7.99,-0.19,0.835,0.112
8.0,-0.045,0.745,-0.022
8.01,-0.502,0.387,-0.173
8.02,-0.06,1.984,0.076
8.03,-0.034,0.654,0.102
8.04,-0.071,1.03,-0.011
8.05,-0.419,0.211,-0.191
8.06,-0.086,1.97,0.139
8.07,-0.179,0.733,0.078
8.08,-0.078,0.609,-0.095
8.09,-0.403,0.709,-0.201
8.1,-0.019,1.547,0.106
8.11,-0.197,1.251,0.027
8.12,0.036,0.406,-0.033
8.13,-0.489,0.867,-0.18
8.14,-0.124,1.259,0.141
8.15,-0.277,1.184,0.016
8.16,-0.156,0.805,-0.122
8.17,-0.45,0.404,-0.047
8.18,-0.241,1.551,0.251
8.19,-0.227,0.88,0.09
8.2,-0.218,1.037,-0.083
8.21,-0.402,0.237,-0.055
8.22,-0.124,1.408,0.176
8.23,-0.266,1.081,-0.009
8.24,-0.141,0.725,-0.127
8.25,-0.376,0.876,-0.05
8.26,0.036,0.868,0.184
8.27,-0.3,1.362,-0.016
8.28,-0.169,0.38,-0.133
8.29,-0.355,1.258,-0.054
8.3,0.013,0.768,0.159
8.31,-0.308,1.189,-0.06
8.32,-0.21,0.583,-0.127
8.33,-0.27,1.489,-0.046
8.34,-0.101,0.993,0.161
8.35,-0.153,0.602,-0.007
8.36,-0.416,1.016,-0.193
8.37,-0.176,1.355,0.054
8.38,-0.14,1.083,0.113
8.39,-0.04,0.577,0.003
8.4,-0.525,0.758,-0.226
8.41,-0.193,1.776,0.105
8.42,-0.198,0.604,0.119
8.43,-0.231,1.023,0.046
8.44,-0.435,0.228,-0.147
8.45,-0.166,2.0,0.119
8.46,0.008,0.668,0.146
8.47,-0.115,0.81,-0.012
8.48,-0.497,0.46,-0.151
8.49,-0.061,1.783,0.126
8.5,-0.133,0.987,0.09
8.51,0.097,0.526,-0.044
8.52,-0.585,0.915,-0.199
8.53,0.062,1.518,0.163
8.54,-0.204,1.2,0.075
8.55,0.036,0.542,-0.036
8.56,-0.461,0.719,-0.198
8.57,-0.053,1.708,0.093
8.58,-0.176,0.941,0.041
8.59,-0.073,1.009,-0.053
8.6,-0.402,0.16,-0.129
8.61,-0.201,1.818,0.217
8.62,-0.149,0.835,0.078
8.63,-0.153,0.953,-0.118
8.64,-0.441,0.426,-0.137
8.65,-0.169,1.42,0.201
8.66,-0.324,1.22,-0.002
8.67,-0.025,0.521,-0.084
8.68,-0.441,0.953,-0.063
8.69,-0.008,0.921,0.218
8.7,-0.401,1.436,0.041
8.71,-0.177,0.489,-0.066
8.72,-0.405,0.867,-0.022
8.73,-0.036,1.068,0.17
8.74,-0.185,0.944,-0.012
8.75,-0.338,0.906,-0.157
8.76,-0.287,0.509,-0.015
8.77,-0.16,1.233,0.204
8.78,-0.12,0.752,-0.001
8.79,-0.385,0.966,-0.164
8.8,-0.203,1.296,0.032
8.81,-0.119,1.027,0.145
8.82,-0.132,0.695,-0.022
8.83,-0.419,0.701,-0.207
8.84,-0.216,1.719,0.076
8.85,-0.107,0.64,0.107
8.86,-0.248,1.017,0.051
8.87,-0.373,0.272,-0.179
8.88,-0.293,1.985,0.168
8.89,-0.044,0.591,0.135
8.9,-0.208,0.849,-0.003
8.91,-0.48,0.467,-0.162
8.92,-0.13,1.724,0.133
8.93,-0.1,0.996,0.143
8.94,0.041,0.444,-0.049
8.95,-0.542,0.903,-0.202
8.96,0.025,1.526,0.114
8.97,-0.193,1.17,0.066
8.98,0.017,0.542,-0.042
8.99,-0.437,0.701,-0.167
9.0,-0.019,1.785,0.121
9.01,-0.042,0.812,0.085
9.02,-0.053,0.946,-0.063
9.03,-0.406,0.246,-0.168
9.04,-0.106,1.898,0.145
9.05,-0.18,0.738,0.111
9.06,-0.105,0.929,-0.106
9.07,-0.339,0.433,-0.183
9.08,-0.081,1.464,0.121
9.09,-0.339,1.196,0.04
9.1,0.031,0.573,-0.125
9.11,-0.502,0.876,-0.106
9.12,0.018,1.09,0.238
9.13,-0.364,1.402,0.034
9.14,-0.154,0.507,-0.092
9.15,-0.422,0.683,-0.076
9.16,-0.112,1.207,0.217
9.17,-0.221,1.103,-0.031
9.18,-0.182,0.909,-0.107
9.19,-0.302,0.47,-0.027
9.2,-0.066,1.312,0.174
9.21,-0.199,0.741,0.026
9.22,-0.386,1.03,-0.121
9.23,-0.234,0.948,-0.024
9.24,-0.096,0.94,0.191
9.25,-0.242,1.061,-0.041
9.26,-0.254,0.529,-0.179
9.27,-0.288,1.694,-0.072
9.28,-0.02,0.576,0.137
9.29,-0.306,1.245,-0.001
9.3,-0.26,0.402,-0.208
9.31,-0.318,1.771,0.055
9.32,-0.111,0.736,0.135
9.33,-0.169,0.758,-0.006
9.34,-0.42,0.762,-0.244
9.35,-0.191,0.856,-0.025
9.36,-0.316,0.976,-0.135
9.37,-0.22,0.681,-0.011
9.38,-0.091,1.176,0.157
9.39,-0.164,0.753,-0.026
9.4,-0.44,0.888,-0.15
9.41,-0.215,1.417,-0.013
9.42,-0.126,0.75,0.159
9.43,-0.262,1.121,-0.005
9.44,-0.347,0.367,-0.164
9.45,-0.32,1.895,0.061
9.46,-0.015,0.614,0.163
9.47,-0.264,0.994,0.035
9.48,-0.469,0.406,-0.19
9.49,-0.244,1.884,0.064
9.5,-0.149,0.821,0.091
9.51,-0.028,0.598,-0.023
9.52,-0.554,0.884,-0.225
9.53,-0.042,1.629,0.179
9.54,-0.194,1.181,0.108
9.55,0.001,0.315,-0.049
9.56,-0.523,0.926,-0.148
9.57,-0.02,1.541,0.177
9.58,-0.167,1.112,0.094
9.59,0.063,0.718,-0.033
9.6,-0.395,0.511,-0.141
9.61,-0.104,1.836,0.138
9.62,-0.045,0.76,0.057
9.63,-0.112,1.072,-0.076
9.64,-0.301,0.16,-0.152
9.65,-0.16,1.807,0.153
9.66,-0.18,0.917,0.011
9.67,-0.118,0.822,-0.127
9.68,-0.366,0.578,-0.139
9.69,-0.086,1.163,0.209
9.7,-0.359,1.364,-0.019
9.71,-0.099,0.468,-0.109
9.72,-0.385,0.989,-0.094
9.73,0.009,0.888,0.198
9.74,-0.264,1.309,-0.01
9.75,-0.249,0.611,-0.15
9.76,-0.332,0.865,-0.039
9.77,-0.09,1.116,0.181
9.78,-0.122,0.768,-0.07
9.79,-0.38,0.947,-0.131
9.8,-0.173,1.119,-0.016
9.81,-0.217,1.142,0.19
9.82,-0.163,0.629,0.06
9.83,-0.471,0.823,-0.173
9.84,-0.264,1.58,0.02
9.85,-0.147,0.712,0.134
9.86,-0.21,1.096,-0.005
9.87,-0.268,0.272,-0.203
9.88,-0.342,2.0,0.121
9.89,-0.115,0.543,0.152
9.9,-0.184,0.992,0.044
9.91,-0.446,0.308,-0.198
9.92,-0.093,1.867,0.093
9.93,-0.135,0.941,0.066
9.94,-0.018,0.475,-0.047
9.95,-0.53,0.821,-0.198
9.96,0.026,1.583,0.122
9.97,-0.359,1.029,0.051
9.98,0.011,0.478,-0.008
9.99,-0.551,0.771,-0.161
10.0,0.012,1.69,0.138
10.01,-0.141,0.873,0.132
10.02,-0.02,0.824,-0.09
10.03,-0.365,0.287,-0.14
10.04,-0.128,1.954,0.149
10.05,-0.05,0.729,0.085
10.06,-0.157,1.053,-0.077
10.07,-0.414,0.346,-0.116
10.08,-0.032,1.793,0.155
10.09,-0.159,1.069,0.026
10.1,-0.018,0.595,-0.076
10.11,-0.484,0.796,-0.136
10.12,-0.042,1.127,0.164
10.13,-0.338,1.465,-0.022
10.14,-0.061,0.432,-0.095
10.15,-0.344,0.892,-0.086
10.16,-0.059,1.044,0.164
10.17,-0.214,0.998,0.008
10.18,-0.307,0.909,-0.127
10.19,-0.306,0.464,0.009
10.2,-0.162,1.303,0.187
10.21,-0.209,0.774,-0.021
10.22,-0.325,0.969,-0.118
10.23,-0.199,1.026,-0.014
10.24,-0.089,0.956,0.156
10.25,-0.227,0.947,-0.031
10.26,-0.281,0.626,-0.199
10.27,-0.283,1.808,-0.016
10.28,0.017,0.648,0.149
10.29,-0.222,1.084,-0.001
10.3,-0.379,0.307,-0.253
10.31,-0.317,1.907,0.072
10.32,-0.155,0.672,0.111
10.33,-0.158,0.819,-0.005
10.34,-0.465,0.403,-0.207
10.35,-0.091,1.791,0.124
10.36,-0.097,0.966,0.102
10.37,0.011,0.409,-0.039
10.38,-0.58,0.878,-0.164
10.39,-0.008,1.501,0.129
10.4,-0.172,1.231,0.12
10.41,0.053,0.501,0.013
10.42,-0.548,0.777,-0.188
10.43,-0.043,1.712,0.148
10.44,-0.148,0.84,0.047
10.45,-0.016,0.927,-0.069
10.46,-0.354,0.243,-0.193
10.47,-0.181,1.805,0.127
10.48,-0.22,0.804,0.045
10.49,-0.142,0.948,-0.06
10.5,-0.288,0.365,-0.139
10.51,-0.215,1.483,0.192
10.52,-0.279,1.129,0.06
10.53,-0.152,0.604,-0.138
10.54,-0.424,0.846,-0.08
10.55,-0.088,1.104,0.258
10.56,-0.333,1.476,0.014
10.57,-0.056,0.398,-0.066
10.58,-0.415,0.868,-0.019
10.59,-0.066,1.051,0.182
10.6,-0.171,1.157,-0.024
10.61,-0.234,0.86,-0.156
10.62,-0.208,0.643,-0.066
10.63,-0.06,1.281,0.153
10.64,-0.134,0.674,0.009
10.65,-0.451,1.039,-0.13
10.66,-0.249,0.954,-0.023
10.67,-0.158,0.964,0.17
10.68,-0.244,1.001,-0.037
10.69,-0.31,0.497,-0.158
10.7,-0.293,1.812,-0.021
10.71,-0.068,0.568,0.129
10.72,-0.261,1.183,-0.008
10.73,-0.354,0.323,-0.203
10.74,-0.27,1.897,0.067
10.75,-0.064,0.733,0.118
10.76,-0.101,0.757,-0.021
10.77,-0.441,0.74,-0.244
10.78,-0.06,1.585,0.017
10.79,-0.207,1.075,0.104
10.8,0.049,0.456,-0.005
10.81,-0.616,0.884,-0.185
10.82,0.09,1.605,0.078
10.83,-0.249,0.997,0.131
10.84,-0.004,0.625,-0.026
10.85,-0.522,0.475,-0.175
10.86,-0.08,1.921,0.146
10.87,-0.023,0.616,0.117
10.88,-0.103,0.942,-0.037
10.89,-0.346,0.254,-0.15
10.9,-0.204,1.848,0.077
10.91,-0.068,0.812,0.063
10.92,-0.015,0.803,-0.092
10.93,-0.487,0.672,-0.15
10.94,0.011,1.537,0.219
10.95,-0.296,1.17,0.093
10.96,0.06,0.477,-0.033
10.97,-0.547,0.905,-0.185
10.98,-0.079,1.363,0.173
10.99,-0.303,1.312,0.039
11.0,-0.085,0.603,-0.075
11.01,-0.4,0.47,-0.074
11.02,-0.182,1.53,0.197
11.03,-0.155,0.839,0.047
11.04,-0.317,1.099,-0.132
11.05,-0.353,0.194,-0.065
11.06,-0.195,1.545,0.22
11.07,-0.265,0.918,0.055
11.08,-0.16,0.838,-0.117
11.09,-0.431,0.677,-0.074
11.1,-0.014,1.004,0.166
11.11,-0.367,1.324,0.016
11.12,-0.057,0.406,-0.081
11.13,-0.42,1.384,-0.063
11.14,0.106,0.753,0.17
11.15,-0.299,1.205,-0.037
11.16,-0.253,0.42,-0.17
11.17,-0.364,1.646,-0.012
11.18,-0.078,0.782,0.152
11.19,-0.189,0.898,-0.002
11.2,-0.332,0.753,-0.19
11.21,-0.229,1.397,0.012
11.22,-0.19,1.07,0.145
11.23,-0.024,0.486,0.019
11.24,-0.465,0.931,-0.196
11.25,-0.122,1.526,0.032
11.26,-0.124,0.951,0.134
11.27,-0.1,0.734,0.035
11.28,-0.445,0.448,-0.158
11.29,-0.232,1.944,0.126
11.3,-0.145,0.521,0.072
11.31,-0.117,1.093,0.006
11.32,-0.427,0.209,-0.225
11.33,-0.085,2.0,0.06
11.34,-0.136,0.686,0.078
11.35,-0.094,0.678,-0.053
11.36,-0.435,0.608,-0.208
11.37,-0.011,1.651,0.109
11.38,-0.107,1.139,0.076
11.39,0.097,0.387,-0.044
11.4,-0.581,0.905,-0.167
11.41,0.002,1.534,0.176
11.42,-0.228,1.049,0.101
11.43,-0.051,0.625,-0.043
11.44,-0.402,0.523,-0.135
11.45,-0.08,1.953,0.114
11.46,0.018,0.711,0.085
11.47,-0.113,0.964,-0.088
11.48,-0.308,0.215,-0.172
11.49,-0.141,1.825,0.096
11.5,-0.168,0.849,0.04
11.51,-0.042,0.82,-0.111
11.52,-0.361,0.608,-0.177
11.53,-0.09,1.404,0.158
11.54,-0.241,1.329,0.034
11.55,-0.017,0.47,-0.117
11.56,-0.484,0.913,-0.105
11.57,-0.036,1.198,0.203
11.58,-0.278,1.392,-0.004
11.59,-0.061,0.67,-0.133
11.6,-0.439,0.498,-0.099
11.61,-0.054,1.41,0.198
11.62,-0.2,0.98,-0.024
11.63,-0.235,0.991,-0.105
11.64,-0.35,0.256,-0.064
11.65,-0.116,1.366,0.18
11.66,-0.165,0.929,-0.023
11.67,-0.25,0.82,-0.113
11.68,-0.345,0.768,-0.046
11.69,-0.031,0.882,0.17
11.7,-0.236,1.289,-0.021
11.71,-0.192,0.338,-0.156
11.72,-0.297,1.488,-0.033
11.73,0.007,0.699,0.121
11.74,-0.264,1.174,-0.062
11.75,-0.271,0.563,-0.147
11.76,-0.259,1.398,-0.055
11.77,-0.087,0.991,0.123
11.78,-0.083,0.706,-0.043
11.79,-0.413,0.988,-0.226
11.8,-0.119,1.23,0.02
11.81,-0.267,1.081,0.132
11.82,-0.198,0.659,0.042
11.83,-0.382,0.782,-0.19
11.84,-0.251,1.626,0.01
11.85,-0.17,0.673,0.134
11.86,-0.133,1.003,0.01
11.87,-0.4,0.246,-0.198
11.88,-0.319,2.0,0.16
11.89,-0.183,0.544,0.131
11.9,-0.277,0.954,0.07
11.91,-0.308,0.346,-0.155
11.92,-0.239,1.857,0.095
11.93,-0.175,0.786,0.064
11.94,-0.022,0.55,-0.038
11.95,-0.553,0.6,-0.168
11.96,-0.038,1.654,0.172
11.97,-0.233,1.175,0.133
11.98,0.116,0.435,-0.017
11.99,-0.558,0.949,-0.148
12.0,0.087,1.521,0.192
12.01,-0.195,1.151,0.04
12.02,0.055,0.75,-0.083
12.03,-0.486,0.523,-0.175
12.04,-0.094,1.828,0.185
12.05,-0.14,0.839,0.102
12.06,-0.115,1.037,-0.06
12.07,-0.343,0.195,-0.096
12.08,-0.244,1.689,0.199
12.09,-0.166,1.04,0.025
12.1,-0.206,0.809,-0.131
12.11,-0.266,0.586,-0.117
12.12,-0.114,1.294,0.198
12.13,-0.269,1.364,0.017
12.14,0.022,0.538,-0.118
12.15,-0.434,0.942,-0.06
12.16,0.024,0.967,0.216
12.17,-0.343,1.493,-0.051
12.18,-0.118,0.449,-0.155
12.19,-0.147,1.155,-0.125
12.2,-0.053,1.104,0.067
12.21,-0.259,0.704,0.01
12.22,-0.36,1.032,-0.126
12.23,-0.298,1.092,0.011
12.24,-0.219,1.064,0.188
12.25,-0.168,0.708,0.032
12.26,-0.338,0.816,-0.143
12.27,-0.29,1.575,0.081
12.28,-0.155,0.638,0.18
12.29,-0.196,1.035,-0.001
12.3,-0.295,0.29,-0.2
12.31,-0.193,2.0,0.096
12.32,0.023,0.613,0.144
12.33,-0.147,0.914,-0.052
12.34,-0.389,0.36,-0.228
12.35,-0.103,1.867,0.06
12.36,-0.155,0.892,0.075
12.37,-0.016,0.51,-0.028
12.38,-0.554,0.823,-0.168
12.39,0.038,1.564,0.15
12.4,-0.28,1.193,0.102
12.41,0.006,0.428,-0.022
12.42,-0.456,0.739,-0.157
12.43,-0.038,1.719,0.153
12.44,0.001,0.921,0.067
12.45,-0.085,0.911,-0.096
12.46,-0.312,0.241,-0.137
12.47,-0.169,1.976,0.146
12.48,-0.059,0.738,0.065
12.49,-0.187,0.978,-0.074
12.5,-0.417,0.342,-0.08
12.51,-0.266,1.582,0.25
12.52,-0.234,1.146,0.053
12.53,-0.079,0.572,-0.088
12.54,-0.383,0.866,-0.051
12.55,-0.088,0.946,0.197
12.56,-0.299,1.371,-0.003
12.57,-0.146,0.44,-0.112
12.58,-0.356,0.867,-0.053
12.59,-0.033,1.068,0.185
12.6,-0.204,1.097,0.012
12.61,-0.292,0.828,-0.159
12.62,-0.235,0.475,-0.059
12.63,-0.099,1.265,0.136
12.64,-0.146,0.821,-0.032
12.65,-0.304,0.953,-0.146
12.66,-0.224,1.204,-0.063
12.67,-0.12,0.958,0.13
12.68,-0.288,0.912,-0.003
12.69,-0.341,0.602,-0.125
12.7,-0.367,1.777,0.041
12.71,-0.117,0.574,0.179
12.72,-0.305,1.172,0.009
12.73,-0.308,0.29,-0.2
12.74,-0.285,1.898,0.11
12.75,-0.146,0.66,0.12
12.76,-0.167,0.907,-0.011
12.77,-0.488,0.382,-0.161
12.78,-0.084,1.807,0.164
12.79,-0.044,1.023,0.09
12.8,0.044,0.481,-0.077
12.81,-0.509,0.875,-0.177
12.82,0.006,1.491,0.16
12.83,-0.193,1.207,0.079
12.84,0.069,0.531,-0.018
12.85,-0.463,0.762,-0.214
12.86,0.013,1.64,0.079
12.87,-0.186,0.934,0.013
12.88,-0.028,0.972,-0.091
12.89,-0.375,0.234,-0.129
12.9,-0.184,1.752,0.134
12.91,-0.177,0.798,0.042
12.92,-0.207,1.054,-0.132
12.93,-0.321,0.366,-0.095
12.94,-0.164,1.415,0.19
12.95,-0.295,1.186,0.005
12.96,-0.073,0.627,-0.142
12.97,-0.457,0.888,-0.043
12.98,-0.031,0.942,0.258
12.99,-0.444,1.481,0.047
13.0,-0.129,0.371,-0.089
13.01,-0.358,1.083,-0.045
13.02,0.047,0.966,0.16
13.03,-0.257,0.989,-0.011
13.04,-0.313,0.804,-0.172
13.05,-0.196,0.818,-0.032
13.06,-0.115,1.163,0.134
13.07,-0.101,0.718,-0.012
13.08,-0.412,1.021,-0.174
13.09,-0.234,1.335,0.033
13.1,-0.145,0.895,0.176
13.11,-0.188,0.958,0.002
13.12,-0.348,0.506,-0.152
13.13,-0.237,1.853,0.095
13.14,-0.061,0.613,0.134
13.15,-0.104,1.037,0.014
13.16,-0.422,0.242,-0.189
13.17,-0.204,1.999,0.078
13.18,-0.111,0.671,0.082
13.19,-0.045,0.711,-0.062
13.2,-0.531,0.653,-0.23
13.21,-0.005,1.616,0.083
13.22,-0.323,1.096,0.107
13.23,0.034,0.396,-0.008
13.24,-0.548,0.878,-0.147
13.25,0.015,1.568,0.152
13.26,-0.15,1.073,0.094
13.27,-0.021,0.624,-0.057
13.28,-0.364,0.444,-0.133
13.29,-0.043,1.876,0.149
13.3,-0.009,0.72,0.062
13.31,-0.192,0.99,-0.058
13.32,-0.321,0.195,-0.117
13.33,-0.172,1.824,0.156
13.34,-0.151,0.893,0.074
13.35,-0.144,0.707,-0.111
13.36,-0.314,0.613,-0.169
13.37,-0.054,1.144,0.138
13.38,-0.293,1.429,-0.034
13.39,-0.095,0.434,-0.142
13.4,-0.433,0.912,-0.072
13.41,-0.011,1.022,0.247
13.42,-0.26,1.238,0.037
13.43,-0.245,0.726,-0.175
13.44,-0.291,0.599,-0.037
13.45,-0.134,1.211,0.183
13.46,-0.149,0.883,-0.022
13.47,-0.305,0.891,-0.139
13.48,-0.172,0.97,-0.053
13.49,-0.089,1.176,0.152
13.5,-0.137,0.744,-0.044
13.51,-0.357,0.813,-0.171
13.52,-0.177,1.505,-0.064
13.53,-0.172,0.711,0.144
13.54,-0.267,1.126,-0.026
13.55,-0.233,0.325,-0.161
13.56,-0.255,1.996,0.065
13.57,-0.055,0.473,0.086
13.58,-0.228,1.02,-0.014
13.59,-0.337,0.249,-0.225
13.6,-0.041,1.965,0.03
13.61,0.004,0.821,0.112
13.62,-0.02,0.622,-0.018
13.63,-0.534,0.773,-0.191
13.64,-0.028,1.58,0.181
13.65,-0.223,1.23,0.128
13.66,0.001,0.423,-0.032
13.67,-0.506,0.872,-0.159
13.68,-0.018,1.582,0.167
13.69,-0.132,1.069,0.09
13.7,-0.018,0.65,-0.054
13.71,-0.337,0.409,-0.17
13.72,-0.244,1.705,0.114
13.73,-0.085,0.754,0.05
13.74,-0.145,1.054,-0.114
13.75,-0.382,0.219,-0.129
13.76,-0.215,1.607,0.22
13.77,-0.222,0.913,0.07
13.78,-0.151,0.763,-0.119
13.79,-0.461,0.675,-0.098
13.8,-0.115,1.109,0.253
13.81,-0.393,1.402,0.022
13.82,0.028,0.409,-0.095
13.83,-0.416,1.11,-0.061
13.84,0.101,0.882,0.171
13.85,-0.318,1.161,0.026
13.86,-0.245,0.779,-0.164
13.87,-0.344,0.648,-0.049
13.88,0.015,1.246,0.157
13.89,-0.108,0.767,-0.014
13.9,-0.299,1.013,-0.178
13.91,-0.239,0.815,-0.023
13.92,-0.094,1.077,0.164
13.93,-0.198,0.869,-0.019
13.94,-0.308,0.716,-0.16
13.95,-0.22,1.619,-0.055
13.96,-0.005,0.688,0.087
13.97,-0.198,1.155,0.008
13.98,-0.322,0.395,-0.198
13.99,-0.346,1.882,0.071
14.0,-0.117,0.595,0.105
14.01,-0.22,1.052,0.007
14.02,-0.344,0.484,-0.251
14.03,-0.11,1.688,0.025
14.04,-0.079,1.018,0.111
14.05,-0.04,0.469,-0.036
14.06,-0.507,0.919,-0.239
14.07,0.018,1.46,0.06
14.08,-0.034,1.214,0.117
14.09,0.048,0.466,0.006
14.1,-0.48,0.723,-0.238
14.11,-0.075,1.804,0.106
14.12,-0.131,0.698,0.102
14.13,-0.069,0.947,-0.024
14.14,-0.447,0.232,-0.165
14.15,-0.153,2.0,0.176
14.16,-0.035,0.692,0.1
14.17,-0.05,0.867,-0.018
14.18,-0.387,0.446,-0.162
14.19,-0.093,1.712,0.105
14.2,-0.153,1.081,0.07
14.21,0.047,0.532,-0.061
14.22,-0.556,0.931,-0.149
14.23,0.062,1.512,0.258
14.24,-0.27,1.216,0.07
14.25,0.036,0.536,-0.035
14.26,-0.419,0.747,-0.188
14.27,-0.134,1.533,0.158
14.28,-0.113,0.988,0.016
14.29,-0.122,0.946,-0.13
14.3,-0.228,0.194,-0.113
14.31,-0.158,1.681,0.157
14.32,-0.145,0.854,0.026
14.33,-0.238,1.014,-0.081
14.34,-0.307,0.405,-0.094
14.35,-0.236,1.336,0.3
14.36,-0.262,1.248,-0.01
14.37,-0.195,0.722,-0.122
14.38,-0.252,1.035,-0.096
14.39,0.017,0.793,0.188
14.4,-0.194,1.33,-0.135
14.41,-0.174,0.375,-0.22
14.42,-0.255,1.539,-0.085
14.43,0.054,0.779,0.118
14.44,-0.248,1.069,0.008
14.45,-0.278,0.637,-0.167
14.46,-0.265,1.408,0.015
14.47,-0.197,0.989,0.153
14.48,-0.069,0.666,0.014
14.49,-0.403,0.963,-0.182
14.5,-0.224,1.343,0.035
14.51,-0.183,1.008,0.12
14.52,-0.089,0.708,0.02
14.53,-0.477,0.682,-0.219
14.54,-0.201,1.774,0.093
14.55,-0.202,0.601,0.094
14.56,-0.214,1.039,0.037
14.57,-0.432,0.186,-0.149
14.58,-0.187,2.0,0.139
14.59,-0.083,0.618,0.134
14.6,-0.216,0.831,0.032
14.61,-0.426,0.432,-0.213
14.62,-0.065,1.747,0.121
14.63,-0.148,1.068,0.118
14.64,-0.022,0.448,-0.024
14.65,-0.529,0.824,-0.162
14.66,0.098,1.597,0.136
14.67,-0.232,1.145,0.038
14.68,0.034,0.495,-0.059
14.69,-0.469,0.669,-0.158
14.7,-0.007,1.754,0.128
14.71,-0.05,0.758,0.084
14.72,0.004,0.979,-0.068
14.73,-0.39,0.251,-0.194
14.74,-0.129,1.951,0.12
14.75,-0.144,0.735,0.094
14.76,-0.13,0.99,-0.061
14.77,-0.37,0.406,-0.12
14.78,-0.153,1.588,0.188
14.79,-0.211,1.241,0.016
14.8,-0.002,0.528,-0.075
14.81,-0.471,0.872,-0.087
14.82,-0.095,1.054,0.237
14.83,-0.365,1.443,0.023
14.84,-0.081,0.467,-0.076
14.85,-0.386,0.75,-0.044
14.86,-0.054,1.138,0.166
14.87,-0.234,1.043,-0.017
14.88,-0.243,0.953,-0.121
14.89,-0.267,0.38,-0.021
14.9,-0.109,1.316,0.211
14.91,-0.168,0.819,-0.004
14.92,-0.346,0.941,-0.146
14.93,-0.137,0.896,-0.028
14.94,-0.112,0.948,0.146
14.95,-0.23,1.093,-0.062
14.96,-0.231,0.475,-0.158
14.97,-0.21,1.803,-0.007
14.98,-0.005,0.595,0.163
14.99,-0.343,1.162,-0.034
15.0,-0.324,0.369,-0.195
15.01,-0.287,1.804,0.071
15.02,-0.103,0.757,0.149
15.03,-0.217,0.694,0.027
15.04,-0.508,0.776,-0.175
15.05,-0.149,1.532,0.096
15.06,-0.222,1.074,0.152
15.07,-0.073,0.442,0.026
15.08,-0.61,0.883,-0.13
15.09,-0.013,1.636,0.103
15.1,-0.104,0.943,0.12
15.11,-0.016,0.687,-0.054
15.12,-0.498,0.4,-0.163
15.13,-0.065,2.0,0.127
15.14,0.029,0.637,0.071
15.15,-0.066,1.067,-0.094
15.16,-0.36,0.215,-0.18
15.17,-0.249,1.891,0.181
15.18,-0.07,0.823,0.028
15.19,-0.181,0.912,-0.134
15.2,-0.235,0.427,-0.134
15.21,-0.22,1.353,0.178
15.22,-0.187,1.303,-0.059
15.23,-0.078,0.511,-0.138
15.24,-0.398,0.91,-0.075
15.25,-0.028,0.886,0.229
15.26,-0.322,1.448,-0.002
15.27,-0.221,0.453,-0.088
15.28,-0.333,0.801,-0.024
15.29,-0.095,1.121,0.201
15.3,-0.182,0.931,-0.014
15.31,-0.386,0.92,-0.124
15.32,-0.17,0.744,0.043
15.33,-0.212,1.152,0.209
15.34,-0.163,0.705,0.027
15.35,-0.409,0.91,-0.139
15.36,-0.187,1.447,0.002
15.37,-0.113,0.864,0.132
15.38,-0.204,0.99,-0.035
15.39,-0.338,0.462,-0.22
15.4,-0.253,1.914,0.076
15.41,-0.051,0.578,0.194
15.42,-0.223,1.036,0.001
15.43,-0.427,0.308,-0.25
15.44,-0.167,1.924,0.04
15.45,-0.059,0.854,0.11
15.46,-0.071,0.578,-0.044
15.47,-0.536,0.772,-0.217
15.48,-0.052,1.524,0.113
15.49,-0.099,1.177,0.108
15.5,-0.023,0.371,0.015
15.51,-0.479,0.812,-0.165
15.52,-0.093,1.62,0.153
15.53,-0.059,0.953,0.138
15.54,-0.041,0.804,-0.089
15.55,-0.395,0.355,-0.176
15.56,-0.148,1.936,0.122
15.57,-0.092,0.698,0.038
15.58,-0.053,1.095,-0.067
15.59,-0.418,0.252,-0.139
15.6,-0.114,1.768,0.119
15.61,-0.148,0.982,0.008
15.62,-0.029,0.738,-0.106
15.63,-0.409,0.734,-0.127
15.64,-0.111,1.224,0.194
15.65,-0.389,1.393,-0.016
15.66,0.001,0.43,-0.078
15.67,-0.416,0.878,-0.09
15.68,-0.018,1.07,0.222
15.69,-0.353,1.248,0.013
15.7,-0.296,0.783,-0.083
15.71,-0.255,0.439,-0.035
15.72,-0.142,1.318,0.172
15.73,-0.198,0.855,-0.022
15.74,-0.356,0.992,-0.128
15.75,-0.167,0.786,-0.002
15.76,-0.133,1.009,0.123
15.77,-0.22,0.9,-0.072
15.78,-0.296,0.646,-0.124
15.79,-0.269,1.717,0.053
15.8,-0.058,0.667,0.183
15.81,-0.271,1.063,0.01
15.82,-0.449,0.275,-0.195
15.83,-0.275,1.957,0.089
15.84,-0.162,0.594,0.076
15.85,-0.191,0.889,-0.036
15.86,-0.434,0.504,-0.181
15.87,-0.092,1.683,0.108
15.88,-0.198,1.003,0.114
15.89,-0.011,0.375,0.008
15.9,-0.6,0.935,-0.166
15.91,0.003,1.474,0.118
15.92,-0.039,1.142,0.08
15.93,-0.02,0.594,-0.045
15.94,-0.463,0.576,-0.137
15.95,-0.12,1.807,0.13
15.96,-0.021,0.845,0.039
15.97,-0.103,1.0,-0.049
15.98,-0.361,0.317,-0.12
15.99,-0.274,1.655,0.221
16.0,-0.174,0.862,-0.011
16.01,-0.281,1.095,-0.073
16.02,-0.304,0.264,-0.05
16.03,-0.202,1.334,0.233
16.04,-0.255,1.084,0.015
16.05,-0.094,0.671,-0.111
16.06,-0.383,0.929,-0.116
16.07,0.043,0.834,0.162
16.08,-0.356,1.413,-0.049
16.09,-0.212,0.314,-0.115
16.1,-0.273,1.378,-0.019
16.11,-0.013,0.763,0.121
16.12,-0.186,1.023,-0.065
16.13,-0.293,0.738,-0.187
16.14,-0.13,1.396,-0.02
16.15,-0.218,1.054,0.142
16.16,-0.053,0.563,0.022
16.17,-0.468,0.921,-0.193
16.18,-0.129,1.447,0.024
16.19,-0.195,0.891,0.064
16.2,-0.115,0.773,-0.005
16.21,-0.477,0.517,-0.172
16.22,-0.1,1.966,0.055
16.23,-0.062,0.648,0.131
16.24,-0.199,0.928,-0.008
16.25,-0.41,0.222,-0.143
16.26,-0.188,2.0,0.128
16.27,-0.042,0.726,0.111
16.28,-0.099,0.792,-0.013
16.29,-0.421,0.557,-0.163
16.3,-0.085,1.664,0.187
16.31,-0.14,1.207,0.102
16.32,0.023,0.486,-0.015
16.33,-0.522,0.911,-0.111
16.34,-0.063,1.518,0.197
16.35,-0.232,1.235,0.071
16.36,-0.016,0.682,-0.038
16.37,-0.358,0.494,-0.151
16.38,-0.225,1.547,0.167
16.39,-0.127,0.963,0.017
16.4,-0.312,1.003,-0.082
16.41,-0.243,0.176,-0.065
16.42,-0.224,1.452,0.166
16.43,-0.221,0.885,-0.035
16.44,-0.188,0.89,-0.074
16.45,-0.363,0.697,-0.055
16.46,-0.113,0.97,0.19
16.47,-0.34,1.24,0.009
16.48,-0.134,0.451,-0.142
16.49,-0.259,1.491,-0.023
16.5,0.057,0.666,0.118
16.51,-0.296,1.194,-0.078
16.52,-0.241,0.557,-0.191
16.53,-0.29,1.346,0.023
16.54,-0.0,0.938,0.131
16.55,-0.164,0.764,-0.02
16.56,-0.393,0.886,-0.219
16.57,-0.154,1.301,0.019
16.58,-0.207,1.045,0.093
16.59,-0.094,0.624,-0.014
16.6,-0.439,0.791,-0.168
16.61,-0.024,1.701,0.006
16.62,-0.089,0.788,0.168
16.63,-0.123,0.835,-0.014
16.64,-0.516,0.226,-0.112
16.65,-0.116,2.0,0.18
16.66,-0.161,0.61,0.127
16.67,-0.112,0.928,-0.025
16.68,-0.482,0.299,-0.162
16.69,-0.053,1.815,0.196
16.7,-0.149,0.978,0.101
16.71,0.023,0.417,-0.074
16.72,-0.519,0.837,-0.136
16.73,0.026,1.469,0.119
16.74,-0.217,1.32,0.022
16.75,0.06,0.536,-0.068
16.76,-0.41,0.75,-0.145
16.77,-0.137,1.436,0.153
16.78,-0.201,1.094,0.02
16.79,-0.184,0.74,-0.092
16.8,-0.376,0.501,-0.02
16.81,-0.151,1.336,0.245
16.82,-0.233,0.954,-0.003
16.83,-0.24,0.956,-0.095
16.84,-0.298,0.47,0.003
16.85,-0.107,1.206,0.155
16.86,-0.286,0.918,-0.012
16.87,-0.337,0.813,-0.11
16.88,-0.266,1.096,0.008
16.89,-0.051,0.718,0.152
16.9,-0.326,1.255,0.011
16.91,-0.266,0.373,-0.162
16.92,-0.383,1.802,0.06
16.93,-0.088,0.551,0.184
16.94,-0.295,1.092,0.005
16.95,-0.286,0.515,-0.202
16.96,-0.212,1.694,0.083
16.97,-0.015,0.983,0.137
16.98,-0.086,0.459,-0.049
16.99,-0.535,0.889,-0.199
17.0,-0.012,1.49,0.08
17.01,-0.179,1.147,0.122
17.02,-0.024,0.457,-0.011
17.03,-0.508,0.7,-0.174
17.04,0.013,1.771,0.147
17.05,-0.112,0.772,0.105
17.06,-0.025,0.899,-0.056
17.07,-0.409,0.235,-0.141
17.08,-0.168,2.0,0.128
17.09,-0.063,0.701,0.077
17.1,-0.083,1.061,-0.069
17.11,-0.367,0.352,-0.132
17.12,-0.091,1.713,0.129
17.13,-0.203,1.208,-0.002
17.14,0.002,0.564,-0.056
17.15,-0.442,0.858,-0.076
17.16,-0.134,1.239,0.208
17.17,-0.345,1.443,0.036
17.18,-0.11,0.501,-0.046
17.19,-0.368,0.72,-0.045
17.2,-0.122,1.181,0.2
17.21,-0.274,1.113,-0.018
17.22,-0.216,0.896,-0.13
17.23,-0.165,0.503,-0.076
17.24,-0.104,1.322,0.132
17.25,-0.139,0.718,-0.055
17.26,-0.388,1.025,-0.149
17.27,-0.21,1.036,0.022
17.28,-0.133,0.908,0.176
17.29,-0.324,1.045,0.008
17.3,-0.232,0.48,-0.12
17.31,-0.421,1.861,0.107
17.32,0.031,0.596,0.196
17.33,-0.251,1.072,-0.012
17.34,-0.326,0.311,-0.213
17.35,-0.154,1.938,0.041
17.36,-0.011,0.791,0.084
17.37,-0.05,0.642,-0.055
17.38,-0.505,0.726,-0.239
17.39,-0.102,1.59,0.109
17.4,-0.264,1.039,0.097
17.41,-0.036,0.408,0.007
17.42,-0.525,0.856,-0.159
17.43,-0.015,1.615,0.222
17.44,-0.139,1.015,0.074
17.45,0.032,0.695,-0.082
17.46,-0.382,0.403,-0.134
17.47,-0.026,2.0,0.109
17.48,-0.017,0.668,0.092
17.49,-0.073,1.1,-0.077
17.5,-0.326,0.206,-0.217
17.51,-0.045,1.9,0.116
17.52,-0.118,0.951,-0.041
17.53,-0.048,0.707,-0.115
17.54,-0.378,0.668,-0.164
17.55,-0.104,1.272,0.18
17.56,-0.395,1.409,0.061
17.57,-0.106,0.435,-0.101
17.58,-0.403,0.893,-0.016
17.59,0.015,0.808,0.174
17.6,-0.321,1.362,-0.009
17.61,-0.24,0.448,-0.097
17.62,-0.281,1.255,-0.026
17.63,-0.057,0.877,0.135
17.64,-0.208,0.866,-0.014
17.65,-0.342,0.831,-0.162
17.66,-0.178,1.31,-0.01
17.67,-0.19,1.079,0.114
17.68,-0.147,0.624,0.006
17.69,-0.236,0.661,0.008
17.7,-0.409,0.76,-0.214
17.71,-0.206,1.453,0.129
17.72,-0.17,1.053,0.086
17.73,-0.036,0.504,0.015
17.74,-0.474,0.844,-0.211
17.75,0.055,1.651,0.012
17.76,-0.094,0.987,0.102
17.77,0.0,0.67,-0.047
17.78,-0.494,0.351,-0.139
17.79,-0.041,2.0,0.124
17.8,-0.181,0.586,0.135
17.81,-0.136,0.98,-0.005
17.82,-0.417,0.196,-0.144
17.83,-0.048,2.0,0.193
17.84,-0.128,0.774,0.015
17.85,-0.038,0.572,-0.085
17.86,-0.436,0.712,-0.14
17.87,-0.025,1.578,0.124
17.88,-0.284,1.249,0.06
17.89,0.056,0.493,-0.06
17.9,-0.462,0.878,-0.125
17.91,-0.042,1.434,0.176
17.92,-0.238,1.208,0.008
17.93,-0.146,0.822,-0.118
17.94,-0.375,0.375,-0.086
17.95,-0.206,1.637,0.207
17.96,-0.185,0.889,0.031
17.97,-0.251,0.962,-0.092
17.98,-0.319,0.415,-0.002
17.99,-0.097,1.298,0.172
18.0,-0.233,0.9,0.006
18.01,-0.286,0.757,-0.152
18.02,-0.333,0.947,-0.017
18.03,-0.004,0.834,0.176
18.04,-0.292,1.326,-0.008
18.05,-0.206,0.368,-0.157
18.06,-0.448,1.435,0.093
18.07,-0.098,0.638,0.228
18.08,-0.297,1.141,0.042
18.09,-0.241,0.542,-0.139
18.1,-0.269,1.51,0.086
18.11,-0.104,1.071,0.202
18.12,-0.113,0.454,0.047
18.13,-0.522,0.949,-0.151
18.14,-0.258,1.461,0.108
18.15,-0.254,0.923,0.083
18.16,-0.057,0.712,0.016
18.17,-0.452,0.653,-0.195
18.18,-0.132,1.857,0.079
18.19,-0.173,0.617,-0.018
18.2,-0.198,0.921,-0.035
18.21,-0.373,0.165,-0.15
18.22,-0.14,2.0,0.082
18.23,-0.018,0.636,0.163
18.24,-0.053,0.915,-0.009
18.25,-0.465,0.416,-0.141
18.26,-0.029,1.693,0.197
18.27,-0.149,1.166,0.099
18.28,-0.013,0.434,-0.059
18.29,-0.492,0.928,-0.207
18.3,0.045,1.495,0.106
18.31,-0.269,1.28,-0.0
18.32,0.013,0.576,-0.069
18.33,-0.44,0.893,-0.058
18.34,0.015,1.034,0.158
18.35,-0.279,1.203,0.005
18.36,-0.237,0.882,-0.16
18.37,-0.279,0.457,-0.015
18.38,-0.078,1.317,0.159
18.39,-0.194,0.761,-0.02
18.4,-0.33,1.057,-0.171
18.41,-0.313,0.476,-0.049
18.42,-0.047,1.112,0.087
18.43,-0.279,1.028,-0.005
18.44,-0.229,0.612,-0.148
18.45,-0.253,1.698,0.021
18.46,0.013,0.63,0.128
18.47,-0.225,1.111,-0.052
18.48,-0.319,0.335,-0.25
18.49,-0.322,1.942,0.019
18.5,-0.055,0.662,0.101
18.51,-0.209,0.94,-0.014
18.52,-0.417,0.573,-0.237
18.53,-0.148,1.642,0.087
18.54,-0.17,0.951,0.06
18.55,-0.014,0.424,-0.02
18.56,-0.597,0.908,-0.156
18.57,0.041,1.543,0.088
18.58,-0.128,1.176,0.125
18.59,-0.03,0.471,-0.058
18.6,-0.395,0.565,-0.19
18.61,-0.062,1.854,0.11
18.62,-0.027,0.696,0.137
18.63,-0.117,0.987,-0.044
18.64,-0.418,0.228,-0.146
18.65,-0.122,2.0,0.188
18.66,-0.068,0.71,0.086
18.67,-0.078,0.847,-0.03
18.68,-0.421,0.514,-0.175
18.69,-0.132,1.448,0.137
18.7,-0.258,1.275,0.003
18.71,-0.002,0.48,-0.116
18.72,-0.446,0.897,-0.134
18.73,-0.087,1.057,0.211
18.74,-0.308,1.343,-0.006
18.75,-0.244,0.648,-0.088
18.76,-0.412,0.573,-0.055
18.77,-0.204,1.319,0.254
18.78,-0.217,0.955,0.058
18.79,-0.247,0.943,-0.095
18.8,-0.328,0.491,-0.04
18.81,-0.073,1.308,0.185
18.82,-0.261,0.77,0.018
18.83,-0.272,0.865,-0.086
18.84,-0.276,1.041,-0.072
18.85,0.002,0.954,0.157
18.86,-0.27,1.116,-0.054
18.87,-0.259,0.467,-0.192
18.88,-0.441,1.407,0.03
18.89,-0.034,0.643,0.157
18.9,-0.287,1.276,-0.001
18.91,-0.252,0.434,-0.163
18.92,-0.244,1.637,0.063
18.93,-0.091,0.879,0.162
18.94,-0.107,0.572,0.018
18.95,-0.494,0.931,-0.154
18.96,-0.188,1.415,0.098
18.97,-0.191,1.072,0.15
18.98,-0.053,0.499,0.028
18.99,-0.498,0.79,-0.216
19.0,-0.138,1.717,0.08
19.01,-0.204,0.757,0.07
19.02,-0.178,0.877,-0.022
19.03,-0.373,0.288,-0.234
19.04,-0.09,2.0,0.072
19.05,0.083,0.627,0.071
19.06,-0.132,0.916,-0.019
19.07,-0.389,0.294,-0.193
19.08,-0.107,1.89,0.156
19.09,-0.101,0.92,0.066
19.1,-0.022,0.626,-0.047
19.11,-0.533,0.819,-0.17
19.12,-0.016,1.519,0.259
19.13,-0.222,1.252,0.032
19.14,0.052,0.449,-0.055
19.15,-0.446,0.902,-0.169
19.16,-0.113,1.172,0.18
19.17,-0.313,1.324,-0.001
19.18,-0.092,0.609,-0.121
19.19,-0.384,0.543,-0.087
19.2,-0.109,1.321,0.196
19.21,-0.266,0.848,0.043
19.22,-0.273,1.052,-0.1
19.23,-0.383,0.26,-0.017
19.24,-0.159,1.383,0.189
19.25,-0.28,0.928,0.029
19.26,-0.244,0.81,-0.115
19.27,-0.261,1.009,-0.079
19.28,0.01,0.871,0.165
19.29,-0.236,1.202,-0.051
19.3,-0.275,0.443,-0.153
19.31,-0.312,1.734,-0.025
19.32,-0.01,0.713,0.171
19.33,-0.338,1.121,0.028
19.34,-0.35,0.555,-0.147
19.35,-0.392,1.641,0.026
19.36,-0.067,0.922,0.133
19.37,-0.115,0.7,-0.003
19.38,-0.438,0.926,-0.225
19.39,-0.191,1.382,0.061
19.4,-0.145,1.137,0.198
19.41,-0.101,0.537,0.045
19.42,-0.467,0.786,-0.222
19.43,-0.194,1.676,0.055
19.44,-0.129,0.763,0.091
19.45,-0.178,0.871,0.017
19.46,-0.447,0.275,-0.125
19.47,-0.223,2.0,0.075
19.48,-0.094,0.538,0.079
19.49,-0.098,0.98,-0.026
19.5,-0.502,0.326,-0.214
19.51,-0.061,1.843,0.14
19.52,-0.088,0.955,0.074
19.53,-0.086,0.452,-0.041
19.54,-0.456,0.841,-0.187
19.55,-0.065,1.552,0.175
19.56,-0.189,1.198,0.128
19.57,0.039,0.475,-0.001
19.58,-0.527,0.861,-0.147
19.59,-0.036,1.663,0.196
19.6,-0.197,0.963,0.128
19.61,-0.051,0.83,-0.026
19.62,-0.38,0.312,-0.147
19.63,-0.21,1.787,0.174
19.64,-0.119,0.764,0.036
19.65,-0.163,1.052,-0.129
19.66,-0.278,0.302,-0.163
19.67,-0.139,1.582,0.145
19.68,-0.158,1.083,-0.017
19.69,-0.115,0.643,-0.121
19.7,-0.435,0.798,-0.07
19.71,-0.114,1.107,0.251
19.72,-0.389,1.517,0.028
19.73,-0.089,0.362,-0.088
19.74,-0.408,0.896,-0.081
19.75,0.01,1.011,0.133
19.76,-0.251,1.169,-0.015
19.77,-0.279,0.868,-0.159
19.78,-0.309,0.54,-0.0
19.79,-0.078,1.301,0.172
19.8,-0.168,0.729,0.006
19.81,-0.375,1.018,-0.163
19.82,-0.249,0.676,-0.049
19.83,-0.111,1.079,0.167
19.84,-0.255,1.01,-0.033
19.85,-0.224,0.577,-0.135
19.86,-0.32,1.695,-0.024
19.87,-0.016,0.617,0.125
19.88,-0.285,1.252,-0.047
19.89,-0.252,0.347,-0.17
19.9,-0.405,1.824,0.043
19.91,-0.008,0.707,0.151
19.92,-0.257,0.858,0.015
19.93,-0.421,0.738,-0.207
19.94,-0.256,1.802,0.117
19.95,-0.179,0.886,0.103
19.96,-0.043,0.522,-0.023
19.97,-0.528,0.889,-0.271
19.98,0.045,1.489,0.077
19.99,-0.165,1.125,0.134
20.0,0.083,0.468,-0.011
20.01,-0.524,0.768,-0.179
20.02,-0.035,1.713,0.12
20.03,-0.107,0.897,0.107
20.04,-0.059,0.936,-0.05
20.05,-0.451,0.247,-0.094
20.06,-0.101,2.0,0.202
20.07,0.004,0.597,0.051
20.08,-0.022,0.947,-0.105
20.09,-0.381,0.332,-0.192
20.1,-0.004,1.816,0.107
20.11,-0.169,1.018,0.071
20.12,0.005,0.545,-0.065
20.13,-0.425,0.849,-0.151
20.14,-0.064,1.268,0.157
20.15,-0.426,1.391,0.08
20.16,0.031,0.551,-0.06
20.17,-0.477,0.781,-0.109
20.18,-0.05,1.437,0.19
20.19,-0.206,1.147,0.01
20.2,-0.165,0.881,-0.105
20.21,-0.434,0.249,-0.045
20.22,-0.211,1.526,0.223
20.23,-0.231,0.867,0.023
20.24,-0.245,0.962,-0.067
20.25,-0.304,0.702,-0.022
20.26,-0.109,1.138,0.189
20.27,-0.277,0.936,-0.01
20.28,-0.244,0.622,-0.137
20.29,-0.36,1.067,-0.075
20.3,0.02,0.748,0.148
20.31,-0.311,1.414,-0.038
20.32,-0.231,0.346,-0.181
20.33,-0.28,1.594,-0.054
20.34,-0.036,0.766,0.149
20.35,-0.164,0.97,-0.01
20.36,-0.347,0.753,-0.175
20.37,-0.147,1.436,-0.01
20.38,-0.058,1.143,0.144
20.39,-0.038,0.475,0.007
20.4,-0.548,0.946,-0.187
20.41,-0.233,1.368,0.085
20.42,-0.302,0.866,0.113
20.43,-0.152,0.887,-0.022
20.44,-0.461,0.456,-0.204
20.45,-0.118,1.941,0.06
20.46,-0.128,0.53,0.117
20.47,-0.177,0.972,0.007
20.48,-0.421,0.191,-0.172
20.49,-0.096,1.98,0.062
20.5,0.019,0.806,0.125
20.51,-0.032,0.697,-0.051
20.52,-0.533,0.597,-0.21
20.53,-0.05,1.71,0.159
20.54,-0.331,1.012,0.042
20.55,-0.04,0.447,-0.002
20.56,-0.522,0.912,-0.199
20.57,-0.026,1.533,0.212
20.58,-0.109,1.174,0.091
20.59,-0.06,0.548,-0.01
20.6,-0.36,0.521,-0.111
20.61,-0.245,1.75,0.106
20.62,-0.031,0.796,0.06
20.63,-0.252,1.083,-0.102
20.64,-0.297,0.19,-0.099
20.65,-0.138,1.904,0.181
20.66,-0.153,0.825,0.08
20.67,-0.043,0.872,-0.089
20.68,-0.39,0.616,-0.171
20.69,-0.116,1.37,0.213
20.7,-0.323,1.397,-0.021
20.71,0.022,0.407,-0.118
20.72,-0.425,0.992,-0.092
20.73,-0.029,0.914,0.175
20.74,-0.304,1.31,-0.017
20.75,-0.288,0.463,-0.144
20.76,-0.304,0.961,-0.06
20.77,-0.007,0.94,0.116
20.78,-0.228,1.024,-0.044
20.79,-0.273,0.771,-0.152
20.8,-0.183,1.149,-0.084
20.81,-0.108,1.116,0.111
20.82,-0.122,0.664,-0.06
20.83,-0.362,1.019,-0.166
20.84,-0.226,1.346,0.017
20.85,-0.101,0.955,0.202
20.86,-0.146,0.817,0.004
20.87,-0.412,0.563,-0.171
20.88,-0.332,1.82,0.049
20.89,-0.146,0.519,0.103
20.9,-0.226,1.139,-0.01
20.91,-0.25,0.188,-0.175
20.92,-0.266,2.0,0.076
20.93,-0.042,0.652,0.136
20.94,-0.098,0.704,-0.041
20.95,-0.533,0.605,-0.231
20.96,0.006,1.607,0.081
20.97,-0.124,1.146,0.087
20.98,0.045,0.38,-0.022
20.99,-0.496,0.896,-0.221
21.0,0.05,1.589,0.117
21.01,-0.261,1.073,0.087
21.02,0.01,0.633,-0.045
21.03,-0.462,0.504,-0.131
21.04,-0.056,1.957,0.138
21.05,0.012,0.686,0.058
21.06,-0.122,0.997,-0.074
21.07,-0.331,0.203,-0.158
21.08,-0.205,1.844,0.11
21.09,-0.119,0.795,0.054
21.1,-0.072,0.865,-0.1
21.11,-0.395,0.595,-0.178
21.12,-0.137,1.338,0.153
21.13,-0.287,1.381,0.036
21.14,-0.016,0.422,-0.094
21.15,-0.505,0.901,-0.065
21.16,-0.074,1.046,0.213
21.17,-0.342,1.263,-0.004
21.18,-0.138,0.671,-0.11
21.19,-0.337,0.593,-0.018
21.2,-0.101,1.253,0.188
21.21,-0.194,0.831,0.007
21.22,-0.353,1.079,-0.11
21.23,-0.286,0.429,-0.039
21.24,0.024,1.272,0.146
21.25,-0.169,0.907,-0.06
21.26,-0.295,0.788,-0.174
21.27,-0.205,1.161,-0.098
21.28,-0.025,0.815,0.145
21.29,-0.216,1.233,-0.066
21.3,-0.25,0.376,-0.2
21.31,-0.241,1.866,-0.031
21.32,-0.022,0.612,0.152
21.33,-0.204,1.074,-0.037
21.34,-0.322,0.502,-0.224
21.35,-0.237,1.691,0.065
21.36,-0.138,0.935,0.137
21.37,-0.115,0.566,0.027
21.38,-0.497,0.898,-0.207
21.39,-0.058,1.456,0.094
21.4,-0.145,1.058,0.089
21.41,-0.011,0.552,-0.021
21.42,-0.544,0.706,-0.208
21.43,-0.02,1.821,0.053
21.44,-0.169,0.701,0.079
21.45,-0.061,0.934,-0.012
21.46,-0.521,0.253,-0.181
21.47,-0.125,2.0,0.164
21.48,-0.017,0.642,0.111
21.49,-0.12,0.899,-0.0
21.5,-0.397,0.391,-0.125
21.51,-0.149,1.756,0.197
21.52,-0.039,0.982,0.124
21.53,-0.139,0.468,-0.044
21.54,-0.42,0.86,-0.189
21.55,-0.181,1.418,0.184
21.56,-0.307,1.342,0.035
21.57,0.053,0.421,-0.077
21.58,-0.523,0.896,-0.124
21.59,0.014,1.05,0.22
21.6,-0.34,1.284,-0.016
21.61,-0.164,0.712,-0.104
21.62,-0.435,0.444,-0.035
21.63,-0.171,1.414,0.262
21.64,-0.167,0.886,0.013
21.65,-0.257,1.025,-0.103
21.66,-0.371,0.32,-0.008
21.67,-0.024,1.272,0.173
21.68,-0.184,0.997,-0.041
21.69,-0.249,0.749,-0.145
21.7,-0.161,1.361,-0.112
21.71,-0.004,0.804,0.142
21.72,-0.244,1.105,-0.057
21.73,-0.275,0.477,-0.208
21.74,-0.324,1.618,-0.036
21.75,0.003,0.69,0.137
21.76,-0.314,1.135,0.018
21.77,-0.279,0.553,-0.189
21.78,-0.227,1.563,-0.012
21.79,-0.137,0.909,0.129
21.8,-0.099,0.606,-0.013
21.81,-0.429,0.963,-0.214
21.82,-0.068,1.372,0.074
21.83,-0.117,1.09,0.137
21.84,0.03,0.588,0.014
21.85,-0.539,0.747,-0.195
21.86,-0.064,1.757,0.115
21.87,-0.134,0.714,0.075
21.88,-0.067,0.904,-0.01
21.89,-0.441,0.255,-0.195
21.9,-0.124,2.0,0.074
21.91,-0.08,0.554,0.159
21.92,-0.122,0.909,-0.001
21.93,-0.606,0.401,-0.1
21.94,-0.163,1.75,0.199
21.95,-0.151,1.078,0.176
21.96,0.096,0.409,-0.067
21.97,-0.529,0.941,-0.148
21.98,0.03,1.444,0.151
21.99,-0.249,1.275,0.07
22.0,0.036,0.546,-0.072
22.01,-0.367,0.741,-0.244
22.02,0.022,1.743,0.08
22.03,-0.077,0.876,-0.004
22.04,-0.069,0.913,-0.082
22.05,-0.358,0.186,-0.176
22.06,-0.154,1.751,0.142
22.07,-0.163,0.843,0.068
22.08,-0.218,0.931,-0.083
22.09,-0.34,0.37,-0.094
22.1,-0.124,1.531,0.196
22.11,-0.256,1.136,0.032
22.12,-0.132,0.621,-0.124
22.13,-0.451,0.822,-0.096
22.14,-0.082,1.207,0.239
22.15,-0.333,1.49,0.03
22.16,-0.057,0.364,-0.071
22.17,-0.429,0.962,-0.049
22.18,0.002,1.102,0.156
22.19,-0.208,1.006,-0.04
22.2,-0.28,0.983,-0.16
22.21,-0.255,0.489,-0.04
22.22,-0.13,1.341,0.187
22.23,-0.086,0.699,0.034
22.24,-0.374,1.003,-0.14
22.25,-0.242,0.811,-0.035
22.26,-0.077,0.986,0.185
22.27,-0.215,1.124,-0.014
22.28,-0.25,0.46,-0.122
22.29,-0.255,1.722,-0.104
22.3,0.01,0.658,0.133
22.31,-0.206,1.221,0.02
22.32,-0.303,0.451,-0.202
22.33,-0.357,1.654,-0.007
22.34,-0.08,0.805,0.195
22.35,-0.214,0.924,0.034
22.36,-0.353,0.485,-0.21
22.37,-0.2,1.645,0.049
22.38,-0.113,0.943,0.125
22.39,-0.065,0.502,0.009
22.4,-0.427,0.928,-0.169
22.41,-0.067,1.526,0.046
22.42,-0.118,1.107,0.165
22.43,0.021,0.531,0.037
22.44,-0.576,0.725,-0.173
22.45,-0.099,1.758,0.13
22.46,-0.223,0.681,0.128
22.47,-0.042,0.981,0.016
22.48,-0.423,0.262,-0.155
22.49,-0.193,2.0,0.118
22.5,-0.109,0.606,0.12
22.51,-0.157,0.869,-0.04
22.52,-0.413,0.369,-0.157
22.53,-0.123,1.795,0.092
22.54,-0.124,0.942,0.112
22.55,0.058,0.479,-0.04
22.56,-0.547,0.892,-0.141
22.57,0.006,1.443,0.177
22.58,-0.232,1.177,0.1
22.59,0.027,0.5,-0.011
22.6,-0.521,0.839,-0.23
22.61,-0.07,1.668,0.142
22.62,-0.135,0.843,0.058
22.63,-0.059,0.879,-0.042
22.64,-0.306,0.278,-0.186
22.65,-0.209,1.763,0.137
22.66,-0.142,0.746,0.116
22.67,-0.224,0.98,-0.081
22.68,-0.292,0.398,-0.169
22.69,-0.108,1.571,0.163
22.7,-0.175,1.153,-0.0
22.71,-0.111,0.541,-0.09
22.72,-0.486,0.844,-0.121
22.73,-0.135,1.135,0.232
22.74,-0.332,1.451,0.051
22.75,-0.099,0.382,-0.064
22.76,-0.442,0.752,-0.071
22.77,-0.058,1.172,0.19
22.78,-0.203,1.07,-0.044
22.79,-0.238,0.919,-0.155
22.8,-0.319,0.278,-0.049
22.81,-0.164,1.609,0.254
22.82,-0.151,0.85,-0.004
22.83,-0.177,0.978,-0.078
22.84,-0.389,0.419,-0.061
22.85,-0.083,1.209,0.184
22.86,-0.288,1.262,-0.012
22.87,-0.181,0.467,-0.118
22.88,-0.256,1.431,-0.082
22.89,-0.073,0.729,0.198
22.9,-0.282,1.244,0.036
22.91,-0.327,0.429,-0.153
22.92,-0.337,1.086,-0.065
22.93,-0.021,0.906,0.11
22.94,-0.224,1.026,-0.052
22.95,-0.335,0.769,-0.12
22.96,-0.175,1.31,-0.034
22.97,-0.196,1.046,0.179
22.98,-0.082,0.622,0.006
22.99,-0.446,0.988,-0.155
23.0,-0.179,1.445,0.046
23.01,-0.108,0.956,0.147
23.02,-0.19,0.832,0.034
23.03,-0.463,0.512,-0.208
23.04,-0.341,1.817,0.05
23.05,-0.105,0.504,0.086
23.06,-0.206,1.213,0.001
23.07,-0.312,0.258,-0.212
23.08,-0.213,1.908,0.059
23.09,-0.04,0.705,0.078
23.1,-0.021,0.743,-0.025
23.11,-0.474,0.656,-0.25
23.12,0.04,1.55,-0.004
23.13,-0.166,1.149,0.072
23.14,0.145,0.489,0.011
23.15,-0.582,0.87,-0.193
23.16,0.158,1.581,0.083
23.17,-0.328,1.217,0.086
23.18,0.063,0.533,-0.007
23.19,-0.488,0.798,-0.169
23.2,0.013,1.709,0.184
23.21,-0.122,0.817,0.037
23.22,-0.013,0.848,-0.093
23.23,-0.334,0.255,-0.162
23.24,-0.156,1.917,0.116
23.25,-0.123,0.742,0.045
23.26,-0.131,1.033,-0.079
23.27,-0.243,0.392,-0.116
23.28,-0.032,1.804,0.19
23.29,-0.094,1.07,-0.001
23.3,-0.03,0.606,-0.12
23.31,-0.43,0.828,-0.14
23.32,-0.07,1.273,0.182
23.33,-0.359,1.451,0.034
23.34,0.014,0.363,-0.072
23.35,-0.372,0.911,-0.073
23.36,-0.103,1.117,0.18
23.37,-0.233,1.034,0.028
23.38,-0.346,0.924,-0.12
23.39,-0.295,0.325,-0.002
23.4,-0.195,1.482,0.245
23.41,-0.175,0.814,0.055
23.42,-0.333,0.999,-0.083
23.43,-0.362,0.45,-0.036
23.44,-0.084,1.128,0.177
23.45,-0.261,1.22,-0.005
23.46,-0.174,0.547,-0.108
23.47,-0.299,1.646,-0.075
23.48,0.087,0.704,0.134
23.49,-0.318,1.199,0.013
23.5,-0.278,0.478,-0.183
23.51,-0.372,1.527,0.016
23.52,-0.105,0.79,0.151
23.53,-0.139,0.942,-0.012
23.54,-0.331,0.77,-0.18
23.55,-0.203,1.417,0.085
23.56,-0.204,1.025,0.155
23.57,-0.023,0.527,0.03
23.58,-0.456,0.946,-0.171
23.59,-0.051,1.512,0.048
23.6,-0.171,0.964,0.141
23.61,-0.056,0.72,0.001
23.62,-0.565,0.439,-0.139
23.63,-0.203,1.98,0.132
23.64,-0.318,0.486,0.152
23.65,-0.088,1.062,0.009
23.66,-0.554,0.194,-0.171
23.67,-0.007,2.0,0.091
23.68,-0.221,0.695,0.104
23.69,0.008,0.674,-0.066
23.7,-0.564,0.631,-0.19
23.71,0.023,1.631,0.141
23.72,-0.178,1.197,0.079
23.73,0.065,0.398,-0.044
23.74,-0.51,0.911,-0.185
23.75,-0.004,1.521,0.189
23.76,-0.187,1.077,0.104
23.77,-0.001,0.659,-0.053
23.78,-0.427,0.525,-0.119
23.79,-0.139,1.865,0.137
23.8,-0.057,0.793,0.086
23.81,-0.109,0.999,-0.075
23.82,-0.293,0.177,-0.138
23.83,-0.151,1.775,0.125
23.84,-0.183,0.894,0.055
23.85,-0.106,0.838,-0.137
23.86,-0.379,0.582,-0.127
23.87,-0.049,1.329,0.174
23.88,-0.32,1.32,0.037
23.89,0.052,0.45,-0.143
23.9,-0.488,0.864,-0.173
23.91,0.074,1.042,0.171
23.92,-0.319,1.373,-0.133
23.93,-0.085,0.657,-0.126
23.94,-0.412,0.573,-0.029
23.95,-0.089,1.211,0.204
23.96,-0.2,0.954,0.027
23.97,-0.431,0.811,-0.178
23.98,-0.052,0.98,-0.04
23.99,-0.24,1.164,0.176
24.0,-0.064,0.656,0.041
24.01,-0.493,0.987,-0.117
24.02,-0.22,1.345,0.068
24.03,-0.198,0.921,0.154
24.04,-0.216,0.905,-0.023
24.05,-0.292,0.535,-0.142
24.06,-0.288,1.847,0.101
24.07,-0.046,0.548,0.166
24.08,-0.214,1.058,-0.019
24.09,-0.35,0.26,-0.236
24.1,-0.214,1.955,0.022
24.11,-0.044,0.696,0.057
24.12,-0.069,0.753,-0.063
24.13,-0.513,0.708,-0.279
24.14,0.003,1.506,0.033
24.15,-0.087,1.114,0.109
24.16,0.046,0.36,-0.029
24.17,-0.551,0.895,-0.175
24.18,-0.058,1.536,0.137
24.19,-0.165,1.044,0.098
24.2,0.04,0.707,-0.008
24.21,-0.463,0.492,-0.136
24.22,-0.111,1.975,0.222
24.23,-0.114,0.626,0.129
24.24,-0.065,1.011,-0.019
24.25,-0.458,0.241,-0.118
24.26,-0.132,1.863,0.186
24.27,-0.199,0.858,0.067
24.28,-0.048,0.751,-0.044
24.29,-0.397,0.644,-0.198
24.3,-0.058,1.4,0.196
24.31,-0.299,1.353,0.004
24.32,-0.028,0.457,-0.128
24.33,-0.464,0.834,-0.125
24.34,-0.087,1.306,0.226
24.35,-0.273,1.346,0.028
24.36,-0.137,0.652,-0.093
24.37,-0.452,0.439,-0.056
24.38,-0.114,1.403,0.197
24.39,-0.226,0.947,0.027
24.4,-0.239,1.018,-0.108
24.41,-0.343,0.283,0.001
24.42,-0.017,1.324,0.159
24.43,-0.229,0.971,-0.038
24.44,-0.18,0.765,-0.184
24.45,-0.407,0.739,-0.078
24.46,0.022,0.907,0.161
24.47,-0.398,1.42,-0.036
24.48,-0.125,0.317,-0.126
24.49,-0.422,1.58,-0.002
24.5,-0.01,0.645,0.192
24.51,-0.35,1.206,0.007
24.52,-0.324,0.609,-0.137
24.53,-0.266,1.582,0.012
24.54,-0.116,1.014,0.156
24.55,-0.09,0.581,0.038
24.56,-0.468,0.995,-0.19
24.57,-0.199,1.298,0.025
24.58,-0.264,0.974,0.09
24.59,-0.131,0.734,0.009
24.6,-0.404,0.635,-0.183
24.61,-0.109,1.702,0.044
24.62,-0.124,0.678,0.108
24.63,-0.11,0.926,0.019
24.64,-0.395,0.266,-0.159
24.65,-0.2,1.989,0.097
24.66,0.015,0.619,0.117
24.67,-0.097,0.936,-0.044
24.68,-0.438,0.38,-0.202
24.69,-0.104,1.805,0.126
24.7,-0.239,0.891,0.064
24.71,-0.048,0.426,-0.031
24.72,-0.568,0.901,-0.119
24.73,-0.05,1.557,0.171
24.74,-0.136,1.167,0.058
24.75,0.074,0.45,-0.031
24.76,-0.386,0.779,-0.155
24.77,-0.055,1.619,0.1
24.78,-0.227,1.251,-0.006
24.79,-0.119,0.708,-0.095
24.8,-0.39,0.484,-0.118
24.81,-0.095,1.84,0.127
24.82,-0.129,0.821,0.069
24.83,-0.161,1.005,-0.067
24.84,-0.392,0.235,-0.053
24.85,-0.205,1.623,0.2
24.86,-0.287,1.044,0.058
24.87,-0.137,0.787,-0.133
24.88,-0.38,0.61,-0.117
24.89,-0.02,1.128,0.23
24.9,-0.315,1.444,0.025
24.91,-0.104,0.424,-0.15
24.92,-0.387,0.943,-0.039
24.93,-0.056,0.946,0.229
24.94,-0.354,1.489,0.063
24.95,-0.163,0.471,-0.153
24.96,-0.278,0.816,-0.062
24.97,-0.1,1.165,0.111
24.98,-0.097,0.78,-0.018
24.99,-0.4,0.97,-0.17
25.0,-0.118,0.98,-0.031
25.01,-0.106,1.118,0.112
25.02,-0.16,0.783,0.026
25.03,-0.367,0.818,-0.182
25.04,-0.324,1.576,0.057
25.05,-0.121,0.669,0.126
25.06,-0.233,1.103,0.003
25.07,-0.293,0.34,-0.214
25.08,-0.404,1.934,0.094
25.09,-0.028,0.567,0.138
25.1,-0.201,1.044,-0.011
25.11,-0.344,0.478,-0.252
25.12,-0.121,1.708,0.037
25.13,-0.047,1.011,0.112
25.14,0.047,0.479,-0.012
25.15,-0.459,0.956,-0.228
25.16,-0.063,1.478,0.068
25.17,-0.133,1.109,0.12
25.18,0.003,0.518,0.01
25.19,-0.486,0.735,-0.183
25.2,-0.078,1.777,0.118
25.21,-0.116,0.713,0.111
25.22,-0.08,0.865,-0.017
25.23,-0.351,0.247,-0.189
25.24,-0.153,2.0,0.153
25.25,-0.05,0.598,0.093
25.26,-0.103,0.896,-0.036
25.27,-0.404,0.41,-0.179
25.28,-0.113,1.795,0.141
25.29,-0.107,0.989,0.092
25.3,0.06,0.533,-0.049
25.31,-0.541,0.874,-0.133
25.32,0.027,1.535,0.162
25.33,-0.276,1.247,0.091
25.34,0.059,0.526,-0.027
25.35,-0.522,0.735,-0.135
25.36,-0.099,1.557,0.158
25.37,-0.228,0.981,0.034
25.38,-0.006,0.913,-0.126
25.39,-0.385,0.227,-0.113
25.4,-0.146,1.753,0.166
25.41,-0.143,0.855,0.038
25.42,-0.147,0.953,-0.153
25.43,-0.282,0.376,-0.185
25.44,-0.082,1.494,0.14
25.45,-0.251,1.23,-0.052
25.46,-0.094,0.592,-0.092
25.47,-0.362,0.816,-0.04
25.48,-0.09,1.223,0.282
25.49,-0.316,1.513,0.017
25.5,-0.14,0.502,-0.064
25.51,-0.455,0.77,-0.065
25.52,0.002,1.141,0.197
25.53,-0.219,1.226,-0.095
25.54,-0.227,0.812,-0.164
25.55,-0.171,0.828,-0.091
25.56,-0.145,1.261,0.188
25.57,-0.172,0.604,0.049
25.58,-0.473,1.109,-0.104
25.59,-0.305,1.216,0.103
25.6,-0.221,1.055,0.184
25.61,-0.198,0.652,0.026
25.62,-0.417,0.717,-0.118
25.63,-0.344,1.688,0.082
25.64,-0.123,0.643,0.14
25.65,-0.198,1.022,0.013
25.66,-0.309,0.302,-0.202
25.67,-0.284,2.0,0.108
25.68,-0.064,0.608,0.152
25.69,-0.217,0.896,0.034
25.7,-0.416,0.361,-0.178
25.71,-0.192,1.876,0.022
25.72,-0.225,0.843,0.003
25.73,-0.048,0.512,-0.041
25.74,-0.519,0.898,-0.245
25.75,0.018,1.498,0.062
25.76,-0.154,1.085,0.085
25.77,0.019,0.447,-0.013
25.78,-0.529,0.739,-0.152
25.79,-0.06,1.746,0.099
25.8,-0.095,0.916,0.127
25.81,-0.025,0.941,-0.06
25.82,-0.34,0.232,-0.179
25.83,-0.103,2.0,0.172
25.84,-0.063,0.63,0.141
25.85,-0.116,0.92,-0.05
25.86,-0.445,0.335,-0.186
25.87,-0.083,1.78,0.151
25.88,-0.14,1.042,0.03
25.89,0.042,0.479,-0.044
25.9,-0.469,0.837,-0.167
25.91,-0.041,1.182,0.131
25.92,-0.293,1.396,0.038
25.93,-0.115,0.51,-0.081
25.94,-0.423,0.778,-0.109
25.95,-0.135,1.424,0.206
25.96,-0.157,1.092,0.06
25.97,-0.168,0.951,-0.135
25.98,-0.367,0.268,-0.077
25.99,-0.225,1.713,0.219
26.0,-0.209,0.908,0.025
26.01,-0.165,0.911,-0.114
26.02,-0.36,0.461,-0.118
26.03,-0.376,0.281,-0.058
26.04,-0.172,1.542,0.247
26.05,-0.239,0.925,0.058
26.06,-0.295,0.955,-0.081
26.07,-0.42,0.407,-0.039
26.08,-0.076,1.221,0.182
26.09,-0.175,1.061,-0.016
26.1,-0.239,0.641,-0.138
26.11,-0.341,1.082,-0.047
26.12,0.036,0.791,0.165
26.13,-0.293,1.365,0.026
26.14,-0.234,0.383,-0.166
26.15,-0.347,1.069,-0.126
26.16,0.045,0.869,0.102
26.17,-0.215,1.11,-0.061
26.18,-0.259,0.716,-0.158
26.19,-0.205,1.267,-0.102
26.2,-0.163,1.066,0.143
26.21,-0.113,0.644,-0.002
26.22,-0.408,0.981,-0.193
26.23,-0.144,1.319,-0.023
26.24,-0.133,0.947,0.082
26.25,-0.213,0.811,0.01
26.26,-0.362,0.613,-0.194
26.27,-0.328,1.695,0.047
26.28,-0.137,0.571,0.12
26.29,-0.27,1.184,0.01
26.3,-0.332,0.233,-0.177
26.31,-0.25,1.942,0.099
26.32,-0.073,0.568,0.131
26.33,-0.112,0.909,0.001
26.34,-0.485,0.352,-0.181
26.35,-0.065,1.866,0.094
26.36,-0.087,0.945,0.119
26.37,0.025,0.55,-0.022
26.38,-0.54,0.864,-0.204
26.39,-0.022,1.501,0.16
26.4,-0.3,1.124,0.105
26.41,0.084,0.469,-0.012
26.42,-0.531,0.863,-0.184
26.43,-0.053,1.635,0.103
26.44,-0.077,0.944,0.078
26.45,-0.004,0.847,-0.044
26.46,-0.339,0.362,-0.063
26.47,-0.211,1.97,0.148
26.48,-0.059,0.646,0.129
26.49,-0.211,1.104,-0.068
26.5,-0.416,0.293,-0.114
26.51,-0.031,1.838,0.173
26.52,-0.123,1.028,0.001
26.53,0.089,0.533,-0.091
26.54,-0.367,0.834,-0.23
26.55,0.042,1.178,0.093
26.56,-0.384,1.375,0.004
26.57,-0.053,0.49,-0.056
26.58,-0.423,0.785,-0.12
26.59,-0.101,1.251,0.192
26.6,-0.302,1.233,0.037
26.61,-0.209,0.825,-0.099
26.62,-0.358,0.31,-0.042
26.63,-0.205,1.804,0.258
26.64,-0.153,0.895,0.073
26.65,-0.202,0.979,-0.072
26.66,-0.451,0.36,-0.044
26.67,-0.104,1.325,0.152
26.68,-0.226,1.099,-0.029
26.69,-0.236,0.664,-0.143
26.7,-0.336,0.975,-0.068
26.71,0.057,0.806,0.164
26.72,-0.297,1.366,0.016
26.73,-0.197,0.389,-0.155
26.74,-0.385,1.123,-0.089
26.75,0.02,0.812,0.133
26.76,-0.239,1.159,-0.042
26.77,-0.221,0.645,-0.144
26.78,-0.186,1.335,-0.108
26.79,-0.136,1.075,0.162
26.8,-0.111,0.58,-0.01
26.81,-0.453,1.042,-0.181
26.82,-0.159,1.336,0.006
26.83,-0.157,0.974,0.135
26.84,-0.173,0.772,0.026
26.85,-0.344,0.58,-0.168
26.86,-0.339,1.738,0.058
26.87,-0.088,0.6,0.147
26.88,-0.306,1.162,-0.001
26.89,-0.218,0.266,-0.193
26.9,-0.336,1.935,0.06
26.91,0.014,0.609,0.105
26.92,-0.092,0.858,-0.013
26.93,-0.416,0.57,-0.255
26.94,-0.029,1.655,0.043
26.95,-0.041,1.125,0.081
26.96,0.094,0.465,-0.034
26.97,-0.554,0.883,-0.256
26.98,-0.015,1.565,0.042
26.99,-0.337,1.091,0.057
27.0,0.015,0.456,-0.016
27.01,-0.548,0.813,-0.167
27.02,-0.045,1.624,0.242
27.03,-0.089,0.932,0.081
27.04,-0.037,0.758,-0.04
27.05,-0.371,0.318,-0.117
27.06,-0.219,1.817,0.129
27.07,-0.143,0.763,0.068
27.08,-0.165,1.062,-0.076
27.09,-0.381,0.305,-0.17
27.1,-0.026,1.874,0.206
27.11,-0.076,0.929,0.046
27.12,-0.074,0.613,-0.062
27.13,-0.418,0.572,-0.14
27.14,-0.205,1.245,0.242
27.15,-0.316,1.396,-0.04
27.16,-0.017,0.418,-0.062
27.17,-0.382,1.015,-0.038
27.18,-0.02,0.882,0.216
27.19,-0.282,1.234,0.044
27.2,-0.249,0.735,-0.11
27.21,-0.364,0.666,-0.041
27.22,-0.11,1.202,0.293
27.23,-0.242,0.975,0.035
27.24,-0.267,0.887,-0.116
27.25,-0.326,0.447,-0.021
27.26,-0.082,1.3,0.145
27.27,-0.164,0.912,-0.074
27.28,-0.182,0.8,-0.117
27.29,-0.175,1.405,-0.066
27.3,0.06,0.933,0.152
27.31,-0.185,0.934,0.009
27.32,-0.318,0.561,-0.218
27.33,-0.406,1.473,0.002
27.34,-0.106,0.687,0.107
27.35,-0.271,1.275,0.005
27.36,-0.26,0.385,-0.188
27.37,-0.363,1.56,0.037
27.38,-0.14,0.781,0.128
27.39,-0.202,0.802,0.019
27.4,-0.32,0.827,-0.145
27.41,-0.152,1.371,0.026
27.42,-0.007,1.247,0.185
27.43,-0.03,0.467,0.015
27.44,-0.504,0.904,-0.2
27.45,-0.282,1.521,0.095
27.46,-0.248,0.715,0.083
27.47,-0.125,1.032,0.015
27.48,-0.368,0.301,-0.197
27.49,-0.15,2.0,0.074
27.5,-0.069,0.519,0.105
27.51,-0.156,0.918,-0.011
27.52,-0.361,0.254,-0.157
27.53,-0.114,1.932,0.117
27.54,-0.039,0.889,0.113
27.55,-0.001,0.583,-0.056
27.56,-0.512,0.813,-0.212
27.57,0.042,1.535,0.139
27.58,-0.362,1.131,0.085
27.59,0.094,0.466,-0.002
27.6,-0.574,0.849,-0.129
27.61,0.04,1.617,0.161
27.62,-0.169,1.006,0.083
27.63,0.017,0.78,-0.06
27.64,-0.381,0.314,-0.106
27.65,-0.104,1.917,0.09
27.66,-0.086,0.749,0.053
27.67,-0.128,1.04,-0.148
27.68,-0.374,0.228,-0.152
27.69,-0.086,1.812,0.176
27.7,-0.18,0.977,0.035
27.71,-0.059,0.64,-0.071
27.72,-0.432,0.806,-0.119
27.73,-0.118,1.208,0.202
27.74,-0.404,1.491,0.037
27.75,-0.075,0.339,-0.068
27.76,-0.439,0.873,-0.059
27.77,-0.104,1.026,0.207
27.78,-0.279,1.146,0.044
27.79,-0.323,0.83,-0.113
27.8,-0.325,0.405,-0.01
27.81,-0.281,1.451,0.262
27.82,-0.147,0.829,0.001
27.83,-0.271,0.994,-0.103
27.84,-0.308,0.42,-0.047
27.85,-0.076,1.204,0.148
27.86,-0.218,1.075,-0.047
27.87,-0.23,0.587,-0.103
27.88,-0.213,1.439,-0.102
27.89,0.07,0.783,0.132
27.9,-0.263,1.208,-0.03
27.91,-0.268,0.43,-0.175
27.92,-0.39,1.275,-0.014
27.93,-0.179,0.613,0.159
27.94,-0.185,1.23,-0.016
27.95,-0.202,0.344,-0.267
27.96,-0.084,1.775,0.02
27.97,-0.023,0.825,0.059
27.98,-0.076,0.579,0.005
27.99,-0.461,0.747,-0.188
28.0,-0.033,1.506,0.015
28.01,-0.094,1.231,0.039
28.02,0.03,0.435,-0.012
28.03,-0.532,0.827,-0.201
28.04,-0.173,1.745,0.09
28.05,-0.349,0.69,0.085
28.06,-0.08,0.937,0.039
28.07,-0.487,0.339,-0.137
28.08,-0.099,2.0,0.15
28.09,-0.062,0.589,0.141
28.1,-0.099,0.888,-0.043
28.11,-0.398,0.272,-0.141
28.12,-0.165,1.827,0.088
28.13,-0.094,0.946,0.103
28.14,0.012,0.645,-0.079
28.15,-0.512,0.785,-0.151
28.16,0.028,1.49,0.262
28.17,-0.263,1.209,0.105
28.18,0.067,0.464,-0.043
28.19,-0.438,0.915,-0.233
28.2,0.002,1.56,0.09
28.21,-0.126,1.095,-0.042
28.22,-0.036,0.767,-0.066
28.23,-0.242,0.324,-0.108
28.24,-0.227,1.588,0.128
28.25,-0.128,0.797,0.042
28.26,-0.266,1.1,-0.141
28.27,-0.252,0.271,-0.106
28.28,-0.177,1.649,0.16
28.29,-0.145,0.956,-0.015
28.3,-0.123,0.723,-0.124
28.31,-0.416,0.743,-0.136
28.32,0.008,1.076,0.229
28.33,-0.421,1.509,-0.024
28.34,-0.012,0.32,-0.108
28.35,-0.382,1.386,-0.039
28.36,0.045,0.946,0.201
28.37,-0.271,0.923,0.015
28.38,-0.283,0.879,-0.172
28.39,-0.333,0.516,-0.078
28.4,-0.041,1.327,0.185
28.41,-0.135,0.77,-0.024
28.42,-0.32,1.044,-0.165
28.43,-0.271,0.828,-0.015
28.44,-0.076,1.044,0.184
28.45,-0.26,0.95,-0.025
28.46,-0.25,0.655,-0.125
28.47,-0.256,1.641,-0.041
28.48,0.094,0.763,0.172
28.49,-0.247,1.02,0.02
28.5,-0.359,0.389,-0.176
28.51,-0.522,1.432,0.069
28.52,-0.099,0.722,0.139
28.53,-0.32,1.177,-0.002
28.54,-0.263,0.56,-0.193
28.55,-0.269,1.467,0.043
28.56,-0.241,0.893,0.156
28.57,-0.082,0.623,0.036
28.58,-0.492,0.904,-0.141
28.59,-0.047,1.426,0.071
28.6,-0.064,1.198,0.125
28.61,0.018,0.552,0.018
28.62,-0.588,0.644,-0.223
28.63,-0.143,1.817,0.099
28.64,-0.278,0.604,0.079
28.65,-0.123,1.03,0.027
28.66,-0.533,0.174,-0.173
28.67,-0.11,2.0,0.106
28.68,-0.059,0.634,0.115
28.69,-0.066,0.756,-0.044
28.7,-0.435,0.459,-0.168
28.71,-0.062,1.711,0.111
28.72,-0.093,1.101,0.089
28.73,0.061,0.522,-0.02
28.74,-0.43,0.793,-0.167
28.75,0.038,1.534,0.235
28.76,-0.257,1.272,0.033
28.77,0.004,0.498,-0.024
28.78,-0.422,0.851,-0.181
28.79,-0.01,1.562,0.132
28.8,-0.152,1.198,-0.014
28.81,-0.052,0.701,-0.124
28.82,-0.252,0.364,-0.087
28.83,-0.193,1.572,0.127
28.84,-0.124,0.791,0.043
28.85,-0.294,1.122,-0.149
28.86,-0.298,0.262,-0.085
28.87,-0.226,1.498,0.241
28.88,-0.289,1.035,0.016
28.89,-0.125,0.724,-0.106
28.9,-0.408,0.746,-0.082
28.91,-0.029,0.962,0.242
28.92,-0.322,1.521,0.01
28.93,-0.113,0.337,-0.136
28.94,-0.256,1.406,-0.061
28.95,0.03,0.848,0.168
28.96,-0.232,1.065,-0.041
28.97,-0.302,0.739,-0.181
28.98,-0.275,0.638,-0.064
28.99,0.005,1.231,0.115
29.0,-0.146,0.822,-0.056
29.01,-0.333,1.003,-0.155
29.02,-0.277,0.765,0.017
29.03,-0.099,1.059,0.136
29.04,-0.229,0.924,-0.004
29.05,-0.284,0.712,-0.147
29.06,-0.221,1.65,0.01
29.07,0.004,0.749,0.235
29.08,-0.187,0.98,0.045
29.09,-0.482,0.313,-0.17
29.1,-0.382,1.931,0.078
29.11,-0.2,0.596,0.175
29.12,-0.245,0.987,0.023
29.13,-0.539,0.437,-0.219
29.14,-0.149,1.672,0.114
29.15,-0.23,0.872,0.065
29.16,-0.022,0.533,-0.015
29.17,-0.422,0.96,-0.226
29.18,0.044,1.48,-0.0
29.19,-0.067,1.109,0.049
29.2,0.048,0.522,-0.034
29.21,-0.481,0.644,-0.24
29.22,-0.059,1.78,0.149
29.23,-0.154,0.76,0.097
29.24,-0.139,0.931,-0.012
29.25,-0.395,0.204,-0.132
29.26,-0.164,2.0,0.237
29.27,-0.06,0.669,0.114
29.28,-0.141,0.852,-0.038
29.29,-0.361,0.428,-0.152
29.3,-0.157,1.677,0.129
29.31,-0.185,1.178,0.085
29.32,0.063,0.549,-0.048
29.33,-0.505,0.885,-0.112
29.34,0.008,1.362,0.182
29.35,-0.304,1.302,0.037
29.36,0.015,0.626,-0.092
29.37,-0.516,0.631,-0.142
29.38,-0.085,1.406,0.191
29.39,-0.352,1.051,0.076
29.4,-0.136,0.941,-0.064
29.41,-0.428,0.261,-0.048
29.42,-0.105,1.445,0.21
29.43,-0.273,0.797,0.001
29.44,-0.287,1.047,-0.104
29.45,-0.368,0.48,0.0
29.46,-0.016,1.077,0.168
29.47,-0.253,1.139,-0.067
29.48,-0.162,0.532,-0.154
29.49,-0.285,1.257,-0.071
29.5,0.042,0.756,0.134
29.51,-0.387,1.288,-0.039
29.52,-0.134,0.431,-0.115
29.53,-0.488,1.607,-0.031
29.54,0.004,0.862,0.206
29.55,-0.275,0.95,-0.001
29.56,-0.315,0.542,-0.241
29.57,-0.248,1.669,0.034
29.58,-0.119,0.931,0.101
29.59,0.018,0.579,-0.014
29.6,-0.508,0.86,-0.251
29.61,0.025,1.451,0.016
29.62,-0.178,1.084,0.071
29.63,-0.013,0.565,-0.002
29.64,-0.445,0.608,-0.203
29.65,-0.061,1.854,0.061
29.66,0.01,0.722,0.107
29.67,-0.095,0.921,-0.003
29.68,-0.419,0.219,-0.189
29.69,-0.142,2.0,0.16
29.7,-0.096,0.647,0.1
29.71,-0.14,0.887,-0.027
29.72,-0.36,0.261,-0.126
29.73,-0.094,1.947,0.204
29.74,-0.066,0.891,0.047
29.75,-0.024,0.709,-0.045
29.76,-0.396,0.733,-0.176
29.77,-0.035,1.467,0.134
29.78,-0.27,1.359,0.024
29.79,0.055,0.519,-0.074
29.8,-0.424,0.813,-0.098
29.81,-0.152,1.239,0.248
29.82,-0.355,1.224,0.057
29.83,-0.191,0.798,-0.111
29.84,-0.319,0.373,-0.025
29.85,-0.196,1.463,0.213
29.86,-0.276,0.843,0.015
29.87,-0.185,1.066,-0.084
29.88,-0.346,0.382,-0.037
29.89,-0.015,1.231,0.135
29.9,-0.251,0.92,-0.039
29.91,-0.23,0.734,-0.171
29.92,-0.191,1.333,-0.114
29.93,0.039,0.761,0.168
29.94,-0.277,1.257,-0.038
29.95,-0.243,0.345,-0.183
29.96,-0.345,1.391,-0.037
29.97,-0.011,0.745,0.15
29.98,-0.307,1.122,-0.006
29.99,-0.265,0.648,-0.199
30.0,-0.283,1.484,0.013
30.01,-0.101,0.995,0.113
30.02,-0.186,0.61,0.011
30.03,-0.385,1.037,-0.176
30.04,-0.202,1.348,0.071
30.05,-0.049,1.071,0.174
30.06,-0.102,0.658,0.016
30.07,-0.462,0.663,-0.247
30.08,-0.224,1.816,0.055
30.09,-0.091,0.626,0.058
30.1,-0.151,1.046,-0.005
30.11,-0.344,0.243,-0.197
30.12,-0.135,2.0,0.093
30.13,0.002,0.649,0.144
30.14,-0.088,0.818,-0.011
30.15,-0.472,0.469,-0.214
30.16,-0.056,1.697,0.131
30.17,-0.19,1.041,0.093
30.18,0.086,0.524,-0.035
30.19,-0.553,0.931,-0.172
30.2,0.066,1.502,0.212
30.21,-0.216,1.151,0.046
30.22,0.084,0.568,-0.039
30.23,-0.444,0.701,-0.204
30.24,-0.089,1.725,0.082
30.25,-0.012,0.924,0.025
30.26,-0.146,0.897,-0.067
30.27,-0.203,0.166,-0.169
30.28,-0.276,1.791,0.106
30.29,-0.142,0.735,0.077
30.3,-0.217,0.993,-0.087
30.31,-0.359,0.436,-0.09
30.32,-0.24,1.361,0.222
30.33,-0.337,1.212,0.043
30.34,-0.025,0.49,-0.052
30.35,-0.425,0.905,-0.09
30.36,0.071,0.84,0.207
30.37,-0.352,1.371,-0.005
30.38,-0.169,0.34,-0.14
30.39,-0.336,1.264,-0.051
30.4,0.029,0.814,0.146
30.41,-0.246,1.13,-0.044
30.42,-0.289,0.663,-0.157
30.43,-0.366,0.893,-0.01
30.44,-0.115,1.082,0.18
30.45,-0.105,0.759,0.04
30.46,-0.411,0.931,-0.126
30.47,-0.185,1.125,-0.037
30.48,-0.158,1.016,0.106
30.49,-0.124,0.879,0.016
30.5,-0.372,0.701,-0.159
30.51,-0.255,1.709,0.066
30.52,-0.08,0.661,0.139
30.53,-0.19,1.08,0.013
30.54,-0.35,0.325,-0.217
30.55,-0.25,1.938,0.1
30.56,-0.083,0.576,0.117
30.57,-0.14,0.948,0.001
30.58,-0.377,0.519,-0.231
30.59,-0.069,1.694,0.028
30.6,-0.102,1.018,0.1
30.61,0.044,0.461,0.001
30.62,-0.617,0.896,-0.193
30.63,0.072,1.475,0.083
30.64,-0.198,1.128,0.121
30.65,0.043,0.509,0.012
30.66,-0.558,0.692,-0.138
30.67,-0.064,1.855,0.134
30.68,-0.151,0.687,0.158
30.69,-0.033,0.946,-0.006
30.7,-0.546,0.207,-0.122
30.71,-0.142,2.0,0.247
30.72,-0.166,0.634,0.139
30.73,-0.028,0.849,-0.013
30.74,-0.494,0.478,-0.143
30.75,-0.072,1.655,0.137
30.76,-0.25,1.134,0.08
30.77,0.049,0.465,-0.067
30.78,-0.458,0.947,-0.151
30.79,-0.048,1.417,0.193
30.8,-0.227,1.263,0.03
30.81,-0.018,0.609,-0.034
30.82,-0.503,0.675,-0.109
30.83,-0.022,1.628,0.146
30.84,-0.233,0.958,0.075
30.85,-0.114,0.945,-0.064
30.86,-0.459,0.178,-0.097
30.87,-0.192,1.674,0.212
30.88,-0.215,0.831,0.035
30.89,-0.174,0.97,-0.092
30.9,-0.38,0.445,-0.13
30.91,-0.1,1.218,0.205
30.92,-0.307,1.168,-0.032
30.93,-0.071,0.601,-0.068
30.94,-0.511,0.895,-0.055
30.95,-0.077,0.9,0.271
30.96,-0.321,1.418,0.05
30.97,-0.157,0.504,-0.121
30.98,-0.356,0.844,-0.065
30.99,-0.058,1.046,0.188
31.0,-0.208,1.017,-0.018
31.01,-0.269,0.883,-0.133
31.02,-0.187,0.817,-0.076
31.03,-0.124,1.232,0.169
31.04,-0.16,0.68,-0.019
31.05,-0.378,0.953,-0.131
31.06,-0.167,1.118,-0.078
31.07,-0.076,0.971,0.155
31.08,-0.208,1.041,-0.066
31.09,-0.26,0.486,-0.185
31.1,-0.388,1.303,-0.01
31.11,-0.023,0.688,0.089
31.12,-0.262,1.346,0.0
31.13,-0.264,0.382,-0.15
31.14,-0.298,1.719,0.023
31.15,-0.066,0.706,0.14
31.16,-0.229,0.873,0.032
31.17,-0.46,0.479,-0.187
31.18,-0.126,1.767,0.081
31.19,-0.152,1.024,0.155
31.2,-0.046,0.482,-0.029
31.21,-0.604,0.896,-0.195
31.22,-0.026,1.535,0.068
31.23,-0.271,0.999,0.108
31.24,0.014,0.557,-0.009
31.25,-0.577,0.719,-0.171
31.26,-0.038,1.724,0.124
31.27,-0.008,0.789,0.128
31.28,-0.088,0.862,-0.025
31.29,-0.394,0.26,-0.169
31.3,-0.265,1.947,0.136
31.31,-0.015,0.699,0.131
31.32,-0.088,0.914,-0.065
31.33,-0.427,0.428,-0.168
31.34,-0.061,1.743,0.225
31.35,-0.094,1.082,0.101
31.36,-0.002,0.425,-0.06
31.37,-0.459,0.936,-0.192
31.38,-0.043,1.379,0.136
31.39,-0.224,1.327,0.053
31.4,0.006,0.436,-0.049
31.41,-0.381,0.711,-0.139
31.42,-0.089,1.49,0.17
31.43,-0.21,0.976,0.047
31.44,-0.14,0.983,-0.13
31.45,-0.275,0.224,-0.184
31.46,-0.085,1.916,0.115
31.47,-0.069,0.763,0.026
31.48,-0.197,0.923,-0.118
31.49,-0.437,0.362,-0.136
31.5,-0.126,1.512,0.226
31.51,-0.339,1.232,0.04
31.52,-0.03,0.462,-0.046
31.53,-0.481,0.93,-0.118
31.54,0.051,0.965,0.217
31.55,-0.348,1.36,0.033
31.56,-0.223,0.618,-0.123
31.57,-0.41,0.743,-0.047
31.58,-0.066,1.104,0.283
31.59,-0.173,1.108,-0.005
31.6,-0.279,0.879,-0.096
31.61,-0.359,0.465,-0.044
31.62,-0.06,1.333,0.176
31.63,-0.162,0.784,0.016
31.64,-0.299,1.009,-0.122
31.65,-0.248,1.053,-0.092
31.66,-0.029,1.01,0.152
31.67,-0.229,0.963,0.001
31.68,-0.244,0.61,-0.139
31.69,-0.458,1.188,-0.078
31.7,0.066,0.766,0.169
31.71,-0.307,1.392,0.031
31.72,-0.15,0.423,-0.142
31.73,-0.392,1.6,-0.063
31.74,-0.041,0.738,0.185
31.75,-0.229,0.913,0.016
31.76,-0.287,0.829,-0.154
31.77,-0.232,1.345,-0.016
31.78,-0.117,1.165,0.158
31.79,-0.102,0.505,0.064
31.8,-0.451,0.98,-0.178
31.81,-0.323,1.375,0.079
31.82,-0.299,0.883,0.112
31.83,-0.192,0.921,0.016
31.84,-0.234,0.471,-0.197
31.85,-0.342,1.868,0.091
31.86,-0.025,0.571,0.139
31.87,-0.247,1.055,0.009
31.88,-0.252,0.246,-0.242
31.89,-0.17,1.964,0.013
31.9,0.076,0.83,0.124
31.91,-0.135,0.677,0.001
31.92,-0.447,0.588,-0.217
31.93,-0.164,1.669,0.111
31.94,-0.367,0.978,0.085
31.95,-0.001,0.464,0.043
31.96,-0.566,0.864,-0.172
31.97,0.005,1.541,0.229
31.98,-0.313,1.197,0.139
31.99,0.06,0.386,-0.01
32.0,-0.49,0.776,-0.155
32.01,-0.052,1.695,0.082
32.02,-0.104,0.864,0.072
32.03,-0.053,0.952,-0.095
32.04,-0.378,0.25,-0.141
32.05,-0.073,2.0,0.218
32.06,-0.063,0.65,0.111
32.07,-0.156,0.937,-0.054
32.08,-0.417,0.396,-0.161
32.09,-0.078,1.819,0.178
32.1,-0.211,1.085,0.019
32.11,0.031,0.555,-0.069
32.12,-0.409,0.819,-0.144
32.13,-0.004,1.238,0.129
32.14,-0.297,1.399,0.018
32.15,-0.072,0.502,-0.101
32.16,-0.448,0.751,-0.103
32.17,-0.061,1.418,0.203
32.18,-0.231,1.095,0.049
32.19,-0.139,0.912,-0.091
32.2,-0.445,0.261,-0.084
32.21,-0.162,1.539,0.222
32.22,-0.248,0.901,0.027
32.23,-0.272,0.899,-0.08
32.24,-0.395,0.54,-0.027
32.25,-0.117,1.222,0.187
32.26,-0.282,0.993,0.022
32.27,-0.27,0.695,-0.136
32.28,-0.434,0.949,-0.022
32.29,-0.003,0.877,0.223
32.3,-0.293,1.388,0.029
32.31,-0.153,0.45,-0.154
32.32,-0.322,1.172,-0.084
32.33,0.034,0.853,0.132
32.34,-0.232,1.04,-0.036
32.35,-0.249,0.719,-0.171
32.36,-0.221,1.192,-0.136
32.37,-0.009,1.206,0.144
32.38,-0.078,0.589,0.013
32.39,-0.429,1.024,-0.21
32.4,-0.264,0.945,0.007
32.41,-0.155,1.002,0.086
32.42,-0.101,0.991,-0.034
32.43,-0.317,0.606,-0.217
32.44,-0.26,1.774,-0.06
32.45,-0.191,0.655,0.14
32.46,-0.125,0.995,0.018
32.47,-0.286,0.286,-0.203
32.48,-0.166,2.0,0.068
32.49,-0.027,0.687,0.122
32.5,-0.139,0.964,0.009
32.51,-0.43,0.323,-0.214
32.52,-0.223,1.87,0.112
32.53,-0.327,0.769,0.093
32.54,-0.021,0.647,-0.003
32.55,-0.595,0.863,-0.225
32.56,0.066,1.5,0.073
32.57,-0.235,1.097,0.081
32.58,0.047,0.42,0.001
32.59,-0.522,0.763,-0.146
32.6,0.038,1.7,0.035
32.61,-0.1,0.9,0.1
32.62,-0.005,0.881,-0.045
32.63,-0.452,0.3,-0.188
32.64,-0.068,2.0,0.168
32.65,-0.213,0.564,0.061
32.66,-0.052,0.977,-0.002
32.67,-0.494,0.339,-0.142
32.68,-0.066,1.915,0.215
32.69,-0.133,0.834,0.101
32.7,0.039,0.522,-0.016
32.71,-0.6,0.83,-0.094
32.72,-0.045,1.45,0.158
32.73,-0.283,1.312,0.09
32.74,0.031,0.482,-0.041
32.75,-0.526,0.85,-0.165
32.76,0.056,1.655,0.155
32.77,-0.204,1.249,0.044
32.78,-0.073,0.568,-0.068
32.79,-0.446,0.556,-0.099
32.8,-0.153,1.499,0.187
32.81,-0.194,0.939,0.049
32.82,-0.246,0.94,-0.051
32.83,-0.368,0.246,-0.069
32.84,-0.261,1.513,0.234
32.85,-0.179,0.852,0.086
32.86,-0.397,0.905,-0.057
32.87,-0.347,0.536,-0.032
32.88,-0.153,1.188,0.292
32.89,-0.282,1.409,0.076
32.9,-0.117,0.407,-0.128
32.91,-0.438,1.014,-0.055
32.92,-0.0,0.894,0.209
32.93,-0.284,1.456,-0.002
32.94,-0.121,0.539,-0.156
32.95,-0.337,0.84,-0.03
32.96,0.017,1.081,0.122
32.97,-0.084,0.843,-0.029
32.98,-0.322,1.021,-0.152
32.99,-0.253,0.644,-0.006
33.0,-0.157,1.208,0.161
33.01,-0.127,0.802,-0.036
33.02,-0.372,0.83,-0.111
33.03,-0.198,1.195,-0.074
33.04,-0.07,0.827,0.106
33.05,-0.19,1.134,-0.08
33.06,-0.246,0.46,-0.245
33.07,-0.28,1.741,-0.036
33.08,-0.011,0.606,0.114
33.09,-0.246,1.196,-0.025
33.1,-0.288,0.472,-0.157
33.11,-0.323,1.658,0.021
33.12,-0.082,0.842,0.183
33.13,-0.082,0.678,0.007
33.14,-0.427,0.909,-0.212
33.15,-0.189,1.353,0.032
33.16,-0.215,1.08,0.164
33.17,-0.072,0.521,0.052
33.18,-0.496,0.834,-0.2
33.19,-0.197,1.667,0.058
33.2,-0.243,0.762,0.127
33.21,-0.073,0.909,0.014
33.22,-0.49,0.376,-0.175
33.23,-0.209,2.0,0.126
33.24,-0.161,0.549,0.135
33.25,-0.186,1.071,0.023
33.26,-0.395,0.258,-0.201
33.27,-0.09,1.914,0.024
33.28,-0.075,0.819,0.075
33.29,-0.016,0.586,-0.043
33.3,-0.512,0.821,-0.224
33.31,0.027,1.524,0.049
33.32,-0.126,1.15,0.089
33.33,0.097,0.433,-0.049
33.34,-0.552,0.916,-0.208
33.35,0.025,1.651,0.083
33.36,-0.163,0.837,0.07
33.37,0.037,0.795,-0.042
33.38,-0.499,0.408,-0.198
33.39,-0.123,1.968,0.191
33.4,-0.088,0.582,0.114
33.41,-0.115,0.92,-0.007
33.42,-0.457,0.322,-0.205
33.43,-0.243,1.804,0.118
33.44,-0.147,0.855,0.091
33.45,0.016,0.67,-0.075
33.46,-0.474,0.769,-0.228
33.47,-0.009,1.5,0.185
33.48,-0.28,1.303,0.121
33.49,-0.018,0.372,-0.049
33.5,-0.512,0.958,-0.174
33.51,-0.028,1.618,0.181
33.52,-0.302,1.114,0.11
33.53,-0.006,0.747,-0.074
33.54,-0.447,0.406,-0.117
33.55,-0.078,1.872,0.142
33.56,-0.148,0.78,0.101
33.57,-0.153,0.995,-0.063
33.58,-0.422,0.22,-0.133
33.59,-0.162,1.764,0.189
33.6,-0.155,0.886,0.08
33.61,-0.154,0.926,-0.087
33.62,-0.414,0.436,-0.143
33.63,-0.134,1.378,0.246
33.64,-0.246,1.317,-0.004
33.65,-0.132,0.452,-0.089
33.66,-0.493,0.92,-0.086
33.67,-0.039,1.003,0.194
33.68,-0.289,1.396,0.033
33.69,-0.116,0.533,-0.122
33.7,-0.398,0.702,-0.091
33.71,-0.095,1.166,0.241
33.72,-0.206,1.103,-0.016
33.73,-0.148,0.956,-0.16
33.74,-0.385,0.299,-0.11
33.75,-0.111,1.438,0.16
33.76,-0.235,0.823,0.02
33.77,-0.222,0.902,-0.111
33.78,-0.302,0.81,-0.081
33.79,-0.104,1.02,0.184
33.8,-0.245,1.117,-0.005
33.81,-0.222,0.52,-0.129
33.82,-0.405,1.158,-0.031
33.83,0.014,0.787,0.183
33.84,-0.343,1.333,0.046
33.85,-0.26,0.401,-0.134
33.86,-0.415,1.074,-0.074
33.87,0.052,0.949,0.129
33.88,-0.188,0.971,-0.036
33.89,-0.311,0.795,-0.14
33.9,-0.196,1.219,-0.081
33.91,-0.105,1.181,0.129
33.92,-0.146,0.504,0.036
33.93,-0.457,0.993,-0.153
33.94,-0.319,1.381,-0.037
33.95,-0.161,0.899,0.135
33.96,-0.23,0.94,0.005
33.97,-0.399,0.456,-0.18
33.98,-0.441,1.803,0.079
33.99,-0.158,0.532,0.168
34.0,-0.33,1.211,0.081
34.01,-0.244,0.301,-0.161
34.02,-0.394,1.814,0.072
34.03,0.001,0.78,0.159
34.04,-0.14,0.746,0.01
34.05,-0.396,0.769,-0.221
34.06,-0.202,1.512,0.06
34.07,-0.238,1.036,0.182
34.08,-0.056,0.496,0.093
34.09,-0.536,0.873,-0.182
34.1,-0.208,1.508,0.101
34.11,-0.306,0.865,0.086
34.12,-0.107,0.771,0.011
34.13,-0.397,0.419,-0.163
34.14,-0.099,1.993,0.002
34.15,-0.081,0.563,0.141
34.16,-0.121,0.988,0.009
34.17,-0.465,0.179,-0.198
34.18,-0.096,1.986,0.064
34.19,-0.146,0.707,0.068
34.2,-0.094,0.704,-0.041
34.21,-0.504,0.636,-0.22
34.22,-0.015,1.635,0.095
34.23,-0.28,1.11,0.145
34.24,0.094,0.354,-0.011
34.25,-0.592,0.894,-0.114
34.26,-0.012,1.586,0.133
34.27,-0.185,1.108,0.059
34.28,0.104,0.685,-0.043
34.29,-0.515,0.534,-0.141
34.3,0.008,1.844,0.207
34.31,-0.083,0.662,0.083
34.32,-0.115,1.006,-0.061
34.33,-0.389,0.255,-0.188
34.34,-0.061,1.999,0.166
34.35,-0.101,0.812,0.047
34.36,-0.088,0.68,-0.065
34.37,-0.091,0.678,0.025
34.38,-0.527,0.937,-0.219
34.39,-0.076,1.36,0.095
34.4,-0.273,0.959,0.068
34.41,-0.034,0.607,0.025
34.42,-0.474,0.604,-0.173
34.43,-0.097,1.846,0.028
34.44,-0.061,0.725,0.097
34.45,-0.101,0.951,0.026
34.46,-0.482,0.252,-0.195
34.47,-0.161,2.0,0.065
34.48,-0.169,0.6,0.077
34.49,-0.113,0.868,0.007
34.5,-0.508,0.471,-0.184
34.51,-0.141,1.779,0.144
34.52,-0.197,0.973,0.133
34.53,0.022,0.447,-0.006
34.54,-0.645,0.887,-0.141
34.55,-0.001,1.542,0.108
34.56,-0.231,1.252,0.102
34.57,0.022,0.484,0.022
34.58,-0.425,0.718,-0.156
34.59,-0.054,1.791,0.155
34.6,-0.106,0.738,0.124
34.61,-0.082,1.015,-0.054
34.62,-0.349,0.223,-0.187
34.63,-0.07,2.0,0.154
34.64,-0.036,0.737,0.051
34.65,-0.075,0.832,-0.071
34.66,-0.369,0.42,-0.157
34.67,-0.1,1.527,0.126
34.68,-0.272,1.121,-0.001
34.69,0.008,0.522,-0.143
34.7,-0.427,0.916,-0.178
34.71,0.044,1.314,0.126
34.72,-0.309,1.287,0.064
34.73,-0.055,0.509,-0.092
34.74,-0.49,0.707,-0.12
34.75,-0.058,1.388,0.167
34.76,-0.294,1.101,0.062
34.77,-0.107,0.831,-0.119
34.78,-0.376,0.266,-0.099
34.79,-0.119,1.562,0.155
34.8,-0.254,0.802,-0.011
34.81,-0.129,1.08,-0.116
34.82,-0.391,0.421,-0.151
34.83,-0.105,1.328,0.247
34.84,-0.326,1.276,0.018
34.85,-0.052,0.552,-0.142
34.86,-0.531,0.912,-0.082
34.87,0.033,0.879,0.192
34.88,-0.359,1.558,0.022
34.89,-0.158,0.361,-0.123
34.9,-0.312,1.122,-0.065
34.91,-0.007,0.977,0.166
34.92,-0.137,0.886,0.029
34.93,-0.315,0.928,-0.194
34.94,-0.299,0.547,-0.054
34.95,-0.158,1.256,0.164
34.96,-0.147,0.767,0.004
34.97,-0.342,0.886,-0.108
34.98,-0.216,1.037,-0.062
34.99,-0.118,0.956,0.161
35.0,-0.134,1.037,-0.04
35.01,-0.321,0.594,-0.166
35.02,-0.29,1.722,-0.048
35.03,-0.062,0.665,0.146
35.04,-0.193,1.187,0.055
35.05,-0.317,0.39,-0.2
35.06,-0.384,1.513,0.0
35.07,-0.142,0.769,0.133
35.08,-0.201,0.981,-0.012
35.09,-0.317,0.688,-0.177
35.1,-0.2,1.444,0.024
35.11,-0.145,1.063,0.198
35.12,-0.008,0.506,0.055
35.13,-0.531,0.934,-0.17
35.14,-0.064,1.491,0.052
35.15,-0.093,1.134,0.119
35.16,0.027,0.521,-0.013
35.17,-0.505,0.776,-0.236
35.18,-0.063,1.79,0.029
35.19,-0.207,0.689,0.077
35.2,-0.101,0.919,-0.011
35.21,-0.395,0.244,-0.194
35.22,-0.094,2.0,0.118
35.23,-0.06,0.608,0.106
35.24,-0.074,0.875,-0.031
35.25,-0.398,0.353,-0.19
35.26,-0.085,1.873,0.099
35.27,-0.156,0.925,0.067
35.28,0.088,0.588,-0.085
35.29,-0.508,0.877,-0.25
35.3,0.058,1.515,0.179
35.31,-0.302,1.128,0.026
35.32,0.07,0.438,-0.003
35.33,-0.493,0.784,-0.175
35.34,-0.075,1.708,0.165
35.35,-0.114,0.907,0.077
35.36,-0.062,0.872,-0.05
35.37,-0.305,0.287,-0.136
35.38,-0.209,1.924,0.157
35.39,-0.037,0.741,0.091
35.4,-0.238,0.964,-0.072
35.41,-0.288,0.35,-0.141
35.42,-0.095,1.844,0.186
35.43,-0.115,0.991,0.061
35.44,-0.021,0.566,-0.03
35.45,-0.464,0.818,-0.162
35.46,-0.106,1.202,0.167
35.47,-0.354,1.38,0.108
35.48,-0.06,0.452,-0.068
35.49,-0.454,0.798,-0.132
35.5,-0.063,1.315,0.165
35.51,-0.232,1.138,0.035
35.52,-0.125,0.872,-0.131
35.53,-0.346,0.312,-0.078
35.54,-0.183,1.659,0.172
35.55,-0.125,0.893,0.049
35.56,-0.187,0.922,-0.103
35.57,-0.283,0.368,-0.123
35.58,-0.083,1.34,0.157
35.59,-0.265,1.021,-0.036
35.6,-0.049,0.656,-0.128
35.61,-0.455,0.817,-0.067
35.62,-0.003,0.973,0.206
35.63,-0.368,1.445,0.033
35.64,-0.151,0.451,-0.112
35.65,-0.47,0.858,-0.09
35.66,-0.013,1.063,0.267
35.67,-0.285,1.345,0.003
35.68,-0.213,0.627,-0.147
35.69,-0.249,0.952,-0.023
35.7,-0.139,1.286,0.18
35.71,-0.141,0.585,-0.015
35.72,-0.373,1.069,-0.154
35.73,-0.234,0.845,-0.027
35.74,-0.042,1.127,0.175
35.75,-0.24,0.918,0.005
35.76,-0.261,0.713,-0.137
35.77,-0.48,1.156,-0.012
35.78,0.076,0.746,0.131
35.79,-0.253,1.387,-0.047
35.8,-0.173,0.319,-0.156
35.81,-0.341,1.814,-0.058
35.82,0.015,0.735,0.118
35.83,-0.197,0.906,0.013
35.84,-0.388,0.703,-0.174
35.85,-0.328,1.42,-0.04
35.86,-0.215,1.051,0.137
35.87,-0.094,0.65,0.015
35.88,-0.428,0.937,-0.184
35.89,-0.211,1.308,0.03
35.9,-0.238,0.948,0.123
35.91,-0.162,0.785,0.014
35.92,-0.335,0.544,-0.16
35.93,-0.046,1.666,-0.002
35.94,-0.044,0.883,0.118
35.95,-0.031,0.806,0.001
35.96,-0.415,0.33,-0.192
35.97,-0.121,2.0,0.122
35.98,-0.052,0.603,0.081
35.99,-0.148,0.966,-0.018
36.0,-0.452,0.274,-0.181
36.01,-0.099,1.93,0.151
36.02,-0.113,0.847,0.082
36.03,-0.011,0.513,-0.055
36.04,-0.507,0.83,-0.228
36.05,0.028,1.548,0.096
36.06,-0.149,1.207,0.07
36.07,0.074,0.481,-0.012
36.08,-0.511,0.883,-0.214
36.09,0.039,1.617,0.141
36.1,-0.125,0.999,0.04
36.11,0.012,0.823,-0.046
36.12,-0.45,0.398,-0.174
36.13,-0.109,1.992,0.157
36.14,-0.118,0.666,0.079
36.15,-0.065,1.015,-0.055
36.16,-0.414,0.239,-0.168
36.17,-0.097,1.752,0.176
36.18,-0.24,1.006,0.069
36.19,-0.02,0.65,-0.058
36.2,-0.411,0.797,-0.175
36.21,-0.024,1.376,0.179
36.22,-0.241,1.297,0.049
36.23,0.009,0.437,-0.086
36.24,-0.536,0.896,-0.182
36.25,-0.0,1.388,0.162
36.26,-0.302,1.126,0.074
36.27,-0.054,0.701,-0.106
36.28,-0.494,0.511,-0.07
36.29,-0.104,1.497,0.15
36.3,-0.19,0.767,0.023
36.31,-0.225,1.07,-0.107
36.32,-0.376,0.306,-0.106
36.33,-0.13,1.44,0.243
36.34,-0.241,0.916,0.095
36.35,-0.222,0.758,-0.105
36.36,-0.441,0.731,-0.046
36.37,-0.045,1.018,0.237
36.38,-0.381,1.507,0.05
36.39,0.016,0.364,-0.106
36.4,-0.578,1.043,-0.064
36.41,0.114,0.907,0.168
36.42,-0.337,1.189,0.039
36.43,-0.165,0.703,-0.141
36.44,-0.433,0.617,-0.042
36.45,0.001,1.304,0.172
36.46,-0.2,0.763,0.049
36.47,-0.319,1.041,-0.133
36.48,-0.374,0.371,-0.033
36.49,-0.085,1.258,0.16
36.5,-0.198,1.009,0.011
36.51,-0.183,0.674,-0.159
36.52,-0.297,1.334,-0.121
36.53,0.04,0.785,0.141
36.54,-0.314,1.217,0.024
36.55,-0.197,0.337,-0.134
36.56,-0.325,1.428,-0.111
36.57,0.007,0.741,0.133
36.58,-0.25,1.155,-0.027
36.59,-0.294,0.607,-0.139
36.6,-0.353,0.961,-0.077
36.61,-0.077,1.046,0.117
36.62,-0.077,0.797,-0.04
36.63,-0.408,0.969,-0.109
36.64,-0.23,1.197,-0.025
36.65,-0.106,1.086,0.152
36.66,-0.19,0.684,0.009
36.67,-0.377,0.836,-0.169
36.68,-0.326,1.582,-0.041
36.69,-0.064,0.731,0.15
36.7,-0.245,1.118,0.031
36.71,-0.327,0.349,-0.223
36.72,-0.339,1.896,-0.008
36.73,-0.096,0.556,0.117
36.74,-0.145,1.173,0.04
36.75,-0.296,0.219,-0.254
36.76,-0.1,1.96,0.008
36.77,0.011,0.861,0.086
36.78,-0.002,0.645,-0.01
36.79,-0.392,0.724,-0.219
36.8,-0.108,1.618,0.074
36.81,-0.291,1.042,0.147
36.82,0.024,0.513,0.015
36.83,-0.597,0.804,-0.21
36.84,-0.017,1.604,0.071
36.85,-0.351,0.885,0.022
36.86,-0.079,0.664,0.015
36.87,-0.394,0.405,-0.182
36.88,-0.102,1.993,0.082
36.89,0.059,0.689,0.092
36.9,-0.149,0.903,-0.037
36.91,-0.365,0.137,-0.205
36.92,-0.097,2.0,0.084
36.93,-0.204,0.75,0.154
36.94,-0.064,0.677,-0.003
36.95,-0.584,0.693,-0.206
36.96,-0.055,1.635,0.225
36.97,-0.231,1.105,0.085
36.98,0.051,0.335,0.002
36.99,-0.548,0.949,-0.19
37.0,-0.056,1.5,0.131
37.01,-0.156,1.164,0.047
37.02,0.06,0.688,-0.042
37.03,-0.376,0.525,-0.179
37.04,-0.044,1.844,0.16
37.05,-0.028,0.744,0.064
37.06,-0.077,1.031,-0.05
37.07,-0.396,0.205,-0.195
37.08,-0.067,2.0,0.166
37.09,-0.133,0.782,0.082
37.1,-0.047,0.698,-0.055
37.11,-0.4,0.605,-0.204
37.12,-0.113,1.438,0.131
37.13,-0.314,1.265,0.08
37.14,0.015,0.402,-0.06
37.15,-0.538,0.892,-0.14
37.16,0.015,1.353,0.172
37.17,-0.311,1.241,0.059
37.18,-0.088,0.612,-0.054
37.19,-0.507,0.524,-0.139
37.2,-0.121,1.724,0.158
37.21,-0.141,0.809,0.078
37.22,-0.134,0.973,-0.11
37.23,-0.439,0.192,-0.115
37.24,-0.106,1.634,0.16
37.25,-0.284,0.901,0.066
37.26,-0.082,0.834,-0.095
37.27,-0.405,0.57,-0.208
37.28,0.024,1.311,0.18
37.29,-0.287,1.307,-0.011
37.3,-0.043,0.488,-0.141
37.31,-0.475,0.91,-0.112
37.32,-0.034,1.247,0.239
37.33,-0.304,1.436,0.041
37.34,-0.086,0.501,-0.095
37.35,-0.462,0.637,-0.091
37.36,-0.103,1.367,0.197
37.37,-0.202,0.995,-0.007
37.38,-0.198,0.997,-0.082
37.39,-0.355,0.231,-0.029
37.4,-0.179,1.448,0.267
37.41,-0.167,0.904,0.046
37.42,-0.31,0.911,-0.095
37.43,-0.377,0.555,-0.09
37.44,-0.02,1.115,0.211
37.45,-0.266,1.322,0.01
37.46,-0.06,0.464,-0.158
37.47,-0.419,1.155,-0.085
37.48,0.101,0.771,0.138
37.49,-0.321,1.402,-0.021
37.5,-0.181,0.471,-0.133
37.51,-0.311,1.229,-0.056
37.52,0.0,1.012,0.145
37.53,-0.135,0.771,0.019
37.54,-0.379,0.984,-0.171
37.55,-0.282,1.301,0.007
37.56,-0.217,1.047,0.14
37.57,-0.065,0.63,0.016
37.58,-0.379,0.944,-0.138
37.59,-0.24,1.32,-0.007
37.6,-0.176,0.953,0.117
37.61,-0.142,0.852,0.021
37.62,-0.352,0.651,-0.163
37.63,-0.205,1.743,0.112
37.64,-0.087,0.669,0.162
37.65,-0.201,1.064,0.043
37.66,-0.283,0.308,-0.23
37.67,-0.349,1.933,0.092
37.68,-0.107,0.632,0.127
37.69,-0.185,0.88,0.058
37.7,-0.418,0.544,-0.196
37.71,-0.181,1.628,0.052
37.72,-0.211,0.955,0.121
37.73,0.065,0.532,0.002
37.74,-0.534,0.902,-0.222
37.75,0.052,1.478,0.032
37.76,-0.184,1.072,0.087
37.77,0.026,0.562,-0.0
37.78,-0.457,0.628,-0.191
37.79,-0.049,1.878,0.032
37.8,-0.03,0.655,0.079
37.81,-0.107,0.947,-0.018
37.82,-0.407,0.251,-0.203
37.83,-0.106,2.0,0.138
37.84,-0.05,0.634,0.138
37.85,-0.079,0.818,-0.001
37.86,-0.425,0.539,-0.18
37.87,-0.104,1.763,0.174
37.88,-0.113,1.06,0.095
37.89,0.019,0.491,-0.036
37.9,-0.515,0.905,-0.19
37.91,-0.01,1.54,0.16
37.92,-0.235,1.163,0.045
37.93,0.085,0.531,-0.034
37.94,-0.473,0.723,-0.181
37.95,-0.061,1.706,0.079
37.96,-0.146,0.85,0.094
37.97,-0.044,0.981,-0.05
37.98,-0.38,0.235,-0.115
37.99,-0.162,1.958,0.179
38.0,-0.149,0.719,0.093
38.01,-0.187,0.979,-0.038
38.02,-0.386,0.433,-0.156
38.03,-0.046,1.763,0.166
38.04,-0.188,1.037,0.023
38.05,0.057,0.521,-0.04
38.06,-0.557,0.862,-0.154
38.07,0.015,1.212,0.163
38.08,-0.391,1.375,0.027
38.09,-0.026,0.477,-0.075
38.1,-0.378,0.739,-0.155
38.11,-0.12,1.459,0.162
38.12,-0.218,0.944,0.037
38.13,-0.125,1.006,-0.142
38.14,-0.346,0.211,-0.127
38.15,-0.116,1.652,0.215
38.16,-0.212,0.885,0.051
38.17,-0.109,0.888,-0.107
38.18,-0.432,0.44,-0.147
38.19,-0.037,1.262,0.181
38.2,-0.291,1.097,-0.031
38.21,-0.126,0.574,-0.155
38.22,-0.4,0.917,-0.095
38.23,0.086,0.933,0.203
38.24,-0.376,1.466,0.043
38.25,-0.086,0.466,-0.128
38.26,-0.441,0.812,-0.086
38.27,0.027,1.081,0.235
38.28,-0.22,1.133,0.007
38.29,-0.259,0.866,-0.122
38.3,-0.36,0.407,-0.045
38.31,-0.122,1.391,0.205
38.32,-0.161,0.852,0.019
38.33,-0.331,0.923,-0.098
38.34,-0.31,0.71,-0.014
38.35,-0.138,1.121,0.152
38.36,-0.075,0.756,-0.03
38.37,-0.321,0.81,-0.203
38.38,-0.191,1.551,-0.078
38.39,-0.151,0.744,0.14
38.4,-0.212,1.148,-0.01
38.41,-0.304,0.358,-0.186
38.42,-0.351,1.865,0.018
38.43,-0.071,0.576,0.155
38.44,-0.233,1.067,0.053
38.45,-0.349,0.478,-0.177
38.46,-0.341,1.663,-0.001
38.47,-0.042,0.935,0.104
38.48,-0.041,0.619,0.026
38.49,-0.486,0.938,-0.235
38.5,-0.172,1.378,0.081
38.51,-0.263,1.062,0.165
38.52,-0.013,0.568,0.084
38.53,-0.508,0.761,-0.163
38.54,-0.22,1.719,0.099
38.55,-0.189,0.705,0.092
38.56,-0.147,0.952,0.04
38.57,-0.399,0.276,-0.174
38.58,-0.239,2.0,0.113
38.59,-0.079,0.551,0.1
38.6,-0.141,0.959,0.041
38.61,-0.473,0.349,-0.149
38.62,-0.17,1.855,0.126
38.63,-0.124,0.874,0.076
38.64,0.012,0.509,-0.031
38.65,-0.569,0.891,-0.188
38.66,0.027,1.466,0.1
38.67,-0.216,1.167,0.126
38.68,0.122,0.455,0.037
38.69,-0.578,0.812,-0.159
38.7,0.136,1.77,0.099
38.71,-0.229,0.878,0.102
38.72,0.035,0.888,-0.026
38.73,-0.481,0.262,-0.137
38.74,-0.15,2.0,0.227
38.75,-0.151,0.507,0.134
38.76,-0.106,0.956,-0.042
38.77,-0.461,0.354,-0.169
38.78,-0.126,1.814,0.161
38.79,-0.146,0.962,0.076
38.8,-0.007,0.547,-0.073
38.81,-0.331,0.878,-0.186
38.82,0.002,1.506,0.116
38.83,-0.196,1.311,0.033
38.84,0.054,0.528,-0.064
38.85,-0.416,0.821,-0.205
38.86,0.108,1.677,0.107
38.87,-0.174,1.001,0.036
38.88,-0.026,0.861,-0.073
38.89,-0.397,0.292,-0.142
38.9,-0.175,1.836,0.182
38.91,-0.156,0.826,0.024
38.92,-0.204,0.979,-0.092
38.93,-0.271,0.236,-0.152
38.94,-0.207,1.701,0.152
38.95,-0.219,1.044,-0.005
38.96,-0.097,0.65,-0.108
38.97,-0.404,0.768,-0.086
38.98,-0.164,1.233,0.261
38.99,-0.396,1.449,0.007
39.0,-0.021,0.405,-0.058
39.01,-0.46,0.848,-0.111
39.02,-0.043,1.077,0.186
39.03,-0.266,1.257,-0.07
39.04,-0.225,0.814,-0.123
39.05,-0.313,0.404,-0.022
39.06,-0.152,1.391,0.168
39.07,-0.205,0.808,0.018
39.08,-0.296,1.02,-0.129
39.09,-0.354,0.364,-0.028
39.1,-0.067,1.23,0.176
39.11,-0.315,1.109,-0.035
39.12,-0.187,0.576,-0.117
39.13,-0.253,1.449,-0.094
39.14,0.032,0.788,0.156
39.15,-0.295,1.218,-0.04
39.16,-0.4,0.448,-0.183
39.17,-0.288,1.929,0.03
39.18,-0.014,0.651,0.162
39.19,-0.239,1.079,0.025
39.2,-0.416,0.418,-0.256
39.21,-0.321,1.794,0.036
39.22,-0.193,0.784,0.127
39.23,-0.089,0.74,0.012
39.24,-0.494,0.871,-0.21
39.25,0.003,1.421,0.052
39.26,-0.081,1.185,0.155
39.27,0.008,0.442,0.065
39.28,-0.533,0.853,-0.209
39.29,-0.068,1.655,0.068
39.3,-0.084,0.876,0.108
39.31,0.023,0.833,-0.036
39.32,-0.456,0.392,-0.227
39.33,-0.169,2.0,0.116
39.34,-0.094,0.537,0.104
39.35,-0.159,0.978,0.025
39.36,-0.414,0.309,-0.169
39.37,-0.105,1.906,0.088
39.38,-0.039,0.828,0.114
39.39,-0.066,0.594,-0.044
39.4,-0.419,0.748,-0.193
39.41,-0.101,1.582,0.132
39.42,-0.196,1.109,0.127
39.43,0.035,0.427,-0.01
39.44,-0.585,0.929,-0.221
39.45,-0.045,1.562,0.2
39.46,-0.184,0.978,0.104
39.47,-0.015,0.751,-0.008
39.48,-0.371,0.424,-0.181
39.49,-0.149,1.961,0.116
39.5,0.003,0.674,0.045
39.51,-0.097,1.063,-0.039
39.52,-0.334,0.251,-0.153
39.53,-0.111,1.889,0.154
39.54,-0.109,0.856,0.106
39.55,-0.129,0.671,-0.054
39.56,-0.375,0.755,-0.151
39.57,-0.038,1.546,0.15
39.58,-0.238,1.243,0.036
39.59,0.019,0.428,-0.02
39.6,-0.418,0.912,-0.154
39.61,-0.082,1.342,0.171
39.62,-0.25,1.181,0.013
39.63,-0.154,0.657,-0.096
39.64,-0.325,0.405,-0.131
39.65,-0.172,1.569,0.178
39.66,-0.142,0.851,0.015
39.67,-0.224,1.087,-0.122
39.68,-0.242,0.217,-0.117
39.69,-0.168,1.679,0.182
39.7,-0.128,0.94,0.012
39.71,-0.19,0.744,-0.171
39.72,-0.365,0.632,-0.194
39.73,0.005,1.154,0.211
39.74,-0.341,1.43,-0.006
39.75,-0.066,0.316,-0.094
39.76,-0.518,1.038,-0.057
39.77,0.01,0.979,0.196
39.78,-0.262,1.229,0.011
39.79,-0.245,0.718,-0.16
39.8,-0.369,0.585,-0.024
39.81,-0.1,1.297,0.196
39.82,-0.116,0.842,0.04
39.83,-0.347,1.023,-0.089
39.84,-0.303,0.518,-0.03
39.85,-0.119,1.218,0.193
39.86,-0.134,0.9,-0.016
39.87,-0.303,0.709,-0.128
39.88,-0.186,1.455,-0.107
39.89,-0.067,0.824,0.157
39.9,-0.22,1.131,-0.007
39.91,-0.289,0.399,-0.138
39.92,-0.297,1.436,-0.068
39.93,-0.045,0.733,0.138
39.94,-0.166,1.25,-0.006
39.95,-0.321,0.516,-0.194
39.96,-0.211,1.813,0.037
39.97,-0.107,0.723,0.111
39.98,-0.118,0.729,0.026
39.99,-0.416,0.735,-0.19
40.0,-0.125,1.522,0.065
40.01,-0.076,1.17,0.178
40.02,-0.012,0.442,0.057
40.03,-0.616,0.945,-0.198
40.04,-0.156,1.55,0.107
40.05,-0.188,0.862,0.099
40.06,-0.025,0.787,0.023
40.07,-0.5,0.461,-0.186
40.08,-0.073,2.0,0.059
40.09,-0.046,0.635,0.117
40.1,-0.088,0.96,-0.017
40.11,-0.388,0.218,-0.186
40.12,-0.191,2.0,0.089
40.13,-0.048,0.754,0.128
40.14,-0.022,0.728,-0.022
40.15,-0.53,0.645,-0.207
40.16,-0.06,1.615,0.183
40.17,-0.282,1.08,0.123
40.18,0.01,0.362,-0.006
40.19,-0.592,0.937,-0.193
40.2,-0.097,1.553,0.187
40.21,-0.143,1.084,0.109
40.22,-0.013,0.615,0.001
40.23,-0.474,0.556,-0.126
40.24,-0.195,1.789,0.141
40.25,-0.125,0.783,0.091
40.26,-0.156,1.014,-0.064
40.27,-0.393,0.225,-0.143
40.28,-0.157,1.908,0.198
40.29,-0.087,0.811,0.061
40.3,-0.12,0.771,-0.018
40.31,-0.317,0.641,-0.214
40.32,-0.096,1.53,0.11
40.33,-0.208,1.301,0.029
40.34,-0.031,0.391,-0.093
40.35,-0.444,0.905,-0.136
40.36,-0.089,1.25,0.181
40.37,-0.26,1.305,0.038
40.38,-0.125,0.623,-0.104
40.39,-0.421,0.53,-0.119
40.4,-0.066,1.659,0.165
40.41,-0.155,0.917,0.03
40.42,-0.151,0.973,-0.109
40.43,-0.398,0.182,-0.112
40.44,-0.158,1.574,0.165
40.45,-0.253,0.906,-0.011
40.46,-0.222,0.85,-0.108
40.47,-0.348,0.572,-0.096
40.48,-0.018,1.075,0.203
40.49,-0.299,1.301,0.01
40.5,-0.161,0.516,-0.135
40.51,-0.452,0.989,-0.045
40.52,-0.038,0.916,0.281
40.53,-0.353,1.424,0.077
40.54,-0.151,0.484,-0.083
40.55,-0.349,1.044,-0.08
40.56,0.035,1.07,0.166
40.57,-0.178,0.807,-0.042
40.58,-0.272,0.976,-0.175
40.59,-0.176,0.903,-0.116
40.6,-0.027,1.277,0.136
40.61,-0.138,0.67,-0.013
40.62,-0.332,0.917,-0.183
40.63,-0.418,0.875,-0.061
40.64,-0.017,0.906,0.141
40.65,-0.257,1.292,-0.048
40.66,-0.2,0.381,-0.189
40.67,-0.355,1.827,-0.038
40.68,0.004,0.585,0.135
40.69,-0.29,1.205,0.037
40.7,-0.302,0.425,-0.185
40.71,-0.391,1.683,0.017
40.72,-0.123,0.903,0.146
40.73,-0.14,0.719,0.069
40.74,-0.511,0.915,-0.209
40.75,-0.222,1.357,0.066
40.76,-0.313,1.021,0.136
40.77,0.012,0.546,0.046
40.78,-0.522,0.931,-0.183
40.79,0.031,1.482,0.079
40.8,-0.101,1.094,0.135
40.81,-0.009,0.565,0.035
40.82,-0.448,0.595,-0.178
40.83,-0.065,1.847,0.085
40.84,-0.064,0.695,0.135
40.85,-0.072,0.997,-0.031
40.86,-0.417,0.225,-0.177
40.87,-0.099,2.0,0.167
40.88,-0.217,0.615,0.129
40.89,-0.11,0.807,-0.011
40.9,-0.451,0.516,-0.184
40.91,-0.033,1.727,0.105
40.92,-0.097,1.12,0.102
40.93,0.04,0.366,-0.046
40.94,-0.556,0.953,-0.138
40.95,-0.112,1.386,0.168
40.96,-0.185,1.242,0.121
40.97,0.01,0.617,-0.048
40.98,-0.463,0.68,-0.171
40.99,0.053,1.789,0.147
41.0,-0.113,0.802,0.082
41.01,-0.022,1.003,-0.047
41.02,-0.466,0.205,-0.16
41.03,-0.181,1.834,0.179
41.04,-0.246,0.859,0.093
41.05,-0.125,0.857,-0.06
41.06,-0.375,0.458,-0.16
41.07,-0.086,1.475,0.187
41.08,-0.294,1.146,0.074
41.09,-0.042,0.567,-0.123
41.1,-0.504,0.895,-0.111
41.11,0.032,1.298,0.172
41.12,-0.301,1.424,0.023
41.13,0.044,0.508,-0.082
41.14,-0.559,0.709,-0.106
41.15,-0.024,1.307,0.23
41.16,-0.28,1.074,-0.007
41.17,-0.257,0.943,-0.093
41.18,-0.358,0.28,-0.019
41.19,-0.16,1.434,0.213
41.2,-0.179,0.777,0.033
41.21,-0.27,0.959,-0.113
41.22,-0.377,0.527,-0.041
41.23,-0.077,1.14,0.188
41.24,-0.277,1.265,-0.01
41.25,-0.099,0.487,-0.124
41.26,-0.355,1.283,-0.06
41.27,0.063,0.714,0.163
41.28,-0.329,1.34,0.005
41.29,-0.157,0.474,-0.181
41.3,-0.297,1.383,-0.111
41.31,0.011,0.901,0.111
41.32,-0.174,0.876,-0.036
41.33,-0.397,0.84,-0.137
41.34,-0.306,0.957,0.021
41.35,-0.194,1.111,0.173
41.36,-0.147,0.734,0.017
41.37,-0.291,0.982,-0.115
41.38,-0.299,1.402,0.02
41.39,-0.05,0.832,0.159
41.4,-0.157,0.903,-0.042
41.41,-0.297,0.491,-0.19
41.42,-0.365,1.903,0.052
41.43,-0.148,0.534,0.127
41.44,-0.251,1.108,0.051
41.45,-0.393,0.213,-0.221
41.46,-0.306,1.967,0.109
41.47,-0.245,0.687,0.125
41.48,-0.158,0.699,-0.011
41.49,-0.436,0.692,-0.216
41.5,-0.054,1.579,0.018
41.51,-0.155,1.084,0.058
41.52,-0.044,0.402,0.006
41.53,-0.508,0.847,-0.175
41.54,0.041,1.608,0.084
41.55,-0.111,0.967,0.063
41.56,-0.037,0.658,-0.086
41.57,-0.435,0.439,-0.165
41.58,-0.009,1.758,0.135
41.59,-0.059,0.842,0.092
41.6,-0.091,0.951,-0.021
41.61,-0.348,0.248,-0.107
41.62,-0.15,1.919,0.144
41.63,-0.116,0.756,0.083
41.64,-0.093,0.96,-0.043
41.65,-0.473,0.362,-0.116
41.66,-0.077,1.558,0.206
41.67,-0.296,1.173,0.006
41.68,0.055,0.555,-0.116
41.69,-0.53,0.83,-0.101
41.7,-0.062,1.101,0.209
41.71,-0.402,1.451,0.033
41.72,-0.057,0.442,-0.08
41.73,-0.451,0.728,-0.088
41.74,-0.034,1.154,0.211
41.75,-0.263,1.088,-0.025
41.76,-0.225,0.962,-0.157
41.77,-0.231,0.313,-0.062
41.78,-0.155,1.394,0.186
41.79,-0.157,0.822,0.024
41.8,-0.302,0.954,-0.158
41.81,-0.26,0.649,-0.044
41.82,-0.072,1.061,0.153
41.83,-0.234,1.08,-0.092
41.84,-0.208,0.575,-0.161
41.85,-0.3,1.617,-0.073
41.86,0.026,0.677,0.158
41.87,-0.304,1.265,0.005
41.88,-0.326,0.396,-0.164
41.89,-0.321,1.692,0.01
41.9,-0.089,0.798,0.15
41.91,-0.173,0.897,-0.018
41.92,-0.325,0.809,-0.203
41.93,-0.217,1.421,0.023
41.94,-0.114,1.031,0.167
41.95,-0.074,0.562,0.02
41.96,-0.488,0.906,-0.163
41.97,-0.114,1.471,0.072
41.98,-0.226,0.893,0.134
41.99,-0.088,0.758,0.018
42.0,-0.521,0.459,-0.194
42.01,-0.155,2.0,0.07
42.02,-0.123,0.516,0.116
42.03,-0.178,1.057,0.004
42.04,-0.502,0.227,-0.153
42.05,-0.094,1.961,0.099
42.06,0.0,0.785,0.101
42.07,-0.086,0.642,-0.052
42.08,-0.523,0.67,-0.196
42.09,-0.062,1.592,0.147
42.1,-0.141,1.192,0.112
42.11,0.03,0.441,-0.034
42.12,-0.568,0.967,-0.184
42.13,-0.006,1.509,0.196
42.14,-0.251,1.121,0.13
42.15,0.025,0.702,-0.037
42.16,-0.467,0.526,-0.18
42.17,-0.057,1.926,0.153
42.18,-0.042,0.763,0.038
42.19,-0.127,1.03,-0.104
42.2,-0.231,0.147,-0.159
42.21,-0.154,1.695,0.073
42.22,-0.184,0.991,-0.01
42.23,-0.087,0.843,-0.155
42.24,-0.312,0.637,-0.17
42.25,-0.059,1.455,0.161
42.26,-0.27,1.312,0.061
42.27,-0.116,0.498,-0.077
42.28,-0.514,0.894,-0.055
42.29,-0.057,0.988,0.224
42.3,-0.326,1.527,0.041
42.31,-0.187,0.464,-0.086
42.32,-0.271,1.055,-0.045
42.33,-0.097,1.127,0.176
42.34,-0.136,0.711,0.007
42.35,-0.426,1.069,-0.169
42.36,-0.302,0.43,-0.021
42.37,-0.158,1.24,0.129
42.38,-0.187,0.892,-0.007
42.39,-0.307,0.885,-0.197
42.4,-0.162,1.409,0.036
42.41,-0.2,0.831,0.12
42.42,-0.101,0.798,-0.026
42.43,-0.315,0.491,-0.165
42.44,-0.157,1.918,0.095
42.45,0.049,0.713,0.135
42.46,-0.148,0.954,-0.042
42.47,-0.417,0.133,-0.226
42.48,-0.143,2.0,0.063
42.49,-0.283,0.525,-0.022
42.5,-0.153,0.784,-0.013
42.51,-0.483,0.561,-0.197
42.52,-0.095,1.635,0.207
42.53,-0.23,1.136,0.146
42.54,-0.005,0.327,-0.024
42.55,-0.569,0.901,-0.115
42.56,-0.013,1.535,0.13
42.57,-0.183,1.218,0.1
42.58,-0.019,0.677,-0.099
42.59,-0.317,0.463,-0.173
42.6,0.028,1.882,0.121
42.61,-0.023,0.753,0.047
42.62,-0.131,1.024,-0.12
42.63,-0.448,0.185,-0.086
42.64,-0.258,1.781,0.238
42.65,-0.294,0.975,0.055
42.66,-0.151,0.807,-0.079
42.67,-0.375,0.59,-0.059
42.68,-0.045,1.091,0.109
42.69,-0.328,1.326,-0.015
42.7,-0.079,0.527,-0.164
42.71,-0.333,1.016,-0.129
42.72,-0.211,1.089,-0.054
42.73,-0.087,1.039,0.144
42.74,-0.257,0.852,-0.021
42.75,-0.321,0.659,-0.147
42.76,-0.342,1.704,0.008
42.77,-0.069,0.653,0.176
42.78,-0.347,1.174,0.027
42.79,-0.271,0.301,-0.181
42.8,-0.4,1.879,0.066
42.81,-0.091,0.597,0.128
42.82,-0.141,0.952,-0.045
42.83,-0.411,0.569,-0.284
42.84,0.035,1.606,0.043
42.85,-0.121,1.073,0.074
42.86,0.081,0.386,-0.014
42.87,-0.609,0.932,-0.183
42.88,0.036,1.551,0.1
42.89,-0.169,1.063,0.078
42.9,-0.021,0.62,-0.017
42.91,-0.54,0.506,-0.103
42.92,-0.11,1.935,0.18
42.93,-0.088,0.648,0.148
42.94,-0.084,0.949,-0.074
42.95,-0.354,0.208,-0.167
42.96,-0.178,1.898,0.099
42.97,-0.067,0.818,0.038
42.98,-0.081,0.812,-0.098
42.99,-0.322,0.551,-0.166
43.0,-0.087,1.548,0.156
43.01,-0.24,1.244,0.056
43.02,-0.03,0.522,-0.109
43.03,-0.496,0.908,-0.077
43.04,-0.068,1.371,0.204
43.05,-0.342,1.385,0.023
43.06,-0.037,0.585,-0.066
43.07,-0.403,0.581,-0.052
43.08,-0.117,1.36,0.214
43.09,-0.187,0.993,0.019
43.1,-0.386,1.038,-0.105
43.11,-0.229,0.432,0.025
43.12,-0.084,1.201,0.117
43.13,-0.114,0.612,0.024
43.14,-0.341,1.09,-0.21
43.15,-0.249,1.135,-0.019
43.16,-0.177,0.91,0.145
43.17,-0.201,0.926,-0.03
43.18,-0.296,0.516,-0.166
43.19,-0.227,1.854,0.1
43.2,-0.072,0.607,0.165
43.21,-0.223,1.024,0.022
43.22,-0.401,0.268,-0.197
43.23,-0.2,2.0,0.1
43.24,-0.048,0.698,0.124
43.25,-0.107,0.753,-0.013
43.26,-0.511,0.602,-0.224
43.27,-0.032,1.651,0.1
43.28,-0.256,1.027,0.096
43.29,0.052,0.416,-0.019
43.3,-0.577,0.913,-0.168
43.31,0.018,1.556,0.18
43.32,-0.137,1.094,0.104
43.33,0.001,0.583,-0.023
43.34,-0.51,0.528,-0.097
43.35,-0.058,1.877,0.141
43.36,-0.054,0.773,0.093
43.37,-0.121,1.033,-0.045
43.38,-0.313,0.179,-0.138
43.39,-0.174,1.959,0.175
43.4,-0.029,0.803,0.041
43.41,-0.171,0.818,-0.1
43.42,-0.353,0.497,-0.162
43.43,-0.149,1.429,0.187
43.44,-0.255,1.34,-0.015
43.45,-0.033,0.398,-0.08
43.46,-0.5,0.945,-0.07
43.47,-0.03,0.941,0.202
43.48,-0.314,1.365,0.019
43.49,-0.22,0.657,-0.162
43.5,-0.369,0.68,-0.033
43.51,-0.074,1.226,0.225
43.52,-0.181,0.869,-0.016
43.53,-0.281,1.031,-0.115
43.54,-0.312,0.659,-0.01
43.55,-0.108,1.196,0.2
43.56,-0.292,0.819,-0.041
43.57,-0.25,0.803,-0.095
43.58,-0.273,1.378,-0.096
43.59,0.004,0.846,0.084
43.6,-0.273,1.103,-0.009
43.61,-0.274,0.466,-0.174
43.62,-0.4,1.781,0.028
43.63,-0.068,0.566,0.141
43.64,-0.177,1.2,-0.019
43.65,-0.285,0.36,-0.243
43.66,-0.129,1.771,0.079
43.67,-0.098,0.895,0.046
43.68,-0.01,0.57,-0.057
43.69,-0.504,0.787,-0.242
43.7,0.077,1.506,0.037
43.71,-0.11,1.182,0.062
43.72,0.064,0.379,-0.02
43.73,-0.513,0.823,-0.216
43.74,-0.005,1.691,0.125
43.75,-0.205,0.827,0.061
43.76,-0.061,0.758,-0.083
43.77,-0.348,0.332,-0.18
43.78,-0.141,2.0,0.117
43.79,0.044,0.649,0.08
43.8,-0.163,0.927,-0.037
43.81,-0.28,0.301,-0.103
43.82,-0.263,1.682,0.14
43.83,-0.123,0.988,0.068
43.84,-0.107,0.705,-0.102
43.85,-0.403,0.777,-0.138
43.86,0.002,1.422,0.185
43.87,-0.224,1.404,0.043
43.88,-0.031,0.436,-0.088
43.89,-0.458,0.811,-0.172
43.9,-0.071,1.354,0.198
43.91,-0.301,1.246,0.001
43.92,-0.153,0.788,-0.069
43.93,-0.38,0.779,0.0
43.94,-0.026,1.087,0.207
43.95,-0.207,0.871,-0.032
43.96,-0.346,0.979,-0.167
43.97,-0.238,0.557,0.002
43.98,-0.117,1.244,0.171
43.99,-0.143,0.796,0.025
44.0,-0.367,0.844,-0.156
44.01,-0.257,1.454,0.017
44.02,-0.134,0.738,0.122
44.03,-0.209,1.106,-0.012
44.04,-0.308,0.349,-0.153
44.05,-0.256,1.906,0.063
44.06,0.042,0.686,0.139
44.07,-0.232,1.006,0.04
44.08,-0.441,0.426,-0.194
44.09,-0.284,1.875,0.107
44.1,-0.154,0.756,0.099
44.11,-0.058,0.682,-0.006
44.12,-0.532,0.797,-0.209
44.13,0.021,1.496,0.071
44.14,-0.212,1.146,0.075
44.15,0.037,0.388,-0.029
44.16,-0.54,0.753,-0.157
44.17,-0.0,1.705,0.106
44.18,-0.126,0.866,0.061
44.19,0.021,0.778,-0.045
44.2,-0.453,0.315,-0.134
44.21,-0.155,2.0,0.212
44.22,-0.096,0.6,0.106
44.23,-0.16,1.019,-0.075
44.24,-0.274,0.299,-0.185
44.25,-0.052,1.937,0.131
44.26,-0.058,0.988,0.015
44.27,-0.073,0.588,-0.086
44.28,-0.365,0.718,-0.154
44.29,-0.141,1.403,0.121
44.3,-0.26,1.417,-0.005
44.31,-0.103,0.424,-0.09
44.32,-0.408,0.777,-0.088
44.33,-0.178,1.271,0.179
44.34,-0.259,1.212,0.01
44.35,-0.154,0.87,-0.125
44.36,-0.448,0.341,-0.019
44.37,-0.174,1.506,0.251
44.38,-0.29,0.894,0.035
44.39,-0.193,1.036,-0.098
44.4,-0.393,0.503,-0.004
44.41,-0.02,1.167,0.146
44.42,-0.281,1.032,-0.082
44.43,-0.22,0.643,-0.156
44.44,-0.312,1.238,-0.071
44.45,0.089,0.736,0.142
44.46,-0.255,1.347,-0.002
44.47,-0.225,0.402,-0.174
44.48,-0.38,1.636,0.016
44.49,-0.069,0.645,0.158
44.5,-0.257,1.007,-0.019
44.51,-0.285,0.64,-0.151
44.52,-0.251,1.508,0.062
44.53,-0.09,1.023,0.15
44.54,-0.034,0.51,0.023
44.55,-0.473,0.925,-0.195
44.56,-0.131,1.469,0.108
44.57,-0.236,1.008,0.09
44.58,-0.055,0.64,0.01
44.59,-0.468,0.602,-0.166
44.6,-0.124,1.905,0.09
44.61,-0.194,0.618,0.085
44.62,-0.116,1.005,0.004
44.63,-0.402,0.215,-0.134
44.64,-0.189,2.0,0.138
44.65,0.015,0.712,0.103
44.66,-0.12,0.834,-0.047
44.67,-0.388,0.494,-0.128
44.68,-0.075,1.678,0.216
44.69,-0.119,1.15,0.073
44.7,-0.011,0.528,-0.055
44.71,-0.416,0.931,-0.199
44.72,0.006,1.529,0.228
44.73,-0.271,1.233,0.003
44.74,-0.028,0.373,-0.013
44.75,-0.474,0.845,-0.029
44.76,0.034,1.128,0.179
44.77,-0.329,1.186,0.013
44.78,-0.234,0.872,-0.126
44.79,-0.33,0.477,0.003
44.8,-0.051,1.316,0.195
44.81,-0.132,0.72,0.028
44.82,-0.408,1.071,-0.164
44.83,-0.378,0.369,-0.031
44.84,-0.049,1.227,0.182
44.85,-0.265,1.084,-0.077
44.86,-0.14,0.582,-0.139
44.87,-0.285,1.703,-0.073
44.88,0.048,0.682,0.141
44.89,-0.255,1.197,-0.0
44.9,-0.341,0.407,-0.159
44.91,-0.385,1.904,0.088
44.92,-0.112,0.705,0.162
44.93,-0.131,0.978,-0.012
44.94,-0.422,0.613,-0.275
44.95,-0.154,1.553,0.081
44.96,-0.256,0.958,0.091
44.97,-0.028,0.522,0.003
44.98,-0.458,0.88,-0.149
44.99,0.042,1.48,-0.001
45.0,-0.035,1.114,0.117
45.01,0.093,0.575,-0.041
45.02,-0.62,0.539,-0.144
45.03,0.042,1.858,0.139
45.04,-0.203,0.741,0.055
45.05,-0.095,0.914,-0.057
45.06,-0.417,0.222,-0.169
45.07,-0.142,2.0,0.21
45.08,-0.094,0.622,0.131
45.09,-0.115,0.793,-0.072
45.1,-0.363,0.447,-0.176
45.11,-0.092,1.608,0.119
45.12,-0.173,1.204,0.036
45.13,0.029,0.526,-0.077
45.14,-0.457,0.857,-0.123
45.15,-0.053,1.366,0.17
45.16,-0.239,1.356,0.077
45.17,-0.166,0.555,-0.094
45.18,-0.411,0.611,-0.094
45.19,-0.086,1.627,0.149
45.2,-0.238,1.012,0.008
45.21,-0.087,0.971,-0.078
45.22,-0.342,0.213,-0.057
45.23,-0.133,1.494,0.197
45.24,-0.175,0.885,-0.022
45.25,-0.268,0.99,-0.142
45.26,-0.203,0.78,-0.069
45.27,-0.107,0.99,0.167
45.28,-0.22,1.115,-0.037
45.29,-0.233,0.497,-0.166
45.3,-0.334,1.498,-0.047
45.31,-0.037,0.653,0.123
45.32,-0.29,1.256,-0.037
45.33,-0.221,0.411,-0.166
45.34,-0.289,1.698,-0.031
45.35,0.033,0.841,0.118
45.36,-0.119,0.693,-0.027
45.37,-0.46,0.942,-0.199
45.38,-0.218,1.444,0.061
45.39,-0.211,1.078,0.166
45.4,0.011,0.553,0.007
45.41,-0.545,0.813,-0.232
45.42,0.012,1.613,0.051
45.43,-0.117,0.92,0.092
45.44,-0.042,0.729,-0.047
45.45,-0.385,0.313,-0.16
45.46,-0.125,2.0,0.119
45.47,0.104,0.622,0.117
45.48,-0.162,0.943,-0.059
45.49,-0.46,0.246,-0.166
45.5,-0.179,1.913,0.184
45.51,-0.167,0.807,0.121
45.52,-0.051,0.636,-0.057
45.53,-0.507,0.772,-0.141
45.54,-0.015,1.547,0.187
45.55,-0.234,1.226,0.049
45.56,0.089,0.471,-0.059
45.57,-0.447,0.883,-0.131
45.58,-0.123,1.129,0.201
45.59,-0.31,1.351,0.009
45.6,-0.151,0.563,-0.078
45.61,-0.404,0.609,-0.043
45.62,-0.204,1.278,0.226
45.63,-0.23,1.005,0.051
45.64,-0.258,0.96,-0.091
45.65,-0.293,0.29,-0.037
45.66,-0.136,1.379,0.145
45.67,-0.177,0.931,-0.015
45.68,-0.295,0.9,-0.151
45.69,-0.127,1.01,-0.095
45.7,-0.036,0.942,0.134
45.71,-0.211,1.094,-0.068
45.72,-0.191,0.533,-0.214
45.73,-0.349,1.506,0.015
45.74,-0.056,0.615,0.134
45.75,-0.324,1.22,-0.015
45.76,-0.208,0.426,-0.157
45.77,-0.394,1.687,0.069
45.78,-0.115,0.753,0.122
45.79,-0.148,0.762,0.014
45.8,-0.355,0.842,-0.193
45.81,-0.055,1.458,0.073
45.82,-0.134,1.147,0.175
45.83,0.001,0.425,0.0
45.84,-0.534,0.823,-0.173
45.85,-0.052,1.678,0.07
45.86,-0.158,0.842,0.064
45.87,-0.052,0.783,-0.043
45.88,-0.532,0.348,-0.169
45.89,-0.123,2.0,0.172
45.9,-0.051,0.543,0.167
45.91,-0.168,0.97,-0.024
45.92,-0.441,0.241,-0.12
45.93,-0.121,1.858,0.157
45.94,-0.124,0.963,0.031
45.95,-0.075,0.656,-0.052
45.96,-0.427,0.747,-0.166
45.97,0.049,1.548,0.138
45.98,-0.269,1.284,0.014
45.99,-0.008,0.402,-0.065
46.0,-0.499,0.823,-0.133
46.01,-0.056,1.124,0.153
46.02,-0.292,1.252,-0.009
46.03,-0.201,0.751,-0.108
46.04,-0.37,0.394,-0.07
46.05,-0.05,1.421,0.218
46.06,-0.219,0.808,0.022
46.07,-0.277,1.098,-0.101
46.08,-0.371,0.33,-0.009
46.09,-0.05,1.279,0.148
46.1,-0.285,1.044,-0.053
46.11,-0.203,0.69,-0.139
46.12,-0.242,1.439,-0.09
46.13,-0.058,0.7,0.133
46.14,-0.288,1.242,-0.007
46.15,-0.29,0.369,-0.134
46.16,-0.388,1.846,0.067
46.17,-0.083,0.654,0.166
46.18,-0.118,0.986,-0.019
46.19,-0.387,0.532,-0.281
46.2,-0.153,1.602,0.042
46.21,-0.212,0.913,0.098
46.22,-0.061,0.518,0.023
46.23,-0.488,0.914,-0.183
46.24,-0.013,1.535,0.022
46.25,-0.104,1.058,0.133
46.26,0.006,0.553,-0.001
46.27,-0.553,0.58,-0.139
46.28,-0.051,1.885,0.141
46.29,-0.108,0.699,0.122
46.3,-0.059,0.914,-0.017
46.31,-0.426,0.213,-0.106
46.32,-0.134,2.0,0.213
46.33,-0.118,0.65,0.117
46.34,-0.142,0.818,-0.042
46.35,-0.33,0.223,-0.118
46.36,-0.148,1.696,0.159
46.37,-0.277,1.038,0.053
46.38,-0.076,0.688,-0.138
46.39,-0.359,0.698,-0.101
46.4,-0.036,1.105,0.193
46.41,-0.338,1.506,-0.012
46.42,-0.067,0.43,-0.135
46.43,-0.406,0.839,-0.063
46.44,-0.08,1.064,0.204
46.45,-0.29,1.298,-0.061
46.46,-0.161,0.763,-0.133
46.47,-0.263,0.887,-0.047
46.48,-0.079,1.165,0.16
46.49,-0.212,0.729,-0.045
46.5,-0.409,1.043,-0.159
46.51,-0.105,1.129,0.002
46.52,-0.15,1.025,0.169
46.53,-0.145,0.822,-0.043
46.54,-0.408,0.693,-0.206
46.55,-0.218,1.72,0.041
46.56,-0.145,0.598,0.155
46.57,-0.226,1.146,-0.017
46.58,-0.34,0.195,-0.143
46.59,-0.145,2.0,0.133
46.6,0.013,0.749,0.173
46.61,-0.133,0.697,-0.014
46.62,-0.49,0.54,-0.236
46.63,-0.03,1.748,0.071
46.64,-0.104,1.082,0.092
46.65,-0.008,0.435,-0.023
46.66,-0.566,0.952,-0.185
46.67,-0.042,1.537,0.182
46.68,-0.204,1.152,0.128
46.69,0.03,0.603,-0.001
46.7,-0.454,0.634,-0.136
46.71,-0.064,1.855,0.088
46.72,-0.072,0.783,0.057
46.73,-0.058,1.027,-0.086
46.74,-0.284,0.13,-0.165
46.75,-0.215,1.791,0.154
46.76,-0.113,0.817,0.033
46.77,-0.123,0.893,-0.095
46.78,-0.417,0.49,-0.126
46.79,-0.161,1.362,0.208
46.8,-0.3,1.304,-0.05
46.81,0.012,0.519,-0.137
46.82,-0.386,0.875,-0.092
46.83,0.047,0.973,0.199
46.84,-0.413,1.461,-0.052
46.85,-0.084,0.561,-0.114
46.86,-0.351,0.865,-0.029
46.87,-0.06,1.079,0.205
46.88,-0.223,0.894,-0.004
46.89,-0.415,0.939,-0.166
46.9,-0.158,0.844,-0.019
46.91,-0.176,1.207,0.183
46.92,-0.218,0.687,0.016
46.93,-0.347,0.89,-0.183
46.94,-0.166,1.428,-0.065
46.95,-0.123,0.808,0.152
46.96,-0.257,1.075,0.008
46.97,-0.316,0.436,-0.171
46.98,-0.353,1.896,0.095
46.99,-0.09,0.599,0.195
47.0,-0.311,1.019,0.059
47.01,-0.444,0.36,-0.154
47.02,-0.251,1.87,0.058
47.03,-0.131,0.833,0.132
47.04,-0.105,0.627,-0.019
47.05,-0.576,0.777,-0.225
47.06,-0.034,1.537,0.082
47.07,-0.237,1.147,0.13
47.08,-0.018,0.416,0.027
47.09,-0.574,0.847,-0.14
47.1,0.003,1.638,0.116
47.11,-0.063,0.907,0.081
47.12,-0.036,0.763,-0.105
47.13,-0.42,0.323,-0.158
47.14,-0.118,1.994,0.05
47.15,-0.008,0.667,0.103
47.16,-0.119,1.067,-0.082
47.17,-0.31,0.161,-0.128
47.18,-0.085,1.915,0.137
47.19,-0.103,0.817,0.008
47.2,-0.137,0.859,-0.1
47.21,-0.385,0.485,-0.161
47.22,-0.133,1.433,0.195
47.23,-0.365,1.288,-0.012
47.24,0.0,0.454,-0.068
47.25,-0.433,0.981,-0.059
47.26,0.018,0.863,0.176
47.27,-0.311,1.368,-0.02
47.28,-0.229,0.61,-0.155
47.29,-0.281,0.695,-0.005
47.3,-0.08,1.175,0.225
47.31,-0.136,0.962,-0.031
47.32,-0.32,0.922,-0.177
47.33,-0.232,0.601,-0.047
47.34,-0.117,1.188,0.143
47.35,-0.168,0.783,-0.056
47.36,-0.31,0.858,-0.143
47.37,-0.178,1.359,0.009
47.38,-0.066,0.889,0.167
47.39,-0.173,0.937,-0.029
47.4,-0.407,0.453,-0.187
47.41,-0.29,1.73,0.04
47.42,-0.164,0.619,0.129
47.43,-0.254,1.258,-0.012
47.44,-0.301,0.382,-0.202
47.45,-0.211,1.772,0.067
47.46,-0.092,0.802,0.162
47.47,-0.106,0.62,0.018
47.48,-0.506,0.803,-0.204
47.49,-0.018,1.46,0.089
47.5,-0.022,1.25,0.14
47.51,0.031,0.419,0.005
47.52,-0.54,0.857,-0.237
47.53,-0.083,1.627,0.136
47.54,-0.172,0.843,0.07
47.55,-0.117,0.812,-0.049
47.56,-0.483,0.3,-0.197
47.57,-0.131,2.0,0.155
47.58,-0.043,0.612,0.156
47.59,-0.18,0.891,0.049
47.6,-0.437,0.228,-0.103
47.61,-0.225,1.743,0.135
47.62,-0.165,0.895,0.101
47.63,0.018,0.721,-0.076
47.64,-0.472,0.765,-0.161
47.65,0.095,1.452,0.204
47.66,-0.195,1.302,0.036
47.67,0.034,0.461,-0.065
47.68,-0.478,0.877,-0.178
47.69,-0.028,1.474,0.152
47.7,-0.331,1.183,0.017
47.71,-0.026,0.676,-0.1
47.72,-0.364,0.396,-0.087
47.73,-0.161,1.51,0.159
47.74,-0.216,0.78,0.039
47.75,-0.268,1.078,-0.117
47.76,-0.225,0.275,-0.076
47.77,-0.208,1.436,0.254
47.78,-0.165,1.02,0.015
47.79,-0.212,0.721,-0.148
47.8,-0.335,0.744,-0.063
47.81,0.016,0.989,0.189
47.82,-0.285,1.539,-0.009
47.83,-0.125,0.288,-0.117
47.84,-0.233,1.53,-0.127
47.85,0.05,0.822,0.097
47.86,-0.262,1.027,-0.036
47.87,-0.332,0.743,-0.143
47.88,-0.244,1.319,-0.051
47.89,-0.097,1.094,0.131
47.9,-0.161,0.616,-0.028
47.91,-0.454,0.939,-0.185
47.92,-0.24,0.91,0.009
47.93,-0.232,1.044,0.119
47.94,-0.158,0.907,-0.016
47.95,-0.337,0.704,-0.187
47.96,-0.235,1.665,0.07
47.97,-0.094,0.769,0.122
47.98,-0.127,0.846,0.002
47.99,-0.4,0.401,-0.157
48.0,-0.132,2.0,0.095
48.01,0.04,0.702,0.145
48.02,-0.156,0.964,-0.052
48.03,-0.371,0.248,-0.206
48.04,-0.079,1.987,0.097
48.05,-0.076,0.84,0.092
48.06,-0.116,0.571,-0.048
48.07,-0.445,0.747,-0.2
48.08,-0.062,1.569,0.131
48.09,-0.08,1.219,0.097
48.1,0.005,0.443,-0.005
48.11,-0.455,0.87,-0.168
48.12,-0.141,1.542,0.128
48.13,-0.143,1.069,0.083
48.14,-0.072,0.859,-0.067
48.15,-0.324,0.338,-0.115
48.16,-0.168,1.814,0.124
48.17,-0.018,0.771,0.012
48.18,-0.077,1.075,-0.12
48.19,-0.398,0.252,-0.131
48.2,-0.209,1.625,0.221
48.21,-0.298,1.014,0.051
48.22,-0.164,0.662,-0.041
48.23,-0.409,0.735,-0.031
48.24,-0.053,0.997,0.229
48.25,-0.398,1.359,-0.046
48.26,-0.025,0.507,-0.135
48.27,-0.376,1.028,-0.075
48.28,0.101,0.892,0.153
48.29,-0.298,1.097,-0.025
48.3,-0.295,0.749,-0.187
48.31,-0.306,0.803,-0.04
48.32,-0.157,1.177,0.187
48.33,-0.166,0.693,-0.005
48.34,-0.333,0.963,-0.117
48.35,-0.228,1.242,-0.039
48.36,-0.101,1.042,0.177
48.37,-0.181,0.73,-0.015
48.38,-0.417,0.679,-0.141
48.39,-0.285,1.648,-0.007
48.4,-0.13,0.7,0.13
48.41,-0.267,1.168,-0.013
48.42,-0.262,0.333,-0.232
48.43,-0.302,1.91,0.075
48.44,-0.122,0.559,0.15
48.45,-0.192,1.015,0.053
48.46,-0.357,0.513,-0.212
