t,ax,ay,az
0.0,-0.202,1.291,0.158
0.01,0.021,0.522,-0.15
0.02,-0.271,0.799,-0.294
0.03,0.115,1.493,-0.052
0.04,-0.09,1.23,0.091
0.05,-0.196,1.039,-0.138
0.06,-0.396,0.647,-0.208
0.07,-0.064,1.127,0.063
0.08,-0.191,1.358,-0.01
0.09,-0.023,0.628,-0.237
0.1,-0.404,0.894,-0.312
0.11,-0.054,0.981,0.011
0.12,-0.291,1.223,0.041
0.13,-0.081,0.808,-0.148
0.14,-0.366,0.555,-0.252
0.15,-0.195,1.44,0.099
0.16,-0.168,0.802,0.101
0.17,-0.24,1.269,-0.124
0.18,-0.265,0.266,-0.196
0.19,-0.28,1.513,0.139
0.2,-0.124,0.937,0.072
0.21,-0.19,0.981,-0.128
0.22,-0.399,0.668,-0.227
0.23,-0.125,1.163,0.137
0.24,-0.17,1.339,0.048
0.25,-0.058,0.666,-0.097
0.26,-0.519,0.947,-0.197
0.27,-0.157,0.967,0.219
0.28,-0.218,1.158,0.113
0.29,-0.198,0.882,-0.081
0.3,-0.394,0.477,-0.228
0.31,-0.185,1.383,0.153
0.32,-0.146,0.854,0.13
0.33,-0.34,1.227,-0.075
0.34,-0.3,0.275,-0.19
0.35,-0.223,1.5,0.113
0.36,-0.095,0.914,0.103
0.37,-0.174,1.041,-0.082
0.38,-0.433,0.724,-0.213
0.39,-0.117,1.053,0.183
0.4,-0.308,1.308,0.079
0.41,-0.126,0.63,-0.105
0.42,-0.463,0.899,-0.23
0.43,-0.114,0.996,0.115
0.44,-0.189,1.182,0.084
0.45,-0.213,0.84,-0.131
0.46,-0.417,0.479,-0.221
0.47,-0.263,1.387,0.081
0.48,-0.059,0.889,0.133
0.49,-0.312,1.144,-0.112
0.5,-0.287,0.309,-0.196
0.51,-0.317,1.457,0.076
0.52,-0.061,0.871,0.058
0.53,-0.164,0.92,-0.186
0.54,-0.393,0.741,-0.259
0.55,-0.264,1.12,0.21
0.56,-0.23,1.159,0.118
0.57,-0.114,0.715,-0.164
0.58,-0.438,0.883,-0.241
0.59,-0.114,0.883,0.202
0.6,-0.249,1.352,0.159
0.61,-0.115,0.625,-0.109
0.62,-0.385,0.718,-0.23
0.63,-0.185,1.156,0.161
0.64,-0.178,0.89,0.098
0.65,-0.271,1.076,-0.131
0.66,-0.322,0.31,-0.243
0.67,-0.257,1.379,0.168
0.68,-0.066,0.748,0.103
0.69,-0.178,1.162,-0.138
0.7,-0.331,0.473,-0.244
0.71,-0.184,1.248,0.164
0.72,-0.147,1.19,0.073
0.73,-0.05,0.707,-0.155
0.74,-0.429,0.885,-0.199
0.75,-0.116,0.925,0.233
0.76,-0.36,1.356,0.135
0.77,-0.11,0.701,-0.095
0.78,-0.427,0.723,-0.219
0.79,-0.166,1.256,0.106
0.8,-0.157,0.987,0.136
0.81,-0.287,1.133,-0.148
0.82,-0.231,0.255,-0.266
0.83,-0.217,1.521,0.073
0.84,0.021,0.965,0.124
0.85,-0.272,1.033,-0.135
0.86,-0.26,0.462,-0.257
0.87,-0.07,1.402,-0.02
0.88,-0.149,1.232,0.081
0.89,-0.063,0.692,-0.112
0.9,-0.404,0.875,-0.213
0.91,-0.138,0.973,0.068
0.92,-0.187,1.435,0.075
0.93,-0.128,0.665,-0.148
0.94,-0.38,0.702,-0.243
0.95,-0.06,1.372,0.055
0.96,-0.043,1.029,0.121
0.97,-0.259,1.129,-0.156
0.98,-0.21,0.249,-0.214
0.99,-0.169,1.684,0.047
1.0,-0.115,0.89,0.101
1.01,-0.176,1.142,-0.135
1.02,-0.242,0.508,-0.294
1.03,-0.033,1.316,0.02
1.04,-0.155,1.258,0.075
1.05,-0.067,0.669,-0.16
1.06,-0.384,0.904,-0.271
1.07,0.08,1.047,0.06
1.08,-0.208,1.391,0.094
1.09,-0.044,0.652,-0.118
1.1,-0.341,0.705,-0.188
1.11,-0.094,1.381,0.063
1.12,-0.171,1.029,0.179
1.13,-0.192,1.052,-0.09
1.14,-0.21,0.274,-0.168
1.15,-0.138,1.639,0.157
1.16,-0.074,0.897,0.199
1.17,-0.258,1.016,-0.033
1.18,-0.267,0.553,-0.155
1.19,-0.134,1.408,0.129
1.2,-0.071,1.298,0.127
1.21,-0.005,0.572,-0.101
1.22,-0.351,0.977,-0.233
1.23,0.052,1.208,0.039
1.24,-0.218,1.43,0.123
1.25,0.02,0.665,-0.082
1.26,-0.307,0.621,-0.201
1.27,-0.018,1.536,0.085
1.28,-0.128,1.064,0.195
1.29,-0.156,0.955,-0.049
1.3,-0.274,0.321,-0.151
1.31,-0.196,1.85,0.15
1.32,-0.092,0.969,0.248
1.33,-0.189,0.867,-0.013
1.34,-0.241,0.594,-0.193
1.35,-0.087,1.671,0.13
1.36,-0.069,1.152,0.099
1.37,-0.086,0.752,-0.085
1.38,-0.296,0.819,-0.2
1.39,-0.037,1.201,0.093
1.4,-0.151,1.5,0.134
1.41,-0.057,0.491,-0.069
1.42,-0.373,0.892,-0.201
1.43,-0.02,1.366,0.139
1.44,-0.214,1.242,0.253
1.45,-0.156,0.869,-0.032
1.46,-0.359,0.38,-0.151
1.47,-0.085,1.922,0.14
1.48,-0.084,0.977,0.183
1.49,-0.197,0.976,0.033
1.5,-0.24,0.408,-0.174
1.51,-0.131,1.899,0.077
1.52,-0.135,1.148,0.141
1.53,-0.078,0.66,-0.03
1.54,-0.373,0.832,-0.186
1.55,0.015,1.557,0.075
1.56,-0.196,1.476,0.147
1.57,0.086,0.403,-0.055
1.58,-0.45,0.899,-0.227
1.59,-0.003,1.587,0.041
1.6,-0.236,1.239,0.192
1.61,-0.034,0.762,-0.077
1.62,-0.212,0.4,-0.205
1.63,-0.139,1.898,0.057
1.64,0.017,0.812,0.097
1.65,-0.147,1.071,-0.022
1.66,-0.285,0.39,-0.152
1.67,-0.131,2.0,0.082
1.68,-0.215,1.171,0.135
1.69,-0.003,0.524,-0.053
1.7,-0.465,0.898,-0.1
1.71,-0.15,1.641,0.103
1.72,-0.255,1.424,0.207
1.73,0.054,0.382,-0.015
1.74,-0.449,0.839,-0.187
1.75,-0.013,1.685,0.066
1.76,-0.18,1.231,0.113
1.77,-0.042,0.724,-0.074
1.78,-0.279,0.403,-0.16
1.79,-0.24,2.0,0.127
1.8,-0.143,0.866,0.221
1.81,-0.09,0.886,0.005
1.82,-0.407,0.44,-0.15
1.83,-0.115,1.909,-0.024
1.84,-0.131,1.127,0.124
1.85,-0.045,0.53,0.004
1.86,-0.39,0.856,-0.183
1.87,0.025,1.69,0.027
1.88,-0.357,1.466,0.168
1.89,0.054,0.337,-0.019
1.9,-0.431,0.876,-0.169
1.91,-0.121,1.816,0.054
1.92,-0.268,1.07,0.172
1.93,-0.019,0.768,-0.016
1.94,-0.403,0.374,-0.104
1.95,-0.281,2.0,0.115
1.96,-0.137,0.863,0.142
1.97,-0.058,0.849,-0.004
1.98,-0.328,0.434,-0.16
1.99,-0.288,2.0,0.085
2.0,-0.16,1.105,0.134
2.01,0.04,0.421,-0.073
2.02,-0.353,0.89,-0.196
2.03,-0.117,1.657,0.037
2.04,-0.267,1.371,0.202
2.05,0.065,0.363,-0.035
2.06,-0.462,0.805,-0.25
2.07,0.05,1.767,-0.071
2.08,-0.195,1.131,0.126
2.09,-0.005,0.767,-0.032
2.1,-0.321,0.373,-0.151
2.11,-0.246,2.0,0.059
2.12,-0.048,0.871,0.186
2.13,-0.167,0.857,-0.024
2.14,-0.326,0.46,-0.143
2.15,-0.205,1.977,0.071
2.16,-0.226,1.098,0.174
2.17,-0.047,0.923,-0.061
2.18,-0.306,0.651,-0.208
2.19,-0.046,1.369,0.131
2.2,-0.097,1.432,0.134
2.21,0.04,0.553,-0.109
2.22,-0.337,0.911,-0.232
2.23,0.11,1.472,0.022
2.24,-0.108,1.4,0.125
2.25,-0.024,0.72,-0.109
2.26,-0.38,0.564,-0.222
2.27,-0.048,1.728,0.037
2.28,-0.079,0.987,0.181
2.29,-0.146,0.974,-0.074
2.3,-0.286,0.326,-0.185
2.31,-0.148,1.736,0.098
2.32,-0.109,0.93,0.156
2.33,-0.143,1.02,-0.062
2.34,-0.29,0.598,-0.176
2.35,-0.007,1.489,0.16
2.36,-0.174,1.558,0.183
2.37,0.038,0.434,-0.091
2.38,-0.394,0.974,-0.238
2.39,0.068,1.378,0.029
2.4,-0.124,1.406,0.117
2.41,0.008,0.733,-0.17
2.42,-0.239,0.542,-0.234
2.43,0.01,1.626,-0.014
2.44,-0.084,0.891,0.115
2.45,-0.182,1.225,-0.102
2.46,-0.209,0.267,-0.194
2.47,-0.158,1.622,0.112
2.48,-0.046,0.989,0.132
2.49,-0.195,0.954,-0.113
2.5,-0.31,0.692,-0.226
2.51,-0.065,1.2,0.098
2.52,-0.195,1.442,0.165
2.53,-0.015,0.544,-0.157
2.54,-0.334,0.939,-0.26
2.55,0.083,1.194,-0.025
2.56,-0.174,1.264,0.104
2.57,-0.07,0.909,-0.106
2.58,-0.339,0.542,-0.197
2.59,-0.06,1.54,0.032
2.6,-0.022,0.93,0.143
2.61,-0.189,1.176,-0.137
2.62,-0.175,0.286,-0.275
2.63,-0.109,1.61,0.065
2.64,-0.035,1.045,0.119
2.65,-0.118,0.897,-0.153
2.66,-0.211,0.669,-0.263
2.67,0.018,1.197,0.047
2.68,-0.107,1.428,0.096
2.69,-0.03,0.574,-0.111
2.7,-0.405,0.88,-0.238
2.71,0.109,1.196,0.056
2.72,-0.223,1.439,0.178
2.73,-0.056,0.824,-0.065
2.74,-0.383,0.5,-0.148
2.75,-0.105,1.538,0.094
2.76,-0.128,1.04,0.173
2.77,-0.253,1.081,-0.083
2.78,-0.221,0.302,-0.175
2.79,-0.122,1.633,0.098
2.8,-0.104,0.943,0.137
2.81,-0.127,0.98,-0.089
2.82,-0.271,0.703,-0.189
2.83,-0.051,1.194,0.129
2.84,-0.193,1.434,0.134
2.85,-0.042,0.551,-0.138
2.86,-0.271,0.897,-0.294
2.87,0.142,1.1,0.003
2.88,-0.166,1.323,0.074
2.89,-0.051,0.859,-0.123
2.9,-0.322,0.526,-0.251
2.91,0.034,1.609,0.023
2.92,-0.089,0.921,0.102
2.93,-0.197,1.213,-0.065
2.94,-0.222,0.279,-0.203
2.95,-0.115,1.576,0.039
2.96,-0.101,0.961,0.104
2.97,-0.222,0.982,-0.103
2.98,-0.267,0.668,-0.185
2.99,-0.242,1.22,0.189
3.0,-0.192,1.167,0.179
3.01,-0.134,0.68,-0.118
3.02,-0.515,0.912,-0.17
3.03,-0.066,0.946,0.162
3.04,-0.248,1.425,0.098
3.05,-0.056,0.698,-0.079
3.06,-0.448,0.719,-0.095
3.07,-0.227,1.188,0.206
3.08,-0.177,0.953,0.179
3.09,-0.162,1.152,-0.08
3.1,-0.385,0.314,-0.17
3.11,-0.24,1.392,0.239
3.12,-0.124,0.842,0.206
3.13,-0.209,1.102,-0.092
3.14,-0.354,0.483,-0.161
3.15,-0.185,1.126,0.254
3.16,-0.179,1.216,0.113
3.17,-0.033,0.701,-0.099
3.18,-0.462,0.899,-0.146
3.19,-0.062,0.815,0.26
3.2,-0.187,1.341,0.107
3.21,-0.167,0.617,-0.074
3.22,-0.447,0.71,-0.156
3.23,-0.172,1.085,0.274
3.24,-0.16,0.971,0.14
3.25,-0.266,1.091,-0.059
3.26,-0.296,0.313,-0.159
3.27,-0.274,1.312,0.266
3.28,-0.073,0.835,0.148
3.29,-0.21,1.077,-0.146
3.3,-0.281,0.493,-0.2
3.31,-0.132,1.055,0.243
3.32,-0.205,1.201,0.129
3.33,-0.121,0.553,-0.074
3.34,-0.491,0.921,-0.126
3.35,-0.036,0.828,0.265
3.36,-0.357,1.249,0.141
3.37,-0.135,0.672,-0.039
3.38,-0.432,0.666,-0.208
3.39,-0.088,1.074,0.277
3.4,-0.102,0.866,0.015
3.41,-0.198,1.111,-0.242
3.42,-0.228,0.318,-0.253
3.43,-0.141,1.387,0.199
3.44,-0.112,0.726,0.118
3.45,-0.138,1.121,-0.112
3.46,-0.352,0.537,-0.248
3.47,-0.066,1.055,0.22
3.48,-0.209,1.183,0.084
3.49,-0.035,0.624,-0.085
3.5,-0.552,0.94,-0.138
3.51,-0.028,0.76,0.298
3.52,-0.347,1.306,0.109
3.53,-0.198,0.6,-0.08
3.54,-0.446,0.653,-0.158
3.55,-0.237,1.024,0.285
3.56,-0.175,0.935,0.149
3.57,-0.267,1.075,-0.059
3.58,-0.292,0.319,-0.152
3.59,-0.242,1.355,0.3
3.6,-0.133,0.779,0.108
3.61,-0.212,1.016,-0.092
3.62,-0.35,0.589,-0.146
3.63,-0.166,1.015,0.235
3.64,-0.23,1.176,0.072
3.65,-0.101,0.62,-0.104
3.66,-0.509,0.909,-0.163
3.67,-0.073,0.761,0.31
3.68,-0.322,1.294,0.126
3.69,-0.14,0.668,-0.053
3.7,-0.473,0.675,-0.201
3.71,-0.18,1.07,0.262
3.72,-0.151,0.866,0.09
3.73,-0.234,1.092,-0.152
3.74,-0.249,0.328,-0.189
3.75,-0.178,1.305,0.284
3.76,-0.074,0.757,0.089
3.77,-0.285,0.992,-0.06
3.78,-0.332,0.567,-0.207
3.79,-0.032,1.058,0.227
3.8,-0.202,0.826,0.011
3.81,-0.18,0.696,-0.156
3.82,-0.528,0.914,-0.231
3.83,0.16,0.924,0.064
3.84,-0.378,1.166,0.118
3.85,-0.232,0.463,-0.11
3.86,-0.626,0.886,-0.279
3.87,0.269,0.915,-0.037
3.88,-0.181,0.933,0.021
3.89,-0.299,0.777,-0.092
3.9,-0.467,0.436,-0.199
3.91,0.018,1.338,0.097
3.92,-0.18,0.585,0.094
3.93,-0.267,1.058,-0.128
3.94,-0.48,0.465,-0.225
3.95,0.084,1.15,0.09
3.96,-0.268,0.88,0.078
3.97,-0.205,0.683,-0.05
3.98,-0.564,0.895,-0.173
3.99,0.095,0.861,0.127
4.0,-0.309,1.223,0.082
4.01,-0.097,0.531,-0.147
4.02,-0.544,0.858,-0.239
4.03,0.011,0.881,0.194
4.04,-0.214,0.978,0.036
4.05,-0.065,0.938,-0.153
4.06,-0.368,0.467,-0.259
4.07,0.069,1.415,0.107
4.08,-0.232,0.553,0.122
4.09,-0.303,1.145,-0.078
4.1,-0.403,0.468,-0.186
4.11,-0.139,1.177,0.265
4.12,-0.299,1.061,0.121
4.13,-0.158,0.731,-0.067
4.14,-0.449,0.839,-0.172
4.15,-0.111,0.788,0.29
4.16,-0.282,1.343,0.127
4.17,-0.049,0.592,-0.083
4.18,-0.483,0.838,-0.222
4.19,-0.047,0.953,0.23
4.2,-0.2,1.003,0.084
4.21,-0.185,0.979,-0.115
4.22,-0.333,0.378,-0.199
4.23,-0.201,1.345,0.225
4.24,-0.094,0.659,0.127
4.25,-0.374,1.118,-0.038
4.26,-0.37,0.374,-0.201
4.27,-0.256,1.165,0.232
4.28,-0.144,1.01,0.111
4.29,-0.097,0.773,-0.119
4.3,-0.455,0.846,-0.232
4.31,-0.011,0.946,0.103
4.32,-0.211,1.287,0.074
4.33,-0.125,0.568,-0.082
4.34,-0.495,0.801,-0.239
4.35,-0.183,0.937,0.195
4.36,-0.111,1.073,0.073
4.37,-0.257,0.99,-0.106
4.38,-0.331,0.354,-0.216
4.39,-0.224,1.456,0.101
4.4,-0.046,0.886,0.177
4.41,-0.292,1.128,-0.085
4.42,-0.245,0.394,-0.232
4.43,-0.172,1.365,0.036
4.44,-0.091,1.083,0.096
4.45,-0.114,0.779,-0.094
4.46,-0.44,0.875,-0.176
4.47,-0.11,0.935,0.114
4.48,-0.226,1.366,0.186
4.49,-0.106,0.571,-0.092
4.5,-0.417,0.832,-0.202
4.51,-0.093,1.187,-0.003
4.52,-0.098,1.057,0.148
4.53,-0.122,1.011,-0.124
4.54,-0.229,0.434,-0.206
4.55,-0.198,1.616,0.081
4.56,-0.041,0.786,0.2
4.57,-0.249,1.148,-0.063
4.58,-0.266,0.493,-0.158
4.59,-0.173,1.404,0.139
4.6,-0.093,1.194,0.174
4.61,-0.199,0.92,-0.154
4.62,-0.302,0.691,-0.28
4.63,-0.106,1.131,0.018
4.64,0.011,1.335,0.038
4.65,-0.081,0.622,-0.078
4.66,-0.429,0.988,-0.2
4.67,-0.163,1.042,0.117
4.68,-0.139,1.279,0.14
4.69,-0.199,0.824,-0.044
4.7,-0.343,0.57,-0.159
4.71,-0.219,1.493,0.02
4.72,0.088,0.865,0.165
4.73,-0.27,1.161,-0.086
4.74,-0.271,0.301,-0.168
4.75,-0.231,1.662,0.09
4.76,0.08,1.041,0.142
4.77,-0.178,0.926,-0.036
4.78,-0.337,0.733,-0.218
4.79,-0.061,1.24,0.015
4.8,-0.075,1.463,0.135
4.81,0.015,0.534,-0.041
4.82,-0.424,0.979,-0.186
4.83,0.056,1.201,0.035
4.84,-0.203,1.362,0.22
4.85,-0.065,0.771,-0.047
4.86,-0.329,0.565,-0.228
4.87,-0.065,1.931,0.041
4.88,-0.002,1.018,0.191
4.89,-0.159,0.907,0.004
4.9,-0.314,0.377,-0.183
4.91,-0.187,2.0,0.025
4.92,-0.089,1.102,0.202
4.93,-0.051,0.634,0.003
4.94,-0.423,0.812,-0.189
4.95,-0.116,1.623,0.004
4.96,-0.224,1.352,0.194
4.97,0.094,0.37,-0.025
4.98,-0.506,0.981,-0.233
4.99,-0.086,1.713,0.001
5.0,-0.251,1.192,0.049
5.01,0.124,0.558,-0.088
5.02,-0.385,0.604,-0.262
5.03,-0.262,2.0,0.003
5.04,-0.116,0.826,0.079
5.05,0.002,0.814,0.012
5.06,-0.342,0.413,-0.257
5.07,-0.233,2.0,-0.076
5.08,-0.029,1.0,0.156
5.09,0.029,0.577,-0.007
5.1,-0.348,0.783,-0.258
5.11,-0.191,1.822,0.007
5.12,-0.144,1.215,0.073
5.13,0.121,0.321,0.055
5.14,-0.375,0.969,-0.247
5.15,-0.308,1.655,0.043
5.16,-0.15,1.071,0.157
5.17,0.045,0.546,0.112
5.18,-0.308,0.555,-0.214
5.19,-0.385,2.0,-0.053
5.2,0.085,0.767,0.033
5.21,-0.005,0.896,0.055
5.22,-0.205,0.371,-0.244
5.23,-0.342,2.0,-0.104
5.24,-0.028,0.776,0.076
5.25,-0.074,0.579,0.125
5.26,-0.38,0.838,-0.166
5.27,-0.372,1.741,-0.054
5.28,-0.063,1.163,0.104
5.29,-0.047,0.28,0.163
5.3,-0.44,0.909,-0.188
5.31,-0.343,1.747,-0.077
5.32,-0.047,1.09,0.132
5.33,-0.14,0.567,0.145
5.34,-0.357,0.591,-0.158
5.35,-0.483,1.898,-0.025
5.36,-0.009,0.705,0.181
5.37,-0.389,0.919,0.128
5.38,-0.172,0.369,-0.137
5.39,-0.685,1.356,-0.066
5.4,0.026,0.812,0.187
5.41,-0.278,0.717,0.072
5.42,-0.278,0.528,-0.177
5.43,-0.453,1.765,-0.077
5.44,-0.011,1.072,0.127
5.45,-0.111,0.363,0.096
5.46,-0.363,0.962,-0.182
5.47,-0.499,0.855,-0.018
5.48,-0.132,1.184,0.21
5.49,-0.245,0.549,0.077
5.5,-0.314,0.732,-0.186
5.51,-0.506,0.958,-0.219
5.52,0.026,0.785,0.102
5.53,-0.223,1.001,0.049
5.54,-0.165,0.388,-0.184
5.55,-0.552,1.2,-0.197
5.56,0.288,0.838,0.077
5.57,-0.315,0.915,0.101
5.58,-0.215,0.575,-0.099
5.59,-0.594,0.706,-0.137
5.6,0.031,1.112,0.111
5.61,-0.204,0.674,-0.026
5.62,-0.326,1.024,-0.12
5.63,-0.424,0.444,-0.228
5.64,0.024,1.262,0.159
5.65,-0.132,0.735,0.047
5.66,-0.178,0.814,-0.166
5.67,-0.418,0.782,-0.19
5.68,0.118,1.013,0.128
5.69,-0.348,1.06,0.143
5.7,-0.156,0.422,-0.101
5.71,-0.584,0.995,-0.233
5.72,0.162,0.819,0.101
5.73,-0.296,1.174,0.063
5.74,-0.172,0.716,-0.051
5.75,-0.449,0.616,-0.151
5.76,-0.188,1.148,0.316
5.77,-0.111,0.751,0.102
5.78,-0.158,1.126,-0.108
5.79,-0.355,0.363,-0.143
5.8,-0.188,1.264,0.258
5.81,-0.085,0.84,0.094
5.82,-0.219,0.888,-0.055
5.83,-0.428,0.698,-0.153
5.84,-0.092,0.98,0.202
5.85,-0.2,1.279,0.076
5.86,-0.066,0.589,-0.093
5.87,-0.473,0.925,-0.308
5.88,-0.073,0.782,0.262
5.89,-0.154,1.227,0.121
5.9,-0.172,0.746,-0.06
5.91,-0.401,0.55,-0.215
5.92,-0.219,1.295,0.161
5.93,-0.075,0.835,0.173
5.94,-0.228,1.184,-0.084
5.95,-0.289,0.329,-0.216
5.96,-0.223,1.435,0.114
5.97,-0.081,0.988,0.193
5.98,-0.178,0.93,-0.087
5.99,-0.318,0.704,-0.211
6.0,-0.024,1.095,0.037
6.01,-0.13,1.403,0.118
6.02,-0.054,0.585,-0.088
6.03,-0.415,0.947,-0.197
6.04,0.019,1.045,0.07
6.05,-0.186,1.282,0.164
6.06,-0.009,0.815,-0.075
6.07,-0.361,0.606,-0.193
6.08,-0.094,1.5,0.107
6.09,-0.052,0.896,0.195
6.1,-0.177,1.191,-0.064
6.11,-0.251,0.338,-0.164
6.12,-0.178,1.597,0.163
6.13,0.07,1.076,0.136
6.14,-0.153,0.853,-0.084
6.15,-0.235,0.737,-0.227
6.16,-0.106,1.226,0.112
6.17,-0.055,1.437,0.123
6.18,-0.047,0.535,-0.051
6.19,-0.323,0.935,-0.208
6.2,-0.005,1.168,0.116
6.21,-0.111,1.332,0.155
6.22,-0.109,0.772,-0.033
6.23,-0.37,0.788,-0.184
6.24,-0.076,1.299,0.003
6.25,0.049,1.054,0.1
6.26,-0.108,1.085,-0.08
6.27,-0.279,0.331,-0.132
6.28,-0.071,1.868,0.122
6.29,-0.015,1.035,0.234
6.3,-0.154,0.933,-0.023
6.31,-0.207,0.528,-0.252
6.32,-0.179,1.599,0.102
6.33,-0.026,1.342,0.169
6.34,-0.045,0.518,-0.001
6.35,-0.343,0.936,-0.165
6.36,0.055,1.301,0.033
6.37,-0.148,1.536,0.228
6.38,-0.055,0.574,0.032
6.39,-0.423,0.75,-0.166
6.4,0.0,1.866,0.02
6.41,-0.255,1.114,0.249
6.42,-0.064,0.779,0.001
6.43,-0.402,0.395,-0.107
6.44,-0.32,2.0,0.07
6.45,-0.092,0.907,0.238
6.46,-0.062,0.789,0.011
6.47,-0.384,0.553,-0.12
6.48,-0.218,1.851,0.081
6.49,-0.141,1.232,0.176
6.5,0.059,0.423,0.003
6.51,-0.458,0.924,-0.221
6.52,-0.116,1.651,0.023
6.53,-0.22,1.272,0.087
6.54,0.136,0.407,0.006
6.55,-0.414,0.745,-0.241
6.56,-0.255,1.947,0.077
6.57,-0.175,0.896,0.072
6.58,0.026,0.735,0.025
6.59,-0.363,0.36,-0.144
6.6,-0.36,2.0,0.009
6.61,-0.078,0.783,0.092
6.62,0.009,0.715,0.031
6.63,-0.34,0.547,-0.18
6.64,-0.344,1.849,0.049
6.65,-0.219,1.108,0.15
6.66,0.11,0.296,-0.045
6.67,-0.386,0.962,-0.255
6.68,-0.182,1.658,0.003
6.69,-0.22,1.193,0.075
6.7,0.166,0.373,0.037
6.71,-0.398,0.787,-0.221
6.72,-0.309,1.923,-0.033
6.73,-0.049,0.819,0.07
6.74,0.004,0.752,0.111
6.75,-0.312,0.364,-0.187
6.76,-0.4,2.0,-0.081
6.77,0.003,0.678,0.094
6.78,-0.053,0.766,0.084
6.79,-0.261,0.543,-0.218
6.8,-0.313,2.0,-0.043
6.81,-0.087,0.99,0.12
6.82,-0.065,0.392,0.162
6.83,-0.37,0.879,-0.161
6.84,-0.312,1.768,-0.005
6.85,-0.139,1.16,0.145
6.86,-0.037,0.446,0.18
6.87,-0.439,0.705,-0.153
6.88,-0.256,1.982,-0.074
6.89,-0.118,0.811,0.189
6.9,-0.12,0.841,0.135
6.91,-0.334,0.395,-0.161
6.92,-0.4,2.0,-0.078
6.93,0.011,0.676,0.151
6.94,-0.157,0.837,0.11
6.95,-0.338,0.557,-0.202
6.96,-0.272,1.663,-0.1
6.97,-0.137,1.063,0.18
6.98,-0.138,0.401,0.183
6.99,-0.428,0.93,-0.159
7.0,-0.408,1.219,-0.051
7.01,-0.129,1.211,0.18
7.02,-0.169,0.534,0.131
7.03,-0.342,0.682,-0.228
7.04,-0.31,1.674,-0.042
7.05,-0.128,0.984,0.143
7.06,-0.159,0.666,0.134
7.07,-0.338,0.475,-0.156
7.08,-0.442,1.824,-0.096
7.09,0.001,0.648,0.195
7.1,-0.298,0.951,0.158
7.11,-0.224,0.351,-0.217
7.12,-0.478,1.469,-0.129
7.13,0.015,0.914,0.151
7.14,-0.237,0.613,0.118
7.15,-0.365,0.825,-0.139
7.16,-0.502,0.742,-0.091
7.17,-0.096,1.233,0.138
7.18,-0.103,0.516,0.092
7.19,-0.349,0.845,-0.136
7.2,-0.393,0.736,-0.187
7.21,0.074,1.056,0.129
7.22,-0.214,0.85,0.046
7.23,-0.177,0.546,-0.1
7.24,-0.545,1.029,-0.195
7.25,0.159,0.755,-0.009
7.26,-0.337,1.182,0.043
7.27,-0.102,0.463,-0.165
7.28,-0.588,0.855,-0.221
7.29,0.144,1.021,0.068
7.3,-0.253,0.772,0.052
7.31,-0.267,0.91,-0.121
7.32,-0.364,0.429,-0.255
7.33,0.133,1.419,0.047
7.34,-0.092,0.526,0.015
7.35,-0.293,1.021,-0.132
7.36,-0.38,0.609,-0.237
7.37,0.058,1.129,0.172
7.38,-0.186,1.021,0.08
7.39,-0.19,0.586,-0.05
7.4,-0.568,0.948,-0.11
7.41,0.051,0.812,0.252
7.42,-0.312,1.274,0.095
7.43,-0.11,0.552,-0.082
7.44,-0.53,0.76,-0.142
7.45,-0.044,0.983,0.312
7.46,-0.247,0.935,0.166
7.47,-0.228,1.039,-0.068
7.48,-0.385,0.337,-0.211
7.49,-0.158,1.307,0.281
7.5,-0.126,0.729,0.139
7.51,-0.252,1.088,-0.064
7.52,-0.339,0.505,-0.204
7.53,-0.134,1.107,0.211
7.54,-0.175,1.179,0.135
7.55,-0.045,0.71,-0.071
7.56,-0.479,0.909,-0.149
7.57,-0.107,0.849,0.284
7.58,-0.263,1.376,0.198
7.59,-0.122,0.615,-0.028
7.6,-0.456,0.746,-0.203
7.61,-0.175,1.154,0.171
7.62,-0.139,0.976,0.145
7.63,-0.196,1.119,-0.122
7.64,-0.272,0.274,-0.24
7.65,-0.194,1.487,0.099
7.66,0.014,0.887,0.128
7.67,-0.173,1.034,-0.111
7.68,-0.277,0.536,-0.215
7.69,-0.119,1.283,0.109
7.7,-0.195,1.127,0.122
7.71,-0.1,0.719,-0.094
7.72,-0.389,0.888,-0.272
7.73,-0.037,0.968,0.058
7.74,-0.152,1.422,0.127
7.75,-0.082,0.605,-0.095
7.76,-0.306,0.78,-0.26
7.77,0.008,1.299,-0.016
7.78,0.038,1.03,0.053
7.79,-0.169,1.095,-0.136
7.8,-0.231,0.289,-0.18
7.81,-0.129,1.624,0.067
7.82,0.043,0.923,0.133
7.83,-0.171,1.06,-0.064
7.84,-0.268,0.535,-0.218
7.85,-0.24,1.479,0.151
7.86,-0.175,0.94,0.227
7.87,-0.181,0.946,-0.094
7.88,-0.398,0.73,-0.166
7.89,-0.083,1.115,0.121
7.9,-0.19,1.394,0.121
7.91,-0.065,0.674,-0.042
7.92,-0.495,0.889,-0.178
7.93,-0.051,1.171,0.171
7.94,-0.201,1.228,0.157
7.95,-0.108,0.984,-0.038
7.96,-0.376,0.471,-0.147
7.97,-0.185,1.65,0.061
7.98,-0.009,0.812,0.101
7.99,-0.156,1.257,-0.106
8.0,-0.224,0.314,-0.185
8.01,-0.112,1.591,0.127
8.02,-0.06,1.173,0.143
8.03,-0.075,0.827,-0.04
8.04,-0.369,0.775,-0.194
8.05,0.032,1.276,0.119
8.06,-0.153,1.558,0.181
8.07,0.012,0.413,0.012
8.08,-0.41,0.952,-0.167
8.09,-0.102,1.306,0.094
8.1,-0.153,1.29,0.244
8.11,-0.144,0.802,-0.002
8.12,-0.406,0.436,-0.076
8.13,-0.226,1.927,0.115
8.14,-0.055,0.952,0.236
8.15,-0.161,0.9,0.058
8.16,-0.303,0.385,-0.175
8.17,-0.255,1.925,0.035
8.18,-0.094,1.104,0.142
8.19,0.006,0.555,-0.038
8.2,-0.383,0.819,-0.198
8.21,-0.063,1.552,-0.049
8.22,-0.173,1.46,0.137
8.23,0.075,0.352,-0.027
8.24,-0.509,0.854,-0.212
8.25,-0.117,1.803,0.05
8.26,-0.281,1.163,0.083
8.27,0.056,0.57,-0.022
8.28,-0.409,0.454,-0.174
8.29,-0.381,2.0,0.07
8.3,-0.157,0.764,0.078
8.31,-0.054,0.797,0.039
8.32,-0.278,0.389,-0.194
8.33,-0.346,2.0,0.026
8.34,-0.124,0.963,0.141
8.35,-0.024,0.449,0.028
8.36,-0.391,0.816,-0.174
8.37,-0.311,1.669,0.005
8.38,-0.234,1.24,0.195
8.39,-0.131,0.737,0.152
8.4,-0.06,0.862,0.112
8.41,-0.319,0.412,-0.201
8.42,-0.371,2.0,-0.052
8.43,-0.165,0.859,0.124
8.44,0.059,0.499,0.05
8.45,-0.418,0.932,-0.205
8.46,-0.204,1.755,-0.147
8.47,-0.065,1.187,0.062
8.48,0.099,0.372,0.118
8.49,-0.507,0.894,-0.204
8.5,-0.21,1.833,-0.066
8.51,-0.094,1.055,0.138
8.52,-0.041,0.661,0.128
8.53,-0.321,0.465,-0.198
8.54,-0.443,1.752,-0.03
8.55,0.024,0.71,0.146
8.56,-0.274,0.941,0.146
8.57,-0.175,0.422,-0.223
8.58,-0.576,1.309,-0.08
8.59,-0.013,0.695,0.185
8.6,-0.2,0.813,0.161
8.61,-0.345,0.58,-0.164
8.62,-0.413,1.531,-0.117
8.63,0.022,1.191,0.062
8.64,-0.058,0.433,0.063
8.65,-0.353,0.963,-0.208
8.66,-0.501,0.783,-0.095
8.67,-0.07,1.145,0.177
8.68,-0.225,0.637,0.053
8.69,-0.264,0.685,-0.173
8.7,-0.52,1.093,-0.226
8.71,0.183,0.81,0.043
8.72,-0.257,1.018,0.05
8.73,-0.07,0.417,-0.172
8.74,-0.633,1.096,-0.199
8.75,0.25,0.879,0.077
8.76,-0.248,0.987,0.087
8.77,-0.225,0.657,-0.076
8.78,-0.6,0.548,-0.179
8.79,0.07,1.219,0.123
8.8,-0.118,0.712,0.021
8.81,-0.246,1.056,-0.094
8.82,-0.416,0.403,-0.151
8.83,-0.077,1.292,0.245
8.84,-0.194,0.771,0.084
8.85,-0.151,0.848,-0.105
8.86,-0.405,0.741,-0.255
8.87,0.125,0.975,0.127
8.88,-0.277,1.188,0.098
8.89,-0.109,0.592,-0.073
8.9,-0.521,0.876,-0.226
8.91,-0.093,0.801,0.221
8.92,-0.12,1.283,0.092
8.93,-0.104,0.848,-0.037
8.94,-0.382,0.482,-0.179
8.95,-0.244,1.395,0.211
8.96,-0.085,0.832,0.163
8.97,-0.177,1.228,-0.038
8.98,-0.402,0.356,-0.118
8.99,-0.26,1.458,0.175
9.0,-0.208,0.969,0.194
9.01,-0.154,0.956,-0.093
9.02,-0.33,0.698,-0.216
9.03,-0.045,1.145,0.123
9.04,-0.099,1.568,0.156
9.05,-0.02,0.537,-0.041
9.06,-0.38,0.949,-0.227
9.07,-0.053,1.185,0.077
9.08,-0.146,1.33,0.169
9.09,-0.074,0.866,-0.075
9.1,-0.284,0.492,-0.137
9.11,-0.177,1.548,0.116
9.12,-0.08,0.903,0.218
9.13,-0.278,1.101,0.06
9.14,-0.227,0.375,-0.135
9.15,-0.209,1.971,0.087
9.16,-0.002,1.132,0.199
9.17,-0.091,0.642,-0.005
9.18,-0.372,0.808,-0.177
9.19,-0.139,1.739,0.114
9.2,-0.277,1.401,0.278
9.21,0.075,0.309,0.045
9.22,-0.412,0.93,-0.201
9.23,-0.137,1.564,-0.036
9.24,-0.167,1.279,0.184
9.25,-0.005,0.563,0.046
9.26,-0.356,0.527,-0.124
9.27,-0.43,2.0,0.089
9.28,-0.063,0.778,0.159
9.29,-0.125,0.838,0.072
9.3,-0.33,0.414,-0.136
9.31,-0.551,2.0,0.067
9.32,-0.1,0.824,0.194
9.33,-0.056,0.533,0.054
9.34,-0.271,0.743,-0.215
9.35,-0.366,1.671,-0.014
9.36,-0.128,1.264,0.173
9.37,0.109,0.305,0.124
9.38,-0.483,0.955,-0.155
9.39,-0.302,1.878,0.011
9.4,-0.111,1.043,0.119
9.41,0.094,0.424,0.025
9.42,-0.407,0.735,-0.207
9.43,-0.375,1.883,-0.028
9.44,-0.087,0.843,0.18
9.45,-0.028,0.798,0.128
9.46,-0.354,0.364,-0.199
9.47,-0.389,2.0,-0.125
9.48,-0.011,0.768,0.036
9.49,0.035,0.729,0.066
9.5,-0.228,0.634,-0.204
9.51,-0.343,1.973,-0.149
9.52,-0.057,1.074,0.108
9.53,-0.046,0.326,0.11
9.54,-0.434,0.99,-0.152
9.55,-0.258,1.692,-0.097
9.56,-0.168,1.188,0.145
9.57,-0.051,0.425,0.103
9.58,-0.385,0.746,-0.169
9.59,-0.439,1.884,-0.096
9.6,-0.039,0.796,0.112
9.61,-0.143,0.876,0.122
9.62,-0.251,0.365,-0.227
9.63,-0.604,1.364,-0.05
9.64,0.015,0.776,0.195
9.65,-0.297,0.885,0.19
9.66,-0.362,0.524,-0.074
9.67,-0.655,0.844,-0.053
9.68,-0.01,1.193,0.132
9.69,-0.166,0.531,0.09
9.7,-0.328,0.959,-0.131
9.71,-0.444,0.645,-0.176
9.72,-0.033,1.327,0.216
9.73,-0.17,0.593,0.095
9.74,-0.335,0.797,-0.082
9.75,-0.535,0.783,-0.178
9.76,0.026,0.932,0.112
9.77,-0.266,1.159,0.018
9.78,-0.135,0.458,-0.133
9.79,-0.488,0.972,-0.214
9.8,0.047,0.814,0.194
9.81,-0.293,1.046,0.144
9.82,-0.182,0.693,-0.07
9.83,-0.471,0.566,-0.198
9.84,0.007,1.257,0.161
9.85,-0.152,0.679,0.123
9.86,-0.345,1.137,-0.086
9.87,-0.398,0.348,-0.238
9.88,-0.147,1.296,0.18
9.89,-0.177,0.917,0.166
9.9,-0.201,0.914,-0.022
9.91,-0.431,0.707,-0.185
9.92,-0.127,0.999,0.245
9.93,-0.218,1.348,0.163
9.94,-0.085,0.6,-0.045
9.95,-0.502,0.894,-0.226
9.96,-0.137,0.859,0.209
9.97,-0.139,1.226,0.115
9.98,-0.193,0.841,-0.073
9.99,-0.4,0.567,-0.181
10.0,-0.235,1.441,0.132
10.01,-0.061,0.803,0.148
10.02,-0.193,1.252,-0.103
10.03,-0.286,0.348,-0.208
10.04,-0.077,1.557,-0.02
10.05,-0.051,0.964,0.146
10.06,-0.09,0.965,-0.083
10.07,-0.349,0.719,-0.21
10.08,-0.055,1.195,0.135
10.09,-0.177,1.403,0.151
10.1,-0.01,0.649,-0.058
10.11,-0.416,0.925,-0.194
10.12,0.028,1.11,0.059
10.13,-0.16,1.338,0.191
10.14,-0.024,0.815,-0.075
10.15,-0.322,0.523,-0.161
10.16,-0.082,1.538,0.104
10.17,-0.062,0.975,0.188
10.18,-0.175,0.982,0.012
10.19,-0.469,0.399,-0.08
10.2,-0.14,1.828,0.114
10.21,-0.186,1.038,0.168
10.22,-0.172,1.042,0.031
10.23,-0.342,0.518,-0.161
10.24,-0.093,1.396,0.125
10.25,-0.168,1.244,0.213
10.26,-0.004,0.617,0.022
10.27,-0.468,0.942,-0.184
10.28,0.022,1.521,0.03
10.29,-0.243,1.466,0.2
10.3,0.079,0.424,0.021
10.31,-0.517,0.795,-0.247
10.32,-0.067,1.818,-0.029
10.33,-0.17,1.023,0.065
10.34,0.098,0.725,-0.024
10.35,-0.331,0.411,-0.176
10.36,-0.216,2.0,-0.0
10.37,0.014,0.865,0.197
10.38,-0.016,0.775,0.05
10.39,-0.382,0.544,-0.183
10.4,-0.255,1.922,0.014
10.41,-0.215,1.047,0.12
10.42,0.152,0.393,0.038
10.43,-0.4,0.935,-0.235
10.44,-0.334,1.662,-0.026
10.45,-0.153,1.183,0.072
10.46,0.15,0.38,0.133
10.47,-0.449,0.824,-0.161
10.48,-0.408,1.996,-0.003
10.49,-0.113,0.815,0.119
10.5,-0.102,0.789,0.158
10.51,-0.295,0.389,-0.155
10.52,-0.502,2.0,-0.006
10.53,-0.109,0.678,0.193
10.54,-0.233,0.808,0.099
10.55,-0.2,0.5,-0.172
10.56,-0.541,1.389,-0.026
10.57,-0.093,1.015,0.171
10.58,-0.119,0.476,0.117
10.59,-0.37,0.903,-0.191
10.6,-0.324,1.353,-0.108
10.61,-0.031,1.315,0.129
10.62,-0.134,0.443,0.17
10.63,-0.308,0.814,-0.17
10.64,-0.623,0.992,-0.082
10.65,0.001,0.87,0.185
10.66,-0.316,0.989,0.135
10.67,-0.099,0.412,-0.157
10.68,-0.703,1.088,-0.17
10.69,0.237,0.845,0.099
10.7,-0.345,0.989,0.132
10.71,-0.219,0.633,-0.038
10.72,-0.611,0.66,-0.19
10.73,0.083,1.163,0.09
10.74,-0.106,0.709,0.048
10.75,-0.282,1.083,-0.081
10.76,-0.419,0.367,-0.144
10.77,-0.238,1.255,0.312
10.78,-0.197,0.736,0.155
10.79,-0.23,0.956,-0.042
10.8,-0.436,0.676,-0.213
10.81,-0.113,1.009,0.235
10.82,-0.226,1.221,0.119
10.83,-0.082,0.591,-0.138
10.84,-0.51,0.931,-0.215
10.85,-0.128,0.751,0.261
10.86,-0.194,1.256,0.167
10.87,-0.087,0.797,-0.116
10.88,-0.387,0.647,-0.243
10.89,-0.094,1.38,0.079
10.9,-0.09,0.933,0.182
10.91,-0.145,1.184,-0.137
10.92,-0.218,0.312,-0.251
10.93,-0.113,1.583,0.109
10.94,0.02,1.084,0.164
10.95,-0.154,0.907,-0.05
10.96,-0.328,0.65,-0.182
10.97,-0.082,1.238,0.151
10.98,-0.248,1.422,0.213
10.99,0.007,0.546,-0.048
11.0,-0.384,0.969,-0.253
11.01,-0.029,1.12,0.078
11.02,-0.088,1.422,0.167
11.03,-0.08,0.64,-0.06
11.04,-0.396,0.775,-0.186
11.05,-0.083,1.313,0.065
11.06,-0.084,1.152,0.156
11.07,-0.096,0.957,-0.055
11.08,-0.339,0.416,-0.166
11.09,-0.13,1.756,0.172
11.1,-0.061,0.995,0.208
11.11,-0.11,0.969,0.014
11.12,-0.248,0.479,-0.166
11.13,-0.09,1.828,-0.026
11.14,-0.075,1.261,0.15
11.15,0.04,0.485,-0.03
11.16,-0.402,0.932,-0.22
11.17,-0.074,1.629,0.07
11.18,-0.284,1.416,0.237
11.19,0.038,0.338,0.088
11.2,-0.398,0.827,-0.272
11.21,-0.208,1.764,0.03
11.22,-0.203,1.053,0.141
11.23,-0.062,0.656,0.02
11.24,-0.319,0.407,-0.18
11.25,-0.43,2.0,0.03
11.26,-0.036,0.729,0.101
11.27,0.003,0.773,0.071
11.28,-0.305,0.497,-0.207
11.29,-0.349,2.0,-0.058
11.3,-0.095,0.983,0.104
11.31,0.037,0.455,0.11
11.32,-0.435,0.929,-0.166
11.33,-0.345,1.739,-0.036
11.34,-0.144,1.199,0.104
11.35,-0.003,0.389,0.131
11.36,-0.468,0.817,-0.185
11.37,-0.344,1.848,-0.13
11.38,-0.102,0.875,0.119
11.39,-0.104,0.799,0.082
11.4,-0.328,0.435,-0.204
11.41,-0.521,1.996,-0.007
11.42,-0.034,0.695,0.219
11.43,-0.194,0.888,0.125
11.44,-0.277,0.458,-0.18
11.45,-0.475,1.612,-0.053
11.46,-0.018,1.019,0.126
11.47,-0.135,0.514,0.095
11.48,-0.381,0.931,-0.18
11.49,-0.544,0.711,-0.065
11.5,0.015,1.312,0.148
11.51,-0.203,0.539,0.118
11.52,-0.402,0.849,-0.116
11.53,-0.501,0.799,-0.168
11.54,0.014,1.051,0.161
11.55,-0.22,0.924,0.076
11.56,-0.132,0.516,-0.124
11.57,-0.572,1.258,-0.175
11.58,0.189,0.818,0.182
11.59,-0.242,1.021,0.135
11.6,-0.206,0.615,-0.112
11.61,-0.636,0.701,-0.171
11.62,-0.081,1.067,0.234
11.63,-0.157,0.813,0.048
11.64,-0.232,1.119,-0.083
11.65,-0.36,0.339,-0.259
11.66,-0.2,1.239,0.288
11.67,0.003,0.796,0.115
11.68,-0.261,0.952,-0.064
11.69,-0.296,0.657,-0.254
11.7,-0.056,1.171,0.113
11.71,-0.216,1.122,0.099
11.72,-0.141,0.638,-0.076
11.73,-0.531,0.961,-0.233
11.74,0.026,0.842,0.104
11.75,-0.164,1.419,0.146
11.76,-0.034,0.686,-0.083
11.77,-0.359,0.693,-0.211
11.78,0.021,1.417,0.065
11.79,-0.025,1.029,0.156
11.8,-0.122,1.108,-0.068
11.81,-0.284,0.335,-0.178
11.82,-0.198,1.607,0.052
11.83,-0.087,0.911,0.147
11.84,-0.267,1.157,-0.051
11.85,-0.277,0.428,-0.178
11.86,-0.07,1.528,0.063
11.87,-0.107,1.073,0.162
11.88,-0.094,0.876,-0.027
11.89,-0.448,0.842,-0.171
11.9,-0.0,1.142,0.226
11.91,-0.224,1.6,0.187
11.92,-0.011,0.506,-0.019
11.93,-0.418,0.92,-0.221
11.94,0.003,1.254,0.026
11.95,-0.091,1.244,0.182
11.96,-0.114,0.934,-0.011
11.97,-0.282,0.399,-0.117
11.98,-0.231,1.967,0.116
11.99,-0.027,0.978,0.219
12.0,-0.115,0.876,0.028
12.01,-0.334,0.477,-0.165
12.02,-0.265,2.0,0.089
12.03,-0.252,1.099,0.269
12.04,-0.007,0.49,0.034
12.05,-0.529,0.907,-0.176
12.06,-0.216,1.559,0.064
12.07,-0.312,1.417,0.233
12.08,0.054,0.239,0.025
12.09,-0.442,0.893,-0.22
12.1,-0.27,1.718,0.033
12.11,-0.197,1.102,0.136
12.12,0.002,0.588,-0.001
12.13,-0.332,0.477,-0.231
12.14,-0.413,2.0,-0.054
12.15,-0.048,0.681,0.136
12.16,-0.14,0.785,0.112
12.17,-0.345,0.433,-0.25
12.18,-0.362,2.0,-0.152
12.19,-0.109,0.905,0.13
12.2,-0.011,0.454,0.121
12.21,-0.457,0.847,-0.173
12.22,-0.227,1.703,-0.066
12.23,-0.15,1.276,0.064
12.24,-0.019,0.344,0.093
12.25,-0.443,0.776,-0.161
12.26,-0.477,1.135,0.019
12.27,-0.157,0.962,0.217
12.28,-0.31,0.77,0.102
12.29,-0.298,0.405,-0.168
12.3,-0.64,1.281,-0.087
12.31,0.006,0.676,0.156
12.32,-0.36,0.981,0.103
12.33,-0.243,0.414,-0.181
12.34,-0.552,0.991,-0.156
12.35,0.09,1.059,0.064
12.36,-0.151,0.635,0.036
12.37,-0.4,0.883,-0.141
12.38,-0.549,0.433,-0.151
12.39,-0.061,1.262,0.119
12.4,-0.181,0.729,0.025
12.41,-0.24,0.946,-0.129
12.42,-0.463,0.603,-0.201
12.43,0.095,1.096,0.096
12.44,-0.223,1.09,0.036
12.45,-0.166,0.527,-0.114
12.46,-0.505,0.959,-0.236
12.47,0.183,0.838,0.114
12.48,-0.293,1.139,0.034
12.49,-0.054,0.629,-0.168
12.5,-0.399,0.7,-0.268
12.51,-0.027,1.019,0.227
12.52,-0.131,0.909,0.126
12.53,-0.36,1.029,0.016
12.54,-0.405,0.315,-0.146
12.55,-0.26,1.359,0.195
12.56,-0.079,0.87,0.171
12.57,-0.204,1.045,-0.055
12.58,-0.403,0.547,-0.143
12.59,-0.241,1.044,0.194
12.6,-0.145,1.192,0.106
12.61,-0.038,0.675,-0.107
12.62,-0.496,0.939,-0.204
12.63,-0.07,0.846,0.137
12.64,-0.153,1.377,0.067
12.65,-0.05,0.589,-0.087
12.66,-0.505,0.854,-0.208
12.67,-0.152,0.871,0.146
12.68,-0.234,1.229,0.142
12.69,-0.188,0.846,-0.087
12.7,-0.321,0.412,-0.172
12.71,-0.243,1.327,0.146
12.72,-0.141,0.733,0.144
12.73,-0.22,1.173,-0.093
12.74,-0.299,0.36,-0.205
12.75,-0.124,1.341,0.098
12.76,-0.115,0.99,0.066
12.77,-0.172,0.842,-0.121
12.78,-0.405,0.79,-0.205
12.79,-0.112,0.951,0.149
12.8,-0.209,1.454,0.15
12.81,0.03,0.645,-0.037
12.82,-0.555,0.885,-0.151
12.83,-0.092,1.142,0.122
12.84,-0.196,1.163,0.083
12.85,-0.056,1.022,-0.149
12.86,-0.291,0.443,-0.203
12.87,-0.093,1.571,0.065
12.88,-0.062,0.872,0.165
12.89,-0.227,1.182,-0.071
12.9,-0.257,0.332,-0.192
12.91,-0.141,1.622,0.137
12.92,0.016,1.251,0.162
12.93,-0.136,0.712,-0.085
12.94,-0.306,0.826,-0.227
12.95,-0.076,1.215,0.062
12.96,-0.146,1.51,0.094
12.97,0.005,0.597,-0.051
12.98,-0.313,0.853,-0.242
12.99,-0.041,1.231,0.053
13.0,-0.02,1.278,0.134
13.01,-0.086,0.923,-0.114
13.02,-0.186,0.409,-0.254
13.03,-0.017,1.886,0.011
13.04,0.084,1.015,0.175
13.05,-0.192,0.977,0.002
13.06,-0.258,0.423,-0.209
13.07,-0.205,1.647,0.044
13.08,0.046,1.165,0.119
13.09,-0.103,0.648,-0.014
13.1,-0.249,0.848,-0.227
13.11,0.005,1.351,-0.012
13.12,-0.122,1.519,0.242
13.13,-0.025,0.437,0.028
13.14,-0.449,0.923,-0.193
13.15,-0.118,1.735,0.084
13.16,-0.178,1.228,0.166
13.17,-0.029,0.653,0.02
13.18,-0.395,0.428,-0.137
13.19,-0.275,2.0,0.088
13.2,-0.077,0.897,0.235
13.21,-0.102,0.815,0.117
13.22,-0.302,0.442,-0.144
13.23,-0.277,1.914,-0.002
13.24,-0.079,1.121,0.151
13.25,0.073,0.523,-0.067
13.26,-0.358,0.881,-0.226
13.27,-0.14,1.771,-0.014
13.28,-0.256,1.186,0.102
13.29,0.165,0.387,0.061
13.3,-0.434,0.834,-0.302
13.31,-0.111,1.754,-0.129
13.32,-0.027,1.071,0.044
13.33,0.108,0.606,-0.02
13.34,-0.337,0.433,-0.167
13.35,-0.333,2.0,-0.05
13.36,-0.092,0.825,0.144
13.37,-0.065,0.767,0.079
13.38,-0.296,0.476,-0.213
13.39,-0.323,2.0,-0.137
13.4,-0.059,0.892,0.069
13.41,-0.005,0.47,0.033
13.42,-0.444,0.892,-0.197
13.43,-0.177,1.754,-0.16
13.44,-0.086,1.209,-0.017
13.45,0.14,0.271,0.092
13.46,-0.531,1.003,-0.192
13.47,-0.273,1.634,-0.035
13.48,-0.198,1.165,0.128
13.49,0.068,0.4,0.102
13.5,-0.45,0.701,-0.16
13.51,-0.27,2.0,-0.107
13.52,0.023,0.724,-0.009
13.53,0.012,0.862,0.074
13.54,-0.273,0.358,-0.268
13.55,-0.275,2.0,-0.051
13.56,0.05,0.723,0.018
13.57,-0.023,0.756,0.066
13.58,-0.241,0.491,-0.214
13.59,-0.417,2.0,-0.036
13.6,-0.067,0.937,0.191
13.61,-0.041,0.429,0.137
13.62,-0.406,0.93,-0.167
13.63,-0.284,1.685,-0.027
13.64,-0.112,1.252,0.128
13.65,-0.088,0.315,0.167
13.66,-0.406,0.807,-0.108
13.67,-0.458,1.62,-0.016
13.68,-0.07,0.954,0.235
13.69,-0.216,0.754,0.093
13.7,-0.303,0.416,-0.138
13.71,-0.565,1.788,-0.069
13.72,0.032,0.736,0.211
13.73,-0.253,0.847,0.109
13.74,-0.207,0.476,-0.189
13.75,-0.568,0.99,-0.141
13.76,0.055,1.038,0.057
13.77,-0.235,0.612,0.055
13.78,-0.353,0.898,-0.169
13.79,-0.523,0.504,-0.162
13.8,-0.013,1.283,0.144
13.81,-0.144,0.557,0.025
13.82,-0.281,0.902,-0.168
13.83,-0.354,0.788,-0.224
13.84,0.097,1.09,0.135
13.85,-0.185,0.916,0.076
13.86,-0.204,0.511,-0.16
13.87,-0.498,0.964,-0.185
13.88,0.056,0.809,0.141
13.89,-0.216,1.208,0.058
13.9,-0.2,0.54,-0.097
13.91,-0.455,0.67,-0.147
13.92,-0.147,0.977,0.296
13.93,-0.128,0.833,0.11
13.94,-0.256,1.009,-0.073
13.95,-0.334,0.343,-0.166
13.96,-0.103,1.358,0.219
13.97,-0.155,0.723,0.123
13.98,-0.275,0.966,-0.057
13.99,-0.326,0.567,-0.187
14.0,-0.072,1.083,0.183
14.01,-0.139,1.199,0.095
14.02,-0.083,0.644,-0.088
14.03,-0.475,0.92,-0.18
14.04,-0.156,0.773,0.296
14.05,-0.203,1.318,0.181
14.06,-0.127,0.693,0.003
14.07,-0.425,0.671,-0.183
14.08,-0.196,1.178,0.265
14.09,-0.083,0.866,0.093
14.1,-0.26,1.105,-0.019
14.11,-0.264,0.326,-0.133
14.12,-0.324,1.403,0.237
14.13,-0.029,0.786,0.192
14.14,-0.214,1.109,-0.103
14.15,-0.362,0.54,-0.2
14.16,-0.054,1.148,0.166
14.17,-0.135,1.482,0.134
14.18,0.005,0.571,-0.059
14.19,-0.451,0.961,-0.173
14.2,0.008,1.067,0.114
14.21,-0.318,1.464,0.213
14.22,0.002,0.721,-0.024
14.23,-0.408,0.656,-0.127
14.24,-0.037,1.436,0.156
14.25,-0.114,1.044,0.185
14.26,-0.121,1.16,-0.017
14.27,-0.333,0.361,-0.117
14.28,-0.054,1.544,0.177
14.29,-0.004,1.004,0.133
14.3,-0.109,1.134,-0.038
14.31,-0.364,0.41,-0.145
14.32,-0.072,1.563,0.099
14.33,-0.141,1.132,0.127
14.34,0.022,0.899,-0.068
14.35,-0.425,0.796,-0.132
14.36,-0.0,1.028,0.172
14.37,-0.261,1.509,0.101
14.38,0.045,0.602,-0.075
14.39,-0.439,0.844,-0.216
14.4,0.015,1.252,0.173
14.41,-0.162,1.256,0.1
14.42,-0.08,0.966,-0.06
14.43,-0.346,0.414,-0.195
14.44,-0.14,1.591,0.105
14.45,-0.129,0.879,0.183
14.46,-0.206,1.175,-0.042
14.47,-0.204,0.406,-0.135
14.48,-0.197,1.512,0.131
14.49,-0.081,1.064,0.145
14.5,-0.103,0.867,-0.081
14.51,-0.337,0.814,-0.175
14.52,0.07,1.096,0.137
14.53,-0.142,1.542,0.124
14.54,0.003,0.554,-0.094
14.55,-0.392,0.843,-0.228
14.56,0.093,1.277,0.024
14.57,-0.104,1.182,0.085
14.58,-0.034,1.084,-0.083
14.59,-0.33,0.372,-0.092
14.6,-0.153,1.681,0.214
14.61,-0.109,0.965,0.166
14.62,-0.106,1.137,-0.061
14.63,-0.234,0.382,-0.174
14.64,-0.154,1.753,0.117
14.65,-0.025,1.264,0.173
14.66,-0.028,0.72,-0.094
14.67,-0.387,0.846,-0.21
14.68,0.054,1.294,0.052
14.69,-0.13,1.559,0.102
14.7,0.066,0.521,-0.122
14.71,-0.323,0.849,-0.266
14.72,-0.029,1.309,0.063
14.73,-0.144,1.162,0.133
14.74,-0.068,1.019,-0.068
14.75,-0.215,0.33,-0.188
14.76,-0.153,1.694,0.176
14.77,-0.017,0.929,0.201
14.78,-0.204,1.14,-0.014
14.79,-0.286,0.368,-0.124
14.8,-0.16,1.855,0.152
14.81,-0.121,1.268,0.187
14.82,-0.035,0.647,-0.073
14.83,-0.469,0.897,-0.156
14.84,-0.042,1.275,0.13
14.85,-0.183,1.5,0.159
14.86,0.008,0.546,-0.033
14.87,-0.395,0.841,-0.16
14.88,-0.074,1.306,0.116
14.89,-0.149,1.164,0.182
14.9,-0.063,1.012,-0.094
14.91,-0.335,0.36,-0.163
14.92,-0.112,1.792,0.188
14.93,-0.115,0.939,0.216
14.94,-0.155,1.097,-0.002
14.95,-0.211,0.387,-0.193
14.96,-0.104,1.858,0.025
14.97,-0.039,1.216,0.099
14.98,0.05,0.603,-0.082
14.99,-0.474,0.94,-0.207
15.0,0.039,1.285,0.082
15.01,-0.254,1.448,0.168
15.02,0.075,0.62,-0.012
15.03,-0.536,0.813,-0.176
15.04,-0.005,1.395,0.118
15.05,-0.152,1.198,0.219
15.06,-0.134,0.948,0.005
15.07,-0.341,0.359,-0.178
15.08,0.005,1.508,0.026
15.09,0.043,0.994,0.063
15.1,-0.136,1.181,-0.086
15.11,-0.267,0.278,-0.184
15.12,-0.111,1.638,0.007
15.13,-0.041,0.932,0.103
15.14,-0.049,1.068,-0.082
15.15,-0.35,0.651,-0.149
15.16,-0.03,1.236,0.178
15.17,-0.213,1.405,0.157
15.18,-0.095,0.603,-0.06
15.19,-0.494,0.927,-0.122
15.2,-0.076,1.066,0.139
15.21,-0.233,1.378,0.173
15.22,-0.048,0.753,-0.105
15.23,-0.343,0.578,-0.198
15.24,-0.065,1.447,0.005
15.25,-0.136,0.816,0.135
15.26,-0.175,1.261,-0.107
15.27,-0.137,0.284,-0.207
15.28,-0.149,1.607,0.085
15.29,-0.023,0.926,0.152
15.3,-0.211,1.001,-0.056
15.31,-0.391,0.655,-0.156
15.32,-0.008,1.297,0.077
15.33,-0.077,1.424,0.075
15.34,0.088,0.622,-0.083
15.35,-0.438,0.937,-0.246
15.36,0.003,1.083,0.096
15.37,-0.175,1.43,0.141
15.38,-0.027,0.802,-0.068
15.39,-0.333,0.574,-0.16
15.4,-0.078,1.5,0.077
15.41,0.025,0.929,0.158
15.42,-0.152,1.23,-0.065
15.43,-0.223,0.259,-0.179
15.44,-0.134,1.818,0.135
15.45,0.018,1.123,0.151
15.46,-0.104,0.879,-0.044
15.47,-0.306,0.688,-0.246
15.48,-0.091,1.283,0.043
15.49,-0.103,1.36,0.123
15.5,0.01,0.624,-0.022
15.51,-0.421,0.934,-0.181
15.52,-0.041,1.1,0.134
15.53,-0.119,1.388,0.148
15.54,-0.049,0.814,-0.046
15.55,-0.471,0.519,-0.118
15.56,-0.058,1.833,0.125
15.57,-0.043,0.986,0.173
15.58,-0.131,0.99,-0.008
15.59,-0.408,0.355,-0.108
15.6,-0.26,1.746,0.175
15.61,-0.167,1.06,0.22
15.62,-0.075,0.851,0.009
15.63,-0.349,0.728,-0.139
15.64,-0.126,1.291,0.135
15.65,-0.188,1.366,0.183
15.66,0.009,0.611,-0.018
15.67,-0.524,0.925,-0.114
15.68,0.031,1.634,0.122
15.69,-0.23,1.458,0.25
15.7,-0.043,0.587,-0.016
15.71,-0.451,0.586,-0.128
15.72,-0.158,1.753,0.117
15.73,-0.063,0.999,0.226
15.74,-0.088,0.982,0.02
15.75,-0.379,0.381,-0.092
15.76,-0.233,1.656,0.088
15.77,-0.054,0.999,0.213
15.78,-0.15,0.825,-0.032
15.79,-0.291,0.726,-0.194
15.8,-0.022,1.374,0.065
15.81,-0.102,1.424,0.19
15.82,0.062,0.485,-0.018
15.83,-0.465,0.947,-0.216
15.84,-0.028,1.518,-0.008
15.85,-0.176,1.459,0.211
15.86,-0.014,0.543,-0.023
15.87,-0.313,0.601,-0.196
15.88,-0.082,1.764,-0.037
15.89,-0.06,1.121,0.117
15.9,-0.145,0.91,-0.038
15.91,-0.22,0.342,-0.147
15.92,-0.156,1.745,0.059
15.93,0.014,0.95,0.191
15.94,-0.156,1.081,-0.006
15.95,-0.315,0.431,-0.162
15.96,-0.078,2.0,0.108
15.97,-0.193,1.283,0.142
15.98,-0.026,0.363,-0.007
15.99,-0.45,0.955,-0.182
16.0,-0.103,1.332,0.039
16.01,-0.184,1.42,0.206
16.02,-0.009,0.393,0.051
16.03,-0.48,0.813,-0.152
16.04,-0.207,1.574,0.07
16.05,-0.208,1.094,0.271
16.06,-0.163,0.859,0.039
16.07,-0.437,0.35,-0.158
16.08,-0.345,2.0,0.125
16.09,-0.116,0.869,0.111
16.1,-0.067,0.747,0.011
16.11,-0.316,0.534,-0.257
16.12,-0.253,1.88,-0.016
16.13,-0.065,1.148,0.114
16.14,0.129,0.414,-0.05
16.15,-0.403,0.906,-0.223
16.16,-0.148,1.516,-0.017
16.17,-0.255,1.362,0.154
16.18,0.11,0.364,0.018
16.19,-0.449,0.805,-0.218
16.2,-0.249,1.891,0.062
16.21,-0.129,0.925,0.065
16.22,-0.002,0.705,-0.002
16.23,-0.348,0.369,-0.243
16.24,-0.415,2.0,-0.045
16.25,-0.034,0.766,0.07
16.26,0.016,0.752,0.03
16.27,-0.333,0.541,-0.232
16.28,-0.28,2.0,-0.087
16.29,-0.065,1.056,0.064
16.3,0.115,0.398,0.029
16.31,-0.442,0.95,-0.222
16.32,-0.187,1.796,-0.13
16.33,-0.153,1.155,0.068
16.34,0.006,0.411,0.1
16.35,-0.406,0.728,-0.214
16.36,-0.387,2.0,0.012
16.37,-0.071,0.914,0.19
16.38,-0.029,0.729,0.13
16.39,-0.295,0.435,-0.185
16.4,-0.452,2.0,-0.078
16.41,0.026,0.699,0.178
16.42,-0.293,0.893,0.167
16.43,-0.267,0.513,-0.176
16.44,-0.421,1.818,-0.064
16.45,0.031,1.029,0.14
16.46,-0.084,0.504,0.163
16.47,-0.412,0.906,-0.219
16.48,-0.418,1.408,-0.044
16.49,-0.001,1.282,0.179
16.5,-0.129,0.487,0.185
16.51,-0.41,0.828,-0.177
16.52,-0.591,1.059,-0.067
16.53,-0.042,0.869,0.206
16.54,-0.314,0.997,0.097
16.55,-0.232,0.316,-0.229
16.56,-0.634,1.251,-0.111
16.57,0.173,0.743,0.116
16.58,-0.37,1.064,-0.01
16.59,-0.098,0.52,-0.258
16.6,-0.462,1.111,-0.226
16.61,0.196,1.161,0.09
16.62,-0.148,0.618,0.065
16.63,-0.349,0.977,-0.128
16.64,-0.637,0.452,-0.124
16.65,-0.032,1.208,0.178
16.66,-0.257,0.697,0.101
16.67,-0.281,0.833,-0.048
16.68,-0.571,0.717,-0.203
16.69,0.142,0.99,0.065
16.7,-0.246,0.875,0.069
16.71,-0.297,0.506,-0.162
16.72,-0.491,1.212,-0.138
16.73,-0.465,0.937,-0.141
16.74,-0.012,1.273,0.14
16.75,-0.113,1.492,0.13
16.76,-0.015,0.384,-0.035
16.77,-0.451,0.925,-0.152
16.78,-0.141,1.226,0.107
16.79,-0.198,1.155,0.194
16.8,-0.071,0.911,-0.015
16.81,-0.314,0.433,-0.146
16.82,-0.151,1.795,0.111
16.83,-0.107,0.948,0.238
16.84,-0.217,0.904,0.021
16.85,-0.295,0.441,-0.214
16.86,-0.146,2.0,-0.014
16.87,-0.154,1.138,0.173
16.88,0.193,0.487,-0.127
16.89,-0.319,0.844,-0.263
16.9,-0.199,1.649,-0.023
16.91,-0.232,1.396,0.042
16.92,0.219,0.311,-0.045
16.93,-0.382,0.902,-0.213
16.94,-0.278,1.816,-0.0
16.95,-0.275,1.008,0.006
16.96,0.334,0.719,0.034
16.97,-0.43,0.434,-0.166
16.98,-0.614,2.0,0.046
16.99,-0.055,0.804,0.088
17.0,0.142,0.807,0.178
17.01,-0.349,0.422,-0.145
17.02,-0.489,1.962,-0.099
17.03,-0.163,0.963,0.175
17.04,0.017,0.507,0.214
17.05,-0.512,0.897,-0.204
17.06,-0.271,1.735,-0.147
17.07,-0.139,1.221,-0.011
17.08,0.021,0.448,0.15
17.09,-0.465,0.84,-0.281
17.1,-0.294,1.579,-0.105
17.11,-0.036,1.004,0.132
17.12,-0.086,0.835,0.156
17.13,-0.256,0.485,-0.234
17.14,-0.493,1.684,-0.133
17.15,0.124,0.693,0.188
17.16,-0.263,1.032,0.168
17.17,-0.196,0.395,-0.181
17.18,-0.722,1.104,-0.064
17.19,0.026,1.01,0.216
17.2,-0.326,0.729,0.074
17.21,-0.262,0.914,-0.154
17.22,-0.657,0.524,-0.168
17.23,0.077,1.239,0.172
17.24,-0.259,0.536,0.117
17.25,-0.362,0.92,-0.001
17.26,-0.529,0.64,-0.258
17.27,0.176,1.22,0.054
17.28,-0.333,1.04,0.085
17.29,-0.214,0.472,-0.059
17.3,-0.574,0.923,-0.163
17.31,-0.045,0.805,0.291
17.32,-0.521,1.328,0.162
17.33,-0.097,0.643,-0.074
17.34,-0.244,0.75,-0.266
17.35,-0.043,1.052,0.214
17.36,-0.062,1.004,0.07
17.37,-0.251,1.041,-0.104
17.38,-0.281,0.339,-0.148
17.39,-0.262,1.525,0.206
17.4,0.038,0.969,0.044
17.41,-0.206,1.027,-0.14
17.42,-0.116,0.495,-0.17
17.43,-0.141,1.355,0.158
17.44,0.035,1.105,-0.153
17.45,-0.169,0.883,-0.236
17.46,-0.021,0.701,-0.229
17.47,-0.107,1.148,0.073
17.48,0.056,1.471,0.013
17.49,-0.187,0.479,-0.085
17.5,-0.234,0.884,-0.107
17.51,0.003,1.148,0.011
17.52,-0.014,1.207,0.18
17.53,-0.174,0.738,0.054
17.54,-0.296,0.468,-0.068
17.55,-0.162,1.883,0.124
17.56,-0.122,0.882,0.197
17.57,-0.309,0.79,0.076
17.58,-0.242,0.367,-0.076
17.59,-0.189,2.0,0.038
17.6,-0.086,1.054,0.144
17.61,0.035,0.564,-0.003
17.62,-0.355,0.773,-0.163
17.63,-0.159,1.802,0.057
17.64,-0.404,1.444,0.193
17.65,0.25,0.244,-0.034
17.66,-0.494,0.95,-0.181
17.67,-0.243,1.711,0.023
17.68,-0.434,1.115,0.064
17.69,0.464,0.642,-0.023
17.7,-0.416,0.463,-0.222
17.71,-0.365,2.0,-0.073
17.72,-0.199,0.665,0.018
17.73,0.201,0.918,0.257
17.74,-0.293,0.262,-0.173
17.75,-0.543,1.997,-0.008
17.76,0.004,0.729,0.006
17.77,-0.236,0.746,0.336
17.78,-0.385,0.623,-0.128
17.79,-0.806,1.048,0.032
17.8,-0.052,1.18,0.169
17.81,-0.313,0.603,0.259
17.82,-0.392,0.819,-0.195
17.83,-0.653,0.661,-0.17
17.84,-0.05,0.987,0.131
17.85,-0.301,1.161,0.099
17.86,-0.094,0.391,-0.323
17.87,-0.655,0.955,-0.286
17.88,0.211,0.679,0.07
17.89,-0.324,1.465,-0.072
17.9,0.034,0.433,-0.184
17.91,-0.617,0.858,-0.229
17.92,0.028,0.761,0.196
17.93,-0.148,1.177,-0.077
17.94,-0.107,0.881,-0.073
17.95,-0.362,0.42,-0.221
17.96,-0.086,1.289,0.133
17.97,-0.166,0.901,0.178
17.98,-0.168,1.091,0.095
17.99,-0.18,0.495,-0.227
18.0,-0.093,1.302,0.18
18.01,-0.346,1.18,0.232
18.02,-0.252,0.729,0.055
18.03,-0.24,0.904,-0.129
18.04,-0.045,0.995,0.254
18.05,-0.594,1.595,0.248
18.06,-0.138,0.582,-0.052
18.07,-0.208,0.814,-0.204
18.08,0.107,1.456,0.113
18.09,-0.319,1.381,-0.012
18.1,-0.057,0.868,-0.242
18.11,0.087,0.349,-0.254
18.12,-0.073,1.696,0.065
18.13,0.156,1.108,-0.161
18.14,-0.083,1.034,-0.229
18.15,0.036,0.334,-0.151
18.16,-0.063,1.784,0.132
18.17,0.165,1.393,-0.123
18.18,-0.079,0.557,-0.104
18.19,-0.162,0.77,-0.106
18.2,0.041,1.677,0.076
18.21,-0.037,1.572,0.136
18.22,-0.159,0.171,0.102
18.23,-0.175,0.729,-0.066
18.24,-0.081,1.753,0.028
18.25,0.162,1.552,-0.107
18.26,-0.095,0.537,-0.108
18.27,-0.014,0.446,0.004
18.28,-0.009,2.0,-0.019
18.29,0.128,0.986,0.177
18.3,-0.321,0.831,0.083
18.31,-0.118,0.15,0.018
18.32,-0.255,2.0,0.171
18.33,-0.194,0.763,0.279
18.34,-0.385,0.395,0.163
18.35,-0.293,0.625,-0.012
18.36,-0.466,1.777,0.118
18.37,-0.35,1.06,0.159
18.38,-0.097,0.175,0.139
18.39,-0.401,0.792,0.018
18.4,-0.288,1.761,0.039
18.41,-0.375,1.33,0.086
18.42,0.043,0.379,-0.008
18.43,-0.363,0.502,-0.109
18.44,-0.419,2.0,-0.058
18.45,-0.346,0.735,0.16
18.46,0.185,0.793,-0.168
18.47,-0.176,0.28,-0.266
18.48,-0.44,2.0,-0.156
18.49,-0.336,0.684,0.084
18.5,0.461,0.787,-0.105
18.51,-0.289,0.477,-0.295
18.52,-0.343,1.971,-0.107
18.53,-0.393,1.077,-0.007
18.54,0.547,0.488,0.185
18.55,-0.438,0.765,-0.124
18.56,-0.593,1.201,0.081
18.57,-0.222,1.012,0.11
18.58,0.083,0.774,0.248
18.59,-0.307,0.388,-0.089
18.6,-0.663,1.238,-0.049
18.61,-0.018,0.652,0.086
18.62,0.016,1.186,0.336
18.63,-0.342,0.058,-0.084
18.64,-0.832,1.157,-0.105
18.65,0.043,0.642,-0.041
18.66,-0.296,1.271,0.416
18.67,-0.443,0.442,-0.291
18.68,-0.886,0.63,0.031
18.69,0.014,0.923,0.153
18.7,-0.366,1.131,0.354
18.71,-0.287,0.786,-0.392
18.72,-0.664,0.539,-0.132
18.73,0.164,1.05,0.035
18.74,-0.486,1.464,0.16
18.75,0.293,0.466,-0.362
18.76,-0.888,0.895,-0.165
18.77,0.297,0.842,0.139
18.78,-0.421,1.698,-0.174
18.79,0.265,0.423,-0.224
18.8,-0.873,1.003,-0.071
18.81,0.053,0.888,0.284
18.82,-0.213,1.485,-0.055
18.83,0.133,0.781,-0.113
18.84,-0.39,0.589,-0.247
18.85,0.201,1.479,0.19
18.86,-0.25,1.09,0.248
18.87,-0.06,1.151,0.08
18.88,-0.349,0.523,-0.258
18.89,0.153,1.708,0.269
18.9,-0.597,1.244,0.28
18.91,-0.053,0.933,0.081
18.92,-0.348,0.885,-0.011
18.93,0.049,1.384,0.284
18.94,-0.656,1.598,0.156
18.95,-0.128,0.573,-0.112
18.96,-0.186,0.906,-0.106
18.97,0.147,1.654,0.062
18.98,-0.328,1.48,-0.097
18.99,0.065,0.699,-0.344
19.0,0.056,0.412,-0.082
19.01,0.009,2.0,0.052
19.02,0.083,1.174,-0.273
19.03,0.152,0.792,-0.333
19.04,0.158,0.204,-0.199
19.05,-0.176,2.0,0.074
19.06,-0.045,1.176,-0.206
19.07,0.09,0.745,-0.373
19.08,0.017,0.416,0.06
19.09,0.025,2.0,-0.043
19.1,0.203,1.481,-0.337
19.11,0.238,0.09,-0.274
19.12,0.502,0.711,-0.417
19.13,0.032,1.706,0.107
19.14,-0.334,1.293,0.118
19.15,-0.147,0.199,0.064
19.16,-0.159,0.496,0.003
19.17,-0.309,2.0,0.245
19.18,-0.253,0.729,0.343
19.19,-0.377,0.418,0.29
19.2,0.322,0.059,-0.291
19.21,-0.667,2.0,0.075
19.22,-0.271,0.535,0.186
19.23,-0.27,0.527,0.163
19.24,-0.192,0.437,-0.005
19.25,-0.487,2.0,-0.126
19.26,-0.307,1.057,0.157
19.27,0.229,0.237,-0.051
19.28,-1.313,0.83,0.331
19.29,-0.352,1.669,-0.233
19.3,-0.519,1.042,0.209
19.31,0.686,0.617,-0.177
19.32,-0.292,0.643,-0.119
19.33,-0.332,1.923,-0.127
19.34,-0.463,0.57,0.107
19.35,0.931,1.169,-0.066
19.36,-1.283,0.243,0.235
19.37,-0.592,1.823,0.08
19.38,-0.251,0.491,0.115
19.39,0.856,1.144,0.269
19.4,-0.405,0.432,-0.169
19.41,-0.91,0.929,0.047
19.42,-0.451,0.998,0.153
19.43,0.199,0.808,0.398
19.44,-0.126,0.653,-0.353
19.45,-0.59,0.622,-0.096
19.46,-0.1,1.15,0.133
19.47,-0.284,0.978,0.468
19.48,-0.252,0.541,-0.236
19.49,-0.865,0.853,-0.007
19.5,0.199,0.763,0.034
19.51,-0.463,1.667,0.287
19.52,0.118,0.217,-0.253
19.53,-0.919,0.958,-0.229
19.54,0.349,0.623,0.105
19.55,-0.465,1.586,-0.231
19.56,0.267,0.549,-0.332
19.57,-0.414,0.618,-0.447
19.58,0.403,1.298,0.187
19.59,-0.266,1.132,-0.007
19.6,0.068,1.102,-0.07
19.61,-0.474,0.468,-0.213
19.62,0.218,1.63,0.208
19.63,-0.333,1.165,0.27
19.64,-0.14,0.957,0.082
19.65,-0.317,0.806,-0.199
19.66,0.192,1.336,0.21
19.67,-0.678,1.523,0.244
19.68,-0.034,0.57,0.012
19.69,-0.076,0.979,-0.274
19.7,0.104,1.31,0.252
19.71,-0.767,1.375,0.062
19.72,-0.032,0.766,-0.199
19.73,-0.21,0.573,-0.095
19.74,0.076,2.0,0.018
19.75,0.081,1.122,-0.339
19.76,0.151,0.861,-0.465
19.77,0.469,0.272,-0.363
19.78,-0.119,2.0,0.048
19.79,-0.407,1.145,0.024
19.8,0.025,0.299,-0.148
19.81,-0.184,0.501,0.167
19.82,-0.361,1.811,0.188
19.83,-0.66,1.123,0.442
19.84,-0.191,-0.042,0.194
19.85,0.37,0.626,-0.235
19.86,-0.509,1.824,0.171
19.87,-0.266,1.258,0.258
19.88,-0.133,-0.097,0.111
19.89,0.352,0.528,-0.273
19.9,-0.531,2.0,0.196
19.91,-0.506,0.577,0.436
19.92,-0.424,0.358,0.223
19.93,0.108,0.239,-0.219
19.94,-0.887,2.0,0.037
19.95,-0.355,0.517,0.243
19.96,-0.152,0.687,0.149
19.97,-1.073,0.398,0.621
19.98,-0.425,2.0,-0.265
19.99,-0.505,0.92,0.023
20.0,0.812,0.552,-0.354
20.01,-1.314,0.792,0.463
20.02,-0.23,1.399,-0.186
20.03,-0.566,1.006,-0.041
20.04,1.147,0.661,-0.006
20.05,-0.346,0.686,-0.091
20.06,-1.054,0.925,0.169
20.07,-0.204,0.831,0.04
20.08,0.361,1.107,0.35
20.09,-1.083,0.19,0.036
20.1,-0.902,1.075,-0.155
20.11,-0.03,0.458,0.025
20.12,-0.339,1.41,0.587
20.13,-0.088,0.146,-0.177
20.14,-1.012,0.894,-0.004
20.15,0.457,0.951,-0.03
20.16,-0.5,1.429,0.339
20.17,0.136,0.763,-0.365
20.18,-0.756,0.419,-0.387
20.19,0.488,1.4,-0.039
20.2,-0.255,1.248,-0.136
20.21,0.348,1.024,-0.214
20.22,-0.538,0.681,-0.323
20.23,0.558,1.231,0.24
20.24,-0.355,1.543,0.166
20.25,-0.017,0.517,0.097
20.26,-0.223,1.106,-0.472
20.27,0.108,1.14,0.356
20.28,-0.719,1.399,0.241
20.29,-0.204,0.757,0.004
20.3,-0.433,0.748,-0.045
20.31,0.031,1.672,0.098
20.32,-0.139,1.189,-0.078
20.33,-0.01,0.944,-0.409
20.34,-0.167,0.365,0.043
20.35,-0.124,1.905,-0.074
20.36,0.528,1.162,-0.297
20.37,-0.163,0.379,-0.166
20.38,0.561,0.504,-0.374
20.39,-0.279,1.671,0.028
20.4,-0.422,0.879,0.575
20.41,-0.33,0.053,0.162
20.42,0.042,0.823,-0.182
20.43,-0.161,1.47,0.05
20.44,-0.486,1.358,0.19
20.45,0.206,0.271,-0.062
20.46,-0.297,0.835,-0.067
20.47,-0.17,1.325,-0.197
20.48,-0.311,0.853,-0.041
20.49,0.418,0.901,-0.138
20.5,-0.479,0.404,0.096
20.51,-0.338,1.458,0.006
20.52,-0.109,0.772,-0.005
20.53,0.131,0.899,0.062
20.54,-0.352,0.559,-0.157
20.55,-0.285,1.052,0.041
20.56,-0.173,1.095,0.041
20.57,-0.004,0.569,0.167
20.58,-0.521,1.078,-0.217
20.59,-0.207,0.731,0.045
20.6,-0.287,1.137,0.173
20.61,-0.167,0.667,0.152
20.62,-0.441,1.16,-0.22
20.63,-0.2,1.049,0.036
20.64,-0.058,0.742,0.162
20.65,-0.239,1.003,0.028
20.66,-0.09,0.755,-0.329
20.67,-0.237,1.405,-0.071
20.68,-0.001,0.63,0.133
20.69,-0.347,1.087,0.036
20.7,-0.194,0.755,-0.254
20.71,-0.236,1.359,-0.068
20.72,-0.053,0.883,0.129
20.73,-0.167,0.721,0.002
20.74,-0.215,1.212,-0.248
20.75,-0.117,0.841,-0.076
20.76,-0.083,1.242,0.151
20.77,-0.099,0.562,0.039
20.78,-0.367,1.283,-0.173
20.79,-0.115,0.894,-0.073
20.8,-0.141,1.101,0.201
20.81,-0.157,0.825,0.106
20.82,-0.349,0.779,-0.161
20.83,-0.314,1.332,-0.09
20.84,-0.042,0.785,0.23
20.85,-0.312,1.018,0.15
20.86,-0.325,0.637,-0.194
20.87,-0.202,1.267,-0.217
20.88,0.122,1.023,0.114
20.89,-0.12,0.687,0.125
20.9,-0.488,1.075,-0.209
20.91,-0.129,0.872,-0.249
20.92,0.052,1.412,0.079
20.93,-0.031,0.448,0.171
20.94,-0.438,1.165,-0.182
20.95,-0.205,0.947,-0.208
20.96,0.056,1.268,0.133
20.97,-0.05,0.734,0.155
20.98,-0.279,0.756,-0.131
20.99,-0.371,1.39,-0.129
21.0,0.036,0.977,0.206
21.01,-0.237,0.932,0.264
21.02,-0.235,0.608,-0.111
21.03,-0.512,1.229,-0.161
21.04,0.006,1.152,0.215
21.05,-0.168,0.655,0.196
21.06,-0.261,0.917,-0.098
21.07,-0.303,0.882,-0.209
21.08,-0.084,1.588,0.11
21.09,-0.114,0.354,0.235
21.1,-0.426,1.107,-0.049
21.11,-0.369,0.954,-0.212
21.12,-0.029,1.341,0.036
21.13,-0.043,0.706,0.206
21.14,-0.263,0.702,-0.022
21.15,-0.569,1.345,-0.276
21.16,0.098,1.071,0.057
21.17,-0.143,0.947,0.166
21.18,-0.091,0.573,0.018
21.19,-0.535,1.196,-0.257
21.2,0.062,1.271,0.048
21.21,-0.129,0.666,0.194
21.22,-0.169,0.98,0.088
21.23,-0.487,0.781,-0.19
21.24,-0.243,1.59,0.055
21.25,-0.01,0.469,0.191
21.26,-0.243,1.023,0.053
21.27,-0.391,0.807,-0.291
21.28,-0.13,1.389,0.017
21.29,-0.016,0.839,0.184
21.3,-0.187,0.614,0.029
21.31,-0.52,1.207,-0.236
21.32,-0.073,1.018,-0.037
21.33,-0.058,1.206,0.225
21.34,-0.117,0.457,0.09
21.35,-0.493,1.189,-0.23
21.36,-0.201,1.146,-0.111
21.37,0.059,0.983,0.228
21.38,-0.128,0.818,0.058
21.39,-0.34,0.742,-0.279
21.4,-0.318,1.444,-0.117
21.41,0.121,0.81,0.23
21.42,-0.245,0.853,0.127
21.43,-0.248,0.773,-0.156
21.44,-0.365,1.236,-0.134
21.45,0.059,1.137,0.292
21.46,-0.18,0.477,0.141
21.47,-0.516,1.195,-0.089
21.48,-0.293,0.851,-0.21
21.49,0.051,1.328,0.206
21.5,-0.08,0.32,0.17
21.51,-0.583,1.318,-0.064
21.52,-0.334,0.862,-0.121
21.53,-0.111,1.274,0.322
21.54,-0.095,0.545,0.178
21.55,-0.442,0.988,-0.109
21.56,-0.5,1.226,-0.218
21.57,0.019,0.949,0.196
21.58,-0.224,0.908,0.11
21.59,-0.267,0.605,-0.174
21.6,-0.352,1.354,-0.279
21.61,0.158,1.118,0.086
21.62,-0.034,0.667,0.107
21.63,-0.329,0.98,-0.172
21.64,-0.302,0.976,-0.201
21.65,0.002,1.487,0.132
21.66,0.101,0.278,0.176
21.67,-0.442,1.225,-0.086
21.68,-0.369,0.915,-0.228
21.69,-0.002,1.451,0.142
21.7,-0.065,0.52,0.206
21.71,-0.315,0.815,-0.129
21.72,-0.433,1.25,-0.181
21.73,0.078,1.12,0.159
21.74,-0.273,0.795,0.258
21.75,-0.122,0.609,-0.042
21.76,-0.631,1.387,-0.209
21.77,0.071,1.186,0.227
21.78,-0.318,0.594,0.266
21.79,-0.252,0.875,-0.008
21.8,-0.549,0.983,-0.224
21.81,0.026,1.658,0.104
21.82,-0.071,0.329,0.186
21.83,-0.252,1.118,-0.047
21.84,-0.436,0.851,-0.287
21.85,-0.001,1.502,0.073
21.86,-0.096,0.515,0.136
21.87,-0.083,0.828,-0.118
21.88,-0.523,1.233,-0.347
21.89,0.207,1.126,-0.011
21.9,-0.13,0.917,0.144
21.91,0.008,0.521,0.016
21.92,-0.58,1.36,-0.333
21.93,0.179,1.142,-0.026
21.94,-0.153,0.793,0.205
21.95,-0.094,0.79,0.004
21.96,-0.468,0.915,-0.272
21.97,-0.125,1.509,0.078
21.98,0.0,0.454,0.222
21.99,-0.275,0.984,0.079
22.0,-0.421,0.78,-0.233
22.01,-0.11,1.528,0.003
22.02,-0.011,0.649,0.194
22.03,-0.16,0.661,0.077
22.04,-0.49,1.183,-0.255
22.05,-0.123,1.126,-0.042
22.06,-0.097,1.081,0.205
22.07,-0.116,0.384,0.084
22.08,-0.603,1.31,-0.217
22.09,-0.107,1.113,-0.034
22.1,-0.059,0.939,0.191
22.11,-0.116,0.661,0.123
22.12,-0.447,0.909,-0.253
22.13,-0.394,1.354,-0.041
22.14,0.141,0.712,0.237
22.15,-0.263,0.907,0.104
22.16,-0.316,0.751,-0.226
22.17,-0.387,1.342,-0.118
22.18,0.115,0.944,0.179
22.19,-0.207,0.573,0.104
22.2,-0.396,1.267,-0.213
22.21,-0.409,0.817,-0.151
22.22,0.097,1.305,0.207
22.23,-0.073,0.368,0.13
22.24,-0.504,1.274,-0.168
22.25,-0.349,0.848,-0.155
22.26,0.094,1.265,0.18
22.27,-0.18,0.576,0.101
22.28,-0.279,0.919,-0.168
22.29,-0.519,1.328,-0.161
22.3,0.125,0.983,0.173
22.31,-0.176,0.811,0.102
22.32,-0.221,0.788,-0.26
22.33,-0.468,1.324,-0.15
22.34,0.279,0.95,0.194
22.35,-0.275,0.732,0.06
22.36,-0.239,0.897,-0.171
22.37,-0.436,1.023,-0.155
22.38,0.098,1.285,0.194
22.39,-0.132,0.341,0.104
22.4,-0.443,1.329,-0.176
22.41,-0.375,0.728,-0.181
22.42,0.059,1.434,0.225
22.43,-0.137,0.373,0.124
22.44,-0.29,1.171,-0.157
22.45,-0.483,1.0,-0.199
22.46,0.123,1.043,0.217
22.47,-0.268,0.801,0.074
22.48,-0.19,0.741,-0.177
22.49,-0.537,1.26,-0.182
22.5,0.254,1.007,0.156
22.51,-0.195,0.71,0.083
22.52,-0.222,0.937,-0.174
22.53,-0.458,0.963,-0.198
22.54,0.218,1.367,0.181
22.55,-0.123,0.356,0.118
22.56,-0.373,1.298,-0.042
22.57,-0.42,0.781,-0.173
22.58,-0.004,1.487,0.252
22.59,-0.085,0.375,0.151
22.6,-0.385,1.134,-0.063
22.61,-0.484,1.124,-0.208
22.62,0.091,1.197,0.187
22.63,-0.174,0.849,0.103
22.64,-0.272,0.689,-0.045
22.65,-0.591,1.334,-0.161
22.66,0.002,1.006,0.211
22.67,-0.142,0.803,0.093
22.68,-0.273,0.783,-0.164
22.69,-0.449,1.067,-0.223
22.7,0.034,1.425,0.153
22.71,-0.044,0.393,0.097
22.72,-0.339,1.215,-0.139
22.73,-0.275,0.885,-0.261
22.74,0.03,1.491,0.124
22.75,0.044,0.462,0.13
22.76,-0.298,0.989,-0.166
22.77,-0.35,1.111,-0.269
22.78,0.129,1.175,0.093
22.79,-0.075,0.859,0.119
22.8,-0.134,0.584,-0.148
22.81,-0.461,1.427,-0.3
22.82,0.178,1.104,0.135
22.83,-0.092,0.799,0.087
22.84,-0.236,0.732,-0.098
22.85,-0.424,1.065,-0.257
22.86,-0.007,1.497,0.157
22.87,-0.006,0.354,0.136
22.88,-0.407,1.119,-0.037
22.89,-0.272,0.782,-0.277
22.9,-0.092,1.614,0.138
22.91,0.047,0.453,0.225
22.92,-0.37,0.884,-0.022
22.93,-0.325,1.107,-0.211
22.94,-0.051,1.292,0.116
22.95,-0.062,0.8,0.205
22.96,-0.248,0.536,-0.012
22.97,-0.548,1.434,-0.224
22.98,0.062,1.116,0.07
22.99,-0.097,0.844,0.236
23.0,-0.245,0.619,-0.003
23.01,-0.554,1.145,-0.226
23.02,-0.053,1.526,0.074
23.03,0.043,0.479,0.246
23.04,-0.335,0.962,-0.047
23.05,-0.371,0.875,-0.212
23.06,-0.203,1.563,0.159
23.07,-0.044,0.449,0.31
23.08,-0.333,0.851,0.029
23.09,-0.457,1.123,-0.235
23.1,-0.044,1.159,0.034
23.11,-0.01,0.624,0.203
23.12,-0.312,0.626,0.023
23.13,-0.504,1.41,-0.231
23.14,-0.066,1.051,0.094
23.15,-0.053,0.928,0.257
23.16,-0.245,0.437,0.005
23.17,-0.471,1.358,-0.275
23.18,0.023,1.303,0.032
23.19,-0.024,0.661,0.251
23.2,-0.28,0.786,0.0
23.21,-0.508,0.856,-0.19
23.22,-0.074,1.653,0.084
23.23,-0.105,0.383,0.251
23.24,-0.235,0.966,0.0
23.25,-0.476,0.884,-0.295
23.26,0.084,1.581,-0.012
23.27,-0.042,0.792,0.173
23.28,-0.139,0.493,-0.01
23.29,-0.516,1.333,-0.237
23.3,0.032,1.13,-0.03
23.31,-0.119,1.018,0.221
23.32,-0.041,0.428,0.002
23.33,-0.656,1.265,-0.256
23.34,0.085,1.335,-0.039
23.35,-0.087,0.781,0.187
23.36,-0.105,0.739,0.072
23.37,-0.517,0.836,-0.217
23.38,-0.12,1.725,0.0
23.39,-0.028,0.547,0.241
23.4,-0.171,0.879,0.121
23.41,-0.397,0.857,-0.261
23.42,-0.186,1.37,-0.058
23.43,0.027,0.908,0.225
23.44,-0.11,0.476,0.099
23.45,-0.62,1.312,-0.209
23.46,-0.19,0.966,0.056
23.47,-0.211,1.134,0.263
23.48,0.036,0.379,0.147
23.49,-0.58,1.317,-0.264
23.5,-0.213,1.025,-0.022
23.51,0.033,1.037,0.21
23.52,-0.195,0.715,0.125
23.53,-0.362,0.821,-0.176
23.54,-0.548,1.351,-0.081
23.55,0.173,0.885,0.233
23.56,-0.394,0.845,0.18
23.57,-0.229,0.891,-0.183
23.58,-0.558,1.221,-0.126
23.59,0.167,1.1,0.168
23.6,-0.227,0.452,0.136
23.61,-0.413,1.222,-0.094
23.62,-0.535,0.76,-0.119
23.63,0.116,1.479,0.274
23.64,-0.24,0.279,0.149
23.65,-0.342,1.279,-0.111
23.66,-0.518,0.919,-0.248
23.67,0.147,1.281,0.228
23.68,-0.152,0.665,0.066
23.69,-0.306,0.779,-0.165
23.7,-0.538,1.29,-0.268
23.71,0.312,1.072,0.168
23.72,-0.251,0.736,0.128
23.73,-0.202,0.751,-0.098
23.74,-0.65,1.186,-0.19
23.75,0.208,1.323,0.243
23.76,-0.156,0.365,0.1
23.77,-0.352,1.172,-0.086
23.78,-0.441,0.903,-0.253
23.79,0.016,1.599,0.173
23.8,0.007,0.205,0.16
23.81,-0.411,1.173,-0.088
23.82,-0.576,1.035,-0.231
23.83,0.092,1.391,0.227
23.84,-0.156,0.563,0.165
23.85,-0.232,0.732,-0.059
23.86,-0.631,1.457,-0.259
23.87,0.161,1.106,0.245
23.88,-0.266,0.719,0.163
23.89,-0.121,0.706,-0.033
23.9,-0.608,1.331,-0.268
23.91,0.132,1.397,0.131
23.92,-0.193,0.637,0.116
23.93,-0.291,0.902,-0.098
23.94,-0.496,1.03,-0.262
23.95,0.105,1.615,0.115
23.96,0.01,0.283,0.179
23.97,-0.333,1.15,-0.076
23.98,-0.483,0.861,-0.277
23.99,0.066,1.625,0.111
24.0,-0.01,0.38,0.156
24.01,-0.271,0.865,-0.124
24.02,-0.51,1.337,-0.296
24.03,0.15,1.136,0.1
24.04,-0.065,0.851,0.128
24.05,-0.178,0.441,-0.086
24.06,-0.539,1.519,-0.272
24.07,0.142,1.272,0.033
24.08,-0.122,0.632,0.158
24.09,-0.199,0.678,-0.059
24.1,-0.445,1.134,-0.248
24.11,-0.019,1.577,0.165
24.12,-0.001,0.281,0.23
24.13,-0.386,1.004,0.042
24.14,-0.487,0.935,-0.19
24.15,-0.097,1.566,0.105
24.16,-0.045,0.521,0.243
24.17,-0.281,0.68,-0.005
24.18,-0.621,1.302,-0.24
24.19,-0.005,1.299,0.059
24.2,-0.206,0.904,0.268
24.21,-0.092,0.388,0.027
24.22,-0.646,1.502,-0.274
24.23,-0.016,1.114,0.089
24.24,-0.049,0.759,0.167
24.25,-0.167,0.642,0.027
24.26,-0.45,1.047,-0.297
24.27,-0.052,1.513,-0.016
24.28,0.1,0.455,0.198
24.29,-0.198,0.899,-0.009
24.3,-0.43,0.885,-0.24
24.31,-0.111,1.491,0.005
24.32,-0.001,0.558,0.245
24.33,-0.236,0.657,0.078
24.34,-0.556,1.232,-0.224
24.35,0.011,1.259,-0.085
24.36,-0.094,0.98,0.194
24.37,-0.038,0.353,0.1
24.38,-0.636,1.376,-0.236
24.39,-0.066,1.08,-0.051
24.4,-0.147,0.925,0.209
24.41,-0.07,0.637,0.091
24.42,-0.551,1.022,-0.218
24.43,-0.254,1.418,-0.037
24.44,0.051,0.703,0.251
24.45,-0.232,0.893,0.172
24.46,-0.414,0.769,-0.226
24.47,-0.347,1.368,-0.084
24.48,0.115,0.892,0.134
24.49,-0.203,0.61,0.1
24.5,-0.388,1.224,-0.207
24.51,-0.371,0.848,-0.13
24.52,0.051,1.395,0.174
24.53,-0.127,0.282,0.101
24.54,-0.446,1.347,-0.182
24.55,-0.389,0.842,-0.182
24.56,0.053,1.193,0.204
24.57,-0.165,0.567,0.131
24.58,-0.372,0.977,-0.151
24.59,-0.544,1.25,-0.163
24.6,0.181,0.905,0.218
24.61,-0.269,0.851,0.122
24.62,-0.262,0.747,-0.2
24.63,-0.564,1.236,-0.199
24.64,0.233,1.09,0.228
24.65,-0.197,0.535,0.064
24.66,-0.288,1.134,-0.165
24.67,-0.438,0.858,-0.203
24.68,0.142,1.466,0.226
24.69,-0.048,0.227,0.098
24.7,-0.401,1.304,-0.11
24.71,-0.418,0.881,-0.211
24.72,0.091,1.372,0.221
24.73,-0.105,0.337,0.121
24.74,-0.366,1.149,-0.138
24.75,-0.474,1.05,-0.211
24.76,0.208,1.219,0.168
24.77,-0.173,0.657,0.103
24.78,-0.155,0.757,-0.116
24.79,-0.653,1.393,-0.194
24.8,0.247,1.051,0.232
24.81,-0.205,0.704,0.074
24.82,-0.208,0.829,-0.092
24.83,-0.515,1.145,-0.202
24.84,0.215,1.407,0.208
24.85,-0.097,0.286,0.17
24.86,-0.423,1.173,-0.035
24.87,-0.395,0.93,-0.273
24.88,0.029,1.543,0.162
24.89,0.008,0.331,0.087
24.9,-0.371,1.009,-0.125
24.91,-0.319,1.204,-0.325
24.92,0.087,1.225,0.138
24.93,-0.066,0.624,0.145
24.94,-0.215,0.647,-0.127
24.95,-0.503,1.49,-0.336
24.96,0.157,1.151,0.079
24.97,-0.083,0.752,0.116
24.98,-0.295,0.683,-0.077
24.99,-0.428,1.167,-0.274
25.0,-0.066,1.501,0.141
25.01,-0.011,0.323,0.204
25.02,-0.438,1.021,-0.026
25.03,-0.465,0.861,-0.277
25.04,0.015,1.839,0.098
25.05,0.036,0.282,0.175
25.06,-0.316,0.911,-0.016
25.07,-0.016,0.737,0.135
25.08,-0.26,0.55,-0.049
25.09,-0.597,1.48,-0.218
25.1,0.076,1.183,0.256
25.11,-0.24,0.71,0.258
25.12,-0.274,0.724,-0.022
25.13,-0.516,1.186,-0.283
25.14,0.102,1.485,0.086
25.15,0.02,0.375,0.103
25.16,-0.35,1.012,-0.091
25.17,-0.334,0.917,-0.267
25.18,-0.034,1.683,0.109
25.19,0.017,0.342,0.193
25.2,-0.32,0.871,-0.031
25.21,-0.394,1.165,-0.272
25.22,-0.058,1.26,0.134
25.23,-0.079,0.731,0.171
25.24,-0.193,0.455,-0.06
25.25,-0.47,1.51,-0.316
25.26,0.046,1.103,0.106
25.27,-0.169,0.79,0.277
25.28,-0.197,0.565,0.05
25.29,-0.574,1.179,-0.209
25.3,-0.051,1.433,0.104
25.31,-0.075,0.444,0.265
25.32,-0.306,0.923,0.092
25.33,-0.533,0.801,-0.197
25.34,-0.216,1.651,0.051
25.35,-0.033,0.519,0.297
25.36,-0.25,0.758,0.026
25.37,-0.569,1.104,-0.242
25.38,-0.106,1.363,0.019
25.39,-0.027,0.896,0.144
25.4,-0.088,0.393,0.023
25.41,-0.6,1.452,-0.247
25.42,0.018,1.205,-0.098
25.43,-0.114,0.969,0.193
25.44,0.011,0.54,-0.04
25.45,-0.534,1.141,-0.231
25.46,-0.019,1.473,-0.07
25.47,-0.125,0.722,0.228
25.48,-0.121,0.738,0.018
25.49,-0.567,0.979,-0.204
25.5,-0.17,1.621,-0.015
25.51,0.036,0.506,0.218
25.52,-0.229,0.872,0.024
25.53,-0.373,0.922,-0.263
25.54,-0.112,1.516,-0.057
25.55,0.041,0.737,0.177
25.56,-0.008,0.566,0.002
25.57,-0.604,1.294,-0.218
25.58,-0.003,0.993,-0.021
25.59,-0.07,1.132,0.163
25.6,0.064,0.383,0.081
25.61,-0.621,1.366,-0.249
25.62,-0.18,1.004,-0.011
25.63,-0.074,0.891,0.223
25.64,-0.105,0.703,0.066
25.65,-0.494,0.89,-0.23
25.66,-0.33,1.412,0.027
25.67,0.066,0.719,0.227
25.68,-0.258,0.869,0.156
25.69,-0.319,0.808,-0.255
25.7,-0.381,1.181,-0.092
25.71,0.112,0.985,0.195
25.72,-0.193,0.477,0.155
25.73,-0.471,1.279,-0.16
25.74,-0.434,0.77,-0.046
25.75,0.068,1.297,0.222
25.76,-0.144,0.36,0.156
25.77,-0.543,1.255,-0.162
25.78,-0.333,0.923,-0.124
25.79,-0.009,1.102,0.166
25.8,-0.1,0.7,0.075
25.81,-0.329,0.797,-0.187
25.82,-0.462,1.331,-0.154
25.83,0.251,0.968,0.184
25.84,-0.248,0.732,0.134
25.85,-0.25,0.818,-0.118
25.86,-0.544,1.206,-0.183
25.87,0.184,1.225,0.183
25.88,-0.132,0.358,0.051
25.89,-0.371,1.262,-0.107
25.9,-0.457,0.835,-0.189
25.91,0.111,1.536,0.205
25.92,-0.055,0.215,0.116
25.93,-0.368,1.236,-0.136
25.94,-0.381,1.074,-0.216
25.95,0.201,1.348,0.199
25.96,-0.089,0.539,0.077
25.97,-0.198,0.814,-0.133
25.98,-0.586,1.411,-0.228
25.99,0.231,1.044,0.248
26.0,-0.344,0.698,0.137
26.01,-0.236,0.742,-0.078
26.02,-0.545,1.192,-0.213
26.03,0.204,1.322,0.251
26.04,-0.149,0.332,0.126
26.05,-0.301,1.15,-0.126
26.06,-0.47,0.93,-0.2
26.07,0.155,1.606,0.22
26.08,-0.016,0.128,0.092
26.09,-0.317,1.24,-0.109
26.1,-0.442,1.128,-0.303
26.11,0.215,1.377,0.162
26.12,-0.042,0.539,0.056
26.13,-0.213,0.766,-0.157
26.14,-0.512,1.461,-0.275
26.15,0.177,1.133,0.291
26.16,-0.222,0.708,0.172
26.17,-0.222,0.703,-0.063
26.18,-0.588,1.296,-0.246
26.19,0.227,1.35,0.187
26.2,-0.075,0.358,0.091
26.21,-0.303,1.081,-0.063
26.22,-0.45,0.944,-0.215
26.23,0.077,1.736,0.18
26.24,-0.014,0.151,0.162
26.25,-0.442,1.141,-0.032
26.26,-0.432,1.035,-0.248
26.27,0.024,1.43,0.312
26.28,-0.011,0.293,0.105
26.29,-0.265,0.987,-0.078
26.3,-0.417,1.327,-0.272
26.31,0.196,1.213,0.237
26.32,-0.194,0.648,0.134
26.33,-0.168,0.681,-0.099
26.34,-0.657,1.504,-0.22
26.35,0.222,1.164,0.281
26.36,-0.248,0.524,0.155
26.37,-0.246,0.925,-0.044
26.38,-0.527,1.114,-0.25
26.39,0.157,1.606,0.217
26.4,-0.009,0.157,0.08
26.41,-0.385,1.203,-0.063
26.42,-0.367,0.906,-0.264
26.43,0.029,1.583,0.245
26.44,-0.028,0.246,0.133
26.45,-0.311,0.976,-0.119
26.46,-0.565,1.195,-0.274
26.47,0.131,1.261,0.27
26.48,-0.145,0.712,0.101
26.49,-0.212,0.631,-0.072
26.5,-0.557,1.434,-0.321
26.51,0.151,1.159,0.157
26.52,-0.15,0.589,0.157
26.53,-0.379,0.865,-0.02
26.54,-0.481,1.092,-0.242
26.55,0.138,1.622,0.094
26.56,-0.006,0.154,0.118
26.57,-0.372,1.168,-0.09
26.58,-0.47,0.937,-0.235
26.59,-0.005,1.598,0.248
26.6,-0.079,0.342,0.194
26.61,-0.465,0.832,-0.045
26.62,-0.467,1.287,-0.259
26.63,0.024,1.314,0.177
26.64,-0.163,0.676,0.157
26.65,-0.178,0.547,-0.058
26.66,-0.624,1.482,-0.267
26.67,0.132,1.309,0.187
26.68,-0.216,0.509,0.141
26.69,-0.246,0.87,-0.049
26.7,-0.484,1.134,-0.235
26.71,0.087,1.644,0.195
26.72,-0.007,0.143,0.097
26.73,-0.374,1.129,-0.081
26.74,-0.398,0.848,-0.33
26.75,0.124,1.761,0.05
26.76,0.003,0.273,0.13
26.77,-0.321,0.93,-0.101
26.78,-0.462,1.29,-0.293
26.79,0.174,1.345,0.099
26.8,-0.084,0.704,0.145
26.81,-0.184,0.553,-0.087
26.82,-0.574,1.515,-0.267
26.83,0.263,1.317,0.06
26.84,-0.102,0.574,0.126
26.85,-0.155,0.81,-0.106
26.86,-0.504,1.158,-0.327
26.87,0.171,1.603,0.085
26.88,0.005,0.221,0.141
26.89,-0.463,1.069,0.028
26.9,-0.469,0.929,-0.217
26.91,-0.057,1.709,0.26
26.92,-0.053,0.228,0.186
26.93,-0.374,0.972,0.03
26.94,-0.479,1.231,-0.258
26.95,0.156,1.345,0.134
26.96,-0.129,0.702,0.115
26.97,-0.18,0.598,-0.032
26.98,-0.64,1.493,-0.287
26.99,0.212,1.298,0.147
27.0,-0.154,0.569,0.121
27.01,-0.23,0.821,-0.007
27.02,-0.576,1.127,-0.281
27.03,0.13,1.647,0.163
27.04,0.042,0.227,0.144
27.05,-0.419,1.08,0.049
27.06,-0.357,0.876,-0.245
27.07,-0.076,1.592,0.068
27.08,1.236,-0.016,-0.781
27.09,-0.251,0.511,-0.397
27.1,0.45,1.285,0.055
27.11,-0.01,2.0,-0.206
27.12,0.067,0.106,-0.241
27.13,-0.152,0.061,-0.145
27.14,-0.179,2.0,0.131
27.15,0.045,1.259,0.199
27.16,-0.299,0.645,0.119
27.17,-0.211,0.516,-0.073
27.18,-0.684,1.586,-0.102
27.19,0.088,1.251,0.145
27.2,-0.2,0.365,0.169
27.21,-0.33,1.034,-0.037
27.22,-0.443,0.9,-0.184
27.23,-0.046,1.77,0.093
27.24,-0.003,0.089,0.15
27.25,-0.246,1.093,-0.117
27.26,-0.463,1.059,-0.182
27.27,0.091,1.472,0.153
27.28,-0.11,0.452,0.149
27.29,-0.25,0.678,0.02
27.3,-0.669,1.472,-0.184
27.31,0.108,1.187,0.215
27.32,-0.239,0.667,0.216
27.33,-0.158,0.629,-0.038
27.34,-0.584,1.319,-0.251
27.35,0.253,1.406,0.051
27.36,-0.138,0.386,0.152
27.37,-0.225,1.017,0.013
27.38,-0.552,0.962,-0.224
27.39,0.103,1.636,0.128
27.4,0.013,0.227,0.143
27.41,-0.314,1.142,-0.01
27.42,-0.471,1.015,-0.211
27.43,0.017,1.446,0.151
27.44,-0.056,0.546,0.093
27.45,-0.194,0.672,-0.032
27.46,-0.525,1.471,-0.241
27.47,0.13,1.169,0.069
27.48,-0.129,0.79,0.142
27.49,-0.172,0.606,0.011
27.5,-0.564,1.376,-0.231
27.51,0.116,1.332,0.102
27.52,-0.072,0.463,0.137
27.53,-0.241,0.979,-0.042
27.54,-0.484,0.962,-0.231
27.55,-0.043,1.556,0.147
27.56,0.057,0.284,0.157
27.57,-0.306,1.051,-0.07
27.58,-0.365,1.003,-0.236
27.59,-0.149,1.42,0.119
27.6,0.027,0.575,0.145
27.61,-0.196,0.611,0.046
27.62,-0.572,1.467,-0.223
27.63,0.026,1.074,0.131
27.64,-0.099,0.834,0.167
27.65,-0.232,0.55,0.036
27.66,-0.575,1.345,-0.218
27.67,-0.065,1.211,0.163
27.68,-0.015,0.528,0.216
27.69,-0.279,0.936,0.024
27.7,-0.532,0.934,-0.197
27.71,-0.123,1.562,0.141
27.72,0.027,0.359,0.207
27.73,-0.348,1.009,0.01
27.74,-0.439,1.085,-0.208
27.75,-0.168,1.431,0.121
27.76,-0.071,0.626,0.198
27.77,-0.245,0.596,0.051
27.78,-0.602,1.49,-0.191
27.79,-0.079,0.943,0.134
27.8,-0.1,0.923,0.188
27.81,-0.284,0.533,-0.015
27.82,-0.544,1.334,-0.228
27.83,0.021,1.215,0.069
27.84,-0.012,0.528,0.138
27.85,-0.139,0.944,-0.042
27.86,-0.507,1.048,-0.234
27.87,-0.038,1.616,0.141
27.88,0.009,0.281,0.206
27.89,-0.265,1.036,0.002
27.9,-0.461,0.933,-0.217
27.91,0.035,1.538,0.131
27.92,0.016,0.289,0.13
27.93,-0.292,0.947,-0.046
27.94,-0.463,1.283,-0.205
27.95,0.111,1.226,0.093
27.96,-0.077,0.657,0.136
27.97,-0.16,0.638,-0.038
27.98,-0.636,1.505,-0.163
27.99,0.162,1.126,0.097
28.0,-0.198,0.642,0.167
28.01,-0.217,0.814,-0.026
28.02,-0.618,1.159,-0.154
28.03,0.087,1.43,0.125
28.04,-0.01,0.233,0.085
28.05,-0.286,1.135,-0.05
28.06,-0.431,0.974,-0.219
28.07,0.072,1.516,0.087
28.08,0.05,0.303,0.101
28.09,-0.283,0.955,-0.057
28.1,-0.472,1.266,-0.189
28.11,0.045,1.193,0.198
28.12,-0.119,0.642,0.109
28.13,-0.158,0.654,-0.062
28.14,-0.517,1.492,-0.22
28.15,0.146,1.138,0.101
28.16,-0.108,0.583,0.102
28.17,-0.247,0.875,-0.121
28.18,-0.465,1.08,-0.168
28.19,0.128,1.535,0.084
28.2,-0.053,0.102,0.09
28.21,-0.297,1.21,-0.079
28.22,-0.447,0.933,-0.171
28.23,0.023,1.535,0.212
28.24,-0.076,0.238,0.131
28.25,-0.369,1.045,-0.102
28.26,-0.414,1.265,-0.167
28.27,0.063,1.205,0.225
28.28,-0.187,0.603,0.128
28.29,-0.231,0.683,-0.101
28.3,-0.529,1.52,-0.202
28.31,0.142,1.106,0.195
28.32,-0.197,0.596,0.114
28.33,-0.332,0.887,-0.139
28.34,-0.414,1.202,-0.097
28.35,0.048,1.463,0.217
28.36,-0.074,0.171,0.07
28.37,-0.411,1.278,-0.096
28.38,-0.384,0.981,-0.11
28.39,0.048,1.511,0.248
28.4,-0.04,0.265,0.091
28.41,-0.457,1.071,-0.081
28.42,-0.365,1.299,-0.146
28.43,0.06,1.134,0.248
28.44,-0.239,0.623,0.117
28.45,-0.277,0.696,-0.162
28.46,-0.455,1.532,-0.165
28.47,0.176,1.014,0.245
28.48,-0.187,0.584,0.061
28.49,-0.344,0.951,-0.129
28.5,-0.414,1.179,-0.144
28.51,0.081,1.305,0.213
28.52,-0.042,0.036,-0.014
28.53,-0.488,1.007,-0.072
28.54,-0.39,0.862,-0.103
28.55,-0.07,1.296,0.184
28.56,-0.239,0.196,-0.015
28.57,-0.343,1.114,-0.11
28.58,-0.276,1.232,-0.138
28.59,0.103,0.946,0.195
28.6,-0.138,0.736,0.012
28.61,-0.421,0.743,-0.161
28.62,-0.39,1.483,-0.094
28.63,0.162,0.884,0.25
28.64,-0.263,0.66,0.1
28.65,-0.397,0.954,-0.193
28.66,-0.441,1.102,-0.023
28.67,0.134,1.163,0.207
28.68,-0.124,0.335,0.058
28.69,-0.489,1.398,-0.183
28.7,-0.362,0.881,-0.033
28.71,0.025,1.178,0.216
28.72,-0.125,0.336,0.056
28.73,-0.573,1.391,-0.155
28.74,-0.18,1.027,0.026
28.75,-0.009,0.998,0.188
28.76,-0.182,0.652,-0.004
28.77,-0.443,0.94,-0.177
28.78,-0.266,1.554,-0.024
28.79,0.095,0.603,0.179
28.8,-0.286,0.897,0.028
28.81,-0.417,0.794,-0.2
28.82,-0.239,1.584,-0.048
28.83,-0.01,0.691,0.172
28.84,-0.187,0.615,-0.009
28.85,-0.573,1.286,-0.244
28.86,-0.07,1.198,-0.012
28.87,-0.1,1.033,0.141
28.88,-0.101,0.402,0.025
28.89,-0.616,1.454,-0.221
28.9,-0.031,1.081,0.026
28.91,-0.107,0.838,0.171
28.92,-0.137,0.702,0.022
28.93,-0.566,1.141,-0.206
28.94,-0.098,1.517,0.047
28.95,0.058,0.417,0.195
28.96,-0.292,0.963,-0.009
28.97,-0.428,0.957,-0.214
28.98,-0.108,1.546,0.06
28.99,-0.047,0.521,0.174
29.0,-0.167,0.733,0.011
29.01,-0.566,1.358,-0.219
29.02,0.052,1.085,0.121
29.03,-0.115,0.829,0.102
29.04,-0.144,0.503,-0.046
29.05,-0.615,1.489,-0.211
29.06,0.094,1.135,0.124
29.07,-0.113,0.615,0.084
29.08,-0.207,0.827,-0.022
29.09,-0.509,1.122,-0.202
29.1,0.037,1.422,0.141
29.11,0.107,0.202,0.074
29.12,-0.37,1.172,-0.086
29.13,-0.39,0.913,-0.21
29.14,0.058,1.583,0.078
29.15,-0.064,0.342,0.045
29.16,-0.221,0.84,-0.064
29.17,-0.418,1.403,-0.233
29.18,0.049,1.141,0.178
29.19,-0.165,0.625,0.146
29.2,-0.239,0.633,-0.065
29.21,-0.554,1.459,-0.192
29.22,0.094,1.219,0.187
29.23,-0.198,0.444,0.114
29.24,-0.282,1.004,-0.099
29.25,-0.439,1.067,-0.155
29.26,0.082,1.513,0.24
29.27,-0.095,0.089,0.124
29.28,-0.444,1.3,-0.071
29.29,-0.386,1.036,-0.126
29.3,0.098,1.495,0.175
29.31,-0.092,0.26,0.044
29.32,-0.339,1.044,-0.143
29.33,-0.477,1.285,-0.19
29.34,0.183,1.043,0.173
29.35,-0.289,0.716,0.014
29.36,-0.255,0.726,-0.151
29.37,-0.51,1.368,-0.151
29.38,0.208,1.002,0.212
29.39,-0.26,0.469,0.014
29.4,-0.336,0.904,-0.134
29.41,-0.396,1.059,-0.03
29.42,-0.031,1.147,0.157
29.43,-0.073,0.287,0.055
29.44,-0.491,1.379,-0.203
29.45,-0.218,0.905,-0.072
29.46,0.033,1.175,0.178
29.47,-0.187,0.52,-0.03
29.48,-0.461,1.025,-0.193
29.49,-0.259,1.217,-0.023
29.5,0.234,0.798,0.215
29.51,-0.256,0.792,0.016
29.52,-0.457,0.925,-0.226
29.53,-0.187,1.544,0.055
29.54,-0.021,0.523,0.214
29.55,-0.299,0.934,-0.006
29.56,-0.483,0.924,-0.208
29.57,-0.122,1.512,0.07
29.58,-0.076,0.664,0.148
29.59,-0.172,0.6,0.004
29.6,-0.554,1.469,-0.197
29.61,0.041,1.052,0.122
29.62,-0.073,0.909,0.158
29.63,-0.129,0.497,0.015
29.64,-0.584,1.484,-0.164
29.65,0.039,1.226,0.126
29.66,-0.109,0.51,0.078
29.67,-0.187,0.947,-0.039
29.68,-0.487,1.004,-0.176
29.69,0.078,1.52,0.151
29.7,0.013,0.145,0.084
29.71,-0.377,1.123,-0.081
29.72,-0.375,0.988,-0.182
29.73,0.043,1.436,0.165
29.74,-0.138,0.403,0.087
29.75,-0.222,0.774,-0.091
29.76,-0.515,1.468,-0.185
29.77,0.07,1.134,0.225
29.78,-0.27,0.622,0.116
29.79,-0.17,0.725,-0.087
29.8,-0.497,1.43,-0.156
29.81,0.202,1.216,0.233
29.82,-0.218,0.37,0.055
29.83,-0.298,1.121,-0.145
29.84,-0.351,1.018,-0.173
29.85,0.08,1.483,0.197
29.86,-0.048,0.09,0.034
29.87,-0.469,1.404,-0.125
29.88,-0.433,0.89,-0.094
29.89,0.115,1.229,0.151
29.9,-0.169,0.51,0.035
29.91,-0.414,0.938,-0.154
29.92,-0.391,1.268,-0.081
29.93,0.126,0.799,0.243
29.94,-0.269,0.798,0.083
29.95,-0.414,0.728,-0.175
29.96,-0.389,1.326,-0.033
29.97,0.122,0.828,0.203
29.98,-0.253,0.563,0.026
29.99,-0.471,1.136,-0.154
30.0,-0.215,0.956,0.029
30.01,0.009,1.121,0.174
30.02,-0.096,0.354,-0.001
30.03,-0.572,1.455,-0.191
30.04,-0.1,1.106,0.025
30.05,-0.141,0.874,0.152
30.06,-0.214,0.708,-0.004
30.07,-0.513,1.08,-0.125
30.08,-0.101,1.626,0.109
30.09,-0.073,0.32,0.22
30.1,-0.271,0.979,0.01
30.11,-0.519,1.095,-0.152
30.12,-0.062,1.52,0.143
30.13,-0.028,0.405,0.093
30.14,-0.206,0.829,-0.037
30.15,-0.474,1.408,-0.211
30.16,0.168,1.169,0.116
30.17,-0.233,0.769,0.048
30.18,-0.138,0.582,-0.066
30.19,-0.563,1.532,-0.203
30.2,0.149,1.175,0.106
30.21,-0.14,0.557,0.121
30.22,-0.332,0.882,-0.084
30.23,-0.448,1.087,-0.131
30.24,0.046,1.628,0.2
30.25,-0.039,0.12,0.065
30.26,-0.472,1.227,-0.104
30.27,-0.274,1.019,-0.129
30.28,0.024,1.568,0.207
30.29,-0.01,0.238,0.043
30.3,-0.385,0.975,-0.124
30.31,-0.338,1.375,-0.178
30.32,0.139,1.051,0.159
30.33,-0.23,0.681,0.043
30.34,-0.414,0.722,-0.135
30.35,-0.379,1.402,-0.009
30.36,0.129,0.833,0.18
30.37,-0.199,0.801,0.074
30.38,-0.309,0.856,-0.198
30.39,-0.403,1.245,0.026
30.4,0.055,0.933,0.201
30.41,-0.176,0.528,0.022
30.42,-0.497,1.285,-0.208
30.43,-0.138,0.933,-0.011
30.44,0.026,1.179,0.111
30.45,-0.085,0.409,-0.003
30.46,-0.511,1.293,-0.19
30.47,-0.061,1.157,0.039
30.48,-0.042,0.819,0.107
30.49,-0.171,0.825,0.01
30.5,-0.479,0.652,-0.227
30.51,-0.144,1.618,0.053
30.52,0.005,0.643,0.091
30.53,-0.272,1.102,-0.002
30.54,-0.376,0.461,-0.142
30.55,-0.198,1.387,0.098
30.56,-0.029,0.937,0.113
30.57,-0.064,0.725,-0.053
30.58,-0.524,0.948,-0.118
30.59,0.001,1.042,0.116
30.6,-0.258,1.204,0.046
30.61,0.01,0.576,-0.093
30.62,-0.581,0.934,-0.189
30.63,0.002,1.125,0.118
30.64,-0.221,0.914,0.06
30.65,-0.17,0.96,-0.094
30.66,-0.404,0.395,-0.067
30.67,-0.193,1.423,0.154
30.68,-0.176,0.59,0.045
30.69,-0.302,1.121,-0.075
30.7,-0.253,0.577,-0.033
30.71,-0.106,1.259,0.16
30.72,-0.285,0.844,0.014
30.73,-0.297,0.66,-0.059
30.74,-0.395,1.161,-0.059
30.75,0.006,0.832,0.156
30.76,-0.349,1.117,-0.011
30.77,-0.239,0.381,-0.14
30.78,-0.391,1.387,-0.091
30.79,0.018,0.913,0.08
30.8,-0.292,0.766,-0.025
30.81,-0.405,0.75,-0.151
30.82,-0.291,1.339,0.017
30.83,-0.073,1.198,0.205
30.84,0.011,0.487,0.007
30.85,-0.466,1.011,-0.152
30.86,-0.231,1.455,0.025
30.87,-0.1,1.053,0.166
30.88,-0.012,0.801,0.003
30.89,-0.381,0.619,-0.114
30.9,-0.301,1.986,0.082
30.91,-0.076,0.45,0.121
30.92,-0.136,1.136,0.02
30.93,-0.277,0.36,-0.15
30.94,-0.326,1.945,0.012
30.95,-0.008,0.911,0.115
30.96,-0.012,0.756,0.021
30.97,-0.343,0.751,-0.118
30.98,-0.082,1.427,0.133
30.99,-0.248,1.283,0.078
31.0,0.068,0.567,-0.046
31.01,-0.518,0.92,-0.168
31.02,0.042,1.586,0.135
31.03,-0.249,1.109,0.035
31.04,0.04,0.755,-0.054
31.05,-0.384,0.528,-0.151
31.06,-0.122,1.374,0.062
31.07,-0.118,0.679,0.001
31.08,-0.16,1.206,-0.114
31.09,-0.217,0.3,-0.038
31.1,-0.259,1.35,0.123
31.11,-0.163,0.765,0.093
31.12,-0.249,0.866,-0.124
31.13,-0.406,0.764,-0.122
31.14,-0.177,1.135,0.156
31.15,-0.236,0.942,-0.024
31.16,-0.248,0.512,-0.119
31.17,-0.257,1.407,-0.061
31.18,0.146,0.779,0.09
31.19,-0.278,0.974,-0.054
31.2,-0.289,0.451,-0.169
31.21,-0.379,1.38,-0.097
31.22,0.078,1.14,0.136
31.23,-0.064,0.601,-0.031
31.24,-0.409,1.007,-0.155
31.25,-0.331,1.015,-0.011
31.26,-0.051,1.371,0.2
31.27,-0.044,0.448,0.011
31.28,-0.467,1.009,-0.142
31.29,-0.288,1.137,0.043
31.3,-0.137,1.059,0.212
31.31,-0.118,0.777,0.036
31.32,-0.42,0.631,-0.146
31.33,-0.333,1.62,0.06
31.34,0.017,0.74,0.211
31.35,-0.204,0.973,0.012
31.36,-0.319,0.597,-0.203
31.37,-0.249,1.512,0.03
31.38,0.033,0.946,0.127
31.39,-0.122,0.599,-0.059
31.4,-0.454,1.054,-0.204
31.41,-0.084,1.225,0.029
31.42,-0.118,1.246,0.184
31.43,-0.029,0.449,0.006
31.44,-0.605,1.128,-0.178
31.45,-0.048,1.311,0.017
31.46,-0.088,0.928,0.138
31.47,-0.07,0.871,-0.035
31.48,-0.521,0.594,-0.171
31.49,-0.203,1.578,0.108
31.5,-0.018,0.718,0.146
31.51,-0.212,0.962,-0.059
31.52,-0.383,0.636,-0.09
31.53,-0.157,1.421,0.113
31.54,-0.101,0.862,0.137
31.55,-0.174,0.699,-0.08
31.56,-0.441,1.137,-0.072
31.57,0.007,1.069,0.141
31.58,-0.259,1.061,0.118
31.59,-0.078,0.597,-0.065
31.6,-0.427,1.188,-0.077
31.61,0.012,1.224,0.148
31.62,-0.239,0.725,0.032
31.63,-0.215,0.972,-0.124
31.64,-0.297,0.823,-0.062
31.65,-0.177,1.646,0.167
31.66,-0.048,0.322,0.08
31.67,-0.347,1.285,-0.109
31.68,-0.224,0.754,-0.046
31.69,-0.082,1.51,0.176
31.7,-0.112,0.526,0.026
31.71,-0.269,0.869,-0.134
31.72,-0.312,1.346,-0.108
31.73,-0.033,1.065,0.196
31.74,-0.198,0.823,0.068
31.75,-0.302,0.603,-0.151
31.76,-0.369,1.373,-0.089
31.77,0.082,1.127,0.183
31.78,-0.182,0.565,0.052
31.79,-0.355,0.984,-0.162
31.8,-0.325,1.025,-0.091
31.81,-0.028,1.469,0.183
31.82,-0.03,0.284,0.012
31.83,-0.432,1.163,-0.129
31.84,-0.356,1.072,-0.053
31.85,-0.052,1.208,0.179
31.86,-0.097,0.571,0.008
31.87,-0.397,0.786,-0.176
31.88,-0.397,1.479,0.005
31.89,0.036,0.876,0.148
31.9,-0.27,0.876,0.033
31.91,-0.208,0.527,-0.184
31.92,-0.436,1.504,0.029
31.93,0.069,0.933,0.171
31.94,-0.229,0.653,0.016
31.95,-0.363,0.591,-0.196
31.96,-0.251,1.422,0.064
31.97,-0.038,1.12,0.148
31.98,-0.06,0.452,-0.037
31.99,-0.483,1.196,-0.234
32.0,-0.109,1.091,0.048
32.01,-0.1,1.233,0.12
32.02,-0.047,0.513,-0.011
32.03,-0.469,1.0,-0.149
32.04,-0.129,1.396,0.049
32.05,-0.032,0.913,0.125
32.06,-0.1,0.913,-0.046
32.07,-0.401,0.507,-0.193
32.08,-0.212,1.739,0.068
32.09,-0.008,0.719,0.143
32.1,-0.177,0.982,-0.028
32.11,-0.352,0.588,-0.226
32.12,-0.167,1.539,0.066
32.13,-0.042,1.094,0.087
32.14,-0.026,0.524,-0.069
32.15,-0.532,1.169,-0.12
32.16,-0.003,1.045,0.07
32.17,-0.308,1.129,0.097
32.18,-0.01,0.614,-0.025
32.19,-0.515,0.855,-0.126
32.2,-0.065,1.33,0.058
32.21,-0.133,0.847,0.02
32.22,-0.142,0.969,-0.11
32.23,-0.445,0.407,-0.11
32.24,-0.16,1.514,0.173
32.25,-0.124,0.567,0.111
32.26,-0.261,0.959,-0.091
32.27,-0.3,0.841,-0.121
32.28,-0.1,1.244,0.123
32.29,-0.216,0.729,0.012
32.3,-0.172,0.705,-0.13
32.31,-0.496,1.044,-0.084
32.32,-0.014,0.888,0.126
32.33,-0.28,1.083,0.058
32.34,-0.177,0.567,-0.093
32.35,-0.358,1.108,-0.101
32.36,-0.011,1.17,0.131
32.37,-0.172,0.534,0.022
32.38,-0.404,0.957,-0.113
32.39,-0.209,0.841,-0.038
32.4,-0.172,1.385,0.147
32.41,-0.116,0.324,0.056
32.42,-0.39,1.03,-0.131
32.43,-0.329,1.037,-0.109
32.44,-0.06,1.054,0.161
32.45,-0.233,0.791,0.019
32.46,-0.284,0.603,-0.116
32.47,-0.402,1.56,-0.033
32.48,0.008,0.8,0.185
32.49,-0.261,0.951,0.05
32.5,-0.284,0.531,-0.152
32.51,-0.48,1.458,-0.069
32.52,0.013,0.986,0.126
32.53,-0.211,0.587,-0.024
32.54,-0.387,0.999,-0.115
32.55,-0.32,1.196,-0.025
32.56,-0.082,1.262,0.178
32.57,-0.086,0.379,0.034
32.58,-0.466,1.088,-0.131
32.59,-0.274,1.368,0.016
32.6,-0.1,1.03,0.17
32.61,-0.11,0.769,0.041
32.62,-0.412,0.579,-0.145
32.63,-0.348,1.886,0.055
32.64,-0.033,0.724,0.219
32.65,-0.21,0.983,0.026
32.66,-0.323,0.475,-0.183
32.67,-0.304,1.787,-0.027
32.68,0.057,1.021,0.114
32.69,-0.031,0.582,-0.02
32.7,-0.398,0.954,-0.211
32.71,-0.185,1.409,0.046
32.72,-0.125,1.27,0.15
32.73,0.063,0.479,0.011
32.74,-0.522,0.955,-0.159
32.75,-0.031,1.661,0.056
32.76,-0.202,1.222,0.126
32.77,0.06,0.602,-0.021
32.78,-0.511,0.749,-0.159
32.79,-0.182,1.65,0.056
32.8,-0.076,0.833,0.117
32.81,-0.11,1.046,-0.013
32.82,-0.328,0.365,-0.136
32.83,-0.208,1.814,0.095
32.84,-0.023,0.772,0.107
32.85,-0.158,0.913,-0.024
32.86,-0.352,0.704,-0.125
32.87,-0.137,1.356,0.066
32.88,-0.233,1.177,0.097
32.89,0.075,0.594,-0.029
32.9,-0.58,1.063,-0.13
32.91,-0.047,0.998,0.183
32.92,-0.315,1.162,0.091
32.93,-0.033,0.757,-0.036
32.94,-0.454,0.714,-0.151
32.95,-0.12,1.358,0.082
32.96,-0.124,0.737,0.054
32.97,-0.165,1.128,-0.088
32.98,-0.344,0.32,-0.123
32.99,-0.22,1.471,0.143
33.0,-0.123,0.639,0.074
33.01,-0.202,0.975,-0.081
33.02,-0.347,0.68,-0.114
33.03,-0.088,1.123,0.126
33.04,-0.245,0.984,0.055
33.05,-0.108,0.561,-0.154
33.06,-0.489,0.985,-0.108
33.07,-0.087,0.97,0.143
33.08,-0.274,1.068,0.099
33.09,-0.189,0.607,-0.106
33.1,-0.413,0.717,-0.076
33.11,-0.127,1.341,0.157
33.12,-0.259,0.491,0.098
33.13,-0.271,1.064,-0.09
33.14,-0.39,0.423,-0.07
33.15,-0.191,1.342,0.182
33.16,-0.218,0.559,0.027
33.17,-0.32,0.878,-0.078
33.18,-0.372,0.874,-0.113
33.19,-0.03,1.024,0.187
33.2,-0.325,0.94,0.007
33.21,-0.239,0.447,-0.099
33.22,-0.471,1.209,-0.073
33.23,0.036,0.864,0.131
33.24,-0.389,0.961,0.037
33.25,-0.225,0.561,-0.114
33.26,-0.458,1.029,-0.101
33.27,0.012,1.08,0.143
33.28,-0.147,0.544,-0.045
33.29,-0.401,0.974,-0.12
33.3,-0.194,1.076,-0.072
33.31,-0.017,1.372,0.13
33.32,-0.089,0.425,0.017
33.33,-0.397,0.944,-0.134
33.34,-0.336,1.394,-0.047
33.35,-0.074,0.838,0.113
33.36,-0.192,0.949,0.021
33.37,-0.258,0.49,-0.202
33.38,-0.505,1.77,0.037
33.39,0.02,0.666,0.184
33.4,-0.296,0.956,0.064
33.41,-0.139,0.983,0.118
33.42,-0.071,0.692,0.017
33.43,-0.351,0.644,-0.218
33.44,-0.31,1.854,-0.006
33.45,-0.035,0.74,0.169
33.46,-0.146,0.984,0.04
33.47,-0.355,0.362,-0.206
33.48,-0.288,1.993,-0.018
33.49,-0.042,0.861,0.121
33.5,-0.011,0.751,0.046
33.51,-0.418,0.549,-0.159
33.52,-0.142,1.87,0.058
33.53,-0.078,1.079,0.072
33.54,0.065,0.504,-0.026
33.55,-0.439,1.004,-0.19
33.56,-0.039,1.468,0.106
33.57,-0.241,1.272,0.122
33.58,0.125,0.512,-0.054
33.59,-0.476,0.864,-0.174
33.6,-0.148,1.508,0.005
33.61,-0.114,0.905,0.132
33.62,-0.054,0.97,0.007
33.63,-0.395,0.415,-0.123
33.64,-0.144,1.962,0.078
33.65,-0.049,0.736,0.156
33.66,-0.166,1.008,-0.01
33.67,-0.402,0.508,-0.144
33.68,-0.083,1.721,0.125
33.69,-0.118,1.106,0.092
33.7,0.015,0.539,-0.018
33.71,-0.517,1.067,-0.134
33.72,-0.102,1.083,0.127
33.73,-0.266,1.253,0.116
33.74,0.006,0.575,-0.032
33.75,-0.459,0.86,-0.166
33.76,-0.089,1.319,0.113
33.77,-0.174,0.862,0.073
33.78,-0.126,1.082,-0.076
33.79,-0.297,0.329,-0.116
33.8,-0.207,1.564,0.09
33.81,-0.064,0.68,0.095
33.82,-0.164,1.117,-0.089
33.83,-0.369,0.506,-0.09
33.84,-0.174,1.214,0.168
33.85,-0.192,1.03,0.056
33.86,-0.103,0.592,-0.109
33.87,-0.483,1.02,-0.08
33.88,-0.091,1.035,0.128
33.89,-0.264,1.176,0.074
33.9,-0.079,0.615,-0.108
33.91,-0.381,0.836,-0.124
33.92,-0.089,1.166,0.112
33.93,-0.184,0.757,0.039
33.94,-0.349,0.906,-0.105
33.95,-0.287,0.428,-0.07
33.96,-0.237,1.415,0.193
33.97,-0.132,0.496,0.051
33.98,-0.407,1.021,-0.114
33.99,-0.295,0.634,-0.101
34.0,-0.144,1.118,0.185
34.01,-0.254,0.893,0.042
34.02,-0.243,0.518,-0.077
34.03,-0.487,1.298,-0.081
34.04,0.016,0.819,0.187
34.05,-0.288,1.035,0.032
34.06,-0.265,0.452,-0.125
34.07,-0.477,1.095,-0.071
34.08,-0.054,1.025,0.163
34.09,-0.243,0.631,0.011
34.1,-0.34,0.931,-0.101
34.11,-0.306,0.854,-0.078
34.12,-0.096,1.25,0.177
34.13,-0.16,0.462,0.054
34.14,-0.406,0.969,-0.128
34.15,-0.269,1.238,-0.091
34.16,-0.05,0.975,0.153
34.17,-0.139,0.832,0.013
34.18,-0.346,0.577,-0.169
34.19,-0.453,1.65,-0.05
34.2,0.096,0.801,0.139
34.21,-0.284,0.935,0.033
34.22,-0.28,0.515,-0.144
34.23,-0.432,1.722,-0.055
34.24,-0.01,0.929,0.168
34.25,-0.11,0.583,0.016
34.26,-0.382,1.019,-0.18
34.27,-0.285,1.372,0.003
34.28,-0.092,1.179,0.145
34.29,0.033,0.456,0.053
34.3,-0.411,1.024,-0.196
34.31,-0.269,1.483,0.058
34.32,-0.223,1.077,0.054
34.33,0.033,0.592,0.02
34.34,-0.421,0.709,-0.191
34.35,-0.191,1.872,0.007
34.36,0.07,0.849,0.083
34.37,-0.037,0.917,0.025
34.38,-0.282,0.419,-0.136
34.39,-0.313,1.988,0.057
34.4,0.031,0.82,0.145
34.41,-0.123,0.821,0.019
34.42,-0.288,0.697,-0.167
34.43,-0.186,1.838,0.08
34.44,-0.095,1.131,0.117
34.45,0.029,0.444,-0.032
34.46,-0.46,0.998,-0.174
34.47,-0.066,1.503,0.074
34.48,-0.208,1.201,0.142
34.49,0.004,0.605,0.006
34.5,-0.431,0.683,-0.149
34.51,-0.144,1.591,0.065
34.52,-0.037,0.812,0.07
34.53,-0.081,1.018,-0.028
34.54,-0.301,0.334,-0.159
34.55,-0.191,1.906,0.12
34.56,-0.14,0.784,0.12
34.57,-0.046,0.908,-0.029
34.58,-0.41,0.718,-0.129
34.59,-0.138,1.402,0.141
34.6,-0.206,1.182,0.099
34.61,0.052,0.545,-0.037
34.62,-0.446,1.037,-0.172
34.63,-0.042,1.087,0.103
34.64,-0.235,1.202,0.085
34.65,-0.054,0.697,-0.066
34.66,-0.412,0.669,-0.133
34.67,-0.072,1.602,0.099
34.68,-0.042,0.812,0.097
34.69,-0.129,1.127,-0.08
34.7,-0.363,0.334,-0.12
34.71,-0.144,1.539,0.137
34.72,-0.096,0.759,0.058
34.73,-0.14,0.948,-0.113
34.74,-0.327,0.681,-0.143
34.75,-0.057,1.111,0.098
34.76,-0.245,1.105,0.051
34.77,-0.105,0.558,-0.092
34.78,-0.545,0.974,-0.118
34.79,-0.022,1.016,0.16
34.8,-0.226,1.204,0.045
34.81,-0.094,0.738,-0.132
34.82,-0.415,0.622,-0.099
34.83,-0.105,1.279,0.115
34.84,-0.165,0.704,0.003
34.85,-0.297,1.047,-0.131
34.86,-0.335,0.377,-0.082
34.87,-0.161,1.402,0.151
34.88,-0.18,0.632,0.062
34.89,-0.278,0.935,-0.1
34.9,-0.48,0.723,-0.1
34.91,-0.076,0.982,0.174
34.92,-0.294,1.072,0.038
34.93,-0.153,0.463,-0.132
34.94,-0.482,1.122,-0.076
34.95,-0.029,0.922,0.193
34.96,-0.337,0.981,0.043
34.97,-0.253,0.615,-0.076
34.98,-0.445,0.875,-0.045
34.99,-0.121,1.237,0.214
35.0,-0.128,0.484,0.022
35.01,-0.484,1.036,-0.064
35.02,-0.346,0.479,-0.049
35.03,-0.169,1.266,0.177
35.04,-0.188,0.593,0.032
35.05,-0.393,0.812,-0.115
35.06,-0.311,0.997,-0.103
35.07,-0.015,0.973,0.117
35.08,-0.271,0.938,0.036
35.09,-0.192,0.468,-0.144
35.1,-0.526,1.34,-0.065
35.11,0.058,0.734,0.165
35.12,-0.303,1.027,0.021
35.13,-0.217,0.437,-0.174
35.14,-0.437,1.592,-0.096
35.15,0.042,0.83,0.095
35.16,-0.148,0.701,-0.034
35.17,-0.432,0.823,-0.18
35.18,-0.234,1.36,-0.002
35.19,-0.108,1.19,0.121
35.2,0.001,0.408,0.027
35.21,-0.463,1.047,-0.157
35.22,-0.293,1.413,0.003
35.23,-0.113,1.005,0.185
35.24,-0.069,0.704,0.052
35.25,-0.444,0.608,-0.172
35.26,-0.38,1.964,0.04
35.27,-0.039,0.734,0.156
35.28,-0.149,0.953,0.075
35.29,-0.309,0.396,-0.167
35.3,-0.396,1.966,0.028
35.31,0.075,0.907,0.104
35.32,-0.022,0.627,0.016
35.33,-0.426,0.896,-0.212
35.34,-0.186,1.6,0.002
35.35,-0.183,1.161,0.151
35.36,-0.015,0.436,0.048
35.37,-0.498,0.99,-0.169
35.38,-0.179,1.69,0.057
35.39,-0.17,1.049,0.126
35.4,0.002,0.682,0.029
35.41,-0.419,0.567,-0.165
35.42,-0.261,2.0,0.055
35.43,-0.027,0.79,0.122
35.44,-0.072,0.927,0.033
35.45,-0.314,0.41,-0.166
35.46,-0.21,1.981,0.035
35.47,-0.019,0.941,0.088
35.48,0.038,0.648,0.008
35.49,-0.351,0.861,-0.223
35.5,-0.134,1.785,0.037
35.51,-0.141,1.196,0.07
35.52,0.093,0.44,-0.035
35.53,-0.46,0.996,-0.199
35.54,-0.14,1.508,0.097
35.55,-0.108,1.115,0.144
35.56,0.001,0.674,-0.004
35.57,-0.403,0.528,-0.136
35.58,-0.19,1.962,0.036
35.59,-0.08,0.737,0.165
35.6,-0.113,0.999,0.021
35.61,-0.314,0.405,-0.207
35.62,-0.157,2.0,0.046
35.63,-0.074,0.898,0.11
35.64,-0.078,0.647,-0.007
35.65,-0.375,0.862,-0.182
35.66,-0.139,1.398,0.068
35.67,-0.16,1.292,0.175
35.68,-0.018,0.472,0.016
35.69,-0.489,0.972,-0.146
35.7,-0.092,1.514,0.114
35.71,-0.18,1.127,0.164
35.72,-0.032,0.754,-0.028
35.73,-0.466,0.599,-0.108
35.74,-0.268,1.803,0.165
35.75,-0.112,0.702,0.165
35.76,-0.064,1.072,0.006
35.77,-0.338,0.404,-0.15
35.78,-0.241,1.592,0.087
35.79,-0.146,0.885,0.13
35.8,-0.052,0.892,-0.004
35.81,-0.395,0.807,-0.15
35.82,0.006,1.437,0.155
35.83,-0.104,1.369,0.097
35.84,0.021,0.425,-0.043
35.85,-0.417,1.011,-0.243
35.86,-0.024,1.468,0.102
35.87,-0.125,1.089,0.089
35.88,-0.012,0.871,-0.047
35.89,-0.383,0.536,-0.11
35.9,-0.188,1.579,0.139
35.91,0.015,0.725,0.105
35.92,-0.138,1.13,-0.114
35.93,-0.267,0.355,-0.165
35.94,-0.155,1.552,0.072
35.95,-0.049,0.719,0.069
35.96,-0.118,1.035,-0.107
35.97,-0.366,0.566,-0.138
35.98,-0.145,1.232,0.169
35.99,-0.249,1.127,0.087
36.0,-0.042,0.587,-0.094
36.01,-0.514,0.948,-0.15
36.02,0.022,0.935,0.074
36.03,-0.263,1.215,0.05
36.04,-0.143,0.61,-0.075
36.05,-0.553,0.692,-0.125
36.06,-0.086,1.286,0.109
36.07,-0.139,0.867,0.077
36.08,-0.212,1.014,-0.131
36.09,-0.362,0.278,-0.135
36.1,-0.094,1.479,0.098
36.11,-0.15,0.723,0.069
36.12,-0.197,0.922,-0.111
36.13,-0.414,0.634,-0.114
36.14,-0.058,1.18,0.175
36.15,-0.259,0.994,0.014
36.16,-0.082,0.617,-0.059
36.17,-0.557,0.933,-0.094
36.18,-0.012,0.861,0.154
36.19,-0.249,1.313,0.064
36.2,-0.212,0.516,-0.131
36.21,-0.482,0.688,-0.08
36.22,-0.075,1.227,0.183
36.23,-0.231,0.706,0.051
36.24,-0.24,0.924,-0.138
36.25,-0.357,0.575,-0.104
36.26,-0.068,1.405,0.181
36.27,-0.243,0.495,0.061
36.28,-0.337,0.937,-0.092
36.29,-0.492,0.684,-0.107
36.3,-0.128,0.917,0.178
36.31,-0.306,1.076,0.028
36.32,-0.151,0.419,-0.139
36.33,-0.521,1.164,-0.101
36.34,0.025,0.859,0.195
36.35,-0.32,1.018,0.009
36.36,-0.251,0.524,-0.084
36.37,-0.392,1.139,-0.089
36.38,-0.02,1.066,0.115
36.39,-0.143,0.536,0.031
36.4,-0.359,0.948,-0.127
36.41,-0.354,0.759,-0.126
36.42,-0.164,1.215,0.127
36.43,-0.086,0.52,0.036
36.44,-0.411,0.891,-0.16
36.45,-0.333,0.998,-0.101
36.46,-0.086,0.915,0.095
36.47,-0.205,0.921,0.042
36.48,-0.206,0.5,-0.126
36.49,-0.41,1.692,-0.12
36.5,0.021,0.706,0.14
36.51,-0.22,0.98,0.04
36.52,-0.239,0.535,-0.132
36.53,-0.457,1.395,-0.103
36.54,-0.053,0.965,0.096
36.55,-0.126,0.566,-0.029
36.56,-0.418,0.912,-0.145
36.57,-0.405,0.973,-0.024
36.58,-0.205,1.042,0.151
36.59,-0.117,0.561,0.074
36.6,-0.401,0.87,-0.146
36.61,-0.404,1.426,-0.017
36.62,-0.03,0.914,0.209
36.63,-0.151,0.826,0.061
36.64,-0.259,0.492,-0.173
36.65,-0.454,2.0,-0.025
36.66,0.007,0.76,0.151
36.67,-0.148,0.93,0.06
36.68,-0.359,0.517,-0.144
36.69,-0.411,1.745,0.013
36.7,-0.178,0.785,0.082
36.71,-0.071,0.561,0.045
36.72,-0.457,0.959,-0.198
36.73,-0.279,1.454,-0.026
36.74,-0.062,1.194,0.125
36.75,0.052,0.276,0.006
36.76,-0.522,1.002,-0.172
36.77,-0.083,1.662,-0.008
36.78,-0.125,1.134,0.085
36.79,0.153,0.657,-0.026
36.8,-0.455,0.636,-0.135
36.81,-0.137,2.0,0.031
36.82,-0.043,0.774,0.085
36.83,-0.017,0.943,0.011
36.84,-0.318,0.402,-0.173
36.85,-0.197,2.0,0.045
36.86,-0.111,0.804,0.125
36.87,-0.017,0.694,0.024
36.88,-0.362,0.772,-0.194
36.89,-0.12,1.672,0.048
36.9,-0.132,1.241,0.085
36.91,0.112,0.399,-0.022
36.92,-0.422,1.01,-0.212
36.93,-0.073,1.535,0.054
36.94,-0.151,1.143,0.105
36.95,0.017,0.676,0.012
36.96,-0.35,0.591,-0.128
36.97,-0.163,2.0,0.068
36.98,-0.147,0.697,0.117
36.99,-0.08,0.967,0.001
37.0,-0.409,0.346,-0.158
37.01,-0.245,1.991,0.059
37.02,-0.103,0.897,0.169
37.03,-0.063,0.716,0.032
37.04,-0.404,0.733,-0.126
37.05,-0.099,1.604,0.063
37.06,-0.248,1.223,0.169
37.07,0.063,0.539,0.012
37.08,-0.528,1.012,-0.218
37.09,0.101,1.714,0.141
37.1,-0.318,1.118,0.097
37.11,0.056,0.628,-0.027
37.12,-0.4,0.622,-0.163
37.13,-0.172,1.621,0.092
37.14,-0.079,0.747,0.136
37.15,-0.07,1.134,-0.025
37.16,-0.28,0.297,-0.12
37.17,-0.095,1.971,0.131
37.18,-0.096,0.833,0.073
37.19,-0.114,0.814,-0.015
37.2,-0.35,0.793,-0.175
37.21,-0.038,1.542,0.156
37.22,-0.266,1.265,0.142
37.23,0.048,0.463,0.023
37.24,-0.501,1.018,-0.166
37.25,-0.078,1.119,0.138
37.26,-0.209,1.154,0.019
37.27,-0.021,0.867,-0.069
37.28,-0.364,0.526,-0.122
37.29,-0.101,1.786,0.155
37.3,0.027,0.733,0.14
37.31,-0.133,1.147,-0.072
37.32,-0.431,0.354,-0.116
37.33,-0.083,1.649,0.161
37.34,-0.179,0.899,0.123
37.35,-0.084,0.884,-0.059
37.36,-0.39,0.765,-0.091
37.37,-0.087,1.134,0.133
37.38,-0.225,1.26,0.111
37.39,0.046,0.533,-0.109
37.4,-0.564,1.031,-0.108
37.41,0.037,1.134,0.125
37.42,-0.281,1.047,0.104
37.43,-0.046,0.848,-0.074
37.44,-0.521,0.549,-0.134
37.45,-0.046,1.469,0.143
37.46,-0.205,0.636,0.095
37.47,-0.198,1.13,-0.072
37.48,-0.362,0.314,-0.173
37.49,-0.051,1.466,0.092
37.5,-0.148,0.877,0.05
37.51,-0.113,0.902,-0.118
37.52,-0.509,0.762,-0.115
37.53,-0.005,1.115,0.191
37.54,-0.272,1.254,0.114
37.55,0.028,0.538,-0.103
37.56,-0.498,0.985,-0.146
37.57,0.047,0.964,0.158
37.58,-0.396,1.139,0.042
37.59,-0.144,0.518,-0.138
37.6,-0.481,0.765,-0.111
37.61,-0.007,1.122,0.168
37.62,-0.168,0.873,0.071
37.63,-0.334,0.955,-0.088
37.64,-0.401,0.322,-0.08
37.65,-0.189,1.491,0.245
37.66,-0.269,0.616,0.119
37.67,-0.271,0.892,-0.108
37.68,-0.406,0.606,-0.129
37.69,-0.073,1.145,0.176
37.7,-0.331,0.983,0.008
37.71,-0.245,0.471,-0.107
37.72,-0.526,1.065,-0.095
37.73,0.035,0.822,0.182
37.74,-0.283,1.196,0.066
37.75,-0.249,0.457,-0.096
37.76,-0.532,0.919,-0.092
37.77,0.014,1.221,0.182
37.78,-0.243,0.631,0.02
37.79,-0.284,0.898,-0.127
37.8,-0.422,0.508,-0.108
37.81,-0.135,1.263,0.153
37.82,-0.195,0.607,0.009
37.83,-0.369,0.914,-0.105
37.84,-0.436,0.658,-0.075
37.85,-0.075,1.018,0.177
37.86,-0.232,0.991,0.002
37.87,-0.203,0.548,-0.122
37.88,-0.578,1.322,-0.111
37.89,0.078,0.852,0.152
37.9,-0.343,1.006,0.043
37.91,-0.217,0.431,-0.108
37.92,-0.488,1.125,-0.1
37.93,-0.006,0.987,0.113
37.94,-0.278,0.613,0.037
37.95,-0.312,0.921,-0.172
37.96,-0.527,0.578,-0.086
37.97,-0.052,1.249,0.17
37.98,-0.282,0.538,0.102
37.99,-0.341,0.883,-0.112
38.0,-0.463,0.979,-0.082
38.01,0.003,0.973,0.136
38.02,-0.234,0.904,0.026
38.03,-0.267,0.502,-0.183
38.04,-0.557,1.417,-0.08
38.05,0.157,0.767,0.127
38.06,-0.309,1.036,0.06
38.07,-0.224,0.483,-0.124
38.08,-0.545,1.167,-0.09
38.09,0.104,0.999,0.088
38.1,-0.22,0.625,-0.001
38.11,-0.37,0.927,-0.146
38.12,-0.353,0.912,-0.068
38.13,-0.085,1.135,0.122
38.14,-0.128,0.538,0.033
38.15,-0.379,0.923,-0.169
38.16,-0.306,1.347,-0.106
38.17,-0.041,0.947,0.167
38.18,-0.107,0.824,0.045
38.19,-0.318,0.474,-0.192
38.2,-0.419,1.778,-0.057
38.21,0.02,0.647,0.11
38.22,-0.218,1.005,0.028
38.23,-0.253,0.457,-0.195
38.24,-0.432,1.623,-0.051
38.25,-0.021,0.866,0.113
38.26,-0.025,0.573,0.009
38.27,-0.417,0.974,-0.192
38.28,-0.342,1.211,-0.05
38.29,-0.121,1.178,0.203
38.3,-0.024,0.473,0.035
38.31,-0.438,0.914,-0.131
38.32,-0.291,1.566,-0.041
38.33,-0.079,0.779,0.13
38.34,-0.094,0.842,0.016
38.35,-0.32,0.458,-0.204
38.36,-0.382,1.955,0.01
38.37,-0.062,0.7,0.088
38.38,-0.018,0.971,0.081
38.39,-0.335,0.373,-0.189
38.4,-0.372,2.0,-0.008
38.41,-0.056,0.757,0.134
38.42,-0.095,0.749,0.076
38.43,-0.411,0.677,-0.178
38.44,-0.285,1.788,0.024
38.45,-0.178,1.18,0.121
38.46,0.138,0.409,0.037
38.47,-0.506,0.962,-0.2
38.48,-0.165,1.696,0.021
38.49,-0.161,1.113,0.133
38.5,0.01,0.61,0.031
38.51,-0.436,0.64,-0.144
38.52,-0.265,2.0,0.02
38.53,-0.113,0.668,0.119
38.54,-0.035,0.974,0.052
38.55,-0.279,0.399,-0.161
38.56,-0.324,2.0,0.031
38.57,-0.054,0.819,0.123
38.58,0.029,0.815,0.047
38.59,-0.409,0.626,-0.201
38.6,-0.063,1.86,0.063
38.61,-0.221,1.266,0.118
38.62,0.1,0.365,0.015
38.63,-0.491,0.987,-0.157
38.64,-0.112,1.857,0.052
38.65,-0.271,0.974,0.056
38.66,0.085,0.697,0.007
38.67,-0.436,0.567,-0.187
38.68,-0.1,2.0,0.039
38.69,-0.104,0.818,0.129
38.7,-0.122,0.974,0.065
38.71,-0.37,0.254,-0.12
38.72,-0.208,2.0,0.08
38.73,-0.066,0.835,0.123
38.74,-0.02,0.754,-0.003
38.75,-0.463,0.773,-0.176
38.76,-0.069,1.68,0.093
38.77,-0.181,1.188,0.095
38.78,0.11,0.446,-0.01
38.79,-0.444,1.023,-0.195
38.8,-0.048,1.334,0.056
38.81,-0.183,1.118,0.069
38.82,0.036,0.841,-0.029
38.83,-0.386,0.582,-0.15
38.84,0.045,1.998,0.081
38.85,-0.086,0.797,0.054
38.86,-0.095,1.025,-0.08
38.87,-0.234,0.326,-0.185
38.88,-0.115,1.963,0.046
38.89,-0.036,0.826,0.075
38.9,-0.085,0.832,-0.031
38.91,-0.377,0.731,-0.164
38.92,-0.062,1.421,0.119
38.93,-0.207,1.219,0.158
38.94,0.068,0.591,-0.02
38.95,-0.525,0.994,-0.119
38.96,0.025,1.387,0.144
38.97,-0.233,1.178,0.126
38.98,0.029,0.836,-0.015
38.99,-0.481,0.585,-0.097
39.0,-0.11,1.677,0.156
39.01,-0.115,0.73,0.113
39.02,-0.102,1.146,-0.05
39.03,-0.373,0.324,-0.131
39.04,-0.171,1.615,0.123
39.05,-0.059,0.817,0.076
39.06,-0.085,0.964,-0.075
39.07,-0.284,0.735,-0.156
39.08,-0.051,1.281,0.17
39.09,-0.156,1.336,0.155
39.1,0.016,0.505,-0.085
39.11,-0.47,0.98,-0.145
39.12,-0.031,1.117,0.102
39.13,-0.217,1.198,0.074
39.14,-0.051,0.787,-0.104
39.15,-0.316,0.511,-0.121
39.16,-0.116,1.49,0.078
39.17,-0.052,0.774,0.085
39.18,-0.198,0.941,-0.144
39.19,-0.414,0.308,-0.076
39.2,-0.167,1.536,0.198
39.21,-0.182,0.74,0.103
39.22,-0.283,0.973,-0.071
39.23,-0.35,0.535,-0.136
39.24,-0.104,1.227,0.169
39.25,-0.182,0.97,0.004
39.26,-0.281,0.516,-0.149
39.27,-0.449,0.94,-0.106
39.28,-0.024,0.877,0.16
39.29,-0.313,1.212,0.041
39.3,-0.21,0.392,-0.125
39.31,-0.514,0.839,-0.125
39.32,0.004,1.087,0.179
39.33,-0.316,0.804,0.081
39.34,-0.344,0.803,-0.091
39.35,-0.392,0.554,-0.094
39.36,-0.07,1.364,0.15
39.37,-0.223,0.523,0.081
39.38,-0.397,0.916,-0.109
39.39,-0.45,0.662,-0.076
39.4,-0.109,1.078,0.189
39.41,-0.287,0.954,0.028
39.42,-0.266,0.474,-0.088
39.43,-0.51,1.278,-0.073
39.44,0.005,0.763,0.175
39.45,-0.326,1.094,0.032
39.46,-0.222,0.386,-0.148
39.47,-0.466,1.322,-0.13
39.48,0.052,0.968,0.127
39.49,-0.184,0.636,-0.012
39.5,-0.319,0.89,-0.176
39.51,-0.451,0.844,-0.071
39.52,-0.05,1.229,0.176
39.53,-0.214,0.482,0.013
39.54,-0.455,0.86,-0.122
39.55,-0.317,1.252,-0.048
39.56,-0.114,0.938,0.171
39.57,-0.175,0.805,0.017
39.58,-0.347,0.502,-0.154
39.59,-0.46,1.641,-0.061
39.6,-0.002,0.674,0.174
39.61,-0.29,0.996,0.059
39.62,-0.304,0.408,-0.135
39.63,-0.448,1.644,-0.016
39.64,-0.035,0.827,0.123
39.65,-0.135,0.582,0.034
39.66,-0.394,0.885,-0.168
39.67,-0.405,1.307,0.008
39.68,-0.114,1.19,0.187
39.69,-0.062,0.419,0.096
39.7,-0.373,0.894,-0.194
39.71,-0.339,1.594,0.004
39.72,-0.086,0.903,0.135
39.73,-0.148,0.782,0.044
39.74,-0.32,0.403,-0.2
39.75,-0.427,2.0,0.019
39.76,0.006,0.614,0.123
39.77,-0.184,0.945,0.111
39.78,-0.261,0.414,-0.178
39.79,-0.384,2.0,0.001
39.8,0.039,0.921,0.074
39.81,-0.034,0.554,0.021
39.82,-0.335,0.829,-0.205
39.83,-0.296,1.7,0.011
39.84,-0.114,1.249,0.103
39.85,0.093,0.396,0.054
39.86,-0.427,0.917,-0.199
39.87,-0.148,1.792,-0.011
39.88,-0.061,1.021,0.107
39.89,0.003,0.784,0.017
39.9,-0.36,0.416,-0.201
39.91,-0.247,2.0,0.068
39.92,0.003,0.706,0.104
39.93,-0.105,0.912,0.022
39.94,-0.274,0.45,-0.203
39.95,-0.209,2.0,0.069
39.96,-0.055,0.971,0.073
39.97,0.036,0.627,-0.006
39.98,-0.358,0.639,-0.218
39.99,-0.11,1.473,0.056
40.0,-0.087,1.173,0.11
40.01,0.012,0.554,-0.068
40.02,-0.464,0.992,-0.157
40.03,0.023,1.447,0.111
40.04,-0.155,1.193,0.061
40.05,0.036,0.71,-0.02
40.06,-0.403,0.691,-0.19
40.07,-0.093,1.601,0.086
40.08,-0.079,0.765,0.062
40.09,-0.064,1.134,-0.051
40.1,-0.32,0.323,-0.141
40.11,-0.085,1.753,0.121
40.12,0.01,0.847,0.07
40.13,-0.15,0.921,-0.063
40.14,-0.339,0.649,-0.167
40.15,-0.079,1.365,0.124
40.16,-0.189,1.178,0.142
40.17,0.071,0.567,-0.051
40.18,-0.424,1.019,-0.155
40.19,0.018,1.158,0.063
40.2,-0.197,1.254,0.09
40.21,0.035,0.801,-0.145
40.22,-0.369,0.562,-0.131
40.23,-0.047,1.61,0.104
40.24,-0.013,0.902,0.15
40.25,-0.148,0.999,-0.087
40.26,-0.423,0.349,-0.076
40.27,-0.195,1.589,0.124
40.28,-0.223,0.688,0.08
40.29,-0.12,1.012,-0.107
40.3,-0.342,0.626,-0.159
40.31,-0.089,1.142,0.102
40.32,-0.219,1.2,0.065
40.33,-0.057,0.539,-0.088
40.34,-0.475,0.913,-0.141
40.35,-0.076,1.018,0.174
40.36,-0.236,1.237,0.023
40.37,-0.117,0.685,-0.114
40.38,-0.367,0.583,-0.116
40.39,-0.132,1.346,0.167
40.4,-0.145,0.672,-0.003
40.41,-0.291,1.069,-0.12
40.42,-0.31,0.261,-0.151
40.43,-0.162,1.407,0.211
40.44,-0.113,0.774,0.015
40.45,-0.283,0.831,-0.085
40.46,-0.369,0.648,-0.154
40.47,-0.086,1.122,0.206
40.48,-0.268,1.105,0.002
40.49,-0.092,0.468,-0.134
40.5,-0.551,0.995,-0.154
40.51,0.058,0.917,0.189
40.52,-0.444,1.178,0.093
40.53,-0.232,0.562,-0.027
40.54,-0.562,0.64,-0.073
40.55,-0.073,1.293,0.223
40.56,-0.191,0.691,0.033
40.57,-0.396,0.984,-0.106
40.58,-0.378,0.34,-0.081
40.59,-0.105,1.365,0.169
40.6,-0.165,0.764,0.026
40.61,-0.355,0.73,-0.096
40.62,-0.392,0.859,-0.112
40.63,-0.026,1.107,0.163
40.64,-0.278,0.966,0.048
40.65,-0.225,0.399,-0.089
40.66,-0.593,1.175,-0.085
40.67,0.071,0.836,0.136
40.68,-0.286,1.072,0.052
40.69,-0.333,0.51,-0.121
40.7,-0.466,0.727,-0.098
40.71,-0.052,1.234,0.126
40.72,-0.214,0.604,0.035
40.73,-0.32,0.893,-0.166
40.74,-0.365,0.602,-0.129
40.75,-0.094,1.294,0.172
40.76,-0.194,0.609,0.079
40.77,-0.41,0.736,-0.076
40.78,-0.429,0.987,-0.094
40.79,-0.044,0.955,0.157
40.8,-0.168,0.753,-0.025
40.81,-0.321,0.582,-0.123
40.82,-0.535,1.496,-0.067
40.83,0.028,0.625,0.167
40.84,-0.284,1.062,-0.007
40.85,-0.257,0.365,-0.219
40.86,-0.463,1.708,-0.084
40.87,0.04,0.866,0.151
40.88,-0.193,0.616,0.024
40.89,-0.344,0.862,-0.169
40.9,-0.363,1.47,-0.094
40.91,-0.024,1.208,0.155
40.92,-0.001,0.382,0.066
40.93,-0.461,1.011,-0.155
40.94,-0.404,1.297,-0.019
40.95,-0.144,0.868,0.2
40.96,-0.152,0.76,0.037
40.97,-0.344,0.495,-0.181
40.98,-0.5,1.763,0.001
40.99,-0.022,0.614,0.192
41.0,-0.185,0.996,0.07
41.01,-0.243,0.373,-0.213
41.02,-0.512,1.869,-0.078
41.03,0.047,0.864,0.179
41.04,-0.104,0.649,0.068
41.05,-0.363,0.846,-0.122
41.06,-0.402,1.62,-0.003
41.07,-0.139,1.124,0.169
41.08,0.053,0.417,0.087
41.09,-0.524,0.97,-0.142
41.1,-0.325,1.477,0.008
41.11,-0.211,0.896,0.156
41.12,-0.045,0.72,0.099
41.13,-0.39,0.528,-0.137
41.14,-0.421,2.0,-0.03
41.15,-0.042,0.668,0.162
41.16,-0.107,0.994,0.065
41.17,-0.326,0.322,-0.186
41.18,-0.354,2.0,0.007
41.19,-0.065,0.727,0.117
41.2,0.03,0.656,0.021
41.21,-0.389,0.923,-0.224
41.22,-0.346,1.547,0.033
41.23,-0.146,1.143,0.128
41.24,0.013,0.483,0.086
41.25,-0.437,0.876,-0.146
41.26,-0.207,1.731,0.02
41.27,-0.092,1.08,0.131
41.28,0.075,0.69,0.031
41.29,-0.4,0.559,-0.187
41.3,-0.311,2.0,0.063
41.31,-0.08,0.684,0.148
41.32,-0.073,0.976,0.04
41.33,-0.347,0.432,-0.159
41.34,-0.296,2.0,0.054
41.35,-0.132,0.836,0.067
41.36,0.048,0.695,0.04
41.37,-0.518,0.724,-0.189
41.38,-0.104,1.757,0.072
41.39,-0.203,1.232,0.065
41.4,0.149,0.417,0.018
41.41,-0.406,0.92,-0.218
41.42,-0.126,1.634,0.028
41.43,-0.054,1.139,0.134
41.44,-0.004,0.717,0.036
41.45,-0.334,0.477,-0.172
41.46,-0.21,2.0,0.062
41.47,-0.059,0.685,0.118
41.48,-0.088,1.002,-0.008
41.49,-0.317,0.402,-0.207
41.5,-0.238,2.0,0.09
41.51,-0.126,0.851,0.126
41.52,-0.011,0.644,0.009
41.53,-0.418,0.854,-0.173
41.54,-0.067,1.593,0.045
41.55,-0.223,1.235,0.11
41.56,0.123,0.503,-0.034
41.57,-0.468,0.911,-0.191
41.58,0.033,1.684,0.076
41.59,-0.248,1.082,0.121
41.6,0.022,0.664,-0.048
41.61,-0.432,0.755,-0.138
41.62,-0.063,1.585,0.106
41.63,-0.061,0.784,0.077
41.64,-0.076,1.091,-0.054
41.65,-0.404,0.349,-0.151
41.66,-0.177,1.653,0.17
41.67,-0.025,0.712,0.07
41.68,-0.041,1.09,-0.089
41.69,-0.255,0.619,-0.126
41.7,-0.075,1.404,0.158
41.71,-0.107,1.149,0.135
41.72,0.043,0.64,-0.092
41.73,-0.507,1.006,-0.082
41.74,-0.053,1.164,0.164
41.75,-0.115,1.266,0.242
41.76,-0.172,0.937,0.035
41.77,-0.368,0.645,-0.157
41.78,-0.389,0.737,-0.043
41.79,-0.11,1.317,0.143
41.8,-0.138,0.526,0.085
41.81,-0.383,0.885,-0.146
41.82,-0.384,0.905,-0.054
41.83,-0.091,1.066,0.145
41.84,-0.152,0.827,-0.036
41.85,-0.365,0.543,-0.141
41.86,-0.442,1.403,-0.096
41.87,-0.005,0.698,0.134
41.88,-0.251,1.105,0.023
41.89,-0.221,0.306,-0.149
41.9,-0.467,1.669,-0.085
41.91,-0.017,0.767,0.155
41.92,-0.14,0.774,-0.022
41.93,-0.339,0.687,-0.206
41.94,-0.277,1.503,-0.082
41.95,-0.102,1.209,0.159
41.96,0.065,0.396,0.06
41.97,-0.437,0.938,-0.2
41.98,-0.239,1.49,0.0
41.99,-0.129,0.969,0.142
42.0,-0.123,0.688,0.045
42.01,-0.389,0.553,-0.163
42.02,-0.417,1.967,0.024
42.03,-0.064,0.66,0.15
42.04,-0.076,0.984,0.097
42.05,-0.367,0.271,-0.15
42.06,-0.395,2.0,0.02
42.07,-0.039,0.883,0.095
42.08,0.014,0.737,0.048
42.09,-0.43,0.721,-0.142
42.1,-0.205,1.851,0.045
42.11,-0.255,1.018,0.07
42.12,0.111,0.534,0.035
42.13,-0.581,0.891,-0.177
42.14,-0.032,1.683,0.001
42.15,-0.207,1.112,0.09
42.16,0.075,0.687,0.022
42.17,-0.426,0.524,-0.145
42.18,-0.122,2.0,0.082
42.19,-0.062,0.771,0.122
42.2,-0.041,1.014,0.013
42.21,-0.354,0.349,-0.162
42.22,-0.196,2.0,0.106
42.23,-0.182,0.755,0.148
42.24,-0.063,0.738,0.0
42.25,-0.413,0.796,-0.171
42.26,-0.089,1.581,0.142
42.27,-0.252,1.197,0.144
42.28,-0.004,0.458,0.006
42.29,-0.552,0.992,-0.102
42.3,-0.099,1.195,0.101
42.31,-0.258,1.117,0.097
42.32,-0.019,0.824,-0.037
42.33,-0.383,0.583,-0.156
42.34,0.004,1.393,0.125
42.35,-0.089,0.84,0.106
42.36,-0.105,1.052,-0.122
42.37,-0.33,0.302,-0.107
42.38,-0.117,1.663,0.148
42.39,-0.231,0.684,0.097
42.4,-0.124,1.104,-0.105
42.41,-0.21,0.426,-0.145
42.42,-0.158,1.239,0.212
42.43,-0.157,1.179,0.01
42.44,-0.18,0.555,-0.148
42.45,-0.371,0.927,-0.116
42.46,-0.053,1.03,0.24
42.47,-0.292,1.359,0.026
42.48,-0.105,0.522,-0.1
42.49,-0.465,0.749,-0.111
42.5,0.007,1.129,0.168
42.51,-0.278,0.927,0.002
42.52,-0.331,0.834,-0.088
42.53,-0.368,0.396,-0.052
42.54,-0.05,1.44,0.195
42.55,-0.201,0.666,-0.014
42.56,-0.368,0.879,-0.071
42.57,-0.359,0.74,-0.081
42.58,0.048,1.032,0.156
42.59,-0.286,0.97,-0.048
42.6,-0.245,0.483,-0.138
42.61,-0.476,1.586,-0.077
42.62,0.164,0.741,0.165
42.63,-0.297,1.076,0.044
42.64,-0.305,0.326,-0.176
42.65,-0.518,1.373,-0.01
42.66,-0.085,0.805,0.121
42.67,-0.273,0.679,0.026
42.68,-0.354,0.854,-0.177
42.69,-0.361,1.408,-0.01
42.7,-0.006,1.229,0.187
42.71,-0.035,0.427,0.076
42.72,-0.432,0.911,-0.177
42.73,-0.315,1.753,0.003
42.74,-0.042,0.961,0.119
42.75,-0.065,0.793,0.047
42.76,-0.379,0.485,-0.16
42.77,-0.406,2.0,0.036
42.78,-0.09,0.553,0.087
42.79,-0.054,1.038,0.064
42.8,-0.343,0.342,-0.173
42.81,-0.272,2.0,0.043
42.82,-0.047,0.926,0.091
42.83,0.079,0.627,-0.012
42.84,-0.492,0.811,-0.178
42.85,-0.043,1.785,0.079
42.86,-0.323,1.201,0.117
42.87,0.094,0.499,0.03
42.88,-0.536,0.888,-0.142
42.89,-0.062,1.865,0.124
42.9,-0.229,0.948,0.127
42.91,-0.015,0.822,-0.006
42.92,-0.379,0.455,-0.117
42.93,-0.18,1.891,0.097
42.94,-0.012,0.661,0.086
42.95,-0.075,1.108,-0.01
42.96,-0.377,0.342,-0.18
42.97,-0.047,1.882,0.119
42.98,-0.163,0.918,0.042
42.99,0.054,0.757,-0.071
43.0,-0.504,0.92,-0.152
43.01,-0.01,1.233,0.147
43.02,-0.258,1.246,0.048
43.03,0.095,0.619,-0.063
43.04,-0.444,0.89,-0.121
43.05,-0.103,1.158,0.111
43.06,-0.239,1.065,0.051
43.07,-0.111,0.974,-0.124
43.08,-0.321,0.367,-0.119
43.09,-0.089,1.679,0.158
43.1,-0.032,0.746,0.075
43.11,-0.134,1.098,-0.107
43.12,-0.317,0.397,-0.117
43.13,-0.138,1.32,0.179
43.14,-0.28,0.702,0.018
43.15,-0.359,0.788,-0.079
43.16,-0.354,0.998,-0.07
43.17,0.042,1.023,0.184
43.18,-0.28,1.012,0.036
43.19,-0.321,0.378,-0.147
43.2,-0.586,1.131,-0.081
43.21,-0.003,0.746,0.134
43.22,-0.364,1.185,0.004
43.23,-0.243,0.385,-0.152
43.24,-0.294,1.489,-0.071
43.25,-0.02,1.099,0.145
43.26,-0.086,0.458,-0.0
43.27,-0.429,0.902,-0.156
43.28,-0.201,1.502,-0.07
43.29,-0.087,1.242,0.128
43.3,0.063,0.456,0.055
43.31,-0.48,0.849,-0.208
43.32,-0.372,1.367,0.069
43.33,-0.235,0.573,0.177
43.34,-0.238,1.001,0.004
43.35,-0.357,0.217,-0.119
43.36,-0.358,2.0,0.033
43.37,-0.049,0.726,0.143
43.38,0.018,0.892,0.041
43.39,-0.375,0.456,-0.19
43.4,-0.304,1.777,0.035
43.41,0.028,1.125,0.093
43.42,-0.028,0.55,-0.049
43.43,-0.478,0.95,-0.204
43.44,0.002,1.881,0.096
43.45,-0.334,1.101,0.085
43.46,0.064,0.523,0.003
43.47,-0.477,0.812,-0.203
43.48,-0.111,1.498,0.109
43.49,-0.146,0.892,0.162
43.5,-0.045,0.959,0.025
43.51,-0.379,0.301,-0.147
43.52,-0.17,1.71,0.126
43.53,-0.113,0.74,0.144
43.54,-0.138,1.078,-0.063
43.55,-0.383,0.504,-0.121
43.56,0.011,1.691,0.174
43.57,-0.171,1.107,0.074
43.58,0.049,0.592,-0.105
43.59,-0.448,0.948,-0.121
43.6,-0.132,0.984,0.161
43.61,-0.357,1.259,0.021
43.62,-0.052,0.551,-0.079
43.63,-0.369,0.785,-0.151
43.64,-0.114,1.205,0.167
43.65,-0.151,0.946,0.063
43.66,-0.34,0.851,-0.141
43.67,-0.254,0.299,-0.107
43.68,-0.249,1.569,0.206
43.69,-0.151,0.758,0.017
43.7,-0.239,0.872,-0.092
43.71,-0.293,0.665,-0.045
43.72,-0.0,1.208,0.119
43.73,-0.332,0.895,-0.032
43.74,-0.256,0.476,-0.104
43.75,-0.509,1.207,-0.099
43.76,0.088,0.702,0.122
43.77,-0.346,1.201,0.015
43.78,-0.302,0.307,-0.176
43.79,-0.481,1.032,-0.08
43.8,-0.063,0.927,0.12
43.81,-0.285,0.819,-0.022
43.82,-0.397,0.677,-0.131
43.83,-0.173,1.537,-0.054
43.84,-0.017,1.38,0.138
43.85,0.037,0.361,0.061
43.86,-0.53,0.965,-0.152
43.87,-0.24,1.742,-0.002
43.88,-0.095,0.879,0.152
43.89,-0.04,0.833,0.043
43.9,-0.416,0.488,-0.163
43.91,-0.316,2.0,0.062
43.92,-0.171,0.46,0.072
43.93,-0.114,1.083,0.062
43.94,-0.344,0.286,-0.129
43.95,-0.187,1.727,0.04
43.96,0.111,0.785,0.082
43.97,-0.125,0.806,-0.05
43.98,-0.3,0.674,-0.138
43.99,-0.073,1.375,0.064
44.0,-0.117,1.079,0.071
44.01,0.023,0.693,-0.094
44.02,-0.475,1.029,-0.214
44.03,0.117,1.481,0.172
44.04,-0.242,1.307,0.084
44.05,0.029,0.673,-0.071
44.06,-0.488,0.655,-0.115
44.07,-0.143,1.468,0.112
44.08,-0.203,0.741,0.073
44.09,-0.088,1.125,-0.096
44.1,-0.284,0.301,-0.123
44.11,-0.144,1.549,0.202
44.12,-0.193,0.682,0.02
44.13,-0.209,0.991,-0.141
44.14,-0.37,0.53,-0.136
44.15,-0.083,1.254,0.182
44.16,-0.203,1.354,0.051
44.17,-0.056,0.46,-0.122
44.18,-0.362,1.021,-0.066
44.19,0.058,0.95,0.201
44.2,-0.412,1.169,0.033
44.21,-0.291,0.468,-0.08
44.22,-0.396,0.95,-0.072
44.23,0.054,1.263,0.112
44.24,-0.249,0.554,0.015
44.25,-0.423,0.954,-0.157
44.26,-0.468,0.429,-0.03
44.27,-0.204,1.219,0.201
44.28,-0.203,0.777,-0.008
44.29,-0.409,0.678,-0.116
44.3,-0.271,1.289,-0.029
44.31,-0.049,0.938,0.19
44.32,-0.237,0.906,0.013
44.33,-0.295,0.339,-0.165
44.34,-0.41,1.841,-0.019
44.35,0.002,0.618,0.129
44.36,-0.235,0.977,0.025
44.37,-0.349,0.425,-0.21
44.38,-0.431,1.545,-0.003
44.39,-0.137,0.833,0.164
44.4,-0.121,0.559,0.044
44.41,-0.477,0.792,-0.174
44.42,-0.223,1.531,0.017
44.43,-0.166,1.281,0.175
44.44,0.107,0.515,0.063
44.45,-0.531,0.752,-0.161
44.46,-0.079,1.942,0.048
44.47,-0.203,0.903,0.107
44.48,-0.011,0.908,-0.013
44.49,-0.456,0.374,-0.188
44.5,-0.136,2.0,0.125
44.51,-0.153,0.699,0.129
44.52,-0.131,0.923,-0.016
44.53,-0.424,0.495,-0.174
44.54,-0.148,1.671,0.112
44.55,-0.137,0.978,0.09
44.56,0.07,0.641,-0.031
44.57,-0.525,0.976,-0.13
44.58,-0.005,1.213,0.125
44.59,-0.16,1.23,0.091
44.6,0.014,0.635,-0.113
44.61,-0.419,0.813,-0.175
44.62,0.1,1.372,0.072
44.63,-0.104,0.973,0.021
44.64,-0.055,1.031,-0.123
44.65,-0.301,0.295,-0.088
44.66,-0.232,1.604,0.145
44.67,-0.239,0.775,0.144
44.68,-0.191,0.989,-0.101
44.69,-0.285,0.505,-0.092
44.7,-0.168,1.266,0.168
44.71,-0.258,1.056,0.016
44.72,-0.16,0.523,-0.126
44.73,-0.484,0.927,-0.059
44.74,-0.073,0.926,0.295
44.75,-0.448,1.401,0.152
44.76,-0.267,0.277,-0.133
44.77,-0.425,1.134,-0.079
44.78,0.102,0.797,0.117
44.79,-0.338,1.095,-0.027
44.8,-0.307,0.435,-0.162
44.81,-0.26,1.354,-0.073
44.82,-0.058,1.178,0.181
44.83,-0.079,0.461,0.044
44.84,-0.383,0.881,-0.209
44.85,-0.303,1.239,-0.015
44.86,-0.191,1.021,0.195
44.87,-0.142,0.648,0.038
44.88,-0.478,0.593,-0.152
44.89,-0.287,1.941,0.025
44.9,-0.05,0.709,0.107
44.91,-0.062,0.96,0.006
44.92,-0.335,0.296,-0.154
44.93,-0.355,2.0,0.063
44.94,-0.093,0.751,0.106
44.95,-0.02,0.875,-0.036
44.96,-0.429,0.508,-0.195
44.97,-0.113,1.968,0.06
44.98,-0.252,1.145,0.073
44.99,0.073,0.418,-0.027
45.0,-0.454,0.982,-0.223
45.01,-0.031,1.597,0.115
45.02,-0.279,1.193,0.143
45.03,0.122,0.64,-0.008
45.04,-0.44,0.715,-0.152
45.05,-0.037,1.58,0.099
45.06,-0.043,0.802,0.018
45.07,-0.094,1.169,-0.095
45.08,-0.235,0.242,-0.098
45.09,-0.048,1.933,0.116
45.1,-0.001,0.817,0.066
45.11,-0.155,0.973,-0.038
45.12,-0.377,0.626,-0.099
45.13,-0.096,1.359,0.153
45.14,-0.181,1.221,0.032
45.15,0.031,0.55,-0.119
45.16,-0.376,1.007,-0.09
45.17,-0.072,0.959,0.181
45.18,-0.387,1.198,0.021
45.19,-0.171,0.568,-0.115
45.2,-0.455,0.628,-0.051
45.21,-0.085,1.29,0.21
45.22,-0.245,0.89,0.032
45.23,-0.316,0.896,-0.106
45.24,-0.368,0.294,-0.039
45.25,-0.143,1.413,0.241
45.26,-0.146,0.849,-0.03
45.27,-0.302,0.746,-0.125
45.28,-0.314,0.879,-0.099
45.29,0.037,1.039,0.145
45.3,-0.316,1.03,-0.039
45.31,-0.265,0.299,-0.123
45.32,-0.525,1.479,-0.104
45.33,0.127,0.67,0.11
45.34,-0.371,1.096,-0.01
45.35,-0.274,0.379,-0.193
45.36,-0.419,1.331,-0.056
45.37,-0.031,0.881,0.126
45.38,-0.179,0.67,0.026
45.39,-0.371,0.775,-0.225
45.4,-0.191,1.495,-0.053
45.41,-0.124,1.162,0.113
45.42,0.073,0.57,0.074
45.43,-0.51,0.677,-0.165
45.44,-0.125,1.917,0.074
45.45,-0.188,0.953,0.098
45.46,0.004,0.823,-0.001
45.47,-0.31,0.386,-0.198
45.48,-0.256,2.0,0.092
45.49,-0.086,0.622,0.069
45.5,-0.162,0.93,-0.029
45.51,-0.357,0.45,-0.206
45.52,-0.195,1.764,0.118
45.53,-0.116,0.979,0.096
45.54,0.058,0.656,-0.015
45.55,-0.456,0.942,-0.134
45.56,-0.021,1.179,0.158
45.57,-0.246,1.258,0.088
45.58,-0.053,0.541,-0.107
45.59,-0.414,0.923,-0.148
45.6,-0.01,1.126,0.175
45.61,-0.198,1.363,0.075
45.62,-0.095,0.681,-0.123
45.63,-0.355,0.534,-0.089
45.64,-0.13,1.399,0.215
45.65,-0.194,0.788,0.013
45.66,-0.36,0.941,-0.097
45.67,-0.307,0.339,-0.067
45.68,-0.094,1.382,0.203
45.69,-0.246,0.828,-0.014
45.7,-0.248,0.691,-0.133
45.71,-0.408,0.898,-0.102
45.72,0.032,0.897,0.138
45.73,-0.386,1.196,-0.036
45.74,-0.267,0.173,-0.114
45.75,-0.456,1.391,-0.101
45.76,0.042,0.703,0.129
45.77,-0.38,1.018,-0.031
45.78,-0.311,0.482,-0.181
45.79,-0.301,1.605,-0.025
45.8,-0.0,1.123,0.155
45.81,-0.069,0.467,0.068
45.82,-0.451,0.86,-0.184
45.83,-0.286,1.598,0.051
45.84,-0.136,1.09,0.192
45.85,0.005,0.646,0.044
45.86,-0.443,0.643,-0.162
45.87,-0.248,2.0,0.05
45.88,-0.111,0.55,0.03
45.89,0.019,1.025,-0.019
45.9,-0.452,0.276,-0.189
45.91,-0.257,1.831,0.041
45.92,0.029,0.804,0.085
45.93,-0.028,0.95,-0.001
45.94,-0.3,0.522,-0.123
45.95,-0.095,1.775,0.147
45.96,-0.125,1.076,0.119
45.97,0.033,0.599,-0.043
45.98,-0.538,1.043,-0.159
45.99,-0.007,1.35,0.174
46.0,-0.235,1.204,0.101
46.01,0.036,0.631,-0.086
46.02,-0.427,0.699,-0.112
46.03,-0.071,1.419,0.03
46.04,-0.178,0.781,0.028
46.05,-0.171,1.076,-0.123
46.06,-0.292,0.24,-0.128
46.07,-0.097,1.595,0.165
46.08,-0.146,0.89,0.113
46.09,-0.186,0.937,-0.144
46.1,-0.31,0.518,-0.12
46.11,-0.118,1.175,0.218
46.12,-0.273,1.317,-0.023
46.13,-0.123,0.402,-0.093
46.14,-0.414,1.013,-0.073
46.15,0.126,0.901,0.166
46.16,-0.425,1.303,0.009
46.17,-0.287,0.389,-0.122
46.18,-0.329,1.02,-0.101
46.19,-0.029,1.031,0.152
46.2,-0.21,0.7,-0.024
46.21,-0.375,0.78,-0.14
46.22,-0.364,0.854,-0.083
46.23,-0.102,1.232,0.172
46.24,-0.232,0.551,0.054
46.25,-0.391,0.729,-0.113
46.26,-0.38,1.601,0.047
46.27,-0.064,0.78,0.212
46.28,-0.074,0.885,0.03
46.29,-0.341,0.347,-0.202
46.3,-0.337,2.0,0.02
46.31,0.055,0.695,0.046
46.32,-0.001,1.006,0.007
46.33,-0.367,0.376,-0.193
46.34,-0.187,2.0,0.086
46.35,-0.207,0.946,0.067
46.36,0.052,0.654,-0.017
46.37,-0.449,0.85,-0.171
46.38,0.048,1.859,0.21
46.39,-0.306,1.209,0.062
46.4,0.053,0.411,-0.033
46.41,-0.483,1.022,-0.135
46.42,-0.139,1.129,0.076
46.43,-0.236,1.146,0.065
46.44,-0.04,0.788,-0.035
46.45,-0.299,0.582,-0.104
46.46,-0.142,1.479,0.114
46.47,-0.061,0.81,0.081
46.48,-0.239,1.019,-0.153
46.49,-0.248,0.268,-0.101
46.5,-0.222,1.556,0.151
46.51,-0.177,0.884,0.006
46.52,-0.138,0.789,-0.146
46.53,-0.242,0.714,-0.148
46.54,-0.007,1.077,0.163
46.55,-0.316,1.265,-0.005
46.56,-0.282,0.295,-0.139
46.57,-0.492,1.02,-0.054
46.58,-0.051,0.848,0.199
46.59,-0.387,1.292,0.047
46.6,-0.316,0.428,-0.098
46.61,-0.414,0.889,0.002
46.62,-0.054,1.203,0.166
46.63,-0.191,0.654,-0.038
46.64,-0.418,0.829,-0.139
46.65,-0.248,1.14,-0.077
46.66,-0.138,1.181,0.202
46.67,-0.067,0.555,0.016
46.68,-0.414,0.687,-0.184
46.69,-0.354,1.707,0.008
46.7,-0.122,0.612,0.195
46.71,-0.111,1.052,0.036
46.72,-0.367,0.23,-0.188
46.73,-0.396,2.0,0.046
46.74,-0.017,0.658,0.095
46.75,-0.058,0.964,0.053
46.76,-0.366,0.419,-0.177
46.77,-0.155,1.931,0.036
46.78,-0.126,1.127,0.073
46.79,0.079,0.494,-0.061
46.8,-0.469,0.941,-0.183
46.81,0.021,1.609,0.056
46.82,-0.291,1.242,0.143
46.83,0.033,0.59,0.025
46.84,-0.431,0.767,-0.128
46.85,-0.03,1.853,0.11
46.86,-0.146,0.856,0.063
46.87,-0.043,1.007,-0.104
46.88,-0.292,0.341,-0.095
46.89,-0.237,1.664,0.074
46.9,-0.084,0.694,0.077
46.91,-0.172,1.043,-0.085
46.92,-0.224,0.499,-0.104
46.93,-0.208,1.337,0.14
46.94,-0.225,1.089,0.1
46.95,-0.125,0.581,-0.123
46.96,-0.46,0.919,-0.068
46.97,-0.093,0.992,0.271
46.98,-0.298,1.464,0.078
46.99,-0.134,0.389,-0.124
47.0,-0.327,0.814,-0.038
47.01,-0.05,1.273,0.163
47.02,-0.258,0.776,0.018
47.03,-0.406,0.76,-0.096
47.04,-0.384,0.413,-0.016
47.05,-0.055,1.323,0.156
47.06,-0.177,0.75,-0.034
47.07,-0.435,0.793,-0.145
47.08,-0.411,0.686,-0.096
47.09,-0.074,0.946,0.149
47.1,-0.328,1.174,-0.011
47.11,-0.266,0.263,-0.132
47.12,-0.319,2.0,-0.04
47.13,0.116,0.76,0.17
47.14,-0.134,1.037,0.113
47.15,-0.322,0.373,-0.198
47.16,-0.446,2.0,0.002
47.17,-0.077,0.796,0.136
47.18,-0.127,0.863,0.021
47.19,-0.41,0.614,-0.181
47.2,-0.229,1.931,0.127
47.21,-0.225,1.074,0.041
47.22,0.112,0.445,-0.04
47.23,-0.446,0.948,-0.181
47.24,-0.073,1.327,0.113
47.25,-0.137,1.178,0.065
47.26,0.065,0.765,-0.028
47.27,-0.379,0.633,-0.12
47.28,0.015,1.883,0.142
47.29,-0.11,0.809,0.051
47.3,-0.096,1.067,-0.089
47.31,-0.385,0.331,-0.118
47.32,-0.099,1.714,0.15
47.33,-0.14,0.862,0.062
47.34,-0.066,0.906,-0.089
47.35,-0.236,0.692,-0.143
47.36,-0.171,1.15,0.142
47.37,-0.28,1.177,-0.029
47.38,-0.143,0.505,-0.148
47.39,-0.411,0.938,-0.085
47.4,-0.08,0.993,0.258
47.41,-0.254,1.399,0.048
47.42,-0.204,0.517,-0.188
47.43,-0.332,0.601,-0.063
47.44,-0.125,1.292,0.215
47.45,-0.248,0.865,0.036
47.46,-0.301,0.815,-0.085
47.47,-0.246,0.813,-0.003
47.48,-0.062,1.356,0.154
47.49,-0.237,0.561,0.061
47.5,-0.522,0.748,-0.087
47.51,-0.419,0.998,-0.032
47.52,-0.053,0.764,0.166
47.53,-0.305,1.093,-0.009
47.54,-0.277,0.207,-0.213
47.55,-0.43,1.753,0.016
47.56,0.029,0.573,0.158
47.57,-0.277,1.012,0.064
47.58,-0.299,0.328,-0.205
47.59,-0.358,1.936,-0.008
47.6,-0.021,1.093,0.104
47.61,0.067,0.495,0.027
47.62,-0.536,0.902,-0.182
47.63,-0.135,1.746,0.079
47.64,-0.229,1.161,0.053
47.65,0.105,0.567,0.017
47.66,-0.529,0.746,-0.183
47.67,-0.078,2.0,0.133
47.68,-0.217,0.887,0.103
47.69,-0.003,0.911,-0.007
47.7,-0.434,0.347,-0.192
47.71,-0.262,1.759,0.138
47.72,-0.022,0.639,0.125
47.73,-0.031,1.069,-0.037
47.74,-0.355,0.511,-0.151
47.75,-0.052,1.478,0.152
47.76,-0.235,1.05,0.085
47.77,0.007,0.666,-0.085
47.78,-0.371,0.919,-0.112
47.79,-0.01,1.152,0.169
47.8,-0.192,1.413,0.049
47.81,-0.039,0.506,-0.09
47.82,-0.311,0.762,-0.088
47.83,-0.206,1.29,0.14
47.84,-0.248,1.009,0.048
47.85,-0.212,0.895,-0.116
47.86,-0.233,0.294,-0.056
47.87,-0.192,1.503,0.211
47.88,-0.188,0.779,0.008
47.89,-0.351,0.854,-0.126
47.9,-0.272,0.525,-0.073
47.91,-0.026,1.164,0.138
47.92,-0.289,1.169,-0.037
47.93,-0.299,0.334,-0.12
47.94,-0.416,1.199,-0.043
47.95,0.032,0.763,0.192
47.96,-0.402,1.202,-0.024
47.97,-0.318,0.26,-0.142
47.98,-0.337,1.644,-0.03
47.99,-0.001,0.635,0.113
48.0,-0.02,0.908,0.011
48.01,-0.39,0.532,-0.232
48.02,-0.287,1.857,0.045
48.03,-0.096,1.12,0.085
48.04,0.085,0.515,0.002
48.05,-0.488,0.909,-0.162
48.06,-0.073,1.733,0.103
48.07,-0.223,1.257,0.113
48.08,0.092,0.645,-0.048
48.09,-0.406,0.643,-0.162
48.1,-0.028,1.919,0.04
48.11,-0.187,0.776,0.103
48.12,0.017,1.08,-0.052
48.13,-0.37,0.294,-0.153
48.14,-0.047,1.99,0.126
48.15,-0.114,0.774,0.061
48.16,-0.13,0.885,-0.046
48.17,-0.347,0.633,-0.125
48.18,-0.243,1.283,0.136
48.19,-0.2,1.173,0.026
48.2,-0.061,0.51,-0.123
48.21,-0.259,0.967,-0.111
48.22,-0.101,1.02,0.202
48.23,-0.311,1.313,0.062
48.24,-0.236,0.558,-0.105
48.25,-0.432,0.576,-0.036
48.26,-0.174,1.32,0.29
48.27,-0.195,0.98,-0.027
48.28,-0.267,0.873,-0.106
48.29,-0.209,0.449,-0.09
48.3,0.064,1.418,0.12
48.31,-0.201,0.678,-0.112
48.32,-0.379,0.696,-0.146
48.33,-0.409,0.878,-0.098
48.34,0.006,0.893,0.105
48.35,-0.368,1.104,-0.018
48.36,-0.289,0.28,-0.197
48.37,-0.556,1.51,-0.025
48.38,-0.008,0.599,0.19
48.39,-0.324,1.099,0.089
48.4,-0.277,0.291,-0.121
48.41,-0.395,1.92,0.039
48.42,0.024,1.09,0.124
48.43,0.046,0.504,-0.009
48.44,-0.454,0.886,-0.206
48.45,-0.114,1.772,0.046
48.46,-0.222,1.179,0.066
48.47,0.095,0.551,0.012
48.48,-0.469,0.811,-0.189
48.49,-0.094,1.994,0.088
48.5,-0.211,0.801,0.074
48.51,-0.031,0.905,-0.001
48.52,-0.328,0.326,-0.191
48.53,-0.216,1.759,0.083
48.54,0.021,0.715,0.112
48.55,-0.056,1.07,-0.061
48.56,-0.323,0.427,-0.134
48.57,-0.063,1.51,0.13
48.58,-0.117,1.043,0.091
48.59,0.019,0.692,-0.115
