t,ax,ay,az
0.0,-0.327,1.399,0.12
0.01,-0.168,0.396,-0.061
0.02,-0.396,0.925,-0.056
0.03,-0.115,1.063,0.23
0.04,-0.147,1.127,-0.001
0.05,-0.348,0.814,-0.154
0.06,-0.241,0.386,-0.099
0.07,-0.158,1.366,0.23
0.08,-0.111,0.775,0.043
0.09,-0.34,0.952,-0.114
0.1,-0.334,0.468,-0.123
0.11,-0.047,1.235,0.189
0.12,-0.182,0.966,0.01
0.13,-0.277,0.488,-0.171
0.14,-0.4,0.982,-0.13
0.15,0.057,0.852,0.127
0.16,-0.267,1.266,0.051
0.17,-0.271,0.311,-0.141
0.18,-0.435,0.936,-0.09
0.19,0.028,0.946,0.098
0.2,-0.195,0.99,0.038
0.21,-0.396,0.696,-0.12
0.22,-0.361,0.594,-0.063
0.23,-0.04,1.209,0.118
0.24,-0.121,0.627,0.066
0.25,-0.468,0.874,-0.128
0.26,-0.394,0.663,-0.097
0.27,-0.045,0.959,0.071
0.28,-0.144,0.964,0.003
0.29,-0.283,1.297,0.052
0.3,0.058,0.499,0.03
0.31,-0.515,1.052,-0.215
0.32,0.078,1.425,0.179
0.33,-0.2,0.996,0.058
0.34,-0.017,0.959,-0.021
0.35,-0.457,0.472,-0.108
0.36,-0.034,1.732,0.194
0.37,-0.122,0.742,0.13
0.38,-0.131,1.149,-0.06
0.39,-0.293,0.363,-0.164
0.4,-0.052,1.707,0.249
0.41,-0.121,1.043,0.075
0.42,-0.103,0.665,-0.048
0.43,-0.432,0.941,-0.174
0.44,0.018,1.27,0.072
0.45,-0.327,1.199,0.083
0.46,0.085,0.616,-0.05
0.47,-0.555,0.969,-0.155
0.48,0.103,1.321,0.118
0.49,-0.198,1.029,0.107
0.5,-0.037,0.876,-0.114
0.51,-0.468,0.521,-0.155
0.52,-0.04,1.61,0.138
0.53,-0.105,0.823,0.095
0.54,-0.098,1.072,-0.103
0.55,-0.334,0.431,-0.164
0.56,-0.061,1.51,0.064
0.57,-0.196,0.949,0.004
0.58,-0.09,0.747,-0.109
0.59,-0.355,0.83,-0.174
0.6,0.014,1.218,0.131
0.61,-0.229,1.287,0.127
0.62,0.007,0.602,-0.105
0.63,-0.465,0.94,-0.126
0.64,0.023,1.244,0.152
0.65,-0.212,1.176,0.053
0.66,-0.055,0.838,-0.132
0.67,-0.397,0.534,-0.149
0.68,-0.044,1.517,0.166
0.69,-0.211,0.619,0.013
0.7,-0.258,1.109,-0.129
0.71,-0.33,0.301,-0.115
0.72,-0.222,1.333,0.207
0.73,-0.101,0.873,0.093
0.74,-0.349,0.755,-0.12
0.75,-0.331,0.649,-0.081
0.76,-0.102,1.061,0.258
0.77,-0.294,1.26,0.083
0.78,-0.206,0.367,-0.091
0.79,-0.471,1.045,-0.096
0.8,0.088,0.896,0.169
0.81,-0.311,1.21,0.07
0.82,-0.319,0.531,-0.132
0.83,-0.438,0.642,-0.065
0.84,-0.141,1.113,0.211
0.85,-0.088,0.861,0.048
0.86,-0.374,0.856,-0.126
0.87,-0.279,0.502,-0.068
0.88,-0.053,1.339,0.161
0.89,-0.156,0.672,0.064
0.9,-0.367,0.715,-0.094
0.91,-0.447,0.796,-0.105
0.92,-0.04,0.937,0.12
0.93,-0.211,1.105,0.054
0.94,-0.344,0.332,-0.167
0.95,-0.537,0.998,-0.05
0.96,-0.079,0.748,0.155
0.97,-0.238,1.356,0.073
0.98,-0.198,0.381,-0.081
0.99,-0.442,0.806,-0.055
1.0,-0.011,1.184,0.14
1.01,-0.147,0.781,0.007
1.02,-0.406,0.85,-0.121
1.03,-0.362,0.436,-0.055
1.04,-0.058,1.271,0.112
1.05,-0.075,0.781,0.002
1.06,-0.374,0.728,-0.182
1.07,-0.374,0.802,-0.029
1.08,-0.013,0.84,0.115
1.09,-0.236,1.145,0.072
1.1,-0.304,0.281,-0.114
1.11,-0.363,1.629,-0.038
1.12,0.076,0.601,0.161
1.13,-0.219,1.012,0.064
1.14,-0.391,0.489,-0.178
1.15,-0.289,1.327,-0.032
1.16,-0.121,0.865,0.187
1.17,-0.083,0.654,0.097
1.18,-0.474,0.894,-0.211
1.19,-0.307,0.824,-0.042
1.2,-0.128,0.973,0.135
1.21,-0.15,0.69,0.064
1.22,-0.399,0.746,-0.187
1.23,-0.269,1.705,-0.034
1.24,-0.03,0.68,0.148
1.25,-0.112,0.943,0.069
1.26,-0.374,0.443,-0.163
1.27,-0.418,1.726,-0.02
1.28,-0.023,0.437,0.123
1.29,-0.206,1.123,0.076
1.3,-0.389,0.506,-0.223
1.31,-0.358,1.342,0.02
1.32,-0.104,0.792,0.139
1.33,-0.051,0.657,0.06
1.34,-0.408,0.878,-0.185
1.35,-0.229,1.511,-0.084
1.36,-0.127,1.098,0.14
1.37,0.042,0.501,0.09
1.38,-0.501,0.931,-0.192
1.39,-0.282,1.848,-0.002
1.4,-0.161,0.495,0.06
1.41,-0.016,0.991,0.076
1.42,-0.409,0.392,-0.256
1.43,-0.276,2.0,0.004
1.44,-0.092,0.456,0.083
1.45,-0.137,0.991,0.11
1.46,-0.391,0.482,-0.182
1.47,-0.297,2.0,-0.049
1.48,-0.079,0.813,0.071
1.49,0.007,0.548,0.084
1.5,-0.51,1.026,-0.247
1.51,-0.204,1.627,-0.018
1.52,-0.163,0.845,0.049
1.53,0.111,0.5,0.127
1.54,-0.539,1.032,-0.222
1.55,-0.11,1.739,0.051
1.56,-0.224,0.838,0.058
1.57,0.049,0.732,0.065
1.58,-0.409,0.587,-0.183
1.59,-0.269,2.0,0.094
1.6,-0.159,0.473,0.103
1.61,-0.032,1.002,0.112
1.62,-0.457,0.321,-0.23
1.63,-0.247,2.0,0.09
1.64,-0.167,0.627,0.075
1.65,0.011,0.732,0.102
1.66,-0.472,0.82,-0.218
1.67,-0.191,1.76,0.093
1.68,-0.294,0.946,0.061
1.69,0.162,0.512,0.087
1.7,-0.532,0.97,-0.224
1.71,-0.088,1.708,0.067
1.72,-0.219,0.901,0.05
1.73,0.128,0.686,0.1
1.74,-0.501,0.634,-0.188
1.75,-0.144,2.0,0.078
1.76,-0.077,0.576,0.095
1.77,0.025,1.013,0.03
1.78,-0.331,0.409,-0.237
1.79,-0.171,2.0,0.116
1.8,-0.19,0.607,0.056
1.81,0.11,0.771,0.034
1.82,-0.586,0.768,-0.264
1.83,-0.016,1.726,0.135
1.84,-0.255,1.062,0.033
1.85,0.257,0.451,0.072
1.86,-0.531,1.026,-0.231
1.87,0.019,1.649,0.084
1.88,-0.182,0.98,0.089
1.89,0.076,0.738,0.059
1.9,-0.504,0.6,-0.203
1.91,-0.104,2.0,0.125
1.92,-0.238,0.433,0.011
1.93,0.025,1.01,0.064
1.94,-0.528,0.422,-0.22
1.95,-0.178,2.0,0.143
1.96,-0.16,0.758,0.055
1.97,0.129,0.735,0.036
1.98,-0.503,0.765,-0.26
1.99,0.033,1.694,0.068
2.0,-0.26,1.086,0.085
2.01,0.188,0.494,0.014
2.02,-0.532,1.048,-0.299
2.03,0.051,1.778,0.119
2.04,-0.367,0.837,0.046
2.05,0.185,0.727,0.049
2.06,-0.516,0.635,-0.26
2.07,-0.046,2.0,0.062
2.08,-0.115,0.703,0.08
2.09,-0.013,0.99,0.066
2.1,-0.374,0.372,-0.215
2.11,-0.134,2.0,0.139
2.12,-0.194,0.67,0.085
2.13,0.069,0.738,0.035
2.14,-0.549,0.842,-0.272
2.15,0.021,1.78,0.157
2.16,-0.384,1.054,0.051
2.17,0.216,0.445,0.075
2.18,-0.539,0.982,-0.227
2.19,0.042,1.679,0.075
2.2,-0.174,1.031,0.031
2.21,0.071,0.712,0.053
2.22,-0.464,0.586,-0.184
2.23,-0.142,2.0,0.112
2.24,-0.157,0.445,0.01
2.25,0.003,1.051,0.06
2.26,-0.487,0.384,-0.226
2.27,-0.207,2.0,0.091
2.28,-0.212,0.624,0.006
2.29,0.077,0.76,0.08
2.3,-0.469,0.732,-0.244
2.31,-0.034,1.639,0.073
2.32,-0.203,1.199,0.089
2.33,0.117,0.577,-0.041
2.34,-0.476,1.014,-0.196
2.35,0.214,1.851,0.075
2.36,-0.4,1.101,0.102
2.37,0.157,0.591,-0.017
2.38,-0.585,0.873,-0.249
2.39,0.073,2.0,0.171
2.4,-0.351,0.771,0.089
2.41,0.082,0.879,0.018
2.42,-0.444,0.458,-0.208
2.43,-0.127,1.858,0.101
2.44,-0.125,0.674,0.098
2.45,-0.012,1.076,0.038
2.46,-0.399,0.495,-0.205
2.47,0.032,2.0,0.141
2.48,-0.28,0.969,0.075
2.49,0.103,0.553,0.012
2.5,-0.567,1.082,-0.242
2.51,0.081,1.612,0.153
2.52,-0.345,1.283,0.093
2.53,0.128,0.534,0.07
2.54,-0.541,0.834,-0.136
2.55,0.008,1.514,0.157
2.56,-0.202,0.764,0.085
2.57,0.025,1.067,-0.011
2.58,-0.45,0.377,-0.192
2.59,0.068,2.0,0.094
2.6,-0.189,0.656,0.116
2.61,-0.021,0.968,-0.01
2.62,-0.474,0.623,-0.242
2.63,0.019,1.673,0.174
2.64,-0.328,1.152,0.077
2.65,0.163,0.588,0.006
2.66,-0.551,1.049,-0.194
2.67,0.107,1.273,0.108
2.68,-0.313,1.072,0.103
2.69,0.139,0.751,-0.028
2.7,-0.616,0.808,-0.174
2.71,0.142,1.916,0.183
2.72,-0.232,0.865,0.118
2.73,-0.085,0.967,-0.04
2.74,-0.423,0.437,-0.189
2.75,-0.079,1.906,0.168
2.76,-0.187,0.755,0.086
2.77,-0.066,0.928,0.009
2.78,-0.425,0.609,-0.176
2.79,-0.069,1.514,0.154
2.8,-0.238,0.924,0.089
2.81,0.046,0.715,-0.031
2.82,-0.5,1.007,-0.195
2.83,0.157,1.435,0.218
2.84,-0.196,1.306,0.025
2.85,0.025,0.6,-0.077
2.86,-0.469,0.844,-0.18
2.87,-0.002,1.488,0.183
2.88,-0.161,0.88,0.082
2.89,-0.086,0.997,-0.021
2.9,-0.359,0.346,-0.145
2.91,-0.08,1.727,0.131
2.92,-0.188,0.599,0.098
2.93,-0.095,1.147,-0.09
2.94,-0.41,0.492,-0.241
2.95,0.123,1.716,0.178
2.96,-0.176,1.215,0.064
2.97,0.029,0.559,-0.068
2.98,-0.532,1.07,-0.169
2.99,0.076,1.208,0.147
3.0,-0.365,1.245,0.09
3.01,0.125,0.717,-0.03
3.02,-0.44,0.809,-0.17
3.03,0.009,1.511,0.094
3.04,-0.155,0.759,0.077
3.05,-0.146,1.131,-0.111
3.06,-0.39,0.246,-0.164
3.07,-0.03,1.872,0.19
3.08,-0.091,0.913,0.138
3.09,-0.191,0.866,-0.034
3.1,-0.412,0.632,-0.163
3.11,-0.1,1.351,0.078
3.12,-0.309,1.068,0.025
3.13,0.092,0.634,-0.06
3.14,-0.411,0.833,-0.161
3.15,-0.044,1.106,0.214
3.16,-0.256,1.176,0.076
3.17,-0.154,0.569,-0.115
3.18,-0.452,0.853,-0.137
3.19,0.087,1.196,0.138
3.2,-0.075,1.301,0.099
3.21,-0.02,0.77,-0.097
3.22,-0.329,0.584,-0.113
3.23,-0.19,1.427,0.225
3.24,-0.175,0.717,0.005
3.25,-0.183,1.011,-0.081
3.26,-0.378,0.358,-0.151
3.27,-0.074,1.458,0.208
3.28,-0.241,0.81,0.083
3.29,-0.22,0.842,-0.141
3.3,-0.454,0.756,-0.168
3.31,0.015,1.062,0.176
3.32,-0.108,1.457,0.075
3.33,-0.037,0.486,-0.138
3.34,-0.359,1.013,-0.142
3.35,0.017,1.017,0.219
3.36,-0.397,1.051,-0.026
3.37,-0.18,0.734,-0.091
3.38,-0.444,0.501,-0.093
3.39,-0.086,1.431,0.166
3.4,-0.113,0.635,0.095
3.41,-0.418,1.091,-0.16
3.42,-0.386,0.282,-0.141
3.43,-0.154,1.331,0.203
3.44,-0.1,1.125,0.121
3.45,-0.184,0.639,-0.109
3.46,-0.365,0.935,-0.08
3.47,0.029,1.048,0.203
3.48,-0.418,1.232,0.068
3.49,-0.138,0.433,-0.144
3.5,-0.479,0.965,-0.171
3.51,0.124,1.003,0.129
3.52,-0.209,1.018,0.099
3.53,-0.363,0.792,-0.165
3.54,-0.425,0.418,-0.066
3.55,-0.226,1.31,0.225
3.56,-0.086,0.912,0.101
3.57,-0.263,0.916,-0.106
3.58,-0.231,0.603,-0.105
3.59,0.022,1.341,0.129
3.6,-0.135,0.733,0.048
3.61,-0.45,0.686,-0.096
3.62,-0.464,0.844,-0.119
3.63,-0.042,0.896,0.158
3.64,-0.198,1.256,0.101
3.65,-0.278,0.387,-0.142
3.66,-0.41,0.877,-0.094
3.67,-0.174,0.904,0.254
3.68,-0.161,1.269,0.024
3.69,-0.253,0.613,-0.098
3.7,-0.319,0.656,-0.039
3.71,0.022,1.42,0.138
3.72,-0.156,0.557,0.043
3.73,-0.435,0.999,-0.122
3.74,-0.418,0.396,-0.103
3.75,-0.064,1.242,0.106
3.76,-0.186,0.917,0.068
3.77,-0.367,0.598,-0.12
3.78,-0.418,0.825,-0.096
3.79,-0.206,0.777,0.25
3.8,-0.259,1.42,0.046
3.81,-0.219,0.251,-0.086
3.82,-0.313,1.385,-0.027
3.83,0.051,0.963,0.241
3.84,-0.225,0.791,0.066
3.85,-0.396,0.797,-0.115
3.86,-0.464,0.547,-0.012
3.87,-0.122,1.166,0.131
3.88,-0.097,0.624,0.054
3.89,-0.507,0.972,-0.127
3.9,-0.398,0.398,-0.035
3.91,-0.23,1.062,0.226
3.92,-0.177,1.05,0.011
3.93,-0.324,0.465,-0.106
3.94,-0.17,1.808,-0.171
3.95,0.048,0.899,0.118
3.96,-0.006,0.794,0.032
3.97,-0.393,0.548,-0.19
3.98,-0.361,1.838,-0.069
3.99,-0.098,0.406,0.13
4.0,-0.25,1.075,0.089
4.01,-0.343,0.529,-0.259
4.02,-0.392,1.248,-0.001
4.03,-0.186,0.728,0.145
4.04,-0.117,0.705,0.08
4.05,-0.467,0.783,-0.137
4.06,-0.232,1.574,-0.073
4.07,-0.105,1.093,0.112
4.08,0.093,0.501,0.081
4.09,-0.566,0.885,-0.203
4.1,-0.281,1.352,-0.018
4.11,-0.288,0.494,0.122
4.12,-0.113,1.038,0.078
4.13,-0.411,0.339,-0.251
4.14,-0.328,1.737,0.031
4.15,-0.104,0.431,0.127
4.16,-0.171,1.056,0.097
4.17,-0.345,0.371,-0.195
4.18,-0.284,1.943,-0.075
4.19,-0.078,0.902,0.069
4.2,0.094,0.541,0.078
4.21,-0.538,0.955,-0.217
4.22,-0.184,1.333,0.046
4.23,-0.315,0.756,0.124
4.24,-0.047,0.712,0.069
4.25,-0.481,0.734,-0.282
4.26,-0.208,1.595,0.023
4.27,-0.135,0.573,0.105
4.28,-0.07,0.976,0.073
4.29,-0.377,0.291,-0.22
4.3,-0.302,2.0,-0.006
4.31,-0.009,0.608,0.071
4.32,0.017,0.929,0.063
4.33,-0.505,0.534,-0.234
4.34,-0.21,2.0,0.034
4.35,-0.235,0.653,0.01
4.36,0.087,0.649,0.035
4.37,-0.579,0.983,-0.247
4.38,-0.121,1.566,0.076
4.39,-0.221,0.948,0.067
4.4,0.124,0.558,0.099
4.41,-0.526,0.792,-0.207
4.42,-0.072,1.792,0.052
4.43,-0.115,0.856,0.126
4.44,0.027,0.895,0.048
4.45,-0.41,0.444,-0.215
4.46,-0.204,2.0,0.105
4.47,-0.21,0.487,0.098
4.48,-0.029,0.989,0.088
4.49,-0.497,0.481,-0.216
4.5,-0.142,2.0,0.116
4.51,-0.227,0.85,-0.009
4.52,0.137,0.527,0.047
4.53,-0.537,0.948,-0.261
4.54,-0.001,1.674,0.102
4.55,-0.246,1.092,0.07
4.56,0.192,0.54,0.061
4.57,-0.493,0.903,-0.277
4.58,0.002,1.79,0.093
4.59,-0.15,0.827,0.087
4.6,0.001,0.911,0.051
4.61,-0.438,0.393,-0.209
4.62,-0.062,2.0,0.097
4.63,-0.146,0.652,0.066
4.64,-0.003,1.002,-0.02
4.65,-0.485,0.52,-0.229
4.66,0.032,2.0,0.093
4.67,-0.248,0.965,0.081
4.68,0.14,0.546,-0.013
4.69,-0.646,1.026,-0.208
4.7,0.113,1.648,0.088
4.71,-0.351,1.21,0.086
4.72,0.276,0.622,-0.007
4.73,-0.593,0.87,-0.195
4.74,0.141,1.877,0.06
4.75,-0.295,1.076,0.103
4.76,-0.007,0.884,-0.027
4.77,-0.448,0.541,-0.1
4.78,0.008,1.944,0.156
4.79,-0.121,0.763,0.08
4.8,-0.142,1.063,-0.021
4.81,-0.342,0.36,-0.15
4.82,-0.106,1.752,0.201
4.83,-0.051,0.852,0.057
4.84,-0.077,0.83,-0.027
4.85,-0.367,0.813,-0.192
4.86,-0.009,1.283,0.158
4.87,-0.265,1.155,0.109
4.88,0.061,0.613,-0.109
4.89,-0.469,0.983,-0.183
4.9,0.093,1.28,0.123
4.91,-0.23,1.145,0.043
4.92,-0.035,0.86,-0.083
4.93,-0.322,0.522,-0.177
4.94,-0.065,1.615,0.121
4.95,-0.008,0.829,0.096
4.96,-0.171,1.059,-0.166
4.97,-0.213,0.36,-0.18
4.98,-0.119,1.587,0.089
4.99,-0.064,0.912,0.058
5.0,-0.062,0.853,-0.114
5.01,-0.424,0.785,-0.136
5.02,-0.021,1.163,0.187
5.03,-0.306,1.219,0.069
5.04,-0.059,0.503,-0.075
5.05,-0.451,0.975,-0.177
5.06,-0.003,1.138,0.171
5.07,-0.253,1.135,0.107
5.08,-0.203,0.735,-0.133
5.09,-0.358,0.474,-0.103
5.1,-0.148,1.521,0.108
5.11,0.035,0.848,0.111
5.12,-0.253,1.021,-0.151
5.13,-0.298,0.385,-0.112
5.14,-0.167,1.402,0.202
5.15,-0.218,0.871,0.071
5.16,-0.141,0.718,-0.115
5.17,-0.4,0.865,-0.177
5.18,0.124,1.173,0.132
5.19,-0.374,1.078,0.065
5.2,-0.147,0.517,-0.101
5.21,-0.604,0.859,-0.092
5.22,-0.07,0.978,0.19
5.23,-0.152,1.285,0.111
5.24,-0.144,0.668,-0.109
5.25,-0.392,0.575,-0.039
5.26,-0.209,1.324,0.311
5.27,-0.2,0.807,0.093
5.28,-0.271,0.88,-0.056
5.29,-0.388,0.441,-0.054
5.3,-0.08,1.442,0.145
5.31,-0.243,0.744,0.06
5.32,-0.405,0.753,-0.076
5.33,-0.408,0.733,-0.039
5.34,-0.115,0.992,0.201
5.35,-0.173,1.471,0.061
5.36,-0.105,0.387,-0.155
5.37,-0.345,0.978,-0.067
5.38,0.004,1.008,0.222
5.39,-0.305,1.116,0.001
5.4,-0.186,0.608,-0.15
5.41,-0.368,0.709,-0.095
5.42,0.052,1.382,0.149
5.43,-0.125,0.577,0.073
5.44,-0.428,1.037,-0.116
5.45,-0.432,0.354,-0.056
5.46,-0.259,1.176,0.217
5.47,-0.144,1.06,0.028
5.48,-0.277,0.629,-0.094
5.49,-0.375,0.847,-0.088
5.5,0.105,0.964,0.147
5.51,-0.32,1.255,0.088
5.52,-0.26,0.343,-0.081
5.53,-0.507,1.062,-0.045
5.54,0.07,0.898,0.171
5.55,-0.176,1.154,0.103
5.56,-0.359,0.452,-0.233
5.57,-0.44,0.892,-0.034
5.58,-0.126,0.868,0.105
5.59,-0.217,0.91,0.057
5.6,-0.383,0.712,-0.146
5.61,-0.129,1.292,-0.035
5.62,-0.043,1.162,0.161
5.63,-0.011,0.494,0.064
5.64,-0.488,0.855,-0.172
5.65,-0.198,1.551,-0.077
5.66,-0.106,0.7,0.126
5.67,-0.086,0.917,0.071
5.68,-0.391,0.478,-0.23
5.69,-0.396,1.682,-0.001
5.7,-0.166,0.41,0.133
5.71,-0.263,1.136,0.124
5.72,-0.31,0.301,-0.21
5.73,-0.33,2.0,-0.041
5.74,-0.091,0.81,0.095
5.75,0.0,0.551,0.073
5.76,-0.516,0.934,-0.205
5.77,-0.246,1.554,0.024
5.78,-0.248,0.834,0.125
5.79,0.003,0.618,0.068
5.8,-0.54,0.848,-0.229
5.81,-0.224,1.496,0.05
5.82,-0.212,0.571,0.159
5.83,-0.105,0.995,0.07
5.84,-0.407,0.286,-0.215
5.85,-0.34,2.0,0.005
5.86,-0.137,0.46,0.103
5.87,-0.005,1.009,0.079
5.88,-0.528,0.405,-0.215
5.89,-0.308,2.0,0.05
5.9,-0.23,0.739,0.101
5.91,0.081,0.615,0.1
5.92,-0.534,0.903,-0.219
5.93,-0.162,1.662,0.068
5.94,-0.289,0.936,0.058
5.95,0.199,0.594,0.092
5.96,-0.591,0.802,-0.222
5.97,0.011,1.893,0.084
5.98,-0.246,0.718,0.022
5.99,0.159,0.852,0.032
6.0,-0.473,0.427,-0.256
6.01,-0.076,2.0,0.115
6.02,-0.123,0.527,0.078
6.03,0.033,0.986,0.059
6.04,-0.531,0.445,-0.226
6.05,-0.101,2.0,0.12
6.06,-0.299,0.785,0.031
6.07,0.133,0.668,0.031
6.08,-0.59,0.898,-0.272
6.09,0.16,1.695,0.054
6.1,-0.325,1.214,0.091
6.11,0.153,0.452,0.025
6.12,-0.549,0.932,-0.222
6.13,0.067,1.701,0.023
6.14,-0.178,0.866,0.028
6.15,0.037,0.952,-0.009
6.16,-0.447,0.424,-0.17
6.17,0.031,2.0,0.104
6.18,-0.198,0.631,0.073
6.19,-0.043,0.995,-0.011
6.2,-0.393,0.497,-0.234
6.21,0.007,2.0,0.131
6.22,-0.336,0.982,0.084
6.23,0.107,0.628,-0.039
6.24,-0.585,0.981,-0.152
6.25,-0.007,1.358,0.231
6.26,-0.296,1.218,0.098
6.27,0.129,0.661,0.012
6.28,-0.627,0.879,-0.142
6.29,0.137,1.689,0.182
6.3,-0.284,0.929,0.068
6.31,-0.001,0.998,-0.079
6.32,-0.41,0.451,-0.177
6.33,-0.027,1.906,0.178
6.34,-0.169,0.762,0.1
6.35,-0.09,1.016,-0.047
6.36,-0.318,0.352,-0.113
6.37,-0.145,1.563,0.13
6.38,-0.166,0.782,0.003
6.39,-0.134,0.904,-0.126
6.4,-0.289,0.705,-0.168
6.41,-0.074,1.2,0.17
6.42,-0.262,1.236,0.092
6.43,-0.138,0.528,-0.102
6.44,-0.46,1.002,-0.075
6.45,-0.129,1.049,0.295
6.46,-0.356,1.254,0.099
6.47,-0.206,0.642,-0.08
6.48,-0.321,0.634,-0.064
6.49,-0.134,1.363,0.208
6.5,-0.213,0.742,0.062
6.51,-0.41,0.935,-0.098
6.52,-0.256,0.325,-0.093
6.53,-0.267,1.336,0.236
6.54,-0.167,0.944,0.089
6.55,-0.28,0.809,-0.129
6.56,-0.349,0.694,-0.1
6.57,-0.111,0.941,0.222
6.58,-0.247,1.393,-0.021
6.59,-0.138,0.291,-0.119
6.6,-0.342,1.121,-0.114
6.61,0.122,0.86,0.076
6.62,-0.206,1.114,-0.028
6.63,-0.406,0.53,-0.168
6.64,-0.38,0.619,-0.024
6.65,-0.182,1.06,0.133
6.66,-0.151,0.826,0.021
6.67,-0.437,0.84,-0.165
6.68,-0.288,0.673,-0.017
6.69,-0.073,1.122,0.1
6.7,-0.145,0.733,-0.012
6.71,-0.364,0.668,-0.145
6.72,-0.309,1.788,-0.065
6.73,0.038,0.59,0.092
6.74,-0.095,1.053,0.038
6.75,-0.368,0.408,-0.265
6.76,-0.364,1.936,0.067
6.77,-0.181,0.404,0.153
6.78,-0.127,1.023,0.071
6.79,-0.386,0.441,-0.241
6.8,-0.277,1.837,0.034
6.81,-0.221,0.921,0.081
6.82,0.149,0.555,0.084
6.83,-0.537,0.844,-0.208
6.84,-0.116,1.687,0.101
6.85,-0.268,0.9,0.009
6.86,0.115,0.667,0.054
6.87,-0.55,0.694,-0.213
6.88,-0.011,2.0,0.056
6.89,-0.224,0.487,-0.014
6.9,0.013,1.017,0.07
6.91,-0.478,0.306,-0.198
6.92,-0.159,2.0,0.113
6.93,-0.107,0.761,0.067
6.94,0.014,0.951,0.005
6.95,-0.451,0.533,-0.203
6.96,0.002,1.654,0.113
6.97,-0.216,1.04,0.075
6.98,0.031,0.622,0.008
6.99,-0.547,0.969,-0.172
7.0,0.099,1.561,0.18
7.01,-0.26,1.247,0.082
7.02,0.012,0.6,-0.01
7.03,-0.495,0.796,-0.159
7.04,-0.066,1.48,0.128
7.05,-0.221,0.733,0.088
7.06,-0.079,1.128,-0.091
7.07,-0.334,0.267,-0.138
7.08,-0.074,1.675,0.098
7.09,-0.117,0.791,0.081
7.1,-0.136,1.053,-0.071
7.11,-0.351,0.556,-0.116
7.12,0.019,1.372,0.137
7.13,-0.227,1.27,0.038
7.14,-0.029,0.543,-0.1
7.15,-0.353,1.006,-0.089
7.16,-0.037,0.977,0.221
7.17,-0.407,1.324,0.063
7.18,-0.226,0.423,-0.055
7.19,-0.464,0.926,-0.043
7.2,-0.044,0.917,0.227
7.21,-0.234,1.091,0.045
7.22,-0.388,0.772,-0.132
7.23,-0.399,0.429,0.032
7.24,-0.176,1.264,0.244
7.25,-0.193,0.828,0.066
7.26,-0.427,0.815,-0.12
7.27,-0.215,0.994,-0.039
7.28,-0.036,1.084,0.16
7.29,-0.112,0.751,-0.012
7.3,-0.329,0.595,-0.215
7.31,-0.269,1.537,-0.085
7.32,0.026,0.529,0.084
7.33,-0.212,1.149,0.082
7.34,-0.348,0.317,-0.271
7.35,-0.498,1.449,0.079
7.36,-0.157,0.572,0.154
7.37,-0.181,0.959,0.041
7.38,-0.359,0.582,-0.213
7.39,-0.272,1.683,0.006
7.4,-0.139,1.037,0.121
7.41,0.149,0.504,0.067
7.42,-0.561,0.979,-0.182
7.43,-0.154,1.745,0.085
7.44,-0.228,0.81,0.052
7.45,0.018,0.792,0.059
7.46,-0.524,0.616,-0.197
7.47,-0.146,2.0,0.114
7.48,-0.214,0.483,0.032
7.49,-0.031,1.003,0.089
7.5,-0.452,0.339,-0.196
7.51,-0.103,1.972,0.049
7.52,-0.074,0.793,0.06
7.53,0.142,0.879,-0.06
7.54,-0.511,0.689,-0.257
7.55,0.171,1.829,0.047
7.56,-0.312,1.167,0.099
7.57,0.09,0.519,-0.028
7.58,-0.603,1.009,-0.185
7.59,0.111,1.826,0.191
7.6,-0.447,1.107,0.08
7.61,0.104,0.681,-0.03
7.62,-0.512,0.644,-0.134
7.63,-0.077,1.617,0.138
7.64,-0.207,0.586,0.079
7.65,-0.04,1.24,-0.051
7.66,-0.347,0.24,-0.126
7.67,-0.067,1.698,0.143
7.68,-0.087,0.8,0.082
7.69,-0.146,0.959,-0.092
7.7,-0.427,0.714,-0.148
7.71,0.06,1.358,0.248
7.72,-0.22,1.403,0.028
7.73,-0.014,0.426,-0.092
7.74,-0.406,1.059,-0.123
7.75,-0.081,1.068,0.187
7.76,-0.411,1.071,0.019
7.77,-0.091,0.773,-0.086
7.78,-0.333,0.514,-0.12
7.79,-0.155,1.374,0.227
7.8,-0.097,0.774,0.059
7.81,-0.427,1.07,-0.15
7.82,-0.239,0.275,-0.086
7.83,-0.214,1.44,0.192
7.84,-0.129,0.984,0.023
7.85,-0.175,0.742,-0.11
7.86,-0.335,0.864,-0.093
7.87,0.119,1.056,0.118
7.88,-0.357,1.128,0.0
7.89,-0.263,0.444,-0.136
7.9,-0.443,1.008,-0.095
7.91,0.051,0.87,0.157
7.92,-0.182,1.155,0.068
7.93,-0.45,0.626,-0.167
7.94,-0.319,0.567,0.003
7.95,-0.135,1.133,0.145
7.96,-0.181,0.854,0.023
7.97,-0.397,0.63,-0.157
7.98,-0.187,1.61,-0.064
7.99,-0.098,1.191,0.141
8.0,0.08,0.457,0.082
8.01,-0.557,1.015,-0.276
8.02,-0.133,1.755,-0.04
8.03,-0.2,0.605,0.089
8.04,-0.037,0.92,0.081
8.05,-0.564,0.478,-0.186
8.06,-0.279,1.907,0.152
8.07,-0.208,0.344,0.151
8.08,-0.174,1.083,0.123
8.09,-0.366,0.29,-0.2
8.1,-0.271,1.935,0.052
8.11,-0.04,0.943,0.127
8.12,0.075,0.544,0.051
8.13,-0.504,0.939,-0.19
8.14,-0.083,1.653,0.089
8.15,-0.251,1.01,0.122
8.16,0.15,0.582,0.039
8.17,-0.65,0.978,-0.247
8.18,-0.003,2.0,0.111
8.19,-0.351,0.682,0.022
8.2,-0.017,0.843,0.073
8.21,-0.5,0.465,-0.18
8.22,-0.206,1.749,0.099
8.23,0.02,0.664,0.094
8.24,-0.036,0.975,0.076
8.25,-0.396,0.357,-0.211
8.26,-0.009,1.951,0.052
8.27,-0.202,0.779,0.096
8.28,-0.034,0.812,0.024
8.29,-0.625,0.897,-0.239
8.3,0.123,1.896,0.182
8.31,-0.477,1.217,0.022
8.32,0.158,0.377,-0.01
8.33,-0.51,0.968,-0.261
8.34,0.014,1.249,0.046
8.35,-0.172,0.88,0.001
8.36,0.039,0.901,-0.03
8.37,-0.375,0.438,-0.136
8.38,-0.013,1.939,0.129
8.39,-0.098,0.586,0.141
8.4,-0.122,1.224,-0.096
8.41,-0.482,0.332,-0.163
8.42,0.057,1.809,0.19
8.43,-0.211,1.069,0.078
8.44,0.006,0.64,-0.009
8.45,-0.493,0.949,-0.197
8.46,-0.028,1.13,0.11
8.47,-0.382,1.17,0.027
8.48,0.097,0.684,-0.098
8.49,-0.438,0.878,-0.183
8.5,0.13,1.332,0.107
8.51,-0.136,1.02,0.095
8.52,-0.072,0.988,-0.138
8.53,-0.394,0.418,-0.177
8.54,-0.001,1.639,0.145
8.55,-0.083,0.899,0.064
8.56,-0.098,1.004,-0.112
8.57,-0.327,0.425,-0.129
8.58,-0.129,1.339,0.169
8.59,-0.315,0.837,0.007
8.6,-0.152,0.734,-0.119
8.61,-0.396,0.818,-0.162
8.62,0.0,1.091,0.165
8.63,-0.283,1.392,-0.034
8.64,0.091,0.959,0.187
8.65,-0.178,0.743,0.078
8.66,-0.427,0.869,-0.135
8.67,-0.429,0.525,-0.06
8.68,-0.128,1.104,0.118
8.69,-0.12,0.739,0.005
8.7,-0.553,0.888,-0.163
8.71,-0.299,0.691,0.054
8.72,-0.238,1.01,0.115
8.73,-0.104,0.712,0.005
8.74,-0.393,0.654,-0.157
8.75,-0.252,1.8,-0.034
8.76,-0.016,0.813,0.172
8.77,0.027,0.865,0.106
8.78,-0.473,0.456,-0.171
8.79,-0.311,2.0,0.043
8.8,-0.189,0.315,0.088
8.81,-0.085,1.123,0.048
8.82,-0.526,0.466,-0.282
8.83,-0.165,1.717,0.084
8.84,-0.24,0.733,0.13
8.85,0.019,0.635,0.095
8.86,-0.451,0.828,-0.198
8.87,-0.178,1.416,0.043
8.88,-0.164,1.187,0.141
8.89,0.15,0.582,0.077
8.9,-0.565,0.778,-0.173
8.91,-0.037,2.0,0.111
8.92,-0.357,0.485,0.03
8.93,-0.002,1.074,0.055
8.94,-0.529,0.381,-0.218
8.95,-0.233,2.0,0.117
8.96,-0.141,0.517,0.023
8.97,-0.045,0.911,0.103
8.98,-0.454,0.436,-0.167
8.99,-0.162,1.778,0.0
9.0,-0.111,1.038,0.115
9.01,0.139,0.646,-0.023
9.02,-0.578,0.938,-0.185
9.03,0.115,1.873,0.128
9.04,-0.361,0.988,0.018
9.05,0.18,0.584,-0.005
9.06,-0.572,0.853,-0.255
9.07,0.041,1.816,0.091
9.08,-0.288,0.903,0.087
9.09,0.05,0.887,0.009
9.1,-0.493,0.407,-0.174
9.11,-0.094,1.753,0.135
9.12,-0.221,0.546,0.125
9.13,-0.044,1.149,-0.005
9.14,-0.461,0.432,-0.164
9.15,0.051,2.0,0.199
9.16,-0.233,1.092,0.085
9.17,-0.037,0.542,-0.075
9.18,-0.485,1.06,-0.202
9.19,0.07,1.315,0.196
9.2,-0.366,1.343,0.064
9.21,0.103,0.631,-0.043
9.22,-0.444,0.807,-0.171
9.23,0.074,1.486,0.086
9.24,-0.194,0.903,0.069
9.25,-0.063,1.086,-0.13
9.26,-0.361,0.32,-0.133
9.27,0.062,1.865,0.193
9.28,-0.098,0.84,0.115
9.29,-0.083,1.009,-0.105
9.3,-0.392,0.539,-0.158
9.31,-0.116,1.4,0.093
9.32,-0.278,1.124,0.019
9.33,0.029,0.635,-0.123
9.34,-0.452,0.981,-0.114
9.35,0.042,0.968,0.177
9.36,-0.391,1.23,0.047
9.37,-0.158,0.574,-0.151
9.38,-0.406,0.744,-0.122
9.39,-0.079,1.24,0.177
9.4,-0.129,1.041,0.119
9.41,-0.215,0.921,-0.137
9.42,-0.305,0.388,-0.088
9.43,-0.129,1.394,0.182
9.44,-0.214,0.783,-0.003
9.45,-0.299,0.867,-0.106
9.46,-0.405,0.6,-0.072
9.47,0.099,1.19,0.107
9.48,-0.26,1.031,0.01
9.49,-0.32,0.53,-0.167
9.5,-0.471,0.961,-0.042
9.51,-0.17,0.697,0.16
9.52,-0.29,1.385,0.024
9.53,-0.212,0.203,-0.166
9.54,-0.293,1.633,-0.006
9.55,0.029,0.692,0.197
9.56,-0.217,0.885,0.065
9.57,-0.339,0.56,-0.204
9.58,-0.281,1.725,-0.08
9.59,-0.031,0.998,0.085
9.6,-0.042,0.547,0.091
9.61,-0.56,1.01,-0.218
9.62,-0.31,1.07,0.109
9.63,-0.289,0.701,0.165
9.64,-0.155,0.821,0.064
9.65,-0.489,0.563,-0.191
9.66,-0.321,1.951,0.047
9.67,-0.1,0.628,0.135
9.68,-0.096,0.96,0.118
9.69,-0.391,0.329,-0.194
9.7,-0.328,2.0,0.109
9.71,-0.034,0.614,0.131
9.72,-0.021,0.955,0.07
9.73,-0.567,0.587,-0.221
9.74,-0.046,2.0,0.138
9.75,-0.333,0.815,-0.024
9.76,0.16,0.562,0.058
9.77,-0.582,0.981,-0.244
9.78,0.067,1.525,0.079
9.79,-0.248,1.187,0.09
9.8,0.148,0.628,0.039
9.81,-0.507,0.708,-0.189
9.82,0.041,1.645,0.1
9.83,-0.157,0.701,0.081
9.84,-0.049,1.132,0.0
9.85,-0.507,0.323,-0.181
9.86,-0.053,2.0,0.234
9.87,-0.251,0.755,0.009
9.88,-0.052,0.795,-0.034
9.89,-0.477,0.691,-0.224
9.9,-0.12,1.29,0.178
9.91,-0.293,1.053,0.082
9.92,0.128,0.637,-0.014
9.93,-0.484,1.037,-0.17
9.94,0.097,1.267,0.13
9.95,-0.335,1.042,0.078
9.96,0.008,0.843,-0.098
9.97,-0.478,0.658,-0.154
9.98,0.12,1.774,0.175
9.99,-0.064,1.027,0.001
10.0,-0.063,0.969,-0.106
10.01,-0.31,0.41,-0.172
10.02,-0.081,1.629,0.062
10.03,-0.181,0.728,0.019
10.04,-0.025,1.023,-0.107
10.05,-0.322,0.593,-0.17
10.06,-0.028,1.288,0.157
10.07,-0.296,1.114,0.057
10.08,-0.159,0.567,-0.138
10.09,-0.449,0.989,-0.063
10.1,-0.01,1.111,0.186
10.11,-0.161,1.431,0.105
10.12,-0.078,0.568,-0.12
10.13,-0.398,0.765,-0.066
10.14,-0.002,1.371,0.193
10.15,-0.377,0.755,0.043
10.16,-0.289,0.945,-0.091
10.17,-0.477,0.333,-0.079
10.18,-0.088,1.428,0.173
10.19,-0.157,0.76,0.09
10.2,-0.438,0.888,-0.185
10.21,-0.364,0.586,-0.038
10.22,-0.227,0.959,0.212
10.23,-0.198,1.425,0.053
10.24,-0.24,0.318,-0.12
10.25,-0.262,1.353,-0.046
10.26,0.202,0.835,0.085
10.27,-0.307,1.013,0.032
10.28,-0.321,0.535,-0.164
10.29,-0.397,1.048,-0.055
10.3,-0.015,0.869,0.127
10.31,-0.146,0.688,0.066
10.32,-0.425,0.747,-0.251
10.33,-0.366,0.979,0.132
10.34,-0.282,0.865,0.164
10.35,-0.156,0.681,0.085
10.36,-0.47,0.715,-0.196
10.37,-0.229,1.551,0.053
10.38,-0.088,1.078,0.168
10.39,0.06,0.639,0.078
10.4,-0.476,0.612,-0.165
10.41,-0.267,2.0,0.128
10.42,-0.165,0.427,0.067
10.43,-0.04,1.094,0.112
10.44,-0.544,0.349,-0.256
10.45,-0.209,2.0,0.148
10.46,-0.169,0.636,0.006
10.47,0.034,0.81,0.07
10.48,-0.483,0.667,-0.176
10.49,-0.106,1.623,0.036
10.5,-0.165,1.163,0.07
10.51,0.177,0.569,0.016
10.52,-0.624,1.007,-0.196
10.53,0.148,1.801,0.105
10.54,-0.417,1.076,0.157
10.55,0.058,0.751,0.016
10.56,-0.596,0.659,-0.142
10.57,0.021,1.855,0.167
10.58,-0.257,0.736,0.042
10.59,-0.014,1.062,0.023
10.6,-0.407,0.332,-0.14
10.61,-0.027,1.773,0.196
10.62,-0.179,0.741,0.058
10.63,-0.027,0.975,-0.045
10.64,-0.498,0.69,-0.157
10.65,0.104,1.477,0.235
10.66,-0.298,1.316,0.064
10.67,0.014,0.485,-0.081
10.68,-0.433,1.032,-0.131
10.69,0.006,1.247,0.113
10.7,-0.356,1.141,0.073
10.71,-0.004,0.784,-0.135
10.72,-0.321,0.595,-0.161
10.73,-0.062,1.514,0.071
10.74,-0.064,0.754,0.034
10.75,-0.293,1.075,-0.156
10.76,-0.241,0.284,-0.092
10.77,-0.162,1.552,0.138
10.78,-0.143,0.875,0.033
10.79,-0.193,0.847,-0.188
10.8,-0.277,0.702,-0.179
10.81,-0.054,1.014,0.198
10.82,-0.3,1.335,0.034
10.83,-0.154,0.375,-0.154
10.84,-0.446,0.992,-0.108
10.85,-0.07,0.969,0.272
10.86,-0.385,1.222,0.071
10.87,-0.278,0.593,-0.089
10.88,-0.44,0.595,-0.002
10.89,-0.138,1.287,0.269
10.9,-0.164,0.806,0.014
10.91,-0.365,0.883,-0.099
10.92,-0.32,0.46,-0.079
10.93,0.03,1.295,0.112
10.94,-0.194,0.774,-0.021
10.95,-0.347,0.737,-0.18
10.96,-0.311,1.061,-0.15
10.97,0.092,0.739,0.104
10.98,-0.158,1.097,0.016
10.99,-0.282,0.363,-0.222
11.0,-0.426,1.485,-0.047
11.01,0.01,0.554,0.161
11.02,-0.268,1.051,0.038
11.03,-0.361,0.525,-0.178
11.04,-0.264,1.79,-0.058
11.05,-0.059,0.954,0.11
11.06,-0.001,0.498,0.076
11.07,-0.573,0.993,-0.162
11.08,-0.212,1.545,0.028
11.09,-0.183,0.839,0.121
11.1,-0.029,0.67,0.038
11.11,-0.5,0.754,-0.248
11.12,-0.17,1.847,0.021
11.13,-0.204,0.692,0.054
11.14,0.054,0.807,0.087
11.15,-0.539,0.506,-0.223
11.16,-0.131,2.0,0.091
11.17,-0.084,0.611,0.109
11.18,0.005,1.013,0.059
11.19,-0.446,0.351,-0.257
11.2,-0.033,2.0,0.115
11.21,-0.18,0.794,0.064
11.22,0.032,0.706,-0.014
11.23,-0.485,0.854,-0.254
11.24,0.028,1.799,0.155
11.25,-0.324,1.142,0.107
11.26,0.178,0.501,0.021
11.27,-0.57,0.954,-0.209
11.28,0.112,1.695,0.07
11.29,-0.228,1.057,0.065
11.3,0.154,0.883,-0.023
11.31,-0.489,0.507,-0.202
11.32,0.013,2.0,0.081
11.33,-0.171,0.671,0.073
11.34,-0.06,1.086,0.003
11.35,-0.482,0.379,-0.177
11.36,-0.048,1.869,0.178
11.37,-0.207,0.883,0.046
11.38,-0.01,0.796,-0.017
11.39,-0.415,0.828,-0.196
11.4,0.057,1.339,0.15
11.41,-0.319,1.243,0.095
11.42,0.124,0.63,-0.045
11.43,-0.558,0.976,-0.121
11.44,0.077,1.429,0.254
11.45,-0.182,1.083,0.109
11.46,-0.044,0.829,-0.054
11.47,-0.407,0.624,-0.211
11.48,-0.057,1.608,0.126
11.49,-0.203,0.764,0.042
11.5,-0.114,1.139,-0.105
11.51,-0.243,0.316,-0.116
11.52,-0.125,1.592,0.062
11.53,-0.163,0.97,0.037
11.54,-0.061,0.766,-0.098
11.55,-0.309,0.831,-0.16
11.56,0.064,1.226,0.076
11.57,-0.237,1.255,0.022
11.58,0.01,0.551,-0.118
11.59,-0.396,0.965,-0.116
11.6,-0.044,1.173,0.167
11.61,-0.256,1.109,0.019
11.62,-0.136,0.787,-0.133
11.63,-0.332,0.526,-0.113
11.64,-0.183,1.402,0.234
11.65,-0.134,0.766,0.04
11.66,-0.37,1.008,-0.064
11.67,-0.205,0.352,-0.127
11.68,-0.25,1.326,0.231
11.69,-0.161,0.989,0.049
11.7,-0.3,0.686,-0.105
11.71,-0.354,0.807,-0.08
11.72,-0.035,0.921,0.237
11.73,-0.287,1.295,0.07
11.74,-0.243,0.362,-0.15
11.75,-0.434,1.011,-0.073
11.76,-0.032,0.948,0.203
11.77,-0.315,1.111,0.1
11.78,-0.383,0.563,-0.102
11.79,-0.339,0.521,-0.022
11.8,-0.19,1.269,0.16
11.81,-0.142,0.752,0.093
11.82,-0.377,0.85,-0.127
11.83,-0.247,0.764,-0.11
11.84,0.058,1.144,0.124
11.85,-0.149,0.752,0.07
11.86,-0.48,0.659,-0.12
11.87,-0.465,0.955,-0.021
11.88,-0.073,0.659,0.138
11.89,-0.245,1.212,0.073
11.9,-0.344,0.299,-0.178
11.91,-0.429,1.1,-0.001
11.92,-0.099,0.71,0.129
11.93,-0.269,1.115,0.072
11.94,-0.293,0.278,-0.187
11.95,-0.326,2.0,-0.054
11.96,-0.047,0.868,0.099
11.97,0.064,0.553,0.089
11.98,-0.606,0.939,-0.21
11.99,-0.247,1.719,0.053
12.0,-0.274,0.892,0.08
12.01,0.017,0.616,0.122
12.02,-0.589,0.901,-0.217
12.03,-0.206,1.799,0.1
12.04,-0.295,0.642,0.097
12.05,-0.044,0.897,0.075
12.06,-0.41,0.346,-0.208
12.07,-0.359,2.0,0.115
12.08,-0.095,0.568,0.127
12.09,-0.052,0.949,0.074
12.1,-0.47,0.41,-0.171
12.11,-0.25,2.0,0.146
12.12,-0.227,0.744,0.091
12.13,0.15,0.666,0.017
12.14,-0.524,0.913,-0.295
12.15,0.077,1.708,0.071
12.16,-0.296,1.09,-0.014
12.17,0.163,0.517,0.042
12.18,-0.524,0.893,-0.262
12.19,0.117,1.76,0.038
12.2,-0.163,1.017,0.03
12.21,0.074,0.82,-0.007
12.22,-0.414,0.488,-0.216
12.23,-0.046,2.0,0.145
12.24,-0.201,0.59,0.074
12.25,-0.064,1.01,0.021
12.26,-0.484,0.465,-0.2
12.27,-0.064,2.0,0.135
12.28,-0.297,0.936,0.093
12.29,0.079,0.676,0.015
12.3,-0.48,0.935,-0.212
12.31,0.043,1.337,0.189
12.32,-0.278,1.18,0.092
12.33,0.113,0.655,-0.07
12.34,-0.558,0.909,-0.171
12.35,0.131,1.744,0.136
12.36,-0.267,1.065,0.024
12.37,-0.012,0.89,-0.079
12.38,-0.444,0.488,-0.172
12.39,-0.026,1.734,0.191
12.4,-0.162,0.742,0.077
12.41,-0.042,1.122,-0.051
12.42,-0.352,0.397,-0.172
12.43,-0.037,1.553,0.095
12.44,-0.192,0.871,0.006
12.45,-0.029,0.824,-0.109
12.46,-0.448,0.82,-0.168
12.47,0.084,1.188,0.14
12.48,-0.238,1.386,0.091
12.49,0.028,0.542,-0.103
12.5,-0.409,0.94,-0.11
12.51,-0.02,1.237,0.128
12.52,-0.285,1.088,0.048
12.53,-0.083,0.885,-0.151
12.54,-0.355,0.438,-0.116
12.55,-0.091,1.492,0.18
12.56,-0.142,0.666,-0.002
12.57,-0.327,1.085,-0.153
12.58,-0.347,0.368,-0.092
12.59,-0.207,1.267,0.199
12.6,-0.214,1.003,0.033
12.61,-0.248,0.631,-0.134
12.62,-0.353,0.91,-0.066
12.63,-0.072,0.927,0.21
12.64,-0.309,1.287,0.044
12.65,-0.235,0.344,-0.084
12.66,-0.366,0.997,-0.048
12.67,0.025,1.028,0.189
12.68,-0.258,0.955,0.071
12.69,-0.378,0.708,-0.168
12.7,-0.3,0.474,-0.07
12.71,-0.088,1.3,0.123
12.72,-0.146,0.726,0.01
12.73,-0.434,0.793,-0.148
12.74,-0.228,1.135,-0.062
12.75,-0.128,1.052,0.215
12.76,-0.063,0.608,0.076
12.77,-0.534,0.791,-0.161
12.78,-0.246,1.829,-0.005
12.79,-0.073,0.632,0.1
12.8,-0.084,0.958,0.048
12.81,-0.418,0.427,-0.265
12.82,-0.284,2.0,0.03
12.83,-0.123,0.381,0.142
12.84,-0.092,1.054,0.049
12.85,-0.35,0.398,-0.287
12.86,-0.249,1.979,-0.009
12.87,-0.139,0.807,0.034
12.88,0.08,0.599,0.052
12.89,-0.468,0.929,-0.226
12.9,-0.14,1.556,0.074
12.91,-0.17,1.081,0.055
12.92,0.19,0.565,0.063
12.93,-0.519,0.827,-0.228
12.94,-0.001,1.986,0.084
12.95,-0.3,0.68,0.069
12.96,0.024,0.95,0.042
12.97,-0.464,0.36,-0.227
12.98,-0.105,2.0,0.153
12.99,-0.248,0.523,0.072
13.0,0.018,0.936,0.059
13.01,-0.458,0.465,-0.22
13.02,-0.066,1.952,0.084
13.03,-0.219,0.962,0.092
13.04,0.126,0.667,-0.006
13.05,-0.524,0.926,-0.189
13.06,0.129,1.627,0.07
13.07,-0.319,1.209,0.092
13.08,0.168,0.603,-0.014
13.09,-0.542,0.883,-0.213
13.1,0.113,1.848,0.125
13.11,-0.258,0.98,0.121
13.12,0.012,0.907,-0.049
13.13,-0.434,0.408,-0.137
13.14,-0.125,1.684,0.14
13.15,-0.25,0.629,0.133
13.16,-0.021,1.209,-0.013
13.17,-0.409,0.357,-0.141
13.18,0.044,1.729,0.219
13.19,-0.084,1.07,0.071
13.2,-0.053,0.625,-0.067
13.21,-0.452,0.997,-0.191
13.22,0.056,1.193,0.225
13.23,-0.362,1.322,0.069
13.24,0.064,0.579,-0.029
13.25,-0.397,0.857,-0.122
13.26,-0.048,1.322,0.099
13.27,-0.239,0.98,0.045
13.28,-0.15,0.989,-0.144
13.29,-0.357,0.294,-0.085
13.3,-0.051,1.57,0.147
13.31,-0.067,0.818,0.121
13.32,-0.192,1.041,-0.115
13.33,-0.353,0.454,-0.111
13.34,-0.16,1.348,0.173
13.35,-0.294,1.051,0.017
13.36,-0.084,0.591,-0.131
13.37,-0.431,0.982,-0.086
13.38,0.025,0.942,0.216
13.39,-0.435,1.203,0.089
13.4,-0.258,0.503,-0.098
13.41,-0.47,0.831,-0.065
13.42,-0.137,1.002,0.208
13.43,-0.215,1.04,0.039
13.44,-0.26,0.842,-0.119
13.45,-0.381,0.363,-0.049
13.46,-0.161,1.332,0.234
13.47,-0.223,0.773,0.042
13.48,-0.317,0.844,-0.109
13.49,-0.369,0.649,-0.026
13.5,0.008,1.161,0.126
13.51,-0.295,0.888,0.034
13.52,-0.301,0.528,-0.176
13.53,-0.468,0.952,-0.051
13.54,-0.071,0.659,0.117
13.55,-0.252,1.172,0.006
13.56,-0.344,0.315,-0.233
13.57,-0.364,1.408,0.007
13.58,0.018,0.577,0.137
13.59,-0.237,1.072,0.047
13.6,-0.362,0.466,-0.191
13.61,-0.211,1.776,-0.038
13.62,-0.07,0.939,0.129
13.63,0.01,0.54,0.047
13.64,-0.459,0.999,-0.236
13.65,-0.183,1.654,-0.004
13.66,-0.145,0.934,0.104
13.67,0.021,0.551,0.092
13.68,-0.588,0.797,-0.191
13.69,-0.253,2.0,0.035
13.7,-0.14,0.587,0.066
13.71,0.052,0.943,0.038
13.72,-0.448,0.391,-0.286
13.73,-0.164,2.0,0.069
13.74,-0.098,0.653,0.151
13.75,-0.06,0.933,0.112
13.76,-0.466,0.506,-0.185
13.77,-0.181,2.0,0.169
13.78,-0.241,0.852,0.065
13.79,0.135,0.535,0.052
13.8,-0.562,1.043,-0.269
13.81,-0.018,1.68,0.11
13.82,-0.259,1.053,-0.02
13.83,0.255,0.619,0.003
13.84,-0.548,0.773,-0.226
13.85,0.12,1.873,0.006
13.86,-0.171,0.82,0.049
13.87,0.04,1.024,-0.018
13.88,-0.439,0.325,-0.243
13.89,0.017,2.0,0.133
13.9,-0.184,0.586,0.002
13.91,0.019,0.953,-0.016
13.92,-0.521,0.547,-0.219
13.93,-0.012,1.768,0.1
13.94,-0.238,1.076,0.018
13.95,0.128,0.643,0.005
13.96,-0.479,0.947,-0.191
13.97,0.105,1.39,0.147
13.98,-0.265,1.136,0.101
13.99,0.15,0.691,0.005
14.0,-0.653,0.826,-0.161
14.01,0.081,1.625,0.234
14.02,-0.186,0.804,0.073
14.03,-0.004,1.0,-0.028
14.04,-0.48,0.401,-0.149
14.05,-0.054,1.623,0.108
14.06,-0.2,0.703,0.067
14.07,-0.068,1.069,-0.075
14.08,-0.418,0.471,-0.154
14.09,-0.007,1.462,0.124
14.1,-0.242,1.001,0.129
14.11,-0.034,0.656,-0.071
14.12,-0.483,0.963,-0.156
14.13,0.026,1.204,0.174
14.14,-0.255,1.278,0.063
14.15,-0.006,0.617,-0.072
14.16,-0.374,0.854,-0.161
14.17,-0.025,1.411,0.074
14.18,-0.055,0.946,0.029
14.19,-0.11,0.951,-0.116
14.2,-0.314,0.369,-0.151
14.21,-0.131,1.569,0.171
14.22,-0.145,0.69,0.061
14.23,-0.229,1.029,-0.103
14.24,-0.321,0.425,-0.125
14.25,-0.061,1.368,0.147
14.26,-0.122,1.182,0.075
14.27,-0.018,0.638,-0.149
14.28,-0.332,0.956,-0.125
14.29,0.017,1.086,0.132
14.3,-0.252,1.411,0.053
14.31,-0.03,0.528,-0.128
14.32,-0.417,0.868,-0.136
14.33,-0.029,1.279,0.211
14.34,-0.305,0.981,0.028
14.35,-0.28,0.787,-0.136
14.36,-0.447,0.51,-0.106
14.37,-0.18,1.187,0.209
14.38,-0.168,0.847,0.054
14.39,-0.363,0.927,-0.133
14.4,-0.378,0.326,-0.029
14.41,-0.143,1.292,0.214
14.42,-0.254,0.94,0.019
14.43,-0.316,0.606,-0.085
14.44,-0.404,0.978,-0.058
14.45,0.07,0.957,0.156
14.46,-0.293,1.101,0.062
14.47,-0.296,0.407,-0.112
14.48,-0.519,1.002,-0.019
14.49,-0.056,0.778,0.192
14.5,-0.321,1.203,0.075
14.51,-0.304,0.513,-0.153
14.52,-0.382,0.638,-0.043
14.53,-0.119,1.208,0.16
14.54,-0.094,0.773,-0.039
14.55,-0.403,0.793,-0.112
14.56,-0.215,0.978,-0.058
14.57,0.025,1.126,0.156
14.58,-0.076,0.678,0.064
14.59,-0.49,0.775,-0.183
14.6,-0.319,0.994,-0.048
14.61,-0.047,0.634,0.079
14.62,-0.228,1.212,0.033
14.63,-0.308,0.262,-0.231
14.64,-0.436,1.361,-0.009
14.65,0.0,0.586,0.095
14.66,-0.228,1.043,0.035
14.67,-0.306,0.446,-0.203
14.68,-0.204,1.823,-0.078
14.69,-0.039,1.031,0.106
14.7,0.119,0.507,0.027
14.71,-0.578,0.963,-0.218
14.72,-0.3,0.736,0.05
14.73,-0.348,0.803,0.105
14.74,-0.278,0.853,0.088
14.75,-0.448,0.594,-0.162
14.76,-0.275,1.774,0.051
14.77,-0.026,0.632,0.177
14.78,-0.116,1.017,0.08
14.79,-0.385,0.443,-0.167
14.8,-0.221,2.0,0.031
14.81,-0.018,0.604,0.133
14.82,0.054,1.106,0.009
14.83,-0.446,0.348,-0.247
14.84,-0.029,2.0,0.14
14.85,-0.303,0.624,0.023
14.86,0.095,0.71,0.005
14.87,-0.587,0.885,-0.245
14.88,0.072,1.456,0.096
14.89,-0.247,1.289,0.093
14.9,0.064,0.472,0.022
14.91,-0.479,0.947,-0.136
14.92,0.065,1.554,0.095
14.93,-0.277,0.925,0.093
14.94,0.046,0.95,-0.019
14.95,-0.545,0.456,-0.144
14.96,0.063,2.0,0.177
14.97,-0.274,0.69,0.084
14.98,-0.031,0.955,-0.001
14.99,-0.459,0.468,-0.165
15.0,-0.113,1.713,0.206
15.01,-0.244,0.868,0.088
15.02,0.049,0.857,-0.036
15.03,-0.43,0.821,-0.183
15.04,0.045,1.388,0.171
15.05,-0.313,1.19,0.168
15.06,0.077,0.668,-0.008
15.07,-0.564,0.952,-0.123
15.08,0.166,1.487,0.195
15.09,-0.28,1.163,0.136
15.1,-0.015,0.778,-0.059
15.11,-0.403,0.616,-0.158
15.12,-0.137,1.559,0.098
15.13,-0.242,0.732,0.073
15.14,-0.132,1.119,-0.052
15.15,-0.272,0.275,-0.089
15.16,-0.215,1.512,0.228
15.17,-0.223,0.746,0.18
15.18,-0.378,0.989,-0.133
15.19,-0.311,0.515,-0.085
15.2,-0.146,1.236,0.198
15.21,-0.179,1.343,0.061
15.22,-0.114,0.451,-0.141
15.23,-0.377,1.038,-0.074
15.24,0.077,1.042,0.23
15.25,-0.434,1.18,0.037
15.26,-0.188,0.514,-0.083
15.27,-0.458,0.759,-0.081
15.28,-0.043,1.184,0.193
15.29,-0.185,0.82,0.042
15.3,-0.367,0.916,-0.156
15.31,-0.372,0.309,-0.07
15.32,-0.196,1.263,0.23
15.33,-0.184,0.89,-0.018
15.34,-0.281,0.785,-0.079
15.35,-0.382,0.679,-0.079
15.36,0.106,1.011,0.115
15.37,-0.238,1.109,-0.014
15.38,-0.369,0.335,-0.155
15.39,-0.36,1.255,-0.055
15.4,0.016,0.688,0.152
15.41,-0.186,1.148,0.059
15.42,-0.371,0.439,-0.197
15.43,-0.404,1.031,-0.029
15.44,-0.092,0.861,0.146
15.45,-0.21,0.812,0.035
15.46,-0.44,0.771,-0.141
15.47,-0.179,1.464,-0.053
15.48,-0.168,1.086,0.135
15.49,0.029,0.515,0.072
15.5,-0.562,0.857,-0.184
15.51,-0.318,1.406,0.02
15.52,-0.232,0.599,0.196
15.53,-0.095,1.02,0.059
15.54,-0.406,0.386,-0.217
15.55,-0.288,1.949,0.065
15.56,-0.126,0.472,0.152
15.57,-0.158,1.035,0.097
15.58,-0.304,0.322,-0.21
15.59,-0.383,1.995,-0.019
15.6,-0.07,0.798,0.042
15.61,0.05,0.617,0.019
15.62,-0.509,0.845,-0.238
15.63,-0.116,1.542,0.042
15.64,-0.299,0.798,0.091
15.65,0.031,0.616,0.06
15.66,-0.62,0.806,-0.185
15.67,-0.154,1.79,0.097
15.68,-0.171,0.762,0.022
15.69,0.028,0.808,0.063
15.7,-0.471,0.388,-0.21
15.71,-0.107,2.0,0.061
15.72,-0.055,0.635,0.069
15.73,0.026,1.042,0.031
15.74,-0.451,0.357,-0.248
15.75,-0.002,2.0,0.176
15.76,-0.214,0.805,0.063
15.77,0.021,0.634,-0.042
15.78,-0.484,0.943,-0.274
15.79,0.05,1.718,0.155
15.8,-0.36,1.186,0.084
15.81,0.181,0.439,-0.024
15.82,-0.516,1.003,-0.272
15.83,0.05,1.433,0.095
15.84,-0.23,0.909,0.063
15.85,0.057,1.023,-0.055
15.86,-0.39,0.395,-0.211
15.87,0.093,2.0,0.093
15.88,-0.187,0.691,0.094
15.89,-0.142,1.063,0.007
15.9,-0.465,0.443,-0.15
15.91,-0.008,1.999,0.188
15.92,-0.249,1.069,0.063
15.93,0.032,0.621,-0.045
15.94,-0.472,0.971,-0.151
15.95,-0.097,1.289,0.15
15.96,-0.309,1.072,0.043
15.97,0.006,0.607,-0.114
15.98,-0.427,0.958,-0.143
15.99,0.104,1.175,0.101
16.0,-0.224,1.276,-0.018
16.01,-0.055,0.696,-0.159
16.02,-0.315,0.636,-0.12
16.03,-0.082,1.425,0.121
16.04,-0.155,0.957,0.079
16.05,-0.27,0.982,-0.106
16.06,-0.324,0.327,-0.053
16.07,-0.198,1.448,0.237
16.08,-0.142,0.832,-0.055
16.09,-0.27,0.855,-0.161
16.1,-0.278,0.633,-0.153
16.11,-0.074,1.153,0.193
16.12,-0.274,1.188,0.07
16.13,-0.285,0.459,-0.131
16.14,-0.389,0.985,-0.034
16.15,-0.086,0.815,0.24
16.16,-0.268,1.314,0.058
16.17,-0.292,0.447,-0.122
16.18,-0.349,0.756,-0.032
16.19,0.021,1.209,0.13
16.2,-0.139,0.74,-0.01
16.21,-0.434,0.925,-0.105
16.22,-0.346,0.509,-0.043
16.23,-0.037,1.225,0.153
16.24,-0.138,0.647,0.08
16.25,-0.482,0.83,-0.145
16.26,-0.386,0.865,-0.063
16.27,-0.036,0.773,0.135
16.28,-0.227,1.102,0.066
16.29,-0.372,0.277,-0.166
16.3,-0.391,1.439,-0.042
16.31,0.057,0.652,0.142
16.32,-0.245,1.019,0.07
16.33,-0.372,0.533,-0.174
16.34,-0.329,1.342,-0.004
16.35,-0.068,0.833,0.209
16.36,-0.125,0.621,0.109
16.37,-0.545,0.941,-0.161
16.38,-0.322,0.992,-0.006
16.39,-0.148,0.951,0.179
16.4,-0.117,0.622,0.03
16.41,-0.498,0.817,-0.183
16.42,-0.262,1.626,-0.029
16.43,-0.036,0.691,0.134
16.44,-0.091,0.931,0.066
16.45,-0.353,0.497,-0.218
16.46,-0.376,2.0,-0.019
16.47,-0.018,0.429,0.137
16.48,-0.194,1.031,0.095
16.49,-0.344,0.492,-0.216
16.5,-0.317,1.965,-0.007
16.51,-0.118,0.72,0.11
16.52,0.016,0.635,0.077
16.53,-0.539,0.923,-0.213
16.54,-0.19,1.613,0.009
16.55,-0.275,0.882,0.095
16.56,0.044,0.581,0.126
16.57,-0.559,0.793,-0.227
16.58,-0.168,1.841,0.046
16.59,-0.182,0.629,0.052
16.6,-0.105,0.91,0.04
16.61,-0.374,0.304,-0.179
16.62,-0.414,2.0,0.051
16.63,-0.098,0.52,0.165
16.64,-0.014,0.886,0.115
16.65,-0.446,0.485,-0.264
16.66,-0.277,2.0,0.028
16.67,-0.195,0.701,0.003
16.68,0.137,0.606,0.065
16.69,-0.561,0.944,-0.274
16.7,-0.01,1.625,0.093
16.71,-0.292,1.047,0.095
16.72,0.167,0.512,0.101
16.73,-0.558,0.896,-0.189
16.74,-0.027,1.836,0.124
16.75,-0.17,0.79,0.087
16.76,0.081,0.697,-0.016
16.77,-0.483,0.699,-0.229
16.78,0.057,2.0,0.083
16.79,-0.188,0.644,0.076
16.8,-0.005,1.0,-0.054
16.81,-0.47,0.398,-0.192
16.82,-0.049,1.989,0.106
16.83,-0.193,0.832,0.084
16.84,0.024,0.839,0.009
16.85,-0.456,0.738,-0.175
16.86,0.049,1.626,0.127
16.87,-0.211,1.138,0.024
16.88,0.108,0.54,-0.029
16.89,-0.532,1.063,-0.221
16.9,0.132,1.534,0.14
16.91,-0.29,1.104,0.124
16.92,0.046,0.693,-0.02
16.93,-0.497,0.679,-0.196
16.94,0.005,1.552,0.141
16.95,-0.221,0.694,0.088
16.96,-0.053,1.181,-0.046
16.97,0.099,0.475,0.025
16.98,-0.516,1.05,-0.254
16.99,-0.171,1.266,-0.056
17.0,-0.218,0.792,0.139
17.01,-0.071,0.724,0.045
17.02,-0.496,0.682,-0.16
17.03,-0.238,1.845,-0.01
17.04,-0.137,0.548,0.125
17.05,-0.051,1.049,0.094
17.06,-0.371,0.3,-0.241
17.07,-0.288,2.0,-0.021
17.08,-0.045,0.523,0.107
17.09,-0.055,0.945,0.122
17.1,-0.426,0.587,-0.265
17.11,-0.289,1.664,0.01
17.12,-0.181,0.797,0.13
17.13,0.024,0.59,0.062
17.14,-0.52,0.933,-0.203
17.15,-0.178,1.582,0.014
17.16,-0.204,0.886,0.08
17.17,0.063,0.625,0.074
17.18,-0.489,0.785,-0.221
17.19,-0.275,1.978,0.019
17.2,-0.127,0.52,0.072
17.21,-0.077,0.977,0.057
17.22,-0.384,0.39,-0.245
17.23,-0.381,2.0,-0.014
17.24,-0.071,0.467,0.073
17.25,-0.053,0.905,0.094
17.26,-0.46,0.572,-0.224
17.27,-0.289,1.884,0.067
17.28,-0.207,0.871,0.069
17.29,0.104,0.493,0.086
17.3,-0.516,0.996,-0.249
17.31,-0.158,1.615,0.107
17.32,-0.209,0.941,0.094
17.33,0.122,0.571,0.143
17.34,-0.467,0.837,-0.218
17.35,-0.288,2.0,0.066
17.36,-0.146,0.544,0.085
17.37,0.002,0.933,0.109
17.38,-0.438,0.396,-0.222
17.39,-0.335,2.0,0.11
17.4,-0.172,0.514,0.096
17.41,0.102,0.944,0.102
17.42,-0.41,0.501,-0.272
17.43,-0.19,1.902,0.088
17.44,-0.216,0.879,0.031
17.45,0.19,0.511,0.055
17.46,-0.483,0.854,-0.278
17.47,0.077,1.719,0.117
17.48,-0.333,1.157,0.055
17.49,0.167,0.462,0.064
17.5,-0.537,0.969,-0.216
17.51,0.088,1.802,0.12
17.52,-0.304,0.909,0.084
17.53,0.067,0.769,0.04
17.54,-0.468,0.492,-0.185
17.55,-0.043,2.0,0.193
17.56,-0.233,0.508,0.019
17.57,0.075,1.003,0.021
17.58,-0.415,0.403,-0.224
17.59,-0.076,2.0,0.072
17.6,-0.169,0.811,0.081
17.61,0.055,0.756,-0.013
17.62,-0.481,0.799,-0.216
17.63,0.132,1.87,0.049
17.64,-0.317,1.143,0.048
17.65,0.203,0.503,0.034
17.66,-0.568,1.03,-0.275
17.67,0.148,1.798,0.146
17.68,-0.306,1.045,0.078
17.69,0.084,0.684,-0.024
17.7,-0.408,0.626,-0.214
17.71,-0.047,1.919,0.091
17.72,-0.172,0.605,0.079
17.73,0.021,1.145,0.042
17.74,-0.479,0.352,-0.177
17.75,0.039,2.0,0.093
17.76,-0.185,0.856,0.031
17.77,0.031,0.796,-0.017
17.78,-0.499,0.848,-0.245
17.79,0.173,1.864,0.151
17.8,-0.361,1.227,0.087
17.81,0.133,0.445,0.022
17.82,-0.614,1.058,-0.192
17.83,0.105,1.397,0.117
17.84,-0.265,1.033,0.083
17.85,0.091,0.822,-0.003
17.86,-0.475,0.562,-0.165
17.87,-0.049,1.708,0.195
17.88,-0.18,0.614,0.073
17.89,-0.064,1.194,-0.026
17.9,-0.387,0.356,-0.172
17.91,0.057,2.0,0.161
17.92,-0.211,0.857,0.047
17.93,0.027,0.805,-0.016
17.94,-0.5,0.844,-0.232
17.95,0.109,1.449,0.202
17.96,-0.307,1.292,0.07
17.97,0.139,0.496,-0.028
17.98,-0.521,1.054,-0.198
17.99,0.101,1.354,0.154
18.0,-0.326,1.035,0.134
18.01,0.032,0.919,-0.04
18.02,-0.48,0.569,-0.136
18.03,0.073,1.894,0.196
18.04,-0.206,0.748,0.113
18.05,-0.051,1.139,-0.023
18.06,-0.45,0.353,-0.17
18.07,-0.056,1.581,0.184
18.08,-0.207,0.83,0.055
18.09,0.042,0.889,-0.024
18.1,-0.446,0.796,-0.158
18.11,-0.006,1.299,0.146
18.12,-0.275,1.178,0.089
18.13,0.045,0.638,-0.091
18.14,-0.451,0.983,-0.132
18.15,0.073,1.306,0.237
18.16,-0.156,1.204,0.098
18.17,-0.017,0.77,-0.061
18.18,-0.479,0.652,-0.085
18.19,-0.104,1.471,0.136
18.2,-0.294,0.791,0.104
18.21,-0.168,1.042,-0.062
18.22,-0.273,0.331,-0.145
18.23,-0.176,1.643,0.107
18.24,-0.071,0.77,0.055
18.25,-0.198,0.936,-0.114
18.26,-0.289,0.423,-0.118
18.27,-0.164,1.284,0.172
18.28,-0.048,1.289,0.069
18.29,-0.124,0.488,-0.144
18.3,-0.336,1.061,-0.121
18.31,-0.078,1.032,0.264
18.32,-0.382,1.219,0.054
18.33,-0.243,0.453,-0.05
18.34,-0.383,0.837,-0.097
18.35,-0.135,1.19,0.255
18.36,-0.166,0.952,0.107
18.37,-0.456,0.886,-0.133
18.38,-0.204,0.32,-0.082
18.39,-0.31,1.396,0.283
18.4,-0.074,0.864,0.086
18.41,-0.358,0.788,-0.139
18.42,-0.273,0.601,-0.146
18.43,0.042,1.295,0.144
18.44,-0.221,0.985,0.021
18.45,-0.347,0.584,-0.067
18.46,-0.42,0.948,-0.067
18.47,0.013,0.818,0.212
18.48,-0.227,1.333,0.068
18.49,-0.348,0.306,-0.167
18.5,-0.38,0.837,-0.062
18.51,-0.111,1.12,0.19
18.52,-0.254,0.959,0.097
18.53,-0.259,0.758,-0.102
18.54,-0.373,0.461,-0.107
18.55,0.017,1.374,0.143
18.56,-0.146,0.691,0.051
18.57,-0.427,0.903,-0.091
18.58,-0.45,0.544,-0.095
18.59,-0.077,1.069,0.174
18.6,-0.236,1.094,0.117
18.61,-0.383,0.44,-0.133
18.62,-0.486,1.02,-0.061
18.63,-0.022,0.792,0.205
18.64,-0.325,1.312,0.098
18.65,-0.268,0.292,-0.111
18.66,-0.359,1.386,-0.065
18.67,-0.046,0.992,0.25
18.68,-0.18,0.66,0.104
18.69,-0.406,0.89,-0.142
18.7,-0.443,0.538,-0.04
18.71,-0.094,1.153,0.148
18.72,-0.211,0.693,0.131
18.73,-0.5,0.835,-0.119
18.74,-0.448,0.705,-0.057
18.75,-0.045,0.932,0.121
18.76,-0.159,0.935,0.014
18.77,-0.408,0.432,-0.193
18.78,-0.286,1.452,-0.128
18.79,-0.011,0.616,0.173
18.8,-0.181,1.125,0.085
18.81,-0.382,0.331,-0.186
18.82,-0.442,1.126,-0.039
18.83,-0.111,0.814,0.11
18.84,-0.212,0.88,0.071
18.85,-0.41,0.666,-0.166
18.86,-0.44,0.723,0.026
18.87,-0.188,1.11,0.182
18.88,-0.166,0.662,0.075
18.89,-0.509,0.815,-0.132
18.9,-0.286,1.027,-0.048
18.91,-0.13,0.876,0.172
18.92,-0.199,0.862,0.093
18.93,-0.417,0.516,-0.156
18.94,-0.387,1.614,-0.078
18.95,-0.009,0.475,0.155
18.96,-0.221,1.161,0.091
18.97,-0.398,0.335,-0.244
18.98,-0.355,1.631,-0.02
18.99,-0.146,0.643,0.145
19.0,-0.155,0.805,0.101
19.01,-0.327,0.713,-0.245
19.02,-0.259,1.629,-0.084
19.03,-0.102,1.015,0.075
19.04,0.023,0.513,0.07
19.05,-0.537,0.938,-0.274
19.06,-0.158,1.718,-0.011
19.07,-0.304,0.918,0.044
19.08,0.136,0.606,0.117
19.09,-0.575,0.736,-0.231
19.1,-0.115,2.0,0.048
19.11,-0.157,0.499,-0.054
19.12,-0.01,1.002,0.073
19.13,-0.362,0.318,-0.217
19.14,-0.341,2.0,0.11
19.15,-0.064,0.498,0.08
19.16,-0.026,0.878,0.097
19.17,-0.417,0.543,-0.23
19.18,-0.158,1.862,0.122
19.19,-0.164,0.943,0.038
19.2,0.149,0.569,0.017
19.21,-0.501,0.96,-0.238
19.22,-0.021,1.701,0.121
19.23,-0.298,1.016,0.04
19.24,0.1,0.584,0.067
19.25,-0.515,0.787,-0.202
19.26,-0.067,1.957,0.126
19.27,-0.25,0.676,0.036
19.28,0.003,0.957,0.01
19.29,-0.496,0.3,-0.2
19.3,-0.076,2.0,0.095
19.31,-0.192,0.681,0.105
19.32,-0.042,0.917,0.008
19.33,-0.419,0.543,-0.221
19.34,0.01,2.0,0.073
19.35,-0.279,0.992,0.034
19.36,0.153,0.553,-0.074
19.37,-0.568,1.03,-0.274
19.38,0.154,1.66,0.094
19.39,-0.347,1.259,0.082
19.4,0.124,0.538,-0.022
19.41,-0.452,0.861,-0.186
19.42,0.018,1.72,0.092
19.43,-0.262,0.756,0.115
19.44,0.049,1.095,0.002
19.45,-0.589,0.388,-0.159
19.46,0.037,1.875,0.197
19.47,-0.197,0.697,0.086
19.48,-0.067,1.061,-0.026
19.49,-0.47,0.53,-0.181
19.5,-0.009,1.875,0.212
19.51,-0.309,1.074,0.086
19.52,0.046,0.605,-0.052
19.53,-0.564,1.039,-0.128
19.54,0.099,1.256,0.206
19.55,-0.314,1.304,0.051
19.56,0.123,0.65,-0.083
19.57,-0.457,0.845,-0.18
19.58,0.057,1.48,0.12
19.59,-0.131,0.896,0.039
19.6,-0.083,1.075,-0.127
19.61,-0.276,0.348,-0.181
19.62,-0.044,1.695,0.106
19.63,-0.047,0.807,0.028
19.64,-0.099,1.016,-0.147
19.65,-0.298,0.53,-0.163
19.66,-0.065,1.394,0.059
19.67,-0.281,1.105,0.019
19.68,-0.02,0.625,-0.094
19.69,-0.453,0.966,-0.116
19.7,0.032,1.14,0.131
19.71,-0.308,1.298,0.091
19.72,-0.116,0.593,-0.142
19.73,-0.379,0.789,-0.097
19.74,-0.082,1.344,0.153
19.75,-0.112,1.036,0.099
19.76,-0.265,0.852,-0.146
19.77,-0.213,0.449,-0.085
19.78,-0.148,1.565,0.167
19.79,-0.196,0.651,0.03
19.8,-0.409,0.952,-0.123
19.81,-0.346,0.471,-0.123
19.82,-0.22,1.163,0.229
19.83,-0.146,1.187,0.042
19.84,-0.282,0.483,-0.129
19.85,-0.354,0.959,-0.107
19.86,-0.101,0.871,0.274
19.87,-0.219,1.376,0.019
19.88,-0.289,0.237,-0.111
19.89,-0.337,1.25,-0.04
19.9,0.079,0.812,0.146
19.91,-0.195,1.012,0.017
19.92,-0.344,0.586,-0.195
19.93,-0.343,0.987,-0.083
19.94,-0.024,0.993,0.1
19.95,-0.087,0.642,0.016
19.96,-0.451,0.946,-0.183
19.97,-0.415,0.597,-0.039
19.98,-0.146,0.975,0.132
19.99,-0.253,0.836,0.104
20.0,-0.4,0.626,-0.121
20.01,-0.332,1.642,-0.032
20.02,-0.017,0.677,0.195
20.03,-0.187,1.034,0.085
20.04,-0.329,0.39,-0.192
20.05,-0.395,2.0,-0.028
20.06,-0.025,0.513,0.122
20.07,-0.124,0.967,0.081
20.08,-0.466,0.606,-0.24
20.09,-0.267,1.456,0.09
20.1,-0.266,0.72,0.156
20.11,-0.016,0.678,0.087
20.12,-0.549,0.837,-0.241
20.13,-0.167,1.447,0.061
20.14,-0.156,1.085,0.065
20.15,0.16,0.529,0.072
20.16,-0.532,0.745,-0.211
20.17,-0.164,2.0,0.015
20.18,-0.163,0.523,0.02
20.19,0.044,1.008,0.048
20.2,-0.484,0.395,-0.259
20.21,-0.208,2.0,0.064
20.22,-0.128,0.495,0.007
20.23,-0.039,0.871,0.083
20.24,-0.475,0.516,-0.219
20.25,-0.101,1.885,0.092
20.26,-0.122,1.084,0.102
20.27,0.087,0.538,0.027
20.28,-0.548,1.001,-0.229
20.29,0.051,1.749,0.14
20.3,-0.304,1.021,0.064
20.31,0.128,0.596,0.051
20.32,-0.62,0.819,-0.261
20.33,0.115,1.904,0.121
20.34,-0.218,0.781,0.002
20.35,0.067,0.954,0.009
20.36,-0.484,0.373,-0.246
20.37,-0.101,1.795,0.121
20.38,-0.125,0.645,0.113
20.39,-0.046,1.093,0.045
20.4,-0.488,0.507,-0.182
20.41,0.103,2.0,0.113
20.42,-0.302,1.059,0.083
20.43,0.136,0.543,-0.054
20.44,-0.609,1.078,-0.217
20.45,0.128,1.42,0.143
20.46,-0.361,1.253,0.067
20.47,0.166,0.618,-0.003
20.48,-0.547,0.837,-0.166
20.49,0.053,1.539,0.153
20.5,-0.247,0.717,0.11
20.51,-0.062,1.172,-0.044
20.52,-0.425,0.281,-0.173
20.53,0.013,1.932,0.193
20.54,-0.119,0.782,0.102
20.55,-0.074,1.03,-0.061
20.56,-0.4,0.577,-0.17
20.57,-0.042,1.423,0.161
20.58,-0.22,1.088,0.084
20.59,0.053,0.64,-0.037
20.6,-0.511,1.028,-0.139
20.61,0.029,1.204,0.148
20.62,-0.282,1.162,0.095
20.63,-0.044,0.677,-0.077
20.64,-0.394,0.772,-0.132
20.65,-0.005,1.439,0.108
20.66,-0.108,0.896,0.078
20.67,-0.119,1.017,-0.084
20.68,-0.363,0.566,-0.071
20.69,-0.181,1.427,0.222
20.7,-0.186,0.772,0.076
20.71,-0.394,1.007,-0.1
20.72,-0.28,0.346,-0.065
20.73,-0.255,1.322,0.233
20.74,-0.157,0.941,0.078
20.75,-0.305,0.727,-0.071
20.76,-0.353,0.821,-0.109
20.77,-0.119,0.952,0.258
20.78,-0.177,1.386,-0.028
20.79,-0.231,0.35,-0.115
20.8,-0.28,1.044,-0.089
20.81,0.065,1.045,0.138
20.82,-0.291,1.027,0.054
20.83,-0.333,0.689,-0.113
20.84,-0.413,0.504,-0.081
20.85,-0.126,1.253,0.172
20.86,-0.137,0.766,0.046
20.87,-0.435,0.905,-0.142
20.88,-0.299,0.381,-0.062
20.89,-0.059,1.256,0.101
20.9,-0.084,0.872,-0.009
20.91,-0.359,0.597,-0.108
20.92,-0.342,1.144,-0.113
20.93,0.012,0.825,0.164
20.94,-0.222,1.098,0.059
20.95,-0.312,0.303,-0.172
20.96,-0.446,1.133,-0.07
20.97,0.03,0.744,0.058
20.98,-0.195,1.076,0.025
20.99,-0.377,0.538,-0.198
21.0,-0.31,0.833,-0.026
21.01,-0.072,1.082,0.166
21.02,-0.052,0.611,0.076
21.03,-0.529,0.92,-0.14
21.04,-0.252,1.12,-0.032
21.05,-0.169,1.0,0.219
21.06,-0.058,0.639,0.077
21.07,-0.425,0.738,-0.162
21.08,-0.349,1.396,-0.083
21.09,-0.124,0.538,0.192
21.1,-0.189,1.114,0.074
21.11,-0.349,0.317,-0.201
21.12,-0.321,1.764,-0.027
21.13,-0.093,0.54,0.181
21.14,-0.122,0.948,0.073
21.15,-0.435,0.545,-0.195
21.16,-0.254,1.292,-0.031
21.17,-0.177,0.884,0.139
21.18,-0.057,0.597,0.089
21.19,-0.523,0.916,-0.153
21.2,-0.237,1.269,-0.001
21.21,-0.168,0.867,0.188
21.22,-0.101,0.697,0.058
21.23,-0.464,0.672,-0.201
21.24,-0.246,1.673,-0.043
21.25,-0.143,0.51,0.163
21.26,-0.161,1.064,0.08
21.27,-0.434,0.296,-0.242
21.28,-0.355,2.0,0.008
21.29,-0.068,0.541,0.124
21.3,-0.175,0.895,0.097
21.31,-0.383,0.567,-0.176
21.32,-0.343,1.935,-0.008
21.33,-0.091,0.941,0.052
21.34,0.015,0.507,0.103
21.35,-0.593,0.957,-0.176
21.36,-0.197,1.611,0.035
21.37,-0.244,0.742,0.102
21.38,-0.03,0.703,0.109
21.39,-0.496,0.703,-0.204
21.4,-0.294,1.943,0.028
21.41,-0.163,0.511,0.079
21.42,0.031,0.976,0.103
21.43,-0.424,0.3,-0.193
21.44,-0.389,2.0,0.084
21.45,-0.135,0.5,0.065
21.46,0.044,0.952,0.076
21.47,-0.431,0.481,-0.285
21.48,-0.041,2.0,0.132
21.49,-0.315,0.71,-0.037
21.5,0.146,0.665,0.007
21.51,-0.537,0.848,-0.274
21.52,0.03,1.679,0.141
21.53,-0.34,1.152,0.041
21.54,0.264,0.498,0.062
21.55,-0.663,0.964,-0.236
21.56,0.117,1.655,0.081
21.57,-0.279,0.985,0.021
21.58,0.065,0.871,0.004
21.59,-0.441,0.455,-0.211
21.6,0.031,2.0,0.139
21.61,-0.202,0.605,0.047
21.62,0.005,1.055,0.035
21.63,-0.503,0.404,-0.191
21.64,-0.016,2.0,0.101
21.65,-0.258,0.928,0.053
21.66,0.011,0.746,-0.022
21.67,-0.488,0.839,-0.19
21.68,0.073,1.649,0.126
21.69,-0.325,1.231,0.132
21.7,0.142,0.515,0.013
21.71,-0.634,1.001,-0.177
21.72,0.049,1.477,0.176
21.73,-0.293,1.039,0.055
21.74,0.087,0.918,-0.009
21.75,-0.495,0.547,-0.177
21.76,-0.025,1.719,0.2
21.77,-0.218,0.644,0.115
21.78,-0.006,1.204,-0.052
21.79,-0.425,0.337,-0.199
21.8,0.045,1.776,0.198
21.81,-0.191,0.904,0.046
21.82,-0.018,0.834,-0.067
21.83,-0.427,0.865,-0.237
21.84,0.082,1.35,0.2
21.85,-0.29,1.305,0.084
21.86,0.138,0.598,-0.056
21.87,-0.571,1.008,-0.136
21.88,0.103,1.277,0.222
21.89,-0.248,1.135,0.107
21.9,0.001,0.899,-0.096
21.91,-0.358,0.542,-0.128
21.92,-0.12,1.625,0.118
21.93,-0.118,0.816,0.083
21.94,-0.185,1.111,-0.101
21.95,-0.339,0.372,-0.092
21.96,-0.137,1.558,0.181
21.97,-0.231,0.992,0.06
21.98,-0.097,0.777,-0.036
21.99,-0.357,0.868,-0.151
22.0,-0.038,1.151,0.149
22.01,-0.327,1.297,0.012
22.02,-0.028,0.519,-0.11
22.03,-0.408,0.978,-0.077
22.04,-0.071,1.183,0.16
22.05,-0.167,1.241,0.068
22.06,-0.146,0.746,-0.103
22.07,-0.295,0.558,-0.059
22.08,-0.219,1.427,0.25
22.09,-0.237,0.793,0.051
22.1,-0.303,0.949,-0.078
22.11,-0.283,0.382,-0.119
22.12,-0.137,1.367,0.193
22.13,-0.208,0.851,0.017
22.14,-0.374,0.779,-0.081
22.15,-0.358,0.769,-0.077
22.16,-0.151,0.864,0.239
22.17,-0.263,1.342,0.038
22.18,-0.201,0.319,-0.131
22.19,-0.394,1.038,-0.02
22.2,0.012,0.901,0.152
22.21,-0.353,1.094,0.103
22.22,-0.372,0.535,-0.114
22.23,-0.306,0.813,-0.034
22.24,-0.027,1.161,0.123
22.25,-0.083,0.552,0.021
22.26,-0.49,0.917,-0.2
22.27,-0.311,0.601,-0.054
22.28,-0.099,1.017,0.093
22.29,-0.139,0.581,0.074
22.3,-0.526,0.895,-0.187
22.31,-0.301,1.46,0.013
22.32,-0.155,0.68,0.145
22.33,-0.127,0.879,0.017
22.34,-0.366,0.456,-0.196
22.35,-0.39,2.0,-0.045
22.36,-0.023,0.527,0.077
22.37,-0.135,0.988,0.127
22.38,-0.414,0.417,-0.248
22.39,-0.286,2.0,0.032
22.4,-0.202,0.55,0.058
22.41,-0.005,0.759,0.06
22.42,-0.494,0.732,-0.26
22.43,-0.153,1.657,0.065
22.44,-0.237,1.001,0.049
22.45,0.051,0.454,0.117
22.46,-0.524,0.783,-0.213
22.47,-0.164,1.765,0.063
22.48,-0.151,0.798,0.058
22.49,0.08,0.819,0.026
22.5,-0.453,0.438,-0.227
22.51,-0.199,2.0,0.084
22.52,-0.16,0.368,-0.029
22.53,0.004,1.089,0.059
22.54,-0.49,0.261,-0.241
22.55,-0.09,2.0,0.13
22.56,-0.196,0.895,0.003
22.57,0.094,0.582,-0.006
22.58,-0.528,0.903,-0.248
22.59,-0.018,1.568,0.077
22.6,-0.253,1.159,0.087
22.61,0.13,0.566,0.033
22.62,-0.553,0.992,-0.204
22.63,0.102,1.76,0.156
22.64,-0.298,1.029,0.098
22.65,-0.025,0.868,-0.006
22.66,-0.427,0.467,-0.141
22.67,-0.043,2.0,0.138
22.68,-0.173,0.724,0.057
22.69,-0.039,1.033,0.025
22.7,-0.47,0.434,-0.174
22.71,-0.017,1.621,0.179
22.72,-0.169,0.831,0.089
22.73,-0.006,0.863,-0.027
22.74,-0.456,0.84,-0.157
22.75,0.086,1.372,0.214
22.76,-0.238,1.351,0.065
22.77,0.071,0.597,-0.07
22.78,-0.511,0.968,-0.148
22.79,0.06,1.299,0.13
22.8,-0.194,1.091,0.05
22.81,0.004,0.878,-0.098
22.82,-0.401,0.495,-0.109
22.83,-0.136,1.563,0.18
22.84,-0.195,0.691,0.055
22.85,-0.231,1.092,-0.074
22.86,-0.392,0.298,-0.126
22.87,-0.101,1.482,0.161
22.88,-0.225,0.969,0.168
22.89,-0.087,0.803,-0.103
22.9,-0.427,0.822,-0.139
22.91,-0.047,1.086,0.165
22.92,-0.305,1.396,0.053
22.93,-0.006,0.455,-0.105
22.94,-0.495,1.012,-0.117
22.95,0.033,1.073,0.177
22.96,-0.281,1.042,0.03
22.97,-0.264,0.821,-0.142
22.98,-0.423,0.426,-0.068
22.99,-0.226,1.297,0.257
23.0,-0.049,0.788,0.085
23.01,-0.312,1.025,-0.132
23.02,-0.332,0.384,-0.083
23.03,-0.179,1.26,0.246
23.04,-0.305,0.993,0.019
23.05,-0.237,0.6,-0.095
23.06,-0.425,0.918,-0.107
23.07,0.144,0.991,0.15
23.08,-0.341,1.186,0.05
23.09,-0.332,0.479,-0.168
23.1,-0.563,1.146,-0.007
23.11,0.01,0.605,0.144
23.12,-0.268,1.19,0.049
23.13,-0.352,0.399,-0.191
23.14,-0.389,1.036,-0.022
23.15,-0.092,0.896,0.148
23.16,-0.206,0.758,0.02
23.17,-0.425,0.764,-0.126
23.18,-0.244,1.425,-0.03
23.19,-0.126,1.153,0.19
23.2,-0.073,0.469,0.118
23.21,-0.54,1.004,-0.17
23.22,-0.366,1.147,-0.032
23.23,-0.16,0.584,0.128
23.24,-0.198,1.073,0.056
23.25,-0.391,0.384,-0.22
23.26,-0.372,1.762,-0.007
23.27,-0.083,0.445,0.181
23.28,-0.236,1.058,0.083
23.29,-0.348,0.364,-0.179
23.3,-0.322,2.0,-0.05
23.31,0.001,0.849,0.095
23.32,-0.0,0.55,0.098
23.33,-0.559,1.011,-0.199
23.34,-0.256,1.444,0.049
23.35,-0.258,0.771,0.148
23.36,-0.084,0.607,0.094
23.37,-0.462,0.836,-0.248
23.38,-0.24,1.792,0.004
23.39,-0.129,0.6,0.091
23.4,-0.052,0.865,0.056
23.41,-0.443,0.352,-0.2
23.42,-0.306,2.0,-0.004
23.43,0.003,0.577,0.069
23.44,0.034,0.936,0.085
23.45,-0.402,0.542,-0.286
23.46,-0.216,2.0,-0.017
23.47,-0.194,0.602,0.007
23.48,0.048,0.713,0.05
23.49,-0.501,0.827,-0.302
23.5,-0.126,1.628,0.044
23.51,-0.168,0.988,0.054
23.52,0.136,0.462,0.132
23.53,-0.412,0.894,-0.242
23.54,-0.16,1.677,-0.003
23.55,-0.048,0.826,0.124
23.56,0.014,0.878,0.019
23.57,-0.458,0.422,-0.215
23.58,-0.218,2.0,0.093
23.59,-0.157,0.416,0.009
23.6,0.016,0.961,0.059
23.61,-0.394,0.467,-0.358
23.62,-0.166,2.0,0.061
23.63,-0.123,0.711,0.016
23.64,0.16,0.614,0.048
23.65,-0.506,0.896,-0.266
23.66,-0.011,1.545,0.08
23.67,-0.19,1.123,0.124
23.68,0.16,0.475,0.093
23.69,-0.551,0.956,-0.197
23.7,-0.063,1.896,0.112
23.71,-0.22,0.734,0.019
23.72,0.095,0.799,-0.028
23.73,-0.493,0.802,-0.281
23.74,0.036,2.0,0.088
23.75,-0.193,0.689,0.058
23.76,0.033,0.978,0.077
23.77,-0.432,0.378,-0.266
23.78,-0.042,2.0,0.054
23.79,-0.082,0.788,0.051
23.8,-0.03,0.875,0.033
23.81,-0.428,0.739,-0.276
23.82,-0.013,1.963,0.167
23.83,-0.234,1.031,0.088
23.84,0.118,0.47,0.003
23.85,-0.583,1.106,-0.243
23.86,0.068,1.69,0.055
23.87,-0.301,1.138,0.115
23.88,0.117,0.652,0.034
23.89,-0.536,0.972,-0.224
23.9,0.031,1.391,0.165
23.91,-0.136,0.915,0.058
23.92,0.062,0.977,-0.018
23.93,-0.436,0.485,-0.196
23.94,-0.107,1.984,0.19
23.95,-0.061,0.692,0.118
23.96,-0.116,1.052,0.009
23.97,-0.437,0.475,-0.216
23.98,-0.053,1.823,0.148
23.99,-0.216,0.949,0.106
24.0,0.03,0.74,0.013
24.01,-0.52,0.973,-0.194
24.02,0.061,1.397,0.135
24.03,-0.215,1.224,0.108
24.04,0.097,0.531,-0.005
24.05,-0.594,1.001,-0.216
24.06,0.103,1.589,0.156
24.07,-0.201,1.002,0.096
24.08,0.01,0.9,-0.03
24.09,-0.406,0.534,-0.24
24.1,-0.035,1.997,0.119
24.11,-0.147,0.733,0.122
24.12,-0.104,1.019,0.012
24.13,-0.479,0.453,-0.168
24.14,-0.019,1.777,0.136
24.15,-0.16,0.979,0.128
24.16,-0.067,0.719,-0.028
24.17,-0.435,0.92,-0.215
24.18,0.052,1.716,0.1
24.19,-0.253,1.201,0.117
24.2,0.083,0.473,-0.002
24.21,-0.636,1.101,-0.245
24.22,0.114,1.591,0.116
24.23,-0.297,1.045,0.114
24.24,0.099,0.859,-0.01
24.25,-0.451,0.548,-0.176
24.26,-0.055,1.796,0.144
24.27,-0.078,0.653,0.037
24.28,-0.089,1.153,0.04
24.29,-0.503,0.372,-0.204
24.3,0.091,2.0,0.087
24.31,-0.252,0.891,0.105
24.32,0.144,0.665,-0.055
24.33,-0.592,0.975,-0.293
24.34,0.127,1.793,0.136
24.35,-0.365,1.195,0.074
24.36,0.196,0.468,0.011
24.37,-0.559,1.042,-0.252
24.38,0.123,1.441,0.07
24.39,-0.143,1.002,0.034
24.4,0.066,0.908,-0.0
24.41,-0.401,0.46,-0.197
24.42,0.07,2.0,0.068
24.43,-0.164,0.582,0.071
24.44,-0.013,1.002,-0.001
24.45,-0.541,0.449,-0.263
24.46,0.059,2.0,0.122
24.47,-0.333,0.875,0.072
24.48,0.134,0.643,-0.029
24.49,-0.491,0.897,-0.204
24.5,0.053,1.5,0.048
24.51,-0.258,1.23,0.075
24.52,0.213,0.576,-0.007
24.53,-0.637,1.001,-0.223
24.54,0.273,1.857,0.073
24.55,-0.315,1.024,0.125
24.56,0.093,0.859,-0.014
24.57,-0.587,0.483,-0.16
24.58,0.085,2.0,0.215
24.59,-0.326,0.601,0.034
24.6,0.142,0.963,-0.02
24.61,-0.474,0.484,-0.304
24.62,0.028,1.793,0.055
24.63,-0.126,0.897,-0.003
24.64,0.037,0.685,0.007
24.65,-0.365,0.907,-0.283
24.66,0.103,1.543,0.112
24.67,-0.24,1.152,0.06
24.68,0.195,0.628,0.022
24.69,-0.559,1.027,-0.263
24.7,0.217,1.733,0.16
24.71,-0.36,1.332,0.114
24.72,0.077,0.515,-0.025
24.73,-0.58,0.895,-0.193
24.74,0.055,1.612,0.213
24.75,-0.237,0.808,0.059
24.76,0.025,1.02,0.055
24.77,-0.419,0.414,-0.199
24.78,-0.092,1.726,0.177
24.79,-0.249,0.686,0.175
24.8,-0.11,1.085,-0.017
24.81,-0.426,0.565,-0.18
24.82,0.138,2.0,0.177
24.83,-0.332,1.161,0.146
24.84,0.085,0.509,-0.001
24.85,-0.652,1.04,-0.193
24.86,0.099,1.292,0.184
24.87,-0.312,1.279,0.059
24.88,0.127,0.622,0.012
24.89,-0.427,0.825,-0.181
24.9,0.049,1.67,0.168
24.91,-0.176,0.782,0.09
24.92,-0.099,1.15,-0.024
24.93,-0.373,0.299,-0.185
24.94,-0.016,2.0,0.204
24.95,-0.191,0.778,0.109
24.96,-0.053,0.809,-0.021
24.97,-0.49,0.682,-0.264
24.98,-0.052,1.389,0.173
24.99,-0.191,1.125,0.058
25.0,0.091,0.638,-0.055
25.01,-0.422,1.012,-0.206
25.02,0.047,1.296,0.137
25.03,-0.219,1.138,0.104
25.04,0.045,0.746,-0.07
25.05,-0.487,0.764,-0.168
25.06,0.106,1.975,0.149
25.07,-0.153,0.948,0.09
25.08,-0.033,0.899,-0.044
25.09,-0.463,0.484,-0.197
25.1,-0.144,1.661,0.162
25.11,-0.188,0.684,0.1
25.12,-0.09,1.1,0.012
25.13,-0.294,0.522,-0.161
25.14,-0.144,1.49,0.123
25.15,-0.176,1.077,0.121
25.16,-0.012,0.679,-0.038
25.17,-0.56,0.991,-0.105
25.18,0.139,1.591,0.217
25.19,-0.35,1.371,0.176
25.2,0.048,0.581,0.002
25.21,-0.595,0.869,-0.19
25.22,0.037,1.435,0.146
25.23,-0.22,0.875,0.073
25.24,-0.018,1.058,-0.068
25.25,-0.326,0.367,-0.155
25.26,-0.092,1.731,0.105
25.27,-0.164,0.653,0.12
25.28,-0.113,1.139,-0.066
25.29,-0.418,0.477,-0.113
25.3,0.039,1.788,0.221
25.31,-0.124,1.776,0.091
25.32,-0.119,0.799,0.132
25.33,-0.0,0.888,0.067
25.34,-0.429,0.405,-0.239
25.35,-0.186,2.0,0.118
25.36,-0.203,0.597,0.097
25.37,-0.013,1.036,0.024
25.38,-0.525,0.372,-0.186
25.39,-0.032,2.0,0.166
25.4,-0.284,0.702,0.094
25.41,0.076,0.751,0.001
25.42,-0.482,0.807,-0.236
25.43,0.005,1.528,0.08
25.44,-0.252,1.208,0.061
25.45,0.208,0.557,-0.013
25.46,-0.508,1.01,-0.242
25.47,0.214,1.678,0.053
25.48,-0.212,1.082,0.016
25.49,0.087,0.74,-0.016
25.5,-0.545,0.646,-0.221
25.51,0.04,2.0,0.14
25.52,-0.276,0.681,0.1
25.53,0.029,0.985,-0.015
25.54,-0.486,0.397,-0.235
25.55,-0.099,1.813,0.105
25.56,-0.143,0.733,0.084
25.57,0.076,0.854,-0.003
25.58,-0.513,0.76,-0.262
25.59,0.085,1.615,0.117
25.6,-0.322,1.083,0.086
25.61,0.182,0.634,0.003
25.62,-0.688,1.045,-0.208
25.63,0.288,1.834,0.137
25.64,-0.466,1.154,0.108
25.65,0.208,0.651,-0.003
25.66,-0.588,0.719,-0.184
25.67,-0.0,1.712,0.175
25.68,-0.202,0.741,0.097
25.69,-0.023,1.003,0.021
25.7,-0.473,0.391,-0.198
25.71,0.008,2.0,0.097
25.72,-0.207,0.725,0.121
25.73,0.008,0.954,-0.047
25.74,-0.493,0.715,-0.241
25.75,0.117,2.0,0.154
25.76,-0.369,1.189,0.069
25.77,0.155,0.374,-0.032
25.78,-0.562,1.137,-0.256
25.79,0.084,1.372,0.099
25.8,-0.28,1.108,0.119
25.81,0.108,0.741,-0.008
25.82,-0.441,0.642,-0.19
25.83,0.051,1.795,0.111
25.84,-0.071,0.691,0.064
25.85,-0.056,1.112,-0.018
25.86,-0.45,0.306,-0.219
25.87,0.079,2.0,0.085
25.88,-0.246,0.778,0.079
25.89,0.042,0.797,-0.029
25.9,-0.515,0.774,-0.251
25.91,0.06,1.576,0.058
25.92,-0.302,1.256,0.008
25.93,0.179,0.469,-0.005
25.94,-0.551,1.085,-0.201
25.95,0.104,1.339,0.1
25.96,-0.26,1.041,0.071
25.97,0.099,0.853,-0.056
25.98,-0.47,0.608,-0.187
25.99,0.097,2.0,0.098
26.0,-0.268,0.753,0.18
26.01,-0.06,0.944,0.025
26.02,-0.521,0.439,-0.245
26.03,-0.017,1.924,0.115
26.04,-0.232,0.815,0.105
26.05,0.063,0.83,-0.003
26.06,-0.538,0.758,-0.223
26.07,0.086,1.504,0.183
26.08,-0.292,1.138,0.049
26.09,0.174,0.593,-0.051
26.1,-0.511,1.048,-0.259
26.11,0.177,1.649,0.075
26.12,-0.231,1.133,0.016
26.13,0.146,0.718,0.007
26.14,-0.603,0.717,-0.192
26.15,0.051,1.739,0.152
26.16,-0.344,0.93,0.217
26.17,-0.021,1.002,-0.016
26.18,-0.512,0.416,-0.126
26.19,-0.081,1.806,0.215
26.2,-0.247,0.671,0.196
26.21,-0.055,1.083,-0.045
26.22,-0.454,0.492,-0.212
26.23,0.015,1.626,0.201
26.24,-0.272,0.975,0.16
26.25,0.046,0.722,-0.004
26.26,-0.577,0.972,-0.164
26.27,0.144,1.365,0.19
26.28,-0.337,1.229,0.13
26.29,0.12,0.653,-0.035
26.3,-0.594,0.912,-0.213
26.31,0.237,1.651,0.148
26.32,-0.187,1.054,0.03
26.33,0.037,0.938,-0.063
26.34,-0.459,0.487,-0.18
26.35,0.027,2.0,0.152
26.36,-0.182,0.683,0.124
26.37,-0.033,1.05,0.014
26.38,-0.562,0.497,-0.198
26.39,0.015,1.771,0.15
26.4,-0.23,0.994,0.092
26.41,0.062,0.665,-0.026
26.42,-0.528,1.021,-0.227
26.43,0.099,1.482,0.112
26.44,-0.244,1.236,0.052
26.45,0.132,0.559,0.003
26.46,-0.566,0.958,-0.224
26.47,0.131,1.562,0.103
26.48,-0.166,0.966,0.04
26.49,0.035,0.907,-0.019
26.5,-0.368,0.5,-0.246
26.51,-0.018,1.966,0.114
26.52,-0.083,0.645,0.087
26.53,-0.071,1.056,-0.012
26.54,-0.404,0.5,-0.261
26.55,-0.023,1.934,0.099
26.56,-0.17,0.995,0.114
26.57,0.023,0.647,0.015
26.58,-0.483,1.019,-0.246
26.59,0.099,1.594,0.087
26.6,-0.3,1.3,0.141
26.61,0.082,0.531,-0.008
26.62,-0.442,0.959,-0.251
26.63,0.093,1.913,0.075
26.64,-0.193,0.937,0.069
26.65,0.041,0.849,-0.001
26.66,-0.481,0.5,-0.208
26.67,-0.04,2.0,0.099
26.68,-0.188,0.631,0.012
26.69,0.027,1.047,0.011
26.7,-0.496,0.431,-0.242
26.71,0.041,2.0,0.121
26.72,-0.29,0.974,0.094
26.73,0.143,0.65,-0.005
26.74,-0.545,0.707,-0.217
26.75,0.066,1.603,0.157
26.76,-0.283,1.171,0.059
26.77,0.198,0.477,0.011
26.78,-0.631,1.125,-0.206
26.79,0.113,1.378,0.189
26.8,-0.254,1.088,0.065
26.81,0.04,0.781,0.029
26.82,-0.542,0.676,-0.155
26.83,0.055,1.889,0.183
26.84,-0.09,0.787,0.065
26.85,-0.055,1.013,0.014
26.86,-0.33,0.396,-0.237
26.87,0.003,2.0,0.114
26.88,-0.19,0.729,0.072
26.89,0.022,0.846,-0.001
26.9,-0.458,0.79,-0.267
26.91,0.083,1.736,0.066
26.92,-0.227,1.143,0.039
26.93,0.136,0.489,-0.009
26.94,-0.546,1.047,-0.214
26.95,0.178,1.719,0.074
26.96,-0.254,1.246,0.076
26.97,0.136,0.589,-0.032
26.98,-0.538,0.936,-0.227
26.99,0.157,1.917,0.095
27.0,-0.262,0.984,0.044
27.01,0.036,0.842,-0.019
27.02,-0.5,0.519,-0.184
27.03,-0.108,1.771,0.173
27.04,-0.149,0.675,0.072
27.05,-0.052,1.05,0.025
27.06,-0.375,0.443,-0.216
27.07,0.014,1.822,0.09
27.08,-0.143,0.907,0.05
27.09,0.052,0.71,-0.049
27.1,-0.555,0.973,-0.228
27.11,0.136,1.872,0.183
27.12,-0.419,1.173,0.087
27.13,0.161,0.373,0.023
27.14,-0.58,0.993,-0.217
27.15,-0.034,1.385,0.121
27.16,-0.199,0.925,0.069
27.17,0.042,0.904,0.003
27.18,-0.357,0.403,-0.198
27.19,0.02,2.0,0.073
27.2,-0.16,0.597,0.076
27.21,0.044,1.094,0.008
27.22,-0.595,0.441,-0.253
27.23,-0.009,2.0,0.242
27.24,-0.341,0.92,0.04
27.25,0.123,0.515,0.063
27.26,-0.475,1.014,-0.268
27.27,-0.057,1.424,0.069
27.28,-0.216,1.173,0.06
27.29,0.204,0.583,0.018
27.3,-0.495,0.927,-0.264
27.31,0.114,1.857,0.088
27.32,-0.217,0.873,0.098
27.33,0.014,0.856,0.046
27.34,-0.479,0.499,-0.254
27.35,-0.066,2.0,0.155
27.36,-0.222,0.579,0.066
27.37,0.064,0.913,0.001
27.38,-0.493,0.501,-0.224
27.39,-0.042,2.0,0.093
27.4,-0.25,0.956,0.077
27.41,0.131,0.589,0.034
27.42,-0.469,0.902,-0.229
27.43,0.032,1.691,0.137
27.44,-0.308,1.089,0.123
27.45,0.152,0.465,0.086
27.46,-0.514,0.942,-0.224
27.47,-0.095,1.86,0.116
27.48,-0.217,0.805,0.097
27.49,0.087,0.793,0.056
27.5,-0.5,0.508,-0.217
27.51,-0.131,2.0,0.1
27.52,-0.121,0.586,0.064
27.53,-0.017,0.915,0.067
27.54,-0.374,0.454,-0.271
27.55,-0.181,2.0,0.131
27.56,-0.153,0.786,0.067
27.57,0.178,0.6,0.065
27.58,-0.471,0.944,-0.294
27.59,-0.145,1.613,0.094
27.6,-0.249,0.973,0.092
27.61,0.188,0.498,0.125
27.62,-0.508,0.937,-0.275
27.63,-0.198,1.818,0.107
27.64,-0.179,0.715,0.062
27.65,0.063,0.825,0.122
27.66,-0.493,0.476,-0.189
27.67,-0.356,2.0,0.067
27.68,-0.191,0.398,0.072
27.69,-0.039,0.999,0.182
27.7,-0.442,0.403,-0.205
27.71,-0.376,2.0,-0.001
27.72,-0.191,0.764,0.053
27.73,0.108,0.567,0.122
27.74,-0.497,0.938,-0.193
27.75,-0.28,1.663,0.019
27.76,-0.268,0.916,0.123
27.77,0.136,0.507,0.061
27.78,-0.528,1.035,-0.235
27.79,-0.146,1.779,0.055
27.8,-0.245,0.785,0.016
27.81,0.026,0.656,0.126
27.82,-0.489,0.618,-0.228
27.83,-0.284,2.0,0.046
27.84,-0.146,0.553,0.084
27.85,-0.047,0.922,0.163
27.86,-0.348,0.347,-0.21
27.87,-0.4,2.0,0.015
27.88,-0.085,0.565,0.079
27.89,0.002,0.814,0.088
27.9,-0.411,0.721,-0.24
27.91,-0.275,1.58,0.067
27.92,-0.3,0.692,0.168
27.93,-0.018,0.577,0.086
27.94,-0.509,0.851,-0.239
27.95,-0.247,1.574,0.016
27.96,-0.148,0.933,0.071
27.97,-0.019,0.566,0.074
27.98,-0.39,0.671,-0.203
27.99,-0.328,2.0,-0.123
28.0,0.029,0.551,0.036
28.01,-0.071,0.977,0.081
28.02,-0.44,0.417,-0.282
28.03,-0.435,1.578,0.046
28.04,-0.244,0.361,0.183
28.05,-0.252,1.0,0.083
28.06,-0.379,0.507,-0.256
28.07,-0.288,1.743,-0.038
28.08,-0.111,1.112,0.116
28.09,0.048,0.362,0.088
28.1,-0.475,0.99,-0.174
28.11,-0.248,1.599,-0.119
28.12,-0.116,0.967,0.093
28.13,0.015,0.632,0.132
28.14,-0.58,0.75,-0.215
28.15,-0.435,1.028,-0.038
28.16,-0.245,0.539,0.054
28.17,-0.318,1.231,0.082
28.18,-0.249,0.209,-0.172
28.19,-0.365,1.904,-0.082
28.2,0.096,0.642,0.167
28.21,-0.102,0.819,0.056
28.22,-0.362,0.583,-0.204
28.23,-0.188,1.609,-0.135
28.24,-0.116,1.005,0.148
28.25,0.11,0.502,0.078
28.26,-0.596,1.07,-0.237
28.27,-0.318,0.489,-0.027
28.28,-0.349,0.921,0.057
28.29,-0.201,0.986,0.095
28.3,-0.399,0.533,-0.113
28.31,-0.326,1.224,-0.048
28.32,0.049,0.747,0.195
28.33,-0.198,1.06,0.052
28.34,-0.251,0.322,-0.171
28.35,-0.355,1.923,-0.119
28.36,0.093,0.736,0.151
28.37,0.006,0.881,0.097
28.38,-0.489,0.775,-0.23
28.39,-0.403,0.673,0.002
28.4,-0.323,0.953,0.132
28.41,-0.115,0.851,0.086
28.42,-0.423,0.813,-0.133
28.43,-0.183,1.129,-0.066
28.44,-0.079,1.193,0.228
28.45,-0.058,0.603,0.067
28.46,-0.279,0.659,-0.171
28.47,-0.347,1.526,-0.162
28.48,0.038,0.713,0.133
28.49,-0.053,1.028,0.05
28.5,-0.408,0.446,-0.187
28.51,-0.45,1.024,-0.063
28.52,-0.284,0.659,0.21
28.53,-0.193,1.302,0.085
28.54,-0.34,0.448,-0.076
28.55,-0.265,0.93,-0.036
28.56,-0.041,1.25,0.175
28.57,-0.073,0.578,0.107
28.58,-0.398,0.864,-0.133
28.59,-0.299,1.17,-0.085
28.6,-0.136,1.047,0.167
28.61,-0.0,0.575,0.076
28.62,-0.492,0.963,-0.24
28.63,-0.352,0.715,-0.072
28.64,-0.2,0.758,0.109
28.65,-0.152,1.13,0.057
28.66,-0.32,0.251,-0.184
28.67,-0.304,1.814,-0.079
28.68,0.044,0.637,0.185
28.69,-0.132,0.959,0.094
28.7,-0.321,0.424,-0.146
28.71,-0.296,1.857,-0.089
28.72,-0.048,0.825,0.098
28.73,0.033,0.636,0.086
28.74,-0.469,0.915,-0.231
28.75,-0.404,0.634,-0.009
28.76,-0.243,0.944,0.105
28.77,-0.151,0.736,0.063
28.78,-0.426,0.736,-0.176
28.79,-0.258,1.229,-0.071
28.8,-0.068,0.881,0.218
28.81,-0.126,0.856,0.102
28.82,-0.335,0.413,-0.147
28.83,-0.406,1.494,-0.049
28.84,-0.06,0.606,0.214
28.85,-0.239,1.07,0.143
28.86,-0.328,0.398,-0.18
28.87,-0.581,0.994,-0.026
28.88,-0.052,0.834,0.114
28.89,-0.234,0.897,0.088
28.9,-0.465,0.638,-0.079
28.91,-0.218,0.922,-0.065
28.92,-0.149,1.186,0.201
28.93,-0.016,0.523,0.118
28.94,-0.545,0.838,-0.14
28.95,-0.372,0.691,-0.061
28.96,-0.111,0.958,0.108
28.97,-0.168,1.048,0.055
28.98,-0.381,0.365,-0.173
28.99,-0.437,1.102,-0.03
29.0,-0.015,0.718,0.119
29.01,-0.283,1.209,0.077
29.02,-0.291,0.219,-0.133
29.03,-0.429,1.125,-0.054
29.04,0.015,1.003,0.139
29.05,-0.193,0.715,0.077
29.06,-0.446,0.85,-0.165
29.07,-0.447,0.49,-0.044
29.08,-0.133,1.2,0.146
29.09,-0.173,0.708,0.095
29.1,-0.47,0.743,-0.094
29.11,-0.467,0.669,-0.025
29.12,-0.093,1.034,0.183
29.13,-0.271,1.009,0.032
29.14,-0.333,0.399,-0.164
29.15,-0.441,1.119,-0.086
29.16,0.035,0.77,0.139
29.17,-0.283,1.173,0.067
29.18,-0.307,0.322,-0.143
29.19,-0.442,0.946,-0.074
29.2,0.024,0.986,0.139
29.21,-0.164,0.832,0.085
29.22,-0.447,0.786,-0.156
29.23,-0.377,0.397,-0.029
29.24,-0.171,1.307,0.167
29.25,-0.08,0.731,0.036
29.26,-0.399,0.801,-0.126
29.27,-0.416,0.63,-0.122
29.28,-0.076,1.099,0.191
29.29,-0.25,1.075,0.1
29.3,-0.28,0.392,-0.104
29.31,-0.46,1.057,-0.09
29.32,0.04,0.876,0.168
29.33,-0.327,1.237,0.046
29.34,-0.23,0.355,-0.11
29.35,-0.518,0.856,-0.07
29.36,-0.105,1.021,0.23
29.37,-0.171,0.973,0.042
29.38,-0.389,0.521,-0.14
29.39,-0.371,0.631,-0.067
29.4,-0.147,1.177,0.158
29.41,-0.113,0.78,0.023
29.42,-0.446,0.783,-0.102
29.43,-0.251,0.804,-0.057
29.44,-0.033,1.172,0.189
29.45,-0.142,0.667,0.068
29.46,-0.363,0.708,-0.162
29.47,-0.307,1.371,-0.122
29.48,-0.052,0.677,0.189
29.49,-0.131,1.022,0.118
29.5,-0.345,0.361,-0.214
29.51,-0.489,1.131,-0.042
29.52,-0.013,0.671,0.111
29.53,-0.205,1.09,0.059
29.54,-0.407,0.491,-0.132
29.55,-0.427,0.82,-0.024
29.56,-0.058,1.181,0.16
29.57,-0.123,0.544,0.073
29.58,-0.42,0.911,-0.078
29.59,-0.287,1.043,-0.149
29.6,-0.058,1.09,0.172
29.61,-0.036,0.653,0.093
29.62,-0.463,0.745,-0.129
29.63,-0.514,0.823,-0.073
29.64,-0.062,0.794,0.102
29.65,-0.275,1.264,0.112
29.66,-0.165,0.268,-0.212
29.67,-0.546,1.057,-0.09
29.68,0.104,0.864,0.14
29.69,-0.324,1.121,0.142
29.7,-0.305,0.513,-0.12
29.71,-0.469,0.727,-0.059
29.72,0.042,1.237,0.132
29.73,-0.133,0.59,0.118
29.74,-0.387,1.022,-0.123
29.75,-0.553,0.357,-0.103
29.76,-0.15,1.172,0.184
29.77,-0.162,1.001,0.012
29.78,-0.157,0.656,-0.114
29.79,-0.503,0.845,-0.146
29.8,0.032,0.95,0.143
29.81,-0.248,1.281,0.002
29.82,-0.161,0.252,-0.087
29.83,-0.427,1.161,-0.096
29.84,0.048,0.957,0.193
29.85,-0.235,1.054,0.07
29.86,-0.337,0.631,-0.154
29.87,-0.429,0.551,-0.061
29.88,-0.268,1.247,0.217
29.89,-0.06,0.862,0.109
29.9,-0.33,0.895,-0.142
29.91,-0.359,0.435,-0.098
29.92,-0.064,1.428,0.163
29.93,-0.256,0.815,0.111
29.94,-0.361,0.643,-0.077
29.95,-0.441,0.833,-0.104
29.96,-0.023,1.06,0.209
29.97,-0.32,1.187,0.147
29.98,-0.277,0.426,-0.14
29.99,-0.535,0.944,-0.081
30.0,-0.06,1.093,0.175
30.01,-0.092,1.303,0.08
30.02,-0.044,0.692,-0.168
30.03,-0.416,0.6,-0.151
30.04,-0.024,1.398,0.219
30.05,-0.167,0.813,0.095
30.06,-0.24,0.958,-0.091
30.07,-0.434,0.397,-0.155
30.08,-0.121,1.416,0.214
30.09,-0.181,0.85,0.105
30.1,-0.334,0.757,-0.126
30.11,-0.427,0.727,-0.155
30.12,-0.085,1.056,0.196
30.13,-0.175,1.368,0.057
30.14,-0.114,0.403,-0.131
30.15,-0.428,1.032,-0.123
30.16,-0.017,1.102,0.21
30.17,-0.225,1.229,0.074
30.18,-0.19,0.355,-0.109
30.19,-0.451,0.887,-0.11
30.2,-0.065,1.286,0.201
30.21,-0.194,0.821,0.087
30.22,-0.292,0.93,-0.11
30.23,-0.421,0.34,-0.132
30.24,-0.149,1.398,0.23
30.25,-0.089,0.847,0.14
30.26,-0.331,0.921,-0.127
30.27,-0.353,0.553,-0.116
30.28,-0.151,1.285,0.212
30.29,-0.217,1.149,0.097
30.3,-0.061,0.541,-0.114
30.31,-0.529,1.031,-0.165
30.32,0.104,0.983,0.216
30.33,-0.342,1.298,0.076
30.34,-0.088,0.466,-0.074
30.35,-0.492,0.85,-0.173
30.36,-0.05,1.318,0.149
30.37,-0.172,1.001,0.13
30.38,-0.139,0.933,-0.12
30.39,-0.446,0.345,-0.108
30.4,-0.064,1.68,0.125
30.41,-0.071,0.832,0.092
30.42,-0.094,1.013,-0.102
30.43,-0.318,0.566,-0.226
30.44,0.0,1.508,0.086
30.45,-0.187,1.046,0.098
30.46,0.006,0.656,-0.118
30.47,-0.497,0.982,-0.179
30.48,0.125,1.241,0.145
30.49,-0.211,1.315,0.069
30.5,0.052,0.659,-0.095
30.51,-0.499,0.896,-0.192
30.52,0.126,1.406,0.131
30.53,-0.23,1.004,0.098
30.54,-0.01,0.962,-0.079
30.55,-0.453,0.436,-0.191
30.56,-0.035,1.708,0.121
30.57,-0.251,0.701,0.134
30.58,-0.099,1.109,-0.025
30.59,-0.48,0.468,-0.176
30.6,0.069,1.642,0.263
30.61,-0.226,1.087,0.117
30.62,-0.016,0.607,-0.048
30.63,-0.541,1.054,-0.211
30.64,0.119,1.405,0.23
30.65,-0.328,1.257,0.098
30.66,0.095,0.589,-0.017
30.67,-0.586,0.916,-0.228
30.68,0.101,1.428,0.166
30.69,-0.235,0.854,0.083
30.7,-0.011,1.026,-0.047
30.71,-0.404,0.43,-0.225
30.72,0.059,2.0,0.129
30.73,-0.223,0.625,0.117
30.74,0.023,1.037,-0.026
30.75,-0.557,0.552,-0.228
30.76,0.087,2.0,0.128
30.77,-0.308,1.064,0.04
30.78,0.179,0.586,-0.035
30.79,-0.511,1.009,-0.272
30.8,0.133,1.601,0.051
30.81,-0.264,1.184,0.05
30.82,0.2,0.581,0.027
30.83,-0.574,0.922,-0.248
30.84,0.102,1.965,0.131
30.85,-0.356,0.786,0.045
30.86,0.054,0.838,0.034
30.87,-0.361,0.487,-0.272
30.88,-0.128,2.0,0.112
30.89,-0.105,0.685,0.065
30.9,-0.048,0.882,0.035
30.91,-0.31,0.542,-0.262
30.92,-0.128,1.953,0.068
30.93,-0.207,0.805,0.033
30.94,0.18,0.578,-0.027
30.95,-0.527,0.95,-0.246
30.96,-0.046,1.695,0.097
30.97,-0.329,1.001,0.051
30.98,0.207,0.454,0.056
30.99,-0.53,1.042,-0.223
31.0,0.019,1.651,0.132
31.01,-0.276,0.99,0.019
31.02,0.144,0.666,0.032
31.03,-0.395,0.708,-0.256
31.04,-0.156,2.0,0.128
31.05,-0.189,0.543,0.061
31.06,0.009,0.983,0.069
31.07,-0.329,0.328,-0.227
31.08,-0.199,2.0,0.089
31.09,-0.154,0.731,0.094
31.1,0.016,0.72,0.085
31.11,-0.476,0.795,-0.21
31.12,-0.183,1.779,0.069
31.13,-0.316,0.818,0.031
31.14,0.032,0.522,0.109
31.15,-0.52,0.877,-0.237
31.16,-0.205,1.606,0.032
31.17,-0.175,0.914,0.033
31.18,0.041,0.629,0.095
31.19,-0.478,0.601,-0.202
31.2,-0.319,2.0,0.013
31.21,-0.141,0.467,0.057
31.22,-0.056,1.04,0.125
31.23,-0.403,0.319,-0.245
31.24,-0.362,2.0,0.075
31.25,-0.216,0.537,0.139
31.26,-0.09,0.795,0.162
31.27,-0.45,0.633,-0.145
31.28,-0.348,1.705,-0.043
31.29,-0.197,1.003,0.105
31.3,0.16,0.431,0.127
31.31,-0.565,0.966,-0.126
31.32,-0.212,1.417,-0.007
31.33,-0.301,0.721,0.144
31.34,-0.089,0.807,0.091
31.35,-0.495,0.551,-0.212
31.36,-0.344,1.563,0.03
31.37,-0.173,0.519,0.2
31.38,-0.265,1.036,0.149
31.39,-0.189,0.298,-0.178
31.4,-0.47,2.0,-0.12
31.41,0.126,0.644,0.073
31.42,-0.027,0.793,-0.021
31.43,-0.441,0.71,-0.218
31.44,-0.37,0.949,-0.008
31.45,-0.262,0.875,0.098
31.46,-0.135,0.689,0.148
31.47,-0.501,0.885,-0.195
31.48,-0.308,0.878,-0.016
31.49,-0.177,0.948,0.153
31.5,-0.119,0.776,0.096
31.51,-0.358,0.497,-0.138
31.52,-0.36,1.855,-0.112
31.53,0.049,0.651,0.178
31.54,-0.12,1.04,0.068
31.55,-0.31,0.368,-0.205
31.56,-0.507,1.066,-0.064
31.57,-0.172,0.653,0.107
31.58,-0.253,1.108,0.045
31.59,-0.341,0.533,-0.187
31.6,-0.329,0.741,-0.08
31.61,-0.082,1.178,0.138
31.62,-0.08,0.579,0.008
31.63,-0.357,0.865,-0.142
31.64,-0.27,1.172,-0.137
31.65,-0.039,1.054,0.17
31.66,-0.059,0.731,0.03
31.67,-0.316,0.67,-0.223
31.68,-0.463,0.96,-0.152
31.69,-0.143,0.586,0.119
31.7,-0.151,1.481,-0.031
31.71,-0.211,0.238,-0.192
31.72,-0.322,1.264,-0.054
31.73,0.02,0.899,0.184
31.74,-0.256,0.857,0.095
31.75,-0.256,0.561,-0.123
31.76,-0.363,1.559,-0.125
31.77,0.018,1.232,0.12
31.78,0.047,0.413,0.038
31.79,-0.577,0.956,-0.186
31.8,-0.475,0.565,0.044
31.81,-0.342,0.958,0.074
31.82,-0.249,0.885,0.053
31.83,-0.407,0.735,-0.179
31.84,-0.273,1.082,-0.081
31.85,-0.045,0.84,0.162
31.86,-0.125,0.897,0.074
31.87,-0.328,0.326,-0.114
31.88,-0.333,2.0,-0.16
31.89,0.066,0.675,0.084
31.9,-0.042,0.907,0.079
31.91,-0.461,0.569,-0.21
31.92,-0.421,0.861,-0.023
31.93,-0.318,0.725,0.103
31.94,-0.151,0.977,0.051
31.95,-0.371,0.748,-0.198
31.96,-0.135,1.043,-0.044
31.97,-0.163,1.176,0.203
31.98,0.002,0.517,0.12
31.99,-0.414,0.739,-0.143
32.0,-0.21,1.659,-0.12
32.01,-0.061,0.825,0.141
32.02,0.007,0.874,0.067
32.03,-0.433,0.52,-0.238
32.04,-0.508,1.11,-0.021
32.05,-0.163,0.517,0.084
32.06,-0.333,1.377,0.079
32.07,-0.242,0.271,-0.182
32.08,-0.356,1.188,-0.051
32.09,0.029,0.973,0.141
32.1,-0.133,0.666,0.062
32.11,-0.345,0.807,-0.167
32.12,-0.227,1.194,-0.094
32.13,-0.013,1.169,0.163
32.14,0.039,0.539,0.09
32.15,-0.545,0.9,-0.184
32.16,-0.396,0.745,-0.036
32.17,-0.182,0.788,0.117
32.18,-0.217,1.181,0.064
32.19,-0.248,0.288,-0.168
32.2,-0.487,1.225,-0.059
32.21,0.061,0.736,0.134
32.22,-0.329,1.118,0.083
32.23,-0.25,0.265,-0.124
32.24,-0.379,1.414,-0.075
32.25,0.001,1.034,0.178
32.26,-0.089,0.643,0.123
32.27,-0.426,0.934,-0.166
32.28,-0.462,0.389,-0.063
32.29,-0.252,1.086,0.199
32.3,-0.157,0.903,0.036
32.31,-0.406,0.751,-0.116
32.32,-0.292,0.706,-0.059
32.33,-0.015,1.094,0.139
32.34,-0.228,1.061,0.039
32.35,-0.206,0.316,-0.139
32.36,-0.428,1.413,-0.083
32.37,0.153,0.749,0.18
32.38,-0.156,1.076,0.025
32.39,-0.432,0.469,-0.154
32.4,-0.398,0.828,-0.037
32.41,-0.247,0.941,0.195
32.42,-0.071,0.934,0.014
32.43,-0.348,0.749,-0.127
32.44,-0.227,0.64,-0.067
32.45,-0.058,1.264,0.141
32.46,-0.167,0.639,0.061
32.47,-0.411,0.718,-0.165
32.48,-0.278,1.034,-0.1
32.49,-0.012,0.881,0.176
32.5,-0.073,0.958,0.043
32.51,-0.404,0.456,-0.196
32.52,-0.448,1.138,-0.06
32.53,-0.057,0.65,0.134
32.54,-0.234,1.243,0.041
32.55,-0.346,0.259,-0.157
32.56,-0.394,1.11,-0.064
32.57,-0.011,0.955,0.174
32.58,-0.111,0.737,0.047
32.59,-0.39,0.689,-0.19
32.6,-0.265,1.501,-0.051
32.61,-0.103,0.956,0.176
32.62,0.066,0.543,0.105
32.63,-0.516,1.032,-0.195
32.64,-0.321,1.195,0.02
32.65,-0.264,0.792,0.208
32.66,-0.108,0.792,0.069
32.67,-0.418,0.564,-0.172
32.68,-0.307,2.0,-0.053
32.69,-0.051,0.589,0.104
32.7,-0.076,1.012,0.104
32.71,-0.343,0.398,-0.226
32.72,-0.381,1.971,-0.041
32.73,-0.106,0.503,0.093
32.74,-0.093,0.974,0.056
32.75,-0.39,0.556,-0.254
32.76,-0.268,1.305,-0.001
32.77,-0.271,0.887,0.181
32.78,-0.011,0.577,0.092
32.79,-0.452,0.83,-0.172
32.8,-0.223,1.603,-0.068
32.81,-0.089,1.038,0.106
32.82,0.018,0.585,0.09
32.83,-0.479,0.714,-0.182
32.84,-0.353,1.902,-0.004
32.85,-0.112,0.436,0.124
32.86,-0.148,1.073,0.103
32.87,-0.381,0.391,-0.276
32.88,-0.351,1.958,0.065
32.89,-0.132,0.512,0.185
32.9,-0.121,0.929,0.102
32.91,-0.445,0.545,-0.15
32.92,-0.297,1.782,-0.023
32.93,-0.111,1.056,0.106
32.94,0.111,0.43,0.055
32.95,-0.565,1.049,-0.223
32.96,-0.208,1.706,0.037
32.97,-0.258,0.777,0.085
32.98,0.039,0.725,0.08
32.99,-0.55,0.721,-0.192
33.0,-0.235,2.0,0.041
33.01,-0.127,0.449,0.069
33.02,-0.089,1.059,0.15
33.03,-0.407,0.268,-0.226
33.04,-0.404,2.0,0.017
33.05,-0.091,0.658,0.192
33.06,0.097,0.825,0.112
33.07,-0.472,0.712,-0.177
33.08,-0.266,1.868,0.034
33.09,-0.221,0.794,0.048
33.1,0.103,0.575,0.074
33.11,-0.58,0.934,-0.243
33.12,-0.095,1.686,0.011
33.13,-0.286,0.8,0.039
33.14,0.131,0.667,0.088
33.15,-0.518,0.668,-0.206
33.16,-0.272,1.913,0.045
33.17,-0.147,0.574,0.092
33.18,0.02,1.028,0.13
33.19,-0.37,0.278,-0.19
33.2,-0.284,2.0,0.024
33.21,-0.265,0.434,0.105
33.22,-0.086,0.91,0.108
33.23,-0.399,0.536,-0.25
33.24,-0.217,1.771,0.008
33.25,-0.256,0.88,0.074
33.26,0.062,0.53,0.104
33.27,-0.508,0.762,-0.205
33.28,-0.151,1.651,0.013
33.29,-0.21,0.898,0.029
33.3,0.008,0.674,0.091
33.31,-0.437,0.615,-0.202
33.32,-0.291,2.0,0.057
33.33,-0.105,0.491,0.09
33.34,-0.096,1.037,0.109
33.35,-0.404,0.303,-0.194
33.36,-0.408,2.0,0.121
33.37,-0.094,0.628,0.138
33.38,0.005,1.034,0.069
33.39,-0.463,0.606,-0.244
33.4,-0.03,1.917,0.052
33.41,-0.106,0.924,0.024
33.42,0.089,0.703,0.004
33.43,-0.521,0.919,-0.212
33.44,0.196,1.792,0.116
33.45,-0.361,1.146,0.087
33.46,0.169,0.485,-0.026
33.47,-0.59,0.949,-0.261
33.48,0.075,1.81,0.085
33.49,-0.331,0.902,0.089
33.5,0.101,0.875,0.072
33.51,-0.504,0.453,-0.168
33.52,-0.035,1.836,0.096
33.53,-0.062,0.674,-0.032
33.54,-0.067,1.094,0.019
33.55,-0.277,0.339,-0.229
33.56,-0.051,2.0,0.195
33.57,-0.228,0.885,0.089
33.58,-0.014,0.645,-0.013
33.59,-0.558,0.934,-0.156
33.6,-0.036,1.771,0.208
33.61,-0.469,1.097,0.098
33.62,0.237,0.511,0.062
33.63,-0.596,0.921,-0.172
33.64,0.015,1.594,0.103
33.65,-0.419,0.469,-0.108
33.66,-0.004,1.505,0.129
33.67,-0.149,0.884,0.089
33.68,-0.152,1.08,-0.118
33.69,-0.263,0.312,-0.12
33.7,-0.153,1.5,0.172
33.71,-0.238,0.865,0.023
33.72,-0.187,0.815,-0.169
33.73,-0.376,0.723,-0.12
33.74,0.025,1.199,0.158
33.75,-0.272,1.268,0.095
33.76,-0.087,0.496,-0.169
33.77,-0.392,1.013,-0.072
33.78,0.022,1.069,0.176
33.79,-0.376,1.359,0.075
33.8,-0.098,0.557,-0.114
33.81,-0.434,0.697,-0.087
33.82,-0.0,1.377,0.236
33.83,-0.241,0.844,0.073
33.84,-0.34,0.945,-0.094
33.85,-0.266,0.329,-0.112
33.86,-0.217,1.443,0.202
33.87,-0.115,0.964,0.088
33.88,-0.323,0.805,-0.143
33.89,-0.229,0.661,-0.087
33.9,-0.098,1.131,0.194
33.91,-0.238,1.361,0.041
33.92,-0.087,0.392,-0.136
33.93,-0.426,1.07,-0.083
33.94,0.068,1.007,0.177
33.95,-0.329,1.174,0.055
33.96,-0.335,0.547,-0.158
33.97,-0.393,0.663,-0.067
33.98,-0.12,1.203,0.224
33.99,-0.203,0.834,0.062
34.0,-0.365,0.895,-0.112
34.01,-0.405,0.338,-0.049
34.02,-0.141,1.344,0.193
34.03,-0.219,0.862,0.054
34.04,-0.388,0.703,-0.113
34.05,-0.406,0.844,-0.044
34.06,0.031,0.96,0.201
34.07,-0.235,1.162,0.079
34.08,-0.409,0.312,-0.125
34.09,-0.413,1.202,-0.054
34.1,0.006,0.724,0.131
34.11,-0.215,1.185,0.068
34.12,-0.383,0.389,-0.187
34.13,-0.407,0.926,-0.008
34.14,-0.11,0.696,0.153
34.15,-0.108,0.822,0.085
34.16,-0.458,0.72,-0.204
34.17,-0.21,1.438,-0.03
34.18,-0.158,1.041,0.117
34.19,-0.03,0.55,0.105
34.2,-0.433,0.927,-0.226
34.21,-0.191,1.576,-0.018
34.22,-0.166,0.73,0.076
34.23,-0.096,0.841,0.06
34.24,-0.392,0.405,-0.221
34.25,-0.382,1.941,0.048
34.26,-0.127,0.355,0.147
34.27,-0.209,1.117,0.098
34.28,-0.329,0.221,-0.198
34.29,-0.414,2.0,0.013
34.3,-0.055,0.697,0.04
34.31,-0.018,0.672,0.077
34.32,-0.398,0.781,-0.28
34.33,-0.278,1.738,0.037
34.34,-0.182,0.934,0.069
34.35,0.076,0.509,0.113
34.36,-0.572,0.98,-0.193
34.37,-0.195,1.776,0.076
34.38,-0.252,0.775,0.028
34.39,0.011,0.805,0.08
34.4,-0.512,0.478,-0.205
34.41,-0.148,2.0,0.107
34.42,-0.083,0.658,0.145
34.43,-0.054,1.028,0.073
34.44,-0.399,0.271,-0.198
34.45,-0.13,2.0,0.111
34.46,-0.178,0.716,0.039
34.47,0.082,0.807,-0.003
34.48,-0.5,0.824,-0.251
34.49,0.03,1.748,0.181
34.5,-0.371,1.141,0.104
34.51,0.194,0.492,0.038
34.52,-0.594,0.966,-0.182
34.53,0.022,1.375,0.094
34.54,-0.2,1.018,0.057
34.55,0.106,0.893,-0.013
34.56,-0.406,0.499,-0.193
34.57,0.129,2.0,0.083
34.58,-0.115,0.671,0.05
34.59,-0.033,1.073,-0.035
34.6,-0.462,0.373,-0.205
34.61,0.03,1.95,0.114
34.62,-0.317,0.874,0.032
34.63,0.087,0.879,0.009
34.64,-0.52,0.73,-0.173
34.65,0.043,1.325,0.172
34.66,-0.255,1.109,0.061
34.67,0.202,0.683,-0.041
34.68,-0.574,0.961,-0.168
34.69,0.197,1.47,0.233
34.7,-0.248,1.109,0.136
34.71,0.048,0.85,-0.052
34.72,-0.477,0.634,-0.137
34.73,0.013,1.795,0.171
34.74,-0.169,0.814,0.077
34.75,-0.055,1.007,-0.072
34.76,-0.462,0.419,-0.135
34.77,-0.119,1.578,0.119
34.78,-0.292,0.726,0.065
34.79,0.022,1.003,-0.028
34.8,-0.437,0.726,-0.19
34.81,0.062,1.293,0.14
34.82,-0.197,1.31,0.151
34.83,-0.051,0.505,-0.139
34.84,-0.345,1.045,-0.159
34.85,0.064,1.24,0.149
34.86,-0.18,1.204,0.086
34.87,0.048,0.74,-0.048
34.88,-0.475,0.625,-0.121
34.89,-0.058,1.437,0.156
34.9,-0.247,0.693,0.032
34.91,-0.212,1.049,-0.13
34.92,-0.373,0.296,-0.122
34.93,-0.078,1.542,0.109
34.94,-0.106,0.87,0.107
34.95,-0.271,0.96,-0.157
34.96,-0.339,0.497,-0.039
34.97,-0.122,1.224,0.191
34.98,-0.235,1.295,0.044
34.99,-0.015,0.43,-0.116
35.0,-0.399,1.096,-0.088
35.01,0.145,1.014,0.151
35.02,-0.412,1.101,-0.021
35.03,-0.217,0.561,-0.096
35.04,-0.471,0.756,-0.058
35.05,-0.079,1.001,0.238
35.06,-0.162,0.958,0.045
35.07,-0.464,0.797,-0.147
35.08,-0.241,0.349,-0.007
35.09,-0.34,1.306,0.241
35.1,-0.206,0.809,0.037
35.11,-0.409,0.694,-0.088
35.12,-0.227,1.031,-0.067
35.13,-0.046,1.055,0.212
35.14,-0.117,0.839,0.019
35.15,-0.384,0.48,-0.188
35.16,-0.336,1.204,-0.037
35.17,-0.032,0.6,0.157
35.18,-0.189,1.214,0.052
35.19,-0.392,0.341,-0.232
35.2,-0.356,0.936,-0.031
35.21,-0.101,0.907,0.12
35.22,-0.209,0.868,0.018
35.23,-0.401,0.65,-0.141
35.24,-0.129,1.375,-0.105
35.25,-0.049,1.191,0.183
35.26,0.01,0.48,0.084
35.27,-0.512,0.91,-0.214
35.28,-0.318,1.011,-0.034
35.29,-0.185,0.713,0.098
35.3,-0.117,1.047,0.011
35.31,-0.394,0.362,-0.303
35.32,-0.287,1.624,0.003
35.33,-0.036,0.497,0.128
35.34,-0.183,1.12,0.102
35.35,-0.369,0.282,-0.188
35.36,-0.361,1.978,-0.017
35.37,-0.044,0.877,0.113
35.38,0.027,0.602,0.085
35.39,-0.571,0.939,-0.184
35.4,-0.22,1.587,0.058
35.41,-0.292,0.767,0.106
35.42,-0.002,0.662,0.08
35.43,-0.581,0.772,-0.245
35.44,-0.152,1.771,0.029
35.45,-0.229,0.71,0.108
35.46,0.047,0.833,0.073
35.47,-0.446,0.389,-0.206
35.48,-0.275,2.0,0.09
35.49,-0.027,0.582,0.085
35.5,0.057,0.979,0.069
35.51,-0.411,0.437,-0.261
35.52,-0.209,2.0,0.075
35.53,-0.237,0.616,0.065
35.54,0.046,0.691,0.071
35.55,-0.538,0.782,-0.225
35.56,-0.023,1.637,0.135
35.57,-0.28,1.169,0.067
35.58,0.222,0.488,0.082
35.59,-0.572,0.887,-0.225
35.6,0.007,1.793,0.068
35.61,-0.245,0.844,0.065
35.62,0.121,0.882,0.013
35.63,-0.487,0.446,-0.212
35.64,-0.087,2.0,0.193
35.65,-0.246,0.493,0.071
35.66,-0.08,1.045,0.073
35.67,-0.478,0.365,-0.178
35.68,-0.109,2.0,0.147
35.69,-0.268,0.846,0.062
35.7,0.137,0.665,0.004
35.71,-0.544,0.899,-0.235
35.72,0.048,1.534,0.075
35.73,-0.284,1.201,0.065
35.74,0.165,0.566,-0.053
35.75,-0.415,1.016,-0.179
35.76,0.103,1.388,0.143
35.77,-0.253,1.149,0.105
35.78,0.027,0.771,-0.067
35.79,-0.48,0.731,-0.146
35.8,0.043,1.698,0.182
35.81,-0.186,0.825,0.077
35.82,-0.078,1.089,-0.039
35.83,-0.421,0.318,-0.12
35.84,-0.108,1.634,0.153
35.85,-0.181,0.71,0.077
35.86,-0.105,1.031,-0.071
35.87,-0.344,0.633,-0.174
35.88,0.048,1.444,0.207
35.89,-0.248,1.186,0.073
35.9,-0.006,0.629,-0.09
35.91,-0.468,1.007,-0.098
35.92,0.054,1.165,0.164
35.93,-0.366,1.27,0.043
35.94,0.014,0.656,-0.08
35.95,-0.417,0.754,-0.121
35.96,0.008,1.499,0.122
35.97,-0.095,0.779,-0.034
35.98,-0.216,1.109,-0.115
35.99,-0.312,0.253,-0.093
36.0,-0.15,1.563,0.104
36.01,-0.114,0.865,0.091
36.02,-0.226,0.856,-0.131
36.03,-0.348,0.66,-0.104
36.04,-0.088,1.189,0.232
36.05,-0.336,1.138,0.046
36.06,-0.163,0.429,-0.164
36.07,-0.503,1.022,-0.091
36.08,0.007,0.934,0.188
36.09,-0.245,1.194,0.015
36.1,-0.277,0.562,-0.131
36.11,-0.396,0.648,-0.05
36.12,-0.133,1.157,0.252
36.13,-0.132,0.926,0.033
36.14,-0.33,0.924,-0.072
36.15,-0.308,0.358,-0.101
36.16,-0.104,1.464,0.183
36.17,-0.256,0.717,0.061
36.18,-0.356,0.806,-0.066
36.19,-0.357,0.721,-0.094
36.2,0.008,1.044,0.153
36.21,-0.248,1.135,0.106
36.22,-0.323,0.382,-0.137
36.23,-0.412,1.067,-0.056
36.24,0.008,0.778,0.128
36.25,-0.246,1.22,0.043
36.26,-0.304,0.367,-0.162
36.27,-0.38,1.031,-0.056
36.28,0.04,1.044,0.137
36.29,-0.153,0.697,0.021
36.3,-0.462,0.798,-0.173
36.31,-0.25,0.778,-0.033
36.32,-0.139,1.118,0.17
36.33,-0.063,0.65,0.063
36.34,-0.514,0.804,-0.169
36.35,-0.27,1.104,-0.041
36.36,-0.104,0.763,0.142
36.37,-0.17,1.042,0.036
36.38,-0.354,0.316,-0.211
36.39,-0.292,1.804,-0.013
36.4,-0.034,0.546,0.147
36.41,-0.147,1.036,0.072
36.42,-0.413,0.451,-0.209
36.43,-0.315,1.683,-0.018
36.44,-0.118,0.797,0.148
36.45,-0.059,0.663,0.106
36.46,-0.493,0.915,-0.204
36.47,-0.268,1.413,0.038
36.48,-0.235,0.923,0.177
36.49,-0.039,0.607,0.116
36.5,-0.586,0.709,-0.196
36.51,-0.262,1.903,0.028
36.52,-0.221,0.665,0.097
36.53,0.017,0.908,0.102
36.54,-0.409,0.287,-0.238
36.55,-0.121,2.0,0.113
36.56,-0.231,0.551,0.07
36.57,0.038,0.998,0.076
36.58,-0.455,0.319,-0.241
36.59,-0.22,2.0,0.091
36.6,-0.145,0.563,-0.018
36.61,0.086,0.804,0.011
36.62,-0.476,0.67,-0.297
36.63,0.009,1.767,0.093
36.64,-0.255,1.199,0.026
36.65,0.13,0.497,0.027
36.66,-0.54,0.924,-0.185
36.67,0.098,1.779,0.097
36.68,-0.326,1.057,0.017
36.69,0.149,0.765,-0.011
36.7,-0.489,0.589,-0.205
36.71,0.059,2.0,0.161
36.72,-0.369,0.586,0.061
36.73,0.002,1.069,-0.005
36.74,-0.463,0.315,-0.185
36.75,-0.044,2.0,0.158
36.76,-0.248,0.729,0.058
36.77,0.055,0.872,-0.016
36.78,-0.586,0.685,-0.182
36.79,0.087,1.767,0.127
36.8,-0.348,1.201,0.043
36.81,0.199,0.555,-0.026
36.82,-0.59,1.015,-0.171
36.83,0.11,1.399,0.19
36.84,-0.371,1.096,0.09
36.85,0.079,0.863,-0.021
36.86,-0.458,0.619,-0.173
36.87,0.024,1.617,0.183
36.88,-0.163,0.768,0.104
36.89,-0.126,1.158,-0.032
36.9,-0.293,0.318,-0.121
36.91,-0.051,1.673,0.175
36.92,-0.069,0.824,0.085
36.93,-0.081,0.92,-0.102
36.94,-0.383,0.763,-0.156
36.95,-0.007,1.298,0.142
36.96,-0.301,1.213,0.09
36.97,0.032,0.529,-0.101
36.98,-0.444,1.032,-0.12
36.99,0.039,1.114,0.16
37.0,-0.372,1.148,0.013
37.01,-0.093,0.724,-0.12
37.02,-0.375,0.564,-0.161
37.03,-0.064,1.55,0.106
37.04,-0.084,0.82,0.068
37.05,-0.259,1.067,-0.121
37.06,-0.314,0.346,-0.09
37.07,-0.176,1.489,0.211
37.08,-0.201,0.904,0.036
37.09,-0.256,0.796,-0.118
37.1,-0.325,0.749,-0.124
37.11,-0.077,1.051,0.232
37.12,-0.323,1.275,0.049
37.13,-0.179,0.406,-0.161
37.14,-0.37,1.006,-0.108
37.15,-0.07,0.969,0.262
37.16,-0.274,1.249,0.079
37.17,-0.223,0.573,-0.087
37.18,-0.367,0.665,-0.082
37.19,-0.0,1.373,0.175
37.2,-0.229,0.73,0.028
37.21,-0.377,0.885,-0.116
37.22,-0.28,0.523,-0.121
37.23,-0.03,1.258,0.14
37.24,-0.108,0.728,0.036
37.25,-0.446,0.738,-0.155
37.26,-0.346,0.756,-0.124
37.27,-0.032,0.86,0.12
37.28,-0.206,1.287,0.028
37.29,-0.263,0.265,-0.165
37.3,-0.447,1.216,-0.045
37.31,0.035,0.765,0.175
37.32,-0.254,1.099,0.027
37.33,-0.364,0.458,-0.146
37.34,-0.289,1.4,-0.043
37.35,0.006,0.701,0.061
37.36,0.035,0.776,0.067
37.37,-0.469,0.742,-0.247
37.38,-0.231,1.415,0.016
37.39,-0.295,0.839,0.132
37.4,-0.022,0.651,0.116
37.41,-0.468,0.805,-0.242
37.42,-0.213,1.604,0.03
37.43,-0.194,0.693,0.09
37.44,-0.003,0.841,0.092
37.45,-0.389,0.378,-0.175
37.46,-0.323,2.0,0.022
37.47,-0.049,0.528,0.099
37.48,-0.091,1.005,0.091
37.49,-0.397,0.312,-0.22
37.5,-0.284,2.0,0.126
37.51,-0.27,0.437,0.069
37.52,-0.054,0.819,0.071
37.53,-0.495,0.703,-0.24
37.54,-0.171,1.588,0.068
37.55,-0.218,1.063,0.027
37.56,0.146,0.43,0.066
37.57,-0.514,0.885,-0.176
37.58,0.003,1.642,0.013
37.59,-0.105,1.014,0.079
37.6,0.079,0.826,-0.004
37.61,-0.524,0.491,-0.177
37.62,-0.053,2.0,0.166
37.63,-0.287,0.453,0.042
37.64,0.013,1.034,0.028
37.65,-0.564,0.379,-0.237
37.66,-0.043,2.0,0.159
37.67,-0.234,0.953,0.063
37.68,0.148,0.667,-0.003
37.69,-0.4,0.839,-0.231
37.7,0.009,1.369,0.096
37.71,-0.24,1.137,0.117
37.72,0.117,0.644,0.001
37.73,-0.512,0.989,-0.273
37.74,0.206,1.946,0.147
37.75,-0.288,0.993,0.017
37.76,0.128,0.767,-0.074
37.77,-0.49,0.584,-0.239
37.78,-0.046,1.697,0.127
37.79,-0.179,0.703,0.042
37.8,-0.04,1.069,0.005
37.81,-0.367,0.365,-0.153
37.82,-0.113,1.649,0.131
37.83,-0.278,0.716,0.158
37.84,-0.006,0.976,-0.031
37.85,-0.508,0.741,-0.144
37.86,0.215,1.938,0.204
37.87,-0.392,1.374,0.103
37.88,0.109,0.454,-0.013
37.89,-0.588,1.054,-0.157
37.9,0.063,1.218,0.215
37.91,-0.284,1.075,0.077
37.92,0.013,0.82,-0.069
37.93,-0.384,0.532,-0.082
37.94,-0.032,1.667,0.128
37.95,-0.234,0.569,0.135
37.96,-0.107,1.284,-0.117
37.97,-0.396,0.332,-0.13
37.98,0.082,2.0,0.16
37.99,-0.222,0.987,0.064
38.0,-0.006,0.715,-0.109
38.01,-0.448,0.852,-0.177
38.02,0.031,1.174,0.098
38.03,-0.361,1.343,0.032
38.04,0.112,0.572,-0.055
38.05,-0.362,0.948,-0.137
38.06,0.038,1.301,0.107
38.07,-0.17,0.998,0.107
38.08,-0.23,0.931,-0.179
38.09,-0.323,0.442,-0.122
38.1,-0.041,1.599,0.159
38.11,-0.052,0.924,0.125
38.12,-0.146,1.002,-0.105
38.13,-0.358,0.396,-0.097
38.14,-0.156,1.375,0.227
38.15,-0.356,0.816,-0.015
38.16,-0.379,0.925,-0.074
38.17,-0.444,0.632,-0.092
38.18,0.022,1.197,0.198
38.19,-0.256,1.048,0.088
38.2,-0.385,0.517,-0.085
38.21,-0.469,0.961,-0.039
38.22,-0.13,0.839,0.276
38.23,-0.246,1.523,0.171
38.24,-0.203,0.444,-0.112
38.25,-0.339,0.892,-0.047
38.26,0.034,1.191,0.191
38.27,-0.229,0.789,0.013
38.28,-0.377,0.802,-0.132
38.29,-0.34,0.503,-0.088
38.3,-0.118,1.282,0.135
38.31,-0.05,0.704,0.04
38.32,-0.542,0.856,-0.171
38.33,-0.333,0.599,-0.082
38.34,-0.178,0.929,0.149
38.35,-0.155,1.263,0.058
38.36,-0.271,0.289,-0.158
38.37,-0.276,1.546,-0.039
38.38,0.076,0.685,0.169
38.39,-0.214,1.042,0.06
38.4,-0.407,0.357,-0.198
38.41,-0.336,1.322,-0.033
38.42,-0.028,0.826,0.112
38.43,-0.093,0.711,0.045
38.44,-0.436,0.863,-0.224
38.45,-0.364,0.635,-0.039
38.46,-0.2,0.991,0.074
38.47,-0.135,0.735,0.023
38.48,-0.399,0.681,-0.193
38.49,-0.186,1.793,-0.08
38.5,-0.052,0.851,0.082
38.51,-0.045,0.839,0.049
38.52,-0.421,0.37,-0.193
38.53,-0.412,1.984,0.077
38.54,-0.156,0.413,0.156
38.55,-0.195,1.112,0.119
38.56,-0.423,0.33,-0.22
38.57,-0.349,1.656,0.121
38.58,-0.27,0.657,0.156
38.59,-0.063,0.726,0.074
38.6,-0.395,0.668,-0.242
38.61,-0.121,1.467,0.034
38.62,-0.089,1.237,0.081
38.63,0.146,0.464,0.054
38.64,-0.505,0.845,-0.184
38.65,-0.08,1.903,0.054
38.66,-0.223,0.643,-0.019
38.67,0.13,0.923,0.025
38.68,-0.576,0.484,-0.258
38.69,-0.07,2.0,0.113
38.7,-0.238,0.447,-0.027
38.71,-0.002,0.979,0.057
38.72,-0.394,0.395,-0.233
38.73,-0.142,1.773,0.027
38.74,-0.088,0.942,0.054
38.75,0.106,0.705,-0.001
38.76,-0.546,0.849,-0.225
38.77,0.16,1.795,0.049
38.78,-0.382,1.179,0.071
38.79,0.142,0.58,-0.004
38.8,-0.562,0.914,-0.203
38.81,0.138,1.86,0.198
38.82,-0.365,0.99,0.073
38.83,0.045,0.779,-0.009
38.84,-0.46,0.504,-0.191
38.85,-0.104,1.669,0.155
38.86,-0.101,0.589,0.046
38.87,-0.115,1.138,0.004
38.88,-0.395,0.233,-0.094
38.89,-0.027,1.808,0.194
38.9,-0.061,0.785,0.144
38.91,-0.166,1.011,-0.087
38.92,-0.361,0.645,-0.145
38.93,-0.005,1.392,0.224
38.94,-0.264,1.361,0.092
38.95,0.024,0.452,-0.064
38.96,-0.318,0.979,-0.105
38.97,-0.066,0.984,0.223
38.98,-0.414,1.247,0.025
38.99,-0.226,0.451,-0.079
39.0,-0.424,0.887,-0.088
39.01,-0.087,1.202,0.205
39.02,-0.217,1.011,0.066
39.03,-0.287,0.804,-0.173
39.04,-0.221,0.392,-0.073
39.05,-0.302,1.456,0.24
39.06,-0.051,0.885,0.026
39.07,-0.311,0.889,-0.089
39.08,-0.201,0.604,-0.071
39.09,0.025,1.341,0.152
39.1,-0.2,0.825,0.021
39.11,-0.341,0.625,-0.15
39.12,-0.445,0.992,-0.054
39.13,0.049,0.809,0.152
39.14,-0.229,1.222,0.046
39.15,-0.318,0.385,-0.188
39.16,-0.414,0.936,-0.036
39.17,-0.196,0.852,0.197
39.18,-0.224,1.107,0.007
39.19,-0.359,0.56,-0.132
39.2,-0.091,1.299,-0.047
39.21,-0.079,1.28,0.218
39.22,-0.053,0.406,0.038
39.23,-0.455,1.016,-0.196
39.24,-0.368,0.911,-0.077
39.25,-0.083,0.826,0.087
39.26,-0.163,0.912,0.033
39.27,-0.412,0.526,-0.23
39.28,-0.385,1.234,0.021
39.29,-0.047,0.534,0.08
39.3,-0.356,1.156,0.053
39.31,-0.198,0.2,-0.203
39.32,-0.338,2.0,-0.097
39.33,0.079,0.789,0.049
39.34,-0.025,0.678,0.031
39.35,-0.514,0.808,-0.238
39.36,-0.227,1.6,0.022
39.37,-0.195,0.808,0.124
39.38,-0.004,0.589,0.12
39.39,-0.604,0.985,-0.221
39.4,-0.166,1.409,0.106
39.41,-0.326,0.676,0.157
39.42,-0.05,0.887,0.083
39.43,-0.458,0.45,-0.196
39.44,-0.241,1.909,-0.012
39.45,0.05,0.811,0.153
39.46,-0.048,0.95,0.009
39.47,-0.343,0.329,-0.17
39.48,-0.15,2.0,0.11
39.49,-0.215,0.679,0.137
39.5,-0.007,0.803,0.033
39.51,-0.577,0.822,-0.28
39.52,-0.024,1.908,0.084
39.53,-0.344,0.906,-0.052
39.54,0.125,0.453,0.092
39.55,-0.486,0.911,-0.228
39.56,-0.123,1.253,0.085
39.57,-0.102,1.119,0.055
39.58,0.017,0.82,0.058
39.59,-0.377,0.463,-0.15
39.6,0.032,2.0,0.162
39.61,-0.22,0.608,0.043
39.62,-0.036,1.049,0.011
39.63,-0.546,0.382,-0.253
39.64,-0.065,2.0,0.215
39.65,-0.338,0.761,0.023
39.66,0.134,0.727,0.001
39.67,-0.612,0.812,-0.22
39.68,-0.035,1.205,0.128
39.69,-0.325,1.108,0.11
39.7,0.125,0.772,-0.036
39.71,-0.539,0.89,-0.159
39.72,0.156,1.726,0.11
39.73,-0.101,1.143,0.035
39.74,-0.036,0.797,-0.075
39.75,-0.495,0.623,-0.148
39.76,-0.011,1.688,0.215
39.77,-0.237,0.941,0.04
39.78,0.012,0.979,-0.069
39.79,-0.382,0.378,-0.181
39.8,-0.111,1.555,0.13
39.81,-0.239,0.6,0.035
39.82,-0.304,1.035,-0.109
39.83,-0.336,0.485,-0.148
39.84,-0.058,1.297,0.146
39.85,-0.11,1.213,0.101
39.86,-0.095,0.536,-0.153
39.87,-0.392,1.018,-0.056
39.88,-0.018,0.98,0.271
39.89,-0.423,1.313,0.059
39.9,-0.069,0.418,-0.111
39.91,-0.447,0.954,-0.074
39.92,0.099,1.295,0.18
39.93,-0.229,0.698,0.095
39.94,-0.491,0.984,-0.125
39.95,-0.341,0.323,-0.047
39.96,-0.324,1.245,0.279
39.97,-0.075,0.917,0.097
39.98,-0.364,0.819,-0.134
39.99,-0.308,0.605,-0.087
40.0,0.001,1.198,0.109
40.01,-0.268,1.043,-0.027
40.02,-0.208,0.38,-0.134
40.03,-0.298,1.694,-0.105
40.04,0.136,0.778,0.176
40.05,-0.114,1.031,0.076
40.06,-0.402,0.494,-0.206
40.07,-0.458,0.893,-0.059
40.08,-0.205,0.781,0.127
40.09,-0.17,0.986,0.015
40.1,-0.407,0.723,-0.162
40.11,-0.264,0.875,0.013
40.12,-0.117,1.127,0.201
40.13,-0.073,0.531,0.016
40.14,-0.471,0.801,-0.132
40.15,-0.265,1.715,-0.1
40.16,0.002,0.841,0.089
40.17,-0.044,0.824,0.043
40.18,-0.461,0.544,-0.246
40.19,-0.45,1.654,0.069
40.2,-0.18,0.287,0.201
40.21,-0.282,1.207,0.121
40.22,-0.404,0.317,-0.235
40.23,-0.357,2.0,0.042
40.24,-0.127,0.777,0.103
40.25,0.01,0.648,0.094
40.26,-0.43,0.802,-0.242
40.27,-0.202,1.539,0.035
40.28,-0.116,1.123,0.105
40.29,0.146,0.516,0.055
40.3,-0.585,0.925,-0.234
40.31,-0.115,1.944,0.065
40.32,-0.355,0.626,0.079
40.33,0.014,0.945,0.065
40.34,-0.533,0.416,-0.23
40.35,-0.184,2.0,0.106
40.36,-0.179,0.592,0.055
40.37,-0.016,0.966,0.11
40.38,-0.37,0.383,-0.23
40.39,-0.15,1.982,0.046
40.4,-0.047,0.889,0.046
40.41,0.002,0.688,-0.013
40.42,-0.53,0.86,-0.235
40.43,0.099,1.835,0.15
40.44,-0.467,1.099,0.075
40.45,0.169,0.521,0.031
40.46,-0.625,0.919,-0.185
40.47,0.068,1.79,0.144
40.48,-0.295,1.025,0.067
40.49,0.092,0.863,-0.044
40.5,-0.406,0.455,-0.176
40.51,-0.054,1.826,0.138
40.52,-0.118,0.599,0.097
40.53,-0.06,1.179,-0.013
40.54,-0.477,0.347,-0.167
40.55,0.001,1.998,0.166
40.56,-0.245,0.931,0.094
40.57,-0.045,1.02,-0.094
40.58,-0.387,0.652,-0.22
40.59,0.001,1.323,0.138
40.6,-0.229,1.168,0.128
40.61,0.055,0.539,-0.064
40.62,-0.508,1.059,-0.138
40.63,-0.0,1.046,0.217
40.64,-0.33,1.173,0.028
40.65,-0.164,0.643,-0.08
40.66,-0.278,0.643,-0.125
40.67,-0.116,1.439,0.102
40.68,0.014,0.914,0.068
40.69,-0.262,1.014,-0.155
40.7,-0.222,0.336,-0.088
40.71,-0.241,1.531,0.157
40.72,-0.053,0.931,0.103
40.73,-0.261,0.791,-0.116
40.74,-0.277,0.722,-0.066
40.75,-0.04,1.163,0.186
40.76,-0.389,1.104,0.041
40.77,-0.268,0.5,-0.072
40.78,-0.462,0.976,-0.019
40.79,-0.16,0.829,0.269
40.8,-0.26,1.315,0.058
40.81,-0.319,0.47,-0.139
40.82,-0.349,0.73,-0.065
40.83,-0.131,1.179,0.23
40.84,-0.179,0.84,0.007
40.85,-0.324,0.78,-0.121
40.86,-0.224,0.774,-0.081
40.87,0.015,1.267,0.128
40.88,-0.08,0.608,-0.016
40.89,-0.45,0.828,-0.186
40.9,-0.387,0.815,-0.056
40.91,-0.079,0.801,0.113
40.92,-0.188,1.169,0.031
40.93,-0.324,0.351,-0.182
40.94,-0.33,1.489,-0.017
40.95,0.006,0.58,0.133
40.96,-0.215,1.128,0.045
40.97,-0.318,0.361,-0.207
40.98,-0.207,1.922,-0.093
40.99,-0.062,0.932,-0.003
41.0,0.012,0.542,0.066
41.01,-0.447,0.939,-0.226
41.02,-0.312,1.582,0.086
41.03,-0.252,0.848,0.138
41.04,-0.044,0.651,0.111
41.05,-0.502,0.789,-0.164
41.06,-0.316,1.887,0.122
41.07,-0.188,0.626,0.116
41.08,-0.111,0.918,0.095
41.09,-0.334,0.28,-0.216
41.1,-0.282,2.0,0.115
41.11,-0.083,0.624,0.109
41.12,-0.031,1.01,0.087
41.13,-0.463,0.383,-0.188
41.14,-0.147,2.0,0.111
41.15,-0.292,0.69,-0.023
41.16,0.104,0.642,0.01
41.17,-0.505,0.868,-0.251
41.18,0.086,1.698,0.088
41.19,-0.379,1.08,0.027
41.2,0.209,0.557,0.063
41.21,-0.527,0.83,-0.201
41.22,-0.018,1.591,0.094
41.23,-0.177,0.831,0.052
41.24,0.015,1.043,0.003
41.25,-0.445,0.348,-0.182
41.26,0.041,2.0,0.156
41.27,-0.199,0.669,0.016
41.28,-0.08,1.029,-0.034
41.29,-0.476,0.516,-0.192
41.3,-0.034,1.725,0.22
41.31,-0.26,1.084,0.024
41.32,0.107,0.636,-0.021
41.33,-0.593,0.972,-0.135
41.34,0.07,1.17,0.175
41.35,-0.392,1.19,0.099
41.36,0.053,0.723,-0.058
41.37,-0.452,0.802,-0.146
41.38,0.068,1.199,0.083
41.39,-0.123,1.231,0.054
41.4,-0.103,0.773,-0.158
41.41,-0.265,0.566,-0.104
41.42,-0.13,1.423,0.181
41.43,-0.149,0.851,0.017
41.44,-0.206,0.976,-0.128
41.45,-0.219,0.378,-0.12
41.46,-0.156,1.409,0.163
41.47,-0.153,0.817,0.038
41.48,-0.438,0.833,-0.108
41.49,-0.345,0.715,-0.055
41.5,-0.182,0.944,0.246
41.51,-0.206,1.425,0.03
41.52,-0.149,0.354,-0.176
41.53,-0.367,1.101,-0.035
41.54,0.09,0.992,0.22
41.55,-0.368,1.016,0.015
41.56,-0.335,0.586,-0.087
41.57,-0.38,0.821,-0.038
41.58,-0.042,1.185,0.218
41.59,-0.082,0.631,0.062
41.6,-0.549,0.934,-0.18
41.61,-0.234,0.838,-0.029
41.62,-0.146,0.986,0.125
41.63,-0.215,0.65,0.076
41.64,-0.441,0.753,-0.178
41.65,-0.344,1.703,0.02
41.66,-0.068,0.842,0.154
41.67,-0.122,0.789,0.108
41.68,-0.385,0.492,-0.184
41.69,-0.402,2.0,0.038
41.7,-0.078,0.464,0.129
41.71,-0.094,1.036,0.158
41.72,-0.368,0.402,-0.245
41.73,-0.302,2.0,0.067
41.74,-0.166,0.543,0.101
41.75,-0.089,0.816,0.108
41.76,-0.458,0.627,-0.245
41.77,-0.17,1.635,-0.003
41.78,-0.237,1.067,0.033
41.79,0.148,0.424,0.036
41.8,-0.484,0.863,-0.213
41.81,-0.146,1.776,0.054
41.82,-0.177,0.771,0.105
41.83,-0.004,0.857,0.059
41.84,-0.515,0.409,-0.189
41.85,-0.209,2.0,0.076
41.86,-0.25,0.377,0.014
41.87,-0.033,1.088,0.047
41.88,-0.447,0.326,-0.197
41.89,-0.199,2.0,0.172
41.9,-0.202,0.889,0.057
41.91,0.14,0.726,0.016
41.92,-0.488,0.755,-0.268
41.93,0.135,1.707,-0.016
41.94,-0.234,1.198,0.008
41.95,0.161,0.597,-0.005
41.96,-0.564,0.902,-0.211
41.97,0.11,1.958,0.188
41.98,-0.408,0.858,0.063
41.99,-0.149,0.885,0.106
42.0,0.011,0.771,0.1
42.01,-0.454,0.49,-0.218
42.02,-0.283,2.0,0.09
42.03,-0.134,0.382,0.017
42.04,-0.071,1.104,0.046
42.05,-0.39,0.298,-0.238
42.06,-0.271,2.0,0.03
42.07,-0.11,0.625,0.021
42.08,-0.041,0.729,0.082
42.09,-0.452,0.68,-0.254
42.1,-0.029,1.662,0.063
42.11,-0.185,1.069,0.012
42.12,0.178,0.616,-0.031
42.13,-0.538,0.931,-0.257
42.14,0.236,1.708,0.138
42.15,-0.34,1.29,0.005
42.16,0.147,0.544,-0.034
42.17,-0.584,1.024,-0.183
42.18,0.13,1.283,0.196
42.19,-0.31,1.014,0.009
42.2,0.082,0.9,-0.046
42.21,-0.436,0.483,-0.146
42.22,0.02,1.626,0.084
42.23,-0.187,0.668,0.115
42.24,-0.156,1.194,-0.117
42.25,-0.381,0.312,-0.168
42.26,-0.047,1.665,0.205
42.27,-0.076,0.993,0.072
42.28,-0.042,0.721,-0.068
42.29,-0.435,0.883,-0.14
42.3,-0.013,1.146,0.166
42.31,-0.354,1.28,0.041
42.32,0.011,0.526,-0.096
42.33,-0.468,0.947,-0.161
42.34,0.011,1.217,0.174
42.35,-0.185,1.01,0.01
42.36,-0.253,0.837,-0.184
42.37,-0.341,0.414,-0.095
42.38,-0.154,1.585,0.121
42.39,-0.043,0.909,0.076
42.4,-0.219,1.001,-0.114
42.41,-0.244,0.37,-0.103
42.42,-0.17,1.345,0.261
42.43,-0.289,0.941,0.04
42.44,-0.29,0.623,-0.119
42.45,-0.366,0.844,-0.103
42.46,-0.13,1.006,0.234
42.47,-0.237,1.343,0.068
42.48,-0.285,0.451,-0.17
42.49,-0.331,0.92,-0.028
42.5,-0.142,1.029,0.257
42.51,-0.245,1.217,0.05
42.52,-0.239,0.612,-0.101
42.53,-0.303,0.697,-0.05
42.54,-0.01,1.437,0.181
42.55,-0.249,0.532,0.018
42.56,-0.361,0.994,-0.098
42.57,-0.408,0.491,-0.064
42.58,-0.042,1.242,0.158
42.59,-0.228,0.807,0.079
42.6,-0.382,0.624,-0.165
42.61,-0.406,0.925,-0.093
42.62,-0.014,0.762,0.161
42.63,-0.249,1.275,0.056
42.64,-0.274,0.234,-0.145
42.65,-0.276,1.69,-0.091
42.66,0.12,0.785,0.184
42.67,-0.089,0.885,0.046
42.68,-0.421,0.633,-0.215
42.69,-0.323,0.956,-0.037
42.7,-0.13,0.993,0.131
42.71,-0.099,0.649,0.066
42.72,-0.516,0.895,-0.212
42.73,-0.333,0.792,-0.009
42.74,-0.142,0.953,0.126
42.75,-0.164,0.811,0.042
42.76,-0.391,0.55,-0.171
42.77,-0.262,1.964,-0.087
42.78,0.021,0.626,0.122
42.79,-0.067,1.004,0.058
42.8,-0.378,0.429,-0.248
42.81,-0.335,2.0,-0.071
42.82,-0.063,0.543,0.084
42.83,-0.083,0.892,0.086
42.84,-0.485,0.683,-0.25
42.85,-0.259,1.708,0.046
42.86,-0.229,0.853,0.109
42.87,0.034,0.524,0.12
42.88,-0.505,0.904,-0.227
42.89,-0.271,1.524,0.05
42.9,-0.172,0.97,0.135
42.91,0.136,0.527,0.083
42.92,-0.584,0.868,-0.177
42.93,-0.062,2.0,0.06
42.94,-0.305,0.639,-0.001
42.95,0.039,0.928,0.07
42.96,-0.501,0.455,-0.229
42.97,-0.187,2.0,0.183
42.98,-0.153,0.558,0.063
42.99,-0.023,0.979,0.085
43.0,-0.384,0.409,-0.22
43.01,-0.158,1.821,0.047
43.02,-0.139,0.917,0.09
43.03,0.064,0.708,0.024
43.04,-0.5,0.904,-0.204
43.05,0.076,1.836,0.142
43.06,-0.374,0.977,0.011
43.07,0.142,0.557,0.04
43.08,-0.557,0.943,-0.223
43.09,0.075,1.798,0.117
43.1,-0.322,0.915,0.094
43.11,0.082,0.879,0.001
43.12,-0.452,0.454,-0.186
43.13,-0.003,1.874,0.029
43.14,-0.046,0.636,0.012
43.15,-0.063,1.106,-0.032
43.16,-0.368,0.39,-0.213
43.17,0.037,2.0,0.127
43.18,-0.265,0.89,0.056
43.19,0.094,0.635,-0.071
43.2,-0.595,1.031,-0.243
43.21,0.062,1.49,0.131
43.22,-0.413,1.271,0.102
43.23,0.134,0.521,0.014
43.24,-0.531,0.912,-0.198
43.25,0.058,1.325,0.125
43.26,-0.252,0.851,0.064
43.27,-0.032,1.065,-0.053
43.28,-0.443,0.316,-0.121
43.29,0.019,2.0,0.19
43.3,-0.136,0.673,0.077
43.31,-0.098,1.027,-0.013
43.32,-0.463,0.515,-0.168
43.33,-0.017,1.651,0.234
43.34,-0.355,1.044,0.138
43.35,0.064,0.726,-0.033
43.36,-0.382,0.909,-0.131
43.37,0.013,1.249,0.096
43.38,-0.395,1.177,0.182
43.39,0.1,0.706,-0.113
43.4,-0.461,0.847,-0.13
43.41,0.202,1.722,0.178
43.42,-0.167,1.094,0.124
43.43,-0.018,0.866,-0.11
43.44,-0.467,0.536,-0.143
43.45,-0.079,1.598,0.148
43.46,-0.23,0.728,0.074
43.47,-0.113,1.095,-0.078
43.48,-0.292,0.414,-0.142
43.49,-0.094,1.426,0.193
43.5,-0.278,0.868,0.028
43.51,-0.158,0.766,-0.125
43.52,-0.374,0.851,-0.156
43.53,0.076,1.192,0.206
43.54,-0.064,1.415,0.037
43.55,-0.046,0.472,-0.177
43.56,-0.307,0.985,-0.12
43.57,-0.1,1.197,0.217
43.58,-0.305,1.117,0.012
43.59,-0.134,0.795,-0.067
43.6,-0.301,0.469,-0.115
43.61,-0.067,1.525,0.198
43.62,-0.193,0.639,0.095
43.63,-0.456,1.078,-0.112
43.64,-0.266,0.387,-0.087
43.65,-0.255,1.309,0.204
43.66,0.021,1.121,0.018
43.67,-0.261,0.575,-0.142
43.68,-0.272,0.94,-0.078
43.69,-0.007,1.009,0.176
43.7,-0.401,1.227,0.033
43.71,-0.166,0.331,-0.089
43.72,-0.307,1.683,-0.085
43.73,0.101,0.786,0.222
43.74,-0.132,0.963,0.077
43.75,-0.474,0.621,-0.19
43.76,-0.43,0.709,-0.027
43.77,-0.17,0.951,0.113
43.78,-0.101,0.839,0.027
43.79,-0.479,0.802,-0.14
43.8,-0.256,0.737,-0.022
43.81,-0.108,1.15,0.202
43.82,-0.125,0.629,0.031
43.83,-0.448,0.692,-0.169
43.84,-0.234,1.669,-0.106
43.85,0.029,0.737,0.125
43.86,-0.073,0.966,0.026
43.87,-0.358,0.525,-0.256
43.88,-0.463,1.309,-0.023
43.89,-0.036,0.428,0.094
43.9,-0.234,1.174,0.024
43.91,-0.374,0.421,-0.226
43.92,-0.293,1.425,-0.035
43.93,-0.135,0.859,0.16
43.94,-0.031,0.633,0.032
43.95,-0.461,0.844,-0.171
43.96,-0.242,1.522,-0.092
43.97,-0.055,1.087,0.072
43.98,0.081,0.505,0.052
43.99,-0.464,0.928,-0.246
44.0,-0.29,1.367,0.007
44.01,-0.275,0.455,0.137
44.02,-0.155,1.124,0.03
44.03,-0.352,0.2,-0.22
44.04,-0.341,2.0,0.049
44.05,-0.091,0.49,0.172
44.06,-0.149,0.981,0.113
44.07,-0.296,0.403,-0.19
44.08,-0.385,1.924,-0.027
44.09,-0.088,0.906,0.054
44.1,0.081,0.548,0.078
44.11,-0.512,0.976,-0.224
44.12,-0.186,1.542,0.048
44.13,-0.286,0.777,0.114
44.14,-0.046,0.655,0.101
44.15,-0.548,0.771,-0.179
44.16,-0.227,1.83,0.047
44.17,-0.146,0.668,0.113
44.18,-0.061,0.862,0.092
44.19,-0.384,0.349,-0.199
44.2,-0.309,2.0,0.09
44.21,-0.061,0.596,0.113
44.22,-0.049,0.987,0.079
44.23,-0.409,0.477,-0.226
44.24,-0.168,2.0,0.099
44.25,-0.261,0.688,-0.003
44.26,0.077,0.655,0.082
44.27,-0.612,0.923,-0.213
44.28,-0.071,1.477,0.177
44.29,-0.274,1.235,0.064
44.3,0.114,0.546,0.088
44.31,-0.501,0.815,-0.182
44.32,-0.003,1.897,0.072
44.33,-0.215,0.734,0.074
44.34,0.074,0.957,-0.01
44.35,-0.484,0.388,-0.243
44.36,-0.036,2.0,0.214
44.37,-0.225,0.57,0.038
44.38,0.001,0.945,0.008
44.39,-0.422,0.555,-0.213
44.4,-0.058,1.842,0.102
44.41,-0.209,1.002,0.092
44.42,0.158,0.64,-0.019
44.43,-0.558,0.971,-0.233
44.44,0.148,1.444,0.121
44.45,-0.318,1.171,0.079
44.46,0.124,0.668,0.016
44.47,-0.595,0.879,-0.205
44.48,0.103,1.889,0.128
44.49,-0.259,0.91,0.119
44.5,-0.018,1.006,-0.009
44.51,-0.497,0.411,-0.189
44.52,0.03,1.623,0.145
44.53,-0.139,0.734,0.097
44.54,-0.074,1.153,-0.066
44.55,-0.371,0.338,-0.157
44.56,-0.099,1.622,0.149
44.57,-0.172,0.824,0.081
44.58,-0.104,0.957,-0.04
44.59,-0.368,0.749,-0.152
44.6,-0.012,1.265,0.233
44.61,-0.152,1.341,0.055
44.62,0.024,0.469,-0.116
44.63,-0.383,1.062,-0.131
44.64,-0.018,1.135,0.155
44.65,-0.338,1.131,0.015
44.66,-0.099,0.747,-0.075
44.67,-0.352,0.57,-0.117
44.68,-0.117,1.48,0.152
44.69,-0.121,0.706,0.043
44.7,-0.294,1.07,-0.153
44.71,-0.258,0.278,-0.094
44.72,-0.126,1.526,0.099
44.73,-0.038,0.976,0.054
44.74,-0.171,0.75,-0.161
44.75,-0.301,0.792,-0.091
44.76,-0.074,1.043,0.207
44.77,-0.307,1.213,-0.009
44.78,-0.158,0.389,-0.149
44.79,-0.419,1.0,-0.071
44.8,0.048,0.955,0.184
44.81,-0.24,1.181,0.038
44.82,-0.428,0.624,-0.162
44.83,-0.333,0.534,-0.003
44.84,-0.245,1.202,0.261
44.85,-0.12,0.82,0.036
44.86,-0.344,0.899,-0.133
44.87,-0.297,0.51,-0.086
44.88,-0.046,1.304,0.163
44.89,-0.178,0.723,0.055
44.9,-0.401,0.655,-0.113
44.91,-0.404,1.077,-0.074
44.92,0.0,0.813,0.173
44.93,-0.178,1.124,0.074
44.94,-0.362,0.366,-0.174
44.95,-0.468,1.095,-0.029
44.96,-0.061,0.677,0.111
44.97,-0.249,1.165,0.072
44.98,-0.301,0.46,-0.186
44.99,-0.326,1.246,-0.041
45.0,-0.056,1.02,0.219
45.01,-0.121,0.604,0.064
45.02,-0.455,0.898,-0.171
45.03,-0.301,1.097,-0.005
45.04,-0.134,0.967,0.189
45.05,-0.029,0.712,0.028
45.06,-0.445,0.698,-0.193
45.07,-0.286,1.511,-0.014
45.08,-0.134,0.562,0.127
45.09,-0.175,1.085,0.096
45.1,-0.371,0.252,-0.193
45.11,-0.369,2.0,-0.007
45.12,0.004,0.568,0.104
45.13,-0.054,0.916,0.108
45.14,-0.48,0.594,-0.257
45.15,-0.284,1.893,0.007
45.16,-0.202,0.777,0.039
45.17,0.079,0.607,0.104
45.18,-0.559,0.882,-0.24
45.19,-0.134,1.655,0.03
45.2,-0.3,0.914,0.051
45.21,0.124,0.62,0.127
45.22,-0.51,0.646,-0.23
45.23,-0.14,1.926,0.108
45.24,-0.059,0.69,0.076
45.25,0.046,0.957,0.049
45.26,-0.401,0.334,-0.224
45.27,-0.22,2.0,0.045
45.28,-0.168,0.425,0.044
45.29,-0.008,0.96,0.057
45.3,-0.534,0.526,-0.224
45.31,-0.102,2.0,0.109
45.32,-0.328,0.888,0.015
45.33,0.141,0.698,-0.022
45.34,-0.476,0.898,-0.242
45.35,-0.002,1.344,0.125
45.36,-0.205,1.113,0.016
45.37,0.172,0.6,-0.056
45.38,-0.534,0.958,-0.178
45.39,0.122,1.552,0.192
45.4,-0.26,0.952,0.067
45.41,0.059,0.936,-0.065
45.42,-0.433,0.522,-0.199
45.43,0.049,1.983,0.16
45.44,-0.209,0.727,0.075
45.45,-0.085,1.048,0.016
45.46,-0.379,0.381,-0.181
45.47,-0.078,1.712,0.2
45.48,-0.23,0.818,0.062
45.49,-0.076,0.92,-0.036
45.5,-0.369,0.806,-0.134
45.51,0.049,1.617,0.231
45.52,-0.305,1.335,0.09
45.53,-0.006,0.562,-0.033
45.54,-0.502,0.999,-0.122
45.55,0.05,1.283,0.195
45.56,-0.278,1.073,0.012
45.57,0.033,0.811,-0.1
45.58,-0.361,0.559,-0.149
45.59,-0.091,1.562,0.084
45.6,-0.205,0.619,0.042
45.61,-0.226,1.144,-0.12
45.62,-0.275,0.287,-0.12
45.63,-0.027,1.555,0.131
45.64,-0.113,0.97,0.119
45.65,-0.085,0.768,-0.104
45.66,-0.373,0.853,-0.13
45.67,0.058,1.174,0.135
45.68,-0.29,1.321,0.02
45.69,0.07,0.486,-0.154
45.7,-0.379,1.03,-0.116
45.71,0.101,1.082,0.178
45.72,-0.313,1.079,0.05
45.73,-0.28,0.746,-0.132
45.74,-0.31,0.444,-0.094
45.75,-0.139,1.5,0.131
45.76,0.002,0.902,0.07
45.77,-0.254,1.028,-0.159
45.78,-0.225,0.397,-0.057
45.79,-0.177,1.318,0.234
45.8,-0.307,0.979,-0.001
45.81,-0.175,0.598,-0.092
45.82,-0.291,1.026,-0.103
45.83,0.091,1.06,0.135
45.84,-0.293,1.062,0.082
45.85,-0.362,0.506,-0.17
45.86,-0.48,0.989,-0.037
45.87,-0.185,0.735,0.216
45.88,-0.21,1.3,0.091
45.89,-0.281,0.577,-0.146
45.9,-0.199,0.895,-0.006
45.91,-0.061,1.221,0.173
45.92,-0.171,0.505,0.044
45.93,-0.361,0.891,-0.108
45.94,-0.232,1.153,-0.072
45.95,-0.042,1.073,0.192
45.96,-0.005,0.656,0.068
45.97,-0.519,0.84,-0.222
45.98,-0.406,0.915,-0.026
45.99,-0.176,0.527,0.095
46.0,-0.345,1.315,0.074
46.01,-0.207,0.16,-0.183
46.02,-0.262,2.0,-0.066
46.03,0.127,0.758,0.062
46.04,-0.095,0.765,0.06
46.05,-0.47,0.674,-0.196
46.06,-0.273,1.822,-0.06
46.07,-0.153,0.915,0.046
46.08,0.118,0.531,0.067
46.09,-0.613,1.052,-0.259
46.1,-0.134,1.423,0.133
46.11,-0.378,0.718,0.154
46.12,-0.049,0.751,0.074
46.13,-0.531,0.836,-0.239
46.14,-0.015,1.678,0.054
46.15,-0.131,0.964,0.062
46.16,0.102,0.915,0.052
46.17,-0.405,0.383,-0.229
46.18,-0.005,2.0,0.141
46.19,-0.176,0.569,0.098
46.2,0.022,1.053,0.022
46.21,-0.45,0.439,-0.247
46.22,-0.049,2.0,0.211
46.23,-0.362,0.791,0.075
46.24,0.084,0.665,-0.023
46.25,-0.564,0.885,-0.189
46.26,0.056,1.28,0.131
46.27,-0.265,1.228,0.041
46.28,0.161,0.611,0.004
46.29,-0.563,0.918,-0.189
46.3,0.12,1.531,0.175
46.31,-0.246,0.91,0.091
46.32,-0.024,1.0,-0.042
46.33,-0.505,0.445,-0.157
46.34,-0.018,1.885,0.213
46.35,-0.17,0.733,0.078
46.36,-0.097,1.102,-0.022
46.37,-0.411,0.433,-0.169
46.38,-0.089,1.513,0.126
46.39,-0.214,0.958,0.077
46.4,-0.036,0.752,-0.076
46.41,-0.456,0.881,-0.164
46.42,0.067,1.275,0.126
46.43,-0.272,1.14,0.087
46.44,-0.008,0.627,-0.096
46.45,-0.458,0.868,-0.142
46.46,0.023,1.274,0.114
46.47,-0.274,1.054,0.081
46.48,-0.119,0.895,-0.145
46.49,-0.349,0.414,-0.092
46.5,-0.111,1.542,0.149
46.51,-0.157,0.736,0.084
46.52,-0.264,1.022,-0.137
46.53,-0.383,0.442,-0.073
46.54,-0.143,1.328,0.254
46.55,-0.261,0.977,0.1
46.56,-0.274,0.656,-0.118
46.57,-0.425,0.865,-0.098
46.58,-0.104,0.901,0.287
46.59,-0.28,1.39,0.068
46.6,-0.29,0.361,-0.145
46.61,-0.325,0.888,-0.105
46.62,-0.086,1.096,0.18
46.63,-0.258,1.012,0.059
46.64,-0.276,0.692,-0.086
46.65,-0.42,0.497,-0.047
46.66,-0.062,1.379,0.169
46.67,-0.191,0.72,0.122
46.68,-0.528,0.922,-0.086
46.69,-0.357,0.438,-0.045
46.7,-0.167,1.113,0.195
46.71,-0.182,1.051,0.043
46.72,-0.411,0.505,-0.11
46.73,-0.329,1.066,-0.031
46.74,0.026,0.79,0.144
46.75,-0.249,1.222,-0.0
46.76,-0.34,0.242,-0.191
46.77,-0.25,1.628,-0.088
46.78,0.051,0.716,0.154
46.79,-0.109,0.82,0.043
46.8,-0.444,0.746,-0.235
46.81,-0.314,1.007,-0.007
46.82,-0.134,0.953,0.172
46.83,-0.106,0.64,0.097
46.84,-0.532,0.861,-0.208
46.85,-0.178,1.356,-0.001
46.86,-0.202,0.897,0.166
46.87,-0.02,0.724,0.106
46.88,-0.34,0.568,-0.199
46.89,-0.358,1.986,-0.036
46.9,-0.02,0.427,0.117
46.91,-0.117,1.152,0.086
46.92,-0.385,0.243,-0.24
46.93,-0.378,1.773,0.007
46.94,-0.231,0.415,0.038
46.95,-0.094,1.003,0.075
46.96,-0.416,0.39,-0.185
46.97,-0.316,1.924,0.099
46.98,-0.15,0.866,0.014
46.99,0.119,0.589,0.057
47.0,-0.526,0.834,-0.202
47.01,0.044,1.648,0.088
47.02,-0.274,1.117,0.04
47.03,0.146,0.585,0.048
47.04,-0.551,0.844,-0.239
47.05,0.103,2.0,0.088
47.06,-0.307,0.639,0.007
47.07,0.063,0.943,0.04
47.08,-0.581,0.394,-0.181
47.09,-0.132,1.925,0.133
47.1,-0.173,0.723,0.156
47.11,-0.018,1.073,0.034
47.12,-0.542,0.443,-0.155
47.13,-0.055,1.658,0.188
47.14,-0.302,0.945,0.125
47.15,0.073,0.762,0.027
47.16,-0.591,0.928,-0.19
47.17,0.171,1.757,0.188
47.18,-0.337,1.24,0.041
47.19,0.113,0.537,-0.006
47.2,-0.501,0.951,-0.267
47.21,0.144,1.519,0.145
47.22,-0.23,0.893,0.042
47.23,0.007,1.068,-0.043
47.24,-0.372,0.379,-0.163
47.25,-0.004,1.94,0.17
47.26,-0.168,0.73,0.073
47.27,-0.11,1.145,-0.036
47.28,-0.365,0.466,-0.162
47.29,0.021,1.737,0.172
47.3,-0.185,1.068,0.01
47.31,0.092,0.701,-0.058
47.32,-0.468,0.979,-0.163
47.33,0.026,1.156,0.106
47.34,-0.383,1.237,0.097
47.35,0.072,0.678,-0.017
47.36,-0.423,0.813,-0.131
47.37,-0.014,1.33,0.15
47.38,-0.17,0.91,0.1
47.39,-0.116,0.955,-0.166
47.4,-0.285,0.393,-0.117
47.41,-0.086,1.558,0.106
47.42,-0.166,0.788,0.049
47.43,-0.148,0.983,-0.103
47.44,-0.299,0.489,-0.068
47.45,-0.157,1.332,0.175
47.46,-0.219,1.058,0.023
47.47,-0.161,0.614,-0.151
47.48,-0.376,0.963,-0.08
47.49,-0.135,0.97,0.291
47.5,-0.311,1.306,0.078
47.51,-0.221,0.411,-0.097
47.52,-0.35,0.952,-0.079
47.53,-0.055,1.184,0.187
47.54,-0.251,0.865,0.059
47.55,-0.366,0.791,-0.088
47.56,-0.323,0.381,-0.076
47.57,-0.096,1.387,0.142
47.58,-0.047,0.752,0.008
47.59,-0.44,0.908,-0.166
47.6,-0.264,0.479,-0.111
47.61,-0.125,1.138,0.157
47.62,-0.152,1.081,0.04
47.63,-0.391,0.36,-0.137
47.64,-0.367,1.212,-0.033
47.65,0.02,0.776,0.177
47.66,-0.294,1.201,0.058
47.67,-0.305,0.296,-0.141
47.68,-0.409,1.259,-0.059
47.69,-0.002,0.809,0.178
47.7,-0.169,0.864,0.058
47.71,-0.505,0.769,-0.17
47.72,-0.255,0.878,-0.042
47.73,-0.154,1.011,0.105
47.74,-0.009,0.647,0.072
47.75,-0.511,0.842,-0.243
47.76,-0.253,1.589,0.038
47.77,-0.143,1.038,0.1
47.78,0.02,0.576,0.137
47.79,-0.541,0.783,-0.157
47.8,-0.303,1.954,0.069
47.81,-0.108,0.569,0.092
47.82,0.009,0.963,0.059
47.83,-0.41,0.41,-0.252
47.84,-0.241,2.0,0.099
47.85,-0.163,0.549,0.076
47.86,0.007,0.982,0.06
47.87,-0.416,0.448,-0.244
47.88,-0.099,1.988,0.098
47.89,-0.239,0.937,0.069
47.9,0.186,0.525,0.063
47.91,-0.589,0.987,-0.265
47.92,-0.019,1.757,0.14
47.93,-0.361,0.949,0.01
47.94,0.144,0.604,0.06
47.95,-0.557,0.807,-0.234
47.96,0.002,1.906,0.102
47.97,-0.22,0.752,0.079
47.98,0.031,1.023,0.019
47.99,-0.448,0.305,-0.182
48.0,-0.014,2.0,0.093
48.01,-0.156,0.621,0.064
48.02,-0.016,0.965,0.015
48.03,-0.51,0.554,-0.23
48.04,0.031,1.978,0.16
48.05,-0.314,1.082,0.054
48.06,0.179,0.578,-0.015
48.07,-0.527,1.041,-0.24
48.08,0.147,1.514,0.098
48.09,-0.309,1.195,0.085
48.1,0.13,0.685,-0.047
48.11,-0.55,0.795,-0.192
48.12,0.12,1.846,0.059
48.13,-0.146,0.799,0.041
48.14,-0.02,1.018,-0.02
48.15,-0.46,0.384,-0.22
48.16,-0.084,1.762,0.206
48.17,-0.154,0.672,0.079
48.18,-0.074,1.056,-0.019
48.19,-0.412,0.554,-0.22
48.2,0.013,1.468,0.11
48.21,-0.237,1.029,0.072
48.22,0.074,0.716,-0.088
48.23,-0.537,1.003,-0.188
48.24,0.111,1.266,0.206
48.25,-0.313,1.232,0.113
48.26,0.02,0.668,-0.016
48.27,-0.5,0.844,-0.136
48.28,0.048,1.492,0.198
48.29,-0.181,0.889,0.098
48.3,-0.136,1.056,-0.053
48.31,-0.404,0.415,-0.122
48.32,-0.074,1.749,0.141
48.33,-0.145,0.72,0.116
48.34,-0.094,1.06,-0.081
48.35,-0.434,0.571,-0.158
48.36,-0.022,1.367,0.144
48.37,-0.251,1.084,0.037
48.38,-0.065,0.581,-0.11
48.39,-0.389,1.025,-0.113
48.4,0.032,1.14,0.134
48.41,-0.258,1.289,0.048
48.42,-0.04,0.577,-0.173
48.43,-0.348,0.83,-0.12
48.44,-0.015,1.324,0.146
48.45,-0.158,0.959,0.039
48.46,-0.224,0.967,-0.129
48.47,-0.266,0.364,-0.072
48.48,-0.233,1.484,0.231
48.49,-0.153,0.768,0.067
48.5,-0.346,0.907,-0.152
48.51,-0.255,0.572,-0.14
48.52,-0.144,1.198,0.211
48.53,-0.218,1.13,0.01
48.54,-0.433,0.577,-0.164
48.55,-0.301,0.917,-0.059
48.56,-0.058,0.876,0.139
48.57,-0.211,1.26,0.04
48.58,-0.351,0.306,-0.182
48.59,-0.353,1.139,-0.079
48.6,0.023,0.767,0.126
48.61,-0.213,1.097,0.04
48.62,-0.405,0.536,-0.19
48.63,-0.309,0.781,-0.083
48.64,-0.08,1.089,0.129
48.65,-0.131,0.684,0.06
48.66,-0.482,0.865,-0.194
48.67,-0.253,1.103,-0.067
48.68,-0.074,0.968,0.135
48.69,-0.06,0.692,0.057
48.7,-0.433,0.682,-0.182
48.71,-0.297,1.746,-0.05
48.72,-0.004,0.556,0.154
48.73,-0.154,1.135,0.074
48.74,-0.35,0.354,-0.26
48.75,-0.36,1.837,0.01
48.76,-0.136,0.46,0.166
48.77,-0.183,0.993,0.103
48.78,-0.299,0.559,-0.226
48.79,-0.311,1.807,-0.018
48.8,-0.078,0.99,0.09
48.81,-0.041,0.494,0.107
48.82,-0.535,0.918,-0.138
48.83,-0.264,1.642,0.049
48.84,-0.234,0.789,0.105
48.85,-0.022,0.768,0.076
48.86,-0.572,0.663,-0.159
48.87,-0.349,1.625,0.105
