t,ax,ay,az
0.0,-0.043,0.503,-0.028
0.01,-0.513,0.831,-0.144
0.02,-0.018,1.51,0.149
0.03,-0.154,1.271,0.04
0.04,-0.016,0.455,-0.047
0.05,-0.285,0.79,-0.212
0.06,-0.149,1.417,0.109
0.07,-0.213,1.095,0.02
0.08,-0.155,0.879,-0.162
0.09,-0.335,0.302,0.001
0.1,-0.259,1.697,0.257
0.11,-0.192,0.824,0.065
0.12,-0.239,1.084,-0.103
0.13,-0.397,0.267,-0.063
0.14,-0.027,1.309,0.157
0.15,-0.291,1.141,-0.041
0.16,-0.125,0.563,-0.152
0.17,-0.312,1.335,-0.093
0.18,0.025,0.788,0.154
0.19,-0.416,1.248,-0.02
0.2,-0.243,0.376,-0.167
0.21,-0.416,1.522,-0.016
0.22,-0.053,0.77,0.116
0.23,-0.217,1.012,-0.027
0.24,-0.315,0.748,-0.226
0.25,-0.242,1.434,0.064
0.26,-0.259,0.987,0.166
0.27,-0.05,0.614,0.07
0.28,-0.45,0.895,-0.217
0.29,0.073,1.479,0.039
0.3,-0.155,1.06,0.11
0.31,0.031,0.648,0.003
0.32,-0.545,0.49,-0.17
0.33,-0.047,1.943,0.15
0.34,-0.145,0.61,0.108
0.35,-0.101,0.973,-0.052
0.36,-0.44,0.21,-0.177
0.37,-0.164,2.0,0.177
0.38,-0.082,0.681,0.097
0.39,-0.136,0.731,-0.057
0.4,-0.365,0.604,-0.198
0.41,-0.117,1.59,0.095
0.42,-0.213,1.222,0.083
0.43,0.036,0.467,-0.029
0.44,-0.485,0.93,-0.112
0.45,-0.095,1.389,0.219
0.46,-0.309,1.281,0.061
0.47,-0.074,0.677,-0.073
0.48,-0.384,0.519,-0.132
0.49,-0.188,1.565,0.199
0.5,-0.226,0.97,0.039
0.51,-0.263,0.981,-0.082
0.52,-0.31,0.204,-0.002
0.53,-0.193,1.443,0.182
0.54,-0.257,0.892,0.012
0.55,-0.251,0.899,-0.142
0.56,-0.262,0.964,-0.06
0.57,-0.096,0.999,0.151
0.58,-0.23,0.9,-0.02
0.59,-0.346,0.58,-0.168
0.6,-0.322,1.752,0.081
0.61,-0.108,0.573,0.196
0.62,-0.312,1.158,0.008
0.63,-0.293,0.284,-0.197
0.64,-0.257,1.927,0.1
0.65,0.04,0.714,0.127
0.66,-0.143,0.712,-0.035
0.67,-0.449,0.626,-0.21
0.68,-0.108,1.622,0.11
0.69,-0.16,1.049,0.117
0.7,-0.038,0.426,-0.003
0.71,-0.568,0.882,-0.161
0.72,-0.042,1.547,0.208
0.73,-0.186,1.087,0.079
0.74,0.012,0.608,-0.081
0.75,-0.441,0.549,-0.149
0.76,-0.075,1.955,0.092
0.77,0.004,0.693,0.054
0.78,-0.089,1.084,-0.083
0.79,-0.315,0.113,-0.139
0.8,-0.159,1.843,0.119
0.81,-0.142,0.889,0.008
0.82,-0.13,0.878,-0.117
0.83,-0.325,0.554,-0.193
0.84,-0.181,1.266,0.208
0.85,-0.311,1.35,0.025
0.86,-0.064,0.425,-0.089
0.87,-0.44,0.97,-0.041
0.88,0.012,0.887,0.18
0.89,-0.387,1.32,-0.012
0.9,-0.167,0.632,-0.142
0.91,-0.256,1.011,-0.048
0.92,-0.112,1.042,0.14
0.93,-0.178,0.727,-0.014
0.94,-0.454,1.01,-0.164
0.95,-0.138,1.13,0.046
0.96,-0.282,1.082,0.155
0.97,-0.143,0.688,0.016
0.98,-0.407,0.84,-0.144
0.99,-0.2,1.648,0.086
1.0,-0.151,0.654,0.118
1.01,-0.146,1.027,-0.004
1.02,-0.409,0.213,-0.222
1.03,-0.174,2.0,0.131
1.04,-0.054,0.6,0.074
1.05,-0.183,0.922,-0.022
1.06,-0.521,0.32,-0.177
1.07,-0.048,1.865,0.121
1.08,-0.12,0.92,0.088
1.09,-0.287,0.761,-0.003
1.1,-0.032,0.915,0.18
1.11,-0.252,1.348,-0.023
1.12,-0.159,0.398,-0.177
1.13,-0.258,1.791,0.01
1.14,-0.108,0.551,0.165
1.15,-0.252,1.059,-0.036
1.16,-0.349,0.495,-0.208
1.17,-0.21,1.734,0.023
1.18,-0.215,0.912,0.072
1.19,-0.085,0.55,-0.073
1.2,-0.591,0.93,-0.153
1.21,-0.029,1.636,0.117
1.22,-0.262,1.061,0.119
1.23,-0.01,0.375,-0.031
1.24,-0.557,0.88,-0.167
1.25,-0.011,1.58,0.127
1.26,-0.032,1.113,0.012
1.27,0.016,0.738,-0.067
1.28,-0.357,0.375,-0.127
1.29,-0.159,1.88,0.123
1.3,-0.059,0.788,0.056
1.31,-0.159,1.112,-0.076
1.32,-0.378,0.158,-0.05
1.33,-0.271,1.709,0.187
1.34,-0.231,0.948,0.05
1.35,-0.102,0.755,-0.142
1.36,-0.336,0.676,-0.087
1.37,-0.055,1.019,0.131
1.38,-0.387,1.338,-0.028
1.39,-0.116,0.402,-0.074
1.4,-0.332,1.186,0.031
1.41,-0.012,0.811,0.174
1.42,-0.34,1.144,-0.032
1.43,-0.213,0.699,-0.08
1.44,-0.319,1.164,-0.001
1.45,-0.143,1.021,0.166
1.46,-0.181,0.673,-0.054
1.47,-0.407,0.958,-0.155
1.48,-0.171,1.364,0.061
1.49,-0.112,1.026,0.102
1.5,-0.198,0.682,0.011
1.51,-0.422,0.713,-0.186
1.52,-0.036,1.787,0.045
1.53,-0.008,0.717,0.106
1.54,-0.099,0.927,-0.073
1.55,-0.516,0.194,-0.203
1.56,-0.13,2.0,0.177
1.57,-0.121,0.612,0.074
1.58,-0.11,0.863,-0.046
1.59,-0.463,0.386,-0.152
1.6,-0.108,1.752,0.177
1.61,-0.144,1.104,0.055
1.62,0.07,0.517,-0.063
1.63,-0.456,0.88,-0.142
1.64,-0.1,1.385,0.145
1.65,-0.272,1.298,0.054
1.66,-0.008,0.588,-0.121
1.67,-0.452,0.647,-0.111
1.68,-0.128,1.397,0.204
1.69,-0.259,1.057,0.042
1.7,-0.234,0.878,-0.09
1.71,-0.389,0.247,-0.015
1.72,-0.141,1.438,0.186
1.73,-0.209,0.778,-0.014
1.74,-0.335,0.981,-0.149
1.75,-0.196,0.81,-0.015
1.76,-0.061,1.049,0.194
1.77,-0.217,1.065,-0.031
1.78,-0.264,0.561,-0.168
1.79,-0.225,1.646,-0.028
1.8,-0.01,0.628,0.167
1.81,-0.28,1.24,-0.036
1.82,-0.285,0.421,-0.202
1.83,-0.258,1.753,-0.045
1.84,-0.113,0.764,0.094
1.85,-0.142,0.754,-0.011
1.86,-0.485,0.793,-0.213
1.87,-0.042,1.512,0.063
1.88,-0.181,1.111,0.158
1.89,-0.005,0.441,0.016
1.9,-0.597,0.847,-0.198
1.91,0.039,1.629,0.053
1.92,-0.12,0.95,0.101
1.93,0.009,0.72,-0.075
1.94,-0.542,0.352,-0.154
1.95,-0.06,2.0,0.113
1.96,-0.111,0.636,0.15
1.97,-0.087,1.008,-0.024
1.98,-0.438,0.215,-0.128
1.99,-0.123,1.905,0.114
2.0,-0.118,0.893,0.043
2.01,-0.049,0.805,-0.059
2.02,-0.298,0.448,-0.131
2.03,-0.149,1.537,0.165
2.04,-0.253,1.189,0.01
2.05,-0.046,0.539,-0.118
2.06,-0.444,0.847,-0.074
2.07,-0.056,1.018,0.18
2.08,-0.391,1.517,-0.035
2.09,-0.13,0.46,-0.106
2.1,-0.364,0.881,-0.028
2.11,-0.003,1.071,0.191
2.12,-0.245,0.884,-0.028
2.13,-0.358,1.017,-0.145
2.14,-0.258,0.793,-0.002
2.15,-0.043,1.195,0.12
2.16,-0.139,0.725,-0.051
2.17,-0.358,0.913,-0.187
2.18,-0.266,1.257,-0.024
2.19,-0.079,0.876,0.124
2.2,-0.277,1.075,-0.03
2.21,-0.31,0.437,-0.185
2.22,-0.274,1.879,0.125
2.23,0.038,0.614,0.156
2.24,-0.284,1.003,0.033
2.25,-0.477,0.275,-0.149
2.26,-0.229,1.993,0.099
2.27,-0.187,0.769,0.162
2.28,-0.054,0.644,-0.003
2.29,-0.573,0.765,-0.194
2.3,0.016,1.543,0.134
2.31,-0.199,1.161,0.084
2.32,0.065,0.4,-0.008
2.33,-0.533,0.869,-0.148
2.34,-0.063,1.59,0.153
2.35,-0.017,1.035,0.098
2.36,-0.048,0.773,-0.099
2.37,-0.474,0.338,-0.125
2.38,-0.124,1.958,0.191
2.39,-0.138,0.67,0.129
2.4,-0.137,1.048,-0.077
2.41,-0.386,0.237,-0.13
2.42,-0.277,1.74,0.151
2.43,-0.237,0.968,0.062
2.44,-0.032,0.669,-0.105
2.45,-0.386,0.73,-0.088
2.46,-0.035,1.015,0.157
2.47,-0.457,1.308,-0.011
2.48,-0.065,0.525,-0.094
2.49,-0.427,0.898,-0.041
2.5,-0.039,1.028,0.223
2.51,-0.311,1.249,-0.004
2.52,-0.233,0.713,-0.162
2.53,-0.261,0.618,-0.04
2.54,-0.127,1.25,0.129
2.55,-0.189,0.808,-0.05
2.56,-0.292,0.993,-0.17
2.57,-0.133,1.219,-0.032
2.58,-0.1,1.081,0.121
2.59,-0.148,0.69,-0.012
2.6,-0.425,0.763,-0.247
2.61,-0.2,1.739,-0.007
2.62,-0.195,0.631,0.145
2.63,-0.195,1.148,0.016
2.64,-0.449,0.224,-0.207
2.65,-0.26,1.996,0.114
2.66,-0.172,0.536,0.082
2.67,-0.163,0.924,0.009
2.68,-0.432,0.463,-0.205
2.69,-0.044,1.693,0.08
2.7,-0.036,1.137,0.115
2.71,0.077,0.388,-0.018
2.72,-0.488,0.9,-0.175
2.73,-0.008,1.558,0.117
2.74,-0.169,1.099,0.042
2.75,-0.048,0.574,-0.062
2.76,-0.474,0.64,-0.188
2.77,-0.085,1.821,0.158
2.78,-0.062,0.806,0.087
2.79,-0.061,0.906,-0.049
2.8,-0.292,0.198,-0.144
2.81,-0.312,1.888,0.185
2.82,-0.143,0.819,0.015
2.83,-0.175,1.116,-0.127
2.84,-0.317,0.225,-0.104
2.85,-0.188,1.523,0.241
2.86,-0.277,0.987,0.002
2.87,-0.116,0.768,-0.156
2.88,-0.444,0.779,-0.062
2.89,0.014,0.916,0.178
2.9,-0.414,1.464,-0.036
2.91,-0.063,0.31,-0.113
2.92,-0.317,1.542,-0.039
2.93,0.081,0.845,0.14
2.94,-0.23,1.013,-0.041
2.95,-0.341,0.76,-0.207
2.96,-0.195,1.01,-0.006
2.97,-0.125,1.1,0.128
2.98,-0.052,0.756,0.014
2.99,-0.39,0.973,-0.213
3.0,-0.074,1.349,0.023
3.01,-0.257,0.944,0.126
3.02,-0.121,0.717,0.023
3.03,-0.405,0.571,-0.14
3.04,-0.111,1.871,0.094
3.05,-0.105,0.676,0.166
3.06,-0.073,1.021,0.028
3.07,-0.51,0.175,-0.176
3.08,-0.144,2.0,0.094
3.09,-0.252,0.546,0.116
3.1,-0.095,0.961,0.012
3.11,-0.638,0.485,-0.161
3.12,-0.13,1.744,0.272
3.13,-0.265,1.107,0.146
3.14,0.031,0.391,-0.06
3.15,-0.461,0.911,-0.163
3.16,-0.017,1.511,0.127
3.17,-0.079,1.23,-0.028
3.18,0.025,0.583,-0.09
3.19,-0.386,0.628,-0.168
3.2,-0.073,1.733,0.123
3.21,-0.098,0.855,0.046
3.22,-0.087,1.034,-0.108
3.23,-0.398,0.205,-0.089
3.24,-0.243,1.771,0.224
3.25,-0.155,0.875,0.07
3.26,-0.218,0.809,-0.104
3.27,-0.342,0.493,-0.078
3.28,-0.149,1.246,0.161
3.29,-0.309,1.228,0.009
3.3,-0.099,0.537,-0.127
3.31,-0.473,0.982,-0.03
3.32,0.052,0.879,0.231
3.33,-0.316,1.419,0.024
3.34,-0.209,0.464,-0.131
3.35,-0.325,0.802,-0.104
3.36,0.036,1.091,0.106
3.37,-0.25,1.014,-0.061
3.38,-0.256,0.835,-0.141
3.39,-0.219,0.956,-0.013
3.4,-0.131,1.125,0.145
3.41,-0.132,0.733,-0.029
3.42,-0.382,0.94,-0.186
3.43,-0.171,1.457,0.04
3.44,-0.134,0.831,0.155
3.45,-0.223,0.915,-0.017
3.46,-0.308,0.424,-0.21
3.47,-0.235,1.948,0.079
3.48,0.002,0.557,0.094
3.49,-0.233,1.033,-0.016
3.5,-0.402,0.223,-0.233
3.51,-0.079,1.936,0.032
3.52,0.007,0.83,0.072
3.53,-0.095,0.556,-0.061
3.54,-0.48,0.766,-0.217
3.55,-0.046,1.552,0.144
3.56,-0.173,1.186,0.085
3.57,0.076,0.41,-0.069
3.58,-0.501,0.873,-0.23
3.59,-0.016,1.606,0.167
3.6,-0.094,0.963,0.077
3.61,-0.044,0.78,-0.048
3.62,-0.469,0.368,-0.145
3.63,-0.21,1.469,0.165
3.64,-0.191,0.902,0.034
3.65,-0.153,1.035,-0.148
3.66,-0.31,0.224,-0.074
3.67,-0.246,1.56,0.224
3.68,-0.191,0.838,0.07
3.69,-0.211,0.925,-0.053
3.7,-0.341,0.571,-0.083
3.71,-0.06,1.042,0.165
3.72,-0.251,1.249,-0.06
3.73,-0.129,0.434,-0.201
3.74,-0.218,1.261,-0.135
3.75,0.05,0.794,0.139
3.76,-0.25,1.215,-0.028
3.77,-0.247,0.578,-0.165
3.78,-0.324,1.121,0.002
3.79,-0.039,0.981,0.155
3.8,-0.138,0.852,-0.069
3.81,-0.374,0.871,-0.171
3.82,-0.187,1.258,0.036
3.83,-0.178,1.097,0.177
3.84,-0.141,0.656,0.001
3.85,-0.347,0.916,-0.186
3.86,-0.091,1.552,0.069
3.87,0.001,0.947,0.175
3.88,-0.172,0.789,-0.043
3.89,-0.379,0.382,-0.19
3.9,-0.337,2.0,0.086
3.91,-0.083,0.508,0.142
3.92,-0.328,1.044,-0.001
3.93,-0.447,0.238,-0.187
3.94,-0.147,1.948,0.054
3.95,-0.07,0.821,0.076
3.96,-0.014,0.51,-0.042
3.97,-0.521,0.788,-0.199
3.98,-0.046,1.54,0.128
3.99,-0.098,1.249,0.11
4.0,0.002,0.458,-0.048
4.01,-0.453,0.837,-0.171
4.02,-0.068,1.619,0.172
4.03,-0.088,0.933,0.092
4.04,-0.05,0.833,-0.058
4.05,-0.411,0.357,-0.188
4.06,-0.107,1.953,0.128
4.07,-0.061,0.747,0.046
4.08,-0.096,1.01,-0.049
4.09,-0.293,0.233,-0.141
4.1,-0.218,1.593,0.118
4.11,-0.157,0.99,-0.011
4.12,-0.209,0.701,-0.139
4.13,-0.371,0.734,-0.091
4.14,-0.097,1.11,0.217
4.15,-0.347,1.361,0.031
4.16,-0.05,0.464,-0.079
4.17,-0.469,0.912,-0.053
4.18,0.01,0.975,0.182
4.19,-0.358,1.281,-0.027
4.2,-0.173,0.704,-0.097
4.21,-0.244,0.791,-0.038
4.22,-0.066,1.232,0.165
4.23,-0.134,0.707,0.022
4.24,-0.434,1.073,-0.17
4.25,-0.164,0.878,-0.024
4.26,-0.131,1.094,0.168
4.27,-0.208,0.867,-0.015
4.28,-0.359,0.684,-0.165
4.29,-0.218,1.699,0.001
4.3,-0.056,0.631,0.09
4.31,-0.267,1.127,0.012
4.32,-0.345,0.279,-0.191
4.33,-0.344,1.934,0.145
4.34,-0.077,0.636,0.172
4.35,-0.217,0.919,-0.008
4.36,-0.385,0.523,-0.233
4.37,-0.138,1.701,0.02
4.38,-0.15,0.909,0.056
4.39,0.038,0.539,-0.044
4.4,-0.53,0.884,-0.22
4.41,0.078,1.491,0.07
4.42,-0.161,1.058,0.123
4.43,-0.001,0.551,-0.016
4.44,-0.574,0.855,-0.114
4.45,-0.066,1.608,0.158
4.46,-0.101,1.014,0.073
4.47,0.005,0.867,-0.11
4.48,-0.329,0.343,-0.197
4.49,-0.026,1.931,0.118
4.5,-0.032,0.747,-0.028
4.51,-0.127,0.992,-0.049
4.52,-0.326,0.23,-0.108
4.53,-0.169,1.687,0.14
4.54,-0.156,1.029,0.03
4.55,-0.069,0.658,-0.145
4.56,-0.372,0.716,-0.156
4.57,-0.062,1.127,0.225
4.58,-0.283,1.355,0.02
4.59,-0.103,0.461,-0.114
4.6,-0.405,0.875,-0.081
4.61,-0.068,1.047,0.24
4.62,-0.355,1.324,-0.016
4.63,-0.215,0.726,-0.104
4.64,-0.281,0.573,-0.044
4.65,-0.022,1.265,0.161
4.66,-0.15,0.823,-0.025
4.67,-0.3,1.048,-0.137
4.68,-0.183,0.968,-0.071
4.69,-0.123,1.071,0.15
4.7,-0.199,0.841,0.008
4.71,-0.39,0.697,-0.159
4.72,-0.294,1.654,-0.001
4.73,-0.124,0.625,0.197
4.74,-0.287,1.153,0.012
4.75,-0.306,0.274,-0.175
4.76,-0.367,1.929,0.069
4.77,-0.096,0.606,0.141
4.78,-0.169,0.996,0.015
4.79,-0.437,0.556,-0.214
4.8,-0.149,1.649,0.124
4.81,-0.023,1.084,0.133
4.82,-0.025,0.405,0.002
4.83,-0.454,0.949,-0.201
4.84,0.0,1.507,0.044
4.85,-0.143,1.067,0.093
4.86,-0.012,0.597,0.052
4.87,-0.539,0.6,-0.18
4.88,-0.031,1.86,0.146
4.89,-0.149,0.684,0.14
4.9,-0.029,0.958,-0.01
4.91,-0.406,0.245,-0.162
4.92,-0.141,2.0,0.141
4.93,-0.084,0.719,0.105
4.94,-0.097,0.939,-0.037
4.95,-0.389,0.45,-0.16
4.96,-0.033,1.714,0.193
4.97,-0.232,1.099,0.032
4.98,0.0,0.574,-0.067
4.99,-0.408,0.869,-0.167
5.0,-0.037,1.345,0.139
5.01,-0.246,1.391,-0.031
5.02,-0.077,0.52,-0.053
5.03,-0.394,0.64,-0.084
5.04,-0.146,1.34,0.175
5.05,-0.167,0.967,-0.018
5.06,-0.24,1.021,-0.111
5.07,-0.27,0.238,-0.057
5.08,-0.078,1.445,0.192
5.09,-0.236,0.817,0.003
5.1,-0.233,0.976,-0.088
5.11,-0.375,0.643,-0.056
5.12,-0.018,1.003,0.186
5.13,-0.267,1.226,-0.044
5.14,-0.207,0.474,-0.14
5.15,-0.262,1.595,-0.028
5.16,-0.074,0.669,0.162
5.17,-0.291,1.238,-0.008
5.18,-0.282,0.421,-0.158
5.19,-0.223,1.547,-0.017
5.2,-0.089,0.892,0.124
5.21,-0.115,0.8,-0.017
5.22,-0.393,0.912,-0.23
5.23,-0.158,1.336,0.06
5.24,-0.2,0.94,0.085
5.25,0.048,0.551,0.003
5.26,-0.487,0.926,-0.234
5.27,0.005,1.477,0.089
5.28,-0.002,1.11,0.094
5.29,0.05,0.584,-0.018
5.3,-0.52,0.564,-0.192
5.31,0.01,1.887,0.071
5.32,-0.063,0.756,0.048
5.33,0.007,0.961,-0.071
5.34,-0.42,0.209,-0.188
5.35,-0.163,2.0,0.206
5.36,-0.05,0.553,0.09
5.37,-0.071,0.885,-0.075
5.38,-0.503,0.483,-0.197
5.39,-0.08,1.687,0.174
5.4,-0.301,1.143,0.071
5.41,0.055,0.505,-0.004
5.42,-0.451,0.928,-0.158
5.43,-0.036,1.262,0.16
5.44,-0.383,1.321,0.057
5.45,-0.017,0.663,-0.108
5.46,-0.4,0.634,-0.115
5.47,-0.124,1.473,0.171
5.48,-0.142,1.056,0.045
5.49,-0.182,0.934,-0.133
5.5,-0.244,0.207,-0.029
5.51,-0.258,1.613,0.21
5.52,-0.21,0.892,0.03
5.53,-0.182,0.925,-0.094
5.54,-0.337,0.636,0.027
5.55,-0.0,1.032,0.146
5.56,-0.332,1.216,-0.003
5.57,-0.183,0.527,-0.133
5.58,-0.378,1.107,-0.002
5.59,0.017,0.771,0.16
5.6,-0.289,1.394,0.006
5.61,-0.263,0.437,-0.161
5.62,-0.202,1.572,-0.036
5.63,-0.125,0.838,0.134
5.64,-0.192,0.789,-0.001
5.65,-0.387,0.925,-0.145
5.66,-0.156,1.368,0.067
5.67,-0.094,1.146,0.22
5.68,-0.075,0.519,0.052
5.69,-0.554,0.876,-0.205
5.7,-0.158,1.547,0.105
5.71,-0.267,0.802,0.148
5.72,-0.189,0.845,0.041
5.73,-0.469,0.348,-0.125
5.74,-0.205,2.0,0.095
5.75,-0.048,0.534,0.105
5.76,-0.158,0.991,-0.021
5.77,-0.456,0.246,-0.192
5.78,-0.129,1.939,0.098
5.79,-0.065,0.839,0.12
5.8,-0.053,0.677,-0.027
5.81,-0.514,0.749,-0.144
5.82,-0.021,1.558,0.182
5.83,-0.278,1.223,0.13
5.84,0.106,0.57,-0.021
5.85,-0.572,0.859,-0.142
5.86,0.041,1.583,0.234
5.87,-0.152,1.064,0.003
5.88,0.043,0.781,-0.088
5.89,-0.386,0.366,-0.146
5.9,-0.207,1.713,0.137
5.91,-0.121,0.835,0.004
5.92,-0.196,1.038,-0.136
5.93,-0.242,0.195,-0.083
5.94,-0.168,1.487,0.172
5.95,-0.287,0.946,0.022
5.96,-0.114,0.83,-0.13
5.97,-0.407,0.733,-0.04
5.98,-0.124,0.986,0.267
5.99,-0.406,1.509,0.033
6.0,-0.12,0.29,-0.103
6.01,-0.322,1.304,-0.023
6.02,0.009,0.791,0.198
6.03,-0.293,1.193,0.0
6.04,-0.318,0.715,-0.195
6.05,-0.228,1.757,0.002
6.06,-0.05,0.908,0.145
6.07,-0.1,0.66,0.005
6.08,-0.489,0.851,-0.243
6.09,-0.188,1.395,0.07
6.1,-0.335,1.001,0.135
6.11,-0.044,0.565,0.013
6.12,-0.474,0.803,-0.227
6.13,0.03,1.625,0.036
6.14,-0.111,0.951,0.145
6.15,-0.047,0.748,-0.007
6.16,-0.528,0.303,-0.137
6.17,-0.116,2.0,0.165
6.18,-0.075,0.677,0.095
6.19,-0.108,1.053,-0.01
6.2,-0.484,0.196,-0.154
6.21,-0.149,1.996,0.231
6.22,-0.257,0.689,0.081
6.23,-0.07,0.552,-0.072
6.24,-0.573,0.759,-0.125
6.25,-0.053,1.485,0.1
6.26,-0.225,1.289,0.052
6.27,0.068,0.415,-0.086
6.28,-0.351,0.844,-0.148
6.29,-0.056,1.209,0.081
6.3,-0.223,1.156,-0.013
6.31,-0.238,0.85,-0.081
6.32,-0.315,0.393,-0.038
6.33,-0.253,1.623,0.251
6.34,-0.159,0.834,0.055
6.35,-0.249,1.006,-0.107
6.36,-0.38,0.288,-0.005
6.37,-0.096,1.343,0.168
6.38,-0.269,1.01,-0.019
6.39,-0.168,0.667,-0.13
6.4,-0.273,1.29,-0.079
6.41,0.032,0.893,0.141
6.42,-0.284,1.211,-0.022
6.43,-0.264,0.433,-0.189
6.44,-0.367,1.132,-0.021
6.45,-0.04,0.806,0.13
6.46,-0.252,1.238,-0.02
6.47,-0.281,0.587,-0.143
6.48,-0.209,1.477,0.013
6.49,-0.153,0.959,0.184
6.5,-0.136,0.564,0.002
6.51,-0.494,0.962,-0.15
6.52,-0.047,1.396,0.097
6.53,-0.158,1.198,0.169
6.54,-0.038,0.524,0.018
6.55,-0.531,0.701,-0.209
6.56,-0.148,1.874,0.1
6.57,-0.194,0.593,0.051
6.58,-0.197,0.996,-0.016
6.59,-0.368,0.208,-0.189
6.6,-0.164,2.0,0.127
6.61,0.053,0.68,0.136
6.62,-0.153,0.813,-0.03
6.63,-0.469,0.421,-0.123
6.64,-0.142,1.689,0.147
6.65,-0.114,1.113,0.057
6.66,0.026,0.536,-0.063
6.67,-0.439,0.901,-0.198
6.68,0.055,1.49,0.2
6.69,-0.144,1.185,0.023
6.7,0.031,0.541,-0.066
6.71,-0.383,0.697,-0.19
6.72,-0.131,1.516,0.166
6.73,-0.173,1.013,0.049
6.74,-0.156,0.971,-0.136
6.75,-0.256,0.175,-0.124
6.76,-0.206,1.623,0.133
6.77,-0.157,0.776,-0.013
6.78,-0.263,1.066,-0.116
6.79,-0.343,0.439,-0.102
6.8,-0.147,1.372,0.295
6.81,-0.284,1.234,0.01
6.82,-0.052,0.489,-0.105
6.83,-0.375,1.229,-0.032
6.84,0.068,0.742,0.15
6.85,-0.363,1.351,-0.073
6.86,-0.177,0.335,-0.183
6.87,-0.331,1.891,0.033
6.88,-0.022,0.711,0.179
6.89,-0.188,0.977,0.007
6.9,-0.408,0.595,-0.253
6.91,-0.174,1.552,0.051
6.92,-0.247,0.934,0.092
6.93,-0.105,0.617,-0.011
6.94,-0.435,0.841,-0.171
6.95,0.055,1.483,0.041
6.96,-0.178,1.034,0.077
6.97,-0.035,0.51,-0.048
6.98,-0.535,0.611,-0.16
6.99,-0.034,1.783,0.098
7.0,-0.076,0.797,0.172
7.01,-0.137,0.902,-0.014
7.02,-0.439,0.216,-0.114
7.03,-0.171,2.0,0.238
7.04,-0.115,0.66,0.121
7.05,-0.116,0.897,-0.056
7.06,-0.374,0.44,-0.177
7.07,-0.083,1.772,0.141
7.08,-0.082,1.093,0.006
7.09,-0.006,0.496,-0.088
7.1,-0.369,0.859,-0.143
7.11,-0.124,1.18,0.148
7.12,-0.349,1.351,0.006
7.13,-0.097,0.571,-0.068
7.14,-0.41,0.659,-0.115
7.15,-0.171,1.248,0.223
7.16,-0.249,1.033,0.044
7.17,-0.206,0.984,-0.137
7.18,-0.317,0.266,-0.039
7.19,-0.079,1.411,0.183
7.2,-0.205,0.902,-0.036
7.21,-0.224,0.918,-0.143
7.22,-0.234,0.939,-0.044
7.23,-0.07,0.977,0.167
7.24,-0.25,1.058,-0.043
7.25,-0.216,0.539,-0.175
7.26,-0.359,1.724,-0.013
7.27,-0.005,0.597,0.124
7.28,-0.305,1.188,0.015
7.29,-0.207,0.344,-0.187
7.3,-0.389,1.779,0.085
7.31,-0.165,0.72,0.132
7.32,-0.12,0.763,-0.025
7.33,-0.415,0.729,-0.24
7.34,-0.014,1.546,-0.002
7.35,-0.246,1.011,0.084
7.36,0.092,0.463,-0.025
7.37,-0.54,0.867,-0.226
7.38,0.114,1.622,0.09
7.39,-0.154,0.972,0.075
7.4,0.098,0.729,-0.033
7.41,-0.457,0.422,-0.153
7.42,-0.038,2.0,0.157
7.43,-0.168,0.564,0.091
7.44,-0.058,1.036,-0.087
7.45,-0.394,0.254,-0.143
7.46,-0.07,2.0,0.152
7.47,-0.107,0.813,0.072
7.48,-0.059,0.718,-0.079
7.49,-0.352,0.671,-0.146
7.5,-0.071,1.487,0.131
7.51,-0.253,1.38,-0.023
7.52,-0.028,0.424,-0.09
7.53,-0.429,0.842,-0.08
7.54,-0.049,1.28,0.204
7.55,-0.337,1.399,0.081
7.56,-0.201,0.74,-0.099
7.57,-0.322,0.402,0.031
7.58,-0.203,1.469,0.234
7.59,-0.176,0.978,-0.007
7.6,-0.304,1.03,-0.132
7.61,-0.199,0.584,-0.073
7.62,-0.168,1.179,0.137
7.63,-0.196,0.871,-0.041
7.64,-0.394,0.817,-0.107
7.65,-0.262,1.528,0.021
7.66,-0.099,0.874,0.171
7.67,-0.181,0.874,-0.022
7.68,-0.374,0.406,-0.193
7.69,-0.275,1.978,0.067
7.7,-0.1,0.487,0.082
7.71,-0.21,1.058,-0.01
7.72,-0.379,0.292,-0.207
7.73,-0.16,1.92,0.118
7.74,0.017,0.859,0.11
7.75,-0.112,0.554,-0.008
7.76,-0.421,0.694,-0.112
7.77,-0.117,1.588,0.201
7.78,-0.125,1.216,0.111
7.79,-0.039,0.386,-0.028
7.8,-0.532,0.865,-0.18
7.81,-0.017,1.595,0.209
7.82,-0.154,0.939,0.025
7.83,0.031,0.765,-0.027
7.84,-0.433,0.383,-0.178
7.85,-0.137,1.714,0.163
7.86,-0.16,0.834,0.032
7.87,-0.145,1.035,-0.115
7.88,-0.304,0.185,-0.095
7.89,-0.244,1.596,0.226
7.9,-0.199,0.96,0.003
7.91,-0.17,0.802,-0.175
7.92,-0.365,0.63,-0.155
7.93,-0.054,1.139,0.227
7.94,-0.339,1.469,-0.003
7.95,-0.074,0.324,-0.109
7.96,-0.434,1.186,-0.066
7.97,0.029,0.882,0.16
7.98,-0.316,1.155,-0.039
7.99,-0.194,0.7,-0.185
8.0,-0.303,0.978,-0.071
8.01,-0.038,1.144,0.112
8.02,-0.185,0.702,0.011
8.03,-0.375,1.066,-0.153
8.04,-0.335,0.95,0.058
8.05,-0.167,1.062,0.162
8.06,-0.175,0.861,0.022
8.07,-0.296,0.712,-0.145
8.08,-0.26,1.632,0.056
8.09,-0.074,0.658,0.112
8.1,-0.215,1.075,0.022
8.11,-0.366,0.241,-0.162
8.12,-0.319,1.992,0.102
8.13,-0.153,0.51,0.097
8.14,-0.129,1.017,0.017
8.15,-0.511,0.386,-0.23
8.16,-0.056,1.734,0.084
8.17,-0.194,0.954,0.066
8.18,0.045,0.451,-0.03
8.19,-0.58,0.885,-0.183
8.2,0.081,1.511,0.084
8.21,-0.197,1.194,0.061
8.22,0.117,0.505,-0.017
8.23,-0.494,0.726,-0.204
8.24,0.048,1.782,0.152
8.25,-0.068,0.798,0.038
8.26,-0.098,0.998,-0.062
8.27,-0.313,0.199,-0.19
8.28,-0.106,2.0,0.123
8.29,-0.067,0.758,0.057
8.3,-0.094,0.917,-0.069
8.31,-0.431,0.315,-0.124
8.32,-0.124,1.465,0.149
8.33,-0.301,1.17,0.039
8.34,-0.099,0.548,-0.091
8.35,-0.482,0.856,-0.071
8.36,-0.083,1.047,0.26
8.37,-0.339,1.421,0.053
8.38,-0.102,0.514,-0.099
8.39,-0.383,0.748,-0.055
8.4,-0.114,1.137,0.215
8.41,-0.211,1.177,-0.037
8.42,-0.22,0.771,-0.15
8.43,-0.094,0.895,-0.106
8.44,-0.109,1.24,0.11
8.45,-0.104,0.593,-0.04
8.46,-0.403,1.058,-0.175
8.47,-0.17,1.271,0.036
8.48,-0.213,1.064,0.159
8.49,-0.169,0.728,0.028
8.5,-0.493,0.708,-0.171
8.51,-0.256,1.674,0.078
8.52,-0.183,0.605,0.109
8.53,-0.221,1.01,0.017
8.54,-0.342,0.252,-0.195
8.55,-0.093,2.0,0.016
8.56,0.094,0.694,0.138
8.57,-0.183,0.852,-0.022
8.58,-0.541,0.386,-0.179
8.59,-0.036,1.778,0.152
8.6,-0.21,0.993,0.103
8.61,0.011,0.495,-0.036
8.62,-0.559,0.882,-0.182
8.63,-0.004,1.526,0.194
8.64,-0.23,1.192,0.098
8.65,0.11,0.533,-0.001
8.66,-0.53,0.721,-0.143
8.67,-0.067,1.674,0.153
8.68,-0.147,0.929,0.054
8.69,-0.073,0.992,-0.098
8.7,-0.322,0.177,-0.12
8.71,-0.147,1.873,0.129
8.72,-0.102,0.774,0.015
8.73,-0.156,1.007,-0.093
8.74,-0.347,0.33,-0.108
8.75,-0.195,1.508,0.243
8.76,-0.325,1.163,0.012
8.77,-0.054,0.585,-0.086
8.78,-0.449,0.856,-0.047
8.79,0.011,0.913,0.197
8.8,-0.355,1.424,-0.007
8.81,-0.157,0.442,-0.143
8.82,-0.251,1.017,-0.068
8.83,0.04,0.953,0.116
8.84,-0.215,1.005,-0.035
8.85,-0.329,0.827,-0.186
8.86,-0.194,1.031,-0.026
8.87,-0.157,1.148,0.157
8.88,-0.109,0.668,0.026
8.89,-0.428,1.009,-0.137
8.9,-0.265,1.374,0.067
8.91,-0.129,0.969,0.226
8.92,-0.203,0.799,0.028
8.93,-0.338,0.486,-0.201
8.94,-0.332,1.964,0.052
8.95,-0.096,0.502,0.112
8.96,-0.233,1.153,-0.0
8.97,-0.393,0.179,-0.21
8.98,-0.118,2.0,0.031
8.99,-0.134,0.687,0.085
9.0,-0.053,0.704,-0.045
9.01,-0.549,0.643,-0.194
9.02,0.035,1.593,0.111
9.03,-0.181,1.113,0.063
9.04,0.072,0.428,-0.034
9.05,-0.591,0.894,-0.156
9.06,0.002,1.536,0.195
9.07,-0.208,1.061,0.096
9.08,-0.023,0.648,-0.067
9.09,-0.442,0.477,-0.141
9.1,-0.155,1.921,0.137
9.11,0.025,0.721,0.044
9.12,-0.132,1.014,-0.107
9.13,-0.256,0.136,-0.157
9.14,-0.212,1.635,0.063
9.15,-0.174,0.893,-0.019
9.16,-0.196,0.869,-0.122
9.17,-0.389,0.617,-0.117
9.18,-0.135,1.252,0.255
9.19,-0.326,1.291,0.063
9.2,-0.121,0.461,-0.079
9.21,-0.467,0.93,-0.066
9.22,-0.047,0.961,0.228
9.23,-0.353,1.396,0.032
9.24,-0.135,0.509,-0.088
9.25,-0.217,0.879,-0.045
9.26,0.047,1.113,0.112
9.27,-0.111,0.809,-0.056
9.28,-0.409,0.796,-0.178
9.29,-0.225,1.249,-0.038
9.3,-0.226,1.104,0.135
9.31,-0.116,0.668,0.044
9.32,-0.397,0.896,-0.167
9.33,-0.231,1.41,0.12
9.34,-0.156,0.894,0.11
9.35,-0.086,0.8,0.017
9.36,-0.412,0.491,-0.126
9.37,-0.202,1.903,0.144
9.38,-0.064,0.53,0.075
9.39,-0.137,1.094,0.015
9.4,-0.429,0.223,-0.181
9.41,-0.139,2.0,0.127
9.42,-0.172,0.662,0.081
9.43,0.007,0.668,-0.079
9.44,-0.426,0.54,-0.129
9.45,-0.072,1.657,0.147
9.46,-0.156,0.921,-0.02
9.47,-0.153,0.97,-0.141
9.48,-0.356,0.178,-0.077
9.49,-0.149,1.494,0.164
9.5,-0.253,0.883,0.02
9.51,-0.218,0.922,-0.097
9.52,-0.369,0.618,-0.036
9.53,-0.056,1.018,0.164
9.54,-0.276,1.203,0.005
9.55,-0.16,0.49,-0.17
9.56,-0.419,1.072,-0.049
9.57,0.112,0.816,0.132
9.58,-0.303,1.436,-0.045
9.59,-0.261,0.444,-0.146
9.6,-0.194,1.472,-0.072
9.61,-0.088,0.943,0.145
9.62,-0.135,0.716,0.021
9.63,-0.417,1.034,-0.172
9.64,-0.243,1.251,0.013
9.65,-0.273,1.101,0.19
9.66,-0.156,0.605,0.061
9.67,-0.429,0.895,-0.16
9.68,-0.294,1.546,0.042
9.69,-0.184,0.703,0.09
9.7,-0.147,1.079,-0.021
9.71,-0.329,0.36,-0.188
9.72,-0.188,1.982,0.117
9.73,-0.124,0.534,0.149
9.74,-0.223,1.014,0.08
9.75,-0.516,0.255,-0.156
9.76,-0.059,1.912,0.091
9.77,-0.171,0.798,0.129
9.78,0.034,0.603,-0.04
9.79,-0.63,0.777,-0.194
9.8,0.05,1.554,0.161
9.81,-0.262,1.228,0.109
9.82,0.029,0.393,0.003
9.83,-0.478,0.895,-0.172
9.84,-0.051,1.625,0.143
9.85,-0.124,0.988,0.07
9.86,-0.012,0.78,-0.083
9.87,-0.336,0.354,-0.179
9.88,-0.174,1.861,0.104
9.89,-0.11,0.947,0.007
9.9,-0.213,0.952,-0.139
9.91,-0.261,0.222,-0.091
9.92,-0.257,1.576,0.19
9.93,-0.158,0.861,0.029
9.94,-0.247,0.849,-0.148
9.95,-0.416,0.496,-0.099
9.96,-0.075,1.258,0.215
9.97,-0.342,1.248,-0.022
9.98,-0.073,0.479,-0.134
9.99,-0.411,1.019,-0.006
10.0,-0.0,0.805,0.208
10.01,-0.362,1.478,0.04
10.02,-0.202,0.433,-0.13
10.03,-0.315,0.9,-0.063
10.04,0.057,1.068,0.098
10.05,-0.174,0.923,-0.011
10.06,-0.313,0.905,-0.154
10.07,-0.296,0.965,0.027
10.08,-0.138,1.116,0.163
10.09,-0.185,0.715,0.004
10.1,-0.331,0.877,-0.146
10.11,-0.292,1.521,0.064
10.12,-0.129,0.788,0.132
10.13,-0.187,0.952,-0.008
10.14,-0.367,0.399,-0.222
10.15,-0.217,1.956,0.094
10.16,-0.077,0.507,0.088
10.17,-0.147,1.095,-0.01
10.18,-0.338,0.253,-0.256
10.19,-0.172,1.945,0.062
10.2,-0.134,0.772,0.011
10.21,-0.1,0.585,-0.054
10.22,-0.553,0.703,-0.192
10.23,-0.005,1.597,0.122
10.24,-0.252,1.117,0.145
10.25,0.099,0.4,-0.02
10.26,-0.64,0.846,-0.165
10.27,0.02,1.555,0.169
10.28,-0.155,1.026,0.084
10.29,0.024,0.743,-0.057
10.3,-0.395,0.438,-0.157
10.31,-0.063,1.984,0.088
10.32,-0.044,0.65,0.037
10.33,-0.136,1.059,-0.048
10.34,-0.338,0.19,-0.124
10.35,-0.121,1.821,0.147
10.36,-0.161,0.937,0.051
10.37,-0.065,0.677,-0.091
10.38,-0.324,0.692,-0.146
10.39,-0.164,1.289,0.197
10.4,-0.276,1.337,-0.032
10.41,-0.037,0.47,-0.11
10.42,-0.448,0.83,-0.057
10.43,-0.035,1.042,0.24
10.44,-0.411,1.357,0.025
10.45,-0.167,0.679,-0.078
10.46,-0.393,0.521,-0.031
10.47,0.003,1.28,0.141
10.48,-0.177,0.833,-0.047
10.49,-0.291,1.021,-0.208
10.5,-0.215,0.734,-0.021
10.51,-0.125,1.213,0.159
10.52,-0.27,0.789,0.033
10.53,-0.254,0.823,-0.167
10.54,-0.325,1.575,-0.044
10.55,0.035,0.726,0.144
10.56,-0.334,1.134,-0.0
10.57,-0.228,0.328,-0.207
10.58,-0.425,1.873,0.054
10.59,-0.044,0.617,0.177
10.6,-0.268,1.061,-0.01
10.61,-0.361,0.517,-0.196
10.62,-0.186,1.727,0.1
10.63,-0.177,0.926,0.156
10.64,0.022,0.512,0.02
10.65,-0.512,0.93,-0.195
10.66,-0.018,1.499,0.074
10.67,-0.166,1.118,0.111
10.68,0.038,0.548,-0.003
10.69,-0.601,0.889,-0.16
10.7,0.008,1.61,0.172
10.71,-0.224,0.972,0.111
10.72,0.044,0.723,-0.043
10.73,-0.433,0.395,-0.124
10.74,-0.071,2.0,0.168
10.75,-0.089,0.631,0.073
10.76,-0.062,1.019,-0.056
10.77,-0.375,0.199,-0.187
10.78,-0.094,1.927,0.103
10.79,-0.221,0.873,0.081
10.8,-0.097,0.769,-0.056
10.81,-0.417,0.654,-0.131
10.82,-0.015,1.438,0.161
10.83,-0.325,1.333,0.061
10.84,0.042,0.439,-0.096
10.85,-0.554,0.851,-0.112
10.86,-0.038,1.163,0.207
10.87,-0.344,1.299,-0.001
10.88,-0.112,0.661,-0.11
10.89,-0.42,0.48,-0.082
10.9,-0.051,1.328,0.173
10.91,-0.204,0.892,-0.014
10.92,-0.345,1.054,-0.09
10.93,-0.359,0.274,-0.021
10.94,-0.113,1.345,0.2
10.95,-0.235,0.996,0.015
10.96,-0.26,0.79,-0.109
10.97,-0.323,0.978,-0.076
10.98,0.011,0.88,0.183
10.99,-0.277,1.321,-0.009
11.0,-0.197,0.344,-0.152
11.01,-0.399,1.527,-0.029
11.02,0.106,0.745,0.123
11.03,-0.372,1.177,0.009
11.04,-0.157,0.596,-0.223
11.05,-0.323,1.523,-0.014
11.06,-0.115,0.912,0.111
11.07,-0.112,0.67,-0.002
11.08,-0.434,0.904,-0.215
11.09,-0.082,1.401,0.072
11.1,-0.166,1.118,0.13
11.11,-0.085,0.535,0.059
11.12,-0.483,0.779,-0.193
11.13,-0.202,1.735,0.081
11.14,-0.196,0.662,0.087
11.15,-0.144,0.987,0.035
11.16,-0.492,0.233,-0.17
11.17,-0.06,2.0,0.082
11.18,-0.082,0.549,0.083
11.19,-0.08,0.922,-0.02
11.2,-0.494,0.315,-0.192
11.21,-0.085,1.832,0.146
11.22,-0.167,0.962,0.112
11.23,-0.006,0.5,0.022
11.24,-0.605,0.86,-0.138
11.25,-0.002,1.521,0.224
11.26,-0.238,1.199,0.129
11.27,0.107,0.467,-0.027
11.28,-0.542,0.826,-0.163
11.29,0.022,1.689,0.138
11.3,-0.187,0.944,0.073
11.31,0.009,0.868,-0.093
11.32,-0.343,0.281,-0.139
11.33,-0.152,1.905,0.125
11.34,-0.144,0.715,0.07
11.35,-0.085,1.027,-0.083
11.36,-0.36,0.275,-0.117
11.37,-0.146,1.631,0.155
11.38,-0.236,1.097,0.043
11.39,-0.081,0.632,-0.076
11.4,-0.535,0.779,-0.098
11.41,-0.142,1.118,0.277
11.42,-0.38,1.506,0.02
11.43,-0.072,0.346,-0.082
11.44,-0.431,0.814,-0.063
11.45,-0.033,1.041,0.194
11.46,-0.251,1.204,-0.003
11.47,-0.242,0.863,-0.145
11.48,-0.325,0.356,-0.019
11.49,-0.139,1.443,0.206
11.5,-0.187,0.877,-0.026
11.51,-0.391,0.942,-0.114
11.52,-0.176,0.781,-0.015
11.53,-0.147,1.117,0.151
11.54,-0.148,0.822,-0.05
11.55,-0.354,0.859,-0.132
11.56,-0.16,1.505,0.015
11.57,-0.04,0.81,0.162
11.58,-0.224,0.92,-0.022
11.59,-0.388,0.416,-0.18
11.6,-0.346,1.92,0.065
11.61,-0.099,0.597,0.141
11.62,-0.226,1.081,-0.005
11.63,-0.332,0.389,-0.26
11.64,-0.156,1.8,0.038
11.65,-0.05,0.858,0.124
11.66,-0.09,0.574,-0.027
11.67,-0.492,0.825,-0.194
11.68,-0.025,1.458,0.054
11.69,-0.103,1.211,0.108
11.7,0.034,0.421,-0.015
11.71,-0.54,0.829,-0.208
11.72,-0.04,1.677,0.107
11.73,-0.118,0.854,0.095
11.74,-0.04,0.814,-0.014
11.75,-0.428,0.342,-0.161
11.76,-0.189,2.0,0.174
11.77,-0.05,0.558,0.143
11.78,-0.156,1.009,0.014
11.79,-0.39,0.254,-0.149
11.8,-0.173,1.878,0.171
11.81,-0.158,0.893,0.152
11.82,-0.04,0.622,-0.011
11.83,-0.482,0.772,-0.162
11.84,-0.024,1.449,0.143
11.85,-0.222,1.339,-0.009
11.86,0.046,0.443,-0.089
11.87,-0.433,0.831,-0.243
11.88,-0.016,1.4,0.146
11.89,-0.26,1.113,-0.039
11.9,-0.086,0.798,-0.127
11.91,-0.45,0.369,-0.103
11.92,-0.156,1.51,0.17
11.93,-0.23,0.775,0.064
11.94,-0.189,1.061,-0.097
11.95,-0.537,0.304,-0.053
11.96,-0.081,1.407,0.236
11.97,-0.334,1.0,0.059
11.98,-0.088,0.703,-0.082
11.99,-0.547,0.774,-0.075
12.0,0.062,0.977,0.233
12.01,-0.427,1.407,0.055
12.02,-0.001,0.458,-0.112
12.03,-0.48,1.083,-0.064
12.04,0.133,0.82,0.143
12.05,-0.318,1.292,-0.005
12.06,-0.169,0.666,-0.189
12.07,-0.316,0.788,-0.084
12.08,0.047,1.143,0.119
12.09,-0.126,0.774,-0.046
12.1,-0.298,0.992,-0.174
12.11,-0.274,1.002,-0.061
12.12,-0.11,1.079,0.113
12.13,-0.218,0.853,-0.023
12.14,-0.291,0.705,-0.182
12.15,-0.298,1.703,0.02
12.16,-0.071,0.661,0.186
12.17,-0.29,1.149,0.019
12.18,-0.286,0.374,-0.169
12.19,-0.409,1.885,0.054
12.2,-0.107,0.572,0.122
12.21,-0.193,1.108,-0.013
12.22,-0.393,0.527,-0.264
12.23,-0.127,1.682,0.044
12.24,-0.155,0.943,0.087
12.25,-0.028,0.539,0.04
12.26,-0.511,0.908,-0.17
12.27,-0.037,1.457,0.066
12.28,-0.098,1.084,0.153
12.29,0.067,0.599,0.006
12.3,-0.6,0.681,-0.211
12.31,0.002,1.6,0.135
12.32,-0.252,0.968,0.127
12.33,0.028,0.799,-0.025
12.34,-0.483,0.422,-0.134
12.35,-0.04,2.0,0.158
12.36,-0.082,0.687,0.037
12.37,-0.042,1.059,-0.038
12.38,-0.353,0.223,-0.126
12.39,-0.165,1.852,0.087
12.4,-0.139,0.879,0.03
12.41,-0.114,0.762,-0.081
12.42,-0.426,0.654,-0.167
12.43,0.025,1.511,0.163
12.44,-0.298,1.301,0.062
12.45,0.058,0.473,-0.058
12.46,-0.559,0.881,-0.092
12.47,-0.114,1.317,0.207
12.48,-0.344,1.334,0.021
12.49,-0.117,0.626,-0.132
12.5,-0.411,0.45,-0.073
12.51,-0.146,1.395,0.189
12.52,-0.141,0.888,-0.001
12.53,-0.345,1.047,-0.077
12.54,-0.333,0.284,-0.016
12.55,-0.139,1.367,0.172
12.56,-0.218,0.846,0.014
12.57,-0.205,0.816,-0.156
12.58,-0.336,0.734,-0.088
12.59,0.007,0.909,0.115
12.6,-0.287,1.399,-0.03
12.61,-0.179,0.303,-0.139
12.62,-0.264,1.46,-0.033
12.63,0.026,0.721,0.152
12.64,-0.248,1.157,-0.03
12.65,-0.263,0.645,-0.146
12.66,-0.324,1.359,-0.051
12.67,-0.136,1.002,0.18
12.68,-0.237,0.686,0.02
12.69,-0.414,0.901,-0.147
12.7,-0.244,1.153,0.051
12.71,-0.244,1.101,0.195
12.72,-0.24,0.743,0.021
12.73,-0.373,0.805,-0.088
12.74,-0.289,1.622,0.06
12.75,-0.125,0.733,0.168
12.76,-0.201,1.029,0.004
12.77,-0.286,0.39,-0.199
12.78,-0.32,1.943,0.094
12.79,-0.029,0.541,0.131
12.8,-0.25,1.052,0.014
12.81,-0.357,0.333,-0.199
12.82,-0.239,1.809,0.087
12.83,-0.119,0.871,0.091
12.84,-0.08,0.519,-0.022
12.85,-0.478,0.792,-0.2
12.86,0.01,1.501,0.057
12.87,-0.134,1.134,0.104
12.88,0.015,0.439,-0.024
12.89,-0.516,0.749,-0.195
12.9,-0.023,1.701,0.123
12.91,-0.106,0.825,0.091
12.92,-0.045,0.858,-0.044
12.93,-0.377,0.275,-0.205
12.94,-0.099,2.0,0.124
12.95,0.006,0.628,0.066
12.96,-0.102,0.979,-0.035
12.97,-0.412,0.31,-0.176
12.98,-0.169,1.826,0.136
12.99,-0.055,0.975,0.083
13.0,-0.025,0.618,-0.041
13.01,-0.497,0.78,-0.128
13.02,-0.118,1.354,0.174
13.03,-0.302,1.385,0.074
13.04,-0.05,0.435,-0.074
13.05,-0.406,0.864,-0.161
13.06,-0.138,1.421,0.124
13.07,-0.087,1.12,-0.012
13.08,-0.134,0.883,-0.146
13.09,-0.324,0.305,-0.116
13.1,-0.186,1.551,0.154
13.11,-0.25,0.982,0.05
13.12,-0.304,0.936,-0.08
13.13,-0.336,0.512,0.004
13.14,-0.068,1.329,0.168
13.15,-0.171,0.759,-0.012
13.16,-0.243,0.889,-0.197
13.17,-0.28,0.948,-0.105
13.18,0.042,0.916,0.123
13.19,-0.246,1.228,-0.072
13.2,-0.156,0.455,-0.188
13.21,-0.301,1.68,-0.045
13.22,-0.021,0.635,0.141
13.23,-0.281,1.228,-0.006
13.24,-0.302,0.442,-0.181
13.25,-0.416,1.658,0.059
13.26,-0.144,0.833,0.186
13.27,-0.131,0.741,0.019
13.28,-0.348,0.829,-0.199
13.29,-0.092,1.367,0.024
13.3,-0.104,1.083,0.11
13.31,-0.008,0.526,-0.022
13.32,-0.436,0.831,-0.218
13.33,-0.116,1.62,0.032
13.34,-0.173,0.743,0.046
13.35,-0.106,0.859,0.016
13.36,-0.435,0.361,-0.205
13.37,-0.117,1.985,0.098
13.38,-0.005,0.615,0.113
13.39,-0.169,0.913,0.007
13.4,-0.361,0.279,-0.16
13.41,-0.137,1.931,0.096
13.42,-0.042,0.88,0.091
13.43,-0.088,0.577,-0.07
13.44,-0.417,0.763,-0.225
13.45,-0.059,1.551,0.17
13.46,-0.22,1.18,0.093
13.47,0.013,0.414,-0.037
13.48,-0.544,0.872,-0.136
13.49,-0.076,1.609,0.143
13.5,-0.148,1.065,0.05
13.51,-0.046,0.774,-0.069
13.52,-0.354,0.342,-0.15
13.53,-0.212,1.841,0.15
13.54,-0.136,0.788,0.069
13.55,-0.242,1.027,-0.024
13.56,-0.385,0.231,-0.111
13.57,-0.178,1.755,0.199
13.58,-0.228,0.99,0.039
13.59,-0.108,0.693,-0.057
13.6,-0.484,0.674,-0.114
13.61,-0.082,1.141,0.189
13.62,-0.371,1.456,-0.015
13.63,-0.103,0.357,-0.079
13.64,-0.397,0.937,-0.068
13.65,-0.03,0.962,0.197
13.66,-0.276,1.195,0.022
13.67,-0.282,0.789,-0.138
13.68,-0.323,0.499,-0.015
13.69,-0.13,1.354,0.216
13.7,-0.173,0.83,-0.013
13.71,-0.252,1.042,-0.168
13.72,-0.3,0.487,-0.025
13.73,-0.041,1.213,0.151
13.74,-0.286,0.935,0.001
13.75,-0.191,0.755,-0.163
13.76,-0.211,1.575,-0.078
13.77,-0.002,0.787,0.116
13.78,-0.286,1.104,-0.001
13.79,-0.297,0.404,-0.204
13.8,-0.363,1.699,0.004
13.81,-0.06,0.688,0.161
13.82,-0.228,1.142,-0.046
13.83,-0.348,0.553,-0.218
13.84,-0.214,1.531,0.035
13.85,-0.164,0.92,0.162
13.86,-0.059,0.562,0.03
13.87,-0.452,0.937,-0.164
13.88,-0.08,1.443,0.053
13.89,-0.13,1.134,0.121
13.9,-0.046,0.535,0.069
13.91,-0.562,0.733,-0.169
13.92,0.0,1.573,0.13
13.93,-0.181,0.932,0.106
13.94,0.021,0.727,-0.105
13.95,-0.439,0.448,-0.209
13.96,-0.095,1.987,0.134
13.97,-0.08,0.616,0.126
13.98,-0.042,0.977,-0.044
13.99,-0.413,0.246,-0.172
14.0,-0.124,1.957,0.129
14.01,-0.112,0.794,0.091
14.02,-0.032,0.809,-0.066
14.03,-0.455,0.642,-0.186
14.04,0.014,1.559,0.159
14.05,-0.212,1.294,0.05
14.06,-0.001,0.461,-0.023
14.07,-0.505,0.93,-0.185
14.08,-0.077,1.439,0.173
14.09,-0.248,1.167,0.032
14.1,-0.07,0.674,-0.109
14.11,-0.399,0.444,-0.125
14.12,-0.104,1.543,0.119
14.13,-0.175,0.879,0.039
14.14,-0.161,1.076,-0.077
14.15,-0.37,0.216,-0.108
14.16,-0.171,1.486,0.243
14.17,-0.185,0.948,0.008
14.18,-0.292,0.857,-0.119
14.19,-0.338,0.601,-0.106
14.2,-0.066,1.053,0.189
14.21,-0.309,1.426,0.003
14.22,-0.059,0.348,-0.105
14.23,-0.411,1.229,-0.049
14.24,0.04,0.788,0.177
14.25,-0.349,1.297,0.005
14.26,-0.263,0.6,-0.141
14.27,-0.306,0.957,-0.021
14.28,-0.081,1.055,0.148
14.29,-0.104,0.787,-0.014
14.3,-0.395,0.936,-0.139
14.31,-0.138,1.015,-0.048
14.32,-0.15,1.103,0.145
14.33,-0.154,0.73,0.014
14.34,-0.394,0.847,-0.138
14.35,-0.241,1.57,0.027
14.36,-0.059,0.743,0.137
14.37,-0.206,0.966,-0.022
14.38,-0.334,0.373,-0.199
14.39,-0.267,1.974,0.091
14.4,-0.12,0.592,0.171
14.41,-0.203,1.015,0.01
14.42,-0.415,0.38,-0.198
14.43,-0.189,1.806,0.066
14.44,-0.234,0.837,0.166
14.45,-0.011,0.586,0.017
14.46,-0.534,0.827,-0.233
14.47,0.011,1.479,0.073
14.48,-0.141,1.115,0.104
14.49,0.013,0.479,-0.003
14.5,-0.521,0.809,-0.211
14.51,-0.006,1.68,0.062
14.52,-0.132,0.806,0.12
14.53,-0.042,0.818,-0.06
14.54,-0.498,0.325,-0.186
14.55,-0.079,2.0,0.126
14.56,-0.045,0.586,0.127
14.57,-0.125,0.966,-0.016
14.58,-0.429,0.292,-0.145
14.59,-0.151,1.898,0.19
14.6,-0.103,0.85,0.106
14.61,0.048,0.615,-0.067
14.62,-0.466,0.812,-0.209
14.63,-0.027,1.541,0.178
14.64,-0.195,1.201,0.101
14.65,0.047,0.433,-0.014
14.66,-0.464,0.894,-0.175
14.67,-0.088,1.517,0.144
14.68,-0.222,1.102,0.076
14.69,0.01,0.842,-0.107
14.7,-0.376,0.341,-0.13
14.71,-0.088,1.92,0.129
14.72,-0.099,0.721,0.076
14.73,-0.241,0.987,-0.092
14.74,-0.41,0.167,-0.037
14.75,-0.203,1.546,0.247
14.76,-0.27,0.909,0.032
14.77,-0.169,0.855,-0.059
14.78,-0.463,0.593,-0.071
14.79,-0.045,1.088,0.21
14.8,-0.327,1.222,0.029
14.81,-0.145,0.55,-0.185
14.82,-0.414,0.977,-0.04
14.83,0.057,0.915,0.183
14.84,-0.314,1.452,0.009
14.85,-0.175,0.503,-0.152
14.86,-0.345,1.025,-0.036
14.87,-0.073,0.968,0.151
14.88,-0.145,0.941,-0.094
14.89,-0.286,0.81,-0.147
14.9,-0.096,1.185,-0.099
14.91,-0.077,1.259,0.124
14.92,-0.068,0.528,0.011
14.93,-0.497,0.967,-0.166
14.94,-0.307,1.101,0.054
14.95,-0.181,0.888,0.175
14.96,-0.303,1.127,0.034
14.97,-0.244,0.393,-0.15
14.98,-0.399,1.881,0.054
14.99,-0.101,0.522,0.153
15.0,-0.313,1.171,0.043
15.01,-0.359,0.333,-0.15
15.02,-0.306,1.859,0.044
15.03,-0.114,0.795,0.164
15.04,-0.127,0.692,-0.003
15.05,-0.462,0.771,-0.216
15.06,-0.14,1.508,0.054
15.07,-0.317,0.958,0.076
15.08,-0.005,0.598,0.001
15.09,-0.478,0.865,-0.236
15.1,0.094,1.517,0.051
15.11,-0.072,1.027,0.161
15.12,-0.121,0.628,0.017
15.13,-0.423,0.398,-0.139
15.14,-0.159,1.933,0.099
15.15,0.022,0.629,0.136
15.16,-0.104,1.0,-0.033
15.17,-0.421,0.264,-0.225
15.18,-0.187,1.972,0.191
15.19,-0.137,0.759,0.083
15.2,-0.094,0.655,-0.029
15.21,-0.407,0.712,-0.184
15.22,-0.138,1.559,0.101
15.23,-0.195,1.246,0.074
15.24,0.037,0.445,-0.046
15.25,-0.421,0.917,-0.159
15.26,0.011,1.492,0.113
15.27,-0.15,1.144,-0.029
15.28,-0.039,0.771,-0.089
15.29,-0.304,0.449,-0.178
15.3,-0.11,1.902,0.14
15.31,-0.005,0.766,0.025
15.32,-0.12,1.016,-0.121
15.33,-0.26,0.179,-0.188
15.34,-0.188,1.738,0.154
15.35,-0.214,0.906,0.023
15.36,-0.118,0.735,-0.102
15.37,-0.487,0.616,-0.146
15.38,-0.081,1.217,0.238
15.39,-0.35,1.263,0.042
15.4,-0.09,0.422,-0.112
15.41,-0.463,0.949,-0.021
15.42,-0.037,0.967,0.265
15.43,-0.335,1.39,0.008
15.44,-0.125,0.564,-0.068
15.45,-0.408,0.585,-0.058
15.46,0.07,1.271,0.153
15.47,-0.176,0.876,-0.009
15.48,-0.299,0.991,-0.127
15.49,-0.308,0.528,-0.088
15.5,-0.077,1.226,0.138
15.51,-0.127,0.878,-0.012
15.52,-0.254,0.807,-0.145
15.53,-0.302,1.331,-0.036
15.54,-0.144,0.917,0.135
15.55,-0.194,0.924,0.004
15.56,-0.267,0.562,-0.169
15.57,-0.382,1.859,0.054
15.58,-0.077,0.532,0.136
15.59,-0.228,1.153,0.049
15.6,-0.322,0.307,-0.179
15.61,-0.36,1.93,0.045
15.62,-0.187,0.587,0.14
15.63,-0.126,0.932,0.025
15.64,-0.425,0.646,-0.201
15.65,-0.096,1.581,0.078
15.66,-0.257,1.037,0.15
15.67,-0.057,0.47,0.05
15.68,-0.55,0.866,-0.154
15.69,0.001,1.561,0.083
15.7,-0.267,1.015,0.099
15.71,-0.002,0.621,-0.004
15.72,-0.546,0.586,-0.17
15.73,-0.01,1.941,0.094
15.74,-0.13,0.601,0.107
15.75,-0.081,1.004,-0.06
15.76,-0.419,0.249,-0.145
15.77,-0.142,2.0,0.144
15.78,-0.065,0.766,0.145
15.79,-0.127,0.766,-0.001
15.8,-0.541,0.566,-0.141
15.81,-0.073,1.692,0.194
15.82,-0.194,1.103,0.123
15.83,0.032,0.427,-0.055
15.84,-0.545,0.943,-0.151
15.85,-0.014,1.507,0.194
15.86,-0.238,1.191,0.089
15.87,0.004,0.554,0.002
15.88,-0.409,0.659,-0.128
15.89,-0.113,1.765,0.116
15.9,-0.154,0.852,0.07
15.91,-0.058,0.983,-0.074
15.92,-0.352,0.168,-0.171
15.93,-0.167,1.865,0.157
15.94,-0.136,0.833,0.037
15.95,-0.13,0.866,-0.139
15.96,-0.388,0.439,-0.203
15.97,-0.081,1.488,0.146
15.98,-0.282,1.307,-0.005
15.99,0.001,0.449,-0.108
16.0,-0.526,0.896,-0.089
16.01,-0.027,1.06,0.243
16.02,-0.364,1.402,0.074
16.03,-0.134,0.442,-0.074
16.04,-0.427,0.695,-0.08
16.05,-0.081,1.256,0.168
16.06,-0.2,0.982,0.022
16.07,-0.245,0.952,-0.081
16.08,-0.404,0.266,-0.057
16.09,-0.079,1.492,0.244
16.1,-0.231,0.872,0.03
16.11,-0.228,0.899,-0.128
16.12,-0.328,0.684,-0.026
16.13,-0.029,1.057,0.144
16.14,-0.267,1.22,0.032
16.15,-0.172,0.506,-0.134
16.16,-0.438,1.26,-0.03
16.17,0.087,0.729,0.152
16.18,-0.294,1.345,-0.007
16.19,-0.278,0.432,-0.172
16.2,-0.28,1.311,-0.046
16.21,-0.058,0.885,0.131
16.22,-0.16,0.892,-0.018
16.23,-0.338,0.814,-0.149
16.24,-0.223,1.287,-0.014
16.25,-0.221,1.083,0.14
16.26,-0.123,0.597,0.084
16.27,-0.413,0.926,-0.151
16.28,-0.251,1.473,0.074
16.29,-0.195,0.853,0.145
16.3,-0.167,0.907,0.017
16.31,-0.376,0.455,-0.168
16.32,-0.343,1.886,0.099
16.33,-0.115,0.527,0.12
16.34,-0.144,0.982,0.019
16.35,-0.486,0.2,-0.153
16.36,-0.151,2.0,0.103
16.37,-0.082,0.65,0.102
16.38,-0.111,0.836,-0.035
16.39,-0.424,0.38,-0.169
16.4,-0.062,1.817,0.115
16.41,-0.08,0.982,0.009
16.42,0.035,0.454,-0.088
16.43,-0.525,0.881,-0.202
16.44,-0.008,1.547,0.192
16.45,-0.269,1.12,0.114
16.46,0.021,0.477,-0.017
16.47,-0.472,0.762,-0.193
16.48,-0.039,1.728,0.128
16.49,-0.086,0.868,0.124
16.5,-0.046,0.87,-0.078
16.51,-0.383,0.262,-0.115
16.52,-0.21,1.933,0.108
16.53,-0.089,0.712,0.106
16.54,-0.156,1.02,-0.07
16.55,-0.369,0.373,-0.117
16.56,-0.057,1.755,0.16
16.57,-0.158,1.129,0.038
16.58,0.039,0.567,-0.082
16.59,-0.408,0.875,-0.205
16.6,0.029,1.377,0.113
16.61,-0.316,1.372,-0.016
16.62,-0.03,0.457,-0.099
16.63,-0.418,0.748,-0.124
16.64,-0.132,1.277,0.185
16.65,-0.246,1.116,0.027
16.66,-0.217,0.867,-0.097
16.67,-0.342,0.312,-0.055
16.68,-0.077,1.435,0.205
16.69,-0.143,0.828,-0.016
16.7,-0.277,1.027,-0.121
16.71,-0.321,0.475,-0.064
16.72,-0.087,1.158,0.15
16.73,-0.225,1.107,-0.035
16.74,-0.149,0.591,-0.171
16.75,-0.295,1.121,-0.131
16.76,0.104,0.785,0.127
16.77,-0.281,1.381,-0.021
16.78,-0.116,0.427,-0.194
16.79,-0.312,1.645,-0.153
16.8,-0.053,0.771,0.106
16.81,-0.215,0.925,0.018
16.82,-0.348,0.766,-0.123
16.83,-0.267,1.281,-0.03
16.84,-0.248,1.042,0.111
16.85,-0.106,0.667,0.012
16.86,-0.417,0.891,-0.165
16.87,-0.211,1.237,0.018
16.88,-0.273,0.933,0.116
16.89,-0.151,0.934,0.005
16.9,-0.25,0.587,-0.167
16.91,-0.225,1.785,0.078
16.92,-0.114,0.559,0.142
16.93,-0.166,1.107,-0.009
16.94,-0.315,0.238,-0.249
16.95,-0.178,1.996,0.08
16.96,-0.11,0.683,0.089
16.97,-0.156,0.749,0.003
16.98,-0.483,0.593,-0.202
16.99,-0.118,1.656,0.111
17.0,-0.206,1.014,0.118
17.01,-0.005,0.427,0.022
17.02,-0.643,0.926,-0.144
17.03,-0.035,1.518,0.162
17.04,-0.164,1.095,0.079
17.05,0.061,0.569,-0.0
17.06,-0.528,0.593,-0.16
17.07,-0.031,1.899,0.175
17.08,-0.134,0.642,0.134
17.09,-0.105,0.99,-0.021
17.1,-0.465,0.237,-0.14
17.11,-0.169,2.0,0.181
17.12,-0.153,0.724,0.163
17.13,-0.136,0.795,-0.026
17.14,-0.439,0.535,-0.148
17.15,-0.125,1.581,0.163
17.16,-0.244,1.066,0.042
17.17,-0.083,0.678,-0.134
17.18,-0.441,0.751,-0.147
17.19,-0.022,1.114,0.218
17.2,-0.361,1.487,-0.02
17.21,-0.033,0.389,-0.098
17.22,-0.491,0.865,-0.106
17.23,-0.08,1.152,0.247
17.24,-0.243,1.2,0.032
17.25,-0.235,0.724,-0.105
17.26,-0.317,0.559,-0.055
17.27,-0.11,1.3,0.152
17.28,-0.108,0.79,-0.013
17.29,-0.291,0.995,-0.127
17.3,-0.28,0.662,-0.042
17.31,-0.113,1.145,0.177
17.32,-0.202,0.947,-0.013
17.33,-0.251,0.695,-0.166
17.34,-0.367,0.999,-0.075
17.35,-0.002,0.805,0.124
17.36,-0.288,1.41,-0.015
17.37,-0.127,0.29,-0.157
17.38,-0.341,1.789,-0.068
17.39,-0.019,0.642,0.118
17.4,-0.248,1.028,-0.002
17.41,-0.299,0.61,-0.144
17.42,-0.208,1.543,0.04
17.43,-0.171,1.141,0.17
17.44,-0.025,0.427,0.07
17.45,-0.565,0.931,-0.174
17.46,-0.272,1.414,0.161
17.47,-0.392,0.916,0.139
17.48,-0.152,0.747,0.059
17.49,-0.469,0.598,-0.162
17.5,-0.164,1.828,0.115
17.51,-0.123,0.617,0.139
17.52,-0.148,0.933,0.014
17.53,-0.384,0.216,-0.124
17.54,-0.188,2.0,0.099
17.55,0.009,0.624,0.142
17.56,-0.049,0.916,-0.065
17.57,-0.556,0.439,-0.167
17.58,-0.012,1.777,0.179
17.59,-0.219,1.069,0.027
17.6,0.024,0.398,-0.092
17.61,-0.508,0.906,-0.177
17.62,0.04,1.523,0.136
17.63,-0.17,1.243,0.075
17.64,0.024,0.525,-0.068
17.65,-0.43,0.664,-0.177
17.66,-0.086,1.624,0.108
17.67,-0.075,0.899,-0.055
17.68,-0.097,1.058,-0.107
17.69,-0.324,0.182,-0.118
17.7,-0.124,1.908,0.161
17.71,-0.131,0.789,0.031
17.72,-0.187,0.952,-0.071
17.73,-0.405,0.377,-0.138
17.74,-0.125,1.388,0.203
17.75,-0.314,1.274,-0.035
17.76,-0.072,0.506,-0.124
17.77,-0.071,0.927,0.019
17.78,-0.386,0.347,-0.195
17.79,-0.058,2.0,0.073
17.8,0.116,0.613,0.086
17.81,-0.142,0.954,-0.021
17.82,-0.414,0.199,-0.203
17.83,-0.066,1.954,0.132
17.84,-0.043,0.86,0.045
17.85,-0.037,0.61,-0.023
17.86,-0.5,0.784,-0.232
17.87,-0.01,1.521,0.228
17.88,-0.283,1.164,0.12
17.89,0.042,0.493,-0.068
17.9,-0.44,0.951,-0.152
17.91,-0.101,1.375,0.116
17.92,-0.28,1.34,0.033
17.93,-0.035,0.518,-0.15
17.94,-0.376,0.591,-0.123
17.95,-0.031,1.318,0.111
17.96,-0.101,1.047,-0.017
17.97,-0.268,0.972,-0.157
17.98,-0.268,0.194,-0.072
17.99,-0.167,1.519,0.258
18.0,-0.177,0.869,0.045
18.01,-0.258,0.975,-0.155
18.02,-0.378,0.495,-0.045
18.03,-0.03,1.077,0.192
18.04,-0.319,1.368,-0.011
18.05,-0.095,0.406,-0.141
18.06,-0.223,1.707,-0.107
18.07,0.075,0.708,0.079
18.08,-0.276,1.143,-0.032
18.09,-0.243,0.537,-0.215
18.1,-0.268,1.622,-0.102
18.11,-0.074,0.864,0.085
18.12,-0.171,0.821,-0.005
18.13,-0.405,0.881,-0.173
18.14,-0.247,1.257,0.029
18.15,-0.276,1.046,0.188
18.16,-0.157,0.638,0.037
18.17,-0.338,0.854,-0.129
18.18,-0.123,1.509,0.039
18.19,-0.032,0.901,0.131
18.2,-0.222,0.765,0.017
18.21,-0.405,0.357,-0.141
18.22,-0.292,2.0,0.109
18.23,-0.086,0.532,0.102
18.24,-0.245,1.025,-0.006
18.25,-0.396,0.244,-0.186
18.26,-0.164,2.0,0.068
18.27,-0.152,0.735,0.11
18.28,-0.144,0.577,-0.019
18.29,-0.508,0.735,-0.148
18.3,-0.099,1.57,0.175
18.31,-0.112,1.213,0.138
18.32,0.025,0.393,-0.021
18.33,-0.448,0.894,-0.18
18.34,0.021,1.538,0.158
18.35,-0.114,1.094,0.044
18.36,-0.025,0.789,-0.077
18.37,-0.335,0.439,-0.208
18.38,-0.085,1.937,0.101
18.39,-0.022,0.713,0.088
18.4,-0.126,0.995,-0.063
18.41,-0.374,0.196,-0.109
18.42,-0.189,1.635,0.158
18.43,-0.254,0.969,0.034
18.44,-0.103,0.742,-0.118
18.45,-0.416,0.657,-0.114
18.46,-0.053,1.199,0.219
18.47,-0.373,1.374,0.008
18.48,-0.001,0.446,-0.068
18.49,-0.596,0.876,-0.036
18.5,-0.032,1.027,0.287
18.51,-0.416,1.347,0.009
18.52,-0.118,0.636,-0.106
18.53,-0.444,0.66,-0.02
18.54,-0.051,1.282,0.154
18.55,-0.219,0.764,0.017
18.56,-0.26,1.09,-0.166
18.57,-0.277,0.613,-0.051
18.58,-0.039,1.174,0.146
18.59,-0.19,0.854,-0.021
18.6,-0.301,0.751,-0.132
18.61,-0.23,1.307,-0.091
18.62,-0.001,0.801,0.167
18.63,-0.184,1.239,-0.035
18.64,-0.306,0.438,-0.177
18.65,-0.279,1.83,-0.058
18.66,-0.029,0.655,0.128
18.67,-0.173,1.131,0.009
18.68,-0.351,0.539,-0.16
18.69,-0.242,1.614,-0.012
18.7,-0.108,0.671,0.137
18.71,-0.094,0.813,0.017
18.72,-0.485,0.681,-0.235
18.73,-0.058,1.521,0.067
18.74,-0.127,1.149,0.133
18.75,0.004,0.423,0.025
18.76,-0.51,0.893,-0.223
18.77,-0.055,1.569,0.068
18.78,-0.103,1.001,0.129
18.79,-0.052,0.675,-0.001
18.8,-0.484,0.507,-0.161
18.81,-0.133,1.938,0.143
18.82,-0.06,0.579,0.114
18.83,-0.173,1.001,-0.003
18.84,-0.45,0.228,-0.113
18.85,-0.194,2.0,0.165
18.86,-0.074,0.778,0.138
18.87,-0.054,0.727,-0.001
18.88,-0.431,0.663,-0.147
18.89,-0.036,1.612,0.174
18.9,-0.15,1.187,0.096
18.91,0.056,0.487,-0.055
18.92,-0.482,0.941,-0.195
18.93,0.026,1.545,0.174
18.94,-0.221,1.154,0.036
18.95,0.037,0.626,-0.031
18.96,-0.403,0.53,-0.189
18.97,-0.119,1.703,0.128
18.98,-0.177,0.835,0.038
18.99,-0.153,1.008,-0.082
19.0,-0.341,0.161,-0.112
19.01,-0.142,1.831,0.174
19.02,-0.163,0.834,0.039
19.03,-0.16,0.838,-0.105
19.04,-0.431,0.58,-0.198
19.05,-0.143,1.298,0.222
19.06,-0.33,1.373,0.023
19.07,-0.003,0.386,-0.101
19.08,-0.488,0.975,-0.096
19.09,0.028,0.944,0.203
19.1,-0.307,1.309,-0.034
19.11,-0.231,0.731,-0.125
19.12,-0.391,0.573,-0.011
19.13,-0.138,1.266,0.238
19.14,-0.191,0.953,0.026
19.15,-0.292,0.962,-0.144
19.16,-0.347,0.393,-0.045
19.17,-0.11,1.319,0.181
19.18,-0.241,0.876,0.016
19.19,-0.187,0.844,-0.137
19.2,-0.273,1.317,-0.116
19.21,0.012,0.882,0.162
19.22,-0.249,1.124,-0.043
19.23,-0.257,0.433,-0.196
19.24,-0.281,1.578,-0.041
19.25,-0.026,0.7,0.137
19.26,-0.219,1.222,0.006
19.27,-0.268,0.495,-0.167
19.28,-0.393,1.56,0.019
19.29,-0.109,0.852,0.138
19.3,-0.184,0.757,0.011
19.31,-0.388,0.877,-0.16
19.32,-0.222,1.384,0.064
19.33,-0.21,1.1,0.224
19.34,-0.097,0.498,0.059
19.35,-0.543,0.826,-0.155
19.36,-0.297,1.576,0.107
19.37,-0.235,0.714,0.118
19.38,-0.159,1.011,-0.003
19.39,-0.411,0.334,-0.19
19.4,-0.287,2.0,0.109
19.41,-0.127,0.499,0.151
19.42,-0.246,1.004,0.009
19.43,-0.374,0.242,-0.164
19.44,-0.138,1.911,0.062
19.45,-0.07,0.844,0.132
19.46,-0.075,0.592,-0.036
19.47,-0.531,0.775,-0.195
19.48,0.023,1.567,0.149
19.49,-0.227,1.119,0.052
19.5,0.017,0.438,-0.053
19.51,-0.495,0.923,-0.164
19.52,-0.011,1.46,0.122
19.53,-0.191,1.255,0.045
19.54,0.006,0.594,-0.047
19.55,-0.47,0.57,-0.125
19.56,-0.096,1.636,0.134
19.57,-0.177,0.858,0.035
19.58,-0.129,0.994,-0.135
19.59,-0.428,0.204,-0.123
19.6,-0.195,1.631,0.174
19.61,-0.253,0.866,0.043
19.62,-0.208,0.935,-0.081
19.63,-0.433,0.513,-0.061
19.64,-0.173,1.2,0.272
19.65,-0.369,1.31,0.031
19.66,-0.17,0.487,-0.089
19.67,-0.466,0.976,0.005
19.68,0.039,0.883,0.212
19.69,-0.322,1.454,0.039
19.7,-0.198,0.461,-0.15
19.71,-0.295,1.079,0.013
19.72,-0.052,1.024,0.164
19.73,-0.192,0.866,-0.049
19.74,-0.24,0.894,-0.17
19.75,-0.243,0.823,-0.069
19.76,-0.052,1.17,0.104
19.77,-0.126,0.729,-0.041
19.78,-0.296,0.945,-0.181
19.79,-0.227,1.435,0.012
19.8,-0.087,0.827,0.15
19.81,-0.174,0.943,-0.01
19.82,-0.322,0.415,-0.199
19.83,-0.402,1.919,0.102
19.84,-0.093,0.562,0.111
19.85,-0.32,1.098,0.033
19.86,-0.432,0.279,-0.176
19.87,-0.316,1.946,0.101
19.88,-0.222,0.67,0.093
19.89,-0.037,0.728,0.033
19.9,-0.574,0.686,-0.206
19.91,0.065,1.508,0.023
19.92,-0.16,1.244,0.098
19.93,0.052,0.346,-0.015
19.94,-0.565,0.817,-0.178
19.95,0.028,1.663,0.122
19.96,-0.219,0.906,0.107
19.97,0.049,0.737,-0.083
19.98,-0.517,0.398,-0.148
19.99,-0.061,2.0,0.162
20.0,-0.147,0.6,0.072
20.01,-0.049,1.017,-0.057
20.02,-0.321,0.255,-0.144
20.03,-0.104,1.979,0.094
20.04,-0.064,0.808,0.037
20.05,-0.014,0.741,-0.11
20.06,-0.388,0.67,-0.201
20.07,-0.046,1.425,0.136
20.08,-0.257,1.383,-0.008
20.09,0.02,0.445,-0.098
20.1,-0.424,0.877,-0.177
20.11,-0.071,1.318,0.205
20.12,-0.329,1.268,-0.003
20.13,-0.132,0.735,-0.126
20.14,-0.377,0.398,-0.049
20.15,-0.207,1.453,0.217
20.16,-0.232,0.909,0.029
20.17,-0.311,1.015,-0.096
20.18,-0.317,0.334,0.046
20.19,-0.085,1.296,0.189
20.2,-0.241,0.963,0.003
20.21,-0.305,0.774,-0.135
20.22,-0.271,0.949,-0.054
20.23,0.015,0.848,0.119
20.24,-0.274,1.33,-0.025
20.25,-0.146,0.412,-0.192
20.26,-0.317,1.756,0.012
20.27,-0.028,0.621,0.138
20.28,-0.231,1.11,-0.018
20.29,-0.298,0.567,-0.218
20.3,-0.256,1.643,0.038
20.31,-0.083,0.757,0.082
20.32,-0.144,0.678,-0.017
20.33,-0.51,0.745,-0.212
20.34,-0.049,1.543,0.099
20.35,-0.293,1.05,0.131
20.36,0.002,0.41,0.007
20.37,-0.573,0.899,-0.161
20.38,-0.046,1.567,0.177
20.39,-0.146,0.975,0.134
20.4,-0.045,0.679,-0.026
20.41,-0.509,0.424,-0.123
20.42,-0.181,1.918,0.142
20.43,-0.098,0.717,0.133
20.44,-0.156,1.072,-0.014
20.45,-0.352,0.229,-0.162
20.46,-0.072,1.906,0.14
20.47,-0.135,0.903,0.074
20.48,-0.146,0.745,-0.058
20.49,-0.402,0.646,-0.162
20.5,-0.113,1.42,0.146
20.51,-0.381,1.407,0.053
20.52,-0.032,0.388,-0.06
20.53,-0.461,0.875,-0.093
20.54,-0.012,1.039,0.154
20.55,-0.278,1.333,-0.005
20.56,-0.215,0.706,-0.136
20.57,-0.372,0.466,0.001
20.58,-0.111,1.371,0.238
20.59,-0.19,0.953,0.014
20.6,-0.269,0.978,-0.106
20.61,-0.352,0.409,-0.024
20.62,-0.075,1.269,0.174
20.63,-0.257,0.919,-0.014
20.64,-0.237,0.793,-0.131
20.65,-0.278,1.433,-0.073
20.66,-0.009,0.716,0.135
20.67,-0.329,1.218,-0.025
20.68,-0.235,0.384,-0.199
20.69,-0.38,1.703,0.027
20.7,-0.067,0.653,0.184
20.71,-0.241,1.147,-0.042
20.72,-0.299,0.507,-0.184
20.73,-0.28,1.629,0.084
20.74,-0.155,0.857,0.119
20.75,-0.019,0.646,-0.027
20.76,-0.467,0.898,-0.248
20.77,0.052,1.447,0.017
20.78,-0.061,1.166,0.05
20.79,0.086,0.506,-0.046
20.8,-0.5,0.71,-0.236
20.81,0.01,1.743,0.08
20.82,-0.116,0.746,0.087
20.83,-0.046,0.9,-0.064
20.84,-0.399,0.256,-0.153
20.85,-0.206,2.0,0.195
20.86,-0.073,0.622,0.148
20.87,-0.069,0.926,-0.079
20.88,-0.318,0.394,-0.188
20.89,-0.113,1.722,0.064
20.9,-0.153,1.05,0.028
20.91,-0.013,0.564,-0.091
20.92,-0.38,0.797,-0.151
20.93,-0.052,1.322,0.162
20.94,-0.328,1.41,0.066
20.95,-0.12,0.488,-0.03
20.96,-0.58,0.729,-0.027
20.97,-0.163,1.511,0.25
20.98,-0.262,1.121,0.11
20.99,-0.093,0.828,-0.115
21.0,-0.34,0.263,-0.074
21.01,-0.073,1.53,0.171
21.02,-0.239,0.885,0.07
21.03,-0.252,1.008,-0.131
21.04,-0.238,0.6,-0.046
21.05,-0.044,1.129,0.155
21.06,-0.25,1.053,-0.001
21.07,-0.255,0.61,-0.152
21.08,-0.386,0.984,-0.076
21.09,0.043,0.785,0.088
21.1,-0.261,1.5,-0.045
21.11,-0.205,0.276,-0.132
21.12,-0.285,1.912,0.077
21.13,-0.094,0.525,0.148
21.14,-0.194,1.053,0.002
21.15,-0.42,0.474,-0.172
21.16,-0.109,1.749,0.073
21.17,-0.183,1.029,0.135
21.18,-0.039,0.487,-0.015
21.19,-0.552,0.871,-0.195
21.2,-0.057,1.541,0.075
21.21,-0.408,0.951,0.06
21.22,-0.054,0.584,-0.004
21.23,-0.519,0.673,-0.17
21.24,0.087,1.754,0.074
21.25,-0.031,0.844,0.142
21.26,-0.032,0.784,-0.073
21.27,-0.463,0.241,-0.13
21.28,-0.166,1.964,0.176
21.29,-0.084,0.643,0.155
21.3,-0.173,1.031,-0.034
21.31,-0.417,0.369,-0.195
21.32,-0.058,1.832,0.162
21.33,-0.183,1.072,0.003
21.34,0.058,0.537,-0.052
21.35,-0.446,0.864,-0.157
21.36,-0.05,1.365,0.156
21.37,-0.378,1.377,0.043
21.38,-0.063,0.493,-0.03
21.39,-0.505,0.701,-0.076
21.4,-0.221,1.247,0.241
21.41,-0.29,1.135,0.078
21.42,-0.311,0.853,-0.098
21.43,-0.279,0.274,-0.008
21.44,-0.238,1.514,0.241
21.45,-0.134,0.89,-0.03
21.46,-0.162,0.979,-0.127
21.47,-0.228,0.541,-0.116
21.48,-0.011,1.089,0.119
21.49,-0.181,1.11,-0.102
21.5,-0.206,0.584,-0.181
21.51,-0.305,1.55,-0.07
21.52,-0.049,0.689,0.169
21.53,-0.318,1.267,0.017
21.54,-0.284,0.381,-0.178
21.55,-0.324,1.785,0.039
21.56,-0.151,0.74,0.123
21.57,-0.165,0.825,0.044
21.58,-0.408,0.656,-0.179
21.59,-0.205,1.523,0.086
21.6,-0.304,0.986,0.107
21.61,-0.006,0.517,-0.018
21.62,-0.532,0.841,-0.224
21.63,0.065,1.571,-0.037
21.64,-0.194,0.97,0.09
21.65,-0.038,0.647,0.025
21.66,-0.568,0.469,-0.15
21.67,-0.127,1.956,0.178
21.68,-0.114,0.666,0.154
21.69,-0.076,1.034,-0.043
21.7,-0.385,0.24,-0.137
21.71,-0.065,2.0,0.172
21.72,-0.051,0.724,0.045
21.73,-0.085,0.799,-0.105
21.74,-0.391,0.564,-0.183
21.75,-0.013,1.65,0.134
21.76,-0.196,1.239,0.062
21.77,0.03,0.461,-0.074
21.78,-0.489,0.864,-0.166
21.79,-0.027,1.317,0.159
21.8,-0.362,1.354,-0.045
21.81,-0.005,0.657,-0.111
21.82,-0.466,0.481,-0.051
21.83,-0.238,1.476,0.276
21.84,-0.211,0.998,0.046
21.85,-0.204,0.959,-0.121
21.86,-0.226,0.289,-0.041
21.87,-0.129,1.345,0.091
21.88,-0.17,0.892,-0.057
21.89,-0.24,0.875,-0.159
21.9,-0.182,0.966,-0.12
21.91,-0.006,0.845,0.074
21.92,-0.241,1.238,-0.09
21.93,-0.334,0.58,-0.121
21.94,-0.338,1.788,0.098
21.95,-0.065,0.524,0.133
21.96,-0.253,1.16,-0.005
21.97,-0.28,0.211,-0.263
21.98,-0.208,1.984,0.088
21.99,-0.001,0.682,0.069
22.0,-0.167,0.753,-0.053
22.01,-0.432,0.615,-0.234
22.02,-0.044,1.616,0.102
22.03,-0.146,1.105,0.137
22.04,0.03,0.348,-0.059
22.05,-0.547,0.921,-0.193
22.06,-0.038,1.529,0.175
22.07,-0.16,1.055,0.093
22.08,0.026,0.699,-0.053
22.09,-0.485,0.544,-0.163
22.1,-0.037,1.858,0.121
22.11,-0.138,0.705,0.06
22.12,-0.134,1.008,-0.059
22.13,-0.363,0.143,-0.109
22.14,-0.181,1.691,0.115
22.15,-0.275,0.903,0.021
22.16,-0.148,0.83,-0.066
22.17,-0.397,0.584,-0.075
22.18,-0.07,1.194,0.229
22.19,-0.319,1.298,-0.041
22.2,-0.05,0.499,-0.159
22.21,-0.397,1.015,-0.081
22.22,0.093,0.809,0.186
22.23,-0.352,1.461,-0.025
22.24,-0.24,0.461,-0.066
22.25,-0.294,1.201,-0.07
22.26,-0.094,1.047,0.121
22.27,-0.187,0.702,-0.022
22.28,-0.454,1.019,-0.086
22.29,-0.375,0.855,0.113
22.3,-0.282,1.079,0.179
22.31,-0.138,0.839,0.016
22.32,-0.325,0.781,-0.159
22.33,-0.206,1.556,0.085
22.34,-0.156,0.66,0.122
22.35,-0.261,1.007,0.013
22.36,-0.336,0.303,-0.151
22.37,-0.183,2.0,0.112
22.38,-0.036,0.539,0.111
22.39,-0.141,0.99,-0.039
22.4,-0.555,0.291,-0.175
22.41,-0.03,1.892,0.174
22.42,-0.168,0.911,0.064
22.43,-0.019,0.482,-0.063
22.44,-0.577,0.822,-0.148
22.45,0.04,1.494,0.188
22.46,-0.183,1.282,0.094
22.47,0.078,0.436,-0.007
22.48,-0.555,0.79,-0.186
22.49,-0.092,1.48,0.137
22.5,-0.19,1.094,-0.02
22.51,-0.118,0.894,-0.08
22.52,-0.311,0.249,-0.102
22.53,-0.219,1.773,0.202
22.54,-0.152,0.797,0.003
22.55,-0.175,1.113,-0.088
22.56,-0.304,0.277,-0.09
22.57,-0.198,1.394,0.24
22.58,-0.317,1.119,-0.061
22.59,-0.084,0.633,-0.09
22.6,-0.484,0.953,-0.038
22.61,0.079,0.816,0.19
22.62,-0.432,1.402,-0.071
22.63,-0.139,0.37,-0.147
22.64,-0.295,1.275,-0.051
22.65,0.05,0.867,0.101
22.66,-0.237,1.003,-0.022
22.67,-0.337,0.79,-0.178
22.68,-0.198,1.366,0.017
22.69,-0.237,1.077,0.159
22.7,-0.142,0.531,0.056
22.71,-0.462,0.993,-0.121
22.72,-0.213,1.474,0.063
22.73,-0.135,1.137,0.12
22.74,0.026,0.528,-0.04
22.75,-0.603,0.687,-0.184
22.76,0.011,1.796,0.087
22.77,-0.248,0.732,0.107
22.78,-0.062,0.843,-0.018
22.79,-0.524,0.208,-0.111
22.8,-0.131,2.0,0.224
22.81,-0.059,0.582,0.14
22.82,-0.106,0.929,-0.074
22.83,-0.416,0.304,-0.179
22.84,-0.083,1.778,0.1
22.85,-0.182,1.07,0.058
22.86,0.033,0.561,-0.118
22.87,-0.405,0.846,-0.143
22.88,-0.098,1.287,0.18
22.89,-0.269,1.343,0.081
22.9,-0.18,0.344,-0.079
22.91,-0.471,0.762,-0.126
22.92,-0.044,1.211,0.128
22.93,-0.233,1.138,-0.031
22.94,-0.177,0.799,-0.121
22.95,-0.332,0.364,-0.045
22.96,-0.115,1.429,0.184
22.97,-0.168,0.83,0.002
22.98,-0.264,1.066,-0.152
22.99,-0.337,0.546,-0.063
23.0,-0.064,1.094,0.158
23.01,-0.219,1.119,-0.031
23.02,-0.213,0.59,-0.161
23.03,-0.292,1.556,-0.021
23.04,-0.009,0.671,0.134
23.05,-0.293,1.272,-0.001
23.06,-0.284,0.407,-0.151
23.07,-0.337,1.768,0.045
23.08,-0.108,0.693,0.168
23.09,-0.238,0.882,-0.001
23.1,-0.309,0.748,-0.168
23.11,-0.161,1.542,0.056
23.12,-0.242,0.996,0.167
23.13,0.029,0.484,0.006
23.14,-0.599,0.928,-0.162
23.15,-0.01,1.579,0.059
23.16,-0.299,0.882,0.123
23.17,-0.055,0.712,0.027
23.18,-0.492,0.538,-0.151
23.19,-0.099,1.906,0.088
23.2,-0.032,0.617,0.145
23.21,-0.098,0.978,-0.045
23.22,-0.423,0.192,-0.143
23.23,-0.203,1.931,0.125
23.24,-0.083,0.766,0.138
23.25,-0.105,0.813,-0.053
23.26,-0.433,0.603,-0.183
23.27,-0.004,1.636,0.185
23.28,-0.198,1.13,0.072
23.29,0.071,0.436,-0.037
23.3,-0.563,0.913,-0.185
23.31,-0.069,1.35,0.193
23.32,-0.308,1.289,0.014
23.33,-0.058,0.596,-0.095
23.34,-0.364,0.5,-0.089
23.35,-0.146,1.547,0.133
23.36,-0.092,0.922,0.011
23.37,-0.255,1.022,-0.113
23.38,-0.353,0.179,-0.103
23.39,-0.24,1.647,0.226
23.4,-0.167,0.944,0.031
23.41,-0.252,0.746,-0.133
23.42,-0.292,0.612,-0.122
23.43,-0.069,1.055,0.116
23.44,-0.303,1.34,-0.046
23.45,-0.103,0.469,-0.187
23.46,-0.29,1.239,-0.111
23.47,0.069,0.83,0.121
23.48,-0.223,1.185,-0.005
23.49,-0.319,0.632,-0.164
23.5,-0.277,0.96,-0.035
23.51,-0.148,1.023,0.119
23.52,-0.153,0.854,-0.014
23.53,-0.324,0.879,-0.132
23.54,-0.165,1.468,0.024
23.55,-0.176,1.066,0.164
23.56,-0.009,0.495,0.019
23.57,-0.55,0.929,-0.194
23.58,-0.109,1.489,0.091
23.59,-0.193,0.965,0.101
23.6,-0.037,0.696,0.024
23.61,-0.517,0.601,-0.195
23.62,-0.09,1.922,0.086
23.63,-0.144,0.584,0.104
23.64,-0.152,1.012,0.025
23.65,-0.469,0.216,-0.155
23.66,-0.19,1.973,0.136
23.67,0.007,0.768,0.119
23.68,-0.052,0.779,-0.017
23.69,-0.489,0.548,-0.172
23.7,-0.075,1.604,0.185
23.71,-0.151,1.136,0.125
23.72,0.007,0.467,-0.042
23.73,-0.583,0.94,-0.169
23.74,-0.007,1.514,0.226
23.75,-0.281,1.142,0.103
23.76,0.003,0.636,0.006
23.77,-0.454,0.542,-0.121
23.78,-0.137,1.786,0.129
23.79,-0.152,0.843,0.071
23.8,-0.186,1.001,-0.073
23.81,-0.266,0.163,-0.103
23.82,-0.196,1.847,0.118
23.83,-0.124,0.784,0.05
23.84,-0.131,0.907,-0.153
23.85,-0.399,0.559,-0.108
23.86,-0.152,1.437,0.215
23.87,-0.346,1.338,0.058
23.88,-0.118,0.371,-0.05
23.89,-0.424,0.991,-0.04
23.9,-0.015,0.945,0.183
23.91,-0.342,1.383,-0.028
23.92,-0.268,0.639,-0.109
23.93,-0.337,0.769,-0.005
23.94,-0.065,1.152,0.225
23.95,-0.113,0.875,0.051
23.96,-0.369,0.948,-0.137
23.97,-0.309,0.488,-0.036
23.98,-0.16,1.243,0.152
23.99,-0.162,0.828,-0.068
24.0,-0.269,0.785,-0.134
24.01,-0.26,1.271,-0.1
24.02,-0.028,0.832,0.151
24.03,-0.203,1.119,-0.046
24.04,-0.307,0.461,-0.231
24.05,-0.297,1.877,-0.024
24.06,-0.072,0.609,0.113
24.07,-0.25,1.13,0.005
24.08,-0.333,0.392,-0.183
24.09,-0.292,1.761,0.039
24.1,-0.103,0.765,0.098
24.11,-0.071,0.717,-0.002
24.12,-0.478,0.789,-0.229
24.13,0.006,1.469,0.099
24.14,-0.073,1.231,0.134
24.15,0.019,0.375,-0.028
24.16,-0.522,0.853,-0.225
24.17,-0.068,1.671,0.085
24.18,-0.176,0.809,0.14
24.19,0.078,0.908,-0.05
24.2,-0.586,0.349,-0.188
24.21,-0.048,2.0,0.211
24.22,-0.147,0.66,0.144
24.23,-0.08,0.966,-0.007
24.24,-0.458,0.251,-0.147
24.25,-0.102,1.92,0.215
24.26,-0.046,0.879,0.043
24.27,-0.026,0.6,-0.048
24.28,-0.425,0.798,-0.186
24.29,0.001,1.504,0.129
24.3,-0.198,1.207,0.017
24.31,0.076,0.45,-0.056
24.32,-0.466,0.87,-0.19
24.33,-0.07,1.423,0.14
24.34,-0.282,1.144,0.042
24.35,-0.086,0.549,-0.074
24.36,-0.444,0.63,-0.074
24.37,-0.073,1.27,0.205
24.38,-0.212,0.969,0.038
24.39,-0.314,1.005,-0.109
24.4,-0.294,0.289,-0.037
24.41,-0.134,1.433,0.193
24.42,-0.132,0.79,-0.001
24.43,-0.281,0.88,-0.155
24.44,-0.225,0.92,-0.062
24.45,-0.116,0.901,0.172
24.46,-0.204,1.172,-0.032
24.47,-0.266,0.409,-0.173
24.48,-0.229,1.63,-0.073
24.49,0.028,0.707,0.136
24.5,-0.224,1.222,-0.031
24.51,-0.305,0.485,-0.188
24.52,-0.236,1.482,-0.042
24.53,-0.136,0.911,0.144
24.54,-0.125,0.824,-0.002
24.55,-0.388,0.876,-0.181
24.56,-0.174,1.251,0.002
24.57,-0.234,1.042,0.126
24.58,-0.061,0.649,-0.009
24.59,-0.423,0.825,-0.148
24.6,-0.184,1.538,0.099
24.61,-0.203,0.798,0.113
24.62,-0.033,0.898,-0.012
24.63,-0.411,0.38,-0.21
24.64,-0.167,2.0,0.12
24.65,-0.115,0.516,0.088
24.66,-0.144,1.066,-0.005
24.67,-0.448,0.245,-0.188
24.68,-0.126,1.91,0.098
24.69,-0.175,0.785,0.096
24.7,-0.064,0.565,-0.036
24.71,-0.494,0.793,-0.203
24.72,0.015,1.53,0.116
24.73,-0.174,1.167,0.134
24.74,0.092,0.397,-0.029
24.75,-0.56,0.887,-0.158
24.76,-0.004,1.586,0.154
24.77,-0.163,0.959,0.088
24.78,-0.015,0.798,-0.051
24.79,-0.429,0.414,-0.156
24.8,-0.105,1.979,0.153
24.81,-0.064,0.623,0.089
24.82,-0.094,0.999,-0.086
24.83,-0.358,0.262,-0.193
24.84,-0.205,1.694,0.107
24.85,-0.214,0.967,0.052
24.86,-0.004,0.702,-0.101
24.87,-0.433,0.722,-0.193
24.88,0.005,1.317,0.165
24.89,-0.3,1.342,0.064
24.9,-0.043,0.407,-0.091
24.91,-0.483,0.882,-0.109
24.92,-0.111,1.306,0.223
24.93,-0.284,1.268,0.054
24.94,-0.091,0.67,-0.074
24.95,-0.429,0.469,-0.037
24.96,-0.055,1.391,0.166
24.97,-0.147,0.839,-0.03
24.98,-0.267,1.108,-0.183
24.99,-0.285,0.287,-0.063
25.0,-0.104,1.37,0.19
25.01,-0.263,0.98,0.037
25.02,-0.212,0.747,-0.141
25.03,-0.419,0.762,-0.059
25.04,0.059,0.875,0.156
25.05,-0.326,1.495,-0.039
25.06,-0.091,0.281,-0.118
25.07,-0.257,1.684,-0.093
25.08,0.004,0.742,0.144
25.09,-0.21,1.067,-0.013
25.1,-0.357,0.678,-0.156
25.11,-0.261,1.244,-0.01
25.12,-0.142,1.058,0.139
25.13,-0.056,0.682,0.044
25.14,-0.457,1.024,-0.177
25.15,-0.125,1.41,0.091
25.16,-0.322,1.01,0.152
25.17,-0.035,0.489,0.028
25.18,-0.441,0.807,-0.22
25.19,-0.004,1.555,-0.01
25.2,0.025,1.054,0.125
25.21,-0.057,0.71,-0.046
25.22,-0.449,0.384,-0.174
25.23,-0.205,1.998,0.118
25.24,-0.134,0.561,0.139
25.25,-0.206,1.051,0.024
25.26,-0.558,0.25,-0.152
25.27,-0.231,1.979,0.254
25.28,-0.147,0.733,0.109
25.29,-0.044,0.622,-0.047
25.3,-0.475,0.722,-0.165
25.31,-0.136,1.386,0.129
25.32,-0.26,1.291,0.139
25.33,0.05,0.455,-0.059
25.34,-0.506,0.921,-0.11
25.35,0.087,1.596,0.178
25.36,-0.116,1.068,0.073
25.37,-0.077,0.766,-0.105
25.38,-0.367,0.456,-0.22
25.39,-0.002,2.0,0.113
25.4,-0.089,0.766,-0.011
25.41,-0.062,0.981,-0.049
25.42,-0.254,0.209,-0.18
25.43,-0.245,1.669,0.12
25.44,-0.186,0.959,0.019
25.45,-0.205,0.748,-0.127
25.46,-0.364,0.659,-0.106
25.47,-0.12,1.227,0.226
25.48,-0.289,1.429,0.055
25.49,-0.127,0.411,-0.081
25.5,-0.435,0.906,-0.084
25.51,-0.059,1.045,0.231
25.52,-0.326,1.444,0.009
25.53,-0.144,0.568,-0.07
25.54,-0.331,0.74,-0.047
25.55,-0.043,1.21,0.128
25.56,-0.131,0.75,-0.002
25.57,-0.395,1.094,-0.115
25.58,-0.273,0.559,0.0
25.59,-0.135,1.208,0.17
25.6,-0.172,0.875,0.022
25.61,-0.337,0.748,-0.136
25.62,-0.304,1.138,0.005
25.63,-0.108,0.739,0.124
25.64,-0.265,1.336,-0.022
25.65,-0.24,0.255,-0.194
25.66,-0.277,1.916,0.025
25.67,-0.025,0.587,0.16
25.68,-0.154,1.001,0.01
25.69,-0.478,0.539,-0.215
25.7,-0.164,1.695,0.099
25.71,-0.236,0.894,0.136
25.72,0.031,0.572,-0.008
25.73,-0.544,0.933,-0.252
25.74,-0.029,1.446,0.09
25.75,-0.25,1.087,0.055
25.76,-0.04,0.529,-0.028
25.77,-0.488,0.67,-0.168
25.78,-0.025,1.797,0.087
25.79,-0.018,0.744,0.114
25.8,-0.024,0.938,-0.034
25.81,-0.415,0.244,-0.155
25.82,-0.201,2.0,0.172
25.83,-0.014,0.607,0.094
25.84,-0.115,1.041,-0.042
25.85,-0.379,0.391,-0.136
25.86,-0.074,1.806,0.187
25.87,-0.189,1.029,0.05
25.88,0.057,0.53,-0.082
25.89,-0.486,0.85,-0.145
25.9,-0.033,1.401,0.143
25.91,-0.294,1.339,0.004
25.92,-0.045,0.437,-0.083
25.93,-0.426,0.755,-0.139
25.94,-0.145,1.361,0.18
25.95,-0.249,1.053,0.016
25.96,-0.197,0.686,-0.115
25.97,-0.338,0.583,0.02
25.98,-0.063,1.235,0.143
25.99,-0.156,0.876,-0.027
26.0,-0.361,1.003,-0.187
26.01,-0.22,0.568,0.001
26.02,-0.167,1.17,0.189
26.03,-0.143,0.918,-0.039
26.04,-0.338,0.798,-0.176
26.05,-0.245,1.515,-0.027
26.06,-0.083,0.693,0.171
26.07,-0.253,1.111,0.0
26.08,-0.306,0.357,-0.168
26.09,-0.319,1.895,0.098
26.1,-0.116,0.56,0.143
26.11,-0.1,0.754,0.093
26.12,-0.025,0.744,-0.103
26.13,-0.408,0.411,-0.169
26.14,-0.099,1.856,0.101
26.15,-0.07,0.766,0.009
26.16,-0.152,0.96,-0.062
26.17,-0.37,0.219,-0.101
26.18,-0.219,1.584,0.202
26.19,-0.297,0.893,0.021
26.2,-0.078,0.844,-0.112
26.21,-0.414,0.661,-0.096
26.22,0.035,0.985,0.229
26.23,-0.35,1.407,-0.018
26.24,-0.075,0.378,-0.146
26.25,-0.331,1.136,-0.093
26.26,0.135,0.846,0.127
26.27,-0.22,1.26,-0.079
26.28,-0.234,0.656,-0.219
26.29,-0.219,1.253,-0.077
26.3,-0.083,1.083,0.111
26.31,-0.125,0.642,-0.019
26.32,-0.376,1.023,-0.171
26.33,-0.264,1.279,0.026
26.34,-0.219,1.01,0.156
26.35,-0.1,0.728,0.062
26.36,-0.376,0.791,-0.159
26.37,-0.209,1.67,0.098
26.38,-0.101,0.665,0.128
26.39,-0.14,1.021,-0.035
26.4,-0.331,0.212,-0.198
26.41,-0.216,2.0,0.069
26.42,-0.09,0.54,0.122
26.43,-0.139,0.948,-0.057
26.44,-0.475,0.335,-0.185
26.45,-0.04,1.827,0.119
26.46,-0.249,0.925,0.075
26.47,-0.073,0.601,-0.035
26.48,-0.527,0.733,-0.159
26.49,-0.063,1.496,0.163
26.5,-0.235,1.249,0.081
26.51,-0.016,0.425,-0.024
26.52,-0.46,0.887,-0.145
26.53,-0.078,1.416,0.174
26.54,-0.241,1.213,0.024
26.55,-0.164,0.748,-0.085
26.56,-0.337,0.422,-0.113
26.57,-0.159,1.655,0.178
26.58,-0.091,0.82,0.015
26.59,-0.292,0.999,-0.107
26.6,-0.401,0.23,-0.037
26.61,-0.178,1.439,0.196
26.62,-0.214,0.949,0.01
26.63,-0.193,0.746,-0.141
26.64,-0.314,0.877,-0.046
26.65,-0.014,0.894,0.166
26.66,-0.222,1.098,-0.061
26.67,-0.199,0.507,-0.209
26.68,-0.246,1.748,-0.082
26.69,0.006,0.6,0.144
26.7,-0.292,1.228,0.028
26.71,-0.264,0.425,-0.21
26.72,-0.236,1.75,0.017
26.73,-0.207,0.734,0.09
26.74,-0.035,0.759,-0.034
26.75,-0.498,0.757,-0.235
26.76,-0.013,1.499,0.1
26.77,-0.279,1.114,0.126
26.78,-0.004,0.43,0.047
26.79,-0.545,0.835,-0.172
26.8,0.028,1.628,0.061
26.81,-0.045,0.923,0.049
26.82,0.009,0.745,-0.071
26.83,-0.419,0.373,-0.143
26.84,-0.145,2.0,0.185
26.85,-0.143,0.567,0.122
26.86,-0.129,0.987,-0.015
26.87,-0.36,0.225,-0.132
26.88,-0.181,1.956,0.168
26.89,-0.083,0.81,0.094
26.9,-0.055,0.688,-0.016
26.91,-0.334,0.681,-0.188
26.92,-0.074,1.503,0.106
26.93,-0.257,1.318,0.004
26.94,-0.036,0.461,-0.071
26.95,-0.489,0.857,-0.103
26.96,-0.087,1.38,0.228
26.97,-0.331,1.241,0.125
26.98,-0.131,0.709,-0.071
26.99,-0.416,0.367,-0.044
27.0,-0.09,1.45,0.167
27.01,-0.17,0.918,-0.014
27.02,-0.275,1.022,-0.137
27.03,-0.271,0.491,-0.003
27.04,-0.094,1.295,0.162
27.05,-0.169,0.871,-0.005
27.06,-0.238,0.787,-0.155
27.07,-0.305,1.104,-0.103
27.08,0.036,0.806,0.128
27.09,-0.322,1.299,-0.058
27.1,-0.163,0.349,-0.136
27.11,-0.336,1.851,-0.057
27.12,0.018,0.629,0.101
27.13,-0.248,1.024,-0.019
27.14,-0.35,0.621,-0.142
27.15,-0.292,1.599,0.104
27.16,-0.155,0.954,0.133
27.17,-0.089,0.602,0.009
27.18,-0.466,0.912,-0.208
27.19,-0.102,1.38,0.076
27.2,-0.289,0.987,0.1
27.21,-0.123,0.603,0.002
27.22,-0.457,0.658,-0.177
27.23,0.01,1.868,0.031
27.24,-0.148,0.677,0.105
27.25,-0.13,0.937,-0.012
27.26,-0.519,0.192,-0.166
27.27,-0.14,2.0,0.182
27.28,-0.065,0.615,0.12
27.29,-0.131,0.91,-0.023
27.3,-0.459,0.443,-0.164
27.31,-0.08,1.745,0.173
27.32,-0.147,1.046,0.077
27.33,0.03,0.51,-0.053
27.34,-0.426,0.888,-0.194
27.35,0.043,1.478,0.076
27.36,-0.223,1.315,0.042
27.37,0.034,0.513,-0.067
27.38,-0.415,0.704,-0.135
27.39,-0.117,1.47,0.132
27.4,-0.213,1.008,0.042
27.41,-0.179,0.974,-0.088
27.42,-0.336,0.187,-0.053
27.43,-0.275,1.69,0.256
27.44,-0.227,0.899,0.049
27.45,-0.333,0.993,-0.089
27.46,-0.232,0.38,0.061
27.47,-0.119,1.214,0.165
27.48,-0.11,0.971,-0.044
27.49,-0.294,0.784,-0.144
27.5,-0.214,1.421,-0.016
27.51,-0.071,0.738,0.132
27.52,-0.312,1.214,-0.022
27.53,-0.233,0.329,-0.152
27.54,-0.382,1.851,0.063
27.55,-0.109,0.588,0.153
27.56,-0.234,1.022,-0.011
27.57,-0.322,0.52,-0.201
27.58,-0.136,1.68,0.065
27.59,-0.147,0.986,0.098
27.6,-0.003,0.489,-0.042
27.61,-0.515,0.895,-0.22
27.62,-0.001,1.52,0.072
27.63,-0.239,1.036,0.102
27.64,0.023,0.54,0.021
27.65,-0.543,0.684,-0.197
27.66,-0.003,1.824,0.144
27.67,-0.168,0.712,0.079
27.68,-0.005,0.916,-0.042
27.69,-0.416,0.248,-0.112
27.7,-0.081,2.0,0.139
27.71,-0.082,0.646,0.087
27.72,-0.051,0.972,-0.083
27.73,-0.362,0.403,-0.172
27.74,-0.042,1.694,0.146
27.75,-0.219,1.163,0.06
27.76,-0.04,0.548,-0.087
27.77,-0.475,0.849,-0.107
27.78,-0.061,1.316,0.177
27.79,-0.311,1.413,0.012
27.8,-0.023,0.503,-0.095
27.81,-0.422,0.652,-0.076
27.82,-0.033,1.26,0.153
27.83,-0.236,1.061,-0.056
27.84,-0.209,0.985,-0.158
27.85,-0.281,0.371,-0.01
27.86,-0.097,1.365,0.196
27.87,-0.156,0.829,-0.008
27.88,-0.373,1.038,-0.109
27.89,-0.229,0.668,-0.042
27.9,-0.027,0.982,0.122
27.91,-0.235,1.207,-0.071
27.92,-0.243,0.488,-0.211
27.93,-0.319,1.802,0.003
27.94,0.022,0.561,0.127
27.95,-0.323,1.171,-0.015
27.96,-0.368,0.375,-0.165
27.97,-0.358,1.872,0.13
27.98,-0.092,0.756,0.147
27.99,-0.073,0.749,0.0
28.0,-0.431,0.851,-0.27
28.01,-0.078,1.513,0.084
28.02,-0.131,1.07,0.095
28.03,0.065,0.484,-0.011
28.04,-0.614,0.812,-0.192
28.05,0.035,1.623,0.131
28.06,-0.201,0.941,0.136
28.07,-0.013,0.72,-0.042
28.08,-0.516,0.362,-0.153
28.09,-0.098,1.994,0.205
28.1,-0.113,0.61,0.116
28.11,-0.09,1.019,-0.07
28.12,-0.329,0.257,-0.179
28.13,-0.022,1.928,0.105
28.14,-0.125,0.857,-0.002
28.15,-0.053,0.726,-0.088
28.16,-0.426,0.66,-0.154
28.17,-0.083,1.371,0.151
28.18,-0.277,1.366,-0.006
28.19,-0.054,0.376,-0.078
28.2,-0.422,0.834,-0.091
28.21,-0.105,1.116,0.171
28.22,-0.235,1.313,-0.025
28.23,-0.194,0.678,-0.117
28.24,-0.329,0.454,-0.037
28.25,-0.109,1.377,0.19
28.26,-0.115,0.849,-0.026
28.27,-0.324,0.957,-0.167
28.28,-0.208,1.096,-0.028
28.29,-0.12,1.135,0.133
28.3,-0.14,0.672,0.031
28.31,-0.439,1.002,-0.149
28.32,-0.222,1.431,0.072
28.33,-0.124,0.855,0.151
28.34,-0.18,0.921,0.015
28.35,-0.33,0.46,-0.221
28.36,-0.261,1.957,0.136
28.37,-0.012,0.547,0.091
28.38,-0.252,1.016,0.009
28.39,-0.416,0.259,-0.184
28.4,-0.094,1.947,0.059
28.41,-0.043,0.779,0.092
28.42,-0.065,0.619,-0.06
28.43,-0.598,0.736,-0.192
28.44,-0.037,1.585,0.149
28.45,-0.25,1.136,0.115
28.46,0.083,0.439,0.008
28.47,-0.632,0.904,-0.164
28.48,0.002,1.566,0.183
28.49,-0.156,1.046,0.104
28.5,0.035,0.78,-0.033
28.51,-0.483,0.385,-0.163
28.52,-0.147,1.904,0.129
28.53,-0.038,0.746,0.046
28.54,-0.131,1.015,-0.108
28.55,-0.324,0.167,-0.155
28.56,-0.156,1.688,0.119
28.57,-0.215,0.99,-0.005
28.58,-0.085,0.729,-0.112
28.59,-0.472,0.682,-0.133
28.6,-0.029,1.146,0.226
28.61,-0.382,1.382,0.042
28.62,-0.125,0.377,-0.055
28.63,-0.451,0.954,-0.024
28.64,-0.051,0.954,0.214
28.65,-0.296,1.31,0.048
28.66,-0.2,0.654,-0.088
28.67,-0.334,0.588,0.011
28.68,-0.029,1.321,0.182
28.69,-0.078,0.802,-0.013
28.7,-0.43,1.05,-0.155
28.71,-0.171,0.592,-0.027
28.72,-0.204,1.155,0.166
28.73,-0.153,0.903,-0.036
28.74,-0.281,0.715,-0.135
28.75,-0.195,1.587,-0.055
28.76,-0.045,0.686,0.137
28.77,-0.169,1.153,-0.047
28.78,-0.289,0.364,-0.199
28.79,-0.311,1.773,0.041
28.8,-0.176,0.627,0.107
28.81,-0.214,1.094,-0.019
28.82,-0.327,0.463,-0.176
28.83,-0.225,1.621,0.091
28.84,-0.237,0.882,0.161
28.85,-0.026,0.542,0.006
28.86,-0.459,0.856,-0.165
28.87,0.006,1.471,0.011
28.88,-0.06,1.184,0.093
28.89,0.04,0.531,-0.026
28.9,-0.493,0.698,-0.205
28.91,-0.119,1.789,0.161
28.92,-0.255,0.659,0.074
28.93,-0.126,0.96,-0.008
28.94,-0.462,0.214,-0.123
28.95,-0.209,2.0,0.236
28.96,-0.082,0.586,0.118
28.97,-0.11,0.848,-0.013
28.98,-0.368,0.406,-0.114
28.99,-0.139,1.683,0.106
29.0,-0.159,1.037,0.055
29.01,-0.006,0.565,-0.073
29.02,-0.478,0.908,-0.151
29.03,0.038,1.461,0.213
29.04,-0.281,1.244,0.048
29.05,0.031,0.523,-0.052
29.06,-0.504,0.714,-0.181
29.07,-0.024,1.166,0.242
29.08,-0.454,1.299,0.02
29.09,-0.111,0.682,-0.083
29.1,-0.463,0.57,-0.01
29.11,-0.06,1.32,0.173
29.12,-0.233,0.724,0.036
29.13,-0.294,1.112,-0.115
29.14,-0.358,0.338,-0.033
29.15,-0.076,1.325,0.202
29.16,-0.214,0.981,0.006
29.17,-0.246,0.729,-0.144
29.18,-0.363,1.073,-0.028
29.19,-0.022,0.774,0.159
29.2,-0.248,1.38,-0.057
29.21,-0.157,0.375,-0.182
29.22,-0.257,1.799,-0.027
29.23,0.008,0.687,0.139
29.24,-0.221,1.06,0.003
29.25,-0.307,0.604,-0.185
29.26,-0.286,1.416,0.049
29.27,-0.148,0.989,0.132
29.28,-0.15,0.696,-0.032
29.29,-0.398,0.921,-0.17
29.3,-0.163,1.336,0.053
29.31,-0.212,0.988,0.155
29.32,-0.099,0.618,0.017
29.33,-0.445,0.717,-0.155
29.34,-0.072,1.707,0.057
29.35,0.001,0.845,0.154
29.36,-0.081,0.905,-0.021
29.37,-0.447,0.261,-0.188
29.38,-0.18,2.0,0.145
29.39,-0.181,0.564,0.122
29.4,-0.093,0.995,-0.008
29.41,-0.578,0.417,-0.186
29.42,-0.092,1.784,0.196
29.43,-0.128,0.983,0.111
29.44,-0.018,0.426,0.009
29.45,-0.437,0.896,-0.163
29.46,-0.12,1.406,0.115
29.47,-0.157,1.222,0.067
29.48,-0.009,0.535,-0.037
29.49,-0.436,0.773,-0.187
29.5,0.012,1.75,0.189
29.51,-0.196,0.799,0.093
29.52,-0.063,0.946,-0.064
29.53,-0.372,0.254,-0.188
29.54,-0.156,1.921,0.171
29.55,-0.198,0.825,0.094
29.56,-0.172,0.859,-0.032
29.57,-0.274,0.344,-0.141
29.58,-0.132,1.484,0.122
29.59,-0.275,1.1,0.002
29.6,-0.056,0.679,-0.135
29.61,-0.508,0.856,-0.087
29.62,-0.041,1.203,0.25
29.63,-0.3,1.493,-0.012
29.64,-0.081,0.37,-0.086
29.65,-0.477,0.887,-0.107
29.66,-0.062,1.111,0.182
29.67,-0.238,1.144,-0.012
29.68,-0.21,0.85,-0.082
29.69,-0.257,0.842,-0.036
29.7,-0.119,1.327,0.209
29.71,-0.106,0.574,0.025
29.72,-0.449,1.082,-0.123
29.73,-0.285,0.51,-0.048
29.74,-0.126,1.137,0.145
29.75,-0.235,1.186,-0.063
29.76,-0.168,0.508,-0.174
29.77,-0.384,1.546,0.048
29.78,0.012,0.605,0.138
29.79,-0.326,1.337,-0.006
29.8,-0.23,0.336,-0.156
29.81,-0.236,1.777,0.025
29.82,-0.066,0.774,0.19
29.83,-0.092,0.766,0.05
29.84,-0.547,0.73,-0.225
29.85,-0.131,1.539,0.043
29.86,-0.306,0.999,0.096
29.87,-0.019,0.564,0.037
29.88,-0.531,0.875,-0.171
29.89,0.031,1.495,0.134
29.9,-0.149,1.14,0.046
29.91,0.119,0.451,-0.047
29.92,-0.518,0.804,-0.145
29.93,-0.07,1.652,0.133
29.94,-0.08,0.893,0.119
29.95,-0.06,0.899,-0.101
29.96,-0.426,0.298,-0.121
29.97,-0.144,1.961,0.172
29.98,-0.064,0.634,0.104
29.99,-0.135,1.02,-0.048
30.0,-0.484,0.358,-0.137
30.01,-0.102,1.689,0.169
30.02,-0.284,1.163,-0.003
30.03,0.004,0.539,-0.089
30.04,-0.384,0.81,-0.138
30.05,-0.084,1.18,0.202
30.06,-0.385,1.474,0.089
30.07,-0.143,0.51,-0.041
30.08,-0.434,0.721,-0.033
30.09,-0.104,1.187,0.244
30.1,-0.214,1.214,0.018
30.11,-0.291,0.802,-0.129
30.12,-0.303,0.421,0.003
30.13,-0.105,1.345,0.131
30.14,-0.178,0.802,-0.02
30.15,-0.259,0.97,-0.166
30.16,-0.14,1.146,-0.097
30.17,-0.073,1.0,0.122
30.18,-0.203,0.905,-0.043
30.19,-0.334,0.601,-0.198
30.2,-0.256,1.718,-0.022
30.21,-0.092,0.634,0.157
30.22,-0.292,1.189,-0.04
30.23,-0.338,0.378,-0.164
30.24,-0.342,1.818,0.046
30.25,-0.101,0.664,0.172
30.26,-0.149,0.864,0.004
30.27,-0.391,0.711,-0.211
30.28,-0.023,1.556,0.031
30.29,-0.126,1.138,0.101
30.3,-0.038,0.393,-0.001
30.31,-0.497,0.922,-0.181
30.32,-0.082,1.54,0.1
30.33,-0.138,0.938,0.127
30.34,0.053,0.722,-0.061
30.35,-0.555,0.502,-0.182
30.36,-0.052,1.941,0.155
30.37,-0.152,0.608,0.089
30.38,-0.133,0.969,-0.041
30.39,-0.391,0.235,-0.17
30.4,-0.154,1.979,0.136
30.41,0.054,0.748,0.014
30.42,-0.068,0.846,-0.083
30.43,-0.332,0.567,-0.172
30.44,-0.123,1.549,0.164
30.45,-0.182,1.255,0.031
30.46,-0.006,0.488,-0.06
30.47,-0.458,0.898,-0.158
30.48,-0.07,1.421,0.182
30.49,-0.225,1.243,0.005
30.5,0.016,0.682,-0.114
30.51,-0.432,0.498,-0.098
30.52,-0.119,1.451,0.175
30.53,-0.219,0.924,-0.026
30.54,-0.219,0.985,-0.088
30.55,-0.32,0.253,-0.058
30.56,-0.115,1.382,0.219
30.57,-0.302,0.816,0.015
30.58,-0.276,0.897,-0.076
30.59,-0.382,0.627,-0.019
30.6,-0.019,0.998,0.195
30.61,-0.353,1.342,-0.007
30.62,-0.201,0.408,-0.126
30.63,-0.358,1.424,0.004
30.64,0.023,0.712,0.177
30.65,-0.341,1.259,0.003
30.66,-0.239,0.55,-0.121
30.67,-0.353,1.452,-0.023
30.68,-0.03,0.951,0.153
30.69,-0.215,0.878,0.005
30.7,-0.4,0.687,-0.29
30.71,-0.144,1.525,0.079
30.72,-0.242,0.985,0.089
30.73,-0.007,0.53,0.011
30.74,-0.494,0.88,-0.216
30.75,0.068,1.553,0.047
30.76,-0.093,1.039,0.121
30.77,-0.015,0.606,-0.075
30.78,-0.537,0.452,-0.169
30.79,0.008,1.966,0.07
30.8,-0.046,0.59,0.026
30.81,-0.045,1.017,-0.054
30.82,-0.469,0.229,-0.176
30.83,-0.082,2.0,0.18
30.84,-0.164,0.684,0.096
30.85,-0.095,0.712,-0.051
30.86,-0.469,0.652,-0.16
30.87,-0.14,1.471,0.135
30.88,-0.248,1.227,0.075
30.89,0.043,0.49,-0.081
30.9,-0.482,0.905,-0.081
30.91,-0.025,1.251,0.178
30.92,-0.236,1.256,0.025
30.93,-0.073,0.69,-0.122
30.94,-0.464,0.477,-0.11
30.95,-0.122,1.499,0.163
30.96,-0.234,0.929,0.014
30.97,-0.206,0.966,-0.069
30.98,-0.375,0.261,-0.018
30.99,-0.128,1.388,0.162
31.0,-0.235,0.93,0.001
31.01,-0.293,0.918,-0.13
31.02,-0.28,0.713,-0.05
31.03,0.057,0.965,0.136
31.04,-0.194,1.278,-0.079
31.05,-0.185,0.513,-0.187
31.06,-0.301,1.507,-0.046
31.07,-0.019,0.705,0.127
31.08,-0.321,1.204,-0.012
31.09,-0.264,0.484,-0.163
31.1,-0.262,1.649,0.002
31.11,-0.062,0.918,0.123
31.12,-0.165,0.666,-0.01
31.13,-0.419,0.96,-0.218
31.14,-0.153,1.359,0.035
31.15,-0.173,1.064,0.189
31.16,-0.084,0.535,0.014
31.17,-0.475,0.821,-0.234
31.18,-0.12,1.708,0.055
31.19,-0.147,0.708,0.09
31.2,-0.06,0.97,-0.018
31.21,-0.483,0.278,-0.214
31.22,-0.094,2.0,0.133
31.23,-0.047,0.67,0.078
31.24,-0.208,0.854,-0.036
31.25,-0.425,0.296,-0.168
31.26,-0.155,1.901,0.133
31.27,-0.065,0.895,0.11
31.28,-0.025,0.542,-0.06
31.29,-0.529,0.864,-0.182
31.3,-0.026,1.499,0.194
31.31,-0.205,1.218,0.067
31.32,0.04,0.442,-0.037
31.33,-0.401,0.838,-0.225
31.34,-0.041,1.505,0.07
31.35,-0.236,1.007,0.037
31.36,-0.097,0.85,-0.118
31.37,-0.296,0.233,-0.142
31.38,-0.186,1.761,0.182
31.39,-0.136,0.786,0.083
31.4,-0.326,0.971,-0.087
31.41,-0.404,0.301,-0.055
31.42,-0.179,1.467,0.261
31.43,-0.269,1.142,0.008
31.44,-0.127,0.577,-0.134
31.45,-0.432,0.894,-0.062
31.46,0.04,0.873,0.156
31.47,-0.369,1.406,0.014
31.48,-0.123,0.446,-0.143
31.49,-0.314,1.52,-0.056
31.5,0.024,0.719,0.149
31.51,-0.196,1.219,-0.006
31.52,-0.271,0.586,-0.223
31.53,-0.316,1.342,0.035
31.54,-0.202,0.877,0.168
31.55,-0.193,0.751,0.001
31.56,-0.393,0.883,-0.127
31.57,-0.205,1.36,0.099
31.58,-0.199,1.047,0.172
31.59,-0.077,0.574,0.059
31.6,-0.518,0.837,-0.158
31.61,-0.158,1.662,0.124
31.62,-0.154,0.749,0.142
31.63,-0.09,0.915,-0.01
31.64,-0.48,0.241,-0.19
31.65,-0.138,2.0,0.096
31.66,-0.167,0.514,0.086
31.67,-0.185,0.955,-0.037
31.68,-0.448,0.268,-0.166
31.69,-0.149,1.86,0.177
31.7,-0.084,0.93,0.105
31.71,-0.104,0.454,-0.058
31.72,-0.458,0.858,-0.14
31.73,-0.103,1.458,0.205
31.74,-0.218,1.284,0.129
31.75,-0.013,0.433,-0.014
31.76,-0.426,0.844,-0.159
31.77,-0.073,1.637,0.144
31.78,-0.133,0.931,0.033
31.79,-0.076,0.9,-0.102
31.8,-0.365,0.223,-0.131
31.81,-0.188,1.735,0.192
31.82,-0.208,0.79,0.02
31.83,-0.167,1.002,-0.105
31.84,-0.406,0.292,-0.116
31.85,-0.113,1.424,0.233
31.86,-0.312,1.087,-0.014
31.87,-0.102,0.662,-0.126
31.88,-0.444,0.822,-0.072
31.89,0.024,0.99,0.256
31.9,-0.362,1.487,0.04
31.91,-0.14,0.393,-0.142
31.92,-0.374,1.162,-0.055
31.93,0.05,0.86,0.149
31.94,-0.257,1.093,-0.015
31.95,-0.217,0.742,-0.222
31.96,-0.203,1.213,-0.099
31.97,-0.057,1.173,0.1
31.98,-0.069,0.578,0.006
31.99,-0.395,1.097,-0.167
32.0,-0.281,1.299,0.01
32.01,-0.178,0.91,0.122
32.02,-0.125,0.906,0.018
32.03,-0.391,0.56,-0.154
32.04,-0.271,1.849,0.127
32.05,-0.076,0.588,0.099
32.06,-0.154,1.102,0.013
32.07,-0.306,0.191,-0.274
32.08,-0.148,2.0,0.052
32.09,-0.021,0.762,0.1
32.1,-0.18,0.751,0.01
32.11,-0.44,0.574,-0.15
32.12,-0.165,1.724,0.139
32.13,-0.295,0.963,0.105
32.14,0.035,0.445,-0.062
32.15,-0.539,0.885,-0.203
32.16,0.042,1.572,0.105
32.17,-0.228,0.998,0.072
32.18,-0.059,0.562,-0.025
32.19,-0.509,0.56,-0.104
32.2,-0.109,1.846,0.085
32.21,-0.03,0.71,0.097
32.22,-0.019,1.027,-0.104
32.23,-0.311,0.203,-0.145
32.24,-0.098,1.951,0.08
32.25,-0.07,0.786,0.031
32.26,-0.158,0.848,-0.095
32.27,-0.376,0.502,-0.179
32.28,-0.113,1.549,0.136
32.29,-0.329,1.3,0.026
32.3,-0.104,0.531,-0.055
32.31,-0.391,0.833,-0.039
32.32,0.0,0.921,0.171
32.33,-0.364,1.462,0.003
32.34,-0.229,0.469,-0.195
32.35,-0.329,0.876,-0.04
32.36,-0.038,1.005,0.193
32.37,-0.226,1.204,-0.003
32.38,-0.218,0.812,-0.161
32.39,-0.277,0.823,-0.012
32.4,-0.121,1.146,0.167
32.41,-0.168,0.71,0.046
32.42,-0.332,1.041,-0.2
32.43,-0.122,1.261,-0.049
32.44,-0.025,1.018,0.115
32.45,-0.108,0.715,-0.019
32.46,-0.461,0.639,-0.162
32.47,-0.299,1.792,0.012
32.48,-0.221,0.596,0.125
32.49,-0.263,1.2,-0.009
32.5,-0.284,0.25,-0.189
32.51,-0.325,1.966,0.082
32.52,-0.088,0.563,0.098
32.53,-0.126,0.844,-0.013
32.54,-0.364,0.571,-0.246
32.55,-0.013,1.59,0.028
32.56,-0.079,1.194,0.126
32.57,0.005,0.397,-0.019
32.58,-0.563,0.837,-0.126
32.59,-0.074,1.631,0.126
32.6,-0.375,0.931,0.041
32.61,-0.017,0.642,-0.021
32.62,-0.562,0.544,-0.21
32.63,-0.041,1.844,0.172
32.64,-0.049,0.698,0.127
32.65,-0.11,0.903,-0.051
32.66,-0.344,0.173,-0.098
32.67,-0.295,1.871,0.131
32.68,0.023,0.785,0.015
32.69,-0.148,0.934,-0.139
32.7,-0.255,0.513,-0.181
32.71,-0.042,1.583,0.149
32.72,-0.202,1.26,0.058
32.73,0.025,0.493,-0.065
32.74,-0.487,0.91,-0.166
32.75,-0.063,1.186,0.22
32.76,-0.387,1.43,0.04
32.77,-0.122,0.495,-0.055
32.78,-0.372,0.617,-0.078
32.79,-0.106,1.243,0.199
32.8,-0.249,0.972,0.024
32.81,-0.335,1.057,-0.079
32.82,-0.344,0.307,0.041
32.83,-0.104,1.398,0.235
32.84,-0.186,0.892,0.002
32.85,-0.306,0.916,-0.185
32.86,-0.23,1.125,-0.069
32.87,-0.047,0.839,0.099
32.88,-0.286,1.209,-0.062
32.89,-0.183,0.412,-0.179
32.9,-0.327,1.867,-0.009
32.91,0.016,0.596,0.179
32.92,-0.25,1.123,0.061
32.93,-0.404,0.474,-0.214
32.94,-0.251,1.741,0.076
32.95,-0.171,0.837,0.11
32.96,-0.065,0.715,0.007
32.97,-0.411,0.834,-0.266
32.98,0.06,1.468,0.023
32.99,-0.159,1.112,0.045
33.0,-0.018,0.462,0.025
33.01,-0.428,0.767,-0.187
33.02,0.011,1.681,0.055
33.03,-0.045,0.94,0.081
33.04,-0.027,0.755,-0.053
33.05,-0.468,0.329,-0.15
33.06,-0.171,2.0,0.231
33.07,-0.192,0.534,0.122
33.08,-0.168,0.97,-0.053
33.09,-0.421,0.275,-0.113
33.1,-0.109,1.983,0.1
33.11,-0.115,0.794,0.055
33.12,-0.076,0.893,-0.073
33.13,-0.343,0.475,-0.134
33.14,-0.077,1.55,0.161
33.15,-0.263,1.238,0.027
33.16,-0.049,0.508,-0.108
33.17,-0.569,0.85,-0.09
33.18,-0.072,1.168,0.24
33.19,-0.388,1.461,-0.016
33.2,-0.125,0.495,-0.085
33.21,-0.354,0.69,-0.04
33.22,-0.051,1.178,0.132
33.23,-0.191,0.971,-0.033
33.24,-0.26,1.028,-0.147
33.25,-0.219,0.459,-0.04
33.26,-0.134,1.322,0.167
33.27,-0.154,0.776,0.001
33.28,-0.366,0.932,-0.148
33.29,-0.245,1.107,-0.048
33.3,-0.083,0.793,0.11
33.31,-0.314,1.227,-0.03
33.32,-0.232,0.345,-0.156
33.33,-0.389,1.891,0.044
33.34,-0.002,0.583,0.154
33.35,-0.228,1.154,0.004
33.36,-0.327,0.444,-0.201
33.37,-0.198,1.791,0.069
33.38,-0.141,0.812,0.123
33.39,-0.053,0.621,-0.001
33.4,-0.44,0.858,-0.146
33.41,-0.151,1.496,0.08
33.42,-0.203,1.017,0.155
33.43,-0.01,0.541,0.021
33.44,-0.586,0.798,-0.171
33.45,0.005,1.622,0.128
33.46,-0.088,0.908,0.075
33.47,-0.07,0.726,-0.074
33.48,-0.397,0.307,-0.147
33.49,-0.119,2.0,0.192
33.5,-0.037,0.543,0.141
33.51,-0.153,1.046,-0.057
33.52,-0.338,0.268,-0.178
33.53,-0.07,1.898,0.139
33.54,-0.124,0.94,0.027
33.55,0.008,0.602,-0.055
33.56,-0.386,0.798,-0.197
33.57,-0.037,1.353,0.146
33.58,-0.396,1.413,0.118
33.59,-0.03,0.465,-0.064
33.6,-0.463,0.773,-0.132
33.61,-0.011,1.361,0.183
33.62,-0.292,1.262,0.005
33.63,-0.165,0.791,-0.12
33.64,-0.379,0.281,-0.073
33.65,-0.212,1.6,0.25
33.66,-0.269,0.902,0.034
33.67,-0.228,1.052,-0.081
33.68,-0.352,0.331,0.0
33.69,-0.03,1.276,0.179
33.7,-0.265,1.086,-0.036
33.71,-0.238,0.655,-0.125
33.72,-0.184,1.433,-0.127
33.73,0.021,0.726,0.117
33.74,-0.257,1.27,-0.057
33.75,-0.264,0.383,-0.163
33.76,-0.269,1.692,-0.03
33.77,-0.065,0.676,0.155
33.78,-0.173,1.012,-0.041
33.79,-0.369,0.619,-0.155
33.8,-0.247,1.555,0.122
33.81,-0.187,0.967,0.132
33.82,-0.06,0.513,-0.017
33.83,-0.45,0.92,-0.197
33.84,-0.081,1.516,0.056
33.85,-0.1,1.057,0.149
33.86,-0.075,0.591,-0.001
33.87,-0.505,0.567,-0.148
33.88,-0.029,1.895,0.088
33.89,-0.061,0.682,0.036
33.9,-0.127,0.933,-0.061
33.91,-0.364,0.325,-0.154
33.92,-0.148,2.0,0.212
33.93,-0.061,0.628,0.088
33.94,-0.124,1.05,-0.047
33.95,-0.384,0.242,-0.138
33.96,-0.104,1.765,0.163
33.97,-0.214,1.036,0.02
33.98,-0.053,0.632,-0.078
33.99,-0.435,0.729,-0.129
34.0,-0.071,1.177,0.202
34.01,-0.373,1.404,0.042
34.02,-0.127,0.436,-0.038
34.03,-0.495,0.828,0.009
34.04,-0.082,1.053,0.258
34.05,-0.29,1.245,-0.002
34.06,-0.206,0.745,-0.123
34.07,-0.18,0.621,-0.027
34.08,-0.15,1.236,0.135
34.09,-0.104,0.698,-0.019
34.1,-0.389,1.074,-0.143
34.11,-0.204,0.849,0.04
34.12,-0.033,1.071,0.143
34.13,-0.236,0.903,-0.022
34.14,-0.282,0.731,-0.158
34.15,-0.263,1.719,0.016
34.16,-0.126,0.516,0.151
34.17,-0.292,1.206,0.036
34.18,-0.34,0.258,-0.153
34.19,-0.321,1.958,0.129
34.2,-0.033,0.597,0.071
34.21,-0.145,0.898,0.013
34.22,-0.452,0.612,-0.255
34.23,-0.052,1.656,0.106
34.24,-0.145,1.07,0.12
34.25,0.03,0.436,-0.018
34.26,-0.593,0.921,-0.201
34.27,0.026,1.55,0.138
34.28,-0.206,1.099,0.048
34.29,0.012,0.555,-0.038
34.3,-0.445,0.555,-0.163
34.31,-0.013,1.908,0.109
34.32,-0.04,0.699,0.128
34.33,-0.089,0.932,-0.069
34.34,-0.308,0.209,-0.186
34.35,-0.211,1.915,0.094
34.36,-0.131,0.816,0.036
34.37,-0.086,0.931,-0.086
34.38,-0.322,0.522,-0.122
34.39,-0.113,1.59,0.107
34.4,-0.175,1.303,-0.006
34.41,-0.013,0.53,-0.089
34.42,-0.489,0.835,-0.081
34.43,-0.126,1.156,0.229
34.44,-0.359,1.342,-0.009
34.45,-0.25,0.688,-0.153
34.46,-0.252,1.067,-0.044
34.47,-0.035,0.765,0.12
34.48,-0.264,1.393,-0.007
34.49,-0.222,0.348,-0.179
34.5,-0.261,1.81,-0.014
34.51,-0.054,0.695,0.159
34.52,-0.24,0.95,0.002
34.53,-0.37,0.671,-0.159
34.54,-0.222,1.558,0.113
34.55,-0.109,1.074,0.18
34.56,-0.125,0.464,0.005
34.57,-0.523,0.945,-0.18
34.58,-0.141,1.511,0.126
34.59,-0.191,0.974,0.101
34.6,-0.062,0.621,-0.002
34.61,-0.523,0.591,-0.192
34.62,-0.034,1.892,0.108
34.63,-0.115,0.655,0.154
34.64,-0.018,0.834,-0.022
34.65,-0.491,0.298,-0.112
34.66,-0.153,1.976,0.159
34.67,-0.075,0.741,0.086
34.68,-0.107,1.035,-0.043
34.69,-0.347,0.239,-0.157
34.7,-0.197,1.732,0.15
34.71,-0.15,1.011,0.062
34.72,-0.043,0.653,-0.106
34.73,-0.505,0.74,-0.141
34.74,-0.077,1.113,0.214
34.75,-0.411,1.452,0.057
34.76,-0.114,0.354,-0.045
34.77,-0.456,0.835,-0.048
34.78,-0.031,1.069,0.225
34.79,-0.292,1.269,0.041
34.8,-0.17,0.75,-0.099
34.81,-0.299,0.411,-0.061
34.82,-0.093,1.382,0.201
34.83,-0.109,0.879,-0.033
34.84,-0.326,1.03,-0.168
34.85,-0.163,0.541,-0.07
34.86,-0.138,1.096,0.144
34.87,-0.18,1.056,-0.092
34.88,-0.214,0.663,-0.149
34.89,-0.285,1.644,-0.039
34.9,-0.07,0.605,0.185
34.91,-0.32,1.174,0.029
34.92,-0.333,0.4,-0.161
34.93,-0.345,1.862,0.099
34.94,-0.08,0.654,0.152
34.95,-0.207,0.89,0.017
34.96,-0.401,0.578,-0.218
34.97,-0.194,1.61,0.08
34.98,-0.196,0.941,0.078
34.99,0.004,0.528,-0.012
35.0,-0.457,0.913,-0.278
35.01,0.039,1.505,0.081
35.02,-0.096,1.088,0.064
35.03,0.016,0.566,-0.031
35.04,-0.565,0.586,-0.146
35.05,-0.096,1.896,0.141
35.06,-0.156,0.659,0.141
35.07,-0.052,1.062,-0.015
35.08,-0.493,0.209,-0.136
35.09,-0.108,2.0,0.229
35.1,-0.166,0.661,0.112
35.11,-0.046,0.771,-0.076
35.12,-0.428,0.522,-0.153
35.13,-0.105,1.602,0.193
35.14,-0.267,1.222,0.034
35.15,0.082,0.46,-0.097
35.16,-0.487,0.919,-0.137
35.17,-0.035,1.354,0.164
35.18,-0.33,1.287,0.055
35.19,-0.106,0.608,-0.094
35.2,-0.448,0.572,-0.074
35.21,-0.218,1.482,0.227
35.22,-0.177,1.045,0.041
35.23,-0.241,0.903,-0.077
35.24,-0.309,0.207,0.008
35.25,-0.195,1.435,0.188
35.26,-0.235,0.877,0.033
35.27,-0.331,0.993,-0.115
35.28,-0.321,0.625,-0.07
35.29,0.01,1.035,0.133
35.3,-0.219,1.254,-0.068
35.31,-0.15,0.459,-0.191
35.32,-0.325,1.517,-0.035
35.33,0.023,0.637,0.138
35.34,-0.35,1.324,-0.042
35.35,-0.265,0.437,-0.207
35.36,-0.243,1.626,-0.052
35.37,-0.08,0.869,0.12
35.38,-0.055,0.778,-0.03
35.39,-0.428,0.936,-0.24
35.4,-0.183,1.34,0.023
35.41,-0.255,1.017,0.132
35.42,-0.111,0.592,0.034
35.43,-0.436,0.774,-0.177
35.44,0.048,1.576,0.105
35.45,-0.191,1.051,0.147
35.46,0.012,0.537,-0.031
35.47,-0.517,0.539,-0.208
35.48,-0.011,1.865,0.071
35.49,-0.042,0.656,0.078
35.5,-0.059,0.979,-0.014
35.51,-0.5,0.244,-0.157
35.52,-0.209,1.996,0.24
35.53,-0.103,0.632,0.129
35.54,-0.115,0.857,-0.044
35.55,-0.406,0.528,-0.211
35.56,-0.069,1.671,0.123
35.57,-0.193,1.249,0.009
35.58,0.035,0.43,-0.079
35.59,-0.382,0.912,-0.191
35.6,-0.104,1.23,0.169
35.61,-0.267,1.326,0.017
35.62,-0.223,0.578,-0.078
35.63,-0.365,0.6,-0.041
35.64,-0.157,1.472,0.213
35.65,-0.15,0.96,0.018
35.66,-0.263,0.989,-0.11
35.67,-0.361,0.154,-0.04
35.68,-0.182,1.48,0.235
35.69,-0.197,0.988,-0.002
35.7,-0.283,0.767,-0.092
35.71,-0.229,0.827,-0.063
35.72,-0.089,0.982,0.21
35.73,-0.234,1.173,-0.003
35.74,-0.217,0.495,-0.162
35.75,-0.444,1.075,-0.064
35.76,0.027,0.834,0.188
35.77,-0.295,1.38,-0.004
35.78,-0.246,0.503,-0.134
35.79,-0.37,1.38,0.004
35.8,-0.114,0.876,0.164
35.81,-0.246,0.856,0.022
35.82,-0.316,0.882,-0.109
35.83,-0.256,1.281,0.067
35.84,-0.121,1.119,0.189
35.85,-0.099,0.541,0.002
35.86,-0.445,0.885,-0.221
35.87,-0.237,1.519,0.056
35.88,-0.252,0.711,0.064
35.89,-0.159,1.06,-0.032
35.9,-0.332,0.322,-0.178
35.91,-0.102,2.0,0.062
35.92,0.025,0.536,0.052
35.93,-0.146,0.975,-0.031
35.94,-0.408,0.221,-0.195
35.95,-0.08,1.921,0.064
35.96,-0.023,0.85,0.085
35.97,0.021,0.675,-0.038
35.98,-0.548,0.784,-0.196
35.99,-0.008,1.521,0.24
36.0,-0.344,1.241,0.095
36.01,-0.021,0.351,-0.043
36.02,-0.424,0.875,-0.195
36.03,-0.1,1.589,0.123
36.04,-0.126,1.064,0.069
36.05,-0.083,0.771,-0.119
36.06,-0.216,0.29,-0.169
36.07,-0.193,1.634,0.096
36.08,-0.022,0.855,0.005
36.09,-0.304,1.106,-0.155
36.1,-0.271,0.264,-0.101
36.11,-0.161,1.643,0.203
36.12,-0.178,1.019,0.003
36.13,-0.129,0.695,-0.122
36.14,-0.428,0.768,-0.084
36.15,-0.062,0.943,0.179
36.16,-0.368,1.518,-0.005
36.17,-0.116,0.367,-0.087
36.18,-0.281,1.341,-0.047
36.19,0.0,0.841,0.144
36.2,-0.21,1.061,-0.019
36.21,-0.326,0.831,-0.211
36.22,-0.279,0.726,-0.014
36.23,-0.177,1.142,0.12
36.24,-0.134,0.75,-0.036
36.25,-0.361,0.766,-0.143
36.26,-0.07,1.397,0.093
36.27,-0.177,1.018,0.138
36.28,-0.055,0.483,-0.044
36.29,-0.552,0.765,-0.196
36.3,-0.029,1.646,0.109
36.31,-0.06,0.878,0.109
36.32,-0.037,0.823,-0.074
36.33,-0.505,0.336,-0.208
36.34,-0.094,2.0,0.197
36.35,-0.133,0.575,0.073
36.36,-0.075,0.965,-0.048
36.37,-0.444,0.262,-0.153
36.38,-0.056,1.92,0.125
36.39,-0.086,0.935,0.039
36.4,0.022,0.598,-0.054
36.41,-0.435,0.763,-0.155
36.42,-0.104,1.424,0.158
36.43,-0.317,1.32,0.051
36.44,-0.021,0.512,-0.044
36.45,-0.443,0.834,-0.116
36.46,-0.069,1.452,0.166
36.47,-0.228,1.203,0.009
36.48,-0.101,0.84,-0.102
36.49,-0.415,0.266,-0.034
36.5,-0.219,1.562,0.24
36.51,-0.243,0.857,0.025
36.52,-0.21,0.997,-0.102
36.53,-0.24,0.513,0.001
36.54,-0.112,1.193,0.152
36.55,-0.281,0.966,-0.04
36.56,-0.219,0.661,-0.117
36.57,-0.382,0.898,-0.03
36.58,0.055,0.819,0.121
36.59,-0.382,1.458,-0.055
36.6,-0.169,0.338,-0.139
36.61,-0.323,1.651,0.013
36.62,-0.016,0.667,0.172
36.63,-0.259,1.042,-0.02
36.64,-0.328,0.716,-0.199
36.65,-0.115,1.504,0.035
36.66,-0.061,1.151,0.143
36.67,0.01,0.416,-0.04
36.68,-0.571,0.934,-0.2
36.69,-0.153,1.518,0.086
36.7,-0.292,0.867,0.098
36.71,-0.011,0.761,-0.023
36.72,-0.527,0.526,-0.214
36.73,-0.079,1.894,0.145
36.74,-0.088,0.654,0.113
36.75,-0.068,0.933,-0.038
36.76,-0.419,0.164,-0.155
36.77,-0.12,2.0,0.116
36.78,-0.057,0.771,0.077
36.79,-0.137,0.849,-0.05
36.8,-0.383,0.484,-0.157
36.81,-0.047,1.708,0.226
36.82,-0.165,1.107,0.077
36.83,-0.009,0.469,-0.066
36.84,-0.473,0.873,-0.154
36.85,-0.012,1.385,0.112
36.86,-0.263,1.393,-0.015
36.87,-0.029,0.493,-0.114
36.88,-0.348,0.565,-0.141
36.89,-0.123,1.37,0.129
36.9,-0.213,0.929,-0.012
36.91,-0.347,1.055,-0.111
36.92,-0.28,0.231,0.043
36.93,-0.225,1.414,0.244
36.94,-0.273,0.914,0.039
36.95,-0.235,0.833,-0.095
36.96,-0.297,0.739,-0.064
36.97,-0.022,0.912,0.155
36.98,-0.241,1.338,-0.063
36.99,-0.196,0.461,-0.195
37.0,-0.256,1.802,-0.027
37.01,-0.015,0.591,0.157
37.02,-0.234,1.121,0.012
37.03,-0.375,0.498,-0.215
37.04,-0.317,1.659,0.088
37.05,-0.271,0.826,0.158
37.06,-0.145,0.877,-0.006
37.07,-0.516,0.522,-0.221
37.08,0.027,1.649,0.042
37.09,-0.065,1.157,0.108
37.1,-0.019,0.295,-0.047
37.11,-0.503,0.852,-0.193
37.12,-0.047,1.568,0.124
37.13,-0.052,1.085,0.032
37.14,0.041,0.677,-0.025
37.15,-0.433,0.585,-0.174
37.16,-0.134,1.829,0.209
37.17,-0.105,0.727,0.095
37.18,-0.149,0.995,-0.059
37.19,-0.313,0.162,-0.132
37.2,-0.199,1.972,0.123
37.21,-0.097,0.807,0.023
37.22,-0.121,0.866,-0.065
37.23,-0.276,0.495,-0.109
37.24,-0.154,1.363,0.16
37.25,-0.303,1.289,0.023
37.26,-0.056,0.531,-0.133
37.27,-0.486,0.897,-0.03
37.28,-0.129,1.14,0.26
37.29,-0.402,1.418,0.032
37.3,-0.074,0.516,-0.119
37.31,-0.289,0.927,-0.036
37.32,0.001,1.066,0.12
37.33,-0.208,0.884,-0.015
37.34,-0.364,1.002,-0.157
37.35,-0.119,1.062,-0.018
37.36,-0.132,1.152,0.148
37.37,-0.079,0.686,0.026
37.38,-0.45,0.922,-0.21
37.39,-0.221,1.237,0.057
37.4,-0.203,0.798,0.139
37.41,-0.236,1.169,-0.048
37.42,-0.198,0.244,-0.194
37.43,-0.265,2.0,0.085
37.44,-0.055,0.459,0.103
37.45,-0.095,1.057,-0.051
37.46,-0.451,0.284,-0.231
37.47,-0.02,1.83,0.032
37.48,-0.045,0.917,0.084
37.49,0.041,0.585,-0.008
37.5,-0.614,0.833,-0.207
37.51,-0.008,1.536,0.21
37.52,-0.357,1.183,0.058
37.53,0.032,0.453,-0.026
37.54,-0.504,0.784,-0.166
37.55,-0.017,1.674,0.214
37.56,-0.096,0.881,0.103
37.57,0.006,0.829,-0.065
37.58,-0.352,0.271,-0.108
37.59,-0.189,1.797,0.115
37.6,-0.083,0.784,0.04
37.61,-0.235,1.041,-0.119
37.62,-0.337,0.243,-0.11
37.63,-0.138,1.645,0.156
37.64,-0.248,1.035,0.013
37.65,-0.05,0.635,-0.094
37.66,-0.539,0.788,-0.076
37.67,0.0,0.996,0.194
37.68,-0.542,1.518,0.099
37.69,-0.068,0.357,-0.07
37.7,-0.397,1.034,-0.013
37.71,0.035,0.936,0.176
37.72,-0.274,1.114,-0.025
37.73,-0.312,0.827,-0.177
37.74,-0.232,0.609,-0.017
37.75,-0.088,1.233,0.138
37.76,-0.143,0.779,0.002
37.77,-0.382,0.993,-0.17
37.78,-0.172,1.292,0.006
37.79,-0.122,0.945,0.142
37.8,-0.156,0.833,-0.003
37.81,-0.388,0.598,-0.2
37.82,-0.213,1.856,0.093
37.83,-0.058,0.584,0.171
37.84,-0.194,1.073,0.027
37.85,-0.514,0.227,-0.136
37.86,-0.208,2.0,0.185
37.87,-0.143,0.555,0.116
37.88,-0.203,0.945,0.018
37.89,-0.524,0.274,-0.131
37.9,-0.101,1.852,0.131
37.91,-0.107,0.961,0.077
37.92,0.048,0.548,-0.049
37.93,-0.444,0.799,-0.131
37.94,-0.033,1.442,0.134
37.95,-0.233,1.281,0.038
37.96,0.032,0.505,-0.072
37.97,-0.52,0.774,-0.136
37.98,-0.046,1.587,0.177
37.99,-0.274,1.127,0.046
38.0,-0.119,0.815,-0.056
38.01,-0.478,0.256,-0.046
38.02,-0.247,1.585,0.216
38.03,-0.183,0.876,0.048
38.04,-0.291,1.05,-0.122
38.05,-0.279,0.354,-0.037
38.06,-0.035,1.254,0.146
38.07,-0.187,1.081,-0.052
38.08,-0.203,0.656,-0.162
38.09,-0.33,0.948,-0.085
38.1,-0.048,0.833,0.207
38.11,-0.371,1.538,-0.01
38.12,-0.177,0.298,-0.105
38.13,-0.292,1.524,-0.051
38.14,-0.028,0.745,0.111
38.15,-0.245,1.024,-0.016
38.16,-0.382,0.781,-0.165
38.17,-0.248,1.38,0.056
38.18,-0.124,1.121,0.195
38.19,-0.089,0.494,0.005
38.2,-0.488,0.968,-0.186
38.21,-0.252,1.412,0.096
38.22,-0.213,0.882,0.13
38.23,-0.179,0.781,-0.003
38.24,-0.396,0.508,-0.172
38.25,-0.121,1.938,0.016
38.26,-0.024,0.551,0.108
38.27,-0.11,0.993,-0.038
38.28,-0.431,0.173,-0.194
38.29,-0.106,2.0,0.104
38.3,-0.009,0.727,0.049
38.31,-0.055,0.81,-0.038
38.32,-0.484,0.568,-0.155
38.33,-0.081,1.658,0.194
38.34,-0.25,1.142,0.066
38.35,0.048,0.414,-0.073
38.36,-0.471,0.909,-0.164
38.37,-0.016,1.514,0.097
38.38,-0.201,1.196,-0.007
38.39,0.015,0.631,-0.065
38.4,-0.42,0.515,-0.085
38.41,-0.123,1.544,0.127
38.42,-0.116,0.859,0.033
38.43,-0.279,1.051,-0.142
38.44,-0.326,0.202,-0.06
38.45,-0.208,1.533,0.193
38.46,-0.279,0.927,0.04
38.47,-0.158,0.852,-0.075
38.48,-0.385,0.625,-0.049
38.49,0.023,0.934,0.142
38.5,-0.293,1.35,-0.071
38.51,-0.117,0.461,-0.204
38.52,-0.238,1.396,-0.08
38.53,0.064,0.722,0.14
38.54,-0.22,1.236,-0.02
38.55,-0.309,0.587,-0.172
38.56,-0.325,1.232,-0.033
38.57,-0.084,0.96,0.134
38.58,-0.172,0.785,-0.018
38.59,-0.392,0.923,-0.16
38.6,-0.193,1.315,0.033
38.61,-0.257,1.04,0.18
38.62,-0.109,0.695,0.013
38.63,-0.379,0.826,-0.158
38.64,-0.132,1.624,0.065
38.65,-0.1,0.731,0.154
38.66,-0.158,0.937,0.013
38.67,-0.487,0.493,-0.177
38.68,-0.077,1.976,0.119
38.69,-0.121,0.592,0.081
38.7,-0.192,0.958,-0.005
38.71,-0.428,0.178,-0.133
38.72,-0.167,2.0,0.218
38.73,-0.095,0.69,0.098
38.74,-0.042,0.697,-0.08
38.75,-0.512,0.609,-0.162
38.76,-0.067,1.516,0.144
38.77,-0.275,1.309,0.044
38.78,0.056,0.512,-0.025
38.79,-0.5,0.882,-0.145
38.8,0.01,1.477,0.159
38.81,-0.159,1.311,0.004
38.82,-0.109,0.66,-0.065
38.83,-0.43,0.47,-0.087
38.84,-0.21,1.632,0.176
38.85,-0.118,0.953,0.029
38.86,-0.193,0.948,-0.089
38.87,-0.305,0.195,-0.023
38.88,-0.265,1.447,0.187
38.89,-0.239,0.875,0.022
38.9,-0.232,0.888,-0.118
38.91,-0.306,0.675,-0.04
38.92,-0.073,0.987,0.145
38.93,-0.269,1.312,-0.036
38.94,-0.147,0.436,-0.152
38.95,-0.284,1.394,-0.023
38.96,-0.044,0.701,0.188
38.97,-0.331,1.262,-0.021
38.98,-0.292,0.501,-0.151
38.99,-0.207,1.471,-0.029
39.0,-0.112,0.93,0.12
39.01,-0.18,0.702,-0.002
39.02,-0.428,1.003,-0.189
39.03,-0.17,1.327,0.059
39.04,-0.198,1.047,0.167
39.05,-0.134,0.632,0.007
39.06,-0.447,0.807,-0.209
39.07,-0.085,1.669,0.044
39.08,-0.092,0.737,0.123
39.09,-0.103,0.896,-0.029
39.1,-0.455,0.239,-0.211
39.11,-0.077,2.0,0.098
39.12,-0.049,0.595,0.074
39.13,-0.121,0.919,-0.03
39.14,-0.544,0.321,-0.165
39.15,-0.121,1.856,0.19
39.16,-0.146,0.95,0.154
39.17,0.022,0.489,-0.052
39.18,-0.596,0.883,-0.188
39.19,-0.026,1.475,0.121
39.2,-0.269,1.276,0.065
39.21,0.058,0.471,-0.035
39.22,-0.518,0.762,-0.17
39.23,-0.043,1.494,0.153
39.24,-0.235,1.102,0.062
39.25,-0.094,0.846,-0.105
39.26,-0.372,0.237,-0.104
39.27,-0.18,1.738,0.19
39.28,-0.206,0.812,0.094
39.29,-0.16,1.047,-0.117
39.3,-0.414,0.301,-0.087
39.31,-0.149,1.421,0.207
39.32,-0.231,1.209,-0.017
39.33,-0.096,0.562,-0.11
39.34,-0.415,0.88,-0.068
39.35,0.002,0.87,0.138
39.36,-0.354,1.471,-0.009
39.37,-0.038,0.343,-0.11
39.38,-0.422,1.018,-0.088
39.39,0.081,0.922,0.136
39.4,-0.242,1.177,-0.028
39.41,-0.268,0.745,-0.156
39.42,-0.197,0.705,-0.052
39.43,-0.105,1.205,0.124
39.44,-0.102,0.753,-0.051
39.45,-0.322,1.013,-0.164
39.46,-0.199,1.213,-0.018
39.47,-0.164,1.052,0.16
39.48,-0.155,0.563,0.005
39.49,-0.454,0.75,-0.159
39.5,-0.168,1.693,0.082
39.51,-0.145,0.689,0.086
39.52,-0.172,0.937,0.053
39.53,-0.445,0.266,-0.181
39.54,-0.242,2.0,0.149
39.55,-0.129,0.517,0.1
39.56,-0.164,0.987,-0.01
39.57,-0.456,0.361,-0.174
39.58,-0.205,1.865,0.185
39.59,-0.096,0.983,0.083
39.6,-0.006,0.53,-0.013
39.61,-0.464,0.824,-0.122
39.62,-0.036,1.574,0.18
39.63,-0.164,1.205,0.04
39.64,0.161,0.492,-0.083
39.65,-0.517,0.819,-0.205
39.66,0.015,1.647,0.13
39.67,-0.125,0.871,0.007
39.68,-0.039,0.879,-0.087
39.69,-0.32,0.286,-0.19
39.7,-0.194,1.828,0.123
39.71,-0.166,0.826,0.076
39.72,-0.145,0.993,-0.1
39.73,-0.301,0.298,-0.106
39.74,-0.13,1.617,0.16
39.75,-0.196,1.113,0.036
39.76,-0.115,0.619,-0.093
39.77,-0.498,0.775,-0.078
39.78,-0.082,1.125,0.222
39.79,-0.386,1.514,0.042
39.8,-0.059,0.321,-0.118
39.81,-0.346,1.04,-0.067
39.82,0.015,0.99,0.174
39.83,-0.287,1.1,-0.076
39.84,-0.162,0.867,-0.178
39.85,-0.268,0.576,-0.056
39.86,-0.009,1.313,0.116
39.87,-0.119,0.767,-0.048
39.88,-0.392,1.029,-0.16
39.89,-0.288,0.816,-0.049
39.9,-0.081,1.057,0.18
39.91,-0.191,0.995,-0.007
39.92,-0.274,0.655,-0.134
39.93,-0.309,1.737,-0.002
39.94,0.045,0.624,0.166
39.95,-0.263,1.094,-0.015
39.96,-0.312,0.292,-0.181
39.97,-0.385,1.92,0.024
39.98,-0.169,0.626,0.114
39.99,-0.209,0.945,0.022
40.0,-0.372,0.624,-0.23
40.01,-0.243,1.52,0.081
40.02,-0.276,0.919,0.111
40.03,-0.043,0.536,0.005
40.04,-0.484,0.894,-0.15
40.05,-0.037,1.518,0.078
40.06,-0.225,0.947,0.138
40.07,-0.022,0.682,-0.025
40.08,-0.566,0.491,-0.163
40.09,-0.009,1.95,0.142
40.1,-0.22,0.658,0.128
40.11,-0.102,0.926,-0.005
40.12,-0.424,0.194,-0.158
40.13,-0.166,2.0,0.216
40.14,-0.12,0.682,0.086
40.15,-0.107,0.773,-0.079
40.16,-0.44,0.544,-0.204
40.17,-0.043,1.661,0.114
40.18,-0.194,1.189,0.048
40.19,0.112,0.434,-0.098
40.2,-0.472,0.903,-0.161
40.21,-0.04,1.287,0.177
40.22,-0.297,1.382,0.054
40.23,-0.06,0.608,-0.097
40.24,-0.381,0.562,-0.107
40.25,-0.032,1.687,0.12
40.26,-0.138,0.943,0.01
40.27,-0.128,1.013,-0.11
40.28,-0.431,0.378,0.031
40.29,-0.163,1.418,0.218
40.3,-0.216,0.909,0.037
40.31,-0.278,0.995,-0.092
40.32,-0.221,0.792,-0.023
40.33,-0.08,1.119,0.11
40.34,-0.23,0.963,-0.035
40.35,-0.247,0.687,-0.174
40.36,-0.324,1.447,-0.037
40.37,-0.007,0.623,0.118
40.38,-0.3,1.319,-0.025
40.39,-0.239,0.306,-0.134
40.4,-0.33,1.791,0.05
40.41,-0.09,0.651,0.133
40.42,-0.207,0.952,-0.04
40.43,-0.3,0.661,-0.238
40.44,-0.138,1.594,0.037
40.45,-0.151,0.985,0.11
40.46,0.037,0.505,-0.017
40.47,-0.529,0.884,-0.221
40.48,0.022,1.539,0.015
40.49,-0.261,0.927,0.054
40.5,-0.024,0.67,-0.025
40.51,-0.574,0.525,-0.132
40.52,-0.041,1.965,0.15
40.53,-0.122,0.607,0.127
40.54,-0.043,0.951,-0.028
40.55,-0.483,0.193,-0.121
40.56,-0.082,2.0,0.161
40.57,-0.134,0.767,0.093
40.58,-0.067,0.822,-0.093
40.59,-0.295,0.567,-0.213
40.6,0.022,1.713,0.098
40.61,-0.183,1.252,0.018
40.62,-0.033,0.384,-0.076
40.63,-0.466,0.893,-0.145
40.64,-0.131,1.29,0.175
40.65,-0.307,1.327,0.071
40.66,-0.118,0.513,-0.067
40.67,-0.402,0.582,-0.027
40.68,-0.154,1.329,0.16
40.69,-0.174,0.934,0.032
40.7,-0.28,0.945,-0.124
40.71,-0.293,0.246,-0.029
40.72,-0.16,1.458,0.204
40.73,-0.18,1.002,0.019
40.74,-0.26,0.843,-0.118
40.75,-0.31,0.692,-0.034
40.76,0.011,0.934,0.136
40.77,-0.213,1.362,-0.049
40.78,-0.086,0.449,-0.212
40.79,-0.252,1.808,-0.101
40.8,-0.034,0.609,0.121
40.81,-0.152,1.158,-0.097
40.82,-0.392,0.4,-0.211
40.83,-0.206,1.717,-0.003
40.84,-0.179,0.825,0.093
40.85,-0.071,0.752,-0.014
40.86,-0.462,0.858,-0.233
40.87,-0.016,1.405,0.092
40.88,-0.185,1.058,0.092
40.89,-0.1,0.517,0.023
40.9,-0.456,0.78,-0.155
40.91,-0.009,1.78,0.089
40.92,-0.031,0.828,0.143
40.93,-0.032,0.816,-0.033
40.94,-0.45,0.287,-0.178
40.95,-0.138,2.0,0.198
40.96,-0.114,0.633,0.101
40.97,-0.163,0.948,-0.022
40.98,-0.389,0.257,-0.152
40.99,-0.076,1.957,0.137
41.0,-0.107,0.896,0.068
41.01,0.058,0.548,-0.101
41.02,-0.438,0.746,-0.143
41.03,0.042,1.444,0.105
41.04,-0.222,1.389,0.014
41.05,0.073,0.481,-0.065
41.06,-0.454,0.804,-0.173
41.07,-0.048,1.511,0.141
41.08,-0.225,1.146,0.05
41.09,-0.196,0.548,-0.089
41.1,-0.399,0.61,0.036
41.11,-0.178,1.257,0.175
41.12,-0.175,0.971,0.046
41.13,-0.346,1.0,-0.091
41.14,-0.152,0.794,0.015
41.15,-0.149,1.208,0.128
41.16,-0.128,0.735,0.008
41.17,-0.377,0.876,-0.164
41.18,-0.278,0.956,-0.053
41.19,-0.076,0.833,0.105
41.2,-0.242,1.304,-0.048
41.21,-0.237,0.313,-0.135
41.22,-0.307,1.818,-0.001
41.23,-0.118,0.562,0.232
41.24,-0.317,1.224,0.01
41.25,-0.248,0.453,-0.174
41.26,-0.245,1.739,0.09
41.27,-0.049,0.928,0.183
41.28,-0.09,0.576,0.011
41.29,-0.533,0.826,-0.202
41.3,-0.166,1.526,0.116
41.31,-0.285,0.978,0.088
41.32,0.001,0.547,0.033
41.33,-0.557,0.755,-0.2
41.34,0.019,1.711,0.176
41.35,-0.201,0.84,0.13
41.36,0.014,0.787,0.002
41.37,-0.501,0.278,-0.139
41.38,-0.161,1.941,0.136
41.39,-0.094,0.686,0.13
41.4,-0.088,1.008,-0.059
41.41,-0.465,0.258,-0.144
41.42,-0.056,1.841,0.2
41.43,-0.267,1.002,0.109
41.44,0.013,0.601,-0.015
41.45,-0.504,0.778,-0.174
41.46,-0.03,1.356,0.147
41.47,-0.348,1.424,0.034
41.48,0.013,0.383,-0.075
41.49,-0.511,0.759,-0.094
41.5,-0.05,1.226,0.163
41.51,-0.268,1.175,0.002
41.52,-0.169,0.9,-0.119
41.53,-0.366,0.298,-0.076
41.54,-0.219,1.516,0.281
41.55,-0.16,0.844,0.047
41.56,-0.256,1.042,-0.095
41.57,-0.442,0.373,-0.001
41.58,-0.124,1.199,0.202
41.59,-0.189,1.119,-0.019
41.6,-0.251,0.581,-0.142
41.61,-0.231,1.534,-0.065
41.62,-0.011,0.744,0.158
41.63,-0.282,1.252,0.014
41.64,-0.252,0.368,-0.234
41.65,-0.353,1.427,-0.049
41.66,-0.068,0.811,0.129
41.67,-0.225,1.07,-0.014
41.68,-0.245,0.713,-0.178
41.69,-0.295,1.412,0.068
41.7,-0.187,0.985,0.196
41.71,-0.013,0.548,0.011
41.72,-0.448,0.914,-0.209
41.73,-0.013,1.505,0.047
41.74,-0.118,0.982,0.047
41.75,0.038,0.715,-0.014
41.76,-0.469,0.525,-0.29
41.77,-0.08,1.912,0.053
41.78,-0.214,0.539,0.034
41.79,-0.112,1.015,0.032
41.8,-0.476,0.241,-0.178
41.81,-0.149,2.0,0.143
41.82,-0.169,0.594,0.115
41.83,-0.05,0.797,-0.012
41.84,-0.501,0.489,-0.145
41.85,-0.031,1.693,0.119
41.86,-0.168,1.172,0.065
41.87,0.142,0.445,-0.045
41.88,-0.578,0.908,-0.142
41.89,0.117,1.514,0.225
41.9,-0.28,1.354,0.075
41.91,0.009,0.472,-0.046
41.92,-0.498,0.813,-0.202
41.93,-0.022,1.596,0.123
41.94,-0.22,1.142,0.016
41.95,-0.024,0.748,-0.109
41.96,-0.309,0.302,-0.119
41.97,-0.185,1.553,0.14
41.98,-0.166,0.854,0.022
41.99,-0.268,1.094,-0.099
42.0,-0.268,0.29,-0.102
42.01,-0.156,1.452,0.228
42.02,-0.236,1.122,0.021
42.03,-0.144,0.685,-0.129
42.04,-0.457,0.812,-0.079
42.05,-0.092,0.947,0.233
42.06,-0.388,1.562,0.026
42.07,-0.047,0.269,-0.058
42.08,-0.289,1.447,-0.056
42.09,-0.007,0.83,0.149
42.1,-0.29,1.021,-0.074
42.11,-0.286,0.706,-0.185
42.12,-0.342,0.794,-0.014
42.13,-0.144,1.156,0.161
42.14,-0.18,0.779,0.037
42.15,-0.35,0.939,-0.106
42.16,-0.282,1.316,0.096
42.17,-0.19,0.964,0.181
42.18,-0.225,0.81,0.019
42.19,-0.327,0.58,-0.15
42.2,-0.27,1.841,0.096
42.21,-0.0,0.688,0.167
42.22,-0.171,1.036,0.045
42.23,-0.448,0.191,-0.171
42.24,-0.349,2.0,0.157
42.25,-0.233,0.547,0.081
42.26,-0.15,0.936,-0.004
42.27,-0.425,0.476,-0.227
42.28,-0.073,1.637,0.051
42.29,-0.223,0.953,0.043
42.3,-0.009,0.422,-0.048
42.31,-0.492,0.853,-0.195
42.32,0.038,1.558,0.057
42.33,-0.154,1.08,0.092
42.34,0.083,0.582,-0.049
42.35,-0.542,0.623,-0.165
42.36,-0.014,1.835,0.155
42.37,-0.166,0.693,0.105
42.38,-0.076,1.005,-0.032
42.39,-0.38,0.197,-0.139
42.4,-0.216,1.961,0.139
42.41,-0.198,0.808,0.068
42.42,-0.077,0.893,-0.056
42.43,-0.418,0.465,-0.132
42.44,-0.085,1.564,0.151
42.45,-0.23,1.323,-0.002
42.46,-0.048,0.448,-0.115
42.47,-0.397,0.898,-0.109
42.48,-0.071,1.236,0.169
42.49,-0.285,1.391,0.014
42.5,-0.077,0.577,-0.079
42.51,-0.5,0.591,-0.047
42.52,-0.101,1.292,0.212
42.53,-0.252,1.082,0.009
42.54,-0.236,0.922,-0.089
42.55,-0.305,0.292,-0.052
42.56,-0.045,1.378,0.126
42.57,-0.19,0.91,-0.09
42.58,-0.271,0.916,-0.152
42.59,-0.267,0.876,-0.086
42.6,-0.046,0.942,0.171
42.61,-0.268,1.212,-0.065
42.62,-0.261,0.41,-0.155
42.63,-0.31,1.766,0.018
42.64,-0.057,0.606,0.174
42.65,-0.343,1.24,0.031
42.66,-0.316,0.377,-0.145
42.67,-0.357,1.737,0.106
42.68,-0.099,0.796,0.155
42.69,-0.173,0.692,0.016
42.7,-0.482,0.552,-0.214
42.71,-0.144,1.711,0.08
42.72,-0.259,0.926,0.117
42.73,0.036,0.484,-0.018
42.74,-0.58,0.929,-0.189
42.75,0.097,1.54,0.046
42.76,-0.183,1.06,0.099
42.77,0.032,0.547,-0.017
42.78,-0.438,0.584,-0.177
42.79,-0.176,0.547,-0.12
42.8,-0.225,1.552,-0.027
42.81,-0.067,0.777,0.141
42.82,-0.198,0.987,-0.068
42.83,-0.335,0.758,-0.223
42.84,-0.138,1.337,-0.006
42.85,-0.169,1.058,0.085
42.86,-0.071,0.665,-0.044
42.87,-0.427,0.907,-0.228
42.88,-0.195,1.406,0.105
42.89,-0.183,0.839,0.141
42.9,-0.099,0.819,-0.003
42.91,-0.422,0.493,-0.182
42.92,-0.043,1.972,0.042
42.93,0.014,0.68,0.141
42.94,-0.172,0.956,0.008
42.95,-0.438,0.184,-0.186
42.96,-0.162,2.0,0.105
42.97,-0.187,0.62,0.086
42.98,-0.102,0.74,-0.035
42.99,-0.526,0.591,-0.182
43.0,-0.047,1.639,0.151
43.01,-0.211,1.144,0.089
43.02,0.111,0.425,-0.044
43.03,-0.511,0.885,-0.151
43.04,-0.058,1.484,0.115
43.05,-0.162,1.195,0.031
43.06,0.016,0.707,-0.055
43.07,-0.412,0.482,-0.13
43.08,-0.046,1.782,0.128
43.09,-0.047,0.862,0.028
43.1,-0.134,1.019,-0.071
43.11,-0.436,0.158,-0.08
43.12,-0.184,1.747,0.191
43.13,-0.25,0.917,-0.004
43.14,-0.08,0.872,-0.108
43.15,-0.38,0.507,-0.129
43.16,-0.073,1.136,0.198
43.17,-0.4,1.398,-0.021
43.18,-0.072,0.508,-0.125
43.19,-0.373,0.982,-0.041
43.2,-0.014,0.901,0.212
43.21,-0.379,1.39,0.01
43.22,-0.175,0.575,-0.135
43.23,-0.299,0.881,-0.066
43.24,-0.052,1.08,0.107
43.25,-0.18,0.85,-0.045
43.26,-0.314,0.918,-0.151
43.27,-0.186,1.198,-0.038
43.28,-0.089,1.118,0.143
43.29,-0.11,0.561,0.043
43.3,-0.443,0.87,-0.195
43.31,-0.298,1.552,0.063
43.32,-0.24,0.736,0.189
43.33,-0.269,1.105,0.033
43.34,-0.378,0.263,-0.135
43.35,-0.37,1.933,0.094
43.36,-0.189,0.479,0.126
43.37,-0.233,1.146,0.017
43.38,-0.187,0.288,-0.205
43.39,-0.077,1.874,0.003
43.4,0.069,0.958,0.128
43.41,0.03,0.486,-0.067
43.42,-0.52,0.774,-0.179
43.43,0.031,1.554,0.142
43.44,-0.283,1.154,0.08
43.45,0.025,0.417,-0.038
43.46,-0.529,0.932,-0.172
43.47,0.025,1.556,0.229
43.48,-0.241,1.204,0.067
43.49,-0.022,0.527,-0.046
43.5,-0.317,0.497,-0.132
43.51,-0.255,1.544,0.112
43.52,-0.108,0.87,0.039
43.53,-0.219,1.031,-0.141
43.54,-0.228,0.162,-0.111
43.55,-0.253,1.58,0.23
43.56,-0.162,0.899,0.049
43.57,-0.239,0.873,-0.099
43.58,-0.378,0.555,-0.075
43.59,-0.059,1.13,0.225
43.6,-0.35,1.334,-0.027
43.61,-0.041,0.34,-0.119
43.62,-0.333,1.451,-0.045
43.63,0.075,0.74,0.153
43.64,-0.323,1.266,-0.027
43.65,-0.243,0.611,-0.182
43.66,-0.341,0.877,-0.004
43.67,0.036,1.058,0.121
43.68,-0.176,0.884,-0.003
43.69,-0.356,0.934,-0.191
43.7,-0.169,1.176,-0.017
43.71,-0.184,1.093,0.13
43.72,-0.208,0.713,0.051
43.73,-0.286,0.772,-0.146
43.74,-0.268,1.612,0.057
43.75,-0.078,0.823,0.21
43.76,-0.125,0.933,0.004
43.77,-0.457,0.302,-0.185
43.78,-0.342,1.958,0.138
43.79,-0.196,0.442,0.102
43.8,-0.156,1.203,0.03
43.81,-0.396,0.323,-0.215
43.82,-0.059,1.854,0.079
43.83,-0.082,0.861,0.085
43.84,0.018,0.533,-0.039
43.85,-0.534,0.716,-0.181
43.86,-0.034,1.586,0.146
43.87,-0.136,1.199,0.059
43.88,0.085,0.423,-0.063
43.89,-0.5,0.825,-0.173
43.9,0.022,1.716,0.183
43.91,-0.22,0.918,0.141
43.92,0.057,0.839,-0.055
43.93,-0.344,0.334,-0.173
43.94,-0.122,1.984,0.122
43.95,-0.052,0.749,0.054
43.96,-0.116,1.025,-0.082
43.97,-0.318,0.222,-0.15
43.98,-0.133,1.698,0.156
43.99,-0.15,1.12,0.02
44.0,-0.136,0.615,-0.107
44.01,-0.403,0.725,-0.127
44.02,-0.082,1.233,0.186
44.03,-0.363,1.425,0.055
44.04,-0.035,0.46,-0.08
44.05,-0.524,0.837,-0.071
44.06,-0.093,1.072,0.226
44.07,-0.342,1.33,0.056
44.08,-0.179,0.702,-0.082
44.09,-0.33,0.562,-0.026
44.1,-0.095,1.271,0.148
44.11,-0.167,0.842,-0.007
44.12,-0.308,1.029,-0.171
44.13,-0.273,0.521,-0.055
44.14,-0.061,1.171,0.154
44.15,-0.234,1.049,-0.067
44.16,-0.286,0.675,-0.148
44.17,-0.267,1.387,-0.033
44.18,-0.036,0.686,0.169
44.19,-0.348,1.352,0.017
44.2,-0.182,0.366,-0.134
44.21,-0.388,1.872,0.019
44.22,0.001,0.598,0.192
44.23,-0.242,0.946,0.059
44.24,-0.407,0.593,-0.232
44.25,-0.156,1.97,0.064
44.26,-0.203,0.713,0.087
44.27,-0.036,0.612,-0.029
44.28,-0.487,0.788,-0.212
44.29,-0.019,1.572,0.113
44.3,-0.191,1.1,0.105
44.31,0.02,0.41,-0.015
44.32,-0.529,0.807,-0.183
44.33,-0.003,1.65,0.111
44.34,-0.119,0.987,0.081
44.35,-0.055,0.787,-0.08
44.36,-0.392,0.286,-0.116
44.37,-0.11,2.0,0.187
44.38,-0.12,0.609,0.095
44.39,-0.118,0.984,-0.036
44.4,-0.435,0.267,-0.148
44.41,-0.112,1.87,0.159
44.42,-0.1,0.9,-0.014
44.43,-0.067,0.634,-0.08
44.44,-0.368,0.687,-0.167
44.45,-0.168,1.144,0.11
44.46,-0.306,1.502,0.063
44.47,-0.173,0.336,-0.07
44.48,-0.326,0.868,-0.099
44.49,-0.194,1.174,0.263
44.5,-0.164,1.246,0.06
44.51,-0.238,0.827,-0.156
44.52,-0.263,0.376,-0.054
44.53,-0.278,1.43,0.245
44.54,-0.113,0.886,0.015
44.55,-0.266,0.972,-0.103
44.56,-0.287,0.528,-0.047
44.57,-0.09,1.168,0.143
44.58,-0.243,1.016,-0.0
44.59,-0.293,0.675,-0.116
44.6,-0.237,1.208,-0.041
44.61,-0.035,0.779,0.118
44.62,-0.217,1.312,-0.025
44.63,-0.211,0.358,-0.177
44.64,-0.301,1.501,0.027
44.65,-0.143,0.703,0.127
44.66,-0.316,1.128,0.009
44.67,-0.219,0.559,-0.152
44.68,-0.263,1.566,0.034
44.69,-0.092,0.979,0.139
44.7,-0.061,0.559,0.009
44.71,-0.456,0.958,-0.212
44.72,-0.049,1.469,0.047
44.73,-0.143,0.994,0.118
44.74,-0.071,0.619,0.041
44.75,-0.492,0.608,-0.203
44.76,-0.16,1.815,0.104
44.77,-0.199,0.584,0.096
44.78,-0.152,0.988,0.011
44.79,-0.41,0.174,-0.196
44.8,-0.067,2.0,0.081
44.81,-0.018,0.634,0.109
44.82,-0.052,0.841,-0.041
44.83,-0.484,0.423,-0.206
44.84,0.003,1.772,0.098
44.85,-0.141,1.087,0.064
44.86,0.061,0.533,-0.056
44.87,-0.532,0.901,-0.157
44.88,-0.01,1.552,0.208
44.89,-0.275,1.16,0.084
44.9,0.02,0.528,-0.032
44.91,-0.432,0.646,-0.168
44.92,-0.095,1.673,0.095
44.93,-0.102,0.95,0.033
44.94,-0.075,0.927,-0.085
44.95,-0.258,0.172,-0.137
44.96,-0.249,1.614,0.1
44.97,-0.129,0.837,0.019
44.98,-0.253,1.012,-0.135
44.99,-0.357,0.391,-0.09
45.0,-0.241,1.415,0.267
45.01,-0.299,1.246,0.062
45.02,-0.002,0.499,-0.101
45.03,-0.42,0.914,-0.1
45.04,0.007,0.933,0.189
45.05,-0.454,1.548,0.058
45.06,-0.123,0.321,-0.129
45.07,-0.333,1.388,-0.001
45.08,0.003,0.765,0.163
45.09,-0.211,1.202,0.05
45.1,-0.344,0.687,-0.164
45.11,-0.326,0.837,-0.003
45.12,-0.185,1.104,0.159
45.13,-0.208,0.82,0.024
45.14,-0.323,0.907,-0.091
45.15,-0.272,1.276,0.043
45.16,-0.187,1.015,0.173
45.17,-0.197,0.763,0.002
45.18,-0.361,0.731,-0.138
45.19,-0.132,1.731,0.08
45.2,-0.001,0.708,0.153
45.21,-0.178,0.965,0.008
45.22,-0.401,0.276,-0.177
45.23,-0.342,1.999,0.1
45.24,-0.185,0.449,0.138
45.25,-0.208,1.023,0.009
45.26,-0.439,0.358,-0.215
45.27,-0.05,1.809,0.068
45.28,-0.075,0.957,0.07
45.29,0.003,0.403,-0.063
45.3,-0.518,0.797,-0.168
45.31,0.003,1.57,0.144
45.32,-0.211,1.205,0.124
45.33,0.081,0.551,-0.006
45.34,-0.504,0.748,-0.141
45.35,-0.019,1.805,0.195
45.36,-0.242,0.824,0.079
45.37,-0.06,0.887,-0.089
45.38,-0.33,0.248,-0.196
45.39,-0.107,2.0,0.127
45.4,-0.069,0.737,0.055
45.41,-0.105,0.987,-0.039
45.42,-0.362,0.301,-0.109
45.43,-0.153,1.523,0.177
45.44,-0.269,1.243,0.046
45.45,-0.025,0.591,-0.107
45.46,-0.518,0.826,-0.096
45.47,0.09,1.341,0.2
45.48,-0.418,1.42,0.022
45.49,0.004,0.512,-0.073
45.5,-0.458,0.716,-0.08
45.51,-0.131,1.201,0.213
45.52,-0.231,1.251,-0.022
45.53,-0.14,0.773,-0.14
45.54,-0.269,0.585,-0.041
45.55,-0.117,1.336,0.114
45.56,-0.164,0.734,-0.008
45.57,-0.376,1.048,-0.115
45.58,-0.272,0.631,-0.085
45.59,-0.132,1.07,0.175
45.6,-0.226,1.112,-0.035
45.61,-0.237,0.515,-0.138
45.62,-0.271,1.646,-0.021
45.63,-0.029,0.63,0.096
45.64,-0.403,1.314,-0.004
45.65,-0.264,0.309,-0.103
45.66,-0.338,1.808,-0.017
45.67,0.014,0.739,0.153
45.68,-0.138,0.893,0.006
45.69,-0.489,0.76,-0.217
45.7,-0.22,1.327,0.073
45.71,-0.319,1.008,0.168
45.72,-0.096,0.678,0.008
45.73,-0.487,0.866,-0.17
45.74,-0.137,1.411,0.062
45.75,-0.158,0.864,0.102
45.76,-0.095,0.749,0.024
45.77,-0.416,0.488,-0.174
45.78,-0.054,1.907,0.04
45.79,0.024,0.727,0.124
45.8,-0.079,1.053,0.005
45.81,-0.412,0.156,-0.198
45.82,-0.163,2.0,0.119
45.83,-0.178,0.647,0.038
45.84,-0.139,0.765,-0.034
45.85,-0.497,0.523,-0.205
45.86,-0.088,1.88,0.199
45.87,-0.152,0.966,0.055
45.88,0.029,0.49,-0.029
45.89,-0.503,0.842,-0.157
45.9,-0.068,1.259,0.159
45.91,-0.273,1.334,0.055
45.92,-0.021,0.496,-0.03
45.93,-0.443,0.82,-0.137
45.94,-0.018,1.533,0.165
45.95,-0.229,1.156,0.076
45.96,-0.057,0.877,-0.079
45.97,-0.345,0.301,-0.119
45.98,-0.17,1.753,0.164
45.99,-0.166,0.899,0.063
46.0,-0.127,0.993,-0.11
46.01,-0.384,0.281,-0.09
46.02,-0.223,1.433,0.227
46.03,-0.198,1.109,-0.017
46.04,-0.128,0.654,-0.155
46.05,-0.335,0.898,-0.078
46.06,-0.084,0.895,0.204
46.07,-0.388,1.497,0.087
46.08,-0.143,0.329,-0.083
46.09,-0.356,1.053,-0.044
46.1,0.031,0.917,0.097
46.11,-0.307,1.259,-0.027
46.12,-0.204,0.733,-0.164
46.13,-0.21,0.861,-0.037
46.14,-0.121,1.169,0.179
46.15,-0.131,0.786,0.044
46.16,-0.448,1.009,-0.146
46.17,-0.203,1.048,-0.062
46.18,-0.203,1.004,0.143
46.19,-0.222,0.934,-0.006
46.2,-0.319,0.601,-0.158
46.21,-0.331,1.691,-0.018
46.22,-0.105,0.602,0.125
46.23,-0.241,1.3,0.014
46.24,-0.266,0.233,-0.17
46.25,-0.293,1.92,0.093
46.26,-0.194,0.575,0.195
46.27,-0.103,0.955,0.035
46.28,-0.437,0.554,-0.222
46.29,-0.087,1.615,0.046
46.3,-0.232,0.919,0.111
46.31,0.035,0.531,-0.025
46.32,-0.507,0.855,-0.204
46.33,0.015,1.523,0.044
46.34,-0.209,0.971,0.095
46.35,0.045,0.6,0.006
46.36,-0.508,0.582,-0.167
46.37,0.024,1.923,0.049
46.38,-0.168,0.668,0.064
46.39,-0.038,0.911,-0.043
46.4,-0.418,0.178,-0.178
46.41,-0.086,2.0,0.148
46.42,-0.075,0.612,0.114
46.43,-0.095,0.812,-0.081
46.44,-0.505,0.429,-0.156
46.45,-0.047,1.71,0.131
46.46,-0.235,1.16,0.064
46.47,0.043,0.496,-0.072
46.48,-0.461,0.843,-0.162
46.49,0.033,1.534,0.18
46.5,-0.214,1.269,0.046
46.51,0.028,0.555,-0.055
46.52,-0.397,0.625,-0.184
46.53,-0.098,1.603,0.113
46.54,-0.085,0.98,-0.029
46.55,-0.104,0.917,-0.115
46.56,-0.291,0.194,-0.115
46.57,-0.284,1.609,0.157
46.58,-0.172,0.833,0.003
46.59,-0.243,0.984,-0.116
46.6,-0.34,0.447,-0.064
46.61,-0.153,1.192,0.212
46.62,-0.319,1.213,0.005
46.63,-0.06,0.523,-0.125
46.64,-0.422,1.065,-0.068
46.65,0.04,0.812,0.173
46.66,-0.373,1.435,-0.013
46.67,-0.226,0.322,-0.118
46.68,-0.263,1.739,-0.066
46.69,0.009,0.713,0.145
46.7,-0.227,1.122,-0.048
46.71,-0.367,0.637,-0.153
46.72,-0.256,1.426,0.001
46.73,-0.201,1.02,0.172
46.74,-0.104,0.717,-0.024
46.75,-0.436,0.887,-0.177
46.76,-0.191,1.307,0.031
46.77,-0.315,0.964,0.169
46.78,-0.112,0.809,0.021
46.79,-0.449,0.623,-0.131
46.8,-0.113,1.764,0.114
46.81,-0.16,0.648,0.148
46.82,-0.102,0.971,-0.014
46.83,-0.413,0.117,-0.222
46.84,-0.135,2.0,0.07
46.85,-0.115,0.534,0.088
46.86,-0.229,0.873,-0.007
46.87,-0.462,0.434,-0.188
46.88,-0.098,1.784,0.118
46.89,-0.209,0.895,0.12
46.9,0.032,0.422,-0.022
46.91,-0.626,0.891,-0.162
46.92,-0.024,1.484,0.194
46.93,-0.197,1.234,0.134
46.94,0.074,0.558,-0.011
46.95,-0.518,0.728,-0.171
46.96,-0.032,1.781,0.145
46.97,-0.125,0.904,0.077
46.98,-0.029,0.958,-0.089
46.99,-0.358,0.205,-0.155
47.0,-0.1,1.985,0.143
47.01,-0.164,0.759,0.076
47.02,-0.087,0.986,-0.061
47.03,-0.431,0.324,-0.141
47.04,-0.133,1.497,0.154
47.05,-0.262,1.221,0.003
47.06,-0.038,0.507,-0.118
47.07,-0.435,0.825,-0.102
47.08,-0.095,1.032,0.214
47.09,-0.428,1.527,0.056
47.1,-0.077,0.475,-0.065
47.11,-0.405,0.824,-0.026
47.12,-0.113,1.151,0.235
47.13,-0.169,1.248,-0.038
47.14,-0.23,0.784,-0.138
47.15,-0.173,0.678,-0.04
47.16,-0.145,1.287,0.136
47.17,-0.21,0.7,0.003
47.18,-0.274,0.983,-0.137
47.19,-0.235,0.921,-0.045
47.2,-0.014,0.998,0.087
47.21,-0.222,1.109,-0.072
47.22,-0.23,0.508,-0.19
47.23,-0.302,1.511,-0.026
47.24,-0.01,0.645,0.152
47.25,-0.269,1.362,-0.028
47.26,-0.218,0.328,-0.127
47.27,-0.332,1.781,0.095
47.28,-0.043,0.716,0.211
47.29,-0.134,0.728,-0.002
47.3,-0.478,0.682,-0.184
47.31,-0.181,1.589,0.091
47.32,-0.248,0.985,0.148
47.33,0.097,0.514,-0.011
47.34,-0.503,0.927,-0.241
47.35,0.031,1.53,0.041
47.36,-0.16,0.944,0.051
47.37,-0.019,0.654,-0.059
47.38,-0.414,0.459,-0.174
47.39,-0.069,2.0,0.074
47.4,-0.011,0.601,0.039
47.41,-0.089,0.972,-0.007
47.42,-0.418,0.163,-0.167
47.43,-0.163,2.0,0.194
47.44,-0.173,0.673,0.103
47.45,-0.044,0.818,-0.059
47.46,-0.449,0.562,-0.182
47.47,-0.016,1.655,0.197
47.48,-0.214,1.172,-0.004
47.49,-0.006,0.58,-0.112
47.5,-0.402,0.754,-0.153
47.51,-0.058,1.14,0.177
47.52,-0.331,1.475,0.066
47.53,-0.054,0.404,-0.057
47.54,-0.471,0.758,-0.022
47.55,-0.093,1.154,0.251
47.56,-0.291,1.23,0.041
47.57,-0.162,0.842,-0.12
47.58,-0.332,0.362,-0.015
47.59,-0.087,1.406,0.217
47.6,-0.186,0.928,-0.013
47.61,-0.181,1.028,-0.16
47.62,-0.303,0.624,-0.02
47.63,-0.005,1.091,0.108
47.64,-0.178,1.124,-0.137
47.65,-0.112,0.563,-0.209
47.66,-0.29,1.469,-0.082
47.67,0.135,0.67,0.056
47.68,-0.385,1.381,-0.029
47.69,-0.191,0.345,-0.148
47.7,-0.391,1.561,0.087
47.71,-0.045,0.713,0.112
47.72,-0.27,1.056,-0.024
47.73,-0.222,0.716,-0.2
47.74,-0.251,1.397,0.091
47.75,-0.173,0.956,0.148
47.76,-0.02,0.568,-0.019
47.77,-0.459,0.886,-0.227
47.78,-0.021,1.478,0.05
47.79,-0.107,0.998,0.076
47.8,-0.023,0.635,-0.016
47.81,-0.425,0.545,-0.205
47.82,-0.148,1.944,0.067
47.83,-0.13,0.59,0.091
47.84,-0.191,0.965,0.028
47.85,-0.469,0.177,-0.145
47.86,-0.176,2.0,0.234
47.87,-0.113,0.747,0.109
47.88,-0.047,0.762,-0.08
47.89,-0.45,0.501,-0.159
47.9,-0.115,1.665,0.177
47.91,-0.244,1.235,0.113
47.92,0.052,0.445,-0.022
47.93,-0.447,0.881,-0.176
47.94,0.075,1.496,0.147
47.95,-0.242,1.337,-0.009
47.96,-0.008,0.602,-0.084
47.97,-0.426,0.51,-0.148
47.98,-0.107,1.632,0.115
47.99,-0.183,1.053,0.03
48.0,-0.232,0.9,-0.078
48.01,-0.333,0.145,-0.044
48.02,-0.302,1.641,0.244
48.03,-0.182,0.915,0.018
48.04,-0.228,0.928,-0.099
48.05,-0.356,0.481,-0.044
48.06,-0.085,1.144,0.228
48.07,-0.314,1.38,-0.016
48.08,-0.102,0.445,-0.144
48.09,-0.342,1.135,-0.075
48.1,0.053,0.782,0.111
48.11,-0.281,1.454,-0.098
48.12,-0.2,0.409,-0.152
48.13,-0.219,1.158,-0.071
48.14,-0.056,0.976,0.1
48.15,-0.062,0.916,-0.09
48.16,-0.4,0.916,-0.202
48.17,-0.102,1.281,0.032
48.18,-0.148,1.09,0.135
48.19,-0.16,0.665,0.045
48.2,-0.373,0.903,-0.147
48.21,-0.232,1.509,0.079
48.22,-0.202,0.758,0.22
48.23,-0.247,0.895,0.003
48.24,-0.458,0.258,-0.184
48.25,-0.274,2.0,0.057
48.26,-0.098,0.446,0.061
48.27,-0.259,1.03,0.013
48.28,-0.453,0.165,-0.14
48.29,-0.13,2.0,0.189
48.3,-0.053,0.747,0.125
48.31,-0.085,0.848,-0.046
48.32,-0.461,0.443,-0.178
48.33,-0.042,1.748,0.173
48.34,-0.238,1.131,0.049
48.35,0.077,0.475,-0.073
48.36,-0.531,0.875,-0.164
48.37,0.012,1.454,0.13
48.38,-0.234,1.427,0.033
48.39,0.045,0.517,-0.038
48.4,-0.337,0.597,-0.123
48.41,-0.171,1.392,0.119
48.42,-0.232,0.998,-0.016
