t,ax,ay,az
0.0,-0.297,1.249,0.035
0.01,-0.115,0.421,-0.055
0.02,-0.415,0.963,-0.134
0.03,-0.125,1.153,0.195
0.04,-0.158,1.151,-0.027
0.05,-0.187,0.771,-0.121
0.06,-0.327,0.419,-0.107
0.07,-0.088,1.223,0.139
0.08,-0.095,0.833,-0.037
0.09,-0.282,0.983,-0.125
0.1,-0.316,0.323,-0.101
0.11,-0.195,1.41,0.141
0.12,-0.134,0.776,0.031
0.13,-0.385,0.841,-0.129
0.14,-0.278,0.689,-0.045
0.15,-0.15,1.122,0.12
0.16,-0.25,1.109,0.014
0.17,-0.118,0.473,-0.14
0.18,-0.372,1.346,-0.1
0.19,-0.016,0.796,0.157
0.2,-0.337,1.249,0.013
0.21,-0.229,0.345,-0.14
0.22,-0.298,1.222,-0.058
0.23,-0.128,0.98,0.136
0.24,-0.222,0.819,0.009
0.25,-0.393,0.875,-0.157
0.26,-0.219,0.881,-0.046
0.27,-0.24,1.243,0.159
0.28,-0.103,0.744,0.028
0.29,-0.452,0.889,-0.194
0.3,-0.204,1.143,0.048
0.31,-0.154,1.021,0.075
0.32,-0.204,1.022,-0.005
0.33,-0.346,0.43,-0.163
0.34,-0.231,1.781,0.016
0.35,-0.076,0.681,0.111
0.36,-0.175,1.168,0.012
0.37,-0.327,0.448,-0.271
0.38,-0.233,1.67,0.027
0.39,-0.169,0.871,0.112
0.4,-0.094,0.785,0.114
0.41,-0.484,0.912,-0.201
0.42,-0.147,1.371,0.079
0.43,-0.233,1.186,0.168
0.44,0.017,0.495,0.098
0.45,-0.516,1.056,-0.178
0.46,-0.192,1.478,0.079
0.47,-0.183,0.889,0.126
0.48,-0.022,0.839,0.011
0.49,-0.464,0.59,-0.177
0.5,-0.18,2.0,0.135
0.51,-0.102,0.569,0.117
0.52,-0.077,1.041,0.059
0.53,-0.425,0.348,-0.201
0.54,-0.127,1.975,0.129
0.55,-0.12,0.727,0.124
0.56,0.014,0.715,0.006
0.57,-0.507,0.813,-0.177
0.58,-0.008,1.566,0.14
0.59,-0.222,1.108,0.153
0.6,0.087,0.396,0.02
0.61,-0.469,1.003,-0.216
0.62,-0.014,1.571,0.151
0.63,-0.118,1.043,0.114
0.64,0.004,0.606,-0.045
0.65,-0.396,0.608,-0.177
0.66,-0.143,1.873,0.129
0.67,-0.026,0.706,0.105
0.68,-0.142,0.898,-0.055
0.69,-0.347,0.253,-0.195
0.7,-0.124,1.949,0.106
0.71,-0.105,0.842,0.102
0.72,-0.176,0.984,-0.076
0.73,-0.413,0.327,-0.135
0.74,-0.093,1.602,0.21
0.75,-0.229,1.139,0.14
0.76,-0.036,0.578,-0.05
0.77,-0.487,0.899,-0.156
0.78,-0.034,1.22,0.205
0.79,-0.315,1.371,0.082
0.8,0.018,0.494,-0.03
0.81,-0.47,0.801,-0.169
0.82,-0.059,1.319,0.125
0.83,-0.2,0.928,0.037
0.84,-0.137,0.992,-0.102
0.85,-0.41,0.273,-0.125
0.86,-0.194,1.539,0.199
0.87,-0.159,0.789,0.061
0.88,-0.309,0.981,-0.109
0.89,-0.335,0.285,-0.091
0.9,-0.168,1.321,0.173
0.91,-0.19,0.852,0.023
0.92,-0.28,0.771,-0.103
0.93,-0.345,0.825,-0.061
0.94,-0.033,1.031,0.131
0.95,-0.299,1.21,-0.014
0.96,-0.146,0.328,-0.183
0.97,-0.372,1.227,-0.054
0.98,-0.026,0.865,0.133
0.99,-0.32,1.23,0.007
1.0,-0.171,0.501,-0.201
1.01,-0.337,1.085,-0.009
1.02,-0.042,1.143,0.148
1.03,-0.146,0.773,-0.016
1.04,-0.393,0.897,-0.169
1.05,-0.224,0.878,-0.007
1.06,-0.173,1.241,0.141
1.07,-0.156,0.765,-0.004
1.08,-0.421,0.848,-0.204
1.09,-0.175,1.342,-0.008
1.1,-0.101,0.898,0.127
1.11,-0.224,1.124,0.01
1.12,-0.226,0.384,-0.227
1.13,-0.278,1.842,-0.034
1.14,0.031,0.695,0.11
1.15,-0.184,1.075,0.058
1.16,-0.385,0.542,-0.221
1.17,-0.275,1.596,0.036
1.18,-0.152,0.95,0.14
1.19,-0.08,0.635,0.041
1.2,-0.47,1.013,-0.232
1.21,-0.182,1.304,0.033
1.22,-0.194,1.16,0.175
1.23,-0.065,0.586,0.053
1.24,-0.518,0.907,-0.164
1.25,-0.176,1.7,0.076
1.26,-0.096,0.85,0.138
1.27,-0.096,0.91,0.065
1.28,-0.382,0.474,-0.173
1.29,-0.226,2.0,0.098
1.3,-0.178,0.552,0.118
1.31,-0.098,1.029,0.084
1.32,-0.463,0.422,-0.202
1.33,-0.112,1.883,0.123
1.34,-0.24,0.812,0.096
1.35,0.128,0.607,0.002
1.36,-0.523,0.906,-0.205
1.37,0.075,1.507,0.041
1.38,-0.153,1.13,0.061
1.39,0.154,0.467,-0.031
1.4,-0.49,0.933,-0.216
1.41,0.042,1.753,0.027
1.42,-0.129,0.938,0.11
1.43,0.02,0.728,-0.025
1.44,-0.427,0.45,-0.156
1.45,-0.148,1.99,0.087
1.46,-0.043,0.654,0.064
1.47,-0.059,0.905,-0.051
1.48,-0.355,0.346,-0.143
1.49,-0.106,1.882,0.12
1.5,-0.125,0.894,0.112
1.51,-0.021,0.57,-0.049
1.52,-0.464,0.877,-0.214
1.53,0.01,1.518,0.158
1.54,-0.197,1.25,0.086
1.55,0.017,0.356,-0.032
1.56,-0.464,0.969,-0.227
1.57,-0.056,1.437,0.136
1.58,-0.162,1.015,0.093
1.59,-0.072,0.796,-0.049
1.6,-0.413,0.425,-0.164
1.61,-0.187,1.768,0.207
1.62,-0.097,0.762,0.133
1.63,-0.211,1.008,-0.045
1.64,-0.427,0.266,-0.151
1.65,-0.163,1.645,0.17
1.66,-0.163,0.972,0.111
1.67,-0.147,0.6,-0.044
1.68,-0.4,0.523,-0.169
1.69,-0.108,1.234,0.189
1.7,-0.211,1.124,0.035
1.71,-0.114,0.502,-0.109
1.72,-0.517,0.909,-0.136
1.73,-0.044,1.066,0.216
1.74,-0.321,1.297,0.092
1.75,-0.048,0.546,-0.11
1.76,-0.511,0.72,-0.136
1.77,-0.06,1.257,0.184
1.78,-0.139,0.966,-0.005
1.79,-0.219,0.932,-0.099
1.8,-0.384,0.292,-0.111
1.81,-0.147,1.463,0.182
1.82,-0.162,0.743,-0.013
1.83,-0.255,0.946,-0.118
1.84,-0.405,0.491,-0.126
1.85,-0.111,1.156,0.156
1.86,-0.235,1.143,0.001
1.87,-0.137,0.498,-0.131
1.88,-0.521,1.013,-0.066
1.89,-0.035,0.893,0.172
1.9,-0.325,1.301,0.03
1.91,-0.139,0.408,-0.136
1.92,-0.508,0.967,-0.018
1.93,-0.046,1.1,0.119
1.94,-0.281,0.857,0.051
1.95,-0.244,0.836,-0.131
1.96,-0.362,0.704,-0.03
1.97,-0.115,1.311,0.136
1.98,-0.13,0.737,0.044
1.99,-0.45,0.928,-0.143
2.0,-0.208,0.838,-0.059
2.01,-0.131,1.097,0.116
2.02,-0.263,1.084,0.034
2.03,-0.262,0.43,-0.199
2.04,-0.241,1.421,-0.065
2.05,-0.129,0.793,0.155
2.06,-0.239,1.276,0.052
2.07,-0.317,0.324,-0.163
2.08,-0.224,1.469,-0.036
2.09,-0.05,1.625,0.129
2.1,-0.194,0.966,0.096
2.11,-0.008,0.716,0.002
2.12,-0.453,0.531,-0.151
2.13,-0.078,2.0,0.135
2.14,-0.058,0.693,0.119
2.15,-0.145,0.898,0.019
2.16,-0.374,0.283,-0.18
2.17,-0.088,2.0,0.125
2.18,-0.071,0.737,0.137
2.19,-0.093,0.659,0.022
2.2,-0.401,0.81,-0.234
2.21,-0.1,1.689,0.164
2.22,-0.224,1.161,0.154
2.23,0.056,0.347,0.001
2.24,-0.437,1.041,-0.176
2.25,-0.085,1.384,0.097
2.26,-0.083,1.134,0.063
2.27,-0.031,0.733,-0.069
2.28,-0.388,0.485,-0.178
2.29,-0.132,1.836,0.177
2.3,-0.052,0.782,0.056
2.31,-0.093,1.006,-0.094
2.32,-0.376,0.227,-0.169
2.33,-0.11,1.802,0.124
2.34,-0.096,0.853,0.103
2.35,-0.064,0.75,-0.073
2.36,-0.473,0.632,-0.188
2.37,-0.166,1.306,0.21
2.38,-0.291,1.064,0.067
2.39,-0.036,0.6,-0.104
2.4,-0.439,0.921,-0.151
2.41,-0.042,0.955,0.179
2.42,-0.262,1.283,0.026
2.43,-0.079,0.49,-0.124
2.44,-0.483,0.849,-0.088
2.45,-0.079,1.094,0.148
2.46,-0.251,1.004,0.016
2.47,-0.206,0.831,-0.096
2.48,-0.416,0.432,-0.033
2.49,-0.157,1.416,0.201
2.5,-0.235,0.717,0.071
2.51,-0.365,0.892,-0.114
2.52,-0.307,0.609,-0.066
2.53,-0.123,1.197,0.087
2.54,-0.215,1.011,-0.008
2.55,-0.266,0.508,-0.138
2.56,-0.323,1.287,-0.066
2.57,-0.05,0.83,0.172
2.58,-0.347,1.28,0.017
2.59,-0.288,0.271,-0.162
2.6,-0.27,1.468,-0.048
2.61,-0.076,0.889,0.091
2.62,-0.156,0.996,0.023
2.63,-0.444,0.751,-0.214
2.64,-0.122,1.078,-0.012
2.65,-0.178,1.23,0.101
2.66,-0.153,0.653,0.061
2.67,-0.477,1.001,-0.14
2.68,-0.189,1.242,0.01
2.69,-0.115,1.073,0.089
2.7,-0.137,0.813,-0.009
2.71,-0.421,0.696,-0.216
2.72,-0.223,1.797,0.021
2.73,-0.113,0.647,0.113
2.74,-0.152,1.124,0.057
2.75,-0.388,0.325,-0.233
2.76,-0.281,1.957,0.078
2.77,-0.174,0.665,0.123
2.78,-0.111,0.822,0.025
2.79,-0.4,0.687,-0.225
2.8,-0.154,1.594,0.109
2.81,-0.108,1.099,0.129
2.82,-0.028,0.396,0.019
2.83,-0.443,1.019,-0.164
2.84,-0.043,1.644,0.108
2.85,-0.184,1.07,0.142
2.86,-0.041,0.566,-0.016
2.87,-0.437,0.709,-0.173
2.88,-0.032,1.947,0.131
2.89,-0.109,0.684,0.143
2.9,-0.08,0.937,0.006
2.91,-0.387,0.271,-0.239
2.92,-0.087,1.961,0.07
2.93,-0.033,0.726,0.09
2.94,-0.065,0.787,-0.025
2.95,-0.455,0.501,-0.216
2.96,-0.039,1.695,0.157
2.97,-0.191,1.231,0.115
2.98,0.04,0.344,-0.025
2.99,-0.524,0.98,-0.198
3.0,-0.009,1.399,0.131
3.01,-0.229,1.23,0.086
3.02,-0.018,0.607,-0.043
3.03,-0.486,0.655,-0.153
3.04,-0.114,1.58,0.176
3.05,-0.136,0.86,0.072
3.06,-0.14,1.075,-0.064
3.07,-0.411,0.177,-0.17
3.08,-0.102,1.747,0.188
3.09,-0.167,0.866,0.086
3.1,-0.149,0.865,-0.103
3.11,-0.362,0.525,-0.186
3.12,-0.089,1.253,0.164
3.13,-0.213,1.186,-0.015
3.14,-0.1,0.482,-0.171
3.15,-0.413,0.978,-0.142
3.16,-0.083,1.012,0.206
3.17,-0.258,1.2,0.069
3.18,-0.198,0.448,-0.114
3.19,-0.498,0.992,-0.064
3.2,-0.11,0.999,0.213
3.21,-0.225,1.139,0.038
3.22,-0.278,0.597,-0.127
3.23,-0.344,0.846,0.01
3.24,-0.155,1.271,0.221
3.25,-0.163,0.684,0.084
3.26,-0.377,0.972,-0.124
3.27,-0.287,0.791,-0.036
3.28,-0.129,1.238,0.105
3.29,-0.202,0.92,0.007
3.3,-0.328,0.682,-0.165
3.31,-0.281,1.297,-0.071
3.32,-0.023,0.863,0.122
3.33,-0.257,1.287,0.0
3.34,-0.264,0.261,-0.224
3.35,-0.22,1.633,-0.085
3.36,-0.094,0.777,0.095
3.37,-0.174,1.115,0.028
3.38,-0.334,0.63,-0.266
3.39,-0.187,1.303,-0.041
3.4,-0.106,1.151,0.056
3.41,-0.046,0.645,0.017
3.42,-0.413,0.996,-0.204
3.43,-0.24,1.246,0.068
3.44,-0.175,1.104,0.074
3.45,-0.093,0.709,0.035
3.46,-0.407,0.847,-0.182
3.47,-0.242,1.753,0.044
3.48,-0.14,0.72,0.164
3.49,-0.125,1.032,0.049
3.5,-0.385,0.364,-0.176
3.51,-0.267,2.0,0.108
3.52,-0.093,0.682,0.134
3.53,-0.169,0.906,0.03
3.54,-0.351,0.525,-0.224
3.55,-0.158,1.755,0.112
3.56,-0.119,0.929,0.077
3.57,0.059,0.503,0.021
3.58,-0.556,1.077,-0.155
3.59,-0.064,1.458,0.154
3.6,-0.271,1.087,0.162
3.61,0.085,0.55,0.042
3.62,-0.485,0.834,-0.22
3.63,0.035,1.847,0.095
3.64,-0.117,0.746,0.078
3.65,-0.029,0.859,-0.01
3.66,-0.318,0.354,-0.209
3.67,-0.113,2.0,0.126
3.68,-0.052,0.629,0.135
3.69,-0.108,0.832,-0.034
3.7,-0.415,0.446,-0.195
3.71,-0.125,1.828,0.145
3.72,-0.16,1.036,0.074
3.73,-0.021,0.428,-0.021
3.74,-0.554,0.969,-0.189
3.75,0.009,1.356,0.21
3.76,-0.237,1.289,0.085
3.77,0.002,0.413,-0.009
3.78,-0.49,0.833,-0.171
3.79,-0.06,1.525,0.17
3.8,-0.106,0.932,0.081
3.81,-0.113,0.896,-0.096
3.82,-0.436,0.318,-0.16
3.83,-0.122,1.778,0.164
3.84,-0.11,0.755,0.151
3.85,-0.095,0.921,-0.082
3.86,-0.479,0.364,-0.167
3.87,-0.153,1.423,0.203
3.88,-0.234,1.031,0.062
3.89,-0.047,0.648,-0.098
3.9,-0.458,0.857,-0.189
3.91,-0.007,1.08,0.19
3.92,-0.26,1.256,0.081
3.93,-0.11,0.503,-0.118
3.94,-0.46,0.841,-0.192
3.95,-0.048,1.187,0.135
3.96,-0.215,1.111,0.029
3.97,-0.144,0.842,-0.08
3.98,-0.487,0.635,-0.062
3.99,-0.069,1.322,0.179
4.0,-0.084,0.798,0.044
4.01,-0.421,0.919,-0.158
4.02,-0.335,0.375,-0.045
4.03,-0.232,1.426,0.127
4.04,-0.166,0.728,0.003
4.05,-0.237,0.799,-0.087
4.06,-0.339,1.015,-0.103
4.07,-0.053,1.028,0.214
4.08,-0.246,1.184,0.011
4.09,-0.242,0.396,-0.155
4.1,-0.445,1.271,-0.026
4.11,-0.053,0.905,0.13
4.12,-0.222,1.24,0.044
4.13,-0.3,0.447,-0.147
4.14,-0.312,1.043,-0.011
4.15,-0.122,1.115,0.148
4.16,-0.124,0.767,-0.013
4.17,-0.295,0.85,-0.196
4.18,-0.133,0.955,-0.117
4.19,-0.115,1.296,0.1
4.2,-0.107,0.727,0.002
4.21,-0.401,0.851,-0.167
4.22,-0.202,1.181,-0.106
4.23,-0.13,0.948,0.112
4.24,-0.156,1.137,0.0
4.25,-0.267,0.45,-0.149
4.26,-0.273,1.749,-0.052
4.27,-0.025,0.76,0.144
4.28,-0.252,1.149,0.027
4.29,-0.286,0.489,-0.239
4.3,-0.207,1.568,-0.05
4.31,-0.075,0.975,0.13
4.32,-0.051,0.682,0.032
4.33,-0.49,0.957,-0.197
4.34,-0.146,1.232,0.017
4.35,-0.26,1.101,0.145
4.36,-0.012,0.656,0.065
4.37,-0.492,0.97,-0.201
4.38,-0.144,1.478,0.057
4.39,-0.22,0.833,0.143
4.4,-0.081,0.92,0.052
4.41,-0.348,0.541,-0.201
4.42,-0.336,1.941,0.108
4.43,-0.049,0.635,0.179
4.44,-0.209,1.043,0.069
4.45,-0.354,0.414,-0.216
4.46,-0.294,1.917,0.09
4.47,-0.12,0.817,0.134
4.48,-0.031,0.636,0.044
4.49,-0.398,0.922,-0.215
4.5,-0.168,1.41,0.12
4.51,-0.217,1.167,0.214
4.52,0.057,0.443,0.086
4.53,-0.489,0.946,-0.151
4.54,-0.044,1.594,0.102
4.55,-0.163,0.886,0.077
4.56,0.027,0.775,-0.025
4.57,-0.413,0.47,-0.206
4.58,-0.084,2.0,0.09
4.59,-0.079,0.594,0.088
4.6,-0.052,0.946,-0.003
4.61,-0.288,0.377,-0.26
4.62,-0.07,1.984,0.069
4.63,-0.104,0.755,0.118
4.64,-0.031,0.625,-0.029
4.65,-0.398,0.862,-0.23
4.66,-0.029,1.655,0.138
4.67,-0.233,1.137,0.144
4.68,0.085,0.341,0.012
4.69,-0.477,1.03,-0.218
4.7,-0.017,1.58,0.055
4.71,-0.12,1.02,0.099
4.72,0.019,0.689,-0.027
4.73,-0.409,0.546,-0.193
4.74,-0.038,1.908,0.135
4.75,-0.068,0.691,0.119
4.76,-0.092,0.92,-0.047
4.77,-0.384,0.295,-0.235
4.78,-0.082,1.944,0.13
4.79,-0.133,0.768,0.091
4.8,-0.111,0.913,-0.095
4.81,-0.445,0.383,-0.196
4.82,-0.125,1.51,0.186
4.83,-0.228,1.081,0.14
4.84,-0.041,0.571,-0.065
4.85,-0.551,0.895,-0.189
4.86,0.021,1.316,0.233
4.87,-0.26,1.324,0.116
4.88,-0.07,0.484,-0.016
4.89,-0.454,0.828,-0.193
4.9,-0.112,1.417,0.15
4.91,-0.182,0.997,0.05
4.92,-0.104,0.945,-0.079
4.93,-0.412,0.27,-0.173
4.94,-0.231,1.609,0.235
4.95,-0.043,0.8,0.067
4.96,-0.295,1.026,-0.061
4.97,-0.353,0.276,-0.161
4.98,-0.185,1.449,0.218
4.99,-0.136,1.112,0.041
5.0,-0.024,0.602,-0.119
5.01,-0.472,0.923,-0.169
5.02,0.017,1.052,0.172
5.03,-0.315,1.273,0.101
5.04,-0.048,0.481,-0.093
5.05,-0.512,0.895,-0.137
5.06,-0.07,1.138,0.184
5.07,-0.224,0.979,0.003
5.08,-0.197,0.858,-0.151
5.09,-0.418,0.339,-0.145
5.1,-0.13,1.475,0.172
5.11,-0.099,0.786,0.015
5.12,-0.2,1.023,-0.176
5.13,-0.366,0.364,-0.156
5.14,-0.096,1.309,0.174
5.15,-0.138,1.0,-0.032
5.16,-0.201,0.542,-0.174
5.17,-0.408,0.981,-0.141
5.18,0.049,0.948,0.096
5.19,-0.369,1.289,-0.016
5.2,-0.088,0.375,-0.108
5.21,-0.519,1.057,-0.047
5.22,0.006,1.003,0.165
5.23,-0.307,1.135,0.035
5.24,-0.22,0.691,-0.159
5.25,-0.378,0.586,-0.059
5.26,-0.105,1.302,0.128
5.27,-0.132,0.749,0.005
5.28,-0.37,0.925,-0.135
5.29,-0.248,0.77,-0.04
5.3,-0.155,1.216,0.172
5.31,-0.201,0.948,0.002
5.32,-0.289,0.612,-0.15
5.33,-0.272,1.437,-0.044
5.34,-0.024,0.83,0.133
5.35,-0.244,1.251,0.019
5.36,-0.291,0.35,-0.197
5.37,-0.286,1.61,-0.031
5.38,-0.102,0.789,0.128
5.39,-0.211,1.047,0.056
5.4,-0.366,0.617,-0.156
5.41,-0.203,1.358,0.011
5.42,-0.138,1.117,0.114
5.43,-0.005,0.618,0.024
5.44,-0.471,1.09,-0.202
5.45,-0.18,1.25,0.054
5.46,-0.209,1.073,0.133
5.47,-0.081,0.769,0.053
5.48,-0.453,0.773,-0.203
5.49,-0.213,1.809,0.049
5.5,-0.166,0.724,0.147
5.51,-0.163,1.011,0.034
5.52,-0.393,0.351,-0.21
5.53,-0.221,2.0,0.101
5.54,-0.105,0.668,0.139
5.55,-0.126,0.922,0.026
5.56,-0.454,0.602,-0.185
5.57,-0.135,1.731,0.166
5.58,-0.19,1.01,0.097
5.59,0.091,0.478,0.003
5.6,-0.454,0.823,-0.234
5.61,0.043,1.658,0.132
5.62,-0.258,1.158,0.148
5.63,0.088,0.345,-0.026
5.64,-0.501,0.999,-0.237
5.65,-0.048,1.473,0.118
5.66,-0.146,1.067,0.088
5.67,-0.009,0.69,-0.047
5.68,-0.431,0.448,-0.197
5.69,-0.164,1.768,0.203
5.7,-0.029,0.737,0.091
5.71,-0.172,1.003,-0.066
5.72,-0.373,0.24,-0.171
5.73,-0.151,1.718,0.157
5.74,-0.106,0.913,0.078
5.75,-0.135,0.678,-0.053
5.76,-0.371,0.706,-0.192
5.77,-0.115,1.314,0.177
5.78,-0.216,1.289,0.059
5.79,0.027,0.471,0.002
5.8,-0.598,0.913,-0.159
5.81,-0.012,1.246,0.214
5.82,-0.229,1.112,0.069
5.83,-0.113,0.774,-0.103
5.84,-0.346,0.466,-0.201
5.85,-0.155,1.487,0.132
5.86,-0.084,0.832,0.036
5.87,-0.159,1.029,-0.107
5.88,-0.382,0.203,-0.16
5.89,-0.163,1.437,0.201
5.9,-0.201,0.883,0.038
5.91,-0.173,0.819,-0.127
5.92,-0.49,0.65,-0.169
5.93,-0.091,1.107,0.213
5.94,-0.253,1.297,0.066
5.95,-0.12,0.362,-0.109
5.96,-0.515,0.994,-0.126
5.97,-0.002,0.979,0.191
5.98,-0.302,1.179,0.006
5.99,-0.066,0.635,-0.151
6.0,-0.509,0.583,-0.106
6.01,-0.129,1.31,0.151
6.02,-0.257,0.767,0.012
6.03,-0.25,1.005,-0.124
6.04,-0.393,0.331,-0.075
6.05,-0.127,1.313,0.145
6.06,-0.158,0.873,-0.01
6.07,-0.266,0.752,-0.153
6.08,-0.356,0.888,-0.097
6.09,-0.022,1.019,0.156
6.1,-0.285,1.202,-0.004
6.11,-0.088,0.359,-0.151
6.12,-0.493,1.308,-0.06
6.13,0.013,0.827,0.183
6.14,-0.364,1.229,0.045
6.15,-0.27,0.429,-0.155
6.16,-0.23,1.147,-0.037
6.17,-0.159,1.074,0.15
6.18,-0.07,0.725,0.039
6.19,-0.429,0.982,-0.161
6.2,-0.162,0.897,-0.035
6.21,-0.226,1.254,0.141
6.22,-0.108,0.771,0.052
6.23,-0.431,0.847,-0.163
6.24,-0.157,1.317,-0.018
6.25,-0.097,0.901,0.157
6.26,-0.208,1.104,0.009
6.27,-0.374,0.398,-0.199
6.28,-0.226,1.763,0.018
6.29,-0.133,0.686,0.138
6.3,-0.252,1.18,0.061
6.31,-0.315,0.496,-0.211
6.32,-0.266,1.564,0.01
6.33,-0.13,0.923,0.128
6.34,-0.052,0.766,0.032
6.35,-0.499,0.929,-0.214
6.36,-0.118,1.327,0.061
6.37,-0.212,1.216,0.203
6.38,-0.002,0.533,0.088
6.39,-0.567,0.972,-0.145
6.4,-0.014,1.541,0.108
6.41,-0.178,1.074,0.142
6.42,0.033,0.6,0.049
6.43,-0.527,0.72,-0.207
6.44,-0.042,1.949,0.087
6.45,-0.104,0.658,0.1
6.46,-0.03,0.933,0.011
6.47,-0.335,0.371,-0.19
6.48,-0.159,2.0,0.074
6.49,-0.077,0.672,0.168
6.5,-0.061,0.808,-0.017
6.51,-0.373,0.591,-0.252
6.52,0.03,1.781,0.095
6.53,-0.168,1.1,0.062
6.54,0.096,0.358,-0.034
6.55,-0.532,1.03,-0.201
6.56,0.091,1.588,0.135
6.57,-0.156,1.162,0.051
6.58,0.051,0.448,-0.039
6.59,-0.447,0.75,-0.22
6.6,-0.043,1.74,0.149
6.61,-0.11,0.794,0.078
6.62,-0.087,0.904,-0.053
6.63,-0.423,0.274,-0.141
6.64,-0.167,2.0,0.158
6.65,-0.096,0.759,0.117
6.66,-0.154,0.832,-0.038
6.67,-0.472,0.459,-0.178
6.68,-0.071,1.557,0.208
6.69,-0.209,1.18,0.11
6.7,0.056,0.438,-0.065
6.71,-0.503,0.953,-0.214
6.72,0.009,1.267,0.209
6.73,-0.259,1.294,0.053
6.74,-0.051,0.546,-0.048
6.75,-0.458,0.724,-0.168
6.76,-0.086,1.459,0.181
6.77,-0.142,0.947,0.098
6.78,-0.1,1.014,-0.067
6.79,-0.484,0.2,-0.16
6.8,-0.145,1.679,0.181
6.81,-0.119,0.839,0.106
6.82,-0.207,0.947,-0.057
6.83,-0.456,0.412,-0.165
6.84,-0.121,1.275,0.211
6.85,-0.216,1.156,0.051
6.86,-0.031,0.534,-0.13
6.87,-0.524,0.944,-0.169
6.88,-0.01,0.968,0.183
6.89,-0.247,1.273,0.058
6.9,-0.101,0.492,-0.093
6.91,-0.489,0.794,-0.142
6.92,-0.049,1.137,0.168
6.93,-0.197,1.02,0.038
6.94,-0.18,0.804,-0.106
6.95,-0.449,0.367,-0.121
6.96,-0.163,1.403,0.201
6.97,-0.17,0.712,0.023
6.98,-0.318,0.928,-0.11
6.99,-0.313,0.463,-0.072
7.0,-0.142,1.215,0.15
7.01,-0.138,1.104,-0.033
7.02,-0.241,0.432,-0.143
7.03,-0.345,1.137,-0.02
7.04,-0.019,0.89,0.135
7.05,-0.306,1.248,0.011
7.06,-0.203,0.424,-0.127
7.07,-0.4,1.203,-0.023
7.08,-0.125,0.957,0.164
7.09,-0.19,0.972,0.058
7.1,-0.405,0.742,-0.147
7.11,-0.193,0.844,-0.054
7.12,-0.217,1.243,0.151
7.13,-0.015,0.745,0.025
7.14,-0.458,0.893,-0.157
7.15,-0.083,1.066,-0.05
7.16,-0.198,1.126,0.137
7.17,-0.097,0.954,0.03
7.18,-0.32,0.621,-0.228
7.19,-0.195,1.649,-0.063
7.2,-0.02,0.73,0.053
7.21,-0.198,0.986,0.029
7.22,-0.287,0.449,-0.148
7.23,-0.383,1.999,0.07
7.24,-0.082,0.62,0.184
7.25,-0.201,0.982,0.045
7.26,-0.419,0.514,-0.208
7.27,-0.26,1.786,0.101
7.28,-0.267,0.849,0.1
7.29,0.01,0.626,0.066
7.3,-0.521,0.951,-0.139
7.31,-0.059,1.432,0.111
7.32,-0.295,1.179,0.2
7.33,0.053,0.454,0.057
7.34,-0.561,0.943,-0.13
7.35,-0.009,1.783,0.082
7.36,-0.189,0.77,0.148
7.37,-0.015,0.869,0.014
7.38,-0.465,0.42,-0.199
7.39,-0.088,2.0,0.084
7.4,-0.069,0.612,0.089
7.41,-0.081,0.88,-0.018
7.42,-0.334,0.408,-0.219
7.43,-0.094,1.908,0.057
7.44,-0.061,0.907,0.073
7.45,-0.025,0.5,-0.022
7.46,-0.438,0.901,-0.229
7.47,-0.084,1.503,0.188
7.48,-0.188,1.219,0.112
7.49,0.007,0.38,0.011
7.5,-0.582,0.895,-0.153
7.51,-0.047,1.509,0.195
7.52,-0.245,1.015,0.144
7.53,-0.05,0.792,-0.013
7.54,-0.446,0.362,-0.137
7.55,-0.162,1.79,0.193
7.56,-0.133,0.742,0.138
7.57,-0.225,0.997,-0.07
7.58,-0.377,0.227,-0.128
7.59,-0.157,1.736,0.205
7.6,-0.182,0.99,0.123
7.61,-0.091,0.623,-0.06
7.62,-0.448,0.793,-0.182
7.63,-0.044,1.217,0.227
7.64,-0.287,1.323,0.055
7.65,-0.06,0.462,-0.043
7.66,-0.465,0.862,-0.166
7.67,-0.049,1.204,0.19
7.68,-0.231,1.138,0.083
7.69,-0.117,0.828,-0.12
7.7,-0.403,0.382,-0.195
7.71,-0.097,1.505,0.156
7.72,-0.084,0.876,0.001
7.73,-0.242,0.969,-0.147
7.74,-0.402,0.312,-0.174
7.75,-0.149,1.406,0.166
7.76,-0.208,0.929,0.018
7.77,-0.235,0.693,-0.104
7.78,-0.506,0.79,-0.144
7.79,-0.047,1.001,0.208
7.8,-0.302,1.298,0.029
7.81,-0.168,0.339,-0.074
7.82,-0.563,0.991,-0.042
7.83,0.005,1.001,0.19
7.84,-0.223,1.126,0.033
7.85,-0.236,0.646,-0.118
7.86,-0.355,0.683,-0.042
7.87,-0.128,1.261,0.142
7.88,-0.156,0.694,0.047
7.89,-0.265,1.021,-0.104
7.9,-0.32,0.656,-0.065
7.91,-0.045,1.252,0.145
7.92,-0.174,0.934,0.009
7.93,-0.31,0.726,-0.164
7.94,-0.309,1.056,-0.105
7.95,-0.005,0.941,0.05
7.96,-0.144,1.293,0.009
7.97,-0.189,0.272,-0.235
7.98,-0.272,1.585,-0.144
7.99,-0.024,0.816,0.078
8.0,-0.23,1.066,0.01
8.01,-0.309,0.428,-0.131
8.02,-0.385,1.809,0.062
8.03,-0.128,0.775,0.174
8.04,-0.144,0.819,0.073
8.05,-0.45,0.906,-0.175
8.06,-0.284,1.287,0.082
8.07,-0.253,1.076,0.111
8.08,0.041,0.581,0.075
8.09,-0.482,1.019,-0.199
8.1,-0.197,1.418,0.062
8.11,-0.167,0.956,0.136
8.12,-0.037,0.791,0.009
8.13,-0.366,0.567,-0.204
8.14,-0.159,2.0,0.08
8.15,-0.127,0.604,0.133
8.16,-0.068,0.998,0.02
8.17,-0.443,0.342,-0.197
8.18,-0.12,2.0,0.124
8.19,-0.187,0.64,0.071
8.2,-0.043,0.725,-0.012
8.21,-0.4,0.767,-0.238
8.22,-0.023,1.563,0.098
8.23,-0.086,1.21,0.121
8.24,0.104,0.318,-0.058
8.25,-0.514,1.025,-0.217
8.26,0.026,1.596,0.089
8.27,-0.22,0.957,0.088
8.28,0.078,0.664,-0.005
8.29,-0.482,0.65,-0.189
8.3,-0.055,1.929,0.085
8.31,-0.102,0.726,0.085
8.32,-0.049,0.872,-0.029
8.33,-0.421,0.277,-0.225
8.34,-0.095,1.919,0.056
8.35,-0.079,0.794,0.005
8.36,-0.098,0.747,-0.023
8.37,-0.442,0.602,-0.193
8.38,-0.033,1.625,0.215
8.39,-0.233,1.223,0.114
8.4,0.017,0.375,-0.014
8.41,-0.534,1.01,-0.167
8.42,-0.016,1.409,0.176
8.43,-0.24,1.208,0.086
8.44,0.004,0.544,-0.05
8.45,-0.468,0.629,-0.177
8.46,-0.098,1.589,0.116
8.47,-0.142,0.797,0.064
8.48,-0.189,1.045,-0.072
8.49,-0.369,0.142,-0.176
8.5,-0.234,1.694,0.255
8.51,-0.156,0.911,0.098
8.52,-0.26,0.833,-0.049
8.53,-0.301,0.496,-0.2
8.54,-0.069,1.355,0.164
8.55,-0.257,1.246,0.036
8.56,0.018,0.498,-0.135
8.57,-0.52,0.91,-0.179
8.58,-0.021,1.099,0.183
8.59,-0.276,1.268,0.059
8.6,-0.117,0.593,-0.114
8.61,-0.454,0.668,-0.148
8.62,-0.095,1.331,0.204
8.63,-0.076,0.847,0.035
8.64,-0.25,0.984,-0.142
8.65,-0.298,0.28,-0.155
8.66,-0.179,1.448,0.164
8.67,-0.156,0.797,-0.018
8.68,-0.288,0.907,-0.128
8.69,-0.459,0.563,-0.142
8.7,-0.041,1.18,0.201
8.71,-0.258,1.17,0.003
8.72,-0.189,0.431,-0.114
8.73,-0.526,1.154,-0.049
8.74,-0.029,0.917,0.185
8.75,-0.397,1.271,0.121
8.76,-0.254,0.379,-0.092
8.77,-0.386,1.104,-0.0
8.78,-0.054,1.09,0.179
8.79,-0.129,0.827,-0.008
8.8,-0.325,0.881,-0.205
8.81,-0.163,0.805,-0.15
8.82,-0.179,1.16,0.099
8.83,-0.015,0.685,0.02
8.84,-0.486,1.035,-0.196
8.85,-0.232,1.108,0.025
8.86,-0.221,1.056,0.128
8.87,-0.114,0.815,0.036
8.88,-0.36,0.818,-0.192
8.89,-0.225,1.698,-0.027
8.9,-0.145,0.709,0.135
8.91,-0.125,1.102,0.046
8.92,-0.311,0.377,-0.229
8.93,-0.278,1.919,0.055
8.94,-0.09,0.639,0.105
8.95,-0.127,0.96,0.012
8.96,-0.449,0.611,-0.198
8.97,-0.156,1.643,0.099
8.98,-0.245,1.01,0.098
8.99,0.037,0.49,0.016
9.0,-0.54,1.048,-0.159
9.01,-0.096,1.477,0.128
9.02,-0.264,1.057,0.142
9.03,0.051,0.584,0.056
9.04,-0.563,0.807,-0.141
9.05,-0.076,1.891,0.126
9.06,-0.18,0.72,0.198
9.07,-0.024,0.918,0.033
9.08,-0.416,0.354,-0.201
9.09,-0.052,2.0,0.067
9.1,-0.079,0.632,0.094
9.11,-0.097,0.808,-0.001
9.12,-0.379,0.521,-0.232
9.13,-0.04,1.79,0.121
9.14,-0.123,0.996,0.091
9.15,0.05,0.395,-0.061
9.16,-0.501,0.97,-0.248
9.17,0.078,1.455,0.16
9.18,-0.131,1.187,0.071
9.19,-0.04,0.406,-0.021
9.2,-0.417,0.813,-0.195
9.21,-0.117,1.54,0.159
9.22,-0.18,0.872,0.077
9.23,-0.155,0.903,-0.049
9.24,-0.318,0.276,-0.152
9.25,-0.196,1.825,0.224
9.26,-0.095,0.763,0.163
9.27,-0.244,0.962,-0.061
9.28,-0.451,0.329,-0.102
9.29,-0.075,1.649,0.219
9.3,-0.262,1.107,0.121
9.31,0.033,0.525,-0.112
9.32,-0.61,0.932,-0.162
9.33,0.108,1.15,0.252
9.34,-0.36,1.288,0.078
9.35,-0.03,0.533,-0.036
9.36,-0.491,0.751,-0.183
9.37,0.002,1.29,0.177
9.38,-0.196,1.075,0.039
9.39,-0.196,0.938,-0.151
9.4,-0.385,0.248,-0.137
9.41,-0.181,1.515,0.191
9.42,-0.144,0.856,0.029
9.43,-0.232,0.986,-0.079
9.44,-0.44,0.386,-0.135
9.45,-0.116,1.276,0.161
9.46,-0.228,1.03,-0.046
9.47,-0.181,0.597,-0.107
9.48,-0.456,0.93,-0.064
9.49,-0.078,0.916,0.154
9.5,-0.353,1.342,0.108
9.51,-0.235,0.339,-0.101
9.52,-0.396,1.058,-0.017
9.53,-0.071,0.96,0.156
9.54,-0.194,1.03,0.024
9.55,-0.345,0.767,-0.151
9.56,-0.19,0.937,-0.085
9.57,-0.132,1.253,0.161
9.58,-0.119,0.73,0.033
9.59,-0.431,0.916,-0.202
9.6,-0.119,1.106,-0.052
9.61,-0.155,1.08,0.122
9.62,-0.056,0.619,0.064
9.63,-0.437,0.876,-0.194
9.64,-0.269,1.675,0.111
9.65,-0.142,0.883,0.201
9.66,-0.101,0.902,0.028
9.67,-0.387,0.418,-0.174
9.68,-0.218,2.0,0.148
9.69,-0.081,0.549,0.1
9.7,-0.046,1.013,0.026
9.71,-0.365,0.457,-0.227
9.72,-0.084,1.85,0.1
9.73,-0.189,0.787,0.064
9.74,-0.013,0.56,0.007
9.75,-0.541,0.96,-0.186
9.76,-0.022,1.477,0.106
9.77,-0.204,1.175,0.106
9.78,0.094,0.393,-0.005
9.79,-0.495,0.929,-0.192
9.8,0.014,1.707,0.055
9.81,-0.165,0.882,0.08
9.82,-0.079,0.77,-0.109
9.83,-0.399,0.42,-0.206
9.84,-0.179,1.94,0.182
9.85,-0.039,0.652,0.133
9.86,-0.237,0.822,-0.017
9.87,-0.422,0.328,-0.126
9.88,-0.248,1.687,0.182
9.89,-0.215,1.033,0.125
9.9,-0.081,0.57,-0.079
9.91,-0.494,0.779,-0.136
9.92,-0.032,1.349,0.161
9.93,-0.253,1.301,0.162
9.94,-0.01,0.449,-0.064
9.95,-0.492,0.832,-0.169
9.96,0.003,1.383,0.168
9.97,-0.22,1.119,-0.0
9.98,-0.029,0.842,-0.092
9.99,-0.481,0.364,-0.172
10.0,-0.169,1.564,0.245
10.01,-0.106,0.736,0.004
10.02,-0.193,1.047,-0.145
10.03,-0.417,0.26,-0.153
10.04,-0.204,1.35,0.196
10.05,-0.205,0.951,-0.024
10.06,-0.147,0.675,-0.096
10.07,-0.527,0.775,-0.14
10.08,0.03,1.165,0.175
10.09,-0.312,1.19,0.014
10.1,-0.193,0.352,-0.128
10.11,-0.417,1.261,-0.069
10.12,-0.102,0.854,0.233
10.13,-0.264,1.272,0.063
10.14,-0.335,0.4,-0.125
10.15,-0.414,1.056,-0.025
10.16,-0.121,1.042,0.143
10.17,-0.171,0.894,0.061
10.18,-0.363,0.827,-0.163
10.19,-0.237,0.863,-0.019
10.2,-0.158,1.311,0.143
10.21,-0.14,0.781,0.064
10.22,-0.429,0.878,-0.147
10.23,-0.198,1.234,-0.028
10.24,-0.125,0.945,0.122
10.25,-0.147,1.059,0.011
10.26,-0.296,0.531,-0.239
10.27,-0.293,1.759,0.004
10.28,-0.149,0.613,0.109
10.29,-0.223,1.244,0.122
10.3,-0.344,0.344,-0.268
10.31,-0.271,1.765,0.068
10.32,-0.168,0.889,0.156
10.33,-0.099,0.675,0.109
10.34,-0.493,0.906,-0.161
10.35,-0.157,1.396,0.071
10.36,-0.223,1.114,0.138
10.37,0.073,0.528,0.051
10.38,-0.511,0.985,-0.177
10.39,-0.082,1.59,0.083
10.4,-0.219,0.847,0.1
10.41,0.057,0.831,-0.028
10.42,-0.461,0.492,-0.206
10.43,-0.155,0.978,-0.052
10.44,-0.229,1.186,0.158
10.45,-0.203,0.839,0.031
10.46,-0.391,0.74,-0.212
10.47,-0.193,1.496,-0.041
10.48,-0.056,0.759,0.084
10.49,-0.216,1.186,0.002
10.5,-0.266,0.353,-0.237
10.51,-0.207,1.918,-0.041
10.52,-0.086,0.708,0.099
10.53,-0.111,0.979,0.04
10.54,-0.473,0.615,-0.191
10.55,-0.208,1.577,0.052
10.56,-0.186,1.022,0.08
10.57,0.025,0.538,0.03
10.58,-0.597,1.015,-0.171
10.59,-0.112,1.375,0.117
10.6,-0.247,1.042,0.151
10.61,-0.045,0.635,0.061
10.62,-0.476,0.817,-0.179
10.63,-0.115,1.836,0.065
10.64,-0.133,0.756,0.117
10.65,-0.061,0.947,0.045
10.66,-0.405,0.352,-0.193
10.67,-0.14,2.0,0.083
10.68,-0.145,0.543,0.14
10.69,-0.031,0.932,-0.01
10.7,-0.411,0.479,-0.228
10.71,0.029,1.834,0.088
10.72,-0.134,1.009,0.064
10.73,0.065,0.411,-0.017
10.74,-0.544,0.968,-0.195
10.75,0.044,1.513,0.115
10.76,-0.201,1.191,0.067
10.77,0.049,0.42,-0.039
10.78,-0.515,0.821,-0.218
10.79,0.003,1.649,0.077
10.8,-0.117,0.877,0.091
10.81,-0.089,0.808,-0.094
10.82,-0.47,0.298,-0.127
10.83,-0.176,1.815,0.188
10.84,-0.107,0.753,0.163
10.85,-0.181,0.883,-0.071
10.86,-0.39,0.38,-0.151
10.87,-0.153,1.515,0.177
10.88,-0.239,1.06,0.081
10.89,-0.001,0.601,-0.14
10.9,-0.497,0.822,-0.175
10.91,0.047,1.157,0.198
10.92,-0.313,1.32,0.172
10.93,-0.051,0.498,-0.119
10.94,-0.525,0.8,-0.145
10.95,-0.028,1.3,0.194
10.96,-0.208,1.213,-0.028
10.97,-0.09,0.624,-0.159
10.98,-0.462,0.604,-0.105
10.99,-0.089,1.304,0.152
11.0,-0.163,0.821,-0.012
11.01,-0.332,0.943,-0.083
11.02,-0.371,0.426,-0.065
11.03,-0.17,1.366,0.168
11.04,-0.164,0.772,0.043
11.05,-0.359,0.798,-0.174
11.06,-0.355,0.803,-0.03
11.07,-0.131,0.976,0.117
11.08,-0.198,1.247,0.008
11.09,-0.26,0.253,-0.183
11.1,-0.219,1.576,-0.09
11.11,0.053,0.796,0.132
11.12,-0.232,1.11,0.011
11.13,-0.286,0.592,-0.211
11.14,-0.256,1.361,-0.05
11.15,-0.117,1.074,0.15
11.16,-0.106,0.7,0.018
11.17,-0.447,0.994,-0.248
11.18,-0.191,1.068,-0.001
11.19,-0.204,1.189,0.14
11.2,-0.076,0.698,0.025
11.21,-0.422,0.906,-0.232
11.22,-0.14,1.526,-0.029
11.23,-0.101,0.822,0.162
11.24,-0.085,0.998,0.049
11.25,-0.415,0.479,-0.22
11.26,-0.309,1.9,0.078
11.27,-0.158,0.601,0.145
11.28,-0.139,1.071,0.091
11.29,-0.525,0.406,-0.197
11.3,-0.185,1.776,0.074
11.31,-0.155,0.875,0.047
11.32,-0.008,0.579,0.059
11.33,-0.481,0.992,-0.175
11.34,-0.138,1.377,0.067
11.35,-0.235,1.14,0.173
11.36,0.044,0.509,0.048
11.37,-0.598,0.941,-0.191
11.38,-0.037,1.715,0.105
11.39,-0.289,0.803,0.141
11.4,0.058,0.859,0.038
11.41,-0.479,0.45,-0.174
11.42,-0.149,2.0,0.133
11.43,-0.109,0.637,0.148
11.44,-0.069,0.962,0.027
11.45,-0.368,0.303,-0.234
11.46,-0.011,1.991,0.046
11.47,-0.103,0.813,0.098
11.48,0.025,0.534,-0.061
11.49,-0.427,0.895,-0.265
11.5,-0.012,1.577,0.163
11.51,-0.243,1.209,0.07
11.52,0.065,0.315,0.019
11.53,-0.547,0.972,-0.188
11.54,-0.06,1.508,0.118
11.55,-0.163,1.017,0.115
11.56,-0.124,0.709,-0.031
11.57,-0.449,0.387,-0.134
11.58,-0.138,1.905,0.204
11.59,-0.141,0.717,0.172
11.6,-0.171,0.958,-0.016
11.61,-0.469,0.266,-0.164
11.62,-0.143,1.781,0.219
11.63,-0.164,0.949,0.078
11.64,-0.071,0.564,-0.017
11.65,-0.505,0.81,-0.2
11.66,0.021,1.249,0.176
11.67,-0.361,1.24,0.066
11.68,0.051,0.528,-0.03
11.69,-0.551,0.85,-0.158
11.7,-0.001,1.259,0.218
11.71,-0.278,1.11,0.07
11.72,-0.111,0.804,-0.045
11.73,-0.464,0.362,-0.138
11.74,-0.162,1.558,0.231
11.75,-0.17,0.849,0.078
11.76,-0.167,0.905,-0.112
11.77,-0.449,0.346,-0.095
11.78,-0.109,1.478,0.17
11.79,-0.228,0.716,0.005
11.8,-0.326,0.919,-0.116
11.81,-0.366,0.66,-0.072
11.82,-0.155,1.141,0.126
11.83,-0.235,1.053,-0.003
11.84,-0.293,0.464,-0.163
11.85,-0.345,1.2,-0.03
11.86,-0.086,0.799,0.138
11.87,-0.213,1.268,0.05
11.88,-0.291,0.355,-0.191
11.89,-0.298,1.153,-0.062
11.9,-0.131,1.001,0.104
11.91,-0.162,0.869,0.009
11.92,-0.389,0.8,-0.187
11.93,-0.115,1.093,-0.067
11.94,-0.196,1.261,0.146
11.95,-0.049,0.616,0.025
11.96,-0.5,0.974,-0.189
11.97,-0.09,1.308,-0.061
11.98,-0.171,1.021,0.125
11.99,-0.08,0.929,0.019
12.0,-0.413,0.564,-0.246
12.01,-0.193,1.825,0.048
12.02,-0.127,0.649,0.131
12.03,-0.167,1.183,0.065
12.04,-0.304,0.386,-0.242
12.05,-0.193,1.835,0.035
12.06,-0.035,0.852,0.115
12.07,-0.121,0.729,0.045
12.08,-0.473,0.865,-0.206
12.09,-0.155,1.441,0.068
12.1,-0.257,1.08,0.167
12.11,0.059,0.484,0.083
12.12,-0.6,1.057,-0.179
12.13,-0.091,1.532,0.133
12.14,-0.205,0.964,0.136
12.15,-0.034,0.719,0.065
12.16,-0.484,0.607,-0.177
12.17,-0.118,2.0,0.083
12.18,-0.041,0.685,0.15
12.19,-0.149,0.944,-0.011
12.2,-0.408,0.301,-0.202
12.21,-0.114,2.0,0.08
12.22,-0.113,0.729,0.167
12.23,-0.107,0.701,0.0
12.24,-0.498,0.769,-0.209
12.25,-0.039,1.669,0.101
12.26,-0.2,1.163,0.153
12.27,0.106,0.336,-0.038
12.28,-0.504,1.037,-0.208
12.29,-0.004,1.482,0.098
12.3,-0.089,1.171,0.068
12.31,-0.032,0.596,-0.023
12.32,-0.436,0.594,-0.21
12.33,-0.135,1.841,0.166
12.34,-0.021,0.727,0.115
12.35,-0.112,0.944,-0.054
12.36,-0.358,0.301,-0.203
12.37,-0.223,1.853,0.144
12.38,-0.062,0.851,0.11
12.39,-0.133,0.735,-0.047
12.4,-0.383,0.607,-0.207
12.41,-0.105,1.403,0.126
12.42,-0.147,1.16,0.01
12.43,0.0,0.567,-0.092
12.44,-0.549,0.885,-0.188
12.45,0.017,1.215,0.182
12.46,-0.225,1.31,0.059
12.47,-0.047,0.65,-0.061
12.48,-0.449,0.602,-0.149
12.49,-0.192,1.497,0.204
12.5,-0.14,0.878,0.071
12.51,-0.185,1.054,-0.07
12.52,-0.359,0.217,-0.171
12.53,-0.194,1.513,0.181
12.54,-0.165,0.862,0.019
12.55,-0.134,0.919,-0.138
12.56,-0.451,0.54,-0.136
12.57,-0.066,1.37,0.149
12.58,-0.191,0.95,-0.071
12.59,-0.155,0.632,-0.111
12.6,-0.41,1.016,-0.084
12.61,-0.043,0.879,0.157
12.62,-0.362,1.275,-0.02
12.63,-0.125,0.356,-0.095
12.64,-0.453,1.227,-0.061
12.65,-0.013,0.971,0.126
12.66,-0.275,0.991,0.01
12.67,-0.291,0.738,-0.164
12.68,-0.337,0.719,-0.059
12.69,-0.208,1.263,0.137
12.7,-0.182,0.727,-0.025
12.71,-0.369,0.929,-0.141
12.72,-0.173,1.055,-0.05
12.73,-0.084,1.166,0.173
12.74,-0.288,0.851,-0.027
12.75,-0.317,0.618,-0.204
12.76,-0.203,1.657,-0.021
12.77,-0.07,0.727,0.138
12.78,-0.185,1.149,0.051
12.79,-0.419,0.386,-0.24
12.8,-0.278,1.731,0.046
12.81,-0.155,0.646,0.085
12.82,-0.116,1.058,-0.008
12.83,-0.409,0.595,-0.236
12.84,-0.1,1.531,0.065
12.85,-0.238,1.108,0.196
12.86,0.058,0.499,0.05
12.87,-0.581,0.985,-0.191
12.88,-0.025,1.552,0.115
12.89,-0.193,1.023,0.095
12.9,0.051,0.644,0.039
12.91,-0.5,0.752,-0.211
12.92,-0.059,1.834,0.109
12.93,0.005,0.708,0.073
12.94,-0.103,0.911,-0.038
12.95,-0.312,0.291,-0.193
12.96,-0.145,2.0,0.059
12.97,-0.015,0.675,0.116
12.98,-0.103,0.811,-0.038
12.99,-0.392,0.529,-0.248
13.0,-0.038,1.761,0.147
13.01,-0.18,1.107,0.105
13.02,0.009,0.349,-0.036
13.03,-0.49,0.997,-0.185
13.04,-0.051,1.421,0.121
13.05,-0.148,1.216,0.059
13.06,-0.06,0.512,-0.073
13.07,-0.406,0.728,-0.151
13.08,-0.102,1.688,0.142
13.09,-0.059,0.882,0.04
13.1,-0.132,0.98,-0.079
13.11,-0.359,0.248,-0.161
13.12,-0.193,1.731,0.188
13.13,-0.109,0.825,0.095
13.14,-0.096,0.912,-0.087
13.15,-0.37,0.415,-0.207
13.16,-0.077,1.329,0.187
13.17,-0.225,1.104,-0.018
13.18,-0.01,0.579,-0.127
13.19,-0.482,0.88,-0.146
13.2,0.01,1.057,0.23
13.21,-0.332,1.327,0.087
13.22,-0.111,0.484,-0.089
13.23,-0.425,0.751,-0.12
13.24,-0.028,1.144,0.137
13.25,-0.182,1.018,-0.054
13.26,-0.229,0.892,-0.097
13.27,-0.39,0.345,-0.026
13.28,-0.174,1.454,0.172
13.29,-0.224,0.692,0.007
13.3,-0.262,1.006,-0.119
13.31,-0.458,0.598,-0.034
13.32,-0.066,1.127,0.14
13.33,-0.305,1.115,-0.022
13.34,-0.194,0.451,-0.15
13.35,-0.354,1.32,-0.056
13.36,-0.026,0.771,0.173
13.37,-0.218,1.213,-0.019
13.38,-0.346,0.274,-0.254
13.39,-0.219,1.778,0.056
13.4,-0.114,0.7,0.111
13.41,-0.184,1.056,0.054
13.42,-0.385,0.587,-0.217
13.43,-0.19,1.572,0.044
13.44,-0.157,0.998,0.105
13.45,0.029,0.563,0.008
13.46,-0.529,0.973,-0.262
13.47,-0.026,1.432,0.084
13.48,-0.256,1.134,0.141
13.49,0.04,0.571,0.048
13.5,-0.528,0.795,-0.203
13.51,-0.067,1.812,0.126
13.52,-0.154,0.706,0.105
13.53,-0.046,0.928,-0.026
13.54,-0.389,0.398,-0.174
13.55,-0.161,2.0,0.127
13.56,-0.013,0.642,0.07
13.57,-0.158,0.853,0.024
13.58,-0.377,0.456,-0.194
13.59,-0.127,1.776,0.14
13.6,-0.045,1.058,0.091
13.61,-0.062,0.44,-0.057
13.62,-0.503,0.915,-0.157
13.63,-0.051,1.422,0.133
13.64,-0.143,1.352,0.067
13.65,-0.022,0.427,-0.006
13.66,-0.405,0.776,-0.171
13.67,-0.105,1.491,0.122
13.68,-0.124,0.906,0.067
13.69,-0.144,0.926,-0.036
13.7,-0.409,0.286,-0.119
13.71,-0.241,1.573,0.191
13.72,-0.123,0.742,0.039
13.73,-0.187,1.087,-0.111
13.74,-0.342,0.366,-0.123
13.75,-0.157,1.297,0.213
13.76,-0.196,1.063,0.005
13.77,-0.107,0.639,-0.097
13.78,-0.455,0.904,-0.101
13.79,-0.037,0.913,0.208
13.8,-0.273,1.317,-0.019
13.81,-0.109,0.42,-0.134
13.82,-0.458,0.913,-0.099
13.83,-0.054,1.038,0.146
13.84,-0.236,0.99,-0.129
13.85,-0.214,0.835,-0.171
13.86,-0.315,0.548,-0.067
13.87,-0.127,1.348,0.172
13.88,-0.223,0.745,0.056
13.89,-0.376,0.935,-0.125
13.9,-0.304,0.898,0.004
13.91,-0.158,1.177,0.179
13.92,-0.301,0.978,0.042
13.93,-0.209,0.615,-0.193
13.94,-0.294,1.624,-0.043
13.95,0.056,0.764,0.122
13.96,-0.335,1.242,0.06
13.97,-0.31,0.311,-0.224
13.98,-0.275,1.729,0.04
13.99,-0.1,0.737,0.111
14.0,-0.071,0.942,-0.021
14.01,-0.386,0.78,-0.259
14.02,-0.078,1.393,0.02
14.03,-0.223,1.069,0.119
14.04,0.092,0.54,0.018
14.05,-0.521,1.009,-0.236
14.06,-0.006,1.546,0.072
14.07,-0.218,1.039,0.114
14.08,0.069,0.685,-0.006
14.09,-0.577,0.628,-0.162
14.1,0.021,1.95,0.18
14.11,-0.114,0.661,0.135
14.12,-0.112,0.91,-0.003
14.13,-0.383,0.28,-0.188
14.14,-0.184,2.0,0.2
14.15,-0.077,0.694,0.141
14.16,-0.108,0.701,0.005
14.17,-0.501,0.595,-0.209
14.18,-0.103,1.751,0.125
14.19,-0.166,1.033,0.111
14.2,-0.032,0.571,-0.056
14.21,-0.438,0.82,-0.165
14.22,-0.109,1.195,0.224
14.23,-0.351,1.313,0.122
14.24,-0.021,0.524,-0.044
14.25,-0.463,0.828,-0.109
14.26,-0.114,1.198,0.215
14.27,-0.164,1.048,0.052
14.28,-0.212,0.935,-0.126
14.29,-0.417,0.344,-0.068
14.3,-0.207,1.404,0.221
14.31,-0.13,0.769,0.006
14.32,-0.225,1.021,-0.091
14.33,-0.421,0.503,-0.076
14.34,-0.082,1.253,0.15
14.35,-0.243,0.95,-0.04
14.36,-0.268,0.638,-0.15
14.37,-0.389,1.076,-0.037
14.38,-0.034,0.861,0.144
14.39,-0.289,1.326,-0.015
14.4,-0.225,0.256,-0.155
14.41,-0.274,1.542,-0.037
14.42,-0.087,0.882,0.213
14.43,-0.241,0.982,0.041
14.44,-0.335,0.676,-0.17
14.45,-0.153,1.281,0.014
14.46,-0.179,1.166,0.104
14.47,-0.02,0.609,0.02
14.48,-0.488,1.031,-0.215
14.49,-0.167,1.199,0.077
14.5,-0.312,0.984,0.172
14.51,-0.121,0.861,0.004
14.52,-0.433,0.714,-0.17
14.53,-0.171,1.868,0.04
14.54,-0.177,0.681,0.237
14.55,-0.094,1.051,0.07
14.56,-0.443,0.282,-0.212
14.57,-0.121,2.0,0.124
14.58,-0.091,0.711,0.113
14.59,-0.047,0.757,-0.002
14.6,-0.474,0.647,-0.209
14.61,-0.06,1.749,0.14
14.62,-0.088,1.067,0.015
14.63,0.038,0.347,-0.059
14.64,-0.456,0.989,-0.216
14.65,0.023,1.485,0.096
14.66,-0.175,1.152,0.093
14.67,-0.034,0.567,-0.023
14.68,-0.413,0.666,-0.166
14.69,-0.161,1.831,0.161
14.7,-0.08,0.833,0.095
14.71,-0.154,0.895,-0.103
14.72,-0.352,0.214,-0.163
14.73,-0.188,1.743,0.193
14.74,-0.094,0.825,0.065
14.75,-0.158,0.892,-0.098
14.76,-0.318,0.43,-0.142
14.77,-0.138,1.386,0.238
14.78,-0.222,1.177,0.045
14.79,-0.005,0.651,-0.096
14.8,-0.525,0.882,-0.124
14.81,-0.036,1.009,0.28
14.82,-0.28,1.388,0.022
14.83,-0.132,0.524,-0.079
14.84,-0.401,0.723,-0.126
14.85,-0.084,1.204,0.183
14.86,-0.251,0.876,-0.034
14.87,-0.198,1.018,-0.124
14.88,-0.427,0.298,-0.041
14.89,-0.138,1.36,0.146
14.9,-0.261,0.787,0.005
14.91,-0.3,0.879,-0.18
14.92,-0.315,0.821,-0.069
14.93,-0.02,1.055,0.169
14.94,-0.302,1.137,-0.004
14.95,-0.254,0.434,-0.166
14.96,-0.278,1.596,-0.032
14.97,-0.012,0.757,0.129
14.98,-0.199,1.121,0.037
14.99,-0.392,0.362,-0.233
15.0,-0.286,1.901,0.079
15.01,-0.096,0.661,0.124
15.02,-0.116,0.959,0.048
15.03,-0.41,0.701,-0.252
15.04,-0.163,1.594,0.073
15.05,-0.11,1.073,0.136
15.06,-0.006,0.503,0.055
15.07,-0.519,0.985,-0.172
15.08,-0.035,1.554,0.097
15.09,-0.193,1.133,0.126
15.1,0.013,0.54,0.014
15.11,-0.459,0.755,-0.144
15.12,-0.048,1.946,0.05
15.13,-0.062,0.733,0.117
15.14,-0.042,0.893,-0.051
15.15,-0.369,0.324,-0.193
15.16,-0.134,2.0,0.064
15.17,-0.076,0.641,0.092
15.18,-0.129,0.808,-0.067
15.19,-0.433,0.451,-0.201
15.2,-0.118,1.606,0.143
15.21,-0.122,1.173,0.029
15.22,-0.008,0.376,-0.063
15.23,-0.477,0.939,-0.161
15.24,-0.097,1.231,0.168
15.25,-0.236,1.191,0.069
15.26,-0.133,0.627,-0.069
15.27,-0.36,0.664,-0.134
15.28,-0.162,1.455,0.185
15.29,-0.151,0.906,0.081
15.3,-0.131,0.997,-0.083
15.31,-0.403,0.237,-0.138
15.32,-0.219,1.521,0.213
15.33,-0.172,0.792,0.024
15.34,-0.189,0.973,-0.092
15.35,-0.384,0.447,-0.13
15.36,-0.097,1.24,0.183
15.37,-0.306,1.069,-0.001
15.38,-0.094,0.567,-0.102
15.39,-0.509,0.928,-0.054
15.4,-0.055,0.903,0.235
15.41,-0.354,1.337,0.016
15.42,-0.044,0.458,-0.106
15.43,-0.487,0.899,-0.033
15.44,-0.02,1.087,0.131
15.45,-0.32,0.93,0.008
15.46,-0.263,0.882,-0.143
15.47,-0.334,0.619,-0.005
15.48,-0.163,1.333,0.138
15.49,-0.157,0.719,0.065
15.5,-0.434,0.946,-0.09
15.51,-0.257,0.903,-0.044
15.52,-0.145,1.078,0.134
15.53,-0.188,1.037,-0.023
15.54,-0.341,0.482,-0.234
15.55,-0.222,1.613,0.011
15.56,-0.047,0.786,0.108
15.57,-0.272,1.175,0.063
15.58,-0.342,0.391,-0.185
15.59,-0.208,1.712,0.04
15.6,-0.051,0.863,0.132
15.61,-0.127,0.796,0.024
15.62,-0.45,0.895,-0.217
15.63,-0.191,1.35,0.007
15.64,-0.155,1.128,0.145
15.65,-0.034,0.572,0.007
15.66,-0.531,0.999,-0.235
15.67,-0.118,1.468,0.055
15.68,-0.16,1.027,0.155
15.69,-0.026,0.743,0.04
15.7,-0.46,0.624,-0.223
15.71,-0.162,2.0,0.094
15.72,-0.086,0.594,0.104
15.73,-0.104,1.044,0.021
15.74,-0.347,0.343,-0.22
15.75,-0.155,2.0,0.128
15.76,-0.106,0.776,0.113
15.77,-0.059,0.661,-0.007
15.78,-0.428,0.787,-0.208
15.79,-0.103,1.858,0.127
15.8,-0.068,1.006,0.101
15.81,0.022,0.452,-0.066
15.82,-0.471,0.959,-0.185
15.83,-0.069,1.351,0.207
15.84,-0.167,1.223,0.103
15.85,-0.025,0.459,-0.04
15.86,-0.478,0.817,-0.213
15.87,-0.094,1.444,0.1
15.88,-0.176,1.023,0.061
15.89,-0.085,0.943,-0.059
15.9,-0.427,0.224,-0.14
15.91,-0.235,1.675,0.263
15.92,-0.095,0.713,0.079
15.93,-0.173,1.103,-0.104
15.94,-0.342,0.271,-0.171
15.95,-0.205,1.392,0.196
15.96,-0.223,1.062,0.041
15.97,-0.07,0.641,-0.114
15.98,-0.432,0.884,-0.138
15.99,-0.069,0.946,0.214
16.0,-0.306,1.339,0.017
16.01,-0.098,0.478,-0.119
16.02,-0.384,0.861,-0.123
16.03,-0.091,1.107,0.15
16.04,-0.2,1.004,0.014
16.05,-0.232,0.874,-0.132
16.06,-0.387,0.403,-0.038
16.07,-0.162,1.38,0.186
16.08,-0.139,0.733,-0.053
16.09,-0.295,0.929,-0.124
16.1,-0.318,0.636,-0.074
16.11,-0.063,1.219,0.095
16.12,-0.333,0.977,-0.013
16.13,-0.212,0.56,-0.133
16.14,-0.332,1.309,-0.06
16.15,-0.006,0.849,0.145
16.16,-0.288,1.322,0.048
16.17,-0.326,0.341,-0.204
16.18,-0.28,1.437,0.034
16.19,-0.087,0.868,0.137
16.2,-0.278,1.048,0.041
16.21,-0.359,0.655,-0.218
16.22,-0.17,1.26,0.01
16.23,-0.116,1.178,0.167
16.24,-0.095,0.638,0.114
16.25,-0.561,1.014,-0.222
16.26,-0.069,1.275,0.058
16.27,-0.195,1.03,0.138
16.28,-0.132,0.782,0.042
16.29,-0.448,0.704,-0.214
16.3,-0.238,1.878,0.064
16.31,-0.055,0.602,0.134
16.32,-0.086,1.091,0.003
16.33,-0.479,0.336,-0.21
16.34,-0.131,2.0,0.099
16.35,-0.129,0.67,0.144
16.36,-0.088,0.825,0.004
16.37,-0.434,0.622,-0.214
16.38,-0.087,1.706,0.138
16.39,-0.121,1.094,0.094
16.4,0.024,0.358,-0.028
16.41,-0.46,0.985,-0.198
16.42,-0.008,1.534,0.105
16.43,-0.117,1.189,0.022
16.44,0.081,0.526,-0.024
16.45,-0.463,0.672,-0.205
16.46,-0.073,1.783,0.189
16.47,-0.017,0.768,0.065
16.48,-0.108,0.916,-0.06
16.49,-0.36,0.228,-0.162
16.5,-0.197,1.835,0.131
16.51,-0.077,0.835,0.081
16.52,-0.102,0.862,-0.045
16.53,-0.411,0.438,-0.146
16.54,-0.09,1.473,0.218
16.55,-0.258,1.182,0.071
16.56,0.02,0.525,-0.085
16.57,-0.436,0.941,-0.158
16.58,0.02,1.126,0.153
16.59,-0.29,1.28,-0.002
16.6,-0.083,0.451,-0.129
16.61,-0.446,0.935,-0.09
16.62,-0.066,1.013,0.126
16.63,-0.252,1.092,-0.025
16.64,-0.248,0.771,-0.158
16.65,-0.37,0.499,-0.065
16.66,-0.144,1.299,0.122
16.67,-0.178,0.745,0.039
16.68,-0.327,0.926,-0.15
16.69,-0.392,0.613,0.01
16.7,-0.134,1.265,0.156
16.71,-0.279,0.885,0.031
16.72,-0.237,0.603,-0.114
16.73,-0.326,1.312,-0.058
16.74,-0.068,0.864,0.161
16.75,-0.345,1.208,0.064
16.76,-0.262,0.347,-0.158
16.77,-0.254,1.627,-0.046
16.78,0.012,0.775,0.076
16.79,-0.217,1.059,0.032
16.8,-0.348,0.63,-0.228
16.81,-0.19,1.244,-0.007
16.82,-0.149,1.114,0.122
16.83,-0.089,0.74,0.101
16.84,-0.451,1.003,-0.237
16.85,-0.168,1.16,0.069
16.86,-0.183,1.117,0.127
16.87,-0.008,0.772,0.005
16.88,-0.449,0.718,-0.226
16.89,-0.131,1.748,0.028
16.9,-0.135,0.758,0.165
16.91,-0.146,1.006,0.06
16.92,-0.412,0.377,-0.212
16.93,-0.263,2.0,0.148
16.94,-0.085,0.611,0.133
16.95,-0.169,0.938,0.037
16.96,-0.411,0.598,-0.186
16.97,-0.188,1.792,0.125
16.98,-0.165,0.956,0.118
16.99,0.055,0.488,-0.018
17.0,-0.551,0.998,-0.157
17.01,-0.027,1.59,0.143
17.02,-0.196,1.101,0.124
17.03,0.08,0.508,-0.004
17.04,-0.416,0.803,-0.185
17.05,-0.066,1.711,0.122
17.06,-0.066,0.829,0.096
17.07,-0.083,0.889,-0.051
17.08,-0.329,0.274,-0.171
17.09,-0.126,2.0,0.119
17.1,-0.02,0.768,0.127
17.11,-0.16,0.774,-0.032
17.12,-0.397,0.424,-0.194
17.13,-0.097,1.677,0.209
17.14,-0.156,1.069,0.063
17.15,0.011,0.436,-0.038
17.16,-0.511,0.917,-0.193
17.17,0.024,1.288,0.197
17.18,-0.267,1.288,0.04
17.19,-0.005,0.48,-0.018
17.2,-0.446,0.767,-0.193
17.21,-0.127,1.368,0.157
17.22,-0.12,0.923,0.02
17.23,-0.201,0.985,-0.073
17.24,-0.344,0.21,-0.13
17.25,-0.18,1.663,0.204
17.26,-0.109,0.789,0.059
17.27,-0.191,0.997,-0.109
17.28,-0.395,0.382,-0.193
17.29,-0.137,1.336,0.221
17.3,-0.182,1.105,-0.025
17.31,-0.13,0.473,-0.107
17.32,-0.432,0.949,-0.176
17.33,0.021,0.973,0.184
17.34,-0.267,1.277,-0.023
17.35,-0.168,0.452,-0.107
17.36,-0.472,0.839,-0.085
17.37,-0.034,1.133,0.165
17.38,-0.168,0.947,-0.013
17.39,-0.256,0.896,-0.085
17.4,-0.365,0.826,-0.05
17.41,-0.138,1.159,0.171
17.42,-0.167,0.828,0.022
17.43,-0.346,0.838,-0.171
17.44,-0.202,0.829,-0.055
17.45,-0.106,1.27,0.154
17.46,-0.156,0.799,0.006
17.47,-0.364,0.776,-0.173
17.48,-0.199,1.328,-0.067
17.49,-0.124,0.875,0.098
17.5,-0.208,1.19,0.056
17.51,-0.351,0.385,-0.206
17.52,-0.25,1.65,-0.02
17.53,-0.083,0.691,0.068
17.54,-0.181,1.214,0.01
17.55,-0.309,0.483,-0.237
17.56,-0.161,1.551,0.012
17.57,-0.117,1.074,0.144
17.58,0.001,0.574,0.031
17.59,-0.485,1.009,-0.183
17.6,-0.163,1.352,0.015
17.61,-0.288,1.043,0.156
17.62,0.05,0.667,0.062
17.63,-0.603,0.955,-0.188
17.64,-0.185,1.654,0.134
17.65,-0.234,0.709,0.111
17.66,-0.045,0.992,0.052
17.67,-0.398,0.457,-0.153
17.68,-0.299,1.999,0.167
17.69,-0.167,0.611,0.169
17.7,-0.191,0.982,0.044
17.71,-0.422,0.342,-0.14
17.72,-0.138,1.978,0.119
17.73,-0.143,0.88,0.097
17.74,0.047,0.49,-0.002
17.75,-0.502,1.019,-0.195
17.76,0.02,1.645,0.083
17.77,-0.251,1.034,0.062
17.78,0.124,0.476,0.007
17.79,-0.468,0.94,-0.19
17.8,-0.039,1.671,0.075
17.81,-0.133,0.899,0.085
17.82,0.06,0.792,-0.076
17.83,-0.407,0.378,-0.207
17.84,-0.1,1.947,0.087
17.85,-0.031,0.712,0.049
17.86,-0.164,0.898,-0.023
17.87,-0.351,0.306,-0.201
17.88,-0.065,2.0,0.183
17.89,-0.148,0.907,0.114
17.9,-0.064,0.459,-0.036
17.91,-0.474,0.913,-0.177
17.92,-0.021,1.437,0.212
17.93,-0.235,1.31,0.122
17.94,0.098,0.381,-0.018
17.95,-0.55,0.879,-0.17
17.96,0.019,1.452,0.217
17.97,-0.141,1.067,0.018
17.98,-0.048,0.876,-0.092
17.99,-0.432,0.326,-0.168
18.0,-0.147,1.687,0.186
18.01,-0.057,0.85,0.032
18.02,-0.158,1.049,-0.116
18.03,-0.365,0.217,-0.189
18.04,-0.116,1.503,0.192
18.05,-0.169,1.071,0.032
18.06,-0.125,0.623,-0.097
18.07,-0.376,0.795,-0.238
18.08,-0.043,1.07,0.189
18.09,-0.255,1.303,0.049
18.1,-0.037,0.467,-0.1
18.11,-0.512,0.913,-0.143
18.12,-0.008,1.099,0.165
18.13,-0.216,1.166,0.027
18.14,-0.183,0.748,-0.095
18.15,-0.43,0.458,-0.119
18.16,-0.176,1.382,0.173
18.17,-0.113,0.725,0.001
18.18,-0.257,0.993,-0.128
18.19,-0.457,0.396,-0.05
18.2,-0.122,1.341,0.197
18.21,-0.21,0.736,0.058
18.22,-0.366,0.888,-0.109
18.23,-0.288,0.996,-0.047
18.24,-0.113,1.021,0.114
18.25,-0.238,1.118,-0.011
18.26,-0.242,0.464,-0.165
18.27,-0.254,1.582,-0.078
18.28,-0.038,0.741,0.149
18.29,-0.271,1.218,0.046
18.3,-0.378,0.385,-0.154
18.31,-0.24,1.482,-0.002
18.32,-0.181,0.948,0.141
18.33,-0.027,0.884,0.074
18.34,-0.562,0.86,-0.201
18.35,-0.065,1.073,0.007
18.36,-0.324,1.152,0.137
18.37,0.016,0.665,0.053
18.38,-0.422,0.932,-0.162
18.39,-0.196,1.46,0.075
18.4,-0.073,1.013,0.181
18.41,-0.077,0.825,0.003
18.42,-0.431,0.523,-0.188
18.43,-0.248,1.959,0.056
18.44,-0.105,0.599,0.131
18.45,-0.156,1.128,0.023
18.46,-0.429,0.383,-0.223
18.47,-0.2,1.858,0.052
18.48,-0.156,0.807,0.149
18.49,0.036,0.668,-0.013
18.5,-0.447,0.801,-0.222
18.51,-0.073,1.494,0.082
18.52,-0.21,1.09,0.146
18.53,0.107,0.492,0.019
18.54,-0.621,0.982,-0.167
18.55,0.013,1.72,0.117
18.56,-0.258,0.876,0.102
18.57,0.026,0.75,0.033
18.58,-0.441,0.549,-0.196
18.59,-0.097,1.928,0.128
18.6,0.033,0.714,0.103
18.61,-0.107,0.918,-0.038
18.62,-0.294,0.268,-0.222
18.63,-0.075,2.0,0.073
18.64,-0.067,0.744,0.112
18.65,-0.045,0.655,-0.034
18.66,-0.4,0.74,-0.304
18.67,-0.017,1.664,0.124
18.68,-0.157,1.221,0.098
18.69,0.041,0.293,-0.011
18.7,-0.404,1.017,-0.215
18.71,-0.11,1.423,0.151
18.72,-0.215,1.092,0.089
18.73,-0.043,0.674,-0.032
18.74,-0.407,0.515,-0.159
18.75,-0.155,1.783,0.232
18.76,-0.041,0.783,0.133
18.77,-0.506,0.879,-0.119
18.78,0.045,1.206,0.161
18.79,-0.285,1.223,0.022
18.8,-0.035,0.737,-0.117
18.81,-0.489,0.463,-0.134
18.82,-0.075,1.52,0.175
18.83,-0.178,0.865,0.076
18.84,-0.175,1.056,-0.136
18.85,-0.467,0.236,-0.111
18.86,-0.105,1.453,0.194
18.87,-0.339,0.842,0.021
18.88,-0.047,0.884,-0.115
18.89,-0.535,0.651,-0.214
18.9,0.019,1.137,0.173
18.91,-0.312,1.238,-0.011
18.92,-0.26,0.532,-0.15
18.93,-0.399,1.083,-0.02
18.94,-0.071,0.828,0.157
18.95,-0.291,1.307,0.06
18.96,-0.23,0.307,-0.095
18.97,-0.26,1.346,-0.066
18.98,-0.061,0.893,0.163
18.99,-0.13,0.968,-0.003
19.0,-0.437,0.726,-0.155
19.01,-0.167,0.958,-0.008
19.02,-0.256,1.209,0.143
19.03,-0.085,0.682,0.071
19.04,-0.443,0.966,-0.175
19.05,-0.139,1.135,0.012
19.06,-0.197,1.04,0.105
19.07,-0.079,0.922,0.001
19.08,-0.415,0.588,-0.199
19.09,-0.158,1.719,0.033
19.1,-0.127,0.644,0.12
19.11,-0.169,1.156,0.054
19.12,-0.383,0.356,-0.223
19.13,-0.281,1.804,0.075
19.14,-0.223,0.679,0.149
19.15,-0.127,0.934,0.07
19.16,-0.507,0.696,-0.187
19.17,-0.176,1.441,0.094
19.18,-0.186,1.115,0.138
19.19,0.074,0.486,0.015
19.2,-0.536,1.026,-0.162
19.21,-0.093,1.525,0.131
19.22,-0.317,0.989,0.18
19.23,0.038,0.656,0.022
19.24,-0.527,0.642,-0.159
19.25,-0.083,1.985,0.134
19.26,-0.196,0.581,0.105
19.27,-0.077,0.993,0.023
19.28,-0.421,0.299,-0.161
19.29,-0.12,2.0,0.129
19.3,-0.097,0.756,0.126
19.31,-0.061,0.693,-0.012
19.32,-0.396,0.61,-0.23
19.33,0.031,1.799,0.114
19.34,-0.222,1.121,0.138
19.35,0.037,0.324,-0.026
19.36,-0.494,1.025,-0.213
19.37,0.006,1.581,0.173
19.38,-0.161,1.129,0.078
19.39,0.008,0.484,-0.042
19.4,-0.453,0.694,-0.18
19.41,-0.119,1.619,0.103
19.42,-0.103,0.834,0.097
19.43,-0.144,0.992,-0.036
19.44,-0.338,0.165,-0.178
19.45,-0.204,1.825,0.156
19.46,-0.003,0.801,0.042
19.47,-0.166,0.888,-0.07
19.48,-0.438,0.459,-0.163
19.49,-0.095,1.435,0.152
19.5,-0.32,1.205,0.11
19.51,0.051,0.521,-0.038
19.52,-0.498,0.972,-0.17
19.53,-0.018,1.078,0.203
19.54,-0.301,1.251,0.022
19.55,-0.109,0.633,-0.051
19.56,-0.401,0.663,-0.163
19.57,-0.16,1.341,0.172
19.58,-0.036,0.859,0.044
19.59,-0.279,1.028,-0.131
19.6,-0.36,0.265,-0.092
19.61,-0.274,1.472,0.23
19.62,-0.215,0.836,0.087
19.63,-0.19,0.885,-0.107
19.64,-0.345,0.657,-0.154
19.65,-0.057,1.179,0.175
19.66,-0.214,1.073,-0.062
19.67,-0.208,0.531,-0.141
19.68,-0.427,1.053,-0.03
19.69,-0.084,0.889,0.165
19.7,-0.262,1.259,0.027
19.71,-0.197,0.462,-0.2
19.72,-0.382,0.974,-0.063
19.73,-0.054,0.781,0.145
19.74,-0.246,1.082,-0.021
19.75,-0.33,0.582,-0.218
19.76,-0.202,1.23,-0.024
19.77,-0.13,1.198,0.131
19.78,-0.089,0.698,0.053
19.79,-0.488,1.021,-0.198
19.8,-0.233,1.09,0.039
19.81,-0.168,1.091,0.128
19.82,-0.08,0.85,0.008
19.83,-0.425,0.717,-0.24
19.84,-0.177,1.703,0.029
19.85,-0.078,0.755,0.104
19.86,-0.178,1.053,0.049
19.87,-0.325,0.372,-0.235
19.88,-0.251,2.0,0.051
19.89,-0.034,0.752,0.127
19.9,-0.081,0.865,0.018
19.91,-0.385,0.635,-0.229
19.92,-0.183,1.678,0.078
19.93,-0.136,0.904,0.083
19.94,-0.004,0.555,0.001
19.95,-0.478,1.039,-0.238
19.96,-0.029,1.521,0.129
19.97,-0.151,1.222,0.101
19.98,0.054,0.447,0.039
19.99,-0.468,0.866,-0.13
20.0,-0.099,1.931,0.103
20.01,-0.032,0.699,0.099
20.02,-0.002,1.003,-0.078
20.03,-0.489,0.278,-0.197
20.04,-0.113,2.0,0.174
20.05,-0.194,0.717,0.182
20.06,-0.123,0.76,0.02
20.07,-0.428,0.498,-0.226
20.08,-0.101,1.616,0.133
20.09,-0.138,1.086,0.066
20.1,-0.034,0.436,-0.04
20.11,-0.535,0.924,-0.17
20.12,-0.043,1.33,0.223
20.13,-0.291,1.288,0.127
20.14,0.013,0.571,-0.014
20.15,-0.516,0.777,-0.137
20.16,-0.06,1.541,0.155
20.17,-0.16,0.961,0.103
20.18,-0.057,0.865,-0.077
20.19,-0.412,0.266,-0.192
20.2,-0.219,1.633,0.232
20.21,-0.172,0.757,0.09
20.22,-0.193,1.059,-0.048
20.23,-0.386,0.314,-0.121
20.24,-0.088,1.488,0.204
20.25,-0.152,1.147,0.024
20.26,-0.111,0.534,-0.154
20.27,-0.507,0.924,-0.183
20.28,-0.063,1.075,0.235
20.29,-0.334,1.288,0.062
20.3,-0.133,0.492,-0.092
20.31,-0.501,0.829,-0.157
20.32,-0.079,1.225,0.152
20.33,-0.113,0.922,0.02
20.34,-0.281,0.906,-0.201
20.35,-0.409,0.311,-0.098
20.36,-0.175,1.45,0.17
20.37,-0.153,0.754,0.055
20.38,-0.291,0.979,-0.07
20.39,-0.483,0.503,-0.075
20.4,-0.113,1.264,0.221
20.41,-0.297,1.075,0.049
20.42,-0.23,0.545,-0.128
20.43,-0.509,0.957,-0.1
20.44,-0.026,0.952,0.187
20.45,-0.239,1.357,0.035
20.46,-0.243,0.344,-0.136
20.47,-0.449,0.989,-0.036
20.48,-0.088,1.025,0.164
20.49,-0.231,1.033,0.066
20.5,-0.262,0.73,-0.111
20.51,-0.385,0.702,-0.06
20.52,-0.143,1.323,0.171
20.53,-0.092,0.749,0.004
20.54,-0.462,0.954,-0.227
20.55,-0.162,0.915,-0.023
20.56,-0.284,1.193,0.147
20.57,-0.126,0.82,0.068
20.58,-0.347,0.818,-0.181
20.59,-0.162,1.495,-0.08
20.6,-0.042,0.887,0.088
20.61,-0.122,1.011,0.008
20.62,-0.319,0.418,-0.225
20.63,-0.231,1.91,-0.006
20.64,-0.116,0.659,0.113
20.65,-0.104,1.082,0.073
20.66,-0.442,0.526,-0.234
20.67,-0.207,1.563,0.03
20.68,-0.238,0.934,0.145
20.69,-0.002,0.645,0.054
20.7,-0.491,0.95,-0.201
20.71,-0.112,1.366,0.033
20.72,-0.23,1.192,0.165
20.73,0.016,0.529,0.065
20.74,-0.486,0.97,-0.167
20.75,-0.216,1.672,0.046
20.76,-0.262,0.712,0.144
20.77,-0.02,1.005,0.026
20.78,-0.464,0.438,-0.171
20.79,-0.223,2.0,0.091
20.8,-0.137,0.583,0.122
20.81,-0.094,0.986,0.031
20.82,-0.412,0.443,-0.183
20.83,-0.16,1.892,0.094
20.84,-0.097,0.82,0.064
20.85,0.022,0.622,-0.019
20.86,-0.419,0.928,-0.241
20.87,-0.018,1.57,0.093
20.88,-0.273,1.146,0.173
20.89,0.095,0.442,0.025
20.9,-0.53,0.961,-0.207
20.91,-0.01,1.744,0.093
20.92,-0.197,0.849,0.123
20.93,-0.013,0.796,-0.042
20.94,-0.387,0.417,-0.196
20.95,-0.11,2.0,0.069
20.96,-0.065,0.631,0.108
20.97,-0.095,0.902,-0.021
20.98,-0.455,0.347,-0.206
20.99,-0.072,1.994,0.109
21.0,-0.129,0.862,0.057
21.01,-0.016,0.504,-0.01
21.02,-0.448,0.888,-0.26
21.03,-0.048,1.489,0.102
21.04,-0.145,1.26,0.098
21.05,0.016,0.362,-0.035
21.06,-0.508,0.898,-0.166
21.07,-0.021,1.535,0.207
21.08,-0.174,1.093,0.098
21.09,-0.022,0.722,-0.074
21.1,-0.299,0.434,-0.194
21.11,-0.17,1.895,0.165
21.12,0.005,0.739,0.086
21.13,-0.135,0.897,-0.098
21.14,-0.383,0.256,-0.186
21.15,-0.141,1.749,0.158
21.16,-0.182,0.96,0.074
21.17,-0.133,0.655,-0.042
21.18,-0.436,0.736,-0.165
21.19,-0.081,1.309,0.203
21.2,-0.281,1.297,0.058
21.21,0.019,0.486,-0.02
21.22,-0.519,0.843,-0.187
21.23,-0.011,1.302,0.185
21.24,-0.163,1.097,0.058
21.25,-0.121,0.784,-0.073
21.26,-0.486,0.419,-0.143
21.27,-0.168,1.624,0.21
21.28,-0.196,0.831,0.106
21.29,-0.117,1.049,-0.124
21.3,-0.449,0.225,-0.166
21.31,-0.176,1.405,0.234
21.32,-0.185,0.961,0.012
21.33,-0.186,0.684,-0.128
21.34,-0.446,0.552,-0.082
21.35,-0.063,1.193,0.185
21.36,-0.274,1.055,0.008
21.37,-0.253,0.507,-0.124
21.38,-0.53,1.045,-0.057
21.39,-0.105,0.896,0.175
21.4,-0.229,1.273,0.031
21.41,-0.23,0.376,-0.12
21.42,-0.359,1.152,-0.045
21.43,-0.067,1.062,0.146
21.44,-0.176,0.83,0.086
21.45,-0.38,0.91,-0.151
21.46,-0.407,0.636,0.024
21.47,-0.199,1.276,0.15
21.48,-0.152,0.779,0.078
21.49,-0.399,0.856,-0.153
21.5,-0.24,0.884,-0.083
21.51,-0.161,1.079,0.114
21.52,-0.164,1.085,-0.015
21.53,-0.253,0.428,-0.147
21.54,-0.308,1.54,-0.074
21.55,-0.042,0.786,0.196
21.56,-0.261,1.223,0.069
21.57,-0.269,0.367,-0.177
21.58,-0.3,1.406,-0.054
21.59,-0.121,0.882,0.11
21.6,-0.149,0.886,-0.008
21.61,-0.398,0.823,-0.185
21.62,-0.164,1.074,-0.016
21.63,-0.196,1.177,0.161
21.64,-0.076,0.597,0.041
21.65,-0.429,1.018,-0.184
21.66,-0.114,1.29,-0.038
21.67,-0.138,1.035,0.086
21.68,-0.128,0.867,0.0
21.69,-0.377,0.601,-0.216
21.7,-0.275,1.805,0.008
21.71,-0.071,0.602,0.103
21.72,-0.179,1.177,0.075
21.73,-0.377,0.391,-0.238
21.74,-0.356,1.789,0.072
21.75,-0.066,0.824,0.183
21.76,-0.193,0.836,0.075
21.77,-0.434,0.836,-0.201
21.78,-0.257,1.399,0.064
21.79,-0.178,1.156,0.211
21.8,0.016,0.5,0.073
21.81,-0.502,1.101,-0.189
21.82,-0.13,1.462,0.044
21.83,-0.212,0.974,0.152
21.84,0.036,0.76,0.023
21.85,-0.526,0.592,-0.202
21.86,-0.184,1.959,0.104
21.87,-0.193,0.556,0.084
21.88,-0.122,1.059,0.05
21.89,-0.368,0.377,-0.213
21.9,-0.208,2.0,0.063
21.91,-0.092,0.698,0.129
21.92,-0.045,0.896,0.011
21.93,-0.414,0.458,-0.221
21.94,-0.067,1.744,0.078
21.95,-0.095,0.985,0.102
21.96,-0.04,0.443,-0.056
21.97,-0.543,1.0,-0.139
21.98,0.007,1.602,0.151
21.99,-0.249,1.205,0.138
22.0,0.098,0.353,-0.01
22.01,-0.484,0.931,-0.206
22.02,-0.079,1.601,0.068
22.03,-0.097,0.895,0.135
22.04,-0.105,0.813,-0.036
22.05,-0.433,0.351,-0.195
22.06,-0.206,1.989,0.118
22.07,-0.069,0.738,0.115
22.08,-0.189,0.844,-0.068
22.09,-0.363,0.388,-0.206
22.1,-0.145,1.853,0.162
22.11,-0.138,1.005,0.082
22.12,0.014,0.443,-0.037
22.13,-0.489,0.876,-0.26
22.14,0.02,1.4,0.165
22.15,-0.26,1.248,0.07
22.16,-0.007,0.453,-0.098
22.17,-0.432,0.973,-0.204
22.18,-0.036,1.309,0.14
22.19,-0.214,1.247,0.08
22.2,-0.108,0.598,-0.086
22.21,-0.412,0.613,-0.202
22.22,-0.115,1.602,0.161
22.23,-0.122,0.881,0.097
22.24,-0.225,0.962,-0.067
22.25,-0.408,0.205,-0.168
22.26,-0.164,1.684,0.201
22.27,-0.127,0.849,0.038
22.28,-0.192,0.871,-0.107
22.29,-0.344,0.541,-0.204
22.3,-0.111,1.311,0.242
22.31,-0.202,1.269,0.039
22.32,0.003,0.413,-0.134
22.33,-0.438,1.017,-0.217
22.34,-0.01,1.087,0.201
22.35,-0.268,1.216,0.014
22.36,-0.047,0.646,-0.091
22.37,-0.381,0.61,-0.225
22.38,-0.108,1.359,0.188
22.39,-0.01,0.889,0.018
22.4,-0.272,0.965,-0.192
22.41,-0.295,0.228,-0.19
22.42,-0.232,1.5,0.187
22.43,-0.097,0.848,0.056
22.44,-0.247,0.806,-0.112
22.45,-0.404,0.543,-0.196
22.46,-0.077,1.169,0.16
22.47,-0.191,1.229,-0.029
22.48,-0.088,0.436,-0.176
22.49,-0.459,0.954,-0.198
22.5,0.005,0.989,0.151
22.51,-0.196,1.257,0.034
22.52,-0.123,0.511,-0.117
22.53,-0.513,0.732,-0.09
22.54,-0.125,1.213,0.22
22.55,-0.146,0.972,0.026
22.56,-0.253,0.888,-0.139
22.57,-0.396,0.291,-0.142
22.58,-0.131,1.446,0.114
22.59,-0.143,0.804,0.04
22.6,-0.325,0.852,-0.085
22.61,-0.418,0.547,-0.121
22.62,-0.118,1.213,0.191
22.63,-0.237,1.102,0.018
22.64,-0.221,0.422,-0.085
22.65,-0.555,1.0,-0.072
22.66,-0.025,0.922,0.19
22.67,-0.333,1.305,0.028
22.68,-0.124,0.447,-0.093
22.69,-0.543,0.889,-0.043
22.7,-0.026,1.153,0.177
22.71,-0.217,0.936,0.056
22.72,-0.346,0.851,-0.106
22.73,-0.422,0.437,-0.026
22.74,-0.218,1.389,0.174
22.75,-0.187,0.735,0.078
22.76,-0.378,0.909,-0.103
22.77,-0.425,0.684,-0.047
22.78,-0.136,1.109,0.187
22.79,-0.172,1.165,0.048
22.8,-0.256,0.366,-0.178
22.81,-0.277,1.457,-0.076
22.82,0.01,0.867,0.168
22.83,-0.277,1.171,0.082
22.84,-0.232,0.454,-0.143
22.85,-0.386,1.186,-0.079
22.86,-0.114,0.972,0.101
22.87,-0.208,0.935,0.058
22.88,-0.367,0.816,-0.146
22.89,-0.31,0.682,-0.036
22.9,-0.15,1.231,0.114
22.91,-0.086,0.781,0.04
22.92,-0.333,0.895,-0.166
22.93,-0.194,1.1,-0.114
22.94,-0.041,1.09,0.115
22.95,-0.084,0.682,0.023
22.96,-0.364,0.802,-0.255
22.97,-0.252,1.569,-0.027
22.98,-0.076,0.792,0.069
22.99,-0.23,1.094,0.041
23.0,-0.28,0.447,-0.237
23.01,-0.296,1.943,-0.018
23.02,-0.088,0.647,0.12
23.03,-0.131,1.093,0.075
23.04,-0.313,0.579,-0.229
23.05,-0.355,1.542,0.059
23.06,-0.173,1.021,0.111
23.07,-0.045,0.63,0.043
23.08,-0.519,0.992,-0.168
23.09,-0.204,1.307,0.108
23.1,-0.26,1.067,0.151
23.11,-0.037,0.604,0.097
23.12,-0.496,0.926,-0.183
23.13,-0.275,1.65,0.11
23.14,-0.221,0.683,0.153
23.15,-0.102,1.033,0.096
23.16,-0.396,0.367,-0.173
23.17,-0.295,2.0,0.122
23.18,-0.143,0.671,0.235
23.19,-0.093,0.978,0.091
23.2,-0.417,0.486,-0.169
23.21,-0.185,1.806,0.088
23.22,-0.235,0.853,0.16
23.23,0.136,0.605,0.014
23.24,-0.49,0.975,-0.242
23.25,-0.016,1.412,0.093
23.26,-0.246,1.108,0.093
23.27,0.11,0.505,0.052
23.28,-0.428,0.908,-0.197
23.29,0.014,1.709,0.072
23.3,-0.155,0.827,0.133
23.31,0.043,0.856,0.021
23.32,-0.393,0.382,-0.237
23.33,-0.058,2.0,0.077
23.34,-0.054,0.562,0.054
23.35,-0.018,0.921,-0.012
23.36,-0.373,0.47,-0.246
23.37,-0.038,1.896,0.115
23.38,-0.208,0.791,0.108
23.39,0.116,0.552,-0.016
23.4,-0.508,1.015,-0.211
23.41,0.066,1.456,0.109
23.42,-0.241,1.178,0.136
23.43,0.13,0.436,-0.001
23.44,-0.492,0.906,-0.199
23.45,0.023,1.719,0.025
23.46,-0.167,0.878,0.115
23.47,-0.007,0.804,-0.038
23.48,-0.466,0.396,-0.233
23.49,-0.066,2.0,0.124
23.5,-0.086,0.679,0.086
23.51,-0.119,0.793,-0.012
23.52,-0.38,0.447,-0.216
23.53,-0.152,1.762,0.085
23.54,-0.129,0.873,0.109
23.55,-0.007,0.516,-0.047
23.56,-0.472,0.914,-0.234
23.57,-0.035,1.4,0.173
23.58,-0.286,1.241,0.155
23.59,0.066,0.379,-0.021
23.6,-0.557,0.944,-0.179
23.61,-0.023,1.544,0.178
23.62,-0.167,1.014,0.107
23.63,-0.048,0.688,-0.071
23.64,-0.411,0.447,-0.178
23.65,-0.158,1.831,0.149
23.66,-0.154,0.688,0.16
23.67,-0.157,0.959,-0.025
23.68,-0.45,0.306,-0.171
23.69,-0.144,1.78,0.175
23.7,-0.133,0.997,0.072
23.71,-0.125,0.569,-0.021
23.72,-0.425,0.827,-0.2
23.73,-0.03,1.41,0.18
23.74,-0.277,1.28,0.129
23.75,-0.031,0.44,-0.041
23.76,-0.562,0.988,-0.157
23.77,-0.038,1.245,0.217
23.78,-0.272,1.256,0.095
23.79,-0.048,0.615,-0.08
23.8,-0.431,0.647,-0.176
23.81,-0.089,1.47,0.159
23.82,-0.075,0.944,0.059
23.83,-0.156,0.959,-0.108
23.84,-0.336,0.216,-0.238
23.85,-0.166,1.61,0.143
23.86,-0.088,0.813,0.033
23.87,-0.224,0.905,-0.118
23.88,-0.375,0.431,-0.212
23.89,-0.086,1.253,0.189
23.9,-0.185,1.236,0.022
23.91,-0.042,0.491,-0.13
23.92,-0.48,0.91,-0.228
23.93,0.014,1.104,0.158
23.94,-0.316,1.307,0.11
23.95,-0.12,0.522,-0.1
23.96,-0.462,0.737,-0.179
23.97,-0.078,1.308,0.19
23.98,-0.182,0.901,0.07
23.99,-0.222,0.995,-0.105
24.0,-0.462,0.203,-0.161
24.01,-0.129,1.522,0.236
24.02,-0.104,0.853,0.061
24.03,-0.279,0.881,-0.117
24.04,-0.414,0.432,-0.166
24.05,-0.094,1.247,0.205
24.06,-0.223,1.162,-0.009
24.07,-0.001,0.506,-0.135
24.08,-0.533,0.928,-0.195
24.09,0.06,0.992,0.196
24.1,-0.316,1.297,0.092
24.11,-0.177,0.476,-0.138
24.12,-0.485,0.767,-0.124
24.13,-0.079,1.193,0.189
24.14,-0.104,1.003,0.029
24.15,-0.222,0.877,-0.112
24.16,-0.47,0.32,-0.132
24.17,-0.185,1.43,0.196
24.18,-0.149,0.767,0.046
24.19,-0.257,0.94,-0.13
24.2,-0.442,0.444,-0.165
24.21,-0.111,1.232,0.205
24.22,-0.167,1.124,0.008
24.23,-0.146,0.434,-0.161
24.24,-0.551,0.968,-0.13
24.25,0.007,0.958,0.189
24.26,-0.301,1.354,0.039
24.27,-0.151,0.408,-0.053
24.28,-0.542,0.815,-0.051
24.29,-0.107,1.131,0.179
24.3,-0.173,0.978,0.003
24.31,-0.279,0.861,-0.174
24.32,-0.396,0.301,-0.121
24.33,-0.139,1.463,0.151
24.34,-0.173,0.788,0.077
24.35,-0.284,0.942,-0.068
24.36,-0.51,0.483,-0.09
24.37,-0.129,1.274,0.208
24.38,-0.231,1.044,0.031
24.39,-0.245,0.524,-0.105
24.4,-0.505,0.961,-0.076
24.41,-0.054,0.931,0.207
24.42,-0.298,1.309,0.071
24.43,-0.248,0.356,-0.155
24.44,-0.55,0.853,-0.083
24.45,-0.03,1.086,0.145
24.46,-0.151,1.075,-0.011
24.47,-0.216,0.761,-0.185
24.48,-0.446,0.456,-0.1
24.49,-0.103,1.432,0.139
24.5,-0.168,0.739,0.068
24.51,-0.314,0.916,-0.128
24.52,-0.465,0.531,-0.07
24.53,-0.099,1.274,0.165
24.54,-0.262,1.021,0.048
24.55,-0.281,0.577,-0.108
24.56,-0.33,1.045,-0.048
24.57,-0.099,0.953,0.158
24.58,-0.15,1.247,0.086
24.59,-0.318,0.333,-0.201
24.6,-0.338,1.412,-0.066
24.61,-0.071,0.85,0.159
24.62,-0.251,1.226,0.125
24.63,-0.296,0.427,-0.142
24.64,-0.283,1.2,-0.056
24.65,-0.086,1.127,0.126
24.66,-0.1,0.786,0.038
24.67,-0.336,0.944,-0.196
24.68,-0.195,0.911,-0.107
24.69,-0.132,1.309,0.179
24.7,-0.099,0.764,0.08
24.71,-0.378,0.854,-0.187
24.72,-0.273,1.113,-0.089
24.73,-0.069,0.982,0.101
24.74,-0.196,1.18,-0.001
24.75,-0.243,0.375,-0.17
24.76,-0.242,1.635,-0.133
24.77,0.045,0.814,0.13
24.78,-0.129,1.176,0.076
24.79,-0.273,0.501,-0.208
24.8,-0.269,1.356,-0.037
24.81,-0.179,1.047,0.171
24.82,-0.07,0.76,0.085
24.83,-0.459,0.958,-0.139
24.84,-0.28,0.771,-0.039
24.85,-0.228,1.201,0.127
24.86,-0.12,0.82,0.067
24.87,-0.338,0.826,-0.185
24.88,-0.38,1.078,-0.07
24.89,-0.076,1.005,0.127
24.9,-0.23,1.148,0.052
24.91,-0.219,0.35,-0.162
24.92,-0.332,1.668,-0.099
24.93,0.028,0.803,0.163
24.94,-0.301,1.181,0.102
24.95,-0.237,0.421,-0.178
24.96,-0.358,1.333,-0.053
24.97,-0.12,0.996,0.166
24.98,-0.156,0.823,0.047
24.99,-0.39,0.893,-0.179
25.0,-0.204,0.853,-0.088
25.01,-0.191,1.249,0.107
25.02,-0.156,0.735,0.104
25.03,-0.363,0.836,-0.145
25.04,-0.311,1.098,-0.079
25.05,-0.057,1.026,0.117
25.06,-0.247,1.111,0.063
25.07,-0.288,0.383,-0.13
25.08,-0.465,1.437,-0.014
25.09,-0.042,0.825,0.141
25.1,-0.297,1.297,0.07
25.11,-0.181,0.361,-0.191
25.12,-0.32,1.36,-0.079
25.13,0.016,1.022,0.153
25.14,-0.189,0.838,0.04
25.15,-0.286,0.843,-0.143
25.16,-0.222,0.992,-0.121
25.17,-0.083,1.323,0.168
25.18,-0.139,0.678,0.082
25.19,-0.431,0.98,-0.151
25.2,-0.376,0.947,0.011
25.21,-0.176,1.071,0.128
25.22,-0.216,1.08,0.089
25.23,-0.282,0.428,-0.093
25.24,-0.307,1.635,-0.071
25.25,0.053,0.822,0.202
25.26,-0.246,1.188,0.109
25.27,-0.259,0.447,-0.134
25.28,-0.382,1.375,-0.056
25.29,-0.14,0.93,0.17
25.3,-0.158,0.935,0.054
25.31,-0.368,0.776,-0.192
25.32,-0.231,0.853,-0.049
25.33,-0.155,1.258,0.181
25.34,-0.136,0.718,0.088
25.35,-0.327,0.91,-0.126
25.36,-0.25,1.101,-0.047
25.37,-0.129,1.211,0.16
25.38,-0.122,0.74,0.038
25.39,-0.399,0.846,-0.2
25.4,-0.234,1.441,-0.07
25.41,-0.074,0.806,0.098
25.42,-0.22,1.164,0.021
25.43,-0.213,0.401,-0.186
25.44,-0.374,1.754,-0.034
25.45,-0.023,0.736,0.142
25.46,-0.191,1.113,0.044
25.47,-0.319,0.578,-0.176
25.48,-0.277,1.354,-0.042
25.49,-0.193,1.065,0.159
25.5,-0.044,0.694,0.077
25.51,-0.544,1.026,-0.135
25.52,-0.177,1.097,0.007
25.53,-0.241,1.198,0.186
25.54,-0.073,0.725,0.078
25.55,-0.472,0.818,-0.146
25.56,-0.179,1.51,-0.013
25.57,-0.199,0.854,0.205
25.58,-0.076,1.096,0.017
25.59,-0.294,0.453,-0.261
25.6,-0.255,1.826,-0.033
25.61,-0.105,0.747,0.172
25.62,-0.144,1.053,0.055
25.63,-0.323,0.529,-0.172
25.64,-0.207,1.565,-0.059
25.65,-0.071,1.099,0.108
25.66,-0.053,0.599,0.05
25.67,-0.417,1.079,-0.223
25.68,-0.227,1.125,-0.04
25.69,-0.228,1.087,0.183
25.7,-0.053,0.757,0.093
25.71,-0.504,0.904,-0.167
25.72,-0.188,1.368,-0.036
25.73,-0.168,0.891,0.132
25.74,-0.073,1.076,0.04
25.75,-0.257,0.463,-0.224
25.76,-0.315,1.862,-0.065
25.77,-0.05,0.766,0.129
25.78,-0.138,1.094,0.056
25.79,-0.304,0.506,-0.213
25.8,-0.228,1.499,-0.061
25.81,-0.162,0.967,0.104
25.82,-0.057,0.738,0.047
25.83,-0.371,0.989,-0.181
25.84,-0.225,1.097,-0.08
25.85,-0.202,1.222,0.161
25.86,-0.038,0.711,0.068
25.87,-0.446,0.897,-0.15
25.88,-0.213,1.341,-0.03
25.89,-0.134,0.957,0.179
25.9,-0.149,1.036,0.009
25.91,-0.296,0.486,-0.192
25.92,-0.28,1.748,-0.038
25.93,-0.094,0.755,0.163
25.94,-0.175,1.192,0.028
25.95,-0.34,0.451,-0.143
25.96,-0.231,1.549,-0.029
25.97,-0.126,1.039,0.158
25.98,0.017,0.751,0.026
25.99,-0.429,0.889,-0.215
26.0,-0.098,1.155,-0.071
26.01,-0.149,1.296,0.181
26.02,0.007,0.596,0.08
26.03,-0.406,1.022,-0.209
26.04,-0.22,1.255,-0.112
26.05,-0.143,0.983,0.141
26.06,-0.167,1.067,0.036
26.07,-0.287,0.499,-0.147
26.08,-0.355,1.782,-0.002
26.09,-0.05,0.726,0.165
26.1,-0.147,1.17,0.048
26.11,-0.278,0.444,-0.216
26.12,-0.261,1.526,-0.083
26.13,-0.117,0.961,0.08
26.14,0.027,0.806,-0.007
26.15,-0.371,0.913,-0.247
26.16,-0.136,1.099,-0.094
26.17,-0.243,1.07,0.118
26.18,0.027,0.572,0.099
26.19,-0.532,1.061,-0.161
26.2,-0.293,1.278,0.071
26.21,-0.201,1.078,0.187
26.22,-0.053,0.676,0.103
26.23,-0.425,0.858,-0.177
26.24,-0.297,1.724,0.034
26.25,-0.149,0.705,0.111
26.26,-0.112,1.092,0.058
26.27,-0.338,0.388,-0.215
26.28,-0.328,1.871,0.035
26.29,-0.142,0.733,0.169
26.3,-0.06,0.975,0.13
26.31,-0.424,0.726,-0.201
26.32,-0.188,1.505,-0.028
26.33,-0.234,1.078,0.144
26.34,0.103,0.561,0.08
26.35,-0.535,1.06,-0.148
26.36,-0.182,1.219,-0.011
26.37,-0.242,1.064,0.162
26.38,-0.006,0.735,0.079
26.39,-0.498,0.898,-0.181
26.4,-0.239,1.607,0.009
26.41,-0.144,0.733,0.133
26.42,-0.115,1.124,0.076
26.43,-0.26,0.434,-0.193
26.44,-0.287,1.923,-0.024
26.45,-0.082,0.795,0.131
26.46,-0.161,0.968,0.093
26.47,-0.302,0.599,-0.183
26.48,-0.238,1.54,-0.044
26.49,-0.069,1.138,0.11
26.5,0.0,0.541,0.07
26.51,-0.395,1.072,-0.172
26.52,-0.314,1.091,-0.022
26.53,-0.255,1.028,0.131
26.54,-0.129,0.857,0.041
26.55,-0.408,0.788,-0.18
26.56,-0.281,1.355,-0.036
26.57,-0.125,0.888,0.138
26.58,-0.193,1.18,0.038
26.59,-0.208,0.356,-0.193
26.6,-0.251,1.835,-0.037
26.61,-0.008,0.823,0.15
26.62,-0.185,1.042,0.036
26.63,-0.33,0.588,-0.175
26.64,-0.288,1.325,-0.056
26.65,-0.192,1.068,0.187
26.66,-0.135,0.771,0.049
26.67,-0.462,0.959,-0.181
26.68,-0.274,0.982,-0.007
26.69,-0.137,1.233,0.189
26.7,-0.133,0.765,0.051
26.71,-0.339,0.853,-0.131
26.72,-0.236,1.487,-0.052
26.73,-0.037,0.936,0.141
26.74,-0.158,1.046,0.032
26.75,-0.307,0.449,-0.176
26.76,-0.326,1.748,-0.006
26.77,-0.079,0.727,0.152
26.78,-0.222,1.12,0.063
26.79,-0.35,0.507,-0.179
26.8,-0.287,1.443,0.002
26.81,-0.071,1.037,0.148
26.82,-0.027,0.747,0.038
26.83,-0.449,1.019,-0.17
26.84,-0.212,1.109,-0.034
26.85,-0.153,1.246,0.132
26.86,-0.092,0.637,0.056
26.87,-0.42,0.884,-0.189
26.88,-0.26,1.389,-0.016
26.89,-0.144,0.85,0.176
26.9,-0.223,1.072,0.015
26.91,-0.24,0.469,-0.199
26.92,-0.355,1.797,-0.003
26.93,-0.04,0.727,0.128
26.94,-0.265,1.161,0.08
26.95,-0.295,0.52,-0.22
26.96,-0.221,1.54,-0.03
26.97,-0.097,0.749,0.114
26.98,-0.108,0.808,0.071
26.99,-0.351,0.749,-0.239
27.0,-0.26,1.493,0.051
27.01,-0.185,1.097,0.14
27.02,0.023,0.501,0.088
27.03,-0.517,1.042,-0.162
27.04,-0.253,1.35,0.141
27.05,-0.193,0.985,0.163
27.06,-0.106,0.769,0.078
27.07,-0.454,0.696,-0.167
27.08,-0.28,1.902,0.077
27.09,0.013,0.716,0.109
27.1,-0.141,1.001,0.059
27.11,-0.44,0.802,-0.149
27.12,-0.125,1.83,0.103
27.13,-0.046,0.734,0.143
27.14,-0.078,0.988,0.032
27.15,-0.429,0.326,-0.202
27.16,-0.179,2.0,0.124
27.17,-0.151,0.595,0.132
27.18,-0.071,0.843,0.057
27.19,-0.377,0.693,-0.231
27.2,-0.162,1.547,0.076
27.21,-0.122,1.089,0.154
27.22,0.064,0.408,0.054
27.23,-0.483,1.009,-0.198
27.24,-0.043,1.494,0.087
27.25,-0.18,1.108,0.133
27.26,0.031,0.54,0.038
27.27,-0.438,0.751,-0.172
27.28,-0.05,1.931,0.084
27.29,-0.128,0.635,0.109
27.3,-0.041,0.935,0.018
27.31,-0.336,0.393,-0.234
27.32,-0.196,2.0,0.093
27.33,-0.071,0.66,0.129
27.34,-0.059,0.835,0.02
27.35,-0.376,0.598,-0.233
27.36,-0.152,1.727,0.114
27.37,-0.189,1.04,0.159
27.38,0.078,0.408,0.004
27.39,-0.46,1.054,-0.228
27.4,0.028,1.498,0.064
27.41,-0.219,1.116,0.07
27.42,0.111,0.508,0.017
27.43,-0.432,0.797,-0.211
27.44,-0.024,1.861,0.081
27.45,-0.101,0.746,0.128
27.46,0.008,0.877,0.026
27.47,-0.467,0.349,-0.208
27.48,-0.088,2.0,0.124
27.49,-0.126,0.61,0.094
27.5,-0.001,0.816,0.021
27.51,-0.341,0.578,-0.216
27.52,-0.139,1.733,0.18
27.53,-0.106,1.01,0.146
27.54,0.066,0.411,-0.002
27.55,-0.493,1.074,-0.196
27.56,0.016,1.561,0.132
27.57,-0.244,1.116,0.132
27.58,0.056,0.516,0.049
27.59,-0.473,0.79,-0.203
27.6,0.072,1.838,0.111
27.61,-0.145,0.814,0.131
27.62,0.031,0.815,-0.013
27.63,-0.337,0.358,-0.222
27.64,-0.127,2.0,0.094
27.65,0.005,0.675,0.093
27.66,-0.158,0.854,-0.007
27.67,-0.324,0.297,-0.216
27.68,-0.177,1.948,0.151
27.69,-0.108,0.823,0.067
27.7,0.021,0.637,-0.041
27.71,-0.419,0.738,-0.245
27.72,0.014,1.489,0.1
27.73,-0.19,1.278,0.111
27.74,0.054,0.374,0.012
27.75,-0.538,0.965,-0.209
27.76,0.081,1.586,0.117
27.77,-0.212,1.122,0.067
27.78,0.026,0.635,-0.092
27.79,-0.407,0.551,-0.19
27.8,-0.114,1.882,0.174
27.81,-0.131,0.726,0.091
27.82,-0.072,0.928,-0.04
27.83,-0.333,0.235,-0.174
27.84,-0.109,1.821,0.132
27.85,-0.057,0.884,0.059
27.86,-0.1,0.714,-0.084
27.87,-0.475,0.688,-0.187
27.88,-0.035,1.506,0.198
27.89,-0.282,1.306,0.144
27.9,0.057,0.353,-0.029
27.91,-0.582,0.992,-0.187
27.92,0.036,1.353,0.126
27.93,-0.225,1.189,0.131
27.94,-0.013,0.687,-0.052
27.95,-0.483,0.535,-0.171
27.96,-0.103,1.719,0.128
27.97,-0.151,0.821,0.09
27.98,-0.125,1.046,-0.101
27.99,-0.375,0.201,-0.173
28.0,-0.118,1.759,0.181
28.01,-0.118,0.962,0.102
28.02,-0.158,0.687,-0.043
28.03,-0.448,0.641,-0.183
28.04,-0.097,1.317,0.219
28.05,-0.319,1.244,0.079
28.06,-0.042,0.45,-0.065
28.07,-0.441,0.931,-0.206
28.08,-0.026,1.192,0.182
28.09,-0.228,1.286,0.079
28.1,-0.045,0.652,-0.082
28.11,-0.476,0.544,-0.158
28.12,-0.103,1.483,0.201
28.13,-0.138,0.818,0.04
28.14,-0.128,1.044,-0.132
28.15,-0.375,0.166,-0.222
28.16,-0.166,1.562,0.195
28.17,-0.116,0.903,0.036
28.18,-0.158,0.792,-0.107
28.19,-0.463,0.622,-0.198
28.2,-0.013,1.131,0.197
28.21,-0.237,1.281,0.002
28.22,-0.02,0.419,-0.091
28.23,-0.533,0.95,-0.138
28.24,-0.018,1.064,0.209
28.25,-0.258,1.26,0.067
28.26,-0.119,0.597,-0.14
28.27,-0.437,0.557,-0.145
28.28,-0.123,1.345,0.195
28.29,-0.118,0.907,0.059
28.3,-0.206,0.997,-0.081
28.31,-0.503,0.257,-0.091
28.32,-0.188,1.432,0.208
28.33,-0.229,0.844,0.031
28.34,-0.254,0.874,-0.097
28.35,-0.49,0.61,-0.12
28.36,-0.109,1.114,0.219
28.37,-0.241,1.222,0.04
28.38,-0.176,0.363,-0.106
28.39,-0.542,1.064,-0.075
28.4,-0.005,0.921,0.172
28.41,-0.348,1.296,0.047
28.42,-0.15,0.491,-0.11
28.43,-0.547,0.722,-0.034
28.44,-0.071,1.266,0.202
28.45,-0.124,0.836,0.055
28.46,-0.344,0.78,-0.183
28.47,-0.326,0.554,-0.09
28.48,-0.145,1.306,0.154
28.49,-0.068,0.76,0.041
28.5,-0.291,0.883,-0.141
28.51,-0.249,0.895,-0.134
28.52,0.008,1.216,0.153
28.53,-0.153,0.93,-0.024
28.54,-0.246,0.579,-0.191
28.55,-0.284,1.367,-0.136
28.56,-0.016,0.849,0.138
28.57,-0.196,1.298,0.055
28.58,-0.219,0.341,-0.18
28.59,-0.33,1.199,-0.122
28.6,-0.038,0.861,0.101
28.61,-0.147,1.114,0.027
28.62,-0.21,0.631,-0.217
28.63,-0.214,1.042,-0.132
28.64,-0.029,1.264,0.111
28.65,-0.027,0.649,0.039
28.66,-0.443,1.032,-0.115
28.67,-0.272,0.92,-0.076
28.68,-0.165,1.102,0.129
28.69,-0.177,0.96,0.044
28.7,-0.297,0.637,-0.169
28.71,-0.284,1.363,-0.097
28.72,-0.022,0.798,0.129
28.73,-0.258,1.291,0.046
28.74,-0.198,0.302,-0.173
28.75,-0.292,1.621,-0.101
28.76,0.002,0.866,0.124
28.77,-0.151,0.989,0.041
28.78,-0.343,0.743,-0.192
28.79,-0.207,1.22,-0.115
28.8,-0.135,1.167,0.148
28.81,-0.108,0.661,0.051
28.82,-0.46,0.977,-0.187
28.83,-0.136,1.173,-0.052
28.84,-0.158,1.14,0.148
28.85,-0.059,0.788,0.044
28.86,-0.362,0.774,-0.181
28.87,-0.24,1.659,-0.023
28.88,-0.05,0.715,0.146
28.89,-0.219,1.176,0.061
28.9,-0.281,0.381,-0.201
28.91,-0.267,1.879,-0.034
28.92,-0.088,0.763,0.14
28.93,-0.119,0.949,0.025
28.94,-0.403,0.648,-0.23
28.95,-0.161,1.456,0.013
28.96,-0.154,1.138,0.136
28.97,0.011,0.555,0.058
28.98,-0.47,1.068,-0.186
28.99,-0.197,1.31,0.024
29.0,-0.199,1.069,0.136
29.01,-0.094,0.721,0.06
29.02,-0.416,0.756,-0.206
29.03,-0.222,1.795,0.034
29.04,-0.065,0.735,0.105
29.05,-0.103,1.052,0.033
29.06,-0.331,0.393,-0.247
29.07,-0.267,1.92,0.019
29.08,-0.106,0.609,0.117
29.09,-0.116,0.968,0.028
29.1,-0.412,0.629,-0.204
29.11,-0.261,1.566,0.082
29.12,-0.192,1.03,0.134
29.13,0.005,0.542,0.063
29.14,-0.47,1.077,-0.187
29.15,-0.223,1.365,0.083
29.16,-0.204,1.064,0.197
29.17,0.012,0.674,0.055
29.18,-0.485,0.806,-0.151
29.19,-0.204,1.81,0.092
29.2,-0.121,0.819,0.213
29.21,-0.067,0.933,0.079
29.22,-0.302,0.382,-0.195
29.23,-0.256,2.0,0.09
29.24,-0.048,0.743,0.158
29.25,-0.146,0.853,0.069
29.26,-0.396,0.59,-0.141
29.27,-0.078,2.0,0.094
29.28,-0.169,0.637,0.104
29.29,-0.002,0.641,-0.012
29.3,-0.434,0.878,-0.252
29.31,0.03,1.584,0.094
29.32,-0.236,1.174,0.147
29.33,0.127,0.361,0.031
29.34,-0.561,0.967,-0.162
29.35,0.134,1.596,0.086
29.36,-0.132,1.044,0.109
29.37,0.039,0.668,-0.074
29.38,-0.399,0.482,-0.221
29.39,-0.061,2.0,0.154
29.4,-0.153,0.604,0.133
29.41,-0.038,0.892,-0.006
29.42,-0.438,0.354,-0.177
29.43,-0.098,1.869,0.112
29.44,-0.126,0.881,0.052
29.45,-0.033,0.538,-0.035
29.46,-0.385,0.767,-0.267
29.47,0.027,1.528,0.136
29.48,-0.171,1.165,0.064
29.49,0.049,0.402,-0.048
29.5,-0.501,0.962,-0.201
29.51,0.031,1.539,0.184
29.52,-0.187,1.138,0.082
29.53,-0.012,0.624,-0.049
29.54,-0.467,0.508,-0.143
29.55,-0.118,1.838,0.209
29.56,-0.076,0.738,0.119
29.57,-0.126,0.956,-0.07
29.58,-0.43,0.223,-0.166
29.59,-0.146,1.891,0.191
29.6,-0.163,0.953,0.166
29.61,-0.15,0.623,-0.03
29.62,-0.447,0.736,-0.167
29.63,-0.077,1.398,0.146
29.64,-0.269,1.309,0.122
29.65,0.061,0.443,-0.03
29.66,-0.555,0.895,-0.156
29.67,0.015,1.315,0.181
29.68,-0.283,1.172,0.096
29.69,-0.064,0.711,-0.063
29.7,-0.494,0.426,-0.157
29.71,-0.112,1.669,0.177
29.72,-0.127,0.834,0.085
29.73,-0.184,0.989,-0.081
29.74,-0.362,0.2,-0.163
29.75,-0.189,1.61,0.189
29.76,-0.132,0.925,0.047
29.77,-0.118,0.768,-0.136
29.78,-0.387,0.661,-0.174
29.79,-0.038,1.166,0.161
29.8,-0.222,1.323,0.044
29.81,-0.036,0.421,-0.106
29.82,-0.476,0.939,-0.17
29.83,0.029,1.113,0.201
29.84,-0.18,1.248,0.037
29.85,-0.175,0.659,-0.138
29.86,-0.342,0.506,-0.13
29.87,-0.177,1.383,0.158
29.88,-0.051,0.866,0.008
29.89,-0.283,1.018,-0.123
29.9,-0.328,0.169,-0.153
29.91,-0.212,1.439,0.216
29.92,-0.119,0.943,-0.006
29.93,-0.277,0.719,-0.1
29.94,-0.387,0.695,-0.091
29.95,-0.148,1.047,0.228
29.96,-0.267,1.234,0.033
29.97,-0.172,0.42,-0.104
29.98,-0.509,1.043,-0.007
29.99,-0.09,0.944,0.207
30.0,-0.324,1.156,0.064
30.01,-0.252,0.636,-0.159
30.02,-0.411,0.645,-0.043
30.03,-0.126,1.21,0.158
30.04,-0.191,0.829,0.04
30.05,-0.352,0.936,-0.139
30.06,-0.271,0.647,-0.023
30.07,-0.068,1.263,0.148
30.08,-0.102,0.633,0.043
30.09,-0.426,1.044,-0.171
30.1,-0.206,1.174,-0.104
30.11,-0.158,1.071,0.129
30.12,-0.154,0.952,0.002
30.13,-0.314,0.569,-0.198
30.14,-0.288,1.797,0.026
30.15,-0.02,0.708,0.185
30.16,-0.216,1.078,0.065
30.17,-0.283,0.456,-0.214
30.18,-0.237,1.796,-0.049
30.19,-0.045,0.807,0.111
30.2,-0.124,0.826,0.047
30.21,-0.437,0.875,-0.219
30.22,-0.238,1.286,0.049
30.23,-0.196,1.11,0.159
30.24,-0.109,0.57,0.052
30.25,-0.378,1.051,-0.19
30.26,-0.253,1.425,0.062
30.27,-0.073,1.078,0.208
30.28,-0.095,0.729,0.041
30.29,-0.384,0.656,-0.159
30.3,-0.294,1.961,0.082
30.31,-0.159,0.616,0.198
30.32,-0.132,1.048,0.039
30.33,-0.42,0.324,-0.215
30.34,-0.21,1.95,0.098
30.35,-0.119,0.711,0.1
30.36,-0.076,0.727,0.03
30.37,-0.388,0.86,-0.225
30.38,-0.165,1.501,0.118
30.39,-0.232,1.042,0.122
30.4,0.018,0.45,0.035
30.41,-0.535,1.038,-0.178
30.42,-0.064,1.562,0.157
30.43,-0.27,0.947,0.167
30.44,0.016,0.68,0.064
30.45,-0.491,0.651,-0.191
30.46,-0.087,2.0,0.114
30.47,-0.032,0.697,0.099
30.48,-0.128,0.903,0.041
30.49,-0.305,0.322,-0.183
30.5,-0.129,2.0,0.1
30.51,-0.073,0.752,0.159
30.52,-0.094,0.638,-0.017
30.53,-0.42,0.746,-0.233
30.54,-0.049,1.71,0.134
30.55,-0.184,1.073,0.136
30.56,0.077,0.354,-0.039
30.57,-0.494,1.028,-0.222
30.58,-0.002,1.483,0.09
30.59,-0.144,1.148,0.078
30.6,0.019,0.544,-0.032
30.61,-0.479,0.607,-0.187
30.62,-0.054,1.85,0.165
30.63,-0.075,0.715,0.15
30.64,-0.071,0.896,-0.055
30.65,-0.496,0.281,-0.181
30.66,-0.109,2.0,0.142
30.67,-0.133,0.809,0.105
30.68,-0.071,0.624,0.007
30.69,-0.396,0.65,-0.252
30.7,-0.035,1.505,0.133
30.71,-0.193,1.208,0.093
30.72,0.023,0.431,-0.078
30.73,-0.496,0.949,-0.207
30.74,0.019,1.403,0.194
30.75,-0.265,1.233,0.094
30.76,0.002,0.63,-0.043
30.77,-0.509,0.602,-0.184
30.78,-0.076,1.706,0.204
30.79,-0.078,0.871,0.097
30.8,-0.147,0.93,-0.066
30.81,-0.407,0.183,-0.2
30.82,-0.191,1.73,0.149
30.83,-0.125,0.897,0.122
30.84,-0.133,0.794,-0.085
30.85,-0.451,0.548,-0.206
30.86,-0.066,1.371,0.163
30.87,-0.255,1.244,0.059
30.88,-0.065,0.656,-0.116
30.89,-0.455,0.818,-0.182
30.9,-0.04,1.016,0.22
30.91,-0.317,1.359,0.073
30.92,-0.048,0.44,-0.091
30.93,-0.527,0.888,-0.16
30.94,-0.015,1.161,0.138
30.95,-0.208,1.057,0.038
30.96,-0.276,0.828,-0.114
30.97,-0.442,0.361,-0.055
30.98,-0.24,1.392,0.207
30.99,-0.138,0.753,0.007
31.0,-0.285,1.006,-0.082
31.01,-0.406,0.379,-0.138
31.02,-0.12,1.304,0.155
31.03,-0.194,0.996,-0.014
31.04,-0.193,0.559,-0.116
31.05,-0.484,0.981,-0.093
31.06,0.024,0.969,0.149
31.07,-0.321,1.263,0.009
31.08,-0.137,0.441,-0.158
31.09,-0.436,1.003,-0.103
31.1,-0.082,0.968,0.144
31.11,-0.29,1.048,0.014
31.12,-0.189,0.721,-0.117
31.13,-0.348,0.783,-0.047
31.14,-0.068,1.29,0.153
31.15,-0.206,0.667,0.044
31.16,-0.403,1.021,-0.089
31.17,-0.368,0.704,-0.019
31.18,-0.175,1.168,0.156
31.19,-0.216,0.967,0.044
31.2,-0.327,0.581,-0.176
31.21,-0.304,1.285,-0.038
31.22,-0.057,0.789,0.147
31.23,-0.304,1.26,0.064
31.24,-0.171,0.319,-0.093
31.25,-0.36,1.561,-0.06
31.26,-0.024,0.854,0.17
31.27,-0.204,1.006,0.012
31.28,-0.398,0.704,-0.177
31.29,-0.233,1.035,-0.025
31.3,-0.193,1.187,0.113
31.31,-0.125,0.683,0.03
31.32,-0.378,0.985,-0.178
31.33,-0.165,1.14,-0.085
31.34,-0.075,1.169,0.08
31.35,-0.127,0.807,-0.04
31.36,-0.308,0.708,-0.205
31.37,-0.214,1.632,-0.075
31.38,-0.072,0.746,0.111
31.39,-0.19,1.174,0.033
31.4,-0.351,0.361,-0.19
31.41,-0.26,1.706,0.011
31.42,-0.149,0.738,0.14
31.43,-0.142,1.054,0.011
31.44,-0.362,0.659,-0.185
31.45,-0.193,1.379,0.014
31.46,-0.108,1.191,0.151
31.47,-0.045,0.534,0.018
31.48,-0.429,1.096,-0.204
31.49,-0.12,1.297,-0.001
31.5,-0.206,1.033,0.126
31.51,-0.066,0.75,0.039
31.52,-0.396,0.75,-0.259
31.53,-0.179,1.721,0.057
31.54,-0.065,0.709,0.111
31.55,-0.119,1.025,0.044
31.56,-0.381,0.373,-0.216
31.57,-0.203,2.0,0.081
31.58,-0.128,0.748,0.175
31.59,-0.079,0.831,0.052
31.6,-0.415,0.676,-0.184
31.61,-0.186,1.605,0.114
31.62,-0.208,1.056,0.173
31.63,0.013,0.467,0.023
31.64,-0.593,1.048,-0.204
31.65,0.015,1.516,0.103
31.66,-0.213,1.027,0.098
31.67,0.043,0.614,0.058
31.68,-0.462,0.971,-0.217
31.69,-0.052,1.666,0.096
31.7,-0.107,0.971,0.092
31.71,0.013,0.728,-0.026
31.72,-0.406,0.457,-0.201
31.73,-0.086,1.958,0.121
31.74,-0.058,0.66,0.145
31.75,-0.163,0.894,-0.019
31.76,-0.351,0.323,-0.205
31.77,-0.119,1.887,0.155
31.78,-0.072,0.92,0.098
31.79,-0.074,0.515,-0.058
31.8,-0.47,0.864,-0.223
31.81,-0.011,1.393,0.133
31.82,-0.167,1.333,0.105
31.83,0.046,0.409,-0.027
31.84,-0.55,0.933,-0.182
31.85,0.01,1.485,0.158
31.86,-0.126,1.088,0.087
31.87,-0.04,0.778,-0.085
31.88,-0.457,0.389,-0.156
31.89,-0.175,1.774,0.191
31.9,-0.106,0.805,0.103
31.91,-0.121,0.997,-0.053
31.92,-0.392,0.234,-0.181
31.93,-0.145,1.625,0.172
31.94,-0.189,0.961,0.089
31.95,-0.13,0.697,-0.066
31.96,-0.42,0.746,-0.152
31.97,-0.077,1.222,0.233
31.98,-0.346,1.335,0.108
31.99,0.069,0.497,-0.084
32.0,-0.522,0.886,-0.173
32.01,0.02,1.257,0.195
32.02,-0.276,1.124,0.028
32.03,-0.089,0.839,-0.063
32.04,-0.469,0.375,-0.133
32.05,-0.208,1.443,0.247
32.06,-0.096,0.805,0.049
32.07,-0.249,1.019,-0.117
32.08,-0.366,0.264,-0.128
32.09,-0.186,1.37,0.212
32.1,-0.154,0.989,-0.04
32.11,-0.136,0.698,-0.109
32.12,-0.45,0.772,-0.154
32.13,-0.009,1.012,0.204
32.14,-0.261,1.321,-0.021
32.15,-0.043,0.431,-0.124
32.16,-0.493,0.904,-0.123
32.17,-0.06,0.984,0.176
32.18,-0.127,1.187,-0.052
32.19,-0.22,0.681,-0.162
32.2,-0.425,0.526,-0.101
32.21,-0.113,1.331,0.178
32.22,-0.218,0.737,0.034
32.23,-0.259,0.937,-0.097
32.24,-0.39,0.642,-0.038
32.25,-0.142,1.31,0.222
32.26,-0.262,0.835,0.027
32.27,-0.318,0.677,-0.147
32.28,-0.277,1.22,-0.112
32.29,-0.0,0.916,0.15
32.3,-0.23,1.253,0.027
32.31,-0.26,0.363,-0.162
32.32,-0.32,1.336,-0.086
32.33,-0.036,0.825,0.13
32.34,-0.199,1.126,-0.015
32.35,-0.306,0.558,-0.158
32.36,-0.138,1.17,-0.092
32.37,-0.095,1.178,0.137
32.38,-0.057,0.692,0.002
32.39,-0.394,0.996,-0.229
32.4,-0.136,1.064,-0.099
32.41,-0.179,1.166,0.128
32.42,-0.135,0.792,0.045
32.43,-0.39,0.833,-0.113
32.44,-0.343,1.578,0.023
32.45,-0.095,0.711,0.167
32.46,-0.241,1.177,0.045
32.47,-0.276,0.33,-0.194
32.48,-0.387,1.96,0.077
32.49,-0.046,0.669,0.13
32.5,-0.121,1.038,0.063
32.51,-0.371,0.409,-0.176
32.52,-0.262,1.927,0.134
32.53,-0.166,0.828,0.122
32.54,-0.054,0.626,0.044
32.55,-0.457,0.878,-0.161
32.56,-0.127,1.506,0.14
32.57,-0.153,1.098,0.103
32.58,0.048,0.439,0.025
32.59,-0.409,1.007,-0.186
32.6,-0.031,1.69,0.071
32.61,-0.113,0.979,0.148
32.62,0.006,0.68,-0.077
32.63,-0.386,0.483,-0.2
32.64,-0.065,2.0,0.062
32.65,-0.067,0.62,0.1
32.66,-0.081,0.875,-0.015
32.67,-0.397,0.35,-0.212
32.68,-0.073,1.985,0.1
32.69,-0.108,0.86,0.052
32.7,-0.082,0.523,-0.052
32.71,-0.429,0.818,-0.225
32.72,-0.052,1.442,0.185
32.73,-0.194,1.255,0.104
32.74,0.023,0.354,-0.02
32.75,-0.534,0.961,-0.183
32.76,-0.018,1.471,0.224
32.77,-0.196,1.144,0.11
32.78,-0.037,0.708,-0.033
32.79,-0.468,0.457,-0.132
32.8,-0.183,1.701,0.211
32.81,-0.125,0.802,0.126
32.82,-0.17,1.022,-0.076
32.83,-0.349,0.175,-0.167
32.84,-0.123,1.677,0.164
32.85,-0.166,0.977,0.069
32.86,-0.102,0.748,-0.071
32.87,-0.425,0.68,-0.234
32.88,-0.044,1.223,0.201
32.89,-0.235,1.393,0.042
32.9,-0.001,0.428,-0.122
32.91,-0.464,0.942,-0.131
32.92,0.004,1.165,0.197
32.93,-0.247,1.203,0.082
32.94,-0.09,0.744,-0.116
32.95,-0.437,0.454,-0.159
32.96,-0.11,1.441,0.172
32.97,-0.078,0.839,0.012
32.98,-0.277,0.97,-0.117
32.99,-0.404,0.308,-0.113
33.0,-0.159,1.32,0.167
33.01,-0.19,0.941,-0.022
33.02,-0.157,0.75,-0.128
33.03,-0.457,0.785,-0.178
33.04,0.03,1.002,0.162
33.05,-0.31,1.324,0.011
33.06,-0.188,0.341,-0.14
33.07,-0.504,1.056,-0.023
33.08,-0.081,0.881,0.181
33.09,-0.259,1.22,0.034
33.1,-0.244,0.579,-0.138
33.11,-0.313,0.82,-0.056
33.12,-0.088,1.215,0.158
33.13,-0.119,0.736,0.033
33.14,-0.414,0.971,-0.153
33.15,-0.321,0.698,-0.04
33.16,-0.211,1.25,0.173
33.17,-0.181,0.872,0.045
33.18,-0.435,0.648,-0.105
33.19,-0.182,1.318,-0.072
33.2,-0.186,0.841,0.129
33.21,-0.246,1.212,0.048
33.22,-0.239,0.352,-0.143
33.23,-0.373,1.687,-0.048
33.24,-0.0,0.763,0.166
33.25,-0.268,1.112,0.016
33.26,-0.322,0.632,-0.197
33.27,-0.247,1.357,0.002
33.28,-0.189,1.088,0.126
33.29,-0.13,0.694,0.023
33.3,-0.438,0.872,-0.196
33.31,-0.235,1.434,0.109
33.32,-0.209,1.109,0.104
33.33,-0.035,0.479,0.075
33.34,-0.533,0.947,-0.124
33.35,-0.097,1.682,0.101
33.36,-0.24,0.912,0.134
33.37,-0.052,0.729,0.034
33.38,-0.457,0.563,-0.186
33.39,-0.16,2.0,0.131
33.4,-0.07,0.624,0.124
33.41,-0.132,0.946,0.019
33.42,-0.377,0.333,-0.226
33.43,-0.08,2.0,0.068
33.44,-0.082,0.777,0.08
33.45,-0.028,0.602,-0.006
33.46,-0.356,0.82,-0.227
33.47,-0.031,1.597,0.138
33.48,-0.189,1.268,0.139
33.49,0.016,0.28,-0.011
33.5,-0.492,1.0,-0.189
33.51,0.014,1.588,0.15
33.52,-0.215,1.044,0.094
33.53,0.006,0.644,-0.069
33.54,-0.531,0.462,-0.154
33.55,-0.113,1.78,0.186
33.56,-0.069,0.739,0.038
33.57,-0.113,0.951,-0.053
33.58,-0.42,0.213,-0.136
33.59,-0.158,1.771,0.183
33.6,-0.129,0.94,0.072
33.61,-0.1,0.706,-0.081
33.62,-0.445,0.682,-0.188
33.63,-0.044,1.413,0.193
33.64,-0.235,1.231,0.064
33.65,-0.018,0.458,-0.071
33.66,-0.437,0.94,-0.159
33.67,-0.103,1.195,0.19
33.68,-0.299,1.25,0.094
33.69,-0.148,0.692,-0.073
33.7,-0.384,0.462,-0.087
33.71,-0.216,1.493,0.196
33.72,-0.093,0.825,0.045
33.73,-0.247,1.126,-0.124
33.74,-0.391,0.173,-0.12
33.75,-0.215,1.418,0.241
33.76,-0.187,0.99,-0.023
33.77,-0.252,0.633,-0.103
33.78,-0.377,0.784,-0.144
33.79,-0.079,1.012,0.146
33.8,-0.315,1.214,0.03
33.81,-0.127,0.443,-0.097
33.82,-0.511,1.0,-0.073
33.83,-0.062,0.911,0.157
33.84,-0.285,1.2,0.008
33.85,-0.231,0.65,-0.164
33.86,-0.51,0.631,-0.027
33.87,-0.117,1.239,0.184
33.88,-0.223,0.81,0.095
33.89,-0.29,0.955,-0.127
33.9,-0.286,0.642,-0.056
33.91,-0.106,1.278,0.123
33.92,-0.158,0.87,0.015
33.93,-0.327,0.73,-0.17
33.94,-0.216,1.241,-0.131
33.95,0.047,0.902,0.111
33.96,-0.173,1.223,-0.024
33.97,-0.229,0.386,-0.265
33.98,-0.264,1.573,-0.089
33.99,0.045,0.775,0.059
34.0,-0.259,1.158,0.021
34.01,-0.211,0.562,-0.243
34.02,-0.259,1.412,-0.058
34.03,-0.057,1.086,0.089
34.04,-0.123,0.624,0.014
34.05,-0.39,1.061,-0.17
34.06,-0.27,1.299,0.049
34.07,-0.198,1.071,0.176
34.08,-0.085,0.687,0.051
34.09,-0.441,0.855,-0.19
34.1,-0.073,1.58,0.119
34.11,-0.191,0.975,0.113
34.12,0.013,0.691,-0.003
34.13,-0.437,0.572,-0.2
34.14,-0.085,2.0,0.117
34.15,0.018,0.604,0.062
34.16,-0.076,0.957,-0.001
34.17,-0.301,0.342,-0.183
34.18,-0.106,2.0,0.099
34.19,-0.115,0.794,0.1
34.2,-0.085,0.579,-0.008
34.21,-0.445,0.8,-0.207
34.22,-0.059,1.614,0.13
34.23,-0.216,1.226,0.1
34.24,0.036,0.29,-0.001
34.25,-0.468,0.966,-0.171
34.26,-0.069,1.407,0.181
34.27,-0.148,1.11,0.086
34.28,-0.087,0.594,-0.024
34.29,-0.415,0.523,-0.155
34.3,-0.146,1.888,0.204
34.31,-0.08,0.751,0.098
34.32,-0.158,0.927,-0.075
34.33,-0.366,0.273,-0.169
34.34,-0.2,1.757,0.193
34.35,-0.151,0.909,0.102
34.36,-0.11,0.653,-0.085
34.37,-0.372,0.668,-0.205
34.38,-0.039,1.279,0.167
34.39,-0.248,1.305,0.024
34.4,-0.037,0.486,-0.103
34.41,-0.464,0.851,-0.156
34.42,0.038,1.262,0.183
34.43,-0.257,1.328,0.043
34.44,-0.02,0.705,-0.091
34.45,-0.468,0.482,-0.151
34.46,-0.14,1.489,0.193
34.47,-0.127,0.896,0.029
34.48,-0.2,1.027,-0.1
34.49,-0.397,0.204,-0.162
34.5,-0.147,1.449,0.179
34.51,-0.141,0.931,0.001
34.52,-0.282,0.742,-0.108
34.53,-0.318,0.63,-0.161
34.54,-0.052,1.04,0.201
34.55,-0.281,1.431,-0.051
34.56,-0.092,0.268,-0.114
34.57,-0.461,1.022,-0.102
34.58,-0.004,0.903,0.128
34.59,-0.255,1.257,-0.011
34.6,-0.211,0.647,-0.157
34.61,-0.39,0.782,-0.049
34.62,-0.121,1.17,0.133
34.63,-0.106,0.782,0.021
34.64,-0.374,0.919,-0.164
34.65,-0.197,0.767,-0.02
34.66,-0.212,1.189,0.182
34.67,-0.198,0.814,0.034
34.68,-0.374,0.755,-0.12
34.69,-0.176,1.4,-0.093
34.7,0.004,0.896,0.163
34.71,-0.254,1.116,0.04
34.72,-0.303,0.434,-0.264
34.73,-0.214,1.755,-0.065
34.74,-0.059,0.701,0.099
34.75,-0.191,1.107,0.019
34.76,-0.264,0.593,-0.24
34.77,-0.298,1.481,0.019
34.78,-0.164,0.999,0.128
34.79,0.012,0.632,0.017
34.8,-0.466,0.957,-0.194
34.81,-0.129,1.317,0.081
34.82,-0.178,1.228,0.222
34.83,-0.076,0.523,0.067
34.84,-0.477,0.918,-0.185
34.85,-0.202,1.71,0.064
34.86,-0.146,0.705,0.112
34.87,-0.118,1.014,0.028
34.88,-0.387,0.428,-0.21
34.89,-0.234,2.0,0.087
34.9,-0.008,0.656,0.176
34.91,-0.106,0.93,0.007
34.92,-0.348,0.295,-0.146
34.93,-0.137,2.0,0.066
34.94,-0.057,0.818,0.099
34.95,-0.081,0.631,-0.044
34.96,-0.388,0.726,-0.239
34.97,0.035,1.694,0.143
34.98,-0.127,1.19,0.083
34.99,0.083,0.245,-0.031
35.0,-0.48,1.028,-0.196
35.01,-0.067,1.444,0.122
35.02,-0.174,1.127,0.124
35.03,-0.026,0.639,-0.054
35.04,-0.481,0.515,-0.141
35.05,-0.096,1.785,0.171
35.06,-0.131,0.778,0.137
35.07,-0.111,0.997,-0.03
35.08,-0.415,0.204,-0.137
35.09,-0.182,1.694,0.189
35.1,-0.121,0.884,0.105
35.11,-0.084,0.771,-0.066
35.12,-0.501,0.564,-0.172
35.13,0.022,1.369,0.172
35.14,-0.341,1.297,0.087
35.15,0.009,0.46,-0.043
35.16,-0.518,0.903,-0.151
35.17,-0.007,1.217,0.215
35.18,-0.25,1.304,0.073
35.19,-0.116,0.646,-0.09
35.2,-0.428,0.533,-0.126
35.21,-0.166,1.474,0.174
35.22,-0.109,0.843,0.058
35.23,-0.214,1.071,-0.11
35.24,-0.386,0.192,-0.132
35.25,-0.209,1.434,0.224
35.26,-0.162,0.937,0.041
35.27,-0.187,0.8,-0.079
35.28,-0.408,0.619,-0.13
35.29,-0.097,1.017,0.211
35.3,-0.266,1.283,-0.021
35.31,-0.052,0.429,-0.09
35.32,-0.515,0.978,-0.113
35.33,-0.007,0.9,0.164
35.34,-0.3,1.241,-0.018
35.35,-0.176,0.562,-0.15
35.36,-0.437,0.695,-0.07
35.37,-0.105,1.189,0.176
35.38,-0.186,0.763,0.03
35.39,-0.366,0.951,-0.139
35.4,-0.331,0.432,-0.047
35.41,-0.194,1.298,0.13
35.42,-0.24,0.845,0.046
35.43,-0.32,0.733,-0.13
35.44,-0.322,1.047,-0.042
35.45,-0.323,0.945,-0.145
35.46,-0.235,0.945,-0.061
35.47,-0.075,1.132,0.169
35.48,-0.176,0.949,0.015
35.49,-0.345,0.609,-0.143
35.5,-0.281,1.456,-0.056
35.51,-0.117,0.722,0.195
35.52,-0.275,1.243,0.038
35.53,-0.307,0.352,-0.17
35.54,-0.216,1.663,-0.049
35.55,-0.105,0.76,0.144
35.56,-0.125,0.953,0.029
35.57,-0.346,0.796,-0.236
35.58,-0.197,1.362,-0.023
35.59,-0.132,1.105,0.145
35.6,-0.04,0.548,0.004
35.61,-0.507,0.968,-0.18
35.62,-0.144,1.416,0.09
35.63,-0.21,1.079,0.135
35.64,0.044,0.477,0.049
35.65,-0.584,0.991,-0.189
35.66,-0.075,1.728,0.096
35.67,-0.192,0.796,0.117
35.68,-0.044,0.827,0.019
35.69,-0.43,0.437,-0.175
35.7,-0.164,2.0,0.141
35.71,-0.134,0.566,0.16
35.72,-0.027,0.886,-0.001
35.73,-0.512,0.411,-0.174
35.74,-0.013,1.917,0.103
35.75,-0.199,0.882,0.162
35.76,0.067,0.48,-0.057
35.77,-0.514,0.866,-0.216
35.78,0.073,1.627,0.162
35.79,-0.177,1.277,0.1
35.8,0.065,0.282,-0.033
35.81,-0.474,0.929,-0.199
35.82,-0.018,1.699,0.096
35.83,-0.118,1.026,0.187
35.84,-0.113,0.71,-0.033
35.85,-0.431,0.338,-0.137
35.86,-0.093,2.0,0.162
35.87,-0.042,0.772,0.071
35.88,-0.078,0.953,-0.072
35.89,-0.336,0.347,-0.256
35.9,-0.086,1.898,0.173
35.91,-0.045,1.032,0.034
35.92,-0.087,0.441,-0.109
35.93,-0.378,0.821,-0.229
35.94,-0.12,1.294,0.167
35.95,-0.239,1.344,0.12
35.96,-0.001,0.559,-0.027
35.97,-0.5,0.803,-0.151
35.98,-0.055,1.367,0.17
35.99,-0.207,1.211,0.081
36.0,-0.095,0.864,-0.095
36.01,-0.422,0.344,-0.098
36.02,-0.231,1.482,0.218
36.03,-0.088,0.815,0.033
36.04,-0.184,1.109,-0.1
36.05,-0.362,0.285,-0.09
36.06,-0.168,1.295,0.21
36.07,-0.188,1.048,-0.05
36.08,-0.165,0.647,-0.123
36.09,-0.356,0.863,-0.108
36.1,-0.063,0.901,0.2
36.11,-0.334,1.385,0.011
36.12,-0.085,0.331,-0.176
36.13,-0.411,1.109,-0.058
36.14,-0.022,0.885,0.128
36.15,-0.346,1.099,-0.001
36.16,-0.265,0.664,-0.15
36.17,-0.374,0.703,-0.011
36.18,-0.134,1.224,0.124
36.19,-0.171,0.775,-0.013
36.2,-0.402,0.905,-0.162
36.21,-0.171,0.825,-0.024
36.22,-0.13,1.146,0.108
36.23,-0.226,0.948,-0.006
36.24,-0.363,0.607,-0.201
36.25,-0.156,1.56,-0.008
36.26,-0.022,0.725,0.074
36.27,-0.25,1.15,0.0
36.28,-0.319,0.376,-0.234
36.29,-0.249,1.781,0.024
36.3,-0.099,0.697,0.145
36.31,-0.145,0.889,0.004
36.32,-0.457,0.655,-0.252
36.33,-0.143,1.509,0.06
36.34,-0.232,0.976,0.109
36.35,-0.0,0.554,0.06
36.36,-0.617,1.014,-0.145
36.37,-0.09,1.497,0.133
36.38,-0.227,1.087,0.178
36.39,-0.095,0.588,0.036
36.4,-0.489,0.726,-0.109
36.41,-0.083,1.723,0.141
36.42,0.038,0.919,0.058
36.43,-0.068,0.733,-0.055
36.44,-0.45,0.303,-0.146
36.45,-0.157,2.0,0.14
36.46,0.01,0.703,0.021
36.47,-0.089,0.847,-0.085
36.48,-0.341,0.272,-0.167
36.49,-0.124,1.797,0.116
36.5,-0.154,1.016,0.11
36.51,-0.088,0.631,-0.023
36.52,-0.455,0.734,-0.149
36.53,-0.066,1.297,0.172
36.54,-0.32,1.38,0.113
36.55,0.003,0.498,-0.058
36.56,-0.37,0.889,-0.152
36.57,-0.108,1.22,0.156
36.58,-0.211,1.136,0.106
36.59,-0.131,0.889,-0.153
36.6,-0.406,0.354,-0.035
36.61,-0.222,1.443,0.176
36.62,-0.128,0.818,0.047
36.63,-0.21,1.054,-0.101
36.64,-0.446,0.344,-0.083
36.65,-0.155,1.25,0.239
36.66,-0.152,1.002,-0.141
36.67,-0.194,0.575,-0.135
36.68,-0.376,1.031,-0.035
36.69,-0.068,0.833,0.168
36.7,-0.402,1.322,-0.002
36.71,-0.167,0.343,-0.159
36.72,-0.372,1.189,-0.037
36.73,-0.089,0.865,0.151
36.74,-0.25,1.13,0.001
36.75,-0.409,0.66,-0.178
36.76,-0.223,0.916,0.054
36.77,-0.229,1.16,0.168
36.78,-0.162,0.72,0.013
36.79,-0.417,0.955,-0.167
36.8,-0.164,1.178,0.054
36.81,-0.152,1.099,0.156
36.82,-0.17,0.767,0.007
36.83,-0.454,0.698,-0.218
36.84,-0.206,1.742,0.068
36.85,-0.091,0.683,0.16
36.86,-0.262,1.029,0.019
36.87,-0.398,0.33,-0.207
36.88,-0.27,2.0,0.084
36.89,-0.142,0.6,0.173
36.9,-0.123,0.799,0.005
36.91,-0.491,0.646,-0.218
36.92,-0.083,1.713,0.097
36.93,-0.197,1.01,0.135
36.94,0.064,0.441,0.003
36.95,-0.575,0.956,-0.16
36.96,0.022,1.62,0.143
36.97,-0.105,1.175,0.091
36.98,0.037,0.458,-0.013
36.99,-0.464,0.672,-0.184
37.0,-0.13,1.816,0.181
37.01,-0.055,0.768,0.14
37.02,-0.126,0.908,-0.05
37.03,-0.324,0.14,-0.192
37.04,-0.159,1.893,0.146
37.05,-0.004,0.9,0.065
37.06,-0.097,0.821,-0.056
37.07,-0.355,0.476,-0.214
37.08,-0.136,1.469,0.168
37.09,-0.203,1.284,0.088
37.1,-0.017,0.557,-0.113
37.11,-0.558,0.889,-0.1
37.12,-0.063,1.173,0.27
37.13,-0.315,1.403,0.116
37.14,-0.037,0.636,-0.103
37.15,-0.409,0.631,-0.06
37.16,-0.128,1.319,0.171
37.17,-0.114,0.959,0.02
37.18,-0.22,1.032,-0.104
37.19,-0.333,0.267,-0.068
37.2,-0.23,1.344,0.182
37.21,-0.148,0.849,-0.073
37.22,-0.372,0.982,-0.106
37.23,-0.256,0.687,-0.01
37.24,-0.154,1.121,0.174
37.25,-0.234,1.041,-0.007
37.26,-0.35,0.578,-0.163
37.27,-0.213,1.502,-0.008
37.28,-0.043,0.768,0.133
37.29,-0.309,1.162,0.053
37.3,-0.344,0.376,-0.183
37.31,-0.298,1.768,0.021
37.32,-0.108,0.753,0.125
37.33,-0.187,0.915,-0.055
37.34,-0.409,0.671,-0.226
37.35,-0.133,1.576,0.032
37.36,-0.131,1.089,0.121
37.37,-0.001,0.433,0.029
37.38,-0.511,1.02,-0.155
37.39,-0.089,1.611,0.068
37.4,-0.174,1.091,0.097
37.41,-0.027,0.584,-0.01
37.42,-0.445,0.635,-0.173
37.43,-0.086,1.956,0.127
37.44,-0.076,0.68,0.11
37.45,-0.141,0.859,-0.025
37.46,-0.396,0.243,-0.131
37.47,-0.196,2.0,0.121
37.48,-0.075,0.689,0.124
37.49,-0.097,0.717,-0.061
37.5,-0.458,0.488,-0.192
37.51,-0.06,1.63,0.128
37.52,-0.137,1.238,0.081
37.53,0.065,0.351,-0.033
37.54,-0.531,0.925,-0.172
37.55,0.002,1.312,0.176
37.56,-0.344,1.295,0.124
37.57,0.037,0.749,-0.068
37.58,-0.443,0.53,-0.123
37.59,-0.148,1.467,0.152
37.6,-0.104,0.976,-0.015
37.61,-0.146,1.031,-0.131
37.62,-0.415,0.224,-0.103
37.63,-0.201,1.436,0.189
37.64,-0.273,0.857,0.016
37.65,-0.162,0.899,-0.087
37.66,-0.417,0.562,-0.129
37.67,-0.004,1.042,0.149
37.68,-0.394,1.258,-0.024
37.69,-0.11,0.397,-0.133
37.7,-0.415,1.082,-0.066
37.71,-0.033,0.785,0.173
37.72,-0.431,1.322,0.07
37.73,-0.198,0.448,-0.17
37.74,-0.321,1.064,-0.009
37.75,-0.111,0.998,0.16
37.76,-0.288,0.803,-0.017
37.77,-0.37,0.925,-0.149
37.78,-0.19,0.981,-0.033
37.79,-0.132,1.18,0.172
37.8,-0.151,0.748,0.009
37.81,-0.488,0.89,-0.199
37.82,-0.149,1.4,0.018
37.83,-0.17,0.858,0.146
37.84,-0.174,1.0,-0.022
37.85,-0.389,0.45,-0.217
37.86,-0.225,2.0,0.079
37.87,-0.079,0.632,0.176
37.88,-0.193,0.944,0.032
37.89,-0.481,0.385,-0.19
37.9,-0.135,1.967,0.135
37.91,-0.144,0.899,0.121
37.92,-0.05,0.459,-0.014
37.93,-0.557,0.951,-0.185
37.94,0.029,1.687,0.135
37.95,-0.242,1.137,0.132
37.96,0.041,0.353,-0.009
37.97,-0.461,0.93,-0.206
37.98,-0.09,1.677,0.13
37.99,0.01,0.913,0.076
38.0,0.006,0.763,-0.1
38.01,-0.395,0.333,-0.21
38.02,-0.187,1.619,0.131
38.03,-0.218,0.877,0.081
38.04,-0.105,1.135,-0.068
38.05,-0.348,0.146,-0.142
38.06,-0.162,1.641,0.243
38.07,-0.053,0.959,0.018
38.08,-0.094,0.944,-0.13
38.09,-0.46,0.507,-0.133
38.1,-0.105,1.098,0.206
38.11,-0.37,1.342,0.056
38.12,-0.072,0.465,-0.091
38.13,-0.42,0.955,-0.091
38.14,-0.094,0.811,0.137
38.15,-0.299,1.369,-0.057
38.16,-0.167,0.485,-0.123
38.17,-0.375,0.796,-0.006
38.18,-0.091,1.114,0.128
38.19,-0.235,0.866,0.035
38.2,-0.35,0.918,-0.158
38.21,-0.262,0.65,0.008
38.22,-0.189,1.19,0.152
38.23,-0.226,0.809,-0.016
38.24,-0.398,0.773,-0.178
38.25,-0.119,1.33,-0.007
38.26,-0.066,0.851,0.075
38.27,-0.18,1.068,-0.004
38.28,-0.353,0.403,-0.223
38.29,-0.218,1.928,0.075
38.3,-0.045,0.657,0.139
38.31,-0.225,0.987,0.028
38.32,-0.504,0.463,-0.213
38.33,-0.264,1.865,0.113
38.34,-0.153,0.847,0.118
38.35,-0.05,0.559,-0.021
38.36,-0.534,0.973,-0.137
38.37,-0.068,1.564,0.095
38.38,-0.131,1.151,0.126
38.39,0.031,0.425,-0.021
38.4,-0.516,0.833,-0.158
38.41,-0.059,1.749,0.079
38.42,-0.083,1.009,0.124
38.43,-0.042,0.753,-0.055
38.44,-0.416,0.279,-0.145
38.45,-0.144,2.0,0.146
38.46,-0.052,0.742,0.132
38.47,-0.145,0.838,-0.015
38.48,-0.322,0.249,-0.168
38.49,-0.169,1.699,0.225
38.5,-0.148,1.069,0.095
38.51,-0.023,0.682,-0.053
38.52,-0.344,0.756,-0.155
38.53,-0.124,1.144,0.196
38.54,-0.323,1.417,0.029
38.55,0.009,0.522,-0.114
38.56,-0.382,0.802,-0.14
38.57,-0.023,1.126,0.122
38.58,-0.148,1.151,-0.094
38.59,-0.146,0.85,-0.122
38.6,-0.395,0.33,-0.073
38.61,-0.123,1.355,0.154
38.62,-0.185,0.834,-0.018
38.63,-0.275,0.954,-0.109
38.64,-0.353,0.488,-0.071
38.65,-0.152,1.197,0.178
38.66,-0.259,1.062,-0.015
38.67,-0.224,0.544,-0.137
38.68,-0.28,1.388,-0.02
38.69,0.002,0.783,0.149
38.7,-0.3,1.251,0.006
38.71,-0.31,0.393,-0.155
38.72,-0.23,1.523,-0.059
38.73,-0.161,0.775,0.11
38.74,-0.141,1.013,-0.027
38.75,-0.432,0.732,-0.169
38.76,-0.185,1.193,0.028
38.77,-0.194,1.118,0.12
38.78,-0.008,0.649,-0.014
38.79,-0.518,0.954,-0.21
38.8,0.002,1.398,0.027
38.81,-0.199,1.013,0.121
38.82,-0.069,0.667,0.04
38.83,-0.557,0.907,-0.096
38.84,-0.03,1.821,0.109
38.85,-0.148,0.866,0.148
38.86,-0.052,0.743,-0.043
38.87,-0.46,0.333,-0.176
38.88,-0.132,2.0,0.162
38.89,0.02,0.672,0.108
38.9,-0.132,0.82,-0.055
38.91,-0.316,0.32,-0.168
38.92,-0.178,1.751,0.136
38.93,-0.079,1.046,0.124
38.94,-0.098,0.5,-0.033
38.95,-0.427,0.824,-0.203
38.96,-0.102,1.407,0.151
38.97,-0.174,1.412,0.104
38.98,-0.025,0.483,-0.028
38.99,-0.463,0.804,-0.157
39.0,-0.109,1.326,0.187
39.01,-0.191,1.087,0.07
39.02,-0.111,0.988,-0.12
39.03,-0.388,0.237,-0.106
39.04,-0.156,1.482,0.176
39.05,-0.151,0.847,0.028
39.06,-0.186,1.047,-0.131
39.07,-0.444,0.311,-0.136
39.08,-0.075,1.24,0.216
39.09,-0.312,1.143,-0.038
39.1,-0.106,0.554,-0.124
39.11,-0.451,0.938,-0.072
39.12,0.036,0.855,0.2
39.13,-0.399,1.375,-0.025
39.14,-0.104,0.363,-0.131
39.15,-0.425,1.115,-0.034
39.16,0.007,0.902,0.155
39.17,-0.319,1.097,-0.014
39.18,-0.363,0.725,-0.178
39.19,-0.258,0.772,-0.04
39.2,-0.198,1.207,0.17
39.21,-0.094,0.76,-0.01
39.22,-0.411,0.952,-0.238
39.23,-0.101,1.164,-0.047
39.24,-0.082,1.095,0.072
39.25,-0.151,0.847,-0.006
39.26,-0.404,0.626,-0.213
39.27,-0.24,1.866,0.061
39.28,-0.101,0.629,0.142
39.29,-0.182,1.059,0.047
39.3,-0.352,0.356,-0.223
39.31,-0.294,1.972,0.129
39.32,-0.113,0.682,0.078
39.33,-0.125,0.801,-0.003
39.34,-0.396,0.732,-0.213
39.35,-0.183,1.594,0.112
39.36,-0.154,1.081,0.145
39.37,0.067,0.426,-0.04
39.38,-0.487,1.02,-0.196
39.39,-0.036,1.583,0.058
39.4,-0.197,1.112,0.192
39.41,0.011,0.548,-0.035
39.42,-0.507,0.612,-0.143
39.43,-0.102,1.979,0.133
39.44,-0.044,0.774,0.121
39.45,-0.125,0.839,-0.026
39.46,-0.412,0.251,-0.157
39.47,-0.193,2.0,0.129
39.48,-0.109,0.782,0.126
39.49,-0.091,0.703,-0.019
39.5,-0.477,0.575,-0.151
39.51,-0.085,1.55,0.156
39.52,-0.186,1.241,0.097
39.53,0.032,0.335,-0.038
39.54,-0.477,0.987,-0.176
39.55,-0.054,1.277,0.171
39.56,-0.329,1.288,0.143
39.57,-0.072,0.611,-0.05
39.58,-0.459,0.534,-0.119
39.59,-0.16,1.49,0.16
39.6,-0.184,0.897,0.074
39.61,-0.254,0.997,-0.094
39.62,-0.355,0.115,-0.146
39.63,-0.18,1.371,0.209
39.64,-0.155,0.82,0.0
39.65,-0.249,0.955,-0.149
39.66,-0.418,0.374,-0.119
39.67,-0.075,1.183,0.139
39.68,-0.229,1.104,-0.034
39.69,-0.199,0.575,-0.179
39.7,-0.459,0.979,-0.11
39.71,0.048,0.845,0.173
39.72,-0.262,1.397,-0.001
39.73,-0.231,0.228,-0.162
39.74,-0.301,1.216,-0.097
39.75,-0.054,0.893,0.086
39.76,-0.192,1.042,-0.023
39.77,-0.276,0.608,-0.18
39.78,-0.143,1.044,-0.138
39.79,-0.13,1.286,0.139
39.8,-0.093,0.655,0.009
39.81,-0.38,1.049,-0.147
39.82,-0.251,1.018,-0.053
39.83,-0.171,1.008,0.131
39.84,-0.17,0.987,-0.065
39.85,-0.281,0.632,-0.254
39.86,-0.233,1.66,-0.033
39.87,-0.02,0.686,0.117
39.88,-0.19,1.196,0.065
39.89,-0.303,0.332,-0.155
39.9,-0.249,1.966,0.047
39.91,-0.003,0.769,0.098
39.92,-0.119,0.795,0.002
39.93,-0.449,0.72,-0.216
39.94,-0.209,1.478,0.105
39.95,-0.265,0.97,0.107
39.96,0.068,0.57,0.028
39.97,-0.465,1.049,-0.232
39.98,-0.074,1.439,0.072
39.99,-0.112,1.053,0.087
40.0,0.038,0.617,0.019
40.01,-0.434,0.67,-0.138
40.02,-0.065,2.0,0.064
40.03,-0.09,0.62,0.146
40.04,-0.013,0.903,-0.038
40.05,-0.346,0.318,-0.191
40.06,-0.066,2.0,0.076
40.07,-0.084,0.629,0.128
40.08,-0.113,0.706,-0.004
40.09,-0.304,0.648,-0.224
40.1,-0.043,1.74,0.103
40.11,-0.112,1.145,0.102
40.12,0.002,0.287,-0.041
40.13,-0.429,1.032,-0.189
40.14,-0.005,1.57,0.159
40.15,-0.167,1.181,0.081
40.16,-0.063,0.438,-0.028
40.17,-0.395,0.695,-0.151
40.18,-0.119,1.795,0.141
40.19,-0.063,0.798,0.135
40.2,-0.141,0.865,-0.039
40.21,-0.323,0.218,-0.151
40.22,-0.211,1.906,0.143
40.23,-0.098,0.833,0.118
40.24,-0.163,0.795,-0.038
40.25,-0.433,0.448,-0.136
40.26,-0.127,1.542,0.188
40.27,-0.163,1.3,0.083
40.28,-0.038,0.401,-0.018
40.29,-0.477,0.902,-0.159
40.3,-0.029,1.297,0.178
40.31,-0.22,1.319,0.055
40.32,-0.053,0.576,-0.072
40.33,-0.379,0.631,-0.212
40.34,-0.169,1.443,0.16
40.35,-0.046,0.959,-0.002
40.36,-0.271,0.945,-0.097
40.37,-0.278,0.2,-0.175
40.38,-0.212,1.553,0.207
40.39,-0.122,0.844,0.083
40.4,-0.247,0.93,-0.095
40.41,-0.425,0.457,-0.14
40.42,-0.086,1.154,0.214
40.43,-0.255,1.29,-0.005
40.44,-0.227,0.609,-0.151
40.45,-0.482,1.001,-0.074
40.46,0.011,0.894,0.172
40.47,-0.307,1.345,0.07
40.48,-0.182,0.418,-0.14
40.49,-0.411,1.109,-0.114
40.5,-0.012,0.92,0.15
40.51,-0.247,1.175,0.027
40.52,-0.271,0.599,-0.151
40.53,-0.297,0.814,-0.1
40.54,-0.031,1.251,0.17
40.55,-0.073,0.755,-0.002
40.56,-0.369,0.999,-0.128
40.57,-0.266,0.919,-0.065
40.58,-0.083,1.162,0.136
40.59,-0.199,0.889,0.047
40.6,-0.282,0.742,-0.17
40.61,-0.35,1.491,-0.061
40.62,0.004,0.785,0.134
40.63,-0.25,1.237,0.046
40.64,-0.246,0.394,-0.216
40.65,-0.319,1.746,-0.036
40.66,-0.058,0.814,0.155
40.67,-0.272,0.953,0.091
40.68,-0.411,0.65,-0.084
40.69,-0.404,1.365,0.083
40.7,-0.259,1.05,0.22
40.71,-0.149,0.655,0.1
40.72,-0.445,1.061,-0.176
40.73,-0.302,1.242,0.07
40.74,-0.249,1.051,0.171
40.75,-0.063,0.733,0.065
40.76,-0.36,0.794,-0.156
40.77,-0.37,1.71,0.106
40.78,-0.11,0.726,0.209
40.79,-0.22,0.976,0.08
40.8,-0.35,0.375,-0.171
40.81,-0.371,2.0,0.091
40.82,-0.111,0.636,0.165
40.83,-0.157,0.853,0.034
40.84,-0.421,0.689,-0.178
40.85,-0.227,1.615,0.035
40.86,-0.221,0.923,0.149
40.87,0.032,0.537,0.024
40.88,-0.531,1.008,-0.203
40.89,-0.101,1.439,0.064
40.9,-0.283,1.043,0.147
40.91,0.017,0.573,0.035
40.92,-0.471,0.774,-0.22
40.93,-0.075,1.892,0.079
40.94,-0.084,0.813,0.112
40.95,-0.065,0.824,0.006
40.96,-0.362,0.347,-0.186
40.97,-0.138,2.0,0.083
40.98,-0.077,0.65,0.134
40.99,-0.109,0.805,-0.025
41.0,-0.409,0.528,-0.207
41.01,-0.026,1.928,0.113
41.02,-0.137,1.047,0.113
41.03,0.086,0.324,-0.05
41.04,-0.487,1.032,-0.196
41.05,0.051,1.594,0.068
41.06,-0.068,1.207,0.061
41.07,0.081,0.405,-0.072
41.08,-0.365,0.826,-0.206
41.09,-0.006,1.819,0.04
41.1,-0.062,0.823,0.09
41.11,-0.053,0.781,-0.063
41.12,-0.354,0.344,-0.243
41.13,-0.078,2.0,0.087
41.14,0.004,0.723,0.07
41.15,-0.131,0.746,-0.029
41.16,-0.441,0.478,-0.157
41.17,-0.112,1.895,0.163
41.18,-0.144,1.022,0.109
41.19,-0.038,0.399,-0.027
41.2,-0.532,0.941,-0.162
41.21,-0.01,1.408,0.185
41.22,-0.264,1.338,0.142
41.23,0.028,0.414,0.056
41.24,-0.528,0.902,-0.157
41.25,-0.051,1.385,0.158
41.26,-0.188,1.221,0.087
41.27,-0.083,0.689,-0.073
41.28,-0.493,0.464,-0.166
41.29,-0.192,1.681,0.191
41.3,-0.075,0.828,0.085
41.31,-0.227,0.921,-0.069
41.32,-0.319,0.231,-0.23
41.33,-0.15,1.55,0.115
41.34,-0.161,0.88,0.039
41.35,-0.15,0.846,-0.072
41.36,-0.409,0.572,-0.208
41.37,-0.072,1.176,0.222
41.38,-0.178,1.37,0.051
41.39,-0.034,0.474,-0.105
41.4,-0.516,0.905,-0.143
41.41,-0.054,1.142,0.185
41.42,-0.206,1.315,0.024
41.43,-0.049,0.608,-0.108
41.44,-0.441,0.574,-0.173
41.45,-0.139,1.366,0.2
41.46,-0.123,0.874,0.024
41.47,-0.281,0.959,-0.121
41.48,-0.384,0.19,-0.162
41.49,-0.224,1.413,0.237
41.5,-0.14,0.951,0.041
41.51,-0.166,0.776,-0.11
41.52,-0.442,0.603,-0.187
41.53,-0.039,1.061,0.206
41.54,-0.211,1.317,0.038
41.55,-0.058,0.375,-0.111
41.56,-0.461,1.031,-0.18
41.57,0.008,0.918,0.141
41.58,-0.204,1.262,-0.025
41.59,-0.124,0.508,-0.156
41.6,-0.421,0.624,-0.163
41.61,-0.095,1.25,0.167
41.62,-0.086,0.897,0.0
41.63,-0.294,0.903,-0.174
41.64,-0.395,0.309,-0.108
41.65,-0.141,1.444,0.181
41.66,-0.148,0.837,0.028
41.67,-0.294,0.814,-0.135
41.68,-0.471,0.647,-0.115
41.69,-0.019,1.073,0.176
41.7,-0.3,1.267,0.02
41.71,-0.142,0.353,-0.126
41.72,-0.583,1.081,-0.057
41.73,0.01,0.907,0.177
41.74,-0.333,1.266,0.065
41.75,-0.22,0.513,-0.071
41.76,-0.598,0.721,-0.017
41.77,-0.162,1.131,0.207
41.78,-0.162,0.935,0.066
41.79,-0.327,0.78,-0.146
41.8,-0.461,0.412,-0.043
41.81,-0.16,1.34,0.202
41.82,-0.234,0.847,0.102
41.83,-0.287,0.791,-0.088
41.84,-0.489,0.781,-0.097
41.85,-0.033,1.083,0.185
41.86,-0.156,1.186,-0.002
41.87,-0.205,0.419,-0.171
41.88,-0.526,1.1,-0.084
41.89,-0.054,0.848,0.152
41.9,-0.235,1.358,0.037
41.91,-0.133,0.355,-0.14
41.92,-0.465,0.926,-0.091
41.93,-0.052,1.117,0.13
41.94,-0.177,0.909,0.053
41.95,-0.345,0.819,-0.134
41.96,-0.416,0.49,-0.03
41.97,-0.165,1.342,0.156
41.98,-0.18,0.788,0.048
41.99,-0.294,0.887,-0.087
42.0,-0.439,0.687,-0.073
42.01,-0.137,1.046,0.163
42.02,-0.215,1.224,-0.003
42.03,-0.115,0.292,-0.16
42.04,-0.328,1.396,-0.074
42.05,-0.038,0.809,0.198
42.06,-0.207,1.233,0.076
42.07,-0.307,0.31,-0.142
42.08,-0.322,1.516,-0.1
42.09,-0.127,0.744,0.154
42.1,-0.176,1.068,0.027
42.11,-0.328,0.673,-0.253
42.12,-0.224,1.032,-0.07
42.13,-0.206,1.108,0.141
42.14,-0.13,0.72,0.114
42.15,-0.354,0.93,-0.133
42.16,-0.174,1.115,-0.081
42.17,-0.081,1.203,0.157
42.18,-0.115,0.744,0.037
42.19,-0.363,0.778,-0.165
42.2,-0.343,1.381,-0.097
42.21,-0.11,0.729,0.093
42.22,-0.266,1.295,-0.034
42.23,-0.259,0.363,-0.191
42.24,-0.262,1.69,-0.068
42.25,-0.044,0.764,0.123
42.26,-0.148,1.021,-0.004
42.27,-0.294,0.598,-0.197
42.28,-0.209,1.357,-0.117
42.29,-0.06,1.123,0.103
42.3,-0.003,0.577,0.023
42.31,-0.41,1.093,-0.233
42.32,-0.291,1.007,-0.056
42.33,-0.239,1.048,0.129
42.34,-0.146,0.889,0.004
42.35,-0.278,0.679,-0.208
42.36,-0.302,1.525,0.007
42.37,0.018,0.849,0.145
42.38,-0.204,1.102,0.057
42.39,-0.187,0.415,-0.21
42.4,-0.325,1.892,-0.068
42.41,0.031,0.738,0.081
42.42,-0.141,1.018,0.041
42.43,-0.288,0.575,-0.228
42.44,-0.27,1.415,0.015
42.45,-0.128,0.99,0.085
42.46,-0.085,0.676,0.055
42.47,-0.382,0.989,-0.207
42.48,-0.22,1.161,-0.045
42.49,-0.135,1.138,0.148
42.5,-0.085,0.669,0.046
42.51,-0.425,0.911,-0.152
42.52,-0.243,1.564,-0.01
42.53,-0.072,0.757,0.111
42.54,-0.135,1.062,0.046
42.55,-0.264,0.453,-0.251
42.56,-0.386,1.866,0.021
42.57,-0.056,0.667,0.175
42.58,-0.171,1.054,0.056
42.59,-0.403,0.582,-0.185
42.6,-0.253,1.574,0.02
42.61,-0.089,1.088,0.149
42.62,-0.022,0.539,0.073
42.63,-0.459,1.118,-0.171
42.64,-0.25,1.258,0.021
42.65,-0.189,1.133,0.188
42.66,-0.034,0.629,0.053
42.67,-0.452,0.976,-0.176
42.68,-0.302,1.513,0.063
42.69,-0.14,0.751,0.149
42.7,-0.164,1.033,0.072
42.71,-0.298,0.464,-0.184
42.72,-0.38,1.875,-0.022
42.73,-0.047,0.642,0.162
42.74,-0.153,1.086,0.049
42.75,-0.278,0.527,-0.185
42.76,-0.24,1.575,-0.052
42.77,-0.064,1.035,0.125
42.78,-0.042,0.634,0.044
42.79,-0.424,1.001,-0.167
42.8,-0.281,1.1,-0.034
42.81,-0.226,1.069,0.162
42.82,-0.092,0.789,0.069
42.83,-0.438,0.857,-0.171
42.84,-0.132,1.406,-0.016
42.85,-0.181,1.029,0.119
42.86,0.044,0.668,0.054
42.87,-0.303,0.81,-0.163
42.88,-0.284,1.828,-0.024
42.89,-0.069,0.654,0.15
42.9,-0.069,1.016,0.054
42.91,-0.361,0.368,-0.213
42.92,-0.298,1.827,0.036
42.93,-0.154,0.646,0.107
42.94,-0.11,0.863,0.037
42.95,-0.364,0.722,-0.211
42.96,-0.24,1.515,0.012
42.97,-0.114,1.163,0.144
42.98,-0.023,0.42,0.087
42.99,-0.432,1.131,-0.169
43.0,-0.253,1.344,-0.039
43.01,-0.217,0.946,0.131
43.02,-0.041,0.759,0.075
43.03,-0.432,0.757,-0.219
43.04,-0.333,1.56,0.037
43.05,-0.133,0.652,0.14
43.06,-0.262,1.094,0.082
43.07,-0.225,0.38,-0.175
43.08,-0.375,1.954,0.003
43.09,-0.042,0.804,0.194
43.1,-0.123,0.851,0.074
43.11,-0.378,0.761,-0.186
43.12,-0.242,1.404,-0.011
43.13,-0.232,1.143,0.166
43.14,-0.032,0.535,0.088
43.15,-0.519,1.088,-0.167
43.16,-0.215,1.118,-0.001
43.17,-0.28,1.019,0.126
43.18,-0.071,0.834,0.067
43.19,-0.34,0.755,-0.187
43.2,-0.271,1.561,-0.057
43.21,-0.014,0.812,0.147
43.22,-0.14,1.102,0.069
43.23,-0.22,0.404,-0.183
43.24,-0.365,1.768,-0.029
43.25,0.019,0.805,0.12
43.26,-0.27,1.015,0.066
43.27,-0.288,0.608,-0.154
43.28,-0.41,1.2,-0.037
43.29,-0.126,1.085,0.134
43.3,-0.087,0.785,0.047
43.31,-0.415,0.93,-0.196
43.32,-0.281,0.912,-0.021
43.33,-0.159,1.192,0.145
43.34,-0.184,0.846,0.086
43.35,-0.338,0.731,-0.182
43.36,-0.316,1.238,-0.105
43.37,-0.063,0.882,0.124
43.38,-0.251,1.243,0.014
43.39,-0.146,0.229,-0.176
43.4,-0.337,1.503,-0.127
43.41,0.045,0.804,0.156
43.42,-0.205,1.206,0.064
43.43,-0.292,0.534,-0.104
43.44,-0.357,0.987,-0.015
43.45,-0.128,1.093,0.174
43.46,-0.154,0.785,0.097
43.47,-0.377,0.934,-0.108
43.48,-0.375,0.63,-0.052
43.49,-0.186,1.264,0.173
43.5,-0.211,0.848,0.11
43.51,-0.317,0.747,-0.103
43.52,-0.496,0.836,-0.06
43.53,-0.061,0.972,0.196
43.54,-0.239,1.307,0.031
43.55,-0.2,0.345,-0.104
43.56,-0.481,1.096,-0.1
43.57,-0.042,0.869,0.185
43.58,-0.211,1.325,0.057
43.59,-0.184,0.413,-0.093
43.6,-0.515,0.764,-0.067
43.61,-0.133,1.163,0.158
43.62,-0.153,0.908,0.036
43.63,-0.339,0.851,-0.093
43.64,-0.396,0.371,-0.093
43.65,-0.157,1.333,0.144
43.66,-0.116,0.756,0.067
43.67,-0.406,0.949,-0.082
43.68,-0.459,0.52,-0.017
43.69,-0.196,1.204,0.205
43.7,-0.195,1.044,0.041
43.71,-0.284,0.509,-0.133
43.72,-0.408,1.109,-0.099
43.73,-0.023,0.912,0.161
43.74,-0.311,1.325,0.067
43.75,-0.15,0.281,-0.102
43.76,-0.419,1.225,-0.097
43.77,-0.04,0.941,0.161
43.78,-0.259,1.061,0.008
43.79,-0.488,0.904,-0.187
43.8,-0.005,1.647,0.136
43.81,-0.257,1.048,0.127
43.82,0.064,0.587,-0.0
43.83,-0.464,0.625,-0.161
43.84,-0.081,1.984,0.065
43.85,-0.089,0.654,0.105
43.86,0.016,0.894,0.018
43.87,-0.342,0.302,-0.229
43.88,-0.063,2.0,0.066
43.89,-0.093,0.709,0.122
43.9,-0.01,0.728,0.018
43.91,-0.451,0.636,-0.292
43.92,0.133,1.842,0.057
43.93,-0.21,1.022,0.021
43.94,0.177,0.373,0.011
43.95,-0.48,1.049,-0.217
43.96,0.013,1.64,0.075
43.97,-0.232,1.049,0.165
43.98,0.075,0.547,0.038
43.99,-0.504,0.712,-0.21
44.0,-0.067,1.922,0.093
44.01,-0.126,0.683,0.117
44.02,-0.007,0.905,-0.002
44.03,-0.395,0.286,-0.188
44.04,-0.074,2.0,0.127
44.05,-0.155,0.707,0.155
44.06,-0.064,0.709,0.047
44.07,-0.495,0.618,-0.155
44.08,-0.055,1.756,0.134
44.09,-0.222,1.042,0.15
44.1,0.113,0.358,-0.015
44.11,-0.587,1.068,-0.127
44.12,0.032,1.608,0.142
44.13,-0.301,1.067,0.152
44.14,0.149,0.527,0.041
44.15,-0.49,0.789,-0.208
44.16,0.017,1.912,0.075
44.17,-0.088,0.765,0.087
44.18,-0.007,0.809,-0.008
44.19,-0.331,0.343,-0.208
44.2,-0.098,2.0,0.094
44.21,-0.005,0.679,0.12
44.22,-0.055,0.77,-0.007
44.23,-0.363,0.587,-0.23
44.24,-0.007,1.855,0.147
44.25,-0.166,1.041,0.13
44.26,0.089,0.35,0.005
44.27,-0.508,1.043,-0.158
44.28,0.014,1.6,0.147
44.29,-0.266,1.143,0.13
44.3,0.094,0.31,-0.036
44.31,-0.467,0.991,-0.175
44.32,0.011,1.628,0.059
44.33,-0.073,1.104,0.057
44.34,-0.02,0.615,-0.067
44.35,-0.373,0.463,-0.141
44.36,-0.101,2.0,0.166
44.37,-0.045,0.746,0.149
44.38,-0.182,0.866,-0.015
44.39,-0.399,0.317,-0.137
44.4,-0.126,2.0,0.154
44.41,-0.107,0.778,0.13
44.42,-0.029,0.566,-0.046
44.43,-0.462,0.78,-0.224
44.44,0.009,1.534,0.152
44.45,-0.312,1.214,0.166
44.46,0.147,0.378,-0.024
44.47,-0.598,1.0,-0.211
44.48,0.103,1.574,0.136
44.49,-0.167,1.138,0.048
44.5,0.0,0.614,-0.034
44.51,-0.392,0.548,-0.244
44.52,-0.115,1.841,0.154
44.53,0.026,0.738,0.056
44.54,-0.118,0.964,-0.068
44.55,-0.346,0.224,-0.255
44.56,-0.093,1.84,0.143
44.57,-0.084,0.972,0.081
44.58,-0.071,0.724,-0.104
44.59,-0.438,0.633,-0.199
44.6,-0.03,1.516,0.159
44.61,-0.219,1.31,0.117
44.62,0.085,0.42,-0.034
44.63,-0.526,0.983,-0.194
44.64,0.018,1.395,0.173
44.65,-0.171,1.252,0.113
44.66,-0.092,0.644,-0.06
44.67,-0.415,0.544,-0.163
44.68,-0.138,1.72,0.123
44.69,-0.153,0.849,0.133
44.7,-0.16,1.021,-0.04
44.71,-0.419,0.183,-0.137
44.72,-0.195,1.708,0.177
44.73,-0.127,0.935,0.123
44.74,-0.163,0.818,-0.055
44.75,-0.443,0.591,-0.149
44.76,-0.127,1.27,0.237
44.77,-0.335,1.272,0.154
44.78,-0.014,0.486,-0.096
44.79,-0.496,0.945,-0.15
44.8,-0.09,1.106,0.203
44.81,-0.275,1.284,0.073
44.82,-0.147,0.613,-0.075
44.83,-0.443,0.562,-0.118
44.84,-0.134,1.479,0.193
44.85,-0.065,0.954,0.05
44.86,-0.191,1.013,-0.125
44.87,-0.414,0.2,-0.154
44.88,-0.156,1.488,0.21
44.89,-0.188,0.918,-0.032
44.9,-0.114,0.863,-0.074
44.91,-0.415,0.532,-0.194
44.92,-0.041,1.142,0.212
44.93,-0.298,1.331,-0.0
44.94,-0.04,0.456,-0.093
44.95,-0.477,0.967,-0.127
44.96,-0.049,0.903,0.202
44.97,-0.208,1.374,-0.021
44.98,-0.146,0.49,-0.084
44.99,-0.42,0.713,-0.105
45.0,-0.123,1.167,0.186
45.01,-0.207,0.88,-0.015
45.02,-0.296,0.904,-0.123
45.03,-0.42,0.308,-0.063
45.04,-0.212,1.297,0.172
45.05,-0.224,0.874,0.069
45.06,-0.3,0.771,-0.107
45.07,-0.376,0.712,-0.089
45.08,-0.103,1.021,0.15
45.09,-0.292,1.244,-0.015
45.1,-0.262,0.596,-0.159
45.11,-0.344,1.403,-0.042
45.12,-0.038,0.807,0.192
45.13,-0.345,1.278,0.032
45.14,-0.262,0.308,-0.188
45.15,-0.313,1.625,-0.016
45.16,-0.054,0.75,0.135
45.17,-0.192,1.034,0.008
45.18,-0.362,0.732,-0.231
45.19,-0.214,1.275,0.003
45.2,-0.133,1.166,0.13
45.21,-0.109,0.576,0.045
45.22,-0.474,1.053,-0.197
45.23,-0.191,1.228,0.034
45.24,-0.157,1.004,0.159
45.25,-0.088,0.766,-0.011
45.26,-0.433,0.735,-0.232
45.27,-0.135,1.831,0.004
45.28,-0.096,0.656,0.133
45.29,-0.023,0.997,0.029
45.3,-0.405,0.353,-0.213
45.31,-0.295,2.0,0.145
45.32,-0.177,0.598,0.143
45.33,-0.01,0.885,0.015
45.34,-0.47,0.662,-0.23
45.35,-0.058,1.721,0.036
45.36,-0.233,1.028,0.112
45.37,0.065,0.413,0.026
45.38,-0.47,1.02,-0.167
45.39,-0.098,1.574,0.166
45.4,-0.183,1.138,0.198
45.41,-0.001,0.47,-0.018
45.42,-0.481,0.738,-0.153
45.43,-0.096,1.997,0.103
45.44,-0.165,0.739,0.142
45.45,-0.135,0.868,0.017
45.46,-0.427,0.263,-0.164
45.47,-0.159,2.0,0.17
45.48,-0.107,0.766,0.2
45.49,-0.13,0.665,-0.036
45.5,-0.344,0.538,-0.218
45.51,-0.107,1.672,0.121
45.52,-0.065,1.145,-0.002
45.53,0.028,0.437,-0.064
45.54,-0.405,0.94,-0.23
45.55,0.003,1.546,0.2
45.56,-0.183,1.319,0.097
45.57,-0.026,0.451,0.001
45.58,-0.483,0.749,-0.192
45.59,-0.094,1.714,0.18
45.6,-0.12,0.922,0.107
45.61,-0.072,0.856,-0.064
45.62,-0.368,0.244,-0.176
45.63,-0.214,1.774,0.171
45.64,-0.213,0.808,0.119
45.65,-0.137,0.971,-0.101
45.66,-0.46,0.35,-0.148
45.67,-0.003,1.513,0.189
45.68,-0.267,1.263,0.06
45.69,0.045,0.522,-0.097
45.7,-0.554,0.918,-0.141
45.71,0.013,1.102,0.229
45.72,-0.378,1.368,0.076
45.73,-0.045,0.493,-0.023
45.74,-0.534,0.794,-0.107
45.75,-0.084,1.223,0.159
45.76,-0.101,0.986,-0.042
45.77,-0.248,0.967,-0.134
45.78,-0.3,0.211,-0.162
45.79,-0.198,1.419,0.155
45.8,-0.157,0.923,0.034
45.81,-0.258,0.883,-0.099
45.82,-0.445,0.42,-0.127
45.83,-0.116,1.172,0.248
45.84,-0.249,1.235,-0.038
45.85,-0.224,0.444,-0.155
45.86,-0.413,1.008,-0.045
45.87,-0.063,0.829,0.15
45.88,-0.397,1.356,0.089
45.89,-0.155,0.396,-0.161
45.9,-0.431,0.961,-0.053
45.91,-0.081,0.827,0.143
45.92,-0.354,1.174,0.03
45.93,-0.336,0.542,-0.179
45.94,-0.167,1.282,-0.034
45.95,-0.131,1.087,0.139
45.96,-0.053,0.658,-0.035
45.97,-0.449,1.059,-0.198
45.98,-0.212,1.115,0.0
45.99,-0.164,1.092,0.135
46.0,-0.14,0.759,0.038
46.01,-0.52,0.772,-0.222
46.02,-0.157,1.607,0.023
46.03,-0.12,0.722,0.141
46.04,-0.174,1.01,0.043
46.05,-0.319,0.361,-0.248
46.06,-0.323,2.0,0.076
46.07,-0.035,0.657,0.144
46.08,-0.251,0.903,0.026
46.09,-0.384,0.508,-0.174
46.1,-0.304,1.799,0.132
46.11,-0.15,0.958,0.132
46.12,-0.025,0.464,0.003
46.13,-0.478,1.025,-0.23
46.14,-0.079,1.479,0.11
46.15,-0.204,1.094,0.145
46.16,0.02,0.478,0.054
46.17,-0.536,0.87,-0.146
46.18,-0.072,1.915,0.105
46.19,-0.077,0.841,0.119
46.2,-0.093,0.788,-0.026
46.21,-0.346,0.381,-0.151
46.22,-0.187,2.0,0.098
46.23,0.041,0.689,0.145
46.24,-0.115,0.844,-0.026
46.25,-0.429,0.391,-0.176
46.26,-0.087,1.917,0.126
46.27,-0.139,1.032,0.115
46.28,0.042,0.404,-0.062
46.29,-0.534,0.996,-0.186
46.3,-0.029,1.463,0.188
46.31,-0.137,1.297,0.107
46.32,0.092,0.413,-0.045
46.33,-0.477,0.782,-0.173
46.34,-0.056,1.528,0.111
46.35,-0.23,0.974,0.131
46.36,-0.029,0.967,-0.119
46.37,-0.429,0.27,-0.186
46.38,-0.184,1.783,0.207
46.39,-0.09,0.868,0.065
46.4,-0.178,0.991,-0.07
46.41,-0.385,0.316,-0.152
46.42,-0.162,1.5,0.201
46.43,-0.2,1.091,0.065
46.44,-0.041,0.673,-0.141
46.45,-0.477,0.839,-0.115
46.46,-0.029,1.083,0.188
46.47,-0.348,1.362,0.056
46.48,0.045,0.476,-0.119
46.49,-0.533,0.865,-0.111
46.5,0.006,1.136,0.163
46.51,-0.304,1.12,-0.01
46.52,-0.217,0.874,-0.094
46.53,-0.416,0.337,-0.061
46.54,-0.191,1.338,0.155
46.55,-0.177,0.826,0.032
46.56,-0.339,0.94,-0.148
46.57,-0.4,0.466,-0.073
46.58,-0.067,1.197,0.132
46.59,-0.314,1.056,-0.007
46.6,-0.144,0.531,-0.165
46.61,-0.317,1.268,-0.08
46.62,0.013,0.805,0.153
46.63,-0.345,1.268,-0.008
46.64,-0.211,0.307,-0.153
46.65,-0.357,1.454,-0.095
46.66,-0.044,0.797,0.163
46.67,-0.234,1.015,-0.015
46.68,-0.365,0.691,-0.148
46.69,-0.224,1.209,-0.004
46.7,-0.18,1.176,0.117
46.71,-0.048,0.613,0.017
46.72,-0.456,0.987,-0.237
46.73,-0.112,1.324,0.03
46.74,-0.21,1.088,0.116
46.75,0.019,0.542,-0.014
46.76,-0.509,0.892,-0.198
46.77,-0.081,1.72,0.034
46.78,-0.17,0.757,0.093
46.79,0.01,0.863,-0.041
46.8,-0.523,0.432,-0.191
46.81,-0.142,2.0,0.091
46.82,-0.149,0.557,0.092
46.83,-0.075,0.952,0.002
46.84,-0.446,0.412,-0.154
46.85,-0.084,1.956,0.13
46.86,-0.103,0.984,0.023
46.87,-0.032,0.396,-0.026
46.88,-0.384,0.908,-0.219
46.89,-0.013,1.643,0.157
46.9,-0.056,1.268,0.031
46.91,-0.064,0.278,-0.018
46.92,-0.408,0.913,-0.203
46.93,-0.168,1.547,0.158
46.94,0.036,1.037,0.101
46.95,-0.063,0.812,-0.11
46.96,-0.394,0.305,-0.173
46.97,-0.151,1.915,0.142
46.98,-0.065,0.853,0.117
46.99,-0.158,1.049,-0.08
47.0,-0.418,0.229,-0.118
47.01,-0.184,1.608,0.201
47.02,-0.183,1.104,0.088
47.03,0.057,0.688,-0.121
47.04,-0.503,0.784,-0.186
47.05,-0.046,1.034,0.21
47.06,-0.311,1.412,0.024
47.07,-0.029,0.437,-0.072
47.08,-0.48,0.886,-0.145
47.09,-0.097,1.013,0.163
47.1,-0.169,1.187,0.001
47.11,-0.248,0.729,-0.066
47.12,-0.337,0.42,-0.032
47.13,-0.174,1.327,0.215
47.14,-0.206,0.821,-0.015
47.15,-0.235,0.984,-0.123
47.16,-0.355,0.494,-0.048
47.17,-0.15,1.203,0.139
47.18,-0.241,1.058,0.009
47.19,-0.298,0.563,-0.144
47.2,-0.252,1.228,-0.064
47.21,0.004,0.812,0.116
47.22,-0.347,1.33,-0.018
47.23,-0.28,0.284,-0.182
47.24,-0.264,1.597,-0.025
47.25,-0.039,0.771,0.112
47.26,-0.201,1.038,-0.032
47.27,-0.346,0.697,-0.182
47.28,-0.203,1.414,0.02
47.29,-0.164,1.151,0.157
47.3,-0.068,0.481,0.027
47.31,-0.463,1.07,-0.152
47.32,-0.22,1.4,0.061
47.33,-0.197,1.027,0.173
47.34,-0.065,0.651,0.022
47.35,-0.516,0.711,-0.143
47.36,-0.116,1.978,0.085
47.37,-0.192,0.633,0.15
47.38,-0.149,0.946,0.007
47.39,-0.437,0.293,-0.113
47.4,-0.114,2.0,0.097
47.41,-0.124,0.648,0.109
47.42,-0.058,0.734,-0.026
47.43,-0.454,0.533,-0.194
47.44,-0.045,1.75,0.111
47.45,-0.096,1.155,0.1
47.46,-0.004,0.317,-0.051
47.47,-0.51,0.944,-0.184
47.48,0.026,1.524,0.14
47.49,-0.225,1.312,0.113
47.5,0.046,0.494,-0.074
47.51,-0.484,0.666,-0.196
47.52,-0.028,1.257,0.2
47.53,-0.25,1.168,0.053
47.54,-0.12,0.853,-0.09
47.55,-0.436,0.346,-0.116
47.56,-0.187,1.421,0.21
47.57,-0.178,0.84,0.066
47.58,-0.241,1.049,-0.134
47.59,-0.458,0.27,-0.063
47.6,-0.114,1.264,0.186
47.61,-0.254,1.062,-0.056
47.62,-0.11,0.651,-0.134
47.63,-0.412,0.986,-0.109
47.64,0.004,0.857,0.18
47.65,-0.351,1.353,0.046
47.66,-0.291,0.303,-0.158
47.67,-0.384,1.127,-0.001
47.68,-0.103,0.819,0.142
47.69,-0.288,1.152,0.02
47.7,-0.303,0.626,-0.182
47.71,-0.222,0.954,-0.008
47.72,-0.179,1.151,0.153
47.73,-0.106,0.749,-0.01
47.74,-0.417,0.971,-0.196
47.75,-0.08,1.161,-0.013
47.76,-0.142,1.116,0.139
47.77,-0.119,0.732,-0.03
47.78,-0.453,0.762,-0.225
47.79,-0.173,1.788,0.04
47.8,-0.09,0.724,0.148
47.81,-0.208,0.987,0.008
47.82,-0.443,0.333,-0.186
47.83,-0.199,2.0,0.084
47.84,-0.134,0.599,0.118
47.85,-0.068,0.827,-0.003
47.86,-0.471,0.656,-0.188
47.87,-0.097,1.783,0.137
47.88,-0.148,1.052,0.105
47.89,-0.009,0.36,0.007
47.9,-0.553,0.99,-0.12
47.91,-0.017,1.541,0.136
47.92,-0.156,1.213,0.114
47.93,0.056,0.409,-0.07
47.94,-0.478,0.724,-0.184
47.95,-0.002,1.719,0.124
47.96,-0.063,0.834,0.067
47.97,-0.01,0.884,-0.051
47.98,-0.459,0.199,-0.178
47.99,-0.18,1.886,0.202
48.0,-0.091,0.841,0.007
48.01,-0.131,0.852,-0.046
48.02,-0.372,0.421,-0.165
48.03,-0.098,1.425,0.145
48.04,-0.23,1.243,0.026
48.05,0.071,0.68,-0.102
48.06,-0.48,0.838,-0.112
48.07,-0.02,1.012,0.225
48.08,-0.241,1.431,0.006
48.09,-0.082,0.583,-0.1
48.1,-0.418,0.747,-0.083
48.11,-0.133,1.148,0.193
48.12,-0.235,0.962,0.002
48.13,-0.146,0.939,-0.151
48.14,-0.379,0.437,-0.069
48.15,-0.107,1.326,0.136
48.16,-0.253,0.784,0.02
48.17,-0.354,0.858,-0.114
48.18,-0.312,0.72,-0.033
48.19,-0.155,1.069,0.163
48.2,-0.248,1.11,-0.049
48.21,-0.213,0.448,-0.182
48.22,-0.249,1.409,-0.012
48.23,-0.034,0.729,0.126
48.24,-0.336,1.296,-0.014
48.25,-0.366,0.335,-0.153
48.26,-0.205,1.548,0.023
48.27,-0.028,0.918,0.084
48.28,-0.145,0.765,-0.03
48.29,-0.414,0.954,-0.195
48.3,-0.143,1.29,0.023
48.31,-0.192,1.17,0.175
48.32,-0.041,0.467,-0.013
48.33,-0.554,0.984,-0.159
48.34,-0.089,1.623,0.066
48.35,-0.169,1.161,0.176
48.36,-0.042,0.442,0.016
48.37,-0.498,0.803,-0.183
48.38,-0.038,1.91,0.016
48.39,-0.037,0.856,0.125
48.4,-0.119,0.799,-0.054
48.41,-0.36,0.212,-0.225
48.42,-0.133,2.0,0.076
48.43,-0.026,0.768,0.139
48.44,-0.151,0.761,-0.056
48.45,-0.349,0.446,-0.193
48.46,-0.113,1.7,0.121
48.47,-0.149,1.177,0.104
48.48,0.062,0.488,-0.024
48.49,-0.593,0.871,-0.171
48.5,0.055,1.36,0.195
48.51,-0.332,1.348,0.179
48.52,-0.01,0.558,-0.022
