t,ax,ay,az
0.0,0.016,0.445,-0.049
0.01,-0.49,0.998,-0.177
0.02,-0.051,0.868,0.249
0.03,-0.291,1.318,-0.024
0.04,-0.211,0.451,-0.135
0.05,-0.402,0.656,-0.09
0.06,-0.156,1.149,0.16
0.07,-0.188,0.91,0.01
0.08,-0.297,0.895,-0.045
0.09,-0.458,0.364,-0.018
0.1,-0.155,1.37,0.219
0.11,-0.141,0.816,0.042
0.12,-0.381,0.813,-0.107
0.13,-0.365,0.696,-0.035
0.14,-0.088,1.008,0.156
0.15,-0.234,1.234,0.006
0.16,-0.219,0.311,-0.189
0.17,-0.278,1.411,-0.071
0.18,-0.013,0.766,0.146
0.19,-0.299,1.275,0.088
0.2,-0.284,0.421,-0.18
0.21,-0.339,1.206,-0.058
0.22,-0.039,1.021,0.095
0.23,-0.216,0.856,-0.007
0.24,-0.317,0.857,-0.218
0.25,-0.312,0.845,-0.063
0.26,-0.153,1.202,0.137
0.27,-0.125,0.796,0.031
0.28,-0.395,0.837,-0.237
0.29,-0.169,1.3,-0.06
0.3,-0.151,0.954,0.158
0.31,-0.186,0.973,0.047
0.32,-0.336,0.515,-0.198
0.33,-0.315,1.824,0.058
0.34,-0.184,0.619,0.151
0.35,-0.238,1.132,0.081
0.36,-0.36,0.443,-0.207
0.37,-0.293,1.634,0.053
0.38,-0.159,0.847,0.132
0.39,-0.091,0.751,0.022
0.4,-0.464,0.868,-0.201
0.41,-0.211,1.396,0.05
0.42,-0.222,1.142,0.166
0.43,-0.035,0.484,0.054
0.44,-0.509,1.001,-0.173
0.45,-0.218,1.585,0.106
0.46,-0.189,0.945,0.237
0.47,-0.095,0.787,0.043
0.48,-0.434,0.569,-0.181
0.49,-0.242,2.0,0.121
0.5,-0.158,0.572,0.148
0.51,-0.208,0.987,0.054
0.52,-0.398,0.393,-0.139
0.53,-0.28,2.0,0.152
0.54,-0.127,0.784,0.174
0.55,-0.067,0.585,-0.024
0.56,-0.424,0.82,-0.16
0.57,-0.043,1.694,0.085
0.58,-0.193,1.168,0.151
0.59,0.021,0.326,-0.005
0.6,-0.526,1.003,-0.167
0.61,-0.036,1.631,0.151
0.62,-0.119,1.09,0.103
0.63,0.025,0.562,-0.062
0.64,-0.328,0.534,-0.203
0.65,-0.137,2.0,0.129
0.66,-0.049,0.738,0.121
0.67,-0.136,0.888,-0.003
0.68,-0.376,0.255,-0.181
0.69,-0.159,2.0,0.136
0.7,-0.129,0.867,0.085
0.71,-0.113,0.553,-0.046
0.72,-0.416,0.707,-0.205
0.73,-0.107,1.552,0.135
0.74,-0.159,1.278,0.044
0.75,0.065,0.345,-0.087
0.76,-0.542,0.944,-0.225
0.77,0.026,1.343,0.194
0.78,-0.263,1.262,0.064
0.79,-0.032,0.704,-0.063
0.8,-0.457,0.496,-0.168
0.81,-0.025,1.399,0.237
0.82,-0.191,1.031,0.059
0.83,-0.122,0.909,-0.129
0.84,-0.437,0.279,-0.168
0.85,-0.188,1.586,0.182
0.86,-0.08,0.859,0.008
0.87,-0.141,0.979,-0.09
0.88,-0.398,0.317,-0.202
0.89,-0.094,1.284,0.149
0.9,-0.231,1.177,-0.005
0.91,-0.149,0.56,-0.147
0.92,-0.52,0.852,-0.136
0.93,-0.076,0.882,0.212
0.94,-0.246,1.392,0.089
0.95,-0.109,0.436,-0.111
0.96,-0.58,0.873,-0.069
0.97,-0.024,1.076,0.172
0.98,-0.293,1.085,0.053
0.99,-0.262,0.83,-0.129
1.0,-0.47,0.409,-0.038
1.01,-0.144,1.333,0.205
1.02,-0.211,0.76,0.04
1.03,-0.305,0.962,-0.083
1.04,-0.482,0.59,-0.04
1.05,-0.109,1.16,0.191
1.06,-0.301,1.086,0.039
1.07,-0.218,0.464,-0.127
1.08,-0.399,1.298,-0.055
1.09,0.045,0.778,0.118
1.1,-0.324,1.329,0.009
1.11,-0.145,0.315,-0.187
1.12,-0.332,1.441,-0.108
1.13,0.009,0.878,0.146
1.14,-0.201,0.959,0.012
1.15,-0.381,0.778,-0.171
1.16,-0.313,0.959,-0.027
1.17,-0.13,1.203,0.162
1.18,-0.111,0.684,0.037
1.19,-0.354,1.041,-0.201
1.2,-0.25,1.046,-0.061
1.21,-0.098,1.069,0.129
1.22,-0.234,0.924,-0.005
1.23,-0.317,0.651,-0.161
1.24,-0.339,1.693,-0.011
1.25,0.018,0.696,0.166
1.26,-0.247,1.153,0.061
1.27,-0.287,0.42,-0.274
1.28,-0.318,1.789,0.026
1.29,-0.115,0.752,0.135
1.3,-0.203,0.869,0.047
1.31,-0.384,0.74,-0.169
1.32,-0.358,1.438,0.111
1.33,-0.156,1.14,0.197
1.34,-0.055,0.479,0.052
1.35,-0.456,1.145,-0.157
1.36,-0.254,1.431,0.014
1.37,-0.183,1.041,0.128
1.38,-0.019,0.682,0.042
1.39,-0.324,0.754,-0.159
1.4,-0.29,1.843,0.077
1.41,-0.083,0.69,0.124
1.42,-0.112,0.964,-0.017
1.43,-0.329,0.364,-0.191
1.44,-0.28,2.0,0.086
1.45,-0.152,0.682,0.159
1.46,-0.147,0.791,0.012
1.47,-0.371,0.69,-0.23
1.48,-0.135,1.764,0.068
1.49,-0.26,0.968,0.102
1.5,0.032,0.435,0.004
1.51,-0.488,1.064,-0.202
1.52,-0.084,1.556,0.099
1.53,-0.175,1.139,0.118
1.54,0.048,0.46,-0.02
1.55,-0.476,0.737,-0.14
1.56,-0.056,2.0,0.096
1.57,-0.091,0.781,0.145
1.58,-0.118,0.877,-0.003
1.59,-0.435,0.281,-0.174
1.6,-0.128,2.0,0.155
1.61,-0.141,0.66,0.097
1.62,-0.092,0.839,-0.064
1.63,-0.36,0.267,-0.216
1.64,-0.129,1.705,0.096
1.65,-0.094,1.047,0.052
1.66,-0.043,0.583,-0.095
1.67,-0.449,0.753,-0.202
1.68,-0.089,1.396,0.15
1.69,-0.254,1.351,0.123
1.7,-0.027,0.476,-0.076
1.71,-0.479,0.859,-0.198
1.72,-0.036,1.377,0.157
1.73,-0.177,1.251,0.079
1.74,-0.102,0.716,-0.066
1.75,-0.373,0.397,-0.14
1.76,-0.227,1.536,0.22
1.77,-0.042,0.792,0.028
1.78,-0.262,1.09,-0.09
1.79,-0.376,0.223,-0.128
1.8,-0.196,1.48,0.192
1.81,-0.112,1.015,-0.026
1.82,-0.13,0.764,-0.085
1.83,-0.396,0.772,-0.154
1.84,-0.066,1.007,0.221
1.85,-0.233,1.369,-0.04
1.86,-0.089,0.375,-0.113
1.87,-0.436,0.974,-0.133
1.88,-0.097,0.954,0.18
1.89,-0.25,1.188,-0.014
1.9,-0.236,0.691,-0.086
1.91,-0.412,0.484,-0.118
1.92,-0.148,1.274,0.174
1.93,-0.18,0.882,0.019
1.94,-0.323,0.935,-0.09
1.95,-0.353,0.461,-0.017
1.96,-0.141,1.246,0.163
1.97,-0.206,0.903,-0.009
1.98,-0.276,0.684,-0.14
1.99,-0.295,1.016,-0.091
2.0,-0.055,0.869,0.111
2.01,-0.31,1.288,0.01
2.02,-0.204,0.314,-0.162
2.03,-0.358,1.413,-0.052
2.04,-0.017,0.781,0.146
2.05,-0.276,1.187,0.037
2.06,-0.331,0.584,-0.173
2.07,-0.272,1.137,-0.025
2.08,-0.115,1.072,0.161
2.09,-0.145,0.709,-0.009
2.1,-0.428,0.973,-0.231
2.11,-0.17,1.009,-0.025
2.12,-0.163,1.115,0.121
2.13,-0.106,0.741,-0.008
2.14,-0.36,0.863,-0.246
2.15,-0.228,1.52,-0.006
2.16,-0.065,0.784,0.118
2.17,-0.204,1.049,0.01
2.18,-0.327,0.359,-0.19
2.19,-0.284,1.992,0.052
2.2,-0.057,0.658,0.123
2.21,-0.121,0.966,-0.007
2.22,-0.388,0.54,-0.23
2.23,-0.204,1.697,0.017
2.24,-0.129,0.992,0.098
2.25,-0.026,0.544,-0.023
2.26,-0.392,0.571,-0.177
2.27,-0.095,1.942,0.119
2.28,0.03,0.721,0.072
2.29,-0.162,0.886,-0.028
2.3,-0.362,0.23,-0.175
2.31,-0.167,2.0,0.104
2.32,-0.091,0.829,0.115
2.33,-0.093,0.66,-0.063
2.34,-0.362,0.316,-0.171
2.35,-0.145,1.532,0.187
2.36,-0.144,1.156,0.069
2.37,-0.067,0.55,-0.057
2.38,-0.442,0.89,-0.151
2.39,-0.006,1.127,0.138
2.4,-0.304,1.386,0.092
2.41,-0.05,0.558,-0.049
2.42,-0.464,0.752,-0.11
2.43,-0.136,1.211,0.142
2.44,-0.127,1.091,0.063
2.45,-0.186,0.886,-0.101
2.46,-0.384,0.301,-0.118
2.47,-0.2,1.468,0.203
2.48,-0.166,0.83,0.013
2.49,-0.275,0.983,-0.083
2.5,-0.321,0.416,-0.156
2.51,-0.21,1.161,0.212
2.52,-0.181,1.055,-0.028
2.53,-0.183,0.557,-0.166
2.54,-0.382,1.076,-0.055
2.55,-0.022,0.792,0.159
2.56,-0.263,1.334,-0.034
2.57,-0.177,0.349,-0.182
2.58,-0.369,1.165,-0.051
2.59,-0.102,0.891,0.131
2.6,-0.298,1.001,0.02
2.61,-0.261,0.773,-0.17
2.62,-0.299,0.849,-0.046
2.63,-0.149,1.175,0.163
2.64,-0.195,0.733,0.03
2.65,-0.412,0.951,-0.166
2.66,-0.21,1.008,-0.046
2.67,-0.114,1.073,0.121
2.68,-0.193,0.939,0.002
2.69,-0.346,0.629,-0.228
2.7,-0.285,1.601,0.025
2.71,-0.041,0.677,0.138
2.72,-0.29,1.211,0.058
2.73,-0.314,0.396,-0.195
2.74,-0.307,1.809,0.051
2.75,-0.063,0.805,0.196
2.76,-0.181,0.792,0.026
2.77,-0.46,0.77,-0.201
2.78,-0.257,1.469,0.062
2.79,-0.149,1.094,0.17
2.8,-0.05,0.48,0.007
2.81,-0.47,1.062,-0.2
2.82,-0.171,1.524,0.072
2.83,-0.098,1.025,0.101
2.84,-0.11,0.672,0.021
2.85,-0.417,0.672,-0.196
2.86,-0.194,1.931,0.114
2.87,-0.053,0.695,0.166
2.88,-0.144,0.894,-0.001
2.89,-0.348,0.314,-0.176
2.9,-0.169,2.0,0.12
2.91,-0.005,0.781,0.143
2.92,-0.156,0.666,-0.038
2.93,-0.442,0.615,-0.174
2.94,-0.138,1.828,0.183
2.95,-0.089,1.157,0.14
2.96,0.004,0.277,-0.041
2.97,-0.474,1.018,-0.197
2.98,-0.057,1.527,0.098
2.99,-0.108,1.256,0.063
3.0,0.052,0.534,-0.054
3.01,-0.417,0.643,-0.187
3.02,-0.059,1.655,0.175
3.03,-0.038,0.864,0.099
3.04,-0.094,1.002,-0.093
3.05,-0.384,0.204,-0.19
3.06,-0.187,1.857,0.184
3.07,-0.097,0.928,0.076
3.08,-0.119,0.824,-0.076
3.09,-0.388,0.456,-0.176
3.1,-0.102,1.397,0.156
3.11,-0.243,1.239,0.087
3.12,0.042,0.594,-0.084
3.13,-0.509,0.908,-0.143
3.14,-0.072,0.898,0.233
3.15,-0.269,1.331,-0.008
3.16,-0.076,0.35,-0.121
3.17,-0.443,0.96,-0.126
3.18,0.016,0.942,0.152
3.19,-0.242,1.191,-0.074
3.2,-0.174,0.715,-0.099
3.21,-0.404,0.453,-0.03
3.22,-0.131,1.267,0.176
3.23,-0.091,0.845,-0.046
3.24,-0.36,0.979,-0.108
3.25,-0.31,0.546,-0.049
3.26,-0.092,1.248,0.16
3.27,-0.237,0.927,-0.004
3.28,-0.271,0.676,-0.098
3.29,-0.302,1.355,-0.039
3.3,-0.013,0.785,0.175
3.31,-0.312,1.227,-0.006
3.32,-0.258,0.351,-0.194
3.33,-0.349,1.59,-0.041
3.34,-0.008,0.734,0.127
3.35,-0.304,1.08,-0.009
3.36,-0.26,0.634,-0.213
3.37,-0.257,1.314,0.021
3.38,-0.094,1.108,0.16
3.39,-0.014,0.562,-0.022
3.4,-0.489,1.056,-0.184
3.41,-0.086,1.345,0.035
3.42,-0.194,1.119,0.144
3.43,-0.005,0.601,0.031
3.44,-0.558,0.778,-0.193
3.45,-0.142,1.879,0.089
3.46,-0.21,0.683,0.163
3.47,-0.129,0.999,0.029
3.48,-0.446,0.302,-0.161
3.49,-0.236,2.0,0.093
3.5,-0.069,0.684,0.154
3.51,-0.13,0.779,0.011
3.52,-0.371,0.52,-0.202
3.53,-0.084,1.861,0.124
3.54,-0.148,1.062,0.13
3.55,-0.016,0.338,0.004
3.56,-0.503,1.02,-0.165
3.57,-0.056,1.584,0.178
3.58,-0.167,1.205,0.155
3.59,0.002,0.389,-0.017
3.6,-0.405,0.767,-0.193
3.61,-0.12,1.669,0.081
3.62,0.002,0.899,0.091
3.63,-0.062,0.942,-0.086
3.64,-0.398,0.2,-0.151
3.65,-0.177,1.848,0.153
3.66,-0.127,0.828,0.116
3.67,-0.107,0.928,-0.065
3.68,-0.428,0.326,-0.173
3.69,-0.178,1.498,0.228
3.7,-0.21,1.213,0.089
3.71,-0.056,0.516,-0.067
3.72,-0.454,0.911,-0.155
3.73,-0.078,1.098,0.147
3.74,-0.256,1.375,0.055
3.75,-0.042,0.573,-0.066
3.76,-0.505,0.764,-0.121
3.77,-0.078,1.185,0.154
3.78,-0.143,1.017,-0.063
3.79,-0.143,0.918,-0.106
3.8,-0.44,0.287,-0.098
3.81,-0.19,1.396,0.211
3.82,-0.174,0.804,-0.064
3.83,-0.169,0.982,-0.115
3.84,-0.353,0.522,-0.109
3.85,-0.118,1.107,0.185
3.86,-0.294,1.07,0.008
3.87,-0.242,0.504,-0.151
3.88,-0.347,1.143,-0.064
3.89,-0.07,0.791,0.138
3.9,-0.333,1.301,0.012
3.91,-0.213,0.373,-0.155
3.92,-0.352,1.151,-0.023
3.93,-0.079,0.859,0.133
3.94,-0.259,0.996,0.023
3.95,-0.367,0.578,-0.232
3.96,-0.238,1.403,0.026
3.97,-0.103,1.023,0.156
3.98,-0.04,0.632,-0.014
3.99,-0.506,1.029,-0.208
4.0,-0.116,1.224,0.037
4.01,-0.239,1.047,0.154
4.02,-0.003,0.639,0.013
4.03,-0.573,0.845,-0.166
4.04,-0.135,1.601,0.066
4.05,-0.212,0.719,0.12
4.06,-0.088,0.979,0.02
4.07,-0.458,0.394,-0.244
4.08,-0.15,2.0,0.088
4.09,-0.129,0.643,0.15
4.1,-0.132,0.916,0.037
4.11,-0.394,0.498,-0.2
4.12,-0.113,1.879,0.115
4.13,-0.105,1.028,0.154
4.14,-0.039,0.36,-0.068
4.15,-0.414,0.938,-0.183
4.16,-0.061,1.654,0.141
4.17,-0.156,1.278,0.172
4.18,-0.068,0.333,-0.031
4.19,-0.395,0.862,-0.187
4.2,-0.184,1.779,0.096
4.21,-0.053,0.945,0.089
4.22,-0.101,0.764,-0.084
4.23,-0.358,0.29,-0.159
4.24,-0.218,1.962,0.12
4.25,-0.018,0.781,0.09
4.26,-0.121,0.911,-0.087
4.27,-0.344,0.288,-0.179
4.28,-0.104,1.728,0.185
4.29,-0.159,1.111,0.08
4.3,-0.052,0.515,-0.121
4.31,-0.383,0.876,-0.167
4.32,-0.039,1.31,0.161
4.33,-0.216,1.37,0.108
4.34,0.013,0.465,-0.091
4.35,-0.507,0.885,-0.125
4.36,-0.099,1.227,0.172
4.37,-0.207,1.131,0.071
4.38,-0.192,0.863,-0.095
4.39,-0.329,0.285,-0.109
4.4,-0.261,1.458,0.219
4.41,-0.119,0.823,0.012
4.42,-0.224,1.032,-0.068
4.43,-0.387,0.354,-0.129
4.44,-0.147,1.221,0.2
4.45,-0.168,1.106,-0.056
4.46,-0.138,0.572,-0.107
4.47,-0.366,0.988,-0.099
4.48,-0.025,0.877,0.182
4.49,-0.306,1.395,-0.025
4.5,-0.201,0.276,-0.112
4.51,-0.379,1.069,-0.07
4.52,-0.147,0.859,0.184
4.53,-0.216,1.153,0.007
4.54,-0.344,0.611,-0.197
4.55,-0.238,0.812,-0.033
4.56,-0.12,1.232,0.146
4.57,-0.093,0.722,-0.001
4.58,-0.397,1.01,-0.151
4.59,-0.241,0.994,-0.018
4.6,-0.167,1.104,0.163
4.61,-0.105,0.896,-0.016
4.62,-0.342,0.646,-0.221
4.63,-0.197,1.677,0.01
4.64,-0.024,0.71,0.131
4.65,-0.159,1.083,-0.006
4.66,-0.322,0.351,-0.199
4.67,-0.335,1.871,0.05
4.68,-0.074,0.662,0.132
4.69,-0.176,0.904,-0.006
4.7,-0.342,0.728,-0.228
4.71,-0.218,1.564,0.045
4.72,-0.129,1.115,0.127
4.73,0.0,0.405,0.005
4.74,-0.457,1.055,-0.189
4.75,-0.039,1.676,0.115
4.76,-0.177,1.247,0.158
4.77,-0.059,0.29,0.022
4.78,-0.505,0.918,-0.174
4.79,-0.044,1.757,0.17
4.8,-0.212,0.881,0.119
4.81,0.023,0.695,-0.065
4.82,-0.39,0.383,-0.17
4.83,-0.165,1.874,0.121
4.84,0.008,0.744,0.053
4.85,-0.096,0.929,-0.066
4.86,-0.334,0.27,-0.197
4.87,-0.13,1.733,0.111
4.88,-0.062,0.966,0.039
4.89,-0.062,0.681,-0.086
4.9,-0.472,0.706,-0.179
4.91,-0.067,1.301,0.246
4.92,-0.334,1.441,0.176
4.93,0.012,0.375,-0.029
4.94,-0.552,0.914,-0.166
4.95,-0.047,1.188,0.164
4.96,-0.255,1.195,0.055
4.97,-0.128,0.83,-0.086
4.98,-0.377,0.323,-0.122
4.99,-0.16,1.401,0.13
5.0,-0.111,0.871,0.036
5.01,-0.189,1.014,-0.118
5.02,-0.449,0.232,-0.128
5.03,-0.133,1.328,0.159
5.04,-0.203,0.975,-0.027
5.05,-0.164,0.702,-0.136
5.06,-0.471,0.812,-0.109
5.07,-0.004,0.945,0.212
5.08,-0.415,1.359,0.055
5.09,-0.16,0.36,-0.116
5.1,-0.495,1.031,-0.038
5.11,-0.032,0.863,0.17
5.12,-0.334,1.225,0.049
5.13,-0.3,0.622,-0.094
5.14,-0.384,0.741,-0.002
5.15,-0.145,1.173,0.175
5.16,-0.193,0.789,0.056
5.17,-0.324,0.982,-0.155
5.18,-0.231,0.766,-0.052
5.19,-0.082,1.175,0.155
5.2,-0.223,0.904,-0.003
5.21,-0.292,0.709,-0.179
5.22,-0.301,1.328,-0.063
5.23,-0.013,0.796,0.135
5.24,-0.329,1.243,0.016
5.25,-0.23,0.393,-0.193
5.26,-0.346,1.712,-0.052
5.27,0.006,0.699,0.112
5.28,-0.205,1.126,0.024
5.29,-0.333,0.594,-0.237
5.3,-0.235,1.426,0.016
5.31,-0.12,1.062,0.136
5.32,0.02,0.553,-0.003
5.33,-0.489,1.071,-0.171
5.34,-0.217,1.272,0.053
5.35,-0.217,1.068,0.146
5.36,-0.075,0.665,0.028
5.37,-0.454,0.809,-0.221
5.38,-0.239,1.67,0.031
5.39,-0.145,0.737,0.146
5.4,-0.122,0.961,0.049
5.41,-0.397,0.424,-0.149
5.42,-0.268,2.0,0.102
5.43,-0.135,0.682,0.134
5.44,-0.158,0.863,0.018
5.45,-0.398,0.491,-0.215
5.46,-0.101,1.907,0.069
5.47,-0.213,0.899,0.108
5.48,-0.017,0.464,-0.018
5.49,-0.512,1.008,-0.149
5.5,-0.035,1.655,0.089
5.51,-0.341,1.146,0.229
5.52,0.053,0.397,0.037
5.53,-0.556,0.861,-0.123
5.54,-0.052,1.868,0.131
5.55,-0.206,1.124,0.143
5.56,-0.015,0.611,-0.065
5.57,-0.445,0.535,-0.153
5.58,-0.098,1.821,0.11
5.59,-0.033,0.836,0.042
5.6,-0.083,0.974,-0.051
5.61,-0.438,0.147,-0.153
5.62,-0.151,1.737,0.18
5.63,-0.171,0.944,0.156
5.64,-0.126,0.78,-0.098
5.65,-0.453,0.572,-0.181
5.66,-0.05,1.368,0.151
5.67,-0.365,1.362,0.124
5.68,0.063,0.464,-0.074
5.69,-0.539,0.92,-0.159
5.7,-0.031,1.107,0.194
5.71,-0.198,1.346,0.008
5.72,-0.15,0.629,-0.111
5.73,-0.395,0.513,-0.139
5.74,-0.189,1.326,0.147
5.75,-0.09,0.936,0.056
5.76,-0.313,1.022,-0.119
5.77,-0.319,0.204,-0.104
5.78,-0.193,1.383,0.205
5.79,-0.124,0.919,-0.028
5.8,-0.298,0.796,-0.129
5.81,-0.378,0.692,-0.132
5.82,-0.07,0.97,0.21
5.83,-0.293,1.267,0.006
5.84,-0.184,0.319,-0.158
5.85,-0.436,1.249,-0.027
5.86,0.033,0.794,0.146
5.87,-0.316,1.277,0.017
5.88,-0.218,0.504,-0.155
5.89,-0.363,1.012,-0.031
5.9,-0.086,1.003,0.136
5.91,-0.208,0.822,-0.009
5.92,-0.396,0.921,-0.127
5.93,-0.16,0.863,-0.085
5.94,-0.137,1.203,0.172
5.95,-0.165,0.78,-0.01
5.96,-0.385,0.882,-0.184
5.97,-0.217,1.34,-0.026
5.98,-0.166,0.843,0.159
5.99,-0.205,1.095,0.034
6.0,-0.369,0.432,-0.163
6.01,-0.358,1.848,0.087
6.02,-0.064,0.642,0.17
6.03,-0.23,1.06,0.014
6.04,-0.361,0.493,-0.23
6.05,-0.291,1.792,0.072
6.06,-0.133,0.898,0.122
6.07,-0.03,0.61,0.027
6.08,-0.415,0.963,-0.238
6.09,-0.175,1.42,0.094
6.1,-0.206,1.167,0.182
6.11,-0.014,0.443,0.063
6.12,-0.513,0.965,-0.159
6.13,-0.112,1.758,0.064
6.14,-0.184,0.921,0.127
6.15,-0.057,0.732,0.013
6.16,-0.415,0.467,-0.165
6.17,-0.163,2.0,0.119
6.18,-0.102,0.632,0.165
6.19,-0.098,0.918,-0.001
6.2,-0.406,0.331,-0.241
6.21,-0.08,1.987,0.11
6.22,-0.049,0.942,0.054
6.23,-0.117,0.42,-0.024
6.24,-0.359,0.853,-0.224
6.25,-0.061,1.541,0.147
6.26,-0.12,1.304,0.072
6.27,0.013,0.315,-0.056
6.28,-0.425,0.942,-0.178
6.29,-0.084,1.535,0.173
6.3,-0.082,1.082,0.035
6.31,-0.065,0.723,-0.094
6.32,-0.429,0.378,-0.136
6.33,-0.154,1.784,0.172
6.34,-0.124,0.799,0.104
6.35,-0.113,1.02,-0.092
6.36,-0.512,0.165,-0.117
6.37,-0.157,1.561,0.197
6.38,-0.194,0.879,0.071
6.39,-0.203,0.944,-0.094
6.4,-0.471,0.47,-0.155
6.41,-0.097,1.13,0.246
6.42,-0.282,1.242,0.014
6.43,-0.036,0.501,-0.121
6.44,-0.537,0.97,-0.112
6.45,0.018,0.865,0.188
6.46,-0.333,1.399,-0.009
6.47,-0.11,0.42,-0.137
6.48,-0.446,0.826,-0.074
6.49,-0.04,1.111,0.154
6.5,-0.183,0.947,-0.005
6.51,-0.248,0.833,-0.149
6.52,-0.35,0.524,-0.059
6.53,-0.205,1.266,0.158
6.54,-0.184,0.772,0.021
6.55,-0.293,0.837,-0.153
6.56,-0.27,0.987,-0.061
6.57,-0.068,0.985,0.133
6.58,-0.233,1.121,0.0
6.59,-0.261,0.486,-0.192
6.6,-0.307,1.474,-0.035
6.61,-0.042,0.698,0.147
6.62,-0.306,1.295,0.038
6.63,-0.281,0.412,-0.224
6.64,-0.214,1.495,-0.011
6.65,-0.081,0.897,0.107
6.66,-0.112,0.839,-0.01
6.67,-0.343,0.88,-0.219
6.68,-0.148,1.264,0.006
6.69,-0.137,1.194,0.141
6.7,-0.036,0.515,0.037
6.71,-0.482,1.023,-0.201
6.72,-0.126,1.458,0.029
6.73,-0.193,0.934,0.176
6.74,-0.105,0.809,0.013
6.75,-0.471,0.586,-0.17
6.76,-0.235,2.0,0.095
6.77,-0.089,0.697,0.141
6.78,-0.178,0.955,0.063
6.79,-0.333,0.392,-0.218
6.8,-0.257,2.0,0.106
6.81,-0.083,0.745,0.122
6.82,-0.067,0.681,-0.036
6.83,-0.417,0.773,-0.252
6.84,-0.102,1.599,0.135
6.85,-0.045,1.129,0.075
6.86,0.006,0.301,-0.072
6.87,-0.458,0.953,-0.189
6.88,-0.091,1.503,0.149
6.89,-0.146,1.314,0.101
6.9,0.001,0.452,-0.04
6.91,-0.49,0.744,-0.163
6.92,-0.062,1.644,0.197
6.93,-0.006,1.019,0.076
6.94,-0.126,0.783,-0.098
6.95,-0.36,0.275,-0.168
6.96,-0.219,1.827,0.148
6.97,-0.117,0.819,0.138
6.98,-0.152,0.926,-0.076
6.99,-0.352,0.309,-0.181
7.0,-0.122,1.535,0.098
7.01,-0.133,1.183,0.096
7.02,-0.031,0.537,-0.116
7.03,-0.467,0.907,-0.188
7.04,-0.027,1.072,0.137
7.05,-0.285,1.391,0.054
7.06,-0.083,0.474,-0.076
7.07,-0.424,0.76,-0.13
7.08,-0.106,1.202,0.116
7.09,-0.147,1.111,0.029
7.1,-0.119,0.879,-0.146
7.11,-0.385,0.29,-0.085
7.12,-0.22,1.396,0.22
7.13,-0.16,0.838,0.033
7.14,-0.262,0.97,-0.13
7.15,-0.417,0.394,-0.128
7.16,-0.139,1.217,0.17
7.17,-0.258,0.913,0.043
7.18,-0.326,0.725,-0.083
7.19,-0.292,1.078,-0.053
7.2,-0.074,0.89,0.203
7.21,-0.288,1.226,0.01
7.22,-0.23,0.338,-0.174
7.23,-0.309,1.555,-0.031
7.24,-0.004,0.767,0.165
7.25,-0.317,1.146,0.008
7.26,-0.241,0.596,-0.221
7.27,-0.348,1.296,-0.003
7.28,-0.083,0.961,0.154
7.29,-0.113,0.761,0.012
7.3,-0.416,0.963,-0.206
7.31,-0.201,1.138,0.07
7.32,-0.117,1.145,0.164
7.33,-0.078,0.677,0.037
7.34,-0.382,0.912,-0.187
7.35,-0.185,1.56,0.004
7.36,-0.098,0.801,0.135
7.37,-0.114,0.945,-0.017
7.38,-0.392,0.411,-0.256
7.39,-0.243,2.0,0.087
7.4,-0.043,0.608,0.097
7.41,-0.105,1.005,-0.009
7.42,-0.374,0.496,-0.204
7.43,-0.148,1.875,0.09
7.44,-0.121,0.945,0.151
7.45,0.01,0.505,0.006
7.46,-0.447,0.971,-0.236
7.47,-0.025,1.628,0.132
7.48,-0.264,1.229,0.241
7.49,0.012,0.365,0.016
7.5,-0.47,0.917,-0.221
7.51,0.045,1.781,0.1
7.52,-0.077,0.938,0.121
7.53,-0.031,0.685,-0.002
7.54,-0.393,0.4,-0.213
7.55,-0.185,2.0,0.142
7.56,-0.028,0.698,0.099
7.57,-0.123,0.886,-0.038
7.58,-0.35,0.302,-0.207
7.59,-0.162,1.977,0.165
7.6,-0.134,0.961,0.079
7.61,-0.027,0.471,-0.045
7.62,-0.505,0.864,-0.201
7.63,-0.099,1.378,0.172
7.64,-0.301,1.332,0.121
7.65,0.03,0.415,-0.011
7.66,-0.532,0.876,-0.148
7.67,-0.053,1.42,0.213
7.68,-0.291,1.142,0.166
7.69,-0.125,0.814,-0.088
7.7,-0.396,0.329,-0.165
7.71,-0.132,1.738,0.168
7.72,-0.092,0.85,0.101
7.73,-0.18,0.942,-0.092
7.74,-0.367,0.254,-0.206
7.75,-0.117,1.487,0.164
7.76,-0.213,0.981,0.005
7.77,-0.116,0.727,-0.153
7.78,-0.331,0.721,-0.192
7.79,-0.117,0.951,0.18
7.8,-0.293,1.422,0.047
7.81,-0.092,0.389,-0.125
7.82,-0.515,0.871,-0.144
7.83,-0.049,0.974,0.21
7.84,-0.238,1.266,0.043
7.85,-0.23,0.741,-0.155
7.86,-0.46,0.39,-0.06
7.87,-0.168,1.331,0.173
7.88,-0.144,0.847,-0.002
7.89,-0.249,0.954,-0.12
7.9,-0.392,0.468,-0.048
7.91,-0.114,1.248,0.157
7.92,-0.311,0.988,0.013
7.93,-0.29,0.668,-0.097
7.94,-0.364,1.09,-0.042
7.95,-0.035,0.831,0.158
7.96,-0.16,1.053,-0.025
7.97,-0.322,0.552,-0.253
7.98,-0.267,1.635,-0.028
7.99,-0.063,0.651,0.151
8.0,-0.269,1.196,0.034
8.01,-0.351,0.42,-0.201
8.02,-0.271,1.657,0.039
8.03,-0.064,0.895,0.105
8.04,-0.057,0.726,0.016
8.05,-0.418,0.945,-0.195
8.06,-0.201,1.341,0.077
8.07,-0.213,1.211,0.203
8.08,-0.063,0.431,0.06
8.09,-0.494,1.032,-0.185
8.1,-0.167,1.601,0.101
8.11,-0.123,0.976,0.116
8.12,-0.025,0.745,0.021
8.13,-0.369,0.54,-0.183
8.14,-0.145,2.0,0.106
8.15,-0.027,0.685,0.109
8.16,-0.138,0.935,-0.002
8.17,-0.381,0.333,-0.235
8.18,-0.032,2.0,0.063
8.19,-0.124,0.75,0.08
8.2,0.028,0.65,-0.047
8.21,-0.41,0.812,-0.246
8.22,-0.032,1.612,0.108
8.23,-0.156,1.197,0.137
8.24,0.084,0.291,-0.025
8.25,-0.433,1.037,-0.181
8.26,-0.1,1.576,0.075
8.27,-0.149,1.088,0.089
8.28,0.037,0.682,-0.067
8.29,-0.476,0.514,-0.174
8.3,-0.092,2.0,0.179
8.31,-0.039,0.767,0.02
8.32,-0.142,0.848,-0.042
8.33,-0.377,0.28,-0.19
8.34,-0.18,1.904,0.125
8.35,-0.093,0.885,0.09
8.36,-0.183,0.613,-0.032
8.37,-0.333,0.665,-0.198
8.38,-0.146,1.48,0.201
8.39,-0.232,1.304,0.092
8.4,-0.045,0.41,-0.035
8.41,-0.547,0.952,-0.13
8.42,0.01,1.424,0.218
8.43,-0.202,1.383,0.084
8.44,-0.042,0.52,-0.062
8.45,-0.435,0.56,-0.205
8.46,-0.135,1.581,0.155
8.47,-0.163,0.823,0.077
8.48,-0.17,1.061,-0.053
8.49,-0.359,0.133,-0.157
8.5,-0.168,1.619,0.201
8.51,-0.145,0.938,0.06
8.52,-0.164,0.853,-0.081
8.53,-0.365,0.567,-0.222
8.54,-0.068,1.189,0.19
8.55,-0.24,1.371,0.031
8.56,-0.013,0.42,-0.111
8.57,-0.498,0.99,-0.124
8.58,-0.005,0.963,0.186
8.59,-0.21,1.238,0.001
8.6,-0.106,0.691,-0.136
8.61,-0.441,0.586,-0.086
8.62,-0.154,1.197,0.201
8.63,-0.144,0.893,-0.001
8.64,-0.251,0.994,-0.1
8.65,-0.377,0.289,-0.123
8.66,-0.153,1.345,0.177
8.67,-0.213,0.885,-0.037
8.68,-0.303,0.781,-0.083
8.69,-0.412,0.793,-0.071
8.7,-0.025,1.042,0.205
8.71,-0.221,1.229,-0.017
8.72,-0.164,0.356,-0.152
8.73,-0.378,1.24,-0.079
8.74,-0.011,0.815,0.185
8.75,-0.299,1.292,0.059
8.76,-0.255,0.326,-0.207
8.77,-0.269,1.561,-0.119
8.78,0.004,0.799,0.086
8.79,-0.215,1.021,0.031
8.8,-0.347,0.711,-0.17
8.81,-0.253,1.153,-0.049
8.82,-0.167,1.127,0.152
8.83,-0.11,0.672,0.082
8.84,-0.412,1.076,-0.181
8.85,-0.327,1.173,0.057
8.86,-0.181,1.024,0.141
8.87,-0.138,0.806,0.023
8.88,-0.364,0.76,-0.146
8.89,-0.25,1.791,0.054
8.9,-0.066,0.683,0.179
8.91,-0.129,1.026,0.065
8.92,-0.296,0.37,-0.231
8.93,-0.305,1.921,0.104
8.94,-0.059,0.787,0.152
8.95,-0.198,0.785,0.024
8.96,-0.344,0.728,-0.173
8.97,-0.293,1.625,0.11
8.98,-0.206,1.017,0.17
8.99,0.013,0.441,0.051
9.0,-0.515,1.078,-0.116
9.01,-0.149,1.45,0.112
9.02,-0.301,1.082,0.172
9.03,0.003,0.558,0.049
9.04,-0.541,0.755,-0.135
9.05,-0.044,1.96,0.112
9.06,-0.136,0.79,0.145
9.07,-0.012,0.842,-0.003
9.08,-0.35,0.3,-0.208
9.09,-0.06,2.0,0.065
9.1,-0.088,0.672,0.115
9.11,-0.057,0.791,-0.03
9.12,-0.373,0.546,-0.212
9.13,-0.031,1.824,0.084
9.14,-0.171,1.024,0.132
9.15,0.126,0.332,-0.09
9.16,-0.488,0.997,-0.164
9.17,-0.015,1.57,0.062
9.18,-0.253,1.192,0.099
9.19,0.095,0.425,-0.025
9.2,-0.427,0.812,-0.25
9.21,-0.023,1.835,0.044
9.22,-0.119,0.871,0.066
9.23,-0.021,0.811,-0.107
9.24,-0.395,0.315,-0.172
9.25,-0.089,2.0,0.12
9.26,-0.094,0.717,0.061
9.27,-0.071,0.792,-0.054
9.28,-0.45,0.337,-0.187
9.29,-0.011,1.667,0.153
9.3,-0.178,1.134,0.047
9.31,0.034,0.435,-0.069
9.32,-0.508,0.92,-0.185
9.33,0.032,1.424,0.184
9.34,-0.296,1.395,0.097
9.35,-0.013,0.442,-0.038
9.36,-0.413,0.826,-0.215
9.37,-0.085,1.521,0.166
9.38,-0.058,1.026,0.048
9.39,-0.115,0.829,-0.11
9.4,-0.341,0.278,-0.19
9.41,-0.229,1.654,0.215
9.42,-0.144,0.808,0.129
9.43,-0.186,1.006,-0.042
9.44,-0.471,0.247,-0.123
9.45,-0.127,1.436,0.225
9.46,-0.217,1.174,0.067
9.47,-0.014,0.648,-0.099
9.48,-0.448,0.827,-0.171
9.49,0.048,1.045,0.154
9.5,-0.311,1.373,0.062
9.51,-0.018,0.505,-0.099
9.52,-0.502,0.88,-0.149
9.53,-0.049,1.091,0.156
9.54,-0.189,1.142,0.011
9.55,-0.154,0.803,-0.109
9.56,-0.458,0.364,-0.123
9.57,-0.045,1.162,0.182
9.58,-0.184,0.821,0.033
9.59,-0.321,0.922,-0.119
9.6,-0.408,0.536,-0.051
9.61,-0.152,1.271,0.154
9.62,-0.23,0.875,0.034
9.63,-0.33,0.753,-0.128
9.64,-0.247,1.016,-0.084
9.65,-0.078,0.932,0.171
9.66,-0.288,1.214,0.003
9.67,-0.193,0.41,-0.192
9.68,-0.328,1.559,-0.117
9.69,0.058,0.722,0.155
9.7,-0.268,1.236,0.003
9.71,-0.278,0.514,-0.224
9.72,-0.274,1.366,-0.069
9.73,-0.059,1.016,0.158
9.74,-0.083,0.737,0.046
9.75,-0.418,0.94,-0.18
9.76,-0.18,1.09,-0.015
9.77,-0.169,1.161,0.159
9.78,-0.059,0.665,0.032
9.79,-0.408,0.958,-0.229
9.8,-0.172,1.408,-0.008
9.81,-0.071,0.84,0.111
9.82,-0.068,0.974,-0.045
9.83,-0.304,0.5,-0.214
9.84,-0.286,1.878,-0.006
9.85,-0.021,0.59,0.109
9.86,-0.137,1.134,0.025
9.87,-0.318,0.476,-0.298
9.88,-0.268,1.752,0.001
9.89,-0.12,0.833,0.095
9.9,-0.042,0.629,0.051
9.91,-0.484,0.988,-0.155
9.92,-0.177,1.4,0.074
9.93,-0.2,1.144,0.163
9.94,0.053,0.446,0.051
9.95,-0.5,0.961,-0.195
9.96,-0.083,1.711,0.101
9.97,-0.218,0.969,0.159
9.98,-0.098,0.688,0.019
9.99,-0.484,0.462,-0.184
10.0,-0.091,2.0,0.096
10.01,-0.132,0.546,0.159
10.02,-0.092,0.923,0.021
10.03,-0.416,0.342,-0.21
10.04,-0.122,2.0,0.103
10.05,-0.061,0.854,0.053
10.06,-0.034,0.521,0.005
10.07,-0.45,0.824,-0.229
10.08,0.006,1.642,0.177
10.09,-0.261,1.266,0.126
10.1,0.072,0.267,-0.024
10.11,-0.466,1.015,-0.229
10.12,-0.003,1.598,0.08
10.13,-0.148,1.07,0.036
10.14,-0.014,0.632,-0.039
10.15,-0.411,0.426,-0.173
10.16,-0.151,1.765,0.182
10.17,-0.053,0.849,0.114
10.18,-0.157,0.933,-0.09
10.19,-0.349,0.226,-0.151
10.2,-0.169,1.856,0.208
10.21,-0.18,0.974,0.103
10.22,-0.094,0.677,-0.048
10.23,-0.437,0.637,-0.193
10.24,-0.032,1.362,0.203
10.25,-0.226,1.325,0.064
10.26,-0.016,0.388,-0.058
10.27,-0.406,0.953,-0.165
10.28,-0.098,1.168,0.152
10.29,-0.293,1.237,0.071
10.3,-0.097,0.725,-0.075
10.31,-0.473,0.447,-0.1
10.32,-0.122,1.452,0.176
10.33,-0.139,0.91,0.1
10.34,-0.178,1.07,-0.143
10.35,-0.461,0.173,-0.115
10.36,-0.163,1.441,0.214
10.37,-0.2,0.804,0.07
10.38,-0.288,0.927,-0.111
10.39,-0.415,0.59,-0.033
10.4,-0.089,1.093,0.134
10.41,-0.323,1.125,0.01
10.42,-0.169,0.507,-0.136
10.43,-0.389,1.285,-0.045
10.44,-0.001,0.747,0.189
10.45,-0.318,1.317,0.017
10.46,-0.272,0.334,-0.136
10.47,-0.292,1.333,-0.038
10.48,-0.05,0.834,0.158
10.49,-0.21,0.952,-0.036
10.5,-0.327,0.79,-0.198
10.51,-0.222,1.02,-0.055
10.52,-0.092,1.161,0.124
10.53,-0.115,0.671,0.004
10.54,-0.426,1.039,-0.203
10.55,-0.224,1.154,0.003
10.56,-0.114,1.033,0.116
10.57,-0.178,0.869,0.002
10.58,-0.407,0.676,-0.191
10.59,-0.507,1.003,-0.089
10.6,-0.013,0.87,0.183
10.61,-0.372,1.304,0.054
10.62,-0.166,0.335,-0.104
10.63,-0.405,1.274,-0.048
10.64,-0.018,0.831,0.219
10.65,-0.331,1.115,0.028
10.66,-0.279,0.665,-0.198
10.67,-0.283,0.898,-0.039
10.68,-0.174,1.115,0.149
10.69,-0.133,0.747,0.012
10.7,-0.372,0.932,-0.189
10.71,-0.157,1.052,-0.01
10.72,-0.052,1.15,0.144
10.73,-0.14,0.735,-0.011
10.74,-0.406,0.819,-0.146
10.75,-0.239,1.535,-0.008
10.76,-0.065,0.749,0.114
10.77,-0.213,1.103,-0.013
10.78,-0.364,0.415,-0.229
10.79,-0.306,1.881,0.083
10.8,-0.077,0.659,0.152
10.81,-0.131,0.981,0.048
10.82,-0.354,0.644,-0.173
10.83,-0.236,1.629,0.106
10.84,-0.109,1.116,0.209
10.85,-0.004,0.449,0.043
10.86,-0.502,1.0,-0.176
10.87,-0.082,1.512,0.128
10.88,-0.224,1.063,0.146
10.89,-0.042,0.565,0.058
10.9,-0.498,0.86,-0.198
10.91,-0.064,1.861,0.082
10.92,-0.139,0.728,0.097
10.93,0.018,0.864,0.022
10.94,-0.36,0.41,-0.209
10.95,-0.142,2.0,0.094
10.96,-0.085,0.677,0.129
10.97,-0.028,0.866,0.002
10.98,-0.453,0.42,-0.214
10.99,-0.028,1.918,0.127
11.0,-0.167,1.07,0.057
11.01,0.044,0.299,-0.056
11.02,-0.547,0.979,-0.16
11.03,-0.007,1.537,0.166
11.04,-0.247,1.229,0.089
11.05,0.056,0.391,0.008
11.06,-0.525,0.843,-0.181
11.07,-0.043,1.664,0.116
11.08,-0.148,0.996,0.104
11.09,-0.106,0.741,-0.05
11.1,-0.491,0.497,-0.151
11.11,-0.174,1.59,0.228
11.12,-0.145,0.843,0.111
11.13,-0.187,1.035,-0.072
11.14,-0.373,0.139,-0.182
11.15,-0.175,1.624,0.152
11.16,-0.141,0.965,0.052
11.17,-0.11,0.831,-0.08
11.18,-0.386,0.547,-0.196
11.19,-0.08,1.147,0.243
11.2,-0.183,1.348,0.006
11.21,-0.006,0.451,-0.123
11.22,-0.482,0.958,-0.111
11.23,-0.068,1.021,0.196
11.24,-0.347,1.362,0.112
11.25,-0.091,0.577,-0.117
11.26,-0.484,0.637,-0.116
11.27,-0.054,1.274,0.15
11.28,-0.163,0.9,-0.025
11.29,-0.25,0.982,-0.106
11.3,-0.42,0.279,-0.111
11.31,-0.104,1.345,0.178
11.32,-0.166,0.831,0.021
11.33,-0.332,0.746,-0.134
11.34,-0.339,0.759,-0.113
11.35,-0.083,0.998,0.133
11.36,-0.306,1.243,-0.004
11.37,-0.086,0.373,-0.16
11.38,-0.447,1.342,-0.06
11.39,-0.036,0.763,0.204
11.4,-0.367,1.239,0.057
11.41,-0.273,0.494,-0.141
11.42,-0.386,1.078,-0.02
11.43,-0.092,1.049,0.145
11.44,-0.2,0.832,0.005
11.45,-0.342,0.876,-0.155
11.46,-0.215,0.975,-0.048
11.47,-0.013,1.295,0.165
11.48,-0.151,0.669,0.016
11.49,-0.354,1.021,-0.169
11.5,-0.291,1.272,-0.019
11.51,-0.045,0.954,0.115
11.52,-0.196,1.033,-0.023
11.53,-0.278,0.539,-0.25
11.54,-0.261,1.816,-0.01
11.55,-0.028,0.654,0.128
11.56,-0.11,1.096,0.036
11.57,-0.358,0.485,-0.274
11.58,-0.24,1.722,0.04
11.59,-0.116,0.911,0.115
11.6,-0.031,0.646,0.054
11.61,-0.438,0.968,-0.211
11.62,-0.149,1.381,0.067
11.63,-0.291,1.15,0.19
11.64,0.05,0.457,0.087
11.65,-0.572,1.018,-0.179
11.66,-0.147,1.58,0.083
11.67,-0.196,0.919,0.099
11.68,-0.017,0.779,0.025
11.69,-0.402,0.549,-0.207
11.7,-0.164,2.0,0.072
11.71,-0.081,0.632,0.143
11.72,-0.153,0.951,0.054
11.73,-0.394,0.397,-0.186
11.74,-0.176,2.0,0.077
11.75,-0.13,0.794,0.12
11.76,-0.028,0.617,0.007
11.77,-0.49,0.879,-0.111
11.78,-0.12,1.621,0.153
11.79,-0.21,1.193,0.217
11.8,0.031,0.314,-0.005
11.81,-0.546,0.996,-0.142
11.82,-0.004,1.67,0.132
11.83,-0.166,1.067,0.144
11.84,-0.022,0.551,-0.036
11.85,-0.411,0.563,-0.176
11.86,-0.093,1.976,0.069
11.87,-0.005,0.736,0.109
11.88,-0.16,0.852,-0.029
11.89,-0.334,0.286,-0.188
11.9,-0.22,1.935,0.144
11.91,-0.08,0.801,0.141
11.92,-0.205,0.943,-0.059
11.93,-0.381,0.339,-0.231
11.94,-0.096,1.634,0.189
11.95,-0.164,1.25,0.094
11.96,-0.051,0.39,-0.024
11.97,-0.524,0.965,-0.204
11.98,-0.047,1.217,0.201
11.99,-0.276,1.291,0.111
12.0,-0.008,0.562,-0.025
12.01,-0.519,0.714,-0.139
12.02,-0.055,1.371,0.183
12.03,-0.122,1.094,-0.0
12.04,-0.18,0.952,-0.058
12.05,-0.459,0.206,-0.142
12.06,-0.19,1.649,0.194
12.07,-0.067,0.863,0.11
12.08,-0.198,0.949,-0.103
12.09,-0.363,0.394,-0.144
12.1,-0.185,1.284,0.165
12.11,-0.144,1.081,-0.053
12.12,-0.06,0.564,-0.148
12.13,-0.397,0.874,-0.172
12.14,-0.052,0.9,0.2
12.15,-0.252,1.281,0.021
12.16,-0.162,0.456,-0.099
12.17,-0.476,0.798,-0.107
12.18,-0.202,1.009,0.272
12.19,-0.22,1.149,0.072
12.2,-0.245,0.771,-0.082
12.21,-0.436,0.44,-0.061
12.22,-0.183,1.331,0.206
12.23,-0.158,0.778,0.052
12.24,-0.311,0.899,-0.101
12.25,-0.405,0.565,-0.066
12.26,-0.091,1.232,0.124
12.27,-0.304,0.926,0.002
12.28,-0.215,0.612,-0.14
12.29,-0.503,0.965,-0.069
12.3,-0.018,0.816,0.191
12.31,-0.322,1.44,0.005
12.32,-0.136,0.231,-0.14
12.33,-0.327,1.335,-0.066
12.34,0.009,0.87,0.143
12.35,-0.276,1.057,0.039
12.36,-0.299,0.698,-0.125
12.37,-0.307,0.865,-0.046
12.38,-0.202,1.192,0.215
12.39,-0.177,0.729,0.04
12.4,-0.408,0.996,-0.144
12.41,-0.324,0.786,0.005
12.42,-0.165,1.147,0.179
12.43,-0.243,0.967,-0.021
12.44,-0.302,0.661,-0.138
12.45,-0.264,1.451,-0.061
12.46,0.018,0.747,0.095
12.47,-0.294,1.189,0.01
12.48,-0.265,0.401,-0.226
12.49,-0.331,1.682,-0.016
12.5,-0.062,0.72,0.103
12.51,-0.255,1.039,0.04
12.52,-0.328,0.619,-0.161
12.53,-0.264,1.403,-0.003
12.54,-0.083,1.081,0.128
12.55,-0.051,0.566,0.004
12.56,-0.448,1.037,-0.205
12.57,-0.15,1.267,0.008
12.58,-0.228,1.043,0.155
12.59,-0.032,0.721,0.035
12.6,-0.457,0.814,-0.2
12.61,-0.22,1.745,0.015
12.62,-0.204,0.695,0.152
12.63,-0.109,0.993,0.006
12.64,-0.379,0.347,-0.222
12.65,-0.19,2.0,0.021
12.66,-0.154,0.684,0.141
12.67,-0.102,0.875,0.025
12.68,-0.441,0.525,-0.171
12.69,-0.169,1.801,0.123
12.7,-0.069,0.794,0.111
12.71,-0.07,0.573,-0.013
12.72,-0.4,0.806,-0.182
12.73,-0.037,1.753,0.132
12.74,-0.193,1.193,0.123
12.75,0.13,0.328,-0.003
12.76,-0.49,0.976,-0.246
12.77,-0.024,1.591,0.131
12.78,-0.133,1.163,0.089
12.79,-0.012,0.575,-0.07
12.8,-0.362,0.494,-0.18
12.81,-0.127,1.827,0.162
12.82,-0.071,0.782,0.07
12.83,-0.128,0.95,-0.054
12.84,-0.455,0.217,-0.151
12.85,-0.117,1.896,0.189
12.86,-0.134,0.927,0.054
12.87,-0.09,0.641,-0.066
12.88,-0.421,0.686,-0.189
12.89,-0.073,1.323,0.183
12.9,-0.267,1.302,0.101
12.91,-0.014,0.452,-0.057
12.92,-0.551,0.901,-0.131
12.93,-0.039,1.207,0.215
12.94,-0.272,1.304,0.042
12.95,-0.094,0.648,-0.038
12.96,-0.486,0.531,-0.137
12.97,-0.17,1.521,0.161
12.98,-0.111,0.905,0.101
12.99,-0.225,1.0,-0.082
13.0,-0.392,0.171,-0.143
13.01,-0.194,1.475,0.178
13.02,-0.127,0.925,0.025
13.03,-0.149,0.855,-0.132
13.04,-0.41,0.556,-0.186
13.05,-0.053,1.089,0.217
13.06,-0.261,1.325,-0.018
13.07,-0.045,0.412,-0.094
13.08,-0.503,1.026,-0.135
13.09,0.006,0.889,0.199
13.1,-0.32,1.334,0.02
13.11,-0.14,0.559,-0.115
13.12,-0.455,0.719,-0.046
13.13,-0.132,1.159,0.203
13.14,-0.148,0.87,0.011
13.15,-0.278,0.911,-0.135
13.16,-0.417,0.419,-0.017
13.17,-0.167,1.312,0.177
13.18,-0.223,0.819,0.051
13.19,-0.348,0.801,-0.122
13.2,-0.297,0.874,-0.056
13.21,-0.086,0.987,0.142
13.22,-0.309,1.205,0.017
13.23,-0.201,0.396,-0.097
13.24,-0.405,1.513,-0.027
13.25,-0.048,0.736,0.198
13.26,-0.33,1.284,0.027
13.27,-0.316,0.427,-0.224
13.28,-0.267,1.293,-0.02
13.29,-0.108,0.936,0.157
13.3,-0.099,0.8,0.009
13.31,-0.396,0.956,-0.206
13.32,-0.187,1.029,0.009
13.33,-0.187,1.203,0.144
13.34,-0.084,0.655,0.017
13.35,-0.423,0.937,-0.189
13.36,-0.19,1.332,0.006
13.37,-0.147,0.891,0.116
13.38,-0.119,0.99,-0.014
13.39,-0.35,0.506,-0.219
13.4,-0.258,1.877,0.047
13.41,-0.06,0.671,0.126
13.42,-0.167,1.04,0.027
13.43,-0.362,0.433,-0.258
13.44,-0.249,1.825,0.044
13.45,-0.137,0.841,0.102
13.46,-0.084,0.656,0.024
13.47,-0.423,0.952,-0.206
13.48,-0.185,1.454,0.042
13.49,-0.223,1.083,0.115
13.5,0.087,0.49,0.011
13.51,-0.515,1.029,-0.182
13.52,-0.008,1.62,0.116
13.53,-0.227,1.163,0.137
13.54,0.085,0.462,0.009
13.55,-0.503,0.809,-0.174
13.56,-0.033,1.87,0.139
13.57,-0.047,0.831,0.09
13.58,-0.071,0.808,-0.058
13.59,-0.288,0.322,-0.231
13.6,-0.187,2.0,0.074
13.61,-0.015,0.728,0.126
13.62,-0.099,0.733,-0.063
13.63,-0.365,0.452,-0.195
13.64,-0.113,1.754,0.095
13.65,-0.136,1.113,0.014
13.66,0.004,0.447,-0.055
13.67,-0.396,0.969,-0.223
13.68,-0.055,1.47,0.164
13.69,-0.146,1.363,0.09
13.7,-0.014,0.347,-0.043
13.71,-0.415,0.853,-0.166
13.72,-0.149,1.605,0.136
13.73,-0.13,0.963,0.109
13.74,-0.155,0.866,-0.052
13.75,-0.397,0.24,-0.154
13.76,-0.234,1.798,0.221
13.77,-0.094,0.805,0.109
13.78,-0.214,0.94,-0.056
13.79,-0.351,0.311,-0.176
13.8,-0.141,1.576,0.173
13.81,-0.176,1.172,0.085
13.82,-0.068,0.553,-0.085
13.83,-0.483,0.857,-0.158
13.84,-0.004,1.139,0.205
13.85,-0.29,1.437,0.125
13.86,-0.046,0.448,-0.059
13.87,-0.473,0.85,-0.165
13.88,-0.083,1.233,0.144
13.89,-0.188,1.086,0.031
13.9,-0.103,0.927,-0.095
13.91,-0.4,0.292,-0.122
13.92,-0.192,1.433,0.222
13.93,-0.092,0.837,0.041
13.94,-0.153,1.03,-0.144
13.95,-0.421,0.348,-0.167
13.96,-0.124,1.25,0.201
13.97,-0.222,1.04,0.02
13.98,-0.14,0.557,-0.159
13.99,-0.514,0.911,-0.108
14.0,-0.008,0.857,0.219
14.01,-0.392,1.396,0.004
14.02,-0.124,0.322,-0.08
14.03,-0.585,1.007,-0.019
14.04,-0.052,0.919,0.211
14.05,-0.318,1.133,0.06
14.06,-0.25,0.692,-0.095
14.07,-0.487,0.613,-0.004
14.08,-0.125,1.225,0.154
14.09,-0.169,0.769,0.01
14.1,-0.348,0.896,-0.122
14.11,-0.339,0.606,0.004
14.12,-0.123,1.219,0.143
14.13,-0.246,0.987,0.034
14.14,-0.247,0.687,-0.183
14.15,-0.365,1.144,-0.068
14.16,-0.008,0.83,0.141
14.17,-0.306,1.347,0.037
14.18,-0.214,0.336,-0.162
14.19,-0.338,1.526,-0.086
14.2,0.039,0.815,0.098
14.21,-0.251,1.121,0.011
14.22,-0.249,0.635,-0.212
14.23,-0.315,1.297,0.038
14.24,-0.07,1.167,0.16
14.25,-0.122,0.566,0.046
14.26,-0.395,1.115,-0.186
14.27,-0.251,1.241,-0.034
14.28,-0.12,1.0,0.084
14.29,-0.05,0.771,0.013
14.3,-0.442,0.803,-0.229
14.31,-0.174,1.598,0.086
14.32,-0.259,0.783,0.112
14.33,-0.006,0.851,0.008
14.34,-0.406,0.529,-0.166
14.35,-0.204,2.0,0.111
14.36,-0.067,0.712,0.187
14.37,-0.124,0.874,0.017
14.38,-0.336,0.327,-0.226
14.39,-0.102,2.0,0.133
14.4,-0.105,0.786,0.115
14.41,-0.063,0.584,-0.028
14.42,-0.415,0.822,-0.23
14.43,-0.036,1.618,0.138
14.44,-0.167,1.226,0.141
14.45,0.059,0.274,-0.03
14.46,-0.517,0.99,-0.18
14.47,-0.052,1.575,0.129
14.48,-0.113,1.11,0.111
14.49,-0.027,0.601,-0.049
14.5,-0.493,0.515,-0.158
14.51,-0.19,1.915,0.188
14.52,-0.059,0.717,0.093
14.53,-0.084,0.923,-0.038
14.54,-0.45,0.222,-0.114
14.55,-0.173,1.784,0.132
14.56,-0.114,0.941,0.098
14.57,-0.098,0.689,-0.053
14.58,-0.425,0.643,-0.176
14.59,-0.056,1.46,0.165
14.6,-0.257,1.326,0.125
14.61,-0.014,0.41,-0.049
14.62,-0.588,0.936,-0.185
14.63,-0.01,1.229,0.225
14.64,-0.224,1.3,0.104
14.65,-0.134,0.581,-0.054
14.66,-0.417,0.561,-0.174
14.67,-0.192,1.508,0.206
14.68,-0.111,0.816,0.091
14.69,-0.233,1.1,-0.072
14.7,-0.376,0.143,-0.16
14.71,-0.253,1.635,0.22
14.72,-0.149,1.002,0.094
14.73,-0.131,0.785,-0.063
14.74,-0.443,0.603,-0.204
14.75,-0.016,1.234,0.146
14.76,-0.269,1.245,0.105
14.77,-0.022,0.485,-0.095
14.78,-0.527,0.977,-0.142
14.79,-0.048,1.018,0.104
14.8,-0.189,1.249,0.065
14.81,-0.111,0.59,-0.148
14.82,-0.437,0.654,-0.119
14.83,-0.158,1.246,0.178
14.84,-0.109,0.991,0.028
14.85,-0.158,0.934,-0.119
14.86,-0.358,0.283,-0.152
14.87,-0.218,1.395,0.156
14.88,-0.089,0.765,-0.07
14.89,-0.25,0.891,-0.174
14.9,-0.328,0.586,-0.203
14.91,-0.08,1.085,0.168
14.92,-0.155,1.235,-0.034
14.93,-0.114,0.387,-0.145
14.94,-0.458,1.069,-0.113
14.95,-0.016,0.871,0.181
14.96,-0.283,1.309,-0.041
14.97,-0.12,0.415,-0.132
14.98,-0.414,0.933,-0.107
14.99,-0.048,1.109,0.116
15.0,-0.255,0.811,0.071
15.01,-0.282,0.916,-0.118
15.02,-0.399,0.47,-0.006
15.03,-0.181,1.312,0.165
15.04,-0.196,0.778,0.061
15.05,-0.313,0.823,-0.106
15.06,-0.365,0.782,-0.058
15.07,-0.06,1.054,0.128
15.08,-0.343,1.14,0.026
15.09,-0.203,0.408,-0.127
15.1,-0.399,1.352,-0.033
15.11,-0.049,0.825,0.165
15.12,-0.238,1.184,0.031
15.13,-0.248,0.416,-0.213
15.14,-0.314,1.65,-0.021
15.15,-0.052,0.764,0.121
15.16,-0.277,1.031,0.042
15.17,-0.281,0.626,-0.151
15.18,-0.331,1.36,0.022
15.19,-0.074,1.066,0.169
15.2,-0.085,0.644,0.001
15.21,-0.418,1.063,-0.18
15.22,-0.201,1.171,0.034
15.23,-0.183,1.089,0.116
15.24,-0.118,0.731,0.031
15.25,-0.457,0.836,-0.22
15.26,-0.208,1.642,0.075
15.27,-0.112,0.804,0.161
15.28,-0.157,0.94,0.011
15.29,-0.328,0.454,-0.209
15.3,-0.351,1.988,0.059
15.31,-0.1,0.639,0.129
15.32,-0.175,0.968,0.049
15.33,-0.399,0.547,-0.243
15.34,-0.189,1.695,0.04
15.35,-0.215,0.959,0.105
15.36,0.02,0.484,0.032
15.37,-0.485,1.014,-0.173
15.38,-0.146,1.465,0.11
15.39,-0.262,1.131,0.168
15.4,-0.004,0.479,0.067
15.41,-0.57,0.855,-0.169
15.42,-0.072,1.84,0.099
15.43,-0.206,0.769,0.122
15.44,-0.024,0.874,0.021
15.45,-0.4,0.426,-0.169
15.46,-0.218,2.0,0.137
15.47,-0.088,0.626,0.133
15.48,-0.029,0.891,-0.018
15.49,-0.444,0.338,-0.219
15.5,-0.115,1.962,0.126
15.51,-0.151,0.955,0.136
15.52,-0.066,0.392,0.008
15.53,-0.561,0.902,-0.175
15.54,-0.046,1.684,0.146
15.55,-0.303,1.255,0.175
15.56,0.044,0.302,0.02
15.57,-0.546,0.935,-0.175
15.58,-0.08,1.618,0.136
15.59,-0.148,1.023,0.082
15.6,-0.093,0.706,-0.04
15.61,-0.382,0.359,-0.179
15.62,-0.222,2.0,0.119
15.63,-0.104,0.755,0.156
15.64,-0.174,0.883,-0.063
15.65,-0.413,0.307,-0.2
15.66,-0.136,1.793,0.154
15.67,-0.188,1.043,0.114
15.68,-0.066,0.514,-0.096
15.69,-0.43,0.814,-0.171
15.7,-0.093,1.324,0.209
15.71,-0.238,1.375,0.148
15.72,-0.057,0.371,-0.065
15.73,-0.444,0.894,-0.171
15.74,-0.038,1.41,0.114
15.75,-0.198,1.141,0.107
15.76,-0.054,0.792,-0.063
15.77,-0.497,0.364,-0.164
15.78,-0.17,1.627,0.199
15.79,-0.156,0.881,0.12
15.8,-0.134,1.018,-0.048
15.81,-0.441,0.179,-0.17
15.82,-0.155,1.511,0.125
15.83,-0.185,1.013,0.01
15.84,-0.141,0.777,-0.081
15.85,-0.452,0.705,-0.138
15.86,-0.094,1.106,0.197
15.87,-0.247,1.458,0.086
15.88,-0.078,0.42,-0.068
15.89,-0.476,0.962,-0.111
15.9,-0.171,1.037,0.173
15.91,-0.294,1.353,-0.029
15.92,-0.15,0.406,-0.115
15.93,-0.414,0.91,-0.097
15.94,-0.083,1.04,0.106
15.95,-0.115,0.906,-0.012
15.96,-0.287,0.875,-0.148
15.97,-0.17,0.637,-0.068
15.98,-0.271,1.233,0.138
15.99,-0.093,0.735,0.058
16.0,-0.434,0.89,-0.136
16.01,-0.2,0.915,-0.069
16.02,-0.151,1.067,0.11
16.03,-0.241,1.071,-0.063
16.04,-0.242,0.488,-0.16
16.05,-0.324,1.428,-0.072
16.06,-0.044,0.719,0.131
16.07,-0.33,1.337,0.025
16.08,-0.289,0.328,-0.163
16.09,-0.335,1.418,0.009
16.1,-0.048,0.874,0.137
16.11,-0.291,0.93,-0.025
16.12,-0.33,0.755,-0.146
16.13,-0.314,1.116,0.002
16.14,-0.078,1.178,0.151
16.15,-0.105,0.626,0.007
16.16,-0.459,1.007,-0.165
16.17,-0.216,1.259,0.047
16.18,-0.143,0.968,0.128
16.19,-0.14,0.83,-0.031
16.2,-0.339,0.576,-0.224
16.21,-0.266,1.826,0.049
16.22,-0.075,0.616,0.088
16.23,-0.193,1.032,-0.015
16.24,-0.424,0.315,-0.212
16.25,-0.176,2.0,0.032
16.26,-0.174,0.683,0.134
16.27,-0.029,0.737,-0.002
16.28,-0.51,0.723,-0.221
16.29,-0.066,1.693,0.127
16.3,-0.248,1.132,0.115
16.31,0.049,0.363,0.009
16.32,-0.54,1.013,-0.14
16.33,-0.041,1.654,0.132
16.34,-0.167,1.163,0.122
16.35,0.06,0.502,-0.054
16.36,-0.365,0.584,-0.202
16.37,-0.084,1.913,0.088
16.38,-0.014,0.821,0.136
16.39,-0.16,0.874,-0.023
16.4,-0.322,0.204,-0.167
16.41,-0.176,2.0,0.131
16.42,-0.094,0.786,0.101
16.43,-0.102,0.697,-0.07
16.44,-0.369,0.554,-0.207
16.45,-0.113,1.59,0.139
16.46,-0.123,1.241,0.057
16.47,0.015,0.43,-0.079
16.48,-0.438,0.931,-0.162
16.49,-0.053,1.349,0.136
16.5,-0.247,1.329,0.103
16.51,-0.051,0.559,-0.059
16.52,-0.443,0.631,-0.09
16.53,-0.186,1.522,0.182
16.54,-0.134,0.947,0.125
16.55,-0.107,1.042,-0.125
16.56,-0.414,0.197,-0.11
16.57,-0.151,1.51,0.187
16.58,-0.124,0.874,0.049
16.59,-0.194,0.906,-0.086
16.6,-0.396,0.546,-0.142
16.61,-0.179,1.103,0.232
16.62,-0.175,1.259,-0.031
16.63,-0.14,0.5,-0.103
16.64,-0.443,1.003,-0.1
16.65,-0.166,0.818,0.221
16.66,-0.301,1.377,-0.024
16.67,-0.229,0.408,-0.102
16.68,-0.359,0.897,-0.047
16.69,-0.144,1.056,0.191
16.7,-0.244,0.875,0.04
16.71,-0.33,0.903,-0.132
16.72,-0.362,0.957,-0.043
16.73,-0.185,1.187,0.179
16.74,-0.179,0.718,0.032
16.75,-0.429,0.951,-0.178
16.76,-0.143,1.01,-0.003
16.77,-0.112,1.136,0.142
16.78,-0.113,0.823,-0.026
16.79,-0.324,0.773,-0.205
16.8,-0.222,1.595,-0.039
16.81,-0.05,0.754,0.122
16.82,-0.225,1.097,0.031
16.83,-0.374,0.405,-0.213
16.84,-0.314,1.868,0.081
16.85,-0.07,0.692,0.144
16.86,-0.234,0.979,0.032
16.87,-0.389,0.62,-0.177
16.88,-0.301,1.632,0.052
16.89,-0.11,1.07,0.171
16.9,0.018,0.528,0.013
16.91,-0.515,1.001,-0.206
16.92,-0.11,1.484,0.054
16.93,-0.243,1.072,0.134
16.94,0.019,0.58,0.045
16.95,-0.426,0.88,-0.185
16.96,-0.203,1.764,0.087
16.97,-0.17,0.729,0.169
16.98,-0.087,0.896,-0.014
16.99,-0.341,0.357,-0.196
17.0,-0.182,2.0,0.058
17.01,-0.032,0.656,0.111
17.02,-0.05,0.84,-0.034
17.03,-0.367,0.437,-0.223
17.04,-0.035,1.942,0.102
17.05,-0.123,0.995,0.048
17.06,0.055,0.366,-0.062
17.07,-0.493,0.945,-0.201
17.08,-0.038,1.594,0.133
17.09,-0.238,1.293,0.107
17.1,0.031,0.328,0.009
17.11,-0.493,0.829,-0.193
17.12,-0.064,1.773,0.184
17.13,-0.163,0.885,0.119
17.14,-0.096,0.797,-0.077
17.15,-0.413,0.319,-0.168
17.16,-0.124,2.0,0.154
17.17,-0.121,0.771,0.078
17.18,-0.171,0.799,-0.084
17.19,-0.343,0.327,-0.174
17.2,-0.113,1.612,0.181
17.21,-0.239,1.077,0.157
17.22,-0.089,0.546,-0.077
17.23,-0.427,0.829,-0.15
17.24,-0.062,1.357,0.169
17.25,-0.282,1.385,0.122
17.26,-0.065,0.422,-0.046
17.27,-0.559,0.845,-0.164
17.28,-0.023,1.356,0.191
17.29,-0.209,1.214,0.061
17.3,-0.119,0.793,-0.082
17.31,-0.411,0.297,-0.119
17.32,-0.203,1.557,0.123
17.33,-0.126,0.823,0.043
17.34,-0.201,1.117,-0.136
17.35,-0.379,0.261,-0.15
17.36,-0.183,1.307,0.204
17.37,-0.157,1.123,-0.064
17.38,-0.076,0.641,-0.107
17.39,-0.483,0.867,-0.144
17.4,0.019,0.915,0.225
17.41,-0.345,1.356,-0.053
17.42,-0.058,0.398,-0.096
17.43,-0.478,0.999,-0.109
17.44,-0.025,0.985,0.136
17.45,-0.254,1.091,0.01
17.46,-0.287,0.687,-0.148
17.47,-0.423,0.546,-0.026
17.48,-0.179,1.264,0.188
17.49,-0.183,0.789,0.026
17.5,-0.289,0.885,-0.115
17.51,-0.253,0.808,-0.09
17.52,-0.04,1.284,0.151
17.53,-0.097,0.651,-0.023
17.54,-0.427,0.976,-0.197
17.55,-0.196,1.321,-0.005
17.56,-0.18,0.903,0.134
17.57,-0.142,1.02,-0.001
17.58,-0.346,0.529,-0.216
17.59,-0.335,1.788,0.046
17.6,-0.084,0.63,0.136
17.61,-0.21,1.096,0.024
17.62,-0.354,0.402,-0.188
17.63,-0.249,1.787,0.031
17.64,-0.047,0.961,0.149
17.65,0.003,0.569,-0.002
17.66,-0.471,0.999,-0.212
17.67,-0.208,1.321,0.041
17.68,-0.268,1.101,0.138
17.69,-0.061,0.507,0.025
17.7,-0.517,0.979,-0.193
17.71,-0.16,1.581,0.054
17.72,-0.165,0.896,0.105
17.73,-0.073,0.738,0.04
17.74,-0.385,0.528,-0.137
17.75,-0.173,2.0,0.067
17.76,-0.025,0.761,0.169
17.77,-0.149,0.865,0.015
17.78,-0.372,0.304,-0.212
17.79,-0.138,2.0,0.119
17.8,-0.18,0.721,0.11
17.81,-0.058,0.625,-0.008
17.82,-0.418,0.835,-0.234
17.83,-0.108,1.637,0.176
17.84,-0.126,1.253,0.175
17.85,-0.029,0.208,-0.017
17.86,-0.466,1.014,-0.149
17.87,-0.07,1.597,0.108
17.88,-0.208,1.044,0.13
17.89,-0.005,0.701,-0.049
17.9,-0.471,0.506,-0.171
17.91,-0.099,1.907,0.178
17.92,-0.038,0.772,0.1
17.93,-0.145,0.784,-0.112
17.94,-0.38,0.27,-0.217
17.95,-0.239,1.748,0.115
17.96,-0.117,0.821,0.079
17.97,-0.106,0.789,-0.055
17.98,-0.431,0.549,-0.187
17.99,-0.073,1.398,0.173
18.0,-0.181,1.388,0.12
18.01,-0.024,0.389,-0.056
18.02,-0.54,0.896,-0.181
18.03,0.058,1.417,0.18
18.04,-0.241,1.313,0.132
18.05,-0.062,0.531,-0.071
18.06,-0.424,0.585,-0.189
18.07,-0.168,1.504,0.168
18.08,-0.147,0.847,0.085
18.09,-0.187,1.034,-0.102
18.1,-0.354,0.146,-0.143
18.11,-0.171,1.535,0.196
18.12,-0.129,0.947,0.045
18.13,-0.113,0.831,-0.137
18.14,-0.418,0.576,-0.199
18.15,-0.023,1.167,0.189
18.16,-0.241,1.365,0.02
18.17,-0.025,0.425,-0.123
18.18,-0.46,0.99,-0.125
18.19,-0.125,0.898,0.215
18.2,-0.302,1.367,0.036
18.21,-0.192,0.528,-0.1
18.22,-0.412,0.67,-0.103
18.23,-0.142,1.188,0.177
18.24,-0.174,0.851,-0.003
18.25,-0.344,0.993,-0.142
18.26,-0.413,0.333,-0.076
18.27,-0.208,1.342,0.206
18.28,-0.219,0.851,0.095
18.29,-0.332,0.742,-0.105
18.3,-0.358,0.9,-0.088
18.31,-0.046,1.048,0.165
18.32,-0.203,0.911,-0.008
18.33,-0.253,0.682,-0.202
18.34,-0.261,1.456,-0.1
18.35,0.056,0.759,0.079
18.36,-0.246,1.255,-0.008
18.37,-0.239,0.414,-0.265
18.38,-0.305,1.614,-0.058
18.39,-0.074,0.759,0.132
18.4,-0.24,1.042,0.04
18.41,-0.277,0.704,-0.178
18.42,-0.271,1.397,-0.015
18.43,-0.078,1.179,0.134
18.44,-0.03,0.53,0.018
18.45,-0.473,1.105,-0.153
18.46,-0.18,1.319,0.036
18.47,-0.203,1.056,0.166
18.48,-0.107,0.725,0.046
18.49,-0.468,0.746,-0.168
18.5,-0.245,1.803,0.047
18.51,-0.133,0.719,0.134
18.52,-0.123,0.983,0.021
18.53,-0.339,0.386,-0.218
18.54,-0.242,2.0,0.082
18.55,-0.008,0.703,0.138
18.56,-0.134,0.837,0.029
18.57,-0.396,0.63,-0.198
18.58,-0.176,1.701,0.104
18.59,-0.193,1.014,0.108
18.6,0.048,0.463,0.021
18.61,-0.498,1.075,-0.202
18.62,-0.053,1.507,0.088
18.63,-0.143,1.196,0.131
18.64,0.016,0.437,0.007
18.65,-0.487,0.817,-0.163
18.66,-0.034,1.933,0.039
18.67,-0.038,0.832,0.148
18.68,-0.079,0.843,-0.014
18.69,-0.409,0.3,-0.174
18.7,-0.087,2.0,0.061
18.71,-0.043,0.666,0.086
18.72,-0.079,0.822,-0.019
18.73,-0.484,0.452,-0.252
18.74,-0.089,1.794,0.114
18.75,-0.103,1.064,0.043
18.76,0.041,0.32,-0.049
18.77,-0.499,0.977,-0.187
18.78,-0.038,1.451,0.105
18.79,-0.21,1.211,0.079
18.8,0.068,0.5,-0.012
18.81,-0.513,0.826,-0.233
18.82,-0.034,1.664,0.191
18.83,-0.04,0.953,0.055
18.84,-0.049,0.762,-0.101
18.85,-0.406,0.329,-0.171
18.86,-0.199,1.795,0.157
18.87,-0.094,0.77,0.121
18.88,-0.173,0.858,-0.093
18.89,-0.416,0.348,-0.156
18.9,-0.117,1.746,0.164
18.91,-0.152,1.055,0.112
18.92,-0.063,0.541,-0.06
18.93,-0.313,1.288,0.061
18.94,-0.243,0.47,-0.135
18.95,-0.414,0.769,-0.047
18.96,-0.106,1.14,0.127
18.97,-0.138,0.807,0.027
18.98,-0.3,0.875,-0.156
18.99,-0.31,0.605,-0.041
19.0,-0.132,1.249,0.134
19.01,-0.212,0.823,0.051
19.02,-0.462,0.978,-0.198
19.03,-0.238,0.936,-0.06
19.04,-0.183,1.058,0.123
19.05,-0.194,1.026,0.031
19.06,-0.329,0.52,-0.19
19.07,-0.203,1.578,-0.081
19.08,0.039,0.777,0.076
19.09,-0.249,1.206,0.012
19.1,-0.267,0.381,-0.145
19.11,-0.29,1.663,-0.043
19.12,-0.066,0.809,0.167
19.13,-0.22,0.932,0.038
19.14,-0.407,0.763,-0.191
19.15,-0.359,1.138,0.034
19.16,-0.129,1.132,0.123
19.17,-0.116,0.655,0.045
19.18,-0.448,0.969,-0.178
19.19,-0.199,1.166,0.011
19.2,-0.112,1.059,0.166
19.21,-0.126,0.804,0.032
19.22,-0.411,0.702,-0.168
19.23,-0.278,1.672,0.024
19.24,-0.111,0.688,0.153
19.25,-0.252,1.159,0.038
19.26,-0.327,0.336,-0.2
19.27,-0.323,1.93,0.043
19.28,-0.085,0.725,0.145
19.29,-0.189,0.854,0.069
19.3,-0.35,0.399,-0.168
19.31,-0.254,1.97,0.111
19.32,-0.095,0.891,0.147
19.33,-0.038,0.557,-0.001
19.34,-0.44,0.916,-0.233
19.35,-0.017,1.589,0.08
19.36,-0.23,1.134,0.089
19.37,0.117,0.422,0.028
19.38,-0.469,0.966,-0.232
19.39,0.038,1.765,0.081
19.4,-0.14,0.981,0.148
19.41,0.024,0.702,0.009
19.42,-0.438,0.437,-0.186
19.43,-0.063,2.0,0.059
19.44,-0.024,0.668,0.1
19.45,-0.042,0.902,-0.041
19.46,-0.349,0.337,-0.233
19.47,-0.09,2.0,0.104
19.48,-0.116,0.884,0.126
19.49,-0.061,0.478,-0.009
19.5,-0.478,0.873,-0.199
19.51,-0.046,1.584,0.168
19.52,-0.199,1.217,0.098
19.53,0.044,0.333,-0.047
19.54,-0.396,0.955,-0.249
19.55,-0.052,1.513,0.117
19.56,-0.102,1.17,0.081
19.57,-0.073,0.612,-0.066
19.58,-0.354,0.466,-0.19
19.59,-0.178,1.881,0.137
19.6,-0.058,0.731,0.099
19.61,-0.137,0.973,-0.063
19.62,-0.376,0.225,-0.211
19.63,-0.142,1.76,0.149
19.64,-0.158,0.957,0.073
19.65,-0.096,0.667,-0.049
19.66,-0.503,0.682,-0.178
19.67,-0.055,1.356,0.172
19.68,-0.249,1.305,0.125
19.69,0.02,0.416,-0.073
19.7,-0.556,0.923,-0.141
19.71,-0.048,1.238,0.21
19.72,-0.313,1.275,0.113
19.73,-0.052,0.697,-0.033
19.74,-0.484,0.45,-0.134
19.75,-0.177,1.582,0.239
19.76,-0.077,0.86,0.061
19.77,-0.186,1.076,-0.075
19.78,-0.375,0.137,-0.142
19.79,-0.202,1.595,0.168
19.8,-0.135,0.941,0.079
19.81,-0.134,0.81,-0.123
19.82,-0.437,0.625,-0.156
19.83,-0.146,1.223,0.197
19.84,-0.228,1.083,0.004
19.85,-0.082,0.573,-0.153
19.86,-0.497,0.956,-0.137
19.87,0.064,0.842,0.133
19.88,-0.271,1.355,-0.03
19.89,-0.195,0.381,-0.116
19.9,-0.439,0.931,-0.094
19.91,-0.096,0.947,0.165
19.92,-0.193,1.089,-0.004
19.93,-0.205,0.667,-0.078
19.94,-0.369,0.732,-0.067
19.95,-0.065,1.27,0.153
19.96,-0.182,0.676,0.049
19.97,-0.388,0.985,-0.161
19.98,-0.334,0.745,-0.022
19.99,-0.186,1.115,0.122
20.0,-0.204,0.963,-0.019
20.01,-0.219,0.64,-0.127
20.02,-0.421,1.305,-0.045
20.03,-0.036,0.771,0.174
20.04,-0.349,1.295,0.009
20.05,-0.228,0.278,-0.196
20.06,-0.219,1.554,-0.05
20.07,-0.043,0.825,0.16
20.08,-0.198,0.946,0.005
20.09,-0.439,0.732,-0.194
20.1,-0.208,1.068,-0.046
20.11,-0.214,1.2,0.142
20.12,-0.067,0.668,0.062
20.13,-0.499,0.988,-0.2
20.14,-0.231,1.086,0.036
20.15,-0.109,1.096,0.121
20.16,-0.165,0.798,0.002
20.17,-0.283,0.708,-0.225
20.18,-0.26,1.79,0.023
20.19,-0.053,0.738,0.191
20.2,-0.162,1.026,0.073
20.21,-0.379,0.389,-0.237
20.22,-0.31,1.907,0.031
20.23,-0.125,0.621,0.112
20.24,-0.114,0.95,0.032
20.25,-0.428,0.635,-0.234
20.26,-0.215,1.519,0.086
20.27,-0.138,1.097,0.136
20.28,-0.028,0.434,0.056
20.29,-0.491,1.09,-0.166
20.3,-0.168,1.446,0.098
20.31,-0.201,1.134,0.192
20.32,-0.053,0.552,0.049
20.33,-0.526,0.771,-0.171
20.34,-0.11,2.0,0.133
20.35,-0.211,0.688,0.194
20.36,-0.139,0.915,0.051
20.37,-0.403,0.388,-0.176
20.38,-0.236,2.0,0.168
20.39,-0.106,0.663,0.18
20.4,-0.091,0.809,-0.012
20.41,-0.369,0.484,-0.217
20.42,-0.041,1.867,0.093
20.43,-0.075,1.098,0.103
20.44,0.047,0.363,-0.055
20.45,-0.475,0.993,-0.214
20.46,-0.016,1.582,0.152
20.47,-0.112,1.231,0.07
20.48,-0.004,0.349,-0.022
20.49,-0.407,0.816,-0.202
20.5,-0.141,1.687,0.113
20.51,-0.093,0.89,0.145
20.52,-0.117,0.882,-0.044
20.53,-0.353,0.244,-0.153
20.54,-0.164,2.0,0.193
20.55,-0.072,0.842,0.143
20.56,-0.172,0.833,-0.048
20.57,-0.396,0.418,-0.18
20.58,-0.135,1.749,0.162
20.59,-0.205,1.137,0.053
20.6,0.04,0.44,-0.066
20.61,-0.461,0.892,-0.235
20.62,0.006,1.298,0.206
20.63,-0.312,1.342,0.1
20.64,-0.014,0.459,-0.101
20.65,-0.553,0.943,-0.135
20.66,-0.013,1.042,0.199
20.67,-0.257,1.363,0.07
20.68,-0.061,0.713,-0.106
20.69,-0.426,0.503,-0.12
20.7,-0.088,1.38,0.186
20.71,-0.174,0.918,0.006
20.72,-0.145,1.081,-0.119
20.73,-0.47,0.313,-0.121
20.74,-0.112,1.339,0.234
20.75,-0.202,0.926,0.019
20.76,-0.325,0.711,-0.112
20.77,-0.361,0.83,-0.079
20.78,-0.166,0.951,0.147
20.79,-0.238,1.241,0.008
20.8,-0.199,0.314,-0.151
20.81,-0.373,1.252,-0.055
20.82,-0.019,0.773,0.077
20.83,-0.255,1.279,0.018
20.84,-0.325,0.484,-0.173
20.85,-0.309,0.984,-0.014
20.86,-0.166,1.074,0.127
20.87,-0.166,0.791,-0.0
20.88,-0.367,0.927,-0.19
20.89,-0.191,0.978,-0.047
20.9,-0.142,1.219,0.143
20.91,-0.148,0.696,0.005
20.92,-0.41,0.887,-0.192
20.93,-0.281,1.42,0.005
20.94,-0.132,0.814,0.148
20.95,-0.157,1.072,-0.01
20.96,-0.363,0.479,-0.237
20.97,-0.315,1.844,0.066
20.98,-0.087,0.601,0.121
20.99,-0.201,1.054,-0.006
21.0,-0.311,0.464,-0.195
21.01,-0.251,1.77,0.03
21.02,-0.134,0.893,0.134
21.03,-0.007,0.581,0.027
21.04,-0.467,0.963,-0.149
21.05,-0.059,1.536,0.066
21.06,-0.261,1.175,0.135
21.07,0.022,0.406,0.024
21.08,-0.451,0.951,-0.2
21.09,-0.028,1.785,0.091
21.1,-0.18,0.875,0.148
21.11,-0.05,0.735,-0.03
21.12,-0.389,0.457,-0.156
21.13,-0.196,2.0,0.101
21.14,0.087,0.692,0.06
21.15,-0.173,0.859,-0.044
21.16,-0.374,0.334,-0.202
21.17,-0.103,1.998,0.081
21.18,-0.101,0.989,0.124
21.19,-0.149,0.462,-0.021
21.2,-0.477,0.86,-0.194
21.21,-0.1,1.496,0.134
21.22,-0.143,1.376,0.031
21.23,0.017,0.373,-0.015
21.24,-0.488,0.908,-0.194
21.25,-0.019,1.519,0.165
21.26,-0.206,1.097,0.153
21.27,-0.151,0.796,-0.023
21.28,-0.335,0.387,-0.185
21.29,-0.199,1.724,0.186
21.3,-0.041,0.849,0.082
21.31,-0.141,0.992,-0.117
21.32,-0.427,0.222,-0.169
21.33,-0.16,1.567,0.223
21.34,-0.129,1.059,0.036
21.35,-0.078,0.685,-0.075
21.36,-0.372,0.714,-0.216
21.37,-0.083,1.061,0.189
21.38,-0.233,1.377,0.027
21.39,-0.009,0.492,-0.069
21.4,-0.538,0.881,-0.173
21.41,0.027,1.049,0.155
21.42,-0.151,1.256,0.011
21.43,-0.152,0.464,-0.125
21.44,-0.448,0.769,-0.107
21.45,-0.108,1.086,0.148
21.46,-0.208,0.938,-0.003
21.47,-0.24,0.869,-0.102
21.48,-0.349,0.471,-0.043
21.49,-0.179,1.248,0.165
21.5,-0.148,0.803,0.03
21.51,-0.365,0.849,-0.13
21.52,-0.227,0.892,-0.055
21.53,-0.109,1.053,0.117
21.54,-0.242,1.11,0.047
21.55,-0.229,0.499,-0.18
21.56,-0.346,1.431,-0.049
21.57,-0.023,0.703,0.114
21.58,-0.339,1.3,0.034
21.59,-0.28,0.396,-0.165
21.6,-0.239,1.463,-0.058
21.61,-0.036,0.873,0.123
21.62,-0.151,0.829,0.003
21.63,-0.416,0.867,-0.194
21.64,-0.253,1.036,0.012
21.65,-0.208,1.15,0.15
21.66,-0.099,0.732,0.026
21.67,-0.515,0.961,-0.182
21.68,-0.243,1.246,0.08
21.69,-0.177,0.956,0.134
21.7,-0.192,0.916,0.029
21.71,-0.365,0.582,-0.151
21.72,-0.31,1.906,0.074
21.73,-0.087,0.624,0.165
21.74,-0.16,1.084,0.038
21.75,-0.38,0.419,-0.196
21.76,-0.281,1.881,0.026
21.77,-0.179,0.737,0.138
21.78,-0.062,0.743,0.018
21.79,-0.49,0.784,-0.18
21.8,-0.194,1.483,0.081
21.81,-0.262,1.11,0.165
21.82,0.026,0.413,0.029
21.83,-0.561,1.064,-0.126
21.84,-0.079,1.632,0.085
21.85,-0.248,0.946,0.136
21.86,0.042,0.691,0.001
21.87,-0.47,0.589,-0.158
21.88,-0.079,1.969,0.128
21.89,-0.052,0.682,0.133
21.9,-0.153,0.879,0.049
21.91,-0.319,0.305,-0.189
21.92,-0.118,2.0,0.057
21.93,-0.035,0.794,0.108
21.94,-0.129,0.582,-0.059
21.95,-0.342,0.706,-0.245
21.96,-0.06,1.775,0.097
21.97,-0.164,1.13,0.108
21.98,0.041,0.256,-0.057
21.99,-0.448,0.999,-0.199
22.0,-0.01,1.575,0.129
22.01,-0.19,1.147,0.068
22.02,0.031,0.531,-0.036
22.03,-0.5,0.874,-0.197
22.04,-0.015,1.517,0.172
22.05,-0.201,1.1,0.114
22.06,-0.121,0.839,-0.029
22.07,-0.426,0.304,-0.12
22.08,-0.184,1.792,0.239
22.09,-0.052,0.889,0.084
22.1,-0.159,0.954,-0.118
22.11,-0.38,0.274,-0.221
22.12,-0.05,1.614,0.163
22.13,-0.209,1.128,0.054
22.14,0.015,0.643,-0.116
22.15,-0.511,0.792,-0.17
22.16,0.05,1.153,0.212
22.17,-0.327,1.471,0.103
22.18,0.045,0.443,-0.071
22.19,-0.566,0.858,-0.166
22.2,0.029,1.216,0.17
22.21,-0.258,1.142,0.024
22.22,-0.143,0.871,-0.096
22.23,-0.477,0.66,-0.068
22.24,-0.182,1.165,0.206
22.25,-0.187,0.949,0.028
22.26,-0.312,0.892,-0.065
22.27,-0.393,0.292,-0.03
22.28,-0.132,1.282,0.165
22.29,-0.186,0.907,0.054
22.3,-0.292,0.814,-0.141
22.31,-0.342,0.729,-0.074
22.32,-0.122,1.005,0.154
22.33,-0.25,1.226,-0.001
22.34,-0.169,0.339,-0.15
22.35,-0.365,1.377,-0.044
22.36,-0.047,0.736,0.14
22.37,-0.323,1.31,0.007
22.38,-0.209,0.417,-0.192
22.39,-0.308,1.242,-0.056
22.4,-0.056,0.996,0.096
22.41,-0.118,0.812,0.007
22.42,-0.416,0.955,-0.2
22.43,-0.207,0.937,-0.047
22.44,-0.232,1.197,0.127
22.45,-0.156,0.691,0.013
22.46,-0.435,0.892,-0.174
22.47,-0.229,1.327,0.012
22.48,-0.1,0.867,0.137
22.49,-0.183,0.991,0.01
22.5,-0.331,0.505,-0.195
22.51,-0.349,1.865,0.053
22.52,-0.052,0.635,0.146
22.53,-0.229,1.071,0.028
22.54,-0.347,0.443,-0.212
22.55,-0.255,1.849,0.068
22.56,-0.129,0.9,0.166
22.57,-0.066,0.616,0.005
22.58,-0.44,0.957,-0.178
22.59,-0.193,1.453,0.077
22.6,-0.271,1.134,0.206
22.61,-0.012,0.451,0.083
22.62,-0.425,1.001,-0.186
22.63,-0.054,1.684,0.095
22.64,-0.196,0.934,0.11
22.65,-0.064,0.696,0.002
22.66,-0.399,0.554,-0.17
22.67,-0.163,2.0,0.073
22.68,-0.01,0.587,0.096
22.69,-0.121,0.922,-0.034
22.7,-0.333,0.324,-0.21
22.71,-0.123,1.974,0.081
22.72,-0.067,0.936,0.125
22.73,-0.079,0.519,-0.056
22.74,-0.446,0.8,-0.218
22.75,-0.024,1.606,0.181
22.76,-0.187,1.253,0.089
22.77,-0.018,0.32,-0.027
22.78,-0.526,0.985,-0.221
22.79,-0.078,1.504,0.144
22.8,-0.134,1.164,0.08
22.81,-0.047,0.64,-0.052
22.82,-0.417,0.471,-0.16
22.83,-0.191,1.688,0.169
22.84,-0.091,0.804,0.109
22.85,-0.162,1.029,-0.085
22.86,-0.37,0.195,-0.208
22.87,-0.207,1.682,0.194
22.88,-0.132,0.997,0.128
22.89,-0.169,0.698,-0.027
22.9,-0.444,0.672,-0.192
22.91,-0.077,1.26,0.171
22.92,-0.248,1.361,0.108
22.93,0.002,0.454,-0.102
22.94,-0.536,0.911,-0.156
22.95,-0.036,1.123,0.184
22.96,-0.269,1.242,0.07
22.97,-0.103,0.691,-0.107
22.98,-0.492,0.49,-0.106
22.99,-0.111,1.411,0.155
23.0,-0.136,0.873,0.035
23.01,-0.161,1.038,-0.106
23.02,-0.434,0.234,-0.166
23.03,-0.123,1.341,0.19
23.04,-0.192,0.731,0.021
23.05,-0.324,0.897,-0.121
23.06,-0.351,0.702,-0.082
23.07,-0.023,1.102,0.125
23.08,-0.293,1.083,0.001
23.09,-0.251,0.487,-0.117
23.1,-0.383,1.283,-0.051
23.11,-0.056,0.766,0.162
23.12,-0.276,1.315,0.029
23.13,-0.242,0.333,-0.166
23.14,-0.28,1.374,-0.065
23.15,-0.039,0.898,0.106
23.16,-0.192,0.91,0.02
23.17,-0.319,0.823,-0.213
23.18,-0.235,1.039,-0.034
23.19,-0.092,1.204,0.142
23.2,-0.135,0.584,0.008
23.21,-0.389,1.018,-0.211
23.22,-0.164,1.19,-0.047
23.23,-0.142,1.015,0.12
23.24,-0.137,0.862,0.002
23.25,-0.346,0.65,-0.213
23.26,-0.242,1.781,0.006
23.27,-0.053,0.69,0.166
23.28,-0.217,1.09,0.041
23.29,-0.32,0.431,-0.194
23.3,-0.274,1.865,0.027
23.31,-0.084,0.755,0.146
23.32,-0.121,0.784,0.028
23.33,-0.451,0.794,-0.205
23.34,-0.226,1.427,0.018
23.35,-0.16,1.114,0.117
23.36,-0.022,0.459,0.01
23.37,-0.511,1.075,-0.168
23.38,-0.147,1.521,0.066
23.39,-0.213,1.042,0.169
23.4,-0.076,0.636,0.041
23.41,-0.406,0.7,-0.184
23.42,-0.201,1.962,0.033
23.43,-0.13,0.646,0.138
23.44,-0.096,0.99,0.044
23.45,-0.375,0.358,-0.192
23.46,-0.249,2.0,0.133
23.47,-0.088,0.778,0.135
23.48,-0.101,0.709,0.016
23.49,-0.336,0.724,-0.211
23.5,-0.133,1.73,0.122
23.51,-0.177,1.051,0.152
23.52,0.085,0.407,0.01
23.53,-0.468,1.013,-0.221
23.54,0.029,1.56,0.109
23.55,-0.167,1.151,0.117
23.56,0.025,0.475,-0.002
23.57,-0.414,0.705,-0.155
23.58,-0.094,1.908,0.137
23.59,-0.038,0.764,0.127
23.6,-0.116,0.837,-0.043
23.61,-0.368,0.304,-0.191
23.62,-0.137,2.0,0.088
23.63,-0.09,0.706,0.076
23.64,-0.066,0.754,-0.045
23.65,-0.45,0.546,-0.181
23.66,-0.009,1.747,0.168
23.67,-0.135,1.199,0.067
23.68,0.055,0.237,-0.053
23.69,-0.48,1.03,-0.244
23.7,0.0,1.435,0.14
23.71,-0.186,1.24,0.085
23.72,-0.02,0.505,-0.043
23.73,-0.477,0.7,-0.165
23.74,-0.11,1.735,0.151
23.75,-0.104,0.813,0.088
23.76,-0.135,0.95,-0.111
23.77,-0.333,0.227,-0.209
23.78,-0.167,1.743,0.154
23.79,-0.12,0.892,0.148
23.8,-0.178,0.822,-0.056
23.81,-0.441,0.424,-0.177
23.82,-0.072,1.425,0.158
23.83,-0.235,1.219,0.068
23.84,-0.126,0.738,-0.122
23.85,-0.384,0.725,-0.155
23.86,-0.044,1.019,0.243
23.87,-0.243,1.467,0.084
23.88,-0.015,0.402,-0.088
23.89,-0.506,0.953,-0.159
23.9,-0.006,1.062,0.166
23.91,-0.185,1.257,0.025
23.92,-0.227,0.717,-0.128
23.93,-0.419,0.454,-0.124
23.94,-0.171,1.361,0.161
23.95,-0.114,0.86,0.025
23.96,-0.364,0.921,-0.08
23.97,-0.366,0.348,-0.082
23.98,-0.184,1.288,0.178
23.99,-0.224,0.982,0.043
24.0,-0.254,0.677,-0.13
24.01,-0.445,0.884,-0.127
24.02,0.007,0.97,0.169
24.03,-0.312,1.314,0.035
24.04,-0.136,0.279,-0.132
24.05,-0.49,1.188,-0.049
24.06,-0.087,0.848,0.24
24.07,-0.326,1.214,0.093
24.08,-0.281,0.546,-0.13
24.09,-0.327,0.806,-0.02
24.1,-0.144,1.182,0.128
24.11,-0.172,0.75,0.047
24.12,-0.377,0.933,-0.136
24.13,-0.304,0.686,-0.067
24.14,-0.176,1.198,0.117
24.15,-0.186,0.897,0.072
24.16,-0.376,0.659,-0.117
24.17,-0.256,1.255,-0.076
24.18,-0.1,0.847,0.183
24.19,-0.227,1.257,0.026
24.2,-0.285,0.347,-0.175
24.21,-0.309,1.52,-0.048
24.22,-0.081,0.717,0.154
24.23,-0.261,1.177,0.017
24.24,-0.32,0.543,-0.173
24.25,-0.313,1.168,-0.027
24.26,-0.123,1.033,0.135
24.27,-0.098,0.751,0.022
24.28,-0.401,0.954,-0.162
24.29,-0.257,0.997,-0.004
24.3,-0.153,1.146,0.144
24.31,-0.12,0.784,-0.001
24.32,-0.4,0.804,-0.178
24.33,-0.279,1.422,0.036
24.34,-0.122,0.802,0.175
24.35,-0.236,1.101,-0.015
24.36,-0.24,0.412,-0.206
24.37,-0.327,1.832,0.005
24.38,-0.012,0.642,0.11
24.39,-0.179,1.047,-0.024
24.4,-0.296,0.501,-0.21
24.41,-0.31,1.68,0.015
24.42,-0.077,0.939,0.121
24.43,0.015,0.554,0.017
24.44,-0.441,1.013,-0.19
24.45,-0.142,1.434,0.05
24.46,-0.244,1.173,0.139
24.47,-0.002,0.417,0.012
24.48,-0.422,0.894,-0.155
24.49,-0.16,1.758,0.068
24.5,-0.134,0.823,0.116
24.51,-0.095,0.78,-0.005
24.52,-0.488,0.413,-0.129
24.53,-0.215,2.0,0.142
24.54,-0.1,0.575,0.128
24.55,-0.192,0.952,0.028
24.56,-0.406,0.389,-0.169
24.57,-0.162,1.958,0.166
24.58,-0.117,0.992,0.099
24.59,-0.001,0.373,-0.071
24.6,-0.443,0.887,-0.196
24.61,0.044,1.617,0.074
24.62,-0.155,1.307,0.084
24.63,0.074,0.351,-0.046
24.64,-0.55,0.949,-0.165
24.65,0.032,1.561,0.215
24.66,-0.36,1.281,0.164
24.67,-0.043,0.535,-0.046
24.68,-0.45,0.567,-0.16
24.69,-0.148,1.693,0.199
24.7,-0.137,0.85,0.093
24.71,-0.17,0.988,-0.109
24.72,-0.374,0.144,-0.173
24.73,-0.147,1.588,0.184
24.74,-0.147,0.915,0.088
24.75,-0.17,0.844,-0.133
24.76,-0.427,0.549,-0.153
24.77,-0.143,1.105,0.189
24.78,-0.276,1.376,0.111
24.79,-0.028,0.427,-0.12
24.8,-0.494,0.954,-0.128
24.81,0.005,0.945,0.191
24.82,-0.352,1.357,0.051
24.83,-0.101,0.553,-0.098
24.84,-0.452,0.687,-0.088
24.85,-0.127,1.195,0.182
24.86,-0.176,0.846,0.002
24.87,-0.313,0.949,-0.108
24.88,-0.384,0.312,-0.035
24.89,-0.17,1.292,0.24
24.9,-0.231,0.85,0.021
24.91,-0.289,0.767,-0.095
24.92,-0.325,0.921,-0.103
24.93,-0.05,1.002,0.155
24.94,-0.247,1.182,0.011
24.95,-0.213,0.364,-0.159
24.96,-0.268,1.437,-0.086
24.97,-0.028,0.75,0.123
24.98,-0.23,1.249,0.011
24.99,-0.25,0.457,-0.199
25.0,-0.282,1.28,-0.074
25.01,-0.106,0.93,0.15
25.02,-0.123,0.767,-0.002
25.03,-0.392,0.944,-0.192
25.04,-0.208,1.071,-0.037
25.05,-0.191,1.209,0.157
25.06,-0.077,0.652,0.027
25.07,-0.425,0.952,-0.214
25.08,-0.21,1.377,-0.024
25.09,-0.184,0.841,0.131
25.1,-0.089,1.006,-0.011
25.11,-0.312,0.508,-0.171
25.12,-0.313,1.946,0.064
25.13,-0.078,0.633,0.116
25.14,-0.201,1.025,0.037
25.15,-0.327,0.452,-0.167
25.16,-0.303,1.867,0.083
25.17,-0.121,0.879,0.188
25.18,-0.065,0.594,0.013
25.19,-0.489,0.936,-0.232
25.2,-0.087,1.488,0.064
25.21,-0.177,1.119,0.099
25.22,0.062,0.426,-0.02
25.23,-0.438,1.007,-0.183
25.24,-0.017,1.735,0.051
25.25,-0.157,0.982,0.193
25.26,-0.035,0.664,-0.04
25.27,-0.401,0.429,-0.17
25.28,-0.104,2.0,0.06
25.29,0.034,0.709,0.074
25.3,-0.112,0.886,-0.036
25.31,-0.347,0.343,-0.219
25.32,-0.098,2.0,0.157
25.33,-0.084,0.896,0.067
25.34,-0.073,0.439,-0.035
25.35,-0.354,0.87,-0.291
25.36,-0.089,1.48,0.078
25.37,-0.125,1.294,0.076
25.38,0.009,0.355,-0.063
25.39,-0.396,0.947,-0.217
25.4,-0.089,1.469,0.133
25.41,-0.173,1.101,0.123
25.42,-0.061,0.732,-0.057
25.43,-0.458,0.406,-0.142
25.44,-0.11,1.499,0.189
25.45,-0.133,0.92,0.062
25.46,-0.131,0.958,-0.108
25.47,-0.396,0.196,-0.16
25.48,-0.2,1.57,0.178
25.49,-0.151,0.83,0.049
25.5,-0.2,0.904,-0.06
25.51,-0.397,0.395,-0.173
25.52,-0.106,1.19,0.179
25.53,-0.238,1.199,-0.012
25.54,-0.031,0.468,-0.137
25.55,-0.562,0.963,-0.171
25.56,0.017,0.913,0.202
25.57,-0.285,1.321,0.017
25.58,-0.106,0.491,-0.099
25.59,-0.518,0.725,-0.108
25.6,-0.077,1.121,0.215
25.61,-0.266,1.028,-0.004
25.62,-0.193,0.789,-0.064
25.63,-0.496,0.338,-0.095
25.64,-0.127,1.374,0.254
25.65,-0.215,0.846,0.003
25.66,-0.247,0.885,-0.136
25.67,-0.463,0.552,-0.079
25.68,-0.059,1.132,0.199
25.69,-0.271,1.169,0.036
25.7,-0.178,0.442,-0.144
25.71,-0.521,1.085,-0.034
25.72,-0.002,0.792,0.171
25.73,-0.343,1.398,0.04
25.74,-0.145,0.298,-0.157
25.75,-0.368,1.182,-0.094
25.76,0.006,0.956,0.134
25.77,-0.223,0.949,0.046
25.78,-0.374,0.838,-0.159
25.79,-0.24,0.823,-0.036
25.8,-0.211,1.206,0.146
25.81,-0.109,0.706,0.063
25.82,-0.448,0.973,-0.196
25.83,-0.242,0.983,-0.062
25.84,-0.187,1.004,0.114
25.85,-0.183,1.092,-0.001
25.86,-0.301,0.468,-0.179
25.87,-0.234,1.68,-0.009
25.88,0.044,0.701,0.133
25.89,-0.189,1.198,0.017
25.9,-0.258,0.477,-0.206
25.91,-0.29,1.646,-0.003
25.92,-0.031,0.898,0.13
25.93,-0.172,0.796,0.023
25.94,-0.412,0.882,-0.2
25.95,-0.183,1.317,0.04
25.96,-0.192,1.165,0.179
25.97,-0.018,0.494,0.027
25.98,-0.466,1.025,-0.205
25.99,-0.124,1.436,-0.004
26.0,-0.107,1.064,0.174
26.01,-0.094,0.687,0.001
26.02,-0.433,0.623,-0.194
26.03,-0.234,1.969,0.032
26.04,-0.105,0.598,0.133
26.05,-0.136,1.021,0.029
26.06,-0.374,0.38,-0.223
26.07,-0.244,2.0,0.029
26.08,-0.07,0.75,0.101
26.09,-0.1,0.743,0.035
26.1,-0.417,0.812,-0.187
26.11,-0.215,1.556,0.118
26.12,-0.183,1.195,0.17
26.13,0.019,0.337,-0.011
26.14,-0.496,1.11,-0.171
26.15,-0.106,1.645,0.119
26.16,-0.172,1.005,0.152
26.17,-0.016,0.613,-0.014
26.18,-0.358,0.627,-0.196
26.19,-0.115,1.966,0.088
26.2,0.01,0.714,0.111
26.21,-0.072,0.897,-0.047
26.22,-0.357,0.309,-0.212
26.23,-0.155,2.0,0.052
26.24,-0.051,0.838,0.105
26.25,-0.238,0.836,-0.016
26.26,-0.34,0.384,-0.163
26.27,-0.162,1.818,0.194
26.28,-0.135,1.083,0.126
26.29,-0.048,0.457,-0.022
26.3,-0.497,0.959,-0.158
26.31,-0.125,1.386,0.208
26.32,-0.285,1.391,0.137
26.33,-0.025,0.368,-0.029
26.34,-0.369,0.846,-0.19
26.35,-0.065,1.429,0.102
26.36,-0.188,0.999,0.073
26.37,-0.097,0.866,-0.098
26.38,-0.354,0.294,-0.172
26.39,-0.197,1.695,0.169
26.4,-0.112,0.771,0.104
26.41,-0.213,0.94,-0.076
26.42,-0.347,0.317,-0.17
26.43,-0.157,1.41,0.181
26.44,-0.138,1.096,0.013
26.45,-0.036,0.58,-0.094
26.46,-0.466,0.832,-0.161
26.47,-0.059,1.041,0.258
26.48,-0.314,1.341,0.118
26.49,-0.041,0.486,-0.091
26.5,-0.582,0.838,-0.156
26.51,-0.012,1.191,0.208
26.52,-0.199,1.21,0.086
26.53,-0.096,0.804,-0.126
26.54,-0.408,0.348,-0.145
26.55,-0.151,1.481,0.137
26.56,-0.122,0.803,0.029
26.57,-0.302,0.97,-0.085
26.58,-0.452,0.32,-0.133
26.59,-0.126,1.266,0.205
26.6,-0.168,1.06,-0.002
26.61,-0.182,0.567,-0.13
26.62,-0.504,0.877,-0.127
26.63,-0.037,0.887,0.225
26.64,-0.323,1.359,0.042
26.65,-0.067,0.375,-0.111
26.66,-0.578,0.962,-0.083
26.67,0.053,1.027,0.172
26.68,-0.294,1.116,0.035
26.69,-0.211,0.717,-0.096
26.7,-0.546,0.471,-0.022
26.71,-0.144,1.334,0.227
26.72,-0.179,0.78,0.084
26.73,-0.383,0.943,-0.034
26.74,-0.457,0.501,-0.002
26.75,-0.064,1.234,0.198
26.76,-0.239,1.005,0.019
26.77,-0.274,0.638,-0.125
26.78,-0.372,1.059,-0.119
26.79,0.002,0.885,0.182
26.8,-0.259,1.296,0.07
26.81,-0.245,0.309,-0.148
26.82,-0.438,1.256,-0.049
26.83,-0.005,0.899,0.174
26.84,-0.345,1.111,0.086
26.85,-0.165,0.645,-0.123
26.86,-0.398,0.959,-0.071
26.87,-0.014,1.259,0.162
26.88,-0.099,0.707,0.047
26.89,-0.383,0.987,-0.171
26.9,-0.285,0.785,-0.061
26.91,-0.146,1.195,0.126
26.92,-0.169,0.892,0.069
26.93,-0.298,0.694,-0.158
26.94,-0.322,1.321,-0.101
26.95,-0.04,0.788,0.178
26.96,-0.24,1.303,0.052
26.97,-0.253,0.259,-0.148
26.98,-0.36,1.549,-0.06
26.99,-0.055,0.85,0.174
27.0,-0.18,1.063,0.077
27.01,-0.316,0.666,-0.202
27.02,-0.273,0.982,-0.109
27.03,-0.141,1.137,0.119
27.04,-0.099,0.748,0.016
27.05,-0.32,0.913,-0.224
27.06,-0.236,1.122,-0.063
27.07,-0.14,1.22,0.234
27.08,0.03,0.583,0.001
27.09,-0.424,1.029,-0.197
27.1,-0.24,1.346,-0.018
27.11,-0.188,0.958,0.147
27.12,-0.018,0.933,-0.028
27.13,-0.415,0.542,-0.23
27.14,-0.272,1.718,0.045
27.15,-0.107,0.638,0.116
27.16,-0.19,1.186,0.044
27.17,-0.269,0.397,-0.18
27.18,-0.32,1.709,-0.031
27.19,-0.061,0.882,0.153
27.2,-0.124,0.785,0.09
27.21,-0.444,0.891,-0.196
27.22,-0.224,1.299,0.011
27.23,-0.245,1.196,0.145
27.24,-0.09,0.517,0.058
27.25,-0.38,1.049,-0.211
27.26,-0.287,1.275,0.024
27.27,0.061,0.778,0.156
27.28,-0.26,1.249,0.101
27.29,-0.258,0.462,-0.164
27.3,-0.315,1.158,-0.036
27.31,-0.151,1.082,0.159
27.32,-0.198,0.806,0.021
27.33,-0.371,0.824,-0.192
27.34,-0.226,0.846,-0.111
27.35,-0.16,1.272,0.152
27.36,-0.141,0.767,0.053
27.37,-0.331,0.894,-0.133
27.38,-0.32,1.177,-0.119
27.39,-0.077,0.904,0.149
27.4,-0.246,1.18,-0.004
27.41,-0.273,0.398,-0.198
27.42,-0.331,1.612,-0.056
27.43,-0.081,0.677,0.169
27.44,-0.268,1.235,0.02
27.45,-0.312,0.446,-0.187
27.46,-0.236,1.466,-0.023
27.47,-0.151,0.982,0.135
27.48,-0.122,0.719,0.026
27.49,-0.472,0.904,-0.183
27.5,-0.171,1.128,0.003
27.51,-0.264,1.156,0.157
27.52,-0.044,0.641,0.093
27.53,-0.506,0.972,-0.167
27.54,-0.224,1.331,0.061
27.55,-0.222,0.885,0.188
27.56,-0.133,0.976,-0.018
27.57,-0.325,0.409,-0.194
27.58,-0.291,1.984,0.064
27.59,-0.017,0.706,0.104
27.6,-0.226,0.958,0.068
27.61,-0.346,0.526,-0.107
27.62,-0.387,1.823,0.078
27.63,-0.174,0.797,0.164
27.64,0.002,0.682,0.024
27.65,-0.547,0.966,-0.181
27.66,-0.219,1.305,0.032
27.67,-0.254,1.092,0.166
27.68,0.032,0.514,0.041
27.69,-0.521,1.041,-0.114
27.7,-0.085,1.619,0.115
27.71,-0.203,1.132,0.178
27.72,0.003,0.518,0.018
27.73,-0.498,0.694,-0.138
27.74,-0.088,1.962,0.118
27.75,-0.179,0.657,0.117
27.76,-0.045,0.686,-0.066
27.77,-0.468,0.43,-0.142
27.78,-0.238,1.85,0.181
27.79,-0.074,0.748,0.101
27.8,-0.093,0.891,-0.064
27.81,-0.36,0.246,-0.156
27.82,-0.085,1.802,0.186
27.83,-0.064,1.014,-0.02
27.84,-0.071,0.613,-0.072
27.85,-0.464,0.795,-0.158
27.86,0.001,1.518,0.201
27.87,-0.247,1.391,0.072
27.88,0.021,0.298,-0.051
27.89,-0.501,0.969,-0.209
27.9,-0.025,1.329,0.201
27.91,-0.285,1.126,0.102
27.92,-0.133,0.793,-0.114
27.93,-0.323,0.319,-0.193
27.94,-0.13,1.672,0.16
27.95,-0.074,0.826,0.071
27.96,-0.283,1.037,-0.092
27.97,-0.374,0.205,-0.188
27.98,-0.123,1.518,0.2
27.99,-0.134,1.07,0.071
28.0,-0.081,0.707,-0.095
28.01,-0.42,0.782,-0.184
28.02,0.013,1.0,0.193
28.03,-0.335,1.452,0.061
28.04,-0.036,0.394,-0.113
28.05,-0.56,0.921,-0.145
28.06,-0.046,1.052,0.197
28.07,-0.281,1.236,0.061
28.08,-0.229,0.698,-0.101
28.09,-0.489,0.431,-0.098
28.1,-0.17,1.31,0.273
28.11,-0.094,0.839,0.009
28.12,-0.385,0.917,-0.076
28.13,-0.402,0.367,-0.077
28.14,-0.177,1.266,0.2
28.15,-0.19,0.977,0.025
28.16,-0.319,0.632,-0.078
28.17,-0.476,0.968,0.005
28.18,-0.08,0.835,0.185
28.19,-0.335,1.369,0.117
28.2,-0.213,0.315,-0.118
28.21,-0.435,1.234,-0.045
28.22,-0.074,0.809,0.099
28.23,-0.274,1.174,0.022
28.24,-0.212,0.567,-0.171
28.25,-0.29,1.028,-0.059
28.26,-0.014,1.191,0.161
28.27,-0.178,0.713,0.018
28.28,-0.31,1.098,-0.202
28.29,-0.245,0.905,-0.09
28.3,-0.109,1.139,0.116
28.31,-0.15,0.856,-0.056
28.32,-0.3,0.759,-0.245
28.33,-0.347,1.494,-0.066
28.34,-0.016,0.772,0.13
28.35,-0.342,1.133,0.061
28.36,-0.234,0.436,-0.155
28.37,-0.475,1.876,0.065
28.38,-0.089,0.724,0.195
28.39,-0.27,0.962,0.094
28.4,-0.347,0.637,-0.15
28.41,-0.366,1.539,0.093
28.42,-0.144,0.999,0.178
28.43,-0.103,0.578,0.056
28.44,-0.483,1.017,-0.181
28.45,-0.162,1.419,0.071
28.46,-0.239,1.079,0.16
28.47,0.034,0.567,0.047
28.48,-0.449,0.847,-0.146
28.49,-0.179,1.843,0.059
28.5,-0.142,1.011,0.147
28.51,-0.013,0.65,-0.103
28.52,-0.367,0.483,-0.163
28.53,-0.108,2.0,0.096
28.54,-0.077,0.682,0.101
28.55,-0.176,0.852,-0.033
28.56,-0.357,0.31,-0.169
28.57,-0.171,2.0,0.12
28.58,-0.104,0.853,0.078
28.59,-0.095,0.531,-0.058
28.6,-0.464,0.746,-0.18
28.61,-0.022,1.467,0.146
28.62,-0.3,1.318,0.148
28.63,0.048,0.376,-0.061
28.64,-0.612,0.949,-0.18
28.65,0.008,1.364,0.175
28.66,-0.344,1.171,0.061
28.67,-0.013,0.812,-0.092
28.68,-0.518,0.374,-0.174
28.69,-0.158,1.589,0.238
28.7,-0.144,0.864,0.106
28.71,-0.222,1.028,-0.095
28.72,-0.407,0.152,-0.127
28.73,-0.263,1.453,0.17
28.74,-0.13,0.977,0.051
28.75,-0.141,0.723,-0.147
28.76,-0.432,0.674,-0.249
28.77,0.014,0.948,0.127
28.78,-0.234,1.406,-0.054
28.79,-0.137,0.3,-0.133
28.8,-0.503,0.865,-0.088
28.81,-0.088,0.979,0.186
28.82,-0.241,1.233,-0.002
28.83,-0.191,0.583,-0.172
28.84,-0.428,0.472,-0.088
28.85,-0.108,1.298,0.188
28.86,-0.176,0.868,0.007
28.87,-0.329,0.89,-0.127
28.88,-0.44,0.421,-0.04
28.89,-0.096,1.292,0.149
28.9,-0.219,0.884,0.02
28.91,-0.254,0.741,-0.133
28.92,-0.379,1.077,-0.051
28.93,-0.006,0.868,0.15
28.94,-0.296,1.284,0.011
28.95,-0.149,0.337,-0.207
28.96,-0.337,1.409,-0.128
28.97,0.06,0.761,0.106
28.98,-0.202,1.198,-0.062
28.99,-0.23,0.569,-0.238
29.0,-0.241,1.278,-0.09
29.01,-0.113,1.118,0.181
29.02,-0.091,0.634,0.073
29.03,-0.397,1.06,-0.178
29.04,-0.253,1.14,-0.057
29.05,-0.158,1.154,0.124
29.06,-0.051,0.687,-0.008
29.07,-0.407,0.895,-0.19
29.08,-0.255,1.585,0.009
29.09,-0.111,0.712,0.119
29.1,-0.135,1.076,0.051
29.11,-0.326,0.44,-0.224
29.12,-0.287,1.989,0.043
29.13,-0.128,0.611,0.081
29.14,-0.088,0.983,0.024
29.15,-0.368,0.583,-0.223
29.16,-0.228,1.639,0.063
29.17,-0.198,1.058,0.234
29.18,-0.049,0.444,0.025
29.19,-0.49,1.012,-0.175
29.2,-0.074,1.458,0.09
29.21,-0.22,1.158,0.172
29.22,0.019,0.442,0.002
29.23,-0.494,0.87,-0.187
29.24,-0.066,1.86,0.09
29.25,-0.075,0.835,0.134
29.26,-0.107,0.792,0.023
29.27,-0.395,0.421,-0.119
29.28,-0.243,2.0,0.145
29.29,0.001,0.69,0.199
29.3,-0.125,0.877,-0.056
29.31,-0.335,0.315,-0.175
29.32,-0.142,1.995,0.123
29.33,-0.1,0.792,0.086
29.34,-0.027,0.64,-0.078
29.35,-0.443,0.731,-0.218
29.36,-0.012,1.442,0.131
29.37,-0.221,1.327,0.08
29.38,0.062,0.426,-0.104
29.39,-0.493,0.945,-0.175
29.4,-0.021,1.401,0.14
29.41,-0.21,1.187,0.11
29.42,-0.108,0.617,-0.03
29.43,-0.51,0.532,-0.122
29.44,-0.19,1.683,0.216
29.45,-0.145,0.799,0.092
29.46,-0.134,0.949,-0.088
29.47,-0.342,0.275,-0.161
29.48,-0.226,1.603,0.144
29.49,-0.198,0.835,0.09
29.5,-0.097,0.77,-0.082
29.51,-0.386,0.622,-0.234
29.52,-0.049,1.15,0.155
29.53,-0.236,1.285,0.016
29.54,-0.018,0.449,-0.106
29.55,-0.517,0.861,-0.179
29.56,0.035,1.112,0.154
29.57,-0.223,1.332,0.055
29.58,-0.162,0.62,-0.116
29.59,-0.411,0.502,-0.142
29.6,-0.099,1.489,0.178
29.61,-0.09,0.941,0.083
29.62,-0.191,0.972,-0.081
29.63,-0.414,0.196,-0.187
29.64,-0.19,1.429,0.191
29.65,-0.135,0.924,-0.0
29.66,-0.229,0.756,-0.105
29.67,-0.432,0.579,-0.202
29.68,-0.099,1.0,0.219
29.69,-0.217,1.341,0.002
29.7,-0.144,0.326,-0.122
29.71,-0.47,0.981,-0.156
29.72,-0.068,0.872,0.178
29.73,-0.186,1.297,-0.061
29.74,-0.15,0.469,-0.148
29.75,-0.439,0.709,-0.116
29.76,-0.076,1.235,0.15
29.77,-0.181,0.783,0.039
29.78,-0.281,1.006,-0.133
29.79,-0.471,0.362,-0.086
29.8,-0.108,1.326,0.141
29.81,-0.261,0.867,0.056
29.82,-0.309,0.706,-0.091
29.83,-0.458,0.881,-0.035
29.84,-0.031,1.049,0.158
29.85,-0.321,1.185,0.044
29.86,-0.172,0.462,-0.12
29.87,-0.474,1.217,-0.02
29.88,-0.047,0.788,0.142
29.89,-0.256,1.279,0.078
29.9,-0.224,0.494,-0.15
29.91,-0.434,0.886,-0.042
29.92,-0.062,1.117,0.166
29.93,-0.102,0.883,0.078
29.94,-0.318,0.84,-0.169
29.95,-0.291,0.806,-0.045
29.96,-0.181,1.276,0.177
29.97,-0.151,0.76,0.053
29.98,-0.268,0.801,-0.159
29.99,-0.299,1.127,-0.1
30.0,-0.061,0.974,0.141
30.01,-0.154,1.116,0.031
30.02,-0.237,0.486,-0.203
30.03,-0.317,1.568,-0.116
30.04,-0.068,0.701,0.166
30.05,-0.227,1.228,0.052
30.06,-0.272,0.423,-0.138
30.07,-0.28,1.314,-0.096
30.08,-0.094,0.989,0.137
30.09,-0.042,0.747,0.018
30.1,-0.329,0.819,-0.213
30.11,-0.303,1.269,0.011
30.12,-0.22,1.119,0.15
30.13,-0.072,0.597,0.052
30.14,-0.457,1.041,-0.153
30.15,-0.196,1.286,0.02
30.16,-0.137,1.075,0.161
30.17,-0.073,0.691,0.031
30.18,-0.408,0.805,-0.154
30.19,-0.295,1.739,0.034
30.2,-0.107,0.653,0.155
30.21,-0.163,1.112,0.019
30.22,-0.303,0.389,-0.212
30.23,-0.325,1.809,0.016
30.24,-0.075,0.689,0.109
30.25,-0.223,0.936,0.045
30.26,-0.34,0.746,-0.162
30.27,-0.35,1.515,0.082
30.28,-0.181,1.138,0.223
30.29,-0.012,0.467,0.068
30.3,-0.529,1.133,-0.159
30.31,-0.2,1.404,0.088
30.32,-0.255,1.105,0.245
30.33,-0.072,0.589,0.075
30.34,-0.452,0.783,-0.142
30.35,-0.282,1.853,0.075
30.36,-0.106,0.761,0.189
30.37,-0.151,0.896,0.038
30.38,-0.411,0.409,-0.158
30.39,-0.286,2.0,0.103
30.4,-0.137,0.683,0.206
30.41,-0.121,0.806,0.071
30.42,-0.412,0.707,-0.164
30.43,-0.234,1.549,0.087
30.44,-0.236,1.074,0.206
30.45,0.009,0.42,0.028
30.46,-0.485,1.085,-0.145
30.47,-0.171,1.425,0.082
30.48,-0.213,1.099,0.216
30.49,-0.012,0.554,0.057
30.5,-0.478,0.826,-0.144
30.51,-0.229,1.823,0.096
30.52,-0.183,0.74,0.15
30.53,-0.133,0.908,0.016
30.54,-0.324,0.44,-0.197
30.55,-0.285,2.0,0.033
30.56,-0.047,0.632,0.118
30.57,-0.057,0.854,-0.008
30.58,-0.451,0.651,-0.208
30.59,-0.153,1.624,0.083
30.6,-0.217,0.97,0.126
30.61,0.125,0.506,0.024
30.62,-0.493,1.032,-0.206
30.63,-0.029,1.388,0.046
30.64,-0.243,1.17,0.184
30.65,0.02,0.497,0.051
30.66,-0.475,0.828,-0.164
30.67,-0.167,1.883,0.086
30.68,-0.137,0.826,0.187
30.69,-0.082,0.827,0.013
30.7,-0.375,0.412,-0.169
30.71,-0.271,2.0,0.094
30.72,-0.104,0.657,0.154
30.73,-0.063,0.863,0.023
30.74,-0.402,0.551,-0.229
30.75,-0.094,1.707,0.078
30.76,-0.11,1.02,0.06
30.77,0.087,0.398,-0.007
30.78,-0.378,1.084,-0.222
30.79,-0.097,1.442,0.058
30.8,-0.191,1.165,0.202
30.81,0.044,0.473,0.013
30.82,-0.418,0.871,-0.218
30.83,-0.112,1.765,0.051
30.84,-0.102,0.748,0.11
30.85,-0.055,0.909,0.004
30.86,-0.357,0.432,-0.218
30.87,-0.238,2.0,0.026
30.88,-0.062,0.665,0.152
30.89,-0.075,0.838,-0.023
30.9,-0.329,0.354,-0.223
30.91,-0.163,2.0,0.051
30.92,-0.12,0.723,0.138
30.93,-0.043,0.659,-0.003
30.94,-0.482,0.775,-0.234
30.95,-0.04,1.666,0.12
30.96,-0.248,1.151,0.132
30.97,0.124,0.323,-0.001
30.98,-0.522,1.062,-0.175
30.99,-0.015,1.588,0.126
31.0,-0.196,1.034,0.144
31.01,0.026,0.621,0.012
31.02,-0.464,0.588,-0.197
31.03,-0.075,1.999,0.133
31.04,-0.128,0.695,0.128
31.05,-0.089,0.878,0.05
31.06,-0.323,0.375,-0.254
31.07,-0.097,2.0,-0.001
31.08,0.004,0.812,0.082
31.09,-0.021,0.604,-0.017
31.1,-0.378,0.813,-0.223
31.11,-0.046,1.642,0.098
31.12,-0.216,1.118,0.142
31.13,0.122,0.382,0.007
31.14,-0.562,1.063,-0.203
31.15,0.029,1.638,0.066
31.16,-0.259,1.01,0.102
31.17,0.081,0.604,0.01
31.18,-0.447,0.668,-0.173
31.19,-0.081,2.0,0.084
31.2,-0.105,0.726,0.165
31.21,-0.064,0.875,-0.007
31.22,-0.338,0.331,-0.173
31.23,-0.157,2.0,0.127
31.24,-0.161,0.742,0.178
31.25,-0.056,0.709,0.038
31.26,-0.472,0.698,-0.219
31.27,-0.098,1.65,0.117
31.28,-0.22,1.089,0.097
31.29,0.08,0.341,0.066
31.3,-0.476,1.074,-0.222
31.31,-0.08,1.472,0.061
31.32,-0.132,1.09,0.071
31.33,-0.036,0.558,0.009
31.34,-0.367,0.666,-0.223
31.35,-0.126,1.992,0.053
31.36,-0.042,0.702,0.094
31.37,-0.089,0.917,0.054
31.38,-0.326,0.343,-0.269
31.39,-0.201,2.0,0.081
31.4,-0.102,0.718,0.154
31.41,-0.073,0.776,0.061
31.42,-0.357,0.703,-0.238
31.43,-0.169,1.584,0.088
31.44,-0.197,1.074,0.145
31.45,0.029,0.427,0.06
31.46,-0.386,1.07,-0.246
31.47,-0.108,1.448,0.045
31.48,-0.158,1.148,0.161
31.49,-0.03,0.548,0.057
31.5,-0.467,0.796,-0.181
31.51,-0.221,1.87,0.088
31.52,-0.124,0.64,0.112
31.53,-0.112,1.007,0.052
31.54,-0.345,0.39,-0.203
31.55,-0.315,2.0,0.101
31.56,-0.149,0.707,0.159
31.57,-0.119,0.79,0.065
31.58,-0.333,0.66,-0.235
31.59,-0.269,1.598,0.085
31.6,-0.135,1.144,0.192
31.61,-0.009,0.39,0.034
31.62,-0.473,1.048,-0.165
31.63,-0.13,1.439,0.058
31.64,-0.221,1.065,0.144
31.65,-0.044,0.583,0.045
31.66,-0.415,0.833,-0.183
31.67,-0.256,1.793,0.053
31.68,-0.143,0.703,0.179
31.69,-0.117,0.922,0.033
31.7,-0.302,0.534,-0.25
31.71,-0.181,2.0,0.048
31.72,-0.077,0.664,0.158
31.73,-0.084,0.911,-0.011
31.74,-0.284,0.351,-0.266
31.75,-0.152,1.967,0.068
31.76,-0.067,0.872,0.101
31.77,-0.051,0.534,-0.014
31.78,-0.359,0.882,-0.225
31.79,-0.111,1.534,0.099
31.8,-0.211,1.149,0.139
31.81,0.007,0.367,0.039
31.82,-0.465,1.008,-0.188
31.83,-0.123,1.663,0.061
31.84,-0.219,0.93,0.16
31.85,-0.035,0.711,0.025
31.86,-0.418,0.551,-0.18
31.87,-0.149,2.0,0.067
31.88,-0.052,0.661,0.119
31.89,-0.074,0.93,0.007
31.9,-0.34,0.38,-0.225
31.91,-0.148,2.0,0.013
31.92,-0.125,0.817,0.078
31.93,0.0,0.592,-0.018
31.94,-0.315,0.873,-0.231
31.95,-0.093,1.547,0.04
31.96,-0.211,1.115,0.125
31.97,0.107,0.39,-0.023
31.98,-0.504,1.008,-0.22
31.99,0.019,1.681,-0.007
32.0,-0.235,0.919,0.112
32.01,0.083,0.718,-0.014
32.02,-0.495,0.611,-0.193
32.03,-0.144,2.0,0.101
32.04,-0.132,0.71,0.162
32.05,-0.116,0.888,0.016
32.06,-0.361,0.318,-0.213
32.07,-0.092,2.0,0.063
32.08,-0.147,0.774,0.095
32.09,0.004,0.646,0.0
32.1,-0.449,0.775,-0.263
32.11,-0.024,1.579,0.07
32.12,-0.24,1.113,0.042
32.13,0.08,0.355,0.041
32.14,-0.479,1.047,-0.172
32.15,-0.079,1.593,0.082
32.16,-0.251,1.03,0.172
32.17,0.048,0.62,-0.019
32.18,-0.492,0.57,-0.182
32.19,-0.069,2.0,0.078
32.2,-0.161,0.613,0.1
32.21,-0.041,0.95,0.005
32.22,-0.413,0.363,-0.218
32.23,-0.14,2.0,0.072
32.24,-0.135,0.738,0.085
32.25,-0.008,0.649,-0.005
32.26,-0.358,0.787,-0.236
32.27,-0.092,1.609,0.087
32.28,-0.083,1.199,0.117
32.29,0.079,0.322,-0.03
32.3,-0.495,1.021,-0.17
32.31,-0.041,1.734,0.058
32.32,-0.161,1.023,0.102
32.33,0.051,0.624,-0.061
32.34,-0.421,0.62,-0.228
32.35,-0.095,2.0,0.104
32.36,-0.116,0.74,0.142
32.37,-0.067,0.85,-0.018
32.38,-0.301,0.325,-0.274
32.39,-0.124,2.0,0.069
32.4,-0.046,0.758,0.081
32.41,-0.02,0.646,-0.059
32.42,-0.382,0.738,-0.287
32.43,-0.062,1.671,0.089
32.44,-0.174,1.199,0.157
32.45,0.111,0.305,-0.021
32.46,-0.406,1.08,-0.247
32.47,-0.006,1.601,0.107
32.48,-0.146,1.153,0.102
32.49,0.023,0.545,-0.053
32.5,-0.408,0.652,-0.235
32.51,-0.046,1.687,0.101
32.52,-0.213,0.952,0.112
32.53,-0.042,0.739,-0.076
32.54,-0.431,0.348,-0.199
32.55,-0.188,1.951,0.164
32.56,-0.116,0.723,0.097
32.57,-0.135,0.822,-0.049
32.58,-0.5,0.391,-0.151
32.59,-0.221,1.74,0.187
32.6,-0.275,1.006,0.145
32.61,-0.014,0.473,-0.03
32.62,-0.532,0.909,-0.189
32.63,0.008,1.384,0.167
32.64,-0.297,1.327,0.105
32.65,0.024,0.423,-0.029
32.66,-0.543,0.905,-0.216
32.67,-0.048,1.596,0.197
32.68,-0.212,1.044,0.09
32.69,-0.111,0.699,-0.097
32.7,-0.426,0.36,-0.172
32.71,-0.165,1.832,0.113
32.72,-0.138,0.751,0.1
32.73,-0.169,0.915,-0.032
32.74,-0.433,0.281,-0.158
32.75,-0.153,1.794,0.191
32.76,-0.163,1.074,0.072
32.77,-0.054,0.556,-0.069
32.78,-0.515,0.858,-0.204
32.79,0.05,1.396,0.163
32.8,-0.202,1.378,0.088
32.81,0.054,0.341,-0.046
32.82,-0.522,0.921,-0.209
32.83,0.04,1.437,0.141
32.84,-0.273,1.068,0.174
32.85,-0.083,0.835,-0.074
32.86,-0.463,0.302,-0.175
32.87,-0.181,1.723,0.156
32.88,-0.088,0.873,0.12
32.89,-0.167,0.912,-0.117
32.9,-0.439,0.292,-0.206
32.91,-0.095,1.585,0.15
32.92,-0.141,1.029,0.035
32.93,-0.049,0.59,-0.093
32.94,-0.547,0.843,-0.184
32.95,0.053,1.225,0.157
32.96,-0.283,1.351,0.057
32.97,0.045,0.481,-0.07
32.98,-0.605,0.829,-0.176
32.99,0.052,1.303,0.16
33.0,-0.202,1.184,0.086
33.01,-0.013,0.768,-0.096
33.02,-0.518,0.387,-0.201
33.03,-0.126,1.568,0.14
33.04,-0.048,0.804,0.05
33.05,-0.225,1.002,-0.076
33.06,-0.372,0.226,-0.193
33.07,-0.12,1.489,0.087
33.08,-0.082,1.055,0.025
33.09,-0.058,0.62,-0.105
33.1,-0.436,0.767,-0.221
33.11,-0.01,1.125,0.141
33.12,-0.205,1.33,0.056
33.13,-0.001,0.442,-0.15
33.14,-0.537,0.896,-0.189
33.15,0.026,1.191,0.103
33.16,-0.203,1.195,0.09
33.17,-0.054,0.728,-0.102
33.18,-0.491,0.39,-0.191
33.19,-0.154,1.491,0.17
33.2,-0.121,0.807,0.083
33.21,-0.17,1.035,-0.099
33.22,-0.412,0.195,-0.197
33.23,-0.077,1.489,0.134
33.24,-0.131,1.003,0.057
33.25,-0.093,0.683,-0.132
33.26,-0.511,0.772,-0.218
33.27,0.028,1.108,0.195
33.28,-0.335,1.46,0.104
33.29,0.011,0.364,-0.088
33.3,-0.49,0.92,-0.204
33.31,-0.006,0.931,0.162
33.32,-0.288,1.208,0.045
33.33,-0.189,0.495,-0.122
33.34,-0.497,0.698,-0.16
33.35,-0.115,1.123,0.165
33.36,-0.102,1.002,0.036
33.37,-0.24,0.846,-0.103
33.38,-0.469,0.331,-0.087
33.39,-0.165,1.373,0.178
33.4,-0.18,0.845,0.028
33.41,-0.171,0.889,-0.149
33.42,-0.485,0.508,-0.182
33.43,-0.032,1.096,0.184
33.44,-0.268,1.101,0.023
33.45,-0.109,0.45,-0.181
33.46,-0.509,0.991,-0.173
33.47,-0.003,0.819,0.154
33.48,-0.204,1.396,0.005
33.49,-0.083,0.393,-0.144
33.5,-0.525,0.85,-0.135
33.51,0.019,1.177,0.165
33.52,-0.195,0.92,0.043
33.53,-0.213,0.879,-0.145
33.54,-0.452,0.366,-0.14
33.55,-0.19,1.376,0.215
33.56,-0.172,0.769,0.035
33.57,-0.323,0.868,-0.134
33.58,-0.412,0.507,-0.18
33.59,-0.066,1.163,0.165
33.6,-0.192,1.184,0.026
33.61,-0.169,0.39,-0.106
33.62,-0.558,1.053,-0.134
33.63,0.016,0.838,0.214
33.64,-0.327,1.354,0.052
33.65,-0.212,0.354,-0.105
33.66,-0.525,0.835,-0.109
33.67,0.01,1.102,0.139
33.68,-0.198,1.012,0.033
33.69,-0.229,0.777,-0.146
33.7,-0.476,0.354,-0.135
33.71,-0.135,1.43,0.163
33.72,-0.096,0.798,0.016
33.73,-0.231,0.91,-0.127
33.74,-0.471,0.478,-0.157
33.75,-0.11,1.128,0.238
33.76,-0.196,1.187,0.05
33.77,-0.183,0.399,-0.136
33.78,-0.47,1.01,-0.148
33.79,0.054,0.9,0.166
33.8,-0.245,1.333,-0.04
33.81,-0.05,0.378,-0.12
33.82,-0.478,0.896,-0.15
33.83,-0.037,1.006,0.176
33.84,-0.216,1.089,0.015
33.85,-0.223,0.798,-0.099
33.86,-0.463,0.338,-0.126
33.87,-0.127,1.38,0.176
33.88,-0.128,0.823,0.048
33.89,-0.292,0.891,-0.087
33.9,-0.436,0.417,-0.122
33.91,-0.184,1.184,0.211
33.92,-0.209,1.111,0.03
33.93,-0.12,0.438,-0.107
33.94,-0.523,1.011,-0.161
33.95,0.029,0.901,0.209
33.96,-0.315,1.291,0.095
33.97,-0.13,0.384,-0.102
33.98,-0.61,0.881,-0.09
33.99,-0.009,1.106,0.178
34.0,-0.235,1.081,0.011
34.01,-0.261,0.742,-0.106
34.02,-0.456,0.399,-0.105
34.03,-0.169,1.37,0.225
34.04,-0.192,0.782,0.045
34.05,-0.25,0.841,-0.102
34.06,-0.479,0.51,-0.137
34.07,-0.02,1.275,0.157
34.08,-0.255,0.95,-0.002
34.09,-0.166,0.57,-0.103
34.1,-0.521,0.942,-0.15
34.11,-0.044,0.946,0.202
34.12,-0.302,1.272,0.065
34.13,-0.196,0.281,-0.125
34.14,-0.477,1.33,-0.051
34.15,-0.009,0.888,0.178
34.16,-0.299,1.219,0.065
34.17,-0.229,0.511,-0.102
34.18,-0.43,0.935,-0.045
34.19,-0.134,1.162,0.234
34.2,-0.181,0.733,0.095
34.21,-0.393,1.0,-0.052
34.22,-0.417,0.507,-0.034
34.23,-0.208,1.324,0.189
34.24,-0.143,0.813,0.061
34.25,-0.374,0.759,-0.108
34.26,-0.41,0.886,-0.088
34.27,-0.039,1.011,0.18
34.28,-0.315,1.24,0.055
34.29,-0.158,0.314,-0.116
34.3,-0.529,1.268,-0.077
34.31,-0.026,0.833,0.151
34.32,-0.308,1.245,0.081
34.33,-0.27,0.45,-0.111
34.34,-0.45,0.865,-0.057
34.35,-0.141,1.133,0.164
34.36,-0.13,0.796,0.058
34.37,-0.325,0.869,-0.124
34.38,-0.379,0.536,-0.112
34.39,-0.125,1.337,0.145
34.4,-0.225,0.808,0.055
34.41,-0.312,0.732,-0.084
34.42,-0.49,0.782,-0.089
34.43,-0.086,1.054,0.181
34.44,-0.268,1.232,0.006
34.45,-0.199,0.327,-0.104
34.46,-0.505,1.132,-0.064
34.47,-0.021,0.865,0.164
34.48,-0.327,1.256,0.073
34.49,-0.151,0.441,-0.071
34.5,-0.528,0.869,-0.057
34.51,-0.029,1.12,0.15
34.52,-0.269,0.879,0.057
34.53,-0.267,0.902,-0.081
34.54,-0.461,0.398,-0.079
34.55,-0.172,1.363,0.195
34.56,-0.162,0.826,0.042
34.57,-0.247,0.776,-0.124
34.58,-0.439,0.674,-0.119
34.59,-0.026,1.098,0.194
34.6,-0.27,1.18,-0.016
34.61,-0.081,0.396,-0.065
34.62,-0.576,1.084,-0.12
34.63,0.052,0.845,0.168
34.64,-0.311,1.368,-0.002
34.65,-0.135,0.454,-0.111
34.66,-0.438,0.758,-0.121
34.67,-0.039,1.119,0.181
34.68,-0.179,0.969,-0.004
34.69,-0.26,0.896,-0.098
34.7,-0.441,0.357,-0.116
34.71,-0.131,1.327,0.205
34.72,-0.198,0.834,0.039
34.73,-0.272,0.83,-0.132
34.74,-0.453,0.646,-0.122
34.75,-0.062,1.127,0.191
34.76,-0.28,1.142,0.01
34.77,-0.099,0.445,-0.124
34.78,-0.566,1.124,-0.08
34.79,0.06,0.827,0.192
34.8,-0.387,1.324,0.028
34.81,-0.105,0.436,-0.098
34.82,-0.504,0.894,-0.109
34.83,-0.035,1.043,0.125
34.84,-0.238,0.932,0.031
34.85,-0.264,0.807,-0.144
34.86,-0.451,0.42,-0.074
34.87,-0.119,1.364,0.169
34.88,-0.187,0.789,0.047
34.89,-0.339,0.817,-0.099
34.9,-0.425,0.692,-0.052
34.91,-0.135,1.173,0.185
34.92,-0.223,0.876,0.022
34.93,-0.268,0.734,-0.132
34.94,-0.343,1.309,-0.113
34.95,0.001,0.836,0.182
34.96,-0.309,1.248,0.046
34.97,-0.218,0.296,-0.188
34.98,-0.336,1.5,-0.115
34.99,-0.033,0.779,0.15
35.0,-0.26,1.138,0.052
35.01,-0.313,0.611,-0.184
35.02,-0.319,1.05,-0.068
35.03,-0.093,1.128,0.107
35.04,-0.113,0.752,0.014
35.05,-0.346,0.902,-0.22
35.06,-0.21,0.905,-0.088
35.07,-0.174,1.162,0.119
35.08,-0.104,0.861,-0.043
35.09,-0.347,0.666,-0.213
35.1,-0.257,1.316,-0.07
35.11,-0.151,0.797,0.129
35.12,-0.212,1.227,-0.025
35.13,-0.244,0.293,-0.186
35.14,-0.306,1.596,-0.1
35.15,-0.059,0.757,0.142
35.16,-0.198,1.089,-0.003
35.17,-0.302,0.591,-0.159
35.18,-0.236,1.179,-0.063
35.19,-0.222,1.103,0.209
35.2,-0.118,0.656,0.065
35.21,-0.531,1.009,-0.208
35.22,-0.242,0.858,-0.041
35.23,-0.19,1.154,0.131
35.24,-0.181,0.896,0.044
35.25,-0.372,0.689,-0.15
35.26,-0.302,1.365,-0.038
35.27,-0.059,0.88,0.2
35.28,-0.287,1.156,0.068
35.29,-0.352,0.318,-0.167
35.3,-0.364,1.651,0.009
35.31,-0.134,0.737,0.151
35.32,-0.254,1.106,0.044
35.33,-0.318,0.553,-0.174
35.34,-0.401,1.26,0.035
35.35,-0.111,1.068,0.189
35.36,-0.045,0.722,0.016
35.37,-0.515,0.968,-0.168
35.38,-0.158,1.111,0.098
35.39,-0.25,1.151,0.168
35.4,-0.099,0.653,0.062
35.41,-0.461,0.764,-0.181
35.42,-0.262,1.573,0.034
35.43,-0.069,0.783,0.129
35.44,-0.192,1.016,-0.008
35.45,-0.36,0.367,-0.228
35.46,-0.332,1.971,0.065
35.47,-0.061,0.704,0.149
35.48,-0.19,0.937,0.017
35.49,-0.325,0.534,-0.194
35.5,-0.271,1.69,0.017
35.51,-0.141,0.987,0.137
35.52,0.018,0.486,0.024
35.53,-0.553,1.0,-0.185
35.54,-0.163,1.442,0.1
35.55,-0.203,1.039,0.156
35.56,0.001,0.601,0.038
35.57,-0.458,0.899,-0.177
35.58,-0.222,1.709,0.051
35.59,-0.075,0.833,0.141
35.6,-0.107,0.874,0.054
35.61,-0.381,0.669,-0.168
35.62,-0.355,1.751,0.077
35.63,-0.174,0.848,0.118
35.64,-0.04,0.702,0.015
35.65,-0.445,0.925,-0.185
35.66,-0.113,1.371,0.061
35.67,-0.273,1.136,0.19
35.68,0.037,0.451,0.047
35.69,-0.47,0.94,-0.14
35.7,-0.119,1.732,0.065
35.71,-0.206,0.773,0.139
35.72,0.031,0.888,-0.024
35.73,-0.447,0.391,-0.221
35.74,-0.129,2.0,0.121
35.75,-0.128,0.644,0.103
35.76,-0.094,0.827,-0.006
35.77,-0.352,0.404,-0.188
35.78,-0.122,2.0,0.076
35.79,-0.018,0.921,0.068
35.8,-0.018,0.434,-0.073
35.81,-0.385,0.877,-0.214
35.82,-0.075,1.574,0.103
35.83,-0.225,1.22,0.127
35.84,0.07,0.365,-0.011
35.85,-0.543,0.918,-0.222
35.86,0.027,1.659,0.193
35.87,-0.194,1.057,0.087
35.88,-0.048,0.662,-0.047
35.89,-0.401,0.391,-0.161
35.9,-0.219,1.826,0.167
35.91,-0.105,0.768,0.135
35.92,-0.176,0.924,-0.091
35.93,-0.387,0.241,-0.15
35.94,-0.13,1.758,0.214
35.95,-0.201,1.066,0.17
35.96,-0.151,0.578,-0.045
35.97,-0.426,0.811,-0.152
35.98,-0.098,1.272,0.193
35.99,-0.216,1.457,0.031
36.0,-0.014,0.352,-0.129
36.01,-0.419,0.87,-0.184
36.02,0.018,1.288,0.112
36.03,-0.204,1.133,0.083
36.04,-0.075,0.89,-0.143
36.05,-0.388,0.246,-0.117
36.06,-0.152,1.544,0.166
36.07,-0.061,0.863,0.022
36.08,-0.253,1.031,-0.128
36.09,-0.415,0.254,-0.144
36.1,-0.145,1.329,0.192
36.11,-0.176,1.115,-0.002
36.12,-0.056,0.643,-0.102
36.13,-0.502,0.907,-0.161
36.14,0.065,0.929,0.199
36.15,-0.34,1.3,-0.01
36.16,-0.15,0.409,-0.103
36.17,-0.485,0.962,-0.084
36.18,-0.126,0.941,0.194
36.19,-0.23,1.177,0.007
36.2,-0.304,0.663,-0.097
36.21,-0.375,0.578,-0.009
36.22,-0.173,1.256,0.203
36.23,-0.136,0.806,0.017
36.24,-0.384,0.932,-0.169
36.25,-0.166,1.05,-0.052
36.26,-0.106,1.231,0.181
36.27,-0.05,0.624,-0.012
36.28,-0.393,1.028,-0.206
36.29,-0.273,1.337,0.006
36.3,-0.065,0.834,0.154
36.31,-0.179,1.121,-0.003
36.32,-0.281,0.402,-0.227
36.33,-0.361,1.907,0.027
36.34,0.039,0.675,0.134
36.35,-0.229,1.081,0.064
36.36,-0.249,0.522,-0.216
36.37,-0.369,1.683,0.04
36.38,-0.08,0.922,0.142
36.39,-0.072,0.597,0.009
36.4,-0.448,0.98,-0.179
36.41,-0.15,1.36,0.048
36.42,-0.261,1.078,0.158
36.43,-0.016,0.527,0.059
36.44,-0.498,0.927,-0.148
36.45,-0.178,1.727,0.087
36.46,-0.175,0.844,0.201
36.47,-0.042,0.837,0.061
36.48,-0.501,0.426,-0.127
36.49,-0.156,2.0,0.106
36.5,-0.062,0.667,0.126
36.51,-0.139,0.844,-0.034
36.52,-0.328,0.424,-0.264
36.53,-0.067,1.999,0.086
36.54,-0.001,0.858,0.092
36.55,-0.048,0.483,-0.045
36.56,-0.448,0.878,-0.23
36.57,-0.04,1.518,0.167
36.58,-0.138,1.342,0.079
36.59,-0.006,0.284,-0.015
36.6,-0.469,0.947,-0.213
36.61,-0.045,1.598,0.145
36.62,-0.157,1.033,0.112
36.63,-0.015,0.736,-0.048
36.64,-0.411,0.344,-0.168
36.65,-0.205,1.828,0.211
36.66,-0.048,0.785,0.116
36.67,-0.186,0.942,-0.089
36.68,-0.36,0.288,-0.199
36.69,-0.123,1.667,0.156
36.7,-0.143,1.051,0.063
36.71,-0.127,0.564,-0.093
36.72,-0.417,0.808,-0.192
36.73,-0.053,1.202,0.175
36.74,-0.293,1.359,0.044
36.75,0.07,0.449,-0.086
36.76,-0.538,0.835,-0.17
36.77,0.001,1.197,0.146
36.78,-0.282,1.143,0.072
36.79,-0.09,0.846,-0.108
36.8,-0.503,0.306,-0.143
36.81,-0.146,1.545,0.216
36.82,-0.157,0.83,0.09
36.83,-0.174,0.99,-0.074
36.84,-0.516,0.294,-0.124
36.85,-0.108,1.286,0.22
36.86,-0.276,1.06,-0.025
36.87,-0.152,0.562,-0.126
36.88,-0.459,0.812,-0.151
36.89,-0.022,0.95,0.159
36.9,-0.308,1.346,0.038
36.91,-0.194,0.376,-0.109
36.92,-0.498,0.919,-0.084
36.93,-0.043,0.901,0.178
36.94,-0.242,1.184,0.014
36.95,-0.232,0.697,-0.127
36.96,-0.389,0.629,-0.053
36.97,-0.082,1.315,0.157
36.98,-0.163,0.717,0.043
36.99,-0.337,0.978,-0.155
37.0,-0.323,0.636,-0.048
37.01,-0.142,1.175,0.099
37.02,-0.244,0.997,-0.003
37.03,-0.265,0.591,-0.177
37.04,-0.253,1.285,-0.095
37.05,-0.04,0.869,0.109
37.06,-0.134,1.087,-0.028
37.07,-0.292,0.514,-0.237
37.08,-0.348,1.843,-0.007
37.09,-0.013,0.695,0.144
37.1,-0.252,1.142,0.134
37.11,-0.315,0.525,-0.224
37.12,-0.368,1.649,0.055
37.13,-0.145,0.954,0.15
37.14,-0.147,0.63,0.054
37.15,-0.445,0.957,-0.179
37.16,-0.265,1.347,0.084
37.17,-0.163,1.177,0.213
37.18,-0.04,0.503,0.086
37.19,-0.499,0.998,-0.179
37.2,-0.285,1.594,0.113
37.21,-0.157,0.834,0.168
37.22,-0.146,0.864,0.045
37.23,-0.315,0.512,-0.169
37.24,-0.337,2.0,0.078
37.25,-0.052,0.656,0.122
37.26,-0.153,0.904,0.009
37.27,-0.271,0.418,-0.233
37.28,-0.227,1.959,0.143
37.29,-0.112,0.819,0.111
37.3,0.01,0.592,-0.013
37.31,-0.429,0.919,-0.253
37.32,0.054,1.569,0.065
37.33,-0.201,1.223,0.076
37.34,0.013,0.316,0.015
37.35,-0.382,0.995,-0.244
37.36,-0.042,1.729,0.045
37.37,-0.014,0.989,0.143
37.38,-0.031,0.667,-0.079
37.39,-0.359,0.402,-0.167
37.4,-0.15,2.0,0.08
37.41,-0.047,0.687,0.16
37.42,-0.092,0.891,-0.006
37.43,-0.448,0.383,-0.237
37.44,-0.075,1.971,0.124
37.45,-0.092,0.941,0.037
37.46,-0.065,0.406,-0.036
37.47,-0.451,0.882,-0.237
37.48,-0.046,1.466,0.066
37.49,-0.201,1.213,0.091
37.5,0.129,0.408,-0.011
37.51,-0.495,0.933,-0.28
37.52,0.033,1.523,0.176
37.53,-0.141,1.088,0.046
37.54,-0.036,0.714,-0.075
37.55,-0.399,0.437,-0.176
37.56,-0.089,1.948,0.211
37.57,-0.089,0.71,0.157
37.58,-0.127,0.865,-0.057
37.59,-0.494,0.322,-0.187
37.6,-0.128,1.695,0.19
37.61,-0.227,0.981,0.152
37.62,-0.104,0.562,-0.059
37.63,-0.509,0.829,-0.157
37.64,-0.047,1.222,0.193
37.65,-0.341,1.321,0.139
37.66,-0.001,0.464,-0.058
37.67,-0.61,0.821,-0.154
37.68,0.023,1.391,0.202
37.69,-0.149,1.22,0.021
37.7,-0.029,0.789,-0.069
37.71,-0.535,0.357,-0.161
37.72,-0.09,1.684,0.205
37.73,-0.196,0.889,0.111
37.74,-0.149,1.0,-0.039
37.75,-0.463,0.218,-0.179
37.76,-0.113,1.502,0.216
37.77,-0.206,1.028,0.057
37.78,-0.078,0.692,-0.089
37.79,-0.467,0.739,-0.142
37.8,-0.041,1.134,0.24
37.81,-0.329,1.457,0.222
37.82,0.013,0.424,-0.112
37.83,-0.509,0.919,-0.152
37.84,-0.036,1.117,0.142
37.85,-0.267,1.358,-0.027
37.86,-0.216,0.44,-0.087
37.87,-0.463,0.765,-0.056
37.88,-0.122,1.104,0.183
37.89,-0.233,0.938,0.047
37.9,-0.306,0.869,-0.116
37.91,-0.499,0.416,-0.018
37.92,-0.096,1.375,0.162
37.93,-0.24,0.784,0.054
37.94,-0.252,0.859,-0.126
37.95,-0.475,0.804,-0.066
37.96,-0.031,1.082,0.166
37.97,-0.356,1.133,0.041
37.98,-0.183,0.407,-0.081
37.99,-0.54,1.37,-0.052
38.0,-0.007,0.781,0.185
38.01,-0.36,1.331,0.104
38.02,-0.227,0.383,-0.131
38.03,-0.457,1.138,-0.036
38.04,-0.037,0.96,0.196
38.05,-0.211,0.893,0.059
38.06,-0.314,0.879,-0.186
38.07,-0.288,0.815,-0.088
38.08,-0.17,1.262,0.163
38.09,-0.153,0.74,0.034
38.1,-0.363,0.906,-0.158
38.11,-0.229,1.188,-0.085
38.12,-0.039,0.989,0.114
38.13,-0.135,1.086,-0.045
38.14,-0.23,0.529,-0.235
38.15,-0.28,1.55,-0.078
38.16,-0.009,0.639,0.113
38.17,-0.246,1.267,0.013
38.18,-0.225,0.448,-0.239
38.19,-0.286,1.483,-0.066
38.2,-0.03,0.891,0.123
38.21,-0.152,0.798,-0.0
38.22,-0.341,0.969,-0.198
38.23,-0.238,1.144,-0.023
38.24,-0.138,1.206,0.157
38.25,-0.063,0.605,0.056
38.26,-0.408,1.002,-0.189
38.27,-0.29,1.272,-0.007
38.28,-0.131,0.888,0.125
38.29,-0.156,0.99,0.018
38.3,-0.317,0.532,-0.204
38.31,-0.386,1.856,0.044
38.32,-0.026,0.649,0.148
38.33,-0.21,1.085,0.087
38.34,-0.27,0.47,-0.194
38.35,-0.281,1.787,-0.008
38.36,-0.049,0.885,0.131
38.37,-0.084,0.667,0.039
38.38,-0.488,0.951,-0.201
38.39,-0.207,1.374,0.038
38.4,-0.239,1.156,0.177
38.41,-0.026,0.482,0.049
38.42,-0.528,1.057,-0.151
38.43,-0.203,1.521,0.038
38.44,-0.126,0.969,0.11
38.45,-0.033,0.728,0.033
38.46,-0.437,0.549,-0.191
38.47,-0.203,1.968,0.071
38.48,-0.045,0.673,0.145
38.49,-0.133,0.968,0.013
38.5,-0.342,0.385,-0.229
38.51,-0.293,1.93,0.086
38.52,-0.085,0.81,0.171
38.53,-0.087,0.632,0.024
38.54,-0.471,0.86,-0.207
38.55,-0.095,1.525,0.076
38.56,-0.163,1.167,0.156
38.57,0.066,0.37,0.016
38.58,-0.434,1.033,-0.197
38.59,-0.039,1.635,0.074
38.6,-0.177,0.935,0.104
38.61,0.044,0.752,0.0
38.62,-0.465,0.57,-0.232
38.63,-0.074,2.0,0.103
38.64,-0.117,0.665,0.115
38.65,-0.013,0.782,-0.023
38.66,-0.365,0.329,-0.227
38.67,-0.175,2.0,0.013
38.68,0.007,0.751,0.107
38.69,-0.106,0.76,-0.032
38.7,-0.411,0.516,-0.182
38.71,-0.145,1.909,0.182
38.72,-0.212,1.107,0.175
38.73,0.016,0.316,-0.018
38.74,-0.522,1.036,-0.217
38.75,0.033,1.44,0.133
38.76,-0.153,1.268,0.068
38.77,-0.016,0.34,-0.011
38.78,-0.404,0.848,-0.191
38.79,-0.095,1.756,0.121
38.8,-0.117,0.873,0.124
38.81,-0.152,0.857,-0.061
38.82,-0.373,0.332,-0.167
38.83,-0.248,1.987,0.185
38.84,-0.048,0.801,0.145
38.85,-0.168,0.703,-0.019
38.86,-0.431,0.497,-0.156
38.87,-0.151,1.724,0.165
38.88,-0.201,1.118,0.113
38.89,0.027,0.421,-0.051
38.9,-0.609,0.974,-0.183
38.91,-0.043,1.382,0.221
38.92,-0.284,1.29,0.155
38.93,-0.029,0.438,-0.019
38.94,-0.499,0.826,-0.22
38.95,-0.103,1.587,0.171
38.96,-0.119,0.975,0.088
38.97,-0.125,0.826,-0.092
38.98,-0.361,0.311,-0.168
38.99,-0.241,1.858,0.117
39.0,-0.154,0.831,0.156
39.01,-0.183,0.863,-0.095
39.02,-0.409,0.423,-0.212
39.03,-0.148,1.661,0.126
39.04,-0.213,1.144,0.078
39.05,0.017,0.515,-0.089
39.06,-0.524,0.889,-0.181
39.07,-0.033,1.346,0.221
39.08,-0.166,1.361,0.076
39.09,-0.065,0.413,-0.039
39.1,-0.427,0.848,-0.183
39.11,-0.136,1.452,0.17
39.12,-0.201,0.964,0.12
39.13,-0.173,0.889,-0.065
39.14,-0.409,0.299,-0.198
39.15,-0.177,1.721,0.129
39.16,-0.08,0.852,0.089
39.17,-0.226,0.917,-0.137
39.18,-0.385,0.31,-0.197
39.19,-0.149,1.594,0.142
39.2,-0.15,1.169,0.064
39.21,-0.062,0.492,-0.068
39.22,-0.513,0.903,-0.18
39.23,-0.021,1.19,0.202
39.24,-0.221,1.4,0.092
39.25,-0.021,0.446,-0.089
39.26,-0.417,0.834,-0.187
39.27,-0.104,1.351,0.166
39.28,-0.115,1.06,0.063
39.29,-0.163,0.932,-0.075
39.3,-0.394,0.254,-0.164
39.31,-0.175,1.716,0.213
39.32,-0.066,0.919,0.113
39.33,-0.247,0.904,-0.055
39.34,-0.372,0.304,-0.175
39.35,-0.262,1.476,0.254
39.36,-0.208,1.096,0.096
39.37,-0.105,0.57,-0.074
39.38,-0.491,0.863,-0.171
39.39,-0.025,1.161,0.15
39.4,-0.284,1.347,0.083
39.41,-0.026,0.47,-0.054
39.42,-0.508,0.802,-0.188
39.43,-0.065,1.276,0.206
39.44,-0.247,1.132,0.1
39.45,-0.089,0.575,-0.096
39.46,-0.5,0.573,-0.127
39.47,-0.122,1.347,0.206
39.48,-0.104,0.881,0.046
39.49,-0.228,0.993,-0.104
39.5,-0.41,0.226,-0.12
39.51,-0.19,1.441,0.203
39.52,-0.128,0.949,0.02
39.53,-0.088,0.827,-0.12
39.54,-0.424,0.648,-0.201
39.55,0.003,1.032,0.155
39.56,-0.278,1.291,0.021
39.57,-0.058,0.422,-0.119
39.58,-0.479,0.97,-0.174
39.59,-0.017,0.954,0.15
39.6,-0.194,1.32,0.038
39.61,-0.1,0.594,-0.113
39.62,-0.446,0.649,-0.163
39.63,-0.125,1.241,0.179
39.64,-0.056,0.969,0.015
39.65,-0.261,0.925,-0.149
39.66,-0.327,0.287,-0.133
39.67,-0.209,1.389,0.174
39.68,-0.133,0.812,0.003
39.69,-0.291,0.795,-0.103
39.7,-0.399,0.651,-0.171
39.71,-0.107,1.023,0.19
39.72,-0.258,1.305,-0.015
39.73,-0.114,0.274,-0.119
39.74,-0.448,1.097,-0.121
39.75,-0.046,0.875,0.167
39.76,-0.26,1.241,-0.016
39.77,-0.179,0.47,-0.091
39.78,-0.478,0.728,-0.075
39.79,-0.146,1.177,0.178
39.8,-0.141,0.881,0.004
39.81,-0.232,0.921,-0.084
39.82,-0.417,0.376,-0.067
39.83,-0.215,1.343,0.225
39.84,-0.213,0.807,0.082
39.85,-0.32,0.798,-0.058
39.86,-0.456,0.653,-0.103
39.87,-0.073,1.103,0.227
39.88,-0.241,1.214,0.025
39.89,-0.212,0.373,-0.135
39.9,-0.464,1.118,-0.055
39.91,-0.031,0.867,0.185
39.92,-0.29,1.324,0.057
39.93,-0.204,0.39,-0.122
39.94,-0.399,0.855,-0.104
39.95,-0.04,1.124,0.121
39.96,-0.156,0.855,-0.013
39.97,-0.296,0.872,-0.136
39.98,-0.395,0.445,-0.046
39.99,-0.122,1.375,0.181
40.0,-0.185,0.804,0.043
40.01,-0.314,0.809,-0.116
40.02,-0.406,0.739,-0.095
40.03,-0.038,1.045,0.101
40.04,-0.289,1.21,0.008
40.05,-0.199,0.357,-0.11
40.06,-0.446,1.322,-0.082
40.07,0.034,0.833,0.186
40.08,-0.353,1.302,0.089
40.09,-0.275,0.41,-0.084
40.1,-0.458,1.002,-0.03
40.11,-0.069,1.029,0.14
40.12,-0.196,0.888,-0.039
40.13,-0.282,0.876,-0.162
40.14,-0.309,0.747,-0.078
40.15,-0.156,1.273,0.192
40.16,-0.146,0.751,0.034
40.17,-0.308,0.913,-0.166
40.18,-0.328,1.084,-0.073
40.19,-0.037,1.036,0.131
40.2,-0.264,1.076,0.012
40.21,-0.323,0.476,-0.15
40.22,-0.457,1.483,-0.07
40.23,-0.045,0.74,0.147
40.24,-0.309,1.265,0.038
40.25,-0.227,0.402,-0.163
40.26,-0.342,1.853,-0.012
40.27,0.069,0.869,0.143
40.28,-0.184,0.896,0.054
40.29,-0.316,0.704,-0.212
40.3,-0.289,1.499,-0.015
40.31,-0.19,1.133,0.187
40.32,-0.049,0.548,0.038
40.33,-0.477,1.078,-0.217
40.34,-0.209,1.229,-0.001
40.35,-0.233,1.001,0.085
40.36,-0.05,0.738,0.022
40.37,-0.322,0.781,-0.252
40.38,-0.257,1.684,-0.012
40.39,-0.12,0.708,0.163
40.4,-0.186,1.043,0.096
40.41,-0.274,0.389,-0.194
40.42,-0.431,1.926,0.086
40.43,-0.036,0.686,0.143
40.44,-0.221,0.955,0.081
40.45,-0.379,0.628,-0.146
40.46,-0.341,1.584,0.083
40.47,-0.127,1.065,0.181
40.48,-0.033,0.515,0.08
40.49,-0.527,1.079,-0.153
40.5,-0.236,1.354,0.09
40.51,-0.284,1.017,0.17
40.52,-0.013,0.655,0.053
40.53,-0.454,0.833,-0.203
40.54,-0.156,1.765,0.017
40.55,-0.129,0.74,0.143
40.56,-0.076,0.929,0.045
40.57,-0.304,0.397,-0.222
40.58,-0.243,2.0,0.059
40.59,-0.069,0.745,0.152
40.6,-0.094,0.838,0.021
40.61,-0.367,0.572,-0.24
40.62,-0.147,1.686,0.094
40.63,-0.141,1.079,0.143
40.64,0.035,0.413,0.012
40.65,-0.433,1.067,-0.171
40.66,-0.16,1.42,0.12
40.67,-0.23,1.15,0.177
40.68,0.011,0.51,0.052
40.69,-0.437,0.834,-0.21
40.7,-0.119,1.882,0.076
40.71,-0.123,0.806,0.167
40.72,-0.123,0.836,0.041
40.73,-0.4,0.405,-0.155
40.74,-0.248,2.0,0.18
40.75,-0.118,0.664,0.214
40.76,-0.181,0.83,0.084
40.77,-0.36,0.551,-0.185
40.78,-0.132,1.79,0.114
40.79,-0.17,0.955,0.094
40.8,0.042,0.44,0.009
40.81,-0.515,1.024,-0.183
40.82,-0.04,1.494,0.132
40.83,-0.259,1.143,0.156
40.84,0.099,0.462,-0.0
40.85,-0.476,0.876,-0.209
40.86,-0.03,1.806,0.003
40.87,-0.054,0.875,0.023
40.88,-0.0,0.811,-0.092
40.89,-0.33,0.309,-0.256
40.9,-0.103,2.0,0.066
40.91,0.008,0.694,0.08
40.92,-0.147,0.788,0.005
40.93,-0.3,0.521,-0.275
40.94,-0.085,1.825,0.057
40.95,-0.103,0.99,0.12
40.96,0.029,0.441,-0.021
40.97,-0.482,0.987,-0.235
40.98,0.015,1.625,0.07
40.99,-0.165,1.182,0.096
41.0,0.076,0.414,-0.044
41.01,-0.439,0.89,-0.212
41.02,-0.052,1.836,0.01
41.03,-0.095,0.899,0.156
41.04,-0.063,0.759,-0.071
41.05,-0.353,0.366,-0.232
41.06,-0.2,1.902,0.131
41.07,-0.08,0.76,0.127
41.08,-0.17,0.955,-0.016
41.09,-0.441,0.296,-0.154
41.1,-0.228,1.987,0.196
41.11,-0.067,0.888,0.13
41.12,-0.142,0.548,0.034
41.13,-0.497,0.738,-0.213
41.14,-0.116,1.534,0.128
41.15,-0.218,1.223,0.096
41.16,-0.011,0.301,-0.036
41.17,-0.519,1.044,-0.224
41.18,-0.087,1.348,0.17
41.19,-0.234,1.162,0.104
41.2,-0.102,0.576,-0.027
41.21,-0.468,0.614,-0.167
41.22,-0.124,1.899,0.167
41.23,-0.09,0.797,0.126
41.24,-0.183,0.842,-0.013
41.25,-0.397,0.278,-0.19
41.26,-0.236,1.872,0.149
41.27,-0.147,0.836,0.135
41.28,-0.192,0.695,-0.014
41.29,-0.391,0.667,-0.233
41.3,-0.11,1.566,0.171
41.31,-0.204,1.225,0.156
41.32,0.032,0.362,-0.064
41.33,-0.477,1.032,-0.276
41.34,-0.066,1.348,0.154
41.35,-0.131,1.271,0.078
41.36,-0.048,0.48,-0.067
41.37,-0.471,0.65,-0.196
41.38,-0.187,1.745,0.118
41.39,-0.105,0.786,0.103
41.4,-0.163,0.966,-0.049
41.41,-0.405,0.218,-0.193
41.42,-0.198,1.948,0.118
41.43,-0.12,0.85,0.112
41.44,-0.099,0.708,-0.047
41.45,-0.495,0.642,-0.283
41.46,-0.089,1.533,0.146
41.47,-0.187,1.262,0.125
41.48,-0.031,0.292,-0.044
41.49,-0.416,1.07,-0.226
41.5,-0.099,1.35,0.113
41.51,-0.184,1.212,0.085
41.52,-0.046,0.627,-0.082
41.53,-0.49,0.629,-0.198
41.54,-0.055,1.791,0.139
41.55,-0.131,0.872,0.112
41.56,-0.113,0.859,-0.062
41.57,-0.395,0.29,-0.216
41.58,-0.135,1.962,0.112
41.59,-0.061,0.814,-0.009
41.6,-0.095,0.75,-0.033
41.61,-0.388,0.606,-0.244
41.62,-0.128,1.579,0.132
41.63,-0.196,1.239,0.087
41.64,0.046,0.377,-0.094
41.65,-0.486,1.036,-0.21
41.66,0.042,1.483,0.175
41.67,-0.202,1.247,0.077
41.68,0.014,0.467,-0.042
41.69,-0.429,0.729,-0.215
41.7,-0.084,1.677,0.118
41.71,-0.13,0.861,0.08
41.72,-0.035,0.889,-0.084
41.73,-0.312,0.245,-0.256
41.74,-0.127,2.0,0.111
41.75,-0.011,0.79,0.093
41.76,-0.163,0.774,-0.067
41.77,-0.349,0.535,-0.26
41.78,-0.122,1.689,0.163
41.79,-0.13,1.206,0.068
41.8,0.028,0.306,-0.093
41.81,-0.472,1.089,-0.209
41.82,0.029,1.367,0.15
41.83,-0.279,1.265,0.098
41.84,0.015,0.472,-0.075
41.85,-0.44,0.754,-0.203
41.86,-0.085,1.361,0.165
41.87,-0.25,1.155,0.124
41.88,-0.103,0.749,-0.034
41.89,-0.503,0.39,-0.135
41.9,-0.164,1.794,0.182
41.91,-0.115,0.853,0.099
41.92,-0.141,0.96,-0.044
41.93,-0.461,0.241,-0.167
41.94,-0.12,1.73,0.162
41.95,-0.17,0.959,0.104
41.96,-0.086,0.687,-0.061
41.97,-0.561,0.76,-0.158
41.98,-0.045,1.33,0.206
41.99,-0.298,1.383,0.127
42.0,0.035,0.381,-0.03
42.01,-0.6,0.966,-0.192
42.02,0.006,1.306,0.146
42.03,-0.236,1.146,0.117
42.04,-0.063,0.753,-0.052
42.05,-0.485,0.398,-0.141
42.06,-0.165,1.689,0.162
42.07,-0.086,0.839,0.097
42.08,-0.132,0.993,-0.075
42.09,-0.468,0.232,-0.18
42.1,-0.126,1.708,0.197
42.11,-0.164,1.01,0.13
42.12,-0.128,0.588,-0.062
42.13,-0.412,0.791,-0.199
42.14,-0.087,1.261,0.182
42.15,-0.324,1.315,0.123
42.16,0.001,0.477,-0.046
42.17,-0.579,0.906,-0.158
42.18,0.015,1.426,0.182
42.19,-0.181,1.194,0.055
42.2,-0.092,0.695,-0.053
42.21,-0.507,0.514,-0.184
42.22,-0.146,1.781,0.214
42.23,-0.116,0.823,0.129
42.24,-0.13,0.883,-0.061
42.25,-0.437,0.287,-0.218
42.26,-0.158,1.644,0.163
42.27,-0.098,0.906,0.058
42.28,-0.143,0.783,-0.053
42.29,-0.458,0.713,-0.19
42.3,-0.074,1.426,0.222
42.31,-0.263,1.324,0.134
42.32,0.033,0.426,-0.015
42.33,-0.653,1.024,-0.216
42.34,0.026,1.429,0.222
42.35,-0.184,1.24,0.093
42.36,-0.015,0.578,-0.051
42.37,-0.512,0.574,-0.193
42.38,-0.166,1.641,0.136
42.39,-0.151,0.789,0.076
42.4,-0.181,1.024,-0.05
42.41,-0.366,0.211,-0.219
42.42,-0.208,1.871,0.208
42.43,-0.086,0.941,0.145
42.44,-0.139,0.736,-0.066
42.45,-0.504,0.691,-0.221
42.46,-0.007,1.55,0.122
42.47,-0.263,1.324,0.111
42.48,0.042,0.279,-0.065
42.49,-0.545,1.009,-0.221
42.5,0.002,1.338,0.112
42.51,-0.224,1.131,0.077
42.52,0.034,0.675,-0.073
42.53,-0.496,0.563,-0.19
42.54,-0.121,1.802,0.187
42.55,-0.128,0.826,0.102
42.56,-0.084,0.973,-0.072
42.57,-0.463,0.243,-0.203
42.58,-0.121,1.978,0.197
42.59,-0.19,0.88,0.12
42.6,-0.092,0.623,-0.03
42.61,-0.495,0.678,-0.196
42.62,-0.091,1.486,0.167
42.63,-0.248,1.22,0.122
42.64,0.023,0.46,-0.076
42.65,-0.522,0.976,-0.202
42.66,-0.019,1.524,0.156
42.67,-0.275,1.389,0.117
42.68,0.045,0.47,-0.027
42.69,-0.597,0.879,-0.198
42.7,0.016,1.375,0.144
42.71,-0.21,1.066,0.059
42.72,-0.078,0.836,-0.05
42.73,-0.466,0.324,-0.211
42.74,-0.183,1.722,0.172
42.75,-0.158,0.8,0.105
42.76,-0.153,1.005,-0.063
42.77,-0.435,0.269,-0.228
42.78,-0.049,1.584,0.137
42.79,-0.13,1.105,0.075
42.8,-0.042,0.555,-0.048
42.81,-0.517,0.92,-0.201
42.82,-0.029,1.241,0.202
42.83,-0.293,1.311,0.14
42.84,-0.013,0.452,-0.056
42.85,-0.529,0.892,-0.186
42.86,-0.059,1.381,0.159
42.87,-0.173,1.095,0.079
42.88,-0.117,0.801,-0.05
42.89,-0.407,0.354,-0.183
42.9,-0.171,1.772,0.139
42.91,-0.049,0.794,0.113
42.92,-0.175,0.97,-0.059
42.93,-0.453,0.286,-0.183
42.94,-0.165,1.678,0.167
42.95,-0.153,1.061,0.095
42.96,-0.104,0.562,-0.08
42.97,-0.543,0.854,-0.173
42.98,-0.01,1.313,0.229
42.99,-0.266,1.361,0.077
43.0,0.055,0.353,-0.029
43.01,-0.532,0.972,-0.204
43.02,-0.07,1.393,0.159
43.03,-0.227,1.036,0.077
43.04,-0.098,0.783,-0.071
43.05,-0.381,0.397,-0.199
43.06,-0.161,1.875,0.151
43.07,-0.147,0.8,0.125
43.08,-0.123,0.891,-0.012
43.09,-0.535,0.316,-0.148
43.1,-0.193,1.724,0.22
43.11,-0.162,0.961,0.12
43.12,-0.109,0.566,-0.068
43.13,-0.464,0.791,-0.26
43.14,-0.014,1.562,0.125
43.15,-0.176,1.305,0.068
43.16,0.002,0.35,-0.065
43.17,-0.447,1.045,-0.249
43.18,-0.109,1.544,0.196
43.19,-0.201,1.152,0.107
43.2,0.007,0.687,-0.05
43.21,-0.384,0.511,-0.198
43.22,-0.248,1.838,0.178
43.23,-0.091,0.818,0.172
43.24,-0.128,0.967,-0.05
43.25,-0.446,0.278,-0.191
43.26,-0.151,2.0,0.203
43.27,-0.118,0.982,0.092
43.28,-0.08,0.549,-0.02
43.29,-0.442,0.83,-0.277
43.3,-0.079,1.595,0.186
43.31,-0.224,1.339,0.148
43.32,0.047,0.272,-0.013
43.33,-0.411,1.003,-0.274
43.34,-0.079,1.458,0.158
43.35,-0.131,1.178,0.133
43.36,-0.076,0.692,-0.077
43.37,-0.375,0.521,-0.209
43.38,-0.084,2.0,0.087
43.39,-0.07,0.756,0.103
43.4,-0.106,0.87,-0.031
43.41,-0.339,0.3,-0.232
43.42,-0.108,2.0,0.137
43.43,-0.044,0.877,0.092
43.44,-0.087,0.52,-0.026
43.45,-0.407,0.757,-0.291
43.46,-0.047,1.634,0.104
43.47,-0.141,1.212,0.052
43.48,-0.069,0.41,-0.08
43.49,-0.435,1.016,-0.225
43.5,-0.044,1.4,0.136
43.51,-0.192,1.345,0.079
43.52,0.031,0.431,-0.021
43.53,-0.4,0.839,-0.23
43.54,-0.059,1.573,0.161
43.55,-0.034,0.98,0.062
43.56,-0.135,0.845,-0.097
43.57,-0.35,0.307,-0.195
43.58,-0.186,2.0,0.159
43.59,-0.047,0.836,0.105
43.6,-0.119,0.801,-0.086
43.61,-0.308,0.449,-0.255
43.62,-0.098,1.85,0.13
43.63,-0.154,1.066,0.097
43.64,-0.008,0.4,-0.083
43.65,-0.535,0.967,-0.235
43.66,-0.024,1.52,0.233
43.67,-0.332,1.294,0.122
43.68,0.064,0.407,-0.029
43.69,-0.474,0.818,-0.24
43.7,-0.125,1.513,0.208
43.71,-0.239,0.978,0.139
43.72,-0.076,0.824,-0.054
43.73,-0.306,0.325,-0.258
43.74,-0.132,1.972,0.153
43.75,-0.041,0.737,0.081
43.76,-0.214,0.905,-0.041
43.77,-0.342,0.399,-0.247
43.78,-0.209,1.809,0.184
43.79,-0.115,1.124,0.052
43.8,-0.033,0.375,-0.024
43.81,-0.499,0.968,-0.209
43.82,-0.055,1.323,0.169
43.83,-0.199,1.238,0.081
43.84,0.01,0.474,-0.026
43.85,-0.54,0.831,-0.19
43.86,-0.036,1.606,0.157
43.87,-0.162,1.01,0.105
43.88,-0.03,0.803,-0.087
43.89,-0.443,0.398,-0.187
43.9,-0.115,2.0,0.181
43.91,-0.178,0.764,0.114
43.92,-0.042,0.858,-0.049
43.93,-0.444,0.391,-0.235
43.94,-0.035,1.852,0.129
43.95,-0.183,1.275,0.186
43.96,-0.21,0.836,0.015
43.97,-0.305,0.694,-0.091
43.98,-0.328,0.934,-0.101
43.99,-0.118,0.912,0.19
44.0,-0.292,1.284,0.1
44.01,-0.219,0.288,-0.151
44.02,-0.43,1.174,-0.084
44.03,-0.0,0.863,0.153
44.04,-0.31,1.23,0.056
44.05,-0.135,0.565,-0.142
44.06,-0.438,0.848,-0.057
44.07,-0.073,1.201,0.161
44.08,-0.202,0.713,0.041
44.09,-0.357,0.942,-0.131
44.1,-0.32,0.573,-0.095
44.11,-0.146,1.28,0.139
44.12,-0.167,0.836,-0.005
44.13,-0.259,0.779,-0.159
44.14,-0.461,0.887,-0.065
44.15,-0.066,0.943,0.201
44.16,-0.274,1.251,-0.006
44.17,-0.151,0.288,-0.176
44.18,-0.472,1.205,-0.099
44.19,0.062,0.902,0.095
44.2,-0.289,1.295,0.04
44.21,-0.257,0.302,-0.17
44.22,-0.338,1.33,-0.112
44.23,-0.053,0.928,0.116
44.24,-0.186,0.95,0.044
44.25,-0.325,0.804,-0.218
44.26,-0.311,0.741,-0.07
44.27,-0.186,1.264,0.154
44.28,-0.202,0.761,0.04
44.29,-0.366,0.842,-0.154
44.3,-0.277,0.944,-0.105
44.31,-0.122,1.163,0.14
44.32,-0.248,0.998,0.043
44.33,-0.242,0.546,-0.152
44.34,-0.359,1.543,-0.087
44.35,0.0,0.764,0.173
44.36,-0.29,1.274,0.039
44.37,-0.246,0.299,-0.211
44.38,-0.268,1.451,-0.086
44.39,-0.086,0.812,0.156
44.4,-0.124,0.936,0.053
44.41,-0.372,0.826,-0.256
44.42,-0.275,0.913,-0.03
44.43,-0.185,1.205,0.152
44.44,-0.093,0.687,0.077
44.45,-0.364,0.948,-0.15
44.46,-0.267,1.105,-0.044
44.47,-0.101,1.087,0.169
44.48,-0.202,0.914,0.023
44.49,-0.295,0.633,-0.2
44.5,-0.338,1.482,-0.084
44.51,-0.068,0.747,0.145
44.52,-0.308,1.269,0.048
44.53,-0.202,0.336,-0.21
44.54,-0.376,1.543,-0.036
44.55,-0.02,0.868,0.125
44.56,-0.236,0.932,0.015
44.57,-0.273,0.756,-0.202
44.58,-0.267,1.247,-0.033
44.59,-0.075,1.196,0.177
44.6,-0.102,0.524,0.042
44.61,-0.441,1.097,-0.176
44.62,-0.31,1.119,-0.048
44.63,-0.107,1.041,0.112
44.64,-0.173,0.868,0.039
44.65,-0.362,0.651,-0.23
44.66,-0.289,1.626,-0.002
44.67,-0.036,0.707,0.108
44.68,-0.201,1.135,0.051
44.69,-0.213,0.392,-0.254
44.7,-0.319,1.768,-0.066
44.71,-0.013,0.78,0.096
44.72,-0.16,0.913,0.072
44.73,-0.382,0.777,-0.241
44.74,-0.3,1.316,-0.004
44.75,-0.173,1.151,0.153
44.76,-0.05,0.543,0.05
44.77,-0.466,1.028,-0.195
44.78,-0.242,1.29,0.055
44.79,-0.172,1.02,0.122
44.8,-0.042,0.737,0.04
44.81,-0.362,0.79,-0.197
44.82,-0.224,1.806,0.028
44.83,-0.13,0.66,0.156
44.84,-0.112,1.025,0.054
44.85,-0.399,0.4,-0.19
44.86,-0.31,1.873,0.061
44.87,-0.179,0.654,0.116
44.88,-0.116,0.917,0.062
44.89,-0.411,0.709,-0.223
44.9,-0.294,1.395,0.077
44.91,-0.157,1.116,0.152
44.92,-0.044,0.478,0.061
44.93,-0.445,1.088,-0.125
44.94,-0.219,1.426,0.021
44.95,-0.223,1.081,0.299
44.96,-0.031,0.616,0.069
44.97,-0.515,0.735,-0.182
44.98,-0.178,1.816,0.067
44.99,-0.227,0.637,0.154
45.0,-0.028,0.788,0.043
45.01,-0.474,0.49,-0.165
45.02,-0.147,2.0,0.08
45.03,-0.167,0.643,0.192
45.04,-0.094,0.87,0.024
45.05,-0.399,0.388,-0.228
45.06,-0.082,1.909,0.126
45.07,-0.171,0.915,0.169
45.08,0.035,0.528,0.016
45.09,-0.483,0.9,-0.237
45.1,0.047,1.597,0.146
45.11,-0.286,1.199,0.138
45.12,0.129,0.368,0.012
45.13,-0.555,0.968,-0.238
45.14,0.042,1.665,0.037
45.15,-0.154,0.92,0.126
45.16,0.034,0.71,-0.056
45.17,-0.436,0.444,-0.168
45.18,-0.098,2.0,0.078
45.19,-0.067,0.644,0.154
45.2,-0.055,0.91,0.006
45.21,-0.301,0.422,-0.273
45.22,-0.104,1.931,0.074
45.23,-0.063,0.882,0.1
45.24,-0.018,0.479,-0.08
45.25,-0.409,0.922,-0.216
45.26,-0.067,1.536,0.097
45.27,-0.15,1.166,0.08
45.28,0.063,0.403,-0.014
45.29,-0.537,0.978,-0.159
45.3,0.048,1.794,0.1
45.31,-0.202,1.005,0.116
45.32,0.07,0.636,-0.035
45.33,-0.429,0.519,-0.207
45.34,-0.06,2.0,0.084
45.35,-0.11,0.663,0.136
45.36,-0.063,0.885,-0.003
45.37,-0.436,0.371,-0.19
45.38,-0.104,2.0,0.085
45.39,-0.152,0.898,0.145
45.4,-0.013,0.53,-0.023
45.41,-0.458,0.831,-0.183
45.42,0.017,1.615,0.122
45.43,-0.184,1.291,0.134
45.44,0.065,0.267,-0.038
45.45,-0.5,1.0,-0.222
45.46,0.038,1.692,0.036
45.47,-0.136,1.055,0.089
45.48,0.04,0.682,-0.017
45.49,-0.416,0.549,-0.219
45.5,-0.059,2.0,0.043
45.51,-0.056,0.754,0.071
45.52,-0.082,0.823,-0.047
45.53,-0.341,0.387,-0.195
45.54,-0.113,1.984,0.063
45.55,-0.116,0.799,0.109
45.56,0.007,0.582,-0.04
45.57,-0.476,0.795,-0.223
45.58,-0.058,1.529,0.104
45.59,-0.258,1.2,0.107
45.6,0.103,0.387,-0.02
45.61,-0.442,1.019,-0.232
45.62,-0.036,1.556,0.15
45.63,-0.095,1.129,0.057
45.64,0.015,0.609,-0.048
45.65,-0.375,0.607,-0.201
45.66,-0.153,1.975,0.081
45.67,-0.004,0.675,0.027
45.68,-0.103,0.926,-0.011
45.69,-0.393,0.288,-0.215
45.7,-0.175,1.893,0.143
45.71,-0.057,0.932,0.059
45.72,-0.097,0.528,-0.028
45.73,-0.358,0.801,-0.228
45.74,-0.105,1.522,0.118
45.75,-0.151,1.215,0.1
45.76,0.062,0.344,-0.045
45.77,-0.546,0.986,-0.236
45.78,0.062,1.568,0.106
45.79,-0.205,1.099,0.083
45.8,-0.033,0.48,-0.009
45.81,-0.499,0.813,-0.156
45.82,-0.123,1.511,0.201
45.83,-0.166,1.038,0.127
45.84,-0.178,0.83,-0.036
45.85,-0.395,0.258,-0.135
45.86,-0.241,1.801,0.209
45.87,-0.079,0.793,0.126
45.88,-0.191,0.935,-0.073
45.89,-0.393,0.364,-0.192
45.9,-0.095,1.692,0.146
45.91,-0.198,1.269,0.116
45.92,-0.038,0.404,-0.063
45.93,-0.509,0.998,-0.244
45.94,0.01,1.302,0.211
45.95,-0.255,1.356,0.095
45.96,-0.081,0.438,-0.021
45.97,-0.434,0.765,-0.143
45.98,-0.175,1.457,0.189
45.99,-0.27,0.977,0.197
46.0,-0.198,0.862,-0.025
46.01,-0.443,0.286,-0.136
46.02,-0.203,1.819,0.247
46.03,-0.1,0.863,0.135
46.04,-0.191,0.831,-0.071
46.05,-0.378,0.395,-0.182
46.06,-0.198,1.502,0.201
46.07,-0.151,1.101,0.103
46.08,-0.051,0.528,-0.077
46.09,-0.431,0.896,-0.193
46.1,-0.038,1.17,0.142
46.11,-0.316,1.371,0.177
46.12,-0.057,0.455,-0.036
46.13,-0.54,0.777,-0.182
46.14,-0.059,1.354,0.25
46.15,-0.192,1.005,0.123
46.16,-0.13,0.876,-0.062
46.17,-0.409,0.284,-0.216
46.18,-0.171,1.728,0.216
46.19,-0.183,0.861,0.136
46.2,-0.21,0.919,-0.032
46.21,-0.496,0.345,-0.158
46.22,-0.124,1.478,0.182
46.23,-0.196,1.064,0.085
46.24,-0.069,0.547,-0.045
46.25,-0.565,0.872,-0.143
46.26,-0.071,1.139,0.226
46.27,-0.31,1.397,0.163
46.28,-0.014,0.44,-0.016
46.29,-0.516,0.849,-0.209
46.3,-0.026,1.317,0.173
46.31,-0.229,1.093,0.121
46.32,-0.111,0.877,-0.097
46.33,-0.387,0.306,-0.223
46.34,-0.163,1.62,0.172
46.35,-0.077,0.862,0.091
46.36,-0.168,0.938,-0.06
46.37,-0.407,0.33,-0.21
46.38,-0.153,1.384,0.136
46.39,-0.157,1.095,0.004
46.4,-0.071,0.588,-0.099
46.41,-0.479,0.832,-0.169
46.42,0.019,1.069,0.175
46.43,-0.271,1.4,0.024
46.44,-0.011,0.439,-0.087
46.45,-0.533,0.863,-0.18
46.46,0.01,1.248,0.166
46.47,-0.312,1.091,0.088
46.48,-0.032,0.829,-0.098
46.49,-0.473,0.387,-0.175
46.5,-0.147,1.493,0.183
46.51,-0.145,0.799,-0.002
46.52,-0.188,1.013,-0.082
46.53,-0.437,0.281,-0.15
46.54,-0.092,1.327,0.174
46.55,-0.201,1.053,0.027
46.56,-0.061,0.637,-0.115
46.57,-0.469,0.828,-0.203
46.58,0.042,0.963,0.212
46.59,-0.242,1.379,0.015
46.6,-0.021,0.426,-0.134
46.61,-0.551,1.045,-0.162
46.62,0.044,0.874,0.199
46.63,-0.283,1.324,0.036
46.64,-0.2,0.458,-0.108
46.65,-0.53,0.753,-0.031
46.66,-0.09,1.207,0.225
46.67,-0.252,0.824,0.107
46.68,-0.28,0.944,-0.067
46.69,-0.391,0.443,-0.068
46.7,-0.162,1.331,0.214
46.71,-0.187,0.822,0.045
46.72,-0.336,0.777,-0.108
46.73,-0.456,0.813,0.011
46.74,-0.035,1.022,0.196
46.75,-0.258,1.207,0.005
46.76,-0.063,0.422,-0.168
46.77,-0.419,1.262,-0.147
46.78,0.077,0.856,0.115
46.79,-0.263,1.291,-0.01
46.8,-0.124,0.451,-0.186
46.81,-0.321,1.096,-0.148
46.82,0.025,1.088,0.126
46.83,-0.107,0.837,0.033
46.84,-0.326,0.907,-0.147
46.85,-0.358,0.763,-0.057
46.86,-0.196,1.279,0.167
46.87,-0.111,0.783,0.053
46.88,-0.349,0.852,-0.198
46.89,-0.313,1.076,-0.092
46.9,-0.119,0.982,0.16
46.91,-0.275,1.173,0.075
46.92,-0.238,0.38,-0.192
46.93,-0.392,1.528,-0.044
46.94,-0.063,0.742,0.179
46.95,-0.274,1.213,0.094
46.96,-0.224,0.48,-0.255
46.97,-0.39,1.168,-0.085
46.98,-0.135,0.941,0.142
46.99,-0.208,0.858,0.038
47.0,-0.349,0.844,-0.161
47.01,-0.249,0.946,-0.069
47.02,-0.095,1.242,0.212
47.03,-0.143,0.713,0.063
47.04,-0.419,0.94,-0.184
47.05,-0.225,1.115,-0.125
47.06,-0.093,0.962,0.104
47.07,-0.118,1.111,-0.028
47.08,-0.319,0.48,-0.213
47.09,-0.301,1.62,-0.054
47.1,-0.041,0.693,0.142
47.11,-0.266,1.198,0.075
47.12,-0.24,0.427,-0.162
47.13,-0.333,1.557,-0.091
47.14,0.009,0.986,0.173
47.15,-0.121,0.671,0.027
47.16,-0.421,1.013,-0.191
47.17,-0.27,1.06,-0.058
47.18,-0.187,1.18,0.155
47.19,-0.103,0.675,0.064
47.2,-0.419,1.011,-0.191
47.21,-0.235,1.224,-0.07
47.22,-0.12,0.93,0.164
47.23,-0.12,1.077,0.001
47.24,-0.292,0.499,-0.177
47.25,-0.265,1.689,-0.071
47.26,-0.032,0.718,0.125
47.27,-0.227,1.187,0.081
47.28,-0.331,0.457,-0.174
47.29,-0.287,1.465,-0.021
47.3,-0.167,0.889,0.138
47.31,-0.153,0.795,0.028
47.32,-0.361,0.906,-0.175
47.33,-0.198,1.137,-0.076
47.34,-0.117,1.244,0.174
47.35,-0.034,0.59,0.058
47.36,-0.527,1.024,-0.153
47.37,-0.228,1.237,-0.036
47.38,-0.156,0.953,0.147
47.39,-0.159,0.977,0.026
47.4,-0.274,0.569,-0.203
47.41,-0.269,1.728,0.022
47.42,-0.105,0.798,0.16
47.43,-0.168,0.937,0.095
47.44,-0.278,0.427,-0.229
47.45,-0.293,1.969,0.02
47.46,0.009,0.824,0.169
47.47,-0.171,0.821,0.052
47.48,-0.365,0.666,-0.237
47.49,-0.258,1.507,0.014
47.5,-0.233,0.966,0.116
47.51,-0.014,0.579,0.038
47.52,-0.525,1.035,-0.197
47.53,-0.185,1.262,0.024
47.54,-0.221,1.023,0.102
47.55,-0.022,0.659,0.045
47.56,-0.427,0.802,-0.209
47.57,-0.156,1.688,-0.042
47.58,-0.053,0.794,0.133
47.59,-0.112,0.977,0.06
47.6,-0.364,0.426,-0.258
47.61,-0.291,1.947,0.019
47.62,-0.079,0.689,0.108
47.63,-0.15,0.922,0.061
47.64,-0.386,0.646,-0.213
47.65,-0.215,1.559,0.013
47.66,-0.188,1.017,0.153
47.67,0.057,0.51,0.025
47.68,-0.532,1.071,-0.162
47.69,-0.159,1.321,0.044
47.7,-0.292,1.082,0.207
47.71,0.02,0.645,0.079
47.72,-0.472,0.825,-0.238
47.73,-0.161,1.656,-0.02
47.74,-0.098,0.769,0.128
47.75,-0.095,1.008,0.025
47.76,-0.323,0.407,-0.233
47.77,-0.298,1.953,-0.01
47.78,-0.071,0.698,0.148
47.79,-0.157,0.959,0.065
47.8,-0.358,0.604,-0.234
47.81,-0.251,1.546,0.003
47.82,-0.122,0.994,0.108
47.83,0.012,0.609,-0.004
47.84,-0.461,1.024,-0.195
47.85,-0.087,1.236,-0.047
47.86,-0.185,1.123,0.153
47.87,0.012,0.607,0.056
47.88,-0.489,0.868,-0.159
47.89,-0.233,1.599,0.04
47.9,-0.11,0.744,0.134
47.91,-0.135,1.034,0.059
47.92,-0.337,0.453,-0.216
47.93,-0.358,1.882,0.051
47.94,-0.087,0.689,0.156
47.95,-0.17,1.078,0.079
47.96,-0.301,0.544,-0.153
47.97,-0.245,1.563,-0.014
47.98,-0.077,1.121,0.127
47.99,-0.001,0.529,0.023
48.0,-0.489,1.068,-0.18
48.01,-0.168,1.214,0.032
48.02,-0.246,1.065,0.14
48.03,-0.073,0.689,0.05
48.04,-0.417,0.921,-0.212
48.05,-0.271,1.347,-0.029
48.06,-0.053,0.81,0.097
48.07,-0.134,1.076,0.017
48.08,-0.256,0.465,-0.256
48.09,-0.328,1.792,-0.015
48.1,-0.073,0.676,0.145
48.11,-0.139,1.123,0.062
48.12,-0.287,0.551,-0.261
48.13,-0.24,1.547,-0.047
48.14,-0.116,1.037,0.088
48.15,0.001,0.615,0.046
48.16,-0.492,1.037,-0.155
48.17,-0.23,1.189,-0.014
48.18,-0.205,1.131,0.144
48.19,-0.087,0.601,0.069
48.2,-0.379,0.952,-0.16
48.21,-0.231,1.39,0.067
48.22,-0.262,0.967,0.171
48.23,-0.047,0.712,0.04
48.24,-0.357,0.712,-0.171
48.25,-0.298,1.819,0.015
48.26,-0.046,0.67,0.134
48.27,-0.113,1.016,0.026
48.28,-0.31,0.365,-0.207
48.29,-0.268,1.844,-0.016
48.3,-0.141,0.686,0.117
48.31,-0.126,0.868,0.015
48.32,-0.353,0.789,-0.252
48.33,-0.218,1.26,-0.002
48.34,-0.159,1.096,0.123
48.35,-0.046,0.57,0.032
48.36,-0.365,1.012,-0.16
48.37,-0.24,1.351,-0.02
48.38,-0.169,1.092,0.154
48.39,-0.148,0.672,0.085
48.4,-0.377,0.714,-0.189
48.41,-0.293,1.76,0.083
48.42,-0.14,0.597,0.149
48.43,-0.191,1.072,0.068
48.44,-0.312,0.383,-0.213
48.45,-0.34,1.797,0.019
48.46,-0.066,0.723,0.146
48.47,-0.166,0.894,0.072
48.48,-0.44,0.74,-0.177
48.49,-0.303,1.372,0.073
