t,ax,ay,az
0.0,-0.426,0.643,-0.194
0.01,-0.285,1.653,0.122
0.02,-0.202,1.011,0.123
0.03,0.065,0.547,0.039
0.04,-0.504,1.002,-0.231
0.05,-0.028,1.408,0.087
0.06,-0.242,1.092,0.096
0.07,0.089,0.572,0.04
0.08,-0.5,0.822,-0.21
0.09,-0.044,1.836,0.074
0.1,-0.097,0.706,0.128
0.11,0.017,0.951,-0.039
0.12,-0.479,0.322,-0.217
0.13,-0.093,2.0,0.077
0.14,-0.127,0.605,0.102
0.15,-0.035,0.882,0.004
0.16,-0.376,0.507,-0.268
0.17,-0.094,1.75,0.126
0.18,-0.114,1.084,0.042
0.19,0.006,0.355,-0.009
0.2,-0.467,0.959,-0.189
0.21,-0.004,1.461,0.112
0.22,-0.239,1.251,0.162
0.23,0.004,0.481,-0.024
0.24,-0.451,0.789,-0.174
0.25,-0.039,1.784,0.15
0.26,-0.119,0.9,0.095
0.27,-0.04,0.831,-0.062
0.28,-0.411,0.271,-0.199
0.29,-0.113,1.921,0.167
0.3,-0.097,0.728,0.092
0.31,-0.101,0.879,-0.045
0.32,-0.456,0.335,-0.185
0.33,-0.121,1.608,0.192
0.34,-0.189,1.107,0.068
0.35,-0.031,0.552,-0.073
0.36,-0.46,0.893,-0.193
0.37,-0.031,1.204,0.204
0.38,-0.219,1.314,0.048
0.39,-0.005,0.574,-0.037
0.4,-0.498,0.833,-0.175
0.41,-0.044,1.343,0.175
0.42,-0.254,1.033,0.056
0.43,-0.073,0.961,-0.099
0.44,-0.429,0.345,-0.154
0.45,-0.125,1.507,0.134
0.46,-0.046,0.823,0.003
0.47,-0.222,1.059,-0.136
0.48,-0.384,0.329,-0.174
0.49,-0.171,1.363,0.171
0.5,-0.201,1.024,0.028
0.51,-0.219,0.555,-0.119
0.52,-0.426,0.846,-0.124
0.53,-0.103,0.955,0.201
0.54,-0.246,1.318,-0.003
0.55,-0.138,0.393,-0.063
0.56,-0.471,0.968,-0.05
0.57,-0.065,1.026,0.175
0.58,-0.252,1.051,0.043
0.59,-0.327,0.783,-0.16
0.6,-0.401,0.467,-0.034
0.61,-0.149,1.367,0.152
0.62,-0.162,0.713,0.063
0.63,-0.283,0.954,-0.139
0.64,-0.373,0.626,-0.024
0.65,-0.074,1.283,0.193
0.66,-0.29,0.961,0.041
0.67,-0.258,0.583,-0.109
0.68,-0.261,1.271,-0.084
0.69,-0.072,0.948,0.122
0.7,-0.218,1.112,-0.013
0.71,-0.318,0.451,-0.241
0.72,-0.258,1.72,-0.008
0.73,-0.123,0.699,0.118
0.74,-0.208,1.206,0.04
0.75,-0.327,0.415,-0.198
0.76,-0.283,1.615,-0.014
0.77,-0.091,0.931,0.128
0.78,-0.104,0.746,0.038
0.79,-0.475,0.896,-0.218
0.8,-0.159,1.319,0.072
0.81,-0.308,1.212,0.194
0.82,-0.077,0.531,0.085
0.83,-0.529,1.008,-0.143
0.84,-0.201,1.567,0.101
0.85,-0.219,0.873,0.142
0.86,-0.081,0.894,-0.003
0.87,-0.46,0.481,-0.17
0.88,-0.206,2.0,0.091
0.89,-0.164,0.538,0.143
0.9,-0.095,1.113,0.068
0.91,-0.416,0.361,-0.204
0.92,-0.176,1.884,0.113
0.93,-0.12,0.908,0.125
0.94,-0.055,0.595,0.004
0.95,-0.448,0.78,-0.183
0.96,-0.082,1.588,0.125
0.97,-0.173,1.083,0.123
0.98,0.048,0.431,-0.002
0.99,-0.466,0.973,-0.198
1.0,-0.016,1.604,0.12
1.01,-0.181,0.921,0.073
1.02,0.001,0.729,-0.023
1.03,-0.442,0.478,-0.198
1.04,-0.064,1.966,0.108
1.05,-0.057,0.679,0.074
1.06,-0.104,0.886,-0.049
1.07,-0.316,0.248,-0.211
1.08,-0.126,1.999,0.078
1.09,-0.129,0.817,0.1
1.1,-0.096,0.721,-0.018
1.11,-0.512,0.662,-0.194
1.12,-0.005,1.599,0.234
1.13,-0.304,1.308,0.115
1.14,0.033,0.307,-0.024
1.15,-0.495,0.975,-0.184
1.16,-0.035,1.293,0.188
1.17,-0.26,1.167,0.089
1.18,-0.063,0.77,-0.074
1.19,-0.408,0.485,-0.123
1.2,-0.101,1.74,0.186
1.21,-0.053,0.858,0.062
1.22,-0.194,1.021,-0.12
1.23,-0.359,0.276,-0.113
1.24,-0.216,1.615,0.231
1.25,-0.163,0.953,0.074
1.26,-0.128,0.836,-0.063
1.27,-0.369,0.637,-0.197
1.28,-0.036,1.148,0.144
1.29,-0.242,1.254,0.023
1.3,-0.031,0.467,-0.143
1.31,-0.459,0.937,-0.13
1.32,-0.044,1.0,0.229
1.33,-0.279,1.302,0.095
1.34,-0.085,0.651,-0.103
1.35,-0.461,0.637,-0.09
1.36,-0.085,1.228,0.188
1.37,-0.202,0.891,0.003
1.38,-0.298,0.976,-0.098
1.39,-0.445,0.328,-0.057
1.4,-0.157,1.351,0.173
1.41,-0.204,0.827,0.016
1.42,-0.333,0.772,-0.101
1.43,-0.341,0.756,-0.038
1.44,-0.091,1.002,0.147
1.45,-0.26,1.227,-0.017
1.46,-0.161,0.296,-0.15
1.47,-0.303,1.404,-0.05
1.48,-0.024,0.75,0.089
1.49,-0.256,1.258,0.013
1.5,-0.283,0.309,-0.17
1.51,-0.296,1.656,0.015
1.52,-0.105,0.763,0.094
1.53,-0.187,0.992,0.026
1.54,-0.335,0.69,-0.201
1.55,-0.203,1.441,0.08
1.56,-0.178,1.215,0.163
1.57,-0.031,0.479,0.028
1.58,-0.491,1.014,-0.14
1.59,-0.219,1.525,0.099
1.6,-0.243,0.972,0.153
1.61,-0.026,0.728,0.02
1.62,-0.531,0.644,-0.207
1.63,-0.113,1.907,0.104
1.64,-0.187,0.666,0.204
1.65,-0.079,0.979,0.029
1.66,-0.341,0.306,-0.183
1.67,-0.167,2.0,0.081
1.68,-0.047,0.691,0.086
1.69,-0.149,0.749,0.0
1.7,-0.355,0.582,-0.207
1.71,-0.063,1.792,0.139
1.72,-0.152,1.083,0.071
1.73,0.05,0.339,-0.04
1.74,-0.477,1.019,-0.234
1.75,0.046,1.516,0.146
1.76,-0.218,1.168,0.061
1.77,0.056,0.494,-0.052
1.78,-0.424,0.677,-0.244
1.79,-0.079,1.665,0.087
1.8,-0.12,0.855,0.076
1.81,-0.115,0.972,-0.062
1.82,-0.368,0.219,-0.14
1.83,-0.117,1.858,0.203
1.84,-0.064,0.803,0.099
1.85,-0.135,0.93,-0.06
1.86,-0.464,0.422,-0.171
1.87,-0.057,1.467,0.194
1.88,-0.26,1.25,0.078
1.89,0.026,0.478,-0.089
1.9,-0.514,0.968,-0.201
1.91,0.009,1.098,0.188
1.92,-0.366,1.299,0.066
1.93,-0.002,0.617,-0.039
1.94,-0.578,0.696,-0.106
1.95,-0.065,1.3,0.221
1.96,-0.173,1.01,0.104
1.97,-0.23,0.99,-0.121
1.98,-0.402,0.33,-0.094
1.99,-0.195,1.471,0.214
2.0,-0.136,0.804,0.055
2.01,-0.14,0.723,0.174
2.02,-0.262,1.129,0.048
2.03,-0.373,0.318,-0.152
2.04,-0.328,2.0,0.098
2.05,-0.164,0.653,0.157
2.06,-0.17,0.962,0.024
2.07,-0.394,0.571,-0.229
2.08,-0.238,1.653,0.084
2.09,-0.228,0.903,0.1
2.1,0.031,0.608,0.009
2.11,-0.547,1.0,-0.207
2.12,-0.08,1.455,0.078
2.13,-0.239,1.122,0.128
2.14,0.031,0.55,0.025
2.15,-0.467,0.761,-0.164
2.16,-0.044,1.861,0.112
2.17,-0.083,0.715,0.043
2.18,-0.007,0.685,-0.061
2.19,-0.397,0.431,-0.214
2.2,-0.08,1.931,0.156
2.21,-0.089,0.722,0.042
2.22,-0.107,0.898,-0.039
2.23,-0.333,0.28,-0.187
2.24,-0.141,1.906,0.157
2.25,-0.198,0.899,0.079
2.26,-0.071,0.637,-0.033
2.27,-0.453,0.69,-0.18
2.28,-0.014,1.368,0.18
2.29,-0.237,1.338,0.084
2.3,0.012,0.443,-0.051
2.31,-0.525,0.913,-0.165
2.32,0.012,1.288,0.186
2.33,-0.241,1.243,0.03
2.34,-0.037,0.795,-0.09
2.35,-0.445,0.477,-0.151
2.36,-0.067,1.556,0.144
2.37,-0.151,0.873,0.022
2.38,-0.08,1.117,-0.087
2.39,-0.474,0.221,-0.136
2.4,-0.13,1.459,0.155
2.41,-0.165,0.926,0.023
2.42,-0.108,0.817,-0.166
2.43,-0.392,0.733,-0.181
2.44,-0.034,1.049,0.178
2.45,-0.287,1.274,-0.034
2.46,-0.049,0.373,-0.103
2.47,-0.464,1.056,-0.099
2.48,-0.05,0.911,0.156
2.49,-0.3,1.177,-0.032
2.5,-0.177,0.552,-0.139
2.51,-0.371,0.696,-0.061
2.52,-0.106,1.231,0.134
2.53,-0.185,0.776,-0.006
2.54,-0.342,0.898,-0.111
2.55,-0.344,0.465,0.014
2.56,-0.191,1.323,0.164
2.57,-0.244,0.847,-0.003
2.58,-0.272,0.694,-0.129
2.59,-0.275,1.157,-0.079
2.6,-0.021,0.988,0.148
2.61,-0.243,1.159,-0.019
2.62,-0.298,0.369,-0.189
2.63,-0.329,1.571,-0.001
2.64,-0.086,0.795,0.117
2.65,-0.244,1.221,-0.0
2.66,-0.388,0.446,-0.217
2.67,-0.179,1.347,0.009
2.68,-0.162,1.053,0.084
2.69,-0.046,0.777,0.026
2.7,-0.446,0.929,-0.268
2.71,-0.102,1.164,-0.01
2.72,-0.165,1.213,0.145
2.73,-0.048,0.647,0.084
2.74,-0.495,0.903,-0.237
2.75,-0.223,1.502,0.059
2.76,-0.22,0.816,0.145
2.77,-0.08,1.017,-0.0
2.78,-0.432,0.403,-0.237
2.79,-0.174,2.0,0.081
2.8,-0.13,0.613,0.107
2.81,-0.069,1.003,0.03
2.82,-0.465,0.468,-0.167
2.83,-0.196,1.907,0.097
2.84,-0.192,0.77,0.077
2.85,0.005,0.664,0.005
2.86,-0.531,0.898,-0.192
2.87,-0.005,1.533,0.063
2.88,-0.258,1.148,0.151
2.89,0.067,0.395,0.042
2.9,-0.46,0.972,-0.191
2.91,-0.052,1.659,0.135
2.92,-0.104,0.987,0.14
2.93,-0.036,0.729,-0.052
2.94,-0.404,0.437,-0.178
2.95,-0.068,2.0,0.142
2.96,-0.126,0.619,0.168
2.97,-0.127,0.94,-0.027
2.98,-0.385,0.288,-0.202
2.99,-0.145,1.921,0.137
3.0,-0.088,0.862,0.063
3.01,-0.102,0.819,-0.057
3.02,-0.359,0.492,-0.199
3.03,-0.08,1.493,0.153
3.04,-0.213,1.191,0.141
3.05,-0.051,0.541,-0.081
3.06,-0.454,0.941,-0.136
3.07,-0.028,1.127,0.211
3.08,-0.262,1.345,0.048
3.09,-0.009,0.615,-0.033
3.1,-0.442,0.712,-0.144
3.11,-0.057,1.372,0.178
3.12,-0.181,0.911,0.031
3.13,-0.19,1.123,-0.128
3.14,-0.335,0.25,-0.087
3.15,-0.159,1.455,0.198
3.16,-0.112,0.841,-0.003
3.17,-0.187,1.025,-0.075
3.18,-0.398,0.553,-0.126
3.19,-0.029,1.218,0.204
3.2,-0.242,1.138,-0.079
3.21,-0.097,0.467,-0.121
3.22,-0.379,1.211,-0.068
3.23,-0.002,0.86,0.142
3.24,-0.359,1.258,0.049
3.25,-0.28,0.406,-0.179
3.26,-0.325,0.989,-0.051
3.27,-0.069,1.052,0.093
3.28,-0.21,0.921,0.013
3.29,-0.35,0.778,-0.155
3.3,-0.213,0.794,-0.035
3.31,-0.213,1.247,0.136
3.32,-0.138,0.736,0.054
3.33,-0.48,0.818,-0.155
3.34,-0.171,1.109,0.054
3.35,-0.175,1.054,0.088
3.36,-0.166,0.973,-0.001
3.37,-0.382,0.505,-0.217
3.38,-0.26,1.588,0.019
3.39,-0.111,0.666,0.092
3.4,-0.286,1.319,0.033
3.41,-0.301,0.234,-0.236
3.42,-0.174,1.75,0.036
3.43,-0.032,0.851,0.108
3.44,-0.063,0.809,0.01
3.45,-0.49,0.802,-0.23
3.46,-0.121,1.436,0.044
3.47,-0.23,1.072,0.134
3.48,0.04,0.553,0.028
3.49,-0.643,0.939,-0.194
3.5,0.0,1.575,0.048
3.51,-0.297,0.936,0.14
3.52,0.017,0.744,0.013
3.53,-0.565,0.559,-0.189
3.54,-0.101,2.0,0.109
3.55,-0.132,0.621,0.103
3.56,-0.063,0.991,0.002
3.57,-0.44,0.247,-0.166
3.58,-0.126,2.0,0.146
3.59,-0.096,0.762,0.062
3.6,-0.081,0.669,-0.015
3.61,-0.4,0.656,-0.207
3.62,-0.039,1.735,0.168
3.63,-0.226,1.182,0.113
3.64,0.035,0.324,-0.052
3.65,-0.528,0.95,-0.164
3.66,-0.005,1.473,0.177
3.67,-0.187,1.167,0.075
3.68,-0.039,0.658,-0.059
3.69,-0.327,0.521,-0.159
3.7,-0.186,1.749,0.181
3.71,-0.084,0.872,0.079
3.72,-0.135,1.069,-0.071
3.73,-0.333,0.17,-0.152
3.74,-0.175,1.588,0.167
3.75,-0.106,0.912,0.035
3.76,-0.115,0.902,-0.089
3.77,-0.375,0.608,-0.175
3.78,-0.064,1.16,0.163
3.79,-0.278,1.011,-0.003
3.8,-0.191,0.603,-0.077
3.81,-0.48,0.981,-0.038
3.82,-0.053,0.898,0.213
3.83,-0.288,1.352,0.001
3.84,-0.141,0.341,-0.137
3.85,-0.391,1.145,-0.014
3.86,-0.092,0.953,0.169
3.87,-0.296,0.998,-0.019
3.88,-0.324,0.708,-0.183
3.89,-0.181,0.871,-0.047
3.9,-0.23,1.264,0.123
3.91,-0.117,0.722,0.008
3.92,-0.397,0.936,-0.212
3.93,-0.161,1.066,-0.021
3.94,-0.12,1.129,0.087
3.95,-0.219,0.923,-0.001
3.96,-0.311,0.596,-0.252
3.97,-0.236,1.688,0.023
3.98,-0.015,0.732,0.159
3.99,-0.226,1.151,-0.005
4.0,-0.415,0.268,-0.198
4.01,-0.24,1.843,0.041
4.02,-0.184,0.673,0.108
4.03,-0.089,1.01,0.001
4.04,-0.499,0.614,-0.251
4.05,-0.055,1.603,0.058
4.06,-0.279,1.08,0.131
4.07,0.082,0.517,0.067
4.08,-0.506,1.014,-0.163
4.09,-0.09,1.581,0.098
4.1,-0.189,1.025,0.111
4.11,-0.057,0.637,0.018
4.12,-0.449,0.71,-0.146
4.13,-0.115,1.888,0.116
4.14,-0.037,0.65,0.071
4.15,-0.093,0.952,-0.028
4.16,-0.295,0.275,-0.217
4.17,-0.159,2.0,0.117
4.18,-0.075,0.703,0.104
4.19,-0.13,0.826,-0.027
4.2,-0.361,0.515,-0.204
4.21,-0.058,1.707,0.163
4.22,-0.163,1.21,0.07
4.23,0.035,0.375,-0.051
4.24,-0.488,0.993,-0.189
4.25,-0.026,1.356,0.215
4.26,-0.244,1.298,0.128
4.27,-0.025,0.541,-0.047
4.28,-0.433,0.669,-0.13
4.29,-0.09,1.536,0.174
4.3,-0.167,0.887,0.043
4.31,-0.105,1.122,-0.098
4.32,-0.353,0.217,-0.099
4.33,-0.198,1.581,0.186
4.34,-0.096,0.907,0.027
4.35,-0.172,0.999,-0.1
4.36,-0.323,0.479,-0.159
4.37,-0.104,1.191,0.153
4.38,-0.201,1.146,-0.051
4.39,-0.134,0.519,-0.145
4.4,-0.412,1.002,-0.052
4.41,-0.069,0.93,0.177
4.42,-0.307,1.278,0.002
4.43,-0.208,0.471,-0.116
4.44,-0.379,0.919,0.031
4.45,-0.125,1.063,0.153
4.46,-0.136,0.896,-0.041
4.47,-0.363,0.745,-0.16
4.48,-0.152,0.733,-0.04
4.49,-0.195,1.301,0.083
4.5,-0.222,0.726,0.03
4.51,-0.387,0.834,-0.202
4.52,-0.185,1.138,-0.026
4.53,-0.118,0.998,0.083
4.54,-0.175,1.062,-0.021
4.55,-0.331,0.471,-0.241
4.56,-0.205,1.804,0.049
4.57,-0.056,0.682,0.141
4.58,-0.139,1.171,0.038
4.59,-0.463,0.32,-0.195
4.6,-0.196,2.0,0.14
4.61,-0.195,0.606,0.176
4.62,-0.095,0.937,0.047
4.63,-0.427,0.524,-0.181
4.64,-0.114,1.76,0.152
4.65,-0.075,1.081,0.103
4.66,0.012,0.365,-0.008
4.67,-0.518,0.995,-0.164
4.68,0.004,1.596,0.14
4.69,-0.221,1.083,0.104
4.7,0.016,0.502,0.001
4.71,-0.417,0.785,-0.245
4.72,-0.06,1.714,0.103
4.73,-0.061,0.902,0.073
4.74,-0.045,0.826,-0.084
4.75,-0.405,0.286,-0.163
4.76,-0.239,1.792,0.207
4.77,-0.21,0.721,0.152
4.78,-0.169,1.049,-0.02
4.79,-0.387,0.301,-0.139
4.8,-0.062,1.577,0.192
4.81,-0.205,1.154,0.052
4.82,-0.015,0.555,-0.081
4.83,-0.505,0.942,-0.142
4.84,0.012,1.18,0.232
4.85,-0.333,1.318,0.048
4.86,-0.026,0.528,-0.069
4.87,-0.463,0.841,-0.092
4.88,-0.13,1.163,0.192
4.89,-0.196,0.988,-0.014
4.9,-0.296,0.901,-0.148
4.91,-0.348,0.321,-0.079
4.92,-0.166,1.446,0.162
4.93,-0.113,0.742,0.009
4.94,-0.339,0.967,-0.118
4.95,-0.375,0.518,-0.026
4.96,-0.099,1.205,0.134
4.97,-0.282,1.065,-0.051
4.98,-0.145,0.467,-0.147
4.99,-0.282,1.251,-0.099
5.0,0.013,0.873,0.11
5.01,-0.274,1.292,-0.009
5.02,-0.264,0.358,-0.176
5.03,-0.312,1.336,-0.029
5.04,-0.079,0.879,0.109
5.05,-0.202,1.007,0.007
5.06,-0.353,0.701,-0.212
5.07,-0.203,1.111,0.005
5.08,-0.183,1.229,0.133
5.09,-0.138,0.688,0.001
5.1,-0.387,1.009,-0.208
5.11,-0.214,1.324,0.059
5.12,-0.136,1.049,0.155
5.13,-0.058,0.833,0.033
5.14,-0.426,0.63,-0.223
5.15,-0.211,1.929,0.087
5.16,-0.139,0.752,0.173
5.17,-0.166,1.028,0.094
5.18,-0.439,0.24,-0.19
5.19,-0.113,2.0,0.1
5.2,-0.133,0.655,0.083
5.21,-0.075,0.779,0.077
5.22,-0.465,0.714,-0.208
5.23,-0.071,1.626,0.138
5.24,-0.184,1.134,0.149
5.25,0.033,0.354,0.008
5.26,-0.479,1.005,-0.213
5.27,0.024,1.571,0.128
5.28,-0.156,1.117,0.056
5.29,0.02,0.54,-0.053
5.3,-0.393,0.62,-0.187
5.31,-0.063,1.784,0.102
5.32,-0.075,0.747,0.115
5.33,-0.136,0.938,-0.049
5.34,-0.352,0.226,-0.179
5.35,-0.185,1.893,0.223
5.36,-0.127,0.829,0.112
5.37,-0.144,0.817,-0.055
5.38,-0.362,0.546,-0.172
5.39,-0.104,1.432,0.199
5.4,-0.184,1.044,-0.033
5.41,-0.072,0.641,-0.148
5.42,-0.43,0.812,-0.147
5.43,-0.031,0.999,0.211
5.44,-0.269,1.304,0.021
5.45,-0.101,0.418,-0.112
5.46,-0.439,0.9,-0.081
5.47,-0.03,1.066,0.17
5.48,-0.259,1.11,-0.002
5.49,-0.145,0.756,-0.148
5.5,-0.414,0.536,-0.03
5.51,-0.086,1.355,0.141
5.52,-0.214,0.707,-0.008
5.53,-0.302,0.966,-0.09
5.54,-0.348,0.565,-0.02
5.55,-0.176,1.264,0.162
5.56,-0.296,0.989,-0.006
5.57,-0.244,0.569,-0.136
5.58,-0.297,1.409,-0.029
5.59,-0.025,0.862,0.129
5.6,-0.275,1.23,0.025
5.61,-0.227,0.388,-0.18
5.62,-0.29,1.76,0.026
5.63,-0.045,0.802,0.139
5.64,-0.228,0.977,0.051
5.65,-0.358,0.664,-0.227
5.66,-0.233,1.419,0.029
5.67,-0.14,1.065,0.107
5.68,-0.118,0.601,0.021
5.69,-0.496,0.964,-0.219
5.7,-0.123,1.394,0.102
5.71,-0.318,1.02,0.197
5.72,-0.01,0.7,0.034
5.73,-0.56,0.759,-0.166
5.74,-0.108,1.879,0.118
5.75,-0.151,0.714,0.156
5.76,-0.044,0.989,0.022
5.77,-0.466,0.261,-0.193
5.78,-0.107,2.0,0.141
5.79,-0.165,0.67,0.142
5.8,-0.07,0.821,-0.002
5.81,-0.448,0.498,-0.231
5.82,-0.032,1.811,0.161
5.83,-0.146,1.013,0.103
5.84,0.049,0.368,-0.045
5.85,-0.549,0.993,-0.208
5.86,-0.025,1.325,0.192
5.87,-0.243,1.237,0.142
5.88,-0.029,0.533,-0.019
5.89,-0.465,0.802,-0.155
5.9,-0.098,1.636,0.145
5.91,-0.148,0.957,0.118
5.92,-0.088,0.98,-0.076
5.93,-0.353,0.227,-0.174
5.94,-0.165,1.709,0.172
5.95,-0.098,0.791,0.085
5.96,-0.164,0.976,-0.066
5.97,-0.365,0.369,-0.175
5.98,-0.115,1.42,0.159
5.99,-0.271,1.118,0.083
6.0,-0.078,0.595,-0.1
6.01,-0.458,0.893,-0.125
6.02,-0.023,1.03,0.208
6.03,-0.33,1.408,0.056
6.04,-0.087,0.51,-0.062
6.05,-0.419,0.83,-0.092
6.06,-0.129,1.181,0.166
6.07,-0.185,0.952,0.036
6.08,-0.37,0.876,-0.127
6.09,-0.344,0.366,-0.019
6.1,-0.201,1.398,0.164
6.11,-0.202,0.722,0.032
6.12,-0.352,0.973,-0.12
6.13,-0.33,0.579,-0.037
6.14,-0.108,1.162,0.158
6.15,-0.187,1.095,-0.133
6.16,-0.272,0.411,-0.178
6.17,-0.207,1.361,-0.122
6.18,-0.001,0.797,0.06
6.19,-0.221,1.311,-0.023
6.2,-0.319,0.358,-0.233
6.21,-0.302,1.827,0.061
6.22,-0.113,0.678,0.123
6.23,-0.143,1.112,0.044
6.24,-0.407,0.507,-0.219
6.25,-0.268,1.651,0.073
6.26,-0.184,0.98,0.127
6.27,-0.018,0.6,0.017
6.28,-0.439,1.009,-0.174
6.29,-0.135,1.387,0.081
6.3,-0.231,1.139,0.175
6.31,0.068,0.523,0.014
6.32,-0.512,0.861,-0.184
6.33,-0.031,1.8,0.088
6.34,-0.126,0.784,0.023
6.35,0.015,0.85,-0.043
6.36,-0.404,0.378,-0.152
6.37,-0.132,2.0,0.169
6.38,-0.073,0.578,0.122
6.39,-0.101,0.908,0.003
6.4,-0.441,0.388,-0.19
6.41,-0.09,1.906,0.163
6.42,-0.18,0.923,0.084
6.43,-0.023,0.463,-0.05
6.44,-0.464,0.906,-0.186
6.45,-0.027,1.472,0.146
6.46,-0.17,1.306,0.087
6.47,0.021,0.406,-0.016
6.48,-0.517,0.865,-0.153
6.49,-0.019,1.491,0.184
6.5,-0.211,1.049,0.114
6.51,-0.075,0.89,-0.08
6.52,-0.427,0.308,-0.158
6.53,-0.138,1.771,0.196
6.54,-0.091,0.781,0.076
6.55,-0.134,1.057,-0.121
6.56,-0.422,0.273,-0.143
6.57,-0.137,1.467,0.154
6.58,-0.257,1.058,0.017
6.59,-0.034,0.664,-0.115
6.6,-0.47,0.845,-0.17
6.61,-0.036,1.003,0.211
6.62,-0.31,1.263,0.012
6.63,-0.112,0.486,-0.108
6.64,-0.492,0.875,-0.098
6.65,-0.114,1.013,0.167
6.66,-0.228,1.135,-0.02
6.67,-0.211,0.747,-0.13
6.68,-0.398,0.481,-0.041
6.69,-0.19,1.327,0.189
6.7,-0.152,0.721,0.028
6.71,-0.348,1.003,-0.137
6.72,-0.329,0.555,-0.024
6.73,-0.159,1.228,0.142
6.74,-0.199,0.954,-0.021
6.75,-0.332,0.606,-0.145
6.76,-0.32,1.238,-0.089
6.77,-0.031,0.917,0.161
6.78,-0.254,1.255,0.012
6.79,-0.339,0.27,-0.183
6.8,-0.248,1.594,-0.024
6.81,-0.11,0.812,0.146
6.82,-0.25,1.004,0.054
6.83,-0.358,0.606,-0.151
6.84,-0.253,1.349,-0.004
6.85,-0.149,1.141,0.169
6.86,-0.022,0.669,0.014
6.87,-0.56,1.019,-0.217
6.88,-0.125,1.253,0.043
6.89,-0.22,1.135,0.17
6.9,-0.15,0.768,0.078
6.91,-0.489,0.844,-0.153
6.92,-0.231,1.731,0.068
6.93,-0.137,0.697,0.137
6.94,-0.145,1.069,0.055
6.95,-0.342,0.353,-0.196
6.96,-0.264,1.973,0.084
6.97,-0.071,0.677,0.16
6.98,-0.09,0.903,-0.004
6.99,-0.443,0.545,-0.222
7.0,-0.119,1.739,0.148
7.01,-0.074,0.877,0.111
7.02,-0.093,0.536,-0.04
7.03,-0.359,0.852,-0.26
7.04,-0.021,1.595,0.135
7.05,-0.105,1.202,0.05
7.06,0.052,0.361,-0.091
7.07,-0.386,1.001,-0.204
7.08,-0.066,1.538,0.114
7.09,-0.07,1.09,0.008
7.1,-0.034,0.67,-0.093
7.11,-0.375,0.502,-0.18
7.12,-0.106,1.739,0.136
7.13,0.041,0.74,0.0
7.14,-0.123,1.065,-0.109
7.15,-0.375,0.204,-0.212
7.16,-0.125,1.759,0.179
7.17,-0.189,0.918,0.08
7.18,-0.098,0.738,-0.036
7.19,-0.422,0.66,-0.228
7.2,-0.027,1.198,0.197
7.21,-0.286,1.319,0.021
7.22,0.038,0.507,-0.077
7.23,-0.498,0.929,-0.207
7.24,0.02,1.077,0.196
7.25,-0.195,1.181,0.054
7.26,-0.251,0.727,-0.108
7.27,-0.453,0.554,-0.098
7.28,-0.203,1.352,0.207
7.29,-0.084,0.865,0.009
7.3,-0.237,0.927,-0.12
7.31,-0.36,0.429,-0.055
7.32,-0.169,1.346,0.157
7.33,-0.303,0.76,0.049
7.34,-0.29,0.86,-0.094
7.35,-0.445,0.731,-0.106
7.36,-0.048,1.053,0.169
7.37,-0.143,1.308,0.02
7.38,-0.264,0.267,-0.167
7.39,-0.38,1.096,-0.05
7.4,-0.031,0.875,0.178
7.41,-0.252,1.246,0.071
7.42,-0.22,0.44,-0.148
7.43,-0.285,1.152,-0.044
7.44,-0.036,1.165,0.152
7.45,-0.105,0.797,-0.01
7.46,-0.395,0.908,-0.179
7.47,-0.158,0.888,-0.058
7.48,-0.248,1.25,0.15
7.49,-0.153,0.762,0.036
7.5,-0.462,0.859,-0.212
7.51,-0.184,1.276,-0.049
7.52,-0.207,0.814,0.08
7.53,-0.176,1.201,0.016
7.54,-0.327,0.312,-0.23
7.55,-0.249,1.852,0.017
7.56,-0.047,0.717,0.126
7.57,-0.223,1.1,0.069
7.58,-0.429,0.448,-0.2
7.59,-0.251,1.842,0.08
7.6,-0.206,0.917,0.151
7.61,-0.039,0.599,0.051
7.62,-0.551,0.917,-0.147
7.63,-0.184,1.426,0.083
7.64,-0.313,0.994,0.128
7.65,0.05,0.613,0.027
7.66,-0.524,0.987,-0.179
7.67,-0.104,1.637,0.06
7.68,-0.207,0.805,0.149
7.69,0.063,0.878,-0.001
7.7,-0.427,0.39,-0.182
7.71,-0.045,2.0,0.079
7.72,-0.067,0.665,0.079
7.73,-0.075,0.927,-0.017
7.74,-0.315,0.337,-0.271
7.75,-0.044,1.992,0.077
7.76,-0.096,0.825,0.118
7.77,-0.068,0.492,-0.049
7.78,-0.433,0.9,-0.247
7.79,-0.032,1.441,0.103
7.8,-0.185,1.223,0.079
7.81,-0.014,0.442,-0.059
7.82,-0.5,0.971,-0.177
7.83,-0.048,1.245,0.215
7.84,-0.329,1.249,0.153
7.85,-0.112,0.641,-0.042
7.86,-0.405,0.673,-0.152
7.87,-0.164,1.514,0.183
7.88,-0.148,0.964,0.06
7.89,-0.143,1.0,-0.096
7.9,-0.342,0.233,-0.152
7.91,-0.212,1.6,0.182
7.92,-0.174,0.79,0.11
7.93,-0.144,1.008,-0.131
7.94,-0.365,0.467,-0.217
7.95,-0.101,1.214,0.183
7.96,-0.2,1.171,-0.029
7.97,-0.072,0.473,-0.159
7.98,-0.463,0.942,-0.154
7.99,0.038,0.923,0.203
8.0,-0.301,1.317,-0.009
8.01,-0.049,0.482,-0.101
8.02,-0.529,0.804,-0.099
8.03,-0.003,1.105,0.148
8.04,-0.247,0.909,-0.029
8.05,-0.279,0.883,-0.104
8.06,-0.406,0.356,-0.069
8.07,-0.214,1.357,0.162
8.08,-0.166,0.761,0.015
8.09,-0.341,0.874,-0.095
8.1,-0.324,0.734,-0.037
8.11,-0.135,1.136,0.158
8.12,-0.314,1.073,0.055
8.13,-0.28,0.409,-0.123
8.14,-0.294,1.345,-0.068
8.15,-0.075,0.825,0.139
8.16,-0.264,1.308,0.048
8.17,-0.266,0.353,-0.175
8.18,-0.38,1.26,0.007
8.19,-0.025,0.933,0.106
8.2,-0.141,1.026,-0.084
8.21,-0.343,0.713,-0.216
8.22,-0.187,1.134,-0.011
8.23,-0.142,1.261,0.149
8.24,-0.054,0.647,0.072
8.25,-0.441,0.997,-0.226
8.26,-0.14,1.332,0.054
8.27,-0.152,1.048,0.159
8.28,-0.105,0.852,0.044
8.29,-0.421,0.661,-0.22
8.3,-0.321,1.794,0.068
8.31,-0.101,0.619,0.153
8.32,-0.171,1.182,0.03
8.33,-0.316,0.35,-0.268
8.34,-0.193,1.969,0.046
8.35,-0.095,0.735,0.079
8.36,-0.029,0.821,0.009
8.37,-0.422,0.712,-0.194
8.38,-0.14,1.628,0.081
8.39,-0.273,0.983,0.095
8.4,0.087,0.517,0.019
8.41,-0.493,1.085,-0.177
8.42,-0.076,1.507,0.144
8.43,-0.228,1.036,0.156
8.44,0.008,0.615,0.051
8.45,-0.468,0.66,-0.15
8.46,-0.083,1.89,0.112
8.47,-0.065,0.709,0.137
8.48,-0.109,0.961,-0.003
8.49,-0.372,0.252,-0.189
8.5,-0.137,2.0,0.205
8.51,-0.083,0.792,0.099
8.52,-0.133,0.643,-0.005
8.53,-0.284,0.651,-0.202
8.54,-0.161,1.53,0.142
8.55,-0.112,1.159,0.144
8.56,0.004,0.386,-0.071
8.57,-0.601,0.989,-0.143
8.58,0.007,1.419,0.136
8.59,-0.284,1.202,0.066
8.6,-0.041,0.601,-0.047
8.61,-0.403,0.608,-0.173
8.62,-0.02,1.189,0.206
8.63,-0.341,1.175,0.104
8.64,-0.117,0.863,-0.062
8.65,-0.402,0.329,-0.193
8.66,-0.149,1.504,0.232
8.67,-0.112,0.808,0.106
8.68,-0.266,1.015,-0.144
8.69,-0.351,0.325,-0.149
8.7,-0.128,1.363,0.188
8.71,-0.236,0.945,0.011
8.72,-0.101,0.649,-0.111
8.73,-0.508,0.851,-0.13
8.74,0.055,0.967,0.181
8.75,-0.365,1.323,-0.055
8.76,-0.099,0.42,-0.128
8.77,-0.493,0.989,-0.065
8.78,-0.033,0.973,0.193
8.79,-0.288,1.161,0.026
8.8,-0.295,0.625,-0.083
8.81,-0.379,0.76,0.003
8.82,-0.169,1.199,0.143
8.83,-0.157,0.752,0.042
8.84,-0.399,0.918,-0.167
8.85,-0.258,0.865,0.007
8.86,-0.175,1.179,0.124
8.87,-0.222,0.9,0.028
8.88,-0.379,0.662,-0.184
8.89,-0.222,1.429,-0.052
8.9,-0.136,0.793,0.106
8.91,-0.226,1.217,0.037
8.92,-0.299,0.254,-0.205
8.93,-0.299,1.848,0.077
8.94,-0.086,0.719,0.129
8.95,-0.17,1.007,0.024
8.96,-0.357,0.555,-0.231
8.97,-0.213,1.527,0.041
8.98,-0.225,1.009,0.118
8.99,-0.04,0.611,0.04
9.0,-0.502,0.996,-0.213
9.01,-0.117,1.236,0.084
9.02,-0.294,1.043,0.125
9.03,-0.018,0.694,0.019
9.04,-0.524,0.756,-0.169
9.05,-0.141,1.768,0.041
9.06,-0.137,0.754,0.105
9.07,-0.04,0.977,0.024
9.08,-0.519,0.251,-0.185
9.09,-0.114,2.0,0.13
9.1,-0.228,0.54,0.131
9.11,-0.037,0.965,0.002
9.12,-0.455,0.416,-0.211
9.13,-0.057,1.832,0.193
9.14,-0.145,1.003,0.052
9.15,0.066,0.396,-0.045
9.16,-0.402,0.963,-0.201
9.17,-0.011,1.534,0.142
9.18,-0.184,1.154,0.088
9.19,0.028,0.489,-0.013
9.2,-0.423,0.828,-0.173
9.21,-0.022,1.685,0.116
9.22,-0.133,0.974,0.059
9.23,-0.097,0.804,-0.062
9.24,-0.359,0.288,-0.153
9.25,-0.23,1.775,0.18
9.26,-0.073,0.749,0.042
9.27,-0.144,1.077,-0.093
9.28,-0.271,0.272,-0.141
9.29,-0.173,1.481,0.216
9.3,-0.088,1.047,0.042
9.31,-0.006,0.653,-0.149
9.32,-0.476,0.925,-0.177
9.33,0.016,1.017,0.235
9.34,-0.409,1.408,0.027
9.35,-0.007,0.443,-0.042
9.36,-0.533,0.951,-0.108
9.37,-0.011,1.042,0.2
9.38,-0.265,0.979,-0.035
9.39,-0.286,0.83,-0.137
9.4,-0.347,0.482,-0.004
9.41,-0.23,1.346,0.141
9.42,-0.206,0.746,0.008
9.43,-0.35,0.916,-0.16
9.44,-0.138,0.979,-0.041
9.45,-0.145,1.25,0.135
9.46,-0.119,0.716,0.003
9.47,-0.421,0.84,-0.186
9.48,-0.124,1.48,-0.028
9.49,-0.122,0.833,0.111
9.5,-0.13,1.051,-0.026
9.51,-0.394,0.428,-0.266
9.52,-0.232,1.984,0.054
9.53,-0.113,0.599,0.112
9.54,-0.149,1.084,0.029
9.55,-0.447,0.441,-0.209
9.56,-0.186,1.863,0.157
9.57,-0.163,0.898,0.152
9.58,-0.024,0.572,0.021
9.59,-0.521,0.928,-0.162
9.6,-0.031,1.578,0.141
9.61,-0.238,1.137,0.127
9.62,0.024,0.411,0.005
9.63,-0.454,0.964,-0.189
9.64,-0.078,1.678,0.121
9.65,-0.078,0.885,0.075
9.66,0.024,0.767,-0.061
9.67,-0.365,0.392,-0.17
9.68,-0.199,1.806,0.126
9.69,-0.054,0.761,0.128
9.7,-0.146,1.019,-0.042
9.71,-0.393,0.265,-0.158
9.72,-0.099,1.78,0.181
9.73,-0.092,0.949,0.052
9.74,-0.021,0.657,-0.084
9.75,-0.526,0.777,-0.185
9.76,0.031,1.224,0.207
9.77,-0.389,1.395,0.072
9.78,0.131,0.527,-0.074
9.79,-0.52,0.875,-0.14
9.8,0.004,1.116,0.191
9.81,-0.183,1.146,0.027
9.82,-0.119,0.86,-0.142
9.83,-0.411,0.414,-0.099
9.84,-0.17,1.373,0.165
9.85,-0.176,0.688,0.009
9.86,-0.274,1.021,-0.112
9.87,-0.354,0.427,-0.067
9.88,-0.182,1.247,0.13
9.89,-0.279,0.917,-0.051
9.9,-0.269,0.629,-0.157
9.91,-0.307,1.079,-0.038
9.92,-0.068,0.872,0.158
9.93,-0.279,1.271,0.004
9.94,-0.244,0.284,-0.156
9.95,-0.287,1.503,-0.024
9.96,-0.103,0.828,0.17
9.97,-0.233,1.093,0.016
9.98,-0.382,0.614,-0.204
9.99,-0.204,1.219,0.014
10.0,-0.142,1.132,0.123
10.01,-0.108,0.703,-0.008
10.02,-0.429,0.985,-0.228
10.03,-0.137,1.226,-0.005
10.04,-0.14,1.125,0.15
10.05,-0.051,0.742,0.02
10.06,-0.486,0.808,-0.195
10.07,-0.198,1.706,0.086
10.08,-0.137,0.617,0.109
10.09,-0.126,1.094,0.007
10.1,-0.428,0.343,-0.171
10.11,-0.213,2.0,0.122
10.12,-0.138,0.646,0.167
10.13,-0.067,0.875,0.002
10.14,-0.514,0.521,-0.153
10.15,-0.071,1.835,0.159
10.16,-0.174,0.969,0.106
10.17,0.027,0.424,-0.037
10.18,-0.465,0.972,-0.166
10.19,0.024,1.529,0.157
10.2,-0.252,1.233,0.137
10.21,0.051,0.465,-0.054
10.22,-0.322,0.766,-0.236
10.23,-0.012,1.261,0.201
10.24,-0.302,1.212,0.047
10.25,-0.115,0.756,-0.072
10.26,-0.327,0.443,-0.227
10.27,-0.139,1.542,0.179
10.28,-0.142,0.752,0.053
10.29,-0.137,1.147,-0.129
10.3,-0.456,0.283,-0.153
10.31,-0.09,1.379,0.179
10.32,-0.232,0.884,-0.035
10.33,-0.09,0.795,-0.115
10.34,-0.5,0.794,-0.095
10.35,-0.445,0.92,-0.132
10.36,0.006,0.966,0.185
10.37,-0.336,1.32,0.035
10.38,-0.106,0.573,-0.15
10.39,-0.461,0.733,-0.055
10.4,-0.011,1.132,0.143
10.41,-0.292,0.931,0.018
10.42,-0.209,0.896,-0.101
10.43,-0.447,0.541,-0.008
10.44,-0.103,1.345,0.188
10.45,-0.318,0.771,0.055
10.46,-0.264,0.894,-0.156
10.47,-0.314,0.945,-0.034
10.48,-0.062,1.038,0.114
10.49,-0.312,1.101,0.004
10.5,-0.283,0.483,-0.169
10.51,-0.364,1.489,0.041
10.52,-0.097,0.724,0.146
10.53,-0.34,1.289,-0.0
10.54,-0.282,0.299,-0.198
10.55,-0.212,1.731,0.032
10.56,-0.1,0.849,0.117
10.57,-0.053,0.797,0.03
10.58,-0.52,0.749,-0.247
10.59,-0.023,1.392,0.097
10.6,-0.275,1.112,0.099
10.61,0.053,0.496,0.012
10.62,-0.595,1.048,-0.164
10.63,-0.077,1.553,0.007
10.64,-0.193,0.92,0.115
10.65,-0.055,0.763,-0.048
10.66,-0.488,0.508,-0.169
10.67,-0.121,1.965,0.128
10.68,-0.109,0.637,0.17
10.69,-0.135,0.969,0.001
10.7,-0.416,0.214,-0.167
10.71,-0.156,2.0,0.197
10.72,-0.106,0.733,0.056
10.73,-0.115,0.616,-0.062
10.74,-0.304,0.702,-0.27
10.75,-0.18,1.372,0.224
10.76,-0.194,1.262,0.09
10.77,-0.065,0.325,-0.008
10.78,-0.375,0.917,-0.168
10.79,-0.052,1.184,0.191
10.8,-0.245,1.146,-0.001
10.81,-0.082,0.607,-0.127
10.82,-0.53,0.754,-0.077
10.83,-0.042,1.164,0.219
10.84,-0.275,1.037,0.058
10.85,-0.198,0.925,-0.129
10.86,-0.393,0.404,-0.059
10.87,-0.134,1.354,0.189
10.88,-0.269,0.741,0.027
10.89,-0.286,0.946,-0.149
10.9,-0.318,0.713,-0.044
10.91,-0.059,1.111,0.066
10.92,-0.25,1.104,-0.014
10.93,-0.278,0.454,-0.16
10.94,-0.304,1.379,-0.03
10.95,-0.021,0.778,0.092
10.96,-0.31,1.33,0.013
10.97,-0.223,0.286,-0.198
10.98,-0.241,1.744,0.011
10.99,0.008,0.832,0.115
11.0,-0.116,0.949,-0.047
11.01,-0.417,0.728,-0.268
11.02,-0.116,1.403,0.014
11.03,-0.181,1.028,0.088
11.04,0.044,0.594,0.021
11.05,-0.506,1.081,-0.187
11.06,-0.136,1.495,0.062
11.07,-0.171,0.994,0.13
11.08,-0.018,0.706,0.002
11.09,-0.49,0.642,-0.158
11.1,-0.101,1.976,0.137
11.11,-0.09,0.625,0.14
11.12,-0.05,0.992,-0.037
11.13,-0.345,0.295,-0.196
11.14,-0.135,2.0,0.174
11.15,-0.118,0.766,0.143
11.16,-0.171,0.653,-0.046
11.17,-0.42,0.625,-0.181
11.18,-0.064,1.572,0.106
11.19,-0.293,1.128,0.129
11.2,0.15,0.463,-0.032
11.21,-0.654,0.925,-0.166
11.22,0.072,1.255,0.219
11.23,-0.433,1.301,0.052
11.24,-0.063,0.633,-0.03
11.25,-0.471,0.588,-0.153
11.26,-0.097,1.468,0.158
11.27,-0.141,0.934,0.064
11.28,-0.183,1.078,-0.136
11.29,-0.351,0.184,-0.101
11.3,-0.202,1.498,0.218
11.31,-0.155,0.824,-0.006
11.32,-0.209,0.916,-0.136
11.33,-0.419,0.631,-0.086
11.34,-0.083,1.074,0.182
11.35,-0.27,1.188,-0.015
11.36,-0.178,0.427,-0.136
11.37,-0.376,1.198,-0.031
11.38,-0.014,0.861,0.151
11.39,-0.316,1.24,0.026
11.4,-0.338,0.437,-0.175
11.41,-0.291,1.121,-0.003
11.42,-0.118,1.043,0.077
11.43,-0.188,0.848,-0.005
11.44,-0.416,0.839,-0.143
11.45,-0.178,1.089,0.051
11.46,-0.25,1.242,0.207
11.47,-0.109,0.694,0.065
11.48,-0.504,0.918,-0.193
11.49,-0.133,1.493,0.055
11.5,-0.2,0.892,0.175
11.51,-0.128,0.974,0.004
11.52,-0.499,0.472,-0.15
11.53,-0.182,2.0,0.112
11.54,-0.102,0.573,0.16
11.55,-0.109,1.061,0.006
11.56,-0.378,0.334,-0.202
11.57,-0.12,1.944,0.092
11.58,-0.104,0.796,0.09
11.59,-0.067,0.595,-0.023
11.6,-0.43,0.831,-0.203
11.61,-0.216,1.592,0.199
11.62,-0.15,1.148,0.097
11.63,-0.037,0.398,-0.015
11.64,-0.381,0.933,-0.165
11.65,-0.041,1.29,0.195
11.66,-0.205,1.266,0.024
11.67,-0.016,0.59,-0.059
11.68,-0.446,0.691,-0.152
11.69,-0.13,1.47,0.196
11.7,-0.162,0.888,-0.007
11.71,-0.186,1.02,-0.138
11.72,-0.382,0.195,-0.144
11.73,-0.196,1.513,0.196
11.74,-0.181,0.811,0.024
11.75,-0.287,0.947,-0.106
11.76,-0.449,0.429,-0.116
11.77,-0.083,1.166,0.194
11.78,-0.282,1.136,-0.018
11.79,-0.162,0.497,-0.15
11.8,-0.508,1.011,0.005
11.81,0.023,0.9,0.162
11.82,-0.307,1.35,0.002
11.83,-0.234,0.38,-0.169
11.84,-0.327,1.104,-0.028
11.85,-0.074,1.028,0.101
11.86,-0.169,0.914,0.011
11.87,-0.36,0.771,-0.208
11.88,-0.114,1.052,-0.058
11.89,-0.13,1.241,0.143
11.9,-0.1,0.644,0.015
11.91,-0.399,1.0,-0.251
11.92,-0.128,1.289,0.002
11.93,-0.132,0.927,0.116
11.94,-0.059,0.978,0.021
11.95,-0.404,0.561,-0.262
11.96,-0.21,1.887,0.046
11.97,-0.147,0.645,0.115
11.98,-0.065,1.15,-0.001
11.99,-0.338,0.331,-0.195
12.0,-0.157,1.983,0.062
12.01,-0.097,0.785,0.109
12.02,-0.013,0.742,-0.008
12.03,-0.441,0.766,-0.216
12.04,-0.059,1.581,0.092
12.05,-0.174,1.063,0.102
12.06,0.055,0.476,-0.008
12.07,-0.548,1.037,-0.151
12.08,-0.023,1.593,0.117
12.09,-0.141,0.998,0.052
12.1,0.078,0.639,-0.014
12.11,-0.482,0.568,-0.171
12.12,-0.083,1.811,0.118
12.13,-0.03,0.669,0.079
12.14,-0.112,0.982,-0.077
12.15,-0.299,0.213,-0.168
12.16,-0.208,1.909,0.173
12.17,-0.049,0.781,0.125
12.18,-0.135,0.772,-0.039
12.19,-0.434,0.585,-0.186
12.2,-0.065,1.346,0.218
12.21,-0.267,1.295,0.057
12.22,0.064,0.505,-0.053
12.23,-0.466,0.917,-0.139
12.24,-0.048,1.087,0.197
12.25,-0.309,1.222,0.103
12.26,-0.117,0.633,-0.032
12.27,-0.513,0.572,-0.079
12.28,-0.071,1.351,0.22
12.29,-0.195,0.893,0.029
12.3,-0.227,1.037,-0.064
12.31,-0.497,0.248,-0.063
12.32,-0.135,1.382,0.214
12.33,-0.247,0.798,-0.029
12.34,-0.205,0.83,-0.121
12.35,-0.408,0.719,-0.084
12.36,-0.018,1.052,0.104
12.37,-0.37,1.162,-0.026
12.38,-0.141,0.371,-0.131
12.39,-0.424,1.294,-0.061
12.4,0.012,0.794,0.113
12.41,-0.28,1.287,0.014
12.42,-0.348,0.251,-0.19
12.43,-0.164,1.851,0.003
12.44,-0.09,0.789,0.103
12.45,-0.042,0.94,0.025
12.46,-0.469,0.737,-0.272
12.47,-0.142,1.488,0.059
12.48,-0.254,1.034,0.124
12.49,0.021,0.553,0.058
12.5,-0.564,1.031,-0.187
12.51,-0.102,1.461,0.15
12.52,-0.236,1.069,0.112
12.53,-0.018,0.619,0.047
12.54,-0.543,0.714,-0.103
12.55,-0.092,1.92,0.117
12.56,-0.098,0.608,0.132
12.57,-0.054,0.995,-0.058
12.58,-0.418,0.262,-0.211
12.59,-0.093,2.0,0.11
12.6,-0.094,0.745,0.108
12.61,-0.151,0.732,-0.046
12.62,-0.387,0.496,-0.215
12.63,-0.123,1.544,0.219
12.64,-0.12,1.152,0.047
12.65,-0.012,0.414,-0.016
12.66,-0.549,0.905,-0.167
12.67,-0.05,1.241,0.197
12.68,-0.304,1.216,0.053
12.69,-0.081,0.639,-0.044
12.7,-0.486,0.67,-0.138
12.71,-0.084,1.388,0.177
12.72,-0.198,1.017,0.036
12.73,-0.168,0.971,-0.149
12.74,-0.348,0.25,-0.094
12.75,-0.19,1.465,0.24
12.76,-0.198,0.754,0.037
12.77,-0.22,1.005,-0.143
12.78,-0.376,0.556,-0.084
12.79,-0.122,1.137,0.191
12.8,-0.231,1.145,-0.001
12.81,-0.217,0.427,-0.151
12.82,-0.369,1.104,-0.036
12.83,-0.023,0.842,0.138
12.84,-0.301,1.307,-0.023
12.85,-0.185,0.328,-0.154
12.86,-0.319,1.259,-0.016
12.87,-0.018,0.986,0.126
12.88,-0.168,0.926,-0.002
12.89,-0.432,0.86,-0.181
12.9,-0.126,1.037,0.018
12.91,-0.27,1.225,0.157
12.92,-0.17,0.652,0.035
12.93,-0.439,0.954,-0.202
12.94,-0.15,1.403,0.045
12.95,-0.076,0.972,0.131
12.96,-0.058,0.911,0.008
12.97,-0.582,0.538,-0.228
12.98,-0.145,1.979,0.096
12.99,-0.226,0.521,0.11
13.0,-0.062,1.186,0.055
13.01,-0.509,0.333,-0.172
13.02,-0.136,1.97,0.145
13.03,-0.126,0.817,0.172
13.04,-0.029,0.659,-0.017
13.05,-0.408,0.705,-0.214
13.06,-0.063,1.618,0.084
13.07,-0.102,1.158,0.132
13.08,-0.021,0.406,-0.065
13.09,-0.507,0.951,-0.208
13.1,-0.079,1.535,0.212
13.11,-0.154,1.208,0.073
13.12,-0.103,0.55,-0.022
13.13,-0.393,0.522,-0.165
13.14,-0.168,1.642,0.212
13.15,-0.131,0.73,0.07
13.16,-0.132,1.103,-0.038
13.17,-0.368,0.136,-0.158
13.18,-0.186,1.643,0.203
13.19,-0.17,0.864,0.076
13.2,-0.149,0.839,-0.138
13.21,-0.389,0.583,-0.174
13.22,-0.096,1.265,0.162
13.23,-0.351,1.046,0.046
13.24,-0.076,0.588,-0.119
13.25,-0.369,1.108,-0.071
13.26,-0.044,0.878,0.138
13.27,-0.316,1.253,0.053
13.28,-0.31,0.469,-0.19
13.29,-0.356,1.01,-0.025
13.3,-0.073,0.975,0.09
13.31,-0.225,1.042,-0.007
13.32,-0.289,0.646,-0.146
13.33,-0.228,0.973,-0.061
13.34,-0.109,1.266,0.168
13.35,-0.082,0.705,0.041
13.36,-0.487,0.933,-0.128
13.37,-0.139,1.111,0.012
13.38,-0.204,1.083,0.086
13.39,-0.093,0.939,-0.008
13.4,-0.417,0.666,-0.217
13.41,-0.231,1.692,0.014
13.42,-0.161,0.651,0.16
13.43,-0.161,1.197,0.018
13.44,-0.323,0.309,-0.244
13.45,-0.164,2.0,0.025
13.46,-0.15,0.732,0.106
13.47,-0.069,0.86,0.036
13.48,-0.483,0.664,-0.155
13.49,-0.1,1.667,0.139
13.5,-0.292,0.982,0.118
13.51,0.113,0.508,-0.012
13.52,-0.564,1.038,-0.17
13.53,0.019,1.605,0.13
13.54,-0.276,1.023,0.139
13.55,0.045,0.603,0.054
13.56,-0.506,0.705,-0.165
13.57,-0.146,1.775,0.117
13.58,-0.004,0.771,0.053
13.59,-0.057,0.969,-0.039
13.6,-0.375,0.193,-0.18
13.61,-0.112,2.0,0.17
13.62,-0.12,0.729,0.106
13.63,-0.157,0.789,-0.032
13.64,-0.393,0.498,-0.188
13.65,-0.076,1.654,0.195
13.66,-0.226,1.097,0.052
13.67,0.049,0.379,-0.08
13.68,-0.413,0.955,-0.207
13.69,-0.053,1.168,0.162
13.7,-0.275,1.255,0.036
13.71,-0.025,0.646,-0.062
13.72,-0.489,0.653,-0.102
13.73,-0.138,1.454,0.206
13.74,-0.209,0.969,0.048
13.75,-0.122,1.059,-0.116
13.76,-0.43,0.266,-0.094
13.77,-0.215,1.447,0.219
13.78,-0.232,0.803,0.086
13.79,-0.262,1.015,-0.108
13.8,-0.393,0.49,-0.075
13.81,-0.119,1.2,0.184
13.82,-0.206,1.106,0.012
13.83,-0.172,0.529,-0.152
13.84,-0.448,1.031,-0.044
13.85,-0.033,0.914,0.187
13.86,-0.321,1.313,0.022
13.87,-0.197,0.347,-0.158
13.88,-0.26,1.192,-0.055
13.89,-0.075,1.045,0.11
13.9,-0.218,0.844,-0.026
13.91,-0.351,0.81,-0.168
13.92,-0.231,0.909,-0.024
13.93,-0.174,1.287,0.152
13.94,-0.081,0.712,0.04
13.95,-0.557,0.962,-0.187
13.96,-0.17,1.021,0.023
13.97,-0.255,1.031,0.124
13.98,-0.14,1.046,-0.007
13.99,-0.309,0.452,-0.227
14.0,-0.198,1.832,0.021
14.01,-0.021,0.762,0.135
14.02,-0.042,0.986,0.06
14.03,-0.431,0.345,-0.18
14.04,-0.221,2.0,0.088
14.05,-0.131,0.608,0.15
14.06,-0.082,0.964,0.024
14.07,-0.468,0.468,-0.241
14.08,-0.048,1.794,0.127
14.09,-0.134,0.945,0.105
14.1,-0.003,0.477,-0.019
14.11,-0.526,0.998,-0.181
14.12,-0.05,1.523,0.095
14.13,-0.141,1.21,0.11
14.14,0.046,0.438,-0.034
14.15,-0.457,0.844,-0.205
14.16,-0.061,1.646,0.168
14.17,-0.116,0.89,0.105
14.18,-0.092,0.865,-0.045
14.19,-0.415,0.314,-0.156
14.2,-0.186,1.849,0.212
14.21,-0.074,0.726,0.076
14.22,-0.075,0.969,-0.036
14.23,-0.39,0.296,-0.194
14.24,-0.08,1.553,0.172
14.25,-0.164,1.018,0.048
14.26,-0.075,0.592,-0.057
14.27,-0.442,0.841,-0.148
14.28,-0.007,1.206,0.197
14.29,-0.247,1.27,0.063
14.3,0.024,0.487,-0.133
14.31,-0.415,0.926,-0.199
14.32,-0.022,1.181,0.133
14.33,-0.292,1.028,0.022
14.34,-0.128,0.88,-0.068
14.35,-0.419,0.375,-0.121
14.36,-0.169,1.421,0.218
14.37,-0.185,0.726,0.026
14.38,-0.327,1.084,-0.123
14.39,-0.372,0.284,-0.137
14.4,-0.124,1.322,0.182
14.41,-0.202,1.022,-0.018
14.42,-0.14,0.656,-0.103
14.43,-0.432,0.922,-0.071
14.44,0.051,0.992,0.172
14.45,-0.347,1.279,0.013
14.46,-0.184,0.405,-0.125
14.47,-0.46,1.084,-0.032
14.48,-0.073,0.957,0.165
14.49,-0.265,1.091,0.02
14.5,-0.361,0.667,-0.122
14.51,-0.311,0.748,0.003
14.52,-0.18,1.281,0.177
14.53,-0.147,0.755,0.017
14.54,-0.344,0.935,-0.154
14.55,-0.211,0.939,-0.073
14.56,-0.144,1.263,0.161
14.57,-0.251,0.826,0.02
14.58,-0.399,0.69,-0.109
14.59,-0.263,1.576,-0.015
14.6,-0.126,0.737,0.166
14.61,-0.203,1.212,0.045
14.62,-0.347,0.299,-0.26
14.63,-0.231,1.776,0.003
14.64,-0.109,0.718,0.1
14.65,-0.244,1.084,0.08
14.66,-0.317,0.571,-0.217
14.67,-0.295,1.559,0.035
14.68,-0.108,1.069,0.141
14.69,-0.039,0.596,0.068
14.7,-0.493,0.984,-0.211
14.71,-0.154,1.369,0.06
14.72,-0.269,1.005,0.169
14.73,0.008,0.693,0.065
14.74,-0.525,0.8,-0.2
14.75,-0.129,1.774,0.099
14.76,-0.199,0.79,0.124
14.77,-0.074,0.91,0.049
14.78,-0.461,0.34,-0.135
14.79,-0.179,2.0,0.139
14.8,-0.139,0.579,0.177
14.81,-0.101,0.927,0.032
14.82,-0.404,0.502,-0.233
14.83,-0.072,2.0,0.112
14.84,-0.098,0.795,0.067
14.85,-0.087,0.611,-0.024
14.86,-0.406,0.727,-0.205
14.87,-0.061,1.542,0.162
14.88,-0.14,1.211,0.06
14.89,-0.027,0.361,-0.06
14.9,-0.425,0.958,-0.203
14.91,-0.068,1.403,0.144
14.92,-0.191,1.161,0.106
14.93,-0.037,0.679,-0.04
14.94,-0.483,0.524,-0.137
14.95,-0.077,1.704,0.187
14.96,-0.155,0.824,0.057
14.97,-0.099,1.039,-0.089
14.98,-0.41,0.17,-0.17
14.99,-0.13,1.702,0.18
15.0,-0.169,0.865,0.036
15.01,-0.18,0.887,-0.059
15.02,-0.441,0.506,-0.144
15.03,-0.075,1.241,0.215
15.04,-0.262,1.296,0.022
15.05,0.053,0.429,-0.129
15.06,-0.47,0.995,-0.172
15.07,-0.013,1.064,0.207
15.08,-0.313,1.173,0.035
15.09,-0.072,0.709,-0.115
15.1,-0.528,0.594,-0.099
15.11,-0.071,1.292,0.187
15.12,-0.236,0.908,0.094
15.13,-0.162,1.012,-0.123
15.14,-0.471,0.303,-0.091
15.15,-0.116,1.431,0.208
15.16,-0.218,0.815,0.034
15.17,-0.241,0.897,-0.091
15.18,-0.495,0.654,-0.101
15.19,-0.031,1.136,0.146
15.2,-0.319,1.161,-0.008
15.21,-0.149,0.4,-0.158
15.22,-0.522,1.105,-0.06
15.23,0.052,0.911,0.11
15.24,-0.374,1.271,0.036
15.25,-0.174,0.449,-0.115
15.26,-0.522,0.947,-0.019
15.27,-0.06,1.089,0.17
15.28,-0.264,0.902,0.054
15.29,-0.29,0.784,-0.176
15.3,-0.265,0.719,-0.09
15.31,-0.036,1.321,0.095
15.32,-0.182,0.792,0.056
15.33,-0.326,0.928,-0.191
15.34,-0.284,1.041,-0.061
15.35,-0.121,1.037,0.14
15.36,-0.144,1.125,0.006
15.37,-0.357,0.452,-0.219
15.38,-0.224,1.573,-0.039
15.39,-0.091,0.725,0.103
15.4,-0.249,1.276,0.022
15.41,-0.32,0.33,-0.192
15.42,-0.242,1.625,-0.022
15.43,-0.033,0.957,0.086
15.44,-0.044,0.821,0.043
15.45,-0.396,0.906,-0.241
15.46,-0.222,1.26,0.035
15.47,-0.214,1.169,0.15
15.48,-0.026,0.622,0.075
15.49,-0.566,1.001,-0.184
15.5,-0.215,1.33,0.054
15.51,-0.29,0.878,0.129
15.52,-0.047,1.015,0.046
15.53,-0.395,0.518,-0.192
15.54,-0.203,1.882,0.027
15.55,-0.061,0.746,0.164
15.56,-0.074,1.048,0.065
15.57,-0.371,0.34,-0.203
15.58,-0.233,1.979,0.115
15.59,-0.187,0.692,0.081
15.6,-0.033,0.792,0.028
15.61,-0.505,0.778,-0.202
15.62,-0.1,1.548,0.081
15.63,-0.229,0.862,0.103
15.64,0.087,0.495,0.005
15.65,-0.435,0.937,-0.182
15.66,0.03,1.51,0.15
15.67,-0.217,1.173,0.14
15.68,0.059,0.445,0.002
15.69,-0.519,0.842,-0.162
15.7,0.015,1.756,0.132
15.71,-0.096,0.823,0.067
15.72,-0.006,0.817,-0.04
15.73,-0.425,0.379,-0.184
15.74,-0.136,2.0,0.16
15.75,-0.121,0.615,0.152
15.76,-0.081,0.896,-0.001
15.77,-0.42,0.354,-0.212
15.78,-0.094,1.77,0.12
15.79,-0.141,0.984,0.032
15.8,-0.005,0.553,-0.038
15.81,-0.435,0.884,-0.258
15.82,-0.003,1.513,0.195
15.83,-0.231,1.264,0.103
15.84,0.02,0.381,-0.022
15.85,-0.459,0.945,-0.22
15.86,-0.096,1.445,0.137
15.87,-0.232,1.018,0.128
15.88,-0.049,0.823,-0.078
15.89,-0.435,0.373,-0.168
15.9,-0.15,1.791,0.187
15.91,-0.078,0.746,0.114
15.92,-0.194,0.995,-0.089
15.93,-0.34,0.296,-0.226
15.94,-0.098,1.594,0.126
15.95,-0.151,1.002,0.052
15.96,0.022,0.627,-0.094
15.97,-0.432,0.756,-0.216
15.98,0.035,1.212,0.165
15.99,-0.224,1.27,-0.019
16.0,0.0,0.508,-0.104
16.01,-0.522,0.832,-0.166
16.02,0.065,1.292,0.192
16.03,-0.253,1.254,0.047
16.04,-0.062,0.785,-0.078
16.05,-0.494,0.423,-0.156
16.06,-0.068,1.598,0.206
16.07,-0.167,0.86,0.075
16.08,-0.232,1.029,-0.043
16.09,-0.426,0.215,-0.136
16.1,-0.179,1.519,0.243
16.11,-0.158,0.893,0.046
16.12,-0.217,0.771,-0.101
16.13,-0.412,0.691,-0.158
16.14,0.01,1.116,0.196
16.15,-0.238,1.358,0.038
16.16,0.046,0.458,-0.113
16.17,-0.509,1.034,-0.175
16.18,0.021,0.981,0.188
16.19,-0.314,1.214,0.098
16.2,-0.164,0.652,-0.155
16.21,-0.507,0.587,-0.13
16.22,-0.095,1.274,0.157
16.23,-0.161,0.841,-0.014
16.24,-0.277,0.964,-0.143
16.25,-0.476,0.311,-0.105
16.26,-0.048,1.361,0.178
16.27,-0.239,0.875,0.032
16.28,-0.219,0.798,-0.11
16.29,-0.499,0.795,-0.072
16.3,0.069,1.036,0.104
16.31,-0.328,1.253,-0.041
16.32,-0.11,0.382,-0.152
16.33,-0.418,1.219,-0.071
16.34,0.007,0.894,0.152
16.35,-0.256,1.254,0.043
16.36,-0.314,0.45,-0.174
16.37,-0.346,0.866,-0.003
16.38,-0.145,1.187,0.128
16.39,-0.133,0.817,0.058
16.4,-0.344,0.884,-0.147
16.41,-0.295,0.864,-0.035
16.42,-0.118,1.322,0.16
16.43,-0.174,0.776,0.061
16.44,-0.488,1.008,-0.206
16.45,-0.195,1.182,-0.005
16.46,-0.274,1.047,0.119
16.47,-0.126,0.895,0.035
16.48,-0.465,0.645,-0.188
16.49,-0.265,1.752,0.065
16.5,-0.157,0.691,0.151
16.51,-0.172,1.13,0.064
16.52,-0.339,0.317,-0.197
16.53,-0.211,1.92,0.041
16.54,-0.097,0.765,0.157
16.55,-0.095,0.9,0.079
16.56,-0.492,0.721,-0.189
16.57,-0.275,1.584,0.099
16.58,-0.243,1.066,0.182
16.59,0.017,0.512,0.048
16.6,-0.496,1.075,-0.156
16.61,-0.15,1.445,0.068
16.62,-0.184,1.082,0.183
16.63,0.062,0.635,0.014
16.64,-0.476,0.765,-0.237
16.65,-0.071,1.882,0.074
16.66,-0.112,0.74,0.162
16.67,-0.035,0.968,-0.001
16.68,-0.401,0.343,-0.198
16.69,-0.176,2.0,0.102
16.7,-0.198,0.641,0.18
16.71,-0.054,0.9,0.029
16.72,-0.448,0.555,-0.191
16.73,-0.128,1.757,0.118
16.74,-0.172,1.035,0.164
16.75,0.151,0.438,-0.016
16.76,-0.497,1.028,-0.22
16.77,0.006,1.491,0.084
16.78,-0.179,1.09,0.093
16.79,0.163,0.53,-0.021
16.8,-0.453,0.818,-0.226
16.81,-0.031,1.875,0.09
16.82,-0.102,0.856,0.134
16.83,-0.058,0.794,-0.012
16.84,-0.34,0.338,-0.183
16.85,-0.099,2.0,0.083
16.86,-0.105,0.604,0.125
16.87,-0.052,0.867,-0.024
16.88,-0.396,0.458,-0.227
16.89,0.045,1.871,0.09
16.9,-0.184,0.977,0.103
16.91,0.073,0.361,-0.024
16.92,-0.447,1.012,-0.18
16.93,0.032,1.536,0.145
16.94,-0.229,1.171,0.114
16.95,0.089,0.405,-0.007
16.96,-0.455,0.888,-0.196
16.97,-0.003,1.711,0.099
16.98,-0.104,0.875,0.062
16.99,-0.077,0.777,-0.039
17.0,-0.309,0.391,-0.191
17.01,-0.088,2.0,0.091
17.02,-0.073,0.604,0.099
17.03,-0.092,0.891,0.003
17.04,-0.44,0.395,-0.19
17.05,-0.069,1.924,0.124
17.06,-0.144,0.948,0.041
17.07,0.046,0.46,-0.031
17.08,-0.478,0.87,-0.189
17.09,0.058,1.428,0.15
17.1,-0.219,1.208,0.077
17.11,0.122,0.415,-0.049
17.12,-0.537,0.921,-0.222
17.13,0.026,1.683,0.131
17.14,-0.21,1.01,0.032
17.15,-0.024,0.759,-0.027
17.16,-0.487,0.368,-0.121
17.17,-0.18,1.839,0.262
17.18,-0.078,0.686,0.131
17.19,-0.107,0.863,-0.039
17.2,-0.444,0.269,-0.152
17.21,-0.167,1.643,0.201
17.22,-0.222,0.946,0.144
17.23,-0.125,0.649,-0.034
17.24,-0.315,0.495,-0.23
17.25,-0.105,1.34,0.145
17.26,-0.206,1.204,0.04
17.27,-0.065,0.501,-0.134
17.28,-0.496,0.908,-0.179
17.29,0.045,1.081,0.197
17.3,-0.254,1.301,0.031
17.31,-0.125,0.506,-0.066
17.32,-0.463,0.713,-0.184
17.33,-0.037,1.405,0.105
17.34,-0.208,0.957,0.013
17.35,-0.098,0.978,-0.126
17.36,-0.503,0.141,-0.185
17.37,-0.047,1.607,0.247
17.38,-0.154,0.896,0.067
17.39,-0.191,0.968,-0.067
17.4,-0.444,0.355,-0.191
17.41,-0.122,1.378,0.224
17.42,-0.171,1.219,0.015
17.43,-0.124,0.453,-0.109
17.44,-0.4,0.914,-0.182
17.45,-0.03,1.025,0.173
17.46,-0.252,1.402,0.007
17.47,-0.018,0.496,-0.121
17.48,-0.447,0.791,-0.183
17.49,-0.008,1.213,0.153
17.5,-0.139,0.98,0.047
17.51,-0.241,0.909,-0.147
17.52,-0.341,0.32,-0.18
17.53,-0.178,1.48,0.156
17.54,-0.115,0.861,0.019
17.55,-0.243,0.942,-0.127
17.56,-0.338,0.423,-0.201
17.57,-0.063,1.232,0.182
17.58,-0.203,1.082,-0.022
17.59,-0.163,0.556,-0.129
17.6,-0.486,0.928,-0.136
17.61,0.023,1.017,0.215
17.62,-0.271,1.265,-0.009
17.63,-0.176,0.398,-0.125
17.64,-0.493,0.961,-0.061
17.65,-0.094,1.014,0.17
17.66,-0.223,1.076,0.043
17.67,-0.226,0.714,-0.133
17.68,-0.419,0.541,-0.075
17.69,-0.11,1.412,0.18
17.7,-0.164,0.71,0.103
17.71,-0.384,0.934,-0.12
17.72,-0.398,0.484,-0.061
17.73,-0.247,1.216,0.164
17.74,-0.209,1.006,0.028
17.75,-0.237,0.492,-0.134
17.76,-0.321,1.084,-0.094
17.77,-0.017,0.907,0.151
17.78,-0.203,1.323,-0.039
17.79,-0.243,0.344,-0.157
17.8,-0.445,1.083,-0.095
17.81,-0.099,1.034,0.161
17.82,-0.214,1.079,0.033
17.83,-0.232,0.61,-0.182
17.84,-0.337,1.003,-0.063
17.85,-0.106,1.265,0.146
17.86,-0.24,0.682,-0.038
17.87,-0.31,0.934,-0.096
17.88,-0.266,1.037,-0.081
17.89,-0.047,1.225,0.132
17.9,-0.113,0.836,-0.021
17.91,-0.407,0.796,-0.223
17.92,-0.351,1.123,-0.047
17.93,-0.177,0.825,0.108
17.94,-0.309,1.336,0.002
17.95,-0.124,0.241,-0.202
17.96,-0.317,1.789,-0.007
17.97,0.028,0.864,0.219
17.98,-0.319,0.926,0.118
17.99,-0.334,0.65,-0.106
18.0,-0.338,1.506,-0.011
18.01,-0.214,1.103,0.204
18.02,-0.087,0.643,0.087
18.03,-0.559,1.029,-0.201
18.04,-0.278,1.068,0.078
18.05,-0.313,1.078,0.138
18.06,-0.019,0.554,0.113
18.07,-0.455,1.001,-0.171
18.08,-0.184,1.476,0.066
18.09,-0.076,1.085,0.114
18.1,0.011,0.692,0.0
18.11,-0.414,0.482,-0.157
18.12,-0.154,2.0,0.087
18.13,-0.251,0.561,0.158
18.14,-0.098,1.074,0.079
18.15,-0.435,0.313,-0.18
18.16,-0.206,1.915,0.142
18.17,-0.228,0.735,0.116
18.18,0.011,0.745,0.038
18.19,-0.444,0.779,-0.187
18.2,-0.138,1.549,0.132
18.21,-0.221,1.113,0.209
18.22,0.163,0.488,0.042
18.23,-0.527,0.963,-0.2
18.24,0.08,1.63,0.082
18.25,-0.224,0.98,0.028
18.26,0.069,0.687,0.002
18.27,-0.424,0.611,-0.2
18.28,-0.067,1.901,0.122
18.29,-0.036,0.678,0.129
18.3,-0.015,0.937,-0.011
18.31,-0.386,0.296,-0.222
18.32,-0.146,2.0,0.062
18.33,-0.136,0.696,0.104
18.34,-0.022,0.76,-0.014
18.35,-0.452,0.654,-0.274
18.36,0.033,1.655,0.155
18.37,-0.216,1.136,0.077
18.38,0.068,0.289,0.013
18.39,-0.463,1.079,-0.228
18.4,0.017,1.468,0.086
18.41,-0.116,1.103,-0.009
18.42,0.081,0.557,-0.02
18.43,-0.401,0.679,-0.191
18.44,-0.019,1.85,0.157
18.45,-0.136,0.713,0.055
18.46,-0.062,0.939,-0.07
18.47,-0.42,0.259,-0.204
18.48,-0.106,1.992,0.182
18.49,-0.133,0.75,0.045
18.5,-0.111,0.735,-0.005
18.51,-0.401,0.516,-0.195
18.52,-0.099,1.523,0.225
18.53,-0.204,1.165,0.092
18.54,0.023,0.428,-0.021
18.55,-0.487,0.983,-0.17
18.56,0.055,1.399,0.156
18.57,-0.252,1.221,0.073
18.58,0.071,0.571,-0.007
18.59,-0.609,0.714,-0.156
18.6,-0.022,1.535,0.201
18.61,-0.203,0.919,0.02
18.62,-0.123,0.927,-0.084
18.63,-0.409,0.216,-0.177
18.64,-0.146,1.68,0.174
18.65,-0.213,0.812,0.106
18.66,-0.146,0.997,-0.142
18.67,-0.347,0.352,-0.223
18.68,-0.056,1.529,0.206
18.69,-0.039,0.707,-0.131
18.7,-0.559,0.911,-0.056
18.71,-0.026,1.006,0.171
18.72,-0.254,1.088,0.05
18.73,-0.278,0.776,-0.139
18.74,-0.478,0.437,-0.038
18.75,-0.128,1.36,0.158
18.76,-0.179,0.787,0.047
18.77,-0.352,0.854,-0.141
18.78,-0.319,0.663,-0.039
18.79,-0.132,1.224,0.138
18.8,-0.289,0.991,0.041
18.81,-0.187,0.589,-0.109
18.82,-0.426,1.24,-0.112
18.83,0.022,0.829,0.134
18.84,-0.245,1.357,-0.009
18.85,-0.224,0.248,-0.181
18.86,-0.281,1.333,-0.09
18.87,0.018,0.892,0.075
18.88,-0.207,1.033,-0.024
18.89,-0.367,0.582,-0.181
18.9,-0.154,1.094,-0.075
18.91,-0.18,1.21,0.118
18.92,-0.017,0.669,0.01
18.93,-0.372,1.02,-0.181
18.94,-0.269,1.122,-0.008
18.95,-0.125,1.168,0.165
18.96,-0.134,0.851,0.007
18.97,-0.464,0.667,-0.189
18.98,-0.174,1.608,-0.012
18.99,-0.225,0.658,0.126
19.0,-0.171,1.235,0.06
19.01,-0.414,0.33,-0.195
19.02,-0.25,1.859,0.035
19.03,-0.161,0.73,0.146
19.04,-0.085,1.011,0.023
19.05,-0.417,0.593,-0.221
19.06,-0.151,1.576,0.062
19.07,-0.209,1.117,0.235
19.08,0.089,0.529,0.059
19.09,-0.561,1.002,-0.17
19.1,-0.126,1.425,0.099
19.11,-0.311,1.055,0.129
19.12,0.02,0.674,0.038
19.13,-0.488,0.774,-0.203
19.14,-0.115,1.821,0.031
19.15,-0.147,0.785,0.146
19.16,-0.016,0.938,0.041
19.17,-0.37,0.304,-0.235
19.18,-0.047,2.0,0.068
19.19,-0.076,0.687,0.124
19.2,-0.1,0.876,0.03
19.21,-0.45,0.463,-0.177
19.22,-0.077,1.874,0.148
19.23,-0.241,0.866,0.102
19.24,0.112,0.491,-0.013
19.25,-0.448,1.027,-0.224
19.26,-0.009,1.513,0.135
19.27,-0.121,1.211,0.058
19.28,0.085,0.44,0.01
19.29,-0.507,0.864,-0.121
19.3,-0.06,1.753,0.153
19.31,-0.088,0.821,0.124
19.32,0.001,0.877,-0.072
19.33,-0.415,0.342,-0.217
19.34,-0.052,2.0,0.141
19.35,-0.081,0.686,0.109
19.36,-0.089,0.799,-0.029
19.37,-0.419,0.399,-0.173
19.38,-0.022,1.774,0.011
19.39,-0.149,0.973,0.087
19.4,0.063,0.498,-0.03
19.41,-0.572,0.935,-0.228
19.42,0.039,1.354,0.202
19.43,-0.25,1.229,0.092
19.44,0.038,0.441,-0.013
19.45,-0.493,1.04,-0.205
19.46,-0.045,1.129,0.164
19.47,-0.3,1.217,0.089
19.48,-0.095,0.697,-0.062
19.49,-0.329,0.525,-0.197
19.5,-0.099,1.469,0.131
19.51,-0.056,0.882,0.043
19.52,-0.206,1.031,-0.109
19.53,-0.366,0.197,-0.194
19.54,-0.164,1.582,0.164
19.55,-0.173,0.902,0.045
19.56,-0.124,0.854,-0.109
19.57,-0.399,0.547,-0.208
19.58,-0.067,1.205,0.174
19.59,-0.262,1.205,0.036
19.6,0.014,0.479,-0.171
19.61,-0.46,0.966,-0.125
19.62,-0.032,1.023,0.206
19.63,-0.249,1.266,0.052
19.64,-0.142,0.545,-0.062
19.65,-0.464,0.706,-0.098
19.66,-0.161,1.228,0.208
19.67,-0.233,0.891,0.102
19.68,-0.274,0.985,-0.118
19.69,-0.359,0.27,-0.097
19.7,-0.221,1.396,0.208
19.71,-0.143,0.86,0.071
19.72,-0.349,0.803,-0.094
19.73,-0.324,0.683,-0.096
19.74,-0.143,1.149,0.17
19.75,-0.236,1.089,-0.037
19.76,-0.209,0.438,-0.11
19.77,-0.433,1.184,-0.058
19.78,-0.066,0.886,0.172
19.79,-0.397,1.277,0.084
19.8,-0.235,0.377,-0.174
19.81,-0.387,0.903,-0.074
19.82,-0.141,1.062,0.106
19.83,-0.161,0.948,0.036
19.84,-0.373,0.719,-0.135
19.85,-0.282,0.559,-0.029
19.86,-0.185,1.395,0.185
19.87,-0.023,0.831,-0.004
19.88,-0.371,0.815,-0.18
19.89,-0.204,0.957,-0.06
19.9,-0.146,1.103,0.138
19.91,-0.168,1.076,-0.032
19.92,-0.327,0.447,-0.131
19.93,-0.258,1.698,-0.045
19.94,-0.03,0.806,0.18
19.95,-0.232,1.224,0.05
19.96,-0.32,0.368,-0.219
19.97,-0.328,1.604,-0.004
19.98,-0.124,0.884,0.116
19.99,-0.094,0.978,0.011
20.0,-0.376,0.808,-0.264
20.01,-0.119,1.233,0.002
20.02,-0.211,1.216,0.136
20.03,0.027,0.612,0.078
20.04,-0.533,0.987,-0.152
20.05,-0.221,1.414,0.099
20.06,-0.221,1.0,0.173
20.07,-0.145,0.852,0.089
20.08,-0.399,0.608,-0.165
20.09,-0.301,1.973,0.092
20.1,-0.092,0.657,0.145
20.11,-0.16,1.088,0.091
20.12,-0.388,0.386,-0.193
20.13,-0.335,1.969,0.188
20.14,-0.115,0.75,0.159
20.15,-0.029,0.785,0.044
20.16,-0.47,0.735,-0.217
20.17,-0.133,1.557,0.16
20.18,-0.204,1.028,0.107
20.19,0.142,0.488,0.026
20.2,-0.562,1.059,-0.188
20.21,-0.037,1.546,0.129
20.22,-0.281,1.014,0.152
20.23,0.041,0.676,0.009
20.24,-0.486,0.575,-0.162
20.25,-0.052,1.634,0.128
20.26,-0.154,1.033,0.075
20.27,-0.052,0.731,-0.039
20.28,-0.341,0.295,-0.257
20.29,-0.14,1.945,0.124
20.3,-0.04,0.699,0.12
20.31,-0.186,0.912,-0.04
20.32,-0.423,0.327,-0.186
20.33,-0.115,1.74,0.15
20.34,-0.16,1.02,0.052
20.35,-0.056,0.524,-0.055
20.36,-0.447,0.905,-0.205
20.37,-0.065,1.168,0.181
20.38,-0.292,1.319,0.127
20.39,-0.019,0.496,-0.024
20.4,-0.503,0.791,-0.132
20.41,-0.051,1.379,0.192
20.42,-0.206,1.042,0.071
20.43,-0.164,0.91,-0.055
20.44,-0.384,0.327,-0.198
20.45,-0.153,1.709,0.182
20.46,-0.159,0.85,0.114
20.47,-0.085,1.031,-0.082
20.48,-0.453,0.297,-0.147
20.49,-0.097,1.417,0.17
20.5,-0.208,0.982,-0.016
20.51,-0.048,0.725,-0.132
20.52,-0.394,0.755,-0.181
20.53,0.014,1.083,0.203
20.54,-0.303,1.281,0.054
20.55,-0.054,0.507,-0.115
20.56,-0.498,0.902,-0.144
20.57,-0.078,1.059,0.234
20.58,-0.257,1.195,0.049
20.59,-0.223,0.653,-0.118
20.6,-0.393,0.579,-0.048
20.61,-0.189,1.349,0.181
20.62,-0.141,0.631,-0.009
20.63,-0.374,1.078,-0.15
20.64,-0.332,0.346,-0.085
20.65,-0.212,1.333,0.156
20.66,-0.195,0.924,-0.021
20.67,-0.228,0.7,-0.136
20.68,-0.51,0.792,-0.086
20.69,0.026,0.961,0.203
20.7,-0.333,1.306,-0.012
20.71,-0.065,0.364,-0.122
20.72,-0.556,1.162,-0.061
20.73,0.04,0.936,0.176
20.74,-0.406,1.179,0.078
20.75,-0.326,0.554,-0.077
20.76,-0.435,0.698,0.006
20.77,-0.175,1.261,0.135
20.78,-0.211,0.802,0.108
20.79,-0.348,0.882,-0.136
20.8,-0.398,0.549,0.009
20.81,-0.136,1.3,0.143
20.82,-0.199,0.957,0.065
20.83,-0.335,0.636,-0.189
20.84,-0.283,1.135,-0.042
20.85,-0.119,0.94,0.117
20.86,-0.235,1.215,0.039
20.87,-0.307,0.24,-0.154
20.88,-0.217,1.581,-0.062
20.89,-0.031,0.785,0.099
20.9,-0.265,1.155,-0.001
20.91,-0.391,0.491,-0.172
20.92,-0.207,1.253,-0.053
20.93,-0.158,1.089,0.075
20.94,-0.092,0.787,0.033
20.95,-0.454,0.936,-0.218
20.96,-0.219,1.055,0.018
20.97,-0.14,1.262,0.135
20.98,-0.166,0.714,0.058
20.99,-0.403,0.875,-0.203
21.0,-0.216,1.581,0.004
21.01,-0.056,0.865,0.114
21.02,-0.167,0.973,0.046
21.03,-0.335,0.414,-0.236
21.04,-0.296,1.928,0.05
21.05,-0.128,0.567,0.134
21.06,-0.104,1.07,0.001
21.07,-0.386,0.311,-0.223
21.08,-0.215,2.0,0.093
21.09,-0.206,0.637,0.096
21.1,0.025,0.826,0.04
21.11,-0.477,0.676,-0.234
21.12,-0.08,1.6,0.109
21.13,-0.237,1.106,0.147
21.14,0.135,0.431,0.021
21.15,-0.607,1.016,-0.157
21.16,0.067,1.599,0.115
21.17,-0.252,1.072,0.134
21.18,0.155,0.59,-0.042
21.19,-0.479,0.699,-0.186
21.2,0.001,1.939,0.114
21.21,-0.097,0.667,0.104
21.22,-0.002,0.949,-0.012
21.23,-0.357,0.277,-0.212
21.24,-0.102,2.0,0.105
21.25,-0.026,0.683,0.054
21.26,-0.066,0.743,-0.057
21.27,-0.352,0.637,-0.26
21.28,-0.094,1.698,0.131
21.29,-0.167,1.099,0.119
21.3,0.074,0.363,-0.047
21.31,-0.501,1.044,-0.224
21.32,0.023,1.31,0.146
21.33,-0.202,1.254,0.098
21.34,0.002,0.502,-0.049
21.35,-0.452,0.711,-0.19
21.36,-0.103,1.663,0.183
21.37,-0.043,0.803,0.085
21.38,-0.125,0.983,-0.085
21.39,-0.406,0.232,-0.134
21.4,-0.184,1.908,0.196
21.41,-0.049,0.784,0.09
21.42,-0.141,0.818,-0.034
21.43,-0.473,0.474,-0.177
21.44,-0.041,1.477,0.135
21.45,-0.202,1.157,0.084
21.46,-0.063,0.496,-0.02
21.47,-0.534,0.952,-0.165
21.48,-0.026,1.201,0.215
21.49,-0.327,1.254,0.078
21.5,-0.059,0.639,-0.02
21.51,-0.427,0.721,-0.172
21.52,-0.108,1.457,0.192
21.53,-0.146,1.006,0.046
21.54,-0.131,0.979,-0.089
21.55,-0.328,0.264,-0.15
21.56,-0.215,1.617,0.191
21.57,-0.156,0.812,0.072
21.58,-0.154,1.042,-0.088
21.59,-0.384,0.31,-0.196
21.6,-0.11,1.372,0.198
21.61,-0.209,1.127,0.032
21.62,-0.074,0.597,-0.135
21.63,-0.469,0.874,-0.148
21.64,-0.052,1.016,0.232
21.65,-0.3,1.36,0.049
21.66,-0.078,0.437,-0.086
21.67,-0.453,0.857,-0.147
21.68,-0.081,1.145,0.136
21.69,-0.184,0.953,-0.038
21.7,-0.301,0.874,-0.129
21.71,-0.327,0.334,-0.07
21.72,-0.257,1.411,0.18
21.73,-0.166,0.695,0.083
21.74,-0.312,0.977,-0.11
21.75,-0.373,0.476,-0.096
21.76,-0.13,1.208,0.172
21.77,-0.255,1.055,-0.029
21.78,-0.256,0.495,-0.135
21.79,-0.402,1.137,-0.072
21.8,0.059,0.93,0.163
21.81,-0.28,1.272,0.014
21.82,-0.195,0.417,-0.16
21.83,-0.411,1.173,-0.054
21.84,0.047,0.793,0.11
21.85,-0.187,0.985,-0.004
21.86,-0.291,0.494,-0.231
21.87,-0.232,1.436,-0.077
21.88,-0.083,1.11,0.139
21.89,-0.113,0.671,0.044
21.9,-0.419,1.046,-0.228
21.91,-0.26,1.193,0.02
21.92,-0.198,1.181,0.198
21.93,-0.083,0.701,0.077
21.94,-0.458,0.926,-0.258
21.95,-0.232,1.531,0.006
21.96,-0.117,0.803,0.1
21.97,-0.142,1.056,0.043
21.98,-0.371,0.376,-0.232
21.99,-0.25,2.0,0.063
22.0,-0.154,0.619,0.12
22.01,-0.07,1.092,0.086
22.02,-0.443,0.383,-0.213
22.03,-0.243,1.74,0.088
22.04,-0.205,0.863,0.134
22.05,0.003,0.668,0.052
22.06,-0.495,0.903,-0.178
22.07,-0.174,1.388,0.088
22.08,-0.232,1.148,0.17
22.09,0.085,0.547,0.065
22.1,-0.462,0.925,-0.21
22.11,-0.16,1.613,0.064
22.12,-0.129,0.902,0.148
22.13,-0.043,0.866,0.047
22.14,-0.431,0.419,-0.162
22.15,-0.188,2.0,0.117
22.16,-0.124,0.559,0.145
22.17,-0.087,1.002,0.023
22.18,-0.369,0.397,-0.217
22.19,-0.121,1.918,0.069
22.2,-0.112,0.832,0.09
22.21,-0.014,0.588,-0.0
22.22,-0.421,0.878,-0.222
22.23,-0.073,1.575,0.154
22.24,-0.144,1.201,0.148
22.25,0.038,0.359,-0.001
22.26,-0.46,1.053,-0.201
22.27,-0.027,1.726,0.066
22.28,-0.152,0.891,0.088
22.29,0.008,0.778,-0.042
22.3,-0.434,0.48,-0.184
22.31,-0.206,1.898,0.131
22.32,-0.054,0.712,0.113
22.33,-0.129,0.845,-0.03
22.34,-0.357,0.294,-0.199
22.35,-0.095,1.966,0.096
22.36,-0.062,0.773,0.076
22.37,-0.03,0.627,-0.076
22.38,-0.434,0.825,-0.269
22.39,-0.046,1.474,0.183
22.4,-0.205,1.275,0.128
22.41,0.021,0.318,-0.011
22.42,-0.46,1.02,-0.225
22.43,-0.055,1.372,0.19
22.44,-0.173,1.121,0.069
22.45,-0.054,0.737,-0.044
22.46,-0.406,0.444,-0.197
22.47,-0.189,1.793,0.241
22.48,-0.019,0.734,0.07
22.49,-0.172,1.0,-0.052
22.5,-0.337,0.241,-0.177
22.51,-0.243,1.735,0.216
22.52,-0.111,0.913,0.085
22.53,-0.099,0.678,-0.074
22.54,-0.421,0.698,-0.218
22.55,-0.099,1.301,0.212
22.56,-0.282,1.289,0.102
22.57,0.026,0.491,-0.044
22.58,-0.528,0.912,-0.145
22.59,0.006,1.348,0.185
22.6,-0.239,1.219,0.119
22.61,-0.119,0.673,-0.044
22.62,-0.397,0.602,-0.174
22.63,-0.183,1.647,0.174
22.64,-0.144,0.824,0.082
22.65,-0.139,1.064,-0.077
22.66,-0.413,0.295,-0.141
22.67,-0.178,1.5,0.21
22.68,-0.106,0.744,0.063
22.69,-0.257,1.041,-0.086
22.7,-0.365,0.365,-0.187
22.71,-0.186,1.305,0.198
22.72,-0.152,1.076,-0.04
22.73,-0.113,0.544,-0.123
22.74,-0.405,0.899,-0.192
22.75,-0.01,0.922,0.173
22.76,-0.208,1.321,-0.014
22.77,-0.112,0.449,-0.111
22.78,-0.489,0.875,-0.113
22.79,-0.064,1.049,0.17
22.8,-0.199,1.037,0.01
22.81,-0.226,0.842,-0.135
22.82,-0.463,0.382,-0.104
22.83,-0.145,1.387,0.2
22.84,-0.198,0.741,0.05
22.85,-0.324,0.959,-0.064
22.86,-0.437,0.503,-0.06
22.87,-0.119,1.296,0.187
22.88,-0.204,0.946,0.018
22.89,-0.291,0.569,-0.12
22.9,-0.364,0.997,-0.105
22.91,-0.088,0.94,0.176
22.92,-0.23,1.26,0.034
22.93,-0.172,0.355,-0.157
22.94,-0.454,1.144,-0.07
22.95,-0.031,0.965,0.147
22.96,-0.164,1.052,0.028
22.97,-0.328,0.642,-0.196
22.98,-0.307,0.784,-0.086
22.99,-0.126,1.312,0.122
23.0,-0.119,0.685,0.08
23.01,-0.364,0.936,-0.143
23.02,-0.395,0.701,-0.017
23.03,-0.121,1.265,0.138
23.04,-0.189,0.961,0.018
23.05,-0.265,0.588,-0.181
23.06,-0.345,1.179,-0.055
23.07,-0.073,0.872,0.168
23.08,-0.266,1.297,0.084
23.09,-0.215,0.232,-0.136
23.1,-0.38,1.396,-0.088
23.11,0.003,0.846,0.12
23.12,-0.242,1.172,0.043
23.13,-0.275,0.537,-0.221
23.14,-0.291,0.911,-0.086
23.15,-0.165,1.158,0.112
23.16,-0.032,0.773,-0.013
23.17,-0.447,0.891,-0.187
23.18,-0.165,0.847,-0.042
23.19,-0.187,1.21,0.079
23.2,-0.205,0.832,0.017
23.21,-0.354,0.687,-0.112
23.22,-0.3,1.468,-0.08
23.23,-0.032,0.877,0.13
23.24,-0.255,1.169,-0.02
23.25,-0.212,0.404,-0.223
23.26,-0.299,1.634,-0.039
23.27,-0.067,0.744,0.127
23.28,-0.218,1.17,0.039
23.29,-0.365,0.554,-0.19
23.3,-0.267,1.269,-0.012
23.31,-0.22,1.118,0.137
23.32,-0.07,0.732,0.072
23.33,-0.45,0.912,-0.19
23.34,-0.183,1.214,-0.005
23.35,-0.169,1.224,0.14
23.36,-0.062,0.665,0.072
23.37,-0.46,0.904,-0.209
23.38,-0.21,1.602,0.056
23.39,-0.204,0.714,0.148
23.4,-0.098,1.144,0.063
23.41,-0.411,0.326,-0.227
23.42,-0.253,1.878,0.054
23.43,-0.192,0.641,0.123
23.44,-0.107,1.079,0.088
23.45,-0.423,0.462,-0.193
23.46,-0.18,1.729,0.042
23.47,-0.208,0.742,0.139
23.48,0.034,0.765,0.003
23.49,-0.444,0.74,-0.26
23.5,-0.027,1.558,0.081
23.51,-0.205,1.134,0.103
23.52,0.064,0.408,0.06
23.53,-0.444,1.011,-0.215
23.54,-0.059,1.617,0.128
23.55,-0.14,1.018,0.105
23.56,0.006,0.64,0.009
23.57,-0.325,0.661,-0.156
23.58,-0.144,1.99,0.072
23.59,-0.073,0.67,0.155
23.6,-0.048,0.974,0.013
23.61,-0.405,0.299,-0.206
23.62,-0.121,2.0,0.127
23.63,-0.094,0.613,0.08
23.64,-0.031,0.806,0.008
23.65,-0.409,0.672,-0.229
23.66,-0.052,1.636,0.125
23.67,-0.161,1.13,0.038
23.68,0.062,0.309,-0.034
23.69,-0.404,1.031,-0.189
23.7,-0.058,1.531,0.117
23.71,-0.14,1.158,0.129
23.72,-0.014,0.528,-0.031
23.73,-0.432,0.727,-0.229
23.74,-0.1,1.924,0.135
23.75,-0.136,0.689,0.093
23.76,-0.065,0.903,-0.015
23.77,-0.347,0.348,-0.227
23.78,-0.192,1.951,0.11
23.79,-0.09,0.771,0.131
23.8,-0.086,0.694,-0.041
23.81,-0.41,0.546,-0.236
23.82,-0.137,1.622,0.171
23.83,-0.172,1.109,0.121
23.84,0.057,0.394,-0.062
23.85,-0.492,0.997,-0.225
23.86,0.004,1.377,0.233
23.87,-0.237,1.25,0.099
23.88,-0.024,0.442,-0.031
23.89,-0.4,0.76,-0.201
23.9,-0.16,1.704,0.186
23.91,-0.103,0.798,0.077
23.92,-0.091,0.94,-0.058
23.93,-0.321,0.226,-0.228
23.94,-0.153,1.93,0.192
23.95,-0.066,0.795,0.1
23.96,-0.224,0.851,-0.059
23.97,-0.339,0.48,-0.196
23.98,-0.112,1.616,0.152
23.99,-0.179,1.222,0.09
24.0,-0.007,0.466,-0.066
24.01,-0.434,0.94,-0.151
24.02,-0.004,1.419,0.231
24.03,-0.217,1.342,0.13
24.04,-0.017,0.516,0.006
24.05,-0.508,0.792,-0.173
24.06,-0.052,1.648,0.202
24.07,-0.172,0.98,0.088
24.08,-0.079,0.933,-0.066
24.09,-0.393,0.28,-0.167
24.1,-0.208,1.732,0.18
24.11,-0.238,0.795,0.163
24.12,-0.171,0.994,-0.037
24.13,-0.499,0.344,-0.178
24.14,-0.064,1.499,0.181
24.15,-0.164,1.094,0.077
24.16,-0.09,0.586,-0.094
24.17,-0.485,0.962,-0.185
24.18,0.021,1.15,0.188
24.19,-0.325,1.365,0.077
24.2,0.015,0.489,-0.05
24.21,-0.498,0.858,-0.182
24.22,-0.029,1.245,0.114
24.23,-0.181,0.982,0.047
24.24,-0.21,0.932,-0.119
24.25,-0.445,0.266,-0.151
24.26,-0.2,1.575,0.185
24.27,-0.172,0.8,0.098
24.28,-0.3,1.011,-0.117
24.29,-0.426,0.325,-0.103
24.3,-0.138,1.368,0.209
24.31,-0.21,0.887,0.017
24.32,-0.258,0.715,-0.1
24.33,-0.506,0.811,-0.063
24.34,-0.02,1.091,0.171
24.35,-0.285,1.219,0.045
24.36,-0.147,0.384,-0.153
24.37,-0.514,1.103,-0.059
24.38,-0.004,0.905,0.148
24.39,-0.298,1.308,0.021
24.4,-0.227,0.408,-0.138
24.41,-0.375,0.968,-0.041
24.42,-0.047,1.182,0.143
24.43,-0.156,0.776,0.026
24.44,-0.328,0.938,-0.17
24.45,-0.38,0.723,-0.004
24.46,-0.153,1.321,0.154
24.47,-0.202,0.789,0.048
24.48,-0.377,0.798,-0.168
24.49,-0.27,1.043,-0.098
24.5,-0.06,0.959,0.107
24.51,-0.26,1.192,-0.0
24.52,-0.268,0.301,-0.18
24.53,-0.266,1.64,-0.072
24.54,0.042,0.829,0.112
24.55,-0.299,1.134,0.061
24.56,-0.302,0.56,-0.141
24.57,-0.321,1.411,-0.081
24.58,-0.081,1.07,0.094
24.59,-0.146,0.738,-0.023
24.6,-0.415,0.929,-0.215
24.61,-0.191,1.116,-0.04
24.62,-0.14,1.24,0.094
24.63,-0.036,0.673,0.042
24.64,-0.467,0.937,-0.18
24.65,-0.247,1.431,-0.004
24.66,-0.091,0.952,0.135
24.67,-0.21,0.971,0.065
24.68,-0.365,0.51,-0.189
24.69,-0.367,1.885,0.062
24.7,-0.081,0.668,0.135
24.71,-0.226,1.115,0.083
24.72,-0.339,0.471,-0.192
24.73,-0.318,1.708,0.011
24.74,-0.096,0.9,0.167
24.75,-0.056,0.739,0.101
24.76,-0.468,0.993,-0.194
24.77,-0.23,1.34,0.056
24.78,-0.261,1.136,0.143
24.79,0.052,0.559,0.055
24.8,-0.507,0.95,-0.222
24.81,-0.138,1.583,0.073
24.82,-0.207,0.847,0.095
24.83,0.004,0.898,0.04
24.84,-0.451,0.538,-0.185
24.85,-0.188,2.0,0.092
24.86,-0.102,0.708,0.162
24.87,-0.109,0.98,0.064
24.88,-0.395,0.413,-0.186
24.89,-0.279,1.946,0.136
24.9,-0.22,0.705,0.125
24.91,0.0,0.735,0.04
24.92,-0.451,0.854,-0.218
24.93,-0.087,1.429,0.126
24.94,-0.232,1.118,0.162
24.95,0.117,0.445,0.08
24.96,-0.498,1.019,-0.19
24.97,-0.077,1.562,0.113
24.98,-0.173,0.988,0.181
24.99,-0.025,0.715,0.005
25.0,-0.398,0.521,-0.182
25.01,-0.091,2.0,0.097
25.02,-0.167,0.524,0.159
25.03,-0.067,1.017,0.021
25.04,-0.365,0.328,-0.239
25.05,-0.085,2.0,0.11
25.06,-0.144,0.749,0.105
25.07,-0.013,0.673,0.03
25.08,-0.351,0.474,-0.216
25.09,-0.019,1.85,0.078
25.1,-0.091,0.983,0.033
25.11,0.011,0.4,-0.062
25.12,-0.496,0.987,-0.176
25.13,0.021,1.5,0.139
25.14,-0.277,1.218,0.108
25.15,0.038,0.398,-0.016
25.16,-0.546,0.841,-0.199
25.17,-0.004,1.727,0.124
25.18,-0.205,0.888,0.124
25.19,-0.034,0.834,-0.032
25.2,-0.456,0.321,-0.203
25.21,-0.107,2.0,0.195
25.22,-0.154,0.698,0.147
25.23,-0.152,0.824,-0.015
25.24,-0.447,0.394,-0.172
25.25,-0.135,1.732,0.227
25.26,-0.205,0.978,0.125
25.27,0.032,0.47,-0.024
25.28,-0.534,0.901,-0.153
25.29,-0.043,1.317,0.211
25.3,-0.346,1.293,0.145
25.31,0.006,0.505,-0.069
25.32,-0.474,0.88,-0.185
25.33,0.067,1.604,0.142
25.34,-0.132,0.99,0.088
25.35,-0.026,0.815,-0.126
25.36,-0.431,0.385,-0.194
25.37,-0.095,1.713,0.176
25.38,-0.126,0.856,0.088
25.39,-0.124,0.91,-0.102
25.4,-0.345,0.324,-0.221
25.41,-0.074,1.565,0.135
25.42,-0.159,1.02,0.021
25.43,-0.082,0.684,-0.127
25.44,-0.421,0.776,-0.252
25.45,0.072,1.237,0.159
25.46,-0.26,1.408,0.037
25.47,-0.007,0.428,-0.098
25.48,-0.498,0.879,-0.224
25.49,0.001,1.325,0.148
25.5,-0.197,1.091,-0.016
25.51,-0.119,0.816,-0.105
25.52,-0.403,0.357,-0.197
25.53,-0.147,1.576,0.148
25.54,-0.135,0.776,0.048
25.55,-0.203,1.039,-0.088
25.56,-0.485,0.249,-0.153
25.57,-0.139,1.421,0.199
25.58,-0.174,1.058,0.033
25.59,-0.093,0.637,-0.129
25.6,-0.423,0.826,-0.196
25.61,-0.009,1.05,0.197
25.62,-0.214,1.282,0.037
25.63,-0.043,0.429,-0.125
25.64,-0.471,0.974,-0.216
25.65,0.005,1.115,0.177
25.66,-0.196,1.119,0.082
25.67,-0.162,0.741,-0.175
25.68,-0.448,0.487,-0.127
25.69,-0.136,1.363,0.162
25.7,-0.087,0.826,0.021
25.71,-0.244,0.982,-0.083
25.72,-0.438,0.375,-0.116
25.73,-0.093,1.362,0.158
25.74,-0.173,0.908,-0.002
25.75,-0.294,0.706,-0.115
25.76,-0.433,0.81,-0.116
25.77,-0.083,0.979,0.175
25.78,-0.182,1.251,-0.024
25.79,-0.158,0.335,-0.134
25.8,-0.516,1.079,-0.078
25.81,-0.011,0.948,0.12
25.82,-0.243,1.168,0.009
25.83,-0.188,0.624,-0.151
25.84,-0.434,0.7,-0.053
25.85,-0.061,1.308,0.16
25.86,-0.128,0.774,0.034
25.87,-0.356,0.958,-0.142
25.88,-0.291,0.664,-0.054
25.89,-0.235,1.312,0.136
25.9,-0.121,0.78,0.018
25.91,-0.381,0.839,-0.149
25.92,-0.136,1.055,-0.1
25.93,-0.12,1.077,0.16
25.94,-0.13,1.049,-0.001
25.95,-0.3,0.528,-0.163
25.96,-0.26,1.625,-0.068
25.97,-0.043,0.734,0.11
25.98,-0.24,1.238,0.037
25.99,-0.263,0.361,-0.219
26.0,-0.282,1.622,-0.011
26.01,-0.121,0.838,0.117
26.02,-0.179,0.923,0.036
26.03,-0.349,0.766,-0.171
26.04,-0.255,1.305,0.038
26.05,-0.156,1.21,0.167
26.06,-0.05,0.589,0.043
26.07,-0.5,1.025,-0.194
26.08,-0.264,1.348,0.101
26.09,-0.237,0.997,0.15
26.1,-0.113,0.881,0.002
26.11,-0.418,0.62,-0.19
26.12,-0.238,1.918,0.045
26.13,-0.117,0.691,0.146
26.14,-0.091,1.105,0.042
26.15,-0.365,0.373,-0.199
26.16,-0.252,1.979,0.089
26.17,-0.152,0.765,0.129
26.18,-0.075,0.808,0.023
26.19,-0.474,0.685,-0.244
26.2,-0.12,1.615,0.14
26.21,-0.254,1.071,0.109
26.22,0.101,0.465,0.018
26.23,-0.528,1.05,-0.206
26.24,-0.029,1.513,0.088
26.25,-0.106,1.094,0.085
26.26,0.048,0.6,-0.006
26.27,-0.483,0.664,-0.2
26.28,-0.097,1.918,0.113
26.29,-0.099,0.693,0.146
26.3,-0.09,0.957,-0.003
26.31,-0.418,0.314,-0.184
26.32,-0.045,2.0,0.096
26.33,-0.072,0.704,0.091
26.34,-0.04,0.722,0.003
26.35,-0.398,0.663,-0.235
26.36,-0.028,1.683,0.096
26.37,-0.121,1.143,0.082
26.38,0.088,0.341,-0.022
26.39,-0.541,1.004,-0.185
26.4,-0.006,1.531,0.207
26.41,-0.301,1.155,0.138
26.42,0.044,0.538,0.004
26.43,-0.424,0.718,-0.198
26.44,-0.065,1.826,0.122
26.45,-0.092,0.758,0.106
26.46,-0.068,0.892,-0.064
26.47,-0.448,0.253,-0.118
26.48,-0.227,1.798,0.181
26.49,-0.122,0.757,0.115
26.5,-0.186,0.814,-0.027
26.51,-0.451,0.451,-0.179
26.52,-0.093,1.641,0.191
26.53,-0.262,1.237,0.149
26.54,-0.065,0.412,-0.035
26.55,-0.459,0.985,-0.167
26.56,-0.015,1.316,0.186
26.57,-0.236,1.299,0.083
26.58,0.006,0.465,-0.056
26.59,-0.385,0.734,-0.2
26.6,-0.069,1.533,0.118
26.61,-0.218,0.908,0.096
26.62,-0.187,0.994,-0.079
26.63,-0.365,0.219,-0.159
26.64,-0.148,1.724,0.174
26.65,-0.087,0.847,0.096
26.66,-0.22,0.887,-0.08
26.67,-0.357,0.433,-0.21
26.68,-0.116,1.311,0.198
26.69,-0.191,0.937,-0.023
26.7,-0.111,0.76,-0.139
26.71,-0.442,0.737,-0.186
26.72,0.021,1.06,0.19
26.73,-0.231,1.281,-0.026
26.74,-0.076,0.457,-0.118
26.75,-0.537,0.953,-0.121
26.76,-0.056,0.937,0.154
26.77,-0.295,1.173,0.003
26.78,-0.089,0.693,-0.125
26.79,-0.479,0.625,-0.041
26.8,-0.059,1.348,0.163
26.81,-0.233,0.679,0.052
26.82,-0.352,1.027,-0.091
26.83,-0.459,0.432,0.011
26.84,-0.163,1.316,0.16
26.85,-0.173,0.889,-0.004
26.86,-0.262,0.697,-0.124
26.87,-0.319,1.161,-0.074
26.88,0.03,0.94,0.137
26.89,-0.316,1.184,0.055
26.9,-0.201,0.376,-0.128
26.91,-0.412,1.452,-0.021
26.92,0.0,0.88,0.166
26.93,-0.222,1.129,0.019
26.94,-0.321,0.552,-0.181
26.95,-0.303,0.952,-0.026
26.96,-0.198,1.125,0.18
26.97,-0.173,0.744,0.03
26.98,-0.35,0.911,-0.139
26.99,-0.237,0.976,-0.043
27.0,-0.097,1.261,0.157
27.01,-0.102,0.802,0.042
27.02,-0.463,0.816,-0.166
27.03,-0.47,0.48,-0.217
27.04,0.004,1.827,0.109
27.05,-0.13,1.001,0.083
27.06,0.016,0.419,-0.029
27.07,-0.462,0.966,-0.223
27.08,0.05,1.52,0.156
27.09,-0.199,1.224,0.079
27.1,0.079,0.44,-0.004
27.11,-0.526,0.817,-0.191
27.12,0.03,1.691,0.091
27.13,-0.126,0.876,0.031
27.14,-0.026,0.894,-0.062
27.15,-0.389,0.252,-0.173
27.16,-0.121,1.888,0.145
27.17,-0.073,0.77,0.121
27.18,-0.167,0.9,-0.047
27.19,-0.391,0.344,-0.167
27.2,-0.155,1.601,0.179
27.21,-0.198,1.097,0.082
27.22,-0.058,0.523,-0.038
27.23,-0.397,0.724,-0.186
27.24,-0.129,1.09,0.207
27.25,-0.275,1.241,0.038
27.26,-0.109,0.471,-0.097
27.27,-0.413,0.97,-0.156
27.28,-0.055,1.0,0.216
27.29,-0.217,1.208,0.024
27.3,-0.191,0.618,-0.133
27.31,-0.407,0.64,-0.055
27.32,-0.187,1.264,0.173
27.33,-0.164,0.694,0.032
27.34,-0.329,0.979,-0.116
27.35,-0.398,0.408,-0.022
27.36,-0.194,1.413,0.226
27.37,-0.19,0.794,0.019
27.38,-0.323,0.801,-0.1
27.39,-0.365,0.796,-0.105
27.4,-0.054,1.067,0.171
27.41,-0.17,1.24,-0.025
27.42,-0.14,0.313,-0.139
27.43,-0.3,1.412,-0.108
27.44,0.081,0.854,0.057
27.45,-0.234,1.187,-0.047
27.46,-0.204,0.502,-0.177
27.47,-0.271,1.21,-0.093
27.48,-0.052,1.143,0.146
27.49,-0.071,0.736,0.011
27.5,-0.419,0.961,-0.166
27.51,-0.194,0.851,-0.034
27.52,-0.22,1.246,0.173
27.53,-0.181,0.786,0.034
27.54,-0.375,0.836,-0.156
27.55,-0.179,1.381,-0.066
27.56,-0.071,0.93,0.105
27.57,-0.233,1.071,-0.001
27.58,-0.304,0.437,-0.178
27.59,-0.269,1.785,0.031
27.6,-0.082,0.688,0.117
27.61,-0.182,1.147,0.068
27.62,-0.378,0.482,-0.257
27.63,-0.264,1.655,0.073
27.64,-0.168,0.901,0.148
27.65,-0.053,0.698,0.015
27.66,-0.477,0.933,-0.18
27.67,-0.161,1.382,0.092
27.68,-0.306,1.142,0.212
27.69,0.102,0.542,0.094
27.7,-0.62,0.954,-0.212
27.71,-0.079,1.647,0.151
27.72,-0.209,0.869,0.125
27.73,-0.006,0.869,0.036
27.74,-0.437,0.439,-0.185
27.75,-0.189,2.0,0.178
27.76,-0.107,0.612,0.161
27.77,-0.063,0.964,-0.011
27.78,-0.412,0.352,-0.238
27.79,-0.064,2.0,0.097
27.8,-0.165,0.788,0.106
27.81,0.04,0.581,-0.033
27.82,-0.443,0.913,-0.23
27.83,0.029,1.589,0.105
27.84,-0.255,1.201,0.195
27.85,0.076,0.347,0.04
27.86,-0.556,0.967,-0.196
27.87,0.011,1.617,0.109
27.88,-0.153,1.031,0.071
27.89,0.017,0.709,-0.069
27.9,-0.433,0.409,-0.197
27.91,-0.164,1.857,0.139
27.92,-0.05,0.659,0.125
27.93,-0.15,1.009,-0.037
27.94,-0.514,0.228,-0.179
27.95,-0.082,1.823,0.207
27.96,-0.154,0.933,0.102
27.97,0.002,0.584,-0.032
27.98,-0.493,0.768,-0.196
27.99,-0.058,1.257,0.162
28.0,-0.239,1.222,0.068
28.01,0.024,0.408,-0.022
28.02,-0.568,0.92,-0.16
28.03,-0.037,1.259,0.178
28.04,-0.325,1.228,0.107
28.05,-0.109,0.589,-0.051
28.06,-0.504,0.74,-0.115
28.07,-0.054,1.25,0.139
28.08,-0.163,0.93,0.067
28.09,-0.19,0.967,-0.121
28.1,-0.512,0.307,-0.091
28.11,-0.143,1.456,0.262
28.12,-0.23,0.734,0.058
28.13,-0.227,0.963,-0.111
28.14,-0.464,0.511,-0.109
28.15,-0.074,1.195,0.18
28.16,-0.274,1.112,-0.018
28.17,-0.071,0.512,-0.084
28.18,-0.511,1.005,-0.126
28.19,0.05,0.948,0.177
28.2,-0.326,1.313,-0.0
28.21,-0.167,0.431,-0.134
28.22,-0.477,0.884,-0.079
28.23,-0.066,1.094,0.151
28.24,-0.154,0.983,0.03
28.25,-0.293,0.772,-0.128
28.26,-0.314,0.583,-0.061
28.27,-0.12,1.354,0.09
28.28,-0.229,0.742,0.056
28.29,-0.229,0.908,-0.106
28.3,-0.335,0.954,-0.108
28.31,-0.062,1.137,0.099
28.32,-0.243,0.997,0.027
28.33,-0.324,0.531,-0.167
28.34,-0.32,1.247,0.017
28.35,-0.139,0.8,0.098
28.36,-0.29,1.267,0.032
28.37,-0.222,0.279,-0.154
28.38,-0.218,1.573,-0.104
28.39,-0.003,0.919,0.128
28.4,-0.203,0.9,0.025
28.41,-0.396,0.763,-0.171
28.42,-0.186,1.143,0.007
28.43,-0.203,1.289,0.161
28.44,-0.1,0.649,0.077
28.45,-0.51,0.993,-0.198
28.46,-0.318,0.997,0.047
28.47,-0.237,1.058,0.086
28.48,-0.226,1.019,0.013
28.49,-0.344,0.486,-0.17
28.5,-0.175,1.77,0.027
28.51,0.01,0.712,0.139
28.52,-0.088,1.087,-0.02
28.53,-0.353,0.36,-0.241
28.54,-0.191,1.875,0.047
28.55,-0.182,0.728,0.091
28.56,-0.044,0.873,0.029
28.57,-0.522,0.711,-0.261
28.58,-0.183,1.419,0.111
28.59,-0.339,0.974,0.117
28.6,-0.003,0.556,0.035
28.61,-0.525,0.93,-0.178
28.62,-0.03,1.512,0.064
28.63,-0.131,1.15,0.155
28.64,0.031,0.589,-0.014
28.65,-0.494,0.599,-0.156
28.66,-0.133,2.0,0.081
28.67,-0.134,0.596,0.131
28.68,-0.146,1.017,0.018
28.69,-0.371,0.314,-0.213
28.7,-0.17,2.0,0.105
28.71,-0.08,0.688,0.124
28.72,-0.115,0.772,0.034
28.73,-0.384,0.582,-0.191
28.74,-0.069,1.673,0.097
28.75,-0.109,1.117,0.097
28.76,0.027,0.431,-0.049
28.77,-0.446,0.981,-0.202
28.78,-0.001,1.556,0.179
28.79,-0.215,1.163,0.11
28.8,-0.006,0.519,-0.016
28.81,-0.46,0.688,-0.182
28.82,-0.095,1.684,0.116
28.83,-0.073,0.816,0.113
28.84,-0.116,0.883,-0.074
28.85,-0.451,0.373,-0.116
28.86,-0.183,1.703,0.181
28.87,-0.12,0.718,0.074
28.88,-0.163,1.159,-0.082
28.89,-0.455,0.267,-0.152
28.9,-0.132,1.43,0.207
28.91,-0.214,1.066,0.051
28.92,-0.063,0.726,-0.093
28.93,-0.564,0.851,-0.148
28.94,-0.078,1.024,0.232
28.95,-0.306,1.287,0.121
28.96,-0.074,0.43,-0.113
28.97,-0.547,0.985,-0.112
28.98,0.003,1.065,0.179
28.99,-0.333,1.131,0.149
29.0,-0.095,0.781,-0.075
29.01,-0.523,0.501,-0.064
29.02,-0.079,1.33,0.227
29.03,-0.207,0.781,0.008
29.04,-0.292,0.973,-0.08
29.05,-0.382,0.42,-0.072
29.06,-0.121,1.302,0.149
29.07,-0.176,0.894,-0.034
29.08,-0.252,0.702,-0.142
29.09,-0.407,0.836,-0.095
29.1,-0.068,0.898,0.121
29.11,-0.267,1.324,-0.022
29.12,-0.17,0.279,-0.127
29.13,-0.422,1.255,-0.014
29.14,-0.034,0.842,0.136
29.15,-0.299,1.158,-0.021
29.16,-0.3,0.503,-0.164
29.17,-0.15,1.156,-0.026
29.18,-0.172,1.186,0.116
29.19,-0.049,0.699,0.015
29.2,-0.498,0.992,-0.192
29.21,-0.117,1.04,0.007
29.22,-0.228,1.196,0.108
29.23,-0.146,0.824,0.012
29.24,-0.469,0.708,-0.215
29.25,-0.145,1.596,0.078
29.26,-0.162,0.767,0.156
29.27,-0.195,1.095,0.042
29.28,-0.389,0.372,-0.227
29.29,-0.248,2.0,0.063
29.3,-0.107,0.656,0.111
29.31,-0.065,1.0,0.015
29.32,-0.489,0.518,-0.189
29.33,-0.195,1.75,0.118
29.34,-0.29,0.841,0.097
29.35,0.039,0.627,0.05
29.36,-0.497,0.948,-0.184
29.37,-0.098,1.511,0.145
29.38,-0.175,1.199,0.156
29.39,-0.019,0.454,0.05
29.4,-0.497,0.805,-0.141
29.41,-0.116,1.784,0.148
29.42,-0.124,0.741,0.156
29.43,-0.136,0.902,-0.032
29.44,-0.395,0.294,-0.18
29.45,-0.151,2.0,0.193
29.46,-0.15,0.624,0.082
29.47,-0.111,0.837,-0.003
29.48,-0.46,0.379,-0.207
29.49,-0.106,1.622,0.178
29.5,-0.174,1.106,0.061
29.51,-0.053,0.504,-0.017
29.52,-0.501,0.832,-0.159
29.53,0.01,1.371,0.173
29.54,-0.215,1.282,0.06
29.55,-0.01,0.548,-0.057
29.56,-0.508,0.793,-0.181
29.57,-0.018,1.467,0.194
29.58,-0.242,1.08,0.027
29.59,-0.062,0.877,-0.062
29.6,-0.441,0.306,-0.126
29.61,-0.163,1.582,0.182
29.62,-0.192,0.741,0.053
29.63,-0.209,1.097,-0.123
29.64,-0.414,0.332,-0.107
29.65,-0.177,1.392,0.175
29.66,-0.175,0.832,-0.006
29.67,-0.245,0.803,-0.124
29.68,-0.441,0.763,-0.093
29.69,-0.013,1.034,0.157
29.7,-0.281,1.26,-0.021
29.71,-0.164,0.291,-0.151
29.72,-0.352,1.355,-0.051
29.73,0.01,0.866,0.091
29.74,-0.317,1.183,0.031
29.75,-0.235,0.446,-0.173
29.76,-0.223,1.209,-0.101
29.77,-0.082,1.092,0.062
29.78,-0.156,0.757,-0.008
29.79,-0.416,0.904,-0.166
29.8,-0.177,0.98,-0.025
29.81,-0.24,1.161,0.105
29.82,-0.033,0.825,0.009
29.83,-0.385,0.834,-0.218
29.84,-0.163,1.397,0.002
29.85,-0.105,0.88,0.098
29.86,-0.118,1.066,-0.01
29.87,-0.309,0.386,-0.193
29.88,-0.25,1.924,0.049
29.89,-0.212,0.576,0.116
29.9,-0.108,1.092,0.013
29.91,-0.443,0.385,-0.23
29.92,-0.19,1.827,0.067
29.93,-0.178,0.811,0.09
29.94,-0.029,0.648,-0.017
29.95,-0.566,0.929,-0.183
29.96,-0.015,1.546,0.099
29.97,-0.247,1.137,0.147
29.98,0.006,0.436,0.043
29.99,-0.493,0.918,-0.17
30.0,-0.053,1.746,0.15
30.01,-0.155,0.8,0.115
30.02,0.021,0.819,-0.049
30.03,-0.406,0.402,-0.205
30.04,-0.088,2.0,0.131
30.05,-0.065,0.673,0.142
30.06,-0.095,0.917,-0.052
30.07,-0.46,0.248,-0.169
30.08,-0.048,1.82,0.096
30.09,-0.148,0.988,0.081
30.1,-0.054,0.641,-0.075
30.11,-0.478,0.767,-0.201
30.12,0.019,1.47,0.192
30.13,-0.25,1.365,0.077
30.14,0.021,0.408,-0.054
30.15,-0.441,0.942,-0.211
30.16,-0.047,1.297,0.202
30.17,-0.158,1.128,0.015
30.18,-0.073,0.872,-0.141
30.19,-0.353,0.418,-0.114
30.2,-0.148,1.495,0.158
30.21,-0.053,0.833,0.039
30.22,-0.24,1.108,-0.109
30.23,-0.315,0.312,-0.159
30.24,-0.144,1.347,0.161
30.25,-0.202,0.959,0.086
30.26,-0.19,0.795,-0.127
30.27,-0.48,0.794,-0.106
30.28,0.016,0.979,0.21
30.29,-0.254,1.347,0.043
30.3,-0.167,0.357,-0.109
30.31,-0.42,1.14,-0.056
30.32,-0.036,0.925,0.102
30.33,-0.245,1.116,-0.073
30.34,-0.225,0.627,-0.149
30.35,-0.378,0.868,0.024
30.36,-0.156,1.215,0.151
30.37,-0.187,0.764,0.021
30.38,-0.395,0.908,-0.164
30.39,-0.208,0.922,-0.023
30.4,-0.179,1.189,0.109
30.41,-0.137,0.928,-0.027
30.42,-0.382,0.62,-0.207
30.43,-0.14,1.508,0.038
30.44,-0.088,0.794,0.12
30.45,-0.043,0.884,-0.025
30.46,-0.502,0.431,-0.207
30.47,-0.14,2.0,0.095
30.48,-0.191,0.515,0.098
30.49,-0.058,1.07,0.0
30.5,-0.46,0.366,-0.169
30.51,-0.114,1.933,0.137
30.52,-0.167,0.835,0.157
30.53,0.0,0.617,0.021
30.54,-0.57,0.725,-0.214
30.55,0.079,1.517,0.138
30.56,-0.194,1.277,0.076
30.57,0.087,0.38,-0.004
30.58,-0.441,0.904,-0.23
30.59,0.022,1.618,0.149
30.6,-0.112,1.073,0.047
30.61,-0.039,0.691,-0.099
30.62,-0.329,0.454,-0.182
30.63,-0.175,1.775,0.207
30.64,-0.124,0.77,0.099
30.65,-0.132,1.053,-0.067
30.66,-0.308,0.243,-0.171
30.67,-0.158,1.471,0.141
30.68,-0.166,0.933,0.046
30.69,-0.183,0.85,-0.161
30.7,-0.368,0.741,-0.081
30.71,-0.123,1.02,0.235
30.72,-0.276,1.27,0.051
30.73,-0.14,0.496,-0.081
30.74,-0.45,0.988,-0.055
30.75,-0.105,0.927,0.188
30.76,-0.267,1.198,0.036
30.77,-0.266,0.614,-0.14
30.78,-0.297,0.794,-0.009
30.79,-0.131,1.25,0.149
30.8,-0.226,0.657,0.065
30.81,-0.42,1.0,-0.121
30.82,-0.33,0.698,0.04
30.83,-0.235,1.253,0.21
30.84,-0.243,0.896,0.071
30.85,-0.495,0.689,-0.178
30.86,-0.151,1.351,0.02
30.87,-0.153,0.834,0.082
30.88,-0.244,1.148,-0.013
30.89,-0.31,0.36,-0.183
30.9,-0.207,1.884,0.038
30.91,-0.013,0.691,0.09
30.92,-0.153,1.023,0.019
30.93,-0.473,0.567,-0.2
30.94,-0.193,1.703,0.077
30.95,-0.22,0.946,0.15
30.96,-0.001,0.59,0.022
30.97,-0.535,0.941,-0.216
30.98,-0.075,1.476,0.145
30.99,-0.177,1.148,0.134
31.0,0.015,0.48,0.02
31.01,-0.53,0.896,-0.161
31.02,-0.083,1.759,0.093
31.03,-0.077,0.866,0.136
31.04,-0.08,0.855,-0.034
31.05,-0.36,0.287,-0.165
31.06,-0.193,2.0,0.177
31.07,-0.083,0.643,0.138
31.08,-0.143,0.849,-0.042
31.09,-0.355,0.391,-0.226
31.1,-0.1,1.749,0.149
31.11,-0.145,1.037,0.084
31.12,-0.022,0.456,-0.046
31.13,-0.484,0.867,-0.186
31.14,-0.022,1.265,0.165
31.15,-0.31,1.324,0.152
31.16,0.023,0.585,-0.073
31.17,-0.464,0.782,-0.182
31.18,-0.031,1.481,0.172
31.19,-0.156,1.062,0.062
31.2,-0.112,0.888,-0.098
31.21,-0.366,0.374,-0.143
31.22,-0.189,1.568,0.204
31.23,-0.137,0.758,0.016
31.24,-0.117,1.107,-0.087
31.25,-0.347,0.394,-0.153
31.26,-0.162,1.338,0.16
31.27,-0.287,0.817,-0.018
31.28,-0.331,0.787,-0.113
31.29,-0.377,0.823,-0.017
31.3,-0.033,0.94,0.128
31.31,-0.229,1.226,-0.019
31.32,-0.227,0.341,-0.158
31.33,-0.315,1.443,-0.004
31.34,0.013,0.802,0.148
31.35,-0.329,1.208,-0.005
31.36,-0.269,0.434,-0.206
31.37,-0.224,1.388,0.034
31.38,-0.096,1.082,0.101
31.39,-0.071,0.725,-0.001
31.4,-0.485,0.962,-0.182
31.41,-0.111,1.187,0.038
31.42,-0.26,1.185,0.127
31.43,0.009,0.603,0.022
31.44,-0.495,0.957,-0.152
31.45,-0.205,1.536,0.083
31.46,-0.223,0.739,0.165
31.47,-0.133,1.074,-0.017
31.48,-0.428,0.343,-0.202
31.49,-0.233,2.0,0.1
31.5,-0.117,0.571,0.142
31.51,-0.09,1.029,0.046
31.52,-0.374,0.354,-0.233
31.53,-0.111,1.878,0.143
31.54,-0.075,0.879,0.068
31.55,-0.007,0.516,-0.021
31.56,-0.455,0.879,-0.231
31.57,0.031,1.611,0.104
31.58,-0.195,1.21,0.054
31.59,0.049,0.373,-0.033
31.6,-0.51,0.877,-0.216
31.61,0.035,1.703,0.159
31.62,-0.179,0.97,0.082
31.63,-0.01,0.742,-0.06
31.64,-0.433,0.341,-0.186
31.65,-0.14,1.841,0.195
31.66,-0.046,0.764,0.064
31.67,-0.183,0.954,-0.06
31.68,-0.38,0.264,-0.142
31.69,-0.192,1.592,0.169
31.7,-0.2,1.023,0.089
31.71,-0.052,0.76,-0.094
31.72,-0.473,0.754,-0.145
31.73,0.02,1.132,0.2
31.74,-0.311,1.338,0.072
31.75,0.007,0.49,-0.153
31.76,-0.536,0.93,-0.127
31.77,-0.026,1.076,0.173
31.78,-0.254,1.051,-0.0
31.79,-0.2,0.767,-0.121
31.8,-0.433,0.509,-0.054
31.81,-0.173,1.342,0.153
31.82,-0.217,0.757,0.023
31.83,-0.27,1.001,-0.129
31.84,-0.347,0.562,-0.039
31.85,-0.014,1.281,0.137
31.86,-0.133,0.96,-0.02
31.87,-0.246,0.683,-0.261
31.88,-0.182,1.253,-0.153
31.89,0.028,0.871,0.057
31.9,-0.247,1.223,-0.036
31.91,-0.266,0.292,-0.192
31.92,-0.326,1.662,-0.018
31.93,-0.127,0.833,0.124
31.94,-0.24,1.066,0.072
31.95,-0.367,0.589,-0.196
31.96,-0.233,1.378,0.026
31.97,-0.223,1.069,0.106
31.98,-0.014,0.649,-0.016
31.99,-0.509,0.99,-0.167
32.0,-0.073,1.333,0.065
32.01,-0.308,1.057,0.145
32.02,-0.05,0.691,0.056
32.03,-0.565,0.703,-0.157
32.04,-0.172,1.808,0.069
32.05,-0.194,0.655,0.125
32.06,-0.017,0.751,-0.045
32.07,-0.399,0.425,-0.155
32.08,-0.175,2.0,0.154
32.09,-0.015,0.601,0.127
32.1,-0.175,0.945,-0.014
32.11,-0.281,0.253,-0.172
32.12,-0.202,1.961,0.139
32.13,-0.127,0.847,0.127
32.14,-0.118,0.617,-0.021
32.15,-0.439,0.756,-0.167
32.16,-0.059,1.436,0.223
32.17,-0.264,1.323,0.122
32.18,0.057,0.404,-0.019
32.19,-0.561,0.915,-0.108
32.2,-0.019,1.244,0.215
32.21,-0.306,1.15,0.061
32.22,-0.025,0.847,-0.11
32.23,-0.373,0.403,-0.148
32.24,-0.091,1.473,0.178
32.25,-0.156,0.815,-0.015
32.26,-0.216,1.115,-0.078
32.27,-0.405,0.28,-0.089
32.28,-0.175,1.368,0.239
32.29,-0.241,0.888,-0.042
32.3,-0.216,0.736,-0.117
32.31,-0.46,0.807,-0.042
32.32,-0.041,1.064,0.185
32.33,-0.355,1.226,0.038
32.34,-0.227,0.352,-0.122
32.35,-0.405,1.148,-0.037
32.36,-0.062,0.882,0.152
32.37,-0.21,1.185,-0.015
32.38,-0.254,0.461,-0.173
32.39,-0.187,1.139,-0.039
32.4,-0.111,1.16,0.089
32.41,-0.069,0.73,0.013
32.42,-0.459,0.909,-0.196
32.43,-0.111,1.065,-0.039
32.44,-0.267,1.174,0.092
32.45,-0.074,0.791,0.025
32.46,-0.459,0.817,-0.203
32.47,-0.146,1.587,0.03
32.48,-0.151,0.814,0.123
32.49,-0.095,1.045,-0.008
32.5,-0.394,0.356,-0.23
32.51,-0.228,2.0,0.114
32.52,-0.109,0.64,0.091
32.53,-0.145,1.013,0.042
32.54,-0.356,0.499,-0.208
32.55,-0.192,1.829,0.113
32.56,-0.118,1.002,0.104
32.57,-0.004,0.464,0.016
32.58,-0.461,0.961,-0.199
32.59,-0.042,1.597,0.114
32.6,-0.173,1.093,0.092
32.61,0.051,0.464,0.001
32.62,-0.485,0.877,-0.177
32.63,-0.07,1.69,0.15
32.64,-0.101,0.862,0.105
32.65,-0.05,0.829,-0.051
32.66,-0.392,0.291,-0.168
32.67,-0.13,1.967,0.172
32.68,-0.066,0.76,0.104
32.69,-0.188,0.899,-0.041
32.7,-0.327,0.322,-0.164
32.71,-0.122,1.766,0.191
32.72,-0.087,1.028,0.022
32.73,-0.019,0.556,-0.052
32.74,-0.416,0.868,-0.172
32.75,-0.002,1.203,0.188
32.76,-0.252,1.334,0.03
32.77,0.01,0.505,-0.084
32.78,-0.408,0.853,-0.163
32.79,-0.054,1.223,0.162
32.8,-0.208,1.032,0.021
32.81,-0.14,0.911,-0.112
32.82,-0.363,0.314,-0.107
32.83,-0.228,1.454,0.22
32.84,-0.134,0.801,0.046
32.85,-0.264,1.027,-0.102
32.86,-0.371,0.396,-0.119
32.87,-0.104,1.365,0.144
32.88,-0.295,0.826,0.019
32.89,-0.305,0.804,-0.121
32.9,-0.376,1.02,-0.035
32.91,-0.08,0.981,0.175
32.92,-0.278,1.226,-0.014
32.93,-0.264,0.389,-0.181
32.94,-0.292,1.557,-0.007
32.95,-0.058,0.765,0.142
32.96,-0.215,1.229,0.012
32.97,-0.315,0.419,-0.231
32.98,-0.198,1.534,-0.013
32.99,-0.065,0.939,0.093
33.0,0.043,0.759,-0.039
33.01,-0.418,0.934,-0.274
33.02,-0.045,1.321,0.029
33.03,-0.252,1.145,0.149
33.04,0.028,0.567,0.046
33.05,-0.578,0.909,-0.208
33.06,-0.102,1.734,0.09
33.07,-0.258,0.782,0.129
33.08,-0.014,0.906,0.001
33.09,-0.454,0.412,-0.206
33.1,-0.143,2.0,0.122
33.11,-0.121,0.591,0.136
33.12,-0.078,0.991,0.031
33.13,-0.423,0.406,-0.2
33.14,-0.04,1.985,0.109
33.15,-0.161,0.852,0.148
33.16,0.014,0.554,-0.01
33.17,-0.517,0.84,-0.166
33.18,0.043,1.631,0.15
33.19,-0.26,1.138,0.084
33.2,0.106,0.403,-0.036
33.21,-0.557,0.919,-0.203
33.22,0.014,1.519,0.105
33.23,-0.111,1.089,0.056
33.24,0.029,0.793,-0.063
33.25,-0.424,0.39,-0.134
33.26,-0.108,1.833,0.202
33.27,-0.051,0.759,0.068
33.28,-0.131,1.043,-0.092
33.29,-0.51,0.234,-0.142
33.3,-0.111,1.696,0.218
33.31,-0.205,1.009,0.066
33.32,-0.064,0.669,-0.044
33.33,-0.447,0.743,-0.137
33.34,-0.09,1.162,0.269
33.35,-0.319,1.35,0.051
33.36,-0.03,0.488,-0.044
33.37,-0.49,0.896,-0.113
33.38,-0.076,1.087,0.216
33.39,-0.284,1.111,0.116
33.4,-0.167,0.854,-0.138
33.41,-0.425,0.479,-0.088
33.42,-0.18,1.332,0.2
33.43,-0.143,0.788,0.001
33.44,-0.271,1.007,-0.1
33.45,-0.408,0.376,-0.044
33.46,-0.128,1.306,0.17
33.47,-0.271,0.877,0.008
33.48,-0.256,0.714,-0.101
33.49,-0.3,0.958,-0.021
33.5,-0.046,0.898,0.109
33.51,-0.248,1.275,-0.013
33.52,-0.207,0.356,-0.141
33.53,-0.341,1.288,-0.011
33.54,-0.078,0.844,0.112
33.55,-0.253,1.196,-0.025
33.56,-0.302,0.491,-0.215
33.57,-0.126,1.222,-0.059
33.58,-0.093,1.184,0.074
33.59,-0.083,0.633,-0.001
33.6,-0.447,1.04,-0.175
33.61,-0.158,1.064,0.025
33.62,-0.243,1.152,0.11
33.63,-0.163,0.826,-0.003
33.64,-0.439,0.771,-0.217
33.65,-0.186,1.489,0.034
33.66,-0.273,0.867,0.144
33.67,-0.039,0.865,0.013
33.68,-0.493,0.531,-0.181
33.69,-0.146,1.956,0.112
33.7,-0.074,0.618,0.124
33.71,-0.122,1.037,0.017
33.72,-0.47,0.231,-0.165
33.73,-0.121,2.0,0.13
33.74,-0.131,0.738,0.072
33.75,-0.028,0.649,-0.012
33.76,-0.52,0.685,-0.217
33.77,0.017,1.66,0.161
33.78,-0.199,1.135,0.077
33.79,0.087,0.348,-0.045
33.8,-0.45,0.979,-0.203
33.81,-0.019,1.462,0.13
33.82,-0.228,1.136,0.061
33.83,-0.02,0.706,-0.012
33.84,-0.447,0.508,-0.139
33.85,-0.09,1.76,0.198
33.86,-0.11,0.827,0.1
33.87,-0.147,1.042,-0.029
33.88,-0.433,0.171,-0.123
33.89,-0.154,1.688,0.213
33.9,-0.15,0.887,0.052
33.91,-0.182,0.836,-0.06
33.92,-0.304,0.604,-0.217
33.93,-0.072,1.182,0.156
33.94,-0.183,1.261,-0.0
33.95,-0.036,0.531,-0.118
33.96,-0.465,0.972,-0.156
33.97,-0.026,1.023,0.228
33.98,-0.269,1.269,0.067
33.99,-0.192,0.651,-0.08
34.0,-0.452,0.577,-0.081
34.01,-0.166,1.279,0.195
34.02,-0.144,0.811,0.0
34.03,-0.278,1.002,-0.111
34.04,-0.306,0.382,-0.045
34.05,-0.2,1.38,0.218
34.06,-0.169,0.779,0.016
34.07,-0.323,0.796,-0.134
34.08,-0.264,0.907,-0.085
34.09,-0.075,0.987,0.089
34.1,-0.189,1.17,-0.026
34.11,-0.233,0.39,-0.182
34.12,-0.284,1.435,-0.112
34.13,0.001,0.829,0.135
34.14,-0.232,1.232,0.022
34.15,-0.314,0.415,-0.183
34.16,-0.232,1.397,-0.042
34.17,-0.1,1.087,0.098
34.18,-0.119,0.74,0.021
34.19,-0.376,0.917,-0.229
34.2,-0.151,1.135,-0.031
34.21,-0.159,1.218,0.118
34.22,-0.033,0.652,0.029
34.23,-0.444,0.905,-0.232
34.24,-0.153,1.492,0.032
34.25,-0.156,0.896,0.172
34.26,-0.131,1.003,0.009
34.27,-0.345,0.5,-0.206
34.28,-0.276,2.0,0.077
34.29,-0.111,0.642,0.187
34.3,-0.198,1.097,0.078
34.31,-0.402,0.4,-0.208
34.32,-0.269,1.879,0.104
34.33,-0.127,0.847,0.125
34.34,-0.059,0.669,0.072
34.35,-0.519,0.913,-0.175
34.36,-0.129,1.491,0.127
34.37,-0.218,1.114,0.114
34.38,0.034,0.488,0.067
34.39,-0.48,0.992,-0.178
34.4,-0.091,1.617,0.139
34.41,-0.23,0.894,0.141
34.42,-0.045,0.794,0.027
34.43,-0.466,0.484,-0.139
34.44,-0.13,2.0,0.143
34.45,-0.1,0.575,0.16
34.46,-0.159,0.976,0.011
34.47,-0.344,0.252,-0.215
34.48,-0.14,1.949,0.116
34.49,-0.088,0.706,0.126
34.5,-0.087,0.844,-0.043
34.51,-0.438,0.47,-0.206
34.52,-0.016,1.659,0.144
34.53,-0.146,1.18,0.102
34.54,-0.007,0.408,-0.087
34.55,-0.479,0.959,-0.215
34.56,-0.079,1.289,0.213
34.57,-0.219,1.274,0.103
34.58,-0.03,0.534,-0.023
34.59,-0.472,0.724,-0.196
34.6,-0.084,1.462,0.132
34.61,-0.138,0.913,0.043
34.62,-0.168,1.025,-0.089
34.63,-0.391,0.22,-0.14
34.64,-0.214,1.662,0.176
34.65,-0.122,0.756,0.068
34.66,-0.142,1.005,-0.092
34.67,-0.5,0.428,-0.179
34.68,-0.08,1.286,0.194
34.69,-0.246,1.073,-0.003
34.7,0.023,0.569,-0.113
34.71,-0.513,0.967,-0.13
34.72,-0.028,0.976,0.214
34.73,-0.308,1.251,0.046
34.74,-0.178,0.531,-0.115
34.75,-0.481,0.795,-0.075
34.76,-0.138,1.099,0.184
34.77,-0.219,0.927,0.036
34.78,-0.176,0.86,-0.152
34.79,-0.478,0.412,-0.096
34.8,-0.1,1.401,0.151
34.81,-0.17,0.723,0.017
34.82,-0.322,0.947,-0.153
34.83,-0.414,0.541,-0.07
34.84,-0.055,1.216,0.116
34.85,-0.29,1.056,0.021
34.86,-0.169,0.477,-0.157
34.87,-0.511,1.08,-0.089
34.88,0.033,0.897,0.155
34.89,-0.323,1.351,-0.009
34.9,-0.105,0.262,-0.137
34.91,-0.444,1.29,-0.061
34.92,0.049,0.977,0.116
34.93,-0.292,1.029,-0.007
34.94,-0.324,0.672,-0.15
34.95,-0.268,0.921,-0.029
34.96,-0.181,1.255,0.143
34.97,-0.128,0.714,-0.009
34.98,-0.446,0.925,-0.214
34.99,-0.116,1.075,-0.024
35.0,-0.171,1.066,0.093
35.01,-0.131,0.921,0.006
35.02,-0.365,0.632,-0.205
35.03,-0.241,1.698,0.037
35.04,-0.116,0.697,0.129
35.05,-0.155,1.152,0.049
35.06,-0.324,0.373,-0.206
35.07,-0.262,1.907,0.051
35.08,-0.153,0.709,0.13
35.09,-0.093,0.864,-0.004
35.1,-0.408,0.747,-0.221
35.11,-0.186,1.551,0.064
35.12,-0.253,0.944,0.134
35.13,0.041,0.565,0.01
35.14,-0.542,1.003,-0.202
35.15,-0.075,1.468,0.092
35.16,-0.258,1.087,0.127
35.17,-0.056,0.61,0.047
35.18,-0.47,0.674,-0.147
35.19,-0.135,1.884,0.165
35.2,-0.152,0.681,0.197
35.21,-0.081,0.948,0.003
35.22,-0.432,0.261,-0.197
35.23,-0.109,2.0,0.127
35.24,-0.127,0.649,0.109
35.25,-0.086,0.799,-0.008
35.26,-0.386,0.618,-0.238
35.27,-0.06,1.733,0.125
35.28,0.014,0.997,-0.015
35.29,-0.041,0.498,-0.06
35.3,-0.524,0.843,-0.182
35.31,-0.031,1.328,0.192
35.32,-0.237,1.277,0.087
35.33,0.052,0.575,-0.029
35.34,-0.508,0.876,-0.174
35.35,-0.029,1.377,0.161
35.36,-0.177,1.149,0.109
35.37,-0.138,1.702,0.107
35.38,-0.208,1.151,0.156
35.39,-0.067,0.635,0.013
35.4,-0.374,0.487,-0.183
35.41,-0.052,2.0,0.13
35.42,-0.084,0.597,0.125
35.43,-0.115,0.932,-0.051
35.44,-0.384,0.234,-0.215
35.45,-0.143,1.956,0.116
35.46,-0.117,0.776,0.082
35.47,-0.1,0.657,-0.023
35.48,-0.425,0.647,-0.227
35.49,-0.05,1.49,0.141
35.5,-0.213,1.233,0.099
35.51,0.047,0.429,-0.081
35.52,-0.437,0.956,-0.181
35.53,-0.027,1.241,0.186
35.54,-0.225,1.231,0.046
35.55,-0.068,0.697,-0.063
35.56,-0.433,0.541,-0.165
35.57,-0.083,1.635,0.191
35.58,-0.16,0.862,0.025
35.59,-0.146,1.123,-0.094
35.6,-0.311,0.155,-0.148
35.61,-0.155,1.605,0.175
35.62,-0.168,0.885,0.047
35.63,-0.146,0.915,-0.097
35.64,-0.477,0.582,-0.127
35.65,-0.034,1.14,0.226
35.66,-0.316,1.213,0.046
35.67,0.003,0.542,-0.123
35.68,-0.526,0.995,-0.137
35.69,0.038,0.937,0.169
35.7,-0.286,1.307,-0.043
35.71,-0.109,0.558,-0.082
35.72,-0.491,0.699,-0.08
35.73,-0.06,1.218,0.17
35.74,-0.232,0.846,-0.003
35.75,-0.243,0.942,-0.127
35.76,-0.374,0.393,-0.085
35.77,-0.158,1.33,0.144
35.78,-0.228,0.83,-0.004
35.79,-0.275,0.763,-0.135
35.8,-0.301,0.895,-0.041
35.81,-0.06,0.999,0.124
35.82,-0.267,1.169,-0.071
35.83,-0.17,0.37,-0.175
35.84,-0.276,1.561,-0.035
35.85,-0.011,0.757,0.11
35.86,-0.278,1.231,-0.025
35.87,-0.367,0.435,-0.185
35.88,-0.271,1.409,0.02
35.89,-0.135,0.969,0.116
35.9,-0.101,0.896,-0.007
35.91,-0.425,0.842,-0.25
35.92,-0.117,1.145,0.061
35.93,-0.23,1.206,0.135
35.94,-0.087,0.6,0.052
35.95,-0.459,0.874,-0.168
35.96,-0.177,1.568,0.063
35.97,-0.156,0.938,0.178
35.98,-0.064,0.873,0.023
35.99,-0.453,0.471,-0.205
36.0,-0.135,2.0,0.099
36.01,-0.128,0.514,0.092
36.02,-0.093,1.081,0.004
36.03,-0.364,0.321,-0.196
36.04,-0.161,2.0,0.132
36.05,-0.057,0.678,0.107
36.06,-0.078,0.795,-0.043
36.07,-0.389,0.505,-0.229
36.08,-0.075,1.649,0.112
36.09,-0.133,1.154,0.073
36.1,0.021,0.47,-0.061
36.11,-0.513,0.934,-0.167
36.12,-0.034,1.332,0.175
36.13,-0.213,1.307,0.083
36.14,-0.026,0.553,-0.044
36.15,-0.436,0.742,-0.174
36.16,-0.1,1.494,0.142
36.17,-0.111,0.889,0.006
36.18,-0.1,1.026,-0.075
36.19,-0.404,0.208,-0.153
36.2,-0.171,1.648,0.169
36.21,-0.13,0.803,0.04
36.22,-0.123,1.039,-0.103
36.23,-0.447,0.403,-0.144
36.24,-0.124,1.302,0.255
36.25,-0.211,1.166,-0.004
36.26,-0.051,0.562,-0.097
36.27,-0.409,0.949,-0.116
36.28,-0.064,0.933,0.205
36.29,-0.309,1.238,0.005
36.3,-0.14,0.509,-0.078
36.31,-0.443,0.836,-0.044
36.32,-0.154,1.107,0.196
36.33,-0.179,0.936,0.019
36.34,-0.272,0.805,-0.172
36.35,-0.361,0.448,-0.028
36.36,-0.172,1.4,0.116
36.37,-0.262,0.708,0.078
36.38,-0.256,0.867,-0.093
36.39,-0.316,0.749,-0.048
36.4,-0.062,1.196,0.123
36.41,-0.255,1.03,-0.017
36.42,-0.293,0.525,-0.179
36.43,-0.344,1.175,-0.017
36.44,-0.062,0.856,0.143
36.45,-0.318,1.327,-0.012
36.46,-0.192,0.27,-0.183
36.47,-0.296,1.457,-0.02
36.48,-0.029,0.941,0.126
36.49,-0.15,0.968,-0.031
36.5,-0.378,0.741,-0.24
36.51,-0.17,1.175,0.023
36.52,-0.136,1.221,0.131
36.53,-0.058,0.674,0.037
36.54,-0.553,0.985,-0.235
36.55,-0.108,1.265,0.081
36.56,-0.233,1.009,0.149
36.57,-0.048,0.853,0.03
36.58,-0.502,0.646,-0.201
36.59,-0.13,1.892,0.047
36.6,-0.102,0.705,0.141
36.61,-0.11,1.039,0.013
36.62,-0.421,0.342,-0.23
36.63,-0.205,2.0,0.069
36.64,-0.155,0.638,0.118
36.65,-0.033,0.88,0.029
36.66,-0.528,0.701,-0.237
36.67,-0.105,1.637,0.124
36.68,-0.194,1.127,0.151
36.69,0.084,0.427,-0.006
36.7,-0.543,1.021,-0.17
36.71,0.024,1.638,0.082
36.72,-0.198,1.06,0.159
36.73,0.063,0.613,0.04
36.74,-0.5,0.67,-0.182
36.75,-0.048,1.923,0.175
36.76,-0.108,0.768,0.099
36.77,-0.08,0.917,-0.011
36.78,-0.366,0.274,-0.163
36.79,-0.106,2.0,0.103
36.8,-0.085,0.687,0.122
36.81,-0.11,0.775,-0.027
36.82,-0.354,0.556,-0.194
36.83,-0.142,1.691,0.133
36.84,-0.096,1.007,0.103
36.85,-0.076,0.639,-0.044
36.86,-0.502,0.807,-0.155
36.87,0.027,1.286,0.174
36.88,-0.321,1.368,0.09
36.89,-0.034,0.514,-0.041
36.9,-0.506,0.842,-0.13
36.91,-0.03,1.279,0.203
36.92,-0.306,1.152,0.093
36.93,-0.036,0.922,-0.065
36.94,-0.482,0.352,-0.159
36.95,-0.114,1.546,0.207
36.96,-0.193,0.832,0.11
36.97,-0.218,1.065,-0.11
36.98,-0.411,0.33,-0.109
36.99,-0.185,1.365,0.22
37.0,-0.209,0.928,-0.009
37.01,-0.154,0.724,-0.073
37.02,-0.454,0.819,-0.135
37.03,-0.034,0.984,0.198
37.04,-0.308,1.28,-0.023
37.05,-0.081,0.443,-0.106
37.06,-0.478,0.971,-0.084
37.07,-0.033,0.983,0.163
37.08,-0.229,1.148,-0.02
37.09,-0.188,0.714,-0.13
37.1,-0.351,0.699,-0.036
37.11,-0.109,1.309,0.125
37.12,-0.235,0.728,0.025
37.13,-0.295,0.913,-0.106
37.14,-0.292,0.753,-0.037
37.15,-0.121,1.251,0.132
37.16,-0.23,0.893,0.058
37.17,-0.387,0.673,-0.197
37.18,-0.287,1.143,0.02
37.19,-0.111,0.866,0.088
37.2,-0.258,1.276,0.023
37.21,-0.266,0.261,-0.188
37.22,-0.295,1.647,0.031
37.23,-0.051,0.77,0.153
37.24,-0.294,1.119,0.073
37.25,-0.295,0.53,-0.226
37.26,-0.23,1.432,0.019
37.27,-0.236,1.06,0.151
37.28,-0.016,0.708,0.015
37.29,-0.587,0.901,-0.222
37.3,-0.08,1.103,0.094
37.31,-0.326,1.036,0.15
37.32,0.004,0.754,0.025
37.33,-0.438,0.841,-0.208
37.34,-0.089,1.687,-0.021
37.35,-0.181,0.82,0.135
37.36,-0.096,0.93,-0.011
37.37,-0.419,0.28,-0.176
37.38,-0.175,2.0,0.076
37.39,-0.041,0.592,0.038
37.4,-0.089,0.93,-0.017
37.41,-0.456,0.436,-0.175
37.42,-0.112,1.893,0.133
37.43,-0.202,0.931,0.124
37.44,-0.006,0.453,-0.014
37.45,-0.523,0.97,-0.188
37.46,-0.058,1.571,0.119
37.47,-0.149,1.195,0.124
37.48,0.035,0.425,-0.002
37.49,-0.551,0.816,-0.184
37.5,-0.032,1.682,0.118
37.51,-0.072,0.91,0.049
37.52,-0.03,0.83,-0.067
37.53,-0.372,0.319,-0.195
37.54,-0.156,1.946,0.188
37.55,-0.074,0.707,0.135
37.56,-0.179,0.9,-0.028
37.57,-0.381,0.331,-0.173
37.58,-0.16,1.66,0.113
37.59,-0.132,1.024,0.063
37.6,-0.025,0.597,-0.046
37.61,-0.531,0.827,-0.133
37.62,-0.005,1.266,0.188
37.63,-0.294,1.253,0.062
37.64,-0.054,0.507,-0.09
37.65,-0.479,0.989,-0.119
37.66,-0.004,1.012,0.24
37.67,-0.358,1.211,0.056
37.68,-0.027,0.687,-0.138
37.69,-0.518,0.671,-0.135
37.7,-0.008,1.223,0.14
37.71,-0.264,0.818,-0.015
37.72,-0.228,0.891,-0.102
37.73,-0.463,0.375,-0.062
37.74,-0.145,1.415,0.202
37.75,-0.257,0.792,0.033
37.76,-0.261,0.807,-0.102
37.77,-0.405,0.776,-0.018
37.78,-0.092,1.033,0.149
37.79,-0.33,1.2,0.01
37.8,-0.133,0.391,-0.088
37.81,-0.376,1.431,-0.023
37.82,-0.04,0.792,0.171
37.83,-0.268,1.232,-0.009
37.84,-0.372,0.396,-0.169
37.85,-0.236,1.242,-0.03
37.86,-0.198,1.057,0.101
37.87,-0.119,0.871,-0.006
37.88,-0.438,0.847,-0.2
37.89,-0.131,1.073,0.035
37.9,-0.201,1.21,0.164
37.91,-0.068,0.7,0.032
37.92,-0.506,0.887,-0.207
37.93,-0.123,1.403,0.077
37.94,-0.211,0.905,0.138
37.95,-0.131,0.985,-0.001
37.96,-0.424,0.469,-0.219
37.97,-0.256,1.939,0.126
37.98,-0.178,0.59,0.162
37.99,-0.198,1.108,0.049
38.0,-0.417,0.383,-0.182
38.01,-0.229,1.921,0.1
38.02,-0.018,0.853,0.06
38.03,-0.071,0.64,-0.016
38.04,-0.459,0.87,-0.187
38.05,-0.11,1.555,0.094
38.06,-0.192,1.11,0.173
38.07,0.041,0.466,0.008
38.08,-0.557,0.96,-0.186
38.09,-0.005,1.66,0.102
38.1,-0.187,1.05,0.146
38.11,0.02,0.675,-0.057
38.12,-0.368,0.471,-0.191
38.13,-0.134,2.0,0.072
38.14,-0.003,0.609,0.089
38.15,-0.101,0.974,-0.084
38.16,-0.289,0.28,-0.206
38.17,-0.14,1.871,0.09
38.18,-0.1,0.906,0.066
38.19,-0.098,0.649,-0.069
38.2,-0.343,0.72,-0.232
38.21,-0.07,1.367,0.153
38.22,-0.223,1.263,0.033
38.23,0.031,0.521,-0.051
38.24,-0.488,0.9,-0.141
38.25,-0.011,1.244,0.191
38.26,-0.25,1.196,0.039
38.27,-0.063,0.768,-0.072
38.28,-0.401,0.513,-0.128
38.29,-0.187,1.474,0.162
38.3,-0.19,0.809,0.019
38.31,-0.157,1.128,-0.104
38.32,-0.409,0.227,-0.083
38.33,-0.126,1.385,0.185
38.34,-0.22,0.859,-0.007
38.35,-0.155,0.818,-0.124
38.36,-0.438,0.754,-0.139
38.37,-0.015,1.062,0.183
38.38,-0.308,1.266,-0.058
38.39,-0.123,0.316,-0.13
38.4,-0.405,1.206,-0.046
38.41,-0.017,0.882,0.154
38.42,-0.38,1.149,0.013
38.43,-0.226,0.529,-0.142
38.44,-0.276,1.569,0.004
38.45,-0.054,0.924,0.087
38.46,-0.208,0.904,-0.005
38.47,-0.388,0.774,-0.208
38.48,-0.197,1.18,0.017
38.49,-0.203,1.149,0.155
38.5,-0.126,0.698,0.092
38.51,-0.5,0.946,-0.176
38.52,-0.197,1.327,0.071
38.53,-0.227,0.954,0.172
38.54,-0.083,0.891,-0.025
38.55,-0.522,0.591,-0.171
38.56,-0.162,2.0,0.102
38.57,-0.19,0.602,0.15
38.58,-0.125,1.071,0.043
38.59,-0.385,0.295,-0.177
38.6,-0.181,2.0,0.104
38.61,-0.116,0.705,0.123
38.62,-0.124,0.71,0.018
38.63,-0.506,0.704,-0.161
38.64,-0.068,1.711,0.173
38.65,-0.187,1.075,0.076
38.66,0.145,0.407,-0.032
38.67,-0.535,0.948,-0.201
38.68,0.055,1.548,0.172
38.69,-0.248,1.194,0.109
38.7,0.036,0.574,-0.047
38.71,-0.378,0.571,-0.206
38.72,-0.105,1.734,0.173
38.73,0.01,0.83,-0.0
38.74,-0.156,0.987,-0.076
38.75,-0.3,0.201,-0.147
38.76,-0.221,1.796,0.212
38.77,-0.091,0.803,0.082
38.78,-0.16,0.914,-0.074
38.79,-0.352,0.562,-0.194
38.8,-0.139,1.248,0.236
38.81,-0.28,1.253,0.042
38.82,-0.067,0.484,-0.062
38.83,-0.446,0.992,-0.129
38.84,-0.097,0.991,0.215
38.85,-0.275,1.184,-0.005
38.86,-0.179,0.625,-0.12
38.87,-0.409,0.672,-0.083
38.88,-0.102,1.203,0.149
38.89,-0.169,0.852,0.031
38.9,-0.284,0.945,-0.111
38.91,-0.362,0.454,-0.046
38.92,-0.134,1.405,0.171
38.93,-0.262,0.79,0.037
38.94,-0.319,0.823,-0.131
38.95,-0.292,0.924,-0.048
38.96,-0.072,1.022,0.099
38.97,-0.3,1.194,-0.031
38.98,-0.24,0.382,-0.216
38.99,-0.243,1.566,-0.072
39.0,0.006,0.755,0.09
39.01,-0.27,1.261,0.003
39.02,-0.314,0.396,-0.212
39.03,-0.178,1.6,-0.016
39.04,-0.12,0.963,0.105
39.05,-0.049,0.768,0.002
39.06,-0.558,0.636,-0.177
39.07,-0.114,1.698,0.084
39.08,-0.237,0.957,0.096
39.09,0.109,0.559,-0.017
39.1,-0.581,0.992,-0.197
39.11,0.038,1.6,0.106
39.12,-0.183,1.154,0.087
39.13,0.075,0.52,-0.027
39.14,-0.376,0.655,-0.205
39.15,-0.084,1.861,0.159
39.16,-0.081,0.707,0.097
39.17,-0.143,0.958,-0.057
39.18,-0.339,0.241,-0.194
39.19,-0.124,2.0,0.17
39.2,-0.104,0.781,0.083
39.21,-0.153,0.681,-0.056
39.22,-0.385,0.503,-0.163
39.23,-0.112,1.558,0.179
39.24,-0.171,0.957,0.03
39.25,-0.075,0.79,-0.127
39.26,-0.395,0.746,-0.153
39.27,-0.062,1.114,0.209
39.28,-0.309,1.339,0.073
39.29,-0.077,0.487,-0.072
39.3,-0.529,0.916,-0.066
39.31,-0.076,1.035,0.208
39.32,-0.369,1.141,0.03
39.33,-0.181,0.797,-0.084
39.34,-0.367,0.494,-0.044
39.35,-0.148,1.339,0.162
39.36,-0.116,0.735,0.027
39.37,-0.424,1.016,-0.141
39.38,-0.294,0.48,-0.009
39.39,-0.207,1.282,0.142
39.4,-0.187,0.944,0.004
39.41,-0.285,0.626,-0.131
39.42,-0.311,1.278,-0.071
39.43,-0.062,0.871,0.156
39.44,-0.275,1.24,-0.008
39.45,-0.215,0.261,-0.163
39.46,-0.269,1.588,-0.043
39.47,-0.041,0.809,0.102
39.48,-0.2,1.087,0.022
39.49,-0.344,0.684,-0.229
39.5,-0.261,1.246,0.031
39.51,-0.158,1.082,0.098
39.52,-0.024,0.725,0.001
39.53,-0.431,0.984,-0.202
39.54,-0.123,1.273,0.05
39.55,-0.183,1.101,0.118
39.56,-0.08,0.701,0.068
39.57,-0.431,0.779,-0.194
39.58,-0.209,1.816,0.08
39.59,-0.134,0.701,0.167
39.6,-0.203,0.995,0.051
39.61,-0.41,0.343,-0.194
39.62,-0.208,2.0,0.088
39.63,-0.138,0.543,0.101
39.64,-0.09,0.96,0.008
39.65,-0.401,0.529,-0.264
39.66,-0.132,1.725,0.114
39.67,-0.057,1.024,0.087
39.68,0.065,0.439,-0.013
39.69,-0.421,0.994,-0.238
39.7,-0.015,1.469,0.127
39.71,-0.138,1.206,0.051
39.72,0.023,0.451,-0.006
39.73,-0.414,0.847,-0.227
39.74,0.002,1.69,0.136
39.75,-0.044,0.844,0.057
39.76,-0.067,0.843,-0.108
39.77,-0.364,0.264,-0.226
39.78,-0.132,1.953,0.155
39.79,-0.122,0.751,0.153
39.8,-0.147,0.844,-0.077
39.81,-0.473,0.392,-0.164
39.82,-0.088,1.625,0.194
39.83,-0.228,1.071,0.114
39.84,0.003,0.534,-0.061
39.85,-0.47,0.917,-0.165
39.86,0.002,1.153,0.182
39.87,-0.339,1.304,0.14
39.88,0.001,0.567,-0.057
39.89,-0.491,0.77,-0.186
39.9,0.022,1.321,0.152
39.91,-0.225,1.065,0.034
39.92,-0.081,0.932,-0.127
39.93,-0.442,0.28,-0.14
39.94,-0.119,1.527,0.135
39.95,-0.083,0.842,-0.003
39.96,-0.262,0.939,-0.128
39.97,-0.403,0.382,-0.127
39.98,-0.171,1.295,0.186
39.99,-0.305,0.991,0.054
40.0,-0.115,0.611,-0.18
40.01,-0.478,0.886,-0.123
40.02,-0.064,0.973,0.184
40.03,-0.292,1.377,0.03
40.04,-0.165,0.267,-0.125
40.05,-0.294,1.436,-0.055
40.06,-0.005,0.884,0.156
40.07,-0.229,1.173,0.017
40.08,-0.324,0.524,-0.173
40.09,-0.274,1.096,-0.043
40.1,-0.204,1.053,0.117
40.11,-0.166,0.817,0.016
40.12,-0.423,0.865,-0.17
40.13,-0.148,0.95,-0.025
40.14,-0.208,1.261,0.143
40.15,-0.098,0.772,0.048
40.16,-0.416,0.837,-0.213
40.17,-0.158,1.411,0.025
40.18,-0.134,0.873,0.152
40.19,-0.177,1.05,0.029
40.2,-0.379,0.411,-0.209
40.21,-0.244,1.921,0.027
40.22,-0.116,0.597,0.114
40.23,-0.132,1.141,0.023
40.24,-0.394,0.407,-0.23
40.25,-0.171,1.796,0.016
40.26,-0.129,0.962,0.153
40.27,0.011,0.579,0.03
40.28,-0.497,0.911,-0.213
40.29,-0.083,1.508,0.087
40.3,-0.27,1.031,0.101
40.31,0.053,0.557,0.068
40.32,-0.531,0.933,-0.179
40.33,-0.064,1.671,0.103
40.34,-0.251,0.863,0.148
40.35,0.042,0.779,0.023
40.36,-0.375,0.428,-0.2
40.37,-0.092,1.973,0.074
40.38,-0.006,0.658,0.112
40.39,-0.113,0.896,-0.017
40.4,-0.385,0.34,-0.185
40.41,-0.083,2.0,0.128
40.42,-0.025,0.771,-0.033
40.43,-0.043,0.539,-0.045
40.44,-0.421,0.864,-0.223
40.45,-0.029,1.57,0.11
40.46,-0.244,1.217,0.081
40.47,0.075,0.377,0.014
40.48,-0.506,0.9,-0.172
40.49,-0.042,1.42,0.198
40.5,-0.216,1.091,0.09
40.51,-0.001,0.657,-0.058
40.52,-0.445,0.616,-0.148
40.53,-0.067,1.506,0.202
40.54,-0.069,0.92,0.004
40.55,-0.148,1.026,-0.152
40.56,-0.363,0.23,-0.115
40.57,-0.176,1.555,0.213
40.58,-0.176,0.87,0.059
40.59,-0.153,0.988,-0.1
40.6,-0.485,0.469,-0.158
40.61,-0.087,1.2,0.219
40.62,-0.281,1.113,0.018
40.63,-0.134,0.496,-0.095
40.64,-0.513,0.978,-0.113
40.65,-0.106,0.941,0.242
40.66,-0.341,1.327,0.004
40.67,-0.142,0.437,-0.113
40.68,-0.516,0.828,-0.106
40.69,-0.059,1.176,0.2
40.7,-0.16,0.952,0.001
40.71,-0.364,0.843,-0.159
40.72,-0.336,0.501,-0.006
40.73,-0.192,1.37,0.16
40.74,-0.198,0.707,0.09
40.75,-0.323,0.899,-0.085
40.76,-0.316,0.841,-0.082
40.77,-0.057,1.111,0.108
40.78,-0.248,1.136,0.029
40.79,-0.283,0.438,-0.154
40.8,-0.367,1.371,-0.028
40.81,-0.039,0.774,0.128
40.82,-0.28,1.31,0.021
40.83,-0.215,0.384,-0.178
40.84,-0.273,1.5,-0.097
40.85,-0.098,0.701,0.143
40.86,-0.174,1.052,0.048
40.87,-0.449,0.563,-0.184
40.88,-0.248,1.661,0.096
40.89,-0.215,1.048,0.148
40.9,-0.019,0.571,0.061
40.91,-0.573,1.013,-0.112
40.92,-0.206,1.335,0.164
40.93,-0.351,0.998,0.204
40.94,-0.027,0.696,0.084
40.95,-0.482,0.791,-0.186
40.96,-0.16,1.756,0.088
40.97,-0.111,0.817,0.128
40.98,-0.108,0.903,0.053
40.99,-0.382,0.311,-0.161
41.0,-0.19,2.0,0.137
41.01,-0.128,0.528,0.103
41.02,-0.067,0.965,0.001
41.03,-0.404,0.451,-0.227
41.04,-0.014,1.872,0.11
41.05,-0.178,0.903,0.06
41.06,0.025,0.427,-0.035
41.07,-0.462,0.96,-0.204
41.08,-0.037,1.436,0.117
41.09,-0.146,1.213,0.07
41.1,0.063,0.41,-0.03
41.11,-0.425,0.86,-0.216
41.12,-0.013,1.681,0.112
41.13,-0.15,0.882,0.112
41.14,-0.098,0.834,-0.056
41.15,-0.327,0.365,-0.172
41.16,-0.088,1.998,0.153
41.17,-0.046,0.691,0.125
41.18,-0.104,0.808,-0.073
41.19,-0.444,0.317,-0.178
41.2,-0.106,1.568,0.176
41.21,-0.253,1.037,0.108
41.22,0.0,0.58,-0.108
41.23,-0.517,0.834,-0.138
41.24,0.029,1.311,0.217
41.25,-0.314,1.342,0.1
41.26,0.028,0.548,-0.078
41.27,-0.555,0.831,-0.13
41.28,0.007,1.438,0.206
41.29,-0.268,1.051,0.101
41.3,-0.077,0.865,-0.059
41.31,-0.531,0.354,-0.127
41.32,-0.146,1.604,0.263
41.33,-0.163,0.836,0.085
41.34,-0.162,1.058,-0.069
41.35,-0.384,0.265,-0.191
41.36,-0.137,1.499,0.178
41.37,-0.175,1.042,0.038
41.38,-0.085,0.649,-0.147
41.39,-0.442,0.805,-0.21
41.4,0.041,1.042,0.173
41.41,-0.239,1.337,0.044
41.42,0.032,0.455,-0.113
41.43,-0.587,0.913,-0.125
41.44,-0.002,1.053,0.204
41.45,-0.255,1.094,0.022
41.46,-0.261,0.702,-0.121
41.47,-0.459,0.462,-0.106
41.48,-0.175,1.396,0.181
41.49,-0.201,0.74,0.027
41.5,-0.263,1.033,-0.091
41.51,-0.486,0.354,-0.084
41.52,-0.134,1.344,0.198
41.53,-0.201,0.951,0.013
41.54,-0.216,0.609,-0.153
41.55,-0.36,0.964,-0.092
41.56,-0.036,0.991,0.141
41.57,-0.285,1.292,0.03
41.58,-0.229,0.35,-0.085
41.59,-0.453,1.118,-0.026
41.6,-0.046,0.914,0.131
41.61,-0.244,1.203,0.035
41.62,-0.283,0.54,-0.152
41.63,-0.345,0.762,-0.018
41.64,-0.124,1.273,0.123
41.65,-0.158,0.893,0.03
41.66,-0.332,0.839,-0.215
41.67,-0.207,1.107,-0.02
41.68,-0.192,1.259,0.114
41.69,-0.096,0.622,0.051
41.7,-0.452,0.925,-0.233
41.71,-0.234,1.348,0.033
41.72,-0.186,0.883,0.091
41.73,-0.123,1.014,0.033
41.74,-0.386,0.532,-0.217
41.75,-0.303,1.909,0.064
41.76,-0.143,0.621,0.133
41.77,-0.157,1.126,0.052
41.78,-0.342,0.354,-0.272
41.79,-0.228,1.914,0.036
41.8,-0.138,0.733,0.087
41.81,0.021,0.768,0.033
41.82,-0.454,0.832,-0.227
41.83,-0.151,1.444,0.106
41.84,-0.262,1.091,0.156
41.85,-0.001,0.499,0.081
41.86,-0.491,0.995,-0.125
41.87,-0.171,1.601,0.1
41.88,-0.182,0.883,0.12
41.89,-0.018,0.749,0.005
41.9,-0.459,0.598,-0.115
41.91,-0.174,2.0,0.164
41.92,-0.098,0.634,0.138
41.93,-0.138,0.934,-0.016
41.94,-0.366,0.318,-0.15
41.95,-0.089,2.0,0.14
41.96,-0.215,0.727,0.128
41.97,-0.073,0.623,-0.046
41.98,-0.471,0.742,-0.195
41.99,0.013,1.692,0.197
42.0,-0.252,1.124,0.086
42.01,0.077,0.332,0.034
42.02,-0.51,0.959,-0.183
42.03,-0.06,1.43,0.139
42.04,-0.152,1.157,0.043
42.05,-0.048,0.659,-0.05
42.06,-0.449,0.523,-0.135
42.07,-0.04,1.903,0.177
42.08,-0.034,0.816,-0.017
42.09,-0.083,0.969,-0.068
42.1,-0.488,0.184,-0.165
42.11,-0.172,1.771,0.229
42.12,-0.185,0.929,0.092
42.13,-0.119,0.783,-0.062
42.14,-0.488,0.594,-0.219
42.15,-0.052,1.229,0.191
42.16,-0.279,1.255,0.064
42.17,-0.004,0.552,-0.116
42.18,-0.551,0.904,-0.11
42.19,-0.019,1.053,0.284
42.2,-0.288,1.341,0.042
42.21,-0.118,0.692,-0.058
42.22,-0.416,0.564,-0.086
42.23,-0.123,1.265,0.219
42.24,-0.208,0.854,-0.013
42.25,-0.235,1.035,-0.103
42.26,-0.389,0.344,-0.13
42.27,-0.125,1.356,0.179
42.28,-0.255,0.802,0.034
42.29,-0.351,0.773,-0.149
42.3,-0.31,0.863,-0.067
42.31,-0.113,1.011,0.093
42.32,-0.284,1.189,-0.065
42.33,-0.204,0.365,-0.182
42.34,-0.312,1.395,-0.074
42.35,-0.04,0.821,0.136
42.36,-0.215,1.247,-0.031
42.37,-0.388,0.431,-0.181
42.38,-0.252,1.326,0.023
42.39,-0.136,1.024,0.122
42.4,-0.105,0.764,0.033
42.41,-0.502,0.887,-0.181
42.42,-0.115,1.125,0.01
42.43,-0.251,1.176,0.165
42.44,-0.077,0.729,0.059
42.45,-0.498,0.932,-0.215
42.46,-0.095,1.48,0.067
42.47,-0.201,0.959,0.104
42.48,0.004,0.708,0.006
42.49,-0.562,0.626,-0.178
42.5,-0.076,1.946,0.09
42.51,-0.154,0.651,0.106
42.52,-0.049,0.978,0.022
42.53,-0.345,0.283,-0.267
42.54,-0.079,2.0,0.101
42.55,-0.119,0.75,0.135
42.56,-0.13,0.7,-0.017
42.57,-0.393,0.627,-0.244
42.58,-0.067,1.757,0.149
42.59,-0.237,1.047,0.104
42.6,0.083,0.389,-0.047
42.61,-0.508,0.99,-0.189
42.62,0.075,1.561,0.127
42.63,-0.225,1.219,0.063
42.64,0.023,0.542,-0.057
42.65,-0.402,0.641,-0.169
42.66,-0.011,1.811,0.121
42.67,-0.133,0.811,0.1
42.68,-0.127,1.0,-0.082
42.69,-0.37,0.188,-0.118
42.7,-0.173,1.758,0.205
42.71,-0.133,0.839,0.108
42.72,-0.197,0.855,-0.099
42.73,-0.369,0.505,-0.176
42.74,-0.128,1.336,0.228
42.75,-0.298,1.226,0.047
42.76,-0.039,0.552,-0.117
42.77,-0.561,0.947,-0.129
42.78,-0.02,1.034,0.264
42.79,-0.355,1.258,0.141
42.8,-0.075,0.618,-0.107
42.81,-0.451,0.725,-0.104
42.82,-0.105,1.218,0.153
42.83,-0.198,0.876,0.016
42.84,-0.312,0.982,-0.088
42.85,-0.395,0.324,-0.079
42.86,-0.242,1.384,0.156
42.87,-0.184,0.744,-0.009
42.88,-0.327,0.894,-0.114
42.89,-0.353,0.72,-0.067
42.9,-0.074,1.076,0.122
42.91,-0.241,1.164,0.023
42.92,-0.193,0.373,-0.181
42.93,-0.39,1.248,-0.103
42.94,0.032,0.84,0.091
42.95,-0.348,1.239,-0.034
42.96,-0.203,0.346,-0.175
42.97,-0.253,1.439,-0.105
42.98,0.021,0.974,0.09
42.99,-0.112,0.83,-0.013
43.0,-0.457,0.864,-0.227
43.01,-0.109,0.982,-0.052
43.02,-0.241,1.272,0.155
43.03,-0.073,0.708,0.07
43.04,-0.486,0.951,-0.21
43.05,-0.108,1.249,-0.053
43.06,-0.152,0.962,0.184
43.07,-0.136,1.016,-0.007
43.08,-0.344,0.506,-0.203
43.09,-0.21,1.933,0.031
43.1,-0.078,0.621,0.126
43.11,-0.09,1.164,0.057
43.12,-0.345,0.441,-0.308
43.13,-0.242,1.768,0.023
43.14,-0.151,0.796,0.072
43.15,-0.071,0.774,0.053
43.16,-0.441,0.787,-0.191
43.17,-0.192,1.432,0.065
43.18,-0.213,1.167,0.164
43.19,0.032,0.435,0.051
43.2,-0.591,1.001,-0.192
43.21,-0.102,1.665,0.103
43.22,-0.246,0.878,0.094
43.23,0.017,0.805,0.039
43.24,-0.43,0.585,-0.194
43.25,-0.147,1.993,0.113
43.26,-0.133,0.779,0.085
43.27,0.001,0.871,-0.031
43.28,-0.375,0.355,-0.213
43.29,-0.148,2.0,0.127
43.3,-0.146,0.581,0.129
43.31,-0.078,0.896,0.003
43.32,-0.461,0.422,-0.18
43.33,-0.084,1.817,0.145
43.34,-0.137,1.126,0.106
43.35,-0.057,0.371,-0.025
43.36,-0.498,0.959,-0.204
43.37,-0.038,1.485,0.195
43.38,-0.292,1.213,0.21
43.39,0.015,0.481,0.018
43.4,-0.576,0.811,-0.143
43.41,-0.05,1.575,0.172
43.42,-0.177,0.993,0.074
43.43,-0.091,0.864,-0.11
43.44,-0.393,0.31,-0.157
43.45,-0.189,1.762,0.166
43.46,-0.111,0.765,0.109
43.47,-0.183,0.987,-0.09
43.48,-0.377,0.317,-0.177
43.49,-0.117,1.499,0.195
43.5,-0.243,1.127,0.061
43.51,0.028,0.637,-0.069
43.52,-0.53,0.86,-0.166
43.53,-0.003,1.136,0.244
43.54,-0.296,1.329,0.077
43.55,-0.041,0.526,-0.068
43.56,-0.468,0.794,-0.172
43.57,-0.033,1.283,0.158
43.58,-0.162,1.007,0.039
43.59,-0.148,0.94,-0.105
43.6,-0.471,0.308,-0.156
43.61,-0.172,1.5,0.217
43.62,-0.173,0.808,0.018
43.63,-0.203,0.99,-0.104
43.64,-0.395,0.363,-0.149
43.65,-0.15,1.261,0.184
43.66,-0.18,0.982,-0.051
43.67,-0.185,0.613,-0.12
43.68,-0.424,0.889,-0.138
43.69,-0.07,0.985,0.212
43.7,-0.243,1.349,0.006
43.71,-0.084,0.785,-0.003
43.72,-0.416,0.641,-0.196
43.73,-0.196,1.915,0.045
43.74,-0.123,0.608,0.07
43.75,-0.076,1.121,0.053
43.76,-0.331,0.336,-0.249
43.77,-0.241,1.954,0.065
43.78,-0.192,0.661,0.093
43.79,-0.052,0.863,0.038
43.8,-0.44,0.666,-0.182
43.81,-0.1,1.642,0.142
43.82,-0.178,1.042,0.096
43.83,0.093,0.474,0.018
43.84,-0.467,0.999,-0.23
43.85,-0.008,1.612,0.143
43.86,-0.236,1.055,0.14
43.87,0.026,0.607,0.032
43.88,-0.502,0.699,-0.17
43.89,0.024,1.951,0.138
43.9,-0.157,0.647,0.08
43.91,-0.005,0.753,-0.069
43.92,-0.396,0.387,-0.175
43.93,-0.113,1.915,0.148
43.94,-0.123,0.705,0.102
43.95,-0.16,0.952,-0.061
43.96,-0.422,0.276,-0.139
43.97,-0.159,1.716,0.168
43.98,-0.238,0.996,0.083
43.99,0.037,0.6,-0.091
44.0,-0.407,0.769,-0.161
44.01,-0.002,1.213,0.172
44.02,-0.328,1.291,0.021
44.03,-0.003,0.524,-0.037
44.04,-0.527,0.838,-0.142
44.05,-0.001,1.265,0.204
44.06,-0.287,1.16,0.004
44.07,-0.085,0.831,-0.126
44.08,-0.417,0.344,-0.151
44.09,-0.049,1.508,0.125
44.1,-0.113,0.806,-0.039
44.11,-0.219,1.032,-0.187
44.12,-0.41,0.311,-0.149
44.13,-0.104,1.4,0.195
44.14,-0.228,0.944,-0.029
44.15,-0.289,0.641,-0.123
44.16,-0.423,0.859,-0.1
44.17,-0.027,0.959,0.125
44.18,-0.328,1.282,-0.031
44.19,-0.099,0.404,-0.189
44.2,-0.441,1.16,-0.069
44.21,0.041,1.009,0.157
44.22,-0.201,1.067,0.007
44.23,-0.272,0.726,-0.22
44.24,-0.382,0.655,-0.06
44.25,-0.186,1.254,0.157
44.26,-0.189,0.76,0.036
44.27,-0.359,0.865,-0.178
44.28,-0.231,0.85,-0.08
44.29,-0.132,1.221,0.131
44.3,-0.24,0.943,-0.006
44.31,-0.335,0.635,-0.133
44.32,-0.322,1.479,-0.054
44.33,-0.037,0.839,0.152
44.34,-0.247,1.281,0.055
44.35,-0.333,0.327,-0.225
44.36,-0.259,1.694,0.0
44.37,-0.108,0.721,0.114
44.38,-0.2,1.119,0.012
44.39,-0.303,0.528,-0.188
44.4,-0.2,1.499,-0.0
44.41,-0.155,1.093,0.131
44.42,0.004,0.601,0.043
44.43,-0.504,1.039,-0.187
44.44,-0.152,1.373,0.095
44.45,-0.236,1.094,0.167
44.46,-0.048,0.657,0.081
44.47,-0.516,0.785,-0.121
44.48,-0.225,1.783,0.166
44.49,-0.208,0.694,0.134
44.5,-0.031,1.018,0.065
44.51,-0.402,0.356,-0.202
44.52,-0.164,2.0,0.073
44.53,-0.038,0.697,0.154
44.54,-0.076,0.869,0.003
44.55,-0.382,0.488,-0.216
44.56,-0.023,1.872,0.131
44.57,-0.181,0.967,0.086
44.58,0.064,0.418,-0.061
44.59,-0.443,1.03,-0.203
44.6,0.032,1.542,0.148
44.61,-0.27,1.129,0.106
44.62,0.093,0.448,0.007
44.63,-0.481,0.826,-0.217
44.64,-0.037,1.726,0.145
44.65,-0.064,0.781,0.079
44.66,-0.06,0.837,-0.094
44.67,-0.319,0.311,-0.205
44.68,-0.18,1.888,0.134
44.69,-0.107,0.702,0.106
44.7,-0.138,0.9,-0.049
44.71,-0.379,0.371,-0.179
44.72,-0.21,1.696,0.204
44.73,-0.171,0.894,0.117
44.74,-0.091,0.791,-0.065
44.75,-0.426,0.669,-0.184
44.76,-0.092,1.18,0.211
44.77,-0.321,1.248,0.112
44.78,-0.027,0.534,-0.104
44.79,-0.501,0.92,-0.119
44.8,-0.076,1.091,0.243
44.81,-0.228,1.203,0.053
44.82,-0.192,0.718,-0.127
44.83,-0.368,0.512,-0.121
44.84,-0.21,1.333,0.225
44.85,-0.188,0.832,0.064
44.86,-0.269,0.98,-0.131
44.87,-0.43,0.3,-0.047
44.88,-0.164,1.364,0.206
44.89,-0.208,0.848,0.023
44.9,-0.197,0.776,-0.127
44.91,-0.479,0.78,-0.084
44.92,0.013,1.025,0.183
44.93,-0.372,1.245,-0.005
44.94,-0.086,0.369,-0.157
44.95,-0.444,1.26,-0.054
44.96,0.016,0.919,0.163
44.97,-0.313,1.177,0.035
44.98,-0.285,0.55,-0.21
44.99,-0.322,0.875,-0.006
45.0,-0.134,1.14,0.091
45.01,-0.146,0.804,0.019
45.02,-0.342,0.873,-0.183
45.03,-0.21,0.821,-0.064
45.04,-0.1,1.273,0.123
45.05,-0.207,0.831,0.019
45.06,-0.388,0.75,-0.166
45.07,-0.218,1.369,-0.042
45.08,-0.005,0.915,0.09
45.09,-0.239,1.159,0.036
45.1,-0.295,0.351,-0.215
45.11,-0.285,1.76,0.054
45.12,-0.118,0.717,0.134
45.13,-0.276,1.177,0.074
45.14,-0.314,0.509,-0.242
45.15,-0.32,1.562,0.04
45.16,-0.074,0.981,0.12
45.17,-0.096,0.705,0.029
45.18,-0.424,1.005,-0.181
45.19,-0.226,1.315,0.053
45.2,-0.145,1.245,0.191
45.21,-0.051,0.529,0.059
45.22,-0.535,0.902,-0.163
45.23,-0.179,1.647,0.068
45.24,-0.186,0.79,0.126
45.25,-0.093,0.974,0.008
45.26,-0.398,0.452,-0.195
45.27,-0.232,2.0,0.079
45.28,-0.067,0.558,0.134
45.29,-0.109,1.046,0.04
45.3,-0.431,0.451,-0.169
45.31,-0.165,1.896,0.146
45.32,-0.229,0.822,0.147
45.33,0.036,0.611,0.009
45.34,-0.481,0.939,-0.214
45.35,-0.004,1.56,0.091
45.36,-0.195,1.163,0.133
45.37,0.076,0.437,0.012
45.38,-0.5,0.924,-0.19
45.39,-0.062,1.706,0.125
45.4,-0.126,0.92,0.106
45.41,-0.04,0.795,-0.028
45.42,-0.378,0.407,-0.215
45.43,-0.115,2.0,0.125
45.44,-0.063,0.646,0.102
45.45,-0.048,0.907,-0.069
45.46,-0.42,0.321,-0.185
45.47,-0.067,1.843,0.105
45.48,-0.116,0.954,0.048
45.49,-0.011,0.535,-0.049
45.5,-0.402,0.816,-0.183
45.51,0.017,1.413,0.12
45.52,-0.29,1.221,0.151
45.53,-0.017,0.542,-0.103
45.54,-0.484,0.906,-0.157
45.55,-0.073,1.171,0.192
45.56,-0.34,1.243,0.093
45.57,-0.048,0.614,-0.05
45.58,-0.454,0.7,-0.133
45.59,-0.13,1.337,0.172
45.6,-0.135,0.852,-0.058
45.61,-0.188,1.062,-0.146
45.62,-0.435,0.257,-0.109
45.63,-0.271,1.417,0.254
45.64,-0.168,0.796,0.071
45.65,-0.327,0.897,-0.12
45.66,-0.383,0.582,-0.116
45.67,-0.076,1.115,0.128
45.68,-0.258,1.189,-0.039
45.69,-0.114,0.429,-0.138
45.7,-0.468,1.097,-0.07
45.71,0.002,0.938,0.164
45.72,-0.31,1.269,0.032
45.73,-0.197,0.496,-0.174
45.74,-0.43,0.915,-0.017
45.75,-0.077,1.112,0.165
45.76,-0.132,0.924,0.034
45.77,-0.406,0.737,-0.151
45.78,-0.211,0.718,-0.031
45.79,-0.182,1.3,0.147
45.8,-0.163,0.703,0.083
45.81,-0.367,0.893,-0.16
45.82,-0.278,1.121,-0.074
45.83,-0.162,1.02,0.181
45.84,-0.242,1.074,0.044
45.85,-0.277,0.437,-0.164
45.86,-0.25,1.636,-0.045
45.87,-0.017,0.715,0.091
45.88,-0.249,1.214,0.022
45.89,-0.273,0.417,-0.22
45.9,-0.297,1.499,-0.029
45.91,-0.161,0.941,0.121
45.92,-0.166,0.864,0.019
45.93,-0.434,0.889,-0.196
45.94,-0.249,1.143,0.031
45.95,-0.245,1.174,0.17
45.96,-0.088,0.661,0.06
45.97,-0.459,0.987,-0.197
45.98,-0.233,1.34,0.046
45.99,-0.219,0.951,0.151
46.0,-0.208,0.982,0.059
46.01,-0.373,0.449,-0.194
46.02,-0.304,1.97,0.097
46.03,-0.107,0.631,0.115
46.04,-0.179,1.106,0.063
46.05,-0.36,0.364,-0.234
46.06,-0.26,1.928,0.062
46.07,-0.177,0.773,0.083
46.08,-0.02,0.754,0.022
46.09,-0.488,0.851,-0.2
46.1,-0.14,1.55,0.115
46.11,-0.235,1.102,0.14
46.12,0.108,0.472,0.09
46.13,-0.501,0.988,-0.215
46.14,0.0,1.624,0.086
46.15,-0.105,1.008,0.083
46.16,-0.038,0.702,-0.004
46.17,-0.402,0.547,-0.182
46.18,-0.087,2.0,0.067
46.19,-0.022,0.639,0.119
46.2,-0.073,0.953,-0.011
46.21,-0.384,0.291,-0.226
46.22,-0.056,2.0,0.088
46.23,-0.07,0.755,0.078
46.24,-0.079,0.648,-0.017
46.25,-0.465,0.741,-0.258
46.26,0.012,1.514,0.107
46.27,-0.181,1.214,0.069
46.28,0.103,0.341,-0.045
46.29,-0.557,0.997,-0.212
46.3,0.019,1.438,0.156
46.31,-0.209,1.159,0.072
46.32,0.004,0.663,-0.022
46.33,-0.522,0.76,-0.174
46.34,-0.019,1.431,0.149
46.35,-0.164,0.966,0.04
46.36,-0.116,0.958,-0.088
46.37,-0.379,0.218,-0.158
46.38,-0.214,1.635,0.179
46.39,-0.138,0.777,0.055
46.4,-0.142,0.999,-0.095
46.41,-0.413,0.353,-0.215
46.42,-0.097,1.353,0.185
46.43,-0.205,1.036,-0.023
46.44,-0.019,0.596,-0.148
46.45,-0.429,0.906,-0.212
46.46,-0.032,0.987,0.194
46.47,-0.234,1.28,0.036
46.48,-0.092,0.512,-0.119
46.49,-0.45,0.846,-0.165
46.5,-0.028,1.139,0.154
46.51,-0.174,1.02,-0.012
46.52,-0.149,0.871,-0.157
46.53,-0.411,0.347,-0.145
46.54,-0.094,1.41,0.174
46.55,-0.187,0.753,0.029
46.56,-0.249,1.009,-0.08
46.57,-0.476,0.396,-0.112
46.58,-0.084,1.306,0.166
46.59,-0.225,1.008,0.009
46.6,-0.203,0.519,-0.138
46.61,-0.49,0.995,-0.072
46.62,0.008,0.98,0.15
46.63,-0.364,1.224,0.006
46.64,-0.064,0.367,-0.099
46.65,-0.434,1.104,-0.073
46.66,-0.002,1.053,0.134
46.67,-0.174,1.045,-0.022
46.68,-0.339,0.747,-0.116
46.69,-0.393,0.531,-0.052
46.7,-0.143,1.381,0.113
46.71,-0.1,0.791,0.04
46.72,-0.361,0.864,-0.16
46.73,-0.307,0.671,-0.043
46.74,-0.187,1.236,0.126
46.75,-0.22,0.991,0.017
46.76,-0.306,0.44,-0.151
46.77,-0.309,1.4,-0.023
46.78,-0.022,0.845,0.17
46.79,-0.271,1.257,0.081
46.8,-0.295,0.372,-0.182
46.81,-0.368,1.343,-0.04
46.82,-0.066,0.894,0.098
46.83,-0.201,1.145,-0.012
46.84,-0.278,0.602,-0.215
46.85,-0.168,1.196,-0.068
46.86,-0.125,1.197,0.107
46.87,-0.047,0.625,0.006
46.88,-0.4,1.0,-0.199
46.89,-0.12,1.228,-0.019
46.9,-0.194,1.098,0.089
46.91,-0.073,0.785,0.039
46.92,-0.417,0.749,-0.232
46.93,-0.273,1.716,0.022
46.94,-0.161,0.614,0.128
46.95,-0.121,1.165,0.063
46.96,-0.341,0.328,-0.244
46.97,-0.3,1.984,0.049
46.98,-0.135,0.735,0.118
46.99,-0.053,0.929,0.056
47.0,-0.411,0.651,-0.196
47.01,-0.227,1.602,0.073
47.02,-0.222,1.008,0.125
47.03,0.139,0.571,0.019
47.04,-0.555,1.013,-0.098
47.05,-0.155,1.401,0.155
47.06,-0.341,0.988,0.15
47.07,0.05,0.672,0.071
47.08,-0.498,0.766,-0.145
47.09,-0.147,1.829,0.137
47.1,-0.188,0.65,0.106
47.11,-0.029,0.986,0.032
47.12,-0.414,0.31,-0.183
47.13,-0.104,2.0,0.121
47.14,-0.087,0.646,0.125
47.15,-0.066,0.906,-0.006
47.16,-0.419,0.305,-0.165
47.17,-0.026,2.0,0.106
47.18,-0.162,0.875,0.078
47.19,-0.046,0.534,-0.01
47.2,-0.417,0.81,-0.229
47.21,0.011,1.586,0.154
47.22,-0.209,1.151,0.054
47.23,0.088,0.408,-0.009
47.24,-0.573,0.927,-0.171
47.25,-0.026,1.493,0.149
47.26,-0.301,1.076,0.111
47.27,0.046,0.719,-0.046
47.28,-0.511,0.465,-0.154
47.29,-0.116,1.664,0.182
47.3,-0.141,0.775,0.094
47.31,-0.178,1.036,-0.089
47.32,-0.431,0.212,-0.153
47.33,-0.122,1.717,0.134
47.34,-0.201,0.931,0.077
47.35,-0.111,0.731,-0.063
47.36,-0.467,0.705,-0.174
47.37,-0.092,1.216,0.251
47.38,-0.282,1.309,0.102
47.39,-0.074,0.472,-0.047
47.4,-0.507,0.922,-0.134
47.41,-0.065,1.152,0.167
47.42,-0.323,1.194,0.009
47.43,-0.025,0.741,-0.088
47.44,-0.478,0.435,-0.161
47.45,-0.058,1.465,0.144
47.46,-0.136,0.848,-0.014
47.47,-0.221,1.079,-0.099
47.48,-0.418,0.192,-0.142
47.49,-0.127,1.419,0.225
47.5,-0.2,0.914,0.022
47.51,-0.182,0.735,-0.108
47.52,-0.423,0.731,-0.188
47.53,-0.01,1.084,0.169
47.54,-0.388,1.261,-0.01
47.55,-0.057,0.395,-0.079
47.56,-0.52,0.996,-0.106
47.57,0.034,0.935,0.134
47.58,-0.259,1.202,0.002
47.59,-0.279,0.587,-0.163
47.6,-0.427,0.65,-0.027
47.61,-0.036,1.265,0.105
47.62,-0.208,0.793,-0.005
47.63,-0.224,0.938,-0.139
47.64,-0.333,0.691,-0.059
47.65,-0.06,1.338,0.142
47.66,-0.192,0.824,0.047
47.67,-0.345,0.723,-0.143
47.68,-0.305,1.21,-0.042
47.69,-0.031,0.969,0.116
47.7,-0.242,1.155,-0.003
47.71,-0.186,0.403,-0.218
47.72,-0.297,1.572,-0.115
47.73,0.018,0.77,0.037
47.74,-0.342,1.191,0.024
47.75,-0.201,0.517,-0.151
47.76,-0.352,1.489,-0.023
47.77,-0.064,1.059,0.086
47.78,-0.12,0.695,0.052
47.79,-0.377,1.003,-0.189
47.8,-0.25,1.207,0.009
47.81,-0.159,1.169,0.1
47.82,-0.055,0.652,0.031
47.83,-0.47,0.875,-0.185
47.84,-0.208,1.531,0.045
47.85,-0.26,0.766,0.095
47.86,-0.123,1.072,0.065
47.87,-0.324,0.382,-0.231
47.88,-0.328,1.978,0.09
47.89,-0.138,0.63,0.225
47.9,-0.165,1.074,0.09
47.91,-0.447,0.406,-0.175
47.92,-0.188,1.868,0.103
47.93,-0.154,0.687,0.107
47.94,0.012,0.729,-0.007
47.95,-0.447,0.714,-0.248
47.96,0.001,1.66,0.11
47.97,-0.171,1.076,0.11
47.98,0.136,0.372,-0.003
47.99,-0.505,1.033,-0.198
48.0,0.062,1.508,0.133
48.01,-0.189,1.112,0.1
48.02,0.07,0.602,-0.047
48.03,-0.492,0.62,-0.145
48.04,-0.042,1.916,0.138
48.05,-0.142,0.712,0.098
48.06,-0.074,0.907,-0.017
48.07,-0.386,0.205,-0.167
48.08,-0.157,1.918,0.147
48.09,-0.111,0.743,0.085
48.1,-0.082,0.794,-0.032
48.11,-0.453,0.542,-0.212
48.12,-0.073,1.483,0.146
48.13,-0.249,1.189,0.117
48.14,0.017,0.409,-0.047
48.15,-0.526,1.022,-0.141
48.16,-0.021,1.245,0.189
48.17,-0.327,1.276,0.169
48.18,-0.024,0.604,-0.046
48.19,-0.521,0.662,-0.11
48.2,-0.089,1.542,0.197
48.21,-0.24,0.837,0.096
48.22,-0.155,1.062,-0.084
48.23,-0.402,0.181,-0.143
48.24,-0.101,1.638,0.2
48.25,-0.174,0.795,0.09
48.26,-0.15,0.882,-0.142
48.27,-0.434,0.533,-0.182
48.28,-0.06,1.194,0.175
48.29,-0.316,1.188,0.002
48.3,0.006,0.475,-0.096
48.31,-0.527,0.98,-0.161
48.32,-0.029,0.984,0.236
48.33,-0.299,1.289,0.071
48.34,-0.209,0.492,-0.14
48.35,-0.44,0.719,-0.109
48.36,-0.129,1.219,0.171
48.37,-0.122,0.903,0.0
48.38,-0.215,0.951,-0.092
48.39,-0.454,0.331,-0.07
48.4,-0.133,1.423,0.176
48.41,-0.241,0.811,0.059
48.42,-0.288,0.916,-0.123
48.43,-0.419,0.621,-0.042
48.44,-0.09,1.146,0.186
48.45,-0.176,1.127,-0.054
48.46,-0.272,0.386,-0.111
48.47,-0.406,1.233,-0.005
48.48,-0.053,0.839,0.174
48.49,-0.231,1.266,-0.002
48.5,-0.249,0.358,-0.145
48.51,-0.263,1.247,-0.038
