t,ax,ay,az
0.0,-0.17,1.936,0.145
0.01,-0.056,0.591,0.099
0.02,-0.07,1.024,-0.02
0.03,-0.38,0.251,-0.195
0.04,-0.132,2.0,0.135
0.05,-0.125,0.782,0.134
0.06,-0.11,0.682,0.026
0.07,-0.463,0.646,-0.205
0.08,-0.043,1.504,0.126
0.09,-0.159,1.214,0.074
0.1,-0.031,0.399,-0.06
0.11,-0.471,1.008,-0.148
0.12,-0.038,1.379,0.179
0.13,-0.281,1.192,0.126
0.14,-0.043,0.614,-0.069
0.15,-0.443,0.883,-0.141
0.16,-0.091,1.219,0.125
0.17,-0.256,1.083,0.032
0.18,-0.123,0.928,-0.132
0.19,-0.362,0.329,-0.129
0.2,-0.202,1.44,0.178
0.21,-0.157,0.782,0.04
0.22,-0.41,1.027,-0.104
0.23,-0.305,0.351,-0.117
0.24,-0.164,1.311,0.197
0.25,-0.18,1.013,-0.012
0.26,-0.204,0.591,-0.16
0.27,-0.405,0.995,-0.067
0.28,0.01,0.947,0.172
0.29,-0.406,1.288,0.018
0.3,-0.133,0.292,-0.109
0.31,-0.383,1.274,-0.065
0.32,0.029,0.978,0.152
0.33,-0.26,1.057,-0.011
0.34,-0.329,0.677,-0.169
0.35,-0.268,0.777,-0.046
0.36,-0.183,1.274,0.159
0.37,-0.125,0.73,0.034
0.38,-0.434,0.875,-0.134
0.39,-0.196,0.988,-0.026
0.4,-0.104,1.204,0.16
0.41,-0.187,0.924,0.01
0.42,-0.353,0.626,-0.237
0.43,-0.281,1.662,0.033
0.44,-0.041,0.793,0.128
0.45,-0.289,1.151,0.069
0.46,-0.286,0.351,-0.185
0.47,-0.325,1.973,0.056
0.48,-0.048,0.742,0.149
0.49,-0.133,0.923,0.056
0.5,-0.403,0.698,-0.216
0.51,-0.266,1.537,0.063
0.52,-0.179,1.121,0.16
0.53,-0.025,0.508,0.065
0.54,-0.503,1.046,-0.17
0.55,-0.194,1.485,0.094
0.56,-0.233,1.105,0.155
0.57,-0.048,0.613,0.049
0.58,-0.434,0.788,-0.167
0.59,-0.171,1.834,0.117
0.6,-0.156,0.618,0.143
0.61,-0.066,1.009,0.005
0.62,-0.374,0.271,-0.205
0.63,-0.154,2.0,0.104
0.64,-0.06,0.67,0.082
0.65,-0.053,0.781,-0.022
0.66,-0.328,0.512,-0.228
0.67,-0.059,1.749,0.127
0.68,-0.161,1.07,0.082
0.69,-0.026,0.32,-0.003
0.7,-0.404,1.025,-0.228
0.71,-0.046,1.525,0.116
0.72,-0.204,1.115,0.106
0.73,0.009,0.457,-0.051
0.74,-0.383,0.796,-0.208
0.75,-0.152,1.693,0.13
0.76,-0.104,0.8,0.086
0.77,-0.144,0.944,-0.117
0.78,-0.379,0.268,-0.191
0.79,-0.121,1.834,0.173
0.8,-0.151,0.854,0.116
0.81,-0.039,0.901,-0.108
0.82,-0.412,0.402,-0.198
0.83,0.025,1.524,0.183
0.84,-0.202,1.201,0.075
0.85,-0.029,0.572,-0.076
0.86,-0.517,0.93,-0.183
0.87,-0.001,1.246,0.225
0.88,-0.22,1.425,0.042
0.89,-0.015,0.515,-0.065
0.9,-0.495,0.783,-0.138
0.91,-0.1,1.355,0.151
0.92,-0.245,0.98,0.088
0.93,-0.09,1.06,-0.067
0.94,-0.426,0.323,-0.136
0.95,-0.152,1.285,0.193
0.96,-0.113,0.773,-0.01
0.97,-0.38,0.975,-0.097
0.98,-0.385,0.359,-0.067
0.99,-0.174,1.271,0.176
1.0,-0.177,0.918,0.009
1.01,-0.237,0.663,-0.148
1.02,-0.325,0.929,-0.056
1.03,-0.012,0.926,0.087
1.04,-0.262,1.243,-0.012
1.05,-0.177,0.307,-0.145
1.06,-0.365,1.382,-0.032
1.07,-0.054,0.853,0.119
1.08,-0.3,1.138,0.018
1.09,-0.245,0.593,-0.182
1.1,-0.34,1.065,-0.06
1.11,-0.118,1.172,0.131
1.12,-0.169,0.793,-0.011
1.13,-0.382,0.839,-0.165
1.14,-0.198,1.021,0.002
1.15,-0.084,1.225,0.176
1.16,-0.218,0.761,0.008
1.17,-0.379,0.797,-0.17
1.18,-0.226,1.563,0.029
1.19,-0.12,0.826,0.176
1.2,-0.143,1.069,-0.007
1.21,-0.361,0.357,-0.256
1.22,-0.249,1.948,0.046
1.23,-0.147,0.639,0.101
1.24,-0.103,1.029,0.02
1.25,-0.397,0.469,-0.223
1.26,-0.15,1.734,0.022
1.27,-0.176,0.996,0.093
1.28,0.042,0.515,0.033
1.29,-0.508,0.931,-0.166
1.3,-0.062,1.567,0.068
1.31,-0.278,1.129,0.136
1.32,0.046,0.494,0.037
1.33,-0.459,0.811,-0.19
1.34,-0.069,1.752,0.151
1.35,-0.11,0.923,0.127
1.36,-0.088,0.74,-0.033
1.37,-0.37,0.308,-0.19
1.38,-0.196,2.0,0.134
1.39,-0.043,0.646,0.147
1.4,-0.186,0.917,-0.018
1.41,-0.343,0.344,-0.175
1.42,-0.143,1.833,0.185
1.43,-0.128,1.043,0.06
1.44,0.04,0.437,-0.121
1.45,-0.374,0.892,-0.204
1.46,-0.022,1.343,0.173
1.47,-0.19,1.306,0.106
1.48,-0.031,0.45,-0.07
1.49,-0.4,0.825,-0.186
1.5,-0.067,1.378,0.151
1.51,-0.202,1.012,0.08
1.52,-0.111,1.027,-0.108
1.53,-0.268,0.297,-0.162
1.54,-0.222,1.604,0.181
1.55,-0.132,0.852,0.076
1.56,-0.173,1.081,-0.076
1.57,-0.313,0.396,-0.111
1.58,-0.172,1.285,0.192
1.59,-0.208,1.035,0.024
1.6,-0.11,0.738,-0.076
1.61,-0.428,0.865,-0.114
1.62,-0.022,0.892,0.183
1.63,-0.324,1.4,0.017
1.64,-0.094,0.413,-0.115
1.65,-0.438,0.977,-0.085
1.66,-0.048,1.025,0.15
1.67,-0.276,1.058,0.054
1.68,-0.181,0.796,-0.168
1.69,-0.34,0.635,-0.023
1.7,-0.085,1.329,0.11
1.71,-0.167,0.69,-0.037
1.72,-0.384,0.886,-0.159
1.73,-0.245,0.805,-0.041
1.74,-0.156,1.15,0.104
1.75,-0.116,0.774,0.048
1.76,-0.451,0.785,-0.237
1.77,-0.126,1.406,0.023
1.78,-0.14,0.896,0.083
1.79,-0.107,1.077,-0.004
1.8,-0.367,0.363,-0.214
1.81,-0.453,0.88,-0.207
1.82,-0.055,1.686,0.152
1.83,-0.153,1.09,0.093
1.84,0.083,0.382,-0.061
1.85,-0.507,0.946,-0.227
1.86,0.049,1.47,0.152
1.87,-0.236,1.249,0.044
1.88,0.038,0.521,-0.023
1.89,-0.442,0.716,-0.166
1.9,-0.014,1.602,0.16
1.91,-0.157,0.894,0.059
1.92,-0.112,1.01,-0.103
1.93,-0.385,0.229,-0.136
1.94,-0.155,1.711,0.17
1.95,-0.135,0.818,0.115
1.96,-0.157,1.049,-0.084
1.97,-0.462,0.462,-0.093
1.98,-0.093,1.318,0.248
1.99,-0.256,1.291,0.086
2.0,0.009,0.513,-0.08
2.01,-0.489,1.017,-0.133
2.02,0.057,0.965,0.157
2.03,-0.367,1.284,0.007
2.04,-0.148,0.573,-0.133
2.05,-0.421,0.72,-0.072
2.06,-0.113,1.177,0.169
2.07,-0.186,0.896,0.041
2.08,-0.328,0.933,-0.09
2.09,-0.439,0.289,-0.006
2.1,-0.193,1.411,0.257
2.11,-0.236,0.797,0.059
2.12,-0.305,0.84,-0.04
2.13,-0.393,0.748,-0.045
2.14,-0.06,1.113,0.179
2.15,-0.324,1.142,-0.033
2.16,-0.178,0.347,-0.141
2.17,-0.31,1.371,-0.056
2.18,0.015,0.813,0.114
2.19,-0.274,1.301,0.0
2.2,-0.27,0.351,-0.179
2.21,-0.309,1.215,-0.033
2.22,-0.096,1.015,0.116
2.23,-0.166,0.927,-0.018
2.24,-0.33,0.757,-0.185
2.25,-0.136,1.078,-0.047
2.26,-0.12,1.244,0.104
2.27,-0.043,0.701,-0.005
2.28,-0.431,0.932,-0.224
2.29,-0.129,1.256,-0.014
2.3,-0.208,0.957,0.102
2.31,-0.052,1.055,0.02
2.32,-0.452,0.422,-0.26
2.33,-0.204,1.818,0.061
2.34,-0.109,0.677,0.08
2.35,-0.129,1.106,0.05
2.36,-0.369,0.374,-0.213
2.37,-0.259,2.0,0.148
2.38,-0.106,0.635,0.17
2.39,-0.082,0.909,-0.018
2.4,-0.395,0.508,-0.211
2.41,-0.065,1.81,0.133
2.42,-0.183,0.978,0.095
2.43,0.074,0.418,-0.031
2.44,-0.518,0.977,-0.174
2.45,0.026,1.52,0.128
2.46,-0.235,1.165,0.124
2.47,0.08,0.454,-0.024
2.48,-0.458,0.754,-0.206
2.49,-0.033,1.726,0.092
2.5,-0.137,0.83,0.093
2.51,-0.05,0.906,-0.031
2.52,-0.354,0.289,-0.207
2.53,-0.142,1.88,0.188
2.54,-0.094,0.721,0.056
2.55,-0.139,0.91,-0.048
2.56,-0.363,0.383,-0.218
2.57,-0.064,1.591,0.154
2.58,-0.205,1.098,0.063
2.59,-0.046,0.479,-0.1
2.6,-0.465,0.931,-0.197
2.61,0.001,1.221,0.241
2.62,-0.317,1.314,0.138
2.63,-0.022,0.521,-0.026
2.64,-0.486,0.844,-0.164
2.65,-0.053,1.378,0.231
2.66,-0.247,1.011,0.073
2.67,-0.099,0.978,-0.102
2.68,-0.38,0.296,-0.123
2.69,-0.142,1.554,0.156
2.7,-0.132,0.801,0.024
2.71,-0.128,1.052,-0.103
2.72,-0.339,0.397,-0.177
2.73,-0.108,1.256,0.203
2.74,-0.169,1.111,-0.036
2.75,-0.149,0.569,-0.164
2.76,-0.398,0.934,-0.162
2.77,-0.011,0.978,0.193
2.78,-0.284,1.384,0.041
2.79,-0.072,0.442,-0.1
2.8,-0.535,0.946,-0.097
2.81,-0.009,1.056,0.194
2.82,-0.251,1.059,-0.007
2.83,-0.208,0.761,-0.136
2.84,-0.391,0.483,-0.096
2.85,-0.127,1.348,0.172
2.86,-0.166,0.739,0.012
2.87,-0.32,0.921,-0.111
2.88,-0.379,0.52,0.0
2.89,-0.148,1.209,0.19
2.9,-0.284,1.131,0.068
2.91,-0.272,0.434,-0.1
2.92,-0.332,1.23,-0.046
2.93,0.056,0.865,0.121
2.94,-0.312,1.288,0.021
2.95,-0.198,0.268,-0.14
2.96,-0.258,1.538,-0.075
2.97,0.0,0.895,0.104
2.98,-0.183,0.953,0.0
2.99,-0.328,0.711,-0.19
3.0,-0.238,1.13,-0.027
3.01,-0.21,1.193,0.129
3.02,-0.115,0.695,0.014
3.03,-0.441,1.013,-0.145
3.04,-0.226,1.117,0.036
3.05,-0.145,1.094,0.151
3.06,-0.13,0.911,0.01
3.07,-0.369,0.626,-0.219
3.08,-0.215,1.76,0.064
3.09,-0.098,0.731,0.127
3.1,-0.169,1.147,0.043
3.11,-0.363,0.314,-0.2
3.12,-0.318,1.848,0.064
3.13,-0.148,0.651,0.12
3.14,-0.114,0.944,0.015
3.15,-0.41,0.634,-0.217
3.16,-0.183,1.6,0.081
3.17,-0.138,0.857,0.082
3.18,0.04,0.559,0.008
3.19,-0.478,0.857,-0.193
3.2,0.004,1.534,0.138
3.21,-0.235,1.208,0.133
3.22,0.088,0.385,0.005
3.23,-0.498,0.885,-0.202
3.24,0.012,1.667,0.105
3.25,-0.183,0.943,0.115
3.26,-0.01,0.755,-0.041
3.27,-0.349,0.376,-0.202
3.28,-0.138,1.899,0.146
3.29,-0.036,0.692,0.098
3.3,-0.154,0.937,-0.033
3.31,-0.327,0.294,-0.194
3.32,-0.114,1.774,0.149
3.33,-0.143,1.006,0.12
3.34,-0.077,0.604,-0.083
3.35,-0.419,0.834,-0.2
3.36,-0.053,1.302,0.187
3.37,-0.209,1.353,0.123
3.38,-0.02,0.456,-0.028
3.39,-0.464,0.91,-0.15
3.4,-0.017,1.303,0.182
3.41,-0.198,1.1,0.065
3.42,-0.084,0.92,-0.069
3.43,-0.363,0.408,-0.163
3.44,-0.228,1.521,0.193
3.45,-0.11,0.826,0.077
3.46,-0.203,1.094,-0.056
3.47,-0.312,0.355,-0.18
3.48,-0.25,1.316,0.182
3.49,-0.096,0.954,-0.037
3.5,-0.146,0.743,-0.144
3.51,-0.354,0.816,-0.16
3.52,-0.072,0.959,0.19
3.53,-0.229,1.318,0.045
3.54,-0.196,0.354,-0.117
3.55,-0.447,0.958,-0.082
3.56,-0.128,0.97,0.2
3.57,-0.242,1.183,0.022
3.58,-0.191,0.646,-0.083
3.59,-0.427,0.598,-0.085
3.6,-0.083,1.324,0.171
3.61,-0.202,0.768,0.015
3.62,-0.349,0.903,-0.09
3.63,-0.415,0.449,-0.018
3.64,-0.172,1.341,0.234
3.65,-0.225,0.962,-0.004
3.66,-0.279,0.605,-0.13
3.67,-0.311,0.953,-0.094
3.68,-0.066,0.938,0.151
3.69,-0.221,1.328,-0.017
3.7,-0.168,0.209,-0.177
3.71,-0.27,1.473,-0.08
3.72,0.071,0.864,0.117
3.73,-0.226,1.131,0.023
3.74,-0.285,0.574,-0.171
3.75,-0.265,1.116,-0.071
3.76,-0.174,1.157,0.089
3.77,-0.105,0.731,0.003
3.78,-0.422,0.897,-0.208
3.79,-0.127,1.055,0.017
3.8,-0.174,1.156,0.15
3.81,-0.113,0.771,0.024
3.82,-0.379,0.792,-0.188
3.83,-0.238,1.636,0.036
3.84,-0.083,0.776,0.13
3.85,-0.12,1.145,0.033
3.86,-0.395,0.342,-0.195
3.87,-0.279,1.931,0.076
3.88,-0.139,0.701,0.137
3.89,-0.156,0.98,0.045
3.9,-0.346,0.527,-0.199
3.91,-0.225,1.747,0.097
3.92,-0.162,0.975,0.143
3.93,0.087,0.559,0.029
3.94,-0.527,0.971,-0.156
3.95,-0.076,1.484,0.109
3.96,-0.227,1.086,0.13
3.97,0.095,0.4,-0.011
3.98,-0.476,0.955,-0.234
3.99,0.018,1.583,0.13
4.0,-0.183,1.135,0.107
4.01,-0.037,0.546,-0.001
4.02,-0.343,0.506,-0.211
4.03,-0.175,1.834,0.156
4.04,-0.057,0.663,0.093
4.05,-0.123,1.048,-0.053
4.06,-0.396,0.228,-0.203
4.07,-0.144,1.885,0.173
4.08,-0.159,0.847,0.107
4.09,-0.072,0.686,-0.042
4.1,-0.421,0.725,-0.212
4.11,-0.062,1.292,0.161
4.12,-0.24,1.276,0.086
4.13,-0.001,0.486,-0.024
4.14,-0.557,0.987,-0.136
4.15,0.014,1.187,0.192
4.16,-0.298,1.248,0.082
4.17,-0.054,0.792,-0.065
4.18,-0.465,0.553,-0.144
4.19,-0.128,1.62,0.199
4.2,-0.064,0.921,0.079
4.21,-0.161,1.041,-0.088
4.22,-0.426,0.286,-0.166
4.23,-0.165,1.483,0.178
4.24,-0.158,0.933,0.02
4.25,-0.115,0.904,-0.112
4.26,-0.351,0.646,-0.194
4.27,-0.07,1.119,0.201
4.28,-0.216,1.268,0.078
4.29,-0.075,0.513,-0.104
4.3,-0.489,0.953,-0.107
4.31,-0.081,0.966,0.251
4.32,-0.265,1.339,0.063
4.33,-0.085,0.649,-0.096
4.34,-0.421,0.682,-0.112
4.35,-0.074,1.294,0.156
4.36,-0.218,0.827,-0.009
4.37,-0.248,0.966,-0.097
4.38,-0.379,0.325,-0.082
4.39,-0.182,1.367,0.188
4.4,-0.2,0.829,0.002
4.41,-0.318,0.766,-0.115
4.42,-0.419,0.757,-0.043
4.43,-0.036,1.033,0.198
4.44,-0.311,1.23,0.012
4.45,-0.126,0.288,-0.117
4.46,-0.318,1.331,-0.05
4.47,-0.032,0.853,0.158
4.48,-0.3,1.206,0.001
4.49,-0.285,0.394,-0.149
4.5,-0.286,1.106,-0.024
4.51,-0.09,1.131,0.117
4.52,-0.171,0.814,0.002
4.53,-0.385,0.877,-0.173
4.54,-0.248,0.79,-0.016
4.55,-0.18,1.294,0.152
4.56,-0.199,0.803,0.045
4.57,-0.385,0.767,-0.19
4.58,-0.14,1.333,-0.043
4.59,-0.101,0.968,0.118
4.6,-0.192,1.051,0.023
4.61,-0.279,0.481,-0.174
4.62,-0.324,1.837,0.043
4.63,-0.025,0.682,0.121
4.64,-0.221,1.194,0.074
4.65,-0.397,0.392,-0.258
4.66,-0.264,1.548,0.042
4.67,-0.215,0.898,0.095
4.68,-0.057,0.752,0.03
4.69,-0.445,0.818,-0.199
4.7,-0.131,1.338,0.032
4.71,-0.176,1.239,0.178
4.72,0.035,0.499,0.045
4.73,-0.568,0.922,-0.157
4.74,-0.101,1.686,0.058
4.75,-0.262,0.833,0.129
4.76,0.016,0.906,0.018
4.77,-0.46,0.506,-0.166
4.78,0.001,1.852,0.102
4.79,-0.118,0.737,0.087
4.8,-0.086,0.86,0.001
4.81,-0.353,0.283,-0.194
4.82,-0.171,1.978,0.078
4.83,-0.007,0.714,0.06
4.84,-0.085,0.849,-0.024
4.85,-0.408,0.489,-0.208
4.86,-0.013,1.664,0.123
4.87,-0.088,1.218,0.003
4.88,-0.009,0.361,-0.059
4.89,-0.442,1.021,-0.171
4.9,-0.01,1.475,0.174
4.91,-0.302,1.123,0.185
4.92,0.024,0.601,-0.015
4.93,-0.5,0.69,-0.195
4.94,-0.017,1.562,0.125
4.95,-0.2,0.911,0.08
4.96,-0.053,1.007,-0.106
4.97,-0.426,0.228,-0.188
4.98,-0.155,1.712,0.176
4.99,-0.114,0.87,0.116
5.0,-0.199,0.905,-0.08
5.01,-0.375,0.461,-0.179
5.02,-0.14,1.428,0.208
5.03,-0.195,1.169,0.083
5.04,0.023,0.535,-0.091
5.05,-0.44,1.002,-0.216
5.06,-0.002,1.016,0.174
5.07,-0.309,1.381,0.068
5.08,-0.066,0.585,-0.073
5.09,-0.44,0.704,-0.129
5.1,-0.076,1.278,0.189
5.11,-0.196,0.967,0.084
5.12,-0.214,1.018,-0.136
5.13,-0.368,0.289,-0.16
5.14,-0.154,1.51,0.175
5.15,-0.185,0.912,0.081
5.16,-0.201,0.941,-0.102
5.17,-0.439,0.501,-0.125
5.18,-0.105,1.158,0.181
5.19,-0.273,1.153,0.004
5.2,-0.201,0.516,-0.106
5.21,-0.538,0.939,-0.072
5.22,-0.083,0.892,0.261
5.23,-0.283,1.393,0.089
5.24,-0.24,0.357,-0.102
5.25,-0.404,0.936,-0.034
5.26,-0.083,1.068,0.174
5.27,-0.229,0.963,0.039
5.28,-0.225,0.76,-0.13
5.29,-0.318,0.633,-0.04
5.3,-0.166,1.366,0.143
5.31,-0.14,0.723,0.074
5.32,-0.374,0.857,-0.168
5.33,-0.289,0.767,-0.031
5.34,-0.128,1.087,0.142
5.35,-0.165,1.104,-0.005
5.36,-0.224,0.442,-0.13
5.37,-0.283,1.449,-0.062
5.38,-0.001,0.788,0.119
5.39,-0.235,1.306,0.0
5.4,-0.219,0.311,-0.208
5.41,-0.305,1.516,-0.041
5.42,-0.065,0.976,0.119
5.43,-0.165,0.908,0.031
5.44,-0.381,0.778,-0.221
5.45,-0.197,1.161,0.005
5.46,-0.15,1.213,0.108
5.47,-0.077,0.636,0.032
5.48,-0.411,0.965,-0.218
5.49,-0.192,1.411,0.037
5.5,-0.198,1.013,0.146
5.51,-0.027,0.865,0.066
5.52,-0.416,0.604,-0.202
5.53,-0.261,1.806,0.047
5.54,-0.091,0.685,0.136
5.55,-0.163,1.13,0.056
5.56,-0.414,0.275,-0.207
5.57,-0.364,1.909,0.119
5.58,-0.115,0.577,0.133
5.59,-0.117,0.95,0.038
5.6,-0.394,0.462,-0.184
5.61,-0.154,1.862,0.072
5.62,-0.084,0.955,0.046
5.63,0.082,0.476,-0.044
5.64,-0.473,0.886,-0.222
5.65,0.008,1.528,0.147
5.66,-0.269,1.198,0.103
5.67,0.035,0.39,0.02
5.68,-0.474,0.823,-0.204
5.69,0.013,1.758,0.101
5.7,-0.184,0.819,0.064
5.71,-0.051,0.796,-0.037
5.72,-0.381,0.34,-0.149
5.73,-0.138,1.919,0.131
5.74,-0.137,0.689,0.113
5.75,-0.111,0.883,-0.054
5.76,-0.424,0.336,-0.163
5.77,-0.107,1.661,0.213
5.78,-0.207,1.044,0.093
5.79,0.077,0.502,-0.101
5.8,-0.485,0.915,-0.156
5.81,0.015,1.202,0.201
5.82,-0.348,1.31,0.113
5.83,0.024,0.544,-0.007
5.84,-0.507,0.825,-0.15
5.85,-0.001,1.322,0.182
5.86,-0.198,1.087,0.082
5.87,-0.135,0.904,-0.065
5.88,-0.407,0.347,-0.14
5.89,-0.132,1.621,0.19
5.9,-0.178,0.835,0.079
5.91,-0.16,1.085,-0.087
5.92,-0.443,0.324,-0.134
5.93,-0.149,1.318,0.194
5.94,-0.224,1.131,0.047
5.95,-0.115,0.625,-0.158
5.96,-0.387,0.906,-0.171
5.97,-0.011,0.962,0.176
5.98,-0.307,1.331,0.086
5.99,-0.117,0.404,-0.118
6.0,-0.474,0.911,-0.11
6.01,-0.065,1.033,0.185
6.02,-0.216,1.124,0.059
6.03,-0.228,0.784,-0.099
6.04,-0.419,0.521,-0.042
6.05,-0.205,1.362,0.231
6.06,-0.156,0.697,0.065
6.07,-0.348,0.89,-0.083
6.08,-0.329,0.72,-0.041
6.09,-0.123,1.229,0.166
6.1,-0.243,0.943,0.05
6.11,-0.24,0.626,-0.149
6.12,-0.417,1.092,-0.029
6.13,-0.057,0.861,0.158
6.14,-0.296,1.373,0.037
6.15,-0.202,0.205,-0.152
6.16,-0.35,1.336,-0.054
6.17,-0.037,0.919,0.095
6.18,-0.274,1.044,-0.019
6.19,-0.263,0.521,-0.187
6.2,-0.195,1.062,-0.085
6.21,-0.099,1.232,0.102
6.22,-0.055,0.701,0.034
6.23,-0.429,0.981,-0.242
6.24,-0.213,0.919,-0.013
6.25,-0.221,1.141,0.093
6.26,-0.132,0.911,-0.018
6.27,-0.374,0.575,-0.217
6.28,-0.207,1.697,0.042
6.29,-0.022,0.78,0.123
6.3,-0.141,1.114,0.039
6.31,-0.309,0.375,-0.214
6.32,-0.311,1.894,0.007
6.33,-0.135,0.73,0.142
6.34,-0.107,0.943,0.031
6.35,-0.501,0.597,-0.212
6.36,-0.177,1.572,0.07
6.37,-0.25,1.014,0.123
6.38,0.031,0.572,0.018
6.39,-0.529,0.922,-0.193
6.4,-0.095,1.451,0.129
6.41,-0.129,1.147,0.169
6.42,0.064,0.409,-0.013
6.43,-0.446,0.943,-0.245
6.44,0.059,1.613,0.101
6.45,-0.232,0.983,0.175
6.46,-0.01,0.71,-0.039
6.47,-0.34,0.465,-0.232
6.48,-0.128,1.865,0.111
6.49,-0.042,0.666,0.1
6.5,-0.153,0.938,-0.031
6.51,-0.357,0.284,-0.16
6.52,-0.133,1.86,0.109
6.53,-0.215,0.891,0.117
6.54,0.007,0.62,-0.037
6.55,-0.525,0.812,-0.175
6.56,-0.008,1.437,0.178
6.57,-0.339,1.316,0.159
6.58,0.029,0.354,-0.029
6.59,-0.533,0.922,-0.163
6.6,-0.083,1.346,0.181
6.61,-0.183,1.106,0.091
6.62,-0.147,0.769,-0.058
6.63,-0.372,0.459,-0.13
6.64,-0.143,1.796,0.218
6.65,-0.039,0.78,0.126
6.66,-0.194,0.971,-0.079
6.67,-0.375,0.292,-0.182
6.68,-0.151,1.599,0.176
6.69,-0.172,0.979,0.097
6.7,-0.066,0.691,-0.067
6.71,-0.426,0.748,-0.185
6.72,-0.062,1.147,0.232
6.73,-0.415,1.308,0.151
6.74,-0.047,0.489,-0.047
6.75,-0.516,0.942,-0.113
6.76,-0.089,1.143,0.222
6.77,-0.168,1.229,0.077
6.78,-0.137,0.703,-0.085
6.79,-0.408,0.54,-0.154
6.8,-0.195,1.442,0.2
6.81,-0.107,0.85,0.067
6.82,-0.211,1.064,-0.1
6.83,-0.365,0.304,-0.126
6.84,-0.221,1.432,0.208
6.85,-0.176,0.923,0.024
6.86,-0.158,0.852,-0.102
6.87,-0.419,0.706,-0.156
6.88,-0.017,0.969,0.152
6.89,-0.193,1.391,-0.001
6.9,-0.075,0.392,-0.115
6.91,-0.455,1.057,-0.134
6.92,-0.005,0.976,0.17
6.93,-0.26,1.19,0.025
6.94,-0.258,0.656,-0.103
6.95,-0.389,0.607,-0.155
6.96,-0.128,1.257,0.171
6.97,-0.11,0.843,-0.035
6.98,-0.22,0.946,-0.128
6.99,-0.381,0.435,-0.089
7.0,-0.125,1.31,0.181
7.01,-0.213,0.888,-0.017
7.02,-0.272,0.687,-0.102
7.03,-0.401,0.821,-0.055
7.04,-0.009,0.972,0.157
7.05,-0.232,1.275,-0.0
7.06,-0.235,0.271,-0.107
7.07,-0.407,1.151,-0.044
7.08,-0.014,0.855,0.145
7.09,-0.335,1.27,0.086
7.1,-0.229,0.341,-0.136
7.11,-0.28,1.156,-0.051
7.12,0.0,1.198,0.095
7.13,-0.111,0.687,0.024
7.14,-0.31,0.956,-0.179
7.15,-0.299,0.921,-0.046
7.16,-0.123,1.283,0.141
7.17,-0.129,0.823,0.027
7.18,-0.45,0.734,-0.158
7.19,-0.132,1.284,0.028
7.2,-0.244,1.041,0.099
7.21,-0.072,0.835,0.017
7.22,-0.322,0.59,-0.213
7.23,-0.275,1.9,-0.004
7.24,-0.032,0.701,0.087
7.25,-0.133,1.108,0.01
7.26,-0.355,0.33,-0.216
7.27,-0.288,1.989,0.046
7.28,-0.143,0.755,0.097
7.29,-0.144,0.775,0.064
7.3,-0.429,0.746,-0.197
7.31,-0.22,1.478,0.058
7.32,-0.26,1.046,0.165
7.33,0.028,0.55,0.033
7.34,-0.483,0.973,-0.161
7.35,-0.206,1.469,0.075
7.36,-0.24,0.997,0.163
7.37,0.038,0.734,0.048
7.38,-0.519,0.578,-0.172
7.39,-0.141,1.966,0.137
7.4,-0.193,0.682,0.139
7.41,-0.101,0.984,0.012
7.42,-0.396,0.252,-0.215
7.43,-0.129,2.0,0.106
7.44,-0.034,0.704,0.017
7.45,-0.068,0.743,-0.011
7.46,-0.392,0.552,-0.226
7.47,-0.059,1.7,0.129
7.48,-0.143,1.096,0.074
7.49,0.054,0.345,0.001
7.5,-0.458,0.948,-0.231
7.51,-0.002,1.539,0.136
7.52,-0.219,1.18,0.091
7.53,0.062,0.531,-0.039
7.54,-0.404,0.625,-0.188
7.55,-0.04,1.785,0.123
7.56,-0.116,0.75,0.067
7.57,-0.091,0.979,-0.032
7.58,-0.357,0.226,-0.195
7.59,-0.121,1.936,0.162
7.6,-0.133,0.777,0.088
7.61,-0.122,0.711,-0.065
7.62,-0.398,0.561,-0.236
7.63,-0.096,1.411,0.177
7.64,-0.24,1.188,0.088
7.65,0.026,0.469,-0.065
7.66,-0.494,0.983,-0.18
7.67,-0.021,1.148,0.207
7.68,-0.326,1.268,0.056
7.69,-0.018,0.697,-0.048
7.7,-0.525,0.674,-0.152
7.71,-0.042,1.466,0.17
7.72,-0.177,0.886,0.068
7.73,-0.146,1.062,-0.063
7.74,-0.393,0.26,-0.142
7.75,-0.222,1.526,0.176
7.76,-0.15,0.885,0.044
7.77,-0.2,0.966,-0.096
7.78,-0.378,0.553,-0.129
7.79,-0.115,1.191,0.203
7.8,-0.31,1.17,0.09
7.81,0.101,0.591,-0.132
7.82,-0.573,1.024,-0.117
7.83,-0.02,0.89,0.244
7.84,-0.268,1.356,0.054
7.85,-0.138,0.525,-0.092
7.86,-0.472,0.777,-0.104
7.87,-0.105,1.198,0.186
7.88,-0.116,0.936,0.01
7.89,-0.264,0.946,-0.149
7.9,-0.331,0.341,-0.127
7.91,-0.134,1.411,0.192
7.92,-0.146,0.808,0.012
7.93,-0.188,0.858,-0.132
7.94,-0.407,0.737,-0.129
7.95,-0.044,1.111,0.15
7.96,-0.284,1.125,-0.035
7.97,-0.143,0.39,-0.163
7.98,-0.374,1.286,-0.07
7.99,-0.083,0.799,0.131
8.0,-0.263,1.288,0.023
8.01,-0.31,0.201,-0.192
8.02,-0.285,1.521,-0.048
8.03,-0.094,0.813,0.085
8.04,-0.216,1.12,0.016
8.05,-0.337,0.552,-0.199
8.06,-0.261,1.139,0.011
8.07,-0.156,1.191,0.124
8.08,-0.168,0.68,0.033
8.09,-0.362,0.958,-0.168
8.1,-0.278,1.129,0.044
8.11,-0.127,1.174,0.129
8.12,-0.098,0.826,-0.001
8.13,-0.448,0.718,-0.239
8.14,-0.182,1.608,0.023
8.15,-0.088,0.734,0.132
8.16,-0.097,1.175,0.014
8.17,-0.412,0.292,-0.243
8.18,-0.255,1.917,0.036
8.19,-0.137,0.7,0.091
8.2,-0.098,0.982,0.009
8.21,-0.418,0.54,-0.203
8.22,-0.256,1.631,0.028
8.23,-0.174,1.016,0.108
8.24,0.041,0.521,0.043
8.25,-0.551,0.968,-0.19
8.26,-0.055,1.515,0.093
8.27,-0.28,1.147,0.15
8.28,0.029,0.552,0.061
8.29,-0.517,0.802,-0.187
8.3,-0.086,1.816,0.105
8.31,-0.086,0.746,0.096
8.32,-0.104,0.912,-0.007
8.33,-0.298,0.32,-0.186
8.34,-0.219,2.0,0.112
8.35,-0.02,0.659,0.126
8.36,-0.161,0.85,0.03
8.37,-0.343,0.471,-0.209
8.38,-0.204,1.781,0.193
8.39,-0.071,1.079,0.126
8.4,0.02,0.356,-0.038
8.41,-0.458,0.96,-0.189
8.42,-0.053,1.462,0.112
8.43,-0.141,1.223,0.11
8.44,0.005,0.49,-0.028
8.45,-0.425,0.777,-0.192
8.46,-0.052,1.692,0.156
8.47,-0.133,0.88,0.086
8.48,-0.052,0.891,-0.042
8.49,-0.375,0.298,-0.173
8.5,-0.159,1.886,0.167
8.51,-0.144,0.764,0.087
8.52,-0.071,0.955,-0.035
8.53,-0.444,0.359,-0.157
8.54,-0.103,1.546,0.2
8.55,-0.262,1.16,0.102
8.56,0.066,0.593,-0.08
8.57,-0.477,0.915,-0.175
8.58,0.057,1.199,0.238
8.59,-0.383,1.347,0.102
8.6,0.059,0.574,-0.044
8.61,-0.512,0.816,-0.166
8.62,-0.0,1.321,0.163
8.63,-0.199,0.969,0.001
8.64,-0.055,1.004,-0.09
8.65,-0.362,0.346,-0.12
8.66,-0.199,1.484,0.173
8.67,-0.124,0.772,0.001
8.68,-0.19,1.107,-0.111
8.69,-0.326,0.417,-0.154
8.7,-0.154,1.24,0.179
8.71,-0.252,1.075,-0.029
8.72,-0.068,0.611,-0.122
8.73,-0.485,0.995,-0.082
8.74,-0.038,0.888,0.233
8.75,-0.297,1.341,0.008
8.76,-0.201,0.441,-0.115
8.77,-0.361,0.95,-0.083
8.78,-0.097,1.054,0.156
8.79,-0.261,1.137,0.016
8.8,-0.31,0.489,-0.182
8.81,-0.291,0.957,-0.039
8.82,-0.13,1.204,0.136
8.83,-0.167,0.79,-0.004
8.84,-0.39,0.798,-0.182
8.85,-0.248,0.961,0.012
8.86,-0.151,1.298,0.179
8.87,-0.135,0.761,0.032
8.88,-0.386,0.762,-0.199
8.89,-0.203,1.393,-0.012
8.9,-0.079,0.925,0.119
8.91,-0.195,1.128,0.039
8.92,-0.333,0.363,-0.242
8.93,-0.289,1.788,0.029
8.94,-0.096,0.721,0.146
8.95,-0.226,1.144,0.054
8.96,-0.301,0.483,-0.205
8.97,-0.286,1.603,0.009
8.98,-0.093,1.011,0.129
8.99,0.011,0.649,-0.005
9.0,-0.511,0.996,-0.217
9.01,-0.14,1.321,0.084
9.02,-0.209,1.186,0.175
9.03,-0.034,0.591,0.064
9.04,-0.515,0.864,-0.19
9.05,-0.131,1.679,0.002
9.06,-0.123,0.776,0.091
9.07,-0.003,0.999,-0.021
9.08,-0.427,0.377,-0.234
9.09,-0.213,2.0,0.043
9.1,-0.105,0.639,0.119
9.11,-0.086,0.975,0.04
9.12,-0.471,0.434,-0.194
9.13,-0.17,1.84,0.104
9.14,-0.18,0.859,0.09
9.15,0.018,0.614,0.002
9.16,-0.591,0.877,-0.199
9.17,-0.052,1.532,0.131
9.18,-0.249,1.194,0.196
9.19,0.031,0.412,0.067
9.2,-0.55,0.902,-0.123
9.21,-0.057,1.685,0.1
9.22,-0.154,0.949,0.184
9.23,-0.111,0.773,-0.005
9.24,-0.379,0.394,-0.177
9.25,-0.181,2.0,0.144
9.26,-0.113,0.669,0.134
9.27,-0.075,0.981,-0.014
9.28,-0.361,0.34,-0.209
9.29,-0.125,1.848,0.141
9.3,-0.076,1.028,0.069
9.31,-0.06,0.492,-0.055
9.32,-0.378,0.868,-0.191
9.33,-0.086,1.465,0.156
9.34,-0.206,1.217,0.085
9.35,0.051,0.455,-0.039
9.36,-0.41,0.858,-0.177
9.37,-0.099,1.384,0.183
9.38,-0.104,1.107,0.032
9.39,-0.106,0.87,-0.08
9.4,-0.304,0.337,-0.135
9.41,-0.195,1.685,0.187
9.42,-0.17,0.728,0.099
9.43,-0.109,1.175,-0.058
9.44,-0.389,0.261,-0.129
9.45,-0.163,1.464,0.226
9.46,-0.212,1.068,-0.002
9.47,-0.001,0.712,-0.089
9.48,-0.452,0.886,-0.152
9.49,0.001,1.038,0.203
9.5,-0.329,1.371,0.028
9.51,-0.063,0.508,-0.094
9.52,-0.484,0.932,-0.105
9.53,-0.007,1.059,0.155
9.54,-0.198,1.124,0.032
9.55,-0.193,0.829,-0.121
9.56,-0.38,0.496,-0.076
9.57,-0.146,1.356,0.216
9.58,-0.266,0.778,0.15
9.59,-0.256,0.977,-0.122
9.6,-0.257,0.743,-0.044
9.61,-0.17,1.336,0.118
9.62,-0.186,0.688,0.038
9.63,-0.402,0.805,-0.179
9.64,-0.153,1.069,-0.014
9.65,-0.215,0.996,0.059
9.66,-0.27,1.14,-0.02
9.67,-0.243,0.361,-0.195
9.68,-0.266,1.609,-0.013
9.69,-0.008,0.771,0.13
9.7,-0.361,1.278,0.086
9.71,-0.349,0.35,-0.202
9.72,-0.284,1.472,-0.011
9.73,-0.142,1.036,0.114
9.74,-0.132,0.78,0.005
9.75,-0.447,0.818,-0.247
9.76,-0.13,1.204,0.041
9.77,-0.217,1.138,0.14
9.78,0.037,0.647,0.044
9.79,-0.488,0.924,-0.233
9.8,-0.154,1.507,0.037
9.81,-0.205,0.889,0.072
9.82,-0.021,0.943,0.012
9.83,-0.5,0.412,-0.166
9.84,-0.261,2.0,0.082
9.85,-0.18,0.579,0.148
9.86,-0.103,1.043,0.036
9.87,-0.409,0.343,-0.157
9.88,-0.174,1.86,0.084
9.89,-0.084,0.904,0.136
9.9,-0.001,0.522,-0.053
9.91,-0.421,0.793,-0.207
9.92,-0.001,1.634,0.12
9.93,-0.293,1.158,0.121
9.94,0.043,0.386,-0.005
9.95,-0.42,0.926,-0.223
9.96,-0.078,1.561,0.128
9.97,-0.096,0.989,0.098
9.98,-0.065,0.724,-0.059
9.99,-0.378,0.393,-0.15
10.0,-0.195,1.812,0.191
10.01,-0.114,0.723,0.079
10.02,-0.135,1.073,-0.059
10.03,-0.347,0.263,-0.132
10.04,-0.136,1.686,0.185
10.05,-0.116,0.959,-0.001
10.06,-0.075,0.724,-0.068
10.07,-0.469,0.783,-0.165
10.08,0.014,1.242,0.26
10.09,-0.38,1.345,0.111
10.1,0.062,0.483,-0.034
10.11,-0.473,0.975,-0.159
10.12,-0.058,1.066,0.215
10.13,-0.244,1.146,0.05
10.14,-0.172,0.831,-0.105
10.15,-0.045,0.588,-0.124
10.16,-0.471,0.99,-0.118
10.17,-0.022,0.928,0.19
10.18,-0.339,1.326,0.022
10.19,-0.115,0.519,-0.077
10.2,-0.491,0.811,-0.097
10.21,-0.0,1.117,0.154
10.22,-0.209,0.982,-0.01
10.23,-0.266,0.845,-0.092
10.24,-0.258,0.613,-0.07
10.25,-0.068,1.339,0.127
10.26,-0.177,0.722,0.036
10.27,-0.299,0.831,-0.193
10.28,-0.293,0.878,-0.028
10.29,-0.097,1.077,0.101
10.3,-0.212,1.106,0.005
10.31,-0.305,0.4,-0.161
10.32,-0.301,1.424,-0.024
10.33,-0.117,0.764,0.083
10.34,-0.222,1.208,-0.008
10.35,-0.279,0.267,-0.239
10.36,-0.238,1.923,0.049
10.37,-0.12,0.784,0.156
10.38,-0.13,0.933,0.02
10.39,-0.404,0.591,-0.19
10.4,-0.286,1.646,0.063
10.41,-0.183,0.94,0.161
10.42,-0.032,0.583,0.013
10.43,-0.59,0.99,-0.173
10.44,-0.123,1.488,0.09
10.45,-0.294,1.092,0.195
10.46,0.03,0.638,0.047
10.47,-0.556,0.775,-0.146
10.48,-0.051,1.829,0.107
10.49,-0.115,0.759,0.15
10.5,-0.04,0.905,-0.003
10.51,-0.404,0.239,-0.191
10.52,-0.12,2.0,0.163
10.53,-0.061,0.747,0.086
10.54,-0.124,0.777,-0.025
10.55,-0.346,0.497,-0.224
10.56,-0.056,1.831,0.132
10.57,-0.132,0.936,0.034
10.58,0.061,0.482,-0.057
10.59,-0.438,0.899,-0.197
10.6,0.001,1.413,0.16
10.61,-0.183,1.349,0.066
10.62,-0.013,0.428,-0.074
10.63,-0.354,0.817,-0.197
10.64,-0.094,1.507,0.13
10.65,-0.115,0.935,0.038
10.66,-0.061,1.035,-0.129
10.67,-0.362,0.236,-0.172
10.68,-0.136,1.711,0.21
10.69,-0.12,0.818,0.094
10.7,-0.141,1.013,-0.104
10.71,-0.364,0.439,-0.156
10.72,-0.1,1.323,0.148
10.73,-0.322,1.208,0.057
10.74,0.04,0.608,-0.1
10.75,-0.517,0.965,-0.133
10.76,0.025,0.964,0.206
10.77,-0.305,1.321,0.023
10.78,-0.076,0.56,-0.121
10.79,-0.496,0.813,-0.088
10.8,-0.078,1.108,0.187
10.81,-0.24,1.012,-0.004
10.82,-0.125,0.884,-0.173
10.83,-0.428,0.473,-0.092
10.84,-0.077,1.386,0.146
10.85,-0.237,0.712,0.017
10.86,-0.313,0.909,-0.067
10.87,-0.338,0.727,-0.06
10.88,-0.084,1.105,0.107
10.89,-0.245,1.121,-0.03
10.9,-0.197,0.406,-0.165
10.91,-0.354,1.277,-0.082
10.92,-0.008,0.795,0.127
10.93,-0.309,1.316,-0.007
10.94,-0.236,0.24,-0.157
10.95,-0.229,1.562,-0.003
10.96,-0.019,0.923,0.079
10.97,-0.126,0.906,0.017
10.98,-0.362,0.771,-0.204
10.99,-0.218,1.127,0.088
11.0,-0.201,1.206,0.136
11.01,-0.031,0.701,0.016
11.02,-0.482,0.923,-0.263
11.03,-0.145,1.216,0.088
11.04,-0.213,1.026,0.165
11.05,-0.106,0.879,0.011
11.06,-0.428,0.502,-0.174
11.07,-0.174,1.939,0.036
11.08,-0.112,0.712,0.121
11.09,-0.041,1.086,0.049
11.1,-0.467,0.376,-0.198
11.11,-0.211,1.993,0.121
11.12,-0.083,0.776,0.068
11.13,-0.143,0.859,0.028
11.14,-0.338,0.463,-0.229
11.15,-0.135,1.819,0.147
11.16,-0.086,0.971,0.091
11.17,-0.012,0.416,-0.057
11.18,-0.408,0.91,-0.21
11.19,-0.096,1.311,0.105
11.2,-0.228,1.276,0.077
11.21,-0.009,0.51,-0.034
11.22,-0.473,0.798,-0.158
11.23,-0.024,1.452,0.181
11.24,-0.141,1.01,0.072
11.25,-0.115,0.982,-0.105
11.26,-0.395,0.268,-0.167
11.27,-0.169,1.699,0.189
11.28,-0.125,0.811,0.096
11.29,-0.136,1.044,-0.082
11.3,-0.389,0.386,-0.209
11.31,-0.076,1.354,0.213
11.32,-0.256,1.157,0.071
11.33,-0.002,0.616,-0.114
11.34,-0.446,0.92,-0.172
11.35,0.003,0.98,0.208
11.36,-0.317,1.359,0.033
11.37,-0.012,0.502,-0.093
11.38,-0.478,0.872,-0.125
11.39,-0.015,1.087,0.195
11.4,-0.153,1.047,-0.061
11.41,-0.207,0.888,-0.11
11.42,-0.424,0.416,-0.089
11.43,-0.142,1.372,0.172
11.44,-0.24,0.748,0.005
11.45,-0.269,0.961,-0.09
11.46,-0.455,0.59,-0.085
11.47,-0.051,1.188,0.171
11.48,-0.27,1.092,0.025
11.49,-0.319,0.386,-0.142
11.5,-0.343,1.24,-0.036
11.51,-0.063,0.841,0.154
11.52,-0.362,1.266,0.021
11.53,-0.208,0.278,-0.158
11.54,-0.305,1.43,-0.028
11.55,-0.052,0.922,0.144
11.56,-0.293,0.986,0.024
11.57,-0.325,0.705,-0.156
11.58,-0.253,1.092,0.028
11.59,-0.18,1.234,0.131
11.6,-0.074,0.694,-0.008
11.61,-0.417,0.926,-0.199
11.62,-0.087,1.275,0.021
11.63,-0.101,1.106,0.145
11.64,-0.145,0.817,-0.019
11.65,-0.417,0.629,-0.18
11.66,-0.2,1.923,-0.003
11.67,-0.096,0.659,0.109
11.68,-0.123,1.102,0.012
11.69,-0.441,0.312,-0.215
11.7,-0.218,1.964,0.073
11.71,-0.171,0.683,0.107
11.72,-0.034,0.822,0.026
11.73,-0.534,0.657,-0.199
11.74,-0.024,1.66,0.067
11.75,-0.257,1.146,0.107
11.76,0.082,0.383,0.023
11.77,-0.537,0.973,-0.166
11.78,0.033,1.602,0.146
11.79,-0.201,1.103,0.118
11.8,0.097,0.583,-0.016
11.81,-0.522,0.56,-0.193
11.82,-0.011,1.91,0.146
11.83,-0.114,0.659,0.104
11.84,-0.084,0.94,-0.042
11.85,-0.309,0.27,-0.217
11.86,-0.152,1.94,0.126
11.87,-0.016,0.872,0.061
11.88,-0.133,0.731,-0.053
11.89,-0.323,0.602,-0.214
11.9,-0.152,1.448,0.179
11.91,-0.22,1.225,0.129
11.92,0.007,0.516,-0.064
11.93,-0.436,0.967,-0.146
11.94,-0.043,1.001,0.186
11.95,-0.271,1.393,0.011
11.96,-0.047,0.5,-0.033
11.97,-0.426,0.919,-0.092
11.98,-0.047,1.089,0.16
11.99,-0.22,1.032,-0.022
12.0,-0.264,0.867,-0.128
12.01,-0.311,0.424,-0.053
12.02,-0.236,1.349,0.185
12.03,-0.203,0.682,0.003
12.04,-0.284,1.017,-0.105
12.05,-0.381,0.558,-0.034
12.06,-0.105,1.177,0.171
12.07,-0.269,1.045,-0.02
12.08,-0.272,0.486,-0.167
12.09,-0.264,1.252,-0.034
12.1,-0.052,0.812,0.114
12.11,-0.337,1.256,0.01
12.12,-0.218,0.281,-0.181
12.13,-0.288,1.508,-0.023
12.14,-0.059,0.885,0.121
12.15,-0.229,0.99,-0.051
12.16,-0.388,0.636,-0.223
12.17,-0.147,1.178,0.028
12.18,-0.148,1.228,0.096
12.19,-0.101,0.646,0.055
12.2,-0.393,1.029,-0.195
12.21,-0.182,1.302,0.032
12.22,-0.102,1.072,0.152
12.23,-0.073,0.848,-0.035
12.24,-0.488,0.59,-0.19
12.25,-0.144,1.93,0.017
12.26,-0.137,0.683,0.125
12.27,-0.076,1.078,0.025
12.28,-0.47,0.285,-0.2
12.29,-0.177,2.0,0.068
12.3,-0.203,0.64,0.121
12.31,-0.007,0.851,0.015
12.32,-0.527,0.613,-0.178
12.33,-0.036,1.644,0.115
12.34,-0.223,1.111,0.133
12.35,0.084,0.372,0.014
12.36,-0.589,0.934,-0.186
12.37,0.016,1.563,0.144
12.38,-0.221,1.16,0.087
12.39,0.013,0.514,-0.013
12.4,-0.443,0.594,-0.181
12.41,-0.146,1.782,0.191
12.42,-0.062,0.71,0.106
12.43,-0.174,0.955,-0.043
12.44,-0.295,0.246,-0.127
12.45,-0.17,1.805,0.125
12.46,-0.112,0.848,0.119
12.47,-0.117,0.828,-0.097
12.48,-0.346,0.564,-0.221
12.49,-0.103,1.315,0.2
12.5,-0.194,1.269,0.077
12.51,0.008,0.528,-0.08
12.52,-0.469,1.003,-0.136
12.53,-0.043,1.042,0.203
12.54,-0.379,1.289,0.14
12.55,-0.09,0.686,-0.052
12.56,-0.429,0.683,-0.119
12.57,-0.137,1.299,0.184
12.58,-0.148,0.922,-0.01
12.59,-0.19,1.096,-0.069
12.6,-0.291,0.302,-0.135
12.61,-0.177,1.387,0.194
12.62,-0.185,0.84,0.006
12.63,-0.218,0.945,-0.087
12.64,-0.387,0.623,-0.166
12.65,-0.072,1.09,0.191
12.66,-0.275,1.198,-0.027
12.67,-0.164,0.437,-0.156
12.68,-0.369,1.091,-0.05
12.69,-0.068,0.842,0.148
12.7,-0.309,1.313,0.002
12.71,-0.194,0.392,-0.118
12.72,-0.313,1.045,-0.02
12.73,-0.077,1.074,0.135
12.74,-0.242,1.017,-0.047
12.75,-0.375,0.632,-0.21
12.76,-0.162,1.261,0.019
12.77,-0.213,1.13,0.15
12.78,-0.003,0.658,0.015
12.79,-0.589,0.964,-0.164
12.8,-0.144,1.233,0.11
12.81,-0.247,1.044,0.16
12.82,-0.082,0.801,0.02
12.83,-0.502,0.601,-0.21
12.84,-0.181,1.893,0.056
12.85,-0.13,0.67,0.14
12.86,-0.104,1.08,0.023
12.87,-0.478,0.313,-0.123
12.88,-0.237,2.0,0.131
12.89,-0.189,0.658,0.149
12.9,-0.053,0.847,0.008
12.91,-0.423,0.6,-0.209
12.92,-0.14,1.677,0.147
12.93,-0.171,1.107,0.142
12.94,0.033,0.357,0.005
12.95,-0.49,0.941,-0.186
12.96,-0.034,1.455,0.142
12.97,-0.174,1.205,0.105
12.98,0.023,0.534,-0.051
12.99,-0.394,0.653,-0.178
13.0,-0.073,1.698,0.133
13.01,-0.084,0.797,0.101
13.02,-0.141,1.02,-0.088
13.03,-0.341,0.211,-0.202
13.04,-0.132,1.789,0.128
13.05,-0.149,0.852,0.064
13.06,-0.071,0.87,-0.048
13.07,-0.419,0.524,-0.182
13.08,-0.08,1.271,0.172
13.09,-0.269,1.226,0.048
13.1,-0.048,0.552,-0.083
13.11,-0.456,0.993,-0.122
13.12,-0.05,1.094,0.2
13.13,-0.338,1.231,0.092
13.14,-0.015,0.686,-0.046
13.15,-0.483,0.741,-0.085
13.16,-0.097,1.233,0.187
13.17,-0.26,0.905,-0.013
13.18,-0.145,1.022,-0.11
13.19,-0.457,0.344,-0.067
13.2,-0.185,1.367,0.207
13.21,-0.24,0.763,0.056
13.22,-0.295,0.812,-0.137
13.23,-0.371,0.704,-0.105
13.24,-0.104,1.04,0.16
13.25,-0.281,1.181,-0.069
13.26,-0.125,0.327,-0.151
13.27,-0.355,1.296,-0.034
13.28,0.058,0.851,0.127
13.29,-0.364,1.25,-0.008
13.3,-0.173,0.37,-0.173
13.31,-0.318,1.184,-0.009
13.32,-0.115,1.06,0.111
13.33,-0.182,0.871,0.011
13.34,-0.43,0.771,-0.196
13.35,-0.185,0.891,0.024
13.36,-0.225,1.238,0.106
13.37,-0.09,0.75,0.033
13.38,-0.394,0.839,-0.244
13.39,-0.133,1.357,0.023
13.4,-0.066,0.999,0.1
13.41,-0.175,0.989,0.003
13.42,-0.37,0.448,-0.199
13.43,-0.24,1.939,0.059
13.44,-0.082,0.638,0.177
13.45,-0.155,1.118,0.007
13.46,-0.464,0.4,-0.188
13.47,-0.257,1.941,0.079
13.48,-0.182,0.838,0.104
13.49,-0.03,0.706,0.046
13.5,-0.527,0.884,-0.216
13.51,-0.031,1.497,0.094
13.52,-0.217,1.197,0.115
13.53,0.065,0.422,0.033
13.54,-0.549,0.909,-0.158
13.55,0.01,1.478,0.11
13.56,-0.205,1.192,0.125
13.57,0.054,0.563,-0.057
13.58,-0.481,0.7,-0.214
13.59,0.016,1.738,0.099
13.6,-0.111,0.806,0.047
13.61,-0.003,0.991,-0.091
13.62,-0.376,0.249,-0.2
13.63,-0.124,1.72,0.133
13.64,-0.092,0.868,0.097
13.65,-0.209,0.903,-0.031
13.66,-0.405,0.46,-0.178
13.67,-0.187,1.334,0.178
13.68,-0.268,1.161,0.046
13.69,-0.002,0.644,-0.064
13.7,-0.513,0.962,-0.119
13.71,-0.045,1.001,0.183
13.72,-0.319,1.302,0.102
13.73,0.029,0.587,-0.044
13.74,-0.524,0.807,-0.086
13.75,-0.08,1.248,0.232
13.76,-0.302,0.909,0.067
13.77,-0.225,0.997,-0.083
13.78,-0.283,0.334,-0.12
13.79,-0.199,1.414,0.185
13.8,-0.211,0.736,-0.01
13.81,-0.276,0.917,-0.1
13.82,-0.374,0.643,-0.096
13.83,-0.08,1.087,0.159
13.84,-0.271,1.142,-0.051
13.85,-0.176,0.406,-0.158
13.86,-0.401,1.169,-0.033
13.87,-0.02,0.878,0.159
13.88,-0.359,1.278,0.068
13.89,-0.187,0.385,-0.135
13.9,-0.367,1.101,0.005
13.91,-0.045,1.044,0.178
13.92,-0.315,0.871,-0.018
13.93,-0.288,0.747,-0.18
13.94,-0.207,0.902,-0.032
13.95,-0.159,1.295,0.151
13.96,-0.131,0.745,0.037
13.97,-0.48,0.883,-0.197
13.98,-0.173,1.188,0.023
13.99,-0.158,1.024,0.093
14.0,-0.137,1.039,0.006
14.01,-0.271,0.464,-0.285
14.02,-0.265,1.813,0.044
14.03,-0.015,0.71,0.129
14.04,-0.213,1.172,0.027
14.05,-0.396,0.331,-0.202
14.06,-0.268,1.892,0.066
14.07,-0.097,0.817,0.135
14.08,-0.083,0.771,0.019
14.09,-0.534,0.823,-0.175
14.1,-0.116,1.49,0.084
14.11,-0.289,1.114,0.199
14.12,0.057,0.519,0.085
14.13,-0.637,0.969,-0.14
14.14,-0.066,1.623,0.102
14.15,-0.134,0.983,0.107
14.16,0.029,0.743,-0.015
14.17,-0.453,0.478,-0.181
14.18,-0.031,1.923,0.118
14.19,-0.057,0.669,0.149
14.2,-0.138,0.947,-0.03
14.21,-0.287,0.289,-0.216
14.22,-0.17,2.0,0.129
14.23,-0.129,0.807,0.127
14.24,0.001,0.643,-0.002
14.25,-0.491,0.743,-0.224
14.26,-0.076,1.365,0.181
14.27,-0.219,1.269,0.109
14.28,0.077,0.4,-0.058
14.29,-0.514,0.959,-0.156
14.3,0.027,1.332,0.218
14.31,-0.252,1.138,0.055
14.32,0.019,0.814,-0.089
14.33,-0.423,0.467,-0.192
14.34,-0.08,1.651,0.209
14.35,-0.217,0.997,-0.002
14.36,-0.111,1.002,-0.126
14.37,-0.415,0.352,-0.118
14.38,-0.116,1.431,0.17
14.39,-0.2,0.775,-0.0
14.4,-0.224,1.041,-0.132
14.41,-0.465,0.508,-0.155
14.42,-0.12,1.224,0.225
14.43,-0.305,1.15,0.047
14.44,-0.175,0.52,-0.14
14.45,-0.463,1.014,-0.083
14.46,0.002,0.872,0.213
14.47,-0.362,1.365,0.049
14.48,-0.19,0.361,-0.117
14.49,-0.36,1.04,-0.053
14.5,-0.045,1.062,0.157
14.51,-0.21,0.908,-0.018
14.52,-0.299,0.732,-0.144
14.53,-0.237,0.801,-0.076
14.54,-0.137,1.288,0.11
14.55,-0.085,0.731,-0.017
14.56,-0.415,0.879,-0.182
14.57,-0.204,1.061,-0.057
14.58,-0.116,1.033,0.068
14.59,-0.175,1.043,-0.036
14.6,-0.255,0.493,-0.258
14.61,-0.213,1.703,0.001
14.62,-0.057,0.724,0.135
14.63,-0.229,1.199,0.023
14.64,-0.259,0.356,-0.241
14.65,-0.3,1.775,0.053
14.66,-0.153,0.841,0.147
14.67,-0.058,0.814,0.039
14.68,-0.512,0.765,-0.232
14.69,-0.113,1.48,0.078
14.7,-0.322,1.103,0.175
14.71,0.068,0.539,0.059
14.72,-0.562,1.021,-0.133
14.73,-0.083,1.589,0.067
14.74,-0.267,1.011,0.17
14.75,0.005,0.74,0.027
14.76,-0.495,0.553,-0.137
14.77,-0.081,1.944,0.145
14.78,-0.128,0.577,0.105
14.79,-0.025,1.005,-0.026
14.8,-0.389,0.296,-0.178
14.81,-0.134,1.994,0.117
14.82,-0.14,0.807,0.107
14.83,-0.067,0.625,-0.033
14.84,-0.501,0.699,-0.152
14.85,-0.077,1.534,0.179
14.86,-0.238,1.24,0.119
14.87,0.055,0.409,-0.016
14.88,-0.505,0.946,-0.17
14.89,-0.01,1.394,0.159
14.9,-0.247,1.132,0.068
14.91,-0.018,0.673,-0.083
14.92,-0.427,0.561,-0.146
14.93,-0.118,1.658,0.167
14.94,-0.101,0.815,0.113
14.95,-0.198,1.017,-0.079
14.96,-0.378,0.284,-0.129
14.97,-0.198,1.587,0.169
14.98,-0.143,0.906,0.104
14.99,-0.166,0.862,-0.044
15.0,-0.363,0.616,-0.163
15.01,-0.046,1.225,0.166
15.02,-0.122,1.284,-0.006
15.03,-0.069,0.443,-0.17
15.04,-0.488,1.029,-0.129
15.05,-0.04,1.031,0.16
15.06,-0.262,1.192,0.083
15.07,-0.095,0.669,-0.118
15.08,-0.474,0.67,-0.102
15.09,-0.098,1.308,0.185
15.1,-0.212,0.805,-0.015
15.11,-0.269,0.98,-0.099
15.12,-0.406,0.328,-0.094
15.13,-0.159,1.413,0.199
15.14,-0.143,0.837,0.046
15.15,-0.441,0.875,-0.144
15.16,-0.215,0.822,-0.038
15.17,-0.205,1.156,0.117
15.18,-0.202,1.036,0.006
15.19,-0.29,0.451,-0.167
15.2,-0.179,1.659,-0.058
15.21,0.0,0.762,0.113
15.22,-0.185,1.158,0.045
15.23,-0.354,0.382,-0.171
15.24,-0.309,1.659,0.008
15.25,-0.166,0.845,0.098
15.26,-0.162,0.943,0.04
15.27,-0.403,0.75,-0.272
15.28,-0.231,1.302,0.038
15.29,-0.201,1.163,0.163
15.3,-0.046,0.642,0.068
15.31,-0.466,0.989,-0.19
15.32,-0.163,1.426,0.083
15.33,-0.18,1.121,0.177
15.34,-0.052,0.737,0.069
15.35,-0.463,0.653,-0.177
15.36,-0.303,1.913,0.104
15.37,-0.154,0.568,0.086
15.38,-0.108,1.155,0.02
15.39,-0.448,0.337,-0.163
15.4,-0.216,1.96,0.076
15.41,-0.167,0.711,0.086
15.42,-0.023,0.803,0.041
15.43,-0.414,0.687,-0.219
15.44,-0.077,1.565,0.033
15.45,-0.147,1.128,0.106
15.46,0.015,0.399,-0.041
15.47,-0.407,0.933,-0.196
15.48,0.013,1.573,0.096
15.49,-0.128,1.039,0.06
15.5,0.047,0.564,-0.076
15.51,-0.381,0.638,-0.217
15.52,-0.021,1.898,0.083
15.53,-0.064,0.674,0.078
15.54,-0.08,0.897,-0.007
15.55,-0.342,0.247,-0.159
15.56,-0.202,1.871,0.076
15.57,-0.087,0.788,0.071
15.58,-0.125,0.803,-0.069
15.59,-0.346,0.577,-0.211
15.6,-0.036,1.609,0.168
15.61,-0.208,1.279,0.058
15.62,-0.011,0.376,-0.044
15.63,-0.438,0.984,-0.17
15.64,-0.054,1.291,0.232
15.65,-0.207,1.289,0.02
15.66,0.013,0.625,-0.067
15.67,-0.408,0.614,-0.136
15.68,-0.074,1.533,0.152
15.69,-0.145,0.909,0.067
15.7,-0.163,1.12,-0.06
15.71,-0.422,0.197,-0.109
15.72,-0.203,1.605,0.254
15.73,-0.148,0.967,0.072
15.74,-0.156,0.908,-0.125
15.75,-0.378,0.59,-0.128
15.76,-0.135,1.137,0.205
15.77,-0.308,1.26,0.013
15.78,-0.012,0.555,-0.098
15.79,-0.499,0.998,-0.098
15.8,0.038,0.933,0.163
15.81,-0.311,1.319,-0.035
15.82,-0.191,0.516,-0.1
15.83,-0.407,0.794,-0.083
15.84,-0.125,1.153,0.197
15.85,-0.229,0.825,0.011
15.86,-0.321,0.853,-0.084
15.87,-0.346,0.551,-0.008
15.88,-0.143,1.333,0.166
15.89,-0.207,0.769,0.043
15.9,-0.415,0.794,-0.121
15.91,-0.261,0.918,-0.031
15.92,-0.143,1.022,0.155
15.93,-0.24,1.238,0.039
15.94,-0.296,0.303,-0.144
15.95,-0.327,1.556,-0.025
15.96,-0.053,0.751,0.141
15.97,-0.176,1.211,0.037
15.98,-0.271,0.255,-0.257
15.99,-0.23,1.905,0.015
16.0,-0.081,0.793,0.08
16.01,-0.038,0.85,0.028
16.02,-0.408,0.693,-0.216
16.03,-0.173,1.612,0.044
16.04,-0.289,1.021,0.123
16.05,0.035,0.523,0.076
16.06,-0.564,1.036,-0.18
16.07,-0.143,1.474,0.101
16.08,-0.293,1.057,0.114
16.09,-0.033,0.663,0.049
16.1,-0.442,0.706,-0.157
16.11,-0.096,1.872,0.111
16.12,-0.08,0.71,0.115
16.13,-0.05,0.937,-0.058
16.14,-0.41,0.217,-0.211
16.15,-0.09,2.0,0.136
16.16,-0.169,0.688,0.06
16.17,-0.059,0.777,-0.005
16.18,-0.396,0.527,-0.252
16.19,-0.07,1.678,0.137
16.2,-0.218,1.161,0.068
16.21,0.05,0.357,-0.064
16.22,-0.511,0.956,-0.15
16.23,-0.035,1.397,0.141
16.24,-0.262,1.229,0.121
16.25,-0.046,0.575,-0.072
16.26,-0.431,0.69,-0.168
16.27,-0.092,1.63,0.161
16.28,-0.168,0.854,0.062
16.29,-0.1,0.996,-0.144
16.3,-0.325,0.256,-0.154
16.31,-0.217,1.63,0.214
16.32,-0.177,0.838,0.115
16.33,-0.187,0.96,-0.087
16.34,-0.273,0.495,-0.211
16.35,-0.033,1.291,0.168
16.36,-0.234,1.231,0.051
16.37,0.019,0.568,-0.165
16.38,-0.398,0.983,-0.193
16.39,0.075,0.939,0.169
16.4,-0.297,1.425,0.019
16.41,-0.108,0.542,-0.093
16.42,-0.389,0.737,-0.08
16.43,-0.088,1.164,0.191
16.44,-0.229,0.932,-0.001
16.45,-0.221,0.999,-0.084
16.46,-0.383,0.412,-0.054
16.47,-0.144,1.391,0.209
16.48,-0.214,0.803,0.031
16.49,-0.392,0.796,-0.102
16.5,-0.26,0.867,-0.035
16.51,-0.124,1.053,0.163
16.52,-0.209,1.156,0.015
16.53,-0.331,0.38,-0.139
16.54,-0.259,1.44,-0.048
16.55,-0.094,0.797,0.146
16.56,-0.249,1.272,0.022
16.57,-0.327,0.318,-0.163
16.58,-0.245,1.441,-0.041
16.59,-0.124,0.969,0.071
16.6,-0.192,0.861,0.014
16.61,-0.361,0.87,-0.232
16.62,-0.247,1.141,0.081
16.63,-0.15,1.202,0.168
16.64,-0.08,0.656,-0.001
16.65,-0.521,0.901,-0.171
16.66,-0.132,1.544,0.081
16.67,-0.207,0.951,0.107
16.68,-0.021,0.916,0.021
16.69,-0.398,0.51,-0.202
16.7,-0.25,1.968,0.119
16.71,-0.097,0.589,0.091
16.72,-0.085,1.065,-0.015
16.73,-0.383,0.28,-0.222
16.74,-0.126,1.944,0.062
16.75,-0.061,0.841,0.083
16.76,-0.067,0.821,-0.012
16.77,-0.434,0.528,-0.166
16.78,-0.107,1.694,0.195
16.79,-0.27,1.138,0.103
16.8,0.009,0.426,-0.041
16.81,-0.523,0.979,-0.16
16.82,-0.002,1.33,0.211
16.83,-0.296,1.209,0.104
16.84,-0.022,0.534,-0.051
16.85,-0.475,0.745,-0.148
16.86,-0.049,1.478,0.133
16.87,-0.242,0.923,0.076
16.88,-0.156,1.038,-0.065
16.89,-0.391,0.186,-0.152
16.9,-0.184,1.625,0.202
16.91,-0.119,0.856,0.057
16.92,-0.129,0.959,-0.125
16.93,-0.412,0.454,-0.18
16.94,-0.062,1.257,0.192
16.95,-0.235,1.2,0.03
16.96,-0.129,0.473,-0.133
16.97,-0.446,0.938,-0.151
16.98,-0.068,0.922,0.223
16.99,-0.32,1.339,0.036
17.0,-0.139,0.459,-0.091
17.01,-0.456,0.796,-0.081
17.02,-0.152,1.111,0.18
17.03,-0.171,0.975,0.019
17.04,-0.329,0.839,-0.111
17.05,-0.405,0.361,0.031
17.06,-0.258,1.396,0.219
17.07,-0.186,0.791,0.07
17.08,-0.301,0.804,-0.118
17.09,-0.383,0.744,-0.017
17.1,-0.053,1.148,0.145
17.11,-0.226,1.094,-0.005
17.12,-0.247,0.421,-0.135
17.13,-0.323,1.42,-0.067
17.14,0.025,0.792,0.101
17.15,-0.347,1.284,0.009
17.16,-0.208,0.34,-0.202
17.17,-0.244,1.587,-0.081
17.18,-0.051,0.978,0.095
17.19,-0.124,0.792,-0.004
17.2,-0.409,0.829,-0.202
17.21,-0.177,1.193,-0.012
17.22,-0.201,1.137,0.116
17.23,0.001,0.7,0.008
17.24,-0.525,0.967,-0.215
17.25,-0.162,1.268,0.059
17.26,-0.268,1.007,0.164
17.27,-0.122,0.938,0.042
17.28,-0.422,0.547,-0.142
17.29,-0.277,1.928,0.069
17.3,-0.104,0.706,0.2
17.31,-0.142,1.054,0.056
17.32,-0.382,0.344,-0.167
17.33,-0.255,1.929,0.107
17.34,-0.122,0.763,0.107
17.35,-0.098,0.745,0.019
17.36,-0.492,0.692,-0.203
17.37,-0.017,1.633,0.084
17.38,-0.265,1.061,0.097
17.39,0.125,0.442,0.024
17.4,-0.547,0.99,-0.197
17.41,-0.057,1.542,0.137
17.42,-0.202,1.053,0.104
17.43,0.056,0.619,-0.044
17.44,-0.343,0.482,-0.205
17.45,-0.119,1.841,0.082
17.46,-0.041,0.655,0.097
17.47,-0.13,1.006,-0.07
17.48,-0.368,0.228,-0.188
17.49,-0.139,1.859,0.135
17.5,-0.123,0.889,0.056
17.51,-0.093,0.599,-0.059
17.52,-0.42,0.714,-0.206
17.53,-0.03,1.281,0.161
17.54,-0.238,1.257,0.074
17.55,0.034,0.495,-0.099
17.56,-0.48,0.915,-0.169
17.57,-0.008,0.993,0.19
17.58,-0.276,1.367,0.039
17.59,-0.142,0.431,-0.123
17.6,-0.385,0.92,-0.079
17.61,-0.092,1.096,0.186
17.62,-0.303,1.005,0.113
17.63,-0.275,0.856,-0.074
17.64,-0.458,0.396,-0.016
17.65,-0.228,1.372,0.206
17.66,-0.114,0.756,0.023
17.67,-0.432,0.855,-0.124
17.68,-0.303,0.6,-0.042
17.69,-0.161,1.128,0.129
17.7,-0.16,1.11,-0.01
17.71,-0.226,0.412,-0.163
17.72,-0.295,1.452,-0.076
17.73,0.041,0.855,0.148
17.74,-0.253,1.256,0.025
17.75,-0.158,0.376,-0.261
17.76,-0.323,1.493,-0.082
17.77,-0.043,0.93,0.082
17.78,-0.201,0.91,0.043
17.79,-0.348,0.794,-0.204
17.8,-0.197,1.227,-0.007
17.81,-0.217,1.207,0.169
17.82,-0.079,0.605,0.084
17.83,-0.484,1.035,-0.137
17.84,-0.258,1.397,0.092
17.85,-0.244,1.03,0.169
17.86,-0.103,0.854,0.046
17.87,-0.418,0.574,-0.182
17.88,-0.297,1.875,0.102
17.89,-0.138,0.619,0.142
17.9,-0.203,1.08,0.045
17.91,-0.294,0.329,-0.182
17.92,-0.302,1.928,0.121
17.93,-0.093,0.789,0.129
17.94,-0.071,0.745,0.015
17.95,-0.324,0.735,-0.213
17.96,-0.096,1.626,0.048
17.97,-0.21,1.089,0.093
17.98,-0.002,0.392,-0.036
17.99,-0.533,0.976,-0.2
18.0,-0.042,1.634,0.135
18.01,-0.246,1.018,0.077
18.02,-0.012,0.558,-0.009
18.03,-0.444,0.618,-0.178
18.04,-0.174,1.768,0.172
18.05,-0.041,0.66,0.085
18.06,-0.144,0.993,-0.051
18.07,-0.393,0.26,-0.151
18.08,-0.212,1.825,0.222
18.09,-0.187,0.873,0.095
18.1,-0.117,0.761,-0.041
18.11,-0.426,0.64,-0.154
18.12,-0.048,1.385,0.221
18.13,-0.221,1.266,0.101
18.14,0.006,0.394,-0.067
18.15,-0.524,0.991,-0.144
18.16,0.005,1.143,0.142
18.17,-0.268,1.193,0.043
18.18,-0.105,0.687,-0.093
18.19,-0.385,0.566,-0.148
18.2,-0.113,1.459,0.178
18.21,-0.098,0.917,0.03
18.22,-0.252,1.038,-0.153
18.23,-0.263,0.209,-0.213
18.24,-0.23,1.451,0.162
18.25,-0.098,0.889,0.023
18.26,-0.316,0.827,-0.112
18.27,-0.385,0.622,-0.134
18.28,-0.104,1.07,0.219
18.29,-0.309,1.227,0.031
18.3,-0.172,0.399,-0.079
18.31,-0.5,1.048,-0.079
18.32,-0.045,0.92,0.232
18.33,-0.298,1.336,0.023
18.34,-0.245,0.381,-0.155
18.35,-0.332,0.823,-0.091
18.36,-0.077,1.216,0.167
18.37,-0.109,1.031,-0.029
18.38,-0.296,0.697,-0.221
18.39,-0.286,0.95,-0.075
18.4,-0.138,1.217,0.092
18.41,-0.061,0.754,0.009
18.42,-0.457,0.918,-0.216
18.43,-0.201,1.145,-0.009
18.44,-0.139,1.044,0.072
18.45,-0.13,0.895,-0.009
18.46,-0.303,0.677,-0.198
18.47,-0.28,1.779,-0.009
18.48,-0.072,0.682,0.086
18.49,-0.022,1.36,0.179
18.5,-0.23,1.22,-0.019
18.51,-0.143,0.649,-0.161
18.52,-0.398,0.552,-0.14
18.53,-0.187,1.301,0.166
18.54,-0.149,0.766,-0.036
18.55,-0.346,0.982,-0.108
18.56,-0.405,0.357,-0.059
18.57,-0.144,1.304,0.189
18.58,-0.212,0.945,0.018
18.59,-0.227,0.656,-0.137
18.6,-0.448,0.949,-0.025
18.61,-0.02,0.955,0.158
18.62,-0.296,1.256,-0.01
18.63,-0.153,0.304,-0.155
18.64,-0.354,1.315,-0.073
18.65,0.014,0.792,0.06
18.66,-0.256,1.208,-0.014
18.67,-0.275,0.497,-0.214
18.68,-0.206,1.129,-0.092
18.69,-0.119,1.157,0.119
18.7,-0.064,0.762,0.001
18.71,-0.461,0.907,-0.212
18.72,-0.101,1.123,-0.009
18.73,-0.235,1.192,0.141
18.74,-0.037,0.705,0.06
18.75,-0.41,0.81,-0.215
18.76,-0.237,1.619,0.023
18.77,-0.128,0.765,0.122
18.78,-0.177,1.078,0.038
18.79,-0.313,0.304,-0.201
18.8,-0.317,2.0,0.052
18.81,-0.123,0.63,0.142
18.82,-0.076,1.027,0.067
18.83,-0.41,0.524,-0.146
18.84,-0.259,1.745,0.132
18.85,-0.237,0.912,0.131
18.86,0.002,0.596,0.016
18.87,-0.505,0.936,-0.182
18.88,0.002,1.509,0.08
18.89,-0.201,1.131,0.08
18.9,0.146,0.495,-0.001
18.91,-0.464,0.861,-0.202
18.92,0.045,1.805,0.059
18.93,-0.1,0.823,0.107
18.94,-0.027,0.832,-0.048
18.95,-0.393,0.317,-0.225
18.96,-0.129,2.0,0.139
18.97,-0.127,0.643,0.118
18.98,-0.089,0.833,-0.027
18.99,-0.46,0.446,-0.136
19.0,-0.113,1.701,0.177
19.01,-0.249,1.037,0.133
19.02,0.029,0.534,-0.043
19.03,-0.531,0.914,-0.163
19.04,0.033,1.322,0.191
19.05,-0.294,1.399,0.113
19.06,-0.033,0.446,-0.024
19.07,-0.495,0.833,-0.123
19.08,-0.053,1.438,0.173
19.09,-0.148,1.063,0.069
19.1,-0.164,0.705,-0.125
19.11,-0.383,0.522,-0.163
19.12,-0.199,1.322,0.186
19.13,-0.128,0.875,-0.001
19.14,-0.366,0.973,-0.123
19.15,-0.394,0.227,-0.1
19.16,-0.135,1.398,0.189
19.17,-0.2,0.896,-0.022
19.18,-0.244,0.729,-0.127
19.19,-0.382,0.733,-0.11
19.2,-0.044,0.996,0.204
19.21,-0.271,1.355,-0.002
19.22,-0.13,0.301,-0.091
19.23,-0.41,1.355,-0.081
19.24,0.102,0.874,0.137
19.25,-0.254,1.219,0.003
19.26,-0.239,0.52,-0.225
19.27,-0.288,1.105,-0.046
19.28,-0.111,1.108,0.107
19.29,-0.127,0.76,-0.0
19.3,-0.395,0.921,-0.211
19.31,-0.179,1.042,-0.059
19.32,-0.116,1.191,0.101
19.33,-0.155,0.753,0.021
19.34,-0.376,0.85,-0.212
19.35,-0.269,1.585,0.012
19.36,-0.131,0.819,0.122
19.37,-0.112,1.043,0.034
19.38,-0.306,0.432,-0.259
19.39,-0.247,2.0,0.061
19.4,-0.153,0.66,0.093
19.41,-0.112,0.972,0.057
19.42,-0.372,0.548,-0.182
19.43,-0.233,1.787,0.119
19.44,-0.255,0.835,0.139
19.45,0.076,0.627,0.049
19.46,-0.424,0.92,-0.257
19.47,-0.023,1.484,0.138
19.48,-0.198,1.192,0.157
19.49,0.066,0.424,0.014
19.5,-0.445,0.843,-0.174
19.51,0.01,1.78,0.097
19.52,-0.14,0.821,0.108
19.53,-0.008,0.816,-0.067
19.54,-0.422,0.311,-0.174
19.55,-0.087,2.0,0.119
19.56,-0.106,0.677,0.074
19.57,-0.073,0.866,-0.039
19.58,-0.343,0.383,-0.248
19.59,-0.074,1.758,0.202
19.6,-0.208,1.028,0.105
19.61,-0.007,0.467,-0.07
19.62,-0.472,0.898,-0.207
19.63,-0.017,1.292,0.201
19.64,-0.282,1.323,0.124
19.65,0.004,0.496,-0.074
19.66,-0.485,0.819,-0.181
19.67,-0.031,1.29,0.161
19.68,-0.182,1.083,0.031
19.69,-0.142,0.942,-0.092
19.7,-0.361,0.287,-0.11
19.71,-0.2,1.566,0.231
19.72,-0.102,0.861,0.068
19.73,-0.266,1.023,-0.141
19.74,-0.327,0.353,-0.123
19.75,-0.135,1.304,0.168
19.76,-0.194,1.058,-0.014
19.77,-0.123,0.594,-0.13
19.78,-0.426,0.919,-0.165
19.79,-0.02,0.958,0.21
19.8,-0.301,1.287,0.018
19.81,-0.207,0.356,-0.097
19.82,-0.438,0.993,-0.075
19.83,-0.092,1.012,0.19
19.84,-0.279,1.092,0.02
19.85,-0.217,0.678,-0.131
19.86,-0.335,0.734,-0.04
19.87,-0.101,1.329,0.13
19.88,-0.18,0.707,0.022
19.89,-0.315,0.931,-0.124
19.9,-0.215,0.989,-0.111
19.91,-0.157,1.205,0.122
19.92,-0.108,0.717,0.041
19.93,-0.434,0.886,-0.229
19.94,-0.288,1.451,0.079
19.95,-0.224,0.781,0.168
19.96,-0.097,1.158,0.035
19.97,-0.385,0.397,-0.17
19.98,-0.312,1.89,0.112
19.99,-0.043,0.708,0.145
20.0,-0.174,0.998,0.086
20.01,-0.326,0.432,-0.165
20.02,-0.171,1.877,0.142
20.03,-0.161,0.855,0.096
20.04,0.028,0.563,-0.001
20.05,-0.539,0.905,-0.154
20.06,0.012,1.529,0.131
20.07,-0.288,1.141,0.118
20.08,0.067,0.376,0.027
20.09,-0.54,0.868,-0.178
20.1,0.011,1.662,0.076
20.11,-0.171,0.901,0.1
20.12,-0.043,0.815,-0.001
20.13,-0.429,0.343,-0.175
20.14,-0.15,1.958,0.251
20.15,-0.179,0.704,0.138
20.16,-0.134,0.922,-0.058
20.17,-0.363,0.351,-0.162
20.18,-0.143,1.677,0.161
20.19,-0.274,1.063,0.129
20.2,0.006,0.528,-0.078
20.21,-0.488,0.835,-0.13
20.22,0.01,1.189,0.244
20.23,-0.371,1.349,0.043
20.24,-0.003,0.545,-0.079
20.25,-0.457,0.812,-0.143
20.26,-0.032,1.236,0.202
20.27,-0.217,1.134,0.069
20.28,-0.123,0.858,-0.094
20.29,-0.337,0.419,-0.1
20.3,-0.25,1.418,0.163
20.31,-0.141,0.816,0.007
20.32,-0.26,1.026,-0.123
20.33,-0.372,0.399,-0.137
20.34,-0.137,1.302,0.203
20.35,-0.196,0.987,-0.021
20.36,-0.294,0.544,-0.146
20.37,-0.392,0.936,-0.073
20.38,-0.076,0.868,0.138
20.39,-0.3,1.365,0.016
20.4,-0.13,0.231,-0.129
20.41,-0.329,1.301,-0.051
20.42,0.016,0.948,0.15
20.43,-0.191,1.042,-0.01
20.44,-0.367,0.658,-0.183
20.45,-0.203,0.909,-0.068
20.46,-0.194,1.283,0.125
20.47,-0.105,0.717,0.013
20.48,-0.436,0.933,-0.208
20.49,-0.224,1.057,0.017
20.5,-0.111,1.139,0.142
20.51,-0.201,0.9,0.016
20.52,-0.325,0.615,-0.162
20.53,-0.26,1.792,0.052
20.54,-0.057,0.74,0.161
20.55,-0.173,1.112,0.056
20.56,-0.406,0.327,-0.23
20.57,-0.266,1.972,0.062
20.58,-0.164,0.65,0.085
20.59,-0.131,0.938,0.03
20.6,-0.445,0.681,-0.213
20.61,-0.158,1.606,0.057
20.62,-0.244,1.045,0.139
20.63,0.098,0.511,0.025
20.64,-0.55,1.016,-0.155
20.65,-0.044,1.476,0.149
20.66,-0.215,1.115,0.148
20.67,0.035,0.578,-0.02
20.68,-0.424,0.694,-0.216
20.69,0.006,1.87,0.106
20.7,-0.1,0.73,0.1
20.71,-0.093,0.744,-0.069
20.72,-0.388,0.376,-0.133
20.73,-0.185,1.753,0.199
20.74,-0.074,0.767,0.111
20.75,-0.143,1.021,-0.048
20.76,-0.416,0.229,-0.148
20.77,-0.104,1.615,0.216
20.78,-0.171,0.955,0.016
20.79,-0.057,0.704,-0.124
20.8,-0.427,0.851,-0.2
20.81,0.005,1.14,0.204
20.82,-0.398,1.423,0.089
20.83,0.016,0.501,-0.042
20.84,-0.515,0.894,-0.136
20.85,0.032,1.113,0.191
20.86,-0.213,1.196,-0.049
20.87,-0.266,0.852,-0.09
20.88,-0.381,0.375,-0.084
20.89,-0.2,1.381,0.19
20.9,-0.112,0.769,0.02
20.91,-0.298,1.033,-0.103
20.92,-0.401,0.393,-0.071
20.93,-0.174,1.247,0.182
20.94,-0.273,0.931,-0.044
20.95,-0.167,0.585,-0.129
20.96,-0.368,1.097,-0.061
20.97,0.009,0.898,0.13
20.98,-0.28,1.265,0.015
20.99,-0.216,0.276,-0.192
21.0,-0.307,1.245,-0.021
21.01,-0.071,0.862,0.103
21.02,-0.244,1.086,0.007
21.03,-0.336,0.551,-0.184
21.04,-0.167,1.031,-0.057
21.05,-0.13,1.233,0.111
21.06,-0.079,0.654,-0.0
21.07,-0.417,0.979,-0.22
21.08,-0.16,1.164,0.016
21.09,-0.138,1.165,0.124
21.1,-0.08,0.827,0.029
21.11,-0.415,0.719,-0.21
21.12,-0.299,1.721,0.09
21.13,-0.145,0.765,0.174
21.14,-0.154,1.138,0.094
21.15,-0.353,0.345,-0.218
21.16,-0.239,2.0,0.056
21.17,-0.141,0.682,0.095
21.18,-0.014,0.903,0.038
21.19,-0.403,0.612,-0.208
21.2,-0.079,1.603,0.07
21.21,-0.174,1.124,0.121
21.22,0.035,0.405,-0.019
21.23,-0.436,1.006,-0.175
21.24,-0.11,1.566,0.115
21.25,-0.169,1.081,0.111
21.26,0.016,0.555,-0.003
21.27,-0.4,0.775,-0.167
21.28,-0.096,1.828,0.114
21.29,-0.05,0.736,0.101
21.3,-0.086,0.89,-0.023
21.31,-0.306,0.295,-0.205
21.32,-0.219,1.967,0.112
21.33,-0.097,0.731,0.165
21.34,-0.118,0.853,-0.067
21.35,-0.468,0.445,-0.189
21.36,-0.049,1.636,0.169
21.37,-0.177,1.162,0.074
21.38,-0.03,0.386,-0.056
21.39,-0.479,1.01,-0.209
21.4,-0.015,1.381,0.217
21.41,-0.342,1.249,0.197
21.42,-0.027,0.511,-0.039
21.43,-0.467,0.778,-0.159
21.44,-0.103,1.499,0.185
21.45,-0.234,0.91,0.081
21.46,-0.143,1.057,-0.051
21.47,-0.388,0.208,-0.136
21.48,-0.232,1.625,0.203
21.49,-0.129,0.851,0.065
21.5,-0.208,1.017,-0.074
21.51,-0.344,0.439,-0.17
21.52,-0.18,1.309,0.189
21.53,-0.241,1.01,-0.002
21.54,-0.146,0.74,-0.114
21.55,-0.404,0.813,-0.124
21.56,-0.013,0.946,0.205
21.57,-0.32,1.341,0.092
21.58,-0.26,0.34,-0.163
21.59,-0.445,1.047,-0.032
21.6,-0.066,0.951,0.173
21.61,-0.308,1.148,0.032
21.62,-0.254,0.569,-0.163
21.63,-0.347,0.921,-0.027
21.64,-0.081,1.256,0.122
21.65,-0.174,0.701,0.035
21.66,-0.384,0.947,-0.169
21.67,-0.25,0.895,-0.005
21.68,-0.178,1.204,0.107
21.69,-0.18,0.857,0.058
21.7,-0.371,0.759,-0.211
21.71,-0.316,1.286,-0.0
21.72,-0.162,0.776,0.124
21.73,-0.213,1.286,-0.015
21.74,-0.226,0.264,-0.225
21.75,-0.264,1.822,0.055
21.76,-0.042,0.757,0.103
21.77,-0.142,0.979,-0.006
21.78,-0.333,0.608,-0.209
21.79,-0.242,1.503,0.01
21.8,-0.145,0.967,0.123
21.81,0.082,0.672,-0.01
21.82,-0.585,0.994,-0.207
21.83,-0.061,1.381,0.097
21.84,-0.283,1.163,0.146
21.85,-0.059,0.539,0.054
21.86,-0.44,0.812,-0.175
21.87,-0.202,1.779,0.09
21.88,-0.092,0.713,0.139
21.89,-0.136,0.98,0.005
21.9,-0.414,0.301,-0.155
21.91,-0.162,2.0,0.152
21.92,-0.173,0.618,0.15
21.93,-0.135,0.884,0.017
21.94,-0.412,0.461,-0.167
21.95,-0.139,1.778,0.159
21.96,-0.144,1.073,0.094
21.97,-0.017,0.331,-0.01
21.98,-0.393,0.948,-0.249
21.99,-0.028,1.393,0.087
22.0,-0.144,1.268,0.044
22.01,-0.04,0.494,-0.035
22.02,-0.315,0.76,-0.187
22.03,-0.102,1.705,0.184
22.04,-0.096,0.928,0.08
22.05,-0.147,0.954,-0.102
22.06,-0.307,0.267,-0.193
22.07,-0.143,1.815,0.197
22.08,-0.073,0.881,0.063
22.09,-0.212,0.912,-0.085
22.1,-0.267,0.387,-0.176
22.11,-0.165,1.454,0.191
22.12,-0.137,1.192,0.012
22.13,-0.074,0.595,-0.097
22.14,-0.431,0.922,-0.112
22.15,-0.106,1.006,0.238
22.16,-0.274,1.445,0.025
22.17,-0.004,0.563,-0.08
22.18,-0.479,0.833,-0.132
22.19,-0.024,1.125,0.19
22.2,-0.171,0.967,0.003
22.21,-0.253,0.934,-0.114
22.22,-0.423,0.376,-0.062
22.23,-0.225,1.36,0.196
22.24,-0.173,0.71,-0.016
22.25,-0.333,0.886,-0.114
22.26,-0.343,0.656,-0.07
22.27,-0.08,1.117,0.119
22.28,-0.229,1.156,-0.05
22.29,-0.219,0.432,-0.135
22.3,-0.399,1.258,0.015
22.31,-0.007,0.807,0.128
22.32,-0.226,1.234,0.002
22.33,-0.302,0.28,-0.192
22.34,-0.298,1.736,0.04
22.35,-0.089,0.753,0.087
22.36,-0.174,1.081,0.033
22.37,-0.346,0.52,-0.229
22.38,-0.18,1.528,0.035
22.39,-0.153,1.086,0.127
22.4,0.029,0.547,-0.003
22.41,-0.564,1.012,-0.181
22.42,-0.166,1.377,0.112
22.43,-0.272,1.081,0.187
22.44,-0.014,0.634,0.054
22.45,-0.538,0.853,-0.162
22.46,-0.21,1.799,0.105
22.47,-0.112,0.705,0.162
22.48,-0.056,0.988,0.027
22.49,-0.447,0.339,-0.168
22.5,-0.153,2.0,0.148
22.51,-0.098,0.702,0.125
22.52,-0.146,0.844,0.01
22.53,-0.344,0.458,-0.191
22.54,-0.063,1.831,0.135
22.55,-0.065,1.064,0.084
22.56,-0.019,0.384,-0.078
22.57,-0.432,0.89,-0.24
22.58,0.015,1.478,0.123
22.59,-0.201,1.25,0.093
22.6,0.008,0.462,-0.012
22.61,-0.444,0.803,-0.183
22.62,-0.021,1.62,0.134
22.63,-0.099,1.01,0.036
22.64,-0.129,0.932,-0.129
22.65,-0.263,0.267,-0.191
22.66,-0.164,1.784,0.186
22.67,-0.083,0.799,0.087
22.68,-0.154,0.995,-0.072
22.69,-0.385,0.409,-0.159
22.7,-0.132,1.387,0.21
22.71,-0.325,1.188,0.105
22.72,0.01,0.668,-0.072
22.73,-0.479,0.887,-0.09
22.74,-0.026,0.97,0.217
22.75,-0.315,1.37,0.074
22.76,-0.052,0.542,-0.096
22.77,-0.455,0.86,-0.091
22.78,-0.048,1.118,0.134
22.79,-0.37,0.983,0.156
22.8,-0.193,0.925,-0.121
22.81,-0.365,0.431,-0.094
22.82,-0.158,1.315,0.158
22.83,-0.215,0.777,0.056
22.84,-0.38,0.882,-0.13
22.85,-0.316,0.662,0.003
22.86,-0.15,1.149,0.118
22.87,-0.205,1.113,-0.0
22.88,-0.275,0.405,-0.155
22.89,-0.306,1.386,-0.029
22.9,-0.016,0.848,0.128
22.91,-0.27,1.276,-0.024
22.92,-0.237,0.215,-0.182
22.93,-0.245,1.578,-0.005
22.94,-0.073,0.957,0.121
22.95,-0.188,0.883,0.026
22.96,-0.412,0.813,-0.222
22.97,-0.209,1.154,0.022
22.98,-0.196,1.172,0.107
22.99,0.011,0.688,0.015
23.0,-0.523,0.933,-0.22
23.01,-0.127,1.267,0.079
23.02,-0.326,1.011,0.162
23.03,-0.021,0.88,0.007
23.04,-0.542,0.52,-0.179
23.05,-0.212,1.968,0.112
23.06,-0.167,0.638,0.134
23.07,-0.13,1.113,0.051
23.08,-0.375,0.312,-0.154
23.09,-0.236,1.968,0.074
23.1,-0.091,0.776,0.11
23.11,-0.133,0.693,-0.016
23.12,-0.331,0.391,-0.236
23.13,-0.096,1.869,0.165
23.14,-0.105,1.031,0.032
23.15,-0.068,0.354,-0.009
23.16,-0.391,0.946,-0.218
23.17,-0.079,1.383,0.135
23.18,-0.169,1.27,0.048
23.19,-0.02,0.475,-0.05
23.2,-0.413,0.793,-0.162
23.21,-0.045,1.552,0.18
23.22,-0.14,1.005,0.056
23.23,-0.163,0.994,-0.071
23.24,-0.325,0.255,-0.15
23.25,-0.194,1.718,0.222
23.26,-0.1,0.88,0.066
23.27,-0.173,0.985,-0.092
23.28,-0.325,0.351,-0.142
23.29,-0.071,1.355,0.124
23.3,-0.291,1.159,-0.001
23.31,0.0,0.687,-0.127
23.32,-0.516,0.897,-0.152
23.33,0.043,0.967,0.208
23.34,-0.343,1.428,0.075
23.35,-0.132,0.477,-0.102
23.36,-0.491,0.86,-0.062
23.37,-0.117,1.038,0.171
23.38,-0.209,1.044,-0.006
23.39,-0.327,0.838,-0.129
23.4,-0.303,0.493,-0.027
23.41,-0.216,1.376,0.148
23.42,-0.181,0.723,0.051
23.43,-0.39,0.88,-0.104
23.44,-0.245,0.765,-0.045
23.45,-0.147,1.135,0.129
23.46,-0.147,1.065,-0.075
23.47,-0.331,0.442,-0.144
23.48,-0.236,1.495,-0.062
23.49,0.001,0.803,0.111
23.5,-0.204,1.294,-0.034
23.51,-0.278,0.317,-0.2
23.52,-0.233,1.643,-0.022
23.53,-0.084,0.898,0.096
23.54,-0.16,0.893,-0.008
23.55,-0.414,0.778,-0.209
23.56,-0.231,1.284,0.07
23.57,-0.219,1.102,0.143
23.58,-0.01,0.607,-0.004
23.59,-0.531,0.998,-0.151
23.6,-0.145,1.479,0.069
23.61,-0.256,0.971,0.165
23.62,0.001,0.831,-0.015
23.63,-0.432,0.583,-0.183
23.64,-0.162,1.958,0.067
23.65,-0.157,0.59,0.131
23.66,-0.133,1.048,0.048
23.67,-0.399,0.289,-0.221
23.68,-0.15,2.0,0.119
23.69,-0.075,0.78,0.093
23.7,-0.083,0.646,-0.017
23.71,-0.459,0.685,-0.168
23.72,-0.084,1.625,0.141
23.73,-0.2,1.128,0.102
23.74,0.074,0.371,-0.016
23.75,-0.568,0.953,-0.185
23.76,-0.08,1.444,0.195
23.77,-0.222,1.182,0.106
23.78,-0.104,0.59,-0.047
23.79,-0.333,0.577,-0.156
23.8,-0.195,1.651,0.187
23.81,-0.041,0.815,0.025
23.82,-0.104,1.042,-0.097
23.83,-0.399,0.179,-0.145
23.84,-0.132,1.705,0.211
23.85,-0.154,0.853,0.034
23.86,-0.037,0.886,-0.118
23.87,-0.437,0.633,-0.191
23.88,0.024,1.237,0.163
23.89,-0.305,1.341,0.007
23.9,0.05,0.49,-0.097
23.91,-0.51,0.969,-0.186
23.92,0.066,1.015,0.166
23.93,-0.336,1.377,0.021
23.94,-0.156,0.396,-0.15
23.95,-0.488,0.915,-0.026
23.96,-0.085,1.044,0.191
23.97,-0.27,1.014,0.029
23.98,-0.346,0.732,-0.108
23.99,-0.372,0.573,-0.036
24.0,-0.188,1.362,0.164
24.01,-0.196,0.722,0.053
24.02,-0.329,0.846,-0.112
24.03,-0.25,0.962,-0.051
24.04,-0.09,1.129,0.144
24.05,-0.193,1.052,-0.017
24.06,-0.299,0.517,-0.192
24.07,-0.28,1.538,-0.056
24.08,-0.187,0.748,0.128
24.09,-0.28,1.279,0.087
24.1,-0.28,0.283,-0.198
24.11,-0.36,1.692,0.074
24.12,-0.102,0.825,0.131
24.13,-0.12,0.905,0.025
24.14,-0.482,0.706,-0.157
24.15,-0.169,1.442,0.078
24.16,-0.219,1.129,0.187
24.17,0.066,0.557,0.049
24.18,-0.503,1.037,-0.161
24.19,-0.064,1.521,0.026
24.2,-0.206,0.981,0.079
24.21,0.024,0.757,-0.024
24.22,-0.397,0.657,-0.151
24.23,-0.205,1.916,0.149
24.24,-0.072,0.642,0.148
24.25,-0.06,0.933,-0.045
24.26,-0.271,0.308,-0.227
24.27,-0.104,2.0,0.074
24.28,-0.073,0.716,0.053
24.29,-0.132,0.668,-0.038
24.3,-0.308,0.718,-0.232
24.31,-0.115,1.603,0.18
24.32,-0.222,1.229,0.087
24.33,0.041,0.314,-0.055
24.34,-0.434,1.014,-0.195
24.35,-0.022,1.396,0.182
24.36,-0.259,1.168,0.067
24.37,-0.034,0.691,-0.07
24.38,-0.478,0.554,-0.14
24.39,-0.081,1.733,0.251
24.4,-0.107,0.858,0.1
24.41,-0.173,0.988,-0.119
24.42,-0.316,0.236,-0.167
24.43,-0.21,1.662,0.202
24.44,-0.113,0.937,0.073
24.45,-0.097,0.891,-0.14
24.46,-0.405,0.551,-0.201
24.47,0.028,1.19,0.116
24.48,-0.213,1.337,-0.017
24.49,-0.014,0.501,-0.148
24.5,-0.54,0.905,-0.125
24.51,0.024,0.956,0.177
24.52,-0.332,1.339,0.086
24.53,-0.123,0.545,-0.1
24.54,-0.492,0.691,-0.038
24.55,-0.182,1.244,0.215
24.56,-0.24,0.789,0.073
24.57,-0.374,0.922,-0.09
24.58,-0.353,0.443,0.001
24.59,-0.172,1.314,0.145
24.6,-0.164,0.858,0.032
24.61,-0.429,0.697,-0.151
24.62,-0.235,0.904,-0.052
24.63,-0.131,0.967,0.093
24.64,-0.21,1.25,0.007
24.65,-0.209,0.281,-0.144
24.66,-0.293,1.615,-0.035
24.67,-0.007,0.76,0.119
24.68,-0.252,1.21,-0.007
24.69,-0.289,0.446,-0.216
24.7,-0.227,1.504,-0.016
24.71,-0.144,1.026,0.125
24.72,-0.068,0.697,-0.003
24.73,-0.553,0.729,-0.19
24.74,-0.178,1.529,0.097
24.75,-0.27,1.142,0.137
24.76,-0.012,0.461,0.044
24.77,-0.555,1.047,-0.166
24.78,-0.165,1.534,0.156
24.79,-0.2,1.008,0.132
24.8,-0.012,0.706,0.033
24.81,-0.42,0.646,-0.167
24.82,-0.121,1.897,0.101
24.83,-0.048,0.59,0.086
24.84,-0.105,0.998,-0.015
24.85,-0.361,0.268,-0.229
24.86,-0.17,1.998,0.106
24.87,-0.143,0.748,0.13
24.88,-0.117,0.714,0.002
24.89,-0.503,0.583,-0.149
24.9,-0.128,1.584,0.203
24.91,-0.237,1.092,0.125
24.92,-0.01,0.562,-0.105
24.93,-0.449,0.88,-0.167
24.94,0.079,1.195,0.172
24.95,-0.287,1.354,0.013
24.96,-0.033,0.436,-0.112
24.97,-0.442,0.858,-0.229
24.98,0.005,1.193,0.083
24.99,-0.263,1.086,0.03
25.0,-0.245,0.9,-0.125
25.01,-0.45,0.264,-0.101
25.02,-0.213,1.412,0.186
25.03,-0.171,0.838,0.14
25.04,-0.405,0.919,-0.104
25.05,-0.432,0.466,-0.092
25.06,-0.175,1.281,0.231
25.07,-0.209,1.068,0.006
25.08,-0.213,0.502,-0.099
25.09,-0.468,1.078,-0.031
25.1,-0.048,0.874,0.21
25.11,-0.277,1.354,0.067
25.12,-0.244,0.319,-0.145
25.13,-0.412,1.118,-0.045
25.14,-0.117,0.946,0.129
25.15,-0.208,1.097,0.023
25.16,-0.312,0.593,-0.163
25.17,-0.217,0.832,-0.063
25.18,-0.162,1.247,0.097
25.19,-0.106,0.705,-0.01
25.2,-0.391,0.96,-0.193
25.21,-0.175,1.041,-0.054
25.22,-0.244,1.072,0.107
25.23,-0.16,0.966,-0.035
25.24,-0.391,0.517,-0.159
25.25,-0.231,1.807,0.043
25.26,-0.114,0.692,0.149
25.27,-0.174,1.188,0.061
25.28,-0.408,0.287,-0.213
25.29,-0.285,1.941,0.086
25.3,-0.177,0.804,0.12
25.31,-0.083,0.803,0.048
25.32,-0.407,0.744,-0.195
25.33,-0.169,1.555,0.117
25.34,-0.245,1.103,0.151
25.35,0.026,0.453,0.036
25.36,-0.475,1.01,-0.13
25.37,-0.072,1.586,0.142
25.38,-0.179,0.994,0.122
25.39,-0.042,0.632,-0.033
25.4,-0.389,0.594,-0.192
25.41,-0.17,1.913,0.152
25.42,0.018,0.717,0.052
25.43,-0.143,0.895,-0.026
25.44,-0.398,0.225,-0.176
25.45,-0.241,1.848,0.15
25.46,-0.132,0.785,0.155
25.47,-0.127,0.844,-0.051
25.48,-0.43,0.558,-0.171
25.49,-0.079,1.469,0.189
25.5,-0.256,1.305,0.103
25.51,0.044,0.422,-0.062
25.52,-0.515,0.987,-0.153
25.53,0.022,1.017,0.172
25.54,-0.294,1.351,0.036
25.55,-0.063,0.437,-0.177
25.56,-0.457,0.876,-0.184
25.57,-0.025,1.111,0.154
25.58,-0.275,1.0,0.033
25.59,-0.273,0.8,-0.103
25.6,-0.43,0.389,-0.061
25.61,-0.187,1.369,0.249
25.62,-0.161,0.786,0.015
25.63,-0.358,0.954,-0.101
25.64,-0.377,0.557,-0.088
25.65,-0.091,1.208,0.136
25.66,-0.186,1.085,0.007
25.67,-0.258,0.461,-0.183
25.68,-0.319,1.268,-0.08
25.69,-0.011,0.846,0.109
25.7,-0.283,1.295,0.032
25.71,-0.153,0.309,-0.218
25.72,-0.299,1.464,-0.099
25.73,-0.007,0.894,0.101
25.74,-0.207,0.991,0.019
25.75,-0.327,0.744,-0.179
25.76,-0.34,1.167,0.027
25.77,-0.22,1.194,0.142
25.78,-0.071,0.686,0.036
25.79,-0.404,0.953,-0.188
25.8,-0.26,1.321,0.046
25.81,-0.102,1.105,0.138
25.82,-0.099,0.76,0.054
25.83,-0.404,0.659,-0.161
25.84,-0.325,1.911,0.087
25.85,-0.137,0.634,0.148
25.86,-0.172,1.096,0.093
25.87,-0.413,0.348,-0.143
25.88,-0.307,1.936,0.17
25.89,-0.184,0.762,0.141
25.9,-0.078,0.766,0.007
25.91,-0.372,0.714,-0.205
25.92,-0.089,1.62,0.069
25.93,-0.172,1.083,0.133
25.94,0.073,0.362,-0.032
25.95,-0.444,1.017,-0.183
25.96,-0.017,1.548,0.139
25.97,-0.218,1.034,0.111
25.98,0.018,0.601,-0.037
25.99,-0.425,0.607,-0.2
26.0,-0.062,1.889,0.125
26.01,-0.052,0.761,0.117
26.02,-0.149,0.896,-0.031
26.03,-0.357,0.218,-0.2
26.04,-0.155,1.936,0.15
26.05,-0.064,0.787,0.04
26.06,-0.126,0.746,-0.09
26.07,-0.436,0.589,-0.159
26.08,-0.078,1.458,0.23
26.09,-0.276,1.282,0.157
26.1,-0.05,0.434,-0.039
26.11,-0.454,0.937,-0.15
26.12,-0.032,1.186,0.21
26.13,-0.263,1.301,0.07
26.14,-0.034,0.668,-0.098
26.15,-0.402,0.606,-0.132
26.16,-0.143,1.435,0.124
26.17,-0.084,0.889,0.075
26.18,-0.293,1.049,-0.149
26.19,-0.324,0.267,-0.081
26.2,-0.285,1.416,0.164
26.21,-0.28,0.86,0.032
26.22,-0.223,0.815,-0.127
26.23,-0.429,0.656,-0.126
26.24,-0.04,1.048,0.175
26.25,-0.326,1.216,0.001
26.26,-0.181,0.413,-0.131
26.27,-0.509,1.034,-0.023
26.28,-0.052,0.934,0.209
26.29,-0.24,1.325,0.065
26.3,-0.278,0.439,-0.148
26.31,-0.373,0.803,-0.049
26.32,-0.075,1.175,0.144
26.33,-0.156,0.832,0.004
26.34,-0.223,0.622,-0.199
26.35,-0.232,1.177,-0.079
26.36,-0.031,1.278,0.107
26.37,-0.086,0.647,-0.009
26.38,-0.46,1.008,-0.234
26.39,-0.196,1.112,-0.012
26.4,-0.22,1.017,0.1
26.41,-0.078,0.953,0.006
26.42,-0.447,0.578,-0.217
26.43,-0.213,1.729,0.048
26.44,-0.073,0.693,0.078
26.45,-0.136,1.197,0.027
26.46,-0.231,0.311,-0.275
26.47,-0.323,1.899,0.083
26.48,-0.071,0.834,0.131
26.49,-0.106,0.812,0.045
26.5,-0.49,0.664,-0.181
26.51,-0.12,1.665,0.105
26.52,-0.323,1.001,0.114
26.53,0.117,0.5,0.036
26.54,-0.56,1.045,-0.157
26.55,-0.045,1.572,0.129
26.56,-0.256,1.071,0.122
26.57,0.104,0.588,-0.007
26.58,-0.527,0.683,-0.194
26.59,0.045,1.856,0.101
26.6,-0.071,0.729,0.06
26.61,-0.041,0.906,-0.051
26.62,-0.385,0.283,-0.206
26.63,-0.112,1.998,0.085
26.64,-0.111,0.757,0.106
26.65,-0.03,0.767,-0.068
26.66,-0.407,0.576,-0.283
26.67,-0.008,1.57,0.106
26.68,-0.168,1.202,0.13
26.69,0.043,0.425,-0.037
26.7,-0.545,0.986,-0.164
26.71,-0.074,1.311,0.211
26.72,-0.256,1.267,0.122
26.73,-0.07,0.64,-0.044
26.74,-0.469,0.624,-0.11
26.75,-0.111,1.568,0.193
26.76,-0.061,0.926,0.002
26.77,-0.187,1.042,-0.092
26.78,-0.221,0.197,-0.174
26.79,-0.258,1.682,0.227
26.8,-0.146,0.839,0.086
26.81,-0.248,0.938,-0.044
26.82,-0.359,0.533,-0.15
26.83,-0.346,0.382,-0.15
26.84,-0.176,1.473,0.18
26.85,-0.062,0.846,-0.004
26.86,-0.251,1.077,-0.142
26.87,-0.406,0.336,-0.109
26.88,-0.173,1.357,0.197
26.89,-0.21,1.003,0.019
26.9,-0.237,0.698,-0.066
26.91,-0.449,0.842,-0.064
26.92,-0.094,0.953,0.242
26.93,-0.308,1.263,0.053
26.94,-0.26,0.338,-0.09
26.95,-0.502,1.052,-0.011
26.96,-0.122,0.944,0.186
26.97,-0.334,1.11,0.07
26.98,-0.258,0.638,-0.089
26.99,-0.39,0.71,-0.029
27.0,-0.057,1.273,0.157
27.01,-0.15,0.764,-0.004
27.02,-0.37,0.884,-0.18
27.03,-0.258,0.768,-0.077
27.04,-0.105,1.277,0.125
27.05,-0.199,0.859,-0.003
27.06,-0.274,0.715,-0.16
27.07,-0.36,1.441,0.045
27.08,-0.038,0.972,0.159
27.09,-0.218,0.97,0.033
27.1,-0.323,0.489,-0.215
27.11,-0.298,1.99,-0.002
27.12,-0.114,0.584,0.091
27.13,-0.13,1.147,0.062
27.14,-0.332,0.404,-0.21
27.15,-0.283,1.805,0.074
27.16,-0.096,0.839,0.063
27.17,-0.022,0.687,0.0
27.18,-0.385,0.908,-0.231
27.19,-0.119,1.394,0.112
27.2,-0.154,1.273,0.169
27.21,0.006,0.377,0.004
27.22,-0.552,0.938,-0.157
27.23,0.0,1.728,0.098
27.24,-0.228,0.885,0.13
27.25,0.009,0.766,-0.037
27.26,-0.394,0.506,-0.212
27.27,-0.139,2.0,0.141
27.28,-0.098,0.64,0.128
27.29,-0.124,0.927,0.02
27.3,-0.336,0.3,-0.239
27.31,-0.134,1.871,0.102
27.32,-0.04,0.913,0.057
27.33,-0.035,0.584,-0.056
27.34,-0.448,0.823,-0.223
27.35,0.054,1.509,0.078
27.36,-0.203,1.25,0.075
27.37,0.039,0.362,-0.018
27.38,-0.493,0.997,-0.238
27.39,-0.063,1.437,0.182
27.4,-0.209,1.095,0.101
27.41,-0.116,0.735,-0.023
27.42,-0.447,0.424,-0.15
27.43,-0.199,1.716,0.145
27.44,-0.174,0.726,0.119
27.45,-0.137,1.145,-0.063
27.46,-0.383,0.207,-0.139
27.47,-0.143,1.663,0.177
27.48,-0.109,1.012,0.073
27.49,-0.137,0.722,-0.047
27.5,-0.459,0.761,-0.15
27.51,-0.057,1.195,0.234
27.52,-0.249,1.373,0.069
27.53,-0.039,0.396,-0.1
27.54,-0.47,1.013,-0.162
27.55,-0.061,1.08,0.171
27.56,-0.294,1.138,0.054
27.57,-0.101,0.783,-0.169
27.58,-0.421,0.467,-0.14
27.59,-0.119,1.393,0.203
27.6,-0.172,0.822,0.06
27.61,-0.239,1.035,-0.141
27.62,-0.409,0.279,-0.144
27.63,-0.1,1.331,0.152
27.64,-0.252,0.938,-0.014
27.65,-0.149,0.687,-0.098
27.66,-0.471,0.772,-0.137
27.67,-0.034,0.994,0.225
27.68,-0.277,1.296,0.01
27.69,-0.19,0.332,-0.132
27.7,-0.512,1.015,-0.077
27.71,-0.085,0.927,0.192
27.72,-0.302,1.221,0.051
27.73,-0.155,0.626,-0.106
27.74,-0.435,0.767,-0.072
27.75,-0.137,1.219,0.195
27.76,-0.145,0.71,0.067
27.77,-0.443,0.93,-0.102
27.78,-0.336,0.528,-0.03
27.79,-0.144,1.312,0.123
27.8,-0.126,0.914,0.024
27.81,-0.326,0.648,-0.115
27.82,-0.351,1.019,-0.057
27.83,-0.047,0.91,0.106
27.84,-0.279,1.299,0.035
27.85,-0.273,0.201,-0.097
27.86,-0.357,1.543,-0.021
27.87,-0.011,0.832,0.111
27.88,-0.158,1.228,0.061
27.89,-0.309,0.346,-0.213
27.9,-0.341,1.529,-0.028
27.91,-0.202,0.891,0.119
27.92,-0.162,0.866,0.046
27.93,-0.31,0.783,-0.241
27.94,-0.166,1.3,0.003
27.95,-0.165,1.203,0.083
27.96,-0.024,0.567,0.015
27.97,-0.453,0.975,-0.156
27.98,-0.255,1.371,0.052
27.99,-0.248,0.91,0.135
28.0,-0.043,0.927,-0.026
28.01,-0.453,0.566,-0.177
28.02,-0.343,1.856,0.09
28.03,-0.174,0.583,0.111
28.04,-0.165,1.182,0.049
28.05,-0.333,0.301,-0.233
28.06,-0.239,1.835,0.023
28.07,-0.075,0.875,0.069
28.08,-0.047,0.66,0.007
28.09,-0.367,0.753,-0.186
28.1,-0.166,1.546,0.106
28.11,-0.282,1.024,0.097
28.12,0.092,0.511,0.034
28.13,-0.535,0.992,-0.232
28.14,-0.039,1.598,0.135
28.15,-0.246,0.959,0.068
28.16,0.013,0.665,0.016
28.17,-0.356,0.531,-0.211
28.18,-0.055,1.973,0.093
28.19,0.057,0.717,0.038
28.2,-0.135,0.914,-0.041
28.21,-0.3,0.222,-0.21
28.22,-0.058,2.0,0.113
28.23,-0.133,0.721,0.061
28.24,-0.042,0.683,-0.056
28.25,-0.4,0.688,-0.244
28.26,-0.03,1.597,0.151
28.27,-0.197,1.291,0.056
28.28,0.076,0.273,-0.013
28.29,-0.436,0.949,-0.151
28.3,-0.01,1.513,0.127
28.31,-0.074,1.139,0.05
28.32,-0.05,0.637,-0.066
28.33,-0.414,0.56,-0.162
28.34,-0.086,1.873,0.196
28.35,-0.15,0.72,0.136
28.36,-0.138,0.898,-0.042
28.37,-0.432,0.278,-0.175
28.38,-0.138,1.66,0.191
28.39,-0.142,0.853,0.05
28.4,-0.098,0.767,-0.099
28.41,-0.389,0.635,-0.209
28.42,-0.026,1.206,0.153
28.43,-0.28,1.27,0.112
28.44,0.062,0.507,-0.098
28.45,-0.471,0.974,-0.184
28.46,-0.003,1.115,0.17
28.47,-0.204,1.294,-0.006
28.48,-0.054,0.679,-0.109
28.49,-0.346,0.552,-0.164
28.5,-0.104,1.475,0.107
28.51,-0.184,0.84,0.064
28.52,-0.138,1.089,-0.115
28.53,-0.418,0.241,-0.145
28.54,-0.148,1.439,0.215
28.55,-0.238,0.925,0.061
28.56,-0.179,0.779,-0.128
28.57,-0.429,0.683,-0.123
28.58,-0.021,1.073,0.172
28.59,-0.272,1.22,0.006
28.6,-0.084,0.421,-0.145
28.61,-0.563,1.028,-0.098
28.62,-0.096,0.899,0.25
28.63,-0.301,1.27,0.028
28.64,-0.212,0.564,-0.091
28.65,-0.471,0.661,-0.079
28.66,-0.079,1.252,0.199
28.67,-0.136,1.019,0.008
28.68,-0.298,0.667,-0.228
28.69,-0.223,0.82,-0.092
28.7,-0.158,1.362,0.099
28.71,-0.054,0.658,0.029
28.72,-0.396,0.9,-0.187
28.73,-0.183,1.031,-0.055
28.74,-0.159,1.142,0.135
28.75,-0.177,0.946,0.027
28.76,-0.282,0.631,-0.22
28.77,-0.31,1.416,-0.074
28.78,0.003,0.783,0.095
28.79,-0.288,1.361,0.006
28.8,-0.267,0.252,-0.234
28.81,-0.278,1.501,-0.065
28.82,-0.01,0.873,0.069
28.83,-0.201,1.039,0.084
28.84,-0.337,0.673,-0.214
28.85,-0.178,1.251,0.001
28.86,-0.111,1.21,0.081
28.87,-0.061,0.635,0.048
28.88,-0.434,0.998,-0.2
28.89,-0.197,1.351,0.043
28.9,-0.157,1.068,0.141
28.91,-0.081,0.796,-0.006
28.92,-0.41,0.567,-0.223
28.93,-0.207,1.898,0.03
28.94,-0.173,0.635,0.135
28.95,-0.085,1.128,0.074
28.96,-0.356,0.322,-0.256
28.97,-0.282,1.928,0.06
28.98,-0.192,0.812,0.16
28.99,-0.092,0.788,0.082
29.0,-0.468,0.693,-0.158
29.01,-0.186,1.6,0.087
29.02,-0.166,1.083,0.078
29.03,0.112,0.482,0.039
29.04,-0.512,1.035,-0.202
29.05,-0.034,1.54,0.072
29.06,-0.256,1.054,0.116
29.07,0.022,0.647,0.014
29.08,-0.469,0.628,-0.218
29.09,-0.142,1.878,0.147
29.1,-0.074,0.681,0.134
29.11,-0.074,0.954,0.018
29.12,-0.363,0.287,-0.163
29.13,-0.183,2.0,0.11
29.14,-0.095,0.695,0.078
29.15,-0.038,0.773,0.001
29.16,-0.39,0.603,-0.227
29.17,-0.073,1.763,0.129
29.18,-0.231,0.993,0.1
29.19,0.073,0.408,0.005
29.2,-0.526,1.016,-0.197
29.21,0.033,1.515,0.149
29.22,-0.293,1.148,0.058
29.23,0.081,0.534,-0.01
29.24,-0.417,0.638,-0.177
29.25,-0.128,1.787,0.176
29.26,-0.166,0.758,0.101
29.27,-0.097,0.949,-0.081
29.28,-0.369,0.233,-0.188
29.29,-0.164,1.929,0.194
29.3,-0.148,0.759,0.082
29.31,-0.13,0.729,-0.055
29.32,-0.42,0.531,-0.208
29.33,-0.037,1.384,0.182
29.34,-0.264,1.243,0.122
29.35,-0.07,0.434,-0.026
29.36,-0.493,0.991,-0.178
29.37,-0.054,1.182,0.234
29.38,-0.3,1.23,0.073
29.39,-0.066,0.714,-0.032
29.4,-0.474,0.663,-0.156
29.41,-0.018,1.476,0.205
29.42,-0.167,1.002,0.038
29.43,-0.087,0.986,-0.114
29.44,-0.43,0.27,-0.153
29.45,-0.067,1.578,0.168
29.46,-0.247,0.819,0.067
29.47,-0.119,0.996,-0.088
29.48,-0.451,0.4,-0.117
29.49,-0.104,1.271,0.19
29.5,-0.242,1.009,0.019
29.51,-0.169,0.606,-0.161
29.52,-0.503,0.924,-0.085
29.53,0.003,0.914,0.195
29.54,-0.26,1.351,0.034
29.55,-0.169,0.338,-0.103
29.56,-0.469,1.042,-0.083
29.57,-0.097,0.968,0.191
29.58,-0.185,1.083,0.0
29.59,-0.245,0.597,-0.156
29.6,-0.3,0.758,-0.012
29.61,-0.133,1.313,0.164
29.62,-0.133,0.726,0.058
29.63,-0.382,0.892,-0.137
29.64,-0.228,0.794,-0.023
29.65,-0.216,1.231,0.179
29.66,-0.173,0.939,0.044
29.67,-0.374,0.607,-0.169
29.68,-0.258,1.327,-0.068
29.69,-0.028,0.836,0.127
29.7,-0.279,1.302,-0.025
29.71,-0.192,0.248,-0.198
29.72,-0.212,1.726,-0.058
29.73,0.079,0.889,0.114
29.74,-0.124,1.004,-0.011
29.75,-0.36,0.727,-0.266
29.76,-0.174,1.259,-0.03
29.77,-0.21,1.156,0.115
29.78,-0.015,0.678,0.031
29.79,-0.515,0.983,-0.208
29.8,-0.268,1.136,0.054
29.81,-0.144,1.07,0.104
29.82,-0.093,0.889,0.062
29.83,-0.374,0.663,-0.232
29.84,-0.222,1.787,0.002
29.85,-0.068,0.793,0.147
29.86,-0.127,1.057,0.083
29.87,-0.389,0.314,-0.192
29.88,-0.366,1.974,0.053
29.89,-0.07,0.69,0.115
29.9,-0.128,0.945,0.081
29.91,-0.359,0.653,-0.208
29.92,-0.231,1.582,0.096
29.93,-0.224,1.123,0.115
29.94,0.046,0.472,0.091
29.95,-0.453,1.017,-0.177
29.96,-0.171,1.361,0.101
29.97,-0.223,1.084,0.138
29.98,0.047,0.637,0.035
29.99,-0.473,0.761,-0.137
30.0,-0.115,1.846,0.1
30.01,-0.18,0.731,0.152
30.02,0.022,0.966,0.003
30.03,-0.344,0.273,-0.222
30.04,-0.141,2.0,0.123
30.05,-0.145,0.612,0.069
30.06,-0.046,0.849,0.012
30.07,-0.354,0.58,-0.228
30.08,-0.161,1.701,0.109
30.09,-0.216,1.023,0.106
30.1,0.054,0.406,0.024
30.11,-0.467,0.949,-0.189
30.12,-0.064,1.515,0.159
30.13,-0.215,1.141,0.057
30.14,-0.012,0.459,-0.011
30.15,-0.468,0.738,-0.15
30.16,-0.072,1.844,0.129
30.17,-0.185,0.747,0.044
30.18,-0.076,0.856,-0.053
30.19,-0.428,0.257,-0.151
30.2,-0.141,1.955,0.161
30.21,-0.173,0.729,0.106
30.22,-0.084,0.853,-0.054
30.23,-0.418,0.489,-0.187
30.24,-0.044,1.689,0.185
30.25,-0.253,1.155,0.125
30.26,0.025,0.448,-0.075
30.27,-0.509,0.994,-0.154
30.28,0.029,1.308,0.219
30.29,-0.31,1.412,0.07
30.3,0.059,0.506,-0.039
30.31,-0.506,0.923,-0.155
30.32,0.018,1.162,0.162
30.33,-0.277,1.134,0.005
30.34,-0.099,0.831,-0.153
30.35,-0.404,0.495,-0.11
30.36,-0.216,1.412,0.183
30.37,-0.253,0.79,0.094
30.38,-0.285,1.065,-0.086
30.39,-0.374,0.32,-0.091
30.4,-0.175,1.311,0.2
30.41,-0.257,0.904,0.025
30.42,-0.292,0.674,-0.126
30.43,-0.496,0.792,-0.087
30.44,-0.019,0.978,0.22
30.45,-0.329,1.35,0.037
30.46,-0.203,0.268,-0.091
30.47,-0.561,1.096,-0.014
30.48,-0.036,0.945,0.196
30.49,-0.271,1.171,0.057
30.5,-0.264,0.532,-0.086
30.51,-0.347,0.865,-0.024
30.52,-0.118,1.336,0.15
30.53,-0.124,0.644,0.007
30.54,-0.342,0.995,-0.158
30.55,-0.251,0.726,-0.077
30.56,-0.169,1.23,0.119
30.57,-0.132,0.97,0.007
30.58,-0.36,0.602,-0.158
30.59,-0.294,1.255,-0.053
30.6,-0.074,0.891,0.15
30.61,-0.222,1.243,0.005
30.62,-0.188,0.292,-0.266
30.63,-0.223,1.68,-0.109
30.64,0.052,0.836,0.033
30.65,-0.173,1.018,-0.046
30.66,-0.281,0.581,-0.225
30.67,-0.243,1.234,-0.046
30.68,-0.199,1.104,0.079
30.69,0.011,0.774,0.021
30.7,-0.477,0.904,-0.225
30.71,-0.105,1.013,-0.05
30.72,-0.251,1.149,0.125
30.73,-0.097,0.822,0.03
30.74,-0.4,0.683,-0.183
30.75,-0.192,1.61,0.063
30.76,-0.175,0.751,0.134
30.77,-0.159,1.154,0.042
30.78,-0.331,0.346,-0.199
30.79,-0.288,1.98,0.044
30.8,-0.146,0.698,0.138
30.81,-0.079,1.018,0.05
30.82,-0.48,0.492,-0.189
30.83,-0.16,1.681,0.119
30.84,-0.267,1.02,0.134
30.85,0.04,0.52,0.051
30.86,-0.56,1.004,-0.171
30.87,-0.057,1.467,0.08
30.88,-0.3,1.072,0.139
30.89,0.044,0.585,0.021
30.9,-0.558,0.815,-0.158
30.91,-0.04,1.849,0.132
30.92,-0.206,0.717,0.12
30.93,0.001,0.922,-0.018
30.94,-0.402,0.338,-0.168
30.95,-0.136,2.0,0.109
30.96,-0.105,0.667,0.147
30.97,-0.083,0.861,-0.032
30.98,-0.46,0.435,-0.187
30.99,-0.086,1.713,0.113
31.0,-0.215,1.08,0.14
31.01,0.016,0.41,-0.035
31.02,-0.534,0.995,-0.163
31.03,0.0,1.452,0.188
31.04,-0.304,1.274,0.117
31.05,0.022,0.443,-0.024
31.06,-0.466,0.841,-0.172
31.07,-0.073,1.521,0.158
31.08,-0.187,0.901,0.085
31.09,-0.06,0.751,-0.081
31.1,-0.391,0.469,-0.221
31.11,-0.085,1.472,0.12
31.12,-0.118,0.772,0.0
31.13,-0.221,1.091,-0.119
31.14,-0.399,0.216,-0.179
31.15,-0.147,1.456,0.188
31.16,-0.212,1.007,0.041
31.17,-0.123,0.759,-0.117
31.18,-0.429,0.755,-0.159
31.19,-0.06,0.987,0.205
31.2,-0.236,1.287,0.004
31.21,-0.122,0.391,-0.117
31.22,-0.478,0.976,-0.146
31.23,-0.025,0.983,0.159
31.24,-0.254,1.184,0.038
31.25,-0.224,0.637,-0.134
31.26,-0.476,0.554,-0.083
31.27,-0.115,1.28,0.184
31.28,-0.231,0.776,0.013
31.29,-0.29,0.879,-0.073
31.3,-0.425,0.556,-0.041
31.31,-0.125,1.302,0.189
31.32,-0.262,0.825,0.033
31.33,-0.26,0.7,-0.124
31.34,-0.366,1.012,-0.071
31.35,-0.017,0.964,0.142
31.36,-0.228,1.269,0.027
31.37,-0.186,0.306,-0.187
31.38,-0.421,1.262,-0.036
31.39,-0.014,0.842,0.082
31.4,-0.355,1.158,-0.055
31.41,-0.189,0.459,-0.171
31.42,-0.216,1.223,-0.065
31.43,-0.09,1.181,0.165
31.44,-0.102,0.71,-0.026
31.45,-0.407,1.018,-0.198
31.46,-0.297,0.942,-0.016
31.47,-0.209,1.223,0.083
31.48,-0.213,0.858,0.019
31.49,-0.284,0.742,-0.212
31.5,-0.318,1.525,0.038
31.51,-0.053,0.805,0.137
31.52,-0.249,1.129,0.032
31.53,-0.226,0.336,-0.181
31.54,-0.347,1.977,0.029
31.55,-0.047,0.74,0.138
31.56,-0.145,1.014,0.04
31.57,-0.413,0.581,-0.184
31.58,-0.24,1.649,0.12
31.59,-0.293,0.937,0.126
31.6,0.014,0.605,0.021
31.61,-0.505,0.954,-0.157
31.62,-0.052,1.412,0.078
31.63,-0.226,1.129,0.128
31.64,0.138,0.573,0.01
31.65,-0.525,0.823,-0.166
31.66,-0.036,1.722,0.135
31.67,-0.131,0.852,0.125
31.68,-0.004,0.867,-0.018
31.69,-0.374,0.351,-0.216
31.7,-0.141,2.0,0.109
31.71,-0.115,0.618,0.143
31.72,-0.093,0.869,0.01
31.73,-0.445,0.466,-0.264
31.74,-0.065,1.733,0.125
31.75,-0.166,1.046,0.105
31.76,0.062,0.432,-0.027
31.77,-0.521,0.961,-0.189
31.78,-0.016,1.421,0.194
31.79,-0.222,1.211,0.1
31.8,-0.011,0.459,0.003
31.81,-0.474,0.854,-0.172
31.82,-0.104,1.537,0.2
31.83,-0.187,0.898,0.137
31.84,-0.129,0.909,-0.012
31.85,-0.351,0.299,-0.149
31.86,-0.203,1.721,0.21
31.87,-0.092,0.753,0.106
31.88,-0.168,0.972,-0.054
31.89,-0.448,0.349,-0.162
31.9,-0.162,1.521,0.222
31.91,-0.208,0.951,0.073
31.92,-0.151,0.809,-0.108
31.93,-0.382,0.655,-0.235
31.94,-0.008,1.094,0.173
31.95,-0.265,1.346,0.058
31.96,-0.117,0.404,-0.147
31.97,-0.431,0.963,-0.177
31.98,-0.038,1.03,0.161
31.99,-0.27,1.216,0.045
32.0,-0.107,0.698,-0.138
32.01,-0.461,0.565,-0.159
32.02,-0.128,1.307,0.195
32.03,-0.069,0.819,0.012
32.04,-0.329,1.018,-0.164
32.05,-0.412,0.329,-0.112
32.06,-0.231,1.354,0.219
32.07,-0.299,0.915,0.083
32.08,-0.224,0.701,-0.082
32.09,-0.437,0.845,-0.073
32.1,0.009,0.999,0.17
32.11,-0.301,1.222,0.016
32.12,-0.145,0.314,-0.104
32.13,-0.486,1.133,-0.074
32.14,0.041,0.956,0.187
32.15,-0.207,1.243,0.02
32.16,-0.255,0.533,-0.1
32.17,-0.393,0.731,-0.022
32.18,-0.143,1.213,0.17
32.19,-0.052,0.812,0.006
32.2,-0.368,0.782,-0.12
32.21,-0.116,0.896,-0.071
32.22,-0.131,1.335,0.111
32.23,-0.132,0.762,0.045
32.24,-0.363,0.786,-0.18
32.25,-0.252,1.155,-0.106
32.26,-0.176,0.899,0.105
32.27,-0.22,1.248,-0.024
32.28,-0.281,0.302,-0.226
32.29,-0.3,1.567,-0.037
32.3,-0.149,0.749,0.122
32.31,-0.246,1.205,0.043
32.32,-0.291,0.497,-0.184
32.33,-0.251,1.574,0.029
32.34,-0.093,1.135,0.156
32.35,0.002,0.598,0.023
32.36,-0.528,1.021,-0.182
32.37,-0.155,1.28,0.064
32.38,-0.366,1.036,0.177
32.39,-0.029,0.723,0.092
32.4,-0.501,0.817,-0.171
32.41,-0.158,1.652,0.011
32.42,-0.128,0.837,0.135
32.43,-0.07,0.982,0.028
32.44,-0.319,0.387,-0.174
32.45,-0.219,2.0,0.041
32.46,-0.049,0.737,0.129
32.47,-0.134,0.957,0.029
32.48,-0.396,0.423,-0.212
32.49,-0.137,1.864,0.075
32.5,-0.19,0.858,0.028
32.51,0.075,0.592,-0.041
32.52,-0.546,0.964,-0.213
32.53,-0.002,1.447,0.064
32.54,-0.146,1.247,0.074
32.55,0.065,0.388,0.015
32.56,-0.433,0.85,-0.23
32.57,0.004,1.731,0.065
32.58,-0.018,0.853,0.037
32.59,0.002,0.892,-0.077
32.6,-0.326,0.346,-0.235
32.61,-0.109,2.0,0.143
32.62,-0.076,0.673,0.136
32.63,-0.148,0.815,0.01
32.64,-0.489,0.378,-0.151
32.65,-0.131,1.8,0.2
32.66,-0.171,1.029,0.036
32.67,0.024,0.453,-0.027
32.68,-0.467,0.933,-0.207
32.69,-0.004,1.427,0.145
32.7,-0.226,1.306,0.064
32.71,0.045,0.467,-0.082
32.72,-0.529,0.983,-0.151
32.73,0.036,1.219,0.182
32.74,-0.276,1.237,0.064
32.75,-0.053,0.7,-0.069
32.76,-0.482,0.551,-0.164
32.77,-0.119,1.508,0.165
32.78,-0.133,0.881,-0.01
32.79,-0.166,1.089,-0.136
32.8,-0.372,0.201,-0.153
32.81,-0.149,1.507,0.214
32.82,-0.132,0.902,0.028
32.83,-0.139,0.896,-0.151
32.84,-0.378,0.641,-0.164
32.85,-0.002,1.091,0.175
32.86,-0.23,1.39,-0.017
32.87,-0.097,0.411,-0.118
32.88,-0.418,1.043,-0.139
32.89,-0.047,0.919,0.214
32.9,-0.306,1.228,0.009
32.91,-0.231,0.584,-0.1
32.92,-0.406,0.718,-0.016
32.93,-0.119,1.219,0.178
32.94,-0.279,0.772,0.11
32.95,-0.416,0.96,-0.098
32.96,-0.399,0.432,0.043
32.97,-0.194,1.333,0.207
32.98,-0.158,0.877,0.008
32.99,-0.358,0.669,-0.122
33.0,-0.291,1.112,-0.026
33.01,-0.047,0.966,0.135
33.02,-0.196,1.242,0.02
33.03,-0.264,0.277,-0.187
33.04,-0.293,1.492,-0.06
33.05,0.006,0.813,0.113
33.06,-0.236,1.242,-0.006
33.07,-0.242,0.436,-0.188
33.08,-0.296,1.288,-0.053
33.09,-0.064,1.093,0.146
33.1,-0.198,0.807,0.006
33.11,-0.288,0.892,-0.239
33.12,-0.142,1.124,-0.035
33.13,-0.095,1.237,0.124
33.14,-0.06,0.704,0.008
33.15,-0.446,0.817,-0.214
33.16,-0.195,1.427,0.0
33.17,-0.193,0.806,0.098
33.18,-0.123,1.171,0.008
33.19,-0.293,0.307,-0.224
33.2,-0.296,1.916,0.063
33.21,-0.029,0.702,0.121
33.22,-0.151,1.069,0.049
33.23,-0.382,0.47,-0.215
33.24,-0.256,1.769,0.107
33.25,-0.167,0.945,0.137
33.26,-0.022,0.593,0.054
33.27,-0.506,0.928,-0.162
33.28,-0.105,1.437,0.101
33.29,-0.277,1.099,0.105
33.3,0.054,0.56,0.045
33.31,-0.554,0.871,-0.201
33.32,-0.085,1.668,0.162
33.33,-0.121,0.819,0.132
33.34,-0.022,0.857,0.021
33.35,-0.409,0.337,-0.143
33.36,-0.137,2.0,0.167
33.37,-0.088,0.61,0.12
33.38,-0.091,0.921,-0.023
33.39,-0.341,0.379,-0.205
33.4,-0.088,1.852,0.148
33.41,-0.063,1.013,0.081
33.42,-0.028,0.419,-0.061
33.43,-0.413,0.9,-0.216
33.44,-0.017,1.476,0.123
33.45,-0.151,1.263,0.069
33.46,-0.039,0.423,-0.055
33.47,-0.404,0.899,-0.227
33.48,-0.046,1.619,0.127
33.49,-0.151,0.966,0.076
33.5,-0.066,0.662,-0.083
33.51,-0.427,0.56,-0.116
33.52,-0.101,1.514,0.171
33.53,-0.182,0.864,0.078
33.54,-0.131,1.128,-0.116
33.55,-0.354,0.185,-0.151
33.56,-0.145,1.511,0.217
33.57,-0.167,0.937,0.037
33.58,-0.143,0.84,-0.143
33.59,-0.375,0.683,-0.187
33.6,-0.064,1.064,0.154
33.61,-0.265,1.31,-0.013
33.62,-0.077,0.395,-0.126
33.63,-0.495,1.056,-0.086
33.64,-0.04,0.922,0.221
33.65,-0.342,1.219,0.024
33.66,-0.236,0.551,-0.13
33.67,-0.466,0.681,-0.042
33.68,-0.111,1.229,0.165
33.69,-0.17,0.83,0.028
33.7,-0.332,0.887,-0.091
33.71,-0.321,0.555,0.003
33.72,-0.159,1.334,0.176
33.73,-0.227,0.838,0.059
33.74,-0.361,0.796,-0.074
33.75,-0.279,1.061,-0.037
33.76,-0.062,0.927,0.148
33.77,-0.19,1.275,0.012
33.78,-0.286,0.34,-0.217
33.79,-0.247,1.541,-0.016
33.8,-0.087,0.789,0.124
33.81,-0.219,1.182,0.015
33.82,-0.225,0.488,-0.164
33.83,-0.346,1.538,0.004
33.84,-0.094,1.03,0.137
33.85,-0.093,0.704,0.032
33.86,-0.507,1.013,-0.175
33.87,-0.291,1.269,0.11
33.88,-0.281,1.091,0.214
33.89,-0.045,0.728,0.119
33.9,-0.542,0.878,-0.154
33.91,-0.235,1.586,0.12
33.92,-0.213,0.839,0.162
33.93,-0.09,0.977,0.039
33.94,-0.364,0.395,-0.16
33.95,-0.235,2.0,0.1
33.96,-0.046,0.647,0.169
33.97,-0.103,0.958,0.045
33.98,-0.294,0.446,-0.207
33.99,-0.179,1.887,0.126
34.0,-0.183,0.827,0.113
34.01,-0.009,0.566,-0.026
34.02,-0.463,0.929,-0.206
34.03,-0.004,1.521,0.129
34.04,-0.182,1.167,0.114
34.05,0.086,0.396,-0.016
34.06,-0.439,0.877,-0.2
34.07,0.035,1.596,0.056
34.08,-0.109,0.909,0.079
34.09,-0.051,0.82,-0.107
34.1,-0.341,0.376,-0.197
34.11,-0.151,2.0,0.161
34.12,-0.091,0.615,0.085
34.13,-0.161,0.937,-0.052
34.14,-0.412,0.335,-0.168
34.15,-0.105,1.704,0.186
34.16,-0.14,1.12,0.081
34.17,-0.049,0.451,-0.06
34.18,-0.498,0.891,-0.191
34.19,0.005,1.278,0.202
34.2,-0.267,1.28,0.065
34.21,-0.011,0.499,-0.061
34.22,-0.479,0.879,-0.182
34.23,-0.021,1.361,0.153
34.24,-0.231,1.08,0.136
34.25,-0.044,0.931,-0.087
34.26,-0.433,0.351,-0.143
34.27,-0.167,1.604,0.181
34.28,-0.225,0.789,0.162
34.29,-0.163,1.1,-0.116
34.3,-0.362,0.335,-0.228
34.31,-0.174,1.364,0.193
34.32,-0.167,0.894,0.045
34.33,-0.32,0.769,-0.119
34.34,-0.423,0.713,-0.083
34.35,-0.067,1.02,0.171
34.36,-0.202,1.261,-0.049
34.37,-0.183,0.338,-0.075
34.38,-0.473,1.233,-0.014
34.39,-0.049,0.864,0.169
34.4,-0.312,1.237,0.07
34.41,-0.249,0.429,-0.173
34.42,-0.282,0.996,-0.011
34.43,-0.125,1.139,0.154
34.44,-0.121,0.758,0.024
34.45,-0.359,0.942,-0.155
34.46,-0.262,0.758,-0.071
34.47,-0.168,1.284,0.135
34.48,-0.147,0.86,0.018
34.49,-0.359,0.734,-0.213
34.5,-0.188,1.341,-0.105
34.51,-0.09,0.893,0.13
34.52,-0.178,1.137,-0.01
34.53,-0.25,0.408,-0.233
34.54,-0.212,1.823,-0.035
34.55,-0.039,0.732,0.077
34.56,-0.179,1.092,0.038
34.57,-0.372,0.524,-0.201
34.58,-0.298,1.555,0.046
34.59,-0.189,0.933,0.142
34.6,-0.098,0.779,0.046
34.61,-0.505,0.941,-0.166
34.62,-0.206,1.267,0.107
34.63,-0.253,1.201,0.201
34.64,-0.069,0.609,0.052
34.65,-0.457,0.921,-0.125
34.66,-0.217,1.697,0.061
34.67,-0.157,0.833,0.133
34.68,-0.061,0.957,0.024
34.69,-0.446,0.355,-0.161
34.7,-0.26,2.0,0.183
34.71,-0.208,0.534,0.138
34.72,-0.164,1.053,0.047
34.73,-0.323,0.377,-0.238
34.74,-0.151,1.812,0.08
34.75,-0.042,0.964,0.044
34.76,0.006,0.492,-0.001
34.77,-0.479,0.871,-0.212
34.78,0.022,1.578,0.079
34.79,-0.245,1.139,0.081
34.8,0.078,0.449,-0.03
34.81,-0.522,0.909,-0.228
34.82,0.029,1.723,0.097
34.83,-0.262,0.911,0.109
34.84,-0.005,0.743,-0.024
34.85,-0.452,0.386,-0.189
34.86,-0.149,1.869,0.093
34.87,-0.172,0.626,0.104
34.88,-0.062,1.037,-0.055
34.89,-0.38,0.302,-0.17
34.9,-0.122,1.723,0.188
34.91,-0.178,1.062,0.101
34.92,-0.122,0.516,-0.069
34.93,-0.422,0.913,-0.191
34.94,-0.075,1.295,0.266
34.95,-0.278,1.376,0.121
34.96,-0.001,0.435,-0.025
34.97,-0.523,0.86,-0.156
34.98,0.025,1.373,0.161
34.99,-0.287,1.051,0.064
35.0,-0.041,0.949,-0.093
35.01,-0.377,0.338,-0.193
35.02,-0.121,1.587,0.141
35.03,-0.093,0.827,0.044
35.04,-0.184,1.108,-0.092
35.05,-0.392,0.279,-0.128
35.06,-0.12,1.348,0.203
35.07,-0.205,1.074,0.034
35.08,-0.095,0.646,-0.113
35.09,-0.47,0.891,-0.172
35.1,-0.03,0.937,0.2
35.11,-0.343,1.239,-0.014
35.12,-0.177,0.338,-0.108
35.13,-0.473,1.153,-0.044
35.14,-0.027,0.85,0.172
35.15,-0.232,1.299,0.013
35.16,-0.234,0.404,-0.205
35.17,-0.185,0.869,0.025
35.18,-0.376,0.589,-0.234
35.19,-0.117,1.212,-0.006
35.2,-0.171,1.213,0.141
35.21,-0.0,0.604,0.003
35.22,-0.494,1.022,-0.189
35.23,-0.142,1.218,0.028
35.24,-0.173,1.045,0.126
35.25,-0.068,0.879,0.01
35.26,-0.469,0.656,-0.264
35.27,-0.17,1.746,0.042
35.28,-0.112,0.665,0.119
35.29,-0.099,1.136,0.037
35.3,-0.412,0.359,-0.228
35.31,-0.21,2.0,0.061
35.32,-0.153,0.712,0.118
35.33,-0.022,0.858,0.036
35.34,-0.479,0.674,-0.202
35.35,-0.082,1.65,0.131
35.36,-0.249,1.031,0.074
35.37,0.108,0.46,0.039
35.38,-0.605,1.05,-0.177
35.39,-0.023,1.535,0.107
35.4,-0.322,1.008,0.145
35.41,0.091,0.614,0.025
35.42,-0.601,0.712,-0.133
35.43,0.015,1.887,0.12
35.44,-0.151,0.754,0.156
35.45,-0.076,0.913,-0.006
35.46,-0.341,0.284,-0.216
35.47,-0.084,2.0,0.134
35.48,-0.12,0.722,0.154
35.49,-0.114,0.76,-0.024
35.5,-0.378,0.583,-0.228
35.51,-0.058,1.667,0.159
35.52,-0.18,1.133,0.112
35.53,0.031,0.358,-0.098
35.54,-0.425,1.0,-0.217
35.55,-0.071,1.251,0.155
35.56,-0.208,1.285,0.11
35.57,-0.025,0.643,-0.039
35.58,-0.475,0.633,-0.124
35.59,-0.054,1.593,0.162
35.6,-0.156,0.879,0.058
35.61,-0.13,1.059,-0.094
35.62,-0.417,0.203,-0.177
35.63,-0.189,1.638,0.193
35.64,-0.109,0.845,0.039
35.65,-0.108,0.965,-0.065
35.66,-0.406,0.552,-0.19
35.67,-0.117,1.193,0.219
35.68,-0.293,1.227,0.12
35.69,-0.064,0.509,-0.149
35.7,-0.501,1.025,-0.155
35.71,-0.032,0.938,0.196
35.72,-0.247,1.294,0.087
35.73,-0.191,0.531,-0.123
35.74,-0.491,0.75,-0.085
35.75,-0.098,1.19,0.174
35.76,-0.218,0.865,0.029
35.77,-0.215,0.918,-0.116
35.78,-0.354,0.765,-0.021
35.79,-0.176,1.312,0.127
35.8,-0.181,0.692,0.023
35.81,-0.34,0.855,-0.144
35.82,-0.167,1.001,-0.053
35.83,-0.174,1.174,0.163
35.84,-0.189,0.875,0.03
35.85,-0.395,0.644,-0.154
35.86,-0.24,1.437,-0.011
35.87,-0.146,0.765,0.099
35.88,-0.284,1.242,0.017
35.89,-0.284,0.317,-0.197
35.9,-0.328,1.703,0.028
35.91,-0.074,0.763,0.161
35.92,-0.115,1.052,0.019
35.93,-0.403,0.673,-0.229
35.94,-0.161,1.452,0.035
35.95,-0.204,1.173,0.152
35.96,0.046,0.489,-0.002
35.97,-0.507,0.993,-0.175
35.98,-0.115,1.429,0.022
35.99,-0.277,0.992,0.119
36.0,0.02,0.698,0.017
36.01,-0.477,0.662,-0.18
36.02,-0.142,1.909,0.109
36.03,-0.153,0.702,0.103
36.04,-0.08,0.981,0.014
36.05,-0.349,0.287,-0.178
36.06,-0.165,2.0,0.132
36.07,-0.107,0.641,0.143
36.08,-0.134,0.804,-0.001
36.09,-0.409,0.544,-0.193
36.1,-0.111,1.739,0.196
36.11,-0.151,1.143,0.1
36.12,0.028,0.317,-0.027
36.13,-0.473,0.966,-0.175
36.14,-0.047,1.479,0.15
36.15,-0.222,1.188,0.117
36.16,0.071,0.607,-0.062
36.17,-0.456,0.703,-0.206
36.18,-0.049,1.685,0.116
36.19,-0.096,0.85,0.024
36.2,-0.128,1.072,-0.084
36.21,-0.361,0.162,-0.169
36.22,-0.211,1.632,0.203
36.23,-0.171,0.899,0.087
36.24,-0.118,0.963,-0.054
36.25,-0.412,0.52,-0.131
36.26,-0.121,1.217,0.184
36.27,-0.262,1.219,0.034
36.28,-0.005,0.592,-0.107
36.29,-0.477,0.982,-0.082
36.3,-0.081,0.919,0.212
36.31,-0.326,1.295,0.06
36.32,-0.147,0.555,-0.123
36.33,-0.412,0.793,-0.066
36.34,-0.09,1.193,0.12
36.35,-0.156,0.754,-0.069
36.36,-0.27,0.916,-0.123
36.37,-0.343,0.479,-0.001
36.38,-0.203,1.364,0.144
36.39,-0.263,0.736,0.032
36.4,-0.345,0.772,-0.147
36.41,-0.275,0.888,-0.045
36.42,-0.059,1.021,0.088
36.43,-0.3,1.177,-0.031
36.44,-0.219,0.296,-0.183
36.45,-0.262,1.64,-0.016
36.46,-0.017,0.806,0.135
36.47,-0.28,1.21,0.033
36.48,-0.335,0.41,-0.231
36.49,-0.157,1.46,-0.013
36.5,-0.146,0.993,0.096
36.51,-0.101,0.788,-0.005
36.52,-0.482,0.947,-0.249
36.53,-0.127,1.204,0.032
36.54,-0.172,1.201,0.163
36.55,-0.078,0.644,0.024
36.56,-0.467,0.931,-0.202
36.57,-0.132,1.563,0.053
36.58,-0.115,1.095,0.155
36.59,-0.012,0.604,-0.034
36.6,-0.476,0.688,-0.124
36.61,-0.103,1.959,0.07
36.62,-0.068,0.705,0.148
36.63,-0.07,0.946,-0.049
36.64,-0.363,0.253,-0.181
36.65,-0.145,2.0,0.109
36.66,-0.054,0.754,0.084
36.67,-0.078,0.737,-0.067
36.68,-0.35,0.576,-0.221
36.69,-0.085,1.512,0.154
36.7,-0.132,1.184,0.07
36.71,0.032,0.418,-0.053
36.72,-0.453,0.985,-0.176
36.73,-0.049,1.328,0.157
36.74,-0.161,1.257,0.072
36.75,-0.052,0.589,-0.065
36.76,-0.41,0.644,-0.151
36.77,-0.198,1.537,0.2
36.78,-0.072,0.876,0.056
36.79,-0.23,1.087,-0.088
36.8,-0.302,0.206,-0.12
36.81,-0.215,1.559,0.169
36.82,-0.208,0.826,0.086
36.83,-0.116,1.033,-0.088
36.84,-0.439,0.544,-0.146
36.85,-0.068,1.136,0.239
36.86,-0.328,1.257,0.024
36.87,-0.003,0.513,-0.07
36.88,-0.52,1.036,-0.079
36.89,-0.021,0.868,0.213
36.9,-0.242,1.236,-0.058
36.91,-0.218,0.508,-0.137
36.92,-0.331,0.817,-0.066
36.93,-0.148,1.12,0.104
36.94,-0.201,0.814,0.001
36.95,-0.321,0.887,-0.148
36.96,-0.265,0.546,-0.003
36.97,-0.168,1.258,0.125
36.98,-0.203,0.824,0.064
36.99,-0.383,0.743,-0.165
37.0,-0.2,1.041,-0.008
37.01,-0.157,0.994,0.072
37.02,-0.271,1.129,-0.015
37.03,-0.241,0.344,-0.218
37.04,-0.21,1.746,-0.009
37.05,-0.058,0.726,0.119
37.06,-0.265,1.171,0.044
37.07,-0.42,0.405,-0.2
37.08,-0.243,1.684,0.084
37.09,-0.191,0.996,0.161
37.1,-0.02,0.66,-0.004
37.11,-0.521,0.93,-0.24
37.12,-0.116,1.347,0.047
37.13,-0.197,1.147,0.147
37.14,-0.012,0.559,-0.007
37.15,-0.426,0.912,-0.192
37.16,-0.132,1.702,0.033
37.17,-0.055,0.892,0.068
37.18,-0.101,0.83,-0.004
37.19,-0.37,0.389,-0.145
37.2,-0.198,2.0,0.14
37.21,-0.026,0.669,0.158
37.22,-0.181,0.93,0.011
37.23,-0.382,0.313,-0.2
37.24,-0.098,1.976,0.17
37.25,-0.122,0.871,0.081
37.26,-0.039,0.528,-0.034
37.27,-0.461,0.865,-0.184
37.28,-0.057,1.357,0.191
37.29,-0.192,1.322,0.127
37.3,0.005,0.396,-0.014
37.31,-0.454,0.893,-0.172
37.32,-0.097,1.386,0.151
37.33,-0.126,1.051,0.06
37.34,-0.074,0.974,-0.08
37.35,-0.335,0.329,-0.173
37.36,-0.193,1.672,0.213
37.37,-0.095,0.857,0.069
37.38,-0.138,1.074,-0.084
37.39,-0.386,0.297,-0.131
37.4,-0.174,1.41,0.193
37.41,-0.204,0.767,-0.028
37.42,-0.182,0.946,-0.102
37.43,-0.41,0.669,-0.102
37.44,-0.078,1.042,0.191
37.45,-0.28,1.206,-0.063
37.46,-0.16,0.335,-0.155
37.47,-0.409,1.204,-0.043
37.48,-0.081,0.815,0.149
37.49,-0.331,1.253,0.021
37.5,-0.296,0.394,-0.116
37.51,-0.243,1.12,-0.019
37.52,-0.139,1.082,0.153
37.53,-0.152,0.784,0.006
37.54,-0.421,0.898,-0.209
37.55,-0.173,0.949,0.046
37.56,-0.198,1.257,0.153
37.57,-0.155,0.714,-0.025
37.58,-0.439,0.849,-0.18
37.59,-0.148,1.458,0.021
37.6,-0.089,0.958,0.148
37.61,-0.24,1.005,0.024
37.62,-0.385,0.423,-0.204
37.63,-0.242,2.0,0.051
37.64,-0.033,0.632,0.091
37.65,-0.115,1.088,-0.002
37.66,-0.478,0.448,-0.216
37.67,-0.146,1.855,0.052
37.68,-0.185,0.852,0.086
37.69,0.006,0.629,0.013
37.7,-0.574,0.907,-0.195
37.71,-0.056,1.558,0.156
37.72,-0.242,1.186,0.185
37.73,0.085,0.445,0.024
37.74,-0.494,0.917,-0.183
37.75,-0.055,1.612,0.132
37.76,-0.093,0.934,0.093
37.77,0.009,0.817,-0.081
37.78,-0.345,0.39,-0.187
37.79,-0.13,1.883,0.128
37.8,-0.004,0.699,0.114
37.81,-0.109,0.983,-0.077
37.82,-0.425,0.286,-0.168
37.83,-0.106,1.644,0.149
37.84,-0.118,1.03,0.058
37.85,-0.062,0.587,-0.066
37.86,-0.474,0.846,-0.175
37.87,-0.073,1.143,0.202
37.88,-0.329,1.316,0.086
37.89,-0.029,0.537,-0.031
37.9,-0.471,0.881,-0.127
37.91,-0.095,1.184,0.159
37.92,-0.186,1.031,0.059
37.93,-0.143,0.941,-0.118
37.94,-0.382,0.396,-0.088
37.95,-0.245,1.413,0.17
37.96,-0.163,0.751,0.077
37.97,-0.267,1.02,-0.13
37.98,-0.38,0.402,-0.116
37.99,-0.183,1.263,0.192
38.0,-0.255,0.956,-0.04
38.01,-0.189,0.497,-0.141
38.02,-0.362,1.007,-0.048
38.03,-0.063,0.936,0.149
38.04,-0.307,1.229,-0.045
38.05,-0.154,0.296,-0.144
38.06,-0.341,1.185,-0.092
38.07,-0.026,0.957,0.111
38.08,-0.26,1.04,-0.005
38.09,-0.323,0.63,-0.14
38.1,-0.232,0.882,-0.019
38.11,-0.204,1.223,0.146
38.12,-0.114,0.695,0.01
38.13,-0.469,0.943,-0.173
38.14,-0.129,0.973,-0.044
38.15,-0.201,1.144,0.096
38.16,-0.148,0.933,0.001
38.17,-0.411,0.597,-0.231
38.18,-0.156,1.579,0.035
38.19,-0.225,0.841,0.151
38.2,-0.038,1.016,0.006
38.21,-0.46,0.393,-0.165
38.22,-0.193,2.0,0.092
38.23,-0.129,0.633,0.147
38.24,-0.121,1.031,0.031
38.25,-0.421,0.349,-0.182
38.26,-0.146,1.893,0.104
38.27,-0.105,0.969,0.109
38.28,-0.022,0.496,-0.009
38.29,-0.444,0.905,-0.221
38.3,-0.028,1.571,0.124
38.31,-0.203,1.096,0.093
38.32,0.06,0.464,-0.013
38.33,-0.414,0.885,-0.24
38.34,-0.042,1.645,0.102
38.35,-0.071,0.904,0.026
38.36,-0.045,0.781,-0.03
38.37,-0.403,0.349,-0.166
38.38,-0.192,1.854,0.185
38.39,-0.023,0.735,0.098
38.4,-0.194,0.974,-0.058
38.41,-0.33,0.365,-0.166
38.42,-0.156,1.732,0.209
38.43,-0.141,1.05,0.093
38.44,-0.021,0.552,-0.061
38.45,-0.484,0.846,-0.178
38.46,0.041,1.18,0.204
38.47,-0.275,1.318,0.016
38.48,0.0,0.526,-0.053
38.49,-0.425,0.895,-0.197
38.5,-0.054,1.196,0.191
38.51,-0.196,1.076,0.084
38.52,-0.128,0.947,-0.084
38.53,-0.389,0.375,-0.085
38.54,-0.157,1.487,0.197
38.55,-0.127,0.821,0.034
38.56,-0.165,1.055,-0.122
38.57,-0.362,0.398,-0.088
38.58,-0.159,1.255,0.191
38.59,-0.288,0.93,-0.022
38.6,-0.161,0.625,-0.085
38.61,-0.463,0.89,-0.064
38.62,0.03,0.924,0.17
38.63,-0.354,1.303,0.029
38.64,-0.138,0.316,-0.152
38.65,-0.448,1.058,-0.016
38.66,-0.044,0.95,0.163
38.67,-0.328,1.097,0.044
38.68,-0.22,0.594,-0.128
38.69,-0.302,0.89,-0.049
38.7,-0.043,1.297,0.171
38.71,-0.134,0.677,0.029
38.72,-0.398,0.979,-0.174
38.73,-0.182,0.88,-0.087
38.74,-0.183,1.184,0.074
38.75,-0.141,0.945,-0.036
38.76,-0.353,0.596,-0.251
38.77,-0.172,1.542,-0.022
38.78,-0.063,0.772,0.11
38.79,-0.164,1.239,-0.006
38.8,-0.351,0.285,-0.208
38.81,-0.174,1.921,0.022
38.82,-0.092,0.832,0.113
38.83,-0.099,0.883,0.029
38.84,-0.509,0.681,-0.192
38.85,-0.226,1.52,0.115
38.86,-0.311,1.031,0.157
38.87,0.057,0.555,0.014
38.88,-0.597,0.98,-0.176
38.89,-0.054,1.448,0.052
38.9,-0.229,1.074,0.133
38.91,0.014,0.665,0.033
38.92,-0.5,0.713,-0.135
38.93,-0.094,1.92,0.074
38.94,-0.151,0.705,0.152
38.95,-0.082,0.964,-0.001
38.96,-0.469,0.248,-0.169
38.97,-0.138,2.0,0.175
38.98,-0.138,0.711,0.085
38.99,-0.139,0.877,-0.042
39.0,-0.299,0.353,-0.181
39.01,-0.176,1.745,0.103
39.02,-0.042,0.953,0.069
39.03,-0.073,0.606,-0.083
39.04,-0.336,0.818,-0.213
39.05,-0.056,1.322,0.145
39.06,-0.229,1.356,0.071
39.07,0.008,0.511,-0.025
39.08,-0.537,0.895,-0.131
39.09,-0.111,1.28,0.235
39.1,-0.281,1.134,0.058
39.11,-0.146,0.858,-0.044
39.12,-0.401,0.412,-0.079
39.13,-0.205,1.475,0.186
39.14,-0.242,0.731,0.116
39.15,-0.117,1.16,-0.087
39.16,-0.42,0.327,-0.148
39.17,-0.12,1.261,0.196
39.18,-0.234,1.039,-0.063
39.19,-0.09,0.637,-0.118
39.2,-0.432,0.873,-0.131
39.21,0.047,0.93,0.198
39.22,-0.32,1.305,-0.032
39.23,-0.165,0.349,-0.117
39.24,-0.457,1.051,0.01
39.25,-0.092,0.91,0.195
39.26,-0.29,1.073,0.004
39.27,-0.29,0.629,-0.163
39.28,-0.214,0.851,-0.021
39.29,-0.203,1.265,0.176
39.3,-0.126,0.672,0.022
39.31,-0.436,0.935,-0.204
39.32,-0.122,1.075,0.039
39.33,-0.135,1.14,0.1
39.34,-0.132,0.879,0.014
39.35,-0.415,0.667,-0.244
39.36,-0.182,1.573,0.028
39.37,-0.108,0.744,0.089
39.38,-0.253,1.228,0.091
39.39,-0.437,0.232,-0.234
39.4,-0.193,1.896,0.053
39.41,-0.072,0.765,0.106
39.42,-0.129,0.905,0.027
39.43,-0.48,0.65,-0.22
39.44,-0.123,1.709,0.084
39.45,-0.241,0.958,0.114
39.46,0.051,0.527,0.021
39.47,-0.571,0.989,-0.185
39.48,-0.009,1.528,0.122
39.49,-0.244,1.13,0.139
39.5,-0.006,0.53,0.002
39.51,-0.546,0.659,-0.154
39.52,-0.061,1.903,0.153
39.53,-0.095,0.686,0.124
39.54,-0.063,0.961,-0.038
39.55,-0.385,0.209,-0.203
39.56,-0.081,2.0,0.126
39.57,-0.083,0.782,0.096
39.58,-0.073,0.804,-0.097
39.59,-0.393,0.525,-0.235
39.6,-0.037,1.481,0.142
39.61,-0.112,1.312,0.037
39.62,-0.04,0.432,-0.062
39.63,-0.449,0.973,-0.159
39.64,-0.081,1.123,0.211
39.65,-0.31,1.273,0.117
39.66,-0.061,0.671,-0.053
39.67,-0.491,0.677,-0.12
39.68,-0.106,1.308,0.2
39.69,-0.105,0.906,0.041
39.7,-0.189,1.062,-0.108
39.71,-0.362,0.308,-0.104
39.72,-0.163,1.369,0.161
39.73,-0.181,0.814,-0.018
39.74,-0.151,0.872,-0.093
39.75,-0.422,0.664,-0.085
39.76,-0.001,1.027,0.156
39.77,-0.305,1.209,-0.081
39.78,-0.104,0.324,-0.153
39.79,-0.361,1.273,-0.022
39.8,-0.097,0.785,0.121
39.81,-0.317,1.238,0.007
39.82,-0.254,0.299,-0.2
39.83,-0.292,1.682,0.066
39.84,-0.13,0.76,0.159
39.85,-0.133,1.021,0.034
39.86,-0.535,0.645,-0.178
39.87,-0.134,1.369,0.108
39.88,-0.268,1.054,0.126
39.89,0.088,0.61,0.0
39.9,-0.58,1.006,-0.187
39.91,-0.014,1.45,0.081
39.92,-0.219,1.135,0.174
39.93,-0.015,0.599,0.015
39.94,-0.531,0.671,-0.149
39.95,-0.089,1.906,0.112
39.96,-0.159,0.617,0.108
39.97,-0.075,0.959,-0.014
39.98,-0.407,0.277,-0.213
39.99,-0.148,2.0,0.124
40.0,-0.073,0.709,0.077
40.01,-0.045,0.739,-0.095
40.02,-0.362,0.571,-0.23
40.03,-0.135,1.385,0.138
40.04,-0.166,1.216,0.059
40.05,-0.043,0.572,-0.027
40.06,-0.421,0.944,-0.157
40.07,-0.083,1.2,0.229
40.08,-0.253,1.343,0.029
40.09,-0.062,0.644,-0.085
40.1,-0.318,0.66,-0.166
40.11,-0.102,1.338,0.136
40.12,-0.108,0.835,-0.055
40.13,-0.162,1.14,-0.127
40.14,-0.379,0.265,-0.139
40.15,-0.141,1.357,0.214
40.16,-0.229,0.844,0.012
40.17,-0.3,0.805,-0.07
40.18,-0.408,0.716,-0.036
40.19,-0.092,1.014,0.166
40.2,-0.3,1.183,0.007
40.21,-0.146,0.343,-0.151
40.22,-0.315,1.371,-0.062
40.23,0.005,0.835,0.141
40.24,-0.233,1.229,-0.014
40.25,-0.262,0.482,-0.22
40.26,-0.288,1.205,-0.023
40.27,-0.138,1.08,0.092
40.28,-0.156,0.825,-0.024
40.29,-0.429,0.875,-0.2
40.3,-0.113,1.139,0.053
40.31,-0.293,1.224,0.191
40.32,-0.112,0.636,0.08
40.33,-0.522,0.887,-0.107
40.34,-0.171,1.645,0.067
40.35,-0.18,0.865,0.161
40.36,-0.034,0.975,0.042
40.37,-0.452,0.371,-0.156
40.38,-0.235,2.0,0.132
40.39,-0.144,0.544,0.07
40.4,-0.094,1.02,0.004
40.41,-0.348,0.359,-0.211
40.42,-0.107,1.871,0.101
40.43,-0.088,0.902,0.082
40.44,0.047,0.532,-0.018
40.45,-0.465,0.82,-0.167
40.46,0.04,1.476,0.113
40.47,-0.216,1.278,0.055
40.48,0.02,0.451,-0.064
40.49,-0.487,0.886,-0.159
40.5,0.019,1.69,0.179
40.51,-0.186,1.029,0.127
40.52,-0.094,0.74,-0.077
40.53,-0.363,0.397,-0.158
40.54,-0.132,1.75,0.184
40.55,-0.132,0.786,0.09
40.56,-0.13,1.074,-0.106
40.57,-0.378,0.267,-0.184
40.58,-0.1,1.433,0.167
40.59,-0.261,1.017,0.078
40.6,-0.302,0.891,-0.075
40.61,-0.398,0.678,-0.053
40.62,-0.047,1.057,0.213
40.63,-0.232,1.207,-0.023
40.64,-0.176,0.327,-0.143
40.65,-0.322,1.292,-0.069
40.66,0.015,0.822,0.067
40.67,-0.292,1.209,-0.037
40.68,-0.166,0.502,-0.195
40.69,-0.338,1.265,-0.082
40.7,-0.042,1.07,0.101
40.71,-0.132,0.86,0.003
40.72,-0.417,0.897,-0.179
40.73,-0.174,1.137,0.051
40.74,-0.245,1.252,0.154
40.75,-0.09,0.665,0.095
40.76,-0.566,0.834,-0.143
40.77,-0.187,1.649,0.096
40.78,-0.233,0.83,0.127
40.79,-0.068,0.998,0.027
40.8,-0.381,0.408,-0.141
40.81,-0.279,2.0,0.134
40.82,-0.139,0.534,0.149
40.83,-0.102,1.042,0.022
40.84,-0.461,0.396,-0.175
40.85,-0.098,1.86,0.132
40.86,-0.19,0.979,0.124
40.87,-0.054,0.435,0.003
40.88,-0.455,0.91,-0.188
40.89,-0.057,1.466,0.185
40.9,-0.22,1.195,0.102
40.91,0.016,0.395,-0.045
40.92,-0.451,0.857,-0.184
40.93,-0.057,1.563,0.169
40.94,-0.177,0.984,0.094
40.95,-0.132,0.864,-0.081
40.96,-0.36,0.342,-0.137
40.97,-0.188,1.828,0.215
40.98,-0.05,0.845,0.037
40.99,-0.149,1.024,-0.079
41.0,-0.386,0.256,-0.14
41.01,-0.137,1.511,0.213
41.02,-0.18,1.062,0.062
41.03,-0.113,0.626,-0.122
41.04,-0.427,0.916,-0.166
41.05,-0.026,1.014,0.199
41.06,-0.322,1.281,0.04
41.07,-0.073,0.443,-0.145
41.08,-0.424,0.926,-0.126
41.09,-0.076,1.019,0.187
41.1,-0.264,1.046,0.0
41.11,-0.242,0.75,-0.132
41.12,-0.401,0.478,-0.015
41.13,-0.079,1.352,0.128
41.14,-0.157,0.752,0.004
41.15,-0.311,0.922,-0.13
41.16,-0.329,0.64,-0.032
41.17,-0.158,1.18,0.164
41.18,-0.209,1.058,-0.029
41.19,-0.268,0.504,-0.163
41.2,-0.281,1.436,-0.024
41.21,0.01,0.766,0.093
41.22,-0.291,1.28,0.059
41.23,-0.282,0.336,-0.202
41.24,-0.264,1.765,0.065
41.25,-0.065,0.813,0.094
41.26,-0.114,0.914,-0.019
41.27,-0.421,0.735,-0.238
41.28,-0.185,1.469,0.062
41.29,-0.228,1.035,0.138
41.3,0.072,0.565,0.012
41.31,-0.612,1.052,-0.164
41.32,-0.02,1.548,0.092
41.33,-0.282,0.998,0.158
41.34,0.13,0.709,0.016
41.35,-0.535,0.57,-0.199
41.36,0.013,1.881,0.136
41.37,-0.106,0.732,0.106
41.38,-0.086,0.927,-0.025
41.39,-0.372,0.275,-0.256
41.4,-0.123,2.0,0.148
41.41,-0.127,0.782,0.127
41.42,-0.204,0.926,-0.072
41.43,-0.424,0.362,-0.121
41.44,-0.161,1.397,0.188
41.45,-0.275,1.058,0.109
41.46,-0.038,0.642,-0.115
41.47,-0.434,0.904,-0.148
41.48,-0.026,0.94,0.183
41.49,-0.346,1.345,0.018
41.5,-0.102,0.391,-0.106
41.51,-0.474,0.824,-0.135
41.52,0.056,1.119,0.125
41.53,-0.186,1.006,0.006
41.54,-0.183,0.865,-0.171
41.55,-0.354,0.468,-0.058
41.56,-0.142,1.336,0.148
41.57,-0.226,0.685,-0.008
41.58,-0.287,0.896,-0.105
41.59,-0.342,0.78,-0.033
41.6,-0.104,1.148,0.135
41.61,-0.246,1.059,0.014
41.62,-0.32,0.465,-0.145
41.63,-0.218,1.504,-0.048
41.64,-0.066,0.795,0.125
41.65,-0.213,1.261,0.026
41.66,-0.365,0.262,-0.189
41.67,-0.186,1.74,0.039
41.68,-0.094,0.809,0.14
41.69,-0.121,0.864,-0.012
41.7,-0.418,0.808,-0.193
41.71,-0.178,1.404,-0.017
41.72,-0.155,1.099,0.109
41.73,0.027,0.568,-0.005
41.74,-0.548,1.014,-0.202
41.75,-0.081,1.548,0.123
41.76,-0.229,1.032,0.174
41.77,-0.007,0.712,0.042
41.78,-0.475,0.622,-0.121
41.79,-0.111,1.954,0.177
41.8,-0.071,0.637,0.088
41.81,-0.135,0.986,0.008
41.82,-0.374,0.236,-0.213
41.83,-0.054,2.0,0.14
41.84,-0.094,0.786,0.073
41.85,-0.063,0.623,-0.066
41.86,-0.441,0.676,-0.229
41.87,-0.033,1.556,0.158
41.88,-0.283,1.171,0.08
41.89,0.099,0.461,-0.055
41.9,-0.561,0.938,-0.162
41.91,0.017,1.271,0.179
41.92,-0.291,1.259,0.064
41.93,-0.016,0.718,-0.044
41.94,-0.541,0.538,-0.119
41.95,-0.094,1.59,0.222
41.96,-0.09,0.87,0.07
41.97,-0.197,1.063,-0.149
41.98,-0.372,0.288,-0.079
41.99,-0.213,1.442,0.177
42.0,-0.224,0.855,0.023
42.01,-0.134,0.862,-0.126
42.02,-0.44,0.729,-0.177
42.03,0.01,1.019,0.18
42.04,-0.356,1.3,0.02
42.05,-0.103,0.262,-0.145
42.06,-0.488,1.123,-0.059
42.07,-0.054,0.92,0.164
42.08,-0.237,1.174,0.028
42.09,-0.264,0.498,-0.168
42.1,-0.283,0.855,-0.02
42.11,-0.14,1.182,0.108
42.12,-0.078,0.772,-0.01
42.13,-0.358,0.835,-0.18
42.14,-0.176,0.891,-0.035
42.15,-0.153,1.281,0.128
42.16,-0.094,0.79,-0.014
42.17,-0.429,0.824,-0.173
42.18,-0.216,1.421,-0.003
42.19,-0.117,0.833,0.095
42.2,-0.19,1.128,0.0
42.21,-0.462,0.555,-0.153
42.22,-0.227,1.888,0.154
42.23,-0.05,0.636,0.091
42.24,-0.127,1.048,0.04
42.25,-0.363,0.31,-0.189
42.26,-0.207,1.989,0.122
42.27,-0.069,0.724,0.102
42.28,-0.106,0.726,-0.016
42.29,-0.408,0.731,-0.208
42.3,0.015,1.636,0.122
42.31,-0.216,1.173,0.092
42.32,0.101,0.326,-0.015
42.33,-0.525,0.981,-0.181
42.34,0.03,1.548,0.136
42.35,-0.247,1.146,0.109
42.36,0.011,0.662,-0.041
42.37,-0.48,0.502,-0.14
42.38,-0.078,1.835,0.227
42.39,-0.119,0.768,0.125
42.4,-0.17,1.033,-0.076
42.41,-0.402,0.257,-0.106
42.42,-0.202,1.658,0.2
42.43,-0.196,0.948,0.093
42.44,-0.118,0.804,-0.083
42.45,-0.324,0.639,-0.183
42.46,-0.083,1.174,0.205
42.47,-0.242,1.267,0.037
42.48,-0.097,0.471,-0.149
42.49,-0.508,0.989,-0.105
42.5,-0.046,0.982,0.222
42.51,-0.285,1.194,0.013
42.52,-0.158,0.605,-0.172
42.53,-0.482,0.638,-0.076
42.54,-0.092,1.262,0.15
42.55,-0.248,0.779,0.033
42.56,-0.303,0.924,-0.09
42.57,-0.407,0.505,-0.013
42.58,-0.134,1.322,0.167
42.59,-0.17,0.849,0.037
42.6,-0.371,0.735,-0.17
42.61,-0.242,0.979,-0.058
42.62,-0.117,0.941,0.106
42.63,-0.256,1.251,0.001
42.64,-0.171,0.33,-0.155
42.65,-0.269,1.694,-0.001
42.66,0.028,0.763,0.127
42.67,-0.219,1.139,-0.006
42.68,-0.331,0.556,-0.206
42.69,-0.176,1.536,0.011
42.7,-0.158,1.071,0.118
42.71,0.032,0.621,-0.0
42.72,-0.512,0.969,-0.227
42.73,-0.158,1.228,0.112
42.74,-0.299,1.085,0.153
42.75,-0.014,0.674,0.038
42.76,-0.607,0.884,-0.164
42.77,-0.118,1.709,0.125
42.78,-0.196,0.772,0.159
42.79,-0.056,0.935,0.045
42.8,-0.49,0.35,-0.125
42.81,-0.17,2.0,0.117
42.82,-0.121,0.667,0.162
42.83,-0.116,0.888,-0.01
42.84,-0.391,0.421,-0.208
42.85,-0.088,1.888,0.149
42.86,-0.183,0.996,0.121
42.87,0.004,0.443,-0.048
42.88,-0.497,0.951,-0.192
42.89,-0.044,1.349,0.126
42.9,-0.159,1.305,0.085
42.91,-0.048,0.461,-0.064
42.92,-0.421,0.859,-0.154
42.93,-0.112,1.489,0.089
42.94,-0.127,0.977,0.125
42.95,-0.19,1.0,-0.087
42.96,-0.399,0.27,-0.148
42.97,-0.219,1.715,0.178
42.98,-0.145,0.815,0.129
42.99,-0.184,1.067,-0.093
43.0,-0.374,0.354,-0.118
43.01,-0.116,1.364,0.173
43.02,-0.227,0.82,-0.013
43.03,-0.229,0.809,-0.084
43.04,-0.477,0.778,-0.099
43.05,0.005,1.0,0.168
43.06,-0.345,1.273,0.035
43.07,-0.143,0.235,-0.162
43.08,-0.358,1.311,-0.019
43.09,-0.016,0.849,0.11
43.1,-0.388,1.161,0.032
43.11,-0.213,0.522,-0.194
43.12,-0.263,1.26,-0.031
43.13,-0.051,1.151,0.141
43.14,-0.089,0.709,-0.003
43.15,-0.446,1.026,-0.237
43.16,-0.168,1.069,0.03
43.17,-0.184,1.158,0.104
43.18,-0.13,0.772,0.003
43.19,-0.454,0.81,-0.211
43.2,-0.16,1.583,0.023
43.21,-0.076,0.797,0.132
43.22,-0.072,1.043,-0.007
43.23,-0.417,0.394,-0.229
43.24,-0.193,2.0,0.099
43.25,-0.153,0.67,0.141
43.26,-0.087,0.946,0.037
43.27,-0.45,0.438,-0.236
43.28,-0.112,1.812,0.116
43.29,-0.197,0.941,0.073
43.3,0.033,0.488,0.019
43.31,-0.53,1.0,-0.176
43.32,0.026,1.512,0.147
43.33,-0.223,1.144,0.147
43.34,0.069,0.442,0.003
43.35,-0.522,0.787,-0.183
43.36,-0.029,1.681,0.139
43.37,-0.139,0.85,0.076
43.38,-0.047,0.928,-0.088
43.39,-0.348,0.326,-0.198
43.4,-0.117,1.91,0.126
43.41,-0.049,0.754,0.091
43.42,-0.138,0.879,-0.096
43.43,-0.436,0.365,-0.2
43.44,-0.118,1.553,0.187
43.45,-0.214,1.161,0.095
43.46,-0.058,0.608,-0.054
43.47,-0.477,0.91,-0.178
43.48,-0.055,1.144,0.199
43.49,-0.282,1.328,0.085
43.5,-0.057,0.546,-0.054
43.51,-0.148,1.098,-0.123
43.52,-0.356,0.239,-0.143
43.53,-0.217,1.479,0.183
43.54,-0.181,0.845,0.068
43.55,-0.22,0.872,-0.131
43.56,-0.397,0.634,-0.141
43.57,-0.042,1.098,0.203
43.58,-0.224,1.181,-0.042
43.59,-0.07,0.409,-0.186
43.6,-0.511,1.054,-0.151
43.61,-0.029,0.911,0.175
43.62,-0.266,1.263,0.007
43.63,-0.188,0.401,-0.126
43.64,-0.406,0.85,-0.045
43.65,-0.067,1.187,0.139
43.66,-0.191,0.832,0.052
43.67,-0.345,0.642,-0.18
43.68,-0.242,0.941,-0.019
43.69,-0.2,1.256,0.101
43.7,-0.127,0.744,0.031
43.71,-0.363,0.992,-0.163
43.72,-0.215,1.089,-0.004
43.73,-0.091,1.12,0.098
43.74,-0.169,0.941,-0.028
43.75,-0.307,0.622,-0.233
43.76,-0.176,1.81,0.019
43.77,-0.018,0.712,0.105
43.78,-0.146,1.114,-0.006
43.79,-0.432,0.318,-0.213
43.8,-0.248,1.922,0.078
43.81,-0.184,0.711,0.105
43.82,-0.088,0.863,0.051
43.83,-0.436,0.748,-0.214
43.84,-0.155,1.546,0.09
43.85,-0.172,1.207,0.144
43.86,0.02,0.365,0.006
43.87,-0.541,0.993,-0.133
43.88,-0.076,1.599,0.128
43.89,-0.21,1.017,0.129
43.9,0.008,0.651,-0.031
43.91,-0.461,0.583,-0.189
43.92,-0.051,1.955,0.145
43.93,-0.076,0.75,0.093
43.94,-0.156,0.867,-0.014
43.95,-0.319,0.24,-0.198
43.96,-0.207,1.911,0.095
43.97,-0.025,0.787,0.08
43.98,-0.144,0.762,-0.047
43.99,-0.426,0.544,-0.176
44.0,-0.017,1.538,0.151
44.01,-0.22,1.304,0.07
44.02,0.101,0.452,-0.071
44.03,-0.54,1.007,-0.17
44.04,0.089,1.263,0.193
44.05,-0.246,1.241,0.025
44.06,0.044,0.656,-0.093
44.07,-0.505,0.644,-0.172
44.08,-0.101,1.43,0.191
44.09,-0.186,0.84,0.046
44.1,-0.188,1.075,-0.081
44.11,-0.456,0.289,-0.047
44.12,-0.19,1.474,0.216
44.13,-0.276,0.89,0.033
44.14,-0.129,0.797,-0.119
44.15,-0.389,0.636,-0.174
44.16,0.023,1.074,0.156
44.17,-0.292,1.186,-0.023
44.18,-0.068,0.435,-0.125
44.19,-0.501,1.093,-0.044
44.2,-0.052,0.871,0.168
44.21,-0.289,1.247,-0.009
44.22,-0.206,0.444,-0.127
44.23,-0.448,0.824,-0.047
44.24,-0.143,1.135,0.156
44.25,-0.152,0.821,0.018
44.26,-0.329,0.806,-0.149
44.27,-0.265,0.756,-0.005
44.28,-0.133,1.309,0.121
44.29,-0.225,0.736,0.072
44.3,-0.403,0.757,-0.161
44.31,-0.26,1.118,0.008
44.32,-0.173,0.962,0.117
44.33,-0.223,1.155,-0.022
44.34,-0.337,0.339,-0.215
44.35,-0.23,1.606,0.008
44.36,-0.152,0.705,0.101
44.37,-0.243,1.226,0.094
44.38,-0.315,0.383,-0.183
44.39,-0.156,1.604,0.031
44.4,-0.152,0.971,0.172
44.41,0.024,0.727,-0.017
44.42,-0.557,0.87,-0.214
44.43,-0.081,1.271,0.12
44.44,-0.386,1.128,0.159
44.45,0.013,0.576,0.036
44.46,-0.49,0.897,-0.148
44.47,-0.132,1.662,0.015
44.48,-0.206,1.089,0.138
44.49,-0.013,0.597,0.027
44.5,-0.409,0.652,-0.144
44.51,-0.16,1.913,0.172
44.52,-0.056,0.642,0.11
44.53,-0.167,0.961,-0.04
44.54,-0.373,0.243,-0.165
44.55,-0.143,2.0,0.102
44.56,-0.075,0.747,0.092
44.57,-0.148,0.695,-0.041
44.58,-0.34,0.583,-0.228
44.59,-0.124,1.465,0.169
44.6,-0.22,1.207,0.111
44.61,-0.012,0.495,-0.04
44.62,-0.558,1.004,-0.15
44.63,-0.054,1.222,0.28
44.64,-0.309,1.347,0.115
44.65,-0.067,0.63,-0.058
44.66,-0.404,0.651,-0.098
44.67,-0.165,1.348,0.172
44.68,-0.095,0.931,0.015
44.69,-0.176,1.055,-0.132
44.7,-0.373,0.297,-0.098
44.71,-0.176,1.448,0.159
44.72,-0.118,0.792,0.016
44.73,-0.322,0.941,-0.104
44.74,-0.214,0.664,-0.147
44.75,-0.144,1.038,0.146
44.76,-0.225,1.22,-0.031
44.77,-0.131,0.336,-0.153
44.78,-0.368,1.229,-0.049
44.79,0.004,0.846,0.138
44.8,-0.311,1.229,0.04
44.81,-0.254,0.43,-0.166
44.82,-0.343,1.006,0.019
44.83,-0.163,1.097,0.143
44.84,-0.16,0.78,0.006
44.85,-0.375,0.833,-0.198
44.86,-0.196,0.895,-0.012
44.87,-0.202,1.277,0.107
44.88,-0.15,0.745,0.042
44.89,-0.351,0.867,-0.169
44.9,-0.188,1.428,0.034
44.91,-0.103,0.876,0.143
44.92,-0.089,1.07,-0.037
44.93,-0.404,0.418,-0.203
44.94,-0.213,1.989,0.07
44.95,-0.142,0.616,0.114
44.96,-0.16,1.081,0.031
44.97,-0.369,0.419,-0.176
44.98,-0.253,1.853,0.1
44.99,-0.152,0.932,0.115
45.0,-0.05,0.579,0.001
45.01,-0.465,0.88,-0.162
45.02,-0.041,1.547,0.102
45.03,-0.253,1.114,0.159
45.04,0.015,0.451,0.026
45.05,-0.515,0.903,-0.179
45.06,-0.079,1.732,0.155
45.07,-0.165,0.862,0.091
45.08,0.016,0.791,-0.039
45.09,-0.393,0.356,-0.191
45.1,-0.193,1.895,0.125
45.11,-0.09,0.712,0.109
45.12,-0.123,0.985,-0.057
45.13,-0.38,0.276,-0.134
45.14,-0.153,1.687,0.173
45.15,-0.234,1.074,0.129
45.16,-0.063,0.647,-0.007
45.17,-0.433,0.833,-0.161
45.18,-0.035,1.183,0.227
45.19,-0.247,1.375,0.049
45.2,-0.057,0.458,-0.07
45.21,-0.403,0.922,-0.119
45.22,-0.097,1.16,0.163
45.23,-0.216,0.985,-0.004
45.24,-0.198,0.883,-0.132
45.25,-0.388,0.417,-0.062
45.26,-0.207,1.375,0.178
45.27,-0.188,0.72,-0.014
45.28,-0.334,0.857,-0.145
45.29,-0.316,0.624,0.0
45.3,-0.101,1.353,0.128
45.31,-0.188,0.823,0.032
45.32,-0.387,0.733,-0.176
45.33,-0.253,1.141,-0.058
45.34,-0.079,0.961,0.079
45.35,-0.146,1.203,-0.032
45.36,-0.295,0.349,-0.222
45.37,-0.22,1.739,0.042
45.38,-0.077,0.771,0.139
45.39,-0.233,1.145,0.021
45.4,-0.317,0.396,-0.211
45.41,-0.187,1.669,0.031
45.42,-0.153,0.947,0.117
45.43,-0.0,0.676,0.016
45.44,-0.475,0.943,-0.225
45.45,-0.125,1.299,0.063
45.46,-0.242,1.097,0.159
45.47,-0.021,0.639,0.052
45.48,-0.542,0.882,-0.179
45.49,-0.156,1.717,0.077
45.5,-0.181,0.818,0.14
45.51,-0.032,0.88,0.002
45.52,-0.375,0.414,-0.175
45.53,-0.173,2.0,0.132
45.54,-0.067,0.639,0.136
45.55,-0.109,0.941,-0.037
45.56,-0.374,0.333,-0.213
45.57,-0.078,1.847,0.104
45.58,-0.122,0.996,0.075
45.59,-0.071,0.485,-0.042
45.6,-0.457,0.858,-0.205
45.61,-0.029,1.474,0.164
45.62,-0.204,1.259,0.065
45.63,-0.016,0.413,-0.008
45.64,-0.468,0.899,-0.164
45.65,-0.07,1.392,0.174
45.66,-0.244,0.98,0.102
45.67,-0.105,0.943,-0.077
45.68,-0.375,0.323,-0.114
45.69,-0.177,1.621,0.174
45.7,-0.175,0.816,0.103
45.71,-0.169,1.091,-0.1
45.72,-0.427,0.328,-0.099
45.73,-0.094,1.329,0.209
45.74,-0.21,1.097,-0.036
45.75,-0.06,0.631,-0.136
45.76,-0.487,0.955,-0.112
45.77,0.0,0.935,0.24
45.78,-0.38,1.307,-0.016
45.79,-0.152,0.374,-0.123
45.8,-0.442,0.989,-0.038
45.81,-0.123,0.975,0.166
45.82,-0.222,1.038,-0.0
45.83,-0.342,0.714,-0.091
45.84,-0.297,0.652,-0.011
45.85,-0.22,1.291,0.174
45.86,-0.112,0.716,0.061
45.87,-0.437,0.86,-0.219
45.88,-0.157,0.849,-0.016
45.89,-0.225,1.195,0.099
45.9,-0.215,0.963,0.001
45.91,-0.362,0.517,-0.167
45.92,-0.19,1.557,-0.035
45.93,-0.072,0.699,0.102
45.94,-0.225,1.273,0.024
45.95,-0.323,0.235,-0.216
45.96,-0.213,1.758,0.057
45.97,-0.111,0.804,0.094
45.98,-0.15,0.902,0.035
45.99,-0.468,0.697,-0.192
46.0,-0.188,1.502,0.082
46.01,-0.247,1.063,0.101
46.02,0.085,0.529,-0.002
46.03,-0.641,0.995,-0.151
46.04,0.027,1.521,0.091
46.05,-0.256,1.099,0.132
46.06,-0.027,0.625,0.027
46.07,-0.441,0.599,-0.174
46.08,0.032,1.759,0.095
46.09,-0.165,0.912,0.079
46.1,-0.06,0.833,-0.046
46.11,-0.357,0.297,-0.219
46.12,-0.189,1.821,0.15
46.13,-0.058,0.728,0.124
46.14,-0.18,0.974,-0.022
46.15,-0.386,0.322,-0.131
46.16,-0.15,1.57,0.18
46.17,-0.257,1.092,0.085
46.18,-0.045,0.673,-0.051
46.19,-0.442,0.902,-0.145
46.2,-0.027,1.06,0.207
46.21,-0.388,1.369,0.066
46.22,-0.092,0.518,-0.053
46.23,-0.449,0.861,-0.108
46.24,-0.061,1.104,0.182
46.25,-0.224,1.011,0.042
46.26,-0.322,0.874,-0.094
46.27,-0.418,0.421,-0.113
46.28,-0.18,1.373,0.161
46.29,-0.198,0.744,0.046
46.3,-0.31,0.903,-0.114
46.31,-0.298,0.544,-0.045
46.32,-0.132,1.195,0.123
46.33,-0.276,1.01,0.029
46.34,-0.283,0.465,-0.126
46.35,-0.331,1.171,-0.045
46.36,-0.045,0.862,0.098
46.37,-0.278,1.288,0.016
46.38,-0.286,0.315,-0.17
46.39,-0.292,1.24,0.024
46.4,-0.156,0.955,0.18
46.41,-0.206,1.019,0.028
46.42,-0.369,0.637,-0.153
46.43,-0.148,1.184,0.007
46.44,-0.177,1.283,0.125
46.45,-0.074,0.637,0.012
46.46,-0.476,0.947,-0.172
46.47,-0.156,1.2,0.099
46.48,-0.225,1.056,0.165
46.49,-0.098,0.864,-0.021
46.5,-0.488,0.656,-0.198
46.51,-0.204,1.786,0.061
46.52,-0.113,0.655,0.106
46.53,-0.113,1.156,0.023
46.54,-0.441,0.354,-0.225
46.55,-0.171,1.986,0.059
46.56,-0.195,0.751,0.142
46.57,-0.042,0.809,0.043
46.58,-0.508,0.706,-0.183
46.59,-0.074,1.653,0.127
46.6,-0.265,1.046,0.149
46.61,0.131,0.461,0.004
46.62,-0.651,0.979,-0.169
46.63,0.101,1.596,0.144
46.64,-0.312,1.084,0.109
46.65,0.113,0.576,-0.006
46.66,-0.463,0.601,-0.205
46.67,-0.054,1.866,0.128
46.68,-0.095,0.72,0.132
46.69,-0.098,0.932,-0.077
46.7,-0.364,0.24,-0.199
46.71,-0.18,2.0,0.122
46.72,-0.081,0.724,0.052
46.73,-0.095,0.727,-0.084
46.74,-0.416,0.626,-0.219
46.75,-0.083,1.379,0.153
46.76,-0.25,1.272,0.06
46.77,0.024,0.417,-0.053
46.78,-0.462,1.024,-0.158
46.79,-0.01,1.198,0.186
46.8,-0.337,1.198,0.087
46.81,-0.045,0.756,-0.064
46.82,-0.542,0.604,-0.098
46.83,-0.07,1.495,0.19
46.84,-0.158,0.994,0.089
46.85,-0.168,0.957,-0.123
46.86,-0.439,0.341,-0.111
46.87,-0.204,1.392,0.196
46.88,-0.17,0.808,0.016
46.89,-0.344,0.969,-0.137
46.9,-0.312,0.541,-0.076
46.91,-0.151,1.188,0.126
46.92,-0.195,1.04,-0.018
46.93,-0.257,0.513,-0.204
46.94,-0.308,1.126,-0.033
46.95,-0.043,0.813,0.138
46.96,-0.294,1.341,-0.017
46.97,-0.225,0.23,-0.132
46.98,-0.296,1.442,-0.059
46.99,-0.07,0.923,0.148
47.0,-0.204,1.031,-0.004
47.01,-0.404,0.67,-0.199
47.02,-0.155,1.074,0.023
47.03,-0.216,1.223,0.119
47.04,-0.095,0.704,-0.015
47.05,-0.518,0.911,-0.227
47.06,-0.094,1.219,0.051
47.07,-0.156,1.04,0.144
47.08,0.012,0.86,-0.028
47.09,-0.523,0.579,-0.184
47.1,-0.118,1.921,0.017
47.11,-0.109,0.711,0.121
47.12,-0.092,1.067,0.027
47.13,-0.542,0.287,-0.174
47.14,-0.145,1.993,0.127
47.15,-0.119,0.8,0.094
47.16,-0.051,0.695,-0.008
47.17,-0.477,0.635,-0.217
47.18,-0.052,1.671,0.138
47.19,-0.229,1.117,0.117
47.2,0.153,0.393,-0.035
47.21,-0.511,0.942,-0.23
47.22,0.005,1.59,0.132
47.23,-0.212,1.141,0.078
47.24,-0.023,0.587,-0.016
47.25,-0.347,0.624,-0.194
47.26,-0.137,1.649,0.09
47.27,-0.003,0.848,0.027
47.28,-0.11,1.104,-0.093
47.29,-0.257,0.158,-0.153
47.3,-0.169,1.788,0.21
47.31,-0.115,0.86,0.069
47.32,-0.208,0.897,-0.1
47.33,-0.297,0.623,-0.161
47.34,-0.12,1.202,0.189
47.35,-0.175,1.3,-0.002
47.36,-0.027,0.502,-0.106
47.37,-0.427,1.053,-0.138
47.38,-0.049,0.914,0.2
47.39,-0.271,1.214,0.006
47.4,-0.209,0.634,-0.125
47.41,-0.386,0.692,-0.03
47.42,-0.148,1.21,0.15
47.43,-0.163,0.805,0.02
47.44,-0.308,0.881,-0.112
47.45,-0.321,0.513,-0.003
47.46,-0.169,1.34,0.169
47.47,-0.274,0.806,-0.003
47.48,-0.268,0.739,-0.136
47.49,-0.253,1.182,-0.063
47.5,0.016,0.937,0.1
47.51,-0.215,1.184,-0.048
47.52,-0.192,0.393,-0.261
47.53,-0.287,1.635,-0.036
47.54,-0.048,0.728,0.07
47.55,-0.203,1.234,0.004
47.56,-0.366,0.344,-0.228
47.57,-0.174,1.635,0.038
47.58,-0.112,1.023,0.085
47.59,-0.004,0.622,0.011
47.6,-0.488,0.921,-0.181
47.61,-0.116,1.468,0.087
47.62,-0.219,1.131,0.153
47.63,0.01,0.576,0.053
47.64,-0.579,0.885,-0.157
47.65,-0.065,1.76,0.105
47.66,-0.157,0.814,0.104
47.67,-0.068,0.869,0.015
47.68,-0.395,0.393,-0.173
47.69,-0.116,1.836,0.073
47.7,0.027,0.687,0.012
47.71,-0.105,1.009,-0.077
47.72,-0.313,0.211,-0.129
47.73,-0.18,1.844,0.159
47.74,-0.165,0.893,0.091
47.75,-0.117,0.802,-0.053
47.76,-0.416,0.609,-0.154
47.77,-0.105,1.277,0.191
47.78,-0.3,1.327,0.058
47.79,0.046,0.56,-0.078
47.8,-0.499,0.952,-0.139
47.81,0.009,1.06,0.233
47.82,-0.307,1.238,0.023
47.83,-0.121,0.724,-0.114
47.84,-0.417,0.579,-0.119
47.85,-0.14,1.317,0.168
47.86,-0.125,0.847,-0.006
47.87,-0.267,1.045,-0.124
47.88,-0.36,0.377,-0.057
47.89,-0.166,1.353,0.193
47.9,-0.289,0.792,0.027
47.91,-0.321,0.764,-0.089
47.92,-0.305,0.889,-0.034
47.93,-0.029,0.959,0.119
47.94,-0.234,1.232,-0.031
47.95,-0.244,0.294,-0.204
47.96,-0.275,1.434,-0.03
47.97,-0.057,0.843,0.122
47.98,-0.229,1.209,0.0
47.99,-0.292,0.446,-0.2
48.0,-0.194,1.502,-0.041
48.01,-0.07,1.101,0.108
48.02,-0.051,0.705,-0.012
48.03,-0.508,0.952,-0.215
48.04,-0.134,1.142,0.032
48.05,-0.346,1.085,0.137
48.06,-0.032,0.773,0.07
48.07,-0.584,0.835,-0.174
48.08,-0.106,1.616,0.067
48.09,-0.174,0.83,0.106
48.1,-0.09,0.967,0.044
48.11,-0.417,0.42,-0.136
48.12,-0.233,1.983,0.127
48.13,-0.08,0.59,0.17
48.14,-0.147,0.972,0.009
48.15,-0.399,0.35,-0.196
48.16,-0.065,1.888,0.12
48.17,-0.153,0.948,0.064
48.18,0.001,0.427,-0.036
48.19,-0.518,0.921,-0.175
48.2,0.027,1.422,0.108
48.21,-0.147,1.281,0.066
48.22,0.004,0.392,-0.047
48.23,-0.488,0.841,-0.191
48.24,-0.072,1.5,0.134
48.25,-0.175,0.942,0.132
48.26,-0.201,0.976,-0.081
48.27,-0.329,0.314,-0.156
48.28,-0.169,1.747,0.205
48.29,-0.07,0.874,0.126
48.3,-0.186,0.991,-0.095
48.31,-0.355,0.323,-0.154
48.32,-0.128,1.384,0.2
48.33,-0.167,1.094,-0.003
48.34,-0.026,0.689,-0.164
48.35,-0.445,0.876,-0.15
48.36,-0.023,0.946,0.203
48.37,-0.247,1.366,0.01
48.38,-0.143,0.362,-0.111
48.39,-0.464,0.918,-0.08
48.4,-0.071,1.074,0.159
48.41,-0.298,0.987,-0.013
48.42,-0.196,0.791,-0.117
48.43,-0.419,0.493,-0.03
48.44,-0.124,1.338,0.137
48.45,-0.186,0.726,0.066
48.46,-0.39,0.935,-0.101
48.47,-0.358,0.619,0.026
48.48,-0.153,1.134,0.121
