t,ax,ay,az
0.0,-0.218,1.723,0.236
0.01,-0.24,0.863,0.065
0.02,-0.204,0.985,-0.064
0.03,-0.362,0.397,-0.127
0.04,-0.124,1.277,0.188
0.05,-0.23,1.149,-0.028
0.06,-0.149,0.57,-0.147
0.07,-0.327,0.979,-0.101
0.08,0.063,0.847,0.108
0.09,-0.214,1.377,-0.063
0.1,-0.141,0.362,-0.205
0.11,-0.328,1.122,-0.123
0.12,-0.023,0.903,0.074
0.13,-0.309,1.132,-0.001
0.14,-0.246,0.625,-0.091
0.15,-0.254,1.385,-0.093
0.16,-0.09,1.151,0.182
0.17,-0.08,0.514,0.024
0.18,-0.487,1.101,-0.172
0.19,-0.186,1.263,-0.013
0.2,-0.26,0.943,0.113
0.21,-0.082,0.897,0.032
0.22,-0.396,0.647,-0.199
0.23,-0.255,1.592,0.069
0.24,-0.165,0.571,0.123
0.25,-0.193,1.235,0.002
0.26,-0.204,0.269,-0.173
0.27,-0.251,1.947,0.111
0.28,-0.015,0.656,0.118
0.29,-0.14,0.81,-0.01
0.3,-0.431,0.569,-0.212
0.31,-0.033,1.666,0.09
0.32,-0.188,1.032,0.096
0.33,0.021,0.478,-0.015
0.34,-0.498,0.877,-0.197
0.35,-0.016,1.622,0.098
0.36,-0.302,0.928,0.077
0.37,-0.016,0.656,0.013
0.38,-0.453,0.56,-0.164
0.39,-0.087,1.794,0.085
0.4,-0.023,0.773,0.124
0.41,-0.128,1.011,-0.004
0.42,-0.381,0.135,-0.146
0.43,-0.148,1.97,0.247
0.44,-0.063,0.746,0.181
0.45,-0.16,0.946,-0.056
0.46,-0.413,0.531,-0.184
0.47,-0.058,1.692,0.214
0.48,-0.181,1.191,0.059
0.49,0.022,0.392,-0.083
0.5,-0.432,0.905,-0.202
0.51,0.037,1.354,0.117
0.52,-0.219,1.321,0.029
0.53,0.006,0.561,-0.117
0.54,-0.332,0.566,-0.207
0.55,-0.094,1.568,0.145
0.56,-0.17,0.956,0.048
0.57,-0.158,1.06,-0.156
0.58,-0.323,0.156,-0.128
0.59,-0.136,1.777,0.185
0.6,-0.066,0.898,0.01
0.61,-0.174,0.909,-0.11
0.62,-0.457,0.493,-0.093
0.63,-0.141,1.285,0.263
0.64,-0.331,1.366,-0.002
0.65,-0.094,0.454,-0.131
0.66,-0.218,1.367,-0.091
0.67,0.075,0.771,0.144
0.68,-0.298,1.203,-0.003
0.69,-0.19,0.486,-0.211
0.7,-0.438,1.296,-0.048
0.71,-0.071,0.764,0.125
0.72,-0.271,1.189,-0.011
0.73,-0.256,0.585,-0.186
0.74,-0.286,1.492,0.032
0.75,-0.141,1.023,0.202
0.76,-0.101,0.592,0.068
0.77,-0.44,1.022,-0.161
0.78,-0.129,1.397,0.107
0.79,-0.117,1.123,0.182
0.8,-0.044,0.641,0.043
0.81,-0.476,0.716,-0.195
0.82,-0.189,1.848,0.074
0.83,-0.232,0.481,0.1
0.84,-0.083,1.141,0.039
0.85,-0.41,0.267,-0.191
0.86,-0.11,2.0,0.102
0.87,-0.145,0.575,0.115
0.88,-0.084,0.858,0.035
0.89,-0.458,0.477,-0.201
0.9,-0.055,1.609,0.082
0.91,-0.083,1.156,0.083
0.92,-0.006,0.453,-0.056
0.93,-0.49,0.916,-0.212
0.94,0.018,1.511,0.115
0.95,-0.227,1.101,0.084
0.96,0.027,0.586,-0.091
0.97,-0.506,0.681,-0.197
0.98,0.014,1.762,0.096
0.99,-0.101,0.81,0.076
1.0,-0.093,0.969,-0.122
1.01,-0.29,0.168,-0.194
1.02,-0.118,1.883,0.07
1.03,-0.018,0.819,0.022
1.04,-0.196,0.983,-0.145
1.05,-0.312,0.364,-0.199
1.06,-0.058,1.595,0.171
1.07,-0.047,1.264,0.074
1.08,-0.112,0.473,-0.091
1.09,-0.467,0.89,-0.113
1.1,-0.082,1.247,0.167
1.11,-0.315,1.429,0.032
1.12,0.003,0.466,-0.115
1.13,-0.392,0.747,-0.167
1.14,-0.018,1.28,0.176
1.15,-0.183,0.971,0.028
1.16,-0.273,0.967,-0.156
1.17,-0.321,0.155,-0.083
1.18,-0.179,1.586,0.232
1.19,-0.141,0.905,0.006
1.2,-0.225,0.885,-0.12
1.21,-0.363,0.504,-0.077
1.22,-0.036,1.157,0.192
1.23,-0.252,1.284,-0.041
1.24,-0.151,0.424,-0.107
1.25,-0.352,1.408,-0.013
1.26,-0.04,0.716,0.2
1.27,-0.3,1.244,0.069
1.28,-0.264,0.493,-0.153
1.29,-0.352,1.062,-0.056
1.3,-0.099,0.995,0.115
1.31,-0.2,1.035,-0.007
1.32,-0.271,0.704,-0.159
1.33,-0.143,1.047,-0.069
1.34,-0.147,1.122,0.109
1.35,-0.144,0.67,0.012
1.36,-0.323,0.96,-0.172
1.37,-0.172,1.458,-0.04
1.38,-0.208,0.91,0.174
1.39,-0.113,0.822,0.028
1.4,-0.401,0.566,-0.154
1.41,-0.293,1.827,0.133
1.42,-0.2,0.498,0.129
1.43,-0.289,1.186,0.068
1.44,-0.274,0.246,-0.178
1.45,-0.351,1.943,0.108
1.46,-0.028,0.656,0.102
1.47,-0.176,0.854,-0.05
1.48,-0.284,0.336,-0.208
1.49,-0.326,1.723,0.11
1.5,-0.113,0.604,0.081
1.51,-0.167,0.738,-0.047
1.52,-0.372,0.563,-0.217
1.53,-0.056,1.609,0.097
1.54,-0.159,1.162,0.142
1.55,-0.056,0.317,-0.068
1.56,-0.428,0.947,-0.22
1.57,0.021,1.497,0.094
1.58,-0.151,1.081,0.061
1.59,-0.036,0.648,-0.07
1.6,-0.467,0.551,-0.173
1.61,-0.035,1.856,0.171
1.62,-0.094,0.832,0.119
1.63,-0.192,1.026,-0.04
1.64,-0.366,0.189,-0.136
1.65,-0.196,1.905,0.2
1.66,0.001,0.811,0.111
1.67,-0.162,0.885,-0.089
1.68,-0.337,0.497,-0.177
1.69,-0.061,1.561,0.102
1.7,-0.178,1.324,0.027
1.71,0.051,0.475,-0.091
1.72,-0.492,0.888,-0.133
1.73,-0.076,1.228,0.202
1.74,-0.329,1.371,0.033
1.75,-0.137,0.624,-0.11
1.76,-0.446,0.487,-0.123
1.77,-0.157,1.434,0.186
1.78,-0.25,1.023,0.026
1.79,-0.202,0.948,-0.089
1.8,-0.378,0.153,-0.021
1.81,-0.192,1.503,0.25
1.82,-0.19,0.942,0.019
1.83,-0.205,0.833,-0.138
1.84,-0.289,0.75,-0.083
1.85,-0.122,0.958,0.142
1.86,-0.209,1.318,-0.043
1.87,-0.19,0.322,-0.133
1.88,-0.256,1.48,-0.069
1.89,-0.02,0.688,0.126
1.9,-0.245,1.28,0.039
1.91,-0.253,0.492,-0.2
1.92,-0.231,1.403,0.029
1.93,-0.195,0.849,0.093
1.94,-0.132,0.775,0.015
1.95,-0.389,0.875,-0.179
1.96,-0.144,1.374,0.062
1.97,-0.266,1.055,0.171
1.98,-0.072,0.517,0.061
1.99,-0.499,0.913,-0.108
2.0,-0.117,1.626,0.135
2.01,-0.184,0.785,0.128
2.02,-0.099,0.859,0.022
2.03,-0.403,0.353,-0.194
2.04,-0.124,2.0,0.138
2.05,-0.15,0.558,0.125
2.06,-0.213,0.987,0.001
2.07,-0.454,0.208,-0.171
2.08,-0.049,1.916,0.106
2.09,-0.099,0.904,0.068
2.1,-0.041,0.586,-0.051
2.11,-0.531,0.732,-0.161
2.12,-0.002,1.464,0.216
2.13,-0.23,1.258,0.137
2.14,0.007,0.467,-0.027
2.15,-0.509,0.832,-0.158
2.16,-0.036,1.545,0.152
2.17,-0.145,1.083,0.042
2.18,-0.095,0.58,-0.059
2.19,-0.428,0.6,-0.063
2.2,-0.243,1.358,0.235
2.21,-0.208,0.993,0.011
2.22,-0.335,0.965,-0.099
2.23,-0.297,0.232,-0.031
2.24,-0.213,1.474,0.226
2.25,-0.215,0.847,0.048
2.26,-0.228,0.783,-0.113
2.27,-0.318,0.711,-0.052
2.28,-0.027,1.019,0.141
2.29,-0.247,1.327,-0.106
2.3,-0.106,0.346,-0.185
2.31,-0.256,1.384,-0.071
2.32,0.057,0.674,0.145
2.33,-0.256,1.335,-0.012
2.34,-0.266,0.484,-0.189
2.35,-0.3,1.371,-0.001
2.36,-0.129,0.872,0.126
2.37,-0.14,0.795,0.009
2.38,-0.396,0.88,-0.183
2.39,-0.206,1.371,0.017
2.4,-0.249,1.0,0.171
2.41,-0.013,0.597,0.051
2.42,-0.507,0.87,-0.17
2.43,0.002,1.594,0.13
2.44,-0.221,0.833,0.116
2.45,-0.038,0.838,0.027
2.46,-0.457,0.35,-0.152
2.47,-0.089,2.0,0.178
2.48,-0.17,0.503,0.028
2.49,-0.107,1.013,-0.026
2.5,-0.42,0.22,-0.233
2.51,-0.05,1.903,0.084
2.52,-0.177,0.834,0.112
2.53,-0.01,0.623,-0.052
2.54,-0.525,0.701,-0.173
2.55,0.003,1.469,0.171
2.56,-0.245,1.312,0.09
2.57,0.012,0.516,-0.033
2.58,-0.47,0.838,-0.18
2.59,0.024,1.58,0.21
2.6,-0.144,1.037,0.102
2.61,-0.126,0.911,-0.079
2.62,-0.397,0.313,-0.12
2.63,-0.152,1.823,0.139
2.64,-0.027,0.868,0.075
2.65,-0.198,0.945,-0.092
2.66,-0.33,0.287,-0.085
2.67,-0.224,1.542,0.169
2.68,-0.298,1.031,-0.023
2.69,-0.093,0.765,-0.112
2.7,-0.413,0.677,-0.081
2.71,-0.101,1.036,0.251
2.72,-0.314,1.46,0.025
2.73,-0.146,0.353,-0.142
2.74,-0.446,0.943,-0.026
2.75,-0.048,0.955,0.198
2.76,-0.39,1.301,-0.002
2.77,-0.138,0.58,-0.106
2.78,-0.313,1.083,-0.002
2.79,-0.109,1.191,0.184
2.8,-0.174,0.596,0.042
2.81,-0.407,1.124,-0.156
2.82,-0.263,0.796,0.034
2.83,-0.193,1.069,0.109
2.84,-0.192,0.898,-0.012
2.85,-0.287,0.706,-0.142
2.86,-0.243,1.58,0.021
2.87,-0.058,0.629,0.127
2.88,-0.263,1.213,0.023
2.89,-0.19,0.301,-0.188
2.9,-0.299,1.95,0.138
2.91,0.016,0.712,0.177
2.92,-0.194,0.817,-0.041
2.93,-0.379,0.479,-0.222
2.94,-0.146,1.802,0.078
2.95,-0.202,0.895,0.114
2.96,-0.035,0.504,-0.005
2.97,-0.563,0.884,-0.195
2.98,0.024,1.566,0.156
2.99,-0.255,1.235,0.106
3.0,0.069,0.378,-0.061
3.01,-0.539,0.818,-0.189
3.02,-0.024,1.526,0.148
3.03,-0.184,1.118,0.051
3.04,-0.047,0.854,-0.072
3.05,-0.357,0.331,-0.129
3.06,-0.126,1.89,0.162
3.07,0.013,0.775,0.045
3.08,-0.207,1.122,-0.084
3.09,-0.347,0.215,-0.149
3.1,-0.205,1.704,0.135
3.11,-0.13,1.05,0.004
3.12,-0.118,0.684,-0.072
3.13,-0.467,0.794,-0.091
3.14,-0.043,1.04,0.158
3.15,-0.342,1.416,-0.047
3.16,-0.148,0.423,-0.106
3.17,-0.462,0.938,0.009
3.18,-0.11,0.994,0.201
3.19,-0.336,1.249,0.03
3.2,-0.171,0.602,-0.115
3.21,-0.341,0.672,-0.05
3.22,-0.032,1.233,0.104
3.23,-0.192,0.783,-0.047
3.24,-0.333,0.989,-0.132
3.25,-0.187,1.033,-0.014
3.26,-0.183,1.068,0.191
3.27,-0.111,0.806,0.005
3.28,-0.38,0.74,-0.192
3.29,-0.126,1.658,-0.004
3.3,-0.119,0.623,0.12
3.31,-0.132,1.177,0.01
3.32,-0.291,0.323,-0.233
3.33,-0.29,1.884,0.066
3.34,-0.153,0.565,0.132
3.35,-0.25,1.035,0.024
3.36,-0.354,0.501,-0.168
3.37,-0.165,1.675,0.126
3.38,-0.103,1.01,0.145
3.39,-0.048,0.442,-0.037
3.4,-0.523,0.929,-0.193
3.41,0.039,1.469,0.099
3.42,-0.189,1.208,0.136
3.43,-0.002,0.562,-0.003
3.44,-0.533,0.674,-0.215
3.45,-0.009,1.884,0.173
3.46,-0.141,0.69,0.068
3.47,-0.137,0.955,-0.0
3.48,-0.395,0.221,-0.175
3.49,-0.136,1.953,0.132
3.5,0.086,0.709,0.072
3.51,-0.134,0.956,-0.056
3.52,-0.444,0.354,-0.169
3.53,-0.16,1.535,0.124
3.54,-0.207,1.19,0.13
3.55,0.026,0.619,-0.05
3.56,-0.552,0.856,-0.14
3.57,-0.023,1.341,0.211
3.58,-0.262,1.351,0.056
3.59,0.0,0.569,-0.039
3.6,-0.489,0.694,-0.124
3.61,-0.123,1.406,0.177
3.62,-0.288,1.083,0.054
3.63,-0.114,0.891,-0.088
3.64,-0.398,0.264,-0.061
3.65,-0.132,1.483,0.181
3.66,-0.206,0.748,-0.005
3.67,-0.248,1.037,-0.121
3.68,-0.355,0.407,-0.11
3.69,-0.154,1.228,0.198
3.7,-0.271,1.267,-0.04
3.71,-0.07,0.311,-0.152
3.72,-0.33,1.171,-0.045
3.73,0.016,0.727,0.122
3.74,-0.42,1.375,-0.008
3.75,-0.069,0.361,-0.226
3.76,-0.199,1.469,-0.024
3.77,-0.039,0.887,0.131
3.78,-0.156,0.83,-0.03
3.79,-0.439,0.579,-0.216
3.8,-0.298,1.376,0.08
3.81,-0.285,0.924,0.175
3.82,-0.143,0.7,0.003
3.83,-0.392,0.911,-0.195
3.84,-0.04,1.375,0.087
3.85,-0.182,1.115,0.159
3.86,-0.107,0.501,0.027
3.87,-0.437,0.705,-0.17
3.88,-0.081,1.85,0.056
3.89,-0.121,0.72,0.095
3.9,-0.105,1.018,-0.039
3.91,-0.443,0.213,-0.261
3.92,-0.134,2.0,0.135
3.93,-0.139,0.551,0.085
3.94,-0.142,0.902,0.004
3.95,-0.401,0.409,-0.217
3.96,-0.057,1.659,0.104
3.97,0.011,1.094,0.02
3.98,-0.027,0.551,-0.093
3.99,-0.409,0.812,-0.183
4.0,-0.059,1.473,0.177
4.01,-0.194,1.253,0.135
4.02,-0.09,0.557,-0.02
4.03,-0.402,0.758,-0.173
4.04,-0.068,1.672,0.17
4.05,-0.119,0.873,0.116
4.06,-0.075,0.977,-0.071
4.07,-0.399,0.202,-0.111
4.08,-0.253,1.838,0.172
4.09,-0.176,0.807,0.089
4.1,-0.178,1.047,-0.071
4.11,-0.317,0.295,-0.139
4.12,-0.148,1.485,0.145
4.13,-0.227,1.218,-0.008
4.14,-0.034,0.577,-0.096
4.15,-0.486,0.799,-0.108
4.16,-0.02,1.124,0.183
4.17,-0.35,1.502,0.002
4.18,0.033,0.457,-0.104
4.19,-0.494,0.797,-0.093
4.2,0.01,1.086,0.116
4.21,-0.28,1.107,-0.028
4.22,-0.194,0.836,-0.141
4.23,-0.314,0.457,-0.033
4.24,-0.164,1.349,0.154
4.25,-0.202,0.792,0.038
4.26,-0.349,0.916,-0.131
4.27,-0.306,0.674,0.004
4.28,-0.156,1.077,0.127
4.29,-0.267,1.154,-0.032
4.3,-0.133,0.479,-0.151
4.31,-0.266,1.74,-0.018
4.32,0.067,0.599,0.157
4.33,-0.243,1.212,0.002
4.34,-0.279,0.418,-0.232
4.35,-0.226,1.817,-0.032
4.36,-0.071,0.711,0.112
4.37,-0.101,0.851,-0.006
4.38,-0.408,0.74,-0.243
4.39,-0.131,1.444,0.053
4.4,-0.286,1.006,0.128
4.41,-0.006,0.582,0.054
4.42,-0.479,0.928,-0.214
4.43,0.037,1.454,0.071
4.44,-0.113,1.074,0.129
4.45,-0.085,0.669,-0.014
4.46,-0.483,0.48,-0.194
4.47,-0.079,1.98,0.102
4.48,-0.156,0.586,0.11
4.49,-0.162,1.112,-0.017
4.5,-0.447,0.178,-0.185
4.51,-0.107,2.0,0.186
4.52,-0.21,0.719,0.068
4.53,-0.099,0.678,-0.032
4.54,-0.446,0.615,-0.19
4.55,-0.11,1.501,0.113
4.56,-0.051,1.263,0.033
4.57,-0.004,0.417,-0.066
4.58,-0.45,0.873,-0.128
4.59,-0.088,1.342,0.153
4.6,-0.245,1.275,0.065
4.61,-0.055,0.585,-0.073
4.62,-0.397,0.749,-0.119
4.63,-0.027,1.493,0.139
4.64,-0.205,1.077,0.052
4.65,-0.077,0.907,-0.098
4.66,-0.385,0.3,-0.127
4.67,-0.2,1.668,0.186
4.68,-0.218,0.844,0.021
4.69,-0.249,0.988,-0.108
4.7,-0.322,0.383,-0.055
4.71,-0.116,1.299,0.177
4.72,-0.269,1.074,-0.017
4.73,-0.122,0.644,-0.13
4.74,-0.473,0.817,-0.045
4.75,-0.088,1.01,0.227
4.76,-0.387,1.511,0.059
4.77,-0.107,0.333,-0.068
4.78,-0.482,1.054,0.005
4.79,-0.019,0.89,0.16
4.8,-0.38,1.134,0.025
4.81,-0.206,0.73,-0.113
4.82,-0.215,1.056,-0.001
4.83,-0.109,1.204,0.167
4.84,-0.068,0.627,0.011
4.85,-0.447,1.062,-0.201
4.86,-0.257,0.895,0.01
4.87,-0.224,0.986,0.099
4.88,-0.214,1.057,-0.015
4.89,-0.194,0.481,-0.207
4.9,-0.236,1.873,-0.002
4.91,-0.009,0.539,0.12
4.92,-0.219,1.108,-0.015
4.93,-0.215,0.345,-0.221
4.94,-0.307,1.986,0.073
4.95,-0.073,0.737,0.146
4.96,-0.107,0.793,0.013
4.97,-0.447,0.654,-0.254
4.98,-0.084,1.634,0.084
4.99,-0.35,0.98,0.152
5.0,-0.02,0.462,0.005
5.01,-0.574,0.892,-0.147
5.02,0.045,1.613,0.084
5.03,-0.242,1.003,0.149
5.04,-0.001,0.646,-0.067
5.05,-0.502,0.518,-0.184
5.06,-0.01,1.87,0.105
5.07,-0.12,0.649,0.16
5.08,-0.106,1.102,-0.013
5.09,-0.487,0.216,-0.18
5.1,-0.138,1.962,0.217
5.11,-0.156,0.809,0.153
5.12,-0.161,0.803,-0.064
5.13,-0.5,0.537,-0.166
5.14,-0.025,1.526,0.138
5.15,-0.115,1.249,0.022
5.16,0.028,0.475,-0.077
5.17,-0.587,0.901,-0.133
5.18,-0.043,1.329,0.153
5.19,-0.246,1.275,0.055
5.2,-0.094,0.638,-0.089
5.21,-0.467,0.553,-0.101
5.22,-0.177,1.556,0.177
5.23,-0.154,0.97,0.007
5.24,-0.179,0.983,-0.102
5.25,-0.304,0.202,-0.111
5.26,-0.251,1.58,0.204
5.27,-0.2,0.933,0.007
5.28,-0.287,0.855,-0.121
5.29,-0.398,0.499,-0.064
5.3,-0.157,1.172,0.233
5.31,-0.274,1.347,-0.002
5.32,-0.181,0.379,-0.111
5.33,-0.439,1.065,-0.067
5.34,0.013,0.858,0.2
5.35,-0.373,1.452,0.004
5.36,-0.133,0.361,-0.11
5.37,-0.321,1.076,-0.05
5.38,0.008,1.031,0.11
5.39,-0.261,1.0,0.048
5.4,-0.275,0.716,-0.229
5.41,-0.211,1.466,0.046
5.42,-0.144,1.03,0.141
5.43,-0.047,0.579,0.062
5.44,-0.448,0.941,-0.215
5.45,-0.141,1.46,0.086
5.46,-0.236,0.898,0.087
5.47,-0.069,0.756,-0.002
5.48,-0.35,0.565,-0.228
5.49,-0.172,1.885,0.112
5.5,0.005,0.649,0.103
5.51,-0.228,0.985,0.015
5.52,-0.328,0.163,-0.191
5.53,-0.123,2.0,0.092
5.54,-0.102,0.733,0.099
5.55,-0.063,0.811,-0.021
5.56,-0.513,0.529,-0.218
5.57,0.021,1.676,0.121
5.58,-0.187,1.143,0.074
5.59,0.023,0.414,-0.075
5.6,-0.521,0.874,-0.198
5.61,0.037,1.5,0.182
5.62,-0.173,1.144,0.078
5.63,-0.036,0.606,-0.029
5.64,-0.408,0.575,-0.144
5.65,-0.104,1.757,0.113
5.66,-0.057,0.86,0.061
5.67,-0.17,1.035,-0.044
5.68,-0.372,0.193,-0.118
5.69,-0.194,1.881,0.164
5.7,-0.071,0.812,0.082
5.71,-0.134,0.916,-0.089
5.72,-0.41,0.508,-0.145
5.73,-0.226,1.379,0.179
5.74,-0.25,1.357,0.035
5.75,-0.074,0.35,-0.116
5.76,-0.495,0.927,-0.116
5.77,-0.079,1.059,0.197
5.78,-0.378,1.393,-0.012
5.79,-0.198,0.55,-0.075
5.8,-0.356,0.528,-0.045
5.81,-0.231,1.286,0.248
5.82,-0.211,0.995,0.052
5.83,-0.334,0.904,-0.105
5.84,-0.307,0.27,-0.01
5.85,-0.245,1.431,0.183
5.86,-0.156,0.899,-0.008
5.87,-0.219,0.76,-0.121
5.88,-0.279,1.045,-0.038
5.89,-0.132,0.931,0.199
5.9,-0.294,1.152,0.03
5.91,-0.17,0.486,-0.166
5.92,-0.424,1.315,-0.032
5.93,0.052,0.704,0.073
5.94,-0.27,1.354,0.022
5.95,-0.179,0.438,-0.234
5.96,-0.302,1.284,0.018
5.97,-0.158,0.848,0.089
5.98,-0.181,0.847,0.006
5.99,-0.294,0.791,-0.183
6.0,-0.133,1.412,0.039
6.01,-0.121,1.104,0.152
6.02,-0.075,0.488,0.002
6.03,-0.498,0.869,-0.192
6.04,-0.062,1.645,0.08
6.05,-0.147,0.805,0.069
6.06,-0.105,0.84,0.019
6.07,-0.384,0.365,-0.196
6.08,-0.228,2.0,0.131
6.09,-0.121,0.435,0.099
6.1,-0.188,1.062,0.035
6.11,-0.425,0.309,-0.192
6.12,-0.119,1.852,0.128
6.13,-0.037,0.945,0.101
6.14,-0.062,0.552,-0.068
6.15,-0.408,0.735,-0.191
6.16,0.028,1.503,0.148
6.17,-0.153,1.266,0.073
6.18,0.048,0.563,-0.081
6.19,-0.498,0.896,-0.153
6.2,0.072,1.427,0.219
6.21,-0.225,1.299,0.067
6.22,-0.029,0.588,-0.116
6.23,-0.407,0.605,-0.125
6.24,-0.133,1.562,0.137
6.25,-0.206,0.973,0.031
6.26,-0.102,0.981,-0.141
6.27,-0.267,0.188,-0.131
6.28,-0.211,1.601,0.188
6.29,-0.247,0.814,0.025
6.3,-0.235,0.937,-0.101
6.31,-0.409,0.483,-0.076
6.32,-0.128,1.16,0.265
6.33,-0.319,1.362,-0.029
6.34,-0.108,0.389,-0.114
6.35,-0.393,1.139,-0.032
6.36,0.031,0.761,0.158
6.37,-0.368,1.38,-0.012
6.38,-0.139,0.443,-0.192
6.39,-0.326,1.13,-0.047
6.4,-0.005,1.018,0.136
6.41,-0.168,0.85,-0.017
6.42,-0.357,0.961,-0.185
6.43,-0.265,0.783,-0.025
6.44,-0.158,1.161,0.134
6.45,-0.158,0.827,0.034
6.46,-0.331,0.842,-0.177
6.47,-0.249,1.475,0.027
6.48,-0.081,0.771,0.146
6.49,-0.193,1.041,0.015
6.5,-0.3,0.412,-0.195
6.51,-0.305,1.965,0.106
6.52,-0.086,0.53,0.175
6.53,-0.231,1.097,0.078
6.54,-0.411,0.344,-0.192
6.55,-0.264,1.926,0.115
6.56,-0.159,0.764,0.144
6.57,-0.134,0.656,0.019
6.58,-0.499,0.787,-0.182
6.59,-0.097,1.5,0.12
6.6,-0.193,1.179,0.127
6.61,-0.048,0.417,-0.013
6.62,-0.489,0.819,-0.174
6.63,0.023,1.602,0.095
6.64,-0.092,0.98,0.121
6.65,-0.051,0.81,-0.081
6.66,-0.475,0.343,-0.163
6.67,-0.109,1.92,0.158
6.68,-0.077,0.624,0.095
6.69,-0.156,0.993,-0.063
6.7,-0.359,0.252,-0.204
6.71,-0.147,1.779,0.104
6.72,-0.029,0.936,0.025
6.73,-0.101,0.69,-0.077
6.74,-0.437,0.673,-0.155
6.75,-0.11,1.33,0.173
6.76,-0.322,1.412,0.105
6.77,-0.011,0.513,-0.021
6.78,-0.531,0.838,-0.093
6.79,-0.055,1.363,0.217
6.8,-0.163,1.174,0.03
6.81,-0.183,0.765,-0.137
6.82,-0.398,0.391,-0.095
6.83,-0.283,1.553,0.191
6.84,-0.203,0.879,0.021
6.85,-0.248,0.921,-0.058
6.86,-0.348,0.338,-0.084
6.87,-0.167,1.327,0.152
6.88,-0.187,0.926,-0.043
6.89,-0.224,0.727,-0.136
6.9,-0.361,0.789,-0.025
6.91,-0.188,1.026,0.241
6.92,-0.328,1.424,0.033
6.93,-0.083,0.281,-0.1
6.94,-0.406,1.269,-0.023
6.95,0.004,0.79,0.151
6.96,-0.345,1.217,-0.018
6.97,-0.187,0.573,-0.148
6.98,-0.175,1.254,-0.082
6.99,-0.098,1.101,0.119
7.0,-0.031,0.755,0.033
7.01,-0.45,0.9,-0.21
7.02,-0.164,1.295,0.103
7.03,-0.391,1.061,0.193
7.04,-0.013,0.586,0.055
7.05,-0.395,0.887,-0.182
7.06,-0.091,1.593,0.089
7.07,-0.239,0.78,0.138
7.08,-0.141,0.84,-0.016
7.09,-0.364,0.398,-0.164
7.1,-0.198,2.0,0.088
7.11,-0.056,0.592,0.18
7.12,-0.208,1.004,-0.016
7.13,-0.388,0.215,-0.16
7.14,-0.148,2.0,0.108
7.15,-0.155,0.763,0.051
7.16,-0.136,0.642,-0.056
7.17,-0.468,0.702,-0.23
7.18,-0.01,1.513,0.137
7.19,-0.184,1.297,0.13
7.2,-0.051,0.319,-0.057
7.21,-0.46,0.835,-0.173
7.22,-0.064,1.485,0.121
7.23,-0.056,1.117,0.084
7.24,-0.033,0.879,-0.081
7.25,-0.477,0.381,-0.17
7.26,-0.096,1.866,0.227
7.27,-0.073,0.715,0.124
7.28,-0.15,1.118,-0.068
7.29,-0.415,0.252,-0.144
7.3,-0.186,1.7,0.151
7.31,-0.153,1.057,0.016
7.32,-0.014,0.755,-0.089
7.33,-0.368,0.669,-0.187
7.34,-0.065,1.157,0.144
7.35,-0.37,1.42,-0.028
7.36,-0.047,0.481,-0.086
7.37,-0.548,0.864,-0.068
7.38,-0.093,1.027,0.293
7.39,-0.385,1.337,0.091
7.4,-0.224,0.612,-0.079
7.41,-0.406,0.508,0.024
7.42,-0.149,1.322,0.16
7.43,-0.255,0.9,-0.041
7.44,-0.159,0.837,-0.152
7.45,-0.18,0.838,-0.038
7.46,-0.102,1.135,0.119
7.47,-0.168,0.825,-0.023
7.48,-0.335,0.761,-0.225
7.49,-0.191,1.29,-0.03
7.5,-0.166,0.664,0.093
7.51,-0.307,1.288,0.038
7.52,-0.239,0.254,-0.179
7.53,-0.369,1.785,0.13
7.54,-0.151,0.561,0.169
7.55,-0.267,1.116,0.055
7.56,-0.332,0.552,-0.224
7.57,-0.171,1.612,0.112
7.58,-0.094,1.017,0.144
7.59,-0.006,0.508,-0.02
7.6,-0.506,0.936,-0.231
7.61,0.06,1.533,0.063
7.62,-0.24,1.166,0.103
7.63,-0.009,0.538,-0.016
7.64,-0.533,0.665,-0.184
7.65,0.031,1.872,0.109
7.66,-0.179,0.721,0.084
7.67,-0.106,0.918,-0.046
7.68,-0.408,0.194,-0.179
7.69,-0.11,1.964,0.158
7.7,-0.055,0.679,0.081
7.71,-0.185,0.921,-0.092
7.72,-0.368,0.381,-0.18
7.73,-0.103,1.654,0.153
7.74,-0.139,1.171,0.083
7.75,-0.041,0.566,-0.061
7.76,-0.493,0.845,-0.111
7.77,-0.036,1.361,0.169
7.78,-0.227,1.407,0.029
7.79,-0.007,0.584,-0.086
7.8,-0.451,0.836,-0.09
7.81,-0.058,1.055,0.195
7.82,-0.362,1.331,0.018
7.83,-0.143,0.64,-0.121
7.84,-0.385,0.53,-0.002
7.85,-0.134,1.293,0.164
7.86,-0.179,0.867,-0.032
7.87,-0.335,0.996,-0.174
7.88,-0.187,0.425,-0.01
7.89,-0.127,1.201,0.092
7.9,-0.118,1.012,-0.085
7.91,-0.271,0.684,-0.181
7.92,-0.24,1.404,-0.0
7.93,-0.118,0.628,0.158
7.94,-0.272,1.262,-0.003
7.95,-0.255,0.343,-0.246
7.96,-0.262,1.897,0.01
7.97,-0.087,0.559,0.094
7.98,-0.165,1.006,0.01
7.99,-0.302,0.612,-0.26
8.0,-0.2,1.639,0.031
8.01,-0.153,0.916,0.137
8.02,-0.021,0.592,0.0
8.03,-0.538,0.851,-0.225
8.04,0.064,1.515,0.077
8.05,-0.192,1.109,0.061
8.06,0.021,0.527,-0.024
8.07,-0.44,0.589,-0.203
8.08,0.039,1.879,0.087
8.09,-0.19,0.789,0.077
8.1,-0.065,0.906,-0.054
8.11,-0.412,0.185,-0.174
8.12,-0.123,2.0,0.207
8.13,-0.093,0.651,0.086
8.14,-0.171,0.907,-0.084
8.15,-0.375,0.387,-0.164
8.16,-0.024,1.664,0.167
8.17,-0.121,1.237,0.037
8.18,-0.004,0.571,-0.065
8.19,-0.415,0.832,-0.112
8.2,0.014,1.371,0.128
8.21,-0.235,1.403,0.003
8.22,-0.026,0.617,-0.096
8.23,-0.545,0.621,-0.077
8.24,-0.123,1.394,0.207
8.25,-0.267,1.09,0.044
8.26,-0.215,0.913,-0.055
8.27,-0.369,0.229,-0.008
8.28,-0.216,1.441,0.236
8.29,-0.193,0.881,-0.023
8.3,-0.318,0.903,-0.15
8.31,-0.167,0.667,-0.106
8.32,-0.054,1.049,0.109
8.33,-0.211,1.158,-0.073
8.34,-0.215,0.542,-0.228
8.35,-0.338,1.302,-0.081
8.36,-0.041,0.641,0.095
8.37,-0.283,1.413,-0.007
8.38,-0.166,0.312,-0.228
8.39,-0.265,1.738,-0.043
8.4,-0.079,0.736,0.091
8.41,-0.137,0.801,0.047
8.42,-0.386,0.832,-0.179
8.43,-0.178,1.473,0.088
8.44,-0.26,1.023,0.173
8.45,-0.019,0.552,0.064
8.46,-0.562,0.902,-0.197
8.47,-0.091,1.621,0.047
8.48,-0.283,0.768,0.102
8.49,-0.06,0.869,-0.002
8.5,-0.45,0.445,-0.151
8.51,-0.085,1.952,0.091
8.52,0.008,0.674,0.151
8.53,-0.156,0.96,-0.062
8.54,-0.373,0.13,-0.169
8.55,-0.12,1.883,0.112
8.56,-0.029,0.882,0.098
8.57,-0.131,0.763,-0.067
8.58,-0.451,0.685,-0.174
8.59,-0.015,1.522,0.266
8.6,-0.139,1.221,-0.004
8.61,0.008,0.523,-0.101
8.62,-0.478,0.864,-0.133
8.63,-0.08,1.137,0.197
8.64,-0.41,1.443,-0.013
8.65,-0.022,0.501,-0.093
8.66,-0.496,0.672,-0.056
8.67,-0.062,1.225,0.196
8.68,-0.358,1.044,0.025
8.69,-0.256,0.944,-0.118
8.7,-0.373,0.308,0.023
8.71,-0.2,1.412,0.221
8.72,-0.21,0.913,-0.015
8.73,-0.265,0.823,-0.112
8.74,-0.155,1.142,-0.068
8.75,-0.087,0.925,0.161
8.76,-0.257,1.025,0.018
8.77,-0.224,0.573,-0.211
8.78,-0.266,1.808,-0.059
8.79,-0.006,0.569,0.14
8.8,-0.296,1.163,0.027
8.81,-0.364,0.42,-0.198
8.82,-0.264,1.769,0.094
8.83,-0.229,0.706,0.155
8.84,-0.126,0.814,0.007
8.85,-0.425,0.809,-0.189
8.86,-0.064,1.509,0.135
8.87,-0.229,1.113,0.165
8.88,0.012,0.434,0.008
8.89,-0.526,0.882,-0.173
8.9,0.042,1.612,0.024
8.91,-0.17,0.939,0.102
8.92,-0.007,0.805,-0.065
8.93,-0.404,0.402,-0.229
8.94,-0.062,2.0,0.127
8.95,-0.133,0.622,0.11
8.96,-0.196,1.037,0.001
8.97,-0.399,0.181,-0.149
8.98,-0.148,1.887,0.191
8.99,-0.009,0.901,0.059
9.0,-0.099,0.724,-0.06
9.01,-0.42,0.646,-0.147
9.02,-0.012,1.491,0.181
9.03,-0.211,1.269,0.07
9.04,-0.016,0.526,-0.075
9.05,-0.523,0.881,-0.14
9.06,-0.076,1.418,0.188
9.07,-0.191,1.22,0.035
9.08,-0.036,0.747,-0.144
9.09,-0.458,0.434,-0.086
9.1,-0.172,1.562,0.18
9.11,-0.205,0.886,-0.016
9.12,-0.228,1.039,-0.079
9.13,-0.396,0.22,-0.062
9.14,-0.162,1.408,0.243
9.15,-0.252,1.028,0.005
9.16,-0.268,0.699,-0.127
9.17,-0.354,0.738,-0.061
9.18,-0.148,0.965,0.228
9.19,-0.378,1.517,0.013
9.2,-0.116,0.219,-0.077
9.21,-0.36,1.293,-0.019
9.22,-0.001,0.738,0.177
9.23,-0.282,1.215,-0.021
9.24,-0.263,0.669,-0.167
9.25,-0.195,1.32,-0.014
9.26,-0.213,1.038,0.125
9.27,-0.037,0.674,0.025
9.28,-0.47,0.958,-0.188
9.29,-0.14,1.305,0.09
9.3,-0.33,0.975,0.152
9.31,-0.142,0.731,0.024
9.32,-0.403,0.705,-0.162
9.33,-0.177,1.77,0.125
9.34,-0.067,0.642,0.081
9.35,-0.136,1.01,0.031
9.36,-0.379,0.319,-0.186
9.37,-0.199,2.0,0.164
9.38,-0.063,0.578,0.113
9.39,-0.178,0.945,-0.041
9.4,-0.345,0.229,-0.161
9.41,-0.214,1.889,0.205
9.42,-0.062,0.847,0.133
9.43,-0.081,0.736,-0.081
9.44,-0.468,0.673,-0.179
9.45,-0.037,1.471,0.185
9.46,-0.236,1.339,0.08
9.47,-0.009,0.507,0.005
9.48,-0.517,0.853,-0.152
9.49,-0.055,1.464,0.19
9.5,-0.26,1.213,0.007
9.51,-0.036,0.8,-0.093
9.52,-0.358,0.435,-0.131
9.53,-0.225,1.631,0.153
9.54,-0.157,0.866,-0.009
9.55,-0.197,1.037,-0.137
9.56,-0.34,0.198,-0.08
9.57,-0.213,1.489,0.214
9.58,-0.231,1.016,-0.039
9.59,-0.16,0.679,-0.14
9.6,-0.292,0.834,-0.124
9.61,-0.067,0.906,0.13
9.62,-0.264,1.36,-0.052
9.63,-0.149,0.315,-0.14
9.64,-0.377,1.362,-0.03
9.65,-0.023,0.701,0.137
9.66,-0.336,1.237,-0.029
9.67,-0.276,0.534,-0.163
9.68,-0.335,0.959,-0.014
9.69,-0.19,1.034,0.09
9.7,-0.14,0.791,0.043
9.71,-0.367,1.001,-0.181
9.72,-0.156,1.229,0.056
9.73,-0.286,0.981,0.177
9.74,-0.003,0.714,-0.027
9.75,-0.424,0.708,-0.121
9.76,-0.146,1.756,0.164
9.77,-0.128,0.718,0.15
9.78,-0.145,0.961,-0.018
9.79,-0.355,0.201,-0.184
9.8,-0.14,2.0,0.124
9.81,-0.139,0.494,0.07
9.82,-0.15,0.941,-0.07
9.83,-0.106,0.406,-0.113
9.84,-0.451,0.849,-0.122
9.85,-0.143,1.183,0.198
9.86,-0.283,1.25,-0.002
9.87,-0.11,0.73,-0.138
9.88,-0.432,0.427,-0.069
9.89,-0.171,1.395,0.205
9.9,-0.24,0.952,0.011
9.91,-0.223,0.968,-0.113
9.92,-0.327,0.339,-0.043
9.93,-0.083,1.234,0.115
9.94,-0.2,1.063,-0.048
9.95,-0.228,0.673,-0.159
9.96,-0.247,1.177,-0.039
9.97,-0.016,0.785,0.161
9.98,-0.286,1.228,0.014
9.99,-0.161,0.442,-0.191
10.0,-0.339,1.909,0.014
10.01,-0.068,0.565,0.164
10.02,-0.256,1.002,-0.001
10.03,-0.378,0.491,-0.167
10.04,-0.217,1.747,0.057
10.05,-0.258,0.881,0.152
10.06,-0.03,0.607,0.037
10.07,-0.562,0.96,-0.165
10.08,0.001,1.496,0.083
10.09,-0.291,1.009,0.096
10.1,-0.037,0.548,0.012
10.11,-0.463,0.718,-0.16
10.12,-0.031,1.79,0.046
10.13,-0.085,0.758,0.127
10.14,-0.042,0.766,-0.068
10.15,-0.476,0.346,-0.131
10.16,-0.064,1.919,0.174
10.17,-0.015,0.721,0.108
10.18,-0.153,1.099,-0.094
10.19,-0.367,0.21,-0.173
10.2,-0.105,1.796,0.114
10.21,-0.107,1.01,-0.011
10.22,-0.037,0.774,-0.088
10.23,-0.366,0.627,-0.163
10.24,-0.11,1.304,0.14
10.25,-0.28,1.4,0.007
10.26,-0.1,0.47,-0.095
10.27,-0.445,0.793,-0.065
10.28,-0.22,1.084,0.261
10.29,-0.313,1.38,0.048
10.3,-0.231,0.628,-0.092
10.31,-0.367,0.423,0.004
10.32,-0.192,1.398,0.233
10.33,-0.18,0.907,-0.046
10.34,-0.309,0.944,-0.115
10.35,-0.219,0.464,-0.02
10.36,-0.168,1.222,0.104
10.37,-0.116,0.99,-0.061
10.38,-0.297,0.662,-0.138
10.39,-0.189,1.378,-0.015
10.4,-0.115,0.67,0.151
10.41,-0.249,1.259,-0.012
10.42,-0.273,0.391,-0.193
10.43,-0.312,1.715,0.057
10.44,-0.129,0.565,0.142
10.45,-0.208,1.154,0.0
10.46,-0.385,0.478,-0.197
10.47,-0.181,1.624,0.097
10.48,-0.267,0.917,0.163
10.49,-0.045,0.522,0.035
10.5,-0.521,0.905,-0.199
10.51,0.067,1.483,0.069
10.52,-0.24,1.158,0.095
10.53,0.032,0.494,-0.041
10.54,-0.504,0.687,-0.207
10.55,0.027,1.871,0.105
10.56,-0.171,0.677,0.085
10.57,-0.121,1.026,-0.082
10.58,-0.345,0.191,-0.188
10.59,-0.108,2.0,0.156
10.6,-0.105,0.696,0.127
10.61,-0.146,0.873,-0.093
10.62,-0.489,0.296,-0.17
10.63,-0.067,1.671,0.16
10.64,-0.267,1.2,0.033
10.65,-0.006,0.609,-0.07
10.66,-0.485,0.82,-0.129
10.67,-0.003,1.333,0.198
10.68,-0.162,1.429,-0.024
10.69,-0.064,0.521,-0.114
10.7,-0.455,0.699,-0.15
10.71,-0.16,1.343,0.152
10.72,-0.331,1.086,0.023
10.73,-0.071,0.904,-0.109
10.74,-0.399,0.359,-0.054
10.75,-0.138,1.341,0.144
10.76,-0.172,0.814,0.003
10.77,-0.36,0.976,-0.164
10.78,-0.204,0.609,-0.064
10.79,-0.148,1.093,0.155
10.8,-0.198,1.176,-0.051
10.81,-0.188,0.479,-0.166
10.82,-0.332,1.332,-0.016
10.83,-0.073,0.638,0.093
10.84,-0.313,1.377,-0.056
10.85,-0.144,0.279,-0.187
10.86,-0.225,1.843,-0.036
10.87,0.024,0.764,0.143
10.88,-0.184,0.696,-0.02
10.89,-0.448,0.856,-0.208
10.9,-0.175,1.44,0.08
10.91,-0.308,0.964,0.126
10.92,-0.06,0.664,0.06
10.93,-0.522,0.948,-0.194
10.94,0.043,1.458,0.178
10.95,-0.235,1.188,0.069
10.96,-0.031,0.41,-0.009
10.97,-0.482,0.659,-0.161
10.98,-0.061,1.714,0.046
10.99,-0.016,0.859,0.079
11.0,-0.072,1.067,-0.108
11.01,-0.317,0.174,-0.196
11.02,-0.169,1.953,0.203
11.03,-0.001,0.717,0.135
11.04,-0.152,1.008,-0.08
11.05,-0.379,0.445,-0.159
11.06,-0.147,1.586,0.161
11.07,-0.194,1.227,0.036
11.08,-0.104,0.457,-0.058
11.09,-0.456,0.931,-0.092
11.1,-0.096,1.005,0.164
11.11,-0.343,1.41,-0.001
11.12,-0.23,0.491,-0.095
11.13,-0.406,0.654,-0.043
11.14,-0.087,1.241,0.213
11.15,-0.203,1.047,0.038
11.16,-0.296,0.916,-0.136
11.17,-0.263,0.342,-0.051
11.18,-0.196,1.395,0.169
11.19,-0.225,0.965,-0.05
11.2,-0.219,0.72,-0.098
11.21,-0.136,1.259,-0.072
11.22,-0.067,0.962,0.159
11.23,-0.111,0.937,0.001
11.24,-0.37,0.585,-0.213
11.25,-0.276,1.556,0.055
11.26,-0.15,0.61,0.111
11.27,-0.247,1.299,0.013
11.28,-0.322,0.26,-0.187
11.29,-0.265,1.868,0.093
11.3,-0.049,0.706,0.164
11.31,-0.158,0.729,-0.029
11.32,-0.4,0.814,-0.185
11.33,-0.044,1.517,0.06
11.34,-0.168,1.207,0.16
11.35,-0.004,0.396,-0.042
11.36,-0.513,0.903,-0.235
11.37,0.053,1.673,0.086
11.38,-0.233,0.948,0.064
11.39,0.052,0.797,-0.04
11.4,-0.477,0.419,-0.155
11.41,-0.079,1.938,0.236
11.42,-0.137,0.725,0.134
11.43,-0.094,1.046,-0.082
11.44,-0.361,0.156,-0.157
11.45,-0.071,1.916,0.12
11.46,-0.07,0.87,0.069
11.47,-0.046,0.799,-0.083
11.48,-0.42,0.612,-0.172
11.49,0.073,1.481,0.159
11.5,-0.291,1.333,0.058
11.51,0.027,0.505,-0.056
11.52,-0.52,0.897,-0.129
11.53,-0.087,1.31,0.214
11.54,-0.277,1.401,0.011
11.55,-0.159,0.635,-0.112
11.56,-0.402,0.467,0.003
11.57,-0.183,1.394,0.18
11.58,-0.213,0.865,0.033
11.59,-0.335,1.024,-0.124
11.6,-0.256,0.381,-0.031
11.61,-0.199,1.318,0.167
11.62,-0.159,0.956,-0.02
11.63,-0.308,0.699,-0.135
11.64,-0.247,0.982,-0.04
11.65,-0.05,0.799,0.103
11.66,-0.291,1.417,-0.061
11.67,-0.141,0.327,-0.173
11.68,-0.283,1.817,-0.006
11.69,-0.026,0.571,0.172
11.7,-0.286,1.071,0.028
11.71,-0.346,0.617,-0.157
11.72,-0.219,1.66,0.059
11.73,-0.123,0.957,0.155
11.74,-0.146,0.679,-0.013
11.75,-0.491,0.664,-0.197
11.76,-0.016,1.581,0.08
11.77,-0.222,1.149,0.077
11.78,0.008,0.429,-0.038
11.79,-0.504,0.858,-0.192
11.8,0.001,1.535,0.161
11.81,-0.161,1.062,0.097
11.82,-0.069,0.703,-0.05
11.83,-0.439,0.397,-0.147
11.84,-0.077,1.822,0.095
11.85,-0.053,0.768,0.076
11.86,-0.15,1.065,-0.078
11.87,-0.425,0.188,-0.113
11.88,-0.129,1.839,0.188
11.89,-0.196,0.881,0.006
11.9,-0.026,0.861,-0.109
11.91,-0.368,0.623,-0.142
11.92,-0.104,1.285,0.172
11.93,-0.341,1.505,-0.012
11.94,-0.043,0.388,-0.091
11.95,-0.527,0.804,-0.071
11.96,-0.043,1.088,0.237
11.97,-0.395,1.356,0.049
11.98,-0.229,0.647,-0.124
11.99,-0.365,0.5,-0.033
12.0,-0.171,1.338,0.21
12.01,-0.223,0.988,-0.03
12.02,-0.371,0.886,-0.107
12.03,-0.162,0.604,0.002
12.04,-0.215,1.129,0.168
12.05,-0.202,0.927,-0.001
12.06,-0.285,0.788,-0.141
12.07,-0.186,1.609,0.01
12.08,-0.078,0.647,0.155
12.09,-0.186,1.163,-0.018
12.1,-0.362,0.346,-0.229
12.11,-0.233,1.989,0.114
12.12,-0.15,0.553,0.191
12.13,-0.197,0.938,0.037
12.14,-0.381,0.229,-0.209
12.15,-0.126,1.983,0.129
12.16,-0.058,0.902,0.075
12.17,-0.14,0.654,-0.06
12.18,-0.427,0.62,-0.225
12.19,-0.007,1.558,0.143
12.2,-0.131,1.219,0.089
12.21,-0.007,0.491,-0.074
12.22,-0.535,0.808,-0.154
12.23,0.032,1.49,0.186
12.24,-0.2,1.152,0.053
12.25,0.012,0.817,-0.049
12.26,-0.458,0.42,-0.148
12.27,-0.127,1.79,0.136
12.28,-0.098,0.84,-0.033
12.29,-0.109,1.108,-0.106
12.3,-0.299,0.173,-0.116
12.31,-0.224,1.569,0.182
12.32,-0.247,1.0,-0.024
12.33,-0.182,0.791,-0.141
12.34,-0.415,0.681,-0.059
12.35,-0.027,1.035,0.209
12.36,-0.401,1.392,-0.017
12.37,-0.059,0.358,-0.138
12.38,-0.411,1.132,-0.039
12.39,0.016,0.815,0.175
12.4,-0.309,1.321,-0.017
12.41,-0.241,0.528,-0.211
12.42,-0.11,1.317,-0.057
12.43,-0.082,1.084,0.119
12.44,-0.087,0.584,-0.021
12.45,-0.418,1.146,-0.193
12.46,-0.162,1.246,0.038
12.47,-0.224,1.017,0.158
12.48,-0.13,0.759,0.016
12.49,-0.448,0.74,-0.163
12.5,-0.206,1.712,0.112
12.51,-0.263,0.566,0.132
12.52,-0.165,1.086,0.015
12.53,-0.324,0.292,-0.194
12.54,-0.046,1.867,0.087
12.55,0.042,0.688,0.121
12.56,-0.129,1.02,-0.084
12.57,-0.394,0.142,-0.191
12.58,-0.108,1.879,0.13
12.59,-0.119,0.866,0.15
12.6,-0.128,0.794,-0.075
12.61,-0.456,0.669,-0.191
12.62,-0.032,1.533,0.264
12.63,-0.179,1.309,0.118
12.64,0.03,0.46,-0.072
12.65,-0.442,0.848,-0.186
12.66,-0.049,1.307,0.149
12.67,-0.254,1.277,0.039
12.68,-0.103,0.765,-0.147
12.69,-0.367,0.351,-0.111
12.7,-0.171,1.609,0.174
12.71,-0.105,0.9,0.004
12.72,-0.275,1.047,-0.12
12.73,-0.362,0.19,-0.021
12.74,-0.258,1.497,0.268
12.75,-0.269,1.064,0.006
12.76,-0.093,0.687,-0.096
12.77,-0.375,0.918,-0.047
12.78,-0.003,0.843,0.138
12.79,-0.287,1.316,-0.034
12.8,-0.131,0.377,-0.191
12.81,-0.417,1.221,-0.068
12.82,-0.042,0.776,0.085
12.83,-0.271,1.303,-0.004
12.84,-0.234,0.497,-0.196
12.85,-0.276,1.272,0.068
12.86,-0.197,0.931,0.165
12.87,-0.134,0.689,-0.003
12.88,-0.4,0.982,-0.161
12.89,-0.101,1.397,0.052
12.9,-0.212,1.044,0.159
12.91,-0.027,0.617,0.028
12.92,-0.47,0.769,-0.179
12.93,-0.093,1.78,0.08
12.94,-0.24,0.537,0.086
12.95,-0.1,1.054,-0.025
12.96,-0.373,0.272,-0.2
12.97,-0.088,2.0,0.078
12.98,-0.012,0.659,0.081
12.99,-0.188,0.845,-0.075
13.0,-0.376,0.269,-0.194
13.01,-0.047,1.754,0.108
13.02,-0.108,1.051,0.094
13.03,-0.022,0.605,-0.082
13.04,-0.572,0.806,-0.175
13.05,0.045,1.508,0.262
13.06,-0.314,1.28,0.117
13.07,-0.018,0.524,-0.034
13.08,-0.466,0.726,-0.151
13.09,-0.098,1.566,0.143
13.1,-0.146,1.087,-0.017
13.11,-0.096,0.909,-0.14
13.12,-0.271,0.188,-0.114
13.13,-0.243,1.654,0.196
13.14,-0.185,0.843,-0.016
13.15,-0.29,0.99,-0.123
13.16,-0.372,0.318,-0.046
13.17,-0.227,1.318,0.233
13.18,-0.311,1.202,0.013
13.19,-0.144,0.458,-0.122
13.2,-0.404,1.074,-0.046
13.21,0.023,0.748,0.19
13.22,-0.377,1.422,-0.029
13.23,-0.113,0.337,-0.129
13.24,-0.18,1.593,-0.094
13.25,-0.04,0.803,0.108
13.26,-0.124,0.875,-0.022
13.27,-0.452,0.842,-0.225
13.28,-0.144,1.296,0.038
13.29,-0.291,1.045,0.124
13.3,-0.006,0.67,0.048
13.31,-0.563,0.886,-0.202
13.32,-0.095,1.432,0.129
13.33,-0.178,0.961,0.145
13.34,-0.001,0.469,-0.003
13.35,-0.381,0.69,-0.192
13.36,-0.068,1.779,0.104
13.37,-0.079,0.76,0.135
13.38,-0.106,1.004,-0.053
13.39,-0.392,0.218,-0.129
13.4,-0.129,1.978,0.202
13.41,-0.087,0.675,0.127
13.42,-0.19,0.946,-0.076
13.43,-0.385,0.328,-0.158
13.44,-0.125,1.701,0.117
13.45,-0.071,1.158,0.035
13.46,-0.08,0.597,-0.07
13.47,-0.453,0.802,-0.08
13.48,-0.062,1.327,0.157
13.49,-0.3,1.364,-0.021
13.5,0.012,0.572,-0.049
13.51,-0.545,0.723,-0.086
13.52,-0.184,1.279,0.251
13.53,-0.294,1.149,-0.005
13.54,-0.111,0.861,-0.111
13.55,-0.334,0.36,-0.075
13.56,-0.183,1.386,0.122
13.57,-0.249,0.82,-0.027
13.58,-0.227,0.951,-0.099
13.59,-0.308,0.666,-0.04
13.6,-0.052,1.038,0.146
13.61,-0.176,1.071,-0.037
13.62,-0.278,0.609,-0.201
13.63,-0.274,1.243,-0.019
13.64,-0.059,0.661,0.105
13.65,-0.337,1.376,-0.014
13.66,-0.188,0.319,-0.196
13.67,-0.274,1.762,-0.028
13.68,-0.051,0.694,0.115
13.69,-0.145,0.837,-0.025
13.7,-0.41,0.79,-0.192
13.71,-0.128,1.544,0.078
13.72,-0.236,1.019,0.133
13.73,0.055,0.512,0.018
13.74,-0.635,0.906,-0.182
13.75,0.041,1.624,0.107
13.76,-0.361,0.909,0.077
13.77,-0.033,0.723,0.01
13.78,-0.53,0.445,-0.171
13.79,0.003,1.953,0.125
13.8,-0.094,0.678,0.168
13.81,-0.123,0.965,-0.068
13.82,-0.402,0.148,-0.115
13.83,-0.152,1.88,0.116
13.84,0.033,0.856,0.068
13.85,-0.118,0.841,-0.1
13.86,-0.403,0.636,-0.161
13.87,-0.078,1.482,0.148
13.88,-0.156,1.272,0.054
13.89,-0.008,0.535,-0.098
13.9,-0.548,0.879,-0.098
13.91,-0.091,1.183,0.201
13.92,-0.323,1.464,0.024
13.93,-0.086,0.576,-0.116
13.94,-0.336,0.51,-0.1
13.95,-0.111,1.401,0.125
13.96,-0.235,0.927,-0.035
13.97,-0.238,0.98,-0.132
13.98,-0.387,0.308,0.007
13.99,-0.182,1.352,0.192
14.0,-0.248,0.941,-0.008
14.01,-0.217,0.78,-0.128
14.02,-0.256,1.238,-0.009
14.03,-0.052,0.744,0.085
14.04,-0.236,1.229,-0.049
14.05,-0.181,0.383,-0.228
14.06,-0.217,1.958,0.027
14.07,-0.088,0.531,0.16
14.08,-0.25,1.074,0.01
14.09,-0.406,0.433,-0.212
14.1,-0.132,1.866,0.09
14.11,-0.26,0.805,0.101
14.12,-0.032,0.554,-0.031
14.13,-0.55,0.873,-0.177
14.14,0.053,1.451,0.084
14.15,-0.128,1.269,0.137
14.16,-0.026,0.431,-0.093
14.17,-0.387,0.813,-0.135
14.18,-0.021,1.436,0.145
14.19,-0.164,1.3,0.044
14.2,-0.042,0.769,-0.069
14.21,-0.401,0.438,-0.076
14.22,-0.112,1.746,0.175
14.23,-0.048,0.86,0.002
14.24,-0.173,1.078,-0.107
14.25,-0.381,0.13,-0.035
14.26,-0.269,1.612,0.223
14.27,-0.293,1.032,-0.017
14.28,-0.109,0.74,-0.106
14.29,-0.28,0.809,-0.085
14.3,-0.029,0.85,0.11
14.31,-0.248,1.306,-0.033
14.32,-0.25,0.432,-0.168
14.33,-0.262,1.183,-0.027
14.34,-0.085,0.758,0.095
14.35,-0.23,1.313,-0.025
14.36,-0.19,0.453,-0.208
14.37,-0.183,1.589,0.047
14.38,-0.14,0.899,0.2
14.39,-0.133,0.603,0.005
14.4,-0.413,0.928,-0.159
14.41,-0.109,1.451,0.129
14.42,-0.198,1.149,0.164
14.43,-0.115,0.492,0.015
14.44,-0.44,0.752,-0.162
14.45,-0.036,1.856,0.098
14.46,-0.212,0.667,0.043
14.47,-0.079,0.915,-0.048
14.48,-0.403,0.264,-0.149
14.49,-0.091,1.96,0.182
14.5,0.02,0.629,0.122
14.51,-0.15,1.017,-0.069
14.52,-0.417,0.246,-0.118
14.53,-0.146,1.653,0.152
14.54,-0.158,1.134,0.063
14.55,-0.027,0.676,-0.094
14.56,-0.478,0.787,-0.127
14.57,-0.027,1.287,0.14
14.58,-0.274,1.456,0.008
14.59,-0.102,0.507,-0.061
14.6,-0.44,0.727,-0.026
14.61,-0.24,1.229,0.268
14.62,-0.32,1.207,0.039
14.63,-0.197,0.758,-0.106
14.64,-0.169,0.69,-0.029
14.65,-0.108,1.287,0.084
14.66,-0.131,0.611,-0.03
14.67,-0.412,1.126,-0.179
14.68,-0.276,0.76,-0.007
14.69,-0.207,0.95,0.175
14.7,-0.269,1.09,0.029
14.71,-0.292,0.536,-0.128
14.72,-0.344,1.758,0.107
14.73,-0.083,0.521,0.17
14.74,-0.291,1.206,0.021
14.75,-0.278,0.337,-0.15
14.76,-0.221,1.836,0.132
14.77,0.007,0.838,0.191
14.78,-0.097,0.732,-0.05
14.79,-0.478,0.606,-0.235
14.8,0.044,1.686,0.124
14.81,-0.286,1.096,0.083
14.82,-0.005,0.453,-0.034
14.83,-0.602,0.864,-0.187
14.84,0.064,1.525,0.165
14.85,-0.235,1.169,0.112
14.86,-0.018,0.622,-0.081
14.87,-0.415,0.458,-0.162
14.88,-0.178,1.813,0.097
14.89,0.004,0.728,0.066
14.9,-0.211,1.13,-0.1
14.91,-0.254,0.137,-0.138
14.92,-0.197,1.762,0.117
14.93,0.016,0.949,-0.018
14.94,-0.171,0.854,-0.12
14.95,-0.318,0.333,-0.067
14.96,-0.209,1.326,0.235
14.97,-0.314,1.263,-0.066
14.98,-0.078,0.445,-0.1
14.99,-0.401,1.206,-0.021
15.0,0.011,0.707,0.152
15.01,-0.27,1.351,-0.003
15.02,-0.213,0.461,-0.219
15.03,-0.29,1.242,-0.022
15.04,-0.135,0.822,0.098
15.05,-0.238,0.999,0.016
15.06,-0.282,0.709,-0.169
15.07,-0.168,1.422,0.011
15.08,-0.234,1.028,0.163
15.09,-0.055,0.529,-0.006
15.1,-0.487,0.948,-0.158
15.11,-0.032,1.528,0.109
15.12,-0.216,0.939,0.102
15.13,-0.042,0.732,-0.041
15.14,-0.504,0.507,-0.201
15.15,-0.086,1.955,0.101
15.16,-0.145,0.65,0.151
15.17,-0.176,0.992,-0.001
15.18,-0.461,0.17,-0.119
15.19,-0.14,1.936,0.211
15.2,-0.084,0.757,0.127
15.21,-0.03,0.852,-0.082
15.22,-0.522,0.555,-0.128
15.23,-0.025,1.524,0.221
15.24,-0.208,1.266,0.102
15.25,0.019,0.484,-0.081
15.26,-0.47,0.904,-0.154
15.27,-0.086,1.262,0.182
15.28,-0.339,1.39,0.01
15.29,-0.144,0.563,-0.076
15.3,-0.408,0.476,-0.096
15.31,-0.215,1.491,0.227
15.32,-0.229,0.872,0.035
15.33,-0.266,1.011,-0.092
15.34,-0.282,0.289,-0.014
15.35,-0.168,1.355,0.188
15.36,-0.171,0.963,-0.004
15.37,-0.237,0.724,-0.126
15.38,-0.285,0.892,-0.158
15.39,0.056,0.802,0.039
15.4,-0.305,1.354,-0.056
15.41,-0.082,0.354,-0.241
15.42,-0.376,1.73,0.03
15.43,-0.128,0.578,0.21
15.44,-0.246,1.173,0.042
15.45,-0.287,0.495,-0.166
15.46,-0.231,1.676,0.062
15.47,-0.164,0.876,0.161
15.48,-0.144,0.635,-0.001
15.49,-0.459,0.847,-0.17
15.5,-0.061,1.543,0.074
15.51,-0.238,1.039,0.109
15.52,-0.055,0.47,-0.011
15.53,-0.491,0.838,-0.156
15.54,-0.038,1.679,0.103
15.55,-0.116,0.819,0.126
15.56,-0.074,0.877,-0.079
15.57,-0.399,0.229,-0.167
15.58,-0.079,2.0,0.15
15.59,-0.116,0.663,0.098
15.6,-0.104,1.098,-0.075
15.61,-0.4,0.293,-0.157
15.62,-0.052,1.752,0.192
15.63,-0.111,1.074,0.055
15.64,-0.068,0.629,-0.07
15.65,-0.463,0.779,-0.146
15.66,-0.086,1.323,0.148
15.67,-0.309,1.439,0.008
15.68,-0.05,0.455,-0.103
15.69,-0.459,0.752,-0.116
15.7,-0.098,1.191,0.203
15.71,-0.338,1.224,0.008
15.72,-0.201,0.839,-0.105
15.73,-0.335,0.339,0.02
15.74,-0.189,1.406,0.217
15.75,-0.216,0.877,0.007
15.76,-0.329,0.951,-0.19
15.77,-0.155,1.01,0.059
15.78,-0.189,1.093,0.137
15.79,-0.185,0.72,0.036
15.8,-0.301,0.845,-0.13
15.81,-0.288,1.674,0.073
15.82,-0.123,0.654,0.167
15.83,-0.155,1.036,-0.02
15.84,-0.32,0.318,-0.203
15.85,-0.226,2.0,0.094
15.86,-0.043,0.497,0.085
15.87,-0.234,0.936,-0.02
15.88,-0.432,0.339,-0.174
15.89,-0.085,1.826,0.092
15.9,-0.191,0.964,0.089
15.91,-0.091,0.47,-0.057
15.92,-0.573,0.808,-0.183
15.93,0.002,1.424,0.226
15.94,-0.274,1.271,0.144
15.95,0.03,0.547,-0.049
15.96,-0.481,0.774,-0.177
15.97,0.021,1.584,0.153
15.98,-0.113,1.025,0.039
15.99,-0.105,0.916,-0.113
16.0,-0.329,0.24,-0.138
16.01,-0.177,1.835,0.122
16.02,-0.132,0.798,-0.018
16.03,-0.153,1.047,-0.126
16.04,-0.363,0.226,-0.11
16.05,-0.221,1.54,0.232
16.06,-0.295,1.148,-0.004
16.07,-0.09,0.61,-0.138
16.08,-0.487,0.88,-0.029
16.09,-0.003,0.925,0.22
16.1,-0.358,1.49,-0.032
16.11,-0.142,0.241,-0.141
16.12,-0.257,1.303,-0.069
16.13,0.008,0.805,0.121
16.14,-0.228,1.052,-0.001
16.15,-0.258,0.75,-0.194
16.16,-0.148,1.184,-0.021
16.17,-0.142,1.057,0.098
16.18,-0.026,0.662,0.01
16.19,-0.417,1.019,-0.248
16.2,-0.165,1.343,0.06
16.21,-0.273,0.904,0.155
16.22,-0.073,0.858,0.021
16.23,-0.422,0.575,-0.176
16.24,-0.111,1.887,0.151
16.25,-0.119,0.587,0.113
16.26,-0.135,0.993,-0.024
16.27,-0.316,0.189,-0.232
16.28,-0.081,2.0,0.029
16.29,-0.116,0.627,0.048
16.3,-0.008,0.839,-0.061
16.31,-0.545,0.559,-0.195
16.32,-0.002,1.616,0.124
16.33,-0.224,1.156,0.026
16.34,-0.04,0.394,-0.053
16.35,-0.503,0.929,-0.087
16.36,-0.07,1.406,0.195
16.37,-0.029,1.228,0.092
16.38,-0.009,0.582,-0.134
16.39,-0.336,0.53,-0.147
16.4,-0.077,1.735,0.047
16.41,-0.038,0.824,-0.043
16.42,-0.113,1.092,-0.161
16.43,-0.394,0.106,-0.147
16.44,-0.289,1.731,0.18
16.45,-0.21,0.92,0.106
16.46,-0.311,0.831,-0.1
16.47,-0.41,0.492,-0.025
16.48,-0.163,1.233,0.292
16.49,-0.251,1.342,-0.003
16.5,-0.115,0.363,-0.176
16.51,-0.433,1.076,-0.052
16.52,0.012,0.86,0.163
16.53,-0.332,1.349,0.043
16.54,-0.213,0.463,-0.167
16.55,-0.37,1.355,-0.024
16.56,-0.101,0.705,0.124
16.57,-0.227,1.096,0.027
16.58,-0.287,0.672,-0.16
16.59,-0.191,1.42,0.006
16.6,-0.204,1.008,0.164
16.61,-0.036,0.628,0.012
16.62,-0.436,1.042,-0.18
16.63,-0.08,1.456,0.052
16.64,-0.213,0.986,0.151
16.65,-0.109,0.686,0.025
16.66,-0.493,0.582,-0.16
16.67,-0.128,1.955,0.114
16.68,-0.095,0.57,0.128
16.69,-0.206,1.008,-0.002
16.7,-0.36,0.251,-0.235
16.71,-0.131,2.0,0.073
16.72,-0.066,0.668,0.112
16.73,-0.066,0.863,-0.035
16.74,-0.53,0.525,-0.223
16.75,-0.04,1.585,0.18
16.76,-0.135,1.216,0.082
16.77,-0.005,0.462,-0.053
16.78,-0.525,0.906,-0.19
16.79,-0.045,1.406,0.206
16.8,-0.124,1.195,0.089
16.81,-0.019,0.671,-0.045
16.82,-0.466,0.627,-0.194
16.83,-0.072,1.713,0.132
16.84,-0.117,0.902,0.013
16.85,-0.122,0.991,-0.077
16.86,-0.366,0.186,-0.158
16.87,-0.21,1.765,0.174
16.88,-0.266,0.824,0.08
16.89,-0.085,0.947,-0.114
16.9,-0.503,0.444,-0.181
16.91,-0.076,1.312,0.214
16.92,-0.366,1.339,0.005
16.93,-0.006,0.379,-0.108
16.94,-0.524,0.931,-0.14
16.95,-0.045,1.046,0.245
16.96,-0.45,1.42,0.004
16.97,-0.149,0.433,-0.051
16.98,-0.42,0.743,0.001
16.99,-0.152,1.111,0.165
17.0,-0.2,0.94,0.026
17.01,-0.325,0.913,-0.136
17.02,-0.329,0.361,0.004
17.03,-0.146,1.371,0.152
17.04,-0.201,0.893,0.002
17.05,-0.31,0.796,-0.127
17.06,-0.275,0.895,-0.059
17.07,-0.146,0.916,0.17
17.08,-0.258,1.208,-0.032
17.09,-0.248,0.457,-0.223
17.1,-0.247,1.566,-0.005
17.11,-0.086,0.574,0.147
17.12,-0.22,1.295,0.038
17.13,-0.352,0.407,-0.171
17.14,-0.249,1.637,0.022
17.15,-0.167,0.801,0.169
17.16,-0.137,0.819,0.055
17.17,-0.337,0.84,-0.183
17.18,-0.136,1.429,0.082
17.19,-0.168,1.098,0.18
17.2,0.0,0.47,0.002
17.21,-0.482,0.875,-0.214
17.22,-0.037,1.634,0.117
17.23,-0.173,0.888,0.08
17.24,-0.012,0.778,-0.023
17.25,-0.451,0.466,-0.205
17.26,-0.099,1.968,0.123
17.27,-0.092,0.541,0.111
17.28,-0.091,1.048,-0.01
17.29,-0.438,0.277,-0.213
17.3,-0.079,1.925,0.101
17.31,-0.165,0.777,0.083
17.32,-0.032,0.701,-0.043
17.33,-0.565,0.698,-0.186
17.34,0.033,1.503,0.171
17.35,-0.193,1.293,0.121
17.36,0.042,0.548,-0.069
17.37,-0.499,0.882,-0.146
17.38,0.017,1.383,0.175
17.39,-0.143,1.332,0.018
17.4,0.027,0.559,-0.073
17.41,-0.439,0.737,-0.18
17.42,-0.053,1.559,0.104
17.43,-0.128,0.987,0.008
17.44,-0.13,0.956,-0.164
17.45,-0.262,0.188,-0.132
17.46,-0.262,1.681,0.143
17.47,-0.143,0.877,0.033
17.48,-0.251,0.901,-0.124
17.49,-0.425,0.33,-0.099
17.5,-0.209,1.369,0.295
17.51,-0.238,1.197,0.055
17.52,-0.236,0.513,-0.12
17.53,-0.43,0.82,-0.051
17.54,-0.116,0.976,0.227
17.55,-0.356,1.607,0.02
17.56,-0.192,0.194,-0.093
17.57,-0.365,0.917,-0.029
17.58,-0.025,1.013,0.127
17.59,-0.25,1.026,0.048
17.6,-0.25,0.884,-0.131
17.61,-0.402,0.502,-0.006
17.62,-0.087,1.292,0.165
17.63,-0.132,0.894,-0.005
17.64,-0.339,0.922,-0.124
17.65,-0.255,0.874,-0.057
17.66,-0.148,0.959,0.151
17.67,-0.204,1.071,-0.025
17.68,-0.223,0.518,-0.171
17.69,-0.292,1.771,-0.101
17.7,-0.011,0.539,0.123
17.71,-0.206,1.236,0.014
17.72,-0.295,0.357,-0.194
17.73,-0.352,1.707,0.087
17.74,-0.219,0.659,0.153
17.75,-0.16,0.936,0.057
17.76,-0.365,0.708,-0.16
17.77,-0.202,1.518,0.119
17.78,-0.209,1.052,0.152
17.79,-0.042,0.496,0.032
17.8,-0.385,0.88,-0.183
17.81,-0.006,1.507,0.041
17.82,-0.109,1.025,0.095
17.83,0.018,0.712,-0.044
17.84,-0.468,0.509,-0.197
17.85,-0.038,1.925,0.135
17.86,-0.15,0.652,0.065
17.87,-0.11,1.025,-0.048
17.88,-0.389,0.25,-0.181
17.89,-0.111,1.939,0.115
17.9,-0.043,0.717,0.11
17.91,-0.061,0.79,-0.066
17.92,-0.405,0.595,-0.207
17.93,-0.07,1.519,0.168
17.94,-0.135,1.224,0.095
17.95,-0.009,0.514,-0.06
17.96,-0.45,0.982,-0.163
17.97,-0.042,1.444,0.237
17.98,-0.164,1.212,0.103
17.99,-0.046,0.637,-0.066
18.0,-0.356,0.603,-0.169
18.01,-0.122,1.75,0.082
18.02,-0.03,0.84,0.04
18.03,-0.143,1.003,-0.122
18.04,-0.286,0.167,-0.121
18.05,-0.181,1.772,0.164
18.06,-0.167,0.76,0.042
18.07,-0.136,0.862,-0.181
18.08,-0.372,0.551,-0.134
18.09,-0.112,1.282,0.22
18.1,-0.33,1.333,0.017
18.11,-0.012,0.371,-0.138
18.12,-0.487,0.952,-0.117
18.13,0.063,0.957,0.19
18.14,-0.366,1.483,-0.044
18.15,-0.244,0.471,-0.094
18.16,-0.333,1.13,-0.035
18.17,-0.468,0.873,-0.093
18.18,0.02,0.881,0.228
18.19,-0.363,1.509,-0.006
18.2,-0.097,0.32,-0.128
18.21,-0.313,1.177,-0.013
18.22,-0.009,0.984,0.137
18.23,-0.162,0.819,0.01
18.24,-0.396,0.966,-0.15
18.25,-0.286,0.595,-0.043
18.26,-0.273,1.226,0.149
18.27,-0.115,0.843,0.041
18.28,-0.362,0.83,-0.109
18.29,-0.25,1.354,0.026
18.3,-0.179,0.81,0.176
18.31,-0.207,1.035,-0.031
18.32,-0.258,0.473,-0.145
18.33,-0.198,1.92,0.04
18.34,-0.041,0.64,0.156
18.35,-0.172,1.042,0.009
18.36,-0.457,0.339,-0.234
18.37,-0.21,1.984,0.093
18.38,-0.335,0.628,0.097
18.39,-0.075,0.847,0.015
18.4,-0.461,0.747,-0.212
18.41,0.027,1.444,0.085
18.42,-0.176,1.248,0.175
18.43,-0.068,0.346,-0.023
18.44,-0.46,0.863,-0.16
18.45,-0.003,1.5,0.096
18.46,-0.124,1.002,0.128
18.47,-0.022,0.813,-0.094
18.48,-0.506,0.434,-0.185
18.49,-0.102,1.905,0.21
18.5,-0.136,0.615,0.145
18.51,-0.225,0.981,0.006
18.52,-0.399,0.298,-0.169
18.53,-0.22,1.788,0.152
18.54,-0.008,0.917,0.047
18.55,-0.1,0.74,-0.076
18.56,-0.324,0.614,-0.164
18.57,-0.164,1.31,0.134
18.58,-0.255,1.254,0.047
18.59,-0.022,0.503,-0.115
18.6,-0.495,0.853,-0.137
18.61,0.005,1.312,0.198
18.62,-0.237,1.284,0.023
18.63,-0.047,0.675,-0.089
18.64,-0.456,0.51,-0.066
18.65,-0.25,1.574,0.256
18.66,-0.205,0.936,0.034
18.67,-0.269,0.91,-0.113
18.68,-0.35,0.397,-0.025
18.69,-0.166,1.357,0.168
18.7,-0.224,0.732,0.04
18.71,-0.292,0.972,-0.126
18.72,-0.386,0.631,-0.093
18.73,-0.132,1.092,0.198
18.74,-0.275,1.417,0.002
18.75,-0.129,0.286,-0.156
18.76,-0.453,1.039,-0.043
18.77,0.072,0.842,0.121
18.78,-0.397,1.433,-0.029
18.79,-0.094,0.402,-0.137
18.8,-0.235,1.421,-0.067
18.81,0.006,1.099,0.173
18.82,-0.118,0.545,0.005
18.83,-0.414,1.135,-0.218
18.84,-0.267,0.732,-0.006
18.85,-0.224,1.11,0.143
18.86,-0.084,0.873,0.02
18.87,-0.408,0.791,-0.25
18.88,-0.165,1.536,0.051
18.89,-0.192,0.899,0.147
18.9,-0.115,0.738,0.036
18.91,-0.385,0.521,-0.15
18.92,-0.179,1.826,0.079
18.93,0.015,0.801,0.169
18.94,-0.194,1.059,0.01
18.95,-0.406,0.232,-0.239
18.96,-0.114,2.0,0.141
18.97,-0.181,0.634,0.097
18.98,-0.084,0.844,0.011
18.99,-0.438,0.604,-0.254
19.0,-0.062,1.603,0.113
19.01,-0.229,1.115,0.1
19.02,0.002,0.444,-0.007
19.03,-0.435,0.882,-0.172
19.04,0.012,1.437,0.051
19.05,-0.039,1.185,0.077
19.06,-0.005,0.706,-0.072
19.07,-0.353,0.548,-0.135
19.08,-0.09,1.855,0.224
19.09,-0.136,0.63,0.116
19.1,-0.208,1.06,-0.089
19.11,-0.336,0.291,-0.203
19.12,-0.129,1.933,0.173
19.13,-0.017,0.75,0.064
19.14,-0.17,0.719,-0.081
19.15,-0.398,0.523,-0.159
19.16,-0.21,1.37,0.158
19.17,-0.276,1.202,0.101
19.18,-0.029,0.553,-0.077
19.19,-0.473,0.845,-0.166
19.2,-0.05,1.272,0.2
19.21,-0.148,1.338,-0.006
19.22,-0.139,0.614,-0.091
19.23,-0.374,0.635,-0.124
19.24,-0.138,1.631,0.166
19.25,-0.031,1.03,0.016
19.26,-0.104,0.937,-0.101
19.27,-0.272,0.248,-0.141
19.28,-0.184,1.594,0.146
19.29,-0.18,0.866,-0.055
19.3,-0.204,0.939,-0.122
19.31,-0.371,0.532,-0.142
19.32,-0.015,1.14,0.172
19.33,-0.236,1.256,-0.031
19.34,-0.157,0.445,-0.141
19.35,-0.473,0.953,-0.037
19.36,-0.118,0.914,0.225
19.37,-0.284,1.453,0.0
19.38,-0.18,0.32,-0.106
19.39,-0.29,1.225,-0.066
19.4,-0.09,0.893,0.175
19.41,-0.162,0.88,0.035
19.42,-0.364,0.923,-0.138
19.43,-0.158,1.027,-0.017
19.44,-0.146,1.205,0.136
19.45,-0.035,0.648,0.017
19.46,-0.378,1.03,-0.23
19.47,-0.338,1.135,0.026
19.48,-0.197,0.791,0.111
19.49,-0.216,1.099,0.016
19.5,-0.272,0.386,-0.197
19.51,-0.281,1.93,0.054
19.52,-0.047,0.603,0.14
19.53,-0.164,1.037,0.031
19.54,-0.296,0.4,-0.199
19.55,-0.253,1.951,0.073
19.56,-0.217,0.737,0.105
19.57,-0.128,0.747,0.025
19.58,-0.464,0.696,-0.206
19.59,-0.053,1.636,0.082
19.6,-0.389,0.985,0.112
19.61,0.05,0.519,0.012
19.62,-0.498,0.947,-0.217
19.63,0.075,1.537,0.05
19.64,-0.109,1.038,0.141
19.65,-0.037,0.674,-0.068
19.66,-0.46,0.448,-0.163
19.67,-0.096,1.887,0.094
19.68,-0.08,0.592,0.086
19.69,-0.125,1.061,-0.074
19.7,-0.43,0.254,-0.172
19.71,-0.089,1.857,0.158
19.72,-0.109,0.779,0.091
19.73,-0.137,0.963,-0.046
19.74,-0.402,0.415,-0.121
19.75,-0.193,1.613,0.177
19.76,-0.193,1.182,0.066
19.77,-0.086,0.577,-0.087
19.78,-0.402,0.813,-0.136
19.79,-0.054,1.273,0.164
19.8,-0.267,1.478,0.016
19.81,-0.072,0.419,-0.051
19.82,-0.455,0.68,-0.139
19.83,-0.134,1.377,0.195
19.84,-0.279,1.152,-0.001
19.85,-0.261,0.824,-0.078
19.86,-0.344,0.212,-0.015
19.87,-0.264,1.575,0.244
19.88,-0.231,0.799,-0.012
19.89,-0.183,0.938,-0.102
19.9,-0.321,0.532,-0.094
19.91,0.039,1.176,0.152
19.92,-0.167,1.091,-0.11
19.93,-0.149,0.614,-0.218
19.94,-0.306,1.136,-0.142
19.95,0.017,0.755,0.158
19.96,-0.333,1.371,-0.023
19.97,-0.209,0.32,-0.169
19.98,-0.29,1.56,-0.057
19.99,-0.106,0.789,0.171
20.0,-0.174,0.906,0.032
20.01,-0.311,0.866,-0.14
20.02,-0.237,1.445,0.047
20.03,-0.145,1.065,0.157
20.04,-0.044,0.543,0.026
20.05,-0.474,0.991,-0.157
20.06,-0.236,1.498,0.1
20.07,-0.294,0.929,0.188
20.08,-0.145,0.811,0.03
20.09,-0.405,0.555,-0.136
20.1,-0.192,1.96,0.103
20.11,-0.096,0.562,0.115
20.12,-0.185,0.996,0.02
20.13,-0.301,0.263,-0.209
20.14,-0.159,2.0,0.058
20.15,-0.063,0.649,0.126
20.16,-0.166,0.866,-0.025
20.17,-0.468,0.601,-0.234
20.18,-0.096,1.585,0.181
20.19,-0.201,1.162,0.145
20.2,-0.025,0.384,-0.028
20.21,-0.519,0.956,-0.169
20.22,-0.002,1.389,0.182
20.23,-0.155,1.223,0.065
20.24,0.013,0.657,-0.059
20.25,-0.407,0.591,-0.166
20.26,-0.03,1.722,0.151
20.27,-0.044,0.82,0.097
20.28,-0.149,1.065,-0.09
20.29,-0.372,0.21,-0.146
20.3,-0.094,1.874,0.18
20.31,-0.139,0.861,0.077
20.32,-0.075,0.897,-0.045
20.33,-0.424,0.5,-0.166
20.34,-0.168,1.467,0.207
20.35,-0.305,1.295,0.018
20.36,-0.059,0.454,-0.108
20.37,-0.464,0.847,-0.104
20.38,-0.138,1.045,0.214
20.39,-0.322,1.474,0.036
20.4,-0.195,0.47,-0.107
20.41,-0.389,0.527,-0.055
20.42,-0.107,1.313,0.208
20.43,-0.296,1.052,0.026
20.44,-0.244,0.843,-0.092
20.45,-0.367,0.274,0.027
20.46,-0.115,1.419,0.146
20.47,-0.267,0.912,0.0
20.48,-0.198,0.833,-0.134
20.49,-0.299,1.013,-0.055
20.5,-0.104,0.966,0.164
20.51,-0.154,0.817,0.022
20.52,-0.456,0.672,-0.153
20.53,-0.211,1.834,0.032
20.54,-0.12,0.56,0.099
20.55,-0.206,1.135,0.035
20.56,-0.392,0.29,-0.282
20.57,-0.197,2.0,0.117
20.58,-0.164,0.617,0.139
20.59,-0.144,0.831,0.02
20.6,-0.357,0.517,-0.238
20.61,0.039,1.63,0.041
20.62,-0.075,1.222,0.124
20.63,0.002,0.404,-0.082
20.64,-0.467,0.921,-0.219
20.65,0.025,1.553,0.091
20.66,-0.233,1.025,0.075
20.67,-0.015,0.625,-0.063
20.68,-0.53,0.693,-0.185
20.69,-0.005,1.686,0.104
20.7,-0.068,0.833,0.098
20.71,-0.084,1.003,-0.104
20.72,-0.353,0.225,-0.158
20.73,-0.181,1.919,0.127
20.74,-0.092,0.717,0.131
20.75,-0.185,0.985,-0.063
20.76,-0.475,0.481,-0.14
20.77,-0.108,1.579,0.186
20.78,-0.203,1.28,0.06
20.79,0.018,0.465,-0.096
20.8,-0.448,0.908,-0.131
20.81,-0.065,1.147,0.219
20.82,-0.326,1.44,-0.048
20.83,-0.182,0.474,-0.067
20.84,-0.495,0.581,-0.066
20.85,-0.146,1.285,0.234
20.86,-0.345,0.967,0.082
20.87,-0.316,0.923,-0.105
20.88,-0.447,0.269,0.029
20.89,-0.196,1.469,0.285
20.9,-0.174,0.94,0.014
20.91,-0.314,0.793,-0.149
20.92,-0.228,1.046,-0.047
20.93,-0.128,0.953,0.114
20.94,-0.176,1.089,-0.023
20.95,-0.179,0.53,-0.202
20.96,-0.216,1.666,-0.09
20.97,-0.081,0.589,0.128
20.98,-0.19,1.209,0.039
20.99,-0.344,0.43,-0.184
21.0,-0.284,1.616,0.087
21.01,-0.239,0.677,0.143
21.02,-0.15,0.804,0.002
21.03,-0.436,0.771,-0.147
21.04,-0.114,1.45,0.141
21.05,-0.228,1.122,0.163
21.06,-0.019,0.432,-0.016
21.07,-0.514,0.88,-0.207
21.08,0.056,1.549,0.065
21.09,-0.158,1.054,0.143
21.1,-0.095,0.71,-0.056
21.11,-0.416,0.472,-0.189
21.12,-0.123,1.899,0.151
21.13,-0.033,0.651,0.127
21.14,-0.203,1.063,-0.041
21.15,-0.416,0.212,-0.182
21.16,-0.115,1.862,0.146
21.17,-0.047,0.869,0.106
21.18,-0.072,0.76,-0.049
21.19,-0.496,0.646,-0.204
21.2,-0.031,1.424,0.153
21.21,-0.272,1.304,0.063
21.22,-0.005,0.49,-0.06
21.23,-0.506,0.876,-0.168
21.24,-0.096,1.302,0.15
21.25,-0.215,1.261,-0.002
21.26,-0.088,0.739,-0.13
21.27,-0.359,0.41,-0.137
21.28,-0.177,1.582,0.164
21.29,-0.229,0.835,0.01
21.3,-0.202,0.824,-0.1
21.31,-0.386,0.534,-0.023
21.32,-0.076,1.306,0.139
21.33,-0.233,0.696,0.037
21.34,-0.249,1.036,-0.16
21.35,-0.324,0.75,-0.089
21.36,-0.066,0.957,0.106
21.37,-0.195,1.111,-0.04
21.38,-0.191,0.515,-0.206
21.39,-0.208,1.748,-0.045
21.4,0.031,0.615,0.122
21.41,-0.199,1.208,0.02
21.42,-0.244,0.416,-0.254
21.43,-0.214,1.917,-0.015
21.44,-0.113,0.698,0.135
21.45,-0.125,0.811,0.02
21.46,-0.481,0.748,-0.215
21.47,-0.112,1.544,0.096
21.48,-0.335,0.994,0.154
21.49,0.047,0.544,0.09
21.5,-0.558,0.974,-0.193
21.51,-0.006,1.448,0.147
21.52,-0.206,1.023,0.118
21.53,-0.025,0.681,-0.001
21.54,-0.47,0.568,-0.175
21.55,-0.065,1.878,0.101
21.56,-0.067,0.594,0.12
21.57,-0.13,1.064,-0.035
21.58,-0.447,0.238,-0.174
21.59,-0.134,1.931,0.152
21.6,-0.194,0.748,0.183
21.61,-0.114,0.76,-0.035
21.62,-0.443,0.644,-0.189
21.63,-0.041,1.518,0.154
21.64,-0.136,1.271,0.053
21.65,0.037,0.485,-0.085
21.66,-0.497,0.912,-0.163
21.67,-0.023,1.408,0.15
21.68,-0.174,1.194,0.088
21.69,-0.092,0.679,-0.079
21.7,-0.411,0.535,-0.166
21.71,-0.075,1.754,0.101
21.72,0.032,0.814,0.031
21.73,-0.181,1.042,-0.088
21.74,-0.372,0.207,-0.133
21.75,-0.253,1.711,0.151
21.76,-0.15,0.933,0.022
21.77,-0.141,0.804,-0.109
21.78,-0.329,0.561,-0.19
21.79,-0.14,1.224,0.182
21.8,-0.259,1.262,-0.022
21.81,-0.1,0.461,-0.111
21.82,-0.456,0.861,-0.118
21.83,-0.106,1.01,0.211
21.84,-0.311,1.416,0.005
21.85,-0.223,0.434,-0.076
21.86,-0.402,0.754,-0.026
21.87,-0.144,1.103,0.185
21.88,-0.255,0.827,0.048
21.89,-0.278,0.96,-0.141
21.9,-0.198,0.757,-0.052
21.91,-0.144,1.211,0.184
21.92,-0.168,0.674,0.049
21.93,-0.333,1.003,-0.186
21.94,-0.304,0.882,-0.105
21.95,-0.096,0.927,0.153
21.96,-0.204,1.216,-0.011
21.97,-0.242,0.422,-0.236
21.98,-0.263,1.787,0.01
21.99,-0.055,0.572,0.173
22.0,-0.207,1.19,-0.002
22.01,-0.257,0.46,-0.176
22.02,-0.195,1.738,0.032
22.03,-0.077,0.927,0.128
22.04,-0.034,0.612,0.008
22.05,-0.509,0.938,-0.228
22.06,-0.139,1.443,0.062
22.07,-0.335,0.999,0.148
22.08,-0.004,0.625,0.066
22.09,-0.523,0.918,-0.176
22.1,0.08,1.5,0.199
22.11,-0.307,1.132,0.085
22.12,-0.023,0.537,0.009
22.13,-0.492,0.659,-0.167
22.14,-0.039,1.751,0.066
22.15,0.086,0.773,0.097
22.16,-0.105,1.053,-0.088
22.17,-0.382,0.184,-0.203
22.18,-0.16,1.912,0.221
22.19,-0.092,0.678,0.165
22.2,-0.152,0.962,-0.047
22.21,-0.435,0.491,-0.213
22.22,-0.07,1.591,0.195
22.23,-0.153,1.179,0.083
22.24,0.021,0.49,-0.088
22.25,-0.515,0.935,-0.138
22.26,-0.041,1.364,0.114
22.27,-0.275,1.233,0.075
22.28,-0.012,0.625,-0.063
22.29,-0.503,0.654,-0.111
22.3,0.006,1.617,0.111
22.31,0.011,0.945,0.004
22.32,-0.12,0.985,-0.136
22.33,-0.296,0.249,-0.132
22.34,-0.211,1.746,0.118
22.35,-0.133,0.837,0.003
22.36,-0.122,0.883,-0.142
22.37,-0.409,0.413,-0.122
22.38,-0.09,1.29,0.177
22.39,-0.286,1.209,0.012
22.4,-0.128,0.503,-0.115
22.41,-0.51,0.856,-0.061
22.42,-0.104,1.03,0.25
22.43,-0.433,1.398,0.06
22.44,-0.142,0.415,-0.064
22.45,-0.454,0.849,-0.055
22.46,-0.046,1.012,0.145
22.47,-0.259,1.046,0.044
22.48,-0.25,0.842,-0.146
22.49,-0.266,0.722,0.002
22.5,-0.14,1.256,0.187
22.51,-0.154,0.652,0.062
22.52,-0.418,0.998,-0.164
22.53,-0.304,0.699,-0.058
22.54,-0.122,0.987,0.126
22.55,-0.19,1.17,-0.012
22.56,-0.146,0.502,-0.179
22.57,-0.269,1.65,-0.03
22.58,0.008,0.606,0.132
22.59,-0.184,1.28,0.003
22.6,-0.227,0.435,-0.185
22.61,-0.24,1.852,-0.076
22.62,-0.036,0.742,0.149
22.63,-0.108,0.854,0.034
22.64,-0.472,0.815,-0.194
22.65,-0.194,1.324,0.106
22.66,-0.284,1.044,0.15
22.67,-0.086,0.63,0.061
22.68,-0.452,0.954,-0.169
22.69,-0.174,1.462,0.08
22.7,-0.229,0.89,0.194
22.71,-0.074,0.773,0.019
22.72,-0.404,0.571,-0.159
22.73,-0.112,1.843,0.09
22.74,-0.029,0.735,0.152
22.75,-0.102,1.029,-0.029
22.76,-0.412,0.248,-0.239
22.77,-0.043,1.999,0.068
22.78,-0.15,0.701,0.111
22.79,-0.065,0.836,-0.043
22.8,-0.444,0.628,-0.247
22.81,-0.002,1.617,0.101
22.82,-0.156,1.167,0.111
22.83,0.02,0.366,-0.04
22.84,-0.512,0.982,-0.181
22.85,0.0,1.449,0.084
22.86,-0.107,1.102,0.125
22.87,-0.015,0.713,-0.059
22.88,-0.515,0.592,-0.159
22.89,-0.044,1.772,0.135
22.9,-0.141,1.048,0.11
22.91,-0.085,0.837,-0.083
22.92,-0.382,0.345,-0.153
22.93,-0.121,1.928,0.128
22.94,-0.057,0.665,0.016
22.95,-0.11,1.078,-0.116
22.96,-0.374,0.299,-0.187
22.97,-0.188,1.586,0.182
22.98,-0.245,1.059,0.038
22.99,-0.083,0.58,-0.148
23.0,-0.49,0.761,-0.137
23.01,-0.042,1.154,0.192
23.02,-0.393,1.355,0.077
23.03,-0.055,0.381,-0.088
23.04,-0.513,0.819,-0.172
23.05,-0.072,1.21,0.235
23.06,-0.273,1.177,0.031
23.07,-0.197,0.71,-0.093
23.08,-0.399,0.334,-0.076
23.09,-0.276,1.54,0.274
23.1,-0.172,0.941,0.035
23.11,-0.302,0.875,-0.067
23.12,-0.391,0.291,-0.016
23.13,-0.143,1.332,0.202
23.14,-0.27,1.086,0.086
23.15,-0.2,0.59,-0.128
23.16,-0.46,0.938,-0.057
23.17,0.037,0.848,0.138
23.18,-0.321,1.36,0.055
23.19,-0.125,0.348,-0.149
23.2,-0.441,1.263,-0.054
23.21,0.002,0.79,0.161
23.22,-0.322,1.11,0.06
23.23,-0.212,0.653,-0.121
23.24,-0.381,1.063,-0.075
23.25,-0.088,1.094,0.144
23.26,-0.112,0.697,-0.011
23.27,-0.408,0.973,-0.131
23.28,-0.197,1.141,-0.002
23.29,-0.242,1.033,0.206
23.3,-0.087,0.802,0.028
23.31,-0.371,0.763,-0.177
23.32,-0.193,1.696,-0.02
23.33,-0.13,0.624,0.121
23.34,-0.17,1.107,0.017
23.35,-0.296,0.313,-0.188
23.36,-0.304,1.98,0.051
23.37,-0.117,0.587,0.121
23.38,-0.229,0.967,0.033
23.39,-0.338,0.516,-0.175
23.4,-0.228,1.738,0.143
23.41,-0.223,0.936,0.177
23.42,-0.038,0.525,0.015
23.43,-0.5,0.919,-0.197
23.44,-0.051,1.466,0.11
23.45,-0.245,1.052,0.08
23.46,0.029,0.581,-0.036
23.47,-0.452,0.724,-0.244
23.48,0.024,1.752,0.018
23.49,-0.138,0.759,0.159
23.5,-0.074,0.95,-0.035
23.51,-0.456,0.269,-0.187
23.52,-0.041,1.985,0.12
23.53,-0.102,0.634,0.121
23.54,-0.088,1.021,-0.053
23.55,-0.466,0.384,-0.205
23.56,-0.011,1.782,0.136
23.57,-0.224,1.012,0.109
23.58,0.022,0.483,-0.11
23.59,-0.454,0.926,-0.191
23.6,0.019,1.451,0.119
23.61,-0.185,1.263,0.085
23.62,0.103,0.581,-0.002
23.63,-0.559,0.75,-0.138
23.64,0.006,1.621,0.16
23.65,-0.105,0.94,0.064
23.66,-0.133,0.962,-0.089
23.67,-0.38,0.321,-0.176
23.68,-0.141,1.937,0.17
23.69,-0.044,0.761,0.057
23.7,-0.05,0.968,-0.132
23.71,-0.387,0.219,-0.124
23.72,-0.182,1.606,0.186
23.73,-0.222,0.97,-0.006
23.74,-0.228,0.801,-0.094
23.75,-0.475,0.566,-0.092
23.76,-0.15,1.138,0.299
23.77,-0.31,1.434,0.054
23.78,-0.164,0.322,-0.149
23.79,-0.5,0.917,-0.072
23.8,-0.142,1.02,0.261
23.81,-0.275,1.505,0.045
23.82,-0.198,0.33,-0.08
23.83,-0.373,0.781,0.007
23.84,-0.095,1.135,0.103
23.85,-0.284,0.909,0.042
23.86,-0.236,0.998,-0.144
23.87,-0.401,0.438,-0.032
23.88,-0.064,1.307,0.158
23.89,-0.143,0.914,-0.005
23.9,-0.267,0.896,-0.188
23.91,-0.329,0.935,-0.072
23.92,-0.056,0.819,0.073
23.93,-0.313,1.274,-0.017
23.94,-0.079,0.337,-0.19
23.95,-0.357,1.953,-0.016
23.96,0.071,0.573,0.156
23.97,-0.3,1.046,0.082
23.98,-0.344,0.448,-0.165
23.99,-0.27,1.822,0.044
24.0,-0.144,0.851,0.117
24.01,-0.083,0.657,0.009
24.02,-0.369,0.857,-0.266
24.03,-0.018,1.497,0.076
24.04,-0.178,1.071,0.075
24.05,-0.01,0.461,-0.001
24.06,-0.42,0.857,-0.231
24.07,-0.033,1.585,0.077
24.08,-0.122,0.901,0.133
24.09,-0.099,0.83,-0.049
24.1,-0.415,0.365,-0.208
24.11,-0.15,1.998,0.164
24.12,-0.121,0.584,0.127
24.13,-0.168,1.062,-0.03
24.14,-0.419,0.3,-0.185
24.15,-0.086,1.82,0.142
24.16,-0.043,0.959,0.098
24.17,-0.103,0.593,-0.056
24.18,-0.504,0.805,-0.17
24.19,-0.028,1.487,0.187
24.2,-0.222,1.204,0.105
24.21,0.024,0.547,-0.045
24.22,-0.484,0.914,-0.189
24.23,0.031,1.527,0.197
24.24,-0.176,1.106,0.097
24.25,-0.071,0.811,-0.03
24.26,-0.448,0.428,-0.147
24.27,-0.132,1.915,0.148
24.28,-0.108,0.714,0.06
24.29,-0.09,1.093,-0.046
24.3,-0.447,0.219,-0.143
24.31,-0.151,1.672,0.152
24.32,-0.249,1.021,0.016
24.33,-0.039,0.696,-0.112
24.34,-0.497,0.683,-0.128
24.35,-0.08,1.173,0.24
24.36,-0.426,1.408,0.058
24.37,-0.074,0.446,-0.085
24.38,-0.506,0.8,-0.106
24.39,-0.065,1.133,0.259
24.4,-0.311,1.365,0.011
24.41,-0.174,0.617,-0.106
24.42,-0.387,0.481,-0.049
24.43,-0.047,1.332,0.164
24.44,-0.209,0.83,0.011
24.45,-0.269,1.008,-0.153
24.46,-0.365,0.479,-0.003
24.47,-0.09,1.215,0.111
24.48,-0.235,0.961,-0.026
24.49,-0.187,0.746,-0.197
24.5,-0.385,1.094,-0.081
24.51,-0.145,0.793,0.117
24.52,-0.204,1.053,0.051
24.53,-0.314,0.477,-0.164
24.54,-0.33,1.907,0.096
24.55,-0.112,0.555,0.161
24.56,-0.209,1.095,0.049
24.57,-0.338,0.349,-0.187
24.58,-0.232,1.921,0.155
24.59,-0.157,0.749,0.137
24.6,-0.039,0.74,0.012
24.61,-0.396,0.786,-0.259
24.62,-0.014,1.485,0.052
24.63,-0.18,1.16,0.095
24.64,0.019,0.445,-0.029
24.65,-0.502,0.953,-0.218
24.66,-0.027,1.594,0.109
24.67,-0.256,0.931,0.163
24.68,-0.046,0.787,-0.059
24.69,-0.405,0.516,-0.197
24.7,-0.132,1.806,0.112
24.71,-0.098,0.718,0.135
24.72,-0.165,1.042,0.001
24.73,-0.388,0.228,-0.124
24.74,-0.212,1.878,0.188
24.75,-0.037,0.774,0.158
24.76,-0.115,0.804,-0.095
24.77,-0.48,0.678,-0.14
24.78,-0.034,1.494,0.25
24.79,-0.242,1.252,0.105
24.8,0.041,0.464,-0.061
24.81,-0.451,0.941,-0.177
24.82,0.025,1.42,0.136
24.83,-0.292,1.313,0.014
24.84,-0.033,0.66,-0.085
24.85,-0.392,0.444,-0.162
24.86,-0.114,1.699,0.131
24.87,-0.135,0.903,0.013
24.88,-0.29,0.949,-0.114
24.89,-0.356,0.145,-0.08
24.9,-0.269,1.605,0.26
24.91,-0.22,0.979,-0.006
24.92,-0.261,0.756,-0.074
24.93,-0.444,0.576,-0.094
24.94,-0.001,1.096,0.209
24.95,-0.311,1.42,-0.033
24.96,-0.082,0.29,-0.197
24.97,-0.322,1.259,-0.06
24.98,0.011,0.749,0.145
24.99,-0.263,1.26,0.016
25.0,-0.275,0.551,-0.224
25.01,-0.298,0.862,-0.048
25.02,-0.118,1.05,0.106
25.03,-0.141,0.827,0.014
25.04,-0.393,0.962,-0.208
25.05,-0.213,0.808,-0.024
25.06,-0.207,1.09,0.119
25.07,-0.132,0.807,0.036
25.08,-0.311,0.815,-0.138
25.09,-0.264,1.632,-0.013
25.1,-0.147,0.772,0.19
25.11,-0.222,0.93,0.005
25.12,-0.382,0.409,-0.149
25.13,-0.321,2.0,0.065
25.14,-0.146,0.536,0.148
25.15,-0.17,1.062,0.028
25.16,-0.399,0.382,-0.239
25.17,-0.147,1.83,0.096
25.18,-0.223,0.834,0.115
25.19,-0.039,0.589,-0.01
25.2,-0.499,0.831,-0.227
25.21,-0.018,1.495,0.089
25.22,-0.253,1.129,0.141
25.23,-0.002,0.508,0.019
25.24,-0.466,0.802,-0.195
25.25,-0.007,1.523,0.099
25.26,0.014,0.957,0.085
25.27,-0.092,0.867,-0.094
25.28,-0.446,0.322,-0.171
25.29,-0.163,1.942,0.224
25.3,-0.03,0.568,0.152
25.31,-0.089,1.133,-0.094
25.32,-0.431,0.198,-0.147
25.33,-0.139,1.824,0.133
25.34,-0.073,0.831,0.013
25.35,-0.032,0.846,-0.137
25.36,-0.486,0.54,-0.146
25.37,-0.163,1.317,0.22
25.38,-0.304,1.294,-0.008
25.39,-0.042,0.36,-0.087
25.4,-0.521,0.867,-0.109
25.41,-0.04,1.124,0.214
25.42,-0.387,1.444,-0.03
25.43,-0.089,0.561,-0.134
25.44,-0.43,0.632,-0.041
25.45,-0.073,1.22,0.235
25.46,-0.203,1.039,-0.044
25.47,-0.269,0.862,-0.148
25.48,-0.167,0.711,-0.062
25.49,-0.189,1.221,0.15
25.5,-0.146,0.711,-0.032
25.51,-0.414,0.923,-0.16
25.52,-0.194,1.023,-0.062
25.53,-0.129,0.752,0.125
25.54,-0.09,1.156,-0.023
25.55,-0.261,0.527,-0.24
25.56,-0.168,1.857,-0.009
25.57,-0.054,0.553,0.093
25.58,-0.197,1.11,0.027
25.59,-0.376,0.449,-0.186
25.6,-0.2,1.801,0.074
25.61,-0.228,0.844,0.148
25.62,-0.097,0.624,0.026
25.63,-0.484,0.848,-0.166
25.64,-0.119,1.483,0.154
25.65,-0.249,1.138,0.163
25.66,-0.008,0.466,-0.008
25.67,-0.51,0.891,-0.185
25.68,0.03,1.59,0.038
25.69,-0.128,0.89,0.122
25.7,-0.004,0.83,-0.093
25.71,-0.414,0.385,-0.201
25.72,-0.106,1.89,0.105
25.73,-0.007,0.608,0.086
25.74,-0.162,1.049,-0.055
25.75,-0.4,0.328,-0.199
25.76,-0.154,1.764,0.168
25.77,-0.021,0.911,0.134
25.78,-0.162,0.732,-0.081
25.79,-0.414,0.754,-0.19
25.8,-0.044,1.478,0.13
25.81,-0.211,1.309,0.034
25.82,0.066,0.5,-0.066
25.83,-0.467,0.85,-0.199
25.84,-0.052,1.33,0.174
25.85,-0.395,1.261,0.09
25.86,-0.12,0.71,-0.101
25.87,-0.429,0.351,-0.102
25.88,-0.156,1.632,0.202
25.89,-0.25,0.778,0.067
25.9,-0.214,1.031,-0.097
25.91,-0.433,0.223,-0.081
25.92,-0.174,1.486,0.249
25.93,-0.322,1.062,0.005
25.94,-0.202,0.663,-0.099
25.95,-0.424,0.726,-0.087
25.96,-0.006,0.946,0.146
25.97,-0.334,1.427,-0.01
25.98,-0.032,0.318,-0.142
25.99,-0.471,1.121,0.001
26.0,0.026,0.798,0.13
26.01,-0.276,1.217,-0.032
26.02,-0.187,0.651,-0.216
26.03,-0.276,1.01,-0.091
26.04,-0.115,1.043,0.087
26.05,-0.081,0.735,-0.006
26.06,-0.427,0.983,-0.153
26.07,-0.137,1.293,0.011
26.08,-0.168,1.025,0.151
26.09,-0.121,0.685,0.065
26.1,-0.458,0.828,-0.172
26.11,-0.097,1.629,0.104
26.12,-0.24,0.857,0.158
26.13,-0.113,0.838,0.021
26.14,-0.487,0.496,-0.128
26.15,-0.173,2.0,0.169
26.16,-0.135,0.498,0.13
26.17,-0.131,1.014,0.005
26.18,-0.429,0.258,-0.226
26.19,-0.014,1.901,0.048
26.2,-0.055,0.799,0.08
26.21,-0.064,0.705,-0.093
26.22,-0.431,0.644,-0.274
26.23,0.052,1.515,0.09
26.24,-0.222,1.18,0.111
26.25,-0.028,0.468,-0.038
26.26,-0.542,0.934,-0.191
26.27,-0.03,1.486,0.21
26.28,-0.276,1.104,0.154
26.29,-0.083,0.677,-0.036
26.3,-0.462,0.564,-0.127
26.31,-0.085,1.837,0.081
26.32,-0.116,0.749,0.11
26.33,-0.113,1.064,-0.04
26.34,-0.433,0.201,-0.092
26.35,-0.162,1.818,0.182
26.36,-0.145,0.894,0.113
26.37,-0.119,0.835,-0.082
26.38,-0.415,0.582,-0.166
26.39,0.031,1.519,0.169
26.4,-0.234,1.359,0.029
26.41,0.04,0.387,-0.095
26.42,-0.49,0.913,-0.159
26.43,-0.06,1.233,0.204
26.44,-0.345,1.365,0.042
26.45,-0.114,0.593,-0.081
26.46,-0.435,0.441,-0.095
26.47,-0.144,1.534,0.229
26.48,-0.186,0.873,0.038
26.49,-0.219,1.014,-0.101
26.5,-0.37,0.163,-0.07
26.51,-0.013,0.538,-0.023
26.52,-0.414,0.768,-0.186
26.53,-0.06,1.7,0.149
26.54,-0.072,0.904,0.072
26.55,-0.142,1.037,-0.074
26.56,-0.286,0.172,-0.151
26.57,-0.203,1.929,0.168
26.58,-0.036,0.847,0.107
26.59,-0.263,0.921,-0.074
26.6,-0.253,0.324,-0.144
26.61,-0.21,1.618,0.152
26.62,-0.146,1.156,0.006
26.63,-0.04,0.573,-0.134
26.64,-0.454,0.807,-0.152
26.65,-0.026,1.141,0.205
26.66,-0.29,1.478,-0.012
26.67,-0.115,0.369,-0.058
26.68,-0.403,0.733,-0.124
26.69,-0.167,1.257,0.236
26.7,-0.211,1.175,-0.013
26.71,-0.253,0.794,-0.124
26.72,-0.286,0.305,-0.077
26.73,-0.192,1.485,0.181
26.74,-0.119,0.869,0.016
26.75,-0.323,0.905,-0.125
26.76,-0.313,0.545,-0.054
26.77,-0.084,1.113,0.174
26.78,-0.085,0.823,-0.014
26.79,-0.309,0.851,-0.154
26.8,-0.297,1.426,-0.075
26.81,-0.115,0.717,0.17
26.82,-0.246,1.185,0.047
26.83,-0.257,0.391,-0.186
26.84,-0.394,1.938,0.051
26.85,-0.144,0.515,0.188
26.86,-0.187,1.056,0.083
26.87,-0.391,0.502,-0.168
26.88,-0.269,1.661,0.086
26.89,-0.141,0.99,0.164
26.9,-0.054,0.529,0.031
26.91,-0.481,0.974,-0.185
26.92,-0.162,1.476,0.108
26.93,-0.292,0.955,0.172
26.94,0.013,0.623,0.055
26.95,-0.553,0.854,-0.172
26.96,-0.047,1.744,0.126
26.97,-0.274,0.721,0.124
26.98,-0.086,0.891,-0.009
26.99,-0.399,0.287,-0.212
27.0,-0.015,1.96,0.048
27.01,0.031,0.732,0.12
27.02,-0.208,0.917,-0.032
27.03,-0.375,0.303,-0.198
27.04,-0.094,1.864,0.117
27.05,-0.163,0.86,0.109
27.06,-0.08,0.597,-0.043
27.07,-0.505,0.877,-0.242
27.08,0.005,1.464,0.177
27.09,-0.284,1.166,0.124
27.1,0.031,0.435,-0.025
27.11,-0.542,0.905,-0.194
27.12,-0.022,1.531,0.104
27.13,-0.192,1.063,0.052
27.14,-0.053,0.883,-0.087
27.15,-0.397,0.3,-0.12
27.16,-0.086,1.984,0.13
27.17,-0.015,0.658,0.085
27.18,-0.143,1.087,-0.09
27.19,-0.375,0.295,-0.181
27.2,-0.056,1.789,0.158
27.21,-0.099,0.96,0.032
27.22,-0.034,0.61,-0.084
27.23,-0.422,0.827,-0.18
27.24,-0.065,1.241,0.158
27.25,-0.289,1.391,0.012
27.26,-0.024,0.45,-0.083
27.27,-0.411,0.823,-0.152
27.28,-0.08,1.246,0.173
27.29,-0.252,1.171,0.024
27.3,-0.163,0.797,-0.134
27.31,-0.355,0.328,-0.135
27.32,-0.253,1.57,0.238
27.33,-0.193,0.94,0.007
27.34,-0.185,0.856,-0.138
27.35,-0.381,0.344,-0.129
27.36,-0.042,1.348,0.14
27.37,-0.305,0.987,-0.001
27.38,-0.153,0.709,-0.141
27.39,-0.531,0.879,-0.067
27.4,0.012,0.887,0.191
27.41,-0.339,1.37,0.044
27.42,-0.124,0.346,-0.153
27.43,-0.476,1.014,-0.063
27.44,-0.039,0.919,0.162
27.45,-0.271,1.328,0.012
27.46,-0.175,0.54,-0.18
27.47,-0.291,0.844,-0.088
27.48,-0.067,1.127,0.123
27.49,-0.079,0.778,0.014
27.5,-0.317,0.975,-0.183
27.51,-0.171,1.076,-0.067
27.52,-0.07,1.109,0.157
27.53,-0.124,0.79,0.008
27.54,-0.304,0.839,-0.25
27.55,-0.303,1.29,-0.032
27.56,-0.131,0.674,0.09
27.57,-0.211,1.246,0.04
27.58,-0.368,0.423,-0.17
27.59,-0.271,1.993,0.084
27.6,-0.185,0.5,0.154
27.61,-0.175,1.097,0.055
27.62,-0.362,0.307,-0.175
27.63,-0.193,1.887,0.101
27.64,-0.133,0.819,0.155
27.65,-0.014,0.712,-0.017
27.66,-0.442,0.778,-0.238
27.67,-0.012,1.583,0.031
27.68,-0.289,1.068,0.051
27.69,0.057,0.518,0.053
27.7,-0.668,0.915,-0.192
27.71,0.024,1.504,0.132
27.72,-0.256,1.131,0.12
27.73,-0.072,0.635,-0.024
27.74,-0.356,0.476,-0.193
27.75,-0.083,1.858,0.114
27.76,0.07,0.655,0.102
27.77,-0.201,0.981,-0.049
27.78,-0.323,0.274,-0.194
27.79,-0.155,1.967,0.105
27.8,-0.127,0.702,0.136
27.81,-0.139,0.724,-0.058
27.82,-0.548,0.764,-0.205
27.83,0.0,1.447,0.218
27.84,-0.238,1.254,0.092
27.85,0.044,0.396,-0.02
27.86,-0.473,1.012,-0.187
27.87,-0.04,1.481,0.171
27.88,-0.192,1.125,0.097
27.89,-0.035,0.705,-0.043
27.9,-0.459,0.529,-0.173
27.91,-0.07,1.818,0.181
27.92,-0.044,0.789,0.11
27.93,-0.139,0.994,-0.097
27.94,-0.241,0.277,-0.156
27.95,-0.129,1.884,0.109
27.96,-0.028,0.865,0.039
27.97,-0.174,0.77,-0.06
27.98,-0.365,0.576,-0.136
27.99,-0.138,1.497,0.175
28.0,-0.2,1.251,0.036
28.01,-0.025,0.392,-0.136
28.02,-0.493,0.928,-0.177
28.03,-0.06,1.237,0.185
28.04,-0.257,1.286,0.04
28.05,-0.178,0.542,-0.114
28.06,-0.366,0.53,-0.136
28.07,-0.261,1.584,0.183
28.08,-0.159,0.929,0.074
28.09,-0.253,0.891,-0.104
28.1,-0.403,0.199,-0.116
28.11,-0.147,1.579,0.201
28.12,-0.272,0.956,0.041
28.13,-0.156,0.786,-0.135
28.14,-0.466,0.537,-0.161
28.15,-0.042,1.226,0.214
28.16,-0.333,1.303,0.047
28.17,-0.123,0.413,-0.081
28.18,-0.562,0.936,-0.061
28.19,-0.06,1.001,0.257
28.2,-0.411,1.472,0.044
28.21,-0.113,0.425,-0.089
28.22,-0.549,0.693,-0.089
28.23,-0.0,1.155,0.172
28.24,-0.191,0.931,0.024
28.25,-0.262,0.903,-0.158
28.26,-0.389,0.41,-0.066
28.27,-0.129,1.347,0.173
28.28,-0.141,0.766,0.064
28.29,-0.346,0.893,-0.13
28.3,-0.412,0.631,-0.091
28.31,-0.113,0.983,0.159
28.32,-0.314,1.306,0.01
28.33,-0.141,0.315,-0.103
28.34,-0.477,1.206,-0.08
28.35,0.027,0.684,0.19
28.36,-0.274,1.379,0.03
28.37,-0.271,0.411,-0.157
28.38,-0.243,1.734,-0.089
28.39,-0.058,0.711,0.18
28.4,-0.173,1.013,0.036
28.41,-0.332,0.736,-0.182
28.42,-0.22,1.492,-0.044
28.43,-0.166,1.01,0.123
28.44,-0.038,0.602,0.024
28.45,-0.421,0.98,-0.174
28.46,-0.14,1.393,0.015
28.47,-0.206,1.035,0.106
28.48,-0.039,0.679,0.056
28.49,-0.409,0.792,-0.232
28.5,-0.203,1.815,0.028
28.51,-0.178,0.589,0.117
28.52,-0.201,1.117,0.082
28.53,-0.332,0.304,-0.158
28.54,-0.415,1.971,0.134
28.55,-0.163,0.537,0.186
28.56,-0.209,0.96,0.042
28.57,-0.359,0.529,-0.18
28.58,-0.239,1.668,0.067
28.59,-0.159,1.023,0.185
28.6,-0.059,0.556,0.049
28.61,-0.414,0.94,-0.212
28.62,-0.129,1.479,0.12
28.63,-0.258,1.115,0.176
28.64,-0.014,0.587,0.057
28.65,-0.449,0.753,-0.207
28.66,-0.116,1.791,0.08
28.67,-0.156,0.718,0.128
28.68,-0.133,0.944,0.024
28.69,-0.392,0.276,-0.195
28.7,-0.168,1.951,0.113
28.71,-0.08,0.689,0.132
28.72,-0.123,0.93,-0.011
28.73,-0.344,0.418,-0.204
28.74,-0.071,1.87,0.099
28.75,-0.198,0.917,0.081
28.76,-0.042,0.614,-0.04
28.77,-0.476,0.886,-0.238
28.78,0.01,1.532,0.112
28.79,-0.264,1.146,0.093
28.8,-0.056,0.447,0.001
28.81,-0.391,0.814,-0.204
28.82,-0.037,1.654,0.018
28.83,-0.029,0.848,0.163
28.84,-0.106,0.909,-0.067
28.85,-0.365,0.324,-0.183
28.86,-0.16,2.0,0.115
28.87,-0.101,0.615,0.125
28.88,-0.196,0.99,-0.07
28.89,-0.403,0.374,-0.206
28.9,-0.111,1.77,0.165
28.91,-0.066,0.963,0.102
28.92,-0.013,0.501,-0.07
28.93,-0.499,0.935,-0.175
28.94,-0.038,1.423,0.093
28.95,-0.249,1.198,0.135
28.96,0.117,0.58,-0.042
28.97,-0.556,0.835,-0.182
28.98,0.011,1.578,0.194
28.99,-0.134,0.965,0.121
29.0,-0.123,0.825,-0.085
29.01,-0.393,0.379,-0.183
29.02,-0.177,1.875,0.172
29.03,-0.045,0.623,0.086
29.04,-0.196,0.991,-0.039
29.05,-0.414,0.336,-0.164
29.06,-0.198,1.718,0.132
29.07,-0.174,0.972,0.079
29.08,-0.075,0.594,-0.11
29.09,-0.409,0.796,-0.18
29.1,0.044,1.426,0.125
29.11,-0.282,1.368,0.074
29.12,0.05,0.45,-0.062
29.13,-0.446,0.874,-0.181
29.14,0.002,1.482,0.13
29.15,-0.208,1.178,0.014
29.16,-0.099,0.692,-0.122
29.17,-0.419,0.38,-0.149
29.18,-0.146,1.446,0.195
29.19,-0.242,0.984,0.056
29.2,-0.26,0.896,-0.095
29.21,-0.425,0.192,-0.077
29.22,-0.161,1.638,0.244
29.23,-0.189,0.898,0.075
29.24,-0.346,0.795,-0.123
29.25,-0.501,0.504,-0.084
29.26,-0.131,1.214,0.23
29.27,-0.307,1.316,0.054
29.28,-0.168,0.339,-0.123
29.29,-0.601,1.032,-0.069
29.3,0.038,0.868,0.22
29.31,-0.279,1.382,0.001
29.32,-0.152,0.461,-0.167
29.33,-0.424,0.773,-0.098
29.34,-0.04,1.176,0.144
29.35,-0.193,1.025,0.019
29.36,-0.2,0.8,-0.166
29.37,-0.416,0.387,-0.093
29.38,-0.053,1.385,0.136
29.39,-0.171,0.881,0.022
29.4,-0.232,0.806,-0.14
29.41,-0.293,0.988,-0.105
29.42,-0.083,0.991,0.116
29.43,-0.174,1.038,0.004
29.44,-0.141,0.571,-0.211
29.45,-0.429,1.163,-0.055
29.46,-0.002,0.731,0.116
29.47,-0.224,1.324,0.038
29.48,-0.115,0.443,-0.203
29.49,-0.385,1.183,-0.083
29.5,-0.021,0.861,0.095
29.51,-0.157,0.969,0.009
29.52,-0.28,0.784,-0.197
29.53,-0.153,1.212,-0.132
29.54,-0.095,1.241,0.146
29.55,-0.019,0.543,0.026
29.56,-0.399,1.038,-0.193
29.57,-0.145,1.089,-0.086
29.58,-0.162,0.913,0.119
29.59,-0.055,1.052,0.009
29.6,-0.348,0.607,-0.222
29.61,-0.293,1.54,-0.032
29.62,-0.095,0.624,0.139
29.63,-0.218,1.289,0.064
29.64,-0.221,0.371,-0.161
29.65,-0.355,1.815,-0.02
29.66,-0.035,0.763,0.177
29.67,-0.081,0.797,-0.003
29.68,-0.427,0.798,-0.171
29.69,-0.229,1.292,-0.001
29.7,-0.303,1.056,0.158
29.71,-0.047,0.659,0.093
29.72,-0.469,1.045,-0.198
29.73,-0.182,1.247,0.098
29.74,-0.293,0.854,0.118
29.75,-0.123,0.894,0.021
29.76,-0.269,0.557,-0.124
29.77,-0.261,1.822,0.052
29.78,-0.072,0.592,0.196
29.79,-0.116,1.049,-0.004
29.8,-0.369,0.346,-0.198
29.81,-0.215,1.978,0.079
29.82,-0.184,0.69,0.152
29.83,-0.113,0.845,-0.005
29.84,-0.385,0.6,-0.247
29.85,-0.092,1.642,0.044
29.86,-0.349,0.979,0.129
29.87,0.079,0.468,0.035
29.88,-0.463,0.936,-0.23
29.89,0.018,1.374,0.02
29.9,-0.085,1.174,0.129
29.91,-0.005,0.594,-0.039
29.92,-0.362,0.556,-0.222
29.93,-0.046,1.926,0.1
29.94,-0.092,0.635,0.064
29.95,-0.125,1.097,-0.011
29.96,-0.447,0.196,-0.254
29.97,-0.154,2.0,0.063
29.98,-0.231,0.573,0.022
29.99,-0.154,0.978,0.056
30.0,-0.526,0.351,-0.121
30.01,-0.189,1.707,0.153
30.02,-0.039,0.975,0.121
30.03,-0.073,0.552,-0.043
30.04,-0.406,0.82,-0.14
30.05,-0.044,1.449,0.166
30.06,-0.158,1.189,0.111
30.07,0.046,0.597,-0.038
30.08,-0.496,0.902,-0.191
30.09,-0.008,1.577,0.227
30.1,-0.192,0.992,0.091
30.11,-0.068,0.716,-0.033
30.12,-0.374,0.493,-0.208
30.13,-0.183,1.84,0.146
30.14,-0.065,0.684,0.056
30.15,-0.143,1.019,-0.069
30.16,-0.395,0.269,-0.148
30.17,-0.141,1.779,0.145
30.18,-0.185,0.867,0.074
30.19,-0.094,0.707,-0.085
30.2,-0.538,0.771,-0.178
30.21,0.059,1.418,0.228
30.22,-0.361,1.407,0.048
30.23,0.091,0.364,-0.041
30.24,-0.46,0.937,-0.175
30.25,-0.033,1.387,0.193
30.26,-0.335,1.232,0.046
30.27,-0.084,0.724,-0.099
30.28,-0.419,0.348,-0.127
30.29,-0.096,1.739,0.146
30.3,-0.166,0.761,0.09
30.31,-0.22,1.028,-0.129
30.32,-0.377,0.215,-0.106
30.33,-0.205,1.642,0.195
30.34,-0.175,1.072,0.029
30.35,-0.097,0.608,-0.1
30.36,-0.476,0.705,-0.185
30.37,0.003,1.098,0.228
30.38,-0.36,1.385,0.045
30.39,-0.119,0.331,-0.076
30.4,-0.556,0.952,-0.068
30.41,-0.052,1.015,0.2
30.42,-0.225,1.255,0.012
30.43,-0.232,0.626,-0.111
30.44,-0.425,0.526,-0.025
30.45,-0.103,1.32,0.173
30.46,-0.234,0.811,0.015
30.47,-0.194,0.94,-0.099
30.48,-0.438,0.47,-0.077
30.49,-0.096,1.233,0.164
30.5,-0.236,0.895,-0.005
30.51,-0.183,0.728,-0.182
30.52,-0.311,1.137,-0.134
30.53,0.053,0.778,0.132
30.54,-0.228,1.258,-0.013
30.55,-0.125,0.359,-0.174
30.56,-0.471,1.207,-0.125
30.57,-0.025,0.684,0.11
30.58,-0.213,1.3,-0.045
30.59,-0.259,0.483,-0.152
30.6,-0.351,0.924,-0.132
30.61,-0.184,1.013,0.145
30.62,-0.077,0.853,0.024
30.63,-0.354,0.858,-0.117
30.64,-0.186,0.954,-0.006
30.65,-0.228,1.121,0.201
30.66,-0.103,0.761,0.042
30.67,-0.407,0.831,-0.159
30.68,-0.257,1.098,-0.033
30.69,-0.205,0.74,0.093
30.7,-0.167,1.262,0.008
30.71,-0.185,0.311,-0.242
30.72,-0.19,1.949,-0.019
30.73,-0.039,0.553,0.151
30.74,-0.235,1.055,0.035
30.75,-0.338,0.506,-0.131
30.76,-0.224,1.736,0.074
30.77,-0.191,0.901,0.138
30.78,-0.02,0.597,0.008
30.79,-0.523,0.672,-0.252
30.8,0.007,1.603,0.127
30.81,-0.241,1.19,0.11
30.82,-0.028,0.404,-0.014
30.83,-0.415,0.908,-0.191
30.84,0.018,1.497,0.071
30.85,-0.069,1.139,0.184
30.86,-0.023,0.652,-0.046
30.87,-0.491,0.52,-0.17
30.88,-0.078,1.832,0.139
30.89,-0.075,0.633,0.138
30.9,-0.142,1.083,-0.015
30.91,-0.408,0.307,-0.22
30.92,-0.196,1.885,0.183
30.93,-0.048,0.789,0.135
30.94,-0.137,0.787,-0.054
30.95,-0.364,0.654,-0.176
30.96,-0.125,1.55,0.124
30.97,-0.032,1.161,0.075
30.98,0.01,0.542,-0.055
30.99,-0.537,0.949,-0.142
31.0,-0.068,1.35,0.216
31.01,-0.071,1.241,0.037
31.02,-0.098,0.654,-0.016
31.03,-0.324,0.639,-0.181
31.04,-0.136,1.775,0.14
31.05,-0.005,0.814,0.062
31.06,-0.118,1.035,-0.089
31.07,-0.291,0.179,-0.171
31.08,-0.194,1.86,0.152
31.09,-0.165,0.838,0.072
31.1,-0.136,0.875,-0.075
31.11,-0.355,0.471,-0.165
31.12,-0.1,1.478,0.188
31.13,-0.29,1.315,0.045
31.14,0.012,0.441,-0.063
31.15,-0.515,0.903,-0.115
31.16,-0.113,1.154,0.242
31.17,-0.318,1.405,-0.003
31.18,-0.134,0.477,-0.057
31.19,-0.444,0.612,-0.097
31.2,-0.102,1.325,0.171
31.21,-0.211,0.974,-0.02
31.22,-0.252,0.905,-0.088
31.23,-0.318,0.273,-0.067
31.24,-0.199,1.406,0.17
31.25,-0.14,0.871,0.018
31.26,-0.321,0.828,-0.122
31.27,-0.294,0.615,-0.053
31.28,-0.146,0.982,0.18
31.29,-0.237,1.23,0.028
31.3,-0.206,0.41,-0.166
31.31,-0.393,1.243,-0.028
31.32,-0.015,0.744,0.165
31.33,-0.221,1.283,0.009
31.34,-0.166,0.476,-0.195
31.35,-0.278,1.408,-0.084
31.36,-0.05,0.895,0.138
31.37,-0.094,0.783,-0.032
31.38,-0.332,0.912,-0.183
31.39,-0.216,1.131,-0.031
31.4,-0.194,1.129,0.133
31.41,-0.094,0.625,0.034
31.42,-0.386,0.956,-0.182
31.43,-0.209,1.353,0.007
31.44,-0.235,0.825,0.111
31.45,-0.109,0.99,0.002
31.46,-0.277,0.461,-0.153
31.47,-0.313,1.997,0.054
31.48,-0.043,0.567,0.164
31.49,-0.286,1.12,0.057
31.5,-0.265,0.393,-0.122
31.51,-0.369,1.832,0.063
31.52,-0.148,0.77,0.174
31.53,-0.127,0.722,0.032
31.54,-0.373,0.809,-0.199
31.55,-0.099,1.495,0.065
31.56,-0.208,1.07,0.149
31.57,0.02,0.484,-0.006
31.58,-0.501,0.908,-0.218
31.59,0.088,1.449,0.072
31.6,-0.214,1.174,0.109
31.61,0.03,0.587,-0.013
31.62,-0.514,0.747,-0.194
31.63,0.021,1.673,0.075
31.64,-0.08,0.788,0.068
31.65,-0.082,1.03,-0.067
31.66,-0.378,0.269,-0.212
31.67,-0.177,1.91,0.204
31.68,-0.045,0.662,0.143
31.69,-0.156,0.948,-0.047
31.7,-0.372,0.462,-0.183
31.71,-0.102,1.674,0.142
31.72,-0.102,1.06,0.047
31.73,0.025,0.514,-0.063
31.74,-0.517,0.892,-0.148
31.75,-0.044,1.295,0.182
31.76,-0.279,1.339,0.075
31.77,-0.015,0.427,-0.055
31.78,-0.494,0.716,-0.159
31.79,-0.039,1.582,0.11
31.8,-0.233,0.983,0.036
31.81,-0.109,0.911,-0.132
31.82,-0.381,0.187,-0.166
31.83,-0.196,1.811,0.172
31.84,-0.188,0.851,0.084
31.85,-0.204,0.832,-0.075
31.86,-0.346,0.353,-0.153
31.87,-0.162,1.446,0.182
31.88,-0.259,1.15,-0.017
31.89,-0.117,0.481,-0.102
31.9,-0.455,0.809,-0.089
31.91,-0.11,1.141,0.279
31.92,-0.342,1.469,0.065
31.93,-0.158,0.377,-0.101
31.94,-0.353,0.74,-0.091
31.95,-0.068,1.162,0.18
31.96,-0.187,1.214,-0.008
31.97,-0.218,0.72,-0.136
31.98,-0.357,0.5,-0.035
31.99,-0.122,1.351,0.148
32.0,-0.164,0.664,0.084
32.01,-0.296,1.046,-0.138
32.02,-0.365,0.463,-0.058
32.03,-0.114,1.234,0.164
32.04,-0.233,1.133,-0.038
32.05,-0.143,0.483,-0.145
32.06,-0.314,1.296,-0.005
32.07,-0.046,0.674,0.221
32.08,-0.333,1.317,0.043
32.09,-0.181,0.39,-0.139
32.1,-0.376,1.291,-0.044
32.11,-0.062,0.864,0.191
32.12,-0.138,0.991,0.044
32.13,-0.382,0.832,-0.202
32.14,-0.231,0.99,0.007
32.15,-0.211,1.125,0.157
32.16,-0.09,0.641,0.052
32.17,-0.392,0.904,-0.105
32.18,-0.208,1.387,-0.054
32.19,-0.081,1.008,0.17
32.2,-0.106,0.77,-0.026
32.21,-0.374,0.704,-0.197
32.22,-0.26,1.587,0.007
32.23,-0.091,0.567,0.106
32.24,-0.221,1.269,0.054
32.25,-0.335,0.307,-0.183
32.26,-0.301,1.804,0.016
32.27,-0.111,0.632,0.122
32.28,-0.188,0.931,0.007
32.29,-0.331,0.682,-0.163
32.3,-0.178,1.491,0.034
32.31,-0.09,1.131,0.188
32.32,-0.041,0.484,0.008
32.33,-0.521,1.005,-0.176
32.34,-0.076,1.487,0.067
32.35,-0.2,1.034,0.128
32.36,-0.062,0.674,0.005
32.37,-0.436,0.625,-0.207
32.38,-0.148,1.965,0.055
32.39,-0.185,0.548,0.097
32.4,-0.097,0.799,-0.023
32.41,-0.439,0.393,-0.139
32.42,-0.125,1.907,0.097
32.43,0.029,0.627,0.181
32.44,-0.121,1.034,-0.042
32.45,-0.455,0.31,-0.222
32.46,-0.111,1.756,0.09
32.47,-0.052,0.954,0.125
32.48,-0.084,0.655,-0.034
32.49,-0.498,0.842,-0.217
32.5,-0.098,1.37,0.194
32.51,-0.094,1.233,0.089
32.52,-0.033,0.503,-0.033
32.53,-0.417,0.907,-0.254
32.54,-0.078,1.472,0.122
32.55,-0.076,1.086,0.075
32.56,-0.091,0.791,-0.042
32.57,-0.438,0.395,-0.116
32.58,-0.19,1.874,0.205
32.59,-0.059,0.611,0.141
32.6,-0.123,1.102,-0.055
32.61,-0.366,0.283,-0.147
32.62,-0.101,1.805,0.107
32.63,-0.092,0.905,0.073
32.64,-0.019,0.689,-0.067
32.65,-0.451,0.75,-0.187
32.66,-0.013,1.367,0.1
32.67,-0.344,1.303,0.086
32.68,-0.007,0.356,-0.063
32.69,-0.493,0.885,-0.212
32.7,-0.094,1.335,0.163
32.71,-0.256,1.221,0.028
32.72,-0.208,0.65,-0.11
32.73,-0.404,0.401,-0.13
32.74,-0.194,1.633,0.163
32.75,-0.125,0.758,0.069
32.76,-0.234,0.969,-0.122
32.77,-0.36,0.186,-0.139
32.78,-0.196,1.566,0.203
32.79,-0.287,0.967,0.037
32.8,-0.132,0.661,-0.102
32.81,-0.527,0.667,-0.138
32.82,-0.073,1.185,0.271
32.83,-0.381,1.461,0.044
32.84,-0.059,0.286,-0.045
32.85,-0.482,0.903,-0.101
32.86,-0.082,1.072,0.193
32.87,-0.249,1.301,-0.044
32.88,-0.166,0.651,-0.109
32.89,-0.394,0.455,-0.074
32.9,-0.136,1.364,0.204
32.91,-0.191,0.921,-0.028
32.92,-0.237,0.935,-0.104
32.93,-0.513,0.267,-0.042
32.94,-0.091,1.419,0.221
32.95,-0.288,0.949,-0.02
32.96,-0.21,0.71,-0.116
32.97,-0.295,0.989,-0.083
32.98,-0.059,0.826,0.156
32.99,-0.176,1.198,-0.014
33.0,-0.177,0.415,-0.185
33.01,-0.243,1.506,-0.087
33.02,0.02,0.724,0.177
33.03,-0.193,1.145,0.012
33.04,-0.308,0.609,-0.192
33.05,-0.287,0.932,-0.055
33.06,-0.162,1.063,0.133
33.07,-0.122,0.775,0.042
33.08,-0.347,0.945,-0.186
33.09,-0.158,1.087,-0.071
33.1,-0.14,1.14,0.186
33.11,-0.076,0.684,0.019
33.12,-0.4,0.895,-0.134
33.13,-0.19,1.407,-0.049
33.14,-0.205,0.755,0.176
33.15,-0.105,1.131,0.038
33.16,-0.312,0.488,-0.252
33.17,-0.239,1.827,-0.022
33.18,-0.071,0.593,0.123
33.19,-0.158,1.152,0.024
33.2,-0.296,0.307,-0.206
33.21,-0.287,1.916,0.103
33.22,-0.114,0.801,0.18
33.23,-0.178,0.78,0.027
33.24,-0.349,0.687,-0.232
33.25,-0.122,1.646,0.001
33.26,-0.147,1.019,0.07
33.27,0.016,0.507,0.001
33.28,-0.413,0.973,-0.2
33.29,-0.102,1.556,0.073
33.3,-0.199,0.947,0.159
33.31,-0.039,0.712,0.012
33.32,-0.405,0.614,-0.212
33.33,-0.102,1.766,0.057
33.34,-0.055,0.735,0.121
33.35,-0.25,1.028,0.013
33.36,-0.281,0.26,-0.228
33.37,-0.273,1.975,0.08
33.38,-0.02,0.726,0.188
33.39,-0.176,0.82,-0.008
33.4,-0.471,0.63,-0.207
33.41,-0.089,1.65,0.119
33.42,-0.152,1.112,0.12
33.43,0.016,0.451,-0.047
33.44,-0.535,0.971,-0.217
33.45,0.016,1.436,0.043
33.46,-0.148,1.118,0.152
33.47,0.015,0.642,-0.052
33.48,-0.441,0.666,-0.184
33.49,-0.098,1.751,0.042
33.5,-0.035,0.75,0.144
33.51,-0.13,1.046,-0.02
33.52,-0.459,0.29,-0.18
33.53,-0.208,1.928,0.171
33.54,0.0,0.731,0.128
33.55,-0.159,0.915,-0.054
33.56,-0.337,0.532,-0.233
33.57,-0.047,1.601,0.168
33.58,-0.026,1.169,0.087
33.59,-0.046,0.468,-0.032
33.6,-0.462,0.988,-0.179
33.61,-0.016,1.417,0.176
33.62,-0.19,1.118,0.091
33.63,0.014,0.636,-0.046
33.64,-0.512,0.719,-0.194
33.65,-0.015,1.662,0.169
33.66,-0.028,0.815,0.11
33.67,-0.092,0.973,-0.035
33.68,-0.379,0.26,-0.116
33.69,-0.208,1.874,0.153
33.7,-0.101,0.783,0.085
33.71,-0.077,0.942,-0.074
33.72,-0.373,0.443,-0.187
33.73,-0.041,1.664,0.14
33.74,-0.135,1.122,0.059
33.75,0.009,0.541,-0.065
33.76,-0.483,0.928,-0.15
33.77,-0.065,1.356,0.157
33.78,-0.217,1.354,0.049
33.79,-0.01,0.475,-0.08
33.8,-0.446,0.727,-0.135
33.81,-0.087,1.511,0.143
33.82,-0.233,0.963,0.008
33.83,-0.181,0.904,-0.102
33.84,-0.245,0.2,-0.125
33.85,-0.258,1.666,0.16
33.86,-0.12,0.825,0.047
33.87,-0.263,0.88,-0.125
33.88,-0.314,0.37,-0.148
33.89,-0.167,1.387,0.198
33.9,-0.205,1.234,-0.008
33.91,-0.027,0.41,-0.174
33.92,-0.499,0.919,-0.147
33.93,0.052,0.977,0.213
33.94,-0.38,1.37,0.03
33.95,-0.11,0.418,-0.056
33.96,-0.52,0.775,-0.045
33.97,-0.109,1.149,0.225
33.98,-0.26,1.037,0.037
33.99,-0.303,0.855,-0.133
34.0,-0.361,0.768,-0.091
34.01,-0.13,1.168,0.147
34.02,-0.153,0.804,0.022
34.03,-0.26,0.916,-0.183
34.04,-0.187,1.12,-0.051
34.05,-0.115,1.154,0.235
34.06,-0.257,0.679,0.067
34.07,-0.304,0.881,-0.09
34.08,-0.283,1.51,-0.059
34.09,-0.1,0.782,0.167
34.1,-0.229,1.113,0.028
34.11,-0.22,0.448,-0.207
34.12,-0.375,1.608,-0.007
34.13,-0.09,0.55,0.098
34.14,-0.157,1.199,0.013
34.15,-0.233,0.447,-0.227
34.16,-0.15,1.691,-0.033
34.17,-0.168,0.946,0.121
34.18,-0.032,0.665,0.068
34.19,-0.423,1.037,-0.178
34.2,-0.113,1.395,0.089
34.21,-0.209,1.107,0.188
34.22,-0.079,0.6,0.02
34.23,-0.359,0.82,-0.167
34.24,-0.174,1.718,0.069
34.25,-0.174,0.708,0.197
34.26,-0.101,0.982,-0.001
34.27,-0.401,0.299,-0.171
34.28,-0.205,1.986,0.165
34.29,-0.14,0.602,0.111
34.3,-0.125,0.977,0.022
34.31,-0.356,0.395,-0.224
34.32,-0.068,1.831,0.082
34.33,-0.114,0.89,0.086
34.34,-0.0,0.578,-0.043
34.35,-0.436,0.876,-0.199
34.36,0.002,1.447,0.095
34.37,-0.222,1.172,0.129
34.38,0.051,0.497,-0.052
34.39,-0.501,0.855,-0.205
34.4,0.055,1.635,0.053
34.41,-0.172,0.841,0.107
34.42,-0.061,0.903,-0.072
34.43,-0.353,0.333,-0.188
34.44,-0.115,1.892,0.137
34.45,0.008,0.656,0.138
34.46,-0.195,0.988,-0.033
34.47,-0.444,0.312,-0.149
34.48,-0.177,1.768,0.151
34.49,-0.035,0.897,0.103
34.5,-0.132,0.61,-0.012
34.51,-0.554,0.864,-0.174
34.52,-0.096,1.41,0.196
34.53,-0.177,1.247,0.115
34.54,0.029,0.485,-0.001
34.55,-0.52,0.906,-0.16
34.56,-0.088,1.45,0.163
34.57,-0.291,1.108,0.14
34.58,-0.09,0.79,-0.06
34.59,-0.433,0.325,-0.11
34.6,-0.119,1.928,0.127
34.61,0.05,0.622,0.062
34.62,-0.206,1.096,-0.095
34.63,-0.362,0.254,-0.134
34.64,-0.165,1.717,0.154
34.65,-0.137,1.131,0.057
34.66,-0.039,0.533,-0.066
34.67,-0.337,0.839,-0.223
34.68,-0.083,1.289,0.174
34.69,-0.277,1.363,0.057
34.7,-0.074,0.377,-0.085
34.71,-0.436,0.811,-0.167
34.72,-0.056,1.316,0.212
34.73,-0.257,1.162,0.07
34.74,-0.098,0.762,-0.098
34.75,-0.464,0.376,-0.098
34.76,-0.215,1.66,0.245
34.77,-0.25,0.881,0.033
34.78,-0.14,0.946,-0.065
34.79,-0.424,0.311,-0.13
34.8,-0.131,1.287,0.147
34.81,-0.148,0.778,0.042
34.82,-0.351,0.899,-0.144
34.83,-0.291,0.698,-0.032
34.84,-0.093,0.991,0.122
34.85,-0.058,1.244,0.197
34.86,-0.387,1.355,0.111
34.87,-0.081,0.412,-0.086
34.88,-0.582,0.778,-0.069
34.89,-0.166,1.176,0.258
34.9,-0.307,1.151,0.014
34.91,-0.199,0.772,-0.079
34.92,-0.426,0.432,-0.09
34.93,-0.083,1.331,0.169
34.94,-0.149,0.709,-0.013
34.95,-0.295,1.02,-0.126
34.96,-0.388,0.509,-0.084
34.97,-0.124,1.183,0.181
34.98,-0.221,1.094,0.029
34.99,-0.216,0.5,-0.183
35.0,-0.368,1.047,-0.1
35.01,0.016,0.747,0.14
35.02,-0.32,1.436,0.01
35.03,-0.134,0.266,-0.129
35.04,-0.367,1.273,-0.066
35.05,0.028,0.827,0.145
35.06,-0.245,1.02,0.033
35.07,-0.258,0.769,-0.189
35.08,-0.328,0.752,-0.018
35.09,-0.146,1.197,0.178
35.1,-0.162,0.744,0.04
35.11,-0.361,1.028,-0.139
35.12,-0.345,0.772,-0.007
35.13,-0.16,1.012,0.155
35.14,-0.231,1.006,0.027
35.15,-0.209,0.613,-0.171
35.16,-0.26,1.799,-0.034
35.17,0.045,0.638,0.139
35.18,-0.255,1.115,0.007
35.19,-0.281,0.367,-0.192
35.2,-0.336,1.86,0.028
35.21,-0.115,0.683,0.155
35.22,-0.142,0.927,0.022
35.23,-0.343,0.703,-0.261
35.24,-0.137,1.552,0.094
35.25,-0.171,1.036,0.156
35.26,-0.011,0.451,0.033
35.27,-0.516,0.939,-0.189
35.28,-0.005,1.468,0.091
35.29,-0.244,1.081,0.179
35.3,-0.037,0.685,0.026
35.31,-0.493,0.615,-0.184
35.32,-0.077,1.936,0.146
35.33,-0.225,0.592,0.14
35.34,-0.149,1.064,0.039
35.35,-0.447,0.227,-0.186
35.36,-0.146,1.993,0.166
35.37,-0.186,0.663,0.144
35.38,-0.158,0.848,-0.024
35.39,-0.425,0.464,-0.215
35.4,-0.027,1.663,0.07
35.41,-0.267,1.061,0.067
35.42,0.068,0.517,-0.037
35.43,-0.563,0.952,-0.214
35.44,0.059,1.392,0.146
35.45,-0.243,1.137,0.11
35.46,-0.013,0.58,-0.037
35.47,-0.47,0.696,-0.184
35.48,-0.08,1.697,0.081
35.49,0.013,0.798,0.09
35.5,-0.056,0.809,-0.101
35.51,-0.226,0.334,-0.17
35.52,-0.188,1.803,0.107
35.53,0.019,0.787,-0.006
35.54,-0.203,1.04,-0.142
35.55,-0.286,0.21,-0.147
35.56,-0.178,1.674,0.148
35.57,-0.169,1.001,-0.023
35.58,-0.112,0.671,-0.123
35.59,-0.499,0.761,-0.102
35.6,-0.083,1.172,0.229
35.61,-0.399,1.491,-0.01
35.62,-0.064,0.322,-0.063
35.63,-0.506,0.938,-0.067
35.64,-0.035,0.968,0.219
35.65,-0.313,1.234,0.005
35.66,-0.298,0.785,-0.148
35.67,-0.447,0.396,-0.014
35.68,-0.174,1.441,0.209
35.69,-0.221,0.938,0.045
35.7,-0.307,0.854,-0.105
35.71,-0.393,0.459,0.016
35.72,-0.072,1.193,0.143
35.73,-0.234,1.056,-0.002
35.74,-0.186,0.674,-0.17
35.75,-0.159,1.62,-0.125
35.76,0.028,0.704,0.13
35.77,-0.179,1.098,-0.015
35.78,-0.322,0.477,-0.21
35.79,-0.288,1.72,0.074
35.8,-0.202,0.62,0.124
35.81,-0.193,1.09,0.04
35.82,-0.335,0.561,-0.217
35.83,-0.224,1.604,0.093
35.84,-0.221,0.924,0.146
35.85,-0.069,0.504,0.017
35.86,-0.434,0.948,-0.147
35.87,-0.069,1.389,0.057
35.88,-0.172,1.199,0.175
35.89,-0.091,0.612,0.046
35.9,-0.52,0.733,-0.168
35.91,-0.121,1.825,0.154
35.92,-0.206,0.633,0.097
35.93,-0.135,1.017,0.006
35.94,-0.418,0.295,-0.204
35.95,-0.115,1.931,0.134
35.96,-0.033,0.71,0.126
35.97,-0.221,0.858,-0.028
35.98,-0.376,0.419,-0.185
35.99,-0.159,1.68,0.103
36.0,-0.022,1.064,0.079
36.01,-0.04,0.583,-0.069
36.02,-0.576,0.918,-0.155
36.03,-0.005,1.394,0.271
36.04,-0.22,1.241,0.104
36.05,-0.022,0.594,0.023
36.06,-0.431,0.759,-0.168
36.07,-0.127,1.647,0.126
36.08,-0.093,0.959,0.055
36.09,-0.09,0.929,-0.129
36.1,-0.274,0.225,-0.171
36.11,-0.198,1.779,0.114
36.12,-0.099,0.765,0.05
36.13,-0.189,0.982,-0.137
36.14,-0.433,0.323,-0.145
36.15,-0.124,1.453,0.227
36.16,-0.327,1.181,0.044
36.17,-0.099,0.473,-0.088
36.18,-0.561,0.888,-0.11
36.19,-0.019,0.935,0.188
36.2,-0.377,1.441,-0.02
36.21,-0.125,0.397,-0.066
36.22,-0.592,0.878,-0.026
36.23,0.001,1.064,0.193
36.24,-0.316,0.991,0.063
36.25,-0.317,0.917,-0.149
36.26,-0.457,0.366,0.016
36.27,-0.167,1.431,0.174
36.28,-0.212,0.865,0.044
36.29,-0.309,0.883,-0.116
36.3,-0.125,1.28,-0.035
36.31,-0.161,1.014,0.126
36.32,-0.041,0.711,-0.012
36.33,-0.385,0.811,-0.197
36.34,-0.155,1.692,0.006
36.35,-0.122,0.766,0.126
36.36,-0.111,1.025,-0.005
36.37,-0.458,0.365,-0.206
36.38,-0.187,1.988,0.092
36.39,-0.222,0.53,0.171
36.4,-0.207,1.087,0.054
36.41,-0.363,0.432,-0.169
36.42,-0.143,1.678,0.123
36.43,-0.165,0.979,0.157
36.44,-0.082,0.489,-0.045
36.45,-0.404,0.927,-0.2
36.46,-0.031,1.385,0.048
36.47,-0.13,1.206,0.159
36.48,0.021,0.528,-0.043
36.49,-0.55,0.825,-0.178
36.5,-0.023,1.68,0.146
36.51,-0.167,0.793,0.101
36.52,-0.124,0.908,-0.044
36.53,-0.326,0.356,-0.2
36.54,-0.159,1.903,0.14
36.55,-0.016,0.623,0.13
36.56,-0.26,0.984,-0.034
36.57,-0.37,0.345,-0.139
36.58,-0.238,1.708,0.101
36.59,-0.065,0.986,0.078
36.6,-0.096,0.544,-0.057
36.61,-0.532,0.851,-0.177
36.62,-0.043,1.397,0.189
36.63,-0.167,1.352,0.044
36.64,-0.058,0.469,-0.064
36.65,-0.38,0.832,-0.228
36.66,-0.044,1.593,0.097
36.67,-0.141,1.012,-0.01
36.68,-0.118,0.865,-0.104
36.69,-0.28,0.238,-0.145
36.7,-0.211,1.776,0.189
36.71,-0.138,0.823,0.054
36.72,-0.195,0.972,-0.139
36.73,-0.409,0.272,-0.141
36.74,-0.134,1.566,0.199
36.75,-0.235,1.05,-0.025
36.76,-0.104,0.627,-0.105
36.77,-0.436,0.737,-0.151
36.78,-0.114,1.098,0.254
36.79,-0.381,1.573,0.012
36.8,-0.086,0.286,-0.074
36.81,-0.429,0.916,-0.084
36.82,-0.017,1.006,0.153
36.83,-0.294,1.135,0.014
36.84,-0.259,0.845,-0.17
36.85,-0.411,0.433,-0.023
36.86,-0.081,1.369,0.145
36.87,-0.203,0.83,-0.0
36.88,-0.246,0.99,-0.139
36.89,-0.329,0.665,-0.06
36.9,-0.086,1.089,0.164
36.91,-0.295,1.005,-0.012
36.92,-0.206,0.625,-0.146
36.93,-0.337,1.701,-0.108
36.94,0.024,0.658,0.162
36.95,-0.258,1.16,0.019
36.96,-0.286,0.452,-0.212
36.97,-0.301,1.808,0.032
36.98,-0.097,0.632,0.124
36.99,-0.254,0.984,0.042
37.0,-0.333,0.604,-0.198
37.01,-0.207,1.596,0.038
37.02,-0.219,0.993,0.106
37.03,-0.094,0.501,0.011
37.04,-0.428,1.029,-0.206
37.05,-0.105,1.423,0.108
37.06,-0.24,1.026,0.16
37.07,-0.081,0.658,0.015
37.08,-0.49,0.653,-0.159
37.09,-0.097,1.91,0.139
37.1,-0.222,0.887,0.133
37.11,-0.045,0.893,-0.085
37.12,-0.454,0.387,-0.187
37.13,-0.078,1.878,0.142
37.14,-0.011,0.596,0.087
37.15,-0.17,1.038,-0.077
37.16,-0.385,0.285,-0.128
37.17,-0.167,1.758,0.107
37.18,-0.062,0.946,0.073
37.19,-0.038,0.673,-0.07
37.2,-0.451,0.797,-0.154
37.21,0.02,1.417,0.139
37.22,-0.202,1.308,0.02
37.23,0.049,0.46,-0.116
37.24,-0.429,0.88,-0.211
37.25,-0.067,1.393,0.172
37.26,-0.273,1.204,0.037
37.27,-0.07,0.745,-0.116
37.28,-0.393,0.326,-0.147
37.29,-0.217,1.635,0.211
37.3,-0.212,0.858,0.048
37.31,-0.361,0.955,-0.125
37.32,-0.348,0.183,-0.036
37.33,-0.251,1.53,0.258
37.34,-0.262,1.099,0.038
37.35,-0.122,0.61,-0.095
37.36,-0.494,0.799,-0.064
37.37,0.072,0.908,0.137
37.38,-0.296,1.447,-0.041
37.39,-0.11,0.299,-0.17
37.4,-0.405,1.125,-0.042
37.41,0.015,0.807,0.115
37.42,-0.233,1.215,0.001
37.43,-0.238,0.66,-0.193
37.44,-0.255,0.872,-0.063
37.45,-0.141,1.101,0.118
37.46,-0.086,0.726,-0.009
37.47,-0.362,1.027,-0.197
37.48,-0.122,1.206,-0.032
37.49,-0.174,0.979,0.137
37.5,-0.103,0.809,0.013
37.51,-0.404,0.709,-0.135
37.52,-0.166,1.77,0.043
37.53,-0.153,0.635,0.136
37.54,-0.159,1.094,0.005
37.55,-0.375,0.348,-0.202
37.56,-0.235,1.99,0.13
37.57,-0.221,0.537,0.141
37.58,-0.16,0.959,0.016
37.59,-0.392,0.502,-0.206
37.6,-0.025,1.612,0.09
37.61,-0.101,1.091,0.171
37.62,-0.061,0.398,-0.073
37.63,-0.448,0.919,-0.198
37.64,0.026,1.402,0.05
37.65,-0.136,1.238,0.082
37.66,-0.045,0.592,-0.064
37.67,-0.472,0.691,-0.17
37.68,-0.085,1.719,0.139
37.69,-0.114,0.798,0.141
37.7,-0.209,0.917,-0.055
37.71,-0.337,0.275,-0.122
37.72,-0.259,1.932,0.157
37.73,-0.003,0.754,0.066
37.74,-0.191,0.943,-0.088
37.75,-0.32,0.378,-0.12
37.76,-0.133,1.655,0.107
37.77,-0.118,1.125,0.033
37.78,-0.011,0.58,-0.098
37.79,-0.487,0.819,-0.066
37.8,-0.13,1.261,0.227
37.81,-0.289,1.474,0.056
37.82,-0.102,0.388,-0.073
37.83,-0.375,0.687,-0.143
37.84,-0.209,1.365,0.18
37.85,-0.223,1.061,-0.029
37.86,-0.228,0.903,-0.108
37.87,-0.367,0.254,-0.037
37.88,-0.135,1.409,0.181
37.89,-0.174,0.85,0.012
37.9,-0.317,0.873,-0.106
37.91,-0.182,0.826,-0.005
37.92,-0.173,1.124,0.173
37.93,-0.209,0.823,0.019
37.94,-0.266,0.759,-0.195
37.95,-0.268,1.563,-0.06
37.96,-0.04,0.67,0.114
37.97,-0.292,1.186,0.002
37.98,-0.18,0.384,-0.201
37.99,-0.319,1.959,0.06
38.0,-0.02,0.593,0.162
38.01,-0.233,0.971,0.025
38.02,-0.396,0.489,-0.22
38.03,-0.211,1.735,0.142
38.04,-0.245,0.978,0.157
38.05,-0.058,0.537,0.021
38.06,-0.56,0.923,-0.192
38.07,0.006,1.434,0.122
38.08,-0.187,1.144,0.116
38.09,0.004,0.537,-0.023
38.1,-0.438,0.804,-0.221
38.11,-0.028,1.653,0.047
38.12,-0.048,0.796,0.102
38.13,-0.101,0.986,-0.047
38.14,-0.439,0.233,-0.175
38.15,-0.181,1.933,0.228
38.16,-0.036,0.643,0.147
38.17,-0.167,0.965,-0.037
38.18,-0.427,0.408,-0.127
38.19,-0.087,1.7,0.138
38.2,-0.113,1.027,0.042
38.21,0.007,0.598,-0.083
38.22,-0.523,0.866,-0.153
38.23,-0.018,1.321,0.16
38.24,-0.387,1.418,0.088
38.25,-0.002,0.429,-0.057
38.26,-0.472,0.725,-0.134
38.27,-0.106,1.372,0.173
38.28,-0.24,1.099,0.005
38.29,-0.272,0.85,-0.151
38.3,-0.298,0.21,-0.084
38.31,-0.273,1.606,0.231
38.32,-0.226,0.872,0.011
38.33,-0.256,0.929,-0.093
38.34,-0.383,0.369,-0.062
38.35,-0.08,1.27,0.185
38.36,-0.267,1.157,-0.045
38.37,-0.072,0.525,-0.133
38.38,-0.495,1.058,-0.074
38.39,0.148,0.725,0.113
38.4,-0.291,1.42,-0.066
38.41,-0.13,0.381,-0.163
38.42,-0.335,1.193,-0.073
38.43,-0.039,0.804,0.104
38.44,-0.197,1.055,-0.025
38.45,-0.291,0.768,-0.193
38.46,-0.191,1.204,0.005
38.47,-0.176,1.082,0.135
38.48,-0.125,0.606,0.062
38.49,-0.388,1.061,-0.12
38.5,-0.164,1.464,0.071
38.51,-0.165,0.898,0.137
38.52,-0.102,0.775,0.01
38.53,-0.378,0.571,-0.181
38.54,-0.197,1.911,0.142
38.55,-0.099,0.552,0.09
38.56,-0.196,1.076,0.005
38.57,-0.352,0.229,-0.269
38.58,-0.064,2.0,0.08
38.59,-0.128,0.671,0.044
38.6,-0.061,0.735,-0.055
38.61,-0.443,0.63,-0.243
38.62,-0.012,1.513,0.108
38.63,-0.184,1.13,0.14
38.64,0.074,0.536,-0.035
38.65,-0.585,0.918,-0.17
38.66,-0.016,1.449,0.22
38.67,-0.228,1.2,0.09
38.68,-0.032,0.689,-0.041
38.69,-0.493,0.602,-0.107
38.7,-0.056,1.797,0.235
38.71,-0.084,1.1,0.06
38.72,-0.108,0.907,-0.112
38.73,-0.312,0.241,-0.14
38.74,-0.215,1.797,0.122
38.75,-0.11,0.843,-0.004
38.76,-0.193,0.953,-0.149
38.77,-0.356,0.279,-0.121
38.78,-0.207,1.403,0.202
38.79,-0.316,1.171,-0.013
38.8,-0.103,0.541,-0.094
38.81,-0.486,0.859,-0.03
38.82,-0.04,0.866,0.196
38.83,-0.379,1.515,-0.005
38.84,-0.208,0.255,-0.093
38.85,-0.375,1.025,-0.039
38.86,-0.042,0.865,0.134
38.87,-0.287,1.073,0.003
38.88,-0.303,0.811,-0.186
38.89,-0.17,1.184,-0.005
38.9,-0.144,1.136,0.192
38.91,-0.139,0.58,0.02
38.92,-0.486,1.046,-0.105
38.93,-0.164,1.463,0.0
38.94,-0.232,0.96,0.156
38.95,-0.126,0.764,0.012
38.96,-0.436,0.675,-0.146
38.97,-0.242,1.974,0.07
38.98,-0.059,0.541,0.129
38.99,-0.11,1.115,0.002
39.0,-0.307,0.336,-0.269
39.01,-0.166,1.926,0.054
39.02,-0.041,0.792,0.124
39.03,-0.187,0.766,-0.01
39.04,-0.43,0.54,-0.208
39.05,-0.096,1.693,0.117
39.06,-0.117,1.147,0.138
39.07,-0.054,0.426,-0.035
39.08,-0.473,0.924,-0.23
39.09,-0.022,1.501,0.104
39.1,-0.228,1.088,0.183
39.11,-0.074,0.603,-0.015
39.12,-0.494,0.652,-0.158
39.13,-0.099,1.76,0.15
39.14,-0.019,0.708,0.109
39.15,-0.129,1.002,-0.041
39.16,-0.403,0.215,-0.159
39.17,-0.24,1.868,0.157
39.18,-0.012,0.794,0.101
39.19,-0.134,0.874,-0.096
39.2,-0.384,0.488,-0.178
39.21,-0.003,1.582,0.164
39.22,-0.094,1.229,0.028
39.23,0.012,0.504,-0.128
39.24,-0.544,0.908,-0.201
39.25,0.112,1.341,0.133
39.26,-0.243,1.382,0.015
39.27,0.015,0.502,-0.065
39.28,-0.509,0.649,-0.181
39.29,-0.042,1.561,0.115
39.3,-0.144,0.968,-0.026
39.31,-0.191,0.963,-0.143
39.32,-0.417,0.143,-0.195
39.33,-0.059,1.714,0.137
39.34,-0.196,0.892,-0.03
39.35,-0.084,0.895,-0.121
39.36,-0.454,0.417,-0.164
39.37,-0.12,1.348,0.258
39.38,-0.339,1.412,0.007
39.39,-0.036,0.444,-0.067
39.4,-0.546,0.87,-0.072
39.41,-0.017,0.979,0.233
39.42,-0.336,1.511,0.003
39.43,-0.211,0.391,-0.029
39.44,-0.468,0.707,-0.003
39.45,-0.118,1.156,0.178
39.46,-0.219,1.087,0.005
39.47,-0.203,0.809,-0.121
39.48,-0.406,0.411,-0.022
39.49,-0.093,1.339,0.127
39.5,-0.247,0.854,-0.025
39.51,-0.315,0.989,-0.156
39.52,-0.201,1.193,0.057
39.53,-0.176,1.0,0.16
39.54,-0.184,0.791,-0.002
39.55,-0.317,0.782,-0.204
39.56,-0.25,1.805,0.034
39.57,-0.107,0.596,0.108
39.58,-0.23,1.097,0.069
39.59,-0.299,0.332,-0.191
39.6,-0.361,1.923,0.162
39.61,-0.152,0.608,0.169
39.62,-0.171,0.93,0.055
39.63,-0.333,0.494,-0.217
39.64,-0.085,1.704,0.093
39.65,-0.163,1.033,0.078
39.66,0.047,0.486,-0.034
39.67,-0.446,0.922,-0.231
39.68,-0.004,1.563,0.115
39.69,-0.305,1.007,0.094
39.7,0.029,0.63,0.001
39.71,-0.528,0.758,-0.185
39.72,-0.002,1.786,0.141
39.73,-0.264,0.74,0.133
39.74,-0.094,0.891,-0.011
39.75,-0.392,0.324,-0.175
39.76,-0.114,1.933,0.115
39.77,-0.003,0.692,0.098
39.78,-0.117,0.958,-0.123
39.79,-0.425,0.405,-0.179
39.8,-0.108,1.69,0.212
39.81,-0.091,1.057,0.167
39.82,-0.058,0.561,-0.058
39.83,-0.452,0.907,-0.153
39.84,-0.0,1.426,0.19
39.85,-0.125,1.301,0.07
39.86,-0.01,0.497,-0.076
39.87,-0.388,0.798,-0.199
39.88,-0.049,1.613,0.094
39.89,-0.129,0.952,0.053
39.9,-0.128,0.887,-0.102
39.91,-0.348,0.198,-0.112
39.92,-0.222,1.771,0.153
39.93,-0.193,0.838,0.048
39.94,-0.175,0.902,-0.148
39.95,-0.353,0.308,-0.205
39.96,-0.163,1.508,0.198
39.97,-0.272,1.168,0.03
39.98,-0.116,0.503,-0.128
39.99,-0.472,0.824,-0.128
40.0,-0.071,1.061,0.236
40.01,-0.317,1.498,0.04
40.02,-0.126,0.347,-0.076
40.03,-0.481,0.808,-0.067
40.04,-0.115,1.099,0.198
40.05,-0.241,1.149,-0.0
40.06,-0.287,0.795,-0.082
40.07,-0.334,0.365,-0.023
40.08,-0.221,1.363,0.162
40.09,-0.163,0.851,0.039
40.1,-0.293,0.894,-0.099
40.11,-0.387,0.609,-0.058
40.12,-0.063,1.072,0.135
40.13,-0.223,1.116,-0.034
40.14,-0.191,0.56,-0.165
40.15,-0.354,1.103,-0.109
40.16,0.038,0.698,0.095
40.17,-0.208,1.409,-0.033
40.18,-0.197,0.344,-0.239
40.19,-0.278,1.519,-0.036
40.2,-0.098,0.74,0.102
40.21,-0.225,1.025,0.046
40.22,-0.302,0.691,-0.16
40.23,-0.199,1.494,-0.011
40.24,-0.183,1.029,0.116
40.25,-0.039,0.566,0.04
40.26,-0.514,0.982,-0.187
40.27,-0.127,1.469,0.036
40.28,-0.34,0.888,0.144
40.29,0.017,0.819,0.013
40.3,-0.44,0.584,-0.187
40.31,0.057,1.685,0.072
40.32,-0.203,0.827,0.128
40.33,-0.076,0.849,-0.004
40.34,-0.453,0.348,-0.153
40.35,-0.087,1.914,0.091
40.36,-0.019,0.677,0.141
40.37,-0.15,0.971,-0.059
40.38,-0.46,0.3,-0.165
40.39,-0.096,1.788,0.114
40.4,-0.107,0.95,0.12
40.41,-0.099,0.594,-0.036
40.42,-0.493,0.877,-0.175
40.43,-0.064,1.403,0.215
40.44,-0.196,1.262,0.114
40.45,0.003,0.457,-0.026
40.46,-0.482,0.889,-0.178
40.47,-0.115,1.472,0.169
40.48,-0.183,1.052,0.086
40.49,-0.124,0.847,-0.115
40.5,-0.315,0.281,-0.126
40.51,-0.229,1.86,0.168
40.52,-0.053,0.755,0.065
40.53,-0.236,1.056,-0.038
40.54,-0.346,0.227,-0.142
40.55,-0.199,1.701,0.181
40.56,-0.22,1.112,0.008
40.57,-0.074,0.608,-0.079
40.58,-0.449,0.733,-0.147
40.59,-0.008,1.156,0.197
40.6,-0.34,1.464,-0.019
40.61,-0.1,0.413,-0.094
40.62,-0.512,0.767,-0.108
40.63,-0.075,1.141,0.264
40.64,-0.31,1.3,-0.003
40.65,-0.222,0.648,-0.1
40.66,-0.419,0.385,-0.037
40.67,-0.163,1.418,0.204
40.68,-0.196,0.846,0.018
40.69,-0.308,0.897,-0.125
40.7,-0.321,0.654,-0.029
40.71,-0.156,1.158,0.19
40.72,-0.179,0.905,0.008
40.73,-0.28,0.714,-0.111
40.74,-0.343,1.191,-0.093
40.75,-0.034,0.707,0.153
40.76,-0.221,1.274,0.004
40.77,-0.189,0.337,-0.229
40.78,-0.295,1.567,-0.08
40.79,-0.04,0.67,0.116
40.8,-0.184,1.095,-0.032
40.81,-0.269,0.582,-0.215
40.82,-0.252,1.428,-0.019
40.83,-0.152,1.007,0.111
40.84,-0.165,0.641,0.091
40.85,-0.369,1.0,-0.21
40.86,-0.153,1.275,-0.003
40.87,-0.257,0.952,0.076
40.88,-0.147,0.75,0.036
40.89,-0.328,0.724,-0.164
40.9,-0.315,1.84,0.016
40.91,-0.193,0.539,0.146
40.92,-0.202,1.133,0.09
40.93,-0.344,0.249,-0.217
40.94,-0.232,1.998,0.179
40.95,-0.165,0.582,0.109
40.96,-0.079,0.926,0.027
40.97,-0.478,0.475,-0.212
40.98,0.014,1.754,0.104
40.99,-0.219,0.966,0.132
41.0,-0.012,0.49,-0.049
41.01,-0.454,0.961,-0.219
41.02,-0.025,1.359,0.111
41.03,-0.099,1.225,0.081
41.04,-0.01,0.522,-0.058
41.05,-0.414,0.76,-0.206
41.06,-0.036,1.645,0.119
41.07,-0.123,0.813,0.131
41.08,-0.156,0.97,-0.05
41.09,-0.386,0.303,-0.112
41.1,-0.191,1.903,0.228
41.11,0.03,0.696,0.108
41.12,-0.201,1.067,-0.1
41.13,-0.278,0.189,-0.151
41.14,-0.229,1.748,0.114
41.15,-0.147,0.982,0.024
41.16,-0.161,0.737,-0.131
41.17,-0.415,0.593,-0.152
41.18,-0.048,1.174,0.223
41.19,-0.36,1.399,0.014
41.2,-0.08,0.422,-0.131
41.21,-0.506,0.875,-0.067
41.22,-0.024,1.034,0.219
41.23,-0.321,1.354,-0.02
41.24,-0.209,0.554,-0.129
41.25,-0.453,0.635,-0.015
41.26,-0.066,1.196,0.145
41.27,-0.236,0.856,0.002
41.28,-0.251,0.974,-0.152
41.29,-0.264,0.823,-0.0
41.3,-0.098,1.132,0.202
41.31,-0.128,0.835,0.035
41.32,-0.401,0.849,-0.181
41.33,-0.181,1.44,-0.054
41.34,-0.176,0.682,0.161
41.35,-0.224,1.175,0.061
41.36,-0.279,0.377,-0.213
41.37,-0.333,1.986,0.031
41.38,-0.089,0.535,0.175
41.39,-0.231,1.045,0.09
41.4,-0.358,0.511,-0.14
41.41,-0.279,1.712,0.102
41.42,-0.225,0.939,0.163
41.43,-0.078,0.558,-0.004
41.44,-0.55,0.931,-0.192
41.45,-0.097,1.48,0.129
41.46,-0.293,0.992,0.144
41.47,0.01,0.611,0.016
41.48,-0.563,0.846,-0.177
41.49,0.067,1.686,0.084
41.5,-0.162,0.811,0.131
41.51,-0.077,0.86,-0.067
41.52,-0.433,0.331,-0.186
41.53,-0.07,1.927,0.12
41.54,-0.038,0.645,0.12
41.55,-0.115,1.011,-0.051
41.56,-0.447,0.333,-0.181
41.57,-0.095,1.721,0.189
41.58,-0.111,0.928,0.125
41.59,-0.08,0.564,-0.069
41.6,-0.501,0.932,-0.174
41.61,-0.021,1.394,0.207
41.62,-0.105,1.272,0.074
41.63,-0.045,0.43,-0.066
41.64,-0.446,0.866,-0.135
41.65,-0.08,1.496,0.133
41.66,-0.155,1.025,0.062
41.67,-0.115,0.89,-0.13
41.68,-0.307,0.217,-0.143
41.69,-0.249,1.801,0.144
41.7,-0.06,0.78,0.041
41.71,-0.262,0.963,-0.137
41.72,-0.326,0.268,-0.134
41.73,-0.274,1.54,0.238
41.74,-0.247,1.177,0.019
41.75,-0.182,0.541,-0.11
41.76,-0.491,0.781,-0.044
41.77,-0.033,0.952,0.259
41.78,-0.326,1.475,0.012
41.79,-0.239,0.364,-0.112
41.8,-0.536,0.856,0.006
41.81,-0.088,1.007,0.253
41.82,-0.324,1.22,0.073
41.83,-0.224,0.664,-0.119
41.84,-0.383,0.6,-0.005
41.85,-0.133,1.248,0.191
41.86,-0.165,0.8,0.009
41.87,-0.35,1.019,-0.124
41.88,-0.334,0.67,0.025
41.89,-0.156,1.072,0.161
41.9,-0.145,1.006,-0.027
41.91,-0.298,0.676,-0.195
41.92,-0.176,1.618,0.033
41.93,-0.127,0.752,0.113
41.94,-0.154,0.961,-0.009
41.95,-0.259,0.445,-0.207
41.96,-0.226,1.882,0.106
41.97,0.036,0.752,0.151
41.98,-0.241,0.953,0.004
41.99,-0.375,0.304,-0.232
42.0,-0.097,1.911,0.102
42.01,-0.106,0.833,0.043
42.02,-0.096,0.627,-0.056
42.03,-0.45,0.84,-0.249
42.04,0.043,1.496,0.117
42.05,-0.247,1.188,0.067
42.06,0.083,0.386,-0.048
42.07,-0.45,0.898,-0.214
42.08,-0.022,1.542,0.108
42.09,-0.067,0.938,0.071
42.1,-0.018,0.861,-0.107
42.11,-0.394,0.354,-0.167
42.12,-0.108,1.906,0.162
42.13,0.027,0.665,0.105
42.14,-0.19,1.062,-0.1
42.15,-0.361,0.301,-0.156
42.16,-0.121,1.802,0.148
42.17,-0.121,0.934,0.051
42.18,0.032,0.708,-0.062
42.19,-0.49,0.734,-0.183
42.2,-0.04,1.403,0.165
42.21,-0.355,1.419,0.059
42.22,-0.014,0.398,-0.087
42.23,-0.515,0.827,-0.161
42.24,-0.079,1.334,0.167
42.25,-0.272,1.235,0.016
42.26,-0.077,0.734,-0.095
42.27,-0.443,0.357,-0.102
42.28,-0.19,1.627,0.213
42.29,-0.263,0.9,0.015
42.3,-0.265,0.902,-0.061
42.31,-0.394,0.249,-0.039
42.32,-0.214,1.404,0.194
42.33,-0.215,0.996,-0.048
42.34,-0.13,0.729,-0.116
42.35,-0.425,0.777,-0.021
42.36,-0.003,0.874,0.148
42.37,-0.337,1.411,-0.053
42.38,-0.06,0.33,-0.163
42.39,-0.41,1.178,-0.087
42.4,0.047,0.754,0.13
42.41,-0.264,1.253,-0.02
42.42,-0.252,0.562,-0.205
42.43,-0.204,1.332,-0.089
42.44,-0.143,1.135,0.211
42.45,-0.1,0.554,0.102
42.46,-0.531,1.12,-0.104
42.47,-0.266,1.316,0.057
42.48,-0.287,0.996,0.186
42.49,0.016,0.762,0.039
42.5,-0.421,0.782,-0.191
42.51,-0.213,1.725,0.043
42.52,-0.185,0.611,0.16
42.53,-0.12,1.029,0.027
42.54,-0.257,0.365,-0.171
42.55,-0.362,1.921,0.134
42.56,-0.046,0.671,0.184
42.57,-0.2,0.929,-0.014
42.58,-0.372,0.543,-0.228
42.59,-0.199,1.766,0.09
42.6,-0.256,0.872,0.134
42.61,-0.048,0.566,0.015
42.62,-0.523,0.928,-0.184
42.63,-0.067,1.424,0.126
42.64,-0.295,1.141,0.145
42.65,-0.035,0.506,-0.001
42.66,-0.527,0.797,-0.151
42.67,-0.007,1.738,0.081
42.68,-0.083,0.794,0.122
42.69,-0.1,0.888,-0.077
42.7,-0.399,0.345,-0.185
42.71,-0.19,1.898,0.125
42.72,-0.038,0.695,0.103
42.73,-0.175,0.998,-0.065
42.74,-0.353,0.259,-0.212
42.75,-0.172,1.84,0.104
42.76,-0.098,0.844,0.098
42.77,-0.096,0.785,-0.05
42.78,-0.5,0.609,-0.183
42.79,-0.049,1.484,0.174
42.8,-0.311,1.279,0.106
42.81,0.019,0.45,-0.04
42.82,-0.521,0.921,-0.196
42.83,-0.007,1.406,0.15
42.84,-0.208,1.328,0.066
42.85,-0.12,0.522,-0.07
42.86,-0.334,0.51,-0.125
42.87,-0.227,1.718,0.154
42.88,-0.133,0.87,0.07
42.89,-0.239,0.984,-0.105
42.9,-0.27,0.134,-0.129
42.91,-0.222,1.726,0.176
42.92,-0.111,0.89,0.017
42.93,-0.21,0.764,-0.118
42.94,-0.403,0.576,-0.126
42.95,-0.163,1.327,0.236
42.96,-0.307,1.431,0.005
42.97,-0.018,0.303,-0.104
42.98,-0.479,0.931,-0.123
42.99,0.019,0.936,0.197
43.0,-0.313,1.41,-0.041
43.01,-0.157,0.585,-0.14
43.02,-0.41,0.604,-0.047
43.03,-0.101,1.206,0.203
43.04,-0.203,0.946,0.039
43.05,-0.356,0.94,-0.122
43.06,-0.354,0.309,-0.034
43.07,-0.101,1.363,0.128
43.08,-0.164,0.9,-0.021
43.09,-0.228,0.766,-0.187
43.1,-0.263,1.041,-0.1
43.11,-0.015,0.867,0.12
43.12,-0.204,1.172,-0.02
43.13,-0.192,0.466,-0.173
43.14,-0.342,1.375,-0.071
43.15,-0.004,0.677,0.157
43.16,-0.243,1.271,0.025
43.17,-0.263,0.527,-0.189
43.18,-0.362,1.22,-0.033
43.19,-0.241,1.354,-0.043
43.2,-0.134,0.675,0.128
43.21,-0.205,1.256,0.007
43.22,-0.189,0.357,-0.229
43.23,-0.229,1.864,-0.041
43.24,-0.094,0.593,0.144
43.25,-0.159,1.024,0.003
43.26,-0.371,0.641,-0.191
43.27,-0.167,1.531,0.048
43.28,-0.115,1.124,0.167
43.29,-0.14,0.436,0.019
43.3,-0.455,1.021,-0.159
43.31,-0.198,1.501,0.071
43.32,-0.28,1.015,0.174
43.33,-0.117,0.644,0.033
43.34,-0.393,0.76,-0.183
43.35,-0.197,1.698,0.124
43.36,-0.063,0.768,0.151
43.37,-0.24,0.897,-0.011
43.38,-0.286,0.299,-0.184
43.39,-0.24,1.921,0.087
43.4,0.002,0.652,0.184
43.41,-0.188,1.009,-0.041
43.42,-0.389,0.398,-0.257
43.43,-0.086,1.728,0.114
43.44,-0.132,1.038,0.065
43.45,-0.115,0.715,-0.024
43.46,-0.448,0.768,-0.221
43.47,-0.044,1.429,0.148
43.48,-0.069,1.286,0.079
43.49,-0.019,0.473,-0.022
43.5,-0.484,0.94,-0.178
43.51,-0.048,1.461,0.151
43.52,-0.132,1.157,0.059
43.53,0.003,0.777,-0.084
43.54,-0.376,0.496,-0.16
43.55,-0.083,1.841,0.133
43.56,0.028,0.73,0.055
43.57,-0.088,1.064,-0.067
43.58,-0.36,0.248,-0.148
43.59,-0.173,1.8,0.138
43.6,-0.171,0.919,0.03
43.61,-0.045,0.798,-0.092
43.62,-0.346,0.61,-0.193
43.63,-0.057,1.324,0.167
43.64,-0.291,1.394,-0.01
43.65,-0.046,0.378,-0.105
43.66,-0.453,0.865,-0.104
43.67,-0.144,1.185,0.246
43.68,-0.365,1.34,0.034
43.69,-0.131,0.565,-0.091
43.7,-0.439,0.498,-0.073
43.71,-0.126,1.42,0.23
43.72,-0.219,0.907,0.024
43.73,-0.339,0.88,-0.05
43.74,-0.29,0.393,-0.061
43.75,-0.205,1.306,0.195
43.76,-0.198,0.791,0.044
43.77,-0.211,0.86,-0.127
43.78,-0.414,0.776,-0.114
43.79,-0.003,0.921,0.086
43.8,-0.245,1.292,-0.042
43.81,-0.106,0.397,-0.169
43.82,-0.501,1.138,-0.024
43.83,-0.018,0.687,0.186
43.84,-0.312,1.399,-0.019
43.85,-0.199,0.407,-0.139
43.86,-0.339,1.372,-0.006
43.87,-0.086,1.029,0.19
43.88,-0.153,0.667,0.048
43.89,-0.33,1.081,-0.192
43.9,-0.163,1.184,-0.058
43.91,-0.157,1.111,0.155
43.92,-0.053,0.655,0.036
43.93,-0.425,0.912,-0.24
43.94,-0.185,1.516,0.044
43.95,-0.197,0.781,0.147
43.96,-0.255,0.98,0.05
43.97,-0.276,0.514,-0.165
43.98,-0.341,1.998,0.048
43.99,-0.022,0.569,0.187
44.0,-0.246,1.041,0.017
44.01,-0.379,0.4,-0.21
44.02,-0.206,1.821,0.064
44.03,-0.174,0.872,0.16
44.04,-0.116,0.619,0.019
44.05,-0.455,0.826,-0.191
44.06,-0.137,1.531,0.106
44.07,-0.248,1.048,0.16
44.08,-0.016,0.546,0.016
44.09,-0.53,0.926,-0.222
44.1,0.02,1.529,0.113
44.11,-0.114,0.952,0.082
44.12,0.009,0.8,-0.031
44.13,-0.353,0.453,-0.222
44.14,-0.109,1.883,0.022
44.15,0.066,0.616,0.057
44.16,-0.12,1.091,-0.071
44.17,-0.369,0.281,-0.194
44.18,-0.14,1.885,0.174
44.19,-0.139,0.786,0.093
44.2,-0.093,0.655,-0.037
44.21,-0.591,0.768,-0.195
44.22,-0.012,1.39,0.14
44.23,-0.176,1.257,0.105
44.24,0.035,0.358,-0.036
44.25,-0.522,0.973,-0.174
44.26,-0.086,1.345,0.18
44.27,-0.292,1.224,0.052
44.28,-0.067,0.599,-0.025
44.29,-0.406,0.675,-0.152
44.3,-0.134,1.626,0.116
44.31,-0.014,0.973,0.025
44.32,-0.161,0.873,-0.133
44.33,-0.322,0.172,-0.104
44.34,-0.221,1.834,0.187
44.35,-0.172,0.807,0.071
44.36,-0.177,0.847,-0.075
44.37,-0.392,0.378,-0.164
44.38,-0.158,1.478,0.214
44.39,-0.271,1.201,-0.004
44.4,-0.064,0.463,-0.126
44.41,-0.537,0.837,-0.138
44.42,0.011,1.145,0.232
44.43,-0.351,1.44,0.021
44.44,-0.078,0.42,-0.112
44.45,-0.46,0.745,-0.127
44.46,-0.056,1.196,0.152
44.47,-0.225,1.093,-0.0
44.48,-0.209,0.777,-0.141
44.49,-0.375,0.347,-0.081
44.5,-0.081,1.445,0.153
44.51,-0.182,0.745,-0.006
44.52,-0.216,0.978,-0.123
44.53,-0.375,0.487,-0.082
44.54,-0.073,1.146,0.166
44.55,-0.221,1.154,-0.036
44.56,-0.119,0.501,-0.167
44.57,-0.33,1.274,-0.098
44.58,0.019,0.679,0.177
44.59,-0.334,1.321,0.052
44.6,-0.186,0.354,-0.155
44.61,-0.421,1.22,-0.058
44.62,-0.047,0.865,0.131
44.63,-0.118,1.01,0.037
44.64,-0.326,0.772,-0.209
44.65,-0.212,0.933,-0.009
44.66,-0.166,1.141,0.135
44.67,-0.06,0.665,0.036
44.68,-0.322,1.07,-0.163
44.69,-0.196,1.279,-0.059
44.7,-0.114,0.943,0.149
44.71,-0.114,0.88,0.004
44.72,-0.307,0.673,-0.202
44.73,-0.29,1.809,0.025
44.74,-0.092,0.635,0.136
44.75,-0.21,1.149,0.098
44.76,-0.344,0.442,-0.163
44.77,-0.345,1.928,0.062
44.78,-0.18,0.662,0.153
44.79,-0.17,0.895,0.081
44.8,-0.371,0.72,-0.198
44.81,-0.207,1.53,0.036
44.82,-0.216,1.032,0.119
44.83,0.064,0.574,0.067
44.84,-0.495,0.975,-0.216
44.85,-0.113,1.454,0.114
44.86,-0.262,1.01,0.138
44.87,-0.026,0.711,0.07
44.88,-0.411,0.657,-0.148
44.89,-0.178,1.788,0.104
44.9,-0.11,0.614,0.135
44.91,-0.211,1.001,0.025
44.92,-0.341,0.281,-0.226
44.93,-0.219,2.0,0.109
44.94,-0.058,0.688,0.097
44.95,-0.181,0.89,0.005
44.96,-0.401,0.571,-0.227
44.97,-0.103,1.684,0.131
44.98,-0.197,1.12,0.103
44.99,-0.056,0.402,-0.027
45.0,-0.487,0.99,-0.209
45.01,-0.018,1.47,0.092
45.02,-0.224,1.107,0.168
45.03,-0.052,0.591,-0.004
45.04,-0.475,0.7,-0.187
45.05,-0.024,1.729,0.005
45.06,-0.048,1.045,0.036
45.07,-0.051,0.773,-0.08
45.08,-0.412,0.391,-0.198
45.09,-0.155,1.875,0.215
45.1,0.048,0.611,0.097
45.11,-0.203,1.04,-0.08
45.12,-0.429,0.316,-0.163
45.13,-0.107,1.833,0.166
45.14,-0.09,0.896,0.064
45.15,-0.037,0.692,-0.056
45.16,-0.437,0.82,-0.162
45.17,-0.052,1.505,0.158
45.18,-0.083,1.224,0.034
45.19,0.027,0.494,-0.056
45.2,-0.541,0.899,-0.172
45.21,-0.049,1.466,0.183
45.22,-0.169,1.199,0.062
45.23,-0.002,0.712,-0.086
45.24,-0.357,0.471,-0.207
45.25,-0.163,1.812,0.122
45.26,-0.002,0.807,0.009
45.27,-0.173,1.046,-0.119
45.28,-0.318,0.184,-0.2
45.29,-0.165,1.752,0.097
45.3,-0.152,0.961,0.014
45.31,-0.03,0.703,-0.091
45.32,-0.475,0.664,-0.199
45.33,-0.031,1.286,0.214
45.34,-0.322,1.371,0.038
45.35,-0.033,0.39,-0.076
45.36,-0.501,0.864,-0.166
45.37,-0.089,1.246,0.203
45.38,-0.316,1.328,0.043
45.39,-0.15,0.59,-0.047
45.4,-0.474,0.457,-0.074
45.41,-0.233,1.537,0.256
45.42,-0.156,0.992,0.013
45.43,-0.339,0.876,-0.077
45.44,-0.346,0.226,-0.053
45.45,-0.165,1.472,0.208
45.46,-0.217,0.856,0.017
45.47,-0.222,0.793,-0.109
45.48,-0.49,0.679,-0.076
45.49,0.051,1.025,0.166
45.5,-0.323,1.353,-0.038
45.51,-0.08,0.341,-0.137
45.52,-0.439,1.215,-0.081
45.53,0.026,0.773,0.198
45.54,-0.322,1.267,0.032
45.55,-0.23,0.552,-0.146
45.56,-0.438,0.861,-0.061
45.57,-0.004,1.113,0.122
45.58,-0.128,0.827,0.008
45.59,-0.395,1.021,-0.164
45.6,-0.314,0.475,-0.046
45.61,-0.142,1.234,0.164
45.62,-0.172,0.941,-0.009
45.63,-0.273,0.819,-0.162
45.64,-0.244,1.3,-0.12
45.65,0.022,0.79,0.138
45.66,-0.176,1.17,-0.049
45.67,-0.108,0.462,-0.237
45.68,-0.256,1.867,-0.101
45.69,0.061,0.629,0.108
45.7,-0.186,1.123,0.046
45.71,-0.291,0.548,-0.235
45.72,-0.311,1.588,0.062
45.73,-0.199,0.819,0.101
45.74,-0.102,0.746,0.039
45.75,-0.346,0.888,-0.205
45.76,-0.217,1.333,0.063
45.77,-0.215,1.091,0.162
45.78,0.025,0.554,0.032
45.79,-0.45,0.891,-0.171
45.8,-0.066,1.62,0.068
45.81,-0.318,0.916,0.192
45.82,-0.085,0.804,0.021
45.83,-0.41,0.446,-0.174
45.84,-0.18,2.0,0.128
45.85,-0.175,0.456,0.085
45.86,-0.053,1.071,0.001
45.87,-0.437,0.259,-0.184
45.88,-0.1,1.964,0.152
45.89,-0.165,0.712,0.151
45.9,-0.153,0.851,0.003
45.91,-0.378,0.533,-0.173
45.92,-0.046,1.617,0.174
45.93,-0.1,1.139,0.119
45.94,-0.054,0.439,-0.056
45.95,-0.501,0.973,-0.134
45.96,0.018,1.381,0.192
45.97,-0.166,1.192,0.088
45.98,0.051,0.59,-0.058
45.99,-0.469,0.756,-0.14
46.0,-0.038,1.708,0.125
46.01,-0.058,0.824,0.075
46.02,-0.093,0.94,-0.062
46.03,-0.374,0.268,-0.139
46.04,-0.204,1.87,0.184
46.05,-0.119,0.764,0.092
46.06,-0.144,0.905,-0.116
46.07,-0.317,0.397,-0.193
46.08,-0.12,1.596,0.15
46.09,-0.191,1.144,0.028
46.1,-0.029,0.475,-0.116
46.11,-0.47,0.901,-0.163
46.12,-0.048,1.253,0.211
46.13,-0.287,1.429,0.055
46.14,-0.072,0.387,-0.067
46.15,-0.469,0.736,-0.149
46.16,-0.053,1.379,0.198
46.17,-0.257,1.068,0.02
46.18,-0.217,0.856,-0.099
46.19,-0.399,0.213,-0.095
46.2,-0.233,1.67,0.214
46.21,-0.215,0.87,0.003
46.22,-0.243,0.851,-0.053
46.23,-0.455,0.399,-0.069
46.24,-0.118,1.25,0.214
46.25,-0.266,1.203,-0.022
46.26,-0.14,0.532,-0.132
46.27,-0.474,0.965,-0.059
46.28,-0.014,0.846,0.215
46.29,-0.304,1.384,0.038
46.3,-0.239,0.363,-0.133
46.31,-0.455,0.983,-0.052
46.32,-0.084,0.934,0.152
46.33,-0.246,1.068,0.03
46.34,-0.314,0.75,-0.151
46.35,-0.272,0.91,-0.001
46.36,-0.151,1.208,0.19
46.37,-0.094,0.69,0.069
46.38,-0.363,1.065,-0.161
46.39,-0.256,1.01,-0.028
46.4,-0.13,1.003,0.161
46.41,-0.241,0.999,0.039
46.42,-0.239,0.629,-0.169
46.43,-0.454,1.42,-0.075
46.44,-0.049,0.543,0.09
46.45,-0.256,1.339,0.012
46.46,-0.096,0.379,-0.24
46.47,-0.293,1.802,-0.031
46.48,-0.005,0.708,0.124
46.49,-0.102,0.858,-0.018
46.5,-0.327,0.756,-0.19
46.51,-0.218,1.5,0.013
46.52,-0.249,1.029,0.144
46.53,-0.047,0.555,0.027
46.54,-0.38,0.985,-0.204
46.55,-0.146,1.477,0.087
46.56,-0.233,0.965,0.132
46.57,-0.113,0.654,0.008
46.58,-0.285,0.672,-0.216
46.59,-0.175,1.845,0.075
46.6,-0.069,0.619,0.127
46.61,-0.235,1.004,0.027
46.62,-0.349,0.248,-0.188
46.63,-0.187,2.0,0.11
46.64,-0.133,0.65,0.153
46.65,-0.117,0.881,-0.053
46.66,-0.491,0.326,-0.176
46.67,-0.028,1.777,0.166
46.68,-0.073,0.921,0.08
46.69,-0.051,0.635,-0.067
46.7,-0.492,0.845,-0.202
46.71,0.025,1.406,0.155
46.72,-0.204,1.314,0.1
46.73,0.06,0.479,-0.044
46.74,-0.586,0.909,-0.127
46.75,-0.048,1.6,0.179
46.76,-0.19,1.008,0.07
46.77,-0.04,0.828,-0.085
46.78,-0.426,0.387,-0.124
46.79,-0.149,1.864,0.123
46.8,-0.098,0.724,0.103
46.81,-0.162,1.031,-0.104
46.82,-0.392,0.221,-0.161
46.83,-0.126,1.629,0.145
46.84,-0.171,1.046,-0.024
46.85,-0.064,0.637,-0.131
46.86,-0.479,0.718,-0.17
46.87,-0.131,1.177,0.271
46.88,-0.317,1.408,0.073
46.89,-0.122,0.28,-0.069
46.9,-0.542,0.925,-0.074
46.91,0.001,1.015,0.172
46.92,-0.326,1.353,-0.003
46.93,-0.276,0.589,-0.087
46.94,-0.359,0.469,-0.033
46.95,-0.124,1.348,0.166
46.96,-0.119,0.885,-0.021
46.97,-0.332,0.994,-0.138
46.98,-0.324,0.423,-0.105
46.99,-0.151,1.195,0.156
47.0,-0.196,1.0,-0.036
47.01,-0.254,0.732,-0.141
47.02,-0.225,1.513,-0.092
47.03,-0.063,0.687,0.196
47.04,-0.22,1.172,0.018
47.05,-0.269,0.458,-0.147
47.06,-0.34,1.862,-0.004
47.07,-0.027,0.636,0.154
47.08,-0.231,0.989,0.026
47.09,-0.342,0.609,-0.184
47.1,-0.195,1.686,0.044
47.11,-0.207,0.922,0.147
47.12,-0.099,0.55,0.02
47.13,-0.448,0.96,-0.193
47.14,-0.071,1.347,0.132
47.15,-0.179,1.217,0.168
47.16,-0.11,0.487,0.009
47.17,-0.476,0.789,-0.177
47.18,-0.045,1.716,0.114
47.19,-0.119,0.776,0.125
47.2,-0.164,0.957,-0.017
47.21,-0.48,0.29,-0.154
47.22,-0.103,1.986,0.176
47.23,-0.078,0.674,0.139
47.24,-0.18,0.898,-0.045
47.25,-0.336,0.46,-0.231
47.26,-0.076,1.726,0.093
47.27,0.055,1.002,0.082
47.28,-0.064,0.562,-0.07
47.29,-0.601,0.899,-0.18
47.3,-0.006,1.334,0.143
47.31,-0.17,1.36,0.089
47.32,-0.015,0.489,-0.062
47.33,-0.465,0.862,-0.183
47.34,-0.034,1.631,0.195
47.35,-0.037,0.834,0.1
47.36,-0.145,0.931,-0.067
47.37,-0.361,0.341,-0.154
47.38,-0.242,1.859,0.198
47.39,-0.071,0.818,0.064
47.4,-0.214,0.893,-0.087
47.41,-0.28,0.342,-0.121
47.42,-0.252,1.604,0.171
47.43,-0.137,1.07,0.04
47.44,-0.161,0.61,-0.133
47.45,-0.446,0.749,-0.109
47.46,-0.059,1.232,0.216
47.47,-0.336,1.395,0.026
47.48,-0.051,0.346,-0.103
47.49,-0.51,1.048,-0.068
47.5,-0.027,0.824,0.224
47.51,-0.319,1.381,0.017
47.52,-0.21,0.496,-0.164
47.53,-0.376,0.899,0.008
47.54,-0.093,1.106,0.158
47.55,-0.136,0.777,0.053
47.56,-0.384,0.993,-0.169
47.57,-0.214,0.71,-0.06
47.58,-0.184,1.136,0.138
47.59,-0.137,0.802,0.037
47.6,-0.245,0.88,-0.178
47.61,-0.234,1.352,-0.057
47.62,-0.026,0.768,0.12
47.63,-0.19,1.091,-0.003
47.64,-0.253,0.486,-0.239
47.65,-0.24,1.907,-0.016
47.66,-0.093,0.551,0.118
47.67,-0.134,1.14,0.039
47.68,-0.305,0.45,-0.204
47.69,-0.236,1.756,0.001
47.7,-0.161,0.833,0.104
47.71,-0.078,0.692,0.005
47.72,-0.409,0.935,-0.222
47.73,-0.102,1.353,0.104
47.74,-0.197,1.176,0.163
47.75,-0.073,0.446,0.011
47.76,-0.53,0.902,-0.19
47.77,-0.061,1.644,0.111
47.78,-0.199,0.868,0.129
47.79,-0.129,0.821,0.009
47.8,-0.426,0.42,-0.191
47.81,-0.116,1.959,0.146
47.82,-0.073,0.591,0.123
47.83,-0.207,1.026,-0.015
47.84,-0.36,0.287,-0.227
47.85,-0.097,1.872,0.069
47.86,-0.006,0.886,0.12
47.87,-0.08,0.678,-0.071
47.88,-0.43,0.808,-0.228
47.89,-0.027,1.477,0.1
47.9,-0.188,1.219,0.104
47.91,0.026,0.46,-0.046
47.92,-0.543,0.958,-0.225
47.93,-0.006,1.489,0.136
47.94,-0.115,0.974,0.073
47.95,-0.033,0.786,-0.046
47.96,-0.398,0.491,-0.114
47.97,-0.201,1.792,0.143
47.98,-0.066,0.712,0.111
47.99,-0.129,1.048,-0.074
48.0,-0.46,0.263,-0.148
48.01,-0.126,1.838,0.182
48.02,-0.116,0.79,0.105
48.03,-0.07,0.718,-0.028
48.04,-0.527,0.761,-0.159
48.05,-0.048,1.428,0.183
48.06,-0.322,1.313,0.08
48.07,0.078,0.417,-0.049
48.08,-0.517,0.953,-0.16
48.09,-0.008,1.363,0.206
48.1,-0.254,1.169,0.056
48.11,-0.077,0.712,-0.097
48.12,-0.4,0.459,-0.16
48.13,-0.133,1.755,0.125
48.14,-0.084,0.897,-0.003
48.15,-0.202,0.909,-0.104
48.16,-0.328,0.206,-0.17
48.17,-0.259,1.697,0.199
48.18,-0.214,0.939,0.037
48.19,-0.196,0.697,-0.087
48.2,-0.444,0.668,-0.102
48.21,-0.041,1.114,0.169
48.22,-0.311,1.307,0.027
48.23,-0.086,0.434,-0.118
48.24,-0.544,0.942,-0.085
48.25,-0.026,0.927,0.196
48.26,-0.39,1.339,0.09
48.27,-0.16,0.359,-0.184
48.28,-0.426,1.112,-0.038
48.29,0.019,0.876,0.114
48.3,-0.207,1.053,0.02
48.31,-0.205,0.802,-0.213
48.32,-0.23,1.1,-0.08
48.33,-0.162,1.136,0.211
48.34,-0.104,0.625,0.067
48.35,-0.432,0.999,-0.147
48.36,-0.182,1.157,0.005
48.37,-0.258,0.952,0.134
48.38,-0.152,0.909,0.031
48.39,-0.278,0.649,-0.195
48.4,-0.156,1.744,-0.036
48.41,-0.098,0.562,0.108
48.42,-0.18,1.199,0.04
