t,ax,ay,az
0.0,-0.355,0.662,-0.057
0.01,-0.41,1.029,-0.053
0.02,0.008,0.823,0.258
0.03,-0.326,1.258,0.025
0.04,-0.306,0.363,-0.119
0.05,-0.431,1.038,-0.078
0.06,0.048,0.895,0.195
0.07,-0.224,1.085,0.016
0.08,-0.373,0.622,-0.148
0.09,-0.22,0.901,-0.055
0.1,-0.042,1.281,0.17
0.11,-0.1,0.573,0.053
0.12,-0.417,0.941,-0.151
0.13,-0.258,0.931,-0.124
0.14,0.018,1.068,0.107
0.15,-0.147,0.811,0.002
0.16,-0.352,0.57,-0.202
0.17,-0.358,1.371,-0.055
0.18,0.001,0.661,0.147
0.19,-0.282,1.264,-0.004
0.2,-0.31,0.225,-0.163
0.21,-0.335,1.716,0.008
0.22,0.02,0.779,0.188
0.23,-0.212,0.853,0.038
0.24,-0.362,0.702,-0.188
0.25,-0.279,1.51,-0.035
0.26,-0.076,1.084,0.152
0.27,-0.113,0.562,0.049
0.28,-0.473,1.0,-0.235
0.29,-0.324,1.267,0.053
0.3,-0.083,0.855,0.154
0.31,-0.165,0.875,0.012
0.32,-0.412,0.518,-0.139
0.33,-0.371,1.97,0.081
0.34,-0.026,0.656,0.14
0.35,-0.115,1.001,0.024
0.36,-0.353,0.343,-0.204
0.37,-0.307,2.0,0.044
0.38,0.019,0.799,0.133
0.39,-0.03,0.796,0.037
0.4,-0.436,0.674,-0.263
0.41,-0.11,1.841,0.064
0.42,-0.181,1.067,0.046
0.43,0.127,0.5,-0.003
0.44,-0.496,0.893,-0.224
0.45,0.015,1.406,0.138
0.46,-0.269,1.309,0.069
0.47,0.105,0.493,-0.017
0.48,-0.437,0.842,-0.192
0.49,-0.023,1.544,0.125
0.5,-0.233,0.801,0.066
0.51,-0.054,1.073,-0.061
0.52,-0.358,0.284,-0.124
0.53,-0.267,0.5,-0.127
0.54,-0.338,1.096,-0.07
0.55,0.036,0.781,0.126
0.56,-0.333,1.215,-0.015
0.57,-0.275,0.249,-0.146
0.58,-0.252,1.978,-0.115
0.59,0.12,0.744,0.19
0.6,-0.133,0.92,0.086
0.61,-0.477,0.68,-0.195
0.62,-0.2,1.57,-0.038
0.63,-0.141,0.938,0.174
0.64,-0.073,0.622,0.065
0.65,-0.504,0.899,-0.278
0.66,-0.17,1.444,0.007
0.67,-0.162,0.993,0.137
0.68,-0.09,0.639,0.074
0.69,-0.451,0.677,-0.174
0.7,-0.283,1.98,0.013
0.71,0.026,0.766,0.211
0.72,-0.056,0.978,0.068
0.73,-0.441,0.333,-0.21
0.74,-0.345,2.0,0.102
0.75,-0.119,0.604,0.128
0.76,-0.092,0.917,0.039
0.77,-0.498,0.526,-0.248
0.78,-0.096,1.92,0.05
0.79,-0.164,1.062,0.091
0.8,0.145,0.488,0.012
0.81,-0.561,0.912,-0.198
0.82,0.022,1.472,0.014
0.83,-0.184,1.233,0.034
0.84,0.131,0.6,-0.025
0.85,-0.437,0.659,-0.238
0.86,0.08,2.0,0.098
0.87,-0.161,0.783,0.059
0.88,-0.009,0.988,-0.005
0.89,-0.41,0.305,-0.183
0.9,-0.206,2.0,0.17
0.91,-0.23,0.719,0.118
0.92,-0.036,0.939,0.0
0.93,-0.49,0.509,-0.138
0.94,-0.122,1.489,0.177
0.95,-0.296,1.069,0.095
0.96,0.058,0.603,-0.039
0.97,-0.501,0.934,-0.139
0.98,0.048,1.342,0.23
0.99,-0.321,1.22,0.123
1.0,-0.039,0.631,-0.022
1.01,-0.489,0.752,-0.119
1.02,-0.047,1.498,0.124
1.03,-0.223,0.823,0.135
1.04,-0.073,0.983,-0.077
1.05,-0.375,0.282,-0.141
1.06,-0.145,1.458,0.128
1.07,-0.184,0.782,0.075
1.08,-0.218,0.959,-0.109
1.09,-0.326,0.498,-0.174
1.1,-0.023,1.306,0.159
1.11,-0.262,1.277,0.08
1.12,0.035,0.563,-0.199
1.13,-0.366,0.943,-0.135
1.14,-0.05,0.955,0.207
1.15,-0.356,1.485,-0.002
1.16,-0.115,0.317,-0.085
1.17,-0.439,0.938,-0.116
1.18,0.057,0.952,0.187
1.19,-0.251,1.025,0.012
1.2,-0.356,0.733,-0.171
1.21,-0.31,0.458,-0.07
1.22,-0.128,1.26,0.218
1.23,-0.156,0.781,0.023
1.24,-0.371,0.894,-0.112
1.25,-0.253,0.704,-0.08
1.26,0.036,1.136,0.14
1.27,-0.233,0.817,-0.047
1.28,-0.367,0.598,-0.16
1.29,-0.255,1.555,-0.116
1.3,0.077,0.708,0.191
1.31,-0.244,1.153,0.016
1.32,-0.395,0.344,-0.191
1.33,-0.256,1.723,-0.08
1.34,0.019,0.728,0.193
1.35,-0.17,0.946,0.032
1.36,-0.425,0.689,-0.206
1.37,-0.193,1.594,-0.03
1.38,-0.106,1.037,0.158
1.39,-0.007,0.55,0.066
1.4,-0.475,0.956,-0.245
1.41,-0.236,1.524,0.023
1.42,-0.133,0.964,0.135
1.43,0.071,0.717,0.081
1.44,-0.455,0.633,-0.204
1.45,-0.227,2.0,0.062
1.46,-0.032,0.639,0.143
1.47,-0.011,1.056,0.064
1.48,-0.428,0.307,-0.26
1.49,-0.249,2.0,0.073
1.5,-0.149,0.651,0.137
1.51,0.051,0.855,0.067
1.52,-0.56,0.639,-0.251
1.53,0.019,1.801,0.099
1.54,-0.242,1.11,0.088
1.55,0.185,0.447,0.041
1.56,-0.507,0.96,-0.195
1.57,0.023,1.674,0.052
1.58,-0.194,1.058,0.069
1.59,0.118,0.65,-0.021
1.6,-0.595,0.587,-0.167
1.61,0.03,2.0,0.091
1.62,-0.242,0.667,0.051
1.63,-0.03,0.987,0.011
1.64,-0.431,0.269,-0.189
1.65,-0.1,1.998,0.106
1.66,-0.153,0.811,0.064
1.67,-0.008,0.796,-0.003
1.68,-0.423,0.659,-0.227
1.69,-0.04,1.454,0.163
1.7,-0.251,1.135,0.074
1.71,0.023,0.537,-0.016
1.72,-0.509,0.974,-0.156
1.73,-0.06,1.35,0.251
1.74,-0.321,1.151,0.111
1.75,0.013,0.727,-0.012
1.76,-0.49,0.611,-0.132
1.77,-0.057,1.59,0.16
1.78,-0.216,0.771,0.166
1.79,-0.105,1.048,-0.036
1.8,-0.342,0.266,-0.154
1.81,-0.174,1.61,0.137
1.82,-0.219,0.807,0.127
1.83,-0.072,0.973,-0.092
1.84,-0.438,0.582,-0.116
1.85,-0.01,1.288,0.149
1.86,-0.249,1.223,0.09
1.87,0.106,0.556,-0.127
1.88,-0.509,0.936,-0.146
1.89,0.021,1.007,0.197
1.9,-0.382,1.266,0.052
1.91,-0.013,0.737,-0.108
1.92,-0.402,0.582,-0.14
1.93,-0.082,1.305,0.155
1.94,-0.167,0.772,0.003
1.95,-0.374,0.837,-0.106
1.96,-0.292,0.423,-0.053
1.97,-0.169,1.355,0.251
1.98,-0.216,0.729,0.058
1.99,-0.348,0.907,-0.1
2.0,-0.356,0.617,-0.081
2.01,0.045,1.196,0.215
2.02,-0.308,0.873,0.029
2.03,-0.297,0.601,-0.123
2.04,-0.415,1.046,-0.091
2.05,0.033,0.803,0.22
2.06,-0.306,1.329,0.028
2.07,-0.223,0.314,-0.172
2.08,-0.327,1.368,-0.03
2.09,0.099,0.918,0.192
2.1,-0.249,0.868,0.041
2.11,-0.4,0.766,-0.183
2.12,-0.249,1.164,-0.065
2.13,-0.043,1.207,0.198
2.14,-0.113,0.56,0.082
2.15,-0.487,0.947,-0.202
2.16,-0.252,1.025,-0.035
2.17,-0.141,0.962,0.171
2.18,-0.195,0.903,0.04
2.19,-0.398,0.492,-0.162
2.2,-0.248,1.843,-0.073
2.21,0.001,0.624,0.154
2.22,-0.18,1.13,0.016
2.23,-0.332,0.333,-0.204
2.24,-0.292,1.909,-0.064
2.25,0.004,0.771,0.141
2.26,-0.144,0.832,0.081
2.27,-0.485,0.794,-0.23
2.28,-0.242,1.417,-0.007
2.29,-0.171,0.98,0.156
2.3,-0.001,0.578,0.068
2.31,-0.557,0.886,-0.212
2.32,-0.151,1.608,0.013
2.33,-0.126,0.939,0.097
2.34,-0.004,0.735,0.05
2.35,-0.483,0.563,-0.179
2.36,-0.335,2.0,0.07
2.37,-0.109,0.554,0.109
2.38,-0.067,1.125,0.088
2.39,-0.433,0.33,-0.246
2.4,-0.342,2.0,0.087
2.41,-0.131,0.707,0.118
2.42,0.038,0.763,0.047
2.43,-0.487,0.648,-0.211
2.44,-0.047,1.689,0.031
2.45,-0.175,1.188,0.105
2.46,0.183,0.445,0.052
2.47,-0.535,0.946,-0.171
2.48,-0.124,1.781,0.086
2.49,-0.264,0.863,0.095
2.5,0.004,0.774,0.049
2.51,-0.516,0.481,-0.237
2.52,-0.093,2.0,0.09
2.53,-0.133,0.627,0.065
2.54,-0.011,0.977,0.041
2.55,-0.403,0.259,-0.189
2.56,-0.154,1.933,0.071
2.57,-0.059,0.837,0.063
2.58,0.011,0.747,0.018
2.59,-0.423,0.714,-0.212
2.6,0.028,1.798,0.148
2.61,-0.315,1.091,0.089
2.62,0.094,0.507,-0.026
2.63,-0.566,0.948,-0.213
2.64,-0.016,1.433,0.154
2.65,-0.329,1.202,0.087
2.66,0.059,0.71,-0.015
2.67,-0.377,0.486,-0.135
2.68,-0.04,1.849,0.13
2.69,-0.139,0.646,0.056
2.7,-0.121,1.164,-0.026
2.71,-0.401,0.245,-0.189
2.72,-0.038,2.0,0.215
2.73,-0.336,0.735,0.133
2.74,-0.012,0.698,-0.039
2.75,-0.497,0.555,-0.143
2.76,-0.149,1.263,0.163
2.77,-0.307,1.14,-0.002
2.78,0.079,0.545,-0.093
2.79,-0.318,0.903,-0.143
2.8,0.026,0.924,0.132
2.81,-0.362,1.122,0.073
2.82,-0.216,0.677,-0.195
2.83,-0.447,0.704,-0.11
2.84,0.004,1.409,0.208
2.85,-0.179,1.025,0.159
2.86,-0.216,0.898,-0.092
2.87,-0.368,0.352,-0.108
2.88,-0.104,1.414,0.181
2.89,-0.29,0.721,0.017
2.9,-0.245,0.985,-0.118
2.91,-0.443,0.49,-0.105
2.92,0.037,1.187,0.224
2.93,-0.271,0.943,0.066
2.94,-0.32,0.61,-0.135
2.95,-0.458,0.97,-0.046
2.96,-0.107,0.921,0.227
2.97,-0.227,1.56,0.026
2.98,-0.024,0.435,-0.119
2.99,-0.373,1.016,-0.091
3.0,0.104,1.07,0.183
3.01,-0.272,0.853,-0.046
3.02,-0.405,0.877,-0.078
3.03,-0.254,0.769,-0.061
3.04,-0.037,1.361,0.198
3.05,-0.119,0.5,0.045
3.06,-0.476,0.968,-0.183
3.07,-0.371,0.61,-0.038
3.08,-0.176,0.947,0.219
3.09,-0.239,1.166,-0.034
3.1,-0.269,0.337,-0.115
3.11,-0.203,1.882,-0.071
3.12,0.097,0.704,0.171
3.13,-0.267,1.119,-0.008
3.14,-0.25,0.475,-0.197
3.15,-0.377,1.401,-0.094
3.16,0.1,0.945,0.105
3.17,-0.175,0.743,0.037
3.18,-0.488,0.929,-0.243
3.19,-0.377,0.752,0.028
3.2,-0.139,1.075,0.188
3.21,-0.176,0.702,0.05
3.22,-0.377,0.756,-0.151
3.23,-0.235,1.737,-0.039
3.24,0.099,1.039,0.16
3.25,0.024,0.753,0.02
3.26,-0.462,0.543,-0.164
3.27,-0.383,2.0,0.038
3.28,-0.122,0.534,0.116
3.29,-0.131,1.141,0.088
3.3,-0.475,0.328,-0.287
3.31,-0.343,1.768,0.092
3.32,-0.226,0.679,0.133
3.33,-0.137,0.752,0.067
3.34,-0.365,0.667,-0.149
3.35,-0.145,1.535,-0.018
3.36,0.006,1.334,0.203
3.37,0.122,0.397,0.051
3.38,-0.51,0.964,-0.165
3.39,-0.185,1.923,0.031
3.4,-0.195,0.791,0.077
3.41,-0.001,0.917,0.03
3.42,-0.518,0.412,-0.266
3.43,-0.266,2.0,0.102
3.44,-0.141,0.513,0.056
3.45,-0.118,0.981,0.058
3.46,-0.308,0.312,-0.243
3.47,-0.195,1.863,-0.017
3.48,0.054,0.995,0.066
3.49,0.088,0.602,-0.064
3.5,-0.397,0.806,-0.199
3.51,0.04,1.867,0.041
3.52,-0.284,1.013,0.055
3.53,0.141,0.582,-0.029
3.54,-0.633,0.897,-0.274
3.55,0.075,1.728,0.114
3.56,-0.311,1.288,0.057
3.57,0.097,0.503,0.02
3.58,-0.536,0.725,-0.119
3.59,-0.145,1.454,0.059
3.6,-0.234,0.635,0.112
3.61,-0.097,1.099,-0.024
3.62,-0.373,0.192,-0.166
3.63,-0.018,1.936,0.212
3.64,-0.147,0.695,0.146
3.65,-0.12,0.954,-0.048
3.66,-0.386,0.599,-0.241
3.67,0.004,1.522,0.151
3.68,-0.365,1.307,0.065
3.69,0.069,0.516,-0.009
3.7,-0.432,0.954,-0.136
3.71,-0.048,1.159,0.111
3.72,-0.252,1.132,0.065
3.73,-0.018,0.719,-0.051
3.74,-0.405,0.613,-0.122
3.75,0.005,1.627,0.2
3.76,-0.136,0.823,0.054
3.77,-0.062,1.085,-0.102
3.78,-0.391,0.316,-0.135
3.79,-0.116,1.584,0.154
3.8,-0.299,0.81,0.051
3.81,-0.043,0.937,-0.044
3.82,-0.379,0.542,-0.199
3.83,0.031,1.081,0.191
3.84,-0.298,1.106,0.001
3.85,-0.161,0.652,-0.15
3.86,-0.441,0.921,-0.129
3.87,-0.046,1.003,0.244
3.88,-0.223,1.301,0.042
3.89,-0.125,0.67,-0.184
3.9,-0.41,0.689,-0.108
3.91,-0.037,1.178,0.195
3.92,-0.252,0.987,0.009
3.93,-0.221,0.897,-0.135
3.94,-0.382,0.386,-0.131
3.95,0.077,1.432,0.165
3.96,-0.283,0.616,0.027
3.97,-0.345,1.029,-0.1
3.98,-0.475,0.58,-0.123
3.99,-0.042,1.017,0.212
4.0,-0.205,1.201,-0.027
4.01,-0.282,0.423,-0.145
4.02,-0.353,1.196,-0.053
4.03,0.033,0.784,0.188
4.04,-0.368,1.221,0.016
4.05,-0.227,0.42,-0.104
4.06,-0.407,1.169,-0.054
4.07,0.084,1.135,0.195
4.08,-0.199,0.642,0.026
4.09,-0.446,1.005,-0.192
4.1,-0.415,0.453,-0.062
4.11,-0.14,1.207,0.196
4.12,-0.215,0.803,0.05
4.13,-0.419,0.743,-0.111
4.14,-0.304,1.132,-0.037
4.15,0.035,0.921,0.18
4.16,-0.289,1.08,0.023
4.17,-0.272,0.327,-0.161
4.18,-0.334,1.771,-0.055
4.19,0.151,0.711,0.175
4.2,-0.227,1.08,0.026
4.21,-0.395,0.523,-0.234
4.22,-0.359,1.248,-0.054
4.23,-0.041,0.92,0.144
4.24,-0.173,0.775,0.019
4.25,-0.421,0.806,-0.174
4.26,-0.223,1.438,-0.053
4.27,0.006,1.116,0.137
4.28,-0.086,0.592,0.088
4.29,-0.468,0.878,-0.182
4.3,-0.309,1.778,0.02
4.31,-0.051,0.786,0.144
4.32,0.013,0.925,0.053
4.33,-0.482,0.404,-0.259
4.34,-0.347,2.0,0.076
4.35,-0.176,0.435,0.119
4.36,-0.024,1.119,0.035
4.37,-0.414,0.245,-0.257
4.38,-0.126,2.0,0.058
4.39,-0.034,0.853,0.14
4.4,0.02,0.693,0.035
4.41,-0.447,0.646,-0.192
4.42,-0.117,1.828,0.056
4.43,-0.228,1.119,0.105
4.44,0.164,0.571,-0.041
4.45,-0.515,0.916,-0.245
4.46,-0.036,1.75,0.086
4.47,-0.344,0.931,0.023
4.48,0.056,0.675,0.067
4.49,-0.544,0.546,-0.184
4.5,-0.086,1.887,0.074
4.51,-0.057,0.767,0.051
4.52,0.018,0.975,0.001
4.53,-0.392,0.28,-0.2
4.54,-0.186,1.91,0.131
4.55,-0.205,0.723,0.08
4.56,-0.066,0.901,0.004
4.57,-0.475,0.653,-0.193
4.58,-0.001,1.617,0.219
4.59,-0.269,1.268,0.04
4.6,0.053,0.48,-0.06
4.61,-0.423,1.021,-0.182
4.62,-0.033,1.333,0.171
4.63,-0.27,1.114,0.065
4.64,-0.009,0.673,-0.014
4.65,-0.454,0.581,-0.113
4.66,-0.062,1.562,0.125
4.67,-0.193,0.754,0.096
4.68,-0.143,1.147,-0.051
4.69,-0.293,0.23,-0.153
4.7,-0.045,1.802,0.158
4.71,-0.148,0.837,0.05
4.72,-0.073,0.877,-0.07
4.73,-0.401,0.641,-0.162
4.74,-0.064,1.162,0.156
4.75,-0.359,1.284,0.014
4.76,0.083,0.553,-0.151
4.77,-0.404,0.958,-0.131
4.78,0.028,0.96,0.184
4.79,-0.335,1.199,0.053
4.8,-0.125,0.757,-0.178
4.81,-0.405,0.563,-0.102
4.82,-0.083,1.298,0.179
4.83,-0.149,0.982,0.003
4.84,-0.219,0.901,-0.111
4.85,-0.337,0.329,-0.079
4.86,-0.098,1.385,0.182
4.87,-0.249,0.754,0.034
4.88,-0.294,0.928,-0.161
4.89,-0.371,0.701,-0.111
4.9,0.019,0.99,0.21
4.91,-0.281,1.256,0.028
4.92,-0.137,0.424,-0.151
4.93,-0.436,1.029,-0.086
4.94,0.072,0.819,0.208
4.95,-0.37,1.332,0.002
4.96,-0.2,0.487,-0.11
4.97,-0.332,0.828,-0.051
4.98,0.019,1.17,0.205
4.99,-0.143,0.712,-0.009
5.0,-0.467,0.911,-0.171
5.01,-0.183,0.594,-0.074
5.02,-0.103,1.246,0.164
5.03,-0.217,0.692,-0.039
5.04,-0.427,0.758,-0.106
5.05,-0.259,1.576,-0.05
5.06,0.0,0.786,0.217
5.07,-0.256,1.073,0.034
5.08,-0.344,0.37,-0.189
5.09,-0.363,1.966,-0.049
5.1,0.053,0.626,0.193
5.11,-0.193,1.09,0.075
5.12,-0.427,0.499,-0.195
5.13,-0.317,1.743,0.016
5.14,-0.127,0.888,0.16
5.15,-0.069,0.632,0.075
5.16,-0.392,0.858,-0.242
5.17,-0.071,1.731,0.03
5.18,-0.107,1.181,0.071
5.19,0.182,0.47,0.009
5.2,-0.557,0.893,-0.221
5.21,0.064,1.767,0.06
5.22,-0.205,1.008,0.05
5.23,0.038,0.707,-0.008
5.24,-0.48,0.51,-0.213
5.25,-0.033,2.0,0.122
5.26,-0.156,0.646,0.063
5.27,0.009,1.028,-0.026
5.28,-0.415,0.281,-0.162
5.29,-0.128,1.958,0.142
5.3,-0.186,0.858,0.058
5.31,0.013,0.782,-0.031
5.32,-0.469,0.736,-0.172
5.33,0.031,1.527,0.249
5.34,-0.347,1.239,0.106
5.35,0.081,0.477,-0.027
5.36,-0.571,0.967,-0.141
5.37,-0.004,1.254,0.199
5.38,-0.368,1.147,0.103
5.39,-0.019,0.783,-0.072
5.4,-0.364,0.449,-0.068
5.41,-0.125,1.57,0.136
5.42,-0.155,0.712,0.116
5.43,-0.209,1.13,-0.097
5.44,-0.318,0.236,-0.123
5.45,-0.093,1.481,0.121
5.46,-0.222,0.985,0.03
5.47,-0.086,0.821,-0.129
5.48,-0.378,0.748,-0.113
5.49,-0.056,0.925,0.228
5.5,-0.395,1.368,0.043
5.51,-0.125,0.459,-0.177
5.52,-0.387,0.979,-0.11
5.53,0.038,0.913,0.212
5.54,-0.254,1.059,0.0
5.55,-0.305,0.696,-0.172
5.56,-0.339,0.594,-0.072
5.57,-0.155,1.238,0.238
5.58,-0.196,0.738,0.017
5.59,-0.407,0.892,-0.1
5.6,-0.298,0.525,-0.069
5.61,0.014,1.234,0.196
5.62,-0.179,0.823,0.042
5.63,-0.431,0.694,-0.116
5.64,-0.24,1.398,-0.06
5.65,0.052,0.77,0.208
5.66,-0.221,1.158,0.034
5.67,-0.283,0.347,-0.133
5.68,-0.481,1.519,-0.07
5.69,0.086,0.691,0.149
5.7,-0.256,1.104,0.04
5.71,-0.328,0.545,-0.187
5.72,-0.257,1.68,-0.006
5.73,-0.053,1.042,0.212
5.74,-0.072,0.542,0.088
5.75,-0.465,1.017,-0.155
5.76,-0.276,1.587,0.002
5.77,-0.049,1.01,0.12
5.78,-0.07,0.675,0.076
5.79,-0.439,0.766,-0.19
5.8,-0.363,1.867,0.095
5.81,-0.102,0.554,0.145
5.82,-0.124,1.041,0.074
5.83,-0.349,0.289,-0.221
5.84,-0.214,2.0,0.054
5.85,0.063,0.798,0.121
5.86,-0.022,0.868,0.047
5.87,-0.444,0.497,-0.157
5.88,-0.084,2.0,0.099
5.89,-0.223,0.988,0.042
5.9,0.196,0.543,-0.037
5.91,-0.591,0.999,-0.259
5.92,0.098,1.609,0.126
5.93,-0.316,1.155,0.042
5.94,0.116,0.541,0.026
5.95,-0.596,0.691,-0.13
5.96,-0.095,1.668,0.122
5.97,-0.336,0.904,0.112
5.98,-0.006,0.939,-0.064
5.99,-0.362,0.331,-0.106
6.0,-0.04,1.605,0.175
6.01,-0.141,0.773,0.168
6.02,-0.164,1.049,-0.098
6.03,-0.364,0.334,-0.109
6.04,-0.055,1.51,0.133
6.05,-0.279,0.939,0.049
6.06,0.029,0.749,-0.14
6.07,-0.393,0.778,-0.176
6.08,0.016,0.931,0.151
6.09,-0.397,1.308,-0.0
6.1,-0.186,0.531,-0.153
6.11,-0.399,0.847,-0.089
6.12,-0.024,0.964,0.227
6.13,-0.26,1.137,0.06
6.14,-0.27,0.812,-0.171
6.15,-0.393,0.417,-0.09
6.16,-0.139,1.358,0.236
6.17,-0.19,0.781,0.035
6.18,-0.336,0.957,-0.107
6.19,-0.293,0.518,-0.063
6.2,-0.026,1.251,0.195
6.21,-0.236,0.871,0.025
6.22,-0.399,0.598,-0.1
6.23,-0.349,1.189,-0.057
6.24,0.04,0.782,0.198
6.25,-0.3,1.207,0.062
6.26,-0.341,0.373,-0.155
6.27,-0.385,1.322,-0.063
6.28,0.065,0.822,0.16
6.29,-0.266,0.993,-0.029
6.3,-0.341,0.686,-0.205
6.31,-0.231,1.421,-0.1
6.32,0.034,1.126,0.117
6.33,-0.081,0.564,0.06
6.34,-0.446,0.967,-0.172
6.35,-0.338,1.453,-0.001
6.36,-0.097,0.906,0.158
6.37,-0.108,0.794,0.067
6.38,-0.441,0.582,-0.192
6.39,-0.324,1.995,0.062
6.4,-0.133,0.567,0.153
6.41,-0.076,1.059,0.071
6.42,-0.357,0.31,-0.176
6.43,-0.427,2.0,0.046
6.44,-0.054,0.689,0.101
6.45,-0.059,0.858,0.062
6.46,-0.498,0.624,-0.207
6.47,-0.147,1.844,0.091
6.48,-0.253,1.04,0.07
6.49,0.155,0.47,0.039
6.5,-0.483,0.942,-0.256
6.51,-0.031,1.708,0.081
6.52,-0.156,0.976,0.032
6.53,0.06,0.658,0.001
6.54,-0.497,0.591,-0.177
6.55,-0.032,2.0,0.04
6.56,-0.125,0.692,0.116
6.57,0.046,1.012,-0.012
6.58,-0.43,0.26,-0.171
6.59,-0.101,2.0,0.122
6.6,-0.142,0.816,0.05
6.61,-0.024,0.823,-0.069
6.62,-0.355,0.629,-0.202
6.63,0.055,1.66,0.156
6.64,-0.261,1.173,0.072
6.65,0.067,0.454,-0.075
6.66,-0.518,0.939,-0.187
6.67,0.048,1.338,0.165
6.68,-0.296,1.22,0.034
6.69,0.003,0.698,-0.051
6.7,-0.309,0.579,-0.151
6.71,-0.119,1.629,0.103
6.72,-0.113,0.704,0.11
6.73,-0.163,1.134,-0.054
6.74,-0.32,0.212,-0.13
6.75,0.014,1.804,0.158
6.76,-0.139,0.859,0.04
6.77,-0.044,0.87,-0.114
6.78,-0.398,0.431,-0.137
6.79,-0.106,1.193,0.187
6.8,-0.298,1.082,-0.06
6.81,-0.129,0.648,-0.186
6.82,-0.468,0.896,-0.092
6.83,0.084,0.84,0.207
6.84,-0.397,1.198,0.042
6.85,-0.242,0.491,-0.103
6.86,-0.483,0.863,-0.098
6.87,0.024,0.939,0.194
6.88,-0.333,1.059,0.013
6.89,-0.293,0.734,-0.103
6.9,-0.292,0.577,-0.078
6.91,-0.047,1.331,0.203
6.92,-0.16,0.596,0.082
6.93,-0.455,0.933,-0.152
6.94,-0.28,0.778,-0.039
6.95,-0.046,1.114,0.186
6.96,-0.202,0.921,0.036
6.97,-0.366,0.535,-0.13
6.98,-0.385,1.197,-0.055
6.99,0.033,0.703,0.19
7.0,-0.27,1.27,0.017
7.01,-0.359,0.312,-0.181
7.02,-0.227,1.432,-0.141
7.03,0.037,0.843,0.133
7.04,-0.179,0.921,-0.002
7.05,-0.395,0.672,-0.222
7.06,-0.164,1.419,-0.085
7.07,-0.085,1.149,0.146
7.08,-0.065,0.517,0.076
7.09,-0.472,0.968,-0.192
7.1,-0.262,1.392,-0.051
7.11,-0.098,0.845,0.134
7.12,-0.12,0.876,0.015
7.13,-0.333,0.471,-0.245
7.14,-0.339,1.929,0.026
7.15,-0.07,0.492,0.102
7.16,-0.179,1.119,0.066
7.17,-0.327,0.253,-0.155
7.18,-0.362,2.0,0.019
7.19,-0.026,0.787,0.097
7.2,0.061,0.74,0.029
7.21,-0.574,0.755,-0.182
7.22,-0.226,1.736,0.117
7.23,-0.295,0.958,0.12
7.24,0.07,0.565,0.095
7.25,-0.576,0.903,-0.216
7.26,-0.065,1.688,0.068
7.27,-0.211,0.951,0.083
7.28,0.073,0.661,0.024
7.29,-0.438,0.532,-0.232
7.3,-0.124,1.979,0.025
7.31,0.062,0.705,0.079
7.32,0.005,0.992,0.002
7.33,-0.404,0.286,-0.252
7.34,-0.004,2.0,0.088
7.35,-0.225,0.763,0.082
7.36,-0.023,0.757,-0.062
7.37,-0.493,0.712,-0.22
7.38,-0.005,1.633,0.212
7.39,-0.334,1.214,0.1
7.4,0.132,0.407,-0.026
7.41,-0.554,0.968,-0.168
7.42,0.003,1.307,0.202
7.43,-0.339,1.035,0.123
7.44,-0.037,0.721,-0.027
7.45,-0.459,0.521,-0.159
7.46,-0.05,1.713,0.145
7.47,-0.19,0.689,0.068
7.48,-0.101,1.113,-0.075
7.49,-0.363,0.248,-0.171
7.5,0.002,1.702,0.103
7.51,-0.224,0.866,0.053
7.52,-0.047,0.791,-0.064
7.53,-0.394,0.735,-0.162
7.54,0.007,1.192,0.146
7.55,-0.359,1.247,0.086
7.56,0.066,0.567,-0.074
7.57,-0.531,0.877,-0.106
7.58,0.058,0.927,0.211
7.59,-0.331,1.347,0.078
7.6,-0.127,0.564,-0.123
7.61,-0.458,0.815,-0.053
7.62,-0.036,1.058,0.235
7.63,-0.246,0.964,0.03
7.64,-0.336,0.843,-0.101
7.65,-0.376,0.514,-0.077
7.66,-0.017,1.432,0.185
7.67,-0.206,0.589,0.062
7.68,-0.44,0.968,-0.118
7.69,-0.379,0.591,-0.093
7.7,-0.057,1.106,0.18
7.71,-0.25,0.988,0.021
7.72,-0.312,0.472,-0.148
7.73,-0.318,1.329,-0.067
7.74,0.081,0.807,0.2
7.75,-0.351,1.227,0.087
7.76,-0.291,0.361,-0.141
7.77,-0.342,1.42,-0.076
7.78,0.126,0.987,0.187
7.79,-0.169,0.777,0.033
7.8,-0.409,0.872,-0.239
7.81,-0.27,0.949,-0.063
7.82,-0.057,1.181,0.172
7.83,-0.123,0.622,0.04
7.84,-0.435,0.887,-0.176
7.85,-0.221,1.426,-0.073
7.86,-0.031,0.919,0.168
7.87,-0.144,0.899,0.021
7.88,-0.326,0.539,-0.213
7.89,-0.314,1.925,-0.087
7.9,0.026,0.568,0.142
7.91,-0.185,1.186,0.06
7.92,-0.363,0.349,-0.216
7.93,-0.366,1.815,-0.007
7.94,-0.075,0.695,0.151
7.95,-0.153,0.853,0.109
7.96,-0.446,0.702,-0.204
7.97,-0.374,1.543,0.051
7.98,-0.187,1.104,0.186
7.99,0.05,0.492,0.11
8.0,-0.475,0.963,-0.232
8.01,-0.27,1.656,0.048
8.02,-0.129,0.856,0.124
8.03,-0.016,0.844,0.084
8.04,-0.501,0.466,-0.222
8.05,-0.332,2.0,0.123
8.06,-0.135,0.522,0.117
8.07,-0.089,1.059,0.065
8.08,-0.373,0.345,-0.224
8.09,-0.249,2.0,0.033
8.1,-0.065,0.8,0.131
8.11,0.073,0.725,0.049
8.12,-0.457,0.717,-0.22
8.13,-0.08,1.802,0.08
8.14,-0.27,1.079,0.106
8.15,0.201,0.543,0.055
8.16,-0.641,0.883,-0.19
8.17,-0.067,1.776,0.126
8.18,-0.32,0.911,0.097
8.19,0.028,0.73,0.042
8.2,-0.523,0.489,-0.152
8.21,-0.08,2.0,0.083
8.22,-0.134,0.634,0.14
8.23,0.002,1.023,0.018
8.24,-0.418,0.249,-0.165
8.25,-0.039,2.0,0.089
8.26,-0.206,0.792,0.086
8.27,-0.001,0.748,-0.023
8.28,-0.553,0.729,-0.208
8.29,0.015,1.578,0.183
8.3,-0.324,1.256,0.11
8.31,0.124,0.412,-0.015
8.32,-0.598,0.965,-0.16
8.33,-0.066,1.303,0.16
8.34,-0.373,1.006,0.096
8.35,0.04,0.851,-0.024
8.36,-0.413,0.417,-0.177
8.37,-0.005,1.831,0.17
8.38,-0.085,0.719,0.008
8.39,-0.073,1.105,-0.067
8.4,-0.407,0.299,-0.136
8.41,-0.056,1.711,0.168
8.42,-0.23,0.785,0.03
8.43,-0.078,0.975,-0.086
8.44,-0.374,0.488,-0.192
8.45,-0.125,1.257,0.173
8.46,-0.316,1.082,0.016
8.47,-0.07,0.66,-0.128
8.48,-0.419,0.876,-0.139
8.49,0.018,0.947,0.227
8.5,-0.322,1.375,0.104
8.51,-0.073,0.599,-0.159
8.52,-0.473,0.752,-0.078
8.53,-0.082,1.217,0.212
8.54,-0.259,1.016,0.024
8.55,-0.182,0.888,-0.102
8.56,-0.36,0.373,-0.092
8.57,-0.033,1.436,0.151
8.58,-0.242,0.65,0.035
8.59,-0.377,1.006,-0.092
8.6,-0.381,0.469,-0.115
8.61,-0.078,1.164,0.207
8.62,-0.212,1.065,0.034
8.63,-0.209,0.584,-0.124
8.64,-0.485,1.005,-0.088
8.65,0.017,0.828,0.233
8.66,-0.334,1.395,0.028
8.67,-0.176,0.356,-0.101
8.68,-0.395,1.113,-0.045
8.69,0.112,1.069,0.211
8.7,-0.353,0.738,0.061
8.71,-0.358,0.896,-0.131
8.72,-0.463,0.398,-0.096
8.73,-0.052,1.305,0.184
8.74,-0.172,0.717,0.035
8.75,-0.414,0.916,-0.162
8.76,-0.329,0.645,0.006
8.77,-0.064,1.001,0.199
8.78,-0.285,1.05,0.022
8.79,-0.309,0.378,-0.087
8.8,-0.236,1.808,-0.119
8.81,0.069,0.726,0.167
8.82,-0.203,1.13,0.116
8.83,-0.404,0.399,-0.173
8.84,-0.456,1.101,-0.0
8.85,-0.035,0.903,0.153
8.86,-0.214,0.908,0.002
8.87,-0.177,0.708,0.1
8.88,-0.185,1.135,-0.119
8.89,-0.376,0.371,-0.121
8.9,0.011,1.725,0.185
8.91,-0.113,1.027,0.066
8.92,-0.037,0.67,-0.08
8.93,-0.498,0.841,-0.095
8.94,0.002,1.043,0.143
8.95,-0.343,1.465,0.055
8.96,0.056,0.387,-0.109
8.97,-0.42,0.884,-0.177
8.98,0.064,1.112,0.103
8.99,-0.213,0.929,-0.011
9.0,-0.21,0.978,-0.205
9.01,-0.281,0.342,-0.125
9.02,-0.133,1.547,0.18
9.03,-0.083,0.915,0.115
9.04,-0.115,0.94,-0.125
9.05,-0.359,0.407,-0.122
9.06,-0.055,1.277,0.163
9.07,-0.384,0.978,0.025
9.08,-0.13,0.709,-0.164
9.09,-0.416,0.812,-0.136
9.1,-0.033,0.935,0.204
9.11,-0.334,1.356,0.108
9.12,-0.183,0.517,-0.163
9.13,-0.322,1.049,-0.072
9.14,-0.089,0.77,0.234
9.15,-0.343,1.444,0.036
9.16,-0.233,0.366,-0.13
9.17,-0.233,1.246,-0.042
9.18,0.024,1.109,0.173
9.19,-0.119,0.615,-0.021
9.2,-0.482,0.987,-0.178
9.21,-0.229,0.778,-0.048
9.22,-0.102,1.161,0.198
9.23,-0.166,0.671,0.023
9.24,-0.445,0.812,-0.176
9.25,-0.301,1.104,-0.006
9.26,-0.0,0.806,0.134
9.27,-0.305,1.116,-0.044
9.28,-0.198,0.309,-0.175
9.29,-0.353,2.0,-0.057
9.3,0.11,0.614,0.148
9.31,-0.188,1.02,0.035
9.32,-0.438,0.525,-0.171
9.33,-0.394,1.746,0.046
9.34,-0.077,0.745,0.145
9.35,-0.115,0.721,0.031
9.36,-0.525,0.913,-0.259
9.37,-0.174,1.461,0.065
9.38,-0.238,1.005,0.144
9.39,-0.012,0.582,0.108
9.4,-0.47,0.729,-0.206
9.41,-0.077,1.797,0.001
9.42,0.057,1.003,0.07
9.43,0.053,0.851,-0.001
9.44,-0.436,0.323,-0.189
9.45,-0.206,2.0,0.122
9.46,-0.154,0.523,0.08
9.47,-0.024,1.037,0.035
9.48,-0.544,0.362,-0.202
9.49,-0.065,1.97,0.131
9.5,-0.219,0.97,0.062
9.51,0.103,0.52,0.0
9.52,-0.534,0.854,-0.185
9.53,-0.056,1.35,0.14
9.54,-0.278,1.144,0.116
9.55,0.079,0.587,-0.001
9.56,-0.518,0.83,-0.199
9.57,0.068,1.585,0.144
9.58,-0.385,0.978,0.179
9.59,-0.023,0.946,-0.013
9.6,-0.469,0.355,-0.167
9.61,-0.091,1.697,0.187
9.62,-0.224,0.719,0.103
9.63,-0.072,0.983,-0.099
9.64,-0.247,0.373,-0.179
9.65,-0.086,1.42,0.077
9.66,-0.192,0.919,0.019
9.67,0.008,0.762,-0.157
9.68,-0.444,0.83,-0.173
9.69,0.015,1.155,0.208
9.7,-0.337,1.387,0.081
9.71,0.011,0.452,-0.083
9.72,-0.44,0.845,-0.146
9.73,-0.031,1.124,0.167
9.74,-0.354,1.069,0.041
9.75,-0.153,0.924,-0.139
9.76,-0.27,0.304,-0.142
9.77,-0.164,1.432,0.184
9.78,-0.136,0.744,0.033
9.79,-0.385,1.122,-0.131
9.8,-0.355,0.375,-0.064
9.81,-0.223,1.262,0.267
9.82,-0.24,1.107,0.052
9.83,-0.182,0.624,-0.143
9.84,-0.321,1.095,-0.083
9.85,0.096,0.86,0.183
9.86,-0.411,1.2,0.008
9.87,-0.273,0.444,-0.126
9.88,-0.412,1.067,-0.105
9.89,0.099,0.901,0.177
9.9,-0.214,0.933,0.033
9.91,-0.421,0.779,-0.216
9.92,-0.304,0.65,-0.048
9.93,-0.078,0.952,0.142
9.94,-0.218,0.693,0.034
9.95,-0.423,0.823,-0.155
9.96,-0.25,1.525,0.006
9.97,-0.056,1.192,0.158
9.98,0.025,0.521,0.083
9.99,-0.53,0.875,-0.206
10.0,-0.284,1.902,0.019
10.01,-0.074,0.718,0.105
10.02,-0.035,1.023,0.031
10.03,-0.433,0.291,-0.275
10.04,-0.297,2.0,0.076
10.05,-0.154,0.485,0.059
10.06,-0.154,0.994,0.038
10.07,-0.327,0.423,-0.217
10.08,-0.196,1.921,0.041
10.09,-0.032,0.977,0.167
10.1,0.125,0.548,-0.025
10.11,-0.557,0.905,-0.173
10.12,-0.019,1.515,0.087
10.13,-0.196,1.187,0.096
10.14,0.117,0.534,0.001
10.15,-0.432,0.848,-0.226
10.16,0.083,1.927,0.097
10.17,-0.144,0.807,-0.006
10.18,0.045,0.903,-0.114
10.19,-0.374,0.364,-0.238
10.2,-0.16,1.878,0.071
10.21,-0.077,0.69,0.04
10.22,-0.094,0.966,-0.025
10.23,-0.351,0.336,-0.18
10.24,-0.067,1.626,0.114
10.25,-0.226,0.935,0.1
10.26,-0.011,0.649,-0.059
10.27,-0.512,0.876,-0.129
10.28,0.046,1.341,0.238
10.29,-0.296,1.225,0.078
10.3,0.045,0.475,-0.036
10.31,-0.457,0.838,-0.179
10.32,-0.07,1.158,0.13
10.33,-0.337,1.024,0.068
10.34,-0.165,0.899,-0.07
10.35,-0.333,0.25,-0.132
10.36,-0.15,1.465,0.168
10.37,-0.157,0.785,0.041
10.38,-0.236,1.092,-0.13
10.39,-0.336,0.34,-0.127
10.4,-0.023,1.43,0.155
10.41,-0.179,1.1,-0.012
10.42,-0.024,0.694,-0.157
10.43,-0.51,0.892,-0.103
10.44,0.01,0.917,0.254
10.45,-0.503,1.381,0.101
10.46,-0.024,0.551,-0.092
10.47,-0.495,0.867,-0.111
10.48,0.094,1.005,0.196
10.49,-0.33,0.947,0.064
10.5,-0.357,0.878,-0.107
10.51,-0.411,0.349,-0.035
10.52,-0.12,1.353,0.235
10.53,-0.177,0.703,0.052
10.54,-0.365,0.967,-0.076
10.55,-0.375,0.568,-0.022
10.56,-0.024,1.143,0.196
10.57,-0.353,0.919,-0.012
10.58,-0.235,0.531,-0.108
10.59,-0.321,1.469,-0.11
10.6,0.124,0.799,0.178
10.61,-0.28,1.142,0.123
10.62,-0.37,0.436,-0.159
10.63,-0.432,1.163,-0.035
10.64,0.04,0.845,0.16
10.65,-0.26,0.972,-0.011
10.66,-0.365,0.686,-0.16
10.67,-0.217,1.3,-0.052
10.68,-0.036,1.141,0.202
10.69,-0.098,0.54,0.052
10.7,-0.478,0.983,-0.172
10.71,-0.266,1.474,-0.075
10.72,-0.024,0.937,0.166
10.73,-0.085,0.777,0.039
10.74,-0.482,0.844,-0.272
10.75,-0.247,1.826,0.082
10.76,-0.149,0.682,0.092
10.77,-0.062,0.953,0.052
10.78,-0.328,0.364,-0.285
10.79,-0.25,2.0,0.096
10.8,-0.014,0.623,0.146
10.81,-0.099,0.954,0.059
10.82,-0.427,0.45,-0.172
10.83,-0.154,2.0,0.085
10.84,-0.126,0.896,0.098
10.85,0.13,0.634,0.005
10.86,-0.565,0.855,-0.203
10.87,0.108,1.748,0.085
10.88,-0.28,1.16,0.031
10.89,0.207,0.519,-0.027
10.9,-0.513,0.788,-0.243
10.91,0.085,1.93,0.04
10.92,-0.298,0.821,0.049
10.93,0.093,0.888,-0.04
10.94,-0.523,0.324,-0.159
10.95,-0.151,1.873,0.152
10.96,-0.168,0.664,0.106
10.97,-0.055,0.938,0.015
10.98,-0.405,0.382,-0.166
10.99,-0.065,1.751,0.186
11.0,-0.221,0.959,0.056
11.01,-0.027,0.651,-0.031
11.02,-0.51,0.913,-0.204
11.03,0.047,1.519,0.213
11.04,-0.343,1.252,0.072
11.05,0.06,0.435,0.008
11.06,-0.565,0.853,-0.165
11.07,-0.124,1.184,0.145
11.08,-0.274,0.948,0.088
11.09,-0.172,0.953,-0.013
11.1,-0.279,0.275,-0.104
11.11,-0.12,1.697,0.143
11.12,-0.014,0.716,0.092
11.13,-0.265,1.138,-0.138
11.14,-0.27,0.354,-0.118
11.15,-0.121,1.515,0.163
11.16,-0.167,1.115,0.063
11.17,0.057,0.59,-0.102
11.18,-0.443,0.896,-0.13
11.19,0.034,0.936,0.171
11.2,-0.42,1.273,0.018
11.21,-0.095,0.583,-0.121
11.22,-0.396,0.799,-0.108
11.23,-0.057,1.145,0.22
11.24,-0.143,1.097,0.051
11.25,-0.206,0.92,-0.175
11.26,-0.277,0.361,-0.096
11.27,-0.217,1.409,0.222
11.28,-0.202,0.889,0.001
11.29,-0.185,0.934,-0.134
11.3,-0.355,0.585,-0.111
11.31,0.059,1.28,0.174
11.32,-0.306,0.856,-0.022
11.33,-0.315,0.684,-0.151
11.34,-0.437,0.98,-0.059
11.35,0.008,0.766,0.234
11.36,-0.309,1.3,0.034
11.37,-0.294,0.326,-0.153
11.38,-0.41,1.082,-0.075
11.39,-0.016,0.861,0.171
11.4,-0.233,1.082,-0.003
11.41,-0.335,0.6,-0.112
11.42,-0.329,0.92,-0.008
11.43,-0.013,1.301,0.205
11.44,-0.189,0.566,0.028
11.45,-0.447,1.021,-0.168
11.46,-0.262,0.965,-0.06
11.47,-0.043,1.0,0.166
11.48,-0.144,0.874,-0.029
11.49,-0.41,0.572,-0.124
11.5,-0.326,1.624,-0.048
11.51,0.037,0.645,0.148
11.52,-0.231,1.199,0.015
11.53,-0.331,0.285,-0.214
11.54,-0.298,2.0,0.004
11.55,0.008,0.653,0.132
11.56,-0.022,0.968,0.029
11.57,-0.422,0.456,-0.198
11.58,-0.249,2.0,0.043
11.59,-0.132,0.878,0.07
11.6,0.116,0.619,-0.008
11.61,-0.523,0.873,-0.275
11.62,0.01,1.714,0.06
11.63,-0.252,1.109,0.05
11.64,0.153,0.461,0.026
11.65,-0.521,0.816,-0.224
11.66,-0.009,1.776,0.037
11.67,-0.018,0.937,0.022
11.68,0.074,0.884,-0.019
11.69,-0.363,0.335,-0.226
11.7,-0.112,2.0,0.097
11.71,-0.085,0.639,0.08
11.72,-0.06,0.966,0.004
11.73,-0.434,0.386,-0.18
11.74,-0.045,1.958,0.145
11.75,-0.241,0.921,0.047
11.76,0.082,0.605,-0.017
11.77,-0.523,0.859,-0.171
11.78,0.003,1.364,0.119
11.79,-0.31,1.229,0.083
11.8,0.077,0.528,-0.01
11.81,-0.503,0.874,-0.117
11.82,-0.011,1.562,0.21
11.83,-0.282,0.934,0.12
11.84,-0.09,0.944,-0.026
11.85,-0.366,0.375,-0.147
11.86,-0.078,1.846,0.175
11.87,-0.161,0.751,0.049
11.88,-0.163,0.976,-0.05
11.89,-0.327,0.378,-0.128
11.9,-0.17,1.523,0.121
11.91,-0.338,1.0,0.114
11.92,-0.022,0.738,-0.081
11.93,-0.352,0.846,-0.128
11.94,0.037,1.264,0.205
11.95,-0.318,1.353,0.085
11.96,0.006,0.576,-0.052
11.97,-0.446,0.858,-0.1
11.98,-0.111,1.288,0.215
11.99,-0.262,1.086,0.07
12.0,-0.089,0.837,-0.13
12.01,-0.32,0.385,-0.116
12.02,-0.157,1.426,0.144
12.03,-0.265,0.717,0.029
12.04,-0.384,1.071,-0.061
12.05,-0.393,0.372,-0.054
12.06,-0.154,1.228,0.261
12.07,-0.162,0.973,-0.009
12.08,-0.321,0.704,-0.126
12.09,-0.383,0.89,-0.09
12.1,0.04,0.849,0.242
12.11,-0.402,1.393,0.037
12.12,-0.182,0.305,-0.099
12.13,-0.447,1.142,-0.027
12.14,0.035,0.923,0.229
12.15,-0.331,0.998,0.048
12.16,-0.345,0.676,-0.119
12.17,-0.405,0.61,-0.02
12.18,-0.034,1.23,0.144
12.19,-0.125,0.716,-0.062
12.2,-0.417,0.871,-0.158
12.21,-0.142,0.81,-0.131
12.22,-0.02,1.085,0.139
12.23,-0.116,0.892,-0.055
12.24,-0.449,0.581,-0.155
12.25,-0.213,1.604,-0.066
12.26,0.113,0.695,0.176
12.27,-0.275,1.204,0.031
12.28,-0.376,0.366,-0.174
12.29,-0.376,1.686,0.025
12.3,-0.058,0.674,0.226
12.31,-0.212,1.01,0.051
12.32,-0.386,0.55,-0.235
12.33,-0.154,1.706,0.034
12.34,-0.127,1.157,0.157
12.35,0.09,0.55,-0.04
12.36,-0.491,0.896,-0.203
12.37,-0.035,1.683,0.04
12.38,-0.132,1.118,0.056
12.39,0.104,0.527,-0.018
12.4,-0.545,0.906,-0.219
12.41,0.025,1.787,0.115
12.42,-0.139,0.939,0.055
12.43,0.043,0.839,-0.04
12.44,-0.385,0.384,-0.189
12.45,-0.119,1.911,0.112
12.46,-0.059,0.686,0.017
12.47,-0.07,1.052,-0.055
12.48,-0.344,0.275,-0.233
12.49,0.016,1.85,0.148
12.5,-0.201,0.955,0.06
12.51,-0.057,0.627,-0.084
12.52,-0.47,0.852,-0.148
12.53,0.039,1.345,0.16
12.54,-0.385,1.228,0.068
12.55,0.146,0.559,-0.038
12.56,-0.467,0.86,-0.154
12.57,-0.059,1.208,0.138
12.58,-0.32,1.021,0.066
12.59,-0.092,0.905,-0.077
12.6,-0.273,0.336,-0.092
12.61,-0.143,1.452,0.17
12.62,-0.209,0.781,0.038
12.63,-0.246,1.112,-0.137
12.64,-0.312,0.309,-0.097
12.65,-0.127,1.365,0.197
12.66,-0.225,1.048,0.033
12.67,-0.109,0.714,-0.182
12.68,-0.408,0.891,-0.08
12.69,0.091,0.862,0.192
12.7,-0.354,1.297,-0.013
12.71,-0.181,0.378,-0.105
12.72,-0.359,1.0,-0.018
12.73,0.055,0.961,0.182
12.74,-0.32,0.998,0.031
12.75,-0.341,0.796,-0.215
12.76,-0.335,0.587,0.02
12.77,-0.067,1.208,0.215
12.78,-0.258,0.676,0.055
12.79,-0.455,0.866,-0.066
12.8,-0.241,1.147,0.001
12.81,-0.065,1.082,0.244
12.82,-0.201,0.777,0.031
12.83,-0.434,0.605,-0.194
12.84,-0.272,1.758,-0.031
12.85,0.004,0.592,0.136
12.86,-0.197,1.147,-0.046
12.87,-0.365,0.305,-0.187
12.88,-0.36,1.943,0.061
12.89,-0.083,0.599,0.143
12.9,-0.165,0.892,0.039
12.91,-0.462,0.574,-0.211
12.92,-0.24,1.83,0.065
12.93,-0.153,1.056,0.071
12.94,0.064,0.486,0.075
12.95,-0.558,0.928,-0.195
12.96,-0.089,1.702,0.08
12.97,-0.174,1.063,0.145
12.98,0.042,0.597,0.034
12.99,-0.565,0.642,-0.18
13.0,-0.021,2.0,0.013
13.01,-0.196,0.675,0.105
13.02,0.004,1.006,-0.033
13.03,-0.49,0.272,-0.191
13.04,-0.189,1.984,0.128
13.05,-0.16,0.772,0.107
13.06,-0.016,0.832,0.017
13.07,-0.439,0.543,-0.18
13.08,-0.009,1.513,0.14
13.09,-0.252,1.107,0.032
13.1,0.092,0.56,-0.058
13.11,-0.574,0.956,-0.152
13.12,0.048,1.245,0.205
13.13,-0.334,1.289,0.061
13.14,0.036,0.662,-0.03
13.15,-0.385,0.641,-0.163
13.16,-0.087,1.014,0.181
13.17,-0.27,1.079,-0.035
13.18,-0.179,0.877,-0.136
13.19,-0.317,0.402,-0.079
13.2,-0.169,1.357,0.216
13.21,-0.24,0.728,0.064
13.22,-0.406,1.021,-0.076
13.23,-0.369,0.346,-0.031
13.24,-0.099,1.174,0.241
13.25,-0.385,1.002,0.046
13.26,-0.22,0.646,-0.143
13.27,-0.457,1.034,-0.057
13.28,0.171,0.807,0.18
13.29,-0.375,1.225,-0.023
13.3,-0.301,0.355,-0.162
13.31,-0.29,1.593,-0.098
13.32,0.079,0.78,0.172
13.33,-0.238,0.973,-0.022
13.34,-0.361,0.713,-0.205
13.35,-0.229,1.479,-0.051
13.36,-0.057,1.028,0.169
13.37,-0.062,0.557,0.026
13.38,-0.419,0.899,-0.222
13.39,-0.282,1.489,-0.023
13.4,-0.145,0.917,0.085
13.41,-0.045,0.726,0.023
13.42,-0.422,0.623,-0.211
13.43,-0.303,1.969,0.085
13.44,-0.132,0.508,0.112
13.45,-0.112,1.068,0.056
13.46,-0.37,0.312,-0.22
13.47,-0.287,2.0,0.122
13.48,-0.043,0.687,0.153
13.49,-0.021,0.878,0.019
13.5,-0.462,0.549,-0.223
13.51,-0.037,1.882,0.06
13.52,-0.145,1.078,-0.002
13.53,0.122,0.452,-0.057
13.54,-0.549,0.898,-0.208
13.55,0.072,1.735,0.107
13.56,-0.257,1.142,0.086
13.57,0.113,0.572,-0.011
13.58,-0.572,0.684,-0.191
13.59,-0.069,1.779,0.118
13.6,-0.193,0.758,0.026
13.61,-0.014,1.028,-0.042
13.62,-0.37,0.25,-0.174
13.63,-0.096,1.893,0.163
13.64,-0.214,0.725,0.027
13.65,-0.067,0.963,-0.086
13.66,-0.412,0.494,-0.122
13.67,-0.02,1.399,0.159
13.68,-0.332,1.112,0.09
13.69,0.061,0.556,-0.082
13.7,-0.526,0.934,-0.17
13.71,0.093,1.014,0.168
13.72,-0.394,1.351,0.046
13.73,-0.02,0.644,-0.09
13.74,-0.377,0.678,-0.1
13.75,-0.106,1.324,0.186
13.76,-0.178,0.959,0.014
13.77,-0.218,1.031,-0.118
13.78,-0.268,0.244,-0.077
13.79,-0.179,1.363,0.236
13.8,-0.251,0.793,0.026
13.81,-0.421,0.924,-0.094
13.82,-0.343,0.558,0.002
13.83,-0.103,1.059,0.216
13.84,-0.277,1.066,-0.047
13.85,-0.256,0.479,-0.124
13.86,-0.377,1.09,-0.077
13.87,0.035,0.742,0.189
13.88,-0.363,1.306,0.02
13.89,-0.339,0.343,-0.125
13.9,-0.169,1.447,-0.065
13.91,0.045,0.954,0.169
13.92,-0.16,0.742,-0.018
13.93,-0.447,0.897,-0.192
13.94,-0.211,1.108,-0.036
13.95,-0.104,1.133,0.183
13.96,-0.04,0.577,0.059
13.97,-0.541,0.98,-0.23
13.98,-0.221,1.564,0.083
13.99,-0.191,0.99,0.151
14.0,-0.047,0.628,0.125
14.01,-0.409,0.593,-0.163
14.02,-0.145,2.0,0.022
14.03,-0.003,0.832,0.11
14.04,-0.02,0.928,0.006
14.05,-0.313,0.179,-0.208
14.06,-0.195,2.0,0.065
14.07,-0.113,0.589,0.06
14.08,0.017,0.908,-0.026
14.09,-0.479,0.517,-0.256
14.1,-0.035,1.823,0.119
14.11,-0.271,1.081,0.053
14.12,0.097,0.42,-0.002
14.13,-0.611,0.934,-0.135
14.14,-0.062,1.323,0.199
14.15,-0.305,1.167,0.134
14.16,0.068,0.643,-0.046
14.17,-0.408,0.679,-0.112
14.18,0.063,1.634,0.114
14.19,-0.147,0.835,0.02
14.2,-0.034,1.07,-0.133
14.21,-0.368,0.246,-0.16
14.22,-0.01,1.738,0.169
14.23,-0.302,0.811,0.086
14.24,-0.02,0.987,-0.089
14.25,-0.373,0.479,-0.169
14.26,-0.073,1.197,0.14
14.27,-0.289,1.195,-0.017
14.28,-0.052,0.609,-0.166
14.29,-0.391,0.873,-0.096
14.3,-0.059,0.859,0.225
14.31,-0.302,1.346,0.05
14.32,-0.219,0.531,-0.107
14.33,-0.393,0.76,-0.022
14.34,-0.189,1.108,0.289
14.35,-0.217,1.028,0.022
14.36,-0.34,0.851,-0.111
14.37,-0.202,0.698,-0.029
14.38,-0.062,1.319,0.18
14.39,-0.15,0.606,0.051
14.4,-0.426,0.892,-0.125
14.41,-0.227,0.904,-0.065
14.42,-0.035,0.95,0.172
14.43,-0.242,1.075,-0.002
14.44,-0.304,0.416,-0.177
14.45,-0.476,1.118,-0.028
14.46,-0.007,0.633,0.113
14.47,-0.393,1.342,0.025
14.48,-0.172,0.306,-0.141
14.49,-0.313,1.956,0.061
14.5,0.021,0.957,0.199
14.51,-0.076,0.588,0.038
14.52,-0.549,0.929,-0.141
14.53,-0.292,1.663,0.08
14.54,-0.152,1.063,0.139
14.55,0.092,0.573,0.07
14.56,-0.662,0.883,-0.235
14.57,-0.074,1.663,0.101
14.58,-0.332,0.767,0.027
14.59,-0.111,0.861,0.024
14.6,-0.313,0.331,-0.183
14.61,-0.133,2.0,0.024
14.62,0.134,0.792,0.095
14.63,-0.012,0.888,-0.056
14.64,-0.418,0.26,-0.153
14.65,-0.037,2.0,0.029
14.66,-0.184,0.91,0.089
14.67,-0.006,0.769,-0.043
14.68,-0.5,0.775,-0.189
14.69,0.036,1.854,0.247
14.7,-0.497,1.168,0.066
14.71,0.161,0.397,-0.05
14.72,-0.588,0.915,-0.175
14.73,-0.07,1.13,0.09
14.74,-0.246,1.12,0.058
14.75,-0.062,0.766,-0.06
14.76,-0.188,0.41,-0.109
14.77,-0.047,1.186,0.174
14.78,-0.176,0.786,0.044
14.79,-0.424,1.032,-0.143
14.8,-0.274,0.23,-0.054
14.81,-0.21,1.491,0.257
14.82,-0.145,0.919,0.01
14.83,-0.111,0.932,-0.114
14.84,-0.324,0.884,-0.048
14.85,0.091,1.082,0.182
14.86,-0.353,1.06,-0.03
14.87,-0.234,0.51,-0.108
14.88,-0.299,1.629,-0.063
14.89,0.134,0.731,0.134
14.9,-0.212,1.091,0.052
14.91,-0.347,0.46,-0.243
14.92,-0.419,1.09,-0.035
14.93,-0.074,0.845,0.145
14.94,-0.395,0.911,-0.05
14.95,-0.187,0.632,-0.122
14.96,-0.174,1.717,-0.026
14.97,0.011,1.258,0.176
14.98,0.027,0.39,0.061
14.99,-0.495,1.013,-0.193
15.0,-0.262,1.708,0.054
15.01,-0.076,0.87,0.105
15.02,-0.089,0.839,0.065
15.03,-0.501,0.468,-0.192
15.04,-0.306,2.0,0.102
15.05,-0.177,0.5,0.078
15.06,-0.224,1.062,0.042
15.07,-0.295,0.234,-0.207
15.08,-0.174,1.843,-0.001
15.09,0.091,1.038,0.068
15.1,0.009,0.51,-0.074
15.11,-0.414,0.776,-0.19
15.12,0.013,1.643,0.158
15.13,-0.212,1.186,0.08
15.14,0.11,0.582,-0.058
15.15,-0.579,0.928,-0.252
15.16,0.118,1.747,0.137
15.17,-0.317,1.094,0.024
15.18,0.083,0.746,-0.038
15.19,-0.456,0.431,-0.143
15.2,-0.084,1.582,0.078
15.21,-0.204,0.646,0.053
15.22,-0.094,1.208,-0.084
15.23,-0.299,0.196,-0.083
15.24,-0.14,1.468,0.178
15.25,-0.174,0.861,0.079
15.26,-0.171,0.911,-0.154
15.27,-0.438,0.735,-0.126
15.28,-0.024,1.151,0.164
15.29,-0.369,1.391,0.054
15.3,0.034,0.445,-0.117
15.31,-0.44,0.952,-0.08
15.32,0.023,0.871,0.224
15.33,-0.394,1.221,-0.009
15.34,-0.281,0.712,-0.128
15.35,-0.304,0.629,-0.004
15.36,-0.06,1.296,0.226
15.37,-0.221,0.543,0.058
15.38,-0.436,1.088,-0.151
15.39,-0.36,0.437,-0.021
15.4,-0.151,1.144,0.246
15.41,-0.299,0.891,-0.021
15.42,-0.327,0.623,-0.107
15.43,-0.205,1.615,-0.088
15.44,0.094,0.81,0.19
15.45,-0.318,1.093,0.011
15.46,-0.381,0.343,-0.186
15.47,-0.319,2.0,-0.018
15.48,0.047,0.623,0.121
15.49,-0.193,1.016,0.048
15.5,-0.401,0.573,-0.249
15.51,-0.284,1.743,0.034
15.52,-0.11,0.867,0.161
15.53,-0.068,0.575,0.067
15.54,-0.518,0.885,-0.193
15.55,-0.062,1.645,0.03
15.56,-0.107,1.16,0.144
15.57,0.087,0.524,0.091
15.58,-0.564,0.931,-0.191
15.59,0.033,1.691,0.068
15.6,-0.183,1.014,0.062
15.61,-0.001,0.777,-0.034
15.62,-0.497,0.458,-0.167
15.63,-0.131,1.94,0.191
15.64,-0.137,0.766,0.092
15.65,-0.103,0.995,-0.015
15.66,-0.367,0.28,-0.145
15.67,-0.177,1.611,0.143
15.68,-0.235,0.812,0.101
15.69,-0.003,0.84,-0.088
15.7,-0.427,0.695,-0.138
15.71,0.018,1.209,0.195
15.72,-0.339,1.245,0.08
15.73,0.051,0.573,-0.085
15.74,-0.564,0.923,-0.111
15.75,-0.021,1.061,0.223
15.76,-0.361,1.289,0.074
15.77,-0.041,0.738,-0.092
15.78,-0.401,0.495,-0.086
15.79,-0.093,1.267,0.204
15.8,-0.275,0.707,0.028
15.81,-0.425,1.067,-0.061
15.82,-0.37,0.29,-0.052
15.83,-0.12,1.3,0.239
15.84,-0.285,0.828,0.024
15.85,-0.319,0.783,-0.125
15.86,-0.41,0.794,-0.057
15.87,0.02,0.857,0.207
15.88,-0.479,1.262,-0.005
15.89,-0.139,0.308,-0.1
15.9,-0.389,1.466,-0.08
15.91,0.149,0.767,0.159
15.92,-0.256,1.143,-0.04
15.93,-0.453,0.564,-0.167
15.94,-0.211,1.187,-0.037
15.95,-0.073,1.029,0.154
15.96,-0.113,0.669,0.0
15.97,-0.403,0.912,-0.227
15.98,-0.155,1.4,-0.022
15.99,-0.142,0.987,0.085
16.0,-0.021,0.668,0.029
16.01,-0.431,0.708,-0.208
16.02,-0.173,1.906,-0.012
16.03,-0.098,0.808,0.161
16.04,0.008,0.88,0.071
16.05,-0.388,0.289,-0.195
16.06,-0.3,2.0,0.059
16.07,-0.089,0.552,0.042
16.08,-0.026,0.997,-0.005
16.09,-0.536,0.41,-0.265
16.1,-0.092,1.998,0.092
16.11,-0.241,0.955,0.08
16.12,0.088,0.472,-0.02
16.13,-0.562,0.89,-0.159
16.14,-0.083,1.445,0.149
16.15,-0.209,1.292,0.028
16.16,0.023,0.511,0.016
16.17,-0.434,0.765,-0.196
16.18,0.018,1.704,0.143
16.19,-0.165,0.918,0.01
16.2,-0.017,0.931,-0.087
16.21,-0.266,0.28,-0.22
16.22,-0.097,1.812,0.125
16.23,-0.151,0.716,0.055
16.24,-0.125,1.044,-0.063
16.25,-0.33,0.341,-0.163
16.26,-0.107,1.401,0.087
16.27,-0.197,1.094,0.026
16.28,-0.064,0.663,-0.152
16.29,-0.37,0.835,-0.091
16.3,-0.065,0.905,0.231
16.31,-0.386,1.365,0.045
16.32,-0.11,0.556,-0.125
16.33,-0.425,0.833,-0.099
16.34,-0.023,0.974,0.246
16.35,-0.313,1.091,-0.068
16.36,-0.27,0.78,-0.132
16.37,-0.267,0.666,-0.051
16.38,0.028,1.103,0.239
16.39,-0.159,0.603,-0.008
16.4,-0.454,0.973,-0.205
16.41,-0.234,1.04,0.023
16.42,-0.154,1.039,0.205
16.43,-0.161,0.756,-0.013
16.44,-0.507,0.667,-0.19
16.45,-0.268,1.391,0.03
16.46,-0.202,0.687,0.142
16.47,-0.244,1.036,0.016
16.48,-0.291,0.287,-0.167
16.49,-0.314,2.0,0.093
16.5,0.114,0.696,0.173
16.51,-0.083,0.927,0.058
16.52,-0.429,0.444,-0.233
16.53,-0.161,2.0,0.091
16.54,-0.092,0.95,0.046
16.55,0.046,0.591,-0.015
16.56,-0.602,0.842,-0.188
16.57,-0.01,1.726,0.109
16.58,-0.293,1.099,0.05
16.59,0.147,0.47,-0.023
16.6,-0.49,0.804,-0.171
16.61,-0.155,1.431,0.09
16.62,-0.142,0.89,0.05
16.63,-0.098,0.974,-0.033
16.64,-0.255,0.268,-0.106
16.65,-0.113,1.917,0.179
16.66,-0.03,0.68,0.057
16.67,-0.122,1.1,-0.1
16.68,-0.372,0.356,-0.14
16.69,-0.111,1.513,0.147
16.7,-0.267,1.129,-0.0
16.71,0.039,0.538,-0.087
16.72,-0.391,0.866,-0.102
16.73,0.055,0.854,0.169
16.74,-0.495,1.176,0.017
16.75,-0.196,0.654,-0.123
16.76,-0.4,0.789,-0.098
16.77,-0.037,0.961,0.213
16.78,-0.263,1.021,0.018
16.79,-0.364,0.858,-0.151
16.8,-0.26,0.496,-0.044
16.81,-0.102,1.25,0.161
16.82,-0.236,0.681,-0.03
16.83,-0.414,0.887,-0.124
16.84,-0.112,1.457,-0.054
16.85,0.004,1.095,0.216
16.86,-0.023,0.716,0.032
16.87,-0.487,0.692,-0.229
16.88,-0.213,1.935,0.019
16.89,-0.043,0.485,0.163
16.9,-0.136,1.146,0.055
16.91,-0.474,0.308,-0.221
16.92,-0.302,1.941,0.08
16.93,-0.153,0.59,0.12
16.94,-0.191,0.858,0.06
16.95,-0.459,0.584,-0.182
16.96,-0.171,1.791,0.048
16.97,-0.057,1.156,0.119
16.98,0.163,0.411,0.002
16.99,-0.57,0.97,-0.207
17.0,-0.01,1.673,0.039
17.01,-0.135,1.061,0.068
17.02,0.062,0.694,-0.015
17.03,-0.451,0.556,-0.185
17.04,-0.128,2.0,0.094
17.05,-0.147,0.588,0.011
17.06,-0.053,0.995,-0.018
17.07,-0.45,0.294,-0.215
17.08,-0.165,1.819,0.135
17.09,-0.12,0.748,0.066
17.1,-0.051,0.776,-0.073
17.11,-0.372,0.592,-0.172
17.12,-0.081,1.345,0.065
17.13,-0.259,1.128,0.079
17.14,0.025,0.614,-0.077
17.15,-0.508,0.948,-0.085
17.16,0.018,1.281,0.255
17.17,-0.276,1.303,0.056
17.18,-0.014,0.658,-0.083
17.19,-0.39,0.851,-0.122
17.2,-0.028,1.011,0.196
17.21,-0.258,1.77,0.049
17.22,-0.261,0.683,0.088
17.23,0.047,0.773,0.044
17.24,-0.561,0.669,-0.202
17.25,-0.082,1.427,0.053
17.26,-0.134,1.309,0.102
17.27,0.046,0.377,-0.017
17.28,-0.491,0.881,-0.136
17.29,0.034,1.644,0.1
17.3,-0.242,1.042,0.076
17.31,-0.019,0.803,-0.07
17.32,-0.42,0.484,-0.201
17.33,0.06,1.925,0.118
17.34,-0.157,0.752,0.017
17.35,-0.053,0.974,-0.081
17.36,-0.301,0.258,-0.159
17.37,-0.135,1.414,0.082
17.38,-0.236,0.809,-0.027
17.39,-0.216,0.828,-0.135
17.4,-0.239,0.628,-0.167
17.41,-0.064,1.108,0.125
17.42,-0.232,1.278,0.021
17.43,-0.142,0.598,-0.208
17.44,-0.359,0.875,-0.072
17.45,-0.085,0.952,0.258
17.46,-0.356,1.371,0.01
17.47,-0.132,0.604,-0.12
17.48,-0.338,0.84,-0.063
17.49,0.049,1.35,0.202
17.5,-0.285,0.575,0.024
17.51,-0.469,1.118,-0.096
17.52,-0.422,0.408,0.01
17.53,-0.067,1.197,0.223
17.54,-0.248,0.763,-0.0
17.55,-0.378,0.791,-0.144
17.56,-0.244,1.316,-0.035
17.57,-0.018,0.779,0.182
17.58,-0.316,1.156,-0.007
17.59,-0.203,0.285,-0.164
17.6,-0.367,2.0,-0.027
17.61,0.197,0.711,0.142
17.62,-0.192,0.981,0.088
17.63,-0.435,0.546,-0.154
17.64,-0.344,1.822,0.108
17.65,-0.15,0.789,0.166
17.66,-0.096,0.675,0.072
17.67,-0.404,0.869,-0.248
17.68,-0.128,1.587,0.036
17.69,-0.102,1.19,0.071
17.7,0.09,0.471,0.043
17.71,-0.394,0.705,-0.185
17.72,-0.088,1.778,0.013
17.73,0.011,0.966,0.061
17.74,-0.067,0.843,-0.027
17.75,-0.373,0.243,-0.159
17.76,-0.221,2.0,0.192
17.77,-0.281,0.531,0.095
17.78,-0.189,0.939,-0.011
17.79,-0.454,0.409,-0.162
17.8,-0.145,1.873,0.149
17.81,-0.143,1.018,0.12
17.82,0.066,0.497,-0.029
17.83,-0.52,0.852,-0.102
17.84,-0.137,1.032,0.141
17.85,-0.3,1.117,0.079
17.86,0.004,0.653,-0.089
17.87,-0.491,0.764,-0.131
17.88,0.108,1.478,0.216
17.89,-0.11,1.043,0.065
17.9,-0.076,0.933,-0.093
17.91,-0.409,0.35,-0.113
17.92,-0.165,1.29,0.19
17.93,-0.235,0.937,0.016
17.94,-0.2,0.934,-0.079
17.95,-0.297,0.445,-0.056
17.96,-0.022,1.425,0.207
17.97,-0.214,0.557,0.021
17.98,-0.433,1.047,-0.14
17.99,-0.407,0.634,-0.079
18.0,-0.113,0.919,0.238
18.01,-0.35,1.23,0.031
18.02,-0.205,0.396,-0.145
18.03,-0.358,1.247,-0.06
18.04,0.122,0.719,0.178
18.05,-0.443,1.266,-0.028
18.06,-0.2,0.414,-0.148
18.07,-0.206,1.65,-0.149
18.08,0.146,1.123,0.15
18.09,-0.096,0.515,0.059
18.1,-0.48,1.079,-0.229
18.11,-0.445,0.881,0.065
18.12,-0.116,1.034,0.197
18.13,-0.21,0.78,0.037
18.14,-0.406,0.722,-0.207
18.15,-0.297,1.724,0.099
18.16,-0.061,0.738,0.176
18.17,-0.137,0.925,0.071
18.18,-0.287,0.326,-0.129
18.19,-0.346,2.0,0.009
18.2,0.214,0.763,0.135
18.21,-0.076,0.97,0.044
18.22,-0.388,0.339,-0.259
18.23,-0.205,2.0,0.009
18.24,-0.246,0.708,0.047
18.25,-0.006,0.675,-0.033
18.26,-0.509,0.783,-0.227
18.27,-0.033,1.596,0.029
18.28,-0.088,1.212,0.072
18.29,0.109,0.383,0.025
18.3,-0.452,0.86,-0.193
18.31,-0.113,1.623,0.053
18.32,-0.033,0.994,0.08
18.33,-0.048,0.844,-0.032
18.34,-0.423,0.336,-0.205
18.35,-0.153,2.0,0.197
18.36,-0.237,0.52,0.091
18.37,-0.098,1.03,-0.004
18.38,-0.478,0.321,-0.211
18.39,-0.189,1.721,0.13
18.4,-0.121,1.009,0.058
18.41,0.021,0.582,-0.014
18.42,-0.436,0.799,-0.142
18.43,-0.027,1.203,0.136
18.44,-0.318,1.1,0.107
18.45,0.019,0.649,-0.027
18.46,-0.533,0.879,-0.204
18.47,0.195,1.6,0.159
18.48,-0.237,1.044,0.037
18.49,0.0,0.801,-0.099
18.5,-0.425,0.42,-0.118
18.51,-0.173,1.468,0.097
18.52,-0.193,0.74,0.02
18.53,-0.123,1.021,-0.084
18.54,-0.248,0.317,-0.128
18.55,-0.076,1.333,0.164
18.56,-0.198,0.788,0.041
18.57,-0.216,0.871,-0.202
18.58,-0.384,0.784,-0.083
18.59,-0.096,0.977,0.237
18.6,-0.272,1.379,0.034
18.61,-0.046,0.455,-0.154
18.62,-0.389,1.032,-0.125
18.63,0.072,0.926,0.241
18.64,-0.402,1.099,-0.034
18.65,-0.361,0.747,-0.104
18.66,-0.317,0.639,-0.03
18.67,-0.096,1.327,0.252
18.68,-0.159,0.567,0.052
18.69,-0.421,0.991,-0.155
18.7,-0.369,0.443,-0.049
18.71,-0.105,1.191,0.197
18.72,-0.264,0.893,0.027
18.73,-0.349,0.616,-0.095
18.74,-0.202,1.544,-0.044
18.75,0.03,0.877,0.185
18.76,-0.123,0.929,0.018
18.77,-0.415,0.494,-0.223
18.78,-0.326,2.0,-0.024
18.79,-0.02,0.541,0.153
18.8,-0.262,1.169,0.09
18.81,-0.359,0.334,-0.265
18.82,-0.395,1.856,0.042
18.83,-0.154,0.697,0.155
18.84,-0.171,0.775,0.068
18.85,-0.429,0.711,-0.2
18.86,-0.205,1.637,0.049
18.87,-0.101,1.24,0.145
18.88,0.126,0.432,0.025
18.89,-0.539,0.906,-0.228
18.9,-0.068,1.83,0.078
18.91,-0.213,0.932,0.096
18.92,0.071,0.791,0.008
18.93,-0.516,0.441,-0.238
18.94,-0.139,2.0,0.126
18.95,-0.129,0.621,0.072
18.96,-0.054,0.963,-0.011
18.97,-0.455,0.286,-0.171
18.98,-0.137,1.957,0.047
18.99,-0.107,0.854,0.065
19.0,0.048,0.741,-0.038
19.01,-0.462,0.709,-0.163
19.02,0.031,1.667,0.144
19.03,-0.306,1.155,0.061
19.04,0.111,0.489,-0.043
19.05,-0.602,0.963,-0.206
19.06,-0.015,1.395,0.183
19.07,-0.293,1.173,0.02
19.08,0.067,0.722,-0.041
19.09,-0.42,0.531,-0.1
19.1,-0.088,1.582,0.095
19.11,-0.181,0.685,0.116
19.12,-0.207,1.179,-0.105
19.13,-0.32,0.201,-0.075
19.14,-0.101,1.674,0.136
19.15,-0.115,0.822,0.084
19.16,-0.103,0.82,-0.09
19.17,-0.378,0.696,-0.147
19.18,-0.025,1.059,0.165
19.19,-0.372,1.32,0.027
19.2,0.031,0.469,-0.098
19.21,-0.416,0.957,-0.106
19.22,0.092,0.92,0.161
19.23,-0.306,1.078,0.036
19.24,-0.254,0.792,-0.194
19.25,-0.365,0.545,-0.119
19.26,-0.071,1.315,0.194
19.27,-0.099,0.924,0.01
19.28,-0.242,1.033,-0.142
19.29,-0.266,0.33,-0.071
19.3,-0.115,1.335,0.178
19.31,-0.367,0.85,0.021
19.32,-0.301,0.788,-0.077
19.33,-0.329,0.919,-0.089
19.34,0.113,0.943,0.165
19.35,-0.31,1.078,0.011
19.36,-0.374,0.426,-0.117
19.37,-0.457,1.158,-0.013
19.38,-0.007,0.711,0.202
19.39,-0.393,1.255,0.024
19.4,-0.229,0.457,-0.141
19.41,-0.224,1.719,-0.09
19.42,0.091,0.998,0.167
19.43,-0.079,0.595,-0.008
19.44,-0.442,0.981,-0.209
19.45,-0.198,1.434,-0.03
19.46,-0.069,1.083,0.161
19.47,-0.1,0.597,0.068
19.48,-0.461,0.883,-0.238
19.49,-0.347,1.442,0.079
19.5,-0.114,0.651,0.162
19.51,-0.228,1.055,0.036
19.52,-0.352,0.309,-0.159
19.53,-0.249,2.0,0.056
19.54,0.078,0.737,0.19
19.55,-0.053,0.943,0.036
19.56,-0.349,0.242,-0.22
19.57,-0.167,2.0,0.033
19.58,-0.108,0.82,0.069
19.59,-0.031,0.83,-0.039
19.6,-0.419,0.636,-0.249
19.61,-0.048,1.864,0.185
19.62,-0.293,1.011,0.042
19.63,0.146,0.452,-0.075
19.64,-0.526,0.977,-0.207
19.65,-0.034,1.264,0.109
19.66,-0.207,1.221,0.049
19.67,-0.066,0.561,-0.036
19.68,-0.306,0.588,-0.14
19.69,-0.126,1.546,0.086
19.7,-0.116,0.655,0.109
19.71,-0.174,1.176,-0.105
19.72,-0.416,0.196,-0.096
19.73,-0.05,1.786,0.238
19.74,-0.185,0.826,0.072
19.75,-0.02,0.9,-0.067
19.76,-0.448,0.602,-0.132
19.77,-0.118,1.126,0.166
19.78,-0.347,1.244,0.003
19.79,0.028,0.528,-0.087
19.8,-0.388,0.918,-0.085
19.81,0.011,0.871,0.197
19.82,-0.337,1.23,0.026
19.83,-0.189,0.724,-0.193
19.84,-0.391,0.607,-0.065
19.85,-0.118,1.259,0.246
19.86,-0.138,1.006,0.027
19.87,-0.198,0.928,-0.171
19.88,-0.285,0.369,-0.127
19.89,-0.13,1.349,0.18
19.9,-0.329,0.781,0.02
19.91,-0.305,0.83,-0.059
19.92,-0.259,0.999,-0.067
19.93,0.089,0.995,0.168
19.94,-0.23,0.977,0.019
19.95,-0.448,0.489,-0.161
19.96,-0.424,1.093,-0.037
19.97,-0.03,0.673,0.15
19.98,-0.33,1.328,0.014
19.99,-0.169,0.391,-0.16
20.0,-0.214,1.856,-0.082
20.01,-0.046,0.868,0.202
20.02,-0.144,0.681,0.041
20.03,-0.439,0.818,-0.159
20.04,-0.242,1.512,-0.033
20.05,-0.056,1.134,0.155
20.06,0.003,0.552,0.065
20.07,-0.529,0.961,-0.254
20.08,-0.332,1.132,0.066
20.09,-0.249,0.736,0.113
20.1,-0.198,1.06,-0.013
20.11,-0.234,0.3,-0.144
20.12,-0.193,2.0,0.063
20.13,0.107,0.706,0.137
20.14,-0.072,0.91,-0.002
20.15,-0.406,0.321,-0.183
20.16,-0.166,1.986,-0.036
20.17,-0.008,0.951,0.044
20.18,0.039,0.72,-0.018
20.19,-0.535,0.779,-0.23
20.2,-0.034,1.859,0.121
20.21,-0.427,0.979,0.083
20.22,0.102,0.479,0.016
20.23,-0.635,0.891,-0.206
20.24,-0.094,1.256,0.115
20.25,-0.217,1.099,0.096
20.26,-0.012,0.679,-0.029
20.27,-0.316,0.404,-0.049
20.28,-0.089,1.684,0.188
20.29,-0.068,0.642,0.125
20.3,-0.17,1.21,-0.168
20.31,-0.368,0.227,-0.15
20.32,0.022,1.765,0.149
20.33,-0.181,0.943,0.023
20.34,0.04,0.744,-0.085
20.35,-0.4,0.544,-0.163
20.36,-0.081,1.078,0.144
20.37,-0.371,1.224,0.007
20.38,-0.121,0.515,-0.108
20.39,-0.444,0.96,-0.073
20.4,0.057,0.857,0.217
20.41,-0.368,1.179,0.09
20.42,-0.28,0.576,-0.116
20.43,-0.371,0.768,-0.033
20.44,-0.189,1.073,0.239
20.45,-0.302,1.119,0.141
20.46,-0.268,0.829,-0.123
20.47,-0.204,0.652,-0.006
20.48,-0.068,1.29,0.181
20.49,-0.258,0.67,0.025
20.5,-0.49,0.93,-0.093
20.51,-0.08,1.363,-0.089
20.52,-0.008,0.966,0.179
20.53,-0.118,0.844,-0.005
20.54,-0.438,0.546,-0.23
20.55,-0.368,1.418,0.03
20.56,-0.033,0.585,0.13
20.57,-0.264,1.312,-0.006
20.58,-0.337,0.211,-0.196
20.59,-0.196,1.963,0.004
20.6,0.06,0.794,0.063
20.61,-0.035,0.696,0.008
20.62,-0.453,0.792,-0.229
20.63,-0.157,1.68,-0.002
20.64,-0.003,1.222,0.117
20.65,0.1,0.442,0.035
20.66,-0.613,1.009,-0.208
20.67,-0.145,1.766,0.153
20.68,-0.258,0.847,0.083
20.69,0.045,0.752,0.063
20.7,-0.494,0.532,-0.219
20.71,-0.116,1.985,0.097
20.72,0.022,0.732,0.082
20.73,-0.007,0.997,-0.018
20.74,-0.388,0.23,-0.19
20.75,-0.143,2.0,0.042
20.76,-0.159,0.807,0.059
20.77,0.042,0.857,-0.002
20.78,-0.563,0.694,-0.204
20.79,0.051,1.637,0.212
20.8,-0.308,1.2,0.04
20.81,0.101,0.462,-0.048
20.82,-0.574,1.001,-0.188
20.83,-0.013,1.184,0.125
20.84,-0.291,1.131,0.07
20.85,-0.022,0.708,-0.057
20.86,-0.365,0.543,-0.119
20.87,-0.096,1.55,0.137
20.88,-0.158,0.788,0.139
20.89,-0.229,1.125,-0.081
20.9,-0.323,0.201,-0.117
20.91,-0.22,1.518,0.172
20.92,-0.284,0.914,0.111
20.93,-0.06,0.855,-0.097
20.94,-0.406,0.62,-0.113
20.95,-0.072,1.044,0.214
20.96,-0.382,1.195,-0.033
20.97,-0.073,0.603,-0.15
20.98,-0.453,0.941,-0.075
20.99,-0.011,0.814,0.242
21.0,-0.311,1.314,0.037
21.01,-0.321,0.613,-0.147
21.02,-0.35,0.665,-0.043
21.03,-0.048,1.148,0.191
21.04,-0.223,0.846,0.043
21.05,-0.409,0.907,-0.118
21.06,-0.219,0.782,0.004
21.07,-0.003,1.252,0.152
21.08,-0.192,0.654,-0.027
21.09,-0.411,0.841,-0.121
21.1,-0.314,1.151,-0.051
21.11,0.022,0.84,0.182
21.12,-0.275,1.053,-0.022
21.13,-0.378,0.454,-0.189
21.14,-0.287,1.956,-0.05
21.15,0.016,0.571,0.155
21.16,-0.129,1.088,0.059
21.17,-0.383,0.273,-0.209
21.18,-0.219,2.0,0.035
21.19,-0.031,0.813,0.131
21.2,0.021,0.771,0.014
21.21,-0.461,0.654,-0.235
21.22,-0.045,1.903,0.079
21.23,-0.149,1.048,0.047
21.24,0.196,0.499,-0.029
21.25,-0.607,0.985,-0.267
21.26,0.032,1.63,0.092
21.27,-0.258,1.091,0.073
21.28,0.119,0.636,0.004
21.29,-0.552,0.638,-0.183
21.3,-0.085,1.748,0.074
21.31,-0.197,0.739,0.116
21.32,-0.041,1.033,-0.036
21.33,-0.387,0.236,-0.167
21.34,-0.101,1.96,0.185
21.35,-0.187,0.737,0.095
21.36,-0.012,0.902,-0.012
21.37,-0.495,0.586,-0.185
21.38,-0.013,1.497,0.206
21.39,-0.373,1.224,0.061
21.4,0.042,0.468,-0.031
21.41,-0.454,0.94,-0.146
21.42,-0.021,1.108,0.154
21.43,-0.323,1.225,0.074
21.44,-0.08,0.671,-0.039
21.45,-0.36,0.595,-0.105
21.46,-0.071,1.416,0.162
21.47,-0.167,0.891,0.081
21.48,-0.178,1.077,-0.109
21.49,-0.363,0.247,-0.107
21.5,-0.232,1.427,0.23
21.51,-0.198,0.891,0.053
21.52,-0.262,0.866,-0.114
21.53,-0.33,0.665,-0.081
21.54,-0.041,1.093,0.217
21.55,-0.349,1.025,0.01
21.56,-0.216,0.525,-0.147
21.57,-0.396,1.031,-0.133
21.58,0.089,0.826,0.184
21.59,-0.313,1.261,0.012
21.6,-0.368,0.448,-0.115
21.61,-0.3,0.928,-0.035
21.62,-0.056,1.006,0.215
21.63,-0.155,0.853,-0.01
21.64,-0.398,0.846,-0.143
21.65,-0.218,0.892,-0.062
21.66,0.024,1.218,0.149
21.67,-0.125,0.609,-0.02
21.68,-0.47,0.937,-0.179
21.69,-0.232,1.298,-0.078
21.7,-0.041,0.823,0.151
21.71,-0.178,0.953,0.006
21.72,-0.339,0.457,-0.203
21.73,-0.275,1.973,-0.042
21.74,0.068,0.573,0.151
21.75,-0.264,1.153,0.058
21.76,-0.369,0.372,-0.196
21.77,-0.379,1.992,-0.032
21.78,-0.049,0.794,0.128
21.79,-0.083,0.717,0.045
21.8,-0.45,0.82,-0.195
21.81,-0.271,1.609,0.054
21.82,-0.202,1.05,0.11
21.83,0.048,0.531,0.081
21.84,-0.527,0.836,-0.223
21.85,-0.172,1.669,0.052
21.86,-0.251,0.788,0.052
21.87,-0.049,0.823,0.04
21.88,-0.437,0.441,-0.219
21.89,-0.099,2.0,0.078
21.9,0.022,0.676,0.142
21.91,-0.031,0.916,0.042
21.92,-0.396,0.294,-0.188
21.93,-0.067,2.0,0.022
21.94,-0.162,0.798,0.078
21.95,0.045,0.816,-0.031
21.96,-0.59,0.704,-0.201
21.97,-0.047,1.748,0.202
21.98,-0.226,1.107,0.04
21.99,0.016,0.48,-0.069
22.0,-0.429,0.957,-0.146
22.01,-0.043,1.035,0.143
22.02,-0.324,1.213,0.095
22.03,0.011,0.555,-0.073
22.04,-0.437,0.736,-0.147
22.05,0.025,1.251,0.133
22.06,-0.271,0.917,0.07
22.07,-0.091,1.082,-0.128
22.08,-0.447,0.282,-0.1
22.09,-0.138,1.458,0.186
22.1,-0.129,0.909,0.027
22.11,-0.24,0.903,-0.114
22.12,-0.277,0.46,-0.095
22.13,-0.109,1.193,0.168
22.14,-0.297,1.041,-0.037
22.15,-0.266,0.676,-0.135
22.16,-0.417,0.874,-0.079
22.17,0.029,0.838,0.236
22.18,-0.346,1.308,0.037
22.19,-0.261,0.471,-0.117
22.2,-0.427,0.983,-0.073
22.21,0.033,0.913,0.197
22.22,-0.289,1.027,-0.032
22.23,-0.265,0.723,-0.17
22.24,-0.145,1.403,-0.116
22.25,0.038,1.299,0.163
22.26,-0.17,0.441,0.094
22.27,-0.457,1.102,-0.175
22.28,-0.357,1.305,-0.067
22.29,-0.033,0.843,0.182
22.3,-0.178,0.913,0.029
22.31,-0.406,0.518,-0.222
22.32,-0.29,1.731,0.001
22.33,-0.056,0.503,0.143
22.34,-0.229,1.216,0.075
22.35,-0.297,0.272,-0.145
22.36,-0.369,2.0,0.001
22.37,0.071,0.841,0.155
22.38,-0.107,0.727,0.052
22.39,-0.479,0.775,-0.204
22.4,-0.302,1.728,0.031
22.41,-0.148,0.911,0.073
22.42,-0.007,0.552,0.027
22.43,-0.538,0.942,-0.217
22.44,-0.216,1.624,0.064
22.45,-0.195,0.886,0.115
22.46,-0.012,0.66,0.074
22.47,-0.469,0.566,-0.167
22.48,-0.149,1.927,0.069
22.49,-0.002,0.806,0.142
22.5,-0.059,0.934,0.007
22.51,-0.417,0.239,-0.156
22.52,-0.098,2.0,0.108
22.53,-0.142,0.725,0.112
22.54,-0.041,0.808,-0.028
22.55,-0.492,0.626,-0.216
22.56,-0.016,1.81,0.153
22.57,-0.322,1.09,0.102
22.58,0.184,0.448,-0.041
22.59,-0.629,0.959,-0.166
22.6,-0.06,1.266,0.135
22.61,-0.27,1.167,0.101
22.62,-0.0,0.644,-0.032
22.63,-0.365,0.616,-0.122
22.64,-0.109,1.751,0.135
22.65,-0.042,0.775,0.091
22.66,-0.184,1.032,-0.086
22.67,-0.295,0.253,-0.151
22.68,-0.084,1.798,0.093
22.69,-0.186,0.773,0.086
22.7,-0.046,0.856,-0.078
22.71,-0.406,0.567,-0.158
22.72,-0.131,1.125,0.141
22.73,-0.361,1.129,0.017
22.74,-0.13,0.569,-0.074
22.75,-0.394,0.947,-0.129
22.76,-0.031,1.111,0.19
22.77,-0.279,1.388,0.07
22.78,-0.239,0.466,-0.179
22.79,-0.371,0.914,-0.041
22.8,-0.031,0.988,0.194
22.81,-0.268,1.177,0.012
22.82,-0.222,0.716,-0.158
22.83,-0.3,0.762,-0.074
22.84,0.003,1.348,0.184
22.85,-0.196,0.548,0.044
22.86,-0.457,1.052,-0.124
22.87,-0.359,0.48,-0.031
22.88,-0.059,1.129,0.198
22.89,-0.169,0.855,-0.014
22.9,-0.351,0.667,-0.139
22.91,-0.236,1.448,-0.096
22.92,0.045,0.699,0.193
22.93,-0.287,1.208,-0.007
22.94,-0.269,0.268,-0.123
22.95,-0.356,1.891,-0.063
22.96,0.104,0.757,0.181
22.97,-0.201,0.933,0.055
22.98,-0.391,0.712,-0.23
22.99,-0.379,1.254,0.016
23.0,-0.076,0.974,0.168
23.01,-0.203,0.648,0.061
23.02,-0.435,0.892,-0.199
23.03,-0.189,1.464,-0.013
23.04,-0.07,1.087,0.124
23.05,-0.054,0.573,0.068
23.06,-0.473,0.75,-0.148
23.07,-0.418,1.925,0.052
23.08,-0.032,0.62,0.139
23.09,-0.114,1.088,0.068
23.1,-0.413,0.358,-0.257
23.11,-0.38,2.0,0.101
23.12,-0.091,0.551,0.119
23.13,-0.125,0.954,0.07
23.14,-0.41,0.473,-0.201
23.15,-0.154,1.864,0.016
23.16,-0.057,1.069,0.116
23.17,0.143,0.523,0.002
23.18,-0.574,0.928,-0.185
23.19,-0.04,1.743,0.077
23.2,-0.274,1.051,0.065
23.21,0.154,0.582,0.034
23.22,-0.536,0.842,-0.223
23.23,-0.036,1.912,0.085
23.24,-0.109,0.757,0.082
23.25,0.014,0.864,-0.01
23.26,-0.397,0.332,-0.2
23.27,-0.208,1.919,0.094
23.28,-0.085,0.721,0.079
23.29,-0.053,1.0,-0.014
23.3,-0.38,0.442,-0.231
23.31,-0.141,1.732,0.194
23.32,-0.212,1.0,0.097
23.33,0.005,0.592,-0.024
23.34,-0.495,0.904,-0.192
23.35,0.019,1.375,0.222
23.36,-0.32,1.259,0.034
23.37,0.029,0.515,0.027
23.38,-0.436,0.838,-0.184
23.39,-0.07,1.339,0.085
23.4,-0.212,0.944,0.082
23.41,-0.119,0.916,-0.038
23.42,-0.353,0.28,-0.097
23.43,-0.081,1.639,0.173
23.44,-0.169,0.694,0.104
23.45,-0.137,1.091,-0.096
23.46,-0.4,0.36,-0.182
23.47,-0.046,1.454,0.155
23.48,-0.251,1.06,-0.008
23.49,0.017,0.592,-0.103
23.5,-0.452,0.856,-0.171
23.51,-0.002,0.942,0.178
23.52,-0.438,1.329,0.05
23.53,-0.07,0.504,-0.1
23.54,-0.407,0.837,-0.075
23.55,-0.072,1.022,0.239
23.56,-0.212,1.076,0.05
23.57,-0.301,0.95,-0.2
23.58,-0.299,0.656,-0.031
23.59,-0.093,1.164,0.207
23.6,-0.153,0.867,0.043
23.61,-0.385,0.907,-0.136
23.62,-0.177,0.841,-0.068
23.63,-0.0,1.331,0.177
23.64,-0.174,0.598,0.02
23.65,-0.345,0.873,-0.161
23.66,-0.323,1.147,-0.048
23.67,0.043,0.864,0.17
23.68,-0.276,1.113,0.051
23.69,-0.345,0.359,-0.162
23.7,-0.384,1.409,-0.007
23.71,0.012,0.676,0.178
23.72,-0.241,1.221,0.012
23.73,-0.306,0.402,-0.183
23.74,-0.312,1.768,-0.07
23.75,0.061,0.965,0.145
23.76,-0.05,0.619,0.014
23.77,-0.564,0.985,-0.198
23.78,-0.25,1.432,-0.028
23.79,-0.149,0.981,0.175
23.8,-0.055,0.642,0.061
23.81,-0.505,0.849,-0.221
23.82,-0.301,1.594,0.021
23.83,-0.133,0.699,0.14
23.84,-0.115,0.953,0.049
23.85,-0.397,0.356,-0.194
23.86,-0.25,2.0,0.014
23.87,0.014,0.662,0.163
23.88,-0.047,0.979,0.098
23.89,-0.435,0.416,-0.16
23.9,-0.279,2.0,0.008
23.91,-0.145,0.759,0.136
23.92,0.056,0.728,0.057
23.93,-0.636,0.829,-0.238
23.94,-0.136,1.608,0.126
23.95,-0.32,1.037,0.122
23.96,0.019,0.448,0.086
23.97,-0.542,0.833,-0.169
23.98,-0.063,1.771,0.056
23.99,-0.135,0.986,0.177
24.0,0.075,0.76,0.037
24.01,-0.481,0.433,-0.208
24.02,-0.042,2.0,0.103
24.03,-0.14,0.591,0.086
24.04,-0.013,1.032,0.006
24.05,-0.508,0.316,-0.22
24.06,-0.069,2.0,0.124
24.07,-0.161,0.823,0.046
24.08,0.046,0.637,-0.042
24.09,-0.509,0.783,-0.191
24.1,-0.039,1.517,0.14
24.11,-0.228,1.239,0.04
24.12,0.087,0.443,-0.028
24.13,-0.47,0.939,-0.164
24.14,-0.037,1.458,0.122
24.15,-0.304,0.993,0.072
24.16,0.03,0.881,-0.009
24.17,-0.423,0.46,-0.165
24.18,0.005,1.908,0.227
24.19,-0.144,0.741,0.047
24.2,-0.129,0.975,-0.073
24.21,-0.408,0.267,-0.176
24.22,-0.118,1.671,0.135
24.23,-0.282,0.844,0.098
24.24,-0.049,0.739,-0.068
24.25,-0.385,0.699,-0.136
24.26,-0.09,1.012,0.177
24.27,-0.335,1.21,0.02
24.28,-0.029,0.552,-0.087
24.29,-0.426,0.907,-0.162
24.3,0.058,1.18,0.162
24.31,-0.239,1.184,0.085
24.32,-0.083,0.823,-0.106
24.33,-0.352,0.506,-0.112
24.34,-0.19,1.349,0.188
24.35,-0.153,0.924,0.031
24.36,-0.266,0.932,-0.095
24.37,-0.315,0.328,-0.103
24.38,-0.132,1.42,0.19
24.39,-0.176,0.525,0.031
24.4,-0.45,1.075,-0.105
24.41,-0.395,0.533,-0.062
24.42,-0.026,1.06,0.186
24.43,-0.232,1.018,0.005
24.44,-0.197,0.528,-0.137
24.45,-0.409,1.315,-0.094
24.46,0.184,0.684,0.147
24.47,-0.357,1.34,0.011
24.48,-0.257,0.297,-0.098
24.49,-0.468,1.403,-0.028
24.5,0.094,0.898,0.182
24.51,-0.232,0.868,0.023
24.52,-0.383,0.821,-0.223
24.53,-0.406,0.825,-0.034
24.54,-0.065,1.118,0.169
24.55,-0.193,0.671,-0.007
24.56,-0.343,0.852,-0.156
24.57,-0.284,1.51,-0.03
24.58,0.01,0.974,0.146
24.59,-0.085,0.733,0.05
24.6,-0.346,0.618,-0.187
24.61,-0.416,1.945,0.002
24.62,-0.074,0.526,0.084
24.63,-0.221,1.177,0.096
24.64,-0.309,0.25,-0.231
24.65,-0.426,1.906,0.095
24.66,-0.11,0.587,0.143
24.67,-0.202,0.904,0.033
24.68,-0.311,0.594,-0.2
24.69,-0.166,1.7,-0.005
24.7,-0.059,1.144,0.111
24.71,0.172,0.417,0.014
24.72,-0.565,0.981,-0.212
24.73,-0.057,1.778,0.064
24.74,-0.26,0.943,0.113
24.75,0.086,0.701,0.026
24.76,-0.581,0.6,-0.25
24.77,-0.002,2.0,0.089
24.78,-0.236,0.661,0.105
24.79,0.018,0.95,0.011
24.8,-0.405,0.278,-0.18
24.81,-0.128,2.0,0.064
24.82,-0.093,0.745,0.089
24.83,0.063,0.86,-0.023
24.84,-0.487,0.56,-0.197
24.85,0.072,1.81,0.11
24.86,-0.303,1.107,0.094
24.87,0.124,0.455,-0.082
24.88,-0.593,0.98,-0.227
24.89,0.016,1.418,0.152
24.9,-0.282,1.225,0.018
24.91,0.075,0.662,-0.003
24.92,-0.409,0.635,-0.121
24.93,-0.104,1.56,0.098
24.94,-0.234,0.774,0.13
24.95,-0.104,1.092,-0.081
24.96,-0.356,0.22,-0.089
24.97,-0.117,1.784,0.151
24.98,-0.147,0.732,0.119
24.99,-0.114,0.926,-0.083
25.0,-0.379,0.517,-0.167
25.01,-0.061,1.204,0.121
25.02,-0.287,1.23,0.009
25.03,0.029,0.547,-0.142
25.04,-0.431,0.934,-0.127
25.05,0.006,0.904,0.201
25.06,-0.342,1.256,0.038
25.07,-0.125,0.686,-0.171
25.08,-0.444,0.701,-0.089
25.09,-0.099,1.16,0.222
25.1,-0.225,0.988,0.024
25.11,-0.238,0.968,-0.161
25.12,-0.349,0.32,-0.025
25.13,-0.14,1.376,0.215
25.14,-0.258,0.758,0.005
25.15,-0.304,0.992,-0.138
25.16,-0.412,0.551,-0.139
25.17,0.085,1.036,0.172
25.18,-0.326,1.081,0.037
25.19,-0.374,0.711,-0.203
25.2,-0.253,1.499,-0.073
25.21,0.071,0.731,0.149
25.22,-0.256,1.199,-0.03
25.23,-0.258,0.276,-0.158
25.24,-0.366,1.886,-0.072
25.25,0.115,0.687,0.145
25.26,-0.203,1.012,0.042
25.27,-0.336,0.692,-0.257
25.28,-0.272,1.655,0.008
25.29,-0.052,0.904,0.145
25.3,-0.02,0.641,0.055
25.31,-0.493,0.93,-0.192
25.32,-0.164,1.529,0.043
25.33,-0.118,1.051,0.136
25.34,0.106,0.622,0.064
25.35,-0.539,0.77,-0.156
25.36,-0.148,1.963,0.054
25.37,-0.036,0.699,0.114
25.38,0.002,0.96,0.02
25.39,-0.421,0.343,-0.263
25.4,-0.182,2.0,0.088
25.41,-0.067,0.621,0.098
25.42,0.022,0.917,-0.004
25.43,-0.401,0.498,-0.314
25.44,-0.023,1.829,0.061
25.45,-0.184,1.081,0.065
25.46,0.147,0.491,-0.03
25.47,-0.549,0.955,-0.198
25.48,0.062,1.689,0.089
25.49,-0.286,1.105,0.082
25.5,0.1,0.537,0.054
25.51,-0.546,0.802,-0.201
25.52,0.003,1.81,0.112
25.53,-0.228,0.862,0.095
25.54,0.018,0.913,-0.015
25.55,-0.182,1.149,0.025
25.56,-0.385,0.316,-0.184
25.57,-0.362,1.941,0.008
25.58,-0.034,0.592,0.14
25.59,-0.144,0.947,0.073
25.6,-0.506,0.585,-0.183
25.61,-0.266,1.725,0.069
25.62,-0.192,1.022,0.144
25.63,0.085,0.494,0.083
25.64,-0.551,0.956,-0.218
25.65,-0.176,1.612,0.063
25.66,-0.153,1.0,0.129
25.67,0.042,0.607,0.047
25.68,-0.507,0.656,-0.185
25.69,-0.18,2.0,0.059
25.7,-0.199,0.614,0.116
25.71,-0.049,1.005,0.085
25.72,-0.493,0.257,-0.17
25.73,-0.134,2.0,0.108
25.74,-0.084,0.713,0.121
25.75,0.003,0.823,0.021
25.76,-0.415,0.531,-0.225
25.77,-0.036,1.879,0.088
25.78,-0.167,1.057,0.056
25.79,0.124,0.551,-0.024
25.8,-0.529,0.942,-0.199
25.81,0.044,1.696,0.168
25.82,-0.334,1.157,0.062
25.83,0.099,0.529,-0.022
25.84,-0.454,0.712,-0.216
25.85,0.001,1.646,0.09
25.86,-0.089,0.799,0.003
25.87,-0.026,0.966,-0.058
25.88,-0.371,0.238,-0.124
25.89,-0.165,1.755,0.159
25.9,-0.199,0.653,0.111
25.91,-0.142,1.065,-0.053
25.92,-0.386,0.461,-0.168
25.93,-0.012,1.695,0.246
25.94,-0.201,0.909,0.051
25.95,0.014,0.799,-0.094
25.96,-0.401,0.771,-0.123
25.97,-0.085,0.948,0.176
25.98,-0.421,1.306,0.023
25.99,-0.085,0.515,-0.123
26.0,-0.395,0.949,-0.101
26.01,-0.072,0.927,0.243
26.02,-0.298,1.166,0.094
26.03,-0.344,0.793,-0.177
26.04,-0.348,0.512,-0.032
26.05,-0.219,1.331,0.251
26.06,-0.142,0.873,0.066
26.07,-0.351,1.002,-0.137
26.08,-0.219,0.592,-0.0
26.09,-0.111,1.301,0.229
26.1,-0.296,0.694,0.03
26.11,-0.342,0.77,-0.113
26.12,-0.365,1.021,-0.108
26.13,0.062,0.868,0.171
26.14,-0.282,1.136,0.032
26.15,-0.318,0.367,-0.194
26.16,-0.342,1.259,-0.097
26.17,0.044,0.736,0.16
26.18,-0.258,1.212,-0.03
26.19,-0.323,0.453,-0.174
26.2,-0.219,1.564,-0.059
26.21,0.036,1.11,0.16
26.22,-0.107,0.554,0.06
26.23,-0.538,1.012,-0.137
26.24,-0.281,1.327,-0.019
26.25,-0.085,1.015,0.202
26.26,-0.112,0.681,0.057
26.27,-0.468,0.77,-0.196
26.28,-0.267,1.692,0.004
26.29,-0.104,0.642,0.132
26.3,-0.172,1.033,0.03
26.31,-0.356,0.263,-0.183
26.32,-0.411,2.0,0.048
26.33,-0.012,0.597,0.124
26.34,-0.068,0.99,0.053
26.35,-0.479,0.454,-0.196
26.36,-0.246,2.0,0.073
26.37,-0.133,0.964,0.133
26.38,0.061,0.53,0.043
26.39,-0.511,0.922,-0.241
26.4,-0.102,1.663,0.103
26.41,-0.167,1.147,0.122
26.42,0.06,0.496,0.093
26.43,-0.571,0.798,-0.192
26.44,-0.056,1.872,0.074
26.45,-0.098,0.825,0.06
26.46,0.092,0.863,-0.01
26.47,-0.361,0.397,-0.249
26.48,-0.144,2.0,0.106
26.49,-0.027,0.645,0.069
26.5,-0.07,1.009,-0.008
26.51,-0.403,0.371,-0.208
26.52,-0.053,1.964,0.147
26.53,-0.293,0.946,0.081
26.54,0.08,0.616,-0.046
26.55,-0.566,0.861,-0.17
26.56,0.076,1.309,0.16
26.57,-0.351,1.281,0.047
26.58,0.118,0.517,-0.062
26.59,-0.439,0.848,-0.195
26.6,0.047,1.495,0.118
26.61,-0.243,0.914,0.112
26.62,-0.096,0.897,-0.085
26.63,-0.424,0.367,-0.108
26.64,-0.08,1.682,0.165
26.65,-0.208,0.754,0.105
26.66,-0.076,1.026,-0.082
26.67,-0.231,0.344,-0.209
26.68,-0.083,1.381,0.041
26.69,-0.195,0.996,0.014
26.7,-0.098,0.74,-0.199
26.71,-0.385,0.815,-0.126
26.72,0.0,1.068,0.213
26.73,-0.291,1.385,0.131
26.74,-0.106,0.529,-0.155
26.75,-0.436,1.123,-0.059
26.76,0.064,0.873,0.245
26.77,-0.348,1.142,0.003
26.78,-0.295,0.584,-0.123
26.79,-0.43,0.897,-0.047
26.8,-0.084,1.119,0.254
26.81,-0.184,0.719,0.049
26.82,-0.438,0.884,-0.125
26.83,-0.327,0.555,-0.028
26.84,-0.16,1.213,0.225
26.85,-0.197,0.769,0.03
26.86,-0.4,0.749,-0.089
26.87,-0.237,1.106,-0.039
26.88,0.012,0.926,0.138
26.89,-0.23,1.071,0.007
26.9,-0.283,0.395,-0.154
26.91,-0.455,1.467,-0.045
26.92,0.045,0.641,0.185
26.93,-0.305,1.228,-0.007
26.94,-0.325,0.409,-0.157
26.95,-0.223,1.844,-0.037
26.96,0.007,0.865,0.109
26.97,-0.103,0.686,0.052
26.98,-0.444,0.894,-0.192
26.99,-0.298,1.561,0.036
27.0,-0.174,1.054,0.178
27.01,-0.029,0.58,0.116
27.02,-0.472,0.842,-0.266
27.03,-0.198,1.66,0.066
27.04,-0.17,0.792,0.111
27.05,-0.079,0.874,0.066
27.06,-0.412,0.357,-0.212
27.07,-0.177,2.0,0.015
27.08,0.089,0.692,0.056
27.09,0.006,0.983,0.019
27.1,-0.406,0.336,-0.255
27.11,-0.029,2.0,0.013
27.12,-0.158,0.724,-0.01
27.13,0.088,0.695,-0.038
27.14,-0.547,0.813,-0.252
27.15,0.054,1.556,0.124
27.16,-0.282,1.246,0.062
27.17,0.116,0.455,-0.023
27.18,-0.458,0.898,-0.187
27.19,-0.044,1.55,0.153
27.2,-0.214,1.023,0.036
27.21,0.013,0.851,-0.062
27.22,-0.419,0.405,-0.157
27.23,-0.087,1.901,0.223
27.24,-0.14,0.705,0.053
27.25,-0.116,0.984,-0.052
27.26,-0.339,0.268,-0.177
27.27,-0.16,1.553,0.149
27.28,-0.237,0.902,0.071
27.29,-0.044,0.775,-0.07
27.3,-0.347,0.707,-0.173
27.31,-0.051,1.152,0.176
27.32,-0.261,1.272,0.067
27.33,-0.018,0.574,-0.081
27.34,-0.415,0.909,-0.144
27.35,-0.024,1.105,0.202
27.36,-0.197,1.266,0.031
27.37,-0.091,0.748,-0.106
27.38,-0.369,0.466,-0.068
27.39,-0.147,1.309,0.188
27.4,-0.173,0.78,-0.01
27.41,-0.283,1.062,-0.13
27.42,-0.353,0.33,-0.123
27.43,-0.094,1.318,0.231
27.44,-0.207,0.831,0.015
27.45,-0.275,0.866,-0.144
27.46,-0.456,0.744,-0.073
27.47,0.038,0.864,0.245
27.48,-0.403,1.324,-0.03
27.49,-0.151,0.368,-0.078
27.5,-0.435,1.387,-0.073
27.51,0.204,0.854,0.204
27.52,-0.375,1.081,0.036
27.53,-0.371,0.616,-0.148
27.54,-0.33,0.942,-0.026
27.55,-0.008,0.827,0.117
27.56,-0.117,0.831,0.016
27.57,-0.443,0.803,-0.224
27.58,-0.211,1.458,-0.0
27.59,-0.161,1.035,0.157
27.6,-0.032,0.545,0.127
27.61,-0.534,0.933,-0.156
27.62,-0.147,1.725,0.018
27.63,-0.075,0.926,0.162
27.64,0.014,0.796,0.066
27.65,-0.468,0.527,-0.203
27.66,-0.341,2.0,0.082
27.67,-0.108,0.444,0.136
27.68,-0.081,1.111,0.05
27.69,-0.457,0.318,-0.229
27.7,-0.162,2.0,0.037
27.71,-0.096,0.777,0.121
27.72,0.012,0.678,-0.005
27.73,-0.413,0.735,-0.251
27.74,-0.106,1.655,0.04
27.75,-0.126,1.19,0.071
27.76,0.145,0.473,-0.014
27.77,-0.572,1.013,-0.234
27.78,0.101,1.687,0.086
27.79,-0.248,1.076,0.057
27.8,0.014,0.706,-0.002
27.81,-0.447,0.548,-0.211
27.82,-0.026,2.0,0.131
27.83,-0.107,0.735,0.067
27.84,-0.05,1.006,-0.011
27.85,-0.402,0.266,-0.176
27.86,-0.148,1.834,0.13
27.87,-0.196,0.733,0.086
27.88,-0.014,0.9,-0.02
27.89,-0.468,0.624,-0.2
27.9,0.06,1.496,0.192
27.91,-0.292,1.218,0.052
27.92,0.07,0.539,-0.058
27.93,-0.544,0.954,-0.194
27.94,0.016,1.244,0.183
27.95,-0.369,1.205,0.1
27.96,0.063,0.732,-0.041
27.97,-0.357,0.571,-0.139
27.98,-0.12,1.389,0.083
27.99,-0.154,0.76,0.071
28.0,-0.23,1.061,-0.1
28.01,-0.326,0.21,-0.115
28.02,-0.117,1.464,0.173
28.03,-0.148,0.825,0.024
28.04,-0.137,0.908,-0.112
28.05,-0.333,0.631,-0.134
28.06,-0.097,1.016,0.197
28.07,-0.301,1.298,0.015
28.08,-0.154,0.489,-0.178
28.09,-0.354,1.011,-0.092
28.1,0.048,0.894,0.2
28.11,-0.342,1.213,0.011
28.12,-0.175,0.653,-0.148
28.13,-0.352,0.659,-0.107
28.14,0.021,1.124,0.188
28.15,-0.233,0.801,-0.011
28.16,-0.332,0.943,-0.086
28.17,-0.355,0.378,-0.07
28.18,-0.02,1.277,0.197
28.19,-0.204,0.787,-0.002
28.2,-0.388,0.816,-0.099
28.21,-0.32,1.049,-0.051
28.22,0.015,0.919,0.211
28.23,-0.245,1.081,-0.001
28.24,-0.337,0.402,-0.188
28.25,-0.375,1.397,-0.075
28.26,0.062,0.675,0.152
28.27,-0.316,1.25,-0.06
28.28,-0.308,0.393,-0.131
28.29,-0.32,1.334,-0.082
28.3,0.031,0.947,0.148
28.31,-0.12,0.77,-0.013
28.32,-0.477,0.948,-0.204
28.33,-0.242,1.251,0.048
28.34,-0.125,1.063,0.233
28.35,-0.114,0.619,0.096
28.36,-0.531,0.927,-0.194
28.37,-0.16,1.612,0.045
28.38,-0.123,1.045,0.117
28.39,0.004,0.631,0.071
28.4,-0.474,0.544,-0.151
28.41,-0.216,2.0,0.081
28.42,-0.16,0.607,0.114
28.43,-0.04,0.989,0.053
28.44,-0.496,0.273,-0.217
28.45,-0.184,2.0,0.089
28.46,-0.164,0.66,0.131
28.47,0.043,0.868,0.031
28.48,-0.498,0.594,-0.203
28.49,-0.073,1.694,0.086
28.5,-0.24,1.165,0.1
28.51,0.078,0.518,-0.013
28.52,-0.526,0.921,-0.178
28.53,-0.005,1.534,0.166
28.54,-0.283,1.237,0.085
28.55,0.061,0.658,0.014
28.56,-0.56,0.627,-0.17
28.57,-0.024,1.881,0.175
28.58,-0.157,0.752,0.016
28.59,-0.066,1.045,-0.029
28.6,-0.388,0.239,-0.225
28.61,-0.12,1.781,0.132
28.62,-0.212,0.785,0.074
28.63,-0.074,0.897,-0.057
28.64,-0.31,0.534,-0.18
28.65,-0.077,1.297,0.132
28.66,-0.298,1.121,0.103
28.67,-0.042,0.65,-0.091
28.68,-0.356,0.91,-0.116
28.69,-0.018,1.215,0.183
28.7,-0.306,1.335,0.077
28.71,0.012,0.56,-0.068
28.72,-0.334,0.723,-0.108
28.73,-0.121,1.254,0.155
28.74,-0.213,0.866,0.009
28.75,-0.19,1.003,-0.149
28.76,-0.302,0.283,-0.064
28.77,-0.112,1.374,0.182
28.78,-0.211,0.712,0.052
28.79,-0.325,0.978,-0.168
28.8,-0.365,0.54,-0.074
28.81,-0.078,1.071,0.214
28.82,-0.314,1.191,0.035
28.83,-0.057,0.538,-0.169
28.84,-0.484,1.078,-0.072
28.85,0.117,0.804,0.227
28.86,-0.402,1.285,0.022
28.87,-0.348,0.44,-0.127
28.88,-0.345,1.1,-0.043
28.89,-0.008,0.984,0.196
28.9,-0.171,0.843,0.026
28.91,-0.494,0.801,-0.197
28.92,-0.177,0.972,-0.032
28.93,-0.115,1.186,0.196
28.94,-0.129,0.626,0.019
28.95,-0.451,0.855,-0.12
28.96,-0.236,1.511,0.0
28.97,-0.082,0.846,0.172
28.98,-0.136,0.902,0.02
28.99,-0.322,0.483,-0.213
29.0,-0.33,1.715,-0.053
29.01,0.024,0.534,0.118
29.02,-0.257,1.244,0.016
29.03,-0.347,0.344,-0.23
29.04,-0.31,1.844,0.003
29.05,-0.039,0.781,0.104
29.06,-0.019,0.719,0.018
29.07,-0.441,0.761,-0.226
29.08,-0.214,1.685,0.018
29.09,-0.207,1.103,0.156
29.1,0.1,0.504,0.057
29.11,-0.594,0.922,-0.207
29.12,-0.224,1.655,0.125
29.13,-0.25,0.78,0.132
29.14,-0.076,0.815,0.061
29.15,-0.473,0.51,-0.187
29.16,-0.124,2.0,0.033
29.17,-0.101,0.753,0.095
29.18,0.058,0.94,-0.042
29.19,-0.453,0.273,-0.143
29.2,-0.2,1.942,0.124
29.21,-0.086,0.704,0.089
29.22,-0.149,0.972,-0.067
29.23,-0.328,0.426,-0.209
29.24,-0.059,1.889,0.188
29.25,-0.211,1.034,0.047
29.26,-0.025,0.485,-0.074
29.27,-0.478,0.939,-0.179
29.28,-0.035,1.285,0.127
29.29,-0.31,1.216,0.138
29.3,-0.006,0.493,0.025
29.31,-0.393,0.792,-0.154
29.32,-0.024,1.37,0.103
29.33,-0.255,0.878,0.084
29.34,-0.117,1.084,-0.082
29.35,-0.327,0.231,-0.12
29.36,-0.023,1.899,0.197
29.37,-0.133,0.754,0.011
29.38,-0.096,0.984,-0.067
29.39,-0.389,0.419,-0.198
29.4,-0.11,1.247,0.15
29.41,-0.312,1.143,0.033
29.42,-0.027,0.599,-0.114
29.43,-0.414,0.889,-0.088
29.44,0.01,0.945,0.222
29.45,-0.296,1.322,0.066
29.46,-0.135,0.653,-0.225
29.47,-0.355,0.801,-0.097
29.48,-0.073,1.167,0.181
29.49,-0.132,1.132,0.013
29.5,-0.16,0.836,-0.14
29.51,-0.313,0.463,-0.127
29.52,-0.034,1.361,0.146
29.53,-0.264,0.689,-0.026
29.54,-0.366,0.963,-0.099
29.55,-0.382,0.57,-0.104
29.56,-0.038,1.154,0.22
29.57,-0.248,0.867,0.003
29.58,-0.326,0.634,-0.144
29.59,-0.423,1.098,-0.035
29.6,-0.037,0.708,0.22
29.61,-0.35,1.357,0.054
29.62,-0.272,0.242,-0.101
29.63,-0.23,1.693,-0.087
29.64,0.09,0.862,0.185
29.65,-0.256,0.887,-0.007
29.66,-0.342,0.662,-0.117
29.67,-0.33,1.141,-0.061
29.68,-0.132,1.137,0.2
29.69,-0.104,0.588,0.027
29.7,-0.511,0.99,-0.208
29.71,-0.239,1.22,-0.016
29.72,-0.173,0.876,0.18
29.73,-0.115,0.913,0.039
29.74,-0.353,0.493,-0.177
29.75,-0.283,2.0,-0.004
29.76,0.039,0.605,0.119
29.77,-0.087,1.049,0.027
29.78,-0.38,0.256,-0.178
29.79,-0.357,2.0,0.017
29.8,-0.102,0.623,0.099
29.81,-0.061,0.828,0.051
29.82,-0.458,0.67,-0.193
29.83,-0.09,1.784,0.05
29.84,-0.144,0.988,0.024
29.85,0.091,0.481,0.015
29.86,-0.503,0.937,-0.214
29.87,0.028,1.654,0.028
29.88,-0.16,1.124,0.019
29.89,0.097,0.593,-0.029
29.9,-0.424,0.611,-0.202
29.91,-0.085,1.905,0.08
29.92,-0.083,0.767,0.042
29.93,-0.055,1.016,-0.001
29.94,-0.374,0.245,-0.165
29.95,-0.099,2.0,0.201
29.96,-0.192,0.743,0.054
29.97,-0.05,0.817,-0.028
29.98,-0.394,0.344,-0.152
29.99,-0.047,1.71,0.206
30.0,-0.264,1.015,0.029
30.01,0.043,0.677,-0.038
30.02,-0.476,0.813,-0.182
30.03,0.104,1.116,0.153
30.04,-0.39,1.379,0.016
30.05,0.049,0.552,-0.041
30.06,-0.493,0.834,-0.129
30.07,-0.024,1.089,0.16
30.08,-0.245,1.097,0.046
30.09,-0.113,0.968,-0.136
30.1,-0.386,0.353,-0.09
30.11,-0.117,1.42,0.17
30.12,-0.175,0.9,0.052
30.13,-0.214,1.061,-0.165
30.14,-0.338,0.38,-0.08
30.15,-0.086,1.204,0.194
30.16,-0.267,1.098,0.027
30.17,-0.197,0.685,-0.133
30.18,-0.45,0.942,-0.048
30.19,0.077,0.818,0.203
30.2,-0.459,1.246,0.015
30.21,-0.22,0.362,-0.092
30.22,-0.399,1.164,-0.04
30.23,0.068,0.881,0.197
30.24,-0.284,1.012,-0.004
30.25,-0.313,0.664,-0.162
30.26,-0.222,0.952,-0.068
30.27,-0.036,1.218,0.187
30.28,-0.095,0.644,-0.029
30.29,-0.477,0.963,-0.169
30.3,-0.274,0.951,-0.004
30.31,-0.067,1.03,0.205
30.32,-0.25,0.858,0.017
30.33,-0.315,0.588,-0.173
30.34,-0.385,1.95,-0.005
30.35,0.075,0.681,0.169
30.36,-0.197,1.083,0.106
30.37,-0.323,0.375,-0.148
30.38,-0.449,2.0,0.022
30.39,-0.02,0.58,0.129
30.4,-0.121,0.944,0.061
30.41,-0.449,0.601,-0.219
30.42,-0.337,1.703,0.033
30.43,-0.181,0.931,0.116
30.44,0.005,0.551,0.07
30.45,-0.504,0.844,-0.167
30.46,0.027,1.657,0.015
30.47,-0.156,1.121,0.073
30.48,0.077,0.581,0.025
30.49,-0.432,0.616,-0.188
30.5,-0.153,2.0,0.077
30.51,-0.185,0.575,0.083
30.52,-0.074,1.042,0.068
30.53,-0.456,0.271,-0.213
30.54,-0.198,2.0,0.106
30.55,-0.088,0.645,0.054
30.56,-0.025,0.823,0.004
30.57,-0.419,0.528,-0.201
30.58,-0.165,1.61,0.117
30.59,-0.193,1.084,0.063
30.6,0.029,0.544,-0.033
30.61,-0.487,0.906,-0.15
30.62,0.024,1.612,0.238
30.63,-0.345,1.188,0.076
30.64,0.029,0.577,-0.033
30.65,-0.524,0.692,-0.179
30.66,-0.048,1.7,0.195
30.67,-0.25,0.823,0.048
30.68,-0.014,0.969,-0.069
30.69,-0.367,0.226,-0.135
30.7,-0.14,1.589,0.121
30.71,-0.201,0.683,0.089
30.72,-0.112,1.103,-0.108
30.73,-0.363,0.489,-0.132
30.74,0.055,1.501,0.161
30.75,-0.258,1.197,0.048
30.76,0.087,0.582,-0.097
30.77,-0.494,0.933,-0.133
30.78,-0.035,0.869,0.244
30.79,-0.452,1.4,0.006
30.8,-0.093,0.432,-0.122
30.81,-0.417,1.001,-0.11
30.82,0.04,0.991,0.214
30.83,-0.332,1.041,0.033
30.84,-0.31,0.761,-0.148
30.85,-0.395,0.536,-0.02
30.86,-0.142,1.318,0.23
30.87,-0.161,0.727,0.024
30.88,-0.367,0.957,-0.089
30.89,-0.313,0.664,-0.057
30.9,-0.036,1.226,0.186
30.91,-0.275,0.789,0.004
30.92,-0.352,0.661,-0.126
30.93,-0.331,1.466,-0.077
30.94,0.082,0.814,0.18
30.95,-0.278,1.146,0.048
30.96,-0.351,0.361,-0.155
30.97,-0.446,1.227,-0.013
30.98,-0.007,0.742,0.184
30.99,-0.307,1.151,0.01
31.0,-0.308,0.53,-0.197
31.01,-0.174,1.58,-0.09
31.02,-0.058,1.059,0.176
31.03,-0.106,0.492,0.097
31.04,-0.453,0.941,-0.124
31.05,-0.29,1.565,0.011
31.06,0.022,1.211,0.148
31.07,-0.066,0.556,0.105
31.08,-0.36,0.801,-0.205
31.09,-0.415,1.795,0.022
31.1,-0.053,0.49,0.124
31.11,-0.302,1.177,0.041
31.12,-0.312,0.216,-0.216
31.13,-0.412,2.0,0.037
31.14,-0.06,0.558,0.146
31.15,-0.11,0.924,0.061
31.16,-0.348,0.474,-0.174
31.17,-0.15,1.804,-0.013
31.18,-0.077,1.126,0.125
31.19,0.139,0.508,0.048
31.2,-0.587,0.885,-0.172
31.21,-0.102,1.703,0.12
31.22,-0.36,0.905,0.018
31.23,0.035,0.661,0.052
31.24,-0.572,0.715,-0.234
31.25,-0.039,1.903,0.065
31.26,-0.134,0.744,0.126
31.27,-0.01,0.802,0.025
31.28,-0.415,0.283,-0.147
31.29,-0.171,2.0,0.083
31.3,-0.101,0.662,0.111
31.31,-0.005,0.985,-0.014
31.32,-0.492,0.42,-0.17
31.33,-0.005,1.98,0.134
31.34,-0.341,0.975,0.089
31.35,0.055,0.51,-0.038
31.36,-0.526,0.946,-0.198
31.37,-0.001,1.358,0.166
31.38,-0.211,1.257,-0.005
31.39,0.042,0.517,0.011
31.4,-0.469,0.777,-0.141
31.41,-0.068,1.408,0.086
31.42,-0.27,0.817,0.122
31.43,-0.088,1.027,-0.07
31.44,-0.47,0.265,-0.086
31.45,-0.097,1.767,0.23
31.46,-0.19,0.756,0.141
31.47,-0.096,1.036,-0.06
31.48,-0.359,0.434,-0.145
31.49,-0.104,1.391,0.114
31.5,-0.314,1.105,0.066
31.51,0.037,0.629,-0.079
31.52,-0.506,0.927,-0.1
31.53,-0.005,1.06,0.225
31.54,-0.353,1.207,0.081
31.55,0.013,0.647,-0.129
31.56,-0.459,0.828,-0.107
31.57,-0.018,1.12,0.208
31.58,-0.273,1.074,-0.001
31.59,-0.157,0.635,-0.138
31.6,-0.361,0.716,-0.067
31.61,-0.003,1.244,0.2
31.62,-0.233,0.663,0.014
31.63,-0.456,1.026,-0.101
31.64,-0.375,0.35,-0.064
31.65,-0.091,1.229,0.22
31.66,-0.21,0.902,0.023
31.67,-0.437,0.759,-0.1
31.68,-0.344,0.967,-0.029
31.69,-0.016,0.863,0.224
31.7,-0.33,1.162,0.046
31.71,-0.249,0.344,-0.126
31.72,-0.324,1.934,-0.084
31.73,0.169,0.766,0.133
31.74,-0.201,1.017,0.016
31.75,-0.352,0.556,-0.25
31.76,-0.359,1.177,-0.085
31.77,-0.055,0.973,0.123
31.78,-0.127,0.723,0.007
31.79,-0.446,0.856,-0.14
31.8,-0.234,1.264,0.003
31.81,-0.158,1.022,0.182
31.82,-0.15,0.701,0.042
31.83,-0.451,0.697,-0.108
31.84,-0.292,1.819,0.03
31.85,-0.016,0.803,0.157
31.86,-0.081,0.952,0.09
31.87,-0.378,0.361,-0.189
31.88,-0.453,2.0,0.085
31.89,-0.119,0.476,0.133
31.9,-0.162,1.034,0.065
31.91,-0.485,0.354,-0.25
31.92,-0.229,2.0,0.028
31.93,-0.159,0.937,0.04
31.94,0.135,0.524,0.026
31.95,-0.455,0.869,-0.28
31.96,0.025,1.551,0.03
31.97,-0.115,1.231,0.086
31.98,0.056,0.455,0.023
31.99,-0.414,0.787,-0.181
32.0,-0.12,2.0,0.072
32.01,-0.248,0.644,0.094
32.02,0.015,0.969,-0.034
32.03,-0.5,0.287,-0.207
32.04,-0.049,2.0,0.065
32.05,-0.138,0.678,0.105
32.06,-0.071,0.917,0.014
32.07,-0.522,0.38,-0.115
32.08,-0.202,1.69,0.15
32.09,-0.273,0.966,0.151
32.1,-0.032,0.651,-0.041
32.11,-0.415,0.881,-0.177
32.12,0.046,1.583,0.231
32.13,-0.374,1.302,0.109
32.14,-0.014,0.481,-0.031
32.15,-0.534,0.818,-0.146
32.16,-0.071,1.476,0.186
32.17,-0.263,0.927,0.116
32.18,-0.021,0.916,-0.088
32.19,-0.308,0.339,-0.173
32.2,-0.103,1.571,0.092
32.21,-0.166,0.692,0.072
32.22,-0.197,1.152,-0.156
32.23,-0.292,0.356,-0.155
32.24,-0.011,1.456,0.147
32.25,-0.195,1.144,0.007
32.26,-0.054,0.612,-0.175
32.27,-0.448,0.9,-0.128
32.28,-0.043,0.868,0.172
32.29,-0.407,1.387,0.017
32.3,-0.176,0.471,-0.104
32.31,-0.424,0.88,-0.093
32.32,-0.017,1.024,0.236
32.33,-0.221,0.913,0.043
32.34,-0.463,0.829,-0.142
32.35,-0.334,0.398,-0.056
32.36,-0.197,1.31,0.235
32.37,-0.227,0.755,0.047
32.38,-0.336,0.888,-0.062
32.39,-0.287,0.886,-0.097
32.4,-0.026,1.214,0.2
32.41,-0.16,0.606,0.023
32.42,-0.411,0.854,-0.176
32.43,-0.297,1.619,-0.047
32.44,-0.088,0.714,0.155
32.45,-0.178,1.026,0.038
32.46,-0.33,0.372,-0.218
32.47,-0.494,1.872,0.035
32.48,-0.053,0.465,0.162
32.49,-0.272,1.173,0.062
32.5,-0.367,0.328,-0.174
32.51,-0.331,1.855,0.049
32.52,-0.096,0.94,0.145
32.53,-0.02,0.572,0.09
32.54,-0.535,0.902,-0.162
32.55,-0.164,1.631,0.099
32.56,-0.158,1.11,0.124
32.57,0.073,0.557,0.058
32.58,-0.507,0.779,-0.247
32.59,-0.228,1.862,0.084
32.6,-0.198,0.676,0.055
32.61,-0.084,0.923,0.039
32.62,-0.41,0.309,-0.21
32.63,-0.152,2.0,0.08
32.64,0.01,0.728,0.098
32.65,-0.049,0.884,-0.025
32.66,-0.496,0.376,-0.143
32.67,-0.101,1.849,0.107
32.68,-0.273,0.964,0.123
32.69,0.037,0.625,-0.043
32.7,-0.531,0.883,-0.24
32.71,0.053,1.452,0.183
32.72,-0.293,1.263,0.009
32.73,0.049,0.509,-0.005
32.74,-0.465,0.847,-0.204
32.75,-0.03,1.393,0.147
32.76,-0.246,0.913,0.032
32.77,-0.02,0.955,-0.093
32.78,-0.353,0.304,-0.164
32.79,-0.047,1.68,0.1
32.8,-0.089,0.708,0.059
32.81,-0.177,1.051,-0.108
32.82,-0.373,0.355,-0.139
32.83,-0.074,1.399,0.144
32.84,-0.237,1.035,0.026
32.85,0.017,0.657,-0.151
32.86,-0.444,0.856,-0.153
32.87,0.059,0.969,0.192
32.88,-0.34,1.31,0.001
32.89,-0.091,0.556,-0.181
32.9,-0.447,0.84,-0.11
32.91,-0.03,1.035,0.216
32.92,-0.292,1.084,0.039
32.93,-0.313,0.828,-0.177
32.94,-0.354,0.375,-0.083
32.95,-0.149,1.299,0.257
32.96,-0.183,0.786,0.055
32.97,-0.422,0.902,-0.097
32.98,-0.371,0.55,-0.068
32.99,-0.103,1.213,0.239
33.0,-0.342,0.94,0.044
33.01,-0.278,0.547,-0.074
33.02,-0.397,1.035,-0.104
33.03,0.1,0.794,0.157
33.04,-0.267,1.26,-0.012
33.05,-0.372,0.338,-0.149
33.06,-0.285,1.42,-0.104
33.07,0.058,0.857,0.139
33.08,-0.213,0.982,0.011
33.09,-0.345,0.663,-0.175
33.1,-0.195,1.433,-0.123
33.11,-0.014,1.171,0.144
33.12,-0.099,0.541,0.07
33.13,-0.501,0.964,-0.154
33.14,-0.36,1.067,-0.026
33.15,-0.107,0.894,0.134
33.16,-0.186,0.934,-0.055
33.17,-0.344,0.49,-0.153
33.18,-0.282,1.861,-0.025
33.19,0.003,0.573,0.156
33.2,-0.17,1.146,-0.023
33.21,-0.393,0.333,-0.188
33.22,-0.296,2.0,0.07
33.23,0.008,0.598,0.068
33.24,-0.093,1.016,0.056
33.25,-0.412,0.372,-0.233
33.26,-0.291,1.999,0.123
33.27,-0.167,0.835,0.055
33.28,0.019,0.622,0.006
33.29,-0.496,0.843,-0.203
33.3,-0.039,1.614,0.041
33.31,-0.164,1.19,0.05
33.32,0.142,0.478,0.008
33.33,-0.591,0.833,-0.204
33.34,0.016,1.6,0.065
33.35,-0.144,0.941,0.049
33.36,0.004,0.916,-0.07
33.37,-0.351,0.35,-0.206
33.38,-0.068,2.0,0.178
33.39,-0.139,0.715,0.076
33.4,-0.089,0.997,-0.043
33.41,-0.347,0.367,-0.159
33.42,-0.129,1.68,0.17
33.43,-0.286,0.97,0.105
33.44,-0.007,0.62,-0.04
33.45,-0.451,0.839,-0.116
33.46,-0.048,1.117,0.143
33.47,-0.35,1.275,0.152
33.48,0.029,0.577,-0.094
33.49,-0.489,0.798,-0.137
33.5,0.004,1.253,0.158
33.51,-0.264,1.077,0.059
33.52,-0.06,0.839,-0.113
33.53,-0.32,0.347,-0.127
33.54,-0.144,1.466,0.11
33.55,-0.199,0.694,-0.03
33.56,-0.168,1.06,-0.138
33.57,-0.282,0.373,-0.146
33.58,-0.069,1.198,0.182
33.59,-0.238,1.018,-0.014
33.6,-0.224,0.743,-0.14
33.61,-0.381,0.88,-0.083
33.62,-0.061,0.856,0.24
33.63,-0.361,1.373,0.049
33.64,-0.138,0.462,-0.167
33.65,-0.422,1.129,-0.031
33.66,0.018,0.895,0.241
33.67,-0.279,1.024,-0.005
33.68,-0.433,0.708,-0.179
33.69,-0.235,0.761,-0.018
33.7,-0.025,1.278,0.159
33.71,-0.084,0.626,0.003
33.72,-0.43,0.953,-0.192
33.73,-0.178,1.006,-0.071
33.74,-0.004,1.049,0.15
33.75,-0.153,0.854,-0.019
33.76,-0.365,0.565,-0.149
33.77,-0.332,1.946,-0.056
33.78,0.07,0.633,0.157
33.79,-0.259,1.129,0.08
33.8,-0.343,0.299,-0.208
33.81,-0.409,2.0,-0.005
33.82,-0.077,0.601,0.119
33.83,-0.066,0.96,0.108
33.84,-0.425,0.577,-0.253
33.85,-0.309,1.58,0.076
33.86,-0.165,0.976,0.127
33.87,-0.054,0.565,0.108
33.88,-0.46,0.898,-0.202
33.89,-0.058,1.003,0.018
33.9,-0.364,0.253,-0.177
33.91,-0.155,2.0,0.09
33.92,-0.153,0.638,0.066
33.93,-0.059,0.808,-0.04
33.94,-0.451,0.573,-0.223
33.95,-0.127,1.549,0.106
33.96,-0.269,0.912,0.075
33.97,0.03,0.688,-0.048
33.98,-0.452,0.816,-0.12
33.99,0.012,1.256,0.18
34.0,-0.321,1.265,0.102
34.01,0.024,0.574,-0.016
34.02,-0.518,0.837,-0.118
34.03,-0.042,1.264,0.173
34.04,-0.321,1.112,0.079
34.05,-0.065,0.899,-0.067
34.06,-0.415,0.315,-0.08
34.07,-0.155,1.396,0.229
34.08,-0.186,0.797,-0.006
34.09,-0.214,1.087,-0.174
34.1,-0.276,0.394,-0.154
34.11,-0.089,1.273,0.172
34.12,-0.293,1.013,0.004
34.13,-0.206,0.681,-0.143
34.14,-0.388,0.882,-0.044
34.15,0.005,0.799,0.221
34.16,-0.427,1.473,0.004
34.17,-0.16,0.336,-0.126
34.18,-0.374,1.121,-0.05
34.19,0.121,0.953,0.174
34.2,-0.305,0.958,-0.024
34.21,-0.354,0.762,-0.174
34.22,-0.248,0.853,-0.044
34.23,0.018,1.21,0.179
34.24,-0.219,0.631,-0.012
34.25,-0.431,0.908,-0.189
34.26,-0.151,1.312,-0.019
34.27,0.01,1.023,0.161
34.28,-0.166,0.787,-0.031
34.29,-0.36,0.599,-0.198
34.3,-0.354,1.933,-0.017
34.31,0.08,0.637,0.132
34.32,-0.206,1.064,0.051
34.33,-0.375,0.353,-0.188
34.34,-0.416,1.947,0.069
34.35,-0.095,0.544,0.137
34.36,-0.115,0.907,0.024
34.37,-0.441,0.598,-0.25
34.38,-0.083,1.738,-0.014
34.39,-0.091,1.11,0.097
34.4,0.13,0.439,0.033
34.41,-0.565,0.916,-0.207
34.42,0.027,1.614,0.041
34.43,-0.095,1.125,0.093
34.44,0.06,0.61,0.033
34.45,-0.433,0.582,-0.189
34.46,-0.121,2.0,0.131
34.47,-0.161,0.594,0.051
34.48,-0.013,1.023,-0.018
34.49,-0.487,0.267,-0.201
34.5,-0.104,1.97,0.127
34.51,-0.135,0.75,0.063
34.52,0.056,0.834,-0.013
34.53,-0.431,0.619,-0.207
34.54,-0.052,1.549,0.177
34.55,-0.256,1.162,0.107
34.56,0.044,0.559,-0.083
34.57,-0.483,0.967,-0.183
34.58,0.06,1.382,0.196
34.59,-0.411,1.3,0.099
34.6,0.064,0.672,-0.016
34.61,-0.444,0.625,-0.107
34.62,-0.121,1.527,0.158
34.63,-0.201,0.83,0.082
34.64,-0.133,1.06,-0.082
34.65,-0.28,0.219,-0.096
34.66,-0.206,1.565,0.152
34.67,-0.213,0.801,0.085
34.68,-0.126,0.979,-0.124
34.69,-0.325,0.581,-0.135
34.7,-0.113,1.084,0.223
34.71,-0.338,1.33,-0.002
34.72,-0.087,0.521,-0.156
34.73,-0.373,0.976,-0.061
34.74,-0.071,0.83,0.226
34.75,-0.366,1.346,-0.042
34.76,-0.195,0.555,-0.131
34.77,-0.28,1.417,-0.089
34.78,0.106,0.854,0.199
34.79,-0.195,0.946,-0.058
34.8,-0.456,0.75,-0.192
34.81,-0.138,1.169,-0.043
34.82,-0.091,1.114,0.162
34.83,-0.138,0.621,0.028
34.84,-0.479,0.87,-0.175
34.85,-0.217,1.462,-0.016
34.86,-0.092,0.911,0.169
34.87,-0.154,0.789,0.047
34.88,-0.35,0.507,-0.174
34.89,-0.315,2.0,0.077
34.9,0.037,0.687,0.174
34.91,-0.133,1.008,0.064
34.92,-0.388,0.304,-0.197
34.93,-0.356,2.0,0.089
34.94,-0.1,0.61,0.08
34.95,-0.004,0.857,-0.007
34.96,-0.578,0.616,-0.224
34.97,0.025,1.712,0.069
34.98,-0.247,1.156,0.089
34.99,0.208,0.423,-0.043
35.0,-0.609,0.936,-0.172
35.01,0.027,1.458,0.117
35.02,-0.237,1.175,0.063
35.03,0.085,0.702,-0.068
35.04,-0.46,0.576,-0.204
35.05,0.018,1.824,0.117
35.06,-0.149,0.738,0.051
35.07,-0.141,1.01,-0.04
35.08,-0.368,0.222,-0.132
35.09,-0.172,1.715,0.18
35.1,-0.217,0.878,0.118
35.11,-0.097,0.852,-0.03
35.12,-0.327,0.598,-0.118
35.13,-0.032,1.23,0.117
35.14,-0.342,1.251,0.062
35.15,0.018,0.589,-0.129
35.16,-0.367,0.901,-0.131
35.17,-0.067,1.125,0.19
35.18,-0.231,1.406,0.078
35.19,-0.163,0.65,-0.1
35.2,-0.422,0.58,-0.034
35.21,-0.168,1.25,0.269
35.22,-0.252,0.914,-0.038
35.23,-0.239,1.011,-0.075
35.24,-0.289,0.423,-0.02
35.25,-0.079,1.351,0.213
35.26,-0.311,0.684,0.043
35.27,-0.362,0.83,-0.129
35.28,-0.329,0.807,-0.062
35.29,-0.038,0.824,0.177
35.3,-0.28,1.262,-0.037
35.31,-0.301,0.355,-0.155
35.32,-0.277,1.521,-0.022
35.33,0.028,0.676,0.141
35.34,-0.262,1.198,0.021
35.35,-0.327,0.466,-0.158
35.36,-0.313,1.753,-0.007
35.37,-0.024,0.959,0.17
35.38,-0.049,0.604,0.064
35.39,-0.538,0.921,-0.182
35.4,-0.22,1.563,0.106
35.41,-0.229,1.005,0.162
35.42,-0.022,0.62,0.069
35.43,-0.468,0.727,-0.199
35.44,-0.122,1.883,0.095
35.45,-0.126,0.792,0.069
35.46,-0.011,0.872,-0.014
35.47,-0.375,0.371,-0.223
35.48,-0.175,2.0,0.117
35.49,-0.014,0.622,0.085
35.5,-0.026,0.969,-0.02
35.51,-0.441,0.374,-0.157
35.52,-0.132,1.744,0.151
35.53,-0.204,1.005,0.05
35.54,0.005,0.665,-0.054
35.55,-0.436,0.879,-0.197
35.56,0.066,1.427,0.218
35.57,-0.299,1.303,0.102
35.58,0.023,0.461,-0.108
35.59,-0.432,0.951,-0.128
35.6,0.003,0.92,0.188
35.61,-0.388,1.251,0.015
35.62,-0.073,0.733,-0.101
35.63,-0.405,0.528,-0.084
35.64,-0.076,1.26,0.223
35.65,-0.217,0.737,0.016
35.66,-0.326,1.068,-0.121
35.67,-0.366,0.33,-0.011
35.68,-0.106,1.231,0.168
35.69,-0.25,0.92,-0.024
35.7,-0.323,0.742,-0.111
35.71,-0.175,1.376,-0.05
35.72,0.074,0.861,0.161
35.73,-0.256,1.072,-0.068
35.74,-0.342,0.385,-0.201
35.75,-0.225,1.918,-0.066
35.76,0.024,0.634,0.113
35.77,-0.144,1.063,0.011
35.78,-0.422,0.561,-0.271
35.79,-0.225,1.642,0.019
35.8,-0.171,0.845,0.151
35.81,-0.08,0.67,0.046
35.82,-0.525,0.807,-0.163
35.83,-0.062,1.598,0.037
35.84,-0.082,1.248,0.182
35.85,0.095,0.495,0.041
35.86,-0.462,0.744,-0.174
35.87,-0.061,2.0,0.038
35.88,-0.139,0.683,0.078
35.89,0.031,0.969,-0.035
35.9,-0.538,0.283,-0.178
35.91,-0.141,2.0,0.134
35.92,-0.231,0.54,0.065
35.93,-0.083,0.901,-0.014
35.94,-0.413,0.412,-0.223
35.95,-0.21,1.532,0.086
35.96,-0.084,0.982,0.029
35.97,-0.089,0.587,-0.019
35.98,-0.387,0.877,-0.108
35.99,0.053,1.458,0.238
36.0,-0.25,1.324,0.045
36.01,-0.01,0.635,-0.062
36.02,-0.492,0.743,-0.147
36.03,-0.009,1.51,0.221
36.04,-0.263,1.001,0.052
36.05,-0.033,0.871,-0.111
36.06,-0.327,0.278,-0.139
36.07,-0.121,1.431,0.134
36.08,-0.326,0.708,0.022
36.09,-0.313,1.111,-0.138
36.1,-0.336,0.429,-0.088
36.11,-0.111,1.139,0.219
36.12,-0.258,1.066,0.031
36.13,-0.254,0.664,-0.161
36.14,-0.368,0.969,-0.08
36.15,0.06,0.734,0.189
36.16,-0.469,1.38,0.03
36.17,-0.223,0.334,-0.127
36.18,-0.215,1.754,-0.113
36.19,0.156,0.975,0.132
36.2,-0.145,0.716,-0.025
36.21,-0.494,0.953,-0.216
36.22,-0.203,1.188,-0.04
36.23,-0.116,0.983,0.161
36.24,-0.119,0.662,0.072
36.25,-0.497,0.883,-0.26
36.26,-0.232,1.451,0.067
36.27,-0.135,0.844,0.127
36.28,-0.209,0.877,0.024
36.29,-0.304,0.414,-0.14
36.3,-0.204,2.0,0.057
36.31,0.04,0.722,0.19
36.32,-0.001,0.966,0.015
36.33,-0.464,0.272,-0.219
36.34,-0.16,2.0,0.071
36.35,-0.197,0.678,0.062
36.36,0.029,0.807,-0.015
36.37,-0.575,0.738,-0.252
36.38,0.057,1.714,0.135
36.39,-0.386,1.132,0.037
36.4,0.112,0.463,-0.02
36.41,-0.479,0.968,-0.128
36.42,-0.091,1.111,0.167
36.43,-0.315,1.204,0.079
36.44,-0.077,0.579,-0.053
36.45,-0.34,0.7,-0.081
36.46,-0.009,1.454,0.147
36.47,-0.177,0.865,0.092
36.48,-0.145,1.093,-0.104
36.49,-0.358,0.232,-0.083
36.5,-0.19,1.518,0.211
36.51,-0.213,0.875,0.045
36.52,-0.198,0.936,-0.147
36.53,-0.348,0.561,-0.079
36.54,-0.026,1.144,0.253
36.55,-0.398,1.042,0.027
36.56,-0.262,0.564,-0.144
36.57,-0.432,1.05,-0.072
36.58,0.03,0.807,0.265
36.59,-0.355,1.292,0.021
36.6,-0.268,0.435,-0.141
36.61,-0.339,1.141,-0.06
36.62,0.067,0.937,0.15
36.63,-0.225,0.853,-0.042
36.64,-0.44,0.865,-0.175
36.65,-0.173,1.313,-0.087
36.66,-0.011,1.156,0.177
36.67,-0.005,0.564,0.041
36.68,-0.523,0.928,-0.211
36.69,-0.241,1.523,0.058
36.7,-0.196,0.76,0.153
36.71,-0.119,0.955,0.05
36.72,-0.315,0.297,-0.219
36.73,-0.197,2.0,0.079
36.74,0.095,0.667,0.121
36.75,-0.023,0.996,0.029
36.76,-0.384,0.297,-0.193
36.77,-0.211,2.0,0.076
36.78,-0.099,0.834,0.063
36.79,0.034,0.719,0.004
36.8,-0.502,0.734,-0.247
36.81,-0.019,1.798,0.041
36.82,-0.276,1.08,0.026
36.83,0.11,0.424,-0.003
36.84,-0.497,0.883,-0.153
36.85,-0.07,1.474,0.117
36.86,-0.135,1.03,0.055
36.87,0.026,0.736,-0.004
36.88,-0.486,0.402,-0.069
36.89,-0.174,1.818,0.21
36.9,-0.179,0.656,0.077
36.91,-0.055,1.089,-0.071
36.92,-0.35,0.268,-0.137
36.93,-0.07,1.74,0.184
36.94,-0.231,0.912,0.058
36.95,-0.084,0.695,-0.069
36.96,-0.389,0.751,-0.116
36.97,-0.092,1.068,0.183
36.98,-0.38,1.332,0.064
36.99,-0.077,0.57,-0.145
37.0,-0.401,0.994,-0.046
37.01,0.032,0.794,0.191
37.02,-0.397,1.329,-0.007
37.03,-0.274,0.469,-0.121
37.04,-0.311,0.807,-0.063
37.05,-0.024,0.968,0.173
37.06,-0.128,1.019,-0.038
37.07,-0.407,0.829,-0.167
37.08,-0.187,0.584,-0.042
37.09,-0.128,1.223,0.194
37.1,-0.128,0.698,-0.087
37.11,-0.392,0.84,-0.138
37.12,-0.197,1.469,-0.016
37.13,0.009,0.827,0.178
37.14,-0.179,0.986,-0.032
37.15,-0.354,0.42,-0.179
37.16,-0.317,1.978,0.026
37.17,-0.001,0.533,0.148
37.18,-0.193,1.119,-0.015
37.19,-0.442,0.276,-0.173
37.2,-0.247,2.0,0.089
37.21,-0.072,0.584,0.101
37.22,-0.033,0.908,0.001
37.23,-0.554,0.518,-0.161
37.24,-0.173,1.548,0.108
37.25,-0.184,1.195,0.165
37.26,0.046,0.494,-0.078
37.27,-0.43,0.952,-0.151
37.28,-0.024,1.459,0.199
37.29,-0.222,1.206,0.08
37.3,-0.025,0.633,-0.038
37.31,-0.459,0.656,-0.145
37.32,-0.067,1.518,0.188
37.33,-0.294,0.891,0.11
37.34,-0.107,1.061,-0.072
37.35,-0.215,0.208,-0.085
37.36,-0.151,1.554,0.145
37.37,-0.164,0.746,0.017
37.38,-0.205,1.064,-0.155
37.39,-0.352,0.492,-0.146
37.4,-0.034,1.076,0.177
37.41,-0.401,1.269,-0.03
37.42,-0.047,0.498,-0.131
37.43,-0.489,1.066,-0.029
37.44,0.167,0.81,0.229
37.45,-0.448,1.254,0.012
37.46,-0.256,0.549,-0.147
37.47,-0.384,0.951,-0.027
37.48,0.081,1.075,0.157
37.49,-0.197,0.776,-0.041
37.5,-0.438,0.916,-0.172
37.51,-0.158,1.015,-0.014
37.52,-0.066,1.146,0.19
37.53,-0.162,0.651,0.012
37.54,-0.363,0.84,-0.171
37.55,-0.278,1.689,0.022
37.56,-0.023,0.763,0.156
37.57,-0.098,0.95,0.02
37.58,-0.403,0.379,-0.245
37.59,-0.302,2.0,0.094
37.6,-0.119,0.437,0.137
37.61,-0.142,1.153,0.022
37.62,-0.496,0.371,-0.186
37.63,-0.151,1.963,0.1
37.64,-0.12,0.906,0.125
37.65,0.042,0.597,0.003
37.66,-0.547,0.809,-0.197
37.67,-0.016,1.543,0.057
37.68,-0.218,1.211,0.125
37.69,0.088,0.54,0.018
37.7,-0.559,0.823,-0.193
37.71,0.127,1.786,0.083
37.72,-0.189,0.944,0.045
37.73,-0.012,0.853,-0.071
37.74,-0.416,0.358,-0.193
37.75,-0.136,1.717,0.101
37.76,-0.216,0.755,0.073
37.77,-0.116,1.009,-0.019
37.78,-0.246,0.319,-0.107
37.79,-0.214,1.403,0.132
37.8,-0.264,0.918,0.045
37.81,-0.079,0.874,-0.127
37.82,-0.362,0.785,-0.044
37.83,-0.055,1.042,0.218
37.84,-0.268,1.456,0.043
37.85,-0.049,0.475,-0.146
37.86,-0.379,0.904,-0.104
37.87,-0.009,0.958,0.205
37.88,-0.374,1.172,-0.038
37.89,-0.286,0.745,-0.128
37.9,-0.215,0.539,-0.021
37.91,-0.065,1.287,0.201
37.92,-0.16,0.669,-0.049
37.93,-0.449,1.024,-0.128
37.94,-0.281,0.55,-0.051
37.95,-0.097,1.028,0.163
37.96,-0.214,0.969,-0.034
37.97,-0.391,0.517,-0.148
37.98,-0.193,1.966,0.04
37.99,0.008,0.637,0.164
38.0,-0.084,0.865,0.015
38.01,-0.469,0.317,-0.177
38.02,-0.274,2.0,0.079
38.03,-0.044,0.571,0.146
38.04,-0.003,1.047,0.042
38.05,-0.578,0.388,-0.236
38.06,-0.157,2.0,0.127
38.07,-0.246,0.848,0.029
38.08,-0.002,0.586,-0.015
38.09,-0.546,0.857,-0.175
38.1,-0.111,1.387,0.174
38.11,-0.208,1.253,0.096
38.12,0.092,0.52,-0.019
38.13,-0.508,0.796,-0.123
38.14,-0.058,1.3,0.114
38.15,-0.276,0.94,0.085
38.16,-0.108,1.001,-0.064
38.17,-0.318,0.265,-0.115
38.18,-0.176,1.635,0.167
38.19,-0.157,0.73,0.052
38.2,-0.073,1.135,-0.112
38.21,-0.325,0.395,-0.1
38.22,-0.215,1.143,0.186
38.23,-0.268,1.071,-0.035
38.24,-0.156,0.669,-0.139
38.25,-0.403,0.949,-0.061
38.26,0.115,0.839,0.235
38.27,-0.398,1.226,0.049
38.28,-0.341,0.477,-0.133
38.29,-0.413,1.044,-0.027
38.3,0.008,0.905,0.155
38.31,-0.286,0.98,-0.037
38.32,-0.345,0.719,-0.231
38.33,-0.073,1.367,-0.101
38.34,-0.003,1.171,0.123
38.35,-0.06,0.506,-0.004
38.36,-0.547,1.0,-0.225
38.37,-0.175,1.454,-0.035
38.38,-0.139,0.823,0.133
38.39,-0.082,0.844,0.065
38.4,-0.429,0.498,-0.256
38.41,-0.292,1.951,0.075
38.42,-0.056,0.543,0.103
38.43,-0.214,1.058,0.065
38.44,-0.312,0.19,-0.215
38.45,-0.229,2.0,0.027
38.46,0.06,0.911,0.14
38.47,0.021,0.704,0.005
38.48,-0.5,0.69,-0.205
38.49,-0.038,1.926,0.094
38.5,-0.267,0.959,0.061
38.51,0.149,0.56,0.009
38.52,-0.66,0.914,-0.175
38.53,0.057,1.625,0.146
38.54,-0.259,1.147,0.089
38.55,0.063,0.657,-0.058
38.56,-0.479,0.51,-0.143
38.57,-0.155,1.655,0.062
38.58,-0.131,0.603,0.093
38.59,-0.164,1.122,-0.029
38.6,-0.318,0.189,-0.12
38.61,-0.193,1.751,0.235
38.62,-0.139,0.837,0.063
38.63,-0.137,0.88,-0.141
38.64,-0.295,0.666,-0.144
38.65,-0.008,1.193,0.096
38.66,-0.284,1.373,-0.015
38.67,-0.024,0.46,-0.048
38.68,-0.342,0.953,-0.085
38.69,-0.04,0.945,0.189
38.7,-0.276,1.297,-0.021
38.71,-0.212,0.765,-0.188
38.72,-0.288,0.52,-0.101
38.73,-0.119,1.291,0.195
38.74,-0.197,0.938,-0.007
38.75,-0.221,1.013,-0.11
38.76,-0.323,0.42,-0.035
38.77,-0.031,1.281,0.167
38.78,-0.3,0.828,-0.014
38.79,-0.392,0.742,-0.096
38.8,-0.236,1.2,-0.075
38.81,0.003,0.908,0.159
38.82,-0.158,0.881,0.049
38.83,-0.423,0.526,-0.179
38.84,-0.318,1.953,0.034
38.85,-0.088,0.501,0.147
38.86,-0.195,1.18,0.063
38.87,-0.365,0.259,-0.198
38.88,-0.235,2.0,0.079
38.89,-0.035,0.849,0.15
38.9,0.007,0.73,0.047
38.91,-0.482,0.713,-0.217
38.92,0.005,1.736,0.038
38.93,-0.183,1.174,0.112
38.94,0.093,0.459,0.004
38.95,-0.595,0.943,-0.168
38.96,0.032,1.811,0.092
38.97,-0.297,0.945,0.066
38.98,0.078,0.734,-0.055
38.99,-0.491,0.466,-0.181
39.0,-0.181,1.819,0.139
39.01,-0.108,0.667,0.081
39.02,-0.136,1.012,-0.025
39.03,-0.276,0.26,-0.126
39.04,-0.191,1.63,0.124
39.05,-0.121,0.771,0.086
39.06,-0.126,0.876,-0.127
39.07,-0.312,0.686,-0.146
39.08,-0.023,1.253,0.196
39.09,-0.316,1.319,0.095
39.1,0.068,0.483,-0.057
39.11,-0.501,0.948,-0.124
39.12,0.028,0.909,0.208
39.13,-0.328,1.297,-0.025
39.14,-0.152,0.774,-0.163
39.15,-0.298,0.487,-0.112
39.16,-0.05,1.253,0.176
39.17,-0.191,0.828,-0.025
39.18,-0.249,1.009,-0.144
39.19,-0.278,0.292,-0.065
39.2,-0.133,1.278,0.198
39.21,-0.299,1.028,0.049
39.22,-0.285,0.778,-0.114
39.23,-0.335,1.014,-0.011
39.24,0.11,0.887,0.194
39.25,-0.364,1.148,0.022
39.26,-0.263,0.38,-0.161
39.27,-0.325,1.783,-0.033
39.28,0.153,0.725,0.199
39.29,-0.254,1.076,0.031
39.3,-0.384,0.534,-0.207
39.31,-0.253,1.431,0.005
39.32,-0.07,0.907,0.071
39.33,-0.083,0.702,-0.022
39.34,-0.378,0.826,-0.22
39.35,-0.211,1.47,0.038
39.36,-0.168,1.085,0.136
39.37,0.019,0.606,0.079
39.38,-0.451,0.706,-0.192
39.39,-0.145,1.975,0.044
39.4,-0.034,0.726,0.095
39.41,0.052,0.971,0.03
39.42,-0.452,0.274,-0.215
39.43,-0.231,2.0,0.129
39.44,-0.182,0.509,0.077
39.45,-0.036,0.972,0.003
39.46,-0.477,0.443,-0.216
39.47,-0.087,1.726,0.095
39.48,-0.133,1.078,0.056
39.49,0.116,0.5,-0.064
39.5,-0.51,0.923,-0.096
39.51,-0.005,1.356,0.163
39.52,-0.334,1.218,0.075
39.53,-0.003,0.589,-0.044
39.54,-0.412,0.783,-0.16
39.55,0.084,1.692,0.169
39.56,-0.168,0.886,-0.001
39.57,0.006,0.991,-0.108
39.58,-0.368,0.244,-0.169
39.59,-0.19,1.615,0.075
39.6,-0.223,0.759,0.062
39.61,-0.144,0.931,-0.129
39.62,-0.281,0.291,-0.041
39.63,-0.145,1.347,0.234
39.64,-0.303,0.752,0.04
39.65,-0.368,0.835,-0.109
39.66,-0.442,0.753,-0.039
39.67,-0.027,0.906,0.202
39.68,-0.366,1.363,0.062
39.69,-0.218,0.414,-0.138
39.7,-0.312,1.469,-0.026
39.71,0.055,0.743,0.208
39.72,-0.347,1.117,0.005
39.73,-0.379,0.551,-0.148
39.74,-0.195,1.568,-0.092
39.75,0.004,1.093,0.121
39.76,-0.044,0.542,0.013
39.77,-0.511,1.004,-0.225
39.78,-0.206,1.309,0.081
39.79,-0.184,0.905,0.168
39.8,-0.097,0.751,0.031
39.81,-0.385,0.655,-0.175
39.82,-0.242,1.889,0.081
39.83,0.009,0.828,0.183
39.84,-0.005,0.921,0.009
39.85,-0.354,0.272,-0.183
39.86,-0.192,2.0,0.068
39.87,0.013,0.733,0.085
39.88,-0.058,0.906,0.01
39.89,-0.513,0.452,-0.245
39.9,-0.151,2.0,0.133
39.91,-0.39,0.768,0.004
39.92,0.089,0.568,0.029
39.93,-0.673,0.914,-0.206
39.94,0.021,1.307,0.109
39.95,-0.169,1.329,0.064
39.96,0.073,0.454,-0.07
39.97,-0.39,0.701,-0.11
39.98,-0.06,1.582,0.051
39.99,-0.244,0.747,0.139
40.0,-0.005,1.181,-0.09
40.01,-0.404,0.197,-0.185
40.02,0.035,2.0,0.214
40.03,-0.223,0.671,0.088
40.04,-0.061,0.907,-0.078
40.05,-0.456,0.461,-0.137
40.06,-0.106,1.321,0.162
40.07,-0.328,1.21,0.037
40.08,0.051,0.529,-0.097
40.09,-0.306,0.911,-0.102
40.1,0.046,0.923,0.176
40.11,-0.318,1.121,0.008
40.12,-0.266,0.712,-0.164
40.13,-0.345,0.72,-0.117
40.14,-0.114,1.214,0.219
40.15,-0.244,1.083,0.042
40.16,-0.288,0.915,-0.099
40.17,-0.282,0.46,0.005
40.18,-0.098,1.375,0.22
40.19,-0.302,0.694,0.073
40.2,-0.436,0.985,-0.087
40.21,-0.178,1.258,-0.102
40.22,0.136,1.092,0.134
40.23,-0.124,0.904,0.006
40.24,-0.437,0.577,-0.195
40.25,-0.449,1.168,-0.002
40.26,-0.094,0.674,0.164
40.27,-0.354,1.366,0.016
40.28,-0.157,0.281,-0.156
40.29,-0.189,2.0,-0.087
40.3,0.037,0.828,0.171
40.31,-0.023,0.716,0.034
40.32,-0.433,0.826,-0.213
40.33,-0.213,1.559,0.006
40.34,-0.146,1.099,0.136
40.35,0.105,0.528,0.075
40.36,-0.593,0.953,-0.277
40.37,-0.173,1.471,0.099
40.38,-0.273,0.746,0.094
40.39,-0.143,0.924,0.011
40.4,-0.364,0.376,-0.134
40.41,-0.131,2.0,0.076
40.42,0.11,0.736,0.145
40.43,-0.08,0.809,-0.061
40.44,-0.318,0.233,-0.14
40.45,-0.225,2.0,0.118
40.46,-0.186,0.658,0.136
40.47,-0.096,0.977,-0.05
40.48,-0.508,0.436,-0.22
40.49,-0.001,1.751,0.218
40.5,-0.323,1.165,0.055
40.51,0.048,0.443,-0.044
40.52,-0.486,0.946,-0.147
40.53,-0.041,0.969,0.121
40.54,-0.304,1.243,0.031
40.55,-0.046,0.594,-0.107
40.56,-0.298,0.653,-0.131
40.57,-0.012,1.316,0.126
40.58,-0.145,0.894,0.096
40.59,-0.186,1.123,-0.188
40.6,-0.312,0.235,-0.083
40.61,-0.18,1.579,0.249
40.62,-0.244,0.887,0.098
40.63,-0.177,0.917,-0.108
40.64,-0.408,0.574,-0.072
40.65,0.001,1.157,0.208
40.66,-0.418,1.06,0.027
40.67,-0.216,0.628,-0.117
40.68,-0.423,1.062,-0.048
40.69,0.031,0.775,0.264
40.7,-0.264,1.248,0.036
40.71,-0.331,0.493,-0.14
40.72,-0.367,0.973,-0.059
40.73,-0.031,0.963,0.166
40.74,-0.258,0.953,0.002
40.75,-0.352,0.777,-0.172
40.76,-0.163,1.139,-0.073
40.77,-0.048,1.22,0.18
40.78,-0.143,0.533,0.04
40.79,-0.446,0.969,-0.158
40.8,-0.227,1.384,-0.09
40.81,-0.035,0.868,0.129
40.82,-0.149,0.934,0.032
40.83,-0.359,0.488,-0.242
40.84,-0.32,1.799,0.024
40.85,-0.027,0.504,0.149
40.86,-0.237,1.197,0.022
40.87,-0.302,0.251,-0.187
40.88,-0.211,2.0,-0.012
40.89,0.067,0.945,0.12
40.9,-0.01,0.582,0.027
40.91,-0.516,0.877,-0.202
40.92,-0.228,1.699,0.083
40.93,-0.203,1.026,0.13
40.94,0.092,0.533,0.065
40.95,-0.58,0.93,-0.232
40.96,-0.105,1.716,0.093
40.97,-0.181,0.905,0.041
40.98,0.0,0.703,0.034
40.99,-0.424,0.469,-0.168
41.0,-0.155,2.0,0.059
41.01,0.008,0.698,0.141
41.02,-0.043,0.956,-0.027
41.03,-0.333,0.28,-0.215
41.04,-0.182,2.0,0.042
41.05,-0.135,0.762,0.074
41.06,-0.003,0.808,-0.01
41.07,-0.522,0.704,-0.209
41.08,-0.06,1.481,0.211
41.09,-0.396,1.327,0.088
41.1,0.073,0.452,0.027
41.11,-0.482,0.965,-0.195
41.12,0.014,1.451,0.192
41.13,-0.38,1.001,0.136
41.14,0.033,0.854,-0.067
41.15,-0.455,0.453,-0.111
41.16,-0.003,1.797,0.139
41.17,-0.228,0.744,0.067
41.18,-0.03,1.042,-0.054
41.19,-0.452,0.269,-0.1
41.2,-0.075,1.54,0.124
41.21,-0.251,0.891,0.05
41.22,-0.07,0.798,-0.117
41.23,-0.339,0.68,-0.208
41.24,-0.049,1.178,0.185
41.25,-0.275,1.163,0.017
41.26,-0.245,0.63,-0.155
41.27,-0.406,0.981,-0.075
41.28,-0.0,0.809,0.257
41.29,-0.37,1.313,0.022
41.3,-0.262,0.422,-0.11
41.31,-0.398,1.177,-0.056
41.32,0.095,1.041,0.221
41.33,-0.223,0.778,-0.03
41.34,-0.33,0.849,-0.192
41.35,-0.241,0.789,-0.076
41.36,-0.04,1.239,0.167
41.37,-0.196,0.595,0.013
41.38,-0.373,0.905,-0.116
41.39,-0.344,1.094,-0.109
41.4,0.054,0.917,0.14
41.41,-0.218,1.061,-0.051
41.42,-0.326,0.44,-0.167
41.43,-0.353,1.751,-0.049
41.44,0.026,0.618,0.161
41.45,-0.189,1.219,0.047
41.46,-0.346,0.361,-0.189
41.47,-0.356,1.82,0.025
41.48,-0.072,0.724,0.171
41.49,-0.166,0.835,0.072
41.5,-0.416,0.707,-0.172
41.51,-0.287,1.531,0.038
41.52,-0.17,1.05,0.152
41.53,0.015,0.525,0.062
41.54,-0.462,0.943,-0.191
41.55,-0.192,1.635,0.072
41.56,-0.144,0.881,0.114
41.57,0.039,0.767,0.042
41.58,-0.443,0.487,-0.247
41.59,-0.211,2.0,0.081
41.6,-0.07,0.525,0.059
41.61,-0.063,1.048,-0.001
41.62,-0.486,0.215,-0.162
41.63,-0.101,2.0,0.093
41.64,-0.15,0.821,0.103
41.65,0.033,0.705,-0.024
41.66,-0.536,0.696,-0.196
41.67,0.028,1.714,0.113
41.68,-0.256,1.238,0.096
41.69,0.088,0.409,-0.008
41.7,-0.603,0.945,-0.112
41.71,0.015,1.584,0.222
41.72,-0.331,1.113,0.104
41.73,0.014,0.734,-0.02
41.74,-0.494,0.473,-0.121
41.75,-0.085,1.885,0.208
41.76,-0.172,0.711,0.083
41.77,-0.064,1.054,-0.054
41.78,-0.365,0.227,-0.147
41.79,-0.075,1.684,0.132
41.8,-0.266,0.869,0.083
41.81,-0.054,0.772,-0.064
41.82,-0.362,0.693,-0.187
41.83,0.009,1.186,0.159
41.84,-0.367,1.292,0.046
41.85,0.033,0.546,-0.095
41.86,-0.388,0.956,-0.148
41.87,-0.007,1.106,0.177
41.88,-0.343,1.334,0.081
41.89,-0.043,0.717,-0.12
41.9,-0.367,0.536,-0.08
41.91,-0.148,1.271,0.192
41.92,-0.222,0.907,0.043
41.93,-0.344,1.013,-0.107
41.94,-0.276,0.315,-0.06
41.95,-0.156,1.307,0.196
41.96,-0.235,0.798,0.034
41.97,-0.334,0.814,-0.117
41.98,-0.361,0.808,-0.058
41.99,0.038,0.869,0.179
42.0,-0.349,1.213,-0.028
42.01,-0.247,0.37,-0.143
42.02,-0.234,1.783,-0.103
42.03,0.111,0.738,0.127
42.04,-0.236,1.047,0.004
42.05,-0.366,0.375,-0.196
42.06,-0.374,2.0,0.038
42.07,0.026,0.764,0.144
42.08,-0.134,0.754,0.083
42.09,-0.521,0.779,-0.223
42.1,-0.248,1.667,0.079
42.11,-0.262,0.94,0.127
42.12,0.09,0.539,0.098
42.13,-0.519,0.925,-0.246
42.14,-0.059,1.713,0.053
42.15,-0.112,0.955,0.083
42.16,0.047,0.706,-0.023
42.17,-0.439,0.456,-0.233
42.18,-0.07,2.0,0.001
42.19,-0.037,0.617,0.072
42.2,-0.006,0.981,0.009
42.21,-0.427,0.286,-0.191
42.22,-0.081,2.0,0.089
42.23,-0.3,0.834,-0.088
42.24,-0.292,1.337,-0.04
42.25,-0.011,1.148,0.184
42.26,-0.115,0.576,0.022
42.27,-0.537,1.014,-0.201
42.28,-0.187,1.331,-0.038
42.29,-0.118,0.908,0.072
42.3,-0.14,0.775,0.039
42.31,-0.323,0.608,-0.224
42.32,-0.43,1.842,0.096
42.33,-0.081,0.562,0.162
42.34,-0.189,1.116,0.067
42.35,-0.368,0.267,-0.17
42.36,-0.234,2.0,0.085
42.37,-0.037,0.712,0.162
42.38,-0.008,0.834,0.015
42.39,-0.498,0.617,-0.214
42.4,-0.05,1.92,0.05
42.41,-0.206,1.029,0.073
42.42,0.19,0.53,-0.055
42.43,-0.545,0.946,-0.232
42.44,0.082,1.669,0.078
42.45,-0.226,1.205,0.016
42.46,0.018,0.554,-0.001
42.47,-0.407,0.619,-0.118
42.48,-0.076,1.959,0.097
42.49,-0.15,0.749,0.086
42.5,-0.042,0.978,-0.007
42.51,-0.452,0.203,-0.12
42.52,-0.109,1.955,0.238
42.53,-0.196,0.828,0.042
42.54,-0.071,0.817,-0.06
42.55,-0.326,0.561,-0.212
42.56,-0.064,1.362,0.103
42.57,-0.27,1.137,0.017
42.58,0.058,0.55,-0.076
42.59,-0.44,0.934,-0.129
42.6,0.038,1.049,0.208
42.61,-0.369,1.283,0.082
42.62,-0.084,0.599,-0.079
42.63,-0.479,0.645,-0.081
42.64,-0.039,1.219,0.192
42.65,-0.27,0.973,-0.009
42.66,-0.219,0.985,-0.099
42.67,-0.324,0.27,-0.106
42.68,-0.071,1.37,0.199
42.69,-0.26,0.807,0.024
42.7,-0.314,0.962,-0.098
42.71,-0.371,0.669,-0.081
42.72,-0.029,0.978,0.232
42.73,-0.319,1.125,0.001
42.74,-0.296,0.42,-0.14
42.75,-0.28,1.509,-0.057
42.76,0.113,0.751,0.18
42.77,-0.259,1.162,-0.007
42.78,-0.313,0.48,-0.176
42.79,-0.256,1.708,-0.067
42.8,0.042,0.721,0.136
42.81,-0.052,0.89,0.076
42.82,-0.45,0.644,-0.235
42.83,-0.31,1.654,0.068
42.84,-0.18,0.911,0.106
42.85,-0.064,0.56,0.086
42.86,-0.54,0.927,-0.186
42.87,-0.08,1.605,0.048
42.88,-0.125,1.036,0.119
42.89,0.059,0.579,0.013
42.9,-0.464,0.603,-0.17
42.91,-0.105,2.0,0.035
42.92,-0.072,0.65,0.139
42.93,-0.018,1.019,-0.02
42.94,-0.48,0.275,-0.219
42.95,-0.094,2.0,0.085
42.96,-0.184,0.589,0.043
42.97,-0.023,0.803,-0.023
42.98,-0.468,0.647,-0.232
42.99,-0.159,1.495,0.113
43.0,-0.263,1.093,0.095
43.01,0.041,0.532,-0.02
43.02,-0.484,0.933,-0.111
43.03,-0.004,1.353,0.175
43.04,-0.252,1.124,0.062
43.05,0.021,0.747,-0.076
43.06,-0.495,0.638,-0.153
43.07,0.08,1.692,0.184
43.08,-0.251,0.884,0.048
43.09,-0.027,1.026,-0.081
43.1,-0.295,0.268,-0.155
43.11,-0.134,1.541,0.111
43.12,-0.313,0.85,0.088
43.13,-0.102,0.982,-0.151
43.14,-0.256,0.521,-0.136
43.15,-0.019,1.29,0.154
43.16,-0.305,1.271,0.131
43.17,0.002,0.627,-0.117
43.18,-0.514,0.956,-0.079
43.19,0.005,0.952,0.236
43.2,-0.407,1.471,0.057
43.21,-0.054,0.531,-0.077
43.22,-0.356,0.738,-0.089
43.23,-0.061,1.153,0.183
43.24,-0.311,0.823,0.029
43.25,-0.399,1.019,-0.114
43.26,-0.301,0.355,-0.028
43.27,-0.15,1.244,0.223
43.28,-0.232,0.737,0.05
43.29,-0.403,0.887,-0.096
43.3,-0.345,0.761,-0.057
43.31,-0.041,0.914,0.17
43.32,-0.298,1.154,-0.053
43.33,-0.285,0.392,-0.086
43.34,-0.266,1.933,-0.1
43.35,0.169,0.653,0.15
43.36,-0.198,1.13,0.01
43.37,-0.423,0.47,-0.154
43.38,-0.232,1.749,-0.004
43.39,-0.081,0.843,0.14
43.4,-0.108,0.693,0.024
43.41,-0.46,0.859,-0.248
43.42,-0.22,1.393,0.07
43.43,-0.215,1.02,0.165
43.44,-0.122,0.581,0.093
43.45,-0.475,0.743,-0.153
43.46,-0.046,1.734,-0.025
43.47,0.04,1.03,0.106
43.48,0.043,0.754,-0.027
43.49,-0.369,0.335,-0.217
43.5,-0.148,2.0,0.021
43.51,-0.086,0.625,0.08
43.52,-0.083,0.984,0.003
43.53,-0.511,0.329,-0.229
43.54,-0.163,2.0,0.096
43.55,-0.156,0.816,0.032
43.56,0.077,0.605,-0.048
43.57,-0.531,0.75,-0.18
43.58,-0.051,1.415,0.039
43.59,-0.162,1.316,0.093
43.6,0.097,0.458,-0.045
43.61,-0.423,0.937,-0.161
43.62,0.02,1.341,0.167
43.63,-0.217,1.18,0.066
43.64,-0.035,0.688,-0.082
43.65,-0.375,0.634,-0.182
43.66,-0.094,1.601,0.139
43.67,-0.19,0.853,0.014
43.68,-0.051,0.984,-0.12
43.69,-0.307,0.244,-0.159
43.7,-0.169,1.381,0.122
43.71,-0.287,0.732,0.03
43.72,-0.268,0.976,-0.148
43.73,-0.327,0.516,-0.116
43.74,-0.128,1.027,0.192
43.75,-0.25,1.213,0.049
43.76,-0.136,0.614,-0.208
43.77,-0.396,0.967,-0.125
43.78,0.036,0.851,0.221
43.79,-0.315,1.381,-0.012
43.8,-0.139,0.545,-0.142
43.81,-0.32,0.973,-0.104
43.82,-0.031,1.086,0.264
43.83,-0.263,0.747,0.007
43.84,-0.341,0.958,-0.101
43.85,-0.33,0.497,-0.04
43.86,-0.062,1.217,0.179
43.87,-0.191,0.757,-0.014
43.88,-0.417,0.83,-0.11
43.89,-0.366,0.75,-0.088
43.9,0.018,0.887,0.152
43.91,-0.256,1.196,-0.071
43.92,-0.244,0.318,-0.185
43.93,-0.198,1.963,-0.105
43.94,0.124,0.686,0.119
43.95,-0.166,1.059,-0.01
43.96,-0.373,0.514,-0.198
43.97,-0.323,1.878,-0.014
43.98,-0.049,0.808,0.153
43.99,-0.027,0.709,0.04
44.0,-0.573,0.828,-0.223
44.01,-0.157,1.528,0.06
44.02,-0.267,1.017,0.14
44.03,0.121,0.576,0.044
44.04,-0.536,0.806,-0.194
44.05,-0.062,1.825,0.019
44.06,-0.019,0.985,0.086
44.07,0.094,0.823,0.014
44.08,-0.389,0.358,-0.242
44.09,-0.128,2.0,0.059
44.1,-0.01,0.646,0.062
44.11,-0.024,0.97,0.021
44.12,-0.467,0.347,-0.227
44.13,-0.137,2.0,0.092
44.14,-0.193,0.777,0.048
44.15,0.06,0.612,-0.042
44.16,-0.508,0.83,-0.209
44.17,-0.088,1.42,0.094
44.18,-0.235,1.202,0.092
44.19,0.151,0.482,0.035
44.2,-0.557,0.871,-0.149
44.21,0.048,1.531,0.145
44.22,-0.245,0.979,0.049
44.23,0.039,0.903,-0.046
44.24,-0.476,0.366,-0.16
44.25,-0.099,1.891,0.236
44.26,-0.219,0.728,0.118
44.27,-0.133,0.983,-0.026
44.28,-0.411,0.339,-0.125
44.29,-0.138,1.547,0.129
44.3,-0.281,0.924,0.091
44.31,-0.001,0.7,-0.068
44.32,-0.406,0.781,-0.131
44.33,0.047,1.104,0.171
44.34,-0.333,1.278,0.095
44.35,0.046,0.513,-0.079
44.36,-0.464,0.877,-0.146
44.37,0.028,1.135,0.167
44.38,-0.272,1.144,0.067
44.39,-0.032,0.858,-0.064
44.4,-0.42,0.424,-0.066
44.41,-0.181,1.355,0.196
44.42,-0.257,0.927,-0.021
44.43,-0.329,0.936,-0.124
44.44,-0.283,0.346,-0.077
44.45,-0.105,1.31,0.214
44.46,-0.206,0.7,0.053
44.47,-0.389,0.91,-0.098
44.48,-0.339,0.73,-0.067
44.49,-0.062,0.942,0.202
44.5,-0.293,1.106,0.02
44.51,-0.306,0.378,-0.115
44.52,-0.304,1.554,-0.065
44.53,0.083,0.725,0.181
44.54,-0.342,1.194,0.041
44.55,-0.32,0.369,-0.136
44.56,-0.239,1.659,-0.067
44.57,0.047,0.963,0.147
44.58,-0.138,0.66,0.012
44.59,-0.437,0.913,-0.178
44.6,-0.281,1.22,-0.01
44.61,-0.193,0.998,0.159
44.62,-0.065,0.623,0.012
44.63,-0.449,0.796,-0.163
44.64,-0.29,1.688,0.016
44.65,-0.03,0.816,0.132
44.66,-0.107,0.896,0.036
44.67,-0.389,0.387,-0.179
44.68,-0.359,2.0,0.087
44.69,-0.071,0.598,0.194
44.7,-0.111,1.025,0.057
44.71,-0.435,0.379,-0.223
44.72,-0.284,2.0,0.05
44.73,-0.142,0.782,0.081
44.74,-0.022,0.658,0.039
44.75,-0.495,0.759,-0.215
44.76,-0.052,1.635,0.021
44.77,-0.049,1.254,0.103
44.78,0.07,0.38,0.009
44.79,-0.541,0.938,-0.205
44.8,-0.009,1.798,0.124
44.81,-0.137,0.927,0.125
44.82,0.037,0.809,-0.009
44.83,-0.507,0.451,-0.196
44.84,-0.09,2.0,0.111
44.85,-0.16,0.594,0.107
44.86,-0.061,1.003,-0.012
44.87,-0.431,0.322,-0.181
44.88,-0.23,1.683,0.074
44.89,-0.168,0.875,0.097
44.9,-0.044,0.658,-0.003
44.91,-0.366,0.781,-0.225
44.92,0.009,1.483,0.109
44.93,-0.239,1.231,0.101
44.94,-0.032,0.51,-0.034
44.95,-0.538,0.931,-0.184
44.96,-0.015,1.488,0.184
44.97,-0.28,1.117,0.054
44.98,-0.016,0.778,-0.04
44.99,-0.357,0.451,-0.117
45.0,-0.229,1.546,0.138
45.01,-0.142,0.648,0.101
45.02,-0.217,1.138,-0.099
45.03,-0.31,0.259,-0.117
45.04,-0.112,1.617,0.169
45.05,-0.172,0.93,0.085
45.06,-0.079,0.789,-0.079
45.07,-0.421,0.759,-0.121
45.08,-0.039,1.093,0.196
45.09,-0.38,1.403,0.087
45.1,0.039,0.46,-0.068
45.11,-0.483,0.945,-0.093
45.12,0.001,0.921,0.185
45.13,-0.293,1.133,0.036
45.14,-0.193,0.816,-0.19
45.15,-0.391,0.486,-0.068
45.16,-0.076,1.298,0.169
45.17,-0.129,0.769,0.044
45.18,-0.266,1.084,-0.167
45.19,-0.342,0.326,-0.116
45.2,-0.098,1.231,0.183
45.21,-0.239,0.947,-0.008
45.22,-0.219,0.681,-0.122
45.23,-0.25,1.187,-0.069
45.24,0.047,1.006,0.184
45.25,-0.267,0.948,0.009
45.26,-0.33,0.514,-0.147
45.27,-0.328,1.539,-0.062
45.28,0.035,0.654,0.219
45.29,-0.313,1.248,0.056
45.3,-0.356,0.388,-0.19
45.31,-0.268,1.529,-0.042
45.32,-0.006,0.857,0.181
45.33,-0.157,0.741,0.009
45.34,-0.389,0.813,-0.162
45.35,-0.28,1.496,0.005
45.36,-0.025,1.167,0.159
45.37,0.006,0.504,0.086
45.38,-0.497,0.961,-0.187
45.39,-0.327,1.656,0.055
45.4,-0.109,0.749,0.127
45.41,-0.166,0.9,0.087
45.42,-0.386,0.426,-0.194
45.43,-0.421,1.995,0.108
45.44,-0.143,0.45,0.165
45.45,-0.244,1.094,0.121
45.46,-0.393,0.24,-0.19
45.47,-0.224,2.0,0.017
45.48,0.003,0.994,0.111
45.49,0.007,0.571,0.02
45.5,-0.406,0.801,-0.189
45.51,-0.183,1.858,0.102
45.52,-0.265,1.014,0.098
45.53,0.07,0.565,0.045
45.54,-0.618,0.865,-0.179
45.55,-0.155,1.719,0.139
45.56,-0.284,0.853,0.093
45.57,0.016,0.763,0.041
45.58,-0.58,0.448,-0.153
45.59,-0.182,1.86,0.079
45.6,-0.033,0.713,0.138
45.61,-0.056,0.998,-0.006
45.62,-0.328,0.224,-0.188
45.63,-0.103,2.0,0.128
45.64,-0.17,0.885,0.029
45.65,-0.01,0.777,-0.082
45.66,-0.418,0.777,-0.232
45.67,-0.004,1.641,0.206
45.68,-0.314,1.266,0.095
45.69,0.133,0.439,-0.012
45.7,-0.524,0.917,-0.165
45.71,-0.056,1.2,0.127
45.72,-0.211,1.07,0.015
45.73,-0.053,0.774,-0.053
45.74,-0.3,0.433,-0.14
45.75,-0.125,1.709,0.172
45.76,-0.055,0.727,0.079
45.77,-0.21,1.113,-0.127
45.78,-0.321,0.27,-0.143
45.79,-0.128,1.643,0.178
45.8,-0.25,0.948,0.087
45.81,-0.033,0.733,-0.074
45.82,-0.318,0.755,-0.195
45.83,-0.022,0.977,0.118
45.84,-0.405,1.278,0.003
45.85,-0.123,0.543,-0.179
45.86,-0.413,0.912,-0.137
45.87,0.061,1.033,0.197
45.88,-0.247,1.232,0.085
45.89,-0.148,0.792,-0.177
45.9,-0.375,0.525,-0.06
45.91,-0.179,1.299,0.184
45.92,-0.238,0.872,-0.004
45.93,-0.207,0.917,-0.052
45.94,-0.378,0.43,-0.027
45.95,-0.022,1.249,0.252
45.96,-0.267,0.793,0.024
45.97,-0.437,0.799,-0.1
45.98,-0.312,0.844,-0.029
45.99,-0.123,0.809,0.215
46.0,-0.312,1.31,0.019
46.01,-0.255,0.319,-0.19
46.02,-0.286,1.544,-0.127
46.03,0.182,0.739,0.116
46.04,-0.293,1.181,0.014
46.05,-0.326,0.369,-0.164
46.06,-0.35,1.925,-0.023
46.07,0.007,0.896,0.194
46.08,-0.128,0.7,0.101
46.09,-0.502,0.902,-0.188
46.1,-0.338,1.509,0.064
46.11,-0.256,0.914,0.135
46.12,-0.036,0.603,0.079
46.13,-0.503,0.813,-0.191
46.14,-0.139,1.66,0.07
46.15,-0.177,0.972,0.156
46.16,-0.007,0.719,0.057
46.17,-0.376,0.442,-0.21
46.18,-0.153,2.0,0.045
46.19,0.006,0.705,0.1
46.2,-0.063,0.982,0.042
46.21,-0.404,0.295,-0.171
46.22,-0.259,2.0,0.158
46.23,-0.288,0.629,0.11
46.24,-0.021,0.764,-0.048
46.25,-0.517,0.73,-0.198
46.26,-0.079,1.482,0.116
46.27,-0.191,1.298,0.069
46.28,0.103,0.399,-0.037
46.29,-0.418,0.909,-0.159
46.3,-0.058,1.461,0.121
46.31,-0.261,1.038,0.06
46.32,-0.037,0.856,-0.044
46.33,-0.409,0.418,-0.141
46.34,-0.023,2.0,0.192
46.35,-0.141,0.665,0.03
46.36,-0.12,0.99,-0.053
46.37,-0.377,0.293,-0.182
46.38,-0.176,1.602,0.102
46.39,-0.261,0.903,0.082
46.4,-0.055,0.763,-0.057
46.41,-0.297,0.709,-0.162
46.42,-0.08,1.079,0.153
46.43,-0.315,1.25,0.014
46.44,-0.036,0.574,-0.128
46.45,-0.475,0.91,-0.127
46.46,0.042,1.059,0.208
46.47,-0.321,1.286,0.064
46.48,-0.104,0.806,-0.115
46.49,-0.446,0.494,-0.071
46.5,-0.096,1.228,0.203
46.51,-0.232,0.885,-0.001
46.52,-0.28,0.981,-0.095
46.53,-0.299,0.359,-0.119
46.54,-0.083,1.289,0.173
46.55,-0.271,0.84,0.007
46.56,-0.353,0.8,-0.144
46.57,-0.416,0.731,-0.064
46.58,0.033,0.801,0.188
46.59,-0.356,1.351,0.018
46.6,-0.185,0.356,-0.131
46.61,-0.443,1.426,-0.062
46.62,0.135,0.762,0.221
46.63,-0.348,1.161,0.027
46.64,-0.401,0.516,-0.136
46.65,-0.199,1.464,-0.079
46.66,-0.0,1.063,0.179
46.67,-0.112,0.598,0.021
46.68,-0.538,0.942,-0.216
46.69,-0.13,1.172,-0.024
46.7,-0.182,1.022,0.147
46.71,-0.13,0.723,-0.009
46.72,-0.434,0.644,-0.191
46.73,-0.274,1.844,0.051
46.74,-0.022,0.734,0.19
46.75,-0.16,0.974,0.083
46.76,-0.398,0.367,-0.173
46.77,-0.436,2.0,0.061
46.78,-0.033,0.548,0.125
46.79,-0.074,0.986,0.048
46.8,-0.508,0.472,-0.238
46.81,-0.274,1.82,0.109
46.82,-0.248,0.854,0.102
46.83,0.027,0.638,0.051
46.84,-0.579,0.854,-0.201
46.85,-0.06,1.431,0.154
46.86,-0.258,1.286,0.097
46.87,0.099,0.419,-0.033
46.88,-0.507,0.908,-0.111
46.89,0.036,1.577,0.099
46.9,-0.21,0.993,-0.032
46.91,0.022,0.829,-0.078
46.92,-0.497,0.413,-0.179
46.93,-0.036,1.83,0.231
46.94,-0.188,0.742,0.072
46.95,-0.081,0.931,-0.035
46.96,-0.422,0.272,-0.157
46.97,-0.182,1.393,0.105
46.98,-0.235,0.922,0.062
46.99,-0.154,0.795,-0.096
47.0,-0.384,0.716,-0.084
47.01,0.011,1.198,0.216
47.02,-0.219,1.27,0.108
47.03,0.009,0.6,-0.157
47.04,-0.445,0.927,-0.134
47.05,-0.041,1.097,0.18
47.06,-0.285,1.333,0.069
47.07,-0.071,0.592,-0.113
47.08,-0.367,0.597,-0.09
47.09,-0.086,1.329,0.184
47.1,-0.281,0.683,0.029
47.11,-0.4,1.108,-0.1
47.12,-0.351,0.296,-0.078
47.13,-0.142,1.245,0.219
47.14,-0.222,0.894,0.065
47.15,-0.422,0.796,-0.096
47.16,-0.367,0.755,-0.061
47.17,-0.06,0.863,0.212
47.18,-0.346,1.417,0.022
47.19,-0.176,0.35,-0.153
47.2,-0.239,1.735,-0.08
47.21,0.143,0.832,0.147
47.22,-0.268,1.068,0.018
47.23,-0.396,0.67,-0.189
47.24,-0.346,1.04,-0.047
47.25,0.028,1.083,0.154
47.26,-0.103,0.693,-0.014
47.27,-0.407,0.971,-0.209
47.28,-0.184,1.087,-0.005
47.29,-0.121,1.043,0.179
47.3,-0.16,0.715,0.022
47.31,-0.278,0.638,-0.133
47.32,-0.335,1.94,0.005
47.33,0.065,0.841,0.181
47.34,-0.078,0.954,0.048
47.35,-0.424,0.377,-0.181
47.36,-0.439,2.0,0.013
47.37,-0.115,0.44,0.146
47.38,-0.223,1.108,0.04
47.39,-0.392,0.465,-0.276
47.4,-0.295,1.73,0.063
47.41,-0.16,0.917,0.117
47.42,-0.02,0.498,0.059
47.43,-0.414,0.85,-0.183
47.44,-0.132,1.568,-0.025
47.45,-0.095,1.28,0.133
47.46,0.117,0.505,0.015
47.47,-0.573,0.757,-0.229
47.48,0.006,2.0,0.054
47.49,-0.267,0.611,0.053
47.5,0.086,0.994,0.002
47.51,-0.535,0.327,-0.253
47.52,-0.123,2.0,0.112
47.53,-0.086,0.705,0.04
47.54,0.042,0.914,-0.008
47.55,-0.466,0.443,-0.219
47.56,-0.19,1.592,0.092
47.57,-0.271,0.964,0.124
47.58,0.067,0.639,-0.019
47.59,-0.599,0.932,-0.179
47.6,0.097,1.501,0.218
47.61,-0.316,1.254,0.06
47.62,-0.019,0.477,0.025
47.63,-0.526,0.846,-0.174
47.64,-0.056,1.429,0.145
47.65,-0.352,1.208,0.023
47.66,-0.043,0.667,-0.116
47.67,-0.341,0.478,-0.143
47.68,-0.071,1.455,0.138
47.69,-0.122,0.692,0.072
47.7,-0.23,1.121,-0.189
47.71,-0.326,0.268,-0.114
47.72,-0.087,1.476,0.167
47.73,-0.246,1.038,0.034
47.74,-0.09,0.793,-0.131
47.75,-0.349,0.735,-0.133
47.76,-0.001,0.919,0.16
47.77,-0.277,1.401,-0.046
47.78,-0.137,0.496,-0.193
47.79,-0.358,0.93,-0.138
47.8,0.022,0.889,0.207
47.81,-0.239,1.2,0.039
47.82,-0.333,0.669,-0.16
47.83,-0.325,0.662,-0.081
47.84,-0.168,1.231,0.241
47.85,-0.216,0.743,0.061
47.86,-0.429,0.917,-0.084
47.87,-0.233,0.76,0.011
47.88,-0.116,1.235,0.246
47.89,-0.245,0.635,0.061
47.9,-0.361,0.808,-0.101
47.91,-0.415,1.102,-0.138
47.92,0.067,0.776,0.164
47.93,-0.247,1.24,-0.026
47.94,-0.303,0.315,-0.168
47.95,-0.339,1.495,-0.016
47.96,0.012,0.676,0.182
47.97,-0.252,1.179,-0.038
47.98,-0.261,0.469,-0.179
47.99,-0.287,1.595,-0.128
48.0,0.091,1.033,0.114
48.01,-0.085,0.583,0.003
48.02,-0.46,0.981,-0.233
48.03,-0.248,1.347,-0.039
48.04,-0.08,0.974,0.113
48.05,-0.121,0.684,0.072
48.06,-0.335,0.722,-0.184
48.07,-0.276,1.792,0.011
48.08,-0.087,0.732,0.178
48.09,-0.038,0.986,0.061
48.1,-0.39,0.247,-0.179
48.11,-0.324,2.0,0.079
48.12,-0.068,0.648,0.065
48.13,-0.088,0.948,0.071
48.14,-0.408,0.398,-0.252
48.15,-0.184,1.96,0.098
48.16,-0.193,0.939,0.07
48.17,0.115,0.543,0.039
48.18,-0.571,0.873,-0.205
48.19,0.01,1.604,0.076
48.2,-0.23,1.194,0.063
48.21,0.125,0.504,0.017
48.22,-0.48,0.736,-0.167
48.23,0.03,1.96,0.059
48.24,-0.211,0.794,0.097
48.25,0.005,0.899,-0.054
48.26,-0.462,0.291,-0.162
48.27,-0.089,2.0,0.178
48.28,-0.188,0.634,0.076
48.29,-0.08,0.944,0.0
48.3,-0.42,0.413,-0.128
48.31,-0.131,1.663,0.168
48.32,-0.286,1.031,0.096
48.33,0.029,0.575,-0.098
48.34,-0.417,0.922,-0.137
48.35,0.059,1.269,0.134
48.36,-0.331,1.229,0.084
48.37,0.038,0.522,-0.081
48.38,-0.47,0.79,-0.154
48.39,-0.028,1.263,0.153
48.4,-0.221,0.989,0.038
48.41,-0.117,0.965,-0.14
48.42,-0.38,0.286,-0.104
48.43,-0.125,1.466,0.183
48.44,-0.207,0.809,0.072
48.45,-0.248,1.057,-0.127
48.46,-0.359,0.373,-0.042
48.47,-0.13,1.254,0.279
48.48,-0.304,0.836,0.101
48.49,-0.31,0.728,-0.097
48.5,-0.285,1.094,-0.125
48.51,0.058,0.872,0.201
48.52,-0.322,1.182,-0.026
48.53,-0.306,0.34,-0.163
48.54,-0.406,1.307,-0.065
48.55,0.09,0.756,0.146
48.56,-0.26,1.163,-0.027
48.57,-0.282,0.553,-0.227
48.58,-0.262,1.519,-0.061
48.59,0.016,1.023,0.148
48.6,-0.117,0.609,0.036
48.61,-0.495,0.959,-0.196
48.62,-0.288,1.403,0.033
48.63,-0.09,1.073,0.175
48.64,-0.02,0.637,0.075
48.65,-0.44,0.759,-0.222
48.66,-0.293,1.858,0.109
48.67,-0.11,0.695,0.168
48.68,-0.108,0.989,0.104
48.69,-0.322,0.285,-0.243
48.7,-0.279,2.0,0.048
48.71,-0.004,0.631,0.076
48.72,-0.042,0.932,0.012
