t,ax,ay,az
0.0,-0.238,0.38,-0.153
0.01,-0.255,1.675,-0.013
0.02,-0.135,0.847,0.141
0.03,-0.148,0.729,0.019
0.04,-0.31,0.807,-0.208
0.05,-0.14,1.433,0.0
0.06,-0.157,1.08,0.138
0.07,-0.016,0.538,0.038
0.08,-0.565,0.768,-0.191
0.09,-0.208,1.526,0.072
0.1,-0.322,0.721,0.088
0.11,-0.193,1.082,0.006
0.12,-0.421,0.278,-0.144
0.13,-0.064,2.0,0.064
0.14,-0.077,0.559,0.116
0.15,-0.146,0.881,-0.004
0.16,-0.443,0.177,-0.137
0.17,-0.137,1.939,0.105
0.18,-0.153,0.918,0.167
0.19,0.044,0.636,-0.002
0.2,-0.627,0.808,-0.18
0.21,0.04,1.611,0.187
0.22,-0.401,1.156,0.094
0.23,0.072,0.435,0.009
0.24,-0.556,0.827,-0.158
0.25,0.015,1.591,0.192
0.26,-0.107,1.093,0.005
0.27,0.04,0.779,-0.084
0.28,-0.359,0.314,-0.106
0.29,-0.164,1.845,0.097
0.3,-0.122,0.749,0.043
0.31,-0.149,1.115,-0.105
0.32,-0.387,0.189,-0.13
0.33,-0.019,1.896,0.191
0.34,-0.188,1.002,0.028
0.35,-0.005,0.671,-0.063
0.36,-0.462,0.731,-0.174
0.37,-0.078,1.104,0.172
0.38,-0.353,1.442,0.032
0.39,-0.016,0.362,-0.085
0.4,-0.349,1.018,-0.081
0.41,-0.068,1.002,0.197
0.42,-0.288,1.225,0.006
0.43,-0.26,0.747,-0.146
0.44,-0.334,0.418,-0.027
0.45,-0.171,1.386,0.248
0.46,-0.123,0.905,0.016
0.47,-0.241,1.034,-0.106
0.48,-0.305,0.586,-0.057
0.49,-0.095,1.238,0.131
0.5,-0.284,0.985,0.048
0.51,-0.215,0.675,-0.1
0.52,-0.292,1.572,-0.136
0.53,-0.01,0.783,0.113
0.54,-0.225,1.134,0.007
0.55,-0.312,0.373,-0.168
0.56,-0.509,1.19,-0.061
0.57,-0.043,0.774,0.062
0.58,-0.253,1.3,-0.001
0.59,-0.15,0.518,-0.119
0.6,-0.302,1.481,-0.004
0.61,-0.136,0.948,0.171
0.62,-0.072,0.712,-0.014
0.63,-0.378,0.978,-0.154
0.64,-0.252,1.299,0.062
0.65,-0.12,1.055,0.145
0.66,-0.144,0.659,0.023
0.67,-0.402,0.721,-0.168
0.68,-0.379,1.548,0.086
0.69,-0.168,0.602,0.099
0.7,-0.209,0.829,-0.017
0.71,-0.36,0.315,-0.178
0.72,-0.122,2.0,0.068
0.73,0.049,0.722,0.094
0.74,-0.167,0.871,-0.039
0.75,-0.332,0.125,-0.147
0.76,-0.153,1.979,0.113
0.77,-0.085,0.836,0.094
0.78,-0.031,0.766,-0.053
0.79,-0.502,0.718,-0.224
0.8,0.014,1.629,0.172
0.81,-0.337,1.214,0.053
0.82,0.144,0.415,-0.049
0.83,-0.532,0.879,-0.185
0.84,0.032,1.515,0.119
0.85,-0.198,1.14,0.05
0.86,0.035,0.7,-0.02
0.87,-0.421,0.43,-0.148
0.88,-0.149,1.645,0.135
0.89,-0.116,0.831,0.074
0.9,-0.201,1.112,-0.087
0.91,-0.329,0.207,-0.151
0.92,-0.055,1.87,0.184
0.93,-0.161,0.949,0.077
0.94,-0.02,0.803,-0.089
0.95,-0.509,0.575,-0.192
0.96,-0.032,1.195,0.168
0.97,-0.302,1.431,-0.048
0.98,0.074,0.374,-0.128
0.99,-0.446,0.963,-0.13
1.0,-0.049,1.031,0.193
1.01,-0.33,1.27,0.074
1.02,-0.226,0.738,-0.131
1.03,-0.382,0.525,-0.047
1.04,-0.18,1.372,0.281
1.05,-0.174,1.002,0.078
1.06,-0.254,0.956,-0.085
1.07,-0.37,0.441,-0.035
1.08,-0.12,1.344,0.157
1.09,-0.262,0.943,-0.008
1.1,-0.162,0.819,-0.144
1.11,-0.276,1.162,-0.065
1.12,0.029,0.904,0.132
1.13,-0.185,0.894,0.017
1.14,-0.44,0.698,-0.169
1.15,-0.221,1.515,0.071
1.16,-0.27,0.965,0.169
1.17,0.024,0.57,0.08
1.18,-0.552,0.867,-0.174
1.19,-0.269,1.336,0.143
1.2,-0.32,0.865,0.117
1.21,-0.057,0.85,-0.034
1.22,-0.38,0.495,-0.228
1.23,-0.059,1.95,0.024
1.24,-0.017,0.633,0.128
1.25,-0.086,0.953,-0.024
1.26,-0.403,0.118,-0.196
1.27,-0.124,2.0,0.087
1.28,-0.018,0.751,0.128
1.29,-0.036,0.827,-0.035
1.3,-0.486,0.526,-0.203
1.31,-0.117,1.684,0.138
1.32,-0.269,0.99,0.074
1.33,0.005,0.373,-0.02
1.34,-0.514,0.889,-0.165
1.35,-0.029,1.474,0.139
1.36,-0.11,1.204,0.122
1.37,-0.026,0.564,-0.019
1.38,-0.417,0.528,-0.088
1.39,-0.092,1.927,0.156
1.4,-0.116,0.769,0.088
1.41,-0.062,1.072,-0.091
1.42,-0.321,0.178,-0.217
1.43,-0.071,1.914,0.119
1.44,-0.139,0.902,0.068
1.45,-0.199,0.914,-0.068
1.46,-0.376,0.265,-0.145
1.47,-0.198,1.5,0.117
1.48,-0.269,1.106,0.009
1.49,-0.14,0.706,-0.112
1.5,-0.403,0.707,-0.097
1.51,-0.096,1.079,0.229
1.52,-0.279,1.544,0.009
1.53,-0.088,0.458,-0.062
1.54,-0.482,0.896,-0.059
1.55,-0.084,1.05,0.272
1.56,-0.295,1.375,0.02
1.57,-0.153,0.716,-0.13
1.58,-0.374,0.553,-0.026
1.59,-0.119,1.313,0.133
1.6,-0.221,0.868,0.036
1.61,-0.263,1.012,-0.113
1.62,-0.268,0.682,0.02
1.63,-0.105,1.114,0.17
1.64,-0.181,1.043,-0.044
1.65,-0.259,0.68,-0.128
1.66,-0.254,1.302,-0.09
1.67,0.05,0.769,0.109
1.68,-0.252,1.395,-0.028
1.69,-0.174,0.311,-0.194
1.7,-0.287,1.852,-0.044
1.71,-0.014,0.624,0.102
1.72,-0.238,1.032,0.008
1.73,-0.319,0.536,-0.234
1.74,-0.223,1.587,-0.01
1.75,-0.194,0.922,0.103
1.76,-0.018,0.583,0.011
1.77,-0.474,0.823,-0.201
1.78,-0.147,1.348,0.061
1.79,-0.311,0.923,0.077
1.8,0.028,0.693,-0.001
1.81,-0.512,0.5,-0.241
1.82,-0.133,1.826,0.045
1.83,-0.199,0.593,0.043
1.84,-0.182,0.972,0.036
1.85,-0.379,0.175,-0.165
1.86,-0.171,2.0,0.074
1.87,-0.039,0.625,0.052
1.88,-0.149,0.836,0.005
1.89,-0.494,0.368,-0.144
1.9,-0.081,1.818,0.18
1.91,-0.239,1.054,0.105
1.92,0.086,0.487,-0.024
1.93,-0.58,0.892,-0.183
1.94,0.043,1.511,0.174
1.95,-0.227,1.216,0.086
1.96,0.016,0.5,-0.018
1.97,-0.412,0.684,-0.15
1.98,-0.065,1.66,0.133
1.99,-0.172,0.982,0.106
2.0,-0.023,0.94,-0.086
2.01,-0.299,0.172,-0.123
2.02,-0.214,1.788,0.154
2.03,-0.166,0.831,0.099
2.04,-0.19,0.985,-0.107
2.05,-0.377,0.323,-0.115
2.06,-0.036,1.587,0.128
2.07,-0.174,1.258,-0.064
2.08,-0.044,0.46,-0.103
2.09,-0.499,0.845,-0.094
2.1,-0.103,1.018,0.238
2.11,-0.408,1.5,-0.024
2.12,-0.052,0.441,-0.075
2.13,-0.424,0.847,-0.051
2.14,-0.03,1.105,0.213
2.15,-0.208,1.075,-0.022
2.16,-0.217,0.874,-0.212
2.17,-0.187,0.497,-0.105
2.18,-0.062,1.335,0.126
2.19,-0.176,0.889,-0.026
2.2,-0.222,0.877,-0.117
2.21,-0.226,1.035,-0.093
2.22,-0.015,1.057,0.144
2.23,-0.141,0.753,0.012
2.24,-0.372,0.823,-0.178
2.25,-0.295,1.626,0.019
2.26,-0.121,0.627,0.133
2.27,-0.169,1.19,-0.006
2.28,-0.347,0.212,-0.216
2.29,-0.35,1.948,0.098
2.3,-0.185,0.499,0.167
2.31,-0.177,1.038,0.026
2.32,-0.405,0.309,-0.2
2.33,-0.123,1.781,0.039
2.34,-0.175,0.876,0.097
2.35,0.033,0.543,0.001
2.36,-0.598,0.784,-0.192
2.37,0.01,1.539,0.072
2.38,-0.276,1.052,0.111
2.39,0.015,0.506,0.019
2.4,-0.539,0.684,-0.182
2.41,0.018,1.792,0.113
2.42,-0.231,0.766,0.104
2.43,-0.114,0.82,0.003
2.44,-0.424,0.19,-0.146
2.45,-0.116,2.0,0.142
2.46,-0.102,0.579,0.168
2.47,-0.145,0.918,-0.014
2.48,-0.448,0.283,-0.122
2.49,-0.104,1.789,0.144
2.5,-0.094,1.086,0.084
2.51,-0.05,0.588,-0.039
2.52,-0.445,0.824,-0.141
2.53,-0.05,1.409,0.125
2.54,-0.206,1.361,0.013
2.55,0.037,0.513,-0.093
2.56,-0.455,0.781,-0.134
2.57,-0.127,1.317,0.167
2.58,-0.208,1.206,0.037
2.59,-0.131,0.825,-0.157
2.6,-0.281,0.262,-0.139
2.61,-0.21,1.532,0.153
2.62,-0.219,0.908,0.023
2.63,-0.247,1.041,-0.066
2.64,-0.377,0.289,-0.067
2.65,-0.136,1.371,0.289
2.66,-0.223,1.202,-0.05
2.67,-0.125,0.65,-0.111
2.68,-0.301,0.894,-0.119
2.69,-0.009,0.848,0.173
2.7,-0.335,1.588,-0.036
2.71,-0.136,0.344,-0.129
2.72,-0.23,1.217,-0.067
2.73,-0.035,0.822,0.106
2.74,-0.247,1.196,-0.055
2.75,-0.311,0.708,-0.178
2.76,-0.181,1.01,-0.026
2.77,-0.173,1.126,0.162
2.78,-0.039,0.812,-0.048
2.79,-0.385,0.958,-0.175
2.8,-0.218,1.297,0.059
2.81,-0.217,0.943,0.14
2.82,-0.152,0.902,0.018
2.83,-0.346,0.513,-0.21
2.84,-0.223,1.857,0.102
2.85,-0.095,0.565,0.138
2.86,-0.276,1.02,0.086
2.87,-0.341,0.128,-0.166
2.88,-0.263,2.0,0.094
2.89,-0.15,0.517,0.062
2.9,-0.139,0.877,-0.025
2.91,-0.468,0.494,-0.19
2.92,-0.058,1.714,0.112
2.93,-0.203,0.982,0.101
2.94,0.037,0.373,-0.017
2.95,-0.499,0.903,-0.134
2.96,-0.064,1.529,0.176
2.97,-0.216,1.119,0.149
2.98,-0.065,0.539,-0.075
2.99,-0.508,0.575,-0.126
3.0,-0.09,1.721,0.158
3.01,-0.122,0.947,0.123
3.02,-0.077,1.017,-0.129
3.03,-0.301,0.146,-0.117
3.04,-0.22,1.687,0.131
3.05,-0.163,0.92,0.018
3.06,-0.176,1.066,-0.092
3.07,-0.289,0.253,-0.038
3.08,-0.272,1.396,0.243
3.09,-0.285,1.22,0.052
3.1,-0.134,0.593,-0.12
3.11,-0.281,0.845,-0.059
3.12,-0.043,0.885,0.142
3.13,-0.29,1.458,-0.088
3.14,-0.166,0.424,-0.175
3.15,-0.269,1.301,-0.086
3.16,-0.018,0.849,0.142
3.17,-0.242,1.162,-0.045
3.18,-0.24,0.711,-0.158
3.19,-0.231,1.238,0.042
3.2,-0.177,1.026,0.145
3.21,-0.167,0.705,-0.021
3.22,-0.385,0.892,-0.16
3.23,-0.158,1.365,0.059
3.24,-0.205,0.943,0.125
3.25,-0.146,0.752,-0.007
3.26,-0.431,0.542,-0.155
3.27,-0.177,1.886,0.078
3.28,-0.103,0.542,0.107
3.29,-0.222,1.007,0.025
3.3,-0.404,0.115,-0.177
3.31,-0.169,2.0,0.061
3.32,-0.137,0.564,0.065
3.33,-0.182,0.857,0.023
3.34,-0.504,0.415,-0.091
3.35,-0.119,1.749,0.21
3.36,-0.207,1.161,0.145
3.37,-0.025,0.417,-0.025
3.38,-0.398,0.844,-0.146
3.39,-0.065,1.469,0.154
3.4,-0.118,1.269,0.004
3.41,0.028,0.617,-0.103
3.42,-0.363,0.62,-0.198
3.43,-0.057,1.664,0.15
3.44,-0.177,1.066,-0.044
3.45,-0.108,0.958,-0.117
3.46,-0.248,0.159,-0.082
3.47,-0.237,1.752,0.184
3.48,-0.179,0.936,0.019
3.49,-0.222,0.902,-0.116
3.5,-0.377,0.46,-0.042
3.51,-0.118,1.146,0.16
3.52,-0.346,1.352,-0.016
3.53,-0.163,0.484,-0.131
3.54,-0.241,1.238,-0.04
3.55,0.03,0.757,0.128
3.56,-0.281,1.457,-0.078
3.57,-0.235,0.423,-0.132
3.58,-0.269,1.299,-0.013
3.59,-0.096,0.885,0.148
3.6,-0.2,0.935,-0.031
3.61,-0.356,0.842,-0.173
3.62,-0.158,1.352,0.053
3.63,-0.212,1.024,0.171
3.64,-0.074,0.604,0.031
3.65,-0.469,0.777,-0.164
3.66,-0.094,1.611,0.067
3.67,-0.125,0.781,0.099
3.68,-0.088,0.829,-0.044
3.69,-0.489,0.29,-0.192
3.7,-0.084,2.0,0.097
3.71,-0.082,0.547,0.109
3.72,-0.156,0.916,-0.025
3.73,-0.449,0.18,-0.156
3.74,-0.148,1.881,0.142
3.75,-0.117,0.903,0.099
3.76,0.001,0.721,-0.062
3.77,-0.418,0.693,-0.171
3.78,0.048,1.566,0.178
3.79,-0.24,1.386,0.05
3.8,0.057,0.465,-0.063
3.81,-0.456,0.843,-0.173
3.82,0.003,1.409,0.137
3.83,-0.165,1.246,-0.019
3.84,-0.082,0.669,-0.091
3.85,-0.281,0.973,-0.041
3.86,-0.096,1.118,0.194
3.87,-0.274,1.009,-0.039
3.88,-0.353,0.918,-0.117
3.89,-0.263,0.385,-0.006
3.9,-0.125,1.344,0.162
3.91,-0.167,0.847,-0.013
3.92,-0.255,0.918,-0.107
3.93,-0.206,1.094,0.018
3.94,-0.133,0.852,0.111
3.95,-0.217,1.251,-0.095
3.96,-0.219,0.357,-0.164
3.97,-0.29,1.917,0.133
3.98,-0.053,0.536,0.161
3.99,-0.154,1.137,0.028
4.0,-0.404,0.232,-0.25
4.01,-0.123,1.921,0.095
4.02,-0.21,0.685,0.089
4.03,-0.106,0.641,0.008
4.04,-0.583,0.694,-0.136
4.05,-0.006,1.612,0.086
4.06,-0.271,1.074,0.11
4.07,0.003,0.38,-0.032
4.08,-0.565,0.78,-0.103
4.09,-0.05,1.541,0.151
4.1,-0.091,1.067,0.123
4.11,-0.0,0.771,-0.078
4.12,-0.304,0.316,-0.184
4.13,-0.11,1.811,0.089
4.14,-0.076,0.823,0.031
4.15,-0.24,1.041,-0.09
4.16,-0.353,0.175,-0.059
4.17,-0.342,1.624,0.196
4.18,-0.219,1.08,0.078
4.19,-0.127,0.697,-0.074
4.2,-0.416,0.72,-0.012
4.21,-0.095,0.979,0.204
4.22,-0.361,1.448,0.022
4.23,-0.105,0.4,-0.169
4.24,-0.314,1.075,-0.061
4.25,0.048,0.928,0.114
4.26,-0.258,1.275,-0.06
4.27,-0.25,0.632,-0.148
4.28,-0.292,0.856,-0.015
4.29,-0.118,1.102,0.098
4.3,-0.168,0.896,-0.03
4.31,-0.373,0.948,-0.133
4.32,-0.125,1.276,0.011
4.33,-0.184,0.997,0.146
4.34,-0.15,0.787,-0.012
4.35,-0.408,0.703,-0.163
4.36,-0.199,1.722,0.081
4.37,-0.142,0.546,0.091
4.38,-0.136,1.067,0.014
4.39,-0.445,0.166,-0.181
4.4,-0.129,2.0,0.106
4.41,-0.07,0.594,0.069
4.42,-0.163,0.789,-0.016
4.43,-0.449,0.351,-0.175
4.44,-0.105,1.776,0.153
4.45,-0.114,1.117,0.09
4.46,0.002,0.48,-0.045
4.47,-0.453,0.849,-0.113
4.48,0.01,1.561,0.193
4.49,-0.192,1.249,0.05
4.5,0.038,0.52,-0.075
4.51,-0.44,0.658,-0.172
4.52,0.01,1.689,0.122
4.53,-0.159,1.021,0.004
4.54,-0.023,0.921,-0.137
4.55,-0.316,0.195,-0.092
4.56,-0.284,1.626,0.192
4.57,-0.16,0.848,-0.006
4.58,-0.3,0.998,-0.128
4.59,-0.272,0.466,-0.038
4.6,-0.151,1.15,0.191
4.61,-0.241,1.272,-0.004
4.62,-0.11,0.498,-0.108
4.63,-0.285,1.258,-0.06
4.64,0.069,0.743,0.084
4.65,-0.316,1.291,-0.013
4.66,-0.183,0.345,-0.17
4.67,-0.383,1.933,0.091
4.68,0.018,0.55,0.143
4.69,-0.159,1.002,-0.003
4.7,-0.379,0.446,-0.255
4.71,-0.222,1.606,0.094
4.72,-0.233,0.883,0.1
4.73,-0.092,0.574,0.004
4.74,-0.491,0.793,-0.202
4.75,-0.008,1.478,0.045
4.76,-0.161,1.013,0.005
4.77,-0.013,0.492,-0.034
4.78,-0.478,0.566,-0.153
4.79,-0.081,1.762,0.13
4.8,-0.027,0.791,0.099
4.81,-0.101,0.948,-0.014
4.82,-0.448,0.177,-0.096
4.83,-0.193,2.0,0.185
4.84,-0.104,0.724,0.086
4.85,-0.22,0.884,-0.078
4.86,-0.352,0.365,-0.174
4.87,-0.158,1.624,0.125
4.88,-0.224,1.25,0.025
4.89,0.029,0.515,-0.086
4.9,-0.437,0.833,-0.078
4.91,-0.096,1.017,0.208
4.92,-0.385,1.481,0.008
4.93,-0.097,0.552,-0.125
4.94,-0.418,0.761,-0.049
4.95,-0.085,1.205,0.241
4.96,-0.239,1.188,0.058
4.97,-0.271,0.843,-0.13
4.98,-0.256,0.557,-0.002
4.99,-0.163,1.35,0.177
5.0,-0.235,0.81,-0.011
5.01,-0.328,0.937,-0.13
5.02,-0.186,1.256,-0.035
5.03,-0.028,0.868,0.098
5.04,-0.217,0.992,0.014
5.05,-0.352,0.532,-0.199
5.06,-0.345,1.772,0.078
5.07,-0.145,0.573,0.152
5.08,-0.24,1.272,-0.004
5.09,-0.268,0.193,-0.215
5.1,-0.26,1.886,0.12
5.11,-0.01,0.679,0.082
5.12,-0.072,0.72,-0.054
5.13,-0.429,0.599,-0.228
5.14,0.016,1.602,-0.002
5.15,-0.132,1.146,0.113
5.16,0.007,0.36,-0.014
5.17,-0.584,0.799,-0.17
5.18,-0.025,1.626,0.174
5.19,-0.238,1.052,0.119
5.2,0.01,0.681,-0.03
5.21,-0.386,0.424,-0.154
5.22,-0.049,1.944,0.189
5.23,-0.007,0.72,0.059
5.24,-0.102,1.02,-0.068
5.25,-0.307,0.124,-0.145
5.26,-0.166,1.802,0.122
5.27,-0.136,0.935,0.039
5.28,-0.146,0.803,-0.05
5.29,-0.379,0.609,-0.129
5.3,-0.137,1.342,0.198
5.31,-0.318,1.441,0.056
5.32,0.005,0.448,-0.078
5.33,-0.569,0.896,-0.059
5.34,-0.059,1.029,0.237
5.35,-0.331,1.404,-0.007
5.36,-0.117,0.513,-0.086
5.37,-0.244,0.88,-0.031
5.38,-0.117,1.219,0.147
5.39,-0.214,0.782,0.044
5.4,-0.372,1.016,-0.119
5.41,-0.239,0.479,0.024
5.42,-0.146,1.218,0.138
5.43,-0.177,0.944,-0.038
5.44,-0.3,0.753,-0.139
5.45,-0.16,1.166,0.026
5.46,-0.246,0.879,0.133
5.47,-0.144,1.053,-0.061
5.48,-0.366,0.394,-0.212
5.49,-0.028,2.0,0.08
5.5,-0.012,0.646,0.12
5.51,-0.069,0.95,0.014
5.52,-0.432,0.187,-0.204
5.53,-0.167,2.0,0.056
5.54,-0.156,0.639,0.071
5.55,-0.097,0.719,-0.001
5.56,-0.498,0.634,-0.197
5.57,-0.087,1.593,0.126
5.58,-0.249,1.143,0.106
5.59,0.105,0.353,-0.027
5.6,-0.475,0.854,-0.139
5.61,-0.052,1.401,0.1
5.62,-0.17,1.197,0.068
5.63,-0.022,0.761,-0.072
5.64,-0.306,0.405,-0.111
5.65,-0.076,1.862,0.177
5.66,-0.044,0.891,-0.004
5.67,-0.17,1.013,-0.107
5.68,-0.342,0.159,-0.068
5.69,-0.298,1.809,0.196
5.7,-0.258,1.013,0.028
5.71,-0.174,0.814,-0.089
5.72,-0.402,0.54,-0.081
5.73,-0.095,1.106,0.204
5.74,-0.35,1.549,-0.011
5.75,-0.063,0.418,-0.142
5.76,-0.414,0.936,-0.076
5.77,0.048,0.908,0.126
5.78,-0.308,1.395,-0.057
5.79,-0.149,0.603,-0.14
5.8,-0.329,0.861,-0.047
5.81,-0.13,1.052,0.142
5.82,-0.226,0.959,-0.09
5.83,-0.267,0.82,-0.065
5.84,-0.126,1.321,0.042
5.85,-0.093,1.085,0.109
5.86,-0.053,0.643,-0.048
5.87,-0.485,0.823,-0.171
5.88,-0.289,1.529,0.151
5.89,-0.246,0.627,0.135
5.9,-0.223,1.105,0.007
5.91,-0.365,0.211,-0.188
5.92,-0.221,2.0,0.092
5.93,-0.073,0.485,0.046
5.94,-0.254,0.977,-0.015
5.95,-0.405,0.28,-0.182
5.96,-0.046,1.856,0.132
5.97,-0.023,1.046,0.082
5.98,0.023,0.483,-0.047
5.99,-0.503,0.769,-0.154
6.0,0.029,1.505,0.206
6.01,-0.247,1.321,0.054
6.02,0.015,0.535,-0.049
6.03,-0.419,0.769,-0.204
6.04,-0.072,1.67,0.164
6.05,-0.132,1.029,0.014
6.06,-0.061,0.872,-0.09
6.07,-0.279,0.22,-0.115
6.08,-0.248,1.532,0.083
6.09,-0.211,0.849,-0.011
6.1,-0.261,1.065,-0.165
6.11,-0.208,0.372,-0.056
6.12,-0.206,1.224,0.176
6.13,-0.259,1.126,0.031
6.14,-0.149,0.602,-0.141
6.15,-0.341,0.928,-0.069
6.16,-0.038,0.813,0.175
6.17,-0.335,1.595,-0.081
6.18,-0.102,0.243,-0.071
6.19,-0.219,1.722,-0.033
6.2,-0.087,0.743,0.148
6.21,-0.184,0.898,0.023
6.22,-0.503,0.805,-0.182
6.23,-0.195,1.377,0.081
6.24,-0.267,1.033,0.146
6.25,0.032,0.64,-0.009
6.26,-0.552,0.78,-0.214
6.27,-0.014,1.471,0.105
6.28,-0.288,1.085,0.081
6.29,-0.065,0.434,0.029
6.3,-0.498,0.606,-0.101
6.31,-0.086,1.694,0.169
6.32,-0.011,0.926,0.11
6.33,-0.06,0.875,-0.054
6.34,-0.314,0.169,-0.115
6.35,-0.152,1.927,0.157
6.36,-0.068,0.729,0.059
6.37,-0.115,1.028,-0.101
6.38,-0.405,0.288,-0.172
6.39,-0.042,1.682,0.138
6.4,-0.22,1.251,-0.063
6.41,-0.026,0.542,-0.095
6.42,-0.385,0.774,-0.126
6.43,-0.056,1.052,0.166
6.44,-0.399,1.482,-0.017
6.45,-0.1,0.51,-0.11
6.46,-0.427,0.828,-0.031
6.47,0.004,1.024,0.229
6.48,-0.268,1.202,0.009
6.49,-0.268,0.799,-0.143
6.5,-0.244,0.578,-0.035
6.51,-0.158,1.239,0.133
6.52,-0.211,0.871,-0.078
6.53,-0.24,0.911,-0.142
6.54,-0.145,1.353,0.052
6.55,-0.185,0.979,0.158
6.56,-0.03,0.631,0.036
6.57,-0.627,0.716,-0.159
6.58,-0.104,1.695,0.16
6.59,-0.232,0.653,0.101
6.6,-0.13,0.979,0.021
6.61,-0.42,0.202,-0.19
6.62,-0.209,2.0,0.1
6.63,-0.102,0.577,0.06
6.64,-0.208,0.846,-0.039
6.65,-0.378,0.243,-0.14
6.66,-0.068,1.84,0.125
6.67,-0.019,1.028,0.055
6.68,0.015,0.554,-0.095
6.69,-0.411,0.766,-0.125
6.7,-0.04,1.495,0.165
6.71,-0.263,1.378,0.071
6.72,0.034,0.561,-0.026
6.73,-0.418,0.741,-0.111
6.74,-0.089,1.519,0.168
6.75,-0.244,1.147,-0.036
6.76,-0.107,0.872,-0.077
6.77,-0.307,0.264,-0.014
6.78,-0.289,1.516,0.191
6.79,-0.251,0.838,0.038
6.8,-0.358,1.021,-0.131
6.81,-0.212,0.439,-0.017
6.82,-0.14,1.172,0.159
6.83,-0.267,1.243,-0.038
6.84,-0.177,0.542,-0.152
6.85,-0.366,1.119,0.011
6.86,0.026,0.707,0.135
6.87,-0.372,1.478,-0.054
6.88,-0.144,0.287,-0.119
6.89,-0.284,1.785,0.025
6.9,-0.014,0.738,0.134
6.91,-0.185,0.879,-0.011
6.92,-0.416,0.712,-0.268
6.93,-0.071,1.586,0.044
6.94,-0.169,1.017,0.116
6.95,-0.015,0.479,0.046
6.96,-0.617,0.833,-0.182
6.97,0.023,1.571,0.067
6.98,-0.217,0.982,0.061
6.99,-0.042,0.635,-0.031
7.0,-0.469,0.367,-0.137
7.01,-0.132,1.943,0.127
7.02,-0.013,0.658,0.077
7.03,-0.083,1.027,-0.033
7.04,-0.304,0.121,-0.139
7.05,-0.202,1.856,0.187
7.06,-0.109,0.932,0.092
7.07,-0.242,0.999,-0.136
7.08,-0.273,0.299,-0.101
7.09,-0.226,1.374,0.19
7.1,-0.291,1.261,-0.007
7.11,-0.05,0.569,-0.166
7.12,-0.368,0.941,-0.06
7.13,0.029,0.822,0.173
7.14,-0.411,1.545,-0.041
7.15,-0.145,0.4,-0.157
7.16,-0.298,1.291,-0.016
7.17,0.03,0.89,0.123
7.18,-0.265,1.004,-0.009
7.19,-0.322,0.822,-0.156
7.2,-0.229,1.146,0.051
7.21,-0.221,1.082,0.17
7.22,-0.164,0.72,0.011
7.23,-0.427,0.828,-0.162
7.24,-0.146,1.453,0.089
7.25,-0.168,0.807,0.162
7.26,-0.133,0.848,0.02
7.27,-0.461,0.382,-0.136
7.28,-0.029,2.0,0.058
7.29,0.0,0.609,0.058
7.3,-0.065,0.965,-0.034
7.31,-0.487,0.175,-0.171
7.32,-0.121,2.0,0.162
7.33,-0.208,0.686,0.081
7.34,-0.057,0.665,-0.067
7.35,-0.449,0.601,-0.166
7.36,-0.036,1.591,0.173
7.37,-0.273,1.318,0.155
7.38,0.038,0.437,-0.05
7.39,-0.395,0.866,-0.127
7.4,-0.072,1.278,0.145
7.41,-0.246,1.307,0.005
7.42,-0.067,0.755,-0.143
7.43,-0.369,0.404,-0.084
7.44,-0.231,1.576,0.286
7.45,-0.141,1.002,0.024
7.46,-0.337,0.961,-0.113
7.47,-0.19,0.301,-0.075
7.48,-0.235,1.44,0.203
7.49,-0.198,0.939,-0.038
7.5,-0.223,0.736,-0.105
7.51,-0.134,1.229,-0.086
7.52,-0.039,0.865,0.172
7.53,-0.22,1.281,-0.029
7.54,-0.3,0.36,-0.193
7.55,-0.35,1.235,-0.024
7.56,-0.034,0.767,0.054
7.57,-0.223,1.326,-0.061
7.58,-0.16,0.433,-0.189
7.59,-0.25,1.523,0.018
7.6,-0.151,0.886,0.11
7.61,-0.157,0.747,0.004
7.62,-0.443,0.82,-0.187
7.63,0.004,1.551,0.056
7.64,-0.168,1.079,0.125
7.65,0.039,0.553,0.014
7.66,-0.601,0.714,-0.195
7.67,-0.008,1.77,0.087
7.68,-0.201,0.701,0.08
7.69,-0.076,0.885,-0.031
7.7,-0.43,0.173,-0.138
7.71,-0.159,2.0,0.172
7.72,-0.011,0.697,0.11
7.73,-0.144,0.871,-0.061
7.74,-0.363,0.284,-0.107
7.75,-0.151,1.709,0.131
7.76,-0.124,1.115,0.017
7.77,-0.019,0.658,-0.056
7.78,-0.441,0.801,-0.094
7.79,0.046,1.459,0.177
7.8,-0.306,1.415,-0.013
7.81,0.018,0.506,-0.061
7.82,-0.426,0.711,-0.133
7.83,-0.155,1.296,0.207
7.84,-0.317,1.133,0.003
7.85,-0.124,0.813,-0.132
7.86,-0.224,0.366,-0.018
7.87,-0.119,1.391,0.177
7.88,-0.114,0.857,-0.043
7.89,-0.458,0.994,-0.157
7.9,-0.268,0.536,0.055
7.91,-0.184,1.208,0.149
7.92,-0.126,0.935,-0.058
7.93,-0.251,0.726,-0.182
7.94,-0.12,1.601,-0.034
7.95,-0.076,0.661,0.146
7.96,-0.173,1.114,0.021
7.97,-0.433,0.187,-0.173
7.98,-0.198,2.0,0.083
7.99,-0.051,0.518,0.096
8.0,-0.114,1.028,-0.003
8.01,-0.513,0.355,-0.228
8.02,-0.273,1.732,0.122
8.03,-0.293,0.784,0.065
8.04,0.002,0.609,-0.003
8.05,-0.554,0.789,-0.156
8.06,0.021,1.454,0.147
8.07,-0.161,1.308,0.112
8.08,-0.042,0.405,-0.021
8.09,-0.401,0.623,-0.09
8.1,-0.046,1.663,0.088
8.11,-0.066,0.899,0.081
8.12,0.015,1.09,-0.105
8.13,-0.418,0.185,-0.122
8.14,-0.087,2.0,0.239
8.15,-0.229,0.767,0.026
8.16,-0.128,0.923,-0.057
8.17,-0.465,0.342,-0.075
8.18,-0.246,1.43,0.204
8.19,-0.35,1.259,0.025
8.2,-0.134,0.522,-0.09
8.21,-0.417,1.008,0.04
8.22,-0.012,0.883,0.213
8.23,-0.356,1.332,0.047
8.24,-0.239,0.481,-0.132
8.25,-0.383,0.931,-0.067
8.26,-0.138,1.019,0.221
8.27,-0.215,1.106,0.013
8.28,-0.274,0.759,-0.09
8.29,-0.184,0.856,0.008
8.3,-0.211,1.177,0.118
8.31,-0.166,0.851,-0.045
8.32,-0.313,0.911,-0.118
8.33,-0.148,1.438,0.083
8.34,-0.113,0.93,0.173
8.35,-0.09,0.846,0.006
8.36,-0.49,0.501,-0.206
8.37,-0.282,1.737,0.154
8.38,-0.21,0.525,0.098
8.39,-0.288,1.218,-0.003
8.4,-0.267,0.157,-0.158
8.41,-0.147,2.0,-0.003
8.42,-0.053,0.603,0.08
8.43,-0.138,0.699,-0.026
8.44,-0.558,0.537,-0.2
8.45,-0.013,1.562,0.122
8.46,-0.126,1.241,0.105
8.47,0.079,0.49,-0.077
8.48,-0.46,0.897,-0.153
8.49,0.007,1.571,0.213
8.5,-0.235,1.191,0.009
8.51,-0.011,0.711,-0.109
8.52,-0.384,0.453,-0.166
8.53,-0.094,1.811,0.11
8.54,-0.114,0.871,-0.014
8.55,-0.053,1.039,-0.102
8.56,-0.35,0.172,-0.101
8.57,-0.2,1.552,0.176
8.58,-0.309,0.941,-0.005
8.59,-0.154,0.934,-0.124
8.6,-0.365,0.67,-0.062
8.61,-0.104,1.043,0.232
8.62,-0.327,1.485,0.041
8.63,-0.108,0.4,-0.121
8.64,-0.393,1.117,-0.036
8.65,0.038,0.77,0.144
8.66,-0.394,1.4,-0.024
8.67,-0.134,0.54,-0.176
8.68,-0.199,1.5,-0.049
8.69,0.048,0.781,0.134
8.7,-0.053,0.791,0.013
8.71,-0.525,0.731,-0.249
8.72,-0.169,1.479,0.118
8.73,-0.306,0.96,0.132
8.74,-0.051,0.541,0.02
8.75,-0.544,0.768,-0.186
8.76,0.04,1.578,0.039
8.77,-0.137,0.955,0.071
8.78,-0.01,0.601,-0.034
8.79,-0.514,0.322,-0.138
8.8,-0.062,1.928,0.077
8.81,0.014,0.684,0.089
8.82,-0.036,1.08,-0.047
8.83,-0.425,0.16,-0.153
8.84,-0.161,2.0,0.214
8.85,-0.201,0.875,0.061
8.86,-0.116,0.784,-0.055
8.87,-0.357,0.606,-0.144
8.88,-0.108,1.493,0.133
8.89,-0.241,1.356,-0.002
8.9,0.058,0.411,-0.064
8.91,-0.449,1.03,-0.08
8.92,-0.044,1.038,0.174
8.93,-0.328,1.147,-0.035
8.94,-0.183,0.769,-0.097
8.95,-0.306,0.629,-0.043
8.96,-0.202,1.234,0.22
8.97,-0.159,0.909,0.014
8.98,-0.315,0.9,-0.08
8.99,-0.215,0.504,-0.007
9.0,-0.132,1.273,0.18
9.01,-0.203,0.961,-0.048
9.02,-0.2,0.753,-0.139
9.03,-0.321,1.486,-0.057
9.04,0.022,0.745,0.111
9.05,-0.263,1.195,0.067
9.06,-0.382,0.349,-0.185
9.07,-0.359,1.786,0.154
9.08,-0.16,0.583,0.143
9.09,-0.238,1.23,0.051
9.1,-0.26,0.348,-0.251
9.11,-0.152,1.713,0.102
9.12,-0.166,0.818,0.109
9.13,0.016,0.605,-0.03
9.14,-0.553,0.752,-0.167
9.15,0.044,1.546,0.078
9.16,-0.229,1.106,0.114
9.17,0.127,0.44,-0.071
9.18,-0.518,0.692,-0.165
9.19,-0.047,1.741,0.164
9.2,-0.203,0.839,0.09
9.21,-0.047,0.847,-0.095
9.22,-0.328,0.206,-0.13
9.23,-0.187,1.958,0.104
9.24,-0.084,0.74,0.075
9.25,-0.12,1.038,-0.056
9.26,-0.325,0.293,-0.084
9.27,-0.078,1.655,0.149
9.28,-0.199,1.183,0.019
9.29,-0.047,0.54,-0.129
9.3,-0.433,0.833,-0.134
9.31,-0.09,1.124,0.193
9.32,-0.35,1.487,0.003
9.33,-0.11,0.45,-0.077
9.34,-0.331,0.859,-0.075
9.35,-0.066,1.083,0.189
9.36,-0.217,1.174,-0.083
9.37,-0.187,0.847,-0.157
9.38,-0.183,0.669,-0.08
9.39,-0.084,1.294,0.173
9.4,-0.13,0.791,-0.008
9.41,-0.389,0.945,-0.145
9.42,-0.181,0.928,-0.024
9.43,-0.125,1.005,0.122
9.44,-0.171,1.119,-0.036
9.45,-0.258,0.469,-0.189
9.46,-0.272,1.82,0.07
9.47,-0.231,1.142,-0.071
9.48,-0.017,0.742,0.093
9.49,-0.292,1.38,-0.012
9.5,-0.234,0.258,-0.184
9.51,-0.362,1.787,0.086
9.52,-0.069,0.69,0.136
9.53,-0.32,1.048,0.025
9.54,-0.263,0.6,-0.205
9.55,-0.181,1.577,0.037
9.56,-0.031,0.997,0.091
9.57,-0.021,0.514,0.0
9.58,-0.579,0.868,-0.21
9.59,-0.035,1.544,0.051
9.6,-0.246,0.942,0.091
9.61,-0.009,0.638,0.007
9.62,-0.546,0.523,-0.155
9.63,-0.102,1.952,0.159
9.64,-0.153,0.639,0.051
9.65,-0.087,0.912,-0.008
9.66,-0.375,0.074,-0.11
9.67,-0.155,1.989,0.136
9.68,-0.016,0.812,0.091
9.69,-0.088,0.844,-0.075
9.7,-0.327,0.481,-0.193
9.71,-0.138,1.522,0.155
9.72,-0.276,1.301,0.078
9.73,-0.003,0.567,-0.122
9.74,-0.437,0.903,-0.146
9.75,0.061,1.334,0.158
9.76,-0.355,1.424,-0.016
9.77,-0.069,0.557,-0.1
9.78,-0.437,0.54,-0.049
9.79,-0.134,1.326,0.175
9.8,-0.257,1.06,0.024
9.81,-0.307,0.963,-0.116
9.82,-0.236,0.348,0.007
9.83,-0.164,1.422,0.195
9.84,-0.167,0.821,0.002
9.85,-0.392,0.955,-0.158
9.86,-0.171,0.94,-0.02
9.87,-0.136,0.906,0.156
9.88,-0.242,1.308,-0.068
9.89,-0.198,0.346,-0.169
9.9,-0.272,1.91,0.047
9.91,-0.008,0.555,0.156
9.92,-0.233,1.161,-0.027
9.93,-0.363,0.429,-0.217
9.94,-0.251,1.836,0.073
9.95,-0.114,0.793,0.114
9.96,-0.042,0.671,0.02
9.97,-0.529,0.789,-0.229
9.98,-0.069,1.492,0.07
9.99,-0.27,1.0,0.094
10.0,0.047,0.51,0.035
10.01,-0.588,0.714,-0.162
10.02,-0.015,1.697,0.137
10.03,-0.119,0.919,0.084
10.04,0.03,0.798,-0.033
10.05,-0.464,0.223,-0.145
10.06,-0.154,2.0,0.191
10.07,-0.129,0.641,0.139
10.08,-0.149,1.046,-0.046
10.09,-0.412,0.246,-0.154
10.1,-0.099,1.917,0.201
10.11,-0.222,0.999,0.013
10.12,-0.042,0.558,-0.057
10.13,-0.385,0.733,-0.172
10.14,-0.091,1.179,0.134
10.15,-0.345,1.466,0.054
10.16,-0.073,0.425,-0.12
10.17,-0.371,0.81,-0.066
10.18,-0.167,1.073,0.227
10.19,-0.301,1.221,0.068
10.2,-0.154,0.826,-0.127
10.21,-0.37,0.455,-0.011
10.22,-0.151,1.343,0.199
10.23,-0.205,0.914,-0.081
10.24,-0.222,0.838,-0.084
10.25,-0.214,1.173,-0.031
10.26,-0.057,1.131,0.104
10.27,-0.249,0.738,0.007
10.28,-0.276,0.864,-0.197
10.29,-0.225,1.502,0.036
10.3,-0.067,0.686,0.07
10.31,-0.18,1.083,-0.034
10.32,-0.344,0.257,-0.227
10.33,-0.274,1.983,0.109
10.34,-0.101,0.448,0.061
10.35,-0.235,1.041,0.008
10.36,-0.4,0.278,-0.164
10.37,-0.081,1.861,0.124
10.38,-0.056,0.983,0.085
10.39,-0.02,0.518,-0.073
10.4,-0.493,0.707,-0.156
10.41,-0.023,1.564,0.209
10.42,-0.212,1.297,0.129
10.43,0.005,0.483,-0.05
10.44,-0.445,0.824,-0.18
10.45,-0.001,1.677,0.19
10.46,-0.16,1.078,0.015
10.47,-0.077,0.772,-0.075
10.48,-0.3,0.247,-0.104
10.49,-0.32,1.717,0.116
10.5,-0.159,0.811,0.089
10.51,-0.26,1.086,-0.13
10.52,-0.213,0.252,-0.066
10.53,-0.232,1.4,0.203
10.54,-0.17,1.065,-0.025
10.55,-0.164,0.724,-0.153
10.56,-0.32,0.853,-0.086
10.57,-0.117,0.894,0.243
10.58,-0.375,1.581,-0.036
10.59,-0.127,0.323,-0.061
10.6,-0.177,1.543,-0.084
10.61,-0.045,0.792,0.157
10.62,-0.228,1.131,-0.062
10.63,-0.378,0.75,-0.176
10.64,-0.178,1.317,0.056
10.65,-0.209,1.131,0.137
10.66,-0.017,0.569,0.002
10.67,-0.483,0.873,-0.272
10.68,-0.153,1.277,0.059
10.69,-0.267,0.934,0.101
10.7,-0.197,0.856,0.026
10.71,-0.446,0.458,-0.125
10.72,-0.099,1.997,0.058
10.73,-0.026,0.571,0.142
10.74,-0.043,1.017,-0.011
10.75,-0.531,0.125,-0.178
10.76,-0.114,2.0,0.156
10.77,-0.149,0.719,0.063
10.78,-0.084,0.804,-0.058
10.79,-0.398,0.52,-0.198
10.8,-0.043,1.705,0.193
10.81,-0.28,1.193,0.065
10.82,0.078,0.39,-0.071
10.83,-0.424,0.837,-0.196
10.84,-0.035,1.36,0.099
10.85,-0.202,1.31,-0.018
10.86,-0.026,0.639,-0.101
10.87,-0.379,0.535,-0.116
10.88,-0.192,1.477,0.155
10.89,-0.184,0.951,0.041
10.9,-0.217,1.071,-0.117
10.91,-0.315,0.198,-0.007
10.92,-0.315,1.433,0.256
10.93,-0.247,1.016,0.008
10.94,-0.247,0.809,-0.112
10.95,-0.242,0.848,0.022
10.96,-0.056,0.966,0.169
10.97,-0.283,1.311,-0.052
10.98,-0.153,0.49,-0.202
10.99,-0.216,1.613,-0.063
11.0,0.035,0.642,0.084
11.01,-0.261,1.284,-0.041
11.02,-0.281,0.402,-0.182
11.03,-0.319,1.605,0.067
11.04,-0.04,0.578,0.13
11.05,-0.23,0.854,0.023
11.06,-0.445,0.519,-0.217
11.07,-0.129,1.67,0.033
11.08,-0.117,1.013,0.089
11.09,0.003,0.392,-0.038
11.1,-0.596,0.807,-0.124
11.11,-0.033,1.591,0.19
11.12,-0.232,1.089,0.109
11.13,0.073,0.6,-0.037
11.14,-0.499,0.497,-0.143
11.15,-0.071,1.893,0.154
11.16,-0.071,0.743,0.005
11.17,-0.146,1.017,-0.082
11.18,-0.252,0.105,-0.134
11.19,-0.248,1.862,0.149
11.2,-0.151,0.928,0.044
11.21,-0.147,0.859,-0.074
11.22,-0.325,0.51,-0.096
11.23,-0.195,1.218,0.199
11.24,-0.348,1.37,-0.045
11.25,-0.021,0.492,-0.137
11.26,-0.429,0.979,-0.055
11.27,0.005,0.925,0.222
11.28,-0.402,1.349,0.087
11.29,-0.235,0.577,-0.14
11.3,-0.245,1.012,-0.023
11.31,-0.107,1.085,0.148
11.32,-0.241,0.884,-0.01
11.33,-0.357,0.871,-0.115
11.34,-0.186,1.085,0.04
11.35,-0.136,1.134,0.133
11.36,-0.169,0.794,-0.007
11.37,-0.443,0.865,-0.17
11.38,-0.223,1.533,0.094
11.39,-0.172,0.725,0.152
11.4,-0.227,1.068,0.025
11.41,-0.355,0.26,-0.153
11.42,-0.27,2.0,0.135
11.43,-0.094,0.478,0.127
11.44,-0.173,1.019,-0.013
11.45,-0.448,0.265,-0.202
11.46,-0.091,1.908,0.061
11.47,-0.146,0.853,0.034
11.48,-0.034,0.503,-0.036
11.49,-0.567,0.77,-0.076
11.5,-0.053,1.561,0.203
11.51,-0.216,1.156,0.102
11.52,0.136,0.473,-0.075
11.53,-0.416,0.753,-0.204
11.54,-0.035,1.623,0.146
11.55,-0.088,1.036,0.028
11.56,-0.052,0.9,-0.131
11.57,-0.274,0.21,-0.137
11.58,-0.188,1.836,0.119
11.59,-0.165,0.811,0.016
11.6,-0.131,1.064,-0.098
11.61,-0.372,0.262,-0.136
11.62,-0.227,1.331,0.217
11.63,-0.363,1.203,0.02
11.64,-0.094,0.578,-0.1
11.65,-0.342,0.963,-0.062
11.66,0.031,0.864,0.15
11.67,-0.359,1.486,-0.039
11.68,-0.221,0.406,-0.13
11.69,-0.278,1.323,-0.053
11.7,0.039,0.857,0.129
11.71,-0.25,1.148,-0.031
11.72,-0.327,0.692,-0.145
11.73,-0.279,1.357,0.017
11.74,-0.134,1.094,0.16
11.75,-0.117,0.676,-0.011
11.76,-0.412,0.933,-0.166
11.77,-0.275,1.384,0.084
11.78,-0.214,0.875,0.111
11.79,-0.14,0.881,-0.0
11.8,-0.432,0.481,-0.146
11.81,-0.219,1.909,0.067
11.82,-0.129,0.454,0.067
11.83,-0.132,1.093,-0.02
11.84,-0.468,0.11,-0.111
11.85,-0.132,2.0,0.137
11.86,-0.015,0.655,0.07
11.87,-0.04,0.973,-0.093
11.88,-0.345,0.276,-0.178
11.89,-0.106,1.712,0.134
11.9,-0.179,1.114,0.014
11.91,-0.006,0.625,-0.06
11.92,-0.414,0.785,-0.141
11.93,-0.008,1.292,0.186
11.94,-0.33,1.507,0.047
11.95,-0.038,0.437,-0.082
11.96,-0.429,0.712,-0.096
11.97,-0.073,1.195,0.172
11.98,-0.229,1.185,-0.022
11.99,-0.191,0.831,-0.12
12.0,-0.284,0.42,0.007
12.01,-0.131,1.386,0.144
12.02,-0.158,0.772,0.025
12.03,-0.305,1.005,-0.157
12.04,-0.113,0.777,-0.084
12.05,-0.144,1.077,0.111
12.06,-0.192,1.077,-0.089
12.07,-0.259,0.516,-0.156
12.08,-0.201,1.735,-0.029
12.09,0.012,0.605,0.092
12.1,-0.292,1.296,-0.049
12.11,-0.291,0.34,-0.181
12.12,-0.369,1.737,0.043
12.13,-0.137,0.749,0.118
12.14,-0.149,0.95,0.015
12.15,-0.381,0.637,-0.283
12.16,-0.146,1.436,0.098
12.17,-0.193,0.963,0.108
12.18,-0.019,0.57,0.028
12.19,-0.563,0.771,-0.166
12.2,0.018,1.615,0.061
12.21,-0.097,0.994,0.068
12.22,0.039,0.646,-0.044
12.23,-0.509,0.383,-0.192
12.24,-0.051,2.0,0.116
12.25,-0.123,0.552,0.057
12.26,-0.058,1.006,-0.04
12.27,-0.463,0.166,-0.155
12.28,-0.119,1.968,0.153
12.29,-0.146,0.862,0.084
12.3,-0.029,0.761,-0.065
12.31,-0.381,0.533,-0.165
12.32,-0.073,1.469,0.115
12.33,-0.287,1.384,0.05
12.34,-0.027,0.517,-0.089
12.35,-0.474,0.872,-0.096
12.36,-0.042,1.261,0.199
12.37,-0.299,1.428,0.111
12.38,-0.154,0.573,-0.079
12.39,-0.412,0.514,-0.005
12.4,-0.234,1.342,0.237
12.41,-0.227,0.953,0.037
12.42,-0.247,0.998,-0.094
12.43,-0.228,0.313,-0.021
12.44,-0.113,1.415,0.17
12.45,-0.217,0.866,-0.016
12.46,-0.226,0.902,-0.138
12.47,-0.355,0.917,-0.02
12.48,-0.079,0.877,0.183
12.49,-0.365,1.365,-0.04
12.5,-0.16,0.275,-0.067
12.51,-0.386,1.85,0.014
12.52,0.041,0.639,0.191
12.53,-0.331,1.194,-0.007
12.54,-0.305,0.542,-0.215
12.55,-0.27,1.688,0.054
12.56,-0.046,0.878,0.092
12.57,-0.083,0.662,0.014
12.58,-0.475,0.799,-0.224
12.59,-0.02,1.409,0.027
12.6,-0.248,1.017,0.09
12.61,-0.047,0.568,0.026
12.62,-0.492,0.671,-0.194
12.63,-0.049,1.77,0.02
12.64,-0.155,0.658,0.086
12.65,-0.028,0.909,-0.01
12.66,-0.495,0.405,-0.145
12.67,-0.079,1.847,0.117
12.68,-0.136,0.792,0.104
12.69,-0.057,1.055,-0.02
12.7,-0.398,0.15,-0.107
12.71,-0.156,1.932,0.179
12.72,-0.172,0.905,0.083
12.73,-0.197,0.828,-0.078
12.74,-0.296,0.537,-0.149
12.75,-0.08,1.499,0.152
12.76,-0.307,1.463,0.088
12.77,-0.017,0.362,-0.031
12.78,-0.473,0.884,-0.054
12.79,-0.037,1.047,0.167
12.8,-0.342,1.317,-0.036
12.81,-0.101,0.726,-0.166
12.82,-0.278,0.61,-0.023
12.83,-0.136,1.234,0.172
12.84,-0.178,0.929,0.021
12.85,-0.291,0.962,-0.138
12.86,-0.2,0.427,-0.021
12.87,-0.119,1.279,0.158
12.88,-0.189,0.91,-0.029
12.89,-0.239,0.756,-0.101
12.9,-0.249,1.423,-0.086
12.91,-0.07,0.807,0.161
12.92,-0.322,1.21,-0.034
12.93,-0.273,0.37,-0.179
12.94,-0.348,1.798,0.027
12.95,-0.038,0.61,0.163
12.96,-0.277,1.22,-0.024
12.97,-0.24,0.427,-0.234
12.98,-0.342,1.612,0.048
12.99,-0.1,0.87,0.092
13.0,-0.127,0.698,-0.022
13.01,-0.421,0.764,-0.183
13.02,-0.031,1.522,0.051
13.03,-0.123,1.087,0.137
13.04,0.021,0.459,0.023
13.05,-0.504,0.712,-0.173
13.06,-0.045,1.772,0.021
13.07,-0.147,0.69,0.072
13.08,-0.022,0.926,-0.03
13.09,-0.457,0.225,-0.191
13.1,-0.12,2.0,0.148
13.11,-0.154,0.545,0.086
13.12,-0.137,0.902,-0.024
13.13,-0.367,0.271,-0.112
13.14,-0.133,1.821,0.11
13.15,-0.157,1.012,0.087
13.16,0.003,0.586,-0.058
13.17,-0.428,0.787,-0.127
13.18,-0.029,1.406,0.144
13.19,-0.284,1.39,0.042
13.2,0.011,0.538,-0.035
13.21,-0.49,0.739,-0.115
13.22,-0.044,1.377,0.168
13.23,-0.245,1.169,0.021
13.24,-0.084,0.896,-0.134
13.25,-0.383,0.252,-0.08
13.26,-0.175,1.52,0.19
13.27,-0.294,0.82,0.035
13.28,-0.231,1.031,-0.08
13.29,-0.326,0.456,-0.031
13.3,-0.087,1.2,0.171
13.31,-0.302,1.136,0.004
13.32,-0.158,0.568,-0.119
13.33,-0.327,1.111,-0.038
13.34,0.035,0.841,0.131
13.35,-0.315,1.459,-0.016
13.36,-0.157,0.382,-0.165
13.37,-0.226,1.623,-0.086
13.38,-0.014,0.853,0.117
13.39,-0.271,1.022,-0.013
13.4,-0.369,0.711,-0.194
13.41,-0.219,1.344,0.048
13.42,-0.228,1.077,0.171
13.43,-0.1,0.659,0.048
13.44,-0.553,0.782,-0.231
13.45,-0.117,1.38,0.093
13.46,-0.269,1.043,0.086
13.47,0.034,0.502,0.037
13.48,-0.537,0.667,-0.199
13.49,0.011,1.778,0.086
13.5,-0.026,0.83,0.055
13.51,-0.018,0.908,-0.055
13.52,-0.388,0.178,-0.178
13.53,-0.161,2.0,0.162
13.54,-0.108,0.637,0.068
13.55,-0.092,0.969,-0.048
13.56,-0.373,0.307,-0.158
13.57,-0.125,1.905,0.242
13.58,-0.183,1.008,0.077
13.59,-0.016,0.476,-0.051
13.6,-0.41,0.799,-0.134
13.61,-0.113,1.25,0.173
13.62,-0.247,1.41,0.015
13.63,-0.005,0.53,-0.087
13.64,-0.359,0.746,-0.141
13.65,-0.08,1.296,0.129
13.66,-0.22,1.148,-0.014
13.67,-0.143,0.938,-0.142
13.68,-0.427,0.238,-0.091
13.69,-0.235,1.479,0.237
13.7,-0.262,0.921,0.028
13.71,-0.227,0.968,-0.067
13.72,-0.353,0.543,0.008
13.73,-0.07,1.192,0.208
13.74,-0.289,1.082,-0.027
13.75,-0.198,0.623,-0.167
13.76,-0.227,1.382,-0.057
13.77,0.106,0.825,0.134
13.78,-0.325,1.325,-0.042
13.79,-0.183,0.426,-0.14
13.8,-0.364,1.608,0.017
13.81,-0.013,0.805,0.148
13.82,-0.249,1.022,0.016
13.83,-0.364,0.68,-0.184
13.84,-0.228,1.45,0.062
13.85,-0.193,1.053,0.204
13.86,0.053,0.561,0.05
13.87,-0.512,0.842,-0.201
13.88,-0.083,1.497,0.034
13.89,-0.135,0.874,0.04
13.9,-0.031,0.795,0.003
13.91,-0.428,0.421,-0.194
13.92,-0.266,1.94,0.069
13.93,-0.135,0.462,0.064
13.94,-0.157,1.083,0.002
13.95,-0.322,0.157,-0.168
13.96,-0.131,2.0,0.034
13.97,-0.017,0.644,0.06
13.98,-0.098,0.695,-0.026
13.99,-0.404,0.527,-0.184
14.0,-0.078,1.69,0.161
14.01,-0.193,1.136,0.107
14.02,0.077,0.415,-0.051
14.03,-0.483,0.88,-0.149
14.04,-0.062,1.562,0.187
14.05,-0.183,1.096,0.011
14.06,-0.007,0.62,-0.066
14.07,-0.285,0.457,-0.145
14.08,-0.147,1.751,0.091
14.09,-0.035,0.819,0.021
14.1,-0.125,1.087,-0.097
14.11,-0.294,0.129,-0.088
14.12,-0.303,1.628,0.181
14.13,-0.133,0.908,0.06
14.14,-0.247,0.876,-0.125
14.15,-0.398,0.596,-0.113
14.16,-0.138,1.146,0.233
14.17,-0.344,1.455,0.035
14.18,0.028,0.415,-0.074
14.19,-0.446,1.105,-0.069
14.2,0.097,0.866,0.169
14.21,-0.353,1.385,-0.068
14.22,-0.047,0.601,-0.167
14.23,-0.258,0.964,-0.115
14.24,0.006,1.118,0.142
14.25,-0.108,0.876,-0.068
14.26,-0.394,0.917,-0.139
14.27,-0.263,1.078,0.052
14.28,-0.226,1.12,0.163
14.29,-0.166,0.777,0.022
14.3,-0.392,0.938,-0.082
14.31,-0.242,1.341,0.064
14.32,-0.176,0.899,0.152
14.33,-0.189,0.954,-0.009
14.34,-0.369,0.513,-0.138
14.35,-0.168,1.903,0.071
14.36,-0.033,0.519,0.121
14.37,-0.128,1.095,0.039
14.38,-0.404,0.171,-0.225
14.39,-0.229,2.0,0.038
14.4,-0.128,0.635,0.044
14.41,-0.125,0.75,-0.004
14.42,-0.534,0.553,-0.156
14.43,-0.139,1.709,0.19
14.44,-0.244,1.123,0.152
14.45,0.05,0.338,-0.003
14.46,-0.578,0.831,-0.111
14.47,-0.058,1.594,0.223
14.48,-0.217,1.135,0.07
14.49,0.031,0.686,-0.025
14.5,-0.426,0.474,-0.179
14.51,-0.063,1.938,0.168
14.52,-0.15,0.759,0.051
14.53,-0.094,1.009,-0.057
14.54,-0.392,0.128,-0.165
14.55,-0.168,1.735,0.149
14.56,-0.215,0.934,0.045
14.57,-0.071,0.814,-0.095
14.58,-0.415,0.58,-0.154
14.59,-0.022,1.214,0.15
14.6,-0.339,1.318,0.063
14.61,-0.105,0.501,-0.096
14.62,-0.553,0.923,-0.059
14.63,-0.044,0.971,0.236
14.64,-0.312,1.398,0.083
14.65,-0.141,0.534,-0.05
14.66,-0.348,0.76,-0.027
14.67,-0.048,1.22,0.18
14.68,-0.217,0.879,-0.01
14.69,-0.244,0.963,-0.125
14.7,-0.23,0.757,-0.013
14.71,-0.102,1.252,0.13
14.72,-0.161,0.828,-0.006
14.73,-0.354,0.797,-0.103
14.74,-0.254,0.999,-0.06
14.75,-0.048,0.898,0.127
14.76,-0.182,1.306,-0.08
14.77,-0.111,0.373,-0.197
14.78,-0.276,1.751,-0.031
14.79,-0.075,0.665,0.144
14.8,-0.242,1.288,-0.016
14.81,-0.303,0.442,-0.174
14.82,-0.247,1.646,0.019
14.83,-0.121,0.869,0.133
14.84,-0.083,0.637,0.022
14.85,-0.449,0.864,-0.196
14.86,-0.229,1.322,0.098
14.87,-0.244,1.003,0.152
14.88,-0.061,0.66,0.041
14.89,-0.521,0.709,-0.179
14.9,-0.039,1.708,0.026
14.91,-0.071,0.754,0.102
14.92,-0.02,0.857,0.001
14.93,-0.398,0.207,-0.161
14.94,-0.118,2.0,0.071
14.95,-0.053,0.567,0.079
14.96,-0.113,0.954,0.003
14.97,-0.49,0.238,-0.192
14.98,-0.085,1.969,0.125
14.99,-0.213,0.861,0.02
15.0,0.055,0.465,-0.046
15.01,-0.519,0.789,-0.178
15.02,-0.043,1.565,0.168
15.03,-0.247,1.17,0.074
15.04,0.083,0.46,0.005
15.05,-0.575,0.769,-0.15
15.06,-0.021,1.635,0.177
15.07,-0.271,1.064,0.095
15.08,-0.018,0.701,-0.066
15.09,-0.444,0.488,-0.129
15.1,-0.068,1.755,0.207
15.11,-0.088,0.929,0.056
15.12,-0.2,0.972,-0.095
15.13,-0.342,0.191,-0.095
15.14,-0.25,1.595,0.119
15.15,-0.203,0.953,0.039
15.16,-0.206,0.868,-0.095
15.17,-0.338,0.624,-0.096
15.18,-0.089,1.051,0.202
15.19,-0.253,1.338,-0.02
15.2,-0.112,0.519,-0.163
15.21,-0.375,1.021,-0.077
15.22,-0.081,0.872,0.259
15.23,-0.274,1.481,0.052
15.24,-0.164,0.494,-0.076
15.25,-0.259,0.974,-0.038
15.26,-0.131,1.137,0.148
15.27,-0.156,0.882,-0.033
15.28,-0.288,0.916,-0.122
15.29,-0.175,0.8,0.003
15.3,-0.147,1.254,0.175
15.31,-0.112,0.777,0.053
15.32,-0.427,0.888,-0.151
15.33,-0.216,1.075,-0.015
15.34,-0.184,0.887,0.158
15.35,-0.161,1.287,-0.042
15.36,-0.188,0.329,-0.158
15.37,-0.331,1.839,0.031
15.38,-0.103,0.579,0.185
15.39,-0.24,1.14,0.071
15.4,-0.399,0.388,-0.172
15.41,-0.31,1.76,0.076
15.42,-0.169,0.804,0.153
15.43,-0.059,0.736,0.006
15.44,-0.508,0.795,-0.195
15.45,-0.196,1.249,0.14
15.46,-0.324,1.035,0.115
15.47,-0.061,0.62,0.045
15.48,-0.43,0.742,-0.186
15.49,-0.035,1.729,-0.039
15.5,-0.045,0.868,0.084
15.51,0.04,0.792,-0.03
15.52,-0.372,0.212,-0.214
15.53,-0.136,2.0,0.094
15.54,-0.069,0.581,0.085
15.55,-0.118,0.982,-0.007
15.56,-0.406,0.231,-0.209
15.57,-0.185,1.938,0.112
15.58,-0.238,0.76,0.008
15.59,-0.102,0.541,-0.009
15.6,-0.448,0.713,-0.166
15.61,0.016,1.63,0.135
15.62,-0.186,1.191,0.061
15.63,0.157,0.38,-0.04
15.64,-0.571,0.745,-0.151
15.65,0.046,1.654,0.163
15.66,-0.206,1.036,0.083
15.67,0.036,0.916,-0.078
15.68,-0.438,0.303,-0.178
15.69,-0.085,2.0,0.188
15.7,-0.089,0.7,0.04
15.71,-0.118,0.937,-0.077
15.72,-0.355,0.25,-0.181
15.73,-0.124,1.672,0.098
15.74,-0.164,1.046,0.03
15.75,0.006,0.698,-0.119
15.76,-0.379,0.748,-0.145
15.77,-0.04,1.197,0.178
15.78,-0.367,1.407,0.054
15.79,-0.012,0.491,-0.073
15.8,-0.548,0.855,-0.097
15.81,-0.001,1.25,0.187
15.82,-0.4,1.341,0.073
15.83,-0.097,0.71,-0.094
15.84,-0.441,0.375,-0.07
15.85,-0.159,1.43,0.183
15.86,-0.262,0.866,0.099
15.87,-0.24,0.991,-0.076
15.88,-0.177,0.709,0.018
15.89,-0.124,1.347,0.166
15.9,-0.174,0.763,-0.03
15.91,-0.298,0.87,-0.143
15.92,-0.329,0.826,-0.119
15.93,-0.025,1.009,0.076
15.94,-0.31,1.235,-0.046
15.95,-0.094,0.379,-0.088
15.96,-0.485,1.842,0.023
15.97,0.005,0.671,0.203
15.98,-0.372,1.284,0.039
15.99,-0.19,0.415,-0.168
16.0,-0.432,1.709,0.071
16.01,-0.031,0.857,0.158
16.02,-0.073,0.787,-0.012
16.03,-0.398,0.747,-0.245
16.04,-0.272,1.2,0.01
16.05,-0.253,1.099,0.119
16.06,-0.232,0.657,0.027
16.07,-0.284,0.641,-0.16
16.08,-0.201,1.586,0.002
16.09,-0.056,0.816,0.117
16.1,-0.14,0.86,0.001
16.11,-0.385,0.296,-0.151
16.12,-0.251,2.0,0.071
16.13,-0.068,0.472,0.092
16.14,-0.12,1.049,-0.017
16.15,-0.462,0.193,-0.217
16.16,-0.184,1.933,0.091
16.17,-0.251,0.703,0.067
16.18,-0.156,0.627,0.046
16.19,-0.507,0.684,-0.142
16.2,-0.071,1.576,0.132
16.21,-0.163,1.159,0.086
16.22,0.065,0.367,-0.043
16.23,-0.501,0.805,-0.16
16.24,-0.077,1.567,0.152
16.25,-0.145,1.067,0.09
16.26,-0.045,0.842,-0.046
16.27,-0.36,0.359,-0.175
16.28,-0.098,1.962,0.171
16.29,-0.1,0.68,0.038
16.3,-0.155,0.992,-0.057
16.31,-0.329,0.218,-0.208
16.32,-0.111,1.725,0.072
16.33,-0.092,1.04,-0.024
16.34,-0.114,0.68,-0.091
16.35,-0.345,0.687,-0.133
16.36,-0.118,1.217,0.143
16.37,-0.27,1.385,0.017
16.38,-0.018,0.529,-0.132
16.39,-0.397,0.865,-0.073
16.4,-0.095,1.164,0.249
16.41,-0.249,1.382,0.037
16.42,-0.141,0.664,-0.117
16.43,-0.362,0.445,-0.059
16.44,-0.157,1.412,0.212
16.45,-0.258,0.866,0.011
16.46,-0.229,0.976,-0.084
16.47,-0.269,0.497,0.012
16.48,-0.056,1.285,0.192
16.49,-0.231,0.984,-0.022
16.5,-0.214,0.694,-0.136
16.51,-0.295,0.985,-0.119
16.52,0.002,0.879,0.151
16.53,-0.313,1.456,-0.051
16.54,-0.179,0.306,-0.142
16.55,-0.334,1.664,-0.04
16.56,-0.01,0.708,0.134
16.57,-0.268,1.242,-0.056
16.58,-0.313,0.565,-0.16
16.59,-0.261,1.448,0.011
16.6,-0.156,1.03,0.171
16.61,-0.052,0.641,0.03
16.62,-0.48,0.944,-0.183
16.63,-0.221,1.239,0.099
16.64,-0.259,1.0,0.123
16.65,-0.162,0.76,0.024
16.66,-0.47,0.569,-0.135
16.67,-0.171,1.839,0.086
16.68,-0.123,0.587,0.106
16.69,-0.047,0.695,-0.016
16.7,-0.463,0.272,-0.16
16.71,-0.064,2.0,0.123
16.72,-0.112,0.584,0.035
16.73,-0.058,0.958,-0.012
16.74,-0.409,0.199,-0.185
16.75,-0.134,2.0,0.161
16.76,-0.15,0.823,0.048
16.77,-0.044,0.593,-0.091
16.78,-0.435,0.687,-0.182
16.79,-0.07,1.465,0.138
16.8,-0.249,1.343,0.075
16.81,0.09,0.474,-0.041
16.82,-0.475,0.852,-0.129
16.83,-0.002,1.415,0.109
16.84,-0.278,1.186,0.02
16.85,-0.038,0.855,-0.101
16.86,-0.488,0.344,-0.091
16.87,-0.17,1.628,0.169
16.88,-0.209,0.928,0.065
16.89,-0.166,1.0,-0.081
16.9,-0.471,0.197,-0.064
16.91,-0.197,1.46,0.219
16.92,-0.334,1.069,0.022
16.93,-0.184,0.731,-0.104
16.94,-0.406,0.736,-0.072
16.95,-0.042,0.974,0.211
16.96,-0.308,1.414,0.046
16.97,-0.116,0.478,-0.098
16.98,-0.356,1.092,-0.065
16.99,0.013,0.875,0.188
17.0,-0.261,1.357,-0.023
17.01,-0.197,0.617,-0.147
17.02,-0.158,1.162,-0.112
17.03,-0.079,1.181,0.149
17.04,-0.157,0.691,-0.03
17.05,-0.407,1.007,-0.182
17.06,-0.173,1.066,-0.015
17.07,-0.19,1.112,0.142
17.08,-0.167,0.844,0.008
17.09,-0.397,0.696,-0.185
17.1,-0.258,1.635,-0.0
17.11,-0.122,0.687,0.158
17.12,-0.304,1.221,-0.0
17.13,-0.274,0.246,-0.16
17.14,-0.316,1.993,0.054
17.15,-0.038,0.54,0.154
17.16,-0.123,1.014,0.004
17.17,-0.432,0.407,-0.239
17.18,-0.167,1.801,0.042
17.19,-0.177,0.868,0.094
17.2,0.028,0.555,-0.016
17.21,-0.524,0.843,-0.18
17.22,-0.131,1.431,0.094
17.23,-0.288,0.953,0.084
17.24,-0.095,0.581,0.016
17.25,-0.448,0.603,-0.125
17.26,-0.058,1.854,0.055
17.27,-0.074,0.662,0.084
17.28,-0.09,0.88,-0.014
17.29,-0.389,0.062,-0.152
17.3,-0.158,2.0,0.122
17.31,-0.094,0.672,0.061
17.32,-0.094,0.877,-0.07
17.33,-0.433,0.359,-0.152
17.34,-0.183,1.817,0.183
17.35,-0.191,1.021,0.053
17.36,-0.075,0.436,-0.003
17.37,-0.453,0.852,-0.13
17.38,-0.097,1.375,0.158
17.39,-0.233,1.335,0.083
17.4,0.007,0.502,-0.032
17.41,-0.396,0.701,-0.189
17.42,-0.033,1.407,0.073
17.43,-0.141,1.029,0.017
17.44,-0.138,0.994,-0.121
17.45,-0.365,0.248,-0.086
17.46,-0.262,1.687,0.234
17.47,-0.167,0.914,0.083
17.48,-0.19,0.96,-0.085
17.49,-0.367,0.438,-0.078
17.5,-0.036,1.326,0.152
17.51,-0.221,0.975,-0.039
17.52,-0.12,0.761,-0.117
17.53,-0.265,1.132,-0.075
17.54,0.051,0.922,0.168
17.55,-0.304,1.288,-0.018
17.56,-0.203,0.395,-0.128
17.57,-0.42,1.302,-0.033
17.58,0.052,0.799,0.156
17.59,-0.323,1.295,-0.033
17.6,-0.17,0.538,-0.113
17.61,-0.287,1.342,-0.053
17.62,-0.077,1.041,0.168
17.63,-0.117,0.799,-0.004
17.64,-0.457,0.988,-0.158
17.65,-0.248,1.167,0.044
17.66,-0.203,1.064,0.106
17.67,-0.205,0.821,0.023
17.68,-0.339,0.683,-0.18
17.69,-0.276,1.628,0.053
17.7,-0.093,0.615,0.126
17.71,-0.249,1.137,0.012
17.72,-0.306,0.245,-0.21
17.73,-0.274,1.996,0.103
17.74,-0.056,0.515,0.139
17.75,-0.168,0.987,0.033
17.76,-0.44,0.392,-0.221
17.77,-0.163,1.825,0.068
17.78,-0.224,0.797,0.086
17.79,0.071,0.612,0.028
17.8,-0.678,0.791,-0.165
17.81,-0.242,0.981,0.034
17.82,-0.081,1.075,0.124
17.83,-0.227,0.995,-0.046
17.84,-0.184,0.531,-0.205
17.85,-0.304,1.727,-0.015
17.86,0.007,0.627,0.105
17.87,-0.357,1.26,-0.002
17.88,-0.247,0.187,-0.173
17.89,-0.383,1.95,0.128
17.9,-0.017,0.65,0.163
17.91,-0.186,0.92,0.039
17.92,-0.41,0.525,-0.251
17.93,-0.166,1.62,0.044
17.94,-0.153,0.927,0.06
17.95,0.034,0.537,-0.038
17.96,-0.451,0.836,-0.222
17.97,0.01,1.51,-0.003
17.98,-0.115,1.021,0.032
17.99,0.04,0.547,-0.029
18.0,-0.446,0.495,-0.161
18.01,-0.113,1.904,0.135
18.02,-0.037,0.74,0.077
18.03,-0.052,0.96,-0.016
18.04,-0.429,0.139,-0.144
18.05,-0.174,2.0,0.2
18.06,-0.171,0.647,0.057
18.07,-0.097,0.828,-0.062
18.08,-0.371,0.458,-0.174
18.09,-0.091,1.694,0.192
18.1,-0.239,1.278,0.049
18.11,0.044,0.47,0.007
18.12,-0.43,0.871,-0.132
18.13,-0.067,1.316,0.168
18.14,-0.261,1.393,0.028
18.15,-0.063,0.671,-0.079
18.16,-0.436,0.551,-0.105
18.17,-0.089,1.586,0.2
18.18,-0.165,1.06,0.038
18.19,-0.086,0.933,-0.141
18.2,-0.43,0.229,-0.117
18.21,-0.131,1.549,0.199
18.22,-0.276,0.871,-0.009
18.23,-0.168,1.05,-0.137
18.24,-0.224,0.843,-0.032
18.25,0.007,1.187,0.123
18.26,-0.142,0.96,-0.061
18.27,-0.24,0.658,-0.198
18.28,-0.27,1.011,-0.096
18.29,0.07,0.855,0.045
18.3,-0.244,1.44,-0.049
18.31,-0.042,0.273,-0.153
18.32,-0.269,1.751,-0.034
18.33,-0.049,0.703,0.134
18.34,-0.204,1.156,0.045
18.35,-0.252,0.595,-0.181
18.36,-0.235,1.518,0.005
18.37,-0.105,1.015,0.136
18.38,0.015,0.563,-0.008
18.39,-0.438,0.851,-0.214
18.4,-0.216,1.303,0.074
18.41,-0.256,0.963,0.048
18.42,-0.162,0.881,-0.0
18.43,-0.306,0.511,-0.195
18.44,-0.176,1.777,0.075
18.45,-0.079,0.522,0.09
18.46,-0.219,1.068,0.034
18.47,-0.361,0.173,-0.148
18.48,-0.2,2.0,0.115
18.49,-0.048,0.649,0.096
18.5,-0.1,0.842,0.01
18.51,-0.391,0.407,-0.209
18.52,-0.041,1.833,0.127
18.53,-0.212,1.045,0.037
18.54,-0.008,0.373,-0.055
18.55,-0.528,0.853,-0.17
18.56,-0.028,1.553,0.182
18.57,-0.197,1.164,0.074
18.58,0.05,0.494,-0.031
18.59,-0.422,0.603,-0.138
18.6,-0.143,1.659,0.143
18.61,-0.124,0.918,0.111
18.62,-0.176,1.029,-0.068
18.63,-0.289,0.142,-0.112
18.64,-0.168,1.887,0.173
18.65,-0.127,0.875,0.053
18.66,-0.121,0.933,-0.074
18.67,-0.408,0.42,-0.115
18.68,-0.125,1.315,0.202
18.69,-0.329,1.368,-0.012
18.7,-0.04,0.473,-0.104
18.71,-0.396,0.897,-0.092
18.72,-0.064,0.951,0.191
18.73,-0.363,1.471,0.024
18.74,-0.143,0.561,-0.128
18.75,-0.375,0.751,-0.022
18.76,-0.08,1.09,0.21
18.77,-0.194,1.083,0.035
18.78,-0.232,0.847,-0.145
18.79,-0.19,0.825,-0.003
18.8,-0.118,1.285,0.147
18.81,-0.218,0.758,-0.008
18.82,-0.354,0.898,-0.186
18.83,-0.221,1.009,0.014
18.84,0.019,0.982,0.101
18.85,-0.28,1.166,-0.037
18.86,-0.203,0.46,-0.18
18.87,-0.338,1.616,0.064
18.88,-0.073,0.658,0.171
18.89,-0.215,1.37,-0.053
18.9,-0.199,0.272,-0.225
18.91,-0.283,1.697,0.054
18.92,-0.129,0.814,0.122
18.93,-0.047,0.738,0.009
18.94,-0.516,0.743,-0.225
18.95,-0.096,1.455,0.058
18.96,-0.199,1.045,0.156
18.97,-0.012,0.533,0.053
18.98,-0.607,0.828,-0.152
18.99,-0.122,1.555,0.108
19.0,-0.207,0.834,0.132
19.01,-0.039,0.787,-0.007
19.02,-0.428,0.331,-0.185
19.03,-0.103,2.0,0.101
19.04,-0.118,0.783,0.074
19.05,-0.017,1.078,-0.054
19.06,-0.31,0.082,-0.136
19.07,-0.128,2.0,0.18
19.08,-0.085,0.811,0.082
19.09,-0.126,0.917,-0.038
19.1,-0.424,0.409,-0.187
19.11,-0.093,1.769,0.246
19.12,-0.29,1.253,0.013
19.13,0.005,0.403,-0.073
19.14,-0.434,0.866,-0.131
19.15,-0.067,1.175,0.185
19.16,-0.348,1.433,0.02
19.17,-0.078,0.555,-0.061
19.18,-0.298,0.666,-0.074
19.19,-0.223,1.183,0.223
19.2,-0.11,1.103,-0.013
19.21,-0.336,0.976,-0.135
19.22,-0.277,0.314,-0.001
19.23,-0.222,1.402,0.229
19.24,-0.152,0.913,0.032
19.25,-0.282,0.912,-0.125
19.26,-0.184,1.043,-0.049
19.27,-0.034,1.006,0.099
19.28,-0.289,1.129,-0.09
19.29,-0.215,0.411,-0.169
19.3,-0.255,1.769,-0.072
19.31,-0.052,0.646,0.15
19.32,-0.261,1.227,0.095
19.33,-0.388,0.357,-0.175
19.34,-0.364,1.616,0.094
19.35,-0.214,0.861,0.166
19.36,-0.203,0.879,0.011
19.37,-0.349,0.707,-0.183
19.38,-0.163,1.353,0.091
19.39,-0.21,1.029,0.152
19.4,-0.015,0.557,-0.04
19.41,-0.476,0.734,-0.164
19.42,-0.008,1.702,-0.005
19.43,-0.077,0.917,0.099
19.44,-0.03,0.74,-0.008
19.45,-0.479,0.352,-0.177
19.46,-0.271,1.985,0.128
19.47,-0.232,0.47,0.102
19.48,-0.167,1.067,-0.001
19.49,-0.45,0.213,-0.133
19.5,-0.083,2.0,0.141
19.51,-0.07,0.873,0.098
19.52,0.007,0.591,-0.067
19.53,-0.426,0.625,-0.16
19.54,-0.002,1.517,0.135
19.55,-0.173,1.355,0.066
19.56,-0.007,0.463,-0.061
19.57,-0.404,0.859,-0.219
19.58,-0.0,1.634,0.193
19.59,-0.173,1.158,-0.007
19.6,-0.065,0.731,-0.059
19.61,-0.326,0.321,-0.163
19.62,-0.188,1.801,0.145
19.63,-0.091,0.89,0.018
19.64,-0.158,1.016,-0.127
19.65,-0.282,0.169,-0.081
19.66,-0.201,1.525,0.164
19.67,-0.156,0.989,-0.001
19.68,-0.175,0.845,-0.143
19.69,-0.342,0.735,-0.138
19.7,-0.081,1.055,0.225
19.71,-0.343,1.58,0.017
19.72,0.013,0.349,-0.068
19.73,-0.394,1.115,-0.058
19.74,0.095,0.878,0.166
19.75,-0.283,1.317,-0.103
19.76,-0.263,0.662,-0.155
19.77,-0.098,1.068,-0.072
19.78,-0.107,1.177,0.14
19.79,-0.106,0.725,-0.003
19.8,-0.436,1.013,-0.151
19.81,-0.238,0.776,0.04
19.82,-0.208,1.145,0.126
19.83,-0.208,0.914,-0.031
19.84,-0.346,0.732,-0.134
19.85,-0.233,1.513,0.086
19.86,-0.106,0.789,0.155
19.87,-0.143,0.852,0.0
19.88,-0.476,0.236,-0.148
19.89,-0.056,2.0,0.074
19.9,-0.056,0.599,0.063
19.91,-0.098,0.98,0.011
19.92,-0.451,0.205,-0.205
19.93,-0.245,1.942,0.146
19.94,-0.226,0.686,0.012
19.95,-0.17,0.669,-0.048
19.96,-0.443,0.659,-0.181
19.97,-0.082,1.586,0.113
19.98,-0.142,1.198,0.077
19.99,0.103,0.348,-0.073
20.0,-0.518,0.817,-0.14
20.01,-0.016,1.34,0.131
20.02,-0.25,1.185,0.036
20.03,-0.038,0.833,-0.093
20.04,-0.417,0.35,-0.154
20.05,-0.061,1.807,0.134
20.06,-0.079,0.879,0.049
20.07,-0.176,1.02,-0.103
20.08,-0.326,0.207,-0.072
20.09,-0.221,1.482,0.173
20.1,-0.249,1.062,-0.012
20.11,-0.108,0.744,-0.108
20.12,-0.31,0.774,-0.035
20.13,-0.061,0.96,0.178
20.14,-0.337,1.397,0.02
20.15,-0.097,0.488,-0.152
20.16,-0.346,1.046,-0.049
20.17,0.003,0.861,0.205
20.18,-0.252,1.366,-0.067
20.19,-0.198,0.618,-0.118
20.2,-0.212,1.11,-0.001
20.21,-0.159,1.127,0.211
20.22,-0.246,0.733,0.011
20.23,-0.343,0.971,-0.14
20.24,-0.219,1.276,0.031
20.25,-0.142,1.036,0.114
20.26,-0.147,0.73,0.013
20.27,-0.484,0.641,-0.179
20.28,-0.308,1.626,0.112
20.29,-0.104,0.595,0.123
20.3,-0.294,1.129,0.023
20.31,-0.335,0.19,-0.162
20.32,-0.199,2.0,0.071
20.33,0.05,0.552,0.09
20.34,-0.143,0.881,-0.042
20.35,-0.482,0.32,-0.178
20.36,-0.059,1.839,0.122
20.37,-0.138,1.036,0.063
20.38,0.078,0.452,-0.061
20.39,-0.492,0.836,-0.141
20.4,-0.012,1.561,0.182
20.41,-0.203,1.217,0.032
20.42,0.053,0.489,-0.036
20.43,-0.396,0.658,-0.187
20.44,-0.094,1.743,0.163
20.45,-0.08,0.949,0.032
20.46,-0.082,0.951,-0.063
20.47,-0.274,0.156,-0.113
20.48,-0.278,1.709,0.137
20.49,-0.139,0.832,0.014
20.5,-0.193,1.019,-0.103
20.51,-0.289,0.42,-0.078
20.52,-0.159,1.251,0.213
20.53,-0.269,1.278,-0.001
20.54,-0.005,0.561,-0.143
20.55,-0.453,0.943,-0.05
20.56,0.061,0.851,0.195
20.57,-0.376,1.481,0.004
20.58,-0.082,0.471,-0.128
20.59,-0.228,1.29,-0.041
20.6,-0.002,0.938,0.116
20.61,-0.275,0.993,-0.058
20.62,-0.368,0.796,-0.173
20.63,-0.281,0.937,0.069
20.64,-0.12,1.226,0.183
20.65,-0.111,0.712,-0.002
20.66,-0.405,0.922,-0.235
20.67,-0.103,1.301,0.096
20.68,-0.144,0.994,0.096
20.69,-0.065,0.64,0.009
20.7,-0.519,0.568,-0.144
20.71,-0.041,1.907,0.067
20.72,-0.062,0.657,0.092
20.73,-0.049,0.946,-0.027
20.74,-0.49,0.127,-0.197
20.75,-0.132,2.0,0.155
20.76,-0.068,0.629,0.063
20.77,-0.088,0.828,-0.042
20.78,-0.499,0.395,-0.143
20.79,-0.138,1.815,0.188
20.8,-0.162,1.073,0.082
20.81,0.059,0.459,-0.074
20.82,-0.513,0.811,-0.154
20.83,0.041,1.406,0.173
20.84,-0.308,1.368,0.093
20.85,0.047,0.578,-0.021
20.86,-0.501,0.688,-0.106
20.87,-0.056,1.506,0.181
20.88,-0.199,1.059,0.033
20.89,-0.143,0.989,-0.097
20.9,-0.369,0.202,-0.035
20.91,-0.302,1.577,0.235
20.92,-0.17,0.89,-0.028
20.93,-0.237,0.987,-0.055
20.94,-0.321,0.482,-0.013
20.95,-0.158,1.111,0.18
20.96,-0.279,1.281,-0.023
20.97,-0.097,0.533,-0.112
20.98,-0.295,1.315,-0.054
20.99,0.045,0.759,0.165
21.0,-0.329,1.368,-0.061
21.01,-0.199,0.371,-0.135
21.02,-0.214,1.48,-0.025
21.03,-0.106,0.93,0.134
21.04,-0.192,0.933,-0.07
21.05,-0.275,0.856,-0.179
21.06,-0.241,1.286,-0.001
21.07,-0.138,1.088,0.139
21.08,-0.167,0.653,0.022
21.09,-0.436,0.904,-0.185
21.1,-0.207,1.443,0.12
21.11,-0.144,0.822,0.132
21.12,-0.196,0.899,-0.01
21.13,-0.422,0.316,-0.163
21.14,-0.125,2.0,0.062
21.15,-0.106,0.483,0.115
21.16,-0.107,1.056,0.011
21.17,-0.455,0.142,-0.181
21.18,-0.064,2.0,0.096
21.19,-0.165,0.729,0.077
21.2,-0.017,0.64,-0.01
21.21,-0.558,0.635,-0.198
21.22,-0.014,1.637,0.141
21.23,-0.216,1.152,0.062
21.24,0.086,0.44,-0.028
21.25,-0.541,0.825,-0.137
21.26,0.01,1.61,0.187
21.27,-0.23,1.15,0.036
21.28,-0.008,0.796,-0.031
21.29,-0.336,0.33,-0.1
21.3,-0.165,1.831,0.15
21.31,-0.065,0.867,0.071
21.32,-0.217,1.073,-0.131
21.33,-0.323,0.161,-0.083
21.34,-0.222,1.55,0.177
21.35,-0.228,1.042,0.028
21.36,-0.122,0.772,-0.094
21.37,-0.397,0.74,-0.077
21.38,-0.014,0.993,0.188
21.39,-0.309,1.37,-0.028
21.4,-0.092,0.392,-0.117
21.41,-0.306,1.215,-0.069
21.42,0.008,0.82,0.16
21.43,-0.31,1.278,-0.012
21.44,-0.279,0.639,-0.134
21.45,-0.215,1.027,-0.038
21.46,-0.071,0.838,0.131
21.47,-0.239,0.909,0.002
21.48,-0.269,0.788,-0.182
21.49,-0.369,1.25,0.1
21.5,-0.161,1.059,0.167
21.51,-0.143,0.631,0.003
21.52,-0.434,0.787,-0.168
21.53,-0.031,1.57,0.008
21.54,-0.081,0.874,0.08
21.55,-0.057,0.763,-0.022
21.56,-0.511,0.318,-0.178
21.57,-0.085,2.0,0.046
21.58,-0.117,0.521,0.052
21.59,-0.134,0.92,-0.043
21.6,-0.391,0.145,-0.2
21.61,-0.146,1.978,0.145
21.62,-0.115,0.792,0.11
21.63,0.025,0.649,-0.03
21.64,-0.457,0.653,-0.141
21.65,-0.039,1.524,0.166
21.66,-0.324,1.394,0.042
21.67,0.056,0.497,-0.059
21.68,-0.407,0.855,-0.127
21.69,0.026,1.547,0.162
21.7,-0.232,1.262,0.003
21.71,-0.112,0.707,-0.088
21.72,-0.387,0.396,-0.057
21.73,-0.217,1.59,0.199
21.74,-0.215,0.9,0.041
21.75,-0.244,1.068,-0.141
21.76,-0.306,0.194,-0.06
21.77,-0.12,1.377,0.17
21.78,-0.223,1.015,-0.033
21.79,-0.23,0.787,-0.172
21.8,-0.236,0.852,-0.072
21.81,-0.058,0.932,0.164
21.82,-0.32,1.456,-0.034
21.83,-0.156,0.302,-0.112
21.84,-0.261,1.458,-0.003
21.85,0.033,0.745,0.135
21.86,-0.33,1.333,-0.055
21.87,-0.279,0.585,-0.152
21.88,-0.301,1.363,0.049
21.89,-0.143,1.019,0.174
21.9,-0.139,0.688,-0.002
21.91,-0.38,0.887,-0.196
21.92,-0.128,1.324,0.112
21.93,-0.124,1.045,0.139
21.94,-0.08,0.603,0.019
21.95,-0.501,0.593,-0.187
21.96,-0.057,1.879,0.05
21.97,-0.121,0.607,0.056
21.98,-0.036,0.953,-0.003
21.99,-0.539,0.157,-0.122
22.0,-0.128,2.0,0.205
22.01,-0.083,0.636,0.075
22.02,-0.099,0.865,-0.062
22.03,-0.438,0.339,-0.115
22.04,-0.071,1.819,0.185
22.05,-0.232,1.111,0.022
22.06,0.047,0.425,-0.077
22.07,-0.493,0.822,-0.151
22.08,-0.029,1.314,0.174
22.09,-0.336,1.378,0.104
22.1,0.008,0.583,-0.063
22.11,-0.396,0.646,-0.095
22.12,-0.176,1.28,0.163
22.13,-0.221,1.15,-0.006
22.14,-0.246,0.944,-0.145
22.15,-0.301,0.224,-0.019
22.16,-0.226,1.416,0.204
22.17,-0.236,0.936,0.036
22.18,-0.306,0.937,-0.11
22.19,-0.238,0.777,-0.023
22.2,-0.043,1.07,0.138
22.21,-0.317,1.128,-0.084
22.22,-0.257,0.548,-0.145
22.23,-0.33,1.678,0.009
22.24,-0.052,0.641,0.151
22.25,-0.334,1.259,-0.016
22.26,-0.365,0.18,-0.154
22.27,-0.364,1.963,0.168
22.28,-0.098,0.514,0.139
22.29,-0.196,0.987,0.01
22.3,-0.446,0.386,-0.231
22.31,-0.099,1.778,0.071
22.32,-0.158,0.963,0.097
22.33,0.078,0.418,-0.056
22.34,-0.639,0.779,-0.156
22.35,0.014,1.587,0.18
22.36,-0.262,1.214,0.096
22.37,0.038,0.542,0.008
22.38,-0.479,0.633,-0.156
22.39,-0.051,1.804,0.165
22.4,-0.085,0.921,0.032
22.41,-0.102,0.951,-0.1
22.42,-0.335,0.107,-0.116
22.43,-0.141,1.897,0.132
22.44,-0.117,0.866,0.042
22.45,-0.17,0.952,-0.092
22.46,-0.333,0.362,-0.128
22.47,-0.196,1.353,0.155
22.48,-0.249,1.334,-0.007
22.49,-0.149,0.582,-0.137
22.5,-0.409,0.857,-0.033
22.51,-0.081,0.855,0.203
22.52,-0.286,1.537,-0.014
22.53,-0.116,0.464,-0.106
22.54,-0.287,1.017,-0.098
22.55,0.025,0.982,0.107
22.56,-0.229,1.001,-0.078
22.57,-0.217,0.841,-0.154
22.58,-0.136,0.92,-0.046
22.59,-0.11,1.182,0.081
22.6,-0.118,0.751,-0.045
22.61,-0.369,0.919,-0.208
22.62,-0.146,1.275,0.061
22.63,-0.203,0.894,0.1
22.64,-0.217,1.08,-0.03
22.65,-0.264,0.366,-0.203
22.66,-0.237,1.906,0.126
22.67,-0.064,0.502,0.127
22.68,-0.243,1.056,0.02
22.69,-0.447,0.175,-0.144
22.7,-0.19,2.0,0.057
22.71,-0.162,0.675,0.106
22.72,-0.037,0.654,-0.058
22.73,-0.559,0.66,-0.21
22.74,-0.081,1.57,0.189
22.75,-0.228,1.27,0.111
22.76,0.029,0.432,-0.001
22.77,-0.47,0.82,-0.104
22.78,-0.049,1.55,0.177
22.79,-0.151,1.193,0.021
22.8,-0.036,0.773,-0.129
22.81,-0.337,0.315,-0.121
22.82,-0.215,1.723,0.153
22.83,-0.077,0.884,0.05
22.84,-0.272,1.002,-0.107
22.85,-0.302,0.186,-0.069
22.86,-0.252,1.481,0.226
22.87,-0.254,1.039,-0.005
22.88,-0.097,0.753,-0.108
22.89,-0.312,0.748,-0.083
22.9,-0.019,0.958,0.162
22.91,-0.29,1.52,-0.042
22.92,-0.158,0.365,-0.109
22.93,-0.29,1.226,-0.055
22.94,-0.002,0.836,0.167
22.95,-0.259,1.298,0.019
22.96,-0.216,0.618,-0.189
22.97,-0.207,1.29,-0.011
22.98,-0.119,1.024,0.08
22.99,-0.136,0.714,-0.03
23.0,-0.415,0.915,-0.174
23.01,-0.177,1.276,0.088
23.02,-0.202,0.96,0.156
23.03,-0.15,0.757,0.025
23.04,-0.503,0.596,-0.149
23.05,-0.099,1.816,0.049
23.06,-0.151,0.603,0.076
23.07,-0.015,0.687,-0.057
23.08,-0.398,0.298,-0.13
23.09,-0.111,2.0,0.104
23.1,-0.084,0.576,0.073
23.11,-0.089,0.979,-0.074
23.12,-0.356,0.16,-0.109
23.13,-0.11,1.972,0.16
23.14,-0.155,0.923,0.049
23.15,-0.063,0.706,-0.093
23.16,-0.348,0.666,-0.129
23.17,-0.106,1.313,0.174
23.18,-0.325,1.444,0.011
23.19,0.028,0.468,-0.089
23.2,-0.452,0.852,-0.106
23.21,-0.033,0.98,0.195
23.22,-0.317,1.337,-0.062
23.23,-0.192,0.681,-0.121
23.24,-0.273,0.691,0.005
23.25,-0.088,1.276,0.181
23.26,-0.176,0.736,-0.013
23.27,-0.344,0.988,-0.133
23.28,-0.226,0.962,0.014
23.29,-0.072,1.122,0.12
23.3,-0.261,0.896,-0.032
23.31,-0.307,0.682,-0.15
23.32,-0.334,1.623,0.063
23.33,-0.041,0.632,0.129
23.34,-0.26,1.251,0.007
23.35,-0.25,0.258,-0.2
23.36,-0.34,1.931,0.152
23.37,-0.055,0.549,0.137
23.38,-0.233,0.966,0.019
23.39,-0.452,0.387,-0.186
23.4,-0.137,1.782,0.041
23.41,-0.142,0.894,0.12
23.42,0.018,0.435,-0.047
23.43,-0.663,0.815,-0.161
23.44,0.037,1.581,0.165
23.45,-0.256,1.142,0.11
23.46,0.106,0.524,-0.032
23.47,-0.544,0.623,-0.145
23.48,-0.039,1.889,0.192
23.49,-0.257,0.81,0.104
23.5,0.006,0.945,-0.073
23.51,-0.341,0.143,-0.171
23.52,-0.156,1.947,0.165
23.53,-0.17,0.823,0.037
23.54,-0.157,0.99,-0.078
23.55,-0.344,0.34,-0.097
23.56,-0.118,1.578,0.181
23.57,-0.305,1.342,0.023
23.58,-0.073,0.58,-0.096
23.59,-0.419,0.819,-0.049
23.6,-0.142,1.059,0.216
23.61,-0.342,1.638,0.013
23.62,-0.086,0.388,-0.099
23.63,-0.292,1.021,-0.019
23.64,-0.052,1.098,0.135
23.65,-0.242,0.944,-0.087
23.66,-0.374,0.887,-0.12
23.67,-0.073,0.822,0.005
23.68,-0.219,1.258,0.151
23.69,-0.179,0.676,-0.033
23.7,-0.409,0.894,-0.182
23.71,-0.218,1.031,0.083
23.72,-0.21,0.99,0.163
23.73,-0.234,1.126,-0.083
23.74,-0.186,0.382,-0.197
23.75,-0.091,1.985,0.082
23.76,0.055,0.565,0.139
23.77,-0.195,1.031,-0.021
23.78,-0.453,0.187,-0.2
23.79,-0.11,2.0,0.056
23.8,-0.11,0.78,0.105
23.81,-0.044,0.625,-0.028
23.82,-0.59,0.691,-0.209
23.83,-0.066,1.641,0.183
23.84,-0.292,1.125,0.089
23.85,0.056,0.375,-0.004
23.86,-0.598,0.832,-0.12
23.87,-0.04,1.534,0.132
23.88,-0.305,1.365,0.026
23.89,-0.022,0.571,-0.071
23.9,-0.361,0.577,-0.081
23.91,-0.181,1.288,0.166
23.92,-0.199,1.025,0.008
23.93,-0.241,1.044,-0.13
23.94,-0.28,0.216,-0.012
23.95,-0.33,1.475,0.261
23.96,-0.211,0.924,0.034
23.97,-0.17,0.938,-0.088
23.98,-0.255,0.712,-0.104
23.99,0.021,1.09,0.1
24.0,-0.307,1.269,-0.096
24.01,-0.132,0.471,-0.162
24.02,-0.236,1.688,-0.026
24.03,-0.051,0.633,0.164
24.04,-0.251,1.29,0.004
24.05,-0.368,0.356,-0.198
24.06,-0.289,1.628,0.107
24.07,-0.233,0.846,0.139
24.08,-0.156,0.806,-0.021
24.09,-0.384,0.667,-0.224
24.1,-0.059,1.431,0.075
24.11,-0.179,1.021,0.126
24.12,-0.034,0.474,0.023
24.13,-0.582,0.707,-0.135
24.14,0.05,1.731,0.041
24.15,-0.13,0.865,0.031
24.16,0.055,0.747,-0.06
24.17,-0.468,0.279,-0.156
24.18,-0.15,2.0,0.195
24.19,-0.078,0.613,0.066
24.2,-0.161,0.941,-0.079
24.21,-0.312,0.188,-0.161
24.22,-0.156,1.95,0.129
24.23,-0.194,0.973,0.066
24.24,0.056,0.765,-0.107
24.25,-0.387,0.638,-0.105
24.26,0.024,1.253,0.151
24.27,-0.316,1.454,0.003
24.28,-0.015,0.493,-0.092
24.29,-0.489,0.839,-0.08
24.3,-0.055,1.144,0.227
24.31,-0.321,1.394,0.017
24.32,-0.128,0.719,-0.13
24.33,-0.251,0.538,-0.06
24.34,-0.118,1.288,0.121
24.35,-0.145,0.897,-0.068
24.36,-0.268,1.022,-0.135
24.37,-0.143,0.952,-0.019
24.38,-0.11,1.099,0.136
24.39,-0.153,0.816,0.032
24.4,-0.402,0.757,-0.186
24.41,-0.343,1.526,0.106
24.42,-0.147,0.683,0.163
24.43,-0.428,1.187,-0.001
24.44,-0.258,0.084,-0.147
24.45,-0.425,1.94,0.114
24.46,-0.075,0.53,0.068
24.47,-0.2,0.992,-0.039
24.48,-0.424,0.421,-0.223
24.49,-0.074,1.766,0.101
24.5,-0.069,1.055,0.077
24.51,0.022,0.416,-0.031
24.52,-0.565,0.796,-0.113
24.53,0.005,1.617,0.153
24.54,-0.226,1.137,0.016
24.55,0.045,0.567,-0.098
24.56,-0.428,0.591,-0.227
24.57,0.021,1.863,0.172
24.58,-0.134,0.854,0.024
24.59,-0.093,0.884,-0.061
24.6,-0.288,0.105,-0.094
24.61,-0.29,1.695,0.162
24.62,-0.165,0.874,0.015
24.63,-0.268,0.99,-0.093
24.64,-0.291,0.452,-0.078
24.65,-0.174,1.265,0.234
24.66,-0.351,1.361,0.066
24.67,-0.041,0.568,-0.137
24.68,-0.343,0.887,-0.041
24.69,-0.015,0.781,0.128
24.7,-0.309,1.584,-0.079
24.71,-0.114,0.237,-0.12
24.72,-0.259,1.776,-0.036
24.73,-0.068,0.677,0.113
24.74,-0.247,1.103,-0.001
24.75,-0.41,0.652,-0.207
24.76,-0.115,1.583,0.128
24.77,-0.217,0.906,0.122
24.78,0.007,0.641,-0.022
24.79,-0.567,0.899,-0.192
24.8,-0.063,1.395,0.122
24.81,-0.27,0.976,0.033
24.82,-0.064,0.588,0.002
24.83,-0.47,0.514,-0.158
24.84,-0.033,1.928,0.103
24.85,-0.093,0.737,0.116
24.86,-0.11,0.914,-0.046
24.87,-0.277,0.083,-0.123
24.88,-0.214,2.0,0.149
24.89,-0.028,0.831,0.039
24.9,-0.186,0.977,-0.124
24.91,-0.361,0.405,-0.097
24.92,-0.109,1.643,0.185
24.93,-0.268,1.377,-0.01
24.94,-0.015,0.456,-0.055
24.95,-0.43,0.897,-0.041
24.96,-0.064,0.99,0.206
24.97,-0.321,1.425,-0.021
24.98,-0.2,0.567,-0.107
24.99,-0.162,0.915,0.002
25.0,-0.072,1.091,0.144
25.01,-0.176,0.954,-0.031
25.02,-0.348,0.865,-0.147
25.03,-0.209,0.747,0.021
25.04,-0.196,1.219,0.144
25.05,-0.235,0.801,0.025
25.06,-0.281,0.843,-0.151
25.07,-0.186,1.478,0.079
25.08,-0.112,0.785,0.163
25.09,-0.193,0.998,-0.022
25.1,-0.395,0.259,-0.169
25.11,-0.179,2.0,0.098
25.12,-0.111,0.497,0.086
25.13,-0.181,1.008,-0.015
25.14,-0.548,0.191,-0.169
25.15,-0.148,1.945,0.141
25.16,-0.311,0.753,0.059
25.17,-0.084,0.542,-0.06
25.18,-0.533,0.701,-0.139
25.19,0.047,1.47,0.138
25.2,-0.182,1.333,0.075
25.21,0.023,0.454,-0.082
25.22,-0.333,0.738,-0.139
25.23,-0.087,1.463,0.117
25.24,-0.214,1.247,0.015
25.25,-0.214,0.848,-0.123
25.26,-0.318,0.259,-0.026
25.27,-0.351,1.711,0.237
25.28,-0.169,0.931,0.077
25.29,-0.248,0.981,-0.079
25.3,-0.267,0.353,-0.01
25.31,-0.104,1.311,0.168
25.32,-0.246,1.072,-0.103
25.33,-0.226,0.737,-0.179
25.34,-0.244,1.174,-0.066
25.35,0.018,0.771,0.175
25.36,-0.339,1.385,0.014
25.37,-0.242,0.365,-0.16
25.38,-0.369,1.721,0.057
25.39,-0.051,0.641,0.153
25.4,-0.345,1.095,0.082
25.41,-0.31,0.57,-0.171
25.42,-0.169,1.633,0.061
25.43,-0.148,0.922,0.124
25.44,-0.029,0.53,-0.007
25.45,-0.578,0.84,-0.172
25.46,-0.033,1.537,0.105
25.47,-0.251,0.941,0.082
25.48,0.016,0.594,-0.01
25.49,-0.494,0.75,-0.127
25.5,-0.035,1.653,0.192
25.51,-0.102,1.068,-0.038
25.52,-0.022,0.875,-0.1
25.53,-0.25,0.201,-0.139
25.54,-0.232,1.78,0.133
25.55,-0.092,0.84,0.012
25.56,-0.239,1.04,-0.13
25.57,-0.351,0.211,-0.033
25.58,-0.178,1.339,0.202
25.59,-0.318,1.103,-0.013
25.6,-0.105,0.691,-0.114
25.61,-0.33,0.986,-0.034
25.62,0.064,0.867,0.135
25.63,-0.465,1.469,-0.028
25.64,-0.162,0.369,-0.167
25.65,-0.295,1.476,-0.019
25.66,-0.04,0.802,0.17
25.67,-0.248,1.104,-0.009
25.68,-0.254,0.682,-0.203
25.69,-0.196,1.435,0.126
25.7,-0.183,1.043,0.188
25.71,0.037,0.535,-0.011
25.72,-0.538,0.848,-0.234
25.73,0.042,1.583,-0.034
25.74,-0.241,0.913,0.109
25.75,0.033,0.633,0.009
25.76,-0.628,0.456,-0.117
25.77,-0.044,2.0,0.175
25.78,-0.223,0.671,0.106
25.79,-0.083,0.881,-0.029
25.8,-0.431,0.141,-0.098
25.81,-0.137,2.0,0.153
25.82,-0.085,0.706,0.04
25.83,-0.052,0.809,-0.104
25.84,-0.419,0.5,-0.181
25.85,-0.004,1.564,0.139
25.86,-0.303,1.312,0.057
25.87,-0.135,0.428,-0.077
25.88,-0.42,0.842,-0.08
25.89,-0.093,1.219,0.219
25.9,-0.325,1.415,0.004
25.91,-0.131,0.643,-0.117
25.92,-0.391,0.562,-0.01
25.93,-0.126,1.244,0.201
25.94,-0.226,1.048,-0.007
25.95,-0.319,1.001,-0.121
25.96,-0.249,0.435,0.013
25.97,-0.164,1.283,0.201
25.98,-0.212,0.9,-0.018
25.99,-0.294,0.887,-0.134
26.0,-0.277,1.33,0.008
26.01,-0.091,0.824,0.157
26.02,-0.322,1.202,0.023
26.03,-0.224,0.347,-0.147
26.04,-0.271,2.0,0.112
26.05,0.077,0.525,0.153
26.06,-0.156,1.05,-0.02
26.07,-0.439,0.269,-0.229
26.08,-0.193,1.926,0.062
26.09,-0.22,0.793,0.101
26.1,0.008,0.564,-0.003
26.11,-0.553,0.73,-0.189
26.12,-0.017,1.598,0.15
26.13,-0.332,1.176,0.07
26.14,0.104,0.392,-0.032
26.15,-0.271,1.286,0.012
26.16,-0.197,0.88,-0.128
26.17,-0.299,0.324,-0.034
26.18,-0.167,1.37,0.177
26.19,-0.236,0.927,-0.02
26.2,-0.223,0.954,-0.151
26.21,-0.219,0.89,-0.01
26.22,-0.023,1.087,0.113
26.23,-0.314,1.012,-0.066
26.24,-0.42,0.783,-0.175
26.25,-0.246,1.624,0.079
26.26,-0.046,0.657,0.136
26.27,-0.185,1.008,0.008
26.28,-0.465,0.174,-0.212
26.29,-0.235,2.0,0.076
26.3,-0.133,0.478,0.082
26.31,-0.15,0.983,0.015
26.32,-0.565,0.279,-0.16
26.33,-0.138,1.88,0.191
26.34,-0.141,0.944,0.132
26.35,0.079,0.493,-0.053
26.36,-0.562,0.815,-0.154
26.37,-0.073,1.469,0.237
26.38,-0.306,1.341,0.102
26.39,0.047,0.571,-0.078
26.4,-0.415,0.7,-0.215
26.41,-0.019,1.714,0.172
26.42,-0.191,1.023,0.062
26.43,-0.043,0.815,-0.105
26.44,-0.226,0.225,-0.155
26.45,-0.223,1.651,0.125
26.46,-0.152,0.776,-0.06
26.47,-0.224,1.056,-0.1
26.48,-0.204,0.406,-0.047
26.49,-0.187,1.238,0.198
26.5,-0.23,1.134,-0.003
26.51,-0.142,0.589,-0.133
26.52,-0.34,0.889,-0.109
26.53,0.036,0.829,0.137
26.54,-0.344,1.589,-0.088
26.55,-0.044,0.313,-0.093
26.56,-0.371,1.579,-0.063
26.57,0.013,0.804,0.102
26.58,-0.248,1.051,-0.048
26.59,-0.28,0.771,-0.17
26.6,-0.206,1.39,0.045
26.61,-0.231,1.027,0.157
26.62,-0.092,0.61,0.039
26.63,-0.533,0.87,-0.132
26.64,-0.194,1.406,0.089
26.65,-0.314,0.861,0.115
26.66,-0.171,0.844,-0.021
26.67,-0.373,0.427,-0.138
26.68,-0.095,2.0,0.075
26.69,0.055,0.559,0.043
26.7,-0.111,0.909,-0.081
26.71,-0.36,0.088,-0.152
26.72,-0.149,2.0,0.118
26.73,-0.038,0.79,0.085
26.74,-0.119,0.861,-0.089
26.75,-0.408,0.548,-0.187
26.76,0.09,1.67,0.176
26.77,-0.292,1.395,-0.012
26.78,0.083,0.457,-0.064
26.79,-0.563,0.841,-0.127
26.8,-0.061,1.284,0.227
26.81,-0.275,1.342,0.037
26.82,-0.114,0.638,-0.101
26.83,-0.37,0.542,0.0
26.84,-0.188,1.326,0.143
26.85,-0.189,0.888,-0.016
26.86,-0.224,1.014,-0.12
26.87,-0.232,0.377,-0.021
26.88,-0.141,1.291,0.135
26.89,-0.156,0.923,-0.092
26.9,-0.243,0.816,-0.122
26.91,-0.215,1.098,-0.01
26.92,-0.126,0.801,0.151
26.93,-0.36,1.35,-0.013
26.94,-0.174,0.318,-0.149
26.95,-0.322,1.902,0.079
26.96,-0.004,0.582,0.168
26.97,-0.188,1.059,0.02
26.98,-0.438,0.38,-0.216
26.99,-0.195,1.795,0.097
27.0,-0.135,0.813,0.087
27.01,-0.04,0.573,-0.053
27.02,-0.548,0.792,-0.2
27.03,0.042,1.569,0.049
27.04,-0.255,1.158,0.136
27.05,0.095,0.35,-0.031
27.06,-0.577,0.865,-0.115
27.07,-0.01,1.556,0.17
27.08,-0.25,1.197,0.018
27.09,0.015,0.693,-0.102
27.1,-0.342,0.444,-0.158
27.11,-0.254,1.596,0.127
27.12,-0.117,0.909,0.01
27.13,-0.202,1.172,-0.118
27.14,-0.32,0.162,-0.036
27.15,-0.231,1.503,0.218
27.16,-0.228,1.032,0.018
27.17,-0.185,0.85,-0.105
27.18,-0.376,0.739,-0.087
27.19,-0.034,0.979,0.157
27.2,-0.424,1.404,-0.057
27.21,-0.081,0.392,-0.101
27.22,-0.299,1.669,-0.046
27.23,0.06,0.663,0.114
27.24,-0.353,1.188,-0.034
27.25,-0.335,0.554,-0.212
27.26,-0.27,1.305,0.032
27.27,-0.179,1.017,0.144
27.28,-0.126,0.824,0.005
27.29,-0.407,0.795,-0.196
27.3,-0.082,1.316,0.141
27.31,-0.143,1.049,0.116
27.32,-0.036,0.591,-0.038
27.33,-0.512,0.662,-0.15
27.34,0.022,1.801,0.026
27.35,-0.072,0.757,0.092
27.36,-0.035,0.892,-0.065
27.37,-0.423,0.159,-0.167
27.38,-0.212,2.0,0.208
27.39,-0.134,0.568,0.092
27.4,-0.161,0.925,-0.015
27.41,-0.354,0.29,-0.107
27.42,-0.148,1.818,0.18
27.43,-0.106,1.161,-0.001
27.44,0.007,0.579,-0.123
27.45,-0.386,0.764,-0.098
27.46,-0.036,1.16,0.125
27.47,-0.292,1.444,-0.055
27.48,-0.07,0.547,-0.091
27.49,-0.471,0.727,-0.018
27.5,-0.182,1.128,0.27
27.51,-0.349,1.226,0.061
27.52,-0.207,0.876,-0.118
27.53,-0.168,0.465,-0.088
27.54,-0.099,1.32,0.119
27.55,-0.169,0.862,-0.074
27.56,-0.293,0.989,-0.173
27.57,-0.212,1.088,-0.001
27.58,-0.087,0.989,0.161
27.59,-0.223,1.045,0.005
27.6,-0.338,0.572,-0.152
27.61,-0.329,1.754,0.158
27.62,-0.079,0.601,0.167
27.63,-0.286,1.236,-0.008
27.64,-0.293,0.129,-0.204
27.65,-0.28,1.92,0.09
27.66,-0.103,0.608,0.061
27.67,-0.151,0.817,-0.02
27.68,-0.474,0.567,-0.184
27.69,-0.036,1.649,0.086
27.7,-0.177,1.063,0.112
27.71,0.107,0.354,-0.045
27.72,-0.548,0.863,-0.139
27.73,-0.026,1.561,0.204
27.74,-0.231,1.165,0.085
27.75,0.022,0.695,-0.063
27.76,-0.305,0.419,-0.18
27.77,-0.059,1.937,0.114
27.78,-0.099,0.757,0.028
27.79,-0.167,1.016,-0.087
27.8,-0.271,0.116,-0.08
27.81,-0.253,1.586,0.169
27.82,-0.206,0.97,0.012
27.83,-0.194,0.846,-0.102
27.84,-0.287,0.619,-0.066
27.85,-0.076,1.116,0.132
27.86,-0.249,1.172,-0.058
27.87,-0.214,0.572,-0.18
27.88,-0.325,1.279,-0.038
27.89,-0.036,0.734,0.154
27.9,-0.3,1.382,0.019
27.91,-0.171,0.313,-0.104
27.92,-0.366,1.719,0.088
27.93,-0.1,0.725,0.172
27.94,-0.169,0.874,0.012
27.95,-0.461,0.659,-0.192
27.96,-0.1,1.526,0.055
27.97,-0.253,0.951,0.107
27.98,-0.012,0.588,-0.005
27.99,-0.571,0.809,-0.123
28.0,-0.039,1.594,0.111
28.01,-0.235,0.881,0.033
28.02,-0.076,0.687,0.012
28.03,-0.451,0.372,-0.118
28.04,-0.184,1.97,0.148
28.05,0.001,0.661,0.113
28.06,-0.131,1.0,-0.065
28.07,-0.277,0.135,-0.132
28.08,-0.239,1.781,0.135
28.09,-0.049,0.913,0.002
28.1,-0.153,0.847,-0.083
28.11,-0.35,0.582,-0.122
28.12,-0.171,1.3,0.184
28.13,-0.287,1.448,0.018
28.14,-0.01,0.418,-0.09
28.15,-0.473,0.862,-0.045
28.16,-0.046,0.981,0.25
28.17,-0.373,1.398,-0.012
28.18,-0.217,0.631,-0.081
28.19,-0.228,0.667,-0.037
28.2,-0.125,1.204,0.17
28.21,-0.159,0.87,-0.028
28.22,-0.331,1.006,-0.179
28.23,-0.22,0.682,-0.02
28.24,-0.083,1.186,0.109
28.25,-0.236,0.894,-0.037
28.26,-0.299,0.791,-0.105
28.27,-0.365,1.533,0.065
28.28,-0.055,0.693,0.171
28.29,-0.271,1.175,-0.006
28.3,-0.369,0.236,-0.254
28.31,-0.165,2.0,0.095
28.32,-0.042,0.539,0.064
28.33,-0.154,0.958,-0.031
28.34,-0.406,0.36,-0.255
28.35,-0.193,1.83,0.058
28.36,-0.228,0.766,0.105
28.37,-0.002,0.573,-0.024
28.38,-0.581,0.811,-0.16
28.39,0.002,1.531,0.146
28.4,-0.215,1.193,0.092
28.41,0.028,0.428,-0.039
28.42,-0.472,0.638,-0.109
28.43,-0.078,1.775,0.115
28.44,-0.107,0.86,0.085
28.45,-0.111,0.867,-0.109
28.46,-0.29,0.197,-0.167
28.47,-0.184,1.822,0.134
28.48,-0.136,0.782,0.061
28.49,-0.115,1.059,-0.096
28.5,-0.358,0.34,-0.096
28.51,-0.215,1.435,0.225
28.52,-0.302,1.296,0.033
28.53,-0.101,0.516,-0.126
28.54,-0.325,0.905,-0.05
28.55,-0.079,0.906,0.17
28.56,-0.288,1.487,-0.007
28.57,-0.172,0.466,-0.144
28.58,-0.273,1.053,-0.021
28.59,0.019,0.943,0.11
28.6,-0.216,1.055,-0.04
28.61,-0.365,0.815,-0.168
28.62,-0.143,0.78,-0.005
28.63,-0.178,1.222,0.121
28.64,-0.113,0.776,-0.061
28.65,-0.303,0.94,-0.104
28.66,-0.012,1.431,0.038
28.67,-0.105,1.04,0.136
28.68,-0.011,0.572,0.03
28.69,-0.571,0.64,-0.183
28.7,-0.007,1.839,0.04
28.71,-0.1,0.718,0.081
28.72,-0.03,0.898,-0.037
28.73,-0.498,0.148,-0.171
28.74,-0.107,2.0,0.161
28.75,-0.113,0.539,0.054
28.76,-0.145,0.825,-0.047
28.77,-0.424,0.323,-0.129
28.78,-0.163,1.712,0.134
28.79,-0.128,1.108,0.054
28.8,-0.006,0.499,-0.054
28.81,-0.357,0.829,-0.146
28.82,-0.089,1.238,0.151
28.83,-0.302,1.377,0.056
28.84,-0.026,0.578,-0.088
28.85,-0.505,0.678,-0.105
28.86,-0.011,1.34,0.182
28.87,-0.307,1.134,0.037
28.88,-0.152,0.911,-0.127
28.89,-0.409,0.189,-0.032
28.9,-0.19,1.479,0.196
28.91,-0.282,0.882,-0.007
28.92,-0.192,0.984,-0.063
28.93,-0.279,0.694,-0.011
28.94,-0.02,1.101,0.197
28.95,-0.245,1.085,-0.078
28.96,-0.192,0.579,-0.174
28.97,-0.268,1.399,-0.014
28.98,0.024,0.784,0.102
28.99,-0.33,1.383,-0.014
29.0,-0.186,0.374,-0.129
29.01,-0.333,1.659,0.0
29.02,-0.054,0.763,0.123
29.03,-0.238,0.983,-0.017
29.04,-0.377,0.764,-0.162
29.05,-0.2,1.464,0.091
29.06,-0.159,1.05,0.185
29.07,0.067,0.513,0.019
29.08,-0.577,0.828,-0.205
29.09,-0.076,1.505,0.079
29.1,-0.296,0.865,0.101
29.11,-0.062,0.794,-0.016
29.12,-0.489,0.407,-0.154
29.13,-0.084,2.0,0.066
29.14,-0.094,0.489,0.083
29.15,-0.089,0.947,-0.018
29.16,-0.506,0.118,-0.147
29.17,-0.154,1.896,0.139
29.18,-0.12,0.876,0.103
29.19,-0.148,0.782,-0.062
29.2,-0.361,0.585,-0.097
29.21,-0.114,1.667,0.229
29.22,-0.174,1.151,0.038
29.23,0.054,0.385,-0.093
29.24,-0.476,0.873,-0.205
29.25,-0.025,1.396,0.147
29.26,-0.247,1.313,0.02
29.27,-0.043,0.611,-0.119
29.28,-0.321,0.52,-0.089
29.29,-0.189,1.454,0.143
29.3,-0.182,0.852,0.015
29.31,-0.277,1.135,-0.111
29.32,-0.258,0.219,-0.063
29.33,-0.151,1.458,0.286
29.34,-0.177,0.982,0.017
29.35,-0.156,0.875,-0.097
29.36,-0.354,0.763,-0.085
29.37,0.014,0.94,0.15
29.38,-0.375,1.47,-0.032
29.39,-0.03,0.359,-0.146
29.4,-0.262,1.682,-0.119
29.41,0.118,0.735,0.05
29.42,-0.255,1.151,-0.024
29.43,-0.367,0.588,-0.205
29.44,-0.365,1.054,0.038
29.45,-0.136,1.03,0.131
29.46,-0.218,1.063,0.007
29.47,-0.343,0.63,-0.219
29.48,-0.089,1.395,0.118
29.49,-0.186,1.007,0.11
29.5,0.021,0.512,0.001
29.51,-0.461,0.762,-0.166
29.52,-0.023,1.569,0.052
29.53,-0.133,0.996,0.132
29.54,0.013,0.709,-0.032
29.55,-0.522,0.368,-0.191
29.56,-0.102,1.98,0.151
29.57,-0.164,0.598,0.078
29.58,-0.14,0.941,-0.012
29.59,-0.408,0.157,-0.113
29.6,-0.184,2.0,0.177
29.61,-0.134,0.803,0.094
29.62,-0.054,0.676,-0.06
29.63,-0.384,0.552,-0.129
29.64,-0.078,1.385,0.138
29.65,-0.208,1.303,0.019
29.66,0.058,0.549,-0.099
29.67,-0.511,0.862,-0.139
29.68,-0.058,1.293,0.208
29.69,-0.308,1.354,0.067
29.7,-0.158,0.609,-0.111
29.71,-0.396,0.457,-0.058
29.72,-0.199,1.397,0.186
29.73,-0.201,0.961,0.005
29.74,-0.226,0.962,-0.112
29.75,-0.234,0.344,0.006
29.76,-0.133,1.339,0.136
29.77,-0.182,0.914,-0.001
29.78,-0.349,0.884,-0.125
29.79,-0.284,0.801,-0.044
29.8,-0.081,0.906,0.16
29.81,-0.201,1.33,-0.038
29.82,-0.153,0.455,-0.187
29.83,-0.261,1.728,-0.019
29.84,0.013,0.65,0.136
29.85,-0.35,1.262,-0.035
29.86,-0.302,0.446,-0.168
29.87,-0.244,1.591,0.008
29.88,-0.09,0.974,0.135
29.89,-0.145,0.662,0.017
29.9,-0.492,0.907,-0.234
29.91,-0.155,1.19,0.066
29.92,-0.245,1.054,0.075
29.93,-0.129,0.735,-0.008
29.94,-0.327,0.607,-0.22
29.95,-0.051,1.718,0.017
29.96,0.015,0.807,0.121
29.97,-0.104,0.795,-0.058
29.98,-0.415,0.154,-0.157
29.99,-0.181,2.0,0.088
30.0,-0.02,0.634,0.126
30.01,-0.096,0.95,-0.022
30.02,-0.466,0.293,-0.183
30.03,-0.146,1.912,0.202
30.04,-0.211,0.842,0.064
30.05,0.039,0.458,-0.092
30.06,-0.527,0.811,-0.168
30.07,0.11,1.502,0.127
30.08,-0.229,1.4,0.045
30.09,0.097,0.417,-0.033
30.1,-0.441,0.734,-0.138
30.11,-0.037,1.438,0.133
30.12,-0.204,1.108,0.047
30.13,-0.123,0.925,-0.124
30.14,-0.33,0.264,-0.125
30.15,-0.215,1.747,0.183
30.16,-0.163,0.902,0.06
30.17,-0.228,0.988,-0.082
30.18,-0.384,0.318,-0.0
30.19,-0.218,1.294,0.214
30.2,-0.287,1.198,0.041
30.21,-0.097,0.617,-0.095
30.22,-0.354,1.07,-0.036
30.23,0.043,0.865,0.189
30.24,-0.322,1.391,-0.004
30.25,-0.198,0.418,-0.16
30.26,-0.245,1.198,-0.071
30.27,-0.101,0.674,0.133
30.28,-0.324,1.256,-0.06
30.29,-0.193,0.423,-0.187
30.3,-0.319,1.638,0.092
30.31,-0.161,0.871,0.173
30.32,-0.089,0.644,0.012
30.33,-0.423,0.813,-0.208
30.34,-0.044,1.502,0.061
30.35,-0.206,1.057,0.14
30.36,-0.019,0.523,0.045
30.37,-0.541,0.713,-0.172
30.38,-0.082,1.691,0.095
30.39,-0.2,0.647,0.059
30.4,-0.14,0.948,-0.031
30.41,-0.453,0.163,-0.127
30.42,-0.148,2.0,0.136
30.43,-0.081,0.606,0.127
30.44,-0.169,0.861,-0.071
30.45,-0.411,0.216,-0.074
30.46,-0.151,1.806,0.146
30.47,-0.077,1.082,0.076
30.48,-0.101,0.548,-0.053
30.49,-0.365,0.781,-0.123
30.5,-0.093,1.33,0.128
30.51,-0.325,1.41,0.062
30.52,-0.028,0.531,-0.037
30.53,-0.397,0.763,-0.097
30.54,-0.126,1.219,0.195
30.55,-0.322,1.263,0.012
30.56,-0.127,0.878,-0.118
30.57,-0.319,0.299,-0.008
30.58,-0.239,1.443,0.249
30.59,-0.159,0.869,0.032
30.6,-0.279,1.014,-0.176
30.61,-0.254,0.609,-0.091
30.62,-0.12,1.158,0.131
30.63,-0.338,1.069,-0.058
30.64,-0.161,0.54,-0.085
30.65,-0.431,1.654,0.069
30.66,0.01,0.636,0.221
30.67,-0.362,1.324,-0.005
30.68,-0.229,0.32,-0.206
30.69,-0.356,1.812,0.11
30.7,-0.104,0.686,0.136
30.71,-0.246,0.916,-0.003
30.72,-0.327,0.604,-0.208
30.73,-0.143,1.581,0.036
30.74,-0.168,0.961,0.073
30.75,-0.002,0.499,-0.033
30.76,-0.583,0.796,-0.181
30.77,0.064,1.599,0.055
30.78,-0.207,0.955,0.068
30.79,0.089,0.611,-0.053
30.8,-0.51,0.437,-0.193
30.81,-0.033,1.954,0.139
30.82,-0.107,0.734,0.058
30.83,-0.105,1.005,-0.041
30.84,-0.318,0.137,-0.145
30.85,-0.169,1.983,0.134
30.86,-0.1,0.86,0.026
30.87,-0.09,0.868,-0.065
30.88,-0.354,0.479,-0.152
30.89,-0.156,1.377,0.171
30.9,-0.328,1.394,0.096
30.91,-0.095,0.459,-0.063
30.92,-0.47,0.861,-0.039
30.93,-0.141,0.998,0.228
30.94,-0.32,1.471,0.031
30.95,-0.218,0.581,-0.112
30.96,-0.291,0.615,-0.0
30.97,-0.138,1.193,0.165
30.98,-0.206,0.928,-0.018
30.99,-0.281,0.966,-0.12
31.0,-0.196,0.825,-0.011
31.01,-0.148,1.23,0.154
31.02,-0.185,0.811,-0.031
31.03,-0.371,0.824,-0.165
31.04,-0.232,1.408,0.048
31.05,-0.145,0.749,0.18
31.06,-0.296,1.181,-0.02
31.07,-0.298,0.304,-0.14
31.08,-0.206,1.959,0.086
31.09,-0.058,0.479,0.086
31.1,-0.133,1.11,0.007
31.11,-0.49,0.121,-0.206
31.12,-0.051,2.0,0.088
31.13,-0.075,0.727,0.01
31.14,-0.017,0.721,-0.055
31.15,-0.427,0.519,-0.216
31.16,-0.088,1.719,0.163
31.17,-0.243,1.113,0.079
31.18,-0.021,0.322,-0.105
31.19,-0.491,0.842,-0.151
31.2,-0.036,1.561,0.166
31.21,-0.226,1.196,0.055
31.22,0.013,0.615,-0.04
31.23,-0.386,0.507,-0.118
31.24,-0.144,1.525,0.15
31.25,-0.115,0.912,0.01
31.26,-0.23,1.094,-0.081
31.27,-0.307,0.198,-0.007
31.28,-0.258,1.44,0.21
31.29,-0.228,0.976,0.02
31.3,-0.2,0.901,-0.12
31.31,-0.361,0.639,-0.065
31.32,-0.03,0.942,0.177
31.33,-0.345,1.411,-0.094
31.34,-0.026,0.406,-0.1
31.35,-0.323,1.593,-0.055
31.36,0.034,0.71,0.141
31.37,-0.364,1.233,-0.06
31.38,-0.267,0.544,-0.173
31.39,-0.23,1.497,0.011
31.4,-0.167,0.973,0.146
31.41,-0.123,0.725,-0.053
31.42,-0.357,0.874,-0.216
31.43,-0.205,1.22,0.117
31.44,-0.168,1.076,0.125
31.45,-0.173,0.608,-0.017
31.46,-0.396,0.663,-0.151
31.47,-0.082,1.732,-0.007
31.48,-0.051,0.716,0.044
31.49,-0.072,0.87,-0.035
31.5,-0.545,0.148,-0.153
31.51,-0.125,2.0,0.176
31.52,-0.076,0.605,0.054
31.53,-0.095,0.902,-0.036
31.54,-0.467,0.271,-0.122
31.55,-0.162,1.927,0.215
31.56,-0.165,0.889,0.087
31.57,0.039,0.503,-0.061
31.58,-0.547,0.819,-0.183
31.59,0.055,1.403,0.151
31.6,-0.334,1.413,0.08
31.61,0.091,0.481,-0.076
31.62,-0.515,0.74,-0.118
31.63,-0.12,1.3,0.186
31.64,-0.294,1.104,0.06
31.65,-0.165,0.981,-0.127
31.66,-0.381,0.264,-0.015
31.67,-0.267,1.479,0.21
31.68,-0.206,0.922,0.057
31.69,-0.168,0.991,-0.116
31.7,-0.345,0.427,-0.013
31.71,-0.051,1.201,0.207
31.72,-0.326,1.164,0.022
31.73,-0.131,0.615,-0.172
31.74,-0.197,1.21,-0.111
31.75,0.019,0.816,0.11
31.76,-0.254,1.404,-0.055
31.77,-0.236,0.396,-0.146
31.78,-0.223,1.439,-0.02
31.79,-0.156,0.825,0.147
31.8,-0.277,1.044,0.014
31.81,-0.275,0.644,-0.122
31.82,-0.319,1.391,0.088
31.83,-0.187,1.047,0.144
31.84,-0.106,0.59,-0.008
31.85,-0.465,0.889,-0.187
31.86,-0.108,1.479,0.07
31.87,-0.116,0.876,0.117
31.88,0.021,0.484,-0.014
31.89,-0.524,0.719,-0.148
31.9,-0.088,1.763,0.186
31.91,-0.154,0.834,0.116
31.92,-0.037,0.839,-0.055
31.93,-0.337,0.174,-0.125
31.94,-0.151,2.0,0.116
31.95,-0.002,0.657,0.013
31.96,-0.05,0.98,-0.118
31.97,-0.409,0.285,-0.152
31.98,-0.109,1.516,0.134
31.99,-0.222,1.174,0.059
32.0,-0.092,0.54,-0.114
32.01,-0.396,0.818,-0.086
32.02,-0.098,1.007,0.155
32.03,-0.338,1.455,0.01
32.04,-0.114,0.506,-0.112
32.05,-0.372,0.88,-0.038
32.06,-0.103,1.012,0.231
32.07,-0.132,1.29,-0.038
32.08,-0.218,0.838,-0.179
32.09,-0.154,0.653,-0.079
32.1,-0.097,1.287,0.123
32.11,-0.18,0.731,-0.039
32.12,-0.249,1.034,-0.146
32.13,-0.257,1.174,-0.017
32.14,-0.174,0.986,0.16
32.15,-0.2,0.958,-0.01
32.16,-0.399,0.528,-0.19
32.17,-0.368,1.753,0.131
32.18,-0.115,0.595,0.154
32.19,-0.231,1.209,0.033
32.2,-0.255,0.151,-0.245
32.21,-0.15,2.0,0.026
32.22,0.09,0.741,0.059
32.23,-0.129,0.656,-0.055
32.24,-0.4,0.491,-0.237
32.25,-0.082,1.733,0.068
32.26,-0.195,1.019,0.069
32.27,0.072,0.379,-0.043
32.28,-0.531,0.858,-0.191
32.29,-0.043,1.55,0.143
32.3,-0.243,0.973,0.053
32.31,0.045,0.595,-0.053
32.32,-0.465,0.453,-0.137
32.33,-0.049,1.929,0.112
32.34,-0.06,0.785,0.057
32.35,-0.132,0.99,-0.076
32.36,-0.274,0.117,-0.132
32.37,-0.166,1.78,0.146
32.38,-0.142,0.922,0.036
32.39,-0.188,0.863,-0.108
32.4,-0.375,0.524,-0.118
32.41,-0.157,1.418,0.235
32.42,-0.336,1.377,0.073
32.43,-0.077,0.399,-0.076
32.44,-0.493,0.988,-0.039
32.45,-0.027,0.939,0.183
32.46,-0.362,1.382,0.002
32.47,-0.139,0.629,-0.089
32.48,-0.318,0.941,-0.011
32.49,-0.007,1.17,0.134
32.5,-0.128,0.808,-0.034
32.51,-0.38,0.992,-0.223
32.52,-0.172,0.632,-0.027
32.53,-0.244,1.175,0.122
32.54,-0.138,0.894,0.004
32.55,-0.265,0.722,-0.09
32.56,-0.255,1.534,0.036
32.57,-0.102,0.733,0.146
32.58,-0.208,1.13,-0.031
32.59,-0.343,0.247,-0.218
32.6,-0.238,2.0,0.08
32.61,-0.071,0.521,0.081
32.62,-0.132,1.046,0.016
32.63,-0.469,0.326,-0.193
32.64,-0.247,1.778,0.091
32.65,-0.24,0.719,0.055
32.66,-0.03,0.621,-0.014
32.67,-0.521,0.801,-0.171
32.68,0.033,1.536,0.09
32.69,-0.208,1.225,0.116
32.7,0.051,0.33,-0.051
32.71,-0.485,0.864,-0.143
32.72,-0.021,1.409,0.167
32.73,-0.175,1.233,0.003
32.74,-0.031,0.744,-0.13
32.75,-0.38,0.421,-0.138
32.76,-0.095,1.727,0.144
32.77,-0.137,0.929,0.038
32.78,-0.152,0.967,-0.107
32.79,-0.421,0.164,-0.051
32.8,-0.169,1.542,0.185
32.81,-0.287,0.913,0.03
32.82,-0.149,0.899,-0.104
32.83,-0.377,0.706,-0.056
32.84,0.019,1.039,0.188
32.85,-0.303,1.263,0.001
32.86,-0.144,0.447,-0.102
32.87,-0.326,1.093,-0.061
32.88,0.048,0.825,0.178
32.89,-0.221,1.452,-0.077
32.9,-0.123,0.539,-0.128
32.91,-0.285,1.197,-0.097
32.92,-0.035,1.061,0.142
32.93,-0.195,0.863,-0.049
32.94,-0.322,0.933,-0.157
32.95,-0.262,1.208,0.072
32.96,-0.177,1.076,0.185
32.97,-0.135,0.692,0.058
32.98,-0.466,0.785,-0.173
32.99,-0.316,1.517,0.137
33.0,-0.166,0.718,0.087
33.01,-0.167,1.169,-0.024
33.02,-0.235,0.227,-0.215
33.03,-0.215,2.0,0.082
33.04,0.005,0.497,0.074
33.05,-0.113,1.004,-0.016
33.06,-0.335,0.241,-0.237
33.07,-0.098,1.897,0.033
33.08,-0.082,0.88,0.092
33.09,-0.029,0.461,-0.031
33.1,-0.486,0.76,-0.188
33.11,-0.035,1.569,0.091
33.12,-0.303,1.09,0.104
33.13,0.025,0.433,-0.018
33.14,-0.585,0.752,-0.087
33.15,0.001,1.757,0.177
33.16,-0.183,0.895,0.107
33.17,0.072,0.775,-0.133
33.18,-0.311,0.216,-0.166
33.19,-0.126,1.957,0.101
33.2,-0.145,0.814,0.103
33.21,-0.211,1.043,-0.048
33.22,-0.345,0.24,-0.106
33.23,-0.077,1.858,0.134
33.24,-0.245,1.114,0.054
33.25,0.015,0.687,-0.092
33.26,-0.477,0.697,-0.127
33.27,0.012,1.269,0.215
33.28,-0.381,1.606,0.019
33.29,-0.076,0.35,-0.092
33.3,-0.462,0.775,-0.078
33.31,-0.047,1.094,0.148
33.32,-0.276,1.228,0.02
33.33,-0.182,0.856,-0.162
33.34,-0.28,0.471,-0.01
33.35,-0.185,1.294,0.192
33.36,-0.159,0.855,0.054
33.37,-0.35,1.038,-0.107
33.38,-0.165,0.882,-0.016
33.39,-0.138,1.071,0.147
33.4,-0.243,0.975,-0.058
33.41,-0.278,0.571,-0.113
33.42,-0.321,1.743,0.057
33.43,-0.057,0.625,0.17
33.44,-0.355,1.222,0.04
33.45,-0.308,0.26,-0.2
33.46,-0.435,1.793,0.131
33.47,-0.077,0.667,0.093
33.48,-0.221,1.068,-0.003
33.49,-0.348,0.564,-0.234
33.5,-0.077,1.823,0.093
33.51,-0.089,0.876,0.078
33.52,0.015,0.499,-0.047
33.53,-0.469,0.706,-0.165
33.54,-0.027,1.57,0.131
33.55,-0.169,1.293,0.079
33.56,0.084,0.501,-0.057
33.57,-0.417,0.789,-0.214
33.58,0.001,1.78,0.167
33.59,-0.176,0.912,0.026
33.6,-0.073,0.836,-0.039
33.61,-0.292,0.23,-0.165
33.62,-0.213,1.93,0.12
33.63,-0.056,0.824,0.029
33.64,-0.127,1.033,-0.093
33.65,-0.286,0.261,-0.142
33.66,-0.221,1.45,0.162
33.67,-0.204,1.102,0.021
33.68,-0.185,0.704,-0.09
33.69,-0.409,0.81,0.02
33.7,-0.141,0.971,0.265
33.71,-0.296,1.589,0.012
33.72,-0.019,0.415,-0.103
33.73,-0.326,1.041,-0.116
33.74,0.058,0.913,0.108
33.75,-0.307,1.228,-0.053
33.76,-0.229,0.762,-0.193
33.77,-0.174,1.111,0.02
33.78,-0.171,1.157,0.161
33.79,-0.14,0.612,0.037
33.8,-0.407,1.031,-0.151
33.81,-0.285,1.2,0.049
33.82,-0.192,0.981,0.179
33.83,-0.254,0.971,0.01
33.84,-0.305,0.478,-0.164
33.85,-0.251,1.816,0.074
33.86,-0.093,0.525,0.138
33.87,-0.196,1.161,0.034
33.88,-0.403,0.155,-0.182
33.89,-0.183,2.0,0.072
33.9,-0.054,0.573,0.091
33.91,-0.112,0.901,-0.028
33.92,-0.471,0.246,-0.165
33.93,-0.118,1.975,0.147
33.94,-0.206,0.848,0.05
33.95,0.026,0.473,-0.083
33.96,-0.518,0.742,-0.134
33.97,-0.006,1.471,0.149
33.98,-0.247,1.37,0.09
33.99,0.062,0.527,-0.034
34.0,-0.387,0.725,-0.135
34.01,-0.089,1.464,0.161
34.02,-0.17,1.216,0.039
34.03,-0.154,0.851,-0.136
34.04,-0.347,0.225,-0.092
34.05,-0.177,1.682,0.174
34.06,-0.149,0.898,0.03
34.07,-0.221,0.996,-0.048
34.08,-0.406,0.291,-0.02
34.09,-0.169,1.267,0.164
34.1,-0.298,1.162,-0.027
34.11,-0.14,0.629,-0.149
34.12,-0.324,1.17,-0.018
34.13,0.04,0.806,0.175
34.14,-0.294,1.396,-0.051
34.15,-0.164,0.366,-0.116
34.16,-0.341,1.277,-0.053
34.17,-0.045,0.812,0.125
34.18,-0.193,1.145,-0.038
34.19,-0.302,0.72,-0.152
34.2,-0.223,1.301,0.01
34.21,-0.196,1.085,0.162
34.22,-0.259,0.678,0.118
34.23,-0.484,0.964,-0.091
34.24,-0.174,1.373,0.116
34.25,-0.185,0.924,0.158
34.26,-0.097,0.777,0.012
34.27,-0.49,0.492,-0.193
34.28,-0.139,1.916,0.067
34.29,-0.134,0.531,0.096
34.3,-0.044,0.823,-0.031
34.31,-0.45,0.189,-0.139
34.32,-0.09,2.0,0.173
34.33,-0.039,0.72,0.051
34.34,-0.143,0.957,-0.051
34.35,-0.344,0.224,-0.131
34.36,-0.136,1.836,0.17
34.37,-0.2,1.068,0.061
34.38,-0.073,0.616,-0.075
34.39,-0.448,0.756,-0.163
34.4,-0.056,1.26,0.199
34.41,-0.337,1.459,0.042
34.42,-0.107,0.446,-0.042
34.43,-0.444,0.763,-0.061
34.44,-0.165,1.104,0.191
34.45,-0.301,1.177,0.028
34.46,-0.155,0.879,-0.121
34.47,-0.261,0.46,-0.068
34.48,-0.125,1.331,0.148
34.49,-0.24,0.872,-0.081
34.5,-0.229,0.87,-0.131
34.51,-0.325,1.247,-0.006
34.52,-0.1,0.866,0.157
34.53,-0.3,1.171,-0.033
34.54,-0.193,0.375,-0.192
34.55,-0.351,1.884,0.073
34.56,-0.097,0.581,0.15
34.57,-0.26,1.208,-0.021
34.58,-0.337,0.265,-0.205
34.59,-0.305,1.781,0.135
34.6,-0.093,0.714,0.094
34.61,-0.117,0.707,-0.063
34.62,-0.451,0.71,-0.193
34.63,-0.056,1.552,0.066
34.64,-0.195,1.067,0.093
34.65,0.036,0.417,-0.042
34.66,-0.552,0.738,-0.166
34.67,-0.014,1.722,0.154
34.68,-0.217,0.889,0.098
34.69,0.044,0.743,-0.105
34.7,-0.425,0.295,-0.169
34.71,-0.081,1.937,0.134
34.72,-0.063,0.772,0.028
34.73,-0.096,1.107,-0.098
34.74,-0.259,0.139,-0.153
34.75,-0.143,1.725,0.072
34.76,-0.214,1.125,0.03
34.77,-0.111,0.73,-0.074
34.78,-0.52,0.665,-0.051
34.79,-0.171,1.114,0.241
34.8,-0.409,1.588,0.098
34.81,-0.11,0.348,-0.051
34.82,-0.374,0.997,-0.015
34.83,-0.03,0.942,0.133
34.84,-0.305,1.232,-0.077
34.85,-0.175,0.729,-0.164
34.86,-0.202,0.845,-0.043
34.87,-0.041,1.195,0.074
34.88,-0.225,0.8,-0.013
34.89,-0.364,1.042,-0.155
34.9,-0.225,1.121,0.061
34.91,-0.229,1.009,0.178
34.92,-0.193,0.896,0.011
34.93,-0.384,0.604,-0.12
34.94,-0.286,1.781,0.151
34.95,-0.046,0.569,0.153
34.96,-0.254,1.076,0.048
34.97,-0.414,0.122,-0.133
34.98,-0.175,2.0,0.051
34.99,-0.091,0.564,0.145
35.0,-0.15,0.954,-0.021
35.01,-0.43,0.191,-0.121
35.02,-0.115,1.992,0.237
35.03,-0.175,0.983,0.005
35.04,0.005,0.535,-0.085
35.05,-0.406,0.751,-0.145
35.06,0.028,1.528,0.105
35.07,-0.298,1.398,-0.029
35.08,0.002,0.447,-0.045
35.09,-0.455,0.758,-0.104
35.1,-0.157,1.229,0.213
35.11,-0.249,1.227,0.032
35.12,-0.24,0.871,-0.098
35.13,-0.304,0.33,-0.002
35.14,-0.231,1.422,0.222
35.15,-0.212,0.89,0.004
35.16,-0.234,1.042,-0.138
35.17,-0.299,0.573,-0.01
35.18,-0.125,1.132,0.15
35.19,-0.272,1.103,-0.046
35.2,-0.265,0.607,-0.123
35.21,-0.299,1.636,0.099
35.22,-0.055,0.606,0.159
35.23,-0.191,1.305,-0.068
35.24,-0.31,0.282,-0.282
35.25,-0.239,1.882,0.052
35.26,-0.069,0.632,0.074
35.27,-0.195,0.965,-0.034
35.28,-0.423,0.541,-0.256
35.29,-0.068,1.649,0.036
35.3,-0.144,0.995,0.097
35.31,0.01,0.388,-0.009
35.32,-0.588,0.814,-0.173
35.33,0.039,1.586,0.118
35.34,-0.191,1.145,0.086
35.35,0.072,0.57,-0.047
35.36,-0.437,0.48,-0.168
35.37,-0.027,1.998,0.152
35.38,-0.109,0.698,0.006
35.39,-0.062,0.94,-0.055
35.4,-0.4,0.1,-0.146
35.41,-0.128,1.966,0.137
35.42,-0.198,0.812,0.049
35.43,-0.036,0.913,-0.078
35.44,-0.39,0.484,-0.137
35.45,-0.138,1.283,0.235
35.46,-0.401,1.312,0.003
35.47,-0.046,0.575,-0.097
35.48,-0.465,0.976,-0.042
35.49,-0.082,0.911,0.259
35.5,-0.276,1.469,-0.007
35.51,-0.161,0.536,-0.122
35.52,-0.365,0.865,-0.036
35.53,-0.063,1.118,0.112
35.54,-0.281,0.857,-0.054
35.55,-0.225,0.926,-0.104
35.56,-0.219,1.139,-0.069
35.57,-0.158,1.124,0.152
35.58,-0.245,0.718,-0.003
35.59,-0.461,0.839,-0.126
35.6,-0.27,1.442,0.072
35.61,-0.186,0.815,0.14
35.62,-0.228,1.115,-0.057
35.63,-0.249,0.242,-0.192
35.64,-0.281,1.912,0.085
35.65,0.019,0.483,0.064
35.66,-0.258,1.094,-0.043
35.67,-0.359,0.197,-0.188
35.68,-0.113,1.971,0.058
35.69,-0.155,0.789,0.088
35.7,-0.019,0.521,-0.049
35.71,-0.518,0.745,-0.177
35.72,-0.033,1.558,0.178
35.73,-0.277,1.234,0.109
35.74,0.088,0.408,-0.005
35.75,-0.538,0.772,-0.112
35.76,-0.037,1.683,0.172
35.77,-0.166,1.039,0.069
35.78,-0.052,0.84,-0.117
35.79,-0.288,0.232,-0.145
35.8,-0.182,1.401,0.162
35.81,-0.257,0.919,-0.012
35.82,-0.212,1.05,-0.109
35.83,-0.306,0.328,0.023
35.84,-0.09,1.38,0.201
35.85,-0.268,0.9,-0.024
35.86,-0.219,0.856,-0.14
35.87,-0.211,0.968,-0.094
35.88,-0.043,0.92,0.149
35.89,-0.254,1.343,-0.101
35.9,-0.176,0.364,-0.181
35.91,-0.293,1.802,0.019
35.92,-0.007,0.617,0.107
35.93,-0.278,1.205,-0.049
35.94,-0.241,0.449,-0.215
35.95,-0.271,1.697,0.107
35.96,-0.126,0.807,0.132
35.97,-0.123,0.696,0.009
35.98,-0.528,0.77,-0.173
35.99,-0.059,1.461,0.1
36.0,-0.23,0.996,0.095
36.01,0.072,0.469,-0.025
36.02,-0.531,0.73,-0.201
36.03,-0.006,1.735,0.149
36.04,-0.09,0.86,0.064
36.05,0.038,0.807,-0.084
36.06,-0.43,0.235,-0.184
36.07,-0.063,2.0,0.128
36.08,-0.084,0.68,0.067
36.09,-0.083,0.996,-0.068
36.1,-0.346,0.211,-0.148
36.11,-0.1,1.824,0.135
36.12,-0.225,1.116,0.003
36.13,-0.057,0.678,-0.073
36.14,-0.359,0.656,-0.122
36.15,-0.019,1.22,0.133
36.16,-0.4,1.483,0.064
36.17,-0.014,0.469,-0.095
36.18,-0.501,0.798,-0.042
36.19,-0.062,1.052,0.252
36.2,-0.338,1.259,-0.024
36.21,-0.142,0.735,-0.121
36.22,-0.21,0.849,-0.084
36.23,-0.094,1.238,0.116
36.24,-0.199,0.731,-0.046
36.25,-0.39,1.02,-0.147
36.26,-0.182,1.253,0.024
36.27,-0.185,0.985,0.157
36.28,-0.188,0.897,0.001
36.29,-0.376,0.543,-0.184
36.3,-0.291,1.727,0.105
36.31,-0.124,0.638,0.133
36.32,-0.313,1.209,0.017
36.33,-0.314,0.122,-0.143
36.34,-0.181,2.0,0.083
36.35,-0.061,0.541,0.037
36.36,-0.056,0.845,-0.024
36.37,-0.565,0.445,-0.172
36.38,-0.078,1.791,0.124
36.39,-0.276,1.054,0.126
36.4,0.031,0.424,-0.04
36.41,-0.438,0.849,-0.143
36.42,-0.006,1.609,0.193
36.43,-0.272,1.111,0.03
36.44,-0.017,0.501,-0.076
36.45,-0.318,0.473,-0.159
36.46,-0.173,1.817,0.125
36.47,-0.119,0.861,0.065
36.48,-0.108,1.082,-0.104
36.49,-0.238,0.093,-0.078
36.5,-0.26,1.684,0.208
36.51,-0.21,0.974,0.059
36.52,-0.246,0.936,-0.11
36.53,-0.426,0.465,-0.044
36.54,-0.165,1.179,0.283
36.55,-0.314,1.415,-0.001
36.56,-0.084,0.408,-0.147
36.57,-0.266,1.403,-0.074
36.58,0.011,0.762,0.13
36.59,-0.349,1.328,-0.069
36.6,-0.307,0.306,-0.17
36.61,-0.336,1.796,0.076
36.62,-0.051,0.733,0.147
36.63,-0.167,0.934,-0.012
36.64,-0.444,0.603,-0.258
36.65,-0.243,1.401,0.099
36.66,-0.285,0.994,0.101
36.67,-0.143,0.569,-0.01
36.68,-0.429,0.839,-0.168
36.69,0.037,1.52,0.038
36.7,-0.042,1.058,0.052
36.71,0.007,0.508,-0.088
36.72,-0.461,0.4,-0.171
36.73,-0.059,1.941,0.126
36.74,-0.043,0.729,0.093
36.75,-0.133,1.024,-0.05
36.76,-0.342,0.145,-0.156
36.77,-0.176,2.0,0.204
36.78,-0.13,0.778,0.043
36.79,-0.139,0.706,-0.057
36.8,-0.349,0.449,-0.139
36.81,-0.184,1.331,0.136
36.82,-0.264,1.284,0.006
36.83,-0.035,0.566,-0.049
36.84,-0.455,0.947,-0.045
36.85,-0.084,0.966,0.237
36.86,-0.316,1.299,0.072
36.87,-0.23,0.618,-0.145
36.88,-0.303,0.671,-0.048
36.89,-0.092,1.172,0.163
36.9,-0.129,1.055,-0.038
36.91,-0.15,0.939,-0.154
36.92,-0.248,0.793,-0.039
36.93,-0.073,1.256,0.115
36.94,-0.235,0.846,-0.021
36.95,-0.357,0.92,-0.128
36.96,-0.27,1.395,0.043
36.97,-0.026,0.799,0.136
36.98,-0.238,1.146,-0.008
36.99,-0.296,0.33,-0.196
37.0,-0.315,1.806,0.088
37.01,-0.116,0.615,0.116
37.02,-0.282,1.226,-0.029
37.03,-0.17,0.297,-0.226
37.04,-0.166,1.773,0.054
37.05,-0.07,0.793,0.081
37.06,-0.093,0.605,-0.012
37.07,-0.532,0.748,-0.183
37.08,-0.038,1.569,0.089
37.09,-0.161,1.079,0.11
37.1,0.071,0.445,-0.012
37.11,-0.533,0.755,-0.199
37.12,-0.043,1.701,0.174
37.13,-0.241,0.853,0.06
37.14,-0.018,0.783,-0.016
37.15,-0.429,0.261,-0.111
37.16,-0.122,2.0,0.139
37.17,-0.036,0.74,0.099
37.18,-0.12,0.999,-0.068
37.19,-0.303,0.206,-0.145
37.2,-0.123,1.727,0.102
37.21,-0.188,1.095,0.028
37.22,-0.105,0.723,-0.133
37.23,-0.502,0.688,-0.103
37.24,-0.02,1.348,0.2
37.25,-0.39,1.483,0.096
37.26,-0.015,0.407,-0.044
37.27,-0.445,0.873,-0.077
37.28,-0.038,1.076,0.185
37.29,-0.365,1.223,-0.007
37.3,-0.156,0.804,-0.123
37.31,-0.277,0.581,0.012
37.32,-0.108,1.305,0.199
37.33,-0.074,0.772,-0.041
37.34,-0.361,1.046,-0.154
37.35,-0.198,0.435,-0.003
37.36,-0.101,1.182,0.183
37.37,-0.215,1.12,-0.057
37.38,-0.185,0.631,-0.165
37.39,-0.277,1.549,-0.056
37.4,0.014,0.678,0.089
37.41,-0.225,1.08,-0.011
37.42,-0.35,0.299,-0.212
37.43,-0.275,2.0,0.124
37.44,-0.06,0.596,0.162
37.45,-0.181,0.978,0.059
37.46,-0.404,0.311,-0.183
37.47,-0.339,1.861,0.105
37.48,-0.173,0.709,0.068
37.49,-0.094,0.7,-0.029
37.5,-0.468,0.723,-0.196
37.51,-0.053,1.544,0.1
37.52,-0.105,1.212,0.081
37.53,0.048,0.325,-0.068
37.54,-0.467,0.758,-0.142
37.55,-0.11,1.625,0.098
37.56,-0.082,1.025,0.083
37.57,-0.091,0.892,-0.083
37.58,-0.393,0.248,-0.163
37.59,-0.112,2.0,0.239
37.6,-0.134,0.673,0.101
37.61,-0.129,1.007,-0.034
37.62,-0.27,0.196,-0.153
37.63,-0.115,1.895,0.086
37.64,-0.082,1.091,-0.04
37.65,-0.123,0.662,-0.109
37.66,-0.33,0.665,-0.133
37.67,-0.121,1.147,0.164
37.68,-0.29,1.481,0.049
37.69,-0.139,0.463,-0.073
37.7,-0.396,0.838,-0.027
37.71,-0.156,1.045,0.267
37.72,-0.294,1.296,0.032
37.73,-0.194,0.794,-0.099
37.74,-0.319,0.581,-0.059
37.75,-0.102,1.315,0.116
37.76,-0.195,0.789,-0.004
37.77,-0.251,0.984,-0.166
37.78,-0.189,1.093,-0.082
37.79,-0.067,1.073,0.149
37.8,-0.262,0.821,0.014
37.81,-0.383,0.665,-0.175
37.82,-0.343,1.63,0.036
37.83,-0.144,0.658,0.16
37.84,-0.313,1.275,0.006
37.85,-0.34,0.138,-0.155
37.86,-0.384,1.889,0.077
37.87,-0.155,0.612,0.119
37.88,-0.221,1.058,-0.007
37.89,-0.382,0.502,-0.208
37.9,-0.075,1.74,0.017
37.91,-0.138,0.956,0.153
37.92,0.071,0.478,-0.038
37.93,-0.637,0.848,-0.173
37.94,0.034,1.556,0.064
37.95,-0.286,1.024,0.106
37.96,-0.009,0.563,-0.01
37.97,-0.535,0.579,-0.156
37.98,-0.087,1.902,0.157
37.99,-0.099,0.664,0.118
38.0,-0.019,0.86,-0.091
38.01,-0.365,0.134,-0.128
38.02,-0.178,1.757,0.045
38.03,-0.024,0.817,0.018
38.04,-0.152,0.925,-0.087
38.05,-0.366,0.434,-0.124
38.06,-0.07,1.578,0.15
38.07,-0.266,1.366,0.025
38.08,-0.012,0.494,-0.083
38.09,-0.548,0.91,-0.095
38.1,-0.058,1.182,0.193
38.11,-0.329,1.486,0.033
38.12,-0.103,0.501,-0.066
38.13,-0.482,0.681,-0.04
38.14,-0.121,1.21,0.168
38.15,-0.207,1.022,0.034
38.16,-0.321,0.947,-0.125
38.17,-0.201,0.392,-0.031
38.18,-0.167,1.384,0.166
38.19,-0.138,0.787,0.003
38.2,-0.279,0.968,-0.099
38.21,-0.271,0.719,-0.033
38.22,-0.173,1.065,0.102
38.23,-0.214,1.003,-0.053
38.24,-0.259,0.608,-0.13
38.25,-0.255,1.699,0.108
38.26,-0.064,0.616,0.166
38.27,-0.284,1.14,0.012
38.28,-0.317,0.254,-0.172
38.29,-0.378,1.939,0.143
38.3,-0.138,0.572,0.189
38.31,-0.25,0.951,0.026
38.32,-0.474,0.401,-0.203
38.33,-0.116,1.743,0.095
38.34,-0.191,0.924,0.064
38.35,0.007,0.387,-0.037
38.36,-0.563,0.835,-0.168
38.37,0.011,1.573,0.159
38.38,-0.122,1.161,0.088
38.39,0.074,0.545,-0.033
38.4,-0.481,0.587,-0.186
38.41,-0.047,1.839,0.139
38.42,-0.097,0.826,0.071
38.43,-0.039,1.072,-0.063
38.44,-0.334,0.14,-0.167
38.45,-0.123,2.0,0.181
38.46,-0.159,0.813,0.015
38.47,-0.036,0.939,-0.098
38.48,-0.377,0.372,-0.118
38.49,-0.095,1.398,0.166
38.5,-0.33,1.254,-0.029
38.51,0.029,0.534,-0.106
38.52,-0.482,0.859,-0.073
38.53,-0.045,0.944,0.228
38.54,-0.404,1.424,0.025
38.55,-0.071,0.527,-0.129
38.56,-0.358,0.825,-0.086
38.57,0.034,1.038,0.174
38.58,-0.283,1.012,0.011
38.59,-0.197,0.844,-0.135
38.6,-0.189,0.91,-0.049
38.61,-0.148,1.195,0.163
38.62,-0.242,0.752,-0.035
38.63,-0.385,0.912,-0.164
38.64,-0.195,1.289,0.015
38.65,-0.111,0.899,0.143
38.66,-0.252,1.071,-0.018
38.67,-0.324,0.411,-0.172
38.68,-0.29,1.865,0.088
38.69,-0.116,0.579,0.182
38.7,-0.249,1.244,0.06
38.71,-0.299,0.218,-0.192
38.72,-0.171,1.964,0.011
38.73,-0.064,0.7,0.091
38.74,-0.01,0.69,-0.054
38.75,-0.563,0.631,-0.235
38.76,0.01,1.606,0.054
38.77,-0.291,1.036,0.072
38.78,0.074,0.458,-0.006
38.79,-0.674,0.792,-0.13
38.8,-0.02,1.663,0.169
38.81,-0.243,0.917,0.109
38.82,0.034,0.705,-0.076
38.83,-0.446,0.314,-0.096
38.84,-0.115,1.898,0.123
38.85,-0.029,0.734,0.074
38.86,-0.115,1.046,-0.092
38.87,-0.265,0.143,-0.129
38.88,-0.163,1.738,0.108
38.89,-0.201,0.995,0.021
38.9,-0.141,0.755,-0.102
38.91,-0.479,0.631,-0.095
38.92,-0.158,1.132,0.23
38.93,-0.356,1.482,0.05
38.94,-0.064,0.346,-0.092
38.95,-0.36,0.949,-0.081
38.96,-0.006,0.955,0.155
38.97,-0.342,1.357,-0.01
38.98,-0.148,0.694,-0.125
38.99,-0.346,0.604,0.013
39.0,-0.034,1.255,0.132
39.01,-0.13,0.834,-0.013
39.02,-0.359,0.862,-0.162
39.03,-0.235,0.825,0.039
39.04,-0.292,1.172,0.14
39.05,-0.133,0.845,-0.023
39.06,-0.319,0.857,-0.125
39.07,-0.188,1.424,0.104
39.08,-0.092,0.815,0.187
39.09,-0.139,0.949,0.006
39.1,-0.433,0.365,-0.22
39.11,-0.16,1.987,0.073
39.12,-0.075,0.515,0.073
39.13,-0.131,1.077,-0.011
39.14,-0.454,0.209,-0.183
39.15,-0.187,1.97,0.077
39.16,-0.199,0.656,0.03
39.17,-0.023,0.648,-0.057
39.18,-0.521,0.628,-0.18
39.19,-0.027,1.606,0.162
39.2,-0.185,1.212,0.088
39.21,0.05,0.404,-0.054
39.22,-0.486,0.791,-0.118
39.23,-0.019,1.591,0.151
39.24,-0.219,1.138,0.034
39.25,0.006,0.814,-0.07
39.26,-0.403,0.335,-0.139
39.27,-0.127,1.826,0.167
39.28,-0.079,0.869,0.022
39.29,-0.165,0.932,-0.109
39.3,-0.308,0.256,-0.058
39.31,-0.216,1.476,0.161
39.32,-0.184,0.955,-0.012
39.33,-0.198,0.881,-0.142
39.34,-0.336,0.743,-0.072
39.35,-0.066,0.931,0.197
39.36,-0.316,1.376,0.026
39.37,-0.195,0.414,-0.112
39.38,-0.389,1.138,-0.06
39.39,0.03,0.772,0.112
39.4,-0.365,1.344,-0.053
39.41,-0.106,0.529,-0.065
39.42,-0.315,1.267,-0.032
39.43,-0.117,1.049,0.171
39.44,-0.183,0.783,0.018
39.45,-0.455,1.047,-0.141
39.46,-0.232,1.127,0.096
39.47,-0.273,1.076,0.179
39.48,-0.187,0.857,-0.002
39.49,-0.352,0.653,-0.15
39.5,-0.178,1.663,0.104
39.51,-0.126,0.576,0.102
39.52,-0.172,1.019,-0.009
39.53,-0.375,0.147,-0.179
39.54,-0.129,2.0,0.061
39.55,-0.06,0.543,0.074
39.56,-0.072,0.894,-0.051
39.57,-0.458,0.315,-0.174
39.58,-0.015,1.849,0.141
39.59,-0.18,0.973,0.06
39.6,0.018,0.42,-0.097
39.61,-0.451,0.803,-0.183
39.62,0.02,1.579,0.16
39.63,-0.22,1.27,0.008
39.64,0.044,0.567,-0.062
39.65,-0.396,0.636,-0.133
39.66,-0.094,1.623,0.121
39.67,-0.178,1.089,0.059
39.68,-0.138,0.968,-0.125
39.69,-0.412,0.143,-0.027
39.7,-0.278,1.644,0.258
39.71,-0.21,0.912,0.057
39.72,-0.291,0.926,-0.089
39.73,-0.333,0.435,-0.022
39.74,-0.185,1.173,0.208
39.75,-0.313,1.205,-0.054
39.76,-0.211,0.491,-0.09
39.77,-0.15,1.362,-0.038
39.78,-0.013,0.729,0.144
39.79,-0.293,1.374,-0.034
39.8,-0.2,0.406,-0.165
39.81,-0.227,1.573,0.029
39.82,-0.126,0.837,0.135
39.83,-0.268,1.073,0.012
39.84,-0.368,0.404,-0.233
39.85,-0.156,1.745,0.055
39.86,-0.129,0.868,0.108
39.87,-0.011,0.478,-0.041
39.88,-0.559,0.799,-0.192
39.89,-0.007,1.559,0.117
39.9,-0.2,1.145,0.099
39.91,0.117,0.496,-0.025
39.92,-0.564,0.64,-0.135
39.93,-0.005,1.879,0.14
39.94,-0.095,0.804,0.001
39.95,-0.105,0.894,-0.097
39.96,-0.27,0.153,-0.191
39.97,-0.244,1.928,0.081
39.98,-0.051,0.816,0.049
39.99,-0.196,0.971,-0.086
40.0,-0.264,0.343,-0.137
40.01,-0.234,1.342,0.16
40.02,-0.269,1.241,0.026
40.03,-0.117,0.573,-0.109
40.04,-0.427,0.887,-0.055
40.05,-0.092,0.939,0.201
40.06,-0.364,1.537,0.03
40.07,-0.084,0.46,-0.087
40.08,-0.37,0.947,-0.04
40.09,0.032,0.977,0.134
40.1,-0.166,1.065,-0.128
40.11,-0.234,0.893,-0.197
40.12,-0.253,1.077,-0.059
40.13,-0.112,1.195,0.117
40.14,-0.194,0.662,0.009
40.15,-0.445,0.935,-0.141
40.16,-0.38,1.337,0.138
40.17,-0.21,0.858,0.199
40.18,-0.259,1.043,0.016
40.19,-0.328,0.382,-0.144
40.2,-0.305,1.904,0.123
40.21,-0.061,0.436,0.104
40.22,-0.17,1.201,0.017
40.23,-0.434,0.197,-0.156
40.24,-0.107,2.0,0.058
40.25,-0.071,0.789,0.096
40.26,0.006,0.641,-0.039
40.27,-0.516,0.607,-0.168
40.28,-0.006,1.729,0.155
40.29,-0.251,1.112,0.028
40.3,0.072,0.325,-0.1
40.31,-0.442,0.851,-0.203
40.32,0.001,1.623,0.15
40.33,-0.111,1.075,0.042
40.34,0.005,0.597,-0.102
40.35,-0.355,0.41,-0.109
40.36,-0.26,1.695,0.141
40.37,-0.095,0.777,0.041
40.38,-0.228,1.116,-0.107
40.39,-0.26,0.178,-0.065
40.4,-0.311,1.56,0.202
40.41,-0.126,1.012,0.046
40.42,-0.205,0.814,-0.089
40.43,-0.437,0.641,-0.045
40.44,-0.124,1.028,0.231
40.45,-0.337,1.53,-0.005
40.46,0.005,0.382,-0.088
40.47,-0.35,1.17,-0.079
40.48,0.001,0.833,0.153
40.49,-0.311,1.318,-0.041
40.5,-0.308,0.635,-0.124
40.51,-0.226,0.948,0.011
40.52,-0.11,1.131,0.117
40.53,-0.15,0.775,0.012
40.54,-0.375,0.991,-0.132
40.55,-0.211,1.073,0.034
40.56,-0.234,1.087,0.194
40.57,-0.196,0.842,-0.031
40.58,-0.361,0.642,-0.144
40.59,-0.204,1.698,0.091
40.6,-0.106,0.638,0.22
40.61,-0.165,0.998,-0.019
40.62,-0.442,0.197,-0.18
40.63,-0.105,2.0,0.129
40.64,-0.049,0.592,0.064
40.65,-0.089,0.974,-0.031
40.66,-0.399,0.171,-0.089
40.67,-0.148,2.0,0.215
40.68,-0.028,0.72,-0.007
40.69,-0.002,0.615,-0.1
40.7,-0.355,0.598,-0.21
40.71,-0.007,1.535,0.077
40.72,-0.227,1.367,0.006
40.73,0.011,0.472,-0.094
40.74,-0.432,0.802,-0.169
40.75,-0.034,1.329,0.153
40.76,-0.279,1.303,-0.0
40.77,-0.148,0.771,-0.101
40.78,-0.4,0.359,-0.044
40.79,-0.235,1.529,0.249
40.8,-0.208,0.98,0.074
40.81,-0.215,1.009,-0.119
40.82,-0.358,0.257,-0.01
40.83,-0.096,1.359,0.141
40.84,-0.272,1.039,-0.012
40.85,-0.174,0.728,-0.136
40.86,-0.153,1.116,-0.078
40.87,0.001,0.863,0.117
40.88,-0.266,1.346,-0.062
40.89,-0.199,0.379,-0.181
40.9,-0.297,1.499,0.012
40.91,-0.08,0.708,0.15
40.92,-0.246,1.226,-0.045
40.93,-0.394,0.518,-0.158
40.94,-0.158,1.492,0.115
40.95,-0.216,0.961,0.137
40.96,-0.085,0.693,-0.036
40.97,-0.456,0.891,-0.199
40.98,0.031,1.526,0.045
40.99,-0.093,1.063,0.106
41.0,0.052,0.505,0.005
41.01,-0.545,0.636,-0.159
41.02,-0.046,1.87,0.086
41.03,-0.178,0.734,0.089
41.04,-0.04,0.832,-0.05
41.05,-0.44,0.173,-0.14
41.06,-0.125,2.0,0.225
41.07,-0.102,0.613,0.1
41.08,-0.11,0.839,-0.046
41.09,-0.409,0.345,-0.155
41.1,-0.126,1.754,0.149
41.11,-0.195,1.122,0.044
41.12,0.038,0.602,-0.105
41.13,-0.402,0.807,-0.159
41.14,-0.032,1.342,0.143
41.15,-0.28,1.48,0.044
41.16,-0.029,0.505,-0.079
41.17,-0.451,0.672,-0.08
41.18,-0.15,1.305,0.224
41.19,-0.24,1.125,0.052
41.2,-0.209,0.909,-0.117
41.21,-0.37,0.267,0.02
41.22,-0.191,1.404,0.187
41.23,-0.196,0.859,-0.018
41.24,-0.254,1.032,-0.136
41.25,-0.255,0.646,-0.034
41.26,-0.064,1.089,0.179
41.27,-0.311,1.153,-0.025
41.28,-0.244,0.525,-0.157
41.29,-0.364,1.672,0.047
41.3,-0.072,0.624,0.176
41.31,-0.389,1.357,0.021
41.32,-0.222,0.334,-0.151
41.33,-0.438,1.713,0.104
41.34,-0.082,0.7,0.119
41.35,-0.182,0.886,-0.03
41.36,-0.383,0.693,-0.278
41.37,-0.088,1.483,0.039
41.38,-0.188,0.972,0.066
41.39,0.048,0.527,0.032
41.4,-0.619,0.81,-0.171
41.41,0.033,1.62,0.07
41.42,-0.172,0.982,0.061
41.43,0.034,0.623,-0.047
41.44,-0.494,0.621,-0.151
41.45,0.003,1.878,0.133
41.46,-0.114,0.88,0.022
41.47,-0.049,0.876,-0.124
41.48,-0.303,0.176,-0.169
41.49,-0.223,1.974,0.126
41.5,-0.132,0.751,0.021
41.51,-0.09,1.028,-0.087
41.52,-0.337,0.332,-0.112
41.53,-0.173,1.465,0.201
41.54,-0.288,1.264,0.026
41.55,-0.047,0.594,-0.14
41.56,-0.538,0.863,-0.069
41.57,-0.08,0.963,0.222
41.58,-0.334,1.51,0.04
41.59,-0.131,0.453,-0.066
41.6,-0.375,0.903,-0.031
41.61,0.007,1.002,0.162
41.62,-0.247,1.105,-0.077
41.63,-0.217,0.818,-0.159
41.64,-0.149,0.906,-0.083
41.65,-0.116,1.232,0.137
41.66,-0.168,0.724,-0.005
41.67,-0.368,1.03,-0.156
41.68,-0.301,1.25,0.053
41.69,-0.155,0.929,0.171
41.7,-0.22,1.035,-0.016
41.71,-0.192,0.399,-0.174
41.72,-0.255,1.941,0.085
41.73,0.052,0.54,0.144
41.74,-0.235,1.1,0.037
41.75,-0.412,0.191,-0.155
41.76,-0.285,2.0,0.059
41.77,-0.167,0.577,0.056
41.78,-0.122,0.842,-0.009
41.79,-0.427,0.654,-0.234
41.8,-0.152,1.459,0.098
41.81,-0.282,0.979,0.045
41.82,-0.012,0.453,-0.013
41.83,-0.526,0.785,-0.127
41.84,0.01,1.609,0.101
41.85,-0.096,1.057,0.098
41.86,-0.026,0.608,-0.066
41.87,-0.424,0.341,-0.114
41.88,-0.065,1.971,0.126
41.89,-0.015,0.759,0.065
41.9,-0.175,1.034,-0.072
41.91,-0.296,0.128,-0.148
41.92,-0.134,2.0,0.148
41.93,-0.16,0.932,0.048
41.94,-0.103,0.797,-0.078
41.95,-0.402,0.576,-0.184
41.96,-0.169,1.184,0.162
41.97,-0.334,1.484,0.046
41.98,-0.104,0.449,-0.082
41.99,-0.529,0.867,0.004
42.0,-0.144,0.942,0.25
42.01,-0.312,1.257,0.047
42.02,-0.17,0.632,-0.116
42.03,-0.31,0.668,-0.056
42.04,-0.13,1.251,0.188
42.05,-0.192,0.898,0.0
42.06,-0.257,0.923,-0.078
42.07,-0.285,0.627,0.015
42.08,-0.039,1.206,0.163
42.09,-0.225,0.919,-0.053
42.1,-0.203,0.82,-0.178
42.11,-0.243,1.433,-0.057
42.12,-0.077,0.824,0.115
42.13,-0.274,1.245,-0.016
42.14,-0.176,0.302,-0.137
42.15,-0.435,1.892,0.018
42.16,-0.067,0.58,0.187
42.17,-0.31,1.223,0.028
42.18,-0.292,0.334,-0.213
42.19,-0.236,1.713,0.067
42.2,-0.144,0.843,0.109
42.21,0.019,0.603,-0.011
42.22,-0.518,0.863,-0.251
42.23,-0.058,1.473,0.022
42.24,-0.269,0.974,0.155
42.25,0.104,0.374,-0.011
42.26,-0.562,0.847,-0.118
42.27,-0.019,1.646,0.186
42.28,-0.22,1.013,0.09
42.29,0.013,0.635,-0.068
42.3,-0.386,0.358,-0.152
42.31,-0.167,1.872,0.108
42.32,-0.17,0.83,0.12
42.33,-0.214,0.997,-0.078
42.34,-0.242,0.129,-0.12
42.35,-0.232,1.75,0.154
42.36,-0.116,0.932,0.1
42.37,-0.106,0.854,-0.145
42.38,-0.383,0.598,-0.164
42.39,-0.003,1.359,0.166
42.4,-0.362,1.43,0.072
42.41,-0.055,0.359,-0.135
42.42,-0.475,0.928,-0.086
42.43,0.017,1.024,0.094
42.44,-0.318,1.332,-0.01
42.45,-0.132,0.717,-0.15
42.46,-0.34,0.598,0.002
42.47,-0.091,1.205,0.163
42.48,-0.17,0.872,-0.018
42.49,-0.302,1.06,-0.138
42.5,-0.298,0.365,-0.047
42.51,-0.155,1.229,0.211
42.52,-0.166,1.016,-0.0
42.53,-0.256,0.751,-0.127
42.54,-0.182,1.457,-0.029
42.55,-0.056,0.78,0.122
42.56,-0.187,1.184,-0.019
42.57,-0.321,0.397,-0.215
42.58,-0.303,1.823,-0.023
42.59,-0.04,0.637,0.122
42.6,-0.233,1.132,-0.005
42.61,-0.356,0.405,-0.279
42.62,-0.313,1.63,0.044
42.63,-0.225,0.896,0.153
42.64,-0.129,0.667,0.018
42.65,-0.439,0.752,-0.159
42.66,-0.052,1.449,0.049
42.67,-0.203,1.113,0.132
42.68,-0.01,0.459,0.037
42.69,-0.453,0.619,-0.175
42.7,-0.098,1.83,0.053
42.71,-0.185,0.632,0.014
42.72,-0.039,0.951,-0.052
42.73,-0.437,0.226,-0.177
42.74,-0.3,2.0,0.201
42.75,-0.14,0.46,0.043
42.76,-0.123,0.99,0.011
42.77,-0.441,0.291,-0.159
42.78,-0.111,1.819,0.137
42.79,-0.113,1.063,0.092
42.8,0.052,0.545,-0.055
42.81,-0.431,0.786,-0.146
42.82,0.036,1.488,0.163
42.83,-0.134,0.87,0.005
42.84,-0.417,0.263,-0.154
42.85,-0.225,2.0,0.107
42.86,-0.149,0.5,0.082
42.87,-0.091,1.057,-0.032
42.88,-0.532,0.21,-0.185
42.89,-0.16,1.99,0.092
42.9,-0.287,0.725,0.137
42.91,-0.069,0.532,-0.013
42.92,-0.52,0.635,-0.137
42.93,-0.034,1.608,0.193
42.94,-0.16,1.224,0.13
42.95,0.062,0.358,-0.057
42.96,-0.542,0.812,-0.141
42.97,-0.005,1.337,0.166
42.98,-0.237,1.383,0.011
42.99,-0.065,0.584,-0.098
43.0,-0.403,0.632,-0.192
43.01,-0.056,1.507,0.111
43.02,-0.228,1.073,0.099
43.03,-0.155,0.962,-0.116
43.04,-0.409,0.17,-0.085
43.05,-0.259,1.549,0.218
43.06,-0.245,0.932,0.049
43.07,-0.166,0.895,-0.102
43.08,-0.349,0.55,-0.106
43.09,-0.105,1.103,0.151
43.1,-0.302,1.294,-0.006
43.11,-0.157,0.498,-0.143
43.12,-0.365,1.066,-0.075
43.13,0.047,0.815,0.153
43.14,-0.26,1.466,-0.031
43.15,-0.123,0.48,-0.16
43.16,-0.263,1.248,-0.025
43.17,-0.064,0.902,0.102
43.18,-0.176,0.985,-0.059
43.19,-0.318,0.882,-0.161
43.2,-0.233,1.196,0.004
43.21,-0.156,1.12,0.131
43.22,-0.112,0.724,0.025
43.23,-0.402,0.886,-0.199
43.24,-0.21,1.379,0.056
43.25,-0.122,0.811,0.103
43.26,-0.118,1.003,-0.056
43.27,-0.312,0.334,-0.197
43.28,-0.178,2.0,0.034
43.29,-0.036,0.49,0.081
43.3,-0.171,1.04,0.004
43.31,-0.349,0.175,-0.221
43.32,-0.129,2.0,0.011
43.33,-0.142,0.654,0.043
43.34,0.003,0.667,-0.038
43.35,-0.54,0.667,-0.213
43.36,-0.023,1.604,0.165
43.37,-0.267,1.168,0.055
43.38,0.068,0.362,-0.041
43.39,-0.484,0.793,-0.18
43.4,-0.006,1.687,0.183
43.41,-0.182,1.04,0.06
43.42,-0.002,0.742,-0.073
43.43,-0.418,0.319,-0.135
43.44,-0.073,1.958,0.173
43.45,-0.099,0.756,0.068
43.46,-0.136,1.016,-0.056
43.47,-0.299,0.186,-0.151
43.48,-0.169,1.778,0.155
43.49,-0.183,1.043,0.032
43.5,-0.148,0.732,-0.116
43.51,-0.345,0.643,-0.164
43.52,-0.074,1.138,0.166
43.53,-0.318,1.465,0.026
43.54,0.013,0.434,-0.09
43.55,-0.515,0.935,-0.075
43.56,-0.025,0.946,0.246
43.57,-0.272,1.319,0.026
43.58,-0.199,0.705,-0.077
43.59,-0.275,0.665,-0.032
43.6,-0.107,1.252,0.168
43.61,-0.081,0.848,-0.033
43.62,-0.218,1.005,-0.158
43.63,-0.157,0.885,-0.083
43.64,-0.049,1.201,0.153
43.65,-0.175,0.852,-0.036
43.66,-0.281,0.802,-0.157
43.67,-0.288,1.427,-0.015
43.68,-0.102,0.785,0.176
43.69,-0.302,1.304,-0.006
43.7,-0.114,0.24,-0.157
43.71,-0.402,1.903,0.053
43.72,-0.044,0.554,0.141
43.73,-0.167,1.12,-0.028
43.74,-0.374,0.498,-0.179
43.75,-0.243,1.683,0.066
43.76,-0.204,0.892,0.109
43.77,-0.064,0.708,-0.025
43.78,-0.476,0.647,-0.204
43.79,-0.056,1.554,0.08
43.8,-0.291,1.033,0.076
43.81,0.029,0.447,0.014
43.82,-0.591,0.799,-0.133
43.83,-0.001,1.66,0.202
43.84,-0.181,0.953,0.08
43.85,0.07,0.719,-0.072
43.86,-0.485,0.303,-0.135
43.87,-0.094,1.932,0.131
43.88,-0.124,0.782,0.111
43.89,-0.175,1.031,-0.036
43.9,-0.377,0.165,-0.114
43.91,-0.168,1.837,0.174
43.92,-0.152,0.998,0.025
43.93,-0.063,0.693,-0.111
43.94,-0.467,0.689,-0.15
43.95,-0.138,1.199,0.218
43.96,-0.343,1.42,0.056
43.97,-0.045,0.389,-0.057
43.98,-0.429,0.951,-0.021
43.99,-0.125,0.977,0.218
44.0,-0.251,1.252,-0.001
44.01,-0.167,0.741,-0.058
44.02,-0.328,0.526,-0.049
44.03,-0.101,1.283,0.196
44.04,-0.209,0.933,0.115
44.05,-0.331,0.958,-0.079
44.06,-0.247,0.49,0.007
44.07,-0.109,1.23,0.179
44.08,-0.197,1.037,-0.012
44.09,-0.188,0.672,-0.133
44.1,-0.272,1.397,-0.029
44.11,-0.074,0.788,0.147
44.12,-0.322,1.324,-0.009
44.13,-0.239,0.311,-0.171
44.14,-0.323,1.785,0.05
44.15,-0.098,0.656,0.147
44.16,-0.273,1.138,-0.042
44.17,-0.326,0.446,-0.171
44.18,-0.234,1.561,0.098
44.19,-0.174,0.92,0.17
44.2,-0.069,0.564,-0.015
44.21,-0.532,0.834,-0.225
44.22,0.016,1.512,0.019
44.23,-0.27,0.971,0.111
44.24,0.054,0.578,-0.008
44.25,-0.646,0.606,-0.172
44.26,-0.086,1.853,0.142
44.27,-0.101,0.691,0.133
44.28,0.011,0.942,-0.029
44.29,-0.476,0.185,-0.173
44.3,-0.203,2.0,0.242
44.31,-0.118,0.67,0.089
44.32,-0.061,0.982,-0.017
44.33,-0.423,0.337,-0.15
44.34,-0.003,1.83,0.215
44.35,-0.236,1.149,0.003
44.36,0.086,0.504,-0.057
44.37,-0.405,0.829,-0.222
44.38,0.067,1.557,0.139
44.39,-0.253,1.345,0.016
44.4,-0.001,0.521,-0.084
44.41,-0.403,0.631,-0.166
44.42,-0.037,1.59,0.133
44.43,-0.116,1.096,-0.063
44.44,-0.134,0.963,-0.155
44.45,-0.391,0.146,-0.056
44.46,-0.247,1.633,0.248
44.47,-0.26,0.919,0.082
44.48,-0.18,0.978,-0.064
44.49,-0.415,0.428,-0.038
44.5,-0.075,1.191,0.19
44.51,-0.359,1.254,0.074
44.52,-0.128,0.537,-0.13
44.53,-0.233,1.238,-0.064
44.54,0.002,0.772,0.144
44.55,-0.307,1.413,-0.021
44.56,-0.173,0.437,-0.159
44.57,-0.245,1.421,-0.035
44.58,-0.112,0.648,0.123
44.59,-0.241,1.126,-0.046
44.6,-0.336,0.477,-0.231
44.61,-0.184,1.6,0.087
44.62,-0.108,0.906,0.101
44.63,-0.047,0.529,-0.01
44.64,-0.528,0.803,-0.215
44.65,0.036,1.595,0.006
44.66,-0.189,1.03,0.125
44.67,0.01,0.543,0.013
44.68,-0.611,0.591,-0.178
44.69,-0.078,1.856,0.16
44.7,-0.17,0.738,0.094
44.71,-0.11,0.851,-0.009
44.72,-0.424,0.187,-0.16
44.73,-0.147,2.0,0.173
44.74,-0.088,0.689,0.089
44.75,-0.111,0.932,-0.037
44.76,-0.462,0.367,-0.129
44.77,-0.084,1.672,0.166
44.78,-0.282,1.219,0.086
44.79,0.015,0.549,-0.065
44.8,-0.531,0.839,-0.116
44.81,0.048,1.37,0.185
44.82,-0.281,1.406,0.022
44.83,-0.055,0.55,-0.104
44.84,-0.47,0.618,-0.094
44.85,-0.167,1.408,0.2
44.86,-0.253,1.127,0.063
44.87,-0.106,0.911,-0.133
44.88,-0.263,0.315,-0.077
44.89,-0.171,1.428,0.141
44.9,-0.156,0.866,-0.007
44.91,-0.348,0.955,-0.125
44.92,-0.135,0.712,-0.05
44.93,-0.117,1.065,0.129
44.94,-0.214,1.165,-0.061
44.95,-0.241,0.522,-0.11
44.96,-0.319,1.467,-0.014
44.97,-0.076,0.692,0.18
44.98,-0.271,1.437,0.004
44.99,-0.209,0.333,-0.149
45.0,-0.315,1.656,-0.015
45.01,-0.073,0.788,0.136
45.02,-0.176,0.875,-0.035
45.03,-0.376,0.794,-0.211
45.04,-0.203,1.355,0.016
45.05,-0.243,1.046,0.154
45.06,-0.085,0.563,0.024
45.07,-0.538,0.835,-0.184
45.08,-0.124,1.516,0.072
45.09,-0.231,0.782,0.083
45.1,-0.074,0.84,-0.037
45.11,-0.443,0.34,-0.176
45.12,-0.046,2.0,0.043
45.13,-0.021,0.575,0.055
45.14,-0.096,0.956,-0.018
45.15,-0.473,0.114,-0.148
45.16,-0.12,2.0,0.198
45.17,-0.154,0.796,0.08
45.18,-0.112,0.667,-0.009
45.19,-0.441,0.604,-0.162
45.2,-0.036,1.658,0.172
45.21,-0.24,1.239,0.01
45.22,0.085,0.405,-0.056
45.23,-0.468,0.835,-0.191
45.24,-0.042,1.488,0.189
45.25,-0.308,1.277,0.07
45.26,-0.085,0.723,-0.036
45.27,-0.424,0.403,-0.075
45.28,-0.196,1.572,0.188
45.29,-0.136,0.917,0.025
45.3,-0.187,1.104,-0.123
45.31,-0.306,0.203,-0.04
45.32,-0.236,1.469,0.228
45.33,-0.156,1.031,-0.015
45.34,-0.187,0.808,-0.113
45.35,-0.302,0.779,-0.074
45.36,-0.103,0.93,0.166
45.37,-0.306,1.456,-0.026
45.38,-0.165,0.488,-0.135
45.39,-0.32,1.737,-0.033
45.4,-0.038,0.637,0.111
45.41,-0.33,1.304,0.073
45.42,-0.22,0.31,-0.15
45.43,-0.339,1.699,0.044
45.44,-0.158,0.801,0.129
45.45,-0.225,0.904,-0.044
45.46,-0.353,0.64,-0.169
45.47,-0.125,1.378,0.074
45.48,-0.287,0.995,0.052
45.49,-0.05,0.658,-0.042
45.5,-0.355,0.846,-0.177
45.51,0.017,1.587,0.032
45.52,-0.095,0.896,0.108
45.53,-0.01,0.694,-0.039
45.54,-0.467,0.379,-0.157
45.55,-0.148,2.0,0.118
45.56,-0.096,0.503,0.1
45.57,-0.151,0.957,-0.057
45.58,-0.452,0.171,-0.118
45.59,-0.124,2.0,0.219
45.6,-0.156,0.927,0.119
45.61,-0.059,0.66,-0.07
45.62,-0.417,0.625,-0.16
45.63,0.0,1.433,0.119
45.64,-0.287,1.397,0.074
45.65,-0.034,0.498,-0.109
45.66,-0.552,0.816,-0.104
45.67,-0.025,1.328,0.212
45.68,-0.329,1.31,0.038
45.69,-0.056,0.738,-0.09
45.7,-0.486,0.42,-0.034
45.71,-0.192,1.438,0.189
45.72,-0.228,0.909,-0.046
45.73,-0.205,1.047,-0.15
45.74,-0.334,0.284,-0.008
45.75,-0.094,1.292,0.169
45.76,-0.166,1.0,0.043
45.77,-0.16,0.787,-0.17
45.78,-0.311,0.968,-0.1
45.79,-0.016,0.836,0.115
45.8,-0.371,1.453,-0.072
45.81,-0.096,0.311,-0.128
45.82,-0.327,1.648,-0.022
45.83,0.008,0.736,0.104
45.84,-0.23,1.197,-0.067
45.85,-0.285,0.614,-0.224
45.86,-0.239,1.501,0.094
45.87,-0.194,0.938,0.172
45.88,-0.069,0.611,0.011
45.89,-0.56,0.885,-0.145
45.9,-0.035,1.593,0.06
45.91,-0.197,1.052,0.11
45.92,0.029,0.415,-0.025
45.93,-0.539,0.79,-0.211
45.94,-0.032,1.634,0.186
45.95,-0.191,1.068,0.11
45.96,-0.002,0.713,-0.037
45.97,-0.413,0.345,-0.122
45.98,-0.114,1.994,0.123
45.99,-0.026,0.736,0.029
46.0,-0.095,1.064,-0.107
46.01,-0.3,0.123,-0.167
46.02,-0.079,1.788,0.153
46.03,-0.223,1.051,0.024
46.04,-0.064,0.729,-0.123
46.05,-0.441,0.661,-0.125
46.06,-0.083,1.145,0.248
46.07,-0.375,1.457,0.044
46.08,-0.028,0.442,-0.121
46.09,-0.384,0.926,-0.112
46.1,0.071,0.971,0.131
46.11,-0.227,1.366,-0.055
46.12,-0.141,0.662,-0.176
46.13,-0.196,0.765,-0.073
46.14,-0.063,1.216,0.124
46.15,-0.165,0.808,0.032
46.16,-0.389,0.981,-0.146
46.17,-0.189,0.926,0.005
46.18,-0.176,1.094,0.158
46.19,-0.142,0.708,0.005
46.2,-0.414,0.836,-0.149
46.21,-0.18,1.494,0.083
46.22,-0.168,0.778,0.149
46.23,-0.107,0.901,-0.02
46.24,-0.436,0.293,-0.128
46.25,-0.195,2.0,0.068
46.26,-0.125,0.469,0.113
46.27,-0.213,1.016,0.013
46.28,-0.466,0.15,-0.139
46.29,-0.135,2.0,0.166
46.3,-0.103,0.768,0.066
46.31,-0.044,0.539,-0.068
46.32,-0.487,0.686,-0.19
46.33,-0.074,1.543,0.189
46.34,-0.233,1.313,0.1
46.35,0.005,0.464,-0.044
46.36,-0.43,0.784,-0.175
46.37,-0.015,1.588,0.133
46.38,-0.106,1.148,0.016
46.39,-0.04,0.827,-0.085
46.4,-0.385,0.286,-0.113
46.41,-0.151,1.7,0.16
46.42,-0.167,0.94,0.093
46.43,-0.149,1.035,-0.132
46.44,-0.391,0.198,-0.037
46.45,-0.245,1.505,0.225
46.46,-0.229,1.13,0.022
46.47,-0.154,0.693,-0.136
46.48,-0.328,0.756,-0.087
46.49,-0.094,0.937,0.189
46.5,-0.319,1.547,-0.001
46.51,-0.139,0.348,-0.073
46.52,-0.395,1.211,-0.022
46.53,0.006,0.858,0.148
46.54,-0.217,1.252,-0.025
46.55,-0.301,0.64,-0.155
46.56,-0.177,1.087,0.018
46.57,-0.158,1.145,0.127
46.58,-0.092,0.733,-0.048
46.59,-0.279,0.964,-0.166
46.6,-0.224,1.228,0.042
46.61,-0.199,0.976,0.177
46.62,-0.14,0.769,0.003
46.63,-0.394,0.514,-0.223
46.64,-0.135,1.825,0.026
46.65,-0.051,0.593,0.058
46.66,-0.2,1.021,-0.013
46.67,-0.378,0.163,-0.174
46.68,-0.212,2.0,0.073
46.69,-0.08,0.524,0.114
46.7,-0.145,0.889,-0.019
46.71,-0.517,0.404,-0.172
46.72,-0.117,1.783,0.166
46.73,-0.223,1.093,0.094
46.74,-0.028,0.396,-0.038
46.75,-0.554,0.818,-0.076
46.76,-0.056,1.584,0.245
46.77,-0.249,1.193,0.039
46.78,0.021,0.576,-0.015
46.79,-0.494,0.61,-0.188
46.8,-0.076,1.712,0.191
46.81,-0.199,0.976,0.066
46.82,-0.116,0.979,-0.121
46.83,-0.317,0.11,-0.132
46.84,-0.244,1.658,0.206
46.85,-0.194,0.926,0.006
46.86,-0.283,0.955,-0.097
46.87,-0.343,0.488,-0.033
46.88,-0.141,1.171,0.24
46.89,-0.243,1.295,0.001
46.9,-0.11,0.523,-0.149
46.91,-0.302,1.119,-0.11
46.92,0.076,0.772,0.082
46.93,-0.288,1.454,-0.057
46.94,-0.186,0.373,-0.13
46.95,-0.189,1.446,-0.077
46.96,-0.18,0.952,0.141
46.97,-0.15,0.875,0.013
46.98,-0.33,0.9,-0.149
46.99,-0.276,1.221,0.073
47.0,-0.172,0.954,0.116
47.01,-0.089,0.603,0.019
47.02,-0.487,0.835,-0.209
47.03,0.008,1.478,-0.006
47.04,-0.229,0.95,0.085
47.05,-0.03,0.645,-0.011
47.06,-0.466,0.476,-0.198
47.07,-0.034,1.975,0.097
47.08,-0.083,0.667,0.063
47.09,-0.118,0.909,-0.04
47.1,-0.35,0.062,-0.133
47.11,-0.176,2.0,0.209
47.12,-0.135,0.65,0.08
47.13,-0.159,0.75,-0.053
47.14,-0.378,0.419,-0.171
47.15,-0.101,1.701,0.143
47.16,-0.243,1.24,0.032
47.17,0.09,0.472,-0.083
47.18,-0.535,0.895,-0.114
47.19,-0.004,1.045,0.151
47.2,-0.377,1.408,0.044
47.21,-0.104,0.577,-0.115
47.22,-0.413,0.647,-0.062
47.23,-0.142,1.2,0.21
47.24,-0.185,1.041,0.054
47.25,-0.271,1.002,-0.139
47.26,-0.234,0.36,-0.079
47.27,-0.145,1.308,0.147
47.28,-0.158,0.93,-0.023
47.29,-0.271,0.914,-0.126
47.3,-0.192,1.206,0.006
47.31,-0.169,0.893,0.163
47.32,-0.219,1.158,-0.022
47.33,-0.26,0.438,-0.153
47.34,-0.364,1.788,0.075
47.35,-0.086,0.583,0.155
47.36,-0.277,1.239,-0.018
47.37,-0.308,0.317,-0.193
47.38,-0.322,1.693,0.119
47.39,-0.121,0.793,0.084
47.4,-0.134,0.711,-0.014
47.41,-0.42,0.687,-0.22
47.42,0.007,1.542,0.072
47.43,-0.149,1.161,0.133
47.44,-0.006,0.326,-0.033
47.45,-0.588,0.708,-0.163
47.46,-0.026,1.749,0.154
47.47,-0.209,0.913,0.064
47.48,-0.1,0.718,-0.067
47.49,-0.43,0.27,-0.084
47.5,-0.112,2.0,0.183
47.51,-0.099,0.671,0.097
47.52,-0.06,1.027,-0.084
47.53,-0.374,0.189,-0.143
47.54,-0.128,1.767,0.102
47.55,-0.234,1.089,0.049
47.56,-0.086,0.666,-0.117
47.57,-0.446,0.705,-0.067
47.58,-0.112,1.128,0.198
47.59,-0.349,1.563,0.072
47.6,-0.015,0.44,-0.076
47.61,-0.419,0.915,-0.067
47.62,-0.059,0.952,0.174
47.63,-0.213,1.329,-0.076
47.64,-0.205,0.71,-0.134
47.65,-0.125,0.833,-0.035
47.66,-0.117,1.219,0.11
47.67,-0.115,0.747,0.007
47.68,-0.38,1.103,-0.152
47.69,-0.137,1.077,-0.035
47.7,-0.189,1.013,0.139
47.71,-0.183,0.906,-0.068
47.72,-0.283,0.566,-0.19
47.73,-0.302,1.727,0.124
47.74,-0.069,0.561,0.096
47.75,-0.222,1.197,-0.059
47.76,-0.284,0.109,-0.184
47.77,-0.124,2.0,0.065
47.78,-0.077,0.608,0.159
47.79,-0.044,0.789,-0.03
47.8,-0.586,0.243,-0.139
47.81,-0.093,1.899,0.186
47.82,-0.205,1.009,0.087
47.83,-0.009,0.547,-0.089
47.84,-0.457,0.774,-0.214
47.85,0.018,1.478,0.11
47.86,-0.284,1.437,0.054
47.87,-0.017,0.447,-0.016
47.88,-0.457,0.711,-0.1
47.89,-0.112,1.293,0.151
47.9,-0.269,1.246,0.059
47.91,-0.143,0.977,-0.143
47.92,-0.257,0.238,-0.019
47.93,-0.238,1.665,0.177
47.94,-0.027,0.98,0.033
47.95,-0.228,1.038,-0.135
47.96,-0.367,0.38,-0.012
47.97,-0.148,1.241,0.137
47.98,-0.282,1.135,-0.047
47.99,-0.111,0.602,-0.105
48.0,-0.23,1.51,-0.05
48.01,0.006,0.721,0.098
48.02,-0.367,1.305,-0.053
48.03,-0.305,0.36,-0.173
48.04,-0.288,1.558,0.072
48.05,-0.165,0.762,0.149
48.06,-0.24,0.998,0.007
48.07,-0.408,0.682,-0.215
48.08,-0.075,1.425,0.104
48.09,-0.173,1.03,0.169
48.1,0.009,0.481,-0.037
48.11,-0.606,0.824,-0.231
48.12,-0.009,1.629,0.07
48.13,-0.143,1.027,0.122
48.14,-0.002,0.587,-0.006
48.15,-0.549,0.43,-0.143
48.16,-0.093,1.982,0.18
48.17,-0.035,0.697,0.124
48.18,-0.109,0.963,-0.033
48.19,-0.326,0.146,-0.131
48.2,-0.23,1.974,0.128
48.21,-0.066,0.861,0.092
48.22,-0.19,0.765,-0.066
48.23,-0.365,0.521,-0.169
48.24,-0.129,1.412,0.121
48.25,-0.274,1.431,0.065
48.26,0.032,0.458,-0.104
48.27,-0.541,0.855,-0.093
48.28,-0.042,1.082,0.198
48.29,-0.336,1.345,0.016
48.3,-0.107,0.644,-0.094
48.31,-0.385,0.522,-0.096
48.32,-0.175,1.332,0.185
48.33,-0.16,1.043,0.014
48.34,-0.287,1.031,-0.124
48.35,-0.296,0.25,0.019
48.36,-0.129,1.319,0.153
48.37,-0.19,0.979,0.019
48.38,-0.203,0.874,-0.156
48.39,-0.225,1.217,-0.08
48.4,-0.035,0.876,0.105
48.41,-0.276,1.237,-0.083
48.42,-0.288,0.383,-0.151
48.43,-0.366,1.791,0.034
48.44,-0.059,0.669,0.16
