t,ax,ay,az
0.0,-0.22,0.323,-0.192
0.01,-0.25,1.751,0.069
0.02,-0.06,0.808,0.189
0.03,-0.049,0.71,-0.011
0.04,-0.53,0.745,-0.209
0.05,-0.171,1.359,0.059
0.06,-0.316,1.045,0.086
0.07,-0.072,0.59,-0.012
0.08,-0.524,0.762,-0.217
0.09,-0.136,1.514,0.073
0.1,-0.212,0.815,0.101
0.11,-0.139,0.78,0.007
0.12,-0.451,0.295,-0.142
0.13,-0.108,2.0,0.088
0.14,-0.063,0.719,0.183
0.15,-0.11,0.99,0.038
0.16,-0.466,0.139,-0.143
0.17,-0.11,2.0,0.224
0.18,-0.254,0.774,0.118
0.19,-0.038,0.686,-0.096
0.2,-0.444,0.746,-0.195
0.21,0.07,1.63,0.225
0.22,-0.292,1.337,0.066
0.23,0.138,0.345,-0.066
0.24,-0.492,0.809,-0.122
0.25,-0.004,1.342,0.111
0.26,-0.26,1.345,-0.001
0.27,-0.086,0.704,-0.099
0.28,-0.373,0.426,-0.038
0.29,-0.245,1.676,0.187
0.3,-0.156,0.999,0.148
0.31,-0.274,1.074,-0.1
0.32,-0.334,0.208,-0.044
0.33,-0.256,1.59,0.268
0.34,-0.201,1.153,0.009
0.35,-0.127,0.672,-0.131
0.36,-0.247,0.914,-0.112
0.37,-0.021,0.98,0.114
0.38,-0.215,1.047,-0.082
0.39,-0.259,0.572,-0.228
0.4,-0.324,1.368,-0.016
0.41,-0.053,0.723,0.156
0.42,-0.336,1.38,0.08
0.43,-0.235,0.274,-0.134
0.44,-0.385,1.615,0.092
0.45,-0.141,0.734,0.145
0.46,-0.239,1.004,-0.019
0.47,-0.292,0.591,-0.201
0.48,-0.07,1.563,-0.009
0.49,-0.077,1.106,0.13
0.5,0.09,0.418,-0.018
0.51,-0.488,0.847,-0.228
0.52,-0.044,1.571,0.053
0.53,-0.201,0.887,0.059
0.54,0.057,0.716,-0.016
0.55,-0.562,0.469,-0.187
0.56,-0.013,2.0,0.054
0.57,-0.232,0.597,0.085
0.58,-0.022,0.937,-0.018
0.59,-0.446,0.195,-0.143
0.6,-0.131,2.0,0.181
0.61,-0.072,0.781,0.089
0.62,-0.047,0.81,-0.022
0.63,-0.429,0.507,-0.138
0.64,-0.002,1.732,0.178
0.65,-0.289,1.113,0.057
0.66,0.033,0.373,-0.076
0.67,-0.36,0.846,-0.181
0.68,-0.03,1.516,0.166
0.69,-0.19,1.32,0.039
0.7,-0.021,0.52,-0.035
0.71,-0.379,0.513,-0.112
0.72,-0.198,1.583,0.129
0.73,-0.074,0.954,0.032
0.74,-0.277,1.011,-0.115
0.75,-0.271,0.179,-0.074
0.76,-0.248,1.719,0.16
0.77,-0.198,0.997,0.085
0.78,-0.183,0.888,-0.072
0.79,-0.404,0.505,-0.052
0.8,-0.18,1.181,0.259
0.81,-0.281,1.431,0.012
0.82,-0.036,0.454,-0.138
0.83,-0.363,1.021,-0.06
0.84,-0.003,0.844,0.158
0.85,-0.34,1.413,-0.027
0.86,-0.117,0.502,-0.166
0.87,-0.272,0.926,-0.087
0.88,0.026,1.041,0.147
0.89,-0.222,0.944,-0.058
0.9,-0.306,0.836,-0.153
0.91,-0.13,0.966,-0.086
0.92,-0.19,1.205,0.139
0.93,-0.238,0.747,-0.032
0.94,-0.344,0.902,-0.14
0.95,-0.34,1.397,0.038
0.96,-0.121,0.827,0.225
0.97,-0.282,1.099,0.014
0.98,-0.344,0.36,-0.183
0.99,-0.4,1.849,0.091
1.0,-0.07,0.532,0.145
1.01,-0.254,1.245,-0.002
1.02,-0.285,0.217,-0.232
1.03,-0.269,1.893,0.045
1.04,-0.055,0.7,0.116
1.05,-0.073,0.652,0.005
1.06,-0.469,0.654,-0.196
1.07,-0.022,1.606,0.039
1.08,-0.216,1.14,0.133
1.09,0.128,0.362,-0.04
1.1,-0.526,0.833,-0.223
1.11,0.04,1.686,0.068
1.12,-0.235,0.911,0.039
1.13,-0.004,0.679,-0.021
1.14,-0.433,0.384,-0.145
1.15,-0.13,2.0,0.167
1.16,-0.084,0.598,0.126
1.17,-0.122,0.945,-0.031
1.18,-0.338,0.147,-0.107
1.19,-0.282,1.864,0.083
1.2,-0.079,0.795,0.054
1.21,-0.193,1.039,-0.13
1.22,-0.305,0.34,-0.123
1.23,-0.07,1.61,0.141
1.24,-0.252,1.342,0.073
1.25,-0.481,0.411,-0.162
1.26,-0.094,2.0,0.171
1.27,-0.095,0.694,0.085
1.28,-0.154,0.918,-0.052
1.29,-0.306,0.17,-0.138
1.3,-0.2,1.88,0.115
1.31,-0.074,0.927,0.059
1.32,-0.1,0.818,-0.083
1.33,-0.292,0.632,-0.164
1.34,-0.025,1.563,0.178
1.35,-0.218,1.414,0.046
1.36,-0.032,0.445,-0.092
1.37,-0.384,0.873,-0.17
1.38,-0.076,1.242,0.144
1.39,-0.19,1.448,0.024
1.4,-0.113,0.613,-0.131
1.41,-0.278,0.474,-0.121
1.42,-0.197,1.383,0.182
1.43,-0.145,0.963,0.029
1.44,-0.211,1.0,-0.083
1.45,-0.268,0.245,-0.118
1.46,-0.174,1.395,0.203
1.47,-0.19,0.986,-0.05
1.48,-0.184,0.738,-0.092
1.49,-0.347,0.721,-0.095
1.5,0.042,0.966,0.156
1.51,-0.295,1.412,-0.067
1.52,-0.087,0.352,-0.165
1.53,-0.225,1.417,-0.093
1.54,0.019,0.755,0.105
1.55,-0.263,1.33,-0.067
1.56,-0.208,0.509,-0.185
1.57,-0.284,1.276,-0.06
1.58,-0.083,0.991,0.168
1.59,-0.185,0.852,0.026
1.6,-0.333,0.832,-0.144
1.61,-0.262,1.222,0.029
1.62,-0.229,1.049,0.14
1.63,-0.161,0.742,0.018
1.64,-0.376,0.704,-0.202
1.65,-0.293,1.558,0.042
1.66,-0.1,0.752,0.114
1.67,-0.206,1.087,-0.006
1.68,-0.293,0.277,-0.198
1.69,-0.354,1.94,0.122
1.7,-0.078,0.492,0.136
1.71,-0.169,1.095,-0.008
1.72,-0.304,0.22,-0.18
1.73,-0.18,1.954,0.049
1.74,-0.068,0.763,0.066
1.75,-0.083,0.762,-0.022
1.76,-0.493,0.422,-0.164
1.77,-0.008,1.799,0.21
1.78,-0.198,1.175,0.038
1.79,0.086,0.419,-0.054
1.8,-0.497,0.909,-0.151
1.81,-0.017,1.561,0.242
1.82,-0.196,1.156,0.07
1.83,0.045,0.577,-0.054
1.84,-0.433,0.577,-0.193
1.85,0.025,1.757,0.077
1.86,-0.115,1.009,0.053
1.87,-0.111,0.958,-0.143
1.88,-0.264,0.127,-0.125
1.89,-0.167,1.833,0.094
1.9,-0.029,0.906,0.045
1.91,-0.14,1.01,-0.142
1.92,-0.417,0.403,-0.099
1.93,-0.025,1.575,0.176
1.94,-0.297,1.403,0.022
1.95,0.054,0.482,-0.121
1.96,-0.466,0.864,-0.122
1.97,-0.003,0.985,0.188
1.98,-0.392,1.565,0.045
1.99,-0.035,0.429,-0.084
2.0,-0.346,0.801,-0.005
2.01,-0.112,1.052,0.162
2.02,-0.202,1.087,0.013
2.03,-0.313,0.891,-0.12
2.04,-0.301,0.369,-0.01
2.05,-0.097,1.318,0.184
2.06,-0.171,0.83,-0.025
2.07,-0.287,0.901,-0.096
2.08,-0.178,1.089,-0.076
2.09,-0.083,0.948,0.13
2.1,-0.306,1.166,-0.04
2.11,-0.16,0.413,-0.144
2.12,-0.343,1.797,-0.026
2.13,0.021,0.586,0.153
2.14,-0.286,1.266,0.011
2.15,-0.332,0.276,-0.241
2.16,-0.417,1.386,0.092
2.17,-0.252,0.845,0.144
2.18,-0.168,0.947,0.011
2.19,-0.242,0.633,-0.21
2.2,-0.069,1.399,0.053
2.21,-0.14,1.093,0.138
2.22,0.01,0.452,0.018
2.23,-0.487,0.818,-0.144
2.24,-0.047,1.639,0.028
2.25,-0.146,0.909,0.087
2.26,0.018,0.749,-0.005
2.27,-0.587,0.414,-0.187
2.28,-0.197,1.897,0.114
2.29,-0.206,0.561,0.026
2.3,-0.151,1.071,0.042
2.31,-0.444,0.203,-0.107
2.32,-0.183,2.0,0.183
2.33,-0.01,0.787,0.103
2.34,-0.058,0.672,-0.061
2.35,-0.409,0.529,-0.13
2.36,-0.094,1.608,0.138
2.37,-0.261,1.292,0.178
2.38,-0.003,0.475,-0.026
2.39,-0.483,1.001,-0.162
2.4,0.012,1.595,0.263
2.41,-0.303,1.238,0.077
2.42,-0.091,0.532,-0.024
2.43,-0.326,0.496,-0.126
2.44,-0.231,1.762,0.116
2.45,-0.058,0.878,0.106
2.46,-0.269,1.033,-0.065
2.47,-0.226,0.113,-0.059
2.48,-0.285,1.645,0.181
2.49,-0.134,0.986,0.067
2.5,-0.285,0.842,-0.107
2.51,-0.37,0.572,-0.082
2.52,-0.196,1.305,0.279
2.53,-0.278,1.479,-0.009
2.54,-0.024,0.41,-0.064
2.55,-0.276,1.117,-0.108
2.56,0.034,0.764,0.14
2.57,-0.289,1.531,-0.079
2.58,-0.146,0.312,-0.166
2.59,-0.211,1.26,-0.057
2.6,-0.005,0.831,0.117
2.61,-0.135,1.091,-0.036
2.62,-0.347,0.647,-0.169
2.63,-0.283,0.715,-0.036
2.64,-0.173,1.178,0.11
2.65,-0.118,0.835,-0.034
2.66,-0.282,0.815,-0.109
2.67,-0.192,1.347,-0.002
2.68,-0.124,0.958,0.193
2.69,-0.16,0.835,-0.002
2.7,-0.387,0.575,-0.184
2.71,-0.302,1.809,0.077
2.72,-0.018,0.64,0.144
2.73,-0.184,1.069,0.008
2.74,-0.449,0.208,-0.201
2.75,-0.367,1.876,0.073
2.76,-0.264,0.598,0.132
2.77,-0.225,1.097,0.035
2.78,-0.386,0.44,-0.212
2.79,-0.068,1.66,0.046
2.8,-0.076,1.043,0.12
2.81,0.112,0.372,-0.014
2.82,-0.528,0.826,-0.181
2.83,0.003,1.552,0.047
2.84,-0.177,1.131,0.125
2.85,0.106,0.655,-0.017
2.86,-0.49,0.61,-0.231
2.87,-0.059,1.863,0.136
2.88,-0.261,0.618,0.064
2.89,0.028,1.072,0.002
2.9,-0.425,0.208,-0.151
2.91,-0.126,2.0,0.17
2.92,-0.047,0.768,0.044
2.93,-0.134,0.769,-0.084
2.94,-0.302,0.387,-0.14
2.95,-0.122,1.792,0.175
2.96,-0.165,1.096,0.139
2.97,0.011,0.539,-0.07
2.98,-0.451,0.954,-0.141
2.99,-0.029,1.573,0.229
3.0,-0.316,1.184,0.099
3.01,0.058,0.504,-0.082
3.02,-0.362,0.67,-0.174
3.03,-0.063,1.641,0.047
3.04,-0.16,0.967,0.065
3.05,-0.069,0.977,-0.104
3.06,-0.27,0.135,-0.084
3.07,-0.211,1.744,0.154
3.08,-0.188,0.875,0.097
3.09,-0.201,1.008,-0.124
3.1,-0.372,0.409,-0.108
3.11,-0.086,1.665,0.227
3.12,-0.264,1.262,-0.028
3.13,-0.033,0.458,-0.076
3.14,-0.511,0.898,-0.094
3.15,-0.06,0.935,0.229
3.16,-0.333,1.517,0.016
3.17,-0.115,0.414,-0.064
3.18,-0.296,0.965,-0.034
3.19,-0.075,1.052,0.187
3.2,-0.224,0.994,0.058
3.21,-0.397,0.875,-0.126
3.22,-0.267,0.322,-0.051
3.23,-0.139,1.357,0.216
3.24,-0.077,0.949,-0.042
3.25,-0.272,0.902,-0.108
3.26,-0.181,0.927,-0.069
3.27,-0.08,1.067,0.157
3.28,-0.266,1.092,-0.054
3.29,-0.149,0.537,-0.17
3.3,-0.317,1.806,-0.085
3.31,0.045,0.637,0.138
3.32,-0.282,1.191,0.062
3.33,-0.263,0.354,-0.224
3.34,-0.585,1.44,0.046
3.35,-0.203,0.598,0.156
3.36,-0.308,1.204,-0.001
3.37,-0.229,0.262,-0.213
3.38,-0.177,1.771,0.064
3.39,-0.113,0.849,0.116
3.4,-0.041,0.537,0.021
3.41,-0.496,0.785,-0.165
3.42,-0.04,1.569,0.071
3.43,-0.183,1.211,0.136
3.44,-0.003,0.451,0.027
3.45,-0.438,0.749,-0.214
3.46,-0.17,1.679,0.097
3.47,-0.235,0.697,0.064
3.48,-0.146,0.965,-0.024
3.49,-0.337,0.237,-0.186
3.5,-0.108,2.0,0.079
3.51,0.012,0.634,0.115
3.52,-0.132,0.832,-0.032
3.53,-0.408,0.205,-0.146
3.54,-0.132,1.805,0.146
3.55,-0.127,1.064,0.111
3.56,-0.032,0.651,0.014
3.57,-0.521,0.874,-0.149
3.58,-0.02,1.611,0.247
3.59,-0.3,1.16,0.094
3.6,0.049,0.486,-0.041
3.61,-0.475,0.83,-0.23
3.62,-0.071,1.502,0.107
3.63,-0.223,1.187,0.075
3.64,-0.086,0.781,-0.076
3.65,-0.28,0.301,-0.122
3.66,-0.225,1.74,0.123
3.67,-0.135,0.802,0.056
3.68,-0.219,1.111,-0.115
3.69,-0.336,0.325,-0.131
3.7,-0.01,1.805,0.176
3.71,-0.203,1.108,0.009
3.72,-0.061,0.565,-0.119
3.73,-0.42,0.779,-0.156
3.74,-0.079,1.062,0.175
3.75,-0.306,1.51,0.04
3.76,-0.031,0.391,-0.111
3.77,-0.44,0.872,-0.098
3.78,-0.054,0.997,0.144
3.79,-0.294,1.265,0.004
3.8,-0.16,0.667,-0.138
3.81,-0.347,0.373,-0.074
3.82,-0.187,1.44,0.262
3.83,-0.149,1.087,0.031
3.84,-0.216,0.874,-0.102
3.85,-0.281,0.428,-0.064
3.86,-0.021,1.26,0.08
3.87,-0.15,1.148,-0.075
3.88,-0.215,0.652,-0.158
3.89,-0.193,1.257,-0.095
3.9,-0.02,0.717,0.117
3.91,-0.24,1.358,-0.037
3.92,-0.289,0.316,-0.173
3.93,-0.385,1.366,0.018
3.94,-0.144,0.691,0.149
3.95,-0.313,1.166,-0.026
3.96,-0.256,0.473,-0.181
3.97,-0.196,1.498,-0.017
3.98,-0.158,0.975,0.144
3.99,-0.101,0.625,-0.01
4.0,-0.533,0.911,-0.167
4.01,-0.133,1.424,0.119
4.02,-0.198,1.012,0.142
4.03,-0.081,0.648,0.027
4.04,-0.57,0.654,-0.178
4.05,-0.157,1.8,0.075
4.06,-0.201,0.565,0.059
4.07,-0.09,1.034,0.009
4.08,-0.387,0.198,-0.195
4.09,-0.12,2.0,0.103
4.1,0.125,0.701,0.086
4.11,-0.101,0.839,-0.031
4.12,-0.362,0.364,-0.197
4.13,-0.08,1.845,0.135
4.14,-0.139,0.977,0.048
4.15,0.096,0.506,-0.097
4.16,-0.384,0.741,-0.226
4.17,0.053,1.599,0.172
4.18,-0.225,1.353,-0.004
4.19,0.071,0.432,-0.053
4.2,-0.361,0.868,-0.148
4.21,-0.131,1.368,0.134
4.22,-0.18,1.26,0.0
4.23,-0.089,0.856,-0.105
4.24,-0.323,0.381,-0.065
4.25,-0.203,1.662,0.157
4.26,-0.139,1.004,0.038
4.27,-0.158,1.076,-0.122
4.28,-0.304,0.212,-0.088
4.29,-0.236,1.527,0.243
4.3,-0.264,1.092,-0.023
4.31,-0.144,0.777,-0.071
4.32,-0.382,0.732,-0.005
4.33,-0.073,0.934,0.175
4.34,-0.352,1.434,-0.049
4.35,-0.18,0.407,-0.186
4.36,-0.341,1.111,-0.0
4.37,0.013,0.859,0.17
4.38,-0.299,1.258,0.038
4.39,-0.257,0.516,-0.15
4.4,-0.249,0.981,-0.047
4.41,-0.118,1.109,0.157
4.42,-0.17,0.84,-0.033
4.43,-0.364,0.915,-0.155
4.44,-0.123,1.191,-0.017
4.45,-0.214,1.048,0.142
4.46,-0.037,0.832,0.021
4.47,-0.422,0.695,-0.256
4.48,-0.165,1.6,0.024
4.49,-0.176,0.629,0.126
4.5,-0.128,1.133,0.015
4.51,-0.299,0.143,-0.215
4.52,-0.261,2.0,0.089
4.53,-0.075,0.548,0.128
4.54,-0.187,0.946,0.052
4.55,-0.394,0.3,-0.202
4.56,-0.227,1.869,0.046
4.57,-0.126,0.857,0.119
4.58,0.021,0.475,-0.021
4.59,-0.577,0.827,-0.188
4.6,-0.026,1.504,0.151
4.61,-0.109,1.219,0.09
4.62,0.048,0.418,-0.03
4.63,-0.45,0.739,-0.163
4.64,-0.086,1.748,0.149
4.65,-0.109,0.913,0.115
4.66,-0.033,0.909,-0.119
4.67,-0.306,0.291,-0.153
4.68,-0.115,2.0,0.114
4.69,-0.03,0.796,0.027
4.7,-0.146,1.024,-0.076
4.71,-0.301,0.322,-0.145
4.72,-0.06,1.749,0.11
4.73,-0.181,1.173,0.027
4.74,-0.046,0.635,-0.085
4.75,-0.422,0.817,-0.091
4.76,-0.067,1.319,0.174
4.77,-0.309,1.509,0.052
4.78,-0.021,0.527,-0.053
4.79,-0.456,0.737,-0.046
4.8,-0.128,1.246,0.223
4.81,-0.274,1.335,0.097
4.82,-0.178,0.792,-0.115
4.83,-0.31,0.287,-0.027
4.84,-0.2,1.397,0.194
4.85,-0.148,0.913,-0.008
4.86,-0.354,0.964,-0.137
4.87,-0.161,0.612,-0.033
4.88,-0.142,1.138,0.176
4.89,-0.207,1.049,-0.055
4.9,-0.188,0.578,-0.17
4.91,-0.264,1.546,-0.027
4.92,-0.031,0.693,0.129
4.93,-0.317,1.368,-0.032
4.94,-0.237,0.239,-0.193
4.95,-0.351,1.824,0.031
4.96,-0.078,0.5,0.17
4.97,-0.215,1.068,0.077
4.98,-0.461,0.338,-0.126
4.99,-0.256,1.837,0.096
5.0,-0.173,0.774,0.122
5.01,-0.06,0.604,-0.033
5.02,-0.571,0.788,-0.205
5.03,0.029,1.529,0.027
5.04,-0.222,1.081,0.069
5.05,0.014,0.395,0.039
5.06,-0.564,0.694,-0.11
5.07,-0.052,1.728,0.206
5.08,-0.181,0.94,0.141
5.09,-0.05,0.84,-0.027
5.1,-0.396,0.262,-0.082
5.11,-0.19,2.0,0.273
5.12,-0.092,0.724,0.052
5.13,-0.112,0.914,-0.117
5.14,-0.224,0.32,-0.203
5.15,-0.078,1.862,0.118
5.16,-0.186,1.123,0.062
5.17,-0.053,0.679,-0.083
5.18,-0.302,0.671,-0.186
5.19,-0.023,1.32,0.082
5.2,-0.286,1.565,-0.016
5.21,-0.068,0.464,-0.084
5.22,-0.475,0.777,-0.071
5.23,-0.15,1.324,0.249
5.24,-0.315,1.319,0.152
5.25,-0.175,0.801,-0.108
5.26,-0.395,0.381,-0.012
5.27,-0.199,1.429,0.172
5.28,-0.176,0.928,-0.019
5.29,-0.232,0.982,-0.107
5.3,-0.255,0.583,-0.0
5.31,-0.062,1.135,0.108
5.32,-0.173,1.058,-0.011
5.33,-0.308,0.654,-0.166
5.34,-0.224,1.14,-0.046
5.35,-0.133,0.76,0.118
5.36,-0.303,1.436,0.007
5.37,-0.205,0.153,-0.097
5.38,-0.299,1.746,0.007
5.39,-0.09,0.677,0.167
5.4,-0.249,1.099,-0.041
5.41,-0.308,0.605,-0.181
5.42,-0.187,1.581,0.043
5.43,-0.163,0.964,0.12
5.44,0.0,0.536,-0.002
5.45,-0.55,0.919,-0.194
5.46,-0.185,1.386,0.098
5.47,-0.212,0.915,0.077
5.48,-0.129,0.74,0.026
5.49,-0.395,0.54,-0.158
5.5,-0.121,1.929,0.056
5.51,-0.027,0.667,0.141
5.52,-0.067,0.914,0.001
5.53,-0.434,0.14,-0.166
5.54,-0.194,2.0,0.16
5.55,-0.056,0.77,0.087
5.56,-0.088,0.91,-0.027
5.57,-0.398,0.466,-0.187
5.58,-0.07,1.807,0.201
5.59,-0.253,1.123,0.053
5.6,0.021,0.388,-0.049
5.61,-0.461,0.854,-0.173
5.62,-0.012,1.533,0.184
5.63,-0.181,1.277,0.047
5.64,0.032,0.499,-0.072
5.65,-0.347,0.624,-0.146
5.66,-0.135,1.464,0.109
5.67,-0.201,0.923,0.019
5.68,-0.125,1.078,-0.114
5.69,-0.359,0.186,-0.107
5.7,-0.193,1.667,0.193
5.71,-0.197,0.926,0.074
5.72,-0.274,0.947,-0.083
5.73,-0.419,0.48,-0.079
5.74,-0.163,1.189,0.257
5.75,-0.312,1.375,0.025
5.76,-0.207,0.529,-0.09
5.77,-0.21,1.356,-0.05
5.78,0.019,0.782,0.152
5.79,-0.254,1.338,-0.045
5.8,-0.279,0.361,-0.167
5.81,-0.354,1.276,-0.025
5.82,-0.056,0.841,0.128
5.83,-0.289,1.169,0.027
5.84,-0.203,0.568,-0.236
5.85,-0.214,1.415,-0.022
5.86,-0.131,1.0,0.154
5.87,-0.138,0.656,0.006
5.88,-0.429,0.876,-0.152
5.89,-0.093,1.481,0.074
5.9,-0.097,1.095,0.196
5.91,-0.049,0.57,0.03
5.92,-0.499,0.569,-0.189
5.93,-0.246,1.68,0.118
5.94,-0.342,0.586,0.077
5.95,-0.175,1.263,-0.037
5.96,-0.394,0.158,-0.174
5.97,-0.111,2.0,0.036
5.98,-0.022,0.568,0.108
5.99,-0.068,0.796,0.013
6.0,-0.468,0.342,-0.173
6.01,-0.057,1.645,0.057
6.02,-0.067,1.229,0.051
6.03,0.045,0.61,-0.071
6.04,-0.496,0.884,-0.137
6.05,-0.011,1.586,0.179
6.06,-0.393,1.031,0.092
6.07,0.069,0.629,-0.047
6.08,-0.539,0.674,-0.155
6.09,-0.026,1.77,0.214
6.1,-0.116,0.926,0.038
6.11,-0.081,0.736,-0.081
6.12,-0.276,0.187,-0.108
6.13,-0.264,1.658,0.055
6.14,-0.137,0.729,0.025
6.15,-0.157,1.084,-0.158
6.16,-0.291,0.413,-0.135
6.17,-0.1,1.56,0.203
6.18,-0.262,1.166,0.065
6.19,-0.079,0.589,-0.099
6.2,-0.523,0.903,-0.116
6.21,-0.084,0.964,0.237
6.22,-0.339,1.633,0.007
6.23,-0.086,0.291,-0.067
6.24,-0.224,1.304,-0.079
6.25,-0.063,1.084,0.159
6.26,-0.205,0.755,0.035
6.27,-0.448,1.044,-0.185
6.28,-0.335,0.368,0.027
6.29,-0.206,1.336,0.244
6.3,-0.157,0.848,0.09
6.31,-0.351,0.819,-0.144
6.32,-0.216,0.821,-0.067
6.33,-0.088,1.027,0.125
6.34,-0.249,1.257,-0.062
6.35,-0.086,0.402,-0.155
6.36,-0.262,1.876,-0.1
6.37,0.153,0.706,0.152
6.38,-0.276,1.052,0.074
6.39,-0.346,0.458,-0.24
6.4,-0.404,1.469,0.01
6.41,-0.252,0.84,0.111
6.42,-0.268,1.014,0.047
6.43,-0.34,0.601,-0.16
6.44,-0.276,1.328,0.102
6.45,-0.287,1.013,0.127
6.46,-0.151,0.672,0.046
6.47,-0.353,0.695,-0.189
6.48,-0.007,1.492,0.019
6.49,0.024,1.138,0.102
6.5,-0.005,0.641,0.004
6.51,-0.498,0.483,-0.209
6.52,-0.295,1.861,0.105
6.53,-0.245,0.483,0.058
6.54,-0.198,1.23,0.062
6.55,-0.41,0.121,-0.199
6.56,-0.199,1.961,0.108
6.57,-0.15,0.588,0.061
6.58,-0.157,0.787,-0.013
6.59,-0.365,0.249,-0.194
6.6,-0.165,1.734,0.078
6.61,-0.061,1.084,0.078
6.62,0.056,0.605,-0.053
6.63,-0.514,0.86,-0.216
6.64,0.012,1.559,0.164
6.65,-0.265,1.126,0.058
6.66,0.013,0.587,-0.038
6.67,-0.482,0.791,-0.179
6.68,0.056,1.714,0.211
6.69,-0.218,1.008,0.117
6.7,-0.022,0.755,-0.049
6.71,-0.319,0.28,-0.169
6.72,-0.214,1.67,0.102
6.73,-0.077,0.698,-0.001
6.74,-0.108,1.131,-0.134
6.75,-0.412,0.314,-0.151
6.76,-0.076,1.556,0.198
6.77,-0.238,1.246,0.006
6.78,-0.051,0.578,-0.13
6.79,-0.361,0.811,-0.152
6.8,-0.002,1.274,0.18
6.81,-0.365,1.655,0.043
6.82,-0.011,0.387,-0.082
6.83,-0.446,0.757,-0.119
6.84,-0.103,1.282,0.196
6.85,-0.374,1.159,0.119
6.86,-0.27,0.882,-0.078
6.87,-0.432,0.264,0.017
6.88,-0.225,1.511,0.244
6.89,-0.157,0.947,0.084
6.9,-0.267,0.971,-0.08
6.91,-0.378,0.369,-0.043
6.92,-0.151,1.221,0.224
6.93,-0.239,1.23,-0.049
6.94,-0.031,0.523,-0.137
6.95,-0.281,1.337,-0.098
6.96,0.077,0.767,0.092
6.97,-0.317,1.289,-0.026
6.98,-0.164,0.423,-0.177
6.99,-0.42,1.127,-0.043
7.0,-0.003,0.887,0.126
7.01,-0.192,1.111,-0.051
7.02,-0.287,0.669,-0.166
7.03,-0.18,1.042,-0.033
7.04,-0.211,1.123,0.153
7.05,-0.116,0.795,-0.021
7.06,-0.314,0.903,-0.149
7.07,-0.16,1.331,-0.04
7.08,-0.008,0.963,0.121
7.09,-0.115,0.773,0.031
7.1,-0.471,0.589,-0.187
7.11,-0.391,1.585,0.109
7.12,-0.194,0.685,0.097
7.13,-0.289,1.292,-0.017
7.14,-0.199,0.108,-0.181
7.15,-0.352,1.953,0.109
7.16,0.007,0.599,0.198
7.17,-0.23,0.873,0.031
7.18,-0.425,0.491,-0.143
7.19,-0.099,1.724,0.083
7.2,-0.091,1.184,0.077
7.21,0.068,0.446,0.015
7.22,-0.615,0.859,-0.243
7.23,-0.09,1.432,0.108
7.24,-0.414,0.929,0.085
7.25,-0.084,0.785,0.023
7.26,-0.406,0.556,-0.189
7.27,-0.063,1.881,0.057
7.28,0.061,0.688,0.094
7.29,-0.099,0.868,-0.079
7.3,-0.336,0.078,-0.19
7.31,-0.118,2.0,0.102
7.32,-0.004,0.831,0.089
7.33,-0.08,0.905,-0.067
7.34,-0.402,0.515,-0.193
7.35,-0.119,1.743,0.218
7.36,-0.291,1.0,0.092
7.37,-0.074,0.545,-0.055
7.38,-0.362,0.776,-0.235
7.39,-0.084,1.336,0.145
7.4,-0.222,1.445,0.084
7.41,-0.027,0.419,-0.066
7.42,-0.337,0.847,-0.161
7.43,-0.169,1.187,0.114
7.44,-0.22,1.17,0.062
7.45,-0.218,0.835,-0.137
7.46,-0.364,0.344,-0.081
7.47,-0.233,1.585,0.284
7.48,-0.17,0.95,0.132
7.49,-0.272,0.985,-0.067
7.5,-0.396,0.349,-0.076
7.51,-0.212,1.358,0.212
7.52,-0.225,1.13,-0.013
7.53,-0.125,0.579,-0.144
7.54,-0.224,1.04,-0.076
7.55,-0.021,0.888,0.145
7.56,-0.239,1.347,-0.017
7.57,-0.214,0.399,-0.133
7.58,-0.369,0.981,-0.057
7.59,-0.012,0.927,0.219
7.6,-0.144,1.319,-0.014
7.61,-0.223,0.618,-0.159
7.62,-0.249,0.787,-0.062
7.63,-0.108,1.216,0.133
7.64,-0.115,0.83,-0.061
7.65,-0.248,0.861,-0.171
7.66,-0.118,1.122,-0.22
7.67,-0.042,1.045,0.063
7.68,-0.119,0.874,-0.018
7.69,-0.39,0.623,-0.192
7.7,-0.258,1.324,-0.033
7.71,-0.173,0.767,0.086
7.72,-0.227,1.334,0.027
7.73,-0.198,0.191,-0.104
7.74,-0.421,1.812,0.068
7.75,-0.107,0.659,0.175
7.76,-0.23,1.158,-0.016
7.77,-0.253,0.494,-0.177
7.78,-0.253,1.623,0.078
7.79,-0.098,1.009,0.219
7.8,-0.06,0.459,0.059
7.81,-0.511,0.918,-0.17
7.82,-0.2,1.402,0.088
7.83,-0.26,0.962,0.107
7.84,-0.134,0.717,0.028
7.85,-0.445,0.595,-0.173
7.86,-0.23,1.808,0.078
7.87,-0.128,0.557,0.099
7.88,-0.083,1.02,-0.016
7.89,-0.396,0.132,-0.212
7.9,-0.041,2.0,0.049
7.91,0.023,0.729,0.051
7.92,-0.012,0.849,-0.055
7.93,-0.442,0.337,-0.275
7.94,0.097,1.833,-0.006
7.95,-0.251,0.941,0.033
7.96,0.097,0.454,-0.033
7.97,-0.609,0.843,-0.214
7.98,0.005,1.565,0.167
7.99,-0.286,1.042,0.021
8.0,0.056,0.495,0.011
8.01,-0.521,0.638,-0.126
8.02,-0.15,1.698,0.137
8.03,-0.09,0.933,0.127
8.04,-0.102,0.957,-0.061
8.05,-0.35,0.219,-0.101
8.06,-0.147,2.0,0.203
8.07,-0.002,0.713,0.05
8.08,-0.135,0.935,-0.079
8.09,-0.362,0.409,-0.192
8.1,-0.046,1.805,0.202
8.11,-0.147,1.175,0.02
8.12,0.039,0.443,-0.061
8.13,-0.408,0.85,-0.171
8.14,-0.058,1.208,0.09
8.15,-0.29,1.388,0.034
8.16,-0.093,0.5,-0.036
8.17,-0.439,0.944,-0.067
8.18,-0.117,0.959,0.257
8.19,-0.282,1.357,0.068
8.2,-0.189,0.63,-0.049
8.21,-0.244,0.465,-0.081
8.22,-0.119,1.325,0.241
8.23,-0.091,0.946,-0.024
8.24,-0.19,0.968,-0.138
8.25,-0.258,0.467,-0.147
8.26,-0.086,1.292,0.101
8.27,-0.18,0.973,-0.107
8.28,-0.163,0.608,-0.165
8.29,-0.254,0.949,-0.144
8.3,0.034,0.872,0.099
8.31,-0.231,1.4,-0.079
8.32,-0.182,0.272,-0.159
8.33,-0.347,1.115,-0.115
8.34,0.01,0.803,0.08
8.35,-0.265,1.347,-0.003
8.36,-0.147,0.44,-0.101
8.37,-0.269,1.341,-0.071
8.38,-0.094,0.983,0.164
8.39,-0.149,0.8,0.026
8.4,-0.464,0.901,-0.097
8.41,-0.217,1.101,0.013
8.42,-0.289,1.086,0.164
8.43,-0.135,0.832,-0.002
8.44,-0.37,0.686,-0.195
8.45,-0.268,1.5,0.052
8.46,-0.162,0.702,0.131
8.47,-0.243,1.229,-0.016
8.48,-0.294,0.193,-0.145
8.49,-0.307,2.0,0.126
8.5,-0.041,0.578,0.171
8.51,-0.158,0.943,0.004
8.52,-0.408,0.336,-0.243
8.53,-0.092,1.848,0.067
8.54,-0.105,0.957,0.083
8.55,-0.002,0.461,0.012
8.56,-0.503,0.852,-0.182
8.57,-0.015,1.568,0.1
8.58,-0.278,1.066,0.122
8.59,0.029,0.481,0.021
8.6,-0.467,0.731,-0.148
8.61,-0.104,1.805,0.11
8.62,-0.137,0.74,0.158
8.63,-0.054,0.892,-0.029
8.64,-0.426,0.192,-0.166
8.65,-0.095,2.0,0.136
8.66,-0.084,0.74,0.122
8.67,-0.057,1.029,-0.021
8.68,-0.384,0.341,-0.101
8.69,-0.057,1.936,0.215
8.7,-0.249,1.026,0.079
8.71,-0.025,0.614,-0.052
8.72,-0.452,0.824,-0.173
8.73,0.045,1.533,0.206
8.74,-0.251,1.351,0.059
8.75,0.028,0.453,-0.0
8.76,-0.416,0.694,-0.14
8.77,-0.06,1.477,0.135
8.78,-0.188,1.104,0.076
8.79,-0.133,0.979,-0.136
8.8,-0.255,0.245,-0.133
8.81,-0.206,1.749,0.16
8.82,-0.163,0.964,0.07
8.83,-0.139,0.99,-0.11
8.84,-0.386,0.338,-0.085
8.85,-0.264,1.318,0.3
8.86,-0.275,1.21,-0.0
8.87,-0.052,0.542,-0.107
8.88,-0.272,1.086,-0.094
8.89,-0.018,0.844,0.138
8.9,-0.297,1.399,-0.033
8.91,-0.151,0.344,-0.137
8.92,-0.376,1.092,-0.105
8.93,0.017,0.886,0.156
8.94,-0.222,1.148,-0.006
8.95,-0.247,0.651,-0.113
8.96,-0.182,0.859,-0.072
8.97,-0.14,1.204,0.162
8.98,-0.125,0.811,0.003
8.99,-0.392,0.86,-0.19
9.0,-0.136,1.304,0.076
9.01,-0.221,1.069,0.192
9.02,-0.115,0.593,0.046
9.03,-0.43,0.699,-0.159
9.04,-0.242,1.703,0.116
9.05,-0.173,0.698,0.145
9.06,-0.202,0.95,0.042
9.07,-0.49,0.186,-0.137
9.08,-0.264,2.0,0.106
9.09,-0.106,0.449,0.054
9.1,-0.165,0.995,-0.011
9.11,-0.385,0.272,-0.207
9.12,-0.141,1.901,0.103
9.13,-0.059,0.929,0.08
9.14,0.016,0.484,-0.061
9.15,-0.532,0.78,-0.188
9.16,0.042,1.591,0.133
9.17,-0.286,1.209,0.074
9.18,0.139,0.465,-0.036
9.19,-0.554,0.784,-0.172
9.2,0.069,1.775,0.192
9.21,-0.164,0.882,0.095
9.22,-0.015,0.816,-0.062
9.23,-0.425,0.256,-0.141
9.24,-0.122,1.942,0.155
9.25,-0.06,0.797,0.008
9.26,-0.159,1.001,-0.053
9.27,-0.335,0.304,-0.124
9.28,-0.101,1.743,0.166
9.29,-0.167,1.128,0.081
9.3,-0.05,0.676,-0.087
9.31,-0.328,0.814,-0.156
9.32,0.017,1.324,0.12
9.33,-0.262,1.55,0.022
9.34,-0.042,0.401,-0.079
9.35,-0.492,0.804,-0.113
9.36,-0.114,1.154,0.17
9.37,-0.208,1.251,0.039
9.38,-0.239,0.856,-0.144
9.39,-0.261,0.282,-0.061
9.4,-0.26,1.366,0.212
9.41,-0.102,0.901,0.021
9.42,-0.367,0.968,-0.079
9.43,-0.317,0.355,-0.027
9.44,-0.209,1.236,0.192
9.45,-0.243,1.225,-0.059
9.46,-0.127,0.455,-0.087
9.47,-0.223,1.258,-0.11
9.48,0.033,0.778,0.129
9.49,-0.285,1.425,-0.053
9.5,-0.202,0.334,-0.173
9.51,-0.268,1.474,-0.07
9.52,-0.014,0.807,0.125
9.53,-0.218,1.067,-0.02
9.54,-0.323,0.712,-0.156
9.55,-0.347,1.173,0.072
9.56,-0.214,1.084,0.177
9.57,-0.131,0.735,0.026
9.58,-0.361,0.839,-0.155
9.59,0.025,0.498,-0.048
9.6,-0.505,0.79,-0.194
9.61,-0.006,1.672,0.163
9.62,-0.183,1.068,0.03
9.63,-0.019,0.869,-0.12
9.64,-0.329,0.192,-0.16
9.65,-0.195,1.761,0.108
9.66,-0.14,0.827,0.066
9.67,-0.193,1.032,-0.085
9.68,-0.362,0.291,-0.09
9.69,-0.206,1.461,0.191
9.7,-0.275,1.347,0.108
9.71,-0.095,0.542,-0.07
9.72,-0.32,0.594,-0.102
9.73,-0.123,1.046,0.232
9.74,-0.24,1.612,0.029
9.75,-0.118,0.322,-0.073
9.76,-0.371,1.096,-0.037
9.77,-0.02,0.85,0.123
9.78,-0.19,1.382,-0.024
9.79,-0.193,0.562,-0.153
9.8,-0.226,0.989,-0.053
9.81,-0.122,1.098,0.139
9.82,-0.21,0.815,-0.02
9.83,-0.341,0.827,-0.124
9.84,-0.329,0.561,-0.054
9.85,-0.159,1.185,0.112
9.86,-0.202,0.969,0.021
9.87,-0.248,0.681,-0.135
9.88,-0.242,1.485,0.037
9.89,-0.158,0.681,0.177
9.9,-0.287,1.224,0.036
9.91,-0.283,0.279,-0.187
9.92,-0.271,1.939,0.089
9.93,-0.022,0.591,0.131
9.94,-0.226,1.02,0.018
9.95,-0.386,0.327,-0.228
9.96,-0.284,1.729,0.113
9.97,-0.216,0.81,0.099
9.98,-0.074,0.614,0.031
9.99,-0.528,0.78,-0.22
10.0,-0.039,1.527,0.043
10.01,-0.11,1.092,0.104
10.02,0.078,0.482,0.013
10.03,-0.532,0.658,-0.183
10.04,0.01,1.744,0.119
10.05,-0.196,0.941,0.13
10.06,-0.032,0.873,-0.02
10.07,-0.374,0.279,-0.19
10.08,-0.128,2.0,0.188
10.09,-0.072,0.609,-0.0
10.1,-0.099,0.899,-0.068
10.11,-0.398,0.294,-0.165
10.12,-0.092,1.819,0.16
10.13,-0.141,1.036,0.07
10.14,-0.029,0.534,-0.032
10.15,-0.432,0.833,-0.16
10.16,-0.081,1.341,0.135
10.17,-0.221,1.378,0.077
10.18,0.011,0.54,-0.087
10.19,-0.477,0.767,-0.159
10.2,-0.099,1.343,0.164
10.21,-0.281,1.177,0.108
10.22,-0.155,0.886,-0.078
10.23,-0.346,0.29,-0.046
10.24,-0.319,1.554,0.211
10.25,-0.167,0.866,0.074
10.26,-0.203,1.006,-0.089
10.27,-0.371,0.455,-0.078
10.28,-0.147,1.227,0.162
10.29,-0.262,1.069,-0.016
10.3,-0.058,0.565,-0.122
10.31,-0.376,1.018,-0.096
10.32,-0.031,0.86,0.154
10.33,-0.294,1.435,0.031
10.34,-0.174,0.338,-0.115
10.35,-0.287,1.054,-0.099
10.36,-0.059,0.871,0.129
10.37,-0.157,1.176,-0.085
10.38,-0.234,0.643,-0.108
10.39,-0.151,1.157,-0.114
10.4,-0.136,1.178,0.145
10.41,-0.143,0.617,0.016
10.42,-0.448,1.006,-0.138
10.43,-0.26,1.26,0.004
10.44,-0.168,0.95,0.141
10.45,-0.265,0.951,-0.024
10.46,-0.358,0.436,-0.152
10.47,-0.324,1.628,0.028
10.48,-0.073,0.65,0.114
10.49,-0.29,1.324,-0.032
10.5,-0.222,0.179,-0.172
10.51,-0.268,1.908,0.099
10.52,-0.003,0.529,0.13
10.53,-0.185,0.919,-0.01
10.54,-0.412,0.263,-0.189
10.55,-0.097,1.9,0.101
10.56,-0.108,0.948,0.098
10.57,0.077,0.546,-0.019
10.58,-0.59,0.808,-0.217
10.59,0.018,1.562,0.098
10.6,-0.275,1.15,0.093
10.61,0.032,0.457,0.012
10.62,-0.556,0.736,-0.181
10.63,-0.05,1.744,0.207
10.64,-0.141,0.963,0.103
10.65,0.013,0.833,-0.041
10.66,-0.387,0.21,-0.131
10.67,-0.153,1.936,0.162
10.68,-0.032,0.775,0.075
10.69,-0.189,1.098,-0.057
10.7,-0.301,0.307,-0.186
10.71,-0.018,1.833,0.126
10.72,-0.147,1.148,-0.004
10.73,0.008,0.588,-0.063
10.74,-0.439,0.784,-0.181
10.75,0.009,1.244,0.168
10.76,-0.302,1.477,0.086
10.77,-0.064,0.432,-0.083
10.78,-0.405,0.801,-0.09
10.79,-0.098,1.158,0.172
10.8,-0.208,1.122,-0.016
10.81,-0.213,0.886,-0.132
10.82,-0.33,0.313,-0.053
10.83,-0.181,1.467,0.266
10.84,-0.208,0.887,0.085
10.85,-0.231,1.001,-0.109
10.86,-0.383,0.393,-0.063
10.87,-0.077,1.193,0.146
10.88,-0.234,1.193,-0.062
10.89,-0.136,0.53,-0.151
10.9,-0.216,1.469,-0.16
10.91,0.053,0.75,0.136
10.92,-0.264,1.308,0.003
10.93,-0.211,0.391,-0.186
10.94,-0.283,1.359,-0.076
10.95,-0.016,0.909,0.128
10.96,-0.204,1.036,0.001
10.97,-0.221,0.63,-0.179
10.98,-0.211,1.158,-0.052
10.99,-0.201,1.131,0.107
11.0,-0.288,0.753,-0.004
11.01,-0.276,0.82,-0.066
11.02,-0.325,1.384,0.069
11.03,-0.093,0.978,0.199
11.04,-0.128,0.788,0.007
11.05,-0.415,0.595,-0.181
11.06,-0.316,1.773,0.065
11.07,-0.175,0.578,0.112
11.08,-0.205,1.241,0.041
11.09,-0.399,0.069,-0.163
11.1,-0.29,1.953,0.109
11.11,-0.077,0.583,0.083
11.12,-0.163,0.841,-0.037
11.13,-0.31,0.505,-0.215
11.14,-0.031,1.718,0.011
11.15,-0.056,1.101,0.098
11.16,0.118,0.389,-0.009
11.17,-0.531,0.885,-0.202
11.18,-0.052,1.534,0.13
11.19,-0.266,1.026,0.03
11.2,-0.059,0.624,0.018
11.21,-0.466,0.513,-0.152
11.22,-0.106,1.952,0.132
11.23,-0.119,0.608,0.097
11.24,-0.143,0.887,-0.01
11.25,-0.454,0.11,-0.113
11.26,-0.234,1.897,0.173
11.27,-0.099,0.883,0.178
11.28,-0.131,0.831,-0.071
11.29,-0.345,0.514,-0.158
11.3,-0.049,1.651,0.165
11.31,-0.134,1.3,0.097
11.32,-0.038,0.648,-0.181
11.33,-0.409,0.8,-0.159
11.34,-0.063,1.194,0.19
11.35,-0.355,1.59,0.095
11.36,-0.025,0.359,-0.012
11.37,-0.471,0.884,-0.091
11.38,-0.145,1.102,0.214
11.39,-0.302,1.179,0.04
11.4,-0.252,0.788,-0.073
11.41,-0.386,0.328,-0.004
11.42,-0.183,1.407,0.292
11.43,-0.185,0.896,0.088
11.44,-0.242,1.001,-0.119
11.45,-0.349,0.403,-0.055
11.46,-0.029,1.263,0.121
11.47,-0.262,1.173,-0.08
11.48,-0.094,0.583,-0.109
11.49,-0.328,1.464,-0.061
11.5,0.116,0.711,0.1
11.51,-0.364,1.391,-0.054
11.52,-0.137,0.344,-0.214
11.53,-0.411,1.323,-0.047
11.54,-0.012,0.818,0.122
11.55,-0.274,1.149,0.02
11.56,-0.173,0.595,-0.231
11.57,-0.241,1.353,-0.033
11.58,-0.108,1.053,0.123
11.59,-0.136,0.711,-0.006
11.6,-0.379,0.85,-0.174
11.61,-0.14,1.456,0.047
11.62,-0.104,0.947,0.093
11.63,-0.016,0.737,0.016
11.64,-0.475,0.484,-0.234
11.65,-0.189,1.857,0.067
11.66,-0.19,0.528,0.08
11.67,-0.114,1.107,0.085
11.68,-0.447,0.198,-0.16
11.69,-0.189,2.0,0.103
11.7,-0.039,0.708,0.071
11.71,-0.072,0.691,-0.046
11.72,-0.362,0.431,-0.219
11.73,-0.059,1.745,0.091
11.74,-0.118,1.144,0.132
11.75,0.043,0.428,-0.031
11.76,-0.509,0.873,-0.178
11.77,-0.078,1.566,0.179
11.78,-0.315,0.987,0.062
11.79,0.075,0.689,-0.031
11.8,-0.505,0.536,-0.137
11.81,-0.018,1.897,0.227
11.82,-0.143,0.823,0.118
11.83,-0.077,0.843,-0.036
11.84,-0.232,0.134,-0.107
11.85,-0.249,1.739,0.131
11.86,-0.005,0.87,0.032
11.87,-0.161,0.948,-0.105
11.88,-0.252,0.498,-0.185
11.89,-0.016,1.723,0.179
11.9,-0.18,1.279,-0.017
11.91,-0.021,0.433,-0.092
11.92,-0.398,0.898,-0.149
11.93,-0.095,1.198,0.178
11.94,-0.33,1.488,0.107
11.95,-0.047,0.493,-0.023
11.96,-0.404,0.634,-0.03
11.97,-0.157,1.299,0.181
11.98,-0.213,0.989,0.062
11.99,-0.329,0.995,-0.11
12.0,-0.321,0.217,0.023
12.01,-0.226,1.527,0.289
12.02,-0.04,1.031,0.05
12.03,-0.16,0.841,-0.138
12.04,-0.296,0.71,-0.136
12.05,-0.002,1.031,0.076
12.06,-0.243,1.366,-0.081
12.07,-0.089,0.34,-0.16
12.08,-0.203,1.488,-0.076
12.09,0.0,0.723,0.11
12.1,-0.198,1.302,-0.013
12.11,-0.285,0.488,-0.204
12.12,-0.288,0.947,-0.032
12.13,-0.3,0.743,0.152
12.14,-0.206,1.117,-0.015
12.15,-0.238,0.436,-0.141
12.16,-0.181,1.484,0.023
12.17,-0.229,0.994,0.157
12.18,-0.04,0.605,-0.011
12.19,-0.532,0.902,-0.126
12.2,-0.058,1.54,0.075
12.21,-0.204,1.013,0.157
12.22,-0.04,0.638,0.028
12.23,-0.599,0.569,-0.155
12.24,-0.242,1.808,0.118
12.25,-0.286,0.55,0.088
12.26,-0.177,1.185,0.011
12.27,-0.399,0.202,-0.139
12.28,-0.084,2.0,0.057
12.29,-0.029,0.665,0.115
12.3,-0.074,0.709,-0.052
12.31,-0.449,0.399,-0.154
12.32,-0.043,1.759,0.071
12.33,-0.172,1.181,0.101
12.34,0.094,0.562,-0.042
12.35,-0.64,0.893,-0.15
12.36,0.07,1.609,0.181
12.37,-0.339,1.034,0.082
12.38,0.091,0.556,-0.024
12.39,-0.474,0.61,-0.177
12.4,-0.026,1.757,0.121
12.41,-0.042,0.888,0.059
12.42,-0.085,0.953,-0.088
12.43,-0.201,0.141,-0.157
12.44,-0.208,1.734,0.084
12.45,-0.046,0.846,0.02
12.46,-0.189,0.994,-0.103
12.47,-0.348,0.502,-0.129
12.48,-0.047,1.709,0.199
12.49,-0.263,1.266,0.074
12.5,-0.115,0.418,-0.037
12.51,-0.525,0.893,-0.056
12.52,-0.188,1.113,0.23
12.53,-0.33,1.495,0.053
12.54,-0.051,0.503,-0.107
12.55,-0.35,0.655,-0.063
12.56,-0.117,1.284,0.17
12.57,-0.228,0.924,0.003
12.58,-0.255,0.993,-0.122
12.59,-0.383,0.21,-0.077
12.6,-0.146,1.624,0.268
12.61,-0.2,0.967,0.035
12.62,-0.186,0.874,-0.087
12.63,-0.39,0.621,-0.05
12.64,-0.031,1.08,0.148
12.65,-0.377,1.344,0.038
12.66,-0.028,0.43,-0.129
12.67,-0.26,1.613,-0.099
12.68,0.12,0.674,0.13
12.69,-0.303,1.194,-0.005
12.7,-0.304,0.514,-0.236
12.71,-0.377,0.975,-0.064
12.72,-0.138,0.975,0.09
12.73,-0.238,0.969,0.025
12.74,-0.316,0.705,-0.12
12.75,-0.245,1.16,0.036
12.76,-0.307,1.135,0.168
12.77,-0.232,0.77,0.044
12.78,-0.361,0.848,-0.119
12.79,-0.177,1.6,0.038
12.8,-0.041,0.896,0.203
12.81,-0.088,0.811,-0.008
12.82,-0.363,0.435,-0.214
12.83,-0.377,1.82,0.028
12.84,-0.203,0.576,0.09
12.85,-0.278,1.284,-0.016
12.86,-0.323,0.103,-0.23
12.87,-0.143,1.869,0.06
12.88,-0.031,0.739,0.059
12.89,-0.055,0.602,-0.026
12.9,-0.443,0.651,-0.179
12.91,-0.018,1.49,0.073
12.92,-0.104,1.35,0.164
12.93,0.095,0.544,-0.062
12.94,-0.571,0.9,-0.178
12.95,-0.027,1.541,0.177
12.96,-0.309,1.045,0.079
12.97,0.028,0.633,-0.019
12.98,-0.511,0.617,-0.153
12.99,-0.038,1.796,0.165
13.0,-0.098,0.814,0.097
13.01,-0.047,0.838,-0.09
13.02,-0.342,0.212,-0.094
13.03,-0.259,1.604,0.124
13.04,-0.109,0.772,0.07
13.05,-0.202,1.066,-0.09
13.06,-0.264,0.498,-0.165
13.07,-0.031,1.732,0.182
13.08,-0.112,1.114,-0.018
13.09,-0.04,0.527,-0.1
13.1,-0.441,0.921,-0.163
13.11,-0.101,1.18,0.188
13.12,-0.341,1.561,0.077
13.13,-0.098,0.384,-0.008
13.14,-0.333,0.818,-0.062
13.15,-0.136,1.301,0.163
13.16,-0.192,0.854,0.03
13.17,-0.39,1.05,-0.128
13.18,-0.285,0.169,-0.034
13.19,-0.153,1.659,0.29
13.2,-0.062,0.88,0.068
13.21,-0.159,0.94,-0.149
13.22,-0.342,0.481,-0.099
13.23,-0.022,1.142,0.185
13.24,-0.185,1.392,-0.167
13.25,0.022,0.336,-0.138
13.26,-0.271,1.706,-0.141
13.27,0.027,0.779,0.196
13.28,-0.247,1.118,0.049
13.29,-0.323,0.581,-0.249
13.3,-0.396,0.803,-0.06
13.31,-0.119,1.019,0.177
13.32,-0.182,1.035,0.034
13.33,-0.272,0.83,-0.086
13.34,-0.295,0.795,-0.008
13.35,-0.204,1.169,0.186
13.36,-0.272,0.882,0.034
13.37,-0.27,0.823,-0.076
13.38,-0.163,1.498,-0.01
13.39,0.131,0.965,0.106
13.4,0.001,0.736,-0.049
13.41,-0.406,0.542,-0.151
13.42,-0.453,1.637,0.072
13.43,-0.298,0.631,0.141
13.44,-0.26,1.315,-0.002
13.45,-0.269,0.174,-0.152
13.46,-0.396,1.806,0.089
13.47,-0.194,0.675,0.175
13.48,-0.177,0.802,0.026
13.49,-0.393,0.655,-0.127
13.5,-0.06,1.565,0.004
13.51,-0.109,1.242,0.125
13.52,0.118,0.42,-0.019
13.53,-0.562,0.9,-0.195
13.54,-0.131,1.531,0.129
13.55,-0.389,0.802,0.06
13.56,-0.114,0.92,0.018
13.57,-0.447,0.304,-0.199
13.58,-0.072,2.0,0.062
13.59,-0.043,0.575,0.103
13.6,-0.106,0.877,-0.06
13.61,-0.352,0.12,-0.156
13.62,-0.147,1.901,0.072
13.63,-0.014,0.902,0.153
13.64,0.005,0.807,-0.057
13.65,-0.529,0.68,-0.16
13.66,-0.03,1.677,0.234
13.67,-0.367,1.101,0.111
13.68,0.047,0.502,-0.067
13.69,-0.46,0.968,-0.204
13.7,0.061,1.512,0.159
13.71,-0.146,1.175,0.047
13.72,0.029,0.603,-0.056
13.73,-0.327,0.734,-0.14
13.74,-0.138,1.296,0.081
13.75,-0.14,0.955,0.021
13.76,-0.241,1.028,-0.164
13.77,-0.345,0.219,-0.059
13.78,-0.271,1.706,0.25
13.79,-0.201,0.864,0.118
13.8,-0.243,0.94,-0.103
13.81,-0.4,0.435,-0.087
13.82,-0.183,1.229,0.201
13.83,-0.319,1.357,0.02
13.84,0.001,0.394,-0.089
13.85,-0.426,1.297,-0.067
13.86,0.026,0.831,0.174
13.87,-0.318,1.209,0.049
13.88,-0.258,0.54,-0.167
13.89,-0.367,0.783,-0.094
13.9,-0.141,1.141,0.23
13.91,-0.103,1.121,0.019
13.92,-0.269,0.792,-0.104
13.93,-0.277,0.557,-0.054
13.94,-0.066,1.333,0.152
13.95,-0.165,0.919,-0.078
13.96,-0.238,0.838,-0.143
13.97,-0.121,1.31,-0.126
13.98,-0.03,0.963,0.159
13.99,-0.122,0.841,0.002
14.0,-0.401,0.616,-0.215
14.01,-0.367,1.24,-0.044
14.02,-0.101,0.754,0.127
14.03,-0.355,1.378,-0.004
14.04,-0.17,0.273,-0.126
14.05,-0.294,1.723,-0.007
14.06,-0.04,0.759,0.162
14.07,-0.186,0.9,-0.003
14.08,-0.31,0.823,-0.141
14.09,-0.188,1.482,0.07
14.1,-0.052,1.244,0.226
14.11,-0.027,0.404,0.027
14.12,-0.57,0.939,-0.163
14.13,-0.351,1.189,0.148
14.14,-0.406,0.931,0.175
14.15,-0.245,1.014,-0.004
14.16,-0.35,0.408,-0.156
14.17,-0.306,1.912,0.148
14.18,-0.03,0.453,0.134
14.19,-0.201,1.045,0.019
14.2,-0.411,0.188,-0.136
14.21,-0.142,1.921,0.101
14.22,0.056,1.018,0.135
14.23,-0.054,0.714,-0.009
14.24,-0.484,0.622,-0.227
14.25,-0.167,1.504,0.114
14.26,-0.332,0.969,0.027
14.27,-0.007,0.592,-0.015
14.28,-0.542,0.837,-0.243
14.29,0.036,1.492,0.073
14.3,-0.076,1.056,0.048
14.31,0.044,0.543,-0.05
14.32,-0.451,0.402,-0.159
14.33,-0.098,1.842,0.048
14.34,-0.063,0.721,0.135
14.35,-0.108,1.149,-0.087
14.36,-0.406,0.227,-0.207
14.37,-0.137,2.0,0.166
14.38,-0.227,0.677,0.097
14.39,-0.038,0.692,-0.102
14.4,-0.401,0.662,-0.212
14.41,-0.091,1.538,0.182
14.42,-0.26,1.341,0.191
14.43,0.005,0.406,-0.035
14.44,-0.438,0.873,-0.087
14.45,-0.058,1.361,0.129
14.46,-0.151,1.259,-0.004
14.47,-0.072,0.751,-0.117
14.48,-0.351,0.522,-0.192
14.49,-0.028,1.922,0.175
14.5,-0.19,0.859,0.092
14.51,-0.158,0.969,-0.061
14.52,-0.414,0.225,-0.103
14.53,-0.227,1.715,0.148
14.54,-0.199,0.945,0.051
14.55,-0.209,0.953,-0.086
14.56,-0.323,0.426,-0.086
14.57,-0.097,1.245,0.179
14.58,-0.226,1.173,0.017
14.59,-0.204,0.578,-0.13
14.6,-0.451,0.823,-0.057
14.61,-0.005,0.893,0.234
14.62,-0.374,1.627,0.103
14.63,-0.099,0.29,-0.08
14.64,-0.444,0.955,-0.058
14.65,0.007,0.987,0.114
14.66,-0.238,1.206,-0.067
14.67,-0.199,0.712,-0.092
14.68,-0.215,1.022,-0.044
14.69,-0.138,1.173,0.159
14.7,-0.09,0.644,-0.009
14.71,-0.415,0.951,-0.213
14.72,-0.176,0.777,-0.081
14.73,-0.148,1.117,0.123
14.74,-0.259,1.031,-0.028
14.75,-0.116,0.54,-0.171
14.76,-0.372,1.563,-0.024
14.77,0.089,0.649,0.121
14.78,-0.314,1.411,-0.062
14.79,-0.175,0.269,-0.141
14.8,-0.337,1.829,0.041
14.81,0.003,0.688,0.147
14.82,-0.141,0.837,0.007
14.83,-0.406,0.694,-0.254
14.84,-0.237,1.436,0.054
14.85,-0.257,1.005,0.112
14.86,-0.051,0.552,0.02
14.87,-0.536,0.822,-0.205
14.88,0.005,1.511,0.022
14.89,-0.146,1.014,0.103
14.9,-0.061,0.613,0.01
14.91,-0.413,0.452,-0.177
14.92,-0.194,2.0,0.051
14.93,-0.072,0.53,0.106
14.94,-0.104,1.053,0.002
14.95,-0.448,0.172,-0.222
14.96,-0.178,2.0,0.08
14.97,-0.217,0.548,0.077
14.98,-0.017,0.815,-0.016
14.99,-0.509,0.55,-0.228
15.0,-0.067,1.635,0.171
15.01,-0.198,1.144,0.126
15.02,0.092,0.354,-0.012
15.03,-0.483,0.861,-0.187
15.04,0.002,1.554,0.162
15.05,-0.177,1.204,0.093
15.06,-0.016,0.625,-0.046
15.07,-0.423,0.573,-0.159
15.08,-0.088,1.931,0.228
15.09,-0.143,0.683,0.083
15.1,-0.146,0.954,-0.03
15.11,-0.356,0.211,-0.138
15.12,-0.172,2.0,0.175
15.13,-0.115,0.81,0.087
15.14,-0.099,0.827,-0.079
15.15,-0.361,0.493,-0.174
15.16,-0.031,1.547,0.113
15.17,-0.221,1.374,0.043
15.18,0.116,0.515,-0.11
15.19,-0.407,0.924,-0.144
15.2,0.077,1.473,0.172
15.21,-0.204,1.295,0.001
15.22,0.005,0.625,-0.093
15.23,-0.391,0.592,-0.14
15.24,-0.151,1.554,0.127
15.25,-0.185,0.995,0.028
15.26,-0.104,1.036,-0.078
15.27,-0.312,0.182,-0.094
15.28,-0.247,1.57,0.15
15.29,-0.224,0.998,0.049
15.3,-0.167,0.902,-0.132
15.31,-0.367,0.518,-0.126
15.32,-0.1,1.285,0.235
15.33,-0.224,1.421,0.033
15.34,-0.132,0.581,-0.145
15.35,-0.352,0.976,-0.111
15.36,0.09,0.827,0.127
15.37,-0.331,1.537,-0.073
15.38,-0.121,0.269,-0.109
15.39,-0.283,1.253,-0.031
15.4,0.029,0.901,0.139
15.41,-0.223,1.129,-0.016
15.42,-0.346,0.682,-0.151
15.43,-0.272,0.743,-0.053
15.44,-0.125,1.212,0.13
15.45,-0.111,0.817,-0.033
15.46,-0.311,0.894,-0.118
15.47,-0.171,1.246,-0.02
15.48,-0.169,0.953,0.183
15.49,-0.217,0.926,0.078
15.5,-0.394,0.545,-0.126
15.51,-0.427,1.762,0.037
15.52,-0.147,0.592,0.137
15.53,-0.238,1.271,-0.012
15.54,-0.314,0.181,-0.182
15.55,-0.423,1.791,0.069
15.56,-0.196,0.623,0.153
15.57,-0.228,1.054,0.068
15.58,-0.31,0.537,-0.217
15.59,-0.182,1.549,0.044
15.6,-0.085,1.027,0.163
15.61,0.035,0.486,0.01
15.62,-0.484,0.806,-0.192
15.63,-0.115,1.437,0.045
15.64,-0.258,0.944,0.068
15.65,-0.048,0.75,0.006
15.66,-0.431,0.473,-0.181
15.67,-0.229,1.809,0.093
15.68,-0.214,0.526,0.106
15.69,-0.203,1.051,0.01
15.7,-0.323,0.165,-0.161
15.71,-0.17,2.0,0.054
15.72,-0.014,0.62,0.121
15.73,-0.112,0.782,-0.043
15.74,-0.493,0.442,-0.168
15.75,-0.023,1.726,0.121
15.76,-0.205,1.106,0.108
15.77,0.1,0.418,-0.049
15.78,-0.56,0.901,-0.185
15.79,-0.046,1.583,0.214
15.8,-0.349,1.069,0.105
15.81,0.021,0.539,-0.026
15.82,-0.555,0.602,-0.154
15.83,-0.103,1.754,0.132
15.84,-0.098,0.808,0.09
15.85,-0.031,0.972,-0.052
15.86,-0.355,0.191,-0.095
15.87,-0.151,1.945,0.146
15.88,-0.134,0.828,0.094
15.89,-0.138,0.957,-0.084
15.9,-0.375,0.508,-0.163
15.91,0.005,1.769,0.209
15.92,-0.273,1.192,0.018
15.93,0.026,0.432,-0.042
15.94,-0.449,0.864,-0.169
15.95,-0.026,1.329,0.172
15.96,-0.314,1.392,0.063
15.97,0.014,0.599,-0.048
15.98,-0.455,0.64,-0.168
15.99,-0.067,1.547,0.136
16.0,-0.208,1.004,0.059
16.01,-0.182,1.011,-0.083
16.02,-0.396,0.214,-0.065
16.03,-0.246,1.69,0.203
16.04,-0.148,0.98,0.083
16.05,-0.158,0.918,-0.1
16.06,-0.372,0.487,-0.139
16.07,-0.118,1.305,0.182
16.08,-0.285,1.344,0.015
16.09,-0.014,0.512,-0.128
16.1,-0.478,0.889,-0.14
16.11,0.006,0.942,0.199
16.12,-0.351,1.51,0.021
16.13,-0.08,0.521,-0.116
16.14,-0.476,1.031,-0.018
16.15,-0.009,0.887,0.221
16.16,-0.316,1.267,0.029
16.17,-0.179,0.617,-0.146
16.18,-0.391,0.79,-0.042
16.19,-0.037,1.215,0.188
16.2,-0.206,0.828,-0.017
16.21,-0.292,0.922,-0.128
16.22,-0.226,0.943,-0.052
16.23,-0.053,1.161,0.163
16.24,-0.226,0.901,-0.008
16.25,-0.379,0.66,-0.157
16.26,-0.38,1.124,-0.084
16.27,-0.057,0.881,0.135
16.28,-0.317,1.326,-0.035
16.29,-0.177,0.268,-0.12
16.3,-0.349,1.82,-0.029
16.31,0.025,0.646,0.197
16.32,-0.332,1.075,0.036
16.33,-0.427,0.623,-0.172
16.34,-0.208,1.552,-0.014
16.35,-0.178,1.038,0.116
16.36,-0.049,0.682,0.019
16.37,-0.57,0.854,-0.217
16.38,-0.236,1.114,0.071
16.39,-0.316,1.103,0.176
16.4,-0.204,0.892,0.031
16.41,-0.321,0.581,-0.162
16.42,-0.197,1.777,0.036
16.43,0.087,0.71,0.203
16.44,-0.208,0.984,-0.0
16.45,-0.362,0.22,-0.163
16.46,-0.401,2.0,0.068
16.47,-0.079,0.616,0.162
16.48,-0.223,0.939,0.025
16.49,-0.431,0.409,-0.195
16.5,-0.269,1.664,0.139
16.51,-0.179,0.887,0.119
16.52,0.001,0.539,0.012
16.53,-0.534,0.807,-0.165
16.54,-0.068,1.487,0.017
16.55,-0.111,1.078,0.098
16.56,-0.018,0.548,0.063
16.57,-0.479,0.62,-0.146
16.58,-0.111,1.864,0.073
16.59,-0.115,0.724,0.134
16.6,-0.083,0.912,-0.016
16.61,-0.393,0.216,-0.179
16.62,-0.2,2.0,0.101
16.63,-0.153,0.516,0.06
16.64,-0.168,0.903,-0.017
16.65,-0.403,0.304,-0.187
16.66,-0.096,1.855,0.103
16.67,-0.172,1.012,0.102
16.68,0.081,0.421,-0.076
16.69,-0.512,0.802,-0.218
16.7,0.049,1.585,0.142
16.71,-0.269,1.255,0.037
16.72,0.08,0.575,-0.018
16.73,-0.418,0.747,-0.213
16.74,-0.027,1.788,0.179
16.75,-0.159,0.799,0.019
16.76,-0.069,0.878,-0.052
16.77,-0.305,0.222,-0.149
16.78,-0.136,2.0,0.154
16.79,0.042,0.723,0.053
16.8,-0.127,0.872,-0.091
16.81,-0.329,0.325,-0.184
16.82,-0.148,1.622,0.114
16.83,-0.254,1.153,0.093
16.84,-0.024,0.67,-0.067
16.85,-0.45,0.876,-0.171
16.86,0.065,1.435,0.173
16.87,-0.276,1.448,0.046
16.88,-0.029,0.536,-0.038
16.89,-0.472,0.753,-0.12
16.9,-0.09,1.52,0.171
16.91,-0.231,1.156,0.094
16.92,-0.085,0.898,-0.101
16.93,-0.386,0.246,-0.075
16.94,-0.234,1.548,0.193
16.95,-0.116,0.872,-0.03
16.96,-0.281,0.96,-0.151
16.97,-0.287,0.288,-0.036
16.98,-0.14,1.333,0.179
16.99,-0.184,1.035,-0.036
17.0,-0.17,0.715,-0.103
17.01,-0.35,0.81,-0.043
17.02,0.027,0.898,0.159
17.03,-0.311,1.48,-0.076
17.04,-0.05,0.295,-0.162
17.05,-0.283,1.558,-0.078
17.06,0.052,0.744,0.105
17.07,-0.31,1.263,-0.013
17.08,-0.235,0.575,-0.185
17.09,-0.289,1.194,-0.029
17.1,-0.097,1.065,0.102
17.11,-0.155,0.788,-0.034
17.12,-0.302,0.853,-0.182
17.13,-0.283,1.097,-0.005
17.14,-0.11,1.123,0.099
17.15,-0.222,0.852,0.006
17.16,-0.218,0.716,-0.189
17.17,-0.219,1.669,0.019
17.18,-0.019,0.69,0.159
17.19,-0.152,1.036,-0.007
17.2,-0.257,0.213,-0.215
17.21,-0.366,2.0,0.118
17.22,-0.111,0.552,0.119
17.23,-0.206,1.035,0.025
17.24,-0.353,0.267,-0.269
17.25,-0.247,1.694,0.087
17.26,-0.166,0.842,0.072
17.27,-0.103,0.598,0.035
17.28,-0.453,0.839,-0.172
17.29,-0.131,1.529,0.073
17.3,-0.185,1.012,0.141
17.31,-0.029,0.498,0.033
17.32,-0.482,0.7,-0.152
17.33,-0.025,1.83,0.056
17.34,-0.179,0.744,0.119
17.35,-0.048,0.872,-0.037
17.36,-0.431,0.231,-0.182
17.37,-0.137,2.0,0.185
17.38,-0.097,0.633,0.143
17.39,-0.15,0.855,-0.03
17.4,-0.421,0.319,-0.156
17.41,-0.127,1.792,0.17
17.42,-0.096,1.104,0.08
17.43,0.009,0.559,-0.078
17.44,-0.469,0.829,-0.139
17.45,0.063,1.496,0.193
17.46,-0.286,1.333,0.08
17.47,0.105,0.546,-0.04
17.48,-0.415,0.737,-0.196
17.49,0.012,1.646,0.132
17.5,-0.201,1.074,0.041
17.51,-0.064,0.911,-0.065
17.52,-0.354,0.204,-0.091
17.53,-0.283,1.774,0.149
17.54,-0.154,0.88,0.089
17.55,-0.228,0.99,-0.063
17.56,-0.325,0.316,-0.078
17.57,-0.285,1.428,0.192
17.58,-0.216,1.195,0.0
17.59,-0.079,0.609,-0.067
17.6,-0.444,0.854,-0.073
17.61,-0.134,0.924,0.251
17.62,-0.329,1.554,0.02
17.63,-0.09,0.359,-0.078
17.64,-0.37,0.905,-0.055
17.65,-0.045,0.999,0.125
17.66,-0.284,1.214,-0.011
17.67,-0.166,0.675,-0.09
17.68,-0.307,0.532,-0.035
17.69,-0.143,1.373,0.16
17.7,-0.116,0.828,-0.011
17.71,-0.359,0.877,-0.112
17.72,-0.209,0.603,-0.072
17.73,-0.204,1.115,0.126
17.74,-0.179,1.192,-0.065
17.75,-0.238,0.626,-0.15
17.76,-0.246,1.535,-0.027
17.77,-0.116,0.743,0.134
17.78,-0.259,1.19,-0.019
17.79,-0.188,0.182,-0.222
17.8,-0.443,1.941,0.092
17.81,-0.092,0.543,0.1
17.82,-0.261,1.097,-0.003
17.83,-0.394,0.3,-0.26
17.84,-0.195,1.719,0.064
17.85,-0.19,0.819,0.082
17.86,-0.067,0.54,-0.016
17.87,-0.439,0.792,-0.19
17.88,-0.049,1.542,0.068
17.89,-0.144,1.147,0.135
17.9,0.005,0.441,-0.004
17.91,-0.454,0.695,-0.167
17.92,-0.041,1.817,0.128
17.93,-0.194,1.353,0.217
17.94,-0.143,1.082,-0.055
17.95,-0.278,0.844,-0.109
17.96,-0.228,0.461,-0.045
17.97,-0.107,1.27,0.13
17.98,-0.198,0.858,0.031
17.99,-0.346,0.851,-0.151
18.0,-0.18,1.139,-0.086
18.01,-0.141,0.948,0.129
18.02,-0.248,1.141,-0.016
18.03,-0.26,0.373,-0.15
18.04,-0.355,1.885,0.049
18.05,-0.104,0.554,0.182
18.06,-0.215,1.191,0.055
18.07,-0.313,0.289,-0.205
18.08,-0.407,1.718,0.071
18.09,-0.193,0.741,0.106
18.1,-0.186,0.906,0.008
18.11,-0.343,0.622,-0.207
18.12,-0.167,1.426,0.038
18.13,-0.191,0.969,0.09
18.14,-0.001,0.52,0.024
18.15,-0.535,0.744,-0.209
18.16,0.031,1.645,0.048
18.17,-0.132,1.026,0.117
18.18,-0.03,0.656,-0.014
18.19,-0.4,0.353,-0.191
18.2,-0.198,2.0,0.167
18.21,-0.161,0.538,0.048
18.22,-0.153,0.984,0.019
18.23,-0.437,0.213,-0.177
18.24,-0.18,2.0,0.174
18.25,-0.111,0.773,0.082
18.26,-0.043,0.608,-0.037
18.27,-0.427,0.624,-0.164
18.28,-0.095,1.521,0.147
18.29,-0.198,1.326,0.071
18.3,0.077,0.473,-0.068
18.31,-0.555,0.86,-0.139
18.32,0.021,1.486,0.18
18.33,-0.196,1.241,0.038
18.34,-0.032,0.755,-0.085
18.35,-0.381,0.377,-0.164
18.36,-0.103,1.774,0.156
18.37,-0.171,0.949,0.059
18.38,-0.142,1.025,-0.117
18.39,-0.253,0.181,-0.139
18.4,-0.236,1.587,0.149
18.41,-0.174,1.058,-0.005
18.42,-0.198,0.764,-0.112
18.43,-0.371,0.667,-0.098
18.44,-0.15,1.077,0.252
18.45,-0.32,1.521,0.044
18.46,-0.023,0.434,-0.07
18.47,-0.513,0.922,-0.061
18.48,0.113,0.8,0.127
18.49,-0.373,1.492,-0.03
18.5,-0.156,0.337,-0.157
18.51,-0.271,1.365,-0.056
18.52,0.005,0.901,0.142
18.53,-0.233,0.966,-0.006
18.54,-0.402,0.842,-0.161
18.55,-0.245,1.136,0.029
18.56,-0.167,1.132,0.123
18.57,-0.161,0.741,0.01
18.58,-0.375,0.839,-0.16
18.59,-0.381,1.374,0.076
18.6,-0.127,0.843,0.17
18.61,-0.228,1.091,0.023
18.62,-0.306,0.386,-0.249
18.63,-0.259,1.915,0.098
18.64,0.043,0.566,0.11
18.65,-0.168,1.078,-0.005
18.66,-0.262,0.215,-0.264
18.67,-0.295,1.914,0.053
18.68,-0.14,0.649,0.09
18.69,-0.126,0.799,-0.0
18.7,-0.434,0.633,-0.219
18.71,-0.12,1.48,0.051
18.72,-0.2,0.976,0.049
18.73,-0.002,0.479,-0.001
18.74,-0.486,0.783,-0.189
18.75,0.017,1.643,0.026
18.76,-0.072,0.946,0.081
18.77,0.03,0.738,-0.073
18.78,-0.403,0.317,-0.169
18.79,-0.085,2.0,0.173
18.8,-0.062,0.651,0.086
18.81,-0.092,0.967,-0.025
18.82,-0.385,0.182,-0.168
18.83,-0.181,2.0,0.167
18.84,-0.056,0.823,0.068
18.85,-0.051,0.626,-0.089
18.86,-0.46,0.664,-0.171
18.87,-0.115,1.351,0.18
18.88,-0.277,1.406,0.132
18.89,0.004,0.462,-0.035
18.9,-0.413,0.893,-0.114
18.91,-0.044,1.4,0.166
18.92,-0.144,1.272,0.011
18.93,-0.05,0.828,-0.139
18.94,-0.398,0.376,-0.127
18.95,-0.14,1.761,0.159
18.96,-0.101,0.914,0.044
18.97,-0.167,1.011,-0.107
18.98,-0.386,0.212,-0.082
18.99,-0.27,1.532,0.165
19.0,-0.225,1.043,-0.019
19.01,-0.144,0.741,-0.091
19.02,-0.392,0.72,-0.076
19.03,-0.107,1.001,0.245
19.04,-0.267,1.414,-0.009
19.05,-0.136,0.392,-0.148
19.06,-0.353,1.006,-0.065
19.07,-0.104,0.861,0.242
19.08,-0.226,1.493,0.026
19.09,-0.241,0.459,-0.054
19.1,-0.265,0.771,-0.019
19.11,-0.133,1.206,0.16
19.12,-0.069,0.875,-0.022
19.13,-0.329,0.938,-0.161
19.14,-0.156,0.779,-0.021
19.15,-0.179,1.206,0.196
19.16,-0.182,0.892,0.004
19.17,-0.356,0.693,-0.138
19.18,-0.316,1.286,-0.009
19.19,-0.125,0.802,0.139
19.2,-0.289,1.334,-0.0
19.21,-0.199,0.198,-0.138
19.22,-0.411,1.881,0.076
19.23,-0.079,0.632,0.176
19.24,-0.152,1.127,-0.012
19.25,-0.291,0.512,-0.179
19.26,-0.244,1.639,0.079
19.27,-0.081,0.984,0.145
19.28,0.019,0.662,-0.019
19.29,-0.439,0.686,-0.251
19.3,-0.053,1.55,0.024
19.31,-0.233,1.019,0.086
19.32,0.014,0.446,0.021
19.33,-0.51,0.803,-0.187
19.34,-0.055,1.67,0.039
19.35,-0.161,0.95,0.105
19.36,-0.063,0.631,-0.011
19.37,-0.447,0.383,-0.142
19.38,-0.174,2.0,0.173
19.39,-0.139,0.613,0.095
19.4,-0.151,0.952,-0.024
19.41,-0.362,0.161,-0.165
19.42,-0.114,2.0,0.197
19.43,-0.136,0.844,0.052
19.44,-0.031,0.67,-0.046
19.45,-0.393,0.633,-0.179
19.46,0.016,1.606,0.192
19.47,-0.212,1.337,0.049
19.48,0.028,0.461,-0.055
19.49,-0.495,0.855,-0.162
19.5,-0.038,1.513,0.163
19.51,-0.234,1.265,0.062
19.52,-0.013,0.783,-0.063
19.53,-0.394,0.407,-0.102
19.54,-0.174,1.635,0.156
19.55,-0.073,0.98,0.012
19.56,-0.186,0.97,-0.153
19.57,-0.354,0.225,-0.108
19.58,-0.211,1.462,0.179
19.59,-0.187,0.987,-0.03
19.6,-0.216,0.94,-0.104
19.61,-0.239,0.799,-0.042
19.62,-0.036,1.038,0.224
19.63,-0.269,1.205,-0.053
19.64,-0.166,0.475,-0.177
19.65,-0.192,1.435,-0.16
19.66,0.086,0.753,0.071
19.67,-0.297,1.341,-0.061
19.68,-0.198,0.391,-0.197
19.69,-0.279,1.557,-0.056
19.7,-0.112,0.879,0.193
19.71,-0.302,0.949,0.042
19.72,-0.329,0.708,-0.15
19.73,-0.346,1.37,0.086
19.74,-0.19,1.122,0.189
19.75,-0.13,0.624,0.09
19.76,-0.417,0.838,-0.156
19.77,-0.351,1.469,0.093
19.78,-0.148,0.787,0.071
19.79,-0.105,1.003,-0.002
19.8,-0.386,0.387,-0.23
19.81,-0.256,1.908,0.101
19.82,-0.033,0.51,0.09
19.83,-0.198,1.074,0.067
19.84,-0.332,0.192,-0.181
19.85,-0.236,2.0,0.037
19.86,-0.11,0.734,0.108
19.87,-0.084,0.647,-0.026
19.88,-0.469,0.6,-0.207
19.89,-0.062,1.625,0.056
19.9,-0.224,1.066,0.091
19.91,0.043,0.393,-0.023
19.92,-0.534,0.789,-0.193
19.93,-0.0,1.648,0.143
19.94,-0.23,0.965,0.093
19.95,0.087,0.693,-0.086
19.96,-0.434,0.38,-0.191
19.97,-0.076,2.0,0.103
19.98,-0.069,0.684,0.087
19.99,-0.099,1.023,-0.106
20.0,-0.317,0.177,-0.141
20.01,-0.145,1.885,0.12
20.02,-0.196,0.999,0.099
20.03,-0.066,0.755,-0.071
20.04,-0.307,0.624,-0.151
20.05,-0.047,1.502,0.13
20.06,-0.196,1.439,0.005
20.07,-0.099,0.433,-0.096
20.08,-0.429,0.866,-0.148
20.09,-0.168,0.972,0.282
20.1,-0.307,1.589,0.022
20.11,-0.118,0.428,-0.031
20.12,-0.351,0.786,-0.064
20.13,-0.053,1.123,0.223
20.14,-0.125,1.102,-0.084
20.15,-0.315,0.873,-0.154
20.16,-0.194,0.51,-0.044
20.17,-0.191,1.384,0.152
20.18,-0.14,0.798,-0.018
20.19,-0.188,0.88,-0.127
20.2,-0.283,1.167,-0.102
20.21,-0.017,0.945,0.144
20.22,-0.248,1.133,-0.091
20.23,-0.296,0.409,-0.188
20.24,-0.363,1.497,-0.046
20.25,-0.097,0.729,0.152
20.26,-0.31,1.327,0.038
20.27,-0.22,0.338,-0.116
20.28,-0.375,1.67,0.046
20.29,-0.14,0.755,0.16
20.3,-0.21,0.909,0.051
20.31,-0.429,0.695,-0.138
20.32,-0.289,1.36,0.064
20.33,-0.24,1.019,0.121
20.34,-0.101,0.601,0.02
20.35,-0.499,0.823,-0.148
20.36,-0.293,1.439,0.104
20.37,-0.248,0.765,0.13
20.38,-0.111,0.902,0.025
20.39,-0.404,0.339,-0.162
20.4,-0.114,2.0,0.031
20.41,0.025,0.63,0.058
20.42,-0.187,0.9,-0.016
20.43,-0.277,0.151,-0.231
20.44,-0.145,2.0,0.056
20.45,-0.125,0.669,0.055
20.46,-0.043,0.674,-0.07
20.47,-0.47,0.641,-0.211
20.48,-0.046,1.609,0.156
20.49,-0.274,1.204,0.14
20.5,0.032,0.351,-0.019
20.51,-0.565,0.911,-0.126
20.52,-0.136,1.544,0.202
20.53,-0.167,1.185,0.109
20.54,-0.02,0.769,-0.089
20.55,-0.323,0.356,-0.091
20.56,-0.087,1.952,0.137
20.57,-0.068,0.851,0.077
20.58,-0.066,1.073,-0.162
20.59,-0.335,0.167,-0.143
20.6,-0.14,1.831,0.15
20.61,-0.112,1.071,-0.015
20.62,-0.124,0.656,-0.139
20.63,-0.346,0.67,-0.119
20.64,-0.183,1.145,0.175
20.65,-0.312,1.448,-0.021
20.66,0.001,0.389,-0.093
20.67,-0.376,0.973,-0.037
20.68,-0.066,0.913,0.219
20.69,-0.239,1.382,-0.052
20.7,-0.236,0.558,-0.089
20.71,-0.294,0.562,-0.054
20.72,-0.086,1.272,0.18
20.73,-0.196,0.94,0.005
20.74,-0.322,0.913,-0.109
20.75,-0.287,0.662,-0.033
20.76,-0.077,1.21,0.154
20.77,-0.192,0.991,-0.066
20.78,-0.218,0.725,-0.123
20.79,-0.306,1.504,-0.085
20.8,0.083,0.711,0.116
20.81,-0.331,1.28,-0.01
20.82,-0.183,0.333,-0.207
20.83,-0.437,1.771,0.048
20.84,-0.096,0.652,0.145
20.85,-0.323,1.211,0.017
20.86,-0.259,0.427,-0.193
20.87,-0.347,1.525,0.152
20.88,-0.182,0.926,0.161
20.89,-0.043,0.67,0.021
20.9,-0.47,0.69,-0.176
20.91,-0.045,1.621,0.055
20.92,-0.21,1.043,0.138
20.93,0.098,0.445,-0.027
20.94,-0.511,0.787,-0.209
20.95,-0.02,1.647,0.114
20.96,-0.23,0.896,0.068
20.97,-0.047,0.7,-0.042
20.98,-0.438,0.34,-0.141
20.99,-0.157,2.0,0.181
21.0,-0.031,0.719,0.097
21.01,-0.136,0.954,-0.068
21.02,-0.336,0.156,-0.13
21.03,-0.108,1.862,0.114
21.04,-0.101,0.965,0.082
21.05,-0.044,0.799,-0.048
21.06,-0.443,0.693,-0.156
21.07,0.076,1.627,0.209
21.08,-0.28,1.312,0.004
21.09,0.05,0.388,-0.065
21.1,-0.465,0.879,-0.183
21.11,-0.068,1.285,0.202
21.12,-0.241,1.306,0.028
21.13,-0.097,0.735,-0.096
21.14,-0.309,0.452,-0.091
21.15,-0.229,1.463,0.139
21.16,-0.197,0.866,0.041
21.17,-0.382,1.085,-0.091
21.18,-0.34,0.224,-0.055
21.19,-0.178,1.517,0.305
21.2,-0.157,1.137,0.033
21.21,-0.127,0.718,-0.109
21.22,-0.331,0.911,-0.092
21.23,0.007,0.945,0.172
21.24,-0.303,1.483,-0.064
21.25,-0.011,0.328,-0.131
21.26,-0.299,1.443,-0.082
21.27,0.107,0.805,0.093
21.28,-0.232,1.148,-0.032
21.29,-0.275,0.672,-0.198
21.3,-0.281,0.707,-0.049
21.31,-0.105,1.148,0.126
21.32,-0.073,0.847,-0.032
21.33,-0.257,0.879,-0.155
21.34,-0.125,1.163,-0.042
21.35,-0.162,1.01,0.098
21.36,-0.187,0.882,-0.006
21.37,-0.309,0.657,-0.153
21.38,-0.316,1.719,0.11
21.39,-0.046,0.709,0.217
21.4,-0.217,1.072,0.044
21.41,-0.392,0.304,-0.156
21.42,-0.475,1.832,0.144
21.43,-0.158,0.586,0.102
21.44,-0.309,1.113,-0.0
21.45,-0.244,0.297,-0.197
21.46,-0.181,1.681,0.038
21.47,-0.101,0.948,0.123
21.48,-0.064,0.464,0.008
21.49,-0.474,0.792,-0.18
21.5,-0.08,1.542,0.135
21.51,-0.118,1.184,0.136
21.52,0.022,0.504,0.012
21.53,-0.468,0.633,-0.203
21.54,-0.043,1.832,0.076
21.55,-0.235,0.665,0.054
21.56,-0.097,0.98,-0.01
21.57,-0.425,0.179,-0.159
21.58,-0.125,2.0,0.192
21.59,-0.077,0.637,0.075
21.6,-0.051,0.801,-0.066
21.61,-0.445,0.312,-0.168
21.62,-0.09,1.766,0.171
21.63,-0.173,1.117,0.096
21.64,0.051,0.56,-0.076
21.65,-0.527,0.905,-0.139
21.66,0.002,1.543,0.212
21.67,-0.319,1.267,0.071
21.68,0.072,0.539,-0.036
21.69,-0.491,0.806,-0.133
21.7,-0.081,1.32,0.211
21.71,-0.283,1.294,0.093
21.72,-0.171,0.682,-0.083
21.73,-0.353,0.395,-0.094
21.74,-0.25,1.473,0.174
21.75,-0.149,0.862,0.051
21.76,-0.263,1.022,-0.078
21.77,-0.329,0.312,-0.024
21.78,-0.212,1.409,0.249
21.79,-0.1,1.08,0.02
21.8,-0.178,0.718,-0.127
21.81,-0.446,0.802,-0.021
21.82,-0.055,0.928,0.191
21.83,-0.291,1.431,0.01
21.84,-0.021,0.365,-0.168
21.85,-0.423,1.25,-0.064
21.86,0.019,0.894,0.179
21.87,-0.309,1.214,0.033
21.88,-0.224,0.562,-0.174
21.89,-0.336,0.753,-0.044
21.9,-0.062,1.227,0.156
21.91,-0.095,0.84,0.024
21.92,-0.26,0.9,-0.102
21.93,-0.231,0.913,-0.03
21.94,-0.15,1.164,0.176
21.95,-0.19,0.898,0.013
21.96,-0.319,0.677,-0.133
21.97,-0.263,1.414,-0.066
21.98,-0.11,0.773,0.145
21.99,-0.292,1.293,0.007
22.0,-0.215,0.262,-0.18
22.01,-0.358,1.494,-0.021
22.02,-0.058,0.716,0.089
22.03,-0.212,1.277,-0.027
22.04,-0.244,0.461,-0.165
22.05,-0.233,1.418,-0.051
22.06,-0.126,1.043,0.128
22.07,-0.133,0.743,-0.005
22.08,-0.384,0.896,-0.204
22.09,-0.233,1.253,-0.031
22.1,-0.174,1.051,0.1
22.11,-0.182,0.835,0.016
22.12,-0.389,0.697,-0.16
22.13,-0.343,1.559,0.083
22.14,-0.212,0.682,0.157
22.15,-0.293,1.199,0.017
22.16,-0.248,0.157,-0.166
22.17,-0.299,1.996,0.065
22.18,-0.037,0.539,0.116
22.19,-0.198,0.978,0.034
22.2,-0.433,0.38,-0.183
22.21,-0.185,1.766,0.079
22.22,-0.167,0.892,0.134
22.23,-0.018,0.53,0.043
22.24,-0.557,0.839,-0.174
22.25,-0.152,1.369,0.119
22.26,-0.302,1.029,0.125
22.27,-0.133,0.603,0.065
22.28,-0.522,0.623,-0.172
22.29,-0.066,1.868,0.079
22.3,-0.092,0.715,0.13
22.31,-0.037,0.867,-0.019
22.32,-0.413,0.149,-0.18
22.33,-0.115,2.0,0.123
22.34,-0.107,0.672,0.092
22.35,-0.046,0.943,-0.026
22.36,-0.421,0.37,-0.216
22.37,-0.143,1.865,0.178
22.38,-0.276,0.8,0.079
22.39,0.073,0.531,-0.004
22.4,-0.523,0.83,-0.198
22.41,0.034,1.533,0.172
22.42,-0.315,1.313,0.086
22.43,-0.003,0.44,0.019
22.44,-0.375,0.651,-0.115
22.45,-0.111,1.84,0.169
22.46,-0.081,0.906,0.084
22.47,-0.083,1.002,-0.073
22.48,-0.318,0.253,-0.161
22.49,-0.038,1.965,0.139
22.5,-0.054,0.881,0.006
22.51,-0.172,0.93,-0.082
22.52,-0.349,0.186,-0.167
22.53,-0.197,1.663,0.162
22.54,-0.162,1.065,0.012
22.55,-0.155,0.772,-0.074
22.56,-0.371,0.595,-0.124
22.57,-0.177,1.112,0.172
22.58,-0.264,1.367,0.089
22.59,-0.153,0.452,-0.09
22.6,-0.515,0.934,-0.082
22.61,-0.135,1.005,0.299
22.62,-0.285,1.494,0.05
22.63,-0.114,0.541,-0.079
22.64,-0.387,0.62,-0.102
22.65,-0.109,1.304,0.185
22.66,-0.198,0.865,-0.029
22.67,-0.271,1.007,-0.084
22.68,-0.327,0.382,-0.045
22.69,-0.111,1.28,0.185
22.7,-0.114,0.983,-0.031
22.71,-0.295,0.72,-0.123
22.72,-0.243,0.852,-0.096
22.73,-0.072,0.888,0.188
22.74,-0.209,1.495,-0.064
22.75,-0.085,0.244,-0.136
22.76,-0.261,1.477,-0.078
22.77,0.023,0.79,0.104
22.78,-0.257,1.281,-0.04
22.79,-0.189,0.478,-0.178
22.8,-0.297,1.093,-0.072
22.81,-0.091,1.078,0.105
22.82,-0.136,0.849,-0.031
22.83,-0.366,0.861,-0.15
22.84,-0.239,0.74,0.023
22.85,-0.262,1.145,0.113
22.86,-0.134,0.919,-0.019
22.87,-0.216,0.711,-0.126
22.88,-0.265,1.521,0.009
22.89,-0.156,0.683,0.17
22.9,-0.217,1.223,-0.049
22.91,-0.259,0.204,-0.215
22.92,-0.354,1.947,0.123
22.93,-0.067,0.549,0.129
22.94,-0.2,1.075,-0.008
22.95,-0.49,0.409,-0.215
22.96,-0.237,1.694,0.114
22.97,-0.216,0.796,0.091
22.98,-0.062,0.66,-0.008
22.99,-0.501,0.842,-0.215
23.0,0.001,1.466,0.059
23.01,-0.149,1.119,0.133
23.02,0.037,0.484,0.039
23.03,-0.486,0.658,-0.164
23.04,0.014,1.816,0.093
23.05,-0.131,0.86,0.115
23.06,-0.01,0.886,-0.038
23.07,-0.439,0.229,-0.177
23.08,-0.121,2.0,0.182
23.09,-0.13,0.522,0.105
23.1,-0.096,0.896,-0.042
23.11,-0.4,0.316,-0.182
23.12,-0.08,1.839,0.163
23.13,-0.219,1.037,0.109
23.14,0.061,0.568,-0.032
23.15,-0.414,0.794,-0.157
23.16,0.026,1.405,0.105
23.17,-0.28,1.392,0.089
23.18,0.087,0.596,-0.066
23.19,-0.489,0.729,-0.161
23.2,0.042,1.594,0.17
23.21,-0.197,1.176,0.046
23.22,-0.009,0.883,-0.128
23.23,-0.265,0.264,-0.119
23.24,-0.174,1.798,0.148
23.25,-0.131,0.88,-0.016
23.26,-0.094,1.052,-0.167
23.27,-0.28,0.353,-0.159
23.28,-0.176,1.289,0.155
23.29,-0.255,1.247,-0.019
23.3,-0.21,0.761,-0.117
23.31,-0.293,0.872,-0.046
23.32,-0.023,0.914,0.183
23.33,-0.333,1.351,-0.019
23.34,-0.141,0.363,-0.113
23.35,-0.402,1.303,0.081
23.36,-0.071,0.795,0.206
23.37,-0.302,1.287,0.01
23.38,-0.232,0.468,-0.178
23.39,-0.109,1.352,-0.046
23.4,-0.14,0.985,0.153
23.41,-0.104,0.846,-0.047
23.42,-0.359,0.9,-0.195
23.43,-0.149,1.106,0.038
23.44,-0.198,1.084,0.106
23.45,-0.115,0.851,-0.03
23.46,-0.353,0.661,-0.232
23.47,-0.201,1.548,0.078
23.48,-0.138,0.641,0.139
23.49,-0.222,1.083,0.032
23.5,-0.36,0.193,-0.135
23.51,-0.221,2.0,0.033
23.52,-0.045,0.485,0.134
23.53,-0.153,0.945,-0.037
23.54,-0.51,0.351,-0.224
23.55,-0.091,1.857,0.116
23.56,-0.169,0.892,0.044
23.57,0.005,0.465,-0.049
23.58,-0.425,0.854,-0.208
23.59,-0.008,1.532,0.148
23.6,-0.06,1.24,0.054
23.61,0.091,0.554,-0.099
23.62,-0.429,0.662,-0.179
23.63,0.004,1.764,0.129
23.64,-0.158,0.978,0.055
23.65,-0.041,0.97,-0.068
23.66,-0.38,0.224,-0.17
23.67,-0.144,2.0,0.191
23.68,-0.126,0.777,0.1
23.69,-0.154,0.96,-0.054
23.7,-0.373,0.343,-0.094
23.71,-0.186,1.564,0.137
23.72,-0.21,1.2,0.029
23.73,0.02,0.58,-0.141
23.74,-0.409,0.82,-0.067
23.75,-0.074,0.961,0.222
23.76,-0.4,1.501,0.021
23.77,0.03,0.483,-0.108
23.78,-0.31,0.834,-0.114
23.79,-0.104,1.035,0.183
23.8,-0.169,1.208,-0.09
23.81,-0.192,0.802,-0.123
23.82,-0.225,0.439,-0.024
23.83,-0.13,1.339,0.125
23.84,-0.252,0.838,-0.028
23.85,-0.348,0.883,-0.069
23.86,-0.23,0.837,0.042
23.87,-0.146,1.027,0.135
23.88,-0.201,1.128,-0.086
23.89,-0.209,0.501,-0.205
23.9,-0.24,1.732,0.032
23.91,-0.007,0.62,0.15
23.92,-0.297,1.251,-0.015
23.93,-0.301,0.25,-0.22
23.94,-0.247,1.835,0.091
23.95,-0.105,0.701,0.122
23.96,-0.081,0.77,-0.001
23.97,-0.536,0.664,-0.211
23.98,-0.089,1.61,0.089
23.99,-0.246,1.034,0.188
24.0,0.014,0.438,0.057
24.01,-0.652,0.905,-0.129
24.02,-0.003,1.611,0.103
24.03,-0.221,0.974,0.091
24.04,0.035,0.66,-0.063
24.05,-0.38,0.373,-0.175
24.06,-0.054,2.0,0.1
24.07,-0.081,0.689,0.086
24.08,-0.104,1.087,-0.064
24.09,-0.318,0.133,-0.151
24.1,-0.154,1.954,0.204
24.11,-0.035,0.899,0.046
24.12,-0.165,0.97,-0.098
24.13,-0.312,0.33,-0.129
24.14,-0.171,1.571,0.192
24.15,-0.203,1.278,-0.044
24.16,-0.052,0.514,-0.11
24.17,-0.441,0.858,-0.072
24.18,-0.011,0.928,0.174
24.19,-0.44,1.49,0.021
24.2,-0.13,0.453,-0.058
24.21,-0.432,0.871,0.031
24.22,-0.077,1.019,0.215
24.23,-0.297,1.057,0.013
24.24,-0.331,0.842,-0.117
24.25,-0.276,0.461,0.034
24.26,-0.158,1.292,0.166
24.27,-0.186,0.861,0.036
24.28,-0.287,0.886,-0.14
24.29,-0.191,1.254,-0.006
24.3,-0.009,0.934,0.107
24.31,-0.239,1.042,-0.058
24.32,-0.332,0.481,-0.214
24.33,-0.327,1.832,0.043
24.34,-0.012,0.571,0.113
24.35,-0.32,1.26,0.007
24.36,-0.366,0.242,-0.24
24.37,-0.349,1.81,0.097
24.38,-0.132,0.678,0.107
24.39,-0.119,0.847,0.007
24.4,-0.418,0.656,-0.176
24.41,-0.039,1.547,0.028
24.42,-0.166,1.086,0.161
24.43,0.038,0.414,0.012
24.44,-0.601,0.785,-0.163
24.45,0.048,1.688,0.098
24.46,-0.238,0.909,0.066
24.47,-0.001,0.759,-0.003
24.48,-0.431,0.35,-0.164
24.49,-0.088,2.0,0.153
24.5,-0.11,0.596,0.103
24.51,-0.102,0.894,-0.066
24.52,-0.367,0.19,-0.122
24.53,-0.19,1.812,0.09
24.54,-0.08,0.878,0.038
24.55,-0.005,0.801,-0.055
24.56,-0.366,0.633,-0.157
24.57,-0.052,1.401,0.118
24.58,-0.237,1.39,0.046
24.59,0.007,0.493,-0.107
24.6,-0.499,0.882,-0.128
24.61,-0.075,1.239,0.202
24.62,-0.269,1.347,0.02
24.63,-0.016,0.744,-0.119
24.64,-0.393,0.435,-0.088
24.65,-0.147,1.432,0.175
24.66,-0.178,0.872,-0.016
24.67,-0.246,1.013,-0.1
24.68,-0.305,0.295,-0.044
24.69,-0.171,1.341,0.184
24.7,-0.239,0.958,0.019
24.71,-0.193,0.715,-0.097
24.72,-0.382,0.792,-0.061
24.73,-0.021,0.944,0.193
24.74,-0.309,1.489,-0.028
24.75,-0.078,0.325,-0.071
24.76,-0.392,1.364,-0.046
24.77,0.01,0.743,0.185
24.78,-0.349,1.269,-0.034
24.79,-0.291,0.528,-0.17
24.8,-0.199,1.363,-0.051
24.81,-0.17,1.086,0.126
24.82,-0.11,0.709,-0.04
24.83,-0.444,0.944,-0.165
24.84,-0.309,1.035,0.088
24.85,-0.249,1.095,0.172
24.86,-0.218,0.888,0.003
24.87,-0.274,0.63,-0.133
24.88,-0.356,1.602,0.087
24.89,-0.041,0.618,0.157
24.9,-0.053,0.778,-0.033
24.91,-0.387,0.298,-0.174
24.92,-0.101,2.0,0.1
24.93,0.03,0.659,0.108
24.94,-0.122,1.01,-0.026
24.95,-0.378,0.145,-0.196
24.96,-0.171,1.977,0.126
24.97,-0.277,0.692,0.009
24.98,-0.134,0.69,-0.028
24.99,-0.419,0.641,-0.168
25.0,-0.064,1.656,0.152
25.01,-0.25,1.119,0.101
25.02,0.134,0.345,-0.036
25.03,-0.565,0.811,-0.131
25.04,-0.056,1.444,0.145
25.05,-0.204,1.2,0.11
25.06,-0.079,0.859,-0.104
25.07,-0.359,0.353,-0.133
25.08,-0.101,2.0,0.191
25.09,-0.114,0.745,0.066
25.1,-0.087,1.042,-0.094
25.11,-0.347,0.222,-0.165
25.12,-0.169,1.679,0.14
25.13,-0.258,1.128,0.021
25.14,-0.055,0.689,-0.063
25.15,-0.402,0.67,-0.115
25.16,-0.012,1.046,0.153
25.17,-0.408,1.408,-0.008
25.18,-0.033,0.474,-0.111
25.19,-0.468,0.93,-0.088
25.2,-0.06,1.033,0.307
25.21,-0.327,1.462,0.109
25.22,-0.121,0.624,-0.11
25.23,-0.307,0.659,-0.066
25.24,-0.107,1.308,0.108
25.25,-0.16,0.87,-0.024
25.26,-0.272,0.913,-0.105
25.27,-0.11,1.007,-0.026
25.28,-0.113,1.134,0.152
25.29,-0.205,0.771,-0.01
25.3,-0.348,0.779,-0.188
25.31,-0.278,1.177,-0.038
25.32,-0.135,0.83,0.096
25.33,-0.242,1.286,-0.023
25.34,-0.187,0.24,-0.21
25.35,-0.269,1.843,0.033
25.36,-0.084,0.587,0.1
25.37,-0.312,1.155,-0.012
25.38,-0.345,0.506,-0.143
25.39,-0.222,1.67,0.069
25.4,-0.054,1.071,0.177
25.41,-0.036,0.478,0.057
25.42,-0.499,0.899,-0.207
25.43,-0.177,1.326,0.066
25.44,-0.301,0.991,0.061
25.45,-0.131,0.726,-0.019
25.46,-0.418,0.529,-0.17
25.47,-0.072,1.816,-0.012
25.48,-0.115,0.667,0.115
25.49,-0.102,0.902,-0.005
25.5,-0.393,0.105,-0.15
25.51,-0.201,2.0,0.122
25.52,-0.024,0.755,0.113
25.53,-0.15,0.931,-0.053
25.54,-0.344,0.341,-0.164
25.55,-0.135,1.801,0.186
25.56,-0.284,1.014,0.096
25.57,-0.008,0.487,-0.041
25.58,-0.48,0.824,-0.182
25.59,0.009,1.502,0.172
25.6,-0.24,1.354,0.062
25.61,0.053,0.437,-0.022
25.62,-0.378,0.601,-0.111
25.63,-0.166,1.385,0.135
25.64,-0.139,0.976,0.032
25.65,-0.145,1.026,-0.139
25.66,-0.27,0.218,-0.159
25.67,-0.134,1.827,0.189
25.68,-0.14,0.932,-0.011
25.69,-0.121,0.998,-0.083
25.7,-0.407,0.359,-0.138
25.71,-0.149,1.368,0.219
25.72,-0.302,1.127,0.039
25.73,-0.123,0.618,-0.102
25.74,-0.279,1.293,-0.067
25.75,-0.029,0.879,0.152
25.76,-0.325,1.2,-0.002
25.77,-0.228,0.418,-0.176
25.78,-0.337,1.412,-0.01
25.79,-0.076,0.748,0.134
25.8,-0.289,1.177,-0.013
25.81,-0.222,0.516,-0.183
25.82,-0.25,1.413,-0.012
25.83,-0.197,1.012,0.156
25.84,-0.034,0.77,-0.049
25.85,-0.44,0.896,-0.186
25.86,-0.057,1.361,0.052
25.87,-0.185,1.071,0.157
25.88,0.056,0.625,0.013
25.89,-0.454,0.615,-0.216
25.9,-0.214,1.754,0.084
25.91,-0.239,0.572,0.087
25.92,-0.156,1.079,-0.002
25.93,-0.349,0.123,-0.2
25.94,-0.292,2.0,0.068
25.95,-0.135,0.416,0.109
25.96,-0.15,0.995,0.019
25.97,-0.476,0.386,-0.189
25.98,-0.037,1.76,0.086
25.99,-0.106,1.066,0.048
26.0,0.044,0.354,-0.023
26.01,-0.448,0.861,-0.17
26.02,-0.05,1.612,0.136
26.03,-0.271,1.074,0.087
26.04,0.041,0.561,-0.053
26.05,-0.476,0.674,-0.159
26.06,-0.014,1.831,0.19
26.07,-0.217,0.854,0.092
26.08,-0.077,0.854,-0.0
26.09,-0.379,0.152,-0.108
26.1,-0.198,2.0,0.164
26.11,-0.059,0.781,0.066
26.12,-0.146,1.026,-0.073
26.13,-0.383,0.345,-0.143
26.14,-0.097,1.691,0.182
26.15,-0.221,1.286,0.055
26.16,-0.027,0.498,-0.059
26.17,-0.448,0.844,-0.082
26.18,-0.134,1.118,0.214
26.19,-0.328,1.543,0.044
26.2,0.005,0.479,-0.075
26.21,-0.398,0.721,-0.1
26.22,-0.15,1.235,0.22
26.23,-0.149,1.098,-0.065
26.24,-0.257,0.916,-0.112
26.25,-0.347,0.266,-0.027
26.26,-0.211,1.403,0.239
26.27,-0.11,1.473,0.038
26.28,-0.32,0.996,0.114
26.29,0.054,0.521,0.044
26.3,-0.657,0.771,-0.158
26.31,0.007,1.702,0.088
26.32,-0.158,0.909,0.102
26.33,0.064,0.724,-0.053
26.34,-0.366,0.283,-0.233
26.35,-0.061,2.0,0.097
26.36,-0.165,0.614,0.042
26.37,0.018,0.998,-0.038
26.38,-0.458,0.226,-0.142
26.39,-0.07,2.0,0.229
26.4,-0.182,0.877,0.113
26.41,-0.001,0.563,-0.041
26.42,-0.486,0.702,-0.145
26.43,-0.022,1.588,0.191
26.44,-0.309,1.353,0.065
26.45,0.08,0.509,-0.065
26.46,-0.398,0.865,-0.164
26.47,0.023,1.43,0.168
26.48,-0.262,1.408,0.084
26.49,-0.091,0.567,-0.073
26.5,-0.426,0.561,-0.085
26.51,-0.171,1.446,0.157
26.52,-0.134,1.047,-0.074
26.53,-0.163,0.948,-0.155
26.54,-0.334,0.22,-0.124
26.55,-0.201,1.475,0.214
26.56,-0.193,0.892,0.026
26.57,-0.246,0.927,-0.108
26.58,-0.304,0.6,-0.066
26.59,-0.093,1.046,0.166
26.6,-0.265,1.357,-0.042
26.61,-0.067,0.42,-0.129
26.62,-0.314,1.094,-0.102
26.63,0.062,0.855,0.163
26.64,-0.281,1.447,0.005
26.65,-0.227,0.426,-0.124
26.66,-0.312,0.935,-0.013
26.67,-0.1,1.015,0.161
26.68,-0.226,0.965,-0.041
26.69,-0.212,0.791,-0.116
26.7,-0.267,1.079,-0.082
26.71,-0.117,1.167,0.129
26.72,-0.22,0.751,-0.001
26.73,-0.397,0.902,-0.164
26.74,-0.305,1.357,0.026
26.75,-0.15,0.844,0.149
26.76,-0.266,1.136,0.029
26.77,-0.272,0.361,-0.184
26.78,-0.444,1.839,0.073
26.79,-0.101,0.557,0.149
26.8,-0.317,1.242,0.008
26.81,-0.276,0.244,-0.173
26.82,-0.306,1.799,0.043
26.83,-0.033,0.748,0.098
26.84,-0.091,0.714,-0.007
26.85,-0.48,0.724,-0.223
26.86,-0.134,1.498,0.077
26.87,-0.247,1.03,0.116
26.88,-0.031,0.518,0.031
26.89,-0.592,0.779,-0.162
26.9,-0.114,1.631,0.084
26.91,-0.181,0.814,0.109
26.92,-0.041,0.807,-0.015
26.93,-0.438,0.293,-0.198
26.94,-0.106,2.0,0.104
26.95,-0.005,0.651,0.093
26.96,-0.115,0.946,-0.014
26.97,-0.489,0.156,-0.15
26.98,-0.104,2.0,0.184
26.99,-0.156,0.865,0.072
27.0,-0.01,0.649,-0.051
27.01,-0.463,0.705,-0.173
27.02,-0.044,1.603,0.194
27.03,-0.222,1.297,0.058
27.04,0.071,0.396,-0.022
27.05,-0.422,0.879,-0.188
27.06,-0.081,1.485,0.152
27.07,-0.118,1.148,0.041
27.08,-0.039,0.861,-0.1
27.09,-0.349,0.313,-0.171
27.1,-0.138,1.823,0.134
27.11,-0.027,0.859,0.041
27.12,-0.194,1.017,-0.088
27.13,-0.33,0.196,-0.167
27.14,-0.215,1.614,0.162
27.15,-0.204,1.039,0.035
27.16,-0.105,0.696,-0.121
27.17,-0.402,0.703,-0.155
27.18,-0.094,1.001,0.179
27.19,-0.316,1.389,0.04
27.2,-0.042,0.428,-0.101
27.21,-0.508,0.94,-0.079
27.22,0.025,1.028,0.276
27.23,-0.326,1.325,0.034
27.24,-0.15,0.678,-0.134
27.25,-0.348,0.998,-0.06
27.26,0.001,1.027,0.162
27.27,-0.162,1.041,-0.053
27.28,-0.242,0.793,-0.152
27.29,-0.229,0.955,-0.051
27.3,-0.091,1.303,0.17
27.31,-0.129,0.716,0.006
27.32,-0.333,0.872,-0.184
27.33,-0.183,1.001,-0.077
27.34,-0.129,1.028,0.137
27.35,-0.265,1.125,-0.029
27.36,-0.151,0.403,-0.117
27.37,-0.414,1.743,-0.064
27.38,-0.033,0.609,0.145
27.39,-0.357,1.374,-0.014
27.4,-0.251,0.291,-0.133
27.41,-0.297,1.694,-0.049
27.42,-0.141,0.841,0.136
27.43,-0.142,0.871,0.009
27.44,-0.419,0.749,-0.176
27.45,-0.299,1.303,0.081
27.46,-0.285,1.102,0.157
27.47,-0.175,0.68,0.039
27.48,-0.436,0.78,-0.15
27.49,-0.235,1.452,0.07
27.5,-0.157,0.823,0.155
27.51,-0.134,0.906,-0.009
27.52,-0.363,0.392,-0.14
27.53,-0.295,1.964,0.048
27.54,-0.104,0.499,0.145
27.55,-0.169,1.089,0.012
27.56,-0.497,0.228,-0.167
27.57,-0.244,1.918,0.064
27.58,-0.261,0.611,0.099
27.59,-0.042,0.801,0.003
27.6,-0.527,0.609,-0.209
27.61,-0.025,1.568,0.052
27.62,-0.106,1.206,0.07
27.63,0.062,0.349,-0.006
27.64,-0.441,0.827,-0.194
27.65,-0.023,1.658,0.027
27.66,-0.198,0.937,0.084
27.67,0.012,0.703,-0.018
27.68,-0.511,0.447,-0.147
27.69,-0.202,1.948,0.205
27.7,-0.236,0.541,0.101
27.71,-0.14,0.921,0.008
27.72,-0.403,0.173,-0.151
27.73,-0.193,1.961,0.131
27.74,-0.087,0.84,0.092
27.75,-0.104,0.703,-0.042
27.76,-0.402,0.581,-0.148
27.77,-0.061,1.642,0.217
27.78,-0.254,1.349,0.075
27.79,-0.032,0.46,-0.015
27.8,-0.484,0.915,-0.159
27.81,-0.02,1.627,0.236
27.82,-0.223,1.089,0.072
27.83,0.04,0.647,-0.046
27.84,-0.359,0.466,-0.202
27.85,-0.166,1.685,0.118
27.86,-0.068,0.891,0.04
27.87,-0.163,1.032,-0.096
27.88,-0.253,0.16,-0.16
27.89,-0.191,1.661,0.158
27.9,-0.093,1.062,0.073
27.91,-0.227,0.756,-0.152
27.92,-0.392,0.609,-0.133
27.93,-0.101,1.256,0.17
27.94,-0.285,1.439,0.038
27.95,0.089,0.474,-0.095
27.96,-0.553,0.945,-0.152
27.97,-0.032,0.969,0.173
27.98,-0.329,1.41,0.022
27.99,-0.118,0.561,-0.074
28.0,-0.463,0.564,-0.073
28.01,-0.123,1.275,0.227
28.02,-0.117,0.934,0.034
28.03,-0.311,0.987,-0.067
28.04,-0.346,0.301,-0.043
28.05,-0.115,1.321,0.189
28.06,-0.115,0.875,-0.029
28.07,-0.267,0.875,-0.073
28.08,-0.288,0.931,-0.087
28.09,-0.099,1.102,0.202
28.1,-0.257,1.084,-0.023
28.11,-0.19,0.52,-0.115
28.12,-0.362,1.674,-0.061
28.13,-0.035,0.694,0.15
28.14,-0.26,1.341,-0.076
28.15,-0.166,0.254,-0.151
28.16,-0.425,1.371,-0.046
28.17,-0.099,0.853,0.155
28.18,-0.205,1.072,-0.014
28.19,-0.197,0.632,-0.186
28.2,-0.302,1.282,-0.02
28.21,-0.218,1.114,0.191
28.22,-0.194,0.706,-0.011
28.23,-0.341,0.88,-0.118
28.24,-0.272,1.383,0.071
28.25,-0.079,0.926,0.157
28.26,-0.21,0.826,0.014
28.27,-0.378,0.458,-0.162
28.28,-0.397,1.821,0.066
28.29,-0.159,0.586,0.126
28.3,-0.305,1.207,-0.013
28.31,-0.287,0.066,-0.203
28.32,-0.316,1.904,0.075
28.33,-0.091,0.64,0.098
28.34,-0.222,0.844,0.025
28.35,-0.416,0.539,-0.167
28.36,-0.136,1.669,0.013
28.37,-0.188,1.01,0.163
28.38,0.086,0.428,-0.029
28.39,-0.629,0.87,-0.179
28.4,-0.042,1.538,0.098
28.41,-0.331,0.955,0.106
28.42,-0.021,0.654,-0.034
28.43,-0.455,0.487,-0.155
28.44,-0.101,2.0,0.062
28.45,-0.037,0.595,0.096
28.46,-0.089,0.91,-0.019
28.47,-0.428,0.121,-0.179
28.48,-0.174,1.981,0.107
28.49,-0.042,0.826,0.094
28.5,-0.137,0.809,-0.041
28.51,-0.387,0.483,-0.157
28.52,-0.089,1.691,0.201
28.53,-0.237,1.269,0.097
28.54,0.042,0.465,-0.024
28.55,-0.47,0.912,-0.153
28.56,-0.01,1.571,0.179
28.57,-0.206,1.223,0.023
28.58,0.017,0.555,-0.068
28.59,-0.327,0.552,-0.169
28.6,-0.193,1.526,0.122
28.61,-0.148,0.843,0.068
28.62,-0.195,1.056,-0.042
28.63,-0.35,0.196,-0.12
28.64,-0.191,1.676,0.169
28.65,-0.192,0.931,0.041
28.66,-0.111,0.928,-0.089
28.67,-0.401,0.54,-0.163
28.68,-0.11,1.39,0.191
28.69,-0.333,1.422,0.062
28.7,0.01,0.399,-0.092
28.71,-0.536,0.94,-0.097
28.72,-0.007,0.969,0.157
28.73,-0.329,1.403,-0.004
28.74,-0.089,0.611,-0.111
28.75,-0.395,0.63,-0.046
28.76,-0.185,1.215,0.237
28.77,-0.157,1.046,0.055
28.78,-0.258,0.983,-0.108
28.79,-0.368,0.251,-0.059
28.8,-0.259,1.431,0.251
28.81,-0.19,1.008,0.014
28.82,-0.15,0.8,-0.065
28.83,-0.32,0.882,-0.073
28.84,-0.036,1.025,0.157
28.85,-0.283,1.269,-0.043
28.86,-0.348,0.628,-0.163
28.87,-0.319,1.159,-0.043
28.88,-0.097,0.791,0.133
28.89,-0.251,1.364,-0.029
28.9,-0.152,0.334,-0.156
28.91,-0.354,1.444,-0.011
28.92,-0.066,0.722,0.156
28.93,-0.332,1.175,0.002
28.94,-0.181,0.567,-0.141
28.95,-0.259,1.409,0.009
28.96,-0.099,1.054,0.182
28.97,-0.077,0.576,0.042
28.98,-0.562,0.905,-0.177
28.99,-0.336,1.289,0.123
29.0,-0.217,0.953,0.164
29.01,-0.136,0.851,0.01
29.02,-0.417,0.549,-0.195
29.03,-0.226,1.723,0.075
29.04,-0.146,0.583,0.148
29.05,-0.2,1.016,0.024
29.06,-0.317,0.106,-0.154
29.07,-0.211,2.0,0.043
29.08,-0.038,0.614,0.071
29.09,-0.032,0.864,-0.048
29.1,-0.521,0.402,-0.221
29.11,-0.048,1.678,0.112
29.12,-0.313,0.924,0.013
29.13,0.044,0.437,-0.031
29.14,-0.505,0.86,-0.206
29.15,-0.022,1.59,0.081
29.16,-0.182,1.007,0.12
29.17,0.023,0.527,-0.003
29.18,-0.587,0.553,-0.122
29.19,-0.088,1.828,0.171
29.2,-0.164,0.828,0.104
29.21,-0.019,0.975,-0.045
29.22,-0.365,0.202,-0.151
29.23,-0.095,2.0,0.185
29.24,-0.094,0.764,0.092
29.25,-0.094,0.915,-0.058
29.26,-0.355,0.38,-0.187
29.27,-0.069,1.779,0.148
29.28,-0.225,1.207,-0.012
29.29,0.071,0.49,-0.042
29.3,-0.435,0.832,-0.166
29.31,-0.049,1.356,0.154
29.32,-0.278,1.403,-0.001
29.33,0.002,0.61,-0.07
29.34,-0.377,0.635,-0.136
29.35,-0.057,1.591,0.136
29.36,-0.108,1.119,0.044
29.37,-0.107,0.969,-0.155
29.38,-0.422,0.195,-0.078
29.39,-0.216,1.648,0.207
29.4,-0.19,0.981,0.061
29.41,-0.141,0.914,-0.095
29.42,-0.342,0.446,-0.128
29.43,-0.106,1.218,0.165
29.44,-0.258,1.294,-0.06
29.45,-0.063,0.562,-0.122
29.46,-0.385,0.98,-0.074
29.47,-0.028,0.853,0.172
29.48,-0.364,1.5,0.019
29.49,-0.049,0.414,-0.11
29.5,-0.388,0.961,-0.047
29.51,0.016,1.022,0.161
29.52,-0.263,1.014,-0.023
29.53,-0.193,0.788,-0.137
29.54,-0.191,0.87,-0.039
29.55,-0.094,1.246,0.165
29.56,-0.174,0.748,-0.046
29.57,-0.389,0.921,-0.155
29.58,-0.248,1.087,0.003
29.59,-0.124,0.966,0.204
29.6,-0.263,1.108,-0.03
29.61,-0.263,0.443,-0.174
29.62,-0.324,1.776,0.076
29.63,-0.134,0.615,0.199
29.64,-0.337,1.294,0.05
29.65,-0.33,0.26,-0.156
29.66,-0.199,2.0,0.056
29.67,-0.028,0.556,0.094
29.68,-0.062,0.931,-0.025
29.69,-0.442,0.375,-0.265
29.7,-0.097,1.793,0.02
29.71,-0.176,0.898,0.077
29.72,0.065,0.511,-0.016
29.73,-0.563,0.831,-0.223
29.74,0.022,1.547,0.081
29.75,-0.279,1.061,-0.01
29.76,0.096,0.512,0.011
29.77,-0.526,0.642,-0.152
29.78,-0.024,1.834,0.156
29.79,-0.173,0.767,0.118
29.8,-0.027,0.927,-0.044
29.81,-0.406,0.115,-0.123
29.82,-0.154,2.0,0.188
29.83,-0.106,0.668,0.119
29.84,-0.125,0.89,-0.062
29.85,-0.35,0.359,-0.174
29.86,-0.115,1.84,0.155
29.87,-0.192,1.14,0.04
29.88,0.008,0.508,-0.093
29.89,-0.371,0.816,-0.212
29.9,-0.032,1.383,0.099
29.91,-0.23,1.436,0.034
29.92,0.023,0.552,-0.086
29.93,-0.417,0.694,-0.162
29.94,-0.091,1.396,0.146
29.95,-0.154,1.162,0.029
29.96,-0.225,0.896,-0.085
29.97,-0.414,0.237,-0.04
29.98,-0.274,1.575,0.222
29.99,-0.205,0.935,0.06
30.0,-0.162,0.996,-0.07
30.01,-0.421,0.392,-0.083
30.02,-0.145,1.221,0.232
30.03,-0.247,1.254,-0.044
30.04,-0.162,0.572,-0.119
30.05,-0.332,0.96,-0.061
30.06,-0.01,0.861,0.193
30.07,-0.317,1.481,-0.01
30.08,-0.076,0.404,-0.117
30.09,-0.391,1.109,-0.093
30.1,0.033,0.889,0.127
30.11,-0.202,1.103,-0.078
30.12,-0.23,0.692,-0.151
30.13,-0.176,0.941,-0.074
30.14,-0.109,1.212,0.112
30.15,-0.097,0.746,-0.05
30.16,-0.347,0.955,-0.198
30.17,-0.174,1.113,0.017
30.18,-0.16,0.973,0.104
30.19,-0.158,1.081,-0.023
30.2,-0.282,0.461,-0.175
30.21,-0.287,1.755,0.057
30.22,-0.137,0.561,0.135
30.23,-0.276,1.289,-0.021
30.24,-0.271,0.178,-0.18
30.25,-0.293,1.896,0.076
30.26,-0.108,0.628,0.146
30.27,-0.115,0.839,0.003
30.28,-0.5,0.574,-0.207
30.29,-0.142,1.581,0.092
30.3,-0.349,0.949,0.116
30.31,-0.026,0.498,0.02
30.32,-0.54,0.879,-0.189
30.33,-0.084,1.504,0.134
30.34,-0.226,0.943,0.119
30.35,-0.05,0.635,0.004
30.36,-0.45,0.437,-0.185
30.37,-0.044,2.0,0.075
30.38,0.025,0.755,0.084
30.39,-0.097,0.977,-0.058
30.4,-0.366,0.114,-0.136
30.41,-0.13,2.0,0.169
30.42,-0.137,0.765,0.079
30.43,0.004,0.846,-0.07
30.44,-0.502,0.551,-0.224
30.45,0.053,1.652,0.169
30.46,-0.246,1.222,0.066
30.47,-0.077,0.562,-0.089
30.48,-0.452,0.76,-0.062
30.49,-0.144,0.973,0.181
30.5,-0.364,1.459,0.048
30.51,-0.121,0.44,-0.061
30.52,-0.304,0.799,-0.077
30.53,-0.135,1.04,0.223
30.54,-0.239,1.168,-0.028
30.55,-0.202,0.826,-0.101
30.56,-0.284,0.421,-0.057
30.57,-0.163,1.388,0.217
30.58,-0.168,0.898,-0.003
30.59,-0.197,0.914,-0.165
30.6,-0.136,1.01,-0.105
30.61,-0.023,1.102,0.11
30.62,-0.319,1.013,-0.043
30.63,-0.321,0.552,-0.153
30.64,-0.334,1.517,0.023
30.65,-0.092,0.698,0.144
30.66,-0.296,1.367,-0.009
30.67,-0.198,0.224,-0.212
30.68,-0.319,1.677,0.104
30.69,-0.076,0.768,0.149
30.7,-0.203,1.026,-0.028
30.71,-0.255,0.585,-0.257
30.72,-0.044,1.521,-0.001
30.73,-0.054,1.076,0.14
30.74,0.038,0.428,-0.001
30.75,-0.525,0.846,-0.152
30.76,-0.101,1.615,0.096
30.77,-0.222,0.898,0.115
30.78,0.013,0.734,-0.007
30.79,-0.507,0.487,-0.154
30.8,-0.156,1.938,0.137
30.81,-0.168,0.624,0.061
30.82,-0.158,0.871,0.005
30.83,-0.333,0.096,-0.141
30.84,-0.099,2.0,0.151
30.85,-0.101,0.794,0.081
30.86,-0.095,0.78,-0.048
30.87,-0.39,0.477,-0.134
30.88,-0.067,1.752,0.222
30.89,-0.235,1.228,0.031
30.9,0.098,0.475,-0.098
30.91,-0.449,0.879,-0.155
30.92,0.12,1.541,0.141
30.93,-0.235,1.378,0.01
30.94,0.026,0.581,-0.088
30.95,-0.387,0.493,-0.106
30.96,-0.192,1.484,0.183
30.97,-0.206,1.004,0.014
30.98,-0.243,0.977,-0.117
30.99,-0.234,0.184,-0.05
31.0,-0.251,1.412,0.204
31.01,-0.184,0.976,-0.03
31.02,-0.227,0.851,-0.107
31.03,-0.268,0.656,-0.075
31.04,-0.13,1.026,0.22
31.05,-0.263,1.353,-0.04
31.06,-0.08,0.392,-0.151
31.07,-0.261,1.614,-0.066
31.08,0.012,0.705,0.126
31.09,-0.402,1.314,-0.015
31.1,-0.243,0.45,-0.171
31.11,-0.242,1.61,-0.019
31.12,-0.043,0.912,0.099
31.13,-0.085,0.74,-0.028
31.14,-0.456,0.904,-0.214
31.15,-0.183,1.241,0.067
31.16,-0.278,1.047,0.146
31.17,-0.185,0.719,0.023
31.18,-0.424,0.698,-0.204
31.19,-0.184,1.565,0.039
31.2,-0.105,0.706,0.096
31.21,-0.145,0.918,-0.003
31.22,-0.402,0.29,-0.176
31.23,-0.165,2.0,0.079
31.24,-0.022,0.568,0.132
31.25,-0.168,0.984,0.028
31.26,-0.474,0.191,-0.151
31.27,-0.089,2.0,0.166
31.28,-0.124,0.736,0.02
31.29,-0.038,0.837,-0.114
31.3,-0.373,0.5,-0.254
31.31,0.094,1.7,0.167
31.32,-0.243,1.339,0.004
31.33,0.131,0.407,-0.067
31.34,-0.446,0.851,-0.13
31.35,-0.063,1.28,0.141
31.36,-0.327,1.393,0.065
31.37,-0.027,0.609,-0.103
31.38,-0.478,0.544,-0.057
31.39,-0.145,1.383,0.191
31.4,-0.199,1.052,0.042
31.41,-0.255,1.005,-0.101
31.42,-0.301,0.211,0.011
31.43,-0.246,1.387,0.226
31.44,-0.172,0.947,0.013
31.45,-0.262,0.843,-0.12
31.46,-0.192,0.884,-0.055
31.47,-0.179,1.006,0.188
31.48,-0.244,1.233,-0.045
31.49,-0.19,0.395,-0.171
31.5,-0.263,1.342,-0.053
31.51,-0.001,0.766,0.127
31.52,-0.271,1.346,-0.011
31.53,-0.25,0.409,-0.149
31.54,-0.205,1.504,-0.023
31.55,-0.12,0.941,0.173
31.56,-0.213,0.845,-0.014
31.57,-0.419,0.856,-0.156
31.58,-0.174,1.315,0.085
31.59,-0.236,1.053,0.187
31.6,-0.069,0.595,0.058
31.61,-0.561,0.809,-0.159
31.62,-0.258,1.525,0.139
31.63,-0.189,0.715,0.136
31.64,-0.139,0.952,-0.003
31.65,-0.426,0.274,-0.193
31.66,-0.158,2.0,0.034
31.67,0.025,0.586,0.102
31.68,-0.177,0.908,-0.002
31.69,-0.395,0.185,-0.203
31.7,-0.14,2.0,0.103
31.71,-0.008,0.886,0.007
31.72,0.014,0.611,-0.036
31.73,-0.411,0.706,-0.261
31.74,-0.007,1.635,0.138
31.75,-0.264,1.137,0.037
31.76,0.082,0.446,-0.029
31.77,-0.483,0.806,-0.197
31.78,-0.06,1.568,0.163
31.79,-0.189,1.086,0.143
31.8,0.02,0.795,-0.087
31.81,-0.393,0.313,-0.144
31.82,-0.144,1.762,0.173
31.83,-0.084,0.847,0.088
31.84,-0.173,1.121,-0.064
31.85,-0.356,0.208,-0.152
31.86,-0.086,1.837,0.163
31.87,-0.179,1.094,0.007
31.88,-0.033,0.658,-0.088
31.89,-0.433,0.707,-0.206
31.9,-0.086,1.095,0.147
31.91,-0.324,1.513,0.033
31.92,-0.084,0.451,-0.095
31.93,-0.335,0.869,-0.116
31.94,-0.065,0.99,0.146
31.95,-0.251,1.214,0.045
31.96,-0.277,0.802,-0.09
31.97,-0.356,0.394,0.006
31.98,-0.232,1.378,0.252
31.99,-0.204,1.027,0.046
32.0,-0.211,0.946,-0.072
32.01,-0.324,0.473,-0.05
32.02,-0.108,1.276,0.173
32.03,-0.174,1.03,0.001
32.04,-0.259,0.712,-0.084
32.05,-0.221,1.269,-0.028
32.06,-0.061,0.832,0.182
32.07,-0.146,1.118,-0.04
32.08,-0.322,0.37,-0.227
32.09,-0.317,1.663,0.015
32.1,-0.126,0.644,0.101
32.11,-0.267,1.288,-0.045
32.12,-0.19,0.269,-0.189
32.13,-0.26,1.725,0.018
32.14,-0.095,0.732,0.098
32.15,-0.066,0.829,-0.039
32.16,-0.449,0.764,-0.217
32.17,-0.05,1.449,0.052
32.18,-0.198,1.056,0.128
32.19,0.051,0.527,0.01
32.2,-0.545,0.83,-0.189
32.21,-0.135,1.485,0.057
32.22,-0.249,0.789,0.079
32.23,-0.073,0.893,-0.019
32.24,-0.46,0.299,-0.183
32.25,-0.124,2.0,0.077
32.26,-0.011,0.58,0.085
32.27,-0.111,0.938,-0.003
32.28,-0.381,0.124,-0.163
32.29,-0.16,2.0,0.191
32.3,-0.125,0.87,0.053
32.31,-0.058,0.687,-0.043
32.32,-0.44,0.685,-0.185
32.33,-0.065,1.606,0.209
32.34,-0.27,1.287,0.057
32.35,0.103,0.4,-0.059
32.36,-0.416,0.862,-0.187
32.37,-0.037,1.591,0.115
32.38,-0.188,1.175,0.074
32.39,-0.147,0.721,-0.04
32.4,-0.379,0.347,-0.107
32.41,-0.264,1.627,0.132
32.42,-0.181,0.865,0.106
32.43,-0.162,1.066,-0.095
32.44,-0.374,0.227,-0.049
32.45,-0.292,1.531,0.216
32.46,-0.251,1.081,0.021
32.47,-0.138,0.78,-0.109
32.48,-0.35,0.657,-0.152
32.49,-0.135,1.051,0.238
32.5,-0.278,1.552,0.006
32.51,-0.098,0.385,-0.15
32.52,-0.35,1.039,-0.096
32.53,-0.021,0.915,0.206
32.54,-0.351,1.296,0.027
32.55,-0.144,0.614,-0.119
32.56,-0.269,0.781,-0.066
32.57,-0.036,1.16,0.127
32.58,-0.202,0.895,-0.057
32.59,-0.261,0.934,-0.125
32.6,-0.186,0.955,-0.056
32.61,-0.084,1.131,0.124
32.62,-0.213,0.904,0.001
32.63,-0.349,0.762,-0.172
32.64,-0.314,1.538,0.058
32.65,-0.148,0.691,0.189
32.66,-0.245,1.131,0.035
32.67,-0.345,0.246,-0.216
32.68,-0.39,1.945,0.131
32.69,-0.029,0.481,0.104
32.7,-0.193,1.124,0.038
32.71,-0.419,0.344,-0.242
32.72,-0.136,1.757,0.03
32.73,-0.12,0.89,0.094
32.74,-0.01,0.505,0.034
32.75,-0.547,0.802,-0.161
32.76,-0.086,1.603,0.12
32.77,-0.292,1.14,0.161
32.78,0.123,0.509,0.003
32.79,-0.43,0.663,-0.177
32.8,0.01,1.882,0.095
32.81,-0.282,0.73,0.075
32.82,-0.041,0.851,-0.036
32.83,-0.442,0.158,-0.125
32.84,-0.062,2.0,0.21
32.85,-0.121,0.666,0.061
32.86,-0.017,0.863,-0.083
32.87,-0.375,0.142,-0.151
32.88,-0.174,1.716,0.144
32.89,-0.206,1.022,0.05
32.9,-0.156,0.806,-0.151
32.91,-0.378,0.597,-0.159
32.92,-0.096,1.168,0.177
32.93,-0.305,1.465,0.04
32.94,-0.077,0.413,-0.063
32.95,-0.512,0.916,-0.078
32.96,-0.03,0.939,0.176
32.97,-0.319,1.407,0.03
32.98,-0.167,0.55,-0.053
32.99,-0.424,0.688,0.04
33.0,-0.136,1.213,0.206
33.01,-0.132,0.844,-0.005
33.02,-0.299,0.964,-0.139
33.03,-0.194,0.663,-0.045
33.04,-0.139,1.257,0.177
33.05,-0.198,0.84,-0.05
33.06,-0.2,0.758,-0.124
33.07,-0.252,1.395,-0.097
33.08,-0.093,0.849,0.178
33.09,-0.349,1.225,-0.007
33.1,-0.163,0.327,-0.111
33.11,-0.522,1.742,0.084
33.12,-0.052,0.664,0.213
33.13,-0.39,1.268,-0.011
33.14,-0.212,0.381,-0.166
33.15,-0.384,1.555,0.04
33.16,-0.124,0.886,0.146
33.17,-0.149,0.746,0.004
33.18,-0.352,0.773,-0.195
33.19,-0.149,1.384,0.058
33.2,-0.146,1.021,0.098
33.21,-0.04,0.572,0.009
33.22,-0.506,0.72,-0.19
33.23,-0.131,1.695,0.048
33.24,-0.166,0.687,0.1
33.25,-0.074,0.86,-0.032
33.26,-0.472,0.259,-0.145
33.27,-0.091,2.0,0.109
33.28,-0.114,0.575,0.086
33.29,-0.107,0.889,-0.038
33.3,-0.434,0.26,-0.221
33.31,-0.088,1.966,0.161
33.32,-0.18,0.905,0.098
33.33,0.026,0.531,-0.07
33.34,-0.475,0.746,-0.159
33.35,-0.02,1.536,0.199
33.36,-0.196,1.39,0.058
33.37,0.055,0.439,-0.04
33.38,-0.401,0.767,-0.183
33.39,-0.027,1.64,0.138
33.4,-0.151,1.108,0.077
33.41,-0.052,0.929,-0.09
33.42,-0.42,0.236,-0.083
33.43,-0.155,1.838,0.18
33.44,-0.165,0.865,0.095
33.45,-0.105,1.042,-0.096
33.46,-0.419,0.287,-0.087
33.47,-0.249,1.484,0.217
33.48,-0.248,1.199,0.028
33.49,-0.026,0.601,-0.126
33.5,-0.445,0.855,-0.037
33.51,-0.046,0.896,0.162
33.52,-0.325,1.463,-0.002
33.53,-0.101,0.444,-0.096
33.54,-0.394,0.956,-0.03
33.55,0.006,0.929,0.19
33.56,-0.298,1.23,0.016
33.57,-0.166,0.701,-0.143
33.58,-0.291,0.65,-0.055
33.59,-0.075,1.229,0.083
33.6,-0.123,0.893,-0.066
33.61,-0.234,0.896,-0.142
33.62,-0.197,1.11,-0.063
33.63,-0.07,1.026,0.11
33.64,-0.222,0.921,-0.045
33.65,-0.34,0.664,-0.187
33.66,-0.35,1.631,0.029
33.67,-0.134,0.691,0.175
33.68,-0.198,1.077,0.016
33.69,-0.398,0.172,-0.26
33.7,-0.276,1.933,0.082
33.71,-0.088,0.479,0.087
33.72,-0.178,1.065,0.03
33.73,-0.391,0.233,-0.185
33.74,-0.126,1.948,0.056
33.75,-0.093,0.839,0.065
33.76,0.095,0.616,-0.06
33.77,-0.542,0.724,-0.208
33.78,-0.021,1.567,0.124
33.79,-0.345,1.094,0.053
33.8,0.093,0.493,0.002
33.81,-0.52,0.784,-0.246
33.82,0.033,1.707,0.105
33.83,-0.19,0.863,0.026
33.84,0.028,0.738,-0.06
33.85,-0.415,0.255,-0.161
33.86,-0.134,1.913,0.119
33.87,-0.091,0.758,0.094
33.88,-0.11,1.067,-0.066
33.89,-0.379,0.195,-0.12
33.9,-0.108,1.959,0.199
33.91,-0.13,0.986,0.036
33.92,-0.059,0.646,-0.067
33.93,-0.447,0.723,-0.144
33.94,0.004,1.565,0.168
33.95,-0.269,1.35,0.024
33.96,0.107,0.465,-0.028
33.97,-0.475,0.831,-0.147
33.98,-0.066,1.167,0.137
33.99,-0.206,1.219,-0.009
34.0,-0.13,0.807,-0.143
34.01,-0.395,0.414,-0.048
34.02,-0.25,1.476,0.219
34.03,-0.107,0.899,0.088
34.04,-0.306,1.021,-0.098
34.05,-0.286,0.269,-0.062
34.06,-0.205,1.373,0.212
34.07,-0.264,1.062,0.003
34.08,-0.064,0.677,-0.078
34.09,-0.385,0.909,-0.094
34.1,-0.022,0.969,0.242
34.11,-0.341,1.379,-0.013
34.12,-0.236,0.39,-0.099
34.13,-0.307,1.067,-0.04
34.14,0.001,0.896,0.231
34.15,-0.168,1.311,-0.007
34.16,-0.188,0.621,-0.172
34.17,-0.17,0.962,-0.11
34.18,-0.044,1.173,0.121
34.19,-0.138,0.842,-0.081
34.2,-0.333,0.898,-0.158
34.21,-0.098,0.977,-0.045
34.22,-0.169,1.11,0.132
34.23,-0.149,0.87,-0.01
34.24,-0.374,0.75,-0.171
34.25,-0.386,1.113,0.008
34.26,-0.215,0.763,0.161
34.27,-0.239,1.372,0.026
34.28,-0.18,0.226,-0.183
34.29,-0.316,1.842,0.094
34.3,-0.009,0.592,0.172
34.31,-0.238,1.083,0.021
34.32,-0.332,0.467,-0.176
34.33,-0.25,1.742,0.105
34.34,-0.106,1.0,0.195
34.35,-0.019,0.514,0.021
34.36,-0.593,0.88,-0.196
34.37,-0.197,1.295,0.117
34.38,-0.28,1.011,0.079
34.39,-0.078,0.609,0.021
34.4,-0.465,0.614,-0.139
34.41,-0.014,1.865,0.054
34.42,-0.004,0.809,0.119
34.43,0.007,0.806,-0.077
34.44,-0.381,0.127,-0.202
34.45,-0.138,2.0,0.076
34.46,-0.074,0.626,0.075
34.47,-0.049,1.087,-0.084
34.48,-0.394,0.214,-0.164
34.49,-0.073,2.0,0.209
34.5,-0.128,0.764,0.01
34.51,-0.066,0.828,-0.054
34.52,-0.313,0.377,-0.18
34.53,-0.16,1.43,0.112
34.54,-0.237,1.164,-0.023
34.55,0.011,0.657,-0.121
34.56,-0.408,0.824,-0.103
34.57,-0.016,1.153,0.19
34.58,-0.282,1.5,0.065
34.59,-0.053,0.495,-0.095
34.6,-0.506,0.75,-0.106
34.61,-0.398,0.85,-0.164
34.62,-0.169,1.345,0.055
34.63,-0.194,1.012,0.062
34.64,-0.041,0.584,0.014
34.65,-0.462,0.803,-0.2
34.66,-0.065,1.609,0.031
34.67,-0.042,0.995,0.129
34.68,-0.036,0.655,0.01
34.69,-0.41,0.308,-0.166
34.7,-0.213,2.0,0.139
34.71,-0.193,0.563,0.079
34.72,-0.129,1.014,0.004
34.73,-0.453,0.245,-0.13
34.74,-0.244,2.0,0.141
34.75,-0.173,0.737,0.125
34.76,-0.113,0.59,-0.028
34.77,-0.462,0.588,-0.121
34.78,-0.08,1.632,0.166
34.79,-0.176,1.288,0.098
34.8,0.083,0.513,0.011
34.81,-0.536,0.837,-0.154
34.82,-0.016,1.65,0.251
34.83,-0.304,1.093,0.08
34.84,-0.024,0.787,-0.032
34.85,-0.425,0.467,-0.157
34.86,-0.056,1.996,0.238
34.87,-0.131,0.832,0.017
34.88,-0.104,0.989,-0.072
34.89,-0.328,0.132,-0.178
34.9,-0.143,1.77,0.102
34.91,-0.097,1.003,-0.013
34.92,-0.132,0.807,-0.126
34.93,-0.341,0.602,-0.154
34.94,-0.113,1.199,0.172
34.95,-0.274,1.562,0.088
34.96,-0.106,0.438,-0.066
34.97,-0.47,0.854,-0.08
34.98,-0.066,1.154,0.26
34.99,-0.305,1.481,0.065
35.0,-0.131,0.595,-0.081
35.01,-0.424,0.573,-0.034
35.02,-0.074,1.312,0.213
35.03,-0.163,0.928,-0.0
35.04,-0.266,0.952,-0.111
35.05,-0.272,0.406,-0.007
35.06,-0.128,1.329,0.153
35.07,-0.161,0.911,0.03
35.08,-0.203,0.799,-0.167
35.09,-0.288,0.854,-0.095
35.1,0.028,0.914,0.096
35.11,-0.277,1.47,-0.04
35.12,-0.034,0.245,-0.11
35.13,-0.373,1.462,-0.067
35.14,0.022,0.712,0.118
35.15,-0.341,1.338,0.042
35.16,-0.205,0.483,-0.211
35.17,-0.231,1.28,-0.027
35.18,-0.165,0.671,0.101
35.19,-0.207,0.989,0.031
35.2,-0.315,0.547,-0.18
35.21,-0.149,1.409,0.061
35.22,-0.233,1.009,0.127
35.23,-0.045,0.52,0.035
35.24,-0.445,0.79,-0.248
35.25,0.004,1.535,-0.012
35.26,-0.164,0.958,0.089
35.27,-0.043,0.646,0.022
35.28,-0.48,0.448,-0.149
35.29,-0.108,1.968,0.087
35.3,-0.149,0.547,0.11
35.31,-0.142,0.974,0.012
35.32,-0.384,0.195,-0.163
35.33,-0.201,2.0,0.132
35.34,-0.076,0.686,0.109
35.35,-0.097,0.729,-0.039
35.36,-0.462,0.512,-0.141
35.37,-0.085,1.664,0.199
35.38,-0.25,1.302,0.117
35.39,0.055,0.437,-0.04
35.4,-0.532,0.892,-0.119
35.41,-0.017,1.609,0.24
35.42,-0.307,1.196,0.049
35.43,0.045,0.67,-0.048
35.44,-0.428,0.517,-0.186
35.45,-0.033,1.857,0.16
35.46,-0.141,0.887,0.043
35.47,-0.14,0.959,-0.092
35.48,-0.224,0.125,-0.131
35.49,-0.247,1.725,0.13
35.5,-0.112,0.905,0.001
35.51,-0.112,0.919,-0.156
35.52,-0.349,0.515,-0.124
35.53,-0.176,1.302,0.222
35.54,-0.293,1.41,0.034
35.55,-0.096,0.457,-0.04
35.56,-0.448,0.925,-0.046
35.57,-0.15,0.948,0.249
35.58,-0.36,1.438,0.111
35.59,-0.119,0.477,-0.066
35.6,-0.334,0.736,-0.058
35.61,-0.068,1.166,0.158
35.62,-0.2,1.055,-0.026
35.63,-0.311,0.878,-0.117
35.64,-0.304,0.316,-0.01
35.65,-0.108,1.353,0.202
35.66,-0.154,0.929,0.015
35.67,-0.276,0.861,-0.113
35.68,-0.245,1.104,-0.121
35.69,-0.058,0.92,0.115
35.7,-0.332,1.262,-0.013
35.71,-0.218,0.303,-0.152
35.72,-0.351,1.814,-0.045
35.73,-0.027,0.584,0.117
35.74,-0.271,1.294,0.023
35.75,-0.352,0.383,-0.21
35.76,-0.367,1.541,0.106
35.77,-0.271,0.846,0.174
35.78,-0.175,0.879,0.009
35.79,-0.367,0.758,-0.161
35.8,-0.141,1.286,0.065
35.81,-0.242,1.026,0.157
35.82,-0.038,0.546,-0.006
35.83,-0.503,0.774,-0.166
35.84,-0.087,1.655,0.037
35.85,-0.191,0.767,0.11
35.86,-0.001,0.848,0.001
35.87,-0.521,0.326,-0.134
35.88,-0.173,1.965,0.136
35.89,-0.26,0.505,0.088
35.9,-0.188,1.016,-0.015
35.91,-0.449,0.236,-0.169
35.92,-0.115,2.0,0.054
35.93,-0.116,0.754,0.058
35.94,-0.045,0.584,-0.09
35.95,-0.471,0.618,-0.176
35.96,-0.077,1.522,0.121
35.97,-0.124,1.37,0.11
35.98,-0.007,0.425,-0.045
35.99,-0.44,0.859,-0.133
36.0,-0.064,1.487,0.212
36.01,-0.297,1.399,0.08
36.02,-0.039,0.604,-0.051
36.03,-0.403,0.653,-0.125
36.04,-0.02,1.711,0.105
36.05,-0.182,1.072,0.008
36.06,-0.036,0.958,-0.121
36.07,-0.325,0.196,-0.09
36.08,-0.244,1.559,0.235
36.09,-0.169,0.916,0.041
36.1,-0.187,1.007,-0.14
36.11,-0.335,0.454,-0.085
36.12,-0.151,1.253,0.23
36.13,-0.249,1.298,-0.044
36.14,-0.045,0.494,-0.153
36.15,-0.44,0.991,-0.072
36.16,0.022,0.88,0.182
36.17,-0.354,1.511,-0.009
36.18,-0.125,0.353,-0.068
36.19,-0.279,1.261,-0.034
36.2,-0.035,0.974,0.15
36.21,-0.25,0.97,-0.025
36.22,-0.312,0.798,-0.147
36.23,-0.24,0.621,-0.047
36.24,-0.187,1.275,0.095
36.25,-0.17,0.763,-0.033
36.26,-0.258,0.826,-0.102
36.27,-0.318,1.122,-0.052
36.28,-0.164,0.921,0.196
36.29,-0.198,1.195,-0.077
36.3,-0.225,0.398,-0.109
36.31,-0.299,1.819,0.005
36.32,-0.019,0.565,0.141
36.33,-0.208,1.208,0.052
36.34,-0.45,0.265,-0.201
36.35,-0.293,1.846,0.104
36.36,-0.183,0.668,0.101
36.37,-0.095,0.897,-0.017
36.38,-0.413,0.574,-0.199
36.39,-0.055,1.524,-0.016
36.4,-0.192,0.969,0.049
36.41,0.014,0.495,-0.003
36.42,-0.472,0.76,-0.179
36.43,-0.001,1.623,0.02
36.44,-0.13,1.053,0.069
36.45,0.035,0.593,-0.074
36.46,-0.356,0.434,-0.226
36.47,-0.092,2.0,0.128
36.48,-0.14,0.489,0.069
36.49,-0.081,1.033,-0.018
36.5,-0.332,0.144,-0.169
36.51,-0.105,2.0,0.199
36.52,-0.146,0.76,0.029
36.53,-0.13,0.651,-0.053
36.54,-0.387,0.571,-0.178
36.55,-0.076,1.606,0.152
36.56,-0.136,1.295,-0.023
36.57,0.085,0.445,-0.05
36.58,-0.461,0.873,-0.145
36.59,0.007,1.447,0.204
36.6,-0.245,1.308,0.036
36.61,-0.042,0.738,-0.074
36.62,-0.401,0.497,-0.111
36.63,-0.051,1.785,0.151
36.64,-0.068,0.959,0.041
36.65,-0.089,0.986,-0.157
36.66,-0.35,0.179,-0.144
36.67,-0.142,1.521,0.091
36.68,-0.204,0.945,0.005
36.69,-0.15,0.924,-0.1
36.7,-0.362,0.588,-0.155
36.71,-0.058,1.072,0.221
36.72,-0.304,1.317,0.039
36.73,-0.124,0.485,-0.119
36.74,-0.465,0.915,-0.051
36.75,-0.071,0.918,0.299
36.76,-0.33,1.59,0.053
36.77,-0.122,0.407,-0.057
36.78,-0.397,0.922,-0.013
36.79,0.047,0.862,0.129
36.8,-0.235,1.071,-0.066
36.81,-0.33,0.743,-0.18
36.82,-0.177,1.183,-0.094
36.83,-0.18,1.123,0.089
36.84,-0.173,0.704,0.034
36.85,-0.447,0.896,-0.124
36.86,-0.389,1.197,0.084
36.87,-0.245,0.975,0.204
36.88,-0.296,1.0,0.056
36.89,-0.304,0.472,-0.124
36.9,-0.362,1.809,0.131
36.91,-0.062,0.588,0.206
36.92,-0.226,1.129,0.06
36.93,-0.398,0.168,-0.165
36.94,-0.441,1.99,0.129
36.95,-0.187,0.561,0.15
36.96,-0.112,0.977,0.029
36.97,-0.496,0.515,-0.239
36.98,-0.154,1.487,0.078
36.99,-0.24,0.966,0.07
37.0,-0.03,0.51,0.023
37.01,-0.548,0.788,-0.176
37.02,0.025,1.575,0.003
37.03,-0.178,1.048,0.119
37.04,0.059,0.552,0.005
37.05,-0.462,0.502,-0.197
37.06,-0.019,1.981,0.061
37.07,-0.128,0.656,0.047
37.08,-0.061,0.922,-0.052
37.09,-0.392,0.155,-0.192
37.1,-0.133,2.0,0.125
37.11,-0.173,0.571,0.07
37.12,-0.064,0.823,-0.043
37.13,-0.469,0.429,-0.136
37.14,-0.03,1.727,0.172
37.15,-0.206,1.194,0.071
37.16,0.13,0.477,-0.053
37.17,-0.578,0.851,-0.092
37.18,0.021,1.506,0.236
37.19,-0.301,1.292,0.071
37.2,0.032,0.64,-0.05
37.21,-0.457,0.588,-0.143
37.22,0.001,1.807,0.145
37.23,-0.15,0.959,0.024
37.24,-0.088,0.967,-0.12
37.25,-0.344,0.121,-0.13
37.26,-0.276,1.752,0.154
37.27,-0.144,0.876,0.083
37.28,-0.179,0.909,-0.133
37.29,-0.388,0.454,-0.117
37.3,-0.166,1.281,0.209
37.31,-0.339,1.215,0.066
37.32,-0.102,0.511,-0.108
37.33,-0.385,0.953,-0.142
37.34,-0.053,0.978,0.233
37.35,-0.309,1.602,0.025
37.36,-0.071,0.431,-0.097
37.37,-0.383,0.727,-0.065
37.38,-0.044,1.165,0.197
37.39,-0.214,1.158,0.018
37.4,-0.167,0.868,-0.137
37.41,-0.371,0.431,-0.014
37.42,-0.127,1.326,0.165
37.43,-0.186,0.886,-0.021
37.44,-0.345,0.832,-0.078
37.45,-0.184,0.815,-0.028
37.46,-0.104,1.035,0.18
37.47,-0.206,1.184,-0.072
37.48,-0.205,0.47,-0.139
37.49,-0.266,1.548,-0.008
37.5,0.046,0.716,0.119
37.51,-0.235,1.346,-0.07
37.52,-0.202,0.381,-0.24
37.53,-0.222,1.524,-0.016
37.54,-0.117,0.849,0.098
37.55,-0.207,0.946,-0.009
37.56,-0.307,0.658,-0.198
37.57,-0.208,1.319,0.021
37.58,-0.223,1.066,0.139
37.59,-0.032,0.538,0.017
37.6,-0.516,0.823,-0.177
37.61,-0.069,1.506,0.089
37.62,-0.245,0.982,0.088
37.63,0.005,0.593,0.01
37.64,-0.529,0.633,-0.195
37.65,-0.079,1.791,0.074
37.66,-0.244,0.633,0.075
37.67,-0.091,0.932,-0.052
37.68,-0.426,0.106,-0.164
37.69,-0.137,2.0,0.165
37.7,-0.037,0.627,0.058
37.71,-0.11,0.864,-0.068
37.72,-0.336,0.347,-0.136
37.73,-0.13,1.865,0.196
37.74,-0.213,0.971,0.03
37.75,-0.018,0.487,-0.075
37.76,-0.385,0.833,-0.125
37.77,-0.024,1.563,0.199
37.78,-0.214,1.284,0.03
37.79,0.006,0.471,-0.054
37.8,-0.376,0.678,-0.172
37.81,-0.037,1.563,0.114
37.82,-0.182,1.092,0.019
37.83,-0.136,0.941,-0.125
37.84,-0.29,0.22,-0.095
37.85,-0.277,1.589,0.182
37.86,-0.099,0.927,0.029
37.87,-0.252,0.994,-0.143
37.88,-0.3,0.35,-0.08
37.89,-0.168,1.28,0.22
37.9,-0.285,1.21,-0.007
37.91,-0.066,0.604,-0.128
37.92,-0.431,0.907,-0.047
37.93,-0.047,0.844,0.197
37.94,-0.31,1.537,0.024
37.95,-0.191,0.298,-0.117
37.96,-0.262,1.289,-0.039
37.97,-0.006,0.938,0.098
37.98,-0.24,1.046,-0.044
37.99,-0.2,0.74,-0.158
38.0,-0.168,1.094,-0.11
38.01,-0.093,1.192,0.091
38.02,-0.158,0.741,-0.056
38.03,-0.435,0.896,-0.144
38.04,-0.301,1.072,0.037
38.05,-0.222,1.005,0.176
38.06,-0.207,1.061,-0.03
38.07,-0.303,0.46,-0.122
38.08,-0.223,1.813,0.09
38.09,-0.05,0.554,0.162
38.1,-0.082,1.127,0.022
38.11,-0.398,0.186,-0.213
38.12,-0.154,2.0,0.041
38.13,-0.057,0.663,0.104
38.14,-0.087,0.797,0.007
38.15,-0.48,0.53,-0.198
38.16,-0.159,1.506,0.077
38.17,-0.318,0.976,0.066
38.18,-0.046,0.513,-0.006
38.19,-0.448,0.868,-0.168
38.2,-0.059,1.539,0.073
38.21,-0.078,1.011,0.059
38.22,0.003,0.539,-0.041
38.23,-0.463,0.392,-0.106
38.24,-0.061,1.975,0.104
38.25,-0.09,0.773,0.112
38.26,-0.139,1.051,-0.049
38.27,-0.323,0.155,-0.13
38.28,-0.137,2.0,0.209
38.29,-0.145,0.733,0.051
38.3,-0.12,0.756,-0.069
38.31,-0.335,0.478,-0.17
38.32,-0.103,1.536,0.093
38.33,-0.108,1.317,-0.059
38.34,0.024,0.486,-0.134
38.35,-0.358,0.859,-0.17
38.36,-0.048,1.053,0.139
38.37,-0.387,1.344,0.038
38.38,-0.179,0.669,-0.079
38.39,-0.437,0.557,-0.041
38.4,-0.073,1.031,0.32
38.41,-0.247,1.347,0.055
38.42,-0.216,0.705,-0.12
38.43,-0.228,0.664,-0.037
38.44,-0.12,1.305,0.132
38.45,-0.171,0.825,-0.07
38.46,-0.189,0.911,-0.142
38.47,-0.173,1.188,-0.095
38.48,-0.06,1.061,0.117
38.49,-0.156,0.854,0.021
38.5,-0.44,0.604,-0.19
38.51,-0.345,1.463,0.089
38.52,-0.158,0.702,0.125
38.53,-0.252,1.324,-0.028
38.54,-0.125,0.162,-0.174
38.55,-0.308,1.833,0.074
38.56,0.087,0.632,0.09
38.57,-0.171,0.945,-0.026
38.58,-0.374,0.486,-0.196
38.59,-0.094,1.763,0.066
38.6,-0.163,1.075,0.133
38.61,0.114,0.462,0.017
38.62,-0.575,0.87,-0.174
38.63,-0.114,1.402,0.155
38.64,-0.36,1.062,0.062
38.65,-0.132,0.645,0.041
38.66,-0.434,0.512,-0.077
38.67,-0.172,1.946,0.151
38.68,-0.043,0.557,0.101
38.69,-0.034,0.897,-0.09
38.7,-0.424,0.104,-0.091
38.71,-0.148,1.931,0.149
38.72,-0.192,0.835,0.11
38.73,-0.082,0.933,-0.075
38.74,-0.358,0.462,-0.127
38.75,0.027,1.808,0.206
38.76,-0.296,1.182,0.04
38.77,0.081,0.532,-0.077
38.78,-0.526,0.823,-0.139
38.79,0.101,1.401,0.143
38.8,-0.388,1.48,-0.019
38.81,0.062,0.539,-0.103
38.82,-0.451,0.567,-0.079
38.83,-0.059,1.32,0.14
38.84,-0.263,1.0,-0.05
38.85,-0.146,1.057,-0.149
38.86,-0.358,0.254,-0.014
38.87,-0.154,1.354,0.233
38.88,-0.303,0.93,0.042
38.89,-0.194,0.94,-0.126
38.9,-0.341,0.662,-0.047
38.91,-0.074,1.039,0.127
38.92,-0.285,1.25,-0.118
38.93,-0.087,0.454,-0.137
38.94,-0.324,1.78,-0.002
38.95,0.024,0.598,0.146
38.96,-0.278,1.148,0.038
38.97,-0.392,0.365,-0.155
38.98,-0.37,1.665,0.078
38.99,-0.217,0.848,0.146
39.0,-0.232,0.844,0.005
39.01,-0.475,0.674,-0.208
39.02,-0.172,1.315,0.048
39.03,-0.169,0.995,0.053
39.04,-0.001,0.573,-0.005
39.05,-0.434,0.74,-0.213
39.06,-0.007,1.646,-0.013
39.07,0.076,1.047,0.07
39.08,-0.02,0.704,-0.061
39.09,-0.45,0.265,-0.169
39.1,-0.209,2.0,0.133
39.11,-0.134,0.525,0.096
39.12,-0.156,1.046,-0.051
39.13,-0.39,0.21,-0.111
39.14,-0.119,2.0,0.235
39.15,-0.088,0.848,0.057
39.16,0.04,0.523,-0.134
39.17,-0.359,0.619,-0.185
39.18,-0.003,1.425,0.101
39.19,-0.213,1.429,0.031
39.2,-0.017,0.521,-0.142
39.21,-0.396,0.869,-0.095
39.22,-0.085,1.117,0.247
39.23,-0.341,1.532,0.149
39.24,-0.093,0.565,-0.098
39.25,-0.406,0.691,-0.065
39.26,-0.191,1.218,0.237
39.27,-0.183,1.222,0.016
39.28,-0.216,0.819,-0.118
39.29,-0.148,0.607,-0.045
39.3,-0.112,1.37,0.126
39.31,-0.206,0.757,0.009
39.32,-0.353,0.961,-0.155
39.33,-0.188,1.054,-0.019
39.34,-0.064,0.935,0.114
39.35,-0.231,1.139,-0.073
39.36,-0.273,0.444,-0.205
39.37,-0.309,1.598,0.054
39.38,-0.092,0.621,0.152
39.39,-0.328,1.315,-0.014
39.4,-0.198,0.295,-0.193
39.41,-0.281,1.793,0.096
39.42,-0.03,0.774,0.197
39.43,-0.097,0.726,0.016
39.44,-0.477,0.677,-0.222
39.45,-0.099,1.489,0.055
39.46,-0.233,1.009,0.111
39.47,-0.004,0.523,0.023
39.48,-0.618,0.809,-0.192
39.49,-0.016,1.664,0.067
39.5,-0.218,0.867,0.115
39.51,0.073,0.701,-0.034
39.52,-0.523,0.347,-0.145
39.53,-0.076,2.0,0.135
39.54,-0.119,0.719,0.084
39.55,-0.075,1.0,-0.055
39.56,-0.387,0.147,-0.153
39.57,-0.133,2.0,0.169
39.58,-0.202,0.822,0.1
39.59,-0.071,0.715,-0.058
39.6,-0.488,0.621,-0.148
39.61,-0.006,1.616,0.181
39.62,-0.309,1.412,0.053
39.63,0.054,0.409,-0.04
39.64,-0.488,0.864,-0.147
39.65,-0.085,1.292,0.184
39.66,-0.207,1.316,0.01
39.67,-0.147,0.716,-0.109
39.68,-0.372,0.439,-0.071
39.69,-0.22,1.432,0.207
39.7,-0.088,0.994,0.049
39.71,-0.309,1.021,-0.118
39.72,-0.272,0.241,-0.012
39.73,-0.22,1.44,0.204
39.74,-0.194,1.011,-0.044
39.75,-0.096,0.764,-0.097
39.76,-0.326,0.816,-0.106
39.77,-0.004,0.916,0.16
39.78,-0.273,1.457,-0.07
39.79,-0.146,0.357,-0.176
39.8,-0.221,1.281,-0.097
39.81,-0.038,0.743,0.141
39.82,-0.267,1.293,-0.061
39.83,-0.276,0.571,-0.168
39.84,-0.26,1.229,-0.016
39.85,-0.186,1.033,0.163
39.86,-0.18,0.779,0.041
39.87,-0.305,0.884,-0.124
39.88,-0.323,1.21,0.127
39.89,-0.12,1.035,0.181
39.9,-0.203,0.691,0.011
39.91,-0.409,0.667,-0.18
39.92,-0.263,1.681,0.074
39.93,-0.099,0.632,0.073
39.94,-0.113,1.001,0.001
39.95,-0.444,0.271,-0.194
39.96,-0.235,2.0,0.144
39.97,-0.166,0.464,0.099
39.98,-0.105,0.983,-0.009
39.99,-0.555,0.283,-0.131
40.0,-0.091,1.937,0.146
40.01,-0.145,0.797,0.061
40.02,-0.006,0.763,-0.082
40.03,-0.412,0.562,-0.148
40.04,-0.014,1.645,0.122
40.05,-0.231,1.313,0.023
40.06,0.039,0.504,-0.071
40.07,-0.473,0.856,-0.146
40.08,-0.082,1.33,0.189
40.09,-0.314,1.415,0.001
40.1,-0.094,0.626,-0.073
40.11,-0.493,0.473,-0.056
40.12,-0.21,1.423,0.249
40.13,-0.177,0.941,-0.005
40.14,-0.189,1.006,-0.109
40.15,-0.275,0.267,-0.07
40.16,-0.123,1.352,0.126
40.17,-0.177,0.938,-0.074
40.18,-0.2,0.792,-0.166
40.19,-0.196,0.769,-0.156
40.2,0.03,0.989,0.124
40.21,-0.288,1.324,-0.095
40.22,-0.124,0.391,-0.13
40.23,-0.334,1.637,-0.079
40.24,0.011,0.706,0.125
40.25,-0.364,1.299,-0.026
40.26,-0.196,0.499,-0.143
40.27,-0.337,1.529,-0.008
40.28,-0.062,0.93,0.117
40.29,-0.155,0.788,0.003
40.3,-0.427,0.87,-0.197
40.31,-0.245,1.232,0.078
40.32,-0.254,1.044,0.141
40.33,-0.173,0.715,0.033
40.34,-0.358,0.642,-0.173
40.35,-0.126,1.636,0.029
40.36,-0.097,0.711,0.117
40.37,-0.098,0.88,-0.009
40.38,-0.445,0.201,-0.156
40.39,-0.198,2.0,0.112
40.4,-0.085,0.576,0.125
40.41,-0.235,0.902,0.009
40.42,-0.533,0.227,-0.144
40.43,-0.149,1.969,0.218
40.44,-0.196,0.91,0.096
40.45,0.026,0.498,-0.062
40.46,-0.49,0.761,-0.185
40.47,0.03,1.572,0.167
40.48,-0.23,1.324,0.076
40.49,0.087,0.497,-0.039
40.5,-0.483,0.764,-0.156
40.51,0.047,1.624,0.147
40.52,-0.19,1.139,0.047
40.53,-0.084,0.855,-0.1
40.54,-0.311,0.223,-0.108
40.55,-0.213,1.761,0.156
40.56,-0.122,0.952,0.068
40.57,-0.198,0.981,-0.106
40.58,-0.282,0.288,-0.102
40.59,-0.236,1.383,0.191
40.6,-0.209,1.206,0.017
40.61,-0.111,0.616,-0.104
40.62,-0.317,0.86,-0.069
40.63,-0.076,0.85,0.157
40.64,-0.325,1.503,-0.011
40.65,-0.113,0.322,-0.093
40.66,-0.3,1.019,-0.083
40.67,-0.014,0.904,0.136
40.68,-0.216,1.216,-0.031
40.69,-0.276,0.688,-0.103
40.7,-0.224,0.765,-0.017
40.71,-0.201,1.213,0.166
40.72,-0.145,0.78,0.025
40.73,-0.322,0.946,-0.094
40.74,-0.177,1.224,0.003
40.75,-0.253,0.969,0.174
40.76,-0.257,0.861,0.027
40.77,-0.315,0.514,-0.17
40.78,-0.36,1.73,0.056
40.79,-0.124,0.621,0.102
40.8,-0.344,1.192,-0.02
40.81,-0.418,0.25,-0.179
40.82,-0.273,2.0,0.1
40.83,-0.121,0.421,0.063
40.84,-0.127,1.083,-0.002
40.85,-0.523,0.255,-0.137
40.86,-0.104,1.935,0.154
40.87,-0.176,0.911,0.122
40.88,-0.001,0.648,-0.063
40.89,-0.465,0.692,-0.166
40.9,0.009,1.576,0.235
40.91,-0.269,1.376,0.109
40.92,0.015,0.453,-0.028
40.93,-0.385,0.85,-0.187
40.94,0.032,1.705,0.183
40.95,-0.203,1.077,0.033
40.96,0.023,0.776,-0.103
40.97,-0.371,0.316,-0.126
40.98,-0.205,1.641,0.166
40.99,-0.158,0.84,0.048
41.0,-0.209,1.093,-0.09
41.01,-0.325,0.271,-0.037
41.02,-0.248,1.389,0.237
41.03,-0.22,1.083,0.024
41.04,-0.174,0.752,-0.12
41.05,-0.402,0.808,-0.05
41.06,-0.003,0.879,0.172
41.07,-0.253,1.49,-0.05
41.08,-0.071,0.33,-0.09
41.09,-0.259,1.541,-0.131
41.1,0.014,0.796,0.138
41.11,-0.213,1.174,-0.045
41.12,-0.314,0.698,-0.191
41.13,-0.247,1.047,-0.01
41.14,-0.16,1.156,0.149
41.15,-0.157,0.774,0.04
41.16,-0.326,0.924,-0.157
41.17,-0.235,1.176,0.055
41.18,-0.219,1.003,0.122
41.19,-0.194,0.912,-0.023
41.2,-0.365,0.59,-0.132
41.21,-0.189,1.744,0.105
41.22,-0.095,0.598,0.171
41.23,-0.144,1.069,0.027
41.24,-0.431,0.164,-0.183
41.25,-0.235,2.0,0.102
41.26,-0.194,0.489,0.125
41.27,-0.089,0.959,0.019
41.28,-0.543,0.434,-0.198
41.29,-0.056,1.78,0.058
41.3,-0.242,0.903,0.059
41.31,0.07,0.446,-0.048
41.32,-0.53,0.84,-0.172
41.33,0.0,1.559,0.16
41.34,-0.177,1.252,0.092
41.35,0.051,0.515,-0.049
41.36,-0.446,0.62,-0.134
41.37,0.018,1.855,0.09
41.38,-0.091,0.89,0.032
41.39,-0.078,0.983,-0.097
41.4,-0.265,0.172,-0.225
41.41,-0.116,1.981,0.116
41.42,-0.119,0.836,0.06
41.43,-0.132,0.918,-0.127
41.44,-0.38,0.352,-0.112
41.45,-0.163,1.479,0.16
41.46,-0.251,1.31,0.053
41.47,-0.077,0.5,-0.122
41.48,-0.427,0.875,-0.121
41.49,-0.06,1.011,0.201
41.5,-0.327,1.531,0.017
41.51,-0.073,0.47,-0.063
41.52,-0.419,0.759,-0.039
41.53,-0.163,1.139,0.251
41.54,-0.241,1.169,0.045
41.55,-0.23,0.865,-0.111
41.56,-0.219,0.552,-0.01
41.57,-0.175,1.329,0.164
41.58,-0.186,0.841,0.036
41.59,-0.321,0.938,-0.124
41.6,-0.235,0.862,-0.042
41.61,-0.204,1.083,0.137
41.62,-0.233,0.898,0.005
41.63,-0.329,0.608,-0.134
41.64,-0.355,1.592,0.088
41.65,-0.156,0.681,0.132
41.66,-0.301,1.237,0.002
41.67,-0.235,0.193,-0.181
41.68,-0.306,1.973,0.11
41.69,-0.06,0.5,0.138
41.7,-0.21,1.005,0.024
41.71,-0.436,0.341,-0.174
41.72,-0.173,1.797,0.083
41.73,-0.229,0.838,0.099
41.74,-0.033,0.481,-0.037
41.75,-0.575,0.79,-0.182
41.76,-0.01,1.588,0.127
41.77,-0.291,1.163,0.108
41.78,0.025,0.448,-0.008
41.79,-0.469,0.634,-0.13
41.8,0.048,1.816,0.145
41.81,-0.133,0.901,0.073
41.82,0.033,0.909,-0.098
41.83,-0.356,0.177,-0.149
41.84,-0.082,1.995,0.158
41.85,-0.067,0.737,0.045
41.86,-0.106,0.989,-0.126
41.87,-0.374,0.35,-0.128
41.88,-0.137,1.672,0.17
41.89,-0.342,1.278,0.03
41.9,0.006,0.603,-0.069
41.91,-0.414,0.788,-0.108
41.92,-0.062,1.023,0.193
41.93,-0.353,1.613,0.062
41.94,-0.157,0.451,-0.086
41.95,-0.374,0.762,-0.017
41.96,-0.155,1.05,0.226
41.97,-0.187,1.213,0.02
41.98,-0.296,0.83,-0.134
41.99,-0.263,0.484,-0.009
42.0,-0.199,1.316,0.158
42.01,-0.192,0.8,-0.012
42.02,-0.297,0.934,-0.115
42.03,-0.178,1.127,-0.042
42.04,-0.112,0.963,0.16
42.05,-0.194,1.079,-0.042
42.06,-0.288,0.51,-0.227
42.07,-0.303,1.725,0.057
42.08,-0.101,0.598,0.19
42.09,-0.291,1.265,0.034
42.1,-0.326,0.198,-0.244
42.11,-0.378,1.828,0.153
42.12,-0.075,0.663,0.056
42.13,-0.204,0.845,-0.001
42.14,-0.394,0.544,-0.205
42.15,-0.132,1.619,0.063
42.16,-0.201,0.933,0.095
42.17,0.072,0.449,-0.052
42.18,-0.506,0.805,-0.196
42.19,-0.021,1.611,0.126
42.2,-0.207,1.017,0.082
42.21,0.012,0.611,-0.048
42.22,-0.394,0.469,-0.101
42.23,-0.086,2.0,0.2
42.24,-0.094,0.769,0.084
42.25,-0.088,0.975,-0.096
42.26,-0.315,0.084,-0.102
42.27,-0.159,1.957,0.136
42.28,-0.074,0.841,0.049
42.29,-0.044,0.866,-0.106
42.3,-0.389,0.533,-0.132
42.31,-0.05,1.399,0.159
42.32,-0.335,1.475,-0.022
42.33,-0.042,0.471,-0.112
42.34,-0.455,0.907,-0.041
42.35,-0.096,0.991,0.191
42.36,-0.344,1.466,0.024
42.37,-0.095,0.561,-0.117
42.38,-0.323,0.75,-0.029
42.39,-0.01,1.147,0.111
42.4,-0.217,0.92,-0.061
42.41,-0.336,0.933,-0.194
42.42,-0.196,1.128,0.05
42.43,-0.265,1.185,0.188
42.44,-0.163,0.692,0.004
42.45,-0.373,0.913,-0.135
42.46,-0.345,1.297,0.043
42.47,-0.118,0.889,0.151
42.48,-0.248,0.919,-0.001
42.49,-0.394,0.413,-0.163
42.5,-0.219,1.926,0.059
42.51,-0.001,0.55,0.145
42.52,-0.149,1.021,-0.004
42.53,-0.442,0.161,-0.209
42.54,-0.17,2.0,0.097
42.55,-0.167,0.652,0.054
42.56,-0.095,0.756,-0.021
42.57,-0.465,0.5,-0.201
42.58,-0.036,1.707,0.159
42.59,-0.241,1.112,0.065
42.6,0.115,0.346,-0.091
42.61,-0.554,0.819,-0.143
42.62,0.073,1.51,0.149
42.63,-0.211,1.291,0.037
42.64,0.023,0.612,-0.106
42.65,-0.361,0.494,-0.149
42.66,-0.105,1.603,0.119
42.67,-0.168,0.951,0.022
42.68,-0.206,1.106,-0.072
42.69,-0.306,0.156,-0.072
42.7,-0.311,1.644,0.242
42.71,-0.155,1.045,0.019
42.72,-0.222,0.877,-0.076
42.73,-0.332,0.521,-0.06
42.74,-0.12,1.079,0.217
42.75,-0.284,1.458,-0.041
42.76,-0.105,0.371,-0.127
42.77,-0.26,1.2,-0.035
42.78,-0.034,0.832,0.152
42.79,-0.297,1.351,-0.033
42.8,-0.204,0.46,-0.153
42.81,-0.311,1.25,-0.022
42.82,-0.157,0.958,0.147
42.83,-0.15,0.869,-0.011
42.84,-0.304,0.823,-0.157
42.85,-0.21,1.252,0.075
42.86,-0.141,1.091,0.128
42.87,-0.105,0.64,-0.005
42.88,-0.41,0.795,-0.2
42.89,-0.239,1.515,0.053
42.9,-0.079,0.75,0.078
42.91,-0.201,0.925,-0.044
42.92,-0.31,0.217,-0.203
42.93,-0.226,2.0,0.047
42.94,-0.024,0.471,0.056
42.95,-0.163,0.88,0.097
42.96,-0.05,0.733,-0.053
42.97,-0.443,0.283,-0.172
42.98,-0.118,2.0,0.147
42.99,-0.097,0.544,0.079
43.0,-0.084,0.923,-0.062
43.01,-0.438,0.212,-0.146
43.02,-0.124,1.951,0.147
43.03,-0.14,0.942,0.048
43.04,-0.094,0.685,-0.068
43.05,-0.346,0.658,-0.127
43.06,-0.042,1.467,0.109
43.07,-0.275,1.428,0.046
43.08,-0.02,0.47,-0.071
43.09,-0.46,0.85,-0.115
43.1,-0.081,1.238,0.182
43.11,-0.341,1.39,0.056
43.12,-0.021,0.746,-0.105
43.13,-0.432,0.404,-0.05
43.14,-0.22,1.362,0.203
43.15,-0.223,1.052,-0.046
43.16,-0.32,0.851,-0.132
43.17,-0.139,0.531,0.006
43.18,-0.235,1.258,0.124
43.19,-0.199,0.8,0.009
43.2,-0.314,0.906,-0.151
43.21,-0.199,1.176,0.014
43.22,-0.167,0.89,0.142
43.23,-0.247,1.153,-0.034
43.24,-0.298,0.336,-0.166
43.25,-0.298,1.876,0.044
43.26,-0.095,0.57,0.111
43.27,-0.298,1.221,-0.008
43.28,-0.388,0.198,-0.172
43.29,-0.346,1.811,0.129
43.3,-0.093,0.679,0.104
43.31,-0.196,0.749,-0.004
43.32,-0.449,0.664,-0.208
43.33,-0.073,1.593,0.067
43.34,-0.126,1.134,0.121
43.35,0.041,0.385,-0.018
43.36,-0.567,0.77,-0.164
43.37,-0.034,1.679,0.187
43.38,-0.175,1.098,0.043
43.39,0.018,0.727,-0.088
43.4,-0.395,0.373,-0.189
43.41,-0.133,2.0,0.197
43.42,-0.116,0.7,0.081
43.43,-0.067,1.083,-0.054
43.44,-0.384,0.172,-0.113
43.45,-0.115,1.914,0.131
43.46,-0.226,1.026,-0.032
43.47,-0.099,0.72,-0.103
43.48,-0.354,0.589,-0.14
43.49,-0.171,1.186,0.194
43.5,-0.367,1.484,0.097
43.51,-0.101,0.514,-0.049
43.52,-0.409,0.89,0.004
43.53,-0.154,0.903,0.248
43.54,-0.254,1.425,-0.037
43.55,-0.203,0.647,-0.155
43.56,-0.255,0.687,-0.032
43.57,-0.14,1.217,0.117
43.58,-0.164,0.806,-0.07
43.59,-0.27,0.937,-0.136
43.6,-0.091,1.067,-0.062
43.61,-0.176,1.065,0.118
43.62,-0.172,0.827,-0.006
43.63,-0.462,0.697,-0.18
43.64,-0.282,1.46,0.104
43.65,-0.228,0.789,0.138
43.66,-0.311,1.247,-0.016
43.67,-0.227,0.233,-0.17
43.68,-0.313,1.912,0.149
43.69,-0.083,0.508,0.098
43.7,-0.222,1.109,-0.045
43.71,-0.429,0.365,-0.2
43.72,0.031,1.83,0.024
43.73,-0.036,1.026,0.061
43.74,0.014,0.403,-0.076
43.75,-0.545,0.785,-0.208
43.76,-0.01,1.617,0.104
43.77,-0.264,1.235,0.081
43.78,0.014,0.446,-0.049
43.79,-0.471,0.849,-0.162
43.8,0.013,1.601,0.175
43.81,-0.241,1.285,0.015
43.82,0.052,0.647,-0.1
43.83,-0.384,0.377,-0.095
43.84,-0.201,1.533,0.119
43.85,-0.15,0.856,0.023
43.86,-0.216,1.117,-0.114
43.87,-0.367,0.213,-0.011
43.88,-0.221,1.388,0.267
43.89,-0.235,0.956,0.082
43.9,-0.276,0.827,-0.108
43.91,-0.343,0.723,-0.061
43.92,-0.062,0.923,0.164
43.93,-0.367,1.47,-0.058
43.94,-0.018,0.341,-0.137
43.95,-0.329,1.718,-0.087
43.96,0.033,0.642,0.206
43.97,-0.264,1.113,0.052
43.98,-0.412,0.355,-0.212
43.99,-0.344,1.832,0.056
44.0,-0.128,0.673,0.09
44.01,-0.135,0.903,-0.024
44.02,-0.419,0.591,-0.257
44.03,-0.177,1.391,0.045
44.04,-0.284,0.996,0.067
44.05,-0.059,0.584,-0.007
44.06,-0.523,0.808,-0.159
44.07,0.015,1.596,0.052
44.08,0.004,1.055,0.069
44.09,0.028,0.602,-0.039
44.1,-0.508,0.338,-0.138
44.11,-0.115,1.982,0.174
44.12,-0.156,0.699,0.105
44.13,-0.131,1.069,-0.052
44.14,-0.376,0.215,-0.155
44.15,-0.105,2.0,0.202
44.16,-0.211,0.773,0.078
44.17,-0.095,0.619,-0.057
44.18,-0.4,0.579,-0.176
44.19,-0.093,1.424,0.131
44.2,-0.207,1.322,0.049
44.21,0.044,0.545,-0.126
44.22,-0.408,0.85,-0.145
44.23,-0.012,1.167,0.154
44.24,-0.279,1.327,0.078
44.25,-0.105,0.731,-0.103
44.26,-0.345,0.502,-0.054
44.27,-0.191,1.531,0.247
44.28,-0.232,1.077,0.04
44.29,-0.136,0.964,-0.093
44.3,-0.375,0.351,-0.02
44.31,-0.114,1.368,0.162
44.32,-0.264,0.959,-0.051
44.33,-0.217,0.808,-0.111
44.34,-0.181,1.094,-0.033
44.35,-0.047,0.867,0.097
44.36,-0.236,1.265,-0.053
44.37,-0.253,0.323,-0.195
44.38,-0.257,1.421,0.026
44.39,-0.11,0.68,0.142
44.4,-0.291,1.249,-0.062
44.41,-0.208,0.395,-0.183
44.42,-0.241,1.566,0.069
44.43,-0.142,0.864,0.146
44.44,-0.129,0.682,-0.005
44.45,-0.528,0.817,-0.167
44.46,-0.101,1.474,0.094
44.47,-0.16,1.05,0.146
44.48,-0.04,0.547,0.025
44.49,-0.595,0.754,-0.162
44.5,-0.152,1.626,0.122
44.51,-0.275,0.719,0.127
44.52,-0.086,0.947,0.004
44.53,-0.448,0.218,-0.166
44.54,-0.127,2.0,0.133
44.55,-0.017,0.617,0.094
44.56,-0.098,0.975,-0.044
44.57,-0.388,0.188,-0.137
44.58,-0.036,1.86,0.131
44.59,-0.146,1.128,0.064
44.6,-0.015,0.657,-0.071
44.61,-0.385,0.782,-0.178
44.62,0.072,1.607,0.168
44.63,-0.308,1.42,0.005
44.64,0.048,0.449,-0.049
44.65,-0.47,0.772,-0.141
44.66,-0.044,1.434,0.187
44.67,-0.278,1.219,0.036
44.68,-0.134,0.857,-0.118
44.69,-0.381,0.296,0.019
44.7,-0.201,1.451,0.162
44.71,-0.197,0.841,-0.01
44.72,-0.234,1.033,-0.126
44.73,-0.213,0.427,-0.052
44.74,-0.15,1.197,0.157
44.75,-0.218,1.142,-0.079
44.76,-0.291,0.759,-0.107
44.77,-0.254,1.405,0.036
44.78,-0.162,0.794,0.169
44.79,-0.28,1.213,-0.047
44.8,-0.257,0.336,-0.195
44.81,-0.244,1.952,0.119
44.82,-0.037,0.524,0.163
44.83,-0.124,1.062,0.023
44.84,-0.507,0.305,-0.232
44.85,-0.164,1.776,0.097
44.86,-0.229,0.728,0.07
44.87,-0.09,0.628,-0.028
44.88,-0.512,0.719,-0.176
44.89,0.002,1.611,0.103
44.9,-0.188,1.182,0.067
44.91,0.047,0.375,-0.042
44.92,-0.456,0.734,-0.131
44.93,-0.072,1.677,0.132
44.94,-0.067,0.959,0.064
44.95,-0.023,0.874,-0.079
44.96,-0.367,0.219,-0.14
44.97,-0.126,1.927,0.182
44.98,-0.112,0.817,0.043
44.99,-0.136,1.021,-0.084
45.0,-0.297,0.226,-0.119
45.01,-0.237,1.593,0.161
45.02,-0.259,1.209,0.017
45.03,-0.16,0.663,-0.097
45.04,-0.41,0.736,-0.043
45.05,-0.054,0.932,0.186
45.06,-0.391,1.521,0.018
45.07,-0.063,0.393,-0.103
45.08,-0.288,1.099,-0.104
45.09,0.041,0.905,0.096
45.1,-0.261,1.106,-0.092
45.11,-0.206,0.706,-0.178
45.12,-0.209,0.879,-0.033
45.13,-0.129,1.155,0.111
45.14,-0.141,0.824,-0.025
45.15,-0.304,0.917,-0.175
45.16,-0.202,1.217,0.013
45.17,-0.154,1.002,0.126
45.18,-0.19,0.936,-0.005
45.19,-0.39,0.53,-0.189
45.2,-0.194,1.713,0.094
45.21,-0.039,0.546,0.052
45.22,-0.173,1.127,-0.044
45.23,-0.396,0.141,-0.209
45.24,-0.125,2.0,0.05
45.25,-0.053,0.633,0.104
45.26,-0.07,0.779,-0.001
45.27,-0.565,0.443,-0.107
45.28,-0.082,1.82,0.197
45.29,-0.206,1.069,0.099
45.3,0.119,0.46,-0.106
45.31,-0.491,0.863,-0.181
45.32,0.121,1.584,0.174
45.33,-0.249,1.373,0.024
45.34,0.005,0.498,-0.073
45.35,-0.344,0.561,-0.139
45.36,-0.04,1.711,0.116
45.37,-0.109,0.992,0.022
45.38,-0.166,1.028,-0.134
45.39,-0.318,0.101,-0.084
45.4,-0.225,1.698,0.187
45.41,-0.202,0.997,0.029
45.42,-0.198,0.9,-0.091
45.43,-0.374,0.45,-0.073
45.44,-0.115,1.095,0.18
45.45,-0.293,1.41,-0.047
45.46,-0.162,0.424,-0.094
45.47,-0.329,1.169,-0.047
45.48,0.061,0.805,0.137
45.49,-0.282,1.402,-0.034
45.5,-0.255,0.434,-0.165
45.51,-0.233,1.421,-0.003
45.52,-0.142,0.878,0.146
45.53,-0.187,0.899,-0.033
45.54,-0.347,0.78,-0.149
45.55,-0.268,1.254,0.085
45.56,-0.103,0.94,0.082
45.57,-0.018,0.565,-0.022
45.58,-0.508,0.877,-0.214
45.59,-0.085,1.486,0.054
45.6,-0.191,0.989,0.097
45.61,-0.061,0.603,0.013
45.62,-0.453,0.554,-0.152
45.63,-0.125,1.924,0.143
45.64,-0.144,0.66,0.12
45.65,-0.115,0.863,-0.033
45.66,-0.427,0.109,-0.101
45.67,-0.128,2.0,0.156
45.68,-0.037,0.741,0.042
45.69,-0.099,0.906,-0.075
45.7,-0.413,0.415,-0.142
45.71,-0.07,1.753,0.209
45.72,-0.228,1.263,0.053
45.73,-0.003,0.501,-0.054
45.74,-0.431,0.859,-0.101
45.75,-0.005,1.352,0.12
45.76,-0.314,1.444,0.061
45.77,-0.023,0.552,-0.083
45.78,-0.462,0.625,-0.034
45.79,-0.112,1.204,0.156
45.8,-0.255,1.065,-0.038
45.81,-0.168,0.95,-0.068
45.82,-0.392,0.314,0.024
45.83,-0.16,1.373,0.235
45.84,-0.197,0.887,-0.034
45.85,-0.307,0.909,-0.12
45.86,-0.186,0.741,-0.053
45.87,-0.09,1.047,0.133
45.88,-0.282,1.178,-0.064
45.89,-0.196,0.444,-0.161
45.9,-0.29,1.773,0.017
45.91,-0.088,0.636,0.218
45.92,-0.326,1.177,0.026
45.93,-0.335,0.287,-0.21
45.94,-0.343,1.787,0.041
45.95,-0.141,0.775,0.101
45.96,-0.208,0.843,-0.023
45.97,-0.405,0.61,-0.229
45.98,-0.123,1.396,0.055
45.99,-0.158,1.02,0.098
46.0,-0.09,0.542,0.02
46.01,-0.533,0.768,-0.152
46.02,-0.012,1.662,0.025
46.03,-0.036,0.986,0.085
46.04,-0.032,0.635,-0.043
46.05,-0.422,0.339,-0.173
46.06,-0.182,2.0,0.135
46.07,-0.025,0.573,0.079
46.08,-0.113,0.957,-0.007
46.09,-0.413,0.202,-0.16
46.1,-0.153,2.0,0.186
46.11,-0.159,0.885,0.079
46.12,-0.055,0.728,-0.072
46.13,-0.307,0.593,-0.179
46.14,-0.122,1.486,0.128
46.15,-0.257,1.417,0.022
46.16,-0.035,0.49,-0.068
46.17,-0.403,0.841,-0.041
46.18,-0.146,1.246,0.227
46.19,-0.253,1.423,0.025
46.2,-0.082,0.714,-0.092
46.21,-0.39,0.432,-0.042
46.22,-0.168,1.312,0.211
46.23,-0.154,0.994,-0.02
46.24,-0.321,0.938,-0.141
46.25,-0.15,0.487,-0.011
46.26,-0.18,1.305,0.109
46.27,-0.173,0.888,-0.04
46.28,-0.252,0.787,-0.142
46.29,-0.231,1.173,-0.056
46.3,0.023,0.845,0.136
46.31,-0.322,1.32,-0.074
46.32,-0.199,0.298,-0.188
46.33,-0.277,1.728,0.017
46.34,-0.112,0.649,0.141
46.35,-0.269,1.254,-0.038
46.36,-0.315,0.418,-0.202
46.37,-0.257,1.94,0.083
46.38,-0.065,0.623,0.086
46.39,-0.071,0.77,-0.034
46.4,-0.51,0.562,-0.236
46.41,0.039,1.636,0.064
46.42,-0.119,1.181,0.06
46.43,0.029,0.354,-0.053
46.44,-0.45,0.795,-0.178
46.45,-0.042,1.689,0.145
46.46,-0.202,1.018,0.109
46.47,-0.037,0.649,-0.063
46.48,-0.414,0.425,-0.156
46.49,-0.166,1.979,0.195
46.5,-0.175,1.049,0.072
46.51,-0.022,0.935,-0.109
46.52,-0.353,0.202,-0.098
46.53,-0.198,1.629,0.165
46.54,-0.164,0.904,0.022
46.55,-0.19,1.02,-0.115
46.56,-0.327,0.371,-0.089
46.57,-0.211,1.268,0.232
46.58,-0.219,1.178,0.025
46.59,-0.153,0.586,-0.132
46.6,-0.324,1.001,-0.036
46.61,-0.076,0.771,0.171
46.62,-0.345,1.525,-0.001
46.63,-0.148,0.27,-0.067
46.64,-0.223,1.26,-0.079
46.65,-0.03,0.907,0.135
46.66,-0.23,1.04,-0.032
46.67,-0.331,0.825,-0.188
46.68,-0.221,1.201,0.025
46.69,-0.182,1.168,0.15
46.7,-0.143,0.622,0.008
46.71,-0.405,0.873,-0.139
46.72,-0.321,1.304,0.124
46.73,-0.188,0.897,0.174
46.74,-0.149,0.875,-0.06
46.75,-0.32,0.365,-0.243
46.76,-0.107,1.96,0.016
46.77,-0.103,0.491,0.071
46.78,-0.139,1.088,0.039
46.79,-0.491,0.162,-0.165
46.8,-0.229,2.0,0.113
46.81,-0.123,0.663,0.098
46.82,-0.064,0.76,0.002
46.83,-0.535,0.534,-0.18
46.84,-0.053,1.72,0.18
46.85,-0.252,1.119,0.093
46.86,-0.001,0.4,-0.009
46.87,-0.488,0.788,-0.127
46.88,-0.022,1.59,0.149
46.89,-0.151,1.22,0.055
46.9,0.035,0.678,-0.029
46.91,-0.451,0.444,-0.154
46.92,-0.082,1.816,0.117
46.93,-0.051,0.89,0.048
46.94,-0.121,1.054,-0.086
46.95,-0.424,0.122,-0.111
46.96,-0.222,1.703,0.199
46.97,-0.18,0.981,0.028
46.98,-0.144,0.856,-0.087
46.99,-0.427,0.549,-0.147
47.0,-0.066,1.166,0.228
47.01,-0.33,1.354,0.01
47.02,-0.05,0.496,-0.127
47.03,-0.429,0.986,-0.045
47.04,0.012,0.889,0.185
47.05,-0.279,1.496,-0.009
47.06,-0.134,0.487,-0.121
47.07,-0.271,0.948,-0.044
47.08,-0.058,1.094,0.187
47.09,-0.119,0.876,-0.047
47.1,-0.342,0.894,-0.176
47.11,-0.109,0.937,-0.044
47.12,-0.124,1.19,0.114
47.13,-0.138,0.788,-0.017
47.14,-0.359,0.809,-0.133
47.15,-0.271,1.303,0.03
47.16,-0.123,0.807,0.125
47.17,-0.212,0.92,0.02
47.18,-0.442,0.467,-0.15
47.19,-0.318,1.808,0.103
47.2,-0.131,0.535,0.156
47.21,-0.186,1.124,0.058
47.22,-0.449,0.134,-0.136
47.23,-0.164,2.0,0.057
47.24,-0.109,0.574,0.143
47.25,-0.026,0.866,-0.028
47.26,-0.561,0.482,-0.214
47.27,-0.063,1.719,0.101
47.28,-0.351,0.975,0.067
47.29,0.064,0.444,0.01
47.3,-0.572,0.842,-0.171
47.31,-0.001,1.621,0.222
47.32,-0.281,1.216,0.105
47.33,0.038,0.56,0.01
47.34,-0.453,0.511,-0.114
47.35,-0.044,1.895,0.107
47.36,-0.043,0.858,0.06
47.37,-0.154,0.972,-0.063
47.38,-0.307,0.101,-0.144
47.39,-0.13,2.0,0.165
47.4,-0.122,0.828,0.023
47.41,-0.012,0.821,-0.069
47.42,-0.434,0.439,-0.159
47.43,-0.054,1.349,0.164
47.44,-0.327,1.326,0.025
47.45,0.013,0.527,-0.085
47.46,-0.514,0.916,-0.104
47.47,-0.097,1.049,0.211
47.48,-0.29,1.399,0.065
47.49,-0.112,0.554,-0.082
47.5,-0.429,0.665,-0.064
47.51,-0.119,1.261,0.272
47.52,-0.141,1.191,0.017
47.53,-0.111,0.886,-0.135
47.54,-0.291,0.417,-0.026
47.55,-0.102,1.374,0.098
47.56,-0.174,0.845,-0.03
47.57,-0.196,0.899,-0.177
47.58,-0.154,0.924,-0.145
47.59,-0.026,0.992,0.104
47.6,-0.199,1.172,-0.032
47.61,-0.256,0.45,-0.113
47.62,-0.408,1.299,-0.053
47.63,-0.021,0.72,0.126
47.64,-0.245,1.415,-0.025
47.65,-0.171,0.287,-0.176
47.66,-0.284,1.679,-0.043
47.67,-0.101,0.825,0.111
47.68,-0.188,0.9,0.03
47.69,-0.397,0.833,-0.189
47.7,-0.298,1.279,0.131
47.71,-0.233,1.047,0.158
47.72,-0.048,0.665,0.058
47.73,-0.49,0.804,-0.185
47.74,-0.292,1.364,0.083
47.75,-0.197,0.843,0.088
47.76,-0.154,0.94,-0.009
47.77,-0.291,0.286,-0.161
47.78,-0.234,1.991,0.072
47.79,0.003,0.489,0.023
47.8,-0.151,1.054,-0.024
47.81,-0.375,0.131,-0.206
47.82,-0.184,2.0,0.071
47.83,-0.057,0.75,0.074
47.84,-0.063,0.647,-0.036
47.85,-0.496,0.605,-0.208
47.86,-0.135,1.706,0.214
47.87,-0.257,1.105,0.098
47.88,0.093,0.406,-0.04
47.89,-0.518,0.854,-0.192
47.9,0.051,1.58,0.163
47.91,-0.231,1.231,0.086
47.92,0.003,0.687,-0.044
47.93,-0.343,0.387,-0.121
47.94,-0.089,1.902,0.112
47.95,-0.1,0.823,0.095
47.96,-0.106,1.082,-0.043
47.97,-0.364,0.198,-0.123
47.98,-0.189,1.694,0.197
47.99,-0.218,0.937,0.052
48.0,-0.113,0.946,-0.086
48.01,-0.425,0.412,-0.094
48.02,-0.235,1.288,0.272
48.03,-0.256,1.274,0.041
48.04,-0.04,0.546,-0.079
48.05,-0.406,0.904,-0.048
48.06,-0.129,0.898,0.218
48.07,-0.342,1.497,0.061
48.08,-0.101,0.37,-0.077
48.09,-0.334,0.934,-0.1
48.1,0.008,0.99,0.158
48.11,-0.208,1.224,-0.045
48.12,-0.267,0.758,-0.122
48.13,-0.166,0.74,-0.055
48.14,-0.156,1.25,0.12
48.15,-0.127,0.753,-0.006
48.16,-0.316,0.987,-0.145
48.17,-0.242,0.957,0.001
48.18,-0.166,1.056,0.156
48.19,-0.218,1.069,-0.039
48.2,-0.225,0.546,-0.138
48.21,-0.306,1.75,0.005
48.22,-0.088,0.566,0.152
48.23,-0.259,1.295,0.001
48.24,-0.311,0.228,-0.169
48.25,-0.337,1.835,0.102
48.26,-0.117,0.669,0.116
48.27,-0.132,0.896,0.011
48.28,-0.424,0.565,-0.249
48.29,-0.187,1.514,0.1
48.3,-0.208,0.985,0.066
48.31,-0.026,0.57,-0.003
48.32,-0.475,0.844,-0.202
48.33,0.018,1.509,0.014
48.34,-0.14,1.005,0.08
48.35,-0.04,0.601,-0.037
48.36,-0.395,0.472,-0.202
48.37,-0.151,1.985,0.041
48.38,-0.009,0.616,0.125
48.39,-0.05,1.036,-0.028
48.4,-0.481,0.141,-0.096
48.41,-0.18,2.0,0.252
48.42,-0.134,0.849,0.09
48.43,-0.092,0.783,-0.001
48.44,-0.348,0.53,-0.15
48.45,-0.039,1.711,0.189
48.46,-0.186,1.198,0.056
