t,ax,ay,az
0.0,-0.183,0.924,0.059
0.01,-0.341,0.672,-0.16
0.02,-0.207,1.423,0.166
0.03,-0.135,1.128,0.172
0.04,-0.069,0.405,0.016
0.05,-0.479,1.0,-0.185
0.06,-0.033,1.467,0.044
0.07,-0.162,1.038,0.122
0.08,-0.016,0.678,-0.052
0.09,-0.415,0.646,-0.263
0.1,0.009,1.839,0.107
0.11,-0.064,0.727,0.092
0.12,-0.152,0.938,-0.044
0.13,-0.268,0.275,-0.249
0.14,-0.155,1.954,0.079
0.15,-0.027,0.712,0.128
0.16,-0.122,0.839,-0.06
0.17,-0.476,0.576,-0.195
0.18,-0.118,1.594,0.224
0.19,-0.18,1.083,0.139
0.2,0.019,0.507,-0.027
0.21,-0.585,1.031,-0.167
0.22,0.051,1.384,0.177
0.23,-0.216,1.321,0.065
0.24,-0.056,0.605,-0.067
0.25,-0.461,0.696,-0.125
0.26,-0.026,1.748,0.179
0.27,-0.094,0.747,0.132
0.28,-0.183,0.966,-0.044
0.29,-0.357,0.271,-0.106
0.3,-0.185,1.869,0.127
0.31,-0.136,0.778,0.052
0.32,-0.138,0.882,-0.086
0.33,-0.305,0.405,-0.182
0.34,-0.122,1.481,0.159
0.35,-0.244,1.231,-0.022
0.36,-0.14,0.445,-0.171
0.37,-0.474,0.828,-0.132
0.38,-0.073,1.123,0.239
0.39,-0.316,1.419,0.03
0.4,-0.137,0.417,-0.061
0.41,-0.499,0.733,-0.074
0.42,-0.075,1.135,0.202
0.43,-0.196,0.993,-0.011
0.44,-0.234,0.891,-0.15
0.45,-0.283,0.549,-0.043
0.46,-0.114,1.277,0.178
0.47,-0.094,0.745,0.013
0.48,-0.36,0.996,-0.152
0.49,-0.316,0.762,-0.074
0.5,-0.099,0.946,0.179
0.51,-0.153,1.169,-0.03
0.52,-0.237,0.488,-0.184
0.53,-0.269,1.493,-0.048
0.54,-0.03,0.62,0.132
0.55,-0.219,1.302,0.043
0.56,-0.202,0.435,-0.19
0.57,-0.275,1.706,-0.021
0.58,-0.124,0.756,0.151
0.59,-0.119,0.832,-0.003
0.6,-0.313,0.801,-0.19
0.61,-0.119,1.429,0.076
0.62,-0.212,1.129,0.167
0.63,0.032,0.458,-0.001
0.64,-0.45,0.992,-0.249
0.65,-0.031,1.463,0.088
0.66,-0.202,0.995,0.134
0.67,-0.135,0.696,0.011
0.68,-0.379,0.778,-0.168
0.69,-0.04,1.715,0.072
0.7,-0.086,0.762,0.15
0.71,-0.195,0.958,-0.055
0.72,-0.379,0.264,-0.149
0.73,-0.164,1.915,0.197
0.74,-0.059,0.631,0.139
0.75,-0.28,0.9,-0.069
0.76,-0.333,0.43,-0.152
0.77,-0.14,1.684,0.134
0.78,-0.051,1.07,0.051
0.79,-0.062,0.509,-0.071
0.8,-0.428,0.884,-0.17
0.81,-0.037,1.38,0.165
0.82,-0.304,1.32,0.064
0.83,0.013,0.556,-0.073
0.84,-0.433,0.775,-0.187
0.85,-0.002,1.548,0.126
0.86,-0.103,1.08,0.005
0.87,-0.151,0.83,-0.093
0.88,-0.333,0.284,-0.128
0.89,-0.252,1.678,0.221
0.9,-0.168,0.857,0.016
0.91,-0.235,0.889,-0.095
0.92,-0.405,0.369,-0.138
0.93,-0.124,1.35,0.194
0.94,-0.233,0.972,0.01
0.95,-0.217,0.621,-0.112
0.96,-0.388,0.856,-0.066
0.97,-0.019,0.909,0.25
0.98,-0.29,1.521,0.036
0.99,-0.179,0.267,-0.123
1.0,-0.449,0.985,-0.035
1.01,0.039,0.906,0.134
1.02,-0.188,1.148,0.0
1.03,-0.22,0.709,-0.237
1.04,-0.179,0.978,-0.043
1.05,-0.096,1.204,0.134
1.06,-0.111,0.624,0.01
1.07,-0.275,1.116,-0.158
1.08,-0.316,0.958,-0.049
1.09,-0.143,0.95,0.104
1.1,-0.175,0.943,0.047
1.11,-0.257,0.757,-0.169
1.12,-0.369,1.711,-0.037
1.13,-0.045,0.589,0.138
1.14,-0.225,1.206,0.039
1.15,-0.187,0.384,-0.173
1.16,-0.364,1.842,0.133
1.17,-0.019,0.751,0.194
1.18,-0.206,0.863,0.05
1.19,-0.403,0.561,-0.217
1.2,-0.189,1.667,0.142
1.21,-0.299,0.987,0.121
1.22,0.028,0.548,-0.009
1.23,-0.5,0.946,-0.214
1.24,0.077,1.494,0.081
1.25,-0.229,1.096,0.08
1.26,-0.035,0.54,-0.016
1.27,-0.527,0.692,-0.21
1.28,0.061,1.729,0.004
1.29,-0.002,0.752,0.095
1.3,-0.094,0.994,-0.035
1.31,-0.447,0.274,-0.169
1.32,-0.181,1.949,0.182
1.33,-0.167,0.588,0.175
1.34,-0.164,0.951,-0.05
1.35,-0.466,0.54,-0.122
1.36,-0.118,1.608,0.253
1.37,-0.129,1.13,0.108
1.38,-0.014,0.448,-0.116
1.39,-0.378,0.991,-0.162
1.4,0.074,1.407,0.092
1.41,-0.108,1.282,-0.019
1.42,-0.021,0.604,-0.106
1.43,-0.383,0.684,-0.167
1.44,-0.052,1.635,0.079
1.45,-0.096,0.982,0.09
1.46,-0.189,0.938,-0.108
1.47,-0.363,0.195,-0.075
1.48,-0.197,1.588,0.228
1.49,-0.206,0.912,-0.01
1.5,-0.253,0.964,-0.067
1.51,-0.37,0.302,-0.029
1.52,-0.117,1.308,0.129
1.53,-0.105,1.536,0.153
1.54,-0.182,1.05,0.003
1.55,-0.018,0.618,-0.095
1.56,-0.426,0.802,-0.144
1.57,-0.106,1.146,0.176
1.58,-0.292,1.364,-0.038
1.59,-0.138,0.449,-0.105
1.6,-0.425,0.738,-0.084
1.61,-0.106,1.189,0.214
1.62,-0.307,1.262,0.013
1.63,-0.248,0.696,-0.13
1.64,-0.387,0.386,-0.05
1.65,-0.165,1.324,0.159
1.66,-0.21,0.815,-0.001
1.67,-0.24,0.907,-0.177
1.68,-0.249,0.742,-0.023
1.69,-0.099,1.138,0.164
1.7,-0.192,0.937,0.026
1.71,-0.245,0.722,-0.189
1.72,-0.31,1.25,-0.033
1.73,-0.035,0.624,0.064
1.74,-0.221,1.358,-0.02
1.75,-0.196,0.323,-0.2
1.76,-0.257,1.863,-0.0
1.77,-0.101,0.636,0.198
1.78,-0.157,0.932,0.03
1.79,-0.429,0.71,-0.165
1.8,-0.226,1.501,0.115
1.81,-0.176,1.064,0.163
1.82,-0.027,0.5,0.035
1.83,-0.498,0.961,-0.223
1.84,-0.024,1.458,0.116
1.85,-0.274,1.026,0.102
1.86,-0.022,0.603,-0.037
1.87,-0.438,0.67,-0.206
1.88,-0.06,1.759,0.036
1.89,-0.059,0.722,0.167
1.9,-0.1,0.975,-0.061
1.91,-0.357,0.232,-0.213
1.92,-0.132,1.931,0.081
1.93,0.003,0.623,0.122
1.94,-0.171,0.953,-0.068
1.95,-0.492,0.485,-0.149
1.96,-0.112,1.58,0.211
1.97,-0.147,1.169,0.141
1.98,-0.063,0.392,-0.092
1.99,-0.464,0.972,-0.154
2.0,-0.083,1.422,0.137
2.01,-0.215,1.261,0.034
2.02,-0.01,0.59,-0.058
2.03,-0.41,0.661,-0.12
2.04,-0.106,1.657,0.098
2.05,-0.138,0.915,0.016
2.06,-0.149,0.995,-0.085
2.07,-0.349,0.18,-0.116
2.08,-0.162,1.785,0.18
2.09,-0.144,0.852,-0.019
2.1,-0.201,0.909,-0.1
2.11,-0.311,0.396,-0.152
2.12,-0.149,1.415,0.214
2.13,-0.372,1.286,-0.042
2.14,-0.102,0.438,-0.101
2.15,-0.472,0.981,-0.022
2.16,0.063,0.81,0.215
2.17,-0.352,1.377,0.033
2.18,-0.166,0.48,-0.199
2.19,-0.348,0.896,-0.086
2.2,-0.024,0.981,0.112
2.21,-0.204,0.987,-0.047
2.22,-0.357,0.593,-0.159
2.23,-0.188,1.589,0.041
2.24,-0.186,0.983,0.173
2.25,-0.018,0.592,0.04
2.26,-0.473,1.015,-0.182
2.27,-0.018,1.349,0.085
2.28,-0.226,1.155,0.168
2.29,-0.039,0.569,0.019
2.3,-0.567,0.731,-0.192
2.31,-0.06,1.876,0.087
2.32,-0.301,0.6,0.112
2.33,-0.04,1.032,0.014
2.34,-0.48,0.375,-0.191
2.35,-0.078,1.845,0.119
2.36,-0.04,0.661,0.131
2.37,-0.175,0.888,-0.043
2.38,-0.353,0.399,-0.209
2.39,-0.056,1.742,0.075
2.4,-0.06,0.993,0.111
2.41,-0.114,0.546,-0.084
2.42,-0.515,0.936,-0.183
2.43,-0.043,1.374,0.228
2.44,-0.156,1.279,0.107
2.45,-0.023,0.454,-0.058
2.46,-0.424,0.867,-0.185
2.47,-0.102,1.627,0.115
2.48,-0.055,0.948,0.062
2.49,-0.136,0.917,-0.121
2.5,-0.346,0.228,-0.133
2.51,-0.19,1.774,0.152
2.52,-0.135,0.775,0.05
2.53,-0.18,0.974,-0.119
2.54,-0.442,0.291,-0.098
2.55,-0.178,1.569,0.222
2.56,-0.284,1.098,0.034
2.57,-0.16,0.543,-0.076
2.58,-0.496,0.82,-0.102
2.59,-0.046,1.096,0.261
2.6,-0.357,1.513,0.009
2.61,-0.152,0.306,-0.082
2.62,-0.459,0.902,-0.047
2.63,-0.039,1.005,0.197
2.64,-0.233,1.146,0.054
2.65,-0.315,0.797,-0.195
2.66,-0.374,0.465,0.004
2.67,-0.149,1.355,0.153
2.68,-0.114,0.814,0.017
2.69,-0.292,0.998,-0.142
2.7,-0.297,0.858,-0.034
2.71,-0.077,1.021,0.165
2.72,-0.186,1.01,-0.022
2.73,-0.197,0.661,-0.171
2.74,-0.253,1.716,-0.074
2.75,-0.055,0.557,0.119
2.76,-0.168,1.177,-0.016
2.77,-0.266,0.396,-0.241
2.78,-0.213,1.84,-0.008
2.79,-0.202,0.598,0.097
2.8,-0.137,0.922,0.012
2.81,-0.346,0.662,-0.161
2.82,-0.159,1.571,0.121
2.83,-0.224,1.033,0.124
2.84,-0.005,0.521,0.014
2.85,-0.512,0.974,-0.213
2.86,0.104,1.395,0.037
2.87,-0.159,1.094,0.067
2.88,0.037,0.647,-0.044
2.89,-0.477,0.649,-0.191
2.9,-0.009,1.811,0.06
2.91,-0.128,0.664,0.152
2.92,-0.13,1.004,-0.022
2.93,-0.418,0.278,-0.193
2.94,-0.175,1.893,0.145
2.95,-0.115,0.724,0.145
2.96,-0.123,0.826,-0.065
2.97,-0.467,0.604,-0.114
2.98,-0.131,1.569,0.194
2.99,-0.188,1.219,0.09
3.0,-0.0,0.475,-0.077
3.01,-0.465,0.926,-0.103
3.02,0.034,1.515,0.173
3.03,-0.157,1.319,0.012
3.04,-0.002,0.464,-0.093
3.05,-0.444,0.805,-0.125
3.06,-0.04,1.44,0.188
3.07,-0.256,1.246,0.01
3.08,-0.173,0.685,-0.079
3.09,-0.373,0.378,-0.055
3.1,-0.233,1.469,0.209
3.11,-0.147,0.861,0.016
3.12,-0.385,1.013,-0.128
3.13,-0.3,0.305,-0.003
3.14,-0.155,1.345,0.173
3.15,-0.215,1.022,0.022
3.16,-0.277,0.692,-0.135
3.17,-0.433,0.876,-0.02
3.18,-0.013,0.833,0.164
3.19,-0.28,1.446,-0.021
3.2,-0.059,0.292,-0.172
3.21,-0.278,1.623,-0.067
3.22,-0.03,0.652,0.154
3.23,-0.135,1.11,-0.028
3.24,-0.303,0.732,-0.164
3.25,-0.171,1.52,0.046
3.26,-0.257,1.027,0.16
3.27,-0.04,0.606,0.067
3.28,-0.509,1.01,-0.16
3.29,-0.164,1.414,0.112
3.3,-0.327,0.969,0.128
3.31,-0.015,0.68,0.015
3.32,-0.416,0.761,-0.199
3.33,-0.076,1.675,0.096
3.34,-0.12,0.708,0.158
3.35,-0.116,0.992,0.019
3.36,-0.406,0.286,-0.164
3.37,-0.138,1.964,0.088
3.38,-0.071,0.586,0.069
3.39,-0.141,1.004,-0.045
3.4,-0.473,0.455,-0.181
3.41,-0.1,1.656,0.194
3.42,-0.144,1.106,0.084
3.43,-0.041,0.443,-0.082
3.44,-0.426,0.98,-0.143
3.45,-0.076,1.416,0.197
3.46,-0.146,1.252,0.082
3.47,-0.053,0.526,-0.08
3.48,-0.374,0.77,-0.229
3.49,-0.012,1.677,0.069
3.5,-0.07,0.85,-0.008
3.51,-0.056,1.009,-0.104
3.52,-0.306,0.245,-0.19
3.53,-0.109,1.869,0.082
3.54,-0.088,0.823,-0.032
3.55,-0.175,0.865,-0.121
3.56,-0.379,0.363,-0.15
3.57,-0.116,1.506,0.162
3.58,-0.28,1.127,-0.013
3.59,-0.078,0.516,-0.144
3.6,-0.533,0.832,-0.069
3.61,0.013,1.023,0.215
3.62,-0.381,1.418,0.03
3.63,-0.102,0.363,-0.109
3.64,-0.527,0.746,-0.05
3.65,-0.028,1.148,0.162
3.66,-0.315,1.262,-0.031
3.67,-0.248,0.713,-0.125
3.68,-0.288,0.54,-0.029
3.69,-0.076,1.273,0.161
3.7,-0.108,0.799,0.023
3.71,-0.307,1.025,-0.164
3.72,-0.153,1.226,-0.034
3.73,-0.103,0.993,0.171
3.74,-0.182,0.86,0.026
3.75,-0.326,0.605,-0.23
3.76,-0.352,1.624,0.018
3.77,-0.128,0.53,0.137
3.78,-0.26,1.247,0.038
3.79,-0.3,0.339,-0.15
3.8,-0.299,1.864,0.112
3.81,-0.068,0.694,0.182
3.82,-0.175,0.946,-0.021
3.83,-0.442,0.417,-0.179
3.84,-0.136,1.748,0.104
3.85,-0.161,0.947,0.154
3.86,-0.043,0.605,-0.01
3.87,-0.541,0.945,-0.186
3.88,-0.005,1.363,0.163
3.89,-0.208,1.231,0.14
3.9,0.033,0.488,-0.005
3.91,-0.533,0.862,-0.174
3.92,0.011,1.619,0.089
3.93,-0.133,0.932,0.1
3.94,-0.1,0.884,-0.082
3.95,-0.34,0.311,-0.146
3.96,-0.093,1.911,0.15
3.97,0.046,0.644,0.092
3.98,-0.138,1.021,-0.083
3.99,-0.368,0.389,-0.142
4.0,-0.125,1.733,0.168
4.01,-0.166,1.018,0.059
4.02,-0.022,0.55,-0.117
4.03,-0.397,0.823,-0.154
4.04,0.0,1.234,0.146
4.05,-0.326,1.36,0.024
4.06,-0.049,0.438,-0.117
4.07,-0.544,0.754,-0.119
4.08,-0.102,1.293,0.229
4.09,-0.309,1.116,0.07
4.1,-0.24,0.718,-0.094
4.11,-0.375,0.312,-0.077
4.12,-0.205,1.591,0.204
4.13,-0.217,0.908,-0.021
4.14,-0.237,0.861,-0.058
4.15,-0.363,0.518,-0.006
4.16,-0.149,1.212,0.201
4.17,-0.157,0.951,0.004
4.18,-0.289,0.725,-0.146
4.19,-0.256,0.924,-0.077
4.2,-0.131,0.818,0.159
4.21,-0.164,1.416,-0.038
4.22,-0.19,0.315,-0.231
4.23,-0.278,1.406,0.008
4.24,-0.116,0.693,0.171
4.25,-0.229,1.137,-0.025
4.26,-0.25,0.631,-0.161
4.27,-0.191,1.475,-0.043
4.28,-0.151,1.085,0.138
4.29,-0.094,0.542,0.017
4.3,-0.519,1.104,-0.161
4.31,-0.198,1.398,0.112
4.32,-0.295,0.98,0.175
4.33,-0.072,0.726,-0.002
4.34,-0.424,0.652,-0.191
4.35,-0.158,1.738,0.156
4.36,-0.093,0.694,0.18
4.37,-0.241,0.914,0.001
4.38,-0.383,0.266,-0.173
4.39,-0.111,1.942,0.054
4.4,-0.097,0.684,0.172
4.41,-0.137,0.904,-0.05
4.42,-0.553,0.475,-0.192
4.43,-0.07,1.666,0.169
4.44,-0.29,1.094,0.142
4.45,-0.086,0.462,0.015
4.46,-0.536,0.958,-0.14
4.47,-0.073,1.387,0.236
4.48,-0.173,1.2,0.093
4.49,-0.026,0.551,-0.09
4.5,-0.441,0.774,-0.15
4.51,-0.139,1.671,0.118
4.52,-0.134,0.834,0.069
4.53,-0.077,0.978,-0.086
4.54,-0.384,0.197,-0.163
4.55,-0.161,1.882,0.152
4.56,-0.067,0.811,0.047
4.57,-0.208,0.93,-0.132
4.58,-0.318,0.39,-0.147
4.59,-0.2,1.572,0.148
4.6,-0.233,1.249,-0.027
4.61,-0.088,0.421,-0.093
4.62,-0.467,0.783,-0.015
4.63,0.031,0.884,0.173
4.64,-0.34,1.381,-0.025
4.65,-0.119,0.344,-0.125
4.66,-0.337,1.205,-0.056
4.67,0.024,0.781,0.11
4.68,-0.271,1.15,-0.032
4.69,-0.214,0.697,-0.213
4.7,-0.268,1.139,-0.035
4.71,-0.098,1.036,0.127
4.72,-0.132,0.688,0.016
4.73,-0.349,1.097,-0.206
4.74,-0.157,1.294,0.005
4.75,-0.102,1.144,0.158
4.76,-0.076,0.575,-0.01
4.77,-0.444,0.815,-0.176
4.78,-0.184,1.744,0.067
4.79,-0.19,0.687,0.135
4.8,-0.108,1.019,-0.022
4.81,-0.392,0.291,-0.244
4.82,-0.174,1.992,0.157
4.83,-0.164,0.577,0.08
4.84,-0.206,0.9,-0.013
4.85,-0.394,0.442,-0.236
4.86,-0.039,1.662,0.06
4.87,-0.095,1.003,0.123
4.88,0.022,0.516,-0.049
4.89,-0.49,0.948,-0.252
4.9,-0.002,1.38,0.142
4.91,-0.154,1.25,0.073
4.92,0.025,0.56,-0.031
4.93,-0.409,0.779,-0.229
4.94,-0.044,1.69,0.125
4.95,-0.02,0.833,0.036
4.96,-0.075,1.015,-0.1
4.97,-0.348,0.248,-0.143
4.98,-0.184,1.948,0.159
4.99,-0.061,0.75,0.047
5.0,-0.159,1.002,-0.119
5.01,-0.387,0.334,-0.142
5.02,-0.077,1.681,0.149
5.03,-0.133,1.156,-0.004
5.04,-0.043,0.537,-0.138
5.05,-0.442,0.851,-0.092
5.06,-0.08,1.106,0.185
5.07,-0.29,1.487,-0.037
5.08,-0.125,0.386,-0.09
5.09,-0.5,0.746,-0.07
5.1,-0.013,1.281,0.222
5.11,-0.376,1.095,0.072
5.12,-0.232,0.792,-0.111
5.13,-0.365,0.557,-0.052
5.14,-0.098,1.273,0.15
5.15,-0.164,0.818,-0.05
5.16,-0.248,0.908,-0.137
5.17,-0.125,1.152,-0.094
5.18,-0.088,0.991,0.157
5.19,-0.176,0.852,-0.029
5.2,-0.299,0.715,-0.182
5.21,-0.286,1.752,0.002
5.22,-0.155,0.552,0.194
5.23,-0.219,1.2,0.042
5.24,-0.371,0.279,-0.162
5.25,-0.304,1.916,0.139
5.26,-0.14,0.673,0.146
5.27,-0.211,0.756,0.014
5.28,-0.39,0.74,-0.163
5.29,-0.097,1.492,0.108
5.3,-0.122,1.104,0.144
5.31,-0.001,0.447,-0.041
5.32,-0.492,0.978,-0.198
5.33,0.056,1.473,0.085
5.34,-0.214,1.07,0.071
5.35,-0.069,0.685,-0.072
5.36,-0.456,0.583,-0.156
5.37,-0.092,1.799,0.151
5.38,-0.069,0.705,0.159
5.39,-0.196,1.002,-0.066
5.4,-0.327,0.199,-0.153
5.41,-0.233,1.849,0.153
5.42,-0.006,0.8,0.067
5.43,-0.248,0.98,-0.112
5.44,-0.337,0.255,-0.132
5.45,-0.216,1.571,0.206
5.46,-0.291,1.084,0.056
5.47,-0.144,0.539,-0.098
5.48,-0.491,0.817,-0.053
5.49,-0.009,0.995,0.24
5.5,-0.396,1.435,-0.023
5.51,-0.08,0.333,-0.1
5.52,-0.486,0.891,-0.022
5.53,0.011,0.987,0.141
5.54,-0.297,1.097,0.019
5.55,-0.278,0.802,-0.167
5.56,-0.345,0.483,-0.035
5.57,-0.118,1.252,0.128
5.58,-0.104,0.826,-0.008
5.59,-0.36,0.93,-0.167
5.6,-0.116,1.171,-0.081
5.61,-0.125,0.979,0.151
5.62,-0.1,0.864,-0.008
5.63,-0.34,0.73,-0.204
5.64,-0.183,1.813,-0.035
5.65,-0.134,0.606,0.145
5.66,-0.2,1.115,0.049
5.67,-0.415,0.329,-0.208
5.68,-0.301,1.892,0.064
5.69,-0.182,0.625,0.204
5.7,-0.199,0.906,0.029
5.71,-0.36,0.612,-0.199
5.72,-0.074,1.531,0.078
5.73,-0.186,1.146,0.141
5.74,-0.036,0.423,-0.012
5.75,-0.444,0.959,-0.201
5.76,-0.012,1.402,0.083
5.77,-0.104,1.18,0.151
5.78,-0.046,0.633,-0.047
5.79,-0.441,0.637,-0.203
5.8,-0.019,1.84,0.144
5.81,-0.181,0.671,0.06
5.82,-0.167,0.999,-0.056
5.83,-0.366,0.259,-0.17
5.84,-0.152,1.896,0.179
5.85,-0.022,0.714,0.106
5.86,-0.139,0.843,-0.074
5.87,-0.446,0.524,-0.117
5.88,-0.087,1.553,0.124
5.89,-0.166,1.168,0.067
5.9,0.011,0.516,-0.1
5.91,-0.563,0.919,-0.162
5.92,0.038,1.387,0.144
5.93,-0.221,1.295,0.007
5.94,-0.02,0.554,-0.093
5.95,-0.439,0.679,-0.135
5.96,-0.134,1.506,0.162
5.97,-0.252,0.981,0.051
5.98,-0.247,0.88,-0.115
5.99,-0.328,0.207,-0.133
6.0,-0.166,1.563,0.227
6.01,-0.203,0.794,0.028
6.02,-0.3,0.922,-0.103
6.03,-0.344,0.417,-0.086
6.04,-0.146,1.278,0.239
6.05,-0.357,1.335,0.011
6.06,-0.077,0.343,-0.121
6.07,-0.53,1.006,-0.036
6.08,0.075,0.802,0.147
6.09,-0.317,1.438,-0.018
6.1,-0.167,0.421,-0.175
6.11,-0.183,1.361,-0.063
6.12,-0.098,0.927,0.154
6.13,-0.147,0.828,0.004
6.14,-0.437,0.93,-0.168
6.15,-0.103,1.05,-0.035
6.16,-0.273,1.097,0.135
6.17,-0.079,0.687,0.081
6.18,-0.443,0.937,-0.201
6.19,-0.136,1.52,0.05
6.2,-0.223,0.835,0.135
6.21,-0.175,0.941,0.026
6.22,-0.341,0.5,-0.119
6.23,-0.107,1.714,0.099
6.24,-0.085,0.716,0.17
6.25,-0.227,0.936,-0.035
6.26,-0.429,0.239,-0.187
6.27,-0.104,1.989,0.122
6.28,-0.11,0.671,0.107
6.29,-0.173,0.854,-0.031
6.3,-0.368,0.489,-0.161
6.31,-0.099,1.621,0.144
6.32,-0.038,1.069,0.105
6.33,0.002,0.507,-0.091
6.34,-0.533,0.923,-0.166
6.35,0.035,1.458,0.158
6.36,-0.186,1.297,0.066
6.37,0.005,0.578,-0.058
6.38,-0.46,0.707,-0.196
6.39,-0.056,1.722,0.156
6.4,-0.09,0.939,0.049
6.41,-0.15,0.945,-0.086
6.42,-0.284,0.223,-0.133
6.43,-0.234,1.786,0.17
6.44,-0.143,0.819,0.036
6.45,-0.158,0.892,-0.133
6.46,-0.418,0.371,-0.19
6.47,-0.124,1.409,0.225
6.48,-0.322,1.135,0.015
6.49,-0.106,0.514,-0.085
6.5,-0.545,0.884,-0.042
6.51,0.028,0.912,0.252
6.52,-0.366,1.449,0.016
6.53,-0.15,0.373,-0.108
6.54,-0.375,0.886,-0.087
6.55,0.026,0.979,0.097
6.56,-0.179,1.039,-0.041
6.57,-0.262,0.839,-0.223
6.58,-0.229,0.697,-0.09
6.59,-0.101,1.224,0.14
6.6,-0.123,0.747,0.024
6.61,-0.357,1.011,-0.168
6.62,-0.234,1.249,-0.016
6.63,-0.166,0.874,0.204
6.64,-0.184,0.969,0.027
6.65,-0.351,0.574,-0.159
6.66,-0.29,1.899,-0.008
6.67,-0.115,0.513,0.188
6.68,-0.193,1.187,0.053
6.69,-0.374,0.379,-0.147
6.7,-0.271,1.892,0.108
6.71,-0.129,0.75,0.153
6.72,-0.122,0.763,0.006
6.73,-0.395,0.77,-0.213
6.74,-0.049,1.454,0.069
6.75,-0.196,1.129,0.167
6.76,-0.0,0.464,-0.031
6.77,-0.496,0.928,-0.178
6.78,0.095,1.518,0.083
6.79,-0.234,1.026,0.117
6.8,-0.059,0.693,-0.03
6.81,-0.46,0.55,-0.191
6.82,-0.052,1.864,0.106
6.83,-0.104,0.618,0.17
6.84,-0.148,1.003,-0.011
6.85,-0.435,0.29,-0.137
6.86,-0.205,1.872,0.121
6.87,0.015,0.822,0.061
6.88,-0.165,0.793,-0.088
6.89,-0.36,0.611,-0.169
6.9,-0.135,1.54,0.144
6.91,-0.174,1.267,0.117
6.92,0.011,0.462,-0.07
6.93,-0.491,0.955,-0.138
6.94,0.012,1.453,0.177
6.95,-0.175,1.199,0.037
6.96,0.012,0.687,-0.105
6.97,-0.441,0.557,-0.128
6.98,-0.105,1.719,0.133
6.99,-0.23,0.921,0.062
7.0,-0.222,0.921,-0.096
7.01,-0.319,0.192,-0.102
7.02,-0.203,1.703,0.19
7.03,-0.205,0.803,0.021
7.04,-0.275,1.02,-0.135
7.05,-0.381,0.328,-0.043
7.06,-0.076,1.272,0.139
7.07,-0.204,1.182,-0.043
7.08,-0.218,0.548,-0.132
7.09,-0.382,1.009,-0.044
7.1,0.042,0.743,0.167
7.11,-0.294,1.397,-0.034
7.12,-0.112,0.407,-0.194
7.13,-0.233,1.673,-0.124
7.14,0.0,0.732,0.121
7.15,-0.168,0.94,-0.005
7.16,-0.394,0.776,-0.167
7.17,-0.18,1.348,0.03
7.18,-0.234,1.061,0.178
7.19,-0.045,0.606,0.052
7.2,-0.493,1.067,-0.166
7.21,-0.15,1.399,0.083
7.22,-0.249,0.969,0.157
7.23,-0.096,0.746,0.046
7.24,-0.381,0.641,-0.149
7.25,-0.17,1.777,0.141
7.26,-0.065,0.654,0.167
7.27,-0.155,1.023,0.001
7.28,-0.38,0.283,-0.225
7.29,-0.122,1.932,0.099
7.3,-0.125,0.687,0.14
7.31,-0.129,0.843,-0.054
7.32,-0.493,0.561,-0.219
7.33,-0.065,1.58,0.098
7.34,-0.265,1.065,0.111
7.35,-0.082,0.471,-0.016
7.36,-0.589,0.98,-0.147
7.37,-0.04,1.398,0.202
7.38,-0.213,1.205,0.071
7.39,0.017,0.596,-0.039
7.4,-0.442,0.674,-0.157
7.41,-0.083,1.733,0.148
7.42,-0.024,0.779,0.084
7.43,-0.177,1.006,-0.119
7.44,-0.341,0.249,-0.157
7.45,-0.17,1.923,0.174
7.46,-0.062,0.751,0.11
7.47,-0.171,0.869,-0.045
7.48,-0.363,0.514,-0.104
7.49,-0.185,1.587,0.222
7.5,-0.168,1.202,0.049
7.51,-0.029,0.458,-0.091
7.52,-0.484,0.87,-0.136
7.53,-0.07,1.247,0.197
7.54,-0.29,1.355,0.015
7.55,-0.109,0.46,-0.087
7.56,-0.475,0.62,-0.114
7.57,-0.109,1.434,0.205
7.58,-0.265,1.043,0.007
7.59,-0.215,0.854,-0.112
7.6,-0.449,0.207,-0.078
7.61,-0.138,1.534,0.221
7.62,-0.247,0.814,0.002
7.63,-0.263,0.843,-0.11
7.64,-0.465,0.562,-0.07
7.65,-0.046,1.069,0.168
7.66,-0.315,1.216,0.037
7.67,-0.171,0.408,-0.122
7.68,-0.382,1.323,-0.005
7.69,0.055,0.721,0.19
7.7,-0.264,1.302,0.012
7.71,-0.191,0.498,-0.202
7.72,-0.337,1.157,-0.053
7.73,0.0,0.897,0.086
7.74,-0.189,0.929,0.006
7.75,-0.248,0.867,-0.219
7.76,-0.224,1.175,-0.071
7.77,-0.18,1.07,0.139
7.78,-0.1,0.73,0.062
7.79,-0.408,1.008,-0.16
7.8,-0.243,1.446,0.109
7.81,-0.181,0.87,0.156
7.82,-0.126,0.874,0.062
7.83,-0.495,0.699,-0.183
7.84,-0.004,1.782,0.125
7.85,-0.228,0.589,0.068
7.86,-0.068,1.03,-0.034
7.87,-0.436,0.251,-0.229
7.88,-0.016,1.93,0.11
7.89,-0.164,0.63,0.141
7.9,-0.092,0.905,-0.039
7.91,-0.433,0.461,-0.195
7.92,-0.072,1.656,0.094
7.93,-0.048,1.072,0.07
7.94,-0.048,0.564,-0.062
7.95,-0.495,0.925,-0.139
7.96,-0.005,1.42,0.207
7.97,-0.224,1.187,0.103
7.98,0.023,0.562,-0.037
7.99,-0.529,0.831,-0.185
8.0,0.03,1.637,0.108
8.01,-0.107,0.908,0.04
8.02,-0.077,0.954,-0.086
8.03,-0.413,0.215,-0.118
8.04,-0.216,1.887,0.153
8.05,-0.198,0.715,0.046
8.06,-0.146,0.987,-0.102
8.07,-0.374,0.325,-0.157
8.08,-0.149,1.584,0.212
8.09,-0.246,1.104,0.024
8.1,-0.073,0.505,-0.09
8.11,-0.542,0.872,-0.097
8.12,-0.033,1.075,0.247
8.13,-0.393,1.475,-0.011
8.14,-0.143,0.385,-0.088
8.15,-0.445,0.788,-0.068
8.16,-0.055,1.053,0.153
8.17,-0.226,1.114,0.004
8.18,-0.286,0.84,-0.165
8.19,-0.297,0.439,-0.017
8.2,-0.152,1.358,0.154
8.21,-0.176,0.757,0.031
8.22,-0.271,1.026,-0.148
8.23,-0.318,0.815,-0.026
8.24,-0.063,1.009,0.149
8.25,-0.189,1.056,-0.032
8.26,-0.168,0.6,-0.195
8.27,-0.209,1.786,-0.064
8.28,0.024,0.56,0.116
8.29,-0.245,1.173,-0.013
8.3,-0.218,0.392,-0.23
8.31,-0.261,1.851,-0.028
8.32,-0.086,0.683,0.138
8.33,-0.196,0.877,0.003
8.34,-0.413,0.733,-0.21
8.35,-0.111,1.542,0.103
8.36,-0.24,1.001,0.13
8.37,0.018,0.489,-0.016
8.38,-0.497,0.988,-0.203
8.39,0.06,1.412,0.07
8.4,-0.134,1.11,0.126
8.41,-0.031,0.639,-0.064
8.42,-0.517,0.502,-0.184
8.43,-0.042,1.828,0.079
8.44,-0.092,0.655,0.16
8.45,-0.133,1.008,-0.035
8.46,-0.473,0.268,-0.125
8.47,-0.136,1.859,0.196
8.48,0.021,0.71,0.095
8.49,-0.05,0.787,-0.128
8.5,-0.458,0.611,-0.189
8.51,-0.04,1.497,0.13
8.52,-0.265,1.27,0.071
8.53,0.0,0.411,-0.099
8.54,-0.469,0.874,-0.166
8.55,-0.086,1.405,0.154
8.56,-0.255,1.295,0.04
8.57,-0.146,0.557,-0.113
8.58,-0.464,0.545,-0.139
8.59,-0.076,1.663,0.164
8.6,-0.097,0.948,-0.072
8.61,-0.255,0.947,-0.082
8.62,-0.384,0.175,-0.061
8.63,-0.229,1.584,0.228
8.64,-0.175,0.91,-0.012
8.65,-0.236,0.933,-0.152
8.66,-0.33,0.614,-0.034
8.67,-0.063,1.103,0.081
8.68,-0.244,1.016,0.029
8.69,-0.218,0.754,-0.138
8.7,-0.434,1.439,-0.008
8.71,0.0,0.57,0.151
8.72,-0.35,1.313,0.042
8.73,-0.185,0.347,-0.173
8.74,-0.382,1.836,0.032
8.75,-0.077,0.656,0.138
8.76,-0.248,0.84,0.034
8.77,-0.422,0.673,-0.174
8.78,-0.178,1.617,0.098
8.79,-0.313,0.942,0.121
8.8,-0.068,0.583,0.065
8.81,-0.505,0.988,-0.144
8.82,-0.009,1.434,0.171
8.83,-0.26,1.071,0.13
8.84,-0.052,0.562,-0.032
8.85,-0.462,0.626,-0.176
8.86,-0.006,1.798,0.089
8.87,-0.035,0.724,0.131
8.88,-0.185,0.989,-0.103
8.89,-0.467,0.208,-0.119
8.9,-0.129,1.923,0.195
8.91,-0.091,0.653,0.155
8.92,-0.137,0.859,-0.075
8.93,-0.481,0.593,-0.146
8.94,-0.144,1.552,0.145
8.95,-0.338,1.244,0.095
8.96,0.012,0.441,-0.063
8.97,-0.549,0.892,-0.113
8.98,-0.082,1.281,0.238
8.99,-0.354,1.343,0.042
9.0,-0.244,0.5,-0.053
9.01,-0.423,0.52,-0.059
9.02,-0.161,1.539,0.205
9.03,-0.194,0.982,-0.002
9.04,-0.231,0.891,-0.14
9.05,-0.321,0.222,-0.066
9.06,-0.127,1.507,0.136
9.07,-0.231,0.902,-0.031
9.08,-0.216,0.887,-0.099
9.09,-0.317,0.765,-0.035
9.1,-0.051,0.856,0.149
9.11,-0.177,1.263,-0.017
9.12,-0.229,0.493,-0.2
9.13,-0.37,1.248,-0.02
9.14,-0.088,0.64,0.074
9.15,-0.208,1.338,0.03
9.16,-0.198,0.443,-0.207
9.17,-0.297,1.683,0.039
9.18,-0.224,0.758,0.165
9.19,-0.146,0.714,0.025
9.2,-0.382,0.814,-0.148
9.21,-0.09,1.422,0.114
9.22,-0.172,1.163,0.152
9.23,-0.027,0.469,-0.043
9.24,-0.499,0.848,-0.227
9.25,0.077,1.653,0.083
9.26,-0.248,0.905,0.053
9.27,-0.12,0.749,-0.029
9.28,-0.495,0.393,-0.113
9.29,-0.089,1.929,0.161
9.3,-0.015,0.561,0.129
9.31,-0.135,0.99,-0.104
9.32,-0.446,0.307,-0.144
9.33,-0.2,1.762,0.165
9.34,-0.153,0.97,0.085
9.35,-0.15,0.668,-0.055
9.36,-0.397,0.73,-0.152
9.37,-0.05,1.466,0.169
9.38,-0.243,1.341,0.009
9.39,-0.06,0.423,-0.098
9.4,-0.423,0.795,-0.17
9.41,-0.158,1.307,0.218
9.42,-0.358,1.269,0.052
9.43,-0.26,0.63,-0.054
9.44,-0.389,0.816,-0.033
9.45,0.013,1.061,0.158
9.46,-0.179,0.908,-0.018
9.47,-0.307,0.958,-0.21
9.48,-0.169,0.76,-0.058
9.49,-0.133,1.181,0.132
9.5,-0.094,0.74,-0.029
9.51,-0.387,1.014,-0.194
9.52,-0.267,1.303,0.044
9.53,-0.24,0.744,0.18
9.54,-0.154,1.097,0.056
9.55,-0.324,0.483,-0.156
9.56,-0.277,1.904,0.165
9.57,-0.151,0.516,0.148
9.58,-0.138,1.065,-0.048
9.59,-0.325,0.339,-0.23
9.6,-0.068,1.792,0.056
9.61,-0.115,0.843,0.12
9.62,-0.033,0.587,-0.074
9.63,-0.536,0.796,-0.204
9.64,0.042,1.438,0.119
9.65,-0.27,1.169,0.119
9.66,0.01,0.42,-0.042
9.67,-0.606,0.937,-0.137
9.68,-0.052,1.53,0.202
9.69,-0.135,1.042,0.084
9.7,0.003,0.751,-0.093
9.71,-0.375,0.42,-0.122
9.72,-0.115,1.929,0.164
9.73,-0.078,0.728,0.056
9.74,-0.167,1.07,-0.107
9.75,-0.326,0.213,-0.156
9.76,-0.125,1.826,0.107
9.77,-0.168,0.97,0.025
9.78,-0.134,0.65,-0.046
9.79,-0.537,0.715,-0.076
9.8,-0.083,1.185,0.27
9.81,-0.381,1.456,0.034
9.82,-0.118,0.331,-0.083
9.83,-0.5,0.905,-0.072
9.84,-0.036,0.993,0.186
9.85,-0.248,1.275,0.015
9.86,-0.303,0.639,-0.172
9.87,-0.081,1.058,-0.106
9.88,-0.37,0.225,-0.12
9.89,-0.133,1.9,0.166
9.9,-0.068,0.797,0.043
9.91,-0.137,0.876,-0.073
9.92,-0.45,0.54,-0.185
9.93,-0.091,1.453,0.148
9.94,-0.314,1.3,0.038
9.95,-0.001,0.386,-0.106
9.96,-0.552,0.919,-0.12
9.97,-0.002,1.053,0.222
9.98,-0.379,1.344,-0.0
9.99,-0.138,0.548,-0.114
10.0,-0.447,0.652,-0.026
10.01,-0.093,1.17,0.21
10.02,-0.206,0.888,0.047
10.03,-0.297,0.995,-0.155
10.04,-0.359,0.374,-0.044
10.05,-0.093,1.318,0.129
10.06,-0.167,0.885,0.034
10.07,-0.309,0.879,-0.174
10.08,-0.332,1.016,-0.028
10.09,-0.049,0.857,0.152
10.1,-0.209,1.242,-0.023
10.11,-0.169,0.441,-0.218
10.12,-0.263,1.809,-0.029
10.13,-0.006,0.532,0.136
10.14,-0.191,1.162,0.009
10.15,-0.344,0.478,-0.194
10.16,-0.218,1.809,0.048
10.17,-0.271,0.836,0.148
10.18,-0.129,0.843,-0.027
10.19,-0.42,0.631,-0.257
10.2,0.005,1.563,0.079
10.21,-0.212,1.075,0.126
10.22,-0.041,0.428,-0.006
10.23,-0.526,0.972,-0.218
10.24,0.02,1.391,0.083
10.25,-0.058,1.167,0.084
10.26,-0.005,0.557,-0.086
10.27,-0.436,0.637,-0.194
10.28,-0.094,1.73,0.18
10.29,-0.104,0.678,0.157
10.3,-0.148,1.009,-0.06
10.31,-0.484,0.28,-0.108
10.32,-0.16,1.91,0.205
10.33,-0.03,0.711,0.128
10.34,-0.082,0.879,-0.089
10.35,-0.419,0.573,-0.138
10.36,-0.054,1.626,0.165
10.37,-0.196,1.184,0.04
10.38,0.053,0.439,-0.126
10.39,-0.457,0.965,-0.17
10.4,-0.005,1.294,0.169
10.41,-0.302,1.255,0.037
10.42,-0.045,0.523,-0.129
10.43,-0.43,0.594,-0.153
10.44,-0.082,1.561,0.159
10.45,-0.216,1.019,0.021
10.46,-0.272,0.847,-0.091
10.47,-0.351,0.159,-0.116
10.48,-0.23,1.691,0.242
10.49,-0.178,0.906,-0.007
10.5,-0.226,0.796,-0.146
10.51,-0.403,0.44,-0.127
10.52,-0.054,1.212,0.169
10.53,-0.298,1.244,-0.008
10.54,-0.21,0.369,-0.114
10.55,-0.469,0.979,-0.012
10.56,-0.083,0.863,0.198
10.57,-0.377,1.417,0.043
10.58,-0.109,0.384,-0.133
10.59,-0.436,0.963,-0.055
10.6,0.052,0.939,0.146
10.61,-0.176,1.003,-0.032
10.62,-0.313,0.916,-0.189
10.63,-0.219,0.749,-0.031
10.64,-0.164,1.167,0.203
10.65,-0.058,0.753,0.059
10.66,-0.411,0.972,-0.186
10.67,-0.113,1.345,-0.046
10.68,-0.136,0.87,0.105
10.69,-0.13,0.96,-0.026
10.7,-0.228,0.587,-0.225
10.71,-0.238,1.959,-0.039
10.72,-0.002,0.522,0.096
10.73,-0.156,1.104,0.012
10.74,-0.322,0.454,-0.242
10.75,-0.192,1.892,-0.008
10.76,-0.089,0.714,0.093
10.77,-0.077,0.793,-0.006
10.78,-0.393,0.832,-0.224
10.79,-0.16,1.417,0.108
10.8,-0.202,1.098,0.119
10.81,-0.062,0.466,0.039
10.82,-0.489,0.977,-0.157
10.83,-0.118,1.42,0.079
10.84,-0.204,1.012,0.171
10.85,-0.061,0.725,-0.011
10.86,-0.523,0.493,-0.143
10.87,-0.076,1.844,0.147
10.88,-0.121,0.606,0.111
10.89,-0.186,1.022,-0.031
10.9,-0.322,0.284,-0.197
10.91,-0.146,1.872,0.105
10.92,0.035,0.825,0.12
10.93,-0.206,0.653,-0.029
10.94,-0.415,0.739,-0.194
10.95,-0.114,1.503,0.144
10.96,-0.135,1.139,0.109
10.97,-0.004,0.514,-0.02
10.98,-0.552,0.907,-0.141
10.99,-0.062,1.374,0.207
11.0,-0.307,1.374,0.106
11.01,-0.062,0.458,-0.004
11.02,-0.366,0.756,-0.161
11.03,-0.051,1.659,0.128
11.04,-0.051,0.987,0.025
11.05,-0.145,0.898,-0.135
11.06,-0.327,0.237,-0.168
11.07,-0.21,1.823,0.147
11.08,-0.086,0.834,0.042
11.09,-0.191,0.856,-0.1
11.1,-0.274,0.315,-0.176
11.11,-0.131,1.551,0.15
11.12,-0.201,1.045,-0.031
11.13,-0.067,0.621,-0.171
11.14,-0.479,0.75,-0.163
11.15,-0.04,1.169,0.264
11.16,-0.389,1.49,0.069
11.17,-0.122,0.332,-0.081
11.18,-0.533,0.791,-0.055
11.19,-0.032,1.131,0.208
11.2,-0.362,1.152,0.007
11.21,-0.15,0.793,-0.097
11.22,-0.443,0.391,-0.061
11.23,-0.026,1.372,0.185
11.24,-0.178,0.777,0.003
11.25,-0.29,1.019,-0.155
11.26,-0.41,0.531,-0.02
11.27,-0.048,1.121,0.139
11.28,-0.186,1.136,0.028
11.29,-0.167,0.538,-0.18
11.3,-0.309,1.616,-0.09
11.31,0.045,0.667,0.17
11.32,-0.224,1.221,-0.006
11.33,-0.214,0.47,-0.215
11.34,-0.2,1.707,-0.11
11.35,-0.021,0.753,0.125
11.36,-0.113,0.952,0.045
11.37,-0.438,0.833,-0.185
11.38,-0.195,1.208,0.069
11.39,-0.27,1.061,0.174
11.4,-0.071,0.693,0.071
11.41,-0.406,1.041,-0.193
11.42,-0.135,1.341,0.065
11.43,-0.185,0.957,0.132
11.44,-0.051,0.698,0.022
11.45,-0.38,0.672,-0.223
11.46,-0.166,1.826,0.041
11.47,-0.102,0.682,0.148
11.48,-0.195,1.058,0.063
11.49,-0.402,0.315,-0.218
11.5,-0.282,1.979,0.12
11.51,-0.199,0.597,0.121
11.52,-0.138,0.876,0.057
11.53,-0.418,0.514,-0.184
11.54,-0.097,1.61,0.129
11.55,-0.24,1.066,0.179
11.56,-0.023,0.482,-0.009
11.57,-0.548,0.928,-0.172
11.58,0.012,1.448,0.161
11.59,-0.24,1.097,0.133
11.6,-0.059,0.626,-0.016
11.61,-0.552,0.679,-0.167
11.62,0.032,1.766,0.066
11.63,-0.139,0.76,0.142
11.64,-0.114,0.966,-0.014
11.65,-0.358,0.297,-0.2
11.66,-0.125,1.938,0.096
11.67,0.074,0.653,0.088
11.68,-0.115,0.96,-0.074
11.69,-0.415,0.5,-0.208
11.7,-0.063,1.605,0.12
11.71,-0.115,1.079,0.094
11.72,0.021,0.48,-0.065
11.73,-0.533,1.075,-0.175
11.74,-0.04,1.376,0.186
11.75,-0.202,1.239,0.081
11.76,0.022,0.539,-0.041
11.77,-0.411,0.754,-0.148
11.78,-0.1,1.37,0.146
11.79,-0.236,1.162,0.063
11.8,-0.139,0.7,-0.161
11.81,-0.357,0.353,-0.102
11.82,-0.184,1.714,0.18
11.83,-0.218,0.798,0.066
11.84,-0.261,0.987,-0.109
11.85,-0.441,0.209,-0.105
11.86,-0.136,1.566,0.233
11.87,-0.264,1.049,-0.003
11.88,-0.168,0.565,-0.096
11.89,-0.468,0.781,-0.149
11.9,0.012,1.035,0.182
11.91,-0.219,1.27,0.03
11.92,-0.159,0.374,-0.138
11.93,-0.541,0.924,-0.04
11.94,0.011,1.024,0.2
11.95,-0.308,1.24,0.031
11.96,-0.175,0.591,-0.132
11.97,-0.466,0.565,-0.042
11.98,-0.054,1.249,0.17
11.99,-0.258,0.87,0.034
12.0,-0.187,0.936,-0.133
12.01,-0.375,0.547,-0.027
12.02,-0.061,1.263,0.199
12.03,-0.148,0.869,0.039
12.04,-0.267,0.854,-0.16
12.05,-0.38,1.021,-0.051
12.06,0.009,0.815,0.184
12.07,-0.217,1.306,0.028
12.08,-0.116,0.364,-0.218
12.09,-0.359,1.573,-0.055
12.1,0.002,0.657,0.154
12.11,-0.231,1.187,-0.002
12.12,-0.226,0.581,-0.17
12.13,-0.162,1.478,-0.06
12.14,-0.161,0.979,0.172
12.15,-0.03,0.657,0.029
12.16,-0.433,1.062,-0.213
12.17,-0.199,1.12,0.013
12.18,-0.229,1.025,0.103
12.19,-0.063,0.772,0.053
12.2,-0.374,0.841,-0.201
12.21,-0.188,1.64,0.074
12.22,-0.121,0.732,0.111
12.23,-0.162,0.934,-0.006
12.24,-0.276,0.395,-0.151
12.25,-0.34,1.924,0.107
12.26,-0.066,0.613,0.166
12.27,-0.212,1.007,0.015
12.28,-0.409,0.427,-0.242
12.29,-0.161,1.788,0.055
12.3,-0.274,0.846,0.099
12.31,0.039,0.617,0.025
12.32,-0.569,0.885,-0.193
12.33,0.006,1.355,0.126
12.34,-0.262,1.132,0.135
12.35,-0.035,0.543,0.041
12.36,-0.447,0.801,-0.203
12.37,-0.018,1.647,0.11
12.38,-0.158,0.875,0.164
12.39,-0.092,0.847,-0.032
12.4,-0.457,0.362,-0.162
12.41,-0.06,1.952,0.131
12.42,-0.119,0.557,0.103
12.43,-0.168,1.004,-0.046
12.44,-0.369,0.402,-0.22
12.45,-0.117,1.766,0.094
12.46,-0.111,0.935,0.152
12.47,-0.114,0.546,-0.038
12.48,-0.548,0.9,-0.148
12.49,-0.018,1.455,0.155
12.5,-0.194,1.278,0.088
12.51,0.024,0.519,-0.037
12.52,-0.556,0.887,-0.18
12.53,0.035,1.572,0.152
12.54,-0.142,1.016,0.086
12.55,-0.08,0.862,-0.06
12.56,-0.434,0.404,-0.136
12.57,-0.08,1.884,0.16
12.58,-0.01,0.743,0.05
12.59,-0.207,0.949,-0.086
12.6,-0.293,0.169,-0.123
12.61,-0.24,1.728,0.126
12.62,-0.173,0.894,0.051
12.63,-0.287,0.758,-0.071
12.64,-0.462,0.478,-0.07
12.65,-0.108,1.311,0.252
12.66,-0.297,1.275,0.028
12.67,-0.121,0.433,-0.112
12.68,-0.529,0.874,-0.06
12.69,-0.132,1.099,0.251
12.7,-0.301,1.457,0.038
12.71,-0.146,0.395,-0.107
12.72,-0.383,0.719,-0.085
12.73,-0.014,1.108,0.105
12.74,-0.234,0.968,0.062
12.75,-0.296,0.96,-0.137
12.76,-0.399,0.502,0.006
12.77,-0.174,1.26,0.2
12.78,-0.148,0.773,0.058
12.79,-0.38,0.983,-0.151
12.8,-0.329,0.892,-0.026
12.81,-0.103,0.835,0.158
12.82,-0.253,1.208,0.005
12.83,-0.135,0.466,-0.185
12.84,-0.327,1.86,-0.075
12.85,0.041,0.587,0.124
12.86,-0.224,1.121,0.021
12.87,-0.292,0.568,-0.204
12.88,-0.281,1.743,0.018
12.89,-0.12,0.814,0.136
12.9,-0.105,0.73,0.045
12.91,-0.377,0.906,-0.224
12.92,-0.156,1.362,0.06
12.93,-0.306,1.087,0.139
12.94,-0.036,0.49,0.047
12.95,-0.433,0.866,-0.174
12.96,-0.05,1.557,0.109
12.97,-0.197,0.923,0.109
12.98,-0.077,0.794,-0.008
12.99,-0.447,0.401,-0.177
13.0,-0.091,1.968,0.177
13.01,-0.142,0.575,0.085
13.02,-0.127,1.03,-0.066
13.03,-0.405,0.259,-0.231
13.04,-0.102,1.881,0.094
13.05,-0.167,0.831,0.108
13.06,-0.107,0.651,0.002
13.07,-0.478,0.776,-0.18
13.08,-0.052,1.443,0.133
13.09,-0.112,1.303,0.063
13.1,-0.031,0.423,-0.017
13.11,-0.522,0.91,-0.127
13.12,-0.013,1.547,0.195
13.13,-0.173,1.006,0.146
13.14,-0.092,0.823,-0.037
13.15,-0.39,0.493,-0.13
13.16,-0.105,1.845,0.176
13.17,-0.03,0.711,0.067
13.18,-0.151,0.962,-0.101
13.19,-0.36,0.272,-0.164
13.2,-0.217,1.74,0.146
13.21,-0.186,0.912,0.066
13.22,-0.101,0.719,-0.077
13.23,-0.42,0.667,-0.166
13.24,-0.096,1.329,0.188
13.25,-0.271,1.286,0.036
13.26,-0.128,0.414,-0.103
13.27,-0.452,0.864,-0.128
13.28,-0.09,1.229,0.197
13.29,-0.336,1.316,0.015
13.3,-0.136,0.618,-0.07
13.31,-0.469,0.51,-0.063
13.32,-0.097,1.327,0.142
13.33,-0.184,0.812,0.021
13.34,-0.348,1.042,-0.106
13.35,-0.422,0.37,0.011
13.36,-0.148,1.255,0.192
13.37,-0.174,0.865,0.018
13.38,-0.255,0.81,-0.138
13.39,-0.328,0.96,-0.034
13.4,-0.167,0.835,0.154
13.41,-0.215,1.114,-0.019
13.42,-0.211,0.497,-0.203
13.43,-0.261,1.887,-0.035
13.44,-0.002,0.57,0.142
13.45,-0.153,1.086,-0.033
13.46,-0.303,0.478,-0.225
13.47,-0.226,1.812,0.022
13.48,-0.187,0.715,0.102
13.49,-0.097,0.841,0.025
13.5,-0.447,0.823,-0.246
13.51,-0.084,1.451,0.102
13.52,-0.296,1.034,0.113
13.53,-0.055,0.443,0.022
13.54,-0.461,0.899,-0.178
13.55,-0.034,1.465,0.072
13.56,-0.125,1.022,0.145
13.57,-0.064,0.703,-0.039
13.58,-0.478,0.448,-0.145
13.59,-0.068,1.906,0.193
13.6,-0.201,0.563,0.112
13.61,-0.115,1.089,-0.055
13.62,-0.42,0.256,-0.197
13.63,-0.101,1.881,0.127
13.64,-0.065,0.829,0.109
13.65,-0.155,0.63,-0.064
13.66,-0.392,0.722,-0.173
13.67,-0.087,1.493,0.09
13.68,-0.093,1.262,0.065
13.69,0.007,0.433,-0.084
13.7,-0.507,0.955,-0.115
13.71,-0.012,1.454,0.135
13.72,-0.155,1.112,0.02
13.73,-0.029,0.762,-0.115
13.74,-0.433,0.526,-0.153
13.75,-0.157,1.71,0.145
13.76,-0.12,0.813,0.05
13.77,-0.18,0.972,-0.08
13.78,-0.375,0.222,-0.117
13.79,-0.173,1.622,0.161
13.8,-0.233,0.884,-0.008
13.81,-0.147,0.848,-0.135
13.82,-0.412,0.569,-0.136
13.83,-0.039,1.181,0.245
13.84,-0.373,1.412,-0.014
13.85,-0.073,0.332,-0.134
13.86,-0.547,0.916,-0.029
13.87,-0.056,0.955,0.194
13.88,-0.381,1.335,-0.019
13.89,-0.09,0.498,-0.143
13.9,-0.348,0.878,-0.039
13.91,-0.005,1.117,0.164
13.92,-0.22,0.746,-0.014
13.93,-0.314,1.047,-0.185
13.94,-0.209,0.727,-0.035
13.95,-0.167,1.163,0.202
13.96,-0.15,0.802,0.026
13.97,-0.325,0.915,-0.193
13.98,-0.166,1.464,-0.035
13.99,-0.041,0.737,0.126
14.0,-0.216,1.083,-0.0
14.01,-0.194,0.509,-0.234
14.02,-0.305,1.948,0.051
14.03,0.027,0.617,0.14
14.04,-0.259,1.005,-0.006
14.05,-0.382,0.564,-0.216
14.06,-0.241,1.731,0.081
14.07,-0.143,0.895,0.146
14.08,-0.057,0.595,0.009
14.09,-0.577,0.96,-0.215
14.1,-0.003,1.402,0.125
14.11,-0.326,1.155,0.199
14.12,-0.022,0.522,0.027
14.13,-0.615,0.82,-0.2
14.14,0.039,1.579,0.093
14.15,-0.101,0.897,0.171
14.16,-0.099,0.89,-0.042
14.17,-0.383,0.313,-0.221
14.18,-0.137,1.893,0.118
14.19,0.005,0.698,0.109
14.2,-0.198,1.078,-0.056
14.21,-0.388,0.285,-0.156
14.22,-0.153,1.887,0.169
14.23,-0.077,0.752,0.082
14.24,-0.073,0.816,-0.051
14.25,-0.469,0.632,-0.172
14.26,-0.159,1.411,0.179
14.27,-0.329,1.325,0.077
14.28,0.016,0.453,-0.068
14.29,-0.502,0.91,-0.189
14.3,-0.058,1.271,0.222
14.31,-0.338,1.207,0.023
14.32,-0.051,0.687,-0.13
14.33,-0.431,0.508,-0.108
14.34,-0.163,1.533,0.2
14.35,-0.216,0.936,-0.01
14.36,-0.155,0.964,-0.118
14.37,-0.381,0.183,-0.151
14.38,-0.064,1.49,0.124
14.39,-0.27,0.867,-0.05
14.4,-0.198,0.829,-0.119
14.41,-0.471,0.671,-0.089
14.42,-0.026,0.987,0.155
14.43,-0.283,1.259,0.004
14.44,-0.184,0.362,-0.173
14.45,-0.341,1.115,-0.047
14.46,-0.082,0.71,0.133
14.47,-0.295,1.283,0.006
14.48,-0.235,0.485,-0.18
14.49,-0.252,1.161,0.018
14.5,-0.134,0.957,0.137
14.51,-0.121,0.738,0.007
14.52,-0.361,1.066,-0.181
14.53,-0.068,1.204,-0.026
14.54,-0.262,1.078,0.133
14.55,0.014,0.657,0.036
14.56,-0.469,0.935,-0.208
14.57,-0.139,1.596,0.027
14.58,-0.227,0.728,0.149
14.59,-0.154,1.062,0.034
14.6,-0.333,0.431,-0.169
14.61,-0.268,1.932,0.17
14.62,-0.098,0.582,0.135
14.63,-0.223,0.931,-0.002
14.64,-0.4,0.423,-0.171
14.65,-0.12,1.793,0.035
14.66,-0.196,0.858,0.166
14.67,-0.042,0.653,-0.039
14.68,-0.586,0.825,-0.174
14.69,0.096,1.412,0.109
14.7,-0.219,1.274,0.17
14.71,0.002,0.376,-0.027
14.72,-0.452,0.881,-0.185
14.73,-0.006,1.587,0.062
14.74,-0.073,0.902,0.124
14.75,-0.12,0.839,-0.072
14.76,-0.393,0.373,-0.157
14.77,-0.221,1.845,0.181
14.78,0.028,0.6,0.095
14.79,-0.212,1.02,-0.059
14.8,-0.31,0.365,-0.174
14.81,-0.224,1.748,0.109
14.82,-0.017,0.957,0.068
14.83,-0.158,0.66,-0.039
14.84,-0.395,0.793,-0.128
14.85,-0.149,1.362,0.171
14.86,-0.183,1.301,0.066
14.87,-0.037,0.432,-0.087
14.88,-0.505,0.875,-0.149
14.89,-0.107,1.403,0.209
14.9,-0.278,1.125,0.014
14.91,-0.086,0.811,-0.117
14.92,-0.352,0.339,-0.154
14.93,-0.162,1.626,0.19
14.94,-0.183,0.862,-0.04
14.95,-0.319,0.979,-0.083
14.96,-0.304,0.195,-0.112
14.97,-0.177,1.419,0.215
14.98,-0.238,1.026,0.003
14.99,-0.335,0.864,-0.146
15.0,-0.235,0.83,-0.116
15.01,-0.023,1.003,0.159
15.02,-0.258,1.176,0.02
15.03,-0.203,0.512,-0.153
15.04,-0.314,1.439,-0.074
15.05,0.024,0.642,0.161
15.06,-0.252,1.293,0.039
15.07,-0.276,0.519,-0.166
15.08,-0.228,1.606,-0.057
15.09,-0.128,0.866,0.19
15.1,-0.086,0.771,0.022
15.11,-0.403,1.014,-0.172
15.12,-0.178,1.337,0.044
15.13,-0.226,1.113,0.162
15.14,-0.019,0.564,0.02
15.15,-0.476,0.984,-0.194
15.16,-0.079,1.592,0.059
15.17,-0.185,0.841,0.123
15.18,-0.096,0.863,-0.034
15.19,-0.351,0.444,-0.216
15.2,-0.184,1.891,0.087
15.21,-0.048,0.625,0.138
15.22,-0.214,1.004,-0.018
15.23,-0.394,0.306,-0.202
15.24,-0.08,1.879,0.078
15.25,-0.117,0.832,0.101
15.26,-0.146,0.638,-0.027
15.27,-0.49,0.843,-0.188
15.28,-0.04,1.391,0.125
15.29,-0.139,1.202,0.152
15.3,-0.041,0.41,-0.027
15.31,-0.591,0.94,-0.152
15.32,-0.042,1.502,0.099
15.33,-0.104,1.016,0.084
15.34,-0.142,0.776,-0.019
15.35,-0.474,0.413,-0.16
15.36,-0.193,1.867,0.223
15.37,-0.0,0.654,0.13
15.38,-0.225,1.024,-0.037
15.39,-0.394,0.3,-0.18
15.4,-0.149,1.828,0.108
15.41,-0.106,0.925,0.074
15.42,-0.091,0.692,-0.093
15.43,-0.531,0.748,-0.159
15.44,-0.074,1.444,0.212
15.45,-0.278,1.223,0.09
15.46,-0.005,0.482,-0.103
15.47,-0.564,0.865,-0.167
15.48,-0.032,1.342,0.194
15.49,-0.329,1.259,0.029
15.5,-0.014,0.704,-0.119
15.51,-0.455,0.412,-0.168
15.52,-0.049,1.614,0.139
15.53,-0.18,0.806,-0.002
15.54,-0.233,0.994,-0.146
15.55,-0.364,0.193,-0.136
15.56,-0.113,1.489,0.167
15.57,-0.254,0.986,-0.009
15.58,-0.119,0.669,-0.067
15.59,-0.49,0.682,-0.105
15.6,-0.011,1.088,0.191
15.61,-0.346,1.449,0.044
15.62,-0.197,0.344,-0.123
15.63,-0.513,0.952,0.015
15.64,-0.025,0.848,0.206
15.65,-0.322,1.322,0.054
15.66,-0.206,0.509,-0.104
15.67,-0.345,0.782,-0.029
15.68,-0.094,1.168,0.165
15.69,-0.121,0.756,-0.04
15.7,-0.334,1.096,-0.18
15.71,-0.228,0.603,-0.066
15.72,-0.127,1.121,0.15
15.73,-0.067,0.951,0.006
15.74,-0.318,0.804,-0.171
15.75,-0.189,1.479,-0.052
15.76,-0.122,0.688,0.192
15.77,-0.229,1.199,0.032
15.78,-0.261,0.416,-0.175
15.79,-0.304,1.97,-0.056
15.8,-0.113,0.536,0.16
15.81,-0.221,1.098,0.015
15.82,-0.365,0.332,-0.199
15.83,-0.131,1.885,0.121
15.84,-0.13,0.776,0.105
15.85,-0.032,0.689,-0.029
15.86,-0.474,0.766,-0.223
15.87,0.04,1.51,0.081
15.88,-0.304,1.112,0.149
15.89,0.057,0.464,-0.036
15.9,-0.553,0.919,-0.213
15.91,0.081,1.501,0.113
15.92,-0.204,0.991,0.103
15.93,0.006,0.708,-0.05
15.94,-0.519,0.507,-0.156
15.95,0.031,1.842,0.058
15.96,-0.043,0.624,0.096
15.97,-0.181,0.981,-0.059
15.98,-0.432,0.278,-0.136
15.99,-0.118,1.919,0.185
16.0,-0.091,0.79,0.1
16.01,-0.134,0.77,-0.024
16.02,-0.508,0.746,-0.165
16.03,-0.065,1.482,0.234
16.04,-0.188,1.219,0.1
16.05,0.015,0.426,-0.034
16.06,-0.511,0.978,-0.187
16.07,-0.03,1.461,0.163
16.08,-0.242,1.184,0.072
16.09,-0.057,0.667,-0.097
16.1,-0.435,0.452,-0.131
16.11,-0.141,1.732,0.147
16.12,-0.094,0.804,0.033
16.13,-0.153,1.036,-0.109
16.14,-0.409,0.179,-0.154
16.15,-0.185,1.737,0.19
16.16,-0.204,0.87,0.038
16.17,-0.155,0.803,-0.109
16.18,-0.383,0.591,-0.184
16.19,-0.077,1.234,0.182
16.2,-0.318,1.317,0.016
16.21,-0.059,0.383,-0.092
16.22,-0.487,0.88,-0.127
16.23,-0.008,1.044,0.195
16.24,-0.319,1.347,-0.025
16.25,-0.177,0.586,-0.116
16.26,-0.404,0.428,-0.094
16.27,-0.126,1.371,0.202
16.28,-0.23,0.98,-0.028
16.29,-0.333,0.921,-0.077
16.3,-0.415,0.224,-0.033
16.31,-0.167,1.347,0.181
16.32,-0.254,0.917,0.026
16.33,-0.23,0.819,-0.07
16.34,-0.347,1.022,-0.077
16.35,0.025,0.828,0.188
16.36,-0.286,1.22,0.026
16.37,-0.249,0.473,-0.136
16.38,-0.315,1.586,-0.031
16.39,-0.015,0.677,0.217
16.4,-0.185,1.159,-0.001
16.41,-0.259,0.621,-0.219
16.42,-0.189,1.495,-0.038
16.43,-0.144,0.913,0.156
16.44,-0.082,0.701,0.003
16.45,-0.387,1.081,-0.181
16.46,-0.165,1.314,-0.015
16.47,-0.213,1.083,0.173
16.48,-0.102,0.614,0.052
16.49,-0.455,0.975,-0.187
16.5,-0.213,1.672,0.079
16.51,-0.213,0.735,0.149
16.52,-0.127,0.975,0.012
16.53,-0.38,0.466,-0.172
16.54,-0.24,1.93,0.085
16.55,-0.13,0.544,0.133
16.56,-0.174,1.034,-0.013
16.57,-0.412,0.39,-0.181
16.58,-0.185,1.749,0.07
16.59,-0.231,0.844,0.151
16.6,-0.168,0.811,-0.011
16.61,-0.319,0.598,-0.212
16.62,-0.094,1.589,0.113
16.63,-0.166,1.076,0.122
16.64,-0.06,0.451,-0.062
16.65,-0.451,0.962,-0.208
16.66,0.052,1.396,0.117
16.67,-0.167,1.201,0.077
16.68,-0.089,0.54,-0.073
16.69,-0.403,0.678,-0.178
16.7,-0.1,1.797,0.132
16.71,-0.041,0.643,0.115
16.72,-0.23,1.017,-0.04
16.73,-0.332,0.238,-0.183
16.74,-0.223,1.904,0.142
16.75,0.025,0.736,0.104
16.76,-0.103,0.811,-0.08
16.77,-0.459,0.586,-0.191
16.78,-0.063,1.508,0.137
16.79,-0.293,1.205,0.054
16.8,0.053,0.495,-0.022
16.81,-0.583,0.981,-0.156
16.82,0.067,1.407,0.201
16.83,-0.215,1.285,0.014
16.84,0.018,0.632,-0.096
16.85,-0.484,0.634,-0.171
16.86,-0.109,1.67,0.112
16.87,-0.186,0.902,0.062
16.88,-0.213,0.911,-0.113
16.89,-0.296,0.205,-0.133
16.9,-0.201,1.651,0.168
16.91,-0.111,0.838,-0.005
16.92,-0.263,0.88,-0.172
16.93,-0.254,0.4,-0.197
16.94,-0.132,1.348,0.207
16.95,-0.307,1.243,0.048
16.96,-0.184,0.414,-0.112
16.97,-0.469,0.867,-0.038
16.98,-0.064,1.065,0.267
16.99,-0.372,1.515,0.021
17.0,-0.112,0.348,-0.11
17.01,-0.421,0.816,-0.02
17.02,-0.053,1.027,0.22
17.03,-0.194,0.95,0.07
17.04,-0.354,0.942,-0.166
17.05,-0.301,0.422,-0.015
17.06,-0.062,1.313,0.19
17.07,-0.157,0.826,-0.021
17.08,-0.258,0.958,-0.188
17.09,-0.288,1.04,-0.073
17.1,0.021,0.905,0.158
17.11,-0.266,1.151,-0.006
17.12,-0.092,0.526,-0.206
17.13,-0.327,1.896,-0.109
17.14,0.094,0.589,0.107
17.15,-0.165,1.161,0.01
17.16,-0.244,0.541,-0.241
17.17,-0.314,1.849,-0.014
17.18,-0.12,0.731,0.123
17.19,-0.153,0.789,0.042
17.2,-0.413,0.896,-0.192
17.21,-0.183,1.309,0.123
17.22,-0.267,1.109,0.179
17.23,-0.01,0.493,0.023
17.24,-0.469,0.971,-0.207
17.25,-0.046,1.424,0.07
17.26,-0.107,0.952,0.114
17.27,-0.086,0.805,-0.05
17.28,-0.442,0.468,-0.191
17.29,-0.069,1.851,0.092
17.3,-0.059,0.612,0.145
17.31,-0.17,0.977,-0.045
17.32,-0.385,0.306,-0.216
17.33,-0.09,1.895,0.067
17.34,-0.125,0.731,0.176
17.35,-0.109,0.748,-0.095
17.36,-0.457,0.726,-0.222
17.37,-0.009,1.438,0.132
17.38,-0.132,1.265,0.082
17.39,0.062,0.382,-0.034
17.4,-0.521,0.994,-0.137
17.41,-0.108,1.339,0.213
17.42,-0.283,1.24,0.104
17.43,-0.044,0.604,-0.092
17.44,-0.5,0.697,-0.102
17.45,-0.091,1.636,0.17
17.46,-0.133,0.875,0.063
17.47,-0.196,0.907,-0.129
17.48,-0.344,0.297,-0.083
17.49,-0.27,1.674,0.231
17.5,-0.13,0.821,0.013
17.51,-0.292,0.866,-0.123
17.52,-0.36,0.398,-0.146
17.53,-0.055,1.233,0.104
17.54,-0.313,1.165,-0.011
17.55,-0.187,0.529,-0.138
17.56,-0.48,0.83,-0.022
17.57,-0.06,1.01,0.28
17.58,-0.434,1.485,0.095
17.59,-0.186,0.356,-0.111
17.6,-0.566,0.754,-0.003
17.61,-0.016,1.037,0.159
17.62,-0.317,1.144,0.014
17.63,-0.256,0.739,-0.149
17.64,-0.301,0.854,-0.019
17.65,-0.095,1.248,0.203
17.66,-0.097,0.713,0.049
17.67,-0.368,1.131,-0.214
17.68,-0.271,0.809,-0.044
17.69,-0.122,0.908,0.112
17.7,-0.088,1.136,-0.023
17.71,-0.241,0.542,-0.284
17.72,-0.174,1.857,-0.053
17.73,-0.079,0.528,0.131
17.74,-0.179,1.188,0.018
17.75,-0.235,0.413,-0.223
17.76,-0.181,1.702,0.036
17.77,0.024,0.974,0.191
17.78,-0.128,0.71,0.024
17.79,-0.523,0.73,-0.166
17.8,-0.087,1.619,0.189
17.81,-0.291,1.034,0.146
17.82,-0.036,0.505,0.023
17.83,-0.482,0.932,-0.271
17.84,0.056,1.475,0.062
17.85,-0.201,1.047,0.094
17.86,-0.136,0.642,-0.002
17.87,-0.439,0.564,-0.118
17.88,-0.164,1.828,0.089
17.89,0.041,0.652,0.081
17.9,-0.202,0.995,-0.011
17.91,-0.407,0.202,-0.163
17.92,-0.246,1.862,0.277
17.93,-0.118,0.727,0.177
17.94,-0.183,0.807,-0.003
17.95,-0.447,0.733,-0.155
17.96,-0.041,1.558,0.244
17.97,-0.187,1.201,0.102
17.98,0.037,0.42,-0.042
17.99,-0.497,0.999,-0.171
18.0,-0.031,1.391,0.204
18.01,-0.243,1.231,0.042
18.02,-0.053,0.688,-0.098
18.03,-0.376,0.521,-0.165
18.04,-0.115,1.826,0.155
18.05,-0.031,0.811,0.013
18.06,-0.231,1.064,-0.116
18.07,-0.308,0.218,-0.137
18.08,-0.216,1.796,0.18
18.09,-0.146,0.97,-0.011
18.1,-0.18,0.698,-0.1
18.11,-0.386,0.657,-0.16
18.12,-0.049,1.128,0.164
18.13,-0.255,1.262,0.001
18.14,-0.23,0.552,-0.095
18.15,-0.486,0.878,-0.036
18.16,-0.061,1.024,0.218
18.17,-0.29,1.31,0.047
18.18,-0.181,0.509,-0.117
18.19,-0.457,0.599,-0.041
18.2,-0.041,1.167,0.183
18.21,-0.068,1.375,0.105
18.22,-0.21,1.134,0.128
18.23,0.009,0.425,-0.017
18.24,-0.51,0.967,-0.245
18.25,0.1,1.462,0.085
18.26,-0.231,1.014,0.116
18.27,-0.023,0.697,-0.047
18.28,-0.503,0.519,-0.168
18.29,-0.074,1.833,0.121
18.3,-0.042,0.625,0.113
18.31,-0.126,1.022,-0.03
18.32,-0.443,0.257,-0.2
18.33,-0.15,1.89,0.156
18.34,-0.095,0.755,0.091
18.35,-0.133,0.77,-0.021
18.36,-0.403,0.687,-0.192
18.37,-0.099,1.553,0.134
18.38,-0.164,1.201,0.072
18.39,0.062,0.477,-0.081
18.4,-0.522,0.943,-0.166
18.41,0.094,1.444,0.151
18.42,-0.162,1.215,0.017
18.43,-0.025,0.666,-0.11
18.44,-0.369,0.571,-0.203
18.45,-0.088,1.813,0.131
18.46,-0.007,0.795,0.01
18.47,-0.249,1.01,-0.117
18.48,-0.262,0.184,-0.134
18.49,-0.223,1.761,0.193
18.5,-0.145,0.905,0.046
18.51,-0.204,0.742,-0.129
18.52,-0.395,0.534,-0.227
18.53,-0.011,1.325,0.192
18.54,-0.383,1.248,0.016
18.55,-0.068,0.492,-0.133
18.56,-0.589,0.845,-0.119
18.57,-0.007,1.045,0.254
18.58,-0.366,1.451,-0.005
18.59,-0.222,0.422,-0.128
18.6,-0.434,0.683,-0.058
18.61,-0.09,1.181,0.195
18.62,-0.167,0.838,0.044
18.63,-0.324,0.977,-0.131
18.64,-0.315,0.539,-0.026
18.65,-0.086,1.267,0.157
18.66,-0.107,0.806,0.056
18.67,-0.359,0.887,-0.175
18.68,-0.27,1.068,-0.062
18.69,-0.077,0.825,0.181
18.7,-0.19,1.182,0.017
18.71,-0.18,0.465,-0.18
18.72,-0.298,1.773,-0.099
18.73,-0.046,0.593,0.135
18.74,-0.164,1.207,0.022
18.75,-0.293,0.542,-0.215
18.76,-0.25,1.606,-0.042
18.77,-0.178,0.828,0.141
18.78,-0.115,0.796,0.055
18.79,-0.367,0.989,-0.167
18.8,-0.198,1.326,0.088
18.81,-0.181,1.155,0.15
18.82,-0.084,0.539,0.067
18.83,-0.356,1.037,-0.224
18.84,-0.168,1.563,0.082
18.85,-0.129,0.853,0.159
18.86,-0.144,0.884,0.004
18.87,-0.468,0.45,-0.152
18.88,-0.208,2.0,0.118
18.89,-0.164,0.482,0.133
18.9,-0.158,1.088,0.031
18.91,-0.43,0.403,-0.211
18.92,-0.023,1.787,0.095
18.93,-0.138,0.912,0.15
18.94,-0.032,0.588,-0.041
18.95,-0.493,0.545,-0.212
18.96,-0.013,1.574,0.109
18.97,-0.099,1.132,0.059
18.98,-0.007,0.441,-0.052
18.99,-0.449,0.948,-0.236
19.0,0.038,1.446,0.12
19.01,-0.093,1.181,0.095
19.02,-0.111,0.523,-0.086
19.03,-0.385,0.729,-0.165
19.04,-0.1,1.754,0.131
19.05,-0.007,0.693,0.113
19.06,-0.115,0.916,-0.064
19.07,-0.397,0.301,-0.145
19.08,-0.206,1.764,0.105
19.09,-0.221,0.809,0.126
19.1,-0.119,0.9,-0.092
19.11,-0.493,0.435,-0.12
19.12,-0.082,1.583,0.184
19.13,-0.184,1.131,0.052
19.14,-0.019,0.556,-0.13
19.15,-0.508,0.92,-0.101
19.16,-0.026,1.385,0.189
19.17,-0.287,1.375,0.037
19.18,0.011,0.497,-0.07
19.19,-0.406,0.672,-0.189
19.2,-0.074,1.471,0.155
19.21,-0.22,0.989,0.001
19.22,-0.277,0.946,-0.146
19.23,-0.313,0.14,-0.124
19.24,-0.202,1.658,0.213
19.25,-0.238,0.86,0.01
19.26,-0.26,0.878,-0.06
19.27,-0.494,0.4,-0.084
19.28,-0.122,1.199,0.255
19.29,-0.311,1.3,-0.014
19.3,-0.163,0.368,-0.101
19.31,-0.387,1.056,-0.07
19.32,-0.061,0.764,0.196
19.33,-0.303,1.392,0.033
19.34,-0.274,0.459,-0.143
19.35,-0.396,0.857,-0.022
19.36,-0.05,0.993,0.167
19.37,-0.19,1.035,0.009
19.38,-0.281,0.846,-0.196
19.39,-0.132,0.876,-0.097
19.4,-0.119,1.159,0.177
19.41,-0.089,0.721,-0.006
19.42,-0.348,1.025,-0.198
19.43,-0.153,1.394,-0.07
19.44,-0.092,0.836,0.127
19.45,-0.094,0.913,-0.025
19.46,-0.288,0.669,-0.22
19.47,-0.225,1.977,-0.011
19.48,-0.097,0.495,0.111
19.49,-0.207,1.112,0.034
19.5,-0.389,0.407,-0.227
19.51,-0.226,1.969,0.066
19.52,-0.289,0.664,0.124
19.53,-0.118,0.774,0.04
19.54,-0.457,0.817,-0.205
19.55,-0.09,1.448,0.171
19.56,-0.268,1.075,0.168
19.57,-0.026,0.476,0.006
19.58,-0.581,0.912,-0.17
19.59,0.052,1.509,0.069
19.6,-0.182,1.031,0.146
19.61,-0.042,0.677,-0.023
19.62,-0.511,0.494,-0.148
19.63,-0.02,1.901,0.105
19.64,-0.101,0.59,0.168
19.65,-0.173,1.034,-0.046
19.66,-0.431,0.218,-0.178
19.67,-0.107,1.886,0.136
19.68,-0.072,0.789,0.114
19.69,-0.177,0.702,-0.068
19.7,-0.384,0.688,-0.157
19.71,-0.079,1.509,0.13
19.72,-0.055,1.29,0.066
19.73,0.016,0.402,-0.055
19.74,-0.529,0.961,-0.179
19.75,-0.133,1.257,0.238
19.76,-0.335,1.314,0.082
19.77,-0.12,0.468,-0.111
19.78,-0.467,0.717,-0.119
19.79,-0.113,1.364,0.191
19.8,-0.285,1.097,0.033
19.81,-0.309,0.847,-0.111
19.82,-0.323,0.202,-0.067
19.83,-0.192,1.568,0.218
19.84,-0.195,0.808,0.054
19.85,-0.339,0.94,-0.13
19.86,-0.455,0.355,-0.062
19.87,-0.015,1.194,0.147
19.88,-0.286,1.177,0.01
19.89,-0.128,0.471,-0.154
19.9,-0.378,1.285,-0.099
19.91,0.09,0.704,0.188
19.92,-0.295,1.338,-0.014
19.93,-0.087,0.47,-0.193
19.94,-0.341,1.382,-0.044
19.95,0.004,0.753,0.133
19.96,-0.175,1.04,0.013
19.97,-0.281,0.854,-0.215
19.98,-0.198,1.375,0.012
19.99,-0.198,1.012,0.114
20.0,-0.075,0.623,0.065
20.01,-0.392,1.078,-0.157
20.02,-0.114,1.427,0.131
20.03,-0.201,0.976,0.181
20.04,-0.105,0.701,0.032
20.05,-0.471,0.61,-0.145
20.06,-0.203,1.913,0.151
20.07,-0.129,0.617,0.128
20.08,-0.206,1.038,0.004
20.09,-0.423,0.305,-0.155
20.1,-0.151,1.985,0.134
20.11,-0.173,0.679,0.152
20.12,-0.208,0.709,-0.038
20.13,-0.507,0.607,-0.178
20.14,0.05,1.587,0.047
20.15,-0.098,1.179,0.081
20.16,0.028,0.379,-0.065
20.17,-0.602,0.931,-0.195
20.18,0.016,1.404,0.202
20.19,-0.101,1.167,0.083
20.2,-0.088,0.668,-0.054
20.21,-0.435,0.606,-0.157
20.22,-0.08,1.824,0.139
20.23,0.037,0.839,0.07
20.24,-0.167,0.973,-0.08
20.25,-0.245,0.214,-0.198
20.26,-0.259,1.849,0.105
20.27,-0.003,0.806,0.005
20.28,-0.208,0.815,-0.134
20.29,-0.416,0.512,-0.156
20.3,-0.218,1.352,0.224
20.31,-0.32,1.288,0.02
20.32,-0.034,0.479,-0.115
20.33,-0.444,0.864,-0.094
20.34,-0.18,1.155,0.221
20.35,-0.367,1.45,-0.004
20.36,-0.149,0.547,-0.12
20.37,-0.481,0.518,-0.124
20.38,0.011,1.346,0.144
20.39,-0.229,0.956,-0.008
20.4,-0.25,0.963,-0.135
20.41,-0.437,0.402,-0.047
20.42,-0.082,1.289,0.163
20.43,-0.225,0.808,0.068
20.44,-0.316,0.886,-0.158
20.45,-0.327,0.772,-0.037
20.46,-0.062,0.884,0.13
20.47,-0.274,1.269,-0.018
20.48,-0.104,0.435,-0.207
20.49,-0.288,1.661,-0.036
20.5,0.016,0.556,0.16
20.51,-0.248,1.256,-0.009
20.52,-0.262,0.542,-0.231
20.53,-0.162,1.673,0.023
20.54,-0.138,0.896,0.135
20.55,-0.158,0.79,0.011
20.56,-0.503,0.624,-0.226
20.57,-0.079,1.614,0.159
20.58,-0.3,1.07,0.139
20.59,-0.012,0.446,-0.016
20.6,-0.572,0.961,-0.178
20.61,0.042,1.469,0.122
20.62,-0.204,1.156,0.165
20.63,-0.076,0.554,-0.027
20.64,-0.504,0.58,-0.169
20.65,-0.031,1.827,0.091
20.66,-0.015,0.778,0.128
20.67,-0.132,0.985,-0.023
20.68,-0.285,0.227,-0.236
20.69,-0.205,1.936,0.126
20.7,0.056,0.719,0.105
20.71,-0.278,0.839,-0.062
20.72,-0.314,0.559,-0.174
20.73,-0.138,1.562,0.148
20.74,-0.003,1.163,0.035
20.75,-0.087,0.419,-0.045
20.76,-0.393,0.936,-0.133
20.77,-0.173,1.317,0.175
20.78,-0.282,1.281,0.051
20.79,-0.065,0.671,-0.075
20.8,-0.445,0.579,-0.112
20.81,-0.173,1.598,0.197
20.82,-0.214,0.899,0.009
20.83,-0.179,1.078,-0.075
20.84,-0.377,0.173,-0.049
20.85,-0.228,1.634,0.248
20.86,-0.249,0.87,-0.059
20.87,-0.182,0.9,-0.093
20.88,-0.403,0.588,-0.124
20.89,0.009,1.037,0.148
20.9,-0.292,1.163,-0.018
20.91,-0.189,0.471,-0.154
20.92,-0.373,1.207,-0.013
20.93,-0.043,0.7,0.196
20.94,-0.366,1.279,0.011
20.95,-0.229,0.518,-0.175
20.96,-0.392,1.004,0.018
20.97,-0.046,0.895,0.145
20.98,-0.122,0.989,-0.017
20.99,-0.398,0.8,-0.207
21.0,-0.018,1.311,-0.001
21.01,-0.147,1.137,0.116
21.02,-0.058,0.56,0.021
21.03,-0.422,1.073,-0.205
21.04,-0.059,1.571,0.043
21.05,-0.167,0.871,0.194
21.06,-0.212,0.844,0.094
21.07,-0.538,0.546,-0.139
21.08,-0.238,2.0,0.104
21.09,-0.191,0.509,0.184
21.1,-0.27,1.057,0.025
21.11,-0.389,0.358,-0.187
21.12,-0.179,1.825,0.089
21.13,-0.038,0.825,0.123
21.14,-0.132,0.582,-0.09
21.15,-0.49,0.724,-0.229
21.16,0.049,1.378,0.082
21.17,-0.112,1.248,0.083
21.18,0.022,0.397,-0.052
21.19,-0.459,0.922,-0.214
21.2,-0.011,1.542,0.15
21.21,-0.09,0.917,0.072
21.22,-0.068,0.813,-0.056
21.23,-0.367,0.428,-0.163
21.24,-0.13,1.897,0.132
21.25,-0.009,0.71,0.051
21.26,-0.164,1.001,-0.06
21.27,-0.338,0.25,-0.153
21.28,-0.161,1.745,0.148
21.29,-0.187,0.896,0.063
21.3,-0.028,0.775,-0.109
21.31,-0.459,0.663,-0.162
21.32,-0.062,1.262,0.204
21.33,-0.322,1.364,0.01
21.34,-0.031,0.432,-0.085
21.35,-0.569,0.847,-0.101
21.36,0.0,0.998,0.238
21.37,-0.316,1.414,0.01
21.38,-0.137,0.387,-0.132
21.39,-0.363,1.076,-0.004
21.4,-0.015,0.945,0.156
21.41,-0.202,0.905,0.015
21.42,-0.264,0.95,-0.21
21.43,-0.15,0.944,-0.027
21.44,-0.085,1.184,0.163
21.45,-0.025,0.679,0.013
21.46,-0.414,1.096,-0.234
21.47,-0.211,0.946,-0.013
21.48,-0.189,0.869,0.119
21.49,-0.135,1.139,0.021
21.5,-0.257,0.439,-0.196
21.51,-0.17,1.891,0.103
21.52,-0.064,0.609,0.233
21.53,-0.214,0.978,0.022
21.54,-0.374,0.47,-0.201
21.55,-0.174,1.839,0.115
21.56,-0.156,0.814,0.167
21.57,-0.092,0.752,-0.018
21.58,-0.536,0.777,-0.245
21.59,-0.062,1.517,0.149
21.6,-0.318,1.095,0.143
21.61,-0.003,0.418,0.012
21.62,-0.467,0.903,-0.166
21.63,0.03,1.528,0.035
21.64,-0.115,0.979,0.12
21.65,-0.046,0.721,-0.095
21.66,-0.424,0.422,-0.138
21.67,-0.149,1.874,0.159
21.68,-0.073,0.607,0.15
21.69,-0.176,1.047,-0.021
21.7,-0.408,0.25,-0.171
21.71,-0.122,1.862,0.191
21.72,-0.142,0.771,0.111
21.73,-0.16,0.695,-0.045
21.74,-0.413,0.73,-0.183
21.75,-0.078,1.535,0.141
21.76,-0.199,1.272,0.059
21.77,0.054,0.423,-0.043
21.78,-0.441,0.903,-0.151
21.79,-0.096,1.355,0.165
21.8,-0.276,1.2,0.029
21.81,-0.06,0.774,-0.123
21.82,-0.417,0.412,-0.136
21.83,-0.173,1.685,0.16
21.84,-0.14,0.884,0.015
21.85,-0.257,1.034,-0.115
21.86,-0.328,0.198,-0.071
21.87,-0.261,1.604,0.213
21.88,-0.236,0.982,-0.016
21.89,-0.189,0.721,-0.082
21.9,-0.407,0.753,-0.093
21.91,-0.028,0.935,0.141
21.92,-0.268,1.237,0.036
21.93,-0.198,0.447,-0.178
21.94,-0.44,1.008,-0.023
21.95,-0.042,0.835,0.156
21.96,-0.348,1.268,-0.023
21.97,-0.206,0.526,-0.116
21.98,-0.318,0.974,-0.027
21.99,-0.085,0.989,0.137
22.0,-0.111,0.826,-0.033
22.01,-0.353,1.013,-0.2
22.02,-0.059,1.228,-0.042
22.03,-0.146,1.063,0.11
22.04,-0.048,0.666,-0.006
22.05,-0.424,0.99,-0.233
22.06,-0.163,1.553,-0.007
22.07,-0.241,0.684,0.157
22.08,-0.254,1.154,0.043
22.09,-0.3,0.353,-0.201
22.1,-0.271,1.981,0.13
22.11,-0.024,0.534,0.138
22.12,-0.141,0.988,-0.01
22.13,-0.369,0.523,-0.255
22.14,-0.029,1.633,0.071
22.15,0.021,1.038,0.155
22.16,-0.071,0.782,-0.052
22.17,-0.542,0.639,-0.207
22.18,-0.025,1.581,0.149
22.19,-0.265,1.142,0.133
22.2,-0.017,0.472,0.007
22.21,-0.568,0.997,-0.165
22.22,0.009,1.441,0.208
22.23,-0.18,1.176,0.091
22.24,-0.045,0.584,-0.026
22.25,-0.422,0.528,-0.118
22.26,-0.198,1.813,0.149
22.27,-0.16,0.722,0.078
22.28,-0.188,1.094,-0.098
22.29,-0.288,0.17,-0.17
22.3,-0.154,1.807,0.147
22.31,-0.181,0.868,0.039
22.32,-0.061,0.865,-0.101
22.33,-0.451,0.565,-0.173
22.34,-0.095,1.375,0.224
22.35,-0.36,1.328,-0.034
22.36,-0.025,0.395,-0.085
22.37,-0.554,0.922,-0.067
22.38,-0.089,0.996,0.219
22.39,-0.381,1.328,0.062
22.4,-0.24,0.55,-0.094
22.41,-0.401,0.561,-0.034
22.42,-0.139,1.192,0.186
22.43,-0.271,0.924,0.031
22.44,-0.269,0.966,-0.132
22.45,-0.395,0.361,-0.015
22.46,-0.079,1.242,0.133
22.47,-0.127,0.935,-0.007
22.48,-0.315,0.8,-0.171
22.49,-0.198,1.339,-0.055
22.5,-0.096,0.748,0.176
22.51,-0.225,1.123,0.019
22.52,-0.183,0.519,-0.212
22.53,-0.214,1.845,-0.053
22.54,-0.08,0.521,0.141
22.55,-0.204,1.181,0.012
22.56,-0.313,0.523,-0.242
22.57,-0.207,1.731,0.107
22.58,-0.245,0.863,0.17
22.59,-0.061,0.582,0.044
22.6,-0.448,0.931,-0.17
22.61,0.027,1.391,0.098
22.62,-0.209,1.159,0.141
22.63,0.003,0.508,-0.016
22.64,-0.452,0.823,-0.237
22.65,0.018,1.643,0.086
22.66,-0.153,0.9,0.08
22.67,-0.076,0.82,-0.073
22.68,-0.38,0.35,-0.22
22.69,-0.099,1.925,0.118
22.7,-0.045,0.57,0.062
22.71,-0.135,0.994,-0.033
22.72,-0.432,0.303,-0.137
22.73,-0.069,1.801,0.134
22.74,-0.134,0.968,0.078
22.75,-0.115,0.556,-0.041
22.76,-0.45,0.868,-0.135
22.77,-0.005,1.477,0.246
22.78,-0.196,1.184,0.101
22.79,0.081,0.457,-0.138
22.8,-0.469,0.874,-0.21
22.81,-0.028,1.504,0.114
22.82,-0.171,1.158,0.016
22.83,-0.13,0.746,-0.148
22.84,-0.285,0.276,-0.114
22.85,-0.229,1.743,0.185
22.86,-0.083,0.784,0.036
22.87,-0.249,1.061,-0.146
22.88,-0.395,0.225,-0.102
22.89,-0.178,1.552,0.257
22.9,-0.262,1.097,-0.03
22.91,-0.079,0.645,-0.11
22.92,-0.531,0.816,-0.093
22.93,0.069,0.847,0.148
22.94,-0.35,1.472,-0.006
22.95,-0.152,0.336,-0.119
22.96,-0.25,1.516,-0.031
22.97,0.045,0.629,0.089
22.98,-0.189,1.217,-0.036
22.99,-0.218,0.621,-0.256
23.0,-0.189,1.596,-0.058
23.01,-0.105,0.837,0.116
23.02,-0.049,0.753,-0.005
23.03,-0.41,0.988,-0.197
23.04,-0.083,1.295,0.092
23.05,-0.183,1.195,0.171
23.06,-0.058,0.465,0.001
23.07,-0.539,0.893,-0.148
23.08,-0.08,1.668,0.092
23.09,-0.206,0.725,0.061
23.1,-0.071,0.912,-0.014
23.11,-0.42,0.357,-0.222
23.12,-0.091,1.978,0.106
23.13,-0.122,0.581,0.11
23.14,-0.228,0.948,-0.019
23.15,-0.424,0.28,-0.149
23.16,-0.082,1.864,0.138
23.17,0.006,0.92,0.073
23.18,-0.113,0.552,-0.033
23.19,-0.423,0.818,-0.22
23.2,-0.017,1.43,0.112
23.21,-0.113,1.241,0.099
23.22,-0.052,0.439,-0.002
23.23,-0.56,0.892,-0.169
23.24,-0.066,1.53,0.166
23.25,-0.19,1.062,0.043
23.26,-0.045,0.75,-0.051
23.27,-0.324,0.412,-0.203
23.28,-0.209,1.688,0.124
23.29,-0.094,0.821,0.025
23.3,-0.209,1.035,-0.124
23.31,-0.336,0.185,-0.095
23.32,-0.183,1.587,0.193
23.33,-0.243,0.969,0.055
23.34,-0.206,0.691,-0.116
23.35,-0.458,0.706,-0.063
23.36,-0.09,1.117,0.229
23.37,-0.441,1.448,0.048
23.38,0.005,0.369,-0.116
23.39,-0.488,1.044,-0.096
23.4,0.009,0.878,0.178
23.41,-0.389,1.167,0.076
23.42,-0.192,0.691,-0.142
23.43,-0.324,0.748,0.006
23.44,-0.159,1.163,0.16
23.45,-0.095,0.726,0.019
23.46,-0.445,1.104,-0.16
23.47,-0.187,0.809,0.043
23.48,-0.192,0.996,0.125
23.49,-0.074,0.954,-0.003
23.5,-0.314,0.708,-0.192
23.51,-0.169,1.693,-0.026
23.52,0.0,0.641,0.148
23.53,-0.17,1.073,-0.005
23.54,-0.354,0.373,-0.265
23.55,-0.161,2.0,-0.01
23.56,-0.19,0.586,0.108
23.57,-0.11,0.985,0.002
23.58,-0.461,0.572,-0.218
23.59,-0.075,1.66,0.133
23.6,-0.292,0.949,0.147
23.61,-0.062,0.474,-0.007
23.62,-0.57,0.972,-0.15
23.63,-0.008,1.374,0.054
23.64,-0.181,1.138,0.185
23.65,0.014,0.531,-0.046
23.66,-0.512,0.75,-0.212
23.67,0.012,1.675,0.078
23.68,-0.114,0.729,0.068
23.69,-0.168,0.945,-0.051
23.7,-0.444,0.219,-0.166
23.71,-0.191,1.939,0.183
23.72,-0.043,0.633,0.107
23.73,-0.146,0.86,-0.06
23.74,-0.352,0.442,-0.168
23.75,-0.214,1.607,0.205
23.76,-0.204,0.949,0.036
23.77,-0.115,0.748,-0.109
23.78,-0.347,0.68,-0.162
23.79,-0.162,1.301,0.208
23.8,-0.238,1.324,0.046
23.81,-0.126,0.407,-0.094
23.82,-0.487,0.848,-0.078
23.83,-0.135,1.187,0.21
23.84,-0.289,1.365,0.008
23.85,-0.17,0.6,-0.084
23.86,-0.409,0.521,-0.063
23.87,-0.115,1.32,0.165
23.88,-0.184,0.718,0.035
23.89,-0.368,1.092,-0.161
23.9,-0.272,0.346,-0.04
23.91,-0.134,1.248,0.142
23.92,-0.186,1.002,-0.002
23.93,-0.273,0.74,-0.152
23.94,-0.245,1.33,-0.045
23.95,-0.011,0.674,0.165
23.96,-0.234,1.261,-0.005
23.97,-0.202,0.386,-0.207
23.98,-0.252,1.882,0.015
23.99,-0.006,0.687,0.168
24.0,-0.216,0.946,-0.011
24.01,-0.324,0.719,-0.21
24.02,-0.273,1.631,0.038
24.03,-0.181,0.91,0.137
24.04,-0.062,0.611,0.018
24.05,-0.485,1.062,-0.202
24.06,-0.002,1.351,0.162
24.07,-0.2,1.15,0.164
24.08,-0.06,0.534,0.012
24.09,-0.502,0.746,-0.197
24.1,0.026,1.636,0.083
24.11,-0.036,0.839,0.12
24.12,-0.127,0.904,-0.043
24.13,-0.387,0.256,-0.207
24.14,-0.156,2.0,0.14
24.15,-0.173,0.58,0.13
24.16,-0.208,0.933,-0.025
24.17,-0.467,0.418,-0.206
24.18,-0.101,1.681,0.193
24.19,-0.055,1.104,0.063
24.2,-0.02,0.394,-0.081
24.21,-0.461,0.929,-0.141
24.22,-0.042,1.441,0.092
24.23,-0.196,1.207,0.092
24.24,0.033,0.576,-0.067
24.25,-0.498,0.734,-0.152
24.26,-0.042,1.606,0.108
24.27,-0.054,1.018,0.019
24.28,-0.157,0.89,-0.107
24.29,-0.294,0.254,-0.102
24.3,-0.258,1.795,0.161
24.31,-0.132,0.825,0.017
24.32,-0.274,0.914,-0.149
24.33,-0.321,0.341,-0.094
24.34,-0.179,1.427,0.219
24.35,-0.265,1.141,0.022
24.36,-0.214,0.544,-0.107
24.37,-0.37,0.81,-0.055
24.38,-0.065,1.044,0.223
24.39,-0.279,1.442,0.009
24.4,-0.196,0.422,-0.146
24.41,-0.391,0.826,-0.059
24.42,-0.015,0.982,0.153
24.43,-0.229,1.112,0.024
24.44,-0.299,0.812,-0.191
24.45,-0.172,0.842,-0.032
24.46,-0.113,1.241,0.176
24.47,-0.13,0.671,0.022
24.48,-0.395,1.095,-0.186
24.49,-0.161,1.057,-0.02
24.5,-0.164,0.899,0.139
24.51,-0.156,0.982,0.0
24.52,-0.279,0.647,-0.235
24.53,-0.179,1.905,-0.017
24.54,-0.057,0.526,0.129
24.55,-0.19,1.165,0.017
24.56,-0.257,0.455,-0.248
24.57,-0.202,1.903,0.143
24.58,-0.042,0.663,0.187
24.59,-0.262,0.958,0.005
24.6,-0.401,0.366,-0.231
24.61,-0.075,1.826,0.1
24.62,-0.164,0.972,0.078
24.63,-0.085,0.472,-0.053
24.64,-0.525,0.896,-0.202
24.65,0.046,1.413,0.117
24.66,-0.097,1.252,0.146
24.67,-0.043,0.457,-0.021
24.68,-0.522,0.726,-0.216
24.69,-0.023,1.649,0.086
24.7,-0.053,0.9,0.107
24.71,-0.135,0.87,-0.052
24.72,-0.402,0.283,-0.155
24.73,-0.2,1.905,0.205
24.74,0.003,0.698,0.153
24.75,-0.231,0.965,-0.03
24.76,-0.362,0.358,-0.134
24.77,-0.2,1.746,0.154
24.78,-0.166,1.028,0.053
24.79,0.004,0.597,-0.063
24.8,-0.458,0.839,-0.121
24.81,-0.087,1.283,0.205
24.82,-0.411,1.314,0.048
24.83,-0.018,0.5,-0.105
24.84,-0.525,0.761,-0.118
24.85,-0.129,1.363,0.248
24.86,-0.337,1.149,0.058
24.87,-0.228,0.825,-0.119
24.88,-0.407,0.316,-0.081
24.89,-0.1,1.466,0.141
24.9,-0.215,0.739,-0.007
24.91,-0.292,1.073,-0.126
24.92,-0.402,0.346,-0.075
24.93,-0.096,1.228,0.193
24.94,-0.258,1.055,0.011
24.95,-0.227,0.582,-0.139
24.96,-0.477,0.951,-0.01
24.97,-0.006,0.732,0.202
24.98,-0.391,1.433,0.027
24.99,-0.107,0.315,-0.114
25.0,-0.313,1.511,-0.051
25.01,0.086,0.827,0.157
25.02,-0.211,0.982,-0.007
25.03,-0.323,0.841,-0.208
25.04,-0.223,1.175,-0.021
25.05,-0.113,1.128,0.186
25.06,-0.053,0.66,-0.009
25.07,-0.391,1.127,-0.197
25.08,-0.227,1.213,0.005
25.09,-0.167,0.873,0.113
25.1,-0.091,0.973,0.067
25.11,-0.366,0.647,-0.196
25.12,-0.141,1.748,0.103
25.13,-0.093,0.718,0.147
25.14,-0.175,0.986,0.027
25.15,-0.293,0.393,-0.175
25.16,-0.27,1.938,0.12
25.17,-0.073,0.662,0.146
25.18,-0.101,0.887,-0.04
25.19,-0.466,0.602,-0.275
25.2,-0.031,1.664,0.095
25.21,-0.271,1.101,0.105
25.22,-0.029,0.349,0.01
25.23,-0.522,1.028,-0.179
25.24,-0.012,1.422,0.132
25.25,-0.149,1.074,0.184
25.26,-0.073,0.593,-0.072
25.27,-0.467,0.616,-0.214
25.28,-0.062,1.759,0.111
25.29,-0.108,0.702,0.137
25.3,-0.155,0.947,-0.038
25.31,-0.396,0.267,-0.154
25.32,-0.164,1.949,0.194
25.33,-0.053,0.728,0.122
25.34,-0.224,0.743,-0.056
25.35,-0.407,0.508,-0.154
25.36,-0.103,1.625,0.084
25.37,-0.167,0.999,0.046
25.38,-0.074,0.612,-0.121
25.39,-0.418,0.764,-0.136
25.4,-0.1,1.299,0.238
25.41,-0.276,1.39,0.032
25.42,-0.081,0.466,-0.059
25.43,-0.427,0.801,-0.14
25.44,-0.115,1.329,0.219
25.45,-0.25,1.248,-0.02
25.46,-0.17,0.73,-0.133
25.47,-0.353,0.4,-0.124
25.48,-0.169,1.441,0.184
25.49,-0.14,0.776,0.016
25.5,-0.347,1.059,-0.113
25.51,-0.382,0.323,-0.058
25.52,-0.114,1.305,0.171
25.53,-0.216,1.015,0.03
25.54,-0.321,0.651,-0.17
25.55,-0.466,0.87,-0.035
25.56,0.031,0.831,0.165
25.57,-0.299,1.403,0.03
25.58,-0.122,0.363,-0.153
25.59,-0.365,1.593,-0.031
25.6,-0.005,0.717,0.204
25.61,-0.245,1.101,0.043
25.62,-0.3,0.687,-0.198
25.63,-0.191,1.27,-0.085
25.64,-0.068,1.035,0.094
25.65,-0.037,0.729,0.017
25.66,-0.354,1.134,-0.218
25.67,-0.226,1.234,0.035
25.68,-0.236,0.918,0.116
25.69,-0.081,0.838,0.033
25.7,-0.325,0.743,-0.151
25.71,-0.252,1.721,0.103
25.72,-0.093,0.676,0.157
25.73,-0.177,0.984,0.008
25.74,-0.395,0.379,-0.168
25.75,-0.257,2.0,0.073
25.76,-0.221,0.498,0.125
25.77,-0.146,1.063,0.053
25.78,-0.385,0.553,-0.236
25.79,-0.079,1.702,0.131
25.8,-0.233,0.93,0.075
25.81,0.012,0.503,-0.01
25.82,-0.505,0.956,-0.195
25.83,0.064,1.398,0.05
25.84,-0.138,1.173,0.117
25.85,-0.007,0.505,-0.037
25.86,-0.521,0.7,-0.207
25.87,-0.008,1.738,0.11
25.88,-0.241,0.658,0.118
25.89,-0.063,0.953,-0.041
25.9,-0.418,0.257,-0.182
25.91,-0.095,1.928,0.216
25.92,-0.039,0.635,0.081
25.93,-0.155,0.873,-0.038
25.94,-0.372,0.453,-0.154
25.95,-0.082,1.74,0.125
25.96,-0.098,1.062,0.025
25.97,-0.044,0.55,-0.048
25.98,-0.457,0.916,-0.144
25.99,-0.031,1.463,0.194
26.0,-0.177,1.347,0.012
26.01,-0.013,0.566,-0.061
26.02,-0.37,0.738,-0.165
26.03,-0.137,1.562,0.151
26.04,-0.151,1.058,0.045
26.05,-0.233,0.941,-0.146
26.06,-0.285,0.192,-0.11
26.07,-0.286,1.632,0.238
26.08,-0.178,0.871,0.011
26.09,-0.307,0.985,-0.092
26.1,-0.441,0.354,-0.06
26.11,-0.135,1.312,0.236
26.12,-0.322,1.147,-0.009
26.13,-0.056,0.536,-0.148
26.14,-0.447,1.162,-0.057
26.15,0.043,0.689,0.226
26.16,-0.329,1.337,-0.029
26.17,-0.218,0.438,-0.176
26.18,-0.252,1.707,-0.03
26.19,-0.009,0.668,0.147
26.2,-0.214,1.142,0.003
26.21,-0.241,0.717,-0.246
26.22,-0.163,1.554,-0.014
26.23,-0.147,0.929,0.11
26.24,-0.089,0.629,0.05
26.25,-0.424,0.971,-0.178
26.26,-0.117,1.348,0.127
26.27,-0.233,1.107,0.146
26.28,-0.096,0.515,0.055
26.29,-0.518,0.823,-0.171
26.3,-0.138,1.695,0.171
26.31,-0.178,0.721,0.15
26.32,-0.134,0.992,-0.006
26.33,-0.445,0.341,-0.206
26.34,-0.143,1.916,0.165
26.35,-0.126,0.623,0.153
26.36,-0.153,0.945,-0.027
26.37,-0.471,0.355,-0.218
26.38,-0.038,1.727,0.128
26.39,-0.061,1.029,0.096
26.4,-0.065,0.455,-0.101
26.41,-0.473,0.898,-0.198
26.42,0.009,1.396,0.087
26.43,-0.102,1.233,0.051
26.44,-0.048,0.492,-0.016
26.45,-0.45,0.778,-0.139
26.46,-0.081,1.63,0.142
26.47,-0.072,0.939,0.097
26.48,-0.165,0.875,-0.073
26.49,-0.322,0.265,-0.118
26.5,-0.217,1.857,0.161
26.51,-0.063,0.772,0.051
26.52,-0.113,0.947,-0.141
26.53,-0.306,0.317,-0.161
26.54,-0.123,1.514,0.164
26.55,-0.082,0.95,0.133
26.56,-0.289,1.156,-0.002
26.57,-0.287,0.775,-0.143
26.58,-0.354,0.545,-0.008
26.59,-0.139,1.284,0.146
26.6,-0.161,0.749,0.033
26.61,-0.371,1.073,-0.192
26.62,-0.312,0.616,0.022
26.63,-0.115,0.942,0.127
26.64,-0.147,1.139,-0.03
26.65,-0.228,0.551,-0.17
26.66,-0.153,1.805,-0.022
26.67,-0.129,0.532,0.147
26.68,-0.224,1.189,0.003
26.69,-0.282,0.413,-0.178
26.7,-0.266,1.881,0.132
26.71,-0.116,0.739,0.165
26.72,-0.138,0.779,0.002
26.73,-0.485,0.69,-0.219
26.74,-0.059,1.698,0.121
26.75,-0.243,1.021,0.1
26.76,-0.045,0.456,-0.037
26.77,-0.536,0.945,-0.199
26.78,0.052,1.472,0.047
26.79,-0.107,1.14,0.089
26.8,-0.146,0.527,-0.029
26.81,-0.385,0.519,-0.155
26.82,-0.192,1.82,0.08
26.83,0.123,0.634,0.106
26.84,-0.163,1.03,-0.057
26.85,-0.358,0.193,-0.186
26.86,-0.177,1.933,0.196
26.87,0.026,0.809,0.069
26.88,-0.131,0.792,-0.083
26.89,-0.297,0.591,-0.227
26.9,-0.123,1.562,0.135
26.91,-0.282,1.138,0.045
26.92,-0.107,0.557,-0.099
26.93,-0.461,0.841,-0.048
26.94,-0.086,0.976,0.226
26.95,-0.339,1.38,0.014
26.96,-0.211,0.461,-0.137
26.97,-0.419,0.848,-0.053
26.98,-0.067,0.975,0.158
26.99,-0.276,1.146,0.013
27.0,-0.334,0.727,-0.154
27.01,-0.233,0.821,-0.006
27.02,-0.175,1.212,0.167
27.03,-0.146,0.64,0.044
27.04,-0.337,1.084,-0.16
27.05,-0.127,1.212,-0.043
27.06,-0.107,0.918,0.099
27.07,-0.125,0.917,-0.021
27.08,-0.363,0.675,-0.219
27.09,-0.186,1.834,0.02
27.1,-0.181,0.522,0.159
27.11,-0.226,1.192,0.018
27.12,-0.208,0.408,-0.215
27.13,-0.226,1.906,0.07
27.14,0.063,0.773,0.126
27.15,-0.192,0.768,-0.022
27.16,-0.369,0.757,-0.221
27.17,-0.123,1.508,0.073
27.18,-0.083,1.107,0.156
27.19,0.008,0.459,-0.068
27.2,-0.564,0.941,-0.183
27.21,0.019,1.516,0.089
27.22,-0.262,1.117,0.106
27.23,-0.156,0.556,0.001
27.24,-0.509,0.646,-0.125
27.25,-0.125,1.827,0.14
27.26,-0.008,0.682,0.099
27.27,-0.185,0.91,-0.054
27.28,-0.316,0.201,-0.151
27.29,-0.201,1.921,0.133
27.3,-0.034,0.751,0.108
27.31,-0.18,0.862,-0.053
27.32,-0.434,0.565,-0.169
27.33,-0.088,1.618,0.227
27.34,-0.154,1.177,0.039
27.35,0.005,0.431,-0.05
27.36,-0.433,0.949,-0.169
27.37,-0.06,1.265,0.163
27.38,-0.278,1.347,-0.017
27.39,-0.072,0.529,-0.13
27.4,-0.401,0.596,-0.123
27.41,-0.078,1.449,0.133
27.42,-0.142,0.848,-0.01
27.43,-0.307,1.12,-0.124
27.44,-0.334,0.106,-0.092
27.45,-0.2,1.577,0.21
27.46,-0.235,0.851,-0.004
27.47,-0.215,0.869,-0.122
27.48,-0.409,0.571,-0.097
27.49,0.021,0.988,0.143
27.5,-0.345,1.283,0.006
27.51,-0.135,0.471,-0.162
27.52,-0.348,1.489,-0.09
27.53,0.01,0.745,0.239
27.54,-0.228,1.123,0.077
27.55,-0.275,0.638,-0.188
27.56,-0.371,0.952,-0.045
27.57,-0.019,0.948,0.091
27.58,-0.199,0.885,-0.033
27.59,-0.271,0.931,-0.153
27.6,-0.174,1.225,-0.047
27.61,-0.158,1.063,0.161
27.62,-0.102,0.641,0.074
27.63,-0.288,1.023,-0.176
27.64,-0.212,1.466,0.056
27.65,-0.048,0.909,0.165
27.66,-0.192,0.844,-0.032
27.67,-0.372,0.494,-0.193
27.68,-0.259,2.0,0.011
27.69,-0.183,0.482,0.137
27.7,-0.255,1.16,0.055
27.71,-0.385,0.292,-0.215
27.72,-0.147,1.978,0.112
27.73,-0.097,0.628,0.127
27.74,-0.15,0.818,-0.045
27.75,-0.442,0.55,-0.188
27.76,-0.075,1.639,0.106
27.77,-0.11,1.037,0.11
27.78,0.033,0.44,-0.049
27.79,-0.524,0.953,-0.228
27.8,0.108,1.427,0.14
27.81,-0.206,1.225,0.091
27.82,-0.045,0.484,-0.035
27.83,-0.427,0.692,-0.193
27.84,-0.106,1.8,0.091
27.85,-0.027,0.765,0.094
27.86,-0.183,0.868,-0.048
27.87,-0.352,0.23,-0.141
27.88,-0.25,1.862,0.161
27.89,-0.026,0.748,0.084
27.9,-0.14,0.875,-0.109
27.91,-0.395,0.423,-0.153
27.92,-0.121,1.679,0.169
27.93,-0.215,1.192,0.021
27.94,0.01,0.499,-0.065
27.95,-0.529,0.927,-0.137
27.96,-0.03,1.319,0.243
27.97,-0.36,1.377,0.054
27.98,-0.074,0.549,-0.078
27.99,-0.489,0.655,-0.13
28.0,-0.105,1.511,0.199
28.01,-0.219,1.04,0.059
28.02,-0.204,0.947,-0.098
28.03,-0.408,0.211,-0.071
28.04,-0.198,1.615,0.232
28.05,-0.246,0.816,0.058
28.06,-0.247,0.917,-0.062
28.07,-0.472,0.588,-0.026
28.08,-0.071,1.081,0.186
28.09,-0.355,1.113,0.014
28.1,-0.056,0.609,-0.135
28.11,-0.538,0.986,-0.033
28.12,0.063,0.768,0.135
28.13,-0.328,1.41,0.039
28.14,-0.264,0.418,-0.193
28.15,-0.399,0.863,-0.039
28.16,-0.018,0.942,0.102
28.17,-0.239,1.056,0.018
28.18,-0.229,0.854,-0.173
28.19,-0.172,1.175,-0.094
28.2,-0.021,1.178,0.151
28.21,-0.027,0.53,0.005
28.22,-0.418,1.187,-0.198
28.23,-0.186,1.341,-0.026
28.24,-0.119,0.901,0.15
28.25,-0.135,0.923,0.057
28.26,-0.346,0.645,-0.206
28.27,-0.342,1.881,0.038
28.28,-0.181,0.471,0.168
28.29,-0.173,1.195,0.071
28.3,-0.294,0.403,-0.242
28.31,-0.236,1.883,0.13
28.32,-0.094,0.773,0.108
28.33,-0.131,0.742,0.014
28.34,-0.457,0.85,-0.215
28.35,-0.132,1.496,0.144
28.36,-0.312,0.967,0.149
28.37,0.081,0.571,0.004
28.38,-0.505,0.972,-0.195
28.39,0.054,1.478,0.084
28.4,-0.261,1.005,0.078
28.41,-0.122,0.62,-0.032
28.42,-0.397,0.515,-0.164
28.43,-0.114,1.893,0.072
28.44,-0.009,0.616,0.187
28.45,-0.178,1.013,-0.017
28.46,-0.475,0.217,-0.198
28.47,-0.104,1.964,0.136
28.48,-0.113,0.754,0.11
28.49,-0.154,0.69,-0.055
28.5,-0.393,0.703,-0.249
28.51,-0.166,1.746,0.21
28.52,-0.092,1.009,0.047
28.53,-0.009,0.492,-0.07
28.54,-0.439,0.885,-0.183
28.55,-0.04,1.295,0.154
28.56,-0.334,1.375,0.059
28.57,-0.075,0.446,-0.064
28.58,-0.429,0.738,-0.18
28.59,-0.101,1.472,0.126
28.6,-0.242,1.029,0.013
28.61,-0.188,0.965,-0.114
28.62,-0.466,0.219,-0.098
28.63,-0.209,1.712,0.239
28.64,-0.209,0.833,0.048
28.65,-0.225,0.979,-0.091
28.66,-0.429,0.314,-0.136
28.67,-0.146,1.391,0.209
28.68,-0.277,1.168,-0.038
28.69,-0.171,0.599,-0.123
28.7,-0.584,0.799,-0.075
28.71,0.015,0.954,0.236
28.72,-0.351,1.476,0.052
28.73,-0.175,0.358,-0.121
28.74,-0.504,0.832,-0.033
28.75,-0.028,0.98,0.19
28.76,-0.321,1.186,0.006
28.77,-0.225,0.73,-0.138
28.78,-0.468,0.53,0.018
28.79,-0.042,1.231,0.154
28.8,-0.141,0.842,0.007
28.81,-0.296,1.026,-0.191
28.82,-0.218,1.13,-0.05
28.83,-0.142,1.051,0.124
28.84,-0.088,0.626,0.014
28.85,-0.363,0.918,-0.229
28.86,-0.142,1.696,-0.016
28.87,-0.247,0.672,0.121
28.88,-0.104,1.007,-0.024
28.89,-0.411,0.368,-0.196
28.9,-0.271,2.0,0.14
28.91,-0.2,0.522,0.117
28.92,-0.219,1.03,0.065
28.93,-0.378,0.448,-0.216
28.94,-0.08,1.691,0.039
28.95,-0.136,0.913,0.125
28.96,0.005,0.591,-0.043
28.97,-0.568,0.893,-0.206
28.98,0.022,1.396,0.069
28.99,-0.175,1.234,0.121
29.0,0.006,0.413,-0.0
29.01,-0.517,0.832,-0.178
29.02,0.025,1.651,0.112
29.03,-0.193,0.791,0.11
29.04,-0.076,0.817,-0.082
29.05,-0.4,0.323,-0.15
29.06,-0.173,1.919,0.179
29.07,-0.07,0.637,0.078
29.08,-0.116,0.894,-0.056
29.09,-0.372,0.311,-0.148
29.1,-0.113,1.797,0.154
29.11,-0.146,0.961,0.074
29.12,-0.083,0.632,-0.089
29.13,-0.403,0.869,-0.203
29.14,0.003,1.489,0.175
29.15,-0.159,1.37,0.008
29.16,-0.012,0.402,-0.05
29.17,-0.453,0.839,-0.165
29.18,-0.146,1.403,0.16
29.19,-0.221,1.15,0.035
29.2,-0.219,0.814,-0.17
29.21,-0.384,0.312,-0.091
29.22,-0.213,1.615,0.194
29.23,-0.175,0.774,0.025
29.24,-0.229,1.023,-0.084
29.25,-0.418,0.253,-0.11
29.26,-0.197,1.397,0.241
29.27,-0.323,1.16,0.044
29.28,-0.167,0.557,-0.131
29.29,-0.462,0.914,-0.077
29.3,-0.065,0.852,0.205
29.31,-0.186,1.15,0.032
29.32,-0.25,0.495,-0.158
29.33,-0.339,1.385,-0.035
29.34,0.017,0.711,0.148
29.35,-0.241,1.271,-0.01
29.36,-0.252,0.536,-0.223
29.37,-0.168,1.567,-0.033
29.38,-0.159,0.849,0.139
29.39,-0.117,0.738,0.073
29.4,-0.37,0.982,-0.198
29.41,-0.123,1.302,0.027
29.42,-0.157,1.158,0.17
29.43,-0.1,0.514,0.046
29.44,-0.467,1.02,-0.176
29.45,-0.158,1.689,0.003
29.46,-0.204,0.8,0.142
29.47,-0.04,0.911,-0.064
29.48,-0.479,0.526,-0.169
29.49,-0.282,2.0,0.09
29.5,-0.168,0.487,0.151
29.51,-0.201,1.107,0.024
29.52,-0.341,0.396,-0.212
29.53,-0.171,1.743,0.085
29.54,-0.059,0.903,0.19
29.55,-0.144,0.592,-0.031
29.56,-0.496,0.843,-0.172
29.57,-0.037,1.401,0.093
29.58,-0.159,1.228,0.166
29.59,-0.026,0.419,-0.053
29.6,-0.562,0.926,-0.205
29.61,0.018,1.547,0.117
29.62,-0.132,0.924,0.107
29.63,-0.075,0.761,-0.091
29.64,-0.46,0.416,-0.218
29.65,-0.137,1.926,0.078
29.66,0.035,0.651,0.078
29.67,-0.154,0.952,-0.053
29.68,-0.395,0.258,-0.167
29.69,-0.176,1.814,0.158
29.7,-0.074,0.839,0.102
29.71,-0.152,0.646,-0.066
29.72,-0.439,0.804,-0.14
29.73,-0.087,1.478,0.159
29.74,-0.144,1.295,0.089
29.75,0.015,0.439,-0.068
29.76,-0.485,0.914,-0.142
29.77,-0.127,1.347,0.234
29.78,-0.286,1.262,0.07
29.79,-0.182,0.73,-0.105
29.8,-0.355,0.378,-0.09
29.81,-0.22,1.655,0.183
29.82,-0.115,0.802,0.021
29.83,-0.277,0.994,-0.131
29.84,-0.339,0.264,-0.089
29.85,-0.23,1.502,0.194
29.86,-0.238,0.99,-0.05
29.87,-0.177,0.767,-0.106
29.88,-0.391,0.696,-0.066
29.89,0.026,0.93,0.127
29.9,-0.278,1.355,-0.027
29.91,-0.212,0.396,-0.172
29.92,-0.419,1.004,-0.014
29.93,-0.045,0.815,0.191
29.94,-0.301,1.243,-0.012
29.95,-0.195,0.607,-0.164
29.96,-0.303,0.988,-0.061
29.97,-0.077,1.065,0.126
29.98,-0.182,0.726,0.002
29.99,-0.331,1.087,-0.149
30.0,-0.183,1.255,-0.042
30.01,-0.131,1.046,0.161
30.02,-0.107,0.688,-0.003
30.03,-0.373,0.886,-0.233
30.04,-0.144,1.762,-0.006
30.05,-0.152,0.628,0.09
30.06,-0.141,1.123,-0.007
30.07,-0.288,0.382,-0.251
30.08,-0.299,2.0,0.11
30.09,-0.136,0.533,0.176
30.1,-0.212,0.991,0.05
30.11,-0.341,0.512,-0.221
30.12,-0.082,1.854,0.099
30.13,-0.004,0.858,0.105
30.14,-0.079,0.655,-0.047
30.15,-0.415,0.694,-0.223
30.16,0.007,1.552,0.133
30.17,-0.182,1.174,0.094
30.18,-0.017,0.379,-0.041
30.19,-0.518,0.939,-0.194
30.2,0.036,1.499,0.176
30.21,-0.144,1.075,0.032
30.22,0.018,0.681,-0.056
30.23,-0.45,0.429,-0.15
30.24,-0.135,1.881,0.159
30.25,-0.044,0.744,0.035
30.26,-0.159,1.061,-0.083
30.27,-0.302,0.22,-0.163
30.28,-0.235,1.852,0.152
30.29,-0.089,0.899,0.018
30.3,-0.168,0.73,-0.087
30.31,-0.327,0.675,-0.164
30.32,-0.211,1.235,0.225
30.33,-0.308,1.42,0.008
30.34,-0.177,0.413,-0.049
30.35,-0.39,0.865,-0.087
30.36,-0.13,1.083,0.193
30.37,-0.265,1.26,0.032
30.38,-0.224,0.691,-0.117
30.39,-0.415,0.456,-0.053
30.4,-0.075,1.274,0.182
30.41,-0.17,0.923,0.012
30.42,-0.359,0.913,-0.159
30.43,-0.137,0.76,-0.014
30.44,-0.159,1.232,0.22
30.45,-0.112,0.689,0.001
30.46,-0.309,0.974,-0.152
30.47,-0.141,1.206,-0.058
30.48,-0.091,0.665,0.133
30.49,-0.213,1.273,-0.003
30.5,-0.252,0.426,-0.228
30.51,-0.223,1.813,-0.022
30.52,0.003,0.596,0.167
30.53,-0.228,1.161,-0.003
30.54,-0.229,0.601,-0.232
30.55,-0.217,1.536,0.085
30.56,-0.063,1.053,0.191
30.57,-0.126,0.451,0.019
30.58,-0.52,1.013,-0.17
30.59,-0.173,1.423,0.163
30.6,-0.259,1.046,0.153
30.61,-0.089,0.576,0.048
30.62,-0.534,0.854,-0.167
30.63,-0.024,1.732,0.142
30.64,-0.186,0.792,0.119
30.65,-0.105,0.845,-0.039
30.66,-0.496,0.353,-0.135
30.67,-0.15,1.945,0.122
30.68,0.037,0.596,0.102
30.69,-0.156,0.951,-0.053
30.7,-0.438,0.318,-0.159
30.71,-0.051,1.777,0.166
30.72,-0.107,0.939,0.086
30.73,-0.067,0.536,-0.059
30.74,-0.508,0.904,-0.185
30.75,0.01,1.407,0.202
30.76,-0.188,1.269,0.055
30.77,-0.031,0.34,-0.003
30.78,-0.442,0.844,-0.188
30.79,-0.118,1.435,0.15
30.8,-0.226,1.038,0.069
30.81,-0.11,0.964,-0.129
30.82,-0.38,0.219,-0.124
30.83,-0.216,1.727,0.211
30.84,-0.177,0.776,0.043
30.85,-0.223,1.035,-0.091
30.86,-0.374,0.271,-0.076
30.87,-0.247,1.476,0.289
30.88,-0.228,1.2,-0.04
30.89,-0.138,0.556,-0.106
30.9,-0.508,0.874,-0.04
30.91,0.031,0.919,0.185
30.92,-0.235,1.265,-0.002
30.93,-0.262,0.442,-0.176
30.94,-0.262,1.486,-0.014
30.95,-0.109,0.649,0.208
30.96,-0.215,1.19,0.045
30.97,-0.295,0.585,-0.193
30.98,-0.227,1.523,0.005
30.99,-0.099,0.895,0.141
31.0,-0.033,0.792,0.019
31.01,-0.403,0.974,-0.21
31.02,0.014,1.24,0.096
31.03,-0.175,1.218,0.22
31.04,-0.055,0.472,0.06
31.05,-0.509,0.935,-0.156
31.06,-0.172,1.752,0.091
31.07,-0.161,0.719,0.168
31.08,-0.184,0.994,-0.012
31.09,-0.445,0.385,-0.231
31.1,-0.166,1.979,0.135
31.11,-0.162,0.547,0.123
31.12,-0.191,0.94,-0.018
31.13,-0.359,0.4,-0.191
31.14,-0.12,1.724,0.059
31.15,0.045,0.976,0.124
31.16,-0.137,0.528,-0.048
31.17,-0.396,0.824,-0.216
31.18,0.038,1.474,0.118
31.19,-0.103,1.233,0.074
31.2,-0.021,0.451,-0.067
31.21,-0.444,0.841,-0.195
31.22,0.05,1.562,0.126
31.23,-0.09,0.898,0.105
31.24,-0.099,0.761,-0.111
31.25,-0.421,0.342,-0.157
31.26,-0.262,1.828,0.177
31.27,-0.117,0.729,0.095
31.28,-0.161,1.024,-0.082
31.29,-0.354,0.304,-0.125
31.3,-0.147,1.708,0.177
31.31,-0.145,1.015,0.033
31.32,-0.068,0.701,-0.128
31.33,-0.431,0.801,-0.169
31.34,-0.155,1.232,0.24
31.35,-0.375,1.451,0.014
31.36,-0.061,0.395,-0.077
31.37,-0.483,0.822,-0.147
31.38,-0.038,1.133,0.168
31.39,-0.318,1.191,-0.028
31.4,-0.206,0.829,-0.123
31.41,-0.406,0.31,-0.036
31.42,-0.103,1.342,0.159
31.43,-0.208,0.798,0.019
31.44,-0.263,1.029,-0.161
31.45,-0.349,0.417,-0.08
31.46,-0.06,1.156,0.147
31.47,-0.277,1.047,0.004
31.48,-0.226,0.647,-0.156
31.49,-0.25,1.392,-0.032
31.5,-0.041,0.66,0.155
31.51,-0.23,1.286,-0.01
31.52,-0.217,0.404,-0.189
31.53,-0.263,1.858,-0.032
31.54,-0.044,0.671,0.156
31.55,-0.162,0.969,0.029
31.56,-0.373,0.504,-0.229
31.57,-0.125,1.811,0.113
31.58,-0.153,0.855,0.14
31.59,-0.07,0.624,-0.012
31.6,-0.49,0.904,-0.243
31.61,0.058,1.472,0.057
31.62,-0.166,1.234,0.15
31.63,-0.059,0.401,0.004
31.64,-0.493,0.87,-0.175
31.65,-0.038,1.557,0.047
31.66,0.005,0.949,0.133
31.67,-0.125,0.779,-0.102
31.68,-0.422,0.347,-0.153
31.69,-0.155,1.9,0.192
31.7,-0.02,0.661,0.144
31.71,-0.171,0.969,-0.018
31.72,-0.364,0.223,-0.157
31.73,-0.179,1.915,0.136
31.74,-0.114,0.818,0.058
31.75,-0.13,0.821,-0.093
31.76,-0.334,0.496,-0.198
31.77,-0.16,1.409,0.184
31.78,-0.257,1.223,0.028
31.79,-0.025,0.52,-0.093
31.8,-0.543,0.896,-0.151
31.81,-0.054,1.122,0.208
31.82,-0.377,1.335,-0.015
31.83,-0.095,0.604,-0.089
31.84,-0.476,0.567,-0.107
31.85,-0.114,1.29,0.184
31.86,-0.242,0.965,-0.032
31.87,-0.267,0.98,-0.106
31.88,-0.344,0.262,-0.061
31.89,-0.132,1.352,0.152
31.9,-0.207,0.797,0.003
31.91,-0.213,0.939,-0.197
31.92,-0.353,0.759,-0.066
31.93,-0.007,0.932,0.156
31.94,-0.272,1.196,-0.021
31.95,-0.18,0.476,-0.138
31.96,-0.323,1.524,-0.001
31.97,-0.023,0.608,0.205
31.98,-0.241,1.301,0.02
31.99,-0.288,0.499,-0.209
32.0,-0.179,1.607,-0.004
32.01,-0.204,0.837,0.163
32.02,-0.076,0.784,0.068
32.03,-0.453,0.954,-0.175
32.04,-0.114,1.282,0.111
32.05,-0.251,1.094,0.171
32.06,0.01,0.512,0.063
32.07,-0.513,0.971,-0.16
32.08,-0.09,1.6,0.11
32.09,-0.232,0.855,0.142
32.1,-0.115,0.805,-0.024
32.11,-0.494,0.465,-0.172
32.12,-0.099,1.932,0.138
32.13,-0.107,0.606,0.165
32.14,-0.24,0.966,-0.025
32.15,-0.429,0.31,-0.137
32.16,-0.115,1.914,0.103
32.17,-0.084,0.863,0.152
32.18,-0.116,0.616,-0.068
32.19,-0.514,0.784,-0.222
32.2,0.026,1.464,0.087
32.21,-0.037,1.222,0.027
32.22,0.002,0.387,-0.061
32.23,-0.556,0.885,-0.157
32.24,-0.029,1.506,0.098
32.25,-0.043,1.056,0.034
32.26,-0.046,0.76,-0.055
32.27,-0.383,0.392,-0.149
32.28,-0.219,1.788,0.199
32.29,-0.141,0.745,0.102
32.3,-0.125,1.036,-0.094
32.31,-0.409,0.243,-0.124
32.32,-0.221,1.711,0.196
32.33,-0.27,0.994,0.051
32.34,-0.054,0.732,-0.074
32.35,-0.484,0.697,-0.168
32.36,0.019,1.169,0.242
32.37,-0.472,1.418,-0.025
32.38,-0.007,0.466,-0.114
32.39,-0.48,0.858,-0.124
32.4,-0.083,1.071,0.203
32.41,-0.343,1.212,0.013
32.42,-0.249,0.733,-0.114
32.43,-0.396,0.452,-0.045
32.44,-0.119,1.19,0.138
32.45,-0.196,0.828,-0.004
32.46,-0.371,0.905,-0.136
32.47,-0.24,0.654,0.025
32.48,-0.14,1.125,0.146
32.49,-0.154,0.904,0.029
32.5,-0.329,0.821,-0.2
32.51,-0.185,1.362,0.012
32.52,-0.146,0.832,0.179
32.53,-0.16,0.978,-0.002
32.54,-0.364,0.534,-0.203
32.55,-0.211,1.896,0.175
32.56,-0.022,0.609,0.11
32.57,-0.256,1.002,0.0
32.58,-0.296,0.314,-0.246
32.59,-0.147,1.922,0.041
32.6,-0.004,0.826,0.096
32.61,-0.17,0.598,-0.062
32.62,-0.395,0.702,-0.173
32.63,-0.026,1.509,0.093
32.64,-0.145,1.212,0.103
32.65,-0.053,0.349,-0.059
32.66,-0.412,0.926,-0.195
32.67,-0.027,1.477,0.122
32.68,-0.045,1.029,0.058
32.69,-0.027,0.711,-0.079
32.7,-0.371,0.411,-0.149
32.71,-0.196,1.852,0.169
32.72,-0.048,0.733,0.029
32.73,-0.162,1.049,-0.074
32.74,-0.329,0.23,-0.137
32.75,-0.21,1.835,0.165
32.76,-0.17,0.944,-0.016
32.77,-0.12,0.8,-0.133
32.78,-0.411,0.644,-0.147
32.79,-0.171,1.221,0.228
32.8,-0.323,1.465,0.002
32.81,-0.056,0.354,-0.07
32.82,-0.507,0.931,-0.07
32.83,-0.06,0.961,0.188
32.84,-0.317,1.256,0.01
32.85,-0.316,0.664,-0.141
32.86,-0.333,0.503,-0.005
32.87,-0.157,1.209,0.127
32.88,-0.13,0.835,-0.027
32.89,-0.336,0.944,-0.163
32.9,-0.144,0.785,-0.021
32.91,-0.164,1.092,0.177
32.92,-0.149,0.857,0.005
32.93,-0.367,0.786,-0.18
32.94,-0.115,1.541,0.009
32.95,-0.057,0.705,0.139
32.96,-0.176,1.123,-0.005
32.97,-0.287,0.523,-0.216
32.98,-0.215,1.93,0.035
32.99,-0.178,0.569,0.149
33.0,-0.206,1.052,-0.01
33.01,-0.417,0.478,-0.204
33.02,-0.126,1.692,0.132
33.03,-0.187,0.976,0.155
33.04,-0.044,0.506,-0.016
33.05,-0.581,0.975,-0.218
33.06,0.073,1.355,0.075
33.07,-0.148,1.209,0.135
33.08,-0.005,0.481,-0.026
33.09,-0.485,0.741,-0.225
33.1,-0.044,1.653,0.1
33.11,-0.092,0.796,0.102
33.12,-0.088,0.888,-0.053
33.13,-0.43,0.299,-0.158
33.14,-0.259,1.872,0.146
33.15,-0.012,0.72,0.126
33.16,-0.162,0.879,-0.069
33.17,-0.371,0.348,-0.123
33.18,-0.171,1.682,0.159
33.19,-0.188,1.008,0.062
33.2,0.012,0.623,-0.152
33.21,-0.494,0.909,-0.128
33.22,-0.108,1.296,0.205
33.23,-0.344,1.423,0.038
33.24,-0.015,0.492,-0.051
33.25,-0.479,0.707,-0.073
33.26,-0.084,1.324,0.235
33.27,-0.28,1.049,-0.011
33.28,-0.207,0.916,-0.123
33.29,-0.354,0.267,-0.046
33.3,-0.16,1.41,0.171
33.31,-0.26,0.787,0.021
33.32,-0.316,0.96,-0.113
33.33,-0.194,0.807,0.016
33.34,-0.191,1.075,0.203
33.35,-0.102,0.874,0.013
33.36,-0.379,0.801,-0.218
33.37,-0.122,1.639,-0.016
33.38,-0.118,0.68,0.128
33.39,-0.174,1.101,0.031
33.4,-0.236,0.528,-0.231
33.41,-0.25,1.918,0.081
33.42,-0.044,0.591,0.123
33.43,-0.177,1.009,0.022
33.44,-0.531,0.415,-0.164
33.45,-0.18,1.785,0.174
33.46,-0.227,0.921,0.119
33.47,-0.044,0.526,-0.045
33.48,-0.512,0.885,-0.194
33.49,-0.01,1.427,0.075
33.5,-0.242,1.145,0.15
33.51,0.008,0.492,-0.023
33.52,-0.569,0.836,-0.168
33.53,-0.053,1.609,0.082
33.54,-0.012,0.858,0.068
33.55,-0.178,0.836,-0.08
33.56,-0.323,0.278,-0.117
33.57,-0.27,1.939,0.135
33.58,0.073,0.679,0.082
33.59,-0.233,0.949,-0.075
33.6,-0.257,0.379,-0.125
33.61,-0.208,1.657,0.165
33.62,-0.09,1.108,0.02
33.63,-0.105,0.57,-0.104
33.64,-0.365,0.836,-0.164
33.65,-0.155,1.161,0.209
33.66,-0.313,1.374,0.045
33.67,-0.127,0.468,-0.116
33.68,-0.403,0.69,-0.125
33.69,-0.08,1.196,0.214
33.7,-0.332,1.119,-0.008
33.71,-0.219,0.833,-0.115
33.72,-0.401,0.279,-0.036
33.73,-0.087,1.383,0.121
33.74,-0.219,0.793,-0.005
33.75,-0.355,1.01,-0.151
33.76,-0.28,0.685,0.0
33.77,-0.114,1.027,0.205
33.78,-0.222,1.092,0.025
33.79,-0.286,0.561,-0.205
33.8,-0.212,1.69,-0.011
33.81,-0.027,0.592,0.104
33.82,-0.248,1.212,0.051
33.83,-0.286,0.434,-0.244
33.84,-0.148,1.879,0.091
33.85,-0.12,0.754,0.128
33.86,-0.151,0.717,0.026
33.87,-0.445,0.75,-0.201
33.88,-0.16,1.56,0.142
33.89,-0.208,1.105,0.161
33.9,-0.077,0.401,-0.049
33.91,-0.552,0.951,-0.152
33.92,-0.043,1.554,0.149
33.93,-0.242,1.03,0.157
33.94,-0.086,0.631,-0.039
33.95,-0.48,0.526,-0.15
33.96,-0.055,1.843,0.087
33.97,0.088,0.716,0.081
33.98,-0.239,0.983,-0.096
33.99,-0.281,0.177,-0.162
34.0,-0.161,1.886,0.135
34.01,0.099,0.758,0.121
34.02,-0.214,0.861,-0.052
34.03,-0.422,0.63,-0.144
34.04,-0.144,1.582,0.117
34.05,-0.236,1.283,0.081
34.06,0.164,0.491,-0.086
34.07,-0.572,0.969,-0.133
34.08,0.024,1.169,0.218
34.09,-0.373,1.341,-0.016
34.1,-0.086,0.691,-0.079
34.11,-0.453,0.461,-0.07
34.12,-0.097,1.339,0.179
34.13,-0.269,1.092,0.025
34.14,-0.387,0.785,-0.146
34.15,-0.24,0.64,0.007
34.16,-0.237,1.09,0.123
34.17,-0.094,0.771,-0.018
34.18,-0.363,0.987,-0.184
34.19,-0.072,1.38,0.007
34.2,-0.102,0.922,0.129
34.21,-0.125,0.777,-0.016
34.22,-0.482,0.684,-0.175
34.23,-0.083,1.823,0.076
34.24,-0.15,0.64,0.125
34.25,-0.215,1.003,-0.006
34.26,-0.472,0.292,-0.242
34.27,-0.157,1.993,0.146
34.28,-0.169,0.746,0.136
34.29,-0.262,0.869,-0.041
34.3,-0.344,0.307,-0.198
34.31,-0.156,1.721,0.075
34.32,0.076,1.078,0.039
34.33,-0.066,0.459,-0.08
34.34,-0.394,0.843,-0.114
34.35,-0.11,1.406,0.116
34.36,-0.2,1.274,0.099
34.37,-0.033,0.58,-0.085
34.38,-0.434,0.795,-0.124
34.39,-0.182,1.507,0.157
34.4,-0.232,1.073,0.008
34.41,-0.045,0.939,-0.101
34.42,-0.349,0.229,-0.114
34.43,-0.157,1.552,0.204
34.44,-0.243,0.83,-0.049
34.45,-0.255,1.063,-0.127
34.46,-0.362,0.347,-0.048
34.47,-0.125,1.157,0.149
34.48,-0.269,1.085,-0.019
34.49,-0.247,0.568,-0.124
34.5,-0.349,1.21,-0.04
34.51,-0.029,0.609,0.15
34.52,-0.248,1.377,-0.024
34.53,-0.207,0.384,-0.159
34.54,-0.216,1.826,-0.002
34.55,-0.079,0.73,0.175
34.56,-0.181,0.81,-0.003
34.57,-0.407,0.885,-0.174
34.58,-0.242,1.488,0.151
34.59,-0.247,1.057,0.177
34.6,-0.076,0.532,0.028
34.61,-0.502,0.999,-0.172
34.62,-0.05,1.498,0.142
34.63,-0.228,1.021,0.135
34.64,-0.134,0.639,-0.009
34.65,-0.433,0.509,-0.158
34.66,-0.07,1.892,0.082
34.67,-0.039,0.677,0.127
34.68,-0.177,0.968,-0.062
34.69,-0.37,0.16,-0.115
34.7,-0.087,1.931,0.148
34.71,-0.026,0.751,0.135
34.72,-0.129,0.706,-0.113
34.73,-0.405,0.664,-0.208
34.74,-0.081,1.509,0.141
34.75,-0.093,1.302,0.007
34.76,-0.019,0.467,-0.118
34.77,-0.394,0.89,-0.188
34.78,-0.153,1.236,0.164
34.79,-0.34,1.338,0.023
34.8,-0.11,0.647,-0.081
34.81,-0.486,0.418,-0.103
34.82,-0.169,1.474,0.241
34.83,-0.231,0.914,-0.001
34.84,-0.273,0.971,-0.1
34.85,-0.363,0.278,-0.058
34.86,-0.099,1.318,0.16
34.87,-0.169,0.883,-0.021
34.88,-0.254,0.853,-0.201
34.89,-0.186,0.72,-0.116
34.9,-0.315,0.735,-0.102
34.91,-0.018,0.975,0.128
34.92,-0.221,1.146,-0.028
34.93,-0.172,0.585,-0.209
34.94,-0.274,1.662,-0.026
34.95,-0.016,0.582,0.158
34.96,-0.278,1.247,0.057
34.97,-0.235,0.477,-0.172
34.98,-0.323,1.731,0.099
34.99,-0.115,0.855,0.174
35.0,-0.094,0.669,0.001
35.01,-0.409,0.826,-0.198
35.02,-0.069,1.462,0.074
35.03,-0.203,1.092,0.099
35.04,0.037,0.493,-0.019
35.05,-0.542,0.891,-0.211
35.06,0.033,1.514,0.141
35.07,-0.186,0.972,0.111
35.08,-0.079,0.696,-0.084
35.09,-0.472,0.475,-0.169
35.1,-0.111,1.896,0.138
35.11,-0.077,0.583,0.172
35.12,-0.164,1.001,-0.066
35.13,-0.471,0.254,-0.145
35.14,-0.144,1.868,0.173
35.15,-0.089,0.914,0.126
35.16,-0.135,0.617,-0.049
35.17,-0.423,0.724,-0.126
35.18,-0.06,1.46,0.178
35.19,-0.166,1.3,0.037
35.2,-0.01,0.445,-0.11
35.21,-0.46,0.881,-0.201
35.22,-0.107,1.337,0.147
35.23,-0.285,1.21,-0.012
35.24,-0.145,0.706,-0.128
35.25,-0.421,0.42,-0.082
35.26,-0.183,1.523,0.22
35.27,-0.236,0.857,0.02
35.28,-0.305,0.982,-0.104
35.29,-0.414,0.241,-0.066
35.3,-0.098,1.331,0.15
35.31,-0.206,0.915,0.023
35.32,-0.312,0.766,-0.125
35.33,-0.389,0.853,-0.038
35.34,-0.012,0.756,0.161
35.35,-0.213,1.38,-0.008
35.36,-0.167,0.36,-0.157
35.37,-0.296,1.607,-0.032
35.38,-0.009,0.667,0.158
35.39,-0.212,1.178,-0.013
35.4,-0.244,0.619,-0.249
35.41,-0.126,1.664,-0.03
35.42,-0.169,0.954,0.078
35.43,-0.008,0.573,-0.008
35.44,-0.551,0.989,-0.206
35.45,-0.085,1.424,0.126
35.46,-0.28,1.092,0.132
35.47,-0.106,0.568,0.02
35.48,-0.51,0.817,-0.142
35.49,-0.084,1.669,0.151
35.5,-0.118,0.789,0.174
35.51,-0.141,0.866,-0.065
35.52,-0.361,0.299,-0.197
35.53,-0.119,1.905,0.094
35.54,0.094,0.667,0.097
35.55,-0.222,1.013,-0.072
35.56,-0.285,0.265,-0.151
35.57,-0.238,1.906,0.192
35.58,-0.096,0.883,0.06
35.59,-0.032,0.733,-0.049
35.6,-0.422,0.714,-0.139
35.61,-0.126,1.31,0.188
35.62,-0.375,1.407,0.014
35.63,0.001,0.467,-0.119
35.64,-0.477,0.833,-0.108
35.65,-0.066,1.164,0.245
35.66,-0.343,1.16,0.017
35.67,-0.225,0.761,-0.115
35.68,-0.358,0.403,-0.07
35.69,-0.146,1.314,0.16
35.7,-0.139,0.821,-0.029
35.71,-0.367,0.963,-0.141
35.72,-0.201,0.652,-0.016
35.73,-0.107,1.194,0.173
35.74,-0.181,0.843,0.022
35.75,-0.285,0.869,-0.149
35.76,-0.204,1.361,-0.009
35.77,-0.047,0.696,0.158
35.78,-0.226,1.217,-0.005
35.79,-0.251,0.406,-0.253
35.8,-0.214,1.979,-0.001
35.81,-0.164,0.598,0.147
35.82,-0.176,1.061,0.012
35.83,-0.375,0.592,-0.244
35.84,-0.128,1.603,0.1
35.85,-0.141,1.028,0.155
35.86,-0.033,0.489,-0.006
35.87,-0.548,0.994,-0.191
35.88,-0.0,1.46,0.116
35.89,-0.335,1.11,0.173
35.9,0.009,0.567,-0.029
35.91,-0.558,0.758,-0.191
35.92,0.017,1.687,0.062
35.93,-0.018,0.826,0.123
35.94,-0.147,0.87,-0.078
35.95,-0.359,0.221,-0.147
35.96,-0.264,1.922,0.092
35.97,0.009,0.725,0.163
35.98,-0.239,0.913,-0.034
35.99,-0.41,0.409,-0.116
36.0,-0.174,1.711,0.206
36.01,-0.117,1.069,0.061
36.02,-0.021,0.6,-0.058
36.03,-0.449,0.926,-0.136
36.04,-0.107,1.342,0.19
36.05,-0.328,1.401,0.025
36.06,-0.034,0.506,-0.086
36.07,-0.428,0.693,-0.142
36.08,-0.074,1.374,0.151
36.09,-0.221,1.044,-0.015
36.1,-0.254,0.928,-0.098
36.11,-0.404,0.125,-0.064
36.12,-0.121,1.483,0.213
36.13,-0.237,0.823,0.033
36.14,-0.278,0.906,-0.114
36.15,-0.421,0.431,-0.039
36.16,-0.029,1.096,0.133
36.17,-0.29,1.148,-0.031
36.18,-0.179,0.56,-0.115
36.19,-0.275,1.401,-0.007
36.2,-0.019,0.644,0.15
36.21,-0.239,1.287,0.013
36.22,-0.247,0.452,-0.16
36.23,-0.25,1.726,0.012
36.24,-0.146,0.702,0.122
36.25,-0.123,0.921,0.012
36.26,-0.483,0.875,-0.187
36.27,-0.116,1.506,0.134
36.28,-0.241,1.117,0.139
36.29,-0.005,0.516,0.039
36.3,-0.497,1.023,-0.157
36.31,-0.001,1.491,0.087
36.32,-0.183,1.019,0.169
36.33,-0.055,0.703,-0.073
36.34,-0.48,0.472,-0.172
36.35,-0.044,1.838,0.078
36.36,-0.087,0.821,0.152
36.37,-0.174,0.86,-0.039
36.38,-0.346,0.332,-0.118
36.39,-0.15,1.949,0.138
36.4,0.059,0.701,0.046
36.41,-0.185,0.855,-0.126
36.42,-0.251,0.431,-0.231
36.43,-0.202,1.607,0.1
36.44,-0.22,1.072,0.047
36.45,-0.079,0.553,-0.119
36.46,-0.516,0.89,-0.09
36.47,-0.077,1.136,0.198
36.48,-0.385,1.36,0.072
36.49,-0.124,0.477,-0.086
36.5,-0.45,0.677,-0.092
36.51,-0.133,1.166,0.157
36.52,-0.193,1.027,0.009
36.53,-0.316,0.9,-0.116
36.54,-0.384,0.216,-0.025
36.55,-0.028,1.328,0.128
36.56,-0.161,0.86,-0.048
36.57,-0.204,0.927,-0.173
36.58,-0.279,0.809,-0.078
36.59,-0.055,0.979,0.154
36.6,-0.179,1.075,-0.06
36.61,-0.219,0.597,-0.219
36.62,-0.219,1.663,-0.024
36.63,-0.073,0.554,0.133
36.64,-0.24,1.262,0.038
36.65,-0.266,0.475,-0.223
36.66,-0.28,1.86,0.059
36.67,-0.181,0.713,0.134
36.68,-0.092,0.763,-0.013
36.69,-0.498,0.758,-0.216
36.7,0.003,1.415,0.084
36.71,-0.228,1.214,0.148
36.72,0.042,0.373,-0.033
36.73,-0.575,0.923,-0.189
36.74,0.054,1.471,0.106
36.75,-0.114,1.085,0.151
36.76,-0.05,0.634,-0.06
36.77,-0.486,0.512,-0.166
36.78,-0.082,1.833,0.177
36.79,-0.095,0.641,0.154
36.8,-0.168,0.976,-0.061
36.81,-0.308,0.278,-0.165
36.82,-0.163,1.936,0.105
36.83,0.007,0.89,0.084
36.84,-0.157,0.709,-0.024
36.85,-0.314,0.706,-0.126
36.86,-0.181,1.558,0.174
36.87,-0.213,1.268,0.059
36.88,0.023,0.596,-0.076
36.89,-0.428,0.885,-0.115
36.9,-0.107,1.321,0.194
36.91,-0.302,1.341,-0.021
36.92,-0.091,0.683,-0.107
36.93,-0.425,0.413,-0.06
36.94,-0.14,1.432,0.214
36.95,-0.252,0.902,0.017
36.96,-0.251,0.965,-0.107
36.97,-0.38,0.195,-0.088
36.98,-0.105,1.315,0.145
36.99,-0.251,0.929,0.001
37.0,-0.236,0.727,-0.134
37.01,-0.311,0.94,-0.027
37.02,-0.076,0.774,0.128
37.03,-0.215,1.295,-0.031
37.04,-0.195,0.429,-0.143
37.05,-0.244,1.798,-0.007
37.06,-0.034,0.604,0.173
37.07,-0.225,1.118,-0.021
37.08,-0.305,0.614,-0.254
37.09,-0.168,1.723,0.05
37.1,-0.222,0.987,0.137
37.11,-0.166,0.558,0.018
37.12,-0.456,1.005,-0.143
37.13,-0.139,1.401,0.17
37.14,-0.177,1.08,0.197
37.15,-0.107,0.543,-0.01
37.16,-0.515,0.956,-0.222
37.17,0.013,1.442,0.093
37.18,-0.052,1.139,0.067
37.19,-0.049,0.6,-0.076
37.2,-0.379,0.534,-0.166
37.21,-0.09,1.856,0.155
37.22,0.005,0.708,0.081
37.23,-0.17,1.113,-0.049
37.24,-0.361,0.22,-0.097
37.25,-0.162,1.947,0.179
37.26,-0.127,0.89,0.026
37.27,-0.085,0.734,-0.065
37.28,-0.445,0.63,-0.144
37.29,-0.049,1.394,0.212
37.3,-0.406,1.379,0.007
37.31,0.014,0.425,-0.098
37.32,-0.494,0.875,-0.105
37.33,-0.057,1.162,0.228
37.34,-0.389,1.197,0.017
37.35,-0.16,0.68,-0.09
37.36,-0.416,0.491,-0.016
37.37,-0.116,1.235,0.174
37.38,-0.149,0.895,-0.007
37.39,-0.362,0.958,-0.159
37.4,-0.157,0.738,-0.032
37.41,-0.152,1.23,0.163
37.42,-0.123,0.789,-0.004
37.43,-0.37,0.875,-0.205
37.44,-0.262,1.059,-0.032
37.45,-0.119,0.704,0.09
37.46,-0.215,1.279,0.02
37.47,-0.231,0.346,-0.236
37.48,-0.234,2.0,0.01
37.49,-0.059,0.616,0.117
37.5,-0.192,1.03,-0.014
37.51,-0.344,0.562,-0.226
37.52,-0.096,1.644,0.079
37.53,-0.171,0.938,0.165
37.54,0.009,0.545,-0.017
37.55,-0.631,0.986,-0.184
37.56,0.028,1.484,0.171
37.57,-0.358,1.135,0.203
37.58,-0.015,0.494,0.023
37.59,-0.607,0.834,-0.162
37.6,0.031,1.608,0.081
37.61,0.005,0.897,0.135
37.62,-0.15,0.826,-0.093
37.63,-0.324,0.265,-0.16
37.64,-0.219,1.931,0.067
37.65,0.056,0.71,0.081
37.66,-0.186,0.962,-0.075
37.67,-0.312,0.386,-0.157
37.68,-0.152,1.783,0.178
37.69,-0.053,1.069,0.032
37.7,-0.058,0.562,-0.052
37.71,-0.397,0.897,-0.16
37.72,-0.172,1.326,0.207
37.73,-0.317,1.38,0.068
37.74,-0.111,0.441,-0.102
37.75,-0.475,0.767,-0.111
37.76,-0.042,1.28,0.144
37.77,-0.243,1.057,-0.028
37.78,-0.214,0.911,-0.103
37.79,-0.344,0.245,-0.074
37.8,-0.081,1.399,0.092
37.81,-0.156,0.747,-0.064
37.82,-0.259,1.009,-0.157
37.83,-0.294,0.461,-0.037
37.84,-0.126,0.97,0.145
37.85,-0.262,1.113,-0.055
37.86,-0.246,0.487,-0.139
37.87,-0.257,1.465,0.023
37.88,-0.094,0.595,0.125
37.89,-0.273,1.322,0.032
37.9,-0.305,0.325,-0.22
37.91,-0.123,1.839,0.019
37.92,-0.181,0.72,0.069
37.93,-0.076,0.92,0.008
37.94,-0.417,0.817,-0.258
37.95,-0.039,1.47,0.058
37.96,-0.229,1.033,0.145
37.97,-0.058,0.405,-0.042
37.98,-0.574,0.929,-0.163
37.99,-0.007,1.372,0.128
38.0,-0.129,1.198,0.191
38.01,-0.057,0.467,-0.004
38.02,-0.552,0.76,-0.113
38.03,-0.012,1.604,0.14
38.04,-0.013,0.872,0.094
38.05,-0.062,0.911,-0.078
38.06,-0.355,0.303,-0.177
38.07,-0.238,1.992,0.146
38.08,0.016,0.713,0.052
38.09,-0.169,1.128,-0.072
38.1,-0.326,0.322,-0.122
38.11,-0.213,1.571,0.186
38.12,-0.307,1.133,0.018
38.13,-0.022,0.56,-0.104
38.14,-0.525,0.844,-0.102
38.15,0.002,0.975,0.216
38.16,-0.407,1.391,-0.002
38.17,-0.125,0.5,-0.086
38.18,-0.417,0.759,-0.103
38.19,-0.017,0.985,0.14
38.2,-0.28,1.037,-0.022
38.21,-0.337,0.858,-0.149
38.22,-0.242,0.541,-0.005
38.23,-0.232,1.162,0.187
38.24,-0.091,0.76,0.005
38.25,-0.432,1.064,-0.171
38.26,-0.107,1.334,0.046
38.27,-0.097,0.903,0.136
38.28,-0.122,0.799,-0.034
38.29,-0.439,0.655,-0.203
38.3,-0.174,1.962,0.114
38.31,-0.135,0.584,0.128
38.32,-0.215,1.094,0.037
38.33,-0.403,0.342,-0.218
38.34,-0.155,1.892,0.136
38.35,-0.069,0.84,0.075
38.36,-0.21,0.635,-0.03
38.37,-0.397,0.683,-0.217
38.38,-0.036,1.513,0.132
38.39,-0.068,1.206,0.108
38.4,-0.052,0.367,-0.061
38.41,-0.514,0.924,-0.141
38.42,-0.04,1.449,0.176
38.43,-0.108,1.104,0.066
38.44,-0.024,0.743,-0.048
38.45,-0.369,0.491,-0.159
38.46,-0.162,1.774,0.172
38.47,-0.128,0.814,0.032
38.48,-0.105,1.028,-0.135
38.49,-0.333,0.184,-0.119
38.5,-0.156,1.652,0.193
38.51,-0.241,0.923,-0.022
38.52,-0.186,0.841,-0.106
38.53,-0.45,0.534,-0.082
38.54,-0.03,1.094,0.261
38.55,-0.438,1.297,0.049
38.56,-0.14,0.357,-0.076
38.57,-0.472,0.951,-0.021
38.58,0.034,0.778,0.132
38.59,-0.302,1.314,-0.058
38.6,-0.198,0.595,-0.203
38.61,-0.199,1.276,-0.027
38.62,-0.036,1.035,0.16
38.63,-0.084,0.652,-0.016
38.64,-0.417,1.113,-0.208
38.65,-0.117,1.317,0.01
38.66,-0.28,1.046,0.099
38.67,-0.136,0.725,0.04
38.68,-0.473,0.867,-0.141
38.69,-0.198,1.643,0.186
38.7,-0.167,0.7,0.152
38.71,-0.143,0.933,-0.023
38.72,-0.354,0.353,-0.171
38.73,-0.13,1.948,0.09
38.74,-0.053,0.631,0.141
38.75,-0.16,0.926,-0.063
38.76,-0.449,0.427,-0.16
38.77,-0.167,1.92,0.168
38.78,-0.045,0.825,0.149
38.79,-0.155,0.727,-0.048
38.8,-0.289,0.737,-0.192
38.81,-0.064,1.558,0.128
38.82,-0.135,1.36,0.014
38.83,-0.009,0.373,-0.098
38.84,-0.449,0.882,-0.174
38.85,-0.001,1.324,0.138
38.86,-0.369,1.271,-0.004
38.87,-0.163,0.729,-0.087
38.88,-0.466,0.31,-0.06
38.89,-0.158,1.529,0.255
38.9,-0.205,0.779,0.052
38.91,-0.382,1.045,-0.129
38.92,-0.382,0.158,-0.036
38.93,-0.065,1.323,0.095
38.94,-0.235,0.995,-0.03
38.95,-0.167,0.687,-0.15
38.96,-0.238,1.361,-0.053
38.97,0.053,0.728,0.151
38.98,-0.217,1.198,-0.014
38.99,-0.195,0.477,-0.232
39.0,-0.231,1.888,0.015
39.01,-0.144,0.648,0.151
39.02,-0.16,1.081,0.025
39.03,-0.375,0.604,-0.22
39.04,-0.169,1.628,0.13
39.05,-0.228,1.03,0.153
39.06,-0.026,0.441,0.008
39.07,-0.539,0.978,-0.151
39.08,0.027,1.474,0.127
39.09,-0.177,1.208,0.16
39.1,-0.075,0.467,-0.074
39.11,-0.452,0.732,-0.181
39.12,-0.033,1.728,0.046
39.13,-0.049,0.792,0.098
39.14,-0.185,0.905,-0.067
39.15,-0.282,0.303,-0.159
39.16,-0.208,1.911,0.171
39.17,0.052,0.771,0.111
39.18,-0.215,0.975,-0.049
39.19,-0.316,0.44,-0.098
39.2,-0.166,1.751,0.195
39.21,-0.116,1.123,0.026
39.22,-0.036,0.579,-0.098
39.23,-0.431,0.879,-0.183
39.24,-0.213,1.239,0.188
39.25,-0.358,1.396,0.062
39.26,-0.082,0.482,-0.074
39.27,-0.476,0.649,-0.08
39.28,-0.038,1.238,0.176
39.29,-0.262,1.056,-0.028
39.3,-0.228,0.875,-0.117
39.31,-0.354,0.24,-0.036
39.32,-0.096,1.342,0.138
39.33,-0.19,0.825,0.005
39.34,-0.3,0.946,-0.142
39.35,-0.312,0.623,-0.023
39.36,-0.052,0.949,0.139
39.37,-0.25,1.181,-0.047
39.38,-0.138,0.558,-0.217
39.39,-0.217,1.826,-0.003
39.4,-0.03,0.566,0.166
39.41,-0.277,1.174,0.008
39.42,-0.333,0.423,-0.224
39.43,-0.252,1.846,0.099
39.44,-0.159,0.785,0.107
39.45,-0.145,0.72,-0.043
39.46,-0.42,0.798,-0.208
39.47,-0.037,1.507,0.109
39.48,-0.241,1.144,0.161
39.49,-0.003,0.409,-0.015
39.5,-0.505,0.964,-0.202
39.51,0.037,1.477,0.084
39.52,-0.129,1.114,0.108
39.53,-0.132,0.612,-0.059
39.54,-0.448,0.464,-0.125
39.55,-0.099,1.854,0.129
39.56,0.098,0.633,0.124
39.57,-0.111,1.021,-0.112
39.58,-0.245,0.212,-0.187
39.59,-0.293,1.854,0.108
39.6,-0.021,0.828,-0.065
39.61,-0.204,0.924,-0.142
39.62,-0.402,0.345,-0.118
39.63,-0.206,1.371,0.278
39.64,-0.365,1.196,0.024
39.65,-0.134,0.461,-0.051
39.66,-0.498,0.956,-0.033
39.67,-0.027,0.829,0.22
39.68,-0.308,1.313,0.026
39.69,-0.182,0.496,-0.143
39.7,-0.366,0.846,-0.053
39.71,-0.015,0.891,0.085
39.72,-0.203,0.928,-0.067
39.73,-0.276,0.895,-0.212
39.74,-0.161,1.15,-0.062
39.75,-0.192,1.103,0.159
39.76,-0.102,0.678,0.045
39.77,-0.417,1.043,-0.171
39.78,-0.174,1.547,0.058
39.79,-0.285,0.887,0.18
39.8,-0.109,0.883,-0.003
39.81,-0.419,0.518,-0.174
39.82,-0.14,1.961,0.093
39.83,-0.113,0.539,0.063
39.84,-0.159,1.048,-0.032
39.85,-0.346,0.32,-0.238
39.86,-0.055,1.791,0.047
39.87,0.001,0.875,0.112
39.88,-0.121,0.572,-0.046
39.89,-0.368,0.808,-0.218
39.9,0.014,1.433,0.111
39.91,-0.07,1.279,0.078
39.92,-0.069,0.422,-0.037
39.93,-0.428,0.981,-0.146
39.94,-0.067,1.54,0.189
39.95,-0.084,1.143,0.07
39.96,-0.049,0.733,-0.083
39.97,-0.378,0.46,-0.122
39.98,-0.232,1.811,0.199
39.99,-0.123,0.771,0.027
40.0,-0.165,1.082,-0.14
40.01,-0.278,0.157,-0.136
40.02,-0.206,1.556,0.184
40.03,-0.264,0.947,-0.018
40.04,-0.213,0.752,-0.13
40.05,-0.419,0.623,-0.087
40.06,-0.037,0.929,0.233
40.07,-0.397,1.477,0.057
40.08,-0.18,0.225,-0.1
40.09,-0.292,1.274,-0.047
40.1,0.041,0.756,0.127
40.11,-0.249,1.105,0.004
40.12,-0.253,0.765,-0.204
40.13,-0.17,1.332,-0.065
40.14,-0.131,1.053,0.121
40.15,-0.063,0.655,0.014
40.16,-0.506,1.06,-0.188
40.17,-0.071,1.311,0.045
40.18,-0.331,1.021,0.145
40.19,-0.099,0.76,0.022
40.2,-0.472,0.784,-0.133
40.21,-0.144,1.73,0.133
40.22,-0.171,0.731,0.135
40.23,-0.135,0.934,-0.0
40.24,-0.428,0.292,-0.159
40.25,-0.061,1.934,0.147
40.26,-0.115,0.693,0.125
40.27,-0.146,0.841,-0.042
40.28,-0.455,0.493,-0.201
40.29,0.022,1.673,0.145
40.3,-0.255,1.067,0.136
40.31,0.023,0.397,-0.042
40.32,-0.566,1.006,-0.149
40.33,0.025,1.36,0.162
40.34,-0.162,1.256,0.063
40.35,0.004,0.559,-0.041
40.36,-0.431,0.725,-0.126
40.37,-0.115,1.274,0.182
40.38,-0.262,1.232,-0.011
40.39,-0.245,0.74,-0.097
40.4,-0.415,0.294,-0.049
40.41,-0.222,1.492,0.275
40.42,-0.207,0.794,0.043
40.43,-0.344,0.983,-0.121
40.44,-0.314,0.25,-0.025
40.45,-0.136,1.197,0.157
40.46,-0.244,0.972,-0.007
40.47,-0.227,0.676,-0.135
40.48,-0.325,1.061,-0.032
40.49,0.034,0.713,0.146
40.5,-0.276,1.346,-0.002
40.51,-0.23,0.404,-0.207
40.52,-0.331,1.673,0.016
40.53,-0.094,0.651,0.179
40.54,-0.27,1.015,0.028
40.55,-0.341,0.657,-0.145
40.56,-0.247,1.544,0.075
40.57,-0.169,1.054,0.123
40.58,-0.034,0.496,-0.031
40.59,-0.496,1.016,-0.216
40.6,-0.041,1.414,0.118
40.61,-0.265,1.125,0.165
40.62,-0.116,0.535,0.021
40.63,-0.49,0.712,-0.141
40.64,0.004,1.799,0.098
40.65,-0.116,0.726,0.105
40.66,-0.194,0.916,-0.077
40.67,-0.297,0.244,-0.164
40.68,-0.164,1.934,0.142
40.69,0.03,0.713,0.119
40.7,-0.144,0.833,-0.078
40.71,-0.421,0.532,-0.118
40.72,-0.163,1.598,0.176
40.73,-0.174,1.24,0.065
40.74,-0.01,0.539,-0.099
40.75,-0.486,0.913,-0.148
40.76,-0.083,1.361,0.183
40.77,-0.341,1.364,0.027
40.78,-0.026,0.579,-0.078
40.79,-0.514,0.548,-0.118
40.8,-0.132,1.377,0.259
40.81,-0.307,0.969,0.063
40.82,-0.262,0.886,-0.103
40.83,-0.345,0.223,-0.05
40.84,-0.149,1.375,0.179
40.85,-0.224,0.766,0.01
40.86,-0.201,0.973,-0.138
40.87,-0.337,0.746,-0.081
40.88,0.028,0.859,0.122
40.89,-0.182,1.254,-0.064
40.9,-0.224,0.453,-0.249
40.91,-0.175,1.627,-0.074
40.92,-0.078,0.577,0.076
40.93,-0.248,1.247,0.022
40.94,-0.222,0.488,-0.194
40.95,-0.285,1.767,0.069
40.96,-0.165,0.87,0.167
40.97,-0.101,0.661,0.02
40.98,-0.428,0.886,-0.194
40.99,-0.095,1.367,0.105
41.0,-0.228,1.158,0.131
41.01,-0.046,0.431,-0.054
41.02,-0.485,0.944,-0.196
41.03,0.017,1.57,0.098
41.04,-0.192,0.899,0.095
41.05,-0.106,0.768,-0.039
41.06,-0.411,0.407,-0.171
41.07,-0.128,1.879,0.172
41.08,-0.021,0.599,0.122
41.09,-0.233,1.001,-0.008
41.1,-0.363,0.361,-0.106
41.11,-0.194,1.814,0.144
41.12,-0.111,0.947,0.081
41.13,-0.06,0.763,-0.063
41.14,-0.445,0.735,-0.109
41.15,-0.018,1.522,0.216
41.16,-0.3,1.347,0.043
41.17,0.022,0.472,-0.092
41.18,-0.626,0.852,-0.09
41.19,0.015,1.009,0.259
41.2,-0.41,1.436,0.031
41.21,-0.156,0.439,-0.101
41.22,-0.372,0.95,0.008
41.23,-0.169,1.056,0.201
41.24,-0.214,0.802,0.044
41.25,-0.377,0.997,-0.165
41.26,-0.183,0.665,-0.042
41.27,-0.186,1.104,0.146
41.28,-0.07,0.82,-0.014
41.29,-0.358,0.909,-0.216
41.3,-0.135,1.373,-0.009
41.31,-0.14,0.825,0.133
41.32,-0.166,1.033,0.012
41.33,-0.256,0.533,-0.195
41.34,-0.198,1.95,0.095
41.35,-0.014,0.652,0.14
41.36,-0.236,0.994,-0.007
41.37,-0.369,0.404,-0.233
41.38,-0.218,1.854,0.118
41.39,-0.198,0.834,0.157
41.4,-0.123,0.611,-0.056
41.41,-0.521,0.842,-0.208
41.42,0.016,1.456,0.127
41.43,-0.283,1.23,0.16
41.44,-0.012,0.342,0.011
41.45,-0.411,0.955,-0.183
41.46,0.017,1.55,0.1
41.47,0.041,1.018,0.079
41.48,-0.111,0.763,-0.108
41.49,-0.334,0.401,-0.152
41.5,-0.207,1.95,0.15
41.51,0.048,0.71,0.069
41.52,-0.118,1.064,-0.08
41.53,-0.337,0.282,-0.149
41.54,-0.169,1.829,0.172
41.55,-0.143,1.004,0.018
41.56,0.031,0.736,-0.098
41.57,-0.473,0.743,-0.142
41.58,-0.13,1.21,0.222
41.59,-0.382,1.439,0.046
41.6,-0.051,0.38,-0.117
41.61,-0.414,0.768,-0.139
41.62,-0.082,1.084,0.173
41.63,-0.308,1.25,-0.054
41.64,-0.231,0.647,-0.076
41.65,-0.401,0.352,-0.012
41.66,-0.115,1.309,0.158
41.67,-0.263,0.838,-0.004
41.68,-0.316,0.927,-0.103
41.69,-0.26,0.635,-0.007
41.7,-0.164,1.102,0.21
41.71,-0.169,0.959,-0.002
41.72,-0.306,0.742,-0.173
41.73,-0.163,1.708,-0.033
41.74,-0.042,0.655,0.132
41.75,-0.188,1.156,0.034
41.76,-0.35,0.421,-0.275
41.77,-0.239,2.0,0.031
41.78,-0.163,0.674,0.135
41.79,-0.167,0.889,-0.003
41.8,-0.464,0.591,-0.182
41.81,-0.105,1.625,0.153
41.82,-0.22,1.057,0.124
41.83,-0.042,0.447,-0.036
41.84,-0.511,0.976,-0.191
41.85,0.015,1.396,0.081
41.86,-0.134,1.123,0.149
41.87,-0.028,0.55,-0.051
41.88,-0.502,0.679,-0.197
41.89,-0.115,1.713,0.133
41.9,-0.001,0.823,0.107
41.91,-0.062,1.093,-0.094
41.92,-0.365,0.253,-0.129
41.93,-0.125,1.991,0.166
41.94,0.028,0.75,0.027
41.95,-0.112,0.962,-0.132
41.96,-0.31,0.488,-0.194
41.97,-0.154,1.446,0.134
41.98,-0.315,1.08,-0.042
41.99,-0.145,0.606,-0.116
42.0,-0.531,0.729,-0.056
42.01,0.0,0.87,0.215
42.02,-0.371,1.426,0.003
42.03,-0.188,0.241,-0.118
42.04,-0.455,0.976,-0.036
42.05,-0.015,0.752,0.135
42.06,-0.251,1.191,-0.043
42.07,-0.228,0.659,-0.203
42.08,-0.105,1.264,-0.061
42.09,-0.119,1.096,0.075
42.1,-0.134,0.59,0.023
42.11,-0.415,1.092,-0.216
42.12,-0.075,1.359,0.017
42.13,-0.331,0.995,0.126
42.14,-0.097,0.76,-0.009
42.15,-0.431,0.6,-0.182
42.16,-0.166,1.834,0.177
42.17,-0.122,0.648,0.129
42.18,-0.239,0.946,0.011
42.19,-0.363,0.303,-0.163
42.2,-0.2,1.983,0.15
42.21,-0.042,0.737,0.148
42.22,-0.256,0.765,-0.045
42.23,-0.428,0.554,-0.196
42.24,-0.11,1.594,0.163
42.25,-0.135,1.166,0.159
42.26,0.005,0.351,-0.076
42.27,-0.493,1.009,-0.179
42.28,-0.038,1.443,0.141
42.29,-0.239,1.259,0.065
42.3,0.084,0.719,-0.025
42.31,-0.483,0.576,-0.131
42.32,-0.127,1.687,0.157
42.33,-0.174,0.934,0.029
42.34,-0.188,1.029,-0.114
42.35,-0.311,0.131,-0.114
42.36,-0.344,1.595,0.222
42.37,-0.216,0.927,0.03
42.38,-0.184,0.808,-0.079
42.39,-0.316,0.475,-0.112
42.4,-0.033,1.072,0.153
42.41,-0.292,1.259,-0.092
42.42,-0.102,0.415,-0.137
42.43,-0.403,1.082,-0.023
42.44,0.038,0.683,0.117
42.45,-0.256,1.316,-0.066
42.46,-0.236,0.509,-0.195
42.47,-0.198,1.321,0.028
42.48,-0.188,0.903,0.119
42.49,-0.15,0.743,0.009
42.5,-0.433,0.917,-0.156
42.51,-0.16,1.354,0.04
42.52,-0.258,1.124,0.111
42.53,-0.113,0.542,0.0
42.54,-0.545,0.858,-0.17
42.55,-0.085,1.604,0.189
42.56,-0.213,0.881,0.185
42.57,-0.137,0.793,-0.003
42.58,-0.498,0.394,-0.178
42.59,-0.052,1.885,0.126
42.6,-0.062,0.666,0.116
42.61,-0.156,0.959,-0.06
42.62,-0.361,0.276,-0.181
42.63,-0.145,1.789,0.188
42.64,-0.052,0.923,0.143
42.65,-0.096,0.559,-0.041
42.66,-0.442,0.87,-0.146
42.67,-0.099,1.438,0.144
42.68,-0.194,1.364,0.051
42.69,0.023,0.553,-0.075
42.7,-0.422,0.815,-0.182
42.71,-0.12,1.388,0.181
42.72,-0.251,1.1,-0.031
42.73,-0.168,0.87,-0.103
42.74,-0.332,0.267,-0.077
42.75,-0.21,1.468,0.202
42.76,-0.219,0.799,-0.005
42.77,-0.278,0.979,-0.095
42.78,-0.193,0.638,-0.029
42.79,-0.169,1.187,0.146
42.8,-0.033,0.807,-0.004
42.81,-0.413,0.887,-0.221
42.82,-0.156,1.389,0.017
42.83,-0.132,0.752,0.111
42.84,-0.257,1.127,0.006
42.85,-0.261,0.448,-0.186
42.86,-0.29,1.977,0.06
42.87,-0.129,0.556,0.164
42.88,-0.195,1.141,-0.015
42.89,-0.465,0.386,-0.226
42.9,-0.08,1.761,0.131
42.91,-0.125,0.997,0.118
42.92,-0.088,0.443,-0.061
42.93,-0.402,0.915,-0.216
42.94,-0.041,1.415,0.104
42.95,-0.157,1.226,0.094
42.96,-0.025,0.442,-0.02
42.97,-0.406,0.902,-0.216
42.98,-0.071,1.517,0.108
42.99,-0.033,1.004,0.061
43.0,-0.111,0.819,-0.082
43.01,-0.348,0.366,-0.112
43.02,-0.219,1.928,0.187
43.03,-0.056,0.739,0.035
43.04,-0.147,1.1,-0.071
43.05,-0.288,0.227,-0.108
43.06,-0.215,1.686,0.158
43.07,-0.194,1.058,0.004
43.08,-0.119,0.548,-0.145
43.09,-0.363,0.772,-0.157
43.1,-0.078,1.08,0.202
43.11,-0.387,1.478,0.023
43.12,-0.168,0.305,-0.062
43.13,-0.446,0.806,-0.038
43.14,0.02,0.984,0.163
43.15,-0.259,1.152,0.033
43.16,-0.327,0.695,-0.154
43.17,-0.3,0.5,-0.055
43.18,-0.188,1.168,0.133
43.19,-0.136,0.771,-0.009
43.2,-0.436,1.021,-0.171
43.21,-0.028,1.171,-0.037
43.22,-0.234,0.951,0.148
43.23,-0.021,1.167,0.145
43.24,-0.102,0.656,0.012
43.25,-0.406,1.133,-0.216
43.26,-0.2,0.784,-0.03
43.27,-0.17,1.088,0.105
43.28,-0.137,0.903,0.016
43.29,-0.356,0.73,-0.212
43.3,-0.135,1.725,-0.0
43.31,-0.093,0.705,0.11
43.32,-0.087,1.031,-0.028
43.33,-0.402,0.312,-0.21
43.34,-0.221,1.974,0.15
43.35,-0.153,0.689,0.13
43.36,-0.187,0.868,-0.018
43.37,-0.492,0.467,-0.181
43.38,-0.088,1.735,0.159
43.39,-0.284,1.07,0.115
43.4,-0.058,0.403,-0.003
43.41,-0.525,0.976,-0.18
43.42,-0.001,1.334,0.165
43.43,-0.09,1.26,0.131
43.44,0.074,0.427,-0.035
43.45,-0.518,0.935,-0.179
43.46,-0.062,1.417,0.148
43.47,-0.257,1.207,0.001
43.48,-0.033,0.813,-0.092
43.49,-0.395,0.339,-0.104
43.5,-0.213,1.671,0.174
43.51,-0.179,0.904,0.041
43.52,-0.215,0.982,-0.095
43.53,-0.382,0.12,-0.108
43.54,-0.151,1.472,0.199
43.55,-0.299,0.937,-0.024
43.56,-0.106,0.72,-0.093
43.57,-0.406,0.738,-0.09
43.58,0.007,0.842,0.17
43.59,-0.309,1.361,-0.031
43.6,-0.154,0.284,-0.166
43.61,-0.344,1.137,-0.038
43.62,-0.015,0.689,0.109
43.63,-0.329,1.204,-0.0
43.64,-0.247,0.635,-0.18
43.65,-0.209,1.528,-0.024
43.66,-0.215,1.061,0.151
43.67,-0.05,0.517,0.006
43.68,-0.602,1.037,-0.17
43.69,-0.024,1.411,0.044
43.7,-0.317,1.071,0.175
43.71,-0.064,0.58,0.017
43.72,-0.543,0.76,-0.179
43.73,-0.111,1.827,0.134
43.74,-0.236,0.72,0.145
43.75,-0.141,0.938,-0.014
43.76,-0.372,0.324,-0.177
43.77,-0.099,1.934,0.133
43.78,-0.039,0.732,0.186
43.79,-0.195,0.822,-0.048
43.8,-0.455,0.475,-0.165
43.81,-0.092,1.643,0.148
43.82,-0.012,1.136,0.11
43.83,-0.056,0.496,-0.06
43.84,-0.372,0.965,-0.202
43.85,-0.031,1.448,0.195
43.86,-0.103,1.305,0.028
43.87,0.027,0.613,-0.043
43.88,-0.401,0.742,-0.175
43.89,-0.1,1.578,0.117
43.9,-0.199,1.017,0.02
43.91,-0.206,0.965,-0.085
43.92,-0.347,0.149,-0.082
43.93,-0.239,1.572,0.225
43.94,-0.244,0.845,0.014
43.95,-0.24,0.899,-0.105
43.96,-0.388,0.345,-0.088
43.97,-0.059,1.146,0.17
43.98,-0.315,1.197,-0.025
43.99,-0.195,0.417,-0.147
44.0,-0.443,1.006,-0.001
44.01,0.046,0.729,0.134
44.02,-0.31,1.399,-0.036
44.03,-0.2,0.346,-0.16
44.04,-0.178,1.576,-0.047
44.05,-0.052,0.819,0.113
44.06,-0.151,0.809,-0.032
44.07,-0.422,0.938,-0.211
44.08,-0.128,1.408,0.012
44.09,-0.255,1.122,0.164
44.1,-0.06,0.559,0.026
44.11,-0.521,0.963,-0.215
44.12,-0.079,1.504,0.13
44.13,-0.188,0.99,0.149
44.14,-0.116,0.667,-0.018
44.15,-0.457,0.504,-0.124
44.16,-0.077,1.934,0.152
44.17,-0.062,0.628,0.132
44.18,-0.156,0.991,-0.063
44.19,-0.421,0.244,-0.16
44.2,-0.095,1.909,0.113
44.21,-0.049,0.839,0.145
44.22,-0.059,0.675,-0.079
44.23,-0.452,0.741,-0.151
44.24,-0.217,1.652,0.178
44.25,-0.187,1.234,0.063
44.26,-0.001,0.596,-0.117
44.27,-0.47,0.855,-0.085
44.28,-0.161,1.136,0.244
44.29,-0.352,1.331,0.048
44.3,-0.124,0.528,-0.094
44.31,-0.429,0.651,-0.063
44.32,-0.158,1.152,0.2
44.33,-0.258,1.004,-0.02
44.34,-0.29,0.836,-0.124
44.35,-0.204,0.562,-0.004
44.36,-0.173,1.222,0.177
44.37,-0.195,0.71,-0.001
44.38,-0.369,1.003,-0.175
44.39,-0.145,1.069,0.007
44.4,-0.117,0.815,0.11
44.41,-0.156,1.098,-0.013
44.42,-0.286,0.572,-0.306
44.43,-0.116,1.851,-0.055
44.44,-0.059,0.603,0.081
44.45,-0.262,1.22,0.059
44.46,-0.397,0.391,-0.247
44.47,-0.222,1.797,0.167
44.48,-0.224,0.85,0.169
44.49,-0.149,0.569,0.016
44.5,-0.446,0.832,-0.177
44.51,-0.051,1.552,0.139
44.52,-0.198,1.235,0.103
44.53,-0.057,0.348,-0.035
44.54,-0.436,0.957,-0.143
44.55,-0.029,1.486,0.123
44.56,0.011,1.127,0.085
44.57,-0.054,0.76,-0.092
44.58,-0.318,0.444,-0.131
44.59,-0.154,1.941,0.158
44.6,0.01,0.714,0.04
44.61,-0.134,1.189,-0.073
44.62,-0.352,0.193,-0.106
44.63,-0.139,1.819,0.148
44.64,-0.212,0.995,-0.031
44.65,0.005,0.809,-0.06
44.66,-0.438,0.626,-0.123
44.67,-0.125,1.112,0.29
44.68,-0.433,1.479,-0.047
44.69,-0.076,0.399,-0.056
44.7,-0.483,0.885,-0.041
44.71,-0.005,0.841,0.154
44.72,-0.312,1.295,-0.079
44.73,-0.276,0.612,-0.174
44.74,-0.247,0.702,0.024
44.75,-0.196,1.028,0.124
44.76,-0.176,0.764,0.007
44.77,-0.497,0.996,-0.21
44.78,-0.015,1.175,0.068
44.79,-0.249,1.094,0.16
44.8,-0.122,0.779,-0.031
44.81,-0.5,0.751,-0.142
44.82,-0.123,1.76,0.101
44.83,-0.047,0.728,0.134
44.84,-0.219,0.918,-0.012
44.85,-0.38,0.309,-0.185
44.86,-0.199,1.961,0.153
44.87,-0.065,0.721,0.139
44.88,-0.196,0.852,-0.035
44.89,-0.429,0.431,-0.219
44.9,-0.053,1.662,0.138
44.91,-0.053,1.153,0.138
44.92,-0.026,0.393,-0.055
44.93,-0.474,0.931,-0.153
44.94,-0.071,1.461,0.105
44.95,-0.168,1.281,0.022
44.96,0.07,0.675,-0.066
44.97,-0.409,0.66,-0.107
44.98,-0.136,1.603,0.143
44.99,-0.154,0.952,-0.006
45.0,-0.113,0.989,-0.163
45.01,-0.299,0.194,-0.077
45.02,-0.263,1.512,0.192
45.03,-0.231,0.791,-0.003
45.04,-0.329,0.898,-0.127
45.05,-0.18,0.506,-0.031
45.06,-0.188,1.092,0.142
45.07,-0.229,0.938,-0.056
45.08,-0.268,0.761,-0.233
45.09,-0.279,1.347,0.054
45.1,-0.024,0.643,0.152
45.11,-0.297,1.269,-0.015
45.12,-0.294,0.363,-0.185
45.13,-0.259,1.974,0.075
45.14,-0.063,0.694,0.18
45.15,-0.254,0.871,-0.03
45.16,-0.466,0.567,-0.217
45.17,-0.133,1.7,0.13
45.18,-0.233,1.096,0.134
45.19,-0.057,0.4,0.003
45.2,-0.525,0.982,-0.163
45.21,-0.025,1.389,0.127
45.22,-0.119,1.242,0.153
45.23,-0.01,0.504,-0.059
45.24,-0.414,0.687,-0.122
45.25,-0.062,1.717,0.083
45.26,0.032,0.815,0.046
45.27,-0.081,1.099,-0.085
45.28,-0.344,0.191,-0.165
45.29,-0.234,1.866,0.165
45.3,-0.124,0.805,-0.007
45.31,-0.145,0.98,-0.101
45.32,-0.372,0.406,-0.14
45.33,-0.175,1.317,0.258
45.34,-0.318,1.23,-0.036
45.35,-0.074,0.536,-0.123
45.36,-0.519,0.878,-0.054
45.37,0.071,0.831,0.147
45.38,-0.334,1.361,-0.107
45.39,-0.215,0.389,-0.141
45.4,-0.406,0.814,-0.034
45.41,-0.071,0.989,0.091
45.42,-0.274,0.909,-0.02
45.43,-0.32,0.836,-0.173
45.44,-0.119,1.156,0.064
45.45,-0.176,1.127,0.174
45.46,-0.125,0.639,0.057
45.47,-0.417,0.98,-0.183
45.48,-0.076,1.593,-0.005
45.49,-0.219,0.776,0.102
45.5,-0.073,0.927,-0.026
45.51,-0.511,0.376,-0.196
45.52,-0.081,2.0,0.173
45.53,-0.166,0.588,0.101
45.54,-0.135,0.97,0.007
45.55,-0.491,0.324,-0.154
45.56,-0.08,1.773,0.133
45.57,-0.03,0.982,0.15
45.58,-0.07,0.553,-0.049
45.59,-0.437,0.851,-0.163
45.6,-0.006,1.462,0.139
45.61,-0.137,1.264,0.092
45.62,0.098,0.645,-0.032
45.63,-0.517,0.826,-0.163
45.64,-0.074,1.507,0.153
45.65,-0.166,1.214,-0.015
45.66,-0.008,0.86,-0.094
45.67,-0.299,0.307,-0.139
45.68,-0.262,1.637,0.238
45.69,-0.191,0.788,-0.016
45.7,-0.223,1.083,-0.065
45.71,-0.365,0.21,-0.051
45.72,-0.11,1.24,0.167
45.73,-0.314,0.968,-0.054
45.74,-0.212,0.603,-0.157
45.75,-0.365,0.873,-0.044
45.76,-0.025,0.712,0.131
45.77,-0.377,1.375,-0.077
45.78,-0.09,0.333,-0.161
45.79,-0.203,1.859,-0.01
45.8,-0.033,0.637,0.17
45.81,-0.18,0.95,-0.04
45.82,-0.45,0.687,-0.242
45.83,-0.081,1.607,0.057
45.84,-0.247,0.881,0.171
45.85,-0.05,0.585,-0.015
45.86,-0.621,0.87,-0.163
45.87,0.061,1.483,0.13
45.88,-0.253,1.274,0.142
45.89,0.046,0.354,-0.047
45.9,-0.42,0.863,-0.164
45.91,-0.028,1.519,0.073
45.92,-0.036,1.035,0.083
45.93,-0.051,0.894,-0.111
45.94,-0.33,0.314,-0.155
45.95,-0.256,1.897,0.182
45.96,-0.038,0.744,0.015
45.97,-0.182,1.113,-0.1
45.98,-0.312,0.256,-0.095
45.99,-0.341,1.52,0.24
46.0,-0.295,1.093,0.026
46.01,-0.095,0.625,-0.096
46.02,-0.444,0.721,-0.072
46.03,-0.023,0.923,0.154
46.04,-0.393,1.344,-0.022
46.05,-0.173,0.362,-0.142
46.06,-0.375,0.954,-0.007
46.07,-0.017,0.802,0.17
46.08,-0.289,1.062,-0.007
46.09,-0.298,0.748,-0.194
46.1,-0.189,1.019,-0.005
46.11,-0.132,1.13,0.186
46.12,-0.193,0.68,0.022
46.13,-0.49,1.042,-0.169
46.14,-0.085,1.408,0.028
46.15,-0.225,1.006,0.118
46.16,-0.122,0.759,0.005
46.17,-0.598,0.637,-0.124
46.18,-0.11,1.888,0.159
46.19,-0.131,0.664,0.157
46.2,-0.151,0.975,-0.045
46.21,-0.519,0.266,-0.187
46.22,-0.012,1.946,0.077
46.23,-0.062,0.796,0.129
46.24,-0.112,0.763,-0.068
46.25,-0.466,0.595,-0.215
46.26,-0.071,1.566,0.121
46.27,-0.031,1.263,0.09
46.28,-0.048,0.414,-0.047
46.29,-0.486,0.982,-0.137
46.3,-0.12,1.384,0.146
46.31,-0.181,1.25,0.02
46.32,0.017,0.666,-0.074
46.33,-0.474,0.603,-0.143
46.34,-0.227,1.573,0.211
46.35,-0.067,0.876,0.001
46.36,-0.283,0.931,-0.16
46.37,-0.312,0.159,-0.098
46.38,-0.262,1.495,0.198
46.39,-0.241,0.819,-0.027
46.4,-0.241,0.848,-0.074
46.41,-0.365,0.541,-0.078
46.42,-0.04,0.99,0.15
46.43,-0.282,1.244,-0.038
46.44,-0.163,0.38,-0.155
46.45,-0.372,1.104,-0.008
46.46,0.078,0.718,0.152
46.47,-0.219,1.332,-0.009
46.48,-0.263,0.487,-0.221
46.49,-0.149,1.396,-0.013
46.5,-0.073,0.974,0.105
46.51,0.0,0.738,0.0
46.52,-0.438,1.024,-0.213
46.53,-0.072,1.324,-0.025
46.54,-0.25,1.087,0.14
46.55,0.005,0.707,0.029
46.56,-0.551,0.89,-0.214
46.57,-0.135,1.649,0.067
46.58,-0.238,0.824,0.145
46.59,-0.011,0.602,-0.012
46.6,-0.422,0.648,-0.157
46.61,-0.036,1.749,0.097
46.62,0.004,0.746,0.151
46.63,-0.226,0.926,-0.057
46.64,-0.315,0.348,-0.163
46.65,-0.141,2.0,0.119
46.66,0.048,0.681,0.079
46.67,-0.1,1.107,-0.068
46.68,-0.429,0.295,-0.118
46.69,-0.174,1.678,0.146
46.7,-0.186,1.123,0.0
46.71,0.031,0.588,-0.059
46.72,-0.492,0.795,-0.133
46.73,-0.064,1.147,0.232
46.74,-0.423,1.414,0.02
46.75,-0.039,0.428,-0.06
46.76,-0.529,0.703,-0.11
46.77,-0.031,1.103,0.197
46.78,-0.277,1.059,0.011
46.79,-0.195,0.796,-0.136
46.8,-0.349,0.336,-0.048
46.81,-0.131,1.242,0.133
46.82,-0.203,0.868,-0.015
46.83,-0.311,0.902,-0.125
46.84,-0.314,0.646,0.018
46.85,-0.116,1.03,0.167
46.86,-0.231,1.026,-0.03
46.87,-0.287,0.645,-0.192
46.88,-0.174,1.592,-0.028
46.89,-0.104,0.632,0.179
46.9,-0.219,1.257,0.024
46.91,-0.36,0.366,-0.231
46.92,-0.226,1.956,0.039
46.93,-0.113,0.748,0.161
46.94,-0.198,0.803,0.021
46.95,-0.396,0.735,-0.185
46.96,-0.236,1.44,0.159
46.97,-0.16,1.177,0.182
46.98,-0.061,0.404,-0.004
46.99,-0.468,1.009,-0.195
47.0,-0.031,1.486,0.127
47.01,-0.221,1.135,0.119
47.02,-0.037,0.578,-0.002
47.03,-0.548,0.596,-0.143
47.04,-0.031,1.852,0.129
47.05,-0.114,0.69,0.179
47.06,-0.147,0.992,-0.035
47.07,-0.364,0.273,-0.169
47.08,-0.221,1.924,0.118
47.09,0.034,0.798,0.13
47.1,-0.13,0.789,-0.071
47.11,-0.391,0.653,-0.172
47.12,-0.18,1.542,0.113
47.13,-0.118,1.274,0.042
47.14,0.055,0.536,-0.051
47.15,-0.472,0.924,-0.105
47.16,-0.129,1.377,0.137
47.17,-0.272,1.236,0.04
47.18,-0.068,0.669,-0.066
47.19,-0.421,0.536,-0.136
47.2,-0.218,1.539,0.166
47.21,-0.226,0.906,0.043
47.22,-0.222,0.98,-0.087
47.23,-0.322,0.131,-0.072
47.24,-0.2,1.436,0.191
47.25,-0.204,0.839,-0.026
47.26,-0.288,0.848,-0.119
47.27,-0.34,0.59,-0.093
47.28,0.05,1.007,0.112
47.29,-0.249,1.285,-0.056
47.3,-0.176,0.333,-0.195
47.31,-0.365,1.08,-0.06
47.32,0.01,0.679,0.135
47.33,-0.302,1.368,-0.065
47.34,-0.23,0.446,-0.192
47.35,-0.234,1.4,-0.035
47.36,-0.113,0.94,0.141
47.37,-0.136,0.718,0.02
47.38,-0.411,1.05,-0.188
47.39,-0.13,1.326,-0.009
47.4,-0.208,1.133,0.179
47.41,-0.115,0.615,0.037
47.42,-0.476,0.951,-0.179
47.43,-0.166,1.629,0.046
47.44,-0.142,0.874,0.129
47.45,-0.056,0.675,0.0
47.46,-0.454,0.6,-0.167
47.47,-0.001,1.84,0.097
47.48,-0.093,0.773,0.134
47.49,-0.121,0.907,-0.049
47.5,-0.302,0.265,-0.193
47.51,-0.145,1.944,0.136
47.52,-0.022,0.719,0.147
47.53,-0.124,0.865,-0.016
47.54,-0.43,0.609,-0.16
47.55,-0.093,1.596,0.175
47.56,-0.139,1.26,0.087
47.57,0.035,0.451,-0.025
47.58,-0.497,1.015,-0.124
47.59,-0.121,1.37,0.186
47.6,-0.286,1.245,0.076
47.61,-0.016,0.663,-0.071
47.62,-0.388,0.5,-0.139
47.63,-0.153,1.562,0.13
47.64,-0.25,0.945,0.027
47.65,-0.213,0.935,-0.099
47.66,-0.337,0.123,-0.098
47.67,-0.202,1.63,0.257
47.68,-0.283,0.929,0.036
47.69,-0.199,0.837,-0.093
47.7,-0.407,0.506,-0.084
47.71,-0.055,1.104,0.228
47.72,-0.326,1.381,-0.046
47.73,-0.112,0.341,-0.154
47.74,-0.382,1.137,-0.024
47.75,0.097,0.713,0.166
47.76,-0.301,1.321,0.001
47.77,-0.268,0.562,-0.21
47.78,-0.279,1.184,0.034
47.79,-0.072,0.951,0.099
47.8,-0.152,0.749,0.035
47.81,-0.378,1.014,-0.184
47.82,-0.198,1.275,0.027
47.83,-0.236,1.085,0.176
47.84,-0.015,0.69,-0.002
47.85,-0.514,0.849,-0.218
47.86,-0.078,1.633,0.086
47.87,-0.191,0.872,0.148
47.88,-0.089,0.882,-0.003
47.89,-0.436,0.423,-0.193
47.9,-0.118,1.932,0.111
47.91,-0.13,0.623,0.08
47.92,-0.171,0.972,-0.025
47.93,-0.359,0.354,-0.192
47.94,-0.057,1.754,0.072
47.95,-0.034,0.984,0.121
47.96,-0.024,0.537,-0.039
47.97,-0.465,0.925,-0.207
47.98,0.033,1.443,0.143
47.99,-0.185,1.23,0.116
48.0,0.011,0.545,-0.02
48.01,-0.532,0.936,-0.098
48.02,-0.086,1.582,0.19
48.03,-0.045,0.994,0.069
48.04,-0.019,0.855,-0.072
48.05,-0.427,0.357,-0.124
48.06,-0.209,1.838,0.189
48.07,-0.203,0.747,0.137
48.08,-0.134,1.047,-0.109
48.09,-0.342,0.204,-0.138
48.1,-0.167,1.51,0.172
48.11,-0.273,1.052,0.013
48.12,-0.141,0.599,-0.15
48.13,-0.473,0.729,-0.096
48.14,-0.035,0.958,0.262
48.15,-0.39,1.454,0.011
48.16,-0.109,0.254,-0.065
48.17,-0.429,0.932,-0.027
48.18,-0.023,0.891,0.152
48.19,-0.296,1.13,-0.01
48.2,-0.27,0.757,-0.177
48.21,-0.293,0.569,-0.026
48.22,-0.129,1.162,0.07
48.23,-0.177,0.76,-0.023
48.24,-0.433,1.023,-0.185
48.25,-0.126,1.282,0.057
48.26,-0.278,1.111,0.186
48.27,-0.132,0.64,0.009
48.28,-0.469,0.831,-0.153
48.29,-0.063,1.665,0.042
48.3,-0.075,0.929,0.149
48.31,-0.109,0.824,-0.044
48.32,-0.358,0.347,-0.206
48.33,-0.121,1.955,0.089
48.34,-0.001,0.7,0.14
48.35,-0.218,0.942,-0.029
48.36,-0.363,0.353,-0.186
