t,ax,ay,az
0.0,-0.168,1.024,0.075
0.01,-0.388,0.406,-0.179
0.02,-0.289,1.887,0.102
0.03,-0.107,0.794,0.145
0.04,-0.049,0.713,0.032
0.05,-0.459,0.843,-0.203
0.06,-0.135,1.496,0.112
0.07,-0.272,1.069,0.185
0.08,0.078,0.442,0.045
0.09,-0.577,1.074,-0.154
0.1,-0.081,1.589,0.112
0.11,-0.235,1.056,0.116
0.12,0.038,0.559,-0.008
0.13,-0.424,0.735,-0.184
0.14,-0.127,1.967,0.067
0.15,-0.118,0.629,0.092
0.16,-0.037,0.937,-0.04
0.17,-0.361,0.266,-0.207
0.18,-0.146,1.967,0.077
0.19,-0.145,0.846,0.091
0.2,-0.071,0.675,-0.064
0.21,-0.429,0.731,-0.239
0.22,-0.073,1.676,0.137
0.23,-0.21,1.261,0.031
0.24,0.06,0.355,-0.086
0.25,-0.558,1.009,-0.165
0.26,-0.017,1.375,0.232
0.27,-0.267,1.238,0.064
0.28,-0.012,0.588,-0.09
0.29,-0.452,0.599,-0.165
0.3,-0.101,1.669,0.187
0.31,-0.155,0.829,0.064
0.32,-0.172,0.986,-0.105
0.33,-0.376,0.216,-0.119
0.34,-0.193,1.57,0.188
0.35,-0.153,0.909,0.077
0.36,-0.134,0.813,-0.102
0.37,-0.406,0.639,-0.175
0.38,-0.099,1.047,0.184
0.39,-0.315,1.323,0.105
0.4,-0.058,0.403,-0.133
0.41,-0.46,1.008,-0.144
0.42,0.017,0.972,0.167
0.43,-0.24,1.273,0.008
0.44,-0.12,0.554,-0.104
0.45,-0.452,0.671,-0.087
0.46,-0.079,1.283,0.195
0.47,-0.342,0.956,0.034
0.48,-0.258,0.773,-0.132
0.49,-0.405,0.725,-0.02
0.5,-0.145,1.327,0.189
0.51,-0.137,0.729,0.038
0.52,-0.435,0.939,-0.16
0.53,-0.24,0.858,-0.022
0.54,-0.107,1.13,0.09
0.55,-0.217,1.029,0.036
0.56,-0.254,0.525,-0.186
0.57,-0.254,1.658,-0.04
0.58,0.021,0.743,0.116
0.59,-0.225,1.187,0.04
0.6,-0.344,0.401,-0.201
0.61,-0.274,1.614,-0.01
0.62,-0.087,0.794,0.105
0.63,-0.136,0.879,0.013
0.64,-0.437,0.802,-0.21
0.65,-0.218,1.28,0.057
0.66,-0.16,1.25,0.159
0.67,0.035,0.506,0.07
0.68,-0.551,1.113,-0.171
0.69,-0.158,1.451,0.076
0.7,-0.212,0.937,0.131
0.71,0.002,0.771,0.027
0.72,-0.42,0.615,-0.189
0.73,-0.19,1.906,0.073
0.74,-0.1,0.65,0.116
0.75,-0.095,0.939,0.006
0.76,-0.324,0.38,-0.18
0.77,-0.19,2.0,0.104
0.78,-0.067,0.772,0.247
0.79,-0.097,0.622,0.017
0.8,-0.456,0.808,-0.232
0.81,-0.053,1.674,0.11
0.82,-0.311,1.118,0.094
0.83,0.06,0.356,0.008
0.84,-0.511,1.083,-0.221
0.85,-0.005,1.479,0.107
0.86,-0.168,1.181,0.069
0.87,0.024,0.553,-0.043
0.88,-0.406,0.536,-0.173
0.89,-0.172,1.77,0.127
0.9,-0.118,0.797,0.087
0.91,-0.131,1.041,-0.097
0.92,-0.367,0.238,-0.188
0.93,-0.118,1.883,0.152
0.94,-0.111,0.958,0.086
0.95,-0.113,0.684,-0.079
0.96,-0.419,0.659,-0.201
0.97,-0.106,1.239,0.194
0.98,-0.324,1.356,0.113
0.99,-0.027,0.428,-0.072
1.0,-0.51,0.92,-0.152
1.01,0.029,1.162,0.137
1.02,-0.239,1.221,0.01
1.03,-0.114,0.689,-0.123
1.04,-0.403,0.561,-0.128
1.05,-0.089,1.397,0.175
1.06,-0.147,0.851,0.041
1.07,-0.256,0.968,-0.098
1.08,-0.406,0.304,-0.115
1.09,-0.104,1.367,0.154
1.1,-0.28,0.856,0.039
1.11,-0.24,0.715,-0.106
1.12,-0.474,0.84,-0.106
1.13,-0.042,1.06,0.199
1.14,-0.267,1.241,0.063
1.15,-0.161,0.378,-0.126
1.16,-0.479,1.17,-0.03
1.17,0.019,0.913,0.173
1.18,-0.228,1.242,0.051
1.19,-0.242,0.47,-0.151
1.2,-0.322,1.022,-0.064
1.21,-0.095,1.241,0.143
1.22,-0.174,0.73,0.087
1.23,-0.408,0.976,-0.166
1.24,-0.246,0.828,-0.048
1.25,-0.133,1.265,0.145
1.26,-0.113,0.789,0.009
1.27,-0.356,0.774,-0.193
1.28,-0.165,1.306,-0.011
1.29,-0.104,0.969,0.114
1.3,-0.073,0.891,0.024
1.31,-0.396,0.572,-0.193
1.32,-0.295,1.788,0.038
1.33,-0.104,0.665,0.166
1.34,-0.141,1.091,0.058
1.35,-0.383,0.354,-0.203
1.36,-0.263,1.82,0.077
1.37,-0.063,0.841,0.042
1.38,-0.098,0.678,0.036
1.39,-0.446,0.809,-0.187
1.4,-0.096,1.466,0.063
1.41,-0.196,1.124,0.093
1.42,0.095,0.419,0.002
1.43,-0.483,1.063,-0.216
1.44,0.015,1.55,0.071
1.45,-0.172,1.044,0.092
1.46,0.051,0.61,-0.029
1.47,-0.492,0.631,-0.176
1.48,-0.108,2.0,0.043
1.49,-0.01,0.682,0.069
1.5,-0.088,0.934,-0.03
1.51,-0.349,0.321,-0.208
1.52,-0.149,1.998,0.138
1.53,-0.147,0.83,0.078
1.54,-0.074,0.707,-0.024
1.55,-0.4,0.79,-0.238
1.56,-0.023,1.566,0.128
1.57,-0.184,1.294,0.055
1.58,0.068,0.317,-0.068
1.59,-0.494,0.986,-0.168
1.6,-0.052,1.317,0.156
1.61,-0.24,1.175,0.082
1.62,-0.054,0.709,-0.073
1.63,-0.49,0.554,-0.142
1.64,-0.134,1.652,0.16
1.65,-0.174,0.824,0.145
1.66,-0.175,0.975,-0.094
1.67,-0.378,0.284,-0.196
1.68,-0.156,1.456,0.168
1.69,-0.261,0.865,0.069
1.7,-0.166,0.747,-0.1
1.71,-0.454,0.755,-0.127
1.72,-0.053,1.062,0.235
1.73,-0.263,1.309,0.06
1.74,-0.079,0.409,-0.071
1.75,-0.523,1.018,-0.143
1.76,0.029,0.975,0.199
1.77,-0.262,1.212,0.059
1.78,-0.286,0.552,-0.146
1.79,-0.401,0.623,-0.048
1.8,-0.17,1.284,0.205
1.81,-0.138,0.732,0.096
1.82,-0.386,0.88,-0.128
1.83,-0.321,0.583,-0.049
1.84,-0.15,1.338,0.162
1.85,-0.118,0.782,0.047
1.86,-0.308,0.727,-0.164
1.87,-0.337,1.085,-0.047
1.88,-0.087,0.93,0.207
1.89,-0.278,1.212,0.085
1.9,-0.219,0.296,-0.107
1.91,-0.34,1.594,-0.041
1.92,0.011,0.851,0.159
1.93,-0.216,1.103,0.037
1.94,-0.288,0.584,-0.218
1.95,-0.171,1.215,-0.028
1.96,-0.176,1.103,0.139
1.97,-0.094,0.66,0.072
1.98,-0.44,0.992,-0.198
1.99,-0.217,0.913,-0.013
2.0,-0.18,1.191,0.147
2.01,-0.158,0.76,0.012
2.02,-0.371,0.809,-0.23
2.03,-0.183,1.601,-0.014
2.04,-0.03,0.864,0.15
2.05,-0.124,1.025,0.046
2.06,-0.336,0.423,-0.222
2.07,-0.385,1.87,0.113
2.08,-0.073,0.627,0.109
2.09,-0.145,0.993,0.044
2.1,-0.295,0.399,-0.245
2.11,-0.249,1.925,0.088
2.12,-0.106,0.823,0.153
2.13,-0.078,0.584,0.02
2.14,-0.483,0.849,-0.214
2.15,-0.071,1.557,0.104
2.16,-0.194,1.125,0.145
2.17,0.124,0.397,0.003
2.18,-0.528,1.028,-0.215
2.19,0.036,1.662,0.053
2.2,-0.184,1.137,0.084
2.21,0.062,0.576,-0.032
2.22,-0.44,0.586,-0.218
2.23,-0.128,1.912,0.046
2.24,-0.108,0.667,0.044
2.25,-0.082,0.988,-0.054
2.26,-0.437,0.214,-0.177
2.27,-0.211,1.805,0.198
2.28,-0.141,0.978,0.087
2.29,-0.132,0.601,-0.038
2.3,-0.432,0.78,-0.173
2.31,-0.133,1.349,0.204
2.32,-0.245,1.288,0.132
2.33,-0.03,0.415,-0.108
2.34,-0.426,0.976,-0.215
2.35,-0.002,1.232,0.093
2.36,-0.243,1.213,0.076
2.37,-0.087,0.69,-0.081
2.38,-0.389,0.49,-0.152
2.39,-0.14,1.427,0.208
2.4,-0.015,0.832,0.027
2.41,-0.234,1.026,-0.088
2.42,-0.352,0.229,-0.184
2.43,-0.177,1.409,0.176
2.44,-0.1,0.889,0.023
2.45,-0.228,0.65,-0.144
2.46,-0.376,0.786,-0.2
2.47,-0.013,1.009,0.208
2.48,-0.292,1.314,-0.021
2.49,-0.014,0.316,-0.138
2.5,-0.493,1.046,-0.166
2.51,0.102,1.011,0.135
2.52,-0.235,1.134,-0.039
2.53,-0.179,0.659,-0.186
2.54,-0.459,0.584,-0.14
2.55,-0.059,1.32,0.133
2.56,-0.14,0.75,0.026
2.57,-0.304,0.89,-0.094
2.58,-0.399,0.525,-0.097
2.59,-0.122,1.291,0.189
2.6,-0.249,0.861,0.025
2.61,-0.248,0.63,-0.123
2.62,-0.327,1.138,-0.074
2.63,-0.049,0.94,0.182
2.64,-0.301,1.175,0.085
2.65,-0.217,0.379,-0.147
2.66,-0.37,1.387,0.004
2.67,-0.085,0.808,0.19
2.68,-0.313,1.153,0.081
2.69,-0.28,0.549,-0.166
2.7,-0.274,1.047,-0.016
2.71,-0.085,1.195,0.157
2.72,-0.087,0.68,0.016
2.73,-0.406,1.023,-0.164
2.74,-0.12,1.013,-0.034
2.75,-0.16,1.261,0.146
2.76,-0.085,0.706,0.02
2.77,-0.367,0.812,-0.257
2.78,-0.172,1.446,-0.036
2.79,-0.024,0.812,0.065
2.8,-0.167,1.115,0.02
2.81,-0.039,1.024,0.193
2.82,-0.268,0.973,0.079
2.83,-0.343,0.529,-0.145
2.84,-0.394,1.242,-0.004
2.85,-0.053,0.835,0.178
2.86,-0.273,1.264,0.059
2.87,-0.15,0.349,-0.16
2.88,-0.365,1.558,-0.041
2.89,-0.008,0.943,0.216
2.9,-0.266,0.899,0.056
2.91,-0.362,0.76,-0.167
2.92,-0.3,1.071,0.007
2.93,-0.157,1.237,0.176
2.94,-0.114,0.594,0.052
2.95,-0.446,1.021,-0.215
2.96,-0.159,1.015,-0.03
2.97,-0.134,1.129,0.117
2.98,-0.086,0.895,0.02
2.99,-0.362,0.658,-0.179
3.0,-0.235,1.689,0.036
3.01,-0.052,0.708,0.152
3.02,-0.175,1.134,0.074
3.03,-0.313,0.333,-0.197
3.04,-0.358,1.782,0.031
3.05,-0.02,0.814,0.154
3.06,-0.131,0.791,0.037
3.07,-0.392,0.743,-0.208
3.08,-0.183,1.413,0.004
3.09,-0.174,1.138,0.179
3.1,0.097,0.451,0.022
3.11,-0.553,1.087,-0.188
3.12,-0.126,1.378,0.061
3.13,-0.258,0.968,0.169
3.14,0.012,0.729,0.045
3.15,-0.45,0.687,-0.152
3.16,-0.193,1.892,0.073
3.17,-0.087,0.724,0.154
3.18,-0.042,0.961,0.045
3.19,-0.383,0.35,-0.178
3.2,-0.177,2.0,0.083
3.21,-0.096,0.785,0.124
3.22,-0.028,0.71,-0.011
3.23,-0.396,0.736,-0.286
3.24,-0.046,1.621,0.079
3.25,-0.143,1.105,0.075
3.26,0.063,0.3,0.01
3.27,-0.393,1.141,-0.187
3.28,-0.109,1.473,0.081
3.29,-0.108,1.127,0.094
3.3,-0.006,0.561,0.002
3.31,-0.369,0.684,-0.174
3.32,-0.107,1.972,0.077
3.33,-0.1,0.76,0.08
3.34,-0.132,0.871,-0.039
3.35,-0.381,0.363,-0.201
3.36,-0.144,2.0,0.133
3.37,-0.116,0.754,0.085
3.38,-0.059,0.618,-0.017
3.39,-0.461,0.677,-0.234
3.4,-0.078,1.614,0.113
3.41,-0.194,1.256,0.043
3.42,-0.012,0.388,-0.077
3.43,-0.445,1.033,-0.198
3.44,-0.074,1.395,0.241
3.45,-0.244,1.256,0.151
3.46,-0.045,0.594,-0.016
3.47,-0.536,0.739,-0.092
3.48,-0.191,1.63,0.256
3.49,-0.145,0.943,0.115
3.5,-0.194,0.9,-0.049
3.51,-0.377,0.239,-0.168
3.52,-0.223,1.675,0.2
3.53,-0.146,0.833,0.107
3.54,-0.246,0.876,-0.051
3.55,-0.289,0.494,-0.161
3.56,-0.12,1.335,0.21
3.57,-0.187,1.344,0.077
3.58,-0.076,0.411,-0.077
3.59,-0.446,1.042,-0.148
3.6,-0.028,1.077,0.19
3.61,-0.233,1.266,-0.016
3.62,-0.057,0.65,-0.076
3.63,-0.517,0.959,-0.172
3.64,0.034,1.051,0.163
3.65,-0.225,1.102,-0.001
3.66,-0.289,0.68,-0.135
3.67,-0.411,0.483,-0.103
3.68,-0.1,1.379,0.156
3.69,-0.18,0.727,0.058
3.7,-0.314,0.906,-0.101
3.71,-0.392,0.61,-0.035
3.72,-0.084,1.238,0.164
3.73,-0.247,0.978,0.023
3.74,-0.188,0.511,-0.144
3.75,-0.439,1.272,-0.081
3.76,0.002,0.814,0.179
3.77,-0.359,1.31,0.036
3.78,-0.219,0.252,-0.172
3.79,-0.404,1.404,-0.021
3.8,-0.076,0.864,0.189
3.81,-0.271,0.995,0.051
3.82,-0.24,0.731,-0.164
3.83,-0.291,1.171,0.051
3.84,-0.076,1.234,0.166
3.85,-0.059,0.533,0.013
3.86,-0.391,1.125,-0.184
3.87,-0.234,1.188,0.0
3.88,-0.126,1.066,0.162
3.89,-0.074,0.807,0.013
3.9,-0.423,0.651,-0.212
3.91,-0.222,1.747,0.026
3.92,-0.044,0.715,0.138
3.93,-0.165,1.032,0.06
3.94,-0.282,0.416,-0.266
3.95,-0.342,1.863,0.05
3.96,-0.037,0.762,0.133
3.97,-0.1,0.864,0.037
3.98,-0.48,0.736,-0.225
3.99,-0.213,1.43,0.103
4.0,-0.203,1.1,0.127
4.01,0.06,0.46,0.02
4.02,-0.548,1.079,-0.173
4.03,-0.051,1.463,-0.001
4.04,-0.292,1.023,0.236
4.05,0.05,0.625,-0.001
4.06,-0.523,0.767,-0.12
4.07,-0.117,1.997,0.062
4.08,-0.248,0.647,0.153
4.09,-0.008,0.968,0.005
4.1,-0.393,0.374,-0.199
4.11,-0.129,2.0,0.118
4.12,-0.126,0.744,0.089
4.13,-0.03,0.684,-0.041
4.14,-0.441,0.645,-0.228
4.15,-0.047,1.726,0.143
4.16,-0.253,1.17,0.105
4.17,0.071,0.349,0.0
4.18,-0.549,1.065,-0.188
4.19,-0.033,1.48,0.161
4.2,-0.274,1.256,0.084
4.21,0.096,0.526,-0.041
4.22,-0.487,0.654,-0.176
4.23,-0.065,1.543,0.172
4.24,-0.254,0.88,0.102
4.25,-0.14,1.05,-0.08
4.26,-0.464,0.118,-0.162
4.27,-0.127,1.776,0.241
4.28,-0.117,0.953,0.031
4.29,-0.187,0.805,-0.08
4.3,-0.455,0.534,-0.187
4.31,-0.072,1.284,0.218
4.32,-0.277,1.338,0.07
4.33,-0.023,0.423,-0.078
4.34,-0.523,1.016,-0.147
4.35,0.01,1.005,0.15
4.36,-0.316,1.27,0.067
4.37,-0.145,0.593,-0.074
4.38,-0.515,0.69,-0.133
4.39,-0.092,1.235,0.166
4.4,-0.098,0.915,-0.006
4.41,-0.28,0.881,-0.069
4.42,-0.361,0.33,-0.117
4.43,-0.098,1.304,0.134
4.44,-0.156,0.718,0.028
4.45,-0.306,0.916,-0.137
4.46,-0.329,0.736,-0.039
4.47,-0.067,1.246,0.064
4.48,-0.242,0.955,0.026
4.49,-0.256,0.562,-0.202
4.5,-0.34,1.3,-0.041
4.51,0.026,0.815,0.141
4.52,-0.328,1.289,0.022
4.53,-0.131,0.31,-0.192
4.54,-0.397,1.592,0.003
4.55,0.086,0.872,0.107
4.56,-0.275,0.96,-0.022
4.57,-0.29,0.761,-0.188
4.58,-0.327,1.136,0.055
4.59,-0.121,1.138,0.138
4.6,-0.115,0.599,0.008
4.61,-0.448,1.013,-0.229
4.62,-0.196,1.184,0.061
4.63,-0.164,1.066,0.171
4.64,-0.064,0.769,0.021
4.65,-0.463,0.652,-0.199
4.66,-0.206,1.792,0.037
4.67,-0.056,0.701,0.079
4.68,-0.091,1.008,0.026
4.69,-0.372,0.375,-0.235
4.7,-0.263,1.935,0.123
4.71,-0.138,0.681,0.127
4.72,-0.101,0.776,-0.008
4.73,-0.513,0.77,-0.18
4.74,-0.122,1.585,0.121
4.75,-0.212,1.087,0.132
4.76,0.081,0.396,-0.005
4.77,-0.563,1.033,-0.199
4.78,0.062,1.535,0.055
4.79,-0.154,1.194,0.065
4.8,0.051,0.532,-0.042
4.81,-0.353,0.671,-0.248
4.82,-0.07,1.863,0.093
4.83,-0.059,0.798,0.084
4.84,-0.132,0.911,-0.057
4.85,-0.314,0.27,-0.195
4.86,-0.177,2.0,0.12
4.87,0.071,0.784,-0.034
4.88,-0.097,0.718,-0.104
4.89,-0.346,0.605,-0.209
4.9,-0.055,1.503,0.126
4.91,-0.224,1.295,0.076
4.92,0.069,0.431,-0.077
4.93,-0.518,0.998,-0.203
4.94,0.009,1.099,0.17
4.95,-0.289,1.315,0.056
4.96,-0.094,0.586,-0.05
4.97,-0.439,0.639,-0.119
4.98,-0.076,1.347,0.14
4.99,-0.151,0.904,0.017
5.0,-0.217,0.975,-0.101
5.01,-0.444,0.245,-0.095
5.02,-0.144,1.416,0.258
5.03,-0.204,0.923,0.04
5.04,-0.217,0.863,-0.102
5.05,-0.371,0.64,-0.157
5.06,-0.034,1.061,0.192
5.07,-0.272,1.244,-0.002
5.08,-0.098,0.349,-0.124
5.09,-0.522,1.259,-0.003
5.1,0.007,0.892,0.173
5.11,-0.278,1.23,0.068
5.12,-0.298,0.451,-0.127
5.13,-0.267,1.134,0.038
5.14,-0.126,1.091,0.179
5.15,-0.105,0.749,-0.014
5.16,-0.417,0.934,-0.195
5.17,-0.18,0.919,-0.023
5.18,-0.187,1.236,0.155
5.19,-0.094,0.663,-0.016
5.2,-0.436,0.923,-0.208
5.21,-0.124,1.428,-0.034
5.22,-0.106,0.923,0.14
5.23,0.069,0.662,0.023
5.24,-0.526,0.752,-0.194
5.25,-0.155,1.892,0.14
5.26,-0.183,0.635,0.159
5.27,-0.095,0.984,0.065
5.28,-0.475,0.325,-0.171
5.29,-0.2,2.0,0.085
5.3,-0.174,0.719,0.147
5.31,-0.057,0.727,0.041
5.32,-0.469,0.719,-0.197
5.33,-0.088,1.622,0.144
5.34,-0.139,1.185,0.096
5.35,0.094,0.293,-0.024
5.36,-0.473,1.064,-0.189
5.37,0.017,1.495,0.123
5.38,-0.161,1.133,0.063
5.39,-0.077,0.573,-0.045
5.4,-0.459,0.648,-0.159
5.41,-0.076,1.722,0.112
5.42,-0.156,0.81,0.079
5.43,-0.106,0.906,-0.082
5.44,-0.417,0.219,-0.162
5.45,-0.213,1.705,0.17
5.46,-0.104,0.888,0.053
5.47,-0.198,0.811,-0.063
5.48,-0.434,0.589,-0.187
5.49,-0.133,1.23,0.176
5.5,-0.205,1.312,0.075
5.51,-0.111,0.398,-0.109
5.52,-0.432,1.039,-0.143
5.53,-0.057,0.968,0.14
5.54,-0.267,1.327,0.065
5.55,-0.161,0.514,-0.071
5.56,-0.479,0.674,-0.132
5.57,-0.047,1.312,0.184
5.58,-0.056,0.772,-0.044
5.59,-0.423,1.008,-0.145
5.6,-0.368,0.292,-0.082
5.61,-0.238,1.306,0.154
5.62,-0.163,0.85,0.052
5.63,-0.286,0.697,-0.096
5.64,-0.42,0.847,-0.077
5.65,-0.056,1.005,0.167
5.66,-0.272,1.239,0.032
5.67,-0.203,0.236,-0.142
5.68,-0.406,1.382,-0.059
5.69,-0.002,0.831,0.16
5.7,-0.237,1.199,0.017
5.71,-0.247,0.478,-0.199
5.72,-0.21,1.196,-0.054
5.73,-0.083,1.05,0.17
5.74,-0.146,0.665,0.012
5.75,-0.329,1.012,-0.162
5.76,-0.186,1.157,-0.07
5.77,-0.055,1.256,0.12
5.78,-0.12,0.582,0.049
5.79,-0.432,0.991,-0.187
5.8,-0.343,1.469,0.071
5.81,-0.142,0.787,0.182
5.82,-0.161,1.022,0.06
5.83,-0.3,0.459,-0.206
5.84,-0.349,1.942,0.058
5.85,0.003,0.708,0.139
5.86,-0.149,1.001,0.056
5.87,-0.34,0.577,-0.22
5.88,-0.307,1.666,0.099
5.89,-0.14,0.893,0.107
5.9,0.022,0.56,0.04
5.91,-0.506,0.985,-0.176
5.92,-0.099,1.408,0.116
5.93,-0.227,1.185,0.149
5.94,0.055,0.424,0.01
5.95,-0.485,0.942,-0.198
5.96,-0.008,1.709,0.101
5.97,-0.097,0.883,0.13
5.98,0.055,0.769,-0.077
5.99,-0.48,0.458,-0.237
6.0,-0.099,2.0,0.061
6.01,-0.125,0.684,0.109
6.02,-0.094,0.864,-0.023
6.03,-0.435,0.29,-0.14
6.04,-0.199,1.826,0.22
6.05,-0.137,0.953,0.067
6.06,-0.116,0.679,-0.096
6.07,-0.365,0.609,-0.223
6.08,-0.063,1.308,0.14
6.09,-0.23,1.244,0.004
6.1,0.014,0.466,-0.086
6.11,-0.502,0.95,-0.14
6.12,0.037,1.168,0.179
6.13,-0.249,1.312,0.02
6.14,-0.081,0.621,-0.071
6.15,-0.466,0.577,-0.173
6.16,-0.076,1.423,0.137
6.17,-0.126,0.933,0.08
6.18,-0.197,0.957,-0.138
6.19,-0.352,0.27,-0.193
6.2,-0.095,1.438,0.167
6.21,-0.188,0.841,-0.018
6.22,-0.24,0.824,-0.139
6.23,-0.421,0.671,-0.158
6.24,-0.062,1.034,0.201
6.25,-0.225,1.334,-0.0
6.26,-0.128,0.303,-0.166
6.27,-0.495,1.136,-0.092
6.28,0.085,0.885,0.191
6.29,-0.329,1.24,0.025
6.3,-0.13,0.479,-0.143
6.31,-0.433,1.035,-0.058
6.32,-0.054,1.175,0.159
6.33,-0.236,0.766,0.047
6.34,-0.295,0.977,-0.149
6.35,-0.325,0.729,-0.032
6.36,-0.157,1.316,0.155
6.37,-0.182,0.789,0.036
6.38,-0.376,0.829,-0.127
6.39,-0.224,1.231,-0.045
6.4,-0.079,0.907,0.185
6.41,-0.222,1.153,0.013
6.42,-0.234,0.448,-0.21
6.43,-0.367,1.786,-0.041
6.44,0.013,0.68,0.178
6.45,-0.2,1.079,0.087
6.46,-0.429,0.558,-0.199
6.47,-0.27,1.556,0.089
6.48,-0.144,1.045,0.185
6.49,-0.028,0.571,0.095
6.5,-0.509,1.044,-0.178
6.51,-0.188,1.311,0.077
6.52,-0.26,1.122,0.229
6.53,0.024,0.547,0.084
6.54,-0.484,0.942,-0.177
6.55,-0.175,1.621,0.072
6.56,-0.111,0.847,0.137
6.57,-0.082,0.871,0.037
6.58,-0.435,0.449,-0.168
6.59,-0.219,2.0,0.094
6.6,-0.102,0.583,0.161
6.61,-0.054,0.954,0.022
6.62,-0.402,0.481,-0.234
6.63,-0.096,1.887,0.096
6.64,-0.151,0.959,0.107
6.65,0.005,0.421,0.003
6.66,-0.464,1.013,-0.215
6.67,0.053,1.542,0.087
6.68,-0.181,1.298,0.087
6.69,0.056,0.357,-0.017
6.7,-0.448,0.89,-0.176
6.71,-0.006,1.768,0.066
6.72,-0.123,0.952,0.096
6.73,-0.06,0.788,-0.053
6.74,-0.386,0.34,-0.183
6.75,-0.184,2.0,0.149
6.76,-0.072,0.806,0.095
6.77,-0.172,0.828,-0.042
6.78,-0.326,0.404,-0.199
6.79,-0.211,1.669,0.111
6.8,-0.131,1.06,0.03
6.81,-0.026,0.61,-0.081
6.82,-0.527,0.838,-0.132
6.83,-0.066,1.133,0.169
6.84,-0.288,1.308,0.05
6.85,-0.014,0.437,-0.099
6.86,-0.576,1.032,-0.108
6.87,-0.008,0.945,0.156
6.88,-0.343,1.291,0.007
6.89,-0.129,0.519,-0.019
6.9,-0.5,0.746,-0.038
6.91,-0.103,1.209,0.187
6.92,-0.26,0.744,0.064
6.93,-0.372,0.977,-0.069
6.94,-0.399,0.383,-0.007
6.95,-0.148,1.344,0.16
6.96,-0.152,0.784,-0.003
6.97,-0.288,0.753,-0.182
6.98,-0.249,0.908,-0.13
6.99,0.003,0.995,0.111
7.0,-0.224,1.175,-0.023
7.01,-0.203,0.288,-0.194
7.02,-0.245,1.615,-0.086
7.03,-0.021,0.806,0.193
7.04,-0.299,1.09,0.068
7.05,-0.292,0.612,-0.146
7.06,-0.408,1.396,-0.012
7.07,-0.054,1.063,0.164
7.08,-0.184,0.63,0.013
7.09,-0.476,1.011,-0.171
7.1,-0.202,1.082,0.04
7.11,-0.147,1.158,0.156
7.12,-0.086,0.611,0.021
7.13,-0.409,0.992,-0.203
7.14,-0.207,1.515,0.014
7.15,-0.11,0.858,0.148
7.16,-0.083,0.953,0.037
7.17,-0.424,0.428,-0.209
7.18,-0.265,1.905,0.095
7.19,-0.126,0.663,0.137
7.2,-0.084,0.948,0.045
7.21,-0.419,0.492,-0.2
7.22,-0.228,1.65,0.116
7.23,-0.148,0.983,0.106
7.24,0.065,0.479,-0.014
7.25,-0.469,1.104,-0.194
7.26,-0.146,1.408,0.116
7.27,-0.12,1.153,0.182
7.28,-0.032,0.412,0.052
7.29,-0.464,0.913,-0.144
7.3,-0.106,1.742,0.013
7.31,-0.136,0.964,0.118
7.32,-0.045,0.809,-0.054
7.33,-0.462,0.411,-0.149
7.34,-0.126,2.0,0.097
7.35,-0.071,0.684,0.079
7.36,-0.112,0.878,-0.059
7.37,-0.446,0.358,-0.195
7.38,-0.108,1.698,0.154
7.39,-0.161,1.069,0.069
7.4,-0.012,0.518,-0.083
7.41,-0.454,0.896,-0.17
7.42,-0.085,1.312,0.181
7.43,-0.292,1.403,0.103
7.44,-0.0,0.478,-0.037
7.45,-0.513,0.875,-0.168
7.46,-0.031,1.291,0.18
7.47,-0.187,1.136,0.068
7.48,-0.118,0.887,-0.098
7.49,-0.4,0.308,-0.175
7.5,-0.222,1.581,0.211
7.51,-0.112,0.853,0.076
7.52,-0.233,0.99,-0.078
7.53,-0.323,0.384,-0.127
7.54,-0.192,1.237,0.159
7.55,-0.2,1.081,-0.047
7.56,-0.123,0.566,-0.099
7.57,-0.419,1.019,-0.12
7.58,-0.041,0.872,0.192
7.59,-0.273,1.265,-0.009
7.6,-0.135,0.376,-0.161
7.61,-0.388,1.085,-0.08
7.62,-0.057,0.969,0.128
7.63,-0.323,0.958,0.071
7.64,-0.272,0.497,-0.17
7.65,-0.331,1.175,0.023
7.66,-0.065,1.118,0.133
7.67,-0.18,0.7,0.032
7.68,-0.41,0.987,-0.228
7.69,-0.167,1.05,0.055
7.7,-0.193,1.235,0.209
7.71,-0.158,0.661,0.058
7.72,-0.507,0.836,-0.213
7.73,-0.136,1.38,-0.041
7.74,-0.127,0.83,0.122
7.75,-0.111,0.999,0.015
7.76,-0.388,0.419,-0.269
7.77,-0.254,1.929,0.04
7.78,0.082,0.756,0.107
7.79,-0.225,0.904,0.035
7.8,-0.354,0.572,-0.187
7.81,-0.289,1.695,0.111
7.82,-0.047,0.947,0.17
7.83,-0.006,0.497,-0.023
7.84,-0.486,1.035,-0.167
7.85,-0.087,1.469,0.104
7.86,-0.123,1.212,0.121
7.87,0.051,0.377,0.037
7.88,-0.514,0.972,-0.19
7.89,-0.069,1.744,0.081
7.9,-0.073,0.919,0.08
7.91,-0.067,0.844,-0.038
7.92,-0.355,0.309,-0.148
7.93,-0.246,1.979,0.134
7.94,-0.082,0.75,0.114
7.95,-0.159,0.932,-0.055
7.96,-0.42,0.397,-0.177
7.97,-0.133,1.641,0.184
7.98,-0.241,1.166,0.052
7.99,0.037,0.534,-0.047
8.0,-0.609,0.912,-0.121
8.01,0.052,1.195,0.159
8.02,-0.298,1.398,0.009
8.03,-0.012,0.472,-0.056
8.04,-0.53,0.805,-0.112
8.05,-0.049,1.229,0.134
8.06,-0.25,1.028,0.038
8.07,-0.155,0.903,-0.108
8.08,-0.367,0.343,-0.136
8.09,-0.094,1.427,0.073
8.1,-0.186,0.764,0.047
8.11,-0.271,0.998,-0.112
8.12,-0.447,0.529,-0.109
8.13,-0.077,1.165,0.212
8.14,-0.252,1.055,-0.003
8.15,-0.224,0.455,-0.191
8.16,-0.461,1.156,-0.034
8.17,-0.057,0.899,0.166
8.18,-0.331,1.261,0.113
8.19,-0.219,0.317,-0.168
8.2,-0.355,1.261,-0.017
8.21,-0.102,0.959,0.138
8.22,-0.167,0.905,0.036
8.23,-0.404,0.785,-0.174
8.24,-0.207,0.936,-0.022
8.25,-0.202,1.302,0.134
8.26,-0.023,0.607,0.067
8.27,-0.491,0.973,-0.146
8.28,-0.127,1.099,-0.027
8.29,-0.223,1.101,0.135
8.3,-0.127,0.916,0.014
8.31,-0.333,0.555,-0.198
8.32,-0.221,1.73,-0.001
8.33,-0.045,0.696,0.133
8.34,-0.17,1.126,0.055
8.35,-0.359,0.468,-0.224
8.36,-0.287,1.724,-0.001
8.37,-0.112,0.811,0.159
8.38,-0.115,0.822,0.075
8.39,-0.438,0.778,-0.186
8.4,-0.236,1.306,0.048
8.41,-0.207,1.162,0.17
8.42,0.02,0.475,0.045
8.43,-0.516,1.039,-0.176
8.44,-0.116,1.443,0.117
8.45,-0.189,1.138,0.165
8.46,0.004,0.412,0.043
8.47,-0.469,0.885,-0.193
8.48,-0.016,1.859,0.062
8.49,-0.091,0.841,0.075
8.5,-0.041,0.801,-0.031
8.51,-0.37,0.401,-0.242
8.52,-0.186,2.0,0.104
8.53,-0.089,0.724,0.083
8.54,-0.13,0.832,-0.0
8.55,-0.331,0.431,-0.21
8.56,-0.136,1.798,0.108
8.57,-0.129,1.114,0.088
8.58,-0.078,0.425,-0.036
8.59,-0.463,1.005,-0.181
8.6,-0.067,1.286,0.197
8.61,-0.265,1.378,0.115
8.62,-0.033,0.417,-0.051
8.63,-0.47,0.849,-0.194
8.64,-0.117,1.447,0.193
8.65,-0.243,1.002,0.164
8.66,-0.179,0.879,-0.073
8.67,-0.397,0.238,-0.198
8.68,-0.19,1.656,0.204
8.69,-0.175,0.787,0.068
8.7,-0.259,0.974,-0.071
8.71,-0.348,0.313,-0.145
8.72,-0.175,1.296,0.21
8.73,-0.259,1.151,0.058
8.74,-0.216,0.523,-0.07
8.75,-0.512,0.914,-0.056
8.76,-0.067,0.961,0.265
8.77,-0.321,1.37,0.089
8.78,-0.095,0.433,-0.119
8.79,-0.49,0.896,-0.097
8.8,-0.038,1.072,0.179
8.81,-0.201,0.963,0.016
8.82,-0.235,0.837,-0.15
8.83,-0.394,0.505,-0.14
8.84,-0.082,1.371,0.156
8.85,-0.158,0.741,0.008
8.86,-0.249,0.849,-0.154
8.87,-0.388,0.661,-0.066
8.88,-0.103,1.187,0.178
8.89,-0.205,1.035,0.016
8.9,-0.25,0.412,-0.14
8.91,-0.309,1.322,-0.073
8.92,0.004,0.829,0.127
8.93,-0.217,1.292,-0.006
8.94,-0.208,0.311,-0.163
8.95,-0.321,1.396,-0.07
8.96,-0.017,0.947,0.12
8.97,-0.189,0.941,-0.051
8.98,-0.341,0.698,-0.173
8.99,-0.229,1.01,-0.046
9.0,-0.136,1.237,0.157
9.01,-0.11,0.625,0.036
9.02,-0.417,1.034,-0.206
9.03,-0.171,1.15,-0.013
9.04,-0.181,1.05,0.134
9.05,-0.113,0.909,0.045
9.06,-0.494,0.528,-0.202
9.07,-0.254,1.612,0.071
9.08,-0.098,0.741,0.12
9.09,-0.201,1.105,0.022
9.1,-0.355,0.386,-0.192
9.11,-0.292,1.896,0.097
9.12,-0.015,0.814,0.165
9.13,-0.071,0.733,0.046
9.14,-0.451,0.8,-0.187
9.15,-0.175,1.48,0.159
9.16,-0.292,1.191,0.23
9.17,-0.044,0.347,0.03
9.18,-0.518,1.021,-0.187
9.19,-0.036,1.609,0.109
9.2,-0.18,1.113,0.14
9.21,-0.023,0.542,0.0
9.22,-0.536,0.678,-0.165
9.23,-0.108,2.0,0.11
9.24,-0.2,0.864,0.142
9.25,-0.078,0.856,-0.112
9.26,-0.429,0.334,-0.142
9.27,-0.183,1.902,0.123
9.28,-0.056,0.882,0.039
9.29,-0.116,0.887,-0.112
9.3,-0.338,0.397,-0.202
9.31,-0.157,1.58,0.206
9.32,-0.233,1.196,0.106
9.33,-0.05,0.526,-0.056
9.34,-0.519,0.93,-0.167
9.35,-0.019,1.146,0.15
9.36,-0.294,1.362,0.048
9.37,-0.049,0.512,-0.073
9.38,-0.406,0.808,-0.156
9.39,-0.112,1.187,0.148
9.4,-0.144,1.052,0.056
9.41,-0.225,0.915,-0.103
9.42,-0.34,0.349,-0.095
9.43,-0.183,1.379,0.132
9.44,-0.073,0.768,-0.01
9.45,-0.3,0.896,-0.135
9.46,-0.378,0.509,-0.087
9.47,-0.138,1.143,0.213
9.48,-0.234,1.041,-0.008
9.49,-0.126,0.487,-0.156
9.5,-0.435,1.212,-0.015
9.51,0.026,0.819,0.154
9.52,-0.309,1.272,0.023
9.53,-0.197,0.322,-0.162
9.54,-0.357,1.243,-0.041
9.55,-0.06,0.995,0.125
9.56,-0.262,0.881,0.044
9.57,-0.342,0.781,-0.176
9.58,-0.305,0.814,-0.041
9.59,-0.098,1.314,0.158
9.6,-0.141,0.667,-0.005
9.61,-0.336,0.95,-0.177
9.62,-0.236,1.164,-0.031
9.63,-0.04,1.122,0.141
9.64,-0.191,0.925,0.003
9.65,-0.294,0.566,-0.218
9.66,-0.3,1.796,0.015
9.67,-0.018,0.705,0.183
9.68,-0.198,1.079,0.021
9.69,-0.323,0.388,-0.24
9.7,-0.321,1.679,0.041
9.71,-0.081,0.84,0.126
9.72,-0.111,0.754,0.017
9.73,-0.479,0.858,-0.211
9.74,-0.211,1.395,0.03
9.75,-0.145,1.148,0.091
9.76,0.071,0.489,0.011
9.77,-0.473,1.029,-0.219
9.78,-0.058,1.569,0.113
9.79,-0.117,1.05,0.096
9.8,0.013,0.632,-0.003
9.81,-0.397,0.608,-0.164
9.82,-0.151,1.988,0.136
9.83,-0.049,0.708,0.115
9.84,-0.179,0.865,0.004
9.85,-0.331,0.369,-0.209
9.86,-0.145,2.0,0.046
9.87,-0.07,0.835,0.062
9.88,-0.115,0.62,-0.035
9.89,-0.382,0.778,-0.207
9.9,-0.082,1.62,0.113
9.91,-0.236,1.361,0.097
9.92,0.018,0.326,-0.07
9.93,-0.524,1.058,-0.167
9.94,-0.037,1.298,0.214
9.95,-0.211,1.262,0.085
9.96,-0.024,0.655,-0.093
9.97,-0.457,0.431,-0.151
9.98,-0.083,1.573,0.207
9.99,-0.138,0.875,0.094
10.0,-0.289,1.013,-0.087
10.01,-0.353,0.175,-0.125
10.02,-0.232,1.555,0.14
10.03,-0.168,0.95,-0.007
10.04,-0.257,0.953,-0.109
10.05,-0.378,0.609,-0.075
10.06,-0.09,1.108,0.209
10.07,-0.233,1.065,-0.001
10.08,-0.266,0.479,-0.158
10.09,-0.386,1.254,-0.062
10.1,-0.069,0.85,0.21
10.11,-0.347,1.259,0.043
10.12,-0.271,0.361,-0.163
10.13,-0.257,1.262,-0.053
10.14,0.02,1.01,0.116
10.15,-0.181,0.887,0.017
10.16,-0.343,0.841,-0.178
10.17,-0.165,1.017,-0.014
10.18,-0.112,1.263,0.177
10.19,-0.063,0.635,0.054
10.2,-0.493,1.019,-0.23
10.21,-0.205,1.101,-0.007
10.22,-0.229,0.986,0.065
10.23,-0.187,0.963,0.031
10.24,-0.359,0.493,-0.186
10.25,-0.321,1.728,0.033
10.26,0.01,0.752,0.164
10.27,-0.175,1.073,0.016
10.28,-0.337,0.424,-0.214
10.29,-0.265,1.839,0.05
10.3,-0.052,0.859,0.17
10.31,-0.019,0.722,0.025
10.32,-0.462,0.914,-0.201
10.33,-0.13,1.462,0.094
10.34,-0.254,1.127,0.136
10.35,0.08,0.411,0.007
10.36,-0.519,1.056,-0.18
10.37,-0.071,1.55,0.095
10.38,-0.1,1.0,0.128
10.39,0.035,0.692,-0.006
10.4,-0.444,0.538,-0.167
10.41,-0.083,2.0,0.086
10.42,-0.092,0.784,0.047
10.43,-0.111,0.854,-0.016
10.44,-0.329,0.406,-0.224
10.45,-0.128,2.0,0.099
10.46,-0.015,0.854,0.082
10.47,-0.108,0.517,-0.054
10.48,-0.367,0.76,-0.219
10.49,-0.139,1.461,0.123
10.5,-0.214,1.307,0.107
10.51,0.031,0.4,-0.043
10.52,-0.553,1.007,-0.193
10.53,-0.022,1.354,0.225
10.54,-0.247,1.217,0.085
10.55,-0.085,0.623,-0.083
10.56,-0.423,0.479,-0.175
10.57,-0.156,1.594,0.198
10.58,-0.151,0.801,0.097
10.59,-0.177,1.04,-0.057
10.6,-0.47,0.213,-0.127
10.61,-0.182,1.517,0.177
10.62,-0.183,0.942,0.06
10.63,-0.154,0.727,-0.071
10.64,-0.411,0.701,-0.206
10.65,-0.015,1.122,0.101
10.66,-0.211,1.31,0.017
10.67,-0.072,0.388,-0.124
10.68,-0.461,0.985,-0.161
10.69,0.006,1.063,0.08
10.7,-0.205,1.186,-0.014
10.71,-0.087,0.674,-0.162
10.72,-0.464,0.635,-0.116
10.73,-0.096,1.324,0.217
10.74,-0.153,0.75,0.052
10.75,-0.315,0.924,-0.108
10.76,-0.359,0.462,-0.067
10.77,-0.183,1.347,0.22
10.78,-0.25,0.77,0.023
10.79,-0.236,0.721,-0.103
10.8,-0.314,0.912,-0.138
10.81,-0.032,1.003,0.209
10.82,-0.208,1.246,0.014
10.83,-0.211,0.316,-0.163
10.84,-0.341,1.269,-0.051
10.85,-0.006,0.776,0.083
10.86,-0.268,1.238,0.036
10.87,-0.245,0.4,-0.191
10.88,-0.317,1.623,-0.054
10.89,0.007,0.922,0.112
10.9,-0.071,0.775,0.012
10.91,-0.396,0.939,-0.223
10.92,-0.211,1.197,-0.038
10.93,-0.162,1.15,0.151
10.94,0.034,0.634,0.084
10.95,-0.533,1.084,-0.198
10.96,-0.164,1.316,0.065
10.97,-0.207,0.928,0.117
10.98,-0.035,0.893,0.054
10.99,-0.374,0.574,-0.178
11.0,-0.271,1.896,0.06
11.01,-0.028,0.721,0.144
11.02,-0.189,1.009,0.046
11.03,-0.385,0.376,-0.229
11.04,-0.237,1.865,0.094
11.05,-0.167,0.778,0.113
11.06,-0.019,0.761,0.039
11.07,-0.502,0.846,-0.228
11.08,-0.014,1.446,0.096
11.09,-0.136,1.23,0.048
11.1,0.092,0.357,-0.014
11.11,-0.497,1.0,-0.209
11.12,0.011,1.602,0.051
11.13,-0.13,1.154,0.126
11.14,0.065,0.571,-0.028
11.15,-0.189,1.22,0.164
11.16,-0.047,0.631,0.066
11.17,-0.467,0.955,-0.181
11.18,-0.191,1.46,0.043
11.19,-0.117,1.0,0.168
11.2,-0.087,0.845,0.077
11.21,-0.332,0.556,-0.186
11.22,-0.396,1.878,0.116
11.23,-0.03,0.615,0.136
11.24,-0.154,1.067,0.051
11.25,-0.408,0.443,-0.183
11.26,-0.299,1.78,0.075
11.27,-0.15,0.85,0.153
11.28,-0.007,0.646,0.019
11.29,-0.401,0.893,-0.261
11.3,-0.072,1.417,0.01
11.31,-0.137,1.134,0.152
11.32,0.109,0.382,-0.015
11.33,-0.508,1.0,-0.198
11.34,0.029,1.753,0.07
11.35,-0.246,0.94,0.127
11.36,0.009,0.46,-0.006
11.37,-0.55,0.82,-0.179
11.38,-0.166,1.8,0.149
11.39,-0.167,0.829,0.128
11.4,-0.111,0.824,-0.012
11.41,-0.478,0.184,-0.124
11.42,-0.223,1.836,0.184
11.43,-0.223,0.791,0.133
11.44,-0.168,0.843,-0.077
11.45,-0.49,0.431,-0.184
11.46,-0.008,1.593,0.175
11.47,-0.256,1.303,0.067
11.48,-0.034,0.401,-0.095
11.49,-0.545,1.006,-0.129
11.5,0.012,1.162,0.251
11.51,-0.273,1.341,0.07
11.52,-0.084,0.496,-0.062
11.53,-0.511,0.666,-0.133
11.54,-0.074,1.4,0.193
11.55,-0.24,0.936,0.124
11.56,-0.2,0.989,-0.106
11.57,-0.392,0.215,-0.121
11.58,-0.128,1.527,0.182
11.59,-0.134,0.871,0.084
11.6,-0.226,0.917,-0.134
11.61,-0.391,0.467,-0.188
11.62,-0.044,1.177,0.168
11.63,-0.24,1.237,0.067
11.64,-0.085,0.4,-0.169
11.65,-0.528,1.047,-0.16
11.66,-0.017,0.904,0.162
11.67,-0.254,1.264,0.047
11.68,-0.237,0.44,-0.088
11.69,-0.476,0.845,-0.072
11.7,-0.143,1.074,0.177
11.71,-0.163,0.939,0.048
11.72,-0.386,0.818,-0.067
11.73,-0.417,0.446,-0.033
11.74,-0.163,1.386,0.228
11.75,-0.096,0.693,0.075
11.76,-0.39,0.878,-0.131
11.77,-0.421,0.792,-0.038
11.78,-0.106,1.153,0.135
11.79,-0.238,1.144,0.058
11.8,-0.217,0.271,-0.147
11.81,-0.438,1.418,-0.02
11.82,0.023,0.879,0.162
11.83,-0.32,1.272,0.057
11.84,-0.236,0.403,-0.167
11.85,-0.362,1.196,-0.043
11.86,-0.077,1.016,0.139
11.87,-0.112,0.902,-0.002
11.88,-0.369,0.82,-0.205
11.89,-0.222,0.855,-0.069
11.9,-0.116,1.271,0.139
11.91,-0.076,0.656,0.038
11.92,-0.392,1.005,-0.209
11.93,-0.215,1.235,-0.061
11.94,-0.123,0.971,0.125
11.95,-0.082,0.998,0.046
11.96,-0.335,0.54,-0.242
11.97,-0.335,1.729,0.012
11.98,-0.02,0.71,0.113
11.99,-0.226,1.083,0.043
12.0,-0.274,0.42,-0.196
12.01,-0.348,1.756,0.01
12.02,-0.05,0.791,0.083
12.03,-0.002,0.783,0.0
12.04,-0.43,0.892,-0.26
12.05,-0.18,1.264,0.006
12.06,-0.189,1.101,0.09
12.07,0.02,0.544,0.05
12.08,-0.524,0.972,-0.203
12.09,-0.143,1.494,0.041
12.1,-0.203,0.929,0.137
12.11,-0.021,0.785,-0.002
12.12,-0.451,0.487,-0.152
12.13,-0.196,2.0,0.146
12.14,-0.114,0.712,0.186
12.15,-0.159,0.872,0.054
12.16,-0.313,0.349,-0.211
12.17,-0.113,2.0,0.088
12.18,-0.072,0.669,0.053
12.19,-0.087,0.782,-0.044
12.2,-0.391,0.533,-0.208
12.21,-0.09,1.735,0.137
12.22,-0.212,1.183,0.049
12.23,0.089,0.413,-0.075
12.24,-0.442,1.004,-0.208
12.25,0.013,1.277,0.196
12.26,-0.247,1.374,0.029
12.27,-0.078,0.488,-0.072
12.28,-0.394,0.735,-0.172
12.29,-0.043,1.544,0.17
12.3,-0.16,0.909,0.086
12.31,-0.073,0.967,-0.109
12.32,-0.396,0.239,-0.154
12.33,-0.083,1.678,0.195
12.34,-0.071,0.886,0.03
12.35,-0.113,0.87,-0.152
12.36,-0.395,0.392,-0.228
12.37,-0.078,1.266,0.176
12.38,-0.211,1.152,0.039
12.39,-0.143,0.446,-0.133
12.4,-0.372,0.985,-0.152
12.41,-0.061,0.919,0.164
12.42,-0.231,1.371,-0.017
12.43,-0.101,0.374,-0.103
12.44,-0.477,0.86,-0.13
12.45,-0.052,1.123,0.184
12.46,-0.229,0.947,0.069
12.47,-0.343,0.845,-0.102
12.48,-0.411,0.476,-0.021
12.49,-0.188,1.372,0.192
12.5,-0.125,0.747,0.045
12.51,-0.357,0.796,-0.12
12.52,-0.247,0.867,-0.092
12.53,-0.111,1.108,0.127
12.54,-0.14,1.084,0.01
12.55,-0.316,0.375,-0.187
12.56,-0.309,1.481,-0.03
12.57,-0.019,0.805,0.175
12.58,-0.323,1.224,0.076
12.59,-0.276,0.45,-0.187
12.6,-0.303,1.297,-0.039
12.61,-0.081,0.94,0.146
12.62,-0.22,0.846,0.039
12.63,-0.352,0.876,-0.182
12.64,-0.269,1.007,-0.001
12.65,-0.089,1.238,0.114
12.66,-0.005,0.639,0.063
12.67,-0.53,0.981,-0.194
12.68,-0.204,1.354,0.051
12.69,-0.102,0.978,0.155
12.7,-0.151,0.888,0.073
12.71,-0.378,0.64,-0.127
12.72,-0.344,1.846,0.058
12.73,0.003,0.626,0.145
12.74,-0.161,1.125,0.044
12.75,-0.346,0.427,-0.154
12.76,-0.326,1.87,0.098
12.77,-0.098,0.873,0.146
12.78,-0.005,0.596,0.001
12.79,-0.332,0.971,-0.229
12.8,-0.068,1.483,0.062
12.81,-0.203,1.143,0.135
12.82,0.083,0.417,0.0
12.83,-0.549,1.004,-0.223
12.84,-0.02,1.587,0.083
12.85,-0.145,1.01,0.087
12.86,-0.041,0.642,-0.025
12.87,-0.434,0.524,-0.175
12.88,-0.196,1.992,0.085
12.89,-0.087,0.689,0.1
12.9,-0.146,0.853,-0.0
12.91,-0.403,0.338,-0.203
12.92,-0.126,2.0,0.093
12.93,-0.219,0.853,0.097
12.94,-0.081,0.546,-0.029
12.95,-0.497,0.889,-0.137
12.96,-0.112,1.597,0.215
12.97,-0.238,1.219,0.13
12.98,-0.041,0.422,-0.083
12.99,-0.552,0.952,-0.123
13.0,0.049,1.15,0.213
13.01,-0.329,1.421,0.119
13.02,-0.074,0.461,-0.082
13.03,-0.509,0.686,-0.163
13.04,-0.036,1.339,0.207
13.05,-0.203,0.973,0.086
13.06,-0.185,0.952,-0.15
13.07,-0.391,0.22,-0.113
13.08,-0.208,1.498,0.188
13.09,-0.166,0.863,0.057
13.1,-0.208,0.859,-0.121
13.11,-0.383,0.556,-0.192
13.12,-0.091,1.131,0.192
13.13,-0.299,1.132,0.009
13.14,-0.16,0.477,-0.11
13.15,-0.546,1.052,-0.074
13.16,-0.033,0.887,0.22
13.17,-0.257,1.303,0.03
13.18,-0.191,0.346,-0.132
13.19,-0.429,0.969,-0.045
13.2,0.01,1.101,0.149
13.21,-0.169,0.911,0.048
13.22,-0.292,0.726,-0.128
13.23,-0.288,0.86,-0.042
13.24,-0.093,1.399,0.183
13.25,-0.181,0.662,0.084
13.26,-0.391,0.927,-0.164
13.27,-0.246,0.95,-0.083
13.28,-0.15,1.066,0.095
13.29,-0.147,1.089,0.004
13.3,-0.263,0.46,-0.249
13.31,-0.335,1.456,-0.036
13.32,-0.004,0.731,0.058
13.33,-0.29,1.251,0.019
13.34,-0.21,0.403,-0.231
13.35,-0.318,1.581,-0.017
13.36,-0.062,0.94,0.168
13.37,-0.23,0.748,0.082
13.38,-0.487,0.962,-0.167
13.39,-0.234,1.17,0.022
13.4,-0.239,1.103,0.208
13.41,0.02,0.616,0.048
13.42,-0.55,1.013,-0.243
13.43,-0.108,1.442,-0.016
13.44,-0.18,0.927,0.153
13.45,-0.026,0.839,0.046
13.46,-0.383,0.544,-0.192
13.47,-0.213,1.939,0.089
13.48,-0.008,0.701,0.077
13.49,-0.164,0.94,0.021
13.5,-0.303,0.421,-0.232
13.51,-0.243,1.92,0.099
13.52,-0.055,0.795,0.077
13.53,-0.002,0.651,-0.02
13.54,-0.437,0.898,-0.221
13.55,-0.078,1.532,0.12
13.56,-0.173,1.187,0.087
13.57,0.122,0.329,-0.033
13.58,-0.461,1.065,-0.237
13.59,-0.007,1.68,0.064
13.6,-0.222,1.01,0.103
13.61,-0.041,0.66,0.038
13.62,-0.46,0.515,-0.164
13.63,-0.207,1.957,0.15
13.64,-0.107,0.747,0.075
13.65,-0.165,0.912,-0.054
13.66,-0.326,0.32,-0.152
13.67,-0.195,1.907,0.167
13.68,-0.184,0.957,0.132
13.69,-0.123,0.571,-0.044
13.7,-0.442,0.764,-0.176
13.71,-0.113,1.407,0.182
13.72,-0.311,1.364,0.138
13.73,-0.045,0.35,-0.054
13.74,-0.518,0.965,-0.095
13.75,-0.071,1.273,0.242
13.76,-0.2,1.376,0.02
13.77,-0.102,0.466,-0.105
13.78,-0.434,0.823,-0.162
13.79,-0.056,1.235,0.145
13.8,-0.136,0.982,0.031
13.81,-0.212,0.953,-0.134
13.82,-0.417,0.351,-0.138
13.83,-0.156,1.453,0.196
13.84,-0.191,0.757,0.067
13.85,-0.348,0.878,-0.134
13.86,-0.43,0.608,-0.127
13.87,-0.138,1.112,0.264
13.88,-0.272,1.145,0.052
13.89,-0.219,0.35,-0.127
13.9,-0.484,1.224,-0.046
13.91,0.046,0.842,0.167
13.92,-0.289,1.295,0.037
13.93,-0.148,0.32,-0.179
13.94,-0.396,1.169,-0.042
13.95,-0.047,1.016,0.109
13.96,-0.181,0.889,0.039
13.97,-0.318,0.831,-0.157
13.98,-0.254,0.802,-0.067
13.99,-0.193,1.273,0.145
14.0,-0.077,0.74,0.062
14.01,-0.433,0.882,-0.164
14.02,-0.211,1.097,-0.03
14.03,-0.114,1.036,0.09
14.04,-0.192,0.992,0.02
14.05,-0.249,0.535,-0.197
14.06,-0.392,1.663,0.01
14.07,-0.017,0.618,0.129
14.08,-0.254,1.219,0.051
14.09,-0.367,0.362,-0.205
14.1,-0.337,1.624,0.048
14.11,-0.116,0.844,0.158
14.12,-0.063,0.753,0.017
14.13,-0.45,0.927,-0.155
14.14,-0.22,1.335,0.107
14.15,-0.217,1.226,0.195
14.16,0.088,0.447,0.069
14.17,-0.479,1.029,-0.159
14.18,-0.18,1.537,0.154
14.19,-0.14,0.953,0.133
14.2,-0.06,0.742,0.007
14.21,-0.382,0.591,-0.173
14.22,-0.19,2.0,0.12
14.23,-0.071,0.591,0.112
14.24,-0.15,0.887,-0.023
14.25,-0.278,0.402,-0.194
14.26,-0.131,2.0,0.039
14.27,-0.073,0.794,0.041
14.28,0.016,0.563,-0.061
14.29,-0.41,0.805,-0.217
14.3,0.091,1.737,0.11
14.31,-0.25,1.225,0.067
14.32,0.031,0.285,-0.043
14.33,-0.441,1.03,-0.201
14.34,-0.001,1.546,0.114
14.35,-0.212,1.106,0.074
14.36,-0.01,0.646,-0.022
14.37,-0.478,0.447,-0.129
14.38,-0.212,1.686,0.245
14.39,-0.137,0.777,0.107
14.4,-0.242,0.999,-0.086
14.41,-0.359,0.187,-0.179
14.42,-0.178,1.65,0.18
14.43,-0.17,1.051,0.057
14.44,-0.154,0.673,-0.105
14.45,-0.402,0.721,-0.22
14.46,0.014,1.11,0.102
14.47,-0.32,1.347,0.051
14.48,0.003,0.46,-0.104
14.49,-0.507,0.944,-0.146
14.5,0.041,1.03,0.142
14.51,-0.266,1.211,0.064
14.52,-0.226,0.642,-0.113
14.53,-0.391,0.517,-0.122
14.54,-0.158,1.337,0.166
14.55,-0.126,0.792,0.039
14.56,-0.37,0.944,-0.09
14.57,-0.323,0.672,0.037
14.58,-0.233,1.264,0.19
14.59,-0.115,0.728,0.1
14.6,-0.406,0.867,-0.134
14.61,-0.238,1.003,-0.043
14.62,-0.116,1.08,0.124
14.63,-0.159,1.094,0.023
14.64,-0.292,0.501,-0.197
14.65,-0.278,1.538,-0.052
14.66,-0.017,0.767,0.142
14.67,-0.239,1.21,0.076
14.68,-0.249,0.425,-0.196
14.69,-0.291,1.566,-0.046
14.7,-0.063,0.948,0.129
14.71,-0.064,0.75,0.051
14.72,-0.427,0.95,-0.173
14.73,-0.177,1.255,0.012
14.74,-0.178,1.208,0.172
14.75,0.01,0.595,0.056
14.76,-0.557,1.032,-0.17
14.77,-0.143,1.449,0.049
14.78,-0.189,0.945,0.165
14.79,-0.065,0.855,0.013
14.8,-0.398,0.593,-0.211
14.81,-0.26,1.952,0.071
14.82,0.0,0.679,0.122
14.83,-0.209,0.976,0.059
14.84,-0.354,0.475,-0.182
14.85,-0.265,1.949,0.082
14.86,-0.057,0.931,0.142
14.87,-0.078,0.517,-0.025
14.88,-0.413,0.973,-0.221
14.89,-0.106,1.589,0.096
14.9,-0.244,1.15,0.182
14.91,0.023,0.338,-0.023
14.92,-0.474,1.081,-0.191
14.93,-0.06,1.668,0.043
14.94,-0.171,1.063,0.105
14.95,-0.007,0.633,0.017
14.96,-0.411,0.557,-0.17
14.97,-0.119,2.0,0.06
14.98,-0.07,0.669,0.087
14.99,-0.185,0.889,-0.016
15.0,-0.367,0.332,-0.181
15.01,-0.154,2.0,0.113
15.02,-0.131,0.899,0.076
15.03,-0.1,0.512,-0.031
15.04,-0.423,0.858,-0.246
15.05,-0.079,1.403,0.169
15.06,-0.123,1.325,0.081
15.07,-0.071,0.314,-0.045
15.08,-0.411,0.954,-0.205
15.09,-0.109,1.356,0.174
15.1,-0.201,1.164,0.082
15.11,-0.14,0.711,-0.057
15.12,-0.419,0.418,-0.149
15.13,-0.19,1.766,0.188
15.14,-0.078,0.849,0.097
15.15,-0.195,0.957,-0.061
15.16,-0.378,0.266,-0.181
15.17,-0.197,1.68,0.166
15.18,-0.178,1.014,0.117
15.19,-0.156,0.612,-0.094
15.2,-0.449,0.729,-0.212
15.21,0.004,1.171,0.101
15.22,-0.267,1.349,0.05
15.23,-0.001,0.438,-0.067
15.24,-0.623,0.956,-0.159
15.25,0.025,1.128,0.196
15.26,-0.273,1.221,0.086
15.27,-0.11,0.667,-0.096
15.28,-0.456,0.521,-0.169
15.29,-0.144,1.376,0.154
15.3,-0.098,0.87,0.025
15.31,-0.245,0.939,-0.126
15.32,-0.385,0.343,-0.168
15.33,-0.165,1.3,0.224
15.34,-0.181,0.871,0.076
15.35,-0.212,0.727,-0.199
15.36,-0.449,0.815,-0.179
15.37,-0.122,1.123,0.165
15.38,-0.257,1.125,0.042
15.39,-0.198,0.333,-0.131
15.4,-0.415,1.338,-0.093
15.41,0.06,0.862,0.167
15.42,-0.314,1.266,0.082
15.43,-0.25,0.349,-0.126
15.44,-0.397,1.199,-0.017
15.45,-0.058,1.026,0.175
15.46,-0.235,0.824,0.092
15.47,-0.323,0.867,-0.163
15.48,-0.266,0.867,-0.034
15.49,-0.13,1.355,0.156
15.5,-0.15,0.715,0.104
15.51,-0.405,0.892,-0.149
15.52,-0.284,1.05,-0.071
15.53,-0.086,1.095,0.158
15.54,-0.23,1.073,0.016
15.55,-0.299,0.434,-0.193
15.56,-0.319,1.512,-0.028
15.57,-0.014,0.757,0.098
15.58,-0.169,1.212,0.008
15.59,-0.221,0.456,-0.265
15.6,-0.321,1.52,0.01
15.61,-0.096,0.932,0.155
15.62,-0.154,0.777,0.01
15.63,-0.418,0.865,-0.232
15.64,-0.24,1.136,0.043
15.65,-0.205,1.234,0.231
15.66,-0.081,0.589,0.051
15.67,-0.555,0.979,-0.202
15.68,-0.219,1.425,0.034
15.69,-0.218,0.925,0.189
15.7,0.008,0.857,0.061
15.71,-0.447,0.576,-0.172
15.72,-0.251,1.887,0.096
15.73,-0.117,0.704,0.061
15.74,-0.164,0.963,0.057
15.75,-0.368,0.365,-0.139
15.76,-0.324,1.872,0.142
15.77,-0.11,0.796,0.1
15.78,0.04,0.696,0.022
15.79,-0.515,0.925,-0.194
15.8,-0.117,1.469,0.135
15.81,-0.341,1.089,0.166
15.82,0.116,0.447,0.06
15.83,-0.524,1.069,-0.13
15.84,-0.039,1.622,0.105
15.85,-0.263,0.985,0.172
15.86,0.042,0.672,0.017
15.87,-0.413,0.585,-0.226
15.88,-0.132,2.0,0.022
15.89,-0.115,0.727,0.108
15.9,-0.083,0.873,0.026
15.91,-0.356,0.374,-0.155
15.92,-0.157,2.0,0.135
15.93,-0.163,0.807,0.072
15.94,-0.101,0.584,-0.05
15.95,-0.457,0.859,-0.141
15.96,-0.037,1.564,0.133
15.97,-0.221,1.331,0.047
15.98,0.027,0.312,-0.035
15.99,-0.525,1.017,-0.168
16.0,-0.012,1.526,0.176
16.01,-0.26,1.161,0.139
16.02,-0.094,0.688,-0.045
16.03,-0.418,0.511,-0.17
16.04,-0.122,1.819,0.219
16.05,-0.123,0.869,0.103
16.06,-0.208,0.889,-0.093
16.07,-0.345,0.256,-0.189
16.08,-0.143,1.788,0.143
16.09,-0.216,0.989,0.083
16.1,-0.138,0.71,-0.054
16.11,-0.475,0.665,-0.156
16.12,0.01,1.247,0.18
16.13,-0.293,1.396,0.024
16.14,-0.044,0.392,-0.088
16.15,-0.421,0.897,-0.187
16.16,-0.02,1.136,0.149
16.17,-0.233,1.314,-0.003
16.18,-0.14,0.464,-0.097
16.19,-0.464,0.894,-0.087
16.2,-0.092,1.111,0.162
16.21,-0.223,0.927,0.048
16.22,-0.311,0.826,-0.127
16.23,-0.37,0.507,-0.049
16.24,-0.147,1.318,0.185
16.25,-0.103,0.723,0.029
16.26,-0.383,0.832,-0.129
16.27,-0.292,0.846,-0.056
16.28,-0.078,1.128,0.119
16.29,-0.245,1.043,-0.01
16.3,-0.208,0.407,-0.177
16.31,-0.339,1.429,-0.073
16.32,-0.034,0.822,0.2
16.33,-0.292,1.231,0.021
16.34,-0.263,0.391,-0.173
16.35,-0.283,1.414,-0.068
16.36,-0.009,1.006,0.149
16.37,-0.148,0.792,-0.029
16.38,-0.331,0.863,-0.197
16.39,-0.217,1.06,-0.036
16.4,-0.142,1.236,0.166
16.41,-0.052,0.632,0.056
16.42,-0.544,0.976,-0.164
16.43,-0.235,1.062,0.01
16.44,-0.184,1.004,0.093
16.45,-0.164,1.003,-0.032
16.46,-0.346,0.501,-0.215
16.47,-0.244,1.767,-0.038
16.48,0.034,0.697,0.14
16.49,-0.118,1.104,0.016
16.5,-0.391,0.457,-0.25
16.51,-0.258,1.707,0.02
16.52,-0.125,0.81,0.035
16.53,-0.054,0.751,0.06
16.54,-0.485,0.854,-0.206
16.55,-0.162,1.321,0.058
16.56,-0.218,1.152,0.149
16.57,0.107,0.481,0.05
16.58,-0.487,1.036,-0.184
16.59,-0.036,1.547,0.009
16.6,-0.092,0.996,0.136
16.61,-0.024,0.707,-0.024
16.62,-0.468,0.557,-0.167
16.63,-0.168,2.0,0.051
16.64,-0.087,0.608,0.116
16.65,-0.125,0.921,-0.012
16.66,-0.394,0.404,-0.234
16.67,-0.184,1.97,0.078
16.68,-0.073,0.894,0.068
16.69,-0.047,0.543,-0.027
16.7,-0.41,0.851,-0.209
16.71,-0.097,1.527,0.188
16.72,-0.2,1.265,0.185
16.73,-0.008,0.335,-0.021
16.74,-0.573,1.08,-0.159
16.75,-0.046,1.428,0.186
16.76,-0.385,1.157,0.226
16.77,-0.002,0.692,-0.04
16.78,-0.484,0.445,-0.149
16.79,-0.141,1.622,0.188
16.8,-0.076,0.795,0.088
16.81,-0.214,1.037,-0.106
16.82,-0.424,0.168,-0.167
16.83,-0.113,1.65,0.161
16.84,-0.147,1.013,0.045
16.85,-0.083,0.708,-0.075
16.86,-0.52,0.779,-0.174
16.87,0.017,1.127,0.187
16.88,-0.231,1.407,0.017
16.89,-0.001,0.402,-0.075
16.9,-0.479,0.973,-0.189
16.91,0.034,1.143,0.131
16.92,-0.162,1.1,-0.004
16.93,-0.213,0.718,-0.137
16.94,-0.344,0.501,-0.144
16.95,-0.119,1.398,0.13
16.96,-0.054,0.821,-0.015
16.97,-0.271,0.815,-0.1
16.98,-0.373,0.614,-0.025
16.99,-0.104,1.372,0.127
17.0,-0.225,0.683,0.031
17.01,-0.33,0.863,-0.162
17.02,-0.296,0.957,-0.092
17.03,-0.006,1.134,0.122
17.04,-0.246,1.049,0.01
17.05,-0.247,0.5,-0.186
17.06,-0.312,1.468,-0.091
17.07,0.042,0.774,0.133
17.08,-0.363,1.217,0.011
17.09,-0.277,0.462,-0.196
17.1,-0.298,1.423,-0.052
17.11,-0.036,0.918,0.181
17.12,-0.161,0.829,0.042
17.13,-0.416,0.929,-0.216
17.14,-0.272,1.11,0.048
17.15,-0.187,1.191,0.185
17.16,-0.062,0.572,0.075
17.17,-0.473,1.054,-0.181
17.18,-0.258,1.409,0.076
17.19,-0.124,1.0,0.191
17.2,-0.098,0.822,0.031
17.21,-0.362,0.592,-0.142
17.22,-0.34,1.919,0.097
17.23,-0.008,0.7,0.116
17.24,-0.203,0.989,0.047
17.25,-0.314,0.427,-0.196
17.26,-0.268,1.803,0.085
17.27,-0.085,0.796,0.138
17.28,-0.03,0.667,0.007
17.29,-0.413,0.926,-0.218
17.3,-0.093,1.445,0.072
17.31,-0.208,1.13,0.158
17.32,0.092,0.399,0.02
17.33,-0.51,1.02,-0.229
17.34,0.02,1.587,0.008
17.35,-0.118,1.034,0.106
17.36,0.054,0.689,-0.052
17.37,-0.401,0.513,-0.195
17.38,-0.084,2.0,0.058
17.39,-0.064,0.679,0.112
17.4,-0.118,0.889,0.015
17.41,-0.371,0.394,-0.247
17.42,-0.189,1.962,0.07
17.43,-0.067,0.872,0.063
17.44,-0.064,0.563,-0.044
17.45,-0.396,0.803,-0.202
17.46,-0.123,1.449,0.146
17.47,-0.262,1.285,0.106
17.48,0.098,0.469,-0.058
17.49,-0.574,0.959,-0.156
17.5,0.019,1.343,0.218
17.51,-0.26,1.223,0.082
17.52,-0.093,0.663,-0.091
17.53,-0.439,0.473,-0.175
17.54,-0.143,1.617,0.197
17.55,-0.206,0.774,0.107
17.56,-0.181,1.052,-0.109
17.57,-0.363,0.139,-0.133
17.58,-0.142,1.524,0.185
17.59,-0.16,0.998,0.084
17.6,-0.143,0.732,-0.106
17.61,-0.498,0.722,-0.164
17.62,0.062,1.145,0.134
17.63,-0.323,1.388,0.036
17.64,0.026,0.373,-0.099
17.65,-0.553,1.036,-0.161
17.66,0.028,1.033,0.18
17.67,-0.287,1.102,0.005
17.68,-0.148,0.686,-0.123
17.69,-0.404,0.546,-0.121
17.7,-0.114,1.318,0.175
17.71,-0.191,0.793,0.039
17.72,-0.323,0.908,-0.104
17.73,-0.408,0.424,-0.065
17.74,-0.083,1.323,0.138
17.75,-0.183,0.883,0.029
17.76,-0.217,0.702,-0.146
17.77,-0.435,1.042,-0.047
17.78,-0.019,1.057,0.082
17.79,-0.136,1.098,-0.022
17.8,-0.25,0.433,-0.209
17.81,-0.28,1.532,-0.055
17.82,-0.024,0.773,0.142
17.83,-0.326,1.193,0.073
17.84,-0.271,0.45,-0.139
17.85,-0.374,1.497,0.003
17.86,-0.068,0.958,0.133
17.87,-0.104,0.756,0.04
17.88,-0.414,0.885,-0.212
17.89,-0.138,1.185,-0.032
17.9,-0.13,1.168,0.156
17.91,0.043,0.62,0.057
17.92,-0.542,0.963,-0.186
17.93,-0.181,1.362,0.027
17.94,-0.166,0.904,0.145
17.95,-0.105,0.884,0.038
17.96,-0.425,0.562,-0.172
17.97,-0.288,1.892,0.063
17.98,-0.067,0.646,0.149
17.99,-0.09,1.024,0.038
18.0,-0.391,0.456,-0.202
18.01,-0.25,1.782,0.051
18.02,-0.173,0.854,0.12
18.03,-0.007,0.645,0.002
18.04,-0.508,0.911,-0.168
18.05,-0.108,1.508,0.103
18.06,-0.339,1.091,0.17
18.07,0.134,0.453,0.046
18.08,-0.506,1.045,-0.159
18.09,-0.129,1.568,0.151
18.1,-0.194,1.019,0.171
18.11,0.011,0.685,0.011
18.12,-0.506,0.554,-0.127
18.13,-0.101,2.0,0.116
18.14,-0.204,0.593,0.163
18.15,-0.03,0.92,0.007
18.16,-0.416,0.354,-0.213
18.17,-0.025,2.0,0.096
18.18,-0.181,0.816,0.069
18.19,-0.032,0.518,-0.011
18.2,-0.392,0.9,-0.234
18.21,-0.051,1.56,0.145
18.22,-0.204,1.274,0.055
18.23,0.023,0.266,-0.023
18.24,-0.471,1.024,-0.2
18.25,-0.032,1.504,0.156
18.26,-0.212,1.07,0.084
18.27,-0.064,0.682,-0.065
18.28,-0.483,0.493,-0.105
18.29,-0.121,1.885,0.202
18.3,-0.176,0.813,0.117
18.31,-0.156,0.875,-0.103
18.32,-0.437,0.342,-0.145
18.33,-0.133,1.577,0.138
18.34,-0.152,1.017,0.081
18.35,-0.133,0.627,-0.155
18.36,-0.333,0.699,-0.292
18.37,0.034,1.148,0.119
18.38,-0.324,1.358,0.046
18.39,-0.063,0.436,-0.122
18.4,-0.459,0.935,-0.162
18.41,0.012,1.131,0.107
18.42,-0.23,1.237,0.061
18.43,-0.119,0.708,-0.093
18.44,-0.514,0.472,-0.07
18.45,-0.13,1.356,0.21
18.46,-0.16,0.835,0.039
18.47,-0.319,0.988,-0.135
18.48,-0.423,0.338,-0.106
18.49,-0.165,1.309,0.196
18.5,-0.203,0.906,0.037
18.51,-0.23,0.632,-0.096
18.52,-0.483,0.948,-0.094
18.53,-0.088,0.935,0.241
18.54,-0.287,1.327,0.063
18.55,-0.196,0.274,-0.147
18.56,-0.46,1.22,-0.073
18.57,-0.004,0.988,0.176
18.58,-0.176,1.252,0.022
18.59,-0.258,0.446,-0.224
18.6,-0.297,1.256,-0.06
18.61,-0.141,0.949,0.128
18.62,-0.146,0.828,0.013
18.63,-0.36,0.831,-0.183
18.64,-0.173,1.097,-0.058
18.65,-0.109,1.29,0.16
18.66,0.015,0.581,0.058
18.67,-0.488,1.057,-0.202
18.68,-0.148,1.345,-0.023
18.69,-0.17,0.914,0.137
18.7,-0.061,0.899,0.02
18.71,-0.386,0.496,-0.193
18.72,-0.294,1.784,0.003
18.73,-0.093,0.633,0.125
18.74,-0.153,1.115,0.065
18.75,-0.391,0.447,-0.15
18.76,-0.316,1.762,0.019
18.77,-0.172,0.846,0.181
18.78,0.041,0.739,0.042
18.79,-0.548,0.922,-0.13
18.8,-0.148,1.321,0.087
18.81,-0.35,1.16,0.218
18.82,0.036,0.486,0.06
18.83,-0.484,1.002,-0.164
18.84,-0.152,1.521,-0.009
18.85,-0.101,0.99,0.133
18.86,-0.02,0.746,-0.036
18.87,-0.409,0.583,-0.189
18.88,-0.162,2.0,0.033
18.89,-0.088,0.668,0.147
18.9,-0.059,0.956,0.037
18.91,-0.389,0.41,-0.204
18.92,-0.138,1.92,0.093
18.93,-0.133,0.852,0.113
18.94,-0.007,0.564,0.028
18.95,-0.465,0.944,-0.236
18.96,-0.027,1.516,0.069
18.97,-0.198,1.212,0.186
18.98,0.056,0.32,0.027
18.99,-0.545,1.061,-0.186
19.0,0.037,1.739,0.066
19.01,-0.224,1.0,0.118
19.02,0.053,0.711,-0.032
19.03,-0.473,0.564,-0.181
19.04,-0.084,2.0,0.099
19.05,-0.149,0.694,0.089
19.06,-0.107,0.843,-0.033
19.07,-0.387,0.366,-0.226
19.08,-0.148,1.947,0.089
19.09,-0.192,0.874,0.097
19.1,-0.105,0.59,-0.045
19.11,-0.425,0.854,-0.233
19.12,-0.039,1.477,0.139
19.13,-0.16,1.295,0.009
19.14,0.01,0.341,-0.05
19.15,-0.491,1.017,-0.205
19.16,-0.022,1.4,0.138
19.17,-0.211,1.148,0.085
19.18,-0.079,0.676,-0.103
19.19,-0.449,0.492,-0.186
19.2,-0.137,1.761,0.182
19.21,-0.174,0.787,0.129
19.22,-0.19,0.972,-0.076
19.23,-0.429,0.336,-0.117
19.24,-0.166,1.803,0.192
19.25,-0.182,1.046,0.103
19.26,-0.031,0.627,-0.072
19.27,-0.435,0.736,-0.231
19.28,-0.026,1.282,0.169
19.29,-0.273,1.368,0.089
19.3,-0.042,0.393,-0.062
19.31,-0.643,0.907,-0.134
19.32,0.021,1.25,0.219
19.33,-0.311,1.211,0.116
19.34,-0.093,0.686,-0.077
19.35,-0.433,0.542,-0.139
19.36,-0.153,1.529,0.189
19.37,-0.116,0.883,0.077
19.38,-0.191,0.872,-0.121
19.39,-0.391,0.379,-0.155
19.4,-0.162,1.392,0.185
19.41,-0.099,0.724,0.027
19.42,-0.412,0.897,-0.157
19.43,-0.362,0.585,-0.192
19.44,-0.11,1.17,0.16
19.45,-0.24,1.155,0.023
19.46,-0.065,0.366,-0.179
19.47,-0.456,1.161,-0.119
19.48,0.071,0.874,0.173
19.49,-0.188,0.981,-0.102
19.5,-0.489,0.232,-0.088
19.51,-0.148,1.604,0.218
19.52,-0.177,0.808,0.139
19.53,-0.178,0.98,-0.109
19.54,-0.502,0.397,-0.124
19.55,-0.082,1.472,0.235
19.56,-0.177,1.16,0.022
19.57,0.016,0.508,-0.115
19.58,-0.505,1.023,-0.165
19.59,0.027,0.984,0.124
19.6,-0.348,1.31,0.036
19.61,-0.139,0.477,-0.121
19.62,-0.529,1.049,-0.072
19.63,-0.048,0.949,0.177
19.64,-0.266,1.196,0.072
19.65,-0.232,0.548,-0.126
19.66,-0.521,0.632,-0.043
19.67,0.004,1.3,0.136
19.68,-0.196,0.838,0.045
19.69,-0.17,0.887,-0.142
19.7,-0.407,0.678,-0.055
19.71,-0.103,1.334,0.144
19.72,-0.247,0.782,0.119
19.73,-0.313,0.734,-0.152
19.74,-0.293,1.043,-0.094
19.75,-0.118,0.941,0.126
19.76,-0.244,1.253,-0.018
19.77,-0.192,0.281,-0.159
19.78,-0.366,1.446,-0.07
19.79,0.043,0.801,0.115
19.8,-0.192,1.193,0.005
19.81,-0.305,0.477,-0.192
19.82,-0.19,1.263,-0.024
19.83,-0.147,1.101,0.16
19.84,-0.076,0.613,0.006
19.85,-0.437,1.033,-0.198
19.86,-0.159,1.029,-0.027
19.87,-0.193,1.126,0.127
19.88,-0.09,0.68,0.037
19.89,-0.501,0.811,-0.211
19.9,-0.174,1.474,0.01
19.91,-0.097,0.815,0.082
19.92,-0.137,1.0,0.028
19.93,-0.301,0.412,-0.231
19.94,-0.27,1.965,0.05
19.95,-0.001,0.717,0.134
19.96,-0.187,0.954,0.042
19.97,-0.315,0.597,-0.184
19.98,-0.322,1.685,0.105
19.99,-0.12,1.009,0.129
20.0,0.067,0.5,-0.005
20.01,-0.438,1.019,-0.233
20.02,-0.029,1.371,0.048
20.03,-0.18,1.104,0.14
20.04,0.12,0.511,0.043
20.05,-0.519,0.916,-0.23
20.06,-0.023,1.648,0.074
20.07,-0.298,1.166,0.132
20.08,0.018,0.538,-0.001
20.09,-0.471,0.626,-0.216
20.1,-0.143,1.987,0.09
20.11,-0.154,0.713,0.154
20.12,-0.132,0.929,-0.045
20.13,-0.396,0.272,-0.194
20.14,-0.17,1.928,0.187
20.15,-0.181,0.926,0.079
20.16,-0.102,0.611,-0.038
20.17,-0.493,0.766,-0.185
20.18,-0.031,1.436,0.179
20.19,-0.271,1.309,0.111
20.2,0.021,0.359,-0.059
20.21,-0.587,0.95,-0.14
20.22,-0.016,1.339,0.149
20.23,-0.245,1.207,0.103
20.24,-0.111,0.695,-0.043
20.25,-0.532,0.474,-0.13
20.26,-0.106,1.583,0.24
20.27,-0.12,0.926,0.093
20.28,-0.247,0.964,-0.09
20.29,-0.385,0.237,-0.168
20.3,-0.216,1.56,0.125
20.31,-0.094,0.906,0.017
20.32,-0.133,0.814,-0.144
20.33,-0.429,0.664,-0.171
20.34,-0.073,1.042,0.192
20.35,-0.202,1.299,-0.009
20.36,-0.056,0.363,-0.161
20.37,-0.497,1.067,-0.183
20.38,0.02,0.996,0.176
20.39,-0.273,1.187,0.119
20.4,-0.187,0.645,-0.113
20.41,-0.469,0.676,-0.073
20.42,-0.169,1.313,0.213
20.43,-0.165,0.803,0.036
20.44,-0.33,0.923,-0.07
20.45,-0.458,0.378,-0.047
20.46,-0.228,1.317,0.273
20.47,-0.204,0.87,0.098
20.48,-0.348,0.715,-0.123
20.49,-0.403,0.782,-0.123
20.5,-0.064,1.013,0.205
20.51,-0.188,1.256,0.017
20.52,-0.16,0.184,-0.143
20.53,-0.342,1.44,-0.106
20.54,0.01,0.883,0.151
20.55,-0.287,1.162,0.073
20.56,-0.287,0.607,-0.146
20.57,-0.391,0.98,-0.02
20.58,-0.161,1.174,0.152
20.59,-0.132,0.736,0.058
20.6,-0.437,0.951,-0.182
20.61,-0.23,0.803,-0.035
20.62,-0.222,1.258,0.134
20.63,-0.26,0.758,0.049
20.64,-0.295,0.826,-0.126
20.65,-0.26,1.444,-0.045
20.66,-0.067,0.867,0.211
20.67,-0.213,1.096,0.045
20.68,-0.37,0.423,-0.198
20.69,-0.309,1.696,0.045
20.7,-0.075,0.674,0.123
20.71,-0.192,1.049,0.017
20.72,-0.368,0.563,-0.243
20.73,-0.341,1.276,0.081
20.74,-0.086,1.07,0.136
20.75,-0.074,0.58,-0.001
20.76,-0.499,0.993,-0.174
20.77,-0.195,1.21,0.056
20.78,-0.209,1.163,0.22
20.79,-0.051,0.612,0.06
20.8,-0.515,0.937,-0.165
20.81,-0.207,1.652,0.037
20.82,-0.033,0.804,0.113
20.83,-0.148,0.888,0.029
20.84,-0.289,0.422,-0.217
20.85,-0.279,2.0,0.119
20.86,-0.009,0.717,0.11
20.87,-0.146,0.911,0.012
20.88,-0.311,0.372,-0.214
20.89,-0.135,2.0,0.083
20.9,-0.036,0.853,0.111
20.91,-0.092,0.625,-0.037
20.92,-0.378,0.811,-0.194
20.93,-0.049,1.651,0.13
20.94,-0.213,1.29,0.077
20.95,0.025,0.349,-0.079
20.96,-0.447,1.081,-0.209
20.97,-0.001,1.5,0.155
20.98,-0.254,1.165,0.087
20.99,-0.018,0.646,-0.062
21.0,-0.373,0.524,-0.151
21.01,-0.174,1.642,0.207
21.02,-0.135,0.785,0.075
21.03,-0.171,1.014,-0.104
21.04,-0.398,0.206,-0.141
21.05,-0.102,1.516,0.148
21.06,-0.181,0.967,0.05
21.07,-0.14,0.714,-0.128
21.08,-0.416,0.709,-0.165
21.09,0.001,1.054,0.126
21.1,-0.322,1.337,-0.002
21.11,0.018,0.425,-0.107
21.12,-0.57,1.062,-0.112
21.13,0.018,0.979,0.186
21.14,-0.282,1.215,0.033
21.15,-0.23,0.585,-0.105
21.16,-0.444,0.638,-0.059
21.17,-0.18,1.261,0.208
21.18,-0.157,0.735,0.038
21.19,-0.34,0.925,-0.15
21.2,-0.355,0.576,-0.024
21.21,-0.126,1.31,0.112
21.22,-0.212,0.835,0.038
21.23,-0.313,0.713,-0.159
21.24,-0.344,1.132,-0.06
21.25,-0.079,0.863,0.16
21.26,-0.313,1.28,0.071
21.27,-0.237,0.246,-0.116
21.28,-0.337,1.591,-0.028
21.29,-0.058,0.811,0.159
21.3,-0.202,1.075,0.051
21.31,-0.35,0.623,-0.164
21.32,-0.22,1.229,-0.027
21.33,-0.113,1.163,0.133
21.34,-0.043,0.596,0.066
21.35,-0.52,1.051,-0.192
21.36,-0.2,1.046,0.062
21.37,-0.174,1.129,0.139
21.38,-0.079,0.74,0.044
21.39,-0.409,0.857,-0.202
21.4,-0.234,1.613,0.001
21.41,-0.098,0.748,0.164
21.42,-0.133,1.04,0.035
21.43,-0.396,0.405,-0.201
21.44,-0.234,1.924,0.044
21.45,-0.134,0.719,0.144
21.46,-0.057,0.936,0.031
21.47,-0.449,0.593,-0.192
21.48,-0.148,1.596,0.008
21.49,-0.167,1.021,0.108
21.5,0.079,0.528,0.025
21.51,-0.559,1.042,-0.137
21.52,-0.121,1.397,0.095
21.53,-0.192,1.143,0.114
21.54,0.042,0.533,0.032
21.55,-0.429,0.885,-0.164
21.56,-0.166,1.783,0.087
21.57,-0.052,0.767,0.128
21.58,-0.144,0.846,0.013
21.59,-0.264,0.42,-0.224
21.6,-0.233,2.0,0.056
21.61,0.021,0.65,0.149
21.62,-0.164,0.824,-0.005
21.63,-0.345,0.537,-0.236
21.64,-0.13,1.765,0.119
21.65,-0.19,1.049,0.096
21.66,0.005,0.384,-0.017
21.67,-0.433,0.888,-0.178
21.68,-0.025,1.472,0.2
21.69,-0.235,1.378,0.091
21.7,0.011,0.3,-0.108
21.71,-0.496,0.997,-0.176
21.72,0.039,1.276,0.184
21.73,-0.188,1.126,0.063
21.74,-0.077,0.748,-0.144
21.75,-0.42,0.438,-0.167
21.76,-0.115,1.608,0.188
21.77,-0.102,0.887,0.049
21.78,-0.261,0.934,-0.097
21.79,-0.272,0.256,-0.21
21.8,-0.138,1.507,0.133
21.81,-0.097,0.973,0.038
21.82,-0.138,0.687,-0.159
21.83,-0.348,0.755,-0.224
21.84,-0.022,0.998,0.145
21.85,-0.27,1.384,0.005
21.86,-0.092,0.369,-0.12
21.87,-0.446,1.0,-0.211
21.88,0.024,1.024,0.116
21.89,-0.179,1.211,0.007
21.9,-0.239,0.656,-0.097
21.91,-0.485,0.533,-0.07
21.92,-0.168,1.328,0.226
21.93,-0.135,0.765,0.057
21.94,-0.333,0.959,-0.086
21.95,-0.471,0.43,-0.038
21.96,-0.123,1.281,0.213
21.97,-0.289,0.91,0.04
21.98,-0.279,0.602,-0.065
21.99,-0.498,0.954,-0.075
22.0,-0.039,0.945,0.181
22.01,-0.36,1.299,0.042
22.02,-0.177,0.27,-0.103
22.03,-0.404,1.308,-0.064
22.04,0.028,0.867,0.114
22.05,-0.251,1.119,0.029
22.06,-0.273,0.598,-0.137
22.07,-0.29,0.979,-0.062
22.08,-0.167,1.204,0.129
22.09,-0.169,0.684,0.007
22.1,-0.384,0.916,-0.173
22.11,-0.224,0.882,-0.078
22.12,-0.13,1.236,0.142
22.13,-0.135,0.812,-0.05
22.14,-0.328,0.756,-0.201
22.15,-0.159,1.489,-0.036
22.16,-0.043,0.824,0.135
22.17,-0.167,1.129,0.063
22.18,-0.389,0.411,-0.191
22.19,-0.314,1.678,0.06
22.2,-0.115,0.664,0.187
22.21,-0.203,1.024,0.045
22.22,-0.389,0.595,-0.251
22.23,-0.161,1.421,-0.005
22.24,-0.041,1.103,0.132
22.25,0.048,0.539,0.024
22.26,-0.512,1.03,-0.16
22.27,-0.13,1.381,0.062
22.28,-0.208,1.171,0.164
22.29,0.061,0.541,-0.0
22.3,-0.494,0.777,-0.199
22.31,-0.11,1.815,0.081
22.32,-0.133,0.815,0.166
22.33,-0.081,0.84,0.026
22.34,-0.429,0.397,-0.204
22.35,-0.17,2.0,0.098
22.36,-0.067,0.704,0.151
22.37,-0.054,0.818,-0.027
22.38,-0.402,0.631,-0.257
22.39,-0.11,1.691,0.097
22.4,-0.123,1.082,0.113
22.41,0.077,0.371,-0.007
22.42,-0.493,1.044,-0.19
22.43,-0.008,1.443,0.144
22.44,-0.18,1.296,0.066
22.45,0.045,0.425,-0.017
22.46,-0.439,0.823,-0.26
22.47,-0.011,1.361,0.216
22.48,-0.236,1.102,0.079
22.49,-0.104,0.781,-0.053
22.5,-0.439,0.398,-0.18
22.51,-0.156,1.675,0.204
22.52,-0.098,0.846,0.111
22.53,-0.19,1.003,-0.081
22.54,-0.439,0.293,-0.164
22.55,-0.164,1.666,0.189
22.56,-0.205,1.079,0.054
22.57,-0.074,0.706,-0.074
22.58,-0.409,0.765,-0.235
22.59,-0.003,1.135,0.144
22.6,-0.24,1.316,0.071
22.61,-0.07,0.462,-0.076
22.62,-0.496,0.955,-0.164
22.63,-0.035,1.131,0.178
22.64,-0.215,1.22,0.036
22.65,-0.082,0.738,-0.07
22.66,-0.444,0.521,-0.155
22.67,-0.086,1.418,0.132
22.68,-0.069,0.818,-0.048
22.69,-0.265,0.99,-0.133
22.7,-0.337,0.336,-0.156
22.71,-0.186,1.287,0.164
22.72,-0.135,0.885,0.003
22.73,-0.336,0.633,-0.144
22.74,-0.405,0.854,-0.139
22.75,-0.043,0.945,0.203
22.76,-0.272,1.304,-0.013
22.77,-0.125,0.313,-0.129
22.78,-0.537,1.197,-0.086
22.79,0.005,0.963,0.186
22.8,-0.224,1.107,0.047
22.81,-0.275,0.571,-0.158
22.82,-0.316,0.757,-0.053
22.83,-0.124,1.287,0.146
22.84,-0.106,0.701,-0.003
22.85,-0.33,0.92,-0.15
22.86,-0.216,0.841,-0.087
22.87,-0.075,1.275,0.126
22.88,-0.133,0.853,-0.001
22.89,-0.314,0.722,-0.159
22.9,-0.277,1.37,-0.075
22.91,-0.074,0.874,0.14
22.92,-0.196,1.215,0.017
22.93,-0.294,0.37,-0.235
22.94,-0.246,1.599,-0.062
22.95,-0.075,0.778,0.134
22.96,-0.134,1.032,0.043
22.97,-0.359,0.678,-0.228
22.98,-0.218,1.363,0.008
22.99,-0.072,1.137,0.162
23.0,0.071,0.591,0.054
23.01,-0.483,1.097,-0.181
23.02,-0.205,1.316,0.079
23.03,-0.217,1.146,0.225
23.04,0.007,0.624,0.057
23.05,-0.429,0.83,-0.129
23.06,-0.249,1.739,0.068
23.07,-0.086,0.816,0.177
23.08,-0.116,0.934,0.051
23.09,-0.369,0.387,-0.181
23.1,-0.293,1.887,0.119
23.11,-0.133,0.665,0.138
23.12,-0.116,0.895,0.062
23.13,-0.49,0.665,-0.197
23.14,-0.159,1.627,0.109
23.15,-0.324,0.958,0.146
23.16,0.116,0.492,0.024
23.17,-0.556,1.056,-0.149
23.18,-0.044,1.465,0.09
23.19,-0.205,1.1,0.194
23.2,0.062,0.528,0.007
23.21,-0.526,0.771,-0.149
23.22,-0.01,1.95,0.056
23.23,-0.206,0.822,0.111
23.24,-0.028,0.814,-0.035
23.25,-0.408,0.39,-0.209
23.26,-0.134,2.0,0.082
23.27,-0.102,0.798,0.125
23.28,-0.131,0.886,-0.063
23.29,-0.408,0.286,-0.16
23.3,-0.186,1.657,0.184
23.31,-0.2,1.01,0.093
23.32,-0.114,0.637,-0.087
23.33,-0.421,0.738,-0.192
23.34,0.044,1.192,0.176
23.35,-0.22,1.412,0.033
23.36,-0.094,0.369,-0.088
23.37,-0.428,0.889,-0.221
23.38,0.043,1.24,0.101
23.39,-0.193,1.168,0.009
23.4,-0.114,0.759,-0.169
23.41,-0.349,0.387,-0.169
23.42,-0.146,1.491,0.151
23.43,-0.065,0.832,0.05
23.44,-0.311,0.94,-0.12
23.45,-0.346,0.313,-0.155
23.46,-0.173,1.323,0.204
23.47,-0.155,0.902,-0.016
23.48,-0.259,0.694,-0.131
23.49,-0.49,0.855,-0.141
23.5,-0.04,0.913,0.228
23.51,-0.293,1.359,0.058
23.52,-0.159,0.333,-0.131
23.53,-0.529,1.026,-0.067
23.54,0.045,1.018,0.225
23.55,-0.314,1.159,0.122
23.56,-0.285,0.626,-0.073
23.57,-0.474,0.667,-0.03
23.58,-0.108,1.314,0.178
23.59,-0.126,0.715,0.076
23.6,-0.389,0.894,-0.108
23.61,-0.34,0.689,-0.037
23.62,-0.086,1.276,0.133
23.63,-0.124,0.687,0.046
23.64,-0.352,0.913,-0.164
23.65,-0.235,1.145,-0.038
23.66,-0.045,1.007,0.142
23.67,-0.276,1.072,0.042
23.68,-0.231,0.54,-0.215
23.69,-0.361,1.577,-0.019
23.7,-0.008,0.728,0.079
23.71,-0.216,1.211,0.039
23.72,-0.287,0.437,-0.206
23.73,-0.354,1.528,0.065
23.74,-0.055,0.932,0.133
23.75,-0.124,0.806,0.066
23.76,-0.418,0.92,-0.182
23.77,-0.19,1.253,0.034
23.78,-0.129,1.232,0.164
23.79,-0.002,0.51,0.044
23.8,-0.475,0.976,-0.155
23.81,-0.203,1.549,0.033
23.82,-0.119,0.895,0.104
23.83,0.021,0.847,-0.036
23.84,-0.35,0.485,-0.224
23.85,-0.164,2.0,0.096
23.86,-0.025,0.686,0.119
23.87,-0.125,0.917,0.012
23.88,-0.338,0.399,-0.212
23.89,-0.142,1.936,0.093
23.9,-0.115,0.8,0.024
23.91,0.038,0.576,-0.019
23.92,-0.453,0.937,-0.228
23.93,0.019,1.517,0.13
23.94,-0.214,1.187,0.082
23.95,0.1,0.324,-0.011
23.96,-0.481,1.043,-0.238
23.97,-0.058,1.637,0.071
23.98,-0.175,0.982,0.02
23.99,0.072,0.748,-0.038
24.0,-0.448,0.425,-0.167
24.01,-0.129,1.93,0.156
24.02,-0.104,0.729,0.1
24.03,-0.172,0.886,-0.048
24.04,-0.409,0.325,-0.184
24.05,-0.171,1.886,0.14
24.06,-0.155,0.988,0.065
24.07,-0.194,0.854,-0.081
24.08,-0.467,0.461,-0.144
24.09,-0.098,1.345,0.203
24.1,-0.288,1.339,0.107
24.11,-0.05,0.431,-0.059
24.12,-0.502,0.999,-0.136
24.13,0.0,1.042,0.167
24.14,-0.23,1.319,0.007
24.15,-0.103,0.557,-0.121
24.16,-0.443,0.696,-0.088
24.17,-0.052,1.191,0.187
24.18,-0.124,0.946,0.036
24.19,-0.28,0.979,-0.098
24.2,-0.369,0.29,-0.131
24.21,-0.179,1.358,0.203
24.22,-0.17,0.846,-0.014
24.23,-0.323,0.837,-0.125
24.24,-0.316,0.632,-0.144
24.25,-0.083,1.086,0.242
24.26,-0.139,1.256,0.011
24.27,-0.268,0.38,-0.164
24.28,-0.338,1.238,-0.008
24.29,-0.042,0.825,0.205
24.3,-0.363,1.212,0.12
24.31,-0.281,0.4,-0.144
24.32,-0.374,1.137,-0.064
24.33,-0.11,1.099,0.129
24.34,-0.145,0.814,0.007
24.35,-0.372,0.842,-0.195
24.36,-0.259,0.917,-0.004
24.37,-0.096,1.3,0.206
24.38,-0.149,0.665,0.077
24.39,-0.345,0.979,-0.163
24.4,-0.26,1.182,-0.081
24.41,-0.061,0.948,0.153
24.42,-0.2,1.066,0.007
24.43,-0.346,0.435,-0.207
24.44,-0.258,1.776,-0.017
24.45,-0.046,0.656,0.124
24.46,-0.188,1.136,0.067
24.47,-0.349,0.397,-0.2
24.48,-0.226,1.585,0.027
24.49,-0.128,0.88,0.098
24.5,0.007,0.683,0.039
24.51,-0.456,0.967,-0.194
24.52,-0.1,1.261,-0.004
24.53,-0.222,1.156,0.038
24.54,0.096,0.534,0.022
24.55,-0.455,0.96,-0.167
24.56,-0.111,1.588,0.015
24.57,-0.293,0.852,0.135
24.58,0.01,0.837,-0.017
24.59,-0.414,0.454,-0.165
24.6,-0.222,2.0,0.077
24.61,-0.113,0.619,0.097
24.62,-0.156,0.859,-0.006
24.63,-0.342,0.443,-0.198
24.64,-0.211,1.902,0.15
24.65,-0.154,0.843,0.132
24.66,-0.071,0.491,0.023
24.67,-0.421,0.93,-0.21
24.68,-0.032,1.542,0.204
24.69,-0.222,1.334,0.122
24.7,-0.011,0.326,-0.002
24.71,-0.508,0.952,-0.195
24.72,-0.079,1.452,0.221
24.73,-0.172,1.096,0.075
24.74,-0.097,0.747,-0.088
24.75,-0.421,0.411,-0.141
24.76,-0.158,1.688,0.204
24.77,-0.128,0.812,0.106
24.78,-0.21,0.988,-0.074
24.79,-0.415,0.255,-0.163
24.8,-0.108,1.471,0.184
24.81,-0.293,1.135,0.128
24.82,-0.091,0.643,-0.084
24.83,-0.51,0.779,-0.154
24.84,0.058,1.049,0.196
24.85,-0.323,1.414,0.109
24.86,-0.051,0.399,-0.079
24.87,-0.523,0.945,-0.141
24.88,0.005,0.87,0.211
24.89,-0.292,1.303,0.015
24.9,-0.138,0.412,-0.116
24.91,-0.458,0.967,-0.054
24.92,-0.037,1.177,0.133
24.93,-0.114,0.817,-0.017
24.94,-0.324,0.831,-0.159
24.95,-0.252,0.708,-0.064
24.96,-0.139,1.315,0.09
24.97,-0.14,0.765,0.002
24.98,-0.337,0.799,-0.192
24.99,-0.172,1.163,-0.089
25.0,-0.078,1.0,0.12
25.01,-0.253,1.101,0.04
25.02,-0.25,0.457,-0.176
25.03,-0.39,1.756,-0.021
25.04,0.094,0.763,0.178
25.05,-0.334,1.108,0.077
25.06,-0.37,0.539,-0.188
25.07,-0.317,1.49,-0.019
25.08,-0.057,0.995,0.13
25.09,-0.068,0.699,0.046
25.1,-0.395,1.014,-0.212
25.11,-0.178,1.267,0.048
25.12,-0.039,1.268,0.17
25.13,-0.069,0.466,0.046
25.14,-0.417,0.954,-0.172
25.15,-0.206,1.606,0.046
25.16,-0.051,0.924,0.132
25.17,-0.045,0.856,0.006
25.18,-0.357,0.469,-0.236
25.19,-0.252,1.973,0.099
25.2,-0.046,0.579,0.107
25.21,-0.085,0.965,0.035
25.22,-0.355,0.516,-0.192
25.23,-0.215,1.803,0.136
25.24,-0.1,0.902,0.127
25.25,0.013,0.514,0.017
25.26,-0.388,1.0,-0.208
25.27,-0.068,1.474,0.075
25.28,-0.197,1.158,0.117
25.29,0.079,0.435,0.027
25.3,-0.446,0.985,-0.202
25.31,-0.057,1.724,0.081
25.32,-0.187,0.957,0.134
25.33,-0.082,0.727,-0.03
25.34,-0.377,0.463,-0.159
25.35,-0.234,1.955,0.102
25.36,-0.146,0.68,0.125
25.37,-0.116,0.899,-0.055
25.38,-0.468,0.309,-0.174
25.39,-0.127,1.667,0.199
25.4,-0.229,1.012,0.084
25.41,-0.079,0.554,-0.051
25.42,-0.438,0.876,-0.189
25.43,0.002,1.404,0.155
25.44,-0.271,1.43,0.065
25.45,0.005,0.309,-0.074
25.46,-0.545,0.941,-0.175
25.47,-0.038,1.263,0.236
25.48,-0.186,1.01,0.066
25.49,-0.136,0.832,-0.1
25.5,-0.361,0.286,-0.187
25.51,-0.148,1.548,0.141
25.52,-0.106,0.819,0.072
25.53,-0.281,1.001,-0.129
25.54,-0.288,0.266,-0.221
25.55,-0.096,1.38,0.154
25.56,-0.126,1.124,-0.009
25.57,-0.038,0.597,-0.144
25.58,-0.508,0.825,-0.179
25.59,0.07,0.953,0.187
25.6,-0.297,1.375,0.058
25.61,-0.14,0.412,-0.154
25.62,-0.476,0.932,-0.131
25.63,-0.046,1.032,0.185
25.64,-0.264,1.154,0.076
25.65,-0.255,0.702,-0.123
25.66,-0.419,0.492,-0.076
25.67,-0.233,1.312,0.29
25.68,-0.113,0.776,0.039
25.69,-0.319,0.827,-0.15
25.7,-0.28,0.783,-0.095
25.71,-0.104,1.327,0.121
25.72,-0.146,0.753,0.007
25.73,-0.399,0.815,-0.144
25.74,-0.268,1.153,-0.087
25.75,-0.125,0.934,0.138
25.76,-0.219,1.168,0.039
25.77,-0.27,0.37,-0.201
25.78,-0.265,1.679,-0.022
25.79,-0.056,0.772,0.153
25.8,-0.313,1.158,0.087
25.81,-0.257,0.467,-0.225
25.82,-0.328,1.341,0.017
25.83,-0.103,0.973,0.15
25.84,-0.159,0.671,0.039
25.85,-0.399,1.007,-0.191
25.86,-0.167,1.195,-0.02
25.87,-0.15,1.208,0.183
25.88,-0.033,0.562,0.036
25.89,-0.471,0.928,-0.213
25.9,-0.23,1.594,0.045
25.91,-0.196,0.867,0.201
25.92,-0.189,0.933,0.097
25.93,-0.456,0.472,-0.157
25.94,-0.402,1.966,0.136
25.95,-0.095,0.646,0.183
25.96,-0.207,1.01,0.063
25.97,-0.406,0.522,-0.189
25.98,-0.252,1.758,0.128
25.99,-0.112,0.919,0.142
26.0,0.075,0.562,0.012
26.01,-0.562,1.022,-0.135
26.02,-0.064,1.574,0.133
26.03,-0.326,1.157,0.165
26.04,0.091,0.418,0.011
26.05,-0.521,1.01,-0.16
26.06,-0.007,1.781,0.097
26.07,-0.221,0.902,0.074
26.08,0.067,0.774,-0.044
26.09,-0.363,0.399,-0.264
26.1,-0.108,1.982,0.06
26.11,-0.032,0.713,0.038
26.12,-0.115,0.968,-0.065
26.13,-0.358,0.316,-0.172
26.14,-0.086,1.912,0.139
26.15,-0.258,1.01,0.112
26.16,-0.004,0.522,-0.082
26.17,-0.458,0.924,-0.208
26.18,0.063,1.35,0.138
26.19,-0.327,1.373,0.08
26.2,0.06,0.442,-0.037
26.21,-0.529,0.853,-0.142
26.22,-0.002,1.455,0.21
26.23,-0.205,1.084,0.055
26.24,-0.153,0.828,-0.083
26.25,-0.425,0.378,-0.094
26.26,-0.261,1.578,0.24
26.27,-0.203,0.791,0.162
26.28,-0.253,1.04,-0.085
26.29,-0.325,0.321,-0.135
26.3,-0.146,1.291,0.206
26.31,-0.207,1.112,0.018
26.32,-0.15,0.611,-0.134
26.33,-0.442,0.895,-0.114
26.34,0.073,0.952,0.187
26.35,-0.37,1.431,0.066
26.36,-0.068,0.374,-0.115
26.37,-0.411,1.078,-0.12
26.38,0.049,0.968,0.163
26.39,-0.251,1.103,0.0
26.4,-0.223,0.722,-0.179
26.41,-0.319,0.754,-0.072
26.42,-0.106,1.276,0.097
26.43,-0.142,0.676,-0.05
26.44,-0.355,0.963,-0.16
26.45,-0.379,0.851,0.002
26.46,-0.112,1.118,0.172
26.47,-0.278,0.962,-0.003
26.48,-0.4,0.859,-0.167
26.49,-0.166,1.496,-0.006
26.5,-0.107,0.824,0.128
26.51,-0.122,0.962,0.023
26.52,-0.383,0.438,-0.171
26.53,-0.289,2.0,0.087
26.54,-0.08,0.618,0.138
26.55,-0.155,0.932,-0.025
26.56,-0.342,0.533,-0.197
26.57,-0.228,1.775,0.14
26.58,-0.144,0.971,0.141
26.59,-0.039,0.404,-0.011
26.6,-0.531,0.976,-0.189
26.61,-0.031,1.532,0.077
26.62,-0.186,1.285,0.121
26.63,0.031,0.371,-0.007
26.64,-0.384,0.837,-0.17
26.65,-0.101,1.622,0.141
26.66,-0.064,1.043,0.069
26.67,-0.083,0.795,-0.098
26.68,-0.306,0.335,-0.187
26.69,-0.206,1.789,0.173
26.7,-0.064,0.797,0.046
26.71,-0.162,1.004,-0.089
26.72,-0.419,0.236,-0.149
26.73,-0.107,1.391,0.178
26.74,-0.245,1.16,0.025
26.75,-0.032,0.6,-0.089
26.76,-0.466,0.938,-0.115
26.77,-0.072,0.936,0.205
26.78,-0.251,1.341,0.027
26.79,-0.14,0.456,-0.087
26.8,-0.412,0.93,-0.08
26.81,-0.123,1.037,0.188
26.82,-0.236,1.005,0.046
26.83,-0.271,0.771,-0.122
26.84,-0.37,0.584,-0.032
26.85,-0.139,1.35,0.171
26.86,-0.188,0.688,-0.001
26.87,-0.303,0.895,-0.159
26.88,-0.309,0.845,-0.004
26.89,-0.084,1.176,0.12
26.9,-0.212,1.014,-0.022
26.91,-0.317,0.491,-0.176
26.92,-0.217,1.497,-0.068
26.93,-0.016,0.772,0.092
26.94,-0.29,1.229,0.028
26.95,-0.323,0.361,-0.217
26.96,-0.254,1.68,0.031
26.97,-0.079,0.876,0.142
26.98,-0.138,0.795,0.064
26.99,-0.445,0.809,-0.211
27.0,-0.214,1.298,0.041
27.01,-0.189,1.14,0.175
27.02,0.062,0.509,0.027
27.03,-0.587,1.04,-0.14
27.04,-0.103,1.493,0.093
27.05,-0.201,1.056,0.138
27.06,0.05,0.651,-0.026
27.07,-0.555,0.629,-0.108
27.08,-0.151,2.0,0.112
27.09,-0.193,0.573,0.093
27.1,-0.041,1.009,0.01
27.11,-0.473,0.396,-0.203
27.12,-0.183,2.0,0.149
27.13,-0.171,0.711,0.098
27.14,-0.01,0.677,-0.029
27.15,-0.482,0.681,-0.222
27.16,-0.114,1.468,0.181
27.17,-0.241,1.297,0.117
27.18,0.006,0.392,-0.034
27.19,-0.542,0.912,-0.179
27.2,-0.058,1.39,0.252
27.21,-0.336,1.301,0.101
27.22,-0.046,0.61,-0.081
27.23,-0.463,0.485,-0.138
27.24,-0.136,1.537,0.216
27.25,-0.22,0.802,0.074
27.26,-0.215,1.077,-0.109
27.27,-0.424,0.178,-0.118
27.28,-0.162,1.409,0.164
27.29,-0.224,0.784,0.025
27.3,-0.282,0.904,-0.101
27.31,-0.355,0.607,-0.121
27.32,-0.079,1.12,0.176
27.33,-0.221,1.07,-0.036
27.34,-0.215,0.367,-0.16
27.35,-0.37,1.301,-0.045
27.36,-0.036,0.814,0.194
27.37,-0.369,1.297,0.032
27.38,-0.209,0.279,-0.117
27.39,-0.292,1.439,-0.008
27.4,-0.095,0.993,0.113
27.41,-0.167,0.797,0.008
27.42,-0.408,0.863,-0.179
27.43,-0.162,1.095,0.032
27.44,-0.15,1.236,0.13
27.45,-0.09,0.615,0.064
27.46,-0.542,0.938,-0.209
27.47,-0.125,1.29,0.083
27.48,-0.231,1.035,0.148
27.49,-0.084,0.806,0.015
27.5,-0.493,0.535,-0.118
27.51,-0.203,2.0,0.112
27.52,-0.002,0.639,0.087
27.53,-0.091,1.006,0.042
27.54,-0.394,0.378,-0.223
27.55,-0.16,2.0,0.091
27.56,-0.087,0.755,0.046
27.57,-0.039,0.611,-0.034
27.58,-0.38,0.872,-0.267
27.59,-0.038,1.56,0.068
27.6,-0.197,1.305,0.079
27.61,0.049,0.356,-0.039
27.62,-0.427,0.955,-0.161
27.63,-0.044,1.377,0.208
27.64,-0.185,1.123,0.039
27.65,-0.082,0.78,-0.096
27.66,-0.416,0.464,-0.169
27.67,-0.162,1.742,0.242
27.68,-0.088,0.848,0.077
27.69,-0.236,0.925,-0.111
27.7,-0.389,0.215,-0.139
27.71,-0.168,1.464,0.143
27.72,-0.221,0.988,0.027
27.73,-0.158,0.78,-0.119
27.74,-0.383,0.769,-0.126
27.75,-0.054,0.928,0.206
27.76,-0.277,1.323,-0.003
27.77,-0.104,0.363,-0.152
27.78,-0.463,1.105,-0.096
27.79,0.036,0.857,0.138
27.8,-0.302,1.213,-0.039
27.81,-0.195,0.557,-0.153
27.82,-0.338,0.833,-0.063
27.83,-0.563,0.783,-0.208
27.84,-0.147,1.752,0.037
27.85,-0.139,0.738,0.132
27.86,-0.089,0.968,0.076
27.87,-0.397,0.427,-0.162
27.88,-0.314,2.0,0.166
27.89,-0.092,0.66,0.178
27.9,-0.136,0.849,0.019
27.91,-0.347,0.281,-0.187
27.92,-0.102,1.986,0.087
27.93,-0.076,0.938,0.05
27.94,-0.068,0.585,-0.106
27.95,-0.472,0.83,-0.163
27.96,-0.01,1.41,0.199
27.97,-0.266,1.413,0.06
27.98,0.032,0.395,-0.101
27.99,-0.465,0.893,-0.181
28.0,-0.043,1.16,0.162
28.01,-0.228,1.146,0.043
28.02,-0.167,0.769,-0.125
28.03,-0.372,0.454,-0.137
28.04,-0.166,1.377,0.176
28.05,-0.124,0.755,-0.016
28.06,-0.331,0.97,-0.091
28.07,-0.396,0.399,-0.046
28.08,-0.144,1.261,0.161
28.09,-0.246,0.907,0.006
28.1,-0.266,0.675,-0.121
28.11,-0.327,1.179,-0.083
28.12,-0.071,0.899,0.203
28.13,-0.305,1.233,0.092
28.14,-0.269,0.363,-0.162
28.15,-0.304,1.506,-0.064
28.16,-0.049,0.822,0.109
28.17,-0.211,1.011,-0.01
28.18,-0.349,0.671,-0.181
28.19,-0.236,1.377,-0.008
28.2,-0.067,1.207,0.183
28.21,0.003,0.513,0.042
28.22,-0.467,1.141,-0.161
28.23,-0.193,1.336,0.079
28.24,-0.133,1.181,0.201
28.25,-0.087,0.549,0.004
28.26,-0.405,0.786,-0.154
28.27,-0.255,1.81,0.103
28.28,-0.053,0.641,0.145
28.29,-0.077,0.985,0.003
28.3,-0.36,0.367,-0.19
28.31,-0.226,1.995,0.098
28.32,0.042,0.724,0.1
28.33,-0.137,0.788,-0.045
28.34,-0.292,0.617,-0.25
28.35,-0.064,1.796,0.091
28.36,-0.154,1.132,0.098
28.37,-0.003,0.347,-0.052
28.38,-0.496,1.059,-0.2
28.39,-0.016,1.507,0.17
28.4,-0.172,1.234,0.045
28.41,0.055,0.437,-0.028
28.42,-0.535,0.738,-0.134
28.43,-0.099,1.565,0.159
28.44,-0.213,0.846,0.125
28.45,-0.113,1.017,-0.069
28.46,-0.393,0.162,-0.149
28.47,-0.123,1.726,0.191
28.48,-0.134,0.892,0.077
28.49,-0.14,0.907,-0.109
28.5,-0.387,0.447,-0.199
28.51,-0.018,1.254,0.17
28.52,-0.212,1.287,0.026
28.53,-0.014,0.452,-0.143
28.54,-0.459,0.986,-0.18
28.55,0.027,0.862,0.171
28.56,-0.432,1.325,0.064
28.57,-0.023,0.463,-0.105
28.58,-0.505,0.786,-0.151
28.59,-0.018,1.135,0.156
28.6,-0.269,0.933,0.033
28.61,-0.313,0.861,-0.116
28.62,-0.376,0.438,-0.048
28.63,-0.099,1.367,0.185
28.64,-0.122,0.784,0.036
28.65,-0.42,0.812,-0.131
28.66,-0.242,0.935,-0.074
28.67,-0.086,1.079,0.131
28.68,-0.217,1.125,-0.038
28.69,-0.311,0.365,-0.16
28.7,-0.304,1.588,-0.031
28.71,-0.024,0.771,0.17
28.72,-0.248,1.13,0.038
28.73,-0.354,0.354,-0.185
28.74,-0.325,1.904,0.037
28.75,-0.039,0.726,0.135
28.76,-0.149,0.91,0.059
28.77,-0.374,0.719,-0.17
28.78,-0.252,1.539,0.116
28.79,-0.225,1.029,0.16
28.8,0.031,0.493,0.0
28.81,-0.452,1.026,-0.164
28.82,-0.059,1.518,0.092
28.83,-0.162,1.16,0.126
28.84,0.034,0.482,-0.029
28.85,-0.418,0.717,-0.218
28.86,-0.051,1.966,0.08
28.87,-0.134,0.773,0.095
28.88,-0.13,0.895,-0.009
28.89,-0.381,0.31,-0.168
28.9,-0.181,2.0,0.166
28.91,-0.123,0.82,0.053
28.92,-0.108,0.66,-0.084
28.93,-0.422,0.52,-0.192
28.94,-0.12,1.473,0.175
28.95,-0.239,1.255,0.03
28.96,-0.032,0.45,-0.059
28.97,-0.459,0.923,-0.115
28.98,-0.029,1.163,0.22
28.99,-0.264,1.337,0.083
29.0,-0.07,0.563,-0.112
29.01,-0.45,0.658,-0.143
29.02,-0.053,1.333,0.138
29.03,-0.143,0.914,0.022
29.04,-0.195,0.995,-0.113
29.05,-0.357,0.276,-0.127
29.06,-0.161,1.351,0.21
29.07,-0.202,0.802,-0.007
29.08,-0.374,0.845,-0.119
29.09,-0.302,0.682,-0.103
29.1,-0.089,1.065,0.151
29.11,-0.248,1.162,0.016
29.12,-0.205,0.311,-0.16
29.13,-0.422,1.327,-0.032
29.14,0.004,0.802,0.165
29.15,-0.317,1.223,0.021
29.16,-0.235,0.394,-0.129
29.17,-0.251,1.312,-0.019
29.18,-0.134,1.108,0.186
29.19,-0.158,0.669,0.013
29.2,-0.471,1.056,-0.195
29.21,-0.231,0.972,0.033
29.22,-0.187,1.182,0.138
29.23,-0.103,0.698,0.012
29.24,-0.481,0.951,-0.242
29.25,-0.202,1.431,0.003
29.26,-0.138,0.949,0.192
29.27,-0.128,0.894,0.034
29.28,-0.394,0.472,-0.197
29.29,-0.304,1.937,0.114
29.3,-0.009,0.751,0.151
29.31,-0.205,0.941,0.031
29.32,-0.364,0.483,-0.179
29.33,-0.259,1.818,0.15
29.34,-0.106,0.926,0.114
29.35,-0.053,0.507,0.02
29.36,-0.464,1.036,-0.198
29.37,-0.127,1.469,0.099
29.38,-0.12,1.179,0.16
29.39,0.01,0.37,-0.001
29.4,-0.44,0.916,-0.175
29.41,-0.13,1.69,0.072
29.42,-0.139,1.047,0.083
29.43,-0.023,0.784,-0.042
29.44,-0.402,0.364,-0.205
29.45,-0.115,2.0,0.136
29.46,-0.074,0.758,0.068
29.47,-0.145,0.878,-0.07
29.48,-0.369,0.299,-0.196
29.49,-0.161,1.711,0.147
29.5,-0.204,1.096,0.032
29.51,-0.028,0.555,-0.069
29.52,-0.447,0.609,-0.129
29.53,-0.034,1.109,0.168
29.54,-0.268,1.251,0.043
29.55,-0.068,0.468,-0.108
29.56,-0.553,1.032,-0.124
29.57,0.041,0.915,0.18
29.58,-0.32,1.311,0.013
29.59,-0.093,0.528,-0.111
29.6,-0.496,0.758,-0.079
29.61,-0.033,1.185,0.175
29.62,-0.191,0.838,-0.001
29.63,-0.357,0.842,-0.101
29.64,-0.333,0.538,-0.027
29.65,-0.126,1.355,0.114
29.66,-0.211,0.779,-0.004
29.67,-0.302,0.755,-0.14
29.68,-0.312,0.99,-0.072
29.69,-0.102,0.994,0.196
29.7,-0.27,1.183,0.045
29.71,-0.264,0.313,-0.172
29.72,-0.307,1.54,-0.017
29.73,-0.098,0.767,0.165
29.74,-0.278,1.159,0.024
29.75,-0.3,0.479,-0.193
29.76,-0.22,1.466,0.005
29.77,-0.05,1.02,0.134
29.78,-0.059,0.632,0.017
29.79,-0.521,1.031,-0.138
29.8,-0.21,1.216,0.065
29.81,-0.222,1.126,0.212
29.82,-0.052,0.574,0.028
29.83,-0.479,0.915,-0.169
29.84,-0.213,1.577,0.053
29.85,-0.088,0.837,0.151
29.86,-0.139,0.892,-0.012
29.87,-0.34,0.437,-0.226
29.88,-0.251,2.0,0.12
29.89,-0.082,0.549,0.106
29.9,-0.096,0.985,0.024
29.91,-0.349,0.467,-0.23
29.92,-0.13,1.833,0.105
29.93,-0.104,1.059,0.076
29.94,0.003,0.375,-0.017
29.95,-0.456,0.968,-0.216
29.96,-0.018,1.605,0.099
29.97,-0.147,1.246,0.087
29.98,0.083,0.444,-0.065
29.99,-0.469,0.885,-0.203
30.0,0.014,1.613,0.171
30.01,-0.223,1.069,0.087
30.02,-0.01,0.843,-0.076
30.03,-0.428,0.419,-0.188
30.04,-0.198,1.762,0.237
30.05,-0.107,0.825,0.116
30.06,-0.161,0.989,-0.059
30.07,-0.455,0.268,-0.149
30.08,-0.087,1.436,0.162
30.09,-0.25,1.113,0.068
30.1,-0.071,0.635,-0.083
30.11,-0.494,0.974,-0.158
30.12,-0.016,0.93,0.18
30.13,-0.221,1.387,0.036
30.14,-0.117,0.326,-0.094
30.15,-0.428,0.983,-0.121
30.16,-0.094,0.994,0.15
30.17,-0.207,1.008,-0.067
30.18,-0.185,0.735,-0.124
30.19,-0.39,0.562,-0.017
30.2,-0.125,1.314,0.158
30.21,-0.183,0.723,0.047
30.22,-0.31,0.884,-0.133
30.23,-0.34,0.766,-0.013
30.24,-0.07,1.213,0.147
30.25,-0.261,1.0,0.007
30.26,-0.226,0.539,-0.168
30.27,-0.363,1.422,-0.076
30.28,0.075,0.794,0.098
30.29,-0.282,1.276,-0.035
30.3,-0.251,0.31,-0.175
30.31,-0.319,1.583,0.028
30.32,-0.021,0.649,0.117
30.33,-0.166,1.046,0.04
30.34,-0.486,0.54,-0.174
30.35,-0.194,1.74,0.051
30.36,-0.208,0.923,0.117
30.37,0.092,0.518,-0.027
30.38,-0.568,1.01,-0.168
30.39,-0.02,1.489,0.144
30.4,-0.203,1.188,0.121
30.41,0.068,0.396,-0.01
30.42,-0.493,0.863,-0.193
30.43,-0.084,1.799,0.1
30.44,-0.151,0.886,0.104
30.45,-0.055,0.806,-0.051
30.46,-0.412,0.322,-0.134
30.47,-0.184,2.0,0.127
30.48,-0.132,0.835,0.126
30.49,-0.161,0.863,-0.069
30.5,-0.371,0.326,-0.15
30.51,-0.128,1.529,0.194
30.52,-0.228,1.149,0.053
30.53,-0.002,0.562,-0.125
30.54,-0.501,0.892,-0.115
30.55,0.011,1.059,0.171
30.56,-0.39,1.381,0.082
30.57,-0.014,0.511,-0.077
30.58,-0.494,0.852,-0.097
30.59,-0.095,1.105,0.165
30.6,-0.265,1.028,0.031
30.61,-0.216,0.843,-0.124
30.62,-0.311,0.483,-0.061
30.63,-0.184,1.344,0.17
30.64,-0.163,0.635,0.061
30.65,-0.38,0.922,-0.113
30.66,-0.295,0.699,-0.01
30.67,-0.151,1.158,0.115
30.68,-0.156,1.025,-0.061
30.69,-0.22,0.474,-0.195
30.7,-0.26,1.477,-0.077
30.71,0.094,0.822,0.158
30.72,-0.307,1.242,0.003
30.73,-0.259,0.41,-0.191
30.74,-0.257,1.641,-0.037
30.75,-0.023,0.891,0.117
30.76,-0.184,0.786,0.013
30.77,-0.404,0.868,-0.21
30.78,-0.291,1.241,0.06
30.79,-0.228,1.17,0.203
30.8,-0.012,0.583,0.035
30.81,-0.532,0.995,-0.194
30.82,0.011,1.458,0.052
30.83,-0.124,1.073,0.097
30.84,0.013,0.672,-0.003
30.85,-0.401,0.63,-0.178
30.86,-0.178,1.987,0.107
30.87,-0.015,0.626,0.07
30.88,-0.142,0.965,-0.006
30.89,-0.363,0.356,-0.229
30.9,-0.186,2.0,0.126
30.91,-0.049,0.811,0.105
30.92,-0.078,0.6,-0.019
30.93,-0.401,0.798,-0.256
30.94,-0.041,1.516,0.123
30.95,-0.19,1.251,0.078
30.96,0.097,0.396,-0.054
30.97,-0.497,0.957,-0.2
30.98,-0.044,1.463,0.229
30.99,-0.182,1.217,0.052
31.0,0.002,0.651,-0.089
31.01,-0.446,0.554,-0.155
31.02,-0.185,1.648,0.237
31.03,-0.11,0.848,0.071
31.04,-0.178,1.005,-0.079
31.05,-0.387,0.168,-0.185
31.06,-0.19,1.543,0.181
31.07,-0.216,0.95,0.059
31.08,-0.172,0.783,-0.094
31.09,-0.416,0.665,-0.176
31.1,-0.047,1.034,0.188
31.11,-0.24,1.38,-0.004
31.12,-0.077,0.367,-0.101
31.13,-0.438,1.157,-0.053
31.14,-0.053,0.849,0.213
31.15,-0.352,1.31,0.12
31.16,-0.169,0.312,-0.165
31.17,-0.395,1.196,-0.019
31.18,-0.01,1.031,0.108
31.19,-0.251,0.892,0.05
31.2,-0.345,0.791,-0.159
31.21,-0.315,0.764,-0.021
31.22,-0.186,1.3,0.153
31.23,-0.193,0.679,0.012
31.24,-0.339,0.894,-0.203
31.25,-0.15,1.163,-0.005
31.26,-0.193,1.08,0.151
31.27,-0.196,0.904,0.014
31.28,-0.404,0.52,-0.101
31.29,-0.288,1.657,0.078
31.3,-0.079,0.613,0.122
31.31,-0.168,1.163,-0.002
31.32,-0.38,0.365,-0.233
31.33,-0.188,1.673,0.068
31.34,-0.149,0.874,0.116
31.35,-0.077,0.701,-0.026
31.36,-0.426,0.852,-0.179
31.37,-0.113,1.48,0.087
31.38,-0.145,1.226,0.194
31.39,-0.006,0.359,0.006
31.4,-0.528,0.99,-0.15
31.41,-0.088,1.707,0.138
31.42,-0.194,1.069,0.135
31.43,-0.114,0.597,0.007
31.44,-0.4,0.595,-0.149
31.45,-0.158,2.0,0.096
31.46,-0.036,0.695,0.127
31.47,-0.134,0.906,-0.054
31.48,-0.34,0.267,-0.208
31.49,-0.2,1.864,0.092
31.5,-0.097,0.924,0.096
31.51,-0.094,0.722,-0.064
31.52,-0.483,0.663,-0.175
31.53,-0.041,1.339,0.147
31.54,-0.319,1.424,0.053
31.55,-0.018,0.396,-0.072
31.56,-0.513,0.965,-0.155
31.57,0.001,1.131,0.124
31.58,-0.339,1.216,0.105
31.59,-0.104,0.799,-0.072
31.6,-0.507,0.496,-0.064
31.61,-0.115,1.375,0.212
31.62,-0.172,0.821,0.026
31.63,-0.242,1.033,-0.078
31.64,-0.332,0.347,-0.139
31.65,-0.11,1.342,0.151
31.66,-0.134,0.854,-0.061
31.67,-0.2,0.71,-0.122
31.68,-0.359,1.016,-0.083
31.69,-0.009,0.962,0.149
31.7,-0.344,1.247,0.016
31.71,-0.15,0.326,-0.092
31.72,-0.407,1.403,-0.045
31.73,-0.001,0.864,0.126
31.74,-0.252,1.129,-0.046
31.75,-0.305,0.557,-0.199
31.76,-0.221,1.125,-0.055
31.77,-0.128,1.139,0.134
31.78,-0.064,0.655,-0.028
31.79,-0.408,1.035,-0.217
31.8,-0.152,1.219,0.011
31.81,-0.18,1.184,0.213
31.82,-0.078,0.666,0.093
31.83,-0.547,0.88,-0.143
31.84,-0.276,1.592,0.086
31.85,-0.103,0.751,0.139
31.86,-0.174,1.046,0.018
31.87,-0.354,0.417,-0.144
31.88,-0.327,2.0,0.107
31.89,0.045,0.686,0.15
31.9,-0.169,0.857,0.013
31.91,-0.332,0.559,-0.176
31.92,-0.144,1.739,0.109
31.93,-0.076,0.848,0.037
31.94,-0.084,0.656,-0.079
31.95,-0.43,0.867,-0.209
31.96,-0.05,1.581,0.18
31.97,-0.245,1.365,0.121
31.98,0.009,0.211,0.001
31.99,-0.584,0.936,-0.152
32.0,-0.063,1.283,0.2
32.01,-0.354,1.125,0.128
32.02,-0.104,0.821,-0.065
32.03,-0.457,0.396,-0.1
32.04,-0.15,1.633,0.245
32.05,-0.196,0.891,0.133
32.06,-0.193,1.051,-0.076
32.07,-0.396,0.238,-0.118
32.08,-0.09,1.422,0.206
32.09,-0.182,1.018,0.003
32.1,-0.102,0.734,-0.115
32.11,-0.44,0.831,-0.144
32.12,-0.021,1.0,0.232
32.13,-0.317,1.229,0.009
32.14,-0.17,0.354,-0.141
32.15,-0.449,1.13,-0.058
32.16,-0.061,0.915,0.173
32.17,-0.258,1.138,0.032
32.18,-0.228,0.581,-0.118
32.19,-0.301,1.003,-0.052
32.2,-0.119,1.236,0.196
32.21,-0.126,0.639,0.025
32.22,-0.47,1.032,-0.142
32.23,-0.246,0.949,0.022
32.24,-0.166,1.231,0.152
32.25,-0.146,0.772,0.005
32.26,-0.36,0.732,-0.214
32.27,-0.26,1.505,0.017
32.28,-0.025,0.836,0.095
32.29,-0.228,1.111,-0.007
32.3,-0.33,0.352,-0.218
32.31,-0.271,1.85,0.0
32.32,-0.074,0.682,0.131
32.33,-0.155,0.992,0.034
32.34,-0.425,0.652,-0.208
32.35,-0.231,1.59,0.055
32.36,-0.171,1.0,0.054
32.37,0.085,0.461,-0.015
32.38,-0.543,1.077,-0.163
32.39,-0.068,1.522,0.171
32.4,-0.195,1.179,0.098
32.41,-0.013,0.465,0.005
32.42,-0.448,0.75,-0.189
32.43,-0.053,1.921,0.085
32.44,-0.086,0.846,0.084
32.45,-0.148,0.834,-0.05
32.46,-0.385,0.287,-0.187
32.47,-0.152,1.961,0.085
32.48,-0.084,0.802,0.084
32.49,-0.12,0.896,-0.088
32.5,-0.356,0.455,-0.156
32.51,-0.126,1.504,0.226
32.52,-0.224,1.253,0.114
32.53,-0.081,0.481,-0.12
32.54,-0.499,1.013,-0.117
32.55,-0.007,1.029,0.181
32.56,-0.303,1.412,0.079
32.57,-0.061,0.525,-0.091
32.58,-0.445,0.787,-0.087
32.59,-0.022,1.175,0.127
32.6,-0.177,0.923,-0.033
32.61,-0.273,0.931,-0.121
32.62,-0.298,0.441,-0.087
32.63,-0.152,1.314,0.135
32.64,-0.194,0.765,-0.039
32.65,-0.333,0.796,-0.1
32.66,-0.265,0.929,-0.029
32.67,-0.102,1.016,0.142
32.68,-0.267,1.142,-0.016
32.69,-0.208,0.429,-0.175
32.7,-0.268,1.639,0.011
32.71,-0.003,0.744,0.148
32.72,-0.3,1.12,-0.015
32.73,-0.404,0.363,-0.301
32.74,-0.219,1.92,0.099
32.75,-0.148,0.696,0.087
32.76,-0.107,0.849,0.013
32.77,-0.453,0.688,-0.18
32.78,-0.156,1.63,0.109
32.79,-0.129,1.093,0.092
32.8,0.024,0.373,-0.04
32.81,-0.518,0.976,-0.151
32.82,0.039,1.562,0.08
32.83,-0.136,1.191,0.067
32.84,0.028,0.542,-0.028
32.85,-0.48,0.653,-0.178
32.86,-0.102,1.689,0.131
32.87,-0.123,0.863,0.024
32.88,-0.148,0.964,-0.101
32.89,-0.366,0.18,-0.158
32.9,-0.221,1.635,0.193
32.91,-0.153,0.809,0.061
32.92,-0.166,0.941,-0.093
32.93,-0.405,0.527,-0.125
32.94,-0.084,1.073,0.267
32.95,-0.35,1.259,0.039
32.96,-0.042,0.409,-0.096
32.97,-0.488,1.14,-0.079
32.98,0.037,0.845,0.134
32.99,-0.344,1.244,-0.034
33.0,-0.178,0.462,-0.188
33.01,-0.33,1.072,-0.038
33.02,-0.026,1.095,0.14
33.03,-0.176,0.786,0.05
33.04,-0.48,0.914,-0.196
33.05,-0.191,0.858,0.008
33.06,-0.237,1.223,0.155
33.07,-0.097,0.753,0.037
33.08,-0.494,0.891,-0.205
33.09,-0.178,1.265,0.084
33.1,-0.141,0.909,0.112
33.11,-0.119,0.995,-0.005
33.12,-0.399,0.42,-0.221
33.13,-0.224,1.987,0.075
33.14,-0.008,0.694,0.106
33.15,-0.089,0.981,0.005
33.16,-0.347,0.449,-0.273
33.17,-0.105,1.828,0.101
33.18,-0.052,1.0,0.069
33.19,-0.021,0.397,-0.074
33.2,-0.413,1.007,-0.255
33.21,0.04,1.578,0.112
33.22,-0.19,1.247,0.091
33.23,0.031,0.418,0.016
33.24,-0.549,0.868,-0.167
33.25,-0.047,1.561,0.187
33.26,-0.184,1.126,0.088
33.27,-0.111,0.789,-0.099
33.28,-0.353,0.32,-0.151
33.29,-0.191,1.764,0.194
33.3,-0.081,0.748,0.073
33.31,-0.152,0.996,-0.157
33.32,-0.377,0.279,-0.148
33.33,-0.14,1.398,0.156
33.34,-0.153,1.093,-0.091
33.35,-0.12,0.581,-0.154
33.36,-0.396,0.935,-0.149
33.37,0.045,0.959,0.197
33.38,-0.293,1.316,-0.017
33.39,-0.116,0.391,-0.14
33.4,-0.436,1.046,-0.047
33.41,-0.055,0.944,0.193
33.42,-0.229,1.053,0.019
33.43,-0.289,0.666,-0.15
33.44,-0.315,0.817,-0.016
33.45,-0.093,1.298,0.145
33.46,-0.127,0.677,0.048
33.47,-0.406,1.037,-0.165
33.48,-0.23,0.951,-0.044
33.49,-0.106,1.084,0.11
33.5,-0.202,0.924,-0.005
33.51,-0.382,0.538,-0.203
33.52,-0.188,1.67,0.083
33.53,-0.119,0.723,0.161
33.54,-0.029,0.903,0.006
33.55,-0.424,0.389,-0.182
33.56,-0.151,2.0,0.087
33.57,-0.034,0.639,0.108
33.58,-0.14,0.9,-0.003
33.59,-0.397,0.48,-0.203
33.6,-0.19,1.889,0.145
33.61,-0.16,0.899,0.111
33.62,-0.014,0.451,0.008
33.63,-0.385,0.997,-0.187
33.64,-0.124,1.423,0.079
33.65,-0.195,1.344,0.118
33.66,-0.098,0.434,-0.015
33.67,-0.413,0.836,-0.134
33.68,-0.104,1.487,0.228
33.69,-0.094,1.027,0.09
33.7,-0.15,0.909,-0.11
33.71,-0.32,0.279,-0.175
33.72,-0.177,1.738,0.162
33.73,-0.162,0.839,0.036
33.74,-0.129,0.975,-0.093
33.75,-0.407,0.271,-0.199
33.76,-0.037,1.316,0.181
33.77,-0.276,1.096,-0.024
33.78,-0.087,0.633,-0.132
33.79,-0.53,0.917,-0.103
33.8,0.017,0.939,0.221
33.81,-0.31,1.361,0.071
33.82,-0.14,0.402,-0.164
33.83,-0.374,1.053,-0.029
33.84,-0.026,1.012,0.177
33.85,-0.182,1.009,-0.012
33.86,-0.297,0.729,-0.16
33.87,-0.263,0.815,-0.023
33.88,-0.148,1.314,0.112
33.89,-0.097,0.671,0.016
33.9,-0.391,1.052,-0.206
33.91,-0.256,0.956,-0.041
33.92,-0.163,1.036,0.139
33.93,-0.211,1.0,0.015
33.94,-0.337,0.544,-0.179
33.95,-0.282,1.698,0.098
33.96,-0.11,0.735,0.178
33.97,-0.145,1.097,0.034
33.98,-0.299,0.347,-0.235
33.99,-0.23,1.863,0.029
34.0,-0.021,0.787,0.079
34.01,-0.043,0.758,-0.029
34.02,-0.382,0.785,-0.217
34.03,-0.12,1.508,0.108
34.04,-0.181,1.143,0.096
34.05,0.019,0.381,-0.001
34.06,-0.449,1.065,-0.177
34.07,-0.057,1.613,0.094
34.08,-0.188,1.035,0.065
34.09,0.047,0.569,-0.062
34.1,-0.406,0.655,-0.186
34.11,-0.15,1.806,0.115
34.12,-0.039,0.765,0.048
34.13,-0.111,0.934,-0.08
34.14,-0.386,0.213,-0.117
34.15,-0.137,1.765,0.187
34.16,-0.201,0.901,0.062
34.17,-0.062,0.803,-0.097
34.18,-0.505,0.585,-0.177
34.19,0.021,1.242,0.197
34.2,-0.297,1.359,0.032
34.21,-0.035,0.411,-0.085
34.22,-0.51,1.014,-0.114
34.23,0.012,0.994,0.136
34.24,-0.248,1.221,-0.007
34.25,-0.138,0.635,-0.146
34.26,-0.434,0.628,-0.091
34.27,-0.102,1.269,0.168
34.28,-0.215,0.766,-0.028
34.29,-0.348,0.909,-0.109
34.3,-0.216,0.498,-0.05
34.31,-0.18,1.28,0.15
34.32,-0.165,0.825,-0.011
34.33,-0.322,0.684,-0.136
34.34,-0.172,1.3,-0.006
34.35,-0.098,1.074,0.184
34.36,-0.155,0.824,0.05
34.37,-0.35,0.654,-0.175
34.38,-0.265,1.848,0.077
34.39,0.028,0.706,0.177
34.4,-0.23,1.059,0.068
34.41,-0.332,0.326,-0.217
34.42,-0.271,1.894,0.093
34.43,-0.037,0.812,0.112
34.44,-0.075,0.68,0.017
34.45,-0.424,0.894,-0.205
34.46,-0.143,1.494,0.133
34.47,-0.147,1.154,0.164
34.48,0.008,0.352,0.024
34.49,-0.467,1.064,-0.172
34.5,-0.092,1.573,0.171
34.51,-0.275,1.078,0.121
34.52,0.013,0.61,-0.014
34.53,-0.406,0.551,-0.178
34.54,-0.105,1.709,0.169
34.55,-0.115,0.771,0.076
34.56,-0.146,0.999,-0.054
34.57,-0.367,0.164,-0.143
34.58,-0.125,1.802,0.209
34.59,-0.175,0.981,0.068
34.6,-0.084,0.759,-0.091
34.61,-0.5,0.629,-0.15
34.62,-0.023,1.24,0.213
34.63,-0.313,1.415,0.068
34.64,0.048,0.375,-0.087
34.65,-0.579,1.001,-0.132
34.66,0.022,0.913,0.192
34.67,-0.349,1.198,-0.012
34.68,-0.148,0.656,-0.106
34.69,-0.462,0.599,-0.124
34.7,-0.145,1.258,0.156
34.71,-0.104,0.773,0.011
34.72,-0.331,0.892,-0.137
34.73,-0.297,0.602,-0.014
34.74,-0.114,1.299,0.135
34.75,-0.153,0.856,0.025
34.76,-0.307,0.678,-0.143
34.77,-0.221,1.215,-0.092
34.78,-0.027,0.879,0.062
34.79,-0.307,1.231,-0.045
34.8,-0.191,0.324,-0.214
34.81,-0.327,1.661,-0.032
34.82,0.003,0.739,0.147
34.83,-0.268,1.087,0.028
34.84,-0.329,0.585,-0.187
34.85,-0.251,1.458,0.004
34.86,-0.163,1.153,0.168
34.87,-0.057,0.521,0.024
34.88,-0.411,1.054,-0.188
34.89,-0.216,1.339,0.11
34.9,-0.189,1.116,0.16
34.91,0.01,0.575,0.04
34.92,-0.437,0.885,-0.124
34.93,-0.109,1.794,0.104
34.94,-0.175,0.761,0.126
34.95,-0.036,0.897,0.006
34.96,-0.389,0.351,-0.184
34.97,-0.107,2.0,0.124
34.98,-0.073,0.7,0.063
34.99,-0.132,0.763,-0.032
35.0,-0.369,0.431,-0.174
35.01,-0.118,1.796,0.134
35.02,-0.163,1.099,0.051
35.03,-0.005,0.435,-0.088
35.04,-0.539,0.927,-0.133
35.05,-0.052,1.358,0.221
35.06,-0.27,1.353,0.069
35.07,-0.024,0.471,-0.076
35.08,-0.42,0.784,-0.187
35.09,0.023,1.323,0.08
35.1,-0.271,0.998,0.068
35.11,-0.179,0.903,-0.124
35.12,-0.317,0.277,-0.112
35.13,-0.188,1.465,0.155
35.14,-0.146,0.753,0.002
35.15,-0.49,0.959,-0.144
35.16,-0.319,0.498,0.01
35.17,-0.122,1.344,0.138
35.18,-0.222,0.889,0.015
35.19,-0.324,0.71,-0.101
35.2,-0.331,1.208,-0.067
35.21,0.01,0.892,0.179
35.22,-0.256,1.259,-0.026
35.23,-0.213,0.274,-0.218
35.24,-0.219,1.764,-0.047
35.25,0.037,0.832,0.154
35.26,-0.213,0.986,0.054
35.27,-0.349,0.61,-0.174
35.28,-0.305,1.414,0.03
35.29,-0.144,1.091,0.143
35.3,-0.075,0.562,0.064
35.31,-0.517,1.048,-0.173
35.32,-0.178,1.359,0.097
35.33,-0.182,1.212,0.182
35.34,-0.025,0.538,0.053
35.35,-0.47,0.855,-0.17
35.36,-0.102,1.843,0.068
35.37,-0.133,0.705,0.11
35.38,0.045,0.969,-0.042
35.39,-0.481,0.349,-0.219
35.4,-0.128,2.0,0.144
35.41,-0.163,0.656,0.079
35.42,-0.084,0.782,0.035
35.43,-0.425,0.55,-0.208
35.44,-0.16,1.752,0.157
35.45,-0.19,1.07,0.126
35.46,0.02,0.41,-0.039
35.47,-0.484,0.991,-0.152
35.48,0.033,1.332,0.12
35.49,-0.322,1.302,0.065
35.5,-0.019,0.483,-0.053
35.51,-0.476,0.807,-0.115
35.52,-0.049,1.423,0.192
35.53,-0.186,0.932,0.031
35.54,-0.185,0.877,-0.107
35.55,-0.331,0.299,-0.125
35.56,-0.244,1.478,0.181
35.57,-0.148,0.738,0.053
35.58,-0.391,0.97,-0.133
35.59,-0.369,0.482,-0.106
35.6,-0.158,1.165,0.221
35.61,-0.29,1.151,0.039
35.62,-0.193,0.432,-0.151
35.63,-0.428,1.11,-0.077
35.64,0.023,0.937,0.192
35.65,-0.28,1.247,0.032
35.66,-0.238,0.338,-0.142
35.67,-0.284,1.116,-0.05
35.68,-0.096,1.026,0.193
35.69,-0.121,0.906,0.037
35.7,-0.387,0.82,-0.163
35.71,-0.223,0.807,-0.039
35.72,-0.175,1.296,0.183
35.73,-0.128,0.677,0.038
35.74,-0.419,0.951,-0.195
35.75,-0.175,1.11,-0.046
35.76,-0.107,1.068,0.108
35.77,-0.157,0.971,0.019
35.78,-0.338,0.583,-0.188
35.79,-0.302,1.801,0.035
35.8,-0.027,0.713,0.16
35.81,-0.252,1.068,0.063
35.82,-0.368,0.42,-0.207
35.83,-0.297,1.796,0.077
35.84,-0.1,0.848,0.136
35.85,-0.064,0.708,0.038
35.86,-0.517,0.904,-0.188
35.87,-0.156,1.413,0.124
35.88,-0.199,1.119,0.137
35.89,0.123,0.437,0.029
35.9,-0.485,1.073,-0.208
35.91,-0.042,1.55,0.089
35.92,-0.096,1.137,0.131
35.93,-0.087,0.575,-0.019
35.94,-0.385,0.619,-0.161
35.95,-0.163,1.541,0.143
35.96,-0.134,0.825,0.115
35.97,-0.123,0.958,-0.108
35.98,-0.438,0.268,-0.126
35.99,-0.144,1.8,0.165
36.0,-0.135,0.82,0.131
36.01,-0.184,0.92,-0.086
36.02,-0.426,0.406,-0.18
36.03,-0.056,1.49,0.127
36.04,-0.205,1.143,0.002
36.05,-0.05,0.496,-0.121
36.06,-0.392,0.943,-0.23
36.07,-0.015,1.02,0.116
36.08,-0.322,1.313,0.017
36.09,-0.115,0.448,-0.1
36.1,-0.467,0.836,-0.159
36.11,-0.105,1.17,0.143
36.12,-0.133,0.968,0.023
36.13,-0.314,0.892,-0.129
36.14,-0.367,0.349,-0.122
36.15,-0.168,1.438,0.18
36.16,-0.09,0.761,0.043
36.17,-0.161,0.769,-0.057
36.18,-0.363,0.255,-0.179
36.19,-0.106,1.543,0.149
36.2,-0.195,1.119,0.033
36.21,-0.052,0.608,-0.116
36.22,-0.465,0.866,-0.147
36.23,0.005,0.973,0.165
36.24,-0.343,1.375,0.084
36.25,-0.112,0.404,-0.097
36.26,-0.422,0.951,-0.145
36.27,-0.06,0.987,0.159
36.28,-0.231,1.115,0.031
36.29,-0.307,0.703,-0.146
36.3,-0.409,0.482,-0.075
36.31,-0.164,1.381,0.208
36.32,-0.104,0.715,0.042
36.33,-0.349,0.882,-0.1
36.34,-0.335,0.666,-0.061
36.35,-0.073,1.273,0.15
36.36,-0.2,0.896,-0.004
36.37,-0.345,0.611,-0.099
36.38,-0.282,1.29,-0.079
36.39,-0.085,0.825,0.192
36.4,-0.278,1.235,0.072
36.41,-0.316,0.354,-0.19
36.42,-0.316,1.37,-0.077
36.43,-0.034,0.841,0.061
36.44,-0.182,1.034,-0.029
36.45,-0.3,0.639,-0.171
36.46,-0.218,1.162,0.027
36.47,-0.123,1.18,0.214
36.48,-0.099,0.588,0.028
36.49,-0.49,0.995,-0.182
36.5,-0.179,1.209,0.071
36.51,-0.186,1.094,0.208
36.52,-0.111,0.727,-0.003
36.53,-0.435,0.746,-0.196
36.54,-0.261,1.713,0.043
36.55,-0.013,0.793,0.159
36.56,-0.052,0.743,-0.002
36.57,-0.387,0.492,-0.196
36.58,-0.221,2.0,0.142
36.59,0.042,0.664,0.141
36.6,-0.209,0.901,0.031
36.61,-0.298,0.352,-0.203
36.62,-0.139,1.951,0.089
36.63,-0.101,0.967,0.105
36.64,-0.026,0.495,-0.03
36.65,-0.556,0.883,-0.218
36.66,-0.001,1.535,0.114
36.67,-0.308,1.296,0.106
36.68,0.048,0.433,0.007
36.69,-0.521,0.939,-0.171
36.7,-0.057,1.321,0.213
36.71,-0.24,1.142,0.089
36.72,-0.072,0.76,-0.082
36.73,-0.385,0.36,-0.167
36.74,-0.181,1.643,0.14
36.75,-0.162,0.738,0.087
36.76,-0.158,1.108,-0.097
36.77,-0.443,0.202,-0.122
36.78,-0.128,1.41,0.166
36.79,-0.183,1.042,0.071
36.8,-0.15,0.68,-0.099
36.81,-0.443,0.801,-0.189
36.82,-0.073,1.006,0.249
36.83,-0.297,1.378,0.111
36.84,-0.129,0.339,-0.083
36.85,-0.562,1.075,-0.102
36.86,-0.061,1.037,0.174
36.87,-0.153,0.987,0.007
36.88,-0.239,0.707,-0.133
36.89,-0.46,0.614,-0.07
36.9,-0.188,1.333,0.117
36.91,-0.089,0.691,0.091
36.92,-0.43,0.885,-0.112
36.93,-0.323,0.575,0.014
36.94,-0.212,1.233,0.224
36.95,-0.222,0.889,0.043
36.96,-0.28,0.61,-0.118
36.97,-0.411,1.134,-0.043
36.98,-0.055,0.887,0.141
36.99,-0.338,1.286,0.032
37.0,-0.169,0.28,-0.19
37.01,-0.387,1.404,-0.038
37.02,-0.066,0.823,0.14
37.03,-0.323,1.108,0.007
37.04,-0.313,0.617,-0.155
37.05,-0.306,1.09,0.008
37.06,-0.111,1.243,0.158
37.07,-0.121,0.637,-0.04
37.08,-0.432,1.053,-0.229
37.09,-0.198,1.029,0.052
37.1,-0.129,1.167,0.176
37.11,-0.208,0.711,0.041
37.12,-0.409,0.83,-0.152
37.13,-0.27,1.671,0.047
37.14,0.016,0.875,0.167
37.15,-0.21,0.967,0.045
37.16,-0.311,0.356,-0.237
37.17,-0.347,1.971,0.071
37.18,0.033,0.803,0.136
37.19,-0.13,0.784,-0.002
37.2,-0.343,0.676,-0.206
37.21,-0.185,1.716,0.136
37.22,-0.082,1.05,0.091
37.23,-0.02,0.39,-0.015
37.24,-0.434,1.088,-0.226
37.25,-0.022,1.58,0.077
37.26,-0.143,1.218,0.099
37.27,0.033,0.452,-0.01
37.28,-0.425,0.831,-0.224
37.29,-0.146,1.737,0.112
37.3,-0.109,0.822,0.072
37.31,-0.049,0.954,-0.048
37.32,-0.443,0.262,-0.182
37.33,-0.156,1.966,0.148
37.34,-0.105,0.786,0.077
37.35,-0.141,0.842,-0.056
37.36,-0.391,0.198,-0.175
37.37,-0.164,1.537,0.211
37.38,-0.187,0.991,0.043
37.39,-0.123,0.682,-0.108
37.4,-0.409,0.813,-0.177
37.41,-0.014,1.061,0.144
37.42,-0.333,1.33,-0.005
37.43,0.002,0.452,-0.097
37.44,-0.482,0.978,-0.176
37.45,0.06,1.003,0.13
37.46,-0.284,1.134,-0.014
37.47,-0.136,0.712,-0.173
37.48,-0.46,0.552,-0.106
37.49,-0.119,1.324,0.2
37.5,-0.165,0.739,0.022
37.51,-0.31,0.945,-0.105
37.52,-0.38,0.531,-0.029
37.53,-0.135,1.267,0.178
37.54,-0.208,0.856,0.032
37.55,-0.27,0.612,-0.154
37.56,-0.299,1.225,-0.08
37.57,-0.043,0.919,0.171
37.58,-0.32,1.178,0.049
37.59,-0.18,0.333,-0.243
37.6,-0.347,1.445,-0.047
37.61,-0.036,0.807,0.092
37.62,-0.21,1.108,-0.031
37.63,-0.298,0.581,-0.232
37.64,-0.156,1.184,-0.005
37.65,-0.114,1.111,0.132
37.66,-0.079,0.62,0.019
37.67,-0.495,1.061,-0.191
37.68,-0.147,1.155,0.054
37.69,-0.134,1.195,0.182
37.7,-0.09,0.691,0.045
37.71,-0.51,0.874,-0.153
37.72,-0.281,1.629,0.077
37.73,-0.121,0.76,0.203
37.74,-0.138,1.024,0.039
37.75,-0.368,0.391,-0.158
37.76,-0.215,1.976,0.042
37.77,0.05,0.751,0.154
37.78,-0.139,0.8,-0.027
37.79,-0.457,0.627,-0.134
37.8,-0.156,1.75,0.08
37.81,-0.165,1.006,0.079
37.82,0.048,0.433,-0.021
37.83,-0.489,1.083,-0.222
37.84,-0.028,1.499,0.138
37.85,-0.189,1.308,0.14
37.86,0.028,0.383,0.019
37.87,-0.43,0.852,-0.196
37.88,-0.112,1.664,0.09
37.89,-0.056,0.89,0.068
37.9,-0.144,0.968,-0.103
37.91,-0.245,0.269,-0.161
37.92,-0.218,1.934,0.148
37.93,-0.085,0.848,0.092
37.94,-0.14,0.888,-0.086
37.95,-0.301,0.525,-0.218
37.96,-0.125,1.483,0.167
37.97,-0.187,1.197,0.08
37.98,-0.012,0.522,-0.103
37.99,-0.491,0.86,-0.167
38.0,-0.019,1.117,0.166
38.01,-0.343,1.297,0.105
38.02,-0.14,0.542,-0.056
38.03,-0.414,0.791,-0.101
38.04,-0.165,1.167,0.219
38.05,-0.122,1.028,0.01
38.06,-0.199,0.912,-0.097
38.07,-0.294,0.368,-0.122
38.08,-0.159,1.406,0.202
38.09,-0.149,0.712,-0.012
38.1,-0.327,0.971,-0.134
38.11,-0.292,0.62,-0.104
38.12,-0.103,1.145,0.141
38.13,-0.226,1.045,-0.037
38.14,-0.202,0.384,-0.235
38.15,-0.336,1.297,-0.01
38.16,-0.039,0.844,0.164
38.17,-0.293,1.159,0.049
38.18,-0.286,0.38,-0.18
38.19,-0.289,1.729,0.041
38.2,-0.009,0.76,0.222
38.21,-0.291,1.047,0.113
38.22,-0.405,0.602,-0.212
38.23,-0.274,1.372,0.055
38.24,-0.182,1.035,0.167
38.25,-0.009,0.607,0.011
38.26,-0.48,0.962,-0.285
38.27,-0.102,1.268,0.053
38.28,-0.144,1.18,0.109
38.29,0.115,0.536,0.027
38.3,-0.585,0.91,-0.193
38.31,-0.071,1.758,0.13
38.32,-0.195,0.729,0.144
38.33,-0.027,0.966,-0.028
38.34,-0.452,0.299,-0.206
38.35,-0.178,2.0,0.146
38.36,-0.126,0.728,0.112
38.37,-0.163,0.784,0.021
38.38,-0.481,0.474,-0.207
38.39,-0.118,1.748,0.154
38.4,-0.176,1.154,0.124
38.41,-0.027,0.379,-0.024
38.42,-0.433,1.024,-0.213
38.43,-0.063,1.302,0.159
38.44,-0.237,1.371,0.1
38.45,0.023,0.535,-0.075
38.46,-0.523,0.785,-0.186
38.47,-0.051,1.406,0.115
38.48,-0.188,1.013,0.072
38.49,-0.167,0.986,-0.082
38.5,-0.478,0.238,-0.076
38.51,-0.212,1.494,0.267
38.52,-0.186,0.912,0.06
38.53,-0.242,0.878,-0.078
38.54,-0.371,0.516,-0.079
38.55,-0.177,1.155,0.211
38.56,-0.327,1.089,-0.022
38.57,-0.111,0.506,-0.114
38.58,-0.435,1.114,-0.044
38.59,-0.031,0.814,0.182
38.6,-0.326,1.259,0.018
38.61,-0.234,0.332,-0.148
38.62,-0.333,1.134,-0.018
38.63,0.049,0.987,0.104
38.64,-0.152,0.893,-0.052
38.65,-0.329,0.755,-0.189
38.66,-0.069,1.129,-0.026
38.67,-0.166,1.27,0.179
38.68,-0.079,0.53,0.016
38.69,-0.557,1.058,-0.202
38.7,-0.168,1.257,0.028
38.71,-0.175,0.997,0.154
38.72,-0.105,0.861,0.02
38.73,-0.557,0.549,-0.18
38.74,-0.151,1.893,0.097
38.75,-0.055,0.702,0.168
38.76,-0.102,0.983,0.031
38.77,-0.396,0.358,-0.19
38.78,-0.229,1.956,0.097
38.79,0.01,0.748,0.051
38.8,-0.073,0.691,-0.063
38.81,-0.448,0.776,-0.248
38.82,-0.087,1.609,0.114
38.83,-0.208,1.244,0.077
38.84,0.101,0.291,-0.017
38.85,-0.572,1.073,-0.204
38.86,-0.073,1.42,0.153
38.87,-0.194,1.178,0.098
38.88,-0.035,0.658,-0.059
38.89,-0.417,0.522,-0.13
38.9,-0.193,1.722,0.202
38.91,-0.141,0.817,0.08
38.92,-0.217,0.958,-0.079
38.93,-0.36,0.28,-0.123
38.94,-0.226,1.602,0.226
38.95,-0.154,0.927,0.108
38.96,-0.183,0.727,-0.122
38.97,-0.373,0.433,-0.167
38.98,-0.116,1.184,0.222
38.99,-0.253,1.033,-0.016
39.0,-0.22,0.464,-0.2
39.01,-0.44,1.103,-0.013
39.02,-0.018,0.859,0.228
39.03,-0.353,1.363,0.025
39.04,-0.16,0.224,-0.121
39.05,-0.277,1.421,-0.09
39.06,0.006,1.042,0.174
39.07,-0.154,0.842,-0.007
39.08,-0.292,0.944,-0.268
39.09,-0.208,0.935,-0.057
39.1,-0.175,1.242,0.129
39.11,-0.113,0.688,0.024
39.12,-0.396,0.957,-0.259
39.13,-0.271,1.069,0.014
39.14,-0.178,1.025,0.159
39.15,-0.204,0.95,0.041
39.16,-0.284,0.569,-0.178
39.17,-0.318,1.827,0.105
39.18,-0.064,0.698,0.192
39.19,-0.17,1.092,0.063
39.2,-0.365,0.372,-0.201
39.21,-0.165,1.862,0.087
39.22,-0.143,0.773,0.12
39.23,0.002,0.689,-0.047
39.24,-0.418,0.828,-0.24
39.25,-0.058,1.492,0.044
39.26,-0.166,1.171,0.081
39.27,0.09,0.312,-0.029
39.28,-0.405,1.095,-0.221
39.29,-0.059,1.553,0.072
39.3,-0.21,1.101,0.099
39.31,-0.035,0.646,-0.021
39.32,-0.401,0.56,-0.165
39.33,-0.097,1.933,0.12
39.34,-0.177,0.833,0.11
39.35,-0.167,0.896,-0.083
39.36,-0.377,0.284,-0.123
39.37,-0.18,1.846,0.191
39.38,-0.168,0.926,0.104
39.39,-0.093,0.72,-0.093
39.4,-0.43,0.613,-0.182
39.41,0.013,1.326,0.171
39.42,-0.357,1.364,0.061
39.43,0.022,0.434,-0.077
39.44,-0.523,0.927,-0.158
39.45,0.074,1.072,0.183
39.46,-0.321,1.253,0.012
39.47,-0.075,0.714,-0.108
39.48,-0.426,0.553,-0.124
39.49,-0.111,1.27,0.18
39.5,-0.175,0.873,0.012
39.51,-0.348,0.952,-0.117
39.52,-0.377,0.41,-0.021
39.53,-0.147,1.322,0.169
39.54,-0.261,0.812,0.072
39.55,-0.261,0.764,-0.092
39.56,-0.386,1.064,-0.056
39.57,-0.001,0.964,0.184
39.58,-0.316,1.253,0.041
39.59,-0.225,0.286,-0.166
39.6,-0.376,1.469,-0.068
39.61,-0.047,0.787,0.123
39.62,-0.238,1.176,0.041
39.63,-0.269,0.5,-0.218
39.64,-0.258,1.372,0.009
39.65,-0.126,1.107,0.125
39.66,-0.093,0.651,0.01
39.67,-0.516,0.974,-0.186
39.68,-0.125,1.25,0.017
39.69,-0.276,1.112,0.183
39.7,0.018,0.606,0.046
39.71,-0.488,0.908,-0.203
39.72,-0.153,1.678,0.087
39.73,-0.129,0.871,0.198
39.74,-0.118,0.849,-0.005
39.75,-0.318,0.426,-0.171
39.76,-0.254,2.0,0.134
39.77,-0.106,0.662,0.103
39.78,-0.142,0.905,-0.032
39.79,-0.351,0.349,-0.182
39.8,-0.186,1.963,0.116
39.81,-0.087,0.883,0.077
39.82,-0.134,0.645,-0.072
39.83,-0.43,0.708,-0.151
39.84,-0.083,1.409,0.168
39.85,-0.207,1.392,0.092
39.86,-0.035,0.415,-0.056
39.87,-0.479,0.998,-0.151
39.88,0.005,1.255,0.14
39.89,-0.22,1.192,0.015
39.9,-0.056,0.655,-0.11
39.91,-0.385,0.568,-0.118
39.92,-0.163,1.355,0.187
39.93,-0.06,0.819,-0.07
39.94,-0.334,0.97,-0.127
39.95,-0.326,0.352,-0.109
39.96,-0.139,1.361,0.184
39.97,-0.141,0.875,-0.019
39.98,-0.328,0.674,-0.131
39.99,-0.383,0.95,-0.075
40.0,-0.022,1.043,0.22
40.01,-0.369,1.25,0.061
40.02,-0.218,0.258,-0.085
40.03,-0.418,1.417,-0.022
40.04,0.027,0.862,0.132
40.05,-0.23,1.149,-0.076
40.06,-0.265,0.576,-0.196
40.07,-0.301,1.166,-0.025
40.08,-0.088,1.142,0.127
40.09,-0.188,0.687,0.034
40.1,-0.358,1.0,-0.199
40.11,-0.289,1.087,0.023
40.12,-0.12,1.2,0.19
40.13,-0.181,0.704,0.065
40.14,-0.413,0.817,-0.172
40.15,-0.221,1.628,0.03
40.16,-0.141,0.717,0.121
40.17,-0.107,1.038,0.045
40.18,-0.412,0.384,-0.165
40.19,-0.234,1.965,0.107
40.2,-0.086,0.623,0.068
40.21,-0.045,0.903,-0.019
40.22,-0.379,0.515,-0.208
40.23,-0.047,1.786,0.097
40.24,-0.08,0.981,0.057
40.25,0.048,0.414,-0.036
40.26,-0.436,0.979,-0.209
40.27,-0.011,1.483,0.148
40.28,-0.166,1.321,0.007
40.29,-0.022,0.43,-0.039
40.3,-0.522,0.853,-0.134
40.31,-0.095,1.613,0.189
40.32,-0.242,0.986,0.114
40.33,-0.107,0.834,-0.063
40.34,-0.446,0.241,-0.177
40.35,-0.189,1.714,0.21
40.36,-0.167,0.81,0.096
40.37,-0.206,0.906,-0.126
40.38,-0.325,0.373,-0.147
40.39,-0.144,1.26,0.186
40.4,-0.247,1.193,0.029
40.41,-0.109,0.515,-0.165
40.42,-0.457,0.951,-0.129
40.43,-0.045,0.963,0.234
40.44,-0.322,1.327,0.052
40.45,-0.183,0.461,-0.108
40.46,-0.488,0.912,-0.011
40.47,-0.081,1.043,0.223
40.48,-0.174,0.991,0.073
40.49,-0.376,0.739,-0.146
40.5,-0.323,0.589,-0.003
40.51,-0.158,1.331,0.148
40.52,-0.165,0.727,0.037
40.53,-0.369,0.891,-0.165
40.54,-0.229,0.918,-0.085
40.55,-0.08,1.164,0.129
40.56,-0.129,0.979,-0.022
40.57,-0.288,0.597,-0.226
40.58,-0.183,1.536,0.031
40.59,-0.185,0.822,0.171
40.6,-0.185,1.02,0.06
40.61,-0.36,0.408,-0.162
40.62,-0.319,1.913,0.08
40.63,-0.089,0.648,0.136
40.64,-0.162,0.987,0.075
40.65,-0.329,0.586,-0.213
40.66,-0.255,1.622,0.09
40.67,-0.078,1.021,0.087
40.68,0.059,0.512,-0.017
40.69,-0.43,1.026,-0.213
40.7,-0.041,1.436,0.057
40.71,-0.136,1.163,0.057
40.72,0.065,0.441,-0.047
40.73,-0.433,0.903,-0.191
40.74,-0.027,1.861,0.015
40.75,-0.125,0.768,0.078
40.76,-0.007,0.831,-0.064
40.77,-0.373,0.372,-0.199
40.78,-0.128,2.0,0.101
40.79,-0.111,0.726,0.095
40.8,-0.101,0.798,-0.051
40.81,-0.372,0.444,-0.186
40.82,-0.148,1.753,0.134
40.83,-0.197,1.113,0.103
40.84,-0.022,0.427,-0.081
40.85,-0.502,0.966,-0.134
40.86,-0.032,1.323,0.173
40.87,-0.264,1.358,0.101
40.88,-0.059,0.387,-0.024
40.89,-0.426,0.814,-0.162
40.9,-0.121,1.31,0.196
40.91,-0.194,0.99,0.072
40.92,-0.211,0.905,-0.123
40.93,-0.322,0.29,-0.091
40.94,-0.243,1.554,0.186
40.95,-0.064,0.809,0.096
40.96,-0.277,0.939,-0.091
40.97,-0.366,0.398,-0.148
40.98,-0.099,1.203,0.138
40.99,-0.257,1.1,-0.008
41.0,-0.1,0.582,-0.117
41.01,-0.46,0.972,-0.151
41.02,-0.021,0.881,0.215
41.03,-0.269,1.333,0.027
41.04,-0.222,0.306,-0.1
41.05,-0.418,0.987,-0.107
41.06,-0.098,1.05,0.216
41.07,-0.166,0.956,0.039
41.08,-0.284,0.703,-0.084
41.09,-0.364,0.612,-0.028
41.1,-0.194,1.363,0.191
41.11,-0.206,0.717,0.075
41.12,-0.364,0.939,-0.099
41.13,-0.355,0.749,-0.052
41.14,-0.11,1.179,0.168
41.15,-0.253,1.033,0.014
41.16,-0.268,0.495,-0.154
41.17,-0.331,1.375,-0.087
41.18,-0.014,0.837,0.155
41.19,-0.269,1.3,0.036
41.2,-0.195,0.338,-0.216
41.21,-0.303,1.578,-0.011
41.22,0.014,0.906,0.162
41.23,-0.205,0.86,0.05
41.24,-0.299,0.869,-0.16
41.25,-0.266,1.219,-0.072
41.26,-0.118,1.248,0.148
41.27,-0.065,0.53,0.012
41.28,-0.533,1.031,-0.172
41.29,-0.228,1.213,0.069
41.3,-0.262,1.011,0.138
41.31,-0.073,0.759,0.058
41.32,-0.472,0.661,-0.157
41.33,-0.241,1.816,0.071
41.34,-0.072,0.75,0.11
41.35,-0.134,0.984,0.059
41.36,-0.409,0.384,-0.178
41.37,-0.255,1.98,0.099
41.38,-0.162,0.638,0.141
41.39,-0.066,0.868,-0.011
41.4,-0.396,0.532,-0.217
41.41,-0.124,1.86,0.123
41.42,-0.149,1.004,0.094
41.43,-0.021,0.378,-0.026
41.44,-0.422,0.965,-0.239
41.45,-0.023,1.555,0.053
41.46,-0.279,1.293,0.142
41.47,0.033,0.402,-0.001
41.48,-0.451,0.927,-0.171
41.49,-0.113,1.634,0.163
41.5,-0.258,1.005,0.117
41.51,-0.084,0.868,-0.038
41.52,-0.432,0.338,-0.122
41.53,-0.208,1.794,0.198
41.54,-0.153,0.842,0.098
41.55,-0.179,0.816,-0.108
41.56,-0.31,0.317,-0.175
41.57,-0.134,1.61,0.15
41.58,-0.206,1.054,0.07
41.59,-0.113,0.56,-0.083
41.6,-0.459,0.881,-0.151
41.61,0.027,1.167,0.18
41.62,-0.266,1.394,0.013
41.63,-0.066,0.375,-0.112
41.64,-0.446,0.906,-0.185
41.65,-0.023,1.15,0.13
41.66,-0.251,1.045,0.034
41.67,-0.184,0.857,-0.142
41.68,-0.429,0.375,-0.159
41.69,-0.127,1.459,0.193
41.7,-0.104,0.771,0.063
41.71,-0.431,0.906,-0.154
41.72,-0.341,0.365,-0.14
41.73,-0.052,1.31,0.156
41.74,-0.151,1.046,0.008
41.75,-0.146,0.552,-0.158
41.76,-0.446,1.203,-0.151
41.77,0.075,0.917,0.182
41.78,-0.279,1.253,0.068
41.79,-0.266,0.311,-0.162
41.8,-0.493,1.119,-0.035
41.81,-0.036,0.933,0.16
41.82,-0.215,1.045,0.026
41.83,-0.288,0.599,-0.161
41.84,-0.257,0.926,-0.096
41.85,-0.076,1.366,0.116
41.86,-0.12,0.67,0.024
41.87,-0.355,0.979,-0.131
41.88,-0.214,1.023,-0.094
41.89,-0.139,1.149,0.176
41.9,-0.138,0.882,-0.005
41.91,-0.369,0.706,-0.174
41.92,-0.294,1.408,-0.039
41.93,-0.115,0.731,0.128
41.94,-0.242,1.257,0.038
41.95,-0.215,0.282,-0.23
41.96,-0.241,1.774,-0.004
41.97,-0.031,0.827,0.188
41.98,-0.012,0.889,0.022
41.99,-0.401,0.734,-0.213
42.0,-0.179,1.349,0.008
42.01,-0.218,1.068,0.107
42.02,0.098,0.555,0.024
42.03,-0.604,1.011,-0.164
42.04,-0.18,1.229,0.087
42.05,-0.253,1.052,0.166
42.06,0.016,0.699,0.016
42.07,-0.434,0.747,-0.142
42.08,-0.2,1.848,0.091
42.09,-0.105,0.717,0.19
42.1,-0.071,0.958,0.013
42.11,-0.378,0.303,-0.208
42.12,-0.075,2.0,0.096
42.13,-0.141,0.747,0.107
42.14,-0.108,0.69,-0.003
42.15,-0.344,0.755,-0.225
42.16,-0.109,1.696,0.116
42.17,-0.134,1.051,0.091
42.18,-0.027,0.493,-0.095
42.19,-0.439,0.91,-0.2
42.2,-0.021,1.405,0.14
42.21,-0.333,1.355,0.142
42.22,-0.004,0.391,-0.037
42.23,-0.451,0.943,-0.165
42.24,-0.121,1.359,0.212
42.25,-0.188,1.047,0.118
42.26,-0.175,0.785,-0.064
42.27,-0.403,0.345,-0.138
42.28,-0.192,1.67,0.197
42.29,-0.141,0.833,0.142
42.3,-0.241,0.992,-0.099
42.31,-0.412,0.244,-0.114
42.32,-0.139,1.473,0.23
42.33,-0.204,1.086,0.112
42.34,-0.174,0.588,-0.064
42.35,-0.409,0.841,-0.117
42.36,-0.042,1.022,0.179
42.37,-0.276,1.437,0.082
42.38,-0.122,0.345,-0.084
42.39,-0.474,1.019,-0.136
42.4,-0.014,1.036,0.198
42.41,-0.135,1.036,-0.08
42.42,-0.251,0.826,-0.17
42.43,-0.404,0.426,-0.139
42.44,-0.126,1.414,0.199
42.45,-0.109,0.789,0.07
42.46,-0.361,0.934,-0.095
42.47,-0.442,0.431,-0.079
42.48,-0.107,1.311,0.223
42.49,-0.2,1.025,0.038
42.5,-0.232,0.486,-0.118
42.51,-0.412,1.25,-0.084
42.52,0.053,0.93,0.163
42.53,-0.314,1.305,0.07
42.54,-0.219,0.294,-0.144
42.55,-0.439,1.35,-0.049
42.56,-0.083,0.879,0.154
42.57,-0.228,1.07,0.071
42.58,-0.351,0.662,-0.174
42.59,-0.333,0.917,-0.02
42.6,-0.15,1.253,0.144
42.61,-0.083,0.645,0.029
42.62,-0.363,0.958,-0.17
42.63,-0.135,1.153,-0.053
42.64,-0.075,1.147,0.111
42.65,-0.048,0.785,-0.01
42.66,-0.376,0.729,-0.241
42.67,-0.338,1.486,0.027
42.68,-0.107,0.675,0.103
42.69,-0.251,1.191,0.051
42.7,-0.332,0.333,-0.221
42.71,-0.334,1.795,0.032
42.72,-0.007,0.779,0.13
42.73,-0.131,0.895,0.028
42.74,-0.375,0.663,-0.141
42.75,-0.259,1.46,0.056
42.76,-0.182,1.086,0.148
42.77,0.013,0.515,0.008
42.78,-0.512,1.016,-0.185
42.79,-0.062,1.414,0.056
42.8,-0.292,1.063,0.113
42.81,0.015,0.593,0.033
42.82,-0.508,0.767,-0.17
42.83,-0.096,1.778,0.102
42.84,-0.028,0.811,0.124
42.85,-0.081,0.82,-0.047
42.86,-0.345,0.386,-0.203
42.87,-0.193,2.0,0.053
42.88,-0.024,0.698,0.071
42.89,-0.116,0.765,-0.042
42.9,-0.41,0.599,-0.226
42.91,-0.084,1.744,0.14
42.92,-0.233,1.146,0.155
42.93,0.036,0.39,0.031
42.94,-0.603,1.01,-0.183
42.95,-0.014,1.419,0.195
42.96,-0.255,1.297,0.058
42.97,0.007,0.503,-0.069
42.98,-0.535,0.749,-0.171
42.99,0.043,1.325,0.23
43.0,-0.33,1.166,0.129
43.01,-0.125,0.753,-0.082
43.02,-0.481,0.396,-0.179
43.03,-0.107,1.501,0.157
43.04,-0.145,0.851,0.044
43.05,-0.228,0.993,-0.104
43.06,-0.398,0.271,-0.182
43.07,-0.113,1.385,0.161
43.08,-0.17,0.983,0.053
43.09,-0.167,0.669,-0.137
43.1,-0.461,0.816,-0.172
43.11,0.007,0.931,0.167
43.12,-0.216,1.4,-0.048
43.13,-0.012,0.379,-0.147
43.14,-0.5,1.052,-0.161
43.15,0.104,1.005,0.115
43.16,-0.192,1.105,-0.011
43.17,-0.24,0.678,-0.145
43.18,-0.44,0.627,-0.032
43.19,-0.096,1.318,0.147
43.2,-0.133,0.75,0.003
43.21,-0.37,0.87,-0.125
43.22,-0.314,0.589,-0.05
43.23,-0.065,1.303,0.138
43.24,-0.124,0.902,-0.028
43.25,-0.297,0.62,-0.134
43.26,-0.292,1.26,-0.112
43.27,0.01,0.875,0.166
43.28,-0.201,1.249,0.018
43.29,-0.207,0.276,-0.181
43.3,-0.299,1.47,-0.128
43.31,-0.01,0.853,0.096
43.32,-0.223,1.062,-0.006
43.33,-0.3,0.575,-0.174
43.34,-0.271,1.089,-0.057
43.35,-0.21,1.137,0.135
43.36,-0.067,0.676,0.031
43.37,-0.452,1.0,-0.163
43.38,-0.15,1.094,-0.057
43.39,-0.18,1.168,0.145
43.4,-0.136,0.704,0.047
43.41,-0.356,0.796,-0.188
43.42,-0.376,1.515,0.056
43.43,-0.151,0.737,0.154
43.44,-0.224,1.074,0.084
43.45,-0.24,0.371,-0.175
43.46,-0.363,1.884,0.062
43.47,0.015,0.747,0.222
43.48,-0.15,0.961,0.054
43.49,-0.346,0.64,-0.198
43.5,-0.265,1.601,0.094
43.51,-0.1,1.105,0.124
43.52,0.039,0.481,0.021
43.53,-0.4,1.017,-0.217
43.54,-0.105,1.317,0.047
43.55,-0.154,1.176,0.101
43.56,0.02,0.542,0.043
43.57,-0.417,0.866,-0.191
43.58,-0.158,1.773,0.098
43.59,-0.026,0.725,0.079
43.6,-0.058,0.929,0.008
43.61,-0.303,0.446,-0.195
43.62,-0.225,2.0,0.106
43.63,-0.063,0.667,0.066
43.64,-0.149,0.821,-0.01
43.65,-0.239,0.586,-0.267
43.66,-0.131,1.793,0.126
43.67,-0.083,1.059,0.117
43.68,-0.026,0.32,-0.001
43.69,-0.461,1.086,-0.165
43.7,-0.032,1.58,0.146
43.71,-0.271,1.21,0.13
43.72,0.066,0.449,0.001
43.73,-0.444,0.875,-0.221
43.74,0.07,1.774,0.07
43.75,-0.146,0.821,0.056
43.76,-0.012,0.807,-0.068
43.77,-0.481,0.359,-0.188
43.78,-0.151,2.0,0.127
43.79,-0.131,0.779,0.104
43.8,-0.211,0.982,-0.012
43.81,-0.453,0.238,-0.142
43.82,-0.186,1.591,0.195
43.83,-0.166,1.005,0.098
43.84,-0.172,0.696,-0.048
43.85,-0.518,0.696,-0.178
43.86,-0.012,1.173,0.224
43.87,-0.246,1.347,0.127
43.88,-0.082,0.402,-0.07
43.89,-0.477,0.976,-0.194
43.9,-0.05,1.111,0.162
43.91,-0.244,1.227,0.068
43.92,-0.066,0.697,-0.096
43.93,-0.4,0.502,-0.216
43.94,-0.094,1.377,0.189
43.95,-0.095,0.763,0.075
43.96,-0.298,1.012,-0.086
43.97,-0.405,0.29,-0.143
43.98,-0.191,1.392,0.19
43.99,-0.2,0.927,0.065
44.0,-0.189,0.745,-0.122
44.01,-0.469,0.76,-0.165
44.02,0.043,1.032,0.187
44.03,-0.244,1.292,0.03
44.04,-0.093,0.402,-0.066
44.05,-0.522,1.057,-0.132
44.06,0.041,0.997,0.192
44.07,-0.181,1.197,0.034
44.08,-0.206,0.568,-0.187
44.09,-0.398,0.686,-0.143
44.1,-0.079,1.314,0.188
44.11,-0.031,0.779,0.001
44.12,-0.32,0.944,-0.181
44.13,-0.43,0.499,-0.109
44.14,-0.181,1.335,0.2
44.15,-0.151,0.864,0.067
44.16,-0.406,0.66,-0.078
44.17,-0.411,0.834,-0.121
44.18,-0.038,0.987,0.203
44.19,-0.197,1.213,-0.007
44.2,-0.112,0.304,-0.175
44.21,-0.484,1.241,-0.145
44.22,0.117,0.98,0.119
44.23,-0.273,1.173,0.031
44.24,-0.241,0.446,-0.125
44.25,-0.488,0.777,-0.057
44.26,-0.101,1.281,0.181
44.27,-0.212,0.743,0.094
44.28,-0.354,0.913,-0.094
44.29,-0.446,0.548,-0.042
44.3,-0.111,1.375,0.179
44.31,-0.223,0.792,0.09
44.32,-0.32,0.763,-0.082
44.33,-0.452,1.09,-0.082
44.34,-0.024,1.008,0.227
44.35,-0.208,1.171,0.095
44.36,-0.214,0.333,-0.131
44.37,-0.402,1.291,-0.074
44.38,-0.039,0.836,0.161
44.39,-0.293,1.207,0.08
44.4,-0.24,0.395,-0.119
44.41,-0.317,1.05,-0.031
44.42,-0.089,1.158,0.15
44.43,-0.09,0.727,0.066
44.44,-0.309,0.948,-0.164
44.45,-0.282,0.789,-0.07
44.46,-0.111,1.337,0.137
44.47,-0.131,0.76,0.071
44.48,-0.306,0.808,-0.19
44.49,-0.335,0.996,-0.128
44.5,0.002,0.965,0.105
44.51,-0.596,1.01,-0.156
44.52,-0.059,1.458,0.166
44.53,-0.357,1.274,0.159
44.54,0.004,0.395,-0.086
44.55,-0.52,0.962,-0.147
44.56,0.004,1.306,0.176
44.57,-0.283,1.182,0.115
44.58,-0.094,0.679,-0.027
44.59,-0.495,0.445,-0.186
44.6,-0.134,1.666,0.171
44.61,-0.176,0.787,0.152
44.62,-0.193,0.994,-0.077
44.63,-0.554,0.232,-0.177
44.64,-0.113,1.625,0.206
44.65,-0.334,0.997,0.151
44.66,-0.173,0.659,-0.021
44.67,-0.518,0.719,-0.209
44.68,-0.006,1.169,0.229
44.69,-0.301,1.337,0.101
44.7,-0.078,0.39,-0.067
44.71,-0.547,0.991,-0.21
44.72,-0.017,1.226,0.165
44.73,-0.223,1.173,0.133
44.74,-0.18,0.694,-0.033
44.75,-0.484,0.517,-0.16
44.76,-0.143,1.509,0.191
44.77,-0.091,0.902,0.117
44.78,-0.232,0.935,-0.065
44.79,-0.431,0.243,-0.173
44.8,-0.153,1.615,0.133
44.81,-0.183,0.912,0.119
44.82,-0.142,0.786,-0.045
44.83,-0.543,0.66,-0.211
44.84,0.053,1.146,0.188
44.85,-0.352,1.402,0.176
44.86,0.058,0.38,-0.062
44.87,-0.674,1.0,-0.166
44.88,0.033,1.154,0.232
44.89,-0.29,1.215,0.077
44.9,-0.081,0.674,-0.042
44.91,-0.509,0.513,-0.173
44.92,-0.07,1.596,0.148
44.93,-0.154,0.887,0.138
44.94,-0.187,0.951,-0.07
44.95,-0.482,0.248,-0.183
44.96,-0.173,1.716,0.189
44.97,-0.197,0.966,0.094
44.98,-0.152,0.749,-0.028
44.99,-0.481,0.657,-0.251
45.0,-0.04,1.258,0.185
45.01,-0.224,1.318,0.048
45.02,-0.005,0.419,-0.036
45.03,-0.539,0.998,-0.237
45.04,-0.089,1.189,0.247
45.05,-0.248,1.214,0.105
45.06,-0.158,0.621,-0.047
45.07,-0.415,0.644,-0.17
45.08,-0.149,1.5,0.153
45.09,-0.157,0.869,0.14
45.1,-0.23,0.925,-0.071
45.11,-0.455,0.201,-0.183
45.12,-0.155,1.825,0.156
45.13,-0.164,0.845,0.128
45.14,-0.229,0.818,-0.048
45.15,-0.479,0.632,-0.218
45.16,-0.099,1.518,0.224
45.17,-0.271,1.324,0.148
45.18,0.044,0.382,-0.051
45.19,-0.599,1.026,-0.188
45.2,-0.009,1.251,0.202
45.21,-0.324,1.267,0.118
45.22,-0.04,0.583,-0.007
45.23,-0.541,0.601,-0.172
45.24,-0.074,1.624,0.228
45.25,-0.188,0.866,0.093
45.26,-0.127,0.971,-0.061
45.27,-0.481,0.307,-0.171
45.28,-0.134,1.938,0.192
45.29,-0.188,0.896,0.127
45.3,-0.084,0.69,-0.039
45.31,-0.489,0.592,-0.247
45.32,-0.08,1.449,0.219
45.33,-0.283,1.217,0.122
45.34,-0.13,0.578,-0.082
45.35,-0.495,0.891,-0.205
45.36,0.017,1.155,0.169
45.37,-0.278,1.396,0.103
45.38,-0.031,0.398,-0.07
45.39,-0.546,0.927,-0.183
45.4,0.018,1.225,0.192
45.41,-0.164,1.138,0.125
45.42,-0.172,0.774,-0.047
45.43,-0.548,0.369,-0.1
45.44,-0.172,1.629,0.187
45.45,-0.191,0.819,0.108
45.46,-0.163,0.995,-0.104
45.47,-0.506,0.343,-0.155
45.48,-0.114,1.578,0.162
45.49,-0.155,1.07,0.09
45.5,-0.011,0.559,-0.073
45.51,-0.554,0.825,-0.168
45.52,-0.01,1.159,0.14
45.53,-0.394,1.289,0.162
45.54,0.039,0.449,-0.081
45.55,-0.562,0.987,-0.16
45.56,0.001,1.262,0.167
45.57,-0.326,1.109,0.14
45.58,-0.054,0.793,-0.038
45.59,-0.576,0.43,-0.143
45.6,-0.092,1.635,0.157
45.61,-0.104,0.854,0.064
45.62,-0.176,0.97,-0.091
45.63,-0.487,0.219,-0.211
45.64,-0.148,1.574,0.17
45.65,-0.249,1.016,0.094
45.66,-0.189,0.599,-0.069
45.67,-0.481,0.831,-0.172
45.68,-0.078,1.148,0.211
45.69,-0.273,1.382,0.144
45.7,-0.082,0.362,-0.119
45.71,-0.556,0.962,-0.196
45.72,0.008,1.288,0.119
45.73,-0.27,1.14,0.071
45.74,-0.119,0.778,-0.098
45.75,-0.446,0.422,-0.168
45.76,-0.033,1.709,0.136
45.77,-0.128,0.877,0.073
45.78,-0.103,0.958,-0.104
45.79,-0.47,0.296,-0.187
45.8,-0.071,1.656,0.15
45.81,-0.22,1.024,0.067
45.82,-0.071,0.663,-0.075
45.83,-0.498,0.722,-0.205
45.84,0.062,1.219,0.194
45.85,-0.387,1.327,0.151
45.86,0.036,0.407,-0.046
45.87,-0.611,0.99,-0.138
45.88,0.003,1.237,0.143
45.89,-0.437,1.204,0.195
45.9,-0.098,0.682,-0.049
45.91,-0.537,0.503,-0.155
45.92,-0.051,1.656,0.164
45.93,-0.157,0.845,0.044
45.94,-0.203,1.006,-0.087
45.95,-0.46,0.231,-0.184
45.96,-0.089,1.742,0.229
45.97,-0.254,1.061,0.144
45.98,-0.132,0.621,-0.051
45.99,-0.528,0.804,-0.183
46.0,-0.073,1.255,0.202
46.01,-0.35,1.368,0.104
46.02,0.032,0.448,-0.038
46.03,-0.631,0.967,-0.157
46.04,0.039,1.183,0.159
46.05,-0.255,1.231,0.045
46.06,-0.11,0.702,-0.085
46.07,-0.516,0.506,-0.208
46.08,-0.104,1.535,0.167
46.09,-0.169,0.881,0.058
46.1,-0.219,1.03,-0.026
46.11,-0.449,0.251,-0.169
46.12,-0.147,1.436,0.14
46.13,-0.171,0.965,0.079
46.14,-0.143,0.797,-0.096
46.15,-0.365,0.527,-0.19
46.16,-0.14,1.169,0.151
46.17,-0.195,1.116,-0.01
46.18,-0.116,0.402,-0.162
46.19,-0.396,1.017,-0.188
46.2,-0.019,0.861,0.198
46.21,-0.232,1.283,0.065
46.22,-0.096,0.38,-0.154
46.23,-0.463,0.95,-0.151
46.24,-0.0,1.071,0.126
46.25,-0.203,0.919,0.025
46.26,-0.177,0.746,-0.138
46.27,-0.438,0.512,-0.152
46.28,-0.091,1.403,0.109
46.29,-0.165,0.762,0.107
46.3,-0.384,0.783,-0.107
46.31,-0.377,0.58,-0.154
46.32,-0.061,1.229,0.118
46.33,-0.201,1.076,0.044
46.34,-0.139,0.429,-0.15
46.35,-0.48,1.199,-0.06
46.36,0.021,0.909,0.195
46.37,-0.26,1.336,0.119
46.38,-0.196,0.271,-0.144
46.39,-0.504,1.131,-0.064
46.4,0.016,1.012,0.1
46.41,-0.182,0.999,0.05
46.42,-0.217,0.694,-0.147
46.43,-0.364,0.659,-0.067
46.44,-0.064,1.325,0.121
46.45,-0.095,0.749,0.036
46.46,-0.364,0.874,-0.112
46.47,-0.308,0.839,-0.037
46.48,-0.204,1.17,0.175
46.49,-0.186,1.002,0.065
46.5,-0.312,0.438,-0.126
46.51,-0.306,1.448,-0.09
46.52,-0.168,0.759,0.174
46.53,-0.322,1.282,0.077
46.54,-0.242,0.286,-0.185
46.55,-0.315,1.296,-0.087
46.56,-0.098,0.889,0.116
46.57,-0.173,0.967,0.029
46.58,-0.377,0.738,-0.209
46.59,-0.268,0.868,-0.052
46.6,-0.206,1.233,0.12
46.61,-0.118,0.689,0.063
46.62,-0.407,0.914,-0.197
46.63,-0.26,1.016,-0.043
46.64,-0.167,1.08,0.128
46.65,-0.183,0.972,-0.001
46.66,-0.343,0.506,-0.168
46.67,-0.303,1.558,-0.001
46.68,-0.132,0.716,0.164
46.69,-0.237,1.188,0.08
46.7,-0.326,0.321,-0.199
46.71,-0.474,1.485,0.03
46.72,-0.109,0.832,0.077
46.73,-0.229,0.937,0.011
46.74,-0.314,0.71,-0.177
46.75,-0.275,1.194,0.034
46.76,-0.132,1.199,0.144
46.77,-0.096,0.487,0.018
46.78,-0.427,0.922,-0.166
46.79,-0.225,1.354,0.012
46.8,-0.126,1.132,0.122
46.81,-0.092,0.651,0.02
46.82,-0.382,0.656,-0.202
46.83,-0.377,1.623,0.146
46.84,-0.084,0.635,0.051
46.85,-0.227,1.121,-0.009
46.86,-0.392,0.292,-0.198
46.87,-0.263,1.971,0.048
46.88,-0.174,0.727,0.104
46.89,0.008,0.747,-0.023
46.9,-0.39,0.713,-0.206
46.91,-0.135,1.654,0.122
46.92,-0.247,1.098,0.138
46.93,0.118,0.383,0.002
46.94,-0.558,1.014,-0.188
46.95,0.086,1.55,0.142
46.96,-0.404,1.345,0.158
46.97,0.062,0.377,-0.013
46.98,-0.498,0.884,-0.177
46.99,-0.038,1.479,0.18
47.0,-0.181,1.061,0.041
47.01,-0.126,0.821,-0.133
47.02,-0.348,0.311,-0.179
47.03,-0.195,1.76,0.223
47.04,-0.124,0.871,0.097
47.05,-0.25,0.895,-0.121
47.06,-0.332,0.379,-0.177
47.07,-0.184,1.404,0.195
47.08,-0.213,1.144,0.019
47.09,-0.116,0.573,-0.087
47.1,-0.439,0.926,-0.184
47.11,-0.008,0.882,0.184
47.12,-0.336,1.391,0.033
47.13,-0.146,0.43,-0.093
47.14,-0.437,0.864,-0.112
47.15,-0.113,1.019,0.175
47.16,-0.185,1.08,0.013
47.17,-0.296,0.776,-0.11
47.18,-0.343,0.45,-0.053
47.19,-0.192,1.338,0.155
47.2,-0.137,0.734,0.047
47.21,-0.362,0.829,-0.137
47.22,-0.299,0.748,-0.052
47.23,-0.118,1.178,0.123
47.24,-0.203,1.03,0.027
47.25,-0.31,0.463,-0.171
47.26,-0.283,1.32,-0.057
47.27,-0.056,0.809,0.119
47.28,-0.223,1.298,-0.035
47.29,-0.275,0.303,-0.156
47.3,-0.267,1.485,-0.036
47.31,-0.064,0.908,0.137
47.32,-0.124,0.892,-0.042
47.33,-0.367,0.815,-0.211
47.34,-0.187,1.164,-0.002
47.35,-0.142,1.209,0.181
47.36,-0.055,0.601,0.034
47.37,-0.467,1.04,-0.2
47.38,-0.199,1.256,0.051
47.39,-0.159,1.049,0.191
47.4,-0.145,0.777,0.025
47.41,-0.386,0.665,-0.187
47.42,-0.274,1.917,0.039
47.43,0.018,0.693,0.114
47.44,-0.122,1.02,0.027
47.45,-0.441,0.447,-0.171
47.46,-0.273,1.901,0.083
47.47,-0.005,0.778,0.112
47.48,-0.106,0.732,-0.022
47.49,-0.354,0.823,-0.261
47.5,-0.119,1.53,0.064
47.51,-0.138,1.182,0.12
47.52,0.042,0.338,-0.023
47.53,-0.476,1.119,-0.175
47.54,-0.08,1.602,0.112
47.55,-0.196,1.089,0.146
47.56,-0.004,0.569,-0.017
47.57,-0.469,0.696,-0.195
47.58,-0.072,2.0,0.028
47.59,-0.037,0.713,0.112
47.6,-0.113,0.899,-0.068
47.61,-0.337,0.36,-0.197
47.62,-0.058,2.0,0.021
47.63,-0.088,0.825,0.07
47.64,-0.092,0.636,-0.075
47.65,-0.42,0.76,-0.219
47.66,-0.077,1.63,0.116
47.67,-0.145,1.269,0.058
47.68,0.079,0.34,-0.086
47.69,-0.52,1.022,-0.2
47.7,-0.081,1.341,0.202
47.71,-0.23,1.266,0.138
47.72,-0.125,0.566,-0.052
47.73,-0.428,0.618,-0.147
47.74,-0.201,1.565,0.172
47.75,-0.162,1.07,0.049
47.76,-0.219,0.874,-0.067
47.77,-0.337,0.292,-0.174
47.78,-0.203,1.525,0.17
47.79,-0.026,0.79,0.045
47.8,-0.252,0.982,-0.106
47.81,-0.324,0.385,-0.152
47.82,-0.178,1.187,0.187
47.83,-0.13,1.101,-0.045
47.84,-0.101,0.512,-0.154
47.85,-0.437,1.023,-0.189
47.86,0.023,0.902,0.211
47.87,-0.324,1.278,0.006
47.88,-0.09,0.395,-0.126
47.89,-0.488,0.968,-0.13
47.9,0.014,1.057,0.16
47.91,-0.221,1.009,-0.001
47.92,-0.304,0.727,-0.16
47.93,-0.412,0.51,-0.061
47.94,-0.111,1.389,0.154
47.95,-0.21,0.689,0.029
47.96,-0.31,0.944,-0.111
47.97,-0.396,0.704,-0.02
47.98,-0.091,1.144,0.141
47.99,-0.234,1.022,0.053
48.0,-0.267,0.444,-0.14
48.01,-0.393,1.388,-0.092
48.02,0.049,0.846,0.18
48.03,-0.349,1.292,0.077
48.04,-0.184,0.352,-0.207
48.05,-0.311,1.432,-0.094
48.06,0.004,0.926,0.077
48.07,-0.169,0.959,-0.002
48.08,-0.318,0.752,-0.203
48.09,-0.214,0.991,-0.065
48.1,-0.056,1.234,0.106
48.11,-0.054,0.638,-0.005
48.12,-0.411,0.98,-0.258
48.13,-0.242,1.109,0.021
48.14,-0.135,1.085,0.143
48.15,-0.154,0.888,0.016
48.16,-0.322,0.588,-0.209
48.17,-0.225,1.756,-0.016
48.18,-0.018,0.732,0.135
48.19,-0.199,1.071,0.098
48.2,-0.24,0.415,-0.217
48.21,-0.404,1.825,0.039
48.22,0.006,0.793,0.137
48.23,-0.115,0.816,0.052
48.24,-0.427,0.838,-0.204
48.25,-0.322,1.38,0.092
48.26,-0.187,1.091,0.21
48.27,0.056,0.528,0.093
48.28,-0.523,1.111,-0.162
48.29,-0.187,1.408,0.107
48.3,-0.22,0.992,0.187
48.31,-0.02,0.64,0.04
48.32,-0.427,0.667,-0.161
48.33,-0.241,1.891,0.083
48.34,-0.116,0.651,0.124
48.35,-0.144,0.953,0.011
48.36,-0.289,0.368,-0.205
48.37,-0.228,1.996,0.08
48.38,0.002,0.787,0.152
48.39,-0.109,0.683,0.009
48.4,-0.305,0.75,-0.249
48.41,-0.092,1.612,0.065
48.42,-0.135,1.166,0.094
48.43,-0.013,0.345,-0.041
48.44,-0.451,1.064,-0.182
48.45,-0.108,1.612,0.081
48.46,-0.182,1.125,0.084
48.47,0.051,0.522,-0.04
48.48,-0.398,0.678,-0.236
48.49,-0.108,1.98,0.074
48.5,-0.048,0.721,0.071
48.51,-0.12,0.947,0.015
48.52,-0.397,0.327,-0.208
