t,ax,ay,az
0.0,-0.006,1.538,0.165
0.01,-0.252,1.24,0.175
0.02,0.07,0.291,0.027
0.03,-0.535,1.03,-0.189
0.04,0.05,1.647,0.089
0.05,-0.169,1.084,0.131
0.06,0.075,0.653,-0.057
0.07,-0.456,0.583,-0.178
0.08,-0.083,1.886,0.084
0.09,-0.055,0.774,0.111
0.1,-0.097,0.912,-0.034
0.11,-0.403,0.287,-0.188
0.12,-0.124,1.902,0.103
0.13,-0.101,0.895,0.072
0.14,-0.071,0.658,-0.054
0.15,-0.428,0.796,-0.183
0.16,-0.104,1.302,0.171
0.17,-0.281,1.29,0.167
0.18,0.011,0.437,-0.055
0.19,-0.619,0.981,-0.112
0.2,-0.015,1.284,0.205
0.21,-0.304,1.212,0.074
0.22,0.007,0.687,-0.088
0.23,-0.522,0.507,-0.221
0.24,-0.083,1.572,0.196
0.25,-0.104,0.813,0.069
0.26,-0.185,1.0,-0.04
0.27,-0.428,0.272,-0.15
0.28,-0.132,1.488,0.195
0.29,-0.202,0.976,0.076
0.3,-0.175,0.707,-0.041
0.31,-0.47,0.74,-0.154
0.32,-0.064,1.123,0.138
0.33,-0.224,1.292,0.054
0.34,-0.049,0.414,-0.091
0.35,-0.498,1.006,-0.172
0.36,-0.043,1.03,0.151
0.37,-0.182,1.142,0.057
0.38,-0.191,0.667,-0.127
0.39,-0.384,0.529,-0.138
0.4,-0.169,1.398,0.142
0.41,-0.156,0.747,0.07
0.42,-0.297,0.948,-0.087
0.43,-0.485,0.306,-0.115
0.44,-0.123,1.35,0.192
0.45,-0.151,0.899,0.063
0.46,-0.217,0.66,-0.14
0.47,-0.479,0.78,-0.145
0.48,-0.02,0.958,0.184
0.49,-0.272,1.291,0.023
0.5,-0.042,0.351,-0.123
0.51,-0.566,1.059,-0.1
0.52,0.101,0.997,0.164
0.53,-0.33,1.162,0.074
0.54,-0.152,0.613,-0.116
0.55,-0.539,0.597,-0.083
0.56,-0.086,1.301,0.202
0.57,-0.12,0.766,0.029
0.58,-0.322,0.93,-0.105
0.59,-0.438,0.427,-0.081
0.6,-0.085,1.31,0.197
0.61,-0.199,0.871,0.062
0.62,-0.25,0.663,-0.088
0.63,-0.484,0.97,-0.064
0.64,-0.029,0.948,0.192
0.65,-0.319,1.242,0.06
0.66,-0.168,0.319,-0.124
0.67,-0.514,1.228,-0.056
0.68,0.011,0.887,0.171
0.69,-0.284,1.159,0.072
0.7,-0.255,0.575,-0.105
0.71,-0.407,0.926,-0.016
0.72,-0.137,1.225,0.176
0.73,-0.137,0.68,0.102
0.74,-0.387,0.952,-0.153
0.75,-0.247,0.804,-0.029
0.76,-0.149,1.238,0.188
0.77,-0.068,0.584,0.02
0.78,-0.403,1.023,-0.167
0.79,-0.325,1.204,-0.069
0.8,-0.065,1.037,0.134
0.81,-0.114,0.961,-0.028
0.82,-0.319,0.622,-0.24
0.83,-0.218,1.711,-0.04
0.84,-0.102,0.748,0.132
0.85,-0.177,1.081,0.088
0.86,-0.337,0.412,-0.184
0.87,-0.38,1.615,-0.027
0.88,-0.066,0.956,0.095
0.89,-0.141,0.699,0.044
0.9,-0.412,0.949,-0.168
0.91,-0.255,1.232,0.012
0.92,-0.099,1.199,0.14
0.93,-0.047,0.551,0.101
0.94,-0.448,1.021,-0.179
0.95,-0.311,1.229,0.037
0.96,-0.154,1.011,0.121
0.97,-0.12,0.84,0.021
0.98,-0.329,0.496,-0.207
0.99,-0.349,1.789,-0.006
1.0,-0.01,0.656,0.141
1.01,-0.161,1.111,0.062
1.02,-0.291,0.472,-0.224
1.03,-0.328,1.742,0.029
1.04,-0.068,0.889,0.131
1.05,-0.06,0.677,0.047
1.06,-0.416,0.871,-0.201
1.07,-0.285,1.286,0.075
1.08,-0.223,1.213,0.187
1.09,-0.059,0.472,0.054
1.1,-0.49,1.015,-0.205
1.11,-0.235,1.447,0.075
1.12,-0.199,0.968,0.208
1.13,-0.114,0.753,0.053
1.14,-0.459,0.602,-0.159
1.15,-0.349,1.87,0.092
1.16,-0.139,0.666,0.162
1.17,-0.152,0.987,0.046
1.18,-0.35,0.397,-0.224
1.19,-0.246,1.829,0.092
1.2,-0.104,0.868,0.131
1.21,-0.058,0.646,0.024
1.22,-0.407,0.851,-0.214
1.23,-0.181,1.384,0.084
1.24,-0.169,1.155,0.148
1.25,0.005,0.377,-0.0
1.26,-0.482,1.055,-0.159
1.27,-0.082,1.537,0.033
1.28,-0.118,0.974,0.089
1.29,0.004,0.699,-0.017
1.3,-0.385,0.556,-0.156
1.31,-0.156,2.0,0.071
1.32,-0.09,0.703,0.085
1.33,-0.125,0.911,-0.011
1.34,-0.339,0.411,-0.247
1.35,-0.13,2.0,0.021
1.36,-0.084,0.806,0.076
1.37,-0.015,0.607,-0.015
1.38,-0.355,0.875,-0.282
1.39,-0.074,1.545,0.06
1.4,-0.136,1.174,0.108
1.41,0.06,0.323,-0.035
1.42,-0.455,1.046,-0.189
1.43,-0.052,1.618,0.067
1.44,-0.124,1.061,0.066
1.45,0.042,0.649,-0.004
1.46,-0.417,0.623,-0.196
1.47,-0.079,2.0,0.056
1.48,-0.057,0.659,0.077
1.49,-0.084,0.912,-0.036
1.5,-0.34,0.383,-0.18
1.51,-0.179,2.0,0.074
1.52,-0.074,0.898,0.036
1.53,-0.061,0.524,-0.047
1.54,-0.421,0.824,-0.236
1.55,-0.087,1.507,0.096
1.56,-0.185,1.234,0.115
1.57,-0.026,0.35,-0.07
1.58,-0.476,0.978,-0.152
1.59,-0.084,1.298,0.216
1.6,-0.336,1.349,0.123
1.61,-0.054,0.462,-0.025
1.62,-0.561,0.83,-0.157
1.63,-0.076,1.487,0.207
1.64,-0.214,0.941,0.132
1.65,-0.178,0.921,-0.035
1.66,-0.46,0.237,-0.166
1.67,-0.157,1.672,0.202
1.68,-0.168,0.853,0.144
1.69,-0.205,0.905,-0.05
1.7,-0.445,0.423,-0.159
1.71,-0.125,1.411,0.185
1.72,-0.26,1.241,0.119
1.73,-0.019,0.5,-0.046
1.74,-0.571,0.94,-0.134
1.75,0.047,1.044,0.19
1.76,-0.298,1.254,0.058
1.77,-0.092,0.529,-0.1
1.78,-0.403,0.768,-0.208
1.79,-0.088,1.275,0.143
1.8,-0.083,1.008,0.028
1.81,-0.142,0.908,-0.117
1.82,-0.426,0.32,-0.175
1.83,-0.184,1.428,0.145
1.84,-0.159,0.778,0.064
1.85,-0.279,0.882,-0.1
1.86,-0.405,0.488,-0.173
1.87,-0.096,1.174,0.098
1.88,-0.186,1.148,-0.034
1.89,-0.152,0.394,-0.173
1.9,-0.516,1.02,-0.138
1.91,0.04,0.938,0.183
1.92,-0.201,1.307,0.085
1.93,-0.166,0.444,-0.15
1.94,-0.507,0.854,-0.12
1.95,-0.07,1.108,0.161
1.96,-0.162,0.951,0.014
1.97,-0.265,0.765,-0.145
1.98,-0.427,0.476,-0.089
1.99,-0.16,1.391,0.194
2.0,-0.234,0.714,0.103
2.01,-0.3,0.925,-0.134
2.02,-0.379,0.623,-0.104
2.03,-0.108,1.181,0.22
2.04,-0.174,1.051,0.015
2.05,-0.245,0.487,-0.105
2.06,-0.465,1.136,-0.05
2.07,-0.04,0.86,0.216
2.08,-0.32,1.313,0.067
2.09,-0.231,0.315,-0.084
2.1,-0.325,1.246,-0.059
2.11,-0.028,1.074,0.192
2.12,-0.144,0.843,0.069
2.13,-0.396,0.925,-0.122
2.14,-0.354,0.709,-0.02
2.15,-0.218,1.327,0.133
2.16,-0.158,0.683,0.155
2.17,-0.437,0.928,-0.149
2.18,-0.428,0.855,-0.027
2.19,-0.111,1.105,0.169
2.2,-0.26,1.064,0.05
2.21,-0.18,0.45,-0.137
2.22,-0.384,1.545,-0.115
2.23,0.037,0.823,0.181
2.24,-0.275,1.228,0.108
2.25,-0.308,0.347,-0.116
2.26,-0.353,1.315,-0.057
2.27,-0.067,0.972,0.12
2.28,-0.155,0.9,0.055
2.29,-0.361,0.811,-0.163
2.3,-0.266,0.92,-0.041
2.31,-0.144,1.284,0.2
2.32,-0.103,0.643,0.096
2.33,-0.404,0.985,-0.131
2.34,-0.281,1.062,-0.089
2.35,-0.099,1.121,0.142
2.36,-0.202,0.976,0.049
2.37,-0.244,0.513,-0.187
2.38,-0.246,1.47,-0.045
2.39,0.028,0.812,0.042
2.4,-0.151,1.116,0.014
2.41,-0.195,0.4,-0.235
2.42,-0.362,1.777,-0.031
2.43,0.083,0.782,0.115
2.44,-0.216,0.953,0.053
2.45,-0.327,0.69,-0.199
2.46,-0.361,1.396,0.011
2.47,-0.09,1.12,0.131
2.48,-0.078,0.546,0.024
2.49,-0.451,1.069,-0.174
2.5,-0.293,1.075,0.031
2.51,-0.139,1.171,0.164
2.52,-0.135,0.658,0.066
2.53,-0.386,0.885,-0.176
2.54,-0.295,1.567,-0.04
2.55,0.02,0.869,0.122
2.56,-0.142,0.985,0.059
2.57,-0.336,0.416,-0.195
2.58,-0.354,1.853,0.055
2.59,-0.064,0.719,0.163
2.6,-0.178,0.981,0.086
2.61,-0.413,0.624,-0.265
2.62,-0.124,1.634,0.077
2.63,-0.145,1.069,0.081
2.64,0.068,0.355,-0.001
2.65,-0.53,1.115,-0.16
2.66,-0.114,1.388,0.13
2.67,-0.155,1.202,0.159
2.68,-0.006,0.427,0.047
2.69,-0.491,0.895,-0.161
2.7,-0.153,1.815,0.121
2.71,-0.084,0.736,0.076
2.72,-0.098,0.862,0.009
2.73,-0.304,0.45,-0.242
2.74,-0.282,1.987,0.106
2.75,-0.062,0.725,0.143
2.76,-0.131,0.798,0.031
2.77,-0.317,0.582,-0.224
2.78,-0.222,1.697,0.078
2.79,-0.082,1.054,0.12
2.8,0.078,0.458,-0.026
2.81,-0.474,1.013,-0.232
2.82,-0.032,1.477,0.106
2.83,-0.195,1.179,0.082
2.84,0.047,0.43,0.032
2.85,-0.5,0.917,-0.204
2.86,-0.1,1.784,0.05
2.87,-0.057,0.8,0.031
2.88,0.006,0.846,0.009
2.89,-0.353,0.404,-0.213
2.9,-0.22,1.986,0.123
2.91,-0.083,0.703,0.121
2.92,-0.134,0.827,0.037
2.93,-0.385,0.49,-0.218
2.94,-0.069,1.749,0.07
2.95,-0.245,0.968,0.104
2.96,0.067,0.437,0.041
2.97,-0.524,1.059,-0.259
2.98,-0.044,1.44,0.089
2.99,-0.292,1.226,0.148
3.0,0.141,0.256,0.009
3.01,-0.525,1.124,-0.206
3.02,-0.045,1.526,0.048
3.03,-0.217,1.132,0.08
3.04,-0.023,0.684,-0.025
3.05,-0.397,0.545,-0.181
3.06,-0.116,2.0,0.105
3.07,-0.069,0.69,0.139
3.08,-0.084,0.911,-0.025
3.09,-0.372,0.349,-0.275
3.1,-0.083,1.969,0.039
3.11,-0.016,0.878,0.062
3.12,-0.025,0.531,-0.041
3.13,-0.358,0.85,-0.306
3.14,-0.015,1.523,0.044
3.15,-0.154,1.178,0.057
3.16,0.169,0.408,-0.034
3.17,-0.45,1.068,-0.244
3.18,-0.027,1.615,0.091
3.19,-0.198,1.058,0.067
3.2,0.056,0.654,-0.0
3.21,-0.423,0.599,-0.258
3.22,-0.129,1.936,0.07
3.23,-0.051,0.751,0.124
3.24,-0.112,0.864,0.068
3.25,-0.272,0.291,-0.231
3.26,-0.179,1.962,0.065
3.27,-0.016,0.781,0.093
3.28,-0.093,0.673,0.036
3.29,-0.455,0.86,-0.211
3.3,-0.14,1.579,0.16
3.31,-0.238,1.159,0.106
3.32,0.148,0.296,0.023
3.33,-0.583,1.169,-0.198
3.34,-0.104,1.513,0.119
3.35,-0.229,0.981,0.155
3.36,0.101,0.66,0.008
3.37,-0.378,0.645,-0.227
3.38,-0.07,1.935,0.057
3.39,-0.072,0.784,0.061
3.4,-0.132,0.92,0.064
3.41,-0.366,0.382,-0.197
3.42,-0.202,2.0,0.136
3.43,-0.116,0.779,0.145
3.44,-0.006,0.641,0.027
3.45,-0.468,0.823,-0.233
3.46,-0.082,1.559,0.097
3.47,-0.17,1.181,0.167
3.48,0.094,0.318,0.046
3.49,-0.519,1.087,-0.127
3.5,-0.049,1.554,0.114
3.51,-0.204,1.041,0.146
3.52,0.021,0.633,0.014
3.53,-0.535,0.661,-0.162
3.54,-0.153,1.959,0.14
3.55,-0.112,0.68,0.035
3.56,0.008,0.915,0.03
3.57,-0.27,0.369,-0.248
3.58,-0.18,1.986,0.084
3.59,-0.008,0.8,0.025
3.6,-0.036,0.689,0.046
3.61,-0.381,0.793,-0.222
3.62,-0.111,1.511,0.119
3.63,-0.231,1.172,0.153
3.64,0.102,0.349,0.061
3.65,-0.51,1.112,-0.152
3.66,-0.102,1.497,0.05
3.67,-0.21,1.016,0.162
3.68,0.045,0.651,0.045
3.69,-0.418,0.685,-0.148
3.7,-0.216,1.836,0.101
3.71,-0.062,0.725,0.131
3.72,-0.076,0.95,0.016
3.73,-0.429,0.366,-0.235
3.74,-0.178,1.948,0.078
3.75,-0.23,0.761,0.125
3.76,-0.001,0.704,0.012
3.77,-0.415,0.834,-0.267
3.78,-0.112,1.459,0.046
3.79,-0.244,0.911,0.133
3.8,0.109,0.429,0.019
3.81,-0.539,1.04,-0.196
3.82,0.006,1.491,0.052
3.83,-0.312,1.128,0.157
3.84,0.116,0.45,0.061
3.85,-0.454,0.912,-0.202
3.86,-0.003,1.787,0.072
3.87,-0.113,0.908,0.097
3.88,-0.019,0.73,0.013
3.89,-0.348,0.445,-0.226
3.9,-0.174,2.0,0.106
3.91,-0.058,0.653,0.103
3.92,-0.081,0.88,0.024
3.93,-0.377,0.486,-0.252
3.94,-0.096,1.828,0.036
3.95,-0.094,0.957,0.057
3.96,0.059,0.424,-0.01
3.97,-0.402,1.038,-0.247
3.98,-0.079,1.467,0.107
3.99,-0.166,1.239,0.18
4.0,0.044,0.369,0.009
4.01,-0.429,0.962,-0.237
4.02,-0.069,1.811,-0.022
4.03,-0.123,0.869,0.091
4.04,0.041,0.838,-0.038
4.05,-0.341,0.442,-0.295
4.06,-0.093,2.0,0.033
4.07,-0.016,0.681,0.089
4.08,-0.068,0.838,-0.014
4.09,-0.392,0.467,-0.259
4.1,-0.094,1.81,0.065
4.11,-0.076,0.947,0.08
4.12,0.053,0.467,-0.016
4.13,-0.414,0.994,-0.264
4.14,0.005,1.51,0.111
4.15,-0.147,1.264,0.101
4.16,0.05,0.362,0.021
4.17,-0.442,0.979,-0.199
4.18,-0.06,1.813,0.056
4.19,-0.073,0.893,0.112
4.2,-0.027,0.762,-0.033
4.21,-0.326,0.482,-0.211
4.22,-0.209,2.0,0.074
4.23,-0.047,0.645,0.115
4.24,-0.094,0.832,-0.009
4.25,-0.329,0.477,-0.25
4.26,-0.135,1.749,0.065
4.27,-0.085,0.986,0.083
4.28,0.0,0.421,0.008
4.29,-0.42,1.019,-0.209
4.3,-0.108,1.508,0.144
4.31,-0.143,1.195,0.126
4.32,0.003,0.354,0.026
4.33,-0.405,1.029,-0.202
4.34,-0.114,1.689,0.101
4.35,-0.067,0.92,0.102
4.36,-0.081,0.746,0.02
4.37,-0.387,0.477,-0.181
4.38,-0.151,2.0,0.107
4.39,-0.116,0.686,0.163
4.4,-0.11,0.844,0.022
4.41,-0.397,0.458,-0.195
4.42,-0.146,1.861,0.123
4.43,-0.137,0.951,0.153
4.44,-0.001,0.449,0.0
4.45,-0.464,1.005,-0.194
4.46,-0.118,1.518,0.157
4.47,-0.198,1.195,0.131
4.48,0.096,0.358,0.053
4.49,-0.49,0.979,-0.21
4.5,-0.054,1.64,0.025
4.51,-0.091,0.966,0.101
4.52,-0.004,0.76,-0.016
4.53,-0.376,0.429,-0.204
4.54,-0.107,2.0,0.065
4.55,-0.02,0.73,0.113
4.56,-0.027,0.883,-0.002
4.57,-0.377,0.489,-0.23
4.58,-0.143,1.892,0.125
4.59,-0.167,0.912,0.156
4.6,0.021,0.618,-0.034
4.61,-0.417,0.745,-0.306
4.62,-0.073,1.529,0.052
4.63,-0.167,1.119,0.084
4.64,0.154,0.354,-0.064
4.65,-0.486,1.044,-0.246
4.66,-0.01,1.434,0.06
4.67,-0.178,1.174,0.039
4.68,0.101,0.555,-0.029
4.69,-0.405,0.752,-0.222
4.7,-0.009,2.0,0.019
4.71,-0.063,0.709,0.067
4.72,0.03,0.855,-0.045
4.73,-0.32,0.393,-0.248
4.74,-0.104,1.956,0.054
4.75,-0.153,0.731,0.172
4.76,0.03,0.737,0.008
4.77,-0.451,0.725,-0.235
4.78,-0.013,1.588,0.094
4.79,-0.272,1.054,0.154
4.8,0.133,0.352,0.046
4.81,-0.539,1.116,-0.212
4.82,-0.034,1.449,0.088
4.83,-0.192,1.124,0.165
4.84,0.028,0.529,0.097
4.85,-0.442,0.799,-0.158
4.86,-0.17,1.791,0.077
4.87,-0.126,0.71,0.182
4.88,-0.105,0.936,0.04
4.89,-0.333,0.333,-0.229
4.9,-0.205,1.927,0.107
4.91,-0.123,0.719,0.121
4.92,-0.102,0.782,0.049
4.93,-0.312,0.771,-0.265
4.94,-0.257,1.487,0.045
4.95,-0.091,1.017,0.135
4.96,0.083,0.504,0.055
4.97,-0.448,1.079,-0.195
4.98,-0.206,1.308,0.069
4.99,-0.258,1.112,0.127
5.0,-0.038,0.602,0.063
5.01,-0.39,0.83,-0.2
5.02,-0.286,1.637,0.024
5.03,-0.017,0.748,0.159
5.04,-0.166,0.981,0.043
5.05,-0.287,0.463,-0.247
5.06,-0.353,1.845,-0.023
5.07,0.031,0.79,0.151
5.08,-0.173,0.876,0.016
5.09,-0.336,0.73,-0.24
5.1,-0.236,1.38,-0.07
5.11,-0.113,1.159,0.146
5.12,0.006,0.464,0.062
5.13,-0.434,1.111,-0.192
5.14,-0.278,1.183,-0.006
5.15,-0.093,1.205,0.138
5.16,-0.047,0.621,0.021
5.17,-0.396,0.833,-0.184
5.18,-0.252,1.583,-0.054
5.19,-0.014,0.835,0.151
5.2,-0.105,1.047,0.025
5.21,-0.302,0.447,-0.191
5.22,-0.301,1.655,-0.085
5.23,-0.001,0.761,0.11
5.24,-0.157,1.022,0.027
5.25,-0.291,0.626,-0.264
5.26,-0.264,1.233,-0.103
5.27,-0.053,1.224,0.162
5.28,0.001,0.621,0.059
5.29,-0.417,1.015,-0.159
5.3,-0.237,1.049,-0.035
5.31,-0.105,1.29,0.15
5.32,-0.061,0.717,0.125
5.33,-0.334,0.778,-0.147
5.34,-0.299,1.326,-0.114
5.35,-0.045,0.896,0.102
5.36,-0.227,1.23,0.068
5.37,-0.17,0.281,-0.171
5.38,-0.361,1.493,-0.086
5.39,0.037,0.896,0.197
5.4,-0.231,1.129,0.062
5.41,-0.175,0.433,-0.207
5.42,-0.339,1.5,-0.132
5.43,0.013,1.032,0.118
5.44,-0.112,0.78,0.046
5.45,-0.331,0.874,-0.207
5.46,-0.255,0.975,-0.137
5.47,-0.125,1.31,0.169
5.48,-0.015,0.651,0.084
5.49,-0.33,0.925,-0.179
5.5,-0.281,1.025,-0.099
5.51,-0.176,1.077,0.175
5.52,-0.097,1.011,0.047
5.53,-0.292,0.448,-0.123
5.54,-0.398,1.41,-0.053
5.55,-0.093,0.856,0.177
5.56,-0.282,1.233,0.117
5.57,-0.202,0.356,-0.092
5.58,-0.354,1.3,-0.071
5.59,-0.141,1.001,0.196
5.6,-0.175,0.838,0.086
5.61,-0.358,0.853,-0.104
5.62,-0.339,0.733,-0.085
5.63,-0.158,1.354,0.183
5.64,-0.136,0.65,0.103
5.65,-0.321,0.838,-0.083
5.66,-0.327,0.811,-0.128
5.67,-0.145,1.168,0.184
5.68,-0.148,1.002,0.066
5.69,-0.23,0.408,-0.131
5.7,-0.439,1.295,-0.053
5.71,-0.038,0.887,0.154
5.72,-0.199,1.206,0.101
5.73,-0.246,0.306,-0.099
5.74,-0.371,1.065,-0.081
5.75,-0.226,1.045,0.229
5.76,-0.125,0.9,0.123
5.77,-0.346,0.818,-0.109
5.78,-0.448,0.468,-0.021
5.79,-0.26,1.303,0.239
5.8,-0.038,0.746,0.12
5.81,-0.363,0.825,-0.092
5.82,-0.44,0.623,-0.127
5.83,-0.069,1.226,0.135
5.84,-0.117,1.011,0.058
5.85,-0.175,0.415,-0.136
5.86,-0.545,1.101,-0.107
5.87,-0.019,0.96,0.184
5.88,-0.27,1.267,0.111
5.89,-0.098,0.355,-0.115
5.9,-0.574,0.982,-0.129
5.91,-0.026,1.052,0.189
5.92,-0.13,1.053,0.062
5.93,-0.19,0.786,-0.096
5.94,-0.458,0.407,-0.109
5.95,-0.173,1.356,0.203
5.96,-0.117,0.723,0.138
5.97,-0.323,0.929,-0.138
5.98,-0.419,0.456,-0.202
5.99,-0.096,1.309,0.152
6.0,-0.04,1.063,0.014
6.01,-0.023,0.518,-0.162
6.02,-0.445,1.019,-0.259
6.03,0.121,1.019,0.091
6.04,-0.162,1.31,-0.025
6.05,-0.094,0.388,-0.105
6.06,-0.446,0.839,-0.228
6.07,-0.03,1.203,0.16
6.08,-0.089,1.035,0.082
6.09,-0.191,0.824,-0.126
6.1,-0.415,0.36,-0.179
6.11,-0.129,1.568,0.184
6.12,0.002,0.888,0.147
6.13,-0.171,0.873,-0.087
6.14,-0.435,0.397,-0.188
6.15,-0.059,1.425,0.167
6.16,-0.212,1.046,0.114
6.17,-0.088,0.523,-0.073
6.18,-0.5,1.0,-0.169
6.19,0.021,1.128,0.189
6.2,-0.268,1.328,0.221
6.21,-0.147,0.341,-0.096
6.22,-0.521,1.051,-0.156
6.23,-0.06,1.062,0.165
6.24,-0.218,1.241,0.136
6.25,-0.078,0.595,-0.052
6.26,-0.563,0.645,-0.165
6.27,-0.05,1.514,0.118
6.28,-0.137,0.825,0.124
6.29,-0.194,1.012,-0.084
6.3,-0.534,0.248,-0.136
6.31,-0.135,1.592,0.173
6.32,-0.198,0.932,0.176
6.33,-0.097,0.807,-0.063
6.34,-0.536,0.636,-0.228
6.35,0.073,1.257,0.13
6.36,-0.239,1.309,0.082
6.37,0.01,0.417,-0.061
6.38,-0.53,1.005,-0.193
6.39,-0.024,1.207,0.169
6.4,-0.272,1.193,0.145
6.41,-0.033,0.643,-0.045
6.42,-0.525,0.645,-0.159
6.43,-0.051,1.68,0.139
6.44,-0.177,0.885,0.131
6.45,-0.109,0.954,-0.047
6.46,-0.476,0.271,-0.201
6.47,-0.126,1.78,0.134
6.48,-0.261,0.882,0.155
6.49,-0.087,0.827,-0.031
6.5,-0.532,0.627,-0.204
6.51,-0.013,1.443,0.205
6.52,-0.352,1.235,0.138
6.53,0.073,0.429,-0.087
6.54,-0.62,1.026,-0.225
6.55,0.084,1.319,0.205
6.56,-0.324,1.329,0.058
6.57,0.023,0.474,-0.028
6.58,-0.533,0.683,-0.221
6.59,-0.039,1.632,0.128
6.6,-0.221,0.767,0.099
6.61,-0.176,1.009,-0.036
6.62,-0.335,0.226,-0.215
6.63,-0.135,1.956,0.161
6.64,-0.106,0.928,0.116
6.65,-0.115,0.714,-0.029
6.66,-0.436,0.682,-0.243
6.67,-0.028,1.618,0.117
6.68,-0.186,1.298,0.123
6.69,0.021,0.282,0.02
6.7,-0.474,1.021,-0.25
6.71,-0.059,1.33,0.114
6.72,-0.206,1.214,0.04
6.73,-0.049,0.631,-0.041
6.74,-0.374,0.695,-0.231
6.75,-0.163,1.779,0.133
6.76,-0.029,0.838,0.106
6.77,-0.093,0.896,-0.026
6.78,-0.332,0.358,-0.257
6.79,-0.154,1.909,0.153
6.8,-0.086,0.917,0.12
6.81,-0.128,0.683,-0.026
6.82,-0.408,0.628,-0.243
6.83,-0.136,1.517,0.178
6.84,-0.261,1.222,0.138
6.85,0.022,0.376,-0.082
6.86,-0.606,1.031,-0.24
6.87,0.014,1.412,0.164
6.88,-0.324,1.264,0.108
6.89,0.021,0.465,-0.011
6.9,-0.471,0.792,-0.229
6.91,-0.13,1.701,0.086
6.92,-0.169,0.827,0.088
6.93,-0.106,0.929,-0.048
6.94,-0.512,0.274,-0.129
6.95,-0.223,1.936,0.187
6.96,-0.151,0.806,0.106
6.97,-0.163,0.737,-0.007
6.98,-0.429,0.64,-0.232
6.99,-0.077,1.669,0.184
7.0,-0.173,1.238,0.11
7.01,-0.134,0.415,-0.01
7.02,-0.529,0.964,-0.171
7.03,-0.103,1.37,0.177
7.04,-0.352,1.281,0.145
7.05,-0.045,0.414,-0.013
7.06,-0.518,0.972,-0.215
7.07,-0.073,1.434,0.172
7.08,-0.107,1.113,0.069
7.09,-0.129,0.678,-0.073
7.1,-0.339,0.478,-0.241
7.11,-0.241,1.891,0.1
7.12,-0.059,0.746,0.123
7.13,-0.224,0.927,-0.074
7.14,-0.351,0.421,-0.248
7.15,-0.151,1.844,0.089
7.16,-0.175,1.073,0.06
7.17,0.013,0.463,-0.083
7.18,-0.421,1.004,-0.253
7.19,-0.035,1.277,0.11
7.2,-0.265,1.31,0.143
7.21,0.062,0.383,-0.04
7.22,-0.538,0.938,-0.212
7.23,-0.023,1.596,0.099
7.24,-0.179,1.073,0.1
7.25,0.053,0.777,-0.075
7.26,-0.504,0.523,-0.203
7.27,-0.086,2.0,0.116
7.28,-0.2,0.739,0.108
7.29,-0.0,0.87,-0.007
7.3,-0.42,0.405,-0.21
7.31,-0.118,1.715,0.097
7.32,-0.152,0.958,0.09
7.33,0.026,0.554,-0.028
7.34,-0.458,0.924,-0.23
7.35,-0.001,1.608,0.136
7.36,-0.295,1.258,0.112
7.37,0.096,0.397,0.018
7.38,-0.513,1.043,-0.241
7.39,0.004,1.607,0.094
7.4,-0.123,1.083,0.119
7.41,-0.009,0.646,-0.006
7.42,-0.439,0.45,-0.165
7.43,-0.176,2.0,0.089
7.44,-0.106,0.704,0.129
7.45,-0.072,0.928,0.011
7.46,-0.383,0.438,-0.207
7.47,-0.156,1.909,0.094
7.48,-0.101,0.917,0.065
7.49,0.035,0.462,0.001
7.5,-0.447,0.949,-0.224
7.51,-0.077,1.401,0.07
7.52,-0.141,1.196,0.119
7.53,0.11,0.458,0.0
7.54,-0.483,0.95,-0.242
7.55,0.019,1.69,0.054
7.56,-0.154,1.028,0.075
7.57,-0.008,0.737,-0.024
7.58,-0.342,0.55,-0.226
7.59,-0.126,2.0,0.076
7.6,-0.042,0.715,0.13
7.61,-0.083,0.786,0.02
7.62,-0.326,0.437,-0.207
7.63,-0.239,1.899,0.123
7.64,-0.143,0.818,0.139
7.65,0.032,0.692,0.004
7.66,-0.523,0.902,-0.212
7.67,-0.028,1.554,0.107
7.68,-0.307,1.206,0.093
7.69,0.141,0.327,0.062
7.7,-0.505,1.079,-0.23
7.71,-0.09,1.544,0.075
7.72,-0.156,0.956,0.194
7.73,0.0,0.748,0.052
7.74,-0.453,0.46,-0.144
7.75,-0.19,2.0,0.084
7.76,-0.154,0.646,0.139
7.77,-0.133,0.93,0.06
7.78,-0.467,0.431,-0.162
7.79,-0.189,1.938,0.154
7.8,-0.198,0.879,0.16
7.81,0.06,0.503,0.083
7.82,-0.388,0.655,-0.239
7.83,-0.037,1.579,0.056
7.84,-0.204,1.101,0.066
7.85,0.147,0.507,-0.073
7.86,-0.451,1.065,-0.256
7.87,0.062,1.564,0.074
7.88,-0.2,1.182,0.092
7.89,0.1,0.464,0.028
7.9,-0.467,0.823,-0.237
7.91,-0.025,1.887,0.036
7.92,-0.056,0.826,0.096
7.93,-0.024,0.845,-0.03
7.94,-0.309,0.363,-0.258
7.95,-0.164,2.0,0.026
7.96,-0.02,0.667,0.112
7.97,-0.059,0.821,0.032
7.98,-0.405,0.633,-0.234
7.99,-0.099,1.669,0.105
8.0,-0.098,1.143,0.078
8.01,0.109,0.311,-0.02
8.02,-0.491,1.107,-0.228
8.03,-0.015,1.493,0.08
8.04,-0.197,1.121,0.085
8.05,0.142,0.536,-0.017
8.06,-0.499,0.798,-0.186
8.07,-0.059,1.881,0.13
8.08,-0.141,0.799,0.094
8.09,-0.029,0.865,0.03
8.1,-0.363,0.387,-0.213
8.11,-0.188,2.0,0.1
8.12,-0.088,0.731,0.128
8.13,-0.061,0.719,0.034
8.14,-0.38,0.589,-0.222
8.15,-0.053,1.728,0.084
8.16,-0.134,1.073,0.113
8.17,0.082,0.408,0.033
8.18,-0.535,1.102,-0.201
8.19,-0.044,1.552,0.156
8.2,-0.24,1.155,0.118
8.21,0.07,0.451,0.048
8.22,-0.447,0.829,-0.185
8.23,-0.097,1.86,0.037
8.24,-0.063,0.831,0.124
8.25,-0.017,0.871,0.015
8.26,-0.389,0.338,-0.195
8.27,-0.115,2.0,0.107
8.28,-0.104,0.709,0.098
8.29,-0.052,0.797,0.027
8.3,-0.369,0.625,-0.256
8.31,-0.094,1.682,0.122
8.32,-0.14,1.129,0.097
8.33,0.082,0.337,0.004
8.34,-0.502,1.072,-0.196
8.35,-0.071,1.499,0.128
8.36,-0.169,1.144,0.194
8.37,0.055,0.502,0.076
8.38,-0.531,0.849,-0.167
8.39,-0.041,1.937,0.046
8.4,-0.22,0.759,0.108
8.41,0.023,0.897,0.019
8.42,-0.363,0.372,-0.234
8.43,-0.106,2.0,0.054
8.44,-0.07,0.689,0.114
8.45,0.01,0.808,-0.025
8.46,-0.478,0.531,-0.25
8.47,-0.048,1.712,0.094
8.48,-0.155,1.087,0.066
8.49,0.115,0.39,-0.041
8.5,-0.447,1.087,-0.228
8.51,0.032,1.594,0.072
8.52,-0.165,1.211,0.101
8.53,0.114,0.442,0.018
8.54,-0.43,0.857,-0.178
8.55,-0.131,1.823,0.043
8.56,-0.201,1.028,0.103
8.57,0.031,0.778,-0.076
8.58,-0.513,0.469,-0.147
8.59,-0.148,2.0,0.177
8.6,-0.193,0.757,0.081
8.61,-0.06,0.925,-0.025
8.62,-0.436,0.331,-0.188
8.63,-0.206,1.79,0.209
8.64,-0.163,0.875,0.119
8.65,-0.168,0.78,-0.036
8.66,-0.505,0.544,-0.153
8.67,-0.133,1.391,0.224
8.68,-0.375,1.171,0.123
8.69,-0.006,0.464,-0.04
8.7,-0.572,0.956,-0.123
8.71,0.037,1.176,0.235
8.72,-0.295,1.34,0.105
8.73,-0.044,0.49,-0.077
8.74,-0.47,0.737,-0.16
8.75,-0.083,1.454,0.201
8.76,-0.227,0.872,0.138
8.77,-0.198,0.946,-0.081
8.78,-0.482,0.246,-0.154
8.79,-0.179,1.695,0.191
8.8,-0.197,0.865,0.111
8.81,-0.177,0.833,-0.063
8.82,-0.493,0.519,-0.186
8.83,-0.037,1.314,0.209
8.84,-0.262,1.244,0.063
8.85,-0.024,0.421,-0.097
8.86,-0.477,0.992,-0.193
8.87,0.045,1.119,0.121
8.88,-0.235,1.317,0.073
8.89,-0.077,0.542,-0.067
8.9,-0.43,0.683,-0.178
8.91,-0.084,1.428,0.12
8.92,-0.153,0.987,0.118
8.93,-0.155,0.966,-0.105
8.94,-0.41,0.237,-0.202
8.95,-0.211,1.671,0.205
8.96,-0.117,0.919,0.105
8.97,-0.172,0.803,-0.06
8.98,-0.411,0.486,-0.225
8.99,-0.053,1.285,0.179
9.0,-0.223,1.223,0.014
9.01,-0.028,0.474,-0.11
9.02,-0.545,0.971,-0.152
9.03,0.019,1.086,0.139
9.04,-0.289,1.357,0.094
9.05,-0.075,0.51,-0.074
9.06,-0.482,0.768,-0.158
9.07,-0.029,1.292,0.177
9.08,-0.211,0.937,0.073
9.09,-0.131,0.897,-0.085
9.1,-0.442,0.267,-0.166
9.11,-0.133,1.448,0.188
9.12,-0.159,0.751,0.051
9.13,-0.236,0.914,-0.118
9.14,-0.433,0.487,-0.148
9.15,-0.064,1.137,0.197
9.16,-0.27,1.268,0.014
9.17,0.022,0.399,-0.167
9.18,-0.541,0.982,-0.188
9.19,0.067,1.008,0.192
9.2,-0.196,1.246,0.011
9.21,-0.034,0.475,-0.133
9.22,-0.542,0.794,-0.185
9.23,-0.029,1.255,0.138
9.24,-0.167,0.832,0.043
9.25,-0.213,0.891,-0.117
9.26,-0.445,0.317,-0.166
9.27,-0.122,1.443,0.153
9.28,-0.194,0.807,0.075
9.29,-0.196,0.89,-0.07
9.3,-0.47,0.501,-0.195
9.31,-0.013,1.189,0.19
9.32,-0.161,1.252,0.023
9.33,-0.101,0.381,-0.129
9.34,-0.475,1.005,-0.179
9.35,-0.018,0.952,0.167
9.36,-0.212,1.271,0.05
9.37,-0.058,0.463,-0.145
9.38,-0.424,0.821,-0.197
9.39,-0.019,1.186,0.155
9.4,-0.103,0.876,0.015
9.41,-0.238,0.877,-0.139
9.42,-0.489,0.58,-0.076
9.43,-0.139,1.373,0.215
9.44,-0.142,0.696,0.064
9.45,-0.299,0.929,-0.123
9.46,-0.455,0.49,-0.112
9.47,-0.081,1.281,0.215
9.48,-0.251,0.925,0.052
9.49,-0.19,0.601,-0.104
9.5,-0.49,0.978,-0.087
9.51,-0.014,0.909,0.199
9.52,-0.327,1.26,0.069
9.53,-0.131,0.331,-0.11
9.54,-0.555,1.12,-0.087
9.55,0.074,0.975,0.136
9.56,-0.268,1.076,0.056
9.57,-0.195,0.644,-0.129
9.58,-0.499,0.635,-0.059
9.59,-0.085,1.338,0.185
9.6,-0.246,0.685,0.074
9.61,-0.234,0.952,-0.104
9.62,-0.495,0.559,-0.112
9.63,-0.077,1.313,0.182
9.64,-0.206,0.894,0.017
9.65,-0.221,0.59,-0.132
9.66,-0.481,0.991,-0.111
9.67,0.017,0.928,0.161
9.68,-0.298,1.24,0.041
9.69,-0.048,0.345,-0.103
9.7,-0.549,1.098,-0.099
9.71,0.087,0.976,0.164
9.72,-0.251,1.109,0.011
9.73,-0.16,0.635,-0.152
9.74,-0.455,0.605,-0.137
9.75,-0.004,1.352,0.154
9.76,-0.142,0.725,0.052
9.77,-0.259,0.874,-0.084
9.78,-0.497,0.53,-0.058
9.79,-0.132,1.318,0.213
9.8,-0.275,0.87,0.082
9.81,-0.197,0.668,-0.115
9.82,-0.487,0.931,-0.127
9.83,0.011,0.925,0.176
9.84,-0.245,1.282,0.028
9.85,-0.14,0.323,-0.113
9.86,-0.454,1.124,-0.108
9.87,0.065,1.017,0.135
9.88,-0.252,1.1,0.033
9.89,-0.229,0.615,-0.08
9.9,-0.458,0.693,-0.061
9.91,-0.085,1.325,0.189
9.92,-0.148,0.708,0.047
9.93,-0.378,0.889,-0.049
9.94,-0.338,0.595,-0.081
9.95,-0.2,1.292,0.204
9.96,-0.158,0.887,0.072
9.97,-0.273,0.638,-0.162
9.98,-0.354,1.063,-0.116
9.99,-0.015,0.917,0.175
10.0,-0.228,1.249,0.056
10.01,-0.115,0.327,-0.137
10.02,-0.374,1.224,-0.152
10.03,-0.026,0.943,0.137
10.04,-0.218,1.094,0.049
10.05,-0.331,0.611,-0.113
10.06,-0.408,0.662,-0.013
10.07,-0.162,1.265,0.168
10.08,-0.133,0.707,0.084
10.09,-0.311,0.937,-0.117
10.1,-0.366,0.582,-0.069
10.11,-0.09,1.27,0.137
10.12,-0.138,0.901,-0.014
10.13,-0.278,0.616,-0.128
10.14,-0.314,1.138,-0.123
10.15,-0.038,0.921,0.15
10.16,-0.173,1.201,0.016
10.17,-0.208,0.334,-0.11
10.18,-0.353,1.266,-0.051
10.19,-0.018,0.951,0.166
10.2,-0.213,1.072,0.042
10.21,-0.268,0.583,-0.133
10.22,-0.228,0.965,-0.036
10.23,-0.104,1.067,0.208
10.24,-0.129,0.711,0.044
10.25,-0.346,0.955,-0.183
10.26,-0.237,0.978,-0.025
10.27,-0.093,1.319,0.158
10.28,-0.146,0.633,0.055
10.29,-0.429,0.956,-0.173
10.3,-0.26,1.065,-0.04
10.31,-0.132,1.043,0.156
10.32,-0.137,1.048,0.039
10.33,-0.307,0.379,-0.218
10.34,-0.191,1.696,-0.076
10.35,0.057,0.803,0.139
10.36,-0.189,1.137,0.093
10.37,-0.368,0.443,-0.149
10.38,-0.236,1.401,-0.045
10.39,-0.114,1.0,0.158
10.4,-0.16,0.749,0.032
10.41,-0.346,0.834,-0.161
10.42,-0.273,0.993,-0.09
10.43,-0.161,1.277,0.184
10.44,-0.062,0.634,0.056
10.45,-0.472,0.947,-0.148
10.46,-0.198,1.175,-0.048
10.47,-0.179,1.062,0.135
10.48,-0.168,1.019,0.018
10.49,-0.295,0.482,-0.216
10.5,-0.342,1.609,-0.055
10.51,-0.076,0.772,0.14
10.52,-0.21,1.172,0.053
10.53,-0.27,0.411,-0.17
10.54,-0.237,1.576,-0.025
10.55,-0.031,0.991,0.174
10.56,-0.092,0.688,0.065
10.57,-0.448,0.914,-0.194
10.58,-0.272,1.038,-0.013
10.59,-0.192,1.175,0.169
10.6,-0.08,0.628,0.06
10.61,-0.516,0.934,-0.188
10.62,-0.251,1.16,0.028
10.63,-0.15,1.031,0.198
10.64,-0.172,0.935,0.017
10.65,-0.283,0.486,-0.211
10.66,-0.233,1.808,-0.016
10.67,0.051,0.807,0.128
10.68,-0.229,1.016,0.116
10.69,-0.381,0.492,-0.184
10.7,-0.307,1.566,0.023
10.71,-0.149,0.902,0.108
10.72,-0.119,0.706,0.052
10.73,-0.477,0.97,-0.22
10.74,-0.218,1.165,0.034
10.75,-0.094,1.241,0.194
10.76,0.012,0.567,0.055
10.77,-0.512,1.044,-0.173
10.78,-0.275,1.341,0.021
10.79,-0.198,0.92,0.16
10.8,-0.059,0.907,0.063
10.81,-0.44,0.463,-0.259
10.82,-0.204,1.74,0.029
10.83,-0.104,0.69,0.094
10.84,-0.136,1.076,0.106
10.85,-0.365,0.427,-0.188
10.86,-0.302,1.675,0.022
10.87,-0.046,0.956,0.151
10.88,-0.035,0.68,0.101
10.89,-0.52,0.996,-0.194
10.9,-0.266,1.261,0.072
10.91,-0.212,1.169,0.126
10.92,-0.032,0.521,0.106
10.93,-0.475,1.005,-0.2
10.94,-0.252,1.386,0.005
10.95,-0.224,1.66,0.165
10.96,-0.071,0.851,0.052
10.97,-0.17,0.992,-0.143
10.98,-0.335,0.226,-0.218
10.99,-0.117,1.421,0.146
11.0,-0.079,0.815,0.09
11.01,-0.25,0.78,-0.101
11.02,-0.388,0.641,-0.187
11.03,-0.094,1.11,0.151
11.04,-0.202,1.235,-0.017
11.05,-0.034,0.383,-0.17
11.06,-0.434,1.013,-0.172
11.07,0.052,1.01,0.158
11.08,-0.18,1.234,0.013
11.09,-0.08,0.641,-0.086
11.1,-0.524,0.648,-0.103
11.11,-0.072,1.343,0.196
11.12,-0.137,0.882,0.114
11.13,-0.24,0.987,-0.086
11.14,-0.457,0.292,-0.117
11.15,-0.192,1.411,0.21
11.16,-0.146,0.877,0.077
11.17,-0.191,0.763,-0.1
11.18,-0.415,0.629,-0.217
11.19,-0.088,1.064,0.172
11.2,-0.166,1.164,0.056
11.21,-0.139,0.365,-0.17
11.22,-0.49,1.035,-0.142
11.23,0.084,1.034,0.122
11.24,-0.266,1.289,0.115
11.25,-0.015,0.605,-0.106
11.26,-0.49,0.713,-0.137
11.27,-0.017,1.201,0.201
11.28,-0.152,0.918,0.057
11.29,-0.169,0.944,-0.114
11.3,-0.476,0.328,-0.15
11.31,-0.165,1.389,0.236
11.32,-0.166,0.886,0.077
11.33,-0.271,0.713,-0.132
11.34,-0.4,0.654,-0.182
11.35,-0.058,1.083,0.127
11.36,-0.246,1.33,0.096
11.37,-0.044,0.375,-0.109
11.38,-0.506,1.094,-0.123
11.39,-0.002,0.899,0.186
11.4,-0.269,1.211,0.143
11.41,-0.206,0.505,-0.095
11.42,-0.542,0.721,-0.096
11.43,-0.144,1.229,0.123
11.44,-0.106,0.873,0.034
11.45,-0.208,0.853,-0.144
11.46,-0.403,0.38,-0.146
11.47,-0.143,1.41,0.173
11.48,-0.076,0.878,0.055
11.49,-0.307,0.682,-0.108
11.5,-0.423,0.724,-0.145
11.51,-0.069,1.088,0.178
11.52,-0.224,1.152,0.06
11.53,-0.122,0.361,-0.133
11.54,-0.508,1.107,-0.113
11.55,-0.018,0.899,0.152
11.56,-0.199,1.307,0.041
11.57,-0.209,0.292,-0.132
11.58,-0.411,1.189,-0.072
11.59,0.007,0.951,0.131
11.6,-0.138,0.981,0.045
11.61,-0.285,0.685,-0.126
11.62,-0.36,0.727,-0.036
11.63,-0.196,1.297,0.134
11.64,-0.163,0.64,0.096
11.65,-0.275,0.913,-0.114
11.66,-0.432,0.802,-0.047
11.67,-0.016,1.182,0.142
11.68,-0.238,0.998,0.054
11.69,-0.247,0.578,-0.123
11.7,-0.421,1.293,-0.042
11.71,-0.045,0.853,0.202
11.72,-0.287,1.237,0.109
11.73,-0.206,0.367,-0.143
11.74,-0.392,1.341,-0.054
11.75,-0.024,0.949,0.159
11.76,-0.252,0.963,0.072
11.77,-0.246,0.772,-0.175
11.78,-0.265,0.97,-0.071
11.79,-0.097,1.314,0.188
11.8,-0.11,0.647,0.082
11.81,-0.44,1.008,-0.176
11.82,-0.287,0.803,-0.049
11.83,-0.181,1.189,0.136
11.84,-0.166,0.931,0.026
11.85,-0.243,0.565,-0.133
11.86,-0.337,1.482,-0.06
11.87,0.067,0.867,0.145
11.88,-0.23,1.231,0.089
11.89,-0.254,0.333,-0.14
11.9,-0.345,1.565,-0.037
11.91,-0.077,0.884,0.173
11.92,-0.117,0.967,0.059
11.93,-0.385,0.759,-0.207
11.94,-0.285,0.932,-0.027
11.95,-0.177,1.281,0.131
11.96,-0.121,0.62,0.061
11.97,-0.352,0.945,-0.155
11.98,-0.218,1.109,-0.052
11.99,-0.104,1.158,0.221
12.0,-0.143,0.801,0.028
12.01,-0.297,0.705,-0.167
12.02,-0.347,1.51,-0.029
12.03,-0.13,0.77,0.137
12.04,-0.272,1.191,0.071
12.05,-0.255,0.334,-0.181
12.06,-0.337,1.539,-0.018
12.07,0.022,0.894,0.114
12.08,-0.212,0.904,0.024
12.09,-0.261,0.784,-0.16
12.1,-0.308,1.202,-0.018
12.11,-0.114,1.276,0.219
12.12,-0.13,0.542,0.052
12.13,-0.495,1.03,-0.146
12.14,-0.354,1.031,0.02
12.15,-0.125,1.121,0.123
12.16,-0.179,0.837,0.015
12.17,-0.295,0.692,-0.189
12.18,-0.298,1.582,0.019
12.19,-0.033,0.777,0.204
12.2,-0.149,1.174,0.084
12.21,-0.304,0.379,-0.202
12.22,-0.328,1.763,0.034
12.23,-0.047,0.929,0.158
12.24,-0.119,0.792,0.055
12.25,-0.392,0.804,-0.195
12.26,-0.301,1.311,0.059
12.27,-0.149,1.164,0.245
12.28,0.011,0.499,0.026
12.29,-0.508,1.104,-0.184
12.3,-0.239,1.29,0.038
12.31,-0.173,1.014,0.175
12.32,-0.056,0.769,0.028
12.33,-0.436,0.733,-0.182
12.34,-0.267,1.791,0.04
12.35,-0.081,0.76,0.151
12.36,-0.095,0.965,0.047
12.37,-0.424,0.441,-0.179
12.38,-0.193,1.958,0.087
12.39,-0.113,0.661,0.146
12.4,-0.073,0.948,0.026
12.41,-0.429,0.501,-0.186
12.42,-0.21,1.712,0.146
12.43,-0.132,0.98,0.108
12.44,0.014,0.509,0.007
12.45,-0.489,1.006,-0.224
12.46,-0.092,1.435,0.119
12.47,-0.155,1.213,0.131
12.48,0.063,0.37,0.025
12.49,-0.449,0.998,-0.191
12.5,-0.118,1.65,0.039
12.51,-0.084,0.873,0.137
12.52,-0.027,0.826,-0.014
12.53,-0.438,0.414,-0.206
12.54,-0.14,2.0,0.057
12.55,-0.065,0.741,0.145
12.56,-0.128,0.812,0.018
12.57,-0.32,0.49,-0.249
12.58,-0.172,1.803,0.089
12.59,-0.055,1.013,0.139
12.6,-0.021,0.407,-0.019
12.61,-0.503,0.989,-0.254
12.62,-0.023,1.546,0.097
12.63,-0.176,1.271,0.129
12.64,0.044,0.348,0.067
12.65,-0.536,0.993,-0.225
12.66,-0.13,1.689,0.103
12.67,-0.057,1.005,0.081
12.68,-0.093,0.743,-0.01
12.69,-0.386,0.431,-0.152
12.7,-0.334,1.936,0.127
12.71,-0.047,0.756,0.155
12.72,-0.209,0.911,-0.002
12.73,-0.375,0.426,-0.22
12.74,-0.122,1.858,0.098
12.75,-0.091,1.042,0.114
12.76,-0.001,0.429,-0.073
12.77,-0.467,1.068,-0.229
12.78,-0.101,1.552,0.135
12.79,-0.199,1.314,0.138
12.8,0.009,0.316,-0.037
12.81,-0.432,1.009,-0.232
12.82,-0.104,1.637,0.059
12.83,-0.145,1.013,0.107
12.84,-0.053,0.817,-0.06
12.85,-0.45,0.439,-0.194
12.86,-0.091,2.0,0.126
12.87,-0.117,0.767,0.109
12.88,-0.137,0.841,-0.044
12.89,-0.369,0.423,-0.248
12.9,-0.121,1.795,0.117
12.91,-0.111,1.033,0.038
12.92,0.011,0.527,-0.071
12.93,-0.509,0.969,-0.199
12.94,0.028,1.538,0.16
12.95,-0.278,1.414,0.092
12.96,0.083,0.408,-0.033
12.97,-0.521,0.933,-0.206
12.98,-0.043,1.616,0.127
12.99,-0.183,1.014,0.127
13.0,-0.055,0.796,-0.08
13.01,-0.421,0.344,-0.185
13.02,-0.182,1.838,0.1
13.03,-0.126,0.82,0.117
13.04,-0.219,0.948,-0.063
13.05,-0.361,0.424,-0.19
13.06,-0.179,1.698,0.136
13.07,-0.14,1.18,0.086
13.08,-0.026,0.492,-0.095
13.09,-0.49,0.884,-0.187
13.1,-0.074,1.253,0.214
13.11,-0.205,1.321,0.117
13.12,-0.006,0.433,-0.079
13.13,-0.448,0.941,-0.199
13.14,-0.146,1.297,0.201
13.15,-0.243,1.052,0.096
13.16,-0.128,0.806,-0.084
13.17,-0.339,0.447,-0.197
13.18,-0.143,1.332,0.135
13.19,-0.087,0.823,0.048
13.2,-0.189,0.966,-0.124
13.21,-0.432,0.259,-0.157
13.22,-0.188,1.389,0.209
13.23,-0.171,0.826,0.111
13.24,-0.218,0.778,-0.128
13.25,-0.419,0.667,-0.168
13.26,-0.051,1.085,0.218
13.27,-0.283,1.282,0.079
13.28,-0.065,0.372,-0.087
13.29,-0.511,1.085,-0.103
13.3,-0.008,0.936,0.191
13.31,-0.255,1.243,0.07
13.32,-0.143,0.517,-0.138
13.33,-0.43,0.681,-0.109
13.34,-0.08,1.262,0.108
13.35,-0.123,0.794,0.046
13.36,-0.276,0.951,-0.118
13.37,-0.439,0.343,-0.075
13.38,-0.159,1.33,0.224
13.39,-0.179,0.861,0.01
13.4,-0.19,0.711,-0.13
13.41,-0.45,0.817,-0.143
13.42,0.059,0.999,0.125
13.43,-0.226,1.204,-0.013
13.44,-0.165,0.311,-0.151
13.45,-0.404,1.189,-0.059
13.46,0.0,0.937,0.125
13.47,-0.237,1.18,0.067
13.48,-0.21,0.499,-0.182
13.49,-0.374,0.871,-0.002
13.5,-0.079,1.167,0.122
13.51,-0.207,0.752,0.081
13.52,-0.277,0.902,-0.148
13.53,-0.362,0.671,-0.01
13.54,-0.101,1.334,0.143
13.55,-0.137,0.758,0.019
13.56,-0.291,0.798,-0.162
13.57,-0.268,1.067,-0.053
13.58,-0.113,0.938,0.177
13.59,-0.188,1.141,-0.002
13.6,-0.256,0.312,-0.188
13.61,-0.246,1.48,-0.073
13.62,-0.106,0.81,0.157
13.63,-0.249,1.128,0.031
13.64,-0.315,0.477,-0.206
13.65,-0.265,1.189,-0.057
13.66,-0.137,1.131,0.159
13.67,-0.119,0.709,0.072
13.68,-0.462,0.899,-0.185
13.69,-0.14,0.976,-0.031
13.7,-0.229,1.286,0.172
13.71,-0.118,0.658,0.088
13.72,-0.465,0.836,-0.129
13.73,-0.271,1.25,0.0
13.74,-0.121,0.963,0.147
13.75,-0.219,1.076,0.025
13.76,-0.261,0.486,-0.226
13.77,-0.388,1.645,0.02
13.78,-0.01,0.747,0.165
13.79,-0.192,1.092,0.015
13.8,-0.33,0.527,-0.214
13.81,-0.256,1.442,0.016
13.82,-0.135,0.985,0.158
13.83,-0.026,0.625,0.026
13.84,-0.412,0.96,-0.232
13.85,-0.158,1.187,0.01
13.86,-0.16,1.166,0.128
13.87,-0.04,0.583,0.065
13.88,-0.439,0.938,-0.175
13.89,-0.144,1.579,0.007
13.9,-0.107,0.857,0.144
13.91,-0.018,0.905,0.018
13.92,-0.365,0.469,-0.179
13.93,-0.262,1.921,0.078
13.94,-0.069,0.738,0.163
13.95,-0.154,0.908,0.016
13.96,-0.479,0.496,-0.189
13.97,-0.162,1.681,0.083
13.98,-0.213,0.786,0.143
13.99,0.003,0.659,0.001
14.0,-0.506,0.811,-0.188
14.01,-0.099,1.569,0.149
14.02,-0.169,1.189,0.132
14.03,0.052,0.282,0.028
14.04,-0.566,1.071,-0.121
14.05,-0.029,1.612,0.124
14.06,-0.236,1.095,0.141
14.07,0.065,0.584,-0.046
14.08,-0.476,0.659,-0.168
14.09,-0.123,2.0,0.117
14.1,-0.123,0.687,0.126
14.11,-0.018,0.942,-0.004
14.12,-0.431,0.32,-0.199
14.13,-0.171,1.872,0.105
14.14,-0.12,0.943,0.07
14.15,-0.066,0.649,-0.019
14.16,-0.379,0.737,-0.211
14.17,-0.098,1.596,0.154
14.18,-0.239,1.266,0.128
14.19,-0.007,0.403,-0.05
14.2,-0.495,1.073,-0.194
14.21,-0.046,1.405,0.172
14.22,-0.149,1.273,0.046
14.23,-0.073,0.592,-0.044
14.24,-0.471,0.587,-0.163
14.25,-0.167,1.577,0.161
14.26,-0.13,0.849,0.143
14.27,-0.193,1.033,-0.061
14.28,-0.361,0.206,-0.175
14.29,-0.2,1.685,0.211
14.3,-0.142,0.926,0.09
14.31,-0.129,0.783,-0.049
14.32,-0.451,0.624,-0.206
14.33,-0.004,1.241,0.198
14.34,-0.237,1.314,0.051
14.35,-0.021,0.474,-0.051
14.36,-0.495,0.952,-0.179
14.37,-0.051,1.113,0.168
14.38,-0.218,1.19,0.07
14.39,-0.099,0.688,-0.072
14.4,-0.521,0.597,-0.138
14.41,-0.146,1.365,0.15
14.42,-0.167,0.856,0.052
14.43,-0.251,0.917,-0.077
14.44,-0.363,0.263,-0.133
14.45,-0.169,1.397,0.107
14.46,-0.179,0.858,0.007
14.47,-0.202,0.814,-0.153
14.48,-0.4,0.689,-0.214
14.49,-0.039,1.022,0.151
14.5,-0.137,1.254,-0.015
14.51,-0.094,0.358,-0.185
14.52,-0.493,1.056,-0.124
14.53,0.054,0.955,0.128
14.54,-0.329,1.197,0.022
14.55,-0.085,0.533,-0.158
14.56,-0.456,0.758,-0.077
14.57,-0.072,1.251,0.162
14.58,-0.161,0.729,0.062
14.59,-0.375,0.951,-0.122
14.6,-0.365,0.382,-0.072
14.61,-0.137,1.347,0.177
14.62,-0.206,0.825,0.036
14.63,-0.264,0.741,-0.112
14.64,-0.372,0.836,-0.098
14.65,-0.034,0.991,0.186
14.66,-0.288,1.197,0.015
14.67,-0.143,0.324,-0.152
14.68,-0.306,1.321,-0.082
14.69,-0.031,0.887,0.207
14.7,-0.258,1.135,0.065
14.71,-0.303,0.576,-0.146
14.72,-0.255,0.988,-0.025
14.73,-0.1,1.19,0.173
14.74,-0.078,0.705,0.054
14.75,-0.438,0.942,-0.173
14.76,-0.223,0.795,-0.036
14.77,-0.12,1.296,0.159
14.78,-0.115,0.725,0.058
14.79,-0.447,1.092,-0.162
14.8,-0.229,1.184,-0.034
14.81,-0.104,1.118,0.159
14.82,-0.118,0.87,0.022
14.83,-0.34,0.618,-0.183
14.84,-0.333,1.623,-0.004
14.85,-0.035,0.77,0.196
14.86,-0.245,1.156,0.091
14.87,-0.222,0.444,-0.187
14.88,-0.333,1.569,-0.046
14.89,0.022,0.959,0.13
14.9,-0.119,0.781,0.031
14.91,-0.378,0.867,-0.203
14.92,-0.241,1.125,-0.036
14.93,-0.133,1.209,0.178
14.94,-0.061,0.561,0.028
14.95,-0.419,1.06,-0.158
14.96,-0.249,1.148,0.006
14.97,-0.109,1.099,0.125
14.98,-0.14,0.825,-0.013
14.99,-0.323,0.615,-0.249
15.0,-0.34,1.745,-0.006
15.01,-0.016,0.793,0.181
15.02,-0.196,1.11,0.081
15.03,-0.33,0.478,-0.19
15.04,-0.312,1.669,-0.007
15.05,-0.006,0.908,0.157
15.06,-0.169,0.729,0.042
15.07,-0.35,0.878,-0.168
15.08,-0.279,1.243,-0.013
15.09,-0.123,1.183,0.175
15.1,0.007,0.526,0.022
15.11,-0.507,1.008,-0.212
15.12,-0.164,1.317,0.026
15.13,-0.159,1.067,0.114
15.14,-0.085,0.756,0.056
15.15,-0.418,0.675,-0.191
15.16,-0.307,1.763,0.044
15.17,-0.037,0.705,0.125
15.18,-0.18,1.027,0.065
15.19,-0.294,0.395,-0.225
15.2,-0.314,1.79,0.004
15.21,-0.095,0.819,0.21
15.22,-0.107,0.776,0.088
15.23,-0.428,0.867,-0.225
15.24,-0.256,1.299,0.066
15.25,-0.149,1.246,0.171
15.26,-0.045,0.42,0.074
15.27,-0.525,1.063,-0.158
15.28,-0.274,1.351,0.066
15.29,-0.186,1.022,0.206
15.3,-0.065,0.739,0.067
15.31,-0.417,0.65,-0.209
15.32,-0.263,1.824,0.061
15.33,-0.093,0.776,0.158
15.34,-0.143,0.952,0.05
15.35,-0.375,0.413,-0.229
15.36,-0.268,1.824,0.009
15.37,-0.042,0.801,0.089
15.38,-0.048,0.777,0.072
15.39,-0.5,0.801,-0.206
15.4,-0.172,1.371,0.046
15.41,-0.181,1.211,0.161
15.42,0.009,0.422,0.035
15.43,-0.559,1.049,-0.153
15.44,-0.145,1.451,0.066
15.45,-0.258,1.005,0.174
15.46,0.016,0.681,0.011
15.47,-0.432,0.697,-0.159
15.48,-0.181,1.901,0.078
15.49,-0.033,0.704,0.126
15.5,-0.109,0.938,0.031
15.51,-0.374,0.382,-0.184
15.52,-0.203,1.955,0.068
15.53,-0.212,0.774,0.174
15.54,-0.028,0.708,0.025
15.55,-0.526,0.774,-0.214
15.56,-0.093,1.468,0.102
15.57,-0.219,1.187,0.12
15.58,0.209,0.364,0.016
15.59,-0.462,1.022,-0.293
15.6,0.091,1.559,0.063
15.61,-0.261,1.213,0.103
15.62,0.101,0.462,0.024
15.63,-0.52,0.946,-0.203
15.64,-0.049,1.799,0.06
15.65,-0.143,0.955,0.123
15.66,-0.051,0.746,-0.035
15.67,-0.391,0.353,-0.182
15.68,-0.162,2.0,0.096
15.69,-0.091,0.696,0.119
15.7,-0.114,0.859,-0.025
15.71,-0.333,0.477,-0.222
15.72,-0.14,1.941,0.113
15.73,-0.133,1.006,0.062
15.74,0.036,0.41,-0.049
15.75,-0.487,1.065,-0.226
15.76,-0.037,1.371,0.08
15.77,-0.264,1.313,0.085
15.78,0.078,0.426,-0.044
15.79,-0.43,0.838,-0.196
15.8,-0.057,1.612,0.072
15.81,-0.129,0.972,0.076
15.82,-0.099,0.893,-0.112
15.83,-0.437,0.329,-0.178
15.84,-0.083,2.0,0.151
15.85,-0.138,0.767,0.135
15.86,-0.115,0.77,-0.05
15.87,-0.481,0.509,-0.203
15.88,-0.124,1.734,0.142
15.89,-0.179,1.128,0.077
15.9,0.027,0.494,-0.058
15.91,-0.532,0.934,-0.186
15.92,-0.094,1.275,0.207
15.93,-0.367,1.289,0.162
15.94,-0.053,0.48,-0.01
15.95,-0.514,0.859,-0.176
15.96,-0.071,1.418,0.209
15.97,-0.202,1.033,0.122
15.98,-0.132,0.826,-0.054
15.99,-0.462,0.344,-0.143
16.0,-0.267,1.738,0.22
16.01,-0.107,0.814,0.101
16.02,-0.26,0.906,-0.06
16.03,-0.365,0.386,-0.19
16.04,-0.104,1.514,0.135
16.05,-0.319,1.166,0.121
16.06,-0.06,0.494,-0.047
16.07,-0.53,0.973,-0.169
16.08,-0.035,1.149,0.198
16.09,-0.278,1.318,0.074
16.1,0.015,0.439,-0.059
16.11,-0.58,0.849,-0.156
16.12,-0.066,1.257,0.203
16.13,-0.289,1.032,0.108
16.14,-0.131,0.88,-0.051
16.15,-0.493,0.35,-0.182
16.16,-0.167,1.618,0.223
16.17,-0.173,0.814,0.114
16.18,-0.226,0.926,-0.049
16.19,-0.366,0.339,-0.236
16.2,-0.074,1.362,0.125
16.21,-0.151,1.103,0.041
16.22,-0.082,0.578,-0.081
16.23,-0.536,0.856,-0.163
16.24,-0.01,1.116,0.194
16.25,-0.26,1.368,0.118
16.26,-0.068,0.458,-0.075
16.27,-0.485,0.869,-0.176
16.28,-0.073,1.238,0.222
16.29,-0.213,1.081,0.091
16.3,-0.055,0.851,-0.077
16.31,-0.482,0.337,-0.184
16.32,-0.194,1.527,0.226
16.33,-0.123,0.792,0.061
16.34,-0.206,0.925,-0.092
16.35,-0.437,0.367,-0.197
16.36,-0.11,1.404,0.157
16.37,-0.236,1.099,0.054
16.38,-0.105,0.589,-0.043
16.39,-0.52,0.913,-0.126
16.4,-0.017,1.051,0.197
16.41,-0.237,1.292,0.059
16.42,-0.056,0.385,-0.147
16.43,-0.618,1.07,-0.137
16.44,0.171,0.977,0.107
16.45,-0.275,1.153,0.005
16.46,-0.095,0.532,-0.163
16.47,-0.568,0.702,-0.081
16.48,-0.09,1.274,0.178
16.49,-0.102,0.851,0.042
16.5,-0.296,0.899,-0.127
16.51,-0.458,0.446,-0.113
16.52,-0.14,1.336,0.197
16.53,-0.163,0.885,0.046
16.54,-0.274,0.674,-0.129
16.55,-0.417,0.82,-0.14
16.56,-0.013,1.04,0.171
16.57,-0.301,1.201,0.111
16.58,-0.195,0.363,-0.081
16.59,-0.485,1.054,-0.111
16.6,-0.013,0.886,0.166
16.61,-0.17,1.231,0.016
16.62,-0.146,0.49,-0.144
16.63,-0.447,0.79,-0.133
16.64,-0.068,1.215,0.154
16.65,-0.122,0.757,0.016
16.66,-0.401,0.897,-0.102
16.67,-0.358,0.449,-0.114
16.68,-0.173,1.356,0.149
16.69,-0.184,0.793,0.059
16.7,-0.253,0.706,-0.117
16.71,-0.473,0.821,-0.112
16.72,0.014,1.082,0.151
16.73,-0.283,1.185,0.029
16.74,-0.184,0.345,-0.111
16.75,-0.477,1.232,-0.053
16.76,0.022,0.927,0.169
16.77,-0.255,1.193,0.1
16.78,-0.288,0.464,-0.113
16.79,-0.431,0.754,-0.079
16.8,-0.119,1.215,0.159
16.81,-0.107,0.802,0.066
16.82,-0.359,0.789,-0.126
16.83,-0.399,0.466,-0.021
16.84,-0.141,1.39,0.174
16.85,-0.169,0.807,0.066
16.86,-0.23,0.76,-0.082
16.87,-0.485,0.899,-0.078
16.88,-0.064,1.067,0.239
16.89,-0.267,1.205,0.082
16.9,-0.181,0.342,-0.133
16.91,-0.526,1.225,-0.084
16.92,0.041,0.904,0.129
16.93,-0.286,1.229,0.06
16.94,-0.186,0.477,-0.125
16.95,-0.52,0.848,-0.082
16.96,-0.032,1.171,0.166
16.97,-0.227,0.8,0.069
16.98,-0.268,0.845,-0.082
16.99,-0.431,0.68,-0.071
17.0,-0.096,1.367,0.136
17.01,-0.206,0.738,0.056
17.02,-0.247,0.82,-0.12
17.03,-0.414,0.951,-0.126
17.04,0.023,1.049,0.145
17.05,-0.274,1.202,0.015
17.06,-0.138,0.366,-0.181
17.07,-0.582,1.163,-0.079
17.08,0.059,0.902,0.176
17.09,-0.286,1.209,0.024
17.1,-0.165,0.495,-0.152
17.11,-0.452,0.894,-0.096
17.12,-0.065,1.15,0.16
17.13,-0.176,0.785,0.057
17.14,-0.286,0.852,-0.092
17.15,-0.343,0.671,-0.106
17.16,-0.158,1.371,0.243
17.17,-0.168,0.711,0.105
17.18,-0.372,0.855,-0.13
17.19,-0.443,0.819,-0.065
17.2,-0.15,1.198,0.151
17.21,-0.151,0.932,0.022
17.22,-0.25,0.583,-0.197
17.23,-0.237,1.47,-0.118
17.24,0.048,0.839,0.125
17.25,-0.261,1.231,0.086
17.26,-0.231,0.324,-0.129
17.27,-0.345,1.524,-0.089
17.28,0.034,0.94,0.138
17.29,-0.189,0.949,0.059
17.3,-0.335,0.777,-0.199
17.31,-0.358,0.888,-0.04
17.32,-0.103,1.311,0.156
17.33,-0.086,0.688,0.058
17.34,-0.37,0.945,-0.156
17.35,-0.286,1.01,-0.06
17.36,-0.103,1.201,0.186
17.37,-0.193,0.888,0.062
17.38,-0.272,0.637,-0.137
17.39,-0.348,1.446,-0.086
17.4,-0.08,0.807,0.204
17.41,-0.241,1.231,0.088
17.42,-0.291,0.334,-0.188
17.43,-0.317,1.343,-0.075
17.44,-0.108,0.901,0.155
17.45,-0.223,1.002,0.065
17.46,-0.26,0.656,-0.105
17.47,-0.323,0.942,-0.064
17.48,-0.153,1.262,0.197
17.49,-0.105,0.646,0.097
17.5,-0.459,1.015,-0.15
17.51,-0.334,0.712,-0.067
17.52,-0.112,1.218,0.097
17.53,-0.192,0.953,0.017
17.54,-0.234,0.557,-0.176
17.55,-0.3,1.346,-0.148
17.56,0.067,0.909,0.163
17.57,-0.29,1.236,0.064
17.58,-0.158,0.335,-0.217
17.59,-0.397,1.481,-0.085
17.6,0.101,0.93,0.153
17.61,-0.162,1.015,0.017
17.62,-0.282,0.666,-0.231
17.63,-0.276,0.951,-0.123
17.64,-0.08,1.282,0.117
17.65,-0.037,0.671,0.05
17.66,-0.329,0.946,-0.197
17.67,-0.251,0.966,-0.096
17.68,-0.108,1.226,0.111
17.69,-0.088,0.871,0.091
17.7,-0.328,0.64,-0.156
17.71,-0.35,1.428,-0.089
17.72,-0.028,0.856,0.174
17.73,-0.219,1.25,0.087
17.74,-0.242,0.332,-0.176
17.75,-0.305,1.468,-0.076
17.76,-0.124,0.835,0.195
17.77,-0.19,1.008,0.09
17.78,-0.275,0.642,-0.168
17.79,-0.31,1.106,-0.087
17.8,-0.122,1.223,0.159
17.81,-0.057,0.656,0.012
17.82,-0.366,0.99,-0.155
17.83,-0.234,0.971,-0.107
17.84,-0.145,1.19,0.161
17.85,-0.08,0.826,0.013
17.86,-0.362,0.701,-0.172
17.87,-0.255,1.367,-0.092
17.88,-0.074,0.836,0.166
17.89,-0.193,1.196,0.085
17.9,-0.244,0.312,-0.174
17.91,-0.332,1.542,-0.075
17.92,0.007,0.866,0.156
17.93,-0.229,0.98,0.063
17.94,-0.297,0.659,-0.163
17.95,-0.306,1.204,-0.06
17.96,-0.083,1.257,0.141
17.97,-0.04,0.548,0.028
17.98,-0.394,1.064,-0.191
17.99,-0.24,0.993,-0.119
18.0,-0.089,1.181,0.103
18.01,-0.032,0.606,0.042
18.02,-0.451,1.003,-0.234
18.03,-0.271,1.199,0.007
18.04,-0.125,0.957,0.119
18.05,-0.198,0.981,0.057
18.06,-0.222,0.523,-0.169
18.07,-0.398,1.768,-0.04
18.08,-0.004,0.704,0.145
18.09,-0.186,1.084,0.03
18.1,-0.328,0.432,-0.16
18.11,-0.307,1.616,-0.044
18.12,-0.122,0.944,0.171
18.13,-0.02,0.631,0.043
18.14,-0.462,0.991,-0.151
18.15,-0.268,1.178,-0.013
18.16,-0.2,1.161,0.165
18.17,-0.008,0.55,0.044
18.18,-0.451,1.032,-0.194
18.19,-0.246,1.366,-0.003
18.2,-0.069,0.946,0.119
18.21,-0.129,0.889,0.01
18.22,-0.306,0.578,-0.177
18.23,-0.36,1.761,0.023
18.24,0.001,0.706,0.117
18.25,-0.209,1.082,0.054
18.26,-0.298,0.491,-0.194
18.27,-0.354,1.633,-0.02
18.28,-0.036,0.965,0.134
18.29,-0.011,0.725,0.045
18.3,-0.463,0.957,-0.18
18.31,-0.229,1.254,0.022
18.32,-0.185,1.211,0.18
18.33,0.029,0.523,0.045
18.34,-0.434,0.99,-0.213
18.35,-0.225,1.337,-0.014
18.36,-0.043,0.99,0.099
18.37,-0.046,0.892,0.048
18.38,-0.346,0.568,-0.259
18.39,-0.307,1.785,-0.012
18.4,0.017,0.719,0.156
18.41,-0.13,1.078,0.07
18.42,-0.292,0.534,-0.226
18.43,-0.334,1.635,0.008
18.44,-0.017,1.023,0.145
18.45,-0.032,0.665,0.068
18.46,-0.413,0.963,-0.211
18.47,-0.191,1.27,-0.016
18.48,-0.13,1.196,0.123
18.49,0.095,0.496,0.034
18.5,-0.433,1.026,-0.242
18.51,-0.203,1.281,0.005
18.52,-0.088,0.94,0.082
18.53,-0.052,0.933,0.033
18.54,-0.357,0.559,-0.189
18.55,-0.364,1.77,0.047
18.56,-0.045,0.699,0.145
18.57,-0.16,1.084,0.112
18.58,-0.329,0.391,-0.187
18.59,-0.324,1.679,0.01
18.6,-0.087,0.901,0.176
18.61,-0.022,0.692,0.066
18.62,-0.45,0.963,-0.177
18.63,-0.317,1.285,0.074
18.64,-0.279,1.205,0.197
18.65,-0.03,0.46,0.083
18.66,-0.466,1.028,-0.214
18.67,-0.298,1.385,0.047
18.68,-0.107,1.019,0.172
18.69,-0.132,0.795,0.054
18.7,-0.37,0.655,-0.197
18.71,-0.415,1.805,0.055
18.72,-0.07,0.653,0.126
18.73,-0.174,1.06,0.097
18.74,-0.298,0.441,-0.188
18.75,-0.378,1.703,0.018
18.76,-0.016,0.875,0.103
18.77,-0.061,0.699,0.039
18.78,-0.378,0.917,-0.204
18.79,-0.277,1.316,0.016
18.8,-0.177,1.178,0.144
18.81,0.013,0.521,0.049
18.82,-0.463,1.089,-0.253
18.83,-0.16,1.258,0.081
18.84,-0.213,1.119,0.17
18.85,-0.003,0.556,0.078
18.86,-0.447,0.856,-0.188
18.87,-0.154,1.678,0.015
18.88,-0.078,0.823,0.154
18.89,-0.003,0.887,0.01
18.9,-0.342,0.392,-0.211
18.91,-0.276,1.935,0.093
18.92,-0.15,0.664,0.194
18.93,-0.075,0.909,0.04
18.94,-0.407,0.58,-0.251
18.95,-0.229,1.534,0.038
18.96,-0.101,1.123,0.123
18.97,-0.007,0.434,0.055
18.98,-0.426,1.086,-0.216
18.99,-0.16,1.304,0.018
19.0,-0.14,1.161,0.204
19.01,0.034,0.539,0.046
19.02,-0.481,0.821,-0.197
19.03,-0.116,1.74,0.079
19.04,-0.208,0.857,0.202
19.05,-0.116,0.886,0.083
19.06,-0.396,0.419,-0.214
19.07,-0.26,1.964,0.1
19.08,-0.012,0.714,0.092
19.09,-0.1,0.881,0.059
19.1,-0.346,0.644,-0.19
19.11,-0.226,1.598,0.069
19.12,-0.183,1.008,0.14
19.13,0.087,0.469,0.017
19.14,-0.434,1.001,-0.235
19.15,-0.094,1.325,0.033
19.16,-0.289,1.129,0.095
19.17,0.042,0.515,0.055
19.18,-0.416,0.875,-0.2
19.19,-0.111,1.691,-0.025
19.2,-0.11,0.922,0.131
19.21,-0.007,0.822,0.016
19.22,-0.367,0.464,-0.196
19.23,-0.242,1.947,0.101
19.24,-0.153,0.634,0.131
19.25,-0.064,0.941,-0.003
19.26,-0.432,0.513,-0.229
19.27,-0.148,1.606,0.047
19.28,-0.198,0.969,0.121
19.29,-0.303,0.661,-0.052
19.3,-0.185,1.322,0.209
19.31,-0.123,0.713,0.103
19.32,-0.37,0.813,-0.121
19.33,-0.357,1.081,-0.088
19.34,-0.052,1.039,0.189
19.35,-0.215,1.163,0.055
19.36,-0.256,0.41,-0.184
19.37,-0.472,1.291,-0.051
19.38,-0.027,0.851,0.166
19.39,-0.288,1.274,0.084
19.4,-0.267,0.368,-0.115
19.41,-0.445,1.08,-0.054
19.42,-0.068,1.071,0.176
19.43,-0.224,0.789,0.05
19.44,-0.264,0.853,-0.14
19.45,-0.355,0.839,-0.089
19.46,-0.116,1.323,0.214
19.47,-0.21,0.656,0.086
19.48,-0.364,0.921,-0.101
19.49,-0.375,0.969,-0.092
19.5,-0.092,1.023,0.18
19.51,-0.207,1.12,0.086
19.52,-0.338,0.686,-0.194
19.53,-0.276,1.464,-0.085
19.54,-0.001,0.847,0.178
19.55,-0.277,1.197,0.09
19.56,-0.203,0.381,-0.171
19.57,-0.359,1.62,-0.082
19.58,0.019,0.884,0.168
19.59,-0.243,0.961,0.008
19.6,-0.248,0.69,-0.181
19.61,-0.397,1.096,-0.058
19.62,0.022,1.24,0.136
19.63,-0.17,0.68,0.061
19.64,-0.329,1.033,-0.189
19.65,-0.296,0.953,-0.064
19.66,-0.069,1.26,0.128
19.67,-0.187,0.841,0.024
19.68,-0.276,0.76,-0.204
19.69,-0.352,1.385,-0.129
19.7,0.02,0.833,0.141
19.71,-0.292,1.225,0.04
19.72,-0.232,0.344,-0.151
19.73,-0.305,1.549,-0.084
19.74,-0.044,0.873,0.176
19.75,-0.168,0.995,0.038
19.76,-0.282,0.713,-0.195
19.77,-0.262,1.007,-0.088
19.78,-0.07,1.265,0.13
19.79,-0.128,0.693,0.029
19.8,-0.343,0.929,-0.148
19.81,-0.255,0.946,-0.091
19.82,-0.128,1.191,0.175
19.83,-0.148,0.802,0.055
19.84,-0.355,0.691,-0.176
19.85,-0.213,1.471,-0.068
19.86,-0.057,0.855,0.144
19.87,-0.206,1.125,0.055
19.88,-0.193,0.371,-0.202
19.89,-0.33,1.542,-0.076
19.9,-0.022,0.823,0.128
19.91,-0.259,1.017,0.067
19.92,-0.267,0.637,-0.188
19.93,-0.248,1.14,-0.058
19.94,-0.027,1.255,0.139
19.95,-0.099,0.595,0.074
19.96,-0.307,1.071,-0.191
19.97,-0.33,0.997,-0.063
19.98,-0.146,1.236,0.147
19.99,-0.175,0.796,0.064
20.0,-0.369,0.695,-0.19
20.01,-0.304,1.281,-0.103
20.02,-0.113,0.899,0.168
20.03,-0.248,1.205,0.123
20.04,-0.248,0.281,-0.172
20.05,-0.394,1.614,-0.06
20.06,0.015,0.903,0.161
20.07,-0.195,1.018,0.1
20.08,-0.316,0.642,-0.163
20.09,-0.41,1.008,-0.037
20.1,-0.159,1.157,0.178
20.11,-0.175,0.699,0.093
20.12,-0.368,0.938,-0.152
20.13,-0.329,0.827,-0.074
20.14,-0.083,1.275,0.147
20.15,-0.175,0.781,0.077
20.16,-0.318,0.71,-0.134
20.17,-0.284,1.297,-0.121
20.18,-0.091,0.905,0.173
20.19,-0.171,1.203,0.048
20.2,-0.27,0.353,-0.178
20.21,-0.384,1.344,-0.055
20.22,-0.062,0.836,0.165
20.23,-0.23,1.154,0.039
20.24,-0.244,0.486,-0.169
20.25,-0.256,1.063,-0.102
20.26,-0.04,1.208,0.124
20.27,-0.098,0.645,0.063
20.28,-0.303,1.006,-0.183
20.29,-0.405,0.783,-0.042
20.3,-0.155,1.292,0.218
20.31,-0.243,0.811,0.096
20.32,-0.324,0.683,-0.107
20.33,-0.283,1.083,-0.071
20.34,-0.081,1.082,0.146
20.35,-0.115,0.96,-0.018
20.36,-0.239,0.538,-0.187
20.37,-0.291,1.685,-0.083
20.38,0.016,0.84,0.147
20.39,-0.234,1.131,0.087
20.4,-0.291,0.443,-0.193
20.41,-0.363,1.414,-0.064
20.42,-0.074,0.928,0.143
20.43,-0.133,0.841,0.075
20.44,-0.316,0.862,-0.199
20.45,-0.227,1.049,-0.084
20.46,-0.126,1.331,0.149
20.47,-0.048,0.594,0.061
20.48,-0.372,0.98,-0.164
20.49,-0.271,1.067,-0.088
20.5,-0.16,1.1,0.167
20.51,-0.101,0.993,0.06
20.52,-0.385,0.507,-0.189
20.53,-0.274,1.454,-0.081
20.54,-0.074,0.854,0.137
20.55,-0.205,1.237,0.077
20.56,-0.261,0.313,-0.16
20.57,-0.233,1.472,-0.085
20.58,-0.073,0.991,0.144
20.59,-0.117,0.819,0.044
20.6,-0.312,0.842,-0.218
20.61,-0.232,1.033,-0.105
20.62,-0.108,1.321,0.104
20.63,-0.061,0.594,0.048
20.64,-0.36,0.955,-0.153
20.65,-0.265,1.042,-0.091
20.66,-0.08,1.158,0.195
20.67,-0.178,0.92,0.046
20.68,-0.287,0.636,-0.166
20.69,-0.387,1.356,-0.076
20.7,-0.014,0.802,0.199
20.71,-0.207,1.274,0.051
20.72,-0.238,0.318,-0.177
20.73,-0.412,1.294,-0.015
20.74,-0.077,1.001,0.17
20.75,-0.301,0.903,0.094
20.76,-0.204,0.771,-0.145
20.77,-0.334,0.939,-0.101
20.78,-0.064,1.369,0.152
20.79,-0.13,0.634,0.098
20.8,-0.39,0.996,-0.173
20.81,-0.328,0.763,-0.091
20.82,-0.155,1.169,0.148
20.83,-0.158,0.985,0.078
20.84,-0.166,0.462,-0.178
20.85,-0.426,1.328,-0.062
20.86,0.006,0.85,0.173
20.87,-0.257,1.216,0.023
20.88,-0.128,0.303,-0.121
20.89,-0.441,1.324,-0.056
20.9,-0.005,1.06,0.126
20.91,-0.2,0.912,0.094
20.92,-0.313,0.778,-0.136
20.93,-0.358,0.586,-0.045
20.94,-0.197,1.34,0.181
20.95,-0.117,0.662,0.074
20.96,-0.33,0.875,-0.101
20.97,-0.315,0.684,-0.107
20.98,-0.119,1.213,0.174
20.99,-0.222,0.954,0.103
21.0,-0.218,0.5,-0.154
21.01,-0.374,1.225,-0.114
21.02,0.085,0.868,0.156
21.03,-0.249,1.267,0.066
21.04,-0.23,0.283,-0.093
21.05,-0.46,1.171,-0.056
21.06,-0.0,1.04,0.159
21.07,-0.214,0.953,0.053
21.08,-0.197,0.794,-0.138
21.09,-0.471,0.65,-0.125
21.1,-0.102,1.341,0.222
21.11,-0.125,0.682,0.082
21.12,-0.311,0.909,-0.136
21.13,-0.438,0.498,-0.118
21.14,-0.185,1.331,0.217
21.15,-0.254,0.759,0.082
21.16,-0.284,0.757,-0.093
21.17,-0.419,0.943,-0.092
21.18,-0.059,1.021,0.232
21.19,-0.216,1.152,0.069
21.2,-0.174,0.376,-0.18
21.21,-0.48,1.271,-0.06
21.22,0.051,0.925,0.168
21.23,-0.334,1.229,0.094
21.24,-0.131,0.405,-0.076
21.25,-0.526,1.025,-0.079
21.26,-0.019,1.25,0.161
21.27,-0.184,0.792,0.075
21.28,-0.39,0.912,-0.136
21.29,-0.393,0.526,-0.072
21.3,-0.153,1.359,0.181
21.31,-0.201,0.744,0.08
21.32,-0.31,0.819,-0.095
21.33,-0.458,0.836,-0.109
21.34,-0.095,1.077,0.217
21.35,-0.258,1.15,0.007
21.36,-0.154,0.384,-0.129
21.37,-0.498,1.212,-0.14
21.38,0.099,0.945,0.135
21.39,-0.25,1.234,0.059
21.4,-0.172,0.449,-0.105
21.41,-0.481,0.861,-0.117
21.42,-0.079,1.207,0.153
21.43,-0.051,0.84,0.022
21.44,-0.324,0.838,-0.125
21.45,-0.402,0.446,-0.121
21.46,-0.169,1.397,0.199
21.47,-0.156,0.787,0.058
21.48,-0.271,0.779,-0.102
21.49,-0.435,0.635,-0.189
21.5,-0.093,1.074,0.21
21.51,-0.239,1.144,0.044
21.52,-0.18,0.351,-0.145
21.53,-0.448,1.095,-0.151
21.54,-0.033,0.917,0.168
21.55,-0.192,1.291,0.032
21.56,-0.132,0.404,-0.126
21.57,-0.465,0.865,-0.139
21.58,-0.027,1.188,0.147
21.59,-0.089,0.81,0.065
21.6,-0.252,0.93,-0.128
21.61,-0.407,0.328,-0.119
21.62,-0.231,1.39,0.243
21.63,-0.071,0.822,0.086
21.64,-0.236,0.78,-0.126
21.65,-0.416,0.595,-0.229
21.66,-0.074,1.187,0.202
21.67,-0.165,1.15,0.016
21.68,-0.098,0.409,-0.077
21.69,-0.524,1.049,-0.155
21.7,0.006,1.008,0.192
21.71,-0.267,1.242,0.127
21.72,-0.098,0.528,-0.08
21.73,-0.587,0.811,-0.148
21.74,-0.083,1.283,0.201
21.75,-0.144,0.937,0.089
21.76,-0.169,0.928,-0.096
21.77,-0.428,0.353,-0.188
21.78,-0.163,1.465,0.17
21.79,-0.096,0.868,0.089
21.8,-0.173,0.909,-0.043
21.81,-0.484,0.502,-0.214
21.82,-0.062,1.293,0.194
21.83,-0.164,1.17,0.065
21.84,-0.1,0.44,-0.108
21.85,-0.539,1.02,-0.159
21.86,-0.01,1.063,0.154
21.87,-0.292,1.35,0.103
21.88,-0.04,0.54,0.009
21.89,-0.493,0.808,-0.156
21.9,-0.067,1.317,0.193
21.91,-0.083,1.006,0.052
21.92,-0.206,0.916,-0.057
21.93,-0.342,0.334,-0.189
21.94,-0.212,1.37,0.191
21.95,-0.06,0.74,0.074
21.96,-0.234,1.013,-0.111
21.97,-0.414,0.283,-0.215
21.98,-0.127,1.454,0.161
21.99,-0.144,0.99,0.042
22.0,-0.164,0.677,-0.088
22.01,-0.401,0.797,-0.21
22.02,-0.009,1.049,0.179
22.03,-0.218,1.288,0.08
22.04,-0.024,0.449,-0.091
22.05,-0.543,1.0,-0.173
22.06,-0.004,1.047,0.168
22.07,-0.237,1.188,0.089
22.08,-0.066,0.697,-0.098
22.09,-0.533,0.539,-0.153
22.1,-0.109,1.452,0.198
22.11,-0.111,0.863,0.101
22.12,-0.237,0.911,-0.041
22.13,-0.41,0.306,-0.203
22.14,-0.168,1.487,0.16
22.15,-0.116,0.894,0.046
22.16,-0.232,0.666,-0.101
22.17,-0.388,0.743,-0.198
22.18,-0.076,1.167,0.147
22.19,-0.25,1.365,0.12
22.2,-0.015,0.354,-0.069
22.21,-0.515,0.976,-0.186
22.22,0.002,1.125,0.235
22.23,-0.254,1.147,0.167
22.24,-0.137,0.677,-0.105
22.25,-0.426,0.558,-0.23
22.26,-0.15,1.528,0.169
22.27,-0.13,0.857,0.131
22.28,-0.174,0.927,-0.061
22.29,-0.52,0.282,-0.161
22.3,-0.162,1.516,0.229
22.31,-0.23,0.94,0.124
22.32,-0.25,0.684,-0.053
22.33,-0.439,0.64,-0.206
22.34,-0.064,1.263,0.158
22.35,-0.219,1.301,0.114
22.36,-0.077,0.373,-0.065
22.37,-0.477,1.0,-0.192
22.38,-0.022,1.292,0.195
22.39,-0.282,1.28,0.157
22.4,-0.057,0.606,-0.036
22.41,-0.542,0.598,-0.161
22.42,-0.11,1.656,0.151
22.43,-0.181,0.854,0.112
22.44,-0.218,0.963,-0.052
22.45,-0.466,0.208,-0.153
22.46,-0.144,1.851,0.133
22.47,-0.19,0.925,0.143
22.48,-0.185,0.763,-0.04
22.49,-0.503,0.669,-0.179
22.5,-0.115,1.534,0.197
22.51,-0.256,1.402,0.139
22.52,-0.005,0.323,-0.043
22.53,-0.587,1.073,-0.188
22.54,-0.068,1.315,0.194
22.55,-0.274,1.235,0.129
22.56,-0.064,0.626,0.006
22.57,-0.49,0.623,-0.151
22.58,-0.198,1.551,0.187
22.59,-0.155,0.867,0.119
22.6,-0.208,0.933,-0.046
22.61,-0.371,0.276,-0.188
22.62,-0.165,1.864,0.138
22.63,-0.09,0.893,0.074
22.64,-0.185,0.722,-0.054
22.65,-0.354,0.714,-0.224
22.66,-0.162,1.457,0.183
22.67,-0.233,1.244,0.086
22.68,0.044,0.385,-0.051
22.69,-0.54,1.075,-0.18
22.7,-0.049,1.311,0.185
22.71,-0.356,1.22,0.121
22.72,-0.018,0.6,-0.007
22.73,-0.507,0.637,-0.212
22.74,-0.094,1.609,0.134
22.75,-0.284,1.011,0.203
22.76,-0.19,0.841,-0.081
22.77,-0.39,0.359,-0.139
22.78,-0.242,1.697,0.181
22.79,-0.131,0.823,0.124
22.8,-0.239,0.935,-0.021
22.81,-0.444,0.314,-0.15
22.82,-0.206,1.573,0.225
22.83,-0.167,1.093,0.103
22.84,-0.196,0.512,-0.042
22.85,-0.469,0.941,-0.129
22.86,-0.163,1.156,0.248
22.87,-0.34,1.341,0.207
22.88,-0.058,0.403,-0.021
22.89,-0.519,0.943,-0.162
22.9,-0.1,1.239,0.204
22.91,-0.252,1.047,0.128
22.92,-0.156,0.793,-0.106
22.93,-0.382,0.368,-0.155
22.94,-0.257,1.704,0.121
22.95,-0.079,0.768,0.144
22.96,-0.226,0.982,-0.087
22.97,-0.365,0.318,-0.166
22.98,-0.141,1.495,0.153
22.99,-0.137,1.117,0.086
23.0,-0.119,0.528,-0.092
23.01,-0.473,0.912,-0.195
23.02,-0.012,1.157,0.15
23.03,-0.296,1.32,0.118
23.04,-0.026,0.452,-0.057
23.05,-0.562,0.879,-0.183
23.06,-0.051,1.306,0.184
23.07,-0.252,1.094,0.096
23.08,-0.12,0.834,-0.058
23.09,-0.446,0.414,-0.19
23.1,-0.163,1.752,0.166
23.11,-0.081,0.86,0.095
23.12,-0.215,0.834,-0.084
23.13,-0.347,0.371,-0.187
23.14,-0.214,1.576,0.058
23.15,-0.277,0.974,0.077
23.16,-0.102,0.653,-0.049
23.17,-0.521,0.882,-0.141
23.18,-0.025,1.293,0.169
23.19,-0.236,1.395,0.122
23.2,-0.032,0.41,-0.064
23.21,-0.499,0.962,-0.196
23.22,-0.017,1.317,0.182
23.23,-0.226,1.167,0.086
23.24,-0.051,0.782,-0.077
23.25,-0.538,0.46,-0.163
23.26,-0.148,1.67,0.143
23.27,-0.19,0.836,0.118
23.28,-0.171,0.964,-0.077
23.29,-0.454,0.355,-0.21
23.3,-0.11,1.528,0.132
23.31,-0.222,1.075,0.096
23.32,-0.099,0.631,-0.045
23.33,-0.547,0.834,-0.18
23.34,-0.028,1.181,0.182
23.35,-0.26,1.342,0.148
23.36,-0.024,0.451,-0.084
23.37,-0.512,0.92,-0.2
23.38,-0.064,1.252,0.181
23.39,-0.206,1.144,0.085
23.4,-0.017,0.782,-0.106
23.41,-0.497,0.448,-0.232
23.42,-0.138,1.606,0.092
23.43,-0.131,0.854,0.087
23.44,-0.233,0.994,-0.096
23.45,-0.42,0.258,-0.172
23.46,-0.121,1.461,0.119
23.47,-0.118,1.01,0.04
23.48,-0.028,0.686,-0.107
23.49,-0.588,0.84,-0.168
23.5,0.014,1.117,0.162
23.51,-0.352,1.418,0.102
23.52,0.025,0.342,-0.059
23.53,-0.542,1.005,-0.188
23.54,-0.044,1.108,0.164
23.55,-0.311,1.242,0.048
23.56,-0.113,0.499,-0.094
23.57,-0.49,0.756,-0.131
23.58,-0.067,1.233,0.158
23.59,-0.063,0.882,0.045
23.6,-0.253,0.891,-0.177
23.61,-0.359,0.336,-0.139
23.62,-0.193,1.395,0.173
23.63,-0.063,0.786,0.04
23.64,-0.199,0.842,-0.179
23.65,-0.41,0.623,-0.191
23.66,-0.076,1.094,0.164
23.67,-0.24,1.176,0.015
23.68,-0.167,0.362,-0.189
23.69,-0.476,1.066,-0.157
23.7,0.049,0.916,0.155
23.71,-0.229,1.269,0.025
23.72,-0.127,0.443,-0.164
23.73,-0.427,0.781,-0.165
23.74,-0.035,1.162,0.151
23.75,-0.071,0.925,-0.006
23.76,-0.242,0.854,-0.163
23.77,-0.411,0.359,-0.181
23.78,-0.045,1.422,0.155
23.79,-0.092,0.802,-0.006
23.8,-0.286,0.785,-0.138
23.81,-0.408,0.609,-0.176
23.82,-0.075,1.122,0.241
23.83,-0.231,1.196,0.001
23.84,-0.177,0.288,-0.151
23.85,-0.462,1.059,-0.176
23.86,0.09,0.93,0.16
23.87,-0.267,1.32,-0.004
23.88,-0.118,0.389,-0.109
23.89,-0.462,0.868,-0.13
23.9,0.012,1.185,0.154
23.91,-0.153,0.926,0.033
23.92,-0.372,0.8,-0.128
23.93,-0.388,0.404,-0.094
23.94,-0.163,1.377,0.173
23.95,-0.08,0.735,0.01
23.96,-0.26,0.858,-0.129
23.97,-0.489,0.742,-0.114
23.98,-0.047,1.127,0.23
23.99,-0.194,1.069,0.057
24.0,-0.278,0.372,-0.127
24.01,-0.372,1.269,-0.135
24.02,0.043,0.953,0.139
24.03,-0.261,1.277,0.053
24.04,-0.247,0.317,-0.121
24.05,-0.478,0.939,-0.122
24.06,-0.061,1.087,0.171
24.07,-0.135,0.886,0.014
24.08,-0.304,0.814,-0.114
24.09,-0.423,0.597,-0.035
24.1,-0.143,1.338,0.188
24.11,-0.184,0.704,0.083
24.12,-0.332,0.85,-0.129
24.13,-0.418,0.879,-0.109
24.14,-0.078,1.14,0.184
24.15,-0.237,1.048,0.048
24.16,-0.221,0.455,-0.118
24.17,-0.471,1.369,-0.038
24.18,0.021,0.845,0.18
24.19,-0.36,1.194,0.122
24.2,-0.235,0.454,-0.134
24.21,-0.446,1.179,-0.083
24.22,-0.046,1.108,0.156
24.23,-0.226,0.783,0.08
24.24,-0.338,0.918,-0.131
24.25,-0.443,0.699,-0.044
24.26,-0.145,1.353,0.189
24.27,-0.182,0.693,0.114
24.28,-0.363,0.863,-0.116
24.29,-0.347,0.917,-0.11
24.3,-0.105,1.112,0.167
24.31,-0.24,1.007,0.036
24.32,-0.172,0.466,-0.15
24.33,-0.389,1.475,-0.103
24.34,0.041,0.956,0.132
24.35,-0.224,1.156,0.083
24.36,-0.325,0.414,-0.167
24.37,-0.389,1.503,-0.012
24.38,-0.064,0.828,0.144
24.39,-0.279,1.038,0.065
24.4,-0.308,0.65,-0.149
24.41,-0.361,1.102,-0.052
24.42,-0.095,1.228,0.182
24.43,-0.076,0.648,0.059
24.44,-0.437,0.949,-0.13
24.45,-0.262,0.991,-0.009
24.46,-0.139,1.305,0.184
24.47,-0.176,0.71,0.125
24.48,-0.389,0.822,-0.127
24.49,-0.348,1.262,-0.077
24.5,-0.11,0.865,0.173
24.51,-0.264,1.197,0.077
24.52,-0.229,0.358,-0.164
24.53,-0.345,1.597,-0.057
24.54,-0.03,0.886,0.202
24.55,-0.149,0.996,0.112
24.56,-0.343,0.646,-0.137
24.57,-0.258,1.157,-0.099
24.58,-0.139,1.226,0.115
24.59,-0.078,0.656,0.062
24.6,-0.395,0.991,-0.193
24.61,-0.307,0.814,-0.082
24.62,-0.111,1.28,0.139
24.63,-0.166,0.801,0.085
24.64,-0.249,0.742,-0.199
24.65,-0.437,1.222,-0.098
24.66,-0.011,0.93,0.172
24.67,-0.239,1.19,0.055
24.68,-0.21,0.353,-0.198
24.69,-0.482,1.347,-0.115
24.7,0.024,0.897,0.137
24.71,-0.276,1.112,0.07
24.72,-0.203,0.581,-0.144
24.73,-0.398,0.944,-0.1
24.74,-0.054,1.252,0.159
24.75,-0.126,0.691,0.008
24.76,-0.289,0.958,-0.153
24.77,-0.348,0.608,-0.109
24.78,-0.162,1.287,0.186
24.79,-0.12,0.813,0.021
24.8,-0.243,0.716,-0.134
24.81,-0.411,0.998,-0.102
24.82,0.013,0.981,0.196
24.83,-0.228,1.164,0.026
24.84,-0.042,0.348,-0.14
24.85,-0.476,1.242,-0.121
24.86,-0.015,0.881,0.185
24.87,-0.28,1.171,0.049
24.88,-0.179,0.474,-0.104
24.89,-0.463,0.756,-0.104
24.9,-0.061,1.261,0.145
24.91,-0.118,0.71,0.052
24.92,-0.301,0.947,-0.133
24.93,-0.42,0.381,-0.091
24.94,-0.129,1.4,0.173
24.95,-0.104,0.825,-0.038
24.96,-0.197,0.67,-0.125
24.97,-0.413,0.808,-0.188
24.98,0.026,1.057,0.144
24.99,-0.292,1.232,-0.012
25.0,-0.032,0.348,-0.131
25.01,-0.57,1.133,-0.146
25.02,0.084,0.952,0.143
25.03,-0.253,1.153,0.04
25.04,-0.137,0.533,-0.142
25.05,-0.459,0.715,-0.124
25.06,-0.032,1.255,0.159
25.07,-0.109,0.775,0.029
25.08,-0.204,0.919,-0.097
25.09,-0.513,0.418,-0.116
25.1,-0.076,1.379,0.199
25.11,-0.173,0.829,0.032
25.12,-0.262,0.683,-0.12
25.13,-0.423,0.772,-0.144
25.14,-0.038,1.062,0.178
25.15,-0.265,1.167,0.02
25.16,-0.003,0.353,-0.12
25.17,-0.482,1.158,-0.069
25.18,0.05,0.917,0.176
25.19,-0.36,1.21,0.053
25.2,-0.055,0.417,-0.144
25.21,-0.513,1.068,-0.05
25.22,0.061,1.035,0.125
25.23,-0.278,0.998,0.066
25.24,-0.223,0.731,-0.149
25.25,-0.458,0.585,-0.04
25.26,-0.079,1.352,0.171
25.27,-0.228,0.664,0.066
25.28,-0.229,0.938,-0.105
25.29,-0.474,0.696,-0.079
25.3,-0.038,1.253,0.203
25.31,-0.384,0.914,0.089
25.32,-0.159,0.6,-0.122
25.33,-0.472,1.108,-0.068
25.34,0.052,0.948,0.148
25.35,-0.307,1.242,0.076
25.36,-0.086,0.293,-0.18
25.37,-0.442,1.151,-0.11
25.38,0.059,1.079,0.123
25.39,-0.198,0.919,0.075
25.4,-0.294,0.736,-0.143
25.41,-0.352,0.625,-0.01
25.42,-0.195,1.384,0.164
25.43,-0.097,0.629,0.113
25.44,-0.454,0.959,-0.121
25.45,-0.324,0.572,-0.059
25.46,-0.141,1.26,0.165
25.47,-0.15,0.941,0.058
25.48,-0.258,0.482,-0.139
25.49,-0.498,1.12,-0.017
25.5,0.057,1.001,0.143
25.51,-0.335,1.223,0.101
25.52,-0.091,0.297,-0.147
25.53,-0.529,1.151,-0.055
25.54,0.031,1.04,0.14
25.55,-0.226,0.99,0.066
25.56,-0.239,0.721,-0.119
25.57,-0.497,0.593,-0.1
25.58,-0.108,1.405,0.157
25.59,-0.174,0.707,0.081
25.6,-0.273,0.912,-0.105
25.61,-0.461,0.536,-0.095
25.62,-0.114,1.23,0.195
25.63,-0.194,0.997,0.027
25.64,-0.226,0.455,-0.122
25.65,-0.414,1.019,-0.117
25.66,0.021,0.913,0.177
25.67,-0.279,1.265,0.052
25.68,-0.137,0.346,-0.104
25.69,-0.508,0.984,-0.107
25.7,-0.024,0.989,0.191
25.71,-0.164,1.084,0.015
25.72,-0.193,0.675,-0.147
25.73,-0.443,0.483,-0.118
25.74,-0.057,1.377,0.189
25.75,-0.113,0.709,0.011
25.76,-0.235,0.904,-0.109
25.77,-0.428,0.493,-0.105
25.78,-0.124,1.284,0.199
25.79,-0.249,0.932,0.034
25.8,-0.196,0.556,-0.101
25.81,-0.541,0.939,-0.1
25.82,0.013,0.96,0.228
25.83,-0.278,1.264,0.024
25.84,-0.114,0.332,-0.125
25.85,-0.515,1.053,-0.107
25.86,0.072,1.056,0.142
25.87,-0.209,1.051,0.038
25.88,-0.148,0.697,-0.123
25.89,-0.531,0.556,-0.076
25.9,-0.108,1.375,0.222
25.91,-0.182,0.67,0.072
25.92,-0.399,0.875,-0.132
25.93,-0.43,0.471,-0.056
25.94,-0.167,1.305,0.183
25.95,-0.201,0.932,0.024
25.96,-0.18,0.544,-0.101
25.97,-0.307,1.102,-0.092
25.98,-0.025,1.084,0.162
25.99,-0.241,1.094,0.08
26.0,-0.167,0.447,-0.188
26.01,-0.49,1.33,-0.042
26.02,0.057,0.844,0.08
26.03,-0.32,1.217,0.082
26.04,-0.121,0.464,-0.148
26.05,-0.433,1.006,-0.032
26.06,-0.02,1.113,0.163
26.07,-0.161,0.801,0.009
26.08,-0.238,0.846,-0.173
26.09,-0.33,0.81,-0.056
26.1,-0.126,1.38,0.187
26.11,-0.154,0.678,0.039
26.12,-0.261,0.854,-0.166
26.13,-0.335,1.011,-0.073
26.14,-0.048,1.039,0.167
26.15,-0.204,1.146,0.045
26.16,-0.202,0.403,-0.181
26.17,-0.396,1.332,-0.043
26.18,-0.01,0.822,0.185
26.19,-0.322,1.229,0.122
26.2,-0.193,0.441,-0.126
26.21,-0.459,1.091,-0.088
26.22,-0.034,1.122,0.161
26.23,-0.199,0.8,0.034
26.24,-0.324,0.846,-0.129
26.25,-0.342,0.741,-0.05
26.26,-0.168,1.329,0.189
26.27,-0.115,0.732,0.067
26.28,-0.322,0.886,-0.161
26.29,-0.302,0.929,-0.047
26.3,-0.093,1.038,0.179
26.31,-0.312,1.12,0.071
26.32,-0.16,0.408,-0.165
26.33,-0.383,1.51,-0.073
26.34,0.057,0.828,0.168
26.35,-0.291,1.221,0.057
26.36,-0.172,0.439,-0.198
26.37,-0.35,1.272,-0.092
26.38,0.026,1.081,0.131
26.39,-0.193,0.76,0.078
26.4,-0.297,0.944,-0.1
26.41,-0.389,0.79,-0.035
26.42,-0.075,1.281,0.154
26.43,-0.13,0.72,0.06
26.44,-0.314,0.878,-0.149
26.45,-0.377,0.963,-0.051
26.46,-0.019,1.042,0.209
26.47,-0.312,1.115,0.071
26.48,-0.206,0.396,-0.141
26.49,-0.403,1.469,-0.022
26.5,-0.081,0.842,0.255
26.51,-0.296,1.198,0.121
26.52,-0.24,0.435,-0.139
26.53,-0.334,1.284,-0.068
26.54,-0.054,1.089,0.126
26.55,-0.104,0.767,0.039
26.56,-0.31,0.873,-0.16
26.57,-0.287,0.862,-0.068
26.58,-0.161,1.35,0.157
26.59,-0.147,0.65,0.087
26.6,-0.344,0.868,-0.162
26.61,-0.292,1.046,-0.116
26.62,-0.069,1.073,0.167
26.63,-0.24,1.091,0.042
26.64,-0.225,0.413,-0.178
26.65,-0.361,1.505,-0.082
26.66,0.001,0.818,0.172
26.67,-0.246,1.194,0.069
26.68,-0.19,0.426,-0.18
26.69,-0.272,1.362,-0.098
26.7,-0.06,1.07,0.146
26.71,-0.136,0.747,0.047
26.72,-0.378,0.911,-0.165
26.73,-0.29,0.928,-0.046
26.74,-0.117,1.331,0.135
26.75,-0.128,0.653,0.082
26.76,-0.383,0.906,-0.153
26.77,-0.302,1.102,-0.066
26.78,-0.158,1.171,0.152
26.79,-0.121,0.774,0.035
26.8,-0.343,0.77,-0.161
26.81,-0.302,1.535,-0.012
26.82,-0.089,0.822,0.175
26.83,-0.234,1.135,0.056
26.84,-0.282,0.392,-0.205
26.85,-0.344,1.687,0.031
26.86,-0.089,0.833,0.183
26.87,-0.172,0.939,0.067
26.88,-0.391,0.688,-0.156
26.89,-0.241,1.3,-0.04
26.9,-0.043,1.163,0.126
26.91,0.017,0.54,0.043
26.92,-0.479,1.137,-0.2
26.93,-0.253,1.067,0.018
26.94,-0.141,1.137,0.132
26.95,-0.122,0.77,0.042
26.96,-0.398,0.783,-0.205
26.97,-0.31,1.584,0.035
26.98,-0.037,0.81,0.143
26.99,-0.156,1.029,0.049
27.0,-0.26,0.405,-0.212
27.01,-0.34,1.818,0.015
27.02,-0.067,0.78,0.137
27.03,-0.127,0.917,0.076
27.04,-0.386,0.72,-0.237
27.05,-0.272,1.282,-0.02
27.06,-0.155,1.116,0.144
27.07,0.0,0.497,0.033
27.08,-0.438,1.105,-0.168
27.09,-0.276,1.234,0.024
27.1,-0.12,1.22,0.212
27.11,-0.045,0.584,0.026
27.12,-0.447,0.843,-0.198
27.13,-0.258,1.611,0.011
27.14,-0.125,0.76,0.156
27.15,-0.138,1.032,0.053
27.16,-0.41,0.43,-0.204
27.17,-0.299,1.792,0.023
27.18,-0.038,0.801,0.154
27.19,-0.135,0.831,0.056
27.2,-0.386,0.711,-0.193
27.21,-0.231,1.426,-0.048
27.22,-0.123,1.079,0.194
27.23,0.033,0.564,0.052
27.24,-0.509,1.088,-0.202
27.25,-0.216,1.152,0.045
27.26,-0.208,1.134,0.106
27.27,-0.001,0.689,0.019
27.28,-0.372,0.826,-0.242
27.29,-0.231,1.606,-0.008
27.3,-0.031,0.813,0.161
27.31,-0.124,0.994,0.034
27.32,-0.289,0.411,-0.209
27.33,-0.359,1.83,-0.005
27.34,-0.053,0.75,0.163
27.35,-0.156,0.884,0.038
27.36,-0.374,0.689,-0.202
27.37,-0.302,1.43,0.044
27.38,-0.133,1.094,0.176
27.39,0.029,0.499,0.042
27.4,-0.492,1.152,-0.199
27.41,-0.229,1.207,0.05
27.42,-0.218,1.15,0.184
27.43,-0.025,0.663,0.084
27.44,-0.5,0.805,-0.204
27.45,-0.227,1.617,0.025
27.46,-0.146,0.768,0.111
27.47,-0.164,1.0,0.075
27.48,-0.336,0.399,-0.206
27.49,-0.36,1.828,0.021
27.5,-0.02,0.742,0.118
27.51,-0.12,0.917,0.049
27.52,-0.372,0.706,-0.226
27.53,-0.332,1.45,0.041
27.54,-0.108,1.042,0.159
27.55,0.023,0.53,0.029
27.56,-0.486,1.061,-0.219
27.57,-0.232,1.16,0.024
27.58,-0.193,1.159,0.132
27.59,0.045,0.383,0.026
27.6,-0.46,1.055,-0.234
27.61,-0.115,1.53,0.041
27.62,-0.145,0.943,0.159
27.63,-0.104,0.856,0.12
27.64,-0.082,0.802,-0.022
27.65,-0.382,0.653,-0.248
27.66,-0.146,1.659,0.118
27.67,-0.126,1.166,0.078
27.68,0.111,0.354,-0.016
27.69,-0.528,1.06,-0.199
27.7,0.005,1.546,0.078
27.71,-0.157,1.26,0.135
27.72,0.029,0.468,0.005
27.73,-0.498,0.798,-0.13
27.74,-0.078,1.948,0.116
27.75,-0.107,0.764,0.151
27.76,-0.063,0.847,0.027
27.77,-0.382,0.44,-0.209
27.78,-0.181,2.0,0.027
27.79,-0.081,0.69,0.107
27.8,-0.005,0.782,-0.007
27.81,-0.421,0.635,-0.204
27.82,-0.15,1.618,0.116
27.83,-0.113,1.106,0.08
27.84,0.096,0.382,-0.029
27.85,-0.465,1.091,-0.207
27.86,-0.063,1.432,0.089
27.87,-0.249,1.231,0.109
27.88,0.059,0.524,-0.02
27.89,-0.441,0.808,-0.177
27.9,-0.081,1.771,0.101
27.91,-0.179,0.829,0.132
27.92,-0.037,0.937,-0.056
27.93,-0.44,0.38,-0.168
27.94,-0.127,2.0,0.134
27.95,-0.138,0.766,0.095
27.96,-0.147,0.698,0.024
27.97,-0.431,0.595,-0.234
27.98,-0.127,1.69,0.1
27.99,-0.125,1.073,0.086
28.0,0.031,0.354,-0.049
28.01,-0.375,1.069,-0.228
28.02,-0.077,1.498,0.135
28.03,-0.189,1.285,0.077
28.04,0.057,0.499,-0.027
28.05,-0.475,0.865,-0.167
28.06,-0.092,1.718,0.149
28.07,-0.18,0.87,0.109
28.08,-0.094,0.83,-0.036
28.09,-0.407,0.339,-0.176
28.1,-0.156,2.0,0.095
28.11,-0.073,0.744,0.094
28.12,-0.164,0.796,-0.029
28.13,-0.358,0.587,-0.192
28.14,-0.104,1.816,0.205
28.15,-0.182,1.184,0.082
28.16,0.077,0.346,-0.056
28.17,-0.512,1.153,-0.194
28.18,-0.029,1.495,0.2
28.19,-0.276,1.226,0.199
28.2,0.042,0.44,-0.009
28.21,-0.577,0.805,-0.191
28.22,-0.047,1.792,-0.003
28.23,-0.131,0.902,0.056
28.24,-0.013,0.867,-0.045
28.25,-0.352,0.415,-0.211
28.26,-0.132,2.0,0.103
28.27,-0.139,0.729,0.098
28.28,-0.089,0.858,-0.056
28.29,-0.341,0.605,-0.251
28.3,-0.044,1.706,0.113
28.31,-0.183,1.128,0.069
28.32,-0.049,0.602,-0.061
28.33,-0.527,0.829,-0.202
28.34,-0.063,1.368,0.207
28.35,-0.297,1.284,0.114
28.36,0.034,0.462,-0.046
28.37,-0.502,0.976,-0.183
28.38,-0.074,1.313,0.192
28.39,-0.243,1.166,0.14
28.4,-0.133,0.709,-0.054
28.41,-0.445,0.448,-0.136
28.42,-0.19,1.735,0.141
28.43,-0.115,0.783,0.143
28.44,-0.138,1.005,-0.095
28.45,-0.429,0.317,-0.173
28.46,-0.143,1.814,0.179
28.47,-0.143,1.051,0.081
28.48,-0.11,0.58,-0.062
28.49,-0.514,0.849,-0.183
28.5,-0.039,1.283,0.115
28.51,-0.344,1.318,0.106
28.52,-0.014,0.407,-0.03
28.53,-0.593,0.956,-0.177
28.54,-0.029,1.317,0.203
28.55,-0.219,1.152,0.058
28.56,-0.078,0.737,-0.082
28.57,-0.414,0.506,-0.172
28.58,-0.21,1.705,0.176
28.59,-0.185,0.813,0.196
28.6,-0.196,0.968,-0.033
28.61,-0.45,0.276,-0.153
28.62,-0.191,1.645,0.19
28.63,-0.16,1.027,0.123
28.64,-0.175,0.629,-0.049
28.65,-0.476,0.814,-0.162
28.66,-0.098,1.208,0.205
28.67,-0.304,1.301,0.098
28.68,-0.014,0.391,-0.054
28.69,-0.552,1.006,-0.217
28.7,-0.057,1.179,0.194
28.71,-0.343,1.166,0.2
28.72,-0.109,0.709,-0.05
28.73,-0.475,0.48,-0.197
28.74,-0.169,1.703,0.175
28.75,-0.089,0.851,0.082
28.76,-0.292,0.963,-0.073
28.77,-0.383,0.26,-0.172
28.78,-0.177,1.627,0.146
28.79,-0.2,0.99,0.105
28.8,-0.095,0.652,-0.05
28.81,-0.517,0.825,-0.236
28.82,-0.025,1.23,0.198
28.83,-0.296,1.352,0.057
28.84,-0.029,0.364,-0.052
28.85,-0.51,0.965,-0.189
28.86,-0.06,1.195,0.113
28.87,-0.152,1.175,0.007
28.88,-0.115,0.719,-0.05
28.89,-0.433,0.46,-0.155
28.9,-0.172,1.698,0.161
28.91,-0.054,0.778,0.089
28.92,-0.172,1.053,-0.097
28.93,-0.396,0.262,-0.188
28.94,-0.142,1.617,0.165
28.95,-0.168,1.012,0.089
28.96,-0.077,0.646,-0.059
28.97,-0.415,0.794,-0.283
28.98,0.0,1.101,0.184
28.99,-0.244,1.319,0.017
29.0,-0.104,0.355,-0.086
29.01,-0.458,0.988,-0.193
29.02,-0.016,1.22,0.151
29.03,-0.173,1.168,0.092
29.04,-0.161,0.702,-0.075
29.05,-0.479,0.519,-0.152
29.06,-0.153,1.545,0.211
29.07,-0.111,0.854,0.116
29.08,-0.186,0.948,-0.068
29.09,-0.441,0.29,-0.162
29.1,-0.105,1.471,0.165
29.11,-0.281,0.948,0.097
29.12,-0.224,0.82,-0.156
29.13,-0.428,0.518,-0.194
29.14,-0.032,1.181,0.145
29.15,-0.192,1.274,0.014
29.16,-0.083,0.396,-0.155
29.17,-0.42,0.984,-0.187
29.18,0.041,0.948,0.16
29.19,-0.115,1.342,0.044
29.2,-0.086,0.528,-0.136
29.21,-0.408,0.783,-0.167
29.22,-0.094,1.186,0.147
29.23,-0.063,0.967,-0.006
29.24,-0.249,0.83,-0.181
29.25,-0.352,0.355,-0.147
29.26,-0.118,1.381,0.142
29.27,-0.103,0.827,-0.019
29.28,-0.193,0.808,-0.154
29.29,-0.408,0.563,-0.203
29.3,-0.015,1.136,0.16
29.31,-0.253,1.125,0.018
29.32,-0.176,0.394,-0.122
29.33,-0.511,1.02,-0.131
29.34,0.081,0.963,0.159
29.35,-0.152,1.279,0.028
29.36,-0.151,0.39,-0.149
29.37,-0.47,0.889,-0.119
29.38,0.038,1.159,0.098
29.39,-0.196,0.942,0.029
29.4,-0.228,0.783,-0.121
29.41,-0.418,0.373,-0.139
29.42,-0.14,1.417,0.233
29.43,-0.208,0.803,0.079
29.44,-0.255,0.802,-0.114
29.45,-0.4,0.505,-0.138
29.46,-0.075,1.149,0.223
29.47,-0.201,1.141,-0.019
29.48,-0.092,0.448,-0.095
29.49,-0.481,1.136,-0.095
29.5,-0.032,0.887,0.218
29.51,-0.306,1.229,0.047
29.52,-0.241,0.412,-0.088
29.53,-0.477,0.899,-0.058
29.54,-0.054,1.103,0.145
29.55,-0.17,0.854,-0.007
29.56,-0.297,0.89,-0.141
29.57,-0.323,0.535,-0.067
29.58,-0.121,1.353,0.191
29.59,-0.176,0.746,0.067
29.6,-0.32,0.8,-0.095
29.61,-0.396,0.907,-0.074
29.62,-0.026,1.166,0.201
29.63,-0.302,1.09,0.053
29.64,-0.205,0.467,-0.162
29.65,-0.477,1.273,-0.032
29.66,-0.011,0.841,0.169
29.67,-0.302,1.26,0.08
29.68,-0.181,0.411,-0.136
29.69,-0.351,1.159,-0.067
29.7,-0.025,1.046,0.119
29.71,-0.216,0.844,0.054
29.72,-0.228,0.831,-0.176
29.73,-0.366,0.816,-0.037
29.74,-0.089,1.362,0.175
29.75,-0.221,0.682,0.056
29.76,-0.321,0.868,-0.136
29.77,-0.31,1.006,-0.065
29.78,-0.036,1.083,0.125
29.79,-0.213,1.011,0.044
29.8,-0.211,0.504,-0.169
29.81,-0.319,1.508,-0.047
29.82,-0.004,0.787,0.178
29.83,-0.293,1.186,0.109
29.84,-0.225,0.422,-0.152
29.85,-0.315,1.292,-0.066
29.86,-0.04,1.012,0.123
29.87,-0.198,0.804,0.039
29.88,-0.283,0.812,-0.208
29.89,-0.243,1.039,-0.056
29.9,-0.073,1.334,0.136
29.91,-0.093,0.558,0.023
29.92,-0.406,0.99,-0.231
29.93,-0.183,1.095,0.02
29.94,-0.221,1.163,0.165
29.95,-0.106,0.725,0.068
29.96,-0.4,0.784,-0.195
29.97,-0.23,1.577,0.001
29.98,-0.124,0.815,0.149
29.99,-0.168,1.042,0.043
30.0,-0.382,0.338,-0.204
30.01,-0.27,1.739,-0.016
30.02,-0.075,0.782,0.118
30.03,-0.15,0.939,0.082
30.04,-0.402,0.732,-0.238
30.05,-0.242,1.261,0.023
30.06,-0.123,1.191,0.144
30.07,-0.07,0.55,0.049
30.08,-0.426,1.067,-0.155
30.09,-0.292,1.194,0.011
30.1,-0.123,1.147,0.182
30.11,-0.025,0.686,0.056
30.12,-0.484,0.77,-0.189
30.13,-0.285,1.667,0.064
30.14,-0.1,0.738,0.145
30.15,-0.109,1.026,0.089
30.16,-0.287,0.454,-0.218
30.17,-0.37,1.852,0.029
30.18,-0.011,0.8,0.154
30.19,-0.136,0.857,0.085
30.2,-0.384,0.674,-0.156
30.21,-0.299,1.42,0.076
30.22,-0.149,1.086,0.172
30.23,0.022,0.53,0.076
30.24,-0.537,1.108,-0.192
30.25,-0.243,1.179,0.088
30.26,-0.216,1.061,0.137
30.27,-0.017,0.664,0.052
30.28,-0.482,0.786,-0.149
30.29,-0.226,1.656,0.011
30.3,-0.176,0.708,0.179
30.31,-0.042,0.977,0.03
30.32,-0.409,0.357,-0.213
30.33,-0.269,1.873,0.082
30.34,-0.21,0.683,0.13
30.35,-0.077,0.876,0.051
30.36,-0.379,0.641,-0.227
30.37,-0.187,1.45,0.01
30.38,-0.129,1.177,0.152
30.39,0.01,0.396,0.003
30.4,-0.447,1.111,-0.199
30.41,-0.146,1.333,0.031
30.42,-0.203,1.132,0.231
30.43,-0.022,0.552,0.036
30.44,-0.476,0.788,-0.226
30.45,-0.138,1.685,0.029
30.46,-0.206,0.793,0.179
30.47,-0.044,0.918,0.017
30.48,-0.403,0.378,-0.213
30.49,-0.284,1.962,0.076
30.5,-0.099,0.667,0.116
30.51,-0.071,0.847,0.039
30.52,-0.375,0.658,-0.227
30.53,-0.145,1.584,0.086
30.54,-0.23,1.101,0.095
30.55,0.114,0.408,0.012
30.56,-0.525,1.022,-0.216
30.57,-0.118,1.354,0.111
30.58,-0.219,1.117,0.128
30.59,-0.001,0.564,0.007
30.6,-0.463,0.852,-0.17
30.61,-0.175,1.784,0.06
30.62,-0.083,0.726,0.184
30.63,-0.039,0.915,0.015
30.64,-0.365,0.322,-0.213
30.65,-0.213,2.0,0.119
30.66,-0.117,0.75,0.147
30.67,-0.108,0.779,0.02
30.68,-0.378,0.64,-0.253
30.69,-0.108,1.657,0.111
30.7,-0.126,1.157,0.14
30.71,0.035,0.333,-0.01
30.72,-0.509,1.083,-0.226
30.73,-0.005,1.452,0.081
30.74,-0.17,1.249,0.091
30.75,0.131,0.43,-0.021
30.76,-0.487,1.006,-0.247
30.77,0.035,1.715,0.024
30.78,-0.19,1.069,0.077
30.79,0.069,0.723,-0.027
30.8,-0.469,0.505,-0.208
30.81,-0.206,1.956,0.097
30.82,-0.111,0.762,0.079
30.83,-0.061,0.897,-0.017
30.84,-0.351,0.339,-0.211
30.85,-0.162,1.791,0.1
30.86,-0.101,0.967,0.053
30.87,-0.012,0.583,-0.078
30.88,-0.461,0.966,-0.235
30.89,-0.039,1.492,0.09
30.9,-0.268,1.333,0.077
30.91,0.146,0.372,-0.055
30.92,-0.545,0.997,-0.239
30.93,0.003,1.434,0.082
30.94,-0.242,1.04,0.058
30.95,0.033,0.815,-0.075
30.96,-0.48,0.403,-0.204
30.97,-0.073,1.964,0.115
30.98,-0.127,0.782,0.084
30.99,-0.049,0.926,-0.081
31.0,-0.441,0.375,-0.229
31.01,-0.088,1.757,0.116
31.02,-0.12,0.975,0.031
31.03,-0.034,0.601,-0.054
31.04,-0.452,0.915,-0.185
31.05,-0.046,1.338,0.098
31.06,-0.293,1.327,0.113
31.07,0.005,0.41,-0.019
31.08,-0.526,1.035,-0.195
31.09,-0.082,1.391,0.184
31.1,-0.244,1.112,0.124
31.11,-0.039,0.784,-0.059
31.12,-0.495,0.404,-0.183
31.13,-0.156,1.808,0.128
31.14,-0.09,0.778,0.006
31.15,-0.131,1.012,-0.06
31.16,-0.393,0.283,-0.202
31.17,-0.18,1.707,0.143
31.18,-0.261,1.071,0.087
31.19,-0.046,0.597,-0.022
31.2,-0.504,0.881,-0.197
31.21,-0.047,1.281,0.192
31.22,-0.243,1.313,0.088
31.23,0.019,0.457,-0.072
31.24,-0.555,0.938,-0.178
31.25,-0.056,1.276,0.201
31.26,-0.261,1.091,0.118
31.27,-0.133,0.814,-0.058
31.28,-0.46,0.463,-0.151
31.29,-0.145,1.626,0.189
31.3,-0.046,0.885,0.034
31.31,-0.168,0.949,-0.076
31.32,-0.433,0.294,-0.174
31.33,-0.16,1.596,0.158
31.34,-0.201,1.011,0.078
31.35,-0.066,0.667,-0.067
31.36,-0.514,0.835,-0.21
31.37,-0.016,1.191,0.152
31.38,-0.334,1.37,0.101
31.39,-0.01,0.418,-0.031
31.4,-0.541,0.918,-0.166
31.41,0.0,1.175,0.19
31.42,-0.274,1.055,0.056
31.43,-0.076,0.848,-0.085
31.44,-0.411,0.362,-0.163
31.45,-0.175,1.464,0.191
31.46,-0.08,0.776,0.079
31.47,-0.167,0.998,-0.08
31.48,-0.448,0.31,-0.161
31.49,-0.134,1.423,0.19
31.5,-0.225,1.008,0.055
31.51,-0.056,0.63,-0.072
31.52,-0.406,0.901,-0.199
31.53,-0.031,1.046,0.173
31.54,-0.256,1.163,0.006
31.55,-0.164,0.332,-0.134
31.56,-0.535,1.038,-0.153
31.57,0.036,0.92,0.157
31.58,-0.252,1.313,0.018
31.59,-0.142,0.421,-0.13
31.6,-0.49,0.728,-0.104
31.61,-0.055,1.231,0.158
31.62,-0.06,0.871,0.023
31.63,-0.28,0.844,-0.126
31.64,-0.43,0.414,-0.095
31.65,-0.209,1.317,0.22
31.66,-0.205,0.778,0.059
31.67,-0.275,0.745,-0.106
31.68,-0.439,0.76,-0.123
31.69,-0.139,1.021,0.217
31.7,-0.242,1.184,0.017
31.71,-0.083,0.369,-0.227
31.72,-0.502,1.159,-0.08
31.73,0.001,0.875,0.137
31.74,-0.214,1.272,0.008
31.75,-0.207,0.481,-0.137
31.76,-0.479,0.911,-0.08
31.77,-0.011,1.192,0.14
31.78,-0.163,0.762,0.056
31.79,-0.319,0.917,-0.138
31.8,-0.398,0.583,-0.024
31.81,-0.148,1.369,0.211
31.82,-0.2,0.743,0.082
31.83,-0.234,0.761,-0.13
31.84,-0.353,1.103,-0.053
31.85,-0.05,1.021,0.205
31.86,-0.268,1.107,0.084
31.87,-0.208,0.486,-0.162
31.88,-0.417,1.412,-0.093
31.89,-0.004,0.787,0.157
31.9,-0.283,1.203,0.114
31.91,-0.256,0.461,-0.179
31.92,-0.33,1.1,-0.028
31.93,-0.098,1.09,0.166
31.94,-0.178,0.743,0.092
31.95,-0.269,0.921,-0.16
31.96,-0.295,0.933,-0.07
31.97,-0.106,1.323,0.142
31.98,-0.156,0.661,0.092
31.99,-0.389,0.917,-0.15
32.0,-0.292,1.113,-0.065
32.01,-0.101,0.964,0.158
32.02,-0.224,1.103,0.066
32.03,-0.201,0.397,-0.169
32.04,-0.364,1.524,-0.029
32.05,-0.001,0.791,0.196
32.06,-0.36,1.169,0.05
32.07,-0.192,0.476,-0.191
32.08,-0.344,1.258,-0.06
32.09,-0.031,1.103,0.133
32.1,-0.107,0.717,-0.015
32.11,-0.356,0.928,-0.164
32.12,-0.261,0.956,-0.025
32.13,-0.16,1.316,0.194
32.14,-0.132,0.682,0.067
32.15,-0.431,0.897,-0.117
32.16,-0.27,1.309,-0.082
32.17,-0.075,1.006,0.169
32.18,-0.198,1.053,0.064
32.19,-0.3,0.451,-0.181
32.2,-0.309,1.65,-0.054
32.21,-0.062,0.758,0.182
32.22,-0.239,1.14,0.037
32.23,-0.326,0.489,-0.24
32.24,-0.257,1.31,-0.018
32.25,-0.102,1.018,0.174
32.26,-0.048,0.691,0.019
32.27,-0.417,1.025,-0.215
32.28,-0.169,1.052,-0.022
32.29,-0.138,1.236,0.16
32.3,-0.059,0.671,0.075
32.31,-0.433,0.9,-0.206
32.32,-0.252,1.368,-0.037
32.33,-0.001,0.936,0.128
32.34,-0.175,0.972,0.019
32.35,-0.381,0.716,-0.158
32.36,-0.298,1.844,0.031
32.37,-0.065,0.651,0.177
32.38,-0.148,1.028,0.062
32.39,-0.346,0.398,-0.23
32.4,-0.321,1.794,0.047
32.41,-0.042,0.82,0.168
32.42,-0.128,0.71,0.025
32.43,-0.338,0.836,-0.214
32.44,-0.216,1.419,0.019
32.45,-0.156,1.158,0.169
32.46,0.031,0.448,0.044
32.47,-0.465,1.015,-0.197
32.48,-0.165,1.392,0.055
32.49,-0.196,1.054,0.14
32.5,-0.029,0.69,0.046
32.51,-0.463,0.666,-0.185
32.52,-0.29,1.808,0.118
32.53,-0.107,0.683,0.167
32.54,-0.136,0.984,0.059
32.55,-0.352,0.402,-0.208
32.56,-0.273,1.842,0.091
32.57,-0.085,0.868,0.164
32.58,-0.068,0.688,0.031
32.59,-0.349,0.845,-0.25
32.6,-0.193,1.397,0.035
32.61,-0.222,1.08,0.138
32.62,0.065,0.442,0.06
32.63,-0.548,1.052,-0.226
32.64,-0.147,1.366,0.062
32.65,-0.156,1.034,0.131
32.66,-0.057,0.642,0.038
32.67,-0.441,0.674,-0.215
32.68,-0.2,1.851,0.068
32.69,-0.026,0.808,0.135
32.7,-0.168,0.904,0.021
32.71,-0.36,0.356,-0.24
32.72,-0.247,1.824,0.101
32.73,-0.141,0.764,0.143
32.74,-0.054,0.775,0.05
32.75,-0.49,0.792,-0.22
32.76,-0.196,1.377,0.114
32.77,-0.237,1.161,0.171
32.78,0.09,0.403,0.064
32.79,-0.491,1.078,-0.17
32.8,-0.105,1.428,0.047
32.81,-0.143,1.118,0.158
32.82,-0.02,0.619,0.036
32.83,-0.399,0.677,-0.187
32.84,-0.261,1.868,0.111
32.85,-0.036,0.737,0.149
32.86,-0.201,0.957,0.052
32.87,-0.328,0.436,-0.217
32.88,-0.334,1.879,0.071
32.89,-0.123,0.795,0.161
32.9,-0.056,0.729,0.022
32.91,-0.398,0.8,-0.192
32.92,-0.221,1.415,0.128
32.93,-0.166,1.212,0.182
32.94,-0.025,0.374,0.094
32.95,-0.502,1.048,-0.165
32.96,-0.158,1.421,0.095
32.97,-0.186,1.092,0.152
32.98,-0.024,0.625,0.024
32.99,-0.44,0.688,-0.194
33.0,-0.185,1.842,0.04
33.01,-0.074,0.759,0.134
33.02,-0.125,0.902,0.031
33.03,-0.417,0.396,-0.186
33.04,-0.254,1.91,0.108
33.05,-0.104,0.82,0.153
33.06,0.018,0.707,-0.019
33.07,-0.389,0.83,-0.23
33.08,-0.073,1.45,0.054
33.09,-0.25,1.215,0.175
33.1,0.149,0.347,0.036
33.11,-0.573,1.025,-0.229
33.12,-0.035,1.446,0.099
33.13,-0.264,1.075,0.174
33.14,0.029,0.619,0.035
33.15,-0.493,0.668,-0.155
33.16,-0.029,1.784,0.003
33.17,-0.143,0.878,0.155
33.18,-0.037,0.83,-0.009
33.19,-0.492,0.405,-0.168
33.2,-0.145,2.0,0.103
33.21,-0.144,0.68,0.136
33.22,-0.037,0.826,-0.002
33.23,-0.45,0.556,-0.245
33.24,-0.124,1.781,0.125
33.25,-0.177,0.972,0.104
33.26,0.086,0.449,-0.006
33.27,-0.521,1.015,-0.222
33.28,-0.002,1.456,0.122
33.29,-0.181,1.263,0.084
33.3,0.07,0.374,0.03
33.31,-0.485,0.872,-0.198
33.32,-0.02,1.816,0.03
33.33,-0.162,0.866,0.117
33.34,0.025,0.842,-0.02
33.35,-0.415,0.38,-0.246
33.36,-0.084,2.0,0.035
33.37,-0.058,0.747,0.112
33.38,-0.074,0.808,0.006
33.39,-0.371,0.484,-0.263
33.4,-0.07,1.772,0.063
33.41,-0.146,1.022,0.119
33.42,0.059,0.448,-0.005
33.43,-0.473,0.979,-0.257
33.44,0.021,1.5,0.089
33.45,-0.207,1.176,0.115
33.46,0.092,0.458,0.057
33.47,-0.582,0.894,-0.242
33.48,-0.031,1.73,0.064
33.49,-0.15,0.883,0.09
33.5,-0.017,0.797,-0.001
33.51,-0.358,0.358,-0.205
33.52,-0.1,2.0,0.062
33.53,-0.004,0.726,0.072
33.54,-0.013,0.826,-0.023
33.55,-0.388,0.5,-0.275
33.56,-0.056,1.802,0.079
33.57,-0.152,0.992,0.049
33.58,0.096,0.418,-0.057
33.59,-0.508,1.043,-0.253
33.6,0.0,1.512,0.097
33.61,-0.221,1.286,0.103
33.62,0.087,0.329,0.007
33.63,-0.416,0.977,-0.24
33.64,-0.037,1.718,0.017
33.65,-0.185,0.88,0.101
33.66,0.003,0.924,-0.071
33.67,-0.423,0.397,-0.195
33.68,-0.08,2.0,0.112
33.69,-0.143,0.713,0.113
33.7,-0.088,0.805,-0.01
33.71,-0.43,0.524,-0.176
33.72,-0.125,1.862,0.122
33.73,-0.175,1.039,0.143
33.74,-0.013,0.379,-0.013
33.75,-0.502,0.988,-0.236
33.76,0.016,1.52,0.105
33.77,-0.205,1.331,0.101
33.78,0.027,0.382,-0.031
33.79,-0.447,0.936,-0.195
33.8,-0.077,1.828,0.082
33.81,-0.169,0.94,0.125
33.82,-0.063,0.824,-0.074
33.83,-0.421,0.387,-0.159
33.84,-0.181,2.0,0.121
33.85,-0.161,0.795,0.148
33.86,-0.072,0.802,-0.029
33.87,-0.498,0.485,-0.212
33.88,-0.016,1.723,0.117
33.89,-0.175,1.125,0.029
33.9,0.056,0.511,-0.066
33.91,-0.547,1.043,-0.196
33.92,-0.015,1.455,0.172
33.93,-0.233,1.352,0.1
33.94,0.052,0.418,-0.029
33.95,-0.521,0.88,-0.222
33.96,0.027,1.261,0.174
33.97,-0.326,1.143,0.088
33.98,0.017,0.807,-0.063
33.99,-0.501,0.489,-0.185
34.0,-0.131,1.614,0.207
34.01,-0.028,0.899,0.074
34.02,-0.253,0.962,-0.038
34.03,-0.409,0.3,-0.187
34.04,-0.176,1.664,0.172
34.05,-0.098,1.035,0.085
34.06,-0.09,0.65,-0.06
34.07,-0.493,0.821,-0.18
34.08,-0.07,1.192,0.159
34.09,-0.276,1.276,0.068
34.1,-0.057,0.422,-0.056
34.11,-0.566,0.957,-0.188
34.12,-0.013,1.161,0.157
34.13,-0.247,1.238,0.046
34.14,-0.073,0.698,-0.058
34.15,-0.503,0.506,-0.142
34.16,-0.11,1.537,0.228
34.17,-0.179,0.857,0.115
34.18,-0.135,0.997,-0.046
34.19,-0.485,0.239,-0.176
34.2,-0.095,1.469,0.145
34.21,-0.174,0.96,0.05
34.22,-0.106,0.754,-0.095
34.23,-0.516,0.777,-0.163
34.24,-0.047,1.032,0.209
34.25,-0.256,1.393,0.09
34.26,-0.012,0.378,-0.102
34.27,-0.504,1.027,-0.137
34.28,-0.038,1.077,0.146
34.29,-0.222,1.085,0.099
34.3,-0.129,0.774,-0.099
34.31,-0.503,0.523,-0.083
34.32,-0.133,1.328,0.188
34.33,-0.142,0.829,0.071
34.34,-0.217,0.981,-0.104
34.35,-0.415,0.301,-0.145
34.36,-0.156,1.342,0.195
34.37,-0.178,0.925,-0.009
34.38,-0.112,0.679,-0.14
34.39,-0.45,0.812,-0.148
34.4,-0.067,0.933,0.224
34.41,-0.281,1.269,0.013
34.42,-0.101,0.347,-0.108
34.43,-0.552,1.04,-0.122
34.44,0.02,0.979,0.167
34.45,-0.219,1.138,0.067
34.46,-0.224,0.622,-0.17
34.47,-0.477,0.55,-0.128
34.48,-0.07,1.347,0.16
34.49,-0.152,0.816,0.032
34.5,-0.249,0.878,-0.114
34.51,-0.46,0.372,-0.123
34.52,-0.05,1.335,0.191
34.53,-0.265,0.925,0.032
34.54,-0.154,0.616,-0.141
34.55,-0.489,0.904,-0.118
34.56,0.04,0.932,0.211
34.57,-0.286,1.343,0.047
34.58,-0.21,0.263,-0.122
34.59,-0.512,1.106,-0.061
34.6,0.028,0.922,0.105
34.61,-0.292,1.195,0.072
34.62,-0.225,0.593,-0.157
34.63,-0.484,0.588,-0.033
34.64,-0.06,1.268,0.116
34.65,-0.177,0.789,0.021
34.66,-0.191,0.873,-0.124
34.67,-0.429,0.703,-0.049
34.68,-0.067,1.235,0.154
34.69,-0.247,0.927,0.038
34.7,-0.21,0.637,-0.185
34.71,-0.313,1.171,-0.112
34.72,-0.068,0.831,0.15
34.73,-0.311,1.266,0.03
34.74,-0.181,0.294,-0.167
34.75,-0.324,1.431,-0.089
34.76,-0.019,0.836,0.131
34.77,-0.28,1.102,0.047
34.78,-0.238,0.526,-0.173
34.79,-0.345,1.521,-0.054
34.8,-0.05,0.948,0.16
34.81,-0.131,0.668,0.041
34.82,-0.481,0.936,-0.223
34.83,-0.172,1.047,0.011
34.84,-0.199,1.198,0.142
34.85,-0.075,0.592,0.025
34.86,-0.444,0.954,-0.181
34.87,-0.203,1.356,-0.042
34.88,-0.103,0.928,0.126
34.89,-0.059,0.933,-0.01
34.9,-0.37,0.444,-0.205
34.91,-0.231,1.881,0.017
34.92,-0.062,0.712,0.128
34.93,-0.148,1.029,0.084
34.94,-0.381,0.477,-0.235
34.95,-0.306,1.589,0.019
34.96,-0.107,0.948,0.1
34.97,-0.015,0.67,0.039
34.98,-0.436,1.021,-0.234
34.99,-0.185,1.246,0.017
35.0,-0.185,1.196,0.15
35.01,0.032,0.532,0.078
35.02,-0.52,0.965,-0.173
35.03,-0.24,1.525,0.062
35.04,-0.229,0.896,0.18
35.05,-0.022,0.852,0.019
35.06,-0.437,0.451,-0.19
35.07,-0.316,1.914,0.122
35.08,-0.108,0.705,0.179
35.09,-0.186,0.957,0.093
35.1,-0.384,0.467,-0.177
35.11,-0.345,1.689,0.107
35.12,-0.127,0.927,0.151
35.13,-0.01,0.569,0.033
35.14,-0.504,0.939,-0.197
35.15,-0.147,1.313,0.086
35.16,-0.239,1.111,0.144
35.17,0.052,0.469,0.088
35.18,-0.496,0.979,-0.2
35.19,-0.114,1.551,0.056
35.2,-0.18,0.927,0.159
35.21,0.023,0.818,-0.035
35.22,-0.465,0.428,-0.194
35.23,-0.132,2.0,0.07
35.24,-0.089,0.689,0.098
35.25,-0.013,0.923,0.005
35.26,-0.359,0.484,-0.299
35.27,-0.155,1.792,0.096
35.28,-0.163,0.971,0.15
35.29,0.003,0.474,0.024
35.3,-0.503,0.985,-0.202
35.31,-0.099,1.452,0.077
35.32,-0.238,1.138,0.154
35.33,0.107,0.418,0.019
35.34,-0.447,0.934,-0.219
35.35,-0.071,1.665,0.031
35.36,-0.131,0.94,0.117
35.37,-0.037,0.747,-0.009
35.38,-0.389,0.458,-0.203
35.39,-0.152,2.0,0.067
35.4,-0.021,0.659,0.083
35.41,-0.167,0.846,0.041
35.42,-0.347,0.445,-0.17
35.43,-0.205,1.823,0.158
35.44,-0.14,0.908,0.136
35.45,-0.057,0.498,0.021
35.46,-0.478,0.989,-0.178
35.47,-0.096,1.529,0.131
35.48,-0.244,1.151,0.144
35.49,0.066,0.388,0.054
35.5,-0.532,0.943,-0.21
35.51,-0.035,1.704,0.031
35.52,-0.222,0.945,0.163
35.53,-0.053,0.738,-0.0
35.54,-0.485,0.453,-0.163
35.55,-0.212,2.0,0.082
35.56,-0.116,0.674,0.155
35.57,-0.112,0.925,-0.02
35.58,-0.438,0.311,-0.175
35.59,-0.178,1.877,0.129
35.6,-0.217,0.881,0.114
35.61,-0.113,0.715,-0.092
35.62,-0.387,0.658,-0.222
35.63,-0.027,1.633,0.14
35.64,-0.172,1.258,0.061
35.65,0.016,0.377,-0.124
35.66,-0.461,1.13,-0.207
35.67,-0.009,1.57,0.168
35.68,-0.245,1.21,0.115
35.69,0.061,0.545,-0.06
35.7,-0.441,0.695,-0.196
35.71,-0.127,1.655,0.126
35.72,-0.17,0.779,0.101
35.73,-0.172,0.984,-0.034
35.74,-0.479,0.226,-0.138
35.75,-0.242,1.876,0.182
35.76,-0.216,0.87,0.145
35.77,-0.096,0.782,-0.058
35.78,-0.482,0.654,-0.242
35.79,0.02,1.421,0.151
35.8,-0.239,1.349,0.079
35.81,-0.009,0.312,-0.11
35.82,-0.495,1.089,-0.186
35.83,-0.043,1.306,0.159
35.84,-0.291,1.194,0.132
35.85,-0.049,0.641,-0.081
35.86,-0.47,0.626,-0.078
35.87,-0.119,1.639,0.175
35.88,-0.028,0.873,0.08
35.89,-0.117,0.962,-0.131
35.9,-0.531,0.214,-0.154
35.91,-0.118,1.73,0.201
35.92,-0.209,0.969,0.059
35.93,-0.182,0.683,-0.075
35.94,-0.452,0.678,-0.217
35.95,-0.102,1.299,0.217
35.96,-0.283,1.297,0.108
35.97,-0.26,0.656,-0.071
35.98,-0.444,0.911,-0.085
35.99,-0.015,0.998,0.158
36.0,-0.284,1.296,0.057
36.01,-0.196,0.299,-0.152
36.02,-0.449,1.273,-0.048
36.03,0.006,0.854,0.132
36.04,-0.268,1.187,0.078
36.05,-0.229,0.532,-0.163
36.06,-0.359,1.084,-0.018
36.07,-0.068,1.233,0.186
36.08,-0.156,0.706,0.092
36.09,-0.358,1.03,-0.162
36.1,-0.311,0.867,-0.057
36.11,-0.125,1.261,0.145
36.12,-0.173,0.839,0.063
36.13,-0.379,0.69,-0.189
36.14,-0.254,1.343,-0.112
36.15,-0.016,0.9,0.12
36.16,-0.239,1.195,0.058
36.17,-0.23,0.387,-0.181
36.18,-0.349,1.644,-0.078
36.19,0.018,0.821,0.151
36.2,-0.197,1.051,0.004
36.21,-0.295,0.628,-0.19
36.22,-0.306,1.688,-0.021
36.23,-0.011,0.938,0.079
36.24,-0.033,0.692,0.02
36.25,-0.39,0.988,-0.231
36.26,-0.227,1.249,-0.027
36.27,-0.176,1.158,0.145
36.28,0.04,0.571,0.074
36.29,-0.498,1.082,-0.199
36.3,-0.303,1.319,0.082
36.31,-0.157,0.943,0.158
36.32,-0.151,0.861,0.067
36.33,-0.389,0.558,-0.169
36.34,-0.381,1.824,0.071
36.35,-0.061,0.687,0.166
36.36,-0.177,1.023,0.106
36.37,-0.291,0.504,-0.219
36.38,-0.414,1.673,0.037
36.39,-0.087,0.882,0.14
36.4,-0.086,0.725,0.056
36.41,-0.396,0.939,-0.224
36.42,-0.193,1.285,-0.011
36.43,-0.16,1.2,0.131
36.44,0.085,0.475,0.072
36.45,-0.476,1.058,-0.24
36.46,-0.224,1.388,0.028
36.47,-0.054,0.94,0.064
36.48,-0.039,0.855,-0.001
36.49,-0.385,0.565,-0.247
36.5,-0.254,1.789,0.023
36.51,-0.112,0.576,0.169
36.52,-0.03,1.082,0.062
36.53,-0.415,0.427,-0.233
36.54,-0.231,1.674,0.032
36.55,-0.106,0.879,0.106
36.56,0.014,0.671,0.084
36.57,-0.424,1.037,-0.192
36.58,-0.242,1.291,0.033
36.59,-0.21,1.074,0.155
36.6,0.095,0.534,0.02
36.61,-0.458,1.029,-0.236
36.62,-0.125,1.409,-0.014
36.63,-0.182,0.969,0.157
36.64,-0.034,0.755,0.016
36.65,-0.375,0.567,-0.19
36.66,-0.256,1.878,0.036
36.67,-0.082,0.639,0.146
36.68,-0.08,0.963,0.041
36.69,-0.357,0.492,-0.223
36.7,-0.35,1.667,0.049
36.71,-0.104,0.849,0.076
36.72,-0.04,0.693,0.037
36.73,-0.396,0.936,-0.207
36.74,-0.279,1.253,0.001
36.75,-0.153,1.198,0.175
36.76,0.015,0.482,0.077
36.77,-0.473,0.999,-0.202
36.78,-0.188,1.426,0.042
36.79,-0.208,0.984,0.149
36.8,-0.08,0.772,-0.002
36.81,-0.341,0.563,-0.221
36.82,-0.328,1.774,0.028
36.83,-0.166,0.543,0.104
36.84,-0.025,1.069,-0.003
36.85,-0.37,0.37,-0.213
36.86,-0.148,1.768,-0.033
36.87,-0.153,0.911,0.067
36.88,-0.053,0.602,0.175
36.89,-0.427,0.949,-0.172
36.9,-0.151,1.342,0.042
36.91,-0.251,1.169,0.145
36.92,0.067,0.441,0.039
36.93,-0.473,1.024,-0.164
36.94,-0.209,1.462,0.078
36.95,-0.139,0.912,0.149
36.96,-0.025,0.827,-0.005
36.97,-0.326,0.537,-0.222
36.98,-0.227,1.946,0.024
36.99,0.01,0.743,0.151
37.0,-0.046,0.903,0.004
37.01,-0.318,0.443,-0.223
37.02,-0.191,1.833,0.087
37.03,-0.06,0.672,0.101
37.04,-0.06,0.847,-0.043
37.05,-0.382,0.63,-0.258
37.06,-0.07,1.673,0.071
37.07,-0.188,1.136,0.068
37.08,0.115,0.32,-0.029
37.09,-0.481,1.079,-0.209
37.1,0.007,1.53,0.074
37.11,-0.136,1.18,0.111
37.12,0.079,0.491,-0.019
37.13,-0.495,0.773,-0.18
37.14,-0.049,1.999,0.067
37.15,-0.174,0.719,0.082
37.16,-0.015,0.904,-0.058
37.17,-0.394,0.386,-0.245
37.18,-0.105,2.0,0.077
37.19,-0.1,0.78,0.081
37.2,-0.025,0.644,-0.009
37.21,-0.427,0.671,-0.263
37.22,-0.035,1.641,0.041
37.23,-0.151,1.11,0.057
37.24,0.092,0.411,-0.073
37.25,-0.536,1.052,-0.18
37.26,0.047,1.569,0.085
37.27,-0.249,1.243,0.07
37.28,0.068,0.485,-0.029
37.29,-0.442,0.837,-0.233
37.3,-0.038,1.872,0.059
37.31,-0.05,0.85,0.071
37.32,-0.086,0.87,-0.043
37.33,-0.312,0.344,-0.234
37.34,-0.12,2.0,0.061
37.35,-0.1,0.796,0.083
37.36,-0.107,0.779,-0.05
37.37,-0.374,0.647,-0.262
37.38,-0.081,1.68,0.119
37.39,-0.153,1.258,0.072
37.4,0.061,0.373,-0.05
37.41,-0.487,1.068,-0.233
37.42,-0.021,1.454,0.099
37.43,-0.177,1.29,0.027
37.44,-0.005,0.546,-0.043
37.45,-0.471,0.762,-0.162
37.46,-0.121,1.786,0.132
37.47,-0.132,0.853,0.077
37.48,-0.088,0.947,-0.073
37.49,-0.383,0.321,-0.184
37.5,-0.142,1.935,0.123
37.51,-0.092,0.892,0.086
37.52,-0.107,0.787,-0.068
37.53,-0.445,0.589,-0.205
37.54,-0.031,1.545,0.136
37.55,-0.188,1.245,0.052
37.56,0.032,0.438,-0.083
37.57,-0.479,0.983,-0.149
37.58,-0.06,1.34,0.152
37.59,-0.266,1.301,0.108
37.6,-0.026,0.548,-0.031
37.61,-0.547,0.729,-0.129
37.62,-0.052,1.595,0.179
37.63,-0.178,0.847,0.063
37.64,-0.08,0.978,-0.079
37.65,-0.437,0.234,-0.192
37.66,-0.214,1.651,0.198
37.67,-0.151,0.864,0.109
37.68,-0.229,0.783,-0.062
37.69,-0.434,0.584,-0.185
37.7,-0.134,1.206,0.195
37.71,-0.302,1.268,0.085
37.72,-0.026,0.416,-0.034
37.73,-0.612,1.034,-0.1
37.74,0.028,1.14,0.185
37.75,-0.254,1.208,0.088
37.76,-0.025,0.639,-0.112
37.77,-0.471,0.636,-0.171
37.78,-0.076,1.356,0.191
37.79,-0.179,0.957,0.135
37.8,-0.237,0.94,-0.043
37.81,-0.41,0.22,-0.203
37.82,-0.115,1.51,0.156
37.83,-0.075,0.831,0.017
37.84,-0.307,0.97,-0.132
37.85,-0.441,0.379,-0.148
37.86,-0.028,1.276,0.17
37.87,-0.172,1.067,0.014
37.88,-0.128,0.476,-0.155
37.89,-0.481,0.973,-0.132
37.9,-0.033,0.942,0.249
37.91,-0.323,1.281,0.069
37.92,-0.139,0.31,-0.083
37.93,-0.474,1.037,-0.108
37.94,-0.063,1.035,0.166
37.95,-0.11,1.036,0.0
37.96,-0.322,0.72,-0.122
37.97,-0.448,0.504,-0.061
37.98,-0.169,1.344,0.171
37.99,-0.024,0.725,0.051
38.0,-0.343,0.825,-0.127
38.01,-0.362,0.67,-0.054
38.02,-0.129,1.227,0.173
38.03,-0.226,1.003,0.067
38.04,-0.237,0.52,-0.14
38.05,-0.422,1.169,-0.024
38.06,-0.083,0.856,0.178
38.07,-0.29,1.265,0.071
38.08,-0.186,0.379,-0.072
38.09,-0.486,1.268,-0.031
38.1,-0.043,0.944,0.172
38.11,-0.154,0.95,0.028
38.12,-0.29,0.724,-0.172
38.13,-0.354,0.778,-0.001
38.14,-0.175,1.341,0.191
38.15,-0.157,0.68,0.046
38.16,-0.359,0.9,-0.162
38.17,-0.395,0.797,-0.015
38.18,-0.06,1.211,0.136
38.19,-0.307,0.97,0.045
38.2,-0.168,0.509,-0.175
38.21,-0.373,1.366,-0.108
38.22,0.031,0.86,0.143
38.23,-0.33,1.286,0.079
38.24,-0.172,0.306,-0.165
38.25,-0.376,1.435,-0.053
38.26,0.019,0.952,0.157
38.27,-0.225,0.938,0.051
38.28,-0.261,0.74,-0.255
38.29,-0.268,0.947,-0.057
38.3,-0.099,1.305,0.166
38.31,-0.12,0.637,0.075
38.32,-0.387,0.968,-0.18
38.33,-0.291,0.957,-0.084
38.34,-0.086,1.173,0.16
38.35,-0.202,0.933,0.068
38.36,-0.322,0.553,-0.18
38.37,-0.306,1.548,-0.07
38.38,-0.024,0.801,0.189
38.39,-0.277,1.192,0.049
38.4,-0.257,0.388,-0.17
38.41,-0.294,1.609,-0.031
38.42,-0.037,0.886,0.211
38.43,-0.175,0.8,0.047
38.44,-0.468,0.809,-0.167
38.45,-0.278,1.099,-0.018
38.46,-0.175,1.211,0.175
38.47,-0.065,0.531,0.073
38.48,-0.407,1.054,-0.173
38.49,-0.223,1.205,-0.071
38.5,-0.08,1.108,0.092
38.51,-0.109,0.835,0.008
38.52,-0.362,0.64,-0.201
38.53,-0.299,1.703,0.01
38.54,-0.05,0.739,0.117
38.55,-0.162,1.093,0.076
38.56,-0.303,0.431,-0.211
38.57,-0.375,1.708,0.013
38.58,-0.028,0.789,0.145
38.59,-0.054,0.865,0.061
38.6,-0.429,0.845,-0.227
38.61,-0.219,1.259,0.02
38.62,-0.209,1.211,0.115
38.63,0.079,0.48,0.053
38.64,-0.484,1.009,-0.194
38.65,-0.107,1.302,0.084
38.66,-0.259,1.155,0.211
38.67,0.043,0.538,0.063
38.68,-0.544,0.911,-0.197
38.69,-0.096,1.661,0.029
38.7,-0.138,0.817,0.124
38.71,-0.037,0.852,0.045
38.72,-0.457,0.434,-0.172
38.73,-0.258,1.928,0.096
38.74,-0.11,0.719,0.131
38.75,-0.089,0.862,0.048
38.76,-0.435,0.562,-0.172
38.77,-0.215,1.662,0.108
38.78,-0.229,1.014,0.139
38.79,0.067,0.46,0.036
38.8,-0.501,1.001,-0.195
38.81,-0.038,1.37,0.108
38.82,-0.215,1.235,0.125
38.83,0.032,0.42,0.047
38.84,-0.482,0.926,-0.134
38.85,-0.129,1.693,0.102
38.86,-0.124,0.817,0.158
38.87,-0.048,0.867,0.021
38.88,-0.456,0.425,-0.185
38.89,-0.209,1.958,0.106
38.9,-0.119,0.693,0.156
38.91,-0.072,0.889,0.023
38.92,-0.42,0.488,-0.223
38.93,-0.081,1.766,0.099
38.94,-0.106,1.052,0.086
38.95,0.097,0.428,-0.017
38.96,-0.468,1.036,-0.203
38.97,0.063,1.505,0.067
38.98,-0.221,1.189,0.121
38.99,0.106,0.454,0.045
39.0,-0.507,0.892,-0.204
39.01,0.016,1.858,0.037
39.02,-0.185,0.851,0.101
39.03,0.006,0.789,0.001
39.04,-0.386,0.404,-0.219
39.05,-0.134,2.0,0.1
39.06,-0.071,0.736,0.166
39.07,-0.135,0.781,0.027
39.08,-0.315,0.499,-0.173
39.09,-0.109,1.842,0.067
39.1,-0.123,0.97,0.065
39.11,0.092,0.491,-0.089
39.12,-0.475,1.001,-0.219
39.13,0.071,1.539,0.078
39.14,-0.21,1.288,0.077
39.15,0.127,0.354,-0.001
39.16,-0.48,0.896,-0.213
39.17,0.023,1.754,0.096
39.18,-0.132,0.885,0.13
39.19,0.051,0.877,-0.052
39.2,-0.448,0.374,-0.185
39.21,-0.103,2.0,0.134
39.22,-0.168,0.679,0.091
39.23,-0.053,0.8,-0.0
39.24,-0.398,0.517,-0.221
39.25,-0.15,1.764,0.171
39.26,-0.152,1.047,0.079
39.27,0.045,0.411,-0.026
39.28,-0.474,1.019,-0.192
39.29,-0.028,1.494,0.081
39.3,-0.249,1.328,0.084
39.31,-0.014,0.482,-0.022
39.32,-0.467,0.917,-0.172
39.33,-0.052,1.779,0.112
39.34,-0.162,0.944,0.11
39.35,-0.025,0.78,-0.037
39.36,-0.453,0.347,-0.187
39.37,-0.164,1.944,0.077
39.38,-0.094,0.729,0.078
39.39,-0.099,0.942,-0.068
39.4,-0.461,0.449,-0.17
39.41,-0.082,1.611,0.162
39.42,-0.235,1.174,0.059
39.43,0.009,0.471,-0.089
39.44,-0.536,1.002,-0.193
39.45,-0.07,1.211,0.196
39.46,-0.326,1.323,0.103
39.47,0.048,0.426,-0.072
39.48,-0.533,0.966,-0.15
39.49,-0.036,1.199,0.17
39.5,-0.276,1.161,0.108
39.51,-0.143,0.736,-0.095
39.52,-0.382,0.534,-0.121
39.53,-0.174,1.466,0.182
39.54,-0.069,0.852,0.063
39.55,-0.165,0.961,-0.107
39.56,-0.411,0.282,-0.153
39.57,-0.096,1.435,0.147
39.58,-0.244,0.911,0.085
39.59,-0.18,0.704,-0.086
39.6,-0.473,0.745,-0.17
39.61,-0.025,1.069,0.181
39.62,-0.171,1.3,-0.001
39.63,-0.057,0.379,-0.112
39.64,-0.48,1.033,-0.151
39.65,0.003,1.007,0.202
39.66,-0.146,1.205,-0.014
39.67,-0.144,0.623,-0.131
39.68,-0.45,0.573,-0.135
39.69,-0.081,1.371,0.157
39.7,-0.091,0.735,0.105
39.71,-0.286,0.928,-0.142
39.72,-0.399,0.28,-0.112
39.73,-0.22,1.405,0.232
39.74,-0.131,0.944,0.046
39.75,-0.154,0.65,-0.095
39.76,-0.394,0.835,-0.184
39.77,0.005,1.003,0.146
39.78,-0.225,1.206,-0.009
39.79,-0.081,0.317,-0.137
39.8,-0.526,0.995,-0.123
39.81,0.027,1.059,0.132
39.82,-0.241,1.151,0.015
39.83,-0.202,0.586,-0.137
39.84,-0.399,0.589,-0.087
39.85,-0.129,1.276,0.201
39.86,-0.078,0.811,0.012
39.87,-0.273,0.914,-0.111
39.88,-0.389,0.455,-0.12
39.89,-0.066,1.352,0.182
39.9,-0.236,0.825,0.027
39.91,-0.247,0.735,-0.119
39.92,-0.483,0.83,-0.082
39.93,0.002,1.03,0.173
39.94,-0.276,1.281,0.038
39.95,-0.091,0.27,-0.123
39.96,-0.449,1.323,-0.088
39.97,0.043,0.922,0.156
39.98,-0.269,1.131,0.025
39.99,-0.193,0.602,-0.141
40.0,-0.389,0.806,-0.061
40.01,-0.156,1.286,0.184
40.02,-0.212,0.695,0.147
40.03,-0.356,0.97,-0.13
40.04,-0.356,0.629,-0.045
40.05,-0.144,1.287,0.147
40.06,-0.163,0.861,0.049
40.07,-0.226,0.628,-0.164
40.08,-0.361,1.194,-0.052
40.09,-0.026,0.981,0.167
40.1,-0.323,1.201,0.084
40.11,-0.187,0.358,-0.147
40.12,-0.427,1.347,-0.033
40.13,-0.055,0.844,0.133
40.14,-0.274,1.156,0.056
40.15,-0.27,0.503,-0.153
40.16,-0.219,1.048,-0.049
40.17,-0.119,1.246,0.122
40.18,-0.024,0.657,0.032
40.19,-0.449,0.983,-0.17
40.2,-0.158,0.923,-0.032
40.21,-0.146,1.265,0.14
40.22,-0.155,0.75,0.064
40.23,-0.402,0.719,-0.165
40.24,-0.308,1.36,-0.016
40.25,-0.052,1.03,0.106
40.26,-0.104,0.861,0.045
40.27,-0.325,0.615,-0.207
40.28,-0.329,1.776,0.017
40.29,0.035,0.722,0.152
40.3,-0.118,1.092,0.088
40.31,-0.334,0.427,-0.246
40.32,-0.29,1.577,-0.001
40.33,-0.07,0.881,0.109
40.34,-0.086,0.73,0.056
40.35,-0.424,0.888,-0.235
40.36,-0.198,1.248,0.004
40.37,-0.11,1.221,0.161
40.38,0.078,0.509,0.06
40.39,-0.471,1.066,-0.199
40.4,-0.208,1.364,0.051
40.41,-0.109,0.932,0.145
40.42,-0.111,0.833,0.048
40.43,-0.416,0.509,-0.207
40.44,-0.241,1.822,0.079
40.45,-0.116,0.692,0.144
40.46,-0.124,1.003,0.084
40.47,-0.392,0.45,-0.176
40.48,-0.274,1.762,0.036
40.49,-0.131,0.867,0.145
40.5,0.06,0.691,0.008
40.51,-0.59,0.877,-0.197
40.52,-0.131,1.361,0.109
40.53,-0.284,1.111,0.183
40.54,0.079,0.45,0.109
40.55,-0.506,1.091,-0.22
40.56,-0.128,1.435,0.061
40.57,-0.183,0.947,0.195
40.58,0.032,0.763,0.008
40.59,-0.484,0.575,-0.211
40.6,-0.119,1.909,0.093
40.61,-0.196,0.689,0.167
40.62,-0.103,0.922,0.048
40.63,-0.436,0.404,-0.184
40.64,-0.182,1.874,0.132
40.65,-0.192,0.846,0.154
40.66,0.064,0.667,0.042
40.67,-0.457,0.888,-0.243
40.68,-0.001,1.394,0.081
40.69,-0.248,1.203,0.193
40.7,0.115,0.349,0.08
40.71,-0.566,0.999,-0.216
40.72,-0.016,1.611,0.092
40.73,-0.196,1.025,0.082
40.74,-0.017,0.687,0.03
40.75,-0.36,0.576,-0.22
40.76,-0.225,1.936,0.106
40.77,-0.031,0.654,0.094
40.78,-0.056,0.946,0.04
40.79,-0.337,0.414,-0.247
40.8,-0.165,1.892,0.09
40.81,-0.13,0.817,0.095
40.82,-0.033,0.624,-0.004
40.83,-0.448,0.883,-0.237
40.84,-0.059,1.457,0.084
40.85,-0.224,1.194,0.133
40.86,0.093,0.352,0.0
40.87,-0.495,1.032,-0.21
40.88,-0.05,1.532,0.022
40.89,-0.101,1.019,0.077
40.9,0.062,0.726,-0.016
40.91,-0.427,0.494,-0.175
40.92,-0.091,2.0,0.072
40.93,-0.096,0.703,0.128
40.94,-0.102,0.896,0.038
40.95,-0.338,0.399,-0.253
40.96,-0.195,1.954,0.088
40.97,-0.067,0.859,0.154
40.98,-0.029,0.516,-0.003
40.99,-0.41,0.894,-0.23
41.0,-0.065,1.481,0.087
41.01,-0.184,1.233,0.139
41.02,0.063,0.398,-0.02
41.03,-0.542,1.071,-0.174
41.04,-0.032,1.672,0.078
41.05,-0.09,1.124,0.113
41.06,0.033,0.431,-0.05
41.07,-0.493,0.818,-0.235
41.08,-0.064,1.761,0.087
41.09,-0.106,0.915,0.073
41.1,-0.106,0.912,0.018
41.11,-0.429,0.324,-0.169
41.12,-0.211,1.968,0.184
41.13,-0.136,0.821,0.128
41.14,-0.112,0.877,-0.026
41.15,-0.403,0.571,-0.242
41.16,-0.152,1.586,0.149
41.17,-0.196,1.207,0.125
41.18,-0.011,0.447,-0.026
41.19,-0.505,0.978,-0.194
41.2,-0.065,1.18,0.219
41.21,-0.214,1.326,0.072
41.22,-0.127,0.494,-0.013
41.23,-0.497,0.794,-0.153
41.24,-0.131,1.612,0.247
41.25,-0.147,0.906,0.129
41.26,-0.137,0.9,-0.042
41.27,-0.428,0.317,-0.161
41.28,-0.237,1.709,0.141
41.29,-0.171,0.82,0.141
41.3,-0.214,0.835,-0.077
41.31,-0.415,0.492,-0.192
41.32,-0.14,1.429,0.142
41.33,-0.26,1.151,0.11
41.34,-0.104,0.462,-0.085
41.35,-0.509,0.948,-0.169
41.36,0.01,1.221,0.187
41.37,-0.294,1.392,0.134
41.38,-0.021,0.41,-0.083
41.39,-0.562,0.81,-0.184
41.4,-0.025,1.534,0.158
41.41,-0.264,0.893,0.116
41.42,-0.091,0.934,-0.095
41.43,-0.494,0.263,-0.188
41.44,-0.203,1.753,0.192
41.45,-0.131,0.906,0.094
41.46,-0.197,0.829,-0.065
41.47,-0.412,0.532,-0.214
41.48,-0.111,1.425,0.143
41.49,-0.222,1.101,0.055
41.5,-0.041,0.561,-0.09
41.51,-0.504,0.938,-0.225
41.52,-0.062,1.125,0.216
41.53,-0.202,1.331,0.102
41.54,-0.165,0.464,-0.035
41.55,-0.48,0.827,-0.188
41.56,-0.098,1.436,0.222
41.57,-0.125,0.995,0.051
41.58,-0.176,0.94,-0.044
41.59,-0.382,0.344,-0.169
41.6,-0.182,1.682,0.187
41.61,-0.065,0.896,0.152
41.62,-0.158,0.86,-0.09
41.63,-0.434,0.426,-0.206
41.64,-0.148,1.506,0.171
41.65,-0.266,1.152,0.133
41.66,-0.029,0.528,-0.085
41.67,-0.528,0.993,-0.157
41.68,-0.051,1.208,0.185
41.69,-0.228,1.378,0.121
41.7,-0.023,0.439,-0.059
41.71,-0.506,0.816,-0.195
41.72,-0.073,1.345,0.184
41.73,-0.218,0.97,0.066
41.74,-0.085,0.971,-0.109
41.75,-0.41,0.303,-0.173
41.76,-0.123,1.663,0.16
41.77,-0.099,0.893,0.101
41.78,-0.1,0.892,-0.097
41.79,-0.47,0.467,-0.222
41.8,0.001,1.359,0.138
41.81,-0.235,1.124,0.092
41.82,-0.014,0.531,-0.107
41.83,-0.52,0.974,-0.237
41.84,0.059,1.055,0.133
41.85,-0.279,1.391,0.017
41.86,-0.025,0.433,-0.072
41.87,-0.521,1.041,-0.187
41.88,0.051,0.955,0.15
41.89,-0.216,1.204,0.039
41.9,-0.17,0.621,-0.159
41.91,-0.529,0.587,-0.118
41.92,-0.064,1.336,0.187
41.93,-0.056,0.771,0.083
41.94,-0.425,0.843,-0.155
41.95,-0.402,0.366,-0.081
41.96,-0.187,1.349,0.2
41.97,-0.215,0.93,0.078
41.98,-0.181,0.638,-0.091
41.99,-0.477,0.909,-0.147
42.0,-0.028,0.978,0.22
42.01,-0.241,1.301,0.077
42.02,-0.252,0.266,-0.097
42.03,-0.526,1.061,-0.057
42.04,-0.046,0.984,0.174
42.05,-0.189,1.144,0.051
42.06,-0.239,0.536,-0.152
42.07,-0.424,0.672,-0.079
42.08,-0.106,1.304,0.177
42.09,-0.107,0.773,0.022
42.1,-0.293,0.895,-0.099
42.11,-0.442,0.627,-0.058
42.12,-0.148,1.325,0.27
42.13,-0.192,0.829,0.109
42.14,-0.364,0.713,-0.105
42.15,-0.343,0.985,-0.092
42.16,-0.069,0.985,0.184
42.17,-0.244,1.247,0.067
42.18,-0.186,0.3,-0.119
42.19,-0.487,1.249,-0.048
42.2,-0.035,0.886,0.191
42.21,-0.236,1.193,0.065
42.22,-0.192,0.505,-0.143
42.23,-0.363,0.966,-0.066
42.24,-0.153,1.281,0.224
42.25,-0.147,0.714,0.117
42.26,-0.351,0.945,-0.126
42.27,-0.43,0.652,-0.062
42.28,-0.172,1.292,0.151
42.29,-0.224,0.849,0.04
42.3,-0.299,0.646,-0.136
42.31,-0.399,1.082,-0.1
42.32,-0.046,0.95,0.13
42.33,-0.214,1.251,0.063
42.34,-0.176,0.344,-0.147
42.35,-0.429,1.32,-0.078
42.36,-0.02,0.865,0.138
42.37,-0.215,1.186,0.02
42.38,-0.233,0.47,-0.179
42.39,-0.278,0.952,-0.075
42.4,-0.099,1.208,0.11
42.41,-0.111,0.742,0.03
42.42,-0.313,0.937,-0.143
42.43,-0.329,0.826,-0.003
42.44,-0.117,1.331,0.208
42.45,-0.146,0.794,-0.003
42.46,-0.361,0.737,-0.193
42.47,-0.259,1.14,-0.117
42.48,-0.098,0.913,0.16
42.49,-0.212,1.175,0.034
42.5,-0.198,0.394,-0.197
42.51,-0.355,1.496,-0.049
42.52,-0.014,0.812,0.189
42.53,-0.261,1.157,0.062
42.54,-0.297,0.529,-0.151
42.55,-0.232,1.187,-0.089
42.56,-0.126,1.136,0.17
42.57,-0.118,0.692,0.062
42.58,-0.416,0.942,-0.155
42.59,-0.22,0.975,-0.08
42.6,-0.166,1.217,0.138
42.61,-0.099,0.726,0.05
42.62,-0.371,0.828,-0.166
42.63,-0.281,1.314,-0.086
42.64,-0.096,0.927,0.17
42.65,-0.232,1.153,0.072
42.66,-0.265,0.363,-0.197
42.67,-0.306,1.695,-0.028
42.68,-0.052,0.721,0.17
42.69,-0.182,1.117,0.046
42.7,-0.318,0.404,-0.255
42.71,-0.315,1.676,-0.038
42.72,-0.089,0.865,0.106
42.73,-0.086,0.787,0.039
42.74,-0.386,0.902,-0.2
42.75,-0.267,1.244,0.028
42.76,-0.152,1.269,0.201
42.77,-0.03,0.476,0.066
42.78,-0.512,1.065,-0.111
42.79,-0.365,1.314,0.037
42.8,-0.126,0.986,0.138
42.81,-0.053,0.812,-0.001
42.82,-0.438,0.606,-0.203
42.83,-0.352,1.684,0.034
42.84,-0.127,0.631,0.114
42.85,-0.142,1.139,0.072
42.86,-0.247,0.4,-0.21
42.87,-0.278,1.778,-0.012
42.88,-0.036,0.93,0.178
42.89,-0.143,0.635,0.012
42.9,-0.402,0.856,-0.15
42.91,-0.328,1.372,0.041
42.92,-0.152,1.147,0.164
42.93,-0.037,0.449,0.005
42.94,-0.477,1.026,-0.211
42.95,-0.21,1.331,0.07
42.96,-0.214,1.025,0.164
42.97,-0.065,0.723,0.001
42.98,-0.373,0.714,-0.171
42.99,-0.363,1.909,0.079
43.0,0.011,0.681,0.165
43.01,-0.133,1.003,0.005
43.02,-0.317,0.37,-0.16
43.03,-0.326,1.937,0.142
43.04,-0.061,0.877,0.131
43.05,-0.124,0.634,0.056
43.06,-0.355,0.824,-0.219
43.07,-0.193,1.479,0.129
43.08,-0.193,1.122,0.101
43.09,0.036,0.391,0.031
43.1,-0.444,1.085,-0.197
43.11,-0.116,1.488,0.078
43.12,-0.211,1.024,0.149
43.13,-0.043,0.633,0.047
43.14,-0.466,0.666,-0.146
43.15,-0.191,1.978,0.106
43.16,-0.118,0.695,0.166
43.17,-0.136,0.884,0.028
43.18,-0.375,0.383,-0.17
43.19,-0.213,2.0,0.088
43.2,-0.14,0.773,0.11
43.21,0.02,0.624,-0.043
43.22,-0.516,0.802,-0.205
43.23,-0.043,1.565,0.125
43.24,-0.267,1.199,0.127
43.25,0.164,0.328,-0.034
43.26,-0.559,1.081,-0.187
43.27,-0.002,1.57,0.154
43.28,-0.242,1.085,0.105
43.29,-0.005,0.606,0.003
43.3,-0.504,0.677,-0.166
43.31,-0.172,1.965,0.167
43.32,-0.196,0.653,0.14
43.33,-0.037,0.948,0.01
43.34,-0.415,0.325,-0.177
43.35,-0.15,1.877,0.116
43.36,-0.162,0.883,0.088
43.37,-0.09,0.698,-0.081
43.38,-0.442,0.704,-0.168
43.39,-0.026,1.555,0.119
43.4,-0.266,1.287,0.079
43.41,0.033,0.41,-0.085
43.42,-0.467,1.033,-0.217
43.43,-0.004,1.427,0.142
43.44,-0.238,1.32,0.069
43.45,-0.148,0.586,-0.037
43.46,-0.463,0.56,-0.109
43.47,-0.223,1.649,0.215
43.48,-0.176,1.008,0.044
43.49,-0.165,0.91,-0.126
43.5,-0.315,0.318,-0.203
43.51,-0.168,1.516,0.161
43.52,-0.138,0.825,0.029
43.53,-0.166,0.931,-0.157
43.54,-0.362,0.413,-0.198
43.55,-0.079,1.253,0.186
43.56,-0.23,1.135,-0.002
43.57,-0.205,0.428,-0.156
43.58,-0.459,0.943,-0.135
43.59,-0.026,0.885,0.191
43.6,-0.319,1.424,0.048
43.61,-0.122,0.295,-0.142
43.62,-0.49,0.959,-0.084
43.63,0.021,1.056,0.16
43.64,-0.114,0.973,-0.009
43.65,-0.278,0.783,-0.173
43.66,-0.252,0.652,-0.045
43.67,-0.168,1.353,0.157
43.68,-0.158,0.685,0.075
43.69,-0.333,0.913,-0.152
43.7,-0.285,0.943,-0.089
43.71,-0.063,1.122,0.142
43.72,-0.196,1.047,-0.024
43.73,-0.289,0.521,-0.228
43.74,-0.207,1.557,-0.116
43.75,0.013,0.763,0.127
43.76,-0.125,1.239,-0.019
43.77,-0.307,0.425,-0.232
43.78,-0.161,1.599,-0.097
43.79,0.008,0.861,0.06
43.8,-0.071,0.782,-0.042
43.81,-0.42,0.888,-0.23
43.82,-0.211,1.171,-0.006
43.83,-0.171,1.116,0.127
43.84,0.002,0.575,0.031
43.85,-0.497,1.054,-0.252
43.86,-0.144,1.316,0.042
43.87,-0.16,1.03,0.121
43.88,-0.026,0.729,-0.0
43.89,-0.393,0.645,-0.157
43.9,-0.295,1.838,0.09
43.91,-0.107,0.626,0.084
43.92,-0.092,1.032,0.04
43.93,-0.418,0.4,-0.198
43.94,-0.187,1.878,0.054
43.95,-0.167,0.794,0.143
43.96,-0.026,0.667,0.028
43.97,-0.416,0.875,-0.209
43.98,-0.118,1.498,0.131
43.99,-0.211,1.133,0.115
44.0,0.095,0.386,0.017
44.01,-0.554,1.004,-0.169
44.02,0.029,1.595,0.044
44.03,-0.172,1.07,0.081
44.04,0.047,0.61,-0.014
44.05,-0.412,0.628,-0.216
44.06,-0.077,2.0,0.049
44.07,-0.077,0.67,0.119
44.08,-0.056,0.899,-0.013
44.09,-0.35,0.359,-0.251
44.1,-0.099,1.958,0.033
44.11,-0.057,0.889,0.046
44.12,-0.037,0.58,-0.083
44.13,-0.391,0.768,-0.268
44.14,-0.019,1.524,0.056
44.15,-0.183,1.26,0.065
44.16,0.045,0.426,-0.07
44.17,-0.534,1.064,-0.23
44.18,-0.001,1.49,0.144
44.19,-0.157,1.157,0.042
44.2,-0.044,0.602,-0.089
44.21,-0.41,0.621,-0.178
44.22,-0.207,1.669,0.137
44.23,-0.109,0.802,0.085
44.24,-0.218,0.894,-0.067
44.25,-0.388,0.278,-0.114
44.26,-0.182,1.625,0.193
44.27,-0.206,0.87,0.134
44.28,-0.237,0.73,-0.103
44.29,-0.385,0.35,-0.137
44.3,-0.188,1.304,0.241
44.31,-0.338,1.74,0.056
44.32,-0.178,0.652,0.124
44.33,-0.205,1.098,0.081
44.34,-0.326,0.45,-0.213
44.35,-0.328,1.702,0.019
44.36,-0.125,0.921,0.176
44.37,0.011,0.671,0.096
44.38,-0.479,0.903,-0.241
44.39,-0.165,1.326,0.127
44.4,-0.354,1.22,0.235
44.41,-0.003,0.436,0.13
44.42,-0.496,0.926,-0.133
44.43,-0.148,1.532,0.079
44.44,-0.244,0.949,0.13
44.45,0.039,0.76,-0.03
44.46,-0.439,0.517,-0.185
44.47,-0.2,1.996,0.1
44.48,-0.085,0.564,0.117
44.49,-0.008,1.014,0.014
44.5,-0.41,0.44,-0.173
44.51,-0.136,1.922,0.076
44.52,-0.175,0.862,0.084
44.53,-0.044,0.541,-0.06
44.54,-0.417,0.901,-0.221
44.55,-0.012,1.549,0.034
44.56,-0.113,1.216,0.146
44.57,0.124,0.343,-0.062
44.58,-0.507,1.002,-0.236
44.59,0.022,1.635,0.123
44.6,-0.201,1.061,0.086
44.61,-0.03,0.696,-0.037
44.62,-0.353,0.571,-0.232
44.63,-0.198,1.902,0.142
44.64,-0.064,0.696,0.07
44.65,-0.102,0.829,-0.051
44.66,-0.393,0.3,-0.174
44.67,-0.117,1.771,0.097
44.68,-0.208,0.839,0.057
44.69,-0.068,0.681,-0.088
44.7,-0.362,0.789,-0.286
44.71,-0.03,1.484,0.118
44.72,-0.194,1.358,0.062
44.73,-0.053,0.301,-0.086
44.74,-0.507,1.037,-0.173
44.75,-0.058,1.347,0.222
44.76,-0.243,1.169,0.11
44.77,-0.121,0.694,-0.08
44.78,-0.381,0.432,-0.138
44.79,-0.168,1.645,0.198
44.8,-0.215,0.835,0.195
44.81,-0.231,0.994,-0.09
44.82,-0.401,0.252,-0.151
44.83,-0.146,1.615,0.165
44.84,-0.067,1.029,0.04
44.85,-0.132,0.655,-0.097
44.86,-0.411,0.729,-0.198
44.87,0.005,1.142,0.124
44.88,-0.285,1.257,0.104
44.89,-0.026,0.429,-0.119
44.9,-0.526,0.932,-0.204
44.91,0.029,1.128,0.137
44.92,-0.212,1.215,0.018
44.93,-0.105,0.64,-0.117
44.94,-0.419,0.542,-0.166
44.95,-0.097,1.425,0.165
44.96,-0.089,0.833,-0.001
44.97,-0.253,0.934,-0.135
44.98,-0.352,0.432,-0.066
44.99,-0.233,1.37,0.2
45.0,-0.144,0.743,0.063
45.01,-0.367,0.853,-0.085
45.02,-0.385,0.738,-0.051
45.03,-0.096,1.143,0.187
45.04,-0.23,1.1,0.037
45.05,-0.275,0.438,-0.151
45.06,-0.433,1.228,-0.019
45.07,-0.051,0.9,0.217
45.08,-0.32,1.265,0.064
45.09,-0.194,0.395,-0.121
45.1,-0.342,1.29,-0.095
45.11,-0.034,1.07,0.215
45.12,-0.126,0.877,0.021
45.13,-0.368,0.816,-0.158
45.14,-0.195,0.971,-0.053
45.15,-0.173,1.333,0.174
45.16,-0.127,0.661,0.106
45.17,-0.417,0.962,-0.181
45.18,-0.261,1.101,-0.061
45.19,-0.125,1.052,0.163
45.2,-0.197,1.058,0.036
45.21,-0.292,0.519,-0.191
45.22,-0.307,1.638,-0.081
45.23,-0.02,0.75,0.15
45.24,-0.246,1.187,0.089
45.25,-0.251,0.453,-0.246
45.26,-0.185,1.567,-0.103
45.27,-0.023,0.947,0.102
45.28,-0.095,0.775,0.05
45.29,-0.427,0.854,-0.183
45.3,-0.294,1.081,-0.031
45.31,-0.192,1.172,0.162
45.32,-0.066,0.626,0.084
45.33,-0.435,1.077,-0.168
45.34,-0.252,1.295,0.013
45.35,-0.142,0.941,0.127
45.36,-0.03,0.899,0.026
45.37,-0.317,0.586,-0.215
45.38,-0.312,1.739,0.036
45.39,-0.089,0.648,0.145
45.4,-0.15,1.063,0.068
45.41,-0.314,0.421,-0.2
45.42,-0.302,1.703,0.019
45.43,-0.192,0.81,0.133
45.44,-0.03,0.716,0.04
45.45,-0.431,0.862,-0.152
45.46,-0.229,1.34,0.043
45.47,-0.225,1.099,0.171
45.48,0.08,0.521,0.047
45.49,-0.567,1.006,-0.196
45.5,-0.101,1.408,0.106
45.51,-0.261,0.965,0.144
45.52,-0.066,0.745,0.047
45.53,-0.418,0.582,-0.176
45.54,-0.212,1.876,0.089
45.55,-0.077,0.677,0.128
45.56,-0.124,0.966,0.072
45.57,-0.35,0.39,-0.185
45.58,-0.198,1.864,0.101
45.59,-0.156,0.802,0.119
45.6,-0.002,0.673,-0.025
45.61,-0.413,0.812,-0.25
45.62,-0.025,1.553,0.101
45.63,-0.238,1.167,0.104
45.64,0.134,0.366,-0.0
45.65,-0.521,1.044,-0.21
45.66,0.019,1.568,0.117
45.67,-0.271,0.996,0.16
45.68,0.07,0.649,-0.001
45.69,-0.468,0.609,-0.191
45.7,-0.105,2.0,0.054
45.71,-0.175,0.648,0.162
45.72,-0.079,0.914,-0.002
45.73,-0.278,0.349,-0.273
45.74,-0.152,1.992,0.009
45.75,-0.083,0.801,0.068
45.76,-0.07,0.622,-0.031
45.77,-0.363,0.785,-0.224
45.78,-0.065,1.704,0.109
45.79,-0.166,1.187,0.104
45.8,-0.009,0.426,-0.078
45.81,-0.545,0.996,-0.193
45.82,-0.028,1.358,0.156
45.83,-0.293,1.294,0.084
45.84,0.017,0.451,-0.032
45.85,-0.482,0.824,-0.219
45.86,-0.057,1.455,0.181
45.87,-0.234,0.958,0.106
45.88,-0.143,0.866,-0.082
45.89,-0.303,0.388,-0.207
45.9,-0.19,1.823,0.126
45.91,-0.143,0.813,0.149
45.92,-0.2,0.905,-0.047
45.93,-0.413,0.402,-0.175
45.94,-0.135,1.551,0.171
45.95,-0.243,1.087,0.132
45.96,-0.08,0.555,-0.071
45.97,-0.528,0.866,-0.148
45.98,-0.008,1.2,0.243
45.99,-0.315,1.351,0.039
46.0,-0.001,0.454,-0.09
46.01,-0.473,0.858,-0.191
46.02,-0.041,1.308,0.197
46.03,-0.181,1.027,0.109
46.04,-0.142,0.849,-0.081
46.05,-0.46,0.312,-0.161
46.06,-0.102,1.558,0.194
46.07,-0.136,0.763,0.01
46.08,-0.148,0.965,-0.085
46.09,-0.428,0.326,-0.233
46.1,-0.108,1.28,0.2
46.11,-0.173,1.105,0.004
46.12,-0.114,0.553,-0.148
46.13,-0.492,0.868,-0.191
46.14,0.036,0.973,0.178
46.15,-0.254,1.41,0.053
46.16,-0.018,0.365,-0.096
46.17,-0.592,0.891,-0.142
46.18,0.072,1.151,0.22
46.19,-0.254,1.045,0.044
46.2,-0.237,0.755,-0.112
46.21,-0.449,0.379,-0.165
46.22,-0.198,1.461,0.195
46.23,-0.062,0.801,0.033
46.24,-0.394,0.893,-0.128
46.25,-0.358,0.377,-0.158
46.26,-0.205,1.303,0.206
46.27,-0.075,1.053,0.015
46.28,-0.225,0.449,-0.127
46.29,-0.45,0.998,-0.146
46.3,0.017,0.979,0.18
46.31,-0.267,1.23,-0.004
46.32,-0.195,0.337,-0.09
46.33,-0.486,0.964,-0.102
46.34,-0.099,1.047,0.211
46.35,-0.228,1.04,0.072
46.36,-0.251,0.735,-0.111
46.37,-0.466,0.464,-0.072
46.38,-0.163,1.373,0.221
46.39,-0.115,0.715,0.09
46.4,-0.374,0.942,-0.086
46.41,-0.269,0.563,-0.104
46.42,-0.108,1.29,0.182
46.43,-0.202,0.887,0.047
46.44,-0.222,0.644,-0.09
46.45,-0.378,1.195,-0.079
46.46,0.059,0.953,0.153
46.47,-0.259,1.228,0.057
46.48,-0.181,0.376,-0.172
46.49,-0.398,1.267,-0.091
46.5,0.0,0.952,0.17
46.51,-0.272,1.045,0.046
46.52,-0.264,0.721,-0.156
46.53,-0.348,0.865,-0.097
46.54,-0.111,1.305,0.179
46.55,-0.066,0.673,0.062
46.56,-0.419,0.912,-0.126
46.57,-0.341,0.825,-0.068
46.58,-0.1,1.297,0.15
46.59,-0.228,0.877,0.069
46.6,-0.24,0.604,-0.129
46.61,-0.297,1.298,-0.078
46.62,-0.068,0.999,0.194
46.63,-0.182,1.013,0.051
46.64,-0.269,0.509,-0.175
46.65,-0.322,1.666,-0.071
46.66,-0.023,0.753,0.161
46.67,-0.176,1.156,0.046
46.68,-0.332,0.504,-0.182
46.69,-0.303,1.404,-0.026
46.7,-0.125,1.024,0.1
46.71,-0.073,0.728,0.061
46.72,-0.347,0.955,-0.168
46.73,-0.227,1.065,-0.087
46.74,-0.106,1.27,0.13
46.75,0.01,0.623,0.058
46.76,-0.454,0.965,-0.141
46.77,-0.225,1.196,-0.029
46.78,-0.179,0.939,0.119
46.79,-0.16,0.993,0.005
46.8,-0.297,0.497,-0.18
46.81,-0.346,1.698,-0.022
46.82,-0.006,0.746,0.156
46.83,-0.167,1.12,0.035
46.84,-0.224,0.509,-0.208
46.85,-0.278,1.575,-0.049
46.86,-0.075,0.938,0.155
46.87,-0.095,0.721,0.02
46.88,-0.446,0.934,-0.154
46.89,-0.235,1.035,-0.019
46.9,-0.19,1.203,0.148
46.91,-0.005,0.594,0.039
46.92,-0.438,1.031,-0.163
46.93,-0.208,1.319,-0.021
46.94,-0.099,1.056,0.197
46.95,-0.136,0.883,0.073
46.96,-0.345,0.62,-0.17
46.97,-0.432,1.739,0.035
46.98,-0.086,0.671,0.173
46.99,-0.282,1.043,0.064
47.0,-0.323,0.417,-0.172
47.01,-0.381,1.598,0.034
47.02,-0.034,0.889,0.132
47.03,-0.094,0.727,0.048
47.04,-0.371,0.96,-0.217
47.05,-0.344,1.199,0.032
47.06,-0.154,1.143,0.196
47.07,-0.008,0.581,0.087
47.08,-0.472,1.025,-0.205
47.09,-0.306,1.271,0.054
47.1,-0.144,0.989,0.095
47.11,-0.125,0.774,0.04
47.12,-0.311,0.598,-0.173
47.13,-0.398,1.833,0.019
47.14,-0.053,0.677,0.157
47.15,-0.183,1.036,0.061
47.16,-0.327,0.437,-0.212
47.17,-0.365,1.723,0.018
47.18,-0.095,0.792,0.129
47.19,-0.116,0.752,0.052
47.2,-0.365,0.877,-0.164
47.21,-0.276,1.326,0.034
47.22,-0.148,1.227,0.228
47.23,-0.019,0.457,0.087
47.24,-0.437,1.026,-0.142
47.25,-0.369,1.361,0.138
47.26,-0.149,0.979,0.181
47.27,-0.121,0.765,0.056
47.28,-0.429,0.641,-0.18
47.29,-0.285,1.795,0.078
47.3,-0.043,0.706,0.115
47.31,-0.204,0.967,0.053
47.32,-0.265,0.405,-0.235
47.33,-0.317,1.812,0.076
47.34,-0.103,0.821,0.163
47.35,-0.059,0.74,0.031
47.36,-0.46,0.822,-0.208
47.37,-0.18,1.345,0.127
47.38,-0.201,1.145,0.127
47.39,0.015,0.423,0.062
47.4,-0.521,1.114,-0.196
47.41,-0.066,1.434,0.088
47.42,-0.146,1.182,0.112
47.43,0.076,0.435,-0.006
47.44,-0.445,0.903,-0.215
47.45,-0.05,1.777,0.027
47.46,-0.119,0.917,0.104
47.47,0.024,0.844,-0.023
47.48,-0.447,0.405,-0.248
47.49,-0.048,2.0,0.091
47.5,-0.098,0.759,0.101
47.51,-0.118,0.802,-0.001
47.52,-0.398,0.488,-0.21
47.53,-0.107,1.837,0.094
47.54,-0.194,0.983,0.131
47.55,0.072,0.459,-0.055
47.56,-0.496,1.009,-0.221
47.57,0.076,1.54,0.086
47.58,-0.183,1.308,0.101
47.59,0.074,0.337,-0.039
47.6,-0.404,0.979,-0.217
47.61,-0.073,1.68,0.046
47.62,-0.139,0.983,0.079
47.63,0.049,0.84,-0.135
47.64,-0.415,0.457,-0.231
47.65,-0.085,1.995,0.103
47.66,-0.083,0.772,0.094
47.67,-0.07,0.877,-0.053
47.68,-0.436,0.42,-0.184
47.69,-0.129,1.799,0.101
47.7,-0.177,1.005,0.017
47.71,0.027,0.556,-0.084
47.72,-0.455,0.948,-0.207
47.73,-0.02,1.343,0.145
47.74,-0.249,1.345,0.093
47.75,0.007,0.431,-0.061
47.76,-0.588,0.953,-0.139
47.77,-0.02,1.427,0.217
47.78,-0.29,1.011,0.091
47.79,0.006,0.852,-0.074
47.8,-0.536,0.39,-0.14
47.81,-0.13,1.748,0.154
47.82,-0.175,0.846,0.109
47.83,-0.168,0.965,-0.101
47.84,-0.452,0.327,-0.16
47.85,-0.065,1.63,0.147
47.86,-0.183,1.099,0.079
47.87,-0.066,0.578,-0.086
47.88,-0.584,0.864,-0.179
47.89,0.066,1.219,0.099
47.9,-0.374,1.345,0.042
47.91,0.05,0.448,-0.061
47.92,-0.553,0.942,-0.166
47.93,0.052,1.112,0.167
47.94,-0.221,1.106,0.059
47.95,-0.061,0.785,-0.096
47.96,-0.529,0.403,-0.145
47.97,-0.087,1.474,0.176
47.98,-0.16,0.805,0.073
47.99,-0.175,0.95,-0.064
48.0,-0.455,0.344,-0.15
48.01,-0.141,1.284,0.168
48.02,-0.138,1.013,0.001
48.03,-0.15,0.6,-0.155
48.04,-0.376,0.819,-0.188
48.05,-0.003,0.948,0.142
48.06,-0.285,1.311,0.025
48.07,-0.104,0.391,-0.128
48.08,-0.504,0.928,-0.132
48.09,0.003,1.035,0.149
48.1,-0.177,1.12,0.042
48.11,-0.158,0.681,-0.123
48.12,-0.458,0.541,-0.083
48.13,-0.126,1.346,0.177
48.14,-0.203,0.715,0.036
48.15,-0.235,0.922,-0.09
48.16,-0.431,0.377,-0.143
48.17,-0.139,1.293,0.172
48.18,-0.247,0.883,0.016
48.19,-0.289,0.675,-0.095
48.2,-0.404,0.84,-0.096
48.21,-0.046,0.94,0.167
48.22,-0.223,1.059,0.037
48.23,-0.213,0.434,-0.208
48.24,-0.318,1.498,-0.084
48.25,0.033,0.819,0.159
48.26,-0.335,1.191,0.039
48.27,-0.154,0.453,-0.175
48.28,-0.319,1.434,-0.082
48.29,0.007,1.032,0.143
48.3,-0.142,0.714,-0.009
48.31,-0.352,0.881,-0.239
48.32,-0.188,1.08,-0.06
48.33,-0.085,1.278,0.128
48.34,-0.102,0.541,0.087
48.35,-0.354,1.074,-0.214
48.36,-0.299,1.173,0.024
48.37,-0.091,1.024,0.18
48.38,-0.187,0.996,0.006
48.39,-0.336,0.52,-0.187
48.4,-0.333,1.7,0.007
48.41,-0.026,0.705,0.132
48.42,-0.202,1.11,0.081
48.43,-0.296,0.47,-0.224
48.44,-0.292,1.642,0.023
48.45,-0.06,0.877,0.169
48.46,-0.076,0.754,0.072
48.47,-0.499,0.91,-0.17
48.48,-0.286,1.208,0.08
48.49,-0.256,1.193,0.21
48.5,-0.06,0.482,0.079
48.51,-0.53,1.026,-0.188
48.52,-0.194,1.384,0.064
48.53,-0.124,1.021,0.174
48.54,-0.059,0.739,0.007
