t,ax,ay,az
0.0,-0.306,-0.091,-0.038
0.01,-0.211,0.034,-0.065
0.02,-0.224,-0.045,0.016
0.03,-0.109,0.115,0.008
0.04,-0.146,0.177,0.036
0.05,-0.138,0.018,0.057
0.06,-0.127,-0.083,0.081
0.07,-0.299,-0.123,0.122
0.08,-0.241,-0.307,0.134
0.09,-0.289,-0.036,-0.051
0.1,-0.444,0.107,-0.066
0.11,-0.344,0.219,-0.05
0.12,-0.218,0.183,-0.088
0.13,-0.23,0.146,-0.035
0.14,-0.14,-0.14,-0.009
0.15,-0.155,-0.017,0.043
0.16,-0.15,-0.078,0.066
0.17,-0.167,0.086,0.132
0.18,-0.146,0.104,0.09
0.19,-0.298,0.004,0.055
0.2,-0.39,-0.092,-0.056
0.21,-0.373,-0.11,-0.065
0.22,-0.381,-0.03,0.008
0.23,-0.251,0.088,-0.008
0.24,-0.224,0.21,-0.048
0.25,-0.198,0.109,-0.074
0.26,-0.142,0.184,-0.052
0.27,-0.18,0.03,0.061
0.28,-0.144,-0.058,0.038
0.29,-0.163,-0.028,0.066
0.3,-0.173,-0.148,0.118
0.31,-0.253,0.079,0.053
0.32,-0.373,-0.063,0.101
0.33,-0.267,-0.101,-0.051
0.34,-0.221,-0.113,-0.149
0.35,-0.315,0.023,-0.038
0.36,-0.324,0.116,0.041
0.37,-0.3,0.412,0.034
0.38,-0.222,0.334,-0.072
0.39,-0.063,0.08,-0.167
0.4,-0.002,-0.146,-0.106
0.41,-0.147,-0.414,0.124
0.42,-0.275,-0.262,0.275
0.43,-0.318,-0.118,0.277
0.44,-0.289,0.125,0.069
0.45,-0.302,0.156,-0.128
0.46,-0.257,0.143,-0.167
0.47,-0.293,-0.024,-0.1
0.48,-0.326,-0.05,-0.088
0.49,-0.278,0.13,-0.028
0.5,-0.225,0.074,0.013
0.51,-0.087,0.248,0.006
0.52,-0.095,0.197,0.063
0.53,-0.181,-0.158,0.101
0.54,-0.311,-0.174,0.076
0.55,-0.351,-0.31,0.07
0.56,-0.261,-0.167,0.02
0.57,-0.246,0.054,-0.016
0.58,-0.275,0.123,0.005
0.59,-0.181,0.313,-0.082
0.6,-0.326,0.146,-0.054
0.61,-0.246,0.025,-0.063
0.62,-0.162,0.083,-0.093
0.63,-0.273,0.054,0.022
0.64,-0.14,0.122,0.015
0.65,-0.253,0.082,0.043
0.66,-0.187,-0.144,0.074
0.67,-0.172,-0.341,0.076
0.68,-0.261,-0.188,0.125
0.69,-0.226,-0.23,0.093
0.7,-0.325,0.111,0.03
0.71,-0.37,0.292,-0.018
0.72,-0.171,0.235,-0.146
0.73,-0.244,0.201,-0.127
0.74,-0.186,0.026,-0.114
0.75,-0.177,-0.094,-0.002
0.76,-0.195,-0.021,0.011
0.77,-0.173,0.011,0.093
0.78,-0.217,-0.033,0.101
0.79,-0.148,0.011,0.08
0.8,-0.296,-0.041,0.074
0.81,-0.376,-0.123,0.033
0.82,-0.306,0.014,-0.025
0.83,-0.3,0.076,-0.031
0.84,-0.264,0.239,-0.092
0.85,-0.209,0.235,-0.11
0.86,-0.241,0.107,-0.067
0.87,-0.237,0.135,-0.018
0.88,-0.204,-0.076,0.024
0.89,-0.168,-0.148,0.021
0.9,-0.152,-0.177,0.078
0.91,-0.175,-0.1,0.152
0.92,-0.229,-0.007,0.131
0.93,-0.288,0.117,0.063
0.94,-0.186,-0.036,-0.062
0.95,-0.276,-0.004,-0.136
0.96,-0.406,0.095,-0.039
0.97,-0.352,0.091,0.027
0.98,-0.324,0.29,-0.026
0.99,-0.277,0.261,-0.109
1.0,-0.146,-0.021,-0.152
1.01,-0.063,-0.189,-0.083
1.02,-0.029,-0.318,0.132
1.03,-0.089,-0.286,0.306
1.04,-0.214,-0.025,0.281
1.05,-0.25,0.137,0.104
1.06,-0.255,0.163,-0.082
1.07,-0.347,0.181,-0.17
1.08,-0.38,-0.048,-0.13
1.09,-0.464,-0.09,-0.075
1.1,-0.366,0.124,-0.078
1.11,-0.21,0.083,-0.008
1.12,-0.108,0.235,-0.004
1.13,-0.028,0.152,0.028
1.14,-0.057,-0.114,0.099
1.15,-0.157,-0.153,0.116
1.16,-0.247,-0.268,0.121
1.17,-0.247,-0.184,0.063
1.18,-0.331,0.129,0.017
1.19,-0.374,0.178,0.01
1.2,-0.367,0.198,-0.054
1.21,-0.422,0.129,-0.138
1.22,-0.315,-0.106,-0.1
1.23,-0.194,0.012,-0.11
1.24,-0.161,0.048,-0.007
1.25,-0.054,0.048,0.034
1.26,-0.034,0.147,0.034
1.27,-0.09,-0.061,0.103
1.28,-0.125,-0.177,0.104
1.29,-0.267,-0.082,0.129
1.3,-0.334,-0.089,0.071
1.31,-0.407,0.039,-0.026
1.32,-0.424,0.189,-0.107
1.33,-0.348,0.147,-0.099
1.34,-0.306,0.076,-0.084
1.35,-0.155,-0.019,-0.066
1.36,-0.129,-0.094,-0.008
1.37,-0.083,-0.047,0.042
1.38,-0.057,0.106,0.099
1.39,-0.077,0.008,0.112
1.4,-0.204,0.201,0.091
1.41,-0.319,-0.056,0.053
1.42,-0.42,-0.128,-0.031
1.43,-0.447,-0.086,-0.065
1.44,-0.372,-0.046,-0.033
1.45,-0.312,0.173,-0.072
1.46,-0.258,0.16,-0.061
1.47,-0.201,0.162,-0.043
1.48,-0.146,0.144,-0.019
1.49,-0.062,-0.008,0.003
1.5,-0.03,-0.218,0.027
1.51,-0.152,-0.05,0.051
1.52,-0.209,-0.045,0.14
1.53,-0.356,0.043,0.16
1.54,-0.329,0.124,0.013
1.55,-0.319,-0.044,-0.131
1.56,-0.349,-0.164,-0.141
1.57,-0.332,0.037,-0.036
1.58,-0.284,0.109,0.084
1.59,-0.262,0.294,0.009
1.6,-0.123,0.334,-0.117
1.61,-0.026,0.037,-0.142
1.62,-0.03,-0.184,-0.093
1.63,-0.187,-0.337,0.139
1.64,-0.286,-0.203,0.31
1.65,-0.32,-0.071,0.287
1.66,-0.292,0.2,-0.012
1.67,-0.302,0.13,-0.14
1.68,-0.312,0.068,-0.135
1.69,-0.299,0.008,-0.072
1.7,-0.331,-0.15,-0.057
1.71,-0.238,0.097,-0.08
1.72,-0.173,0.083,-0.02
1.73,-0.125,0.313,0.011
1.74,-0.152,0.218,0.085
1.75,-0.153,-0.145,0.088
1.76,-0.156,-0.206,-0.017
1.77,-0.345,-0.315,0.048
1.78,-0.293,-0.186,0.092
1.79,-0.312,0.135,0.053
1.8,-0.335,0.247,-0.007
1.81,-0.192,0.189,-0.1
1.82,-0.308,0.169,-0.123
1.83,-0.274,-0.035,-0.096
1.84,-0.138,-0.137,-0.081
1.85,-0.195,0.134,0.016
1.86,-0.149,0.116,0.069
1.87,-0.148,0.163,0.054
1.88,-0.177,0.049,-0.0
1.89,-0.203,-0.284,0.006
1.9,-0.298,-0.281,0.052
1.91,-0.318,-0.192,0.093
1.92,-0.286,0.009,0.044
1.93,-0.314,0.27,0.027
1.94,-0.196,0.253,-0.08
1.95,-0.177,0.17,-0.096
1.96,-0.25,-0.007,-0.043
1.97,-0.175,-0.187,-0.007
1.98,-0.191,-0.029,-0.013
1.99,-0.247,-0.004,0.017
2.0,-0.23,0.043,0.121
2.01,-0.243,0.149,0.079
2.02,-0.243,-0.045,0.011
2.03,-0.228,-0.177,-0.087
2.04,-0.263,-0.003,-0.059
2.05,-0.324,0.075,0.045
2.06,-0.255,0.19,0.003
2.07,-0.247,0.284,-0.11
2.08,-0.23,0.156,-0.077
2.09,-0.254,0.071,-0.009
2.1,-0.223,-0.139,0.065
2.11,-0.202,-0.232,0.052
2.12,-0.195,-0.134,0.063
2.13,-0.122,-0.028,0.047
2.14,-0.184,0.105,0.051
2.15,-0.282,0.19,0.02
2.16,-0.187,0.029,-0.092
2.17,-0.301,-0.074,-0.057
2.18,-0.347,-0.005,-0.011
2.19,-0.333,0.082,0.062
2.2,-0.348,0.254,0.057
2.21,-0.253,0.232,-0.058
2.22,-0.118,0.017,-0.148
2.23,-0.121,-0.257,-0.049
2.24,-0.163,-0.384,0.151
2.25,-0.198,-0.237,0.231
2.26,-0.132,0.161,0.135
2.27,-0.31,0.22,0.046
2.28,-0.267,0.239,-0.146
2.29,-0.281,0.153,-0.154
2.3,-0.388,-0.164,-0.074
2.31,-0.34,0.007,-0.093
2.32,-0.298,0.005,0.032
2.33,-0.232,0.186,0.025
2.34,-0.115,0.241,-0.01
2.35,-0.135,0.001,0.045
2.36,-0.097,-0.229,0.016
2.37,-0.165,-0.247,0.065
2.38,-0.259,-0.203,0.105
2.39,-0.312,0.038,0.053
2.4,-0.322,0.235,-0.017
2.41,-0.287,0.327,-0.035
2.42,-0.344,0.101,-0.073
2.43,-0.305,0.021,-0.083
2.44,-0.232,-0.209,-0.1
2.45,-0.27,-0.089,0.032
2.46,-0.223,0.129,0.062
2.47,-0.127,0.026,0.074
2.48,-0.075,0.09,-0.014
2.49,-0.065,-0.09,-0.023
2.5,-0.294,-0.197,0.102
2.51,-0.281,-0.041,0.102
2.52,-0.347,0.035,0.057
2.53,-0.337,0.102,-0.047
2.54,-0.25,0.292,-0.153
2.55,-0.307,0.01,-0.095
2.56,-0.218,-0.031,-0.081
2.57,-0.271,-0.059,0.005
2.58,-0.161,-0.194,0.072
2.59,-0.09,0.017,-0.027
2.6,-0.126,0.074,0.096
2.61,-0.0,-0.0,-0.865
2.62,-0.299,0.025,0.007
2.63,-0.3,0.195,0.085
2.64,-0.184,0.297,0.028
2.65,-0.053,0.274,-0.119
2.66,-0.035,-0.11,-0.121
2.67,0.017,-0.387,-0.046
2.68,-0.182,-0.299,0.2
2.69,-0.374,-0.175,0.367
2.7,-0.314,0.177,0.166
2.71,-0.367,0.297,-0.057
2.72,-0.243,0.166,-0.259
2.73,-0.27,0.08,-0.234
2.74,-0.397,-0.143,-0.061
2.75,-0.26,-0.02,0.023
2.76,-0.192,0.072,0.038
2.77,-0.141,0.198,0.009
2.78,-0.027,0.121,0.043
2.79,-0.113,0.103,0.108
2.8,-0.239,-0.235,0.152
2.81,-0.347,-0.289,0.08
2.82,-0.351,-0.098,-0.022
2.83,-0.325,-0.107,-0.024
2.84,-0.311,0.279,-0.052
2.85,-0.243,0.288,-0.124
2.86,-0.317,0.037,-0.051
2.87,-0.218,-0.019,-0.049
2.88,-0.209,-0.046,0.014
2.89,-0.182,-0.12,0.076
2.9,-0.129,0.219,0.064
2.91,-0.171,0.16,0.056
2.92,-0.138,-0.023,0.002
2.93,-0.157,0.015,-0.003
2.94,-0.291,-0.299,0.071
2.95,-0.324,-0.177,-0.001
2.96,-0.383,-0.033,-0.01
2.97,-0.351,0.086,0.003
2.98,-0.244,0.296,-0.028
2.99,-0.218,0.191,-0.017
3.0,-0.125,0.022,-0.097
3.01,-0.166,-0.054,-0.026
3.02,-0.12,-0.121,0.033
3.03,-0.122,0.076,0.086
3.04,-0.208,0.054,0.098
3.05,-0.211,0.036,0.084
3.06,-0.379,0.006,-0.012
3.07,-0.456,-0.184,0.019
3.08,-0.375,-0.177,0.008
3.09,-0.289,0.055,-0.047
3.1,-0.238,0.155,-0.056
3.11,-0.157,0.188,-0.066
3.12,-0.136,0.311,-0.079
3.13,-0.153,0.162,-0.042
3.14,-0.152,-0.078,0.033
3.15,-0.148,-0.126,0.04
3.16,-0.28,-0.201,0.106
3.17,-0.309,-0.095,0.131
3.18,-0.29,0.085,0.1
3.19,-0.316,0.016,0.005
3.2,-0.178,0.014,-0.166
3.21,-0.153,-0.125,-0.138
3.22,-0.234,0.043,0.026
3.23,-0.283,0.212,0.082
3.24,-0.329,0.308,0.058
3.25,-0.222,0.249,-0.105
3.26,-0.109,0.131,-0.185
3.27,-0.21,-0.219,-0.046
3.28,-0.197,-0.418,0.089
3.29,-0.286,-0.223,0.257
3.3,-0.258,-0.167,0.262
3.31,-0.141,0.198,0.075
3.32,-0.197,0.21,-0.105
3.33,-0.203,0.091,-0.163
3.34,-0.287,0.029,-0.141
3.35,-0.425,-0.051,-0.054
3.36,-0.383,0.018,-0.027
3.37,-0.283,0.165,0.012
3.38,-0.214,0.187,-0.003
3.39,-0.117,0.08,0.023
3.4,-0.168,-0.07,0.071
3.41,-0.199,-0.251,0.135
3.42,-0.254,-0.258,0.145
3.43,-0.142,-0.073,0.013
3.44,-0.237,0.034,-0.034
3.45,-0.266,0.263,-0.084
3.46,-0.304,0.287,-0.107
3.47,-0.409,0.033,-0.047
3.48,-0.359,0.033,-0.059
3.49,-0.249,0.006,-0.015
3.5,-0.222,0.022,0.026
3.51,-0.156,0.162,0.014
3.52,-0.112,0.068,0.069
3.53,-0.015,-0.108,-0.02
3.54,-0.192,-0.21,0.057
3.55,-0.282,-0.428,0.138
3.56,-0.275,-0.032,0.108
3.57,-0.45,0.066,0.069
3.58,-0.374,0.166,-0.032
3.59,-0.179,0.367,-0.186
3.6,-0.228,0.198,-0.138
3.61,-0.217,-0.062,-0.049
3.62,-0.166,-0.022,-0.076
3.63,-0.143,-0.052,0.003
3.64,-0.157,-0.063,0.063
3.65,-0.147,0.1,0.123
3.66,-0.241,0.016,0.123
3.67,-0.28,-0.07,0.053
3.68,-0.326,-0.094,0.011
3.69,-0.348,-0.065,-0.051
3.7,-0.306,0.096,-0.038
3.71,-0.192,0.231,-0.092
3.72,-0.239,0.219,-0.093
3.73,-0.311,0.209,-0.076
3.74,-0.236,0.039,-0.022
3.75,-0.169,-0.105,0.014
3.76,-0.142,-0.173,0.054
3.77,-0.162,-0.17,0.106
3.78,-0.166,-0.022,0.14
3.79,-0.209,0.158,0.1
3.8,-0.228,0.053,-0.018
3.81,-0.207,-0.076,-0.126
3.82,-0.308,-0.016,-0.067
3.83,-0.378,-0.08,0.036
3.84,-0.357,0.249,0.035
3.85,-0.398,0.257,-0.016
3.86,-0.274,0.222,-0.154
3.87,-0.089,0.013,-0.16
3.88,-0.051,-0.254,-0.018
3.89,-0.024,-0.384,0.089
3.9,-0.121,-0.215,0.224
3.91,-0.243,0.035,0.293
3.92,-0.246,0.213,0.114
3.93,-0.281,0.294,-0.068
3.94,-0.335,-0.055,-0.175
3.95,-0.378,-0.064,-0.173
3.96,-0.486,-0.051,-0.094
3.97,-0.387,-0.017,0.016
3.98,-0.184,0.237,-0.049
3.99,-0.011,0.25,-0.068
4.0,-0.06,0.011,-0.0
4.01,-0.052,-0.007,0.115
4.02,-0.156,-0.189,0.164
4.03,-0.302,-0.235,0.156
4.04,-0.302,-0.015,0.023
4.05,-0.332,0.043,-0.015
4.06,-0.368,0.171,-0.048
4.07,-0.394,0.08,-0.081
4.08,-0.329,-0.071,-0.063
4.09,-0.273,0.015,-0.083
4.1,-0.211,0.029,0.003
4.11,-0.083,0.101,-0.04
4.12,-0.052,0.192,-0.031
4.13,-0.119,0.013,0.065
4.14,-0.118,-0.136,0.049
4.15,-0.278,-0.139,0.14
4.16,-0.323,-0.187,0.143
4.17,-0.289,-0.006,0.007
4.18,-0.423,0.111,-0.038
4.19,-0.342,0.084,-0.079
4.2,-0.227,0.214,-0.128
4.21,-0.214,0.054,-0.093
4.22,-0.177,-0.096,-0.06
4.23,-0.128,-0.012,-0.066
4.24,-0.07,0.012,0.035
4.25,-0.162,0.076,0.1
4.26,-0.155,0.124,0.098
4.27,-0.25,0.034,0.101
4.28,-0.354,-0.094,0.035
4.29,-0.338,-0.099,-0.067
4.3,-0.377,-0.11,-0.036
4.31,-0.365,0.082,-0.055
4.32,-0.252,0.135,-0.045
4.33,-0.232,0.207,-0.049
4.34,-0.218,0.125,-0.021
4.35,-0.133,0.085,-0.01
4.36,-0.041,-0.114,-0.018
4.37,-0.145,-0.094,0.05
4.38,-0.221,-0.067,0.159
4.39,-0.206,0.021,0.108
4.4,-0.296,0.083,0.025
4.41,-0.325,-0.068,-0.062
4.42,-0.311,-0.076,-0.131
4.43,-0.351,-0.076,-0.04
4.44,-0.303,0.03,0.077
4.45,-0.27,0.274,0.027
4.46,-0.241,0.339,-0.044
4.47,-0.113,0.14,-0.156
4.48,0.012,-0.039,-0.185
4.49,-0.03,-0.242,0.007
4.5,-0.243,-0.332,0.195
4.51,-0.369,-0.087,0.379
4.52,-0.327,0.107,0.182
4.53,-0.321,0.115,-0.077
4.54,-0.299,0.134,-0.215
4.55,-0.237,-0.073,-0.169
4.56,-0.365,-0.099,-0.045
4.57,-0.291,0.122,0.009
4.58,-0.194,0.053,0.025
4.59,-0.099,0.263,-0.049
4.6,-0.075,0.232,0.027
4.61,-0.139,-0.019,0.108
4.62,-0.304,-0.151,0.071
4.63,-0.431,-0.313,0.053
4.64,-0.326,-0.219,0.008
4.65,-0.266,0.014,-0.018
4.66,-0.268,0.135,0.024
4.67,-0.161,0.222,-0.056
4.68,-0.199,0.182,-0.054
4.69,-0.295,-0.016,-0.025
4.7,-0.176,-0.015,-0.063
4.71,-0.223,0.109,0.018
4.72,-0.25,0.105,0.01
4.73,-0.203,0.143,-0.033
4.74,-0.146,0.093,-0.059
4.75,-0.212,-0.244,0.024
4.76,-0.301,-0.283,0.096
4.77,-0.219,-0.243,0.152
4.78,-0.193,-0.089,0.066
4.79,-0.3,0.267,0.004
4.8,-0.226,0.224,-0.082
4.81,-0.233,0.254,-0.098
4.82,-0.296,0.086,-0.082
4.83,-0.252,-0.144,-0.047
4.84,-0.209,-0.058,-0.024
4.85,-0.203,-0.093,0.047
4.86,-0.181,-0.019,0.122
4.87,-0.183,0.119,0.098
4.88,-0.245,-0.043,0.088
4.89,-0.213,-0.082,-0.05
4.9,-0.243,-0.004,-0.074
4.91,-0.393,0.027,0.013
4.92,-0.317,0.181,-0.02
4.93,-0.224,0.251,-0.118
4.94,-0.266,0.118,-0.104
4.95,-0.25,0.101,-0.028
4.96,-0.18,-0.045,0.052
4.97,-0.153,-0.153,0.076
4.98,-0.174,-0.105,0.029
4.99,-0.107,-0.085,0.043
5.0,-0.115,0.015,0.038
5.01,-0.284,0.135,0.052
5.02,-0.248,0.02,-0.016
5.03,-0.281,-0.103,-0.085
5.04,-0.378,0.005,-0.044
5.05,-0.291,0.085,0.03
5.06,-0.386,0.276,0.058
5.07,-0.317,0.3,-0.022
5.08,-0.104,0.104,-0.182
5.09,-0.042,-0.175,-0.152
5.1,-0.115,-0.312,0.018
5.11,-0.115,-0.374,0.247
5.12,-0.245,-0.139,0.315
5.13,-0.201,0.217,0.148
5.14,-0.241,0.131,-0.058
5.15,-0.287,0.233,-0.201
5.16,-0.379,0.002,-0.15
5.17,-0.395,-0.086,-0.026
5.18,-0.366,0.093,-0.038
5.19,-0.337,0.052,-0.02
5.2,-0.141,0.116,-0.034
5.21,-0.098,0.202,-0.006
5.22,-0.052,-0.103,0.117
5.23,-0.122,-0.203,0.061
5.24,-0.264,-0.208,0.083
5.25,-0.177,-0.055,0.002
5.26,-0.295,0.14,-0.003
5.27,-0.34,0.16,-0.01
5.28,-0.304,0.214,-0.054
5.29,-0.437,0.081,-0.016
5.3,-0.308,-0.076,-0.112
5.31,-0.27,0.003,-0.075
5.32,-0.236,0.016,-0.009
5.33,-0.002,0.104,0.016
5.34,-0.042,0.077,0.025
5.35,-0.054,-0.098,0.028
5.36,-0.133,-0.198,0.102
5.37,-0.301,-0.123,0.218
5.38,-0.344,-0.017,0.119
5.39,-0.455,0.002,-0.032
5.4,-0.405,0.282,-0.166
5.41,-0.272,0.108,-0.189
5.42,-0.334,0.094,-0.073
5.43,-0.228,-0.008,-0.084
5.44,-0.05,-0.135,-0.004
5.45,-0.05,-0.04,0.012
5.46,-0.063,0.031,0.108
5.47,-0.12,0.044,0.171
5.48,-0.194,0.079,0.111
5.49,-0.368,-0.013,0.058
5.5,-0.404,-0.063,-0.068
5.51,-0.386,-0.017,-0.109
5.52,-0.365,0.088,-0.058
5.53,-0.274,0.15,-0.079
5.54,-0.281,0.157,-0.102
5.55,-0.187,0.041,-0.056
5.56,-0.111,0.083,-0.033
5.57,-0.105,-0.01,0.056
5.58,-0.081,-0.136,0.088
5.59,-0.175,-0.031,0.115
5.6,-0.198,-0.039,0.102
5.61,-0.248,-0.002,0.083
5.62,-0.345,0.063,-0.022
5.63,-0.28,-0.129,-0.092
5.64,-0.378,-0.046,-0.061
5.65,-0.405,0.121,0.006
5.66,-0.328,0.163,0.008
5.67,-0.291,0.301,-0.059
5.68,-0.183,0.228,-0.171
5.69,-0.01,-0.124,-0.168
5.7,-0.008,-0.271,-0.048
5.71,-0.101,-0.315,0.168
5.72,-0.268,-0.128,0.388
5.73,-0.186,0.189,0.281
5.74,-0.31,0.197,0.022
5.75,-0.35,0.125,-0.212
5.76,-0.289,-0.068,-0.246
5.77,-0.469,-0.135,-0.084
5.78,-0.34,-0.028,-0.034
5.79,-0.31,0.11,-0.036
5.8,-0.18,0.171,0.01
5.81,0.061,0.263,-0.051
5.82,-0.091,0.166,0.103
5.83,-0.109,-0.244,0.145
5.84,-0.232,-0.193,0.092
5.85,-0.356,-0.215,0.068
5.86,-0.273,-0.129,-0.03
5.87,-0.371,0.17,0.006
5.88,-0.335,0.225,-0.043
5.89,-0.3,0.05,-0.058
5.9,-0.295,0.053,-0.091
5.91,-0.222,-0.028,-0.088
5.92,-0.184,0.011,-0.02
5.93,-0.153,0.252,-0.024
5.94,-0.138,0.09,0.023
5.95,-0.136,0.077,0.01
5.96,-0.198,-0.135,0.071
5.97,-0.287,-0.299,0.126
5.98,-0.279,-0.156,0.092
5.99,-0.322,-0.116,0.047
6.0,-0.33,0.082,-0.028
6.01,-0.195,0.3,-0.11
6.02,-0.21,0.177,-0.116
6.03,-0.254,0.104,-0.078
6.04,-0.196,-0.002,-0.071
6.05,-0.179,-0.098,0.014
6.06,-0.165,-0.001,0.073
6.07,-0.184,0.104,0.091
6.08,-0.169,-0.029,0.077
6.09,-0.297,0.043,0.052
6.1,-0.34,-0.146,-0.001
6.11,-0.3,-0.141,-0.024
6.12,-0.264,0.005,-0.036
6.13,-0.249,0.162,-0.01
6.14,-0.251,0.22,-0.064
6.15,-0.222,0.23,-0.076
6.16,-0.218,0.11,-0.045
6.17,-0.186,0.007,0.004
6.18,-0.229,-0.089,-0.007
6.19,-0.167,-0.249,0.035
6.2,-0.208,0.002,0.038
6.21,-0.245,0.058,0.107
6.22,-0.257,0.015,0.089
6.23,-0.169,0.021,-0.058
6.24,-0.202,-0.14,-0.075
6.25,-0.296,-0.084,-0.019
6.26,-0.329,0.144,0.036
6.27,-0.343,0.291,0.043
6.28,-0.334,0.333,-0.062
6.29,-0.123,0.245,-0.212
6.3,-0.092,-0.194,-0.143
6.31,-0.16,-0.368,0.028
6.32,-0.157,-0.31,0.25
6.33,-0.227,-0.194,0.29
6.34,-0.221,0.127,0.132
6.35,-0.0,-0.0,-0.868
6.36,-0.233,-0.084,-0.041
6.37,-0.229,0.072,-0.059
6.38,-0.178,0.147,-0.029
6.39,-0.175,0.035,0.03
6.4,-0.13,-0.079,0.046
6.41,-0.202,-0.239,0.11
6.42,-0.244,-0.261,0.152
6.43,-0.2,-0.067,0.101
6.44,-0.283,0.125,0.035
6.45,-0.357,0.175,-0.058
6.46,-0.278,0.288,-0.123
6.47,-0.242,0.066,-0.101
6.48,-0.204,-0.022,-0.079
6.49,-0.312,-0.075,-0.007
6.5,-0.231,-0.196,0.036
6.51,-0.089,0.024,0.059
6.52,-0.152,0.084,0.122
6.53,-0.173,0.009,0.117
6.54,-0.206,0.01,0.004
6.55,-0.297,-0.042,-0.026
6.56,-0.295,-0.009,-0.047
6.57,-0.383,0.149,-0.022
6.58,-0.338,0.165,-0.058
6.59,-0.232,0.164,-0.107
6.6,-0.326,0.083,-0.03
6.61,-0.255,0.0,-0.008
6.62,-0.09,-0.104,0.008
6.63,-0.043,-0.081,0.047
6.64,-0.083,-0.144,0.064
6.65,-0.167,0.068,0.13
6.66,-0.248,0.074,0.127
6.67,-0.286,0.033,-0.0
6.68,-0.302,0.053,-0.107
6.69,-0.358,-0.116,-0.081
6.7,-0.437,0.035,0.013
6.71,-0.385,0.199,0.021
6.72,-0.29,0.164,0.01
6.73,-0.128,0.196,-0.107
6.74,-0.02,0.081,-0.146
6.75,-0.033,-0.312,-0.024
6.76,-0.086,-0.242,0.074
6.77,-0.203,-0.24,0.237
6.78,-0.312,-0.019,0.24
6.79,-0.294,0.252,0.053
6.8,-0.387,0.203,-0.053
6.81,-0.34,0.079,-0.179
6.82,-0.368,-0.05,-0.176
6.83,-0.407,-0.148,-0.013
6.84,-0.191,0.03,-0.013
6.85,-0.163,0.172,0.009
6.86,-0.091,0.13,0.023
6.87,-0.028,0.176,-0.016
6.88,-0.174,-0.062,0.071
6.89,-0.198,-0.257,0.058
6.9,-0.295,-0.158,0.057
6.91,-0.343,-0.076,0.052
6.92,-0.305,0.115,0.02
6.93,-0.322,0.302,-0.02
6.94,-0.332,0.152,-0.052
6.95,-0.313,-0.011,-0.101
6.96,-0.205,-0.109,-0.111
6.97,-0.166,-0.117,-0.015
6.98,-0.16,0.043,0.054
6.99,-0.161,0.177,0.065
7.0,-0.103,0.076,0.036
7.01,-0.121,-0.007,0.015
7.02,-0.279,-0.152,0.095
7.03,-0.328,-0.226,0.089
7.04,-0.299,-0.046,0.016
7.05,-0.436,0.041,-0.015
7.06,-0.319,0.184,-0.095
7.07,-0.234,0.261,-0.091
7.08,-0.181,-0.004,-0.063
7.09,-0.102,-0.063,-0.05
7.1,-0.154,-0.039,-0.006
7.11,-0.126,-0.118,0.064
7.12,-0.127,0.081,0.075
7.13,-0.175,0.187,0.068
7.14,-0.285,0.075,0.067
7.15,-0.346,-0.038,0.011
7.16,-0.385,-0.126,-0.07
7.17,-0.411,-0.123,-0.053
7.18,-0.323,0.01,-0.035
7.19,-0.211,0.165,-0.041
7.2,-0.183,0.238,-0.06
7.21,-0.16,0.213,-0.009
7.22,-0.168,0.084,0.02
7.23,-0.076,-0.093,-0.011
7.24,-0.142,-0.167,0.052
7.25,-0.21,-0.186,0.104
7.26,-0.259,-0.021,0.098
7.27,-0.398,0.068,0.075
7.28,-0.351,0.079,-0.046
7.29,-0.27,0.009,-0.108
7.3,-0.302,-0.087,-0.062
7.31,-0.279,-0.031,-0.016
7.32,-0.213,0.224,0.025
7.33,-0.223,0.275,0.018
7.34,-0.114,0.217,-0.108
7.35,-0.067,0.037,-0.158
7.36,-0.108,-0.303,0.023
7.37,-0.186,-0.294,0.161
7.38,-0.391,-0.141,0.281
7.39,-0.305,-0.051,0.169
7.4,-0.274,0.214,-0.05
7.41,-0.292,0.167,-0.128
7.42,-0.201,-0.018,-0.181
7.43,-0.312,-0.029,-0.092
7.44,-0.277,0.032,-0.028
7.45,-0.187,0.104,0.021
7.46,-0.235,0.311,0.025
7.47,-0.086,0.102,-0.001
7.48,-0.126,0.143,0.057
7.49,-0.233,-0.254,0.058
7.5,-0.312,-0.313,0.07
7.51,-0.361,-0.242,0.041
7.52,-0.238,-0.063,0.008
7.53,-0.26,0.16,0.008
7.54,-0.224,0.292,-0.054
7.55,-0.265,0.231,-0.067
7.56,-0.277,-0.008,-0.037
7.57,-0.224,0.022,-0.087
7.58,-0.251,-0.111,0.019
7.59,-0.19,0.137,0.039
7.6,-0.163,0.133,0.039
7.61,-0.218,0.003,0.038
7.62,-0.15,-0.12,-0.006
7.63,-0.228,-0.238,0.06
7.64,-0.26,-0.247,0.116
7.65,-0.246,0.015,-0.005
7.66,-0.348,0.156,-0.036
7.67,-0.268,0.249,-0.046
7.68,-0.186,0.299,-0.1
7.69,-0.252,0.113,-0.038
7.7,-0.23,-0.111,-0.029
7.71,-0.202,-0.053,0.01
7.72,-0.224,-0.148,0.036
7.73,-0.183,-0.014,0.102
7.74,-0.177,0.091,0.086
7.75,-0.225,-0.079,0.049
7.76,-0.305,-0.06,-0.015
7.77,-0.301,-0.101,-0.035
7.78,-0.311,0.059,-0.007
7.79,-0.285,0.187,-0.014
7.8,-0.271,0.239,-0.047
7.81,-0.232,0.177,-0.122
7.82,-0.234,0.16,-0.051
7.83,-0.228,-0.107,0.025
7.84,-0.155,-0.102,-0.009
7.85,-0.196,-0.182,0.021
7.86,-0.136,-0.165,0.11
7.87,-0.181,0.109,0.106
7.88,-0.296,0.113,0.095
7.89,-0.198,-0.006,-0.064
7.9,-0.184,-0.046,-0.175
7.91,-0.331,-0.02,-0.046
7.92,-0.348,0.08,0.082
7.93,-0.344,0.317,0.043
7.94,-0.344,0.27,-0.045
7.95,-0.203,0.121,-0.17
7.96,-0.072,-0.075,-0.16
7.97,-0.086,-0.351,0.041
7.98,-0.11,-0.338,0.178
7.99,-0.227,-0.109,0.288
8.0,-0.176,0.065,0.14
8.01,-0.234,0.226,-0.036
8.02,-0.298,0.23,-0.099
8.03,-0.335,-0.031,-0.118
8.04,-0.497,-0.024,-0.089
8.05,-0.373,-0.027,-0.078
8.06,-0.319,0.041,-0.0
8.07,-0.222,0.236,0.003
8.08,-0.112,0.038,0.024
8.09,-0.001,-0.023,0.013
8.1,-0.066,-0.143,0.045
8.11,-0.28,-0.324,0.132
8.12,-0.225,-0.058,0.053
8.13,-0.264,0.08,0.027
8.14,-0.389,0.188,0.032
8.15,-0.303,0.27,-0.098
8.16,-0.401,0.107,-0.096
8.17,-0.356,-0.075,-0.135
8.18,-0.188,0.002,-0.074
8.19,-0.22,-0.075,0.044
8.2,-0.112,0.13,0.043
8.21,-0.021,0.119,0.041
8.22,-0.06,-0.002,0.041
8.23,-0.121,-0.102,0.077
8.24,-0.34,-0.247,0.138
8.25,-0.311,-0.162,0.095
8.26,-0.37,0.086,-0.026
8.27,-0.358,0.031,-0.048
8.28,-0.25,0.326,-0.162
8.29,-0.299,0.117,-0.051
8.3,-0.198,-0.124,0.001
8.31,-0.125,-0.016,-0.019
8.32,-0.074,-0.092,-0.021
8.33,-0.084,-0.062,0.072
8.34,-0.177,0.076,0.107
8.35,-0.199,0.136,0.059
8.36,-0.327,-0.001,0.051
8.37,-0.412,0.013,-0.046
8.38,-0.415,-0.115,-0.038
8.39,-0.368,0.017,-0.043
8.4,-0.278,0.133,-0.065
8.41,-0.296,0.116,-0.024
8.42,-0.149,0.15,-0.061
8.43,-0.067,0.147,-0.057
8.44,-0.1,-0.042,-0.003
8.45,-0.078,-0.123,-0.002
8.46,-0.146,-0.068,0.095
8.47,-0.226,-0.057,0.16
8.48,-0.356,0.08,0.12
8.49,-0.382,0.035,-0.011
8.5,-0.271,-0.024,-0.155
8.51,-0.34,-0.097,-0.051
8.52,-0.388,0.01,0.062
8.53,-0.243,0.094,0.043
8.54,-0.223,0.25,-0.025
8.55,-0.131,0.265,-0.105
8.56,-0.041,0.006,-0.167
8.57,-0.096,-0.136,-0.069
8.58,-0.093,-0.379,0.115
8.59,-0.231,-0.165,0.215
8.6,-0.339,0.062,0.27
8.61,-0.307,0.136,0.041
8.62,-0.341,0.275,-0.125
8.63,-0.304,0.022,-0.194
8.64,-0.328,-0.132,-0.12
8.65,-0.31,-0.053,-0.03
8.66,-0.229,0.034,0.016
8.67,-0.177,0.156,0.044
8.68,-0.039,0.259,-0.03
8.69,-0.067,0.105,0.034
8.7,-0.152,-0.068,0.059
8.71,-0.261,-0.14,0.066
8.72,-0.357,-0.272,0.075
8.73,-0.338,-0.097,-0.009
8.74,-0.365,0.126,-0.01
8.75,-0.271,0.137,-0.058
8.76,-0.267,0.215,-0.053
8.77,-0.283,-0.09,-0.009
8.78,-0.193,0.016,-0.024
8.79,-0.175,-0.059,0.051
8.8,-0.175,0.126,0.053
8.81,-0.151,0.196,-0.034
8.82,-0.167,0.109,-0.035
8.83,-0.145,-0.114,-0.008
8.84,-0.343,-0.194,0.011
8.85,-0.387,-0.202,0.087
8.86,-0.217,-0.154,0.028
8.87,-0.301,0.173,0.003
8.88,-0.242,0.19,-0.023
8.89,-0.23,0.167,-0.037
8.9,-0.16,0.175,-0.055
8.91,-0.193,-0.034,-0.035
8.92,-0.27,-0.105,-0.003
8.93,-0.146,0.008,-0.034
8.94,-0.138,0.027,0.098
8.95,-0.229,0.094,0.086
8.96,-0.325,-0.007,0.038
8.97,-0.331,-0.165,-0.005
8.98,-0.18,-0.086,-0.076
8.99,-0.328,0.013,0.01
9.0,-0.34,0.093,-0.018
9.01,-0.213,0.254,-0.067
9.02,-0.215,0.257,-0.037
9.03,-0.238,0.262,-0.044
9.04,-0.253,0.229,-0.08
9.05,-0.347,0.128,-0.044
9.06,-0.28,-0.049,-0.05
9.07,-0.222,-0.135,-0.054
9.08,-0.303,-0.05,0.002
9.09,-0.162,0.129,0.031
9.1,-0.131,0.136,0.022
9.11,-0.128,0.021,0.003
9.12,-0.104,-0.191,-0.003
9.13,-0.217,-0.217,0.082
9.14,-0.295,-0.106,0.149
9.15,-0.311,0.037,0.057
9.16,-0.384,0.306,-0.0
9.17,-0.297,0.236,-0.116
9.18,-0.23,0.147,-0.133
9.19,-0.25,-0.023,-0.1
9.2,-0.239,-0.176,-0.04
9.21,-0.172,-0.164,0.005
9.22,-0.062,-0.052,0.084
9.23,-0.13,0.107,0.172
9.24,-0.177,0.117,0.118
9.25,-0.298,0.042,0.062
9.26,-0.326,-0.182,-0.017
9.27,-0.33,0.012,-0.104
9.28,-0.387,0.057,-0.032
9.29,-0.352,0.141,-0.05
9.3,-0.267,0.276,-0.156
9.31,-0.218,0.127,-0.067
9.32,-0.203,0.013,0.019
9.33,-0.139,-0.12,0.069
9.34,-0.078,-0.21,0.062
9.35,-0.139,-0.117,0.068
9.36,-0.13,0.039,0.122
9.37,-0.218,0.149,0.049
9.38,-0.297,0.16,-0.045
9.39,-0.269,-0.011,-0.16
9.4,-0.27,-0.118,-0.102
9.41,-0.484,-0.028,0.042
9.42,-0.402,0.038,0.093
9.43,-0.299,0.277,0.012
9.44,-0.18,0.289,-0.062
9.45,-0.046,0.068,-0.116
9.46,-0.014,-0.148,-0.112
9.47,-0.067,-0.328,0.019
9.48,-0.168,-0.394,0.206
9.49,-0.237,0.059,0.28
9.5,-0.261,0.231,0.138
9.51,-0.363,0.248,-0.067
9.52,-0.349,0.128,-0.207
9.53,-0.412,-0.099,-0.191
9.54,-0.444,-0.118,-0.071
9.55,-0.281,0.025,-0.013
9.56,-0.222,0.134,0.017
9.57,-0.033,0.185,-0.019
9.58,-0.008,0.218,-0.026
9.59,-0.088,-0.087,0.173
9.6,-0.149,-0.235,0.131
9.61,-0.335,-0.205,0.074
9.62,-0.289,-0.184,-0.019
9.63,-0.344,0.095,-0.057
9.64,-0.42,0.286,-0.056
9.65,-0.322,0.194,-0.085
9.66,-0.341,0.09,-0.038
9.67,-0.158,-0.066,-0.094
9.68,-0.153,-0.012,-0.038
9.69,-0.187,-0.042,0.12
9.7,-0.116,0.169,0.067
9.71,-0.058,0.127,-0.023
9.72,-0.155,-0.001,0.002
9.73,-0.28,-0.231,0.06
9.74,-0.316,-0.126,0.119
9.75,-0.328,-0.135,0.067
9.76,-0.412,-0.098,-0.002
9.77,-0.281,0.255,-0.124
9.78,-0.155,0.18,-0.099
9.79,-0.254,0.123,-0.022
9.8,-0.182,0.017,-0.032
9.81,-0.185,-0.053,-0.034
9.82,-0.129,-0.093,-0.013
9.83,-0.186,0.073,0.084
9.84,-0.193,0.1,0.168
9.85,-0.209,0.058,0.105
9.86,-0.338,-0.039,-0.024
9.87,-0.316,-0.231,-0.073
9.88,-0.334,-0.08,-0.072
9.89,-0.323,0.095,-0.02
9.9,-0.238,0.186,-0.045
9.91,-0.235,0.271,-0.088
9.92,-0.221,0.209,-0.063
9.93,-0.19,0.087,0.004
9.94,-0.153,-0.071,0.051
9.95,-0.139,-0.219,0.063
9.96,-0.169,-0.114,0.091
9.97,-0.222,0.019,0.081
9.98,-0.253,0.014,0.068
9.99,-0.31,0.07,-0.028
10.0,-0.248,0.011,-0.108
10.01,-0.258,-0.243,-0.067
10.02,-0.38,0.088,0.009
10.03,-0.296,0.174,0.058
10.04,-0.261,0.322,0.011
10.05,-0.211,0.367,-0.127
10.06,-0.116,-0.03,-0.12
10.07,-0.076,-0.27,-0.071
10.08,-0.08,-0.345,0.042
10.09,-0.285,-0.309,0.299
10.1,-0.292,0.018,0.266
10.11,-0.254,0.235,0.034
10.12,-0.2,0.13,-0.131
10.13,-0.277,0.109,-0.211
10.14,-0.404,-0.039,-0.137
10.15,-0.283,-0.108,-0.059
10.16,-0.224,0.126,-0.009
10.17,-0.235,0.226,0.029
10.18,-0.154,0.218,0.035
10.19,-0.112,0.138,0.031
10.2,-0.166,-0.114,0.038
10.21,-0.288,-0.329,0.102
10.22,-0.354,-0.286,0.081
10.23,-0.265,-0.161,-0.004
10.24,-0.27,0.133,-0.039
10.25,-0.198,0.294,-0.055
10.26,-0.261,0.134,-0.049
10.27,-0.292,0.176,-0.021
10.28,-0.224,-0.03,-0.034
10.29,-0.245,-0.021,-0.069
10.3,-0.278,0.08,0.006
10.31,-0.249,0.079,0.042
10.32,-0.175,0.075,-0.013
10.33,-0.164,-0.153,-0.019
10.34,-0.178,-0.311,0.09
10.35,-0.165,-0.231,0.103
10.36,-0.245,0.009,0.122
10.37,-0.36,0.076,0.089
10.38,-0.208,0.369,-0.145
10.39,-0.253,0.303,-0.167
10.4,-0.296,0.022,-0.09
10.41,-0.238,0.02,-0.094
10.42,-0.258,-0.14,-0.006
10.43,-0.2,-0.177,0.026
10.44,-0.142,0.092,0.063
10.45,-0.125,0.068,0.148
10.46,-0.159,0.049,0.094
10.47,-0.248,0.07,-0.0
10.48,-0.281,-0.182,-0.049
10.49,-0.385,-0.002,-0.035
10.5,-0.354,0.127,-0.005
10.51,-0.255,0.095,-0.036
10.52,-0.316,0.208,-0.047
10.53,-0.243,0.095,-0.061
10.54,-0.166,0.001,0.005
10.55,-0.207,-0.057,0.005
10.56,-0.139,-0.161,0.061
10.57,-0.093,-0.068,0.021
10.58,-0.146,0.069,0.036
10.59,-0.294,0.066,0.068
10.6,-0.24,0.078,-0.021
10.61,-0.282,-0.041,-0.077
10.62,-0.376,-0.162,0.019
10.63,-0.302,0.06,0.009
10.64,-0.338,0.184,0.06
10.65,-0.322,0.247,-0.014
10.66,-0.142,0.316,-0.189
10.67,-0.083,-0.036,-0.185
10.68,-0.021,-0.354,-0.081
10.69,-0.072,-0.302,0.136
10.7,-0.287,-0.219,0.358
10.71,-0.248,0.119,0.254
10.72,-0.28,0.283,0.014
10.73,-0.327,0.188,-0.153
10.74,-0.217,0.02,-0.208
10.75,-0.4,-0.017,-0.091
10.76,-0.375,-0.123,-0.039
10.77,-0.271,0.025,-0.016
10.78,-0.21,0.224,0.024
10.79,-0.093,0.135,-0.0
10.8,-0.151,0.118,0.08
10.81,-0.134,-0.213,0.088
10.82,-0.249,-0.211,0.079
10.83,-0.282,-0.132,0.021
10.84,-0.202,-0.09,-0.019
10.85,-0.258,0.235,-0.041
10.86,-0.283,0.301,0.002
10.87,-0.373,0.043,-0.017
10.88,-0.343,-0.015,-0.101
10.89,-0.274,-0.095,-0.106
10.9,-0.257,-0.133,0.012
10.91,-0.143,0.133,0.017
10.92,-0.121,0.199,0.032
10.93,-0.041,0.051,-0.027
10.94,-0.05,0.014,-0.008
10.95,-0.285,-0.218,0.158
10.96,-0.276,-0.111,0.172
10.97,-0.331,0.023,0.041
10.98,-0.386,-0.019,-0.093
10.99,-0.322,0.151,-0.172
11.0,-0.387,0.157,-0.089
11.01,-0.223,-0.023,-0.001
11.02,-0.146,-0.051,-0.058
11.03,-0.105,-0.043,-0.011
11.04,-0.044,-0.046,0.028
11.05,-0.119,0.212,0.139
11.06,-0.171,0.126,0.165
11.07,-0.279,-0.038,0.047
11.08,-0.383,-0.053,-0.084
11.09,-0.384,-0.181,-0.133
11.1,-0.459,-0.019,-0.032
11.11,-0.35,0.161,-0.044
11.12,-0.141,0.154,-0.069
11.13,-0.144,0.181,-0.041
11.14,-0.139,0.106,0.039
11.15,-0.122,-0.085,0.055
11.16,-0.098,-0.122,0.043
11.17,-0.178,-0.104,0.096
11.18,-0.252,0.021,0.066
11.19,-0.325,0.098,0.021
11.2,-0.33,-0.024,-0.044
11.21,-0.243,-0.006,-0.141
11.22,-0.304,-0.062,-0.066
11.23,-0.285,-0.077,0.04
11.24,-0.254,0.277,0.07
11.25,-0.255,0.292,0.042
11.26,-0.192,0.214,-0.09
11.27,-0.038,0.026,-0.173
11.28,-0.141,-0.303,-0.042
11.29,-0.209,-0.446,0.124
11.3,-0.263,-0.098,0.277
11.31,-0.254,0.008,0.242
11.32,-0.271,0.227,-0.002
11.33,-0.273,0.28,-0.177
11.34,-0.211,-0.106,-0.185
11.35,-0.275,-0.046,-0.139
11.36,-0.406,-0.037,-0.009
11.37,-0.255,0.009,-0.007
11.38,-0.222,0.245,0.02
11.39,-0.122,0.26,-0.007
11.4,-0.112,0.145,0.045
11.41,-0.174,-0.083,0.088
11.42,-0.216,-0.257,0.119
11.43,-0.333,-0.257,0.026
11.44,-0.296,-0.103,-0.054
11.45,-0.285,0.006,-0.008
11.46,-0.202,0.283,-0.062
11.47,-0.283,0.245,-0.035
11.48,-0.32,-0.001,-0.031
11.49,-0.239,0.045,-0.101
11.5,-0.229,0.011,-0.032
11.51,-0.156,-0.018,0.026
11.52,-0.15,0.231,0.054
11.53,-0.198,0.022,0.077
11.54,-0.162,-0.187,-0.002
11.55,-0.263,-0.133,0.091
11.56,-0.328,-0.362,0.126
11.57,-0.264,-0.112,0.034
11.58,-0.331,0.138,-0.072
11.59,-0.259,0.185,-0.082
11.6,-0.219,0.363,-0.138
11.61,-0.207,0.176,-0.085
11.62,-0.134,-0.036,-0.059
11.63,-0.171,-0.058,-0.021
11.64,-0.24,-0.079,0.081
11.65,-0.226,-0.03,0.087
11.66,-0.225,0.051,0.105
11.67,-0.288,0.019,0.068
11.68,-0.274,-0.083,0.004
11.69,-0.293,-0.095,-0.048
11.7,-0.284,-0.018,-0.029
11.71,-0.237,0.152,-0.046
11.72,-0.213,0.209,-0.052
11.73,-0.243,0.153,-0.087
11.74,-0.219,0.212,-0.06
11.75,-0.236,0.083,0.015
11.76,-0.219,-0.135,0.033
11.77,-0.212,-0.14,0.035
11.78,-0.216,-0.136,0.124
11.79,-0.176,-0.131,0.102
11.8,-0.226,0.069,0.072
11.81,-0.184,-0.015,-0.031
11.82,-0.206,-0.026,-0.104
11.83,-0.321,0.06,-0.069
11.84,-0.375,0.046,0.007
11.85,-0.344,0.264,-0.01
11.86,-0.319,0.344,-0.066
11.87,-0.214,0.119,-0.123
11.88,-0.124,-0.058,-0.185
11.89,-0.131,-0.281,0.054
11.9,-0.067,-0.367,0.222
11.91,-0.158,-0.166,0.321
11.92,-0.178,0.03,0.2
11.93,-0.185,0.176,-0.058
11.94,-0.325,0.24,-0.185
11.95,-0.323,0.016,-0.193
11.96,-0.422,-0.013,-0.141
11.97,-0.402,0.074,-0.065
11.98,-0.244,0.092,0.005
11.99,-0.248,0.265,-0.01
12.0,-0.081,0.133,0.013
12.01,-0.077,-0.005,0.053
12.02,-0.108,-0.219,0.115
12.03,-0.222,-0.278,0.132
12.04,-0.281,-0.259,0.083
12.05,-0.23,0.042,-0.013
12.06,-0.306,0.146,-0.004
12.07,-0.29,0.261,-0.047
12.08,-0.357,0.231,-0.042
12.09,-0.379,-0.017,-0.046
12.1,-0.222,-0.0,-0.18
12.11,-0.252,-0.025,-0.082
12.12,-0.212,0.089,-0.014
12.13,-0.075,0.075,0.069
12.14,-0.123,0.048,0.094
12.15,-0.073,-0.226,0.043
12.16,-0.181,-0.205,0.118
12.17,-0.288,-0.158,0.151
12.18,-0.261,0.033,0.041
12.19,-0.421,0.188,-0.043
12.2,-0.31,0.213,-0.159
12.21,-0.264,0.187,-0.2
12.22,-0.354,0.013,-0.108
12.23,-0.209,-0.1,-0.044
12.24,-0.128,-0.067,0.052
12.25,-0.138,-0.036,0.083
12.26,-0.086,0.042,0.098
12.27,-0.089,0.052,0.117
12.28,-0.202,0.085,0.082
12.29,-0.315,-0.058,-0.002
12.3,-0.347,-0.075,-0.033
12.31,-0.406,0.031,-0.046
12.32,-0.331,0.11,-0.066
12.33,-0.319,0.119,-0.056
12.34,-0.269,0.099,-0.059
12.35,-0.233,0.151,-0.04
12.36,-0.154,-0.045,-0.012
12.37,-0.073,-0.074,0.001
12.38,-0.113,-0.116,0.034
12.39,-0.149,-0.012,0.119
12.4,-0.188,0.031,0.129
12.41,-0.323,0.12,0.09
12.42,-0.257,0.032,-0.021
12.43,-0.266,-0.123,-0.096
12.44,-0.388,-0.03,-0.105
12.45,-0.368,-0.026,0.012
12.46,-0.352,0.258,0.017
12.47,-0.245,0.332,-0.071
12.48,-0.127,0.16,-0.158
12.49,0.035,-0.021,-0.163
12.5,-0.087,-0.344,0.036
12.51,-0.125,-0.39,0.188
12.52,-0.233,-0.086,0.317
12.53,-0.306,0.138,0.237
12.54,-0.321,0.187,-0.007
12.55,-0.355,0.137,-0.195
12.56,-0.366,-0.074,-0.172
12.57,-0.385,-0.15,-0.11
12.58,-0.324,0.041,-0.031
12.59,-0.167,0.023,-0.001
12.6,-0.117,0.283,-0.05
12.61,-0.083,0.227,-0.013
12.62,-0.068,-0.005,0.048
12.63,-0.17,-0.101,0.099
12.64,-0.323,-0.258,0.102
12.65,-0.344,-0.191,0.047
12.66,-0.292,0.019,-0.002
12.67,-0.353,0.142,0.045
12.68,-0.298,0.199,-0.052
12.69,-0.271,0.145,-0.114
12.7,-0.242,-0.098,-0.121
12.71,-0.15,-0.01,-0.124
12.72,-0.214,0.053,-0.037
12.73,-0.161,0.111,0.079
12.74,-0.133,0.229,0.058
12.75,-0.185,0.049,0.068
12.76,-0.184,-0.183,0.053
12.77,-0.252,-0.272,0.082
12.78,-0.336,-0.217,0.088
12.79,-0.344,-0.118,-0.024
12.8,-0.383,0.191,-0.033
12.81,-0.258,0.176,-0.069
12.82,-0.205,0.29,-0.073
12.83,-0.21,0.029,-0.039
12.84,-0.15,-0.135,-0.041
12.85,-0.138,-0.04,-0.033
12.86,-0.122,-0.001,0.053
12.87,-0.226,0.085,0.095
12.88,-0.23,0.1,0.089
12.89,-0.299,0.026,-0.031
12.9,-0.363,-0.119,-0.052
12.91,-0.372,-0.08,-0.025
12.92,-0.327,-0.022,0.016
12.93,-0.215,0.101,-0.041
12.94,-0.181,0.199,-0.048
12.95,-0.266,0.176,-0.035
12.96,-0.183,0.158,-0.041
12.97,-0.138,0.059,-0.027
12.98,-0.115,-0.136,0.013
12.99,-0.205,-0.096,0.043
13.0,-0.293,-0.081,0.099
13.01,-0.246,-0.029,0.097
13.02,-0.298,0.014,0.026
13.03,-0.221,-0.061,-0.101
13.04,-0.212,-0.106,-0.098
13.05,-0.348,0.151,0.055
13.06,-0.308,0.149,0.089
13.07,-0.266,0.28,-0.014
13.08,-0.214,0.225,-0.12
13.09,-0.07,-0.021,-0.138
13.1,-0.146,-0.186,-0.069
13.11,-0.185,-0.311,0.039
13.12,-0.262,-0.282,0.202
13.13,-0.32,-0.016,0.213
13.14,-0.204,0.175,0.092
13.15,-0.194,0.13,-0.056
13.16,-0.178,0.197,-0.195
13.17,-0.345,-0.097,-0.097
13.18,-0.352,-0.095,-0.0
13.19,-0.238,0.171,-0.022
13.2,-0.268,0.129,0.018
13.21,-0.193,0.226,-0.056
13.22,-0.161,0.144,-0.065
13.23,-0.239,-0.149,0.067
13.24,-0.186,-0.157,0.033
13.25,-0.28,-0.282,0.111
13.26,-0.179,-0.154,0.017
13.27,-0.179,0.168,0.017
13.28,-0.306,0.228,0.055
13.29,-0.241,0.203,-0.039
13.3,-0.35,0.066,-0.044
13.31,-0.333,-0.053,-0.098
13.32,-0.28,-0.024,-0.075
13.33,-0.318,0.013,0.012
13.34,-0.184,0.095,0.0
13.35,-0.12,0.104,0.016
13.36,-0.071,-0.082,0.045
13.37,-0.124,-0.275,0.073
13.38,-0.2,-0.155,0.094
13.39,-0.201,-0.099,0.088
13.4,-0.382,0.099,0.033
13.41,-0.347,0.287,-0.078
13.42,-0.276,0.18,-0.109
13.43,-0.309,0.082,-0.114
13.44,-0.249,0.015,-0.063
13.45,-0.258,-0.139,0.022
13.46,-0.142,-0.059,0.012
13.47,-0.124,0.078,0.006
13.48,-0.086,-0.047,0.117
13.49,-0.135,0.036,0.1
13.5,-0.265,-0.004,0.063
13.51,-0.342,-0.167,0.009
13.52,-0.353,0.021,-0.066
13.53,-0.391,0.102,-0.047
13.54,-0.278,0.211,-0.063
13.55,-0.301,0.24,-0.061
13.56,-0.303,0.072,-0.066
13.57,-0.192,0.093,-0.038
13.58,-0.151,-0.134,0.032
13.59,-0.07,-0.193,0.054
13.6,-0.148,-0.151,0.091
13.61,-0.154,-0.032,0.112
13.62,-0.204,0.066,0.093
13.63,-0.318,0.144,-0.031
13.64,-0.282,0.018,-0.13
13.65,-0.342,-0.098,-0.084
13.66,-0.39,0.077,-0.002
13.67,-0.374,0.134,0.044
13.68,-0.335,0.214,-0.003
13.69,-0.199,0.262,-0.118
13.7,-0.047,-0.058,-0.096
13.71,-0.024,-0.227,-0.008
13.72,-0.052,-0.273,0.054
13.73,-0.167,-0.34,0.188
13.74,-0.233,0.156,0.189
13.75,-0.268,0.235,0.074
13.76,-0.365,0.239,-0.044
13.77,-0.343,0.047,-0.197
13.78,-0.372,-0.116,-0.167
13.79,-0.436,-0.127,-0.064
13.8,-0.337,0.078,0.012
13.81,-0.22,0.092,0.059
13.82,-0.026,0.281,-0.008
13.83,-0.057,0.055,0.001
13.84,-0.077,-0.162,0.081
13.85,-0.098,-0.158,0.062
13.86,-0.335,-0.261,0.14
13.87,-0.352,-0.076,0.047
13.88,-0.349,0.11,-0.031
13.89,-0.334,0.341,-0.085
13.9,-0.39,0.101,-0.114
13.91,-0.422,0.073,-0.046
13.92,-0.212,-0.071,-0.08
13.93,-0.144,-0.075,-0.029
13.94,-0.132,0.076,0.004
13.95,-0.04,0.038,0.039
13.96,-0.111,0.104,0.075
13.97,-0.086,0.018,0.033
13.98,-0.254,-0.199,0.129
13.99,-0.365,-0.111,0.043
14.0,-0.285,-0.084,-0.018
14.01,-0.421,-0.004,-0.031
14.02,-0.34,0.209,-0.108
14.03,-0.252,0.18,-0.087
14.04,-0.202,0.045,-0.04
14.05,-0.142,0.045,-0.063
14.06,-0.137,-0.08,0.005
14.07,-0.075,-0.073,0.035
14.08,-0.132,0.115,0.073
14.09,-0.224,0.027,0.16
14.1,-0.252,0.03,0.087
14.11,-0.366,-0.115,0.026
14.12,-0.375,-0.182,-0.051
14.13,-0.334,-0.084,-0.06
14.14,-0.368,0.128,-0.048
14.15,-0.228,0.148,-0.065
14.16,-0.205,0.281,-0.102
14.17,-0.22,0.18,-0.031
14.18,-0.128,0.051,-0.046
14.19,-0.103,-0.057,-0.031
14.2,-0.123,-0.188,0.093
14.21,-0.199,-0.076,0.166
14.22,-0.286,0.022,0.162
14.23,-0.295,0.006,0.056
14.24,-0.25,0.002,-0.116
14.25,-0.275,-0.064,-0.193
14.26,-0.329,-0.156,-0.04
14.27,-0.326,0.124,0.041
14.28,-0.284,0.276,0.045
14.29,-0.247,0.268,-0.022
14.3,-0.052,0.203,-0.189
14.31,-0.073,-0.134,-0.068
14.32,-0.148,-0.372,0.09
14.33,-0.218,-0.175,0.214
14.34,-0.305,-0.254,0.221
14.35,-0.288,0.151,0.1
14.36,-0.342,0.186,-0.029
14.37,-0.307,0.047,-0.134
14.38,-0.265,0.036,-0.159
14.39,-0.279,-0.113,-0.11
14.4,-0.282,0.052,-0.04
14.41,-0.228,0.202,0.004
14.42,-0.133,0.222,0.038
14.43,-0.062,0.162,-0.027
14.44,-0.167,0.006,0.027
14.45,-0.204,-0.343,0.052
14.46,-0.368,-0.267,0.088
14.47,-0.34,-0.093,0.07
14.48,-0.269,-0.065,0.038
14.49,-0.259,0.26,-0.056
14.5,-0.222,0.25,-0.082
14.51,-0.252,0.044,-0.035
14.52,-0.219,0.071,-0.085
14.53,-0.208,-0.093,-0.045
14.54,-0.205,0.038,0.011
14.55,-0.176,0.218,0.016
14.56,-0.224,0.09,0.084
14.57,-0.206,-0.023,-0.023
14.58,-0.233,-0.142,-0.023
14.59,-0.269,-0.4,0.064
14.6,-0.22,-0.108,0.083
14.61,-0.272,-0.093,0.116
14.62,-0.295,0.251,0.043
14.63,-0.221,0.313,-0.053
14.64,-0.251,0.16,-0.097
14.65,-0.25,0.032,-0.125
14.66,-0.239,-0.071,-0.067
14.67,-0.247,-0.118,0.012
14.68,-0.235,-0.034,0.012
14.69,-0.213,0.07,0.068
14.7,-0.165,-0.008,0.094
14.71,-0.126,0.009,0.073
14.72,-0.252,-0.145,0.019
14.73,-0.322,-0.103,-0.032
14.74,-0.326,0.066,-0.017
14.75,-0.321,0.187,-0.027
14.76,-0.27,0.274,-0.116
14.77,-0.291,0.221,-0.057
14.78,-0.255,0.093,-0.037
14.79,-0.215,-0.056,-0.037
14.8,-0.151,-0.245,0.072
14.81,-0.114,-0.15,0.073
14.82,-0.148,-0.089,0.113
14.83,-0.15,0.08,0.067
14.84,-0.224,0.139,0.016
14.85,-0.259,0.005,-0.07
14.86,-0.34,-0.091,-0.059
14.87,-0.388,-0.108,0.008
14.88,-0.31,0.17,0.026
14.89,-0.384,0.229,0.073
14.9,-0.308,0.302,-0.071
14.91,-0.125,0.155,-0.204
14.92,-0.122,-0.234,-0.091
14.93,-0.001,-0.385,0.001
14.94,-0.158,-0.233,0.171
14.95,-0.219,-0.116,0.274
14.96,-0.178,0.234,0.107
14.97,-0.293,0.32,-0.023
14.98,-0.285,0.056,-0.154
14.99,-0.379,-0.089,-0.167
15.0,-0.406,-0.073,-0.048
15.01,-0.348,-0.024,-0.004
15.02,-0.355,0.141,0.019
15.03,-0.156,0.165,-0.009
15.04,-0.001,0.131,-0.024
15.05,-0.104,-0.025,0.076
15.06,-0.127,-0.287,0.093
15.07,-0.266,-0.191,0.073
15.08,-0.281,-0.102,0.024
15.09,-0.244,0.078,-0.035
15.1,-0.3,0.285,-0.043
15.11,-0.378,0.259,-0.037
15.12,-0.341,-0.049,-0.007
15.13,-0.291,0.113,-0.054
15.14,-0.323,-0.147,-0.017
15.15,-0.228,-0.051,-0.025
15.16,-0.024,0.127,-0.038
15.17,-0.078,0.025,0.032
15.18,-0.092,0.001,0.02
15.19,-0.233,-0.144,0.089
15.2,-0.223,-0.174,0.107
15.21,-0.198,-0.015,0.047
15.22,-0.391,0.056,0.032
15.23,-0.379,0.035,-0.058
15.24,-0.305,0.299,-0.157
15.25,-0.315,0.069,-0.082
15.26,-0.295,-0.02,-0.049
15.27,-0.144,0.02,-0.022
15.28,-0.077,-0.115,0.03
15.29,-0.014,0.021,0.05
15.3,-0.069,0.053,0.067
15.31,-0.197,0.001,0.106
15.32,-0.297,0.005,0.082
15.33,-0.358,-0.032,0.017
15.34,-0.412,-0.093,-0.089
15.35,-0.464,0.072,-0.104
15.36,-0.351,0.13,-0.05
15.37,-0.261,0.175,-0.045
15.38,-0.214,0.133,0.004
15.39,-0.083,0.04,-0.053
15.4,-0.047,-0.054,-0.024
15.41,-0.077,-0.14,0.07
15.42,-0.154,-0.065,0.152
15.43,-0.272,0.053,0.117
15.44,-0.3,0.08,0.038
15.45,-0.331,-0.031,-0.084
15.46,-0.311,-0.078,-0.182
15.47,-0.348,-0.11,-0.034
15.48,-0.362,-0.024,0.102
15.49,-0.288,0.285,0.069
15.5,-0.215,0.269,-0.035
15.51,-0.146,0.204,-0.152
15.52,0.015,0.004,-0.174
15.53,-0.077,-0.292,0.005
15.54,-0.15,-0.384,0.15
15.55,-0.269,-0.134,0.237
15.56,-0.325,0.049,0.297
15.57,-0.262,0.254,0.027
15.58,-0.314,0.191,-0.189
15.59,-0.301,-0.034,-0.214
15.6,-0.331,-0.085,-0.159
15.61,-0.382,-0.038,0.023
15.62,-0.248,0.063,0.018
15.63,-0.134,0.17,0.03
15.64,-0.1,0.193,0.039
15.65,-0.053,0.045,0.036
15.66,-0.14,-0.085,0.124
15.67,-0.0,-0.0,-0.865
15.68,-0.245,0.228,-0.092
15.69,-0.167,0.227,-0.093
15.7,-0.176,-0.004,-0.031
15.71,-0.151,-0.078,0.011
15.72,-0.143,0.083,-0.004
15.73,-0.125,-0.162,0.091
15.74,-0.222,0.118,0.129
15.75,-0.306,-0.02,0.08
15.76,-0.344,-0.195,0.092
15.77,-0.307,-0.029,-0.025
15.78,-0.315,-0.089,-0.058
15.79,-0.312,0.034,-0.026
15.8,-0.202,0.295,-0.074
15.81,-0.171,0.275,-0.064
15.82,-0.231,0.093,-0.049
15.83,-0.265,0.115,-0.002
15.84,-0.154,-0.093,0.022
15.85,-0.164,-0.113,0.072
15.86,-0.272,-0.102,0.097
15.87,-0.209,-0.095,0.121
15.88,-0.186,0.087,0.028
15.89,-0.241,0.005,-0.021
15.9,-0.154,-0.092,-0.087
15.91,-0.235,-0.029,-0.073
15.92,-0.396,0.025,0.067
15.93,-0.309,0.161,0.037
15.94,-0.344,0.367,0.004
15.95,-0.304,0.227,-0.031
15.96,-0.134,0.068,-0.143
15.97,-0.089,-0.171,-0.093
15.98,-0.163,-0.464,0.091
15.99,-0.135,-0.252,0.189
16.0,-0.186,-0.023,0.272
16.01,-0.205,0.128,0.115
16.02,-0.252,0.26,-0.096
16.03,-0.278,0.095,-0.215
16.04,-0.387,-0.084,-0.129
16.05,-0.422,-0.045,-0.035
16.06,-0.34,0.081,0.016
16.07,-0.268,0.161,0.016
16.08,-0.096,0.251,-0.015
16.09,-0.158,0.031,0.022
16.1,-0.121,-0.124,0.127
16.11,-0.152,-0.208,0.121
16.12,-0.253,-0.32,0.107
16.13,-0.206,-0.096,-0.023
16.14,-0.27,0.111,-0.06
16.15,-0.318,0.234,-0.041
16.16,-0.269,0.242,-0.08
16.17,-0.396,0.136,0.006
16.18,-0.261,0.085,-0.07
16.19,-0.273,-0.031,0.004
16.2,-0.256,0.022,0.013
16.21,-0.077,0.078,-0.036
16.22,-0.166,-0.02,0.062
16.23,-0.067,-0.17,0.069
16.24,-0.169,-0.235,0.078
16.25,-0.325,-0.2,0.172
16.26,-0.216,-0.151,0.097
16.27,-0.294,0.234,-0.024
16.28,-0.371,0.22,-0.055
16.29,-0.322,0.212,-0.111
16.3,-0.287,0.176,-0.137
16.31,-0.213,-0.031,-0.112
16.32,-0.224,-0.115,0.0
16.33,-0.153,0.012,0.015
16.34,-0.136,-0.093,0.104
16.35,-0.12,-0.024,0.126
16.36,-0.136,0.07,0.11
16.37,-0.279,-0.161,0.114
16.38,-0.287,-0.025,-0.006
16.39,-0.323,0.032,-0.097
16.4,-0.374,0.095,-0.051
16.41,-0.324,0.271,-0.073
16.42,-0.295,0.189,-0.085
16.43,-0.292,0.1,-0.068
16.44,-0.27,0.044,-0.05
16.45,-0.133,-0.123,0.019
16.46,-0.072,-0.113,0.083
16.47,-0.1,-0.041,0.148
16.48,-0.085,-0.072,0.121
16.49,-0.188,0.033,0.053
16.5,-0.283,0.049,0.005
16.51,-0.251,-0.134,-0.06
16.52,-0.398,0.006,-0.072
16.53,-0.463,0.016,0.019
16.54,-0.404,0.222,-0.017
16.55,-0.354,0.346,-0.064
16.56,-0.222,0.184,-0.07
16.57,0.003,-0.087,-0.134
16.58,0.083,-0.194,-0.084
16.59,-0.019,-0.384,0.109
16.6,-0.168,-0.284,0.275
16.61,-0.267,0.177,0.283
16.62,-0.271,0.178,0.137
16.63,-0.322,0.243,-0.122
16.64,-0.369,0.023,-0.204
16.65,-0.449,-0.14,-0.189
16.66,-0.429,-0.072,-0.034
16.67,-0.29,0.201,0.007
16.68,-0.138,0.095,-0.032
16.69,-0.024,0.24,-0.043
16.7,-0.01,0.129,0.033
16.71,-0.116,-0.092,0.146
16.72,-0.22,-0.2,0.138
16.73,-0.358,-0.227,0.138
16.74,-0.281,-0.141,-0.012
16.75,-0.356,0.133,-0.027
16.76,-0.322,0.076,-0.036
16.77,-0.288,0.204,-0.064
16.78,-0.408,0.057,-0.024
16.79,-0.211,-0.079,-0.069
16.8,-0.179,0.104,-0.103
16.81,-0.164,0.063,0.015
16.82,-0.143,0.083,0.007
16.83,-0.149,0.047,0.063
16.84,-0.155,-0.116,0.112
16.85,-0.203,-0.156,-0.879
16.86,-0.287,-0.097,0.125
16.87,-0.23,-0.135,0.048
16.88,-0.346,0.08,-0.03
16.89,-0.34,0.171,-0.099
16.9,-0.265,0.123,-0.093
16.91,-0.237,0.118,-0.113
16.92,-0.228,0.038,-0.083
16.93,-0.172,-0.074,0.021
16.94,-0.124,0.063,0.062
16.95,-0.135,0.046,0.112
16.96,-0.111,0.05,0.135
16.97,-0.195,0.042,0.067
16.98,-0.282,-0.112,0.024
16.99,-0.364,-0.158,-0.003
17.0,-0.44,-0.044,-0.019
17.01,-0.394,0.011,-0.02
17.02,-0.251,0.156,-0.05
17.03,-0.262,0.208,-0.06
17.04,-0.185,0.103,-0.04
17.05,-0.201,0.135,0.027
17.06,-0.093,-0.078,0.007
17.07,-0.096,-0.089,0.025
17.08,-0.181,-0.053,0.089
17.09,-0.22,-0.047,0.14
17.1,-0.336,0.075,0.077
17.11,-0.345,-0.006,-0.015
17.12,-0.246,-0.212,-0.062
17.13,-0.0,-0.0,-0.857
17.14,-0.163,0.135,-0.001
17.15,-0.132,-0.209,0.046
17.16,-0.243,-0.226,0.067
17.17,-0.386,-0.217,0.098
17.18,-0.188,-0.163,-0.0
17.19,-0.141,0.161,-0.03
17.2,-0.28,0.23,0.047
17.21,-0.318,0.13,0.021
17.22,-0.263,0.08,-0.023
17.23,-0.24,0.029,-0.036
17.24,-0.285,0.009,-0.045
17.25,-0.238,0.087,-0.005
17.26,-0.198,0.161,0.017
17.27,-0.131,0.07,-0.057
17.28,-0.195,-0.064,0.051
17.29,-0.2,-0.375,-0.866
17.3,-0.248,-0.143,0.175
17.31,-0.209,-0.116,0.14
17.32,-0.276,0.054,0.02
17.33,-0.361,0.279,-0.038
17.34,-0.242,0.219,-0.86
17.35,-0.267,0.156,-0.041
17.36,-0.226,-0.01,-0.068
17.37,-0.167,-0.128,-0.008
17.38,-0.205,-0.039,0.058
17.39,-0.234,0.003,0.13
17.4,-0.232,-0.089,0.159
17.41,-0.144,0.044,0.098
17.42,-0.272,-0.116,0.023
17.43,-0.287,-0.083,-0.002
17.44,-0.286,0.064,0.002
17.45,-0.307,0.163,-0.012
17.46,-0.24,0.278,-0.046
17.47,-0.201,0.188,-0.059
17.48,-0.305,0.097,-0.01
17.49,-0.269,0.003,-0.005
17.5,-0.171,-0.1,0.064
17.51,-0.182,-0.176,0.087
17.52,-0.186,-0.071,0.096
17.53,-0.181,-0.038,0.102
17.54,-0.119,-0.008,0.097
17.55,-0.158,0.106,0.005
17.56,-0.242,-0.04,-0.051
17.57,-0.271,-0.124,-0.038
17.58,-0.391,0.199,0.04
17.59,-0.406,0.226,0.086
17.6,-0.349,0.214,-0.012
17.61,-0.271,0.22,-0.121
17.62,-0.143,-0.094,-0.115
17.63,-0.0,-0.0,-0.841
17.64,-0.365,0.24,0.056
17.65,-0.38,0.241,0.017
17.66,-0.402,0.084,-0.059
17.67,-0.376,0.035,-0.138
17.68,-0.247,-0.107,-0.05
17.69,-0.132,-0.002,0.036
17.7,-0.144,0.118,0.094
17.71,-0.067,-0.05,0.089
17.72,0.015,0.091,0.037
17.73,-0.188,-0.197,0.172
17.74,-0.328,-0.203,0.172
17.75,-0.297,-0.075,0.099
17.76,-0.323,0.057,-0.018
17.77,-0.413,0.155,-0.025
17.78,-0.358,0.284,-0.097
17.79,-0.263,0.106,-0.071
17.8,-0.157,-0.047,-0.062
17.81,-0.156,-0.074,0.024
17.82,-0.133,-0.205,0.074
17.83,-0.072,0.034,0.112
17.84,-0.176,0.132,0.174
17.85,-0.184,0.053,0.1
17.86,-0.247,0.104,0.039
17.87,-0.271,-0.064,-0.021
17.88,-0.347,-0.095,-0.018
17.89,-0.443,0.043,-0.031
17.9,-0.342,0.039,-0.034
17.91,-0.271,0.19,-0.061
17.92,-0.23,0.206,-0.016
17.93,-0.219,0.063,0.046
17.94,-0.164,0.011,0.043
17.95,-0.052,-0.076,0.044
17.96,-0.07,-0.221,0.099
17.97,-0.0,-0.0,-0.84
17.98,-0.38,-0.104,-0.132
17.99,-0.353,-0.13,-0.019
18.0,-0.156,0.143,0.009
18.01,-0.173,0.208,0.09
18.02,-0.015,0.242,0.053
18.03,-0.071,0.165,0.057
18.04,-0.218,-0.132,0.179
18.05,-0.229,-0.291,0.151
18.06,-0.381,-0.236,0.121
18.07,-0.417,-0.231,0.051
18.08,-0.31,0.072,0.001
18.09,-0.264,0.36,-0.055
18.1,-0.224,0.124,-0.042
18.11,-0.338,0.131,-0.026
18.12,-0.167,0.046,-0.141
18.13,-0.173,-0.095,0.011
18.14,-0.189,0.069,0.051
18.15,-0.149,0.174,0.081
18.16,-0.209,0.032,0.102
18.17,-0.157,-0.062,0.083
18.18,-0.288,-0.221,0.096
18.19,-0.342,-0.264,0.112
18.2,-0.222,-0.065,0.037
18.21,-0.29,0.05,0.02
18.22,-0.315,0.235,-0.03
18.23,-0.252,0.275,-0.071
18.24,-0.221,0.049,-0.022
18.25,-0.148,0.035,-0.085
18.26,-0.239,-0.049,0.038
18.27,-0.176,-0.084,0.068
18.28,-0.14,0.034,0.094
18.29,-0.214,0.101,0.119
18.3,-0.23,-0.014,0.074
18.31,-0.312,-0.06,0.051
18.32,-0.302,-0.167,0.013
18.33,-0.309,-0.006,-0.008
18.34,-0.363,0.113,0.013
18.35,-0.238,0.165,-0.027
18.36,-0.214,0.292,-0.069
18.37,-0.265,0.132,-0.037
18.38,-0.2,0.024,0.019
18.39,-0.137,-0.127,0.012
18.4,-0.152,-0.112,-0.024
18.41,-0.206,-0.18,0.158
18.42,-0.227,0.028,0.17
18.43,-0.276,0.045,0.121
18.44,-0.229,-0.008,-0.016
18.45,-0.146,0.031,-0.112
18.46,-0.321,-0.064,-0.031
18.47,-0.36,0.071,0.018
18.48,-0.281,0.219,0.034
18.49,-0.263,0.283,0.001
18.5,-0.164,0.238,-0.111
18.51,-0.146,-0.055,-0.134
18.52,-0.131,-0.314,-0.001
18.53,-0.141,-0.276,0.136
18.54,-0.313,-0.29,0.351
18.55,-0.206,-0.016,0.228
18.56,-0.174,0.23,0.015
18.57,-0.285,0.152,-0.061
18.58,-0.212,0.111,-0.167
18.59,-0.357,-0.048,-0.086
18.6,-0.375,-0.015,0.013
18.61,-0.298,0.072,0.008
18.62,-0.246,0.195,-0.02
18.63,-0.214,0.088,-0.01
18.64,-0.149,0.134,0.038
18.65,-0.142,-0.124,0.104
18.66,-0.23,-0.362,0.085
18.67,-0.197,-0.156,0.052
18.68,-0.114,-0.058,0.02
18.69,-0.287,0.19,0.104
18.7,-0.243,0.321,-0.023
18.71,-0.345,0.203,-0.041
18.72,-0.386,0.047,-0.07
18.73,-0.298,-0.092,-0.116
18.74,-0.367,-0.175,-0.012
18.75,-0.245,0.042,0.053
18.76,-0.138,0.139,0.063
18.77,-0.056,0.075,0.055
18.78,-0.022,-0.082,0.003
18.79,-0.143,-0.118,0.118
18.8,-0.183,-0.247,0.116
18.81,-0.315,0.062,0.068
18.82,-0.473,0.039,0.059
18.83,-0.343,0.271,-0.067
18.84,-0.326,0.218,-0.094
18.85,-0.329,-0.023,-0.079
18.86,-0.194,-0.135,-0.054
18.87,-0.194,-0.064,0.009
18.88,-0.087,-0.172,0.08
18.89,-0.07,0.029,0.1
18.9,-0.105,0.236,0.073
18.91,-0.16,0.013,0.065
18.92,-0.329,0.092,0.049
18.93,-0.409,-0.069,-0.041
18.94,-0.362,-0.036,-0.037
18.95,-0.351,0.086,-0.025
18.96,-0.367,0.069,-0.065
18.97,-0.256,0.167,-0.049
18.98,-0.195,0.155,-0.027
18.99,-0.147,0.002,0.033
19.0,-0.067,-0.06,0.021
19.01,-0.093,-0.165,0.044
19.02,-0.136,-0.103,0.095
19.03,-0.21,0.059,0.1
19.04,-0.327,0.067,0.097
19.05,-0.267,0.111,-0.045
19.06,-0.25,0.031,-0.095
19.07,-0.433,-0.051,-0.03
19.08,-0.359,-0.162,0.002
19.09,-0.292,0.233,0.056
19.1,-0.291,0.149,0.072
19.11,-0.163,0.209,-0.045
19.12,-0.027,0.029,-0.159
19.13,-0.039,-0.286,-0.075
19.14,-0.0,-0.0,-0.853
19.15,-0.322,0.226,-0.085
19.16,-0.281,-0.009,-0.069
19.17,-0.24,-0.055,-0.05
19.18,-0.153,-0.078,-0.002
19.19,-0.145,-0.036,0.093
19.2,-0.127,0.179,0.084
19.21,-0.104,0.217,0.075
19.22,-0.175,0.004,0.016
19.23,-0.295,-0.088,0.021
19.24,-0.384,-0.281,-0.861
19.25,-0.337,-0.169,0.055
19.26,-0.376,0.001,0.02
19.27,-0.358,0.098,0.012
19.28,-0.104,0.267,-0.07
19.29,-0.161,0.197,-0.018
19.3,-0.187,-0.071,0.022
19.31,-0.097,-0.08,-0.04
19.32,-0.141,-0.014,0.015
19.33,-0.224,-0.014,0.103
19.34,-0.236,0.192,0.135
19.35,-0.304,0.109,0.113
19.36,-0.38,-0.043,-0.019
19.37,-0.337,-0.12,-0.049
19.38,-0.342,-0.166,0.004
19.39,-0.267,0.006,-0.002
19.4,-0.198,0.245,0.004
19.41,-0.13,0.155,-0.015
19.42,-0.193,0.295,-0.025
19.43,-0.185,0.062,0.04
19.44,-0.128,-0.158,0.071
19.45,-0.231,-0.215,0.022
19.46,-0.246,-0.16,0.068
19.47,-0.26,-0.068,0.113
19.48,-0.349,0.248,0.119
19.49,-0.324,0.096,-0.002
19.5,-0.139,-0.018,-0.153
19.51,-0.214,-0.089,-0.102
19.52,-0.272,-0.085,0.043
19.53,-0.284,0.109,0.128
19.54,-0.243,0.304,0.058
19.55,-0.212,0.278,-0.008
19.56,-0.115,0.087,-0.143
19.57,-0.13,-0.155,-0.089
19.58,-0.113,-0.403,0.049
19.59,-0.317,-0.216,0.249
19.6,-0.0,-0.0,-0.844
19.61,-0.224,-0.061,-0.036
19.62,-0.131,-0.002,-0.072
19.63,-0.269,-0.14,0.059
19.64,-0.222,0.017,0.106
19.65,-0.0,-0.0,-0.836
19.66,-0.363,0.001,0.022
19.67,-0.359,0.062,0.037
19.68,-0.278,0.173,-0.045
19.69,-0.29,0.144,-0.013
19.7,-0.284,0.156,-0.032
19.71,-0.2,0.002,0.03
19.72,-0.149,-0.139,0.062
19.73,-0.058,-0.161,0.065
19.74,-0.159,-0.107,0.137
19.75,-0.166,-0.004,0.131
19.76,-0.287,0.189,0.06
19.77,-0.252,0.093,-0.023
19.78,-0.256,-0.038,-0.071
19.79,-0.347,-0.06,-0.012
19.8,-0.396,-0.038,0.096
19.81,-0.285,0.129,0.071
19.82,-0.266,0.31,0.01
19.83,-0.203,0.197,-0.057
19.84,-0.045,0.019,-0.108
19.85,-0.073,-0.171,-0.054
19.86,-0.125,-0.427,0.129
19.87,-0.244,-0.215,0.276
19.88,-0.296,0.053,0.301
19.89,-0.274,0.156,0.128
19.9,-0.273,0.263,-0.111
19.91,-0.247,0.075,-0.187
19.92,-0.358,-0.097,-0.091
19.93,-0.443,-0.009,0.018
19.94,-0.336,0.029,0.065
19.95,-0.144,0.105,-0.007
19.96,-0.119,0.152,-0.03
19.97,-0.096,-0.0,-0.851
19.98,-0.107,-0.111,0.138
19.99,-0.257,-0.146,0.183
20.0,-0.26,-0.177,0.098
20.01,-0.246,0.023,-0.011
20.02,-0.338,0.157,-0.009
20.03,-0.0,-0.0,-0.831
20.04,-0.089,-0.02,0.033
20.05,-0.069,0.108,0.052
20.06,-0.059,0.051,0.131
20.07,-0.123,0.138,0.187
20.08,-0.375,-0.012,0.134
20.09,-0.371,-0.125,0.036
20.1,-0.449,-0.094,-0.078
20.11,-0.475,-0.04,0.012
20.12,-0.296,0.17,-0.021
20.13,-0.206,0.194,0.001
20.14,-0.196,0.172,0.001
20.15,-0.094,0.151,-0.044
20.16,-0.071,-0.044,0.044
20.17,-0.001,-0.095,0.044
20.18,-0.155,-0.054,0.104
20.19,-0.256,0.018,0.174
20.2,-0.342,0.031,0.129
20.21,-0.403,0.05,0.019
20.22,-0.306,-0.118,-0.07
20.23,-0.329,-0.207,-0.031
20.24,-0.309,-0.037,0.096
20.25,-0.268,0.184,0.128
20.26,-0.234,0.28,0.051
20.27,-0.175,0.392,-0.133
20.28,-0.053,0.03,-0.15
20.29,-0.042,-0.183,-0.104
20.3,-0.169,-0.289,0.057
20.31,-0.344,-0.298,0.318
20.32,-0.331,0.048,0.322
20.33,-0.28,0.173,0.133
20.34,-0.268,0.157,-0.085
20.35,-0.178,0.01,-0.154
20.36,-0.282,-0.066,-0.091
20.37,-0.315,-0.079,-0.017
20.38,-0.307,0.111,0.039
20.39,-0.243,0.145,0.037
20.4,-0.105,0.262,-0.053
20.41,-0.156,0.187,0.045
20.42,-0.175,-0.102,0.126
20.43,-0.243,-0.181,0.132
20.44,-0.345,-0.308,0.122
20.45,-0.228,-0.131,-0.007
20.46,-0.254,0.078,-0.041
20.47,-0.229,0.227,0.024
20.48,-0.274,0.089,0.02
20.49,-0.342,0.123,0.079
20.5,-0.267,-0.092,0.026
20.51,-0.219,-0.036,-0.017
20.52,-0.208,0.133,-0.015
20.53,-0.152,0.112,0.017
20.54,-0.208,0.174,0.007
20.55,-0.165,-0.016,-0.024
20.56,-0.217,-0.284,0.077
20.57,-0.262,-0.194,0.112
20.58,-0.249,-0.109,0.129
20.59,-0.339,-0.045,0.093
20.6,-0.267,0.251,0.0
20.61,-0.223,0.204,-0.033
20.62,-0.27,0.123,-0.068
20.63,-0.203,0.052,-0.088
20.64,-0.195,-0.098,-0.003
20.65,-0.123,-0.007,0.021
20.66,-0.227,0.07,0.072
20.67,-0.233,-0.097,0.153
20.68,-0.225,0.054,0.089
20.69,-0.279,-0.056,0.067
20.7,-0.27,-0.202,0.014
20.71,-0.302,0.02,-0.034
20.72,-0.339,0.128,0.012
20.73,-0.189,0.232,-0.049
20.74,-0.216,0.246,-0.039
20.75,-0.238,0.074,-0.006
20.76,-0.238,0.077,0.014
20.77,-0.206,-0.154,0.05
20.78,-0.188,-0.172,0.06
20.79,-0.296,-0.073,0.088
20.8,-0.214,-0.065,0.097
20.81,-0.157,0.073,0.038
20.82,-0.198,0.088,-0.04
20.83,-0.196,-0.035,-0.063
20.84,-0.26,-0.077,-0.002
20.85,-0.314,0.133,0.096
20.86,-0.354,0.156,0.099
20.87,-0.333,0.25,-0.865
20.88,-0.215,0.257,-0.129
20.89,-0.171,-0.102,-0.141
20.9,-0.168,-0.247,-0.045
20.91,-0.091,-0.319,0.105
20.92,-0.163,-0.217,0.314
20.93,-0.133,0.067,0.244
20.94,-0.203,0.227,0.06
20.95,-0.281,0.148,-0.103
20.96,-0.249,0.109,-0.182
20.97,-0.413,-0.062,-0.044
20.98,-0.449,-0.056,0.02
20.99,-0.348,0.1,0.057
21.0,-0.284,0.096,0.017
21.01,-0.116,0.125,0.005
21.02,-0.107,0.039,0.058
21.03,-0.0,-0.0,-0.843
21.04,-0.367,0.201,-0.047
21.05,-0.297,0.237,-0.11
21.06,-0.322,0.116,-0.054
21.07,-0.282,-0.038,-0.031
21.08,-0.223,-0.06,-0.008
21.09,-0.078,-0.174,0.051
21.1,-0.095,-0.037,0.092
21.11,-0.162,0.072,0.165
21.12,-0.147,-0.019,0.17
21.13,-0.206,0.106,0.043
21.14,-0.344,-0.045,-0.009
21.15,-0.367,-0.037,-0.068
21.16,-0.367,0.105,-0.024
21.17,-0.317,0.21,-0.038
21.18,-0.297,0.115,-0.027
21.19,-0.337,0.094,-0.007
21.2,-0.178,-0.04,0.008
21.21,-0.115,-0.086,0.049
21.22,-0.09,-0.103,0.113
21.23,-0.104,-0.023,0.086
21.24,-0.136,0.016,0.097
21.25,-0.17,0.169,0.073
21.26,-0.263,0.027,0.031
21.27,-0.326,0.008,-0.056
21.28,-0.35,-0.227,-0.054
21.29,-0.369,0.003,-0.011
21.3,-0.403,0.16,0.087
21.31,-0.386,0.203,0.107
21.32,-0.212,0.289,-0.048
21.33,-0.062,0.166,-0.158
21.34,0.061,-0.294,-0.064
21.35,0.011,-0.334,0.03
21.36,-0.182,-0.2,0.258
21.37,-0.291,-0.077,0.377
21.38,-0.309,0.325,0.147
21.39,-0.326,0.191,-0.114
21.4,-0.395,0.02,-0.216
21.41,-0.441,-0.061,-0.125
21.42,-0.463,-0.088,0.031
21.43,-0.234,0.014,0.033
21.44,-0.159,0.177,-0.05
21.45,-0.035,0.177,-0.023
21.46,0.039,0.099,0.03
21.47,-0.099,0.057,0.165
21.48,-0.226,-0.256,0.2
21.49,-0.0,-0.0,-0.846
21.5,-0.187,0.333,-0.082
21.51,-0.21,0.028,-0.035
21.52,-0.193,0.027,-0.041
21.53,-0.117,-0.039,-0.038
21.54,-0.118,-0.072,0.084
21.55,-0.189,0.094,0.151
21.56,-0.241,0.06,0.179
21.57,-0.277,-0.043,0.081
21.58,-0.31,-0.088,-0.018
21.59,-0.365,-0.096,-0.021
21.6,-0.306,-0.03,0.012
21.61,-0.317,0.146,-0.004
21.62,-0.251,0.199,-0.048
21.63,-0.188,0.189,-0.093
21.64,-0.19,0.145,-0.04
21.65,-0.0,-0.0,-0.838
21.66,-0.194,0.088,0.155
21.67,-0.295,0.244,-0.044
21.68,-0.261,0.058,-0.119
21.69,-0.257,-0.017,-0.151
21.7,-0.33,0.022,-0.066
21.71,-0.279,0.057,0.016
21.72,-0.231,0.151,0.046
21.73,-0.156,0.302,0.04
21.74,-0.09,0.128,0.016
21.75,-0.228,-0.119,0.1
21.76,-0.271,-0.254,0.123
21.77,-0.31,-0.32,0.163
21.78,-0.274,-0.156,0.096
21.79,-0.204,-0.052,0.051
21.8,-0.238,0.276,0.001
21.81,-0.232,0.206,-0.002
21.82,-0.309,0.094,-0.85
21.83,-0.281,0.071,-0.079
21.84,-0.252,0.038,-0.088
21.85,-0.275,-0.016,0.018
21.86,-0.249,0.197,-0.017
21.87,-0.231,0.07,0.082
21.88,-0.074,-0.117,0.064
21.89,-0.075,-0.184,0.077
21.9,-0.226,-0.317,0.23
21.91,-0.203,-0.073,0.219
21.92,-0.273,0.125,0.056
21.93,-0.374,0.111,0.01
21.94,-0.278,0.303,-0.141
21.95,-0.35,0.172,-0.142
21.96,-0.269,-0.067,-0.04
21.97,-0.211,-0.002,-0.033
21.98,-0.201,-0.065,0.053
21.99,-0.138,-0.119,0.123
22.0,-0.023,0.123,0.135
22.01,-0.115,0.086,0.145
22.02,-0.291,-0.036,0.11
22.03,-0.284,-0.031,0.033
22.04,-0.343,-0.092,0.0
22.05,-0.447,0.037,-0.001
22.06,-0.246,0.184,-0.046
22.07,-0.212,0.162,-0.081
22.08,-0.329,0.126,0.015
22.09,-0.263,0.024,0.056
22.1,-0.057,-0.1,-0.001
22.11,-0.086,-0.123,0.023
22.12,-0.146,-0.076,0.087
22.13,-0.114,0.045,0.081
22.14,-0.298,0.109,0.144
22.15,-0.278,0.002,0.062
22.16,-0.177,-0.0,-0.853
22.17,-0.373,-0.138,-0.032
22.18,-0.363,-0.058,0.057
22.19,-0.34,0.297,0.044
22.2,-0.393,0.265,0.077
22.21,-0.232,0.25,-0.846
22.22,0.026,0.036,-0.165
22.23,-0.043,-0.316,-0.011
22.24,-0.08,-0.384,0.159
22.25,-0.223,-0.208,0.324
22.26,-0.242,0.107,0.313
22.27,-0.224,0.282,0.069
22.28,-0.314,0.295,-0.091
22.29,-0.31,-0.033,-0.145
22.3,-0.408,-0.144,-0.1
22.31,-0.376,-0.018,0.022
22.32,-0.334,-0.047,0.038
22.33,-0.245,0.205,0.075
22.34,-0.08,0.161,-0.015
22.35,-0.045,0.155,0.074
22.36,-0.11,-0.078,0.135
22.37,-0.221,-0.251,0.125
22.38,-0.24,-0.182,0.086
22.39,-0.201,-0.04,0.03
22.4,-0.352,0.077,0.108
22.41,-0.299,0.235,-0.013
22.42,-0.384,0.131,-0.05
22.43,-0.359,-0.059,-0.073
22.44,-0.238,-0.028,-0.093
22.45,-0.265,-0.045,0.017
22.46,-0.153,0.011,0.049
22.47,-0.012,0.254,0.054
22.48,-0.115,0.088,0.113
22.49,-0.131,-0.124,0.103
22.5,-0.198,-0.095,0.159
22.51,-0.282,-0.217,0.162
22.52,-0.301,-0.074,0.005
22.53,-0.491,0.031,-0.051
22.54,-0.395,0.101,-0.064
22.55,-0.291,0.262,-0.054
22.56,-0.15,0.047,-0.003
22.57,-0.124,-0.104,-0.023
22.58,-0.134,-0.019,0.023
22.59,-0.05,-0.034,0.101
22.6,-0.15,0.099,0.147
22.61,-0.228,0.151,0.139
22.62,-0.236,0.039,0.073
22.63,-0.395,-0.062,-0.018
22.64,-0.424,-0.105,-0.089
22.65,-0.363,-0.123,-0.015
22.66,-0.268,0.052,0.029
22.67,-0.209,0.154,0.002
22.68,-0.193,0.134,-0.028
22.69,-0.158,0.192,-0.038
22.7,-0.117,0.128,0.004
22.71,-0.151,-0.052,0.083
22.72,-0.171,-0.108,0.093
22.73,-0.228,-0.095,0.125
22.74,-0.23,-0.031,0.12
22.75,-0.321,0.05,0.043
22.76,-0.0,-0.0,-0.842
22.77,-0.243,0.115,0.079
22.78,-0.16,0.273,0.054
22.79,-0.086,0.146,0.078
22.8,-0.206,-0.005,0.112
22.81,-0.26,-0.198,0.043
22.82,-0.297,-0.376,0.075
22.83,-0.289,-0.113,0.019
22.84,-0.261,0.033,0.012
22.85,-0.255,0.169,0.047
22.86,-0.236,0.34,-0.044
22.87,-0.268,0.156,-0.003
22.88,-0.232,-0.019,-0.062
22.89,-0.212,-0.015,-0.036
22.9,-0.228,-0.079,0.084
22.91,-0.199,0.101,0.115
22.92,-0.217,0.131,0.09
22.93,-0.244,-0.134,0.041
22.94,-0.242,-0.219,0.014
22.95,-0.262,-0.225,0.063
22.96,-0.197,-0.16,0.125
22.97,-0.295,0.12,0.066
22.98,-0.297,0.271,-0.027
22.99,-0.135,0.239,-0.117
23.0,-0.0,-0.0,-0.842
23.01,-0.152,-0.199,0.119
23.02,-0.067,-0.043,0.123
23.03,-0.268,0.128,0.122
23.04,-0.256,0.174,0.031
23.05,-0.236,-0.034,-0.079
23.06,-0.359,-0.013,-0.107
23.07,-0.387,0.032,0.015
23.08,-0.373,0.135,0.094
23.09,-0.299,0.32,0.037
23.1,-0.21,0.167,-0.065
23.11,-0.089,-0.044,-0.077
23.12,-0.051,-0.295,-0.024
23.13,-0.049,-0.411,0.152
23.14,-0.162,-0.177,0.255
23.15,-0.275,0.131,0.21
23.16,-0.293,0.193,0.04
23.17,-0.279,0.282,-0.126
23.18,-0.319,0.054,-0.176
23.19,-0.37,-0.13,-0.082
23.2,-0.343,-0.049,-0.001
23.21,-0.357,0.038,0.095
23.22,-0.209,0.173,0.075
23.23,-0.095,0.205,0.021
23.24,-0.097,-0.003,0.079
23.25,-0.107,-0.174,0.084
23.26,-0.263,-0.237,0.103
23.27,-0.324,-0.281,-0.859
23.28,-0.196,0.013,-0.009
23.29,-0.339,0.301,0.06
23.3,-0.267,0.223,-0.016
23.31,-0.31,0.268,-0.026
23.32,-0.335,-0.013,-0.065
23.33,-0.266,-0.148,-0.076
23.34,-0.293,-0.081,0.009
23.35,-0.163,-0.053,0.076
23.36,-0.082,0.167,0.081
23.37,-0.106,0.149,0.056
23.38,-0.106,-0.122,0.074
23.39,-0.203,-0.152,0.11
23.4,-0.274,-0.126,0.148
23.41,-0.3,-0.112,0.068
23.42,-0.432,0.146,-0.019
23.43,-0.29,0.241,-0.135
23.44,-0.297,0.178,-0.084
23.45,-0.345,0.128,-0.0
23.46,-0.2,-0.147,0.038
23.47,-0.124,-0.129,0.017
23.48,-0.035,-0.043,0.043
23.49,-0.078,0.048,0.115
23.5,-0.126,0.168,0.17
23.51,-0.223,0.068,0.134
23.52,-0.336,-0.057,0.028
23.53,-0.395,-0.178,-0.04
23.54,-0.409,-0.04,-0.035
23.55,-0.411,0.019,-0.005
23.56,-0.297,0.223,-0.043
23.57,-0.26,0.199,-0.017
23.58,-0.164,0.162,-0.057
23.59,-0.159,-0.116,0.041
23.6,-0.153,-0.027,0.035
23.61,-0.209,0.033,0.055
23.62,-0.192,0.007,0.094
23.63,-0.226,0.046,0.092
23.64,-0.373,-0.081,0.048
23.65,-0.314,-0.197,-0.006
23.66,-0.257,-0.041,-0.051
23.67,-0.325,0.103,0.048
23.68,-0.219,0.214,0.019
23.69,-0.174,0.272,-0.053
23.7,-0.241,0.194,-0.032
23.71,-0.181,0.065,-0.012
23.72,-0.178,-0.062,0.022
23.73,-0.198,-0.242,0.059
23.74,-0.278,-0.132,0.086
23.75,-0.238,-0.006,0.096
23.76,-0.213,-0.056,0.106
23.77,-0.201,0.208,0.002
23.78,-0.192,-0.057,-0.064
23.79,-0.288,-0.175,-0.042
23.8,-0.274,0.122,0.045
23.81,-0.255,0.117,0.1
23.82,-0.416,0.322,0.072
23.83,-0.278,0.255,-0.116
23.84,-0.156,-0.015,-0.143
23.85,-0.154,-0.251,-0.069
23.86,-0.173,-0.299,0.088
23.87,-0.198,-0.364,0.262
23.88,-0.135,0.088,0.208
23.89,-0.147,0.219,-0.866
23.9,-0.261,0.165,-0.042
23.91,-0.253,0.143,-0.135
23.92,-0.348,-0.095,-0.072
23.93,-0.402,-0.075,-0.003
23.94,-0.35,0.1,-0.005
23.95,-0.319,0.112,0.089
23.96,-0.128,0.266,-0.033
23.97,-0.114,0.093,0.013
23.98,-0.148,-0.185,0.106
23.99,-0.101,-0.251,0.08
24.0,-0.316,-0.186,0.121
24.01,-0.184,-0.098,0.072
24.02,-0.26,0.191,0.026
24.03,-0.273,0.322,-0.044
24.04,-0.323,0.139,-0.042
24.05,-0.415,0.046,0.008
24.06,-0.259,-0.058,-0.043
24.07,-0.265,-0.115,0.005
24.08,-0.208,0.074,0.032
24.09,-0.203,0.125,0.057
24.1,-0.142,0.012,0.079
24.11,-0.072,-0.05,0.017
24.12,-0.2,-0.293,0.119
24.13,-0.233,-0.155,0.072
24.14,-0.242,-0.037,0.042
24.15,-0.365,0.091,0.056
24.16,-0.274,0.321,-0.071
24.17,-0.312,0.24,-0.063
24.18,-0.265,0.006,-0.087
24.19,-0.24,-0.019,-0.095
24.2,-0.236,-0.129,0.069
24.21,-0.12,-0.109,0.089
24.22,-0.133,0.074,0.077
24.23,-0.166,-0.0,-0.862
24.24,-0.117,0.099,0.076
24.25,-0.32,0.042,0.049
24.26,-0.354,-0.152,0.016
24.27,-0.321,0.067,-0.013
24.28,-0.399,0.094,-0.03
24.29,-0.261,0.101,-0.04
24.3,-0.276,0.18,-0.018
24.31,-0.251,0.093,0.007
24.32,-0.191,-0.005,0.041
24.33,-0.071,-0.1,0.021
24.34,-0.052,-0.156,-0.855
24.35,-0.213,-0.031,0.154
24.36,-0.203,0.093,0.164
24.37,-0.215,0.017,0.088
24.38,-0.0,-0.0,-0.835
24.39,-0.107,0.197,0.052
24.4,-0.045,0.134,0.004
24.41,-0.011,0.073,0.052
24.42,-0.116,-0.028,0.203
24.43,-0.28,-0.301,0.177
24.44,-0.45,-0.126,0.132
24.45,-0.275,-0.094,-0.848
24.46,-0.325,0.139,0.002
24.47,-0.335,0.306,-0.03
24.48,-0.313,0.041,-0.031
24.49,-0.262,-0.003,-0.049
24.5,-0.194,-0.044,-0.034
24.51,-0.203,-0.105,0.086
24.52,-0.115,0.153,0.07
24.53,-0.149,0.212,0.075
24.54,-0.187,0.051,0.069
24.55,-0.105,-0.015,0.011
24.56,-0.0,-0.0,-0.826
24.57,-0.22,0.097,-0.019
24.58,-0.202,0.294,-0.056
24.59,-0.163,0.135,-0.021
24.6,-0.073,0.008,0.054
24.61,-0.12,-0.04,0.089
24.62,-0.185,-0.19,0.169
24.63,-0.252,-0.043,0.165
24.64,-0.266,0.046,0.095
24.65,-0.329,-0.049,0.101
24.66,-0.312,-0.019,-0.014
24.67,-0.24,-0.075,-0.094
24.68,-0.306,-0.157,-0.003
24.69,-0.282,0.156,0.057
24.7,-0.237,0.374,0.056
24.71,-0.268,0.312,0.033
24.72,-0.14,0.247,-0.092
24.73,-0.055,-0.119,-0.108
24.74,-0.131,-0.439,0.068
24.75,-0.196,-0.313,0.27
24.76,-0.386,-0.214,0.4
24.77,-0.311,0.118,0.197
24.78,-0.25,0.188,-0.071
24.79,-0.225,0.125,-0.166
24.8,-0.228,0.015,-0.167
24.81,-0.389,-0.028,-0.006
24.82,-0.268,0.045,0.046
24.83,-0.217,0.158,0.001
24.84,-0.241,0.189,0.03
24.85,-0.091,0.088,0.034
24.86,-0.143,0.04,0.108
24.87,-0.287,-0.247,0.177
24.88,-0.35,-0.293,0.123
24.89,-0.259,-0.119,0.082
24.9,-0.184,-0.048,0.015
24.91,-0.239,0.223,-0.005
24.92,-0.24,0.245,-0.053
24.93,-0.3,0.049,0.003
24.94,-0.301,0.083,-0.048
24.95,-0.269,0.046,-0.037
24.96,-0.283,-0.029,0.042
24.97,-0.197,0.222,0.035
24.98,-0.146,0.13,0.016
24.99,-0.09,-0.05,0.04
25.0,-0.146,-0.235,0.076
25.01,-0.24,-0.345,0.18
25.02,-0.199,-0.204,0.175
25.03,-0.333,0.049,0.114
25.04,-0.417,0.157,0.043
25.05,-0.265,0.253,-0.118
25.06,-0.287,0.29,-0.103
25.07,-0.262,-0.033,-0.068
25.08,-0.213,-0.056,-0.038
25.09,-0.128,-0.03,-0.049
25.1,-0.081,-0.111,0.061
25.11,-0.126,0.114,0.124
25.12,-0.151,0.081,0.186
25.13,-0.269,-0.062,0.131
25.14,-0.306,-0.033,0.027
25.15,-0.346,-0.138,-0.004
25.16,-0.372,0.045,-0.024
25.17,-0.312,0.193,-0.039
25.18,-0.215,0.187,-0.035
25.19,-0.0,-0.0,-0.839
25.2,-0.147,-0.142,0.314
25.21,-0.17,0.101,0.325
25.22,-0.154,0.247,0.059
25.23,-0.303,0.208,-0.109
25.24,-0.292,-0.012,-0.171
25.25,-0.41,-0.034,-0.113
25.26,-0.493,0.03,0.013
25.27,-0.371,0.005,0.017
25.28,-0.233,0.227,-0.033
25.29,-0.074,0.136,0.024
25.3,0.001,-0.005,0.067
25.31,-0.09,-0.013,0.162
25.32,-0.232,-0.303,0.176
25.33,-0.231,-0.109,0.096
25.34,-0.185,-0.029,-0.02
25.35,-0.325,0.037,0.029
25.36,-0.316,0.262,-0.015
25.37,-0.376,0.076,-0.0
25.38,-0.424,-0.064,-0.017
25.39,-0.28,0.013,-0.1
25.4,-0.249,0.029,0.019
25.41,-0.14,0.076,0.004
25.42,-0.095,0.187,0.023
25.43,-0.045,0.013,0.065
25.44,-0.113,-0.153,0.063
25.45,-0.241,-0.169,0.164
25.46,-0.222,-0.191,0.187
25.47,-0.305,0.024,0.052
25.48,-0.406,0.148,-0.013
25.49,-0.349,0.115,-0.1
25.5,-0.297,0.184,-0.094
25.51,-0.285,0.094,-0.073
25.52,-0.164,-0.13,-0.02
25.53,-0.129,-0.038,-0.002
25.54,-0.107,0.016,0.083
25.55,-0.112,0.042,0.14
25.56,-0.138,0.125,0.124
25.57,-0.262,0.013,0.124
25.58,-0.285,-0.078,0.018
25.59,-0.382,-0.081,-0.045
25.6,-0.407,-0.066,-0.018
25.61,-0.296,0.062,-0.017
25.62,-0.278,0.179,-0.002
25.63,-0.208,0.094,-0.034
25.64,-0.229,0.152,-0.022
25.65,-0.213,0.003,0.021
25.66,-0.071,-0.048,0.0
25.67,-0.176,-0.106,0.059
25.68,-0.199,-0.011,0.156
25.69,-0.213,0.05,0.088
25.7,-0.317,0.049,0.064
25.71,-0.24,-0.044,-0.037
25.72,-0.263,-0.147,-0.042
25.73,-0.368,-0.01,-0.007
25.74,-0.304,-0.044,0.057
25.75,-0.282,0.291,0.029
25.76,-0.254,0.399,-0.085
25.77,-0.189,0.161,-0.145
25.78,-0.01,-0.044,-0.169
25.79,-0.056,-0.375,0.025
25.8,-0.153,-0.336,0.272
25.81,-0.302,-0.078,0.414
25.82,-0.31,0.093,0.24
25.83,-0.282,0.25,-0.869
25.84,-0.295,0.132,-0.218
25.85,-0.343,-0.081,-0.137
25.86,-0.333,-0.156,-0.05
25.87,-0.341,0.079,0.032
25.88,-0.208,0.027,0.015
25.89,-0.052,0.284,-0.017
25.9,-0.059,0.204,0.039
25.91,-0.166,0.02,0.149
25.92,-0.225,-0.137,0.143
25.93,-0.378,-0.307,0.112
25.94,-0.372,-0.169,0.011
25.95,-0.272,-0.01,-0.012
25.96,-0.333,0.106,0.035
25.97,-0.205,0.184,-0.052
25.98,-0.23,0.165,-0.049
25.99,-0.237,-0.035,-0.013
26.0,-0.149,0.032,-0.094
26.01,-0.183,0.113,0.025
26.02,-0.156,0.149,0.046
26.03,-0.189,0.203,-0.005
26.04,-0.235,-0.045,0.057
26.05,-0.2,-0.24,0.034
26.06,-0.328,-0.227,0.149
26.07,-0.332,-0.265,0.151
26.08,-0.204,-0.027,0.032
26.09,-0.346,0.206,-0.017
26.1,-0.219,0.23,-0.062
26.11,-0.178,0.16,-0.082
26.12,-0.211,0.187,-0.053
26.13,-0.156,-0.136,0.007
26.14,-0.194,-0.001,0.019
26.15,-0.25,-0.041,0.041
26.16,-0.212,-0.032,0.092
26.17,-0.232,0.06,0.108
26.18,-0.341,-0.049,0.06
26.19,-0.298,-0.122,-0.011
26.2,-0.25,-0.023,-0.076
26.21,-0.268,0.096,0.014
26.22,-0.227,0.156,0.026
26.23,-0.238,0.246,-0.011
26.24,-0.201,0.101,-0.058
26.25,-0.216,0.08,-0.043
26.26,-0.243,-0.044,0.013
26.27,-0.2,-0.094,0.024
26.28,-0.207,-0.075,0.065
26.29,-0.225,-0.023,0.075
26.3,-0.172,-0.031,0.099
26.31,-0.242,0.035,0.072
26.32,-0.161,-0.087,-0.02
26.33,-0.203,-0.088,-0.053
26.34,-0.362,0.027,0.008
26.35,-0.335,0.161,0.054
26.36,-0.0,-0.0,-0.852
26.37,-0.163,-0.186,0.1
26.38,-0.29,-0.245,0.063
26.39,-0.173,-0.061,-0.01
26.4,-0.269,0.112,0.01
26.41,-0.286,0.25,-0.86
26.42,-0.306,0.165,0.022
26.43,-0.431,0.117,-0.008
26.44,-0.23,-0.087,-0.116
26.45,-0.282,0.073,-0.069
26.46,-0.223,0.022,0.054
26.47,-0.13,0.119,0.05
26.48,-0.051,0.041,0.078
26.49,-0.034,-0.225,0.061
26.5,-0.156,-0.211,0.146
26.51,-0.26,-0.145,0.215
26.52,-0.292,-0.041,0.111
26.53,-0.448,0.172,-0.0
26.54,-0.358,0.223,-0.125
26.55,-0.32,0.147,-0.104
26.56,-0.298,0.088,-0.102
26.57,-0.225,-0.086,-0.037
26.58,-0.167,-0.125,-0.853
26.59,-0.003,-0.003,0.056
26.6,-0.1,0.037,0.169
26.61,-0.162,0.05,0.192
26.62,-0.126,0.095,0.087
26.63,-0.381,-0.078,0.1
26.64,-0.393,-0.044,-0.059
26.65,-0.377,0.021,-0.044
26.66,-0.395,0.062,0.013
26.67,-0.307,0.188,-0.081
26.68,-0.262,0.119,-0.037
26.69,-0.189,0.09,-0.019
26.7,-0.155,0.047,0.049
26.71,-0.096,-0.049,0.08
26.72,-0.037,-0.132,0.077
26.73,-0.183,-0.072,0.139
26.74,-0.177,-0.035,0.143
26.75,-0.312,0.028,0.092
26.76,-0.343,0.08,0.029
26.77,-0.264,-0.063,-0.065
26.78,-0.406,-0.037,-0.072
26.79,-0.413,0.091,-0.007
26.8,-0.303,0.089,0.034
26.81,-0.263,0.33,-0.02
26.82,-0.093,0.229,-0.103
26.83,-0.006,-0.115,-0.097
26.84,-0.015,-0.214,-0.016
26.85,-0.061,-0.353,0.187
26.86,-0.288,-0.216,0.368
26.87,-0.28,0.185,0.248
26.88,-0.313,0.126,0.061
26.89,-0.379,0.234,-0.113
26.9,-0.333,0.02,-0.237
26.91,-0.456,-0.172,-0.072
26.92,-0.345,-0.105,-0.027
26.93,-0.167,0.132,0.007
26.94,-0.165,0.138,0.05
26.95,-0.021,0.308,-0.037
26.96,-0.042,0.089,0.087
26.97,-0.154,-0.134,0.165
26.98,-0.311,-0.267,0.11
26.99,-0.362,-0.267,0.096
27.0,-0.27,0.007,0.001
27.01,-0.383,0.173,0.004
27.02,-0.337,0.183,-0.019
27.03,-0.304,0.066,-0.104
27.04,-0.258,0.109,-0.065
27.05,-0.15,-0.105,-0.069
27.06,-0.199,0.087,0.026
27.07,-0.149,0.099,0.101
27.08,-0.074,0.071,0.045
27.09,-0.174,0.063,0.096
27.1,-0.192,-0.22,0.155
27.11,-0.266,-0.167,0.112
27.12,-0.338,-0.111,0.032
27.13,-0.352,-0.136,-0.0
27.14,-0.374,0.193,-0.064
27.15,-0.233,0.259,-0.11
27.16,-0.252,0.133,-0.056
27.17,-0.156,0.072,-0.059
27.18,-0.082,0.022,0.012
27.19,-0.175,-0.109,0.076
27.2,-0.171,0.025,0.097
27.21,-0.129,0.083,0.115
27.22,-0.25,0.004,0.12
27.23,-0.373,0.009,0.025
27.24,-0.393,-0.183,0.004
27.25,-0.384,-0.12,-0.045
27.26,-0.29,0.002,-0.001
27.27,-0.192,0.154,-0.016
27.28,-0.166,0.228,-0.046
27.29,-0.242,0.278,-0.028
27.3,-0.157,0.08,-0.019
27.31,-0.172,-0.014,0.007
27.32,-0.204,-0.148,0.034
27.33,-0.194,-0.16,0.079
27.34,-0.273,-0.022,0.116
27.35,-0.322,0.019,0.16
27.36,-0.295,0.029,0.026
27.37,-0.159,-0.034,-0.085
27.38,-0.206,-0.172,-0.073
27.39,-0.24,0.039,-0.039
27.4,-0.264,0.279,0.045
27.41,-0.316,0.325,0.026
27.42,-0.256,0.344,-0.866
27.43,-0.145,0.078,-0.108
27.44,-0.128,-0.275,-0.036
27.45,-0.178,-0.427,0.111
27.46,-0.321,-0.264,0.302
27.47,-0.281,-0.134,0.313
27.48,-0.204,0.299,0.086
27.49,-0.191,0.151,-0.115
27.5,-0.206,0.12,-0.18
27.51,-0.26,0.06,-0.134
27.52,-0.362,-0.169,0.021
27.53,-0.309,0.094,-0.86
27.54,-0.268,0.09,0.032
27.55,-0.168,0.273,0.026
27.56,-0.17,0.169,0.067
27.57,-0.283,-0.106,0.103
27.58,-0.2,-0.297,0.047
27.59,-0.265,-0.267,0.084
27.6,-0.233,-0.144,0.076
27.61,-0.238,0.047,0.067
27.62,-0.243,0.327,0.013
27.63,-0.228,0.247,0.003
27.64,-0.308,0.123,-0.073
27.65,-0.299,0.034,-0.108
27.66,-0.219,-0.17,-0.044
27.67,-0.196,0.098,0.007
27.68,-0.239,0.185,0.057
27.69,-0.191,-0.005,0.078
27.7,-0.128,0.062,0.019
27.71,-0.137,-0.265,0.105
27.72,-0.23,-0.292,0.159
27.73,-0.303,-0.081,0.129
27.74,-0.321,0.063,0.075
27.75,-0.317,0.183,0.016
27.76,-0.26,0.332,-0.089
27.77,-0.18,0.045,-0.093
27.78,-0.24,0.01,-0.054
27.79,-0.26,-0.064,-0.027
27.8,-0.205,-0.19,0.031
27.81,-0.207,0.06,0.052
27.82,-0.168,0.078,0.142
27.83,-0.185,0.042,0.136
27.84,-0.232,0.046,0.05
27.85,-0.254,-0.07,-0.007
27.86,-0.263,-0.041,-0.02
27.87,-0.366,0.085,0.031
27.88,-0.304,0.149,-0.018
27.89,-0.257,0.151,-0.094
27.9,-0.311,0.125,-0.072
27.91,-0.26,0.015,0.011
27.92,-0.185,-0.076,0.035
27.93,-0.133,-0.083,0.059
27.94,-0.104,-0.186,0.073
27.95,-0.058,0.01,0.096
27.96,-0.185,0.107,0.141
27.97,-0.285,0.084,0.039
27.98,-0.303,0.062,-0.077
27.99,-0.348,-0.093,-0.049
28.0,-0.403,0.004,-0.013
28.01,-0.386,0.141,0.045
28.02,-0.348,0.113,0.046
28.03,-0.178,0.24,-0.092
28.04,-0.03,0.056,-0.14
28.05,-0.035,-0.239,-0.039
28.06,-0.047,-0.24,0.089
28.07,-0.139,-0.198,0.226
28.08,-0.272,-0.011,0.254
28.09,-0.272,0.214,0.094
28.1,-0.404,0.214,-0.031
28.11,-0.339,0.033,-0.147
28.12,-0.377,-0.059,-0.128
28.13,-0.425,-0.142,-0.045
28.14,-0.272,-0.029,0.001
28.15,-0.197,0.241,0.029
28.16,-0.035,0.195,0.011
28.17,-0.022,0.164,0.018
28.18,-0.12,-0.072,0.099
28.19,-0.163,-0.263,0.068
28.2,-0.315,-0.198,0.078
28.21,-0.356,-0.078,0.081
28.22,-0.359,0.13,0.031
28.23,-0.378,0.3,-0.012
28.24,-0.332,0.181,-0.1
28.25,-0.283,-0.024,-0.077
28.26,-0.274,-0.064,-0.064
28.27,-0.115,-0.231,0.01
28.28,-0.111,0.086,0.047
28.29,-0.13,0.132,0.086
28.3,-0.17,0.058,0.078
28.31,-0.097,0.035,-0.009
28.32,-0.227,-0.127,0.063
28.33,-0.389,-0.188,0.116
28.34,-0.347,-0.024,0.022
28.35,-0.37,0.012,-0.025
28.36,-0.282,0.16,-0.089
28.37,-0.244,0.247,-0.059
28.38,-0.249,-0.098,0.011
28.39,-0.12,-0.017,-0.046
28.4,-0.131,0.001,0.013
28.41,-0.135,-0.1,0.032
28.42,-0.13,0.102,0.053
28.43,-0.183,0.118,0.105
28.44,-0.206,0.066,0.082
28.45,-0.402,0.004,0.01
28.46,-0.425,-0.217,-0.039
28.47,-0.327,-0.055,-0.038
28.48,-0.337,0.098,-0.015
28.49,-0.28,0.146,-0.017
28.5,-0.183,0.179,-0.071
28.51,-0.178,0.261,-0.029
28.52,-0.099,0.002,0.027
28.53,-0.067,-0.107,0.009
28.54,-0.122,-0.21,0.006
28.55,-0.208,-0.158,0.134
28.56,-0.275,0.089,0.156
28.57,-0.355,0.114,0.092
28.58,-0.399,0.071,-0.052
28.59,-0.283,-0.042,-0.184
28.6,-0.298,-0.132,-0.087
28.61,-0.282,-0.034,0.007
28.62,-0.214,0.237,0.045
28.63,-0.22,0.285,0.053
28.64,-0.093,0.245,-0.07
28.65,-0.026,-0.026,-0.135
28.66,-0.099,-0.378,0.032
28.67,-0.141,-0.289,0.125
28.68,-0.383,-0.196,0.317
28.69,-0.39,0.041,0.17
28.7,-0.28,0.299,-0.069
28.71,-0.305,0.208,-0.174
28.72,-0.234,0.033,-0.17
28.73,-0.298,-0.141,-0.056
28.74,-0.285,0.007,-0.008
28.75,-0.215,0.005,0.045
28.76,-0.186,0.236,0.032
28.77,-0.05,0.241,0.029
28.78,-0.12,0.123,0.059
28.79,-0.267,-0.15,0.088
28.8,-0.299,-0.373,0.024
28.81,-0.359,-0.226,0.011
28.82,-0.284,-0.071,0.015
28.83,-0.302,0.142,0.039
28.84,-0.235,0.343,-0.068
28.85,-0.236,0.176,-0.036
28.86,-0.274,-0.036,-0.033
28.87,-0.198,-0.006,-0.056
28.88,-0.203,-0.168,0.027
28.89,-0.201,0.115,0.046
28.9,-0.218,0.273,0.063
28.91,-0.16,0.006,0.024
28.92,-0.163,-0.045,-0.043
28.93,-0.238,-0.214,0.008
28.94,-0.27,-0.293,0.112
28.95,-0.217,-0.066,0.008
28.96,-0.361,0.142,0.04
28.97,-0.302,0.261,0.011
28.98,-0.237,0.304,-0.066
28.99,-0.238,0.076,-0.057
29.0,-0.209,-0.068,-0.051
29.01,-0.199,-0.127,-0.01
29.02,-0.161,-0.069,0.076
29.03,-0.189,-0.062,0.101
29.04,-0.228,0.133,0.094
29.05,-0.212,-0.05,0.04
29.06,-0.289,-0.041,-0.019
29.07,-0.364,-0.092,-0.013
29.08,-0.322,-0.007,-0.03
29.09,-0.321,0.195,-0.02
29.1,-0.289,0.182,-0.055
29.11,-0.212,0.213,-0.071
29.12,-0.19,0.148,-0.056
29.13,-0.176,-0.078,0.021
29.14,-0.186,-0.155,0.032
29.15,-0.171,-0.145,0.054
29.16,-0.203,-0.143,0.114
29.17,-0.174,0.065,0.057
29.18,-0.261,0.16,0.032
29.19,-0.243,0.042,-0.058
29.2,-0.179,0.004,-0.151
29.21,-0.289,-0.047,-0.021
29.22,-0.302,0.01,0.045
29.23,-0.341,0.265,0.085
29.24,-0.31,0.212,0.017
29.25,-0.191,0.187,-0.162
29.26,-0.161,-0.036,-0.116
29.27,-0.153,-0.383,0.02
29.28,-0.152,-0.328,0.15
29.29,-0.224,-0.171,0.239
29.3,-0.066,0.056,0.135
29.31,-0.202,0.293,-0.01
29.32,-0.228,0.271,-0.133
29.33,-0.303,0.036,-0.138
29.34,-0.435,-0.028,-0.09
29.35,-0.416,-0.036,-0.042
29.36,-0.405,0.013,0.031
29.37,-0.266,0.148,0.004
29.38,-0.185,0.094,0.027
29.39,-0.079,-0.064,0.059
29.4,-0.047,-0.143,0.059
29.41,-0.153,-0.281,-0.877
29.42,-0.136,-0.068,0.023
29.43,-0.225,0.11,-0.023
29.44,-0.338,0.165,0.022
29.45,-0.291,0.352,-0.074
29.46,-0.452,0.116,-0.042
29.47,-0.408,-0.108,-0.071
29.48,-0.311,-0.032,-0.073
29.49,-0.311,-0.082,0.043
29.5,-0.122,-0.011,0.066
29.51,-0.026,0.182,0.034
29.52,0.026,0.028,0.007
29.53,-0.03,-0.07,0.012
29.54,-0.293,-0.194,0.149
29.55,-0.255,-0.151,0.161
29.56,-0.384,0.032,0.06
29.57,-0.0,-0.0,-0.856
29.58,-0.024,-0.155,0.01
29.59,-0.089,-0.129,0.035
29.6,-0.146,-0.102,0.126
29.61,-0.138,-0.016,0.172
29.62,-0.316,0.196,0.097
29.63,-0.319,0.121,-0.014
29.64,-0.297,-0.096,-0.112
29.65,-0.418,-0.199,-0.073
29.66,-0.354,0.025,0.045
29.67,-0.317,0.006,0.103
29.68,-0.343,0.346,0.056
29.69,-0.126,0.257,-0.114
29.7,0.009,0.083,-0.177
29.71,-0.03,-0.169,-0.088
29.72,-0.115,-0.424,0.081
29.73,-0.236,-0.15,0.275
29.74,-0.302,0.039,0.329
29.75,-0.29,0.178,0.126
29.76,-0.289,0.248,-0.162
29.77,-0.334,0.029,-0.201
29.78,-0.381,-0.137,-0.137
29.79,-0.315,-0.008,-0.054
29.8,-0.332,-0.003,0.044
29.81,-0.135,0.147,0.059
29.82,-0.013,0.308,-0.06
29.83,-0.076,0.145,0.058
29.84,-0.144,-0.106,0.114
29.85,-0.267,-0.179,0.127
29.86,-0.374,-0.334,0.127
29.87,-0.292,-0.119,-0.049
29.88,-0.348,0.108,-0.057
29.89,-0.321,0.263,-0.055
29.9,-0.275,0.151,-0.016
29.91,-0.219,0.037,-0.014
29.92,-0.162,-0.088,-0.038
29.93,-0.215,-0.056,0.053
29.94,-0.152,0.102,0.044
29.95,-0.189,0.162,0.036
29.96,-0.239,0.182,0.006
29.97,-0.189,-0.12,-0.014
29.98,-0.266,-0.19,0.02
29.99,-0.339,-0.249,0.101
30.0,-0.289,-0.135,0.048
30.01,-0.234,0.144,0.035
30.02,-0.184,0.227,-0.004
30.03,-0.162,0.232,-0.073
30.04,-0.219,0.124,-0.078
30.05,-0.22,-0.149,-0.048
30.06,-0.177,-0.085,-0.02
30.07,-0.235,-0.01,0.061
30.08,-0.256,0.033,0.104
30.09,-0.228,0.161,0.07
30.1,-0.304,-0.035,0.044
30.11,-0.292,-0.061,-0.023
30.12,-0.222,-0.128,-0.032
30.13,-0.309,0.018,0.005
30.14,-0.212,0.153,-0.043
30.15,-0.234,0.229,-0.049
30.16,-0.26,0.157,-0.03
30.17,-0.216,0.103,0.004
30.18,-0.22,-0.068,0.028
30.19,-0.173,-0.18,0.02
30.2,-0.211,-0.143,0.057
30.21,-0.233,-0.03,0.094
30.22,-0.23,0.05,0.063
30.23,-0.228,0.111,0.004
30.24,-0.21,0.031,-0.079
30.25,-0.0,-0.0,-0.857
30.26,-0.142,0.183,0.021
30.27,-0.199,0.158,0.048
30.28,-0.169,-0.247,0.094
30.29,-0.24,-0.271,0.097
30.3,-0.335,-0.256,0.087
30.31,-0.197,-0.079,-0.0
30.32,-0.216,0.188,-0.008
30.33,-0.26,0.259,-0.022
30.34,-0.184,0.242,-0.088
30.35,-0.348,0.097,0.009
30.36,-0.327,-0.107,0.011
30.37,-0.204,-0.104,-0.026
30.38,-0.288,0.041,0.034
30.39,-0.218,0.054,0.038
30.4,-0.138,0.168,-0.016
30.41,-0.079,-0.028,-0.016
30.42,-0.1,-0.229,-0.006
30.43,-0.268,-0.175,0.131
30.44,-0.244,-0.09,0.187
30.45,-0.268,0.148,0.038
30.46,-0.367,0.246,-0.021
30.47,-0.256,0.156,-0.091
30.48,-0.279,0.095,-0.099
30.49,-0.3,-0.047,-0.065
30.5,-0.227,-0.246,-0.008
30.51,-0.189,-0.025,-0.006
30.52,-0.0,-0.0,-0.852
30.53,-0.222,-0.166,-0.136
30.54,-0.343,-0.039,-0.039
30.55,-0.357,0.035,0.057
30.56,-0.334,0.119,0.094
30.57,-0.282,0.382,-0.006
30.58,-0.138,0.198,-0.106
30.59,-0.037,-0.186,-0.08
30.6,-0.026,-0.253,0.007
30.61,-0.163,-0.424,0.211
30.62,-0.288,-0.192,0.366
30.63,-0.245,0.175,0.183
30.64,-0.295,0.221,0.006
30.65,-0.281,0.251,-0.186
30.66,-0.318,0.029,-0.195
30.67,-0.437,-0.123,-0.074
30.68,-0.302,0.005,-0.066
30.69,-0.303,0.104,0.029
30.7,-0.142,0.063,0.014
30.71,-0.016,0.244,0.026
30.72,-0.103,0.073,0.153
30.73,-0.14,-0.174,0.144
30.74,-0.281,-0.221,0.114
30.75,-0.279,-0.165,0.046
30.76,-0.258,-0.013,-0.016
30.77,-0.377,0.178,-0.009
30.78,-0.301,0.17,-0.057
30.79,-0.36,0.151,-0.045
30.8,-0.346,0.01,-0.046
30.81,-0.201,-0.113,-0.068
30.82,-0.171,-0.057,-0.008
30.83,-0.125,0.185,0.086
30.84,-0.087,0.091,0.105
30.85,-0.073,0.107,0.036
30.86,-0.198,-0.149,0.066
30.87,-0.297,-0.267,0.145
30.88,-0.316,-0.071,0.142
30.89,-0.426,-0.082,0.037
30.9,-0.418,0.03,-0.079
30.91,-0.285,0.344,-0.195
30.92,-0.193,0.094,-0.071
30.93,-0.198,0.058,-0.04
30.94,-0.153,0.0,0.013
30.95,-0.039,-0.151,0.01
30.96,-0.096,0.016,0.077
30.97,-0.226,0.069,0.186
30.98,-0.176,0.101,0.121
30.99,-0.314,0.078,0.061
31.0,-0.402,-0.109,-0.065
31.01,-0.41,-0.129,-0.103
31.02,-0.421,-0.031,-0.021
31.03,-0.239,0.098,-0.006
31.04,-0.186,0.215,-0.035
31.05,-0.2,0.177,-0.046
31.06,-0.152,0.123,-0.039
31.07,-0.095,0.047,0.064
31.08,-0.13,-0.085,0.088
31.09,-0.0,-0.0,-0.852
31.1,-0.207,0.067,-0.232
31.11,-0.357,0.012,-0.069
31.12,-0.375,-0.078,-0.012
31.13,-0.281,0.125,-0.009
31.14,-0.231,0.159,0.053
31.15,-0.12,0.194,0.029
31.16,-0.13,0.198,0.079
31.17,-0.173,-0.219,0.143
31.18,-0.284,-0.252,0.089
31.19,-0.313,-0.195,0.075
31.2,-0.205,-0.285,0.026
31.21,-0.26,0.217,-0.03
31.22,-0.225,0.217,-0.02
31.23,-0.27,0.136,0.003
31.24,-0.358,0.161,-0.03
31.25,-0.28,0.006,-0.029
31.26,-0.0,-0.0,-0.844
31.27,-0.184,0.052,0.062
31.28,-0.243,-0.088,-0.011
31.29,-0.312,-0.123,-0.013
31.3,-0.327,0.048,0.005
31.31,-0.305,0.219,-0.851
31.32,-0.215,0.165,-0.02
31.33,-0.31,0.252,-0.038
31.34,-0.263,0.043,0.066
31.35,-0.217,-0.053,0.021
31.36,-0.189,-0.129,0.052
31.37,-0.159,-0.216,0.062
31.38,-0.061,-0.039,0.058
31.39,-0.177,0.097,0.096
31.4,-0.279,0.061,0.128
31.41,-0.208,0.069,-0.017
31.42,-0.27,-0.052,-0.047
31.43,-0.361,-0.125,0.056
31.44,-0.336,0.207,0.094
31.45,-0.402,0.225,0.102
31.46,-0.299,0.271,-0.084
31.47,-0.041,0.148,-0.211
31.48,-0.0,-0.0,-0.83
31.49,-0.306,0.113,0.043
31.5,-0.225,0.378,-0.002
31.51,-0.314,0.126,0.059
31.52,-0.397,0.031,-0.004
31.53,-0.264,-0.08,-0.107
31.54,-0.288,-0.112,0.008
31.55,-0.182,0.016,0.037
31.56,-0.127,0.144,0.047
31.57,-0.113,-0.039,0.089
31.58,-0.084,-0.014,0.034
31.59,-0.165,-0.145,0.161
31.6,-0.239,-0.13,0.194
31.61,-0.235,0.01,0.088
31.62,-0.413,0.137,0.041
31.63,-0.327,0.048,-0.096
31.64,-0.354,0.25,-0.097
31.65,-0.335,-0.036,0.02
31.66,-0.17,-0.073,0.036
31.67,-0.208,-0.028,0.038
31.68,-0.093,-0.166,0.07
31.69,-0.063,0.125,0.094
31.7,-0.149,0.076,0.176
31.71,-0.205,-0.001,0.111
31.72,-0.281,-0.024,0.01
31.73,-0.362,0.0,-0.064
31.74,-0.375,-0.017,-0.011
31.75,-0.435,0.172,0.013
31.76,-0.335,0.102,-0.015
31.77,-0.219,0.097,-0.043
31.78,-0.159,0.086,-0.013
31.79,-0.136,-0.001,0.043
31.8,-0.079,-0.005,0.054
31.81,-0.077,-0.089,0.089
31.82,-0.174,-0.054,0.118
31.83,-0.234,0.056,0.109
31.84,-0.319,0.042,0.11
31.85,-0.35,-0.042,-0.001
31.86,-0.304,-0.049,-0.121
31.87,-0.321,-0.102,0.008
31.88,-0.342,0.094,0.076
31.89,-0.25,0.291,0.056
31.9,-0.219,0.2,-0.006
31.91,-0.07,0.18,-0.103
31.92,-0.012,-0.054,-0.12
31.93,-0.156,-0.372,0.087
31.94,-0.212,-0.248,0.195
31.95,-0.287,-0.104,0.314
31.96,-0.307,0.06,0.214
31.97,-0.266,0.218,-0.062
31.98,-0.335,0.213,-0.126
31.99,-0.281,-0.097,-0.183
32.0,-0.298,-0.019,-0.098
32.01,-0.278,-0.01,0.022
32.02,-0.208,0.063,0.057
32.03,-0.167,0.312,0.063
32.04,-0.051,0.126,0.038
32.05,-0.152,0.022,0.091
32.06,-0.26,-0.19,0.109
32.07,-0.272,-0.334,0.097
32.08,-0.321,-0.092,0.028
32.09,-0.301,-0.026,-0.002
32.1,-0.331,0.183,0.006
32.11,-0.266,0.249,-0.024
32.12,-0.249,0.135,-0.004
32.13,-0.232,-0.069,-0.052
32.14,-0.235,-0.016,-0.018
32.15,-0.0,-0.0,-0.842
32.16,-0.328,-0.124,0.051
32.17,-0.306,-0.098,-0.016
32.18,-0.382,-0.044,-0.001
32.19,-0.326,0.042,0.006
32.2,-0.198,0.264,-0.01
32.21,-0.142,0.225,-0.037
32.22,-0.19,0.172,0.032
32.23,-0.181,0.027,0.062
32.24,-0.132,-0.115,0.011
32.25,-0.236,-0.206,0.045
32.26,-0.264,-0.125,-0.85
32.27,-0.301,-0.037,0.139
32.28,-0.305,0.104,0.142
32.29,-0.237,0.044,0.021
32.3,-0.199,-0.022,-0.073
32.31,-0.276,-0.0,-0.06
32.32,-0.241,-0.065,0.039
32.33,-0.225,0.251,0.036
32.34,-0.331,0.328,0.013
32.35,-0.25,0.19,-0.06
32.36,-0.111,0.029,-0.121
32.37,-0.213,-0.227,0.032
32.38,-0.0,-0.0,-0.827
32.39,-0.291,0.289,-0.023
32.4,-0.393,0.238,-0.01
32.41,-0.323,-0.035,-0.028
32.42,-0.255,-0.057,-0.045
32.43,-0.298,-0.078,0.02
32.44,-0.13,0.045,0.066
32.45,-0.099,0.142,0.115
32.46,-0.101,-0.011,0.131
32.47,-0.069,-0.128,0.096
32.48,-0.213,-0.238,0.133
32.49,-0.293,-0.152,0.154
32.5,-0.295,0.005,0.003
32.51,-0.468,0.182,0.016
32.52,-0.291,0.227,-0.06
32.53,-0.25,0.256,-0.094
32.54,-0.275,0.021,-0.044
32.55,-0.164,-0.119,0.011
32.56,-0.14,-0.08,0.049
32.57,-0.073,-0.049,0.134
32.58,-0.096,0.014,0.154
32.59,-0.132,0.145,0.127
32.6,-0.255,-0.011,0.092
32.61,-0.339,-0.081,0.002
32.62,-0.37,-0.072,0.002
32.63,-0.367,-0.016,0.009
32.64,-0.329,0.182,0.004
32.65,-0.311,0.169,-0.037
32.66,-0.262,0.129,-0.029
32.67,-0.226,0.126,0.006
32.68,-0.129,-0.101,0.059
32.69,-0.088,-0.118,0.013
32.7,-0.115,-0.109,0.086
32.71,-0.0,-0.0,-0.83
32.72,-0.423,-0.2,-0.074
32.73,-0.426,-0.008,-0.011
32.74,-0.251,-0.007,-0.0
32.75,-0.11,0.222,0.028
32.76,-0.046,0.28,0.013
32.77,-0.058,0.058,0.09
32.78,-0.065,-0.116,0.109
32.79,-0.261,-0.225,0.117
32.8,-0.363,-0.279,0.178
32.81,-0.256,-0.035,0.075
32.82,-0.375,0.156,0.067
32.83,-0.354,0.17,-0.01
32.84,-0.305,0.185,-0.099
32.85,-0.315,0.022,-0.055
32.86,-0.181,-0.115,-0.074
32.87,-0.182,0.043,0.022
32.88,-0.194,0.066,0.101
32.89,-0.075,0.171,0.086
32.9,-0.111,0.151,0.09
32.91,-0.141,-0.081,0.097
32.92,-0.245,-0.208,0.105
32.93,-0.33,-0.201,0.106
32.94,-0.312,-0.184,-0.008
32.95,-0.448,0.132,0.018
32.96,-0.33,0.074,-0.002
32.97,-0.188,0.293,-0.048
32.98,-0.24,0.075,0.003
32.99,-0.195,-0.044,0.012
33.0,-0.131,-0.05,0.032
33.01,-0.089,0.01,0.019
33.02,-0.167,0.033,0.124
33.03,-0.162,0.111,0.115
33.04,-0.237,0.095,0.068
33.05,-0.36,-0.154,0.024
33.06,-0.36,-0.115,-0.013
33.07,-0.426,-0.115,0.051
33.08,-0.323,0.011,0.055
33.09,-0.21,0.167,-0.045
33.1,-0.198,0.255,-0.054
33.11,-0.17,0.178,-0.015
33.12,-0.149,0.146,0.015
33.13,-0.13,-0.031,0.04
33.14,-0.108,-0.219,0.03
33.15,-0.184,-0.052,0.107
33.16,-0.288,-0.058,0.163
33.17,-0.388,-0.001,0.134
33.18,-0.322,0.09,-0.018
33.19,-0.197,-0.167,-0.083
33.2,-0.251,-0.054,-0.044
33.21,-0.333,0.067,0.09
33.22,-0.212,0.195,0.07
33.23,-0.24,0.357,0.017
33.24,-0.203,0.23,-0.094
33.25,-0.071,-0.097,-0.123
33.26,-0.171,-0.21,0.037
33.27,-0.223,-0.394,0.177
33.28,-0.316,-0.215,0.248
33.29,-0.303,0.132,0.151
33.3,-0.27,0.096,0.048
33.31,-0.182,0.259,-0.123
33.32,-0.147,0.035,-0.172
33.33,-0.323,-0.119,-0.068
33.34,-0.311,-0.012,0.0
33.35,-0.267,0.153,0.042
33.36,-0.254,0.168,0.068
33.37,-0.152,0.218,0.003
33.38,-0.219,0.043,0.062
33.39,-0.268,-0.223,0.048
33.4,-0.256,-0.208,0.123
33.41,-0.282,-0.275,0.124
33.42,-0.199,-0.099,0.018
33.43,-0.23,0.217,-0.019
33.44,-0.175,0.216,-0.056
33.45,-0.235,0.25,-0.07
33.46,-0.346,-0.01,-0.009
33.47,-0.248,0.009,-0.028
33.48,-0.297,0.008,0.027
33.49,-0.284,0.078,0.066
33.5,-0.228,0.059,-0.01
33.51,-0.157,0.032,0.055
33.52,-0.131,-0.167,0.066
33.53,-0.238,-0.265,0.124
33.54,-0.196,-0.157,0.083
33.55,-0.176,-0.088,0.042
33.56,-0.0,-0.0,-0.849
33.57,-0.143,-0.137,0.017
33.58,-0.088,-0.166,0.043
33.59,-0.207,-0.162,0.119
33.6,-0.214,-0.013,0.173
33.61,-0.215,0.045,0.129
33.62,-0.314,0.112,-0.011
33.63,-0.191,0.028,-0.144
33.64,-0.289,-0.156,-0.07
33.65,-0.394,0.139,0.037
33.66,-0.307,0.13,0.118
33.67,-0.322,0.248,0.061
33.68,-0.233,0.263,-0.095
33.69,-0.12,-0.035,-0.147
33.7,-0.056,-0.222,-0.026
33.71,-0.113,-0.285,0.09
33.72,-0.209,-0.285,0.258
33.73,-0.239,0.002,0.226
33.74,-0.174,0.262,0.07
33.75,-0.27,0.198,-0.027
33.76,-0.293,0.088,-0.135
33.77,-0.349,0.011,-0.118
33.78,-0.37,-0.12,-0.073
33.79,-0.381,0.086,-0.007
33.8,-0.305,0.156,0.04
33.81,-0.105,0.065,0.03
33.82,-0.086,0.154,0.05
33.83,-0.078,-0.183,0.124
33.84,-0.137,-0.233,0.083
33.85,-0.293,-0.142,0.094
33.86,-0.238,-0.184,0.085
33.87,-0.297,0.229,-0.012
33.88,-0.354,0.297,-0.023
33.89,-0.351,0.088,-0.037
33.9,-0.44,0.122,-0.089
33.91,-0.31,-0.106,-0.078
33.92,-0.179,-0.158,-0.04
33.93,-0.109,0.117,0.058
33.94,-0.067,0.179,0.081
33.95,-0.079,0.05,0.077
33.96,-0.096,0.069,0.023
33.97,-0.117,-0.2,0.044
33.98,-0.344,-0.233,0.142
33.99,-0.385,-0.032,0.057
34.0,-0.412,-0.065,0.043
34.01,-0.437,0.234,-0.075
34.02,-0.27,0.203,-0.12
34.03,-0.264,0.058,-0.077
34.04,-0.064,0.043,-0.078
34.05,-0.088,-0.056,-0.012
34.06,-0.102,-0.107,0.059
34.07,-0.105,0.151,0.127
34.08,-0.166,-0.006,0.21
34.09,-0.282,0.137,0.147
34.1,-0.378,-0.137,0.04
34.11,-0.428,-0.206,-0.055
34.12,-0.404,-0.037,-0.092
34.13,-0.408,0.039,-0.015
34.14,-0.281,0.182,-0.035
34.15,-0.127,0.24,-0.118
34.16,-0.143,0.212,-0.074
34.17,-0.128,0.023,0.045
34.18,-0.089,-0.032,0.066
34.19,-0.145,-0.219,0.123
34.2,-0.216,-0.121,0.157
34.21,-0.243,0.003,0.098
34.22,-0.315,0.065,0.075
34.23,-0.297,0.096,-0.069
34.24,-0.274,0.043,-0.128
34.25,-0.321,-0.202,-0.065
34.26,-0.346,-0.03,0.007
34.27,-0.248,0.146,0.04
34.28,-0.21,0.254,0.035
34.29,-0.174,0.341,-0.025
34.3,-0.081,0.135,-0.091
34.31,-0.094,-0.248,-0.055
34.32,-0.146,-0.317,0.08
34.33,-0.23,-0.336,0.251
34.34,-0.271,-0.105,0.287
34.35,-0.305,0.257,0.058
34.36,-0.37,0.116,-0.079
34.37,-0.303,0.138,-0.185
34.38,-0.337,-0.046,-0.146
34.39,-0.336,-0.142,-0.024
34.4,-0.248,0.075,-0.051
34.41,-0.179,0.193,0.052
34.42,-0.077,0.203,0.017
34.43,-0.073,0.258,0.028
34.44,-0.146,-0.085,0.144
34.45,-0.208,-0.317,0.129
34.46,-0.369,-0.187,0.05
34.47,-0.353,-0.238,0.036
34.48,-0.371,0.025,0.016
34.49,-0.303,0.3,-0.069
34.5,-0.274,0.179,-0.086
34.51,-0.284,0.072,-0.079
34.52,-0.164,0.093,-0.115
34.53,-0.124,-0.059,-0.036
34.54,-0.205,0.066,0.099
34.55,-0.139,0.157,0.085
34.56,-0.137,0.132,0.036
34.57,-0.173,-0.1,-0.026
34.58,-0.296,-0.248,0.063
34.59,-0.382,-0.37,0.134
34.6,-0.298,-0.122,0.121
34.61,-0.347,-0.103,0.054
34.62,-0.265,0.325,-0.081
34.63,-0.23,0.344,-0.132
34.64,-0.18,0.162,-0.094
34.65,-0.158,0.107,-0.106
34.66,-0.206,-0.087,-0.034
34.67,-0.195,-0.135,0.011
34.68,-0.17,-0.02,0.051
34.69,-0.246,0.063,0.146
34.7,-0.243,-0.004,0.126
34.71,-0.239,0.002,0.039
34.72,-0.302,-0.147,-0.031
34.73,-0.288,-0.054,-0.067
34.74,-0.312,0.137,-0.053
34.75,-0.288,0.176,-0.027
34.76,-0.211,0.258,-0.059
34.77,-0.224,0.211,-0.048
34.78,-0.236,-0.0,-0.873
34.79,-0.15,-0.116,0.004
34.8,-0.164,-0.175,0.077
34.81,-0.191,-0.163,0.114
34.82,-0.157,0.064,0.109
34.83,-0.243,0.068,0.042
34.84,-0.248,0.049,-0.025
34.85,-0.249,-0.007,-0.083
34.86,-0.359,-0.159,0.028
34.87,-0.397,0.061,0.063
34.88,-0.383,0.128,0.068
34.89,-0.271,0.286,-0.048
34.9,-0.14,0.266,-0.15
34.91,-0.136,-0.178,-0.106
34.92,-0.064,-0.292,-0.063
34.93,-0.087,-0.295,0.117
34.94,-0.282,-0.194,0.328
34.95,-0.208,0.187,0.216
34.96,-0.232,0.25,0.016
34.97,-0.283,0.137,-0.12
34.98,-0.317,0.024,-0.189
34.99,-0.415,-0.084,-0.094
35.0,-0.352,-0.031,0.011
35.01,-0.235,0.134,0.014
35.02,-0.23,0.276,-0.022
35.03,-0.125,0.075,-0.01
35.04,-0.063,0.058,0.046
35.05,-0.144,-0.217,0.146
35.06,-0.276,-0.298,0.131
35.07,-0.294,-0.219,0.073
35.08,-0.284,-0.009,0.023
35.09,-0.237,0.231,-0.067
35.1,-0.26,0.321,-0.014
35.11,-0.314,0.122,-0.025
35.12,-0.288,0.058,-0.062
35.13,-0.308,-0.042,-0.084
35.14,-0.273,-0.14,-0.039
35.15,-0.208,0.155,0.035
35.16,-0.13,0.083,0.085
35.17,-0.08,-0.004,0.017
35.18,-0.152,-0.11,0.027
35.19,-0.207,-0.308,0.126
35.2,-0.157,-0.059,0.12
35.21,-0.346,0.056,0.134
35.22,-0.36,0.116,0.014
35.23,-0.0,-0.0,-0.859
35.24,-0.073,-0.141,0.073
35.25,-0.106,-0.146,0.093
35.26,-0.16,0.053,0.021
35.27,-0.359,0.111,0.069
35.28,-0.355,0.061,0.004
35.29,-0.298,0.016,-0.078
35.3,-0.379,-0.103,-0.042
35.31,-0.323,-0.149,0.035
35.32,-0.275,0.172,0.057
35.33,-0.235,0.282,0.068
35.34,-0.113,0.264,-0.093
35.35,-0.013,0.161,-0.16
35.36,-0.074,-0.304,-0.082
35.37,-0.107,-0.41,0.088
35.38,-0.379,-0.122,0.395
35.39,-0.332,0.083,0.272
35.4,-0.324,0.28,-0.031
35.41,-0.349,0.156,-0.195
35.42,-0.228,0.03,-0.214
35.43,-0.368,-0.083,-0.05
35.44,-0.331,-0.121,0.031
35.45,-0.138,0.025,-0.007
35.46,-0.142,0.223,0.015
35.47,-0.099,0.195,0.071
35.48,-0.151,0.086,0.093
35.49,-0.22,-0.159,0.097
35.5,-0.297,-0.297,0.059
35.51,-0.352,-0.127,0.02
35.52,-0.301,-0.052,-0.031
35.53,-0.298,0.182,-0.034
35.54,-0.235,0.314,-0.03
35.55,-0.325,0.072,0.02
35.56,-0.271,-0.068,-0.026
35.57,-0.123,-0.006,-0.082
35.58,-0.233,-0.094,0.063
35.59,-0.158,0.132,0.021
35.6,-0.165,0.181,0.014
35.61,-0.153,0.076,-0.008
35.62,-0.14,-0.069,-0.036
35.63,-0.337,-0.176,0.119
35.64,-0.321,-0.272,0.122
35.65,-0.306,0.061,0.04
35.66,-0.39,0.009,0.05
35.67,-0.182,0.215,-0.108
35.68,-0.209,0.215,-0.071
35.69,-0.222,-0.001,-0.025
35.7,-0.126,-0.055,-0.031
35.71,-0.151,-0.078,-0.02
35.72,-0.158,-0.035,0.087
35.73,-0.171,0.125,-0.872
35.74,-0.255,0.121,0.134
35.75,-0.366,-0.146,0.051
35.76,-0.345,-0.027,-0.051
35.77,-0.0,-0.0,-0.849
35.78,-0.208,0.272,-0.081
35.79,-0.093,-0.02,-0.15
35.8,-0.147,-0.28,-0.036
35.81,-0.24,-0.462,0.127
35.82,-0.287,-0.23,0.349
35.83,-0.278,0.036,0.317
35.84,-0.22,0.17,0.058
35.85,-0.179,0.314,-0.153
35.86,-0.215,-0.019,-0.183
35.87,-0.347,-0.033,-0.109
35.88,-0.342,0.054,-0.062
35.89,-0.328,0.014,0.067
35.9,-0.237,0.243,-0.014
35.91,-0.133,0.227,-0.017
35.92,-0.137,0.008,0.081
35.93,-0.145,-0.125,0.127
35.94,-0.257,-0.246,0.145
35.95,-0.222,-0.313,0.089
35.96,-0.19,-0.057,-0.022
35.97,-0.27,0.141,0.015
35.98,-0.272,0.222,0.001
35.99,-0.327,0.309,-0.009
36.0,-0.4,0.044,-0.009
36.01,-0.245,-0.018,-0.113
36.02,-0.278,0.029,-0.038
36.03,-0.139,-0.076,0.051
36.04,-0.127,0.211,0.067
36.05,-0.154,0.048,0.044
36.06,-0.068,-0.25,-0.862
36.07,-0.211,-0.142,0.093
36.08,-0.29,-0.281,0.215
36.09,-0.283,-0.006,0.127
36.1,-0.419,0.162,0.034
36.11,-0.303,0.218,-0.089
36.12,-0.249,0.247,-0.119
36.13,-0.281,0.09,-0.063
36.14,-0.162,-0.086,-0.035
36.15,-0.162,-0.105,-0.027
36.16,-0.188,-0.057,0.035
36.17,-0.159,-0.024,0.136
36.18,-0.164,0.12,0.146
36.19,-0.219,0.015,0.138
36.2,-0.262,-0.11,0.045
36.21,-0.322,-0.019,-0.049
36.22,-0.34,-0.062,-0.013
36.23,-0.0,-0.0,-0.843
36.24,0.019,-0.134,-0.116
36.25,-0.008,-0.328,0.073
36.26,-0.039,-0.346,0.275
36.27,-0.243,-0.061,0.397
36.28,-0.257,0.152,0.212
36.29,-0.0,-0.0,-0.843
36.3,-0.153,0.072,-0.013
36.31,-0.16,-0.009,0.064
36.32,-0.029,0.102,0.031
36.33,-0.02,0.123,0.059
36.34,-0.133,-0.135,0.113
36.35,-0.234,-0.1,0.154
36.36,-0.301,-0.158,0.151
36.37,-0.324,-0.105,0.062
36.38,-0.424,0.043,-0.049
36.39,-0.389,0.177,-0.108
36.4,-0.273,0.153,-0.106
36.41,-0.22,0.149,-0.049
36.42,-0.162,-0.012,0.003
36.43,-0.105,-0.071,0.014
36.44,-0.096,0.001,0.045
36.45,-0.156,0.048,0.158
36.46,-0.16,0.051,0.165
36.47,-0.258,0.132,0.095
36.48,-0.326,-0.157,0.039
36.49,-0.38,-0.083,-0.04
36.5,-0.398,-0.121,-0.018
36.51,-0.325,0.041,-0.024
36.52,-0.229,0.189,-0.025
36.53,-0.238,0.185,-0.029
36.54,-0.196,0.211,-0.02
36.55,-0.154,0.086,0.022
36.56,-0.135,-0.078,0.058
36.57,-0.157,-0.177,0.033
36.58,-0.175,-0.077,0.101
36.59,-0.181,-0.029,0.156
36.6,-0.338,0.125,-0.861
36.61,-0.3,0.019,-0.02
36.62,-0.227,-0.111,-0.102
36.63,-0.261,-0.079,-0.056
36.64,-0.267,0.084,0.03
36.65,-0.344,0.174,0.1
36.66,-0.253,0.36,-0.007
36.67,-0.152,0.281,-0.104
36.68,-0.06,-0.124,-0.136
36.69,-0.078,-0.238,0.009
36.7,-0.241,-0.357,0.248
36.71,-0.293,-0.165,0.393
36.72,-0.318,0.077,0.2
36.73,-0.0,-0.0,-0.842
36.74,-0.207,-0.071,-0.037
36.75,-0.294,0.037,0.044
36.76,-0.245,0.092,0.099
36.77,-0.205,0.104,0.08
36.78,-0.207,0.041,0.011
36.79,-0.207,-0.281,-0.851
36.8,-0.209,-0.25,0.109
36.81,-0.264,-0.127,0.134
36.82,-0.186,-0.071,0.038
36.83,-0.315,0.307,-0.045
36.84,-0.258,0.251,-0.037
36.85,-0.185,0.244,-0.055
36.86,-0.235,0.029,0.006
36.87,-0.279,-0.115,0.022
36.88,-0.214,-0.199,0.041
36.89,-0.216,0.031,0.088
36.9,-0.217,-0.016,0.144
36.91,-0.222,0.119,0.134
36.92,-0.159,0.021,0.015
36.93,-0.27,-0.151,-0.014
36.94,-0.314,0.017,-0.022
36.95,-0.335,0.008,0.06
36.96,-0.267,0.146,0.039
36.97,-0.237,0.212,-0.048
36.98,-0.267,0.14,-0.041
36.99,-0.243,0.1,0.0
37.0,-0.194,0.006,0.018
37.01,-0.157,-0.118,0.073
37.02,-0.193,-0.118,0.062
37.03,-0.139,-0.146,0.122
37.04,-0.158,-0.008,0.106
37.05,-0.284,0.081,0.07
37.06,-0.25,0.046,-0.026
37.07,-0.0,-0.0,-0.837
37.08,-0.215,0.153,0.131
37.09,-0.293,0.072,0.087
37.1,-0.329,-0.019,-0.015
37.11,-0.334,-0.198,-0.025
37.12,-0.32,-0.067,-0.03
37.13,-0.304,0.102,0.036
37.14,-0.223,0.14,0.012
37.15,-0.18,0.302,-0.048
37.16,-0.189,0.139,0.014
37.17,-0.163,-0.015,0.052
37.18,-0.162,-0.087,0.049
37.19,-0.235,-0.223,0.137
37.2,-0.167,-0.098,0.112
37.21,-0.271,0.057,0.059
37.22,-0.333,-0.021,0.064
37.23,-0.227,0.145,-0.047
37.24,-0.219,0.049,-0.066
37.25,-0.297,-0.084,0.003
37.26,-0.26,0.036,-0.037
37.27,-0.29,0.119,0.078
37.28,-0.253,0.192,0.104
37.29,-0.179,0.311,-0.009
37.3,-0.148,0.012,-0.056
37.31,-0.146,-0.322,-0.035
37.32,-0.169,-0.233,0.077
37.33,-0.321,-0.313,0.301
37.34,-0.201,-0.032,0.222
37.35,-0.261,0.292,0.036
37.36,-0.0,-0.0,-0.841
37.37,-0.309,-0.157,0.067
37.38,-0.222,0.089,0.151
37.39,-0.158,0.125,0.136
37.4,-0.04,0.034,0.011
37.41,-0.137,-0.021,-0.034
37.42,-0.231,-0.348,0.083
37.43,-0.281,-0.046,0.11
37.44,-0.305,-0.032,0.106
37.45,-0.365,0.143,0.046
37.46,-0.282,0.369,-0.097
37.47,-0.311,0.117,-0.041
37.48,-0.272,0.02,-0.043
37.49,-0.151,-0.125,-0.853
37.5,-0.218,-0.219,0.057
37.51,-0.129,-0.128,0.109
37.52,-0.09,0.154,0.135
37.53,-0.145,0.181,0.154
37.54,-0.197,0.133,0.056
37.55,-0.352,0.006,-0.015
37.56,-0.394,-0.154,-0.047
37.57,-0.374,-0.007,-0.011
37.58,-0.373,0.095,0.01
37.59,-0.312,0.106,-0.041
37.6,-0.213,0.234,0.006
37.61,-0.166,0.104,0.035
37.62,-0.081,-0.074,0.036
37.63,-0.058,-0.17,0.082
37.64,-0.107,-0.17,0.09
37.65,-0.199,-0.004,0.096
37.66,-0.282,0.111,0.095
37.67,-0.302,0.154,0.03
37.68,-0.282,0.099,-0.08
37.69,-0.362,-0.086,-0.062
37.7,-0.334,-0.179,0.007
37.71,-0.288,0.073,0.058
37.72,-0.341,0.176,0.139
37.73,-0.204,0.212,0.039
37.74,-0.038,0.23,-0.112
37.75,-0.058,-0.184,-0.08
37.76,-0.046,-0.377,-0.014
37.77,-0.228,-0.233,0.182
37.78,-0.287,-0.087,0.309
37.79,-0.264,0.242,0.147
37.8,-0.295,0.393,-0.046
37.81,-0.3,0.134,-0.159
37.82,-0.397,-0.079,-0.138
37.83,-0.353,-0.096,-0.046
37.84,-0.285,-0.159,0.042
37.85,-0.256,0.06,0.091
37.86,-0.072,0.215,0.019
37.87,-0.024,0.186,0.046
37.88,-0.107,0.035,0.082
37.89,-0.18,-0.232,0.102
37.9,-0.315,-0.186,0.091
37.91,-0.332,-0.07,0.025
37.92,-0.359,0.039,0.035
37.93,-0.297,0.238,-0.095
37.94,-0.359,0.237,-0.033
37.95,-0.293,-0.073,-0.008
37.96,-0.175,-0.015,-0.041
37.97,-0.245,-0.262,0.053
37.98,-0.152,0.016,0.067
37.99,-0.123,0.185,0.111
38.0,-0.101,0.229,0.053
38.01,-0.15,0.099,-0.034
38.02,-0.287,-0.096,0.014
38.03,-0.288,-0.245,0.066
38.04,-0.283,-0.153,0.02
38.05,-0.417,0.003,0.086
38.06,-0.383,0.067,-0.0
38.07,-0.187,0.281,-0.068
38.08,-0.161,0.127,-0.058
38.09,-0.193,-0.068,0.021
38.1,-0.138,-0.077,-0.012
38.11,-0.129,-0.13,0.053
38.12,-0.109,0.073,0.1
38.13,-0.19,0.202,0.083
38.14,-0.334,0.1,0.097
38.15,-0.307,0.069,-0.032
38.16,-0.343,-0.116,-0.053
38.17,-0.424,-0.154,-0.018
38.18,-0.302,-0.002,-0.04
38.19,-0.242,0.099,-0.012
38.2,-0.182,0.197,0.031
38.21,-0.128,0.188,0.047
38.22,-0.125,0.047,0.045
38.23,-0.135,-0.133,0.032
38.24,-0.189,-0.192,0.076
38.25,-0.258,-0.088,0.09
38.26,-0.3,0.053,0.053
38.27,-0.389,0.17,0.023
38.28,-0.304,0.093,-0.081
38.29,-0.252,-0.078,-0.119
38.3,-0.237,-0.061,-0.026
38.31,-0.222,-0.076,0.084
38.32,-0.269,0.176,0.096
38.33,-0.228,0.286,0.048
38.34,-0.117,0.151,-0.076
38.35,-0.094,0.052,-0.126
38.36,-0.146,-0.288,-0.028
38.37,-0.258,-0.375,0.157
38.38,-0.32,-0.083,0.219
38.39,-0.344,0.027,0.205
38.4,-0.256,0.157,-0.006
38.41,-0.239,0.252,-0.17
38.42,-0.0,-0.0,-0.853
38.43,-0.257,0.092,0.106
38.44,-0.262,0.143,0.034
38.45,-0.145,-0.086,-0.044
38.46,-0.191,-0.184,-0.011
38.47,-0.255,-0.201,0.103
38.48,-0.0,-0.0,-0.847
38.49,-0.251,0.078,0.015
38.5,-0.214,0.003,0.043
38.51,-0.192,-0.176,0.099
38.52,-0.198,-0.151,0.092
38.53,-0.0,-0.0,-0.841
38.54,-0.389,-0.13,-0.102
38.55,-0.433,-0.083,-0.028
38.56,-0.341,0.047,-0.016
38.57,-0.274,0.033,0.059
38.58,-0.102,0.176,-0.024
38.59,-0.007,0.155,0.021
38.6,-0.108,-0.119,0.143
38.61,-0.11,-0.112,0.107
38.62,-0.285,-0.206,0.15
38.63,-0.286,-0.12,0.041
38.64,-0.315,0.156,0.008
38.65,-0.385,0.151,0.034
38.66,-0.272,0.186,-0.016
38.67,-0.312,0.121,-0.029
38.68,-0.297,-0.099,-0.057
38.69,-0.226,-0.062,-0.05
38.7,-0.198,0.029,0.033
38.71,-0.083,0.057,0.054
38.72,-0.103,0.132,0.063
38.73,-0.1,-0.017,0.042
38.74,-0.252,-0.202,0.141
38.75,-0.323,-0.143,0.173
38.76,-0.275,-0.145,0.133
38.77,-0.402,0.133,0.0
38.78,-0.336,0.241,-0.128
38.79,-0.316,0.148,-0.115
38.8,-0.269,0.124,-0.113
38.81,-0.192,-0.028,-0.004
38.82,-0.145,-0.15,0.052
38.83,-0.063,-0.03,0.023
38.84,-0.083,-0.008,0.131
38.85,-0.119,0.074,0.182
38.86,-0.228,0.178,0.118
38.87,-0.384,-0.037,0.098
38.88,-0.377,-0.056,-0.067
38.89,-0.408,0.004,-0.091
38.9,-0.426,-0.031,-0.007
38.91,-0.293,0.164,-0.054
38.92,-0.265,0.109,-0.02
38.93,-0.151,0.073,-0.032
38.94,-0.085,0.119,-0.021
38.95,-0.061,-0.065,0.078
38.96,-0.066,-0.051,0.117
38.97,-0.167,-0.017,0.143
38.98,-0.228,-0.006,0.127
38.99,-0.369,0.023,0.062
39.0,-0.383,-0.013,-0.022
39.01,-0.305,-0.131,-0.099
39.02,-0.428,-0.097,0.005
39.03,-0.323,0.075,0.058
39.04,-0.196,0.151,0.034
39.05,-0.211,0.371,-0.06
39.06,-0.072,0.262,-0.11
39.07,-0.017,-0.064,-0.126
39.08,-0.025,-0.262,-0.032
39.09,-0.167,-0.374,0.202
39.1,-0.0,-0.0,-0.844
39.11,-0.278,0.134,0.023
39.12,-0.27,0.089,0.064
39.13,-0.174,-0.112,-0.013
39.14,-0.259,0.111,0.018
39.15,-0.201,0.072,0.021
39.16,-0.2,0.162,0.055
39.17,-0.22,-0.031,-0.853
39.18,-0.215,-0.212,0.032
39.19,-0.27,-0.242,0.109
39.2,-0.245,-0.095,0.144
39.21,-0.269,-0.042,0.124
39.22,-0.23,0.16,-0.04
39.23,-0.225,0.294,-0.078
39.24,-0.262,0.099,-0.045
39.25,-0.211,0.072,-0.081
39.26,-0.233,-0.024,0.018
39.27,-0.193,-0.124,0.056
39.28,-0.169,0.093,0.078
39.29,-0.201,0.017,0.125
39.3,-0.207,0.049,0.115
39.31,-0.272,0.025,0.05
39.32,-0.273,-0.232,0.042
39.33,-0.312,-0.066,0.009
39.34,-0.356,0.044,0.018
39.35,-0.257,0.132,-0.004
39.36,-0.176,0.208,-0.057
39.37,-0.268,0.238,-0.018
39.38,-0.258,0.044,0.051
39.39,-0.202,-0.021,0.044
39.4,-0.148,-0.142,-0.0
39.41,-0.203,-0.165,0.064
39.42,-0.189,-0.006,0.086
39.43,-0.215,0.045,0.135
39.44,-0.267,0.099,0.042
39.45,-0.198,0.01,-0.056
39.46,-0.236,-0.161,-0.033
39.47,-0.306,0.006,0.021
39.48,-0.339,0.179,0.101
39.49,-0.351,0.27,0.043
39.5,-0.254,0.386,-0.148
39.51,-0.132,0.064,-0.15
39.52,-0.107,-0.264,-0.087
39.53,-0.1,-0.375,0.113
39.54,-0.213,-0.284,0.314
39.55,-0.201,-0.055,0.31
39.56,-0.21,0.297,0.079
39.57,-0.268,0.178,-0.038
39.58,-0.227,0.145,-0.168
39.59,-0.334,-0.001,-0.179
39.6,-0.422,-0.199,-0.007
39.61,-0.311,0.034,0.01
39.62,-0.273,0.228,0.097
39.63,-0.226,0.083,0.046
39.64,-0.13,0.15,0.01
39.65,-0.089,-0.072,0.07
39.66,-0.147,-0.301,0.108
39.67,-0.331,-0.126,0.107
39.68,-0.189,-0.136,0.019
39.69,-0.171,0.133,-0.023
39.7,-0.29,0.301,-0.018
39.71,-0.34,0.121,0.019
39.72,-0.403,0.072,0.006
39.73,-0.3,0.019,-0.045
39.74,-0.276,-0.112,-0.04
39.75,-0.252,0.069,-0.033
39.76,-0.158,0.122,0.006
39.77,-0.052,0.075,0.061
39.78,0.01,0.017,0.02
39.79,-0.189,-0.27,0.138
39.8,-0.219,-0.239,0.167
39.81,-0.201,-0.006,0.102
39.82,-0.432,0.013,0.089
39.83,-0.42,0.195,-0.089
39.84,-0.367,0.304,-0.13
39.85,-0.262,-0.015,-0.072
39.86,-0.223,-0.008,-0.067
39.87,-0.172,-0.115,-0.005
39.88,-0.121,-0.154,0.077
39.89,-0.106,0.074,0.102
39.9,-0.11,0.088,0.16
39.91,-0.169,0.024,0.112
39.92,-0.294,0.042,0.003
39.93,-0.366,-0.067,-0.036
39.94,-0.425,-0.005,-0.033
39.95,-0.353,0.131,-0.05
39.96,-0.198,0.131,-0.068
39.97,-0.247,0.147,-0.043
39.98,-0.306,0.063,0.003
39.99,-0.167,-0.067,0.038
40.0,-0.084,-0.061,0.014
40.01,-0.136,-0.109,0.086
40.02,-0.19,-0.052,0.107
40.03,-0.172,0.112,0.098
40.04,-0.206,0.01,0.081
40.05,-0.267,0.051,-0.034
40.06,-0.256,-0.036,-0.107
40.07,-0.31,-0.146,-0.019
40.08,-0.391,0.089,0.015
40.09,-0.402,0.298,0.053
40.1,-0.312,0.104,0.015
40.11,-0.19,0.249,-0.128
40.12,-0.038,-0.049,-0.127
40.13,-0.072,-0.385,0.022
40.14,-0.114,-0.286,0.159
40.15,-0.188,-0.18,0.242
40.16,-0.272,0.064,0.279
40.17,-0.207,0.295,0.015
40.18,-0.305,0.219,-0.126
40.19,-0.354,-0.038,-0.191
40.2,-0.41,-0.058,-0.102
40.21,-0.428,-0.118,-0.013
40.22,-0.224,0.029,-0.015
40.23,-0.212,0.17,0.01
40.24,-0.092,0.194,0.038
40.25,-0.036,0.133,0.024
40.26,-0.16,-0.065,0.124
40.27,-0.213,-0.208,0.092
40.28,-0.279,-0.156,0.093
40.29,-0.274,-0.053,0.021
40.3,-0.247,0.086,-0.053
40.31,-0.356,0.242,-0.042
40.32,-0.399,0.075,-0.012
40.33,-0.338,0.008,-0.06
40.34,-0.233,-0.036,-0.092
40.35,-0.19,-0.018,0.005
40.36,-0.117,0.084,0.031
40.37,-0.115,0.206,0.07
40.38,-0.101,-0.093,0.072
40.39,-0.116,-0.029,0.06
40.4,-0.318,-0.21,0.127
40.41,-0.334,-0.274,0.102
40.42,-0.357,0.042,-0.021
40.43,-0.41,0.082,-0.05
40.44,-0.356,0.222,-0.059
40.45,-0.166,0.23,-0.112
40.46,-0.169,0.023,-0.059
40.47,-0.118,-0.12,-0.051
40.48,-0.152,-0.022,0.041
40.49,-0.101,-0.068,0.082
40.5,-0.191,0.132,0.106
40.51,-0.25,0.159,0.123
40.52,-0.281,-0.031,0.061
40.53,-0.366,-0.087,-0.024
40.54,-0.367,-0.154,-0.054
40.55,-0.329,-0.126,-0.029
40.56,-0.301,0.134,-0.029
40.57,-0.166,0.239,-0.075
40.58,-0.169,0.281,-0.074
40.59,-0.218,0.221,-0.008
40.6,-0.144,-0.001,0.024
40.61,-0.15,-0.091,0.029
40.62,-0.174,-0.219,0.063
40.63,-0.195,-0.176,0.13
40.64,-0.254,-0.05,0.069
40.65,-0.337,0.097,0.112
40.66,-0.299,0.0,-0.019
40.67,-0.254,-0.014,-0.117
40.68,-0.255,-0.072,-0.071
40.69,-0.303,0.054,-0.004
40.7,-0.307,0.284,0.029
40.71,-0.259,0.249,-0.025
40.72,-0.134,0.249,-0.13
40.73,-0.057,-0.005,-0.139
40.74,-0.099,-0.381,0.073
40.75,-0.139,-0.307,0.13
40.76,-0.313,-0.168,0.295
40.77,-0.314,-0.039,0.19
40.78,-0.269,0.25,-0.02
40.79,-0.293,0.182,-0.152
40.8,-0.252,0.006,-0.174
40.81,-0.381,-0.073,-0.079
40.82,-0.27,0.022,-0.027
40.83,-0.228,0.083,0.036
40.84,-0.217,0.252,0.051
40.85,-0.022,0.212,-0.035
40.86,-0.108,0.062,0.018
40.87,-0.285,-0.206,0.112
40.88,-0.284,-0.323,0.092
40.89,-0.363,-0.262,0.09
40.9,-0.221,-0.115,0.008
40.91,-0.259,0.113,-0.018
40.92,-0.252,0.376,-0.019
40.93,-0.333,0.169,0.032
40.94,-0.308,0.101,-0.023
40.95,-0.159,0.03,-0.128
40.96,-0.261,-0.13,-0.02
40.97,-0.177,0.09,0.011
40.98,-0.215,0.094,-0.875
40.99,-0.213,-0.008,0.086
41.0,-0.103,-0.137,0.002
41.01,-0.191,-0.201,0.08
41.02,-0.255,-0.251,0.126
41.03,-0.198,0.057,0.035
41.04,-0.374,0.188,0.058
41.05,-0.0,-0.0,-0.855
41.06,-0.011,-0.07,-0.001
41.07,-0.131,-0.169,0.085
41.08,-0.18,-0.069,0.129
41.09,-0.194,0.133,0.109
41.1,-0.36,0.066,0.104
41.11,-0.237,0.042,-0.077
41.12,-0.258,-0.026,-0.067
41.13,-0.446,-0.055,-0.011
41.14,-0.325,0.096,0.027
41.15,-0.287,0.274,0.006
41.16,-0.0,-0.0,-0.849
41.17,-0.244,-0.228,0.077
41.18,-0.166,0.034,0.051
41.19,-0.345,0.09,0.109
41.2,-0.345,0.231,-0.002
41.21,-0.337,0.183,-0.123
41.22,-0.0,-0.0,-0.842
41.23,-0.082,0.157,0.123
41.24,-0.177,0.145,0.115
41.25,-0.324,-0.065,0.055
41.26,-0.376,-0.047,-0.029
41.27,-0.467,-0.073,-0.069
41.28,-0.381,-0.029,-0.006
41.29,-0.264,0.186,0.019
41.3,-0.215,0.15,0.007
41.31,-0.178,0.166,-0.022
41.32,-0.135,0.133,0.019
41.33,-0.084,-0.1,0.04
41.34,-0.046,-0.113,0.062
41.35,-0.138,-0.078,0.101
41.36,-0.229,-0.097,0.073
41.37,-0.324,0.145,0.085
41.38,-0.383,0.052,0.026
41.39,-0.327,0.035,-0.042
41.4,-0.357,-0.098,-0.045
41.41,-0.316,-0.076,0.018
41.42,-0.213,0.081,0.059
41.43,-0.241,0.229,0.088
41.44,-0.166,0.247,0.032
41.45,-0.032,0.061,-0.136
41.46,-0.112,-0.136,-0.107
41.47,-0.087,-0.412,0.057
41.48,-0.293,-0.099,0.223
41.49,-0.385,0.051,0.297
41.5,-0.273,0.088,0.071
41.51,-0.327,0.291,-0.108
41.52,-0.279,0.002,-0.145
41.53,-0.293,-0.137,-0.075
41.54,-0.237,-0.05,-0.017
41.55,-0.266,0.025,0.03
41.56,-0.271,0.121,0.087
41.57,-0.099,0.251,0.017
41.58,-0.086,0.246,0.047
41.59,-0.177,-0.102,0.079
41.6,-0.179,-0.268,0.031
41.61,-0.347,-0.318,0.047
41.62,-0.331,-0.076,0.035
41.63,-0.321,0.09,0.06
41.64,-0.286,0.273,-0.005
41.65,-0.237,0.262,-0.077
41.66,-0.311,0.035,0.01
41.67,-0.225,-0.086,-0.005
41.68,-0.178,-0.018,0.004
41.69,-0.239,-0.111,0.128
41.7,-0.108,0.2,0.076
41.71,-0.127,0.192,0.008
41.72,-0.0,-0.0,-0.847
41.73,-0.288,0.146,0.014
41.74,-0.235,0.246,-0.028
41.75,-0.16,0.156,-0.009
41.76,-0.238,0.141,-0.003
41.77,-0.195,-0.1,0.071
41.78,-0.199,-0.215,0.062
41.79,-0.207,-0.201,0.065
41.8,-0.208,-0.027,0.087
41.81,-0.206,-0.004,0.127
41.82,-0.269,0.222,0.045
41.83,-0.198,0.043,-0.067
41.84,-0.244,-0.105,-0.097
41.85,-0.312,0.028,-0.027
41.86,-0.315,0.034,0.097
41.87,-0.319,0.227,0.128
41.88,-0.301,0.321,0.005
41.89,-0.133,0.048,-0.119
41.9,-0.076,-0.158,-0.117
41.91,-0.146,-0.331,0.015
41.92,-0.156,-0.355,0.234
41.93,-0.254,-0.051,0.287
41.94,-0.237,0.156,0.168
41.95,-0.232,0.245,-0.045
41.96,-0.263,0.151,-0.153
41.97,-0.322,-0.005,-0.094
41.98,-0.365,-0.101,-0.028
41.99,-0.415,0.073,0.004
42.0,-0.242,0.046,0.041
42.01,-0.165,0.219,-0.003
42.02,-0.125,0.162,0.006
42.03,-0.119,-0.136,0.129
42.04,-0.162,-0.22,0.089
42.05,-0.307,-0.227,0.114
42.06,-0.301,-0.191,0.079
42.07,-0.234,0.081,-0.004
42.08,-0.281,0.326,-0.026
42.09,-0.283,0.208,-0.035
42.1,-0.359,0.172,-0.048
42.11,-0.28,-0.078,-0.064
42.12,-0.23,-0.143,-0.061
42.13,-0.274,-0.011,0.05
42.14,-0.177,0.061,0.083
42.15,-0.108,0.108,0.053
42.16,-0.129,0.005,0.034
42.17,-0.14,-0.191,0.029
42.18,-0.248,-0.132,0.077
42.19,-0.202,-0.105,0.064
42.2,-0.305,0.069,0.025
42.21,-0.366,0.282,0.003
42.22,-0.301,0.206,-0.057
42.23,-0.318,0.113,-0.112
42.24,-0.26,-0.012,-0.041
42.25,-0.239,-0.208,0.057
42.26,-0.167,-0.138,0.046
42.27,-0.119,0.038,0.058
42.28,-0.087,-0.029,0.11
42.29,-0.151,0.17,0.089
42.3,-0.21,0.036,0.047
42.31,-0.299,-0.062,0.028
42.32,-0.396,-0.015,-0.063
42.33,-0.443,0.0,-0.008
42.34,-0.367,0.101,-0.052
42.35,-0.27,0.196,-0.051
42.36,-0.305,0.146,-0.025
42.37,-0.148,0.056,-0.035
42.38,-0.083,-0.02,-0.041
42.39,-0.045,-0.143,0.042
42.4,-0.081,-0.094,0.115
42.41,-0.171,0.034,0.159
42.42,-0.286,0.039,0.115
42.43,-0.336,0.078,-0.012
42.44,-0.282,0.008,-0.117
42.45,-0.301,-0.17,-0.066
42.46,-0.439,-0.0,0.028
42.47,-0.385,0.095,0.051
42.48,-0.214,0.227,0.01
42.49,-0.129,0.408,-0.104
42.5,-0.083,0.081,-0.098
42.51,-0.022,-0.154,-0.096
42.52,-0.074,-0.297,0.036
42.53,-0.212,-0.378,0.287
42.54,-0.322,-0.037,0.291
42.55,-0.336,0.219,-0.872
42.56,-0.272,0.143,-0.069
42.57,-0.327,0.133,-0.222
42.58,-0.386,-0.032,-0.114
42.59,-0.341,-0.132,-0.004
42.6,-0.255,0.098,0.014
42.61,-0.153,0.121,-0.009
42.62,-0.078,0.132,-0.033
42.63,-0.106,0.167,0.04
42.64,-0.141,-0.085,0.145
42.65,-0.278,-0.161,0.156
42.66,-0.333,-0.18,0.103
42.67,-0.266,-0.169,0.044
42.68,-0.352,0.114,-0.016
42.69,-0.301,0.216,-0.06
42.7,-0.302,0.103,-0.037
42.71,-0.232,0.061,-0.058
42.72,-0.228,-0.01,-0.07
42.73,-0.195,-0.029,0.001
42.74,-0.17,0.152,0.036
42.75,-0.184,0.132,0.068
42.76,-0.163,0.118,0.041
42.77,-0.124,-0.051,0.038
42.78,-0.253,-0.224,0.104
42.79,-0.281,-0.292,0.066
42.8,-0.348,-0.13,0.109
42.81,-0.405,-0.065,0.058
42.82,-0.339,0.243,-0.034
42.83,-0.22,0.219,-0.866
42.84,-0.182,0.053,-0.071
42.85,-0.157,0.107,-0.072
42.86,-0.153,-0.061,0.026
42.87,-0.127,-0.01,0.057
42.88,-0.127,0.11,0.061
42.89,-0.169,0.007,0.114
42.9,-0.288,0.01,0.083
42.91,-0.397,-0.128,0.094
42.92,-0.439,-0.219,0.031
42.93,-0.316,-0.063,-0.05
42.94,-0.0,-0.0,-0.845
42.95,-0.182,-0.157,-0.096
42.96,-0.137,-0.306,-0.062
42.97,-0.261,-0.312,0.143
42.98,-0.332,-0.238,0.295
42.99,-0.165,0.143,0.23
43.0,-0.156,0.229,0.042
43.01,-0.185,0.177,-0.092
43.02,-0.207,0.008,-0.135
43.03,-0.342,-0.094,-0.053
43.04,-0.336,-0.057,-0.013
43.05,-0.34,0.138,0.045
43.06,-0.313,0.212,0.08
43.07,-0.154,0.232,-0.006
43.08,-0.151,0.095,-0.01
43.09,-0.156,-0.246,0.056
43.1,-0.19,-0.266,0.069
43.11,-0.258,-0.232,0.133
43.12,-0.177,-0.061,0.062
43.13,-0.236,0.217,-0.033
43.14,-0.269,0.215,0.035
43.15,-0.3,0.179,0.014
43.16,-0.375,0.026,0.002
43.17,-0.316,-0.062,-0.02
43.18,-0.282,-0.167,-0.024
43.19,-0.242,0.176,-0.004
43.2,-0.189,0.066,0.077
43.21,-0.081,0.119,0.0
43.22,-0.131,-0.065,-0.026
43.23,-0.195,-0.365,0.064
43.24,-0.18,-0.086,0.114
43.25,-0.316,-0.059,0.153
43.26,-0.369,0.161,0.112
43.27,-0.211,0.329,-0.076
43.28,-0.301,0.198,-0.123
43.29,-0.29,0.027,-0.099
43.3,-0.227,-0.06,-0.073
43.31,-0.228,-0.145,0.02
43.32,-0.193,-0.125,0.043
43.33,-0.127,0.044,0.129
43.34,-0.15,0.09,0.151
43.35,-0.179,0.13,0.087
43.36,-0.303,-0.071,0.041
43.37,-0.254,-0.111,-0.094
43.38,-0.34,0.069,-0.045
43.39,-0.363,0.096,0.002
43.4,-0.268,0.151,-0.048
43.41,-0.249,0.275,-0.058
43.42,-0.271,-0.021,0.017
43.43,-0.27,-0.014,0.065
43.44,-0.131,-0.174,0.086
43.45,-0.113,-0.219,0.054
43.46,-0.144,-0.022,0.043
43.47,-0.16,0.069,0.041
43.48,-0.253,0.165,0.029
43.49,-0.221,0.18,-0.047
43.5,-0.266,-0.036,-0.045
43.51,-0.389,-0.165,0.001
43.52,-0.301,-0.035,-0.003
43.53,-0.362,0.159,0.099
43.54,-0.365,0.269,0.064
43.55,-0.151,0.254,-0.1
43.56,-0.062,-0.046,-0.139
43.57,0.035,-0.347,-0.102
43.58,-0.059,-0.282,0.091
43.59,-0.285,-0.242,0.381
43.6,-0.234,0.197,0.238
43.61,-0.315,0.303,0.026
43.62,-0.305,0.12,-0.15
43.63,-0.309,0.079,-0.192
43.64,-0.475,-0.137,-0.048
43.65,-0.339,-0.131,-0.007
43.66,-0.287,0.05,0.03
43.67,-0.085,0.171,-0.008
43.68,-0.014,0.138,0.019
43.69,-0.089,0.144,0.129
43.7,-0.131,-0.176,0.135
43.71,-0.338,-0.262,0.097
43.72,-0.347,-0.132,0.001
43.73,-0.289,-0.069,0.007
43.74,-0.393,0.255,0.004
43.75,-0.299,0.26,-0.098
43.76,-0.276,0.054,-0.055
43.77,-0.204,0.04,-0.099
43.78,-0.193,-0.103,-0.003
43.79,-0.163,-0.086,0.044
43.8,-0.132,0.179,0.071
43.81,-0.181,0.131,0.077
43.82,-0.119,0.057,-0.037
43.83,-0.206,-0.078,0.03
43.84,-0.344,-0.266,0.151
43.85,-0.251,-0.113,0.078
43.86,-0.323,-0.085,0.004
43.87,-0.365,0.067,-0.03
43.88,-0.259,0.3,-0.133
43.89,-0.242,0.21,-0.033
43.9,-0.157,-0.033,-0.051
43.91,-0.156,-0.007,-0.031
43.92,-0.139,-0.149,0.043
43.93,-0.137,-0.052,0.079
43.94,-0.204,0.148,0.14
43.95,-0.19,0.068,0.137
43.96,-0.313,0.08,0.045
43.97,-0.383,-0.088,-0.06
43.98,-0.363,-0.205,-0.091
43.99,-0.391,0.015,-0.033
44.0,-0.279,0.099,-0.016
44.01,-0.183,0.101,-0.03
44.02,-0.205,0.275,-0.047
44.03,-0.145,0.137,-0.024
44.04,-0.102,-0.081,0.046
44.05,-0.118,-0.053,0.037
44.06,-0.207,-0.124,0.111
44.07,-0.231,-0.019,0.106
44.08,-0.227,0.171,0.035
44.09,-0.362,-0.062,0.02
44.1,-0.304,-0.019,-0.1
44.11,-0.234,-0.16,-0.104
44.12,-0.291,-0.067,0.052
44.13,-0.269,0.259,0.061
44.14,-0.274,0.354,0.055
44.15,-0.171,0.292,-0.092
44.16,-0.071,0.038,-0.178
44.17,-0.017,-0.345,-0.062
44.18,-0.156,-0.419,0.121
44.19,-0.359,-0.149,0.328
44.2,-0.324,-0.081,0.271
44.21,-0.276,0.27,-0.034
44.22,-0.268,0.256,-0.212
44.23,-0.151,-0.031,-0.875
44.24,-0.349,0.018,-0.064
44.25,-0.365,-0.07,0.018
44.26,-0.205,0.045,0.015
44.27,-0.142,0.19,-0.011
44.28,-0.0,-0.0,-0.851
44.29,-0.194,-0.286,0.158
44.3,-0.294,0.031,0.116
44.31,-0.349,0.149,0.047
44.32,-0.237,0.309,-0.091
44.33,-0.242,0.32,-0.144
44.34,-0.305,-0.012,-0.041
44.35,-0.216,-0.057,-0.017
44.36,-0.16,-0.1,0.011
44.37,-0.192,-0.114,0.08
44.38,-0.155,0.025,0.114
44.39,-0.207,0.068,0.128
44.4,-0.203,-0.033,0.093
44.41,-0.0,-0.0,-0.847
44.42,-0.366,0.352,-0.006
44.43,-0.201,0.145,-0.138
44.44,-0.057,0.012,-0.188
44.45,-0.094,-0.231,0.005
44.46,-0.028,-0.462,0.184
44.47,-0.21,-0.172,0.329
44.48,-0.214,0.043,0.299
44.49,-0.191,0.193,0.065
44.5,-0.289,0.31,-0.12
44.51,-0.325,0.032,-0.166
44.52,-0.395,-0.051,-0.11
44.53,-0.49,0.018,-0.008
44.54,-0.291,-0.032,-0.019
44.55,-0.206,0.206,-0.005
44.56,-0.144,0.198,0.001
44.57,-0.036,-0.005,0.072
44.58,-0.081,-0.121,0.113
44.59,-0.188,-0.198,0.167
44.6,-0.223,-0.232,0.113
44.61,-0.241,-0.0,0.032
44.62,-0.265,0.025,0.04
44.63,-0.351,0.282,0.037
44.64,-0.42,0.122,0.02
44.65,-0.421,0.0,-0.008
44.66,-0.331,-0.031,-0.118
44.67,-0.244,0.036,-0.087
44.68,-0.174,0.032,-0.002
44.69,-0.043,0.097,0.0
44.7,-0.025,0.083,0.039
44.71,-0.034,-0.176,0.079
44.72,-0.172,-0.09,0.193
44.73,-0.298,-0.154,0.225
44.74,-0.329,-0.0,-0.864
44.75,-0.442,0.122,-0.035
44.76,-0.413,0.069,-0.071
44.77,-0.346,0.154,-0.165
44.78,-0.347,0.084,-0.066
44.79,-0.17,-0.141,-0.011
44.8,-0.017,0.01,0.022
44.81,-0.069,0.015,0.085
44.82,-0.097,0.021,0.133
44.83,-0.062,0.1,0.12
44.84,-0.253,0.059,0.135
44.85,-0.33,-0.114,0.04
44.86,-0.421,-0.064,-0.022
44.87,-0.449,-0.042,-0.021
44.88,-0.362,0.118,-0.068
44.89,-0.298,0.133,-0.007
44.9,-0.201,0.187,-0.021
44.91,-0.208,0.07,-0.011
44.92,-0.163,0.041,0.023
44.93,-0.035,-0.114,0.02
44.94,-0.149,-0.096,0.047
44.95,-0.181,-0.003,0.113
44.96,-0.192,-0.018,0.131
44.97,-0.337,0.158,0.069
44.98,-0.269,-0.052,-0.016
44.99,-0.27,-0.098,-0.104
45.0,-0.375,-0.078,0.011
45.01,-0.0,-0.0,-0.843
45.02,-0.097,-0.075,0.176
45.03,-0.259,-0.13,0.112
45.04,-0.393,-0.3,0.073
45.05,-0.22,-0.198,-0.038
45.06,-0.311,0.073,0.048
45.07,-0.401,0.163,0.078
45.08,-0.264,0.165,-0.034
45.09,-0.259,0.074,-0.061
45.1,-0.23,-0.065,-0.07
45.11,-0.187,0.083,-0.035
45.12,-0.166,0.058,0.039
45.13,-0.103,0.202,0.012
45.14,-0.149,0.11,0.039
45.15,-0.254,-0.081,0.119
45.16,-0.219,-0.237,0.131
45.17,-0.302,-0.234,0.152
45.18,-0.312,-0.206,0.078
45.19,-0.342,-0.005,-0.031
45.2,-0.29,0.239,-0.046
45.21,-0.179,0.248,-0.043
45.22,-0.227,0.221,-0.052
45.23,-0.146,-0.01,-0.08
45.24,-0.165,-0.091,0.014
45.25,-0.183,-0.031,-0.856
45.26,-0.239,0.055,0.142
45.27,-0.272,-0.052,0.149
45.28,-0.271,0.049,0.028
45.29,-0.343,-0.063,0.039
45.3,-0.271,-0.124,0.029
45.31,-0.213,-0.013,-0.013
45.32,-0.275,0.107,0.018
45.33,-0.166,0.214,-0.054
45.34,-0.248,0.191,-0.052
45.35,-0.298,0.106,-0.024
45.36,-0.173,0.112,-0.008
45.37,-0.235,-0.069,0.075
45.38,-0.184,-0.14,0.082
45.39,-0.249,-0.032,0.051
45.4,-0.216,-0.112,0.165
45.41,-0.135,0.049,0.115
45.42,-0.203,0.009,0.025
45.43,-0.226,-0.088,-0.07
45.44,-0.261,-0.077,-0.063
45.45,-0.405,0.243,0.061
45.46,-0.316,0.165,0.068
45.47,-0.353,0.317,0.004
45.48,-0.203,0.228,-0.108
45.49,-0.057,-0.156,-0.854
45.5,-0.127,-0.205,0.01
45.51,-0.15,-0.325,0.206
45.52,-0.242,-0.282,0.274
45.53,-0.218,0.082,0.228
45.54,-0.19,0.132,0.016
45.55,-0.34,0.181,-0.041
45.56,-0.333,0.135,-0.117
45.57,-0.36,-0.092,-0.061
45.58,-0.314,-0.031,-0.029
45.59,-0.247,0.133,-0.031
45.6,-0.223,0.105,0.075
45.61,-0.071,0.228,0.0
45.62,-0.143,0.121,0.046
45.63,-0.238,-0.207,0.113
45.64,-0.212,-0.215,0.097
45.65,-0.269,-0.231,0.1
45.66,-0.205,-0.147,0.025
45.67,-0.289,0.113,0.043
45.68,-0.319,0.183,0.062
45.69,-0.256,0.208,-0.005
45.7,-0.324,0.209,-0.016
45.71,-0.267,-0.017,-0.084
45.72,-0.198,0.042,-0.07
45.73,-0.27,0.062,0.026
45.74,-0.162,-0.049,0.065
45.75,-0.167,0.09,0.061
45.76,-0.11,-0.24,0.073
45.77,-0.165,-0.244,0.092
45.78,-0.284,-0.127,0.152
45.79,-0.238,0.036,0.116
45.8,-0.335,0.15,0.048
45.81,-0.339,0.251,-0.087
45.82,-0.231,0.202,-0.141
45.83,-0.286,-0.003,-0.067
45.84,-0.286,0.0,-0.038
45.85,-0.222,-0.146,0.068
45.86,-0.138,-0.058,0.042
45.87,-0.142,-0.005,0.068
45.88,-0.149,0.016,0.132
45.89,-0.108,0.061,0.091
45.9,-0.283,-0.002,0.088
45.91,-0.341,-0.067,-0.011
45.92,-0.372,0.045,-0.016
45.93,-0.35,0.089,-0.021
45.94,-0.277,0.222,-0.056
45.95,-0.345,0.105,-0.059
45.96,-0.296,0.087,-0.002
45.97,-0.182,0.034,-0.014
45.98,-0.097,-0.083,0.043
45.99,-0.031,-0.141,0.044
46.0,-0.049,-0.115,0.11
46.01,-0.161,0.038,0.16
46.02,-0.253,0.042,0.104
46.03,-0.324,0.102,0.017
46.04,-0.339,-0.042,-0.074
46.05,-0.408,-0.111,-0.052
46.06,-0.416,0.099,-0.022
46.07,-0.385,0.117,0.033
46.08,-0.31,0.295,-0.014
46.09,-0.065,0.263,-0.114
46.1,0.039,-0.097,-0.107
46.11,0.031,-0.272,-0.015
46.12,-0.034,-0.3,0.095
46.13,-0.243,-0.25,-0.862
46.14,-0.31,0.149,0.277
46.15,-0.402,0.203,0.112
46.16,-0.371,0.179,-0.086
46.17,-0.314,0.045,-0.223
46.18,-0.452,-0.147,-0.124
46.19,-0.335,-0.116,-0.019
46.2,-0.217,0.142,0.032
46.21,-0.16,0.185,0.049
46.22,-0.032,0.238,0.015
46.23,-0.063,0.148,0.074
46.24,-0.132,-0.198,0.15
46.25,-0.246,-0.239,0.103
46.26,-0.371,-0.222,0.111
46.27,-0.313,-0.148,0.013
46.28,-0.335,0.238,0.027
46.29,-0.342,0.25,-0.859
46.3,-0.337,0.157,-0.08
46.31,-0.312,0.059,-0.057
46.32,-0.181,-0.058,-0.027
46.33,-0.194,-0.039,-0.001
46.34,-0.152,0.075,0.032
46.35,-0.111,0.065,0.103
46.36,-0.0,-0.0,-0.834
46.37,-0.359,-0.065,-0.014
46.38,-0.252,0.183,-0.023
46.39,-0.191,0.191,-0.03
46.4,-0.216,0.304,0.003
46.41,-0.121,0.119,0.003
46.42,-0.04,0.024,-0.025
46.43,-0.125,-0.132,0.042
46.44,-0.19,-0.211,0.126
46.45,-0.269,0.014,0.193
46.46,-0.367,-0.025,0.167
46.47,-0.343,0.001,0.049
46.48,-0.267,0.047,-0.081
46.49,-0.262,-0.153,-0.05
46.5,-0.285,0.016,0.023
46.51,-0.2,0.239,0.054
46.52,-0.249,0.22,0.061
46.53,-0.222,0.324,-0.053
46.54,-0.078,0.169,-0.148
46.55,-0.125,-0.268,-0.001
46.56,-0.218,-0.311,0.108
46.57,-0.0,-0.0,-0.83
46.58,-0.276,0.108,-0.035
46.59,-0.345,0.089,-0.065
46.6,-0.327,-0.117,-0.025
46.61,-0.263,-0.04,0.055
46.62,-0.193,0.15,0.093
46.63,-0.164,0.125,-0.837
46.64,-0.145,0.011,0.091
46.65,-0.123,-0.063,0.03
46.66,-0.164,-0.372,0.129
46.67,-0.258,-0.226,0.125
46.68,-0.291,0.015,0.1
46.69,-0.372,0.094,0.066
46.7,-0.297,0.355,-0.037
46.71,-0.214,0.251,-0.067
46.72,-0.271,0.009,-0.023
46.73,-0.243,-0.007,0.002
46.74,-0.197,-0.078,0.048
46.75,-0.179,-0.156,0.071
46.76,-0.198,0.13,0.1
46.77,-0.175,-0.027,0.17
46.78,-0.209,0.001,0.111
46.79,-0.0,-0.0,-0.823
46.8,-0.403,0.197,0.152
46.81,-0.331,0.179,0.005
46.82,-0.147,0.157,-0.136
46.83,0.019,-0.272,-0.06
46.84,-0.019,-0.36,0.061
46.85,-0.191,-0.24,0.243
46.86,-0.161,-0.062,0.287
46.87,-0.208,0.26,0.146
46.88,-0.338,0.32,0.008
46.89,-0.289,0.088,-0.09
46.9,-0.384,-0.051,-0.103
46.91,-0.437,-0.137,0.001
46.92,-0.418,-0.086,0.021
46.93,-0.313,0.126,0.07
46.94,-0.11,0.208,0.036
46.95,0.02,0.228,0.045
46.96,-0.072,-0.013,0.073
46.97,-0.098,-0.271,0.11
46.98,-0.243,-0.195,0.131
46.99,-0.268,-0.083,0.099
47.0,-0.363,0.052,0.077
47.01,-0.325,0.315,-0.008
47.02,-0.373,0.222,-0.046
47.03,-0.453,0.021,-0.031
47.04,-0.235,-0.074,-0.052
47.05,-0.259,-0.144,0.045
47.06,-0.115,-0.038,0.088
47.07,-0.093,0.118,0.08
47.08,-0.067,0.094,0.094
47.09,-0.019,0.04,0.011
47.1,-0.226,-0.103,0.093
47.11,-0.336,-0.229,0.162
47.12,-0.317,-0.017,0.037
47.13,-0.469,0.066,0.037
47.14,-0.342,0.094,-0.056
47.15,-0.265,0.302,-0.051
47.16,-0.26,0.075,-0.011
47.17,-0.164,-0.111,-0.011
47.18,-0.101,-0.074,0.009
47.19,-0.06,-0.118,0.054
47.2,-0.106,0.037,0.114
47.21,-0.169,0.147,0.15
47.22,-0.205,0.102,0.112
47.23,-0.333,0.045,0.016
47.24,-0.396,-0.141,-0.034
47.25,-0.398,-0.125,-0.013
47.26,-0.373,0.026,-0.01
47.27,-0.318,0.136,-0.022
47.28,-0.229,0.17,-0.009
47.29,-0.0,-0.0,-0.834
47.3,-0.416,-0.154,0.365
47.31,-0.333,0.064,0.211
47.32,-0.359,0.236,-0.058
47.33,-0.359,0.126,-0.124
47.34,-0.226,-0.033,-0.136
47.35,-0.288,-0.018,-0.027
47.36,-0.258,-0.092,0.025
47.37,-0.183,0.108,0.068
47.38,-0.121,0.198,0.069
47.39,-0.055,0.149,0.08
47.4,-0.168,0.096,0.102
47.41,-0.18,-0.163,0.099
47.42,-0.42,-0.307,0.082
47.43,-0.461,-0.236,0.009
47.44,-0.267,0.023,0.016
47.45,-0.304,0.13,0.052
47.46,-0.189,0.379,-0.021
47.47,-0.233,0.086,-0.049
47.48,-0.204,0.034,-0.045
47.49,-0.134,-0.031,-0.024
47.5,-0.228,-0.153,0.118
47.51,-0.177,0.144,0.101
47.52,-0.212,0.186,0.074
47.53,-0.219,-0.02,0.05
47.54,-0.186,-0.045,-0.067
