t,ax,ay,az
0.0,-0.245,0.085,0.053
0.01,-0.209,0.319,-0.146
0.02,-0.132,-0.051,-0.182
0.03,-0.298,-0.054,-0.115
0.04,-0.409,-0.067,0.015
0.05,-0.245,-0.052,0.015
0.06,-0.239,0.219,-0.038
0.07,-0.226,0.198,-0.01
0.08,-0.123,0.183,0.037
0.09,-0.185,0.045,0.059
0.1,-0.333,-0.189,0.059
0.11,-0.314,-0.363,0.035
0.12,-0.146,-0.066,-0.053
0.13,-0.226,-0.016,0.023
0.14,-0.259,0.176,0.033
0.15,-0.243,0.286,-0.031
0.16,-0.303,0.039,-0.006
0.17,-0.228,0.024,-0.084
0.18,-0.302,0.062,-0.058
0.19,-0.244,-0.135,-0.008
0.2,-0.164,0.291,-0.03
0.21,-0.177,0.104,-0.031
0.22,-0.199,-0.161,0.033
0.23,-0.207,-0.104,0.036
0.24,-0.216,-0.284,0.159
0.25,-0.181,-0.185,0.099
0.26,-0.314,0.133,0.03
0.27,-0.335,0.092,-0.036
0.28,-0.227,0.323,-0.111
0.29,-0.268,0.162,-0.077
0.3,-0.166,-0.076,-0.057
0.31,-0.195,-0.025,-0.051
0.32,-0.248,-0.075,0.025
0.33,-0.222,-0.095,0.081
0.34,-0.237,0.106,0.077
0.35,-0.181,0.038,0.082
0.36,-0.252,-0.142,-0.002
0.37,-0.279,0.018,-0.036
0.38,-0.281,-0.041,-0.031
0.39,-0.303,0.123,-0.007
0.4,-0.209,0.235,-0.05
0.41,-0.22,0.132,-0.06
0.42,-0.305,0.166,-0.079
0.43,-0.234,0.021,-0.033
0.44,-0.198,-0.155,0.031
0.45,-0.212,-0.062,0.035
0.46,-0.201,-0.106,0.047
0.47,-0.136,-0.122,0.047
0.48,-0.154,0.145,0.041
0.49,-0.266,0.04,0.085
0.5,-0.254,-0.024,-0.036
0.51,-0.241,-0.025,-0.101
0.52,-0.336,0.035,0.008
0.53,-0.333,0.178,0.017
0.54,-0.363,0.281,0.017
0.55,-0.27,0.131,-0.083
0.56,-0.092,0.002,-0.172
0.57,-0.141,-0.226,-0.071
0.58,-0.078,-0.437,0.123
0.59,-0.221,-0.161,0.265
0.6,-0.252,0.009,0.268
0.61,-0.124,0.132,-0.004
0.62,-0.287,0.269,-0.123
0.63,-0.327,0.091,-0.187
0.64,-0.342,0.0,-0.104
0.65,-0.427,0.018,-0.044
0.66,-0.34,0.005,-0.009
0.67,-0.266,0.082,0.017
0.68,-0.136,0.206,-0.025
0.69,-0.06,-0.004,0.051
0.7,-0.091,-0.094,0.045
0.71,-0.185,-0.153,0.067
0.72,-0.231,-0.244,0.046
0.73,-0.202,0.024,-0.031
0.74,-0.336,0.086,0.055
0.75,-0.315,0.23,-0.018
0.76,-0.4,0.216,-0.004
0.77,-0.408,0.008,-0.031
0.78,-0.247,-0.026,-0.143
0.79,-0.251,-0.068,-0.06
0.8,-0.197,-0.096,0.069
0.81,-0.07,0.089,0.025
0.82,-0.062,0.139,0.033
0.83,-0.104,-0.234,0.041
0.84,-0.194,0.024,0.069
0.85,-0.282,-0.15,0.121
0.86,-0.371,-0.064,0.058
0.87,-0.455,0.202,-0.034
0.88,-0.349,0.094,-0.112
0.89,-0.286,0.145,-0.171
0.9,-0.229,0.109,-0.089
0.91,-0.193,-0.135,0.042
0.92,-0.128,-0.098,0.019
0.93,-0.076,0.011,0.013
0.94,-0.147,-0.045,0.091
0.95,-0.144,0.168,0.074
0.96,-0.205,0.049,0.089
0.97,-0.312,-0.047,0.017
0.98,-0.373,-0.016,-0.082
0.99,-0.444,-0.088,-0.029
1.0,-0.347,0.018,-0.072
1.01,-0.282,0.245,-0.075
1.02,-0.239,0.1,-0.039
1.03,-0.178,0.161,-0.063
1.04,-0.203,0.124,0.023
1.05,-0.058,-0.111,0.045
1.06,-0.077,-0.122,0.026
1.07,-0.144,-0.166,0.086
1.08,-0.165,-0.091,0.104
1.09,-0.406,0.124,0.077
1.1,-0.314,0.105,-0.018
1.11,-0.3,-0.079,-0.128
1.12,-0.44,0.018,-0.09
1.13,-0.31,0.012,-0.023
1.14,-0.267,0.144,0.031
1.15,-0.263,0.349,-0.037
1.16,-0.092,0.146,-0.116
1.17,-0.004,-0.071,-0.129
1.18,-0.013,-0.242,-0.025
1.19,-0.161,-0.378,0.231
1.2,-0.281,-0.06,0.34
1.21,-0.322,0.145,0.169
1.22,-0.372,0.088,-0.074
1.23,-0.293,0.202,-0.237
1.24,-0.279,0.01,-0.223
1.25,-0.383,-0.176,-0.053
1.26,-0.292,0.024,-0.038
1.27,-0.206,0.131,0.021
1.28,-0.146,0.19,0.042
1.29,-0.036,0.264,0.023
1.3,-0.092,0.035,0.126
1.31,-0.173,-0.178,0.072
1.32,-0.364,-0.275,0.09
1.33,-0.308,-0.257,0.002
1.34,-0.324,0.064,-0.005
1.35,-0.358,0.186,0.006
1.36,-0.244,0.214,-0.08
1.37,-0.319,0.176,-0.073
1.38,-0.213,-0.073,-0.075
1.39,-0.141,-0.008,-0.074
1.4,-0.207,0.043,0.01
1.41,-0.131,0.021,0.041
1.42,-0.14,0.24,-0.004
1.43,-0.217,-0.024,0.044
1.44,-0.207,-0.192,0.068
1.45,-0.294,-0.149,0.077
1.46,-0.367,-0.158,0.075
1.47,-0.284,-0.114,-0.013
1.48,-0.312,0.234,-0.051
1.49,-0.197,0.209,-0.058
1.5,-0.256,0.167,-0.079
1.51,-0.176,0.014,-0.079
1.52,-0.141,-0.063,-0.014
1.53,-0.204,0.062,0.061
1.54,-0.172,-0.026,0.071
1.55,-0.216,0.064,0.068
1.56,-0.236,-0.037,0.059
1.57,-0.342,-0.05,0.026
1.58,-0.385,-0.195,0.008
1.59,-0.31,0.001,-0.012
1.6,-0.258,0.102,-0.018
1.61,-0.207,0.151,-0.101
1.62,-0.25,0.308,-0.076
1.63,-0.218,0.078,-0.03
1.64,-0.165,0.176,-0.009
1.65,-0.177,-0.121,-0.008
1.66,-0.185,-0.238,0.008
1.67,-0.214,-0.057,0.071
1.68,-0.315,-0.063,0.15
1.69,-0.268,0.044,0.091
1.7,-0.187,0.102,-0.041
1.71,-0.217,-0.058,-0.097
1.72,-0.258,-0.012,-0.102
1.73,-0.289,0.095,-0.01
1.74,-0.281,0.174,0.056
1.75,-0.29,0.308,-0.025
1.76,-0.226,0.243,-0.121
1.77,-0.038,-0.156,-0.177
1.78,-0.217,-0.194,-0.022
1.79,-0.258,-0.314,0.192
1.8,-0.278,-0.297,0.327
1.81,-0.202,0.162,0.165
1.82,-0.111,0.062,-0.048
1.83,-0.244,0.219,-0.114
1.84,-0.244,0.061,-0.176
1.85,-0.311,-0.106,-0.058
1.86,-0.354,0.035,-0.055
1.87,-0.373,0.091,-0.049
1.88,-0.272,0.111,0.012
1.89,-0.183,0.234,-0.048
1.9,-0.203,0.049,0.077
1.91,-0.168,-0.265,0.061
1.92,-0.133,-0.21,0.028
1.93,-0.167,-0.198,0.059
1.94,-0.16,0.012,0.054
1.95,-0.249,0.242,0.044
1.96,-0.267,0.236,-0.044
1.97,-0.328,0.206,-0.097
1.98,-0.422,0.079,-0.109
1.99,-0.355,-0.206,-0.062
2.0,-0.277,0.039,-0.052
2.01,-0.194,0.072,0.017
2.02,-0.128,0.085,0.021
2.03,-0.023,0.075,0.031
2.04,-0.062,-0.09,0.061
2.05,-0.149,-0.272,0.117
2.06,-0.26,-0.124,0.143
2.07,-0.304,-0.09,0.062
2.08,-0.442,0.139,-0.019
2.09,-0.41,0.251,-0.062
2.1,-0.24,0.093,-0.135
2.11,-0.256,0.103,-0.136
2.12,-0.257,-0.068,-0.054
2.13,-0.155,-0.136,-0.018
2.14,-0.064,0.001,0.015
2.15,-0.123,0.047,0.095
2.16,-0.103,0.048,0.116
2.17,-0.183,0.093,0.059
2.18,-0.357,-0.119,0.034
2.19,-0.327,-0.034,-0.09
2.2,-0.362,0.058,-0.071
2.21,-0.392,0.055,0.002
2.22,-0.268,0.198,-0.089
2.23,-0.245,0.177,-0.1
2.24,-0.264,0.066,-0.02
2.25,-0.174,-0.018,0.013
2.26,-0.068,-0.08,0.024
2.27,-0.092,-0.225,0.074
2.28,-0.17,-0.036,0.08
2.29,-0.198,0.026,0.105
2.3,-0.282,0.087,0.068
2.31,-0.273,0.217,-0.057
2.32,-0.315,-0.11,-0.108
2.33,-0.38,-0.079,-0.072
2.34,-0.363,0.024,-0.016
2.35,-0.304,0.104,0.08
2.36,-0.319,0.265,0.023
2.37,-0.14,0.132,-0.121
2.38,0.004,-0.11,-0.169
2.39,-0.012,-0.255,-0.058
2.4,-0.24,-0.277,0.194
2.41,-0.247,-0.211,0.29
2.42,-0.159,0.254,0.152
2.43,-0.35,0.19,0.003
2.44,-0.307,0.143,-0.154
2.45,-0.335,0.041,-0.188
2.46,-0.433,-0.162,-0.036
2.47,-0.346,-0.015,-0.015
2.48,-0.264,0.121,-0.056
2.49,-0.113,0.066,-0.015
2.5,-0.007,0.276,-0.052
2.51,-0.1,0.103,0.052
2.52,-0.135,-0.222,0.071
2.53,-0.26,-0.17,0.082
2.54,-0.274,-0.114,0.066
2.55,-0.319,-0.081,0.043
2.56,-0.39,0.26,-0.022
2.57,-0.324,0.144,-0.093
2.58,-0.354,0.095,-0.076
2.59,-0.253,-0.043,-0.055
2.6,-0.164,-0.108,-0.016
2.61,-0.162,-0.018,0.028
2.62,-0.145,0.092,0.035
2.63,-0.103,0.089,0.034
2.64,-0.141,0.1,-0.004
2.65,-0.255,-0.073,0.051
2.66,-0.284,-0.186,0.073
2.67,-0.283,0.004,0.007
2.68,-0.428,-0.124,-0.004
2.69,-0.324,0.072,-0.07
2.7,-0.158,0.262,-0.071
2.71,-0.215,0.046,0.007
2.72,-0.193,0.028,-0.06
2.73,-0.17,0.008,-0.049
2.74,-0.164,-0.081,0.021
2.75,-0.186,0.062,0.018
2.76,-0.176,0.1,0.092
2.77,-0.22,0.009,0.07
2.78,-0.283,0.026,0.018
2.79,-0.35,-0.135,-0.022
2.8,-0.354,-0.17,-0.049
2.81,-0.329,0.096,-0.014
2.82,-0.222,0.114,-0.029
2.83,-0.227,0.268,-0.075
2.84,-0.215,0.218,-0.051
2.85,-0.182,0.079,0.006
2.86,-0.153,-0.052,-0.004
2.87,-0.127,-0.188,0.011
2.88,-0.173,-0.21,0.073
2.89,-0.255,0.023,0.139
2.9,-0.305,0.059,0.088
2.91,-0.334,0.09,-0.019
2.92,-0.222,-0.029,-0.128
2.93,-0.254,-0.094,-0.076
2.94,-0.338,-0.043,-0.027
2.95,-0.233,0.197,0.024
2.96,-0.264,0.277,0.077
2.97,-0.231,0.291,-0.072
2.98,-0.092,0.111,-0.162
2.99,-0.106,-0.292,-0.06
3.0,-0.073,-0.323,0.023
3.01,-0.312,-0.161,0.25
3.02,-0.319,-0.177,0.308
3.03,-0.223,0.32,0.005
3.04,-0.295,0.165,-0.125
3.05,-0.183,-0.023,-0.204
3.06,-0.292,0.051,-0.141
3.07,-0.44,-0.072,0.031
3.08,-0.234,0.006,0.01
3.09,-0.226,0.335,0.017
3.1,-0.116,0.123,0.008
3.11,-0.079,0.129,0.012
3.12,-0.176,-0.083,0.071
3.13,-0.257,-0.39,0.103
3.14,-0.403,-0.154,0.04
3.15,-0.244,-0.191,-0.03
3.16,-0.258,0.087,-0.02
3.17,-0.249,0.354,-0.022
3.18,-0.269,0.196,-0.027
3.19,-0.291,0.03,-0.038
3.2,-0.177,0.068,-0.093
3.21,-0.236,-0.068,0.019
3.22,-0.212,0.069,0.052
3.23,-0.196,0.227,0.001
3.24,-0.238,-0.018,-0.008
3.25,-0.168,-0.06,-0.071
3.26,-0.178,-0.241,0.021
3.27,-0.225,-0.314,0.101
3.28,-0.228,-0.02,0.056
3.29,-0.339,0.047,0.079
3.3,-0.312,0.185,-0.005
3.31,-0.172,0.382,-0.106
3.32,-0.238,0.092,-0.04
3.33,-0.237,0.028,-0.091
3.34,-0.24,-0.102,-0.04
3.35,-0.27,-0.116,0.012
3.36,-0.19,-0.083,0.06
3.37,-0.206,0.11,0.101
3.38,-0.138,-0.133,0.101
3.39,-0.234,0.033,0.026
3.4,-0.316,-0.078,0.006
3.41,-0.322,-0.12,-0.011
3.42,-0.341,0.237,-0.017
3.43,-0.292,0.157,-0.065
3.44,-0.257,0.211,-0.098
3.45,-0.275,0.148,-0.091
3.46,-0.264,0.026,-0.037
3.47,-0.141,-0.115,0.009
3.48,-0.114,-0.14,0.058
3.49,-0.143,-0.196,0.094
3.5,-0.151,0.011,0.085
3.51,-0.207,0.133,0.05
3.52,-0.221,0.046,0.009
3.53,-0.273,0.072,-0.086
3.54,-0.375,-0.036,-0.079
3.55,-0.354,-0.135,-0.011
3.56,-0.312,0.224,0.025
3.57,-0.344,0.215,0.015
3.58,-0.281,0.201,-0.054
3.59,-0.108,0.125,-0.157
3.6,-0.019,-0.196,-0.078
3.61,-0.042,-0.362,0.05
3.62,-0.189,-0.28,0.232
3.63,-0.268,-0.13,0.325
3.64,-0.176,0.251,0.055
3.65,-0.329,0.229,-0.079
3.66,-0.304,0.054,-0.196
3.67,-0.394,0.072,-0.162
3.68,-0.431,-0.082,-0.019
3.69,-0.332,-0.02,-0.028
3.7,-0.271,0.203,-0.028
3.71,-0.123,0.128,0.001
3.72,-0.042,0.075,0.007
3.73,-0.056,0.016,0.076
3.74,-0.123,-0.275,0.094
3.75,-0.241,-0.153,0.048
3.76,-0.236,-0.0,-0.006
3.77,-0.312,0.001,0.022
3.78,-0.325,0.348,-0.05
3.79,-0.377,0.12,-0.035
3.8,-0.411,0.013,-0.089
3.81,-0.281,-0.043,-0.127
3.82,-0.252,-0.123,0.004
3.83,-0.13,0.007,0.008
3.84,-0.1,0.245,0.022
3.85,-0.032,0.006,0.042
3.86,-0.025,0.079,-0.032
3.87,-0.225,-0.163,0.074
3.88,-0.281,-0.327,0.205
3.89,-0.302,0.067,0.056
3.9,-0.458,-0.04,0.009
3.91,-0.468,0.086,-0.101
3.92,-0.295,0.208,-0.159
3.93,-0.259,0.197,-0.083
3.94,-0.119,-0.094,-0.057
3.95,-0.138,0.003,-0.022
3.96,-0.025,-0.038,-0.001
3.97,-0.059,0.024,0.085
3.98,-0.159,0.146,0.124
3.99,-0.247,0.027,0.136
4.0,-0.365,-0.027,0.036
4.01,-0.445,-0.138,-0.056
4.02,-0.447,-0.157,-0.08
4.03,-0.367,0.056,-0.028
4.04,-0.232,0.174,-0.046
4.05,-0.115,0.192,-0.069
4.06,-0.159,0.209,-0.064
4.07,-0.175,0.079,-0.009
4.08,-0.054,-0.016,-0.01
4.09,-0.141,-0.104,0.077
4.1,-0.267,-0.063,0.13
4.11,-0.254,-0.059,0.093
4.12,-0.326,0.093,0.055
4.13,-0.284,-0.124,-0.065
4.14,-0.214,-0.067,-0.111
4.15,-0.307,-0.111,-0.028
4.16,-0.316,-0.01,0.089
4.17,-0.285,0.334,0.039
4.18,-0.297,0.313,-0.058
4.19,-0.185,0.219,-0.149
4.2,-0.096,-0.018,-0.175
4.21,-0.123,-0.31,-0.025
4.22,-0.185,-0.396,0.151
4.23,-0.302,-0.095,0.31
4.24,-0.204,0.076,0.247
4.25,-0.185,0.221,-0.015
4.26,-0.257,0.201,-0.2
4.27,-0.295,-0.15,-0.19
4.28,-0.305,-0.067,-0.12
4.29,-0.393,0.075,-0.03
4.3,-0.336,0.028,-0.003
4.31,-0.128,0.287,-0.048
4.32,-0.108,0.198,-0.005
4.33,-0.131,0.071,0.06
4.34,-0.114,-0.117,0.131
4.35,-0.306,-0.329,0.156
4.36,-0.311,-0.175,0.001
4.37,-0.294,-0.066,-0.019
4.38,-0.264,0.009,-0.028
4.39,-0.203,0.304,-0.108
4.4,-0.365,0.049,-0.001
4.41,-0.25,-0.005,-0.032
4.42,-0.249,0.102,-0.072
4.43,-0.235,0.027,0.011
4.44,-0.14,0.151,-0.003
4.45,-0.208,0.209,0.021
4.46,-0.168,-0.023,0.039
4.47,-0.218,-0.187,-0.006
4.48,-0.293,-0.185,0.09
4.49,-0.215,-0.325,0.082
4.5,-0.212,-0.046,0.034
4.51,-0.308,0.147,-0.001
4.52,-0.221,0.175,-0.056
4.53,-0.22,0.291,-0.091
4.54,-0.232,0.146,-0.133
4.55,-0.264,-0.025,-0.036
4.56,-0.213,0.042,0.005
4.57,-0.195,-0.097,0.061
4.58,-0.24,0.032,0.052
4.59,-0.222,-0.048,0.073
4.6,-0.259,-0.179,0.085
4.61,-0.196,-0.004,-0.014
4.62,-0.278,-0.076,-0.01
4.63,-0.332,0.124,-0.035
4.64,-0.202,0.254,-0.072
4.65,-0.245,0.167,-0.033
4.66,-0.325,0.172,-0.051
4.67,-0.266,0.082,-0.006
4.68,-0.205,-0.151,0.034
4.69,-0.227,-0.09,-0.029
4.7,-0.247,-0.129,0.088
4.71,-0.135,-0.093,0.099
4.72,-0.144,0.133,0.019
4.73,-0.213,0.03,-0.026
4.74,-0.139,-0.072,-0.089
4.75,-0.277,0.002,-0.042
4.76,-0.371,0.031,0.071
4.77,-0.358,0.118,0.09
4.78,-0.344,0.345,-0.034
4.79,-0.262,0.229,-0.114
4.8,-0.15,0.02,-0.191
4.81,-0.131,-0.148,-0.107
4.82,-0.082,-0.426,0.079
4.83,-0.128,-0.238,0.268
4.84,-0.268,0.006,0.273
4.85,-0.162,0.099,0.083
4.86,-0.226,0.273,-0.119
4.87,-0.325,0.119,-0.169
4.88,-0.391,-0.109,-0.125
4.89,-0.454,-0.043,-0.027
4.9,-0.328,0.075,0.008
4.91,-0.208,0.124,-0.016
4.92,-0.145,0.236,-0.043
4.93,-0.098,0.071,0.022
4.94,-0.122,-0.067,0.092
4.95,-0.225,-0.239,0.068
4.96,-0.276,-0.265,0.093
4.97,-0.177,-0.062,-0.053
4.98,-0.33,0.087,-0.023
4.99,-0.315,0.137,0.01
5.0,-0.233,0.253,-0.074
5.01,-0.391,0.115,0.007
5.02,-0.275,-0.082,-0.055
5.03,-0.262,0.044,-0.104
5.04,-0.26,0.01,-0.002
5.05,-0.135,0.087,-0.017
5.06,-0.142,0.144,0.015
5.07,-0.107,-0.219,0.028
5.08,-0.156,-0.136,0.077
5.09,-0.268,-0.172,0.19
5.1,-0.198,-0.115,0.084
5.11,-0.319,0.182,-0.019
5.12,-0.365,0.213,-0.088
5.13,-0.268,0.172,-0.177
5.14,-0.346,0.137,-0.149
5.15,-0.278,-0.042,-0.024
5.16,-0.206,-0.082,0.005
5.17,-0.12,-0.058,0.032
5.18,-0.099,-0.071,0.104
5.19,-0.131,0.087,0.145
5.2,-0.172,0.086,0.109
5.21,-0.26,-0.12,0.05
5.22,-0.323,0.005,-0.09
5.23,-0.377,-0.01,-0.071
5.24,-0.368,0.057,-0.056
5.25,-0.327,0.23,-0.093
5.26,-0.334,0.116,-0.05
5.27,-0.243,0.093,-0.041
5.28,-0.147,0.077,-0.002
5.29,-0.092,-0.147,0.056
5.3,-0.12,-0.073,0.067
5.31,-0.152,-0.014,0.074
5.32,-0.101,-0.028,0.081
5.33,-0.302,0.125,0.064
5.34,-0.344,0.005,-0.014
5.35,-0.222,-0.19,-0.094
5.36,-0.344,-0.035,-0.129
5.37,-0.393,-0.025,-0.003
5.38,-0.313,0.199,0.058
5.39,-0.296,0.401,0.017
5.4,-0.17,0.274,-0.087
5.41,-0.016,-0.045,-0.177
5.42,-0.014,-0.231,-0.079
5.43,-0.134,-0.436,0.165
5.44,-0.308,-0.254,0.353
5.45,-0.277,0.113,0.268
5.46,-0.221,0.121,-0.004
5.47,-0.297,0.249,-0.207
5.48,-0.354,0.081,-0.225
5.49,-0.398,-0.094,-0.097
5.5,-0.302,0.047,-0.072
5.51,-0.253,0.08,-0.027
5.52,-0.21,0.046,-0.002
5.53,-0.049,0.304,-0.008
5.54,-0.111,0.07,0.145
5.55,-0.19,-0.16,0.151
5.56,-0.259,-0.208,0.066
5.57,-0.306,-0.259,0.043
5.58,-0.237,-0.102,0.009
5.59,-0.38,0.192,-0.023
5.6,-0.308,0.122,-0.044
5.61,-0.28,0.259,-0.099
5.62,-0.3,0.085,-0.057
5.63,-0.173,-0.056,-0.124
5.64,-0.246,-0.006,-0.017
5.65,-0.212,0.099,0.08
5.66,-0.069,0.116,0.013
5.67,-0.165,0.169,0.07
5.68,-0.146,-0.229,0.057
5.69,-0.239,-0.165,0.102
5.7,-0.342,-0.205,0.117
5.71,-0.283,-0.218,0.046
5.72,-0.403,0.12,-0.055
5.73,-0.312,0.205,-0.116
5.74,-0.254,0.158,-0.108
5.75,-0.221,0.184,-0.087
5.76,-0.174,0.012,-0.079
5.77,-0.107,-0.144,-0.014
5.78,-0.099,0.059,0.052
5.79,-0.155,0.092,0.148
5.8,-0.194,0.039,0.119
5.81,-0.254,0.055,0.024
5.82,-0.335,-0.154,-0.011
5.83,-0.396,-0.156,-0.047
5.84,-0.416,-0.04,-0.027
5.85,-0.323,0.047,-0.022
5.86,-0.241,0.227,-0.077
5.87,-0.197,0.236,-0.088
5.88,-0.127,0.143,-0.033
5.89,-0.131,0.131,0.024
5.9,-0.121,-0.068,0.047
5.91,-0.147,-0.196,0.05
5.92,-0.208,-0.059,0.057
5.93,-0.264,-0.117,0.097
5.94,-0.373,0.048,0.057
5.95,-0.327,0.009,-0.014
5.96,-0.221,-0.104,-0.075
5.97,-0.335,-0.061,-0.066
5.98,-0.285,0.129,-0.019
5.99,-0.246,0.137,0.025
6.0,-0.255,0.387,-0.065
6.01,-0.176,0.279,-0.124
6.02,-0.063,-0.131,-0.149
6.03,-0.103,-0.221,-0.04
6.04,-0.217,-0.367,0.172
6.05,-0.279,-0.202,0.342
6.06,-0.218,0.071,0.203
6.07,-0.265,0.057,-0.009
6.08,-0.257,0.174,-0.195
6.09,-0.261,0.052,-0.187
6.1,-0.361,-0.119,-0.076
6.11,-0.292,0.098,-0.085
6.12,-0.294,0.139,0.007
6.13,-0.206,0.21,0.012
6.14,-0.086,0.304,-0.034
6.15,-0.202,-0.055,0.036
6.16,-0.198,-0.17,0.097
6.17,-0.25,-0.281,0.098
6.18,-0.311,-0.244,0.117
6.19,-0.16,-0.127,-0.004
6.2,-0.275,0.194,-0.006
6.21,-0.267,0.166,-0.009
6.22,-0.269,0.175,-0.073
6.23,-0.365,0.191,-0.067
6.24,-0.219,-0.111,-0.139
6.25,-0.29,0.109,-0.064
6.26,-0.261,0.103,0.004
6.27,-0.141,0.026,0.029
6.28,-0.152,0.052,-0.021
6.29,-0.098,-0.255,0.058
6.3,-0.182,-0.305,0.133
6.31,-0.177,-0.076,0.171
6.32,-0.239,-0.059,0.099
6.33,-0.395,0.169,-0.013
6.34,-0.315,0.329,-0.18
6.35,-0.286,0.104,-0.143
6.36,-0.276,0.132,-0.106
6.37,-0.216,-0.015,-0.088
6.38,-0.238,-0.214,0.026
6.39,-0.173,0.013,0.029
6.4,-0.088,0.043,0.117
6.41,-0.095,0.059,0.116
6.42,-0.175,0.069,0.062
6.43,-0.31,-0.128,0.009
6.44,-0.335,-0.051,-0.066
6.45,-0.387,0.001,-0.016
6.46,-0.322,0.128,0.009
6.47,-0.275,0.187,-0.072
6.48,-0.294,0.159,-0.065
6.49,-0.277,0.012,-0.012
6.5,-0.203,0.027,-0.032
6.51,-0.167,-0.113,0.006
6.52,-0.088,-0.17,0.018
6.53,-0.084,0.039,0.043
6.54,-0.203,0.036,0.121
6.55,-0.269,0.09,0.1
6.56,-0.187,0.111,-0.038
6.57,-0.29,-0.227,-0.041
6.58,-0.369,-0.03,-0.056
6.59,-0.372,0.065,0.001
6.6,-0.425,0.156,0.053
6.61,-0.309,0.398,-0.09
6.62,-0.141,0.199,-0.185
6.63,0.015,-0.169,-0.145
6.64,-0.014,-0.271,-0.04
6.65,-0.151,-0.301,0.237
6.66,-0.223,-0.217,0.377
6.67,-0.22,0.225,0.189
6.68,-0.305,0.173,-0.042
6.69,-0.299,0.114,-0.183
6.7,-0.354,0.088,-0.169
6.71,-0.476,-0.146,-0.027
6.72,-0.402,-0.052,-0.011
6.73,-0.281,0.075,-0.074
6.74,-0.094,0.151,-0.057
6.75,0.01,0.262,-0.033
6.76,-0.13,0.088,0.095
6.77,-0.146,-0.262,0.114
6.78,-0.193,-0.187,0.039
6.79,-0.25,-0.212,0.05
6.8,-0.311,-0.044,0.04
6.81,-0.355,0.275,0.05
6.82,-0.344,0.186,0.004
6.83,-0.358,0.116,-0.096
6.84,-0.296,0.015,-0.158
6.85,-0.226,-0.201,-0.08
6.86,-0.166,0.055,-0.042
6.87,-0.12,0.15,0.031
6.88,-0.104,0.064,0.054
6.89,-0.024,0.152,0.001
6.9,-0.195,-0.094,0.113
6.91,-0.269,-0.204,0.134
6.92,-0.278,-0.134,0.074
6.93,-0.385,0.002,0.002
6.94,-0.428,0.026,-0.112
6.95,-0.372,0.217,-0.095
6.96,-0.2,0.15,-0.069
6.97,-0.109,-0.058,-0.068
6.98,-0.281,0.016,0.033
6.99,-0.088,-0.227,0.002
7.0,-0.075,0.144,0.03
7.01,-0.17,0.096,0.092
7.02,-0.201,0.079,0.112
7.03,-0.351,0.058,0.017
7.04,-0.327,-0.091,-0.079
7.05,-0.354,-0.119,-0.081
7.06,-0.396,-0.006,-0.024
7.07,-0.32,0.102,-0.0
7.08,-0.177,0.136,-0.075
7.09,-0.212,0.238,-0.06
7.1,-0.164,0.113,-0.001
7.11,-0.131,0.026,0.008
7.12,-0.166,-0.067,0.011
7.13,-0.158,-0.25,0.076
7.14,-0.129,0.017,0.065
7.15,-0.3,0.031,0.088
7.16,-0.397,-0.039,0.031
7.17,-0.236,0.114,-0.112
7.18,-0.286,-0.094,-0.05
7.19,-0.318,-0.033,-0.008
7.2,-0.309,0.18,0.012
7.21,-0.294,0.177,0.035
7.22,-0.144,0.293,-0.1
7.23,-0.121,0.083,-0.127
7.24,-0.077,-0.249,-0.065
7.25,-0.128,-0.26,0.065
7.26,-0.295,-0.244,0.279
7.27,-0.285,-0.078,0.219
7.28,-0.28,0.163,0.043
7.29,-0.337,0.214,-0.106
7.3,-0.233,0.053,-0.192
7.31,-0.276,0.018,-0.13
7.32,-0.316,-0.084,-0.048
7.33,-0.266,-0.009,0.013
7.34,-0.217,0.188,0.016
7.35,-0.118,0.167,0.038
7.36,-0.105,0.232,0.013
7.37,-0.219,-0.041,0.079
7.38,-0.236,-0.299,0.025
7.39,-0.281,-0.199,-0.003
7.4,-0.3,-0.167,0.042
7.41,-0.281,0.014,0.016
7.42,-0.237,0.292,-0.01
7.43,-0.248,0.217,-0.022
7.44,-0.288,0.139,-0.081
7.45,-0.173,-0.004,-0.129
7.46,-0.21,-0.076,-0.022
7.47,-0.241,-0.008,0.052
7.48,-0.243,0.196,0.075
7.49,-0.198,-0.076,0.03
7.5,-0.189,-0.074,-0.045
7.51,-0.239,-0.138,0.023
7.52,-0.261,-0.341,0.115
7.53,-0.252,0.031,0.052
7.54,-0.283,0.059,0.027
7.55,-0.209,0.196,-0.075
7.56,-0.184,0.329,-0.123
7.57,-0.274,0.056,-0.033
7.58,-0.218,0.01,-0.03
7.59,-0.266,0.003,-0.029
7.6,-0.251,-0.202,0.089
7.61,-0.226,-0.015,0.031
7.62,-0.21,0.057,0.075
7.63,-0.163,-0.039,0.072
7.64,-0.185,-0.001,-0.003
7.65,-0.326,-0.049,-0.028
7.66,-0.267,-0.048,-0.052
7.67,-0.296,0.183,-0.013
7.68,-0.259,0.215,-0.047
7.69,-0.269,0.18,-0.066
7.7,-0.318,0.19,-0.005
7.71,-0.229,-0.048,0.026
7.72,-0.201,-0.109,0.011
7.73,-0.139,-0.205,0.037
7.74,-0.154,-0.205,0.063
7.75,-0.162,0.001,0.075
7.76,-0.23,0.09,0.082
7.77,-0.272,0.099,-0.0
7.78,-0.24,0.054,-0.161
7.79,-0.349,-0.134,-0.035
7.8,-0.353,0.101,0.001
7.81,-0.329,0.278,0.042
7.82,-0.317,0.122,0.029
7.83,-0.168,0.219,-0.198
7.84,-0.083,-0.09,-0.142
7.85,-0.061,-0.418,0.019
7.86,-0.116,-0.186,0.166
7.87,-0.288,-0.151,0.314
7.88,-0.22,0.106,0.152
7.89,-0.23,0.268,-0.049
7.9,-0.272,0.197,-0.149
7.91,-0.288,-0.057,-0.159
7.92,-0.452,-0.044,-0.084
7.93,-0.299,-0.067,-0.034
7.94,-0.291,0.13,-0.017
7.95,-0.256,0.182,0.038
7.96,-0.058,0.114,-0.026
7.97,-0.125,0.029,0.069
7.98,-0.157,-0.261,0.095
7.99,-0.206,-0.301,0.068
8.0,-0.268,-0.189,0.091
8.01,-0.245,0.051,0.046
8.02,-0.35,0.233,0.014
8.03,-0.271,0.394,-0.075
8.04,-0.364,0.088,-0.058
8.05,-0.337,0.016,-0.132
8.06,-0.296,-0.085,-0.144
8.07,-0.271,-0.231,-0.018
8.08,-0.061,0.126,0.022
8.09,-0.116,0.161,0.073
8.1,-0.094,-0.04,0.063
8.11,-0.053,0.003,-0.007
8.12,-0.225,-0.169,0.125
8.13,-0.238,-0.14,0.066
8.14,-0.346,0.054,0.006
8.15,-0.481,0.097,-0.018
8.16,-0.312,0.207,-0.119
8.17,-0.351,0.169,-0.111
8.18,-0.265,-0.085,-0.064
8.19,-0.165,-0.035,-0.013
8.2,-0.142,-0.147,0.04
8.21,-0.032,-0.087,0.044
8.22,-0.097,0.154,0.085
8.23,-0.145,0.068,0.129
8.24,-0.265,0.101,0.054
8.25,-0.374,-0.066,-0.014
8.26,-0.414,-0.084,-0.072
8.27,-0.393,-0.059,-0.069
8.28,-0.366,0.156,-0.069
8.29,-0.285,0.074,-0.04
8.3,-0.218,0.248,-0.056
8.31,-0.149,0.106,-0.039
8.32,-0.076,-0.077,-0.01
8.33,-0.084,-0.049,-0.026
8.34,-0.123,-0.137,0.071
8.35,-0.17,-0.067,0.158
8.36,-0.314,0.099,0.09
8.37,-0.37,0.113,0.05
8.38,-0.281,-0.048,-0.104
8.39,-0.308,-0.035,-0.167
8.4,-0.369,-0.098,0.013
8.41,-0.299,0.1,0.045
8.42,-0.298,0.288,0.013
8.43,-0.163,0.224,-0.061
8.44,-0.043,0.188,-0.188
8.45,-0.077,-0.099,-0.15
8.46,-0.133,-0.419,0.068
8.47,-0.225,-0.22,0.238
8.48,-0.316,-0.023,0.324
8.49,-0.231,0.029,0.129
8.5,-0.309,0.24,-0.085
8.51,-0.305,0.06,-0.159
8.52,-0.345,-0.051,-0.122
8.53,-0.413,-0.031,-0.058
8.54,-0.28,-0.02,-0.062
8.55,-0.194,0.146,-0.036
8.56,-0.207,0.286,-0.028
8.57,-0.079,0.1,0.044
8.58,-0.094,0.032,0.047
8.59,-0.187,-0.174,0.078
8.6,-0.287,-0.385,0.143
8.61,-0.229,-0.005,0.015
8.62,-0.355,0.011,0.02
8.63,-0.381,0.198,-0.024
8.64,-0.275,0.265,-0.102
8.65,-0.382,0.026,-0.101
8.66,-0.233,-0.057,-0.11
8.67,-0.193,0.031,-0.047
8.68,-0.162,-0.043,0.069
8.69,-0.116,0.176,0.037
8.7,-0.143,0.132,0.063
8.71,-0.079,-0.03,0.011
8.72,-0.172,-0.086,0.025
8.73,-0.363,-0.258,0.101
8.74,-0.34,-0.233,0.05
8.75,-0.413,-0.007,0.014
8.76,-0.304,0.061,-0.003
8.77,-0.205,0.251,-0.092
8.78,-0.24,0.211,-0.058
8.79,-0.191,-0.004,-0.005
8.8,-0.094,-0.011,-0.075
8.81,-0.148,0.112,-0.037
8.82,-0.19,-0.099,0.057
8.83,-0.131,0.082,0.074
8.84,-0.266,0.07,0.041
8.85,-0.344,-0.215,0.046
8.86,-0.339,-0.091,-0.032
8.87,-0.342,-0.105,0.004
8.88,-0.354,-0.018,0.047
8.89,-0.204,0.252,-0.062
8.9,-0.166,0.218,-0.107
8.91,-0.21,0.239,-0.039
8.92,-0.208,0.228,-0.034
8.93,-0.122,-0.061,0.007
8.94,-0.2,-0.171,0.023
8.95,-0.229,-0.171,0.009
8.96,-0.196,-0.171,0.11
8.97,-0.324,0.088,0.12
8.98,-0.334,0.067,0.036
8.99,-0.145,-0.073,-0.125
9.0,-0.269,-0.049,-0.091
9.01,-0.321,0.003,0.073
9.02,-0.259,0.134,0.092
9.03,-0.336,0.365,0.029
9.04,-0.233,0.188,-0.143
9.05,-0.121,0.061,-0.187
9.06,-0.164,-0.188,-0.077
9.07,-0.168,-0.44,0.092
9.08,-0.24,-0.172,0.2
9.09,-0.256,-0.036,0.226
9.1,-0.196,0.109,0.076
9.11,-0.184,0.343,-0.12
9.12,-0.194,0.071,-0.159
9.13,-0.32,-0.129,-0.09
9.14,-0.388,0.033,-0.076
9.15,-0.366,0.029,0.008
9.16,-0.297,0.157,0.066
9.17,-0.125,0.324,-0.047
9.18,-0.21,0.041,-0.01
9.19,-0.189,-0.162,0.037
9.2,-0.122,-0.236,0.057
9.21,-0.262,-0.317,0.127
9.22,-0.177,-0.099,0.001
9.23,-0.281,0.172,-0.007
9.24,-0.22,0.231,-0.065
9.25,-0.294,0.292,-0.043
9.26,-0.408,0.005,0.022
9.27,-0.243,-0.046,-0.093
9.28,-0.334,-0.045,0.016
9.29,-0.302,-0.035,-0.001
9.3,-0.19,0.16,-0.004
9.31,-0.149,0.059,0.008
9.32,0.004,-0.121,-0.036
9.33,-0.182,-0.184,0.032
9.34,-0.278,-0.173,0.114
9.35,-0.217,-0.093,0.068
9.36,-0.288,0.217,0.002
9.37,-0.301,0.247,-0.034
9.38,-0.295,0.16,-0.106
9.39,-0.274,0.135,-0.111
9.4,-0.303,-0.074,-0.065
9.41,-0.271,-0.138,0.007
9.42,-0.186,-0.023,-0.012
9.43,-0.1,-0.014,0.064
9.44,-0.117,0.049,0.095
9.45,-0.192,0.159,0.063
9.46,-0.242,-0.115,0.061
9.47,-0.229,-0.03,-0.039
9.48,-0.36,-0.0,-0.035
9.49,-0.307,0.065,-0.042
9.5,-0.326,0.184,-0.073
9.51,-0.386,0.167,-0.05
9.52,-0.275,0.042,-0.01
9.53,-0.236,0.067,0.021
9.54,-0.131,-0.157,0.006
9.55,-0.108,-0.138,0.006
9.56,-0.113,-0.05,0.106
9.57,-0.112,-0.046,0.092
9.58,-0.283,0.169,0.073
9.59,-0.256,0.074,-0.063
9.6,-0.256,-0.068,-0.144
9.61,-0.372,0.005,-0.093
9.62,-0.358,0.005,0.028
9.63,-0.383,0.109,0.096
9.64,-0.329,0.322,0.006
9.65,-0.157,0.146,-0.099
9.66,-0.02,-0.066,-0.184
9.67,0.016,-0.216,-0.083
9.68,-0.121,-0.331,0.143
9.69,-0.204,-0.201,0.29
9.7,-0.264,0.171,0.218
9.71,-0.313,0.12,0.044
9.72,-0.244,0.261,-0.166
9.73,-0.333,0.098,-0.191
9.74,-0.436,-0.203,-0.128
9.75,-0.394,0.048,-0.075
9.76,-0.274,-0.026,0.022
9.77,-0.124,0.162,0.003
9.78,-0.045,0.189,0.037
9.79,-0.143,0.037,0.118
9.8,-0.112,-0.113,0.112
9.81,-0.212,-0.224,0.081
9.82,-0.314,-0.198,0.069
9.83,-0.295,0.019,-0.028
9.84,-0.38,0.169,-0.026
9.85,-0.318,0.185,-0.113
9.86,-0.337,0.188,-0.101
9.87,-0.38,-0.025,-0.042
9.88,-0.217,-0.148,-0.035
9.89,-0.099,0.017,-0.003
9.9,-0.134,0.116,0.071
9.91,-0.112,0.103,0.037
9.92,-0.044,0.152,-0.024
9.93,-0.125,-0.102,0.024
9.94,-0.291,-0.168,0.052
9.95,-0.398,-0.16,0.126
9.96,-0.358,-0.204,0.023
9.97,-0.409,0.136,-0.051
9.98,-0.36,0.141,-0.057
9.99,-0.167,0.145,-0.092
10.0,-0.184,0.149,-0.1
10.01,-0.139,0.007,-0.02
10.02,-0.093,-0.131,-0.033
10.03,-0.101,0.101,0.043
10.04,-0.157,0.003,0.138
10.05,-0.219,0.136,0.153
10.06,-0.349,0.04,0.07
10.07,-0.418,-0.222,-0.031
10.08,-0.368,-0.12,-0.093
10.09,-0.39,-0.042,-0.058
10.1,-0.314,0.056,-0.017
10.11,-0.146,0.236,-0.089
10.12,-0.133,0.254,-0.092
10.13,-0.171,0.143,-0.024
10.14,-0.141,0.047,0.043
10.15,-0.16,-0.152,0.081
10.16,-0.211,-0.197,0.075
10.17,-0.232,-0.034,0.103
10.18,-0.247,-0.012,0.081
10.19,-0.372,0.112,-0.01
10.2,-0.316,0.076,-0.089
10.21,-0.125,-0.234,-0.151
10.22,-0.266,0.029,-0.061
10.23,-0.3,0.0,0.039
10.24,-0.28,0.21,0.07
10.25,-0.284,0.392,0.01
10.26,-0.143,0.236,-0.151
10.27,-0.121,-0.164,-0.122
10.28,-0.143,-0.307,0.001
10.29,-0.222,-0.374,0.222
10.3,-0.353,-0.216,0.307
10.31,-0.234,0.15,0.14
10.32,-0.222,0.163,-0.037
10.33,-0.2,0.195,-0.19
10.34,-0.258,0.062,-0.194
10.35,-0.416,-0.187,-0.058
10.36,-0.297,0.064,-0.09
10.37,-0.282,0.172,-0.031
10.38,-0.197,0.136,0.003
10.39,-0.087,0.361,0.01
10.4,-0.194,0.019,0.126
10.41,-0.17,-0.253,0.07
10.42,-0.268,-0.282,0.08
10.43,-0.284,-0.277,0.072
10.44,-0.25,-0.048,-0.014
10.45,-0.269,0.201,-0.034
10.46,-0.237,0.208,-0.076
10.47,-0.315,0.258,-0.07
10.48,-0.321,0.065,-0.076
10.49,-0.18,-0.086,-0.081
10.5,-0.251,0.077,-0.014
10.51,-0.22,0.068,0.08
10.52,-0.172,0.099,0.064
10.53,-0.086,0.094,-0.027
10.54,-0.198,-0.2,0.014
10.55,-0.27,-0.408,0.11
10.56,-0.277,-0.146,0.122
10.57,-0.281,-0.11,0.114
10.58,-0.308,0.219,-0.019
10.59,-0.254,0.378,-0.168
10.6,-0.271,0.173,-0.135
10.61,-0.224,0.143,-0.094
10.62,-0.203,-0.033,-0.054
10.63,-0.175,-0.173,-0.02
10.64,-0.199,-0.055,0.033
10.65,-0.226,0.017,0.132
10.66,-0.167,0.041,0.153
10.67,-0.189,0.063,0.059
10.68,-0.247,-0.08,-0.021
10.69,-0.304,-0.041,-0.109
10.7,-0.388,0.056,-0.021
10.71,-0.267,0.111,-0.032
10.72,-0.251,0.202,-0.078
10.73,-0.332,0.167,-0.054
10.74,-0.139,0.043,-0.042
10.75,-0.206,-0.009,0.026
10.76,-0.228,-0.092,0.056
10.77,-0.147,-0.174,0.066
10.78,-0.098,-0.034,0.035
10.79,-0.174,-0.035,0.061
10.8,-0.282,0.123,0.049
10.81,-0.217,0.055,-0.028
10.82,-0.264,-0.076,-0.049
10.83,-0.409,-0.018,-0.017
10.84,-0.317,0.087,0.001
10.85,-0.376,0.158,0.064
10.86,-0.309,0.302,-0.106
10.87,-0.167,0.216,-0.172
10.88,-0.1,-0.176,-0.137
10.89,0.008,-0.265,-0.044
10.9,-0.13,-0.331,0.238
10.91,-0.229,-0.113,0.34
10.92,-0.142,0.193,0.162
10.93,-0.278,0.147,0.015
10.94,-0.294,0.204,-0.19
10.95,-0.382,0.08,-0.177
10.96,-0.504,-0.187,-0.044
10.97,-0.346,0.047,-0.11
10.98,-0.319,0.037,-0.02
10.99,-0.17,0.15,0.005
11.0,0.015,0.219,-0.027
11.01,-0.086,0.049,0.071
11.02,-0.125,-0.215,0.077
11.03,-0.293,-0.177,0.075
11.04,-0.192,-0.157,0.028
11.05,-0.299,0.161,0.012
11.06,-0.378,0.255,-0.022
11.07,-0.291,0.084,-0.032
11.08,-0.411,0.188,-0.092
11.09,-0.28,-0.125,-0.112
11.1,-0.26,-0.154,-0.092
11.11,-0.151,0.094,-0.017
11.12,-0.174,0.093,0.098
11.13,-0.095,0.096,0.055
11.14,-0.07,0.046,-0.027
11.15,-0.139,-0.291,0.091
11.16,-0.26,-0.072,0.141
11.17,-0.306,-0.035,0.15
11.18,-0.401,-0.074,0.023
11.19,-0.309,0.278,-0.216
11.2,-0.274,0.154,-0.189
11.21,-0.316,0.028,-0.075
11.22,-0.238,0.065,-0.035
11.23,-0.18,-0.113,0.026
11.24,-0.133,-0.113,0.055
11.25,-0.063,0.104,0.078
11.26,-0.123,0.065,0.174
11.27,-0.183,0.131,0.124
11.28,-0.253,0.019,-0.051
11.29,-0.353,-0.139,-0.089
11.3,-0.432,-0.049,-0.088
11.31,-0.43,-0.016,0.004
11.32,-0.309,0.119,-0.039
11.33,-0.229,0.123,-0.034
11.34,-0.222,0.112,0.0
11.35,-0.111,0.015,0.021
11.36,-0.096,-0.005,0.054
11.37,-0.13,-0.142,0.063
11.38,-0.132,-0.023,-0.001
11.39,-0.21,0.102,0.028
11.4,-0.389,0.06,0.083
11.41,-0.307,0.103,-0.023
11.42,-0.315,-0.117,-0.105
11.43,-0.371,-0.239,-0.048
11.44,-0.23,0.007,0.002
11.45,-0.232,0.195,0.069
11.46,-0.288,0.303,0.031
11.47,-0.116,0.351,-0.149
11.48,0.005,0.031,-0.184
11.49,-0.073,-0.379,-0.085
11.5,-0.227,-0.306,0.156
11.51,-0.363,-0.174,0.42
11.52,-0.343,0.098,0.258
11.53,-0.353,0.179,-0.102
11.54,-0.277,0.107,-0.236
11.55,-0.201,0.003,-0.236
11.56,-0.364,-0.017,-0.045
11.57,-0.226,-0.112,-0.012
11.58,-0.12,0.142,-0.047
11.59,-0.207,0.207,0.033
11.6,-0.103,0.17,0.064
11.61,-0.175,0.187,0.106
11.62,-0.279,-0.238,0.067
11.63,-0.383,-0.303,0.03
11.64,-0.383,-0.199,-0.009
11.65,-0.294,-0.15,-0.006
11.66,-0.23,0.193,-0.005
11.67,-0.14,0.325,-0.035
11.68,-0.249,0.077,-0.021
11.69,-0.19,0.075,-0.096
11.7,-0.171,-0.013,-0.071
11.71,-0.245,-0.141,0.021
11.72,-0.275,0.172,0.008
11.73,-0.24,0.174,0.036
11.74,-0.178,0.057,-0.028
11.75,-0.205,0.02,-0.048
11.76,-0.284,-0.335,0.094
11.77,-0.253,-0.209,0.129
11.78,-0.26,-0.038,0.07
11.79,-0.303,-0.025,-0.019
11.8,-0.213,0.24,-0.114
11.81,-0.219,0.328,-0.083
11.82,-0.215,-0.014,-0.007
11.83,-0.173,0.019,-0.069
11.84,-0.222,-0.139,-0.05
11.85,-0.177,-0.081,0.027
11.86,-0.192,0.153,0.107
11.87,-0.295,0.06,0.147
11.88,-0.302,0.005,0.012
11.89,-0.278,-0.046,-0.078
11.9,-0.325,-0.136,-0.048
11.91,-0.308,0.012,-0.015
11.92,-0.256,0.2,0.008
11.93,-0.172,0.101,-0.068
11.94,-0.148,0.21,-0.106
11.95,-0.209,0.115,-0.009
11.96,-0.192,-0.05,0.047
11.97,-0.21,-0.052,0.054
11.98,-0.255,-0.148,0.04
11.99,-0.262,-0.096,0.033
12.0,-0.248,0.063,0.067
12.01,-0.278,-0.038,0.063
12.02,-0.249,0.069,-0.063
12.03,-0.191,-0.035,-0.119
12.04,-0.213,-0.017,-0.023
12.05,-0.272,0.193,0.028
12.06,-0.359,0.257,0.06
12.07,-0.241,0.163,-0.037
12.08,-0.131,0.204,-0.179
12.09,-0.175,-0.137,-0.13
12.1,-0.216,-0.442,0.05
12.11,-0.251,-0.243,0.223
12.12,-0.247,-0.127,0.315
12.13,-0.139,0.07,0.12
12.14,-0.222,0.286,-0.107
12.15,-0.244,0.106,-0.147
12.16,-0.24,0.071,-0.164
12.17,-0.423,-0.023,-0.04
12.18,-0.327,-0.08,-0.024
12.19,-0.257,0.132,-0.042
12.2,-0.241,0.175,-0.006
12.21,-0.153,0.093,0.035
12.22,-0.144,0.034,0.034
12.23,-0.106,-0.205,0.058
12.24,-0.212,-0.277,0.064
12.25,-0.196,-0.055,0.028
12.26,-0.241,0.01,0.041
12.27,-0.291,0.224,0.02
12.28,-0.335,0.305,-0.015
12.29,-0.363,0.045,-0.016
12.3,-0.289,0.085,-0.141
12.31,-0.273,-0.126,-0.152
12.32,-0.259,-0.111,-0.012
12.33,-0.143,0.143,0.009
12.34,-0.115,0.155,0.114
12.35,-0.008,-0.094,0.011
12.36,-0.13,-0.081,0.055
12.37,-0.29,-0.254,0.174
12.38,-0.143,-0.091,0.018
12.39,-0.17,-0.096,0.044
12.4,-0.192,-0.123,0.098
12.41,-0.249,-0.006,0.053
12.42,-0.356,0.097,0.036
12.43,-0.272,-0.016,-0.013
12.44,-0.21,-0.047,-0.134
12.45,-0.301,0.03,-0.087
12.46,-0.243,0.004,0.013
12.47,-0.32,0.26,0.025
12.48,-0.273,0.295,-0.005
12.49,-0.112,0.094,-0.081
12.5,-0.069,0.028,-0.175
12.51,-0.172,-0.388,0.032
12.52,-0.251,-0.286,0.171
12.53,-0.28,-0.092,0.279
12.54,-0.293,0.063,0.175
12.55,-0.219,0.091,-0.077
12.56,-0.239,0.19,-0.171
12.57,-0.247,0.001,-0.12
12.58,-0.346,-0.064,-0.03
12.59,-0.29,0.053,-0.057
12.6,-0.235,-0.008,0.011
12.61,-0.233,0.307,0.013
12.62,-0.16,0.22,-0.0
12.63,-0.168,-0.024,0.017
12.64,-0.169,-0.167,0.014
12.65,-0.317,-0.277,0.057
12.66,-0.291,-0.288,0.064
12.67,-0.153,0.037,0.012
12.68,-0.234,0.205,0.052
12.69,-0.238,0.259,-0.032
12.7,-0.307,0.272,-0.074
12.71,-0.284,-0.041,-0.077
12.72,-0.2,-0.039,-0.146
12.73,-0.326,-0.066,-0.017
12.74,-0.216,-0.078,0.044
12.75,-0.178,0.229,0.066
12.76,-0.202,0.078,0.032
12.77,-0.093,-0.209,-0.013
12.78,-0.147,-0.158,0.034
12.79,-0.242,-0.216,0.137
12.8,-0.286,-0.008,0.09
12.81,-0.368,0.143,0.009
12.82,-0.25,0.249,-0.103
12.83,-0.209,0.26,-0.119
12.84,-0.367,0.118,-0.05
12.85,-0.252,-0.272,-0.014
12.86,-0.174,-0.103,-0.077
12.87,-0.218,-0.116,0.013
12.88,-0.208,-0.051,0.119
12.89,-0.106,0.182,0.114
12.9,-0.132,0.133,0.045
12.91,-0.239,-0.025,-0.065
12.92,-0.339,-0.02,-0.084
12.93,-0.396,0.003,-0.013
12.94,-0.344,0.042,-0.026
12.95,-0.263,0.223,-0.038
12.96,-0.259,0.088,-0.063
12.97,-0.291,0.153,-0.063
12.98,-0.17,-0.022,0.027
12.99,-0.093,-0.176,0.083
13.0,-0.124,-0.174,0.047
13.01,-0.146,-0.137,0.044
13.02,-0.121,-0.005,0.01
13.03,-0.319,0.231,0.045
13.04,-0.289,0.137,-0.006
13.05,-0.314,0.0,-0.085
13.06,-0.396,-0.042,-0.08
13.07,-0.277,-0.078,0.004
13.08,-0.32,0.11,0.049
13.09,-0.279,0.281,0.038
13.1,-0.128,0.087,-0.074
13.11,-0.068,0.004,-0.126
13.12,-0.065,-0.289,-0.059
13.13,-0.143,-0.385,0.115
13.14,-0.284,-0.039,0.251
13.15,-0.239,0.122,0.138
13.16,-0.32,0.232,-0.011
13.17,-0.236,0.295,-0.201
13.18,-0.347,0.03,-0.131
13.19,-0.37,-0.147,-0.041
13.2,-0.246,-0.012,-0.081
13.21,-0.329,-0.002,0.037
13.22,-0.183,0.093,0.025
13.23,-0.073,0.25,-0.038
13.24,-0.116,-0.056,0.067
13.25,-0.109,-0.095,0.003
13.26,-0.308,-0.246,0.112
13.27,-0.256,-0.182,0.063
13.28,-0.3,0.047,0.044
13.29,-0.392,0.262,0.037
13.3,-0.244,0.176,-0.107
13.31,-0.385,0.175,-0.089
13.32,-0.246,-0.117,-0.119
13.33,-0.213,-0.108,-0.071
13.34,-0.293,-0.081,0.061
13.35,-0.111,-0.005,0.079
13.36,-0.088,0.191,0.018
13.37,-0.114,0.047,0.004
13.38,-0.169,-0.09,0.017
13.39,-0.31,-0.047,0.092
13.4,-0.306,-0.099,0.05
13.41,-0.377,-0.05,-0.001
13.42,-0.355,0.187,-0.119
13.43,-0.306,0.076,-0.106
13.44,-0.167,0.154,-0.071
13.45,-0.131,-0.035,0.008
13.46,-0.2,-0.155,0.054
13.47,-0.101,-0.005,-0.03
13.48,-0.097,0.069,0.069
13.49,-0.182,0.103,0.114
13.5,-0.252,0.175,0.053
13.51,-0.348,-0.052,-0.021
13.52,-0.376,-0.088,-0.107
13.53,-0.42,-0.063,-0.057
13.54,-0.364,0.024,-0.018
13.55,-0.222,0.115,-0.053
13.56,-0.202,0.193,-0.03
13.57,-0.135,0.112,-0.017
13.58,-0.109,0.075,0.006
13.59,-0.086,-0.083,0.003
13.6,-0.1,-0.299,0.041
13.61,-0.241,0.051,0.099
13.62,-0.269,-0.02,0.107
13.63,-0.398,0.151,0.078
13.64,-0.382,0.115,-0.113
13.65,-0.305,-0.165,-0.138
13.66,-0.322,-0.082,-0.046
13.67,-0.215,0.081,-0.005
13.68,-0.227,0.128,0.087
13.69,-0.204,0.28,-0.033
13.7,-0.084,0.232,-0.145
13.71,0.016,-0.15,-0.14
13.72,-0.099,-0.23,-0.014
13.73,-0.283,-0.233,0.226
13.74,-0.386,-0.18,0.353
13.75,-0.29,0.215,0.105
13.76,-0.338,0.116,-0.07
13.77,-0.317,0.069,-0.214
13.78,-0.198,0.035,-0.196
13.79,-0.319,-0.093,-0.054
13.8,-0.278,0.05,0.03
13.81,-0.224,0.164,-0.011
13.82,-0.106,0.138,-0.005
13.83,-0.017,0.243,-0.0
13.84,-0.229,-0.019,0.114
13.85,-0.242,-0.291,0.097
13.86,-0.328,-0.136,0.046
13.87,-0.343,-0.213,0.044
13.88,-0.318,-0.019,-0.029
13.89,-0.275,0.22,-0.059
13.9,-0.176,0.211,-0.076
13.91,-0.29,0.1,-0.034
13.92,-0.273,0.059,-0.04
13.93,-0.177,-0.12,-0.035
13.94,-0.193,0.023,-0.01
13.95,-0.223,0.19,0.08
13.96,-0.188,-0.01,0.069
13.97,-0.139,0.12,-0.037
13.98,-0.208,-0.16,-0.008
13.99,-0.302,-0.305,0.063
14.0,-0.273,-0.058,0.05
14.01,-0.245,-0.045,0.017
14.02,-0.364,0.138,-0.025
14.03,-0.224,0.315,-0.065
14.04,-0.182,0.176,-0.03
14.05,-0.24,0.012,-0.035
14.06,-0.224,-0.038,-0.036
14.07,-0.128,-0.193,-0.008
14.08,-0.185,0.021,0.048
14.09,-0.247,0.082,0.088
14.1,-0.25,-0.025,0.105
14.11,-0.288,0.01,0.023
14.12,-0.252,-0.133,-0.05
14.13,-0.302,-0.04,-0.054
14.14,-0.339,0.078,-0.023
14.15,-0.307,0.161,0.025
14.16,-0.194,0.188,-0.066
14.17,-0.201,0.226,-0.104
14.18,-0.228,0.016,-0.019
14.19,-0.145,-0.032,0.014
14.2,-0.24,-0.072,0.009
14.21,-0.203,-0.267,0.087
14.22,-0.14,-0.011,0.087
14.23,-0.238,0.032,0.092
14.24,-0.256,-0.002,-0.01
14.25,-0.164,0.137,-0.106
14.26,-0.258,-0.054,-0.058
14.27,-0.346,-0.004,0.005
14.28,-0.322,0.154,0.064
14.29,-0.265,0.225,0.017
14.3,-0.276,0.271,-0.086
14.31,-0.164,0.092,-0.197
14.32,-0.104,-0.236,-0.107
14.33,-0.159,-0.279,0.038
14.34,-0.18,-0.245,0.255
14.35,-0.216,-0.24,0.259
14.36,-0.206,0.255,0.119
14.37,-0.232,0.178,-0.028
14.38,-0.281,0.127,-0.136
14.39,-0.305,0.033,-0.175
14.4,-0.389,-0.077,-0.078
14.41,-0.313,0.033,-0.038
14.42,-0.319,0.208,-0.034
14.43,-0.272,0.06,0.009
14.44,-0.093,0.116,-0.014
14.45,-0.107,-0.033,0.085
14.46,-0.133,-0.366,0.128
14.47,-0.205,-0.141,0.07
14.48,-0.178,-0.082,0.046
14.49,-0.269,0.065,0.011
14.5,-0.314,0.329,-0.04
14.51,-0.348,0.228,-0.069
14.52,-0.413,0.063,-0.066
14.53,-0.273,0.052,-0.083
14.54,-0.281,-0.176,-0.05
14.55,-0.284,0.035,0.01
14.56,-0.139,0.065,0.006
14.57,-0.009,0.044,0.026
14.58,-0.033,-0.019,-0.026
14.59,-0.147,-0.104,0.058
14.6,-0.255,-0.244,0.15
14.61,-0.299,0.032,0.103
14.62,-0.406,0.005,0.073
14.63,-0.375,0.121,-0.06
14.64,-0.341,0.234,-0.136
14.65,-0.359,0.028,-0.104
14.66,-0.219,-0.024,-0.075
14.67,-0.202,-0.036,-0.042
14.68,-0.137,-0.102,0.025
14.69,-0.04,-0.012,0.032
14.7,-0.111,0.16,0.09
14.71,-0.144,0.02,0.123
14.72,-0.256,-0.015,0.057
14.73,-0.43,-0.055,0.003
14.74,-0.375,-0.106,-0.078
14.75,-0.34,0.098,-0.066
14.76,-0.387,0.154,-0.077
14.77,-0.274,0.135,-0.066
14.78,-0.225,0.198,-0.038
14.79,-0.142,0.038,-0.022
14.8,-0.077,-0.064,-0.027
14.81,-0.056,-0.12,0.037
14.82,-0.103,-0.14,0.099
14.83,-0.198,0.137,0.096
14.84,-0.315,0.024,0.1
14.85,-0.318,0.047,-0.013
14.86,-0.285,0.005,-0.123
14.87,-0.323,-0.145,-0.078
14.88,-0.378,-0.103,0.008
14.89,-0.33,0.185,0.048
14.9,-0.257,0.254,0.045
14.91,-0.179,0.283,-0.084
14.92,-0.056,0.15,-0.183
14.93,-0.003,-0.294,-0.149
14.94,-0.036,-0.349,-0.012
14.95,-0.313,-0.215,0.296
14.96,-0.334,-0.013,0.364
14.97,-0.238,0.263,0.111
14.98,-0.292,0.204,-0.128
14.99,-0.303,-0.021,-0.261
15.0,-0.367,-0.094,-0.17
15.01,-0.377,-0.092,-0.014
15.02,-0.242,0.046,0.011
15.03,-0.21,0.236,-0.007
15.04,-0.041,0.177,-0.073
15.05,-0.021,0.173,0.028
15.06,-0.175,-0.125,0.168
15.07,-0.319,-0.292,0.137
15.08,-0.383,-0.163,0.088
15.09,-0.303,-0.119,0.008
15.1,-0.32,0.113,-0.059
15.11,-0.338,0.253,-0.04
15.12,-0.325,-0.059,-0.011
15.13,-0.222,0.104,-0.047
15.14,-0.198,-0.076,-0.057
15.15,-0.219,-0.022,0.003
15.16,-0.142,0.178,-0.02
15.17,-0.158,0.226,0.015
15.18,-0.135,0.004,0.01
15.19,-0.185,0.008,-0.022
15.2,-0.352,-0.278,0.069
15.21,-0.285,-0.264,0.034
15.22,-0.275,0.026,0.054
15.23,-0.388,-0.019,0.103
15.24,-0.229,0.237,-0.059
15.25,-0.202,0.217,-0.101
15.26,-0.204,-0.007,-0.061
15.27,-0.152,-0.007,-0.101
15.28,-0.178,-0.1,-0.029
15.29,-0.135,0.007,0.034
15.3,-0.156,0.188,0.075
15.31,-0.238,0.101,0.086
15.32,-0.325,-0.073,0.025
15.33,-0.345,-0.078,0.002
15.34,-0.312,-0.193,-0.009
15.35,-0.353,-0.063,-0.02
15.36,-0.305,0.138,-0.03
15.37,-0.152,0.195,-0.03
15.38,-0.172,0.286,-0.044
15.39,-0.167,0.142,-0.031
15.4,-0.15,-0.066,0.004
15.41,-0.205,-0.097,-0.002
15.42,-0.215,-0.158,0.039
15.43,-0.269,-0.121,0.08
15.44,-0.312,0.108,0.049
15.45,-0.342,0.067,0.004
15.46,-0.178,-0.013,-0.081
15.47,-0.177,-0.098,-0.1
15.48,-0.256,-0.093,0.047
15.49,-0.239,0.109,0.097
15.5,-0.256,0.343,0.029
15.51,-0.313,0.316,-0.056
15.52,-0.164,0.182,-0.224
15.53,-0.131,-0.12,-0.145
15.54,-0.189,-0.435,0.044
15.55,-0.209,-0.283,0.159
15.56,-0.349,-0.124,0.314
15.57,-0.146,0.052,0.139
15.58,-0.16,0.351,-0.094
15.59,-0.243,0.059,-0.123
15.6,-0.19,0.033,-0.147
15.61,-0.39,-0.08,-0.043
15.62,-0.374,-0.044,0.027
15.63,-0.274,0.092,0.015
15.64,-0.254,0.293,0.012
15.65,-0.132,0.023,0.026
15.66,-0.215,-0.041,0.03
15.67,-0.211,-0.153,0.028
15.68,-0.265,-0.387,0.081
15.69,-0.208,-0.023,0.002
15.7,-0.16,0.045,-0.054
15.71,-0.24,0.187,-0.022
15.72,-0.223,0.313,-0.02
15.73,-0.337,0.102,0.014
15.74,-0.326,-0.047,-0.024
15.75,-0.273,0.002,-0.062
15.76,-0.313,-0.064,0.023
15.77,-0.259,0.104,-0.029
15.78,-0.18,0.127,-0.027
15.79,-0.076,-0.064,-0.037
15.8,-0.119,-0.153,-0.009
15.81,-0.239,-0.204,0.171
15.82,-0.146,-0.155,0.141
15.83,-0.269,0.064,0.079
15.84,-0.371,0.091,0.004
15.85,-0.27,0.247,-0.143
15.86,-0.31,0.243,-0.095
15.87,-0.326,0.006,-0.037
15.88,-0.298,-0.047,-0.069
15.89,-0.202,-0.12,0.005
15.9,-0.115,-0.105,0.065
15.91,-0.109,0.015,0.08
15.92,-0.172,0.069,0.098
15.93,-0.203,-0.134,0.048
15.94,-0.28,0.065,-0.036
15.95,-0.332,-0.012,-0.071
15.96,-0.405,0.059,-0.005
15.97,-0.301,0.255,-0.105
15.98,-0.219,0.13,-0.07
15.99,-0.295,0.117,-0.042
16.0,-0.278,0.078,0.014
16.01,-0.188,-0.159,0.017
16.02,-0.089,-0.133,-0.015
16.03,-0.144,-0.093,0.054
16.04,-0.164,-0.016,0.099
16.05,-0.189,0.196,0.054
16.06,-0.26,0.051,0.035
16.07,-0.18,-0.048,-0.109
16.08,-0.304,-0.047,-0.086
16.09,-0.404,-0.149,0.038
16.1,-0.312,0.205,-0.005
16.11,-0.389,0.29,0.017
16.12,-0.33,0.269,-0.057
16.13,-0.102,0.079,-0.18
16.14,-0.032,-0.118,-0.136
16.15,-0.029,-0.558,0.083
16.16,-0.16,-0.232,0.272
16.17,-0.226,-0.052,0.335
16.18,-0.213,0.133,0.134
16.19,-0.262,0.346,-0.144
16.2,-0.339,0.11,-0.247
16.21,-0.443,-0.072,-0.135
16.22,-0.503,-0.01,-0.082
16.23,-0.386,0.043,-0.026
16.24,-0.26,0.005,0.008
16.25,-0.014,0.252,-0.053
16.26,0.004,0.096,0.051
16.27,-0.038,-0.073,0.131
16.28,-0.172,-0.146,0.131
16.29,-0.248,-0.271,0.072
16.3,-0.256,-0.038,-0.026
16.31,-0.352,0.111,-0.018
16.32,-0.363,0.135,-0.033
16.33,-0.443,0.27,-0.068
16.34,-0.379,0.003,-0.028
16.35,-0.222,-0.065,-0.127
16.36,-0.184,0.005,-0.041
16.37,-0.165,-0.009,0.039
16.38,-0.014,0.135,0.029
16.39,-0.083,0.217,0.034
16.4,-0.066,-0.255,0.065
16.41,-0.244,-0.015,0.101
16.42,-0.339,-0.243,0.144
16.43,-0.348,-0.188,0.049
16.44,-0.432,0.103,-0.101
16.45,-0.392,0.167,-0.099
16.46,-0.3,0.178,-0.099
16.47,-0.184,0.205,-0.095
16.48,-0.122,-0.012,-0.059
16.49,-0.115,-0.12,-0.024
16.5,-0.092,0.013,0.023
16.51,-0.116,-0.066,0.136
16.52,-0.193,0.155,0.129
16.53,-0.255,0.04,0.086
16.54,-0.352,-0.113,0.031
16.55,-0.344,-0.074,-0.112
16.56,-0.402,-0.067,-0.068
16.57,-0.391,0.004,-0.019
16.58,-0.271,0.19,-0.045
16.59,-0.184,0.147,-0.087
16.6,-0.146,0.166,-0.073
16.61,-0.158,0.134,0.015
16.62,-0.116,-0.034,0.044
16.63,-0.158,-0.097,0.039
16.64,-0.224,-0.073,0.097
16.65,-0.16,-0.099,0.094
16.66,-0.26,0.03,0.029
16.67,-0.305,-0.022,-0.04
16.68,-0.291,-0.118,-0.075
16.69,-0.341,0.015,0.009
16.7,-0.296,0.094,0.048
16.71,-0.286,0.24,0.002
16.72,-0.262,0.365,-0.149
16.73,-0.125,0.1,-0.181
16.74,-0.044,-0.073,-0.161
16.75,-0.117,-0.281,0.032
16.76,-0.203,-0.354,0.279
16.77,-0.187,-0.046,0.274
16.78,-0.27,0.051,0.176
16.79,-0.291,0.127,-0.067
16.8,-0.281,0.144,-0.155
16.81,-0.294,-0.046,-0.155
16.82,-0.372,-0.096,-0.089
16.83,-0.323,0.084,-0.053
16.84,-0.225,0.111,0.008
16.85,-0.222,0.241,0.007
16.86,-0.098,0.185,0.01
16.87,-0.078,0.004,0.052
16.88,-0.168,-0.179,0.083
16.89,-0.329,-0.223,0.103
16.9,-0.312,-0.284,0.032
16.91,-0.251,0.013,-0.041
16.92,-0.211,0.115,-0.031
16.93,-0.258,0.139,-0.057
16.94,-0.348,0.228,0.003
16.95,-0.296,0.029,-0.008
16.96,-0.218,0.046,-0.071
16.97,-0.274,0.067,-0.049
16.98,-0.202,0.05,0.024
16.99,-0.149,0.08,-0.015
17.0,-0.199,-0.039,-0.026
17.01,-0.191,-0.281,0.069
17.02,-0.177,-0.176,0.127
17.03,-0.253,-0.063,0.151
17.04,-0.227,-0.076,0.026
17.05,-0.3,0.256,-0.059
17.06,-0.302,0.208,-0.078
17.07,-0.262,0.116,-0.105
17.08,-0.25,0.143,-0.086
17.09,-0.246,-0.085,-0.05
17.1,-0.222,0.002,0.01
17.11,-0.197,0.004,0.04
17.12,-0.158,0.0,0.106
17.13,-0.156,-0.014,0.083
17.14,-0.19,-0.037,0.047
17.15,-0.242,-0.24,-0.023
17.16,-0.334,0.024,-0.024
17.17,-0.358,0.059,0.019
17.18,-0.249,0.183,-0.07
17.19,-0.304,0.252,-0.077
17.2,-0.25,0.137,-0.051
17.21,-0.277,0.12,-0.025
17.22,-0.257,-0.086,-0.002
17.23,-0.117,-0.118,-0.011
17.24,-0.154,-0.13,0.007
17.25,-0.162,-0.044,0.08
17.26,-0.187,-0.055,0.103
17.27,-0.224,0.09,0.064
17.28,-0.182,0.023,-0.073
17.29,-0.272,-0.167,-0.076
17.3,-0.321,0.118,0.026
17.31,-0.353,0.153,0.067
17.32,-0.405,0.276,0.02
17.33,-0.225,0.315,-0.166
17.34,-0.163,-0.003,-0.227
17.35,-0.138,-0.178,-0.106
17.36,-0.09,-0.353,0.083
17.37,-0.18,-0.259,0.32
17.38,-0.219,-0.006,0.284
17.39,-0.194,0.106,0.076
17.4,-0.21,0.156,-0.101
17.41,-0.245,0.143,-0.186
17.42,-0.416,-0.008,-0.077
17.43,-0.373,-0.063,-0.053
17.44,-0.284,0.132,-0.023
17.45,-0.34,0.153,0.002
17.46,-0.258,0.146,-0.016
17.47,-0.16,0.061,-0.004
17.48,-0.091,-0.169,0.084
17.49,-0.157,-0.23,0.072
17.5,-0.32,-0.146,0.048
17.51,-0.17,-0.146,-0.009
17.52,-0.148,0.193,-0.031
17.53,-0.295,0.272,0.03
17.54,-0.31,0.095,0.006
17.55,-0.372,0.091,-0.056
17.56,-0.365,-0.055,-0.078
17.57,-0.326,-0.048,-0.08
17.58,-0.259,0.086,-0.024
17.59,-0.168,0.071,0.025
17.6,-0.063,0.143,-0.002
17.61,-0.075,-0.075,0.012
17.62,-0.149,-0.251,0.136
17.63,-0.157,-0.092,0.115
17.64,-0.255,-0.031,0.094
17.65,-0.385,0.047,-0.019
17.66,-0.393,0.209,-0.122
17.67,-0.329,0.239,-0.131
17.68,-0.327,-0.019,-0.062
17.69,-0.266,-0.001,-0.049
17.7,-0.134,-0.18,-0.003
17.71,-0.114,-0.036,0.044
17.72,-0.091,0.08,0.087
17.73,-0.107,0.084,0.117
17.74,-0.134,0.078,0.033
17.75,-0.336,0.011,0.003
17.76,-0.395,-0.169,-0.031
17.77,-0.406,0.006,-0.054
17.78,-0.421,0.081,-0.024
17.79,-0.24,0.068,-0.056
17.8,-0.228,0.206,-0.069
17.81,-0.226,0.064,-0.003
17.82,-0.13,0.085,-0.05
17.83,-0.099,-0.023,0.014
17.84,-0.09,-0.108,0.048
17.85,-0.153,0.034,0.058
17.86,-0.215,-0.043,0.089
17.87,-0.271,-0.018,0.047
17.88,-0.331,0.109,-0.034
17.89,-0.247,-0.09,-0.06
17.9,-0.353,-0.156,-0.024
17.91,-0.381,0.114,-0.021
17.92,-0.263,0.147,0.012
17.93,-0.25,0.239,-0.03
17.94,-0.167,0.334,-0.101
17.95,-0.054,0.003,-0.1
17.96,-0.162,-0.3,-0.018
17.97,-0.099,-0.294,0.061
17.98,-0.168,-0.27,0.266
17.99,-0.294,0.094,0.244
18.0,-0.274,0.248,0.06
18.01,-0.323,0.104,-0.122
18.02,-0.271,0.112,-0.253
18.03,-0.391,-0.08,-0.136
18.04,-0.317,-0.145,-0.022
18.05,-0.275,0.137,-0.043
18.06,-0.252,0.165,0.056
18.07,-0.101,0.156,0.009
18.08,-0.044,0.149,0.026
18.09,-0.145,-0.116,0.143
18.1,-0.153,-0.171,0.094
18.11,-0.368,-0.179,0.058
18.12,-0.289,-0.198,-0.023
18.13,-0.291,0.116,-0.022
18.14,-0.365,0.218,-0.012
18.15,-0.312,0.075,-0.068
18.16,-0.307,0.081,-0.128
18.17,-0.247,0.038,-0.066
18.18,-0.194,-0.034,0.005
18.19,-0.152,0.138,0.077
18.2,-0.098,0.071,0.069
18.21,-0.083,0.039,-0.013
18.22,-0.176,-0.026,0.011
18.23,-0.284,-0.282,0.1
18.24,-0.4,-0.174,0.123
18.25,-0.36,-0.054,-0.006
18.26,-0.374,-0.085,-0.034
18.27,-0.272,0.213,-0.105
18.28,-0.195,0.237,-0.094
18.29,-0.125,0.032,-0.05
18.3,-0.107,0.079,-0.051
18.31,-0.182,0.037,0.019
18.32,-0.141,-0.041,0.022
18.33,-0.171,0.135,0.059
18.34,-0.274,0.015,0.121
18.35,-0.316,-0.036,0.059
18.36,-0.415,-0.114,-0.017
18.37,-0.303,-0.263,-0.043
18.38,-0.32,0.021,-0.036
18.39,-0.254,0.106,-0.033
18.4,-0.154,0.217,-0.08
18.41,-0.159,0.291,-0.071
18.42,-0.187,0.247,-0.019
18.43,-0.19,0.002,0.007
18.44,-0.23,-0.074,0.008
18.45,-0.168,-0.202,0.046
18.46,-0.265,-0.181,0.085
18.47,-0.302,-0.035,0.11
18.48,-0.3,-0.011,0.099
18.49,-0.262,0.069,-0.036
18.5,-0.157,-0.013,-0.144
18.51,-0.268,-0.123,-0.052
18.52,-0.286,0.176,-0.028
18.53,-0.264,0.287,0.04
18.54,-0.304,0.25,0.001
18.55,-0.204,0.279,-0.164
18.56,-0.147,-0.12,-0.118
18.57,-0.169,-0.377,0.005
18.58,-0.143,-0.305,0.143
18.59,-0.346,-0.225,0.319
18.6,-0.169,0.051,0.188
18.61,-0.232,0.224,-0.017
18.62,-0.205,0.121,-0.152
18.63,-0.187,0.045,-0.233
18.64,-0.392,-0.072,-0.093
18.65,-0.329,0.01,-0.042
18.66,-0.305,0.206,0.027
18.67,-0.263,0.235,0.02
18.68,-0.142,0.249,-0.061
18.69,-0.188,-0.014,0.049
18.7,-0.186,-0.205,0.123
18.71,-0.242,-0.368,0.119
18.72,-0.267,-0.265,0.072
18.73,-0.191,-0.13,0.01
18.74,-0.259,0.174,-0.003
18.75,-0.223,0.416,-0.058
18.76,-0.315,0.125,-0.005
18.77,-0.323,0.152,-0.11
18.78,-0.266,-0.017,-0.148
18.79,-0.265,-0.134,-0.049
18.8,-0.255,0.096,-0.004
18.81,-0.229,0.118,0.094
18.82,-0.14,-0.057,0.067
18.83,-0.05,-0.093,0.018
18.84,-0.189,-0.278,0.112
18.85,-0.23,-0.141,0.102
18.86,-0.24,0.003,0.048
18.87,-0.352,0.114,-0.0
18.88,-0.307,0.332,-0.138
18.89,-0.267,0.206,-0.144
18.9,-0.261,0.006,-0.084
18.91,-0.281,-0.003,-0.079
18.92,-0.267,-0.165,0.036
18.93,-0.129,-0.105,0.049
18.94,-0.086,0.067,0.052
18.95,-0.097,0.079,0.127
18.96,-0.23,0.042,0.099
18.97,-0.266,-0.006,0.015
18.98,-0.31,-0.065,0.023
18.99,-0.375,-0.048,-0.053
19.0,-0.397,0.165,-0.051
19.01,-0.284,0.018,-0.043
19.02,-0.281,0.268,-0.115
19.03,-0.304,0.098,-0.047
19.04,-0.164,-0.053,-0.025
19.05,-0.059,-0.028,-0.046
19.06,-0.086,-0.158,0.07
19.07,-0.077,-0.08,0.143
19.08,-0.226,0.079,0.143
19.09,-0.329,0.022,0.095
19.1,-0.262,0.045,-0.045
19.11,-0.334,-0.02,-0.105
19.12,-0.37,-0.14,-0.043
19.13,-0.372,0.091,-0.066
19.14,-0.298,0.2,-0.029
19.15,-0.237,0.259,-0.04
19.16,-0.049,0.257,-0.137
19.17,-0.076,-0.004,-0.105
19.18,-0.056,-0.405,-0.005
19.19,-0.117,-0.2,0.17
19.2,-0.296,-0.244,0.345
19.21,-0.346,0.094,0.221
19.22,-0.306,0.219,-0.006
19.23,-0.277,0.102,-0.147
19.24,-0.284,0.036,-0.227
19.25,-0.398,-0.039,-0.096
19.26,-0.337,-0.067,-0.001
19.27,-0.215,0.156,-0.048
19.28,-0.154,0.166,-0.05
19.29,-0.098,0.077,-0.017
19.3,-0.135,0.134,0.057
19.31,-0.195,-0.214,0.121
19.32,-0.271,-0.245,0.118
19.33,-0.231,-0.101,0.056
19.34,-0.319,-0.069,0.067
19.35,-0.312,0.161,0.015
19.36,-0.3,0.243,-0.078
19.37,-0.374,0.044,-0.09
19.38,-0.291,0.004,-0.149
19.39,-0.196,0.008,-0.124
19.4,-0.214,-0.076,0.019
19.41,-0.14,0.185,0.021
19.42,-0.103,0.151,0.046
19.43,-0.095,-0.043,0.042
19.44,-0.126,0.002,0.059
19.45,-0.285,-0.179,0.151
19.46,-0.272,-0.218,0.074
19.47,-0.409,0.036,-0.023
19.48,-0.458,-0.137,-0.017
19.49,-0.281,0.264,-0.095
19.5,-0.25,0.1,-0.052
19.51,-0.195,-0.01,-0.051
19.52,-0.125,0.031,-0.092
19.53,-0.129,0.082,-0.024
19.54,-0.083,-0.079,0.054
19.55,-0.15,0.196,0.085
19.56,-0.182,0.097,0.09
19.57,-0.3,-0.129,0.063
19.58,-0.438,-0.026,-0.033
19.59,-0.422,-0.209,-0.035
19.6,-0.346,-0.014,-0.006
19.61,-0.275,0.14,-0.04
19.62,-0.193,0.169,-0.062
19.63,-0.169,0.238,-0.071
19.64,-0.181,0.205,-0.047
19.65,-0.068,-0.034,-0.027
19.66,-0.112,-0.093,0.017
19.67,-0.206,-0.122,0.045
19.68,-0.23,-0.129,0.133
19.69,-0.338,0.112,0.064
19.7,-0.363,0.026,0.052
19.71,-0.222,-0.019,-0.111
19.72,-0.257,-0.053,-0.091
19.73,-0.299,-0.16,0.017
19.74,-0.226,0.204,0.032
19.75,-0.29,0.286,0.033
19.76,-0.191,0.253,-0.065
19.77,-0.143,0.123,-0.181
19.78,-0.12,-0.14,-0.094
19.79,-0.135,-0.401,0.028
19.8,-0.311,-0.178,0.2
19.81,-0.317,-0.071,0.277
19.82,-0.243,0.088,0.098
19.83,-0.216,0.278,-0.083
19.84,-0.168,-0.017,-0.176
19.85,-0.312,-0.023,-0.106
19.86,-0.327,-0.068,-0.051
19.87,-0.305,-0.008,0.001
19.88,-0.267,0.176,0.003
19.89,-0.168,0.26,-0.038
19.9,-0.17,0.098,0.048
19.91,-0.15,-0.065,0.039
19.92,-0.255,-0.333,0.09
19.93,-0.299,-0.323,0.063
19.94,-0.218,-0.072,0.021
19.95,-0.3,0.052,0.038
19.96,-0.241,0.306,-0.08
19.97,-0.309,0.208,-0.035
19.98,-0.278,-0.011,-0.027
19.99,-0.233,0.042,-0.098
20.0,-0.291,-0.131,0.005
20.01,-0.198,0.095,0.015
20.02,-0.193,0.172,0.033
20.03,-0.198,0.096,0.04
20.04,-0.137,-0.141,-0.04
20.05,-0.249,-0.186,0.057
20.06,-0.232,-0.287,0.105
20.07,-0.243,-0.057,0.063
20.08,-0.386,0.17,0.003
20.09,-0.215,0.146,-0.061
20.1,-0.161,0.324,-0.138
20.11,-0.281,0.128,-0.094
20.12,-0.262,-0.129,-0.022
20.13,-0.203,-0.031,-0.022
20.14,-0.208,-0.05,-0.014
20.15,-0.211,-0.017,0.064
20.16,-0.154,0.081,0.076
20.17,-0.222,0.038,0.077
20.18,-0.271,-0.033,0.008
20.19,-0.233,-0.102,-0.049
20.2,-0.314,0.0,-0.003
20.21,-0.287,0.155,-0.042
20.22,-0.255,0.205,-0.034
20.23,-0.245,0.103,-0.077
20.24,-0.225,0.216,-0.027
20.25,-0.233,-0.072,0.029
20.26,-0.227,-0.158,0.032
20.27,-0.222,-0.181,0.028
20.28,-0.092,-0.118,0.079
20.29,-0.156,0.017,0.071
20.3,-0.321,0.204,0.082
20.31,-0.233,0.038,-0.027
20.32,-0.175,-0.0,-0.126
20.33,-0.334,-0.011,-0.077
20.34,-0.286,-0.076,0.039
20.35,-0.314,0.185,0.03
20.36,-0.359,0.297,-0.029
20.37,-0.187,0.174,-0.094
20.38,-0.107,0.023,-0.184
20.39,-0.105,-0.275,-0.037
20.4,-0.107,-0.385,0.123
20.41,-0.19,-0.136,0.305
20.42,-0.203,0.067,0.208
20.43,-0.308,0.175,0.033
20.44,-0.261,0.25,-0.137
20.45,-0.248,0.006,-0.155
20.46,-0.42,-0.012,-0.13
20.47,-0.381,-0.056,-0.084
20.48,-0.357,0.0,0.006
20.49,-0.176,0.194,-0.021
20.5,-0.093,0.227,0.035
20.51,-0.078,-0.116,0.062
20.52,-0.081,-0.037,0.07
20.53,-0.233,-0.288,0.135
20.54,-0.28,-0.218,0.094
20.55,-0.297,0.093,0.005
20.56,-0.362,0.071,-0.003
20.57,-0.306,0.357,-0.091
20.58,-0.364,0.133,-0.106
20.59,-0.341,-0.102,-0.117
20.6,-0.198,-0.033,-0.099
20.61,-0.236,-0.06,0.037
20.62,-0.088,0.022,0.067
20.63,-0.079,0.173,0.019
20.64,-0.106,0.082,0.022
20.65,-0.125,-0.089,0.013
20.66,-0.273,-0.182,0.108
20.67,-0.317,-0.123,0.11
20.68,-0.322,-0.047,0.018
20.69,-0.453,0.112,-0.002
20.7,-0.297,0.169,-0.134
20.71,-0.293,0.21,-0.098
20.72,-0.236,0.023,-0.063
20.73,-0.173,-0.161,-0.039
20.74,-0.152,-0.072,-0.017
20.75,-0.082,0.018,0.048
20.76,-0.17,-0.016,0.131
20.77,-0.132,0.219,0.092
20.78,-0.184,0.01,0.059
20.79,-0.385,-0.038,-0.052
20.8,-0.369,-0.074,-0.097
20.81,-0.451,-0.041,-0.048
20.82,-0.359,0.099,-0.042
20.83,-0.241,0.185,-0.073
20.84,-0.219,0.138,-0.027
20.85,-0.169,0.099,-0.051
20.86,-0.081,0.062,0.007
20.87,-0.088,-0.209,0.06
20.88,-0.062,-0.044,0.03
20.89,-0.192,-0.021,0.119
20.9,-0.262,0.02,0.093
20.91,-0.364,0.198,0.001
20.92,-0.333,-0.076,-0.068
20.93,-0.276,-0.144,-0.104
20.94,-0.378,-0.036,-0.022
20.95,-0.294,-0.04,0.044
20.96,-0.226,0.252,0.017
20.97,-0.196,0.4,-0.051
20.98,-0.065,0.204,-0.142
20.99,-0.043,-0.032,-0.15
21.0,-0.087,-0.326,-0.014
21.01,-0.186,-0.443,0.181
21.02,-0.397,-0.115,0.366
21.03,-0.313,0.095,0.236
21.04,-0.372,0.156,-0.017
21.05,-0.295,0.153,-0.215
21.06,-0.269,-0.028,-0.199
21.07,-0.309,-0.094,-0.075
21.08,-0.307,0.09,-0.047
21.09,-0.192,0.091,-0.011
21.1,-0.115,0.242,-0.05
21.11,-0.106,0.24,-0.019
21.12,-0.157,-0.075,0.116
21.13,-0.204,-0.102,0.095
21.14,-0.372,-0.299,0.139
21.15,-0.345,-0.249,0.031
21.16,-0.285,0.043,-0.041
21.17,-0.292,0.17,-0.019
21.18,-0.156,0.267,-0.079
21.19,-0.292,0.175,-0.063
21.2,-0.275,-0.083,-0.082
21.21,-0.175,-0.026,-0.074
21.22,-0.22,-0.015,0.042
21.23,-0.241,0.102,0.072
21.24,-0.177,0.257,0.032
21.25,-0.142,0.059,-0.018
21.26,-0.141,-0.186,-0.027
21.27,-0.303,-0.202,0.113
21.28,-0.256,-0.372,0.13
21.29,-0.31,0.012,0.07
21.3,-0.363,0.096,-0.005
21.31,-0.274,0.3,-0.071
21.32,-0.311,0.206,-0.092
21.33,-0.181,0.125,-0.123
21.34,-0.166,-0.094,-0.037
21.35,-0.15,-0.089,-0.064
21.36,-0.134,0.046,0.025
21.37,-0.166,-0.02,0.095
21.38,-0.155,0.138,0.136
21.39,-0.305,-0.045,0.051
21.4,-0.335,-0.198,-0.022
21.41,-0.35,-0.082,-0.05
21.42,-0.395,-0.021,0.011
21.43,-0.293,0.182,-0.019
21.44,-0.171,0.278,-0.113
21.45,-0.208,0.171,-0.051
21.46,-0.126,0.263,-0.061
21.47,-0.122,-0.079,0.029
21.48,-0.193,-0.124,0.057
21.49,-0.174,-0.117,0.045
21.5,-0.245,-0.122,0.066
21.51,-0.256,-0.081,0.087
21.52,-0.308,0.088,0.0
21.53,-0.251,-0.076,-0.025
21.54,-0.244,-0.062,-0.048
21.55,-0.301,0.036,0.021
21.56,-0.264,0.165,0.071
21.57,-0.314,0.307,0.006
21.58,-0.261,0.327,-0.112
21.59,-0.135,0.011,-0.196
21.6,-0.169,-0.207,-0.172
21.61,-0.202,-0.3,-0.002
21.62,-0.211,-0.374,0.264
21.63,-0.216,0.042,0.303
21.64,-0.145,0.191,0.126
21.65,-0.166,0.205,-0.06
21.66,-0.202,0.118,-0.169
21.67,-0.354,-0.041,-0.095
21.68,-0.387,-0.082,-0.05
21.69,-0.406,0.104,-0.044
21.7,-0.336,0.065,0.039
21.71,-0.175,0.21,-0.095
21.72,-0.179,0.183,-0.025
21.73,-0.154,-0.228,0.088
21.74,-0.092,-0.103,0.074
21.75,-0.209,-0.239,0.093
21.76,-0.157,-0.157,0.021
21.77,-0.235,0.115,-0.013
21.78,-0.248,0.178,0.018
21.79,-0.312,0.199,-0.021
21.8,-0.427,0.123,0.036
21.81,-0.399,-0.057,-0.056
21.82,-0.354,-0.094,-0.11
21.83,-0.238,0.116,-0.058
21.84,-0.141,0.038,0.001
21.85,-0.108,0.118,-0.004
21.86,-0.042,-0.062,-0.057
21.87,-0.074,-0.263,0.069
21.88,-0.181,-0.06,0.137
21.89,-0.25,-0.063,0.155
21.9,-0.375,0.072,0.081
21.91,-0.383,0.199,-0.088
21.92,-0.384,0.136,-0.114
21.93,-0.332,0.054,-0.15
21.94,-0.26,-0.003,-0.09
21.95,-0.249,-0.049,-0.002
21.96,-0.064,-0.032,0.013
21.97,-0.104,0.095,0.059
21.98,-0.052,-0.022,0.115
21.99,-0.092,0.082,0.064
22.0,-0.276,-0.031,0.048
22.01,-0.342,-0.176,-0.019
22.02,-0.456,0.031,-0.036
22.03,-0.441,0.075,-0.03
22.04,-0.253,0.111,-0.08
22.05,-0.275,0.221,-0.053
22.06,-0.253,0.12,-0.033
22.07,-0.162,0.032,-0.002
22.08,-0.121,-0.069,-0.005
22.09,-0.069,-0.144,0.008
22.1,-0.179,-0.019,0.06
22.11,-0.189,0.032,0.074
22.12,-0.253,0.062,0.076
22.13,-0.31,0.052,-0.043
22.14,-0.234,-0.085,-0.095
22.15,-0.267,-0.173,0.003
22.16,-0.374,0.098,0.045
22.17,-0.38,0.229,0.037
22.18,-0.295,0.197,-0.041
22.19,-0.161,0.366,-0.203
22.2,-0.102,-0.066,-0.16
22.21,-0.044,-0.326,-0.027
22.22,-0.119,-0.298,0.104
22.23,-0.243,-0.248,0.365
22.24,-0.194,0.127,0.271
22.25,-0.274,0.258,0.008
22.26,-0.208,0.132,-0.193
22.27,-0.31,0.078,-0.265
22.28,-0.501,-0.121,-0.073
22.29,-0.419,-0.042,-0.006
22.3,-0.269,0.093,0.017
22.31,-0.227,0.101,0.021
22.32,-0.056,0.151,-0.007
22.33,-0.032,0.142,0.065
22.34,-0.069,-0.123,0.148
22.35,-0.286,-0.166,0.094
22.36,-0.295,-0.123,-0.019
22.37,-0.245,-0.117,-0.051
22.38,-0.334,0.225,-0.07
22.39,-0.379,0.184,-0.014
22.4,-0.389,-0.009,-0.012
22.41,-0.245,0.05,-0.054
22.42,-0.188,-0.051,-0.036
22.43,-0.181,-0.019,0.001
22.44,-0.112,0.143,-0.0
22.45,-0.126,0.191,0.021
22.46,-0.104,0.09,0.01
22.47,-0.203,-0.082,0.043
22.48,-0.337,-0.292,0.15
22.49,-0.285,-0.156,0.045
22.5,-0.361,-0.174,0.035
22.51,-0.391,0.003,-0.044
22.52,-0.252,0.271,-0.1
22.53,-0.203,0.262,-0.061
22.54,-0.118,0.055,-0.106
22.55,-0.121,0.104,-0.053
22.56,-0.16,-0.105,0.051
22.57,-0.178,-0.007,0.063
22.58,-0.215,0.043,0.113
22.59,-0.262,-0.025,0.105
22.6,-0.34,-0.043,0.036
22.61,-0.394,-0.06,-0.043
22.62,-0.351,-0.176,-0.051
22.63,-0.265,0.05,-0.039
22.64,-0.156,0.205,-0.065
22.65,-0.12,0.11,-0.079
22.66,-0.231,0.248,-0.06
22.67,-0.263,0.092,-0.004
22.68,-0.189,0.017,0.011
22.69,-0.213,-0.06,0.046
22.7,-0.267,-0.141,0.079
22.71,-0.223,-0.026,0.067
22.72,-0.256,-0.053,0.065
22.73,-0.214,-0.015,0.039
22.74,-0.156,0.036,-0.07
22.75,-0.187,-0.159,-0.098
22.76,-0.225,-0.002,-0.06
22.77,-0.297,0.195,0.038
22.78,-0.4,0.285,0.084
22.79,-0.346,0.215,-0.028
22.8,-0.187,0.247,-0.167
22.81,-0.082,-0.258,-0.145
22.82,-0.159,-0.398,0.069
22.83,-0.178,-0.215,0.208
22.84,-0.267,-0.138,0.353
22.85,-0.215,0.152,0.126
22.86,-0.151,0.248,-0.149
22.87,-0.314,0.034,-0.181
22.88,-0.294,0.02,-0.18
22.89,-0.423,0.027,-0.05
22.9,-0.32,-0.085,-0.047
22.91,-0.245,0.226,-0.024
22.92,-0.217,0.238,0.044
22.93,-0.093,0.125,0.035
22.94,-0.108,0.033,0.045
22.95,-0.203,-0.306,0.088
22.96,-0.281,-0.286,0.056
22.97,-0.308,-0.163,0.055
22.98,-0.241,-0.073,-0.024
22.99,-0.279,0.227,-0.05
23.0,-0.279,0.237,-0.068
23.01,-0.296,0.143,-0.024
23.02,-0.26,0.135,-0.055
23.03,-0.23,0.044,-0.071
23.04,-0.214,-0.067,-0.037
23.05,-0.159,0.216,0.013
23.06,-0.183,0.025,0.076
23.07,-0.2,-0.025,0.009
23.08,-0.217,-0.279,0.026
23.09,-0.264,-0.358,0.118
23.1,-0.208,-0.068,0.111
23.11,-0.291,0.052,0.076
23.12,-0.34,0.149,0.009
23.13,-0.197,0.366,-0.177
23.14,-0.231,0.104,-0.105
23.15,-0.27,-0.053,-0.062
23.16,-0.283,-0.058,-0.035
23.17,-0.229,-0.127,0.036
23.18,-0.189,0.008,0.057
23.19,-0.195,0.05,0.139
23.2,-0.177,-0.036,0.104
23.21,-0.134,-0.01,0.0
23.22,-0.251,-0.108,-0.029
23.23,-0.316,-0.038,-0.054
23.24,-0.355,0.129,-0.011
23.25,-0.279,0.216,-0.037
23.26,-0.286,0.25,-0.108
23.27,-0.321,0.129,-0.082
23.28,-0.303,0.01,0.01
23.29,-0.215,-0.065,0.016
23.3,-0.092,-0.194,0.041
23.31,-0.054,-0.187,0.054
23.32,-0.075,-0.015,0.053
23.33,-0.212,0.123,0.102
23.34,-0.285,-0.009,0.057
23.35,-0.259,0.067,-0.109
23.36,-0.33,-0.05,-0.064
23.37,-0.389,-0.022,-0.011
23.38,-0.387,0.26,0.035
23.39,-0.448,0.223,0.01
23.4,-0.228,0.165,-0.152
23.41,-0.036,0.008,-0.177
23.42,-0.008,-0.291,-0.031
23.43,-0.005,-0.35,0.079
23.44,-0.202,-0.131,0.298
23.45,-0.209,0.035,0.31
23.46,-0.247,0.278,0.034
23.47,-0.334,0.193,-0.124
23.48,-0.217,-0.051,-0.231
23.49,-0.45,-0.062,-0.132
23.5,-0.493,-0.01,-0.03
23.51,-0.331,0.006,0.005
23.52,-0.25,0.298,-0.009
23.53,-0.015,0.166,-0.066
23.54,-0.068,0.092,-0.001
23.55,-0.125,-0.094,0.113
23.56,-0.178,-0.303,0.139
23.57,-0.294,-0.205,0.081
23.58,-0.224,-0.067,-0.01
23.59,-0.306,0.006,0.018
23.6,-0.307,0.385,-0.035
23.61,-0.364,0.186,-0.053
23.62,-0.395,-0.031,-0.057
23.63,-0.278,0.025,-0.157
23.64,-0.269,-0.118,-0.027
23.65,-0.096,0.027,-0.032
23.66,-0.084,0.105,-0.007
23.67,-0.125,0.026,0.11
23.68,-0.059,-0.041,0.087
23.69,-0.254,-0.11,0.173
23.7,-0.255,-0.175,0.137
23.71,-0.236,-0.001,-0.073
23.72,-0.415,0.045,-0.089
23.73,-0.338,0.102,-0.138
23.74,-0.305,0.266,-0.131
23.75,-0.323,0.068,-0.056
23.76,-0.151,-0.043,-0.067
23.77,-0.133,-0.021,0.022
23.78,-0.131,0.022,0.097
23.79,-0.07,0.009,0.115
23.8,-0.135,0.104,0.091
23.81,-0.194,-0.054,0.051
23.82,-0.305,-0.026,0.012
23.83,-0.39,-0.108,-0.024
23.84,-0.437,-0.077,-0.04
23.85,-0.386,0.087,-0.048
23.86,-0.263,0.108,-0.071
23.87,-0.202,0.174,-0.08
23.88,-0.211,0.204,-0.029
23.89,-0.157,0.067,0.012
23.9,-0.05,-0.056,-0.036
23.91,-0.095,-0.094,0.01
23.92,-0.172,-0.097,0.138
23.93,-0.226,0.033,0.113
23.94,-0.357,0.04,0.112
23.95,-0.317,-0.14,-0.091
23.96,-0.313,-0.066,-0.137
23.97,-0.332,-0.027,-0.005
23.98,-0.273,0.074,0.064
23.99,-0.292,0.372,-0.017
24.0,-0.214,0.268,-0.105
24.01,-0.084,0.121,-0.201
24.02,0.008,-0.036,-0.148
24.03,-0.167,-0.356,0.138
24.04,-0.252,-0.216,0.282
24.05,-0.35,-0.045,0.296
24.06,-0.285,0.003,0.125
24.07,-0.189,0.176,-0.157
24.08,-0.328,0.107,-0.178
24.09,-0.202,-0.207,-0.11
24.1,-0.354,0.152,-0.106
24.11,-0.291,0.009,-0.008
24.12,-0.232,0.181,-0.029
24.13,-0.26,0.201,-0.006
24.14,-0.092,0.121,0.056
24.15,-0.14,-0.022,0.087
24.16,-0.324,-0.174,0.082
24.17,-0.324,-0.351,0.038
24.18,-0.196,-0.171,0.016
24.19,-0.183,0.071,-0.0
24.2,-0.271,0.086,0.053
24.21,-0.226,0.234,-0.081
24.22,-0.295,0.095,-0.09
24.23,-0.304,0.0,-0.028
24.24,-0.263,0.148,-0.085
24.25,-0.266,0.022,-0.01
24.26,-0.192,0.144,-0.027
24.27,-0.11,0.138,-0.013
24.28,-0.217,-0.088,0.096
24.29,-0.167,-0.206,0.078
24.3,-0.21,-0.135,0.106
24.31,-0.277,-0.26,0.108
24.32,-0.199,0.024,-0.04
24.33,-0.418,0.121,-0.015
24.34,-0.297,0.138,-0.035
24.35,-0.216,0.231,-0.114
24.36,-0.246,-0.001,-0.089
24.37,-0.183,-0.021,-0.07
24.38,-0.148,0.128,0.012
24.39,-0.165,0.021,0.081
24.4,-0.225,-0.004,0.055
24.41,-0.216,0.05,0.034
24.42,-0.26,-0.187,0.07
24.43,-0.311,-0.116,0.008
24.44,-0.34,-0.065,0.005
24.45,-0.27,0.046,-0.009
24.46,-0.241,0.269,-0.036
24.47,-0.237,0.153,-0.087
24.48,-0.229,0.191,-0.095
24.49,-0.235,0.133,-0.071
24.5,-0.187,-0.028,0.018
24.51,-0.212,-0.072,0.014
24.52,-0.241,-0.117,0.038
24.53,-0.201,-0.146,0.092
24.54,-0.151,-0.034,0.098
24.55,-0.213,0.043,0.064
24.56,-0.168,-0.007,-0.028
24.57,-0.229,-0.029,-0.115
24.58,-0.331,0.099,-0.073
24.59,-0.3,0.11,0.011
24.6,-0.335,0.286,0.022
24.61,-0.354,0.299,-0.066
24.62,-0.208,-0.047,-0.167
24.63,-0.126,-0.176,-0.084
24.64,-0.14,-0.332,0.094
24.65,-0.105,-0.312,0.252
24.66,-0.184,-0.023,0.248
24.67,-0.14,0.131,0.072
24.68,-0.219,0.208,-0.097
24.69,-0.287,0.163,-0.159
24.7,-0.369,-0.054,-0.092
24.71,-0.41,-0.009,-0.082
24.72,-0.398,0.099,-0.049
24.73,-0.306,0.014,-0.019
24.74,-0.186,0.202,-0.002
24.75,-0.102,0.151,0.022
24.76,-0.099,-0.101,0.104
24.77,-0.072,-0.152,0.066
24.78,-0.205,-0.252,0.062
24.79,-0.192,-0.13,0.024
24.8,-0.29,0.086,0.047
24.81,-0.373,0.17,0.043
24.82,-0.318,0.275,-0.095
24.83,-0.453,0.07,-0.09
24.84,-0.271,-0.067,-0.1
24.85,-0.238,0.039,-0.09
24.86,-0.256,-0.049,0.019
24.87,-0.06,0.046,0.009
24.88,-0.05,0.124,0.045
24.89,-0.121,-0.109,0.097
24.9,-0.184,-0.191,0.112
24.91,-0.24,-0.079,0.121
24.92,-0.269,-0.132,0.049
24.93,-0.443,0.074,-0.03
24.94,-0.372,0.213,-0.093
24.95,-0.241,0.098,-0.117
24.96,-0.274,0.174,-0.123
24.97,-0.249,-0.002,-0.047
24.98,-0.203,-0.101,0.001
24.99,-0.09,0.027,0.008
25.0,-0.106,0.005,0.085
25.01,-0.151,-0.006,0.088
25.02,-0.148,0.017,0.07
25.03,-0.285,-0.047,0.069
25.04,-0.317,0.017,-0.006
25.05,-0.386,-0.023,-0.043
25.06,-0.336,0.025,-0.024
25.07,-0.264,0.209,-0.135
25.08,-0.347,0.119,-0.046
25.09,-0.286,0.075,-0.028
25.1,-0.185,0.088,-0.036
25.11,-0.125,-0.023,0.004
25.12,-0.012,-0.175,0.029
25.13,-0.106,-0.06,0.095
25.14,-0.183,0.003,0.149
25.15,-0.258,0.025,0.143
25.16,-0.278,0.101,-0.0
25.17,-0.294,-0.111,-0.122
25.18,-0.376,-0.058,-0.126
25.19,-0.425,0.077,-0.004
25.2,-0.406,0.126,0.027
25.21,-0.277,0.275,-0.049
25.22,-0.163,0.251,-0.137
25.23,0.022,-0.078,-0.114
25.24,0.0,-0.156,-0.053
25.25,-0.081,-0.336,0.124
25.26,-0.148,-0.219,0.263
25.27,-0.301,0.14,0.289
25.28,-0.317,0.182,0.093
25.29,-0.318,0.186,-0.17
25.3,-0.39,0.019,-0.233
25.31,-0.414,-0.177,-0.159
25.32,-0.398,-0.018,-0.021
25.33,-0.248,0.067,-0.014
25.34,-0.167,0.222,0.01
25.35,-0.034,0.249,-0.027
25.36,-0.037,0.131,0.046
25.37,-0.112,-0.177,0.139
25.38,-0.187,-0.211,0.131
25.39,-0.42,-0.27,0.095
25.4,-0.307,-0.195,-0.01
25.41,-0.324,0.18,-0.046
25.42,-0.379,0.198,-0.019
25.43,-0.321,0.197,-0.074
25.44,-0.254,0.024,-0.091
25.45,-0.241,-0.05,-0.097
25.46,-0.171,-0.009,-0.055
25.47,-0.184,0.102,0.062
25.48,-0.106,0.114,0.044
25.49,-0.146,0.149,0.047
25.5,-0.148,-0.044,0.029
25.51,-0.202,-0.28,0.018
25.52,-0.344,-0.118,0.058
25.53,-0.305,-0.163,0.056
25.54,-0.361,0.037,-0.007
25.55,-0.271,0.248,-0.056
25.56,-0.221,0.147,-0.084
25.57,-0.246,0.091,-0.054
25.58,-0.247,0.012,-0.04
25.59,-0.144,-0.119,-0.025
25.6,-0.131,0.048,0.005
25.61,-0.167,0.09,0.051
25.62,-0.146,0.065,0.105
25.63,-0.27,0.029,0.065
25.64,-0.3,-0.142,0.025
25.65,-0.334,-0.199,-0.05
25.66,-0.363,-0.066,-0.016
25.67,-0.274,0.106,-0.005
25.68,-0.238,0.28,-0.068
25.69,-0.26,0.249,-0.088
25.7,-0.188,0.172,-0.088
25.71,-0.168,0.061,-0.05
25.72,-0.097,-0.081,-0.029
25.73,-0.196,-0.252,0.074
25.74,-0.236,-0.053,0.08
25.75,-0.223,0.004,0.102
25.76,-0.312,0.006,0.082
25.77,-0.23,0.11,-0.029
25.78,-0.206,-0.105,-0.085
25.79,-0.311,-0.101,-0.06
25.8,-0.277,0.063,-0.006
25.81,-0.26,0.228,0.041
25.82,-0.279,0.335,-0.028
25.83,-0.228,0.3,-0.137
25.84,-0.117,-0.076,-0.147
25.85,-0.112,-0.217,-0.079
25.86,-0.248,-0.34,0.159
25.87,-0.252,-0.312,0.288
25.88,-0.208,0.064,0.243
25.89,-0.212,0.112,0.024
25.9,-0.204,0.193,-0.109
25.91,-0.216,0.076,-0.147
25.92,-0.368,-0.09,-0.066
25.93,-0.364,-0.009,-0.066
25.94,-0.339,0.109,-0.055
25.95,-0.29,0.15,0.001
25.96,-0.119,0.206,-0.015
25.97,-0.208,0.082,0.031
25.98,-0.157,-0.235,0.064
25.99,-0.173,-0.19,0.063
26.0,-0.164,-0.163,0.089
26.01,-0.17,-0.106,0.042
26.02,-0.267,0.227,0.023
26.03,-0.244,0.246,-0.043
26.04,-0.314,0.108,-0.1
26.05,-0.419,0.133,-0.098
26.06,-0.285,-0.064,-0.063
26.07,-0.312,0.002,-0.011
26.08,-0.228,0.139,-0.038
26.09,-0.116,-0.003,0.031
26.1,-0.091,0.059,0.016
26.11,-0.064,-0.062,0.05
26.12,-0.151,-0.37,0.093
26.13,-0.237,-0.066,0.108
26.14,-0.281,-0.143,0.092
26.15,-0.459,0.154,0.045
26.16,-0.365,0.267,-0.064
26.17,-0.282,0.171,-0.121
26.18,-0.291,0.095,-0.136
26.19,-0.219,-0.026,-0.113
26.2,-0.212,-0.135,-0.007
26.21,-0.078,-0.028,0.01
26.22,-0.046,0.047,0.084
26.23,-0.134,-0.071,0.118
26.24,-0.187,0.106,0.052
26.25,-0.337,-0.11,0.028
26.26,-0.355,-0.067,-0.026
26.27,-0.359,0.09,-0.047
26.28,-0.374,0.069,-0.021
26.29,-0.264,0.21,-0.102
26.3,-0.254,0.204,-0.107
26.31,-0.227,0.045,-0.037
26.32,-0.186,0.054,-0.03
26.33,-0.099,-0.157,0.025
26.34,-0.115,-0.177,0.033
26.35,-0.141,-0.003,0.083
26.36,-0.194,-0.03,0.138
26.37,-0.286,0.163,0.057
26.38,-0.295,-0.012,-0.089
26.39,-0.284,-0.138,-0.077
26.4,-0.381,-0.065,-0.018
26.41,-0.329,0.115,0.006
26.42,-0.326,0.155,0.046
26.43,-0.3,0.287,-0.084
26.44,-0.122,0.26,-0.139
26.45,0.021,-0.169,-0.134
26.46,-0.083,-0.223,-0.033
26.47,-0.172,-0.364,0.172
26.48,-0.202,-0.171,0.305
26.49,-0.205,0.236,0.19
26.5,-0.347,0.186,0.059
26.51,-0.327,0.161,-0.146
26.52,-0.298,0.014,-0.199
26.53,-0.458,-0.151,-0.084
26.54,-0.363,-0.019,-0.092
26.55,-0.331,0.045,-0.021
26.56,-0.108,0.18,0.014
26.57,-0.001,0.265,-0.056
26.58,-0.071,0.034,0.065
26.59,-0.087,-0.182,0.076
26.6,-0.257,-0.203,0.11
26.61,-0.323,-0.176,0.127
26.62,-0.323,-0.013,0.049
26.63,-0.378,0.184,-0.01
26.64,-0.394,0.156,-0.102
26.65,-0.405,0.077,-0.062
26.66,-0.28,-0.006,-0.116
26.67,-0.166,-0.145,-0.026
26.68,-0.198,0.05,0.012
26.69,-0.11,0.149,0.053
26.7,-0.063,0.099,0.041
26.71,-0.102,0.125,-0.016
26.72,-0.203,-0.138,0.031
26.73,-0.296,-0.222,0.066
26.74,-0.293,-0.045,0.053
26.75,-0.444,-0.091,0.065
26.76,-0.389,0.104,-0.014
26.77,-0.241,0.246,-0.111
26.78,-0.248,0.029,-0.062
26.79,-0.122,0.02,-0.097
26.8,-0.174,-0.031,-0.03
26.81,-0.154,-0.132,0.043
26.82,-0.074,0.12,0.012
26.83,-0.199,0.119,0.117
26.84,-0.222,0.126,0.067
26.85,-0.284,0.065,0.009
26.86,-0.358,-0.164,-0.047
26.87,-0.341,-0.1,-0.074
26.88,-0.392,0.004,-0.039
26.89,-0.206,0.059,-0.035
26.9,-0.229,0.235,-0.057
26.91,-0.223,0.204,0.011
26.92,-0.179,0.076,0.027
26.93,-0.124,-0.085,-0.011
26.94,-0.189,-0.155,0.013
26.95,-0.178,-0.207,0.088
26.96,-0.225,0.08,0.07
26.97,-0.327,0.11,0.052
26.98,-0.317,0.086,-0.036
26.99,-0.212,0.08,-0.136
27.0,-0.267,-0.148,-0.061
27.01,-0.273,-0.141,-0.02
27.02,-0.258,0.134,0.023
27.03,-0.252,0.215,0.089
27.04,-0.222,0.296,-0.025
27.05,-0.133,0.186,-0.167
27.06,-0.092,-0.27,-0.103
27.07,-0.088,-0.279,-0.022
27.08,-0.279,-0.209,0.268
27.09,-0.366,-0.16,0.296
27.1,-0.287,0.24,0.052
27.11,-0.3,0.15,-0.106
27.12,-0.14,0.02,-0.202
27.13,-0.334,0.064,-0.12
27.14,-0.344,-0.168,-0.005
27.15,-0.22,0.09,0.007
27.16,-0.235,0.144,-0.002
27.17,-0.084,0.152,-0.004
27.18,-0.082,0.245,0.036
27.19,-0.201,-0.065,0.097
27.2,-0.33,-0.264,0.055
27.21,-0.395,-0.228,0.016
27.22,-0.304,-0.149,0.001
27.23,-0.254,0.017,-0.011
27.24,-0.234,0.354,-0.04
27.25,-0.23,0.191,-0.032
27.26,-0.201,0.129,-0.051
27.27,-0.18,-0.025,-0.075
27.28,-0.193,-0.203,-0.001
27.29,-0.184,0.058,0.061
27.3,-0.3,0.183,0.098
27.31,-0.26,0.091,-0.011
27.32,-0.205,0.031,-0.079
27.33,-0.227,-0.195,-0.02
27.34,-0.233,-0.269,0.075
27.35,-0.186,-0.142,0.103
27.36,-0.281,0.057,0.072
27.37,-0.28,0.239,-0.016
27.38,-0.181,0.298,-0.089
27.39,-0.212,0.194,-0.062
27.4,-0.226,-0.015,-0.078
27.41,-0.26,-0.101,-0.039
27.42,-0.27,-0.29,0.019
27.43,-0.21,-0.003,0.061
27.44,-0.196,0.082,0.123
27.45,-0.187,0.053,0.118
27.46,-0.24,0.055,-0.031
27.47,-0.304,-0.066,-0.072
27.48,-0.309,-0.08,-0.035
27.49,-0.309,0.164,-0.015
27.5,-0.335,0.144,-0.004
27.51,-0.216,0.165,-0.091
27.52,-0.223,0.186,-0.096
27.53,-0.204,-0.047,0.022
27.54,-0.146,-0.057,0.058
27.55,-0.205,-0.16,0.072
27.56,-0.178,-0.173,0.08
27.57,-0.144,0.025,0.002
27.58,-0.245,0.116,0.033
27.59,-0.214,0.074,-0.034
27.6,-0.26,0.021,-0.075
27.61,-0.373,-0.11,-0.018
27.62,-0.322,-0.011,0.022
27.63,-0.284,0.192,0.054
27.64,-0.299,0.285,0.056
27.65,-0.238,0.192,-0.109
27.66,-0.138,0.005,-0.156
27.67,-0.029,-0.326,-0.104
27.68,-0.088,-0.332,0.067
27.69,-0.319,-0.244,0.305
27.7,-0.235,0.011,0.238
27.71,-0.205,0.305,0.045
27.72,-0.258,0.211,-0.154
27.73,-0.309,0.091,-0.181
27.74,-0.346,-0.002,-0.102
27.75,-0.371,-0.07,-0.003
27.76,-0.352,0.003,-0.024
27.77,-0.22,0.18,-0.043
27.78,-0.17,0.027,0.025
27.79,-0.035,0.136,0.046
27.8,-0.107,-0.121,0.085
27.81,-0.256,-0.331,0.091
27.82,-0.225,-0.031,-0.024
27.83,-0.228,-0.072,0.023
27.84,-0.281,0.152,0.025
27.85,-0.268,0.323,-0.036
27.86,-0.388,0.089,0.007
27.87,-0.327,0.018,-0.099
27.88,-0.292,-0.053,-0.116
27.89,-0.295,-0.134,-0.016
27.9,-0.168,0.079,0.027
27.91,-0.127,0.189,0.048
27.92,-0.02,0.016,0.003
27.93,-0.076,-0.015,-0.021
27.94,-0.197,-0.266,0.094
27.95,-0.215,-0.155,0.172
27.96,-0.393,0.005,0.11
27.97,-0.49,0.089,-0.027
27.98,-0.352,0.149,-0.179
27.99,-0.298,0.256,-0.194
28.0,-0.294,0.066,-0.072
28.01,-0.199,-0.164,0.006
28.02,-0.095,-0.021,-0.017
28.03,0.002,-0.113,0.044
28.04,-0.062,0.056,0.133
28.05,-0.151,0.135,0.128
28.06,-0.267,0.023,0.101
28.07,-0.343,0.008,-0.027
28.08,-0.433,-0.077,-0.107
28.09,-0.436,-0.057,-0.089
28.1,-0.375,0.106,-0.069
28.11,-0.278,0.121,-0.038
28.12,-0.15,0.186,-0.066
28.13,-0.103,0.117,-0.063
28.14,-0.136,0.056,0.053
28.15,-0.08,-0.055,0.033
28.16,-0.133,-0.065,0.072
28.17,-0.147,-0.109,0.079
28.18,-0.265,0.025,0.034
28.19,-0.403,0.077,0.054
28.2,-0.279,-0.123,-0.016
28.21,-0.307,-0.083,-0.126
28.22,-0.398,-0.033,-0.01
28.23,-0.302,0.001,0.036
28.24,-0.27,0.344,0.051
28.25,-0.223,0.348,-0.052
28.26,-0.116,0.149,-0.162
28.27,-0.046,-0.068,-0.186
28.28,-0.004,-0.414,-0.049
28.29,-0.177,-0.28,0.232
28.3,-0.313,-0.015,0.389
28.31,-0.279,0.094,0.24
28.32,-0.31,0.208,-0.128
28.33,-0.312,0.099,-0.237
28.34,-0.327,-0.136,-0.18
28.35,-0.353,-0.008,-0.066
28.36,-0.349,0.028,-0.007
28.37,-0.188,0.082,-0.015
28.38,-0.094,0.245,-0.021
28.39,-0.047,0.18,0.051
28.4,-0.127,0.046,0.112
28.41,-0.213,-0.177,0.135
28.42,-0.345,-0.285,0.102
28.43,-0.251,-0.121,-0.07
28.44,-0.354,-0.018,-0.014
28.45,-0.333,0.062,-0.016
28.46,-0.23,0.3,-0.058
28.47,-0.255,-0.044,-0.005
28.48,-0.244,0.066,-0.051
28.49,-0.195,0.054,-0.04
28.5,-0.228,0.025,0.02
28.51,-0.188,0.149,-0.024
28.52,-0.166,0.121,-0.028
28.53,-0.167,-0.097,0.027
28.54,-0.236,-0.158,0.054
28.55,-0.289,-0.195,0.124
28.56,-0.224,-0.24,0.098
28.57,-0.263,0.041,-0.017
28.58,-0.287,0.144,-0.031
28.59,-0.248,0.201,-0.108
28.6,-0.258,0.209,-0.108
28.61,-0.253,0.054,-0.048
28.62,-0.185,-0.041,-0.042
28.63,-0.2,0.021,0.018
28.64,-0.169,-0.003,0.093
28.65,-0.115,0.049,0.054
28.66,-0.252,0.007,0.065
28.67,-0.279,-0.1,0.03
28.68,-0.28,-0.107,0.002
28.69,-0.369,-0.071,-0.002
28.7,-0.312,0.043,-0.014
28.71,-0.232,0.184,-0.052
28.72,-0.232,0.155,-0.064
28.73,-0.246,0.13,-0.039
28.74,-0.241,0.139,-0.004
28.75,-0.208,-0.051,0.017
28.76,-0.193,-0.076,0.015
28.77,-0.206,-0.082,0.006
28.78,-0.191,-0.075,0.107
28.79,-0.182,0.068,0.055
28.8,-0.223,-0.036,-0.009
28.81,-0.134,-0.154,-0.078
28.82,-0.256,-0.032,-0.067
28.83,-0.363,0.071,0.071
28.84,-0.342,0.215,0.05
28.85,-0.36,0.418,-0.019
28.86,-0.277,0.256,-0.153
28.87,-0.104,-0.093,-0.182
28.88,-0.073,-0.29,-0.096
28.89,-0.121,-0.347,0.121
28.9,-0.2,-0.25,0.303
28.91,-0.252,0.136,0.273
28.92,-0.19,0.125,0.017
28.93,-0.197,0.272,-0.189
28.94,-0.293,0.006,-0.181
28.95,-0.379,-0.128,-0.074
28.96,-0.426,0.011,-0.005
28.97,-0.308,0.078,0.024
28.98,-0.172,0.202,-0.04
28.99,-0.108,0.2,-0.047
29.0,-0.185,0.074,0.068
29.01,-0.189,-0.135,0.079
29.02,-0.248,-0.222,0.067
29.03,-0.3,-0.272,0.044
29.04,-0.18,-0.035,-0.038
29.05,-0.312,0.12,0.151
29.06,-0.197,0.084,-0.117
29.07,-0.17,0.101,-0.227
29.08,-0.314,0.009,-0.138
29.09,-0.366,-0.084,-0.063
29.1,-0.247,0.187,-0.024
29.11,-0.254,0.209,0.041
29.12,-0.192,0.206,0.005
29.13,-0.153,0.135,0.022
29.14,-0.18,-0.113,0.101
29.15,-0.246,-0.312,0.093
29.16,-0.337,-0.235,0.066
29.17,-0.198,-0.295,0.035
29.18,-0.237,0.116,0.012
29.19,-0.281,0.214,-0.013
29.2,-0.284,0.115,-0.038
29.21,-0.352,0.252,-0.076
29.22,-0.264,0.009,-0.091
29.23,-0.277,-0.007,-0.07
29.24,-0.231,0.092,-0.034
29.25,-0.154,0.117,0.025
29.26,-0.184,0.059,0.034
29.27,-0.116,-0.04,0.031
29.28,-0.154,-0.309,0.108
29.29,-0.204,-0.224,0.094
29.3,-0.237,-0.097,0.068
29.31,-0.358,-0.026,0.058
29.32,-0.353,0.26,-0.065
29.33,-0.289,0.292,-0.137
29.34,-0.252,0.035,-0.099
29.35,-0.201,0.153,-0.105
29.36,-0.222,-0.094,0.004
29.37,-0.221,-0.068,0.006
29.38,-0.114,0.033,0.014
29.39,-0.136,0.079,0.085
29.4,-0.219,-0.049,0.143
29.41,-0.258,0.003,0.062
29.42,-0.284,-0.204,0.004
29.43,-0.354,-0.081,-0.029
29.44,-0.339,0.085,-0.037
29.45,-0.245,0.168,-0.044
29.46,-0.296,0.28,-0.083
29.47,-0.277,0.144,-0.06
29.48,-0.232,0.067,-0.083
29.49,-0.198,-0.084,-0.033
29.5,-0.169,-0.112,0.04
29.51,-0.094,-0.16,0.068
29.52,-0.174,0.006,0.107
29.53,-0.19,0.03,0.113
29.54,-0.177,0.082,0.003
29.55,-0.219,0.064,-0.066
29.56,-0.322,-0.185,-0.05
29.57,-0.336,0.095,-0.032
29.58,-0.375,0.15,-0.014
29.59,-0.375,0.16,-0.02
29.6,-0.215,0.339,-0.146
29.61,-0.138,0.042,-0.145
29.62,-0.091,-0.223,-0.036
29.63,-0.043,-0.239,0.062
29.64,-0.142,-0.279,0.305
29.65,-0.194,-0.022,0.295
29.66,-0.164,0.188,0.049
29.67,-0.285,0.117,-0.054
29.68,-0.293,0.008,-0.18
29.69,-0.445,0.044,-0.099
29.7,-0.447,-0.152,-0.024
29.71,-0.392,0.054,-0.103
29.72,-0.318,0.233,-0.042
29.73,-0.109,0.141,-0.017
29.74,-0.114,0.183,0.063
29.75,-0.082,-0.093,0.095
29.76,-0.061,-0.281,0.04
29.77,-0.223,-0.204,0.099
29.78,-0.165,-0.107,0.044
29.79,-0.315,0.137,0.045
29.8,-0.431,0.305,0.014
29.81,-0.346,0.083,-0.033
29.82,-0.452,0.117,-0.147
29.83,-0.332,-0.085,-0.176
29.84,-0.229,-0.197,-0.04
29.85,-0.104,0.134,-0.003
29.86,-0.095,0.149,0.064
29.87,-0.094,0.071,0.067
29.88,-0.02,0.046,0.016
29.89,-0.156,-0.189,0.122
29.9,-0.305,-0.188,0.179
29.91,-0.326,-0.061,0.058
29.92,-0.492,-0.036,-0.002
29.93,-0.401,0.07,-0.125
29.94,-0.268,0.209,-0.108
29.95,-0.258,-0.027,-0.054
29.96,-0.189,0.038,-0.065
29.97,-0.133,0.009,-0.027
29.98,-0.075,-0.02,-0.029
29.99,-0.18,0.167,0.072
30.0,-0.152,0.079,0.137
30.01,-0.15,0.022,0.075
30.02,-0.337,-0.009,-0.023
30.03,-0.351,-0.195,-0.042
30.04,-0.391,-0.094,-0.058
30.05,-0.388,0.054,0.033
30.06,-0.22,0.132,-0.054
30.07,-0.213,0.224,-0.087
30.08,-0.259,0.141,-0.064
30.09,-0.117,0.079,-0.029
30.1,-0.096,0.036,0.023
30.11,-0.144,-0.19,0.033
30.12,-0.185,-0.143,0.086
30.13,-0.126,0.055,0.089
30.14,-0.353,0.066,0.134
30.15,-0.31,0.058,-0.043
30.16,-0.222,-0.077,-0.164
30.17,-0.364,-0.146,-0.05
30.18,-0.322,0.012,0.034
30.19,-0.33,0.185,0.05
30.2,-0.27,0.285,0.01
30.21,-0.127,0.219,-0.162
30.22,-0.086,0.005,-0.098
30.23,-0.05,-0.348,0.011
30.24,-0.177,-0.247,0.144
30.25,-0.343,-0.184,0.271
30.26,-0.209,0.041,0.161
30.27,-0.332,0.243,-0.005
30.28,-0.344,0.16,-0.133
30.29,-0.274,-0.014,-0.168
30.3,-0.307,-0.091,-0.098
30.31,-0.265,-0.061,-0.046
30.32,-0.266,0.064,0.016
30.33,-0.19,0.227,0.023
30.34,-0.037,0.232,-0.027
30.35,-0.144,0.157,0.029
30.36,-0.188,-0.093,0.059
30.37,-0.291,-0.326,0.074
30.38,-0.383,-0.177,0.059
30.39,-0.317,-0.1,0.029
30.4,-0.295,0.073,-0.003
30.41,-0.177,0.312,-0.074
30.42,-0.302,0.037,-0.018
30.43,-0.223,0.049,-0.053
30.44,-0.174,0.04,-0.071
30.45,-0.206,-0.145,0.02
30.46,-0.183,0.248,-0.005
30.47,-0.238,0.136,0.055
30.48,-0.215,0.011,0.022
30.49,-0.229,-0.045,-0.03
30.5,-0.321,-0.259,0.066
30.51,-0.295,-0.241,0.058
30.52,-0.251,-0.055,0.047
30.53,-0.263,0.089,0.046
30.54,-0.172,0.254,-0.079
30.55,-0.22,0.241,-0.086
30.56,-0.18,0.0,-0.054
30.57,-0.213,0.032,-0.057
30.58,-0.287,-0.022,-0.013
30.59,-0.249,-0.127,0.042
30.6,-0.192,0.108,0.018
30.61,-0.185,0.056,0.051
30.62,-0.276,-0.073,0.057
30.63,-0.294,-0.033,0.029
30.64,-0.27,-0.153,0.016
30.65,-0.214,0.096,-0.016
30.66,-0.243,0.174,-0.024
30.67,-0.226,0.172,-0.084
30.68,-0.297,0.218,-0.089
30.69,-0.305,0.125,-0.009
30.7,-0.191,-0.139,0.0
30.71,-0.187,-0.061,-0.016
30.72,-0.186,-0.197,0.041
30.73,-0.198,-0.093,0.108
30.74,-0.185,0.055,0.104
30.75,-0.262,0.052,0.047
30.76,-0.204,0.021,-0.07
30.77,-0.224,0.02,-0.114
30.78,-0.353,-0.054,-0.023
30.79,-0.307,0.088,0.012
30.8,-0.346,0.291,0.018
30.81,-0.312,0.206,-0.009
30.82,-0.1,0.166,-0.153
30.83,-0.088,-0.062,-0.2
30.84,-0.119,-0.462,0.017
30.85,-0.123,-0.201,0.203
30.86,-0.258,-0.078,0.317
30.87,-0.229,0.029,0.12
30.88,-0.251,0.239,-0.032
30.89,-0.305,0.142,-0.125
30.9,-0.292,0.004,-0.162
30.91,-0.425,-0.079,-0.055
30.92,-0.317,0.038,-0.041
30.93,-0.246,0.144,0.001
30.94,-0.215,0.169,-0.008
30.95,-0.052,0.103,-0.023
30.96,-0.15,0.021,0.062
30.97,-0.186,-0.284,0.115
30.98,-0.256,-0.326,0.063
30.99,-0.264,-0.066,0.033
31.0,-0.293,-0.02,0.043
31.01,-0.306,0.24,0.008
31.02,-0.24,0.332,-0.095
31.03,-0.346,0.099,-0.05
31.04,-0.311,0.014,-0.084
31.05,-0.226,0.01,-0.113
31.06,-0.276,-0.142,0.034
31.07,-0.141,0.124,0.029
31.08,-0.135,0.146,0.018
31.09,-0.091,-0.145,-0.0
31.1,-0.096,-0.066,-0.009
31.11,-0.261,-0.203,0.136
31.12,-0.268,-0.132,0.118
31.13,-0.333,0.053,0.033
31.14,-0.365,0.128,-0.021
31.15,-0.264,0.291,-0.12
31.16,-0.322,0.152,-0.095
31.17,-0.267,-0.06,-0.069
31.18,-0.193,-0.022,-0.041
31.19,-0.142,-0.149,0.015
31.2,-0.118,-0.084,0.046
31.21,-0.088,0.033,0.085
31.22,-0.18,0.147,0.133
31.23,-0.278,-0.067,0.065
31.24,-0.39,-0.008,-0.013
31.25,-0.405,-0.11,-0.041
31.26,-0.363,0.032,-0.074
31.27,-0.266,0.23,-0.079
31.28,-0.253,0.133,-0.061
31.29,-0.234,0.219,-0.088
31.3,-0.116,0.098,-0.051
31.31,-0.114,-0.135,0.012
31.32,-0.135,-0.119,0.044
31.33,-0.188,-0.106,0.058
31.34,-0.225,-0.098,0.148
31.35,-0.269,0.184,0.111
31.36,-0.328,0.111,0.014
31.37,-0.266,-0.045,-0.114
31.38,-0.213,-0.135,-0.127
31.39,-0.347,-0.021,-0.013
31.4,-0.329,0.095,0.06
31.41,-0.298,0.342,0.028
31.42,-0.232,0.277,-0.096
31.43,-0.054,0.135,-0.2
31.44,-0.115,-0.193,-0.108
31.45,-0.115,-0.467,0.074
31.46,-0.169,-0.217,0.229
31.47,-0.302,-0.049,0.352
31.48,-0.245,0.133,0.154
31.49,-0.258,0.276,-0.075
31.5,-0.324,0.08,-0.176
31.51,-0.368,-0.126,-0.157
31.52,-0.422,-0.003,-0.083
31.53,-0.331,0.008,-0.038
31.54,-0.287,0.116,-0.03
31.55,-0.098,0.27,-0.048
31.56,-0.03,0.108,0.012
31.57,-0.031,-0.015,0.071
31.58,-0.178,-0.184,0.131
31.59,-0.282,-0.316,0.158
31.6,-0.256,-0.021,-0.001
31.61,-0.332,0.041,-0.034
31.62,-0.367,0.134,-0.061
31.63,-0.333,0.243,-0.112
31.64,-0.384,0.014,-0.061
31.65,-0.245,-0.093,-0.097
31.66,-0.218,0.025,-0.042
31.67,-0.15,0.052,0.042
31.68,-0.066,0.122,0.048
31.69,-0.116,0.248,0.065
31.7,-0.045,-0.116,0.009
31.71,-0.235,-0.107,0.049
31.72,-0.315,-0.26,0.122
31.73,-0.317,-0.247,0.06
31.74,-0.473,0.076,-0.008
31.75,-0.277,0.1,-0.085
31.76,-0.242,0.29,-0.089
31.77,-0.207,0.157,-0.073
31.78,-0.185,-0.092,-0.022
31.79,-0.02,0.053,-0.097
31.8,-0.097,0.025,-0.007
31.81,-0.208,-0.014,0.128
31.82,-0.182,0.108,0.103
31.83,-0.316,0.046,0.077
31.84,-0.399,-0.192,0.01
31.85,-0.351,-0.089,-0.095
31.86,-0.344,-0.087,-0.001
31.87,-0.27,0.073,-0.014
31.88,-0.199,0.251,-0.055
31.89,-0.194,0.214,-0.083
31.9,-0.166,0.171,-0.101
31.91,-0.1,0.121,-0.035
31.92,-0.161,-0.152,0.052
31.93,-0.266,-0.076,0.063
31.94,-0.218,-0.095,0.069
31.95,-0.23,-0.086,0.122
31.96,-0.32,0.075,0.028
31.97,-0.242,-0.054,-0.012
31.98,-0.17,-0.209,-0.089
31.99,-0.278,0.132,-0.022
32.0,-0.315,-0.012,0.083
32.01,-0.328,0.279,0.031
32.02,-0.329,0.383,-0.048
32.03,-0.161,0.127,-0.158
32.04,-0.129,0.003,-0.201
32.05,-0.188,-0.347,-0.016
32.06,-0.185,-0.401,0.149
32.07,-0.203,-0.095,0.27
32.08,-0.19,0.075,0.222
32.09,-0.167,0.119,-0.007
32.1,-0.232,0.253,-0.164
32.11,-0.281,-0.048,-0.114
32.12,-0.408,-0.031,-0.059
32.13,-0.381,0.02,-0.056
32.14,-0.344,0.002,0.015
32.15,-0.192,0.281,-0.015
32.16,-0.14,0.264,-0.032
32.17,-0.176,-0.065,0.037
32.18,-0.146,-0.049,0.026
32.19,-0.231,-0.282,0.11
32.2,-0.245,-0.267,0.113
32.21,-0.171,-0.022,-0.017
32.22,-0.295,0.16,0.019
32.23,-0.272,0.166,-0.039
32.24,-0.336,0.275,-0.018
32.25,-0.333,-0.02,-0.039
32.26,-0.245,0.015,-0.09
32.27,-0.313,-0.008,-0.021
32.28,-0.182,0.024,-0.024
32.29,-0.198,0.118,0.034
32.3,-0.156,0.021,-0.018
32.31,-0.085,-0.234,0.0
32.32,-0.223,-0.257,0.063
32.33,-0.182,-0.106,0.142
32.34,-0.243,-0.01,0.11
32.35,-0.33,0.27,0.042
32.36,-0.259,0.225,-0.085
32.37,-0.28,0.159,-0.157
32.38,-0.301,0.091,-0.124
32.39,-0.269,-0.142,-0.023
32.4,-0.278,-0.085,0.011
32.41,-0.24,-0.025,0.02
32.42,-0.125,-0.06,0.121
32.43,-0.068,0.098,0.078
32.44,-0.163,0.094,0.069
32.45,-0.212,-0.136,-0.001
32.46,-0.281,0.006,-0.063
32.47,-0.359,0.042,0.0
32.48,-0.317,0.088,-0.031
32.49,-0.316,0.251,-0.071
32.5,-0.304,0.072,-0.057
32.51,-0.28,0.062,-0.021
32.52,-0.224,-0.059,0.022
32.53,-0.116,-0.157,0.039
32.54,-0.143,-0.115,0.044
32.55,-0.082,0.001,0.032
32.56,-0.131,0.064,0.062
32.57,-0.304,0.137,0.047
32.58,-0.255,0.036,-0.041
32.59,-0.242,-0.166,-0.089
32.6,-0.396,-0.017,-0.016
32.61,-0.366,0.024,0.067
32.62,-0.359,0.254,0.044
32.63,-0.307,0.366,-0.062
32.64,-0.17,0.109,-0.188
32.65,0.042,-0.1,-0.198
32.66,-0.038,-0.401,-0.018
32.67,-0.173,-0.373,0.256
32.68,-0.222,-0.04,0.338
32.69,-0.276,0.16,0.21
32.7,-0.321,0.239,-0.057
32.71,-0.253,0.163,-0.222
32.72,-0.384,-0.006,-0.155
32.73,-0.396,-0.118,-0.087
32.74,-0.323,0.065,-0.042
32.75,-0.272,0.068,0.007
32.76,-0.089,0.136,-0.006
32.77,-0.107,0.221,0.024
32.78,-0.119,-0.104,0.125
32.79,-0.179,-0.232,0.071
32.8,-0.319,-0.174,0.057
32.81,-0.259,-0.195,0.02
32.82,-0.344,0.142,-0.0
32.83,-0.335,0.228,-0.015
32.84,-0.174,0.221,-0.111
32.85,-0.359,0.085,-0.028
32.86,-0.332,-0.108,-0.045
32.87,-0.185,-0.141,-0.058
32.88,-0.224,0.01,0.028
32.89,-0.172,0.105,0.041
32.9,-0.134,0.188,0.002
32.91,-0.079,0.108,-0.045
32.92,-0.161,-0.161,0.043
32.93,-0.27,-0.166,0.131
32.94,-0.312,-0.091,0.104
32.95,-0.341,-0.099,0.009
32.96,-0.364,0.212,-0.116
32.97,-0.302,0.172,-0.097
32.98,-0.239,0.15,-0.072
32.99,-0.184,0.046,-0.019
33.0,-0.196,-0.13,0.021
33.01,-0.099,-0.152,-0.034
33.02,-0.082,0.027,0.067
33.03,-0.091,0.073,0.154
33.04,-0.217,0.166,0.11
33.05,-0.373,0.019,0.023
33.06,-0.361,-0.215,-0.093
33.07,-0.433,-0.028,-0.114
33.08,-0.419,-0.001,-0.024
33.09,-0.247,0.11,-0.025
33.1,-0.163,0.228,-0.097
33.11,-0.173,0.166,-0.04
33.12,-0.167,0.101,0.045
33.13,-0.085,-0.042,0.03
33.14,-0.105,-0.129,0.043
33.15,-0.179,-0.09,0.07
33.16,-0.238,0.006,0.053
33.17,-0.325,0.021,0.079
33.18,-0.361,0.059,-0.046
33.19,-0.297,-0.045,-0.124
33.2,-0.266,-0.157,-0.091
33.21,-0.252,0.064,0.016
33.22,-0.306,0.182,0.096
33.23,-0.288,0.302,0.053
33.24,-0.143,0.307,-0.104
33.25,-0.041,0.064,-0.156
33.26,-0.106,-0.323,-0.095
33.27,-0.212,-0.341,0.104
33.28,-0.316,-0.316,0.33
33.29,-0.273,0.043,0.23
33.3,-0.257,0.193,0.039
33.31,-0.301,0.158,-0.164
33.32,-0.183,0.165,-0.234
33.33,-0.283,-0.061,-0.097
33.34,-0.334,-0.098,-0.026
33.35,-0.276,0.038,-0.028
33.36,-0.277,0.118,0.046
33.37,-0.108,0.205,0.015
33.38,-0.139,0.243,0.026
33.39,-0.245,-0.189,0.127
33.4,-0.195,-0.243,0.028
33.41,-0.294,-0.183,0.059
33.42,-0.247,-0.206,-0.003
33.43,-0.222,0.099,-0.055
33.44,-0.259,0.244,-0.048
33.45,-0.231,0.152,-0.043
33.46,-0.365,0.189,0.009
33.47,-0.291,-0.012,-0.083
33.48,-0.234,-0.097,-0.09
33.49,-0.236,0.128,0.034
33.5,-0.162,0.076,0.1
33.51,-0.117,0.146,0.045
33.52,-0.126,-0.112,-0.048
33.53,-0.181,-0.322,0.04
33.54,-0.293,-0.235,0.148
33.55,-0.281,-0.138,0.149
33.56,-0.385,0.032,0.039
33.57,-0.328,0.243,-0.148
33.58,-0.247,0.302,-0.141
33.59,-0.236,0.09,-0.092
33.6,-0.207,0.094,-0.048
33.61,-0.17,-0.054,0.014
33.62,-0.14,-0.111,0.026
33.63,-0.157,0.036,0.036
33.64,-0.176,0.012,0.133
33.65,-0.2,0.028,0.117
33.66,-0.324,-0.071,0.023
33.67,-0.345,-0.176,-0.081
33.68,-0.338,0.014,-0.093
33.69,-0.398,0.047,0.002
33.7,-0.206,0.214,-0.06
33.71,-0.166,0.242,-0.086
33.72,-0.247,0.123,-0.034
33.73,-0.135,0.107,0.007
33.74,-0.172,-0.032,0.029
33.75,-0.194,-0.185,0.077
33.76,-0.218,-0.136,0.055
33.77,-0.149,-0.033,0.04
33.78,-0.25,-0.088,0.045
33.79,-0.315,0.085,0.013
33.8,-0.226,0.008,-0.064
33.81,-0.272,-0.105,-0.06
33.82,-0.342,0.14,0.005
33.83,-0.315,0.212,0.024
33.84,-0.348,0.246,-0.019
33.85,-0.219,0.284,-0.175
33.86,-0.133,-0.076,-0.157
33.87,-0.134,-0.326,-0.038
33.88,-0.054,-0.358,0.128
33.89,-0.197,-0.225,0.339
33.9,-0.196,0.073,0.266
33.91,-0.212,0.241,0.012
33.92,-0.277,0.15,-0.148
33.93,-0.248,0.097,-0.244
33.94,-0.43,-0.054,-0.104
33.95,-0.427,-0.062,-0.048
33.96,-0.312,0.161,-0.039
33.97,-0.318,0.159,0.026
33.98,-0.111,0.237,-0.056
33.99,-0.01,0.019,0.022
34.0,-0.133,-0.138,0.126
34.01,-0.148,-0.29,0.094
34.02,-0.264,-0.167,0.086
34.03,-0.203,-0.155,0.034
34.04,-0.319,0.154,-0.004
34.05,-0.381,0.23,0.019
34.06,-0.336,0.071,-0.032
34.07,-0.349,0.19,-0.091
34.08,-0.318,-0.044,-0.141
34.09,-0.253,-0.062,-0.094
34.1,-0.178,0.108,-0.03
34.11,-0.07,0.102,0.051
34.12,-0.067,-0.004,0.033
34.13,-0.117,-0.081,0.055
34.14,-0.214,-0.235,0.181
34.15,-0.218,-0.096,0.167
34.16,-0.327,0.003,0.06
34.17,-0.41,0.006,-0.027
34.18,-0.309,0.218,-0.193
34.19,-0.296,0.213,-0.187
34.2,-0.296,0.042,-0.063
34.21,-0.196,0.018,-0.055
34.22,-0.183,-0.044,0.038
34.23,-0.087,-0.091,0.037
34.24,-0.093,0.11,0.096
34.25,-0.162,-0.005,0.163
34.26,-0.199,0.076,0.076
34.27,-0.305,-0.067,0.019
34.28,-0.376,-0.127,-0.038
34.29,-0.348,-0.016,-0.055
34.3,-0.374,0.133,-0.053
34.31,-0.272,0.069,-0.054
34.32,-0.28,0.205,-0.052
34.33,-0.214,0.129,-0.03
34.34,-0.121,-0.037,-0.027
34.35,-0.118,0.003,-0.009
34.36,-0.151,-0.143,0.066
34.37,-0.116,-0.051,0.075
34.38,-0.199,0.087,0.109
34.39,-0.336,-0.013,0.12
34.4,-0.282,-0.017,-0.044
34.41,-0.256,-0.059,-0.145
34.42,-0.34,-0.161,-0.04
34.43,-0.372,0.191,-0.001
34.44,-0.333,0.231,0.03
34.45,-0.247,0.289,-0.09
34.46,-0.046,0.255,-0.203
34.47,-0.01,-0.065,-0.156
34.48,-0.123,-0.448,0.06
34.49,-0.196,-0.238,0.29
34.5,-0.301,-0.15,0.389
34.51,-0.254,0.148,0.159
34.52,-0.258,0.219,-0.156
34.53,-0.333,0.071,-0.215
34.54,-0.354,0.024,-0.175
34.55,-0.424,-0.097,-0.035
34.56,-0.252,-0.081,-0.029
34.57,-0.167,0.153,-0.053
34.58,-0.167,0.266,0.045
34.59,-0.086,0.196,0.04
34.6,-0.152,0.081,0.072
34.61,-0.238,-0.271,0.091
34.62,-0.321,-0.287,0.044
34.63,-0.305,-0.177,0.037
34.64,-0.29,-0.102,0.015
34.65,-0.287,0.212,-0.005
34.66,-0.266,0.302,-0.034
34.67,-0.259,0.036,-0.022
34.68,-0.285,0.054,-0.132
34.69,-0.199,-0.003,-0.123
34.7,-0.184,-0.067,-0.008
34.71,-0.171,0.225,0.025
34.72,-0.209,0.187,0.073
34.73,-0.124,0.032,0.023
34.74,-0.19,-0.076,0.015
34.75,-0.294,-0.345,0.102
34.76,-0.274,-0.219,0.101
34.77,-0.38,-0.054,0.066
34.78,-0.376,0.034,-0.024
34.79,-0.219,0.234,-0.151
34.8,-0.213,0.269,-0.086
34.81,-0.19,-0.016,-0.027
34.82,-0.155,0.007,-0.054
34.83,-0.175,-0.035,-0.021
34.84,-0.137,-0.051,0.026
34.85,-0.22,0.154,0.1
34.86,-0.291,0.062,0.103
34.87,-0.287,-0.05,0.014
34.88,-0.314,-0.087,-0.086
34.89,-0.324,-0.143,-0.038
34.9,-0.34,-0.021,0.031
34.91,-0.222,0.175,-0.027
34.92,-0.168,0.156,-0.072
34.93,-0.172,0.235,-0.115
34.94,-0.248,0.194,-0.032
34.95,-0.185,-0.066,0.039
34.96,-0.184,-0.031,0.051
34.97,-0.228,-0.149,0.055
34.98,-0.2,-0.117,0.048
34.99,-0.3,0.023,0.069
35.0,-0.263,-0.04,0.026
35.01,-0.159,0.015,-0.114
35.02,-0.24,0.022,-0.062
35.03,-0.317,-0.005,-0.001
35.04,-0.365,0.274,0.046
35.05,-0.312,0.265,0.008
35.06,-0.151,0.172,-0.12
35.07,-0.108,-0.003,-0.136
35.08,-0.214,-0.314,0.007
35.09,-0.159,-0.372,0.13
35.1,-0.24,-0.105,0.245
35.11,-0.224,-0.041,0.207
35.12,-0.195,0.232,-0.074
35.13,-0.263,0.182,-0.159
35.14,-0.259,0.02,-0.143
35.15,-0.38,-0.049,-0.08
35.16,-0.395,-0.039,0.024
35.17,-0.236,0.114,0.019
35.18,-0.209,0.231,0.05
35.19,-0.163,0.115,0.0
35.2,-0.135,-0.03,-0.005
35.21,-0.197,-0.172,0.037
35.22,-0.161,-0.323,0.049
35.23,-0.237,-0.165,-0.005
35.24,-0.273,0.049,0.026
35.25,-0.26,0.163,0.024
35.26,-0.282,0.371,-0.012
35.27,-0.337,0.134,-0.018
35.28,-0.294,-0.005,-0.082
35.29,-0.253,-0.002,-0.088
35.3,-0.262,-0.131,-0.012
35.31,-0.222,0.068,0.008
35.32,-0.164,0.157,-0.003
35.33,-0.05,-0.124,0.022
35.34,-0.142,-0.061,0.013
35.35,-0.275,-0.217,0.137
35.36,-0.237,-0.192,0.111
35.37,-0.289,0.082,0.017
35.38,-0.371,0.131,-0.005
35.39,-0.281,0.23,-0.118
35.4,-0.25,0.233,-0.155
35.41,-0.239,0.021,-0.056
35.42,-0.273,-0.062,-0.007
35.43,-0.201,-0.07,0.038
35.44,-0.145,-0.107,0.035
35.45,-0.102,0.038,0.044
35.46,-0.156,0.06,0.096
35.47,-0.244,-0.035,0.091
35.48,-0.278,0.019,-0.009
35.49,-0.407,-0.045,-0.033
35.5,-0.32,-0.016,-0.06
35.51,-0.279,0.215,-0.075
35.52,-0.298,0.11,-0.017
35.53,-0.297,0.186,-0.046
35.54,-0.226,0.085,-0.043
35.55,-0.124,-0.04,0.002
35.56,-0.081,-0.171,0.007
35.57,-0.14,-0.086,0.075
35.58,-0.109,-0.13,0.094
35.59,-0.2,0.124,0.084
35.6,-0.329,0.103,0.048
35.61,-0.284,-0.061,-0.113
35.62,-0.334,0.001,-0.086
35.63,-0.407,-0.044,0.039
35.64,-0.406,0.099,0.014
35.65,-0.345,0.241,-0.003
35.66,-0.225,0.244,-0.097
35.67,-0.049,0.041,-0.149
35.68,0.033,-0.107,-0.107
35.69,-0.008,-0.395,0.055
35.7,-0.202,-0.197,0.229
35.71,-0.241,-0.022,0.285
35.72,-0.254,0.181,0.137
35.73,-0.307,0.249,-0.111
35.74,-0.365,0.083,-0.178
35.75,-0.391,-0.191,-0.171
35.76,-0.438,-0.042,-0.068
35.77,-0.356,0.058,-0.012
35.78,-0.208,0.148,0.008
35.79,-0.042,0.213,-0.033
35.8,0.001,0.21,0.019
35.81,-0.083,-0.118,0.104
35.82,-0.158,-0.155,0.084
35.83,-0.285,-0.317,0.132
35.84,-0.293,-0.091,0.04
35.85,-0.362,0.137,-0.0
35.86,-0.365,0.092,-0.065
35.87,-0.381,0.334,-0.134
35.88,-0.392,-0.012,-0.072
35.89,-0.246,-0.064,-0.086
35.9,-0.135,0.013,-0.073
35.91,-0.138,-0.007,0.045
35.92,-0.064,0.121,0.048
35.93,-0.092,0.122,0.085
35.94,-0.121,-0.109,0.104
35.95,-0.221,-0.132,0.055
35.96,-0.366,-0.117,0.062
35.97,-0.29,-0.162,0.002
35.98,-0.388,0.096,-0.103
35.99,-0.413,0.186,-0.052
36.0,-0.203,0.12,-0.103
36.01,-0.17,0.165,-0.062
36.02,-0.169,-0.023,0.008
36.03,-0.142,-0.059,0.009
36.04,-0.135,0.017,0.045
36.05,-0.141,0.023,0.092
36.06,-0.183,0.084,0.088
36.07,-0.279,0.07,0.067
36.08,-0.323,-0.194,0.015
36.09,-0.368,-0.111,-0.062
36.1,-0.35,-0.086,-0.027
36.11,-0.317,-0.006,-0.016
36.12,-0.218,0.23,-0.034
36.13,-0.202,0.211,-0.063
36.14,-0.255,0.188,-0.045
36.15,-0.173,0.12,-0.023
36.16,-0.113,-0.065,0.003
36.17,-0.19,-0.153,0.005
36.18,-0.211,-0.088,0.117
36.19,-0.203,-0.082,0.141
36.2,-0.354,0.089,0.083
36.21,-0.316,0.021,-0.023
36.22,-0.165,-0.115,-0.134
36.23,-0.238,-0.017,-0.103
36.24,-0.3,0.004,0.038
36.25,-0.275,0.164,0.028
36.26,-0.301,0.347,-0.009
36.27,-0.168,0.221,-0.108
36.28,-0.088,0.025,-0.161
36.29,-0.17,-0.167,-0.017
36.3,-0.182,-0.388,0.181
36.31,-0.26,-0.105,0.265
36.32,-0.282,-0.037,0.191
36.33,-0.282,0.063,0.026
36.34,-0.242,0.144,-0.118
36.35,-0.191,0.041,-0.157
36.36,-0.347,-0.1,-0.096
36.37,-0.307,-0.033,-0.089
36.38,-0.237,0.228,-0.053
36.39,-0.252,0.189,0.026
36.4,-0.183,0.281,0.002
36.41,-0.148,0.065,0.03
36.42,-0.137,-0.227,0.041
36.43,-0.288,-0.289,0.071
36.44,-0.357,-0.299,0.13
36.45,-0.194,-0.093,0.024
36.46,-0.281,0.172,0.016
36.47,-0.232,0.186,-0.045
36.48,-0.239,0.312,-0.161
36.49,-0.361,0.051,-0.083
36.5,-0.178,-0.002,-0.116
36.51,-0.227,0.003,-0.034
36.52,-0.301,0.074,0.057
36.53,-0.11,0.122,0.032
36.54,-0.204,0.115,0.018
36.55,-0.184,-0.173,0.047
36.56,-0.191,-0.22,0.065
36.57,-0.28,-0.256,0.109
36.58,-0.201,-0.167,0.055
36.59,-0.344,0.044,0.002
36.6,-0.3,0.304,-0.051
36.61,-0.226,0.187,-0.109
36.62,-0.315,0.213,-0.075
36.63,-0.221,-0.022,-0.086
36.64,-0.176,-0.094,-0.045
36.65,-0.214,0.038,-0.022
36.66,-0.174,-0.044,0.108
36.67,-0.186,0.076,0.107
36.68,-0.104,0.049,0.049
36.69,-0.236,-0.127,0.022
36.7,-0.345,-0.082,-0.022
36.71,-0.349,-0.019,0.008
36.72,-0.315,0.059,0.007
36.73,-0.314,0.237,-0.077
36.74,-0.278,0.187,-0.076
36.75,-0.238,0.094,-0.047
36.76,-0.207,0.113,-0.037
36.77,-0.109,-0.117,-0.007
36.78,-0.123,-0.156,0.019
36.79,-0.12,-0.059,0.07
36.8,-0.192,-0.006,0.131
36.81,-0.33,0.063,0.089
36.82,-0.25,0.102,-0.066
36.83,-0.221,-0.162,-0.089
36.84,-0.408,-0.048,-0.025
36.85,-0.332,0.056,0.042
36.86,-0.279,0.129,0.066
36.87,-0.288,0.356,-0.054
36.88,-0.203,0.244,-0.138
36.89,-0.098,-0.099,-0.161
36.9,-0.088,-0.228,-0.064
36.91,-0.144,-0.352,0.134
36.92,-0.224,-0.257,0.287
36.93,-0.221,0.135,0.169
36.94,-0.233,0.107,0.046
36.95,-0.202,0.23,-0.113
36.96,-0.345,0.064,-0.14
36.97,-0.387,-0.15,-0.054
36.98,-0.362,0.059,-0.088
36.99,-0.356,0.105,-0.047
37.0,-0.222,0.113,-0.007
37.01,-0.115,0.239,0.001
37.02,-0.042,0.005,0.031
37.03,-0.075,-0.225,0.051
37.04,-0.229,-0.192,0.089
37.05,-0.289,-0.181,0.107
37.06,-0.27,0.042,0.067
37.07,-0.323,0.279,-0.025
37.08,-0.287,0.156,-0.066
37.09,-0.337,0.146,-0.084
37.1,-0.33,-0.089,-0.109
37.11,-0.231,-0.12,-0.027
37.12,-0.292,-0.047,0.011
37.13,-0.175,0.101,0.049
37.14,-0.068,0.051,0.019
37.15,-0.03,0.133,0.001
37.16,-0.176,-0.092,0.061
37.17,-0.314,-0.227,0.089
37.18,-0.248,0.02,0.069
37.19,-0.314,-0.113,0.067
37.2,-0.351,0.166,-0.028
37.21,-0.292,0.209,-0.159
37.22,-0.312,-0.047,-0.084
37.23,-0.217,0.101,-0.107
37.24,-0.204,-0.044,0.013
37.25,-0.187,-0.103,0.027
37.26,-0.076,0.027,0.011
37.27,-0.083,0.177,0.074
37.28,-0.126,0.042,0.066
37.29,-0.33,0.056,0.074
37.3,-0.302,-0.091,0.022
37.31,-0.307,-0.095,-0.083
37.32,-0.443,0.02,-0.06
37.33,-0.348,0.011,-0.053
37.34,-0.301,0.217,-0.057
37.35,-0.216,0.165,-0.002
37.36,-0.13,0.022,0.005
37.37,-0.119,0.015,-0.029
37.38,-0.088,-0.083,0.005
37.39,-0.124,-0.229,0.087
37.4,-0.199,0.101,0.11
37.41,-0.298,0.043,0.088
37.42,-0.42,0.052,0.029
37.43,-0.281,0.082,-0.122
37.44,-0.319,-0.228,-0.096
37.45,-0.348,-0.045,-0.022
37.46,-0.288,0.086,0.049
37.47,-0.236,0.24,0.078
37.48,-0.181,0.354,-0.12
37.49,-0.036,0.144,-0.214
37.5,-0.021,-0.206,-0.109
37.51,-0.141,-0.318,0.054
37.52,-0.283,-0.263,0.294
37.53,-0.322,-0.072,0.325
37.54,-0.331,0.22,0.115
37.55,-0.343,0.125,-0.116
37.56,-0.236,0.058,-0.225
37.57,-0.271,0.038,-0.205
37.58,-0.345,-0.147,-0.032
37.59,-0.31,0.077,-0.026
37.6,-0.19,0.21,-0.027
37.61,-0.094,0.153,0.018
37.62,-0.096,0.118,0.037
37.63,-0.187,-0.045,0.142
37.64,-0.207,-0.307,0.094
37.65,-0.324,-0.101,0.084
37.66,-0.353,-0.199,0.033
37.67,-0.3,0.069,-0.041
37.68,-0.268,0.257,-0.116
37.69,-0.265,0.1,-0.077
37.7,-0.317,0.054,-0.047
37.71,-0.273,-0.01,-0.064
37.72,-0.196,-0.075,0.036
37.73,-0.125,0.123,-0.017
37.74,-0.162,0.257,0.01
37.75,-0.119,-0.011,0.008
37.76,-0.113,0.097,-0.008
37.77,-0.25,-0.127,0.056
37.78,-0.383,-0.386,0.135
37.79,-0.279,-0.062,0.028
37.8,-0.323,-0.095,-0.002
37.81,-0.379,0.139,-0.014
37.82,-0.219,0.278,-0.058
37.83,-0.222,0.149,-0.062
37.84,-0.133,0.051,-0.105
37.85,-0.178,0.012,-0.04
37.86,-0.122,-0.122,0.015
37.87,-0.111,0.101,0.05
37.88,-0.23,0.07,0.11
37.89,-0.281,-0.116,0.108
37.9,-0.407,-0.012,0.023
37.91,-0.354,-0.24,-0.012
37.92,-0.266,-0.037,-0.061
37.93,-0.341,0.16,-0.028
37.94,-0.233,0.212,-0.034
37.95,-0.108,0.263,-0.11
37.96,-0.194,0.236,-0.078
37.97,-0.166,-0.006,-0.011
37.98,-0.146,-0.109,-0.015
37.99,-0.177,-0.12,0.037
38.0,-0.293,-0.197,0.143
38.01,-0.298,0.002,0.11
38.02,-0.276,0.094,0.051
38.03,-0.222,-0.046,-0.038
38.04,-0.165,0.048,-0.117
38.05,-0.203,-0.101,-0.055
38.06,-0.351,0.034,0.061
38.07,-0.262,0.252,0.034
38.08,-0.281,0.248,0.001
38.09,-0.245,0.302,-0.141
38.1,-0.174,0.03,-0.178
38.11,-0.205,-0.287,-0.073
38.12,-0.154,-0.37,0.104
38.13,-0.257,-0.263,0.31
38.14,-0.196,-0.069,0.272
38.15,-0.114,0.257,0.049
38.16,-0.267,0.183,-0.08
38.17,-0.221,0.04,-0.168
38.18,-0.314,0.017,-0.133
38.19,-0.405,-0.078,-0.025
38.2,-0.323,0.181,-0.053
38.21,-0.232,0.202,-0.024
38.22,-0.162,0.14,-0.037
38.23,-0.143,0.082,0.052
38.24,-0.141,-0.223,0.121
38.25,-0.191,-0.293,0.083
38.26,-0.196,-0.141,0.037
38.27,-0.2,-0.072,0.033
38.28,-0.258,0.216,0.016
38.29,-0.311,0.289,-0.092
38.3,-0.347,0.049,-0.024
38.31,-0.347,0.069,-0.071
38.32,-0.293,0.021,-0.078
38.33,-0.316,-0.146,-0.004
38.34,-0.197,0.206,-0.033
38.35,-0.11,0.136,-0.002
38.36,-0.026,0.02,0.03
38.37,-0.094,-0.137,0.049
38.38,-0.254,-0.279,0.158
38.39,-0.23,-0.233,0.139
38.4,-0.286,0.008,0.082
38.41,-0.415,0.15,0.012
38.42,-0.317,0.252,-0.127
38.43,-0.358,0.273,-0.143
38.44,-0.273,-0.077,-0.144
38.45,-0.183,0.007,-0.113
38.46,-0.187,-0.078,-0.002
38.47,-0.116,-0.109,0.075
38.48,-0.109,0.092,0.104
38.49,-0.085,0.079,0.145
38.5,-0.18,0.034,0.108
38.51,-0.297,-0.013,0.025
38.52,-0.344,-0.103,-0.047
38.53,-0.405,0.021,-0.085
38.54,-0.407,0.133,-0.058
38.55,-0.279,0.154,-0.096
38.56,-0.283,0.142,-0.056
38.57,-0.245,0.092,-0.044
38.58,-0.15,-0.079,0.013
38.59,-0.091,-0.08,0.013
38.6,-0.07,-0.13,0.083
38.61,-0.131,0.003,0.129
38.62,-0.119,0.072,0.039
38.63,-0.315,0.062,0.037
38.64,-0.338,-0.009,-0.011
38.65,-0.293,-0.026,-0.065
38.66,-0.428,-0.151,0.002
38.67,-0.379,-0.021,-0.014
38.68,-0.372,0.298,-0.027
38.69,-0.277,0.224,-0.02
38.7,-0.085,0.292,-0.157
38.71,-0.03,-0.052,-0.134
38.72,0.052,-0.396,-0.084
38.73,-0.082,-0.338,0.167
38.74,-0.307,-0.121,0.393
38.75,-0.249,0.167,0.246
38.76,-0.341,0.325,0.014
38.77,-0.346,0.102,-0.167
38.78,-0.378,-0.035,-0.256
38.79,-0.491,-0.102,-0.091
38.8,-0.272,-0.161,-0.032
38.81,-0.17,0.173,-0.047
38.82,-0.15,0.213,-0.011
38.83,-0.024,0.156,-0.005
38.84,-0.049,0.227,0.052
38.85,-0.142,-0.177,0.138
38.86,-0.331,-0.309,0.149
38.87,-0.337,-0.149,0.042
38.88,-0.3,-0.083,-0.007
38.89,-0.406,0.136,-0.022
38.9,-0.319,0.19,-0.049
38.91,-0.288,0.071,-0.068
38.92,-0.218,-0.003,-0.076
38.93,-0.201,0.012,-0.061
38.94,-0.18,-0.054,-0.019
38.95,-0.147,0.21,-0.009
38.96,-0.145,0.159,0.005
38.97,-0.15,0.015,-0.016
38.98,-0.241,-0.074,0.055
38.99,-0.345,-0.259,0.159
39.0,-0.281,-0.118,0.092
39.01,-0.271,-0.095,0.013
39.02,-0.357,0.046,-0.022
39.03,-0.214,0.23,-0.124
39.04,-0.202,0.197,-0.086
39.05,-0.267,0.016,-0.034
39.06,-0.155,0.002,-0.114
39.07,-0.187,-0.055,-0.005
39.08,-0.183,-0.056,0.075
39.09,-0.098,0.177,0.068
39.1,-0.292,0.06,0.145
39.11,-0.263,-0.038,0.025
39.12,-0.251,-0.071,-0.066
39.13,-0.424,-0.171,-0.006
39.14,-0.314,-0.011,-0.032
39.15,-0.26,0.172,-0.066
39.16,-0.246,0.142,-0.068
39.17,-0.199,0.195,-0.043
39.18,-0.225,0.186,0.017
39.19,-0.124,-0.136,-0.007
39.2,-0.195,-0.051,0.019
39.21,-0.197,-0.149,0.035
39.22,-0.153,-0.075,0.067
39.23,-0.305,0.132,0.079
39.24,-0.329,0.033,0.034
39.25,-0.2,0.004,-0.114
39.26,-0.241,-0.135,-0.095
39.27,-0.281,-0.07,0.028
39.28,-0.292,0.194,0.067
39.29,-0.308,0.291,0.042
39.3,-0.239,0.321,-0.084
39.31,-0.089,0.156,-0.25
39.32,-0.071,-0.198,-0.135
39.33,-0.138,-0.467,0.103
39.34,-0.297,-0.181,0.242
39.35,-0.367,-0.039,0.343
39.36,-0.219,0.054,0.085
39.37,-0.213,0.299,-0.161
39.38,-0.183,-0.003,-0.176
39.39,-0.317,-0.01,-0.102
39.4,-0.355,-0.099,-0.023
39.41,-0.233,0.05,-0.022
39.42,-0.248,0.106,0.004
39.43,-0.208,0.354,-0.002
39.44,-0.157,0.154,0.046
39.45,-0.191,-0.054,0.003
39.46,-0.271,-0.231,0.014
39.47,-0.381,-0.382,0.077
39.48,-0.187,-0.125,0.027
39.49,-0.164,0.047,0.015
39.5,-0.148,0.281,-0.008
39.51,-0.235,0.271,-0.033
39.52,-0.339,0.073,0.01
39.53,-0.228,-0.018,-0.092
39.54,-0.321,-0.026,-0.058
39.55,-0.344,-0.105,0.008
39.56,-0.175,0.167,-0.047
39.57,-0.208,0.229,0.015
39.58,-0.134,-0.092,-0.01
39.59,-0.125,-0.172,0.047
39.6,-0.185,-0.321,0.138
39.61,-0.15,-0.175,0.087
39.62,-0.321,0.147,0.058
39.63,-0.378,0.183,-0.001
39.64,-0.287,0.316,-0.124
39.65,-0.3,0.236,-0.096
39.66,-0.274,-0.125,-0.081
39.67,-0.186,-0.147,-0.066
39.68,-0.24,-0.164,0.01
39.69,-0.173,-0.087,0.102
39.7,-0.161,0.159,0.139
39.71,-0.166,0.087,0.077
39.72,-0.223,0.014,-0.022
39.73,-0.291,-0.053,-0.058
39.74,-0.369,-0.072,-0.026
39.75,-0.383,0.084,-0.014
39.76,-0.269,0.171,-0.067
39.77,-0.217,0.172,-0.074
39.78,-0.215,0.113,-0.064
39.79,-0.235,0.085,-0.002
39.8,-0.204,-0.112,0.06
39.81,-0.149,-0.132,0.034
39.82,-0.128,-0.056,0.056
39.83,-0.136,-0.14,0.058
39.84,-0.24,0.138,-0.0
39.85,-0.24,0.021,0.01
39.86,-0.219,-0.032,-0.036
39.87,-0.313,0.067,-0.042
39.88,-0.384,-0.042,0.023
39.89,-0.334,0.126,0.004
39.9,-0.347,0.317,-0.034
39.91,-0.253,0.151,-0.047
39.92,-0.1,0.081,-0.14
39.93,-0.102,-0.21,-0.084
39.94,-0.054,-0.451,0.074
39.95,-0.144,-0.237,0.219
39.96,-0.289,0.042,0.291
39.97,-0.206,0.173,0.047
39.98,-0.272,0.309,-0.137
39.99,-0.31,0.103,-0.191
40.0,-0.399,-0.029,-0.094
40.01,-0.408,-0.007,-0.059
40.02,-0.327,-0.078,0.008
40.03,-0.264,0.098,-0.005
40.04,-0.101,0.184,-0.029
40.05,-0.096,0.012,0.055
40.06,-0.122,-0.029,0.092
40.07,-0.168,-0.163,0.078
40.08,-0.223,-0.246,0.057
40.09,-0.191,-0.0,-0.064
40.1,-0.291,0.051,0.029
40.11,-0.331,0.217,0.02
40.12,-0.391,0.24,-0.028
40.13,-0.454,0.044,-0.09
40.14,-0.291,-0.071,-0.164
40.15,-0.253,-0.02,-0.021
40.16,-0.157,-0.06,0.065
40.17,-0.117,0.127,0.047
40.18,-0.024,0.048,-0.015
40.19,0.028,-0.095,0.012
40.2,-0.19,-0.104,0.103
40.21,-0.334,-0.075,0.185
40.22,-0.322,-0.068,0.024
40.23,-0.41,0.149,-0.097
40.24,-0.475,0.129,-0.143
40.25,-0.332,0.079,-0.12
40.26,-0.219,0.141,-0.061
40.27,-0.163,-0.108,-0.006
40.28,-0.15,-0.066,0.031
40.29,-0.064,-0.032,0.033
40.3,-0.057,0.035,0.116
40.31,-0.113,0.159,0.131
40.32,-0.253,0.073,0.056
40.33,-0.35,-0.052,-0.046
40.34,-0.36,-0.14,-0.096
40.35,-0.464,-0.026,-0.046
40.36,-0.406,0.002,-0.018
40.37,-0.276,0.122,-0.066
40.38,-0.176,0.2,-0.076
40.39,-0.157,0.182,-0.029
40.4,-0.199,0.136,0.048
40.41,-0.053,-0.068,0.049
40.42,-0.066,-0.12,0.037
40.43,-0.178,-0.133,0.068
40.44,-0.185,-0.119,0.088
40.45,-0.354,0.061,0.08
40.46,-0.389,0.085,-0.036
40.47,-0.297,-0.158,-0.101
40.48,-0.356,0.027,-0.085
40.49,-0.36,0.065,0.012
40.5,-0.282,0.189,0.027
40.51,-0.241,0.395,-0.072
40.52,-0.123,0.149,-0.141
40.53,0.025,-0.118,-0.15
40.54,-0.047,-0.291,0.019
40.55,-0.159,-0.366,0.265
40.56,-0.303,-0.065,0.343
40.57,-0.28,0.168,0.128
40.58,-0.322,0.046,-0.086
40.59,-0.264,0.221,-0.253
40.6,-0.301,0.011,-0.199
40.61,-0.402,-0.174,-0.072
40.62,-0.295,0.081,-0.007
40.63,-0.267,0.127,0.035
40.64,-0.125,0.188,0.042
40.65,-0.08,0.258,0.026
40.66,-0.112,-0.013,0.081
40.67,-0.186,-0.165,0.078
40.68,-0.321,-0.282,0.088
40.69,-0.328,-0.239,0.018
40.7,-0.309,-0.003,-0.048
40.71,-0.282,0.146,-0.029
40.72,-0.157,0.185,-0.093
40.73,-0.327,0.196,-0.035
40.74,-0.343,0.041,-0.003
40.75,-0.189,-0.02,-0.07
40.76,-0.19,0.088,-0.038
40.77,-0.218,0.06,0.044
40.78,-0.182,0.132,0.014
40.79,-0.146,-0.009,0.032
40.8,-0.236,-0.264,0.076
40.81,-0.269,-0.244,0.091
40.82,-0.258,-0.152,0.072
40.83,-0.279,-0.119,0.014
40.84,-0.282,0.239,-0.076
40.85,-0.237,0.306,-0.086
40.86,-0.257,0.161,-0.079
40.87,-0.169,0.13,-0.092
40.88,-0.219,-0.045,0.006
40.89,-0.231,-0.106,0.015
40.9,-0.2,0.036,0.044
40.91,-0.187,-0.069,0.085
40.92,-0.202,0.118,0.071
40.93,-0.323,-0.1,0.052
40.94,-0.236,-0.182,0.0
40.95,-0.251,-0.062,-0.047
40.96,-0.33,-0.006,-0.003
40.97,-0.263,0.204,-0.022
40.98,-0.204,0.179,-0.06
40.99,-0.294,0.33,-0.076
41.0,-0.206,0.066,-0.065
41.01,-0.25,-0.002,-0.003
41.02,-0.234,-0.157,-0.002
41.03,-0.192,-0.144,0.051
41.04,-0.179,-0.105,0.132
41.05,-0.203,-0.018,0.123
41.06,-0.222,0.054,0.026
41.07,-0.174,-0.0,-0.078
41.08,-0.2,-0.082,-0.067
41.09,-0.304,0.086,-0.024
41.1,-0.362,0.186,0.026
41.11,-0.333,0.223,-0.016
41.12,-0.246,0.338,-0.127
41.13,-0.192,0.057,-0.151
41.14,-0.219,-0.258,-0.05
41.15,-0.157,-0.321,0.087
41.16,-0.152,-0.253,0.271
41.17,-0.217,-0.122,0.263
41.18,-0.17,0.232,0.063
41.19,-0.249,0.09,-0.101
41.2,-0.229,0.204,-0.19
41.21,-0.315,0.0,-0.122
41.22,-0.427,-0.118,-0.025
41.23,-0.334,0.133,-0.012
41.24,-0.323,0.14,0.029
41.25,-0.247,0.152,-0.038
41.26,-0.162,0.133,-0.025
41.27,-0.136,-0.131,0.104
41.28,-0.142,-0.255,0.076
41.29,-0.267,-0.168,0.067
41.3,-0.143,-0.193,0.001
41.31,-0.159,0.125,-0.009
41.32,-0.31,0.31,0.04
41.33,-0.323,0.088,0.003
41.34,-0.37,0.19,-0.06
41.35,-0.344,-0.029,-0.099
41.36,-0.315,-0.136,-0.128
41.37,-0.251,0.087,-0.015
41.38,-0.156,0.103,0.045
41.39,-0.085,0.116,0.033
41.4,-0.073,-0.069,0.019
41.41,-0.098,-0.231,0.087
41.42,-0.231,0.0,0.168
41.43,-0.292,-0.077,0.079
41.44,-0.398,0.114,-0.039
41.45,-0.351,0.234,-0.13
41.46,-0.285,0.175,-0.09
41.47,-0.357,-0.032,-0.063
41.48,-0.268,-0.063,-0.04
41.49,-0.179,-0.115,-0.014
41.5,-0.103,-0.004,0.033
41.51,-0.131,0.024,0.106
41.52,-0.11,0.021,0.104
41.53,-0.115,0.135,0.028
41.54,-0.271,-0.091,0.002
41.55,-0.388,-0.055,-0.033
41.56,-0.366,0.024,-0.06
41.57,-0.359,0.106,-0.023
41.58,-0.345,0.129,-0.066
41.59,-0.311,0.153,-0.06
41.6,-0.256,0.068,-0.013
41.61,-0.185,0.026,-0.001
41.62,-0.072,-0.068,-0.004
41.63,-0.013,-0.136,0.024
41.64,-0.087,-0.0,0.042
41.65,-0.175,0.052,0.088
41.66,-0.302,0.043,0.104
41.67,-0.29,0.066,-0.056
41.68,-0.282,-0.004,-0.107
41.69,-0.402,-0.198,-0.076
41.7,-0.423,0.11,0.014
41.71,-0.347,0.06,0.057
41.72,-0.233,0.296,0.016
41.73,-0.136,0.264,-0.096
41.74,-0.04,-0.101,-0.124
41.75,-0.018,-0.239,-0.062
41.76,-0.051,-0.256,0.049
41.77,-0.277,-0.208,0.302
41.78,-0.303,0.125,0.232
41.79,-0.328,0.246,0.016
41.8,-0.297,0.106,-0.176
41.81,-0.309,0.035,-0.231
41.82,-0.475,-0.133,-0.072
41.83,-0.296,-0.09,-0.037
41.84,-0.183,0.171,-0.005
41.85,-0.213,0.201,0.047
41.86,-0.065,0.22,-0.051
41.87,-0.051,0.165,0.033
41.88,-0.082,-0.227,0.108
41.89,-0.237,-0.221,0.043
41.9,-0.408,-0.209,0.068
41.91,-0.254,-0.121,0.016
41.92,-0.403,0.254,-0.01
41.93,-0.366,0.214,-0.056
41.94,-0.277,0.058,-0.09
41.95,-0.256,0.054,-0.113
41.96,-0.192,-0.068,-0.024
41.97,-0.17,-0.11,0.05
41.98,-0.159,0.208,0.045
41.99,-0.078,0.066,0.082
42.0,-0.155,0.123,0.058
42.01,-0.248,-0.061,0.002
42.02,-0.318,-0.339,0.068
42.03,-0.315,-0.154,0.004
42.04,-0.32,-0.043,-0.032
42.05,-0.409,0.025,0.0
42.06,-0.187,0.325,-0.101
42.07,-0.166,0.232,-0.09
42.08,-0.186,-0.002,-0.023
42.09,-0.135,-0.04,-0.003
42.1,-0.171,-0.106,0.035
42.11,-0.181,0.011,0.027
42.12,-0.167,0.122,0.092
42.13,-0.227,0.099,0.096
42.14,-0.305,0.037,-0.026
42.15,-0.406,-0.156,-0.012
42.16,-0.297,-0.24,-0.061
42.17,-0.313,0.008,-0.05
42.18,-0.305,0.1,-0.01
42.19,-0.21,0.223,-0.019
42.2,-0.199,0.286,-0.04
42.21,-0.182,0.211,-0.008
42.22,-0.1,-0.067,0.02
42.23,-0.153,-0.119,0.007
42.24,-0.188,-0.26,0.053
42.25,-0.226,-0.115,0.05
42.26,-0.301,0.052,0.082
42.27,-0.415,0.03,0.064
42.28,-0.267,0.121,-0.071
42.29,-0.191,-0.044,-0.122
42.3,-0.29,-0.129,-0.046
42.31,-0.272,0.118,0.001
42.32,-0.208,0.165,0.061
42.33,-0.265,0.273,0.03
42.34,-0.132,0.306,-0.114
42.35,-0.129,-0.163,-0.121
42.36,-0.161,-0.308,-0.013
42.37,-0.219,-0.229,0.137
42.38,-0.36,-0.194,0.317
42.39,-0.198,0.12,0.119
42.4,-0.243,0.164,-0.063
42.41,-0.208,0.102,-0.178
42.42,-0.207,0.078,-0.194
42.43,-0.376,-0.039,-0.013
42.44,-0.295,0.0,-0.03
42.45,-0.332,0.215,0.007
42.46,-0.218,0.126,0.036
42.47,-0.08,0.22,0.007
42.48,-0.23,-0.093,0.073
42.49,-0.23,-0.264,0.091
42.5,-0.277,-0.322,0.077
42.51,-0.258,-0.195,0.037
42.52,-0.219,-0.009,0.016
42.53,-0.262,0.201,-0.038
42.54,-0.251,0.434,-0.083
42.55,-0.302,0.067,-0.069
42.56,-0.288,0.114,-0.094
42.57,-0.219,-0.07,-0.1
42.58,-0.245,-0.183,0.038
42.59,-0.231,0.215,0.059
42.6,-0.201,0.078,0.077
42.61,-0.152,-0.002,0.007
42.62,-0.094,-0.055,-0.01
42.63,-0.242,-0.365,0.079
42.64,-0.24,-0.094,0.06
42.65,-0.251,-0.038,0.012
42.66,-0.364,0.132,0.013
42.67,-0.254,0.368,-0.122
42.68,-0.273,0.236,-0.082
42.69,-0.224,0.011,-0.077
42.7,-0.247,0.011,-0.065
42.71,-0.255,-0.193,0.053
42.72,-0.157,-0.105,0.055
42.73,-0.147,0.071,0.133
42.74,-0.13,-0.028,0.112
42.75,-0.191,0.092,0.01
42.76,-0.285,-0.028,-0.04
42.77,-0.352,-0.056,-0.032
42.78,-0.355,0.09,-0.019
42.79,-0.352,0.139,-0.056
42.8,-0.271,0.07,-0.073
42.81,-0.25,0.235,-0.075
42.82,-0.252,0.032,0.014
42.83,-0.16,-0.114,-0.008
42.84,-0.09,-0.113,-0.005
42.85,-0.114,-0.166,0.059
42.86,-0.128,0.017,0.111
42.87,-0.275,0.169,0.117
42.88,-0.285,0.099,0.017
42.89,-0.224,0.016,-0.143
42.9,-0.268,-0.1,-0.114
42.91,-0.372,-0.147,0.02
42.92,-0.361,0.128,0.055
42.93,-0.329,0.22,0.021
42.94,-0.23,0.243,-0.099
42.95,-0.068,0.257,-0.178
42.96,-0.07,-0.132,-0.081
42.97,-0.081,-0.376,0.026
42.98,-0.203,-0.235,0.198
42.99,-0.27,-0.214,0.342
43.0,-0.271,0.176,0.169
43.01,-0.33,0.187,-0.059
43.02,-0.246,0.095,-0.165
43.03,-0.337,0.004,-0.187
43.04,-0.432,0.013,-0.088
43.05,-0.341,-0.033,-0.025
43.06,-0.241,0.171,-0.026
43.07,-0.132,0.172,-0.036
43.08,-0.064,0.044,-0.021
43.09,-0.093,0.039,0.094
43.1,-0.22,-0.262,0.141
43.11,-0.275,-0.189,0.123
43.12,-0.223,-0.01,0.033
43.13,-0.307,0.019,0.011
43.14,-0.299,0.26,-0.031
43.15,-0.309,0.208,-0.134
43.16,-0.358,-0.011,-0.09
43.17,-0.274,-0.031,-0.137
43.18,-0.261,-0.09,-0.024
43.19,-0.187,-0.073,0.035
43.2,-0.135,0.216,0.069
43.21,-0.115,0.122,0.081
43.22,-0.017,-0.002,0.005
43.23,-0.179,-0.091,0.052
43.24,-0.26,-0.238,0.15
43.25,-0.313,-0.083,0.062
43.26,-0.428,-0.016,-0.019
43.27,-0.384,0.087,-0.061
43.28,-0.35,0.223,-0.124
43.29,-0.29,0.126,-0.056
43.3,-0.164,-0.1,-0.066
43.31,-0.091,-0.004,-0.058
43.32,-0.117,-0.006,0.003
43.33,-0.109,-0.027,0.071
43.34,-0.035,0.219,0.071
43.35,-0.219,0.129,0.094
43.36,-0.398,-0.065,0.055
43.37,-0.392,-0.108,-0.079
43.38,-0.436,-0.159,-0.029
43.39,-0.412,-0.035,-0.031
43.4,-0.26,0.114,-0.028
43.41,-0.218,0.15,-0.049
43.42,-0.159,0.215,-0.062
43.43,-0.087,0.195,-0.057
43.44,-0.049,-0.067,-0.028
43.45,-0.173,-0.083,0.046
43.46,-0.243,-0.079,0.133
43.47,-0.236,-0.081,0.104
43.48,-0.364,0.088,0.081
43.49,-0.35,-0.046,-0.015
43.5,-0.286,-0.053,-0.097
43.51,-0.287,-0.114,-0.045
43.52,-0.192,-0.081,0.002
43.53,-0.26,0.177,0.016
43.54,-0.288,0.331,0.024
43.55,-0.138,0.295,-0.097
43.56,-0.112,0.126,-0.174
43.57,-0.178,-0.223,-0.089
43.58,-0.193,-0.427,0.077
43.59,-0.314,-0.213,0.292
43.6,-0.333,-0.015,0.268
43.61,-0.243,0.137,0.056
43.62,-0.217,0.274,-0.134
43.63,-0.217,-0.01,-0.176
43.64,-0.275,-0.03,-0.108
43.65,-0.28,-0.032,-0.091
43.66,-0.307,-0.016,-0.005
43.67,-0.217,0.198,0.005
43.68,-0.117,0.287,-0.014
43.69,-0.19,0.145,0.023
43.7,-0.2,-0.033,0.061
43.71,-0.279,-0.252,0.057
43.72,-0.332,-0.313,0.081
43.73,-0.249,-0.111,0.029
43.74,-0.231,0.044,0.02
43.75,-0.244,0.255,-0.041
43.76,-0.271,0.115,-0.021
43.77,-0.293,0.056,-0.022
43.78,-0.202,-0.023,-0.107
43.79,-0.305,-0.015,-0.015
43.8,-0.21,0.028,0.019
43.81,-0.184,0.276,0.017
43.82,-0.177,0.203,-0.036
43.83,-0.183,-0.203,-0.054
43.84,-0.255,-0.172,0.023
43.85,-0.239,-0.293,0.153
43.86,-0.228,-0.133,0.113
43.87,-0.342,0.075,0.039
43.88,-0.225,0.203,-0.076
43.89,-0.187,0.253,-0.104
43.9,-0.265,0.175,-0.06
43.91,-0.229,-0.073,-0.065
43.92,-0.173,-0.052,-0.077
43.93,-0.126,0.008,-0.033
43.94,-0.269,-0.065,0.112
43.95,-0.271,0.109,0.114
43.96,-0.186,0.052,0.074
43.97,-0.236,-0.075,-0.029
43.98,-0.301,-0.092,-0.064
43.99,-0.358,-0.068,0.025
44.0,-0.315,0.178,0.002
44.01,-0.222,0.19,-0.041
44.02,-0.166,0.142,-0.062
44.03,-0.203,0.145,-0.048
44.04,-0.275,-0.017,0.05
44.05,-0.171,-0.203,0.045
44.06,-0.216,-0.071,0.016
44.07,-0.282,-0.085,0.028
44.08,-0.173,-0.029,0.043
44.09,-0.279,0.216,0.053
44.1,-0.243,0.049,-0.01
44.11,-0.161,-0.042,-0.092
44.12,-0.254,-0.098,-0.048
44.13,-0.292,0.002,0.049
44.14,-0.31,0.217,0.101
44.15,-0.341,0.299,-0.003
44.16,-0.263,0.207,-0.162
44.17,-0.15,-0.05,-0.194
44.18,-0.099,-0.266,-0.087
44.19,-0.143,-0.39,0.094
44.2,-0.208,-0.248,0.304
44.21,-0.153,0.172,0.265
44.22,-0.249,0.178,0.047
44.23,-0.284,0.301,-0.131
44.24,-0.255,0.003,-0.172
44.25,-0.394,-0.048,-0.099
44.26,-0.405,-0.066,-0.034
44.27,-0.36,-0.061,0.014
44.28,-0.245,0.155,0.006
44.29,-0.103,0.209,-0.006
44.3,-0.083,-0.002,0.081
44.31,-0.092,-0.105,0.042
44.32,-0.24,-0.229,0.068
44.33,-0.246,-0.234,0.045
44.34,-0.171,0.114,-0.051
44.35,-0.379,0.171,0.028
44.36,-0.314,0.276,-0.025
44.37,-0.317,0.211,-0.066
44.38,-0.326,-0.08,-0.047
44.39,-0.257,-0.14,-0.084
44.4,-0.316,-0.106,-0.016
44.41,-0.138,-0.039,0.057
44.42,-0.083,0.205,0.015
44.43,-0.085,0.179,-0.028
44.44,-0.111,-0.098,-0.033
44.45,-0.233,-0.164,0.072
44.46,-0.221,-0.155,0.155
44.47,-0.334,-0.035,0.058
44.48,-0.472,0.087,0.008
44.49,-0.306,0.201,-0.083
44.5,-0.272,0.201,-0.134
44.51,-0.315,0.079,-0.061
44.52,-0.15,-0.252,-0.041
44.53,-0.102,-0.064,-0.024
44.54,-0.116,-0.066,0.068
44.55,-0.152,0.018,0.151
44.56,-0.177,0.18,0.123
44.57,-0.238,0.086,0.043
44.58,-0.325,-0.06,-0.038
44.59,-0.425,-0.015,-0.092
44.6,-0.409,-0.035,-0.042
44.61,-0.301,0.112,-0.078
44.62,-0.227,0.16,-0.094
44.63,-0.243,0.098,-0.023
44.64,-0.143,0.114,-0.014
44.65,-0.074,-0.062,0.056
44.66,-0.15,-0.178,0.099
44.67,-0.193,0.021,0.051
44.68,-0.184,-0.054,0.083
44.69,-0.301,0.107,0.061
44.7,-0.302,0.149,-0.053
44.71,-0.263,-0.109,-0.103
44.72,-0.343,-0.097,-0.084
44.73,-0.3,-0.01,-0.041
44.74,-0.238,0.054,0.059
44.75,-0.292,0.251,0.03
44.76,-0.207,0.329,-0.055
44.77,-0.062,0.092,-0.137
44.78,-0.055,-0.197,-0.117
44.79,-0.148,-0.345,0.048
44.8,-0.245,-0.375,0.273
44.81,-0.322,0.07,0.325
44.82,-0.294,0.173,0.127
44.83,-0.316,0.229,-0.181
44.84,-0.28,0.146,-0.271
44.85,-0.334,-0.129,-0.133
44.86,-0.302,-0.072,-0.062
44.87,-0.288,-0.002,-0.028
44.88,-0.177,0.043,0.007
44.89,-0.079,0.278,0.005
44.9,-0.101,0.225,0.061
44.91,-0.158,-0.097,0.122
44.92,-0.226,-0.176,0.098
44.93,-0.405,-0.261,0.106
44.94,-0.319,-0.186,-0.03
44.95,-0.278,0.069,-0.052
44.96,-0.326,0.187,-0.036
44.97,-0.227,0.257,-0.071
44.98,-0.302,0.13,-0.079
44.99,-0.185,-0.087,-0.074
45.0,-0.146,0.031,-0.088
45.01,-0.235,0.046,0.067
45.02,-0.138,0.056,0.115
45.03,-0.155,0.217,0.031
45.04,-0.214,-0.066,-0.008
45.05,-0.222,-0.291,-0.013
45.06,-0.353,-0.211,0.114
45.07,-0.326,-0.169,0.115
45.08,-0.324,0.017,0.049
45.09,-0.298,0.218,-0.087
45.1,-0.186,0.206,-0.135
45.11,-0.173,0.189,-0.095
45.12,-0.206,0.016,-0.035
45.13,-0.167,-0.108,-0.028
45.14,-0.111,-0.08,-0.027
45.15,-0.193,0.105,0.055
45.16,-0.229,0.048,0.146
45.17,-0.266,0.089,0.091
45.18,-0.348,-0.03,-0.008
45.19,-0.337,-0.186,-0.078
45.2,-0.338,-0.053,-0.026
45.21,-0.339,0.056,0.005
45.22,-0.159,0.187,-0.063
45.23,-0.177,0.229,-0.084
45.24,-0.186,0.155,-0.075
45.25,-0.168,0.166,-0.015
45.26,-0.161,-0.088,0.065
45.27,-0.188,-0.153,0.079
45.28,-0.27,-0.118,0.036
45.29,-0.271,-0.126,0.059
45.3,-0.297,0.002,0.063
45.31,-0.262,0.108,0.018
45.32,-0.208,-0.052,-0.06
45.33,-0.26,-0.059,-0.067
45.34,-0.267,0.154,-0.053
45.35,-0.24,0.112,0.024
45.36,-0.314,0.333,0.014
45.37,-0.228,0.283,-0.121
45.38,-0.107,-0.111,-0.159
45.39,-0.118,-0.245,-0.145
45.4,-0.189,-0.348,0.116
45.41,-0.291,-0.279,0.338
45.42,-0.184,0.143,0.267
45.43,-0.162,0.121,0.042
45.44,-0.218,0.206,-0.144
45.45,-0.232,0.143,-0.213
45.46,-0.352,-0.145,-0.083
45.47,-0.339,0.007,-0.063
45.48,-0.348,0.046,0.013
45.49,-0.337,0.118,0.085
45.5,-0.09,0.288,-0.08
45.51,-0.131,0.118,0.004
45.52,-0.144,-0.185,0.05
45.53,-0.167,-0.186,0.07
45.54,-0.269,-0.264,0.112
45.55,-0.202,-0.09,-0.002
45.56,-0.256,0.099,0.024
45.57,-0.264,0.219,0.004
45.58,-0.381,0.166,0.031
45.59,-0.419,0.094,-0.005
45.6,-0.226,-0.064,-0.136
45.61,-0.234,-0.061,-0.141
45.62,-0.264,0.07,-0.019
45.63,-0.141,0.074,0.041
45.64,-0.051,0.156,0.017
45.65,-0.064,-0.084,-0.014
45.66,-0.189,-0.288,0.086
45.67,-0.197,-0.118,0.172
45.68,-0.338,-0.083,0.173
45.69,-0.446,0.076,0.025
45.7,-0.324,0.292,-0.129
45.71,-0.322,0.173,-0.174
45.72,-0.228,0.013,-0.004
45.73,-0.231,0.018,-0.003
45.74,-0.233,0.024,-0.005
45.75,-0.237,0.024,0.001
45.76,-0.225,0.021,-0.007
45.77,-0.231,0.023,0.003
45.78,-0.229,0.013,-0.0
45.79,-0.233,0.018,-0.0
45.8,-0.228,0.014,0.008
45.81,-0.231,0.018,-0.003
45.82,-0.232,0.017,-0.004
45.83,-0.232,0.016,0.0
45.84,-0.231,0.017,-0.003
45.85,-0.237,0.021,0.0
45.86,-0.236,0.016,0.012
45.87,-0.228,0.016,0.002
45.88,-0.231,0.015,0.002
45.89,-0.226,0.018,-0.0
45.9,-0.232,0.017,0.005
45.91,-0.233,0.018,-0.007
45.92,-0.229,0.019,-0.007
45.93,-0.228,0.02,0.0
45.94,-0.231,0.017,0.001
45.95,-0.232,0.02,0.011
45.96,-0.234,0.021,-0.001
45.97,-0.235,0.02,0.002
45.98,-0.233,0.01,0.006
45.99,-0.231,0.016,0.002
46.0,-0.226,0.014,0.003
46.01,-0.233,0.018,-0.004
46.02,-0.229,0.015,-0.005
46.03,-0.235,0.017,-0.0
46.04,-0.228,0.018,-0.004
46.05,-0.233,0.02,0.002
46.06,-0.233,0.016,-0.006
46.07,-0.231,0.022,-0.002
46.08,-0.227,0.016,0.009
46.09,-0.226,0.013,-0.002
46.1,-0.233,0.021,-0.007
46.11,-0.234,0.026,-0.004
46.12,-0.237,0.018,0.002
46.13,-0.225,0.019,0.001
46.14,-0.232,0.017,-0.0
46.15,-0.231,0.02,0.001
46.16,-0.228,0.02,-0.005
46.17,-0.229,0.022,0.001
46.18,-0.233,0.019,0.005
46.19,-0.23,0.022,-0.0
46.2,-0.23,0.011,-0.01
46.21,-0.229,0.012,0.002
46.22,-0.237,0.019,0.002
46.23,-0.235,0.015,-0.002
46.24,-0.233,0.015,-0.006
46.25,-0.229,0.02,-0.002
46.26,-0.232,0.024,0.001
46.27,-0.235,0.018,0.006
46.28,-0.229,0.018,-0.002
46.29,-0.222,0.017,0.006
46.3,-0.231,0.022,0.005
46.31,-0.228,0.018,0.011
46.32,-0.229,0.016,0.014
46.33,-0.224,0.019,-0.003
46.34,-0.226,0.021,0.002
46.35,-0.234,0.016,-0.0
46.36,-0.23,0.019,0.004
46.37,-0.23,0.019,-0.0
46.38,-0.236,0.02,-0.009
46.39,-0.234,0.018,-0.001
46.4,-0.229,0.018,0.002
46.41,-0.227,0.017,-0.007
46.42,-0.229,0.018,-0.007
46.43,-0.227,0.019,0.003
46.44,-0.229,0.021,-0.009
46.45,-0.23,0.019,0.007
46.46,-0.236,0.015,0.008
46.47,-0.223,0.014,0.005
46.48,-0.231,0.017,0.01
46.49,-0.227,0.024,-0.005
46.5,-0.233,0.016,0.003
46.51,-0.236,0.019,-0.004
46.52,-0.23,0.009,0.001
46.53,-0.229,0.02,0.001
46.54,-0.23,0.021,0.006
46.55,-0.231,0.014,0.007
46.56,-0.233,0.016,0.003
46.57,-0.231,0.011,0.006
46.58,-0.232,0.019,0.007
46.59,-0.228,0.022,-0.001
46.6,-0.229,0.015,-0.005
46.61,-0.23,0.015,-0.001
46.62,-0.228,0.021,-0.005
46.63,-0.233,0.02,0.009
46.64,-0.233,0.016,0.003
46.65,-0.229,0.014,0.006
46.66,-0.229,0.014,0.007
46.67,-0.225,0.023,0.002
46.68,-0.23,0.023,0.004
46.69,-0.232,0.021,-0.01
46.7,-0.23,0.018,0.003
46.71,-0.234,0.015,-0.006
46.72,-0.227,0.02,-0.003
46.73,-0.23,0.017,-0.002
46.74,-0.229,0.017,-0.001
46.75,-0.23,0.024,-0.005
46.76,-0.231,0.018,-0.006
46.77,-0.232,0.017,-0.007
46.78,-0.232,0.02,-0.0
46.79,-0.23,0.018,0.002
46.8,-0.227,0.019,-0.001
46.81,-0.233,0.02,-0.0
46.82,-0.229,0.018,0.005
46.83,-0.235,0.017,0.006
46.84,-0.233,0.01,-0.008
46.85,-0.229,0.025,-0.001
46.86,-0.233,0.015,0.0
46.87,-0.23,0.014,-0.002
46.88,-0.233,0.02,0.001
46.89,-0.238,0.017,0.005
46.9,-0.235,0.018,-0.002
46.91,-0.234,0.014,-0.001
46.92,-0.231,0.016,0.006
46.93,-0.229,0.018,0.008
46.94,-0.23,0.023,0.007
46.95,-0.232,0.017,0.005
46.96,-0.227,0.019,0.003
46.97,-0.23,0.019,0.005
46.98,-0.228,0.02,0.001
46.99,-0.234,0.022,-0.0
47.0,-0.231,0.024,0.0
47.01,-0.23,0.019,0.002
47.02,-0.229,0.019,-0.0
47.03,-0.233,0.022,-0.001
47.04,-0.227,0.016,-0.003
47.05,-0.226,0.021,0.007
47.06,-0.231,0.021,0.006
47.07,-0.23,0.019,-0.005
47.08,-0.23,0.019,0.003
47.09,-0.227,0.018,0.005
47.1,-0.224,0.015,-0.001
47.11,-0.231,0.022,-0.003
47.12,-0.231,0.018,-0.002
47.13,-0.233,0.017,0.006
47.14,-0.235,0.018,-0.009
47.15,-0.229,0.02,0.002
47.16,-0.231,0.018,-0.004
47.17,-0.231,0.019,0.004
47.18,-0.227,0.016,-0.0
47.19,-0.231,0.019,-0.002
47.2,-0.23,0.013,0.003
47.21,-0.234,0.02,0.002
47.22,-0.228,0.014,0.004
47.23,-0.231,0.023,-0.005
47.24,-0.235,0.019,-0.002
47.25,-0.231,0.02,0.005
47.26,-0.231,0.018,-0.0
47.27,-0.23,0.018,-0.004
47.28,-0.229,0.013,-0.001
47.29,-0.231,0.017,-0.003
47.3,-0.232,0.025,-0.002
47.31,-0.235,0.017,-0.002
47.32,-0.229,0.016,-0.017
47.33,-0.233,0.018,-0.002
47.34,-0.222,0.021,0.003
47.35,-0.226,0.024,0.002
47.36,-0.228,0.015,-0.007
47.37,-0.232,0.013,0.006
47.38,-0.232,0.021,0.002
47.39,-0.234,0.017,-0.004
47.4,-0.231,0.016,-0.0
47.41,-0.235,0.022,0.004
