t,ax,ay,az
0.0,-0.277,0.183,0.013
0.01,-0.235,0.124,-0.024
0.02,-0.217,0.146,-0.077
0.03,-0.189,0.042,-0.042
0.04,-0.183,-0.119,0.029
0.05,-0.109,0.068,0.038
0.06,-0.189,0.042,0.134
0.07,-0.196,0.054,0.111
0.08,-0.243,0.067,0.114
0.09,-0.351,-0.113,0.08
0.1,-0.32,-0.113,-0.025
0.11,-0.368,-0.039,0.025
0.12,-0.306,-0.006,0.01
0.13,-0.214,0.253,-0.036
0.14,-0.264,0.176,0.011
0.15,-0.195,0.107,0.004
0.16,-0.0,-0.0,-0.831
0.17,-0.259,0.159,0.136
0.18,-0.229,0.145,-0.022
0.19,-0.237,0.143,-0.147
0.2,-0.263,0.099,-0.095
0.21,-0.382,-0.147,0.034
0.22,-0.284,0.079,-0.014
0.23,-0.213,0.121,0.046
0.24,-0.119,0.183,0.066
0.25,-0.125,0.25,0.083
0.26,-0.275,-0.057,0.137
0.27,-0.256,-0.292,0.096
0.28,-0.329,-0.224,0.063
0.29,-0.301,-0.223,0.094
0.3,-0.219,-0.031,-0.843
0.31,-0.253,0.278,0.039
0.32,-0.16,0.209,-0.034
0.33,-0.275,0.155,-0.0
0.34,-0.3,0.027,0.044
0.35,-0.187,-0.1,0.001
0.36,-0.27,0.095,0.041
0.37,-0.215,0.15,-0.014
0.38,-0.227,0.042,0.032
0.39,-0.184,0.082,0.06
0.4,-0.156,-0.269,0.093
0.41,-0.224,-0.328,0.155
0.42,-0.225,-0.124,0.155
0.43,-0.235,0.004,0.125
0.44,-0.311,0.216,0.037
0.45,-0.255,0.323,-0.101
0.46,-0.245,0.138,-0.088
0.47,-0.269,0.117,-0.09
0.48,-0.262,-0.083,-0.008
0.49,-0.251,-0.161,0.066
0.5,-0.162,-0.026,0.095
0.51,-0.171,-0.019,0.183
0.52,-0.129,-0.031,-0.843
0.53,-0.195,0.043,0.093
0.54,-0.3,-0.093,0.058
0.55,-0.307,-0.002,-0.021
0.56,-0.396,0.138,0.028
0.57,-0.324,0.146,0.007
0.58,-0.211,0.215,-0.106
0.59,-0.271,0.11,-0.026
0.6,-0.265,-0.038,0.048
0.61,-0.177,-0.023,0.095
0.62,-0.12,-0.1,0.098
0.63,-0.0,-0.0,-0.822
0.64,-0.332,0.062,-0.118
0.65,-0.376,-0.014,-0.061
0.66,-0.414,-0.129,-0.001
0.67,-0.284,0.074,0.007
0.68,-0.245,0.117,0.05
0.69,-0.051,0.179,0.061
0.7,-0.037,0.155,0.099
0.71,-0.175,-0.129,0.175
0.72,-0.159,-0.226,0.121
0.73,-0.257,-0.121,0.087
0.74,-0.266,-0.107,0.065
0.75,-0.307,0.135,0.033
0.76,-0.341,0.192,0.041
0.77,-0.381,0.099,-0.031
0.78,-0.366,0.041,-0.024
0.79,-0.273,-0.108,-0.031
0.8,-0.19,-0.0,-0.834
0.81,-0.093,0.121,0.071
0.82,-0.045,0.071,0.094
0.83,-0.126,0.054,0.072
0.84,-0.105,-0.163,0.093
0.85,-0.256,-0.19,0.245
0.86,-0.329,-0.063,0.162
0.87,-0.34,0.005,0.047
0.88,-0.425,0.059,-0.072
0.89,-0.325,0.276,-0.123
0.9,-0.336,0.173,-0.006
0.91,-0.195,-0.065,0.011
0.92,-0.077,-0.028,-0.023
0.93,-0.097,-0.131,0.091
0.94,-0.071,0.058,0.128
0.95,-0.166,0.134,0.221
0.96,-0.239,0.04,0.187
0.97,-0.262,0.061,0.033
0.98,-0.427,-0.121,-0.031
0.99,-0.422,-0.121,-0.081
1.0,-0.362,0.093,0.009
1.01,-0.309,0.098,0.04
1.02,-0.199,0.194,-0.055
1.03,-0.218,0.131,-0.02
1.04,-0.134,0.082,0.025
1.05,-0.067,0.03,0.08
1.06,-0.142,-0.088,0.119
1.07,-0.131,-0.112,0.126
1.08,-0.223,-0.001,0.115
1.09,-0.292,-0.008,0.153
1.1,-0.38,0.01,0.068
1.11,-0.31,-0.068,-0.035
1.12,-0.318,-0.11,-0.059
1.13,-0.363,-0.017,0.022
1.14,-0.287,0.229,0.06
1.15,-0.271,0.302,0.042
1.16,-0.159,0.286,-0.085
1.17,-0.02,0.092,-0.187
1.18,-0.039,-0.279,-0.029
1.19,-0.093,-0.328,0.141
1.2,-0.297,-0.172,0.395
1.21,-0.355,-0.054,0.359
1.22,-0.242,0.163,0.042
1.23,-0.359,0.141,-0.106
1.24,-0.277,-0.025,-0.164
1.25,-0.271,-0.009,-0.124
1.26,-0.384,-0.076,0.028
1.27,-0.252,0.076,-0.024
1.28,-0.135,0.257,0.025
1.29,-0.127,0.234,0.091
1.3,-0.082,0.25,-0.847
1.31,-0.175,-0.101,0.118
1.32,-0.24,-0.34,0.096
1.33,-0.366,-0.221,0.087
1.34,-0.319,-0.2,0.102
1.35,-0.265,-0.005,0.039
1.36,-0.261,0.3,-0.007
1.37,-0.193,0.175,-0.025
1.38,-0.321,0.09,0.003
1.39,-0.336,0.083,-0.021
1.4,-0.184,-0.09,-0.002
1.41,-0.203,0.092,0.033
1.42,-0.255,0.142,0.057
1.43,-0.125,0.008,0.077
1.44,-0.125,-0.036,0.023
1.45,-0.217,-0.229,0.085
1.46,-0.223,-0.281,-0.845
1.47,-0.184,-0.035,0.112
1.48,-0.336,0.083,0.102
1.49,-0.329,0.209,-0.012
1.5,-0.231,0.334,-0.078
1.51,-0.302,0.084,-0.003
1.52,-0.0,-0.0,-0.823
1.53,-0.129,0.093,0.115
1.54,-0.267,-0.013,0.134
1.55,-0.26,0.086,0.067
1.56,-0.257,-0.019,-0.033
1.57,-0.314,-0.08,0.008
1.58,-0.358,0.137,0.053
1.59,-0.365,0.271,0.066
1.6,-0.309,0.239,0.04
1.61,-0.104,0.211,-0.171
1.62,-0.106,-0.059,-0.12
1.63,-0.149,-0.497,0.084
1.64,-0.08,-0.253,0.237
1.65,-0.266,-0.121,0.356
1.66,-0.239,0.069,0.241
1.67,-0.224,0.313,0.009
1.68,-0.265,0.136,-0.086
1.69,-0.285,-0.016,-0.109
1.7,-0.392,-0.115,-0.048
1.71,-0.327,-0.046,0.027
1.72,-0.227,0.094,0.012
1.73,-0.292,0.251,0.042
1.74,-0.151,0.086,0.009
1.75,-0.127,0.012,0.06
1.76,-0.153,-0.179,0.135
1.77,-0.223,-0.285,0.121
1.78,-0.241,-0.093,0.086
1.79,-0.0,-0.0,-0.828
1.8,-0.264,-0.131,0.035
1.81,-0.188,-0.026,0.019
1.82,-0.109,-0.091,0.055
1.83,-0.067,-0.012,0.146
1.84,-0.111,0.18,0.161
1.85,-0.208,0.049,0.181
1.86,-0.227,-0.03,0.045
1.87,-0.387,-0.016,-0.033
1.88,-0.426,-0.086,-0.003
1.89,-0.389,0.042,0.015
1.9,-0.345,0.164,-0.018
1.91,-0.25,0.098,-0.01
1.92,-0.194,0.152,-0.022
1.93,-0.164,0.064,0.029
1.94,-0.052,-0.093,0.054
1.95,-0.035,-0.061,0.069
1.96,-0.154,-0.075,0.123
1.97,-0.188,-0.025,0.138
1.98,-0.337,0.123,0.142
1.99,-0.363,0.023,0.048
2.0,-0.264,-0.019,-0.067
2.01,-0.361,-0.082,-0.092
2.02,-0.385,-0.069,0.031
2.03,-0.29,0.128,0.057
2.04,-0.199,0.302,0.054
2.05,-0.132,0.155,-0.024
2.06,-0.033,0.149,-0.109
2.07,-0.061,-0.244,-0.013
2.08,-0.124,-0.427,0.112
2.09,-0.26,-0.132,0.276
2.1,-0.369,-0.039,0.335
2.11,-0.337,0.2,0.106
2.12,-0.316,0.295,-0.132
2.13,-0.304,0.029,-0.181
2.14,-0.33,-0.074,-0.128
2.15,-0.351,-0.054,-0.003
2.16,-0.159,-0.069,0.038
2.17,-0.118,0.185,0.022
2.18,-0.078,0.275,0.042
2.19,-0.078,0.135,0.078
2.2,-0.187,-0.0,0.106
2.21,-0.231,-0.254,0.097
2.22,-0.358,-0.277,0.053
2.23,-0.376,-0.092,0.056
2.24,-0.372,0.006,0.058
2.25,-0.326,0.265,0.009
2.26,-0.297,0.238,-0.02
2.27,-0.24,-0.098,-0.018
2.28,-0.128,0.035,-0.111
2.29,-0.146,-0.081,-0.006
2.3,-0.179,0.012,0.113
2.31,-0.144,0.195,0.062
2.32,-0.148,0.172,0.065
2.33,-0.161,-0.055,0.058
2.34,-0.297,-0.146,0.068
2.35,-0.433,-0.25,-0.857
2.36,-0.333,-0.217,0.056
2.37,-0.346,0.1,0.053
2.38,-0.29,0.147,0.034
2.39,-0.184,0.248,-0.065
2.4,-0.097,0.187,-0.075
2.41,-0.076,-0.112,0.007
2.42,-0.149,-0.031,-0.848
2.43,-0.176,-0.062,0.058
2.44,-0.192,0.029,0.118
2.45,-0.237,0.136,0.115
2.46,-0.387,0.046,0.075
2.47,-0.372,-0.088,0.058
2.48,-0.321,-0.109,-0.032
2.49,-0.378,-0.094,0.031
2.5,-0.232,0.052,0.008
2.51,-0.168,0.197,-0.022
2.52,-0.138,0.271,-0.009
2.53,-0.107,0.231,-0.019
2.54,-0.226,0.072,0.053
2.55,-0.143,-0.181,0.032
2.56,-0.211,-0.158,0.089
2.57,-0.0,-0.0,-0.83
2.58,-0.253,0.031,-0.127
2.59,-0.296,-0.078,-0.074
2.6,-0.267,0.053,-0.001
2.61,-0.281,0.052,0.091
2.62,-0.24,0.173,0.094
2.63,-0.083,0.282,0.032
2.64,-0.163,-0.102,0.124
2.65,-0.216,-0.12,0.094
2.66,-0.241,-0.382,0.089
2.67,-0.306,-0.185,0.118
2.68,-0.236,0.038,0.035
2.69,-0.317,0.158,0.074
2.7,-0.247,0.357,-0.016
2.71,-0.283,0.142,-0.052
2.72,-0.347,0.0,0.011
2.73,-0.155,-0.08,-0.09
2.74,-0.235,-0.028,0.039
2.75,-0.257,-0.005,0.113
2.76,-0.117,0.177,0.057
2.77,-0.132,0.034,0.083
2.78,-0.106,-0.192,0.013
2.79,-0.233,-0.177,0.115
2.8,-0.308,-0.178,0.198
2.81,-0.25,0.026,0.047
2.82,-0.437,0.188,0.048
2.83,-0.251,0.183,-0.074
2.84,-0.187,0.334,-0.116
2.85,-0.306,-0.061,-0.01
2.86,-0.225,-0.058,-0.025
2.87,-0.18,-0.148,0.012
2.88,-0.189,-0.078,0.112
2.89,-0.126,0.01,0.161
2.9,-0.186,0.124,0.161
2.91,-0.229,0.018,0.105
2.92,-0.32,-0.083,0.02
2.93,-0.299,-0.023,-0.053
2.94,-0.333,0.056,0.01
2.95,-0.372,0.176,0.011
2.96,-0.242,0.171,-0.052
2.97,-0.26,0.166,-0.068
2.98,-0.251,0.017,0.003
2.99,-0.205,-0.073,0.053
3.0,-0.095,-0.252,0.075
3.01,-0.109,-0.126,0.069
3.02,-0.14,0.005,0.157
3.03,-0.148,0.128,0.148
3.04,-0.295,0.244,0.084
3.05,-0.288,-0.007,-0.08
3.06,-0.259,-0.097,-0.134
3.07,-0.422,-0.074,-0.01
3.08,-0.383,-0.021,0.07
3.09,-0.351,0.216,0.086
3.1,-0.337,0.326,0.007
3.11,-0.064,0.096,-0.087
3.12,0.056,-0.037,-0.15
3.13,-0.048,-0.367,0.04
3.14,-0.146,-0.333,0.199
3.15,-0.231,-0.111,0.32
3.16,-0.255,0.187,0.185
3.17,-0.336,0.261,0.008
3.18,-0.367,0.23,-0.123
3.19,-0.397,-0.076,-0.121
3.2,-0.447,-0.2,-0.087
3.21,-0.309,-0.0,-0.068
3.22,-0.272,-0.005,0.073
3.23,-0.134,0.24,0.035
3.24,0.028,0.27,-0.005
3.25,-0.042,-0.034,0.076
3.26,-0.121,-0.165,0.076
3.27,-0.315,-0.291,0.15
3.28,-0.315,-0.202,0.102
3.29,-0.314,0.13,0.036
3.3,-0.389,0.154,0.04
3.31,-0.357,0.27,-0.094
3.32,-0.366,0.169,-0.078
3.33,-0.25,-0.169,-0.053
3.34,-0.102,-0.071,-0.076
3.35,-0.244,-0.07,0.041
3.36,-0.099,0.065,0.091
3.37,-0.004,0.285,0.051
3.38,-0.15,0.13,0.051
3.39,-0.148,-0.192,0.03
3.4,-0.316,-0.105,0.097
3.41,-0.339,-0.238,0.1
3.42,-0.434,-0.077,0.041
3.43,-0.394,0.149,0.004
3.44,-0.234,0.223,-0.072
3.45,-0.274,0.188,-0.041
3.46,-0.154,-0.073,-0.044
3.47,-0.133,-0.148,0.016
3.48,-0.228,0.009,0.022
3.49,-0.211,-0.034,0.016
3.5,-0.184,-0.19,0.049
3.51,-0.218,-0.259,0.074
3.52,-0.165,-0.026,0.067
3.53,-0.207,0.089,0.057
3.54,-0.332,0.129,0.1
3.55,-0.219,0.16,-0.047
3.56,-0.238,-0.071,-0.09
3.57,-0.303,-0.166,-0.036
3.58,-0.252,0.062,0.042
3.59,-0.333,0.139,0.155
3.6,-0.294,0.302,0.014
3.61,-0.196,0.268,-0.148
3.62,-0.118,-0.121,-0.161
3.63,-0.05,-0.244,-0.078
3.64,-0.183,-0.325,0.133
3.65,-0.262,-0.286,0.276
3.66,-0.202,0.164,0.237
3.67,-0.23,0.242,0.075
3.68,-0.257,0.225,-0.121
3.69,-0.288,0.08,-0.149
3.7,-0.359,-0.061,-0.081
3.71,-0.346,-0.091,-0.032
3.72,-0.431,0.046,0.039
3.73,-0.227,0.082,0.027
3.74,-0.081,0.187,0.006
3.75,-0.13,0.029,0.078
3.76,-0.078,-0.293,0.077
3.77,-0.225,-0.121,0.024
3.78,-0.282,-0.161,0.07
3.79,-0.229,0.027,0.035
3.8,-0.303,0.29,-0.017
3.81,-0.315,0.275,-0.018
3.82,-0.378,0.087,0.005
3.83,-0.37,-0.012,-0.064
3.84,-0.276,-0.24,-0.057
3.85,-0.215,-0.16,0.011
3.86,-0.144,0.194,0.039
3.87,-0.118,0.098,0.082
3.88,-0.032,0.192,-0.02
3.89,-0.075,0.038,-0.07
3.9,-0.233,-0.293,0.073
3.91,-0.292,-0.105,0.14
3.92,-0.351,-0.049,0.098
3.93,-0.435,0.075,0.033
3.94,-0.319,0.25,-0.128
3.95,-0.315,0.118,-0.092
3.96,-0.238,0.047,-0.059
3.97,-0.146,-0.081,-0.003
3.98,-0.167,-0.212,0.037
3.99,-0.046,-0.105,0.022
4.0,-0.117,0.182,0.15
4.01,-0.127,0.103,0.139
4.02,-0.302,0.182,0.072
4.03,-0.386,-0.086,-0.022
4.04,-0.368,-0.15,-0.122
4.05,-0.437,-0.002,-0.07
4.06,-0.377,0.064,-0.011
4.07,-0.222,0.183,-0.075
4.08,-0.156,0.206,-0.059
4.09,-0.184,0.094,-0.87
4.1,-0.104,-0.039,0.07
4.11,-0.075,-0.099,0.058
4.12,-0.173,-0.208,0.122
4.13,-0.198,0.006,0.116
4.14,-0.272,0.134,0.05
4.15,-0.347,0.042,0.012
4.16,-0.222,0.095,-0.127
4.17,-0.263,-0.081,-0.1
4.18,-0.418,-0.175,0.025
4.19,-0.289,0.062,0.077
4.2,-0.254,0.24,0.059
4.21,-0.231,0.271,0.02
4.22,-0.108,0.282,-0.112
4.23,-0.035,-0.141,-0.092
4.24,-0.082,-0.359,-0.001
4.25,-0.221,-0.344,0.224
4.26,-0.298,-0.189,0.357
4.27,-0.237,0.219,-0.869
4.28,-0.379,0.224,-0.042
4.29,-0.322,0.081,-0.198
4.3,-0.312,0.031,-0.201
4.31,-0.341,-0.108,-0.012
4.32,-0.309,-0.046,0.006
4.33,-0.225,0.155,0.034
4.34,-0.079,0.163,0.04
4.35,-0.015,0.208,0.03
4.36,-0.141,0.09,0.128
4.37,-0.204,-0.252,0.18
4.38,-0.332,-0.224,0.096
4.39,-0.365,-0.162,-0.011
4.4,-0.348,-0.123,0.019
4.41,-0.298,0.289,-0.053
4.42,-0.28,0.248,-0.041
4.43,-0.323,0.078,-0.039
4.44,-0.167,0.043,-0.087
4.45,-0.167,-0.009,-0.007
4.46,-0.146,-0.045,0.085
4.47,-0.153,0.198,0.072
4.48,-0.118,0.092,0.07
4.49,-0.157,0.059,0.014
4.5,-0.27,-0.228,0.043
4.51,-0.359,-0.321,0.146
4.52,-0.326,-0.225,0.116
4.53,-0.328,-0.054,0.054
4.54,-0.293,0.152,-0.037
4.55,-0.194,0.359,-0.109
4.56,-0.236,0.298,-0.041
4.57,-0.141,-0.012,-0.053
4.58,-0.159,0.007,-0.071
4.59,-0.22,-0.152,0.039
4.6,-0.178,-0.042,0.097
4.61,-0.201,0.099,0.137
4.62,-0.252,0.043,0.134
4.63,-0.273,-0.071,0.021
4.64,-0.296,-0.136,-0.018
4.65,-0.322,-0.164,-0.038
4.66,-0.0,-0.0,-0.85
4.67,-0.122,0.014,-0.146
4.68,-0.07,-0.328,-0.052
4.69,-0.065,-0.389,0.075
4.7,-0.269,-0.25,0.315
4.71,-0.189,-0.043,0.292
4.72,-0.189,0.295,0.046
4.73,-0.282,0.255,-0.083
4.74,-0.249,0.086,-0.175
4.75,-0.369,-0.041,-0.122
4.76,-0.426,-0.08,-0.006
4.77,-0.262,0.055,0.039
4.78,-0.26,0.194,0.061
4.79,-0.2,0.168,0.027
4.8,-0.095,0.094,0.026
4.81,-0.156,-0.128,0.098
4.82,-0.252,-0.365,0.134
4.83,-0.23,-0.229,0.066
4.84,-0.21,-0.035,0.005
4.85,-0.287,0.078,0.014
4.86,-0.211,0.393,-0.037
4.87,-0.257,0.17,0.017
4.88,-0.372,0.118,0.012
4.89,-0.317,-0.042,-0.06
4.9,-0.282,-0.108,-0.076
4.91,-0.285,0.015,0.011
4.92,-0.234,0.146,0.067
4.93,-0.101,0.018,0.057
4.94,-0.072,-0.188,0.006
4.95,-0.153,-0.149,0.068
4.96,-0.171,-0.268,0.162
4.97,-0.197,0.087,0.092
4.98,-0.396,0.162,0.093
4.99,-0.288,0.25,-0.867
5.0,-0.273,0.298,-0.171
5.01,-0.362,0.027,-0.089
5.02,-0.276,-0.089,-0.037
5.03,-0.266,-0.121,0.036
5.04,-0.138,-0.198,0.126
5.05,-0.068,0.021,0.095
5.06,-0.099,0.161,0.13
5.07,-0.139,0.015,0.095
5.08,-0.235,0.083,0.007
5.09,-0.317,-0.066,-0.036
5.1,-0.398,-0.121,-0.02
5.11,-0.409,0.201,-0.041
5.12,-0.297,0.052,-0.047
5.13,-0.325,0.159,0.008
5.14,-0.255,0.125,-0.014
5.15,-0.148,-0.033,0.071
5.16,-0.121,-0.096,0.053
5.17,-0.087,-0.1,0.026
5.18,-0.084,-0.101,0.077
5.19,-0.164,0.059,0.062
5.2,-0.331,0.157,0.063
5.21,-0.273,-0.041,0.003
5.22,-0.302,0.028,-0.085
5.23,-0.36,-0.09,0.01
5.24,-0.333,-0.043,0.058
5.25,-0.325,0.217,0.065
5.26,-0.298,0.277,0.006
5.27,-0.058,0.224,-0.139
5.28,-0.023,0.004,-0.19
5.29,-0.076,-0.357,-0.041
5.3,-0.077,-0.378,0.187
5.31,-0.283,-0.127,0.383
5.32,-0.344,0.099,0.315
5.33,-0.274,0.245,-0.022
5.34,-0.323,0.208,-0.175
5.35,-0.26,-0.018,-0.201
5.36,-0.382,-0.054,-0.073
5.37,-0.357,-0.078,0.009
5.38,-0.196,0.02,0.007
5.39,-0.132,0.188,0.019
5.4,-0.125,0.219,0.069
5.41,-0.174,0.018,0.101
5.42,-0.15,-0.075,0.097
5.43,-0.275,-0.252,0.131
5.44,-0.327,-0.123,0.033
5.45,-0.254,-0.013,-0.054
5.46,-0.223,0.093,-0.029
5.47,-0.269,0.324,-0.024
5.48,-0.406,0.068,-0.002
5.49,-0.307,-0.103,-0.06
5.5,-0.164,-0.012,-0.079
5.51,-0.249,-0.046,0.071
5.52,-0.169,0.107,0.039
5.53,-0.0,-0.0,-0.851
5.54,-0.474,-0.054,0.022
5.55,-0.356,0.051,0.015
5.56,-0.16,0.279,-0.057
5.57,-0.133,0.195,-0.053
5.58,-0.154,0.209,0.007
5.59,-0.094,0.124,0.03
5.6,-0.0,-0.0,-0.843
5.61,-0.234,0.287,-0.112
5.62,-0.187,0.14,-0.185
5.63,-0.238,-0.03,-0.081
5.64,-0.33,-0.08,-0.054
5.65,-0.275,0.081,0.018
5.66,-0.245,0.06,0.091
5.67,-0.192,0.281,0.045
5.68,-0.169,0.202,0.042
5.69,-0.135,-0.073,0.078
5.7,-0.236,-0.206,0.103
5.71,-0.376,-0.281,-0.849
5.72,-0.274,-0.266,0.096
5.73,-0.228,0.038,0.023
5.74,-0.196,0.159,0.014
5.75,-0.203,0.277,-0.017
5.76,-0.36,0.217,0.025
5.77,-0.305,-0.003,-0.041
5.78,-0.261,-0.001,-0.059
5.79,-0.237,-0.023,0.031
5.8,-0.132,0.053,0.063
5.81,-0.21,0.176,0.1
5.82,-0.119,-0.086,0.059
5.83,-0.169,-0.156,-0.844
5.84,-0.243,-0.252,0.157
5.85,-0.234,-0.267,0.16
5.86,-0.333,0.052,0.056
5.87,-0.333,0.267,-0.043
5.88,-0.286,0.261,-0.043
5.89,-0.254,0.263,-0.096
5.9,-0.173,0.098,-0.06
5.91,-0.202,-0.237,0.056
5.92,-0.205,-0.085,0.027
5.93,-0.183,-0.063,0.102
5.94,-0.176,-0.011,0.187
5.95,-0.196,0.162,0.126
5.96,-0.256,0.019,0.083
5.97,-0.294,-0.058,0.002
5.98,-0.0,-0.0,-0.827
5.99,-0.205,0.211,-0.036
6.0,-0.096,-0.103,-0.078
6.01,0.002,-0.179,-0.01
6.02,-0.025,-0.414,0.19
6.03,-0.168,-0.252,0.365
6.04,-0.191,0.136,0.264
6.05,-0.258,0.113,0.104
6.06,-0.328,0.29,-0.122
6.07,-0.326,0.108,-0.18
6.08,-0.459,-0.115,-0.072
6.09,-0.371,-0.013,-0.07
6.1,-0.346,0.039,0.05
6.11,-0.22,0.177,0.055
6.12,0.014,0.196,0.051
6.13,-0.075,0.145,0.11
6.14,-0.088,-0.208,0.134
6.15,-0.174,-0.206,0.145
6.16,-0.261,-0.25,-0.843
6.17,-0.285,-0.085,0.062
6.18,-0.407,0.18,0.068
6.19,-0.337,0.185,0.022
6.2,-0.34,0.252,-0.041
6.21,-0.4,0.012,-0.067
6.22,-0.296,-0.125,-0.086
6.23,-0.171,-0.035,-0.021
6.24,-0.093,0.091,0.091
6.25,-0.042,0.058,0.108
6.26,-0.066,0.145,0.081
6.27,-0.098,-0.137,0.109
6.28,-0.215,-0.176,0.169
6.29,-0.363,-0.075,0.188
6.3,-0.346,-0.114,0.101
6.31,-0.409,0.082,-0.036
6.32,-0.385,0.232,-0.144
6.33,-0.286,0.073,-0.075
6.34,-0.187,0.106,-0.023
6.35,-0.151,0.007,0.017
6.36,-0.114,-0.138,0.045
6.37,-0.051,0.023,0.06
6.38,-0.132,0.108,0.165
6.39,-0.151,0.06,0.172
6.4,-0.225,0.129,0.133
6.41,-0.404,-0.109,0.029
6.42,-0.375,-0.205,-0.021
6.43,-0.433,-0.028,-0.017
6.44,-0.351,-0.008,0.009
6.45,-0.267,0.235,-0.0
6.46,-0.175,0.19,-0.04
6.47,-0.171,0.17,-0.032
6.48,-0.143,0.074,0.03
6.49,-0.107,-0.084,0.043
6.5,-0.107,-0.224,0.061
6.51,-0.172,-0.037,0.118
6.52,-0.225,0.017,0.198
6.53,-0.4,0.084,0.163
6.54,-0.356,0.099,-0.015
6.55,-0.236,-0.184,-0.08
6.56,-0.311,-0.085,-0.079
6.57,-0.316,0.042,0.01
6.58,-0.299,0.169,0.061
6.59,-0.211,0.377,-0.002
6.6,-0.102,0.312,-0.092
6.61,-0.011,-0.115,-0.099
6.62,-0.089,-0.279,0.034
6.63,-0.221,-0.359,0.235
6.64,-0.0,-0.0,-0.835
6.65,-0.252,0.212,-0.043
6.66,-0.272,0.036,-0.048
6.67,-0.168,-0.11,-0.057
6.68,-0.225,-0.002,0.056
6.69,-0.269,0.124,0.139
6.7,-0.176,0.169,0.107
6.71,-0.167,0.091,0.024
6.72,-0.238,-0.267,0.045
6.73,-0.206,-0.261,0.074
6.74,-0.263,-0.199,0.13
6.75,-0.304,-0.081,0.092
6.76,-0.333,0.186,-0.015
6.77,-0.207,0.368,-0.02
6.78,-0.234,0.158,-0.03
6.79,-0.259,0.071,-0.029
6.8,-0.175,-0.113,0.009
6.81,-0.155,-0.167,-0.014
6.82,-0.215,0.053,0.091
6.83,-0.296,-0.009,0.16
6.84,-0.235,0.142,0.12
6.85,-0.213,0.065,0.019
6.86,-0.278,-0.138,-0.009
6.87,-0.319,-0.097,-0.038
6.88,-0.292,0.038,0.021
6.89,-0.249,0.093,0.043
6.9,-0.222,0.204,-0.02
6.91,-0.27,0.233,-0.047
6.92,-0.203,0.054,0.013
6.93,-0.153,-0.021,0.043
6.94,-0.222,-0.119,0.082
6.95,-0.225,-0.207,0.102
6.96,-0.18,-0.055,0.098
6.97,-0.228,0.019,0.067
6.98,-0.261,0.099,0.01
6.99,-0.183,0.103,-0.066
7.0,-0.245,-0.047,-0.014
7.01,-0.346,0.012,0.04
7.02,-0.292,0.112,0.053
7.03,-0.267,0.11,0.075
7.04,-0.22,0.297,-0.022
7.05,-0.204,0.025,-0.09
7.06,-0.159,-0.25,-0.045
7.07,-0.156,-0.275,0.032
7.08,-0.247,-0.287,0.251
7.09,-0.186,-0.047,0.247
7.1,-0.189,0.214,0.071
7.11,-0.259,0.221,-0.041
7.12,-0.151,0.134,-0.19
7.13,-0.394,0.017,-0.064
7.14,-0.352,-0.13,0.003
7.15,-0.275,0.085,-0.013
7.16,-0.316,0.143,0.047
7.17,-0.185,0.089,-0.005
7.18,-0.152,0.196,0.024
7.19,-0.122,-0.139,0.109
7.2,-0.121,-0.255,0.077
7.21,-0.25,-0.143,0.1
7.22,-0.204,-0.151,0.052
7.23,-0.267,0.188,0.037
7.24,-0.31,0.308,-0.003
7.25,-0.308,0.108,-0.014
7.26,-0.318,0.147,-0.055
7.27,-0.294,-0.114,-0.075
7.28,-0.346,-0.177,0.008
7.29,-0.227,0.015,0.025
7.3,-0.083,0.13,0.063
7.31,-0.067,0.036,0.061
7.32,-0.087,0.008,0.022
7.33,-0.177,-0.168,0.097
7.34,-0.29,-0.174,0.137
7.35,-0.275,0.05,0.082
7.36,-0.419,0.042,0.049
7.37,-0.328,0.202,-0.118
7.38,-0.253,0.213,-0.137
7.39,-0.301,-0.042,-0.048
7.4,-0.193,-0.038,0.004
7.41,-0.213,-0.057,0.04
7.42,-0.062,-0.097,0.03
7.43,-0.081,0.086,0.047
7.44,-0.134,0.09,0.14
7.45,-0.0,-0.0,-0.849
7.46,-0.345,0.088,0.049
7.47,-0.293,0.219,0.089
7.48,-0.242,0.246,0.015
7.49,-0.017,0.237,-0.127
7.5,0.008,-0.125,-0.856
7.51,-0.055,-0.4,0.067
7.52,-0.098,-0.224,0.157
7.53,-0.322,-0.156,0.369
7.54,-0.304,0.224,0.185
7.55,-0.0,-0.0,-0.84
7.56,-0.122,-0.089,0.053
7.57,-0.147,0.043,0.099
7.58,-0.11,0.198,0.082
7.59,-0.154,0.14,0.122
7.6,-0.149,0.011,0.005
7.61,-0.313,-0.14,0.069
7.62,-0.357,-0.322,0.096
7.63,-0.276,-0.156,-0.852
7.64,-0.428,0.044,0.016
7.65,-0.307,0.078,-0.001
7.66,-0.126,0.369,-0.054
7.67,-0.189,0.186,0.016
7.68,-0.145,-0.008,0.003
7.69,-0.123,-0.033,0.006
7.7,-0.135,-0.167,0.072
7.71,-0.191,-0.008,0.144
7.72,-0.242,0.106,0.155
7.73,-0.279,-0.019,0.116
7.74,-0.352,-0.048,0.004
7.75,-0.394,-0.079,-0.028
7.76,-0.332,-0.182,0.022
7.77,-0.264,0.144,0.004
7.78,-0.208,0.161,-0.021
7.79,-0.18,0.206,-0.049
7.8,-0.219,0.207,-0.003
7.81,-0.189,0.073,0.05
7.82,-0.141,-0.101,0.037
7.83,-0.186,-0.124,0.077
7.84,-0.0,-0.0,-0.834
7.85,-0.293,-0.012,-0.144
7.86,-0.338,-0.017,-0.047
7.87,-0.281,-0.042,0.04
7.88,-0.302,0.259,0.08
7.89,-0.133,0.28,0.009
7.9,-0.0,-0.0,-0.825
7.91,-0.217,-0.102,0.162
7.92,-0.339,0.256,0.123
7.93,-0.307,0.117,0.016
7.94,-0.279,0.37,-0.087
7.95,-0.268,0.131,-0.074
7.96,-0.21,-0.195,-0.024
7.97,-0.264,-0.0,-0.833
7.98,-0.215,-0.146,0.075
7.99,-0.189,-0.007,0.154
8.0,-0.095,0.164,0.156
8.01,-0.0,-0.0,-0.813
8.02,-0.284,-0.04,0.112
8.03,-0.39,0.223,0.171
8.04,-0.336,0.246,0.065
8.05,-0.17,0.147,-0.092
8.06,0.017,-0.03,-0.12
8.07,-0.007,-0.388,0.008
8.08,-0.164,-0.294,0.171
8.09,-0.311,-0.034,0.329
8.1,-0.193,0.133,0.266
8.11,-0.27,0.361,0.068
8.12,-0.275,0.178,-0.111
8.13,-0.35,-0.12,-0.118
8.14,-0.428,-0.168,-0.051
8.15,-0.315,0.026,0.029
8.16,-0.346,0.048,0.099
8.17,-0.157,0.245,0.048
8.18,-0.004,0.219,-0.829
8.19,-0.094,0.022,0.131
8.2,-0.107,-0.174,0.114
8.21,-0.342,-0.33,0.217
8.22,-0.231,-0.086,0.085
8.23,-0.278,0.035,0.066
8.24,-0.359,0.216,0.047
8.25,-0.251,0.325,-0.089
8.26,-0.412,0.021,0.073
8.27,-0.271,-0.115,-0.0
8.28,-0.206,-0.119,0.007
8.29,-0.208,-0.082,0.078
8.3,-0.05,0.066,0.034
8.31,-0.153,0.318,0.103
8.32,-0.146,-0.008,0.081
8.33,-0.192,-0.068,0.075
8.34,-0.323,-0.136,0.146
8.35,-0.25,-0.213,0.106
8.36,-0.339,-0.0,0.065
8.37,-0.4,0.078,0.009
8.38,-0.286,0.205,-0.044
8.39,-0.241,0.152,-0.02
8.4,-0.118,0.016,-0.03
8.41,-0.141,-0.041,-0.016
8.42,-0.119,-0.099,0.049
8.43,-0.081,0.071,0.133
8.44,-0.172,0.103,0.168
8.45,-0.266,0.164,0.142
8.46,-0.292,-0.053,0.102
8.47,-0.323,-0.064,0.001
8.48,-0.477,-0.145,-0.0
8.49,-0.458,-0.131,0.024
8.5,-0.228,0.135,-0.021
8.51,-0.129,0.164,-0.038
8.52,-0.165,0.194,0.027
8.53,-0.073,0.166,0.017
8.54,-0.112,-0.009,0.065
8.55,-0.132,-0.149,0.061
8.56,-0.198,-0.085,0.128
8.57,-0.34,-0.064,0.133
8.58,-0.359,0.094,-0.843
8.59,-0.384,0.087,0.005
8.6,-0.29,-0.079,-0.086
8.61,-0.237,-0.105,-0.077
8.62,-0.178,-0.068,0.057
8.63,-0.198,0.119,0.153
8.64,-0.237,0.29,0.086
8.65,-0.178,0.32,-0.018
8.66,-0.012,0.112,-0.153
8.67,-0.142,-0.117,-0.046
8.68,-0.248,-0.423,0.158
8.69,-0.343,-0.235,0.301
8.7,-0.379,0.003,0.295
8.71,-0.249,0.074,0.111
8.72,-0.205,0.227,-0.145
8.73,-0.239,0.134,-0.145
8.74,-0.213,-0.084,-0.072
8.75,-0.314,-0.016,0.025
8.76,-0.28,0.071,0.046
8.77,-0.223,0.042,0.08
8.78,-0.129,0.261,0.051
8.79,-0.152,0.086,0.073
8.8,-0.229,-0.083,0.14
8.81,-0.246,-0.155,0.076
8.82,-0.412,-0.305,0.104
8.83,-0.307,-0.134,0.02
8.84,-0.206,0.118,-0.028
8.85,-0.264,0.156,0.033
8.86,-0.221,0.258,-0.037
8.87,-0.279,0.098,0.008
8.88,-0.213,-0.114,0.015
8.89,-0.153,0.039,-0.02
8.9,-0.23,0.049,0.071
8.91,-0.24,0.123,0.076
8.92,-0.191,0.269,0.038
8.93,-0.204,-0.076,-0.002
8.94,-0.281,-0.302,0.048
8.95,-0.278,-0.294,0.118
8.96,-0.186,-0.184,0.15
8.97,-0.293,0.044,0.086
8.98,-0.321,0.256,-0.011
8.99,-0.125,0.293,-0.073
9.0,-0.161,0.21,-0.076
9.01,-0.257,-0.03,-0.022
9.02,-0.182,-0.091,-0.007
9.03,-0.25,-0.111,0.06
9.04,-0.293,-0.012,0.101
9.05,-0.256,0.007,0.157
9.06,-0.23,0.054,0.117
9.07,-0.215,-0.042,0.026
9.08,-0.244,-0.084,-0.05
9.09,-0.268,0.036,-0.019
9.1,-0.284,0.052,0.032
9.11,-0.182,0.265,-0.04
9.12,-0.171,0.182,-0.079
9.13,-0.343,0.073,-0.008
9.14,-0.289,0.054,0.05
9.15,-0.274,-0.132,0.056
9.16,-0.207,-0.183,0.115
9.17,-0.199,-0.059,0.076
9.18,-0.127,0.012,0.093
9.19,-0.154,0.05,0.043
9.2,-0.158,0.16,0.015
9.21,-0.133,-0.042,-0.043
9.22,-0.298,-0.059,-0.053
9.23,-0.391,0.003,0.046
9.24,-0.349,0.154,0.076
9.25,-0.416,0.263,0.044
9.26,-0.271,0.275,-0.101
9.27,-0.122,-0.058,-0.14
9.28,-0.094,-0.205,-0.049
9.29,-0.034,-0.4,0.151
9.3,-0.156,-0.321,0.324
9.31,-0.178,0.096,0.306
9.32,-0.226,0.178,0.091
9.33,-0.286,0.219,-0.136
9.34,-0.316,0.119,-0.211
9.35,-0.467,-0.076,-0.057
9.36,-0.406,-0.026,-0.025
9.37,-0.306,0.062,-0.005
9.38,-0.258,0.099,0.016
9.39,-0.052,0.205,-0.036
9.4,-0.084,0.094,0.116
9.41,-0.102,-0.183,0.158
9.42,-0.119,-0.194,0.11
9.43,-0.276,-0.173,0.111
9.44,-0.244,-0.072,-0.014
9.45,-0.327,0.221,-0.042
9.46,-0.345,0.205,0.002
9.47,-0.32,0.184,-0.029
9.48,-0.389,0.12,-0.007
9.49,-0.29,-0.165,-0.071
9.5,-0.224,-0.011,-0.045
9.51,-0.202,0.014,0.033
9.52,-0.033,0.039,0.058
9.53,-0.093,0.066,0.046
9.54,-0.082,-0.089,0.052
9.55,-0.222,-0.248,0.145
9.56,-0.327,-0.11,0.206
9.57,-0.298,-0.053,0.086
9.58,-0.409,0.151,-0.011
9.59,-0.377,0.245,-0.117
9.6,-0.306,0.128,-0.138
9.61,-0.269,0.062,-0.085
9.62,-0.186,-0.052,-0.041
9.63,-0.0,-0.0,-0.848
9.64,-0.346,0.066,0.062
9.65,-0.321,0.007,-0.037
9.66,-0.352,-0.127,-0.069
9.67,-0.4,-0.053,-0.018
9.68,-0.373,0.24,0.009
9.69,-0.286,0.16,0.043
9.7,-0.207,0.362,-0.072
9.71,-0.042,0.165,-0.112
9.72,0.048,-0.237,-0.105
9.73,-0.08,-0.355,0.086
9.74,-0.217,-0.315,0.315
9.75,-0.315,-0.036,0.399
9.76,-0.303,0.255,0.177
9.77,-0.308,0.194,-0.097
9.78,-0.345,0.051,-0.231
9.79,-0.369,-0.035,-0.207
9.8,-0.34,-0.232,-0.02
9.81,-0.0,-0.0,-0.841
9.82,-0.169,-0.047,0.049
9.83,-0.207,-0.31,0.086
9.84,-0.322,-0.171,0.139
9.85,-0.277,-0.066,0.104
9.86,-0.287,0.039,0.021
9.87,-0.25,0.229,-0.091
9.88,-0.237,0.276,-0.089
9.89,-0.209,0.092,-0.076
9.9,-0.178,0.01,-0.016
9.91,-0.206,-0.031,0.06
9.92,-0.165,-0.066,0.06
9.93,-0.182,0.121,0.108
9.94,-0.163,-0.018,0.151
9.95,-0.262,0.047,0.069
9.96,-0.358,-0.128,0.034
9.97,-0.312,-0.201,0.019
9.98,-0.306,-0.046,-0.027
9.99,-0.324,0.117,0.019
10.0,-0.204,0.134,-0.003
10.01,-0.161,0.308,-0.055
10.02,-0.237,0.195,-0.01
10.03,-0.244,0.009,0.05
10.04,-0.166,-0.034,0.024
10.05,-0.211,-0.209,0.077
10.06,-0.243,-0.09,0.077
10.07,-0.198,-0.022,0.094
10.08,-0.315,0.003,0.102
10.09,-0.232,0.018,0.01
10.1,-0.161,-0.033,-0.065
10.11,-0.265,-0.119,0.0
10.12,-0.284,0.132,0.024
10.13,-0.297,0.3,0.066
10.14,-0.3,0.316,-0.003
10.15,-0.202,0.266,-0.156
10.16,-0.153,-0.147,-0.129
10.17,-0.146,-0.378,0.017
10.18,-0.18,-0.303,0.219
10.19,-0.302,-0.211,0.372
10.2,-0.188,0.109,0.194
10.21,-0.204,0.253,-0.051
10.22,-0.217,0.121,-0.112
10.23,-0.215,0.066,-0.17
10.24,-0.372,-0.101,-0.084
10.25,-0.337,-0.031,-0.859
10.26,-0.24,0.177,0.024
10.27,-0.309,0.269,0.079
10.28,-0.196,0.06,0.009
10.29,-0.154,0.036,0.048
10.3,-0.174,-0.211,0.11
10.31,-0.276,-0.348,0.139
10.32,-0.218,-0.136,0.065
10.33,-0.136,0.053,-0.004
10.34,-0.268,0.341,0.016
10.35,-0.298,0.236,0.002
10.36,-0.392,0.037,0.01
10.37,-0.323,0.066,-0.012
10.38,-0.312,-0.066,-0.006
10.39,-0.253,-0.04,-0.015
10.4,-0.136,0.201,-0.032
10.41,-0.134,0.04,0.036
10.42,-0.053,-0.06,0.054
10.43,-0.159,-0.209,0.08
10.44,-0.236,-0.273,0.193
10.45,-0.183,-0.05,0.102
10.46,-0.381,0.097,0.059
10.47,-0.392,0.107,-0.012
10.48,-0.293,0.328,-0.116
10.49,-0.332,0.128,-0.059
10.5,-0.173,-0.092,-0.068
10.51,-0.206,-0.052,-0.031
10.52,-0.199,-0.046,0.053
10.53,-0.126,-0.057,0.105
10.54,-0.164,0.107,0.14
10.55,-0.16,-0.013,0.123
10.56,-0.237,-0.068,0.037
10.57,-0.369,-0.04,0.013
10.58,-0.342,-0.092,-0.024
10.59,-0.328,0.153,-0.026
10.6,-0.3,0.226,-0.045
10.61,-0.215,0.134,-0.054
10.62,-0.285,0.188,-0.034
10.63,-0.293,-0.007,0.022
10.64,-0.162,-0.09,0.034
10.65,-0.044,-0.102,0.053
10.66,-0.102,-0.132,0.083
10.67,-0.212,0.027,0.078
10.68,-0.167,0.074,0.088
10.69,-0.225,0.023,0.062
10.7,-0.266,0.102,-0.098
10.71,-0.304,-0.141,-0.066
10.72,-0.399,-0.004,0.029
10.73,-0.39,0.251,-0.007
10.74,-0.376,0.137,0.063
10.75,-0.255,0.186,-0.057
10.76,-0.072,0.088,-0.123
10.77,-0.037,-0.273,-0.02
10.78,-0.042,-0.39,0.113
10.79,-0.129,-0.101,0.181
10.8,-0.229,-0.089,0.307
10.81,-0.207,0.269,0.102
10.82,-0.305,0.267,-0.082
10.83,-0.334,0.013,-0.143
10.84,-0.429,-0.031,-0.183
10.85,-0.473,-0.098,-0.056
10.86,-0.336,-0.003,-0.014
10.87,-0.184,0.15,0.042
10.88,-0.116,0.222,0.047
10.89,-0.0,0.119,0.029
10.9,-0.042,-0.006,0.104
10.91,-0.125,-0.216,0.109
10.92,-0.306,-0.265,0.082
10.93,-0.326,-0.08,0.027
10.94,-0.315,0.049,0.03
10.95,-0.358,0.258,-0.042
10.96,-0.457,0.226,-0.049
10.97,-0.377,-0.01,-0.071
10.98,-0.219,-0.006,-0.093
10.99,-0.148,-0.052,-0.001
11.0,-0.12,-0.067,0.058
11.01,-0.077,0.183,0.085
11.02,-0.074,0.048,0.115
11.03,-0.116,-0.016,0.116
11.04,-0.287,-0.068,0.095
11.05,-0.393,-0.308,0.128
11.06,-0.321,-0.057,-0.005
11.07,-0.428,0.051,-0.087
11.08,-0.421,0.078,-0.039
11.09,-0.194,0.275,-0.145
11.1,-0.145,0.167,-0.073
11.11,-0.094,-0.085,-0.007
11.12,-0.088,-0.045,0.036
11.13,-0.086,0.014,0.083
11.14,-0.143,-0.009,0.11
11.15,-0.245,0.134,0.134
11.16,-0.301,0.047,0.063
11.17,-0.347,-0.1,0.003
11.18,-0.362,-0.088,-0.074
11.19,-0.375,-0.111,-0.043
11.2,-0.374,0.029,-0.04
11.21,-0.197,0.161,-0.037
11.22,-0.127,0.223,-0.054
11.23,-0.199,0.211,0.006
11.24,-0.165,0.106,0.036
11.25,-0.079,-0.106,0.031
11.26,-0.161,-0.088,0.031
11.27,-0.219,-0.203,0.127
11.28,-0.284,-0.045,0.142
11.29,-0.365,0.073,0.077
11.3,-0.349,-0.026,0.006
11.31,-0.228,-0.005,-0.121
11.32,-0.305,-0.045,-0.095
11.33,-0.292,-0.021,0.021
11.34,-0.234,0.204,0.0
11.35,-0.253,0.375,-0.873
11.36,-0.153,0.157,-0.051
11.37,-0.051,0.072,-0.119
11.38,-0.147,-0.227,0.05
11.39,-0.154,-0.441,0.162
11.4,-0.284,-0.144,0.253
11.41,-0.342,-0.051,0.216
11.42,-0.303,0.182,0.029
11.43,-0.319,0.293,-0.126
11.44,-0.204,-0.029,-0.169
11.45,-0.299,-0.015,-0.151
11.46,-0.345,-0.045,-0.044
11.47,-0.186,0.086,0.041
11.48,-0.188,0.217,0.064
11.49,-0.139,0.276,0.031
11.5,-0.099,0.021,0.043
11.51,-0.228,-0.116,0.107
11.52,-0.308,-0.287,0.09
11.53,-0.0,-0.0,-0.853
11.54,-0.209,0.315,-0.118
11.55,-0.269,0.068,-0.033
11.56,-0.239,-0.127,-0.03
11.57,-0.246,-0.024,0.019
11.58,-0.0,-0.0,-0.843
11.59,-0.205,-0.023,-0.051
11.6,-0.311,-0.044,-0.081
11.61,-0.401,0.017,0.01
11.62,-0.302,0.109,0.03
11.63,-0.271,0.349,0.041
11.64,-0.295,0.219,-0.849
11.65,-0.181,0.049,-0.077
11.66,-0.079,-0.168,-0.066
11.67,-0.027,-0.375,0.122
11.68,-0.214,-0.312,0.269
11.69,-0.242,0.004,0.298
11.7,-0.2,0.117,0.121
11.71,-0.0,-0.0,-0.832
11.72,-0.274,-0.042,0.01
11.73,-0.16,0.051,0.081
11.74,0.012,0.168,0.029
11.75,-0.06,0.138,0.083
11.76,-0.086,-0.138,0.109
11.77,-0.204,-0.105,0.108
11.78,-0.33,-0.236,0.186
11.79,-0.342,-0.052,0.052
11.8,-0.473,0.079,0.043
11.81,-0.382,0.205,-0.035
11.82,-0.296,0.149,-0.079
11.83,-0.253,0.097,-0.037
11.84,-0.112,-0.14,-0.013
11.85,-0.111,-0.075,0.021
11.86,-0.108,-0.014,0.065
11.87,-0.105,-0.017,0.127
11.88,-0.142,0.193,0.116
11.89,-0.294,0.071,0.119
11.9,-0.378,-0.055,0.06
11.91,-0.336,-0.077,-0.073
11.92,-0.401,-0.022,-0.038
11.93,-0.352,0.021,0.008
11.94,-0.264,0.221,-0.011
11.95,-0.204,0.157,0.004
11.96,-0.158,0.169,-0.04
11.97,-0.158,0.03,0.053
11.98,-0.077,-0.11,0.052
11.99,-0.115,-0.136,0.082
12.0,-0.182,-0.105,0.138
12.01,-0.228,0.013,0.098
12.02,-0.323,0.115,0.055
12.03,-0.286,0.148,-0.028
12.04,-0.336,-0.156,-0.852
12.05,-0.419,0.049,0.014
12.06,-0.301,-0.162,0.088
12.07,-0.236,0.216,0.101
12.08,-0.242,0.269,0.017
12.09,-0.141,0.115,-0.054
12.1,-0.036,0.006,-0.112
12.11,-0.051,-0.286,-0.037
12.12,-0.176,-0.339,0.169
12.13,-0.286,-0.072,0.277
12.14,-0.301,0.2,0.251
12.15,-0.345,0.143,0.032
12.16,-0.295,0.232,-0.132
12.17,-0.345,-0.114,-0.119
12.18,-0.258,-0.177,-0.045
12.19,-0.284,0.049,0.005
12.2,-0.0,-0.0,-0.833
12.21,-0.318,-0.244,0.073
12.22,-0.343,-0.139,0.114
12.23,-0.289,-0.17,0.099
12.24,-0.331,-0.085,0.059
12.25,-0.247,0.223,-0.023
12.26,-0.121,0.189,-0.016
12.27,-0.174,0.165,-0.013
12.28,-0.203,0.099,-0.037
12.29,-0.227,-0.142,0.033
12.3,-0.177,-0.006,0.042
12.31,-0.211,0.045,0.076
12.32,-0.236,-0.022,0.114
12.33,-0.256,0.026,0.085
12.34,-0.358,-0.039,0.059
12.35,-0.233,-0.151,0.015
12.36,-0.288,0.019,-0.002
12.37,-0.264,0.087,0.027
12.38,-0.226,0.23,-0.03
12.39,-0.226,0.208,-0.038
12.4,-0.189,0.172,0.006
12.41,-0.242,0.054,0.048
12.42,-0.242,-0.123,0.073
12.43,-0.14,-0.259,0.034
12.44,-0.232,-0.101,0.1
12.45,-0.234,-0.021,0.132
12.46,-0.265,0.081,0.132
12.47,-0.223,0.149,-0.016
12.48,-0.135,-0.042,-0.117
12.49,-0.309,-0.111,-0.054
12.5,-0.316,0.035,0.04
12.51,-0.293,0.138,0.131
12.52,-0.368,0.319,0.092
12.53,-0.23,0.348,-0.074
12.54,-0.091,-0.11,-0.118
12.55,-0.135,-0.225,-0.081
12.56,-0.108,-0.332,0.074
12.57,-0.213,-0.331,0.304
12.58,-0.206,0.071,0.256
12.59,-0.245,0.222,0.108
12.6,-0.282,0.188,-0.054
12.61,-0.228,0.124,-0.161
12.62,-0.36,-0.095,-0.063
12.63,-0.434,-0.093,-0.006
12.64,-0.339,0.044,0.043
12.65,-0.236,0.207,0.07
12.66,-0.092,0.176,-0.032
12.67,-0.143,0.176,0.071
12.68,-0.101,-0.208,0.089
12.69,-0.209,-0.22,0.094
12.7,-0.344,-0.241,0.129
12.71,-0.216,-0.209,0.002
12.72,-0.299,0.261,0.007
12.73,-0.275,0.256,-0.01
12.74,-0.304,0.25,-0.009
12.75,-0.31,0.133,-0.056
12.76,-0.222,-0.097,-0.033
12.77,-0.262,-0.118,-0.013
12.78,-0.208,0.048,0.008
12.79,-0.18,0.05,0.078
12.8,-0.125,0.097,0.051
12.81,-0.121,-0.024,0.03
12.82,-0.194,-0.296,0.065
12.83,-0.244,-0.196,0.08
12.84,-0.238,-0.062,0.097
12.85,-0.391,0.082,0.086
12.86,-0.281,0.325,-0.073
12.87,-0.241,0.155,-0.112
12.88,-0.253,0.063,-0.13
12.89,-0.235,-0.131,-0.041
12.9,-0.235,-0.175,0.067
12.91,-0.126,-0.044,0.072
12.92,-0.155,0.027,0.135
12.93,-0.0,-0.0,-0.846
12.94,-0.409,-0.072,-0.024
12.95,-0.305,0.054,0.053
12.96,-0.254,0.181,0.071
12.97,-0.162,0.38,0.02
12.98,-0.079,0.187,-0.073
12.99,-0.063,-0.141,-0.069
13.0,-0.064,-0.371,-0.008
13.01,-0.203,-0.343,0.226
13.02,-0.355,-0.166,0.378
13.03,-0.331,0.246,0.225
13.04,-0.362,0.149,-0.01
13.05,-0.237,0.123,-0.253
13.06,-0.349,0.069,-0.162
13.07,-0.363,-0.176,-0.027
13.08,-0.186,0.056,-0.023
13.09,-0.159,0.113,0.0
13.1,-0.113,0.15,-0.015
13.11,-0.066,0.245,0.038
13.12,-0.181,-0.016,0.168
13.13,-0.261,-0.202,0.169
13.14,-0.338,-0.213,0.116
13.15,-0.337,-0.188,0.032
13.16,-0.291,0.017,0.018
13.17,-0.318,0.234,-0.011
13.18,-0.265,0.156,-0.065
13.19,-0.272,0.125,-0.085
13.2,-0.191,-0.017,-0.077
13.21,-0.181,-0.074,-0.049
13.22,-0.208,0.043,0.064
13.23,-0.188,0.106,0.128
13.24,-0.155,0.135,0.059
13.25,-0.138,0.026,0.02
13.26,-0.164,-0.175,0.068
13.27,-0.343,-0.222,0.154
13.28,-0.299,-0.199,0.103
13.29,-0.35,0.009,0.071
13.3,-0.37,0.114,-0.064
13.31,-0.253,0.309,-0.109
13.32,-0.246,0.064,-0.065
13.33,-0.114,0.029,-0.085
13.34,-0.191,-0.042,-0.026
13.35,-0.153,-0.161,0.019
13.36,-0.06,0.149,0.067
13.37,-0.163,0.167,0.183
13.38,-0.0,-0.0,-0.85
13.39,-0.3,0.156,0.058
13.4,-0.228,0.178,0.083
13.41,-0.26,0.348,0.049
13.42,-0.149,0.325,-0.113
13.43,-0.086,-0.022,-0.111
13.44,-0.104,-0.327,-0.06
13.45,-0.209,-0.294,0.071
13.46,-0.346,-0.294,0.34
13.47,-0.268,0.088,0.256
13.48,-0.214,0.247,0.048
13.49,-0.218,0.094,-0.863
13.5,-0.241,0.071,-0.181
13.51,-0.323,-0.06,-0.075
13.52,-0.309,-0.08,-0.004
13.53,-0.287,0.097,0.041
13.54,-0.219,0.223,0.051
13.55,-0.125,0.237,0.0
13.56,-0.146,0.125,-0.852
13.57,-0.244,-0.216,0.12
13.58,-0.264,-0.286,0.106
13.59,-0.319,-0.269,0.106
13.6,-0.206,-0.106,0.058
13.61,-0.226,0.198,-0.013
13.62,-0.273,0.257,0.012
13.63,-0.295,0.167,0.044
13.64,-0.314,0.058,-0.012
13.65,-0.304,-0.05,-0.044
13.66,-0.238,-0.095,-0.021
13.67,-0.203,0.175,0.058
13.68,-0.289,0.131,0.094
13.69,-0.137,0.074,0.017
13.7,-0.098,-0.101,-0.012
13.71,-0.19,-0.368,0.085
13.72,-0.161,-0.224,0.134
13.73,-0.288,-0.037,0.153
13.74,-0.366,0.123,0.136
13.75,-0.266,0.334,-0.068
13.76,-0.309,0.287,-0.125
13.77,-0.286,0.045,-0.099
13.78,-0.224,-0.116,-0.022
13.79,-0.223,-0.044,0.01
13.8,-0.192,-0.181,0.078
13.81,-0.166,0.058,0.124
13.82,-0.105,0.14,0.141
13.83,-0.134,0.074,0.078
13.84,-0.254,-0.02,0.026
13.85,-0.361,-0.131,-0.022
13.86,-0.366,0.023,-0.044
13.87,-0.371,0.102,0.017
13.88,-0.253,0.13,-0.016
13.89,-0.0,-0.0,-0.839
13.9,-0.181,-0.269,0.273
13.91,-0.192,-0.109,0.34
13.92,-0.195,0.302,0.127
13.93,-0.275,0.273,-0.058
13.94,-0.248,0.118,-0.157
13.95,-0.0,-0.0,-0.836
13.96,-0.098,0.235,0.061
13.97,-0.061,0.062,0.018
13.98,-0.087,-0.026,-0.002
13.99,-0.234,-0.181,0.173
14.0,-0.0,-0.0,-0.83
14.01,-0.211,0.156,0.004
14.02,-0.136,0.148,0.037
14.03,-0.084,-0.109,0.116
14.04,-0.112,-0.028,0.08
14.05,-0.211,-0.037,0.089
14.06,-0.186,-0.125,0.116
14.07,-0.215,0.215,0.062
14.08,-0.354,-0.007,0.051
14.09,-0.353,-0.027,-0.026
14.1,-0.262,-0.077,-0.064
14.11,-0.322,-0.089,0.052
14.12,-0.248,0.08,0.081
14.13,-0.32,0.323,0.089
14.14,-0.223,0.272,0.002
14.15,-0.045,0.161,-0.129
14.16,-0.076,-0.194,-0.092
14.17,-0.044,-0.479,0.066
14.18,-0.275,-0.168,0.303
14.19,-0.351,-0.05,0.41
14.2,-0.289,0.153,0.11
14.21,-0.328,0.289,-0.126
14.22,-0.294,0.053,-0.184
14.23,-0.271,-0.081,-0.107
14.24,-0.366,-0.043,-0.032
14.25,-0.235,-0.007,0.008
14.26,-0.206,0.094,-0.847
14.27,-0.125,0.289,0.059
14.28,-0.089,0.157,0.12
14.29,-0.099,-0.012,0.118
14.3,-0.235,-0.215,0.13
14.31,-0.374,-0.326,0.076
14.32,-0.28,-0.13,-0.006
14.33,-0.351,0.015,0.047
14.34,-0.257,0.223,0.015
14.35,-0.237,0.325,-0.037
14.36,-0.328,0.047,0.048
14.37,-0.222,0.042,-0.058
14.38,-0.193,-0.05,-0.036
14.39,-0.18,-0.04,0.086
14.4,-0.146,0.152,0.084
14.41,-0.203,0.187,0.095
14.42,-0.125,-0.135,0.005
14.43,-0.257,-0.161,0.046
14.44,-0.331,-0.241,0.156
14.45,-0.262,-0.2,0.132
14.46,-0.302,0.091,0.048
14.47,-0.308,0.186,-0.035
14.48,-0.191,0.282,-0.091
14.49,-0.203,0.213,-0.08
14.5,-0.213,-0.046,0.011
14.51,-0.141,-0.098,-0.008
14.52,-0.191,-0.048,0.054
14.53,-0.22,-0.108,0.144
14.54,-0.181,0.079,0.127
14.55,-0.26,0.104,0.104
14.56,-0.291,-0.12,0.057
14.57,-0.289,-0.059,-0.027
14.58,-0.33,-0.016,-0.017
14.59,-0.27,0.057,-0.017
14.6,-0.237,0.249,-0.043
14.61,-0.242,0.185,-0.029
14.62,-0.232,0.226,-0.017
14.63,-0.208,0.065,0.073
14.64,-0.158,-0.151,0.079
14.65,-0.182,-0.16,0.056
14.66,-0.231,-0.172,0.095
14.67,-0.146,-0.145,0.109
14.68,-0.248,0.145,0.07
14.69,-0.296,0.026,0.031
14.7,-0.19,-0.002,-0.068
14.71,-0.292,0.087,-0.027
14.72,-0.332,0.009,0.045
14.73,-0.33,0.163,0.074
14.74,-0.342,0.319,0.029
14.75,-0.204,0.154,-0.048
14.76,-0.132,-0.061,-0.165
14.77,-0.142,-0.202,-0.062
14.78,-0.106,-0.438,0.117
14.79,-0.145,-0.153,0.273
14.8,-0.192,0.053,0.276
14.81,-0.219,0.176,0.072
14.82,-0.233,0.287,-0.096
14.83,-0.245,0.09,-0.181
14.84,-0.384,-0.108,-0.091
14.85,-0.392,-0.007,-0.016
14.86,-0.377,-0.022,0.086
14.87,-0.261,0.167,0.035
14.88,-0.12,0.213,-0.023
14.89,-0.118,0.013,0.032
14.9,-0.07,-0.103,0.088
14.91,-0.263,-0.21,0.117
14.92,-0.24,-0.313,0.114
14.93,-0.135,0.048,-0.023
14.94,-0.0,-0.0,-0.846
14.95,-0.187,-0.115,-0.011
14.96,-0.092,-0.074,0.014
14.97,-0.15,-0.097,0.102
14.98,-0.055,0.115,0.145
14.99,-0.053,0.194,0.144
15.0,-0.241,0.054,0.109
15.01,-0.312,-0.037,0.017
15.02,-0.403,-0.112,-0.067
15.03,-0.5,-0.074,-0.007
15.04,-0.353,0.106,-0.038
15.05,-0.285,0.192,-0.049
15.06,-0.0,-0.0,-0.841
15.07,-0.312,-0.156,0.32
15.08,-0.334,0.041,0.321
15.09,-0.301,0.246,0.041
15.1,-0.274,0.211,-0.22
15.11,-0.311,0.116,-0.176
15.12,-0.361,-0.239,-0.058
15.13,-0.325,-0.005,0.051
15.14,-0.254,-0.044,0.044
15.15,-0.151,0.11,0.046
15.16,-0.076,0.378,0.026
15.17,-0.131,0.146,0.103
15.18,-0.201,-0.075,0.095
15.19,-0.245,-0.25,-0.854
15.2,-0.299,-0.304,0.065
15.21,-0.227,-0.116,0.027
15.22,-0.404,0.138,0.113
15.23,-0.331,0.204,0.048
15.24,-0.182,0.261,-0.061
15.25,-0.239,0.038,-0.046
15.26,-0.222,-0.079,-0.088
15.27,-0.173,-0.11,0.01
15.28,-0.201,0.072,0.114
15.29,-0.167,0.164,0.103
15.3,-0.184,0.175,0.091
15.31,-0.177,-0.069,0.038
15.32,-0.209,-0.189,0.075
15.33,-0.335,-0.236,0.123
15.34,-0.338,-0.231,0.074
15.35,-0.377,0.084,-0.024
15.36,-0.234,0.232,-0.047
15.37,-0.173,0.232,-0.058
15.38,-0.162,0.196,-0.021
15.39,-0.167,-0.058,0.057
15.4,-0.178,-0.133,0.044
15.41,-0.205,-0.096,0.063
15.42,-0.193,-0.007,0.142
15.43,-0.228,0.135,0.116
15.44,-0.339,0.102,0.05
15.45,-0.353,-0.063,-0.001
15.46,-0.285,-0.124,-0.081
15.47,-0.292,-0.023,-0.011
15.48,-0.233,0.002,0.021
15.49,-0.194,0.21,-0.003
15.5,-0.212,0.191,-0.026
15.51,-0.206,0.139,0.008
15.52,-0.193,0.11,0.042
15.53,-0.208,-0.152,0.105
15.54,-0.257,-0.124,0.072
15.55,-0.238,-0.092,0.036
15.56,-0.177,-0.13,0.08
15.57,-0.292,0.16,0.07
15.58,-0.263,0.069,0.004
15.59,-0.173,-0.086,-0.065
15.6,-0.271,0.059,-0.107
15.61,-0.286,0.014,0.05
15.62,-0.307,0.151,0.107
15.63,-0.34,0.287,0.071
15.64,-0.157,0.216,-0.07
15.65,-0.087,-0.153,-0.098
15.66,-0.174,-0.213,-0.013
15.67,-0.21,-0.375,-0.858
15.68,-0.275,-0.172,0.305
15.69,-0.198,0.123,0.148
15.7,-0.229,0.151,-0.016
15.71,-0.254,0.237,-0.145
15.72,-0.248,0.152,-0.174
15.73,-0.343,-0.077,-0.013
15.74,-0.264,-0.039,-0.016
15.75,-0.308,0.062,0.055
15.76,-0.22,0.102,0.101
15.77,-0.072,0.226,0.028
15.78,-0.256,0.053,0.08
15.79,-0.222,-0.251,0.063
15.8,-0.213,-0.258,0.066
15.81,-0.279,-0.239,0.092
15.82,-0.237,-0.0,0.033
15.83,-0.29,0.212,0.042
15.84,-0.233,0.301,-0.014
15.85,-0.236,0.29,-0.092
15.86,-0.287,0.072,-0.045
15.87,-0.201,-0.166,-0.067
15.88,-0.274,-0.022,0.031
15.89,-0.277,-0.031,0.121
15.9,-0.196,0.117,0.121
15.91,-0.206,0.1,0.044
15.92,-0.089,-0.221,0.009
15.93,-0.174,-0.208,0.059
15.94,-0.264,-0.136,0.125
15.95,-0.293,-0.033,0.108
15.96,-0.311,0.193,-0.028
15.97,-0.224,0.367,-0.126
15.98,-0.225,0.141,-0.071
15.99,-0.304,0.047,-0.023
16.0,-0.247,-0.055,-0.01
16.01,-0.226,-0.253,0.076
16.02,-0.216,-0.08,0.037
16.03,-0.123,0.04,0.119
16.04,-0.102,0.025,0.128
16.05,-0.157,0.215,0.049
16.06,-0.273,-0.031,-0.861
16.07,-0.359,-0.071,-0.064
16.08,-0.383,0.016,-0.026
16.09,-0.275,0.146,0.024
16.1,-0.282,0.146,-0.008
16.11,-0.37,0.122,-0.018
16.12,-0.198,0.025,0.027
16.13,-0.127,0.004,0.066
16.14,-0.129,-0.174,0.096
16.15,-0.077,-0.227,0.073
16.16,-0.114,-0.005,0.102
16.17,-0.244,0.05,0.147
16.18,-0.353,0.193,0.068
16.19,-0.305,0.117,-0.076
16.2,-0.33,-0.075,-0.099
16.21,-0.366,-0.061,-0.049
16.22,-0.348,0.093,0.023
16.23,-0.353,0.08,0.11
16.24,-0.196,0.312,-0.035
16.25,-0.042,0.173,-0.092
16.26,0.017,-0.208,-0.07
16.27,0.018,-0.295,0.005
16.28,-0.206,-0.292,0.245
16.29,-0.317,-0.145,0.349
16.3,-0.308,0.218,0.167
16.31,-0.416,0.208,-0.022
16.32,-0.256,0.175,-0.229
16.33,-0.409,0.007,-0.139
16.34,-0.37,-0.115,-0.058
16.35,-0.232,0.011,0.004
16.36,-0.237,0.11,0.059
16.37,-0.04,0.081,-0.003
16.38,-0.018,0.177,0.012
16.39,-0.081,-0.014,0.126
16.4,-0.412,0.083,-0.023
16.41,-0.226,0.097,-0.026
16.42,-0.157,0.204,-0.057
16.43,-0.187,0.254,-0.044
16.44,-0.092,0.076,-0.007
16.45,-0.001,-0.029,-0.013
16.46,-0.129,-0.133,0.074
16.47,-0.214,-0.199,0.171
16.48,-0.29,0.001,0.135
16.49,-0.38,0.048,0.137
16.5,-0.35,0.005,-0.006
16.51,-0.297,0.031,-0.157
16.52,-0.309,-0.175,-0.067
16.53,-0.228,0.035,0.018
16.54,-0.23,0.296,0.067
16.55,-0.259,0.228,0.061
16.56,-0.138,0.266,-0.119
16.57,-0.012,0.059,-0.168
16.58,-0.154,-0.311,0.018
16.59,-0.239,-0.255,0.156
16.6,-0.34,-0.255,0.31
16.61,-0.342,-0.024,0.237
16.62,-0.228,0.178,0.029
16.63,-0.25,0.11,-0.099
16.64,-0.194,0.049,-0.135
16.65,-0.296,-0.002,-0.1
16.66,-0.343,0.01,0.013
16.67,-0.272,0.032,-0.028
16.68,-0.235,0.268,-0.038
16.69,-0.124,0.151,0.032
16.7,-0.133,0.076,0.02
16.71,-0.219,-0.077,0.081
16.72,-0.254,-0.333,0.077
16.73,-0.291,-0.166,0.118
16.74,-0.203,-0.067,0.066
16.75,-0.218,0.075,0.014
16.76,-0.238,0.239,-0.043
16.77,-0.271,0.139,-0.06
16.78,-0.335,0.042,-0.047
16.79,-0.252,0.026,-0.089
16.8,-0.268,-0.017,0.021
16.81,-0.193,0.118,0.037
16.82,-0.172,0.208,0.047
16.83,-0.128,-0.042,0.081
16.84,-0.096,-0.053,-0.031
16.85,-0.229,-0.251,0.039
16.86,-0.264,-0.323,0.141
16.87,-0.227,-0.035,0.071
16.88,-0.402,0.156,0.096
16.89,-0.337,0.122,-0.021
16.9,-0.209,0.355,-0.1
16.91,-0.25,0.04,-0.063
16.92,-0.223,-0.098,-0.039
16.93,-0.215,0.031,0.004
16.94,-0.133,-0.163,0.007
16.95,-0.199,0.034,0.041
16.96,-0.21,0.086,0.086
16.97,-0.197,-0.054,0.116
16.98,-0.243,-0.065,0.02
16.99,-0.278,-0.06,-0.023
17.0,-0.304,-0.063,-0.011
17.01,-0.376,0.12,0.04
17.02,-0.263,0.262,-0.029
17.03,-0.2,0.183,-0.092
17.04,-0.281,0.179,-0.053
17.05,-0.216,0.03,-0.001
17.06,-0.164,-0.11,-0.0
17.07,-0.187,-0.155,0.051
17.08,-0.19,-0.198,0.095
17.09,-0.107,-0.022,0.095
17.1,-0.0,-0.0,-0.855
17.11,-0.403,-0.034,-0.012
17.12,-0.36,0.071,0.014
17.13,-0.191,0.248,0.013
17.14,-0.048,0.09,-0.035
17.15,-0.082,0.016,0.063
17.16,-0.081,-0.212,0.079
17.17,-0.203,-0.203,0.119
17.18,-0.248,-0.088,0.108
17.19,-0.26,0.048,0.028
17.2,-0.34,0.205,0.005
17.21,-0.306,0.267,-0.066
17.22,-0.412,-0.001,-0.004
17.23,-0.319,-0.049,-0.054
17.24,-0.253,-0.069,-0.053
17.25,-0.284,-0.088,0.049
17.26,-0.061,0.167,-0.008
17.27,-0.11,0.119,0.029
17.28,-0.078,0.003,0.032
17.29,-0.114,-0.078,0.02
17.3,-0.336,-0.197,0.172
17.31,-0.259,-0.156,0.098
17.32,-0.332,0.088,0.051
17.33,-0.423,0.095,0.006
17.34,-0.251,0.209,-0.107
17.35,-0.301,0.189,-0.086
17.36,-0.247,-0.048,-0.072
17.37,-0.138,-0.092,-0.043
17.38,-0.13,-0.043,0.016
17.39,-0.096,-0.054,0.07
17.4,-0.152,0.084,0.135
17.41,-0.177,0.084,0.128
17.42,-0.274,-0.008,0.057
17.43,-0.354,-0.044,0.005
17.44,-0.389,-0.103,-0.051
17.45,-0.357,0.036,-0.05
17.46,-0.347,0.176,-0.035
17.47,-0.289,0.088,-0.048
17.48,-0.209,0.228,-0.025
17.49,-0.15,0.019,0.008
17.5,-0.112,-0.12,0.041
17.51,-0.082,-0.098,0.015
17.52,-0.15,-0.138,0.089
17.53,-0.212,-0.031,0.135
17.54,-0.272,0.176,0.091
17.55,-0.338,0.123,0.008
17.56,-0.295,-0.09,-0.112
17.57,-0.316,-0.042,-0.125
17.58,-0.368,-0.111,0.041
17.59,-0.347,0.074,0.131
17.6,-0.239,0.31,0.056
17.61,-0.187,0.248,-0.067
17.62,0.008,0.045,-0.207
17.63,-0.05,-0.215,-0.055
17.64,-0.121,-0.396,0.148
17.65,-0.28,-0.089,0.324
17.66,-0.365,0.05,0.317
17.67,-0.26,0.181,0.011
17.68,-0.341,0.181,-0.217
17.69,-0.35,-0.093,-0.174
17.7,-0.341,-0.059,-0.107
17.71,-0.387,-0.036,0.024
17.72,-0.199,0.082,0.031
17.73,-0.117,0.163,-0.028
17.74,-0.086,0.256,0.016
17.75,-0.006,0.034,0.065
17.76,-0.201,-0.112,0.179
17.77,-0.351,-0.225,0.111
17.78,-0.391,-0.33,0.026
17.79,-0.286,0.039,-0.071
17.8,-0.308,0.128,-0.036
17.81,-0.332,0.265,-0.02
17.82,-0.177,0.154,-0.109
17.83,-0.266,-0.043,-0.066
17.84,-0.184,-0.07,-0.024
17.85,-0.166,0.01,0.037
17.86,-0.19,0.095,0.091
17.87,-0.184,0.246,0.016
17.88,-0.186,0.063,0.009
17.89,-0.179,-0.116,-0.01
17.9,-0.224,-0.227,-0.005
17.91,-0.355,-0.296,0.134
17.92,-0.292,-0.105,0.034
17.93,-0.344,0.173,0.006
17.94,-0.272,0.192,-0.02
17.95,-0.144,0.276,-0.086
17.96,-0.237,0.122,-0.028
17.97,-0.194,-0.175,-0.02
17.98,-0.173,-0.058,-0.038
17.99,-0.195,-0.015,0.016
18.0,-0.172,-0.037,0.106
18.01,-0.2,0.187,0.088
18.02,-0.285,0.031,0.073
18.03,-0.371,-0.145,-0.01
18.04,-0.328,-0.098,-0.03
18.05,-0.306,-0.072,-0.012
18.06,-0.289,0.147,-0.017
18.07,-0.191,0.242,-0.055
18.08,-0.199,0.248,-0.084
18.09,-0.241,0.148,-0.075
18.1,-0.179,0.007,0.01
18.11,-0.142,-0.159,0.067
18.12,-0.177,-0.192,0.068
18.13,-0.248,-0.059,0.112
18.14,-0.229,-0.057,0.07
18.15,-0.247,0.159,0.043
18.16,-0.234,-0.017,-0.021
18.17,-0.205,-0.051,-0.105
18.18,-0.315,0.004,-0.062
18.19,-0.312,-0.003,0.058
18.2,-0.253,0.332,0.039
18.21,-0.326,0.323,-0.005
18.22,-0.204,0.142,-0.1
18.23,-0.071,-0.075,-0.19
18.24,-0.172,-0.356,-0.019
18.25,-0.0,-0.0,-0.858
18.26,-0.221,0.281,-0.058
18.27,-0.42,0.148,0.007
18.28,-0.301,-0.069,-0.031
18.29,-0.283,-0.001,-0.091
18.3,-0.318,-0.04,-0.006
18.31,-0.124,0.062,0.03
18.32,-0.065,0.238,0.019
18.33,-0.057,-0.05,0.047
18.34,-0.135,-0.248,0.053
18.35,-0.217,-0.258,0.183
18.36,-0.252,-0.16,0.197
18.37,-0.416,0.03,0.106
18.38,-0.392,0.204,-0.076
18.39,-0.264,0.244,-0.16
18.4,-0.278,0.202,-0.14
18.41,-0.304,0.073,-0.063
18.42,-0.253,-0.202,0.015
18.43,-0.067,-0.04,-0.052
18.44,-0.02,-0.048,0.071
18.45,-0.155,0.0,0.183
18.46,-0.133,0.144,0.142
18.47,-0.263,-0.003,0.125
18.48,-0.306,-0.041,-0.021
18.49,-0.397,-0.038,-0.09
18.5,-0.412,0.039,-0.055
18.51,-0.292,0.182,-0.063
18.52,-0.291,0.211,-0.04
18.53,-0.27,0.105,-0.053
18.54,-0.223,0.049,-0.042
18.55,-0.124,-0.085,0.047
18.56,-0.034,-0.155,0.055
18.57,-0.107,-0.03,0.107
18.58,-0.156,-0.057,0.126
18.59,-0.23,0.101,0.09
18.6,-0.305,0.101,0.047
18.61,-0.279,-0.102,-0.058
18.62,-0.369,-0.115,-0.056
18.63,-0.413,0.002,0.025
18.64,-0.378,0.088,0.044
18.65,-0.361,0.299,-0.014
18.66,-0.214,0.333,-0.116
18.67,-0.034,0.044,-0.16
18.68,0.044,-0.117,-0.135
18.69,-0.019,-0.389,0.058
18.7,-0.201,-0.354,0.286
18.71,-0.23,0.082,0.364
18.72,-0.292,0.175,0.232
18.73,-0.36,0.168,-0.084
18.74,-0.295,0.107,-0.239
18.75,-0.406,-0.163,-0.182
18.76,-0.454,-0.05,-0.044
18.77,-0.368,0.106,-0.028
18.78,-0.142,0.112,0.012
18.79,-0.068,0.214,-0.051
18.8,0.004,0.179,0.003
18.81,-0.086,-0.055,0.147
18.82,-0.192,-0.211,0.146
18.83,-0.357,-0.17,0.158
18.84,-0.278,-0.169,0.025
18.85,-0.335,0.057,-0.023
18.86,-0.339,0.208,-0.046
18.87,-0.317,0.082,-0.055
18.88,-0.365,0.103,-0.034
18.89,-0.256,-0.115,-0.051
18.9,-0.173,0.029,-0.047
18.91,-0.164,0.107,0.001
18.92,-0.135,0.104,0.005
18.93,-0.1,0.153,0.014
18.94,-0.153,-0.068,0.063
18.95,-0.244,-0.195,0.122
18.96,-0.27,-0.187,0.113
18.97,-0.269,-0.103,0.068
18.98,-0.401,-0.0,-0.875
18.99,-0.358,0.208,-0.066
19.0,-0.255,0.16,-0.076
19.01,-0.201,0.095,-0.096
19.02,-0.207,0.057,-0.072
19.03,-0.0,-0.0,-0.848
19.04,-0.327,0.04,0.077
19.05,-0.258,0.059,-0.044
19.06,-0.223,-0.224,-0.039
19.07,-0.343,-0.107,0.013
19.08,-0.336,0.127,0.068
19.09,-0.31,0.238,0.112
19.1,-0.283,0.409,-0.048
19.11,-0.144,0.25,-0.856
19.12,0.005,-0.198,-0.136
19.13,-0.103,-0.279,0.009
19.14,-0.228,-0.37,0.309
19.15,-0.286,-0.135,0.381
19.16,-0.251,0.206,0.136
19.17,-0.352,0.151,-0.044
19.18,-0.185,0.119,-0.143
19.19,-0.311,0.005,-0.125
19.2,-0.415,-0.157,0.018
19.21,-0.259,-0.062,0.007
19.22,-0.239,0.223,-0.026
19.23,-0.138,0.158,0.028
19.24,-0.065,0.32,0.068
19.25,-0.21,0.044,0.095
19.26,-0.305,-0.303,0.096
19.27,-0.305,-0.289,0.089
19.28,-0.29,-0.184,0.062
19.29,-0.244,-0.048,0.011
19.3,-0.248,0.174,-0.007
19.31,-0.151,0.272,-0.003
19.32,-0.228,0.16,-0.008
19.33,-0.321,0.125,-0.025
19.34,-0.22,-0.086,-0.038
19.35,-0.262,0.061,0.002
19.36,-0.262,0.132,0.041
19.37,-0.185,0.059,0.011
19.38,-0.175,-0.011,0.011
19.39,-0.198,-0.184,0.051
19.4,-0.0,-0.0,-0.841
19.41,-0.244,0.146,-0.04
19.42,-0.283,0.138,-0.034
19.43,-0.232,-0.008,0.0
19.44,-0.13,-0.037,0.05
19.45,-0.155,-0.062,0.067
19.46,-0.138,-0.119,0.096
19.47,-0.132,0.008,0.096
19.48,-0.239,0.01,0.11
19.49,-0.285,0.07,0.029
19.5,-0.227,-0.06,-0.043
19.51,-0.302,-0.114,-0.023
19.52,-0.337,0.081,0.01
19.53,-0.342,0.265,0.067
19.54,-0.341,0.247,0.048
19.55,-0.191,0.231,-0.117
19.56,-0.096,-0.03,-0.126
19.57,-0.108,-0.382,-0.019
19.58,-0.15,-0.318,0.172
19.59,-0.228,-0.238,0.35
19.6,-0.217,0.041,0.261
19.61,-0.202,0.278,0.017
19.62,-0.259,0.174,-0.098
19.63,-0.275,0.113,-0.179
19.64,-0.383,0.025,-0.086
19.65,-0.411,-0.106,-0.003
19.66,-0.327,0.083,-0.026
19.67,-0.219,0.138,0.033
19.68,-0.113,0.125,0.035
19.69,-0.059,0.098,0.083
19.7,-0.137,-0.171,0.168
19.71,-0.184,-0.205,0.093
19.72,-0.244,-0.135,0.057
19.73,-0.193,-0.1,0.035
19.74,-0.309,0.225,0.025
19.75,-0.369,0.26,0.025
19.76,-0.37,0.064,0.04
19.77,-0.365,0.06,-0.093
19.78,-0.271,-0.092,-0.119
19.79,-0.25,-0.131,-0.014
19.8,-0.106,0.141,0.007
19.81,-0.078,0.152,0.072
19.82,-0.087,-0.023,0.083
19.83,-0.083,-0.014,0.07
19.84,-0.194,-0.222,0.151
19.85,-0.332,-0.156,-0.861
19.86,-0.346,0.055,0.067
19.87,-0.447,0.042,-0.015
19.88,-0.374,0.177,-0.119
19.89,-0.291,0.215,-0.13
19.9,-0.281,-0.031,-0.851
19.91,-0.082,-0.081,-0.048
19.92,-0.134,-0.051,0.057
19.93,-0.062,-0.026,0.108
19.94,-0.069,0.062,0.156
19.95,-0.179,0.103,0.164
19.96,-0.211,0.052,0.077
19.97,-0.359,-0.031,0.046
19.98,-0.399,-0.088,-0.015
19.99,-0.392,-0.01,-0.063
20.0,-0.431,0.073,-0.004
20.01,-0.306,0.106,-0.043
20.02,-0.152,0.178,-0.03
20.03,-0.154,0.152,0.021
20.04,-0.156,0.014,0.075
20.05,-0.032,-0.02,0.039
20.06,-0.073,-0.125,0.078
20.07,-0.183,-0.162,0.128
20.08,-0.229,0.055,0.129
20.09,-0.403,0.008,0.127
20.1,-0.373,0.034,0.014
20.11,-0.32,0.018,-0.099
20.12,-0.396,-0.128,-0.02
20.13,-0.357,0.035,0.033
20.14,-0.219,0.199,0.036
20.15,-0.204,0.253,0.015
20.16,-0.124,0.209,-0.121
20.17,-0.0,-0.021,-0.13
20.18,-0.033,-0.309,0.027
20.19,-0.139,-0.235,0.228
20.2,-0.308,-0.114,0.385
20.21,-0.356,0.056,0.224
20.22,-0.324,0.176,-0.048
20.23,-0.306,0.161,-0.139
20.24,-0.312,-0.091,-0.165
20.25,-0.347,-0.047,-0.069
20.26,-0.318,-0.07,-0.01
20.27,-0.135,0.141,0.02
20.28,-0.171,0.287,0.044
20.29,-0.076,0.128,0.067
20.3,-0.08,0.162,0.076
20.31,-0.214,-0.173,0.129
20.32,-0.333,-0.338,0.08
20.33,-0.31,-0.138,0.019
20.34,-0.316,-0.064,0.049
20.35,-0.0,-0.0,-0.843
20.36,-0.154,-0.071,-0.0
20.37,-0.163,-0.067,0.104
20.38,-0.156,-0.029,0.094
20.39,-0.223,0.12,0.081
20.4,-0.281,-0.042,0.141
20.41,-0.316,-0.062,0.051
20.42,-0.381,-0.163,-0.012
20.43,-0.291,-0.12,-0.016
20.44,-0.277,0.18,0.0
20.45,-0.256,0.207,0.0
20.46,-0.0,-0.0,-0.839
20.47,-0.186,-0.199,0.179
20.48,-0.256,-0.181,0.364
20.49,-0.177,0.139,0.196
20.5,-0.213,0.202,-0.045
20.51,-0.294,0.163,-0.111
20.52,-0.272,-0.015,-0.086
20.53,-0.39,-0.04,0.007
20.54,-0.387,-0.025,0.041
20.55,-0.304,-0.027,0.025
20.56,-0.161,0.301,-0.036
20.57,-0.118,0.12,0.036
20.58,-0.198,0.043,0.068
20.59,-0.121,-0.188,0.036
20.6,-0.187,-0.298,0.071
20.61,-0.22,-0.098,0.052
20.62,-0.253,0.052,0.075
20.63,-0.317,0.182,0.071
20.64,-0.235,0.327,-0.015
20.65,-0.357,0.078,0.004
20.66,-0.374,0.003,-0.066
20.67,-0.238,-0.142,-0.102
20.68,-0.261,-0.037,0.005
20.69,-0.0,-0.0,-0.839
20.7,-0.281,0.023,-0.05
20.71,-0.375,-0.063,-0.019
20.72,-0.399,0.004,0.016
20.73,-0.281,0.153,-0.011
20.74,-0.33,0.084,0.003
20.75,-0.295,0.134,-0.033
20.76,-0.179,0.061,0.026
20.77,-0.072,-0.102,0.06
20.78,-0.105,-0.047,0.057
20.79,-0.119,-0.133,0.103
20.8,-0.052,-0.027,0.102
20.81,-0.269,0.206,0.115
20.82,-0.431,0.046,0.116
20.83,-0.277,0.008,-0.066
20.84,-0.32,-0.025,-0.086
20.85,-0.404,-0.17,0.001
20.86,-0.355,0.056,0.067
20.87,-0.3,0.216,0.082
20.88,-0.111,0.217,0.008
20.89,-0.066,0.188,-0.116
20.9,-0.044,-0.124,-0.095
20.91,-0.089,-0.424,0.063
20.92,-0.195,-0.246,0.235
20.93,-0.285,0.017,0.292
20.94,-0.338,0.151,0.143
20.95,-0.367,0.332,-0.053
20.96,-0.322,0.115,-0.173
20.97,-0.349,-0.149,-0.114
20.98,-0.336,-0.091,-0.049
20.99,-0.246,-0.065,0.05
21.0,-0.151,0.099,0.058
21.01,-0.074,0.294,0.005
21.02,-0.104,0.11,0.077
21.03,-0.075,0.023,0.041
21.04,-0.208,-0.192,0.097
21.05,-0.367,-0.326,0.116
21.06,-0.354,0.005,0.028
21.07,-0.409,0.036,0.058
21.08,-0.302,0.243,-0.041
21.09,-0.252,0.27,-0.072
21.1,-0.309,-0.038,-0.005
21.11,-0.129,-0.147,-0.043
21.12,-0.156,0.013,0.032
21.13,-0.178,-0.123,0.123
21.14,-0.154,0.208,0.051
21.15,-0.21,0.182,0.016
21.16,-0.14,-0.105,0.005
21.17,-0.269,0.041,0.033
21.18,-0.386,-0.169,0.096
21.19,-0.349,-0.25,-0.859
21.2,-0.331,0.051,-0.004
21.21,-0.203,0.125,-0.011
21.22,-0.174,0.143,-0.013
21.23,-0.203,0.159,-0.002
21.24,-0.105,-0.014,0.019
21.25,-0.183,-0.012,0.045
21.26,-0.218,-0.013,-0.01
21.27,-0.159,-0.044,0.065
21.28,-0.168,0.12,0.093
21.29,-0.247,0.089,0.096
21.3,-0.427,-0.144,0.025
21.31,-0.38,-0.112,-0.018
21.32,-0.304,-0.038,-0.009
21.33,-0.242,0.079,0.026
21.34,-0.22,0.198,-0.01
21.35,-0.226,0.21,0.001
21.36,-0.0,-0.0,-0.838
21.37,-0.369,-0.062,0.325
21.38,-0.263,0.11,0.119
21.39,-0.22,0.213,-0.089
21.4,-0.21,0.182,-0.153
21.41,-0.319,-0.109,-0.065
21.42,-0.325,-0.073,-0.009
21.43,-0.258,0.144,-0.007
21.44,-0.234,0.118,0.089
21.45,-0.139,0.233,-0.007
21.46,-0.057,0.13,0.012
21.47,-0.182,-0.138,0.137
21.48,-0.282,-0.223,0.143
21.49,-0.353,-0.271,0.106
21.5,-0.232,-0.172,0.03
21.51,-0.252,0.082,0.022
21.52,-0.282,0.264,0.03
21.53,-0.0,-0.0,-0.836
21.54,-0.176,0.041,0.055
21.55,-0.197,-0.021,0.115
21.56,-0.135,-0.045,0.158
21.57,-0.197,0.03,0.122
21.58,-0.271,-0.125,-0.848
21.59,-0.344,-0.106,0.068
21.6,-0.327,0.08,-0.021
21.61,-0.312,0.122,-0.004
21.62,-0.269,0.215,-0.047
21.63,-0.237,0.234,-0.071
21.64,-0.237,0.057,-0.047
21.65,-0.177,0.03,-0.01
21.66,-0.179,-0.082,0.061
21.67,-0.146,-0.229,0.142
21.68,-0.212,-0.047,0.152
21.69,-0.0,-0.0,-0.826
21.7,-0.427,-0.135,-0.083
21.71,-0.432,0.029,-0.033
21.72,-0.359,0.169,0.059
21.73,-0.183,0.133,0.038
21.74,-0.008,0.149,0.025
21.75,-0.027,-0.02,0.101
21.76,-0.071,-0.23,0.165
21.77,-0.203,-0.166,0.201
21.78,-0.221,-0.181,0.148
21.79,-0.272,0.056,-0.004
21.8,-0.402,0.22,0.019
21.81,-0.406,0.109,-0.007
21.82,-0.438,0.153,-0.105
21.83,-0.352,-0.04,-0.029
21.84,-0.204,-0.074,-0.032
21.85,-0.168,0.142,0.024
21.86,-0.077,0.021,0.102
21.87,-0.002,0.128,0.087
21.88,-0.05,0.081,0.1
21.89,-0.139,-0.233,0.12
21.9,-0.307,-0.154,0.184
21.91,-0.339,-0.07,0.113
21.92,-0.413,-0.131,0.07
21.93,-0.454,0.061,-0.058
21.94,-0.305,0.251,-0.134
21.95,-0.29,0.083,-0.064
21.96,-0.198,0.117,-0.018
21.97,-0.131,-0.024,0.029
21.98,-0.07,-0.041,0.035
21.99,-0.037,-0.003,0.078
22.0,-0.131,0.043,0.138
22.01,-0.198,0.068,0.15
22.02,-0.312,0.03,0.128
22.03,-0.4,-0.082,0.052
22.04,-0.397,-0.106,-0.069
22.05,-0.426,-0.031,-0.011
22.06,-0.291,0.095,-0.036
22.07,-0.209,0.193,-0.02
22.08,-0.269,0.176,0.015
22.09,-0.091,0.094,-0.848
22.1,-0.06,0.051,-0.002
22.11,-0.123,-0.111,0.074
22.12,-0.14,-0.113,0.098
22.13,-0.192,0.003,0.19
22.14,-0.275,0.062,0.158
22.15,-0.336,0.02,0.034
22.16,-0.327,-0.017,-0.052
22.17,-0.299,-0.304,-0.031
22.18,-0.314,0.069,0.051
22.19,-0.299,0.094,-0.845
22.2,-0.305,0.247,0.07
22.21,-0.183,0.425,-0.077
22.22,-0.066,0.139,-0.14
22.23,-0.102,-0.205,-0.032
22.24,-0.08,-0.354,0.091
22.25,-0.219,-0.229,0.237
22.26,-0.31,-0.151,0.37
22.27,-0.302,0.25,-0.842
22.28,-0.324,0.147,-0.008
22.29,-0.276,0.062,-0.152
22.3,-0.274,-0.066,-0.098
22.31,-0.373,-0.125,-0.016
22.32,-0.277,0.083,-0.006
22.33,-0.233,0.175,0.09
22.34,-0.073,0.239,0.009
22.35,-0.087,0.256,0.021
22.36,-0.158,-0.086,0.169
22.37,-0.225,-0.22,0.151
22.38,-0.39,-0.239,0.155
22.39,-0.33,-0.229,0.12
22.4,-0.29,0.014,0.014
22.41,-0.262,0.261,-0.027
22.42,-0.239,0.087,-0.033
22.43,-0.266,0.107,-0.004
22.44,-0.2,0.108,-0.052
22.45,-0.252,-0.062,0.072
22.46,-0.169,0.149,0.048
22.47,-0.205,0.148,0.023
22.48,-0.275,0.048,0.073
22.49,-0.111,0.013,0.004
22.5,-0.285,-0.271,0.128
22.51,-0.334,-0.329,0.124
22.52,-0.173,-0.044,0.067
22.53,-0.241,0.053,0.089
22.54,-0.245,0.339,-0.017
22.55,-0.242,0.281,-0.024
22.56,-0.229,0.084,-0.091
22.57,-0.231,0.048,-0.054
22.58,-0.245,-0.103,0.041
22.59,-0.174,-0.079,0.07
22.6,-0.258,0.053,0.096
22.61,-0.195,-0.038,0.137
22.62,-0.212,0.042,0.102
22.63,-0.236,-0.078,0.085
22.64,-0.25,-0.123,0.002
22.65,-0.309,0.005,-0.021
22.66,-0.314,0.12,0.01
22.67,-0.228,0.206,-0.014
22.68,-0.313,0.223,-0.006
22.69,-0.258,0.078,0.023
22.7,-0.199,0.007,0.02
22.71,-0.167,-0.097,0.026
22.72,-0.205,-0.164,0.122
22.73,-0.219,-0.054,0.124
22.74,-0.116,-0.003,0.102
22.75,-0.198,0.007,0.051
22.76,-0.271,0.05,-0.041
22.77,-0.242,0.0,-0.07
22.78,-0.34,-0.125,0.026
22.79,-0.338,0.144,0.065
22.8,-0.307,0.237,0.08
22.81,-0.305,0.183,0.043
22.82,-0.168,0.313,-0.105
22.83,-0.109,-0.052,-0.13
22.84,-0.109,-0.316,-0.022
22.85,-0.125,-0.328,0.144
22.86,-0.255,-0.209,0.339
22.87,-0.222,0.066,0.25
22.88,-0.28,0.231,0.044
22.89,-0.298,0.177,-0.098
22.9,-0.232,0.103,-0.187
22.91,-0.413,-0.092,-0.081
22.92,-0.313,0.034,-0.007
22.93,-0.234,0.049,0.014
22.94,-0.306,0.204,0.076
22.95,-0.095,0.13,0.03
22.96,-0.143,0.046,0.11
22.97,-0.219,-0.217,0.135
22.98,-0.21,-0.341,0.087
22.99,-0.314,-0.11,0.057
23.0,-0.196,-0.081,0.01
23.01,-0.25,0.215,-0.004
23.02,-0.269,0.353,-0.031
23.03,-0.29,0.09,0.006
23.04,-0.345,0.066,0.005
23.05,-0.275,-0.055,-0.075
23.06,-0.268,-0.187,0.012
23.07,-0.226,0.142,0.034
23.08,-0.118,0.124,0.044
23.09,-0.067,0.031,0.017
23.1,-0.039,0.001,-0.047
23.11,-0.204,-0.274,0.112
23.12,-0.27,-0.107,0.177
23.13,-0.299,0.032,0.121
23.14,-0.391,0.053,0.055
23.15,-0.324,0.248,-0.108
23.16,-0.313,0.157,-0.137
23.17,-0.309,-0.052,-0.057
23.18,-0.217,-0.031,-0.042
23.19,-0.126,-0.124,0.021
23.2,-0.054,-0.126,0.023
23.21,-0.077,0.2,0.12
23.22,-0.154,0.096,0.201
23.23,-0.222,0.108,0.119
23.24,-0.365,-0.051,0.006
23.25,-0.365,-0.171,-0.06
23.26,-0.422,0.015,-0.068
23.27,-0.406,0.119,-0.032
23.28,-0.268,0.155,-0.046
23.29,-0.217,0.192,-0.066
23.3,-0.157,0.082,0.005
23.31,-0.068,-0.11,0.03
23.32,-0.092,-0.084,0.068
23.33,-0.153,-0.116,0.094
23.34,-0.173,-0.052,0.144
23.35,-0.23,0.201,0.104
23.36,-0.381,0.066,0.074
23.37,-0.318,0.052,-0.069
23.38,-0.208,-0.077,-0.159
23.39,-0.355,-0.218,-0.061
23.4,-0.331,0.038,0.023
23.41,-0.296,0.251,0.06
23.42,-0.243,0.306,0.051
23.43,-0.12,0.324,-0.116
23.44,-0.064,-0.052,-0.094
23.45,-0.082,-0.405,-0.0
23.46,-0.2,-0.448,0.171
23.47,-0.31,-0.183,0.369
23.48,-0.221,0.134,0.25
23.49,-0.296,0.314,-0.012
23.5,-0.327,0.223,-0.194
23.51,-0.269,-0.035,-0.211
23.52,-0.42,-0.078,-0.081
23.53,-0.291,-0.176,-0.009
23.54,-0.25,0.021,-0.028
23.55,-0.184,0.203,0.035
23.56,-0.04,0.25,0.064
23.57,-0.1,0.219,0.115
23.58,-0.137,-0.111,0.109
23.59,-0.213,-0.362,0.062
23.6,-0.331,-0.163,0.047
23.61,-0.35,-0.119,0.011
23.62,-0.362,0.12,-0.002
23.63,-0.285,0.327,-0.066
23.64,-0.295,0.136,-0.038
23.65,-0.257,0.03,-0.069
23.66,-0.199,-0.035,-0.102
23.67,-0.18,-0.184,0.015
23.68,-0.086,0.179,0.032
23.69,-0.12,0.19,0.123
23.7,-0.124,0.1,0.045
23.71,-0.175,-0.01,-0.003
23.72,-0.347,-0.332,0.094
23.73,-0.395,-0.298,0.146
23.74,-0.406,-0.1,0.088
23.75,-0.409,0.012,0.0
23.76,-0.211,0.266,-0.132
23.77,-0.167,0.354,-0.128
23.78,-0.159,0.061,-0.045
23.79,-0.044,0.004,-0.061
23.8,-0.118,-0.079,-0.023
23.81,-0.203,-0.159,0.089
23.82,-0.181,0.096,0.129
23.83,-0.276,0.139,0.129
23.84,-0.386,-0.005,0.076
23.85,-0.361,-0.036,-0.075
23.86,-0.37,-0.155,-0.053
23.87,-0.267,-0.064,-0.058
23.88,-0.213,0.185,-0.024
23.89,-0.161,0.172,-0.044
23.9,-0.087,0.257,-0.094
23.91,-0.2,0.168,-0.02
23.92,-0.177,-0.022,0.061
23.93,-0.235,-0.106,0.068
23.94,-0.272,-0.195,0.095
23.95,-0.241,-0.152,0.06
23.96,-0.263,0.003,0.03
23.97,-0.304,0.023,0.06
23.98,-0.169,0.057,-0.006
23.99,-0.154,0.021,-0.029
24.0,-0.253,-0.064,-0.029
24.01,-0.277,0.046,-0.012
24.02,-0.303,0.251,-0.006
24.03,-0.332,0.25,-0.872
24.04,-0.22,0.254,-0.093
24.05,-0.178,-0.043,-0.129
24.06,-0.153,-0.386,-0.04
24.07,-0.14,-0.3,0.161
24.08,-0.24,-0.204,0.383
24.09,-0.144,0.053,0.225
24.1,-0.175,0.23,-0.037
24.11,-0.278,0.216,-0.142
24.12,-0.26,0.108,-0.201
24.13,-0.419,-0.042,-0.044
24.14,-0.387,-0.027,-0.013
24.15,-0.275,0.005,0.029
24.16,-0.229,0.183,0.042
24.17,-0.057,0.217,-0.034
24.18,-0.11,0.026,0.052
24.19,-0.205,-0.086,0.08
24.2,-0.216,-0.334,0.094
24.21,-0.233,-0.253,0.059
24.22,-0.239,0.011,0.04
24.23,-0.268,0.063,0.028
24.24,-0.313,0.328,0.028
24.25,-0.338,0.174,0.021
24.26,-0.31,0.084,-0.06
24.27,-0.297,-0.044,-0.111
24.28,-0.239,-0.163,-0.073
24.29,-0.208,0.083,0.032
24.3,-0.187,0.186,0.08
24.31,-0.109,0.001,0.039
24.32,-0.084,-0.102,-0.036
24.33,-0.166,-0.23,0.091
24.34,-0.221,-0.195,0.167
24.35,-0.291,0.101,0.125
24.36,-0.388,0.124,0.032
24.37,-0.298,0.251,-0.141
24.38,-0.25,0.288,-0.162
24.39,-0.305,-0.014,-0.031
24.4,-0.286,-0.107,-0.034
24.41,-0.232,-0.174,0.022
24.42,-0.143,-0.199,0.079
24.43,-0.106,0.076,0.108
24.44,-0.131,0.094,0.141
24.45,-0.19,0.158,0.074
24.46,-0.221,-0.017,-0.026
24.47,-0.377,-0.066,-0.038
24.48,-0.354,-0.031,-0.872
24.49,-0.309,0.154,-0.045
24.5,-0.298,0.136,0.008
24.51,-0.351,0.106,-0.029
24.52,-0.291,0.166,0.023
24.53,-0.142,-0.172,0.03
24.54,-0.122,-0.104,0.052
24.55,-0.116,-0.125,0.044
24.56,-0.044,-0.067,0.049
24.57,-0.19,0.186,0.064
24.58,-0.303,0.162,0.05
24.59,-0.247,0.022,-0.021
24.6,-0.282,-0.041,-0.055
24.61,-0.399,-0.119,0.02
24.62,-0.371,0.014,0.034
24.63,-0.385,0.193,0.069
24.64,-0.274,0.28,-0.023
24.65,-0.021,0.136,-0.127
24.66,-0.04,-0.032,-0.134
24.67,-0.019,-0.417,0.002
24.68,-0.115,-0.233,0.168
24.69,-0.302,-0.04,0.357
24.7,-0.294,0.129,0.205
24.71,-0.331,0.281,-0.047
24.72,-0.309,0.085,-0.174
24.73,-0.32,-0.049,-0.166
24.74,-0.404,-0.146,-0.022
24.75,-0.317,-0.011,0.028
24.76,-0.174,0.012,0.039
24.77,-0.128,0.229,-0.01
24.78,-0.112,0.151,0.037
24.79,-0.091,0.018,0.081
24.8,-0.212,-0.156,-0.868
24.81,-0.343,-0.297,0.108
24.82,-0.257,-0.126,-0.006
24.83,-0.307,0.052,0.015
24.84,-0.293,0.208,0.041
24.85,-0.269,0.299,-0.004
24.86,-0.331,0.128,-0.047
24.87,-0.239,-0.099,-0.141
24.88,-0.157,-0.04,-0.071
24.89,-0.221,-0.078,0.047
24.9,-0.176,0.095,0.112
24.91,-0.151,0.177,0.085
24.92,-0.0,-0.0,-0.845
24.93,-0.348,-0.004,0.038
24.94,-0.204,0.168,-0.037
24.95,-0.194,0.109,-0.024
24.96,-0.162,0.178,0.029
24.97,-0.11,0.134,0.046
24.98,-0.097,-0.092,0.063
24.99,-0.158,-0.139,0.071
25.0,-0.215,-0.047,0.097
25.01,-0.248,-0.082,0.095
25.02,-0.378,0.119,0.03
25.03,-0.348,-0.0,-0.856
25.04,-0.257,-0.077,-0.084
25.05,-0.26,0.008,-0.002
25.06,-0.294,0.02,0.096
25.07,-0.223,0.227,0.089
25.08,-0.211,0.276,0.003
25.09,-0.097,0.12,-0.061
25.1,-0.085,-0.025,-0.107
25.11,-0.185,-0.281,0.053
25.12,-0.27,-0.307,0.198
25.13,-0.362,-0.128,0.249
25.14,-0.27,0.048,0.176
25.15,-0.272,0.181,-0.015
25.16,-0.234,0.198,-0.112
25.17,-0.178,0.018,-0.123
25.18,-0.281,-0.083,-0.069
25.19,-0.232,0.071,-0.007
25.2,-0.232,0.032,0.093
25.21,-0.21,0.204,0.059
25.22,-0.182,0.248,0.02
25.23,-0.244,-0.089,0.107
25.24,-0.258,-0.144,0.058
25.25,-0.322,-0.256,0.066
25.26,-0.268,-0.256,0.071
25.27,-0.227,-0.012,0.012
25.28,-0.205,0.188,0.023
25.29,-0.166,0.252,-0.022
25.3,-0.265,0.221,-0.004
25.31,-0.264,0.049,-0.039
25.32,-0.205,-0.04,-0.068
25.33,-0.339,-0.039,0.052
25.34,-0.24,0.031,0.118
25.35,-0.206,0.099,0.093
25.36,-0.216,-0.025,0.01
25.37,-0.142,-0.186,0.013
25.38,-0.213,-0.202,0.072
25.39,-0.206,-0.122,0.105
25.4,-0.25,-0.006,0.059
25.41,-0.301,0.261,-0.013
25.42,-0.258,0.238,-0.05
25.43,-0.226,0.087,-0.094
25.44,-0.195,0.115,-0.069
25.45,-0.272,-0.091,0.051
25.46,-0.236,-0.107,0.092
25.47,-0.246,0.029,0.025
25.48,-0.224,-0.07,0.103
25.49,-0.144,0.017,0.068
25.5,-0.198,-0.007,0.077
25.51,-0.232,-0.1,0.012
25.52,-0.286,0.008,-0.023
25.53,-0.404,0.059,0.012
25.54,-0.193,0.233,-0.072
25.55,-0.269,0.187,-0.028
25.56,-0.284,0.116,0.007
25.57,-0.207,0.057,-0.005
25.58,-0.209,-0.083,0.041
25.59,-0.156,-0.232,0.059
25.6,-0.209,-0.108,0.087
25.61,-0.112,-0.105,0.116
25.62,-0.206,0.029,0.129
25.63,-0.34,0.136,0.045
25.64,-0.226,-0.025,-0.075
25.65,-0.323,-0.031,-0.864
25.66,-0.369,0.115,-0.032
25.67,-0.283,0.176,0.049
25.68,-0.314,0.214,0.034
25.69,-0.238,0.255,-0.114
25.7,-0.111,-0.125,-0.855
25.71,-0.032,-0.222,-0.03
25.72,-0.04,-0.337,0.117
25.73,-0.25,-0.275,0.304
25.74,-0.0,-0.0,-0.835
25.75,-0.367,0.06,-0.086
25.76,-0.261,-0.162,-0.086
25.77,-0.244,-0.002,-0.033
25.78,-0.129,0.072,0.092
25.79,-0.068,0.03,0.118
25.8,-0.052,0.123,0.126
25.81,-0.067,-0.11,0.092
25.82,-0.232,-0.187,0.149
25.83,-0.267,-0.043,0.127
25.84,-0.359,-0.115,0.066
25.85,-0.478,0.118,-0.003
25.86,-0.351,0.276,-0.15
25.87,-0.317,0.045,-0.096
25.88,-0.236,0.079,-0.047
25.89,-0.18,-0.058,0.045
25.9,-0.106,-0.167,0.068
25.91,-0.012,0.023,0.037
25.92,-0.059,0.094,-0.846
25.93,-0.154,0.111,0.198
25.94,-0.283,0.108,0.109
25.95,-0.356,-0.13,0.041
25.96,-0.411,-0.119,-0.045
25.97,-0.444,0.005,-0.033
25.98,-0.367,0.029,-0.006
25.99,-0.295,0.195,-0.014
26.0,-0.252,0.173,-0.01
26.01,-0.162,0.021,0.004
26.02,-0.072,0.052,0.025
26.03,-0.0,-0.0,-0.825
26.04,-0.377,0.008,-0.015
26.05,-0.286,0.168,-0.151
26.06,-0.37,-0.034,-0.089
26.07,-0.294,-0.146,-0.016
26.08,-0.206,0.063,-0.041
26.09,-0.236,0.228,0.106
26.1,-0.126,0.219,-0.83
26.11,-0.071,0.225,0.096
26.12,-0.143,-0.083,0.13
26.13,-0.163,-0.305,0.098
26.14,-0.366,-0.26,0.159
26.15,-0.32,-0.163,0.102
26.16,-0.318,0.066,0.081
26.17,-0.34,0.254,0.014
26.18,-0.224,0.173,-0.046
26.19,-0.324,0.086,-0.071
26.2,-0.198,0.014,-0.051
26.21,-0.15,-0.117,0.026
26.22,-0.229,0.061,0.133
26.23,-0.127,0.138,0.161
26.24,-0.121,0.126,0.101
26.25,-0.167,0.072,0.039
26.26,-0.238,-0.299,0.06
26.27,-0.315,-0.237,0.115
26.28,-0.33,-0.102,0.083
26.29,-0.352,-0.12,0.102
26.3,-0.266,0.272,-0.008
26.31,-0.218,0.241,-0.051
26.32,-0.271,0.143,0.041
26.33,-0.146,-0.013,-0.017
26.34,-0.18,-0.013,0.01
26.35,-0.176,-0.142,0.045
26.36,-0.175,0.054,0.081
26.37,-0.254,0.132,0.154
26.38,-0.206,0.031,0.094
26.39,-0.276,0.006,0.009
26.4,-0.311,-0.198,0.001
26.41,-0.321,-0.097,0.009
26.42,-0.362,0.051,0.08
26.43,-0.208,0.164,0.026
26.44,-0.177,0.268,-0.049
26.45,-0.244,0.196,0.003
26.46,-0.197,0.11,0.056
26.47,-0.16,-0.054,0.044
26.48,-0.161,-0.269,0.045
26.49,-0.176,-0.089,0.066
26.5,-0.246,-0.052,0.114
26.51,-0.316,0.074,0.168
26.52,-0.224,0.136,0.034
26.53,-0.192,0.065,-0.065
26.54,-0.276,-0.186,-0.018
26.55,-0.319,-0.035,0.034
26.56,-0.266,0.15,0.097
26.57,-0.273,0.203,0.111
26.58,-0.244,0.35,-0.048
26.59,-0.122,0.079,-0.112
26.6,-0.192,-0.267,-0.045
26.61,-0.161,-0.36,0.054
26.62,-0.248,-0.28,0.256
26.63,-0.218,-0.032,0.289
26.64,-0.204,0.276,0.108
26.65,-0.247,0.251,-0.008
26.66,-0.187,0.126,-0.141
26.67,-0.309,0.011,-0.15
26.68,-0.374,-0.224,-0.012
26.69,-0.293,0.038,0.012
26.7,-0.3,0.25,-0.848
26.71,-0.195,0.163,0.054
26.72,-0.111,0.224,0.011
26.73,-0.168,-0.168,0.085
26.74,-0.152,-0.336,0.115
26.75,-0.271,-0.201,0.136
26.76,-0.252,-0.153,0.102
26.77,-0.24,0.202,0.026
26.78,-0.257,0.366,-0.033
26.79,-0.312,0.211,0.0
26.8,-0.319,0.041,-0.019
26.81,-0.253,-0.053,-0.033
26.82,-0.249,-0.267,-0.009
26.83,-0.292,0.041,0.057
26.84,-0.214,0.117,0.086
26.85,-0.105,0.143,0.088
26.86,-0.052,0.054,-0.001
26.87,-0.0,-0.0,-0.831
26.88,-0.271,0.083,-0.022
26.89,-0.211,0.227,-0.005
26.9,-0.194,0.043,0.051
26.91,-0.079,-0.05,0.071
26.92,-0.07,-0.104,0.046
26.93,-0.0,-0.0,-0.824
26.94,-0.212,0.055,-0.169
26.95,-0.323,0.022,-0.139
26.96,-0.362,-0.124,-0.001
26.97,-0.264,-0.063,0.07
26.98,-0.175,0.156,0.082
26.99,-0.128,0.197,0.095
27.0,-0.124,0.081,0.116
27.01,-0.114,-0.01,0.136
27.02,-0.19,-0.33,0.134
27.03,-0.375,-0.122,0.095
27.04,-0.294,-0.078,0.056
27.05,-0.354,0.051,0.057
27.06,-0.293,0.378,-0.087
27.07,-0.278,0.155,-0.045
27.08,-0.332,-0.059,-0.009
27.09,-0.181,-0.041,-0.075
27.1,-0.201,-0.128,0.089
27.11,-0.137,0.02,0.155
27.12,-0.151,0.291,0.109
27.13,-0.152,0.063,0.082
27.14,-0.055,0.05,-0.036
27.15,-0.294,-0.12,0.029
27.16,-0.388,-0.342,0.176
27.17,-0.264,-0.088,0.051
27.18,-0.48,0.042,0.062
27.19,-0.323,0.106,-0.008
27.2,-0.153,0.321,-0.062
27.21,-0.207,0.141,0.017
27.22,-0.108,-0.091,-0.005
27.23,-0.125,-0.071,0.025
27.24,-0.108,-0.066,0.056
27.25,-0.155,0.006,0.133
27.26,-0.255,0.263,0.2
27.27,-0.311,0.0,0.135
27.28,-0.422,-0.016,0.003
27.29,-0.381,-0.212,-0.064
27.3,-0.394,-0.177,-0.025
27.31,-0.336,0.049,0.063
27.32,-0.14,0.177,-0.011
27.33,-0.081,0.267,-0.053
27.34,-0.108,0.241,-0.036
27.35,-0.198,0.118,0.083
27.36,-0.14,-0.179,0.09
27.37,-0.215,-0.171,0.082
27.38,-0.29,-0.12,0.129
27.39,-0.264,0.004,0.078
27.4,-0.348,0.166,0.07
27.41,-0.322,0.027,-0.007
27.42,-0.149,-0.05,-0.096
27.43,-0.198,-0.102,-0.048
27.44,-0.246,-0.115,0.043
27.45,-0.196,0.283,0.063
27.46,-0.311,0.315,0.106
27.47,-0.236,0.313,-0.041
27.48,-0.123,0.062,-0.132
27.49,-0.218,-0.323,-0.006
27.5,-0.176,-0.475,0.136
27.51,-0.3,-0.231,0.292
27.52,-0.278,-0.035,0.295
27.53,-0.233,0.201,0.056
27.54,-0.183,0.297,-0.118
27.55,-0.197,0.006,-0.19
27.56,-0.302,0.028,-0.13
27.57,-0.35,-0.067,-0.017
27.58,-0.334,0.005,0.025
27.59,-0.29,0.202,0.066
27.6,-0.13,0.194,0.063
27.61,-0.165,0.104,0.079
27.62,-0.178,-0.104,0.09
27.63,-0.22,-0.333,0.145
27.64,-0.265,-0.204,0.09
27.65,-0.255,-0.109,0.001
27.66,-0.23,0.092,-0.017
27.67,-0.219,0.344,-0.858
27.68,-0.364,0.278,-0.022
27.69,-0.314,0.012,0.013
27.7,-0.189,-0.011,-0.055
27.71,-0.29,-0.077,0.039
27.72,-0.247,-0.047,0.111
27.73,-0.128,0.19,0.068
27.74,-0.155,0.123,0.051
27.75,-0.131,-0.111,-0.009
27.76,-0.197,-0.189,0.055
27.77,-0.276,-0.397,0.157
27.78,-0.256,-0.043,0.116
27.79,-0.411,0.049,0.102
27.8,-0.295,0.243,-0.019
27.81,-0.237,0.373,-0.123
27.82,-0.249,0.138,-0.074
27.83,-0.187,-0.033,-0.065
27.84,-0.185,-0.097,-0.033
27.85,-0.201,-0.132,0.067
27.86,-0.207,-0.026,0.106
27.87,-0.125,0.122,0.165
27.88,-0.193,0.05,0.12
27.89,-0.263,-0.031,-0.857
27.9,-0.303,-0.074,-0.019
27.91,-0.362,-0.052,-0.014
27.92,-0.305,0.132,-0.017
27.93,-0.0,-0.0,-0.833
27.94,-0.031,-0.418,0.108
27.95,-0.179,-0.184,0.318
27.96,-0.174,0.042,0.322
27.97,-0.209,0.132,0.135
27.98,-0.275,0.275,-0.046
27.99,-0.341,0.042,-0.132
28.0,-0.451,-0.066,-0.114
28.01,-0.439,-0.042,-0.036
28.02,-0.344,0.023,0.018
28.03,-0.212,0.179,0.005
28.04,-0.105,0.17,-0.001
28.05,0.01,0.052,0.045
28.06,0.001,-0.023,0.081
28.07,-0.22,-0.211,0.171
28.08,-0.291,-0.23,0.151
28.09,-0.251,-0.015,0.008
28.1,-0.385,0.11,0.034
28.11,-0.358,0.18,-0.005
28.12,-0.328,0.181,-0.003
28.13,-0.424,0.003,0.004
28.14,-0.275,-0.111,-0.055
28.15,-0.208,-0.009,-0.027
28.16,-0.103,0.008,0.028
28.17,-0.111,0.122,0.054
28.18,-0.087,0.116,0.049
28.19,-0.11,-0.168,0.065
28.2,-0.229,-0.104,0.091
28.21,-0.284,-0.102,0.157
28.22,-0.342,-0.054,0.12
28.23,-0.406,0.126,0.018
28.24,-0.337,0.189,-0.13
28.25,-0.278,0.092,-0.107
28.26,-0.238,0.099,-0.031
28.27,-0.177,-0.062,0.009
28.28,-0.147,-0.098,0.025
28.29,-0.128,-0.027,0.057
28.3,-0.071,0.033,0.133
28.31,-0.101,0.177,0.146
28.32,-0.33,0.012,0.132
28.33,-0.28,-0.045,0.003
28.34,-0.305,-0.093,-0.067
28.35,-0.55,-0.043,-0.001
28.36,-0.383,0.032,0.004
28.37,-0.23,0.209,-0.027
28.38,-0.216,0.125,-0.006
28.39,-0.108,0.101,-0.026
28.4,-0.133,0.099,0.028
28.41,-0.097,-0.168,0.041
28.42,-0.084,-0.093,0.039
28.43,-0.214,-0.047,0.089
28.44,-0.248,-0.018,0.08
28.45,-0.361,0.148,0.087
28.46,-0.347,0.072,-0.028
28.47,-0.327,-0.174,-0.077
28.48,-0.338,-0.091,-0.007
28.49,-0.231,-0.003,0.058
28.5,-0.263,0.191,0.113
28.51,-0.246,0.375,0.004
28.52,-0.092,0.25,-0.15
28.53,-0.017,-0.059,-0.166
28.54,-0.12,-0.305,-0.012
28.55,-0.193,-0.408,0.248
28.56,-0.321,-0.087,0.359
28.57,-0.336,0.148,0.198
28.58,-0.287,0.116,-0.072
28.59,-0.253,0.25,-0.224
28.6,-0.27,0.026,-0.152
28.61,-0.317,-0.085,-0.023
28.62,-0.258,-0.076,-0.002
28.63,-0.207,0.112,0.055
28.64,-0.135,0.107,0.07
28.65,-0.153,0.247,0.07
28.66,-0.173,0.013,0.119
28.67,-0.175,-0.16,0.029
28.68,-0.367,-0.218,0.057
28.69,-0.379,-0.24,0.03
28.7,-0.226,-0.005,-0.044
28.71,-0.241,0.249,-0.007
28.72,-0.213,0.189,-0.013
28.73,-0.293,0.129,-0.012
28.74,-0.274,-0.005,0.032
28.75,-0.16,-0.091,-0.002
28.76,-0.261,0.06,0.025
28.77,-0.247,0.049,0.052
28.78,-0.151,0.191,0.015
28.79,-0.134,0.153,-0.017
28.8,-0.213,-0.2,0.006
28.81,-0.244,-0.309,0.085
28.82,-0.32,-0.123,0.111
28.83,-0.245,-0.159,0.108
28.84,-0.0,-0.0,-0.853
28.85,-0.181,-0.132,0.078
28.86,-0.213,-0.209,0.058
28.87,-0.251,-0.081,0.058
28.88,-0.25,-0.015,0.063
28.89,-0.233,0.053,0.058
28.9,-0.282,0.097,-0.013
28.91,-0.18,-0.021,-0.04
28.92,-0.187,0.008,-0.055
28.93,-0.248,-0.001,0.01
28.94,-0.344,0.185,0.103
28.95,-0.296,0.166,0.08
28.96,-0.254,0.295,-0.05
28.97,-0.165,-0.067,-0.124
28.98,-0.155,-0.239,-0.099
28.99,-0.202,-0.307,0.031
29.0,-0.222,-0.389,0.279
29.01,-0.224,0.112,0.285
29.02,-0.175,0.189,0.117
29.03,-0.253,0.216,-0.096
29.04,-0.253,0.121,-0.18
29.05,-0.317,0.006,-0.112
29.06,-0.374,-0.129,-0.011
29.07,-0.333,0.087,-0.003
29.08,-0.247,0.085,0.043
29.09,-0.194,0.166,0.005
29.1,-0.147,0.211,0.024
29.11,-0.142,-0.198,0.105
29.12,-0.165,-0.252,0.053
29.13,-0.27,-0.22,0.054
29.14,-0.218,-0.152,0.019
29.15,-0.235,0.204,-0.001
29.16,-0.322,0.259,0.036
29.17,-0.332,0.229,-0.007
29.18,-0.38,0.173,-0.045
29.19,-0.282,-0.123,-0.09
29.2,-0.254,-0.129,-0.093
29.21,-0.198,-0.039,0.057
29.22,-0.143,0.034,0.135
29.23,-0.064,0.144,0.048
29.24,-0.053,-0.059,-0.015
29.25,-0.212,-0.242,0.062
29.26,-0.292,-0.107,0.119
29.27,-0.302,-0.088,0.139
29.28,-0.432,0.156,0.034
29.29,-0.335,0.262,-0.129
29.3,-0.303,0.232,-0.136
29.31,-0.272,0.028,-0.102
29.32,-0.127,-0.035,-0.03
29.33,-0.179,-0.187,0.067
29.34,-0.121,-0.179,0.052
29.35,-0.117,0.058,0.076
29.36,-0.159,0.078,0.155
29.37,-0.2,0.201,0.097
29.38,-0.314,0.038,0.007
29.39,-0.346,-0.098,-0.085
29.4,-0.367,-0.071,-0.106
29.41,-0.397,0.064,0.008
29.42,-0.278,0.117,-0.045
29.43,-0.274,0.189,-0.015
29.44,-0.22,0.123,-0.023
29.45,-0.116,0.078,0.009
29.46,-0.183,-0.113,0.091
29.47,-0.085,-0.177,0.078
29.48,-0.114,-0.053,0.08
29.49,-0.118,-0.05,0.027
29.5,-0.29,0.072,0.057
29.51,-0.382,0.147,0.044
29.52,-0.278,0.058,-0.064
29.53,-0.362,-0.168,-0.078
29.54,-0.363,-0.011,-0.056
29.55,-0.349,0.084,0.029
29.56,-0.343,0.218,0.07
29.57,-0.102,0.336,-0.083
29.58,-0.02,0.046,-0.114
29.59,0.02,-0.226,-0.091
29.6,-0.015,-0.34,0.051
29.61,-0.242,-0.24,0.371
29.62,-0.286,0.095,0.282
29.63,-0.366,0.207,0.056
29.64,-0.356,0.206,-0.156
29.65,-0.297,0.088,-0.32
29.66,-0.47,-0.119,-0.109
29.67,-0.381,-0.142,-0.013
29.68,-0.177,0.051,-0.007
29.69,-0.171,0.169,0.077
29.7,0.014,0.22,0.024
29.71,-0.047,0.244,0.064
29.72,-0.124,-0.179,0.127
29.73,-0.256,-0.215,0.111
29.74,-0.385,-0.273,0.072
29.75,-0.352,-0.198,0.015
29.76,-0.392,0.095,-0.063
29.77,-0.315,0.301,-0.065
29.78,-0.315,0.149,-0.047
29.79,-0.243,0.13,-0.042
29.8,-0.177,-0.032,-0.083
29.81,-0.137,-0.093,-0.037
29.82,-0.126,0.103,0.062
29.83,-0.148,0.058,0.1
29.84,-0.18,0.168,0.045
29.85,-0.0,-0.0,-0.859
29.86,-0.237,0.075,0.019
29.87,-0.201,0.192,-0.009
29.88,-0.214,0.315,-0.044
29.89,-0.18,0.08,0.024
29.9,-0.171,-0.031,-0.866
29.91,-0.187,-0.133,0.035
29.92,-0.208,-0.234,0.069
29.93,-0.21,-0.07,0.071
29.94,-0.281,0.099,0.112
29.95,-0.34,-0.018,0.075
29.96,-0.238,0.074,-0.058
29.97,-0.214,-0.131,-0.049
29.98,-0.272,-0.043,0.026
29.99,-0.302,0.191,0.07
30.0,-0.297,0.25,0.068
30.01,-0.189,0.261,-0.064
30.02,-0.068,0.19,-0.188
30.03,-0.133,-0.25,-0.064
30.04,-0.158,-0.359,0.069
30.05,-0.282,-0.192,0.251
30.06,-0.36,-0.171,0.352
30.07,-0.221,0.151,0.095
30.08,-0.228,0.2,-0.105
30.09,-0.227,0.085,-0.163
30.1,-0.24,0.015,-0.107
30.11,-0.356,0.019,0.021
30.12,-0.244,-0.03,0.013
30.13,-0.163,-0.051,0.081
30.14,-0.172,0.138,0.117
30.15,-0.278,0.082,0.104
30.16,-0.375,-0.05,0.015
30.17,-0.432,-0.074,-0.057
30.18,-0.299,-0.123,-0.083
30.19,-0.281,0.133,-0.062
30.2,-0.272,0.101,0.012
30.21,-0.18,0.217,-0.03
30.22,-0.129,0.159,-0.021
30.23,-0.216,0.095,0.025
30.24,-0.101,-0.169,0.044
30.25,-0.137,-0.117,0.075
30.26,-0.259,-0.14,0.132
30.27,-0.247,0.006,0.111
30.28,-0.331,0.136,0.1
30.29,-0.351,0.006,-0.037
30.3,-0.248,-0.026,-0.158
30.31,-0.278,-0.085,-0.104
30.32,-0.306,-0.031,0.009
30.33,-0.271,0.188,0.037
30.34,-0.239,0.362,0.049
30.35,-0.129,0.184,-0.067
30.36,-0.018,0.018,-0.121
30.37,-0.059,-0.305,0.018
30.38,-0.228,-0.349,0.182
30.39,-0.316,-0.186,0.341
30.4,-0.308,0.09,0.188
30.41,-0.0,-0.0,-0.856
30.42,-0.163,-0.02,-0.053
30.43,-0.203,-0.015,0.091
30.44,-0.206,0.128,0.1
30.45,-0.226,0.166,0.104
30.46,-0.22,-0.077,0.02
30.47,-0.238,-0.247,0.037
30.48,-0.312,-0.226,0.067
30.49,-0.231,-0.249,0.06
30.5,-0.224,0.021,-0.024
30.51,-0.31,0.294,-0.012
30.52,-0.199,0.317,-0.04
30.53,-0.17,0.25,-0.072
30.54,-0.253,0.038,-0.017
30.55,-0.159,-0.183,-0.036
30.56,-0.206,-0.098,0.042
30.57,-0.295,-0.045,0.113
30.58,-0.21,0.015,0.101
30.59,-0.256,0.12,0.071
30.6,-0.215,-0.117,0.052
30.61,-0.246,-0.068,-0.04
30.62,-0.332,-0.039,0.003
30.63,-0.299,0.026,-0.002
30.64,-0.267,0.232,-0.025
30.65,-0.247,0.198,-0.081
30.66,-0.262,0.161,-0.066
30.67,-0.251,0.112,-0.043
30.68,-0.188,-0.078,0.009
30.69,-0.197,-0.169,0.063
30.7,-0.163,-0.098,0.095
30.71,-0.1,-0.122,0.157
30.72,-0.185,0.088,0.089
30.73,-0.271,0.105,-0.001
30.74,-0.197,-0.074,-0.087
30.75,-0.299,-0.015,-0.088
30.76,-0.406,0.063,0.021
30.77,-0.305,0.107,0.073
30.78,-0.325,0.344,-0.015
30.79,-0.232,0.254,-0.08
30.8,-0.121,0.001,-0.139
30.81,-0.088,-0.164,-0.069
30.82,-0.125,-0.359,0.102
30.83,-0.107,-0.35,0.249
30.84,-0.272,0.045,0.246
30.85,-0.263,0.053,0.135
30.86,-0.251,0.321,-0.044
30.87,-0.291,0.083,-0.166
30.88,-0.378,-0.12,-0.161
30.89,-0.321,0.005,-0.1
30.9,-0.333,0.104,0.012
30.91,-0.335,0.127,0.034
30.92,-0.118,0.176,-0.036
30.93,-0.123,0.081,0.031
30.94,-0.131,-0.162,0.126
30.95,-0.142,-0.216,0.121
30.96,-0.272,-0.292,0.136
30.97,-0.208,-0.055,0.02
30.98,-0.281,0.187,-0.015
30.99,-0.317,0.236,-0.004
31.0,-0.29,0.282,-0.106
31.01,-0.364,0.098,-0.074
31.02,-0.237,-0.05,-0.13
31.03,-0.273,-0.04,-0.031
31.04,-0.284,0.026,0.056
31.05,-0.082,0.021,0.058
31.06,-0.078,0.116,0.038
31.07,-0.04,-0.125,-0.872
31.08,-0.18,-0.172,0.108
31.09,-0.292,-0.075,0.167
31.1,-0.304,-0.084,0.133
31.11,-0.392,-0.003,0.021
31.12,-0.326,0.274,-0.089
31.13,-0.252,0.079,-0.119
31.14,-0.332,0.102,-0.081
31.15,-0.275,-0.018,-0.056
31.16,-0.169,-0.114,0.001
31.17,-0.087,-0.01,0.002
31.18,-0.098,0.023,0.113
31.19,-0.109,0.065,0.121
31.2,-0.118,0.11,0.097
31.21,-0.315,-0.059,0.125
31.22,-0.349,-0.078,0.015
31.23,-0.378,-0.013,-0.057
31.24,-0.383,-0.011,-0.064
31.25,-0.338,0.172,-0.077
31.26,-0.319,0.161,-0.064
31.27,-0.234,0.119,-0.007
31.28,-0.124,0.105,-0.023
31.29,-0.102,-0.089,-0.007
31.3,0.019,-0.17,0.037
31.31,-0.128,-0.047,0.15
31.32,-0.223,0.007,0.195
31.33,-0.281,0.092,0.121
31.34,-0.32,0.126,-0.051
31.35,-0.267,-0.09,-0.131
31.36,-0.423,-0.176,-0.069
31.37,-0.389,0.049,0.03
31.38,-0.279,0.064,0.075
31.39,-0.262,0.33,0.021
31.4,-0.143,0.25,-0.869
31.41,-0.035,-0.021,-0.143
31.42,-0.005,-0.204,-0.065
31.43,-0.111,-0.363,0.119
31.44,-0.336,-0.205,0.306
31.45,-0.304,0.102,0.294
31.46,-0.312,0.228,0.11
31.47,-0.273,0.157,-0.151
31.48,-0.283,0.055,-0.209
31.49,-0.406,-0.234,-0.073
31.5,-0.295,0.003,-0.036
31.51,-0.282,0.114,-0.006
31.52,-0.198,0.13,0.056
31.53,-0.026,0.31,-0.084
31.54,-0.111,0.148,0.07
31.55,-0.148,-0.172,0.16
31.56,-0.245,-0.175,0.124
31.57,-0.404,-0.207,0.113
31.58,-0.24,-0.157,-0.024
31.59,-0.332,0.246,-0.025
31.6,-0.327,0.122,-0.066
31.61,-0.29,0.052,-0.039
31.62,-0.299,0.016,-0.01
31.63,-0.173,-0.149,0.018
31.64,-0.194,0.041,0.044
31.65,-0.173,0.114,0.015
31.66,-0.111,0.099,0.018
31.67,-0.129,0.141,0.017
31.68,-0.213,-0.011,0.045
31.69,-0.342,-0.279,0.085
31.7,-0.33,-0.179,0.029
31.71,-0.285,-0.116,0.018
31.72,-0.391,0.042,0.07
31.73,-0.235,0.271,0.009
31.74,-0.172,0.154,-0.044
31.75,-0.163,0.094,-0.082
31.76,-0.141,0.047,-0.086
31.77,-0.161,-0.142,0.005
31.78,-0.162,0.008,0.054
31.79,-0.172,0.155,0.079
31.8,-0.314,-0.008,0.102
31.81,-0.361,-0.002,0.023
31.82,-0.341,-0.048,0.032
31.83,-0.287,-0.156,0.022
31.84,-0.306,-0.012,-0.0
31.85,-0.281,0.107,-0.029
31.86,-0.139,0.252,-0.082
31.87,-0.196,0.243,-0.016
31.88,-0.177,0.111,-0.007
31.89,-0.151,-0.008,0.004
31.9,-0.237,-0.126,0.003
31.91,-0.224,-0.25,0.092
31.92,-0.277,-0.008,0.069
31.93,-0.307,0.036,0.126
31.94,-0.312,0.028,0.026
31.95,-0.165,0.117,-0.128
31.96,-0.169,-0.129,-0.104
31.97,-0.253,-0.062,0.003
31.98,-0.263,0.163,0.092
31.99,-0.245,0.168,0.104
32.0,-0.284,0.324,-0.037
32.01,-0.182,0.207,-0.169
32.02,-0.129,-0.213,-0.103
32.03,-0.162,-0.268,-0.019
32.04,-0.232,-0.296,0.157
32.05,-0.293,-0.231,0.265
32.06,-0.198,0.198,0.169
32.07,-0.196,0.214,-0.006
32.08,-0.26,0.132,-0.085
32.09,-0.231,0.067,-0.168
32.1,-0.316,-0.065,-0.08
32.11,-0.356,-0.092,0.039
32.12,-0.298,0.181,0.036
32.13,-0.215,0.141,0.026
32.14,-0.105,0.094,-0.871
32.15,-0.216,0.028,0.056
32.16,-0.194,-0.305,0.093
32.17,-0.287,-0.177,0.111
32.18,-0.305,-0.149,0.096
32.19,-0.176,0.025,-0.04
32.2,-0.256,0.254,-0.04
32.21,-0.252,0.22,-0.011
32.22,-0.294,0.073,-0.016
32.23,-0.308,0.056,-0.022
32.24,-0.246,-0.07,-0.001
32.25,-0.233,0.018,0.049
32.26,-0.205,0.197,0.017
32.27,-0.197,-0.051,0.022
32.28,-0.109,0.074,-0.044
32.29,-0.118,-0.17,-0.004
32.3,-0.315,-0.307,0.144
32.31,-0.224,-0.032,0.104
32.32,-0.247,0.034,0.084
32.33,-0.351,0.127,0.028
32.34,-0.271,0.305,-0.101
32.35,-0.228,0.136,-0.067
32.36,-0.267,-0.001,-0.049
32.37,-0.256,-0.082,-0.058
32.38,-0.2,-0.115,0.029
32.39,-0.114,-0.131,0.048
32.4,-0.182,0.146,0.109
32.41,-0.198,-0.094,0.142
32.42,-0.24,0.023,0.092
32.43,-0.304,-0.039,0.019
32.44,-0.327,-0.106,-0.045
32.45,-0.36,0.12,-0.013
32.46,-0.304,0.195,-0.074
32.47,-0.187,0.22,-0.103
32.48,-0.246,0.156,-0.082
32.49,-0.277,0.057,0.0
32.5,-0.139,-0.102,-0.015
32.51,-0.098,-0.155,0.048
32.52,-0.173,-0.205,0.12
32.53,-0.175,0.053,0.148
32.54,-0.241,0.14,0.106
32.55,-0.269,0.013,-0.002
32.56,-0.21,0.042,-0.132
32.57,-0.275,-0.139,-0.077
32.58,-0.408,-0.072,0.038
32.59,-0.299,0.205,0.032
32.6,-0.304,0.26,0.007
32.61,-0.295,0.245,-0.08
32.62,-0.105,0.158,-0.131
32.63,-0.048,-0.197,-0.049
32.64,-0.049,-0.38,0.072
32.65,-0.158,-0.209,0.175
32.66,-0.267,-0.165,0.298
32.67,-0.263,0.268,0.176
32.68,-0.319,0.248,-0.036
32.69,-0.282,0.068,-0.2
32.7,-0.347,-0.042,-0.199
32.71,-0.481,-0.098,-0.061
32.72,-0.354,0.006,0.033
32.73,-0.246,0.141,0.025
32.74,-0.098,0.204,-0.035
32.75,-0.0,-0.0,-0.854
32.76,-0.319,-0.03,0.001
32.77,-0.42,0.055,-0.026
32.78,-0.326,0.244,-0.073
32.79,-0.275,0.208,-0.07
32.8,-0.144,-0.005,-0.068
32.81,-0.115,0.01,-0.049
32.82,-0.092,0.014,-0.001
32.83,-0.084,-0.103,0.081
32.84,-0.147,0.125,0.119
32.85,-0.204,0.076,0.169
32.86,-0.333,-0.031,0.12
32.87,-0.345,-0.046,0.01
32.88,-0.362,-0.151,-0.058
32.89,-0.393,-0.015,-0.039
32.9,-0.374,0.11,0.002
32.91,-0.207,0.157,-0.053
32.92,-0.208,0.199,-0.068
32.93,-0.178,0.139,-0.02
32.94,-0.107,0.026,0.007
32.95,-0.109,-0.028,0.052
32.96,-0.151,-0.128,0.122
32.97,-0.162,-0.01,0.127
32.98,-0.237,-0.052,0.091
32.99,-0.369,-0.029,0.062
33.0,-0.307,-0.07,-0.054
33.01,-0.29,-0.055,-0.046
33.02,-0.33,-0.086,0.046
33.03,-0.334,0.125,-0.865
33.04,-0.252,0.35,-0.023
33.05,-0.198,0.245,-0.076
33.06,-0.134,0.215,-0.142
33.07,-0.039,-0.05,-0.101
33.08,-0.093,-0.397,0.076
33.09,-0.21,-0.264,0.237
33.1,-0.356,-0.119,0.327
33.11,-0.262,0.005,0.211
33.12,-0.236,0.25,-0.036
33.13,-0.329,0.068,-0.088
33.14,-0.279,-0.043,-0.161
33.15,-0.329,-0.073,-0.103
33.16,-0.313,0.05,0.011
33.17,-0.17,0.127,-0.037
33.18,-0.218,0.272,0.043
33.19,-0.098,0.144,0.035
33.2,-0.0,-0.0,-0.843
33.21,-0.299,0.127,0.058
33.22,-0.299,0.12,-0.024
33.23,-0.243,0.281,-0.095
33.24,-0.3,0.132,-0.061
33.25,-0.265,-0.073,-0.056
33.26,-0.223,0.064,-0.024
33.27,-0.165,-0.046,0.063
33.28,-0.194,-0.001,0.09
33.29,-0.173,0.065,0.103
33.3,-0.179,-0.039,0.151
33.31,-0.226,-0.08,0.073
33.32,-0.301,-0.079,0.045
33.33,-0.337,-0.162,0.021
33.34,-0.336,0.184,-0.017
33.35,-0.296,0.182,-0.042
33.36,-0.273,0.148,-0.033
33.37,-0.274,0.203,-0.024
33.38,-0.233,0.056,0.033
33.39,-0.159,-0.157,0.036
33.4,-0.14,-0.048,0.0
33.41,-0.207,-0.128,0.101
33.42,-0.166,-0.043,0.128
33.43,-0.206,0.137,0.12
33.44,-0.268,-0.047,0.045
33.45,-0.18,0.017,-0.091
33.46,-0.302,-0.051,-0.045
33.47,-0.395,0.003,0.085
33.48,-0.323,0.279,0.058
33.49,-0.317,0.3,-0.003
33.5,-0.255,0.177,-0.155
33.51,-0.116,-0.017,-0.161
33.52,-0.046,-0.25,-0.011
33.53,-0.094,-0.372,0.154
33.54,-0.206,-0.186,0.32
33.55,-0.225,0.008,0.302
33.56,-0.24,0.275,0.052
33.57,-0.237,0.205,-0.135
33.58,-0.277,0.033,-0.141
33.59,-0.366,-0.07,-0.116
33.6,-0.429,0.005,0.001
33.61,-0.303,-0.031,0.005
33.62,-0.249,0.238,0.029
33.63,-0.22,0.166,0.038
33.64,-0.095,-0.046,0.077
33.65,-0.074,-0.069,0.096
33.66,-0.184,-0.294,0.126
33.67,-0.275,-0.159,0.091
33.68,-0.166,-0.022,-0.029
33.69,-0.316,0.168,0.03
33.7,-0.29,0.328,-0.013
33.71,-0.409,0.081,-0.003
33.72,-0.394,-0.077,-0.052
33.73,-0.231,-0.031,-0.052
33.74,-0.311,-0.087,0.05
33.75,-0.084,0.087,-0.016
33.76,-0.037,0.134,-0.011
33.77,-0.058,0.024,0.034
33.78,-0.135,-0.086,0.067
33.79,-0.321,-0.192,0.193
33.8,-0.202,-0.138,0.157
33.81,-0.325,0.02,0.019
33.82,-0.461,0.093,-0.027
33.83,-0.296,0.133,-0.128
33.84,-0.318,0.255,-0.081
33.85,-0.247,0.011,-0.038
33.86,-0.121,-0.137,-0.048
33.87,-0.076,-0.025,0.014
33.88,-0.047,-0.038,0.104
33.89,-0.184,0.095,0.179
33.9,-0.0,-0.0,-0.851
33.91,-0.359,0.046,0.04
33.92,-0.309,0.145,0.091
33.93,-0.286,0.239,0.035
33.94,-0.204,0.229,-0.065
33.95,-0.068,0.04,-0.126
33.96,-0.141,-0.242,-0.041
33.97,-0.134,-0.406,-0.857
33.98,-0.138,-0.154,0.25
33.99,-0.325,0.066,0.284
34.0,-0.213,0.134,0.062
34.01,-0.257,0.274,-0.146
34.02,-0.378,0.052,-0.124
34.03,-0.392,-0.112,-0.084
34.04,-0.287,-0.026,-0.04
34.05,-0.302,0.015,0.007
34.06,-0.18,0.094,-0.85
34.07,-0.067,0.305,0.043
34.08,-0.082,0.042,0.099
34.09,-0.177,-0.044,0.161
34.1,-0.185,-0.179,0.113
34.11,-0.345,-0.325,0.128
34.12,-0.309,-0.059,-0.003
34.13,-0.283,0.04,0.028
34.14,-0.316,0.2,-0.004
34.15,-0.268,0.23,-0.042
34.16,-0.322,0.052,-0.034
34.17,-0.17,0.043,-0.06
34.18,-0.182,0.058,0.027
34.19,-0.195,0.037,0.094
34.2,-0.13,0.174,0.067
34.21,-0.185,-0.016,0.067
34.22,-0.192,-0.113,0.109
34.23,-0.266,-0.277,0.094
34.24,-0.374,-0.172,0.131
34.25,-0.261,-0.18,0.007
34.26,-0.277,0.164,-0.047
34.27,-0.306,0.24,-0.001
34.28,-0.186,0.178,-0.076
34.29,-0.172,0.237,-0.043
34.3,-0.168,-0.108,-0.008
34.31,-0.232,-0.034,0.054
34.32,-0.16,0.015,0.066
34.33,-0.231,-0.011,0.143
34.34,-0.28,0.044,0.124
34.35,-0.243,-0.023,0.045
34.36,-0.283,-0.176,0.019
34.37,-0.244,-0.069,-0.016
34.38,-0.31,-0.037,0.026
34.39,-0.318,0.094,0.024
34.4,-0.19,0.246,-0.067
34.41,-0.212,0.251,-0.053
34.42,-0.27,0.14,-0.009
34.43,-0.243,0.108,0.019
34.44,-0.185,-0.102,0.073
34.45,-0.161,-0.142,0.036
34.46,-0.21,-0.149,0.102
34.47,-0.159,-0.155,0.122
34.48,-0.198,0.066,0.115
34.49,-0.264,0.036,0.009
34.5,-0.211,-0.078,-0.072
34.51,-0.285,0.024,-0.085
34.52,-0.363,0.141,0.037
34.53,-0.349,0.15,0.043
34.54,-0.311,0.362,-0.046
34.55,-0.228,0.202,-0.107
34.56,-0.105,-0.095,-0.074
34.57,-0.142,-0.225,0.041
34.58,-0.125,-0.411,0.191
34.59,-0.188,-0.258,0.241
34.6,-0.196,0.109,0.176
34.61,-0.21,0.115,0.076
34.62,-0.252,0.305,-0.114
34.63,-0.305,0.1,-0.163
34.64,-0.335,-0.108,-0.131
34.65,-0.362,0.028,-0.074
34.66,-0.361,0.099,0.07
34.67,-0.252,0.148,0.104
34.68,-0.153,0.203,-0.018
34.69,-0.121,-0.0,-0.86
34.7,-0.163,-0.167,0.144
34.71,-0.166,-0.224,0.129
34.72,-0.272,-0.259,0.116
34.73,-0.204,-0.117,-0.004
34.74,-0.216,0.246,-0.066
34.75,-0.283,0.204,-0.009
34.76,-0.351,0.218,-0.001
34.77,-0.38,0.165,0.001
34.78,-0.286,-0.068,-0.076
34.79,-0.286,0.048,-0.063
34.8,-0.246,-0.012,0.036
34.81,-0.133,0.037,0.039
34.82,-0.109,-0.02,0.108
34.83,-0.019,-0.202,0.098
34.84,-0.129,-0.169,0.122
34.85,-0.273,-0.112,0.15
34.86,-0.221,-0.023,0.07
34.87,-0.367,0.187,-0.016
34.88,-0.389,0.26,-0.075
34.89,-0.308,0.131,-0.113
34.9,-0.261,0.077,-0.117
34.91,-0.306,-0.026,-0.015
34.92,-0.231,-0.12,0.06
34.93,-0.1,-0.009,0.061
34.94,-0.064,-0.016,0.12
34.95,-0.031,0.062,0.119
34.96,-0.188,0.037,0.109
34.97,-0.326,-0.088,0.094
34.98,-0.0,-0.0,-0.846
34.99,-0.214,0.296,-0.086
35.0,-0.053,0.062,-0.101
35.01,0.01,-0.163,-0.047
35.02,-0.028,-0.236,0.058
35.03,-0.168,-0.261,0.284
35.04,-0.0,-0.0,-0.838
35.05,-0.339,0.005,-0.057
35.06,-0.284,-0.073,-0.05
35.07,-0.15,-0.031,-0.02
35.08,-0.17,0.157,0.044
35.09,-0.087,0.111,0.068
35.1,-0.046,0.094,-0.845
35.11,-0.168,-0.008,0.141
35.12,-0.219,-0.235,0.134
35.13,-0.326,-0.115,0.134
35.14,-0.344,-0.17,0.054
35.15,-0.42,-0.077,0.008
35.16,-0.389,0.232,0.003
35.17,-0.181,0.164,-0.019
35.18,-0.268,0.119,-0.02
35.19,-0.147,-0.009,-0.027
35.2,-0.083,-0.004,0.027
35.21,-0.062,-0.035,0.051
35.22,-0.2,0.073,0.125
35.23,-0.229,0.01,0.145
35.24,-0.251,0.031,0.098
35.25,-0.38,-0.058,0.021
35.26,-0.376,-0.174,0.003
35.27,-0.299,-0.009,0.004
35.28,-0.267,0.074,-0.001
35.29,-0.178,0.214,-0.046
35.3,-0.187,0.28,-0.03
35.31,-0.196,0.123,0.005
35.32,-0.152,0.112,0.013
35.33,-0.132,-0.103,0.077
35.34,-0.205,-0.234,0.105
35.35,-0.245,-0.051,0.143
35.36,-0.308,-0.095,0.132
35.37,-0.305,0.039,0.091
35.38,-0.21,0.137,-0.059
35.39,-0.213,-0.107,-0.08
35.4,-0.331,0.035,-0.002
35.41,-0.292,0.054,0.056
35.42,-0.266,0.244,0.112
35.43,-0.228,0.303,-0.026
35.44,-0.207,0.179,-0.083
35.45,-0.11,-0.196,-0.052
35.46,-0.11,-0.254,0.034
35.47,-0.221,-0.225,0.174
35.48,-0.318,-0.221,0.268
35.49,-0.258,0.171,0.134
35.5,-0.249,0.177,0.019
35.51,-0.224,0.118,-0.118
35.52,-0.306,-0.002,-0.098
35.53,-0.352,-0.093,-0.047
35.54,-0.208,0.01,-0.019
35.55,-0.307,0.173,0.058
35.56,-0.21,0.156,0.058
35.57,-0.084,0.254,-0.011
35.58,-0.145,0.046,0.055
35.59,-0.209,-0.271,0.05
35.6,-0.316,-0.278,0.078
35.61,-0.322,-0.229,0.149
35.62,-0.239,-0.054,0.054
35.63,-0.273,0.287,0.028
35.64,-0.206,0.199,-0.03
35.65,-0.285,0.154,-0.068
35.66,-0.248,0.113,-0.071
35.67,-0.176,-0.064,-0.007
35.68,-0.278,0.034,0.02
35.69,-0.173,0.097,0.034
35.7,-0.185,0.044,0.046
35.71,-0.221,0.008,0.039
35.72,-0.229,-0.149,0.058
35.73,-0.269,-0.336,0.13
35.74,-0.238,-0.089,0.099
35.75,-0.272,-0.038,0.056
35.76,-0.325,0.181,0.059
35.77,-0.123,0.365,-0.116
35.78,-0.25,0.153,-0.031
35.79,-0.246,0.042,-0.033
35.8,-0.25,-0.086,-0.042
35.81,-0.258,-0.148,0.008
35.82,-0.138,-0.087,0.046
35.83,-0.243,0.086,0.106
35.84,-0.202,0.011,0.132
35.85,-0.225,0.031,0.055
35.86,-0.302,-0.033,0.04
35.87,-0.242,-0.097,-0.043
35.88,-0.33,0.125,-0.863
35.89,-0.299,0.164,0.016
35.9,-0.206,0.188,-0.07
35.91,-0.29,0.219,-0.025
35.92,-0.251,-0.027,0.008
35.93,-0.206,-0.027,0.055
35.94,-0.163,-0.199,0.02
35.95,-0.121,-0.235,0.072
35.96,-0.177,-0.054,0.134
35.97,-0.193,0.134,0.154
35.98,-0.305,0.051,0.074
35.99,-0.209,0.146,-0.112
36.0,-0.281,-0.093,-0.087
36.01,-0.4,-0.048,0.007
36.02,-0.292,0.183,0.036
36.03,-0.349,0.125,0.101
36.04,-0.295,0.274,-0.004
36.05,-0.101,0.134,-0.16
36.06,-0.034,-0.235,-0.055
36.07,-0.054,-0.323,0.01
36.08,-0.12,-0.245,0.189
36.09,-0.271,-0.152,0.318
36.1,-0.215,0.225,0.139
36.11,-0.315,0.26,0.029
36.12,-0.322,0.098,-0.137
36.13,-0.315,0.041,-0.148
36.14,-0.463,-0.155,-0.038
36.15,-0.33,-0.009,-0.047
36.16,-0.271,0.121,0.058
36.17,-0.151,0.212,0.087
36.18,-0.043,0.133,-0.016
36.19,-0.105,-0.065,0.062
36.2,-0.108,-0.241,0.092
36.21,-0.28,-0.22,0.095
36.22,-0.345,-0.018,0.094
36.23,-0.277,-0.041,0.022
36.24,-0.34,0.393,-0.022
36.25,-0.332,0.201,-0.01
36.26,-0.386,-0.01,-0.047
36.27,-0.292,0.0,-0.1
36.28,-0.219,-0.212,-0.04
36.29,-0.147,-0.031,0.056
36.3,-0.113,0.131,0.073
36.31,-0.11,0.125,-0.863
36.32,-0.083,0.109,0.017
36.33,-0.108,-0.115,-0.016
36.34,-0.302,-0.257,0.101
36.35,-0.278,-0.052,0.087
36.36,-0.408,0.052,0.094
36.37,-0.429,0.112,-0.014
36.38,-0.267,0.256,-0.115
36.39,-0.326,0.13,-0.037
36.4,-0.149,-0.036,-0.031
36.41,-0.154,-0.098,-0.004
36.42,-0.108,-0.164,0.081
36.43,-0.065,0.001,0.067
36.44,-0.158,0.148,0.158
36.45,-0.151,0.071,0.162
36.46,-0.262,0.069,0.05
36.47,-0.413,-0.055,-0.047
36.48,-0.431,-0.189,-0.091
36.49,-0.442,0.048,-0.011
36.5,-0.362,0.135,-0.022
36.51,-0.219,0.156,-0.033
36.52,-0.17,0.199,-0.032
36.53,-0.121,0.09,0.014
36.54,-0.056,-0.046,0.039
36.55,-0.056,-0.13,0.095
36.56,-0.126,-0.159,0.137
36.57,-0.198,-0.018,0.108
36.58,-0.346,0.153,0.066
36.59,-0.375,0.042,0.001
36.6,-0.317,0.07,-0.103
36.61,-0.331,-0.122,-0.104
36.62,-0.354,-0.169,-0.01
36.63,-0.23,0.109,0.056
36.64,-0.203,0.238,0.115
36.65,-0.142,0.37,0.026
36.66,-0.037,0.212,-0.11
36.67,-0.059,-0.18,-0.073
36.68,-0.08,-0.4,-0.017
36.69,-0.305,-0.208,0.23
36.7,-0.406,-0.233,0.371
36.71,-0.346,0.233,0.099
36.72,-0.358,0.247,-0.074
36.73,-0.232,-0.009,-0.191
36.74,-0.257,0.096,-0.144
36.75,-0.302,-0.101,-0.039
36.76,-0.206,-0.0,-0.863
36.77,-0.21,0.163,0.043
36.78,-0.125,0.207,0.022
36.79,-0.109,0.154,0.078
36.8,-0.199,0.021,0.096
36.81,-0.0,-0.0,-0.841
36.82,-0.314,0.226,0.026
36.83,-0.219,0.306,-0.073
36.84,-0.232,0.133,-0.031
36.85,-0.169,-0.024,-0.06
36.86,-0.218,-0.042,-0.028
36.87,-0.17,-0.139,0.059
36.88,-0.148,0.047,0.071
36.89,-0.187,0.116,0.148
36.9,-0.26,-0.027,0.136
36.91,-0.3,-0.062,0.069
36.92,-0.319,-0.125,-0.851
36.93,-0.355,-0.083,0.011
36.94,-0.322,0.132,0.014
36.95,-0.212,0.259,-0.048
36.96,-0.205,0.256,-0.048
36.97,-0.197,0.168,-0.023
36.98,-0.134,0.028,0.007
36.99,-0.183,-0.121,0.074
37.0,-0.225,-0.226,0.148
37.01,-0.208,-0.158,0.148
37.02,-0.202,0.021,0.126
37.03,-0.0,-0.0,-0.832
37.04,-0.42,-0.04,0.038
37.05,-0.27,0.117,0.032
37.06,-0.204,0.25,-0.023
37.07,-0.093,0.131,0.031
37.08,-0.064,0.01,0.081
37.09,-0.134,-0.178,0.135
37.1,-0.221,-0.329,0.152
37.11,-0.264,-0.095,0.11
37.12,-0.271,-0.012,0.08
37.13,-0.306,0.219,0.01
37.14,-0.349,0.211,0.022
37.15,-0.338,0.112,0.045
37.16,-0.312,-0.031,-0.045
37.17,-0.305,-0.032,-0.096
37.18,-0.221,-0.077,0.015
37.19,-0.127,0.168,0.03
37.2,-0.121,0.158,0.072
37.21,-0.079,-0.109,0.027
37.22,-0.122,-0.075,0.04
37.23,-0.264,-0.219,0.194
37.24,-0.271,-0.118,0.193
37.25,-0.373,0.114,0.112
37.26,-0.345,0.128,-0.003
37.27,-0.264,0.204,-0.141
37.28,-0.303,0.125,-0.134
37.29,-0.268,-0.094,-0.031
37.3,-0.188,-0.046,0.007
37.31,-0.141,-0.026,0.036
37.32,-0.1,-0.095,0.091
37.33,-0.077,0.092,0.116
37.34,-0.19,0.112,0.139
37.35,-0.249,-0.016,0.107
37.36,-0.304,-0.027,0.005
37.37,-0.402,-0.03,-0.052
37.38,-0.387,0.013,-0.04
37.39,-0.345,0.107,-0.048
37.4,-0.245,0.181,-0.017
37.41,-0.235,0.114,0.012
37.42,-0.205,0.035,0.046
37.43,-0.12,-0.156,0.033
37.44,-0.05,-0.056,0.021
37.45,-0.15,-0.082,0.118
37.46,-0.176,-0.015,0.096
37.47,-0.275,0.215,0.064
37.48,-0.337,0.039,0.036
37.49,-0.287,-0.039,-0.069
37.5,-0.288,-0.129,-0.052
37.51,-0.398,-0.098,0.077
37.52,-0.337,0.126,0.079
37.53,-0.254,0.303,0.022
37.54,-0.167,0.281,-0.069
37.55,-0.073,0.117,-0.143
37.56,-0.005,-0.135,-0.147
37.57,-0.013,-0.478,0.086
37.58,-0.2,-0.197,0.281
37.59,-0.306,0.028,0.398
37.6,-0.356,0.18,0.165
37.61,-0.329,0.25,-0.115
37.62,-0.348,0.031,-0.228
37.63,-0.387,-0.187,-0.134
37.64,-0.417,0.014,0.001
37.65,-0.244,-0.012,0.073
37.66,-0.141,0.167,0.034
37.67,-0.068,0.252,-0.024
37.68,-0.02,0.047,0.083
37.69,-0.104,0.029,0.133
37.7,-0.291,-0.207,0.137
37.71,-0.379,-0.248,0.084
37.72,-0.321,-0.09,-0.032
37.73,-0.393,0.119,-0.023
37.74,-0.321,0.193,-0.013
37.75,-0.252,0.178,-0.051
37.76,-0.249,0.005,0.008
37.77,-0.169,-0.057,-0.041
37.78,-0.152,0.026,-0.011
37.79,-0.158,-0.027,0.06
37.8,-0.135,0.219,0.043
37.81,-0.176,0.19,0.014
37.82,-0.147,-0.128,0.035
37.83,-0.27,-0.125,-0.862
37.84,-0.34,-0.262,0.132
37.85,-0.302,-0.191,0.108
37.86,-0.361,0.045,-0.004
37.87,-0.326,0.255,-0.01
37.88,-0.0,-0.0,-0.841
37.89,-0.217,-0.077,0.102
37.9,-0.256,-0.011,0.091
37.91,-0.208,-0.04,0.073
37.92,-0.276,0.11,0.031
37.93,-0.256,-0.017,-0.025
37.94,-0.238,-0.143,-0.051
37.95,-0.327,0.067,0.048
37.96,-0.281,0.139,0.083
37.97,-0.324,0.324,0.047
37.98,-0.231,0.338,-0.022
37.99,-0.078,0.038,-0.116
38.0,-0.066,-0.221,-0.073
38.01,-0.148,-0.406,0.078
38.02,-0.244,-0.346,0.31
38.03,-0.313,0.038,0.322
38.04,-0.231,0.135,0.116
38.05,-0.24,0.193,-0.129
38.06,-0.281,0.145,-0.206
38.07,-0.375,-0.087,-0.086
38.08,-0.32,-0.018,-0.052
38.09,-0.285,0.113,0.014
38.1,-0.237,0.103,0.057
38.11,-0.112,0.262,0.017
38.12,-0.101,0.12,0.075
38.13,-0.155,-0.123,0.104
38.14,-0.268,-0.248,0.11
38.15,-0.332,-0.286,0.138
38.16,-0.246,-0.11,0.018
38.17,-0.261,0.133,-0.022
38.18,-0.261,0.164,-0.044
38.19,-0.219,0.305,-0.044
38.2,-0.359,0.147,0.005
38.21,-0.296,-0.027,-0.034
38.22,-0.197,0.013,-0.083
38.23,-0.213,-0.022,0.049
38.24,-0.202,0.083,0.103
38.25,-0.126,0.128,0.035
38.26,-0.123,-0.16,0.044
38.27,-0.146,-0.284,0.044
38.28,-0.22,-0.227,0.139
38.29,-0.272,-0.085,0.195
38.3,-0.394,0.115,0.092
38.31,-0.361,0.324,-0.078
38.32,-0.251,0.194,-0.144
38.33,-0.296,0.149,-0.138
38.34,-0.225,0.011,-0.056
38.35,-0.202,-0.195,-0.004
38.36,-0.131,-0.078,0.014
38.37,-0.148,-0.004,0.111
38.38,-0.046,0.047,0.167
38.39,-0.154,0.14,0.147
38.4,-0.286,-0.02,0.091
38.41,-0.295,-0.112,-0.069
38.42,-0.427,-0.019,-0.054
38.43,-0.422,0.048,-0.005
38.44,-0.289,0.208,-0.046
38.45,-0.303,0.204,-0.064
38.46,-0.248,0.106,-0.07
38.47,-0.182,0.049,0.042
38.48,-0.142,-0.097,0.103
38.49,-0.046,-0.196,0.081
38.5,-0.067,-0.091,0.073
38.51,-0.135,-0.055,0.111
38.52,-0.263,0.074,0.099
38.53,-0.34,0.14,0.037
38.54,-0.311,-0.044,-0.042
38.55,-0.369,-0.084,-0.075
38.56,-0.384,0.047,-0.034
38.57,-0.326,0.093,0.039
38.58,-0.326,0.265,0.043
38.59,-0.185,0.306,-0.099
38.6,-0.038,-0.079,-0.135
38.61,-0.013,-0.222,-0.084
38.62,-0.022,-0.36,0.097
38.63,-0.199,-0.31,0.344
38.64,-0.27,0.117,0.344
38.65,-0.308,0.198,0.105
38.66,-0.358,0.202,-0.117
38.67,-0.266,0.124,-0.23
38.68,-0.37,-0.107,-0.129
38.69,-0.429,-0.044,-0.047
38.7,-0.337,0.04,-0.017
38.71,-0.2,0.124,0.039
38.72,-0.02,0.233,-0.062
38.73,-0.061,0.104,0.031
38.74,-0.124,-0.117,0.143
38.75,-0.182,-0.164,0.144
38.76,-0.314,-0.251,0.123
38.77,-0.262,-0.113,-0.003
38.78,-0.272,0.119,-0.001
38.79,-0.364,0.236,0.029
38.8,-0.392,0.115,-0.056
38.81,-0.379,0.116,-0.063
38.82,-0.251,-0.164,-0.092
38.83,-0.216,-0.015,-0.06
38.84,-0.201,0.091,0.015
38.85,-0.084,0.006,0.055
38.86,-0.068,0.177,0.008
38.87,-0.098,-0.051,0.055
38.88,-0.201,-0.199,0.165
38.89,-0.267,-0.026,0.148
38.9,-0.283,-0.058,0.067
38.91,-0.415,0.0,-0.085
38.92,-0.41,0.206,-0.121
38.93,-0.291,0.09,-0.095
38.94,-0.241,0.105,-0.054
38.95,-0.252,-0.043,-0.024
38.96,-0.142,-0.16,0.022
38.97,-0.045,0.067,0.04
38.98,-0.097,0.089,0.123
38.99,-0.115,0.05,0.137
39.0,-0.178,0.107,0.056
39.01,-0.354,-0.085,0.001
39.02,-0.414,-0.182,-0.057
39.03,-0.412,0.002,-0.025
39.04,-0.393,0.035,-0.026
39.05,-0.238,0.157,-0.038
39.06,-0.249,0.252,-0.057
39.07,-0.19,0.068,-0.015
39.08,-0.142,0.127,-0.007
39.09,-0.088,-0.135,-0.007
39.1,-0.087,-0.184,0.053
39.11,-0.203,-0.037,0.091
39.12,-0.24,0.082,0.114
39.13,-0.331,0.032,0.092
39.14,-0.28,-0.002,-0.055
39.15,-0.26,-0.104,-0.116
39.16,-0.333,-0.159,-0.008
39.17,-0.309,0.149,0.048
39.18,-0.311,0.271,0.051
39.19,-0.245,0.319,-0.047
39.2,-0.115,0.274,-0.209
39.21,-0.025,-0.242,-0.131
39.22,-0.109,-0.299,0.023
39.23,-0.229,-0.263,0.24
39.24,-0.327,-0.211,0.363
39.25,-0.251,0.154,0.138
39.26,-0.284,0.259,-0.093
39.27,-0.253,0.05,-0.17
39.28,-0.194,0.111,-0.16
39.29,-0.418,-0.222,-0.0
39.3,-0.321,0.011,0.017
39.31,-0.226,0.128,-0.026
39.32,-0.192,0.14,0.013
39.33,-0.109,0.25,-0.873
39.34,-0.145,0.08,0.095
39.35,-0.293,-0.253,0.13
39.36,-0.333,-0.278,0.012
39.37,-0.236,-0.126,0.011
39.38,-0.178,-0.091,0.023
39.39,-0.273,0.293,0.05
39.4,-0.227,0.193,0.01
39.41,-0.24,0.107,-0.038
39.42,-0.306,0.071,-0.06
39.43,-0.284,-0.094,-0.049
39.44,-0.237,0.025,-0.002
39.45,-0.22,0.211,0.023
39.46,-0.142,0.094,0.038
39.47,-0.146,0.051,-0.035
39.48,-0.219,-0.236,0.059
39.49,-0.0,-0.0,-0.851
39.5,-0.21,0.184,-0.07
39.51,-0.241,0.151,-0.072
39.52,-0.221,0.01,-0.017
39.53,-0.226,-0.044,0.049
39.54,-0.222,-0.109,0.103
39.55,-0.192,-0.137,0.084
39.56,-0.16,-0.084,0.078
39.57,-0.157,-0.022,0.092
39.58,-0.212,0.086,0.054
39.59,-0.229,0.057,-0.018
39.6,-0.285,-0.042,-0.047
39.61,-0.317,0.043,-0.036
39.62,-0.329,0.217,0.027
39.63,-0.341,0.174,0.074
39.64,-0.277,0.233,-0.047
39.65,-0.162,0.028,-0.118
39.66,-0.128,-0.328,-0.02
39.67,-0.115,-0.34,0.087
39.68,-0.158,-0.228,0.252
39.69,-0.168,-0.057,0.268
39.7,-0.195,0.266,0.066
39.71,-0.297,0.272,-0.075
39.72,-0.276,0.072,-0.153
39.73,-0.368,0.057,-0.132
39.74,-0.388,-0.106,0.0
39.75,-0.319,-0.037,0.015
39.76,-0.306,0.141,0.007
39.77,-0.168,0.1,0.045
39.78,-0.068,0.138,0.046
39.79,-0.145,-0.022,0.092
39.8,-0.13,-0.313,0.072
39.81,-0.151,-0.142,0.003
39.82,-0.257,-0.153,0.047
39.83,-0.321,0.057,0.041
39.84,-0.321,0.318,0.026
39.85,-0.356,0.226,-0.04
39.86,-0.372,0.138,-0.058
39.87,-0.299,-0.037,-0.104
39.88,-0.242,-0.15,-0.004
39.89,-0.197,0.009,0.043
39.9,-0.062,0.007,0.089
39.91,-0.054,0.06,0.058
39.92,-0.094,-0.065,0.001
39.93,-0.209,-0.125,-0.867
39.94,-0.266,-0.137,0.123
39.95,-0.32,0.067,0.089
39.96,-0.45,0.089,0.033
39.97,-0.335,0.121,-0.115
39.98,-0.205,0.256,-0.157
39.99,-0.256,-0.031,-0.034
40.0,-0.244,-0.073,0.03
40.01,-0.136,-0.082,0.039
40.02,-0.122,-0.129,0.07
40.03,-0.132,0.026,0.098
40.04,-0.157,0.152,0.113
40.05,-0.217,0.006,0.106
40.06,-0.259,0.064,0.033
40.07,-0.357,-0.085,-0.042
40.08,-0.406,-0.071,-0.065
40.09,-0.314,0.107,-0.069
40.1,-0.262,0.208,-0.032
40.11,-0.333,0.173,-0.033
40.12,-0.256,0.129,-0.005
40.13,-0.126,-0.0,-0.86
40.14,-0.094,-0.057,0.048
40.15,-0.066,-0.203,0.074
40.16,-0.1,-0.189,0.109
40.17,-0.191,0.054,0.128
40.18,-0.318,0.094,0.142
40.19,-0.362,0.102,0.061
40.2,-0.299,0.074,-0.143
40.21,-0.401,-0.097,-0.114
40.22,-0.393,-0.063,-0.021
40.23,-0.327,0.172,0.042
40.24,-0.249,0.222,0.088
40.25,-0.09,0.219,-0.038
40.26,0.037,0.061,-0.12
40.27,0.024,-0.306,-0.017
40.28,-0.03,-0.349,0.099
40.29,-0.309,-0.083,0.335
40.3,-0.357,0.028,0.318
40.31,-0.369,0.23,0.004
40.32,-0.46,0.209,-0.183
40.33,-0.288,-0.048,-0.248
40.34,-0.347,-0.084,-0.081
40.35,-0.292,-0.055,0.028
40.36,-0.155,0.01,0.042
40.37,-0.134,0.252,0.072
40.38,-0.034,0.222,0.063
40.39,-0.052,0.14,0.092
40.4,-0.164,-0.129,0.144
40.41,-0.294,-0.352,0.078
40.42,-0.447,-0.263,0.043
40.43,-0.327,-0.085,-0.042
40.44,-0.366,0.125,-0.861
40.45,-0.317,0.35,-0.002
40.46,-0.216,0.229,-0.035
40.47,-0.229,-0.038,-0.057
40.48,-0.11,-0.002,-0.082
40.49,-0.201,-0.131,0.058
40.5,-0.122,0.028,0.095
40.51,-0.146,0.258,0.1
40.52,-0.21,0.106,0.093
40.53,-0.167,-0.042,0.005
40.54,-0.244,-0.158,0.02
40.55,-0.348,-0.366,0.102
40.56,-0.347,-0.072,0.029
40.57,-0.356,0.042,0.057
40.58,-0.241,0.209,-0.037
40.59,-0.176,0.329,-0.045
40.6,-0.235,0.084,0.007
40.61,-0.0,-0.0,-0.84
40.62,-0.326,0.093,0.097
40.63,-0.32,0.085,0.095
40.64,-0.193,0.048,-0.029
40.65,-0.231,0.026,-0.052
40.66,-0.321,-0.089,-0.0
40.67,-0.243,0.02,0.043
40.68,-0.292,0.283,0.075
40.69,-0.255,0.249,0.058
40.7,-0.146,0.19,-0.067
40.71,-0.117,-0.033,-0.125
40.72,-0.176,-0.392,-0.008
40.73,-0.202,-0.282,0.163
40.74,-0.298,-0.186,0.346
40.75,-0.165,0.058,0.174
40.76,-0.235,0.319,-0.001
40.77,-0.24,0.082,-0.093
40.78,-0.255,0.072,-0.113
40.79,-0.337,-0.055,-0.02
40.8,-0.344,-0.067,0.021
40.81,-0.333,0.229,-0.011
40.82,-0.161,0.212,0.008
40.83,-0.21,0.08,0.067
40.84,-0.18,-0.03,0.077
40.85,-0.146,-0.308,0.09
40.86,-0.198,-0.27,0.095
40.87,-0.132,-0.031,0.046
40.88,-0.281,0.067,0.088
40.89,-0.293,0.288,0.056
40.9,-0.255,0.346,-0.087
40.91,-0.41,0.045,-0.046
40.92,-0.333,-0.075,-0.109
40.93,-0.291,-0.067,-0.027
40.94,-0.288,-0.121,0.075
40.95,-0.174,0.186,0.082
40.96,-0.098,0.093,0.065
40.97,0.0,-0.007,0.002
40.98,-0.093,-0.137,0.053
40.99,-0.291,-0.235,0.188
41.0,-0.218,-0.125,0.117
41.01,-0.421,0.065,0.089
41.02,-0.429,0.12,-0.012
41.03,-0.268,0.244,-0.121
41.04,-0.323,0.153,-0.07
41.05,-0.277,-0.066,-0.042
41.06,-0.253,-0.091,0.008
41.07,-0.144,-0.093,0.007
41.08,-0.067,-0.059,0.092
41.09,-0.036,0.097,0.102
41.1,-0.161,0.146,0.129
41.11,-0.288,-0.057,0.052
41.12,-0.292,0.017,-0.05
41.13,-0.423,-0.052,0.002
41.14,-0.444,0.022,-0.034
41.15,-0.272,0.191,-0.042
41.16,-0.258,0.118,-0.035
41.17,-0.246,0.173,-0.02
41.18,-0.196,0.049,0.015
41.19,-0.018,-0.181,0.043
41.2,-0.092,-0.101,0.036
41.21,-0.163,-0.107,0.084
41.22,-0.19,0.013,0.143
41.23,-0.28,0.162,0.103
41.24,-0.351,0.193,0.023
41.25,-0.287,-0.147,-0.123
41.26,-0.345,-0.09,-0.077
41.27,-0.276,-0.053,0.021
41.28,-0.29,0.1,0.098
41.29,-0.394,0.318,0.069
41.3,-0.143,0.123,-0.072
41.31,0.018,0.128,-0.19
41.32,-0.033,-0.251,-0.089
41.33,-0.182,-0.379,0.095
41.34,-0.295,-0.242,0.274
41.35,-0.261,0.054,0.29
41.36,-0.281,0.177,0.109
41.37,-0.291,0.298,-0.115
41.38,-0.29,0.084,-0.181
41.39,-0.381,-0.125,-0.867
41.4,-0.342,0.019,-0.02
41.41,-0.329,-0.05,0.038
41.42,-0.195,0.111,0.029
41.43,-0.04,0.24,-0.028
41.44,-0.082,0.07,0.069
41.45,-0.123,-0.034,0.091
41.46,-0.248,-0.202,0.116
41.47,-0.331,-0.238,0.108
41.48,-0.252,0.034,0.024
41.49,-0.357,0.125,-0.863
41.5,-0.318,0.25,-0.08
41.51,-0.337,0.156,-0.057
41.52,-0.331,-0.099,0.018
41.53,-0.16,-0.107,-0.025
41.54,-0.256,-0.131,0.058
41.55,-0.15,0.022,0.109
41.56,-0.083,0.235,0.047
41.57,-0.14,0.168,0.047
41.58,-0.175,-0.086,0.024
41.59,-0.254,-0.09,0.057
41.6,-0.357,-0.159,0.085
41.61,-0.379,-0.158,0.015
41.62,-0.41,0.103,0.026
41.63,-0.269,0.178,-0.015
41.64,-0.183,0.176,-0.018
41.65,-0.139,0.088,-0.047
41.66,-0.167,-0.106,-0.013
41.67,-0.121,-0.066,-0.002
41.68,-0.138,-0.007,0.075
41.69,-0.197,0.073,0.132
41.7,-0.229,0.123,0.098
41.71,-0.324,0.074,0.071
41.72,-0.347,-0.127,-0.029
41.73,-0.371,-0.12,-0.035
41.74,-0.415,-0.07,0.002
41.75,-0.235,0.076,-0.04
41.76,-0.174,0.22,-0.053
41.77,-0.163,0.25,-0.004
41.78,-0.153,0.202,0.033
41.79,-0.131,0.037,0.046
41.8,-0.095,-0.244,0.04
41.81,-0.206,-0.234,0.059
41.82,-0.282,-0.093,0.123
41.83,-0.274,-0.058,0.103
41.84,-0.383,0.225,0.022
41.85,-0.298,0.123,-0.091
41.86,-0.238,-0.079,-0.09
41.87,-0.253,-0.009,-0.053
41.88,-0.231,-0.0,-0.861
41.89,-0.258,0.137,0.149
41.9,-0.2,0.35,0.053
41.91,-0.119,0.159,-0.055
41.92,-0.111,-0.073,-0.109
41.93,-0.111,-0.229,-0.042
41.94,-0.198,-0.375,0.193
41.95,-0.353,-0.123,0.25
41.96,-0.361,0.134,0.197
41.97,-0.267,0.131,-0.032
41.98,-0.26,0.223,-0.157
41.99,-0.225,0.052,-0.115
42.0,-0.334,-0.106,-0.021
42.01,-0.286,-0.003,0.046
42.02,-0.184,0.098,0.052
42.03,-0.14,0.144,0.059
42.04,-0.114,0.249,0.039
42.05,-0.158,-0.08,0.116
42.06,-0.252,-0.125,-0.858
42.07,-0.399,-0.27,0.063
42.08,-0.365,-0.309,0.047
42.09,-0.231,0.054,-0.032
42.1,-0.305,0.175,0.036
42.11,-0.26,0.287,0.008
42.12,-0.197,0.211,-0.045
42.13,-0.208,0.055,-0.011
42.14,-0.19,-0.116,-0.009
42.15,-0.179,-0.035,0.063
42.16,-0.232,0.07,0.132
42.17,-0.223,0.125,-0.852
42.18,-0.216,0.091,-0.028
42.19,-0.22,-0.178,-0.05
42.2,-0.225,-0.257,0.022
42.21,-0.311,-0.154,0.137
42.22,-0.282,-0.052,0.149
42.23,-0.287,0.182,0.047
42.24,-0.225,0.299,0.014
42.25,-0.155,0.151,-0.044
42.26,-0.19,0.108,-0.03
42.27,-0.217,-0.125,-0.846
42.28,-0.215,-0.176,0.016
42.29,-0.281,-0.055,0.077
42.3,-0.226,-0.03,0.127
42.31,-0.203,0.107,0.172
42.32,-0.269,0.111,0.097
42.33,-0.276,-0.121,0.01
42.34,-0.329,-0.085,-0.02
42.35,-0.323,0.043,0.01
42.36,-0.257,0.125,0.012
42.37,-0.239,0.222,-0.025
42.38,-0.212,0.209,-0.032
42.39,-0.196,0.064,0.007
42.4,-0.18,-0.017,0.046
42.41,-0.174,-0.199,0.125
42.42,-0.19,-0.159,0.105
42.43,-0.213,-0.059,0.091
42.44,-0.225,-0.0,-0.846
42.45,-0.288,0.245,0.041
42.46,-0.257,0.118,-0.032
42.47,-0.225,-0.144,-0.055
42.48,-0.275,0.01,-0.029
42.49,-0.284,0.046,0.083
42.5,-0.309,0.164,0.157
42.51,-0.328,0.316,0.039
42.52,-0.166,0.177,-0.074
42.53,-0.088,-0.138,-0.109
42.54,-0.105,-0.343,0.006
42.55,-0.177,-0.349,0.233
42.56,-0.276,-0.184,0.364
42.57,-0.25,0.217,0.192
42.58,-0.199,0.163,-0.05
42.59,-0.266,0.243,-0.14
42.6,-0.326,0.111,-0.1
42.61,-0.376,-0.121,-0.001
42.62,-0.358,0.018,-0.02
42.63,-0.308,0.029,0.033
42.64,-0.199,0.091,0.027
42.65,-0.036,0.151,0.071
42.66,-0.124,-0.0,0.156
42.67,-0.098,-0.162,0.108
42.68,-0.274,-0.189,0.068
42.69,-0.277,-0.135,0.046
42.7,-0.259,0.095,0.03
42.71,-0.368,0.256,0.054
42.72,-0.289,0.169,-0.018
42.73,-0.306,0.129,-0.074
42.74,-0.326,-0.039,-0.04
42.75,-0.245,-0.126,-0.041
42.76,-0.18,-0.027,0.054
42.77,-0.122,0.086,0.071
42.78,-0.081,0.154,0.062
42.79,-0.043,0.108,0.027
42.8,-0.171,-0.196,0.092
42.81,-0.336,-0.199,0.195
42.82,-0.325,-0.152,0.192
42.83,-0.4,-0.041,0.104
42.84,-0.412,0.165,-0.061
42.85,-0.325,0.179,-0.151
42.86,-0.246,0.161,-0.101
42.87,-0.177,0.048,-0.07
42.88,-0.15,-0.062,0.032
42.89,-0.032,-0.119,0.002
42.9,-0.054,0.014,0.085
42.91,-0.177,0.08,0.239
42.92,-0.213,0.123,0.179
42.93,-0.344,0.054,0.074
42.94,-0.364,-0.099,-0.02
42.95,-0.371,-0.11,-0.086
42.96,-0.463,-0.019,-0.052
42.97,-0.274,0.05,-0.014
42.98,-0.17,0.207,-0.031
42.99,-0.194,0.181,-0.031
43.0,-0.113,0.106,-0.009
43.01,-0.125,-0.006,0.06
43.02,-0.111,-0.083,0.136
43.03,-0.17,-0.144,0.124
43.04,-0.231,-0.042,0.086
43.05,-0.256,0.051,0.066
43.06,-0.363,0.084,0.032
43.07,-0.321,0.009,-0.083
43.08,-0.284,-0.203,-0.031
43.09,-0.375,-0.009,0.034
43.1,-0.286,0.057,0.074
43.11,-0.0,-0.0,-0.844
43.12,-0.28,-0.298,0.105
43.13,-0.361,-0.145,0.046
43.14,-0.289,-0.229,0.006
43.15,-0.342,0.131,0.004
43.16,-0.307,0.263,-0.007
43.17,-0.22,0.044,-0.024
43.18,-0.25,0.124,0.017
43.19,-0.187,-0.008,-0.001
43.2,-0.173,0.022,0.045
43.21,-0.184,0.183,0.056
43.22,-0.225,0.086,0.06
43.23,-0.209,0.044,0.002
43.24,-0.178,-0.127,-0.036
43.25,-0.325,-0.331,0.121
43.26,-0.31,-0.164,0.155
43.27,-0.258,-0.042,0.082
43.28,-0.267,0.02,0.034
43.29,-0.179,0.305,-0.099
43.3,-0.188,0.242,-0.057
43.31,-0.225,0.008,-0.008
43.32,-0.231,0.025,-0.053
43.33,-0.248,-0.026,0.018
43.34,-0.194,-0.065,0.061
43.35,-0.195,0.125,-0.856
43.36,-0.254,0.037,0.139
43.37,-0.25,-0.065,0.061
43.38,-0.284,-0.035,0.014
43.39,-0.242,-0.192,-0.016
43.4,-0.326,0.067,0.037
43.41,-0.302,0.084,0.053
43.42,-0.167,0.222,-0.021
43.43,-0.248,0.167,-0.021
43.44,-0.289,0.095,0.024
43.45,-0.187,-0.003,0.049
43.46,-0.16,-0.106,0.029
43.47,-0.277,-0.143,0.037
43.48,-0.236,-0.042,0.077
43.49,-0.146,0.122,0.075
43.5,-0.302,-0.0,-0.853
43.51,-0.189,0.028,-0.022
43.52,-0.173,-0.12,-0.07
43.53,-0.337,-0.131,0.04
43.54,-0.262,0.179,0.053
43.55,-0.0,-0.0,-0.829
43.56,-0.31,-0.342,0.11
43.57,-0.275,-0.203,0.051
43.58,-0.185,-0.005,-0.028
43.59,-0.296,0.116,0.023
43.6,-0.232,0.296,-0.008
43.61,-0.204,0.219,-0.837
43.62,-0.334,-0.003,0.08
43.63,-0.282,-0.039,0.013
43.64,-0.287,-0.145,0.021
43.65,-0.26,0.017,0.029
43.66,-0.194,0.177,0.025
43.67,-0.111,0.047,0.047
43.68,-0.07,-0.07,0.009
43.69,-0.245,-0.223,0.198
43.7,-0.198,-0.238,0.219
43.71,-0.24,0.017,0.118
43.72,-0.382,0.139,0.084
43.73,-0.287,0.233,-0.044
43.74,-0.316,0.276,-0.066
43.75,-0.282,-0.044,-0.059
43.76,-0.216,-0.095,-0.008
43.77,-0.234,-0.084,0.045
43.78,-0.132,-0.201,0.1
43.79,-0.143,0.011,0.104
43.8,-0.135,0.16,0.15
43.81,-0.186,0.012,0.143
43.82,-0.328,0.055,0.036
43.83,-0.321,-0.026,-0.038
43.84,-0.318,0.034,-0.021
43.85,-0.335,0.139,-0.025
43.86,-0.324,0.127,-0.015
43.87,-0.259,0.075,-0.019
43.88,-0.265,0.066,0.028
43.89,-0.0,-0.0,-0.825
43.9,-0.246,0.182,0.18
43.91,-0.335,0.278,-0.078
43.92,-0.369,0.017,-0.159
43.93,-0.434,-0.102,-0.116
43.94,-0.426,-0.021,-0.019
43.95,-0.225,-0.031,0.039
43.96,-0.153,0.115,0.026
43.97,-0.071,0.255,-0.003
43.98,0.015,0.139,0.031
43.99,-0.13,0.028,0.208
44.0,-0.258,-0.185,0.204
44.01,-0.337,-0.252,0.117
44.02,-0.296,-0.118,0.021
44.03,-0.298,-0.019,0.048
44.04,-0.421,0.222,0.034
44.05,-0.36,0.164,0.014
44.06,-0.295,0.019,-0.014
44.07,-0.192,0.057,-0.123
44.08,-0.165,-0.032,-0.013
44.09,-0.154,0.01,0.105
44.1,-0.092,0.23,0.077
44.11,-0.13,0.077,0.1
44.12,-0.168,-0.125,-0.839
44.13,-0.178,-0.065,0.097
44.14,-0.388,-0.21,0.239
44.15,-0.371,-0.112,0.1
44.16,-0.391,0.074,-0.001
44.17,-0.388,0.037,-0.03
44.18,-0.169,0.211,-0.069
44.19,-0.223,0.169,-0.044
44.2,-0.143,-0.095,0.006
44.21,-0.035,-0.029,-0.005
44.22,-0.122,0.073,0.085
44.23,-0.177,-0.0,-0.835
44.24,-0.21,0.132,0.163
44.25,-0.269,0.084,0.119
44.26,-0.356,-0.126,0.039
44.27,-0.405,-0.125,0.038
44.28,-0.412,-0.102,0.015
44.29,-0.345,0.006,0.049
44.3,-0.205,0.169,-0.009
44.31,-0.118,0.197,-0.05
44.32,-0.194,0.243,-0.015
44.33,-0.207,0.161,0.086
44.34,-0.094,-0.053,0.067
44.35,-0.133,-0.073,0.055
44.36,-0.242,-0.167,0.111
44.37,-0.258,-0.106,0.167
44.38,-0.345,0.013,0.149
44.39,-0.0,-0.0,-0.82
44.4,-0.348,-0.18,0.034
44.41,-0.223,0.056,0.031
44.42,-0.14,0.055,0.051
44.43,-0.09,0.305,0.03
44.44,-0.072,0.269,0.097
44.45,-0.174,-0.114,0.151
44.46,-0.328,-0.212,0.067
44.47,-0.362,-0.232,0.085
44.48,-0.302,-0.193,0.029
44.49,-0.325,0.109,0.059
44.5,-0.246,0.211,0.043
44.51,-0.188,0.208,0.024
44.52,-0.279,0.043,-0.012
44.53,-0.223,-0.105,-0.016
44.54,-0.164,-0.045,-0.007
44.55,-0.167,0.104,0.067
44.56,-0.23,0.142,0.128
44.57,-0.0,-0.0,-0.821
44.58,-0.336,0.019,0.065
44.59,-0.269,0.125,0.073
44.6,-0.201,0.221,0.014
44.61,-0.197,0.239,-0.05
44.62,-0.206,0.099,0.002
44.63,-0.203,0.003,0.09
44.64,-0.198,-0.07,0.113
44.65,-0.199,-0.217,0.092
44.66,-0.206,-0.056,0.062
44.67,-0.25,-0.029,0.1
44.68,-0.26,0.061,0.107
44.69,-0.195,0.1,0.015
44.7,-0.221,-0.076,-0.018
44.71,-0.279,-0.03,-0.028
44.72,-0.318,0.178,0.052
44.73,-0.364,0.126,0.146
44.74,-0.27,0.31,0.006
44.75,-0.122,0.177,-0.111
44.76,-0.058,-0.202,-0.09
44.77,-0.232,-0.285,0.064
44.78,-0.228,-0.315,0.257
44.79,-0.219,-0.183,0.329
44.8,-0.173,0.148,0.121
44.81,-0.249,0.235,-0.027
44.82,-0.277,0.116,-0.103
44.83,-0.287,0.138,-0.115
44.84,-0.375,-0.121,-0.005
44.85,-0.32,-0.06,0.03
44.86,-0.283,0.135,0.044
44.87,-0.154,0.108,0.068
44.88,-0.107,0.202,-0.001
44.89,-0.207,-0.007,0.11
44.9,-0.198,-0.203,0.098
44.91,-0.202,-0.119,0.09
44.92,-0.214,-0.257,0.053
44.93,-0.239,0.052,0.018
44.94,-0.288,0.208,0.069
44.95,-0.28,0.219,-0.846
44.96,-0.322,0.157,-0.019
44.97,-0.296,0.058,-0.055
44.98,-0.281,-0.118,-0.02
44.99,-0.235,0.007,0.005
45.0,-0.195,0.116,0.066
45.01,-0.168,-0.036,0.092
45.02,-0.068,0.019,0.049
45.03,-0.112,-0.221,0.106
45.04,-0.266,-0.24,0.207
45.05,-0.274,-0.04,0.176
45.06,-0.343,-0.0,-0.843
45.07,-0.351,0.187,-0.007
45.08,-0.282,0.342,-0.121
45.09,-0.337,0.091,-0.056
45.1,-0.167,0.009,-0.072
45.11,-0.211,-0.069,0.037
45.12,-0.196,-0.166,0.11
45.13,-0.082,-0.088,0.086
45.14,-0.14,0.055,0.119
45.15,-0.136,0.034,0.148
45.16,-0.23,0.079,0.12
45.17,-0.366,-0.019,0.029
45.18,-0.365,-0.083,-0.034
45.19,-0.387,0.072,0.009
45.2,-0.301,0.165,-0.041
45.21,-0.272,0.152,-0.043
45.22,-0.293,0.158,0.024
45.23,-0.198,0.089,0.023
45.24,-0.11,-0.017,0.036
45.25,-0.091,-0.178,0.052
45.26,-0.072,-0.161,0.119
45.27,-0.185,-0.056,0.152
45.28,-0.0,-0.0,-0.826
45.29,-0.368,-0.086,-0.004
45.3,-0.302,0.074,0.065
45.31,-0.181,0.198,0.116
45.32,0.016,0.149,0.009
45.33,-0.005,0.185,0.065
45.34,-0.117,-0.143,0.191
45.35,-0.24,-0.253,0.161
45.36,-0.354,-0.282,0.142
45.37,-0.256,-0.04,0.041
45.38,-0.382,0.077,0.049
45.39,-0.396,0.292,-0.001
45.4,-0.354,0.138,-0.019
45.41,-0.316,-0.004,-0.052
45.42,-0.209,-0.002,-0.083
45.43,-0.19,-0.171,-0.01
45.44,-0.025,0.15,-0.004
45.45,-0.068,0.176,0.101
45.46,-0.164,0.083,0.133
45.47,-0.076,-0.002,0.082
45.48,-0.272,-0.211,0.152
45.49,-0.37,-0.194,0.127
45.5,-0.329,-0.075,0.004
45.51,-0.448,-0.0,-0.846
45.52,-0.346,0.242,-0.083
45.53,-0.217,0.219,-0.061
45.54,-0.192,0.062,0.011
45.55,-0.144,-0.044,-0.03
45.56,-0.165,-0.029,0.083
45.57,-0.054,-0.127,0.064
45.58,-0.141,0.142,0.121
45.59,-0.208,0.055,0.162
45.6,-0.266,0.046,0.1
45.61,-0.382,-0.033,0.001
45.62,-0.362,-0.181,-0.026
45.63,-0.394,-0.033,0.01
45.64,-0.344,0.084,0.042
45.65,-0.209,0.176,0.018
45.66,-0.186,0.214,-0.029
45.67,-0.181,0.181,-0.025
45.68,-0.168,-0.025,0.021
45.69,-0.118,-0.058,0.017
45.7,-0.147,-0.143,0.056
45.71,-0.225,-0.087,0.164
45.72,-0.186,0.032,0.106
45.73,-0.311,0.105,0.122
45.74,-0.321,0.014,0.009
45.75,-0.202,-0.024,-0.068
45.76,-0.295,-0.141,-0.017
45.77,-0.329,0.034,0.034
45.78,-0.261,0.23,0.028
45.79,-0.281,0.237,0.018
45.8,-0.151,0.279,-0.102
45.81,-0.053,0.039,-0.098
45.82,-0.162,-0.299,0.048
45.83,-0.13,-0.306,0.175
45.84,-0.283,-0.171,0.301
45.85,-0.28,-0.029,0.208
45.86,-0.3,0.233,0.018
45.87,-0.28,0.072,-0.05
45.88,-0.276,0.062,-0.092
45.89,-0.395,-0.088,-0.035
45.9,-0.306,-0.086,-0.006
45.91,-0.187,0.079,-0.023
45.92,-0.252,0.312,0.058
45.93,-0.102,0.159,0.063
45.94,-0.129,0.109,0.014
45.95,-0.174,-0.091,0.007
45.96,-0.224,-0.371,0.103
45.97,-0.38,-0.147,0.121
45.98,-0.218,-0.083,0.06
45.99,-0.26,0.093,0.036
46.0,-0.238,0.319,-0.012
46.01,-0.326,0.184,-0.012
46.02,-0.314,0.02,-0.042
46.03,-0.161,0.047,-0.099
46.04,-0.196,-0.139,0.02
46.05,-0.244,0.087,0.065
46.06,-0.148,0.148,0.053
46.07,-0.159,0.011,0.093
46.08,-0.158,0.0,-0.024
46.09,-0.2,-0.331,0.075
46.1,-0.252,-0.206,0.122
46.11,-0.3,0.007,0.113
46.12,-0.393,0.042,0.11
46.13,-0.278,0.259,-0.033
46.14,-0.0,-0.0,-0.843
46.15,-0.109,-0.175,0.078
46.16,-0.099,-0.082,0.106
46.17,-0.214,0.16,0.136
46.18,-0.311,0.12,0.089
46.19,-0.234,0.03,-0.026
46.2,-0.29,-0.061,-0.101
46.21,-0.43,-0.116,0.022
46.22,-0.35,0.063,0.08
46.23,-0.295,0.227,0.093
46.24,-0.243,0.208,-0.023
46.25,-0.119,0.183,-0.145
46.26,-0.068,-0.133,-0.096
46.27,-0.035,-0.354,0.039
46.28,-0.182,-0.231,0.212
46.29,-0.312,-0.067,0.303
46.3,-0.256,0.147,0.148
46.31,-0.276,0.284,-0.041
46.32,-0.278,0.094,-0.129
46.33,-0.348,-0.018,-0.12
46.34,-0.388,-0.095,-0.028
46.35,-0.334,-0.014,0.025
46.36,-0.255,0.115,0.04
46.37,-0.171,0.187,0.009
46.38,-0.074,0.086,0.037
46.39,-0.062,-0.038,0.033
46.4,-0.158,-0.208,0.101
46.41,-0.0,-0.0,-0.843
46.42,-0.323,0.123,-0.074
46.43,-0.263,0.06,-0.043
46.44,-0.141,-0.132,0.045
46.45,-0.203,-0.032,0.053
46.46,-0.145,-0.012,0.062
46.47,-0.111,0.023,0.116
46.48,-0.068,0.202,0.062
46.49,-0.271,0.086,0.107
46.5,-0.346,-0.07,0.055
46.51,-0.338,-0.042,-0.022
46.52,-0.387,-0.064,-0.03
46.53,-0.331,0.016,-0.032
46.54,-0.346,0.12,-0.004
46.55,-0.228,0.154,0.003
46.56,-0.146,0.157,0.015
46.57,-0.154,0.034,0.048
46.58,-0.061,-0.143,-0.0
46.59,-0.153,-0.128,0.081
46.6,-0.172,-0.08,0.187
46.61,-0.222,0.057,0.117
46.62,-0.346,0.179,0.061
46.63,-0.281,-0.018,-0.111
46.64,-0.353,-0.062,-0.099
46.65,-0.387,-0.041,-0.029
46.66,-0.271,-0.076,0.08
46.67,-0.263,0.229,0.056
46.68,-0.186,0.277,-0.035
46.69,-0.092,0.127,-0.085
46.7,-0.01,-0.051,-0.09
46.71,-0.089,-0.299,0.08
46.72,-0.26,-0.331,0.239
46.73,-0.274,-0.095,0.278
46.74,-0.295,0.138,0.188
46.75,-0.352,0.195,-0.067
46.76,-0.333,0.176,-0.169
46.77,-0.278,-0.09,-0.152
46.78,-0.32,-0.008,-0.077
46.79,-0.291,0.016,0.09
46.8,-0.215,0.119,0.079
46.81,-0.062,0.239,0.044
46.82,-0.1,0.05,0.098
46.83,-0.205,-0.11,0.109
46.84,-0.23,-0.146,0.096
46.85,-0.313,-0.267,0.105
46.86,-0.325,-0.125,-0.002
46.87,-0.356,0.144,-0.031
46.88,-0.262,0.085,-0.038
46.89,-0.223,0.235,-0.095
46.9,-0.332,0.082,-0.031
46.91,-0.188,-0.05,-0.022
46.92,-0.167,0.083,-0.005
46.93,-0.202,0.089,0.086
46.94,-0.136,0.155,0.091
46.95,-0.156,0.084,0.036
46.96,-0.156,-0.109,0.035
46.97,-0.231,-0.217,0.015
46.98,-0.389,-0.205,0.108
46.99,-0.301,-0.133,0.08
47.0,-0.281,0.063,-0.015
47.01,-0.403,0.207,-0.025
47.02,-0.157,0.146,-0.063
47.03,-0.208,0.209,-0.052
47.04,-0.154,0.024,-0.04
47.05,-0.143,-0.044,0.02
47.06,-0.143,0.003,0.039
47.07,-0.186,0.021,0.084
47.08,-0.0,-0.0,-0.851
47.09,-0.256,-0.012,-0.013
47.1,-0.337,0.103,0.11
47.11,-0.316,0.287,0.111
47.12,-0.264,0.357,-0.03
47.13,-0.178,0.144,-0.142
47.14,-0.128,-0.193,-0.131
47.15,-0.189,-0.301,0.043
47.16,-0.178,-0.372,0.201
47.17,-0.227,-0.164,0.303
47.18,-0.186,0.11,0.188
47.19,-0.226,0.216,0.033
47.2,-0.24,0.178,-0.128
47.21,-0.279,0.055,-0.17
47.22,-0.369,-0.069,-0.08
47.23,-0.359,0.052,0.014
47.24,-0.375,0.2,0.051
47.25,-0.198,0.07,-0.023
47.26,-0.119,0.154,-0.045
47.27,-0.129,-0.038,0.071
47.28,-0.121,-0.271,0.175
47.29,-0.244,-0.196,0.145
47.3,-0.0,-0.0,-0.849
47.31,-0.326,0.042,-0.05
47.32,-0.302,0.031,-0.104
47.33,-0.209,-0.104,-0.032
47.34,-0.012,-0.101,0.027
47.35,-0.071,0.075,0.054
47.36,-0.143,-0.045,0.13
47.37,-0.123,0.061,0.111
47.38,-0.306,0.018,0.132
47.39,-0.368,-0.105,0.085
47.4,-0.375,0.008,-0.033
47.41,-0.401,0.089,-0.035
47.42,-0.269,0.116,-0.077
47.43,-0.337,0.206,-0.06
47.44,-0.293,0.098,-0.031
47.45,-0.129,0.087,-0.042
47.46,-0.1,-0.013,-0.005
47.47,-0.028,-0.214,0.027
47.48,-0.104,0.043,0.142
47.49,-0.196,-0.044,0.236
47.5,-0.224,0.037,0.113
47.51,-0.351,0.019,-0.015
47.52,-0.296,-0.045,-0.092
47.53,-0.304,-0.12,-0.038
47.54,-0.465,0.069,0.059
47.55,-0.37,0.124,0.058
47.56,-0.294,0.205,-0.025
47.57,-0.143,0.351,-0.114
47.58,-0.057,-0.011,-0.097
47.59,-0.034,-0.154,-0.045
47.6,-0.027,-0.327,0.032
47.61,-0.197,-0.339,0.248
47.62,-0.303,0.041,0.301
47.63,-0.249,0.266,0.172
47.64,-0.332,0.162,-0.029
47.65,-0.317,0.129,-0.248
47.66,-0.394,-0.143,-0.139
