t,ax,ay,az
0.0,-0.297,-0.073,-0.001
0.01,-0.177,-0.047,-0.031
0.02,-0.135,0.076,0.001
0.03,-0.129,0.111,0.031
0.04,-0.117,0.06,0.053
0.05,-0.131,0.024,0.038
0.06,-0.217,-0.212,0.133
0.07,-0.319,-0.117,0.105
0.08,-0.294,-0.114,0.07
0.09,-0.329,-0.123,-0.008
0.1,-0.371,0.215,-0.074
0.11,-0.293,0.244,-0.059
0.12,-0.144,0.046,-0.078
0.13,-0.219,0.185,-0.061
0.14,-0.179,-0.115,0.031
0.15,-0.087,-0.0,0.038
0.16,-0.182,-0.025,0.099
0.17,-0.145,-0.004,0.117
0.18,-0.157,0.075,0.094
0.19,-0.364,-0.058,0.076
0.2,-0.4,-0.172,-0.018
0.21,-0.333,-0.063,-0.071
0.22,-0.318,0.054,-0.03
0.23,-0.0,-0.0,-0.854
0.24,-0.03,-0.244,-0.044
0.25,-0.213,-0.316,0.191
0.26,-0.323,-0.26,0.32
0.27,-0.26,0.096,0.221
0.28,-0.277,0.152,-0.022
0.29,-0.249,0.147,-0.134
0.3,-0.253,0.051,-0.169
0.31,-0.368,-0.023,-0.013
0.32,-0.297,-0.032,-0.014
0.33,-0.226,0.179,-0.033
0.34,-0.241,0.148,0.056
0.35,-0.0,-0.0,-0.849
0.36,-0.245,-0.121,0.144
0.37,-0.269,-0.01,0.084
0.38,-0.332,0.203,-0.01
0.39,-0.25,0.307,-0.112
0.4,-0.287,0.177,-0.077
0.41,-0.283,0.066,-0.082
0.42,-0.214,-0.028,-0.05
0.43,-0.191,-0.118,0.05
0.44,-0.137,-0.037,0.086
0.45,-0.18,0.004,0.132
0.46,-0.162,-0.094,0.149
0.47,-0.153,0.045,0.053
0.48,-0.304,-0.072,0.062
0.49,-0.332,0.002,-0.013
0.5,-0.343,0.158,-0.018
0.51,-0.367,0.143,-0.01
0.52,-0.236,0.23,-0.11
0.53,-0.299,0.088,-0.054
0.54,-0.225,0.011,0.012
0.55,-0.192,-0.014,0.03
0.56,-0.148,-0.133,0.042
0.57,-0.082,-0.169,0.079
0.58,-0.163,-0.034,0.136
0.59,-0.172,0.013,0.147
0.6,-0.295,-0.02,0.073
0.61,-0.274,0.052,-0.031
0.62,-0.276,-0.111,-0.1
0.63,-0.451,0.062,0.011
0.64,-0.363,0.22,0.052
0.65,-0.354,0.188,0.031
0.66,-0.31,0.23,-0.124
0.67,-0.102,0.092,-0.177
0.68,-0.022,-0.258,-0.041
0.69,-0.036,-0.283,0.054
0.7,-0.075,-0.235,0.238
0.71,-0.249,-0.11,0.325
0.72,-0.227,0.263,0.152
0.73,-0.316,0.139,0.027
0.74,-0.344,0.134,-0.156
0.75,-0.332,0.0,-0.18
0.76,-0.486,-0.122,-0.031
0.77,-0.354,0.042,-0.061
0.78,-0.239,0.185,-0.009
0.79,-0.164,0.149,0.017
0.8,0.002,0.165,-0.013
0.81,-0.065,-0.039,0.085
0.82,-0.123,-0.257,0.128
0.83,-0.289,-0.201,0.12
0.84,-0.272,-0.125,-0.866
0.85,-0.247,0.013,0.044
0.86,-0.36,0.274,0.044
0.87,-0.376,0.19,0.01
0.88,-0.405,0.036,-0.057
0.89,-0.322,0.033,-0.096
0.9,-0.25,-0.094,-0.09
0.91,-0.225,-0.013,0.013
0.92,-0.104,0.166,-0.001
0.93,-0.022,0.041,0.066
0.94,-0.059,0.023,0.058
0.95,-0.145,-0.126,0.131
0.96,-0.266,-0.223,0.206
0.97,-0.299,0.018,0.116
0.98,-0.388,0.007,0.033
0.99,-0.397,0.102,-0.106
1.0,-0.348,0.248,-0.158
1.01,-0.358,0.075,-0.056
1.02,-0.0,-0.0,-0.844
1.03,-0.247,0.004,0.115
1.04,-0.336,0.057,0.149
1.05,-0.338,0.013,0.042
1.06,-0.283,-0.041,-0.093
1.07,-0.346,-0.143,-0.065
1.08,-0.0,-0.0,-0.837
1.09,-0.303,0.139,0.04
1.1,-0.287,0.104,0.046
1.11,-0.231,0.228,-0.016
1.12,-0.285,0.155,0.005
1.13,-0.212,0.004,0.051
1.14,-0.139,-0.022,0.021
1.15,-0.196,-0.211,0.043
1.16,-0.169,-0.152,0.102
1.17,-0.15,0.017,0.124
1.18,-0.282,0.047,0.077
1.19,-0.204,0.055,-0.057
1.2,-0.246,-0.024,-0.077
1.21,-0.361,-0.035,0.075
1.22,-0.368,0.109,0.092
1.23,-0.373,0.241,0.076
1.24,-0.263,0.165,-0.023
1.25,-0.088,0.158,-0.156
1.26,-0.11,-0.156,-0.053
1.27,-0.111,-0.332,0.058
1.28,-0.164,-0.234,0.215
1.29,-0.229,-0.125,0.26
1.3,-0.187,0.145,0.14
1.31,-0.244,0.289,-0.011
1.32,-0.287,0.122,-0.095
1.33,-0.345,-0.042,-0.129
1.34,-0.404,-0.072,-0.042
1.35,-0.386,-0.061,0.052
1.36,-0.223,0.106,0.053
1.37,-0.187,0.232,0.01
1.38,-0.119,0.08,0.013
1.39,-0.111,0.016,0.053
1.4,-0.086,-0.203,0.108
1.41,-0.237,-0.285,0.093
1.42,-0.285,-0.102,0.083
1.43,-0.282,0.028,0.058
1.44,-0.271,0.276,0.008
1.45,-0.338,0.343,-0.023
1.46,-0.323,0.032,-0.011
1.47,-0.278,-0.002,-0.093
1.48,-0.299,-0.044,-0.069
1.49,-0.217,-0.197,0.07
1.5,-0.143,0.227,0.045
1.51,-0.14,0.04,0.104
1.52,-0.077,-0.138,0.052
1.53,-0.104,-0.047,0.058
1.54,-0.288,-0.222,0.148
1.55,-0.314,-0.046,0.097
1.56,-0.305,0.139,0.02
1.57,-0.335,0.151,-0.028
1.58,-0.279,0.249,-0.104
1.59,-0.293,0.066,-0.079
1.6,-0.263,-0.143,-0.014
1.61,-0.185,-0.091,0.006
1.62,-0.157,-0.08,0.069
1.63,-0.172,-0.016,0.058
1.64,-0.053,0.095,0.07
1.65,-0.134,0.176,0.102
1.66,-0.26,-0.057,0.077
1.67,-0.339,0.01,0.007
1.68,-0.385,-0.114,-0.022
1.69,-0.355,0.094,-0.046
1.7,-0.344,0.134,-0.03
1.71,-0.308,0.143,-0.024
1.72,-0.249,0.183,-0.026
1.73,-0.2,0.064,0.015
1.74,-0.101,-0.125,0.013
1.75,0.009,-0.137,0.0
1.76,-0.141,-0.12,0.109
1.77,-0.185,-0.08,0.17
1.78,-0.258,0.193,0.141
1.79,-0.39,0.064,0.048
1.8,-0.318,0.034,-0.11
1.81,-0.326,-0.072,-0.096
1.82,-0.403,-0.07,-0.019
1.83,-0.318,0.161,0.021
1.84,-0.249,0.263,0.021
1.85,-0.161,0.215,-0.061
1.86,-0.026,0.055,-0.13
1.87,-0.025,-0.204,-0.024
1.88,-0.081,-0.449,0.13
1.89,-0.24,-0.197,0.258
1.9,-0.326,-0.001,0.321
1.91,-0.309,0.204,0.087
1.92,-0.301,0.329,-0.079
1.93,-0.308,0.01,-0.212
1.94,-0.356,-0.103,-0.174
1.95,-0.383,-0.036,-0.05
1.96,-0.239,-0.026,0.039
1.97,-0.234,0.187,0.071
1.98,-0.086,0.174,0.002
1.99,-0.08,0.072,0.062
2.0,-0.099,-0.046,0.089
2.01,-0.228,-0.198,0.124
2.02,-0.335,-0.27,0.103
2.03,-0.274,0.018,-0.009
2.04,-0.321,0.09,-0.022
2.05,-0.312,0.248,-0.061
2.06,-0.308,0.179,-0.101
2.07,-0.372,-0.066,-0.015
2.08,-0.234,-0.079,-0.052
2.09,-0.179,-0.017,0.012
2.1,-0.155,-0.01,0.059
2.11,-0.077,0.136,0.02
2.12,-0.118,0.181,0.071
2.13,-0.114,-0.109,0.079
2.14,-0.235,-0.037,0.053
2.15,-0.323,-0.156,-0.87
2.16,-0.323,-0.225,0.006
2.17,-0.4,0.094,-0.03
2.18,-0.38,0.119,0.015
2.19,-0.226,0.143,-0.032
2.2,-0.218,0.21,-0.07
2.21,-0.143,-0.063,-0.035
2.22,-0.089,0.015,0.016
2.23,-0.102,-0.011,0.062
2.24,-0.157,0.013,0.116
2.25,-0.163,0.071,0.076
2.26,-0.316,-0.007,0.088
2.27,-0.407,-0.214,0.048
2.28,-0.465,-0.061,0.035
2.29,-0.397,-0.155,-0.003
2.3,-0.205,0.115,-0.07
2.31,-0.197,0.271,-0.061
2.32,-0.175,0.21,-0.042
2.33,-0.151,0.273,-0.018
2.34,-0.12,0.08,-0.035
2.35,-0.131,-0.168,0.008
2.36,-0.213,-0.151,0.054
2.37,-0.275,-0.151,0.164
2.38,-0.342,-0.089,0.211
2.39,-0.341,0.126,0.097
2.4,-0.242,0.018,-0.059
2.41,-0.163,-0.12,-0.164
2.42,-0.181,-0.025,-0.105
2.43,-0.239,0.066,0.059
2.44,-0.308,0.187,0.098
2.45,-0.279,0.397,0.007
2.46,-0.178,0.219,-0.866
2.47,-0.159,-0.017,-0.098
2.48,-0.212,-0.24,0.028
2.49,-0.222,-0.442,0.136
2.5,-0.26,-0.211,0.245
2.51,-0.231,-0.01,0.216
2.52,-0.131,0.182,0.036
2.53,-0.204,0.22,-0.077
2.54,-0.218,0.115,-0.124
2.55,-0.327,-0.083,-0.079
2.56,-0.313,-0.032,-0.057
2.57,-0.375,0.079,0.031
2.58,-0.306,0.162,0.08
2.59,-0.175,0.266,0.012
2.6,-0.181,0.041,0.054
2.61,-0.125,-0.161,0.028
2.62,-0.253,-0.246,0.079
2.63,-0.229,-0.367,0.167
2.64,-0.123,-0.026,-0.005
2.65,-0.257,0.171,0.024
2.66,-0.258,0.215,-0.04
2.67,-0.268,0.289,-0.081
2.68,-0.359,0.087,-0.034
2.69,-0.232,-0.094,-0.079
2.7,-0.339,0.058,-0.018
2.71,-0.238,0.02,0.061
2.72,-0.187,0.115,0.067
2.73,-0.191,0.151,0.07
2.74,-0.051,-0.219,-0.001
2.75,-0.157,-0.301,0.046
2.76,-0.238,-0.236,0.089
2.77,-0.214,-0.109,0.101
2.78,-0.416,0.196,0.108
2.79,-0.298,0.273,-0.016
2.8,-0.224,0.283,-0.123
2.81,-0.277,0.112,-0.094
2.82,-0.264,-0.11,-0.031
2.83,-0.265,-0.146,-0.036
2.84,-0.189,-0.086,0.006
2.85,-0.24,-0.024,0.117
2.86,-0.124,0.114,0.121
2.87,-0.146,0.104,0.083
2.88,-0.262,-0.083,0.041
2.89,-0.2,-0.061,-0.051
2.9,-0.333,-0.02,0.011
2.91,-0.373,0.049,0.02
2.92,-0.23,0.257,-0.083
2.93,-0.327,0.178,-0.06
2.94,-0.344,0.11,-0.059
2.95,-0.267,0.065,0.006
2.96,-0.195,-0.148,0.07
2.97,-0.127,-0.202,0.037
2.98,-0.087,-0.084,0.07
2.99,-0.074,-0.061,0.125
3.0,-0.203,0.221,0.103
3.01,-0.246,0.146,-0.006
3.02,-0.236,-0.058,-0.094
3.03,-0.36,-0.06,-0.092
3.04,-0.0,-0.0,-0.852
3.05,-0.066,-0.043,0.065
3.06,-0.038,-0.073,0.022
3.07,-0.228,-0.186,0.12
3.08,-0.311,-0.234,0.139
3.09,-0.304,0.044,0.008
3.1,-0.0,-0.0,-0.847
3.11,-0.179,-0.125,0.028
3.12,-0.114,-0.043,-0.003
3.13,-0.156,0.04,0.097
3.14,-0.171,0.08,0.15
3.15,-0.229,0.169,0.107
3.16,-0.321,-0.049,0.062
3.17,-0.302,-0.104,-0.076
3.18,-0.399,-0.066,-0.053
3.19,-0.4,0.001,0.001
3.2,-0.248,0.162,-0.022
3.21,-0.212,0.215,-0.025
3.22,-0.0,-0.0,-0.841
3.23,-0.377,-0.223,0.363
3.24,-0.365,0.189,0.181
3.25,-0.342,0.12,-0.031
3.26,-0.204,0.148,-0.186
3.27,-0.221,0.06,-0.145
3.28,-0.273,-0.125,-0.85
3.29,-0.206,0.045,-0.015
3.3,-0.193,0.115,0.05
3.31,-0.132,0.185,0.048
3.32,-0.124,0.237,0.084
3.33,-0.0,-0.0,-0.828
3.34,-0.315,0.02,0.107
3.35,-0.305,0.26,0.031
3.36,-0.189,0.333,-0.015
3.37,-0.19,0.151,-0.035
3.38,-0.279,-0.03,-0.027
3.39,-0.194,-0.147,0.014
3.4,-0.203,-0.186,0.052
3.41,-0.226,0.029,0.107
3.42,-0.183,0.07,0.182
3.43,-0.237,0.131,0.136
3.44,-0.278,-0.005,0.058
3.45,-0.0,-0.0,-0.826
3.46,-0.275,0.295,0.007
3.47,-0.218,0.246,-0.098
3.48,-0.101,-0.076,-0.104
3.49,-0.143,-0.309,0.003
3.5,-0.163,-0.317,0.171
3.51,-0.239,-0.353,0.359
3.52,-0.153,0.133,0.243
3.53,-0.208,0.264,0.052
3.54,-0.265,0.171,-0.104
3.55,-0.335,0.121,-0.143
3.56,-0.42,-0.121,0.002
3.57,-0.369,-0.02,0.027
3.58,-0.363,0.105,0.003
3.59,-0.194,-0.013,0.051
3.6,-0.042,0.228,0.033
3.61,-0.088,-0.008,0.155
3.62,-0.132,-0.244,0.155
3.63,-0.214,-0.156,-0.841
3.64,-0.212,-0.134,0.063
3.65,-0.273,0.034,0.009
3.66,-0.333,0.234,0.039
3.67,-0.354,0.25,-0.834
3.68,-0.411,0.127,0.03
3.69,-0.342,-0.007,-0.061
3.7,-0.243,-0.122,-0.027
3.71,-0.222,-0.012,0.041
3.72,-0.107,0.064,0.102
3.73,-0.046,0.077,0.102
3.74,-0.013,0.035,0.009
3.75,-0.17,-0.139,0.123
3.76,-0.286,-0.236,0.226
3.77,-0.309,-0.026,0.199
3.78,-0.471,-0.002,0.108
3.79,-0.396,0.042,-0.057
3.8,-0.26,0.337,-0.155
3.81,-0.336,0.042,-0.067
3.82,-0.246,0.013,0.019
3.83,-0.099,-0.041,0.017
3.84,-0.06,-0.162,0.05
3.85,-0.063,-0.024,0.112
3.86,-0.167,0.094,-0.833
3.87,-0.193,0.054,0.222
3.88,-0.282,0.032,0.123
3.89,-0.395,-0.053,-0.014
3.9,-0.428,-0.082,-0.07
3.91,-0.355,0.049,-0.021
3.92,-0.33,0.17,0.015
3.93,-0.245,0.169,-0.015
3.94,-0.208,0.17,-0.004
3.95,-0.119,0.024,0.025
3.96,-0.081,-0.031,-0.827
3.97,-0.123,-0.102,0.154
3.98,-0.152,-0.15,0.166
3.99,-0.195,0.018,0.133
4.0,-0.281,0.072,0.123
4.01,-0.344,0.029,0.075
4.02,-0.253,-0.031,-0.02
4.03,-0.347,-0.119,-0.005
4.04,-0.366,-0.066,0.039
4.05,-0.317,0.234,0.081
4.06,-0.304,0.222,0.086
4.07,-0.224,0.311,-0.048
4.08,-0.035,0.115,-0.162
4.09,0.009,-0.304,-0.068
4.1,-0.051,-0.357,0.091
4.11,-0.263,-0.213,0.383
4.12,-0.319,-0.007,0.478
4.13,-0.259,0.252,0.144
4.14,-0.328,0.212,-0.128
4.15,-0.284,-0.031,-0.218
4.16,-0.36,-0.032,-0.127
4.17,-0.433,-0.098,0.047
4.18,-0.269,0.064,0.021
4.19,-0.156,0.143,0.025
4.2,-0.059,0.197,0.037
4.21,-0.011,0.234,0.069
4.22,-0.134,-0.073,0.199
4.23,-0.226,-0.205,0.178
4.24,-0.328,-0.229,0.073
4.25,-0.351,-0.178,0.031
4.26,-0.338,0.02,-0.003
4.27,-0.313,0.286,-0.012
4.28,-0.318,0.115,0.022
4.29,-0.261,0.035,-0.004
4.3,-0.196,0.092,-0.025
4.31,-0.213,-0.092,0.036
4.32,-0.148,0.108,0.05
4.33,-0.167,0.152,0.041
4.34,-0.17,0.011,0.068
4.35,-0.123,-0.018,0.027
4.36,-0.28,-0.232,0.112
4.37,-0.354,-0.271,0.163
4.38,-0.259,-0.046,0.055
4.39,-0.36,0.049,0.066
4.4,-0.249,0.157,-0.035
4.41,-0.172,0.322,-0.101
4.42,-0.264,0.125,-0.008
4.43,-0.187,0.012,-0.012
4.44,-0.167,-0.039,0.019
4.45,-0.191,-0.111,0.092
4.46,-0.173,0.035,0.118
4.47,-0.195,0.052,0.147
4.48,-0.286,-0.058,0.097
4.49,-0.301,-0.006,0.029
4.5,-0.34,-0.17,-0.016
4.51,-0.33,-0.106,0.024
4.52,-0.231,0.17,-0.001
4.53,-0.232,0.168,0.015
4.54,-0.259,0.237,-0.001
4.55,-0.213,0.133,-0.021
4.56,-0.214,0.098,0.054
4.57,-0.173,-0.13,0.04
4.58,-0.199,-0.112,0.069
4.59,-0.197,-0.149,0.092
4.6,-0.163,-0.028,0.055
4.61,-0.308,0.101,0.079
4.62,-0.203,-0.062,0.001
4.63,-0.216,0.021,-0.068
4.64,-0.332,-0.055,0.041
4.65,-0.279,0.014,0.074
4.66,-0.312,0.272,0.084
4.67,-0.353,0.274,0.036
4.68,-0.169,0.227,-0.112
4.69,-0.053,-0.033,-0.182
4.7,-0.108,-0.334,-0.013
4.71,-0.175,-0.379,0.201
4.72,-0.297,-0.103,0.341
4.73,-0.263,-0.004,0.273
4.74,-0.21,0.229,-0.041
4.75,-0.268,0.259,-0.142
4.76,-0.241,-0.054,-0.14
4.77,-0.364,-0.012,-0.033
4.78,-0.324,-0.029,0.023
4.79,-0.25,0.046,0.036
4.8,-0.206,0.242,0.046
4.81,-0.119,0.193,0.039
4.82,-0.209,0.062,0.04
4.83,-0.246,-0.164,0.066
4.84,-0.303,-0.341,0.132
4.85,-0.302,-0.168,0.071
4.86,-0.199,-0.039,-0.006
4.87,-0.223,0.054,-0.003
4.88,-0.154,0.364,-0.045
4.89,-0.292,0.176,0.04
4.9,-0.369,0.02,0.021
4.91,-0.222,0.023,-0.084
4.92,-0.32,-0.045,0.012
4.93,-0.273,0.017,-0.033
4.94,-0.161,0.187,0.04
4.95,-0.189,-0.057,0.084
4.96,-0.084,-0.149,0.002
4.97,-0.172,-0.223,0.087
4.98,-0.232,-0.232,0.186
4.99,-0.168,0.097,0.073
5.0,-0.345,0.259,0.027
5.01,-0.285,0.157,-0.099
5.02,-0.307,0.337,-0.132
5.03,-0.331,-0.092,-0.018
5.04,-0.266,-0.074,-0.021
5.05,-0.254,-0.164,0.04
5.06,-0.166,-0.115,0.056
5.07,-0.092,0.035,0.109
5.08,-0.103,0.158,0.127
5.09,-0.142,0.077,0.072
5.1,-0.286,-0.038,-0.005
5.11,-0.292,0.018,-0.102
5.12,-0.363,-0.078,-0.013
5.13,-0.375,0.173,-0.005
5.14,-0.322,0.125,-0.03
5.15,-0.322,0.102,-0.041
5.16,-0.246,0.113,-0.011
5.17,-0.222,-0.01,0.055
5.18,-0.057,-0.106,0.074
5.19,-0.077,-0.113,0.039
5.2,-0.099,-0.064,0.064
5.21,-0.127,0.064,0.083
5.22,-0.296,0.121,0.099
5.23,-0.345,0.035,0.024
5.24,-0.247,-0.032,-0.115
5.25,-0.386,-0.047,-0.06
5.26,-0.385,-0.036,0.034
5.27,-0.38,0.215,0.061
5.28,-0.273,0.265,0.028
5.29,-0.043,0.153,-0.102
5.3,0.056,0.007,-0.15
5.31,-0.099,-0.301,0.031
5.32,-0.118,-0.346,0.173
5.33,-0.249,-0.116,0.303
5.34,-0.325,0.037,0.236
5.35,-0.316,0.22,-0.012
5.36,-0.38,0.273,-0.149
5.37,-0.282,-0.036,-0.164
5.38,-0.393,-0.033,-0.124
5.39,-0.356,-0.061,-0.033
5.4,-0.215,-0.052,0.018
5.41,-0.106,0.22,0.006
5.42,-0.033,0.201,0.039
5.43,-0.139,0.091,0.09
5.44,-0.16,-0.085,0.108
5.45,-0.238,-0.261,0.09
5.46,-0.327,-0.183,0.067
5.47,-0.293,-0.014,0.027
5.48,-0.389,0.072,0.071
5.49,-0.3,0.292,-0.09
5.5,-0.331,0.217,-0.096
5.51,-0.3,-0.09,-0.082
5.52,-0.15,0.023,-0.111
5.53,-0.214,-0.129,0.031
5.54,-0.117,0.086,0.064
5.55,-0.112,0.128,0.084
5.56,-0.126,0.076,0.065
5.57,-0.142,-0.082,0.073
5.58,-0.307,-0.116,0.132
5.59,-0.36,-0.189,0.101
5.6,-0.36,-0.115,-0.04
5.61,-0.415,0.125,-0.873
5.62,-0.295,0.108,-0.104
5.63,-0.245,0.245,-0.084
5.64,-0.146,0.052,-0.052
5.65,-0.11,-0.097,0.01
5.66,-0.089,-0.03,0.028
5.67,-0.081,-0.025,0.096
5.68,-0.18,0.084,0.15
5.69,-0.177,0.185,0.081
5.7,-0.323,0.035,0.066
5.71,-0.419,-0.057,-0.049
5.72,-0.393,-0.135,-0.084
5.73,-0.443,-0.084,-0.025
5.74,-0.255,0.089,-0.026
5.75,-0.212,0.133,-0.016
5.76,-0.196,0.187,0.01
5.77,-0.089,0.2,-0.001
5.78,-0.072,0.064,0.017
5.79,-0.125,-0.121,0.045
5.8,-0.173,-0.151,0.084
5.81,-0.231,-0.066,0.122
5.82,-0.277,-0.063,0.061
5.83,-0.426,0.062,0.046
5.84,-0.327,0.059,-0.049
5.85,-0.275,-0.095,-0.056
5.86,-0.324,0.019,-0.014
5.87,-0.237,-0.022,0.025
5.88,-0.188,0.224,-0.008
5.89,-0.186,0.302,-0.032
5.9,-0.098,0.179,-0.106
5.91,-0.063,-0.039,-0.112
5.92,-0.153,-0.28,0.042
5.93,-0.233,-0.336,0.25
5.94,-0.377,-0.135,0.299
5.95,-0.32,0.024,0.145
5.96,-0.272,0.159,-0.076
5.97,-0.257,0.177,-0.175
5.98,-0.276,-0.018,-0.129
5.99,-0.298,-0.057,-0.053
6.0,-0.242,0.116,-0.004
6.01,-0.214,0.055,0.018
6.02,-0.197,0.267,0.002
6.03,-0.097,0.202,0.015
6.04,-0.185,-0.004,0.099
6.05,-0.26,-0.191,0.053
6.06,-0.318,-0.264,0.069
6.07,-0.304,-0.298,0.058
6.08,-0.219,0.082,0.027
6.09,-0.266,0.125,0.03
6.1,-0.254,0.222,0.002
6.11,-0.269,0.257,-0.086
6.12,-0.285,-0.071,-0.068
6.13,-0.236,-0.003,-0.086
6.14,-0.26,-0.041,-0.006
6.15,-0.23,0.071,0.103
6.16,-0.126,0.168,0.019
6.17,-0.167,0.001,0.029
6.18,-0.149,-0.196,0.002
6.19,-0.191,-0.225,0.101
6.2,-0.275,-0.149,0.17
6.21,-0.257,0.001,0.028
6.22,-0.389,0.216,-0.029
6.23,-0.301,0.211,-0.083
6.24,-0.22,0.201,-0.1
6.25,-0.258,0.059,-0.043
6.26,-0.215,-0.182,-0.007
6.27,-0.156,-0.068,-0.017
6.28,-0.184,0.011,0.036
6.29,-0.16,-0.0,-0.87
6.3,-0.184,0.135,0.146
6.31,-0.283,0.004,0.08
6.32,-0.278,-0.132,-0.012
6.33,-0.336,-0.065,-0.019
6.34,-0.381,0.03,0.025
6.35,-0.307,0.158,-0.011
6.36,-0.233,0.221,-0.039
6.37,-0.19,0.161,-0.067
6.38,-0.239,0.127,-0.024
6.39,-0.224,-0.097,0.027
6.4,-0.141,-0.185,0.053
6.41,-0.154,-0.117,0.046
6.42,-0.15,-0.06,0.075
6.43,-0.188,0.013,0.121
6.44,-0.297,0.211,0.091
6.45,-0.252,-0.009,-0.001
6.46,-0.231,-0.152,-0.098
6.47,-0.324,0.034,-0.066
6.48,-0.339,0.086,0.066
6.49,-0.333,0.262,0.091
6.5,-0.332,0.332,-0.069
6.51,-0.142,0.029,-0.131
6.52,-0.024,-0.122,-0.134
6.53,-0.077,-0.306,0.028
6.54,-0.168,-0.403,0.243
6.55,-0.248,0.035,0.318
6.56,-0.224,0.15,0.139
6.57,-0.272,0.222,-0.069
6.58,-0.266,0.171,-0.148
6.59,-0.352,0.014,-0.103
6.6,-0.457,-0.115,-0.007
6.61,-0.311,-0.005,-0.053
6.62,-0.282,0.096,0.021
6.63,-0.199,0.17,0.004
6.64,-0.094,0.169,0.006
6.65,-0.085,-0.15,0.067
6.66,-0.083,-0.134,0.022
6.67,-0.288,-0.213,0.109
6.68,-0.243,-0.157,0.076
6.69,-0.248,0.147,0.037
6.7,-0.353,0.237,0.072
6.71,-0.285,0.2,-0.057
6.72,-0.4,0.152,-0.091
6.73,-0.246,-0.176,-0.119
6.74,-0.186,-0.008,-0.091
6.75,-0.198,0.04,0.06
6.76,-0.08,0.016,0.068
6.77,-0.016,0.214,0.04
6.78,-0.086,-0.058,0.075
6.79,-0.186,-0.219,0.124
6.8,-0.316,-0.092,0.147
6.81,-0.337,-0.104,0.067
6.82,-0.479,0.056,0.004
6.83,-0.392,0.126,-0.113
6.84,-0.235,0.185,-0.107
6.85,-0.278,0.075,-0.04
6.86,-0.217,-0.06,-0.003
6.87,-0.134,-0.186,0.013
6.88,-0.063,0.003,-0.026
6.89,-0.095,0.034,0.081
6.9,-0.153,0.089,0.131
6.91,-0.232,0.214,0.057
6.92,-0.343,-0.03,-0.002
6.93,-0.379,-0.066,-0.064
6.94,-0.379,-0.083,-0.038
6.95,-0.379,-0.01,0.022
6.96,-0.293,0.11,-0.046
6.97,-0.232,0.136,-0.046
6.98,-0.167,0.118,-0.062
6.99,-0.116,0.148,-0.008
7.0,-0.123,-0.011,0.028
7.01,-0.094,-0.208,0.041
7.02,-0.109,-0.051,0.07
7.03,-0.255,0.011,0.127
7.04,-0.364,0.028,0.087
7.05,-0.279,0.116,-0.047
7.06,-0.32,-0.092,-0.096
7.07,-0.425,-0.085,-0.024
7.08,-0.327,0.059,0.042
7.09,-0.275,0.12,0.069
7.1,-0.195,0.258,-0.021
7.11,-0.103,0.247,-0.124
7.12,-0.047,-0.166,-0.108
7.13,-0.078,-0.197,-0.04
7.14,-0.203,-0.297,0.17
7.15,-0.299,-0.179,0.294
7.16,-0.294,0.166,0.188
7.17,-0.374,0.187,0.006
7.18,-0.299,0.164,-0.175
7.19,-0.261,0.017,-0.198
7.2,-0.32,-0.139,-0.037
7.21,-0.291,-0.08,-0.011
7.22,-0.218,0.14,0.025
7.23,-0.132,0.159,0.035
7.24,-0.094,0.252,-0.007
7.25,-0.177,0.131,0.063
7.26,-0.145,-0.221,0.068
7.27,-0.303,-0.168,0.062
7.28,-0.365,-0.181,0.039
7.29,-0.291,-0.069,-0.0
7.3,-0.309,0.207,-0.026
7.31,-0.258,0.201,-0.038
7.32,-0.235,0.024,-0.049
7.33,-0.277,-0.017,-0.038
7.34,-0.0,-0.0,-0.859
7.35,-0.255,-0.014,0.078
7.36,-0.39,-0.054,0.049
7.37,-0.298,-0.174,0.024
7.38,-0.227,-0.061,-0.046
7.39,-0.318,0.091,0.01
7.4,-0.203,0.194,-0.052
7.41,-0.194,0.281,-0.073
7.42,-0.0,-0.0,-0.85
7.43,-0.361,-0.248,0.324
7.44,-0.232,0.06,0.201
7.45,-0.2,0.248,-0.004
7.46,-0.26,0.189,-0.119
7.47,-0.147,0.058,-0.187
7.48,-0.338,0.007,-0.055
7.49,-0.279,-0.087,-0.014
7.5,-0.294,0.169,0.065
7.51,-0.28,0.145,0.073
7.52,-0.144,0.146,-0.03
7.53,-0.194,0.086,0.087
7.54,-0.187,-0.294,0.136
7.55,-0.221,-0.254,0.066
7.56,-0.322,-0.192,0.061
7.57,-0.169,-0.073,0.014
7.58,-0.27,0.219,-0.863
7.59,-0.251,0.367,-0.052
7.6,-0.287,0.091,-0.008
7.61,-0.343,0.12,-0.037
7.62,-0.222,-0.09,-0.056
7.63,-0.292,-0.185,0.019
7.64,-0.197,0.128,0.057
7.65,-0.168,0.14,0.088
7.66,-0.116,0.036,0.08
7.67,-0.062,-0.055,-0.004
7.68,-0.234,-0.272,0.101
7.69,-0.259,-0.154,0.135
7.7,-0.197,0.046,0.003
7.71,-0.438,0.088,0.076
7.72,-0.328,0.312,-0.064
7.73,-0.236,0.237,-0.085
7.74,-0.252,-0.004,-0.057
7.75,-0.161,-0.082,-0.067
7.76,-0.24,-0.09,0.023
7.77,-0.1,-0.197,0.086
7.78,-0.131,0.127,0.133
7.79,-0.184,0.093,0.179
7.8,-0.201,0.064,0.102
7.81,-0.379,-0.01,0.011
7.82,-0.347,-0.143,-0.021
7.83,-0.322,0.032,-0.038
7.84,-0.4,0.132,-0.004
7.85,-0.254,0.103,-0.058
7.86,-0.148,0.239,-0.091
7.87,-0.23,0.096,-0.038
7.88,-0.187,-0.131,0.071
7.89,-0.074,-0.064,0.047
7.9,-0.156,-0.206,0.117
7.91,-0.215,-0.027,0.16
7.92,-0.187,0.143,0.131
7.93,-0.31,0.104,0.047
7.94,-0.266,0.029,-0.09
7.95,-0.255,-0.063,-0.126
7.96,-0.323,-0.164,-0.012
7.97,-0.372,0.095,0.074
7.98,-0.331,0.232,0.064
7.99,-0.252,0.22,-0.019
8.0,-0.074,0.243,-0.16
8.01,-0.063,-0.103,-0.096
8.02,-0.117,-0.339,0.048
8.03,-0.142,-0.271,0.201
8.04,-0.253,-0.17,0.317
8.05,-0.229,0.083,0.191
8.06,-0.274,0.358,-0.01
8.07,-0.353,0.05,-0.11
8.08,-0.373,0.008,-0.186
8.09,-0.447,-0.087,-0.104
8.1,-0.353,-0.113,-0.023
8.11,-0.211,0.149,-0.019
8.12,-0.147,0.184,0.003
8.13,-0.034,0.153,0.012
8.14,-0.051,0.084,0.068
8.15,-0.152,-0.185,0.171
8.16,-0.282,-0.285,0.196
8.17,-0.258,-0.086,0.043
8.18,-0.0,-0.0,-0.853
8.19,-0.141,-0.052,-0.025
8.2,-0.12,0.088,-0.046
8.21,-0.178,-0.07,0.054
8.22,-0.163,0.064,0.077
8.23,-0.177,0.114,0.104
8.24,-0.297,-0.011,0.145
8.25,-0.365,-0.09,0.048
8.26,-0.352,-0.172,-0.005
8.27,-0.312,-0.13,-0.02
8.28,-0.279,0.072,-0.017
8.29,-0.22,0.228,-0.024
8.3,-0.22,0.201,-0.053
8.31,-0.202,0.237,-0.059
8.32,-0.154,0.123,-0.02
8.33,-0.162,-0.106,0.029
8.34,-0.177,-0.134,0.043
8.35,-0.232,-0.112,0.148
8.36,-0.246,-0.0,-0.864
8.37,-0.267,0.131,0.099
8.38,-0.294,-0.071,0.017
8.39,-0.194,-0.108,-0.075
8.4,-0.226,-0.045,-0.039
8.41,-0.317,-0.103,0.089
8.42,-0.337,0.266,0.076
8.43,-0.291,0.319,-0.017
8.44,-0.183,0.243,-0.147
8.45,-0.142,0.084,-0.158
8.46,-0.17,-0.284,0.018
8.47,-0.102,-0.374,0.133
8.48,-0.252,-0.207,0.249
8.49,-0.303,-0.015,0.307
8.5,-0.185,0.176,0.087
8.51,-0.236,0.225,-0.098
8.52,-0.25,-0.063,-0.135
8.53,-0.0,-0.0,-0.844
8.54,-0.231,0.11,-0.007
8.55,-0.164,-0.101,0.067
8.56,-0.179,-0.216,0.083
8.57,-0.258,-0.219,0.153
8.58,-0.159,-0.243,0.113
8.59,-0.18,0.072,0.03
8.6,-0.315,0.195,0.043
8.61,-0.257,0.182,-0.03
8.62,-0.284,0.281,-0.099
8.63,-0.32,0.052,-0.055
8.64,-0.0,-0.0,-0.839
8.65,-0.223,0.082,0.094
8.66,-0.259,0.023,0.038
8.67,-0.272,-0.083,-0.071
8.68,-0.352,-0.04,-0.014
8.69,-0.36,0.076,0.115
8.7,-0.365,0.181,0.11
8.71,-0.34,0.301,-0.023
8.72,-0.21,0.149,-0.119
8.73,-0.019,0.002,-0.194
8.74,-0.044,-0.205,-0.007
8.75,-0.108,-0.399,0.187
8.76,-0.142,-0.172,0.285
8.77,-0.308,0.03,0.298
8.78,-0.252,0.146,0.091
8.79,-0.299,0.226,-0.077
8.8,-0.351,0.052,-0.105
8.81,-0.347,-0.033,-0.121
8.82,-0.39,0.037,-0.023
8.83,-0.374,0.077,0.021
8.84,-0.179,0.091,-0.006
8.85,-0.083,0.213,0.048
8.86,-0.09,-0.108,0.1
8.87,-0.16,-0.11,0.139
8.88,-0.212,-0.215,0.079
8.89,-0.276,-0.151,0.101
8.9,-0.252,0.062,-0.022
8.91,-0.282,0.164,-0.011
8.92,-0.0,-0.0,-0.839
8.93,-0.077,0.074,0.041
8.94,-0.08,-0.022,0.131
8.95,-0.096,0.036,0.182
8.96,-0.241,0.122,0.153
8.97,-0.356,-0.166,0.094
8.98,-0.396,-0.031,-0.852
8.99,-0.403,-0.08,-0.063
9.0,-0.424,0.021,0.006
9.01,-0.294,0.213,-0.049
9.02,-0.179,0.172,-0.072
9.03,-0.172,0.128,-0.018
9.04,-0.12,0.084,0.026
9.05,-0.045,-0.009,0.085
9.06,-0.094,-0.133,0.121
9.07,-0.21,-0.079,0.148
9.08,-0.268,-0.005,0.186
9.09,-0.303,0.014,0.098
9.1,-0.312,0.085,-0.035
9.11,-0.264,-0.19,-0.084
9.12,-0.314,-0.04,-0.041
9.13,-0.314,0.058,0.041
9.14,-0.264,0.157,0.079
9.15,-0.238,0.323,-0.011
9.16,-0.177,0.333,-0.087
9.17,-0.073,-0.042,-0.091
9.18,-0.099,-0.229,0.015
9.19,-0.192,-0.387,0.206
9.2,-0.21,-0.271,0.303
9.21,-0.295,0.016,0.285
9.22,-0.322,0.169,0.086
9.23,-0.292,0.2,-0.137
9.24,-0.288,0.082,-0.179
9.25,-0.343,-0.086,-0.066
9.26,-0.313,-0.038,-0.041
9.27,-0.299,0.148,0.006
9.28,-0.202,0.077,0.022
9.29,-0.071,0.301,-0.045
9.3,-0.099,0.129,0.098
9.31,-0.154,-0.145,0.168
9.32,-0.213,-0.099,0.142
9.33,-0.329,-0.275,0.081
9.34,-0.294,-0.125,0.006
9.35,-0.344,0.083,-0.004
9.36,-0.232,0.092,-0.004
9.37,-0.32,0.169,-0.02
9.38,-0.377,0.099,-0.01
9.39,-0.224,-0.013,-0.062
9.4,-0.184,0.136,-0.034
9.41,-0.166,0.103,0.041
9.42,-0.123,0.127,0.062
9.43,-0.127,0.056,0.035
9.44,-0.124,-0.128,0.038
9.45,-0.282,-0.311,0.141
9.46,-0.391,-0.214,0.201
9.47,-0.0,-0.0,-0.844
9.48,-0.224,0.079,-0.039
9.49,-0.246,0.076,0.04
9.5,-0.25,-0.105,0.082
9.51,-0.189,-0.188,0.102
9.52,-0.231,-0.024,0.115
9.53,-0.132,-0.158,0.156
9.54,-0.181,0.015,0.062
9.55,-0.197,0.015,0.014
9.56,-0.186,-0.137,-0.06
9.57,-0.362,0.102,-0.021
9.58,-0.378,0.156,0.027
9.59,-0.364,0.241,0.018
9.6,-0.364,0.379,-0.08
9.61,-0.198,0.145,-0.13
9.62,-0.113,-0.204,-0.125
9.63,-0.079,-0.286,0.036
9.64,-0.079,-0.346,0.265
9.65,-0.203,-0.181,0.399
9.66,-0.167,0.165,0.188
9.67,-0.216,0.11,0.011
9.68,-0.296,0.132,-0.126
9.69,-0.342,0.03,-0.215
9.7,-0.477,-0.134,-0.029
9.71,-0.38,0.153,-0.059
9.72,-0.232,0.165,0.003
9.73,-0.198,0.189,-0.019
9.74,-0.053,0.209,-0.022
9.75,-0.144,0.002,0.116
9.76,-0.095,-0.235,0.156
9.77,-0.243,-0.243,0.154
9.78,-0.312,-0.297,0.125
9.79,-0.199,0.01,0.007
9.8,-0.307,0.148,0.013
9.81,-0.304,0.244,-0.011
9.82,-0.305,0.144,-0.046
9.83,-0.384,0.112,-0.048
9.84,-0.248,-0.037,-0.112
9.85,-0.243,0.049,-0.068
9.86,-0.204,0.147,-0.008
9.87,-0.136,-0.04,0.076
9.88,-0.089,-0.001,0.066
9.89,-0.119,-0.26,0.133
9.9,-0.221,-0.231,0.188
9.91,-0.219,-0.02,0.161
9.92,-0.321,-0.031,-0.866
9.93,-0.366,0.218,-0.048
9.94,-0.292,0.307,-0.159
9.95,-0.327,0.031,-0.099
9.96,-0.316,0.065,-0.105
9.97,-0.224,-0.084,-0.033
9.98,-0.183,-0.143,0.072
9.99,-0.104,0.003,0.087
10.0,-0.0,-0.0,-0.839
10.01,-0.373,-0.19,-0.032
10.02,-0.374,0.005,-0.004
10.03,-0.355,0.198,0.037
10.04,-0.284,0.272,0.03
10.05,-0.0,-0.0,-0.831
10.06,-0.347,-0.09,0.063
10.07,-0.263,-0.172,0.043
10.08,-0.315,0.289,0.021
10.09,-0.269,0.243,0.014
10.1,-0.241,0.036,-0.021
10.11,-0.246,0.051,-0.064
10.12,-0.245,-0.054,-0.016
10.13,-0.191,0.025,0.057
10.14,-0.222,0.135,0.087
10.15,-0.154,0.058,0.073
10.16,-0.089,0.059,0.04
10.17,-0.212,-0.129,0.103
10.18,-0.221,-0.255,0.178
10.19,-0.269,-0.131,0.094
10.2,-0.314,-0.034,0.016
10.21,-0.353,0.039,-0.064
10.22,-0.319,0.274,-0.037
10.23,-0.261,0.201,0.023
10.24,-0.225,0.04,0.025
10.25,-0.201,-0.042,0.021
10.26,-0.145,-0.099,0.029
10.27,-0.111,0.018,0.099
10.28,-0.119,0.083,0.132
10.29,-0.213,0.017,0.125
10.3,-0.261,-0.01,-0.005
10.31,-0.346,-0.07,-0.016
10.32,-0.428,-0.183,0.034
10.33,-0.37,0.028,0.036
10.34,-0.306,0.107,0.019
10.35,-0.201,0.172,-0.018
10.36,-0.157,0.242,-0.05
10.37,-0.232,0.123,0.034
10.38,-0.147,0.047,0.017
10.39,-0.069,-0.042,0.002
10.4,-0.167,-0.168,0.068
10.41,-0.248,-0.037,0.107
10.42,-0.291,-0.001,0.184
10.43,-0.335,-0.052,0.111
10.44,-0.218,-0.038,-0.074
10.45,-0.198,-0.12,-0.09
10.46,-0.336,-0.032,0.019
10.47,-0.339,0.263,0.119
10.48,-0.27,0.281,0.057
10.49,-0.201,0.292,-0.094
10.5,-0.109,0.126,-0.144
10.51,-0.116,-0.229,-0.041
10.52,-0.2,-0.356,0.119
10.53,-0.216,-0.278,0.242
10.54,-0.339,-0.143,0.313
10.55,-0.228,0.145,0.113
10.56,-0.183,0.259,-0.033
10.57,-0.202,0.069,-0.142
10.58,-0.243,0.057,-0.197
10.59,-0.0,-0.0,-0.84
10.6,-0.077,-0.066,0.093
10.61,-0.067,-0.064,0.065
10.62,-0.144,-0.18,0.094
10.63,-0.246,-0.33,0.141
10.64,-0.242,0.048,0.051
10.65,-0.391,0.115,0.06
10.66,-0.423,0.167,-0.034
10.67,-0.317,0.338,-0.1
10.68,-0.247,0.052,-0.042
10.69,-0.177,-0.041,-0.013
10.7,-0.198,-0.048,0.022
10.71,-0.113,-0.123,0.079
10.72,-0.118,0.05,0.07
10.73,-0.141,0.035,0.123
10.74,-0.182,-0.008,0.139
10.75,-0.304,-0.024,0.051
10.76,-0.396,-0.129,0.012
10.77,-0.36,-0.065,-0.032
10.78,-0.354,0.16,-0.03
10.79,-0.266,0.258,0.009
10.8,-0.23,0.174,-0.007
10.81,-0.242,0.208,-0.061
10.82,-0.191,-0.024,0.006
10.83,-0.153,-0.055,0.042
10.84,-0.124,-0.167,0.058
10.85,-0.173,-0.239,0.105
10.86,-0.173,-0.038,0.109
10.87,-0.257,0.081,0.104
10.88,-0.32,0.07,0.067
10.89,-0.242,0.046,-0.067
10.9,-0.307,0.027,-0.057
10.91,-0.317,-0.023,0.012
10.92,-0.31,0.2,0.006
10.93,-0.343,0.207,0.012
10.94,-0.243,0.172,-0.094
10.95,-0.106,0.062,-0.126
10.96,-0.093,-0.303,0.018
10.97,-0.017,-0.326,0.114
10.98,-0.187,-0.193,0.241
10.99,-0.223,-0.102,0.278
11.0,-0.198,0.292,0.074
11.01,-0.372,0.25,-0.019
11.02,-0.244,0.059,-0.171
11.03,-0.36,0.0,-0.18
11.04,-0.473,-0.081,-0.06
11.05,-0.331,0.013,-0.017
11.06,-0.258,0.118,0.084
11.07,-0.096,0.185,0.04
11.08,-0.046,0.083,0.037
11.09,-0.13,-0.031,-0.86
11.1,-0.048,-0.339,0.107
11.11,-0.255,-0.061,0.126
11.12,-0.271,-0.125,0.059
11.13,-0.399,0.078,0.045
11.14,-0.374,0.307,-0.032
11.15,-0.37,0.135,-0.11
11.16,-0.466,-0.01,-0.025
11.17,-0.248,-0.059,-0.106
11.18,-0.169,-0.022,0.016
11.19,-0.095,-0.023,0.065
11.2,-0.014,0.2,0.062
11.21,-0.098,0.01,0.147
11.22,-0.023,-0.031,-0.855
11.23,-0.239,-0.084,0.128
11.24,-0.402,-0.253,0.148
11.25,-0.324,-0.048,-0.024
11.26,-0.462,0.037,-0.027
11.27,-0.393,0.071,-0.032
11.28,-0.254,0.289,-0.098
11.29,-0.216,0.066,-0.001
11.3,-0.09,-0.025,-0.03
11.31,-0.062,0.062,0.032
11.32,-0.078,-0.106,0.096
11.33,-0.088,0.057,0.118
11.34,-0.227,0.124,0.146
11.35,-0.275,-0.039,0.124
11.36,-0.396,-0.035,0.052
11.37,-0.0,-0.0,-0.837
11.38,-0.178,0.181,-0.01
11.39,-0.02,0.211,-0.129
11.4,-0.118,-0.147,-0.06
11.41,-0.197,-0.497,0.143
11.42,-0.29,-0.138,0.274
11.43,-0.386,-0.113,0.294
11.44,-0.3,0.023,0.16
11.45,-0.31,0.272,-0.032
11.46,-0.182,0.011,-0.12
11.47,-0.252,-0.002,-0.111
11.48,-0.332,-0.114,-0.028
11.49,-0.252,0.079,-0.002
11.5,-0.225,0.183,0.031
11.51,-0.161,0.309,0.054
11.52,-0.11,0.125,0.036
11.53,-0.177,-0.001,0.041
11.54,-0.211,-0.219,0.056
11.55,-0.37,-0.385,0.143
11.56,-0.297,-0.047,0.09
11.57,-0.26,-0.059,0.082
11.58,-0.254,0.241,0.01
11.59,-0.222,0.297,-0.066
11.6,-0.313,0.055,-0.014
11.61,-0.207,0.031,-0.081
11.62,-0.219,-0.057,-0.041
11.63,-0.228,-0.056,0.096
11.64,-0.14,0.229,0.071
11.65,-0.196,0.174,0.051
11.66,-0.189,-0.062,0.031
11.67,-0.2,-0.167,-0.004
11.68,-0.281,-0.281,0.142
11.69,-0.235,-0.221,0.107
11.7,-0.336,-0.03,0.085
11.71,-0.321,0.28,0.054
11.72,-0.15,0.25,-0.047
11.73,-0.267,0.305,-0.047
11.74,-0.236,-0.09,-0.07
11.75,-0.13,-0.084,-0.075
11.76,-0.229,-0.07,-0.002
11.77,-0.306,-0.096,0.093
11.78,-0.209,0.099,0.127
11.79,-0.155,0.075,0.1
11.8,-0.232,-0.073,0.043
11.81,-0.26,-0.118,0.007
11.82,-0.301,-0.041,0.01
11.83,-0.327,0.047,0.01
11.84,-0.3,0.229,-0.012
11.85,-0.171,0.25,-0.056
11.86,-0.263,0.224,-0.083
11.87,-0.243,0.06,0.037
11.88,-0.175,-0.17,0.024
11.89,-0.183,-0.202,0.04
11.9,-0.23,-0.153,0.099
11.91,-0.125,-0.102,0.117
11.92,-0.197,0.188,0.064
11.93,-0.256,0.171,0.049
11.94,-0.185,-0.024,-0.054
11.95,-0.272,-0.014,-0.063
11.96,-0.393,-0.076,0.047
11.97,-0.262,-0.009,0.086
11.98,-0.383,0.34,0.079
11.99,-0.269,0.161,-0.053
12.0,-0.098,0.123,-0.176
12.01,-0.205,-0.138,-0.099
12.02,-0.083,-0.433,0.095
12.03,-0.155,-0.245,0.211
12.04,-0.188,-0.007,0.254
12.05,-0.178,0.153,0.077
12.06,-0.27,0.323,-0.038
12.07,-0.28,0.168,-0.1
12.08,-0.369,-0.111,-0.058
12.09,-0.406,-0.031,-0.052
12.1,-0.297,-0.082,-0.011
12.11,-0.324,0.094,0.053
12.12,-0.167,0.28,-0.019
12.13,-0.062,-0.01,0.038
12.14,-0.105,-0.041,0.04
12.15,-0.152,-0.222,0.062
12.16,-0.275,-0.278,0.098
12.17,-0.246,0.025,0.056
12.18,-0.296,0.132,0.055
12.19,-0.293,0.266,-0.026
12.2,-0.327,0.238,-0.057
12.21,-0.369,-0.131,0.007
12.22,-0.281,0.0,-0.068
12.23,-0.314,-0.142,0.007
12.24,-0.238,-0.001,0.049
12.25,-0.073,0.097,0.01
12.26,-0.121,0.198,0.038
12.27,-0.064,-0.134,0.023
12.28,-0.173,-0.068,0.052
12.29,-0.245,-0.165,0.109
12.3,-0.261,-0.119,0.056
12.31,-0.376,0.221,0.019
12.32,-0.395,0.125,-0.031
12.33,-0.352,0.199,-0.11
12.34,-0.273,0.087,-0.07
12.35,-0.283,-0.117,0.018
12.36,-0.153,-0.143,0.025
12.37,-0.056,-0.001,0.015
12.38,-0.035,-0.024,0.104
12.39,-0.108,0.141,0.1
12.4,-0.186,0.136,0.063
12.41,-0.281,-0.071,0.043
12.42,-0.424,-0.013,-0.05
12.43,-0.457,-0.037,-0.017
12.44,-0.419,-0.003,-0.068
12.45,-0.318,0.206,-0.037
12.46,-0.233,0.124,-0.017
12.47,-0.116,0.139,-0.002
12.48,-0.125,0.03,0.021
12.49,-0.072,-0.122,0.017
12.5,-0.069,-0.142,0.042
12.51,-0.182,-0.033,0.117
12.52,-0.259,0.022,0.152
12.53,-0.375,0.181,0.076
12.54,-0.382,0.081,-0.065
12.55,-0.268,-0.159,-0.18
12.56,-0.339,-0.08,-0.092
12.57,-0.337,-0.04,0.04
12.58,-0.251,0.164,0.114
12.59,-0.211,0.352,0.018
12.6,-0.113,0.28,-0.085
12.61,-0.021,-0.01,-0.132
12.62,-0.062,-0.229,-0.05
12.63,-0.165,-0.439,0.171
12.64,-0.292,-0.226,0.29
12.65,-0.315,0.183,0.219
12.66,-0.289,0.111,-0.006
12.67,-0.344,0.28,-0.201
12.68,-0.326,0.053,-0.228
12.69,-0.324,-0.149,-0.096
12.7,-0.326,-0.021,0.014
12.71,-0.218,0.039,0.063
12.72,-0.136,0.166,0.089
12.73,-0.063,0.197,0.053
12.74,-0.06,0.078,0.075
12.75,-0.167,-0.178,0.096
12.76,-0.347,-0.12,0.089
12.77,-0.379,-0.298,0.059
12.78,-0.322,-0.0,-0.876
12.79,-0.359,0.158,-0.056
12.8,-0.3,0.208,-0.034
12.81,-0.238,0.187,-0.029
12.82,-0.297,-0.055,-0.033
12.83,-0.0,-0.0,-0.851
12.84,-0.334,0.033,0.113
12.85,-0.397,-0.041,0.058
12.86,-0.338,-0.184,-0.042
12.87,-0.292,-0.064,-0.06
12.88,-0.325,0.093,0.031
12.89,-0.163,0.198,0.012
12.9,-0.135,0.313,-0.05
12.91,-0.176,0.133,-0.045
12.92,-0.215,0.114,0.001
12.93,-0.164,-0.164,0.038
12.94,-0.234,-0.174,0.089
12.95,-0.281,-0.113,0.079
12.96,-0.293,-0.053,0.106
12.97,-0.303,0.054,0.079
12.98,-0.208,0.135,-0.015
12.99,-0.107,-0.008,-0.065
13.0,-0.194,-0.095,-0.05
13.01,-0.278,0.004,0.025
13.02,-0.31,0.088,0.096
13.03,-0.309,0.302,0.078
13.04,-0.313,0.297,-0.038
13.05,-0.244,0.06,-0.102
13.06,-0.083,-0.16,-0.139
13.07,-0.192,-0.347,0.041
13.08,-0.178,-0.407,0.221
13.09,-0.179,-0.017,0.288
13.1,-0.198,0.157,0.155
13.11,-0.211,0.248,-0.049
13.12,-0.279,0.171,-0.172
13.13,-0.336,-0.003,-0.124
13.14,-0.406,-0.114,-0.026
13.15,-0.379,0.067,0.019
13.16,-0.294,0.094,0.049
13.17,-0.163,0.152,-0.001
13.18,-0.083,0.177,-0.022
13.19,-0.114,-0.171,0.108
13.2,-0.146,-0.188,0.118
13.21,-0.26,-0.205,0.111
13.22,-0.247,-0.166,0.055
13.23,-0.268,0.137,-0.056
13.24,-0.326,0.258,-0.025
13.25,-0.306,0.137,-0.013
13.26,-0.376,0.187,-0.007
13.27,-0.269,-0.026,-0.05
13.28,-0.266,-0.031,-0.032
13.29,-0.219,0.019,-0.0
13.3,-0.129,0.11,0.056
13.31,-0.112,0.082,0.051
13.32,-0.094,-0.055,-0.024
13.33,-0.165,-0.311,0.035
13.34,-0.271,-0.21,0.141
13.35,-0.28,-0.069,0.165
13.36,-0.39,0.051,0.097
13.37,-0.354,0.287,-0.062
13.38,-0.276,0.279,-0.151
13.39,-0.26,0.096,-0.121
13.4,-0.227,0.031,-0.095
13.41,-0.235,-0.163,0.032
13.42,-0.141,-0.129,0.011
13.43,-0.073,-0.015,0.046
13.44,-0.14,0.011,0.14
13.45,-0.122,0.165,0.143
13.46,-0.313,0.013,0.126
13.47,-0.335,-0.116,-0.033
13.48,-0.323,-0.016,-0.106
13.49,-0.379,0.035,-0.052
13.5,-0.335,0.135,-0.025
13.51,-0.256,0.257,-0.071
13.52,-0.294,0.109,-0.012
13.53,-0.22,0.054,-0.035
13.54,-0.085,-0.077,0.022
13.55,-0.073,-0.223,0.082
13.56,-0.097,-0.0,-0.869
13.57,-0.129,0.006,0.105
13.58,-0.252,0.074,0.07
13.59,-0.268,0.091,-0.034
13.6,-0.257,-0.003,-0.065
13.61,-0.4,-0.198,-0.002
13.62,-0.415,0.004,0.019
13.63,-0.364,0.14,0.073
13.64,-0.347,0.268,0.024
13.65,-0.211,0.301,-0.075
13.66,-0.03,0.0,-0.125
13.67,0.072,-0.216,-0.132
13.68,-0.04,-0.34,0.045
13.69,-0.264,-0.301,0.319
13.7,-0.267,0.098,0.325
13.71,-0.267,0.284,0.156
13.72,-0.326,0.15,-0.094
13.73,-0.29,0.081,-0.259
13.74,-0.444,-0.139,-0.124
13.75,-0.399,-0.15,-0.006
13.76,-0.281,0.118,0.013
13.77,-0.131,0.121,0.029
13.78,-0.0,-0.0,-0.847
13.79,-0.239,-0.02,0.099
13.8,-0.354,-0.147,0.058
13.81,-0.355,0.089,0.001
13.82,-0.213,0.285,-0.106
13.83,-0.271,0.128,-0.014
13.84,-0.204,0.071,-0.078
13.85,-0.19,-0.026,-0.034
13.86,-0.177,-0.164,0.083
13.87,-0.067,0.067,0.038
13.88,-0.207,0.07,0.145
13.89,-0.215,0.034,0.175
13.9,-0.243,0.022,0.058
13.91,-0.361,-0.081,-0.006
13.92,-0.309,-0.21,-0.04
13.93,-0.394,0.036,-0.013
13.94,-0.284,0.115,-0.016
13.95,-0.225,0.166,-0.033
13.96,-0.225,0.227,-0.016
13.97,-0.152,0.11,0.008
13.98,-0.194,-0.007,0.072
13.99,-0.135,-0.092,0.041
14.0,-0.165,-0.21,0.071
14.01,-0.245,-0.016,0.116
14.02,-0.259,0.076,0.052
14.03,-0.297,0.004,0.04
14.04,-0.255,0.064,-0.109
14.05,-0.227,-0.133,-0.073
14.06,-0.276,-0.072,0.049
14.07,-0.294,0.166,0.098
14.08,-0.343,0.285,0.108
14.09,-0.211,0.283,-0.073
14.1,-0.114,0.2,-0.178
14.11,-0.092,-0.217,-0.078
14.12,-0.09,-0.378,0.063
14.13,-0.253,-0.191,0.255
14.14,-0.284,-0.164,0.316
14.15,-0.25,0.213,0.021
14.16,-0.277,0.149,-0.106
14.17,-0.197,0.017,-0.17
14.18,-0.333,-0.024,-0.037
14.19,-0.398,-0.107,0.023
14.2,-0.214,0.098,0.017
14.21,-0.235,0.228,0.033
14.22,-0.17,0.141,0.025
14.23,-0.123,0.138,0.017
14.24,-0.118,-0.075,0.025
14.25,-0.346,-0.315,0.098
14.26,-0.387,-0.147,0.078
14.27,-0.145,-0.1,0.001
14.28,-0.185,0.095,-0.002
14.29,-0.22,0.297,-0.013
14.3,-0.293,0.098,0.028
14.31,-0.311,0.032,0.003
14.32,-0.204,0.074,-0.072
14.33,-0.287,-0.078,0.011
14.34,-0.247,0.133,-0.02
14.35,-0.194,0.151,0.005
14.36,-0.174,0.042,0.003
14.37,-0.141,-0.096,-0.03
14.38,-0.255,-0.344,0.126
14.39,-0.18,-0.228,0.155
14.4,-0.195,0.006,0.109
14.41,-0.328,0.076,0.06
14.42,-0.299,0.237,-0.068
14.43,-0.278,0.327,-0.106
14.44,-0.287,0.058,-0.022
14.45,-0.0,-0.0,-0.852
14.46,-0.174,0.109,0.076
14.47,-0.194,-0.006,0.079
14.48,-0.218,0.046,-0.019
14.49,-0.269,-0.105,-0.053
14.5,-0.355,-0.084,0.032
14.51,-0.348,0.165,-0.001
14.52,-0.36,0.346,0.05
14.53,-0.32,0.219,-0.004
14.54,-0.143,0.137,-0.171
14.55,-0.076,-0.144,-0.115
14.56,-0.005,-0.542,0.087
14.57,-0.146,-0.208,0.237
14.58,-0.245,-0.09,0.347
14.59,-0.193,0.181,0.196
14.6,-0.241,0.365,-0.102
14.61,-0.381,0.073,-0.167
14.62,-0.375,-0.074,-0.131
14.63,-0.449,-0.021,-0.056
14.64,-0.344,-0.085,0.01
14.65,-0.225,0.088,-0.002
14.66,-0.057,0.317,0.02
14.67,-0.02,0.123,0.069
14.68,-0.172,-0.098,0.108
14.69,-0.233,-0.189,0.098
14.7,-0.324,-0.359,0.079
14.71,-0.364,-0.091,-0.008
14.72,-0.324,0.055,-0.007
14.73,-0.291,0.167,-0.014
14.74,-0.268,0.267,-0.05
14.75,-0.296,0.017,-0.0
14.76,-0.21,-0.021,-0.039
14.77,-0.225,0.094,-0.019
14.78,-0.189,0.002,0.056
14.79,-0.134,0.181,0.016
14.8,-0.199,0.056,0.004
14.81,-0.139,-0.249,0.062
14.82,-0.166,-0.12,0.038
14.83,-0.361,-0.179,0.151
14.84,-0.3,-0.127,0.084
14.85,-0.257,0.165,-0.021
14.86,-0.341,0.165,-0.037
14.87,-0.219,0.198,-0.075
14.88,-0.226,0.169,-0.06
14.89,-0.236,-0.047,-0.029
14.9,-0.238,0.004,0.001
14.91,-0.151,-0.0,0.038
14.92,-0.155,-0.021,0.091
14.93,-0.162,0.03,0.062
14.94,-0.257,-0.007,0.088
14.95,-0.297,-0.231,0.066
14.96,-0.335,-0.036,0.022
14.97,-0.349,-0.11,0.004
14.98,-0.307,0.141,-0.013
14.99,-0.282,0.228,-0.058
15.0,-0.186,0.258,-0.08
15.01,-0.204,0.22,-0.024
15.02,-0.254,0.081,-0.006
15.03,-0.147,-0.13,0.027
15.04,-0.103,-0.162,-0.03
15.05,-0.2,-0.13,0.096
15.06,-0.264,-0.132,0.169
15.07,-0.266,0.125,-0.87
15.08,-0.288,0.015,0.04
15.09,-0.178,-0.091,-0.095
15.1,-0.26,-0.009,-0.051
15.11,-0.326,0.085,0.042
15.12,-0.264,0.199,0.047
15.13,-0.246,0.412,-0.033
15.14,-0.216,0.19,-0.123
15.15,-0.158,-0.097,-0.117
15.16,-0.194,-0.273,0.027
15.17,-0.146,-0.355,0.186
15.18,-0.0,-0.0,-0.845
15.19,-0.314,0.148,-0.011
15.2,-0.397,-0.004,-0.005
15.21,-0.302,0.061,-0.068
15.22,-0.329,-0.042,-0.038
15.23,-0.138,0.058,-0.022
15.24,-0.076,0.096,-0.008
15.25,-0.103,-0.07,0.108
15.26,-0.051,-0.229,0.127
15.27,-0.19,-0.085,0.143
15.28,-0.202,-0.115,0.169
15.29,-0.284,0.003,0.036
15.3,-0.494,0.221,-0.004
15.31,-0.365,0.167,-0.035
15.32,-0.355,0.093,-0.059
15.33,-0.284,-0.029,-0.071
15.34,-0.178,-0.132,-0.016
15.35,-0.127,0.025,0.031
15.36,-0.089,0.012,0.065
15.37,-0.117,-0.046,0.103
15.38,-0.105,0.057,0.098
15.39,-0.258,-0.032,0.098
15.4,-0.378,-0.049,0.044
15.41,-0.309,0.027,-0.033
15.42,-0.376,0.112,-0.021
15.43,-0.335,0.119,-0.019
15.44,-0.307,0.134,-0.069
15.45,-0.0,-0.0,-0.842
15.46,-0.176,-0.236,0.208
15.47,-0.275,0.115,0.254
15.48,-0.251,0.194,0.147
15.49,-0.31,0.193,-0.052
15.5,-0.352,0.112,-0.191
15.51,-0.468,-0.191,-0.1
15.52,-0.397,-0.038,-0.029
15.53,-0.24,0.102,0.032
15.54,-0.168,0.033,0.057
15.55,-0.028,0.243,-0.071
15.56,-0.043,0.133,0.029
15.57,-0.099,-0.095,0.139
15.58,-0.176,-0.076,0.114
15.59,-0.349,-0.235,0.147
15.6,-0.319,-0.155,0.028
15.61,-0.334,0.141,0.024
15.62,-0.418,0.143,0.049
15.63,-0.369,0.105,-0.057
15.64,-0.361,0.03,-0.078
15.65,-0.148,-0.039,-0.05
15.66,-0.13,0.041,-0.002
15.67,-0.165,0.138,0.055
15.68,-0.042,-0.006,0.054
15.69,-0.119,0.119,0.084
15.7,-0.19,-0.059,0.112
15.71,-0.29,-0.217,0.106
15.72,-0.39,-0.088,0.085
15.73,-0.379,-0.082,-0.028
15.74,-0.393,0.049,-0.001
15.75,-0.299,0.201,-0.028
15.76,-0.13,0.161,-0.042
15.77,-0.149,0.064,-0.041
15.78,-0.145,-0.023,-0.017
15.79,-0.126,-0.095,0.037
15.8,-0.133,0.051,0.051
15.81,-0.227,0.09,0.108
15.82,-0.27,0.027,0.097
15.83,-0.27,0.009,0.071
15.84,-0.38,-0.062,0.003
15.85,-0.314,-0.197,-0.005
15.86,-0.326,0.029,-0.013
15.87,-0.28,0.035,-0.005
15.88,-0.151,0.283,-0.055
15.89,-0.154,0.219,-0.862
15.9,-0.267,0.149,0.025
15.91,-0.212,0.113,0.01
15.92,-0.143,-0.123,0.031
15.93,-0.151,-0.214,0.076
15.94,-0.23,-0.149,0.132
15.95,-0.239,-0.024,0.129
15.96,-0.286,0.027,0.141
15.97,-0.289,0.121,-0.014
15.98,-0.208,-0.113,-0.118
15.99,-0.283,-0.066,-0.065
16.0,-0.299,0.122,0.028
16.01,-0.292,0.195,0.057
16.02,-0.272,0.278,-0.001
16.03,-0.173,0.274,-0.105
16.04,-0.094,-0.123,-0.044
16.05,-0.089,-0.225,0.046
16.06,-0.116,-0.266,0.113
16.07,-0.265,-0.291,0.246
16.08,-0.292,0.073,0.172
16.09,-0.285,0.191,0.064
16.1,-0.231,0.168,-0.093
16.11,-0.273,0.094,-0.165
16.12,-0.359,-0.105,-0.072
16.13,-0.298,-0.086,-0.039
16.14,-0.289,0.195,0.039
16.15,-0.179,0.12,0.118
16.16,-0.093,0.297,0.02
16.17,-0.144,0.018,0.047
16.18,-0.195,-0.248,0.109
16.19,-0.264,-0.21,0.059
16.2,-0.383,-0.279,0.11
16.21,-0.205,-0.136,0.025
16.22,-0.29,0.213,-0.036
16.23,-0.253,0.219,-0.864
16.24,-0.265,0.165,-0.008
16.25,-0.287,0.091,-0.039
16.26,-0.209,-0.1,-0.023
16.27,-0.244,-0.0,0.012
16.28,-0.184,0.125,-0.854
16.29,-0.206,0.004,0.094
16.3,-0.196,0.084,0.079
16.31,-0.12,-0.204,0.058
16.32,-0.233,-0.269,0.091
16.33,-0.219,-0.068,0.095
16.34,-0.0,-0.0,-0.834
16.35,-0.25,0.008,0.038
16.36,-0.09,-0.049,-0.004
16.37,-0.087,-0.182,0.086
16.38,-0.087,-0.113,0.138
16.39,-0.104,-0.003,0.159
16.4,-0.257,0.074,0.14
16.41,-0.281,0.161,0.019
16.42,-0.255,0.062,-0.076
16.43,-0.377,-0.146,-0.051
16.44,-0.399,0.027,-0.022
16.45,-0.288,0.073,0.046
16.46,-0.305,0.146,0.071
16.47,-0.192,0.353,-0.019
16.48,-0.093,0.094,-0.06
16.49,-0.076,-0.149,-0.061
16.5,-0.037,-0.291,0.047
16.51,-0.156,-0.272,0.274
16.52,-0.319,-0.175,0.332
16.53,-0.249,0.228,0.122
16.54,-0.297,0.11,0.019
16.55,-0.273,0.128,-0.154
16.56,-0.369,0.114,-0.125
16.57,-0.376,-0.173,-0.052
16.58,-0.308,0.095,-0.05
16.59,-0.31,0.092,0.041
16.6,-0.092,0.096,0.051
16.61,-0.085,0.149,0.058
16.62,-0.131,-0.065,0.111
16.63,-0.118,-0.23,0.081
16.64,-0.238,-0.167,0.105
16.65,-0.27,-0.065,0.105
16.66,-0.33,0.117,0.072
16.67,-0.337,0.322,-0.004
16.68,-0.276,0.125,-0.856
16.69,-0.397,0.027,-0.067
16.7,-0.319,-0.046,-0.077
16.71,-0.222,-0.23,0.027
16.72,-0.211,0.061,0.076
16.73,-0.088,0.145,0.111
16.74,-0.113,0.159,0.07
16.75,-0.068,0.066,0.053
16.76,-0.109,-0.123,0.092
16.77,-0.29,-0.26,0.104
16.78,-0.333,-0.053,0.089
16.79,-0.401,-0.121,0.081
16.8,-0.0,-0.0,-0.838
16.81,-0.087,-0.082,0.059
16.82,-0.154,-0.204,0.117
16.83,-0.252,-0.019,0.137
16.84,-0.3,0.047,0.143
16.85,-0.321,0.013,0.057
16.86,-0.343,0.104,-0.054
16.87,-0.289,-0.146,-0.115
16.88,-0.24,-0.185,-0.011
16.89,-0.222,0.039,0.048
16.9,-0.259,0.174,0.124
16.91,-0.213,0.306,0.054
16.92,-0.159,0.289,-0.075
16.93,-0.146,-0.025,-0.104
16.94,-0.092,-0.318,0.0
16.95,-0.203,-0.253,0.119
16.96,-0.36,-0.226,0.326
16.97,-0.257,0.107,0.185
16.98,-0.262,0.268,0.014
16.99,-0.26,0.123,-0.099
17.0,-0.203,0.021,-0.163
17.01,-0.335,-0.086,-0.063
17.02,-0.267,-0.095,-0.038
17.03,-0.273,0.129,0.052
17.04,-0.215,0.241,0.047
17.05,-0.089,0.222,0.021
17.06,-0.121,0.129,0.094
17.07,-0.204,-0.213,0.106
17.08,-0.321,-0.241,0.073
17.09,-0.329,-0.289,0.093
17.1,-0.311,-0.049,0.03
17.11,-0.284,0.149,0.001
17.12,-0.258,0.234,-0.043
17.13,-0.238,0.098,0.004
17.14,-0.248,0.092,-0.067
17.15,-0.238,-0.034,-0.009
17.16,-0.189,-0.127,0.036
17.17,-0.203,0.282,0.067
17.18,-0.244,0.118,0.098
17.19,-0.148,0.094,-0.025
17.2,-0.22,-0.109,-0.058
17.21,-0.316,-0.349,0.087
17.22,-0.22,-0.232,0.143
17.23,-0.285,-0.073,0.09
17.24,-0.358,0.043,0.076
17.25,-0.126,0.316,-0.08
17.26,-0.205,0.33,-0.051
17.27,-0.261,0.016,-0.031
17.28,-0.198,-0.043,-0.068
17.29,-0.203,-0.043,-0.029
17.3,-0.168,-0.165,0.059
17.31,-0.241,0.07,0.12
17.32,-0.243,0.063,0.132
17.33,-0.242,0.072,0.047
17.34,-0.256,-0.042,-0.003
17.35,-0.287,-0.089,-0.012
17.36,-0.365,-0.0,-0.861
17.37,-0.317,0.116,0.011
17.38,-0.178,0.132,-0.022
17.39,-0.202,0.219,-0.041
17.4,-0.216,0.142,0.025
17.41,-0.182,-0.103,0.064
17.42,-0.221,-0.065,0.032
17.43,-0.223,-0.215,0.062
17.44,-0.223,-0.087,0.086
17.45,-0.208,0.094,0.071
17.46,-0.286,0.094,-0.856
17.47,-0.179,0.085,-0.079
17.48,-0.208,0.002,-0.1
17.49,-0.293,-0.125,0.054
17.5,-0.264,0.117,0.118
17.51,-0.314,0.273,0.108
17.52,-0.284,0.172,0.02
17.53,-0.158,0.254,-0.198
17.54,-0.179,-0.139,-0.087
17.55,-0.143,-0.372,0.016
17.56,-0.096,-0.26,0.2
17.57,-0.0,-0.0,-0.832
17.58,-0.342,-0.003,0.026
17.59,-0.22,0.003,-0.07
17.6,-0.312,-0.157,0.079
17.61,-0.215,-0.003,0.034
17.62,-0.116,0.125,0.078
17.63,-0.109,0.059,0.068
17.64,-0.095,-0.0,-0.841
17.65,-0.219,-0.188,0.131
17.66,-0.225,-0.17,0.164
17.67,-0.245,0.0,0.082
17.68,-0.417,0.068,0.081
17.69,-0.328,0.207,-0.037
17.7,-0.0,-0.0,-0.822
17.71,-0.181,-0.08,0.138
17.72,-0.174,-0.06,0.181
17.73,-0.211,0.124,0.089
17.74,-0.289,0.078,0.008
17.75,-0.35,-0.092,-0.032
17.76,-0.285,-0.064,-0.044
17.77,-0.377,-0.029,0.079
17.78,-0.367,0.108,0.104
17.79,-0.256,0.228,0.039
17.8,-0.193,0.267,-0.045
17.81,-0.064,0.155,-0.092
17.82,-0.036,-0.091,-0.045
17.83,-0.1,-0.406,0.116
17.84,-0.161,-0.319,0.228
17.85,-0.357,-0.026,0.396
17.86,-0.0,-0.0,-0.825
17.87,-0.202,0.018,-0.007
17.88,-0.166,0.083,0.045
17.89,-0.122,0.01,0.082
17.9,-0.1,0.181,0.034
17.91,-0.129,0.046,0.081
17.92,-0.214,-0.165,0.078
17.93,-0.298,-0.122,0.15
17.94,-0.3,-0.211,0.143
17.95,-0.329,-0.116,0.093
17.96,-0.389,0.105,0.007
17.97,-0.286,0.094,-0.019
17.98,-0.244,0.193,-0.058
17.99,-0.187,0.19,-0.025
18.0,-0.201,-0.054,0.008
18.01,-0.109,0.04,-0.018
18.02,-0.113,0.015,0.041
18.03,-0.157,-0.045,0.141
18.04,-0.183,0.048,0.161
18.05,-0.32,-0.035,0.107
18.06,-0.338,-0.193,0.074
18.07,-0.323,-0.058,-0.007
18.08,-0.402,-0.033,0.028
18.09,-0.296,0.1,0.001
18.1,-0.188,0.316,-0.046
18.11,-0.24,0.183,-0.032
18.12,-0.19,0.167,-0.047
18.13,-0.157,0.069,0.029
18.14,-0.108,-0.156,-0.842
18.15,-0.141,-0.096,0.098
18.16,-0.237,-0.088,0.124
18.17,-0.229,-0.132,0.16
18.18,-0.298,0.121,0.096
18.19,-0.273,-0.097,0.032
18.2,-0.223,-0.12,-0.035
18.21,-0.321,0.014,0.008
18.22,-0.312,0.12,0.08
18.23,-0.293,0.279,0.096
18.24,-0.308,0.377,-0.034
18.25,-0.218,0.14,-0.107
18.26,-0.07,-0.124,-0.14
18.27,-0.101,-0.224,0.012
18.28,-0.168,-0.389,0.236
18.29,-0.268,-0.096,0.287
18.3,-0.214,0.062,0.24
18.31,-0.113,0.105,0.034
18.32,-0.252,0.256,-0.118
18.33,-0.338,-0.062,-0.135
18.34,-0.361,-0.062,-0.064
18.35,-0.361,0.119,0.01
18.36,-0.346,0.117,0.052
18.37,-0.0,-0.0,-0.828
18.38,-0.186,-0.179,0.195
18.39,-0.274,-0.121,0.223
18.4,-0.294,0.075,0.109
18.41,-0.319,0.275,0.017
18.42,-0.366,0.226,-0.084
18.43,-0.331,0.172,-0.127
18.44,-0.232,-0.036,-0.047
18.45,-0.22,-0.094,0.024
18.46,-0.146,0.013,0.059
18.47,-0.117,-0.073,0.159
18.48,-0.082,0.044,0.138
18.49,-0.127,0.131,0.125
18.5,-0.295,-0.174,0.135
18.51,-0.331,-0.051,0.018
18.52,-0.38,-0.031,-0.844
18.53,-0.369,0.03,0.0
18.54,-0.281,0.232,-0.04
18.55,-0.243,0.179,-0.017
18.56,-0.296,0.109,-0.002
18.57,-0.244,0.107,0.063
18.58,-0.105,-0.101,0.022
18.59,-0.109,-0.177,0.059
18.6,-0.184,-0.078,0.123
18.61,-0.127,-0.036,0.148
18.62,-0.259,0.087,0.137
18.63,-0.296,0.093,0.051
18.64,-0.0,-0.0,-0.826
18.65,-0.225,0.182,0.052
18.66,-0.035,0.15,0.015
18.67,-0.047,0.09,0.106
18.68,-0.14,-0.161,0.15
18.69,-0.222,-0.147,0.097
18.7,-0.267,-0.251,0.115
18.71,-0.268,0.038,0.004
18.72,-0.39,0.196,0.075
18.73,-0.351,0.102,0.02
18.74,-0.358,0.19,-0.055
18.75,-0.331,-0.04,-0.018
18.76,-0.183,-0.097,-0.052
18.77,-0.157,0.059,0.014
18.78,-0.136,0.08,0.085
18.79,-0.033,0.158,0.035
18.8,-0.098,0.122,0.054
18.81,-0.185,-0.207,0.134
18.82,-0.276,-0.131,0.176
18.83,-0.365,-0.122,0.189
18.84,-0.283,-0.18,0.019
18.85,-0.431,0.113,-0.069
18.86,-0.405,0.189,-0.073
18.87,-0.202,0.095,-0.022
18.88,-0.161,0.181,-0.021
18.89,-0.094,-0.08,0.004
18.9,-0.151,-0.019,0.047
18.91,-0.128,0.014,0.119
18.92,-0.162,0.036,0.173
18.93,-0.216,0.083,0.148
18.94,-0.305,-0.005,0.045
18.95,-0.36,-0.152,-0.019
18.96,-0.39,-0.068,-0.069
18.97,-0.372,0.036,0.0
18.98,-0.261,0.075,0.042
18.99,-0.204,0.183,-0.002
19.0,-0.217,0.16,-0.02
19.01,-0.163,0.062,0.02
19.02,-0.166,0.006,0.077
19.03,-0.122,-0.07,0.082
19.04,-0.191,-0.093,0.069
19.05,-0.238,0.019,0.074
19.06,-0.19,-0.012,0.111
19.07,-0.322,0.076,0.064
19.08,-0.305,-0.039,-0.031
19.09,-0.256,-0.226,-0.079
19.1,-0.283,-0.016,-0.015
19.11,-0.331,0.166,0.102
19.12,-0.346,0.198,0.116
19.13,-0.241,0.359,-0.028
19.14,-0.097,0.17,-0.135
19.15,-0.064,-0.269,-0.102
19.16,-0.076,-0.252,0.072
19.17,-0.227,-0.27,0.283
19.18,-0.331,-0.106,0.323
19.19,-0.226,0.184,0.114
19.2,-0.277,0.111,-0.075
19.21,-0.297,0.093,-0.153
19.22,-0.334,0.003,-0.133
19.23,-0.377,-0.156,-0.018
19.24,-0.271,0.095,-0.048
19.25,-0.215,0.174,0.027
19.26,-0.15,0.218,0.062
19.27,-0.037,0.25,0.04
19.28,-0.144,-0.031,0.106
19.29,-0.198,-0.27,0.064
19.3,-0.354,-0.301,0.106
19.31,-0.334,-0.208,0.068
19.32,-0.276,-0.016,0.035
19.33,-0.319,0.223,0.002
19.34,-0.253,0.217,-0.024
19.35,-0.306,0.177,-0.05
19.36,-0.263,0.031,-0.048
19.37,-0.155,-0.062,-0.07
19.38,-0.187,-0.017,0.005
19.39,-0.2,0.244,0.09
19.4,-0.14,0.007,0.084
19.41,-0.189,0.112,0.051
19.42,-0.278,-0.303,0.079
19.43,-0.268,-0.35,0.121
19.44,-0.244,-0.094,0.072
19.45,-0.3,-0.083,0.052
19.46,-0.36,0.284,0.01
19.47,-0.194,0.34,-0.13
19.48,-0.197,0.144,-0.093
19.49,-0.188,0.059,-0.096
19.5,-0.254,-0.042,0.028
19.51,-0.171,-0.168,0.076
19.52,-0.208,0.045,0.044
19.53,-0.216,0.012,0.12
19.54,-0.145,0.052,0.092
19.55,-0.252,0.042,0.048
19.56,-0.287,-0.134,-0.006
19.57,-0.327,-0.06,-0.034
19.58,-0.402,0.069,0.0
19.59,-0.248,0.125,-0.864
19.6,-0.221,0.269,-0.047
19.61,-0.252,0.216,-0.057
19.62,-0.173,0.045,0.026
19.63,-0.198,0.016,0.041
19.64,-0.151,-0.193,0.054
19.65,-0.164,-0.158,0.087
19.66,-0.095,-0.128,0.115
19.67,-0.244,0.028,0.123
19.68,-0.381,0.107,0.081
19.69,-0.23,0.027,-0.039
19.7,-0.295,-0.044,-0.039
19.71,-0.382,0.0,-0.045
19.72,-0.282,0.17,0.023
19.73,-0.344,0.211,0.043
19.74,-0.215,0.316,-0.116
19.75,-0.096,0.081,-0.128
19.76,-0.082,-0.235,-0.04
19.77,-0.026,-0.354,0.107
19.78,-0.164,-0.307,0.272
19.79,-0.213,-0.032,0.274
19.8,-0.273,0.249,0.122
19.81,-0.336,0.16,-0.015
19.82,-0.267,0.168,-0.179
19.83,-0.366,-0.037,-0.142
19.84,-0.458,-0.12,-0.024
19.85,-0.273,0.028,-0.01
19.86,-0.286,0.239,0.012
19.87,-0.142,0.132,0.02
19.88,-0.088,0.136,0.034
19.89,-0.086,-0.07,0.092
19.9,-0.149,-0.295,0.124
19.91,-0.283,-0.213,0.119
19.92,-0.21,-0.125,0.054
19.93,-0.288,0.043,0.026
19.94,-0.36,0.355,0.036
19.95,-0.319,0.197,-0.017
19.96,-0.388,0.103,-0.069
19.97,-0.341,-0.011,-0.148
19.98,-0.275,-0.16,-0.04
19.99,-0.203,0.033,0.019
20.0,-0.119,0.066,0.027
20.01,-0.043,0.016,0.061
20.02,-0.026,0.057,0.04
20.03,-0.168,-0.158,0.161
20.04,-0.228,-0.156,-0.866
20.05,-0.245,0.03,0.068
20.06,-0.423,0.001,0.028
20.07,-0.39,0.14,-0.074
20.08,-0.341,0.211,-0.116
20.09,-0.376,-0.028,-0.035
20.1,-0.271,0.041,-0.041
20.11,-0.176,-0.076,0.009
20.12,-0.108,-0.092,0.087
20.13,-0.001,0.05,0.069
20.14,-0.072,0.128,0.121
20.15,-0.124,-0.017,0.098
20.16,-0.258,0.052,0.052
20.17,-0.387,-0.08,0.015
20.18,-0.441,-0.107,0.004
20.19,-0.453,0.072,-0.042
20.2,-0.33,0.114,-0.052
20.21,-0.274,0.182,-0.062
20.22,-0.246,0.133,-0.0
20.23,-0.156,0.026,0.004
20.24,-0.014,-0.035,-0.042
20.25,-0.041,-0.102,0.033
20.26,-0.082,-0.153,0.115
20.27,-0.208,0.09,0.135
20.28,-0.328,0.108,0.168
20.29,-0.333,0.003,0.024
20.3,-0.286,-0.004,-0.14
20.31,-0.374,-0.184,-0.07
20.32,-0.365,-0.007,0.017
20.33,-0.279,0.233,0.048
20.34,-0.257,0.221,0.022
20.35,-0.165,0.252,-0.104
20.36,0.004,0.085,-0.186
20.37,-0.02,-0.3,0.014
20.38,-0.142,-0.278,0.137
20.39,-0.304,-0.102,0.324
20.4,-0.351,-0.051,0.287
20.41,-0.222,0.269,0.028
20.42,-0.334,0.107,-0.113
20.43,-0.326,-0.109,-0.165
20.44,-0.375,0.006,-0.082
20.45,-0.29,-0.129,0.005
20.46,-0.287,0.14,0.005
20.47,-0.257,0.197,-0.02
20.48,-0.0,-0.0,-0.848
20.49,-0.342,-0.234,0.105
20.5,-0.336,-0.123,0.036
20.51,-0.395,0.051,0.029
20.52,-0.254,0.259,-0.021
20.53,-0.202,0.244,-0.055
20.54,-0.209,0.014,-0.04
20.55,-0.1,0.015,-0.074
20.56,-0.146,-0.005,0.032
20.57,-0.189,-0.037,0.073
20.58,-0.22,0.083,0.117
20.59,-0.238,0.057,0.067
20.6,-0.305,-0.04,0.059
20.61,-0.347,-0.11,0.008
20.62,-0.259,-0.102,-0.007
20.63,-0.254,0.013,-0.009
20.64,-0.272,0.181,0.028
20.65,-0.219,0.149,-0.014
20.66,-0.193,0.24,-0.058
20.67,-0.261,0.136,-0.02
20.68,-0.185,-0.095,0.046
20.69,-0.161,-0.024,0.041
20.7,-0.262,-0.183,0.054
20.71,-0.0,-0.0,-0.843
20.72,-0.291,0.094,-0.114
20.73,-0.39,-0.001,-0.034
20.74,-0.358,-0.021,0.047
20.75,-0.222,0.231,0.024
20.76,-0.161,0.215,-0.006
20.77,-0.131,0.049,0.046
20.78,-0.172,-0.021,0.084
20.79,-0.149,-0.35,0.137
20.8,-0.266,-0.205,0.126
20.81,-0.212,-0.108,0.072
20.82,-0.279,0.056,0.048
20.83,-0.234,0.312,-0.041
20.84,-0.322,0.24,-0.043
20.85,-0.347,0.014,-0.031
20.86,-0.272,0.074,-0.083
20.87,-0.245,-0.083,0.005
20.88,-0.241,-0.035,0.073
20.89,-0.201,0.145,0.065
20.9,-0.154,-0.028,0.085
20.91,-0.065,-0.13,0.009
20.92,-0.197,-0.124,0.092
20.93,-0.272,-0.222,0.176
20.94,-0.247,-0.011,0.062
20.95,-0.349,0.19,-0.002
20.96,-0.224,0.141,-0.057
20.97,-0.236,0.266,-0.103
20.98,-0.304,0.111,-0.044
20.99,-0.279,-0.103,-0.03
21.0,-0.229,-0.062,0.025
21.01,-0.174,-0.042,0.073
21.02,-0.143,-0.034,0.092
21.03,-0.167,0.063,0.105
21.04,-0.167,0.039,0.12
21.05,-0.233,0.001,0.063
21.06,-0.308,-0.034,0.003
21.07,-0.357,-0.06,-0.021
21.08,-0.283,0.127,-0.063
21.09,-0.0,-0.0,-0.844
21.1,-0.022,-0.454,0.066
21.11,-0.187,-0.188,0.229
21.12,-0.383,-0.013,0.352
21.13,-0.303,0.173,0.15
21.14,-0.352,0.287,-0.045
21.15,-0.317,0.057,-0.164
21.16,-0.344,-0.116,-0.169
21.17,-0.396,-0.054,-0.025
21.18,-0.265,0.003,0.036
21.19,-0.123,0.233,0.027
21.2,-0.079,0.154,-0.027
21.21,-0.068,0.125,0.038
21.22,-0.0,-0.0,-0.84
21.23,-0.466,0.146,0.026
21.24,-0.354,0.112,-0.003
21.25,-0.158,0.22,-0.06
21.26,-0.232,0.07,-0.035
21.27,-0.187,-0.097,0.011
21.28,-0.126,-0.053,-0.01
21.29,-0.125,0.048,0.07
21.3,-0.126,0.019,0.152
21.31,-0.14,0.129,0.139
21.32,-0.253,-0.0,-0.85
21.33,-0.371,-0.112,0.008
21.34,-0.405,-0.123,0.013
21.35,-0.424,-0.054,0.029
21.36,-0.328,0.132,-0.001
21.37,-0.269,0.201,-0.043
21.38,-0.214,0.189,-0.042
21.39,-0.0,-0.0,-0.826
21.4,-0.362,-0.08,0.346
21.41,-0.271,0.034,0.156
21.42,-0.232,0.176,-0.051
21.43,-0.226,0.148,-0.137
21.44,-0.228,-0.081,-0.098
21.45,-0.315,0.043,-0.079
21.46,-0.25,0.126,0.006
21.47,-0.246,0.183,0.059
21.48,-0.192,0.251,0.025
21.49,-0.0,-0.0,-0.82
21.5,-0.251,-0.234,0.165
21.51,-0.39,0.176,0.081
21.52,-0.363,0.26,-0.011
21.53,-0.222,0.121,-0.097
21.54,-0.286,0.229,-0.057
21.55,-0.231,-0.018,-0.013
21.56,-0.172,-0.062,0.029
21.57,-0.157,-0.007,0.022
21.58,-0.115,-0.001,0.101
21.59,-0.119,-0.013,0.209
21.6,-0.231,0.054,0.175
21.61,-0.323,-0.197,0.116
21.62,-0.315,-0.07,-0.015
21.63,-0.395,-0.01,0.012
21.64,-0.337,0.119,0.012
21.65,-0.24,0.316,-0.054
21.66,-0.267,0.233,-0.041
21.67,-0.177,0.116,-0.018
21.68,-0.232,0.047,0.011
21.69,-0.174,-0.181,0.077
21.7,-0.078,-0.127,0.078
21.71,-0.188,-0.098,0.162
21.72,-0.196,-0.069,0.163
21.73,-0.237,0.202,0.076
21.74,-0.242,0.017,-0.011
21.75,-0.193,-0.084,-0.076
21.76,-0.337,-0.048,0.004
21.77,-0.383,0.113,0.105
21.78,-0.33,0.165,0.118
21.79,-0.375,0.319,-0.018
21.8,-0.272,0.196,-0.12
21.81,-0.138,-0.13,-0.111
21.82,0.013,-0.243,-0.01
21.83,-0.09,-0.358,0.16
21.84,-0.177,-0.216,0.304
21.85,-0.113,0.192,0.231
21.86,-0.191,0.199,0.133
21.87,-0.289,0.255,-0.08
21.88,-0.354,-0.021,-0.135
21.89,-0.47,-0.18,-0.061
21.9,-0.398,0.035,-0.056
21.91,-0.424,0.048,0.064
21.92,-0.244,0.154,0.011
21.93,-0.004,0.205,-0.036
21.94,-0.022,0.061,0.079
21.95,-0.0,-0.0,-0.829
21.96,-0.356,0.23,-0.028
21.97,-0.342,0.179,-0.072
21.98,-0.328,0.044,-0.066
21.99,-0.19,0.069,-0.04
22.0,-0.181,-0.086,0.036
22.01,-0.102,-0.072,0.058
22.02,-0.077,0.062,0.085
22.03,-0.121,0.042,0.196
22.04,-0.161,0.123,0.149
22.05,-0.311,-0.004,0.091
22.06,-0.33,-0.156,0.025
22.07,-0.298,-0.0,-0.054
22.08,-0.486,-0.036,0.027
22.09,-0.332,0.091,-0.029
22.1,-0.216,0.219,-0.022
22.11,-0.242,0.094,-0.839
22.12,-0.181,0.105,0.051
22.13,-0.115,-0.058,0.096
22.14,-0.101,-0.05,0.109
22.15,-0.157,-0.098,0.101
22.16,-0.219,0.025,0.171
22.17,-0.244,0.045,0.107
22.18,-0.317,0.073,0.007
22.19,-0.293,-0.087,-0.086
22.2,-0.308,-0.205,-0.024
22.21,-0.391,0.064,0.069
22.22,-0.265,0.133,0.127
22.23,-0.27,0.226,0.06
22.24,-0.147,0.411,-0.079
22.25,-0.073,0.057,-0.111
22.26,-0.061,-0.204,-0.03
22.27,-0.071,-0.312,0.084
22.28,-0.201,-0.233,0.344
22.29,-0.385,0.031,0.326
22.3,-0.32,0.172,0.057
22.31,-0.291,0.147,-0.098
22.32,-0.288,0.055,-0.179
22.33,-0.353,-0.067,-0.068
22.34,-0.354,-0.161,-0.023
22.35,-0.185,0.149,0.015
22.36,-0.176,0.195,0.067
22.37,-0.062,0.158,0.059
22.38,-0.033,0.231,0.101
22.39,-0.219,-0.119,0.164
22.4,-0.364,-0.291,0.123
22.41,-0.419,-0.234,0.071
22.42,-0.31,-0.2,0.043
22.43,-0.319,0.092,-0.011
22.44,-0.0,-0.0,-0.832
22.45,-0.247,-0.145,0.063
22.46,-0.226,-0.097,0.061
22.47,-0.246,0.055,0.11
22.48,-0.23,-0.083,0.162
22.49,-0.297,0.067,0.107
22.5,-0.251,-0.146,0.026
22.51,-0.228,-0.124,-0.027
22.52,-0.283,0.085,0.008
22.53,-0.247,0.187,0.022
22.54,-0.198,0.235,-0.013
22.55,-0.275,0.247,-0.066
22.56,-0.0,-0.0,-0.828
22.57,-0.292,-0.133,0.411
22.58,-0.164,0.28,0.158
22.59,-0.222,0.219,-0.096
22.6,-0.278,0.116,-0.167
22.61,-0.328,0.023,-0.102
22.62,-0.389,-0.079,0.023
22.63,-0.338,-0.016,-0.838
22.64,-0.319,0.134,0.046
22.65,-0.208,0.081,0.004
22.66,-0.092,0.174,0.054
22.67,-0.136,-0.037,0.179
22.68,-0.173,-0.295,0.182
22.69,-0.244,-0.247,0.082
22.7,-0.208,-0.09,0.038
22.71,-0.206,-0.0,0.026
22.72,-0.263,0.38,0.017
22.73,-0.335,0.213,0.05
22.74,-0.414,0.146,0.048
22.75,-0.313,0.041,-0.052
22.76,-0.276,-0.104,-0.069
22.77,-0.236,-0.097,0.039
22.78,-0.171,0.183,0.048
22.79,-0.054,-0.001,0.093
22.8,-0.053,-0.034,0.034
22.81,-0.126,-0.165,0.112
22.82,-0.221,-0.308,0.224
22.83,-0.298,-0.009,0.19
22.84,-0.414,0.026,0.087
22.85,-0.403,0.188,-0.058
22.86,-0.291,0.324,-0.136
22.87,-0.326,0.098,-0.084
22.88,-0.245,-0.046,-0.054
22.89,-0.18,-0.041,-0.015
22.9,-0.063,-0.204,0.065
22.91,-0.064,0.006,0.12
22.92,-0.138,0.114,0.193
22.93,-0.171,0.016,0.189
22.94,-0.237,0.043,0.091
22.95,-0.377,-0.069,0.001
22.96,-0.393,-0.083,-0.04
22.97,-0.408,0.103,-0.023
22.98,-0.387,0.156,-0.004
22.99,-0.241,0.169,-0.082
23.0,-0.254,0.21,-0.064
23.01,-0.198,0.005,0.038
23.02,-0.071,-0.001,0.065
23.03,-0.052,-0.131,0.092
23.04,-0.086,-0.133,0.135
23.05,-0.139,-0.035,0.122
23.06,-0.29,0.037,0.111
23.07,-0.312,-0.005,0.065
23.08,-0.322,0.049,-0.044
23.09,-0.395,-0.107,-0.007
23.1,-0.454,-0.001,0.02
23.11,-0.388,0.252,0.031
23.12,-0.261,0.209,0.013
23.13,-0.125,0.255,-0.116
23.14,-0.033,0.047,-0.166
23.15,0.017,-0.263,-0.048
23.16,0.0,-0.324,0.118
23.17,-0.241,-0.167,0.426
23.18,-0.328,0.12,0.288
23.19,-0.323,0.177,0.033
23.2,-0.348,0.127,-0.148
23.21,-0.372,-0.054,-0.211
23.22,-0.477,-0.072,-0.091
23.23,-0.347,-0.054,-0.027
23.24,-0.169,0.148,-0.013
23.25,-0.116,0.21,-0.002
23.26,0.0,0.174,0.008
23.27,-0.006,0.135,0.075
23.28,-0.171,-0.192,0.199
23.29,-0.3,-0.201,0.183
23.3,-0.323,-0.158,0.072
23.31,-0.345,-0.151,0.055
23.32,-0.398,0.146,-0.017
23.33,-0.351,0.173,-0.016
23.34,-0.383,0.025,-0.001
23.35,-0.247,0.023,-0.055
23.36,-0.214,0.083,-0.074
23.37,-0.123,-0.018,-0.015
23.38,-0.062,0.237,-0.019
23.39,-0.115,0.138,0.049
23.4,-0.102,-0.032,0.064
23.41,-0.21,-0.069,0.096
23.42,-0.352,-0.255,0.189
23.43,-0.359,-0.142,0.132
23.44,-0.343,-0.056,0.022
23.45,-0.427,0.025,0.002
23.46,-0.265,0.19,-0.09
23.47,-0.164,0.236,-0.129
23.48,-0.2,-0.021,-0.029
23.49,-0.143,0.075,-0.041
23.5,-0.088,0.025,0.023
23.51,-0.16,-0.028,0.119
23.52,-0.156,0.112,0.104
23.53,-0.236,0.048,0.13
23.54,-0.331,-0.138,0.073
23.55,-0.355,-0.098,0.003
23.56,-0.406,-0.195,-0.025
23.57,-0.309,0.0,-0.029
23.58,-0.228,0.184,0.003
23.59,-0.169,0.231,-0.042
23.6,-0.178,0.284,-0.036
23.61,-0.187,0.11,-0.005
23.62,-0.148,0.004,0.024
23.63,-0.182,-0.128,0.011
23.64,-0.231,-0.177,0.034
23.65,-0.253,-0.096,0.095
23.66,-0.307,0.047,0.098
23.67,-0.345,0.07,0.078
23.68,-0.14,-0.025,-0.037
23.69,-0.134,-0.053,-0.113
23.7,-0.315,-0.083,0.044
23.71,-0.261,0.108,0.068
23.72,-0.298,0.381,0.066
23.73,-0.285,0.275,-0.011
23.74,-0.157,0.179,-0.229
23.75,-0.139,-0.099,-0.167
23.76,-0.153,-0.447,0.089
23.77,-0.235,-0.141,0.227
23.78,-0.307,-0.195,0.348
23.79,-0.176,0.057,0.135
23.8,-0.175,0.214,-0.107
23.81,-0.201,0.12,-0.116
23.82,-0.295,-0.062,-0.073
23.83,-0.451,0.004,0.037
23.84,-0.275,-0.025,-0.007
23.85,-0.297,0.121,0.016
23.86,-0.254,0.193,0.012
23.87,-0.081,0.112,0.029
23.88,-0.196,0.018,0.037
23.89,-0.227,-0.236,0.047
23.9,-0.273,-0.291,0.063
23.91,-0.172,-0.098,0.029
23.92,-0.207,0.064,0.024
23.93,-0.301,0.162,0.058
23.94,-0.0,-0.0,-0.854
23.95,-0.218,-0.118,0.045
23.96,-0.129,0.005,0.077
23.97,-0.094,0.115,0.111
23.98,-0.202,-0.031,0.105
23.99,-0.251,-0.01,0.014
24.0,-0.274,-0.014,-0.047
24.01,-0.313,-0.021,-0.003
24.02,-0.329,0.167,-0.006
24.03,-0.293,0.147,-0.033
24.04,-0.316,0.108,-0.043
24.05,-0.334,0.126,-0.059
24.06,-0.219,-0.025,0.036
24.07,-0.133,-0.087,0.061
24.08,-0.093,-0.06,0.041
24.09,-0.092,-0.131,0.102
24.1,-0.129,0.082,0.088
24.11,-0.256,0.077,0.087
24.12,-0.252,0.023,-0.0
24.13,-0.248,-0.06,-0.122
24.14,-0.392,0.052,-0.027
24.15,-0.382,-0.025,0.047
24.16,-0.402,0.253,0.016
24.17,-0.308,0.207,0.018
24.18,-0.081,0.123,-0.117
24.19,-0.026,-0.021,-0.096
24.2,-0.063,-0.353,0.033
24.21,-0.107,-0.271,0.165
24.22,-0.238,-0.108,0.286
24.23,-0.203,0.097,0.182
24.24,-0.299,0.194,-0.031
24.25,-0.361,0.225,-0.135
24.26,-0.37,-0.072,-0.12
24.27,-0.374,-0.047,-0.099
24.28,-0.351,0.004,-0.026
24.29,-0.286,-0.025,0.052
24.3,-0.105,0.235,0.011
24.31,-0.025,0.168,0.02
24.32,-0.104,-0.017,0.086
24.33,-0.151,-0.089,0.088
24.34,-0.233,-0.272,0.104
24.35,-0.298,-0.139,0.069
24.36,-0.326,0.035,0.03
24.37,-0.35,0.148,0.061
24.38,-0.291,0.275,-0.053
24.39,-0.394,0.086,-0.097
24.4,-0.275,-0.041,-0.103
24.41,-0.158,-0.017,-0.135
24.42,-0.224,-0.031,0.056
24.43,-0.099,0.074,0.092
24.44,-0.08,0.127,0.069
24.45,-0.203,-0.021,0.102
24.46,-0.12,-0.241,0.042
24.47,-0.266,-0.06,0.133
24.48,-0.379,-0.114,0.096
24.49,-0.373,0.021,0.008
24.5,-0.411,0.177,-0.107
24.51,-0.231,0.131,-0.143
24.52,-0.207,0.166,-0.106
24.53,-0.185,-0.052,-0.007
24.54,-0.12,-0.132,0.027
24.55,-0.075,0.001,0.02
24.56,-0.135,0.018,0.079
24.57,-0.177,0.094,0.076
24.58,-0.208,0.163,0.099
24.59,-0.274,0.048,0.067
24.6,-0.414,-0.092,-0.034
24.61,-0.446,-0.14,-0.076
24.62,-0.311,-0.056,-0.043
24.63,-0.264,0.124,-0.03
24.64,-0.218,0.175,-0.009
24.65,-0.201,0.11,-0.035
24.66,-0.19,0.241,-0.019
24.67,-0.065,-0.0,-0.871
24.68,-0.076,-0.161,0.046
24.69,-0.159,-0.148,0.058
24.7,-0.239,-0.067,0.154
24.71,-0.346,0.015,0.141
24.72,-0.41,0.149,0.069
24.73,-0.293,-0.016,-0.048
24.74,-0.321,-0.102,-0.137
24.75,-0.311,-0.023,-0.06
24.76,-0.247,0.005,0.039
24.77,-0.239,0.274,0.034
24.78,-0.175,0.331,-0.019
24.79,-0.059,0.093,-0.115
24.8,-0.027,-0.064,-0.111
24.81,-0.114,-0.353,0.111
24.82,-0.275,-0.271,0.268
24.83,-0.41,-0.068,0.308
24.84,-0.377,0.043,0.111
24.85,-0.29,0.226,-0.123
24.86,-0.282,0.174,-0.19
24.87,-0.233,-0.082,-0.089
24.88,-0.302,-0.09,-0.055
24.89,-0.22,0.075,-0.064
24.9,-0.133,0.072,0.028
24.91,-0.143,0.25,0.033
24.92,-0.124,0.278,0.044
24.93,-0.171,-0.039,0.108
24.94,-0.296,-0.176,0.09
24.95,-0.371,-0.327,0.048
24.96,-0.335,-0.283,0.071
24.97,-0.27,0.022,0.049
24.98,-0.265,0.196,0.027
24.99,-0.213,0.257,-0.089
25.0,-0.254,0.184,-0.08
25.01,-0.0,-0.0,-0.853
25.02,-0.199,-0.02,0.109
25.03,-0.311,0.162,0.13
25.04,-0.28,-0.104,0.056
25.05,-0.328,-0.089,-0.028
25.06,-0.388,-0.057,-0.034
25.07,-0.232,0.011,-0.051
25.08,-0.215,0.271,-0.03
25.09,-0.257,0.228,-0.042
25.1,-0.155,0.189,-0.032
25.11,-0.191,0.045,-0.01
25.12,-0.222,-0.106,0.01
25.13,-0.186,-0.249,0.11
25.14,-0.238,-0.071,0.124
25.15,-0.232,-0.088,0.119
25.16,-0.218,0.046,0.045
25.17,-0.238,0.187,-0.026
25.18,-0.211,-0.029,-0.079
25.19,-0.24,-0.037,-0.093
25.2,-0.28,0.1,0.002
25.21,-0.277,0.091,0.059
25.22,-0.338,0.288,0.068
25.23,-0.19,0.233,-0.066
25.24,-0.152,-0.046,-0.122
25.25,-0.179,-0.208,-0.051
25.26,-0.152,-0.413,0.105
25.27,-0.243,-0.268,0.283
25.28,-0.171,0.075,0.215
25.29,-0.203,0.113,0.083
25.3,-0.276,0.231,-0.059
25.31,-0.24,0.137,-0.136
25.32,-0.383,-0.062,-0.037
25.33,-0.328,-0.051,-0.079
25.34,-0.318,0.052,-0.05
25.35,-0.355,0.071,0.031
25.36,-0.171,0.27,-0.015
25.37,-0.149,0.084,0.075
25.38,-0.072,-0.178,0.036
25.39,-0.083,-0.191,0.049
25.4,-0.288,-0.247,0.165
25.41,-0.196,0.026,0.066
25.42,-0.268,0.205,0.039
25.43,-0.32,0.208,0.008
25.44,-0.332,0.239,-0.115
25.45,-0.451,0.015,-0.088
25.46,-0.285,-0.182,-0.104
25.47,-0.255,-0.008,-0.029
25.48,-0.213,0.0,0.076
25.49,-0.042,0.073,0.098
25.5,-0.019,0.156,0.03
25.51,-0.018,-0.031,-0.869
25.52,-0.198,-0.255,0.098
25.53,-0.321,-0.085,0.134
25.54,-0.362,-0.082,0.14
25.55,-0.487,0.033,0.048
25.56,-0.333,0.221,-0.121
25.57,-0.276,0.101,-0.139
25.58,-0.287,0.082,-0.044
25.59,-0.224,-0.051,-0.026
25.6,-0.088,-0.177,0.026
25.61,-0.064,-0.056,-0.011
25.62,-0.117,0.102,0.105
25.63,-0.109,0.123,0.165
25.64,-0.172,0.18,0.115
25.65,-0.359,0.02,0.026
25.66,-0.381,-0.16,-0.079
25.67,-0.46,-0.051,-0.049
25.68,-0.457,-0.041,0.025
25.69,-0.24,0.181,-0.043
25.7,-0.27,0.182,-0.052
25.71,-0.207,0.04,-0.003
25.72,-0.033,0.157,-0.035
25.73,-0.071,-0.119,0.075
25.74,-0.083,-0.207,0.071
25.75,-0.111,-0.047,0.076
25.76,-0.235,0.034,0.12
25.77,-0.365,0.165,0.1
25.78,-0.358,0.168,-0.015
25.79,-0.352,-0.143,-0.096
25.8,-0.387,-0.224,-0.079
25.81,-0.327,-0.006,0.025
25.82,-0.29,0.037,0.136
25.83,-0.269,0.365,0.078
25.84,-0.063,0.286,-0.152
25.85,0.009,-0.03,-0.163
25.86,-0.037,-0.26,-0.078
25.87,-0.144,-0.343,0.149
25.88,-0.315,-0.186,0.339
25.89,-0.299,0.152,0.251
25.9,-0.379,0.2,0.048
25.91,-0.348,0.175,-0.213
25.92,-0.266,0.058,-0.205
25.93,-0.389,-0.187,-0.013
25.94,-0.29,-0.032,0.009
25.95,-0.223,0.055,0.008
25.96,-0.12,0.136,0.02
25.97,0.048,0.266,-0.042
25.98,-0.126,0.139,0.073
25.99,-0.17,-0.18,0.109
26.0,-0.258,-0.159,0.079
26.01,-0.429,-0.173,0.11
26.02,-0.358,0.021,-0.036
26.03,-0.34,0.22,-0.07
26.04,-0.24,0.146,-0.066
26.05,-0.25,0.045,-0.053
26.06,-0.21,0.027,-0.015
26.07,-0.161,-0.132,0.032
26.08,-0.214,0.125,-0.869
26.09,-0.147,0.153,0.039
26.1,-0.186,0.106,0.031
26.11,-0.169,0.103,0.004
26.12,-0.297,-0.214,0.083
26.13,-0.406,-0.264,0.083
26.14,-0.276,-0.168,0.031
26.15,-0.308,-0.096,0.02
26.16,-0.225,0.213,-0.014
26.17,-0.221,0.314,-0.03
26.18,-0.191,0.093,-0.006
26.19,-0.099,0.097,-0.09
26.2,-0.199,-0.093,0.01
26.21,-0.215,-0.106,0.028
26.22,-0.158,0.047,0.069
26.23,-0.268,0.047,0.149
26.24,-0.281,0.119,0.028
26.25,-0.325,-0.052,0.019
26.26,-0.327,-0.136,0.015
26.27,-0.314,-0.02,-0.036
26.28,-0.305,0.009,0.01
26.29,-0.164,0.161,-0.039
26.3,-0.154,0.235,-0.073
26.31,-0.243,0.186,0.027
26.32,-0.174,-0.004,0.053
26.33,-0.153,-0.06,-0.017
26.34,-0.229,-0.206,0.048
26.35,-0.295,-0.138,0.119
26.36,-0.255,0.019,0.118
26.37,-0.327,0.112,0.091
26.38,-0.243,0.034,-0.056
26.39,-0.15,0.059,-0.137
26.4,-0.237,-0.125,-0.07
26.41,-0.256,-0.03,0.021
26.42,-0.248,0.255,0.087
26.43,-0.306,0.229,0.089
26.44,-0.241,0.288,-0.08
26.45,-0.138,0.065,-0.172
26.46,-0.101,-0.312,-0.098
26.47,-0.222,-0.353,0.112
26.48,-0.331,-0.28,0.314
26.49,-0.211,-0.042,0.238
26.5,-0.23,0.219,0.013
26.51,-0.21,0.205,-0.104
26.52,-0.189,0.123,-0.176
26.53,-0.341,0.043,-0.087
26.54,-0.325,-0.178,0.008
26.55,-0.287,0.116,-0.008
26.56,-0.28,0.191,0.038
26.57,-0.088,0.06,0.022
26.58,-0.164,0.288,0.013
26.59,-0.244,-0.226,0.11
26.6,-0.257,-0.283,0.08
26.61,-0.285,-0.185,0.055
26.62,-0.17,-0.124,0.016
26.63,-0.263,0.152,0.009
26.64,-0.228,0.382,-0.036
26.65,-0.228,0.144,-0.053
26.66,-0.336,0.04,-0.016
26.67,-0.293,-0.035,-0.045
26.68,-0.235,-0.223,0.038
26.69,-0.221,0.132,-0.016
26.7,-0.198,0.145,0.02
26.71,-0.195,0.082,0.012
26.72,-0.035,-0.042,-0.022
26.73,-0.175,-0.26,0.065
26.74,-0.306,-0.254,0.131
26.75,-0.252,-0.031,0.115
26.76,-0.357,0.081,0.106
26.77,-0.326,0.323,-0.036
26.78,-0.218,0.27,-0.104
26.79,-0.263,0.008,-0.097
26.8,-0.211,-0.073,-0.132
26.81,-0.255,-0.091,-0.001
26.82,-0.184,-0.201,0.058
26.83,-0.115,0.068,0.109
26.84,-0.14,0.094,-0.871
26.85,-0.205,-0.003,0.114
26.86,-0.319,0.085,0.047
26.87,-0.336,-0.143,-0.004
26.88,-0.31,0.02,-0.042
26.89,-0.366,0.159,-0.048
26.9,-0.295,0.145,-0.046
26.91,-0.206,0.213,-0.13
26.92,-0.261,0.118,-0.028
26.93,-0.198,-0.053,0.065
26.94,-0.125,-0.129,0.059
26.95,-0.148,-0.194,0.077
26.96,-0.129,-0.127,0.108
26.97,-0.16,0.101,0.119
26.98,-0.255,0.15,0.084
26.99,-0.332,0.06,-0.04
27.0,-0.261,0.011,-0.127
27.01,-0.266,-0.124,-0.046
27.02,-0.344,0.015,0.07
27.03,-0.347,0.186,0.055
27.04,-0.353,0.163,0.017
27.05,-0.161,0.274,-0.12
27.06,-0.025,0.011,-0.144
27.07,-0.078,-0.299,-0.017
27.08,-0.092,-0.34,0.086
27.09,-0.264,-0.205,0.343
27.1,-0.246,0.017,0.285
27.11,-0.255,0.317,0.068
27.12,-0.325,0.201,-0.108
27.13,-0.283,0.013,-0.198
27.14,-0.42,-0.068,-0.114
27.15,-0.442,-0.104,0.014
27.16,-0.266,0.055,-0.024
27.17,-0.208,0.185,-0.043
27.18,-0.057,0.089,-0.015
27.19,-0.033,0.143,0.038
27.2,-0.154,-0.03,0.156
27.21,-0.224,-0.307,0.171
27.22,-0.247,-0.086,0.083
27.23,-0.257,-0.085,-0.014
27.24,-0.313,0.036,-0.012
27.25,-0.314,0.285,-0.074
27.26,-0.386,0.111,-0.031
27.27,-0.415,0.002,-0.049
27.28,-0.258,0.026,-0.085
27.29,-0.186,-0.158,0.02
27.3,-0.118,0.201,0.042
27.31,-0.09,0.1,0.037
27.32,-0.008,0.028,0.008
27.33,-0.089,-0.008,-0.006
27.34,-0.299,-0.19,0.172
27.35,-0.293,-0.141,0.143
27.36,-0.347,-0.008,0.005
27.37,-0.489,-0.019,-0.015
27.38,-0.344,0.123,-0.117
27.39,-0.29,0.25,-0.056
27.4,-0.206,-0.018,-0.025
27.41,-0.143,-0.017,-0.036
27.42,-0.102,-0.023,-0.053
27.43,-0.046,-0.068,0.039
27.44,-0.156,0.104,0.126
27.45,-0.193,0.173,0.155
27.46,-0.312,-0.014,0.119
27.47,-0.344,-0.095,-0.018
27.48,-0.394,-0.167,-0.079
27.49,-0.44,-0.111,-0.032
27.5,-0.302,0.104,-0.008
27.51,-0.177,0.229,-0.038
27.52,-0.244,0.215,-0.063
27.53,-0.161,0.182,-0.077
27.54,-0.083,0.069,0.007
27.55,-0.106,-0.063,0.059
27.56,-0.227,-0.103,0.104
27.57,-0.217,-0.183,0.129
27.58,-0.207,0.028,0.045
27.59,-0.359,-0.001,0.026
27.6,-0.282,-0.07,-0.052
27.61,-0.25,-0.072,-0.066
27.62,-0.333,-0.051,0.045
27.63,-0.307,0.122,0.067
27.64,-0.291,0.307,0.03
27.65,-0.249,0.328,-0.05
27.66,-0.116,0.151,-0.158
27.67,-0.082,-0.06,-0.182
27.68,-0.098,-0.44,0.006
27.69,-0.182,-0.303,0.192
27.7,-0.341,-0.012,0.322
27.71,-0.277,0.042,0.228
27.72,-0.213,0.244,-0.08
27.73,-0.264,0.125,-0.877
27.74,-0.219,-0.13,-0.149
27.75,-0.368,-0.025,-0.044
27.76,-0.389,-0.001,0.031
27.77,-0.191,0.152,-0.012
27.78,-0.169,0.248,-0.024
27.79,-0.095,0.223,0.005
27.8,-0.098,0.04,0.09
27.81,-0.276,-0.182,0.118
27.82,-0.303,-0.368,0.094
27.83,-0.309,-0.165,0.035
27.84,-0.214,-0.073,-0.003
27.85,-0.228,0.139,-0.016
27.86,-0.267,0.263,-0.015
27.87,-0.263,0.099,-0.017
27.88,-0.276,0.052,-0.045
27.89,-0.251,0.085,-0.037
27.9,-0.252,0.005,0.025
27.91,-0.211,0.146,-0.004
27.92,-0.18,0.128,-0.021
27.93,-0.182,-0.185,0.006
27.94,-0.159,-0.169,0.019
27.95,-0.247,-0.309,0.139
27.96,-0.231,-0.197,0.141
27.97,-0.228,0.13,0.047
27.98,-0.311,0.189,0.021
27.99,-0.275,0.272,-0.069
28.0,-0.245,0.213,-0.121
28.01,-0.306,0.007,-0.058
28.02,-0.244,-0.05,-0.066
28.03,-0.177,-0.047,0.001
28.04,-0.272,-0.097,0.094
28.05,-0.179,0.087,0.093
28.06,-0.376,-0.051,-0.126
28.07,-0.389,-0.034,-0.044
28.08,-0.36,-0.034,0.056
28.09,-0.209,0.261,0.021
28.1,-0.018,0.081,0.01
28.11,-0.076,0.046,0.073
28.12,-0.101,-0.16,0.079
28.13,-0.204,-0.324,0.126
28.14,-0.27,-0.068,0.041
28.15,-0.308,0.007,0.025
28.16,-0.356,0.167,-0.016
28.17,-0.296,0.338,-0.092
28.18,-0.388,0.081,-0.037
28.19,-0.362,-0.078,-0.061
28.2,-0.238,-0.036,-0.096
28.21,-0.224,-0.173,0.054
28.22,-0.075,0.092,0.043
28.23,-0.084,0.206,0.068
28.24,-0.088,-0.024,0.049
28.25,-0.068,0.02,0.003
28.26,-0.287,-0.133,0.103
28.27,-0.316,-0.229,0.109
28.28,-0.331,0.046,-0.017
28.29,-0.435,0.034,-0.008
28.3,-0.352,0.19,-0.119
28.31,-0.244,0.195,-0.106
28.32,-0.216,0.004,-0.004
28.33,-0.121,-0.002,-0.005
28.34,-0.114,-0.026,0.015
28.35,-0.079,-0.112,0.042
28.36,-0.135,0.117,0.074
28.37,-0.179,-0.008,0.125
28.38,-0.305,0.004,0.125
28.39,-0.423,-0.068,0.039
28.4,-0.363,-0.101,-0.053
28.41,-0.38,-0.027,-0.086
28.42,-0.33,0.13,-0.062
28.43,-0.232,0.199,-0.04
28.44,-0.189,0.175,-0.054
28.45,-0.179,0.164,-0.07
28.46,-0.115,-0.03,0.005
28.47,-0.098,-0.077,0.038
28.48,-0.189,-0.161,0.089
28.49,-0.228,-0.087,0.176
28.5,-0.24,0.087,0.123
28.51,-0.291,0.1,-0.002
28.52,-0.236,-0.081,-0.154
28.53,-0.271,-0.063,-0.123
28.54,-0.376,-0.049,0.031
28.55,-0.305,0.076,0.09
28.56,-0.267,0.287,-0.007
28.57,-0.262,0.26,-0.044
28.58,-0.106,0.142,-0.148
28.59,-0.056,-0.035,-0.111
28.6,-0.152,-0.363,0.104
28.61,-0.126,-0.234,0.198
28.62,-0.279,-0.069,0.265
28.63,-0.252,0.021,0.142
28.64,-0.0,-0.0,-0.864
28.65,-0.125,0.101,-0.023
28.66,-0.131,0.017,0.044
28.67,-0.146,0.191,0.03
28.68,-0.163,0.113,0.047
28.69,-0.102,-0.141,0.0
28.7,-0.281,-0.165,0.047
28.71,-0.435,-0.248,0.152
28.72,-0.309,-0.233,0.078
28.73,-0.311,0.092,0.027
28.74,-0.276,0.131,0.006
28.75,-0.185,0.27,-0.093
28.76,-0.211,0.203,-0.064
28.77,-0.174,-0.007,-0.054
28.78,-0.172,0.048,-0.062
28.79,-0.209,0.017,-0.011
28.8,-0.165,-0.104,0.05
28.81,-0.214,0.012,0.08
28.82,-0.315,-0.0,-0.873
28.83,-0.273,-0.243,0.087
28.84,-0.273,-0.025,0.013
28.85,-0.316,-0.0,-0.865
28.86,-0.287,0.079,0.004
28.87,-0.228,0.298,-0.053
28.88,-0.262,0.199,-0.054
28.89,-0.231,0.167,-0.028
28.9,-0.21,0.051,0.007
28.91,-0.158,-0.159,0.022
28.92,-0.163,-0.143,0.044
28.93,-0.208,-0.074,0.14
28.94,-0.189,-0.089,0.179
28.95,-0.261,0.136,0.082
28.96,-0.198,-0.028,-0.032
28.97,-0.232,-0.123,-0.088
28.98,-0.353,0.082,0.006
28.99,-0.345,-0.009,0.124
29.0,-0.332,0.295,0.039
29.01,-0.284,0.288,-0.093
29.02,-0.142,0.121,-0.147
29.03,-0.135,-0.035,-0.161
29.04,-0.159,-0.253,0.052
29.05,-0.088,-0.361,0.181
29.06,-0.196,-0.12,0.273
29.07,-0.242,0.038,0.204
29.08,-0.237,0.112,0.063
29.09,-0.273,0.211,-0.071
29.1,-0.323,-0.058,-0.103
29.11,-0.425,-0.051,-0.102
29.12,-0.353,0.047,-0.058
29.13,-0.268,0.132,0.042
29.14,-0.152,0.259,-0.042
29.15,-0.139,0.169,-0.014
29.16,-0.141,-0.129,0.045
29.17,-0.049,-0.113,0.077
29.18,-0.258,-0.282,0.162
29.19,-0.273,-0.199,0.118
29.2,-0.274,0.071,0.052
29.21,-0.331,0.207,0.034
29.22,-0.291,0.178,-0.047
29.23,-0.326,0.153,-0.022
29.24,-0.266,-0.018,-0.032
29.25,-0.236,-0.008,-0.063
29.26,-0.283,0.015,-0.036
29.27,-0.193,0.052,-0.026
29.28,-0.114,0.086,0.012
29.29,-0.08,0.014,0.029
29.3,-0.182,-0.192,0.11
29.31,-0.27,-0.154,0.129
29.32,-0.25,-0.121,0.151
29.33,-0.233,-0.035,0.067
29.34,-0.349,0.174,0.018
29.35,-0.321,0.163,-0.062
29.36,-0.252,0.168,-0.145
29.37,-0.3,0.065,-0.1
29.38,-0.297,-0.088,-0.031
29.39,-0.157,-0.059,-0.019
29.4,-0.083,-0.034,0.041
29.41,-0.073,-0.006,0.106
29.42,-0.106,0.102,0.127
29.43,-0.282,-0.046,0.142
29.44,-0.259,-0.071,0.024
29.45,-0.294,0.056,-0.03
29.46,-0.44,-0.021,-0.018
29.47,-0.389,0.146,-0.073
29.48,-0.35,0.17,-0.072
29.49,-0.311,0.096,-0.017
29.5,-0.179,0.044,-0.016
29.51,-0.094,-0.007,-0.009
29.52,-0.041,-0.19,0.048
29.53,-0.122,-0.042,0.079
29.54,-0.093,0.017,0.105
29.55,-0.228,0.037,0.118
29.56,-0.344,0.135,0.018
29.57,-0.3,-0.007,-0.079
29.58,-0.367,-0.179,-0.053
29.59,-0.428,-0.003,-0.009
29.6,-0.365,0.058,0.094
29.61,-0.295,0.195,0.057
29.62,-0.206,0.293,-0.105
29.63,-0.051,0.088,-0.17
29.64,0.055,-0.062,-0.119
29.65,-0.075,-0.265,0.025
29.66,-0.14,-0.325,0.233
29.67,-0.264,-0.027,0.298
29.68,-0.37,0.156,0.196
29.69,-0.284,0.126,-0.02
29.7,-0.355,0.162,-0.188
29.71,-0.396,-0.14,-0.174
29.72,-0.381,-0.073,-0.077
29.73,-0.282,0.089,-0.005
29.74,-0.228,0.192,0.028
29.75,-0.044,0.129,-0.006
29.76,-0.056,0.224,0.019
29.77,-0.087,-0.123,0.091
29.78,-0.195,-0.2,0.112
29.79,-0.326,-0.125,-0.872
29.8,-0.326,-0.168,0.056
29.81,-0.284,0.119,-0.054
29.82,-0.311,0.174,-0.059
29.83,-0.314,0.144,-0.071
29.84,-0.317,0.043,-0.01
29.85,-0.303,-0.038,0.01
29.86,-0.163,-0.046,0.008
29.87,-0.217,0.113,0.018
29.88,-0.139,0.062,0.062
29.89,-0.08,0.144,0.011
29.9,-0.144,0.004,-0.004
29.91,-0.22,-0.2,0.066
29.92,-0.257,-0.174,0.089
29.93,-0.323,-0.116,0.092
29.94,-0.31,-0.001,0.015
29.95,-0.335,0.167,-0.009
29.96,-0.255,0.219,-0.866
29.97,-0.26,0.091,-0.041
29.98,-0.22,0.07,0.009
29.99,-0.186,-0.13,0.016
30.0,-0.132,-0.006,0.017
30.01,-0.09,-0.024,0.093
30.02,-0.168,0.097,0.154
30.03,-0.258,0.05,0.135
30.04,-0.371,-0.144,0.046
30.05,-0.333,-0.166,-0.049
30.06,-0.315,-0.09,-0.081
30.07,-0.336,0.107,0.013
30.08,-0.257,0.207,0.002
30.09,-0.188,0.315,-0.056
30.1,-0.207,0.161,-0.012
30.11,-0.164,0.062,-0.007
30.12,-0.174,-0.094,0.048
30.13,-0.0,-0.0,-0.844
30.14,-0.223,0.166,-0.123
30.15,-0.227,0.082,-0.173
30.16,-0.405,-0.052,-0.044
30.17,-0.391,-0.026,-0.015
30.18,-0.37,0.2,-0.002
30.19,-0.262,0.092,0.057
30.2,-0.056,0.23,-0.023
30.21,-0.146,0.103,0.088
30.22,-0.122,-0.323,0.186
30.23,-0.191,-0.172,0.113
30.24,-0.239,-0.237,0.111
30.25,-0.186,-0.105,-0.002
30.26,-0.269,0.27,0.013
30.27,-0.278,0.257,-0.035
30.28,-0.354,0.156,-0.034
30.29,-0.409,0.117,-0.012
30.3,-0.252,-0.087,-0.047
30.31,-0.275,0.074,0.005
30.32,-0.148,0.009,0.001
30.33,-0.109,0.122,0.061
30.34,-0.116,0.014,0.017
30.35,-0.127,-0.197,0.094
30.36,-0.2,-0.32,0.148
30.37,-0.231,-0.145,0.149
30.38,-0.314,-0.052,0.144
30.39,-0.36,0.079,0.009
30.4,-0.319,0.405,-0.1
30.41,-0.345,0.169,-0.057
30.42,-0.315,0.127,-0.081
30.43,-0.19,-0.045,-0.071
30.44,-0.178,-0.16,0.018
30.45,-0.117,-0.086,0.048
30.46,-0.196,0.005,0.155
30.47,-0.124,0.006,0.163
30.48,-0.137,0.042,0.116
30.49,-0.289,-0.072,0.027
30.5,-0.333,-0.096,-0.063
30.51,-0.367,0.071,-0.025
30.52,-0.349,0.176,-0.003
30.53,-0.301,0.228,-0.058
30.54,-0.261,0.156,-0.063
30.55,-0.23,0.095,-0.05
30.56,-0.223,0.028,0.024
30.57,-0.139,-0.123,0.081
30.58,-0.094,-0.222,0.077
30.59,-0.144,-0.032,0.108
30.6,-0.123,-0.063,0.098
30.61,-0.247,0.05,0.097
30.62,-0.295,0.07,0.014
30.63,-0.298,-0.07,-0.027
30.64,-0.367,-0.024,-0.042
30.65,-0.354,0.087,0.02
30.66,-0.411,0.213,0.029
30.67,-0.307,0.284,-0.038
30.68,-0.167,0.254,-0.151
30.69,-0.047,-0.149,-0.123
30.7,0.001,-0.31,-0.046
30.71,-0.101,-0.34,0.207
30.72,-0.242,-0.257,0.408
30.73,-0.171,0.206,0.222
30.74,-0.29,0.205,0.062
30.75,-0.311,0.166,-0.139
30.76,-0.306,0.135,-0.219
30.77,-0.439,-0.154,-0.103
30.78,-0.374,0.05,-0.069
30.79,-0.303,0.078,-0.021
30.8,-0.193,0.153,0.072
30.81,-0.015,0.168,-0.015
30.82,-0.082,0.106,0.067
30.83,-0.145,-0.277,0.15
30.84,-0.236,-0.192,0.137
30.85,-0.255,-0.2,0.101
30.86,-0.273,-0.067,0.012
30.87,-0.355,0.2,0.009
30.88,-0.276,0.236,-0.036
30.89,-0.371,0.087,-0.052
30.9,-0.361,0.057,-0.062
30.91,-0.262,-0.134,-0.045
30.92,-0.18,-0.045,-0.048
30.93,-0.156,0.164,0.002
30.94,-0.1,0.002,0.094
30.95,-0.098,0.144,0.028
30.96,-0.144,-0.136,0.043
30.97,-0.204,-0.222,0.172
30.98,-0.284,0.001,0.095
30.99,-0.303,-0.066,0.051
31.0,-0.389,0.052,-0.062
31.01,-0.333,0.238,-0.158
31.02,-0.315,0.131,-0.092
31.03,-0.212,0.011,-0.037
31.04,-0.144,0.0,-0.026
31.05,-0.172,-0.089,0.064
31.06,-0.086,-0.024,0.069
31.07,-0.117,0.128,0.111
31.08,-0.203,0.069,0.15
31.09,-0.179,0.011,0.043
31.1,-0.363,-0.026,-0.015
31.11,-0.439,-0.256,-0.062
31.12,-0.421,0.027,-0.007
31.13,-0.351,0.102,-0.004
31.14,-0.213,0.156,-0.036
31.15,-0.231,0.217,-0.044
31.16,-0.172,0.113,-0.004
31.17,-0.076,0.038,0.005
31.18,-0.09,-0.078,0.026
31.19,-0.127,-0.15,0.056
31.2,-0.196,0.005,0.063
31.21,-0.31,0.025,0.119
31.22,-0.385,-0.001,0.064
31.23,-0.321,0.012,-0.055
31.24,-0.322,-0.121,-0.093
31.25,-0.293,-0.178,0.008
31.26,-0.218,0.191,0.063
31.27,-0.267,0.357,0.044
31.28,-0.197,0.258,-0.075
31.29,-0.011,0.315,-0.243
31.3,-0.04,-0.198,-0.121
31.31,-0.145,-0.387,0.089
31.32,-0.285,-0.191,0.281
31.33,-0.379,-0.216,0.353
31.34,-0.339,0.175,0.098
31.35,-0.317,0.191,-0.127
31.36,-0.228,0.024,-0.166
31.37,-0.22,0.053,-0.149
31.38,-0.321,-0.101,0.005
31.39,-0.213,0.072,-0.052
31.4,-0.175,0.128,0.016
31.41,-0.19,0.236,0.071
31.42,-0.188,0.153,0.033
31.43,-0.225,-0.031,0.077
31.44,-0.267,-0.313,0.094
31.45,-0.4,-0.263,0.043
31.46,-0.314,-0.146,-0.007
31.47,-0.143,-0.094,-0.008
31.48,-0.167,0.367,-0.03
31.49,-0.168,0.263,-0.038
31.5,-0.32,0.039,0.008
31.51,-0.25,0.104,-0.092
31.52,-0.0,-0.0,-0.857
31.53,-0.187,-0.078,0.064
31.54,-0.26,-0.028,-0.012
31.55,-0.329,-0.131,0.009
31.56,-0.353,-0.083,0.016
31.57,-0.309,0.215,-0.005
31.58,-0.227,0.16,-0.019
31.59,-0.201,0.222,-0.077
31.6,-0.227,0.189,-0.045
31.61,-0.218,0.028,0.065
31.62,-0.216,-0.049,-0.01
31.63,-0.186,-0.19,0.02
31.64,-0.178,-0.188,0.096
31.65,-0.158,-0.008,0.069
31.66,-0.26,0.017,0.082
31.67,-0.26,0.032,0.005
31.68,-0.176,0.028,-0.082
31.69,-0.266,0.025,-0.022
31.7,-0.364,0.045,0.071
31.71,-0.343,0.258,0.053
31.72,-0.3,0.18,0.011
31.73,-0.216,0.139,-0.13
31.74,-0.15,-0.021,-0.124
31.75,-0.167,-0.378,0.07
31.76,-0.097,-0.242,0.181
31.77,-0.227,-0.133,0.271
31.78,-0.181,0.117,0.117
31.79,-0.218,0.258,-0.017
31.8,-0.246,0.149,-0.099
31.81,-0.311,0.017,-0.148
31.82,-0.448,-0.072,-0.038
31.83,-0.4,-0.081,0.011
31.84,-0.299,0.108,-0.014
31.85,-0.263,0.165,0.024
31.86,-0.086,0.059,0.001
31.87,-0.069,0.066,0.017
31.88,-0.092,-0.155,0.081
31.89,-0.186,-0.25,0.102
31.9,-0.206,-0.014,0.023
31.91,-0.267,-0.05,0.054
31.92,-0.351,0.175,0.052
31.93,-0.304,0.3,-0.033
31.94,-0.418,0.062,-0.002
31.95,-0.357,-0.028,-0.104
31.96,-0.299,0.025,-0.116
31.97,-0.223,-0.128,-0.011
31.98,-0.092,0.135,0.016
31.99,-0.086,0.055,0.058
32.0,-0.013,-0.068,0.057
32.01,-0.142,-0.081,0.103
32.02,-0.28,-0.18,0.177
32.03,-0.272,-0.097,0.088
32.04,-0.371,0.09,0.006
32.05,-0.411,0.124,-0.051
32.06,-0.334,0.184,-0.148
32.07,-0.352,0.135,-0.128
32.08,-0.215,-0.083,-0.035
32.09,-0.099,-0.05,0.031
32.1,-0.167,-0.037,0.046
32.11,-0.07,-0.11,0.073
32.12,-0.072,0.135,0.073
32.13,-0.165,0.104,0.119
32.14,-0.0,-0.0,-0.858
32.15,-0.29,0.203,0.001
32.16,-0.23,0.376,-0.019
32.17,-0.106,0.162,-0.122
32.18,0.045,0.011,-0.161
32.19,-0.014,-0.28,0.078
32.2,-0.098,-0.37,0.195
32.21,-0.323,-0.156,0.324
32.22,-0.386,0.083,0.28
32.23,-0.34,0.177,0.028
32.24,-0.372,0.253,-0.175
32.25,-0.325,-0.08,-0.208
32.26,-0.32,-0.095,-0.171
32.27,-0.344,0.022,-0.044
32.28,-0.185,0.043,0.024
32.29,-0.086,0.292,0.007
32.3,-0.046,0.202,0.003
32.31,-0.091,0.088,0.095
32.32,-0.185,-0.157,0.16
32.33,-0.315,-0.275,0.147
32.34,-0.4,-0.248,0.105
32.35,-0.279,-0.079,-0.023
32.36,-0.398,0.125,-0.87
32.37,-0.298,0.179,-0.061
32.38,-0.218,0.187,-0.081
32.39,-0.29,-0.052,0.002
32.4,-0.159,0.064,-0.073
32.41,-0.203,0.053,-0.003
32.42,-0.106,0.046,0.0
32.43,-0.0,-0.0,-0.844
32.44,-0.258,-0.117,0.002
32.45,-0.253,0.006,-0.025
32.46,-0.256,0.246,-0.048
32.47,-0.22,0.219,-0.85
32.48,-0.227,0.282,-0.029
32.49,-0.251,0.099,0.008
32.5,-0.209,-0.054,0.026
32.51,-0.161,-0.165,0.018
32.52,-0.212,-0.126,0.105
32.53,-0.235,-0.095,0.259
32.54,-0.235,0.058,0.19
32.55,-0.24,0.02,0.042
32.56,-0.151,-0.115,-0.121
32.57,-0.198,-0.026,-0.116
32.58,-0.353,0.138,0.027
32.59,-0.364,0.15,0.074
32.6,-0.306,0.366,0.004
32.61,-0.233,0.253,-0.078
32.62,-0.113,-0.011,-0.097
32.63,-0.12,-0.227,0.012
32.64,-0.211,-0.375,0.177
32.65,-0.202,-0.261,0.256
32.66,-0.238,-0.038,0.256
32.67,-0.226,0.081,0.093
32.68,-0.212,0.253,-0.07
32.69,-0.295,0.073,-0.087
32.7,-0.311,-0.053,-0.101
32.71,-0.339,-0.05,-0.071
32.72,-0.299,0.108,0.026
32.73,-0.269,0.17,0.058
32.74,-0.196,0.254,0.032
32.75,-0.208,0.049,0.012
32.76,-0.152,-0.144,0.068
32.77,-0.191,-0.146,0.088
32.78,-0.27,-0.298,0.143
32.79,-0.172,-0.078,0.073
32.8,-0.173,0.143,0.024
32.81,-0.283,0.154,0.057
32.82,-0.226,0.227,-0.056
32.83,-0.39,0.093,-0.049
32.84,-0.333,-0.01,-0.032
32.85,-0.292,0.081,-0.051
32.86,-0.292,0.036,0.026
32.87,-0.144,0.069,0.041
32.88,-0.16,0.072,0.043
32.89,-0.071,-0.186,0.107
32.9,-0.047,-0.301,0.059
32.91,-0.228,-0.07,0.157
32.92,-0.237,-0.106,0.131
32.93,-0.381,0.172,0.069
32.94,-0.379,0.219,-0.019
32.95,-0.226,0.157,-0.091
32.96,-0.349,0.092,-0.083
32.97,-0.295,-0.076,-0.064
32.98,-0.205,-0.122,0.006
32.99,-0.136,0.045,-0.009
33.0,-0.137,-0.017,0.091
33.01,-0.126,-0.052,0.131
33.02,-0.096,0.156,0.088
33.03,-0.225,-0.087,0.107
33.04,-0.329,-0.036,0.044
33.05,-0.348,0.046,-0.043
33.06,-0.379,0.023,0.019
33.07,-0.327,0.225,-0.045
33.08,-0.312,0.132,-0.084
33.09,-0.33,0.055,-0.055
33.1,-0.18,0.125,-0.86
33.11,-0.112,-0.047,0.04
33.12,-0.045,-0.153,0.068
33.13,-0.08,-0.077,0.105
33.14,-0.174,-0.035,0.174
33.15,-0.221,0.083,0.13
33.16,-0.308,0.108,0.065
33.17,-0.3,-0.029,-0.064
33.18,-0.331,-0.036,-0.081
33.19,-0.448,-0.005,0.034
33.2,-0.297,0.083,0.022
33.21,-0.283,0.251,0.008
33.22,-0.214,0.207,-0.047
33.23,-0.096,-0.012,-0.086
33.24,-0.042,-0.125,-0.855
33.25,-0.027,-0.314,0.105
33.26,-0.214,-0.255,0.215
33.27,-0.299,0.049,0.268
33.28,-0.244,0.173,0.161
33.29,-0.33,0.285,-0.014
33.3,-0.319,0.092,-0.153
33.31,-0.406,-0.181,-0.13
33.32,-0.361,-0.106,-0.052
33.33,-0.269,0.136,-0.021
33.34,-0.216,0.101,0.095
33.35,-0.092,0.208,-0.003
33.36,-0.023,0.161,0.01
33.37,-0.105,-0.145,0.114
33.38,-0.135,-0.168,0.085
33.39,-0.35,-0.254,0.176
33.4,-0.302,-0.031,0.079
33.41,-0.356,0.121,0.042
33.42,-0.369,0.235,-0.011
33.43,-0.294,0.118,-0.11
33.44,-0.379,0.033,-0.027
33.45,-0.171,-0.179,-0.016
33.46,-0.169,0.043,0.002
33.47,-0.187,0.036,0.088
33.48,-0.0,-0.0,-0.84
33.49,-0.323,-0.075,-0.007
33.5,-0.355,-0.024,0.003
33.51,-0.242,0.017,-0.016
33.52,-0.192,0.275,-0.048
33.53,-0.229,0.159,0.016
33.54,-0.137,0.153,0.027
33.55,-0.127,0.003,0.018
33.56,-0.164,-0.081,0.039
33.57,-0.196,-0.224,0.112
33.58,-0.277,-0.013,0.171
33.59,-0.286,-0.005,0.166
33.6,-0.355,0.077,0.062
33.61,-0.27,0.074,-0.096
33.62,-0.206,-0.195,-0.122
33.63,-0.25,0.032,-0.051
33.64,-0.261,0.146,0.047
33.65,-0.279,0.169,0.121
33.66,-0.234,0.305,-0.013
33.67,-0.132,0.186,-0.109
33.68,-0.081,-0.218,-0.044
33.69,-0.141,-0.237,0.046
33.7,-0.246,-0.274,0.244
33.71,-0.324,-0.208,0.272
33.72,-0.242,0.211,0.125
33.73,-0.282,0.078,-0.009
33.74,-0.257,0.14,-0.135
33.75,-0.272,0.033,-0.155
33.76,-0.327,-0.095,-0.03
33.77,-0.341,0.089,0.031
33.78,-0.239,0.17,0.036
33.79,-0.102,0.174,0.048
33.8,-0.076,0.192,0.042
33.81,-0.216,-0.08,0.131
33.82,-0.188,-0.22,0.059
33.83,-0.286,-0.213,0.091
33.84,-0.391,-0.204,0.106
33.85,-0.247,-0.007,-0.002
33.86,-0.302,0.253,-0.044
33.87,-0.244,0.149,0.003
33.88,-0.295,0.109,-0.025
33.89,-0.298,0.048,-0.033
33.9,-0.138,-0.104,-0.022
33.91,-0.162,0.12,0.024
33.92,-0.198,0.193,0.056
33.93,-0.183,0.008,0.035
33.94,-0.2,0.064,0.023
33.95,-0.182,-0.188,0.028
33.96,-0.288,-0.324,0.115
33.97,-0.262,-0.119,0.081
33.98,-0.275,-0.01,0.052
33.99,-0.0,-0.0,-0.846
34.0,-0.122,-0.043,0.018
34.01,-0.171,-0.184,0.078
34.02,-0.146,-0.108,0.112
34.03,-0.146,0.036,0.123
34.04,-0.224,0.028,0.123
34.05,-0.263,0.108,-0.021
34.06,-0.231,-0.02,-0.101
34.07,-0.312,-0.157,-0.019
34.08,-0.369,0.052,0.036
34.09,-0.334,0.228,0.055
34.1,-0.268,0.206,0.023
34.11,-0.236,0.306,-0.11
34.12,-0.121,0.043,-0.143
34.13,-0.075,-0.252,-0.019
34.14,-0.033,-0.313,0.108
34.15,-0.19,-0.349,0.287
34.16,-0.249,-0.016,0.288
34.17,-0.256,0.238,0.131
34.18,-0.341,0.16,-0.013
34.19,-0.324,0.077,-0.186
34.2,-0.36,0.018,-0.162
34.21,-0.349,-0.175,-0.059
34.22,-0.376,0.172,-0.032
34.23,-0.264,0.117,0.038
34.24,-0.089,0.131,-0.004
34.25,-0.015,0.157,0.056
34.26,-0.085,-0.166,0.157
34.27,-0.177,-0.239,0.139
34.28,-0.266,-0.092,0.072
34.29,-0.266,-0.053,0.053
34.3,-0.38,0.258,-0.021
34.31,-0.358,0.255,-0.068
34.32,-0.359,0.004,-0.042
34.33,-0.361,0.069,-0.088
34.34,-0.262,-0.141,-0.02
34.35,-0.248,-0.047,0.038
34.36,-0.095,0.147,0.028
34.37,-0.026,0.124,0.049
34.38,-0.061,0.092,0.039
34.39,-0.128,-0.052,0.03
34.4,-0.263,-0.277,0.143
34.41,-0.281,-0.102,0.13
34.42,-0.39,-0.034,0.056
34.43,-0.45,0.039,0.025
34.44,-0.335,0.282,-0.135
34.45,-0.329,0.143,-0.09
34.46,-0.221,-0.024,-0.085
34.47,-0.074,0.022,-0.063
34.48,-0.166,-0.076,0.052
34.49,-0.046,-0.042,0.068
34.5,-0.067,0.165,0.118
34.51,-0.128,0.046,0.147
34.52,-0.274,0.035,0.108
34.53,-0.396,-0.104,0.062
34.54,-0.412,-0.179,-0.053
34.55,-0.421,-0.014,-0.088
34.56,-0.402,0.095,-0.02
34.57,-0.271,0.196,-0.052
34.58,-0.164,0.289,-0.063
34.59,-0.149,0.094,-0.866
34.6,-0.07,-0.014,0.021
34.61,-0.058,-0.075,0.067
34.62,-0.124,-0.204,0.16
34.63,-0.193,0.042,0.138
34.64,-0.288,-0.008,0.084
34.65,-0.337,0.056,0.043
34.66,-0.269,0.071,-0.119
34.67,-0.36,-0.116,-0.07
34.68,-0.389,-0.199,0.017
34.69,-0.277,0.09,0.061
34.7,-0.25,0.208,0.078
34.71,-0.188,0.29,-0.011
34.72,-0.121,0.262,-0.11
34.73,-0.061,-0.143,-0.1
34.74,-0.047,-0.316,-0.055
34.75,-0.235,-0.246,0.189
34.76,-0.338,-0.095,0.356
34.77,-0.255,0.215,0.201
34.78,-0.285,0.225,-0.044
34.79,-0.295,0.012,-0.17
34.8,-0.313,-0.068,-0.161
34.81,-0.307,-0.135,-0.033
34.82,-0.295,-0.024,0.003
34.83,-0.252,0.163,0.027
34.84,-0.138,0.227,0.015
34.85,-0.037,0.228,0.005
34.86,-0.127,0.137,0.085
34.87,-0.218,-0.234,0.113
34.88,-0.356,-0.305,0.102
34.89,-0.37,-0.247,0.042
34.9,-0.304,-0.067,0.047
34.91,-0.285,0.202,-0.018
34.92,-0.253,0.189,-0.035
34.93,-0.209,0.128,-0.045
34.94,-0.212,0.01,-0.04
34.95,-0.296,0.061,0.004
34.96,-0.197,-0.11,-0.022
34.97,-0.128,0.232,0.014
34.98,-0.215,0.135,0.035
34.99,-0.209,0.043,0.04
35.0,-0.235,-0.125,-0.866
35.01,-0.295,-0.385,0.097
35.02,-0.212,-0.193,0.099
35.03,-0.267,-0.078,0.112
35.04,-0.307,0.109,0.064
35.05,-0.163,0.366,-0.117
35.06,-0.259,0.251,-0.063
35.07,-0.235,0.009,-0.1
35.08,-0.261,-0.044,-0.046
35.09,-0.186,-0.125,0.053
35.1,-0.142,-0.034,0.07
35.11,-0.203,0.124,0.109
35.12,-0.2,0.03,0.129
35.13,-0.255,0.054,0.037
35.14,-0.255,-0.056,0.029
35.15,-0.298,-0.206,-0.026
35.16,-0.377,0.045,-0.032
35.17,-0.346,0.103,-0.021
35.18,-0.227,0.144,-0.014
35.19,-0.211,0.256,-0.015
35.2,-0.208,0.102,0.01
35.21,-0.193,-0.053,0.063
35.22,-0.108,-0.1,0.003
35.23,-0.203,-0.17,0.069
35.24,-0.273,-0.037,0.088
35.25,-0.205,0.077,0.042
35.26,-0.282,0.074,0.006
35.27,-0.226,0.05,-0.077
35.28,-0.214,-0.078,-0.044
35.29,-0.326,-0.134,0.093
35.3,-0.279,0.109,0.072
35.31,-0.312,0.26,0.055
35.32,-0.276,0.273,-0.072
35.33,-0.104,0.24,-0.184
35.34,-0.174,-0.158,-0.064
35.35,-0.134,-0.4,0.004
35.36,-0.208,-0.261,0.207
35.37,-0.0,-0.0,-0.848
35.38,-0.389,-0.016,0.011
35.39,-0.268,-0.051,-0.026
35.4,-0.285,-0.095,0.002
35.41,-0.221,0.041,0.018
35.42,-0.154,0.133,0.032
35.43,-0.083,0.127,0.04
35.44,-0.07,-0.123,-0.003
35.45,-0.246,-0.144,0.109
35.46,-0.201,-0.25,0.184
35.47,-0.183,0.053,0.064
35.48,-0.438,0.126,0.053
35.49,-0.34,0.127,-0.057
35.5,-0.0,-0.0,-0.844
35.51,-0.089,-0.083,0.109
35.52,-0.182,-0.02,0.136
35.53,-0.178,0.146,0.045
35.54,-0.293,0.112,0.057
35.55,-0.249,-0.018,-0.085
35.56,-0.336,-0.063,-0.051
35.57,-0.406,-0.09,0.013
35.58,-0.348,0.128,0.035
35.59,-0.375,0.246,0.097
35.6,-0.254,0.204,0.019
35.61,-0.083,0.14,-0.131
35.62,-0.006,-0.13,-0.106
35.63,-0.014,-0.506,0.052
35.64,-0.155,-0.204,0.21
35.65,-0.318,-0.041,0.36
35.66,-0.275,0.151,0.23
35.67,-0.284,0.365,-0.092
35.68,-0.325,0.076,-0.222
35.69,-0.445,-0.097,-0.146
35.7,-0.4,-0.047,-0.036
35.71,-0.344,-0.044,0.047
35.72,-0.179,0.043,0.007
35.73,-0.055,0.288,-0.017
35.74,-0.046,0.179,0.076
35.75,-0.068,0.013,0.129
35.76,-0.19,-0.124,0.103
35.77,-0.315,-0.324,0.123
35.78,-0.316,-0.103,0.011
35.79,-0.29,0.054,0.006
35.8,-0.37,0.132,-0.039
35.81,-0.36,0.282,-0.057
35.82,-0.308,0.037,-0.03
35.83,-0.177,0.001,-0.071
35.84,-0.22,-0.015,-0.02
35.85,-0.187,-0.02,0.081
35.86,-0.088,0.098,0.08
35.87,-0.136,0.202,0.083
35.88,-0.116,-0.152,0.091
35.89,-0.195,-0.09,0.075
35.9,-0.402,-0.217,0.141
35.91,-0.316,-0.271,0.049
35.92,-0.326,0.161,-0.038
35.93,-0.387,0.139,-0.038
35.94,-0.207,0.246,-0.084
35.95,-0.171,0.212,-0.112
35.96,-0.162,0.011,-0.016
35.97,-0.123,-0.134,0.012
35.98,-0.164,-0.01,0.079
35.99,-0.175,-0.031,-0.863
36.0,-0.207,0.093,0.164
36.01,-0.26,0.104,0.12
36.02,-0.334,-0.104,0.002
36.03,-0.355,-0.128,-0.033
36.04,-0.351,-0.102,-0.04
36.05,-0.345,-0.0,-0.856
36.06,-0.246,0.182,-0.01
36.07,-0.16,0.24,-0.052
36.08,-0.172,0.23,-0.035
36.09,-0.147,0.182,0.024
36.1,-0.177,-0.05,0.109
36.11,-0.179,-0.116,0.096
36.12,-0.186,-0.154,0.114
36.13,-0.223,-0.143,0.108
36.14,-0.289,-0.068,0.085
36.15,-0.0,-0.0,-0.837
36.16,-0.256,0.059,0.061
36.17,-0.253,0.25,0.098
36.18,-0.167,0.243,0.002
36.19,-0.11,-0.029,0.059
36.2,-0.269,-0.185,0.138
36.21,-0.0,-0.0,-0.832
36.22,-0.273,0.213,-0.054
36.23,-0.248,0.251,-0.114
36.24,-0.275,0.056,-0.06
36.25,-0.231,-0.175,0.028
36.26,-0.255,-0.033,0.048
36.27,-0.0,-0.0,-0.822
36.28,-0.212,-0.085,-0.042
36.29,-0.336,-0.039,0.011
36.3,-0.348,0.085,0.095
36.31,-0.345,0.118,0.106
36.32,-0.349,0.328,-0.068
36.33,-0.205,0.169,-0.13
36.34,-0.067,-0.104,-0.104
36.35,-0.018,-0.172,0.027
36.36,-0.141,-0.33,0.25
36.37,-0.245,-0.144,0.353
36.38,-0.205,0.113,0.244
36.39,-0.235,0.1,0.1
36.4,-0.221,0.163,-0.138
36.41,-0.376,0.057,-0.123
36.42,-0.39,-0.225,-0.047
36.43,-0.373,0.141,-0.039
36.44,-0.35,0.082,0.082
36.45,-0.24,0.14,0.008
36.46,-0.084,0.193,0.009
36.47,-0.045,-0.049,0.119
36.48,-0.108,-0.175,0.151
36.49,-0.25,-0.192,0.165
36.5,-0.233,-0.161,0.095
36.51,-0.173,0.064,0.022
36.52,-0.287,0.275,0.043
36.53,-0.359,0.151,0.035
36.54,-0.36,0.102,-0.058
36.55,-0.371,-0.019,-0.054
36.56,-0.33,-0.138,-0.004
36.57,-0.213,0.021,-0.02
36.58,-0.144,0.084,0.055
36.59,-0.042,0.109,0.039
36.6,-0.039,0.109,0.069
36.61,-0.138,-0.125,-0.842
36.62,-0.189,-0.194,0.161
36.63,-0.293,-0.031,0.142
36.64,-0.345,-0.108,0.085
36.65,-0.443,0.174,-0.073
36.66,-0.381,0.158,-0.043
36.67,-0.295,-0.027,-0.037
36.68,-0.208,0.01,0.0
36.69,-0.108,-0.079,0.041
36.7,-0.094,-0.009,0.093
36.71,-0.102,0.126,0.108
36.72,-0.08,0.071,0.123
36.73,-0.192,0.052,0.123
36.74,-0.307,0.004,0.069
36.75,-0.379,-0.164,0.044
36.76,-0.425,-0.112,-0.06
36.77,-0.427,0.029,-0.004
36.78,-0.307,0.081,-0.019
36.79,-0.21,0.221,0.019
36.8,-0.239,0.18,0.018
36.81,-0.123,0.09,-0.015
36.82,-0.057,0.022,0.028
36.83,-0.024,-0.095,0.068
36.84,-0.167,-0.0,-0.842
36.85,-0.267,-0.05,0.186
36.86,-0.256,-0.041,0.122
36.87,-0.326,0.078,0.025
36.88,-0.347,-0.065,-0.063
36.89,-0.318,-0.105,-0.026
36.9,-0.309,0.059,0.026
36.91,-0.227,0.15,0.052
36.92,-0.235,0.198,0.058
36.93,-0.16,0.316,-0.009
36.94,-0.093,0.113,-0.025
36.95,-0.146,-0.309,0.018
36.96,-0.145,-0.271,0.094
36.97,-0.22,-0.243,0.254
36.98,-0.347,-0.074,0.302
36.99,-0.271,0.25,0.048
37.0,-0.294,0.144,-0.081
37.01,-0.25,0.113,-0.173
37.02,-0.299,0.053,-0.092
37.03,-0.348,-0.166,0.009
37.04,-0.18,0.076,0.027
37.05,-0.27,0.139,0.127
37.06,-0.174,0.152,0.056
37.07,-0.097,0.175,0.064
37.08,-0.183,0.0,0.135
37.09,-0.186,-0.201,0.071
37.1,-0.319,-0.241,0.022
37.11,-0.302,-0.227,0.069
37.12,-0.24,0.077,0.021
37.13,-0.349,0.205,0.081
37.14,-0.264,0.136,-0.037
37.15,-0.267,0.157,-0.074
37.16,-0.264,-0.0,-0.847
37.17,-0.18,-0.039,0.018
37.18,-0.236,0.127,0.1
37.19,-0.155,0.035,0.106
37.2,-0.128,0.169,0.065
37.21,-0.171,-0.033,0.05
37.22,-0.264,-0.278,0.092
37.23,-0.359,-0.222,0.134
37.24,-0.258,-0.129,0.064
37.25,-0.274,-0.054,0.03
37.26,-0.353,0.213,-0.036
37.27,-0.163,0.355,-0.083
37.28,-0.162,0.109,-0.007
37.29,-0.198,0.09,-0.001
37.3,-0.178,-0.071,0.027
37.31,-0.172,-0.137,0.044
37.32,-0.189,0.037,0.072
37.33,-0.291,-0.011,0.16
37.34,-0.296,0.052,0.096
37.35,-0.289,-0.001,0.026
37.36,-0.285,-0.173,0.007
37.37,-0.289,0.057,-0.019
37.38,-0.25,0.047,0.026
37.39,-0.201,0.196,-0.013
37.4,-0.2,0.202,-0.051
37.41,-0.248,0.193,-0.007
37.42,-0.24,0.017,0.064
37.43,-0.225,-0.083,0.064
37.44,-0.224,-0.167,0.068
37.45,-0.224,-0.23,0.086
37.46,-0.174,-0.032,0.124
37.47,-0.245,0.071,0.126
37.48,-0.267,0.111,0.062
37.49,-0.188,0.157,-0.108
37.5,-0.26,-0.128,-0.061
37.51,-0.312,0.055,-0.04
37.52,-0.309,0.169,0.022
37.53,-0.356,0.18,0.083
37.54,-0.233,0.291,-0.017
37.55,-0.184,0.033,-0.084
37.56,-0.087,-0.308,-0.007
37.57,-0.047,-0.334,0.091
37.58,-0.197,-0.276,0.281
37.59,-0.204,-0.065,0.268
37.6,-0.209,0.278,0.072
37.61,-0.31,0.211,-0.051
37.62,-0.236,0.122,-0.223
37.63,-0.42,0.002,-0.109
37.64,-0.373,-0.176,-0.019
37.65,-0.285,0.142,0.02
37.66,-0.252,0.072,0.078
37.67,-0.108,0.222,0.05
37.68,-0.112,0.125,0.036
37.69,-0.089,-0.149,0.131
37.7,-0.165,-0.261,0.089
37.71,-0.324,-0.211,0.111
37.72,-0.272,-0.085,0.051
37.73,-0.306,0.098,0.017
37.74,-0.319,0.414,-0.028
37.75,-0.301,0.096,-0.013
37.76,-0.337,0.127,-0.053
37.77,-0.228,-0.058,-0.136
37.78,-0.239,-0.192,-0.018
37.79,-0.206,0.026,0.038
37.8,-0.119,0.111,0.114
37.81,-0.092,0.104,0.088
37.82,-0.09,0.016,0.029
37.83,-0.183,-0.225,0.086
37.84,-0.31,-0.157,0.133
37.85,-0.293,-0.087,0.076
37.86,-0.442,0.063,0.073
37.87,-0.371,0.247,-0.062
37.88,-0.264,0.24,-0.112
37.89,-0.257,0.021,-0.08
37.9,-0.16,-0.036,-0.058
37.91,-0.215,-0.131,0.019
37.92,-0.123,-0.183,0.062
37.93,-0.086,0.092,0.084
37.94,-0.12,0.101,0.148
37.95,-0.218,0.115,0.147
37.96,-0.289,-0.005,0.033
37.97,-0.369,-0.034,-0.018
37.98,-0.384,-0.12,-0.035
37.99,-0.377,0.102,-0.033
38.0,-0.34,0.077,-0.043
38.01,-0.241,0.174,-0.071
38.02,-0.226,0.14,-0.017
38.03,-0.175,-0.036,-0.003
38.04,-0.054,-0.046,0.004
38.05,-0.122,-0.156,0.089
38.06,-0.14,-0.072,0.156
38.07,-0.147,0.042,0.129
38.08,-0.331,0.125,0.104
38.09,-0.286,0.083,-0.028
38.1,-0.257,0.032,-0.098
38.11,-0.0,-0.0,-0.851
38.12,-0.036,0.16,0.042
38.13,-0.113,0.134,0.102
38.14,-0.199,-0.2,0.118
38.15,-0.265,-0.294,0.119
38.16,-0.328,-0.157,0.061
38.17,-0.329,-0.12,0.058
38.18,-0.368,0.181,0.031
38.19,-0.312,0.301,-0.078
38.2,-0.278,0.043,-0.071
38.21,-0.214,0.061,-0.159
38.22,-0.124,-0.03,-0.075
38.23,-0.205,-0.081,0.066
38.24,-0.145,0.244,0.107
38.25,-0.123,0.106,0.124
38.26,-0.149,0.107,0.036
38.27,-0.169,-0.124,0.009
38.28,-0.319,-0.265,0.129
38.29,-0.366,-0.257,0.111
38.3,-0.413,-0.082,0.069
38.31,-0.377,0.019,0.036
38.32,-0.207,0.224,-0.098
38.33,-0.213,0.252,-0.064
38.34,-0.138,0.008,-0.039
38.35,-0.108,0.085,-0.057
38.36,-0.192,-0.053,0.008
38.37,-0.176,-0.086,0.066
38.38,-0.156,0.177,0.077
38.39,-0.0,-0.0,-0.85
38.4,-0.254,-0.093,0.078
38.41,-0.285,0.213,0.119
38.42,-0.31,0.347,0.073
38.43,-0.198,0.243,-0.07
38.44,-0.14,0.152,-0.166
38.45,-0.13,-0.289,-0.062
38.46,-0.178,-0.397,0.09
38.47,-0.332,-0.221,0.238
38.48,-0.268,-0.125,0.285
38.49,-0.125,0.241,0.064
38.5,-0.23,0.274,-0.084
38.51,-0.249,0.037,-0.143
38.52,-0.291,-0.044,-0.126
38.53,-0.339,0.004,-0.037
38.54,-0.369,0.0,0.061
38.55,-0.228,0.22,0.044
38.56,-0.162,0.25,-0.861
38.57,-0.16,0.097,-0.004
38.58,-0.164,-0.107,0.099
38.59,-0.262,-0.318,0.169
38.6,-0.275,-0.273,0.132
38.61,-0.222,-0.078,0.026
38.62,-0.266,0.076,0.031
38.63,-0.202,0.302,-0.062
38.64,-0.3,0.253,0.007
38.65,-0.3,-0.006,-0.004
38.66,-0.286,0.039,-0.054
38.67,-0.313,-0.103,0.004
38.68,-0.197,0.055,-0.005
38.69,-0.23,0.173,0.077
38.7,-0.21,0.044,0.072
38.71,-0.091,-0.121,0.021
38.72,-0.205,-0.214,0.086
38.73,-0.164,-0.265,0.123
38.74,-0.215,-0.037,0.061
38.75,-0.354,0.181,0.042
38.76,-0.247,0.185,-0.032
38.77,-0.243,0.344,-0.12
38.78,-0.337,0.125,-0.859
38.79,-0.294,-0.124,-0.029
38.8,-0.219,-0.051,-0.006
38.81,-0.201,-0.108,0.061
38.82,-0.135,-0.063,0.123
38.83,-0.113,0.084,0.102
38.84,-0.148,0.027,0.119
38.85,-0.232,0.059,0.055
38.86,-0.297,-0.072,0.004
38.87,-0.334,0.024,-0.022
38.88,-0.341,0.076,-0.039
38.89,-0.339,0.165,-0.036
38.9,-0.251,0.081,-0.036
38.91,-0.295,0.156,0.041
38.92,-0.271,-0.014,0.069
38.93,-0.115,-0.187,0.037
38.94,-0.085,-0.102,0.034
38.95,-0.109,-0.101,0.125
38.96,-0.0,-0.0,-0.841
38.97,-0.47,-0.012,-0.084
38.98,-0.368,0.006,0.036
38.99,-0.19,0.078,0.049
39.0,-0.083,0.28,0.005
39.01,-0.051,-0.071,0.039
39.02,-0.06,0.075,0.107
39.03,-0.168,-0.171,0.185
39.04,-0.316,-0.23,0.201
39.05,-0.296,-0.074,0.007
39.06,-0.281,0.059,-0.071
39.07,-0.311,0.167,-0.039
39.08,-0.356,0.228,-0.085
39.09,-0.37,0.05,-0.027
39.1,-0.249,-0.042,-0.051
39.11,-0.192,0.065,0.024
39.12,-0.156,-0.026,0.091
39.13,-0.071,0.081,0.054
39.14,-0.116,0.071,0.087
39.15,-0.1,-0.099,0.071
39.16,-0.201,-0.104,0.082
39.17,-0.316,-0.116,0.116
39.18,-0.31,-0.064,0.072
39.19,-0.369,0.077,-0.038
39.2,-0.417,0.13,-0.053
39.21,-0.314,0.107,-0.066
39.22,-0.235,0.136,-0.02
39.23,-0.163,-0.026,-0.007
39.24,-0.113,-0.021,0.027
39.25,-0.068,-0.001,0.07
39.26,-0.115,0.029,0.136
39.27,-0.16,0.043,0.128
39.28,-0.213,0.014,0.098
39.29,-0.351,-0.063,0.065
39.3,-0.438,-0.115,-0.018
39.31,-0.423,-0.077,-0.022
39.32,-0.42,0.001,-0.01
39.33,-0.23,0.222,-0.063
39.34,-0.177,0.163,-0.021
39.35,-0.147,0.142,-0.031
39.36,-0.069,0.128,-0.03
39.37,-0.018,-0.148,0.048
39.38,-0.109,-0.065,0.079
39.39,-0.269,-0.046,0.156
39.4,-0.302,-0.084,0.169
39.41,-0.355,0.106,-0.011
39.42,-0.379,-0.115,-0.046
39.43,-0.275,-0.144,-0.093
39.44,-0.297,-0.006,-0.01
39.45,-0.315,0.056,0.097
39.46,-0.0,-0.0,-0.846
39.47,-0.179,-0.116,0.115
39.48,-0.39,-0.263,0.161
39.49,-0.308,-0.2,0.005
39.5,-0.214,0.068,-0.016
39.51,-0.272,0.16,0.002
39.52,-0.0,-0.0,-0.841
39.53,-0.12,0.02,-0.01
39.54,-0.179,-0.03,0.079
39.55,-0.179,0.031,0.14
39.56,-0.151,-0.01,0.134
39.57,-0.307,-0.122,0.101
39.58,-0.326,-0.097,0.003
39.59,-0.343,0.007,0.006
39.6,-0.342,0.129,0.01
39.61,-0.227,0.246,-0.073
39.62,-0.27,0.206,-0.054
39.63,-0.23,0.097,-0.054
39.64,-0.153,0.087,0.001
39.65,-0.213,-0.087,0.073
39.66,-0.191,-0.17,0.09
39.67,-0.174,-0.071,0.11
39.68,-0.143,-0.077,0.151
39.69,-0.219,0.055,0.089
39.7,-0.271,0.051,0.027
39.71,-0.204,-0.117,-0.034
39.72,-0.287,0.013,-0.032
39.73,-0.381,0.082,0.045
39.74,-0.334,0.18,0.06
39.75,-0.343,0.344,-0.03
39.76,-0.273,0.21,-0.152
39.77,-0.127,-0.108,-0.139
39.78,-0.122,-0.191,-0.023
39.79,-0.087,-0.354,0.157
39.8,-0.166,-0.278,0.314
39.81,-0.111,0.162,0.267
39.82,-0.134,0.165,0.087
39.83,-0.291,0.15,-0.06
39.84,-0.309,0.07,-0.178
39.85,-0.403,-0.115,-0.072
39.86,-0.464,0.017,-0.053
39.87,-0.398,0.108,-0.032
39.88,-0.273,0.058,0.026
39.89,-0.103,0.27,-0.051
39.9,-0.051,0.071,0.061
39.91,-0.083,-0.203,0.122
39.92,-0.116,-0.14,0.129
39.93,-0.2,-0.173,0.163
39.94,-0.159,-0.061,0.026
39.95,-0.357,0.196,0.024
39.96,-0.371,0.059,0.015
39.97,-0.392,0.219,-0.862
39.98,-0.421,-0.019,-0.028
39.99,-0.303,-0.117,-0.101
40.0,-0.227,0.049,-0.09
40.01,-0.173,0.129,0.012
40.02,-0.049,0.077,0.065
40.03,-0.022,0.094,0.018
40.04,-0.075,-0.12,0.075
40.05,-0.178,-0.278,0.143
40.06,-0.296,-0.053,0.223
40.07,-0.338,-0.094,0.152
40.08,-0.42,0.146,0.001
40.09,-0.382,0.186,-0.112
40.1,-0.308,0.079,-0.15
40.11,-0.282,0.085,-0.106
40.12,-0.219,-0.029,-0.054
40.13,-0.116,-0.115,0.04
40.14,-0.029,0.014,0.036
40.15,-0.074,0.131,0.116
40.16,-0.155,0.023,0.19
40.17,-0.249,0.073,0.126
40.18,-0.338,-0.08,0.063
40.19,-0.382,-0.145,-0.059
40.2,-0.416,-0.004,-0.045
40.21,-0.371,0.081,-0.032
40.22,-0.249,0.189,-0.033
40.23,-0.227,0.208,-0.035
40.24,-0.169,0.036,-0.026
40.25,-0.159,0.025,0.019
40.26,-0.09,-0.077,0.054
40.27,-0.105,-0.154,0.066
40.28,-0.199,0.023,0.095
40.29,-0.225,0.03,0.111
40.3,-0.344,0.097,0.099
40.31,-0.312,0.045,0.003
40.32,-0.282,-0.173,-0.06
40.33,-0.317,-0.137,-0.024
40.34,-0.335,0.064,0.027
40.35,-0.302,0.189,0.089
40.36,-0.268,0.369,-0.019
40.37,-0.12,0.314,-0.167
40.38,-0.025,-0.144,-0.183
40.39,-0.015,-0.335,-0.063
40.4,-0.129,-0.299,0.221
40.41,-0.312,-0.192,0.438
40.42,-0.292,0.194,0.296
40.43,-0.297,0.247,-0.043
40.44,-0.314,0.063,-0.226
40.45,-0.336,0.018,-0.189
40.46,-0.428,-0.207,-0.01
40.47,-0.324,-0.01,0.038
40.48,-0.274,0.121,0.005
40.49,-0.125,0.187,-0.002
40.5,0.015,0.277,-0.031
40.51,-0.1,0.139,0.106
40.52,-0.188,-0.231,0.17
40.53,-0.352,-0.197,0.055
40.54,-0.319,-0.242,-0.005
40.55,-0.242,-0.053,-0.035
40.56,-0.379,0.212,0.021
40.57,-0.366,0.133,0.02
40.58,-0.214,0.103,-0.025
40.59,-0.216,0.01,-0.053
40.6,-0.232,-0.063,-0.01
40.61,-0.152,-0.005,0.021
40.62,-0.134,0.241,0.006
40.63,-0.139,0.137,0.016
40.64,-0.131,0.116,-0.027
40.65,-0.277,-0.139,0.062
40.66,-0.315,-0.317,0.121
40.67,-0.283,-0.154,0.141
40.68,-0.304,-0.156,-0.869
40.69,-0.303,0.133,-0.035
40.7,-0.254,0.314,-0.064
40.71,-0.194,0.167,0.003
40.72,-0.202,0.129,-0.044
40.73,-0.173,-0.091,-0.063
40.74,-0.178,-0.11,0.02
40.75,-0.192,-0.03,0.062
40.76,-0.245,0.102,0.152
40.77,-0.263,-0.029,0.11
40.78,-0.279,0.001,0.043
40.79,-0.328,-0.122,-0.027
40.8,-0.231,-0.125,-0.862
40.81,-0.231,0.111,0.002
40.82,-0.24,0.187,0.02
40.83,-0.276,0.208,0.014
40.84,-0.249,0.209,-0.066
40.85,-0.239,0.092,-0.012
40.86,-0.188,-0.031,-0.853
40.87,-0.176,-0.117,0.108
40.88,-0.223,-0.181,0.099
40.89,-0.177,-0.031,-0.846
40.9,-0.173,-0.004,0.112
40.91,-0.185,-0.007,0.094
40.92,-0.214,0.056,-0.031
40.93,-0.254,-0.131,-0.033
40.94,-0.342,0.019,0.015
40.95,-0.372,0.24,0.09
40.96,-0.349,0.194,0.111
40.97,-0.327,0.268,-0.015
40.98,-0.127,0.164,-0.137
40.99,-0.0,-0.0,-0.824
41.0,-0.263,0.1,0.024
41.01,-0.303,0.3,0.041
41.02,-0.33,0.167,0.041
41.03,-0.366,0.075,0.011
41.04,-0.26,0.022,-0.057
41.05,-0.209,-0.125,-0.033
41.06,-0.269,0.092,0.041
41.07,-0.134,0.108,0.104
41.08,-0.097,0.04,0.116
41.09,-0.124,-0.179,0.044
41.1,-0.181,-0.258,0.104
41.11,-0.254,-0.289,0.175
41.12,-0.334,0.074,0.202
41.13,-0.388,0.127,0.101
41.14,-0.361,0.264,-0.079
41.15,-0.236,0.317,-0.179
41.16,-0.254,-0.005,-0.029
41.17,-0.227,-0.074,-0.013
41.18,-0.207,-0.093,0.046
41.19,-0.13,-0.172,0.086
41.2,-0.059,0.025,0.096
41.21,-0.186,0.127,0.177
41.22,-0.198,0.047,0.153
41.23,-0.251,0.018,0.076
41.24,-0.366,-0.06,-0.035
41.25,-0.374,-0.042,-0.034
41.26,-0.347,0.115,0.015
41.27,-0.25,0.229,-0.011
41.28,-0.257,0.181,-0.064
41.29,-0.282,0.097,-0.002
41.3,-0.19,-0.027,0.035
41.31,-0.068,-0.101,0.078
41.32,-0.129,-0.163,0.095
41.33,-0.117,-0.163,0.123
41.34,-0.154,0.068,0.12
41.35,-0.284,0.067,0.144
41.36,-0.337,0.104,0.046
41.37,-0.258,-0.02,-0.066
41.38,-0.393,-0.087,-0.056
41.39,-0.393,0.018,-0.006
41.4,-0.339,0.167,0.036
41.41,-0.339,0.263,0.037
41.42,-0.129,0.246,-0.094
41.43,0.003,-0.018,-0.119
41.44,-0.037,-0.327,0.011
41.45,0.007,-0.364,0.095
41.46,-0.25,-0.189,0.382
41.47,-0.328,0.099,0.298
41.48,-0.301,0.294,0.079
41.49,-0.0,-0.0,-0.84
41.5,-0.205,-0.042,0.051
41.51,-0.083,0.18,-0.004
41.52,-0.128,0.162,0.096
41.53,-0.0,-0.0,-0.833
41.54,-0.167,-0.279,0.105
41.55,-0.24,-0.016,0.071
41.56,-0.412,0.172,0.085
41.57,-0.375,0.258,-0.005
41.58,-0.369,0.187,-0.063
41.59,-0.437,-0.012,-0.027
41.6,-0.257,-0.112,-0.022
41.61,-0.204,-0.057,0.051
41.62,-0.128,-0.033,0.094
41.63,-0.041,0.075,0.065
41.64,-0.12,0.125,0.071
41.65,-0.116,-0.095,0.071
41.66,-0.19,-0.011,0.052
41.67,-0.365,-0.103,0.14
41.68,-0.344,-0.086,0.032
41.69,-0.402,0.115,-0.026
41.7,-0.323,0.094,-0.052
41.71,-0.203,0.15,-0.073
41.72,-0.242,0.092,-0.006
41.73,-0.167,-0.117,0.051
41.74,-0.119,-0.05,0.063
41.75,-0.144,0.045,0.07
41.76,-0.144,-0.094,0.107
41.77,-0.144,0.123,0.097
41.78,-0.286,0.101,0.09
41.79,-0.344,-0.149,0.073
41.8,-0.355,-0.021,-0.018
41.81,-0.363,-0.037,-0.056
41.82,-0.304,0.032,-0.029
41.83,-0.285,0.229,-0.032
41.84,-0.241,0.209,-0.008
41.85,-0.195,0.086,0.021
41.86,-0.205,0.098,0.099
41.87,-0.037,-0.158,0.032
41.88,-0.083,-0.167,0.044
41.89,-0.242,-0.124,0.153
41.9,-0.216,-0.035,0.157
41.91,-0.349,0.162,0.093
41.92,-0.313,0.093,-0.075
41.93,-0.292,-0.106,-0.149
41.94,-0.391,0.024,-0.075
41.95,-0.341,-0.004,0.07
41.96,-0.23,0.133,0.099
41.97,-0.202,0.35,0.02
41.98,-0.113,0.162,-0.069
41.99,-0.02,-0.101,-0.077
42.0,-0.062,-0.189,-0.027
42.01,-0.198,-0.328,0.195
42.02,-0.301,-0.129,0.325
42.03,-0.315,0.14,0.208
42.04,-0.349,0.081,-0.026
42.05,-0.302,0.207,-0.192
42.06,-0.262,-0.03,-0.165
42.07,-0.307,-0.104,-0.048
42.08,-0.299,0.035,0.006
42.09,-0.214,0.139,0.062
42.1,-0.101,0.191,0.042
42.11,-0.123,0.288,0.036
42.12,-0.138,-0.103,0.144
42.13,-0.174,-0.136,0.151
42.14,-0.372,-0.295,0.117
42.15,-0.396,-0.317,0.042
42.16,-0.254,-0.028,-0.026
42.17,-0.324,0.26,-0.033
42.18,-0.267,0.25,-0.034
42.19,-0.192,0.213,-0.104
42.2,-0.288,0.067,-0.062
42.21,-0.173,-0.137,-0.033
42.22,-0.172,0.035,0.068
42.23,-0.192,0.019,0.138
42.24,-0.197,0.146,0.085
42.25,-0.187,0.096,0.044
42.26,-0.187,-0.196,-0.008
42.27,-0.256,-0.258,0.03
42.28,-0.357,-0.144,0.08
42.29,-0.277,-0.186,0.059
42.3,-0.323,0.216,-0.004
42.31,-0.227,0.272,-0.034
42.32,-0.187,0.191,-0.032
42.33,-0.215,0.119,-0.01
42.34,-0.202,-0.063,-0.039
42.35,-0.17,-0.135,-0.003
42.36,-0.168,0.076,0.036
42.37,-0.189,-0.016,0.099
42.38,-0.238,0.069,0.117
42.39,-0.288,-0.0,0.075
42.4,-0.294,-0.18,0.03
42.41,-0.333,-0.126,-0.011
42.42,-0.345,0.004,0.026
42.43,-0.327,0.132,0.001
42.44,-0.211,0.25,-0.063
42.45,-0.218,0.253,-0.085
42.46,-0.186,0.094,-0.039
42.47,-0.159,0.087,-0.022
42.48,-0.135,-0.175,0.076
42.49,-0.207,-0.171,0.076
42.5,-0.266,-0.077,0.116
42.51,-0.236,-0.06,0.134
42.52,-0.245,0.11,0.053
42.53,-0.245,0.058,-0.045
42.54,-0.255,-0.115,-0.093
42.55,-0.28,0.0,-0.082
42.56,-0.289,0.104,0.041
42.57,-0.284,0.237,0.075
42.58,-0.279,0.367,0.02
42.59,-0.198,0.109,-0.103
42.6,-0.14,-0.156,-0.867
42.61,-0.146,-0.345,0.043
42.62,-0.186,-0.383,0.209
42.63,-0.233,-0.207,0.297
42.64,-0.202,0.197,0.178
42.65,-0.208,0.164,0.029
42.66,-0.225,0.255,-0.152
42.67,-0.275,0.084,-0.144
42.68,-0.381,-0.152,-0.04
42.69,-0.376,0.06,-0.022
42.7,-0.372,0.106,0.019
42.71,-0.226,0.119,-0.022
42.72,-0.142,0.167,-0.002
42.73,-0.172,-0.003,0.087
42.74,-0.07,-0.222,0.107
42.75,-0.0,-0.0,-0.849
42.76,-0.3,0.251,-0.098
42.77,-0.294,0.022,-0.084
42.78,-0.244,0.069,-0.036
42.79,-0.254,-0.103,0.026
42.8,-0.062,-0.1,0.032
42.81,-0.01,0.052,0.028
42.82,-0.095,0.004,0.155
42.83,-0.172,0.092,0.14
42.84,-0.354,-0.067,0.114
42.85,-0.341,-0.054,0.033
42.86,-0.323,-0.027,-0.086
42.87,-0.432,0.074,-0.027
42.88,-0.239,0.13,-0.076
42.89,-0.282,0.249,-0.05
42.9,-0.332,0.121,0.001
42.91,-0.161,0.039,-0.026
42.92,-0.069,-0.058,0.007
42.93,-0.076,-0.176,0.079
42.94,-0.158,-0.044,0.154
42.95,-0.228,0.045,0.18
42.96,-0.198,-0.011,0.091
42.97,-0.282,0.146,-0.046
42.98,-0.275,-0.057,-0.114
42.99,-0.315,-0.242,-0.014
43.0,-0.43,0.186,0.055
43.01,-0.37,0.098,0.076
43.02,-0.327,0.264,0.024
43.03,-0.134,0.254,-0.125
43.04,-0.018,-0.024,-0.124
43.05,-0.054,-0.233,-0.04
43.06,-0.095,-0.268,0.05
43.07,-0.208,-0.252,0.302
43.08,-0.232,0.166,0.272
43.09,-0.261,0.308,0.142
43.1,-0.33,0.046,-0.048
43.11,-0.291,0.045,-0.268
43.12,-0.389,-0.152,-0.123
43.13,-0.414,-0.141,-0.003
43.14,-0.323,0.175,0.021
43.15,-0.189,0.128,0.025
43.16,-0.043,0.198,-0.026
43.17,-0.046,0.182,0.039
43.18,-0.092,-0.179,0.168
43.19,-0.224,-0.176,0.177
43.2,-0.323,-0.157,0.081
43.21,-0.268,-0.179,0.035
43.22,-0.329,0.182,-0.074
43.23,-0.339,0.192,-0.098
43.24,-0.37,0.05,-0.036
43.25,-0.355,0.011,-0.015
43.26,-0.205,-0.028,-0.012
43.27,-0.183,-0.005,0.044
43.28,-0.127,0.153,0.066
43.29,-0.088,0.109,0.043
43.3,-0.136,0.012,0.017
43.31,-0.198,-0.043,0.05
43.32,-0.279,-0.254,0.101
43.33,-0.278,-0.125,-0.867
43.34,-0.38,-0.047,0.023
43.35,-0.378,-0.008,0.024
43.36,-0.216,0.302,-0.043
43.37,-0.21,0.167,-0.031
43.38,-0.201,0.004,-0.06
43.39,-0.162,0.036,-0.086
43.4,-0.186,-0.062,0.078
43.41,-0.135,0.003,0.076
43.42,-0.187,0.137,0.091
43.43,-0.26,0.006,0.131
43.44,-0.232,0.061,0.06
43.45,-0.36,-0.154,0.045
43.46,-0.344,-0.145,-0.02
43.47,-0.27,-0.073,-0.062
43.48,-0.31,0.123,-0.035
43.49,-0.2,0.19,-0.046
43.5,-0.21,0.313,-0.009
43.51,-0.243,0.145,0.049
43.52,-0.181,-0.025,0.053
43.53,-0.159,-0.135,0.044
43.54,-0.167,-0.232,0.079
43.55,-0.247,-0.088,0.135
43.56,-0.265,0.025,0.084
43.57,-0.275,0.063,0.013
43.58,-0.274,0.079,-0.076
43.59,-0.187,0.021,-0.122
43.6,-0.323,-0.179,-0.025
43.61,-0.289,0.072,0.033
43.62,-0.224,0.238,0.106
43.63,-0.256,0.214,0.066
43.64,-0.19,0.334,-0.105
43.65,-0.092,-0.067,-0.133
43.66,-0.124,-0.331,-0.008
43.67,-0.193,-0.326,0.108
43.68,-0.366,-0.278,0.335
43.69,-0.303,0.089,0.234
43.7,-0.233,0.23,-0.025
43.71,-0.221,0.158,-0.126
43.72,-0.18,0.034,-0.199
43.73,-0.361,-0.015,-0.083
43.74,-0.279,-0.049,0.004
43.75,-0.2,0.14,0.017
43.76,-0.234,0.291,0.035
43.77,-0.108,0.084,0.001
43.78,-0.189,0.175,0.081
43.79,-0.256,-0.347,0.104
43.8,-0.353,-0.328,0.062
43.81,-0.279,-0.134,0.021
43.82,-0.187,-0.056,-0.03
43.83,-0.243,0.406,-0.867
43.84,-0.198,0.303,-0.032
43.85,-0.217,0.153,-0.026
43.86,-0.281,0.083,-0.004
43.87,-0.238,-0.124,0.027
43.88,-0.253,-0.085,0.06
43.89,-0.232,0.177,0.043
43.9,-0.256,-0.005,0.057
43.91,-0.246,-0.007,-0.005
43.92,-0.123,-0.136,-0.037
43.93,-0.203,-0.336,0.082
43.94,-0.224,-0.059,0.132
43.95,-0.244,0.083,0.091
43.96,-0.331,0.157,0.066
43.97,-0.204,0.339,-0.074
43.98,-0.237,0.13,-0.087
43.99,-0.285,-0.032,-0.077
44.0,-0.215,-0.081,-0.05
44.01,-0.306,-0.123,0.072
44.02,-0.211,-0.112,0.071
44.03,-0.149,0.075,0.115
44.04,-0.162,0.028,0.149
44.05,-0.187,0.067,0.06
44.06,-0.286,-0.032,0.016
44.07,-0.341,-0.131,-0.035
44.08,-0.345,0.124,-0.05
44.09,-0.344,0.148,-0.024
44.1,-0.286,0.171,-0.054
44.11,-0.247,0.177,-0.076
44.12,-0.236,0.03,0.011
44.13,-0.164,-0.105,0.042
44.14,-0.094,-0.087,0.066
44.15,-0.119,-0.165,0.114
44.16,-0.168,0.01,0.097
44.17,-0.213,0.119,0.052
44.18,-0.294,0.054,0.041
44.19,-0.239,0.031,-0.1
44.2,-0.0,-0.0,-0.851
44.21,-0.054,0.113,0.019
44.22,0.011,0.12,0.032
44.23,-0.123,-0.086,0.137
44.24,-0.252,-0.305,0.149
44.25,-0.266,-0.051,0.018
44.26,-0.28,-0.05,0.017
44.27,-0.322,0.107,0.016
44.28,-0.362,0.289,-0.024
44.29,-0.42,0.045,0.032
44.3,-0.34,0.008,-0.04
44.31,-0.257,-0.02,-0.073
44.32,-0.177,-0.136,0.013
44.33,-0.108,0.093,0.02
44.34,-0.062,0.21,0.049
44.35,-0.02,0.027,0.025
44.36,-0.139,-0.023,0.026
44.37,-0.244,-0.208,0.123
44.38,-0.305,-0.228,0.19
44.39,-0.388,0.027,0.084
44.4,-0.446,0.061,-0.042
44.41,-0.397,0.099,-0.119
44.42,-0.238,0.262,-0.139
44.43,-0.193,0.026,-0.019
44.44,-0.131,-0.096,0.001
44.45,-0.053,0.007,-0.026
44.46,-0.033,-0.08,0.057
44.47,-0.131,0.085,0.145
44.48,-0.202,0.146,0.158
44.49,-0.271,-0.014,0.123
44.5,-0.36,-0.056,-0.015
44.51,-0.444,-0.133,-0.09
44.52,-0.417,-0.12,-0.071
44.53,-0.357,0.15,-0.035
44.54,-0.272,0.139,0.011
44.55,-0.126,0.248,-0.066
44.56,-0.115,0.162,-0.037
44.57,-0.166,0.046,0.084
44.58,-0.038,-0.027,0.03
44.59,-0.158,-0.163,0.074
44.6,-0.215,-0.125,-0.866
44.61,-0.247,0.025,0.08
44.62,-0.377,0.044,0.066
44.63,-0.319,-0.043,-0.026
44.64,-0.285,-0.03,-0.09
44.65,-0.33,-0.052,0.004
44.66,-0.259,-0.038,0.057
44.67,-0.279,0.316,0.065
44.68,-0.239,0.313,0.017
44.69,-0.153,0.19,-0.105
44.7,-0.052,0.008,-0.159
44.71,-0.05,-0.39,-0.006
44.72,-0.196,-0.314,0.166
44.73,-0.293,-0.077,0.37
44.74,-0.267,0.097,0.248
44.75,-0.292,0.195,-0.039
44.76,-0.297,0.205,-0.209
44.77,-0.208,-0.098,-0.184
44.78,-0.4,-0.074,-0.034
44.79,-0.34,0.009,0.045
44.8,-0.204,0.035,0.025
44.81,-0.153,0.269,0.001
44.82,-0.083,0.211,0.035
44.83,-0.095,0.129,0.081
44.84,-0.21,-0.197,0.119
44.85,-0.331,-0.316,0.113
44.86,-0.303,-0.246,0.013
44.87,-0.325,-0.071,-0.014
44.88,-0.278,0.039,0.039
44.89,-0.253,0.362,-0.029
44.9,-0.281,0.073,0.021
44.91,-0.278,0.024,-0.034
44.92,-0.172,0.076,-0.069
44.93,-0.206,-0.009,0.017
44.94,-0.212,0.149,-0.006
44.95,-0.185,0.159,-0.001
44.96,-0.142,-0.032,0.011
44.97,-0.247,-0.197,0.061
44.98,-0.32,-0.2,0.153
44.99,-0.219,-0.284,0.169
45.0,-0.226,-0.021,0.012
45.01,-0.343,0.136,-0.001
45.02,-0.254,0.227,-0.064
45.03,-0.194,0.271,-0.117
45.04,-0.237,0.137,-0.069
45.05,-0.162,-0.08,-0.052
45.06,-0.255,0.023,0.011
45.07,-0.25,-0.11,0.124
45.08,-0.174,0.031,0.119
45.09,-0.232,0.046,0.125
45.1,-0.252,-0.112,0.076
45.11,-0.235,-0.069,-0.021
45.12,-0.319,-0.061,-0.033
45.13,-0.317,0.009,-0.008
45.14,-0.24,0.238,-0.035
45.15,-0.242,0.192,-0.044
45.16,-0.261,0.114,-0.031
45.17,-0.235,0.124,-0.004
45.18,-0.227,-0.076,0.034
45.19,-0.231,-0.099,0.016
45.2,-0.171,-0.132,0.026
45.21,-0.171,-0.082,0.108
45.22,-0.164,0.079,0.082
45.23,-0.23,0.083,0.042
45.24,-0.154,-0.051,-0.045
45.25,-0.253,-0.062,-0.088
45.26,-0.39,-0.008,0.039
45.27,-0.315,0.09,0.087
45.28,-0.344,0.372,0.025
45.29,-0.319,0.275,-0.073
45.3,-0.153,0.039,-0.214
45.31,-0.053,-0.138,-0.141
45.32,-0.13,-0.369,0.085
45.33,-0.094,-0.31,0.274
45.34,-0.247,-0.018,0.299
45.35,-0.199,0.098,0.129
45.36,-0.254,0.263,-0.086
45.37,-0.3,0.093,-0.165
45.38,-0.37,-0.094,-0.093
45.39,-0.412,-0.076,-0.05
45.4,-0.367,0.082,0.0
45.41,-0.208,0.098,-0.012
45.42,-0.113,0.253,-0.033
45.43,-0.144,0.15,0.05
45.44,-0.094,-0.095,0.098
45.45,-0.167,-0.208,0.06
45.46,-0.3,-0.252,0.089
45.47,-0.241,-0.107,0.014
45.48,-0.291,0.093,0.002
45.49,-0.277,0.166,0.031
45.5,-0.226,0.237,-0.054
45.51,-0.342,0.137,-0.024
45.52,-0.276,-0.089,-0.078
45.53,-0.27,0.042,-0.097
45.54,-0.249,0.073,-0.016
45.55,-0.119,0.04,-0.008
45.56,-0.131,0.089,0.019
45.57,-0.129,-0.15,0.095
45.58,-0.145,-0.209,0.146
45.59,-0.281,-0.164,0.172
45.6,-0.225,-0.141,0.102
45.61,-0.253,0.207,-0.033
45.62,-0.4,0.235,-0.077
45.63,-0.313,0.179,-0.1
45.64,-0.309,0.077,-0.154
45.65,-0.243,0.003,-0.069
45.66,-0.232,-0.188,0.032
45.67,-0.162,-0.013,0.075
45.68,-0.125,-0.058,0.121
45.69,-0.096,0.038,0.114
45.7,-0.11,0.115,0.096
45.71,-0.259,-0.098,0.07
45.72,-0.31,0.037,-0.057
45.73,-0.313,0.019,-0.076
45.74,-0.437,0.039,-0.017
45.75,-0.408,0.182,-0.091
45.76,-0.327,0.091,-0.061
45.77,-0.289,0.028,-0.002
45.78,-0.145,0.098,0.002
45.79,-0.084,-0.065,0.049
45.8,-0.041,-0.082,0.055
45.81,-0.018,-0.03,0.055
45.82,-0.142,-0.013,0.132
45.83,-0.246,0.036,0.083
45.84,-0.403,0.082,0.014
45.85,-0.298,-0.141,-0.078
45.86,-0.367,-0.01,-0.103
45.87,-0.447,0.014,0.019
45.88,-0.325,0.136,0.036
45.89,-0.25,0.25,-0.876
45.9,-0.112,0.263,-0.082
45.91,0.04,-0.053,-0.121
45.92,0.001,-0.143,-0.054
45.93,-0.138,-0.331,0.129
45.94,-0.254,-0.242,0.28
45.95,-0.301,0.121,0.26
45.96,-0.364,0.115,0.097
45.97,-0.369,0.169,-0.087
45.98,-0.314,0.07,-0.216
45.99,-0.362,-0.104,-0.149
46.0,-0.288,-0.055,-0.074
46.01,-0.201,0.109,-0.006
46.02,-0.152,0.125,0.045
46.03,-0.04,0.278,-0.04
46.04,-0.078,0.147,0.061
46.05,-0.195,-0.128,0.122
46.06,-0.276,-0.189,0.102
46.07,-0.365,-0.292,0.129
46.08,-0.285,-0.132,0.003
46.09,-0.38,0.076,-0.018
46.1,-0.352,0.171,0.021
46.11,-0.201,0.241,-0.057
46.12,-0.341,0.135,-0.043
46.13,-0.196,-0.162,-0.088
46.14,-0.12,0.08,-0.06
46.15,-0.185,-0.023,0.063
46.16,-0.111,0.111,0.056
46.17,-0.174,0.107,0.083
46.18,-0.239,-0.043,0.053
46.19,-0.229,-0.206,0.077
46.2,-0.339,-0.123,0.084
46.21,-0.323,-0.11,0.033
46.22,-0.331,0.028,-0.037
46.23,-0.244,0.243,-0.07
46.24,-0.261,0.143,-0.066
46.25,-0.225,0.107,-0.059
46.26,-0.156,-0.035,-0.049
46.27,-0.15,-0.08,0.033
46.28,-0.156,0.063,0.038
46.29,-0.173,0.024,0.092
46.3,-0.183,0.077,0.103
46.31,-0.214,0.087,0.019
46.32,-0.341,-0.137,0.036
46.33,-0.372,-0.149,-0.045
46.34,-0.347,-0.05,-0.049
46.35,-0.366,0.108,-0.009
46.36,-0.225,0.182,-0.054
46.37,-0.211,0.244,-0.053
46.38,-0.183,0.204,-0.007
46.39,-0.109,0.09,0.027
46.4,-0.134,-0.079,0.02
46.41,-0.101,-0.231,0.028
46.42,-0.237,-0.092,0.063
46.43,-0.268,-0.105,0.127
46.44,-0.368,0.06,0.106
46.45,-0.355,0.029,0.01
46.46,-0.2,-0.043,-0.114
46.47,-0.284,-0.054,-0.091
46.48,-0.311,0.115,0.005
46.49,-0.225,0.152,0.07
46.5,-0.228,0.344,-0.874
46.51,-0.148,0.266,-0.107
46.52,-0.089,-0.091,-0.108
46.53,-0.117,-0.187,-0.04
46.54,-0.22,-0.319,0.146
46.55,-0.306,-0.313,0.283
46.56,-0.316,0.035,0.234
46.57,-0.189,0.143,0.034
46.58,-0.243,0.16,-0.09
46.59,-0.219,0.158,-0.147
46.6,-0.279,-0.096,-0.089
46.61,-0.31,-0.024,-0.033
46.62,-0.273,0.135,-0.003
46.63,-0.264,0.192,0.078
46.64,-0.184,0.151,0.015
46.65,-0.208,0.133,0.02
46.66,-0.195,-0.28,0.087
46.67,-0.235,-0.249,0.07
46.68,-0.252,-0.255,0.085
46.69,-0.159,-0.108,0.016
46.7,-0.229,0.236,0.036
46.71,-0.289,0.261,0.026
46.72,-0.269,0.24,-0.051
46.73,-0.33,0.11,-0.053
46.74,-0.329,-0.071,-0.071
46.75,-0.289,-0.113,-0.06
46.76,-0.255,0.022,-0.024
46.77,-0.181,0.059,0.088
46.78,-0.111,0.14,0.032
46.79,-0.079,-0.072,0.059
46.8,-0.128,-0.294,0.072
46.81,-0.217,-0.072,0.11
46.82,-0.298,-0.061,0.124
46.83,-0.385,0.194,-0.003
46.84,-0.357,0.325,-0.117
46.85,-0.274,0.041,-0.107
46.86,-0.268,0.035,-0.105
46.87,-0.296,-0.012,-0.054
46.88,-0.179,-0.227,0.054
46.89,-0.102,0.1,0.034
46.9,-0.04,0.063,0.076
46.91,-0.12,0.034,0.153
46.92,-0.241,0.087,0.108
46.93,-0.283,-0.157,0.039
46.94,-0.367,-0.134,-0.026
46.95,-0.409,0.031,-0.07
46.96,-0.323,0.172,-0.026
46.97,-0.308,0.227,-0.029
46.98,-0.346,0.224,-0.061
46.99,-0.172,-0.024,-0.052
47.0,-0.105,-0.039,-0.03
47.01,-0.083,-0.171,0.043
47.02,-0.085,-0.193,0.094
47.03,-0.139,0.044,0.126
47.04,-0.247,0.089,0.142
47.05,-0.27,0.11,0.035
47.06,-0.283,0.088,-0.067
47.07,-0.315,-0.182,-0.091
47.08,-0.347,0.005,-0.04
47.09,-0.373,0.114,0.016
47.1,-0.334,0.125,-0.873
47.11,-0.213,0.344,-0.084
47.12,-0.101,0.122,-0.118
47.13,-0.052,-0.198,-0.047
47.14,-0.066,-0.232,0.037
47.15,-0.163,-0.26,0.235
47.16,-0.256,-0.172,0.299
47.17,-0.248,0.255,0.153
47.18,-0.298,0.164,-0.003
47.19,-0.293,0.119,-0.127
47.2,-0.365,0.037,-0.144
47.21,-0.465,-0.151,-0.064
47.22,-0.327,-0.04,-0.034
47.23,-0.265,0.179,-0.003
47.24,-0.116,0.093,0.014
47.25,-0.068,0.153,0.003
47.26,-0.054,0.041,0.052
47.27,-0.111,-0.226,0.091
47.28,-0.273,-0.167,0.115
47.29,-0.269,-0.093,0.108
47.3,-0.288,0.032,0.003
47.31,-0.395,0.23,0.023
47.32,-0.391,0.123,-0.037
47.33,-0.351,0.085,-0.085
47.34,-0.325,0.011,-0.099
47.35,-0.167,-0.179,-0.029
47.36,-0.108,0.085,-0.023
47.37,-0.107,0.128,0.045
47.38,-0.124,0.026,0.097
47.39,-0.062,0.164,0.008
47.4,-0.173,-0.073,0.076
47.41,-0.316,-0.223,0.139
47.42,-0.338,-0.036,0.079
47.43,-0.43,-0.102,-0.003
47.44,-0.398,-0.008,-0.031
47.45,-0.277,0.23,-0.078
47.46,-0.206,0.049,-0.037
47.47,-0.191,0.045,-0.046
47.48,-0.156,0.026,0.012
47.49,-0.065,-0.057,-0.006
47.5,-0.118,0.025,0.032
47.51,-0.173,0.119,0.094
47.52,-0.19,0.013,0.1
47.53,-0.35,0.034,0.05
47.54,-0.428,-0.097,-0.027
47.55,-0.358,-0.145,-0.028
47.56,-0.375,0.082,0.003
47.57,-0.245,0.087,-0.022
47.58,-0.181,0.186,-0.067
47.59,-0.229,0.182,-0.034
47.6,-0.122,0.116,-0.004
47.61,-0.08,0.068,-0.009
47.62,-0.15,-0.153,-0.0
47.63,-0.16,-0.188,0.063
47.64,-0.227,0.068,0.128
