t,ax,ay,az
0.0,-0.303,0.009,-0.001
0.01,-0.34,0.076,-0.032
0.02,-0.213,0.002,-0.071
0.03,-0.266,0.081,-0.007
0.04,-0.251,0.062,-0.013
0.05,-0.26,0.146,-0.022
0.06,-0.218,0.123,0.0
0.07,-0.145,0.131,-0.043
0.08,-0.133,-0.047,-0.023
0.09,-0.162,-0.28,0.045
0.1,-0.208,-0.152,0.074
0.11,-0.272,-0.146,0.177
0.12,-0.308,0.062,0.094
0.13,-0.287,0.203,-0.01
0.14,-0.322,0.13,-0.102
0.15,-0.276,0.018,-0.134
0.16,-0.264,0.03,-0.132
0.17,-0.225,-0.045,-0.062
0.18,-0.178,0.021,0.041
0.19,-0.183,0.205,0.102
0.2,-0.171,0.046,0.131
0.21,-0.147,0.101,0.009
0.22,-0.254,-0.112,-0.003
0.23,-0.318,-0.292,0.007
0.24,-0.274,-0.104,-0.027
0.25,-0.338,-0.11,0.018
0.26,-0.28,0.099,-0.011
0.27,-0.183,0.307,-0.017
0.28,-0.286,0.199,0.047
0.29,-0.209,0.137,-0.071
0.3,-0.203,0.051,-0.096
0.31,-0.223,-0.144,-0.01
0.32,-0.158,-0.039,0.017
0.33,-0.282,0.062,0.093
0.34,-0.202,-0.179,0.035
0.35,-0.235,-0.009,-0.011
0.36,-0.226,-0.142,0.036
0.37,-0.242,-0.141,0.029
0.38,-0.329,0.109,0.044
0.39,-0.28,0.122,0.022
0.4,-0.198,0.194,-0.095
0.41,-0.271,0.22,-0.104
0.42,-0.17,0.039,-0.063
0.43,-0.212,-0.073,0.009
0.44,-0.261,-0.065,0.002
0.45,-0.223,-0.248,0.081
0.46,-0.196,-0.022,0.104
0.47,-0.184,0.068,0.081
0.48,-0.26,0.044,0.025
0.49,-0.275,0.08,-0.065
0.5,-0.327,0.002,-0.064
0.51,-0.309,0.108,-0.078
0.52,-0.258,0.177,-0.07
0.53,-0.273,0.085,-0.045
0.54,-0.205,0.116,-0.026
0.55,-0.249,0.053,0.038
0.56,-0.187,-0.186,0.054
0.57,-0.135,-0.073,0.022
0.58,-0.104,-0.203,0.078
0.59,-0.185,-0.044,0.096
0.6,-0.262,0.113,0.069
0.61,-0.283,0.067,0.02
0.62,-0.281,0.04,-0.079
0.63,-0.351,0.066,-0.092
0.64,-0.32,0.031,-0.041
0.65,-0.34,0.083,-0.016
0.66,-0.363,0.174,-0.057
0.67,-0.175,0.04,-0.027
0.68,-0.084,0.029,-0.058
0.69,-0.079,-0.124,0.01
0.7,-0.036,-0.323,0.044
0.71,-0.152,-0.132,0.165
0.72,-0.253,0.043,0.194
0.73,-0.297,0.1,0.095
0.74,-0.312,0.28,-0.055
0.75,-0.33,0.086,-0.15
0.76,-0.419,-0.021,-0.143
0.77,-0.356,-0.017,-0.114
0.78,-0.281,-0.086,-0.004
0.79,-0.178,0.179,-0.011
0.8,-0.112,0.071,0.052
0.81,-0.064,0.067,0.057
0.82,-0.036,0.046,0.025
0.83,-0.198,-0.225,0.108
0.84,-0.232,-0.174,-0.001
0.85,-0.298,-0.081,0.007
0.86,-0.386,0.075,0.09
0.87,-0.382,0.226,0.018
0.88,-0.405,0.216,-0.057
0.89,-0.362,-0.028,-0.109
0.9,-0.226,-0.003,-0.164
0.91,-0.219,-0.1,-0.089
0.92,-0.112,-0.111,0.027
0.93,-0.038,0.106,0.081
0.94,-0.068,0.12,0.118
0.95,-0.083,-0.023,0.065
0.96,-0.2,-0.022,0.023
0.97,-0.337,-0.084,0.044
0.98,-0.384,-0.038,0.006
0.99,-0.476,0.082,-0.001
1.0,-0.385,0.108,-0.104
1.01,-0.312,0.103,-0.138
1.02,-0.221,0.086,-0.084
1.03,-0.089,-0.109,-0.016
1.04,-0.086,-0.035,0.055
1.05,-0.084,-0.068,0.059
1.06,-0.129,-0.02,0.127
1.07,-0.155,0.09,0.055
1.08,-0.23,0.123,0.057
1.09,-0.37,0.022,0.002
1.1,-0.41,-0.038,-0.063
1.11,-0.478,-0.035,-0.109
1.12,-0.332,-0.008,-0.109
1.13,-0.247,0.159,-0.036
1.14,-0.174,0.098,-0.004
1.15,-0.137,0.176,-0.014
1.16,-0.114,0.068,0.054
1.17,-0.118,-0.101,0.031
1.18,-0.137,-0.11,0.023
1.19,-0.208,-0.109,0.07
1.2,-0.26,-0.045,0.09
1.21,-0.374,0.134,0.051
1.22,-0.354,0.026,-0.086
1.23,-0.315,-0.054,-0.091
1.24,-0.296,0.063,-0.038
1.25,-0.221,0.014,0.01
1.26,-0.248,0.108,-0.013
1.27,-0.218,0.26,-0.033
1.28,-0.081,0.118,-0.06
1.29,-0.06,0.024,-0.075
1.3,-0.167,-0.136,0.011
1.31,-0.205,-0.306,0.095
1.32,-0.285,-0.162,0.148
1.33,-0.312,0.08,0.128
1.34,-0.315,0.031,0.047
1.35,-0.336,0.228,-0.076
1.36,-0.284,0.013,-0.109
1.37,-0.242,-0.025,-0.104
1.38,-0.25,0.041,-0.096
1.39,-0.205,-0.077,-0.007
1.4,-0.146,0.146,0.025
1.41,-0.175,0.158,0.062
1.42,-0.241,0.007,0.109
1.43,-0.208,-0.044,-0.011
1.44,-0.243,-0.157,-0.037
1.45,-0.306,-0.256,0.049
1.46,-0.298,0.056,0.031
1.47,-0.316,0.084,0.044
1.48,-0.17,0.174,-0.06
1.49,-0.23,0.227,-0.066
1.5,-0.251,0.076,-0.087
1.51,-0.16,0.004,-0.102
1.52,-0.259,-0.072,-0.012
1.53,-0.199,-0.019,0.033
1.54,-0.175,0.093,0.069
1.55,-0.272,0.037,0.123
1.56,-0.147,-0.032,-0.021
1.57,-0.22,-0.098,-0.024
1.58,-0.277,-0.189,0.046
1.59,-0.24,-0.138,-0.014
1.6,-0.392,0.137,0.048
1.61,-0.219,0.108,-0.009
1.62,-0.243,0.262,-0.067
1.63,-0.215,0.134,-0.076
1.64,-0.186,-0.042,0.001
1.65,-0.207,-0.09,-0.003
1.66,-0.175,-0.137,0.016
1.67,-0.288,-0.117,0.097
1.68,-0.196,0.085,0.093
1.69,-0.247,0.106,0.051
1.7,-0.313,-0.061,-0.011
1.71,-0.227,0.087,-0.115
1.72,-0.28,-0.004,-0.059
1.73,-0.312,0.067,-0.014
1.74,-0.219,0.201,-0.084
1.75,-0.254,0.142,-0.02
1.76,-0.199,0.136,-0.022
1.77,-0.207,0.026,0.043
1.78,-0.177,-0.149,0.05
1.79,-0.185,-0.175,0.041
1.8,-0.25,-0.117,0.082
1.81,-0.124,-0.123,0.069
1.82,-0.24,0.18,0.006
1.83,-0.266,0.104,-0.042
1.84,-0.261,-0.035,-0.096
1.85,-0.344,0.111,-0.047
1.86,-0.26,0.06,0.013
1.87,-0.319,0.101,0.058
1.88,-0.311,0.159,0.002
1.89,-0.159,0.026,-0.053
1.9,-0.101,-0.147,-0.042
1.91,-0.141,-0.114,-0.027
1.92,-0.156,-0.375,0.094
1.93,-0.163,-0.057,0.094
1.94,-0.204,0.131,0.082
1.95,-0.332,0.129,0.052
1.96,-0.306,0.25,-0.096
1.97,-0.352,0.054,-0.109
1.98,-0.316,-0.052,-0.082
1.99,-0.321,0.002,-0.055
2.0,-0.326,-0.055,0.045
2.01,-0.156,0.099,0.026
2.02,-0.138,0.213,0.057
2.03,-0.154,-0.039,0.055
2.04,-0.084,-0.095,-0.051
2.05,-0.238,-0.179,-0.018
2.06,-0.206,-0.208,0.018
2.07,-0.352,0.116,0.038
2.08,-0.346,0.154,0.037
2.09,-0.31,0.202,-0.033
2.1,-0.328,0.255,-0.031
2.11,-0.276,-0.021,-0.058
2.12,-0.24,-0.111,-0.112
2.13,-0.24,-0.137,-0.004
2.14,-0.185,-0.046,0.108
2.15,-0.17,0.058,0.137
2.16,-0.121,0.018,0.032
2.17,-0.08,-0.057,-0.022
2.18,-0.197,-0.064,-0.044
2.19,-0.322,-0.019,0.02
2.2,-0.413,-0.018,0.055
2.21,-0.333,0.229,-0.036
2.22,-0.262,0.23,-0.09
2.23,-0.329,0.035,-0.117
2.24,-0.194,0.058,-0.087
2.25,-0.213,-0.102,0.043
2.26,-0.099,-0.194,0.07
2.27,-0.109,-0.052,0.047
2.28,-0.143,-0.056,0.084
2.29,-0.104,0.144,0.078
2.3,-0.275,0.217,0.027
2.31,-0.316,-0.005,-0.039
2.32,-0.394,0.02,-0.115
2.33,-0.436,-0.004,-0.067
2.34,-0.295,0.072,-0.082
2.35,-0.308,0.081,-0.013
2.36,-0.264,0.094,-0.009
2.37,-0.073,0.054,0.017
2.38,-0.1,0.017,0.074
2.39,-0.033,-0.161,0.075
2.4,-0.154,-0.048,0.057
2.41,-0.229,-0.12,0.058
2.42,-0.269,0.054,0.035
2.43,-0.376,0.128,-0.026
2.44,-0.344,0.075,-0.124
2.45,-0.394,-0.068,-0.072
2.46,-0.321,0.086,-0.071
2.47,-0.225,0.052,-0.052
2.48,-0.206,0.031,0.051
2.49,-0.073,0.27,0.021
2.5,-0.077,0.071,0.03
2.51,-0.127,-0.11,-0.002
2.52,-0.078,-0.214,-0.057
2.53,-0.236,-0.293,0.133
2.54,-0.27,-0.003,0.173
2.55,-0.392,0.166,0.092
2.56,-0.377,0.115,-0.022
2.57,-0.304,0.198,-0.21
2.58,-0.333,0.037,-0.154
2.59,-0.24,-0.038,-0.116
2.6,-0.123,-0.006,-0.039
2.61,-0.27,0.041,0.1
2.62,-0.088,0.075,0.076
2.63,-0.101,0.062,0.117
2.64,-0.167,-0.024,0.152
2.65,-0.231,-0.152,0.028
2.66,-0.366,-0.104,0.005
2.67,-0.323,-0.175,-0.051
2.68,-0.416,0.109,-0.042
2.69,-0.339,0.203,-0.006
2.7,-0.242,0.071,-0.066
2.71,-0.225,0.184,-0.094
2.72,-0.112,-0.002,-0.11
2.73,-0.171,-0.145,0.004
2.74,-0.191,0.014,0.1
2.75,-0.184,0.071,0.16
2.76,-0.245,0.079,0.105
2.77,-0.144,0.068,-0.057
2.78,-0.196,-0.118,-0.051
2.79,-0.337,-0.103,-0.009
2.8,-0.333,-0.112,0.005
2.81,-0.391,-0.098,0.025
2.82,-0.274,0.18,-0.062
2.83,-0.191,0.2,-0.045
2.84,-0.217,0.103,-0.017
2.85,-0.127,0.142,-0.042
2.86,-0.178,-0.123,0.018
2.87,-0.144,-0.116,-0.003
2.88,-0.149,-0.041,0.063
2.89,-0.231,-0.008,0.185
2.9,-0.277,0.156,0.089
2.91,-0.346,0.019,-0.023
2.92,-0.386,-0.073,-0.098
2.93,-0.325,-0.064,-0.084
2.94,-0.32,0.114,-0.05
2.95,-0.221,0.04,-0.052
2.96,-0.163,0.196,-0.088
2.97,-0.139,0.202,-0.04
2.98,-0.131,0.054,0.016
2.99,-0.162,-0.068,0.104
3.0,-0.215,-0.162,0.112
3.01,-0.219,-0.175,0.037
3.02,-0.267,-0.03,0.035
3.03,-0.329,0.05,0.033
3.04,-0.324,0.125,-0.008
3.05,-0.231,0.03,-0.104
3.06,-0.225,-0.073,-0.11
3.07,-0.188,0.043,-0.087
3.08,-0.214,0.141,0.029
3.09,-0.254,0.164,0.061
3.1,-0.217,0.27,0.034
3.11,-0.199,0.035,-0.032
3.12,-0.166,-0.205,-0.045
3.13,-0.188,-0.271,0.0
3.14,-0.315,-0.375,0.175
3.15,-0.272,-0.073,0.183
3.16,-0.155,0.225,0.046
3.17,-0.303,0.099,-0.017
3.18,-0.24,0.261,-0.131
3.19,-0.312,0.102,-0.122
3.2,-0.245,-0.137,-0.133
3.21,-0.336,-0.003,-0.059
3.22,-0.255,0.082,0.056
3.23,-0.189,0.087,0.091
3.24,-0.224,0.173,0.086
3.25,-0.094,-0.029,0.036
3.26,-0.198,-0.216,0.014
3.27,-0.232,-0.152,0.02
3.28,-0.231,-0.149,-0.0
3.29,-0.361,0.093,0.04
3.3,-0.237,0.288,-0.089
3.31,-0.325,0.178,-0.034
3.32,-0.289,0.206,-0.052
3.33,-0.219,0.009,-0.094
3.34,-0.267,-0.207,-0.047
3.35,-0.209,-0.052,-0.029
3.36,-0.22,0.055,0.139
3.37,-0.119,0.053,0.083
3.38,-0.078,0.12,0.002
3.39,-0.175,-0.226,0.014
3.4,-0.209,-0.189,0.008
3.41,-0.289,-0.046,0.059
3.42,-0.423,-0.109,0.142
3.43,-0.329,0.299,-0.04
3.44,-0.281,0.227,-0.135
3.45,-0.283,0.177,-0.102
3.46,-0.197,0.03,-0.104
3.47,-0.24,-0.11,-0.021
3.48,-0.086,-0.277,-0.027
3.49,-0.095,-0.055,0.1
3.5,-0.183,0.051,0.182
3.51,-0.164,0.111,0.138
3.52,-0.243,0.211,-0.013
3.53,-0.305,-0.021,-0.093
3.54,-0.391,-0.016,-0.095
3.55,-0.435,0.031,-0.043
3.56,-0.265,0.069,-0.072
3.57,-0.223,0.137,-0.078
3.58,-0.25,0.086,-0.052
3.59,-0.153,0.021,0.029
3.6,-0.102,-0.011,0.096
3.61,-0.116,-0.136,0.075
3.62,-0.156,-0.126,0.062
3.63,-0.184,-0.003,0.047
3.64,-0.296,0.085,0.063
3.65,-0.307,0.077,-0.052
3.66,-0.29,0.035,-0.055
3.67,-0.343,0.001,-0.034
3.68,-0.301,-0.017,-0.04
3.69,-0.314,0.041,-0.009
3.7,-0.262,0.155,-0.005
3.71,-0.158,0.138,-0.036
3.72,-0.106,-0.022,-0.005
3.73,-0.084,-0.234,-0.039
3.74,-0.109,-0.203,0.005
3.75,-0.22,-0.167,0.177
3.76,-0.271,0.099,0.136
3.77,-0.385,0.273,0.076
3.78,-0.288,0.103,-0.069
3.79,-0.325,0.133,-0.178
3.8,-0.363,-0.038,-0.153
3.81,-0.268,-0.159,-0.085
3.82,-0.262,0.043,0.006
3.83,-0.143,0.062,0.081
3.84,-0.098,0.103,0.066
3.85,-0.11,0.07,0.09
3.86,-0.122,-0.022,0.051
3.87,-0.277,-0.151,0.05
3.88,-0.35,-0.125,0.016
3.89,-0.328,-0.073,0.024
3.9,-0.303,0.16,-0.041
3.91,-0.348,0.121,-0.075
3.92,-0.334,0.081,-0.018
3.93,-0.185,0.106,-0.117
3.94,-0.193,-0.04,-0.035
3.95,-0.183,-0.133,0.023
3.96,-0.122,0.129,0.06
3.97,-0.203,0.013,0.122
3.98,-0.133,-0.005,-0.007
3.99,-0.205,0.053,-0.036
4.0,-0.268,-0.178,0.027
4.01,-0.221,0.004,0.004
4.02,-0.392,0.0,0.028
4.03,-0.36,0.021,-0.005
4.04,-0.246,0.185,-0.111
4.05,-0.244,0.098,-0.054
4.06,-0.132,-0.024,-0.066
4.07,-0.175,-0.004,0.004
4.08,-0.146,-0.084,0.02
4.09,-0.113,-0.056,0.061
4.1,-0.243,0.137,0.156
4.11,-0.231,0.137,0.106
4.12,-0.281,0.004,0.001
4.13,-0.321,0.007,-0.117
4.14,-0.342,-0.147,-0.112
4.15,-0.398,0.036,-0.037
4.16,-0.263,0.07,-0.016
4.17,-0.152,0.119,-0.052
4.18,-0.193,0.171,-0.012
4.19,-0.141,0.103,0.011
4.2,-0.12,-0.059,0.094
4.21,-0.145,-0.091,0.046
4.22,-0.23,-0.135,0.058
4.23,-0.297,-0.046,0.041
4.24,-0.253,0.13,0.006
4.25,-0.358,-0.041,-0.005
4.26,-0.32,0.01,-0.093
4.27,-0.275,-0.028,-0.099
4.28,-0.236,-0.086,0.011
4.29,-0.183,0.234,-0.009
4.3,-0.182,0.237,0.04
4.31,-0.22,0.163,0.003
4.32,-0.076,0.057,-0.096
4.33,-0.125,-0.181,-0.05
4.34,-0.131,-0.303,-0.004
4.35,-0.349,-0.221,0.199
4.36,-0.401,-0.017,0.225
4.37,-0.308,0.165,0.055
4.38,-0.325,0.161,-0.064
4.39,-0.228,0.06,-0.152
4.4,-0.243,0.019,-0.198
4.41,-0.237,0.021,-0.083
4.42,-0.207,-0.112,0.003
4.43,-0.194,0.197,0.043
4.44,-0.107,0.102,0.082
4.45,-0.183,0.115,0.121
4.46,-0.224,0.079,0.066
4.47,-0.348,-0.281,0.015
4.48,-0.384,-0.165,-0.034
4.49,-0.295,-0.115,-0.084
4.5,-0.34,-0.019,0.018
4.51,-0.162,0.2,-0.053
4.52,-0.206,0.225,-0.032
4.53,-0.246,0.105,0.042
4.54,-0.098,0.048,-0.113
4.55,-0.247,-0.056,-0.001
4.56,-0.236,-0.087,0.029
4.57,-0.222,0.079,0.067
4.58,-0.254,0.075,0.036
4.59,-0.164,-0.079,-0.061
4.6,-0.266,-0.033,-0.011
4.61,-0.265,-0.214,0.065
4.62,-0.178,-0.066,0.043
4.63,-0.368,0.117,0.062
4.64,-0.235,0.076,-0.045
4.65,-0.202,0.271,-0.106
4.66,-0.249,0.148,-0.074
4.67,-0.189,-0.034,-0.03
4.68,-0.185,-0.051,-0.027
4.69,-0.164,-0.173,0.009
4.7,-0.265,-0.12,0.091
4.71,-0.252,0.076,0.127
4.72,-0.224,0.064,0.109
4.73,-0.248,0.028,-0.04
4.74,-0.253,0.076,-0.128
4.75,-0.352,-0.046,-0.06
4.76,-0.323,0.128,-0.028
4.77,-0.223,0.16,-0.07
4.78,-0.225,0.043,-0.073
4.79,-0.212,0.141,-0.044
4.8,-0.135,0.054,0.039
4.81,-0.249,-0.123,0.11
4.82,-0.218,-0.095,0.049
4.83,-0.211,-0.107,0.061
4.84,-0.152,-0.079,0.022
4.85,-0.208,0.099,0.0
4.86,-0.252,0.037,-0.012
4.87,-0.303,0.033,-0.037
4.88,-0.314,0.101,-0.045
4.89,-0.261,0.047,-0.017
4.9,-0.202,0.153,-0.046
4.91,-0.297,0.175,0.017
4.92,-0.247,0.027,-0.048
4.93,-0.1,-0.027,-0.095
4.94,-0.157,-0.193,0.012
4.95,-0.13,-0.323,0.103
4.96,-0.239,-0.075,0.194
4.97,-0.299,-0.028,0.206
4.98,-0.187,0.211,0.019
4.99,-0.292,0.285,-0.114
5.0,-0.35,0.039,-0.135
5.01,-0.299,0.028,-0.159
5.02,-0.277,-0.015,-0.102
5.03,-0.28,-0.082,-0.016
5.04,-0.233,0.042,0.021
5.05,-0.181,0.137,0.094
5.06,-0.131,0.041,0.104
5.07,-0.12,-0.006,0.042
5.08,-0.209,-0.156,0.022
5.09,-0.217,-0.156,-0.0
5.1,-0.235,-0.059,-0.003
5.11,-0.307,0.089,0.026
5.12,-0.312,0.18,-0.018
5.13,-0.428,0.213,0.027
5.14,-0.302,0.073,-0.041
5.15,-0.232,0.032,-0.149
5.16,-0.276,-0.146,-0.081
5.17,-0.154,-0.088,0.013
5.18,-0.082,0.055,0.072
5.19,-0.113,0.066,0.108
5.2,-0.072,-0.115,0.027
5.21,-0.178,0.076,0.036
5.22,-0.307,-0.128,0.113
5.23,-0.43,0.001,0.091
5.24,-0.42,0.15,-0.02
5.25,-0.337,0.009,-0.12
5.26,-0.33,0.143,-0.192
5.27,-0.236,0.051,-0.101
5.28,-0.14,-0.118,0.003
5.29,-0.045,-0.012,0.008
5.3,-0.082,-0.043,0.071
5.31,-0.15,-0.111,0.138
5.32,-0.156,0.162,0.114
5.33,-0.259,0.063,0.094
5.34,-0.348,0.007,-0.041
5.35,-0.392,0.055,-0.153
5.36,-0.411,-0.034,-0.095
5.37,-0.391,0.146,-0.105
5.38,-0.274,0.112,-0.044
5.39,-0.156,0.106,-0.033
5.4,-0.093,0.075,-0.041
5.41,-0.157,0.018,0.076
5.42,-0.04,-0.098,0.084
5.43,-0.134,-0.029,0.058
5.44,-0.215,-0.107,0.052
5.45,-0.261,-0.018,0.046
5.46,-0.322,0.068,0.009
5.47,-0.353,0.005,-0.017
5.48,-0.38,-0.059,-0.081
5.49,-0.34,0.105,-0.043
5.5,-0.259,0.049,-0.029
5.51,-0.22,0.146,-0.012
5.52,-0.215,0.223,-0.036
5.53,-0.117,-0.002,-0.031
5.54,-0.048,-0.056,-0.123
5.55,-0.068,-0.234,-0.03
5.56,-0.169,-0.275,0.122
5.57,-0.281,0.032,0.237
5.58,-0.343,0.135,0.206
5.59,-0.335,0.144,-0.009
5.6,-0.327,0.143,-0.168
5.61,-0.372,-0.095,-0.149
5.62,-0.303,-0.076,-0.108
5.63,-0.181,-0.035,-0.088
5.64,-0.28,0.019,0.032
5.65,-0.094,0.175,0.037
5.66,-0.114,0.172,0.103
5.67,-0.161,0.13,0.121
5.68,-0.109,-0.093,-0.004
5.69,-0.328,-0.148,0.003
5.7,-0.275,-0.238,-0.034
5.71,-0.391,0.021,0.029
5.72,-0.364,0.077,0.027
5.73,-0.281,0.135,-0.037
5.74,-0.283,0.186,-0.015
5.75,-0.194,-0.032,-0.065
5.76,-0.2,0.053,-0.058
5.77,-0.228,-0.08,-0.001
5.78,-0.129,0.011,0.026
5.79,-0.185,0.122,0.056
5.8,-0.147,0.074,0.031
5.81,-0.211,-0.145,0.024
5.82,-0.275,-0.068,-0.02
5.83,-0.246,-0.131,0.018
5.84,-0.356,-0.065,0.037
5.85,-0.312,0.182,0.02
5.86,-0.262,0.192,-0.069
5.87,-0.213,0.109,-0.099
5.88,-0.156,0.119,-0.068
5.89,-0.212,-0.135,0.036
5.9,-0.165,-0.026,0.022
5.91,-0.18,-0.095,0.06
5.92,-0.217,-0.049,0.137
5.93,-0.22,0.115,0.027
5.94,-0.327,0.047,0.048
5.95,-0.3,-0.099,-0.043
5.96,-0.287,0.036,-0.083
5.97,-0.324,-0.001,-0.023
5.98,-0.215,0.107,-0.079
5.99,-0.229,0.233,-0.043
6.0,-0.191,0.135,-0.04
6.01,-0.226,0.17,-0.002
6.02,-0.24,-0.046,0.064
6.03,-0.185,-0.187,0.082
6.04,-0.228,-0.147,0.033
6.05,-0.23,-0.089,0.032
6.06,-0.207,-0.043,0.014
6.07,-0.214,0.1,-0.01
6.08,-0.198,0.058,-0.052
6.09,-0.24,-0.032,-0.035
6.1,-0.286,0.161,-0.006
6.11,-0.252,0.123,-0.007
6.12,-0.329,0.126,-0.007
6.13,-0.297,0.155,-0.023
6.14,-0.141,-0.023,-0.065
6.15,-0.142,-0.119,-0.055
6.16,-0.22,-0.235,0.048
6.17,-0.18,-0.256,0.153
6.18,-0.156,0.094,0.139
6.19,-0.236,0.099,0.082
6.2,-0.248,0.13,-0.059
6.21,-0.248,0.169,-0.13
6.22,-0.357,0.011,-0.077
6.23,-0.342,-0.117,-0.057
6.24,-0.26,0.071,-0.051
6.25,-0.248,0.047,0.04
6.26,-0.217,0.133,0.12
6.27,-0.224,0.153,0.053
6.28,-0.199,-0.109,0.023
6.29,-0.213,-0.199,-0.037
6.3,-0.22,-0.13,-0.009
6.31,-0.217,-0.18,0.006
6.32,-0.278,0.078,0.007
6.33,-0.252,0.22,0.025
6.34,-0.248,0.139,-0.009
6.35,-0.321,0.248,0.001
6.36,-0.226,0.042,-0.065
6.37,-0.252,-0.054,-0.064
6.38,-0.26,-0.039,-0.056
6.39,-0.226,-0.091,0.07
6.4,-0.182,-0.002,0.105
6.41,-0.148,-0.025,0.049
6.42,-0.134,-0.172,0.001
6.43,-0.204,-0.019,-0.013
6.44,-0.24,0.003,0.045
6.45,-0.333,0.108,0.055
6.46,-0.292,0.25,-0.041
6.47,-0.309,0.189,-0.1
6.48,-0.25,-0.084,-0.117
6.49,-0.163,0.109,-0.08
6.5,-0.283,-0.231,0.115
6.51,-0.266,-0.151,0.087
6.52,-0.146,-0.079,0.038
6.53,-0.139,-0.024,0.065
6.54,-0.158,0.157,0.064
6.55,-0.277,0.112,0.019
6.56,-0.244,0.036,-0.095
6.57,-0.293,0.026,-0.122
6.58,-0.399,0.116,-0.046
6.59,-0.281,0.016,-0.08
6.6,-0.302,0.139,-0.065
6.61,-0.286,0.083,0.026
6.62,-0.209,0.041,0.005
6.63,-0.161,-0.048,0.054
6.64,-0.074,-0.182,0.03
6.65,-0.068,-0.033,0.047
6.66,-0.15,-0.012,0.065
6.67,-0.228,0.004,0.012
6.68,-0.311,0.18,-0.047
6.69,-0.328,0.038,-0.058
6.7,-0.374,0.002,-0.023
6.71,-0.38,0.055,-0.04
6.72,-0.337,0.089,-0.011
6.73,-0.287,0.045,0.013
6.74,-0.123,0.15,-0.005
6.75,0.006,-0.015,-0.026
6.76,-0.071,-0.146,0.009
6.77,-0.065,-0.108,0.002
6.78,-0.186,-0.256,0.091
6.79,-0.28,0.107,0.112
6.8,-0.373,0.19,0.094
6.81,-0.439,0.117,-0.009
6.82,-0.331,0.07,-0.17
6.83,-0.368,-0.005,-0.171
6.84,-0.251,-0.11,-0.076
6.85,-0.196,0.044,0.016
6.86,-0.137,0.087,0.058
6.87,-0.052,0.087,0.033
6.88,-0.104,0.151,0.095
6.89,-0.17,-0.08,0.085
6.9,-0.211,-0.136,-0.021
6.91,-0.35,-0.167,-0.007
6.92,-0.353,-0.024,0.006
6.93,-0.397,0.194,0.051
6.94,-0.392,0.186,-0.016
6.95,-0.276,0.152,-0.104
6.96,-0.206,0.032,-0.079
6.97,-0.088,-0.148,-0.04
6.98,-0.156,-0.096,0.004
6.99,-0.18,0.044,0.055
7.0,-0.141,-0.087,0.144
7.01,-0.157,0.142,0.046
7.02,-0.19,0.075,-0.018
7.03,-0.31,-0.156,0.019
7.04,-0.342,0.058,-0.02
7.05,-0.408,-0.047,-0.042
7.06,-0.369,-0.007,-0.006
7.07,-0.236,0.218,-0.063
7.08,-0.266,0.017,-0.027
7.09,-0.086,0.017,-0.064
7.1,-0.089,-0.001,-0.003
7.11,-0.179,-0.106,0.076
7.12,-0.117,-0.047,0.028
7.13,-0.227,0.063,0.083
7.14,-0.205,0.118,0.035
7.15,-0.311,0.09,0.039
7.16,-0.416,0.001,-0.044
7.17,-0.351,-0.138,-0.101
7.18,-0.382,0.037,-0.072
7.19,-0.254,0.042,-0.053
7.2,-0.171,0.113,-0.05
7.21,-0.182,0.256,0.004
7.22,-0.111,0.142,0.033
7.23,-0.092,0.074,0.036
7.24,-0.145,-0.183,0.044
7.25,-0.193,-0.202,0.059
7.26,-0.281,-0.113,0.08
7.27,-0.336,-0.01,0.035
7.28,-0.355,0.018,-0.019
7.29,-0.31,0.154,-0.124
7.3,-0.299,0.014,-0.044
7.31,-0.266,0.001,0.009
7.32,-0.176,0.186,-0.016
7.33,-0.193,0.087,0.007
7.34,-0.175,0.111,-0.008
7.35,-0.112,0.137,-0.046
7.36,-0.177,-0.177,0.017
7.37,-0.215,-0.178,0.016
7.38,-0.232,-0.169,0.075
7.39,-0.321,-0.152,0.141
7.4,-0.303,0.201,0.055
7.41,-0.281,0.158,-0.014
7.42,-0.222,0.069,-0.104
7.43,-0.248,0.068,-0.148
7.44,-0.27,-0.02,-0.098
7.45,-0.15,-0.032,-0.053
7.46,-0.254,0.139,0.049
7.47,-0.246,0.114,0.126
7.48,-0.185,0.111,0.08
7.49,-0.239,0.008,0.052
7.5,-0.261,-0.277,0.006
7.51,-0.29,-0.269,0.004
7.52,-0.254,-0.063,0.01
7.53,-0.22,-0.063,0.029
7.54,-0.274,0.331,-0.039
7.55,-0.252,0.206,-0.047
7.56,-0.253,0.125,-0.038
7.57,-0.205,0.1,-0.082
7.58,-0.279,-0.079,-0.025
7.59,-0.271,-0.099,0.008
7.6,-0.219,0.076,0.053
7.61,-0.265,0.014,0.133
7.62,-0.173,-0.031,0.048
7.63,-0.159,-0.083,-0.064
7.64,-0.181,-0.238,-0.012
7.65,-0.167,0.023,-0.017
7.66,-0.328,0.085,0.04
7.67,-0.344,0.088,0.026
7.68,-0.202,0.301,-0.114
7.69,-0.275,0.088,-0.053
7.7,-0.224,0.004,-0.057
7.71,-0.236,-0.079,0.028
7.72,-0.206,-0.11,0.046
7.73,-0.173,-0.127,0.026
7.74,-0.225,0.045,0.102
7.75,-0.13,-0.029,0.094
7.76,-0.256,0.095,0.026
7.77,-0.306,-0.042,-0.043
7.78,-0.289,-0.07,-0.083
7.79,-0.352,0.154,-0.057
7.8,-0.319,0.154,-0.07
7.81,-0.265,0.131,-0.053
7.82,-0.229,0.163,-0.06
7.83,-0.192,0.077,-0.02
7.84,-0.164,-0.102,0.048
7.85,-0.141,-0.091,0.048
7.86,-0.147,-0.232,0.075
7.87,-0.164,-0.042,0.073
7.88,-0.217,0.09,0.057
7.89,-0.304,0.054,0.008
7.9,-0.296,0.124,-0.088
7.91,-0.311,0.016,-0.085
7.92,-0.336,-0.016,-0.033
7.93,-0.248,0.166,-0.036
7.94,-0.246,0.113,0.036
7.95,-0.268,0.154,-0.029
7.96,-0.139,0.071,-0.058
7.97,-0.155,-0.19,0.028
7.98,-0.063,-0.252,0.014
7.99,-0.196,-0.2,0.104
8.0,-0.239,-0.109,0.177
8.01,-0.262,0.205,0.08
8.02,-0.342,0.18,0.008
8.03,-0.279,0.118,-0.095
8.04,-0.372,0.077,-0.14
8.05,-0.301,-0.07,-0.119
8.06,-0.271,-0.057,-0.116
8.07,-0.29,0.094,0.025
8.08,-0.263,0.085,0.122
8.09,-0.117,0.048,0.101
8.1,-0.054,0.026,0.01
8.11,-0.131,-0.208,0.023
8.12,-0.197,-0.126,0.037
8.13,-0.239,-0.03,-0.003
8.14,-0.391,0.086,0.057
8.15,-0.292,0.276,-0.039
8.16,-0.349,0.203,-0.093
8.17,-0.418,0.078,-0.123
8.18,-0.217,-0.039,-0.115
8.19,-0.244,-0.091,-0.01
8.2,-0.198,-0.128,0.05
8.21,-0.073,0.008,0.087
8.22,-0.068,0.073,0.123
8.23,-0.05,0.082,0.02
8.24,-0.214,-0.026,0.029
8.25,-0.291,-0.168,0.035
8.26,-0.334,0.052,-0.055
8.27,-0.481,-0.043,0.037
8.28,-0.328,0.071,-0.05
8.29,-0.302,0.228,-0.112
8.3,-0.28,0.043,-0.049
8.31,-0.114,-0.087,-0.037
8.32,-0.099,-0.003,0.014
8.33,-0.113,-0.126,0.069
8.34,-0.157,-0.061,0.098
8.35,-0.171,0.157,0.091
8.36,-0.261,0.083,0.061
8.37,-0.306,0.105,-0.04
8.38,-0.328,0.026,-0.107
8.39,-0.398,-0.156,-0.05
8.4,-0.358,0.046,-0.044
8.41,-0.292,0.07,-0.046
8.42,-0.21,0.052,-0.022
8.43,-0.124,0.163,-0.026
8.44,-0.113,0.108,0.034
8.45,-0.172,0.002,0.058
8.46,-0.148,-0.12,0.041
8.47,-0.149,-0.092,0.074
8.48,-0.246,0.018,0.059
8.49,-0.401,0.07,0.053
8.5,-0.287,-0.032,-0.069
8.51,-0.306,0.07,-0.139
8.52,-0.36,-0.052,0.001
8.53,-0.247,-0.011,0.041
8.54,-0.222,0.101,-0.004
8.55,-0.192,0.135,0.015
8.56,-0.128,0.102,-0.003
8.57,-0.102,0.081,-0.044
8.58,-0.169,-0.179,-0.018
8.59,-0.165,-0.234,0.029
8.6,-0.254,-0.069,0.123
8.61,-0.335,-0.033,0.206
8.62,-0.34,0.188,0.038
8.63,-0.332,0.176,-0.084
8.64,-0.311,-0.052,-0.131
8.65,-0.199,0.014,-0.16
8.66,-0.245,0.01,-0.102
8.67,-0.243,-0.081,0.014
8.68,-0.139,0.21,0.053
8.69,-0.099,0.161,0.074
8.7,-0.191,0.047,0.088
8.71,-0.169,0.038,0.016
8.72,-0.301,-0.208,0.042
8.73,-0.388,-0.13,0.022
8.74,-0.367,-0.061,-0.02
8.75,-0.323,0.004,-0.012
8.76,-0.192,0.187,-0.08
8.77,-0.283,0.165,-0.021
8.78,-0.189,-0.104,-0.037
8.79,-0.091,0.146,-0.097
8.8,-0.238,-0.131,0.072
8.81,-0.215,0.046,0.063
8.82,-0.229,0.171,0.075
8.83,-0.27,-0.001,0.084
8.84,-0.164,0.01,-0.078
8.85,-0.34,-0.112,-0.056
8.86,-0.295,-0.242,-0.018
8.87,-0.246,-0.042,0.026
8.88,-0.278,0.147,0.066
8.89,-0.216,0.052,-0.013
8.9,-0.223,0.185,-0.076
8.91,-0.131,0.14,-0.071
8.92,-0.214,-0.061,-0.008
8.93,-0.28,-0.043,0.002
8.94,-0.138,-0.08,-0.001
8.95,-0.179,0.023,0.049
8.96,-0.251,0.112,0.063
8.97,-0.312,0.033,0.042
8.98,-0.32,-0.031,-0.004
8.99,-0.271,-0.055,-0.082
9.0,-0.324,-0.044,-0.031
9.01,-0.28,0.092,-0.028
9.02,-0.203,0.173,-0.054
9.03,-0.174,0.166,-0.012
9.04,-0.151,0.155,-0.013
9.05,-0.167,-0.012,0.006
9.06,-0.178,-0.164,0.072
9.07,-0.269,-0.161,0.026
9.08,-0.313,-0.094,0.077
9.09,-0.268,-0.03,0.047
9.1,-0.281,0.195,-0.012
9.11,-0.243,0.027,-0.048
9.12,-0.226,-0.028,-0.09
9.13,-0.241,0.113,-0.077
9.14,-0.172,-0.062,-0.018
9.15,-0.245,0.207,0.025
9.16,-0.286,0.274,0.035
9.17,-0.18,0.046,-0.026
9.18,-0.2,0.019,-0.119
9.19,-0.186,-0.313,-0.019
9.2,-0.159,-0.284,0.078
9.21,-0.201,-0.102,0.144
9.22,-0.283,0.024,0.173
9.23,-0.203,0.189,0.067
9.24,-0.25,0.319,-0.119
9.25,-0.316,-0.024,-0.117
9.26,-0.276,0.002,-0.152
9.27,-0.314,0.001,-0.086
9.28,-0.346,-0.023,0.052
9.29,-0.202,0.068,0.035
9.3,-0.162,0.143,0.085
9.31,-0.177,-0.066,0.083
9.32,-0.133,-0.078,0.043
9.33,-0.169,-0.186,0.004
9.34,-0.249,-0.148,0.003
9.35,-0.313,0.092,0.05
9.36,-0.284,0.115,-0.008
9.37,-0.301,0.26,-0.056
9.38,-0.385,0.137,-0.028
9.39,-0.259,0.007,-0.085
9.4,-0.185,-0.063,-0.122
9.41,-0.304,-0.089,-0.011
9.42,-0.174,-0.024,0.058
9.43,-0.153,0.172,0.062
9.44,-0.103,-0.039,0.057
9.45,-0.062,-0.033,-0.033
9.46,-0.217,-0.117,0.035
9.47,-0.254,-0.13,0.115
9.48,-0.333,-0.033,0.045
9.49,-0.45,0.184,0.019
9.5,-0.284,0.156,-0.08
9.51,-0.316,0.188,-0.122
9.52,-0.251,0.038,-0.127
9.53,-0.193,-0.102,-0.024
9.54,-0.149,-0.159,0.025
9.55,-0.082,-0.105,0.083
9.56,-0.137,-0.042,0.173
9.57,-0.166,0.14,0.126
9.58,-0.256,0.114,0.057
9.59,-0.331,-0.064,-0.047
9.6,-0.351,0.138,-0.157
9.61,-0.387,0.017,-0.081
9.62,-0.373,0.101,-0.038
9.63,-0.283,0.149,-0.106
9.64,-0.201,0.056,-0.037
9.65,-0.122,0.025,0.014
9.66,-0.148,-0.051,0.097
9.67,-0.106,-0.164,0.072
9.68,-0.13,-0.083,0.043
9.69,-0.252,-0.021,0.111
9.7,-0.217,0.108,0.036
9.71,-0.336,0.17,-0.017
9.72,-0.308,-0.021,-0.111
9.73,-0.257,-0.01,-0.125
9.74,-0.333,0.01,-0.034
9.75,-0.308,0.01,0.03
9.76,-0.25,0.132,-0.001
9.77,-0.195,0.232,-0.012
9.78,-0.108,0.019,-0.019
9.79,-0.096,0.013,-0.035
9.8,-0.141,-0.269,0.009
9.81,-0.171,-0.332,0.095
9.82,-0.24,-0.045,0.176
9.83,-0.282,0.062,0.181
9.84,-0.34,0.193,0.05
9.85,-0.33,0.187,-0.115
9.86,-0.381,0.003,-0.159
9.87,-0.349,-0.035,-0.16
9.88,-0.254,-0.028,-0.123
9.89,-0.235,-0.015,0.003
9.9,-0.103,0.122,0.028
9.91,-0.064,0.179,0.055
9.92,-0.142,0.002,0.127
9.93,-0.139,-0.044,0.048
9.94,-0.28,-0.176,0.056
9.95,-0.267,-0.109,-0.031
9.96,-0.371,0.049,0.02
9.97,-0.431,0.084,0.011
9.98,-0.324,0.183,-0.081
9.99,-0.378,0.112,-0.051
10.0,-0.135,-0.059,-0.095
10.01,-0.13,-0.012,-0.096
10.02,-0.263,-0.025,0.086
10.03,-0.126,-0.007,0.124
10.04,-0.09,0.185,0.047
10.05,-0.119,0.06,0.022
10.06,-0.175,-0.135,-0.012
10.07,-0.331,-0.032,0.038
10.08,-0.336,-0.166,0.013
10.09,-0.467,-0.022,0.077
10.1,-0.352,0.104,-0.029
10.11,-0.215,0.182,-0.088
10.12,-0.256,0.094,-0.087
10.13,-0.108,0.071,-0.067
10.14,-0.11,-0.062,0.016
10.15,-0.061,-0.08,-0.005
10.16,-0.241,0.03,0.131
10.17,-0.199,0.066,0.135
10.18,-0.227,0.134,0.046
10.19,-0.419,-0.048,-0.025
10.2,-0.373,-0.08,-0.138
10.21,-0.346,-0.048,-0.07
10.22,-0.34,0.024,-0.03
10.23,-0.215,0.149,-0.07
10.24,-0.16,0.198,-0.06
10.25,-0.108,0.098,-0.036
10.26,-0.111,0.162,0.05
10.27,-0.16,-0.06,0.116
10.28,-0.207,-0.198,0.046
10.29,-0.249,-0.054,0.06
10.3,-0.286,-0.084,0.039
10.31,-0.362,0.045,0.005
10.32,-0.292,0.028,-0.047
10.33,-0.187,0.003,-0.042
10.34,-0.321,0.119,-0.024
10.35,-0.192,0.072,-0.02
10.36,-0.21,0.165,-0.004
10.37,-0.236,0.253,-0.018
10.38,-0.219,0.058,-0.023
10.39,-0.174,-0.138,-0.033
10.4,-0.18,-0.213,-0.027
10.41,-0.226,-0.308,0.066
10.42,-0.243,-0.115,0.154
10.43,-0.282,0.111,0.137
10.44,-0.254,0.136,0.056
10.45,-0.23,0.216,-0.131
10.46,-0.308,0.104,-0.153
10.47,-0.269,-0.067,-0.155
10.48,-0.235,-0.007,-0.093
10.49,-0.299,0.035,0.069
10.5,-0.221,0.113,0.107
10.51,-0.222,0.165,0.14
10.52,-0.195,-0.006,0.03
10.53,-0.14,-0.076,-0.035
10.54,-0.308,-0.216,0.008
10.55,-0.241,-0.207,0.009
10.56,-0.27,0.022,-0.006
10.57,-0.249,0.131,-0.029
10.58,-0.22,0.144,-0.017
10.59,-0.298,0.256,-0.031
10.6,-0.229,0.092,-0.002
10.61,-0.265,-0.068,-0.035
10.62,-0.299,-0.045,-0.04
10.63,-0.278,-0.07,0.032
10.64,-0.253,-0.002,0.082
10.65,-0.148,0.059,0.018
10.66,-0.155,-0.135,0.011
10.67,-0.178,-0.136,-0.009
10.68,-0.108,0.008,-0.002
10.69,-0.31,-0.013,0.117
10.7,-0.302,0.196,0.0
10.71,-0.253,0.272,-0.114
10.72,-0.318,0.067,-0.113
10.73,-0.234,0.133,-0.115
10.74,-0.261,-0.078,-0.002
10.75,-0.264,-0.248,0.041
10.76,-0.227,-0.037,0.061
10.77,-0.124,-0.124,0.14
10.78,-0.121,0.119,0.08
10.79,-0.208,0.17,0.039
10.8,-0.232,-0.01,-0.061
10.81,-0.302,0.05,-0.12
10.82,-0.388,0.073,-0.055
10.83,-0.281,0.012,-0.03
10.84,-0.295,0.163,-0.053
10.85,-0.281,0.003,-0.022
10.86,-0.178,0.019,0.007
10.87,-0.197,-0.005,0.054
10.88,-0.216,-0.143,0.094
10.89,-0.133,-0.081,0.049
10.9,-0.127,-0.012,0.041
10.91,-0.217,0.026,0.03
10.92,-0.259,0.113,-0.038
10.93,-0.273,0.043,-0.075
10.94,-0.383,-0.064,-0.004
10.95,-0.307,0.163,-0.036
10.96,-0.255,0.102,-0.044
10.97,-0.337,0.032,-0.017
10.98,-0.19,0.213,-0.022
10.99,-0.074,0.05,-0.028
11.0,-0.097,-0.177,-0.011
11.01,-0.087,-0.176,-0.004
11.02,-0.183,-0.24,0.154
11.03,-0.259,-0.03,0.194
11.04,-0.3,0.219,0.068
11.05,-0.355,0.12,-0.022
11.06,-0.305,0.146,-0.165
11.07,-0.344,0.12,-0.144
11.08,-0.269,-0.133,-0.104
11.09,-0.192,-0.0,-0.068
11.1,-0.215,0.015,0.043
11.11,-0.133,-0.025,0.124
11.12,-0.171,0.16,0.13
11.13,-0.159,-0.061,0.064
11.14,-0.17,-0.117,-0.012
11.15,-0.301,-0.081,-0.03
11.16,-0.33,-0.126,-0.014
11.17,-0.324,0.112,-0.002
11.18,-0.285,0.249,-0.001
11.19,-0.314,0.063,0.007
11.2,-0.304,0.175,-0.078
11.21,-0.208,0.001,-0.127
11.22,-0.184,-0.2,-0.01
11.23,-0.184,0.05,0.001
11.24,-0.167,-0.018,0.087
11.25,-0.151,0.013,0.099
11.26,-0.078,0.147,-0.009
11.27,-0.223,-0.104,0.019
11.28,-0.321,-0.093,0.045
11.29,-0.295,0.062,0.019
11.3,-0.408,-0.044,0.049
11.31,-0.375,0.123,-0.082
11.32,-0.298,0.137,-0.131
11.33,-0.185,-0.018,-0.045
11.34,-0.09,-0.003,-0.04
11.35,-0.148,-0.115,0.028
11.36,-0.058,-0.166,0.037
11.37,-0.194,0.094,0.118
11.38,-0.245,0.076,0.144
11.39,-0.216,0.167,0.055
11.4,-0.362,0.091,-0.079
11.41,-0.335,-0.009,-0.123
11.42,-0.406,-0.044,-0.107
11.43,-0.427,0.031,-0.047
11.44,-0.219,0.017,-0.05
11.45,-0.057,0.122,-0.073
11.46,-0.169,0.131,0.023
11.47,-0.152,0.012,0.093
11.48,-0.13,0.034,0.072
11.49,-0.192,-0.143,0.077
11.5,-0.221,-0.129,0.056
11.51,-0.199,0.071,0.008
11.52,-0.339,0.022,0.007
11.53,-0.355,0.08,-0.087
11.54,-0.276,-0.004,-0.056
11.55,-0.287,-0.004,-0.021
11.56,-0.242,0.031,-0.016
11.57,-0.274,0.159,-0.018
11.58,-0.194,0.03,0.011
11.59,-0.155,0.254,-0.034
11.6,-0.142,-0.047,-0.014
11.61,-0.136,-0.23,0.032
11.62,-0.162,-0.183,0.042
11.63,-0.273,-0.238,0.164
11.64,-0.28,0.065,0.13
11.65,-0.338,0.153,0.06
11.66,-0.339,0.176,-0.071
11.67,-0.292,0.021,-0.174
11.68,-0.299,0.041,-0.162
11.69,-0.253,-0.111,-0.091
11.7,-0.202,0.011,-0.017
11.71,-0.163,0.175,0.067
11.72,-0.168,0.056,0.113
11.73,-0.148,0.176,0.082
11.74,-0.173,-0.055,0.056
11.75,-0.229,-0.163,0.011
11.76,-0.292,-0.124,-0.037
11.77,-0.384,-0.158,-0.006
11.78,-0.354,0.035,0.002
11.79,-0.191,0.213,-0.045
11.8,-0.286,0.09,-0.006
11.81,-0.223,0.189,-0.09
11.82,-0.185,0.049,-0.087
11.83,-0.2,-0.161,0.003
11.84,-0.186,0.122,0.022
11.85,-0.174,0.032,0.123
11.86,-0.181,-0.077,0.094
11.87,-0.204,0.079,-0.05
11.88,-0.295,-0.217,0.051
11.89,-0.293,-0.14,0.062
11.9,-0.288,-0.073,0.021
11.91,-0.355,0.058,-0.009
11.92,-0.202,0.177,-0.113
11.93,-0.291,0.263,-0.103
11.94,-0.162,0.112,-0.076
11.95,-0.052,0.039,-0.041
11.96,-0.206,-0.03,0.044
11.97,-0.145,-0.192,0.064
11.98,-0.224,-0.017,0.042
11.99,-0.286,0.04,0.111
12.0,-0.302,-0.008,0.055
12.01,-0.304,0.049,-0.025
12.02,-0.324,-0.025,-0.081
12.03,-0.298,0.042,-0.08
12.04,-0.279,0.189,-0.054
12.05,-0.166,0.104,-0.059
12.06,-0.19,0.185,-0.039
12.07,-0.17,0.138,0.004
12.08,-0.187,-0.026,0.051
12.09,-0.219,-0.075,0.045
12.1,-0.22,-0.163,0.037
12.11,-0.282,-0.189,0.103
12.12,-0.199,-0.034,0.056
12.13,-0.244,-0.032,0.021
12.14,-0.287,0.037,-0.025
12.15,-0.252,0.07,-0.066
12.16,-0.35,0.09,0.023
12.17,-0.271,0.142,-0.026
12.18,-0.25,0.224,-0.061
12.19,-0.26,0.1,-0.057
12.2,-0.117,0.057,-0.13
12.21,-0.175,-0.046,-0.018
12.22,-0.143,-0.282,0.024
12.23,-0.131,-0.196,0.119
12.24,-0.236,-0.139,0.202
12.25,-0.225,0.064,0.109
12.26,-0.263,0.227,0.051
12.27,-0.329,0.13,-0.046
12.28,-0.318,0.053,-0.173
12.29,-0.328,0.022,-0.146
12.3,-0.303,-0.035,-0.07
12.31,-0.203,0.078,-0.008
12.32,-0.254,0.119,0.053
12.33,-0.149,0.062,0.064
12.34,-0.111,0.064,0.028
12.35,-0.142,-0.181,0.052
12.36,-0.337,0.001,-0.075
12.37,-0.39,0.023,-0.087
12.38,-0.324,-0.025,0.006
12.39,-0.267,0.132,-0.06
12.4,-0.218,0.212,-0.057
12.41,-0.079,0.024,-0.045
12.42,-0.047,0.164,-0.063
12.43,-0.132,-0.192,0.061
12.44,-0.119,-0.303,0.064
12.45,-0.233,-0.126,0.15
12.46,-0.341,0.006,0.214
12.47,-0.345,0.107,0.101
12.48,-0.37,0.217,-0.078
12.49,-0.322,-0.011,-0.148
12.5,-0.28,0.008,-0.186
12.51,-0.27,0.016,-0.108
12.52,-0.171,-0.072,-0.013
12.53,-0.189,0.178,0.022
12.54,-0.152,0.121,0.058
12.55,-0.123,0.059,0.07
12.56,-0.18,-0.001,0.053
12.57,-0.28,-0.157,0.057
12.58,-0.279,-0.183,0.017
12.59,-0.298,-0.026,-0.007
12.6,-0.388,0.024,0.024
12.61,-0.275,0.202,-0.027
12.62,-0.301,0.165,-0.039
12.63,-0.268,-0.003,-0.048
12.64,-0.174,0.028,-0.11
12.65,-0.162,-0.052,-0.061
12.66,-0.137,-0.079,0.05
12.67,-0.152,0.135,0.065
12.68,-0.167,0.105,0.103
12.69,-0.178,0.012,0.012
12.7,-0.245,0.005,0.017
12.71,-0.344,-0.194,0.007
12.72,-0.327,-0.073,-0.028
12.73,-0.438,0.063,0.019
12.74,-0.291,-0.006,0.016
12.75,-0.201,0.249,-0.064
12.76,-0.155,0.045,-0.036
12.77,-0.127,-0.066,-0.018
12.78,-0.118,-0.004,-0.035
12.79,-0.147,-0.006,0.028
12.8,-0.223,-0.039,0.107
12.81,-0.281,0.097,0.103
12.82,-0.32,0.094,0.01
12.83,-0.336,-0.074,-0.046
12.84,-0.392,0.009,-0.05
12.85,-0.323,-0.054,-0.027
12.86,-0.249,0.048,-0.062
12.87,-0.164,0.209,-0.051
12.88,-0.134,0.144,-0.053
12.89,-0.15,0.196,-0.02
12.9,-0.204,0.066,0.025
12.91,-0.142,-0.145,0.054
12.92,-0.224,-0.106,0.045
12.93,-0.346,-0.173,0.062
12.94,-0.291,-0.086,0.079
12.95,-0.314,0.087,0.025
12.96,-0.25,0.062,-0.051
12.97,-0.19,0.028,-0.107
12.98,-0.272,0.129,0.001
12.99,-0.215,0.095,0.001
13.0,-0.203,0.183,-0.043
13.01,-0.222,0.152,0.005
13.02,-0.194,-0.036,-0.012
13.03,-0.235,-0.044,0.042
13.04,-0.238,-0.294,0.046
13.05,-0.28,-0.244,0.086
13.06,-0.294,-0.032,0.099
13.07,-0.173,0.027,0.085
13.08,-0.25,0.183,-0.011
13.09,-0.189,0.225,-0.129
13.1,-0.299,-0.016,-0.094
13.11,-0.262,0.051,-0.12
13.12,-0.224,0.054,-0.083
13.13,-0.278,-0.046,0.071
13.14,-0.249,0.194,0.066
13.15,-0.209,0.13,0.069
13.16,-0.218,-0.064,0.048
13.17,-0.172,-0.064,-0.027
13.18,-0.236,-0.297,0.026
13.19,-0.201,-0.136,-0.001
13.2,-0.292,0.112,0.026
13.21,-0.287,0.168,0.019
13.22,-0.252,0.271,-0.054
13.23,-0.333,0.155,-0.014
13.24,-0.195,0.013,-0.073
13.25,-0.223,-0.035,-0.117
13.26,-0.276,-0.127,0.02
13.27,-0.198,-0.083,0.045
13.28,-0.2,0.154,0.117
13.29,-0.152,-0.027,0.085
13.3,-0.152,-0.112,-0.035
13.31,-0.246,-0.08,-0.02
13.32,-0.244,-0.171,0.016
13.33,-0.371,0.081,0.08
13.34,-0.335,0.225,-0.029
13.35,-0.22,0.153,-0.102
13.36,-0.204,0.217,-0.12
13.37,-0.176,0.094,-0.066
13.38,-0.266,-0.225,0.024
13.39,-0.164,-0.122,0.002
13.4,-0.151,-0.105,0.027
13.41,-0.219,-0.079,0.133
13.42,-0.2,0.194,0.12
13.43,-0.305,0.128,0.067
13.44,-0.248,0.033,-0.082
13.45,-0.302,0.057,-0.121
13.46,-0.34,-0.027,-0.085
13.47,-0.282,0.165,-0.049
13.48,-0.248,0.097,-0.011
13.49,-0.227,0.102,-0.056
13.5,-0.216,0.054,0.011
13.51,-0.174,-0.075,0.08
13.52,-0.156,-0.204,0.099
13.53,-0.211,-0.155,0.1
13.54,-0.148,-0.106,0.051
13.55,-0.26,0.084,0.03
13.56,-0.289,0.252,-0.027
13.57,-0.237,0.075,-0.068
13.58,-0.372,0.082,-0.089
13.59,-0.3,0.026,-0.068
13.6,-0.243,-0.076,-0.049
13.61,-0.294,0.076,-0.019
13.62,-0.243,0.149,0.017
13.63,-0.092,-0.02,0.053
13.64,-0.084,0.007,-0.005
13.65,-0.094,-0.218,0.029
13.66,-0.176,-0.256,0.1
13.67,-0.164,0.021,0.117
13.68,-0.33,0.113,0.102
13.69,-0.415,0.187,0.005
13.7,-0.332,0.204,-0.148
13.71,-0.345,0.015,-0.16
13.72,-0.297,-0.03,-0.119
13.73,-0.285,-0.028,-0.074
13.74,-0.196,-0.119,0.066
13.75,-0.05,0.198,0.043
13.76,-0.1,0.085,0.13
13.77,-0.114,-0.042,0.077
13.78,-0.114,-0.019,0.009
13.79,-0.303,-0.21,0.067
13.8,-0.351,-0.084,0.001
13.81,-0.494,0.036,0.022
13.82,-0.348,0.156,-0.021
13.83,-0.352,0.133,-0.084
13.84,-0.385,0.155,-0.049
13.85,-0.07,-0.079,-0.146
13.86,-0.079,-0.058,-0.106
13.87,-0.195,-0.027,0.061
13.88,-0.057,-0.038,0.139
13.89,-0.158,0.225,0.138
13.9,-0.167,0.042,0.033
13.91,-0.252,-0.058,-0.029
13.92,-0.352,-0.019,-0.018
13.93,-0.297,-0.187,0.006
13.94,-0.434,0.03,-0.009
13.95,-0.362,0.109,-0.063
13.96,-0.231,0.091,-0.079
13.97,-0.168,0.176,-0.035
13.98,-0.107,0.086,-0.044
13.99,-0.135,-0.128,0.031
14.0,-0.118,-0.141,0.019
14.01,-0.115,-0.009,0.078
14.02,-0.25,-0.025,0.168
14.03,-0.274,0.161,0.097
14.04,-0.338,0.059,-0.022
14.05,-0.415,-0.017,-0.135
14.06,-0.39,0.023,-0.092
14.07,-0.367,0.024,-0.037
14.08,-0.279,0.066,-0.029
14.09,-0.168,0.145,-0.069
14.1,-0.107,0.08,-0.018
14.11,-0.105,0.11,-0.016
14.12,-0.145,-0.029,0.068
14.13,-0.131,-0.175,0.112
14.14,-0.222,-0.03,0.064
14.15,-0.267,-0.024,0.075
14.16,-0.385,0.036,0.006
14.17,-0.321,0.104,-0.082
14.18,-0.307,-0.065,-0.074
14.19,-0.303,-0.052,-0.037
14.2,-0.183,0.105,-0.047
14.21,-0.208,0.057,-0.006
14.22,-0.262,0.236,-0.008
14.23,-0.108,0.217,-0.037
14.24,-0.107,0.025,-0.007
14.25,-0.134,-0.16,-0.012
14.26,-0.224,-0.213,0.038
14.27,-0.244,-0.3,0.111
14.28,-0.329,0.044,0.149
14.29,-0.411,0.03,0.121
14.3,-0.306,0.152,-0.022
14.31,-0.282,0.115,-0.132
14.32,-0.238,-0.001,-0.131
14.33,-0.19,0.012,-0.139
14.34,-0.226,0.023,-0.032
14.35,-0.177,0.092,0.074
14.36,-0.116,0.157,0.031
14.37,-0.221,0.139,0.092
14.38,-0.184,-0.184,0.04
14.39,-0.314,-0.143,-0.008
14.4,-0.349,-0.156,0.037
14.41,-0.302,-0.122,0.025
14.42,-0.302,0.164,0.014
14.43,-0.203,0.252,-0.071
14.44,-0.238,0.1,-0.04
14.45,-0.199,0.217,-0.067
14.46,-0.083,-0.043,-0.128
14.47,-0.313,-0.082,0.005
14.48,-0.281,0.015,0.057
14.49,-0.204,-0.012,0.146
14.5,-0.236,0.079,0.057
14.51,-0.205,-0.008,-0.035
14.52,-0.237,-0.27,-0.033
14.53,-0.192,-0.06,0.008
14.54,-0.218,-0.15,0.084
14.55,-0.32,0.1,0.101
14.56,-0.239,0.252,-0.031
14.57,-0.264,0.178,-0.055
14.58,-0.266,0.174,-0.087
14.59,-0.221,-0.012,-0.071
14.6,-0.298,-0.198,0.022
14.61,-0.17,-0.142,-0.037
14.62,-0.212,-0.074,0.079
14.63,-0.21,0.018,0.126
14.64,-0.138,0.154,0.069
14.65,-0.211,0.061,-0.002
14.66,-0.263,-0.026,-0.069
14.67,-0.346,0.029,-0.085
14.68,-0.371,0.093,-0.029
14.69,-0.266,0.107,-0.067
14.7,-0.257,0.193,-0.059
14.71,-0.202,0.143,-0.003
14.72,-0.187,0.017,-0.001
14.73,-0.199,-0.145,0.09
14.74,-0.116,-0.207,0.038
14.75,-0.199,-0.101,0.067
14.76,-0.265,-0.071,0.062
14.77,-0.181,0.063,-0.015
14.78,-0.229,0.202,-0.041
14.79,-0.322,-0.007,0.009
14.8,-0.35,-0.013,-0.022
14.81,-0.289,0.052,-0.028
14.82,-0.241,0.039,-0.014
14.83,-0.3,0.157,0.019
14.84,-0.24,0.138,-0.057
14.85,-0.198,-0.073,-0.053
14.86,-0.081,-0.167,-0.06
14.87,-0.13,-0.187,0.044
14.88,-0.222,-0.234,0.159
14.89,-0.191,0.107,0.102
14.9,-0.256,0.187,0.097
14.91,-0.279,0.122,-0.03
14.92,-0.312,0.19,-0.137
14.93,-0.375,-0.033,-0.097
14.94,-0.273,-0.056,-0.107
14.95,-0.326,0.03,-0.026
14.96,-0.296,-0.002,0.084
14.97,-0.131,0.092,0.064
14.98,-0.114,0.06,0.053
14.99,-0.067,-0.132,0.015
15.0,-0.195,-0.138,0.013
15.01,-0.278,-0.069,0.025
15.02,-0.227,0.02,-0.011
15.03,-0.345,0.196,0.021
15.04,-0.353,0.182,-0.017
15.05,-0.334,0.026,-0.028
15.06,-0.285,0.101,-0.068
15.07,-0.252,-0.19,-0.039
15.08,-0.325,-0.094,-0.003
15.09,-0.167,-0.017,0.055
15.1,-0.098,0.015,0.086
15.11,-0.085,0.135,0.02
15.12,-0.169,-0.003,-0.031
15.13,-0.171,-0.115,-0.014
15.14,-0.192,0.051,-0.024
15.15,-0.4,-0.011,0.096
15.16,-0.414,0.022,0.015
15.17,-0.303,0.242,-0.137
15.18,-0.353,0.036,-0.068
15.19,-0.236,0.007,-0.067
15.2,-0.184,-0.041,-0.003
15.21,-0.101,-0.209,0.038
15.22,-0.035,-0.007,0.064
15.23,-0.096,0.073,0.081
15.24,-0.202,0.111,0.122
15.25,-0.237,0.121,0.02
15.26,-0.34,0.049,-0.076
15.27,-0.424,-0.085,-0.086
15.28,-0.451,0.021,-0.083
15.29,-0.395,0.025,-0.028
15.3,-0.225,0.112,-0.063
15.31,-0.147,0.093,-0.014
15.32,-0.044,0.088,0.019
15.33,-0.045,0.004,0.042
15.34,-0.143,-0.074,0.081
15.35,-0.151,-0.141,0.059
15.36,-0.284,-0.038,0.027
15.37,-0.399,0.111,0.044
15.38,-0.358,0.005,-0.012
15.39,-0.317,0.082,-0.118
15.4,-0.383,-0.056,-0.089
15.41,-0.261,-0.093,-0.014
15.42,-0.145,0.191,0.017
15.43,-0.2,0.119,0.037
15.44,-0.153,0.195,0.004
15.45,-0.067,0.175,-0.072
15.46,-0.104,-0.143,-0.026
15.47,-0.182,-0.278,-0.011
15.48,-0.255,-0.198,0.088
15.49,-0.344,-0.128,0.231
15.5,-0.323,0.216,0.096
15.51,-0.343,0.209,-0.063
15.52,-0.304,0.082,-0.135
15.53,-0.278,0.098,-0.169
15.54,-0.242,-0.077,-0.086
15.55,-0.175,-0.134,-0.039
15.56,-0.184,0.061,0.093
15.57,-0.134,0.064,0.152
15.58,-0.127,0.108,0.118
15.59,-0.214,0.007,0.064
15.6,-0.24,-0.155,-0.018
15.61,-0.326,-0.093,-0.031
15.62,-0.364,-0.058,-0.067
15.63,-0.37,-0.009,-0.023
15.64,-0.268,0.252,-0.093
15.65,-0.272,0.099,-0.008
15.66,-0.263,0.021,-0.003
15.67,-0.038,0.066,-0.068
15.68,-0.201,-0.115,0.027
15.69,-0.213,0.031,0.045
15.7,-0.154,0.104,0.057
15.71,-0.245,0.109,0.109
15.72,-0.162,0.048,-0.054
15.73,-0.216,-0.104,-0.087
15.74,-0.349,-0.314,0.017
15.75,-0.272,-0.058,-0.026
15.76,-0.412,0.031,0.104
15.77,-0.271,0.056,0.018
15.78,-0.166,0.365,-0.109
15.79,-0.193,0.147,-0.057
15.8,-0.129,-0.025,-0.016
15.81,-0.181,0.017,0.015
15.82,-0.118,-0.266,0.035
15.83,-0.203,0.018,0.093
15.84,-0.261,-0.0,0.103
15.85,-0.33,0.059,0.084
15.86,-0.376,0.043,-0.023
15.87,-0.307,-0.001,-0.121
15.88,-0.33,-0.102,-0.077
15.89,-0.309,0.105,-0.046
15.9,-0.156,0.169,-0.042
15.91,-0.148,0.097,-0.043
15.92,-0.175,0.217,-0.032
15.93,-0.181,-0.012,0.053
15.94,-0.205,-0.004,0.092
15.95,-0.236,-0.107,0.05
15.96,-0.307,-0.221,0.083
15.97,-0.265,0.035,0.007
15.98,-0.238,0.017,-0.016
15.99,-0.198,-0.045,-0.04
16.0,-0.208,0.085,-0.091
16.01,-0.288,0.038,-0.024
16.02,-0.216,0.053,-0.023
16.03,-0.246,0.195,-0.012
16.04,-0.346,0.196,0.02
16.05,-0.258,0.082,0.003
16.06,-0.2,0.04,-0.047
16.07,-0.219,-0.28,0.015
16.08,-0.152,-0.351,0.062
16.09,-0.165,-0.196,0.113
16.1,-0.177,-0.008,0.189
16.11,-0.225,0.208,0.063
16.12,-0.252,0.279,-0.089
16.13,-0.332,0.108,-0.153
16.14,-0.332,0.053,-0.216
16.15,-0.345,-0.014,-0.106
16.16,-0.332,-0.092,0.025
16.17,-0.221,0.129,0.076
16.18,-0.197,0.092,0.101
16.19,-0.121,0.013,0.095
16.2,-0.128,-0.052,0.029
16.21,-0.173,-0.239,0.043
16.22,-0.203,-0.091,-0.049
16.23,-0.306,0.048,-0.036
16.24,-0.304,0.091,-0.04
16.25,-0.311,0.238,-0.025
16.26,-0.446,0.196,0.055
16.27,-0.253,0.097,-0.043
16.28,-0.252,-0.052,-0.059
16.29,-0.243,-0.125,-0.035
16.3,-0.119,0.019,0.005
16.31,-0.203,0.02,0.109
16.32,-0.036,-0.067,0.063
16.33,-0.085,-0.004,-0.06
16.34,-0.292,-0.191,0.058
16.35,-0.215,-0.116,0.032
16.36,-0.357,0.152,0.058
16.37,-0.421,0.094,0.065
16.38,-0.333,0.215,-0.105
16.39,-0.299,0.179,-0.161
16.4,-0.185,-0.014,-0.115
16.41,-0.226,-0.084,0.007
16.42,-0.184,-0.102,0.03
16.43,-0.123,-0.219,0.106
16.44,-0.11,0.002,0.125
16.45,-0.105,0.16,0.097
16.46,-0.249,-0.003,0.067
16.47,-0.304,0.077,-0.049
16.48,-0.338,0.015,-0.134
16.49,-0.394,0.021,-0.086
16.5,-0.359,0.175,-0.069
16.51,-0.294,0.113,-0.054
16.52,-0.264,0.135,-0.033
16.53,-0.198,0.053,-0.011
16.54,-0.14,-0.092,0.064
16.55,-0.11,-0.094,0.061
16.56,-0.1,-0.098,0.075
16.57,-0.122,-0.124,0.035
16.58,-0.211,0.146,0.001
16.59,-0.292,0.078,0.014
16.6,-0.313,-0.029,-0.027
16.61,-0.411,0.064,-0.053
16.62,-0.392,-0.047,-0.005
16.63,-0.313,0.085,-0.067
16.64,-0.3,0.195,-0.037
16.65,-0.24,0.119,0.021
16.66,-0.058,0.064,-0.066
16.67,-0.034,-0.033,-0.084
16.68,-0.029,-0.326,0.004
16.69,-0.137,-0.251,0.091
16.7,-0.228,0.038,0.199
16.71,-0.302,0.094,0.213
16.72,-0.384,0.289,-0.024
16.73,-0.377,0.155,-0.156
16.74,-0.365,-0.1,-0.2
16.75,-0.317,0.007,-0.155
16.76,-0.312,-0.063,-0.03
16.77,-0.198,-0.025,0.055
16.78,-0.103,0.165,0.049
16.79,-0.055,0.152,0.112
16.8,-0.074,0.055,0.094
16.81,-0.153,-0.053,0.011
16.82,-0.286,-0.256,0.032
16.83,-0.333,-0.056,-0.025
16.84,-0.431,0.025,0.033
16.85,-0.304,0.065,-0.025
16.86,-0.305,0.264,-0.031
16.87,-0.354,0.076,-0.023
16.88,-0.191,-0.022,-0.087
16.89,-0.174,-0.058,-0.078
16.9,-0.185,-0.073,0.028
16.91,-0.158,0.032,0.048
16.92,-0.167,0.109,0.075
16.93,-0.096,0.017,0.039
16.94,-0.172,0.014,-0.015
16.95,-0.323,-0.078,0.068
16.96,-0.25,-0.202,0.031
16.97,-0.378,0.067,-0.014
16.98,-0.37,0.072,-0.06
16.99,-0.272,0.07,-0.083
17.0,-0.2,0.226,-0.118
17.01,-0.178,0.035,-0.043
17.02,-0.146,-0.098,0.053
17.03,-0.106,0.004,0.039
17.04,-0.169,-0.062,0.128
17.05,-0.175,-0.013,0.149
17.06,-0.218,0.175,0.045
17.07,-0.285,-0.039,-0.021
17.08,-0.354,-0.037,-0.084
17.09,-0.443,-0.011,-0.064
17.1,-0.4,-0.071,-0.025
17.11,-0.228,0.118,-0.055
17.12,-0.173,0.092,-0.057
17.13,-0.144,0.158,-0.023
17.14,-0.149,0.151,0.048
17.15,-0.141,-0.015,0.11
17.16,-0.149,-0.084,0.018
17.17,-0.239,-0.083,0.026
17.18,-0.24,-0.127,0.053
17.19,-0.33,0.058,-0.011
17.2,-0.395,0.041,-0.024
17.21,-0.259,-0.156,-0.046
17.22,-0.232,0.08,-0.034
17.23,-0.217,0.071,-0.0
17.24,-0.187,0.072,-0.01
17.25,-0.25,0.257,-0.022
17.26,-0.18,0.166,-0.05
17.27,-0.128,-0.033,-0.048
17.28,-0.173,-0.112,-0.039
17.29,-0.225,-0.306,0.1
17.3,-0.267,-0.146,0.131
17.31,-0.31,0.014,0.152
17.32,-0.315,0.03,0.072
17.33,-0.205,0.242,-0.11
17.34,-0.281,0.115,-0.14
17.35,-0.226,-0.125,-0.134
17.36,-0.236,0.128,-0.089
17.37,-0.222,0.001,0.006
17.38,-0.248,0.099,0.097
17.39,-0.23,0.146,0.096
17.4,-0.215,0.018,0.06
17.41,-0.197,-0.079,-0.006
17.42,-0.311,-0.132,-0.018
17.43,-0.332,-0.227,0.006
17.44,-0.123,-0.028,-0.032
17.45,-0.236,0.119,0.006
17.46,-0.242,0.048,0.044
17.47,-0.227,0.201,-0.052
17.48,-0.248,0.147,-0.025
17.49,-0.236,-0.017,-0.072
17.5,-0.323,0.015,-0.086
17.51,-0.293,-0.02,-0.003
17.52,-0.158,0.045,0.038
17.53,-0.241,0.054,0.085
17.54,-0.181,-0.116,0.028
17.55,-0.117,-0.17,0.007
17.56,-0.165,-0.094,0.042
17.57,-0.188,-0.067,0.06
17.58,-0.33,0.147,0.014
17.59,-0.352,0.244,-0.059
17.6,-0.306,0.093,-0.073
17.61,-0.29,0.169,-0.1
17.62,-0.26,-0.077,-0.039
17.63,-0.21,-0.127,0.05
17.64,-0.168,-0.083,0.053
17.65,-0.213,-0.101,0.09
17.66,-0.154,-0.008,0.083
17.67,-0.143,0.171,0.033
17.68,-0.255,0.005,0.015
17.69,-0.308,0.055,-0.096
17.7,-0.334,0.105,-0.094
17.71,-0.294,-0.005,-0.083
17.72,-0.25,0.204,-0.078
17.73,-0.293,0.063,-0.001
17.74,-0.256,0.006,0.024
17.75,-0.23,0.103,-0.008
17.76,-0.189,-0.137,0.079
17.77,-0.134,-0.075,0.059
17.78,-0.194,-0.063,0.072
17.79,-0.14,-0.064,0.029
17.8,-0.174,0.08,0.011
17.81,-0.23,0.043,-0.034
17.82,-0.216,0.06,-0.079
17.83,-0.362,0.04,-0.039
17.84,-0.376,0.132,-0.032
17.85,-0.28,0.116,-0.026
17.86,-0.305,0.145,-0.044
17.87,-0.261,0.097,0.01
17.88,-0.146,-0.197,-0.001
17.89,-0.042,-0.137,0.024
17.9,-0.1,-0.28,0.074
17.91,-0.187,-0.113,0.181
17.92,-0.191,0.133,0.106
17.93,-0.27,0.155,0.029
17.94,-0.292,0.154,-0.125
17.95,-0.38,0.14,-0.165
17.96,-0.435,-0.062,-0.094
17.97,-0.27,0.009,-0.121
17.98,-0.34,0.025,0.02
17.99,-0.229,0.001,0.031
18.0,-0.056,0.124,0.055
18.01,-0.108,0.046,0.118
18.02,-0.054,-0.097,0.04
18.03,-0.215,-0.11,0.034
18.04,-0.229,-0.154,-0.007
18.05,-0.277,0.0,-0.009
18.06,-0.429,0.167,0.045
18.07,-0.325,0.167,-0.012
18.08,-0.401,0.21,-0.067
18.09,-0.335,0.054,-0.125
18.1,-0.174,-0.07,-0.12
18.11,-0.153,-0.073,-0.033
18.12,-0.133,-0.018,0.08
18.13,-0.096,-0.075,0.119
18.14,-0.056,0.158,0.122
18.15,-0.146,-0.07,0.077
18.16,-0.303,-0.069,0.034
18.17,-0.293,-0.066,-0.023
18.18,-0.365,-0.026,-0.033
18.19,-0.456,0.116,0.003
18.2,-0.375,0.152,-0.106
18.21,-0.275,0.088,-0.1
18.22,-0.099,0.05,-0.113
18.23,-0.097,-0.01,0.016
18.24,-0.121,-0.204,0.082
18.25,-0.084,-0.013,0.034
18.26,-0.159,0.006,0.159
18.27,-0.189,0.042,0.091
18.28,-0.306,0.2,-0.001
18.29,-0.34,0.005,-0.038
18.3,-0.369,0.02,-0.109
18.31,-0.488,0.054,-0.097
18.32,-0.326,-0.056,-0.05
18.33,-0.189,0.133,-0.071
18.34,-0.204,0.152,-0.007
18.35,-0.114,0.02,0.013
18.36,-0.09,0.069,0.047
18.37,-0.108,-0.026,0.066
18.38,-0.103,-0.202,0.063
18.39,-0.248,-0.042,0.085
18.4,-0.28,-0.042,0.042
18.41,-0.364,0.109,0.014
18.42,-0.365,0.087,-0.079
18.43,-0.336,-0.044,-0.081
18.44,-0.376,0.055,-0.047
18.45,-0.237,0.082,-0.05
18.46,-0.193,0.042,-0.011
18.47,-0.158,0.207,-0.063
18.48,-0.055,0.132,-0.042
18.49,-0.06,-0.143,0.015
18.5,-0.121,-0.133,0.052
18.51,-0.215,-0.272,0.167
18.52,-0.317,-0.102,0.179
18.53,-0.33,0.113,0.093
18.54,-0.404,0.108,-0.02
18.55,-0.37,0.14,-0.169
18.56,-0.339,0.082,-0.187
18.57,-0.25,-0.109,-0.117
18.58,-0.161,0.058,-0.097
18.59,-0.19,0.045,0.021
18.6,-0.11,0.123,0.127
18.61,-0.046,0.199,0.064
18.62,-0.203,0.024,0.089
18.63,-0.2,-0.219,0.046
18.64,-0.323,-0.139,0.024
18.65,-0.447,-0.208,-0.006
18.66,-0.393,-0.019,-0.004
18.67,-0.304,0.209,-0.045
18.68,-0.273,0.132,-0.034
18.69,-0.258,0.154,-0.013
18.7,-0.115,0.091,-0.079
18.71,-0.121,-0.06,-0.067
18.72,-0.169,-0.076,-0.022
18.73,-0.183,0.07,0.088
18.74,-0.227,0.007,0.099
18.75,-0.242,0.075,0.065
18.76,-0.232,0.001,-0.04
18.77,-0.326,-0.221,-0.017
18.78,-0.301,-0.01,-0.01
18.79,-0.23,-0.069,0.023
18.8,-0.312,0.127,0.004
18.81,-0.207,0.233,-0.062
18.82,-0.201,0.047,-0.045
18.83,-0.114,0.125,-0.079
18.84,-0.235,-0.011,0.02
18.85,-0.221,-0.177,0.046
18.86,-0.187,-0.016,0.019
18.87,-0.258,-0.0,0.062
18.88,-0.22,-0.041,0.097
18.89,-0.272,0.127,0.039
18.9,-0.281,-0.1,-0.021
18.91,-0.298,0.016,-0.087
18.92,-0.308,0.121,-0.051
18.93,-0.265,0.089,-0.015
18.94,-0.238,0.226,-0.059
18.95,-0.185,0.125,-0.058
18.96,-0.198,0.004,0.016
18.97,-0.213,-0.058,0.027
18.98,-0.178,-0.124,0.018
18.99,-0.192,-0.219,0.102
19.0,-0.238,0.054,0.063
19.01,-0.251,-0.001,0.052
19.02,-0.29,0.027,0.001
19.03,-0.21,0.167,-0.086
19.04,-0.285,-0.033,-0.02
19.05,-0.287,0.062,-0.033
19.06,-0.186,0.107,-0.075
19.07,-0.212,0.107,-0.012
19.08,-0.253,0.208,-0.028
19.09,-0.237,0.033,-0.028
19.1,-0.172,-0.178,0.005
19.11,-0.132,-0.12,-0.028
19.12,-0.293,-0.257,0.187
19.13,-0.21,-0.126,0.154
19.14,-0.212,0.169,0.06
19.15,-0.276,0.146,-0.016
19.16,-0.208,0.1,-0.123
19.17,-0.314,0.15,-0.131
19.18,-0.292,-0.02,-0.085
19.19,-0.272,0.016,-0.039
19.2,-0.367,0.032,0.031
19.21,-0.253,-0.018,0.045
19.22,-0.166,0.104,0.059
19.23,-0.129,-0.031,0.051
19.24,-0.16,-0.238,0.007
19.25,-0.203,-0.129,0.003
19.26,-0.13,-0.03,0.019
19.27,-0.349,0.114,0.09
19.28,-0.277,0.254,-0.005
19.29,-0.314,0.193,-0.05
19.3,-0.372,0.124,-0.077
19.31,-0.224,0.053,-0.104
19.32,-0.288,-0.213,-0.054
19.33,-0.237,-0.084,-0.015
19.34,-0.173,0.04,0.039
19.35,-0.09,-0.022,0.135
19.36,-0.055,0.087,0.012
19.37,-0.177,0.025,0.037
19.38,-0.187,-0.183,0.045
19.39,-0.272,0.03,-0.008
19.4,-0.482,-0.065,0.059
19.41,-0.338,0.097,-0.021
19.42,-0.329,0.216,-0.076
19.43,-0.263,-0.006,-0.103
19.44,-0.144,0.052,-0.066
19.45,-0.172,-0.111,0.023
19.46,-0.099,-0.209,0.057
19.47,-0.084,-0.017,0.099
19.48,-0.13,0.125,0.099
19.49,-0.241,0.091,0.064
19.5,-0.358,0.158,-0.014
19.51,-0.346,0.039,-0.116
19.52,-0.393,-0.023,-0.103
19.53,-0.378,0.049,-0.034
19.54,-0.322,0.01,-0.057
19.55,-0.227,0.097,-0.022
19.56,-0.14,0.11,-0.018
19.57,-0.077,-0.024,0.027
19.58,-0.08,-0.02,0.051
19.59,-0.089,-0.091,0.067
19.6,-0.197,-0.11,0.08
19.61,-0.28,0.071,0.026
19.62,-0.316,0.034,0.029
19.63,-0.281,0.163,-0.052
19.64,-0.344,0.008,-0.062
19.65,-0.402,-0.022,-0.035
19.66,-0.238,-0.097,-0.062
19.67,-0.267,0.149,0.017
19.68,-0.19,-0.002,0.08
19.69,-0.158,0.211,0.004
19.7,-0.059,0.028,-0.054
19.71,-0.069,-0.268,-0.07
19.72,-0.172,-0.144,0.01
19.73,-0.273,-0.193,0.185
19.74,-0.287,0.086,0.157
19.75,-0.322,0.252,0.032
19.76,-0.321,0.152,-0.086
19.77,-0.419,0.023,-0.121
19.78,-0.315,0.061,-0.14
19.79,-0.181,-0.146,-0.05
19.8,-0.231,-0.029,-0.024
19.81,-0.188,0.105,-0.021
19.82,-0.06,0.051,0.053
19.83,-0.095,0.185,0.092
19.84,-0.176,-0.001,0.047
19.85,-0.267,-0.218,0.042
19.86,-0.303,-0.033,-0.007
19.87,-0.388,-0.034,0.037
19.88,-0.396,0.055,0.009
19.89,-0.328,0.194,-0.054
19.9,-0.328,0.021,-0.035
19.91,-0.153,0.064,-0.079
19.92,-0.171,-0.086,-0.048
19.93,-0.153,-0.144,0.012
19.94,-0.134,0.115,0.071
19.95,-0.161,0.107,0.128
19.96,-0.181,0.071,0.043
19.97,-0.244,0.08,-0.052
19.98,-0.342,-0.161,-0.008
19.99,-0.303,-0.122,-0.043
20.0,-0.365,0.008,0.024
20.01,-0.409,-0.032,0.046
20.02,-0.127,0.155,-0.07
20.03,-0.171,0.175,-0.06
20.04,-0.127,-0.044,-0.001
20.05,-0.111,0.028,-0.038
20.06,-0.184,0.0,-0.006
20.07,-0.18,-0.099,0.052
20.08,-0.258,0.083,0.114
20.09,-0.286,0.09,0.104
20.1,-0.342,0.042,-0.016
20.11,-0.299,-0.042,-0.078
20.12,-0.36,-0.018,-0.105
20.13,-0.332,-0.046,-0.052
20.14,-0.215,0.195,-0.037
20.15,-0.134,0.119,-0.039
20.16,-0.164,0.225,-0.028
20.17,-0.15,0.052,0.009
20.18,-0.133,-0.05,0.079
20.19,-0.196,-0.163,0.098
20.2,-0.238,-0.151,0.055
20.21,-0.27,-0.136,0.042
20.22,-0.346,0.128,-0.001
20.23,-0.366,0.157,-0.037
20.24,-0.243,0.002,-0.109
20.25,-0.259,0.062,-0.077
20.26,-0.26,-0.045,-0.002
20.27,-0.174,0.067,-0.03
20.28,-0.172,0.137,0.001
20.29,-0.201,0.175,0.067
20.3,-0.142,0.133,0.003
20.31,-0.185,-0.042,-0.037
20.32,-0.148,-0.358,-0.034
20.33,-0.271,-0.126,0.029
20.34,-0.334,-0.112,0.163
20.35,-0.305,0.01,0.144
20.36,-0.247,0.257,-0.038
20.37,-0.226,0.117,-0.129
20.38,-0.284,0.023,-0.091
20.39,-0.254,0.023,-0.104
20.4,-0.187,-0.038,-0.037
20.41,-0.213,0.016,0.058
20.42,-0.192,0.214,0.075
20.43,-0.173,0.009,0.103
20.44,-0.209,0.007,0.014
20.45,-0.227,-0.081,-0.012
20.46,-0.353,-0.318,0.024
20.47,-0.281,-0.037,-0.015
20.48,-0.335,-0.029,0.008
20.49,-0.222,0.22,-0.024
20.5,-0.202,0.295,-0.053
20.51,-0.258,0.162,-0.001
20.52,-0.099,0.083,-0.106
20.53,-0.221,-0.091,-0.055
20.54,-0.308,-0.189,0.064
20.55,-0.203,0.0,0.026
20.56,-0.288,0.056,0.14
20.57,-0.22,-0.058,0.029
20.58,-0.156,-0.02,-0.095
20.59,-0.247,-0.14,-0.002
20.6,-0.127,-0.122,-0.005
20.61,-0.306,0.158,0.076
20.62,-0.327,0.141,0.068
20.63,-0.188,0.232,-0.078
20.64,-0.269,0.237,-0.082
20.65,-0.226,-0.058,-0.043
20.66,-0.275,-0.117,0.007
20.67,-0.244,-0.22,0.003
20.68,-0.225,-0.223,0.062
20.69,-0.179,-0.048,0.123
20.7,-0.119,0.168,0.078
20.71,-0.191,0.123,0.01
20.72,-0.256,0.12,-0.051
20.73,-0.315,0.048,-0.094
20.74,-0.391,0.042,-0.078
20.75,-0.315,0.131,-0.07
20.76,-0.299,0.071,-0.041
20.77,-0.289,0.124,-0.036
20.78,-0.189,0.015,-0.01
20.79,-0.159,-0.127,0.068
20.8,-0.104,-0.115,0.058
20.81,-0.112,-0.12,0.084
20.82,-0.118,-0.083,0.076
20.83,-0.244,0.176,-0.008
20.84,-0.318,0.107,-0.031
20.85,-0.299,0.017,-0.064
20.86,-0.375,0.079,-0.06
20.87,-0.37,-0.01,-0.02
20.88,-0.246,-0.026,-0.024
20.89,-0.26,0.137,-0.021
20.9,-0.206,0.176,0.011
20.91,-0.113,-0.026,0.013
20.92,-0.088,-0.029,-0.047
20.93,-0.093,-0.284,-0.005
20.94,-0.159,-0.253,0.097
20.95,-0.305,0.035,0.201
20.96,-0.351,-0.01,0.121
20.97,-0.322,0.283,-0.023
20.98,-0.323,0.115,-0.157
20.99,-0.305,0.053,-0.148
21.0,-0.29,0.036,-0.115
21.01,-0.306,-0.053,-0.016
21.02,-0.194,0.033,0.011
21.03,-0.12,0.076,0.036
21.04,-0.164,0.003,0.107
21.05,-0.064,-0.018,0.022
21.06,-0.245,-0.044,0.062
21.07,-0.231,-0.158,-0.005
21.08,-0.293,0.045,-0.04
21.09,-0.369,0.077,0.039
21.1,-0.258,0.15,-0.057
21.11,-0.341,0.203,-0.052
21.12,-0.319,0.014,-0.055
21.13,-0.22,-0.044,-0.134
21.14,-0.232,-0.137,0.003
21.15,-0.187,-0.098,0.062
21.16,-0.136,0.072,0.09
21.17,-0.113,0.173,0.028
21.18,-0.055,-0.029,-0.014
21.19,-0.18,0.097,-0.011
21.2,-0.301,-0.084,0.039
21.21,-0.327,-0.194,0.065
21.22,-0.41,0.16,0.006
21.23,-0.378,0.003,-0.049
21.24,-0.402,0.09,-0.059
21.25,-0.163,0.115,-0.089
21.26,-0.115,-0.056,-0.044
21.27,-0.167,-0.058,0.02
21.28,-0.066,-0.058,0.019
21.29,-0.111,-0.015,0.08
21.3,-0.119,0.159,0.087
21.31,-0.246,0.122,0.119
21.32,-0.382,-0.015,0.017
21.33,-0.376,-0.014,-0.123
21.34,-0.485,-0.14,-0.064
21.35,-0.397,-0.003,-0.05
21.36,-0.254,0.119,-0.064
21.37,-0.162,0.133,-0.021
21.38,-0.064,0.209,-0.04
21.39,-0.091,0.146,0.004
21.4,-0.107,-0.095,0.084
21.41,-0.108,-0.095,0.04
21.42,-0.276,-0.079,0.095
21.43,-0.275,-0.074,0.086
21.44,-0.349,0.049,-0.002
21.45,-0.399,0.028,-0.087
21.46,-0.31,-0.159,-0.067
21.47,-0.258,0.064,0.002
21.48,-0.215,0.089,0.031
21.49,-0.207,0.097,0.014
21.5,-0.184,0.331,-0.027
21.51,-0.157,0.088,-0.051
21.52,-0.156,-0.03,-0.065
21.53,-0.161,-0.18,-0.057
21.54,-0.157,-0.341,0.014
21.55,-0.294,-0.086,0.161
21.56,-0.341,0.111,0.173
21.57,-0.271,0.167,0.088
21.58,-0.232,0.2,-0.099
21.59,-0.23,0.029,-0.172
21.6,-0.219,-0.142,-0.165
21.61,-0.232,-0.02,-0.08
21.62,-0.313,0.03,0.078
21.63,-0.209,0.088,0.058
21.64,-0.179,0.179,0.068
21.65,-0.189,0.052,0.093
21.66,-0.181,-0.006,0.014
21.67,-0.27,-0.177,0.021
21.68,-0.268,-0.219,-0.015
21.69,-0.292,0.002,-0.079
21.7,-0.281,0.104,0.0
21.71,-0.209,0.017,-0.031
21.72,-0.252,0.288,0.002
21.73,-0.261,-0.009,0.015
21.74,-0.221,-0.028,-0.051
21.75,-0.259,0.043,-0.004
21.76,-0.224,-0.016,0.056
21.77,-0.245,0.114,0.047
21.78,-0.169,0.046,-0.029
21.79,-0.167,-0.141,-0.063
21.8,-0.254,-0.126,-0.028
21.81,-0.241,-0.095,0.035
21.82,-0.294,-0.158,0.096
21.83,-0.285,0.201,0.027
21.84,-0.182,0.204,-0.025
21.85,-0.282,0.123,-0.064
21.86,-0.18,0.118,-0.128
21.87,-0.204,-0.004,-0.008
21.88,-0.198,-0.104,-0.002
21.89,-0.217,-0.039,0.039
21.9,-0.295,-0.112,0.135
21.91,-0.203,0.094,0.063
21.92,-0.288,0.044,0.045
21.93,-0.249,-0.085,-0.012
21.94,-0.247,-0.015,-0.099
21.95,-0.334,0.07,-0.023
21.96,-0.232,0.078,-0.043
21.97,-0.173,0.22,-0.055
21.98,-0.241,0.135,-0.011
21.99,-0.196,0.058,-0.001
22.0,-0.26,-0.024,0.073
22.01,-0.28,-0.16,0.061
22.02,-0.273,-0.107,0.033
22.03,-0.242,-0.105,0.06
22.04,-0.164,-0.016,-0.009
22.05,-0.22,0.099,-0.053
22.06,-0.204,0.075,-0.063
22.07,-0.184,-0.027,-0.035
22.08,-0.267,0.152,0.007
22.09,-0.235,0.108,-0.002
22.1,-0.291,0.057,-0.013
22.11,-0.326,0.204,-0.001
22.12,-0.275,0.025,-0.047
22.13,-0.244,-0.175,-0.02
22.14,-0.129,-0.223,-0.057
22.15,-0.126,-0.247,0.091
22.16,-0.182,-0.086,0.199
22.17,-0.167,0.217,0.115
22.18,-0.247,0.174,0.028
22.19,-0.213,0.167,-0.17
22.2,-0.337,0.127,-0.124
22.21,-0.321,-0.129,-0.093
22.22,-0.353,-0.003,-0.055
22.23,-0.375,-0.026,0.069
22.24,-0.175,0.048,0.052
22.25,-0.206,0.181,0.113
22.26,-0.12,-0.007,0.12
22.27,-0.111,-0.141,-0.012
22.28,-0.225,-0.109,-0.03
22.29,-0.146,-0.149,-0.075
22.3,-0.273,0.07,-0.009
22.31,-0.385,0.271,0.029
22.32,-0.316,0.049,0.001
22.33,-0.337,0.247,-0.033
22.34,-0.251,0.002,-0.081
22.35,-0.311,-0.192,-0.051
22.36,-0.223,-0.002,-0.051
22.37,-0.115,-0.038,0.059
22.38,-0.117,0.052,0.098
22.39,-0.059,0.124,0.004
22.4,-0.117,-0.143,0.032
22.41,-0.271,-0.05,0.035
22.42,-0.284,-0.028,0.015
22.43,-0.376,-0.035,0.089
22.44,-0.41,0.178,-0.047
22.45,-0.316,0.232,-0.11
22.46,-0.282,0.02,-0.133
22.47,-0.193,0.094,-0.102
22.48,-0.167,-0.165,0.044
22.49,-0.044,-0.179,0.082
22.5,-0.133,-0.056,0.119
22.51,-0.167,0.005,0.136
22.52,-0.17,0.157,0.095
22.53,-0.31,0.15,0.021
22.54,-0.386,0.002,-0.07
22.55,-0.329,-0.004,-0.134
22.56,-0.422,0.019,-0.076
22.57,-0.344,-0.006,-0.076
22.58,-0.224,0.123,-0.045
22.59,-0.221,0.072,0.006
22.6,-0.147,0.058,0.03
22.61,-0.073,0.003,0.074
22.62,-0.112,-0.059,0.092
22.63,-0.147,-0.088,0.054
22.64,-0.162,-0.004,0.047
22.65,-0.2,0.056,0.004
22.66,-0.382,0.108,-0.06
22.67,-0.333,-0.039,-0.044
22.68,-0.369,-0.005,-0.073
22.69,-0.358,0.072,-0.021
22.7,-0.284,0.089,0.026
22.71,-0.226,0.146,0.026
22.72,-0.111,0.229,-0.027
22.73,-0.04,-0.088,-0.019
22.74,-0.029,-0.207,-0.035
22.75,-0.076,-0.18,-0.008
22.76,-0.251,-0.239,0.199
22.77,-0.321,0.177,0.173
22.78,-0.406,0.192,0.038
22.79,-0.398,0.112,-0.125
22.8,-0.361,0.063,-0.193
22.81,-0.387,-0.051,-0.104
22.82,-0.177,-0.13,-0.079
22.83,-0.164,0.025,-0.022
22.84,-0.159,0.09,0.106
22.85,-0.041,0.112,0.101
22.86,-0.077,0.224,0.099
22.87,-0.173,-0.1,0.086
22.88,-0.282,-0.141,0.002
22.89,-0.355,-0.125,-0.052
22.9,-0.338,-0.174,-0.069
22.91,-0.388,0.137,-0.019
22.92,-0.333,0.208,-0.028
22.93,-0.273,0.107,-0.016
22.94,-0.189,0.177,-0.042
22.95,-0.1,-0.021,-0.063
22.96,-0.133,-0.087,-0.007
22.97,-0.17,-0.022,0.064
22.98,-0.199,0.014,0.119
22.99,-0.199,0.09,0.075
23.0,-0.238,-0.01,-0.007
23.01,-0.279,-0.198,0.008
23.02,-0.296,-0.09,-0.03
23.03,-0.354,-0.068,0.006
23.04,-0.38,-0.039,0.037
23.05,-0.167,0.268,-0.089
23.06,-0.234,0.201,-0.059
23.07,-0.173,0.059,-0.06
23.08,-0.128,0.03,-0.034
23.09,-0.2,-0.119,0.04
23.1,-0.188,-0.111,0.06
23.11,-0.224,0.018,0.125
23.12,-0.224,0.033,0.099
23.13,-0.253,0.077,-0.029
23.14,-0.334,0.009,-0.064
23.15,-0.322,-0.107,-0.051
23.16,-0.295,0.066,-0.064
23.17,-0.295,0.081,-0.019
23.18,-0.204,0.105,-0.077
23.19,-0.2,0.188,-0.049
23.2,-0.201,0.079,0.017
23.21,-0.157,0.035,0.061
23.22,-0.187,-0.023,0.081
23.23,-0.187,-0.167,0.081
23.24,-0.278,-0.127,0.025
23.25,-0.261,0.023,0.044
23.26,-0.237,-0.049,-0.008
23.27,-0.248,0.022,-0.057
23.28,-0.258,0.038,-0.062
23.29,-0.311,0.009,-0.031
23.3,-0.273,0.216,-0.015
23.31,-0.27,0.15,-0.041
23.32,-0.264,0.13,-0.024
23.33,-0.148,0.109,-0.054
23.34,-0.147,-0.135,0.0
23.35,-0.187,-0.255,0.006
23.36,-0.167,-0.198,0.091
23.37,-0.247,-0.156,0.199
23.38,-0.163,0.144,0.09
23.39,-0.291,0.214,-0.005
23.4,-0.281,0.053,-0.104
23.41,-0.258,0.146,-0.204
23.42,-0.324,0.002,-0.11
23.43,-0.264,-0.08,-0.067
23.44,-0.273,0.081,0.051
23.45,-0.254,0.125,0.106
23.46,-0.151,0.151,0.056
23.47,-0.186,-0.003,0.056
23.48,-0.203,-0.118,0.037
23.49,-0.198,-0.263,0.015
23.5,-0.227,-0.104,-0.004
23.51,-0.223,-0.139,0.003
23.52,-0.246,0.235,0.02
23.53,-0.335,0.222,0.032
23.54,-0.392,0.07,0.024
23.55,-0.271,0.202,-0.108
23.56,-0.238,-0.066,-0.16
23.57,-0.267,-0.133,-0.056
23.58,-0.267,0.023,0.016
23.59,-0.201,0.028,0.13
23.6,-0.091,-0.002,0.06
23.61,-0.03,-0.006,0.003
23.62,-0.157,-0.216,0.053
23.63,-0.193,-0.022,0.039
23.64,-0.386,0.055,0.085
23.65,-0.406,0.068,0.019
23.66,-0.325,0.278,-0.176
23.67,-0.343,0.149,-0.143
23.68,-0.204,-0.042,-0.069
23.69,-0.227,0.065,-0.032
23.7,-0.211,-0.231,0.086
23.71,-0.113,-0.097,0.084
23.72,-0.076,0.014,0.092
23.73,-0.118,0.093,0.107
23.74,-0.245,0.126,0.052
23.75,-0.311,0.054,-0.02
23.76,-0.36,-0.064,-0.064
23.77,-0.423,0.006,-0.097
23.78,-0.311,0.082,-0.089
23.79,-0.223,0.067,-0.058
23.8,-0.288,0.181,-0.019
23.81,-0.198,0.058,0.026
23.82,-0.159,-0.012,0.03
23.83,-0.144,-0.103,0.055
23.84,-0.142,-0.137,0.073
23.85,-0.144,-0.06,0.005
23.86,-0.228,0.073,0.025
23.87,-0.259,0.066,0.01
23.88,-0.269,0.144,-0.04
23.89,-0.339,0.023,-0.045
23.9,-0.313,-0.086,-0.019
23.91,-0.233,0.157,-0.119
23.92,-0.304,0.077,-0.021
23.93,-0.286,0.104,0.016
23.94,-0.104,0.143,-0.047
23.95,-0.162,-0.109,0.016
23.96,-0.077,-0.244,0.011
23.97,-0.142,-0.18,0.091
23.98,-0.258,-0.073,0.214
23.99,-0.256,0.113,0.121
24.0,-0.312,0.203,-0.011
24.01,-0.288,0.073,-0.125
24.02,-0.333,-0.001,-0.164
24.03,-0.39,0.077,-0.068
24.04,-0.282,-0.132,-0.04
24.05,-0.256,0.106,-0.017
24.06,-0.121,0.017,0.019
24.07,-0.135,0.075,0.099
24.08,-0.136,0.073,0.12
24.09,-0.168,-0.182,0.043
24.1,-0.247,-0.124,-0.006
24.11,-0.212,-0.07,-0.02
24.12,-0.388,0.044,0.082
24.13,-0.328,0.175,0.006
24.14,-0.334,0.184,-0.092
24.15,-0.308,0.027,-0.088
24.16,-0.167,0.104,-0.197
24.17,-0.179,-0.074,-0.058
24.18,-0.189,-0.117,0.039
24.19,-0.092,0.094,0.09
24.2,-0.19,0.068,0.152
24.21,-0.161,-0.067,0.063
24.22,-0.211,0.085,0.022
24.23,-0.253,-0.122,0.067
24.24,-0.292,-0.06,-0.022
24.25,-0.463,0.035,-0.053
24.26,-0.342,-0.024,-0.052
24.27,-0.229,0.162,-0.088
24.28,-0.137,0.034,-0.013
24.29,-0.197,-0.029,0.011
24.3,-0.212,-0.047,0.049
24.31,-0.094,-0.128,0.07
24.32,-0.199,0.004,0.112
24.33,-0.253,0.092,0.083
24.34,-0.251,0.019,0.026
24.35,-0.328,0.083,-0.07
24.36,-0.364,0.005,-0.145
24.37,-0.382,-0.081,-0.043
24.38,-0.271,0.097,-0.032
24.39,-0.239,0.091,-0.005
24.4,-0.209,0.039,-0.019
24.41,-0.095,0.153,-0.048
24.42,-0.147,0.067,0.068
24.43,-0.147,-0.032,0.062
24.44,-0.205,-0.045,0.04
24.45,-0.266,-0.15,0.038
24.46,-0.192,-0.012,0.031
24.47,-0.341,0.039,-0.004
24.48,-0.341,-0.06,-0.046
24.49,-0.268,0.009,-0.103
24.5,-0.235,0.118,-0.011
24.51,-0.21,0.076,0.012
24.52,-0.232,0.17,-0.003
24.53,-0.221,0.124,0.012
24.54,-0.102,0.006,-0.026
24.55,-0.162,-0.008,-0.021
24.56,-0.214,-0.24,0.055
24.57,-0.265,-0.225,0.088
24.58,-0.302,-0.025,0.126
24.59,-0.244,-0.051,0.09
24.6,-0.287,0.199,-0.039
24.61,-0.283,0.191,-0.11
24.62,-0.226,0.021,-0.161
24.63,-0.224,0.083,-0.128
24.64,-0.221,0.025,-0.07
24.65,-0.256,0.007,0.016
24.66,-0.214,0.087,0.096
24.67,-0.195,0.08,0.126
24.68,-0.251,0.027,0.09
24.69,-0.213,-0.127,0.012
24.7,-0.27,-0.267,0.001
24.71,-0.281,-0.105,-0.033
24.72,-0.329,-0.025,0.013
24.73,-0.253,0.076,0.015
24.74,-0.199,0.337,-0.079
24.75,-0.309,0.168,-0.009
24.76,-0.207,0.054,-0.073
24.77,-0.161,-0.004,-0.111
24.78,-0.294,-0.139,0.034
24.79,-0.213,-0.042,0.087
24.8,-0.208,0.118,0.124
24.81,-0.294,-0.042,0.054
24.82,-0.182,-0.093,-0.049
24.83,-0.182,-0.053,-0.051
24.84,-0.198,-0.205,0.004
24.85,-0.346,0.062,0.062
24.86,-0.314,0.143,0.004
24.87,-0.164,0.175,-0.088
24.88,-0.224,0.16,-0.125
24.89,-0.245,0.106,-0.053
24.9,-0.201,-0.059,0.045
24.91,-0.237,-0.03,0.06
24.92,-0.285,-0.144,0.034
24.93,-0.205,-0.069,0.06
24.94,-0.136,0.02,0.059
24.95,-0.227,0.072,0.066
24.96,-0.23,0.032,-0.057
24.97,-0.371,0.036,-0.07
24.98,-0.319,0.043,-0.075
24.99,-0.212,0.189,-0.081
25.0,-0.306,0.125,-0.02
25.01,-0.272,0.056,-0.04
25.02,-0.202,0.136,0.031
25.03,-0.183,-0.093,0.056
25.04,-0.165,-0.145,0.04
25.05,-0.184,-0.169,0.031
25.06,-0.124,-0.08,0.069
25.07,-0.26,0.021,0.058
25.08,-0.326,0.217,0.017
25.09,-0.238,-0.009,-0.059
25.1,-0.31,0.063,-0.105
25.11,-0.326,0.105,-0.085
25.12,-0.253,-0.033,-0.012
25.13,-0.281,0.202,-0.021
25.14,-0.204,0.187,-0.024
25.15,-0.138,-0.012,-0.03
25.16,-0.163,-0.062,-0.008
25.17,-0.101,-0.301,0.046
25.18,-0.118,-0.248,0.12
25.19,-0.223,0.029,0.168
25.2,-0.315,0.05,0.135
25.21,-0.322,0.195,-0.02
25.22,-0.281,0.187,-0.157
25.23,-0.335,0.01,-0.15
25.24,-0.302,-0.006,-0.16
25.25,-0.261,0.06,-0.025
25.26,-0.283,-0.006,0.033
25.27,-0.205,0.169,0.083
25.28,-0.135,0.029,0.1
25.29,-0.098,-0.116,0.061
25.3,-0.154,-0.109,0.054
25.31,-0.258,-0.224,0.047
25.32,-0.239,-0.048,-0.01
25.33,-0.329,0.162,0.005
25.34,-0.319,0.164,0.008
25.35,-0.31,0.238,-0.084
25.36,-0.351,0.133,-0.084
25.37,-0.243,-0.09,-0.119
25.38,-0.254,-0.017,-0.087
25.39,-0.26,-0.134,0.022
25.4,-0.112,-0.04,0.108
25.41,-0.076,0.12,0.127
25.42,-0.122,0.009,0.083
25.43,-0.115,-0.054,-0.004
25.44,-0.22,-0.029,0.007
25.45,-0.289,-0.06,0.014
25.46,-0.426,0.058,0.022
25.47,-0.435,0.136,-0.044
25.48,-0.337,0.073,-0.134
25.49,-0.329,0.087,-0.082
25.5,-0.175,0.006,-0.048
25.51,-0.145,-0.121,0.052
25.52,-0.027,-0.095,0.006
25.53,-0.043,0.033,0.072
25.54,-0.151,-0.016,0.138
25.55,-0.18,0.231,0.108
25.56,-0.309,0.019,0.037
25.57,-0.451,-0.022,-0.097
25.58,-0.47,-0.041,-0.093
25.59,-0.428,-0.048,-0.06
25.6,-0.303,0.13,-0.057
25.61,-0.234,0.113,-0.038
25.62,-0.076,0.052,-0.04
25.63,-0.046,0.116,-0.059
25.64,-0.063,-0.001,0.02
25.65,-0.085,-0.133,0.11
25.66,-0.175,0.002,0.08
25.67,-0.312,-0.072,0.103
25.68,-0.36,0.021,0.067
25.69,-0.36,0.106,-0.04
25.7,-0.32,-0.058,-0.107
25.71,-0.346,-0.073,-0.075
25.72,-0.252,0.102,-0.066
25.73,-0.122,0.048,-0.021
25.74,-0.194,0.218,-0.029
25.75,-0.157,0.259,-0.015
25.76,-0.061,-0.009,-0.053
25.77,-0.153,-0.111,-0.018
25.78,-0.19,-0.291,0.066
25.79,-0.292,-0.294,0.156
25.8,-0.344,0.055,0.175
25.81,-0.271,0.104,0.108
25.82,-0.306,0.163,-0.059
25.83,-0.329,0.186,-0.145
25.84,-0.302,-0.08,-0.108
25.85,-0.214,-0.015,-0.132
25.86,-0.23,-0.019,-0.102
25.87,-0.228,-0.005,0.022
25.88,-0.134,0.209,0.101
25.89,-0.191,0.062,0.126
25.9,-0.155,-0.081,0.01
25.91,-0.261,-0.127,0.006
25.92,-0.264,-0.24,0.056
25.93,-0.278,0.02,-0.002
25.94,-0.376,0.152,-0.013
25.95,-0.291,0.078,-0.04
25.96,-0.262,0.198,-0.099
25.97,-0.246,0.051,-0.088
25.98,-0.149,-0.08,-0.102
25.99,-0.209,0.002,0.021
26.0,-0.17,0.077,0.076
26.01,-0.153,0.101,0.125
26.02,-0.203,0.171,0.1
26.03,-0.121,-0.11,-0.042
26.04,-0.297,-0.171,-0.066
26.05,-0.356,-0.228,0.033
26.06,-0.318,-0.151,0.052
26.07,-0.411,0.065,0.069
26.08,-0.173,0.195,-0.072
26.09,-0.181,0.185,-0.083
26.1,-0.217,0.154,-0.072
26.11,-0.154,0.013,-0.024
26.12,-0.186,-0.134,0.014
26.13,-0.147,0.002,-0.055
26.14,-0.277,-0.086,0.143
26.15,-0.285,0.127,0.099
26.16,-0.3,0.085,0.066
26.17,-0.315,-0.1,-0.014
26.18,-0.199,-0.036,-0.132
26.19,-0.317,-0.025,-0.052
26.2,-0.313,0.056,0.009
26.21,-0.189,0.238,-0.075
26.22,-0.201,0.214,-0.069
26.23,-0.2,0.081,-0.018
26.24,-0.159,0.087,0.052
26.25,-0.234,-0.148,0.105
26.26,-0.251,-0.185,0.034
26.27,-0.199,-0.119,0.037
26.28,-0.234,-0.066,0.04
26.29,-0.256,0.146,0.005
26.3,-0.25,0.128,-0.049
26.31,-0.244,-0.114,-0.054
26.32,-0.268,0.178,-0.074
26.33,-0.223,0.007,-0.019
26.34,-0.252,0.096,0.03
26.35,-0.308,0.186,0.023
26.36,-0.22,0.075,-0.022
26.37,-0.16,-0.059,-0.071
26.38,-0.216,-0.2,-0.028
26.39,-0.243,-0.256,0.076
26.4,-0.161,-0.136,0.147
26.41,-0.21,0.091,0.096
26.42,-0.278,0.067,0.052
26.43,-0.195,0.197,-0.112
26.44,-0.255,0.139,-0.12
26.45,-0.294,-0.028,-0.095
26.46,-0.296,0.026,-0.131
26.47,-0.367,0.043,0.022
26.48,-0.21,0.073,0.063
26.49,-0.212,0.142,0.066
26.5,-0.244,-0.027,0.069
26.51,-0.111,-0.167,-0.001
26.52,-0.162,-0.105,0.028
26.53,-0.201,-0.176,0.045
26.54,-0.301,0.034,0.012
26.55,-0.291,0.17,-0.026
26.56,-0.245,0.178,-0.041
26.57,-0.398,0.201,-0.019
26.58,-0.235,0.102,-0.08
26.59,-0.264,-0.169,-0.073
26.6,-0.309,-0.055,-0.043
26.61,-0.214,-0.003,0.076
26.62,-0.192,-0.059,0.128
26.63,-0.073,0.131,0.035
26.64,-0.11,-0.126,-0.023
26.65,-0.229,-0.098,0.013
26.66,-0.202,-0.003,-0.004
26.67,-0.323,-0.025,0.083
26.68,-0.338,0.202,0.028
26.69,-0.283,0.232,-0.101
26.7,-0.302,0.046,-0.075
26.71,-0.185,0.098,-0.166
26.72,-0.248,-0.107,0.011
26.73,-0.19,-0.207,0.033
26.74,-0.07,-0.041,0.037
26.75,-0.241,-0.018,0.147
26.76,-0.129,0.099,0.116
26.77,-0.209,0.194,0.045
26.78,-0.288,0.04,-0.019
26.79,-0.321,0.005,-0.121
26.8,-0.371,0.006,-0.082
26.81,-0.322,0.086,-0.043
26.82,-0.291,0.08,-0.051
26.83,-0.287,0.101,-0.004
26.84,-0.183,0.015,-0.009
26.85,-0.097,-0.041,0.057
26.86,-0.131,-0.12,0.086
26.87,-0.202,-0.163,0.119
26.88,-0.167,0.006,0.075
26.89,-0.226,0.039,0.03
26.9,-0.283,0.124,-0.062
26.91,-0.31,0.073,-0.105
26.92,-0.382,-0.008,-0.044
26.93,-0.304,0.027,-0.076
26.94,-0.304,0.086,-0.031
26.95,-0.261,0.015,0.018
26.96,-0.144,0.216,0.008
26.97,-0.102,0.098,-0.006
26.98,-0.066,-0.167,-0.067
26.99,-0.08,-0.176,-0.023
27.0,-0.236,-0.278,0.152
27.01,-0.272,-0.045,0.2
27.02,-0.359,0.207,0.153
27.03,-0.349,0.183,-0.008
27.04,-0.338,0.146,-0.162
27.05,-0.354,0.051,-0.215
27.06,-0.232,-0.104,-0.122
27.07,-0.225,-0.019,-0.042
27.08,-0.171,0.074,0.029
27.09,-0.116,-0.069,0.085
27.1,-0.092,0.226,0.101
27.11,-0.118,-0.052,0.126
27.12,-0.3,-0.156,0.079
27.13,-0.358,-0.131,-0.03
27.14,-0.308,-0.087,-0.028
27.15,-0.403,0.069,0.009
27.16,-0.304,0.245,-0.059
27.17,-0.316,0.062,-0.022
27.18,-0.192,0.136,-0.112
27.19,-0.165,-0.015,-0.097
27.2,-0.191,-0.236,0.024
27.21,-0.129,0.105,0.044
27.22,-0.229,0.094,0.092
27.23,-0.208,0.03,0.088
27.24,-0.108,0.145,-0.04
27.25,-0.234,-0.101,-0.024
27.26,-0.262,-0.148,0.025
27.27,-0.291,-0.047,-0.01
27.28,-0.425,-0.062,0.062
27.29,-0.34,0.176,-0.026
27.3,-0.273,0.149,-0.059
27.31,-0.2,0.044,-0.05
27.32,-0.134,0.01,-0.078
27.33,-0.213,-0.086,0.013
27.34,-0.086,-0.147,0.01
27.35,-0.176,0.033,0.108
27.36,-0.159,0.081,0.143
27.37,-0.217,0.12,0.049
27.38,-0.336,0.056,-0.072
27.39,-0.399,-0.07,-0.08
27.4,-0.46,-0.035,-0.055
27.41,-0.396,0.064,-0.021
27.42,-0.246,0.046,-0.058
27.43,-0.122,0.169,-0.116
27.44,-0.104,0.199,-0.065
27.45,-0.098,0.042,0.063
27.46,-0.066,-0.017,0.088
27.47,-0.179,-0.156,0.078
27.48,-0.266,-0.158,0.069
27.49,-0.229,0.015,0.008
27.5,-0.356,0.057,0.04
27.51,-0.385,0.048,-0.045
27.52,-0.29,-0.006,-0.064
27.53,-0.258,-0.04,-0.058
27.54,-0.207,0.061,-0.055
27.55,-0.141,0.219,-0.029
27.56,-0.23,0.133,0.045
27.57,-0.219,0.2,-0.011
27.58,-0.09,0.031,-0.065
27.59,-0.168,-0.26,-0.015
27.6,-0.213,-0.281,0.068
27.61,-0.297,-0.204,0.192
27.62,-0.296,-0.054,0.163
27.63,-0.296,0.165,0.051
27.64,-0.222,0.206,-0.048
27.65,-0.325,0.08,-0.151
27.66,-0.297,0.065,-0.149
27.67,-0.216,-0.089,-0.098
27.68,-0.218,0.017,-0.034
27.69,-0.231,0.116,0.102
27.7,-0.161,0.056,0.132
27.71,-0.155,0.106,0.088
27.72,-0.27,-0.132,0.031
27.73,-0.282,-0.226,0.014
27.74,-0.214,-0.059,-0.023
27.75,-0.308,-0.091,0.028
27.76,-0.291,0.146,-0.044
27.77,-0.257,0.19,-0.065
27.78,-0.314,0.072,-0.015
27.79,-0.177,0.153,-0.121
27.8,-0.231,0.017,-0.045
27.81,-0.261,-0.066,-0.005
27.82,-0.213,0.157,0.047
27.83,-0.211,-0.021,0.099
27.84,-0.099,0.02,0.03
27.85,-0.168,-0.114,-0.007
27.86,-0.224,-0.289,0.079
27.87,-0.183,-0.059,0.047
27.88,-0.384,0.014,0.074
27.89,-0.368,0.097,0.017
27.9,-0.225,0.228,-0.166
27.91,-0.302,0.272,-0.141
27.92,-0.201,-0.013,-0.083
27.93,-0.22,0.046,-0.021
27.94,-0.153,-0.072,-0.013
27.95,-0.107,-0.208,0.089
27.96,-0.203,-0.017,0.139
27.97,-0.166,0.018,0.135
27.98,-0.267,0.008,0.041
27.99,-0.316,0.067,-0.058
28.0,-0.327,0.045,-0.075
28.01,-0.405,0.08,-0.082
28.02,-0.3,0.156,-0.078
28.03,-0.147,0.09,-0.062
28.04,-0.196,0.113,-0.04
28.05,-0.249,0.05,-0.006
28.06,-0.182,-0.094,0.077
28.07,-0.162,-0.012,0.05
28.08,-0.213,-0.073,0.083
28.09,-0.2,-0.165,0.048
28.1,-0.209,0.115,0.016
28.11,-0.243,-0.047,0.028
28.12,-0.219,-0.009,-0.034
28.13,-0.297,0.1,-0.044
28.14,-0.304,-0.014,0.01
28.15,-0.25,0.196,-0.042
28.16,-0.342,0.181,-0.045
28.17,-0.306,0.045,-0.034
28.18,-0.18,0.104,-0.102
28.19,-0.174,-0.092,-0.049
28.2,-0.021,-0.309,-0.025
28.21,-0.127,-0.168,0.135
28.22,-0.205,-0.02,0.225
28.23,-0.191,0.091,0.186
28.24,-0.252,0.233,-0.017
28.25,-0.286,0.105,-0.136
28.26,-0.331,0.03,-0.175
28.27,-0.426,0.012,-0.122
28.28,-0.371,-0.105,-0.067
28.29,-0.274,0.1,-0.01
28.3,-0.19,0.043,0.08
28.31,-0.1,0.029,0.097
28.32,-0.057,0.121,0.044
28.33,-0.155,-0.175,0.07
28.34,-0.211,-0.108,0.013
28.35,-0.229,-0.065,0.01
28.36,-0.351,-0.044,0.071
28.37,-0.304,0.23,-0.015
28.38,-0.383,0.113,-0.03
28.39,-0.402,0.072,-0.063
28.4,-0.215,-0.011,-0.135
28.41,-0.301,0.009,-0.078
28.42,-0.181,-0.138,0.0
28.43,-0.103,0.11,0.03
28.44,-0.093,0.095,0.1
28.45,-0.061,-0.07,0.024
28.46,-0.162,0.009,0.018
28.47,-0.236,-0.168,0.075
28.48,-0.295,-0.01,0.056
28.49,-0.461,0.094,0.062
28.5,-0.384,0.065,-0.064
28.51,-0.318,0.134,-0.156
28.52,-0.274,0.115,-0.144
28.53,-0.121,-0.111,-0.068
28.54,-0.134,-0.066,-0.002
28.55,-0.079,-0.036,0.038
28.56,-0.121,-0.08,0.137
28.57,-0.2,0.134,0.139
28.58,-0.227,0.117,0.078
28.59,-0.279,0.03,-0.009
28.6,-0.336,0.028,-0.09
28.61,-0.439,-0.067,-0.086
28.62,-0.354,-0.02,-0.065
28.63,-0.258,0.171,-0.074
28.64,-0.205,0.038,-0.033
28.65,-0.112,0.16,-0.019
28.66,-0.17,0.101,0.06
28.67,-0.175,-0.079,0.078
28.68,-0.138,-0.094,0.03
28.69,-0.251,-0.145,0.065
28.7,-0.206,-0.029,0.03
28.71,-0.3,0.114,0.009
28.72,-0.335,0.017,0.002
28.73,-0.292,0.02,-0.072
28.74,-0.316,0.026,-0.038
28.75,-0.275,-0.061,-0.008
28.76,-0.145,0.135,-0.032
28.77,-0.249,0.24,-0.03
28.78,-0.244,0.137,-0.037
28.79,-0.073,0.005,-0.09
28.8,-0.116,-0.114,-0.051
28.81,-0.155,-0.353,0.086
28.82,-0.278,-0.08,0.221
28.83,-0.346,-0.04,0.23
28.84,-0.322,0.192,0.01
28.85,-0.307,0.129,-0.071
28.86,-0.301,0.047,-0.126
28.87,-0.235,-0.041,-0.142
28.88,-0.288,-0.01,-0.104
28.89,-0.185,-0.063,-0.006
28.9,-0.106,0.13,0.008
28.91,-0.146,0.228,0.122
28.92,-0.158,0.061,0.115
28.93,-0.225,0.048,-0.02
28.94,-0.331,-0.233,-0.001
28.95,-0.35,-0.189,-0.022
28.96,-0.328,-0.032,0.02
28.97,-0.35,0.022,0.052
28.98,-0.153,0.14,-0.065
28.99,-0.143,0.203,-0.055
29.0,-0.212,0.069,-0.016
29.01,-0.16,-0.005,-0.035
29.02,-0.205,-0.333,0.128
29.03,-0.233,0.032,0.159
29.04,-0.198,0.141,0.062
29.05,-0.26,0.173,-0.063
29.06,-0.333,0.206,-0.145
29.07,-0.294,-0.018,-0.125
29.08,-0.259,0.035,-0.144
29.09,-0.318,0.038,-0.015
29.1,-0.25,-0.081,0.074
29.11,-0.182,0.169,-0.0
29.12,-0.18,0.083,0.093
29.13,-0.141,-0.073,0.083
29.14,-0.194,-0.078,0.015
29.15,-0.233,-0.199,-0.005
29.16,-0.19,-0.143,-0.031
29.17,-0.302,0.143,0.027
29.18,-0.267,0.163,-0.008
29.19,-0.339,0.209,0.023
29.2,-0.335,0.221,-0.052
29.21,-0.224,-0.021,-0.102
29.22,-0.272,-0.062,-0.114
29.23,-0.226,-0.083,-0.019
29.24,-0.193,-0.08,0.088
29.25,-0.126,0.042,0.123
29.26,-0.077,-0.076,0.069
29.27,-0.154,-0.097,0.046
29.28,-0.238,-0.085,0.073
29.29,-0.308,-0.055,0.081
29.3,-0.431,0.113,0.023
29.31,-0.36,0.201,-0.077
29.32,-0.308,0.146,-0.132
29.33,-0.232,0.087,-0.194
29.34,-0.186,0.0,-0.096
29.35,-0.156,-0.177,0.047
29.36,-0.085,-0.082,0.076
29.37,-0.163,-0.086,0.133
29.38,-0.149,-0.008,0.121
29.39,-0.15,0.168,0.037
29.4,-0.328,0.023,0.04
29.41,-0.312,0.049,-0.085
29.42,-0.383,0.078,-0.126
29.43,-0.444,0.043,-0.057
29.44,-0.254,0.134,-0.113
29.45,-0.263,0.063,-0.054
29.46,-0.22,0.052,-0.008
29.47,-0.14,0.071,0.029
29.48,-0.164,-0.072,0.089
29.49,-0.056,-0.16,0.059
29.5,-0.141,-0.063,0.064
29.51,-0.189,-0.081,0.087
29.52,-0.25,0.035,0.002
29.53,-0.365,0.152,0.011
29.54,-0.318,0.018,-0.05
29.55,-0.388,0.028,-0.046
29.56,-0.395,0.059,-0.057
29.57,-0.252,-0.011,-0.049
29.58,-0.227,0.148,-0.036
29.59,-0.187,0.166,-0.042
29.6,-0.073,-0.076,-0.03
29.61,-0.023,-0.034,-0.052
29.62,-0.06,-0.207,0.074
29.63,-0.195,-0.258,0.179
29.64,-0.284,0.123,0.178
29.65,-0.348,0.035,0.131
29.66,-0.346,0.204,-0.049
29.67,-0.387,0.134,-0.201
29.68,-0.427,-0.085,-0.141
29.69,-0.269,0.003,-0.132
29.7,-0.208,0.03,-0.035
29.71,-0.157,-0.012,0.083
29.72,-0.079,0.19,0.048
29.73,-0.079,0.096,0.076
29.74,-0.09,-0.02,0.067
29.75,-0.213,-0.138,0.026
29.76,-0.319,-0.156,0.015
29.77,-0.316,-0.104,0.007
29.78,-0.418,0.109,0.012
29.79,-0.397,0.166,-0.009
29.8,-0.355,0.036,-0.047
29.81,-0.263,0.195,-0.071
29.82,-0.151,-0.148,-0.082
29.83,-0.167,-0.035,-0.027
29.84,-0.175,0.029,-0.014
29.85,-0.071,-0.035,0.067
29.86,-0.121,0.218,0.093
29.87,-0.198,0.055,0.062
29.88,-0.235,-0.111,0.014
29.89,-0.279,-0.049,-0.044
29.9,-0.396,-0.135,0.021
29.91,-0.448,-0.021,0.038
29.92,-0.31,0.177,-0.073
29.93,-0.214,0.093,-0.089
29.94,-0.144,0.11,-0.091
29.95,-0.14,0.065,-0.009
29.96,-0.133,-0.128,0.07
29.97,-0.115,-0.04,0.01
29.98,-0.167,0.043,0.053
29.99,-0.222,-0.042,0.11
30.0,-0.292,0.154,0.067
30.01,-0.396,-0.049,0.006
30.02,-0.395,-0.119,-0.093
30.03,-0.347,-0.044,-0.084
30.04,-0.243,0.118,-0.073
30.05,-0.204,0.136,-0.051
30.06,-0.188,0.262,-0.015
30.07,-0.115,0.128,-0.009
30.08,-0.174,0.101,0.007
30.09,-0.2,-0.137,0.053
30.1,-0.198,-0.224,0.059
30.11,-0.255,-0.099,0.063
30.12,-0.278,-0.062,0.041
30.13,-0.34,0.045,0.032
30.14,-0.25,0.129,-0.046
30.15,-0.198,-0.02,-0.073
30.16,-0.286,-0.011,-0.049
30.17,-0.192,0.152,-0.02
30.18,-0.222,0.125,0.006
30.19,-0.26,0.181,-0.032
30.2,-0.204,0.165,-0.075
30.21,-0.155,-0.121,-0.001
30.22,-0.146,-0.171,0.0
30.23,-0.26,-0.126,0.053
30.24,-0.323,-0.325,0.203
30.25,-0.22,0.133,0.092
30.26,-0.263,0.064,0.014
30.27,-0.23,0.078,-0.057
30.28,-0.225,0.17,-0.138
30.29,-0.363,-0.011,0.003
30.3,-0.212,-0.015,-0.076
30.31,-0.234,-0.032,-0.063
30.32,-0.234,0.104,0.048
30.33,-0.14,0.162,0.076
30.34,-0.307,0.134,0.091
30.35,-0.193,-0.221,-0.033
30.36,-0.225,-0.147,-0.072
30.37,-0.284,-0.2,0.052
30.38,-0.225,-0.115,0.046
30.39,-0.271,0.214,0.032
30.4,-0.174,0.276,-0.022
30.41,-0.24,0.2,-0.048
30.42,-0.319,0.217,-0.038
30.43,-0.176,-0.08,-0.09
30.44,-0.228,-0.102,-0.076
30.45,-0.286,-0.035,-0.016
30.46,-0.273,-0.151,0.135
30.47,-0.187,0.135,0.109
30.48,-0.152,0.003,0.049
30.49,-0.123,-0.21,-0.032
30.5,-0.214,-0.029,-0.034
30.51,-0.237,-0.026,0.029
30.52,-0.361,0.023,0.074
30.53,-0.263,0.322,-0.018
30.54,-0.214,0.106,-0.089
30.55,-0.332,0.15,-0.048
30.56,-0.235,-0.036,-0.012
30.57,-0.289,-0.22,0.006
30.58,-0.227,-0.204,0.004
30.59,-0.16,-0.105,0.033
30.6,-0.194,0.01,0.132
30.61,-0.165,0.198,0.069
30.62,-0.188,0.169,-0.025
30.63,-0.272,0.002,-0.078
30.64,-0.343,0.058,-0.085
30.65,-0.362,0.048,-0.029
30.66,-0.328,0.043,-0.035
30.67,-0.269,0.127,-0.052
30.68,-0.243,0.068,-0.033
30.69,-0.21,0.01,0.037
30.7,-0.157,-0.022,0.095
30.71,-0.069,-0.212,0.056
30.72,-0.079,-0.109,0.023
30.73,-0.209,0.032,0.028
30.74,-0.245,0.057,0.014
30.75,-0.255,0.198,-0.053
30.76,-0.378,0.092,-0.048
30.77,-0.372,-0.015,-0.041
30.78,-0.338,0.069,-0.04
30.79,-0.34,-0.06,0.016
30.8,-0.229,0.082,0.042
30.81,-0.144,0.108,0.017
30.82,-0.127,-0.073,0.035
30.83,-0.043,-0.172,-0.022
30.84,-0.083,-0.153,-0.008
30.85,-0.238,-0.178,0.117
30.86,-0.244,0.138,0.038
30.87,-0.377,0.237,0.031
30.88,-0.311,0.106,-0.079
30.89,-0.369,0.171,-0.094
30.9,-0.37,-0.045,-0.07
30.91,-0.229,-0.101,-0.069
30.92,-0.271,0.015,0.007
30.93,-0.158,0.009,0.061
30.94,-0.127,0.063,0.093
30.95,-0.124,0.104,0.031
30.96,-0.049,-0.075,-0.025
30.97,-0.224,-0.1,-0.008
30.98,-0.343,-0.055,0.004
30.99,-0.37,-0.039,0.064
31.0,-0.358,0.186,0.023
31.01,-0.315,0.181,-0.047
31.02,-0.386,0.019,-0.06
31.03,-0.222,0.093,-0.112
31.04,-0.129,-0.149,-0.032
31.05,-0.154,-0.132,0.022
31.06,-0.19,0.048,0.089
31.07,-0.156,-0.05,0.127
31.08,-0.09,0.138,0.032
31.09,-0.18,0.062,-0.012
31.1,-0.36,-0.107,0.025
31.11,-0.309,0.04,-0.077
31.12,-0.352,-0.033,-0.015
31.13,-0.395,-0.005,-0.044
31.14,-0.263,0.212,-0.096
31.15,-0.266,0.003,-0.009
31.16,-0.108,0.053,-0.035
31.17,-0.077,0.047,0.038
31.18,-0.149,-0.164,0.074
31.19,-0.17,-0.025,0.042
31.2,-0.183,-0.027,0.104
31.21,-0.178,0.122,0.089
31.22,-0.305,0.13,-0.039
31.23,-0.439,-0.014,-0.06
31.24,-0.374,-0.075,-0.115
31.25,-0.345,0.089,-0.073
31.26,-0.34,0.013,-0.03
31.27,-0.179,0.038,-0.039
31.28,-0.156,0.184,-0.019
31.29,-0.104,0.111,0.06
31.3,-0.052,0.027,0.071
31.31,-0.113,-0.118,0.063
31.32,-0.231,-0.158,0.061
31.33,-0.259,-0.093,0.064
31.34,-0.357,0.057,0.04
31.35,-0.46,0.064,-0.033
31.36,-0.347,0.034,-0.12
31.37,-0.3,0.055,-0.104
31.38,-0.269,-0.052,-0.039
31.39,-0.109,0.124,-0.023
31.4,-0.17,0.126,0.034
31.41,-0.138,0.164,0.02
31.42,-0.047,0.109,-0.025
31.43,-0.162,-0.151,0.027
31.44,-0.179,-0.167,0.008
31.45,-0.37,-0.186,0.153
31.46,-0.362,-0.129,0.14
31.47,-0.312,0.09,-0.026
31.48,-0.353,0.15,-0.071
31.49,-0.196,0.104,-0.132
31.5,-0.223,0.091,-0.113
31.51,-0.213,0.102,-0.076
31.52,-0.121,-0.063,-0.079
31.53,-0.222,0.049,0.066
31.54,-0.152,0.103,0.111
31.55,-0.228,0.021,0.148
31.56,-0.275,0.013,0.115
31.57,-0.225,-0.24,-0.02
31.58,-0.386,-0.153,-0.047
31.59,-0.277,-0.063,-0.062
31.6,-0.305,-0.033,0.039
31.61,-0.199,0.274,-0.075
31.62,-0.172,0.212,-0.085
31.63,-0.315,0.089,-0.009
31.64,-0.153,0.117,-0.079
31.65,-0.205,-0.15,-0.011
31.66,-0.266,-0.097,0.057
31.67,-0.202,0.147,0.076
31.68,-0.237,-0.018,0.14
31.69,-0.197,0.063,-0.046
31.7,-0.17,-0.074,-0.078
31.71,-0.264,-0.248,0.019
31.72,-0.214,-0.074,-0.024
31.73,-0.341,0.055,0.033
31.74,-0.334,0.072,0.022
31.75,-0.265,0.291,-0.063
31.76,-0.231,0.178,-0.068
31.77,-0.169,0.039,-0.044
31.78,-0.16,-0.057,-0.025
31.79,-0.16,-0.146,0.025
31.8,-0.17,-0.147,0.043
31.81,-0.243,0.042,0.155
31.82,-0.252,0.077,0.104
31.83,-0.243,0.07,-0.01
31.84,-0.364,-0.055,-0.06
31.85,-0.335,-0.013,-0.093
31.86,-0.333,0.099,-0.056
31.87,-0.303,0.129,-0.019
31.88,-0.205,0.139,-0.09
31.89,-0.113,0.195,-0.093
31.9,-0.174,0.032,0.019
31.91,-0.204,-0.107,0.093
31.92,-0.184,-0.083,0.112
31.93,-0.162,-0.25,0.086
31.94,-0.221,0.01,-0.01
31.95,-0.318,0.12,0.004
31.96,-0.258,0.054,-0.029
31.97,-0.306,0.152,-0.066
31.98,-0.275,0.062,-0.062
31.99,-0.188,-0.018,-0.058
32.0,-0.268,0.168,-0.022
32.01,-0.224,0.122,0.047
32.02,-0.24,0.113,0.021
32.03,-0.209,-0.008,-0.022
32.04,-0.154,-0.296,-0.03
32.05,-0.143,-0.248,0.047
32.06,-0.215,-0.135,0.158
32.07,-0.184,-0.03,0.142
32.08,-0.281,0.266,0.048
32.09,-0.255,0.169,-0.111
32.1,-0.311,0.135,-0.144
32.11,-0.337,0.078,-0.133
32.12,-0.318,-0.03,-0.072
32.13,-0.369,-0.033,0.011
32.14,-0.237,0.064,0.005
32.15,-0.2,0.029,0.109
32.16,-0.07,-0.007,0.104
32.17,-0.089,-0.08,0.022
32.18,-0.2,-0.261,0.076
32.19,-0.108,-0.031,-0.085
32.2,-0.3,0.033,-0.0
32.21,-0.374,0.099,0.052
32.22,-0.334,0.326,-0.067
32.23,-0.484,0.174,-0.024
32.24,-0.26,-0.01,-0.103
32.25,-0.201,-0.01,-0.133
32.26,-0.272,-0.181,0.025
32.27,-0.135,-0.086,0.117
32.28,-0.095,0.126,0.123
32.29,-0.021,0.002,0.031
32.3,-0.073,0.026,-0.038
32.31,-0.297,-0.031,0.043
32.32,-0.275,-0.134,0.047
32.33,-0.46,0.047,0.042
32.34,-0.464,-0.004,-0.005
32.35,-0.229,0.167,-0.115
32.36,-0.333,0.213,-0.086
32.37,-0.225,0.037,-0.023
32.38,-0.125,-0.049,-0.047
32.39,-0.031,-0.096,-0.012
32.4,-0.091,-0.19,0.092
32.41,-0.166,0.005,0.131
32.42,-0.189,0.147,0.115
32.43,-0.271,0.027,0.048
32.44,-0.348,0.127,-0.093
32.45,-0.382,-0.006,-0.123
32.46,-0.451,-0.063,-0.048
32.47,-0.339,0.184,-0.095
32.48,-0.254,0.061,-0.045
32.49,-0.194,0.088,-0.017
32.5,-0.094,0.159,-0.015
32.51,-0.084,-0.058,0.1
32.52,-0.114,-0.109,0.098
32.53,-0.153,-0.119,0.044
32.54,-0.186,-0.106,0.032
32.55,-0.275,0.122,0.059
32.56,-0.375,0.173,-0.012
32.57,-0.276,-0.059,-0.078
32.58,-0.343,0.052,-0.118
32.59,-0.333,-0.029,-0.029
32.6,-0.255,0.025,0.005
32.61,-0.238,0.09,0.044
32.62,-0.217,0.21,0.037
32.63,-0.098,0.057,-0.024
32.64,-0.102,-0.036,-0.039
32.65,-0.077,-0.264,-0.03
32.66,-0.172,-0.268,0.059
32.67,-0.285,-0.01,0.183
32.68,-0.302,0.08,0.133
32.69,-0.289,0.255,-0.066
32.7,-0.342,0.171,-0.124
32.71,-0.411,-0.006,-0.115
32.72,-0.315,-0.016,-0.106
32.73,-0.225,-0.137,-0.053
32.74,-0.194,-0.049,0.035
32.75,-0.098,0.148,0.051
32.76,-0.13,0.111,0.158
32.77,-0.099,0.075,0.104
32.78,-0.14,0.022,-0.043
32.79,-0.326,-0.202,0.024
32.8,-0.281,-0.117,-0.052
32.81,-0.44,0.058,-0.041
32.82,-0.406,0.02,0.013
32.83,-0.276,0.15,-0.047
32.84,-0.295,0.141,0.01
32.85,-0.128,-0.045,-0.057
32.86,-0.104,-0.013,-0.018
32.87,-0.208,-0.046,0.051
32.88,-0.137,0.011,0.065
32.89,-0.192,0.177,0.107
32.9,-0.208,0.012,0.001
32.91,-0.232,-0.061,-0.064
32.92,-0.388,-0.149,-0.048
32.93,-0.283,-0.213,-0.004
32.94,-0.374,0.047,0.07
32.95,-0.268,0.148,0.055
32.96,-0.17,0.149,-0.089
32.97,-0.181,0.213,-0.081
32.98,-0.119,0.047,-0.055
32.99,-0.133,-0.072,-0.014
33.0,-0.236,-0.077,0.022
33.01,-0.201,-0.107,0.091
33.02,-0.277,0.062,0.133
33.03,-0.32,0.08,0.068
33.04,-0.29,0.024,-0.008
33.05,-0.267,-0.025,-0.102
33.06,-0.369,-0.029,-0.063
33.07,-0.289,-0.021,-0.055
33.08,-0.187,0.204,-0.049
33.09,-0.221,0.127,-0.026
33.1,-0.173,0.111,-0.014
33.11,-0.125,0.1,0.024
33.12,-0.208,-0.116,0.103
33.13,-0.305,-0.177,0.14
33.14,-0.244,-0.082,0.032
33.15,-0.216,-0.097,0.001
33.16,-0.312,0.067,-0.055
33.17,-0.259,0.136,-0.062
33.18,-0.268,-0.048,-0.037
33.19,-0.267,0.095,-0.059
33.2,-0.227,0.081,0.003
33.21,-0.162,-0.023,-0.018
33.22,-0.251,0.18,-0.005
33.23,-0.258,0.134,0.027
33.24,-0.135,0.008,-0.016
33.25,-0.166,-0.059,-0.04
33.26,-0.2,-0.306,0.011
33.27,-0.258,-0.207,0.118
33.28,-0.282,-0.013,0.151
33.29,-0.254,0.038,0.073
33.3,-0.256,0.23,-0.09
33.31,-0.322,0.205,-0.136
33.32,-0.281,0.01,-0.094
33.33,-0.19,0.055,-0.124
33.34,-0.274,-0.006,-0.03
33.35,-0.185,-0.048,0.073
33.36,-0.118,0.194,0.124
33.37,-0.284,0.026,0.127
33.38,-0.244,-0.073,0.029
33.39,-0.211,-0.172,-0.058
33.4,-0.302,-0.212,-0.017
33.41,-0.266,-0.053,-0.013
33.42,-0.324,0.087,0.023
33.43,-0.209,0.184,-0.031
33.44,-0.198,0.236,-0.054
33.45,-0.267,0.168,0.02
33.46,-0.164,-0.023,-0.095
33.47,-0.224,-0.048,-0.057
33.48,-0.258,-0.06,0.01
33.49,-0.245,-0.022,0.062
33.5,-0.259,0.08,0.089
33.51,-0.074,-0.042,-0.005
33.52,-0.206,-0.141,-0.021
33.53,-0.285,-0.073,0.075
33.54,-0.21,-0.094,0.055
33.55,-0.28,0.179,0.007
33.56,-0.304,0.224,-0.074
33.57,-0.252,0.147,-0.095
33.58,-0.253,0.185,-0.108
33.59,-0.237,0.024,-0.062
33.6,-0.218,-0.3,0.027
33.61,-0.154,-0.157,0.031
33.62,-0.166,-0.113,0.155
33.63,-0.185,0.02,0.162
33.64,-0.164,0.236,0.069
33.65,-0.271,0.05,-0.013
33.66,-0.33,0.069,-0.135
33.67,-0.38,0.035,-0.109
33.68,-0.374,0.05,-0.069
33.69,-0.271,0.134,-0.118
33.7,-0.24,0.091,-0.083
33.71,-0.189,0.014,0.035
33.72,-0.153,0.035,0.076
33.73,-0.155,-0.136,0.143
33.74,-0.099,-0.181,0.046
33.75,-0.137,-0.038,0.014
33.76,-0.191,0.025,0.045
33.77,-0.312,0.142,0.025
33.78,-0.346,0.169,-0.063
33.79,-0.3,-0.079,-0.09
33.8,-0.326,0.058,-0.075
33.81,-0.303,0.037,-0.027
33.82,-0.305,0.014,0.036
33.83,-0.27,0.198,-0.009
33.84,-0.099,0.169,-0.032
33.85,-0.031,-0.117,-0.029
33.86,-0.076,-0.146,0.005
33.87,-0.152,-0.299,0.06
33.88,-0.231,-0.154,0.172
33.89,-0.247,0.097,0.131
33.9,-0.386,0.154,0.053
33.91,-0.36,0.202,-0.097
33.92,-0.374,0.078,-0.141
33.93,-0.376,-0.069,-0.115
33.94,-0.259,-0.012,-0.118
33.95,-0.276,-0.011,-0.01
33.96,-0.135,-0.025,0.029
33.97,-0.027,0.192,0.043
33.98,-0.116,0.088,0.145
33.99,-0.148,-0.089,0.058
34.0,-0.238,-0.083,0.026
34.01,-0.261,-0.16,0.003
34.02,-0.366,-0.006,-0.008
34.03,-0.378,0.146,0.024
34.04,-0.3,0.143,-0.052
34.05,-0.366,0.167,-0.049
34.06,-0.285,0.073,-0.093
34.07,-0.11,-0.115,-0.101
34.08,-0.197,-0.051,-0.06
34.09,-0.132,-0.005,0.074
34.1,-0.129,0.035,0.16
34.11,-0.14,0.119,0.099
34.12,-0.155,-0.082,0.047
34.13,-0.229,-0.054,0.032
34.14,-0.287,-0.103,-0.007
34.15,-0.433,-0.082,0.034
34.16,-0.41,0.015,-0.046
34.17,-0.335,0.249,-0.128
34.18,-0.284,0.044,-0.054
34.19,-0.156,0.06,-0.094
34.2,-0.123,0.01,-0.023
34.21,-0.082,-0.202,0.031
34.22,-0.082,0.011,0.083
34.23,-0.162,0.032,0.176
34.24,-0.196,0.122,0.08
34.25,-0.279,0.151,0.01
34.26,-0.344,0.02,-0.109
34.27,-0.429,-0.07,-0.126
34.28,-0.441,0.0,-0.076
34.29,-0.29,0.03,-0.024
34.3,-0.234,0.102,-0.049
34.31,-0.211,0.092,-0.038
34.32,-0.041,0.143,-0.003
34.33,-0.062,0.079,0.079
34.34,-0.174,-0.022,0.116
34.35,-0.176,-0.177,0.07
34.36,-0.226,-0.044,0.008
34.37,-0.311,-0.071,0.048
34.38,-0.373,-0.017,-0.004
34.39,-0.352,0.054,-0.045
34.4,-0.363,-0.082,-0.019
34.41,-0.249,0.085,-0.032
34.42,-0.204,0.117,-0.065
34.43,-0.198,0.14,-0.04
34.44,-0.13,0.223,-0.057
34.45,-0.125,0.14,-0.037
34.46,-0.173,-0.16,-0.001
34.47,-0.136,-0.167,0.015
34.48,-0.282,-0.232,0.193
34.49,-0.36,-0.188,0.204
34.5,-0.325,0.097,0.097
34.51,-0.332,0.098,-0.02
34.52,-0.241,0.097,-0.145
34.53,-0.261,0.214,-0.176
34.54,-0.233,-0.06,-0.11
34.55,-0.187,0.052,-0.114
34.56,-0.203,0.079,-0.021
34.57,-0.143,0.032,0.124
34.58,-0.174,0.227,0.131
34.59,-0.241,-0.019,0.093
34.6,-0.223,-0.163,-0.047
34.61,-0.342,-0.153,-0.007
34.62,-0.302,-0.22,0.02
34.63,-0.253,0.013,0.002
34.64,-0.224,0.103,-0.012
34.65,-0.205,0.153,-0.033
34.66,-0.293,0.201,-0.0
34.67,-0.224,0.135,-0.025
34.68,-0.226,-0.058,-0.04
34.69,-0.251,-0.014,-0.072
34.7,-0.255,0.033,0.009
34.71,-0.233,-0.056,0.085
34.72,-0.13,0.067,-0.007
34.73,-0.211,-0.103,0.002
34.74,-0.19,-0.208,0.038
34.75,-0.147,0.039,0.007
34.76,-0.358,-0.006,0.117
34.77,-0.326,0.135,-0.003
34.78,-0.222,0.263,-0.132
34.79,-0.308,0.049,-0.054
34.8,-0.203,0.105,-0.094
34.81,-0.229,-0.033,-0.018
34.82,-0.189,-0.211,0.035
34.83,-0.176,-0.056,0.035
34.84,-0.21,-0.048,0.095
34.85,-0.154,-0.016,0.107
34.86,-0.212,0.145,0.02
34.87,-0.328,0.03,-0.026
34.88,-0.305,-0.047,-0.059
34.89,-0.368,0.212,-0.03
34.9,-0.284,0.035,-0.037
34.91,-0.278,0.163,-0.058
34.92,-0.296,0.058,-0.034
34.93,-0.149,0.009,-0.012
34.94,-0.168,-0.032,0.054
34.95,-0.241,-0.125,0.066
34.96,-0.137,-0.168,0.033
34.97,-0.084,0.034,0.007
34.98,-0.191,0.043,0.061
34.99,-0.337,0.028,0.039
35.0,-0.257,0.104,-0.036
35.01,-0.294,-0.053,-0.012
35.02,-0.37,0.086,-0.024
35.03,-0.26,0.198,-0.064
35.04,-0.332,0.017,0.027
35.05,-0.212,0.226,-0.098
35.06,-0.098,0.057,-0.099
35.07,-0.141,-0.3,0.01
35.08,-0.076,-0.145,0.0
35.09,-0.171,-0.188,0.156
35.1,-0.227,-0.03,0.222
35.11,-0.285,0.235,0.081
35.12,-0.313,0.135,-0.07
35.13,-0.293,0.027,-0.135
35.14,-0.353,0.072,-0.114
35.15,-0.305,-0.03,-0.068
35.16,-0.306,0.065,-0.045
35.17,-0.241,0.096,0.041
35.18,-0.167,0.053,0.064
35.19,-0.127,0.088,0.088
35.2,-0.129,-0.148,0.049
35.21,-0.211,-0.181,0.008
35.22,-0.212,-0.046,-0.033
35.23,-0.233,-0.059,0.003
35.24,-0.305,0.203,0.017
35.25,-0.285,0.277,0.009
35.26,-0.403,0.033,0.012
35.27,-0.293,0.091,-0.168
35.28,-0.28,-0.065,-0.115
35.29,-0.298,-0.219,0.015
35.3,-0.115,0.084,0.009
35.31,-0.127,-0.029,0.104
35.32,-0.084,0.022,0.079
35.33,-0.049,0.085,0.0
35.34,-0.263,-0.106,0.11
35.35,-0.195,-0.042,0.013
35.36,-0.388,0.091,-0.002
35.37,-0.431,-0.021,-0.016
35.38,-0.343,0.22,-0.138
35.39,-0.369,0.024,-0.073
35.4,-0.195,-0.002,-0.049
35.41,-0.159,-0.13,0.014
35.42,-0.103,-0.091,0.044
35.43,-0.065,-0.101,0.057
35.44,-0.138,0.117,0.11
35.45,-0.182,0.104,0.085
35.46,-0.274,0.051,0.006
35.47,-0.323,0.155,-0.08
35.48,-0.391,-0.079,-0.083
35.49,-0.441,0.052,-0.06
35.5,-0.324,0.018,-0.072
35.51,-0.237,0.026,-0.04
35.52,-0.22,0.094,-0.02
35.53,-0.134,0.088,-0.007
35.54,-0.081,0.053,0.05
35.55,-0.116,-0.021,0.047
35.56,-0.143,-0.072,0.061
35.57,-0.223,-0.096,0.093
35.58,-0.249,0.01,0.054
35.59,-0.32,0.009,0.001
35.6,-0.318,-0.028,-0.098
35.61,-0.333,0.004,-0.095
35.62,-0.363,0.091,0.03
35.63,-0.232,0.139,-0.015
35.64,-0.239,0.192,-0.02
35.65,-0.2,0.011,-0.026
35.66,-0.042,0.052,-0.088
35.67,-0.151,-0.052,0.021
35.68,-0.174,-0.364,0.082
35.69,-0.166,-0.065,0.104
35.7,-0.301,-0.048,0.149
35.71,-0.287,0.086,0.1
35.72,-0.353,0.255,-0.01
35.73,-0.338,0.027,-0.125
35.74,-0.298,0.016,-0.178
35.75,-0.256,0.025,-0.125
35.76,-0.251,-0.038,-0.018
35.77,-0.155,0.084,0.017
35.78,-0.178,0.162,0.057
35.79,-0.121,0.065,0.043
35.8,-0.198,0.027,0.054
35.81,-0.231,-0.097,0.075
35.82,-0.263,-0.18,0.034
35.83,-0.318,-0.068,-0.011
35.84,-0.378,-0.048,0.043
35.85,-0.278,0.093,-0.037
35.86,-0.271,0.228,-0.018
35.87,-0.274,-0.006,-0.042
35.88,-0.166,0.117,-0.107
35.89,-0.183,0.015,-0.112
35.9,-0.198,-0.066,0.038
35.91,-0.17,0.104,0.077
35.92,-0.204,0.017,0.116
35.93,-0.181,-0.064,0.074
35.94,-0.184,-0.024,-0.034
35.95,-0.334,-0.161,0.008
35.96,-0.346,-0.133,-0.007
35.97,-0.328,0.125,0.031
35.98,-0.289,0.064,-0.003
35.99,-0.234,0.17,-0.112
36.0,-0.157,0.162,-0.108
36.01,-0.131,-0.072,-0.038
36.02,-0.177,0.001,0.053
36.03,-0.176,-0.005,0.082
36.04,-0.2,-0.106,0.049
36.05,-0.238,0.066,0.041
36.06,-0.285,0.034,0.057
36.07,-0.323,-0.055,0.026
36.08,-0.342,-0.008,-0.044
36.09,-0.326,-0.021,-0.067
36.1,-0.27,0.045,-0.077
36.11,-0.178,0.238,-0.051
36.12,-0.144,0.122,-0.027
36.13,-0.193,0.203,-0.02
36.14,-0.214,0.061,0.016
36.15,-0.147,-0.095,0.036
36.16,-0.191,-0.105,0.03
36.17,-0.289,-0.138,0.043
36.18,-0.275,-0.179,0.086
36.19,-0.27,0.047,0.063
36.2,-0.26,0.066,-0.005
36.21,-0.24,-0.052,-0.052
36.22,-0.237,0.137,-0.039
36.23,-0.227,0.046,-0.027
36.24,-0.264,0.149,-0.03
36.25,-0.289,0.24,-0.047
36.26,-0.219,0.115,-0.059
36.27,-0.17,-0.003,-0.04
36.28,-0.205,-0.114,-0.04
36.29,-0.11,-0.357,0.064
36.3,-0.197,-0.167,0.109
36.31,-0.205,-0.029,0.169
36.32,-0.213,0.091,0.105
36.33,-0.259,0.264,-0.038
36.34,-0.281,0.107,-0.125
36.35,-0.271,-0.014,-0.181
36.36,-0.337,0.022,-0.097
36.37,-0.291,-0.017,0.022
36.38,-0.298,0.119,0.077
36.39,-0.212,0.092,0.048
36.4,-0.146,0.04,0.042
36.41,-0.145,-0.06,0.002
36.42,-0.166,-0.147,0.036
36.43,-0.21,-0.285,0.033
36.44,-0.224,-0.0,0.014
36.45,-0.333,0.085,0.041
36.46,-0.281,0.143,-0.011
36.47,-0.301,0.341,-0.036
36.48,-0.344,0.065,-0.045
36.49,-0.254,0.064,-0.116
36.5,-0.299,-0.09,-0.115
36.51,-0.247,-0.138,-0.03
36.52,-0.128,0.046,0.075
36.53,-0.159,0.057,0.146
36.54,-0.07,-0.099,0.055
36.55,-0.107,-0.066,-0.008
36.56,-0.201,-0.096,0.074
36.57,-0.306,-0.102,0.022
36.58,-0.448,0.115,0.02
36.59,-0.32,0.188,-0.073
36.6,-0.268,0.227,-0.161
36.61,-0.306,0.144,-0.073
36.62,-0.26,-0.066,-0.033
36.63,-0.213,-0.081,0.032
36.64,-0.148,-0.184,0.05
36.65,-0.094,-0.145,0.114
36.66,-0.09,0.047,0.108
36.67,-0.213,0.13,0.098
36.68,-0.287,0.001,0.036
36.69,-0.274,0.078,-0.088
36.7,-0.398,0.004,-0.092
36.71,-0.358,0.05,-0.079
36.72,-0.323,0.16,-0.058
36.73,-0.361,0.088,-0.059
36.74,-0.255,0.124,-0.028
36.75,-0.15,0.037,0.009
36.76,-0.104,-0.068,0.038
36.77,-0.089,-0.146,0.045
36.78,-0.099,-0.08,0.082
36.79,-0.072,-0.081,0.065
36.8,-0.296,0.114,0.042
36.81,-0.338,0.089,-0.021
36.82,-0.31,0.009,-0.111
36.83,-0.419,0.094,-0.048
36.84,-0.405,-0.006,0.001
36.85,-0.288,0.058,-0.031
36.86,-0.284,0.162,-0.032
36.87,-0.073,0.037,-0.019
36.88,-0.007,0.065,-0.031
36.89,-0.072,-0.085,-0.02
36.9,-0.126,-0.323,0.083
36.91,-0.147,-0.11,0.099
36.92,-0.307,0.104,0.181
36.93,-0.405,-0.07,0.121
36.94,-0.38,0.296,-0.054
36.95,-0.339,0.042,-0.134
36.96,-0.367,-0.05,-0.133
36.97,-0.261,0.01,-0.124
36.98,-0.217,0.003,-0.026
36.99,-0.179,0.079,0.042
37.0,-0.083,0.176,0.059
37.01,-0.098,0.076,0.06
37.02,-0.09,-0.089,0.026
37.03,-0.262,-0.126,0.05
37.04,-0.304,-0.282,0.047
37.05,-0.294,0.039,-0.005
37.06,-0.365,0.123,0.018
37.07,-0.338,0.139,-0.068
37.08,-0.368,0.223,-0.078
37.09,-0.259,0.052,-0.082
37.1,-0.079,-0.055,-0.136
37.11,-0.226,-0.065,-0.003
37.12,-0.153,-0.102,0.111
37.13,-0.102,0.108,0.103
37.14,-0.18,0.126,0.096
37.15,-0.126,-0.031,0.006
37.16,-0.251,-0.036,-0.06
37.17,-0.311,-0.052,0.005
37.18,-0.359,-0.169,0.006
37.19,-0.466,0.041,0.017
37.2,-0.235,0.14,-0.05
37.21,-0.186,0.07,-0.056
37.22,-0.242,0.167,-0.03
37.23,-0.151,-0.089,0.015
37.24,-0.111,-0.002,-0.0
37.25,-0.099,-0.026,-0.021
37.26,-0.236,-0.021,0.14
37.27,-0.185,0.111,0.087
37.28,-0.298,0.059,0.025
37.29,-0.358,-0.086,-0.046
37.3,-0.363,-0.089,-0.076
37.31,-0.456,-0.041,-0.022
37.32,-0.284,0.031,-0.042
37.33,-0.196,0.22,-0.074
37.34,-0.174,0.18,-0.021
37.35,-0.124,0.208,-0.027
37.36,-0.117,0.124,0.017
37.37,-0.059,-0.177,0.075
37.38,-0.176,-0.119,0.022
37.39,-0.332,-0.148,0.078
37.4,-0.33,-0.126,0.049
37.41,-0.358,0.175,0.036
37.42,-0.294,0.089,-0.059
37.43,-0.269,-0.134,-0.085
37.44,-0.263,0.027,-0.062
37.45,-0.146,0.06,-0.024
37.46,-0.188,0.058,0.056
37.47,-0.218,0.34,0.023
37.48,-0.16,0.156,-0.029
37.49,-0.19,0.009,-0.041
37.5,-0.208,-0.205,-0.037
37.51,-0.235,-0.329,0.056
37.52,-0.303,-0.213,0.119
37.53,-0.329,0.074,0.11
37.54,-0.295,0.094,0.067
37.55,-0.146,0.264,-0.107
37.56,-0.242,0.157,-0.105
37.57,-0.277,-0.094,-0.117
37.58,-0.121,0.024,-0.125
37.59,-0.269,-0.018,0.031
37.6,-0.256,0.08,0.093
37.61,-0.159,0.233,0.064
37.62,-0.243,-0.045,0.085
37.63,-0.241,-0.073,-0.059
37.64,-0.329,-0.202,0.01
37.65,-0.273,-0.249,0.059
37.66,-0.233,0.024,-0.012
37.67,-0.282,0.172,0.013
37.68,-0.131,0.146,-0.077
37.69,-0.286,0.327,-0.069
37.7,-0.198,0.036,-0.031
37.71,-0.168,-0.014,-0.048
37.72,-0.367,-0.086,0.013
37.73,-0.288,-0.051,0.083
37.74,-0.248,0.045,0.072
37.75,-0.21,0.108,0.04
37.76,-0.147,-0.137,-0.038
37.77,-0.179,-0.192,-0.005
37.78,-0.142,-0.089,-0.035
37.79,-0.26,-0.101,0.063
37.8,-0.341,0.187,0.063
37.81,-0.199,0.286,-0.047
37.82,-0.31,0.213,-0.064
37.83,-0.24,0.103,-0.1
37.84,-0.284,-0.091,-0.017
37.85,-0.206,-0.223,-0.012
37.86,-0.123,-0.046,0.019
37.87,-0.223,-0.086,0.119
37.88,-0.153,0.132,0.091
37.89,-0.197,0.129,0.033
37.9,-0.264,0.032,-0.038
37.91,-0.282,-0.033,-0.077
37.92,-0.422,0.019,-0.025
37.93,-0.281,0.058,-0.032
37.94,-0.251,0.166,-0.068
37.95,-0.301,0.102,-0.022
37.96,-0.163,0.054,-0.036
37.97,-0.134,0.034,0.053
37.98,-0.192,-0.166,0.053
37.99,-0.208,-0.123,0.045
38.0,-0.193,-0.086,0.05
38.01,-0.19,0.022,0.055
38.02,-0.288,0.14,-0.004
38.03,-0.256,0.082,-0.101
38.04,-0.317,-0.077,-0.06
38.05,-0.311,0.068,-0.047
38.06,-0.236,0.061,-0.015
38.07,-0.303,0.074,0.041
38.08,-0.278,0.208,-0.005
38.09,-0.125,0.1,-0.055
38.1,-0.145,-0.115,-0.023
38.11,-0.084,-0.206,-0.04
38.12,-0.164,-0.286,0.108
38.13,-0.177,-0.143,0.16
38.14,-0.24,0.181,0.099
38.15,-0.293,0.15,0.049
38.16,-0.321,0.213,-0.114
38.17,-0.347,0.173,-0.125
38.18,-0.337,-0.114,-0.119
38.19,-0.333,-0.031,-0.105
38.2,-0.302,-0.016,0.019
38.21,-0.14,0.02,0.094
38.22,-0.086,0.128,0.112
38.23,-0.078,0.041,0.051
38.24,-0.1,-0.13,0.033
38.25,-0.224,-0.044,0.031
38.26,-0.26,-0.168,-0.003
38.27,-0.396,0.034,0.03
38.28,-0.358,0.243,-0.02
38.29,-0.362,0.051,-0.021
38.3,-0.367,0.219,-0.136
38.31,-0.217,-0.052,-0.162
38.32,-0.224,-0.162,-0.035
38.33,-0.109,0.024,0.057
38.34,-0.088,0.007,0.141
38.35,-0.119,0.079,0.119
38.36,-0.053,0.106,-0.027
38.37,-0.148,-0.101,0.001
38.38,-0.316,-0.052,0.046
38.39,-0.38,-0.085,0.027
38.4,-0.47,-0.007,0.027
38.41,-0.354,0.187,-0.123
38.42,-0.329,0.143,-0.044
38.43,-0.169,0.018,-0.052
38.44,-0.063,0.066,-0.044
38.45,-0.12,-0.188,0.028
38.46,-0.084,-0.079,0.034
38.47,-0.124,0.007,0.123
38.48,-0.192,0.075,0.184
38.49,-0.311,0.136,0.055
38.5,-0.377,0.028,-0.064
38.51,-0.366,-0.099,-0.127
38.52,-0.431,0.013,-0.097
38.53,-0.383,0.037,-0.005
38.54,-0.192,0.048,-0.069
38.55,-0.137,0.217,-0.102
38.56,-0.104,0.075,0.01
38.57,-0.122,0.132,0.071
38.58,-0.185,-0.064,0.093
38.59,-0.123,-0.182,0.073
38.6,-0.235,-0.039,0.05
38.61,-0.289,-0.033,0.036
38.62,-0.312,0.037,0.034
38.63,-0.287,0.127,-0.122
38.64,-0.292,-0.009,-0.131
38.65,-0.327,-0.099,-0.044
38.66,-0.231,0.067,-0.026
38.67,-0.231,0.111,0.043
38.68,-0.273,0.171,0.089
38.69,-0.139,0.313,-0.033
38.7,-0.093,-0.067,-0.051
38.71,-0.147,-0.202,-0.023
38.72,-0.144,-0.227,0.033
38.73,-0.241,-0.331,0.195
38.74,-0.252,0.126,0.132
38.75,-0.38,0.086,0.06
38.76,-0.383,0.174,-0.061
38.77,-0.284,0.104,-0.178
38.78,-0.264,0.046,-0.137
38.79,-0.226,-0.124,-0.125
38.8,-0.255,0.02,-0.015
38.81,-0.222,0.079,0.103
38.82,-0.067,0.118,0.105
38.83,-0.157,0.212,0.139
38.84,-0.156,-0.145,0.037
38.85,-0.221,-0.158,-0.013
38.86,-0.366,-0.177,-0.033
38.87,-0.381,-0.189,0.028
38.88,-0.342,0.181,-0.04
38.89,-0.237,0.248,-0.088
38.9,-0.264,0.088,-0.081
38.91,-0.166,0.257,-0.067
38.92,-0.143,-0.053,-0.008
38.93,-0.279,-0.08,0.027
38.94,-0.17,0.025,0.026
38.95,-0.122,0.064,0.105
38.96,-0.23,0.065,0.099
38.97,-0.181,0.024,-0.065
38.98,-0.288,-0.304,0.0
38.99,-0.29,-0.196,-0.009
39.0,-0.228,-0.072,0.033
39.01,-0.396,-0.003,0.085
39.02,-0.247,0.328,-0.053
39.03,-0.23,0.274,-0.074
39.04,-0.206,0.082,-0.096
39.05,-0.178,0.051,-0.065
39.06,-0.221,-0.149,0.033
39.07,-0.111,-0.2,0.007
39.08,-0.232,0.055,0.094
39.09,-0.233,0.027,0.148
39.1,-0.24,0.117,0.046
39.11,-0.315,-0.007,-0.013
39.12,-0.26,-0.11,-0.113
39.13,-0.327,-0.003,-0.096
39.14,-0.375,0.115,-0.017
39.15,-0.198,0.131,-0.05
39.16,-0.219,0.243,-0.044
39.17,-0.156,0.167,-0.035
39.18,-0.131,0.004,0.022
39.19,-0.206,-0.118,0.079
39.2,-0.218,-0.185,0.078
39.21,-0.246,-0.093,0.028
39.22,-0.256,-0.031,0.039
39.23,-0.217,-0.039,-0.001
39.24,-0.217,0.146,-0.047
39.25,-0.288,-0.013,-0.01
39.26,-0.304,0.019,0.001
39.27,-0.257,0.125,-0.048
39.28,-0.266,0.141,-0.006
39.29,-0.282,0.157,0.002
39.3,-0.216,0.112,-0.043
39.31,-0.207,-0.058,-0.092
39.32,-0.134,-0.302,-0.043
39.33,-0.162,-0.198,0.102
39.34,-0.195,-0.141,0.212
39.35,-0.181,0.117,0.141
39.36,-0.234,0.238,0.005
39.37,-0.284,0.087,-0.097
39.38,-0.336,0.136,-0.17
39.39,-0.332,-0.032,-0.13
39.4,-0.303,-0.018,-0.081
39.41,-0.279,0.064,-0.006
39.42,-0.276,0.087,0.063
39.43,-0.178,0.111,0.091
39.44,-0.054,0.054,0.03
39.45,-0.133,-0.146,0.052
39.46,-0.189,-0.234,0.043
39.47,-0.229,-0.081,0.006
39.48,-0.336,-0.049,0.064
39.49,-0.284,0.185,-0.02
39.5,-0.328,0.191,0.012
39.51,-0.343,0.085,0.012
39.52,-0.267,0.085,-0.104
39.53,-0.277,-0.023,-0.123
39.54,-0.234,-0.182,-0.054
39.55,-0.183,0.128,0.03
39.56,-0.143,0.029,0.132
39.57,-0.05,-0.041,0.023
39.58,-0.148,0.025,-0.003
39.59,-0.166,-0.231,0.048
39.6,-0.213,-0.003,0.069
39.61,-0.452,0.037,0.118
39.62,-0.336,0.066,-0.01
39.63,-0.252,0.243,-0.169
39.64,-0.308,0.147,-0.188
39.65,-0.242,-0.028,-0.118
39.66,-0.22,-0.049,-0.015
39.67,-0.114,-0.135,0.083
39.68,-0.102,-0.085,0.097
39.69,-0.098,0.018,0.133
39.7,-0.177,0.134,0.137
39.71,-0.208,0.103,0.011
39.72,-0.315,0.037,-0.061
39.73,-0.41,-0.013,-0.069
39.74,-0.441,0.012,-0.083
39.75,-0.362,0.063,-0.053
39.76,-0.232,0.016,-0.065
39.77,-0.174,0.134,-0.041
39.78,-0.186,0.072,0.047
39.79,-0.137,-0.049,0.102
39.8,-0.076,-0.044,0.04
39.81,-0.16,-0.116,0.053
39.82,-0.214,-0.029,0.04
39.83,-0.281,0.115,0.021
39.84,-0.36,0.054,0.011
39.85,-0.322,0.023,-0.072
39.86,-0.33,-0.009,-0.062
39.87,-0.29,-0.082,-0.029
39.88,-0.219,0.132,-0.047
39.89,-0.25,0.199,0.008
39.9,-0.173,0.153,-0.013
39.91,-0.1,0.15,-0.052
39.92,-0.12,-0.114,-0.038
39.93,-0.093,-0.377,-0.009
39.94,-0.217,-0.215,0.121
39.95,-0.296,-0.041,0.224
39.96,-0.353,0.198,0.154
39.97,-0.313,0.235,-0.049
39.98,-0.316,0.113,-0.173
39.99,-0.302,-0.027,-0.176
40.0,-0.289,-0.027,-0.133
40.01,-0.233,-0.206,-0.004
40.02,-0.18,0.145,0.049
40.03,-0.162,0.064,0.137
40.04,-0.166,0.107,0.103
40.05,-0.094,0.111,0.001
40.06,-0.244,-0.186,0.048
40.07,-0.339,-0.125,0.0
40.08,-0.282,-0.088,-0.051
40.09,-0.336,0.027,-0.003
40.1,-0.286,0.169,-0.013
40.11,-0.379,0.201,-0.011
40.12,-0.224,-0.032,-0.035
40.13,-0.108,0.045,-0.131
40.14,-0.215,-0.071,0.004
40.15,-0.25,-0.06,0.027
40.16,-0.111,0.097,0.027
40.17,-0.176,0.199,0.086
40.18,-0.115,-0.035,-0.034
40.19,-0.281,0.006,0.022
40.2,-0.308,-0.223,0.059
40.21,-0.246,-0.101,-0.017
40.22,-0.442,0.058,0.055
40.23,-0.327,0.0,-0.014
40.24,-0.213,0.206,-0.108
40.25,-0.216,0.189,-0.068
40.26,-0.105,-0.111,-0.032
40.27,-0.153,0.0,-0.004
40.28,-0.163,-0.101,0.039
40.29,-0.185,-0.105,0.127
40.3,-0.258,0.193,0.101
40.31,-0.298,0.022,0.071
40.32,-0.333,0.021,-0.054
40.33,-0.328,-0.005,-0.131
40.34,-0.369,-0.065,-0.044
40.35,-0.261,0.073,-0.059
40.36,-0.199,0.166,-0.081
40.37,-0.142,0.125,-0.025
40.38,-0.141,0.152,-0.004
40.39,-0.207,0.049,0.042
40.4,-0.192,-0.124,0.07
40.41,-0.193,-0.115,0.056
40.42,-0.275,-0.096,0.074
40.43,-0.297,-0.008,0.014
40.44,-0.268,0.072,-0.023
40.45,-0.212,-0.027,-0.04
40.46,-0.216,0.047,-0.074
40.47,-0.299,0.058,-0.038
40.48,-0.24,0.007,0.009
40.49,-0.239,0.276,-0.028
40.5,-0.277,0.135,-0.009
40.51,-0.252,0.07,-0.018
40.52,-0.135,-0.031,-0.073
40.53,-0.15,-0.195,0.024
40.54,-0.224,-0.386,0.082
40.55,-0.242,-0.065,0.169
40.56,-0.247,0.002,0.158
40.57,-0.24,0.181,0.034
40.58,-0.196,0.242,-0.144
40.59,-0.36,0.028,-0.123
40.6,-0.359,0.024,-0.116
40.61,-0.264,0.023,-0.121
40.62,-0.25,-0.065,0.004
40.63,-0.143,0.128,0.008
40.64,-0.189,0.193,0.109
40.65,-0.158,0.018,0.1
40.66,-0.144,-0.037,-0.006
40.67,-0.282,-0.168,0.002
40.68,-0.241,-0.267,-0.002
40.69,-0.246,-0.01,-0.008
40.7,-0.29,0.099,0.045
40.71,-0.276,0.184,-0.012
40.72,-0.36,0.25,-0.01
40.73,-0.228,0.046,-0.034
40.74,-0.195,0.115,-0.105
40.75,-0.288,-0.131,-0.036
40.76,-0.128,-0.053,-0.035
40.77,-0.185,0.043,0.068
40.78,-0.205,0.006,0.12
40.79,-0.109,-0.09,0.041
40.8,-0.25,-0.157,0.021
40.81,-0.234,-0.101,0.039
40.82,-0.245,-0.044,0.02
40.83,-0.408,0.265,0.042
40.84,-0.328,0.162,-0.041
40.85,-0.28,0.189,-0.108
40.86,-0.194,0.13,-0.176
40.87,-0.161,-0.189,-0.034
40.88,-0.232,-0.157,0.055
40.89,-0.215,-0.094,0.063
40.9,-0.213,-0.108,0.14
40.91,-0.094,0.131,0.094
40.92,-0.21,0.15,0.036
40.93,-0.262,0.017,-0.022
40.94,-0.249,0.05,-0.103
40.95,-0.413,0.035,-0.051
40.96,-0.393,0.061,-0.038
40.97,-0.233,0.13,-0.076
40.98,-0.226,0.121,-0.053
40.99,-0.252,0.119,-0.039
41.0,-0.216,0.002,0.083
41.01,-0.104,-0.156,0.068
41.02,-0.094,-0.101,0.023
41.03,-0.173,-0.144,0.073
41.04,-0.129,-0.089,0.051
41.05,-0.28,0.198,0.057
41.06,-0.332,-0.001,0.029
41.07,-0.336,0.028,-0.055
41.08,-0.389,0.084,-0.052
41.09,-0.306,-0.003,-0.045
41.1,-0.287,0.174,-0.08
41.11,-0.303,0.192,-0.05
41.12,-0.154,0.039,-0.038
41.13,-0.037,0.012,-0.042
41.14,-0.033,-0.213,0.026
41.15,-0.072,-0.324,0.114
41.16,-0.214,-0.069,0.176
41.17,-0.267,0.082,0.126
41.18,-0.374,0.158,0.059
41.19,-0.341,0.247,-0.144
41.2,-0.394,0.045,-0.179
41.21,-0.358,-0.029,-0.152
41.22,-0.258,-0.001,-0.123
41.23,-0.261,-0.048,0.052
41.24,-0.141,0.104,0.116
41.25,-0.113,0.129,0.075
41.26,-0.102,-0.053,0.09
41.27,-0.1,-0.044,0.0
41.28,-0.254,-0.174,0.022
41.29,-0.297,-0.184,0.005
41.3,-0.393,0.001,0.025
41.31,-0.337,0.157,0.01
41.32,-0.272,0.207,-0.048
41.33,-0.383,0.189,-0.018
41.34,-0.272,0.045,-0.082
41.35,-0.143,-0.09,-0.098
41.36,-0.227,-0.059,-0.02
41.37,-0.148,-0.098,0.057
41.38,-0.075,0.09,0.029
41.39,-0.171,0.074,0.071
41.4,-0.174,-0.042,0.061
41.41,-0.211,0.017,0.018
41.42,-0.322,-0.086,0.019
41.43,-0.345,-0.042,-0.014
41.44,-0.365,0.151,-0.101
41.45,-0.35,0.072,-0.068
41.46,-0.271,0.131,-0.078
41.47,-0.11,0.069,-0.068
41.48,-0.182,-0.122,0.054
41.49,-0.125,-0.068,0.044
41.5,-0.149,-0.046,0.078
41.51,-0.155,-0.063,0.112
41.52,-0.186,0.202,0.063
41.53,-0.296,0.04,0.002
41.54,-0.349,-0.032,-0.057
41.55,-0.419,0.058,-0.097
41.56,-0.398,-0.001,-0.039
41.57,-0.318,0.055,-0.046
41.58,-0.189,0.126,-0.056
41.59,-0.134,0.111,-0.029
41.6,-0.154,0.115,0.028
41.61,-0.164,0.019,0.068
41.62,-0.058,-0.123,0.009
41.63,-0.238,-0.073,0.038
41.64,-0.272,0.01,0.088
41.65,-0.312,0.004,0.047
41.66,-0.396,0.032,-0.056
41.67,-0.342,-0.056,-0.063
41.68,-0.263,-0.015,-0.026
41.69,-0.264,0.143,-0.011
41.7,-0.196,0.111,-0.0
41.71,-0.159,0.204,-0.044
41.72,-0.146,0.178,-0.076
41.73,-0.087,-0.13,-0.067
41.74,-0.105,-0.137,-0.012
41.75,-0.235,-0.221,0.097
41.76,-0.334,-0.142,0.221
41.77,-0.347,0.054,0.156
41.78,-0.385,0.148,0.075
41.79,-0.277,0.037,-0.097
41.8,-0.214,0.133,-0.152
41.81,-0.244,-0.094,-0.125
41.82,-0.159,0.017,-0.081
41.83,-0.281,0.11,-0.005
41.84,-0.176,0.001,0.03
41.85,-0.166,0.249,0.045
41.86,-0.223,0.032,0.109
41.87,-0.25,-0.111,0.058
41.88,-0.317,-0.124,-0.034
41.89,-0.268,-0.198,-0.019
41.9,-0.242,-0.043,0.012
41.91,-0.247,0.177,0.039
41.92,-0.241,0.113,0.0
41.93,-0.262,0.128,-0.038
41.94,-0.22,0.147,-0.061
41.95,-0.222,-0.053,-0.055
41.96,-0.258,-0.039,-0.052
41.97,-0.233,0.039,0.017
41.98,-0.197,0.028,0.078
41.99,-0.155,0.098,0.032
42.0,-0.202,-0.081,0.023
42.01,-0.205,-0.115,-0.007
42.02,-0.248,-0.072,0.02
42.03,-0.291,-0.065,0.07
42.04,-0.354,0.084,0.034
42.05,-0.242,0.22,-0.023
42.06,-0.241,0.01,-0.026
42.07,-0.199,0.07,-0.106
42.08,-0.225,-0.049,-0.028
42.09,-0.197,-0.133,0.052
42.1,-0.15,0.008,0.013
42.11,-0.26,0.024,0.041
42.12,-0.241,-0.041,0.05
42.13,-0.271,0.128,0.036
42.14,-0.302,-0.001,0.024
42.15,-0.268,-0.102,-0.067
42.16,-0.305,0.106,-0.065
42.17,-0.253,0.076,-0.037
42.18,-0.195,0.128,-0.022
42.19,-0.269,0.208,-0.044
42.2,-0.175,0.076,-0.027
42.21,-0.184,0.042,0.016
42.22,-0.239,-0.085,0.025
42.23,-0.204,-0.203,0.058
42.24,-0.239,-0.115,0.07
42.25,-0.243,-0.064,0.036
42.26,-0.195,-0.013,0.003
42.27,-0.204,0.193,-0.027
42.28,-0.288,0.064,-0.006
42.29,-0.306,0.128,-0.023
42.3,-0.238,0.061,-0.034
42.31,-0.25,0.105,-0.029
42.32,-0.265,0.036,-0.006
42.33,-0.248,0.087,-0.044
42.34,-0.193,-0.173,-0.02
42.35,-0.155,-0.154,-0.028
42.36,-0.1,-0.145,0.067
42.37,-0.218,-0.18,0.161
42.38,-0.204,0.199,0.111
42.39,-0.229,0.135,0.019
42.4,-0.264,0.106,-0.091
42.41,-0.312,0.083,-0.155
42.42,-0.347,-0.035,-0.062
42.43,-0.277,-0.003,-0.044
42.44,-0.305,0.067,-0.011
42.45,-0.27,-0.006,0.051
42.46,-0.185,0.118,0.039
42.47,-0.12,0.008,0.081
42.48,-0.096,-0.129,0.025
42.49,-0.151,-0.131,-0.016
42.5,-0.24,-0.102,0.011
42.51,-0.282,-0.013,0.023
42.52,-0.31,0.222,0.029
42.53,-0.356,0.22,-0.014
42.54,-0.384,0.157,-0.087
42.55,-0.294,0.103,-0.111
42.56,-0.248,-0.14,-0.081
42.57,-0.262,-0.096,0.014
42.58,-0.158,-0.1,0.088
42.59,-0.065,-0.018,0.141
42.6,-0.086,0.036,0.046
42.61,-0.14,-0.012,0.018
42.62,-0.244,-0.09,0.045
42.63,-0.278,0.021,-0.039
42.64,-0.419,0.036,0.015
42.65,-0.428,0.062,-0.052
42.66,-0.288,0.248,-0.122
42.67,-0.297,0.041,-0.083
42.68,-0.198,-0.003,-0.022
42.69,-0.167,-0.024,0.033
42.7,-0.084,-0.207,0.06
42.71,-0.073,-0.102,0.051
42.72,-0.159,0.058,0.088
42.73,-0.178,0.051,0.084
42.74,-0.264,0.173,0.025
42.75,-0.396,0.012,-0.065
42.76,-0.364,0.028,-0.113
42.77,-0.391,0.011,-0.081
42.78,-0.382,0.09,-0.049
42.79,-0.223,0.078,-0.047
42.8,-0.186,0.176,-0.006
42.81,-0.16,0.007,0.041
42.82,-0.093,0.022,0.04
42.83,-0.064,-0.08,0.047
42.84,-0.112,-0.216,0.058
42.85,-0.219,-0.007,0.061
42.86,-0.32,0.051,0.089
42.87,-0.378,0.008,0.005
42.88,-0.311,0.089,-0.119
42.89,-0.365,-0.026,-0.093
42.9,-0.372,-0.022,-0.019
42.91,-0.236,0.221,-0.033
42.92,-0.19,0.106,-0.003
42.93,-0.162,0.172,-0.006
42.94,-0.029,0.102,-0.068
42.95,-0.081,-0.205,-0.013
42.96,-0.102,-0.299,0.006
42.97,-0.226,-0.188,0.12
42.98,-0.305,-0.057,0.24
42.99,-0.361,0.25,0.129
43.0,-0.333,0.201,-0.038
43.01,-0.293,0.014,-0.211
43.02,-0.342,0.068,-0.207
43.03,-0.292,-0.109,-0.087
43.04,-0.229,-0.01,-0.018
43.05,-0.15,0.135,0.04
43.06,-0.153,0.149,0.073
43.07,-0.128,0.031,0.087
43.08,-0.123,0.003,0.062
43.09,-0.177,-0.245,0.069
43.1,-0.297,-0.119,-0.001
43.11,-0.365,-0.043,-0.004
43.12,-0.395,-0.031,-0.03
43.13,-0.265,0.376,-0.107
43.14,-0.318,0.077,-0.04
43.15,-0.318,0.039,-0.035
43.16,-0.133,0.01,-0.117
43.17,-0.208,-0.125,0.018
43.18,-0.221,-0.043,0.089
43.19,-0.116,0.116,0.08
43.2,-0.163,0.044,0.139
43.21,-0.14,0.076,-0.016
43.22,-0.202,-0.083,-0.033
43.23,-0.299,-0.164,-0.052
43.24,-0.295,-0.077,-0.064
43.25,-0.455,0.082,0.061
43.26,-0.289,0.084,0.01
43.27,-0.287,0.225,-0.061
43.28,-0.203,0.083,-0.033
43.29,-0.096,0.0,-0.041
43.3,-0.167,-0.021,0.03
43.31,-0.168,-0.155,0.045
43.32,-0.124,0.024,0.054
43.33,-0.221,0.08,0.07
43.34,-0.274,-0.032,0.061
43.35,-0.324,-0.0,0.007
43.36,-0.392,-0.052,-0.038
43.37,-0.394,-0.135,-0.032
43.38,-0.335,0.114,-0.044
43.39,-0.234,0.173,-0.032
43.4,-0.184,0.167,-0.084
43.41,-0.143,0.214,-0.071
43.42,-0.166,0.079,0.028
43.43,-0.165,-0.071,0.019
43.44,-0.158,-0.134,0.054
43.45,-0.221,-0.225,0.096
43.46,-0.246,-0.06,0.106
43.47,-0.33,0.068,0.024
43.48,-0.272,-0.095,-0.052
43.49,-0.243,0.116,-0.093
43.5,-0.261,0.036,-0.017
43.51,-0.247,0.072,-0.027
43.52,-0.206,0.167,-0.037
43.53,-0.245,0.188,-0.003
43.54,-0.216,0.146,-0.011
43.55,-0.186,0.011,-0.016
43.56,-0.167,-0.237,-0.0
43.57,-0.197,-0.234,-0.011
43.58,-0.241,-0.212,0.097
43.59,-0.236,-0.01,0.221
43.6,-0.267,0.181,0.105
43.61,-0.256,0.22,-0.052
43.62,-0.244,-0.051,-0.184
43.63,-0.237,0.096,-0.179
43.64,-0.274,-0.059,-0.065
43.65,-0.338,-0.017,0.02
43.66,-0.253,0.232,0.025
43.67,-0.217,0.062,0.067
43.68,-0.253,0.059,0.051
43.69,-0.139,-0.051,0.013
43.7,-0.181,-0.25,0.084
43.71,-0.187,-0.181,0.022
43.72,-0.211,-0.051,-0.013
43.73,-0.293,0.04,0.02
43.74,-0.241,0.293,-0.085
43.75,-0.337,0.254,-0.055
43.76,-0.311,0.086,-0.067
43.77,-0.246,0.057,-0.1
43.78,-0.328,-0.11,0.037
43.79,-0.208,-0.005,0.005
43.8,-0.186,0.035,0.064
43.81,-0.19,-0.037,0.09
43.82,0.032,-0.02,-0.03
43.83,-0.204,-0.072,0.032
43.84,-0.25,-0.259,0.064
43.85,-0.255,0.075,0.013
43.86,-0.412,0.102,0.076
43.87,-0.345,0.087,-0.025
43.88,-0.352,0.285,-0.086
43.89,-0.25,0.001,-0.107
43.9,-0.158,-0.01,-0.103
43.91,-0.24,-0.052,-0.007
43.92,-0.169,-0.141,0.055
43.93,-0.12,-0.039,0.109
43.94,-0.06,0.115,0.071
43.95,-0.175,0.031,0.101
43.96,-0.318,0.04,0.007
43.97,-0.371,-0.028,-0.065
43.98,-0.368,-0.064,-0.048
43.99,-0.332,0.136,-0.06
44.0,-0.312,0.141,-0.072
44.01,-0.246,0.121,-0.07
44.02,-0.182,0.166,-0.013
44.03,-0.167,0.049,0.008
44.04,-0.144,-0.136,0.028
44.05,-0.135,-0.158,0.017
44.06,-0.158,-0.115,0.09
44.07,-0.255,0.087,0.115
44.08,-0.264,0.088,0.061
44.09,-0.247,0.035,-0.07
44.1,-0.313,-0.031,-0.108
44.11,-0.294,0.0,-0.039
44.12,-0.249,-0.009,0.007
44.13,-0.341,0.174,0.007
44.14,-0.342,0.204,-0.005
44.15,-0.198,0.071,-0.041
44.16,-0.083,0.052,-0.099
44.17,-0.128,-0.247,-0.022
44.18,-0.123,-0.294,0.049
44.19,-0.187,-0.127,0.101
44.2,-0.222,-0.006,0.22
44.21,-0.203,0.234,0.081
44.22,-0.311,0.276,-0.024
44.23,-0.357,-0.035,-0.117
44.24,-0.321,0.003,-0.24
44.25,-0.346,-0.042,-0.078
44.26,-0.357,-0.066,0.036
44.27,-0.186,0.135,0.016
44.28,-0.106,0.111,0.063
44.29,-0.075,0.025,0.039
44.3,-0.098,0.055,0.056
44.31,-0.176,-0.123,0.081
44.32,-0.246,-0.106,0.034
44.33,-0.375,0.062,-0.004
44.34,-0.308,-0.042,0.004
44.35,-0.332,0.209,-0.094
44.36,-0.415,0.047,-0.031
44.37,-0.271,-0.051,-0.062
44.38,-0.191,-0.016,-0.071
44.39,-0.233,-0.062,0.02
44.4,-0.077,0.058,0.05
44.41,-0.119,0.117,0.112
44.42,-0.133,0.086,0.071
44.43,-0.155,-0.038,-0.028
44.44,-0.281,-0.11,-0.001
44.45,-0.324,-0.146,-0.006
44.46,-0.359,-0.047,0.001
44.47,-0.453,0.095,0.045
44.48,-0.306,0.103,-0.051
44.49,-0.19,0.17,-0.107
44.5,-0.13,0.05,-0.094
44.51,-0.113,-0.092,-0.032
44.52,-0.088,0.052,0.018
44.53,-0.149,-0.083,0.108
44.54,-0.203,0.052,0.095
44.55,-0.228,0.135,0.063
44.56,-0.367,0.008,0.055
44.57,-0.335,-0.015,-0.063
44.58,-0.418,-0.116,-0.067
44.59,-0.359,-0.033,-0.062
44.6,-0.229,0.083,-0.079
44.61,-0.176,0.135,-0.033
44.62,-0.102,0.186,-0.033
44.63,-0.135,0.147,0.014
44.64,-0.197,0.002,0.057
44.65,-0.169,-0.198,0.036
44.66,-0.283,-0.105,0.057
44.67,-0.281,-0.09,0.104
44.68,-0.295,0.069,0.046
44.69,-0.364,0.094,-0.059
44.7,-0.259,-0.044,-0.108
44.71,-0.209,0.004,-0.061
44.72,-0.21,0.031,-0.005
44.73,-0.222,0.0,0.03
44.74,-0.207,0.166,-0.015
44.75,-0.19,0.31,-0.018
44.76,-0.221,0.024,-0.03
44.77,-0.197,-0.067,-0.056
44.78,-0.154,-0.204,-0.003
44.79,-0.195,-0.346,0.093
44.8,-0.329,0.027,0.17
44.81,-0.338,0.018,0.179
44.82,-0.24,0.267,-0.023
44.83,-0.316,0.121,-0.112
44.84,-0.235,-0.034,-0.149
44.85,-0.217,-0.033,-0.12
44.86,-0.314,-0.01,0.052
44.87,-0.166,0.055,0.063
44.88,-0.141,0.208,0.079
44.89,-0.2,0.071,0.069
44.9,-0.15,-0.012,0.035
44.91,-0.319,-0.09,0.016
44.92,-0.359,-0.358,0.018
44.93,-0.315,-0.0,-0.034
44.94,-0.279,0.006,-0.013
44.95,-0.259,0.116,-0.046
44.96,-0.259,0.23,-0.042
44.97,-0.167,0.136,-0.034
44.98,-0.12,0.071,-0.069
44.99,-0.275,0.025,-0.014
45.0,-0.2,0.008,0.044
45.01,-0.246,-0.001,0.05
45.02,-0.248,0.0,0.028
45.03,-0.14,-0.105,-0.042
45.04,-0.313,-0.188,-0.005
45.05,-0.303,-0.106,0.054
45.06,-0.199,-0.124,0.06
45.07,-0.291,0.191,0.057
45.08,-0.26,0.166,-0.019
45.09,-0.199,0.154,-0.079
45.1,-0.152,0.204,-0.124
45.11,-0.252,-0.032,-0.054
45.12,-0.255,-0.108,0.012
45.13,-0.141,-0.026,-0.01
45.14,-0.299,-0.157,0.162
45.15,-0.263,-0.005,0.103
45.16,-0.198,0.055,0.064
45.17,-0.289,-0.072,0.023
45.18,-0.25,0.044,-0.086
45.19,-0.305,0.03,-0.067
45.2,-0.312,0.102,-0.059
45.21,-0.209,0.195,-0.08
45.22,-0.24,0.181,-0.043
45.23,-0.25,0.073,-0.039
45.24,-0.241,0.042,0.01
45.25,-0.184,-0.111,0.067
45.26,-0.182,-0.153,0.024
45.27,-0.25,-0.061,0.12
45.28,-0.155,-0.061,0.056
45.29,-0.188,0.128,-0.012
45.3,-0.266,0.038,-0.082
45.31,-0.198,-0.062,-0.089
45.32,-0.302,0.056,-0.037
45.33,-0.363,0.097,0.042
45.34,-0.285,0.139,0.01
45.35,-0.257,0.197,-0.02
45.36,-0.264,0.187,-0.063
45.37,-0.155,-0.123,-0.066
45.38,-0.083,-0.175,-0.021
45.39,-0.086,-0.346,0.056
45.4,-0.196,-0.229,0.176
45.41,-0.281,0.1,0.223
45.42,-0.308,0.111,0.102
45.43,-0.301,0.247,-0.124
45.44,-0.296,0.096,-0.189
45.45,-0.349,-0.051,-0.153
45.46,-0.302,0.013,-0.066
45.47,-0.286,0.087,-0.041
45.48,-0.198,0.04,0.034
45.49,-0.162,0.153,0.056
45.5,-0.077,0.048,0.091
45.51,-0.09,-0.115,0.074
45.52,-0.26,-0.136,0.08
45.53,-0.283,-0.193,0.012
45.54,-0.29,-0.053,-0.054
45.55,-0.337,0.133,-0.015
45.56,-0.224,0.206,-0.014
45.57,-0.317,0.202,-0.035
45.58,-0.309,0.137,-0.092
45.59,-0.191,-0.119,-0.108
45.6,-0.247,0.012,-0.057
45.61,-0.167,-0.064,0.069
45.62,-0.172,-0.024,0.108
45.63,-0.107,0.101,0.07
45.64,-0.137,-0.075,0.042
45.65,-0.253,-0.134,0.063
45.66,-0.214,-0.034,0.052
45.67,-0.333,-0.065,0.092
45.68,-0.416,0.139,-0.013
45.69,-0.288,-0.067,-0.149
45.7,-0.211,-0.048,-0.078
45.71,-0.188,0.07,-0.056
45.72,-0.154,0.107,0.035
45.73,-0.062,0.183,0.032
45.74,-0.188,0.165,0.092
45.75,-0.226,-0.11,0.082
45.76,-0.219,-0.156,-0.012
45.77,-0.347,-0.141,0.02
45.78,-0.324,-0.163,-0.021
45.79,-0.366,0.138,0.034
45.8,-0.256,0.045,0.014
45.81,-0.202,0.165,-0.032
45.82,-0.248,0.08,-0.035
45.83,-0.211,-0.047,-0.049
45.84,-0.21,0.041,-0.043
45.85,-0.198,0.042,0.001
45.86,-0.205,0.039,0.059
45.87,-0.192,0.124,-0.007
45.88,-0.141,-0.049,-0.042
45.89,-0.282,-0.225,0.023
45.9,-0.252,-0.035,0.069
45.91,-0.268,-0.083,0.078
45.92,-0.39,0.053,0.059
45.93,-0.186,0.254,-0.079
45.94,-0.278,0.144,-0.064
45.95,-0.245,0.065,-0.088
45.96,-0.146,-0.014,-0.094
45.97,-0.194,-0.131,0.022
45.98,-0.132,-0.033,0.02
45.99,-0.214,0.022,0.126
46.0,-0.198,0.054,0.099
46.01,-0.235,0.073,0.017
46.02,-0.36,-0.044,-0.02
46.03,-0.257,-0.151,-0.091
46.04,-0.391,0.067,-0.054
46.05,-0.337,0.11,-0.013
46.06,-0.171,0.15,-0.037
46.07,-0.196,0.241,-0.055
46.08,-0.177,0.068,0.02
46.09,-0.18,-0.006,0.055
46.1,-0.229,-0.128,0.049
46.11,-0.24,-0.228,0.004
46.12,-0.254,-0.069,0.028
46.13,-0.239,0.105,0.011
46.14,-0.294,0.005,0.027
46.15,-0.183,0.117,-0.068
46.16,-0.173,-0.062,-0.046
46.17,-0.269,-0.031,0.011
46.18,-0.262,0.101,0.013
46.19,-0.276,0.14,0.031
46.2,-0.29,0.275,-0.018
46.21,-0.229,0.154,-0.08
46.22,-0.209,-0.178,-0.051
46.23,-0.159,-0.224,-0.071
46.24,-0.171,-0.227,0.058
46.25,-0.225,-0.215,0.218
46.26,-0.181,0.131,0.129
46.27,-0.201,0.253,0.022
46.28,-0.231,0.076,-0.112
46.29,-0.308,0.21,-0.144
46.3,-0.343,-0.16,-0.084
46.31,-0.354,-0.042,-0.029
46.32,-0.334,0.044,0.028
46.33,-0.213,0.014,0.086
46.34,-0.225,0.13,0.054
46.35,-0.122,0.083,0.028
46.36,-0.132,-0.199,0.038
46.37,-0.217,-0.202,-0.036
46.38,-0.206,-0.087,-0.078
46.39,-0.281,-0.089,0.018
46.4,-0.309,0.281,0.025
46.41,-0.322,0.187,0.003
46.42,-0.323,0.16,-0.005
46.43,-0.206,0.174,-0.075
46.44,-0.309,-0.105,-0.036
46.45,-0.242,-0.108,-0.093
46.46,-0.169,0.051,-0.008
46.47,-0.169,-0.039,0.09
46.48,-0.099,0.053,0.03
46.49,-0.163,-0.071,0.007
46.5,-0.2,-0.22,0.06
46.51,-0.243,0.001,0.037
46.52,-0.377,-0.012,0.056
46.53,-0.361,0.086,-0.0
46.54,-0.255,0.318,-0.126
46.55,-0.252,0.133,-0.095
46.56,-0.21,-0.01,-0.117
46.57,-0.17,-0.033,-0.019
46.58,-0.188,-0.14,0.082
46.59,-0.19,-0.134,0.144
46.6,-0.243,-0.034,0.127
46.61,-0.128,0.046,0.05
46.62,-0.209,0.081,-0.015
46.63,-0.359,0.062,-0.035
46.64,-0.352,-0.025,-0.059
46.65,-0.311,0.133,-0.099
46.66,-0.313,0.122,-0.075
46.67,-0.244,0.062,-0.065
46.68,-0.225,0.102,-0.038
46.69,-0.239,0.059,0.012
46.7,-0.13,0.003,0.058
46.71,-0.092,-0.095,0.049
46.72,-0.206,-0.107,0.069
46.73,-0.152,-0.054,0.034
46.74,-0.172,0.026,0.046
46.75,-0.261,0.012,0.01
46.76,-0.364,0.05,-0.059
46.77,-0.354,-0.013,-0.062
46.78,-0.293,0.102,-0.024
46.79,-0.336,0.142,-0.019
46.8,-0.35,0.095,0.009
46.81,-0.242,0.091,-0.026
46.82,-0.029,0.11,-0.067
46.83,-0.035,-0.167,0.007
46.84,-0.071,-0.245,0.041
46.85,-0.158,-0.178,0.088
46.86,-0.255,-0.177,0.18
46.87,-0.292,0.178,0.086
46.88,-0.395,0.26,0.0
46.89,-0.392,0.043,-0.114
46.9,-0.404,0.121,-0.226
46.91,-0.35,-0.041,-0.099
46.92,-0.212,-0.074,-0.028
46.93,-0.148,0.129,0.051
46.94,-0.126,0.041,0.113
46.95,-0.02,0.067,0.021
46.96,-0.049,0.092,0.023
46.97,-0.207,-0.148,0.074
46.98,-0.331,-0.059,0.022
46.99,-0.352,-0.079,-0.031
47.0,-0.389,-0.084,-0.003
47.01,-0.367,0.219,-0.069
47.02,-0.357,0.086,0.004
47.03,-0.272,0.098,-0.04
47.04,-0.159,0.13,-0.084
47.05,-0.105,-0.071,-0.039
47.06,-0.138,-0.079,0.003
47.07,-0.123,0.037,0.098
47.08,-0.172,0.018,0.155
47.09,-0.229,-0.043,0.053
47.1,-0.269,0.01,-0.0
47.11,-0.275,-0.225,0.014
47.12,-0.333,0.049,-0.04
47.13,-0.413,0.038,-0.012
47.14,-0.319,0.013,-0.034
47.15,-0.189,0.242,-0.117
47.16,-0.182,0.083,-0.09
47.17,-0.135,-0.032,-0.025
47.18,-0.159,0.023,0.039
47.19,-0.134,-0.035,0.089
47.2,-0.232,-0.055,0.091
47.21,-0.223,0.057,0.075
47.22,-0.175,0.051,0.049
47.23,-0.264,0.014,-0.034
47.24,-0.392,-0.035,-0.073
47.25,-0.401,-0.124,-0.064
47.26,-0.308,0.064,-0.047
47.27,-0.206,0.195,-0.057
47.28,-0.209,0.114,-0.032
47.29,-0.21,0.184,-0.023
47.3,-0.186,0.126,0.049
47.31,-0.133,-0.104,0.068
47.32,-0.124,-0.057,0.018
47.33,-0.184,-0.198,0.067
47.34,-0.206,-0.048,0.074
47.35,-0.308,0.031,0.037
47.36,-0.37,-0.057,-0.012
47.37,-0.262,0.023,-0.12
47.38,-0.299,0.031,-0.06
47.39,-0.313,0.028,0.007
47.4,-0.249,0.221,0.004
47.41,-0.25,0.229,0.002
47.42,-0.166,0.092,-0.071
47.43,-0.082,0.012,-0.095
47.44,-0.129,-0.19,0.021
47.45,-0.128,-0.298,0.078
