t,ax,ay,az
0.0,-0.593,0.35,-0.007
0.01,-0.597,0.343,-0.001
0.02,-0.597,0.343,-0.005
0.03,-0.595,0.343,0.007
0.04,-0.594,0.34,-0.0
0.05,-0.595,0.336,0.003
0.06,-0.593,0.336,0.007
0.07,-0.595,0.338,-0.007
0.08,-0.593,0.347,0.002
0.09,-0.598,0.34,0.001
0.1,-0.594,0.342,0.002
0.11,-0.594,0.343,0.0
0.12,-0.594,0.342,-0.0
0.13,-0.602,0.336,0.001
0.14,-0.597,0.341,0.003
0.15,-0.593,0.339,0.0
0.16,-0.597,0.344,0.008
0.17,-0.592,0.341,-0.01
0.18,-0.597,0.344,0.001
0.19,-0.6,0.345,0.001
0.2,-0.596,0.347,0.001
0.21,-0.594,0.342,0.005
0.22,-0.599,0.338,-0.004
0.23,-0.59,0.341,-0.001
0.24,-0.598,0.344,0.003
0.25,-0.596,0.34,-0.0
0.26,-0.6,0.341,-0.0
0.27,-0.601,0.342,-0.004
0.28,-0.598,0.34,-0.004
0.29,-0.595,0.336,0.003
0.3,-0.598,0.34,0.004
0.31,-0.599,0.338,0.003
0.32,-0.597,0.345,0.01
0.33,-0.597,0.341,0.007
0.34,-0.595,0.344,0.0
0.35,-0.596,0.342,-0.008
0.36,-0.598,0.345,0.007
0.37,-0.596,0.337,0.003
0.38,-0.597,0.341,-0.006
0.39,-0.597,0.341,0.004
0.4,-0.593,0.34,-0.009
0.41,-0.591,0.337,-0.007
0.42,-0.597,0.34,0.001
0.43,-0.597,0.341,-0.001
0.44,-0.59,0.341,0.003
0.45,-0.597,0.341,0.003
0.46,-0.598,0.343,0.003
0.47,-0.594,0.334,0.001
0.48,-0.598,0.334,0.004
0.49,-0.601,0.339,-0.005
0.5,-0.596,0.345,0.001
0.51,-0.598,0.344,0.006
0.52,-0.605,0.343,-0.001
0.53,-0.594,0.341,0.005
0.54,-0.596,0.339,-0.007
0.55,-0.598,0.344,-0.003
0.56,-0.596,0.346,-0.005
0.57,-0.593,0.337,0.003
0.58,-0.596,0.343,0.001
0.59,-0.598,0.341,0.007
0.6,-0.605,0.342,0.004
0.61,-0.605,0.34,-0.003
0.62,-0.597,0.337,0.002
0.63,-0.594,0.338,0.009
0.64,-0.595,0.338,0.001
0.65,-0.597,0.342,-0.006
0.66,-0.605,0.348,0.0
0.67,-0.591,0.341,-0.01
0.68,-0.596,0.341,-0.004
0.69,-0.597,0.335,-0.002
0.7,-0.592,0.343,-0.008
0.71,-0.593,0.343,-0.0
0.72,-0.593,0.336,0.002
0.73,-0.601,0.342,-0.002
0.74,-0.59,0.342,0.001
0.75,-0.599,0.34,0.006
0.76,-0.591,0.339,-0.002
0.77,-0.592,0.345,-0.001
0.78,-0.601,0.341,-0.0
0.79,-0.594,0.342,0.003
0.8,-0.594,0.343,-0.001
0.81,-0.606,0.335,-0.003
0.82,-0.605,0.342,0.003
0.83,-0.595,0.344,0.005
0.84,-0.593,0.345,0.005
0.85,-0.596,0.341,-0.002
0.86,-0.598,0.345,-0.005
0.87,-0.599,0.339,-0.002
0.88,-0.604,0.34,-0.002
0.89,-0.6,0.345,0.003
0.9,-0.596,0.343,-0.006
0.91,-0.594,0.344,-0.003
0.92,-0.594,0.336,0.003
0.93,-0.604,0.339,0.008
0.94,-0.598,0.338,-0.004
0.95,-0.594,0.338,0.003
0.96,-0.595,0.344,0.003
0.97,-0.596,0.343,-0.002
0.98,-0.597,0.348,0.001
0.99,-0.597,0.343,0.003
1.0,-0.592,0.346,0.006
1.01,-0.597,0.336,-0.005
1.02,-0.6,0.341,0.004
1.03,-0.598,0.342,0.002
1.04,-0.601,0.339,-0.001
1.05,-0.598,0.341,-0.005
1.06,-0.595,0.34,0.005
1.07,-0.593,0.341,0.0
1.08,-0.596,0.341,0.0
1.09,-0.601,0.341,0.003
1.1,-0.6,0.34,-0.002
1.11,-0.594,0.34,-0.005
1.12,-0.596,0.342,-0.002
1.13,-0.6,0.345,0.005
1.14,-0.594,0.343,0.001
1.15,-0.591,0.338,0.009
1.16,-0.597,0.34,-0.002
1.17,-0.595,0.342,-0.008
1.18,-0.595,0.344,-0.002
1.19,-0.591,0.342,-0.002
1.2,-0.598,0.341,0.001
1.21,-0.605,0.343,0.006
1.22,-0.6,0.338,0.002
1.23,-0.596,0.342,-0.001
1.24,-0.593,0.341,0.002
1.25,-0.595,0.341,-0.001
1.26,-0.596,0.342,0.0
1.27,-0.604,0.343,0.004
1.28,-0.59,0.339,0.006
1.29,-0.6,0.342,0.002
1.3,-0.596,0.34,-0.005
1.31,-0.594,0.344,0.005
1.32,-0.591,0.343,-0.009
1.33,-0.594,0.336,-0.005
1.34,-0.597,0.343,0.003
1.35,-0.6,0.345,0.006
1.36,-0.595,0.344,0.003
1.37,-0.594,0.343,0.002
1.38,-0.599,0.336,-0.009
1.39,-0.596,0.334,-0.004
1.4,-0.6,0.348,0.004
1.41,-0.602,0.344,-0.007
1.42,-0.598,0.339,-0.001
1.43,-0.599,0.342,0.001
1.44,-0.594,0.339,0.01
1.45,-0.597,0.345,0.004
1.46,-0.6,0.337,-0.004
1.47,-0.601,0.344,0.002
1.48,-0.596,0.343,-0.001
1.49,-0.592,0.341,-0.005
1.5,-0.596,0.342,-0.002
1.51,-0.599,0.346,0.003
1.52,-0.598,0.342,0.002
1.53,-0.598,0.344,0.004
1.54,-0.6,0.344,0.013
1.55,-0.595,0.341,-0.008
1.56,-0.601,0.343,0.003
1.57,-0.594,0.337,0.006
1.58,-0.59,0.342,-0.001
1.59,-0.599,0.344,0.004
1.6,-0.593,0.339,0.004
1.61,-0.601,0.34,0.003
1.62,-0.6,0.343,0.01
1.63,-0.591,0.341,0.003
1.64,-0.593,0.345,-0.0
1.65,-0.593,0.342,0.004
1.66,-0.599,0.344,0.001
1.67,-0.595,0.34,-0.005
1.68,-0.597,0.339,-0.004
1.69,-0.597,0.344,0.002
1.7,-0.595,0.342,-0.002
1.71,-0.592,0.338,0.002
1.72,-0.597,0.338,0.01
1.73,-0.593,0.339,-0.003
1.74,-0.6,0.341,-0.002
1.75,-0.598,0.344,-0.003
1.76,-0.592,0.335,-0.005
1.77,-0.598,0.344,-0.007
1.78,-0.599,0.339,-0.007
1.79,-0.595,0.339,0.006
1.8,-0.592,0.342,-0.001
1.81,-0.6,0.341,0.004
1.82,-0.593,0.339,0.001
1.83,-0.595,0.347,0.002
1.84,-0.601,0.341,0.006
1.85,-0.59,0.336,-0.007
1.86,-0.592,0.341,-0.001
1.87,-0.596,0.338,-0.001
1.88,-0.598,0.347,0.002
1.89,-0.603,0.339,-0.003
1.9,-0.594,0.338,-0.009
1.91,-0.598,0.339,-0.005
1.92,-0.592,0.345,-0.0
1.93,-0.594,0.341,0.013
1.94,-0.6,0.34,-0.012
1.95,-0.595,0.342,-0.0
1.96,-0.599,0.34,-0.002
1.97,-0.596,0.346,0.008
1.98,-0.597,0.343,-0.001
1.99,-0.593,0.346,0.004
2.0,-0.592,0.34,-0.005
2.01,-0.592,0.336,0.005
2.02,-0.599,0.346,-0.005
2.03,-0.59,0.342,0.001
2.04,-0.6,0.337,-0.001
2.05,-0.595,0.342,-0.006
2.06,-0.59,0.336,0.001
2.07,-0.6,0.343,0.008
2.08,-0.596,0.335,0.001
2.09,-0.595,0.348,0.002
2.1,-0.596,0.342,0.003
2.11,-0.596,0.338,0.006
2.12,-0.595,0.342,-0.003
2.13,-0.603,0.34,0.004
2.14,-0.592,0.345,-0.007
2.15,-0.594,0.34,-0.001
2.16,-0.591,0.346,0.001
2.17,-0.599,0.339,-0.004
2.18,-0.595,0.342,-0.002
2.19,-0.591,0.345,0.003
2.2,-0.596,0.341,-0.007
2.21,-0.592,0.346,0.0
2.22,-0.594,0.34,-0.002
2.23,-0.594,0.348,0.001
2.24,-0.594,0.339,0.0
2.25,-0.596,0.344,0.003
2.26,-0.601,0.344,-0.003
2.27,-0.598,0.345,-0.004
2.28,-0.605,0.342,-0.001
2.29,-0.594,0.341,0.012
2.3,-0.596,0.342,0.002
2.31,-0.595,0.348,-0.002
2.32,-0.595,0.339,0.009
2.33,-0.595,0.339,0.004
2.34,-0.593,0.342,-0.0
2.35,-0.603,0.344,0.002
2.36,-0.596,0.338,0.004
2.37,-0.594,0.342,-0.005
2.38,-0.594,0.341,-0.0
2.39,-0.6,0.336,0.001
2.4,-0.596,0.339,-0.001
2.41,-0.597,0.34,-0.001
2.42,-0.597,0.338,-0.004
2.43,-0.594,0.339,0.002
2.44,-0.598,0.344,-0.006
2.45,-0.597,0.341,-0.003
2.46,-0.6,0.337,0.003
2.47,-0.592,0.342,-0.004
2.48,-0.595,0.341,-0.007
2.49,-0.6,0.344,0.002
2.5,-0.594,0.341,0.008
2.51,-0.594,0.339,0.003
2.52,-0.594,0.343,-0.013
2.53,-0.595,0.342,0.004
2.54,-0.597,0.343,-0.003
2.55,-0.603,0.337,-0.004
2.56,-0.597,0.339,0.009
2.57,-0.594,0.343,-0.006
2.58,-0.594,0.345,-0.005
2.59,-0.597,0.342,0.0
2.6,-0.602,0.336,-0.008
2.61,-0.599,0.336,-0.003
2.62,-0.596,0.339,-0.009
2.63,-0.597,0.339,0.003
2.64,-0.601,0.341,-0.005
2.65,-0.594,0.341,0.002
2.66,-0.601,0.34,-0.001
2.67,-0.599,0.343,0.001
2.68,-0.592,0.342,-0.001
2.69,-0.595,0.342,-0.002
2.7,-0.593,0.336,-0.002
2.71,-0.594,0.344,0.003
2.72,-0.593,0.336,-0.009
2.73,-0.601,0.347,-0.005
2.74,-0.593,0.335,-0.003
2.75,-0.6,0.344,0.002
2.76,-0.598,0.342,-0.0
2.77,-0.6,0.342,0.002
2.78,-0.597,0.344,0.002
2.79,-0.596,0.34,0.007
2.8,-0.598,0.339,0.001
2.81,-0.584,0.342,0.003
2.82,-0.594,0.341,-0.004
2.83,-0.594,0.339,-0.004
2.84,-0.596,0.342,0.001
2.85,-0.594,0.345,-0.002
2.86,-0.588,0.342,0.003
2.87,-0.595,0.345,0.001
2.88,-0.596,0.337,-0.0
2.89,-0.602,0.341,-0.0
2.9,-0.595,0.337,-0.003
2.91,-0.6,0.341,0.002
2.92,-0.589,0.343,-0.005
2.93,-0.592,0.342,-0.003
2.94,-0.598,0.342,-0.001
2.95,-0.593,0.341,-0.002
2.96,-0.598,0.342,-0.008
2.97,-0.59,0.345,-0.001
2.98,-0.594,0.347,0.003
2.99,-0.603,0.345,0.008
3.0,-0.595,0.341,0.003
3.01,-0.599,0.346,-0.0
3.02,-0.594,0.345,-0.006
3.03,-0.6,0.342,-0.007
3.04,-0.598,0.337,-0.001
3.05,-0.598,0.337,-0.004
3.06,-0.599,0.338,0.009
3.07,-0.597,0.343,-0.005
3.08,-0.597,0.34,-0.002
3.09,-0.598,0.336,0.002
3.1,-0.593,0.346,-0.0
3.11,-0.598,0.34,-0.005
3.12,-0.602,0.342,0.007
3.13,-0.601,0.343,-0.006
3.14,-0.595,0.337,-0.011
3.15,-0.594,0.337,-0.005
3.16,-0.595,0.339,0.0
3.17,-0.597,0.343,0.008
3.18,-0.6,0.339,-0.004
3.19,-0.6,0.34,0.001
3.2,-0.6,0.342,0.001
3.21,-0.595,0.343,-0.003
3.22,-0.596,0.341,0.001
3.23,-0.596,0.344,-0.004
3.24,-0.591,0.345,-0.004
3.25,-0.603,0.343,-0.011
3.26,-0.593,0.342,0.0
3.27,-0.595,0.335,0.005
3.28,-0.596,0.34,-0.001
3.29,-0.597,0.341,0.007
3.3,-0.603,0.34,-0.002
3.31,-0.595,0.339,0.002
3.32,-0.596,0.345,-0.011
3.33,-0.593,0.346,0.003
3.34,-0.601,0.342,0.002
3.35,-0.597,0.34,-0.002
3.36,-0.597,0.338,-0.002
3.37,-0.597,0.341,0.001
3.38,-0.595,0.344,-0.001
3.39,-0.596,0.342,-0.002
3.4,-0.593,0.342,0.004
3.41,-0.595,0.342,-0.002
3.42,-0.599,0.34,-0.0
3.43,-0.597,0.343,0.008
3.44,-0.596,0.34,0.001
3.45,-0.597,0.341,0.001
3.46,-0.595,0.343,-0.001
3.47,-0.593,0.343,-0.002
3.48,-0.593,0.342,0.002
3.49,-0.595,0.341,0.003
3.5,-0.597,0.342,0.002
3.51,-0.598,0.342,-0.005
3.52,-0.599,0.337,-0.002
3.53,-0.596,0.34,-0.007
3.54,-0.6,0.349,-0.002
3.55,-0.594,0.343,-0.004
3.56,-0.593,0.342,0.004
3.57,-0.595,0.34,-0.0
3.58,-0.597,0.34,0.01
3.59,-0.597,0.339,-0.0
3.6,-0.594,0.344,0.002
3.61,-0.601,0.342,-0.001
3.62,-0.599,0.344,0.001
3.63,-0.598,0.34,-0.006
3.64,-0.599,0.343,-0.009
3.65,-0.598,0.344,0.001
3.66,-0.596,0.338,0.001
3.67,-0.595,0.338,0.004
3.68,-0.597,0.347,-0.001
3.69,-0.597,0.343,-0.003
3.7,-0.597,0.343,0.0
3.71,-0.602,0.342,0.005
3.72,-0.599,0.344,-0.005
3.73,-0.592,0.337,-0.004
3.74,-0.595,0.343,-0.003
3.75,-0.587,0.341,-0.006
3.76,-0.594,0.342,0.0
3.77,-0.601,0.341,-0.002
3.78,-0.597,0.34,-0.002
3.79,-0.592,0.339,-0.005
3.8,-0.594,0.342,-0.0
3.81,-0.593,0.346,-0.003
3.82,-0.599,0.339,0.004
3.83,-0.593,0.343,-0.003
3.84,-0.598,0.341,0.001
3.85,-0.597,0.345,0.001
3.86,-0.593,0.345,0.001
3.87,-0.597,0.34,-0.001
3.88,-0.602,0.346,-0.004
3.89,-0.595,0.346,0.003
3.9,-0.594,0.339,-0.001
3.91,-0.601,0.346,0.004
3.92,-0.597,0.344,-0.002
3.93,-0.596,0.344,0.006
3.94,-0.6,0.341,-0.003
3.95,-0.599,0.343,0.01
3.96,-0.597,0.344,-0.006
3.97,-0.596,0.347,0.003
3.98,-0.595,0.344,0.003
3.99,-0.603,0.34,0.002
4.0,-0.595,0.343,0.005
4.01,-0.598,0.345,-0.001
4.02,-0.591,0.342,-0.015
4.03,-0.595,0.339,-0.005
4.04,-0.594,0.332,0.008
4.05,-0.594,0.341,0.004
4.06,-0.597,0.34,-0.001
4.07,-0.591,0.342,0.001
4.08,-0.596,0.343,0.0
4.09,-0.596,0.338,0.012
4.1,-0.601,0.335,0.006
4.11,-0.594,0.333,0.006
4.12,-0.594,0.345,-0.001
4.13,-0.604,0.343,-0.002
4.14,-0.599,0.345,0.006
4.15,-0.595,0.341,0.002
4.16,-0.599,0.344,0.005
4.17,-0.597,0.341,0.004
4.18,-0.596,0.345,-0.0
4.19,-0.599,0.338,0.007
4.2,-0.594,0.347,0.003
4.21,-0.594,0.342,0.001
4.22,-0.601,0.342,0.001
4.23,-0.598,0.338,-0.004
4.24,-0.596,0.34,0.001
4.25,-0.6,0.339,0.005
4.26,-0.601,0.342,-0.004
4.27,-0.591,0.344,-0.0
4.28,-0.595,0.342,-0.003
4.29,-0.599,0.344,-0.011
4.3,-0.6,0.344,0.004
4.31,-0.593,0.342,0.0
4.32,-0.593,0.335,-0.005
4.33,-0.602,0.34,0.001
4.34,-0.594,0.34,0.004
4.35,-0.595,0.341,0.007
4.36,-0.594,0.338,-0.001
4.37,-0.592,0.336,0.003
4.38,-0.595,0.341,0.004
4.39,-0.598,0.338,0.005
4.4,-0.598,0.343,0.001
4.41,-0.593,0.34,-0.001
4.42,-0.597,0.346,-0.001
4.43,-0.597,0.346,0.003
4.44,-0.599,0.342,0.001
4.45,-0.597,0.337,-0.0
4.46,-0.595,0.346,0.004
4.47,-0.593,0.341,-0.003
4.48,-0.593,0.34,0.001
4.49,-0.595,0.341,0.003
4.5,-0.596,0.342,-0.001
4.51,-0.598,0.341,0.002
4.52,-0.599,0.345,-0.002
4.53,-0.594,0.345,0.002
4.54,-0.596,0.345,-0.007
4.55,-0.592,0.345,0.0
4.56,-0.597,0.343,0.0
4.57,-0.604,0.34,0.005
4.58,-0.6,0.339,0.001
4.59,-0.597,0.339,0.01
4.6,-0.597,0.341,-0.005
4.61,-0.604,0.344,-0.001
4.62,-0.588,0.345,0.009
4.63,-0.596,0.337,0.003
4.64,-0.595,0.342,-0.003
4.65,-0.604,0.345,0.003
4.66,-0.602,0.343,0.0
4.67,-0.593,0.34,-0.006
4.68,-0.598,0.343,-0.007
4.69,-0.602,0.339,0.004
4.7,-0.598,0.343,0.004
4.71,-0.602,0.334,0.002
4.72,-0.595,0.342,-0.0
4.73,-0.595,0.341,0.002
4.74,-0.596,0.337,-0.006
4.75,-0.597,0.345,0.0
4.76,-0.597,0.338,0.007
4.77,-0.601,0.344,-0.0
4.78,-0.59,0.342,0.01
4.79,-0.595,0.338,0.002
4.8,-0.598,0.343,-0.006
4.81,-0.592,0.345,-0.001
4.82,-0.6,0.342,-0.005
4.83,-0.597,0.341,-0.003
4.84,-0.598,0.338,0.003
4.85,-0.598,0.343,0.007
4.86,-0.596,0.344,-0.01
4.87,-0.596,0.343,0.002
4.88,-0.601,0.34,0.0
4.89,-0.596,0.342,-0.001
4.9,-0.598,0.335,-0.003
4.91,-0.596,0.338,-0.001
4.92,-0.596,0.344,-0.004
4.93,-0.593,0.344,-0.002
4.94,-0.599,0.34,0.005
4.95,-0.601,0.339,0.002
4.96,-0.595,0.344,-0.004
4.97,-0.59,0.34,-0.003
4.98,-0.594,0.346,0.003
4.99,-0.602,0.345,0.004
5.0,-0.602,0.34,0.001
5.01,-0.598,0.339,-0.001
5.02,-0.596,0.343,0.001
5.03,-0.594,0.342,-0.014
5.04,-0.6,0.343,0.001
5.05,-0.592,0.343,0.005
5.06,-0.599,0.343,-0.002
5.07,-0.598,0.342,0.002
5.08,-0.594,0.339,-0.005
5.09,-0.596,0.342,-0.0
5.1,-0.595,0.346,-0.003
5.11,-0.594,0.34,0.007
5.12,-0.6,0.346,0.006
5.13,-0.596,0.342,-0.007
5.14,-0.597,0.343,-0.004
5.15,-0.596,0.337,0.003
5.16,-0.593,0.342,0.007
5.17,-0.601,0.341,-0.001
5.18,-0.594,0.347,0.006
5.19,-0.592,0.345,0.003
5.2,-0.593,0.337,-0.003
5.21,-0.599,0.339,0.002
5.22,-0.597,0.337,0.007
5.23,-0.597,0.333,-0.001
5.24,-0.596,0.338,-0.008
5.25,-0.594,0.348,0.01
5.26,-0.594,0.333,0.002
5.27,-0.598,0.343,-0.006
5.28,-0.596,0.345,-0.008
5.29,-0.595,0.343,-0.001
5.3,-0.598,0.341,0.003
5.31,-0.597,0.341,-0.0
5.32,-0.596,0.347,0.001
5.33,-0.596,0.346,-0.001
5.34,-0.594,0.346,0.002
5.35,-0.596,0.338,0.0
5.36,-0.601,0.345,0.001
5.37,-0.595,0.342,-0.0
5.38,-0.602,0.345,-0.003
5.39,-0.596,0.338,0.006
5.4,-0.6,0.337,-0.009
5.41,-0.593,0.335,-0.003
5.42,-0.605,0.341,0.002
5.43,-0.6,0.344,0.002
5.44,-0.601,0.341,0.006
5.45,-0.598,0.344,-0.005
5.46,-0.598,0.342,0.003
5.47,-0.6,0.341,0.006
5.48,-0.594,0.341,-0.005
5.49,-0.597,0.337,0.005
5.5,-0.593,0.335,0.002
5.51,-0.593,0.345,-0.002
5.52,-0.595,0.34,-0.002
5.53,-0.594,0.338,-0.001
5.54,-0.596,0.34,0.002
5.55,-0.598,0.339,0.002
5.56,-0.602,0.336,0.002
5.57,-0.592,0.341,-0.002
5.58,-0.598,0.341,0.005
5.59,-0.594,0.342,0.014
5.6,-0.6,0.342,-0.006
5.61,-0.594,0.341,-0.007
5.62,-0.594,0.341,0.005
5.63,-0.597,0.338,0.001
5.64,-0.599,0.344,-0.0
5.65,-0.599,0.341,-0.002
5.66,-0.598,0.338,-0.001
5.67,-0.603,0.34,0.004
5.68,-0.6,0.336,-0.003
5.69,-0.599,0.34,0.003
5.7,-0.594,0.337,-0.001
5.71,-0.599,0.34,0.004
5.72,-0.601,0.342,-0.001
5.73,-0.592,0.341,0.001
5.74,-0.604,0.34,-0.0
5.75,-0.591,0.341,0.001
5.76,-0.598,0.342,-0.01
5.77,-0.597,0.339,0.001
5.78,-0.592,0.339,-0.005
5.79,-0.597,0.344,0.011
5.8,-0.597,0.34,0.004
5.81,-0.585,0.345,-0.002
5.82,-0.598,0.339,-0.004
5.83,-0.604,0.343,-0.003
5.84,-0.598,0.341,0.004
5.85,-0.598,0.341,-0.001
5.86,-0.597,0.339,-0.003
5.87,-0.596,0.344,0.001
5.88,-0.595,0.338,0.004
5.89,-0.593,0.341,-0.003
5.9,-0.592,0.341,-0.001
5.91,-0.594,0.338,-0.005
5.92,-0.592,0.341,0.005
5.93,-0.594,0.34,0.001
5.94,-0.601,0.342,0.006
5.95,-0.597,0.341,0.003
5.96,-0.601,0.342,0.004
5.97,-0.594,0.342,0.006
5.98,-0.597,0.338,-0.001
5.99,-0.596,0.344,0.007
6.0,-0.599,0.341,0.01
6.01,-0.594,0.344,-0.004
6.02,-0.596,0.343,-0.001
6.03,-0.591,0.345,-0.001
6.04,-0.595,0.342,0.001
6.05,-0.598,0.34,-0.0
6.06,-0.595,0.344,0.002
6.07,-0.591,0.342,0.009
6.08,-0.595,0.34,0.001
6.09,-0.596,0.339,-0.006
6.1,-0.597,0.338,-0.001
6.11,-0.596,0.337,0.006
6.12,-0.594,0.342,-0.0
6.13,-0.597,0.342,-0.0
6.14,-0.6,0.342,0.001
6.15,-0.6,0.342,-0.009
6.16,-0.593,0.342,0.001
6.17,-0.596,0.336,-0.001
6.18,-0.594,0.342,-0.003
6.19,-0.597,0.349,-0.002
6.2,-0.596,0.337,0.003
6.21,-0.6,0.338,0.01
6.22,-0.592,0.344,0.001
6.23,-0.594,0.334,-0.0
6.24,-0.59,0.341,-0.001
6.25,-0.593,0.343,-0.002
6.26,-0.597,0.343,0.0
6.27,-0.59,0.349,0.011
6.28,-0.593,0.345,0.004
6.29,-0.593,0.346,0.011
6.3,-0.6,0.338,0.009
6.31,-0.6,0.349,-0.01
6.32,-0.598,0.343,0.007
6.33,-0.594,0.342,0.0
6.34,-0.599,0.344,0.002
6.35,-0.595,0.342,0.005
6.36,-0.595,0.345,0.002
6.37,-0.595,0.339,0.001
6.38,-0.601,0.339,-0.006
6.39,-0.598,0.337,-0.003
6.4,-0.592,0.342,-0.007
6.41,-0.596,0.335,0.007
6.42,-0.6,0.339,-0.006
6.43,-0.599,0.342,-0.0
6.44,-0.603,0.343,0.001
6.45,-0.594,0.34,-0.007
6.46,-0.597,0.346,-0.006
6.47,-0.599,0.343,-0.006
6.48,-0.603,0.343,0.002
6.49,-0.595,0.34,-0.009
6.5,-0.593,0.339,0.0
6.51,-0.597,0.341,0.002
6.52,-0.595,0.341,-0.006
6.53,-0.595,0.336,-0.006
6.54,-0.592,0.337,-0.001
6.55,-0.594,0.342,-0.007
6.56,-0.595,0.341,-0.003
6.57,-0.594,0.344,-0.01
6.58,-0.598,0.34,0.005
6.59,-0.595,0.342,0.002
6.6,-0.593,0.344,-0.005
6.61,-0.593,0.346,0.001
6.62,-0.598,0.34,-0.0
6.63,-0.594,0.342,0.003
6.64,-0.596,0.337,0.0
6.65,-0.59,0.343,0.002
6.66,-0.592,0.338,0.001
6.67,-0.602,0.338,0.002
6.68,-0.596,0.34,0.005
6.69,-0.598,0.338,-0.004
6.7,-0.6,0.343,-0.005
6.71,-0.595,0.34,0.002
6.72,-0.595,0.341,-0.005
6.73,-0.595,0.345,-0.002
6.74,-0.602,0.339,0.002
6.75,-0.598,0.341,-0.004
6.76,-0.594,0.34,0.002
6.77,-0.596,0.343,-0.005
6.78,-0.592,0.346,0.01
6.79,-0.59,0.341,0.003
6.8,-0.596,0.339,-0.001
6.81,-0.599,0.343,-0.009
6.82,-0.602,0.345,-0.003
6.83,-0.599,0.346,0.007
6.84,-0.597,0.344,-0.006
6.85,-0.597,0.336,0.0
6.86,-0.599,0.34,-0.002
6.87,-0.599,0.345,0.005
6.88,-0.596,0.342,0.005
6.89,-0.6,0.34,0.002
6.9,-0.595,0.339,-0.003
6.91,-0.596,0.339,-0.007
6.92,-0.595,0.341,-0.005
6.93,-0.599,0.345,-0.002
6.94,-0.597,0.341,-0.008
6.95,-0.597,0.339,0.001
6.96,-0.603,0.341,-0.001
6.97,-0.597,0.342,-0.002
6.98,-0.595,0.338,-0.003
6.99,-0.599,0.34,0.002
7.0,-0.597,0.339,-0.011
7.01,-0.597,0.341,0.0
7.02,-0.592,0.34,0.004
7.03,-0.597,0.343,0.01
7.04,-0.592,0.342,-0.004
7.05,-0.602,0.344,0.005
7.06,-0.603,0.344,-0.004
7.07,-0.593,0.342,-0.002
7.08,-0.593,0.336,0.006
7.09,-0.598,0.338,0.0
7.1,-0.593,0.336,0.003
7.11,-0.602,0.342,-0.004
7.12,-0.594,0.342,0.004
7.13,-0.595,0.348,0.003
7.14,-0.592,0.341,0.002
7.15,-0.598,0.348,0.006
7.16,-0.597,0.339,-0.003
7.17,-0.602,0.341,-0.001
7.18,-0.597,0.342,0.006
7.19,-0.596,0.342,0.002
7.2,-0.592,0.344,-0.004
7.21,-0.599,0.346,0.003
7.22,-0.595,0.342,-0.002
7.23,-0.597,0.34,0.002
7.24,-0.597,0.336,0.001
7.25,-0.599,0.339,-0.003
7.26,-0.593,0.344,0.003
7.27,-0.596,0.343,-0.01
7.28,-0.598,0.337,-0.001
7.29,-0.598,0.342,-0.011
7.3,-0.594,0.341,-0.001
7.31,-0.594,0.341,0.001
7.32,-0.591,0.344,-0.001
7.33,-0.593,0.339,-0.002
7.34,-0.599,0.341,0.007
7.35,-0.602,0.341,0.004
7.36,-0.594,0.343,-0.005
7.37,-0.596,0.337,-0.005
7.38,-0.594,0.345,-0.006
7.39,-0.594,0.347,0.005
7.4,-0.598,0.344,-0.002
7.41,-0.6,0.339,-0.005
7.42,-0.595,0.339,-0.002
7.43,-0.597,0.344,-0.005
7.44,-0.598,0.341,0.005
7.45,-0.594,0.344,-0.003
7.46,-0.587,0.343,0.005
7.47,-0.593,0.337,0.003
7.48,-0.598,0.337,-0.004
7.49,-0.595,0.339,0.004
7.5,-0.597,0.347,-0.003
7.51,-0.602,0.336,0.004
7.52,-0.594,0.341,-0.005
7.53,-0.591,0.344,-0.005
7.54,-0.597,0.342,0.003
7.55,-0.593,0.344,0.003
7.56,-0.591,0.342,0.005
7.57,-0.596,0.34,-0.006
7.58,-0.591,0.342,0.011
7.59,-0.591,0.347,-0.006
7.6,-0.597,0.338,0.002
7.61,-0.598,0.342,-0.007
7.62,-0.597,0.346,0.0
7.63,-0.593,0.346,-0.003
7.64,-0.595,0.346,0.007
7.65,-0.6,0.338,-0.003
7.66,-0.598,0.339,-0.001
7.67,-0.592,0.341,0.004
7.68,-0.595,0.348,-0.001
7.69,-0.599,0.342,0.001
7.7,-0.595,0.338,0.001
7.71,-0.598,0.339,-0.002
7.72,-0.595,0.344,-0.005
7.73,-0.602,0.344,0.002
7.74,-0.598,0.343,-0.014
7.75,-0.6,0.344,-0.002
7.76,-0.598,0.34,-0.004
7.77,-0.595,0.341,0.0
7.78,-0.6,0.339,-0.002
7.79,-0.593,0.342,0.006
7.8,-0.594,0.34,-0.003
7.81,-0.599,0.344,-0.005
7.82,-0.601,0.342,-0.004
7.83,-0.594,0.342,-0.002
7.84,-0.597,0.343,-0.001
7.85,-0.6,0.343,0.005
7.86,-0.599,0.343,-0.004
7.87,-0.598,0.34,0.005
7.88,-0.598,0.338,-0.006
7.89,-0.601,0.343,0.002
7.9,-0.603,0.341,0.002
7.91,-0.597,0.34,-0.0
7.92,-0.59,0.336,0.001
7.93,-0.593,0.34,0.002
7.94,-0.604,0.341,-0.008
7.95,-0.599,0.342,0.003
7.96,-0.597,0.339,0.0
7.97,-0.594,0.341,-0.003
7.98,-0.594,0.342,0.001
7.99,-0.593,0.341,0.003
8.0,-0.598,0.351,-0.005
8.01,-0.594,0.346,-0.0
8.02,-0.587,0.336,-0.006
8.03,-0.6,0.348,-0.001
8.04,-0.599,0.339,-0.001
8.05,-0.597,0.34,0.005
8.06,-0.598,0.342,0.003
8.07,-0.596,0.34,0.013
8.08,-0.604,0.344,0.004
8.09,-0.599,0.344,-0.002
8.1,-0.596,0.347,-0.005
8.11,-0.593,0.343,0.009
8.12,-0.598,0.335,-0.003
8.13,-0.6,0.339,-0.001
8.14,-0.594,0.338,0.005
8.15,-0.59,0.342,0.0
8.16,-0.602,0.344,0.009
8.17,-0.599,0.344,-0.009
8.18,-0.6,0.343,-0.002
8.19,-0.602,0.343,-0.002
8.2,-0.597,0.343,0.003
8.21,-0.594,0.341,-0.008
8.22,-0.596,0.341,-0.007
8.23,-0.596,0.34,-0.004
8.24,-0.599,0.34,-0.001
8.25,-0.598,0.342,0.001
8.26,-0.598,0.345,-0.012
8.27,-0.599,0.342,-0.002
8.28,-0.594,0.334,-0.004
8.29,-0.596,0.342,-0.008
8.3,-0.594,0.338,-0.001
8.31,-0.602,0.342,-0.003
8.32,-0.592,0.338,-0.009
8.33,-0.595,0.342,0.009
8.34,-0.599,0.345,-0.0
8.35,-0.595,0.346,0.006
8.36,-0.594,0.34,0.003
8.37,-0.603,0.344,-0.004
8.38,-0.594,0.343,0.002
8.39,-0.6,0.339,0.006
8.4,-0.603,0.347,-0.002
8.41,-0.591,0.339,-0.005
8.42,-0.594,0.343,-0.007
8.43,-0.594,0.344,-0.0
8.44,-0.594,0.351,0.001
8.45,-0.597,0.345,-0.008
8.46,-0.591,0.339,-0.008
8.47,-0.595,0.347,-0.002
8.48,-0.591,0.339,0.004
8.49,-0.6,0.337,0.001
8.5,-0.596,0.337,0.002
8.51,-0.595,0.342,-0.002
8.52,-0.593,0.339,-0.001
8.53,-0.6,0.34,-0.006
8.54,-0.6,0.339,0.002
8.55,-0.606,0.344,-0.003
8.56,-0.596,0.338,-0.002
8.57,-0.596,0.335,0.002
8.58,-0.594,0.341,-0.003
8.59,-0.603,0.341,-0.008
8.6,-0.597,0.338,-0.004
8.61,-0.593,0.34,0.003
8.62,-0.599,0.342,0.0
8.63,-0.594,0.342,0.005
8.64,-0.597,0.34,0.004
8.65,-0.601,0.345,0.005
8.66,-0.6,0.342,0.003
8.67,-0.6,0.342,-0.006
8.68,-0.593,0.344,-0.0
8.69,-0.594,0.336,-0.006
8.7,-0.593,0.336,-0.0
8.71,-0.599,0.339,-0.001
8.72,-0.593,0.34,0.005
8.73,-0.596,0.339,-0.004
8.74,-0.598,0.339,0.0
8.75,-0.601,0.345,0.002
8.76,-0.594,0.34,0.01
8.77,-0.594,0.337,-0.005
8.78,-0.593,0.338,0.003
8.79,-0.593,0.341,0.003
8.8,-0.598,0.339,0.004
8.81,-0.598,0.347,-0.002
8.82,-0.601,0.339,0.01
8.83,-0.601,0.344,0.007
8.84,-0.598,0.344,0.005
8.85,-0.592,0.345,0.006
8.86,-0.6,0.344,0.001
8.87,-0.601,0.342,-0.003
8.88,-0.597,0.345,0.004
8.89,-0.597,0.343,0.006
8.9,-0.598,0.345,-0.008
8.91,-0.605,0.34,0.004
8.92,-0.598,0.341,-0.006
8.93,-0.594,0.342,0.006
8.94,-0.601,0.343,-0.007
8.95,-0.594,0.336,-0.002
8.96,-0.6,0.346,-0.0
8.97,-0.592,0.343,0.002
8.98,-0.593,0.343,0.002
8.99,-0.595,0.34,-0.007
9.0,-0.598,0.344,0.001
9.01,-0.6,0.341,0.0
9.02,-0.597,0.347,-0.001
9.03,-0.593,0.339,0.007
9.04,-0.603,0.344,-0.005
9.05,-0.603,0.339,0.002
9.06,-0.594,0.337,-0.003
9.07,-0.594,0.341,-0.01
9.08,-0.598,0.338,-0.007
9.09,-0.593,0.344,0.011
9.1,-0.595,0.346,0.002
9.11,-0.594,0.336,-0.0
9.12,-0.6,0.347,0.002
9.13,-0.594,0.341,-0.002
9.14,-0.593,0.34,-0.001
9.15,-0.595,0.343,-0.002
9.16,-0.597,0.341,0.001
9.17,-0.598,0.341,-0.001
9.18,-0.597,0.339,0.004
9.19,-0.598,0.341,0.007
9.2,-0.594,0.343,-0.003
9.21,-0.594,0.342,0.003
9.22,-0.592,0.341,0.002
9.23,-0.6,0.34,0.006
9.24,-0.598,0.342,0.002
9.25,-0.598,0.341,0.004
9.26,-0.598,0.347,-0.007
9.27,-0.598,0.339,0.002
9.28,-0.592,0.34,-0.002
9.29,-0.599,0.342,0.003
9.3,-0.598,0.34,-0.004
9.31,-0.596,0.34,-0.002
9.32,-0.593,0.339,-0.003
9.33,-0.597,0.342,-0.008
9.34,-0.599,0.34,0.006
9.35,-0.598,0.339,-0.001
9.36,-0.594,0.344,0.004
9.37,-0.592,0.338,-0.004
9.38,-0.602,0.341,-0.002
9.39,-0.594,0.344,0.001
9.4,-0.597,0.341,0.009
9.41,-0.591,0.34,-0.006
9.42,-0.593,0.342,0.007
9.43,-0.595,0.338,0.003
9.44,-0.599,0.343,-0.007
9.45,-0.597,0.339,-0.001
9.46,-0.603,0.341,-0.005
9.47,-0.598,0.343,0.003
9.48,-0.593,0.342,-0.005
9.49,-0.591,0.339,-0.001
9.5,-0.602,0.339,-0.003
9.51,-0.599,0.342,-0.002
9.52,-0.601,0.338,0.002
9.53,-0.599,0.342,-0.002
9.54,-0.6,0.338,0.002
9.55,-0.594,0.334,0.002
9.56,-0.596,0.345,-0.003
9.57,-0.599,0.339,0.003
9.58,-0.603,0.343,0.005
9.59,-0.6,0.34,-0.002
9.6,-0.598,0.345,0.004
9.61,-0.592,0.337,-0.003
9.62,-0.593,0.341,0.009
9.63,-0.6,0.339,-0.003
9.64,-0.593,0.34,0.007
9.65,-0.594,0.342,-0.0
9.66,-0.591,0.339,0.001
9.67,-0.598,0.339,0.001
9.68,-0.6,0.343,0.001
9.69,-0.594,0.339,0.001
9.7,-0.594,0.339,-0.0
9.71,-0.603,0.342,-0.001
9.72,-0.599,0.341,-0.005
9.73,-0.597,0.339,0.001
9.74,-0.598,0.339,0.002
9.75,-0.597,0.343,-0.001
9.76,-0.596,0.341,-0.003
9.77,-0.603,0.344,0.009
9.78,-0.596,0.345,0.006
9.79,-0.594,0.337,0.008
9.8,-0.593,0.336,0.001
9.81,-0.6,0.343,-0.006
9.82,-0.601,0.345,-0.001
9.83,-0.598,0.345,0.002
9.84,-0.595,0.338,0.01
9.85,-0.595,0.343,-0.003
9.86,-0.598,0.34,-0.002
9.87,-0.594,0.341,0.001
9.88,-0.598,0.345,-0.001
9.89,-0.596,0.341,-0.003
9.9,-0.597,0.339,-0.004
9.91,-0.601,0.344,-0.002
9.92,-0.595,0.338,-0.012
9.93,-0.593,0.343,-0.002
9.94,-0.593,0.342,-0.002
9.95,-0.599,0.342,0.004
9.96,-0.602,0.346,0.008
9.97,-0.594,0.342,0.008
9.98,-0.602,0.342,-0.006
9.99,-0.597,0.344,-0.006
10.0,-0.598,0.338,-0.006
10.01,-0.596,0.341,-0.001
10.02,-0.6,0.342,-0.003
10.03,-0.595,0.341,0.009
10.04,-0.6,0.339,-0.004
10.05,-0.597,0.341,0.0
10.06,-0.599,0.344,0.012
10.07,-0.606,0.344,0.0
10.08,-0.598,0.342,-0.003
10.09,-0.596,0.337,0.002
10.1,-0.6,0.341,-0.004
10.11,-0.594,0.345,0.008
10.12,-0.595,0.345,-0.01
10.13,-0.595,0.34,-0.004
10.14,-0.602,0.342,0.005
10.15,-0.597,0.34,-0.001
10.16,-0.594,0.345,0.0
10.17,-0.597,0.343,-0.007
10.18,-0.597,0.337,0.002
10.19,-0.594,0.345,0.004
10.2,-0.596,0.341,-0.001
10.21,-0.599,0.34,-0.004
10.22,-0.593,0.339,0.005
10.23,-0.597,0.344,0.004
10.24,-0.598,0.335,-0.003
10.25,-0.598,0.344,0.004
10.26,-0.593,0.335,-0.006
10.27,-0.594,0.337,0.001
10.28,-0.596,0.337,-0.001
10.29,-0.595,0.342,-0.0
10.3,-0.606,0.339,0.0
10.31,-0.595,0.343,0.007
10.32,-0.597,0.344,0.002
10.33,-0.601,0.349,-0.003
10.34,-0.598,0.34,0.004
10.35,-0.601,0.336,0.006
10.36,-0.594,0.344,0.007
10.37,-0.595,0.339,-0.005
10.38,-0.6,0.341,-0.003
10.39,-0.593,0.344,0.005
10.4,-0.597,0.335,-0.0
10.41,-0.598,0.342,-0.001
10.42,-0.599,0.34,-0.004
10.43,-0.602,0.337,0.003
10.44,-0.598,0.339,0.005
10.45,-0.597,0.343,-0.011
10.46,-0.597,0.346,-0.002
10.47,-0.595,0.34,-0.005
10.48,-0.596,0.342,0.001
10.49,-0.597,0.346,-0.002
10.5,-0.592,0.343,-0.003
10.51,-0.589,0.337,-0.003
10.52,-0.591,0.341,0.005
10.53,-0.601,0.34,0.0
10.54,-0.6,0.34,-0.001
10.55,-0.593,0.341,0.004
10.56,-0.596,0.341,-0.002
10.57,-0.596,0.338,0.007
10.58,-0.596,0.339,-0.0
10.59,-0.594,0.345,-0.001
10.6,-0.599,0.341,0.008
10.61,-0.595,0.341,-0.003
10.62,-0.6,0.347,0.002
10.63,-0.595,0.34,0.004
10.64,-0.605,0.338,0.003
10.65,-0.598,0.341,0.002
10.66,-0.596,0.342,-0.007
10.67,-0.6,0.339,-0.001
10.68,-0.6,0.342,0.004
10.69,-0.602,0.339,0.002
10.7,-0.603,0.342,-0.003
10.71,-0.596,0.343,0.002
10.72,-0.595,0.339,-0.0
10.73,-0.594,0.344,-0.003
10.74,-0.599,0.346,0.001
10.75,-0.6,0.344,0.003
10.76,-0.596,0.341,0.004
10.77,-0.598,0.337,-0.005
10.78,-0.592,0.345,0.003
10.79,-0.598,0.341,0.001
10.8,-0.602,0.345,-0.002
10.81,-0.591,0.344,-0.002
10.82,-0.596,0.342,-0.003
10.83,-0.596,0.342,0.003
10.84,-0.597,0.344,0.003
10.85,-0.597,0.339,-0.0
10.86,-0.593,0.34,0.006
10.87,-0.598,0.344,-0.002
10.88,-0.597,0.341,0.002
10.89,-0.596,0.34,-0.006
10.9,-0.594,0.339,-0.0
10.91,-0.592,0.338,-0.01
10.92,-0.598,0.344,-0.006
10.93,-0.599,0.344,-0.0
10.94,-0.594,0.342,0.005
10.95,-0.595,0.345,-0.009
10.96,-0.602,0.339,0.002
10.97,-0.598,0.341,-0.004
10.98,-0.593,0.348,-0.003
10.99,-0.596,0.343,0.004
11.0,-0.6,0.337,-0.002
11.01,-0.595,0.337,-0.005
11.02,-0.598,0.339,-0.004
11.03,-0.603,0.339,-0.008
11.04,-0.598,0.346,0.001
11.05,-0.594,0.346,0.0
11.06,-0.598,0.344,0.003
11.07,-0.592,0.343,0.001
11.08,-0.596,0.345,0.008
11.09,-0.601,0.338,-0.003
11.1,-0.599,0.346,-0.002
11.11,-0.6,0.339,-0.001
11.12,-0.596,0.345,0.004
11.13,-0.601,0.344,-0.002
11.14,-0.597,0.344,0.006
11.15,-0.595,0.343,-0.001
11.16,-0.597,0.343,0.001
11.17,-0.592,0.345,0.004
11.18,-0.59,0.341,0.002
11.19,-0.596,0.341,0.001
11.2,-0.592,0.34,0.001
11.21,-0.595,0.342,-0.002
11.22,-0.601,0.341,-0.0
11.23,-0.596,0.339,-0.009
11.24,-0.597,0.343,-0.005
11.25,-0.593,0.342,0.003
11.26,-0.598,0.338,0.003
11.27,-0.59,0.34,0.005
11.28,-0.595,0.341,-0.006
11.29,-0.599,0.344,0.002
11.3,-0.596,0.341,-0.005
11.31,-0.599,0.342,-0.017
11.32,-0.592,0.341,0.005
11.33,-0.6,0.342,0.0
11.34,-0.598,0.342,-0.002
11.35,-0.598,0.338,-0.002
11.36,-0.6,0.341,0.005
11.37,-0.601,0.34,-0.003
11.38,-0.597,0.34,0.001
11.39,-0.6,0.342,0.001
11.4,-0.593,0.34,0.003
11.41,-0.603,0.338,-0.0
11.42,-0.591,0.343,-0.004
11.43,-0.6,0.341,0.006
11.44,-0.595,0.34,-0.002
11.45,-0.6,0.34,0.004
11.46,-0.598,0.344,-0.005
11.47,-0.595,0.336,-0.001
11.48,-0.597,0.339,0.002
11.49,-0.6,0.344,-0.006
11.5,-0.592,0.349,0.002
11.51,-0.588,0.341,-0.004
11.52,-0.596,0.341,0.007
11.53,-0.598,0.338,0.006
11.54,-0.607,0.342,0.001
11.55,-0.591,0.343,0.005
11.56,-0.601,0.34,0.005
11.57,-0.6,0.343,-0.005
11.58,-0.602,0.345,-0.011
11.59,-0.6,0.343,0.002
11.6,-0.594,0.337,-0.002
11.61,-0.596,0.34,0.005
11.62,-0.595,0.338,0.007
11.63,-0.602,0.341,-0.001
11.64,-0.595,0.344,-0.009
11.65,-0.598,0.337,-0.002
11.66,-0.592,0.343,0.005
11.67,-0.595,0.339,0.001
11.68,-0.598,0.34,-0.001
11.69,-0.594,0.343,-0.0
11.7,-0.598,0.34,0.005
11.71,-0.594,0.344,0.004
11.72,-0.6,0.339,0.007
11.73,-0.6,0.343,-0.001
11.74,-0.596,0.338,-0.008
11.75,-0.597,0.332,0.001
11.76,-0.599,0.342,0.003
11.77,-0.6,0.34,-0.005
11.78,-0.598,0.344,0.0
11.79,-0.599,0.344,-0.004
11.8,-0.594,0.339,0.002
11.81,-0.595,0.345,-0.012
11.82,-0.595,0.344,-0.005
11.83,-0.597,0.341,-0.004
11.84,-0.594,0.337,-0.005
11.85,-0.593,0.341,-0.0
11.86,-0.597,0.34,-0.003
11.87,-0.6,0.341,-0.004
11.88,-0.599,0.339,0.0
11.89,-0.607,0.342,0.001
11.9,-0.593,0.343,0.001
11.91,-0.601,0.342,-0.002
11.92,-0.599,0.343,-0.006
11.93,-0.595,0.343,-0.001
11.94,-0.592,0.342,-0.007
11.95,-0.598,0.345,0.002
11.96,-0.6,0.344,-0.008
11.97,-0.598,0.341,0.002
11.98,-0.6,0.34,-0.004
11.99,-0.6,0.345,0.008
12.0,-0.592,0.338,-0.002
12.01,-0.593,0.337,-0.002
12.02,-0.597,0.342,0.007
12.03,-0.595,0.343,-0.003
12.04,-0.593,0.341,-0.001
12.05,-0.598,0.339,0.003
12.06,-0.6,0.335,0.008
12.07,-0.593,0.346,-0.002
12.08,-0.595,0.343,0.008
12.09,-0.598,0.34,-0.001
12.1,-0.597,0.341,0.002
12.11,-0.602,0.342,-0.004
12.12,-0.6,0.337,-0.005
12.13,-0.592,0.344,0.001
12.14,-0.593,0.346,0.004
12.15,-0.591,0.338,0.007
12.16,-0.598,0.343,0.005
12.17,-0.592,0.348,0.003
12.18,-0.598,0.343,-0.002
12.19,-0.6,0.342,0.001
12.2,-0.596,0.34,-0.001
12.21,-0.593,0.341,-0.005
12.22,-0.602,0.342,0.001
12.23,-0.596,0.345,-0.001
12.24,-0.593,0.342,-0.001
12.25,-0.593,0.34,-0.001
12.26,-0.593,0.342,-0.001
12.27,-0.595,0.344,0.003
12.28,-0.597,0.341,-0.0
12.29,-0.6,0.34,-0.007
12.3,-0.604,0.344,0.001
12.31,-0.599,0.337,0.001
12.32,-0.594,0.341,-0.001
12.33,-0.599,0.344,0.004
12.34,-0.595,0.343,-0.002
12.35,-0.59,0.344,-0.006
12.36,-0.599,0.34,-0.003
12.37,-0.597,0.334,0.001
12.38,-0.59,0.343,0.005
12.39,-0.593,0.341,0.001
12.4,-0.595,0.34,0.001
12.41,-0.597,0.343,0.003
12.42,-0.594,0.346,0.0
12.43,-0.597,0.344,-0.001
12.44,-0.594,0.339,0.002
12.45,-0.596,0.342,-0.001
12.46,-0.596,0.341,-0.007
12.47,-0.604,0.34,0.004
12.48,-0.595,0.342,-0.001
12.49,-0.594,0.346,0.002
12.5,-0.602,0.341,0.003
12.51,-0.603,0.341,-0.001
12.52,-0.594,0.343,-0.004
12.53,-0.598,0.341,0.001
12.54,-0.599,0.342,-0.002
12.55,-0.601,0.337,0.004
12.56,-0.604,0.347,0.003
12.57,-0.595,0.342,0.001
12.58,-0.599,0.342,0.005
12.59,-0.596,0.344,0.005
12.6,-0.595,0.34,0.002
12.61,-0.6,0.344,-0.001
12.62,-0.591,0.342,0.001
12.63,-0.592,0.345,0.002
12.64,-0.594,0.335,-0.0
12.65,-0.595,0.341,0.001
12.66,-0.596,0.336,-0.004
12.67,-0.601,0.347,-0.004
12.68,-0.594,0.341,0.004
12.69,-0.598,0.342,0.008
12.7,-0.594,0.342,0.001
12.71,-0.605,0.34,0.005
12.72,-0.602,0.338,-0.0
12.73,-0.595,0.345,0.0
12.74,-0.595,0.341,-0.001
12.75,-0.591,0.34,-0.006
12.76,-0.602,0.339,0.006
12.77,-0.595,0.343,-0.002
12.78,-0.593,0.347,-0.001
12.79,-0.599,0.344,-0.003
12.8,-0.599,0.342,0.004
12.81,-0.597,0.337,-0.0
12.82,-0.594,0.343,0.003
12.83,-0.597,0.343,0.005
12.84,-0.597,0.345,-0.001
12.85,-0.6,0.347,0.0
12.86,-0.597,0.338,-0.006
12.87,-0.6,0.343,0.006
12.88,-0.598,0.343,0.001
12.89,-0.593,0.34,-0.001
12.9,-0.596,0.341,-0.002
12.91,-0.595,0.337,0.0
12.92,-0.594,0.342,-0.005
12.93,-0.601,0.341,-0.002
12.94,-0.6,0.343,-0.005
12.95,-0.597,0.342,0.005
12.96,-0.597,0.337,0.006
12.97,-0.595,0.343,0.002
12.98,-0.601,0.34,-0.002
12.99,-0.6,0.344,0.005
13.0,-0.593,0.336,-0.008
13.01,-0.594,0.338,0.001
13.02,-0.596,0.34,0.003
13.03,-0.597,0.342,0.001
13.04,-0.601,0.343,-0.003
13.05,-0.595,0.344,0.002
13.06,-0.594,0.336,0.002
13.07,-0.602,0.342,-0.004
13.08,-0.594,0.336,0.004
13.09,-0.602,0.34,-0.002
13.1,-0.593,0.341,-0.007
13.11,-0.594,0.345,0.002
13.12,-0.599,0.343,0.003
13.13,-0.595,0.34,0.002
13.14,-0.601,0.341,0.0
13.15,-0.6,0.342,0.001
13.16,-0.597,0.339,0.002
13.17,-0.594,0.342,0.008
13.18,-0.601,0.343,-0.003
13.19,-0.6,0.342,-0.003
13.2,-0.597,0.337,0.002
13.21,-0.599,0.339,-0.004
13.22,-0.598,0.343,0.004
13.23,-0.594,0.343,0.002
13.24,-0.603,0.344,0.002
13.25,-0.595,0.347,0.001
13.26,-0.6,0.341,-0.008
13.27,-0.594,0.343,0.0
13.28,-0.598,0.345,0.003
13.29,-0.596,0.341,0.007
13.3,-0.602,0.341,-0.0
13.31,-0.597,0.341,-0.004
13.32,-0.597,0.336,-0.004
13.33,-0.596,0.343,-0.0
13.34,-0.602,0.34,-0.005
13.35,-0.599,0.337,0.002
13.36,-0.601,0.34,-0.005
13.37,-0.595,0.345,-0.003
13.38,-0.595,0.342,0.003
13.39,-0.597,0.343,-0.006
13.4,-0.593,0.338,-0.006
13.41,-0.595,0.348,0.009
13.42,-0.598,0.335,-0.005
13.43,-0.595,0.345,0.006
13.44,-0.593,0.342,-0.006
13.45,-0.59,0.345,-0.004
13.46,-0.592,0.338,0.009
13.47,-0.6,0.343,-0.002
13.48,-0.6,0.34,0.003
13.49,-0.592,0.346,-0.009
13.5,-0.598,0.341,-0.0
13.51,-0.598,0.344,-0.003
13.52,-0.6,0.339,0.008
13.53,-0.602,0.342,0.002
13.54,-0.596,0.344,-0.009
13.55,-0.592,0.341,0.007
13.56,-0.598,0.339,-0.0
13.57,-0.599,0.344,0.003
13.58,-0.598,0.34,-0.01
13.59,-0.594,0.343,-0.004
13.6,-0.593,0.338,0.003
13.61,-0.592,0.337,0.007
13.62,-0.6,0.342,-0.006
13.63,-0.589,0.339,-0.006
13.64,-0.597,0.343,0.006
13.65,-0.598,0.342,-0.007
13.66,-0.594,0.34,-0.002
13.67,-0.593,0.337,0.006
13.68,-0.606,0.341,0.001
13.69,-0.596,0.339,-0.003
13.7,-0.595,0.339,-0.003
13.71,-0.604,0.341,0.004
13.72,-0.598,0.342,-0.001
13.73,-0.601,0.34,-0.003
13.74,-0.594,0.342,-0.001
13.75,-0.596,0.339,0.001
13.76,-0.595,0.333,0.008
13.77,-0.604,0.336,-0.003
13.78,-0.594,0.341,0.004
13.79,-0.597,0.342,0.002
13.8,-0.598,0.337,-0.003
13.81,-0.599,0.342,0.006
13.82,-0.602,0.342,0.011
13.83,-0.594,0.346,-0.001
13.84,-0.59,0.339,-0.004
13.85,-0.592,0.339,0.001
13.86,-0.596,0.343,0.004
13.87,-0.595,0.337,0.005
13.88,-0.597,0.343,-0.003
13.89,-0.594,0.345,0.001
13.9,-0.59,0.344,0.002
13.91,-0.596,0.344,-0.004
13.92,-0.591,0.344,-0.006
13.93,-0.593,0.344,-0.001
13.94,-0.594,0.345,0.003
13.95,-0.596,0.34,0.005
13.96,-0.597,0.341,-0.002
13.97,-0.597,0.34,0.006
13.98,-0.597,0.344,-0.004
13.99,-0.6,0.344,0.003
14.0,-0.593,0.343,0.003
14.01,-0.601,0.346,0.002
14.02,-0.599,0.343,0.003
14.03,-0.598,0.343,-0.002
14.04,-0.593,0.339,-0.002
14.05,-0.595,0.34,-0.004
14.06,-0.594,0.344,0.001
14.07,-0.591,0.338,-0.009
14.08,-0.597,0.341,0.004
14.09,-0.599,0.339,-0.0
14.1,-0.59,0.34,-0.002
14.11,-0.597,0.343,-0.002
14.12,-0.598,0.342,0.005
14.13,-0.6,0.344,0.001
14.14,-0.599,0.34,-0.005
14.15,-0.597,0.339,0.001
14.16,-0.594,0.342,0.002
14.17,-0.598,0.342,0.012
14.18,-0.597,0.343,-0.004
14.19,-0.599,0.341,0.007
14.2,-0.597,0.346,0.001
14.21,-0.602,0.339,0.006
14.22,-0.6,0.35,-0.004
14.23,-0.597,0.341,0.004
14.24,-0.605,0.342,0.008
14.25,-0.603,0.348,0.001
14.26,-0.598,0.344,0.001
14.27,-0.602,0.338,-0.003
14.28,-0.599,0.339,0.003
14.29,-0.594,0.341,0.001
14.3,-0.593,0.337,0.005
14.31,-0.599,0.343,-0.013
14.32,-0.593,0.345,0.005
14.33,-0.597,0.347,0.006
14.34,-0.597,0.339,-0.0
14.35,-0.593,0.341,-0.007
14.36,-0.603,0.34,0.001
14.37,-0.596,0.339,0.006
14.38,-0.602,0.34,0.002
14.39,-0.599,0.342,0.004
14.4,-0.597,0.342,0.0
14.41,-0.597,0.34,-0.002
14.42,-0.592,0.342,0.001
14.43,-0.599,0.337,-0.005
14.44,-0.596,0.34,0.004
14.45,-0.597,0.344,-0.005
14.46,-0.595,0.335,-0.006
14.47,-0.596,0.338,-0.001
14.48,-0.592,0.338,-0.005
14.49,-0.592,0.344,0.012
14.5,-0.59,0.337,-0.005
14.51,-0.591,0.344,0.002
14.52,-0.597,0.343,-0.002
14.53,-0.599,0.339,-0.01
14.54,-0.594,0.34,0.01
14.55,-0.602,0.346,-0.001
14.56,-0.591,0.341,0.004
14.57,-0.595,0.338,-0.001
14.58,-0.595,0.345,-0.003
14.59,-0.597,0.347,0.001
14.6,-0.599,0.337,0.003
14.61,-0.592,0.341,-0.012
14.62,-0.594,0.342,-0.003
14.63,-0.596,0.343,-0.005
14.64,-0.6,0.342,0.008
14.65,-0.598,0.339,0.003
14.66,-0.594,0.345,0.004
14.67,-0.595,0.335,0.001
14.68,-0.598,0.341,-0.004
14.69,-0.598,0.339,0.001
14.7,-0.596,0.343,-0.004
14.71,-0.598,0.341,0.005
14.72,-0.604,0.34,-0.006
14.73,-0.594,0.34,0.0
14.74,-0.596,0.339,-0.001
14.75,-0.593,0.335,-0.001
14.76,-0.601,0.342,-0.001
14.77,-0.596,0.341,-0.009
14.78,-0.589,0.348,-0.005
14.79,-0.597,0.335,-0.002
14.8,-0.6,0.347,0.003
14.81,-0.596,0.346,0.003
14.82,-0.595,0.34,-0.003
14.83,-0.594,0.34,-0.007
14.84,-0.595,0.34,0.005
14.85,-0.599,0.341,0.002
14.86,-0.594,0.342,-0.01
14.87,-0.596,0.341,0.002
14.88,-0.598,0.341,0.007
14.89,-0.594,0.344,-0.004
14.9,-0.596,0.335,-0.006
14.91,-0.596,0.343,0.003
14.92,-0.597,0.335,0.002
14.93,-0.592,0.342,0.005
14.94,-0.597,0.338,-0.003
14.95,-0.601,0.34,0.002
14.96,-0.6,0.342,-0.0
14.97,-0.6,0.342,0.003
14.98,-0.597,0.341,-0.001
14.99,-0.599,0.346,0.008
15.0,-0.591,0.343,0.001
15.01,-0.591,0.34,-0.001
15.02,-0.603,0.341,0.002
15.03,-0.598,0.343,0.002
15.04,-0.599,0.337,0.0
15.05,-0.6,0.339,-0.003
15.06,-0.599,0.342,0.002
15.07,-0.595,0.346,0.003
15.08,-0.595,0.343,0.003
15.09,-0.593,0.343,-0.0
15.1,-0.597,0.34,-0.008
15.11,-0.591,0.341,-0.001
15.12,-0.605,0.339,-0.002
15.13,-0.594,0.34,-0.0
15.14,-0.591,0.347,-0.002
15.15,-0.603,0.345,-0.003
15.16,-0.598,0.333,-0.001
15.17,-0.59,0.343,0.004
15.18,-0.598,0.344,-0.008
15.19,-0.603,0.345,-0.001
15.2,-0.605,0.34,-0.003
15.21,-0.597,0.341,0.004
15.22,-0.596,0.342,-0.001
15.23,-0.595,0.344,-0.0
15.24,-0.6,0.339,-0.001
15.25,-0.595,0.34,-0.002
15.26,-0.593,0.341,-0.002
15.27,-0.599,0.337,-0.001
15.28,-0.597,0.344,-0.001
15.29,-0.595,0.344,-0.003
15.3,-0.595,0.339,-0.001
15.31,-0.598,0.348,-0.006
15.32,-0.602,0.339,-0.008
15.33,-0.595,0.347,0.0
15.34,-0.598,0.346,0.002
15.35,-0.592,0.342,0.008
15.36,-0.601,0.344,0.001
15.37,-0.6,0.342,0.001
15.38,-0.595,0.341,-0.003
15.39,-0.594,0.341,-0.002
15.4,-0.602,0.349,0.001
15.41,-0.594,0.338,-0.011
15.42,-0.598,0.344,0.002
15.43,-0.603,0.339,0.007
15.44,-0.6,0.341,0.002
15.45,-0.596,0.343,0.003
15.46,-0.596,0.344,0.005
15.47,-0.595,0.342,0.011
15.48,-0.596,0.343,-0.0
15.49,-0.602,0.341,-0.001
15.5,-0.6,0.342,-0.004
15.51,-0.596,0.331,0.002
15.52,-0.599,0.342,0.005
15.53,-0.597,0.346,-0.003
15.54,-0.598,0.337,-0.005
15.55,-0.596,0.34,-0.002
15.56,-0.595,0.338,0.003
15.57,-0.599,0.344,0.005
15.58,-0.596,0.338,-0.002
15.59,-0.6,0.34,-0.008
15.6,-0.593,0.342,-0.001
15.61,-0.595,0.342,0.011
15.62,-0.601,0.343,0.004
15.63,-0.595,0.344,0.001
15.64,-0.594,0.343,0.003
15.65,-0.597,0.346,-0.0
15.66,-0.592,0.348,0.002
15.67,-0.594,0.34,-0.005
15.68,-0.601,0.344,-0.001
15.69,-0.601,0.343,-0.002
15.7,-0.592,0.339,0.003
15.71,-0.6,0.337,0.007
15.72,-0.594,0.34,0.002
15.73,-0.592,0.342,0.002
15.74,-0.599,0.347,0.003
15.75,-0.604,0.341,0.006
15.76,-0.595,0.345,-0.002
15.77,-0.599,0.341,-0.002
15.78,-0.596,0.339,0.004
15.79,-0.597,0.344,0.0
15.8,-0.603,0.339,-0.002
15.81,-0.595,0.343,0.002
15.82,-0.595,0.344,-0.006
15.83,-0.597,0.34,-0.0
15.84,-0.597,0.339,-0.0
15.85,-0.597,0.342,-0.002
15.86,-0.597,0.337,-0.001
15.87,-0.594,0.345,0.004
15.88,-0.592,0.336,-0.006
15.89,-0.599,0.341,-0.001
15.9,-0.595,0.34,0.004
15.91,-0.591,0.341,0.002
15.92,-0.595,0.342,-0.006
15.93,-0.595,0.343,-0.008
15.94,-0.588,0.338,0.0
15.95,-0.599,0.34,-0.007
15.96,-0.601,0.343,0.006
15.97,-0.594,0.347,-0.001
15.98,-0.6,0.343,-0.007
15.99,-0.59,0.338,-0.0
16.0,-0.598,0.343,0.0
16.01,-0.595,0.342,0.01
16.02,-0.603,0.342,-0.001
16.03,-0.592,0.339,0.003
16.04,-0.594,0.342,0.003
16.05,-0.595,0.341,-0.0
16.06,-0.595,0.338,-0.007
16.07,-0.593,0.341,-0.005
16.08,-0.594,0.342,-0.004
16.09,-0.601,0.338,-0.004
16.1,-0.596,0.34,-0.003
16.11,-0.594,0.338,0.001
16.12,-0.599,0.342,-0.004
16.13,-0.592,0.341,-0.004
16.14,-0.602,0.344,0.005
16.15,-0.597,0.347,0.013
16.16,-0.597,0.346,0.004
16.17,-0.599,0.336,-0.002
16.18,-0.6,0.342,0.0
16.19,-0.593,0.343,-0.001
16.2,-0.596,0.34,-0.005
16.21,-0.597,0.346,-0.004
16.22,-0.598,0.342,-0.001
16.23,-0.594,0.346,0.005
16.24,-0.593,0.339,-0.004
16.25,-0.599,0.343,0.002
16.26,-0.597,0.347,0.002
16.27,-0.598,0.342,-0.002
16.28,-0.595,0.34,0.004
16.29,-0.594,0.344,0.011
16.3,-0.598,0.341,-0.007
16.31,-0.592,0.342,-0.001
16.32,-0.597,0.337,0.002
16.33,-0.597,0.338,-0.001
16.34,-0.592,0.341,-0.001
16.35,-0.597,0.344,0.002
16.36,-0.594,0.338,0.005
16.37,-0.601,0.345,0.001
16.38,-0.591,0.338,0.004
16.39,-0.598,0.337,0.005
16.4,-0.598,0.338,0.0
16.41,-0.593,0.342,0.006
16.42,-0.601,0.345,-0.003
16.43,-0.594,0.34,0.001
16.44,-0.597,0.339,-0.003
16.45,-0.602,0.338,-0.003
16.46,-0.593,0.339,0.009
16.47,-0.603,0.342,0.003
16.48,-0.598,0.343,-0.008
16.49,-0.602,0.338,-0.0
16.5,-0.603,0.342,0.0
16.51,-0.595,0.339,-0.001
16.52,-0.596,0.338,-0.004
16.53,-0.592,0.342,-0.001
16.54,-0.596,0.338,0.001
16.55,-0.592,0.338,0.005
16.56,-0.602,0.338,-0.002
16.57,-0.595,0.339,-0.002
16.58,-0.597,0.339,-0.006
16.59,-0.599,0.34,0.002
16.6,-0.595,0.341,-0.003
16.61,-0.591,0.343,-0.004
16.62,-0.596,0.345,0.004
16.63,-0.597,0.344,0.001
16.64,-0.597,0.348,-0.003
16.65,-0.593,0.341,0.002
16.66,-0.595,0.334,-0.005
16.67,-0.597,0.345,-0.001
16.68,-0.595,0.343,0.007
16.69,-0.595,0.343,0.006
16.7,-0.596,0.34,0.015
16.71,-0.597,0.344,-0.004
16.72,-0.6,0.34,0.008
16.73,-0.591,0.343,-0.005
16.74,-0.598,0.342,-0.001
16.75,-0.598,0.344,-0.0
16.76,-0.595,0.336,-0.009
16.77,-0.597,0.342,-0.001
16.78,-0.597,0.346,-0.002
16.79,-0.594,0.34,-0.004
16.8,-0.597,0.342,-0.005
16.81,-0.599,0.341,-0.002
16.82,-0.593,0.341,-0.003
16.83,-0.596,0.343,0.0
16.84,-0.596,0.341,-0.001
16.85,-0.591,0.341,-0.002
16.86,-0.597,0.342,-0.001
16.87,-0.591,0.344,0.009
16.88,-0.6,0.344,-0.001
16.89,-0.598,0.338,-0.001
16.9,-0.597,0.347,-0.003
16.91,-0.598,0.341,-0.005
16.92,-0.602,0.345,0.005
16.93,-0.6,0.341,-0.002
16.94,-0.597,0.344,-0.005
16.95,-0.595,0.343,0.0
16.96,-0.597,0.337,-0.001
16.97,-0.598,0.34,-0.001
16.98,-0.598,0.341,-0.001
16.99,-0.593,0.346,0.004
17.0,-0.591,0.345,0.006
17.01,-0.598,0.336,-0.006
17.02,-0.59,0.337,0.005
17.03,-0.594,0.348,-0.01
17.04,-0.597,0.342,-0.009
17.05,-0.594,0.34,0.003
17.06,-0.597,0.342,-0.005
17.07,-0.595,0.335,0.003
17.08,-0.597,0.342,-0.0
17.09,-0.601,0.341,0.003
17.1,-0.592,0.341,-0.001
17.11,-0.594,0.342,0.012
17.12,-0.594,0.345,-0.009
17.13,-0.601,0.343,0.004
17.14,-0.593,0.34,-0.005
17.15,-0.594,0.347,-0.011
17.16,-0.596,0.336,0.007
17.17,-0.593,0.347,-0.0
17.18,-0.604,0.344,0.002
17.19,-0.595,0.34,0.007
17.2,-0.596,0.346,0.004
17.21,-0.598,0.339,0.003
17.22,-0.594,0.342,-0.001
17.23,-0.592,0.343,-0.01
17.24,-0.595,0.335,-0.007
17.25,-0.597,0.338,0.002
17.26,-0.603,0.348,-0.004
17.27,-0.598,0.345,0.005
17.28,-0.605,0.34,-0.003
17.29,-0.593,0.345,-0.005
17.3,-0.596,0.34,0.005
17.31,-0.599,0.34,0.001
17.32,-0.59,0.344,0.007
17.33,-0.595,0.345,-0.008
17.34,-0.594,0.339,0.001
17.35,-0.595,0.336,-0.005
17.36,-0.598,0.334,0.001
17.37,-0.595,0.343,-0.004
17.38,-0.593,0.34,-0.001
17.39,-0.591,0.342,0.002
17.4,-0.602,0.337,0.006
17.41,-0.595,0.344,-0.004
17.42,-0.6,0.34,-0.002
17.43,-0.601,0.336,0.005
17.44,-0.593,0.341,-0.004
17.45,-0.599,0.34,0.007
17.46,-0.592,0.344,-0.008
17.47,-0.589,0.344,-0.002
17.48,-0.59,0.339,-0.005
17.49,-0.599,0.344,0.003
17.5,-0.6,0.338,0.005
17.51,-0.59,0.337,0.009
17.52,-0.596,0.34,-0.004
17.53,-0.595,0.341,-0.004
17.54,-0.591,0.333,0.003
17.55,-0.597,0.342,0.002
17.56,-0.595,0.344,0.005
17.57,-0.601,0.34,0.0
17.58,-0.599,0.343,-0.002
17.59,-0.594,0.34,-0.001
17.6,-0.599,0.341,0.005
17.61,-0.596,0.341,0.0
17.62,-0.594,0.342,-0.004
17.63,-0.607,0.339,0.009
17.64,-0.604,0.343,0.002
17.65,-0.597,0.336,-0.008
17.66,-0.598,0.34,-0.002
17.67,-0.594,0.345,-0.002
17.68,-0.594,0.34,0.007
17.69,-0.595,0.344,0.002
17.7,-0.599,0.339,0.003
17.71,-0.592,0.341,-0.004
17.72,-0.6,0.345,-0.003
17.73,-0.6,0.342,-0.01
17.74,-0.596,0.341,-0.004
17.75,-0.594,0.342,0.005
17.76,-0.6,0.341,0.003
17.77,-0.595,0.343,-0.001
17.78,-0.599,0.336,-0.003
17.79,-0.594,0.342,-0.001
17.8,-0.601,0.342,-0.0
17.81,-0.597,0.344,0.002
17.82,-0.596,0.344,0.002
17.83,-0.596,0.342,0.0
17.84,-0.594,0.341,-0.009
17.85,-0.605,0.343,0.0
17.86,-0.597,0.343,-0.002
17.87,-0.597,0.343,-0.002
17.88,-0.598,0.337,-0.002
17.89,-0.603,0.332,0.006
17.9,-0.596,0.338,-0.002
17.91,-0.601,0.338,0.005
17.92,-0.587,0.339,-0.007
17.93,-0.595,0.343,0.004
17.94,-0.589,0.347,0.007
17.95,-0.6,0.341,0.005
17.96,-0.601,0.341,0.012
17.97,-0.599,0.336,0.003
17.98,-0.603,0.338,0.014
17.99,-0.595,0.341,0.001
18.0,-0.598,0.336,0.006
18.01,-0.597,0.343,-0.001
18.02,-0.594,0.342,-0.005
18.03,-0.596,0.344,-0.002
18.04,-0.603,0.342,0.004
18.05,-0.6,0.342,-0.002
18.06,-0.59,0.34,0.004
18.07,-0.597,0.341,0.003
18.08,-0.597,0.334,0.002
18.09,-0.591,0.343,-0.001
18.1,-0.597,0.34,-0.006
18.11,-0.598,0.339,0.008
18.12,-0.593,0.338,-0.006
18.13,-0.599,0.338,0.005
18.14,-0.597,0.344,0.002
18.15,-0.597,0.342,0.005
18.16,-0.601,0.344,-0.01
18.17,-0.598,0.342,-0.003
18.18,-0.595,0.343,0.003
18.19,-0.597,0.34,-0.003
18.2,-0.597,0.345,-0.002
18.21,-0.599,0.336,-0.004
18.22,-0.593,0.341,-0.001
18.23,-0.594,0.343,-0.004
18.24,-0.593,0.344,-0.003
18.25,-0.597,0.34,-0.008
18.26,-0.598,0.339,0.004
18.27,-0.596,0.342,-0.003
18.28,-0.597,0.345,0.001
18.29,-0.598,0.34,-0.009
18.3,-0.595,0.344,-0.004
18.31,-0.6,0.342,0.003
18.32,-0.599,0.342,-0.005
18.33,-0.594,0.341,-0.0
18.34,-0.6,0.337,-0.002
18.35,-0.595,0.343,0.001
18.36,-0.595,0.339,0.005
18.37,-0.601,0.344,0.0
18.38,-0.595,0.339,-0.002
18.39,-0.59,0.34,-0.001
18.4,-0.598,0.337,-0.006
18.41,-0.597,0.341,-0.004
18.42,-0.601,0.339,0.003
18.43,-0.597,0.334,0.01
18.44,-0.596,0.341,0.004
18.45,-0.595,0.343,0.004
18.46,-0.598,0.338,-0.0
18.47,-0.596,0.342,-0.001
18.48,-0.59,0.348,0.001
18.49,-0.598,0.337,0.004
18.5,-0.595,0.34,0.002
18.51,-0.602,0.34,0.003
18.52,-0.597,0.339,-0.005
18.53,-0.601,0.343,-0.001
18.54,-0.603,0.346,-0.002
18.55,-0.597,0.339,-0.009
18.56,-0.592,0.344,-0.002
18.57,-0.598,0.348,-0.002
18.58,-0.599,0.345,-0.002
18.59,-0.603,0.344,-0.0
18.6,-0.597,0.343,0.007
18.61,-0.598,0.343,0.001
18.62,-0.596,0.341,-0.004
18.63,-0.597,0.34,-0.002
18.64,-0.593,0.343,-0.001
18.65,-0.601,0.339,0.003
18.66,-0.598,0.342,0.001
18.67,-0.599,0.343,0.001
18.68,-0.593,0.338,0.0
18.69,-0.598,0.346,-0.006
18.7,-0.598,0.341,0.001
18.71,-0.602,0.346,0.005
18.72,-0.603,0.344,0.003
18.73,-0.589,0.343,0.002
18.74,-0.597,0.342,-0.002
18.75,-0.599,0.339,-0.008
18.76,-0.596,0.338,0.005
18.77,-0.596,0.343,-0.002
18.78,-0.591,0.345,-0.007
18.79,-0.601,0.341,-0.002
18.8,-0.591,0.348,-0.001
18.81,-0.601,0.348,-0.008
18.82,-0.598,0.347,-0.002
18.83,-0.593,0.34,-0.003
18.84,-0.597,0.344,-0.001
18.85,-0.6,0.344,0.005
18.86,-0.6,0.343,-0.001
18.87,-0.596,0.341,0.001
18.88,-0.6,0.343,0.002
18.89,-0.6,0.34,0.001
18.9,-0.602,0.345,0.002
18.91,-0.595,0.339,-0.0
18.92,-0.598,0.341,-0.002
18.93,-0.601,0.341,0.007
18.94,-0.59,0.337,-0.004
18.95,-0.593,0.342,-0.005
18.96,-0.594,0.34,0.002
18.97,-0.601,0.339,-0.004
18.98,-0.59,0.343,0.001
18.99,-0.601,0.342,-0.005
19.0,-0.6,0.341,-0.002
19.01,-0.601,0.338,0.003
19.02,-0.599,0.342,-0.006
19.03,-0.595,0.346,-0.0
19.04,-0.598,0.34,0.004
19.05,-0.596,0.341,0.003
19.06,-0.599,0.342,0.003
19.07,-0.594,0.339,-0.011
19.08,-0.6,0.342,-0.002
19.09,-0.602,0.345,-0.004
19.1,-0.598,0.341,0.007
19.11,-0.6,0.344,-0.001
19.12,-0.594,0.339,0.005
19.13,-0.596,0.336,0.002
19.14,-0.599,0.34,-0.005
19.15,-0.599,0.345,0.0
19.16,-0.594,0.341,0.002
19.17,-0.593,0.341,-0.005
19.18,-0.594,0.337,-0.006
19.19,-0.593,0.343,-0.007
19.2,-0.598,0.346,0.001
19.21,-0.594,0.344,0.003
19.22,-0.597,0.345,-0.003
19.23,-0.598,0.345,0.002
19.24,-0.594,0.339,0.005
19.25,-0.597,0.343,-0.0
19.26,-0.593,0.346,-0.003
19.27,-0.595,0.343,-0.002
19.28,-0.595,0.345,-0.0
19.29,-0.591,0.336,-0.007
19.3,-0.595,0.341,0.006
19.31,-0.594,0.34,0.003
19.32,-0.602,0.339,-0.0
19.33,-0.594,0.342,0.005
19.34,-0.597,0.338,-0.001
19.35,-0.597,0.344,-0.007
19.36,-0.591,0.338,0.012
19.37,-0.594,0.339,0.009
19.38,-0.592,0.339,-0.005
19.39,-0.596,0.341,0.01
19.4,-0.594,0.342,-0.006
19.41,-0.597,0.344,-0.0
19.42,-0.599,0.344,0.004
19.43,-0.598,0.339,0.007
19.44,-0.595,0.346,-0.001
19.45,-0.6,0.342,0.009
19.46,-0.596,0.339,-0.0
19.47,-0.601,0.343,0.004
19.48,-0.598,0.338,-0.004
19.49,-0.601,0.341,0.002
19.5,-0.596,0.344,-0.003
19.51,-0.598,0.34,0.003
19.52,-0.599,0.339,-0.004
19.53,-0.595,0.346,0.001
19.54,-0.593,0.34,0.003
19.55,-0.598,0.343,-0.001
19.56,-0.593,0.34,-0.001
19.57,-0.598,0.34,0.005
19.58,-0.596,0.338,0.0
19.59,-0.596,0.341,-0.002
19.6,-0.596,0.34,0.003
19.61,-0.591,0.344,0.003
19.62,-0.599,0.344,-0.005
19.63,-0.597,0.342,-0.008
19.64,-0.6,0.341,-0.005
19.65,-0.585,0.337,-0.002
19.66,-0.597,0.337,0.002
19.67,-0.595,0.338,0.001
19.68,-0.595,0.342,0.002
19.69,-0.594,0.345,-0.002
19.7,-0.589,0.344,-0.006
19.71,-0.602,0.34,-0.007
19.72,-0.598,0.343,0.003
19.73,-0.598,0.344,0.001
19.74,-0.593,0.346,-0.0
19.75,-0.598,0.341,-0.004
19.76,-0.597,0.344,0.007
19.77,-0.592,0.342,-0.005
19.78,-0.597,0.348,-0.009
19.79,-0.595,0.341,0.006
19.8,-0.599,0.339,0.007
19.81,-0.596,0.339,-0.005
19.82,-0.6,0.343,-0.012
19.83,-0.598,0.346,0.0
19.84,-0.597,0.342,0.002
19.85,-0.598,0.34,-0.001
19.86,-0.595,0.343,0.002
19.87,-0.593,0.338,0.005
19.88,-0.594,0.343,-0.0
19.89,-0.598,0.34,-0.0
19.9,-0.599,0.339,-0.004
19.91,-0.594,0.341,-0.001
19.92,-0.598,0.337,-0.003
19.93,-0.593,0.334,0.009
19.94,-0.592,0.346,0.009
19.95,-0.596,0.345,0.007
19.96,-0.601,0.34,-0.004
19.97,-0.597,0.341,-0.002
19.98,-0.602,0.342,0.007
19.99,-0.595,0.345,-0.001
20.0,-0.598,0.342,-0.003
20.01,-0.591,0.336,-0.002
20.02,-0.598,0.34,-0.001
20.03,-0.597,0.339,0.007
20.04,-0.598,0.344,-0.0
20.05,-0.6,0.34,-0.006
20.06,-0.607,0.339,-0.006
20.07,-0.602,0.343,0.003
20.08,-0.591,0.341,0.002
20.09,-0.594,0.343,0.0
20.1,-0.596,0.341,0.0
20.11,-0.598,0.337,0.004
20.12,-0.589,0.342,-0.001
20.13,-0.594,0.34,-0.005
20.14,-0.598,0.337,-0.006
20.15,-0.596,0.343,-0.002
20.16,-0.593,0.341,0.0
20.17,-0.596,0.343,0.004
20.18,-0.595,0.341,0.01
20.19,-0.596,0.344,0.009
20.2,-0.593,0.342,-0.008
20.21,-0.599,0.337,0.005
20.22,-0.596,0.344,0.003
20.23,-0.596,0.339,-0.013
20.24,-0.6,0.344,0.001
20.25,-0.593,0.34,-0.007
20.26,-0.593,0.343,0.009
20.27,-0.594,0.343,-0.004
20.28,-0.599,0.344,0.003
20.29,-0.598,0.339,-0.006
20.3,-0.6,0.348,0.005
20.31,-0.596,0.338,-0.0
20.32,-0.601,0.345,-0.003
20.33,-0.591,0.344,0.003
20.34,-0.6,0.343,0.002
20.35,-0.6,0.346,0.0
20.36,-0.597,0.334,0.006
20.37,-0.598,0.34,0.005
20.38,-0.602,0.342,-0.0
20.39,-0.597,0.343,0.006
20.4,-0.591,0.342,-0.0
20.41,-0.599,0.344,-0.002
20.42,-0.593,0.342,-0.002
20.43,-0.598,0.341,0.003
20.44,-0.596,0.345,-0.003
20.45,-0.594,0.336,0.005
20.46,-0.595,0.341,-0.002
20.47,-0.595,0.343,-0.0
20.48,-0.597,0.344,0.01
20.49,-0.591,0.344,-0.003
20.5,-0.601,0.338,-0.006
20.51,-0.596,0.338,0.007
20.52,-0.596,0.344,-0.002
20.53,-0.596,0.341,-0.002
20.54,-0.602,0.341,-0.01
20.55,-0.601,0.339,0.004
20.56,-0.592,0.341,-0.0
20.57,-0.599,0.336,-0.001
20.58,-0.604,0.337,-0.006
20.59,-0.597,0.343,-0.009
20.6,-0.597,0.334,0.001
20.61,-0.598,0.345,0.0
20.62,-0.602,0.342,0.003
20.63,-0.601,0.337,-0.0
20.64,-0.599,0.344,0.005
20.65,-0.593,0.341,-0.0
20.66,-0.603,0.341,0.009
20.67,-0.597,0.345,-0.004
20.68,-0.599,0.345,-0.006
20.69,-0.597,0.34,-0.001
20.7,-0.598,0.341,0.002
20.71,-0.599,0.348,-0.004
20.72,-0.598,0.34,0.003
20.73,-0.598,0.34,0.001
20.74,-0.595,0.341,-0.002
20.75,-0.597,0.339,0.004
20.76,-0.594,0.338,0.004
20.77,-0.596,0.341,0.005
20.78,-0.597,0.343,-0.006
20.79,-0.595,0.341,0.008
20.8,-0.6,0.347,-0.002
20.81,-0.594,0.342,0.002
20.82,-0.598,0.344,-0.005
20.83,-0.595,0.336,0.003
20.84,-0.6,0.339,0.003
20.85,-0.599,0.341,0.007
20.86,-0.597,0.349,-0.002
20.87,-0.594,0.342,-0.0
20.88,-0.598,0.345,0.004
20.89,-0.594,0.344,-0.002
20.9,-0.59,0.346,0.0
20.91,-0.598,0.341,-0.004
20.92,-0.604,0.344,0.003
20.93,-0.607,0.347,0.003
20.94,-0.597,0.34,-0.0
20.95,-0.6,0.337,-0.007
20.96,-0.598,0.346,-0.003
20.97,-0.592,0.34,-0.003
20.98,-0.593,0.342,0.003
20.99,-0.594,0.343,0.006
21.0,-0.594,0.344,-0.002
21.01,-0.597,0.339,-0.001
21.02,-0.599,0.341,0.004
21.03,-0.595,0.34,0.002
21.04,-0.6,0.34,0.004
21.05,-0.6,0.34,0.0
21.06,-0.594,0.339,0.007
21.07,-0.596,0.341,-0.001
21.08,-0.597,0.339,0.006
21.09,-0.598,0.342,0.009
21.1,-0.599,0.343,0.003
21.11,-0.606,0.344,-0.001
21.12,-0.596,0.341,0.001
21.13,-0.598,0.344,-0.006
21.14,-0.596,0.346,-0.001
21.15,-0.6,0.341,0.006
21.16,-0.595,0.341,-0.001
21.17,-0.597,0.343,0.003
21.18,-0.595,0.337,0.002
21.19,-0.601,0.34,0.005
21.2,-0.594,0.337,-0.011
21.21,-0.601,0.338,-0.005
21.22,-0.597,0.34,-0.006
21.23,-0.593,0.342,-0.001
21.24,-0.597,0.342,0.009
21.25,-0.6,0.341,-0.001
21.26,-0.599,0.346,-0.0
21.27,-0.589,0.338,0.004
21.28,-0.594,0.339,0.004
21.29,-0.597,0.339,-0.006
21.3,-0.602,0.345,0.006
21.31,-0.598,0.334,-0.003
21.32,-0.593,0.341,-0.004
21.33,-0.595,0.343,-0.001
21.34,-0.59,0.343,-0.009
21.35,-0.597,0.343,-0.002
21.36,-0.595,0.347,0.002
21.37,-0.595,0.341,0.008
21.38,-0.597,0.344,-0.005
21.39,-0.6,0.344,0.003
21.4,-0.595,0.34,-0.007
21.41,-0.594,0.341,0.006
21.42,-0.598,0.338,-0.0
21.43,-0.599,0.344,-0.0
21.44,-0.603,0.343,-0.011
21.45,-0.591,0.338,0.002
21.46,-0.597,0.339,0.005
21.47,-0.599,0.34,0.007
21.48,-0.592,0.339,-0.007
21.49,-0.592,0.34,-0.001
21.5,-0.594,0.342,0.001
21.51,-0.6,0.336,-0.004
21.52,-0.598,0.343,0.012
21.53,-0.599,0.34,-0.002
21.54,-0.598,0.337,0.008
21.55,-0.599,0.337,0.004
21.56,-0.597,0.339,-0.003
21.57,-0.597,0.34,0.008
21.58,-0.598,0.338,-0.002
21.59,-0.601,0.344,-0.0
21.6,-0.596,0.34,0.001
21.61,-0.594,0.341,-0.0
21.62,-0.6,0.337,-0.003
21.63,-0.593,0.346,-0.006
21.64,-0.595,0.34,0.001
21.65,-0.601,0.346,-0.003
21.66,-0.597,0.333,0.001
21.67,-0.595,0.346,-0.002
21.68,-0.597,0.34,-0.007
21.69,-0.595,0.336,-0.002
21.7,-0.594,0.35,-0.001
21.71,-0.593,0.34,-0.0
21.72,-0.598,0.343,-0.007
21.73,-0.605,0.339,0.002
21.74,-0.595,0.343,-0.009
21.75,-0.598,0.333,0.004
21.76,-0.596,0.34,0.001
21.77,-0.597,0.34,-0.002
21.78,-0.601,0.34,-0.003
21.79,-0.597,0.341,0.004
21.8,-0.599,0.344,0.003
21.81,-0.595,0.337,0.007
21.82,-0.6,0.342,0.001
21.83,-0.596,0.343,-0.003
21.84,-0.594,0.34,-0.006
21.85,-0.593,0.342,0.005
21.86,-0.595,0.347,-0.006
21.87,-0.594,0.337,0.002
21.88,-0.601,0.338,-0.0
21.89,-0.601,0.338,0.001
21.9,-0.593,0.341,0.002
21.91,-0.594,0.338,0.003
21.92,-0.601,0.344,0.006
21.93,-0.593,0.342,0.001
21.94,-0.597,0.343,0.003
21.95,-0.598,0.338,-0.002
21.96,-0.593,0.343,0.005
21.97,-0.593,0.34,-0.013
21.98,-0.596,0.342,-0.005
21.99,-0.594,0.34,0.001
22.0,-0.592,0.338,-0.001
22.01,-0.594,0.335,0.009
22.02,-0.593,0.341,0.002
22.03,-0.598,0.345,-0.0
22.04,-0.602,0.339,-0.0
22.05,-0.591,0.34,0.004
22.06,-0.596,0.336,-0.001
22.07,-0.599,0.342,0.003
22.08,-0.599,0.338,-0.001
22.09,-0.593,0.344,-0.002
22.1,-0.6,0.345,0.006
22.11,-0.595,0.342,-0.001
22.12,-0.599,0.337,0.004
22.13,-0.595,0.337,-0.002
22.14,-0.598,0.336,-0.004
22.15,-0.602,0.345,-0.0
22.16,-0.592,0.337,-0.008
22.17,-0.595,0.342,0.002
22.18,-0.602,0.342,-0.0
22.19,-0.598,0.34,0.001
22.2,-0.604,0.336,0.004
22.21,-0.592,0.345,-0.006
22.22,-0.599,0.343,-0.001
22.23,-0.595,0.34,0.003
22.24,-0.595,0.338,0.001
22.25,-0.604,0.337,-0.011
22.26,-0.598,0.336,-0.006
22.27,-0.593,0.336,-0.002
22.28,-0.598,0.34,0.008
22.29,-0.6,0.34,-0.002
22.3,-0.599,0.343,0.007
22.31,-0.595,0.341,0.001
22.32,-0.599,0.34,0.004
22.33,-0.596,0.339,0.006
22.34,-0.602,0.336,-0.008
22.35,-0.594,0.339,-0.007
22.36,-0.596,0.339,-0.01
22.37,-0.6,0.34,0.002
22.38,-0.6,0.341,0.002
22.39,-0.602,0.338,0.006
22.4,-0.597,0.344,-0.002
22.41,-0.594,0.339,-0.004
22.42,-0.602,0.34,-0.001
22.43,-0.601,0.34,-0.002
22.44,-0.596,0.342,0.002
22.45,-0.594,0.343,-0.0
22.46,-0.597,0.339,0.005
22.47,-0.6,0.346,0.006
22.48,-0.595,0.344,0.004
22.49,-0.595,0.341,0.0
22.5,-0.602,0.34,-0.004
22.51,-0.597,0.343,0.009
22.52,-0.598,0.343,-0.004
22.53,-0.599,0.339,0.003
22.54,-0.599,0.342,-0.002
22.55,-0.592,0.34,-0.001
22.56,-0.596,0.34,0.007
22.57,-0.593,0.341,0.004
22.58,-0.595,0.34,-0.006
22.59,-0.59,0.341,0.001
22.6,-0.595,0.342,0.002
22.61,-0.601,0.336,0.007
22.62,-0.599,0.344,-0.002
22.63,-0.599,0.335,-0.01
22.64,-0.593,0.342,0.001
22.65,-0.595,0.343,-0.002
22.66,-0.595,0.342,0.0
22.67,-0.595,0.346,-0.002
22.68,-0.601,0.341,0.011
22.69,-0.598,0.344,0.002
22.7,-0.593,0.342,0.0
22.71,-0.6,0.344,-0.004
22.72,-0.598,0.339,0.002
22.73,-0.594,0.338,0.001
22.74,-0.594,0.343,-0.002
22.75,-0.592,0.34,-0.009
22.76,-0.599,0.344,0.002
22.77,-0.597,0.341,-0.008
22.78,-0.601,0.335,-0.008
22.79,-0.599,0.339,-0.004
22.8,-0.599,0.344,0.004
22.81,-0.595,0.338,0.004
22.82,-0.601,0.338,0.002
22.83,-0.6,0.345,-0.001
22.84,-0.594,0.348,-0.002
22.85,-0.596,0.344,-0.006
22.86,-0.598,0.339,0.0
22.87,-0.595,0.336,-0.007
22.88,-0.599,0.338,-0.0
22.89,-0.594,0.336,0.004
22.9,-0.602,0.338,0.001
22.91,-0.595,0.347,-0.004
22.92,-0.595,0.336,-0.001
22.93,-0.599,0.345,-0.003
22.94,-0.604,0.343,0.001
22.95,-0.595,0.337,0.001
22.96,-0.596,0.344,-0.004
22.97,-0.596,0.339,-0.004
22.98,-0.592,0.339,0.0
22.99,-0.595,0.347,0.002
23.0,-0.595,0.343,0.001
23.01,-0.597,0.342,-0.001
23.02,-0.594,0.339,0.006
23.03,-0.598,0.344,0.001
23.04,-0.594,0.341,-0.0
23.05,-0.595,0.34,0.001
23.06,-0.593,0.344,-0.0
23.07,-0.594,0.343,-0.0
23.08,-0.59,0.345,-0.001
23.09,-0.598,0.344,-0.004
23.1,-0.599,0.339,-0.003
23.11,-0.596,0.338,-0.003
23.12,-0.597,0.345,0.009
23.13,-0.597,0.336,-0.001
23.14,-0.594,0.342,-0.005
23.15,-0.592,0.341,-0.009
23.16,-0.602,0.337,0.004
23.17,-0.598,0.338,-0.006
23.18,-0.601,0.342,0.0
23.19,-0.595,0.334,0.003
23.2,-0.6,0.336,-0.001
23.21,-0.596,0.34,-0.001
23.22,-0.597,0.34,0.008
23.23,-0.595,0.342,-0.001
23.24,-0.597,0.342,0.004
23.25,-0.598,0.343,-0.002
23.26,-0.595,0.336,-0.001
23.27,-0.595,0.347,0.002
23.28,-0.6,0.344,-0.003
23.29,-0.595,0.338,-0.007
23.3,-0.599,0.34,0.005
23.31,-0.595,0.341,0.004
23.32,-0.593,0.342,-0.0
23.33,-0.602,0.344,0.006
23.34,-0.597,0.334,0.0
23.35,-0.595,0.338,0.001
23.36,-0.597,0.339,0.001
23.37,-0.603,0.341,-0.008
23.38,-0.597,0.338,0.006
23.39,-0.598,0.339,0.001
23.4,-0.602,0.346,0.0
23.41,-0.591,0.342,0.002
23.42,-0.595,0.337,-0.006
23.43,-0.593,0.333,-0.004
23.44,-0.595,0.339,-0.0
23.45,-0.598,0.344,0.007
23.46,-0.594,0.338,0.0
23.47,-0.604,0.338,-0.002
23.48,-0.597,0.343,-0.004
23.49,-0.593,0.345,0.006
23.5,-0.598,0.346,-0.002
23.51,-0.599,0.339,0.008
23.52,-0.597,0.342,-0.007
23.53,-0.595,0.337,-0.004
23.54,-0.593,0.341,0.0
23.55,-0.598,0.346,0.001
23.56,-0.599,0.341,0.007
23.57,-0.595,0.344,-0.0
23.58,-0.6,0.338,0.001
23.59,-0.595,0.344,0.0
23.6,-0.592,0.341,0.015
23.61,-0.596,0.345,-0.001
23.62,-0.593,0.341,0.007
23.63,-0.598,0.343,-0.004
23.64,-0.595,0.34,0.006
23.65,-0.594,0.339,0.008
23.66,-0.598,0.343,-0.01
23.67,-0.599,0.34,0.007
23.68,-0.595,0.346,-0.001
23.69,-0.598,0.34,-0.007
23.7,-0.602,0.343,0.001
23.71,-0.599,0.344,0.002
23.72,-0.6,0.341,-0.004
23.73,-0.6,0.349,0.004
23.74,-0.601,0.339,0.004
23.75,-0.598,0.345,-0.007
23.76,-0.599,0.344,-0.009
23.77,-0.593,0.342,-0.0
23.78,-0.596,0.347,-0.0
23.79,-0.589,0.341,0.006
23.8,-0.593,0.338,0.004
23.81,-0.597,0.344,-0.004
23.82,-0.594,0.341,0.004
23.83,-0.602,0.336,0.002
23.84,-0.597,0.344,0.001
23.85,-0.591,0.342,-0.002
23.86,-0.6,0.342,0.004
23.87,-0.598,0.338,-0.001
23.88,-0.594,0.338,-0.002
23.89,-0.597,0.339,-0.008
23.9,-0.605,0.343,0.005
23.91,-0.594,0.342,0.003
23.92,-0.598,0.338,-0.0
23.93,-0.594,0.341,-0.004
23.94,-0.595,0.338,-0.001
23.95,-0.594,0.342,-0.005
23.96,-0.598,0.346,0.004
23.97,-0.597,0.338,0.004
23.98,-0.594,0.341,-0.001
23.99,-0.6,0.338,-0.01
24.0,-0.598,0.343,0.003
24.01,-0.599,0.338,-0.002
24.02,-0.599,0.338,-0.0
24.03,-0.594,0.341,-0.001
24.04,-0.599,0.333,-0.008
24.05,-0.594,0.339,0.001
24.06,-0.594,0.345,0.001
24.07,-0.599,0.342,0.004
24.08,-0.597,0.341,-0.004
24.09,-0.595,0.338,0.002
24.1,-0.597,0.341,-0.006
24.11,-0.596,0.341,0.002
24.12,-0.597,0.34,-0.001
24.13,-0.604,0.335,0.002
24.14,-0.597,0.349,-0.01
24.15,-0.603,0.34,0.005
24.16,-0.601,0.338,0.003
24.17,-0.598,0.339,-0.002
24.18,-0.589,0.341,0.006
24.19,-0.598,0.339,-0.002
24.2,-0.598,0.342,0.004
24.21,-0.591,0.342,-0.006
24.22,-0.592,0.332,0.004
24.23,-0.595,0.341,0.002
24.24,-0.601,0.34,-0.002
24.25,-0.602,0.338,0.004
24.26,-0.598,0.338,-0.001
24.27,-0.596,0.344,0.004
24.28,-0.595,0.341,0.005
24.29,-0.594,0.34,0.007
24.3,-0.598,0.341,-0.006
24.31,-0.604,0.335,-0.005
24.32,-0.6,0.344,0.001
24.33,-0.594,0.345,-0.008
24.34,-0.595,0.342,-0.001
24.35,-0.586,0.342,0.003
24.36,-0.597,0.343,-0.003
24.37,-0.595,0.34,0.001
24.38,-0.594,0.346,-0.002
24.39,-0.594,0.342,-0.002
24.4,-0.598,0.345,0.001
24.41,-0.6,0.344,0.006
24.42,-0.597,0.341,0.0
24.43,-0.598,0.344,0.008
24.44,-0.597,0.34,-0.002
24.45,-0.595,0.337,-0.002
24.46,-0.595,0.34,-0.0
24.47,-0.597,0.34,0.0
24.48,-0.601,0.336,0.008
24.49,-0.593,0.343,-0.004
24.5,-0.592,0.345,-0.0
24.51,-0.594,0.344,-0.006
24.52,-0.6,0.34,0.001
24.53,-0.595,0.344,0.003
24.54,-0.594,0.339,-0.001
24.55,-0.595,0.344,0.003
24.56,-0.598,0.344,0.003
24.57,-0.593,0.343,-0.002
24.58,-0.599,0.339,0.001
24.59,-0.59,0.34,0.004
24.6,-0.597,0.344,0.004
24.61,-0.599,0.345,-0.0
24.62,-0.598,0.347,0.001
24.63,-0.602,0.343,0.007
24.64,-0.594,0.343,0.002
24.65,-0.598,0.346,0.001
24.66,-0.595,0.343,0.004
24.67,-0.59,0.343,0.0
24.68,-0.599,0.345,0.002
24.69,-0.594,0.341,-0.001
24.7,-0.594,0.339,-0.003
24.71,-0.596,0.346,0.005
24.72,-0.604,0.34,-0.004
24.73,-0.597,0.341,-0.004
24.74,-0.598,0.345,0.005
24.75,-0.591,0.34,0.005
24.76,-0.601,0.349,-0.0
24.77,-0.594,0.346,0.008
24.78,-0.599,0.35,0.0
24.79,-0.598,0.343,0.002
24.8,-0.598,0.338,-0.005
24.81,-0.595,0.336,0.0
24.82,-0.599,0.332,0.002
24.83,-0.595,0.346,0.001
24.84,-0.596,0.343,-0.003
24.85,-0.599,0.343,-0.002
24.86,-0.594,0.338,0.004
24.87,-0.593,0.343,-0.003
24.88,-0.597,0.343,0.006
24.89,-0.6,0.35,-0.002
24.9,-0.597,0.342,-0.009
24.91,-0.593,0.338,0.003
24.92,-0.593,0.337,-0.005
24.93,-0.596,0.34,0.0
24.94,-0.603,0.336,-0.007
24.95,-0.6,0.342,-0.001
24.96,-0.6,0.336,-0.001
24.97,-0.589,0.34,-0.0
24.98,-0.6,0.345,0.001
24.99,-0.596,0.339,0.001
25.0,-0.6,0.339,0.001
25.01,-0.595,0.346,0.003
25.02,-0.598,0.341,-0.001
25.03,-0.597,0.341,0.006
25.04,-0.597,0.34,0.003
25.05,-0.595,0.345,0.003
25.06,-0.597,0.342,-0.006
25.07,-0.602,0.344,-0.003
25.08,-0.595,0.337,-0.007
25.09,-0.595,0.339,-0.007
25.1,-0.592,0.344,0.004
25.11,-0.6,0.349,-0.004
25.12,-0.591,0.343,-0.005
25.13,-0.593,0.34,0.008
25.14,-0.603,0.337,0.002
25.15,-0.592,0.34,0.001
25.16,-0.594,0.342,-0.002
25.17,-0.593,0.347,0.008
25.18,-0.596,0.34,-0.007
25.19,-0.594,0.344,-0.003
25.2,-0.598,0.337,0.003
25.21,-0.595,0.34,-0.005
25.22,-0.596,0.346,-0.004
25.23,-0.598,0.34,0.002
25.24,-0.593,0.339,0.008
25.25,-0.594,0.338,-0.004
25.26,-0.598,0.34,-0.003
25.27,-0.599,0.339,-0.0
25.28,-0.587,0.339,-0.001
25.29,-0.599,0.336,0.001
25.3,-0.607,0.343,-0.003
25.31,-0.588,0.343,-0.002
25.32,-0.594,0.342,0.004
25.33,-0.597,0.34,0.002
25.34,-0.596,0.344,0.005
25.35,-0.602,0.341,-0.006
25.36,-0.594,0.344,-0.004
25.37,-0.599,0.343,-0.002
25.38,-0.595,0.334,0.002
25.39,-0.601,0.344,-0.0
25.4,-0.597,0.341,0.006
25.41,-0.595,0.344,-0.004
25.42,-0.596,0.344,-0.001
25.43,-0.603,0.339,-0.005
25.44,-0.597,0.342,0.009
25.45,-0.601,0.342,0.008
25.46,-0.594,0.34,0.008
25.47,-0.596,0.34,0.003
25.48,-0.597,0.337,0.001
25.49,-0.598,0.338,0.003
25.5,-0.591,0.34,-0.003
25.51,-0.6,0.345,0.002
25.52,-0.6,0.344,-0.011
25.53,-0.605,0.344,-0.002
25.54,-0.594,0.342,-0.005
25.55,-0.6,0.345,0.001
25.56,-0.6,0.345,-0.003
25.57,-0.595,0.335,-0.002
25.58,-0.598,0.339,-0.002
25.59,-0.598,0.339,-0.001
25.6,-0.6,0.337,-0.006
25.61,-0.591,0.339,0.006
25.62,-0.597,0.345,-0.003
25.63,-0.597,0.339,-0.004
25.64,-0.593,0.344,-0.004
25.65,-0.597,0.336,0.007
25.66,-0.591,0.336,-0.004
25.67,-0.594,0.338,-0.005
25.68,-0.594,0.336,-0.003
25.69,-0.591,0.345,-0.001
25.7,-0.597,0.338,0.002
25.71,-0.593,0.344,0.005
25.72,-0.595,0.343,-0.003
25.73,-0.596,0.345,0.002
25.74,-0.6,0.337,-0.004
25.75,-0.6,0.339,0.001
25.76,-0.603,0.336,0.0
25.77,-0.597,0.339,0.005
25.78,-0.597,0.344,-0.01
25.79,-0.594,0.336,0.004
25.8,-0.595,0.34,-0.004
25.81,-0.6,0.341,-0.007
25.82,-0.587,0.343,0.001
25.83,-0.599,0.342,-0.005
25.84,-0.6,0.342,-0.006
25.85,-0.594,0.344,-0.005
25.86,-0.595,0.34,0.005
25.87,-0.59,0.341,0.001
25.88,-0.593,0.345,0.004
25.89,-0.598,0.338,0.003
25.9,-0.6,0.344,-0.001
25.91,-0.597,0.338,-0.006
25.92,-0.595,0.342,-0.006
25.93,-0.595,0.343,-0.0
25.94,-0.597,0.347,0.007
25.95,-0.597,0.341,-0.002
25.96,-0.595,0.343,0.002
25.97,-0.6,0.342,0.001
25.98,-0.592,0.342,0.002
25.99,-0.597,0.336,0.004
26.0,-0.594,0.342,0.002
26.01,-0.596,0.342,0.005
26.02,-0.602,0.335,0.003
26.03,-0.595,0.338,-0.0
26.04,-0.598,0.344,0.003
26.05,-0.594,0.342,-0.004
26.06,-0.597,0.339,-0.002
26.07,-0.598,0.344,0.005
26.08,-0.595,0.345,-0.002
26.09,-0.59,0.34,-0.001
26.1,-0.597,0.338,-0.002
26.11,-0.593,0.34,0.001
26.12,-0.596,0.337,-0.002
26.13,-0.595,0.343,-0.002
26.14,-0.594,0.339,0.01
26.15,-0.591,0.346,-0.006
26.16,-0.602,0.34,-0.01
26.17,-0.598,0.34,-0.004
26.18,-0.596,0.339,-0.007
26.19,-0.602,0.343,-0.0
26.2,-0.597,0.338,0.002
26.21,-0.596,0.344,-0.004
26.22,-0.596,0.342,-0.005
26.23,-0.596,0.343,-0.011
26.24,-0.592,0.343,0.002
26.25,-0.598,0.341,0.002
26.26,-0.596,0.342,0.0
26.27,-0.597,0.335,-0.002
26.28,-0.593,0.343,-0.003
26.29,-0.597,0.343,0.007
26.3,-0.601,0.34,0.006
26.31,-0.595,0.338,-0.001
26.32,-0.587,0.342,0.004
26.33,-0.596,0.345,-0.001
26.34,-0.598,0.34,-0.007
26.35,-0.592,0.343,0.004
26.36,-0.597,0.336,-0.008
26.37,-0.599,0.345,0.0
26.38,-0.594,0.343,0.01
26.39,-0.593,0.344,0.0
26.4,-0.598,0.338,-0.006
26.41,-0.596,0.341,-0.003
26.42,-0.594,0.337,-0.003
26.43,-0.599,0.332,-0.0
26.44,-0.592,0.341,0.003
26.45,-0.594,0.345,-0.0
26.46,-0.598,0.343,-0.001
26.47,-0.594,0.347,-0.006
26.48,-0.594,0.343,0.003
26.49,-0.601,0.343,-0.001
26.5,-0.594,0.344,-0.005
26.51,-0.593,0.34,-0.004
26.52,-0.595,0.341,-0.01
26.53,-0.593,0.343,-0.005
26.54,-0.593,0.339,0.004
26.55,-0.601,0.341,-0.004
26.56,-0.596,0.342,-0.002
26.57,-0.597,0.339,-0.002
26.58,-0.599,0.339,-0.004
26.59,-0.601,0.348,0.001
26.6,-0.589,0.34,-0.005
26.61,-0.599,0.346,-0.002
26.62,-0.6,0.345,0.002
26.63,-0.598,0.337,-0.003
26.64,-0.6,0.344,-0.001
26.65,-0.599,0.339,0.004
26.66,-0.594,0.341,-0.001
26.67,-0.596,0.34,-0.003
26.68,-0.597,0.334,0.004
26.69,-0.599,0.343,-0.004
26.7,-0.601,0.34,0.0
26.71,-0.595,0.345,0.007
26.72,-0.593,0.343,-0.002
26.73,-0.603,0.342,-0.001
26.74,-0.595,0.344,0.002
26.75,-0.6,0.34,0.003
26.76,-0.594,0.345,-0.004
26.77,-0.593,0.345,0.006
26.78,-0.601,0.337,-0.003
26.79,-0.597,0.344,0.005
26.8,-0.603,0.333,-0.013
26.81,-0.596,0.342,0.01
26.82,-0.597,0.346,0.006
26.83,-0.6,0.342,0.005
26.84,-0.596,0.34,-0.006
26.85,-0.596,0.344,0.0
26.86,-0.598,0.341,0.005
26.87,-0.598,0.342,-0.007
26.88,-0.6,0.341,-0.004
26.89,-0.604,0.338,-0.01
26.9,-0.597,0.344,-0.0
26.91,-0.594,0.339,-0.002
26.92,-0.6,0.344,-0.015
26.93,-0.593,0.338,0.001
26.94,-0.593,0.344,0.001
26.95,-0.602,0.34,0.006
26.96,-0.595,0.34,0.001
26.97,-0.595,0.337,-0.004
26.98,-0.6,0.341,0.008
26.99,-0.596,0.343,0.003
27.0,-0.601,0.339,0.004
27.01,-0.597,0.336,0.004
27.02,-0.594,0.338,0.001
27.03,-0.599,0.34,0.01
27.04,-0.594,0.344,0.005
27.05,-0.595,0.338,-0.001
27.06,-0.595,0.338,0.002
27.07,-0.597,0.339,-0.002
27.08,-0.596,0.34,0.001
27.09,-0.596,0.343,-0.004
27.1,-0.597,0.339,0.002
27.11,-0.598,0.34,-0.006
27.12,-0.598,0.341,0.004
27.13,-0.597,0.34,0.002
27.14,-0.601,0.343,-0.01
27.15,-0.6,0.34,0.005
27.16,-0.597,0.338,-0.006
27.17,-0.597,0.338,0.001
27.18,-0.601,0.336,0.007
27.19,-0.598,0.341,0.004
27.2,-0.598,0.342,0.003
27.21,-0.595,0.336,-0.001
27.22,-0.595,0.342,0.002
27.23,-0.6,0.341,-0.006
27.24,-0.584,0.342,0.002
27.25,-0.596,0.341,-0.001
27.26,-0.594,0.337,-0.007
27.27,-0.598,0.345,0.001
27.28,-0.599,0.343,-0.001
27.29,-0.592,0.341,-0.004
27.3,-0.596,0.338,0.001
27.31,-0.601,0.343,0.0
27.32,-0.594,0.344,0.007
27.33,-0.594,0.341,0.004
27.34,-0.598,0.341,0.0
27.35,-0.596,0.344,-0.001
27.36,-0.595,0.342,0.002
27.37,-0.597,0.34,0.006
27.38,-0.591,0.342,0.01
27.39,-0.595,0.345,-0.007
27.4,-0.599,0.34,-0.006
27.41,-0.597,0.346,-0.001
27.42,-0.598,0.341,-0.005
27.43,-0.595,0.337,0.003
27.44,-0.601,0.337,-0.002
27.45,-0.595,0.341,-0.005
27.46,-0.597,0.343,0.01
27.47,-0.598,0.345,-0.0
27.48,-0.601,0.343,0.01
27.49,-0.602,0.338,-0.002
27.5,-0.591,0.339,-0.007
27.51,-0.594,0.338,-0.001
27.52,-0.6,0.338,0.005
27.53,-0.6,0.342,-0.001
27.54,-0.594,0.342,0.002
27.55,-0.592,0.342,0.001
27.56,-0.596,0.342,-0.001
27.57,-0.598,0.343,0.003
27.58,-0.597,0.345,-0.005
27.59,-0.598,0.339,-0.003
27.6,-0.601,0.338,0.0
27.61,-0.598,0.343,0.005
27.62,-0.594,0.338,-0.005
27.63,-0.6,0.342,0.007
27.64,-0.593,0.34,-0.001
27.65,-0.598,0.341,0.005
27.66,-0.592,0.343,-0.002
27.67,-0.597,0.337,0.004
27.68,-0.604,0.34,-0.001
27.69,-0.593,0.343,-0.002
27.7,-0.597,0.341,-0.006
27.71,-0.596,0.343,-0.006
27.72,-0.598,0.346,0.004
27.73,-0.595,0.336,0.003
27.74,-0.59,0.347,-0.002
27.75,-0.599,0.339,0.006
27.76,-0.596,0.34,0.005
27.77,-0.599,0.345,0.002
27.78,-0.594,0.34,0.001
27.79,-0.594,0.341,-0.004
27.8,-0.595,0.334,-0.007
27.81,-0.594,0.341,-0.001
27.82,-0.597,0.342,-0.005
27.83,-0.599,0.343,0.007
27.84,-0.591,0.342,0.002
27.85,-0.598,0.342,0.005
27.86,-0.595,0.341,-0.011
27.87,-0.593,0.344,-0.006
27.88,-0.597,0.338,-0.001
27.89,-0.592,0.34,0.012
27.9,-0.6,0.341,-0.001
27.91,-0.593,0.344,-0.005
27.92,-0.595,0.339,-0.004
27.93,-0.598,0.34,-0.003
27.94,-0.595,0.341,0.003
27.95,-0.599,0.342,-0.004
27.96,-0.598,0.345,-0.0
27.97,-0.592,0.345,-0.001
27.98,-0.602,0.342,0.006
27.99,-0.594,0.34,-0.003
28.0,-0.596,0.343,-0.003
28.01,-0.593,0.34,0.001
28.02,-0.588,0.34,0.007
28.03,-0.596,0.341,-0.006
28.04,-0.59,0.341,-0.006
28.05,-0.594,0.339,0.002
28.06,-0.597,0.337,0.002
28.07,-0.593,0.343,0.003
28.08,-0.597,0.341,-0.007
28.09,-0.599,0.336,0.009
28.1,-0.6,0.343,0.0
28.11,-0.6,0.346,0.0
28.12,-0.6,0.34,-0.004
28.13,-0.596,0.332,0.01
28.14,-0.603,0.341,-0.003
28.15,-0.597,0.344,-0.002
28.16,-0.602,0.341,-0.001
28.17,-0.596,0.34,-0.002
28.18,-0.599,0.344,0.004
28.19,-0.596,0.339,0.005
28.2,-0.601,0.339,-0.001
28.21,-0.59,0.337,0.003
28.22,-0.599,0.344,-0.001
28.23,-0.601,0.344,-0.003
28.24,-0.595,0.336,0.003
28.25,-0.594,0.339,0.006
28.26,-0.596,0.336,-0.001
28.27,-0.604,0.337,0.002
28.28,-0.597,0.339,0.002
28.29,-0.593,0.347,-0.0
28.3,-0.597,0.344,-0.003
28.31,-0.605,0.344,0.003
28.32,-0.6,0.34,-0.004
28.33,-0.594,0.344,0.003
28.34,-0.599,0.34,-0.0
28.35,-0.592,0.339,0.004
28.36,-0.601,0.336,0.007
28.37,-0.599,0.34,-0.0
28.38,-0.598,0.339,0.001
28.39,-0.595,0.342,-0.003
28.4,-0.596,0.336,0.001
28.41,-0.597,0.338,-0.003
28.42,-0.596,0.338,-0.001
28.43,-0.594,0.341,0.01
28.44,-0.594,0.336,-0.004
28.45,-0.595,0.341,-0.004
28.46,-0.599,0.34,0.003
28.47,-0.593,0.337,0.005
28.48,-0.595,0.34,0.006
28.49,-0.596,0.342,0.001
28.5,-0.595,0.34,-0.003
28.51,-0.596,0.337,0.01
28.52,-0.598,0.341,-0.002
28.53,-0.594,0.344,-0.006
28.54,-0.594,0.343,0.002
28.55,-0.596,0.339,-0.005
28.56,-0.595,0.343,0.005
28.57,-0.597,0.34,0.005
28.58,-0.597,0.337,-0.005
28.59,-0.601,0.341,0.004
28.6,-0.598,0.346,0.007
28.61,-0.598,0.341,0.002
28.62,-0.603,0.337,-0.006
28.63,-0.592,0.343,0.005
28.64,-0.595,0.337,0.002
28.65,-0.592,0.341,0.001
28.66,-0.6,0.34,-0.002
28.67,-0.598,0.343,-0.006
28.68,-0.602,0.342,-0.0
28.69,-0.6,0.342,-0.002
28.7,-0.6,0.339,0.002
28.71,-0.6,0.342,0.009
28.72,-0.598,0.34,-0.003
28.73,-0.602,0.345,0.004
28.74,-0.594,0.34,-0.0
28.75,-0.596,0.344,-0.004
28.76,-0.603,0.344,-0.005
28.77,-0.599,0.342,0.001
28.78,-0.593,0.344,-0.001
28.79,-0.6,0.344,-0.0
28.8,-0.597,0.34,-0.005
28.81,-0.593,0.343,-0.006
28.82,-0.596,0.343,-0.004
28.83,-0.599,0.346,0.003
28.84,-0.595,0.341,-0.004
28.85,-0.596,0.34,0.003
28.86,-0.599,0.342,-0.002
28.87,-0.598,0.346,-0.001
28.88,-0.592,0.344,-0.0
28.89,-0.591,0.341,0.0
28.9,-0.596,0.342,0.003
28.91,-0.601,0.342,0.005
28.92,-0.598,0.337,0.002
28.93,-0.603,0.341,-0.008
28.94,-0.594,0.342,0.001
28.95,-0.596,0.341,-0.003
28.96,-0.597,0.345,-0.003
28.97,-0.601,0.352,-0.008
28.98,-0.603,0.343,0.002
28.99,-0.601,0.347,-0.007
29.0,-0.594,0.341,-0.006
29.01,-0.599,0.344,-0.001
29.02,-0.596,0.346,0.007
29.03,-0.599,0.341,0.007
29.04,-0.59,0.338,0.0
29.05,-0.598,0.343,-0.002
29.06,-0.59,0.337,0.006
29.07,-0.588,0.339,-0.002
29.08,-0.599,0.341,0.007
29.09,-0.598,0.34,-0.0
29.1,-0.596,0.34,0.003
29.11,-0.589,0.341,-0.002
29.12,-0.594,0.342,-0.0
29.13,-0.598,0.341,0.007
29.14,-0.6,0.344,-0.001
29.15,-0.593,0.34,-0.006
29.16,-0.594,0.342,-0.003
29.17,-0.6,0.343,0.001
29.18,-0.598,0.34,0.002
29.19,-0.594,0.339,-0.006
29.2,-0.594,0.344,0.0
29.21,-0.597,0.342,0.002
29.22,-0.599,0.339,0.001
29.23,-0.594,0.341,0.001
29.24,-0.603,0.341,0.012
29.25,-0.598,0.348,-0.002
29.26,-0.602,0.336,-0.002
29.27,-0.599,0.34,0.001
29.28,-0.595,0.342,-0.003
29.29,-0.592,0.347,-0.004
29.3,-0.595,0.337,-0.004
29.31,-0.591,0.341,-0.004
29.32,-0.6,0.343,-0.002
29.33,-0.603,0.339,-0.002
29.34,-0.598,0.34,0.008
29.35,-0.595,0.337,0.001
29.36,-0.593,0.344,0.002
29.37,-0.592,0.339,0.006
29.38,-0.59,0.346,0.014
29.39,-0.592,0.343,-0.003
29.4,-0.59,0.34,-0.001
29.41,-0.598,0.335,-0.007
29.42,-0.594,0.335,0.007
29.43,-0.598,0.336,-0.002
29.44,-0.596,0.341,0.001
29.45,-0.595,0.34,0.003
29.46,-0.596,0.34,0.003
29.47,-0.591,0.343,-0.001
29.48,-0.599,0.344,-0.005
29.49,-0.6,0.344,0.001
29.5,-0.601,0.338,-0.004
29.51,-0.601,0.339,-0.0
29.52,-0.602,0.34,-0.003
29.53,-0.598,0.333,0.0
29.54,-0.597,0.338,0.008
29.55,-0.601,0.339,-0.007
29.56,-0.601,0.34,-0.002
29.57,-0.593,0.343,-0.004
29.58,-0.604,0.343,0.008
29.59,-0.595,0.341,-0.007
29.6,-0.599,0.344,0.002
29.61,-0.594,0.337,0.005
29.62,-0.595,0.342,0.002
29.63,-0.595,0.344,0.002
29.64,-0.6,0.341,0.002
29.65,-0.602,0.346,-0.01
29.66,-0.602,0.341,0.007
29.67,-0.595,0.347,-0.008
29.68,-0.599,0.347,0.001
29.69,-0.595,0.338,0.002
29.7,-0.592,0.342,0.01
29.71,-0.597,0.35,0.006
29.72,-0.6,0.334,-0.001
29.73,-0.593,0.34,0.004
29.74,-0.592,0.34,-0.01
29.75,-0.596,0.34,-0.003
29.76,-0.594,0.347,0.01
29.77,-0.594,0.336,-0.002
29.78,-0.595,0.342,-0.004
29.79,-0.6,0.34,-0.006
29.8,-0.599,0.34,-0.0
29.81,-0.598,0.338,-0.0
29.82,-0.593,0.34,0.003
29.83,-0.597,0.342,-0.002
29.84,-0.591,0.342,-0.001
29.85,-0.595,0.34,-0.003
29.86,-0.6,0.344,0.008
29.87,-0.596,0.343,-0.003
29.88,-0.595,0.345,-0.001
29.89,-0.601,0.34,-0.003
29.9,-0.595,0.347,0.003
29.91,-0.597,0.342,0.004
29.92,-0.596,0.339,0.004
29.93,-0.599,0.345,0.001
29.94,-0.6,0.348,0.0
29.95,-0.598,0.34,0.007
29.96,-0.597,0.344,0.004
29.97,-0.595,0.345,0.001
29.98,-0.6,0.344,-0.017
29.99,-0.594,0.338,-0.0
30.0,-0.594,0.342,-0.001
30.01,-0.602,0.342,-0.013
30.02,-0.6,0.338,0.001
30.03,-0.592,0.34,-0.001
30.04,-0.603,0.34,-0.005
30.05,-0.603,0.342,0.003
30.06,-0.6,0.344,0.011
30.07,-0.593,0.338,-0.0
30.08,-0.594,0.336,0.001
30.09,-0.598,0.339,0.007
30.1,-0.591,0.339,0.002
30.11,-0.596,0.342,0.002
30.12,-0.595,0.343,-0.003
30.13,-0.602,0.34,0.005
30.14,-0.599,0.342,0.007
30.15,-0.592,0.338,-0.003
30.16,-0.597,0.341,-0.0
30.17,-0.597,0.344,0.006
30.18,-0.594,0.339,0.01
30.19,-0.593,0.34,0.006
30.2,-0.596,0.336,-0.006
30.21,-0.596,0.338,-0.005
30.22,-0.597,0.343,0.001
30.23,-0.59,0.342,-0.002
30.24,-0.597,0.341,-0.006
30.25,-0.6,0.34,0.001
30.26,-0.597,0.339,-0.004
30.27,-0.596,0.339,-0.001
30.28,-0.604,0.343,-0.003
30.29,-0.6,0.343,0.005
30.3,-0.595,0.344,0.004
30.31,-0.592,0.338,-0.003
30.32,-0.599,0.341,0.005
30.33,-0.602,0.334,-0.007
30.34,-0.601,0.34,-0.006
30.35,-0.597,0.345,-0.007
30.36,-0.603,0.345,0.006
30.37,-0.598,0.34,-0.001
30.38,-0.596,0.343,0.005
30.39,-0.597,0.34,-0.004
30.4,-0.598,0.34,-0.004
30.41,-0.593,0.34,0.006
30.42,-0.591,0.342,-0.007
30.43,-0.601,0.34,0.008
30.44,-0.6,0.337,-0.0
30.45,-0.598,0.338,-0.004
30.46,-0.595,0.333,0.003
30.47,-0.594,0.339,-0.003
30.48,-0.596,0.336,0.0
30.49,-0.592,0.343,-0.006
30.5,-0.591,0.34,0.0
30.51,-0.602,0.345,-0.003
30.52,-0.602,0.336,-0.003
30.53,-0.592,0.341,0.002
30.54,-0.601,0.342,-0.009
30.55,-0.598,0.342,0.002
30.56,-0.597,0.344,-0.0
30.57,-0.593,0.342,0.01
30.58,-0.598,0.339,-0.007
30.59,-0.594,0.339,-0.008
30.6,-0.595,0.341,0.002
30.61,-0.595,0.339,-0.004
30.62,-0.598,0.342,-0.002
30.63,-0.593,0.341,-0.002
30.64,-0.596,0.338,0.004
30.65,-0.598,0.342,-0.0
30.66,-0.599,0.344,-0.0
30.67,-0.598,0.338,-0.006
30.68,-0.593,0.337,-0.001
30.69,-0.592,0.342,0.006
30.7,-0.595,0.34,0.009
30.71,-0.598,0.344,0.007
30.72,-0.594,0.344,0.005
30.73,-0.598,0.342,0.009
30.74,-0.598,0.339,0.009
30.75,-0.594,0.338,-0.003
30.76,-0.595,0.339,0.004
30.77,-0.601,0.344,-0.008
30.78,-0.595,0.338,0.001
30.79,-0.596,0.341,0.008
30.8,-0.59,0.344,-0.003
30.81,-0.596,0.339,-0.007
30.82,-0.598,0.341,-0.007
30.83,-0.594,0.34,-0.003
30.84,-0.597,0.341,-0.002
30.85,-0.599,0.343,0.006
30.86,-0.592,0.336,-0.002
30.87,-0.595,0.34,0.0
30.88,-0.598,0.344,-0.007
30.89,-0.604,0.343,0.006
30.9,-0.596,0.346,0.001
30.91,-0.598,0.34,0.004
30.92,-0.603,0.346,0.0
30.93,-0.595,0.339,0.002
30.94,-0.595,0.344,0.002
30.95,-0.594,0.347,-0.007
30.96,-0.604,0.339,0.003
30.97,-0.598,0.343,-0.004
30.98,-0.595,0.341,-0.004
30.99,-0.598,0.342,-0.011
31.0,-0.604,0.341,0.003
31.01,-0.593,0.341,-0.003
31.02,-0.591,0.342,0.001
31.03,-0.602,0.34,-0.002
31.04,-0.607,0.345,-0.006
31.05,-0.593,0.343,-0.003
31.06,-0.594,0.342,0.0
31.07,-0.603,0.342,-0.003
31.08,-0.601,0.34,-0.001
31.09,-0.589,0.345,-0.003
31.1,-0.598,0.34,-0.003
31.11,-0.599,0.341,0.0
31.12,-0.595,0.345,0.0
31.13,-0.593,0.337,0.004
31.14,-0.605,0.341,0.005
31.15,-0.6,0.339,-0.001
31.16,-0.6,0.344,0.0
31.17,-0.595,0.343,0.005
31.18,-0.598,0.344,0.004
31.19,-0.597,0.339,0.001
31.2,-0.595,0.344,0.004
31.21,-0.594,0.343,-0.004
31.22,-0.601,0.34,-0.003
31.23,-0.596,0.343,-0.003
31.24,-0.59,0.345,0.002
31.25,-0.601,0.341,-0.002
31.26,-0.599,0.341,0.004
31.27,-0.59,0.34,-0.001
31.28,-0.59,0.341,-0.001
31.29,-0.601,0.34,-0.006
31.3,-0.595,0.341,-0.002
31.31,-0.592,0.338,0.006
31.32,-0.598,0.341,-0.005
31.33,-0.6,0.34,-0.001
31.34,-0.598,0.342,-0.004
31.35,-0.591,0.343,0.006
31.36,-0.591,0.341,0.004
31.37,-0.595,0.343,-0.001
31.38,-0.592,0.337,0.006
31.39,-0.597,0.346,-0.004
31.4,-0.588,0.343,0.002
31.41,-0.604,0.339,-0.004
31.42,-0.595,0.338,-0.01
31.43,-0.595,0.343,0.001
31.44,-0.602,0.341,-0.002
31.45,-0.597,0.344,0.007
31.46,-0.594,0.342,-0.001
31.47,-0.594,0.34,-0.001
31.48,-0.599,0.341,0.001
31.49,-0.6,0.337,-0.005
31.5,-0.589,0.342,0.003
31.51,-0.6,0.333,-0.006
31.52,-0.597,0.342,-0.006
31.53,-0.597,0.338,0.003
31.54,-0.594,0.345,0.003
31.55,-0.599,0.339,-0.004
31.56,-0.594,0.34,-0.007
31.57,-0.591,0.344,0.003
31.58,-0.591,0.341,-0.002
31.59,-0.6,0.34,-0.0
31.6,-0.596,0.342,-0.005
31.61,-0.59,0.342,-0.005
31.62,-0.596,0.34,-0.003
31.63,-0.599,0.338,0.004
31.64,-0.597,0.343,0.006
31.65,-0.595,0.337,-0.0
31.66,-0.597,0.341,-0.003
31.67,-0.6,0.338,0.004
31.68,-0.59,0.332,0.0
31.69,-0.598,0.338,0.001
31.7,-0.602,0.341,0.0
31.71,-0.592,0.343,-0.004
31.72,-0.592,0.345,-0.01
31.73,-0.595,0.338,-0.002
31.74,-0.594,0.343,-0.0
31.75,-0.596,0.342,-0.002
31.76,-0.593,0.344,0.004
31.77,-0.593,0.339,0.002
31.78,-0.599,0.339,0.0
31.79,-0.595,0.347,0.003
31.8,-0.594,0.339,-0.002
31.81,-0.594,0.339,-0.003
31.82,-0.598,0.345,-0.0
31.83,-0.597,0.341,0.008
31.84,-0.586,0.344,0.007
31.85,-0.607,0.345,-0.007
31.86,-0.597,0.336,0.003
31.87,-0.594,0.348,0.002
31.88,-0.598,0.345,-0.007
31.89,-0.596,0.346,-0.001
31.9,-0.596,0.34,0.001
31.91,-0.596,0.336,-0.005
31.92,-0.597,0.342,0.003
31.93,-0.6,0.339,-0.001
31.94,-0.601,0.344,0.002
31.95,-0.599,0.342,-0.002
31.96,-0.599,0.339,-0.002
31.97,-0.595,0.346,-0.001
31.98,-0.594,0.334,0.0
31.99,-0.598,0.341,0.003
32.0,-0.594,0.339,-0.005
32.01,-0.594,0.345,0.006
32.02,-0.601,0.341,0.001
32.03,-0.597,0.34,0.008
32.04,-0.595,0.339,-0.005
32.05,-0.596,0.341,0.003
32.06,-0.597,0.34,-0.008
32.07,-0.6,0.338,-0.004
32.08,-0.594,0.338,0.001
32.09,-0.593,0.339,0.0
32.1,-0.599,0.34,-0.007
32.11,-0.593,0.343,0.003
32.12,-0.599,0.335,0.001
32.13,-0.596,0.34,0.004
32.14,-0.6,0.338,-0.0
32.15,-0.6,0.34,-0.002
32.16,-0.597,0.344,-0.004
32.17,-0.601,0.345,0.004
32.18,-0.596,0.335,0.002
32.19,-0.595,0.345,0.001
32.2,-0.6,0.341,0.001
32.21,-0.606,0.341,-0.0
32.22,-0.596,0.342,-0.003
32.23,-0.602,0.341,0.006
32.24,-0.595,0.34,-0.001
32.25,-0.592,0.346,0.001
32.26,-0.598,0.343,0.004
32.27,-0.6,0.343,-0.001
32.28,-0.601,0.335,-0.009
32.29,-0.598,0.339,-0.014
32.3,-0.597,0.335,0.0
32.31,-0.59,0.342,0.0
32.32,-0.595,0.341,-0.005
32.33,-0.588,0.339,0.012
32.34,-0.591,0.338,-0.001
32.35,-0.595,0.345,0.003
32.36,-0.601,0.341,-0.002
32.37,-0.599,0.343,0.001
32.38,-0.599,0.343,0.002
32.39,-0.596,0.339,0.002
32.4,-0.596,0.339,-0.005
32.41,-0.595,0.337,0.0
32.42,-0.596,0.342,0.0
32.43,-0.594,0.337,0.003
32.44,-0.596,0.347,-0.007
32.45,-0.597,0.345,-0.0
32.46,-0.597,0.341,-0.002
32.47,-0.597,0.343,-0.003
32.48,-0.599,0.343,0.005
32.49,-0.593,0.337,0.004
32.5,-0.596,0.343,-0.003
32.51,-0.597,0.339,-0.004
32.52,-0.59,0.338,-0.004
32.53,-0.595,0.348,-0.001
32.54,-0.599,0.345,0.006
32.55,-0.597,0.341,0.006
32.56,-0.598,0.344,0.004
32.57,-0.6,0.341,0.006
32.58,-0.6,0.344,-0.002
32.59,-0.595,0.344,-0.004
32.6,-0.6,0.339,0.004
32.61,-0.6,0.343,-0.003
32.62,-0.594,0.339,-0.007
32.63,-0.596,0.342,0.0
32.64,-0.594,0.343,-0.006
32.65,-0.599,0.338,0.005
32.66,-0.594,0.342,-0.004
32.67,-0.594,0.341,-0.005
32.68,-0.595,0.344,-0.003
32.69,-0.593,0.345,-0.001
32.7,-0.594,0.345,0.003
32.71,-0.591,0.338,0.01
32.72,-0.596,0.345,-0.002
32.73,-0.594,0.342,0.002
32.74,-0.595,0.341,-0.011
32.75,-0.604,0.342,0.006
32.76,-0.598,0.343,0.008
32.77,-0.597,0.344,0.003
32.78,-0.599,0.341,0.002
32.79,-0.598,0.346,0.001
32.8,-0.597,0.34,-0.01
32.81,-0.6,0.34,0.001
32.82,-0.601,0.344,0.002
32.83,-0.601,0.344,-0.0
32.84,-0.597,0.341,-0.008
32.85,-0.606,0.346,0.004
32.86,-0.591,0.344,-0.002
32.87,-0.59,0.341,0.002
32.88,-0.594,0.343,-0.001
32.89,-0.599,0.346,-0.003
32.9,-0.599,0.341,0.001
32.91,-0.602,0.345,-0.006
32.92,-0.592,0.338,-0.005
32.93,-0.598,0.341,-0.001
32.94,-0.6,0.342,-0.003
32.95,-0.601,0.342,0.006
32.96,-0.599,0.336,0.004
32.97,-0.593,0.339,0.004
32.98,-0.595,0.347,0.005
32.99,-0.597,0.344,-0.003
33.0,-0.599,0.338,-0.004
33.01,-0.592,0.345,-0.002
33.02,-0.594,0.347,-0.003
33.03,-0.602,0.344,0.007
33.04,-0.595,0.339,-0.0
33.05,-0.59,0.343,0.015
33.06,-0.597,0.342,0.009
33.07,-0.591,0.339,-0.002
33.08,-0.594,0.346,0.0
33.09,-0.595,0.344,0.0
33.1,-0.597,0.338,0.005
33.11,-0.593,0.339,0.005
33.12,-0.596,0.34,0.0
33.13,-0.597,0.34,0.005
33.14,-0.595,0.336,-0.0
33.15,-0.595,0.346,-0.001
33.16,-0.597,0.34,-0.007
33.17,-0.593,0.342,0.007
33.18,-0.601,0.342,0.002
33.19,-0.598,0.342,0.001
33.2,-0.594,0.339,0.001
33.21,-0.597,0.34,0.001
33.22,-0.599,0.341,0.005
33.23,-0.597,0.34,-0.011
33.24,-0.593,0.347,0.004
33.25,-0.601,0.34,-0.001
33.26,-0.594,0.341,0.002
33.27,-0.6,0.347,0.003
33.28,-0.595,0.343,-0.001
33.29,-0.592,0.341,0.003
33.3,-0.598,0.342,-0.004
33.31,-0.593,0.343,-0.002
33.32,-0.593,0.342,0.001
33.33,-0.597,0.34,0.006
33.34,-0.596,0.342,-0.002
33.35,-0.17,0.011,0.116
33.36,-0.158,0.226,0.049
33.37,-0.32,0.046,-0.01
33.38,-0.472,-0.181,-0.051
33.39,-0.356,-0.03,-0.055
33.4,-0.333,0.094,-0.042
33.41,-0.324,0.079,0.007
33.42,-0.242,0.173,-0.038
33.43,-0.127,0.131,-0.012
33.44,-0.125,0.007,0.018
33.45,-0.091,-0.048,0.034
33.46,-0.071,-0.214,0.081
33.47,-0.153,-0.001,0.078
33.48,-0.282,0.007,0.104
33.49,-0.359,0.065,0.098
33.5,-0.353,0.091,-0.066
33.51,-0.315,-0.054,-0.145
33.52,-0.352,-0.125,-0.057
33.53,-0.306,0.072,-0.01
33.54,-0.25,0.191,0.092
33.55,-0.186,0.22,0.022
33.56,-0.041,0.279,-0.088
33.57,-0.013,-0.143,-0.113
33.58,-0.062,-0.375,-0.869
33.59,-0.189,-0.213,0.176
33.6,-0.404,-0.21,0.4
33.61,-0.344,0.196,0.181
33.62,-0.331,0.247,-0.06
33.63,-0.302,0.072,-0.228
33.64,-0.245,0.056,-0.25
33.65,-0.329,-0.125,-0.053
33.66,-0.23,0.01,0.033
33.67,-0.202,0.163,0.045
33.68,-0.166,0.222,0.056
33.69,-0.049,0.131,0.027
33.7,-0.113,0.045,0.099
33.71,-0.245,-0.257,0.156
33.72,-0.386,-0.292,0.111
33.73,-0.343,-0.136,0.018
33.74,-0.295,-0.086,-0.01
33.75,-0.303,0.264,-0.022
33.76,-0.25,0.31,-0.066
33.77,-0.245,0.009,-0.061
33.78,-0.25,0.006,-0.107
33.79,-0.0,-0.0,-0.85
33.8,-0.265,-0.03,0.098
33.81,-0.305,-0.004,0.026
33.82,-0.399,-0.181,-0.014
33.83,-0.365,-0.161,0.029
33.84,-0.325,0.167,0.021
33.85,-0.21,0.16,-0.009
33.86,-0.182,0.226,-0.043
33.87,-0.169,0.257,-0.046
33.88,-0.158,0.093,0.009
33.89,-0.146,-0.107,0.019
33.9,-0.213,-0.165,0.093
33.91,-0.258,-0.212,0.101
33.92,-0.269,-0.064,0.117
33.93,-0.292,0.121,0.076
33.94,-0.282,0.05,0.028
33.95,-0.217,0.056,-0.109
33.96,-0.238,-0.093,-0.055
33.97,-0.221,-0.057,0.002
33.98,-0.228,0.27,0.064
33.99,-0.29,0.25,0.07
34.0,-0.222,0.243,-0.073
34.01,-0.122,0.117,-0.175
34.02,-0.163,-0.308,-0.039
34.03,-0.223,-0.432,0.114
34.04,-0.339,-0.208,0.256
34.05,-0.239,-0.109,0.288
34.06,-0.169,0.24,0.041
34.07,-0.191,0.258,-0.067
34.08,-0.175,0.03,-0.14
34.09,-0.289,0.006,-0.104
34.1,-0.365,-0.103,-0.011
34.11,-0.344,0.031,0.014
34.12,-0.317,0.26,0.03
34.13,-0.199,0.141,0.011
34.14,-0.208,0.094,0.033
34.15,-0.167,-0.089,0.06
34.16,-0.175,-0.329,0.127
34.17,-0.2,-0.22,0.099
34.18,-0.147,-0.063,0.024
34.19,-0.248,0.078,0.002
34.2,-0.216,0.36,-0.046
34.21,-0.316,0.252,-0.045
34.22,-0.449,0.02,-0.037
34.23,-0.292,0.025,-0.082
34.24,-0.327,-0.071,0.023
34.25,-0.256,-0.012,-0.008
34.26,-0.126,0.177,0.044
34.27,-0.112,-0.007,0.092
34.28,-0.025,-0.059,0.014
34.29,-0.187,-0.192,0.088
34.3,-0.23,-0.365,0.167
34.31,-0.278,0.054,0.049
34.32,-0.47,0.053,0.06
34.33,-0.331,0.174,-0.055
34.34,-0.251,0.325,-0.152
34.35,-0.282,0.149,-0.079
34.36,-0.221,-0.105,-0.07
34.37,-0.205,0.012,-0.012
34.38,-0.12,-0.119,0.039
34.39,-0.035,-0.037,0.102
34.4,-0.15,0.115,0.119
34.41,-0.191,-0.028,0.105
34.42,-0.333,-0.011,0.065
34.43,-0.354,-0.072,-0.029
34.44,-0.386,-0.048,-0.007
34.45,-0.343,0.083,-0.037
34.46,-0.25,0.215,-0.074
34.47,-0.242,0.18,-0.083
34.48,-0.255,0.167,-0.019
34.49,-0.21,0.018,0.012
34.5,-0.065,-0.12,-0.008
34.51,-0.102,-0.128,0.027
34.52,-0.187,-0.123,0.133
34.53,-0.177,0.004,0.127
34.54,-0.307,0.176,0.105
34.55,-0.235,-0.036,-0.014
34.56,-0.244,-0.016,-0.148
34.57,-0.36,-0.142,-0.05
34.58,-0.32,0.035,0.049
34.59,-0.385,0.164,0.074
34.6,-0.376,0.328,0.006
34.61,-0.163,0.149,-0.128
34.62,0.004,0.037,-0.185
34.63,-0.057,-0.225,-0.04
34.64,-0.09,-0.475,0.138
34.65,-0.232,-0.129,0.274
34.66,-0.235,0.027,0.29
34.67,-0.258,0.239,0.071
34.68,-0.356,0.296,-0.142
34.69,-0.271,-0.017,-0.17
34.7,-0.432,-0.05,-0.139
34.71,-0.434,0.002,-0.051
34.72,-0.282,-0.067,0.006
34.73,-0.081,0.235,-0.009
34.74,-0.0,-0.0,-0.855
34.75,-0.315,-0.123,0.049
34.76,-0.409,0.094,0.033
34.77,-0.36,0.15,0.015
34.78,-0.221,0.182,-0.038
34.79,-0.182,0.15,-0.084
34.8,-0.151,-0.108,-0.057
34.81,-0.096,-0.059,-0.038
34.82,-0.119,0.026,0.029
34.83,-0.199,0.008,0.121
34.84,-0.23,0.149,0.123
34.85,-0.263,0.118,0.093
34.86,-0.311,-0.094,-0.864
34.87,-0.355,-0.13,-0.059
34.88,-0.398,-0.108,0.015
34.89,-0.307,0.026,0.012
34.9,-0.192,0.203,-0.035
34.91,-0.17,0.238,-0.026
34.92,-0.214,0.178,-0.012
34.93,-0.211,0.065,0.044
34.94,-0.082,-0.192,0.023
34.95,-0.21,-0.157,0.063
34.96,-0.238,-0.065,0.125
34.97,-0.207,-0.049,0.134
34.98,-0.358,0.2,0.048
34.99,-0.33,0.05,-0.002
35.0,-0.231,-0.074,-0.105
35.01,-0.289,-0.098,-0.086
35.02,-0.255,-0.067,0.03
35.03,-0.244,0.143,0.111
35.04,-0.274,0.379,0.086
35.05,-0.171,0.242,-0.045
35.06,-0.085,0.019,-0.158
35.07,-0.037,-0.15,-0.104
35.08,-0.101,-0.431,0.125
35.09,-0.322,-0.132,0.28
35.1,-0.385,0.019,0.29
35.11,-0.302,0.115,0.015
35.12,-0.261,0.276,-0.142
35.13,-0.236,0.014,-0.154
35.14,-0.33,-0.1,-0.036
35.15,-0.346,-0.021,0.015
35.16,-0.209,0.009,0.043
35.17,-0.164,0.185,0.015
35.18,-0.076,0.261,0.007
35.19,-0.114,0.151,0.09
35.2,-0.207,-0.103,0.064
35.21,-0.364,-0.281,0.044
35.22,-0.382,-0.295,0.045
35.23,-0.237,-0.111,-0.002
35.24,-0.253,0.131,0.029
35.25,-0.268,0.25,-0.011
35.26,-0.181,0.255,-0.045
35.27,-0.317,0.033,0.027
35.28,-0.197,-0.093,-0.035
35.29,-0.156,-0.035,0.005
35.3,-0.258,-0.003,0.09
35.31,-0.178,0.229,0.016
35.32,-0.237,0.14,-0.017
35.33,-0.197,-0.101,-0.02
35.34,-0.129,-0.164,-0.045
35.35,-0.295,-0.314,0.129
35.36,-0.242,-0.175,0.124
35.37,-0.321,0.213,0.084
35.38,-0.331,0.228,0.062
35.39,-0.177,0.271,-0.088
35.4,-0.244,0.177,-0.082
35.41,-0.221,-0.124,-0.033
35.42,-0.181,-0.181,-0.003
35.43,-0.247,-0.1,0.019
35.44,-0.152,-0.149,0.098
35.45,-0.203,0.19,0.13
35.46,-0.207,0.13,0.069
35.47,-0.258,-0.051,-0.004
35.48,-0.35,-0.029,-0.047
35.49,-0.348,-0.025,-0.034
35.5,-0.324,0.06,0.014
35.51,-0.263,0.222,-0.051
35.52,-0.199,0.185,-0.069
35.53,-0.207,0.083,-0.011
35.54,-0.228,0.046,0.017
35.55,-0.19,-0.221,0.092
35.56,-0.157,-0.143,0.041
35.57,-0.213,-0.031,0.065
35.58,-0.146,-0.063,0.05
35.59,-0.238,0.249,0.031
35.6,-0.314,0.109,-0.009
35.61,-0.16,-0.135,-0.126
35.62,-0.297,-0.032,-0.05
35.63,-0.311,-0.031,-0.867
35.64,-0.281,0.187,0.1
35.65,-0.385,0.357,0.089
35.66,-0.188,0.145,-0.092
35.67,-0.125,0.025,-0.154
35.68,-0.094,-0.352,-0.069
35.69,-0.123,-0.438,0.149
35.7,-0.271,-0.199,0.301
35.71,-0.157,0.14,0.215
35.72,-0.225,0.182,-0.0
35.73,-0.276,0.316,-0.149
35.74,-0.285,0.125,-0.15
35.75,-0.412,-0.118,-0.029
35.76,-0.338,-0.038,-0.033
35.77,-0.408,-0.026,0.008
35.78,-0.278,0.055,0.029
35.79,-0.033,0.188,0.022
35.8,-0.108,0.092,0.119
35.81,-0.096,-0.143,0.082
35.82,-0.199,-0.171,0.037
35.83,-0.23,-0.176,0.065
35.84,-0.153,0.013,-0.016
35.85,-0.369,0.215,0.038
35.86,-0.301,0.203,-0.048
35.87,-0.329,0.199,-0.016
35.88,-0.46,0.027,-0.011
35.89,-0.265,-0.132,-0.099
35.9,-0.27,-0.055,-0.008
35.91,-0.162,0.027,0.062
35.92,-0.025,0.098,0.073
35.93,-0.042,0.176,0.034
35.94,-0.089,-0.219,0.046
35.95,-0.207,-0.174,0.091
35.96,-0.287,-0.082,0.178
35.97,-0.392,-0.083,0.115
35.98,-0.487,0.163,-0.029
35.99,-0.333,0.239,-0.198
36.0,-0.257,0.101,-0.178
36.01,-0.277,0.103,-0.048
36.02,-0.167,-0.126,0.037
36.03,-0.096,-0.13,0.021
36.04,-0.069,0.009,0.061
36.05,-0.105,0.011,0.183
36.06,-0.11,0.186,0.152
36.07,-0.29,0.08,0.097
36.08,-0.331,-0.106,-0.021
36.09,-0.368,-0.087,-0.126
36.1,-0.502,-0.032,-0.063
36.11,-0.319,0.008,-0.029
36.12,-0.227,0.259,-0.04
36.13,-0.223,0.181,-0.028
36.14,-0.163,0.081,-0.023
36.15,-0.0,-0.0,-0.85
36.16,-0.31,0.122,0.135
36.17,-0.338,0.142,-0.146
36.18,-0.254,0.116,-0.248
36.19,-0.371,-0.096,-0.073
36.2,-0.362,-0.11,-0.02
36.21,-0.25,0.061,-0.02
36.22,-0.24,0.158,0.03
36.23,-0.049,0.189,0.047
36.24,-0.035,0.297,0.055
36.25,-0.133,-0.054,0.131
36.26,-0.225,-0.216,0.077
36.27,-0.364,-0.207,0.108
36.28,-0.336,-0.247,0.051
36.29,-0.349,0.014,0.004
36.3,-0.295,0.161,0.001
36.31,-0.216,0.125,-0.04
36.32,-0.253,0.16,-0.023
36.33,-0.237,0.013,-0.003
36.34,-0.19,0.016,0.009
36.35,-0.197,0.126,0.007
36.36,-0.195,0.052,0.052
36.37,-0.121,0.117,-0.03
36.38,-0.179,-0.036,0.003
36.39,-0.318,-0.294,0.109
36.4,-0.296,-0.163,0.126
36.41,-0.271,-0.084,0.109
36.42,-0.267,-0.025,0.023
36.43,-0.28,0.261,-0.075
36.44,-0.186,0.224,-0.079
36.45,-0.201,0.163,-0.036
36.46,-0.235,0.088,-0.02
36.47,-0.206,-0.142,0.014
36.48,-0.186,-0.082,0.051
36.49,-0.231,-0.031,0.114
36.5,-0.25,0.003,0.112
36.51,-0.269,0.026,0.098
36.52,-0.297,0.022,0.007
36.53,-0.288,-0.156,-0.052
36.54,-0.271,0.071,-0.046
36.55,-0.236,0.048,0.007
36.56,-0.241,0.188,0.003
36.57,-0.23,0.198,-0.035
36.58,-0.261,0.076,0.04
36.59,-0.26,0.049,0.047
36.6,-0.177,-0.098,0.038
36.61,-0.236,-0.178,0.033
36.62,-0.211,-0.078,0.034
36.63,-0.168,0.051,0.024
36.64,-0.233,0.005,0.088
36.65,-0.177,0.088,-0.037
36.66,-0.184,-0.021,-0.067
36.67,-0.304,-0.177,0.012
36.68,-0.29,0.143,0.07
36.69,-0.371,0.213,0.118
36.7,-0.352,0.243,0.034
36.71,-0.17,0.319,-0.152
36.72,-0.047,-0.124,-0.191
36.73,-0.137,-0.269,-0.097
36.74,-0.205,-0.365,0.127
36.75,-0.229,-0.193,0.356
36.76,-0.234,0.127,0.216
36.77,-0.248,0.209,0.021
36.78,-0.231,0.186,-0.153
36.79,-0.229,0.072,-0.169
36.8,-0.378,-0.143,0.005
36.81,-0.323,-0.095,0.007
36.82,-0.262,0.161,-0.004
36.83,-0.208,0.091,0.044
36.84,-0.203,0.276,0.002
36.85,-0.196,0.119,0.039
36.86,-0.226,-0.274,0.103
36.87,-0.273,-0.33,0.047
36.88,-0.281,-0.165,0.005
36.89,-0.188,-0.093,0.024
36.9,-0.179,0.249,-0.01
36.91,-0.166,0.415,-0.009
36.92,-0.268,0.156,0.035
36.93,-0.32,0.117,-0.044
36.94,-0.301,-0.15,-0.079
36.95,-0.337,-0.148,-0.034
36.96,-0.274,0.058,0.024
36.97,-0.237,0.112,0.077
36.98,-0.094,0.054,0.014
36.99,-0.116,-0.065,-0.013
37.0,-0.116,-0.287,0.096
37.01,-0.165,-0.1,0.135
37.02,-0.25,0.0,0.113
37.03,-0.368,0.171,0.039
37.04,-0.305,0.27,-0.128
37.05,-0.314,0.248,-0.129
37.06,-0.336,-0.116,-0.07
37.07,-0.255,-0.047,-0.007
37.08,-0.249,-0.182,0.037
37.09,-0.128,-0.16,0.063
37.1,-0.076,0.145,0.094
37.11,-0.091,0.117,0.146
37.12,-0.185,0.147,0.083
37.13,-0.26,-0.007,-0.043
37.14,-0.329,-0.077,-0.079
37.15,-0.393,-0.051,-0.07
37.16,-0.431,0.109,0.007
37.17,-0.309,0.043,-0.047
37.18,-0.26,0.139,-0.052
37.19,-0.23,0.081,-0.029
37.2,-0.148,-0.003,0.052
37.21,-0.065,-0.041,0.055
37.22,-0.079,-0.098,0.064
37.23,-0.136,-0.019,0.053
37.24,-0.166,0.052,0.043
37.25,-0.321,0.027,0.048
37.26,-0.334,0.057,-0.039
37.27,-0.295,0.009,-0.091
37.28,-0.362,-0.166,-0.065
37.29,-0.368,0.079,-0.038
37.3,-0.363,0.137,0.062
37.31,-0.23,0.25,0.078
37.32,-0.038,0.223,-0.076
37.33,-0.02,0.007,-0.093
37.34,-0.076,-0.397,-0.004
37.35,-0.184,-0.306,0.129
37.36,-0.255,-0.206,0.3
37.37,-0.256,0.12,0.175
37.38,-0.376,0.324,-0.025
37.39,-0.365,0.139,-0.148
37.4,-0.301,0.108,-0.252
37.41,-0.392,-0.059,-0.08
37.42,-0.258,-0.149,-0.007
37.43,-0.174,0.046,0.027
37.44,-0.109,0.171,0.034
37.45,-0.043,0.148,0.041
37.46,-0.137,0.209,0.096
37.47,-0.175,-0.136,0.069
37.48,-0.314,-0.252,0.068
37.49,-0.308,-0.149,-0.016
37.5,-0.286,-0.158,0.031
37.51,-0.389,0.17,0.021
37.52,-0.335,0.227,-0.018
37.53,-0.284,0.103,-0.049
37.54,-0.171,0.094,-0.132
37.55,-0.21,-0.078,-0.073
37.56,-0.193,-0.113,0.031
37.57,-0.132,0.15,0.06
37.58,-0.174,0.091,0.118
37.59,-0.151,0.06,0.015
37.6,-0.176,-0.02,0.014
37.61,-0.305,-0.239,0.122
37.62,-0.321,-0.155,0.07
37.63,-0.371,-0.051,-0.015
37.64,-0.382,0.025,-0.054
37.65,-0.231,0.256,-0.138
37.66,-0.212,0.222,-0.089
37.67,-0.164,0.002,-0.031
37.68,-0.108,-0.039,-0.018
37.69,-0.168,-0.058,0.071
37.7,-0.157,-0.108,0.074
37.71,-0.216,0.148,0.084
37.72,-0.23,0.068,0.089
37.73,-0.348,-0.012,-0.025
37.74,-0.374,-0.078,-0.067
37.75,-0.381,-0.167,-0.061
37.76,-0.311,0.058,-0.032
37.77,-0.221,0.139,-0.022
37.78,-0.155,0.171,-0.042
37.79,-0.194,0.254,0.007
37.8,-0.159,0.105,0.037
37.81,-0.094,-0.053,0.016
37.82,-0.156,-0.142,0.016
37.83,-0.212,-0.139,0.075
37.84,-0.242,-0.059,0.076
37.85,-0.363,0.064,0.085
37.86,-0.369,-0.038,0.035
37.87,-0.209,0.037,-0.123
37.88,-0.241,-0.091,-0.091
37.89,-0.3,-0.06,0.013
37.9,-0.249,0.228,0.032
37.91,-0.255,0.313,0.033
37.92,-0.205,0.235,-0.067
37.93,-0.077,0.104,-0.168
37.94,-0.106,-0.222,-0.033
37.95,-0.144,-0.417,0.105
37.96,-0.338,-0.202,0.253
37.97,-0.374,-0.089,0.307
37.98,-0.206,0.12,0.018
37.99,-0.261,0.303,-0.156
38.0,-0.208,-0.003,-0.196
38.01,-0.275,-0.012,-0.155
38.02,-0.346,0.027,-0.04
38.03,-0.245,0.025,0.017
38.04,-0.236,0.225,0.067
38.05,-0.185,0.256,0.004
38.06,-0.115,0.061,0.042
38.07,-0.198,-0.047,0.094
38.08,-0.316,-0.333,0.1
38.09,-0.34,-0.377,0.076
38.1,-0.182,-0.067,-0.025
38.11,-0.249,0.002,-0.006
38.12,-0.24,0.387,-0.059
38.13,-0.255,0.24,-0.06
38.14,-0.304,0.109,-0.044
38.15,-0.258,-0.008,-0.12
38.16,-0.293,-0.079,-0.037
38.17,-0.21,-0.026,0.027
38.18,-0.199,0.139,0.055
38.19,-0.222,0.092,0.1
38.2,-0.107,-0.156,0.011
38.21,-0.169,-0.145,0.05
38.22,-0.24,-0.36,0.095
38.23,-0.224,-0.057,0.072
38.24,-0.365,0.185,-0.016
38.25,-0.32,0.177,-0.074
38.26,-0.196,0.344,-0.879
38.27,-0.262,0.204,-0.076
38.28,-0.24,-0.109,-0.026
38.29,-0.209,-0.046,0.011
38.3,-0.166,-0.171,0.044
38.31,-0.182,0.026,0.063
38.32,-0.163,0.0,0.14
38.33,-0.182,0.071,0.11
38.34,-0.275,-0.012,0.009
38.35,-0.355,-0.125,-0.873
38.36,-0.3,-0.058,-0.031
38.37,-0.327,0.135,0.007
38.38,-0.295,0.177,-0.003
38.39,-0.244,0.187,-0.048
38.4,-0.248,0.18,-0.075
38.41,-0.266,0.011,0.001
38.42,-0.174,-0.129,0.018
38.43,-0.116,-0.135,0.022
38.44,-0.184,-0.133,0.125
38.45,-0.115,-0.037,0.107
38.46,-0.224,0.179,0.073
38.47,-0.249,0.074,0.026
38.48,-0.232,-0.031,-0.866
38.49,-0.352,-0.012,-0.066
38.5,-0.348,-0.019,0.03
38.51,-0.344,0.13,0.063
38.52,-0.35,0.283,0.004
38.53,-0.218,0.151,-0.108
38.54,-0.057,-0.0,-0.857
38.55,-0.042,-0.231,0.008
38.56,-0.077,-0.293,0.158
38.57,-0.174,-0.194,0.315
38.58,-0.26,0.084,0.249
38.59,-0.249,0.154,0.013
38.6,-0.325,0.23,-0.068
38.61,-0.316,0.035,-0.089
38.62,-0.407,-0.086,-0.05
38.63,-0.446,-0.011,-0.051
38.64,-0.252,-0.064,-0.033
38.65,-0.196,0.294,-0.0
38.66,-0.076,0.184,0.03
38.67,-0.077,0.016,0.071
38.68,-0.068,-0.047,0.06
38.69,-0.188,-0.244,0.125
38.7,-0.298,-0.216,0.138
38.71,-0.289,0.015,0.048
38.72,-0.392,0.076,0.117
38.73,-0.312,0.255,-0.012
38.74,-0.291,0.174,-0.137
38.75,-0.374,-0.066,-0.098
38.76,-0.231,-0.018,-0.125
38.77,-0.178,0.05,0.012
38.78,-0.123,0.015,0.054
38.79,-0.089,0.206,0.08
38.8,-0.074,0.05,0.083
38.81,-0.108,-0.097,0.061
38.82,-0.245,-0.149,0.145
38.83,-0.368,-0.152,0.168
38.84,-0.346,-0.045,0.021
38.85,-0.433,0.16,-0.048
38.86,-0.349,-0.039,-0.079
38.87,-0.204,0.285,-0.112
38.88,-0.268,-0.016,0.012
38.89,-0.151,-0.121,0.044
38.9,-0.104,-0.0,-0.012
38.91,-0.075,-0.029,0.04
38.92,-0.128,0.067,0.109
38.93,-0.172,0.138,0.124
38.94,-0.29,0.115,0.088
38.95,-0.368,-0.071,-0.042
38.96,-0.387,-0.048,-0.075
38.97,-0.433,-0.133,0.026
38.98,-0.33,0.065,0.006
38.99,-0.238,0.135,-0.036
39.0,-0.202,0.125,-0.016
39.01,-0.124,0.138,-0.017
39.02,-0.127,0.09,0.024
39.03,-0.089,-0.072,0.031
39.04,-0.095,-0.161,0.012
39.05,-0.175,0.009,0.067
39.06,-0.273,0.055,0.144
39.07,-0.444,0.081,0.142
39.08,-0.369,0.026,-0.049
39.09,-0.251,-0.132,-0.145
39.1,-0.318,-0.118,-0.028
39.11,-0.303,-0.001,0.071
39.12,-0.236,0.204,0.093
39.13,-0.213,0.368,0.003
39.14,-0.109,0.194,-0.112
39.15,-0.046,-0.064,-0.139
39.16,-0.103,-0.275,0.013
39.17,-0.225,-0.372,0.141
39.18,-0.354,-0.115,0.293
39.19,-0.335,0.112,0.178
39.2,-0.347,0.164,0.017
39.21,-0.259,0.257,-0.178
39.22,-0.2,-0.086,-0.164
39.23,-0.289,-0.15,-0.065
39.24,-0.265,0.027,-0.018
39.25,-0.264,0.042,0.083
39.26,-0.086,0.292,-0.001
39.27,-0.122,0.288,0.028
39.28,-0.245,0.004,0.101
39.29,-0.153,-0.179,0.031
39.3,-0.321,-0.281,0.049
39.31,-0.404,-0.266,0.05
39.32,-0.297,0.024,0.031
39.33,-0.27,0.201,0.036
39.34,-0.156,0.313,-0.094
39.35,-0.271,0.2,-0.027
39.36,-0.226,-0.167,-0.067
39.37,-0.147,-0.004,-0.062
39.38,-0.262,-0.129,0.082
39.39,-0.208,0.114,0.061
39.4,-0.281,0.233,0.04
39.41,-0.162,0.037,0.017
39.42,-0.18,-0.105,-0.029
39.43,-0.345,-0.2,0.039
39.44,-0.267,-0.265,0.082
39.45,-0.208,-0.075,0.025
39.46,-0.257,0.243,0.012
39.47,-0.208,0.177,-0.017
39.48,-0.264,0.182,-0.014
39.49,-0.184,0.114,-0.087
39.5,-0.268,-0.136,0.003
39.51,-0.229,-0.1,-0.019
39.52,-0.132,-0.016,0.01
39.53,-0.218,0.076,0.108
39.54,-0.2,0.13,0.071
39.55,-0.32,0.013,0.044
39.56,-0.25,-0.099,-0.014
39.57,-0.219,-0.063,-0.032
39.58,-0.385,0.009,0.06
39.59,-0.278,0.152,-0.026
39.6,-0.245,0.185,-0.073
39.61,-0.237,0.193,-0.041
39.62,-0.182,0.142,0.009
39.63,-0.175,-0.113,0.055
39.64,-0.163,-0.16,-0.004
39.65,-0.225,-0.172,0.06
39.66,-0.224,-0.075,0.094
39.67,-0.235,0.05,0.079
39.68,-0.31,0.168,0.029
39.69,-0.25,0.033,-0.077
39.7,-0.281,-0.09,-0.127
39.71,-0.301,0.034,-0.039
39.72,-0.253,0.053,0.095
39.73,-0.291,0.217,0.087
39.74,-0.234,0.291,-0.027
39.75,-0.119,0.034,-0.154
39.76,-0.122,-0.171,-0.14
39.77,-0.13,-0.307,0.021
39.78,-0.225,-0.319,0.246
39.79,-0.288,-0.035,0.242
39.8,-0.21,0.153,0.101
39.81,-0.0,-0.0,-0.859
39.82,-0.274,-0.072,-0.024
39.83,-0.211,0.142,0.051
39.84,-0.117,0.059,0.061
39.85,-0.08,0.082,0.004
39.86,-0.077,-0.07,-0.006
39.87,-0.209,-0.213,0.085
39.88,-0.274,-0.095,0.159
39.89,-0.29,-0.042,0.087
39.9,-0.401,0.104,0.004
39.91,-0.396,0.227,-0.078
39.92,-0.239,0.095,-0.095
39.93,-0.266,0.081,-0.09
39.94,-0.248,-0.075,-0.035
39.95,-0.15,-0.116,0.001
39.96,-0.039,-0.025,0.009
39.97,-0.108,0.081,0.108
39.98,-0.152,0.001,0.143
39.99,-0.211,0.149,0.1
40.0,-0.395,-0.127,0.071
40.01,-0.419,-0.116,-0.05
40.02,-0.33,0.1,-0.069
40.03,-0.348,0.041,-0.02
40.04,-0.303,0.218,-0.075
40.05,-0.208,0.21,-0.086
40.06,-0.164,0.061,-0.034
40.07,-0.135,0.002,-0.019
40.08,-0.106,-0.092,0.037
40.09,-0.099,-0.26,0.066
40.1,-0.235,0.013,0.118
40.11,-0.224,0.065,0.148
40.12,-0.277,0.142,0.075
40.13,-0.302,0.125,-0.092
40.14,-0.217,-0.122,-0.138
40.15,-0.28,-0.135,-0.101
40.16,-0.379,0.09,0.061
40.17,-0.34,0.135,0.102
40.18,-0.246,0.308,-0.015
40.19,-0.156,0.26,-0.127
40.2,-0.047,-0.11,-0.132
40.21,-0.08,-0.249,-0.022
40.22,-0.15,-0.281,0.138
40.23,-0.277,-0.264,0.325
40.24,-0.209,0.14,0.255
40.25,-0.273,0.247,0.045
40.26,-0.308,0.092,-0.147
40.27,-0.315,0.067,-0.214
40.28,-0.43,-0.152,-0.105
40.29,-0.353,-0.049,-0.034
40.3,-0.311,0.11,-0.018
40.31,-0.192,0.123,0.05
40.32,-0.031,0.236,-0.079
40.33,-0.035,0.149,0.045
40.34,-0.114,-0.201,0.181
40.35,-0.253,-0.205,0.138
40.36,-0.359,-0.164,0.094
40.37,-0.258,-0.118,-0.032
40.38,-0.4,0.213,-0.045
40.39,-0.37,0.236,-0.072
40.4,-0.319,0.09,-0.086
40.41,-0.258,0.045,-0.082
40.42,-0.154,-0.127,-0.072
40.43,-0.117,0.057,0.005
40.44,-0.146,0.092,0.046
40.45,-0.113,0.143,0.081
40.46,-0.122,0.186,0.021
40.47,-0.22,-0.118,0.028
40.48,-0.344,-0.255,0.119
40.49,-0.379,-0.234,0.064
40.5,-0.367,-0.139,0.052
40.51,-0.374,-0.061,0.014
40.52,-0.18,0.387,-0.076
40.53,-0.211,0.158,-0.064
40.54,-0.187,0.141,-0.047
40.55,-0.11,0.037,-0.092
40.56,-0.131,-0.08,-0.006
40.57,-0.17,-0.027,0.004
40.58,-0.195,0.062,0.066
40.59,-0.269,0.038,0.132
40.6,-0.336,-0.008,0.071
40.61,-0.396,-0.069,0.043
40.62,-0.326,-0.223,-0.024
40.63,-0.268,0.007,-0.03
40.64,-0.242,0.115,-0.02
40.65,-0.161,0.209,-0.057
40.66,-0.197,0.312,-0.07
40.67,-0.156,0.159,-0.058
40.68,-0.132,0.107,-0.035
40.69,-0.248,-0.115,0.005
40.7,-0.238,-0.283,0.093
40.71,-0.262,-0.058,0.102
40.72,-0.298,0.028,0.151
40.73,-0.272,-0.052,-0.005
40.74,-0.149,0.017,-0.107
40.75,-0.175,-0.164,-0.061
40.76,-0.313,0.009,0.045
40.77,-0.36,0.285,0.067
40.78,-0.27,0.186,-0.051
40.79,-0.214,0.384,-0.158
40.8,-0.133,0.146,-0.178
40.81,-0.203,-0.289,-0.031
40.82,-0.179,-0.301,0.084
40.83,-0.166,-0.295,0.251
40.84,-0.268,-0.116,0.289
40.85,-0.165,0.216,0.08
40.86,-0.198,0.173,-0.079
40.87,-0.236,0.087,-0.129
40.88,-0.392,0.064,-0.167
40.89,-0.396,-0.125,-0.064
40.9,-0.258,0.087,-0.038
40.91,-0.245,0.223,0.028
40.92,-0.146,0.164,0.001
40.93,-0.068,0.089,-0.055
40.94,-0.183,-0.088,0.052
40.95,-0.21,-0.207,0.109
40.96,-0.311,-0.27,0.169
40.97,-0.23,-0.075,0.022
40.98,-0.253,0.069,-0.043
40.99,-0.282,0.187,-0.021
41.0,-0.289,0.156,-0.017
41.01,-0.326,0.013,-0.001
41.02,-0.255,0.11,-0.019
41.03,-0.269,-0.034,-0.025
41.04,-0.252,0.121,-0.066
41.05,-0.192,0.165,-0.054
41.06,-0.18,-0.004,0.024
41.07,-0.111,-0.075,-0.017
41.08,-0.178,-0.253,0.067
41.09,-0.22,-0.286,0.137
41.1,-0.167,0.019,0.108
41.11,-0.3,0.064,0.12
41.12,-0.273,0.19,-0.021
41.13,-0.298,0.277,-0.153
41.14,-0.318,0.007,-0.103
41.15,-0.257,0.017,-0.085
41.16,-0.326,-0.01,-0.063
41.17,-0.237,-0.117,0.036
41.18,-0.083,0.016,0.017
41.19,-0.116,0.049,0.091
41.2,-0.128,0.004,0.113
41.21,-0.203,-0.03,0.062
41.22,-0.275,-0.066,0.041
41.23,-0.297,0.007,-0.067
41.24,-0.378,0.116,-0.018
41.25,-0.315,0.214,-0.066
41.26,-0.305,0.145,-0.06
41.27,-0.375,0.065,-0.043
41.28,-0.21,-0.05,-0.038
41.29,-0.129,-0.078,-0.043
41.3,-0.102,-0.124,0.043
41.31,-0.081,-0.062,0.088
41.32,-0.093,0.102,0.113
41.33,-0.225,0.092,0.089
41.34,-0.27,-0.002,-0.019
41.35,-0.269,-0.024,-0.108
41.36,-0.354,-0.136,-0.013
41.37,-0.391,0.083,0.056
41.38,-0.386,0.311,0.001
41.39,-0.311,0.195,-0.082
41.4,-0.104,0.236,-0.214
41.41,0.03,-0.042,-0.141
41.42,-0.05,-0.419,0.054
41.43,-0.052,-0.221,0.172
41.44,-0.241,-0.225,0.325
41.45,-0.212,0.23,-0.057
41.46,-0.107,0.177,0.044
41.47,-0.114,0.026,0.082
41.48,-0.167,-0.158,0.117
41.49,-0.262,-0.381,0.088
41.5,-0.237,-0.174,0.023
41.51,-0.236,-0.003,-0.027
41.52,-0.26,0.149,0.008
41.53,-0.296,0.239,-0.056
41.54,-0.364,0.132,-0.033
41.55,-0.314,-0.015,-0.075
41.56,-0.229,0.09,-0.092
41.57,-0.301,0.048,0.017
41.58,-0.129,0.117,0.041
41.59,-0.136,0.206,0.034
41.6,-0.079,-0.101,0.013
41.61,-0.163,-0.221,0.052
41.62,-0.335,-0.307,0.117
41.63,-0.255,-0.253,0.146
41.64,-0.287,-0.042,0.006
41.65,-0.336,0.241,-0.036
41.66,-0.305,0.264,-0.137
41.67,-0.285,0.303,-0.109
41.68,-0.214,0.115,-0.073
41.69,-0.157,-0.087,-0.062
41.7,-0.141,0.013,-0.018
41.71,-0.164,-0.1,0.061
41.72,-0.205,-0.002,0.131
41.73,-0.229,0.045,0.087
41.74,-0.232,-0.148,0.103
41.75,-0.259,-0.094,-0.024
41.76,-0.321,-0.034,-0.063
41.77,-0.323,0.005,-0.031
41.78,-0.284,0.236,-0.026
41.79,-0.235,0.263,-0.085
41.8,-0.228,0.175,-0.088
41.81,-0.238,0.125,-0.055
41.82,-0.246,-0.014,0.015
41.83,-0.19,-0.102,0.027
41.84,-0.166,-0.159,0.054
41.85,-0.167,-0.094,0.093
41.86,-0.16,-0.066,0.072
41.87,-0.208,0.073,0.069
41.88,-0.221,-0.118,-0.017
41.89,-0.25,-0.042,-0.086
41.9,-0.367,0.072,0.01
41.91,-0.362,0.084,0.029
41.92,-0.36,0.421,-0.034
41.93,-0.357,0.288,-0.095
41.94,-0.189,0.067,-0.213
41.95,-0.086,-0.136,-0.122
41.96,-0.046,-0.404,0.076
41.97,-0.04,-0.306,0.215
41.98,-0.235,-0.084,0.305
41.99,-0.184,0.102,0.171
42.0,-0.227,0.241,-0.048
42.01,-0.325,0.21,-0.159
42.02,-0.344,-0.064,-0.182
42.03,-0.506,-0.094,-0.116
42.04,-0.375,0.128,-0.035
42.05,-0.257,0.08,-0.036
42.06,-0.185,0.227,-0.006
42.07,-0.056,0.136,-0.031
42.08,-0.025,-0.051,0.082
42.09,-0.188,-0.208,0.168
42.1,-0.262,-0.225,0.16
42.11,-0.221,-0.251,0.056
42.12,-0.241,0.058,-0.041
42.13,-0.353,0.089,0.003
42.14,-0.271,0.284,-0.061
42.15,-0.367,0.174,-0.027
42.16,-0.325,0.015,-0.091
42.17,-0.234,0.079,-0.14
42.18,-0.283,-0.032,-0.066
42.19,-0.108,0.087,-0.018
42.2,-0.081,0.032,0.034
42.21,-0.13,-0.056,0.123
42.22,-0.126,-0.222,0.107
42.23,-0.232,-0.111,0.171
42.24,-0.199,-0.141,0.126
42.25,-0.293,0.015,-0.036
42.26,-0.407,0.246,-0.071
42.27,-0.274,0.146,-0.163
42.28,-0.382,0.172,-0.149
42.29,-0.305,0.092,-0.115
42.3,-0.174,-0.107,-0.015
42.31,-0.153,-0.01,0.028
42.32,-0.062,-0.028,0.081
42.33,-0.082,0.032,0.136
42.34,-0.146,0.053,0.112
42.35,-0.23,-0.009,0.075
42.36,-0.296,-0.081,-0.002
42.37,-0.407,-0.053,-0.033
42.38,-0.418,-0.037,-0.036
42.39,-0.339,0.146,-0.091
42.4,-0.342,0.157,-0.064
42.41,-0.291,0.104,-0.041
42.42,-0.174,0.169,-0.061
42.43,-0.083,-0.052,-0.022
42.44,-0.052,-0.052,-0.009
42.45,-0.057,-0.05,0.035
42.46,-0.174,-0.051,0.162
42.47,-0.27,0.038,0.155
42.48,-0.296,0.082,0.048
42.49,-0.332,-0.213,-0.057
42.5,-0.386,-0.101,-0.117
42.51,-0.37,0.045,-0.006
42.52,-0.338,0.126,0.054
42.53,-0.291,0.369,-0.071
42.54,-0.134,0.316,-0.186
42.55,0.026,0.027,-0.222
42.56,0.009,-0.149,-0.086
42.57,-0.152,-0.37,0.186
42.58,-0.244,-0.277,0.369
42.59,-0.343,0.049,0.278
42.6,-0.303,0.073,0.104
42.61,-0.27,0.131,-0.176
42.62,-0.357,0.051,-0.171
42.63,-0.346,-0.109,-0.122
42.64,-0.309,-0.046,-0.095
42.65,-0.255,0.15,-0.034
42.66,-0.12,0.155,-0.044
42.67,-0.169,0.285,0.034
42.68,-0.103,0.138,0.046
42.69,-0.16,-0.149,0.097
42.7,-0.27,-0.169,0.093
42.71,-0.359,-0.282,0.075
42.72,-0.27,-0.154,-0.001
42.73,-0.245,0.142,-0.026
42.74,-0.311,0.165,0.002
42.75,-0.232,0.166,-0.043
42.76,-0.304,0.05,-0.093
42.77,-0.251,-0.085,-0.058
42.78,-0.19,0.087,-0.099
42.79,-0.239,0.115,0.022
42.8,-0.165,0.102,0.018
42.81,-0.128,0.149,-0.02
42.82,-0.192,-0.085,0.072
42.83,-0.161,-0.219,0.094
42.84,-0.29,-0.231,0.11
42.85,-0.321,-0.128,0.073
42.86,-0.292,-0.049,-0.018
42.87,-0.376,0.241,-0.039
42.88,-0.214,0.172,-0.071
42.89,-0.213,0.135,-0.08
42.9,-0.268,0.056,-0.075
42.91,-0.15,-0.099,-0.054
42.92,-0.137,0.076,0.013
42.93,-0.176,0.101,0.08
42.94,-0.213,0.002,0.116
42.95,-0.266,0.018,0.034
42.96,-0.292,-0.149,-0.003
42.97,-0.304,-0.174,-0.025
42.98,-0.321,0.0,-0.011
42.99,-0.339,0.043,0.009
43.0,-0.208,0.248,-0.073
43.01,-0.197,0.254,-0.108
43.02,-0.237,0.094,-0.88
43.03,-0.228,0.132,0.003
43.04,-0.131,-0.038,0.015
43.05,-0.172,-0.158,0.043
43.06,-0.219,-0.069,0.024
43.07,-0.255,-0.108,0.136
43.08,-0.291,0.032,0.105
43.09,-0.271,0.016,0.004
43.1,-0.165,-0.163,-0.08
43.11,-0.252,0.024,-0.045
43.12,-0.384,0.092,0.026
43.13,-0.309,0.219,-0.874
43.14,-0.212,0.322,-0.048
43.15,-0.183,0.282,-0.131
43.16,-0.136,-0.101,-0.084
43.17,-0.201,-0.272,-0.007
43.18,-0.2,-0.318,0.161
43.19,-0.214,-0.316,0.235
43.2,-0.231,0.022,0.233
43.21,-0.208,0.152,0.012
43.22,-0.23,0.211,-0.123
43.23,-0.277,0.052,-0.148
43.24,-0.345,-0.125,-0.1
43.25,-0.336,0.034,-0.043
43.26,-0.258,0.193,0.027
43.27,-0.225,0.185,0.063
43.28,-0.187,0.183,-0.0
43.29,-0.158,-0.021,0.069
43.3,-0.201,-0.209,0.101
43.31,-0.19,-0.306,0.112
43.32,-0.241,-0.231,0.071
43.33,-0.19,-0.028,-0.002
43.34,-0.297,0.275,0.001
43.35,-0.268,0.238,-0.008
43.36,-0.292,0.243,-0.078
43.37,-0.368,0.085,-0.058
43.38,-0.244,-0.083,-0.088
43.39,-0.25,0.033,-0.048
43.4,-0.221,0.014,0.042
43.41,-0.147,0.027,0.06
43.42,-0.11,-0.028,0.093
43.43,-0.099,-0.215,0.093
43.44,-0.248,-0.203,0.141
43.45,-0.247,-0.089,0.097
43.46,-0.276,-0.049,0.041
43.47,-0.4,0.212,-0.043
43.48,-0.33,0.287,-0.123
43.49,-0.287,0.072,-0.094
43.5,-0.197,0.098,-0.094
43.51,-0.229,-0.074,-0.013
43.52,-0.206,-0.127,0.055
43.53,-0.104,-0.018,0.013
43.54,-0.083,0.048,0.096
43.55,-0.118,0.025,0.118
43.56,-0.232,0.077,0.068
43.57,-0.363,-0.062,0.053
43.58,-0.0,-0.0,-0.857
43.59,-0.156,0.228,-0.109
43.6,-0.036,0.028,-0.09
43.61,0.006,-0.245,-0.012
43.62,-0.035,-0.267,0.096
43.63,-0.225,-0.263,0.284
43.64,-0.245,0.016,0.226
43.65,-0.267,0.288,0.119
43.66,-0.357,0.128,-0.026
43.67,-0.319,0.057,-0.21
43.68,-0.389,-0.052,-0.212
43.69,-0.414,-0.141,-0.076
43.7,-0.31,0.159,-0.006
43.71,-0.174,0.193,0.049
43.72,-0.066,0.154,0.026
43.73,-0.05,0.182,0.061
43.74,-0.123,-0.188,0.157
43.75,-0.161,-0.3,0.134
43.76,-0.33,-0.131,0.119
43.77,-0.283,-0.208,0.068
43.78,-0.36,0.146,-0.025
43.79,-0.356,0.3,-0.104
43.8,-0.305,0.07,-0.1
43.81,-0.371,0.121,-0.089
43.82,-0.274,-0.083,-0.046
43.83,-0.133,-0.024,-0.03
43.84,-0.123,0.095,0.024
43.85,-0.135,0.12,0.112
43.86,-0.081,0.055,0.102
43.87,-0.103,-0.003,0.075
43.88,-0.21,-0.211,0.111
43.89,-0.329,-0.201,0.061
43.9,-0.314,-0.082,-0.048
43.91,-0.369,0.003,-0.028
43.92,-0.381,0.216,-0.079
43.93,-0.291,0.245,-0.077
43.94,-0.216,0.066,-0.053
43.95,-0.142,0.009,-0.012
43.96,-0.128,-0.059,0.048
43.97,-0.06,-0.017,0.057
43.98,-0.151,0.106,0.115
43.99,-0.197,-0.004,0.116
44.0,-0.333,-0.038,0.073
44.01,-0.356,-0.137,-0.013
44.02,-0.373,-0.172,-0.041
44.03,-0.417,0.035,-0.032
44.04,-0.312,0.15,-0.008
44.05,-0.205,0.217,-0.052
44.06,-0.208,0.285,-0.067
44.07,-0.175,0.139,-0.025
44.08,-0.124,0.025,-0.01
44.09,-0.078,-0.071,-0.005
44.1,-0.182,-0.204,0.074
44.11,-0.231,-0.074,0.147
44.12,-0.247,0.024,0.13
44.13,-0.369,-0.056,0.104
44.14,-0.281,0.072,-0.133
44.15,-0.25,-0.124,-0.098
44.16,-0.268,-0.05,-0.031
44.17,-0.25,0.212,0.001
44.18,-0.267,0.213,0.048
44.19,-0.245,0.287,-0.032
44.2,-0.11,0.278,-0.167
44.21,-0.12,-0.176,-0.065
44.22,-0.188,-0.306,0.076
44.23,-0.213,-0.233,0.185
44.24,-0.307,-0.306,0.283
44.25,-0.286,0.084,0.114
44.26,-0.26,0.148,-0.012
44.27,-0.186,0.116,-0.102
44.28,-0.303,0.043,-0.146
44.29,-0.307,-0.021,-0.104
44.3,-0.245,0.011,-0.052
44.31,-0.274,0.193,0.025
44.32,-0.252,0.227,0.044
44.33,-0.151,0.093,0.025
44.34,-0.18,0.061,0.022
44.35,-0.214,-0.273,0.074
44.36,-0.302,-0.335,0.123
44.37,-0.303,-0.131,0.052
44.38,-0.202,-0.076,0.035
44.39,-0.207,0.267,-0.051
44.4,-0.242,0.315,-0.075
44.41,-0.357,0.089,-0.043
44.42,-0.27,0.143,-0.093
44.43,-0.22,-0.081,-0.05
44.44,-0.278,-0.068,0.028
44.45,-0.22,0.127,0.072
44.46,-0.15,0.024,0.074
44.47,-0.161,0.031,0.018
44.48,-0.151,-0.187,-0.021
44.49,-0.172,-0.243,0.078
44.5,-0.24,-0.186,0.049
44.51,-0.298,0.061,0.054
44.52,-0.381,0.074,0.046
44.53,-0.259,0.3,-0.065
44.54,-0.285,0.258,-0.081
44.55,-0.278,-0.106,-0.064
44.56,-0.208,0.077,-0.06
44.57,-0.161,-0.088,0.002
44.58,-0.19,-0.056,0.044
44.59,-0.168,0.041,0.054
44.6,-0.106,-0.03,0.072
44.61,-0.185,-0.027,0.028
44.62,-0.319,-0.059,0.064
44.63,-0.398,-0.075,0.031
44.64,-0.337,0.063,-0.058
44.65,-0.278,0.208,-0.047
44.66,-0.279,0.156,-0.083
44.67,-0.271,0.222,-0.089
44.68,-0.188,0.125,-0.874
44.69,-0.145,-0.055,-0.003
44.7,-0.125,-0.049,-0.003
44.71,-0.129,-0.25,0.087
44.72,-0.216,-0.087,0.161
44.73,-0.219,0.069,0.142
44.74,-0.273,0.013,0.095
44.75,-0.215,0.046,-0.11
44.76,-0.311,-0.049,-0.114
44.77,-0.361,-0.031,0.032
44.78,-0.304,0.217,0.059
44.79,-0.327,0.262,0.055
44.8,-0.279,0.178,-0.077
44.81,-0.161,0.105,-0.147
44.82,-0.111,-0.184,-0.067
44.83,-0.042,-0.383,0.058
44.84,-0.19,-0.237,0.16
44.85,-0.291,-0.11,0.254
44.86,-0.143,0.189,0.129
44.87,-0.218,0.359,-0.014
44.88,-0.302,0.15,-0.11
44.89,-0.328,-0.031,-0.155
44.9,-0.417,-0.068,-0.097
44.91,-0.347,-0.048,-0.039
44.92,-0.281,0.125,0.038
44.93,-0.229,0.201,0.029
44.94,-0.038,0.064,0.007
44.95,-0.053,0.005,0.021
44.96,-0.115,-0.25,-0.869
44.97,-0.276,-0.249,0.141
44.98,-0.295,0.003,0.12
44.99,-0.243,0.003,0.058
45.0,-0.344,0.325,-0.053
45.01,-0.357,0.178,-0.058
45.02,-0.343,-0.033,-0.04
45.03,-0.317,0.017,-0.064
45.04,-0.256,-0.097,-0.017
45.05,-0.211,-0.077,0.026
45.06,-0.069,0.152,0.026
45.07,-0.071,0.17,0.08
45.08,-0.1,-0.015,0.077
45.09,-0.187,-0.045,0.075
45.1,-0.324,-0.279,0.104
45.11,-0.27,-0.104,0.036
45.12,-0.4,0.079,0.025
45.13,-0.381,0.046,0.007
45.14,-0.28,0.268,-0.13
45.15,-0.271,0.125,-0.1
45.16,-0.169,-0.068,-0.021
45.17,-0.141,0.002,-0.033
45.18,-0.093,-0.08,0.059
45.19,-0.102,0.009,0.079
45.2,-0.147,0.134,0.103
45.21,-0.242,0.049,0.138
45.22,-0.348,-0.027,0.049
45.23,-0.376,-0.069,-0.001
45.24,-0.353,-0.123,-0.047
45.25,-0.402,0.068,-0.068
45.26,-0.332,0.146,-0.052
45.27,-0.159,0.166,-0.045
45.28,-0.164,0.196,-0.014
45.29,-0.113,0.074,0.003
45.3,-0.076,-0.108,0.041
45.31,-0.166,-0.103,0.065
45.32,-0.195,-0.168,0.123
45.33,-0.254,-0.024,0.142
45.34,-0.344,0.182,0.071
45.35,-0.366,0.028,0.009
45.36,-0.301,0.038,-0.163
45.37,-0.28,-0.076,-0.134
45.38,-0.271,-0.104,0.007
45.39,-0.186,0.156,0.035
45.4,-0.262,0.256,0.054
45.41,-0.17,0.26,-0.072
45.42,-0.018,0.13,-0.121
45.43,-0.109,-0.177,-0.018
45.44,-0.203,-0.384,0.093
45.45,-0.216,-0.213,0.243
45.46,-0.323,-0.044,0.261
45.47,-0.314,0.17,0.073
45.48,-0.338,0.202,-0.093
45.49,-0.291,0.042,-0.168
45.5,-0.238,-0.006,-0.186
45.51,-0.345,-0.089,-0.062
45.52,-0.256,0.042,0.03
45.53,-0.171,0.138,0.03
45.54,-0.109,0.315,0.077
45.55,-0.106,0.009,0.065
45.56,-0.179,-0.01,0.071
45.57,-0.261,-0.237,0.074
45.58,-0.357,-0.28,0.09
45.59,-0.361,-0.059,0.017
45.6,-0.366,0.021,-0.032
45.61,-0.283,0.226,-0.044
45.62,-0.207,0.229,-0.084
45.63,-0.294,0.0,-0.023
45.64,-0.168,-0.043,-0.098
45.65,-0.147,0.055,0.004
45.66,-0.18,-0.023,0.08
45.67,-0.157,0.217,0.046
45.68,-0.193,0.16,0.037
45.69,-0.12,-0.101,-0.032
45.7,-0.298,-0.156,0.002
45.71,-0.404,-0.315,0.141
45.72,-0.266,-0.183,0.079
45.73,-0.34,0.126,0.051
45.74,-0.296,0.077,0.007
45.75,-0.178,0.347,-0.1
45.76,-0.169,0.234,-0.094
45.77,-0.176,-0.057,-0.039
45.78,-0.159,-0.052,-0.048
45.79,-0.146,-0.01,0.011
45.8,-0.189,-0.156,-0.87
45.81,-0.268,0.182,0.116
45.82,-0.325,-0.052,0.117
45.83,-0.314,-0.082,0.035
45.84,-0.304,-0.023,-0.053
45.85,-0.331,-0.086,-0.012
45.86,-0.3,0.138,-0.004
45.87,-0.212,0.249,-0.06
45.88,-0.147,0.215,-0.078
45.89,-0.197,0.104,-0.023
45.9,-0.226,0.101,0.015
45.91,-0.14,-0.266,0.056
45.92,-0.192,-0.095,0.043
45.93,-0.241,-0.103,0.116
45.94,-0.256,-0.016,0.111
45.95,-0.232,0.172,0.058
45.96,-0.239,0.042,-0.032
45.97,-0.164,-0.044,-0.116
45.98,-0.275,-0.065,-0.07
45.99,-0.298,-0.045,0.048
46.0,-0.302,0.214,0.068
46.01,-0.326,0.316,0.054
46.02,-0.233,0.23,-0.054
46.03,-0.065,0.035,-0.2
46.04,-0.146,-0.219,-0.056
46.05,-0.17,-0.491,0.104
46.06,-0.196,-0.28,0.295
46.07,-0.22,0.063,0.281
46.08,-0.216,0.13,0.098
46.09,-0.299,0.356,-0.093
46.1,-0.283,0.032,-0.2
46.11,-0.337,-0.035,-0.106
46.12,-0.388,0.005,-0.058
46.13,-0.403,0.008,0.053
46.14,-0.204,0.138,0.006
46.15,-0.124,0.262,-0.06
46.16,-0.121,0.035,0.083
46.17,-0.069,-0.115,0.106
46.18,-0.187,-0.228,0.114
46.19,-0.26,-0.292,0.064
46.2,-0.228,-0.019,-0.019
46.21,-0.319,0.149,0.037
46.22,-0.292,0.334,-0.091
46.23,-0.384,0.142,-0.003
46.24,-0.299,0.047,-0.043
46.25,-0.207,-0.065,-0.1
46.26,-0.31,-0.061,0.035
46.27,-0.119,-0.002,0.024
46.28,-0.085,0.24,0.051
46.29,-0.07,-0.031,-0.868
46.3,-0.126,-0.15,0.036
46.31,-0.32,-0.207,0.123
46.32,-0.253,-0.289,0.163
46.33,-0.292,0.017,0.097
46.34,-0.447,0.24,0.024
46.35,-0.304,0.198,-0.079
46.36,-0.266,0.243,-0.156
46.37,-0.264,0.042,-0.139
46.38,-0.215,-0.182,-0.004
46.39,-0.147,-0.058,0.002
46.4,-0.112,-0.091,0.065
46.41,-0.116,0.048,0.142
46.42,-0.084,0.179,0.126
46.43,-0.279,0.029,0.16
46.44,-0.323,-0.032,0.014
46.45,-0.307,-0.081,-0.076
46.46,-0.385,-0.001,-0.061
46.47,-0.336,0.125,-0.029
46.48,-0.33,0.183,-0.057
46.49,-0.268,0.136,-0.053
46.5,-0.223,0.145,-0.047
46.51,-0.105,-0.076,0.028
46.52,-0.099,-0.142,0.072
46.53,-0.129,-0.109,0.13
46.54,-0.082,-0.021,0.149
46.55,-0.156,0.05,0.068
46.56,-0.338,0.147,0.02
46.57,-0.254,0.021,-0.035
46.58,-0.357,-0.085,-0.051
46.59,-0.45,-0.05,-0.031
46.6,-0.311,-0.057,0.039
46.61,-0.35,0.255,-0.001
46.62,-0.27,0.333,-0.031
46.63,-0.108,0.086,-0.113
46.64,0.049,0.015,-0.143
46.65,-0.009,-0.348,-0.017
46.66,-0.163,-0.408,0.228
46.67,-0.215,-0.003,0.334
46.68,-0.298,0.126,0.279
46.69,-0.337,0.243,0.006
46.7,-0.334,0.131,-0.221
46.71,-0.426,-0.105,-0.2
46.72,-0.386,-0.113,-0.118
46.73,-0.347,0.063,-0.003
46.74,-0.212,0.041,0.045
46.75,-0.081,0.23,-0.045
46.76,0.013,0.226,-0.003
46.77,-0.017,0.004,0.101
46.78,-0.215,-0.121,0.178
46.79,-0.362,-0.279,0.179
46.8,-0.352,-0.113,0.03
46.81,-0.32,-0.004,-0.032
46.82,-0.38,0.129,-0.036
46.83,-0.298,0.133,-0.064
46.84,-0.306,0.109,-0.031
46.85,-0.226,-0.072,-0.0
46.86,-0.184,-0.028,-0.038
46.87,-0.176,0.143,-0.037
46.88,-0.082,0.06,0.019
46.89,-0.131,0.201,-0.003
46.9,-0.219,-0.031,0.04
46.91,-0.217,-0.161,0.065
46.92,-0.331,-0.175,0.135
46.93,-0.343,-0.173,0.116
46.94,-0.334,-0.058,0.055
46.95,-0.307,0.154,-0.024
46.96,-0.24,0.169,-0.084
46.97,-0.217,0.107,-0.08
46.98,-0.186,0.124,-0.104
46.99,-0.181,-0.034,-0.053
47.0,-0.1,-0.05,0.007
47.01,-0.161,0.156,0.084
47.02,-0.17,0.001,0.086
47.03,-0.248,0.092,0.143
47.04,-0.337,-0.084,0.029
47.05,-0.358,-0.168,-0.005
47.06,-0.409,-0.136,0.006
47.07,-0.312,0.034,-0.016
47.08,-0.207,0.165,-0.067
47.09,-0.194,0.26,-0.083
47.1,-0.158,0.185,-0.023
47.11,-0.136,0.177,-0.016
47.12,-0.203,-0.089,0.021
47.13,-0.129,-0.229,0.017
47.14,-0.246,-0.065,0.047
47.15,-0.301,-0.07,0.112
47.16,-0.288,0.082,0.114
47.17,-0.351,0.097,-0.018
47.18,-0.201,-0.085,-0.093
47.19,-0.179,-0.209,-0.074
47.2,-0.215,0.08,0.033
47.21,-0.284,0.199,0.103
47.22,-0.331,0.265,0.033
47.23,-0.207,0.436,-0.157
47.24,-0.112,-0.048,-0.187
47.25,-0.135,-0.246,-0.081
47.26,-0.135,-0.312,0.098
47.27,-0.32,-0.321,0.311
47.28,-0.35,0.083,0.281
47.29,-0.203,0.115,0.066
47.3,-0.164,0.224,-0.147
47.31,-0.161,0.088,-0.197
47.32,-0.36,-0.099,-0.066
47.33,-0.374,-0.113,0.007
47.34,-0.267,0.136,-0.025
47.35,-0.238,0.175,0.071
47.36,-0.167,0.251,-0.017
47.37,-0.182,0.15,0.008
47.38,-0.152,-0.238,0.049
47.39,-0.268,-0.202,0.045
47.4,-0.41,-0.264,0.095
47.41,-0.125,-0.121,-0.029
47.42,-0.178,0.16,-0.018
47.43,-0.242,0.3,0.007
47.44,-0.253,0.164,0.005
47.45,-0.349,0.06,0.013
47.46,-0.261,-0.043,-0.044
47.47,-0.227,-0.041,-0.039
47.48,-0.273,0.1,-0.021
47.49,-0.211,0.1,-0.01
47.5,-0.17,0.124,0.011
47.51,-0.135,-0.024,-0.025
47.52,-0.222,-0.4,0.113
47.53,-0.195,-0.208,0.102
47.54,-0.174,-0.077,0.119
47.55,-0.34,0.107,0.081
47.56,-0.295,0.314,-0.039
47.57,-0.279,0.302,-0.082
47.58,-0.273,0.101,-0.102
47.59,-0.248,-0.069,-0.069
47.6,-0.207,-0.231,-0.023
47.61,-0.183,-0.138,0.033
47.62,-0.253,0.017,0.084
47.63,-0.156,0.001,0.136
47.64,-0.181,0.098,0.061
47.65,-0.266,0.021,-0.003
47.66,-0.258,-0.124,-0.053
47.67,-0.274,0.059,-0.062
47.68,-0.353,0.135,-0.002
47.69,-0.209,0.167,-0.077
47.7,-0.242,0.208,-0.072
47.71,-0.291,0.059,-0.023
47.72,-0.233,0.002,-0.014
47.73,-0.229,-0.089,0.036
47.74,-0.125,-0.219,0.051
47.75,-0.191,-0.027,0.063
47.76,-0.165,0.041,0.072
47.77,-0.18,0.017,0.043
47.78,-0.2,0.138,-0.028
47.79,-0.179,0.022,-0.056
47.8,-0.327,-0.125,-0.876
47.81,-0.399,0.099,0.004
47.82,-0.341,0.11,0.047
47.83,-0.383,0.246,0.003
47.84,-0.239,0.285,-0.096
47.85,-0.09,-0.076,-0.101
47.86,-0.073,-0.223,-0.05
47.87,-0.098,-0.36,0.112
47.88,-0.152,-0.276,0.289
47.89,-0.195,0.09,0.248
47.9,-0.25,0.253,0.062
47.91,-0.0,-0.0,-0.857
47.92,-0.124,0.0,-0.003
47.93,-0.126,0.085,0.077
47.94,-0.079,0.091,0.082
47.95,-0.086,0.017,0.016
47.96,-0.149,-0.046,0.082
47.97,-0.35,-0.241,0.169
47.98,-0.396,-0.061,0.131
47.99,-0.38,0.006,0.02
48.0,-0.388,0.066,-0.114
48.01,-0.332,0.272,-0.12
48.02,-0.21,0.056,-0.099
48.03,-0.042,0.021,-0.063
48.04,-0.118,-0.024,-0.006
48.05,-0.147,-0.118,0.079
48.06,-0.072,-0.007,0.051
48.07,-0.198,0.164,0.122
48.08,-0.246,0.063,0.161
48.09,-0.285,0.066,0.046
48.1,-0.386,-0.127,-0.048
48.11,-0.356,-0.132,-0.123
48.12,-0.36,-0.021,-0.034
48.13,-0.376,0.147,-0.008
48.14,-0.137,0.151,-0.064
48.15,-0.216,0.274,-0.042
48.16,-0.188,0.098,0.006
48.17,-0.078,0.01,0.032
48.18,-0.123,-0.085,0.053
48.19,-0.125,-0.212,0.068
48.2,-0.206,-0.088,0.11
48.21,-0.269,0.032,0.105
48.22,-0.326,0.072,0.038
48.23,-0.326,0.026,-0.057
48.24,-0.348,-0.111,-0.102
