t,ax,ay,az
0.0,-0.354,1.176,-0.128
0.01,-0.143,0.827,-0.014
0.02,-0.131,1.032,0.161
0.03,-0.168,0.899,0.105
0.04,-0.369,0.929,-0.171
0.05,-0.229,1.106,-0.119
0.06,-0.256,0.942,0.224
0.07,-0.088,1.033,0.135
0.08,-0.201,0.725,-0.016
0.09,-0.392,1.179,-0.126
0.1,-0.152,0.979,-0.031
0.11,-0.122,0.994,0.094
0.12,-0.139,0.864,0.16
0.13,-0.33,0.893,-0.06
0.14,-0.29,1.193,-0.154
0.15,-0.186,0.822,-0.071
0.16,-0.148,1.078,0.186
0.17,-0.063,0.788,0.092
0.18,-0.425,1.038,-0.13
0.19,-0.229,1.001,-0.114
0.2,-0.084,1.064,0.102
0.21,-0.325,1.148,-0.127
0.22,-0.187,0.9,-0.062
0.23,-0.126,0.983,0.112
0.24,-0.118,0.879,0.14
0.25,-0.317,0.968,-0.079
0.26,-0.307,1.14,-0.142
0.27,-0.199,0.851,0.015
0.28,-0.068,1.148,0.156
0.29,-0.17,0.75,0.018
0.3,-0.325,1.099,-0.129
0.31,-0.241,1.047,-0.072
0.32,-0.193,1.06,0.059
0.33,-0.106,0.855,0.137
0.34,-0.218,0.78,0.021
0.35,-0.346,1.225,-0.167
0.36,-0.255,0.907,-0.042
0.37,-0.169,1.094,0.092
0.38,-0.088,0.738,0.151
0.39,-0.336,0.975,-0.077
0.4,-0.333,1.026,-0.133
0.41,-0.17,0.873,0.019
0.42,-0.134,1.146,0.165
0.43,-0.16,0.721,0.068
0.44,-0.402,1.12,-0.136
0.45,-0.189,0.834,-0.137
0.46,-0.089,1.161,0.04
0.47,-0.055,0.85,0.152
0.48,-0.227,0.836,0.022
0.49,-0.395,1.156,-0.137
0.5,-0.152,0.887,-0.061
0.51,-0.197,1.201,0.073
0.52,-0.097,0.687,0.146
0.53,-0.347,1.084,-0.046
0.54,-0.311,0.872,-0.15
0.55,-0.184,0.984,-0.02
0.56,-0.102,1.094,0.205
0.57,-0.063,0.747,0.07
0.58,-0.43,1.143,-0.116
0.59,-0.179,0.776,-0.109
0.6,-0.261,1.272,0.074
0.61,-0.051,0.758,0.13
0.62,-0.236,0.938,0.045
0.63,-0.348,1.026,-0.141
0.64,-0.171,0.948,-0.05
0.65,-0.158,1.157,0.097
0.66,-0.074,0.635,0.147
0.67,-0.336,1.146,-0.02
0.68,-0.232,0.884,-0.159
0.69,-0.296,1.093,-0.04
0.7,-0.085,0.86,0.08
0.71,-0.148,0.865,0.097
0.72,-0.375,1.1,-0.112
0.73,-0.251,0.778,-0.099
0.74,-0.132,1.212,0.044
0.75,-0.005,0.818,0.127
0.76,-0.231,1.057,0.059
0.77,-0.334,0.867,-0.182
0.78,-0.158,1.052,-0.086
0.79,-0.094,1.092,0.018
0.8,-0.059,0.715,0.166
0.81,-0.33,1.113,-0.007
0.82,-0.326,0.791,-0.096
0.83,-0.196,1.194,-0.007
0.84,-0.275,0.843,0.265
0.85,-0.135,0.906,0.107
0.86,-0.27,1.053,-0.081
0.87,-0.289,0.917,-0.144
0.88,-0.336,1.099,0.082
0.89,0.026,0.792,0.18
0.9,-0.271,1.094,0.038
0.91,-0.33,0.794,-0.181
0.92,-0.191,1.155,-0.043
0.93,-0.091,0.955,0.018
0.94,-0.069,0.793,0.144
0.95,-0.304,1.086,-0.013
0.96,-0.307,0.865,-0.141
0.97,-0.241,1.161,-0.065
0.98,-0.085,0.823,0.099
0.99,-0.176,1.091,0.165
1.0,-0.311,0.87,-0.098
1.01,-0.262,1.113,-0.112
1.02,-0.179,0.975,0.055
1.03,-0.012,0.929,0.118
1.04,-0.158,0.972,0.032
1.05,-0.378,0.942,-0.159
1.06,-0.225,1.236,-0.043
1.07,-0.163,0.803,0.082
1.08,-0.023,0.953,0.159
1.09,-0.363,0.884,-0.034
1.1,-0.316,1.107,-0.191
1.11,-0.19,0.955,-0.043
1.12,-0.099,0.918,0.126
1.13,-0.169,1.023,0.142
1.14,-0.323,0.806,-0.101
1.15,-0.287,1.13,-0.135
1.16,-0.19,0.87,0.035
1.17,-0.116,1.095,0.181
1.18,-0.148,0.81,0.045
1.19,-0.404,0.999,-0.144
1.2,-0.279,1.115,-0.035
1.21,-0.066,0.948,0.019
1.22,-0.09,1.0,0.12
1.23,-0.235,0.753,-0.041
1.24,-0.402,1.211,-0.145
1.25,-0.122,0.865,-0.089
1.26,-0.143,1.0,0.107
1.27,-0.127,0.884,0.143
1.28,-0.357,0.931,-0.089
1.29,-0.308,1.131,-0.096
1.3,-0.15,0.874,-0.021
1.31,-0.126,1.153,0.17
1.32,-0.104,0.711,0.028
1.33,-0.392,1.102,-0.119
1.34,-0.216,0.997,-0.109
1.35,-0.103,1.048,0.027
1.36,-0.089,0.958,0.151
1.37,-0.232,0.749,-0.013
1.38,-0.388,1.152,-0.153
1.39,-0.114,0.914,-0.066
1.4,-0.147,1.123,0.073
1.41,-0.138,0.701,0.133
1.42,-0.314,1.035,-0.045
1.43,-0.246,1.081,-0.16
1.44,-0.158,0.844,-0.051
1.45,-0.136,1.08,0.2
1.46,-0.128,0.747,0.098
1.47,-0.354,1.144,-0.142
1.48,-0.247,0.838,-0.126
1.49,-0.127,1.148,0.051
1.5,-0.124,0.942,0.161
1.51,-0.251,0.812,-0.003
1.52,-0.366,1.099,-0.135
1.53,-0.104,0.92,-0.066
1.54,-0.126,1.208,0.06
1.55,-0.122,0.619,0.172
1.56,-0.36,1.053,-0.016
1.57,-0.26,0.938,-0.177
1.58,-0.225,0.974,-0.05
1.59,-0.12,0.954,0.14
1.6,-0.137,0.776,0.118
1.61,-0.395,1.144,-0.121
1.62,-0.174,0.785,-0.13
1.63,-0.253,1.266,0.064
1.64,-0.007,0.732,0.135
1.65,-0.236,0.946,0.023
1.66,-0.339,1.023,-0.132
1.67,-0.187,0.98,-0.075
1.68,-0.155,1.155,0.063
1.69,-0.079,0.618,0.149
1.7,-0.328,1.162,-0.013
1.71,-0.319,0.858,-0.118
1.72,-0.212,1.054,-0.083
1.73,-0.123,0.895,0.138
1.74,-0.099,0.891,0.122
1.75,-0.339,1.115,-0.119
1.76,-0.276,0.736,-0.116
1.77,-0.194,1.208,0.045
1.78,-0.016,0.841,0.168
1.79,-0.289,1.038,0.043
1.8,-0.361,0.865,-0.117
1.81,-0.085,1.227,-0.113
1.82,-0.12,0.912,-0.001
1.83,-0.048,0.854,0.136
1.84,-0.307,1.059,-0.042
1.85,-0.286,0.865,-0.208
1.86,-0.188,1.103,-0.037
1.87,-0.149,0.793,0.171
1.88,-0.144,1.083,0.121
1.89,-0.332,0.862,-0.118
1.9,-0.284,1.025,-0.095
1.91,-0.167,1.109,0.094
1.92,-0.029,0.851,0.118
1.93,-0.228,1.017,0.072
1.94,-0.357,0.86,-0.152
1.95,-0.199,1.266,-0.061
1.96,-0.13,0.82,0.068
1.97,-0.076,0.945,0.128
1.98,-0.323,0.952,-0.007
1.99,-0.268,0.981,-0.177
2.0,-0.227,1.055,-0.035
2.01,-0.055,0.818,0.037
2.02,-0.192,1.119,0.137
2.03,-0.295,0.806,-0.122
2.04,-0.31,1.094,-0.144
2.05,-0.183,0.939,0.017
2.06,-0.038,0.979,0.146
2.07,-0.127,0.934,0.081
2.08,-0.384,0.912,-0.159
2.09,-0.318,1.197,-0.037
2.1,-0.076,0.859,0.039
2.11,-0.138,1.017,0.146
2.12,-0.246,0.81,-0.031
2.13,-0.34,1.151,-0.173
2.14,-0.178,0.974,-0.048
2.15,-0.11,0.916,0.118
2.16,-0.149,0.973,0.142
2.17,-0.296,0.839,-0.088
2.18,-0.344,1.17,-0.115
2.19,-0.157,0.843,-0.04
2.2,-0.129,1.067,0.178
2.21,-0.11,0.854,0.042
2.22,-0.373,0.997,-0.16
2.23,-0.253,1.096,-0.092
2.24,-0.088,0.944,0.025
2.25,-0.094,1.003,0.151
2.26,-0.231,0.725,-0.009
2.27,-0.449,1.231,-0.135
2.28,-0.146,0.893,-0.108
2.29,-0.108,1.007,0.103
2.3,-0.157,0.848,0.157
2.31,-0.295,0.927,-0.056
2.32,-0.33,1.118,-0.132
2.33,-0.163,0.846,-0.02
2.34,-0.115,1.147,0.163
2.35,-0.112,0.738,0.076
2.36,-0.349,1.102,-0.115
2.37,-0.213,0.936,-0.136
2.38,-0.198,1.065,0.058
2.39,-0.07,0.899,0.155
2.4,-0.201,0.765,0.0
2.41,-0.379,1.242,-0.122
2.42,-0.128,0.906,-0.114
2.43,-0.209,1.163,0.109
2.44,-0.056,0.678,0.141
2.45,-0.335,1.011,-0.03
2.46,-0.322,1.022,-0.179
2.47,-0.16,0.909,-0.029
2.48,-0.113,1.083,0.108
2.49,-0.158,0.745,0.122
2.5,-0.349,1.139,-0.097
2.51,-0.215,0.827,-0.128
2.52,-0.163,1.158,-0.048
2.53,-0.117,0.886,0.192
2.54,-0.124,0.86,0.039
2.55,-0.401,1.107,-0.144
2.56,-0.203,0.862,-0.066
2.57,-0.073,1.254,0.012
2.58,-0.063,0.665,0.135
2.59,-0.31,1.05,-0.017
2.6,-0.323,0.918,-0.119
2.61,-0.23,1.1,-0.052
2.62,-0.123,0.881,0.134
2.63,-0.132,0.898,0.101
2.64,-0.341,1.058,-0.137
2.65,-0.31,0.792,-0.103
2.66,-0.211,1.154,0.034
2.67,-0.039,0.818,0.17
2.68,-0.236,1.088,0.063
2.69,-0.273,0.833,-0.134
2.7,-0.271,1.122,-0.045
2.71,-0.156,1.05,0.041
2.72,-0.03,0.721,0.137
2.73,-0.289,1.129,-0.023
2.74,-0.301,0.811,-0.216
2.75,-0.205,1.142,-0.088
2.76,-0.05,0.86,0.134
2.77,-0.155,1.03,0.169
2.78,-0.303,0.926,-0.106
2.79,-0.26,0.896,-0.154
2.8,-0.179,1.116,0.029
2.81,-0.029,0.835,0.118
2.82,-0.205,1.083,0.039
2.83,-0.379,0.796,-0.137
2.84,-0.201,1.177,-0.044
2.85,-0.295,0.984,0.181
2.86,-0.091,0.84,0.2
2.87,-0.242,0.983,-0.003
2.88,-0.312,0.912,-0.149
2.89,-0.357,1.17,-0.074
2.9,-0.114,0.713,0.071
2.91,-0.088,1.051,0.161
2.92,-0.284,0.915,-0.098
2.93,-0.394,0.996,-0.131
2.94,-0.163,0.95,-0.033
2.95,-0.086,0.953,0.155
2.96,-0.23,1.076,0.096
2.97,-0.272,0.827,-0.143
2.98,-0.298,1.174,-0.112
2.99,-0.118,0.873,0.04
3.0,-0.103,1.05,0.145
3.01,-0.208,0.83,0.044
3.02,-0.354,1.035,-0.132
3.03,-0.154,1.151,-0.101
3.04,-0.187,0.83,0.083
3.05,-0.096,0.992,0.147
3.06,-0.281,0.823,-0.067
3.07,-0.385,1.17,-0.177
3.08,-0.166,0.861,-0.063
3.09,-0.109,1.017,0.137
3.1,-0.154,0.927,0.15
3.11,-0.301,0.93,-0.097
3.12,-0.297,1.139,-0.13
3.13,-0.18,0.883,0.046
3.14,-0.074,1.14,0.176
3.15,-0.161,0.745,-0.014
3.16,-0.419,1.092,-0.119
3.17,-0.184,1.018,-0.089
3.18,-0.088,1.022,0.025
3.19,-0.144,0.87,0.177
3.2,-0.203,0.795,-0.004
3.21,-0.347,1.269,-0.144
3.22,-0.144,0.827,-0.082
3.23,-0.106,1.094,0.14
3.24,-0.113,0.77,0.115
3.25,-0.378,1.022,-0.088
3.26,-0.318,1.041,-0.142
3.27,-0.172,0.876,-0.018
3.28,-0.069,1.102,0.175
3.29,-0.165,0.772,0.037
3.3,-0.407,1.155,-0.135
3.31,-0.165,0.854,-0.114
3.32,-0.124,1.167,0.017
3.33,0.0,0.778,0.05
3.34,-0.253,0.858,-0.001
3.35,-0.326,1.157,-0.14
3.36,-0.128,0.927,-0.062
3.37,-0.16,1.15,0.092
3.38,-0.125,0.638,0.154
3.39,-0.41,1.128,-0.017
3.4,-0.261,0.911,-0.168
3.41,-0.195,1.114,-0.013
3.42,-0.062,0.884,0.141
3.43,-0.168,0.909,0.094
3.44,-0.303,1.032,-0.168
3.45,-0.256,0.813,-0.105
3.46,-0.112,1.268,0.014
3.47,-0.101,0.711,0.164
3.48,-0.3,1.057,0.031
3.49,-0.297,0.857,-0.133
3.5,-0.087,1.15,-0.072
3.51,-0.185,0.969,0.047
3.52,-0.098,0.718,0.163
3.53,-0.268,1.153,-0.035
3.54,-0.284,0.81,-0.185
3.55,-0.279,1.135,-0.021
3.56,-0.045,0.831,0.191
3.57,-0.161,1.014,0.065
3.58,-0.402,0.893,-0.131
3.59,-0.21,0.915,-0.091
3.6,-0.15,1.225,0.096
3.61,-0.049,0.689,0.123
3.62,-0.271,1.072,0.04
3.63,-0.332,0.86,-0.142
3.64,-0.158,1.199,-0.087
3.65,-0.164,0.814,0.101
3.66,-0.097,0.89,0.2
3.67,-0.258,1.075,-0.112
3.68,-0.38,0.802,-0.143
3.69,-0.143,1.119,-0.033
3.7,0.036,0.854,0.131
3.71,-0.246,1.079,0.064
3.72,-0.261,0.824,-0.15
3.73,-0.233,1.132,-0.041
3.74,-0.097,1.044,0.042
3.75,-0.073,0.752,0.136
3.76,-0.245,1.05,0.013
3.77,-0.341,0.869,-0.116
3.78,-0.213,1.188,-0.105
3.79,-0.078,0.779,0.077
3.8,-0.156,1.02,0.174
3.81,-0.343,0.963,-0.042
3.82,-0.285,0.967,-0.196
3.83,-0.176,1.013,-0.049
3.84,-0.11,0.878,0.192
3.85,-0.198,1.099,0.09
3.86,-0.266,0.798,-0.164
3.87,-0.229,1.133,-0.123
3.88,-0.137,0.994,0.09
3.89,-0.076,0.905,0.115
3.9,-0.172,0.931,0.027
3.91,-0.336,0.946,-0.102
3.92,-0.258,1.193,-0.063
3.93,-0.139,0.755,0.091
3.94,-0.131,1.028,0.177
3.95,-0.27,0.872,-0.039
3.96,-0.395,1.097,-0.159
3.97,-0.164,0.872,-0.05
3.98,-0.062,1.009,0.183
3.99,-0.157,1.03,0.071
4.0,-0.334,0.823,-0.113
4.01,-0.283,1.153,-0.126
4.02,-0.179,0.878,0.088
4.03,-0.114,1.04,0.141
4.04,-0.212,0.833,0.041
4.05,-0.375,1.061,-0.124
4.06,-0.15,1.119,-0.111
4.07,-0.18,0.876,0.077
4.08,-0.093,0.951,0.149
4.09,-0.275,0.869,0.007
4.1,-0.393,1.243,-0.182
4.11,-0.194,0.797,-0.079
4.12,-0.131,1.055,0.18
4.13,-0.111,0.914,0.138
4.14,-0.359,0.89,-0.135
4.15,-0.28,1.062,-0.092
4.16,-0.163,0.94,0.066
4.17,-0.11,1.112,0.152
4.18,-0.151,0.727,0.03
4.19,-0.377,1.134,-0.146
4.2,-0.188,1.022,-0.037
4.21,-0.115,1.089,0.002
4.22,-0.091,0.687,0.175
4.23,-0.285,0.963,-0.007
4.24,-0.34,1.104,-0.17
4.25,-0.205,0.829,-0.047
4.26,-0.147,1.119,0.126
4.27,-0.028,0.732,0.125
4.28,-0.406,1.141,-0.107
4.29,-0.29,0.813,-0.102
4.3,-0.147,1.154,0.011
4.31,-0.056,0.959,0.13
4.32,-0.239,0.777,0.052
4.33,-0.371,1.121,-0.127
4.34,-0.159,0.916,-0.059
4.35,-0.131,1.263,0.02
4.36,-0.041,0.615,0.137
4.37,-0.316,1.047,0.027
4.38,-0.282,0.982,-0.135
4.39,-0.207,1.01,-0.043
4.4,-0.124,1.044,0.143
4.41,-0.131,0.728,0.157
4.42,-0.357,1.186,-0.088
4.43,-0.364,0.751,-0.117
4.44,-0.213,1.092,-0.063
4.45,-0.048,0.898,0.173
4.46,-0.157,0.948,0.05
4.47,-0.365,1.011,-0.107
4.48,-0.186,0.83,-0.123
4.49,-0.182,1.299,0.106
4.5,-0.024,0.688,0.144
4.51,-0.272,1.049,0.012
4.52,-0.379,0.847,-0.099
4.53,-0.124,1.17,-0.093
4.54,-0.142,0.993,0.061
4.55,-0.079,0.759,0.159
4.56,-0.318,1.112,-0.013
4.57,-0.266,0.863,-0.168
4.58,-0.258,1.126,-0.068
4.59,-0.083,0.743,0.126
4.6,-0.189,1.086,0.146
4.61,-0.287,0.91,-0.139
4.62,-0.374,0.877,-0.123
4.63,-0.212,1.097,0.077
4.64,0.005,0.878,0.125
4.65,-0.267,1.049,0.038
4.66,-0.323,0.783,-0.166
4.67,-0.253,1.26,-0.037
4.68,-0.01,0.936,-0.021
4.69,-0.121,0.876,0.125
4.7,-0.268,0.965,0.003
4.71,-0.228,0.976,-0.169
4.72,-0.219,1.078,-0.081
4.73,-0.133,0.738,0.11
4.74,-0.177,1.117,0.156
4.75,-0.315,0.876,-0.082
4.76,-0.341,0.998,-0.129
4.77,-0.156,0.889,-0.028
4.78,-0.057,1.003,0.166
4.79,-0.186,1.041,0.04
4.8,-0.374,0.81,-0.102
4.81,-0.19,1.164,-0.1
4.82,-0.067,0.973,0.028
4.83,-0.056,1.015,0.12
4.84,-0.184,0.849,0.038
4.85,-0.379,1.043,-0.151
4.86,-0.137,1.146,-0.068
4.87,-0.119,0.864,0.02
4.88,-0.124,0.951,0.138
4.89,-0.242,0.849,-0.06
4.9,-0.397,1.219,-0.145
4.91,-0.167,0.791,-0.036
4.92,-0.11,1.091,0.158
4.93,-0.157,0.917,0.124
4.94,-0.311,0.927,-0.117
4.95,-0.276,1.093,-0.118
4.96,-0.215,0.88,0.02
4.97,-0.058,1.117,0.153
4.98,-0.154,0.745,-0.026
4.99,-0.434,1.098,-0.116
5.0,-0.102,0.99,-0.122
5.01,-0.196,1.03,0.059
5.02,-0.053,0.693,0.157
5.03,-0.321,0.969,-0.034
5.04,-0.356,1.07,-0.182
5.05,-0.156,0.867,-0.058
5.06,-0.086,1.133,0.11
5.07,-0.129,0.716,0.147
5.08,-0.378,1.141,-0.11
5.09,-0.26,0.813,-0.146
5.1,-0.216,1.123,0.027
5.11,-0.01,0.963,0.115
5.12,-0.187,0.775,0.027
5.13,-0.374,1.121,-0.138
5.14,-0.225,0.859,-0.018
5.15,-0.129,1.282,0.046
5.16,-0.046,0.677,0.172
5.17,-0.309,1.025,0.021
5.18,-0.287,0.979,-0.109
5.19,-0.15,0.975,-0.127
5.2,-0.129,1.007,0.08
5.21,-0.104,0.724,0.154
5.22,-0.364,1.203,-0.073
5.23,-0.248,0.739,-0.185
5.24,-0.216,1.12,-0.031
5.25,-0.036,0.947,0.176
5.26,-0.18,0.929,0.052
5.27,-0.304,1.004,-0.096
5.28,-0.224,0.885,-0.07
5.29,-0.128,1.225,0.03
5.3,0.005,0.653,0.123
5.31,-0.287,1.132,0.008
5.32,-0.343,0.837,-0.143
5.33,-0.176,1.137,-0.077
5.34,-0.103,0.961,0.04
5.35,-0.132,0.732,0.162
5.36,-0.265,1.137,0.004
5.37,-0.359,0.82,-0.163
5.38,-0.264,1.105,-0.047
5.39,-0.114,0.804,0.151
5.4,-0.158,1.08,0.105
5.41,-0.259,0.927,-0.12
5.42,-0.271,0.943,-0.129
5.43,-0.217,1.11,0.017
5.44,-0.067,0.809,0.187
5.45,-0.203,1.125,0.043
5.46,-0.333,0.781,-0.115
5.47,-0.267,1.187,-0.055
5.48,-0.086,0.932,0.061
5.49,-0.051,0.894,0.13
5.5,-0.317,0.971,0.017
5.51,-0.242,0.933,-0.137
5.52,-0.328,1.135,-0.022
5.53,-0.074,0.748,0.101
5.54,-0.155,1.094,0.173
5.55,-0.304,0.882,-0.113
5.56,-0.284,1.021,-0.147
5.57,-0.247,0.977,-0.009
5.58,-0.022,0.918,0.127
5.59,-0.205,1.006,0.073
5.6,-0.284,0.836,-0.13
5.61,-0.355,1.256,-0.063
5.62,-0.03,0.836,0.01
5.63,-0.095,0.99,0.162
5.64,-0.205,0.82,-0.028
5.65,-0.386,1.091,-0.109
5.66,-0.168,1.087,-0.082
5.67,-0.153,0.829,0.102
5.68,-0.149,0.994,0.173
5.69,-0.273,0.867,-0.025
5.7,-0.312,1.205,-0.166
5.71,-0.168,0.86,-0.026
5.72,-0.126,1.057,0.147
5.73,-0.126,0.898,0.105
5.74,-0.319,0.929,-0.137
5.75,-0.302,1.061,-0.101
5.76,-0.154,0.912,-0.003
5.77,-0.083,1.118,0.148
5.78,-0.142,0.719,0.013
5.79,-0.354,1.11,-0.154
5.8,-0.2,1.001,-0.011
5.81,-0.083,1.045,0.005
5.82,-0.077,0.65,0.143
5.83,-0.319,0.995,-0.005
5.84,-0.37,1.153,-0.107
5.85,-0.152,0.818,-0.081
5.86,-0.208,1.092,0.159
5.87,-0.102,0.717,0.151
5.88,-0.339,1.169,-0.097
5.89,-0.255,0.796,-0.174
5.9,-0.287,1.082,0.018
5.91,-0.043,0.973,0.153
5.92,-0.139,0.825,0.036
5.93,-0.381,1.102,-0.137
5.94,-0.21,0.786,-0.085
5.95,-0.157,1.302,0.089
5.96,-0.042,0.679,0.122
5.97,-0.315,0.993,0.024
5.98,-0.3,0.981,-0.142
5.99,-0.145,1.039,-0.089
6.0,-0.165,1.028,0.07
6.01,-0.088,0.67,0.164
6.02,-0.33,1.189,-0.045
6.03,-0.244,0.845,-0.185
6.04,-0.213,1.098,-0.055
6.05,-0.133,0.826,0.18
6.06,-0.157,0.944,0.121
6.07,-0.265,1.061,-0.146
6.08,-0.268,0.813,-0.101
6.09,-0.219,1.198,-0.003
6.1,-0.039,0.768,0.156
6.11,-0.21,1.064,0.032
6.12,-0.355,0.858,-0.131
6.13,-0.212,1.113,-0.068
6.14,-0.089,1.021,0.04
6.15,-0.062,0.773,0.158
6.16,-0.327,1.061,-0.012
6.17,-0.281,0.837,-0.147
6.18,-0.205,1.176,-0.048
6.19,-0.098,0.76,0.084
6.2,-0.098,1.01,0.16
6.21,-0.319,0.959,-0.078
6.22,-0.327,0.955,-0.113
6.23,-0.219,1.028,-0.027
6.24,-0.097,0.888,0.17
6.25,-0.153,1.076,0.06
6.26,-0.381,0.839,-0.134
6.27,-0.26,1.15,-0.081
6.28,-0.114,0.95,0.025
6.29,-0.042,0.968,0.174
6.3,-0.283,0.924,0.056
6.31,-0.3,0.907,-0.153
6.32,-0.146,1.243,-0.076
6.33,-0.322,0.831,0.135
6.34,-0.118,0.982,0.147
6.35,-0.295,0.828,-0.068
6.36,-0.301,1.156,-0.155
6.37,-0.14,0.976,-0.073
6.38,-0.103,0.884,0.155
6.39,-0.165,0.989,0.103
6.4,-0.279,0.887,-0.06
6.41,-0.349,1.189,-0.145
6.42,-0.132,0.844,-0.011
6.43,-0.146,1.133,0.187
6.44,-0.177,0.817,0.038
6.45,-0.384,1.02,-0.149
6.46,-0.243,1.067,-0.107
6.47,-0.115,0.97,0.07
6.48,-0.043,1.022,0.114
6.49,-0.256,0.74,-0.01
6.5,-0.357,1.192,-0.154
6.51,-0.094,0.954,-0.008
6.52,-0.162,1.019,0.072
6.53,-0.167,0.777,0.114
6.54,-0.303,0.974,-0.008
6.55,-0.272,1.155,-0.155
6.56,-0.082,0.815,-0.132
6.57,-0.154,1.1,0.183
6.58,-0.132,0.747,0.082
6.59,-0.397,1.121,-0.138
6.6,-0.263,0.914,-0.104
6.61,-0.04,1.092,0.025
6.62,-0.099,0.764,0.132
6.63,-0.325,0.906,0.037
6.64,-0.316,1.09,-0.149
6.65,-0.102,0.891,-0.094
6.66,-0.16,1.136,0.105
6.67,-0.108,0.645,0.114
6.68,-0.33,1.148,-0.054
6.69,-0.244,0.883,-0.177
6.7,-0.176,1.022,-0.048
6.71,-0.103,0.966,0.158
6.72,-0.139,0.828,0.097
6.73,-0.354,1.14,-0.107
6.74,-0.201,0.758,-0.106
6.75,-0.192,1.239,0.002
6.76,-0.001,0.753,0.164
6.77,-0.254,1.001,0.03
6.78,-0.331,0.948,-0.141
6.79,-0.224,1.008,-0.064
6.8,-0.066,1.068,0.018
6.81,-0.103,0.683,0.148
6.82,-0.34,1.125,-0.014
6.83,-0.27,0.798,-0.119
6.84,-0.245,1.144,-0.046
6.85,-0.094,0.849,0.096
6.86,-0.112,0.95,0.163
6.87,-0.328,1.051,-0.119
6.88,-0.295,0.803,-0.143
6.89,-0.254,1.152,0.025
6.9,-0.053,0.809,0.15
6.91,-0.211,1.123,0.085
6.92,-0.29,0.82,-0.149
6.93,-0.338,1.013,-0.04
6.94,-0.047,1.032,0.04
6.95,0.015,0.923,0.144
6.96,-0.338,1.013,0.009
6.97,-0.338,0.776,-0.165
6.98,-0.207,1.274,-0.038
6.99,-0.029,0.859,0.031
7.0,-0.128,0.934,0.135
7.01,-0.261,0.926,-0.039
7.02,-0.255,1.002,-0.172
7.03,-0.319,1.006,-0.014
7.04,-0.094,0.832,0.129
7.05,-0.114,1.145,0.097
7.06,-0.342,0.825,-0.137
7.07,-0.281,1.071,-0.137
7.08,-0.147,0.944,0.052
7.09,0.026,1.028,0.124
7.1,-0.21,0.919,0.019
7.11,-0.401,0.919,-0.105
7.12,-0.125,1.222,-0.092
7.13,0.026,0.833,-0.062
7.14,-0.149,0.996,0.152
7.15,-0.256,0.847,0.006
7.16,-0.308,1.158,-0.157
7.17,-0.208,0.906,-0.072
7.18,-0.088,0.898,0.12
7.19,-0.13,1.026,0.166
7.2,-0.285,0.869,-0.092
7.21,-0.365,1.121,-0.134
7.22,-0.217,0.838,-0.035
7.23,-0.06,1.153,0.174
7.24,-0.129,0.842,0.055
7.25,-0.33,0.974,-0.163
7.26,-0.251,1.028,-0.072
7.27,-0.082,0.997,0.014
7.28,-0.044,0.967,0.145
7.29,-0.251,0.749,0.016
7.3,-0.36,1.229,-0.141
7.31,-0.18,0.945,-0.063
7.32,-0.117,1.05,0.073
7.33,-0.134,0.778,0.177
7.34,-0.333,0.954,-0.042
7.35,-0.292,1.135,-0.158
7.36,-0.215,0.833,-0.054
7.37,-0.15,1.056,0.159
7.38,-0.086,0.746,0.104
7.39,-0.354,1.128,-0.094
7.4,-0.329,0.881,-0.146
7.41,-0.189,0.981,0.028
7.42,-0.357,1.019,0.272
7.43,-0.21,0.929,0.056
7.44,-0.376,1.014,-0.155
7.45,-0.141,0.868,-0.064
7.46,-0.051,1.285,0.089
7.47,-0.073,0.678,0.089
7.48,-0.318,1.071,-0.023
7.49,-0.267,0.891,-0.131
7.5,-0.107,1.103,-0.076
7.51,-0.397,0.912,0.095
7.52,-0.14,0.771,0.149
7.53,-0.272,1.19,-0.086
7.54,-0.29,0.774,-0.144
7.55,-0.216,1.105,-0.017
7.56,0.032,0.848,0.156
7.57,-0.144,1.03,0.051
7.58,-0.313,0.909,-0.156
7.59,-0.237,0.955,-0.091
7.6,-0.178,1.158,0.08
7.61,-0.006,0.676,0.147
7.62,-0.272,1.087,0.018
7.63,-0.319,0.854,-0.134
7.64,-0.206,1.191,-0.076
7.65,-0.077,0.889,0.088
7.66,-0.117,0.861,0.136
7.67,-0.344,1.031,-0.024
7.68,-0.219,0.917,-0.145
7.69,-0.267,1.156,-0.028
7.7,-0.084,0.701,0.127
7.71,-0.142,1.114,0.131
7.72,-0.319,0.846,-0.128
7.73,-0.304,0.998,-0.079
7.74,-0.175,1.066,0.067
7.75,-0.051,0.898,0.162
7.76,-0.207,1.053,0.042
7.77,-0.363,0.803,-0.146
7.78,-0.218,1.221,-0.072
7.79,-0.092,0.896,0.034
7.8,-0.087,0.921,0.119
7.81,-0.265,0.894,-0.016
7.82,-0.287,1.04,-0.104
7.83,-0.191,1.095,-0.058
7.84,-0.122,0.792,0.072
7.85,-0.189,1.02,0.151
7.86,-0.309,0.83,-0.06
7.87,-0.248,1.209,-0.168
7.88,-0.193,0.83,-0.005
7.89,-0.113,0.999,0.177
7.9,-0.085,0.957,0.083
7.91,-0.419,0.882,-0.137
7.92,-0.25,1.093,-0.092
7.93,-0.104,0.964,0.053
7.94,-0.099,1.088,0.152
7.95,-0.229,0.748,0.0
7.96,-0.38,1.111,-0.118
7.97,-0.106,1.032,-0.075
7.98,-0.095,0.943,0.038
7.99,-0.174,0.928,0.161
8.0,-0.328,0.832,-0.051
8.01,-0.297,1.212,-0.129
8.02,-0.189,0.829,0.014
8.03,-0.151,1.049,0.111
8.04,-0.157,0.817,0.128
8.05,-0.365,1.032,-0.112
8.06,-0.31,0.964,-0.131
8.07,-0.16,0.936,0.04
8.08,-0.07,1.138,0.198
8.09,-0.151,0.707,-0.006
8.1,-0.423,1.143,-0.117
8.11,-0.162,0.915,-0.079
8.12,-0.069,1.166,0.029
8.13,-0.08,0.798,0.137
8.14,-0.326,0.876,-0.009
8.15,-0.331,1.141,-0.139
8.16,-0.091,0.892,-0.061
8.17,-0.168,1.109,0.1
8.18,-0.119,0.632,0.124
8.19,-0.368,1.158,-0.022
8.2,-0.214,0.93,-0.17
8.21,-0.223,0.97,0.0
8.22,-0.34,0.988,0.261
8.23,-0.165,0.898,0.049
8.24,-0.421,1.035,-0.175
8.25,-0.215,0.829,-0.07
8.26,-0.086,1.267,0.085
8.27,-0.014,0.655,0.137
8.28,-0.346,1.036,0.01
8.29,-0.335,0.896,-0.122
8.3,-0.198,1.095,-0.076
8.31,-0.163,0.964,0.091
8.32,-0.123,0.796,0.164
8.33,-0.368,1.143,-0.07
8.34,-0.223,0.735,-0.153
8.35,-0.268,1.164,0.006
8.36,-0.095,0.82,0.181
8.37,-0.087,1.052,0.087
8.38,-0.303,0.91,-0.18
8.39,-0.249,0.896,-0.118
8.4,-0.28,1.183,0.084
8.41,0.016,0.729,0.16
8.42,-0.266,1.091,0.018
8.43,-0.335,0.79,-0.109
8.44,-0.28,1.208,-0.052
8.45,-0.119,0.887,0.109
8.46,-0.091,0.842,0.125
8.47,-0.319,1.02,-0.024
8.48,-0.334,0.922,-0.126
8.49,-0.205,1.146,-0.074
8.5,-0.135,0.726,0.117
8.51,-0.168,1.129,0.142
8.52,-0.323,0.893,-0.087
8.53,-0.319,0.999,-0.166
8.54,-0.199,0.994,0.021
8.55,-0.21,1.061,0.013
8.56,-0.384,0.792,-0.109
8.57,-0.234,1.22,-0.054
8.58,-0.042,0.909,0.053
8.59,-0.098,0.877,0.112
8.6,-0.272,0.962,-0.02
8.61,-0.287,0.989,-0.107
8.62,-0.171,1.142,-0.079
8.63,-0.156,0.734,0.114
8.64,-0.152,1.079,0.138
8.65,-0.26,0.866,-0.077
8.66,-0.347,1.081,-0.15
8.67,-0.278,0.912,0.08
8.68,-0.049,0.993,0.166
8.69,-0.18,1.035,0.07
8.7,-0.316,0.796,-0.173
8.71,-0.303,1.192,-0.097
8.72,-0.035,0.909,0.059
8.73,-0.117,1.028,0.108
8.74,-0.26,0.792,-0.009
8.75,-0.377,1.069,-0.109
8.76,-0.092,1.065,-0.078
8.77,-0.189,0.838,0.074
8.78,-0.211,0.981,0.159
8.79,-0.232,0.824,-0.058
8.8,-0.342,1.207,-0.142
8.81,-0.168,0.826,-0.067
8.82,-0.139,1.071,0.177
8.83,-0.077,0.873,0.085
8.84,-0.358,0.942,-0.132
8.85,-0.34,1.061,-0.095
8.86,-0.096,0.943,0.063
8.87,-0.045,1.092,0.136
8.88,-0.163,0.715,0.005
8.89,-0.383,1.17,-0.154
8.9,-0.208,1.009,-0.029
8.91,-0.094,1.05,0.059
8.92,-0.123,0.842,0.129
8.93,-0.376,0.871,-0.027
8.94,-0.354,1.199,-0.169
8.95,-0.162,0.818,-0.067
8.96,-0.177,1.09,0.126
8.97,-0.09,0.723,0.104
8.98,-0.368,1.143,-0.132
8.99,-0.208,0.801,-0.129
9.0,-0.168,1.159,0.034
9.01,-0.068,0.886,0.152
9.02,-0.219,0.798,0.038
9.03,-0.395,1.114,-0.148
9.04,-0.164,0.888,-0.045
9.05,-0.176,1.233,0.044
9.06,-0.051,0.625,0.122
9.07,-0.357,1.081,-0.011
9.08,-0.235,0.978,-0.152
9.09,-0.205,0.981,-0.057
9.1,-0.137,0.963,0.101
9.11,-0.085,0.756,0.147
9.12,-0.373,1.205,-0.088
9.13,-0.315,0.75,-0.13
9.14,-0.247,1.137,-0.005
9.15,-0.022,0.884,0.205
9.16,-0.207,0.961,0.042
9.17,-0.371,0.951,-0.167
9.18,-0.197,0.899,-0.073
9.19,-0.077,1.28,0.019
9.2,-0.068,0.608,0.145
9.21,-0.311,1.089,0.004
9.22,-0.282,0.875,-0.117
9.23,-0.178,1.126,-0.081
9.24,-0.158,0.902,0.089
9.25,-0.133,0.832,0.151
9.26,-0.324,1.112,-0.055
9.27,-0.309,0.777,-0.116
9.28,-0.273,1.142,-0.041
9.29,-0.055,0.846,0.168
9.3,-0.121,1.08,0.068
9.31,-0.36,0.88,-0.115
9.32,-0.292,0.936,-0.095
9.33,-0.102,1.146,0.001
9.34,-0.034,0.745,0.124
9.35,-0.278,1.076,0.044
9.36,-0.354,0.783,-0.154
9.37,-0.177,1.238,-0.067
9.38,-0.068,0.873,0.016
9.39,-0.095,0.879,0.13
9.4,-0.267,1.023,-0.022
9.41,-0.323,0.965,-0.182
9.42,-0.227,1.027,-0.04
9.43,-0.06,0.776,0.155
9.44,-0.169,1.156,0.146
9.45,-0.373,0.834,-0.126
9.46,-0.231,1.003,-0.117
9.47,-0.227,1.024,0.055
9.48,-0.014,0.926,0.13
9.49,-0.237,1.004,0.074
9.5,-0.34,0.848,-0.126
9.51,-0.162,1.253,-0.056
9.52,-0.085,0.874,-0.008
9.53,-0.122,0.976,0.139
9.54,-0.252,0.898,-0.006
9.55,-0.274,1.09,-0.174
9.56,-0.329,0.976,0.016
9.57,-0.099,0.839,0.125
9.58,-0.143,1.082,0.164
9.59,-0.301,0.831,-0.157
9.6,-0.307,1.128,-0.143
9.61,-0.194,0.861,-0.022
9.62,-0.066,1.044,0.133
9.63,-0.16,0.893,0.062
9.64,-0.345,0.949,-0.137
9.65,-0.345,1.157,-0.058
9.66,-0.042,0.914,0.046
9.67,-0.082,1.004,0.141
9.68,-0.24,0.738,-0.006
9.69,-0.367,1.207,-0.171
9.7,-0.174,0.95,-0.056
9.71,-0.114,0.963,0.075
9.72,-0.135,0.887,0.147
9.73,-0.321,0.868,-0.066
9.74,-0.343,1.223,-0.133
9.75,-0.175,0.794,-0.017
9.76,-0.122,1.072,0.136
9.77,-0.093,0.757,0.084
9.78,-0.43,1.167,-0.163
9.79,-0.207,0.819,-0.143
9.8,-0.134,1.193,0.068
9.81,-0.049,0.837,0.121
9.82,-0.29,0.781,0.02
9.83,-0.323,1.14,-0.139
9.84,-0.082,0.937,-0.03
9.85,-0.116,1.184,0.029
9.86,-0.103,0.589,0.102
9.87,-0.313,1.146,-0.032
9.88,-0.312,0.974,-0.157
9.89,-0.218,0.897,-0.04
9.9,-0.191,1.036,0.226
9.91,-0.084,0.75,0.073
9.92,-0.45,1.129,-0.115
9.93,-0.205,0.773,-0.104
9.94,-0.286,1.278,0.207
9.95,-0.04,0.74,0.111
9.96,-0.223,0.9,0.026
9.97,-0.36,1.126,-0.101
9.98,-0.141,0.938,-0.114
9.99,-0.133,1.111,0.089
10.0,-0.043,0.671,0.141
10.01,-0.388,1.163,-0.045
10.02,-0.33,0.814,-0.143
10.03,-0.254,1.07,-0.029
10.04,-0.127,0.93,0.153
10.05,-0.12,0.844,0.106
10.06,-0.369,1.097,-0.096
10.07,-0.176,0.775,-0.128
10.08,-0.221,1.225,0.01
10.09,-0.061,0.754,0.179
10.1,-0.174,1.017,0.043
10.11,-0.367,0.91,-0.156
10.12,-0.237,1.021,-0.04
10.13,-0.117,1.107,0.067
10.14,-0.09,0.727,0.158
10.15,-0.329,1.081,-0.024
10.16,-0.347,0.806,-0.142
10.17,-0.197,1.201,-0.017
10.18,-0.094,0.861,0.107
10.19,-0.13,0.939,0.13
10.2,-0.31,1.016,-0.064
10.21,-0.291,0.908,-0.153
10.22,-0.169,1.085,-0.031
10.23,-0.053,0.772,0.226
10.24,-0.232,1.122,0.05
10.25,-0.369,0.777,-0.169
10.26,-0.21,1.106,-0.092
10.27,-0.434,1.052,0.116
10.28,-0.063,0.865,0.08
10.29,-0.248,0.985,0.013
10.3,-0.304,0.845,-0.122
10.31,-0.201,1.215,-0.062
10.32,-0.055,0.8,0.056
10.33,-0.208,0.997,0.126
10.34,-0.268,0.905,-0.076
10.35,-0.314,1.038,-0.14
10.36,-0.215,1.013,-0.005
10.37,-0.06,0.843,0.162
10.38,-0.198,1.097,0.102
10.39,-0.302,0.793,-0.156
10.4,-0.302,1.181,-0.072
10.41,-0.044,0.919,0.042
10.42,-0.118,0.975,0.146
10.43,-0.255,0.883,-0.006
10.44,-0.351,0.998,-0.133
10.45,-0.187,1.172,-0.062
10.46,-0.084,0.761,0.046
10.47,-0.162,1.023,0.178
10.48,-0.291,0.863,-0.032
10.49,-0.332,1.153,-0.153
10.5,-0.183,0.897,-0.027
10.51,-0.114,0.981,0.15
10.52,-0.123,1.005,0.1
10.53,-0.398,0.981,-0.164
10.54,-0.255,1.077,-0.097
10.55,-0.08,0.981,0.039
10.56,-0.079,1.026,0.15
10.57,-0.277,0.797,0.0
10.58,-0.303,1.258,-0.174
10.59,-0.112,0.891,-0.087
10.6,-0.191,1.067,0.069
10.61,-0.122,0.71,0.139
10.62,-0.395,1.066,-0.06
10.63,-0.3,1.007,-0.135
10.64,-0.176,0.879,-0.045
10.65,-0.163,1.103,0.215
10.66,-0.075,0.742,0.05
10.67,-0.391,1.172,-0.164
10.68,-0.22,0.841,-0.086
10.69,-0.107,1.241,0.026
10.7,-0.054,0.695,0.155
10.71,-0.342,0.978,-0.005
10.72,-0.317,0.991,-0.111
10.73,-0.127,0.965,-0.096
10.74,-0.134,1.043,0.107
10.75,-0.141,0.707,0.177
10.76,-0.363,1.187,-0.101
10.77,-0.248,0.793,-0.137
10.78,-0.215,1.134,-0.045
10.79,-0.086,0.891,0.203
10.8,-0.134,0.913,0.059
10.81,-0.36,1.021,-0.114
10.82,-0.222,0.876,-0.1
10.83,-0.148,1.262,0.035
10.84,-0.041,0.644,0.162
10.85,-0.273,1.08,0.012
10.86,-0.321,0.928,-0.132
10.87,-0.186,1.079,-0.092
10.88,-0.117,0.969,0.092
10.89,-0.093,0.791,0.133
10.9,-0.397,1.12,-0.054
10.91,-0.303,0.779,-0.124
10.92,-0.215,1.13,-0.057
10.93,-0.05,0.785,0.176
10.94,-0.178,1.051,0.091
10.95,-0.303,0.951,-0.104
10.96,-0.266,0.889,-0.116
10.97,-0.226,1.17,0.084
10.98,-0.012,0.829,0.14
10.99,-0.242,1.052,0.026
11.0,-0.338,0.785,-0.141
11.01,-0.239,1.232,-0.059
11.02,-0.146,0.892,0.047
11.03,-0.057,0.88,0.104
11.04,-0.34,1.034,-0.023
11.05,-0.277,0.901,-0.162
11.06,-0.262,1.1,-0.004
11.07,-0.084,0.756,0.104
11.08,-0.189,1.119,0.175
11.09,-0.343,0.854,-0.104
11.1,-0.292,1.006,-0.184
11.11,-0.227,1.008,0.058
11.12,-0.053,0.934,0.125
11.13,-0.237,1.023,0.059
11.14,-0.326,0.83,-0.13
11.15,-0.243,1.243,-0.062
11.16,-0.034,0.875,-0.03
11.17,-0.038,0.963,0.163
11.18,-0.248,0.888,-0.029
11.19,-0.321,1.062,-0.114
11.2,-0.179,1.038,-0.103
11.21,-0.306,0.816,0.169
11.22,-0.167,1.08,0.133
11.23,-0.363,0.848,-0.074
11.24,-0.332,1.123,-0.159
11.25,-0.171,0.808,-0.034
11.26,-0.093,1.005,0.234
11.27,-0.164,0.955,0.105
11.28,-0.451,0.891,-0.12
11.29,-0.215,1.093,-0.101
11.3,-0.175,0.935,0.036
11.31,-0.038,1.031,0.132
11.32,-0.176,0.776,-0.0
11.33,-0.408,1.172,-0.154
11.34,-0.197,1.028,-0.028
11.35,-0.134,0.955,0.035
11.36,-0.104,0.84,0.16
11.37,-0.303,0.869,-0.03
11.38,-0.289,1.156,-0.172
11.39,-0.146,0.801,-0.103
11.4,-0.107,1.09,0.13
11.41,-0.168,0.751,0.129
11.42,-0.39,1.105,-0.163
11.43,-0.256,0.87,-0.099
11.44,-0.116,1.135,0.05
11.45,-0.075,0.958,0.148
11.46,-0.233,0.774,0.015
11.47,-0.368,1.173,-0.162
11.48,-0.138,0.89,-0.073
11.49,-0.126,1.193,0.067
11.5,-0.097,0.685,0.142
11.51,-0.353,1.011,-0.025
11.52,-0.266,1.012,-0.156
11.53,-0.146,0.93,-0.067
11.54,-0.221,1.03,0.162
11.55,-0.139,0.708,0.124
11.56,-0.356,1.186,-0.119
11.57,-0.219,0.774,-0.132
11.58,-0.245,1.187,0.05
11.59,-0.041,0.867,0.185
11.6,-0.266,0.878,0.05
11.61,-0.369,1.037,-0.133
11.62,-0.103,0.924,-0.064
11.63,-0.185,1.22,0.096
11.64,-0.091,0.603,0.179
11.65,-0.314,1.118,-0.022
11.66,-0.28,0.917,-0.167
11.67,-0.253,1.015,-0.066
11.68,-0.06,0.946,0.124
11.69,-0.112,0.816,0.14
11.7,-0.353,1.146,-0.091
11.71,-0.276,0.767,-0.118
11.72,-0.164,1.198,0.001
11.73,-0.088,0.831,0.181
11.74,-0.177,1.004,0.032
11.75,-0.376,0.94,-0.141
11.76,-0.202,0.967,-0.052
11.77,-0.073,1.17,-0.017
11.78,-0.046,0.689,0.128
11.79,-0.301,1.093,0.008
11.8,-0.381,0.856,-0.124
11.81,-0.169,1.132,-0.082
11.82,-0.14,0.835,0.083
11.83,-0.122,0.908,0.145
11.84,-0.323,1.065,-0.086
11.85,-0.301,0.836,-0.126
11.86,-0.259,1.12,-0.032
11.87,-0.047,0.777,0.179
11.88,-0.135,1.1,0.076
11.89,-0.341,0.857,-0.165
11.9,-0.258,1.045,-0.101
11.91,-0.098,1.098,0.054
11.92,-0.067,0.804,0.145
11.93,-0.253,1.02,-0.003
11.94,-0.366,0.854,-0.098
11.95,-0.106,1.197,-0.099
11.96,-0.196,0.809,0.11
11.97,-0.1,0.944,0.146
11.98,-0.3,0.96,-0.071
11.99,-0.28,0.971,-0.174
12.0,-0.353,1.031,0.077
12.01,-0.074,0.837,0.144
12.02,-0.236,1.123,0.107
12.03,-0.335,0.839,-0.153
12.04,-0.254,1.1,-0.121
12.05,-0.199,0.952,0.098
12.06,-0.017,0.987,0.157
12.07,-0.246,0.914,0.012
12.08,-0.432,0.885,-0.141
12.09,-0.14,1.215,-0.052
12.1,-0.024,0.848,0.023
12.11,-0.164,0.981,0.128
12.12,-0.222,0.833,-0.088
12.13,-0.307,1.166,-0.148
12.14,-0.186,0.901,-0.04
12.15,-0.082,0.911,0.15
12.16,-0.147,1.042,0.113
12.17,-0.323,0.853,-0.136
12.18,-0.209,1.086,-0.146
12.19,-0.108,0.946,0.045
12.2,-0.118,1.052,0.14
12.21,-0.231,0.743,0.005
12.22,-0.407,1.19,-0.161
12.23,-0.074,1.015,-0.088
12.24,-0.209,0.978,0.093
12.25,-0.135,0.84,0.153
12.26,-0.352,0.886,-0.036
12.27,-0.336,1.195,-0.158
12.28,-0.157,0.823,-0.018
12.29,-0.173,1.137,0.152
12.3,-0.119,0.771,0.087
12.31,-0.415,1.056,-0.123
12.32,-0.205,0.986,-0.129
12.33,-0.159,1.053,0.049
12.34,-0.092,0.95,0.149
12.35,-0.163,0.713,-0.011
12.36,-0.371,1.245,-0.145
12.37,-0.089,0.9,-0.086
12.38,-0.177,1.121,0.088
12.39,-0.079,0.734,0.133
12.4,-0.344,0.979,-0.016
12.41,-0.297,1.107,-0.173
12.42,-0.168,0.855,-0.028
12.43,-0.13,1.12,0.142
12.44,-0.125,0.686,0.1
12.45,-0.395,1.144,-0.136
12.46,-0.245,0.836,-0.109
12.47,-0.163,1.152,0.013
12.48,-0.071,0.949,0.14
12.49,-0.21,0.793,0.036
12.5,-0.342,1.162,-0.158
12.51,-0.157,0.903,-0.055
12.52,-0.139,1.202,0.045
12.53,-0.052,0.654,0.159
12.54,-0.377,1.04,-0.034
12.55,-0.28,0.97,-0.16
12.56,-0.177,0.993,-0.048
12.57,-0.168,1.054,0.091
12.58,-0.078,0.714,0.138
12.59,-0.377,1.187,-0.142
12.6,-0.213,0.759,-0.132
12.61,-0.235,1.198,0.052
12.62,0.022,0.851,0.139
12.63,-0.223,0.93,0.022
12.64,-0.359,1.06,-0.145
12.65,-0.187,0.948,-0.061
12.66,-0.2,1.136,0.082
12.67,-0.054,0.621,0.183
12.68,-0.338,1.163,-0.03
12.69,-0.303,0.866,-0.147
12.7,-0.276,1.018,-0.057
12.71,-0.103,0.973,0.139
12.72,-0.088,0.858,0.121
12.73,-0.432,1.087,-0.132
12.74,-0.212,0.701,-0.113
12.75,-0.221,1.273,0.069
12.76,-0.017,0.843,0.158
12.77,-0.219,1.021,0.057
12.78,-0.346,0.945,-0.151
12.79,-0.228,1.036,-0.083
12.8,-0.146,1.117,0.059
12.81,-0.03,0.676,0.139
12.82,-0.331,1.103,-0.021
12.83,-0.289,0.854,-0.129
12.84,-0.215,1.178,-0.055
12.85,-0.098,0.792,0.075
12.86,-0.102,0.95,0.162
12.87,-0.332,1.032,-0.12
12.88,-0.322,0.779,-0.107
12.89,-0.39,1.164,0.066
12.9,0.012,0.84,0.145
12.91,-0.228,1.089,0.019
12.92,-0.318,0.805,-0.137
12.93,-0.231,1.105,-0.095
12.94,-0.094,1.068,0.064
12.95,-0.079,0.773,0.142
12.96,-0.289,1.049,0.041
12.97,-0.273,0.861,-0.148
12.98,-0.217,1.067,-0.048
12.99,-0.101,0.776,0.111
13.0,-0.174,1.109,0.135
13.01,-0.26,0.829,-0.119
13.02,-0.346,1.082,-0.105
13.03,-0.197,0.935,0.026
13.04,-0.03,1.004,0.187
13.05,-0.186,0.985,0.002
13.06,-0.361,0.837,-0.125
13.07,-0.203,1.234,-0.074
13.08,-0.006,0.885,0.039
13.09,-0.131,1.041,0.124
13.1,-0.267,0.868,-0.039
13.11,-0.333,1.1,-0.156
13.12,-0.151,0.986,-0.076
13.13,-0.089,0.843,0.084
13.14,-0.206,1.046,0.182
13.15,-0.291,0.826,-0.112
13.16,-0.336,1.143,-0.128
13.17,-0.158,0.89,-0.015
13.18,-0.105,1.06,0.168
13.19,-0.143,0.85,0.028
13.2,-0.368,0.995,-0.146
13.21,-0.238,1.159,-0.059
13.22,-0.035,0.87,-0.012
13.23,-0.078,1.004,0.161
13.24,-0.228,0.757,-0.016
13.25,-0.369,1.217,-0.131
13.26,-0.148,0.933,-0.081
13.27,-0.103,0.929,0.019
13.28,-0.177,0.896,0.16
13.29,-0.306,0.917,-0.062
13.3,-0.346,1.151,-0.147
13.31,-0.191,0.767,-0.001
13.32,-0.083,1.158,0.185
13.33,-0.185,0.801,0.084
13.34,-0.417,1.025,-0.129
13.35,-0.219,0.97,-0.114
13.36,-0.131,1.045,0.058
13.37,-0.13,0.982,0.144
13.38,-0.249,0.713,-0.016
13.39,-0.399,1.222,-0.122
13.4,-0.05,0.94,-0.09
13.41,-0.117,1.095,0.016
13.42,-0.071,0.675,0.129
13.43,-0.305,1.017,-0.018
13.44,-0.332,1.111,-0.227
13.45,-0.173,0.838,-0.024
13.46,-0.165,1.132,0.168
13.47,-0.064,0.736,0.1
13.48,-0.432,1.127,-0.14
13.49,-0.254,0.781,-0.09
13.5,-0.19,1.179,0.096
13.51,-0.04,0.999,0.154
13.52,-0.227,0.818,-0.019
13.53,-0.418,1.138,-0.123
13.54,-0.046,0.926,-0.12
13.55,-0.195,1.195,0.081
13.56,-0.06,0.611,0.151
13.57,-0.358,1.101,-0.04
13.58,-0.212,0.951,-0.163
13.59,-0.249,0.944,-0.045
13.6,-0.214,1.003,0.175
13.61,-0.063,0.754,0.104
13.62,-0.44,1.166,-0.117
13.63,-0.251,0.719,-0.152
13.64,-0.131,1.27,0.0
13.65,-0.027,0.845,0.147
13.66,-0.195,0.884,0.04
13.67,-0.371,1.009,-0.113
13.68,-0.17,0.999,-0.036
13.69,-0.131,1.217,0.037
13.7,-0.07,0.604,0.157
13.71,-0.343,1.133,-0.004
13.72,-0.238,0.876,-0.153
13.73,-0.307,1.056,-0.064
13.74,-0.111,0.905,0.141
13.75,-0.108,0.832,0.158
13.76,-0.398,1.104,-0.088
13.77,-0.226,0.733,-0.15
13.78,-0.284,1.23,0.049
13.79,0.004,0.725,0.132
13.8,-0.237,1.069,0.038
13.81,-0.37,0.819,-0.125
13.82,-0.247,1.181,-0.06
13.83,-0.138,0.947,0.086
13.84,-0.078,0.806,0.138
13.85,-0.294,1.048,0.002
13.86,-0.255,0.93,-0.156
13.87,-0.226,1.155,-0.069
13.88,-0.088,0.732,0.109
13.89,-0.12,1.091,0.15
13.9,-0.327,0.858,-0.122
13.91,-0.322,0.942,-0.087
13.92,-0.185,1.117,-0.004
13.93,-0.039,0.899,0.162
13.94,-0.219,1.028,0.057
13.95,-0.258,0.804,-0.158
13.96,-0.253,1.286,-0.052
13.97,-0.091,0.843,-0.008
13.98,-0.159,0.911,0.211
13.99,-0.234,0.948,-0.017
14.0,-0.31,1.019,-0.2
14.01,-0.293,1.067,-0.044
14.02,-0.083,0.793,0.119
14.03,-0.191,1.074,0.152
14.04,-0.308,0.795,-0.111
14.05,-0.37,1.098,-0.091
14.06,-0.131,0.927,-0.023
14.07,-0.158,0.957,0.166
14.08,-0.17,0.948,0.096
14.09,-0.332,0.882,-0.163
14.1,-0.208,1.25,-0.079
14.11,-0.097,0.888,0.004
14.12,-0.083,0.971,0.179
14.13,-0.165,0.796,-0.031
14.14,-0.387,1.176,-0.139
14.15,-0.155,1.02,-0.086
14.16,-0.119,0.87,0.076
14.17,-0.092,0.993,0.159
14.18,-0.352,0.864,-0.058
14.19,-0.375,1.173,-0.144
14.2,-0.15,0.816,-0.029
14.21,-0.154,1.091,0.176
14.22,-0.105,0.804,0.045
14.23,-0.365,0.982,-0.124
14.24,-0.255,1.084,-0.095
14.25,-0.133,0.961,0.055
14.26,-0.061,1.013,0.121
14.27,-0.186,0.694,-0.01
14.28,-0.37,1.19,-0.127
14.29,-0.148,0.961,-0.06
14.3,-0.104,1.044,0.075
14.31,-0.143,0.845,0.143
14.32,-0.305,0.9,-0.037
14.33,-0.342,1.202,-0.175
14.34,-0.14,0.831,-0.036
14.35,-0.181,1.14,0.177
14.36,-0.104,0.748,0.102
14.37,-0.382,1.114,-0.115
14.38,-0.257,0.904,-0.154
14.39,-0.191,1.004,0.026
14.4,-0.07,1.007,0.179
14.41,-0.119,0.77,0.021
14.42,-0.466,1.17,-0.114
14.43,-0.195,0.844,-0.055
14.44,-0.113,1.276,0.071
14.45,-0.06,0.703,0.103
14.46,-0.377,0.975,0.015
14.47,-0.266,1.055,-0.13
14.48,-0.257,0.921,-0.065
14.49,-0.145,1.068,0.124
14.5,-0.114,0.669,0.124
14.51,-0.4,1.208,-0.097
14.52,-0.235,0.861,-0.154
14.53,-0.173,1.078,-0.043
14.54,-0.109,0.892,0.187
14.55,-0.184,0.867,0.058
14.56,-0.351,1.117,-0.156
14.57,-0.248,0.79,-0.063
14.58,-0.094,1.235,0.087
14.59,-0.103,0.683,0.11
14.6,-0.366,1.115,-0.028
14.61,-0.275,0.843,-0.106
14.62,-0.098,1.173,-0.066
14.63,-0.052,0.857,-0.016
14.64,-0.112,0.822,0.093
14.65,-0.307,1.144,-0.086
14.66,-0.269,0.843,-0.119
14.67,-0.255,1.152,0.023
14.68,0.013,0.773,0.203
14.69,-0.179,1.064,-0.02
14.7,-0.42,0.85,-0.118
14.71,-0.232,1.037,-0.032
14.72,-0.12,1.116,0.079
14.73,-0.084,0.717,0.114
14.74,-0.301,1.141,0.006
14.75,-0.301,0.845,-0.154
14.76,-0.228,1.138,-0.045
14.77,-0.138,0.771,0.138
14.78,-0.126,1.002,0.149
14.79,-0.38,0.988,-0.116
14.8,-0.273,0.855,-0.113
14.81,-0.273,1.147,0.079
14.82,-0.02,0.819,0.17
14.83,-0.24,1.084,0.037
14.84,-0.323,0.778,-0.151
14.85,-0.285,1.184,-0.022
14.86,-0.059,0.985,0.03
14.87,-0.074,0.801,0.136
14.88,-0.294,1.015,0.0
14.89,-0.291,0.902,-0.118
14.9,-0.191,1.15,-0.069
14.91,-0.105,0.778,0.117
14.92,-0.153,1.078,0.16
14.93,-0.295,0.879,-0.091
14.94,-0.278,1.019,-0.149
14.95,-0.217,1.01,-0.018
14.96,-0.033,0.883,0.166
14.97,-0.199,1.064,0.079
14.98,-0.363,0.797,-0.145
14.99,-0.325,1.167,-0.035
15.0,-0.036,0.923,0.057
15.01,-0.089,0.983,0.145
15.02,-0.26,0.866,0.004
15.03,-0.312,1.017,-0.115
15.04,-0.138,1.123,-0.07
15.05,-0.145,0.803,0.139
15.06,-0.175,1.072,0.143
15.07,-0.31,0.835,-0.08
15.08,-0.34,1.158,-0.124
15.09,-0.156,0.849,-0.018
15.1,-0.091,0.991,0.163
15.11,-0.181,0.96,0.11
15.12,-0.343,0.871,-0.19
15.13,-0.227,1.117,-0.093
15.14,-0.08,0.949,0.052
15.15,-0.04,1.066,0.136
15.16,-0.21,0.77,-0.005
15.17,-0.356,1.111,-0.136
15.18,-0.17,1.056,-0.034
15.19,-0.148,0.906,0.098
15.2,-0.119,0.948,0.146
15.21,-0.311,0.882,-0.063
15.22,-0.369,1.201,-0.163
15.23,-0.157,0.784,-0.068
15.24,-0.13,1.138,0.192
15.25,-0.061,0.843,0.043
15.26,-0.385,0.979,-0.145
15.27,-0.287,1.06,-0.075
15.28,-0.021,1.002,-0.02
15.29,-0.108,1.002,0.141
15.3,-0.198,0.714,0.005
15.31,-0.373,1.222,-0.153
15.32,-0.112,0.923,-0.092
15.33,-0.129,1.002,0.07
15.34,-0.105,0.812,0.173
15.35,-0.348,0.939,-0.052
15.36,-0.324,1.163,-0.153
15.37,-0.147,0.828,-0.049
15.38,-0.141,1.107,0.134
15.39,-0.09,0.74,0.067
15.4,-0.412,1.17,-0.154
15.41,-0.231,0.781,-0.118
15.42,-0.165,1.241,0.084
15.43,-0.058,0.825,0.147
15.44,-0.249,0.856,0.012
15.45,-0.35,1.12,-0.15
15.46,-0.117,0.945,-0.096
15.47,-0.197,1.168,0.114
15.48,-0.093,0.629,0.12
15.49,-0.338,1.149,-0.033
15.5,-0.343,0.869,-0.165
15.51,-0.195,0.957,-0.036
15.52,-0.135,1.041,0.208
15.53,-0.044,0.825,0.056
15.54,-0.423,1.11,-0.161
15.55,-0.216,0.766,-0.085
15.56,-0.029,1.301,-0.03
15.57,-0.067,0.727,0.167
15.58,-0.23,0.949,0.032
15.59,-0.388,1.002,-0.121
15.6,-0.137,1.01,-0.063
15.61,-0.179,1.101,0.052
15.62,-0.055,0.625,0.131
15.63,-0.43,1.221,-0.003
15.64,-0.224,0.803,-0.176
15.65,-0.218,1.103,-0.051
15.66,-0.111,0.884,0.185
15.67,-0.115,0.957,0.119
15.68,-0.321,1.024,-0.137
15.69,-0.289,0.765,-0.109
15.7,-0.209,1.291,0.015
15.71,-0.05,0.733,0.12
15.72,-0.212,1.068,0.029
15.73,-0.347,0.916,-0.131
15.74,-0.206,1.101,-0.096
15.75,-0.146,0.971,0.044
15.76,-0.05,0.743,0.169
15.77,-0.341,1.128,-0.023
15.78,-0.326,0.818,-0.158
15.79,-0.284,1.137,-0.054
15.8,-0.049,0.783,0.105
15.81,-0.156,1.09,0.156
15.82,-0.342,0.934,-0.118
15.83,-0.317,0.839,-0.115
15.84,-0.203,1.147,0.039
15.85,-0.048,0.839,0.155
15.86,-0.193,1.079,0.054
15.87,-0.283,0.832,-0.138
15.88,-0.215,1.183,-0.076
15.89,-0.215,0.941,0.082
15.9,-0.024,0.878,0.159
15.91,-0.248,1.002,-0.01
15.92,-0.325,0.887,-0.142
15.93,-0.239,1.205,-0.016
15.94,-0.107,0.755,0.091
15.95,-0.148,0.999,0.15
15.96,-0.289,0.905,-0.078
15.97,-0.285,1.122,-0.167
15.98,-0.197,0.907,-0.036
15.99,-0.079,0.888,0.172
16.0,-0.212,1.077,0.097
16.01,-0.322,0.815,-0.155
16.02,-0.252,1.158,-0.106
16.03,-0.136,0.955,0.105
16.04,-0.067,0.965,0.092
16.05,-0.215,0.846,0.024
16.06,-0.365,1.051,-0.118
16.07,-0.166,1.146,-0.069
16.08,-0.145,0.809,0.056
16.09,-0.192,1.006,0.178
16.1,-0.271,0.828,-0.035
16.11,-0.376,1.189,-0.147
16.12,-0.159,0.791,-0.088
16.13,-0.198,1.02,0.201
16.14,-0.066,0.935,0.083
16.15,-0.364,0.908,-0.119
16.16,-0.312,1.042,-0.123
16.17,-0.111,0.944,0.042
16.18,-0.052,1.129,0.135
16.19,-0.183,0.727,0.046
16.2,-0.371,1.222,-0.136
16.21,-0.232,0.951,-0.021
16.22,-0.158,1.077,0.07
16.23,-0.069,0.729,0.14
16.24,-0.355,0.985,-0.044
16.25,-0.404,1.123,-0.097
16.26,-0.155,0.806,-0.055
16.27,-0.151,1.135,0.154
16.28,-0.108,0.748,0.112
16.29,-0.388,1.138,-0.116
16.3,-0.302,0.828,-0.138
16.31,-0.189,1.088,0.071
16.32,-0.014,1.002,0.131
16.33,-0.181,0.762,0.017
16.34,-0.421,1.146,-0.144
16.35,-0.146,0.891,-0.065
16.36,-0.112,1.216,0.022
16.37,-0.07,0.636,0.146
16.38,-0.315,1.012,-0.014
16.39,-0.365,1.045,-0.116
16.4,-0.195,0.927,-0.09
16.41,-0.149,1.042,0.121
16.42,-0.104,0.748,0.141
16.43,-0.355,1.184,-0.091
16.44,-0.309,0.718,-0.127
16.45,-0.238,1.098,0.011
16.46,-0.024,0.97,0.182
16.47,-0.173,0.9,0.034
16.48,-0.309,1.005,-0.123
16.49,-0.282,0.844,-0.051
16.5,-0.171,1.29,0.061
16.51,-0.056,0.653,0.152
16.52,-0.255,1.052,-0.017
16.53,-0.357,0.916,-0.137
16.54,-0.186,1.101,-0.074
16.55,-0.075,0.951,0.079
16.56,-0.067,0.715,0.121
16.57,-0.366,1.165,-0.023
16.58,-0.328,0.855,-0.128
16.59,-0.276,1.141,-0.072
16.6,-0.097,0.777,0.14
16.61,-0.158,1.057,0.14
16.62,-0.281,0.919,-0.128
16.63,-0.267,0.848,-0.147
16.64,-0.261,1.155,0.065
16.65,-0.005,0.826,0.172
16.66,-0.189,1.084,0.026
16.67,-0.341,0.764,-0.159
16.68,-0.197,1.236,-0.039
16.69,-0.125,0.938,-0.019
16.7,-0.085,0.802,0.136
16.71,-0.243,1.049,-0.005
16.72,-0.314,0.958,-0.144
16.73,-0.23,1.16,-0.038
16.74,-0.093,0.775,0.091
16.75,-0.162,1.047,0.152
16.76,-0.257,0.876,-0.084
16.77,-0.254,1.073,-0.156
16.78,-0.235,0.968,-0.059
16.79,-0.1,0.905,0.173
16.8,-0.177,1.082,0.087
16.81,-0.279,0.816,-0.171
16.82,-0.268,1.198,-0.112
16.83,-0.079,0.887,0.026
16.84,-0.051,0.996,0.14
16.85,-0.175,0.842,0.023
16.86,-0.353,1.03,-0.103
16.87,-0.229,1.133,-0.058
16.88,-0.08,0.848,0.076
16.89,-0.313,1.021,-0.141
16.9,-0.269,0.95,-0.143
16.91,-0.162,0.997,0.061
16.92,-0.058,1.1,0.101
16.93,-0.195,0.69,0.029
16.94,-0.427,1.175,-0.087
16.95,-0.023,0.896,-0.083
16.96,-0.274,1.208,0.129
16.97,-0.028,0.615,0.127
16.98,-0.337,1.087,-0.015
16.99,-0.256,0.973,-0.175
17.0,-0.166,0.915,-0.095
17.01,-0.18,1.039,0.159
17.02,-0.132,0.76,0.12
17.03,-0.344,1.193,-0.077
17.04,-0.205,0.793,-0.156
17.05,-0.271,1.184,0.016
17.06,-0.018,0.855,0.171
17.07,-0.179,0.965,0.032
17.08,-0.331,1.006,-0.141
17.09,-0.241,0.877,-0.064
17.1,-0.083,1.25,0.044
17.11,-0.08,0.68,0.136
17.12,-0.256,1.066,0.012
17.13,-0.341,0.866,-0.135
17.14,-0.18,1.1,-0.041
17.15,-0.111,0.95,0.067
17.16,-0.081,0.795,0.119
17.17,-0.326,1.148,-0.055
17.18,-0.234,0.824,-0.183
17.19,-0.229,1.105,-0.023
17.2,-0.076,0.795,0.168
17.21,-0.122,1.082,0.104
17.22,-0.347,0.9,-0.147
17.23,-0.29,0.905,-0.092
17.24,-0.277,1.094,0.074
17.25,-0.034,0.867,0.166
17.26,-0.287,1.083,0.029
17.27,-0.327,0.758,-0.158
17.28,-0.291,1.187,-0.036
17.29,0.0,0.952,0.037
17.3,-0.101,0.901,0.145
17.31,-0.271,0.977,-0.015
17.32,-0.318,0.897,-0.115
17.33,-0.205,1.12,-0.059
17.34,-0.116,0.783,0.095
17.35,-0.212,1.114,0.131
17.36,-0.308,0.86,-0.082
17.37,-0.293,1.066,-0.156
17.38,-0.183,0.925,-0.005
17.39,-0.124,0.907,0.191
17.4,-0.142,1.034,0.091
17.41,-0.317,0.827,-0.168
17.42,-0.301,1.134,-0.081
17.43,-0.054,0.913,0.02
17.44,-0.065,1.022,0.137
17.45,-0.209,0.822,-0.005
17.46,-0.381,1.027,-0.138
17.47,-0.205,1.103,-0.045
17.48,-0.094,0.883,0.102
17.49,-0.169,0.985,0.161
17.5,-0.278,0.844,-0.045
17.51,-0.28,1.206,-0.157
17.52,-0.173,0.83,-0.049
17.53,-0.111,0.98,0.157
17.54,-0.111,0.928,0.126
17.55,-0.347,0.958,-0.123
17.56,-0.266,1.052,-0.124
17.57,-0.128,0.907,0.04
17.58,-0.09,1.134,0.14
17.59,-0.152,0.713,-0.009
17.6,-0.367,1.124,-0.136
17.61,-0.215,1.023,-0.053
17.62,-0.086,1.014,0.05
17.63,-0.108,0.86,0.164
17.64,-0.247,0.84,-0.017
17.65,-0.349,1.253,-0.137
17.66,-0.231,0.85,-0.025
17.67,-0.177,1.096,0.105
17.68,-0.113,0.752,0.148
17.69,-0.311,1.059,-0.108
17.7,-0.31,0.943,-0.122
17.71,-0.156,0.9,-0.024
17.72,-0.083,1.097,0.164
17.73,-0.107,0.726,0.044
17.74,-0.38,1.133,-0.116
17.75,-0.219,0.871,-0.037
17.76,-0.182,1.223,0.023
17.77,-0.079,0.652,0.197
17.78,-0.31,1.056,-0.007
17.79,-0.331,0.97,-0.136
17.8,-0.168,0.988,-0.084
17.81,-0.122,1.068,0.102
17.82,-0.083,0.743,0.128
17.83,-0.39,1.16,-0.056
17.84,-0.24,0.74,-0.158
17.85,-0.229,1.169,-0.027
17.86,-0.119,0.862,0.156
17.87,-0.168,0.936,0.072
17.88,-0.337,1.009,-0.133
17.89,-0.219,0.811,-0.111
17.9,-0.154,1.244,0.034
17.91,0.041,0.719,0.138
17.92,-0.274,1.098,0.034
17.93,-0.326,0.83,-0.145
17.94,-0.255,1.128,-0.065
17.95,-0.093,0.996,0.08
17.96,-0.08,0.787,0.127
17.97,-0.285,1.076,-0.027
17.98,-0.33,0.871,-0.143
17.99,-0.205,1.166,-0.022
18.0,-0.087,0.789,0.106
18.01,-0.154,1.017,0.135
18.02,-0.34,0.974,-0.08
18.03,-0.293,0.941,-0.158
18.04,-0.223,1.044,-0.016
18.05,-0.057,0.865,0.158
18.06,-0.262,1.103,0.066
18.07,-0.293,0.767,-0.179
18.08,-0.217,1.19,-0.044
18.09,-0.038,0.963,-0.009
18.1,-0.115,0.892,0.176
18.11,-0.245,0.943,0.011
18.12,-0.321,0.945,-0.101
18.13,-0.147,1.16,-0.124
18.14,-0.123,0.799,0.103
18.15,-0.14,1.045,0.144
18.16,-0.288,0.87,-0.039
18.17,-0.387,1.125,-0.168
18.18,-0.205,0.87,-0.065
18.19,-0.116,0.936,0.162
18.2,-0.173,1.056,0.115
18.21,-0.344,0.82,-0.122
18.22,-0.325,1.073,-0.111
18.23,-0.168,0.925,0.041
18.24,-0.066,1.117,0.141
18.25,-0.162,0.778,0.044
18.26,-0.372,1.044,-0.119
18.27,-0.168,1.093,-0.079
18.28,-0.087,0.955,0.028
18.29,-0.124,0.989,0.141
18.3,-0.249,0.78,-0.016
18.31,-0.298,1.204,-0.172
18.32,-0.096,0.929,-0.073
18.33,-0.168,1.004,0.09
18.34,-0.118,0.789,0.161
18.35,-0.341,1.0,-0.039
18.36,-0.372,1.135,-0.166
18.37,-0.164,0.777,-0.038
18.38,-0.117,1.16,0.146
18.39,-0.181,0.758,0.102
18.4,-0.391,1.105,-0.128
18.41,-0.211,0.859,-0.134
18.42,-0.08,1.117,0.034
18.43,-0.044,0.953,0.112
18.44,-0.295,0.761,0.054
18.45,-0.414,1.148,-0.132
18.46,-0.054,0.913,-0.112
18.47,0.009,1.169,-0.07
18.48,-0.049,0.643,0.139
18.49,-0.285,1.072,0.004
18.5,-0.342,1.026,-0.179
18.51,-0.138,0.885,-0.098
18.52,-0.159,1.075,0.14
18.53,-0.123,0.764,0.139
18.54,-0.375,1.146,-0.105
18.55,-0.233,0.718,-0.139
18.56,-0.177,1.331,0.02
18.57,0.023,0.763,0.091
18.58,-0.255,0.976,0.045
18.59,-0.302,0.919,-0.111
18.6,-0.231,1.07,-0.046
18.61,-0.104,1.061,-0.001
18.62,-0.086,0.664,0.166
18.63,-0.306,1.12,-0.011
18.64,-0.314,0.869,-0.094
18.65,-0.202,1.194,-0.118
18.66,-0.149,0.778,0.087
18.67,-0.115,0.923,0.168
18.68,-0.254,1.064,-0.112
18.69,-0.371,0.818,-0.148
18.7,-0.189,1.063,-0.01
18.71,-0.116,0.863,0.185
18.72,-0.162,1.1,0.057
18.73,-0.312,0.801,-0.149
18.74,-0.21,1.068,-0.095
18.75,-0.23,1.092,0.095
18.76,-0.066,0.819,0.146
18.77,-0.253,1.014,0.018
18.78,-0.344,0.868,-0.089
18.79,-0.152,1.229,-0.093
18.8,-0.083,0.811,0.043
18.81,-0.172,0.98,0.145
18.82,-0.319,0.909,-0.0
18.83,-0.295,1.031,-0.135
18.84,-0.203,0.995,-0.056
18.85,-0.156,0.851,0.149
18.86,-0.173,1.1,0.146
18.87,-0.286,0.805,-0.122
18.88,-0.322,1.11,-0.112
18.89,-0.213,0.889,0.019
18.9,-0.045,1.003,0.172
18.91,-0.144,0.937,0.048
18.92,-0.357,0.91,-0.138
18.93,-0.266,1.149,-0.064
18.94,-0.022,0.918,0.004
18.95,-0.12,1.072,0.146
18.96,-0.258,0.745,0.013
18.97,-0.337,1.119,-0.152
18.98,-0.151,1.013,-0.028
18.99,-0.077,0.924,0.154
19.0,-0.151,0.911,0.17
19.01,-0.316,0.903,-0.04
19.02,-0.304,1.226,-0.155
19.03,-0.212,0.776,-0.033
19.04,-0.029,1.066,0.063
19.05,-0.153,0.832,0.113
19.06,-0.376,1.042,-0.143
19.07,-0.279,0.931,-0.154
19.08,-0.171,0.965,0.091
19.09,-0.029,1.109,0.161
19.1,-0.18,0.712,-0.006
19.11,-0.38,1.163,-0.168
19.12,-0.231,0.944,-0.035
19.13,-0.075,1.146,0.059
19.14,-0.132,0.749,0.147
19.15,-0.325,0.928,-0.012
19.16,-0.298,1.148,-0.155
19.17,-0.145,0.83,-0.042
19.18,-0.159,1.105,0.089
19.19,-0.137,0.664,0.118
19.2,-0.311,1.201,-0.11
19.21,-0.247,0.886,-0.151
19.22,-0.23,1.005,-0.013
19.23,-0.047,0.945,0.157
19.24,-0.16,0.792,0.052
19.25,-0.364,1.135,-0.173
19.26,-0.246,0.831,-0.039
19.27,-0.111,1.238,0.057
19.28,-0.021,0.671,0.134
19.29,-0.334,0.985,0.008
19.3,-0.307,0.978,-0.128
19.31,-0.156,0.994,-0.072
19.32,-0.169,1.066,0.107
19.33,-0.076,0.652,0.123
19.34,-0.322,1.2,-0.061
19.35,-0.292,0.802,-0.092
19.36,-0.26,1.199,-0.001
19.37,-0.086,0.795,0.207
19.38,-0.161,1.045,0.039
19.39,-0.323,0.869,-0.166
19.4,-0.262,0.958,-0.048
19.41,-0.052,1.134,0.057
19.42,-0.059,0.771,0.168
19.43,-0.269,1.085,0.036
19.44,-0.341,0.815,-0.143
19.45,-0.107,1.228,-0.061
19.46,-0.122,0.849,0.064
19.47,-0.132,0.875,0.147
19.48,-0.253,1.045,-0.068
19.49,-0.26,0.932,-0.199
19.5,-0.233,1.044,-0.034
19.51,-0.03,0.779,0.177
19.52,-0.214,1.121,0.122
19.53,-0.285,0.846,-0.161
19.54,-0.256,1.032,-0.126
19.55,-0.24,1.004,0.053
19.56,-0.036,0.911,0.104
19.57,-0.198,0.995,0.013
19.58,-0.349,0.824,-0.118
19.59,-0.19,1.265,-0.007
19.6,-0.059,0.868,0.026
19.61,-0.06,0.952,0.134
19.62,-0.293,0.893,-0.034
19.63,-0.283,1.114,-0.156
19.64,-0.166,1.003,-0.11
19.65,-0.151,0.841,0.13
19.66,-0.176,1.087,0.126
19.67,-0.332,0.822,-0.081
19.68,-0.268,1.158,-0.126
19.69,-0.195,0.907,0.049
19.7,-0.101,1.027,0.172
19.71,-0.121,0.91,0.042
19.72,-0.363,0.934,-0.154
19.73,-0.297,1.171,-0.044
19.74,-0.038,0.872,-0.039
19.75,-0.153,1.02,0.154
19.76,-0.179,0.779,-0.009
19.77,-0.373,1.176,-0.141
19.78,-0.215,0.935,-0.071
19.79,-0.143,0.982,0.126
19.8,-0.102,0.877,0.137
19.81,-0.33,0.895,-0.065
19.82,-0.288,1.204,-0.177
19.83,-0.115,0.784,-0.039
19.84,-0.155,1.114,0.163
19.85,-0.134,0.793,0.111
19.86,-0.39,1.067,-0.099
19.87,-0.221,0.965,-0.114
19.88,-0.154,1.035,0.054
19.89,-0.077,0.969,0.14
19.9,-0.208,0.763,0.022
19.91,-0.402,1.229,-0.135
19.92,-0.172,0.905,-0.081
19.93,-0.147,1.137,0.022
19.94,-0.084,0.679,0.15
19.95,-0.32,0.967,-0.05
19.96,-0.331,1.138,-0.137
19.97,-0.176,0.855,-0.064
19.98,-0.109,1.105,0.132
19.99,-0.137,0.746,0.119
20.0,-0.392,1.15,-0.12
20.01,-0.248,0.838,-0.1
20.02,-0.167,1.11,-0.017
20.03,-0.077,0.959,0.19
20.04,-0.223,0.816,0.066
20.05,-0.376,1.102,-0.141
20.06,-0.201,0.85,-0.056
20.07,-0.137,1.272,0.039
20.08,-0.054,0.657,0.136
20.09,-0.341,1.036,-0.0
20.1,-0.253,0.973,-0.138
20.11,-0.202,1.009,-0.067
20.12,-0.135,0.986,0.088
20.13,-0.119,0.711,0.203
20.14,-0.33,1.195,-0.118
20.15,-0.314,0.738,-0.136
20.16,-0.245,1.226,0.045
20.17,0.014,0.836,0.116
20.18,-0.229,1.026,0.031
20.19,-0.333,0.896,-0.132
20.2,-0.149,1.088,-0.103
20.21,-0.157,1.037,0.054
20.22,-0.037,0.731,0.164
20.23,-0.387,1.132,-0.008
20.24,-0.323,0.793,-0.152
20.25,-0.255,1.167,-0.046
20.26,-0.098,0.831,0.107
20.27,-0.137,0.954,0.144
20.28,-0.279,0.976,-0.101
20.29,-0.251,0.89,-0.132
20.3,-0.236,1.122,0.026
20.31,-0.055,0.826,0.159
20.32,-0.247,1.106,0.087
20.33,-0.343,0.802,-0.143
20.34,-0.242,1.144,-0.102
20.35,-0.116,0.978,0.048
20.36,-0.08,0.867,0.184
20.37,-0.245,0.987,0.001
20.38,-0.28,0.928,-0.122
20.39,-0.187,1.201,-0.093
20.4,-0.13,0.75,0.106
20.41,-0.134,1.026,0.171
20.42,-0.242,0.911,-0.054
20.43,-0.339,1.03,-0.146
20.44,-0.172,0.929,-0.039
20.45,-0.138,0.914,0.21
20.46,-0.151,1.051,0.073
20.47,-0.362,0.831,-0.095
20.48,-0.247,1.136,-0.15
20.49,-0.124,0.923,0.085
20.5,-0.001,1.029,0.125
20.51,-0.234,0.878,0.023
20.52,-0.402,0.971,-0.109
20.53,-0.229,1.172,-0.023
20.54,-0.137,0.853,0.077
20.55,-0.128,0.965,0.131
20.56,-0.307,0.853,-0.013
20.57,-0.301,1.221,-0.184
20.58,-0.181,0.887,-0.029
20.59,-0.118,0.932,0.119
20.6,-0.14,0.95,0.146
20.61,-0.325,0.884,-0.124
20.62,-0.323,1.116,-0.129
20.63,-0.14,0.9,0.037
20.64,-0.081,1.106,0.152
20.65,-0.173,0.728,0.033
20.66,-0.373,1.099,-0.129
20.67,-0.193,1.066,-0.051
20.68,-0.144,0.982,0.004
20.69,-0.095,0.86,0.169
20.7,-0.244,0.799,-0.02
20.71,-0.305,1.263,-0.141
20.72,-0.121,0.863,-0.1
20.73,-0.166,1.129,0.137
20.74,-0.127,0.762,0.119
20.75,-0.361,0.992,-0.068
20.76,-0.392,1.058,-0.129
20.77,-0.119,0.899,-0.027
20.78,-0.194,1.103,0.175
20.79,-0.132,0.717,0.099
20.8,-0.387,1.164,-0.159
20.81,-0.273,0.802,-0.099
20.82,-0.128,1.161,0.048
20.83,-0.131,0.937,0.18
20.84,-0.241,0.828,-0.006
20.85,-0.344,1.115,-0.147
20.86,-0.145,0.91,-0.036
20.87,-0.111,1.207,0.06
20.88,-0.062,0.664,0.132
20.89,-0.381,1.08,-0.036
20.9,-0.221,0.934,-0.171
20.91,-0.173,1.014,-0.071
20.92,-0.215,1.023,0.172
20.93,-0.095,0.736,0.103
20.94,-0.382,1.167,-0.132
20.95,-0.22,0.796,-0.101
20.96,-0.149,1.28,0.066
20.97,-0.083,0.661,0.132
20.98,-0.263,1.084,0.02
20.99,-0.361,0.915,-0.128
21.0,-0.17,1.06,-0.086
21.01,-0.188,0.972,0.1
21.02,-0.062,0.785,0.131
21.03,-0.381,1.148,-0.049
21.04,-0.237,0.74,-0.163
21.05,-0.217,1.178,-0.004
21.06,-0.069,0.846,0.142
21.07,-0.156,0.983,0.073
21.08,-0.338,0.941,-0.128
21.09,-0.204,0.921,-0.126
21.1,-0.201,1.215,0.128
21.11,-0.031,0.705,0.125
21.12,-0.237,1.082,0.042
21.13,-0.33,0.836,-0.097
21.14,-0.184,1.204,-0.088
21.15,-0.139,0.88,0.076
21.16,-0.09,0.88,0.13
21.17,-0.296,1.022,-0.044
21.18,-0.331,0.903,-0.152
21.19,-0.2,1.105,-0.021
21.2,-0.178,0.787,0.143
21.21,-0.136,1.085,0.129
21.22,-0.26,0.837,-0.138
21.23,-0.303,1.006,-0.109
21.24,-0.217,1.053,0.064
21.25,-0.012,0.925,0.161
21.26,-0.203,1.018,0.018
21.27,-0.32,0.792,-0.171
21.28,-0.227,1.258,-0.039
21.29,-0.101,0.871,0.038
21.3,-0.106,0.92,0.155
21.31,-0.305,0.917,-0.011
21.32,-0.254,1.032,-0.151
21.33,-0.18,1.034,-0.06
21.34,-0.14,0.79,0.078
21.35,-0.158,1.091,0.17
21.36,-0.274,0.856,-0.111
21.37,-0.33,1.116,-0.134
21.38,-0.153,0.868,0.016
21.39,-0.094,1.03,0.178
21.4,-0.163,0.929,0.047
21.41,-0.387,0.917,-0.145
21.42,-0.186,1.167,-0.053
21.43,-0.015,0.903,-0.027
21.44,-0.131,0.977,0.161
21.45,-0.242,0.772,-0.04
21.46,-0.309,1.212,-0.14
21.47,-0.141,0.98,-0.06
21.48,-0.125,0.926,0.103
21.49,-0.103,0.897,0.151
21.5,-0.302,0.902,-0.081
21.51,-0.346,1.171,-0.14
21.52,-0.248,0.797,-0.03
21.53,-0.091,1.097,0.192
21.54,-0.169,0.821,0.058
21.55,-0.406,1.002,-0.131
21.56,-0.165,1.069,-0.095
21.57,-0.092,1.0,0.011
21.58,-0.074,0.932,0.159
21.59,-0.2,0.75,0.004
21.6,-0.373,1.244,-0.163
21.61,-0.125,0.901,-0.097
21.62,-0.113,1.066,0.059
21.63,-0.117,0.764,0.123
21.64,-0.35,0.978,-0.024
21.65,-0.294,1.105,-0.13
21.66,-0.174,0.842,-0.031
21.67,-0.154,1.091,0.151
21.68,-0.073,0.717,0.069
21.69,-0.422,1.141,-0.136
21.7,-0.175,0.823,-0.138
21.71,-0.198,1.169,0.099
21.72,-0.046,0.997,0.112
21.73,-0.195,0.757,0.011
21.74,-0.357,1.152,-0.155
21.75,-0.102,0.95,-0.037
21.76,-0.38,1.14,0.237
21.77,-0.043,0.631,0.122
21.78,-0.39,1.18,-0.04
21.79,-0.257,0.858,-0.209
21.8,-0.187,1.028,-0.032
21.81,-0.041,0.929,0.145
21.82,-0.157,0.885,0.127
21.83,-0.404,1.077,-0.114
21.84,-0.233,0.752,-0.12
21.85,-0.22,1.309,0.091
21.86,-0.037,0.704,0.12
21.87,-0.248,1.026,0.032
21.88,-0.308,0.929,-0.15
21.89,-0.253,1.051,-0.036
21.9,-0.095,1.033,0.05
21.91,-0.047,0.667,0.122
21.92,-0.321,1.16,-0.026
21.93,-0.259,0.854,-0.158
21.94,-0.26,1.149,-0.031
21.95,-0.093,0.825,0.13
21.96,-0.133,0.968,0.11
21.97,-0.393,1.0,-0.118
21.98,-0.256,0.795,-0.104
21.99,-0.206,1.183,0.021
22.0,-0.014,0.828,0.159
22.01,-0.2,1.093,0.034
22.02,-0.341,0.8,-0.162
22.03,-0.213,1.175,-0.081
22.04,-0.131,0.965,0.035
22.05,-0.084,0.792,0.16
22.06,-0.289,1.068,-0.02
22.07,-0.319,0.863,-0.158
22.08,-0.26,1.175,-0.054
22.09,-0.04,0.759,0.072
22.1,-0.17,1.049,0.186
22.11,-0.294,0.913,-0.106
22.12,-0.291,0.987,-0.132
22.13,-0.181,1.001,-0.02
22.14,-0.098,0.863,0.16
22.15,-0.292,1.112,0.077
22.16,-0.357,0.791,-0.133
22.17,-0.211,1.166,-0.106
22.18,-0.186,0.968,0.148
22.19,-0.065,0.94,0.145
22.2,-0.165,0.899,-0.027
22.21,-0.361,1.01,-0.083
22.22,-0.153,1.176,-0.077
22.23,-0.178,0.774,0.091
22.24,-0.122,0.991,0.124
22.25,-0.319,0.873,-0.047
22.26,-0.331,1.164,-0.167
22.27,-0.198,0.853,-0.032
22.28,-0.099,0.943,0.141
22.29,-0.183,0.975,0.124
22.3,-0.371,0.845,-0.117
22.31,-0.303,1.134,-0.14
22.32,-0.079,0.906,0.054
22.33,-0.094,1.086,0.13
22.34,-0.215,0.788,0.009
22.35,-0.376,1.1,-0.113
22.36,-0.09,1.119,-0.049
22.37,-0.152,0.927,0.078
22.38,-0.136,0.896,0.124
22.39,-0.285,0.881,-0.017
22.4,-0.352,1.266,-0.181
22.41,-0.207,0.769,-0.075
22.42,-0.151,1.049,0.142
22.43,-0.129,0.884,0.144
22.44,-0.38,0.976,-0.106
22.45,-0.283,0.99,-0.123
22.46,-0.202,0.956,0.057
22.47,-0.02,1.085,0.115
22.48,-0.164,0.701,0.03
22.49,-0.425,1.158,-0.137
22.5,-0.229,0.988,-0.025
22.51,-0.101,1.109,0.014
22.52,-0.122,0.773,0.148
22.53,-0.288,0.869,0.012
22.54,-0.311,1.189,-0.142
22.55,-0.223,0.802,-0.076
22.56,-0.175,1.068,0.141
22.57,-0.099,0.753,0.134
22.58,-0.41,1.155,-0.126
22.59,-0.256,0.743,-0.124
22.6,-0.154,1.179,0.029
22.61,-0.019,0.976,0.11
22.62,-0.224,0.792,0.041
22.63,-0.335,1.088,-0.131
22.64,-0.214,0.926,-0.03
22.65,-0.133,1.256,0.01
22.66,-0.027,0.619,0.163
22.67,-0.345,1.074,-0.031
22.68,-0.297,0.934,-0.114
22.69,-0.181,1.037,-0.094
22.7,-0.144,0.967,0.091
22.71,-0.083,0.733,0.127
22.72,-0.364,1.183,-0.067
22.73,-0.229,0.738,-0.183
22.74,-0.236,1.136,-0.03
22.75,-0.102,0.837,0.184
22.76,-0.144,1.015,0.085
22.77,-0.315,0.968,-0.152
22.78,-0.267,0.857,-0.11
22.79,-0.173,1.195,0.061
22.8,0.012,0.752,0.132
22.81,-0.299,1.062,0.03
22.82,-0.326,0.798,-0.111
22.83,-0.147,1.235,-0.044
22.84,-0.118,0.934,-0.011
22.85,-0.116,0.773,0.163
22.86,-0.254,1.067,-0.032
22.87,-0.272,0.926,-0.139
22.88,-0.25,1.09,-0.069
22.89,-0.102,0.757,0.117
22.9,-0.182,1.136,0.145
22.91,-0.34,0.873,-0.113
22.92,-0.303,0.957,-0.151
22.93,-0.22,1.018,0.01
22.94,-0.064,0.933,0.176
22.95,-0.171,1.058,0.027
22.96,-0.362,0.791,-0.087
22.97,-0.233,1.229,-0.08
22.98,-0.052,0.937,0.046
22.99,-0.104,0.977,0.157
23.0,-0.211,0.876,-0.026
23.01,-0.327,1.003,-0.087
23.02,-0.144,1.137,-0.083
23.03,-0.115,0.789,0.087
23.04,-0.157,1.016,0.141
23.05,-0.294,0.856,-0.014
23.06,-0.363,1.198,-0.164
23.07,-0.141,0.813,-0.058
23.08,-0.137,1.01,0.152
23.09,-0.124,0.953,0.129
23.1,-0.335,0.896,-0.139
23.11,-0.272,1.09,-0.09
23.12,-0.139,0.933,0.041
23.13,-0.077,1.067,0.144
23.14,-0.192,0.755,0.049
23.15,-0.336,1.103,-0.118
23.16,-0.216,1.094,-0.038
23.17,-0.12,0.951,0.034
23.18,-0.099,0.873,0.159
23.19,-0.283,0.821,0.004
23.2,-0.378,1.26,-0.141
23.21,-0.151,0.854,-0.099
23.22,-0.151,1.083,0.122
23.23,-0.095,0.781,0.104
23.24,-0.333,1.017,-0.05
23.25,-0.282,1.025,-0.157
23.26,-0.219,0.877,-0.012
23.27,-0.127,1.103,0.176
23.28,-0.101,0.753,0.073
23.29,-0.37,1.126,-0.128
23.3,-0.27,0.816,-0.116
23.31,-0.183,1.187,0.06
23.32,-0.026,0.914,0.15
23.33,-0.253,0.812,-0.007
23.34,-0.367,1.107,-0.133
23.35,-0.119,0.94,-0.06
23.36,-0.159,1.176,0.007
23.37,-0.112,0.638,0.16
23.38,-0.32,1.199,-0.045
23.39,-0.314,0.813,-0.197
23.4,-0.205,1.059,-0.045
23.41,-0.069,0.911,0.139
23.42,-0.126,0.908,0.1
23.43,-0.363,1.041,-0.133
23.44,-0.262,0.74,-0.142
23.45,-0.147,1.277,0.067
23.46,0.046,0.798,0.075
23.47,-0.251,1.048,0.063
23.48,-0.3,0.855,-0.16
23.49,-0.231,1.13,-0.071
23.5,-0.098,1.036,0.033
23.51,-0.084,0.751,0.156
23.52,-0.316,1.066,-0.024
23.53,-0.279,0.833,-0.112
23.54,-0.233,1.185,-0.071
23.55,-0.084,0.768,0.095
23.56,-0.138,1.021,0.131
23.57,-0.299,0.939,-0.067
23.58,-0.273,0.935,-0.138
23.59,-0.19,1.058,-0.018
23.6,-0.055,0.845,0.18
23.61,-0.2,1.14,0.063
23.62,-0.281,0.777,-0.143
23.63,-0.254,1.08,-0.108
23.64,-0.114,0.974,0.063
23.65,-0.075,0.957,0.119
23.66,-0.229,0.941,0.038
23.67,-0.346,0.865,-0.141
23.68,-0.238,1.235,-0.022
23.69,-0.101,0.798,0.054
23.7,-0.117,1.034,0.125
23.71,-0.262,0.864,-0.022
23.72,-0.395,1.131,-0.17
23.73,-0.149,0.915,-0.065
23.74,-0.144,0.926,0.127
23.75,-0.147,1.057,0.143
23.76,-0.247,0.833,-0.113
23.77,-0.318,1.108,-0.159
23.78,-0.164,0.879,0.052
23.79,-0.042,1.148,0.147
23.8,-0.122,0.813,0.01
23.81,-0.442,0.988,-0.107
23.82,-0.166,1.132,-0.076
23.83,-0.067,1.002,0.038
23.84,-0.101,0.933,0.141
23.85,-0.242,0.786,0.025
23.86,-0.375,1.299,-0.166
23.87,-0.203,0.898,-0.095
23.88,-0.113,0.998,0.051
23.89,-0.095,0.875,0.151
23.9,-0.32,0.956,-0.062
23.91,-0.437,1.111,-0.126
23.92,-0.23,0.799,0.013
23.93,-0.132,1.158,0.181
23.94,-0.078,0.732,0.072
23.95,-0.395,1.084,-0.132
23.96,-0.272,0.86,-0.101
23.97,-0.144,1.082,0.075
23.98,-0.07,0.981,0.137
23.99,-0.211,0.735,0.032
24.0,-0.374,1.187,-0.143
24.01,-0.142,0.917,-0.051
24.02,-0.151,1.144,0.008
24.03,-0.131,0.677,0.193
24.04,-0.282,1.008,-0.015
24.05,-0.371,1.034,-0.14
24.06,-0.161,0.876,-0.091
24.07,-0.093,1.102,0.104
24.08,-0.072,0.691,0.15
24.09,-0.363,1.183,-0.116
24.1,-0.288,0.764,-0.111
24.11,-0.17,1.123,-0.024
24.12,-0.085,0.983,0.181
24.13,-0.175,0.852,0.038
24.14,-0.349,1.088,-0.113
24.15,-0.243,0.836,-0.086
24.16,-0.133,1.272,0.071
24.17,-0.036,0.708,0.162
24.18,-0.289,1.126,-0.016
24.19,-0.274,0.832,-0.137
24.2,-0.231,1.147,-0.1
24.21,-0.12,0.872,0.083
24.22,-0.103,0.889,0.117
24.23,-0.349,1.046,-0.053
24.24,-0.264,0.822,-0.164
24.25,-0.207,1.121,-0.027
24.26,-0.071,0.793,0.167
24.27,-0.163,1.126,0.097
24.28,-0.281,0.856,-0.132
24.29,-0.285,1.021,-0.097
24.3,-0.153,1.017,0.01
24.31,-0.037,0.919,0.185
24.32,-0.261,1.052,0.028
24.33,-0.379,0.766,-0.143
24.34,-0.2,1.237,-0.046
24.35,-0.016,0.9,0.012
24.36,-0.109,0.942,0.125
24.37,-0.295,0.903,-0.007
24.38,-0.284,1.017,-0.157
24.39,-0.237,1.029,-0.049
24.4,-0.125,0.82,0.119
24.41,-0.188,1.144,0.162
24.42,-0.228,0.798,-0.106
24.43,-0.291,1.126,-0.129
24.44,-0.223,0.877,0.009
24.45,-0.052,0.97,0.115
24.46,-0.175,0.958,0.085
24.47,-0.351,0.907,-0.098
24.48,-0.293,1.148,-0.088
24.49,-0.102,0.905,0.042
24.5,-0.088,1.054,0.109
24.51,-0.226,0.772,0.001
24.52,-0.33,1.114,-0.12
24.53,-0.115,1.052,-0.073
24.54,-0.025,0.937,0.066
24.55,-0.154,0.91,0.152
24.56,-0.333,0.877,-0.018
24.57,-0.286,1.241,-0.184
24.58,-0.242,0.788,-0.011
24.59,-0.116,1.078,0.149
24.6,-0.153,0.833,0.155
24.61,-0.342,1.005,-0.147
24.62,-0.264,0.987,-0.112
24.63,-0.255,0.952,0.052
24.64,-0.062,1.117,0.162
24.65,-0.211,0.731,0.035
24.66,-0.425,1.158,-0.15
24.67,-0.16,0.949,-0.055
24.68,-0.11,1.199,0.054
24.69,-0.103,0.74,0.143
24.7,-0.313,0.898,-0.004
24.71,-0.294,1.143,-0.115
24.72,-0.167,0.836,-0.05
24.73,-0.152,1.13,0.113
24.74,-0.102,0.732,0.144
24.75,-0.367,1.122,-0.083
24.76,-0.25,0.828,-0.199
24.77,-0.243,1.028,0.026
24.78,-0.088,1.039,0.187
24.79,-0.127,0.759,0.036
24.8,-0.333,1.135,-0.146
24.81,-0.203,0.855,-0.078
24.82,-0.099,1.236,0.029
24.83,-0.043,0.717,0.162
24.84,-0.303,0.957,0.003
24.85,-0.383,0.993,-0.128
24.86,-0.127,0.987,-0.077
24.87,-0.129,1.129,0.083
24.88,-0.106,0.657,0.14
24.89,-0.37,1.173,-0.049
24.9,-0.206,0.847,-0.139
24.91,-0.221,1.093,-0.06
24.92,-0.087,0.84,0.153
24.93,-0.158,0.943,0.117
24.94,-0.379,1.068,-0.125
24.95,-0.292,0.773,-0.111
24.96,-0.17,1.255,0.085
24.97,-0.088,0.741,0.187
24.98,-0.314,1.035,0.054
24.99,-0.306,0.838,-0.154
25.0,-0.147,1.249,-0.079
25.01,-0.161,0.853,0.072
25.02,-0.108,0.854,0.155
25.03,-0.323,1.022,-0.072
25.04,-0.256,0.909,-0.149
25.05,-0.262,1.073,-0.059
25.06,-0.059,0.706,0.13
25.07,-0.128,1.167,0.13
25.08,-0.269,0.86,-0.154
25.09,-0.335,0.988,-0.106
25.1,-0.148,1.01,0.014
25.11,-0.049,0.976,0.15
25.12,-0.262,0.969,0.021
25.13,-0.395,0.789,-0.121
25.14,-0.147,1.239,-0.066
25.15,-0.026,0.909,0.065
25.16,-0.152,0.928,0.119
25.17,-0.198,0.872,-0.021
25.18,-0.319,1.101,-0.119
25.19,-0.054,1.07,-0.1
25.2,-0.12,0.796,0.102
25.21,-0.134,1.031,0.112
25.22,-0.293,0.891,-0.092
25.23,-0.037,0.884,0.032
25.24,-0.155,0.975,0.149
25.25,-0.248,0.811,-0.012
25.26,-0.352,1.189,-0.159
25.27,-0.227,0.958,-0.001
25.28,-0.164,0.906,0.085
25.29,-0.088,0.931,0.124
25.3,-0.345,0.877,-0.081
25.31,-0.281,1.139,-0.163
25.32,-0.147,0.822,0.007
25.33,-0.141,1.119,0.166
25.34,-0.179,0.798,0.077
25.35,-0.411,1.038,-0.139
25.36,-0.205,1.038,-0.094
25.37,-0.076,1.008,0.029
25.38,-0.096,0.971,0.133
25.39,-0.225,0.728,-0.04
25.4,-0.395,1.223,-0.122
25.41,-0.102,0.873,-0.044
25.42,-0.156,1.057,0.08
25.43,-0.147,0.806,0.159
25.44,-0.348,0.976,-0.084
25.45,-0.296,1.097,-0.151
25.46,-0.21,0.844,-0.002
25.47,-0.125,1.12,0.167
25.48,-0.141,0.75,0.089
25.49,-0.388,1.118,-0.146
25.5,-0.278,0.915,-0.074
25.51,-0.146,1.114,0.063
25.52,-0.058,0.893,0.127
25.53,-0.262,0.779,-0.002
25.54,-0.363,1.165,-0.137
25.55,-0.118,0.939,-0.067
25.56,-0.163,1.152,0.095
25.57,-0.136,0.663,0.156
25.58,-0.337,1.064,-0.055
25.59,-0.254,1.009,-0.137
25.6,-0.107,0.933,-0.111
25.61,-0.103,1.003,0.145
25.62,-0.167,0.763,0.116
25.63,-0.378,1.179,-0.148
25.64,-0.285,0.779,-0.114
25.65,-0.174,1.171,0.037
25.66,-0.009,0.857,0.151
25.67,-0.226,0.904,-0.003
25.68,-0.336,1.044,-0.17
25.69,-0.192,0.933,-0.041
25.7,-0.093,1.223,0.079
25.71,-0.12,0.641,0.126
25.72,-0.355,1.134,-0.056
25.73,-0.198,0.858,-0.153
25.74,-0.229,1.15,0.002
25.75,-0.268,0.784,0.294
25.76,-0.114,0.998,0.112
25.77,-0.347,1.002,-0.165
25.78,-0.226,0.838,-0.141
25.79,-0.222,1.186,0.065
25.8,-0.043,0.78,0.141
25.81,-0.363,1.076,0.011
25.82,-0.354,0.756,-0.14
25.83,-0.121,1.198,-0.028
25.84,-0.116,0.935,0.069
25.85,-0.131,0.77,0.119
25.86,-0.288,1.077,-0.062
25.87,-0.226,0.887,-0.15
25.88,-0.231,1.119,-0.056
25.89,-0.127,0.764,0.187
25.9,-0.149,1.109,0.099
25.91,-0.362,0.874,-0.145
25.92,-0.252,0.989,-0.093
25.93,-0.197,1.117,0.09
25.94,-0.027,0.751,0.143
25.95,-0.252,1.082,-0.006
25.96,-0.405,0.821,-0.192
25.97,-0.206,1.189,-0.052
25.98,-0.078,0.827,0.109
25.99,-0.13,0.948,0.136
26.0,-0.318,0.939,-0.079
26.01,-0.302,0.947,-0.091
26.02,-0.196,1.077,-0.021
26.03,-0.069,0.755,0.127
26.04,-0.165,1.138,0.101
26.05,-0.275,0.833,-0.183
26.06,-0.274,1.118,-0.095
26.07,-0.147,0.951,0.091
26.08,-0.06,0.918,0.156
26.09,-0.246,0.966,-0.015
26.1,-0.361,0.891,-0.147
26.11,-0.204,1.203,-0.014
26.12,-0.068,0.798,0.068
26.13,-0.123,1.022,0.115
26.14,-0.296,0.886,-0.088
26.15,-0.274,1.064,-0.159
26.16,-0.16,0.939,-0.009
26.17,-0.051,0.868,0.111
26.18,-0.178,1.061,0.09
26.19,-0.326,0.804,-0.169
26.2,-0.24,1.161,-0.116
26.21,-0.095,0.908,0.079
26.22,-0.006,0.962,0.101
26.23,-0.262,0.878,0.028
26.24,-0.343,1.008,-0.178
26.25,-0.095,1.125,-0.071
26.26,-0.404,0.797,0.193
26.27,-0.091,1.039,0.114
26.28,-0.323,0.818,-0.092
26.29,-0.311,1.162,-0.21
26.3,-0.154,0.859,-0.035
26.31,-0.07,1.003,0.145
26.32,-0.242,0.92,0.083
26.33,-0.31,0.925,-0.111
26.34,-0.275,1.229,-0.096
26.35,-0.079,0.865,0.063
26.36,-0.126,0.985,0.173
26.37,-0.237,0.793,-0.026
26.38,-0.312,1.189,-0.214
26.39,-0.138,0.971,-0.086
26.4,-0.138,0.918,0.109
26.41,-0.16,0.955,0.156
26.42,-0.318,0.873,-0.074
26.43,-0.324,1.14,-0.126
26.44,-0.174,0.867,0.048
26.45,-0.112,1.14,0.174
26.46,-0.129,0.792,0.03
26.47,-0.36,1.029,-0.154
26.48,-0.178,1.115,-0.091
26.49,-0.132,0.958,0.039
26.5,-0.081,0.948,0.14
26.51,-0.255,0.798,0.003
26.52,-0.42,1.227,-0.126
26.53,-0.134,0.82,-0.049
26.54,-0.139,1.136,0.119
26.55,-0.133,0.762,0.115
26.56,-0.362,1.075,-0.13
26.57,-0.258,0.948,-0.123
26.58,-0.151,0.979,0.016
26.59,-0.149,1.019,0.204
26.6,-0.211,0.701,0.035
26.61,-0.456,1.169,-0.168
26.62,-0.177,0.886,-0.054
26.63,-0.051,1.199,0.044
26.64,-0.11,0.715,0.144
26.65,-0.3,0.943,-0.054
26.66,-0.32,1.12,-0.131
26.67,-0.149,0.891,-0.043
26.68,-0.153,1.112,0.118
26.69,-0.132,0.701,0.155
26.7,-0.406,1.185,-0.124
26.71,-0.19,0.842,-0.154
26.72,-0.23,1.116,0.074
26.73,-0.025,0.899,0.141
26.74,-0.162,0.803,0.005
26.75,-0.382,1.168,-0.157
26.76,-0.127,0.871,-0.082
26.77,-0.175,1.165,0.079
26.78,-0.069,0.669,0.154
26.79,-0.308,1.072,-0.031
26.8,-0.341,0.927,-0.166
26.81,-0.181,0.946,-0.038
26.82,-0.153,1.103,0.192
26.83,-0.077,0.729,0.069
26.84,-0.385,1.143,-0.115
26.85,-0.192,0.803,-0.114
26.86,-0.193,1.265,0.055
26.87,-0.075,0.734,0.149
26.88,-0.223,0.937,0.036
26.89,-0.344,1.043,-0.161
26.9,-0.189,0.939,-0.058
26.91,-0.201,1.148,0.067
26.92,-0.013,0.649,0.15
26.93,-0.406,1.155,-0.033
26.94,-0.253,0.817,-0.222
26.95,-0.218,1.08,-0.031
26.96,-0.136,0.925,0.166
26.97,-0.134,0.827,0.119
26.98,-0.351,1.115,-0.121
26.99,-0.212,0.806,-0.114
27.0,-0.243,1.273,0.043
27.01,-0.01,0.687,0.112
27.02,-0.229,1.043,0.035
27.03,-0.325,0.923,-0.151
27.04,-0.178,1.06,-0.085
27.05,-0.177,1.024,0.092
27.06,-0.018,0.717,0.138
27.07,-0.415,1.166,-0.004
27.08,-0.277,0.76,-0.18
27.09,-0.212,1.147,-0.031
27.1,-0.141,0.815,0.156
27.11,-0.117,0.991,0.09
27.12,-0.359,0.984,-0.105
27.13,-0.225,0.843,-0.112
27.14,-0.119,1.251,0.076
27.15,-0.029,0.709,0.11
27.16,-0.26,1.061,0.055
27.17,-0.338,0.846,-0.125
27.18,-0.152,1.18,-0.12
27.19,-0.133,0.912,0.066
27.2,-0.104,0.87,0.141
27.21,-0.405,1.07,0.016
27.22,-0.216,0.84,-0.179
27.23,-0.224,1.152,-0.069
27.24,-0.104,0.768,0.177
27.25,-0.096,1.092,0.109
27.26,-0.271,0.861,-0.156
27.27,-0.294,0.971,-0.145
27.28,-0.199,1.065,0.032
27.29,-0.044,0.884,0.169
27.3,-0.211,1.028,0.021
27.31,-0.385,0.805,-0.128
27.32,-0.164,1.249,-0.021
27.33,-0.11,0.81,0.034
27.34,-0.134,0.948,0.131
27.35,-0.289,0.867,-0.024
27.36,-0.278,1.152,-0.21
27.37,-0.172,0.915,-0.053
27.38,-0.134,0.946,0.162
27.39,-0.175,1.042,0.121
27.4,-0.389,0.849,-0.105
27.41,-0.282,1.159,-0.12
27.42,-0.16,0.903,0.086
27.43,-0.046,1.034,0.138
27.44,-0.19,0.805,0.024
27.45,-0.386,1.026,-0.131
27.46,-0.18,1.119,-0.069
27.47,-0.125,0.882,0.072
27.48,-0.128,0.954,0.162
27.49,-0.292,0.809,-0.034
27.5,-0.33,1.239,-0.143
27.51,-0.176,0.84,-0.05
27.52,-0.15,1.033,0.15
27.53,-0.175,0.916,0.156
27.54,-0.331,0.899,-0.127
27.55,-0.234,1.093,-0.146
27.56,-0.19,0.959,0.004
27.57,-0.057,1.032,0.153
27.58,-0.135,0.736,0.057
27.59,-0.367,1.125,-0.15
27.6,-0.195,1.033,-0.075
27.61,-0.187,1.052,0.079
27.62,-0.125,0.84,0.184
27.63,-0.283,0.832,-0.023
27.64,-0.38,1.265,-0.172
27.65,-0.163,0.814,-0.079
27.66,-0.075,1.096,0.081
27.67,-0.129,0.768,0.171
27.68,-0.349,1.023,-0.111
27.69,-0.292,0.983,-0.131
27.7,-0.178,0.944,-0.011
27.71,-0.207,1.109,0.187
27.72,-0.094,0.725,0.009
27.73,-0.37,1.172,-0.139
27.74,-0.195,0.849,-0.056
27.75,-0.077,1.212,0.015
27.76,-0.085,0.753,0.166
27.77,-0.209,0.868,0.003
27.78,-0.428,1.147,-0.141
27.79,-0.09,0.894,-0.097
27.8,-0.174,1.147,0.074
27.81,-0.112,0.635,0.113
27.82,-0.325,1.181,-0.046
27.83,-0.356,0.848,-0.136
27.84,-0.075,0.962,-0.099
27.85,-0.11,1.038,0.21
27.86,-0.137,0.804,0.099
27.87,-0.362,1.109,-0.147
27.88,-0.187,0.76,-0.094
27.89,-0.154,1.294,0.053
27.9,-0.031,0.748,0.112
27.91,-0.242,0.995,0.012
27.92,-0.415,0.976,-0.113
27.93,-0.148,0.957,-0.082
27.94,-0.134,1.089,0.088
27.95,-0.054,0.65,0.16
27.96,-0.357,1.164,-0.05
27.97,-0.225,0.856,-0.189
27.98,-0.307,1.083,-0.071
27.99,-0.061,0.823,0.15
28.0,-0.152,0.988,0.147
28.01,-0.321,1.019,-0.145
28.02,-0.318,0.781,-0.097
28.03,-0.093,1.217,-0.006
28.04,0.007,0.84,0.09
28.05,-0.2,1.071,0.017
28.06,-0.276,0.818,-0.183
28.07,-0.243,1.12,-0.053
28.08,-0.062,1.024,0.029
28.09,-0.028,0.73,0.148
28.1,-0.356,1.092,-0.013
28.11,-0.318,0.829,-0.097
28.12,-0.227,1.176,-0.046
28.13,-0.083,0.775,0.137
28.14,-0.208,1.126,0.129
28.15,-0.267,0.845,-0.133
28.16,-0.278,1.06,-0.141
28.17,-0.129,0.965,0.002
28.18,-0.053,0.941,0.146
28.19,-0.182,0.999,0.043
28.2,-0.356,0.851,-0.113
28.21,-0.219,1.223,-0.063
28.22,-0.075,0.849,0.019
28.23,-0.139,1.003,0.157
28.24,-0.267,0.851,-0.07
28.25,-0.306,1.088,-0.146
28.26,-0.142,0.977,-0.069
28.27,-0.087,0.817,0.113
28.28,-0.16,1.047,0.189
28.29,-0.291,0.81,-0.13
28.3,-0.318,1.135,-0.154
28.31,-0.243,0.895,0.023
28.32,-0.082,1.051,0.148
28.33,-0.13,0.859,0.025
28.34,-0.352,0.949,-0.13
28.35,-0.302,1.159,-0.054
28.36,0.001,0.957,0.059
28.37,-0.128,1.038,0.162
28.38,-0.217,0.749,0.0
28.39,-0.317,1.185,-0.115
28.4,-0.15,0.987,-0.084
28.41,-0.177,0.947,0.08
28.42,-0.158,0.902,0.161
28.43,-0.293,0.919,-0.097
28.44,-0.366,1.186,-0.109
28.45,-0.036,0.787,-0.087
28.46,-0.18,1.161,0.226
28.47,-0.105,0.755,0.047
28.48,-0.37,1.05,-0.144
28.49,-0.22,1.003,-0.146
28.5,-0.163,1.022,0.037
28.51,-0.09,0.945,0.173
28.52,-0.246,0.728,-0.008
28.53,-0.352,1.22,-0.159
28.54,-0.127,0.925,-0.054
28.55,-0.104,1.108,0.094
28.56,-0.098,0.712,0.14
28.57,-0.352,0.995,-0.03
28.58,-0.333,1.133,-0.158
28.59,-0.179,0.852,-0.049
28.6,-0.19,1.1,0.159
28.61,-0.152,0.709,0.132
28.62,-0.392,1.165,-0.136
28.63,-0.208,0.806,-0.111
28.64,-0.222,1.16,0.087
28.65,-0.048,0.955,0.196
28.66,-0.198,0.804,0.006
28.67,-0.417,1.138,-0.164
28.68,-0.154,0.894,-0.039
28.69,-0.108,1.24,0.057
28.7,-0.055,0.61,0.146
28.71,-0.328,1.056,-0.004
28.72,-0.234,0.976,-0.149
28.73,-0.212,0.967,-0.01
28.74,-0.16,1.009,0.114
28.75,-0.129,0.762,0.13
28.76,-0.39,1.175,-0.138
28.77,-0.203,0.762,-0.162
28.78,-0.213,1.224,0.079
28.79,0.04,0.799,0.12
28.8,-0.195,0.902,0.066
28.81,-0.372,1.04,-0.147
28.82,-0.171,0.958,-0.046
28.83,-0.161,1.162,0.032
28.84,-0.086,0.62,0.174
28.85,-0.288,1.137,-0.027
28.86,-0.367,0.874,-0.096
28.87,-0.205,1.04,-0.079
28.88,-0.112,0.929,0.142
28.89,-0.099,0.852,0.153
28.9,-0.361,1.108,-0.079
28.91,-0.275,0.75,-0.138
28.92,-0.206,1.225,0.029
28.93,-0.059,0.812,0.16
28.94,-0.192,1.096,0.047
28.95,-0.34,0.845,-0.128
28.96,-0.25,1.185,-0.073
28.97,-0.109,0.947,0.043
28.98,-0.069,0.826,0.124
28.99,-0.288,1.013,-0.023
29.0,-0.332,0.888,-0.141
29.01,-0.218,1.153,-0.085
29.02,-0.084,0.736,0.079
29.03,-0.155,1.075,0.16
29.04,-0.258,0.893,-0.103
29.05,-0.335,1.031,-0.104
29.06,-0.254,0.97,-0.001
29.07,-0.056,0.917,0.168
29.08,-0.176,1.046,0.062
29.09,-0.332,0.824,-0.171
29.1,-0.229,1.237,-0.068
29.11,-0.092,0.902,0.037
29.12,-0.055,0.945,0.15
29.13,-0.223,0.885,-0.012
29.14,-0.334,0.995,-0.116
29.15,-0.149,1.126,-0.059
29.16,-0.122,0.815,0.08
29.17,-0.136,1.04,0.131
29.18,-0.302,0.861,-0.076
29.19,-0.347,1.154,-0.139
29.2,-0.177,0.831,-0.048
29.21,-0.11,1.02,0.185
29.22,-0.193,0.956,0.122
29.23,-0.364,0.86,-0.094
29.24,-0.189,1.151,-0.096
29.25,-0.092,0.886,0.008
29.26,-0.165,1.099,0.184
29.27,-0.172,0.757,-0.016
29.28,-0.444,1.139,-0.105
29.29,-0.187,1.051,-0.075
29.3,-0.095,0.926,0.074
29.31,-0.116,0.897,0.171
29.32,-0.281,0.836,-0.045
29.33,-0.332,1.269,-0.127
29.34,-0.156,0.8,-0.038
29.35,-0.171,1.06,0.129
29.36,-0.094,0.838,0.13
29.37,-0.404,0.997,-0.15
29.38,-0.291,0.988,-0.131
29.39,-0.127,1.002,0.073
29.4,-0.063,1.095,0.128
29.41,-0.172,0.691,0.015
29.42,-0.402,1.204,-0.15
29.43,-0.181,0.995,-0.021
29.44,-0.156,1.109,0.05
29.45,-0.101,0.748,0.15
29.46,-0.297,0.916,-0.003
29.47,-0.337,1.16,-0.188
29.48,-0.211,0.788,-0.017
29.49,-0.087,1.177,0.127
29.5,-0.112,0.743,0.132
29.51,-0.383,1.08,-0.111
29.52,-0.193,0.893,-0.132
29.53,-0.204,1.08,0.008
29.54,-0.065,0.987,0.143
29.55,-0.159,0.747,0.021
29.56,-0.415,1.14,-0.127
29.57,-0.191,0.849,-0.069
29.58,-0.137,1.248,0.068
29.59,-0.086,0.695,0.142
29.6,-0.305,0.955,-0.023
29.61,-0.337,1.042,-0.139
29.62,-0.139,0.925,-0.086
29.63,-0.178,1.052,0.092
29.64,-0.072,0.674,0.161
29.65,-0.367,1.194,-0.095
29.66,-0.271,0.78,-0.134
29.67,-0.182,1.08,0.022
29.68,-0.114,0.988,0.193
29.69,-0.132,0.871,0.041
29.7,-0.376,1.064,-0.148
29.71,-0.218,0.824,-0.074
29.72,-0.187,1.285,0.099
29.73,-0.062,0.711,0.132
29.74,-0.264,1.084,-0.005
29.75,-0.327,0.872,-0.118
29.76,-0.174,1.188,-0.043
29.77,-0.143,0.799,0.072
29.78,-0.149,0.866,0.158
29.79,-0.292,1.085,-0.07
29.8,-0.356,0.828,-0.132
29.81,-0.251,1.088,0.012
29.82,-0.069,0.8,0.167
29.83,-0.156,1.092,0.071
29.84,-0.346,0.848,-0.18
29.85,-0.256,1.075,-0.057
29.86,-0.094,1.054,0.028
29.87,-0.041,0.76,0.161
29.88,-0.319,1.06,0.009
29.89,-0.222,0.849,-0.154
29.9,-0.293,1.185,-0.053
29.91,-0.08,0.742,0.053
29.92,-0.178,1.036,0.174
29.93,-0.291,0.975,-0.065
29.94,-0.305,0.92,-0.137
29.95,-0.274,1.049,-0.004
29.96,-0.031,0.858,0.161
29.97,-0.18,1.094,0.062
29.98,-0.312,0.779,-0.128
29.99,-0.246,1.205,-0.103
30.0,-0.056,1.01,-0.001
30.01,-0.104,0.858,0.157
30.02,-0.202,0.939,0.016
30.03,-0.311,0.998,-0.089
30.04,-0.155,1.2,-0.126
30.05,-0.132,0.771,0.071
30.06,-0.128,1.024,0.147
30.07,-0.309,0.89,-0.037
30.08,-0.315,1.111,-0.19
30.09,-0.149,0.903,-0.053
30.1,-0.151,0.971,0.172
30.11,-0.15,1.005,0.1
30.12,-0.325,0.818,-0.14
30.13,-0.247,1.144,-0.121
30.14,-0.084,0.907,0.005
30.15,-0.096,1.086,0.168
30.16,-0.222,0.794,0.032
30.17,-0.354,1.011,-0.132
30.18,-0.19,1.158,-0.028
30.19,-0.099,0.945,0.037
30.2,-0.141,0.922,0.124
30.21,-0.277,0.819,-0.028
30.22,-0.373,1.254,-0.143
30.23,-0.135,0.87,-0.079
30.24,-0.136,1.011,0.13
30.25,-0.172,0.859,0.14
30.26,-0.318,0.954,-0.084
30.27,-0.327,1.097,-0.142
30.28,-0.151,0.87,0.022
30.29,-0.105,1.131,0.169
30.3,-0.138,0.712,0.049
30.31,-0.398,1.134,-0.151
30.32,-0.257,0.987,-0.048
30.33,-0.11,1.074,0.032
30.34,-0.109,0.853,0.156
30.35,-0.311,0.806,0.0
30.36,-0.267,1.263,-0.2
30.37,-0.139,0.883,-0.087
30.38,-0.145,1.095,0.102
30.39,-0.138,0.706,0.165
30.4,-0.358,1.06,-0.083
30.41,-0.316,0.935,-0.139
30.42,-0.219,0.908,-0.022
30.43,-0.056,1.078,0.14
30.44,-0.176,0.739,0.066
30.45,-0.345,1.157,-0.166
30.46,-0.258,0.891,-0.044
30.47,-0.128,1.168,0.044
30.48,-0.097,0.738,0.172
30.49,-0.238,0.909,-0.009
30.5,-0.42,1.099,-0.149
30.51,-0.128,0.948,-0.09
30.52,-0.152,1.129,0.091
30.53,-0.141,0.615,0.165
30.54,-0.35,1.175,-0.107
30.55,-0.252,0.793,-0.152
30.56,-0.264,1.148,-0.003
30.57,-0.004,0.883,0.188
30.58,-0.197,0.942,0.038
30.59,-0.354,0.969,-0.131
30.6,-0.235,0.866,-0.061
30.61,-0.109,1.272,0.064
30.62,-0.118,0.655,0.138
30.63,-0.268,1.066,0.032
30.64,-0.304,0.883,-0.128
30.65,-0.139,1.139,-0.082
30.66,-0.137,0.895,0.069
30.67,-0.148,0.789,0.168
30.68,-0.303,1.142,-0.063
30.69,-0.302,0.808,-0.173
30.7,-0.229,1.101,-0.036
30.71,-0.097,0.816,0.193
30.72,-0.128,1.081,0.082
30.73,-0.329,0.876,-0.156
30.74,-0.26,0.961,-0.089
30.75,-0.111,1.163,0.017
30.76,0.038,0.752,0.136
30.77,-0.312,1.065,0.043
30.78,-0.339,0.777,-0.144
30.79,-0.249,1.25,-0.063
30.8,-0.101,0.872,0.052
30.81,-0.101,0.878,0.131
30.82,-0.3,0.988,-0.026
30.83,-0.258,0.951,-0.178
30.84,-0.383,1.122,-0.012
30.85,-0.073,0.759,0.135
30.86,-0.174,1.115,0.117
30.87,-0.246,0.859,-0.132
30.88,-0.245,1.087,-0.136
30.89,-0.202,0.955,0.038
30.9,-0.049,0.955,0.136
30.91,-0.213,1.007,0.053
30.92,-0.373,0.796,-0.136
30.93,-0.187,1.221,-0.058
30.94,-0.116,0.925,0.173
30.95,-0.112,0.966,0.168
30.96,-0.25,0.851,-0.029
30.97,-0.301,1.119,-0.16
30.98,-0.133,1.036,-0.076
30.99,-0.057,0.745,0.034
31.0,-0.115,1.036,0.163
31.01,-0.301,0.876,-0.122
31.02,-0.343,1.158,-0.123
31.03,-0.182,0.83,0.006
31.04,-0.028,1.096,0.183
31.05,-0.224,0.89,0.027
31.06,-0.381,0.914,-0.171
31.07,-0.199,1.148,-0.05
31.08,-0.021,0.925,0.0
31.09,-0.143,0.969,0.147
31.1,-0.267,0.804,-0.025
31.11,-0.319,1.24,-0.134
31.12,-0.16,0.899,-0.101
31.13,-0.122,0.914,0.124
31.14,-0.171,0.939,0.165
31.15,-0.297,0.926,-0.128
31.16,-0.283,1.119,-0.141
31.17,-0.207,0.86,-0.001
31.18,-0.078,1.099,0.202
31.19,-0.123,0.776,0.031
31.2,-0.458,1.073,-0.123
31.21,-0.234,1.043,-0.083
31.22,-0.133,0.987,0.042
31.23,-0.078,0.905,0.133
31.24,-0.25,0.783,-0.005
31.25,-0.405,1.264,-0.12
31.26,-0.148,0.858,-0.108
31.27,-0.129,1.024,0.091
31.28,-0.172,0.782,0.195
31.29,-0.326,0.995,-0.074
31.3,-0.336,1.053,-0.138
31.31,-0.203,0.858,-0.023
31.32,-0.103,1.147,0.187
31.33,-0.135,0.72,0.018
31.34,-0.305,1.123,-0.16
31.35,-0.223,0.933,-0.066
31.36,-0.126,1.203,0.022
31.37,-0.059,0.645,0.153
31.38,-0.287,0.996,0.046
31.39,-0.227,1.096,-0.188
31.4,-0.266,0.916,-0.06
31.41,-0.133,1.042,0.133
31.42,-0.104,0.707,0.146
31.43,-0.389,1.173,-0.099
31.44,-0.251,0.741,-0.191
31.45,-0.222,1.138,0.014
31.46,-0.075,0.953,0.171
31.47,-0.116,0.87,0.066
31.48,-0.345,1.086,-0.135
31.49,-0.245,0.804,-0.093
31.5,-0.164,1.282,0.071
31.51,-0.038,0.714,0.151
31.52,-0.286,1.042,0.026
31.53,-0.325,0.908,-0.124
31.54,-0.155,1.082,-0.099
31.55,-0.24,0.986,0.107
31.56,-0.114,0.724,0.138
31.57,-0.343,1.167,-0.043
31.58,-0.269,0.781,-0.179
31.59,-0.253,1.114,-0.04
31.6,-0.005,0.851,0.122
31.61,-0.127,1.013,0.087
31.62,-0.369,0.933,-0.12
31.63,-0.219,0.865,-0.124
31.64,-0.185,1.22,0.094
31.65,-0.019,0.697,0.124
31.66,-0.281,1.094,0.032
31.67,-0.351,0.837,-0.122
31.68,-0.236,1.182,-0.071
31.69,-0.128,0.9,0.05
31.7,-0.114,0.811,0.146
31.71,-0.374,1.069,-0.026
31.72,-0.248,0.852,-0.167
31.73,-0.255,1.164,-0.029
31.74,-0.11,0.756,0.148
31.75,-0.175,1.083,0.102
31.76,-0.376,0.867,-0.091
31.77,-0.307,0.967,-0.096
31.78,-0.157,1.061,0.021
31.79,-0.03,0.837,0.148
31.8,-0.238,1.042,0.067
31.81,-0.266,0.82,-0.176
31.82,-0.29,1.256,-0.046
31.83,-0.084,0.827,0.01
31.84,-0.076,0.927,0.156
31.85,-0.268,0.934,-0.011
31.86,-0.319,1.023,-0.118
31.87,-0.165,1.106,-0.084
31.88,-0.052,0.716,0.012
31.89,-0.136,1.031,0.141
31.9,-0.293,0.88,-0.107
31.91,-0.318,1.125,-0.152
31.92,-0.177,0.865,-0.002
31.93,-0.071,1.026,0.221
31.94,-0.181,0.968,0.047
31.95,-0.373,0.854,-0.126
31.96,-0.227,1.173,-0.081
31.97,-0.166,0.924,0.166
31.98,-0.044,1.048,0.131
31.99,-0.253,0.764,-0.004
32.0,-0.344,1.094,-0.134
32.01,-0.125,1.055,-0.062
32.02,-0.204,0.915,0.12
32.03,-0.104,0.923,0.115
32.04,-0.324,0.883,-0.059
32.05,-0.319,1.21,-0.155
32.06,-0.128,0.808,-0.035
32.07,-0.139,1.075,0.194
32.08,-0.052,0.843,0.051
32.09,-0.425,1.007,-0.158
32.1,-0.246,1.054,-0.076
32.11,-0.076,0.977,0.029
32.12,-0.107,1.005,0.117
32.13,-0.213,0.718,-0.007
32.14,-0.305,1.223,-0.142
32.15,-0.127,0.856,-0.109
32.16,-0.145,1.097,0.132
32.17,-0.122,0.752,0.165
32.18,-0.362,1.026,-0.134
32.19,-0.312,0.94,-0.141
32.2,-0.157,0.963,0.008
32.21,-0.163,1.148,0.182
32.22,-0.111,0.684,0.037
32.23,-0.35,1.174,-0.16
32.24,-0.197,0.863,-0.084
32.25,-0.138,1.17,0.048
32.26,-0.042,0.83,0.181
32.27,-0.258,0.885,-0.027
32.28,-0.363,1.091,-0.149
32.29,-0.134,0.93,-0.052
32.3,-0.207,1.109,0.096
32.31,-0.134,0.614,0.121
32.32,-0.39,1.166,-0.031
32.33,-0.213,0.881,-0.163
32.34,-0.181,1.011,0.008
32.35,-0.102,0.969,0.154
32.36,-0.116,0.844,0.094
32.37,-0.355,1.131,-0.178
32.38,-0.231,0.728,-0.132
32.39,-0.183,1.322,0.045
32.4,-0.021,0.765,0.126
32.41,-0.284,0.949,0.015
32.42,-0.328,0.978,-0.13
32.43,-0.168,1.019,-0.033
32.44,-0.132,1.025,0.093
32.45,-0.072,0.654,0.14
32.46,-0.365,1.21,-0.044
32.47,-0.233,0.793,-0.231
32.48,-0.264,1.081,-0.037
32.49,-0.101,0.921,0.215
32.5,-0.091,0.93,0.117
32.51,-0.38,1.005,-0.133
32.52,-0.231,0.798,-0.1
32.53,-0.218,1.293,0.084
32.54,0.054,0.697,0.134
32.55,-0.282,1.072,0.018
32.56,-0.364,0.814,-0.145
32.57,-0.219,1.107,-0.078
32.58,-0.104,1.012,0.069
32.59,-0.065,0.732,0.134
32.6,-0.36,1.123,0.007
32.61,-0.244,0.823,-0.156
32.62,-0.264,1.171,-0.043
32.63,-0.105,0.783,0.099
32.64,-0.161,1.038,0.163
32.65,-0.269,0.936,-0.115
32.66,-0.25,0.869,-0.121
32.67,-0.218,1.14,0.042
32.68,-0.053,0.828,0.154
32.69,-0.174,1.075,0.052
32.7,-0.335,0.817,-0.168
32.71,-0.244,1.218,-0.03
32.72,-0.118,0.94,0.003
32.73,-0.086,0.84,0.112
32.74,-0.282,0.998,0.005
32.75,-0.235,0.931,-0.163
32.76,-0.24,1.114,-0.076
32.77,-0.089,0.772,0.111
32.78,-0.198,1.093,0.194
32.79,-0.251,0.861,-0.129
32.8,-0.312,1.021,-0.126
32.81,-0.235,0.969,-0.007
32.82,-0.08,0.936,0.16
32.83,-0.152,1.024,0.056
32.84,-0.311,0.829,-0.143
32.85,-0.285,1.181,-0.074
32.86,-0.066,0.941,0.03
32.87,-0.058,0.982,0.14
32.88,-0.221,0.846,-0.005
32.89,-0.319,1.06,-0.139
32.9,-0.178,1.099,-0.082
32.91,-0.084,0.788,0.064
32.92,-0.154,1.002,0.159
32.93,-0.314,0.849,-0.021
32.94,-0.34,1.177,-0.138
32.95,-0.132,0.793,-0.049
32.96,-0.15,1.157,0.179
32.97,-0.148,0.776,0.042
32.98,-0.328,1.037,-0.146
32.99,-0.227,1.022,-0.114
33.0,-0.112,1.057,0.064
33.01,-0.018,0.996,0.121
33.02,-0.257,0.692,-0.027
33.03,-0.412,1.198,-0.085
33.04,-0.11,0.913,-0.085
33.05,-0.26,1.128,0.097
33.06,-0.102,0.752,0.121
33.07,-0.352,0.982,-0.061
33.08,-0.29,1.113,-0.155
33.09,-0.187,0.845,-0.055
33.1,-0.184,1.064,0.197
33.11,-0.098,0.717,0.066
33.12,-0.386,1.165,-0.097
33.13,-0.278,0.85,-0.137
33.14,-0.137,1.074,-0.023
33.15,-0.074,0.96,0.173
33.16,-0.172,0.815,0.022
33.17,-0.398,1.116,-0.164
33.18,-0.151,0.833,-0.062
33.19,-0.154,1.289,0.066
33.2,-0.042,0.67,0.141
33.21,-0.327,1.009,-0.002
33.22,-0.252,0.988,-0.138
33.23,-0.107,1.04,-0.052
33.24,-0.226,1.042,0.149
33.25,-0.137,0.682,0.134
33.26,-0.37,1.212,-0.094
33.27,-0.256,0.821,-0.145
33.28,-0.234,1.132,-0.016
33.29,-0.07,0.832,0.225
33.3,-0.181,0.949,0.051
33.31,-0.352,1.007,-0.171
33.32,-0.177,0.863,-0.071
33.33,-0.116,1.219,0.035
33.34,-0.045,0.661,0.146
33.35,-0.322,1.103,0.025
33.36,-0.288,0.876,-0.146
33.37,-0.225,1.082,-0.045
33.38,-0.107,0.958,0.077
33.39,-0.16,0.818,0.179
33.4,-0.306,1.101,-0.089
33.41,-0.316,0.779,-0.112
33.42,-0.264,1.219,0.002
33.43,-0.048,0.792,0.155
33.44,-0.119,1.033,0.062
33.45,-0.353,0.875,-0.171
33.46,-0.166,0.988,-0.067
33.47,-0.206,1.192,0.098
33.48,-0.095,0.712,0.149
33.49,-0.236,1.104,0.035
33.5,-0.284,0.883,-0.129
33.51,-0.184,1.164,-0.111
33.52,-0.127,0.785,0.129
33.53,-0.096,0.908,0.127
33.54,-0.308,1.013,-0.057
33.55,-0.316,0.904,-0.152
33.56,-0.237,1.052,0.003
33.57,-0.288,0.796,-0.007
33.58,-0.318,1.14,-0.136
33.59,-0.234,0.922,-0.039
33.6,-0.182,1.069,0.104
33.61,-0.094,0.708,0.184
33.62,-0.356,1.187,-0.092
33.63,-0.271,0.774,-0.15
33.64,-0.264,1.114,0.027
33.65,-0.082,0.925,0.177
33.66,-0.148,0.865,0.032
33.67,-0.361,1.045,-0.14
33.68,-0.209,0.857,-0.078
33.69,-0.187,1.252,0.064
33.7,-0.047,0.668,0.157
33.71,-0.269,1.092,-0.021
33.72,-0.344,0.889,-0.11
33.73,-0.184,1.051,-0.092
33.74,-0.124,0.972,0.108
33.75,-0.107,0.781,0.138
33.76,-0.335,1.138,-0.057
33.77,-0.345,0.754,-0.138
33.78,-0.196,1.142,0.011
33.79,-0.077,0.88,0.191
33.8,-0.19,1.009,0.043
33.81,-0.336,0.913,-0.151
33.82,-0.15,0.946,-0.094
33.83,-0.164,1.229,0.084
33.84,-0.064,0.639,0.114
33.85,-0.245,1.081,0.027
33.86,-0.324,0.861,-0.127
33.87,-0.177,1.182,-0.09
33.88,-0.099,0.872,0.06
33.89,-0.096,0.884,0.134
33.9,-0.326,1.044,-0.075
33.91,-0.286,0.858,-0.129
33.92,-0.207,1.115,-0.035
33.93,-0.052,0.784,0.148
33.94,-0.187,1.121,0.105
33.95,-0.3,0.858,-0.133
33.96,-0.231,1.066,-0.103
33.97,-0.147,1.029,0.023
33.98,-0.034,0.85,0.134
33.99,-0.26,1.046,0.03
34.0,-0.335,0.802,-0.134
34.01,-0.164,1.215,-0.052
34.02,-0.39,0.869,0.223
34.03,-0.1,0.934,0.155
34.04,-0.244,0.928,-0.045
34.05,-0.285,1.038,-0.193
34.06,-0.167,1.022,-0.059
34.07,-0.078,0.834,0.147
34.08,-0.197,1.069,0.093
34.09,-0.34,0.843,-0.106
34.1,-0.236,1.132,-0.145
34.11,-0.158,0.892,0.027
34.12,-0.057,0.941,0.175
34.13,-0.168,0.941,0.02
34.14,-0.391,0.914,-0.152
34.15,-0.189,1.172,-0.03
34.16,-0.103,0.885,0.056
34.17,-0.16,0.959,0.145
34.18,-0.264,0.829,-0.025
34.19,-0.26,1.186,-0.162
34.2,-0.172,0.954,-0.065
34.21,-0.12,0.888,0.128
34.22,-0.125,1.002,0.154
34.23,-0.396,0.848,-0.109
34.24,-0.259,1.131,-0.132
34.25,-0.227,0.912,0.103
34.26,-0.044,1.038,0.143
34.27,-0.177,0.773,-0.0
34.28,-0.369,1.063,-0.149
34.29,-0.197,1.107,-0.034
34.3,-0.115,0.874,0.051
34.31,-0.13,0.937,0.16
34.32,-0.289,0.854,-0.031
34.33,-0.316,1.231,-0.185
34.34,-0.154,0.816,-0.079
34.35,-0.137,1.067,0.186
34.36,-0.139,0.888,0.078
34.37,-0.424,0.946,-0.091
34.38,-0.204,1.074,-0.118
34.39,-0.21,0.933,0.108
34.4,-0.078,0.951,0.13
34.41,-0.187,0.734,-0.014
34.42,-0.396,1.215,-0.096
34.43,-0.213,0.92,-0.038
34.44,-0.223,1.09,0.111
34.45,-0.073,0.676,0.114
34.46,-0.375,1.052,-0.025
34.47,-0.376,1.076,-0.168
34.48,-0.209,0.813,-0.047
34.49,-0.116,1.119,0.19
34.5,-0.106,0.716,0.081
34.51,-0.389,1.105,-0.153
34.52,-0.225,0.861,-0.106
34.53,-0.12,1.231,0.032
34.54,-0.067,0.798,0.118
34.55,-0.213,0.824,0.025
34.56,-0.377,1.153,-0.143
34.57,-0.191,0.929,-0.079
34.58,-0.157,1.151,0.076
34.59,-0.11,0.579,0.157
34.6,-0.272,1.126,-0.001
34.61,-0.344,0.98,-0.214
34.62,-0.236,0.913,-0.023
34.63,-0.073,1.031,0.141
34.64,-0.206,0.798,0.118
34.65,-0.36,1.125,-0.127
34.66,-0.236,0.763,-0.064
34.67,-0.198,1.306,0.122
34.68,-0.042,0.748,0.122
34.69,-0.208,1.014,0.017
34.7,-0.346,0.937,-0.155
34.71,-0.23,1.091,-0.033
34.72,-0.118,1.02,0.035
34.73,-0.125,0.722,0.162
34.74,-0.373,1.163,-0.03
34.75,-0.248,0.85,-0.153
34.76,-0.427,1.156,0.117
34.77,-0.081,0.797,0.145
34.78,-0.137,1.031,0.107
34.79,-0.337,0.942,-0.131
34.8,-0.262,0.864,-0.103
34.81,-0.177,1.181,0.028
34.82,-0.063,0.795,0.116
34.83,-0.25,1.066,0.044
34.84,-0.329,0.792,-0.165
34.85,-0.165,1.18,-0.024
34.86,-0.077,0.933,-0.007
34.87,-0.029,0.819,0.102
34.88,-0.322,1.056,-0.045
34.89,-0.255,0.876,-0.139
34.9,-0.212,1.141,-0.022
34.91,-0.094,0.768,0.11
34.92,-0.159,1.082,0.11
34.93,-0.355,0.859,-0.117
34.94,-0.236,1.025,-0.099
34.95,-0.161,1.065,0.012
34.96,-0.083,0.805,0.156
34.97,-0.205,1.064,0.038
34.98,-0.312,0.841,-0.173
34.99,-0.245,1.215,-0.069
35.0,-0.077,0.822,0.064
35.01,-0.084,0.945,0.178
35.02,-0.273,0.937,-0.061
35.03,-0.34,1.007,-0.157
35.04,-0.255,1.03,-0.027
35.05,-0.069,0.781,0.143
35.06,-0.186,1.101,0.137
35.07,-0.282,0.832,-0.158
35.08,-0.277,1.138,-0.099
35.09,-0.154,0.944,0.003
35.1,-0.135,0.967,0.161
35.11,-0.158,0.94,0.029
35.12,-0.363,0.899,-0.142
35.13,-0.179,1.22,-0.062
35.14,-0.207,0.852,0.057
35.15,-0.07,0.965,0.132
35.16,-0.25,0.849,-0.045
35.17,-0.353,1.141,-0.207
35.18,-0.217,0.955,-0.066
35.19,-0.132,0.903,0.116
35.2,-0.133,0.954,0.113
35.21,-0.314,0.985,-0.13
35.22,-0.296,1.06,-0.119
35.23,-0.174,0.902,0.035
35.24,-0.093,1.127,0.196
35.25,-0.218,0.723,-0.008
35.26,-0.372,1.13,-0.147
35.27,-0.134,1.026,-0.068
35.28,-0.119,1.015,0.067
35.29,-0.11,0.828,0.159
35.3,-0.308,0.872,-0.041
35.31,-0.292,1.233,-0.17
35.32,-0.167,0.796,-0.04
35.33,-0.157,1.099,0.146
35.34,-0.074,0.76,0.089
35.35,-0.415,1.053,-0.139
35.36,-0.238,0.95,-0.131
35.37,-0.083,0.99,0.025
35.38,-0.052,1.008,0.143
35.39,-0.248,0.751,0.037
35.4,-0.416,1.22,-0.134
35.41,-0.08,0.924,-0.08
35.42,-0.36,1.126,0.197
35.43,-0.082,0.671,0.149
35.44,-0.243,1.014,-0.038
35.45,-0.398,1.078,-0.182
35.46,-0.137,0.843,-0.063
35.47,-0.161,1.181,0.181
35.48,-0.132,0.714,0.122
35.49,-0.346,1.118,-0.144
35.5,-0.252,0.866,-0.096
35.51,-0.154,1.144,0.015
35.52,-0.102,0.94,0.189
35.53,-0.165,0.798,0.042
35.54,-0.387,1.177,-0.129
35.55,-0.081,0.892,-0.092
35.56,-0.234,1.179,0.067
35.57,-0.023,0.624,0.17
35.58,-0.352,1.064,-0.05
35.59,-0.321,0.942,-0.179
35.6,-0.204,0.969,-0.027
35.61,-0.109,1.028,0.128
35.62,-0.134,0.725,0.09
35.63,-0.356,1.177,-0.123
35.64,-0.224,0.818,-0.106
35.65,-0.164,1.214,-0.014
35.66,-0.074,0.814,0.193
35.67,-0.233,0.945,0.025
35.68,-0.405,1.006,-0.163
35.69,-0.137,0.939,-0.085
35.7,-0.072,1.191,0.073
35.71,-0.112,0.615,0.14
35.72,-0.315,1.096,-0.039
35.73,-0.306,0.897,-0.144
35.74,-0.107,1.073,-0.044
35.75,-0.131,0.881,0.118
35.76,-0.128,0.817,0.112
35.77,-0.356,1.159,-0.109
35.78,-0.281,0.823,-0.124
35.79,-0.205,1.195,0.012
35.8,-0.035,0.8,0.181
35.81,-0.303,1.024,0.035
35.82,-0.396,0.847,-0.195
35.83,-0.077,1.03,-0.022
35.84,-0.08,1.121,0.05
35.85,-0.107,0.677,0.128
35.86,-0.302,1.15,-0.041
35.87,-0.274,0.834,-0.148
35.88,-0.256,1.113,-0.024
35.89,-0.11,0.783,0.16
35.9,-0.121,1.0,0.118
35.91,-0.385,0.987,-0.125
35.92,-0.237,0.83,-0.135
35.93,-0.19,1.231,0.088
35.94,0.004,0.746,0.133
35.95,-0.262,1.072,0.025
35.96,-0.346,0.841,-0.135
35.97,-0.233,1.159,-0.102
35.98,-0.146,0.902,0.098
35.99,-0.099,0.839,0.135
36.0,-0.289,1.098,-0.065
36.01,-0.258,0.9,-0.157
36.02,-0.258,1.111,-0.016
36.03,-0.099,0.816,0.147
36.04,-0.161,1.105,0.072
36.05,-0.299,0.8,-0.167
36.06,-0.284,1.183,-0.049
36.07,-0.077,0.978,-0.005
36.08,-0.079,0.872,0.163
36.09,-0.269,0.971,-0.004
36.1,-0.304,0.911,-0.113
36.11,-0.239,1.141,-0.095
36.12,-0.115,0.761,0.081
36.13,-0.168,1.102,0.17
36.14,-0.391,0.855,-0.063
36.15,-0.296,0.992,-0.145
36.16,-0.171,0.972,-0.028
36.17,-0.091,0.948,0.207
36.18,-0.202,1.029,0.044
36.19,-0.3,0.792,-0.136
36.2,-0.286,1.243,-0.054
36.21,-0.083,0.901,-0.013
36.22,-0.067,0.965,0.154
36.23,-0.234,0.857,-0.024
36.24,-0.328,1.042,-0.122
36.25,-0.24,1.053,-0.088
36.26,-0.044,0.806,0.076
36.27,-0.221,1.083,0.176
36.28,-0.274,0.856,-0.068
36.29,-0.362,1.138,-0.157
36.3,-0.174,0.843,-0.023
36.31,-0.109,1.047,0.188
36.32,-0.142,0.937,0.078
36.33,-0.333,0.908,-0.109
36.34,-0.271,1.18,-0.105
36.35,-0.111,0.911,0.046
36.36,-0.075,1.028,0.125
36.37,-0.165,0.749,-0.008
36.38,-0.401,1.164,-0.152
36.39,-0.112,0.991,-0.092
36.4,-0.117,0.952,0.105
36.41,-0.137,0.866,0.13
36.42,-0.285,0.881,-0.02
36.43,-0.383,1.239,-0.177
36.44,-0.163,0.788,-0.049
36.45,-0.167,1.098,0.162
36.46,-0.146,0.803,0.099
36.47,-0.406,1.001,-0.149
36.48,-0.181,0.979,-0.134
36.49,-0.175,1.016,0.139
36.5,-0.032,1.032,0.13
36.51,-0.196,0.721,-0.005
36.52,-0.41,1.216,-0.155
36.53,-0.133,0.932,-0.075
36.54,-0.19,1.065,0.098
36.55,-0.074,0.752,0.139
36.56,-0.32,0.961,-0.027
36.57,-0.349,1.12,-0.163
36.58,-0.107,0.849,-0.054
36.59,-0.207,1.12,0.173
36.6,-0.051,0.705,0.074
36.61,-0.418,1.125,-0.12
36.62,-0.265,0.886,-0.12
36.63,-0.171,1.107,0.043
36.64,-0.018,0.886,0.128
36.65,-0.221,0.791,0.041
36.66,-0.364,1.17,-0.148
36.67,-0.245,0.89,0.004
36.68,-0.109,1.163,0.059
36.69,-0.094,0.638,0.142
36.7,-0.312,1.036,0.011
36.71,-0.309,1.028,-0.191
36.72,-0.254,0.905,-0.067
36.73,-0.281,1.105,0.253
36.74,-0.051,0.746,0.087
36.75,-0.451,1.155,-0.129
36.76,-0.174,0.771,-0.116
36.77,-0.193,1.219,0.008
36.78,-0.087,0.821,0.159
36.79,-0.179,0.919,0.054
36.8,-0.346,1.078,-0.159
36.81,-0.21,0.877,-0.09
36.82,-0.098,1.091,0.061
36.83,-0.114,0.704,0.137
36.84,-0.362,1.158,-0.045
36.85,-0.259,0.823,-0.172
36.86,-0.195,1.14,-0.041
36.87,-0.212,0.838,0.128
36.88,-0.143,0.934,0.088
36.89,-0.319,1.057,-0.138
36.9,-0.256,0.847,-0.101
36.91,-0.187,1.171,0.009
36.92,-0.018,0.755,0.171
36.93,-0.237,1.081,0.034
36.94,-0.357,0.827,-0.141
36.95,-0.201,1.118,-0.076
36.96,-0.045,0.985,0.04
36.97,-0.128,0.771,0.168
36.98,-0.34,1.066,-0.051
36.99,-0.259,0.858,-0.152
37.0,-0.279,1.15,-0.063
37.01,-0.085,0.735,0.157
37.02,-0.137,1.027,0.114
37.03,-0.286,0.946,-0.136
37.04,-0.29,0.967,-0.104
37.05,-0.215,1.083,0.025
37.06,-0.048,0.794,0.169
37.07,-0.237,1.053,0.037
37.08,-0.329,0.794,-0.154
37.09,-0.216,1.225,-0.043
37.1,-0.053,0.854,0.028
37.11,-0.118,0.892,0.185
37.12,-0.3,0.975,-0.062
37.13,-0.238,0.972,-0.161
37.14,-0.151,1.113,-0.035
37.15,-0.197,0.775,0.19
37.16,-0.138,1.089,0.111
37.17,-0.273,0.891,-0.151
37.18,-0.267,1.113,-0.153
37.19,-0.203,0.944,0.078
37.2,0.026,0.912,0.134
37.21,-0.228,0.982,0.018
37.22,-0.335,0.872,-0.148
37.23,-0.264,1.255,-0.063
37.24,-0.129,0.814,0.066
37.25,-0.094,0.977,0.149
37.26,-0.286,0.887,-0.073
37.27,-0.328,1.044,-0.171
37.28,-0.146,0.998,0.01
37.29,-0.08,0.874,0.125
37.3,-0.253,1.023,0.111
37.31,-0.29,0.834,-0.127
37.32,-0.263,1.194,-0.09
37.33,-0.182,0.895,0.062
37.34,-0.102,0.963,0.148
37.35,-0.173,0.897,0.051
37.36,-0.391,0.999,-0.208
37.37,-0.222,1.122,-0.021
37.38,-0.14,0.836,0.07
37.39,-0.11,0.965,0.133
37.4,-0.231,0.853,-0.057
37.41,-0.342,1.19,-0.165
37.42,-0.231,0.834,0.014
37.43,-0.077,1.014,0.181
37.44,-0.162,0.946,0.099
37.45,-0.361,0.857,-0.146
37.46,-0.193,1.152,-0.117
37.47,-0.319,0.943,0.068
37.48,-0.155,1.048,0.118
37.49,-0.196,0.747,0.031
37.5,-0.343,1.144,-0.158
37.51,-0.132,1.065,-0.07
37.52,-0.148,0.901,0.067
37.53,-0.13,0.924,0.174
37.54,-0.283,0.851,-0.064
37.55,-0.347,1.232,-0.174
37.56,-0.128,0.806,-0.016
37.57,-0.16,1.098,0.181
37.58,-0.154,0.847,0.07
37.59,-0.394,0.976,-0.137
37.6,-0.225,1.066,-0.101
37.61,-0.109,0.964,0.056
37.62,-0.111,0.865,0.149
37.63,-0.314,0.792,0.015
37.64,-0.276,1.256,-0.173
37.65,-0.145,0.849,-0.063
37.66,-0.118,1.096,0.106
37.67,-0.112,0.79,0.162
37.68,-0.367,0.999,-0.131
37.69,-0.244,0.996,-0.127
37.7,-0.151,0.953,0.003
37.71,-0.12,1.091,0.202
37.72,-0.156,0.699,0.036
37.73,-0.452,1.168,-0.169
37.74,-0.132,0.925,-0.061
37.75,-0.151,1.194,0.051
37.76,-0.129,0.736,0.151
37.77,-0.288,0.909,-0.011
37.78,-0.305,1.162,-0.202
37.79,-0.209,0.853,0.033
37.8,-0.132,1.144,0.116
37.81,-0.105,0.746,0.156
37.82,-0.384,1.103,-0.139
37.83,-0.219,0.858,-0.146
37.84,-0.19,1.136,0.047
37.85,-0.07,0.935,0.14
37.86,-0.209,0.765,0.034
37.87,-0.353,1.206,-0.13
37.88,-0.149,0.906,-0.067
37.89,-0.169,1.18,0.116
37.9,-0.085,0.671,0.153
37.91,-0.329,1.041,-0.053
37.92,-0.266,0.997,-0.169
37.93,-0.176,0.942,-0.054
37.94,-0.134,1.082,0.147
37.95,-0.111,0.744,0.107
37.96,-0.406,1.17,-0.144
37.97,-0.267,0.781,-0.122
37.98,-0.271,1.239,0.105
37.99,-0.017,0.809,0.134
38.0,-0.232,0.881,-0.016
38.01,-0.338,1.075,-0.159
38.02,-0.241,0.964,-0.038
38.03,-0.121,1.171,0.07
38.04,-0.09,0.628,0.132
38.05,-0.381,1.152,-0.039
38.06,-0.301,0.87,-0.138
38.07,-0.152,1.023,-0.099
38.08,-0.076,0.967,0.173
38.09,-0.144,0.808,0.087
38.1,-0.364,1.152,-0.152
38.11,-0.211,0.816,-0.104
38.12,-0.2,1.271,0.077
38.13,-0.013,0.723,0.154
38.14,-0.3,1.01,0.004
38.15,-0.333,0.973,-0.13
38.16,-0.16,1.057,-0.07
38.17,-0.178,1.024,0.123
38.18,-0.09,0.68,0.176
38.19,-0.345,1.175,-0.118
38.2,-0.321,0.811,-0.131
38.21,-0.246,1.135,-0.019
38.22,-0.064,0.859,0.177
38.23,-0.089,0.973,0.082
38.24,-0.389,0.985,-0.187
38.25,-0.244,0.841,-0.071
38.26,-0.174,1.321,0.085
38.27,-0.056,0.717,0.084
38.28,-0.307,1.051,-0.009
38.29,-0.34,0.885,-0.123
38.3,-0.125,1.131,-0.085
38.31,-0.208,0.906,0.132
38.32,-0.094,0.77,0.124
38.33,-0.354,1.158,-0.091
38.34,-0.282,0.798,-0.154
38.35,-0.217,1.179,0.0
38.36,-0.046,0.825,0.184
38.37,-0.224,1.039,0.045
38.38,-0.333,0.887,-0.191
38.39,-0.166,1.049,-0.055
38.4,-0.375,1.083,0.229
38.41,-0.111,0.681,0.167
38.42,-0.271,1.105,-0.053
38.43,-0.313,0.836,-0.184
38.44,-0.256,1.142,-0.017
38.45,-0.068,0.812,0.155
38.46,-0.146,1.023,0.081
38.47,-0.295,0.849,-0.167
38.48,-0.275,1.068,-0.064
38.49,-0.074,1.071,0.03
38.5,-0.11,0.761,0.205
38.51,-0.226,1.069,-0.006
38.52,-0.314,0.899,-0.149
38.53,-0.205,1.216,-0.097
38.54,-0.179,0.763,0.085
38.55,-0.115,0.936,0.156
38.56,-0.289,0.988,-0.102
38.57,-0.357,0.925,-0.117
38.58,-0.222,1.039,-0.036
38.59,-0.023,0.844,0.182
38.6,-0.219,1.086,0.045
38.61,-0.344,0.79,-0.158
38.62,-0.232,1.18,-0.046
38.63,-0.046,1.01,0.006
38.64,-0.092,0.795,0.148
38.65,-0.263,0.997,0.021
38.66,-0.246,0.949,-0.159
38.67,-0.212,1.141,-0.055
38.68,-0.146,0.76,0.088
38.69,-0.076,1.081,0.169
38.7,-0.314,0.894,-0.119
38.71,-0.337,1.001,-0.129
38.72,-0.227,0.967,0.021
38.73,-0.097,0.917,0.232
38.74,-0.18,1.031,0.024
38.75,-0.339,0.818,-0.159
38.76,-0.253,1.24,-0.044
38.77,-0.086,0.867,0.032
38.78,-0.088,0.896,0.146
38.79,-0.259,0.92,-0.046
38.8,-0.313,1.057,-0.127
38.81,-0.203,1.063,-0.054
38.82,-0.094,0.784,0.113
38.83,-0.138,1.056,0.156
38.84,-0.272,0.857,-0.162
38.85,-0.299,1.105,-0.136
38.86,-0.21,0.934,0.05
38.87,-0.011,1.006,0.149
38.88,-0.181,0.921,0.026
38.89,-0.408,0.916,-0.124
38.9,-0.136,1.257,-0.054
38.91,-0.174,0.847,0.054
38.92,-0.123,0.94,0.139
38.93,-0.292,0.863,-0.024
38.94,-0.34,1.154,-0.166
38.95,-0.187,0.917,-0.07
38.96,-0.164,0.902,0.182
38.97,-0.097,1.018,0.126
38.98,-0.288,0.82,-0.188
38.99,-0.302,1.132,-0.106
39.0,-0.16,0.989,0.067
39.01,-0.075,1.008,0.105
39.02,-0.157,0.792,0.013
39.03,-0.391,1.073,-0.12
39.04,-0.195,1.121,-0.051
39.05,-0.13,0.83,0.075
39.06,-0.134,0.955,0.156
39.07,-0.273,0.845,-0.042
39.08,-0.333,1.221,-0.182
39.09,-0.167,0.806,-0.064
39.1,-0.154,1.044,0.18
39.11,-0.13,0.885,0.136
39.12,-0.385,0.917,-0.175
39.13,-0.208,1.052,-0.097
39.14,-0.148,0.96,0.089
39.15,-0.082,1.078,0.107
39.16,-0.23,0.699,0.028
39.17,-0.355,1.158,-0.132
39.18,-0.254,1.079,-0.049
39.19,-0.139,0.938,-0.015
39.2,-0.124,0.842,0.149
39.21,-0.312,0.896,-0.044
39.22,-0.357,1.229,-0.177
39.23,-0.103,0.823,-0.041
39.24,-0.186,1.147,0.207
39.25,-0.106,0.72,0.048
39.26,-0.402,1.141,-0.141
39.27,-0.196,0.881,-0.078
39.28,-0.114,1.186,0.061
39.29,-0.082,0.857,0.135
39.3,-0.308,0.799,0.022
39.31,-0.304,1.183,-0.132
39.32,-0.087,0.902,-0.08
39.33,-0.171,1.131,0.079
39.34,-0.139,0.706,0.189
39.35,-0.364,1.073,-0.103
39.36,-0.272,0.927,-0.162
39.37,-0.18,0.951,0.001
39.38,-0.092,1.086,0.195
39.39,-0.146,0.732,0.035
39.4,-0.394,1.167,-0.14
39.41,-0.187,0.86,-0.08
39.42,-0.069,1.254,0.035
39.43,-0.099,0.725,0.167
39.44,-0.388,0.946,0.056
39.45,-0.255,1.06,-0.195
39.46,-0.244,0.891,-0.033
39.47,-0.152,1.103,0.077
39.48,-0.099,0.682,0.182
39.49,-0.397,1.172,-0.098
39.5,-0.242,0.798,-0.157
39.51,-0.191,1.112,-0.013
39.52,-0.123,0.934,0.156
39.53,-0.089,0.825,0.055
39.54,-0.407,1.152,-0.159
39.55,-0.206,0.826,-0.088
39.56,-0.174,1.263,0.06
39.57,-0.049,0.638,0.167
39.58,-0.293,1.038,-0.009
39.59,-0.31,0.972,-0.161
39.6,-0.142,0.991,-0.069
39.61,-0.156,1.014,0.1
39.62,-0.133,0.702,0.17
39.63,-0.389,1.183,-0.093
39.64,-0.216,0.788,-0.163
39.65,-0.236,1.182,-0.006
39.66,-0.089,0.819,0.192
39.67,-0.098,0.944,0.064
39.68,-0.396,0.99,-0.175
39.69,-0.241,0.898,-0.049
39.7,-0.085,1.221,0.023
39.71,-0.068,0.645,0.155
39.72,-0.312,1.104,0.004
39.73,-0.281,0.881,-0.142
39.74,-0.189,1.092,-0.062
39.75,-0.103,0.891,0.075
39.76,-0.121,0.819,0.142
39.77,-0.351,1.127,-0.081
39.78,-0.243,0.778,-0.148
39.79,-0.231,1.155,0.0
39.8,-0.065,0.809,0.196
39.81,-0.108,1.047,0.03
39.82,-0.391,0.866,-0.173
39.83,-0.242,1.012,-0.061
39.84,-0.115,1.145,0.075
39.85,-0.019,0.706,0.115
39.86,-0.376,1.106,0.012
39.87,-0.276,0.828,-0.129
39.88,-0.182,1.22,-0.081
39.89,-0.123,0.784,0.113
39.9,-0.2,0.952,0.161
39.91,-0.252,1.017,-0.143
39.92,-0.248,0.913,-0.165
39.93,-0.259,1.153,0.054
39.94,0.001,0.773,0.183
39.95,-0.237,1.087,0.023
39.96,-0.342,0.787,-0.137
39.97,-0.281,1.156,-0.01
39.98,-0.008,0.973,0.034
39.99,-0.13,0.846,0.14
40.0,-0.332,1.039,-0.032
40.01,-0.239,0.891,-0.159
40.02,-0.207,1.162,-0.051
40.03,-0.157,0.772,0.165
40.04,-0.163,1.106,0.135
40.05,-0.281,0.804,-0.18
40.06,-0.303,1.123,-0.127
40.07,-0.089,0.966,0.031
40.08,-0.052,0.899,0.151
40.09,-0.228,0.941,0.024
40.1,-0.317,0.944,-0.124
40.11,-0.179,1.195,-0.104
40.12,-0.064,0.764,0.069
40.13,-0.164,1.047,0.148
40.14,-0.26,0.873,-0.064
40.15,-0.279,1.103,-0.153
40.16,-0.182,0.969,-0.039
40.17,-0.139,0.911,0.165
40.18,-0.204,1.048,0.117
40.19,-0.357,0.812,-0.129
40.2,-0.272,1.156,-0.089
40.21,-0.102,0.917,0.067
40.22,-0.032,1.035,0.155
40.23,-0.2,0.834,0.005
40.24,-0.359,1.027,-0.149
40.25,-0.191,1.132,-0.036
40.26,-0.052,0.843,0.069
40.27,-0.174,0.984,0.156
40.28,-0.305,0.825,-0.064
40.29,-0.322,1.2,-0.152
40.3,-0.155,0.854,-0.041
40.31,-0.189,1.01,0.168
40.32,-0.226,0.912,0.148
40.33,-0.264,0.906,-0.163
40.34,-0.312,1.124,-0.103
40.35,-0.117,0.889,0.052
40.36,-0.055,1.089,0.142
40.37,-0.191,0.754,0.013
40.38,-0.401,1.124,-0.19
40.39,-0.159,1.024,-0.038
40.4,-0.093,0.978,0.06
40.41,-0.109,0.904,0.169
40.42,-0.315,0.843,-0.055
40.43,-0.296,1.231,-0.173
40.44,-0.106,0.819,-0.065
40.45,-0.177,1.114,0.186
40.46,-0.078,0.804,0.097
40.47,-0.409,1.024,-0.11
40.48,-0.187,1.023,-0.134
40.49,-0.132,1.017,0.076
40.5,-0.083,0.989,0.139
40.51,-0.254,0.719,0.012
40.52,-0.351,1.247,-0.132
40.53,-0.193,0.941,-0.028
40.54,-0.161,1.012,0.064
40.55,-0.09,0.767,0.16
40.56,-0.354,0.985,-0.035
40.57,-0.386,1.127,-0.164
40.58,-0.147,0.825,-0.047
40.59,-0.213,1.179,0.172
40.6,-0.04,0.723,0.089
40.61,-0.38,1.104,-0.132
40.62,-0.266,0.911,-0.115
40.63,-0.076,1.115,0.006
40.64,-0.06,0.9,0.139
40.65,-0.186,0.71,-0.01
40.66,-0.349,1.267,-0.096
40.67,-0.103,0.892,-0.132
40.68,-0.161,1.141,0.091
40.69,-0.086,0.709,0.161
40.7,-0.328,1.039,-0.043
40.71,-0.407,1.001,-0.129
40.72,-0.133,0.893,-0.065
40.73,-0.183,1.155,0.194
40.74,-0.053,0.663,0.046
40.75,-0.439,1.169,-0.09
40.76,-0.205,0.839,-0.11
40.77,-0.232,1.237,0.08
40.78,-0.044,0.782,0.102
40.79,-0.275,0.852,0.052
40.8,-0.373,1.142,-0.118
40.81,-0.057,0.963,-0.103
40.82,-0.23,1.15,0.08
40.83,-0.032,0.687,0.164
40.84,-0.466,1.201,-0.047
40.85,-0.275,0.747,-0.175
40.86,-0.195,1.137,-0.062
40.87,-0.115,0.919,0.186
40.88,-0.132,0.89,0.064
40.89,-0.338,1.009,-0.115
40.9,-0.224,0.862,-0.109
40.91,-0.184,1.293,0.077
40.92,-0.037,0.633,0.143
40.93,-0.237,1.059,0.035
40.94,-0.313,0.892,-0.106
40.95,-0.184,1.103,-0.108
40.96,-0.132,0.968,0.083
40.97,-0.055,0.788,0.138
40.98,-0.323,1.135,-0.047
40.99,-0.341,0.792,-0.133
41.0,-0.192,1.145,-0.045
41.01,-0.15,0.839,0.181
41.02,-0.129,1.012,0.089
41.03,-0.324,0.936,-0.126
41.04,-0.18,0.939,-0.116
41.05,-0.247,1.158,0.069
41.06,-0.042,0.732,0.141
41.07,-0.22,1.073,0.045
41.08,-0.382,0.833,-0.107
41.09,-0.216,1.193,-0.105
41.1,-0.164,0.873,0.079
41.11,-0.065,0.897,0.139
41.12,-0.333,1.007,-0.029
41.13,-0.272,0.919,-0.178
41.14,-0.268,1.115,-0.002
41.15,-0.114,0.792,0.129
41.16,-0.201,1.101,0.115
41.17,-0.324,0.782,-0.117
41.18,-0.275,1.048,-0.153
41.19,-0.18,1.053,0.055
41.2,-0.082,0.877,0.141
41.21,-0.212,1.028,0.062
41.22,-0.325,0.837,-0.159
41.23,-0.235,1.224,-0.083
41.24,-0.084,0.84,0.018
41.25,-0.107,0.97,0.149
41.26,-0.274,0.902,0.011
41.27,-0.274,1.1,-0.155
41.28,-0.206,1.031,-0.102
41.29,-0.131,0.782,0.128
41.3,-0.184,1.107,0.158
41.31,-0.292,0.805,-0.115
41.32,-0.346,1.096,-0.144
41.33,-0.113,0.825,-0.023
41.34,-0.129,1.111,0.177
41.35,-0.203,0.919,0.066
41.36,-0.448,0.892,-0.103
41.37,-0.143,1.171,-0.057
41.38,0.036,0.964,-0.004
41.39,-0.198,0.995,0.143
41.4,-0.178,0.763,-0.007
41.41,-0.356,1.233,-0.141
41.42,-0.133,0.953,-0.106
41.43,-0.168,0.872,0.107
41.44,-0.127,0.938,0.201
41.45,-0.319,0.911,-0.1
41.46,-0.311,1.147,-0.159
41.47,-0.212,0.825,-0.003
41.48,-0.112,1.125,0.18
41.49,-0.148,0.809,0.055
41.5,-0.336,1.048,-0.172
41.51,-0.172,1.112,-0.084
41.52,-0.298,1.01,0.1
41.53,-0.072,0.921,0.165
41.54,-0.24,0.746,-0.001
41.55,-0.387,1.233,-0.131
41.56,-0.126,0.898,-0.094
41.57,-0.15,1.067,0.089
41.58,-0.1,0.8,0.166
41.59,-0.354,0.97,-0.063
41.6,-0.306,1.083,-0.143
41.61,-0.162,0.86,-0.049
41.62,-0.144,1.126,0.178
41.63,-0.073,0.729,0.07
41.64,-0.378,1.167,-0.157
41.65,-0.231,0.835,-0.071
41.66,-0.126,1.246,0.045
41.67,-0.056,0.704,0.142
41.68,-0.243,0.876,-0.013
41.69,-0.323,1.102,-0.132
41.7,-0.305,0.939,-0.083
41.71,-0.145,1.131,0.088
41.72,-0.091,0.668,0.138
41.73,-0.368,1.138,-0.056
41.74,-0.372,0.835,-0.123
41.75,-0.172,1.051,-0.025
41.76,-0.113,0.977,0.182
41.77,-0.154,0.815,0.071
41.78,-0.331,1.117,-0.12
41.79,-0.228,0.786,-0.105
41.8,-0.187,1.281,0.047
41.81,-0.014,0.694,0.153
41.82,-0.223,1.018,0.009
41.83,-0.356,0.946,-0.134
41.84,-0.193,1.015,-0.108
41.85,-0.138,1.07,0.098
41.86,-0.081,0.686,0.137
41.87,-0.328,1.146,-0.049
41.88,-0.297,0.787,-0.174
41.89,-0.208,1.09,-0.043
41.9,-0.117,0.855,0.178
41.91,-0.145,0.833,-0.053
41.92,-0.118,1.027,0.121
41.93,-0.183,0.881,0.156
41.94,-0.298,0.975,-0.142
41.95,-0.274,1.025,-0.13
41.96,-0.164,0.921,0.056
41.97,-0.074,1.114,0.162
41.98,-0.143,0.714,-0.023
41.99,-0.344,1.174,-0.167
42.0,-0.238,0.981,-0.022
42.01,-0.148,1.041,0.064
42.02,-0.105,0.82,0.148
42.03,-0.321,0.878,-0.037
42.04,-0.255,1.205,-0.168
42.05,-0.184,0.8,-0.07
42.06,-0.109,1.083,0.12
42.07,-0.116,0.755,0.117
42.08,-0.35,1.059,-0.108
42.09,-0.311,0.929,-0.102
42.1,-0.101,1.028,0.069
42.11,-0.106,1.011,0.118
42.12,-0.197,0.706,0.049
42.13,-0.375,1.231,-0.135
42.14,-0.152,0.924,-0.091
42.15,-0.175,1.132,0.058
42.16,-0.029,0.733,0.164
42.17,-0.311,0.975,-0.034
42.18,-0.335,1.064,-0.169
42.19,-0.169,0.871,-0.1
42.2,-0.111,1.092,0.123
42.21,-0.118,0.704,0.138
42.22,-0.365,1.173,-0.13
42.23,-0.314,0.814,-0.131
42.24,-0.205,1.098,0.037
42.25,-0.061,0.945,0.16
42.26,-0.167,0.818,0.034
42.27,-0.351,1.133,-0.11
42.28,-0.199,0.859,-0.123
42.29,-0.165,1.269,0.072
42.3,-0.096,0.676,0.141
42.31,-0.337,1.021,0.019
42.32,-0.314,0.983,-0.131
42.33,-0.151,0.987,-0.072
42.34,-0.05,0.951,0.002
42.35,-0.056,0.712,0.139
42.36,-0.327,1.216,-0.088
42.37,-0.27,0.723,-0.189
42.38,-0.174,1.171,0.008
42.39,-0.035,0.863,0.186
42.4,-0.241,1.041,0.037
42.41,-0.292,0.873,-0.13
42.42,-0.202,1.076,-0.051
42.43,-0.087,1.078,0.022
42.44,-0.09,0.707,0.139
42.45,-0.323,1.112,0.023
42.46,-0.294,0.839,-0.173
42.47,-0.246,1.145,-0.064
42.48,-0.057,0.787,0.102
42.49,-0.117,0.958,0.167
42.5,-0.318,1.031,-0.1
42.51,-0.351,0.894,-0.125
42.52,-0.235,1.041,-0.024
42.53,-0.052,0.859,0.186
42.54,-0.216,1.113,0.065
42.55,-0.35,0.812,-0.144
42.56,-0.235,1.118,-0.079
42.57,-0.138,0.998,0.065
42.58,-0.064,0.846,0.158
42.59,-0.221,1.007,-0.002
42.6,-0.341,0.897,-0.131
42.61,-0.231,1.196,-0.04
42.62,-0.127,0.772,0.098
42.63,-0.104,0.996,0.148
42.64,-0.336,0.915,-0.059
42.65,-0.282,1.017,-0.146
42.66,-0.232,1.012,-0.056
42.67,-0.084,0.871,0.161
42.68,-0.151,1.088,0.105
42.69,-0.294,0.798,-0.13
42.7,-0.222,1.158,-0.142
42.71,-0.146,0.946,0.064
42.72,-0.04,0.982,0.157
42.73,-0.194,0.891,0.022
42.74,-0.378,0.996,-0.113
42.75,-0.251,1.174,-0.048
42.76,-0.12,0.844,0.05
42.77,-0.105,0.989,0.148
42.78,-0.275,0.813,-0.047
42.79,-0.346,1.171,-0.153
42.8,-0.161,0.872,-0.047
42.81,-0.135,0.938,0.124
42.82,-0.183,0.955,0.152
42.83,-0.318,0.91,-0.107
42.84,-0.327,1.133,-0.121
42.85,-0.141,0.877,0.001
42.86,-0.115,1.127,0.167
42.87,-0.182,0.777,0.055
42.88,-0.391,1.083,-0.157
42.89,-0.248,1.041,-0.046
42.9,-0.131,0.976,0.031
42.91,-0.088,0.89,0.145
42.92,-0.268,0.804,-0.005
42.93,-0.37,1.229,-0.148
42.94,-0.18,0.869,-0.05
42.95,-0.194,1.05,0.108
42.96,-0.161,0.771,0.133
42.97,-0.323,1.018,-0.079
42.98,-0.313,1.059,-0.16
42.99,-0.104,0.821,0.002
43.0,-0.132,1.133,0.187
43.01,-0.182,0.741,0.055
43.02,-0.364,1.147,-0.154
43.03,-0.209,0.876,-0.084
43.04,-0.136,1.186,0.039
43.05,-0.089,0.821,0.141
43.06,-0.275,0.847,-0.003
43.07,-0.309,1.172,-0.152
43.08,-0.165,0.879,-0.085
43.09,-0.138,1.125,0.049
43.1,-0.046,0.647,0.115
43.11,-0.379,1.143,-0.06
43.12,-0.303,0.927,-0.16
43.13,-0.217,0.908,0.004
43.14,-0.131,1.043,0.197
43.15,-0.193,0.765,0.061
43.16,-0.41,1.148,-0.158
43.17,-0.199,0.786,-0.102
43.18,-0.313,1.3,0.152
43.19,-0.056,0.618,0.135
43.2,-0.273,1.085,-0.001
43.21,-0.358,0.94,-0.146
43.22,-0.165,1.054,-0.065
43.23,-0.128,0.993,0.095
43.24,-0.129,0.721,0.161
43.25,-0.358,1.169,-0.076
43.26,-0.22,0.786,-0.189
43.27,-0.227,1.149,0.019
43.28,-0.054,0.809,0.183
43.29,-0.165,0.988,0.063
43.3,-0.392,0.945,-0.144
43.31,-0.227,0.878,-0.101
43.32,-0.105,1.221,0.076
43.33,-0.047,0.705,0.121
43.34,-0.28,1.086,0.025
43.35,-0.353,0.872,-0.126
43.36,-0.138,1.143,-0.098
43.37,-0.149,0.853,0.074
43.38,-0.132,0.855,0.154
43.39,-0.283,1.107,-0.086
43.4,-0.317,0.805,-0.141
43.41,-0.22,1.107,-0.03
43.42,-0.039,0.838,0.193
43.43,-0.199,1.067,0.051
43.44,-0.332,0.851,-0.13
43.45,-0.232,1.038,-0.069
43.46,-0.044,1.088,0.015
43.47,-0.019,0.744,0.128
43.48,-0.292,1.071,0.006
43.49,-0.297,0.853,-0.133
43.5,-0.234,1.193,-0.081
43.51,-0.086,0.786,0.089
43.52,-0.131,1.009,0.131
43.53,-0.341,1.011,-0.044
43.54,-0.338,0.903,-0.163
43.55,-0.242,1.063,-0.033
43.56,-0.077,0.857,0.18
43.57,-0.166,1.105,0.057
43.58,-0.36,0.788,-0.101
43.59,-0.274,1.109,-0.109
43.6,-0.073,1.029,0.063
43.61,-0.075,0.877,0.148
43.62,-0.19,0.957,0.022
43.63,-0.375,0.924,-0.102
43.64,-0.161,1.186,-0.103
43.65,-0.096,0.79,0.073
43.66,-0.129,1.036,0.146
43.67,-0.256,0.896,-0.071
43.68,-0.396,1.05,-0.139
43.69,-0.229,0.928,-0.024
43.7,-0.115,0.952,0.19
43.71,-0.123,1.075,0.084
43.72,-0.351,0.823,-0.106
43.73,-0.269,1.139,-0.128
43.74,-0.077,0.948,0.051
43.75,-0.058,1.0,0.122
43.76,-0.258,0.86,0.005
43.77,-0.318,1.044,-0.145
43.78,-0.18,1.169,-0.08
43.79,-0.094,0.763,0.085
43.8,-0.109,0.989,0.183
43.81,-0.294,0.856,-0.103
43.82,-0.345,1.174,-0.186
43.83,-0.173,0.852,-0.047
43.84,-0.123,1.008,0.16
43.85,-0.18,0.98,0.129
43.86,-0.328,0.874,-0.143
43.87,-0.26,1.097,-0.088
43.88,-0.144,0.962,0.06
43.89,-0.068,1.074,0.107
43.9,-0.164,0.727,0.051
43.91,-0.377,1.115,-0.136
43.92,-0.199,1.104,-0.056
43.93,-0.171,0.926,0.071
43.94,-0.092,0.88,0.146
43.95,-0.312,0.888,0.008
43.96,-0.325,1.249,-0.182
43.97,-0.247,0.76,-0.049
43.98,-0.101,1.168,0.168
43.99,-0.07,0.796,0.073
44.0,-0.377,1.053,-0.153
44.01,-0.22,0.84,-0.132
44.02,-0.148,1.101,0.023
44.03,-0.073,1.009,0.165
44.04,-0.18,0.743,0.012
44.05,-0.42,1.174,-0.143
44.06,-0.128,0.905,-0.071
44.07,-0.17,1.187,0.04
44.08,-0.049,0.66,0.158
44.09,-0.31,1.021,-0.005
44.1,-0.293,1.016,-0.191
44.11,-0.211,0.845,-0.022
44.12,-0.146,1.112,0.158
44.13,-0.076,0.732,0.105
44.14,-0.394,1.138,-0.105
44.15,-0.215,0.757,-0.141
44.16,-0.258,1.219,0.058
44.17,-0.04,0.873,0.134
44.18,-0.173,0.869,0.033
44.19,-0.395,1.137,-0.099
44.2,-0.219,0.905,-0.088
44.21,-0.139,1.259,0.041
44.22,-0.043,0.62,0.134
44.23,-0.366,1.079,0.027
44.24,-0.23,0.892,-0.145
44.25,-0.185,1.047,-0.096
44.26,-0.132,0.975,0.115
44.27,-0.09,0.754,0.128
44.28,-0.388,1.163,-0.092
44.29,-0.218,0.758,-0.176
44.3,-0.226,1.165,0.005
44.31,-0.042,0.83,0.153
44.32,-0.194,1.039,0.106
44.33,-0.375,0.9,-0.163
44.34,-0.22,0.895,-0.098
44.35,-0.061,1.219,0.027
44.36,-0.075,0.713,0.127
44.37,-0.281,1.063,0.018
44.38,-0.31,0.831,-0.125
44.39,-0.158,1.199,-0.098
44.4,-0.18,0.842,0.094
44.41,-0.083,0.821,0.158
44.42,-0.294,1.12,-0.067
44.43,-0.346,0.837,-0.135
44.44,-0.243,1.111,-0.019
44.45,-0.06,0.844,0.179
44.46,-0.186,1.115,0.07
44.47,-0.321,0.849,-0.165
44.48,-0.257,1.062,-0.092
44.49,-0.11,1.106,0.064
44.5,-0.026,0.727,0.145
44.51,-0.27,1.044,0.019
44.52,-0.32,0.876,-0.128
44.53,-0.156,1.187,-0.106
44.54,-0.182,0.794,0.076
44.55,-0.054,0.961,0.146
44.56,-0.315,1.004,-0.048
44.57,-0.308,0.928,-0.17
44.58,-0.214,1.01,-0.066
44.59,-0.077,0.843,0.185
44.6,-0.27,1.132,0.095
44.61,-0.254,0.77,-0.185
44.62,-0.236,1.076,-0.105
44.63,-0.162,0.991,0.073
44.64,-0.012,0.893,0.128
44.65,-0.219,0.965,0.052
44.66,-0.338,0.886,-0.142
44.67,-0.271,1.259,-0.054
44.68,-0.138,0.827,0.035
44.69,-0.123,1.008,0.163
44.7,-0.208,0.845,-0.04
44.71,-0.359,1.155,-0.182
44.72,-0.153,0.938,-0.069
44.73,-0.091,0.9,0.156
44.74,-0.17,1.037,0.147
44.75,-0.31,0.83,-0.119
44.76,-0.268,1.161,-0.123
44.77,-0.152,0.926,0.007
44.78,-0.09,1.049,0.154
44.79,-0.166,0.741,0.012
44.8,-0.402,1.19,-0.159
44.81,-0.137,1.006,-0.081
44.82,-0.11,0.971,0.073
44.83,-0.125,0.898,0.182
44.84,-0.272,0.848,-0.04
44.85,-0.391,1.181,-0.15
44.86,-0.141,0.819,-0.052
44.87,-0.165,1.164,0.158
44.88,-0.139,0.758,0.111
44.89,-0.353,1.052,-0.097
44.9,-0.271,1.0,-0.134
44.91,-0.16,0.967,0.014
44.92,-0.106,1.078,0.223
44.93,-0.063,0.722,0.004
44.94,-0.392,1.154,-0.165
44.95,-0.175,0.923,-0.07
44.96,-0.127,1.183,0.083
44.97,-0.097,0.767,0.142
44.98,-0.336,0.9,-0.016
44.99,-0.276,1.15,-0.144
45.0,-0.104,0.87,-0.11
45.01,-0.12,1.124,0.099
45.02,-0.125,0.684,0.141
45.03,-0.362,1.129,-0.097
45.04,-0.238,0.905,-0.153
45.05,-0.18,1.048,-0.009
45.06,-0.134,0.984,0.196
45.07,-0.152,0.786,0.012
45.08,-0.42,1.162,-0.123
45.09,-0.187,0.832,-0.069
45.1,-0.243,1.26,0.111
45.11,-0.047,0.699,0.17
45.12,-0.295,0.953,0.006
45.13,-0.32,0.993,-0.16
45.14,-0.171,0.957,-0.07
45.15,-0.104,1.049,0.108
45.16,-0.135,0.701,0.141
45.17,-0.375,1.177,-0.051
45.18,-0.29,0.825,-0.156
45.19,-0.203,1.105,-0.014
45.2,-0.115,0.859,0.143
45.21,-0.136,0.907,0.079
45.22,-0.343,1.071,-0.191
45.23,-0.225,0.759,-0.13
45.24,-0.189,1.272,0.105
45.25,0.025,0.744,0.097
45.26,-0.35,1.053,-0.007
45.27,-0.363,0.848,-0.112
45.28,-0.157,1.101,-0.021
45.29,-0.203,0.963,0.087
45.3,-0.062,0.733,0.118
45.31,-0.357,1.196,-0.038
45.32,-0.208,0.754,-0.219
45.33,-0.176,1.144,-0.016
45.34,-0.067,0.861,0.174
45.35,-0.193,0.98,0.071
45.36,-0.302,0.914,-0.151
45.37,-0.271,0.951,-0.046
45.38,-0.08,1.172,0.035
45.39,-0.084,0.658,0.139
45.4,-0.276,1.106,0.044
45.41,-0.274,0.898,-0.113
45.42,-0.226,1.153,-0.101
45.43,-0.115,0.87,0.099
45.44,-0.131,0.907,0.104
45.45,-0.349,1.042,-0.038
45.46,-0.335,0.823,-0.171
45.47,-0.223,1.126,-0.015
45.48,-0.073,0.809,0.178
45.49,-0.203,1.054,0.047
45.5,-0.337,0.839,-0.137
45.51,-0.173,1.023,-0.108
45.52,-0.173,1.053,0.052
45.53,0.063,0.798,0.124
45.54,-0.266,1.081,0.029
45.55,-0.353,0.807,-0.088
45.56,-0.275,1.261,-0.091
45.57,-0.127,0.827,0.099
45.58,-0.123,0.984,0.169
45.59,-0.267,0.88,-0.082
45.6,-0.338,1.074,-0.126
45.61,-0.108,0.899,-0.067
45.62,-0.056,0.965,0.195
45.63,-0.203,1.052,0.101
45.64,-0.363,0.842,-0.15
45.65,-0.281,1.155,-0.096
45.66,-0.11,0.938,0.038
45.67,-0.094,0.978,0.148
45.68,-0.181,0.856,0.01
45.69,-0.346,1.107,-0.117
45.7,-0.197,1.031,-0.08
45.71,-0.116,0.84,0.115
45.72,-0.079,0.994,0.158
45.73,-0.303,0.843,-0.061
45.74,-0.345,1.206,-0.147
45.75,-0.205,0.857,-0.055
45.76,-0.133,0.993,0.157
45.77,-0.115,0.904,0.121
45.78,-0.366,0.91,-0.13
45.79,-0.245,1.094,-0.148
45.8,-0.106,0.961,0.072
45.81,-0.068,1.068,0.135
45.82,-0.196,0.711,0.014
45.83,-0.376,1.178,-0.106
45.84,-0.098,1.019,-0.082
45.85,-0.21,1.01,0.083
45.86,-0.083,0.87,0.145
45.87,-0.32,0.86,-0.031
45.88,-0.433,1.207,-0.153
45.89,-0.152,0.821,-0.045
45.9,-0.104,1.124,0.113
45.91,-0.11,0.78,0.103
45.92,-0.353,1.031,-0.089
45.93,-0.246,0.972,-0.123
45.94,-0.171,0.999,0.053
45.95,-0.078,1.039,0.147
45.96,-0.15,0.71,0.009
45.97,-0.445,1.193,-0.09
45.98,-0.151,0.944,-0.109
45.99,-0.103,1.171,0.068
46.0,-0.09,0.708,0.185
46.01,-0.282,0.938,0.003
46.02,-0.335,1.149,-0.153
46.03,-0.154,0.862,-0.058
46.04,-0.148,1.119,0.121
46.05,-0.083,0.699,0.132
46.06,-0.384,1.141,-0.11
46.07,-0.331,0.85,-0.176
46.08,-0.205,1.031,0.031
46.09,-0.109,1.025,0.195
46.1,-0.15,0.791,0.02
46.11,-0.351,1.148,-0.135
46.12,-0.245,0.845,-0.053
46.13,-0.146,1.243,0.048
46.14,-0.035,0.698,0.15
46.15,-0.278,1.025,0.017
46.16,-0.357,0.986,-0.188
46.17,-0.184,0.967,-0.063
46.18,-0.155,1.106,0.106
46.19,-0.085,0.673,0.14
46.2,-0.383,1.155,-0.11
46.21,-0.229,0.779,-0.124
46.22,-0.161,1.161,-0.049
46.23,-0.066,0.897,0.191
46.24,-0.174,0.865,0.063
46.25,-0.323,1.079,-0.11
46.26,-0.21,0.879,-0.129
46.27,-0.25,1.218,0.085
46.28,-0.001,0.676,0.135
46.29,-0.294,1.109,0.013
46.3,-0.282,0.868,-0.139
46.31,-0.179,1.081,-0.077
46.32,-0.167,0.97,0.109
46.33,-0.07,0.788,0.147
46.34,-0.363,1.117,-0.106
46.35,-0.287,0.778,-0.156
46.36,-0.17,1.192,-0.042
46.37,-0.429,0.808,0.272
46.38,-0.206,1.017,0.088
46.39,-0.293,0.818,-0.143
46.4,-0.231,1.086,-0.085
46.41,-0.109,1.017,0.07
46.42,-0.008,0.898,0.112
46.43,-0.288,1.008,-0.003
46.44,-0.328,0.849,-0.153
46.45,-0.26,1.262,-0.035
46.46,-0.066,0.787,0.065
46.47,-0.122,0.987,0.112
46.48,-0.28,0.897,-0.079
46.49,-0.292,1.053,-0.149
46.5,-0.183,1.047,-0.016
46.51,-0.148,0.811,0.153
46.52,-0.176,1.067,0.088
46.53,-0.31,0.847,-0.147
46.54,-0.251,1.139,-0.108
46.55,-0.122,0.871,0.043
46.56,-0.049,0.996,0.174
46.57,-0.26,0.919,-0.005
46.58,-0.363,0.904,-0.15
46.59,-0.134,1.158,-0.032
46.6,-0.124,0.856,0.107
46.61,-0.131,0.996,0.123
46.62,-0.265,0.889,-0.063
46.63,-0.301,1.163,-0.16
46.64,-0.206,0.901,-0.072
46.65,-0.158,0.903,0.219
46.66,-0.158,0.999,0.058
46.67,-0.382,0.876,-0.136
46.68,-0.251,1.165,-0.093
46.69,-0.051,0.873,0.052
46.7,-0.074,0.972,0.158
46.71,-0.209,0.847,-0.018
46.72,-0.399,1.119,-0.15
46.73,-0.171,0.989,-0.108
46.74,-0.104,0.849,0.099
46.75,-0.174,1.056,0.174
46.76,-0.305,0.83,-0.104
46.77,-0.34,1.124,-0.115
46.78,-0.219,0.876,-0.005
46.79,-0.096,1.049,0.185
46.8,-0.148,0.862,0.041
46.81,-0.373,0.97,-0.16
46.82,-0.338,1.15,0.01
46.83,-0.077,0.876,0.003
46.84,-0.094,0.985,0.171
46.85,-0.26,0.792,-0.036
46.86,-0.371,1.179,-0.141
46.87,-0.164,0.955,-0.079
46.88,-0.145,0.96,0.075
46.89,-0.171,0.898,0.175
46.9,-0.292,0.885,-0.145
46.91,-0.343,1.138,-0.116
46.92,-0.184,0.835,0.005
46.93,-0.081,1.172,0.184
46.94,-0.124,0.747,-0.006
46.95,-0.394,1.057,-0.16
46.96,-0.183,1.098,-0.023
46.97,-0.112,1.03,0.01
46.98,-0.137,0.869,0.151
46.99,-0.258,0.777,0.028
47.0,-0.347,1.278,-0.2
47.01,-0.178,0.785,-0.105
47.02,-0.092,1.073,0.085
47.03,-0.151,0.834,0.175
47.04,-0.366,0.949,-0.104
47.05,-0.286,1.013,-0.118
47.06,-0.197,0.933,0.017
47.07,-0.089,1.17,0.153
47.08,-0.109,0.696,0.019
47.09,-0.364,1.135,-0.154
47.1,-0.282,0.968,0.016
47.11,-0.065,1.14,-0.025
47.12,-0.11,0.865,0.174
47.13,-0.281,0.84,-0.023
47.14,-0.379,1.17,-0.102
47.15,-0.128,0.846,-0.109
47.16,-0.148,1.156,0.066
47.17,-0.083,0.709,0.16
47.18,-0.379,1.071,-0.087
47.19,-0.292,0.909,-0.142
47.2,-0.201,1.168,0.034
47.21,-0.047,0.951,0.135
47.22,-0.226,0.827,0.062
47.23,-0.328,1.08,-0.129
47.24,-0.181,0.895,-0.08
47.25,-0.103,1.245,0.017
47.26,-0.144,0.632,0.167
47.27,-0.192,1.033,-0.01
47.28,-0.374,0.968,-0.113
47.29,-0.178,0.988,-0.074
47.3,-0.159,1.008,0.115
47.31,-0.094,0.731,0.104
47.32,-0.324,1.148,-0.095
47.33,-0.331,0.747,-0.137
47.34,-0.151,1.147,0.015
47.35,-0.075,0.887,0.121
47.36,-0.188,0.971,0.088
47.37,-0.314,0.98,-0.14
47.38,-0.205,0.91,-0.076
47.39,-0.27,1.216,0.01
47.4,-0.052,0.644,0.146
47.41,-0.237,1.113,0.034
47.42,-0.358,0.873,-0.156
47.43,-0.153,1.132,-0.068
47.44,-0.168,0.926,0.097
47.45,-0.042,0.805,0.143
47.46,-0.361,1.108,-0.074
47.47,-0.317,0.793,-0.152
47.48,-0.228,1.156,-0.042
47.49,-0.013,0.865,0.161
47.5,-0.148,1.061,0.075
47.51,-0.366,0.885,-0.134
47.52,-0.194,1.004,-0.107
47.53,-0.206,1.151,0.092
47.54,-0.037,0.722,0.139
47.55,-0.254,1.056,0.056
47.56,-0.281,0.86,-0.128
47.57,-0.208,1.263,-0.088
47.58,-0.174,0.795,0.091
47.59,-0.094,0.921,0.177
47.6,-0.323,1.016,-0.061
47.61,-0.345,0.886,-0.172
47.62,-0.17,1.049,-0.024
47.63,-0.142,0.853,0.206
47.64,-0.16,1.111,0.069
47.65,-0.258,0.773,-0.172
47.66,-0.248,1.084,-0.085
47.67,-0.099,1.044,0.067
47.68,-0.108,0.854,0.147
47.69,-0.217,1.013,0.029
47.7,-0.369,0.912,-0.091
47.71,-0.202,1.192,-0.099
47.72,-0.17,0.795,0.071
47.73,-0.083,1.003,0.15
47.74,-0.336,0.898,-0.028
47.75,-0.346,1.024,-0.197
47.76,-0.195,0.944,0.0
47.77,-0.094,0.899,0.144
47.78,-0.149,1.077,0.112
47.79,-0.359,0.813,-0.127
47.8,-0.246,1.131,-0.121
47.81,-0.171,0.952,0.068
47.82,-0.069,1.015,0.119
47.83,-0.172,0.857,0.028
47.84,-0.366,0.957,-0.164
47.85,-0.181,1.199,-0.055
47.86,-0.112,0.832,0.055
47.87,-0.178,0.959,0.202
47.88,-0.276,0.865,-0.022
47.89,-0.372,1.191,-0.192
47.9,-0.171,0.843,-0.039
47.91,-0.115,1.017,0.13
47.92,-0.177,0.986,0.151
47.93,-0.35,0.859,-0.128
47.94,-0.274,1.09,-0.098
47.95,-0.138,0.883,0.021
47.96,-0.08,1.047,0.133
47.97,-0.144,0.756,0.042
47.98,-0.427,1.115,-0.133
47.99,-0.215,1.064,-0.075
48.0,-0.083,1.073,0.064
48.01,-0.139,0.818,0.188
48.02,-0.277,0.916,-0.065
48.03,-0.334,1.184,-0.119
48.04,-0.162,0.831,-0.07
48.05,-0.146,1.113,0.156
48.06,-0.101,0.73,0.115
48.07,-0.371,1.111,-0.153
48.08,-0.304,0.904,-0.094
48.09,-0.186,1.092,0.063
48.1,-0.033,0.995,0.126
48.11,-0.225,0.702,0.016
48.12,-0.379,1.187,-0.14
48.13,-0.088,0.985,-0.067
48.14,-0.099,1.152,0.02
48.15,-0.122,0.647,0.187
48.16,-0.34,0.991,-0.026
48.17,-0.304,1.07,-0.162
48.18,-0.232,0.899,-0.029
48.19,-0.189,1.091,0.16
48.2,-0.07,0.708,0.115
48.21,-0.409,1.132,-0.126
48.22,-0.275,0.82,-0.137
48.23,-0.127,1.201,0.035
