t,ax,ay,az
0.0,-0.15,1.032,0.16
0.01,-0.233,0.803,0.058
0.02,-0.366,1.11,-0.155
0.03,-0.228,0.807,-0.061
0.04,-0.089,1.188,0.056
0.05,-0.078,0.861,0.14
0.06,-0.327,0.93,-0.003
0.07,-0.35,0.941,-0.115
0.08,-0.121,0.967,-0.104
0.09,-0.093,1.172,0.078
0.1,-0.134,0.686,0.12
0.11,-0.363,1.109,-0.023
0.12,-0.238,0.878,-0.127
0.13,-0.108,1.184,-0.043
0.14,-0.166,0.844,0.117
0.15,-0.14,0.832,0.058
0.16,-0.355,1.113,-0.071
0.17,-0.158,0.894,-0.166
0.18,-0.214,1.118,-0.016
0.19,-0.105,0.734,0.179
0.2,-0.159,1.096,0.111
0.21,-0.285,0.875,-0.141
0.22,-0.214,0.975,-0.124
0.23,-0.186,1.067,0.077
0.24,-0.275,0.863,0.335
0.25,-0.29,1.041,0.024
0.26,-0.295,0.845,-0.138
0.27,-0.184,1.224,-0.096
0.28,-0.133,0.791,0.059
0.29,-0.092,1.03,0.142
0.3,-0.365,0.833,-0.084
0.31,-0.24,1.146,-0.154
0.32,-0.159,0.922,-0.05
0.33,-0.217,0.893,0.129
0.34,-0.139,0.948,0.117
0.35,-0.353,0.872,-0.103
0.36,-0.271,1.106,-0.093
0.37,-0.14,0.892,-0.023
0.38,-0.129,1.055,0.158
0.39,-0.177,0.836,0.076
0.4,-0.336,1.057,-0.117
0.41,-0.22,0.977,-0.123
0.42,-0.159,1.047,0.071
0.43,-0.046,1.016,0.127
0.44,-0.258,0.777,-0.002
0.45,-0.299,1.145,-0.158
0.46,-0.232,0.94,-0.029
0.47,-0.111,1.112,0.05
0.48,-0.133,0.763,0.164
0.49,-0.329,0.984,-0.021
0.5,-0.224,1.092,-0.147
0.51,-0.167,0.885,-0.084
0.52,-0.156,1.042,0.119
0.53,-0.135,0.749,0.133
0.54,-0.343,1.176,-0.101
0.55,-0.343,0.822,-0.128
0.56,-0.174,1.082,-0.0
0.57,-0.127,0.925,0.157
0.58,-0.139,0.866,0.058
0.59,-0.352,1.069,-0.142
0.6,-0.216,0.857,-0.081
0.61,-0.187,1.255,0.052
0.62,0.025,0.747,0.128
0.63,-0.248,1.055,0.032
0.64,-0.346,0.847,-0.127
0.65,-0.188,1.063,-0.098
0.66,-0.137,1.064,0.062
0.67,-0.105,0.747,0.149
0.68,-0.312,1.092,-0.011
0.69,-0.292,0.876,-0.12
0.7,-0.174,1.163,-0.068
0.71,-0.083,0.755,0.094
0.72,-0.175,0.971,0.134
0.73,-0.324,0.993,-0.059
0.74,-0.274,0.976,-0.157
0.75,-0.207,1.039,-0.044
0.76,-0.093,0.817,0.159
0.77,-0.203,1.107,0.088
0.78,-0.321,0.857,-0.116
0.79,-0.272,1.088,-0.129
0.8,-0.178,0.935,0.027
0.81,-0.038,1.014,0.142
0.82,-0.275,0.988,0.059
0.83,-0.344,0.85,-0.145
0.84,-0.203,1.118,-0.074
0.85,-0.091,0.951,0.059
0.86,-0.13,1.065,0.151
0.87,-0.276,0.76,-0.015
0.88,-0.298,1.097,-0.126
0.89,-0.059,1.041,-0.066
0.9,-0.128,0.945,0.091
0.91,-0.241,0.853,0.202
0.92,-0.29,0.886,-0.002
0.93,-0.265,1.226,-0.184
0.94,-0.202,0.806,-0.058
0.95,-0.065,1.077,0.052
0.96,-0.125,0.815,0.124
0.97,-0.308,1.078,-0.086
0.98,-0.271,0.928,-0.159
0.99,-0.215,0.969,0.022
1.0,-0.041,1.099,0.141
1.01,-0.178,0.791,0.022
1.02,-0.333,1.114,-0.143
1.03,-0.255,0.896,-0.038
1.04,-0.131,1.248,0.032
1.05,-0.066,0.741,0.136
1.06,-0.29,0.911,0.008
1.07,-0.276,1.038,-0.125
1.08,-0.139,0.97,-0.087
1.09,-0.199,0.958,0.034
1.1,-0.284,0.982,-0.138
1.11,-0.279,1.161,-0.053
1.12,-0.058,0.898,0.027
1.13,-0.123,1.029,0.165
1.14,-0.246,0.775,-0.014
1.15,-0.384,1.199,-0.098
1.16,-0.11,0.921,-0.102
1.17,-0.102,0.986,0.093
1.18,-0.105,0.85,0.086
1.19,-0.426,0.97,-0.013
1.2,-0.266,1.135,-0.16
1.21,-0.157,0.852,-0.035
1.22,-0.248,1.109,0.137
1.23,-0.191,0.761,0.101
1.24,-0.33,1.135,-0.084
1.25,-0.303,0.835,-0.13
1.26,-0.178,1.028,0.024
1.27,-0.105,1.021,0.154
1.28,-0.199,0.776,0.034
1.29,-0.325,1.099,-0.099
1.3,-0.233,0.875,-0.065
1.31,-0.147,1.265,0.052
1.32,-0.082,0.728,0.15
1.33,-0.229,0.956,-0.002
1.34,-0.314,0.965,-0.099
1.35,-0.083,1.025,-0.121
1.36,-0.168,1.055,0.094
1.37,-0.089,0.682,0.139
1.38,-0.325,1.165,-0.023
1.39,-0.288,0.865,-0.165
1.4,-0.229,1.126,-0.063
1.41,-0.062,0.865,0.12
1.42,-0.183,0.991,0.144
1.43,-0.338,1.0,-0.076
1.44,-0.219,0.868,-0.152
1.45,-0.185,1.111,-0.038
1.46,-0.095,0.776,0.185
1.47,-0.158,1.158,0.082
1.48,-0.384,0.811,-0.095
1.49,-0.217,1.032,-0.099
1.5,-0.175,1.084,0.049
1.51,-0.048,0.869,0.12
1.52,-0.246,0.984,0.069
1.53,-0.303,0.838,-0.119
1.54,-0.24,1.173,-0.074
1.55,-0.093,0.859,0.045
1.56,-0.081,1.028,0.127
1.57,-0.257,0.824,-0.002
1.58,-0.279,1.067,-0.109
1.59,-0.145,1.079,-0.068
1.6,-0.113,0.85,0.087
1.61,-0.168,0.971,0.139
1.62,-0.34,0.864,-0.052
1.63,-0.297,1.212,-0.132
1.64,-0.189,0.839,-0.037
1.65,-0.089,0.999,0.101
1.66,-0.201,0.874,0.133
1.67,-0.303,1.029,-0.084
1.68,-0.269,0.995,-0.118
1.69,-0.143,0.905,0.016
1.7,-0.144,1.103,0.18
1.71,-0.177,0.747,0.04
1.72,-0.397,1.107,-0.095
1.73,-0.197,0.916,-0.121
1.74,-0.099,1.21,0.062
1.75,-0.052,0.831,0.107
1.76,-0.27,0.839,0.001
1.77,-0.339,1.116,-0.094
1.78,-0.104,0.925,-0.078
1.79,-0.124,1.154,0.064
1.8,-0.098,0.67,0.147
1.81,-0.358,1.098,-0.033
1.82,-0.275,0.926,-0.109
1.83,-0.127,1.057,-0.113
1.84,-0.337,0.943,0.185
1.85,-0.148,0.795,0.131
1.86,-0.304,1.119,-0.111
1.87,-0.292,0.82,-0.117
1.88,-0.25,1.174,-0.011
1.89,-0.063,0.789,0.131
1.9,-0.208,1.083,0.05
1.91,-0.278,0.803,-0.131
1.92,-0.212,1.062,-0.089
1.93,-0.167,1.041,0.043
1.94,-0.049,0.877,0.139
1.95,-0.214,0.985,0.027
1.96,-0.358,0.838,-0.101
1.97,-0.188,1.234,-0.054
1.98,-0.102,0.844,0.021
1.99,-0.109,0.937,0.136
2.0,-0.299,0.881,-0.015
2.01,-0.311,1.096,-0.12
2.02,-0.179,1.043,-0.085
2.03,-0.139,0.836,0.126
2.04,-0.154,0.968,0.127
2.05,-0.336,0.895,-0.013
2.06,-0.312,1.198,-0.14
2.07,-0.201,0.827,-0.075
2.08,-0.09,1.03,0.133
2.09,-0.181,0.905,0.102
2.1,-0.308,0.977,-0.106
2.11,-0.252,0.989,-0.121
2.12,-0.17,0.915,0.001
2.13,-0.125,1.154,0.189
2.14,-0.182,0.758,0.037
2.15,-0.376,1.083,-0.121
2.16,-0.233,0.883,-0.111
2.17,-0.138,1.176,0.058
2.18,-0.074,0.922,0.113
2.19,-0.281,0.823,0.013
2.2,-0.331,1.07,-0.108
2.21,-0.116,0.938,-0.057
2.22,-0.125,1.204,0.046
2.23,-0.105,0.647,0.122
2.24,-0.352,1.102,0.006
2.25,-0.281,0.966,-0.093
2.26,-0.159,1.023,-0.103
2.27,-0.111,0.941,0.083
2.28,-0.213,0.794,0.165
2.29,-0.302,1.187,-0.065
2.3,-0.254,0.771,-0.132
2.31,-0.177,1.109,-0.057
2.32,-0.027,0.781,0.116
2.33,-0.133,1.003,0.107
2.34,-0.301,0.97,-0.094
2.35,-0.281,0.881,-0.142
2.36,-0.173,1.169,0.034
2.37,-0.004,0.833,0.118
2.38,-0.29,1.067,0.064
2.39,-0.305,0.76,-0.126
2.4,-0.229,1.205,-0.042
2.41,-0.058,0.995,-0.006
2.42,-0.086,0.866,0.168
2.43,-0.265,0.96,0.021
2.44,-0.301,0.906,-0.135
2.45,-0.214,1.208,-0.089
2.46,-0.098,0.799,0.08
2.47,-0.095,1.026,0.117
2.48,-0.326,0.9,-0.002
2.49,-0.263,1.135,-0.148
2.5,-0.206,0.952,-0.084
2.51,-0.135,0.906,0.095
2.52,-0.185,0.998,0.141
2.53,-0.275,0.89,-0.054
2.54,-0.288,1.177,-0.151
2.55,-0.204,0.825,-0.022
2.56,-0.108,1.056,0.1
2.57,-0.166,0.83,0.121
2.58,-0.308,1.073,-0.096
2.59,-0.302,0.944,-0.115
2.6,-0.182,0.946,0.042
2.61,-0.11,1.147,0.182
2.62,-0.177,0.729,-0.014
2.63,-0.405,1.092,-0.103
2.64,-0.227,0.87,-0.086
2.65,-0.077,1.188,0.056
2.66,-0.068,0.806,0.114
2.67,-0.219,0.861,0.01
2.68,-0.406,1.074,-0.097
2.69,-0.095,0.939,-0.082
2.7,-0.171,1.031,0.076
2.71,-0.1,0.751,0.127
2.72,-0.392,1.164,0.01
2.73,-0.263,0.813,-0.179
2.74,-0.25,1.084,-0.02
2.75,-0.062,0.833,0.105
2.76,-0.198,0.99,0.139
2.77,-0.261,1.011,-0.065
2.78,-0.242,0.857,-0.13
2.79,-0.232,1.141,-0.017
2.8,-0.078,0.851,0.144
2.81,-0.159,1.078,0.059
2.82,-0.335,0.816,-0.104
2.83,-0.207,1.094,-0.11
2.84,-0.155,1.007,0.025
2.85,-0.028,0.922,0.148
2.86,-0.207,0.96,0.031
2.87,-0.286,0.853,-0.121
2.88,-0.267,1.19,-0.051
2.89,-0.055,0.898,0.037
2.9,-0.11,1.048,0.111
2.91,-0.248,0.807,-0.0
2.92,-0.342,1.07,-0.111
2.93,-0.156,1.028,-0.059
2.94,-0.101,0.92,0.081
2.95,-0.11,0.946,0.121
2.96,-0.336,0.863,-0.01
2.97,-0.322,1.226,-0.135
2.98,-0.156,0.81,-0.09
2.99,-0.147,1.044,0.119
3.0,-0.164,0.835,0.145
3.01,-0.292,1.032,-0.077
3.02,-0.308,0.974,-0.125
3.03,-0.207,0.912,-0.025
3.04,-0.085,1.079,0.138
3.05,-0.131,0.775,0.079
3.06,-0.312,1.13,-0.13
3.07,-0.253,0.833,-0.099
3.08,-0.198,1.184,0.021
3.09,-0.05,0.905,0.148
3.1,-0.198,0.856,0.044
3.11,-0.38,1.045,-0.116
3.12,-0.249,0.864,-0.062
3.13,-0.137,1.205,0.044
3.14,-0.016,0.703,0.118
3.15,-0.25,1.05,0.005
3.16,-0.358,0.868,-0.112
3.17,-0.177,1.071,-0.07
3.18,-0.127,1.0,0.089
3.19,-0.06,0.769,0.12
3.2,-0.354,1.1,-0.004
3.21,-0.303,0.849,-0.135
3.22,-0.198,1.155,-0.052
3.23,-0.083,0.815,0.078
3.24,-0.147,1.014,0.102
3.25,-0.344,0.954,-0.025
3.26,-0.242,0.984,-0.139
3.27,-0.187,1.028,-0.063
3.28,-0.092,0.804,0.114
3.29,-0.245,1.071,0.149
3.3,-0.246,0.863,-0.109
3.31,-0.324,1.085,-0.096
3.32,-0.236,0.854,-0.021
3.33,-0.091,1.04,0.183
3.34,-0.135,0.947,0.042
3.35,-0.336,0.861,-0.112
3.36,-0.227,1.058,-0.115
3.37,-0.13,0.963,0.051
3.38,-0.07,1.114,0.134
3.39,-0.181,0.756,0.022
3.4,-0.389,1.052,-0.123
3.41,-0.223,0.985,-0.058
3.42,-0.074,1.109,0.031
3.43,-0.098,0.884,0.124
3.44,-0.302,0.807,0.003
3.45,-0.332,1.173,-0.093
3.46,-0.212,0.881,-0.071
3.47,-0.111,1.139,0.086
3.48,-0.089,0.699,0.11
3.49,-0.366,1.09,-0.005
3.5,-0.3,1.007,-0.123
3.51,-0.176,0.968,-0.094
3.52,-0.091,0.921,0.086
3.53,-0.208,0.911,0.142
3.54,-0.313,1.083,-0.076
3.55,-0.307,0.828,-0.082
3.56,-0.101,1.158,-0.059
3.57,-0.124,0.817,0.161
3.58,-0.151,1.065,0.023
3.59,-0.331,0.875,-0.085
3.6,-0.242,0.921,-0.097
3.61,-0.133,1.066,-0.018
3.62,-0.011,0.934,0.102
3.63,-0.228,1.027,0.06
3.64,-0.303,0.747,-0.112
3.65,-0.244,1.174,-0.103
3.66,-0.145,0.93,0.052
3.67,-0.014,0.996,0.124
3.68,-0.208,0.871,0.023
3.69,-0.352,0.941,-0.086
3.7,-0.231,1.132,-0.052
3.71,-0.032,0.875,-0.005
3.72,-0.12,1.027,0.146
3.73,-0.251,0.815,-0.008
3.74,-0.34,1.163,-0.1
3.75,-0.186,0.899,-0.097
3.76,-0.096,1.016,0.078
3.77,-0.185,0.876,0.131
3.78,-0.327,0.933,0.0
3.79,-0.267,1.16,-0.134
3.8,-0.163,0.829,-0.078
3.81,-0.125,1.072,0.087
3.82,-0.2,0.786,0.123
3.83,-0.346,1.143,-0.018
3.84,-0.232,0.891,-0.132
3.85,-0.18,1.012,-0.068
3.86,-0.162,1.011,0.145
3.87,-0.173,0.815,0.077
3.88,-0.332,1.134,-0.094
3.89,-0.209,0.779,-0.139
3.9,-0.212,1.183,0.057
3.91,-0.046,0.842,0.135
3.92,-0.195,0.936,0.045
3.93,-0.322,0.915,-0.078
3.94,-0.193,0.967,-0.105
3.95,-0.191,1.23,0.03
3.96,-0.059,0.809,0.134
3.97,-0.226,1.07,0.049
3.98,-0.313,0.812,-0.124
3.99,-0.145,1.184,-0.065
4.0,-0.129,0.961,0.041
4.01,-0.108,0.862,0.16
4.02,-0.254,0.96,-0.009
4.03,-0.351,0.905,-0.111
4.04,-0.225,1.15,-0.075
4.05,-0.049,0.817,0.045
4.06,-0.153,1.058,0.161
4.07,-0.255,0.825,-0.038
4.08,-0.298,1.1,-0.121
4.09,-0.179,0.933,-0.088
4.1,-0.115,0.915,0.12
4.11,-0.141,0.977,0.119
4.12,-0.377,0.878,-0.01
4.13,-0.266,1.176,-0.14
4.14,-0.181,0.838,-0.046
4.15,-0.229,1.027,0.19
4.16,-0.163,0.812,0.08
4.17,-0.316,1.078,-0.054
4.18,-0.271,0.955,-0.129
4.19,-0.167,0.923,-0.03
4.2,-0.125,1.067,0.095
4.21,-0.166,0.766,0.08
4.22,-0.342,1.155,-0.092
4.23,-0.206,0.804,-0.135
4.24,-0.149,1.167,0.011
4.25,0.042,0.852,-0.011
4.26,-0.227,0.936,0.054
4.27,-0.335,1.013,-0.111
4.28,-0.182,0.898,-0.048
4.29,-0.048,1.224,0.017
4.3,-0.051,0.746,0.102
4.31,-0.295,1.038,0.034
4.32,-0.306,0.846,-0.126
4.33,-0.233,1.106,-0.086
4.34,-0.078,1.016,0.055
4.35,-0.227,0.951,0.184
4.36,-0.292,0.951,-0.013
4.37,-0.285,0.947,-0.105
4.38,-0.156,1.112,-0.065
4.39,-0.163,0.781,0.202
4.4,-0.177,1.052,0.097
4.41,-0.339,0.856,-0.031
4.42,-0.241,1.137,-0.164
4.43,-0.239,0.891,-0.015
4.44,-0.112,0.92,0.125
4.45,-0.204,0.972,0.135
4.46,-0.313,0.899,-0.077
4.47,-0.227,1.109,-0.141
4.48,-0.17,0.892,0.014
4.49,-0.166,1.114,0.191
4.5,-0.176,0.824,0.062
4.51,-0.34,1.048,-0.117
4.52,-0.233,0.952,-0.136
4.53,-0.156,1.039,0.035
4.54,-0.315,0.981,0.283
4.55,-0.277,0.789,0.042
4.56,-0.338,1.112,-0.125
4.57,-0.18,0.892,-0.06
4.58,-0.032,1.194,0.017
4.59,-0.1,0.786,0.129
4.6,-0.285,0.964,-0.043
4.61,-0.295,0.997,-0.135
4.62,-0.14,0.98,-0.094
4.63,-0.111,1.068,0.092
4.64,-0.041,0.681,0.101
4.65,-0.382,1.132,0.002
4.66,-0.252,0.833,-0.144
4.67,-0.211,1.088,-0.059
4.68,-0.101,0.864,0.169
4.69,-0.158,0.923,0.124
4.7,-0.318,1.092,-0.092
4.71,-0.304,0.856,-0.119
4.72,-0.197,1.108,-0.033
4.73,-0.121,0.823,0.18
4.74,-0.193,1.119,0.086
4.75,-0.319,0.868,-0.124
4.76,-0.249,1.015,-0.119
4.77,-0.216,1.037,0.022
4.78,-0.076,0.855,0.136
4.79,-0.178,1.038,0.036
4.8,-0.299,0.815,-0.112
4.81,-0.223,1.135,-0.071
4.82,-0.149,0.932,0.07
4.83,-0.09,1.041,0.116
4.84,-0.198,0.841,0.003
4.85,-0.334,1.0,-0.113
4.86,-0.181,1.108,-0.1
4.87,-0.101,0.919,0.029
4.88,-0.11,0.993,0.145
4.89,-0.271,0.818,-0.027
4.9,-0.355,1.233,-0.117
4.91,-0.125,0.879,-0.098
4.92,-0.062,1.02,0.105
4.93,-0.161,0.802,0.102
4.94,-0.38,0.991,-0.04
4.95,-0.238,1.103,-0.117
4.96,-0.156,0.856,-0.063
4.97,-0.171,1.042,0.117
4.98,-0.196,0.758,0.122
4.99,-0.328,1.171,-0.092
5.0,-0.227,0.834,-0.145
5.01,-0.211,1.0,-0.001
5.02,0.063,0.935,0.106
5.03,-0.103,0.88,0.011
5.04,-0.43,1.078,-0.091
5.05,-0.211,0.804,-0.091
5.06,-0.074,1.295,0.026
5.07,-0.084,0.753,0.15
5.08,-0.258,0.99,0.041
5.09,-0.344,0.901,-0.137
5.1,-0.182,1.067,-0.056
5.11,-0.044,1.062,0.022
5.12,-0.125,0.746,0.144
5.13,-0.303,1.062,-0.042
5.14,-0.305,0.89,-0.091
5.15,-0.192,1.154,-0.085
5.16,-0.124,0.808,0.081
5.17,-0.2,1.107,0.148
5.18,-0.291,0.914,-0.057
5.19,-0.279,1.052,-0.131
5.2,-0.223,0.928,-0.037
5.21,-0.112,0.919,0.164
5.22,-0.219,1.057,0.096
5.23,-0.25,0.858,-0.113
5.24,-0.307,1.106,-0.106
5.25,-0.181,0.868,0.012
5.26,-0.094,1.111,0.147
5.27,-0.143,0.857,0.036
5.28,-0.372,0.969,-0.125
5.29,-0.201,1.01,-0.116
5.3,-0.106,0.97,0.052
5.31,-0.129,1.103,0.178
5.32,-0.196,0.764,-0.024
5.33,-0.411,1.101,-0.129
5.34,-0.203,0.913,-0.072
5.35,-0.089,1.165,0.065
5.36,-0.133,0.816,0.125
5.37,-0.328,0.902,0.013
5.38,-0.323,1.099,-0.125
5.39,-0.087,0.935,-0.088
5.4,-0.109,1.122,0.056
5.41,-0.111,0.67,0.081
5.42,-0.388,1.163,-0.019
5.43,-0.226,0.92,-0.143
5.44,-0.199,1.038,-0.033
5.45,-0.144,0.93,0.114
5.46,-0.17,0.844,0.125
5.47,-0.334,1.165,-0.085
5.48,-0.213,0.816,-0.111
5.49,-0.225,1.196,-0.025
5.5,-0.094,0.783,0.163
5.51,-0.148,1.038,0.058
5.52,-0.264,0.882,-0.143
5.53,-0.274,0.986,-0.075
5.54,-0.158,1.166,0.062
5.55,-0.005,0.827,0.135
5.56,-0.241,1.038,0.031
5.57,-0.322,0.788,-0.119
5.58,-0.307,1.163,-0.071
5.59,-0.034,0.931,0.04
5.6,-0.07,0.988,0.111
5.61,-0.257,0.893,-0.033
5.62,-0.359,0.967,-0.091
5.63,-0.207,1.14,-0.047
5.64,-0.03,0.823,0.051
5.65,-0.149,1.078,0.12
5.66,-0.36,0.836,-0.026
5.67,-0.299,1.154,-0.111
5.68,-0.111,0.904,-0.102
5.69,-0.121,0.962,0.106
5.7,-0.195,0.932,0.137
5.71,-0.367,0.944,-0.051
5.72,-0.302,1.077,-0.119
5.73,-0.143,0.853,-0.024
5.74,-0.225,1.115,0.21
5.75,-0.143,0.788,0.05
5.76,-0.414,1.075,-0.079
5.77,-0.168,0.887,-0.121
5.78,-0.124,1.072,0.028
5.79,-0.243,0.998,0.119
5.8,-0.212,0.778,0.031
5.81,-0.365,1.131,-0.129
5.82,-0.17,0.892,-0.075
5.83,-0.08,1.198,-0.013
5.84,0.007,0.692,0.092
5.85,-0.208,0.982,0.027
5.86,-0.347,0.998,-0.116
5.87,-0.137,0.956,-0.089
5.88,-0.504,1.138,0.133
5.89,-0.073,0.716,0.071
5.9,-0.293,1.095,-0.017
5.91,-0.291,0.854,-0.156
5.92,-0.281,1.099,-0.052
5.93,0.004,0.815,0.049
5.94,-0.144,0.988,0.146
5.95,-0.352,1.044,-0.055
5.96,-0.222,0.807,-0.142
5.97,-0.166,1.12,-0.018
5.98,-0.097,0.808,0.146
5.99,-0.194,1.118,0.102
6.0,-0.326,0.848,-0.089
6.01,-0.231,1.146,-0.126
6.02,-0.092,0.939,0.009
6.03,-0.255,1.064,0.148
6.04,-0.198,0.87,0.027
6.05,-0.349,0.95,-0.058
6.06,-0.183,1.113,-0.115
6.07,-0.128,0.902,0.041
6.08,-0.16,1.045,0.154
6.09,-0.171,0.805,0.016
6.1,-0.351,1.109,-0.155
6.11,-0.175,0.914,-0.069
6.12,-0.047,1.099,0.056
6.13,-0.023,0.856,0.004
6.14,-0.33,0.859,0.008
6.15,-0.312,1.142,-0.139
6.16,-0.133,0.875,-0.072
6.17,-0.074,1.091,0.082
6.18,-0.092,0.767,0.115
6.19,-0.284,1.104,-0.043
6.2,-0.356,0.918,-0.147
6.21,-0.177,0.971,-0.043
6.22,-0.359,1.038,0.17
6.23,-0.145,0.821,0.097
6.24,-0.341,1.152,-0.079
6.25,-0.269,0.795,-0.117
6.26,-0.191,1.179,0.007
6.27,-0.227,0.869,0.139
6.28,-0.216,1.005,0.041
6.29,-0.336,0.955,-0.105
6.3,-0.222,0.922,-0.112
6.31,-0.084,1.195,0.028
6.32,0.04,0.755,0.032
6.33,-0.251,1.042,0.083
6.34,-0.291,0.839,-0.114
6.35,-0.177,1.193,-0.079
6.36,-0.068,0.951,0.003
6.37,-0.05,0.925,0.106
6.38,-0.277,0.948,0.039
6.39,-0.286,0.925,-0.08
6.4,-0.108,1.182,-0.141
6.41,-0.153,0.807,0.051
6.42,-0.127,1.051,0.157
6.43,-0.287,0.856,-0.058
6.44,-0.332,1.118,-0.107
6.45,-0.195,0.906,-0.073
6.46,-0.113,0.928,0.117
6.47,-0.195,1.023,0.139
6.48,-0.287,0.924,-0.059
6.49,-0.361,1.091,-0.122
6.5,-0.148,0.825,-0.03
6.51,-0.106,1.135,0.14
6.52,-0.165,0.841,0.087
6.53,-0.334,1.013,-0.113
6.54,-0.235,0.904,-0.129
6.55,-0.167,1.023,0.06
6.56,-0.05,1.119,0.124
6.57,-0.207,0.706,0.026
6.58,-0.354,1.096,-0.091
6.59,-0.227,0.928,-0.051
6.6,-0.065,1.194,0.009
6.61,-0.081,0.801,0.154
6.62,-0.288,0.896,0.003
6.63,-0.38,1.004,-0.088
6.64,-0.119,0.986,-0.099
6.65,-0.232,1.136,0.105
6.66,-0.127,0.62,0.148
6.67,-0.329,1.131,0.016
6.68,-0.229,0.907,-0.122
6.69,-0.226,1.061,-0.097
6.7,-0.063,0.888,0.079
6.71,-0.192,0.9,0.158
6.72,-0.291,1.081,-0.027
6.73,-0.31,0.814,-0.143
6.74,-0.236,1.112,-0.043
6.75,-0.081,0.796,0.124
6.76,-0.222,1.102,0.1
6.77,-0.253,0.881,-0.058
6.78,-0.26,1.034,-0.125
6.79,-0.114,1.02,-0.048
6.8,-0.121,0.862,0.165
6.81,-0.199,1.095,0.065
6.82,-0.323,0.865,-0.109
6.83,-0.212,1.094,-0.123
6.84,-0.117,0.929,0.03
6.85,-0.131,1.088,0.135
6.86,-0.214,0.75,0.094
6.87,-0.318,1.061,-0.119
6.88,-0.18,1.003,-0.074
6.89,-0.092,1.051,0.028
6.9,-0.162,0.906,0.188
6.91,-0.244,0.796,0.007
6.92,-0.3,1.158,-0.169
6.93,-0.164,0.926,-0.06
6.94,-0.214,1.112,0.056
6.95,-0.133,0.717,0.159
6.96,-0.343,1.045,-0.031
6.97,-0.241,1.018,-0.105
6.98,-0.219,0.925,-0.058
6.99,-0.138,0.975,0.109
7.0,-0.143,0.785,0.144
7.01,-0.338,1.147,-0.088
7.02,-0.301,0.798,-0.122
7.03,-0.192,1.134,-0.013
7.04,-0.089,0.865,0.101
7.05,-0.138,0.959,0.07
7.06,-0.384,0.994,-0.105
7.07,-0.25,0.794,-0.083
7.08,-0.181,1.25,0.059
7.09,-0.014,0.767,0.097
7.1,-0.242,1.04,0.078
7.11,-0.251,0.825,-0.11
7.12,-0.233,1.137,-0.091
7.13,-0.122,1.002,0.041
7.14,-0.08,0.895,0.151
7.15,-0.248,1.008,0.029
7.16,-0.322,0.819,-0.09
7.17,-0.229,1.208,-0.058
7.18,-0.092,0.869,0.055
7.19,-0.152,1.044,0.12
7.2,-0.239,0.836,-0.035
7.21,-0.302,1.077,-0.145
7.22,-0.217,1.001,-0.066
7.23,-0.109,0.845,0.07
7.24,-0.139,0.991,0.135
7.25,-0.346,0.887,-0.032
7.26,-0.263,1.162,-0.156
7.27,-0.225,0.797,-0.027
7.28,0.022,1.034,0.014
7.29,-0.144,0.89,0.105
7.3,-0.354,1.01,-0.095
7.31,-0.304,0.98,-0.112
7.32,-0.179,0.889,-0.022
7.33,-0.029,1.133,0.108
7.34,-0.192,0.755,0.061
7.35,-0.401,1.121,-0.077
7.36,-0.168,0.836,-0.113
7.37,-0.144,1.193,0.034
7.38,-0.062,0.853,0.095
7.39,-0.289,0.856,0.075
7.4,-0.304,1.023,-0.135
7.41,-0.171,0.925,-0.022
7.42,-0.015,1.2,-0.022
7.43,-0.04,0.694,0.115
7.44,-0.242,1.043,-0.03
7.45,-0.346,0.911,-0.125
7.46,-0.169,1.073,-0.122
7.47,-0.156,0.97,0.067
7.48,-0.103,0.804,0.124
7.49,-0.33,1.083,-0.019
7.5,-0.265,0.844,-0.164
7.51,-0.258,1.154,-0.036
7.52,-0.052,0.76,0.11
7.53,-0.152,0.979,0.109
7.54,-0.307,0.924,-0.038
7.55,-0.291,0.981,-0.162
7.56,-0.26,0.986,-0.022
7.57,-0.049,0.805,0.122
7.58,-0.176,1.142,0.119
7.59,-0.311,0.828,-0.095
7.6,-0.352,1.075,-0.096
7.61,-0.142,0.88,-0.024
7.62,-0.076,1.097,0.177
7.63,-0.157,0.917,0.042
7.64,-0.375,0.896,-0.098
7.65,-0.184,1.0,-0.106
7.66,-0.187,1.106,0.114
7.67,-0.097,0.958,0.092
7.68,-0.234,0.757,0.027
7.69,-0.362,1.139,-0.109
7.7,-0.104,0.952,-0.081
7.71,-0.097,1.148,0.047
7.72,-0.12,0.728,0.12
7.73,-0.304,1.035,0.027
7.74,-0.299,1.052,-0.128
7.75,-0.226,0.887,-0.078
7.76,-0.106,1.057,0.125
7.77,-0.11,0.748,0.101
7.78,-0.35,1.161,-0.023
7.79,-0.285,0.863,-0.144
7.8,-0.199,1.071,-0.062
7.81,-0.07,0.873,0.08
7.82,-0.152,0.952,0.162
7.83,-0.341,1.087,-0.097
7.84,-0.224,0.802,-0.149
7.85,-0.215,1.142,0.013
7.86,-0.11,0.826,0.163
7.87,-0.188,1.07,0.067
7.88,-0.325,0.855,-0.122
7.89,-0.261,0.978,-0.075
7.9,-0.097,1.095,0.028
7.91,-0.036,0.922,0.121
7.92,-0.252,0.988,0.043
7.93,-0.283,0.793,-0.094
7.94,-0.258,1.221,-0.089
7.95,-0.112,0.898,0.051
7.96,-0.071,1.045,0.157
7.97,-0.24,0.836,-0.001
7.98,-0.332,0.974,-0.077
7.99,-0.158,1.115,-0.091
8.0,-0.12,0.917,0.062
8.01,-0.19,0.994,0.168
8.02,-0.264,0.819,-0.01
8.03,-0.319,1.169,-0.136
8.04,-0.164,0.847,-0.071
8.05,-0.103,1.068,0.111
8.06,-0.156,0.861,0.105
8.07,-0.31,0.966,-0.041
8.08,-0.363,1.042,-0.121
8.09,-0.153,0.858,-0.059
8.1,-0.173,1.083,0.12
8.11,-0.142,0.73,0.087
8.12,-0.368,1.117,-0.063
8.13,-0.25,0.827,-0.134
8.14,-0.135,1.056,-0.031
8.15,-0.155,0.944,0.166
8.16,-0.191,0.869,0.087
8.17,-0.308,1.09,-0.109
8.18,-0.254,0.806,-0.105
8.19,-0.201,1.21,0.042
8.2,-0.017,0.774,0.144
8.21,-0.268,1.043,0.053
8.22,-0.319,0.829,-0.125
8.23,-0.183,1.01,-0.094
8.24,-0.088,1.106,0.06
8.25,0.104,0.771,0.03
8.26,-0.272,1.036,0.045
8.27,-0.343,0.799,-0.098
8.28,-0.159,1.189,-0.087
8.29,-0.054,0.912,0.052
8.3,-0.073,1.012,0.097
8.31,-0.275,0.887,-0.009
8.32,-0.285,0.956,-0.151
8.33,-0.134,1.154,-0.051
8.34,-0.085,0.84,0.064
8.35,-0.202,0.982,0.153
8.36,-0.289,0.844,-0.037
8.37,-0.311,1.215,-0.122
8.38,-0.152,0.89,-0.104
8.39,-0.151,0.914,0.125
8.4,-0.204,0.899,0.146
8.41,-0.275,0.97,-0.059
8.42,-0.279,1.095,-0.131
8.43,-0.197,0.803,-0.055
8.44,-0.203,1.085,0.144
8.45,-0.128,0.81,0.071
8.46,-0.354,1.108,-0.112
8.47,-0.201,0.836,-0.124
8.48,-0.156,1.216,0.06
8.49,-0.406,0.862,0.242
8.5,-0.293,0.893,0.044
8.51,-0.275,1.017,-0.158
8.52,-0.228,0.914,-0.072
8.53,-0.098,1.16,0.071
8.54,0.022,0.703,0.135
8.55,-0.261,1.082,0.008
8.56,-0.355,0.862,-0.129
8.57,-0.176,1.104,-0.09
8.58,-0.204,0.952,0.07
8.59,-0.094,0.88,0.123
8.6,-0.268,1.036,-0.044
8.61,-0.311,0.875,-0.129
8.62,-0.185,1.149,-0.068
8.63,-0.136,0.75,0.127
8.64,-0.179,1.046,0.142
8.65,-0.299,0.943,-0.063
8.66,-0.307,1.0,-0.146
8.67,-0.172,0.96,-0.034
8.68,-0.36,0.91,0.273
8.69,-0.217,1.079,0.081
8.7,-0.29,0.831,-0.068
8.71,-0.24,1.136,-0.13
8.72,-0.2,0.901,0.03
8.73,-0.082,1.053,0.156
8.74,-0.213,0.87,0.075
8.75,-0.333,0.97,-0.085
8.76,-0.21,1.049,-0.106
8.77,-0.147,0.974,0.043
8.78,-0.096,1.045,0.168
8.79,-0.16,0.747,-0.002
8.8,-0.392,1.123,-0.112
8.81,-0.195,0.95,-0.077
8.82,-0.091,1.131,0.045
8.83,-0.044,0.848,0.144
8.84,-0.308,0.885,0.013
8.85,-0.357,1.074,-0.143
8.86,-0.119,0.911,-0.075
8.87,-0.061,1.178,0.081
8.88,-0.227,0.691,0.154
8.89,-0.291,1.06,-0.043
8.9,-0.303,0.906,-0.1
8.91,-0.076,1.048,-0.102
8.92,-0.109,0.915,0.084
8.93,-0.129,0.798,0.124
8.94,-0.305,1.132,-0.046
8.95,-0.279,0.824,-0.105
8.96,-0.2,1.135,-0.02
8.97,-0.136,0.807,0.116
8.98,-0.21,1.013,0.09
8.99,-0.308,0.971,-0.071
9.0,-0.253,0.963,-0.145
9.01,-0.142,1.066,-0.005
9.02,-0.174,0.848,0.273
9.03,-0.278,1.104,0.102
9.04,-0.277,0.791,-0.103
9.05,-0.234,1.154,-0.101
9.06,-0.115,0.919,0.007
9.07,-0.088,1.013,0.148
9.08,-0.234,0.917,0.049
9.09,-0.372,0.88,-0.116
9.1,-0.148,1.137,-0.093
9.11,-0.067,0.921,0.037
9.12,-0.063,1.043,0.055
9.13,-0.215,0.771,0.031
9.14,-0.296,1.174,-0.156
9.15,-0.186,0.979,-0.062
9.16,-0.106,0.986,0.057
9.17,-0.194,0.872,0.188
9.18,-0.319,0.865,-0.012
9.19,-0.352,1.168,-0.135
9.2,-0.072,0.855,-0.089
9.21,-0.157,1.094,0.11
9.22,-0.145,0.764,0.073
9.23,-0.314,1.084,-0.052
9.24,-0.221,0.906,-0.176
9.25,-0.213,0.954,-0.014
9.26,-0.095,1.038,0.111
9.27,-0.179,0.808,0.127
9.28,-0.311,1.159,-0.085
9.29,-0.258,0.807,-0.123
9.3,-0.208,1.22,0.012
9.31,-0.03,0.822,0.152
9.32,-0.213,1.063,0.019
9.33,-0.317,0.847,-0.135
9.34,-0.257,1.074,-0.064
9.35,-0.066,1.027,0.03
9.36,-0.049,0.863,0.14
9.37,-0.284,1.028,0.025
9.38,-0.315,0.84,-0.115
9.39,-0.219,1.21,-0.061
9.4,-0.064,0.873,0.071
9.41,-0.129,0.992,0.116
9.42,-0.283,0.905,-0.037
9.43,-0.19,0.97,-0.061
9.44,-0.074,1.039,0.046
9.45,-0.138,0.78,0.135
9.46,-0.276,1.047,-0.019
9.47,-0.306,0.869,-0.115
9.48,-0.187,1.196,-0.068
9.49,-0.093,0.778,0.089
9.5,-0.148,1.0,0.131
9.51,-0.335,0.909,-0.018
9.52,-0.261,1.061,-0.14
9.53,-0.157,0.994,-0.064
9.54,-0.135,0.793,0.101
9.55,-0.261,1.084,0.178
9.56,-0.322,0.837,-0.073
9.57,-0.252,1.117,-0.114
9.58,-0.144,0.895,-0.047
9.59,-0.13,1.025,0.156
9.6,-0.167,0.928,0.118
9.61,-0.283,0.944,-0.12
9.62,-0.252,1.015,-0.124
9.63,-0.13,0.941,0.026
9.64,-0.268,1.14,0.264
9.65,-0.201,0.732,0.035
9.66,-0.373,1.104,-0.117
9.67,-0.245,0.933,-0.099
9.68,-0.108,1.113,0.056
9.69,-0.115,0.849,0.117
9.7,-0.292,0.841,0.038
9.71,-0.314,1.135,-0.139
9.72,-0.127,0.916,-0.081
9.73,-0.07,1.15,0.034
9.74,-0.123,0.672,0.193
9.75,-0.356,1.069,-0.016
9.76,-0.275,0.96,-0.125
9.77,-0.19,1.039,-0.085
9.78,-0.098,0.945,0.084
9.79,-0.084,0.766,0.105
9.8,-0.41,1.135,-0.057
9.81,-0.226,0.797,-0.141
9.82,-0.226,1.159,-0.033
9.83,-0.077,0.779,0.119
9.84,-0.196,1.0,0.095
9.85,-0.276,1.015,-0.076
9.86,-0.273,0.926,-0.139
9.87,-0.148,1.043,-0.039
9.88,-0.121,0.818,0.172
9.89,-0.269,1.115,0.063
9.9,-0.269,0.771,-0.126
9.91,-0.28,1.092,-0.091
9.92,-0.091,0.909,0.012
9.93,0.01,1.019,0.103
9.94,-0.188,0.918,-0.004
9.95,-0.333,0.872,-0.106
9.96,-0.19,1.188,-0.108
9.97,-0.099,0.904,0.078
9.98,-0.106,1.057,0.118
9.99,-0.248,0.754,-0.015
10.0,-0.359,1.106,-0.114
10.01,-0.127,0.979,-0.06
10.02,-0.047,0.976,0.065
10.03,-0.211,0.915,0.171
10.04,-0.344,0.865,-0.039
10.05,-0.26,1.177,-0.103
10.06,-0.2,0.909,-0.061
10.07,-0.18,0.998,0.104
10.08,-0.154,0.761,0.125
10.09,-0.263,1.153,-0.126
10.1,-0.243,0.825,-0.146
10.11,-0.208,1.054,-0.032
10.12,-0.175,0.928,0.257
10.13,-0.17,0.916,0.06
10.14,-0.345,1.061,-0.128
10.15,-0.232,0.868,-0.118
10.16,-0.182,1.272,0.049
10.17,-0.019,0.734,0.122
10.18,-0.298,1.031,0.037
10.19,-0.367,0.86,-0.13
10.2,-0.173,1.073,-0.079
10.21,-0.078,1.014,0.019
10.22,-0.146,0.767,0.162
10.23,-0.299,1.072,-0.031
10.24,-0.214,0.881,-0.117
10.25,-0.199,1.191,-0.074
10.26,-0.206,0.736,0.067
10.27,-0.206,1.0,0.151
10.28,-0.26,0.972,-0.061
10.29,-0.26,0.982,-0.167
10.3,-0.233,0.984,-0.032
10.31,-0.087,0.821,0.149
10.32,-0.203,1.13,0.111
10.33,-0.343,0.83,-0.082
10.34,-0.281,1.078,-0.128
10.35,-0.175,0.927,0.018
10.36,-0.089,1.067,0.171
10.37,-0.166,0.9,0.063
10.38,-0.335,0.905,-0.113
10.39,-0.253,1.11,-0.083
10.4,-0.173,0.962,0.065
10.41,-0.052,1.076,0.136
10.42,-0.215,0.754,0.012
10.43,-0.321,1.073,-0.123
10.44,-0.23,1.037,-0.022
10.45,-0.072,1.068,0.007
10.46,-0.098,0.835,0.137
10.47,-0.301,0.875,-0.006
10.48,-0.376,1.196,-0.113
10.49,-0.132,0.853,-0.11
10.5,-0.163,1.078,0.089
10.51,-0.084,0.712,0.123
10.52,-0.344,1.148,-0.022
10.53,-0.277,0.937,-0.136
10.54,-0.207,0.948,-0.048
10.55,-0.126,1.015,0.14
10.56,-0.167,0.793,0.095
10.57,-0.361,1.157,-0.078
10.58,-0.22,0.751,-0.131
10.59,-0.213,1.21,0.006
10.6,-0.068,0.888,0.16
10.61,-0.166,0.971,0.01
10.62,-0.348,0.937,-0.078
10.63,-0.207,0.958,-0.107
10.64,-0.186,1.181,0.056
10.65,-0.013,0.75,0.114
10.66,-0.263,1.066,0.023
10.67,-0.328,0.777,-0.13
10.68,-0.215,1.164,-0.046
10.69,-0.047,0.93,0.013
10.7,-0.162,0.92,0.177
10.71,-0.24,0.947,-0.005
10.72,-0.357,0.958,-0.102
10.73,-0.118,1.148,-0.099
10.74,-0.303,0.826,0.22
10.75,-0.125,1.044,0.13
10.76,-0.335,0.886,-0.024
10.77,-0.305,1.122,-0.15
10.78,-0.238,0.897,-0.09
10.79,-0.184,0.922,0.113
10.8,-0.229,1.026,0.145
10.81,-0.267,0.899,-0.085
10.82,-0.311,1.12,-0.122
10.83,-0.185,0.799,-0.032
10.84,-0.134,1.105,0.17
10.85,-0.128,0.854,0.072
10.86,-0.364,1.002,-0.127
10.87,-0.229,0.954,-0.108
10.88,-0.133,1.035,0.043
10.89,-0.171,0.892,0.172
10.9,-0.292,0.823,0.038
10.91,-0.334,1.084,-0.121
10.92,-0.154,0.918,-0.089
10.93,-0.081,1.201,0.027
10.94,0.033,0.635,0.061
10.95,-0.304,1.061,0.013
10.96,-0.24,0.965,-0.113
10.97,-0.161,1.079,-0.133
10.98,-0.135,0.953,0.116
10.99,-0.143,0.766,0.163
11.0,-0.322,1.154,-0.03
11.01,-0.259,0.852,-0.168
11.02,-0.214,1.115,-0.035
11.03,-0.002,0.754,0.028
11.04,-0.17,1.064,0.169
11.05,-0.316,0.979,-0.101
11.06,-0.278,0.891,-0.123
11.07,-0.211,1.093,-0.02
11.08,-0.029,0.867,0.173
11.09,-0.221,1.088,0.059
11.1,-0.333,0.815,-0.104
11.11,-0.23,1.142,-0.122
11.12,-0.162,0.971,0.042
11.13,-0.085,0.945,0.133
11.14,-0.202,0.931,0.044
11.15,-0.321,0.903,-0.112
11.16,-0.248,1.168,-0.058
11.17,-0.155,0.88,0.049
11.18,-0.139,1.052,0.143
11.19,-0.211,0.786,-0.024
11.2,-0.398,1.134,-0.113
11.21,-0.15,0.938,-0.09
11.22,-0.103,0.994,0.069
11.23,-0.186,0.901,0.14
11.24,-0.36,0.898,-0.019
11.25,-0.292,1.176,-0.143
11.26,-0.164,0.814,-0.054
11.27,-0.119,1.11,0.136
11.28,-0.083,0.806,0.091
11.29,-0.328,1.07,-0.131
11.3,-0.286,0.915,-0.113
11.31,-0.12,0.982,-0.044
11.32,-0.158,1.054,0.16
11.33,-0.177,0.775,0.109
11.34,-0.37,1.111,-0.091
11.35,-0.188,0.771,-0.131
11.36,-0.119,1.234,0.046
11.37,0.11,0.775,-0.028
11.38,-0.2,0.919,0.06
11.39,-0.317,1.0,-0.142
11.4,-0.225,0.96,-0.058
11.41,-0.083,1.172,0.05
11.42,0.0,0.712,0.097
11.43,-0.3,1.077,0.033
11.44,-0.312,0.844,-0.131
11.45,-0.154,1.173,-0.086
11.46,-0.123,0.91,0.069
11.47,-0.129,0.839,0.141
11.48,-0.308,1.054,-0.018
11.49,-0.258,0.912,-0.147
11.5,-0.227,1.094,-0.032
11.51,-0.048,0.743,0.027
11.52,-0.152,1.129,0.144
11.53,-0.328,0.911,-0.096
11.54,-0.29,0.971,-0.1
11.55,-0.186,0.969,-0.042
11.56,-0.105,0.91,0.149
11.57,-0.215,1.027,0.084
11.58,-0.319,0.832,-0.078
11.59,-0.229,1.165,-0.121
11.6,-0.21,0.931,0.056
11.61,-0.085,1.073,0.163
11.62,-0.145,0.844,0.058
11.63,-0.347,0.985,-0.139
11.64,-0.198,1.083,-0.085
11.65,-0.086,1.004,0.016
11.66,-0.079,1.014,0.134
11.67,-0.201,0.772,-0.004
11.68,-0.375,1.158,-0.125
11.69,-0.17,0.901,-0.063
11.7,-0.07,1.121,0.058
11.71,-0.096,0.814,0.159
11.72,-0.395,1.12,-0.035
11.73,-0.232,0.967,-0.185
11.74,-0.149,1.023,-0.051
11.75,-0.085,1.008,0.112
11.76,-0.206,0.771,0.158
11.77,-0.413,1.16,-0.07
11.78,-0.18,0.874,-0.113
11.79,-0.124,1.194,-0.048
11.8,-0.125,0.753,0.141
11.81,-0.296,1.0,0.118
11.82,-0.252,1.015,-0.116
11.83,-0.265,0.964,-0.107
11.84,-0.156,1.044,-0.017
11.85,-0.118,0.761,0.178
11.86,-0.236,1.105,0.036
11.87,-0.26,0.789,-0.146
11.88,-0.235,1.117,-0.08
11.89,-0.063,0.986,0.05
11.9,-0.161,0.9,0.185
11.91,-0.282,0.961,-0.007
11.92,-0.291,0.903,-0.118
11.93,-0.166,1.143,-0.074
11.94,-0.542,0.801,0.268
11.95,-0.13,1.043,0.122
11.96,-0.294,0.871,-0.065
11.97,-0.283,1.072,-0.175
11.98,-0.16,0.954,-0.046
11.99,-0.092,0.931,0.152
12.0,-0.171,0.989,0.055
12.01,-0.339,0.894,-0.092
12.02,-0.234,1.178,-0.116
12.03,-0.147,0.88,-0.008
12.04,-0.111,1.073,0.182
12.05,-0.174,0.802,0.02
12.06,-0.31,1.016,-0.109
12.07,-0.244,1.097,-0.077
12.08,-0.1,0.986,0.039
12.09,-0.102,0.955,0.153
12.1,-0.208,0.782,0.004
12.11,-0.377,1.207,-0.118
12.12,-0.187,0.879,-0.091
12.13,-0.177,1.065,0.119
12.14,-0.115,0.781,0.141
12.15,-0.337,0.99,-0.049
12.16,-0.303,1.072,-0.187
12.17,-0.199,0.836,-0.06
12.18,-0.101,1.071,0.134
12.19,-0.171,0.77,0.117
12.2,-0.353,1.158,-0.121
12.21,-0.276,0.826,-0.102
12.22,-0.205,1.091,0.008
12.23,-0.125,0.971,0.202
12.24,-0.165,0.871,0.044
12.25,-0.331,1.061,-0.12
12.26,-0.204,0.865,-0.09
12.27,-0.082,1.263,0.01
12.28,-0.029,0.705,0.134
12.29,-0.253,1.047,0.048
12.3,-0.333,0.851,-0.122
12.31,-0.198,1.097,-0.056
12.32,-0.105,1.008,0.031
12.33,-0.072,0.752,0.133
12.34,-0.333,1.1,-0.007
12.35,-0.27,0.848,-0.139
12.36,-0.315,1.138,-0.057
12.37,-0.072,0.756,0.122
12.38,-0.127,1.069,0.135
12.39,-0.344,0.98,-0.056
12.4,-0.274,0.909,-0.157
12.41,-0.187,1.0,-0.036
12.42,-0.101,0.864,0.161
12.43,-0.19,1.088,0.062
12.44,-0.318,0.804,-0.113
12.45,-0.199,1.106,-0.114
12.46,-0.203,0.957,0.075
12.47,-0.044,1.049,0.128
12.48,-0.231,0.886,0.041
12.49,-0.312,0.906,-0.104
12.5,-0.264,1.131,-0.088
12.51,-0.117,0.915,0.057
12.52,-0.06,1.047,0.104
12.53,-0.22,0.785,0.011
12.54,-0.314,1.173,-0.121
12.55,-0.145,0.865,-0.063
12.56,-0.166,1.072,0.08
12.57,-0.094,0.765,0.139
12.58,-0.353,1.054,-0.039
12.59,-0.311,1.019,-0.151
12.6,-0.167,0.884,-0.054
12.61,-0.149,1.055,0.135
12.62,-0.189,0.764,0.111
12.63,-0.347,1.164,-0.065
12.64,-0.287,0.842,-0.145
12.65,-0.121,1.075,0.013
12.66,-0.097,0.934,0.15
12.67,-0.311,0.916,0.084
12.68,-0.302,1.03,-0.132
12.69,-0.248,0.867,-0.11
12.7,-0.114,1.18,0.014
12.71,-0.045,0.807,0.18
12.72,-0.253,1.088,-0.002
12.73,-0.326,0.773,-0.13
12.74,-0.221,1.068,-0.077
12.75,-0.014,1.067,0.035
12.76,-0.123,0.812,0.152
12.77,-0.285,1.014,0.016
12.78,-0.303,0.859,-0.109
12.79,-0.141,1.215,-0.079
12.8,0.006,0.74,-0.026
12.81,-0.126,1.017,0.148
12.82,-0.285,0.932,-0.073
12.83,-0.307,1.005,-0.125
12.84,-0.149,0.998,-0.04
12.85,-0.158,0.83,0.135
12.86,-0.201,1.082,0.129
12.87,-0.298,0.838,-0.122
12.88,-0.279,1.084,-0.09
12.89,-0.16,0.917,0.026
12.9,-0.072,1.023,0.189
12.91,-0.187,0.898,0.042
12.92,-0.341,0.914,-0.114
12.93,-0.249,1.137,-0.091
12.94,-0.083,0.968,-0.002
12.95,-0.117,0.996,0.133
12.96,-0.195,0.776,0.02
12.97,-0.363,1.199,-0.146
12.98,-0.204,0.986,-0.058
12.99,-0.13,0.975,0.076
13.0,-0.075,0.834,0.154
13.01,-0.375,0.937,-0.011
13.02,-0.285,1.135,-0.16
13.03,-0.178,0.829,-0.081
13.04,-0.109,1.08,0.111
13.05,-0.143,0.758,0.117
13.06,-0.302,1.114,-0.08
13.07,-0.323,0.864,-0.124
13.08,-0.172,0.971,-0.019
13.09,-0.14,1.017,0.154
13.1,-0.181,0.825,0.083
13.11,-0.342,1.13,-0.12
13.12,-0.229,0.762,-0.124
13.13,-0.179,1.21,0.007
13.14,-0.402,0.857,0.298
13.15,-0.194,0.982,0.022
13.16,-0.344,0.941,-0.126
13.17,-0.17,0.955,-0.112
13.18,-0.174,1.157,0.079
13.19,-0.066,0.728,0.151
13.2,-0.353,1.088,0.006
13.21,-0.327,0.821,-0.118
13.22,-0.126,1.221,-0.11
13.23,-0.141,0.874,0.073
13.24,-0.043,0.88,0.131
13.25,-0.286,1.056,-0.021
13.26,-0.199,0.946,-0.164
13.27,-0.219,1.105,-0.041
13.28,-0.122,0.766,0.109
13.29,-0.171,1.09,0.115
13.3,-0.297,0.91,-0.078
13.31,-0.279,1.057,-0.148
13.32,-0.206,0.942,0.001
13.33,-0.118,0.965,0.187
13.34,-0.182,1.005,0.082
13.35,-0.343,0.869,-0.097
13.36,-0.207,1.138,-0.114
13.37,-0.254,0.97,0.095
13.38,-0.086,1.011,0.129
13.39,-0.209,0.782,-0.008
13.4,-0.352,1.167,-0.132
13.41,-0.161,0.956,-0.086
13.42,-0.159,1.025,0.095
13.43,-0.148,0.782,0.147
13.44,-0.327,0.963,-0.019
13.45,-0.295,1.156,-0.162
13.46,-0.187,0.824,-0.081
13.47,-0.096,1.108,0.097
13.48,-0.167,0.778,0.133
13.49,-0.322,1.12,-0.096
13.5,-0.241,0.83,-0.14
13.51,-0.194,1.052,-0.039
13.52,-0.107,1.006,0.163
13.53,-0.146,0.811,0.08
13.54,-0.338,1.091,-0.099
13.55,-0.243,0.784,-0.129
13.56,-0.172,1.282,0.031
13.57,-0.032,0.832,0.117
13.58,-0.185,0.953,0.024
13.59,-0.334,0.917,-0.159
13.6,-0.208,1.028,-0.049
13.61,-0.142,1.166,0.029
13.62,-0.078,0.724,0.15
13.63,-0.266,1.068,0.015
13.64,-0.336,0.867,-0.119
13.65,-0.202,1.158,-0.103
13.66,-0.145,0.841,0.085
13.67,-0.054,0.947,0.117
13.68,-0.365,1.014,-0.022
13.69,-0.257,0.951,-0.122
13.7,-0.229,1.063,-0.053
13.71,-0.093,0.779,0.107
13.72,-0.204,1.129,0.141
13.73,-0.242,0.878,-0.111
13.74,-0.296,1.064,-0.113
13.75,-0.192,0.93,-0.036
13.76,-0.129,0.974,0.177
13.77,-0.156,0.983,0.081
13.78,-0.296,0.886,-0.101
13.79,-0.266,1.096,-0.111
13.8,-0.184,0.892,0.059
13.81,-0.018,1.156,0.119
13.82,-0.191,0.778,0.007
13.83,-0.357,1.0,-0.112
13.84,-0.21,1.042,-0.043
13.85,-0.057,1.06,0.01
13.86,-0.132,0.928,0.17
13.87,-0.192,0.763,-0.061
13.88,-0.396,1.175,-0.082
13.89,-0.103,0.861,-0.082
13.9,-0.126,1.123,0.078
13.91,-0.094,0.764,0.123
13.92,-0.356,1.041,-0.032
13.93,-0.275,1.025,-0.136
13.94,-0.189,0.9,-0.071
13.95,-0.086,1.063,0.083
13.96,-0.191,0.759,0.124
13.97,-0.349,1.16,-0.097
13.98,-0.261,0.774,-0.135
13.99,-0.18,1.104,-0.051
14.0,-0.097,0.892,0.177
14.01,-0.169,0.902,0.074
14.02,-0.379,1.051,-0.068
14.03,-0.21,0.793,-0.12
14.04,-0.201,1.247,0.055
14.05,-0.062,0.801,0.108
14.06,-0.249,1.024,0.049
14.07,-0.292,0.83,-0.118
14.08,-0.266,1.121,-0.093
14.09,-0.083,1.058,0.034
14.1,-0.084,0.847,0.154
14.11,-0.249,1.027,0.007
14.12,-0.32,0.824,-0.106
14.13,-0.195,1.193,-0.087
14.14,-0.16,0.803,0.051
14.15,-0.109,0.958,0.116
14.16,-0.318,0.925,0.002
14.17,-0.309,1.058,-0.12
14.18,-0.128,0.973,-0.112
14.19,-0.114,0.969,0.115
14.2,-0.146,0.954,0.1
14.21,-0.362,0.937,-0.062
14.22,-0.263,1.062,-0.128
14.23,-0.126,0.831,-0.04
14.24,-0.155,1.15,0.183
14.25,-0.149,0.75,0.078
14.26,-0.379,1.084,-0.083
14.27,-0.161,0.892,-0.121
14.28,-0.151,1.062,0.018
14.29,-0.131,1.015,0.19
14.3,-0.214,0.774,0.003
14.31,-0.353,1.085,-0.101
14.32,-0.196,0.885,-0.082
14.33,-0.035,1.276,0.023
14.34,-0.063,0.724,0.103
14.35,-0.29,0.936,0.049
14.36,-0.335,0.977,-0.118
14.37,-0.149,1.008,-0.057
14.38,-0.104,1.089,0.017
14.39,-0.158,0.71,0.169
14.4,-0.3,1.108,-0.033
14.41,-0.294,0.866,-0.124
14.42,-0.18,1.118,-0.086
14.43,-0.378,0.869,0.185
14.44,-0.163,0.919,0.103
14.45,-0.329,1.049,-0.041
14.46,-0.27,0.876,-0.152
14.47,-0.153,1.067,-0.063
14.48,-0.475,0.788,0.258
14.49,-0.173,1.112,0.07
14.5,-0.372,0.861,-0.089
14.51,-0.222,0.98,-0.136
14.52,-0.163,0.989,-0.036
14.53,-0.122,0.938,0.258
14.54,-0.183,1.024,0.088
14.55,-0.349,0.841,-0.111
14.56,-0.259,1.149,-0.084
14.57,-0.091,0.905,0.018
14.58,-0.054,1.101,0.123
14.59,-0.155,0.83,0.012
14.6,-0.368,0.998,-0.131
14.61,-0.203,1.063,-0.089
14.62,-0.121,0.998,0.031
14.63,-0.12,0.998,0.132
14.64,-0.232,0.741,-0.04
14.65,-0.362,1.164,-0.115
14.66,-0.118,0.916,-0.065
14.67,-0.115,1.089,0.076
14.68,-0.126,0.766,0.108
14.69,-0.344,0.989,-0.022
14.7,-0.234,1.11,-0.133
14.71,-0.162,0.908,-0.049
14.72,-0.184,1.04,0.105
14.73,-0.18,0.708,0.134
14.74,-0.334,1.168,-0.074
14.75,-0.275,0.862,-0.154
14.76,-0.143,0.99,-0.037
14.77,-0.138,0.903,0.142
14.78,-0.229,0.89,0.1
14.79,-0.323,1.092,-0.125
14.8,-0.223,0.772,-0.115
14.81,-0.155,1.202,-0.002
14.82,-0.116,0.845,0.144
14.83,-0.275,1.056,0.039
14.84,-0.295,0.813,-0.129
14.85,-0.207,1.027,-0.082
14.86,-0.035,1.111,0.02
14.87,-0.104,0.817,0.176
14.88,-0.262,1.035,-0.005
14.89,-0.343,0.841,-0.114
14.9,-0.139,1.256,-0.082
14.91,-0.107,0.87,0.073
14.92,-0.148,0.946,0.149
14.93,-0.274,0.948,-0.023
14.94,-0.259,1.038,-0.143
14.95,-0.146,1.063,-0.086
14.96,-0.179,0.794,0.133
14.97,-0.168,1.05,0.142
14.98,-0.302,0.894,-0.07
14.99,-0.302,1.158,-0.135
15.0,-0.187,0.843,-0.042
15.01,-0.147,1.136,0.193
15.02,-0.163,0.818,0.063
15.03,-0.365,1.036,-0.114
15.04,-0.218,0.97,-0.13
15.05,-0.18,0.992,0.01
15.06,-0.068,1.059,0.138
15.07,-0.206,0.753,-0.002
15.08,-0.399,1.061,-0.141
15.09,-0.228,0.889,-0.028
15.1,-0.016,1.227,0.039
15.11,-0.136,0.766,0.165
15.12,-0.334,0.923,-0.007
15.13,-0.299,1.029,-0.115
15.14,-0.136,0.947,-0.089
15.15,-0.093,1.077,0.093
15.16,-0.06,0.672,0.108
15.17,-0.354,1.177,-0.025
15.18,-0.229,0.879,-0.172
15.19,-0.244,1.069,-0.032
15.2,-0.143,0.907,0.184
15.21,-0.143,0.896,0.104
15.22,-0.354,1.062,-0.096
15.23,-0.262,0.827,-0.119
15.24,-0.221,1.157,-0.029
15.25,-0.097,0.831,0.174
15.26,-0.206,1.088,0.087
15.27,-0.287,0.867,-0.116
15.28,-0.28,1.027,-0.109
15.29,-0.191,1.059,0.014
15.3,-0.066,0.883,0.172
15.31,-0.163,1.056,0.042
15.32,-0.348,0.798,-0.149
15.33,-0.225,1.164,-0.091
15.34,-0.104,0.917,0.051
15.35,-0.035,1.011,0.131
15.36,-0.315,0.856,-0.003
15.37,-0.333,0.967,-0.114
15.38,-0.087,1.157,-0.105
15.39,-0.101,0.87,0.068
15.4,-0.14,0.949,0.072
15.41,-0.32,0.84,-0.028
15.42,-0.229,1.244,-0.142
15.43,-0.138,0.863,-0.084
15.44,-0.183,0.947,0.115
15.45,-0.12,0.898,0.116
15.46,-0.356,0.98,-0.088
15.47,-0.245,1.045,-0.115
15.48,-0.188,0.842,-0.015
15.49,-0.076,1.113,0.12
15.5,-0.216,0.762,0.113
15.51,-0.316,1.11,-0.094
15.52,-0.216,0.889,-0.157
15.53,-0.175,1.103,0.036
15.54,-0.083,0.921,0.223
15.55,-0.216,0.799,0.048
15.56,-0.387,1.084,-0.124
15.57,-0.147,0.923,-0.059
15.58,-0.11,1.237,0.007
15.59,-0.082,0.653,0.149
15.6,-0.265,1.022,0.019
15.61,-0.348,0.971,-0.114
15.62,-0.158,1.007,-0.087
15.63,-0.124,1.011,0.091
15.64,-0.089,0.772,0.121
15.65,-0.363,1.151,-0.024
15.66,-0.292,0.843,-0.141
15.67,-0.248,1.099,-0.069
15.68,-0.089,0.793,0.147
15.69,-0.179,0.992,0.152
15.7,-0.29,1.005,-0.103
15.71,-0.352,0.878,-0.111
15.72,-0.131,1.101,-0.037
15.73,-0.024,0.883,0.18
15.74,-0.228,1.079,0.049
15.75,-0.34,0.796,-0.096
15.76,-0.212,1.113,-0.1
15.77,-0.147,0.973,0.015
15.78,-0.005,0.958,0.064
15.79,-0.201,0.965,0.064
15.8,-0.328,0.87,-0.151
15.81,-0.193,1.225,-0.043
15.82,-0.039,0.877,-0.028
15.83,-0.04,1.012,0.133
15.84,-0.285,0.809,-0.011
15.85,-0.339,1.135,-0.159
15.86,-0.209,0.902,-0.043
15.87,-0.066,1.053,0.07
15.88,-0.2,0.812,0.129
15.89,-0.322,1.003,0.003
15.9,-0.213,1.121,-0.165
15.91,-0.184,0.838,-0.077
15.92,-0.11,1.027,0.143
15.93,-0.147,0.782,0.085
15.94,-0.343,1.127,-0.081
15.95,-0.226,0.864,-0.17
15.96,-0.203,0.999,-0.012
15.97,-0.096,0.96,0.165
15.98,-0.231,0.865,0.111
15.99,-0.365,1.07,-0.132
16.0,-0.242,0.788,-0.086
16.01,-0.127,1.226,0.001
16.02,-0.106,0.817,0.155
16.03,-0.198,1.04,0.02
16.04,-0.289,0.893,-0.143
16.05,-0.19,0.994,-0.089
16.06,-0.087,1.12,0.07
16.07,-0.308,0.784,0.213
16.08,-0.289,1.104,0.014
16.09,-0.317,0.829,-0.104
16.1,-0.15,1.211,-0.099
16.11,-0.151,0.891,0.107
16.12,-0.159,0.926,0.114
16.13,-0.321,0.937,-0.044
16.14,-0.215,0.97,-0.134
16.15,-0.188,1.078,-0.076
16.16,-0.083,0.759,0.128
16.17,-0.144,1.094,0.096
16.18,-0.334,0.838,-0.08
16.19,-0.268,1.1,-0.113
16.2,-0.195,0.968,-0.0
16.21,-0.134,0.963,0.135
16.22,-0.15,0.938,0.071
16.23,-0.327,0.909,-0.113
16.24,-0.17,1.138,-0.124
16.25,-0.152,0.915,0.023
16.26,-0.111,1.063,0.166
16.27,-0.183,0.778,0.027
16.28,-0.347,1.063,-0.139
16.29,-0.227,1.016,-0.052
16.3,-0.066,1.036,0.05
16.31,-0.108,0.926,0.127
16.32,-0.264,0.823,-0.013
16.33,-0.298,1.198,-0.13
16.34,-0.209,0.874,-0.066
16.35,-0.165,1.065,0.109
16.36,-0.148,0.768,0.126
16.37,-0.329,1.04,-0.029
16.38,-0.275,1.008,-0.157
16.39,-0.229,0.909,-0.017
16.4,-0.106,1.02,0.127
16.41,-0.156,0.806,0.109
16.42,-0.364,1.156,-0.093
16.43,-0.239,0.775,-0.151
16.44,-0.168,1.189,-0.003
16.45,-0.022,0.869,0.13
16.46,-0.195,0.932,0.062
16.47,-0.359,0.969,-0.097
16.48,-0.191,0.885,-0.116
16.49,-0.214,1.26,0.117
16.5,-0.01,0.728,0.128
16.51,-0.271,1.053,-0.0
16.52,-0.322,0.862,-0.116
16.53,-0.209,1.124,-0.06
16.54,-0.108,0.936,0.062
16.55,-0.118,0.832,0.128
16.56,-0.344,1.055,-0.002
16.57,-0.226,0.903,-0.122
16.58,-0.228,1.141,-0.042
16.59,-0.098,0.724,0.082
16.6,-0.198,1.043,0.136
16.61,-0.284,0.923,-0.068
16.62,-0.306,1.026,-0.128
16.63,-0.194,0.98,-0.028
16.64,-0.115,0.884,0.146
16.65,-0.171,1.08,0.079
16.66,-0.277,0.841,-0.089
16.67,-0.318,1.123,-0.06
16.68,-0.069,0.893,0.038
16.69,-0.08,1.063,0.124
16.7,-0.213,0.765,0.022
16.71,-0.371,1.043,-0.143
16.72,-0.238,0.985,-0.048
16.73,-0.043,1.038,0.027
16.74,-0.108,0.916,0.136
16.75,-0.294,0.832,-0.012
16.76,-0.367,1.172,-0.108
16.77,-0.138,0.866,-0.05
16.78,-0.116,1.12,0.085
16.79,-0.105,0.768,0.113
16.8,-0.333,1.071,-0.025
16.81,-0.29,0.964,-0.145
16.82,-0.228,0.911,-0.012
16.83,-0.152,1.036,0.114
16.84,-0.148,0.791,0.116
16.85,-0.348,1.14,-0.12
16.86,-0.278,0.788,-0.09
16.87,-0.18,1.158,-0.009
16.88,-0.059,0.905,0.177
16.89,-0.187,0.899,0.038
16.9,-0.351,0.977,-0.101
16.91,-0.242,0.881,-0.083
16.92,-0.154,1.208,0.026
16.93,-0.029,0.766,0.124
16.94,-0.258,1.045,0.037
16.95,-0.286,0.806,-0.131
16.96,-0.222,1.185,-0.076
16.97,-0.087,0.969,0.058
16.98,-0.123,0.877,0.157
16.99,-0.24,1.002,-0.039
17.0,-0.335,0.874,-0.096
17.01,-0.193,1.163,-0.084
17.02,-0.115,0.796,0.101
17.03,-0.146,1.03,0.096
17.04,-0.33,0.888,-0.026
17.05,-0.305,1.059,-0.129
17.06,-0.195,0.946,-0.054
17.07,-0.073,0.858,0.115
17.08,-0.229,1.066,0.125
17.09,-0.246,0.846,-0.088
17.1,-0.293,1.129,-0.128
17.11,-0.156,0.847,-0.021
17.12,-0.144,1.077,0.149
17.13,-0.18,0.884,0.087
17.14,-0.326,0.954,-0.136
17.15,-0.262,0.984,-0.1
17.16,-0.071,0.985,0.075
17.17,-0.115,1.154,0.17
17.18,-0.185,0.716,0.004
17.19,-0.382,1.111,-0.089
17.2,-0.164,0.921,-0.064
17.21,-0.053,1.179,0.013
17.22,-0.148,0.822,0.182
17.23,-0.274,0.868,-0.01
17.24,-0.351,1.078,-0.117
17.25,-0.132,0.898,-0.089
17.26,-0.129,1.119,0.105
17.27,-0.107,0.678,0.111
17.28,-0.335,1.146,-0.035
17.29,-0.307,0.897,-0.15
17.3,-0.209,0.999,-0.02
17.31,-0.082,0.979,0.11
17.32,-0.225,0.869,0.124
17.33,-0.331,1.088,-0.077
17.34,-0.254,0.81,-0.1
17.35,-0.184,1.211,-0.02
17.36,-0.051,0.817,0.14
17.37,-0.237,1.04,0.069
17.38,-0.319,0.885,-0.132
17.39,-0.23,0.96,-0.106
17.4,-0.134,1.175,0.04
17.41,-0.052,0.825,0.122
17.42,-0.248,1.026,0.06
17.43,-0.244,0.794,-0.134
17.44,-0.27,1.241,-0.047
17.45,-0.097,0.91,0.014
17.46,-0.102,0.925,0.143
17.47,-0.205,0.946,0.01
17.48,-0.337,0.952,-0.14
17.49,-0.179,0.979,-0.08
17.5,-0.064,0.88,0.088
17.51,-0.167,1.038,0.138
17.52,-0.285,0.883,-0.024
17.53,-0.339,1.175,-0.141
17.54,-0.179,0.811,-0.053
17.55,-0.115,1.068,0.126
17.56,-0.195,0.846,0.073
17.57,-0.353,1.025,-0.055
17.58,-0.267,1.03,-0.157
17.59,-0.17,0.861,-0.004
17.6,-0.108,1.062,0.141
17.61,-0.163,0.767,0.064
17.62,-0.366,1.132,-0.107
17.63,-0.224,0.812,-0.133
17.64,-0.206,1.165,0.035
17.65,-0.063,0.933,0.135
17.66,-0.207,0.868,0.031
17.67,-0.347,1.023,-0.116
17.68,-0.187,0.887,-0.03
17.69,-0.113,1.247,0.057
17.7,-0.067,0.654,0.111
17.71,-0.287,1.061,0.007
17.72,-0.354,0.902,-0.128
17.73,-0.171,1.071,-0.094
17.74,-0.127,0.991,0.069
17.75,-0.091,0.785,0.111
17.76,-0.314,1.104,-0.027
17.77,-0.231,1.159,-0.055
17.78,-0.114,0.82,0.14
17.79,-0.2,1.003,0.13
17.8,-0.28,0.967,-0.064
17.81,-0.327,0.911,-0.108
17.82,-0.145,1.09,-0.054
17.83,-0.091,0.84,0.153
17.84,-0.19,1.092,0.059
17.85,-0.317,0.827,-0.09
17.86,-0.242,1.108,-0.115
17.87,-0.167,0.977,0.03
17.88,-0.049,0.971,0.145
17.89,-0.21,0.951,0.052
17.9,-0.302,0.853,-0.11
17.91,-0.197,1.164,-0.093
17.92,-0.1,0.876,0.013
17.93,-0.114,1.052,0.141
17.94,-0.175,0.771,-0.021
17.95,-0.393,1.091,-0.101
17.96,-0.149,0.993,-0.089
17.97,-0.061,0.985,0.011
17.98,-0.091,0.907,0.13
17.99,-0.329,0.875,-0.019
18.0,-0.301,1.197,-0.138
18.01,-0.168,0.84,-0.1
18.02,-0.14,1.083,0.105
18.03,-0.129,0.787,0.093
18.04,-0.357,1.052,-0.028
18.05,-0.301,0.982,-0.126
18.06,-0.157,0.893,-0.033
18.07,-0.115,1.071,0.162
18.08,-0.185,0.773,0.065
18.09,-0.346,1.126,-0.121
18.1,-0.206,0.799,-0.107
18.11,-0.144,1.203,-0.006
18.12,-0.229,0.868,0.222
18.13,-0.21,0.93,0.047
18.14,-0.355,1.011,-0.102
18.15,-0.179,0.888,-0.086
18.16,-0.124,1.185,0.019
18.17,-0.132,0.753,0.15
18.18,-0.262,1.041,0.027
18.19,-0.319,0.837,-0.15
18.2,-0.166,1.091,-0.105
18.21,-0.076,0.978,0.034
18.22,-0.102,0.852,0.148
18.23,-0.264,1.032,-0.025
18.24,-0.289,0.85,-0.128
18.25,-0.114,1.218,-0.046
18.26,-0.168,0.786,0.101
18.27,-0.217,1.054,0.143
18.28,-0.304,0.879,-0.075
18.29,-0.206,1.192,-0.168
18.3,-0.147,0.879,-0.035
18.31,-0.198,0.968,0.116
18.32,-0.146,0.944,0.14
18.33,-0.295,0.927,-0.134
18.34,-0.224,1.079,-0.132
18.35,-0.246,0.839,0.011
18.36,-0.045,1.121,0.194
18.37,-0.164,0.801,0.025
18.38,-0.351,1.018,-0.142
18.39,-0.212,0.994,-0.071
18.4,-0.05,1.117,0.037
18.41,-0.097,0.9,0.135
18.42,-0.261,0.797,0.008
18.43,-0.357,1.206,-0.135
18.44,-0.148,0.868,-0.076
18.45,-0.156,1.117,0.107
18.46,-0.069,0.73,0.119
18.47,-0.338,1.029,-0.037
18.48,-0.315,0.994,-0.15
18.49,-0.197,0.906,-0.062
18.5,-0.092,1.044,0.114
18.51,-0.158,0.755,0.108
18.52,-0.325,1.135,-0.081
18.53,-0.28,0.817,-0.111
18.54,-0.215,1.132,-0.01
18.55,-0.067,0.852,0.12
18.56,-0.201,0.966,0.108
18.57,-0.3,1.0,-0.124
18.58,-0.205,0.84,-0.107
18.59,-0.147,1.267,0.021
18.6,-0.089,0.8,0.143
18.61,-0.235,1.061,0.043
18.62,-0.354,0.834,-0.125
18.63,-0.224,1.099,-0.083
18.64,-0.075,1.021,0.036
18.65,0.034,0.865,0.03
18.66,-0.249,0.972,0.01
18.67,-0.335,0.855,-0.107
18.68,-0.23,1.223,-0.041
18.69,-0.071,0.846,0.05
18.7,-0.113,0.965,0.13
18.71,-0.286,0.873,-0.023
18.72,-0.344,1.085,-0.128
18.73,-0.209,0.984,-0.042
18.74,-0.111,0.86,0.122
18.75,-0.17,1.051,0.102
18.76,-0.335,0.858,-0.059
18.77,-0.273,1.114,-0.141
18.78,-0.139,0.857,-0.007
18.79,-0.136,1.081,0.168
18.8,-0.209,0.883,0.112
18.81,-0.305,0.985,-0.082
18.82,-0.196,1.033,-0.148
18.83,-0.208,0.946,0.04
18.84,-0.088,1.09,0.139
18.85,-0.155,0.748,0.029
18.86,-0.377,1.111,-0.124
18.87,-0.214,0.907,-0.098
18.88,-0.096,1.146,0.055
18.89,-0.095,0.858,0.158
18.9,-0.269,0.854,0.013
18.91,-0.319,1.12,-0.108
18.92,-0.112,0.942,-0.109
18.93,-0.126,1.132,0.052
18.94,-0.144,0.678,0.174
18.95,-0.307,1.103,-0.035
18.96,-0.319,0.889,-0.126
18.97,-0.199,0.988,-0.037
18.98,-0.097,0.98,0.103
18.99,-0.153,0.812,0.105
19.0,-0.333,1.136,-0.066
19.01,-0.284,0.793,-0.143
19.02,-0.174,1.13,-0.042
19.03,0.012,0.779,0.016
19.04,-0.167,1.024,0.094
19.05,-0.346,0.936,-0.086
19.06,-0.224,0.878,-0.133
19.07,-0.203,1.093,0.034
19.08,-0.228,0.845,0.144
19.09,-0.26,0.986,0.042
19.1,-0.382,0.819,-0.137
19.11,-0.151,1.221,-0.098
19.12,-0.114,0.876,0.046
19.13,-0.052,1.029,0.11
19.14,-0.256,0.832,-0.002
19.15,-0.31,1.062,-0.163
19.16,-0.206,1.016,-0.065
19.17,-0.099,0.88,0.113
19.18,-0.145,0.984,0.121
19.19,-0.323,0.839,-0.055
19.2,-0.297,1.161,-0.148
19.21,-0.202,0.836,-0.042
19.22,-0.093,1.06,0.097
19.23,-0.233,0.879,0.149
19.24,-0.317,0.977,-0.065
19.25,-0.289,1.024,-0.106
19.26,-0.133,0.883,-0.012
19.27,-0.278,1.12,0.144
19.28,-0.187,0.786,0.056
19.29,-0.331,1.145,-0.12
19.3,-0.221,0.841,-0.12
19.31,-0.161,1.13,0.023
19.32,-0.158,0.927,0.28
19.33,-0.187,0.872,0.048
19.34,-0.389,1.036,-0.108
19.35,-0.148,0.872,-0.079
19.36,-0.109,1.268,0.06
19.37,-0.124,0.704,0.124
19.38,-0.298,1.041,0.01
19.39,-0.326,0.901,-0.125
19.4,-0.092,1.114,-0.113
19.41,-0.167,0.947,0.079
19.42,-0.066,0.733,0.155
19.43,-0.321,1.154,-0.052
19.44,-0.283,0.843,-0.152
19.45,-0.244,1.093,-0.02
19.46,-0.12,0.829,0.172
19.47,-0.132,1.009,0.096
19.48,-0.329,0.936,-0.092
19.49,-0.23,0.938,-0.113
19.5,-0.223,1.065,-0.013
19.51,-0.09,0.812,0.172
19.52,-0.206,1.115,0.062
19.53,-0.255,0.812,-0.138
19.54,-0.283,1.167,-0.082
19.55,-0.136,0.964,0.002
19.56,-0.047,0.916,0.156
19.57,-0.195,0.906,0.016
19.58,-0.384,0.91,-0.103
19.59,-0.26,1.17,-0.078
19.6,-0.079,0.85,0.02
19.61,-0.071,1.033,0.125
19.62,-0.33,0.789,-0.022
19.63,-0.328,1.103,-0.098
19.64,-0.106,0.987,-0.103
19.65,-0.12,0.959,0.084
19.66,-0.183,0.906,0.151
19.67,-0.334,0.854,-0.024
19.68,-0.279,1.139,-0.135
19.69,-0.171,0.847,-0.05
19.7,-0.498,1.06,0.166
19.71,-0.141,0.826,0.067
19.72,-0.353,1.057,-0.114
19.73,-0.219,0.897,-0.129
19.74,-0.129,1.052,0.005
19.75,-0.035,1.031,0.074
19.76,-0.102,0.771,0.043
19.77,-0.394,1.181,-0.103
19.78,-0.24,0.852,-0.132
19.79,-0.076,1.231,0.054
19.8,-0.147,0.796,0.124
19.81,-0.297,0.944,0.055
19.82,-0.32,1.013,-0.15
19.83,-0.101,1.038,-0.086
19.84,-0.109,1.135,0.024
19.85,-0.15,0.653,0.19
19.86,-0.34,1.121,-0.02
19.87,-0.25,0.909,-0.122
19.88,-0.191,1.121,-0.098
19.89,-0.155,0.841,0.109
19.9,-0.138,0.906,0.145
19.91,-0.266,0.948,-0.1
19.92,-0.278,0.918,-0.123
19.93,-0.133,1.067,-0.063
19.94,-0.143,0.863,0.239
19.95,-0.176,1.119,0.101
19.96,-0.32,0.854,-0.077
19.97,-0.22,1.151,-0.123
19.98,-0.184,0.957,0.006
19.99,-0.063,0.995,0.17
20.0,-0.192,0.908,0.022
20.01,-0.334,0.889,-0.086
20.02,-0.211,1.15,-0.123
20.03,-0.129,0.898,0.058
20.04,-0.121,1.061,0.134
20.05,-0.17,0.784,0.002
20.06,-0.364,1.114,-0.153
20.07,-0.186,0.98,-0.061
20.08,-0.059,1.032,0.062
20.09,-0.109,0.885,0.097
20.1,-0.347,0.869,0.024
20.11,-0.315,1.203,-0.136
20.12,-0.142,0.883,-0.064
20.13,-0.106,1.059,0.078
20.14,-0.167,0.763,0.094
20.15,-0.389,1.105,-0.039
20.16,-0.191,0.946,-0.151
20.17,-0.222,0.94,-0.02
20.18,-0.069,0.99,0.043
20.19,-0.117,0.803,0.108
20.2,-0.337,1.19,-0.093
20.21,-0.247,0.81,-0.13
20.22,-0.243,1.171,0.012
20.23,-0.039,0.805,0.164
20.24,-0.194,0.964,0.058
20.25,-0.293,0.949,-0.147
20.26,-0.271,0.953,-0.059
20.27,-0.106,1.181,0.047
20.28,0.022,0.716,0.175
20.29,-0.298,1.054,0.009
20.3,-0.308,0.833,-0.103
20.31,-0.163,1.158,-0.101
20.32,-0.14,0.954,0.092
20.33,-0.082,0.861,0.132
20.34,-0.307,1.047,-0.003
20.35,-0.269,0.918,-0.129
20.36,-0.233,1.128,-0.087
20.37,-0.203,0.772,0.201
20.38,-0.217,1.14,0.134
20.39,-0.314,0.843,-0.045
20.4,-0.275,1.068,-0.169
20.41,-0.178,0.967,-0.063
20.42,-0.122,0.843,0.109
20.43,-0.205,1.06,0.131
20.44,-0.329,0.832,-0.09
20.45,-0.266,1.091,-0.121
20.46,-0.169,0.865,0.013
20.47,-0.283,1.082,0.209
20.48,-0.131,0.824,0.055
20.49,-0.353,1.004,-0.106
20.5,-0.197,1.052,-0.137
20.51,-0.178,0.937,0.04
20.52,-0.039,1.049,0.153
20.53,-0.204,0.738,0.014
20.54,-0.409,1.087,-0.112
20.55,-0.198,0.919,-0.068
20.56,-0.116,1.192,0.076
20.57,-0.081,0.808,0.079
20.58,-0.294,0.888,0.024
20.59,-0.321,1.115,-0.125
20.6,-0.131,0.906,-0.071
20.61,-0.141,1.119,0.059
20.62,-0.158,0.711,0.136
20.63,-0.336,1.114,-0.039
20.64,-0.246,0.927,-0.136
20.65,-0.216,1.001,-0.055
20.66,-0.04,0.88,-0.0
20.67,-0.119,0.846,0.15
20.68,-0.358,1.142,-0.09
20.69,-0.244,0.771,-0.096
20.7,-0.176,1.168,-0.012
20.71,-0.058,0.796,0.113
20.72,-0.218,1.043,0.112
20.73,-0.269,0.92,-0.119
20.74,-0.267,1.093,-0.096
20.75,-0.117,0.969,0.021
20.76,0.104,0.936,0.059
20.77,-0.185,0.978,0.006
20.78,-0.329,0.822,-0.105
20.79,-0.25,1.218,-0.103
20.8,-0.083,0.895,0.045
20.81,-0.127,1.009,0.156
20.82,-0.171,0.826,-0.019
20.83,-0.424,1.075,-0.138
20.84,-0.129,0.987,-0.087
20.85,-0.196,0.902,0.088
20.86,-0.169,0.997,0.154
20.87,-0.266,0.841,-0.032
20.88,-0.312,1.2,-0.156
20.89,-0.146,0.784,-0.073
20.9,-0.132,1.047,0.144
20.91,-0.149,0.844,0.1
20.92,-0.36,1.019,-0.057
20.93,-0.267,1.011,-0.113
20.94,-0.164,0.899,-0.027
20.95,-0.149,1.086,0.156
20.96,-0.113,0.749,0.078
20.97,-0.399,1.122,-0.087
20.98,-0.215,0.791,-0.131
20.99,-0.145,1.164,0.017
21.0,-0.087,0.927,0.181
21.01,-0.213,0.834,0.049
21.02,-0.301,1.034,-0.094
21.03,-0.206,0.936,-0.081
21.04,-0.056,1.236,0.018
21.05,-0.103,0.703,0.175
21.06,-0.251,1.029,0.025
21.07,-0.343,0.853,-0.108
21.08,-0.114,1.08,-0.097
21.09,-0.161,1.029,0.083
21.1,0.002,0.751,0.042
21.11,-0.27,1.085,0.006
21.12,-0.326,0.873,-0.124
21.13,-0.177,1.196,-0.087
21.14,-0.075,0.782,0.098
21.15,-0.18,1.021,0.15
21.16,-0.258,0.908,-0.035
21.17,-0.306,0.962,-0.138
21.18,-0.169,1.01,-0.04
21.19,-0.1,0.836,0.124
21.2,-0.219,1.07,0.126
21.21,-0.294,0.83,-0.088
21.22,-0.26,1.136,-0.149
21.23,-0.21,0.875,0.002
21.24,-0.109,0.992,0.165
21.25,-0.177,0.936,0.098
21.26,-0.304,0.935,-0.132
21.27,-0.233,1.046,-0.114
21.28,-0.143,0.905,0.035
21.29,-0.122,1.13,0.135
21.3,-0.204,0.76,0.029
21.31,-0.397,1.053,-0.131
21.32,-0.152,0.934,-0.077
21.33,-0.101,1.117,0.068
21.34,-0.076,0.904,0.127
21.35,-0.318,0.808,0.038
21.36,-0.301,1.106,-0.145
21.37,-0.199,0.924,-0.034
21.38,-0.094,1.171,0.032
21.39,-0.191,0.681,0.158
21.4,-0.293,1.018,-0.023
21.41,-0.254,1.028,-0.116
21.42,-0.133,0.978,-0.076
21.43,-0.2,0.986,0.136
21.44,-0.161,0.749,0.134
21.45,-0.339,1.17,-0.033
21.46,-0.189,0.816,-0.202
21.47,-0.302,1.103,-0.022
21.48,-0.129,0.804,0.131
21.49,-0.14,0.989,0.138
21.5,-0.308,1.026,-0.143
21.51,-0.25,0.834,-0.126
21.52,-0.18,1.162,0.011
21.53,-0.291,0.805,0.19
21.54,-0.207,1.103,0.025
21.55,-0.318,0.77,-0.135
21.56,-0.173,1.224,-0.092
21.57,-0.098,0.872,0.051
21.58,-0.075,0.961,0.134
21.59,-0.316,0.886,0.003
21.6,-0.296,0.965,-0.12
21.61,-0.133,1.122,-0.112
21.62,-0.164,0.793,0.12
21.63,-0.185,1.02,0.116
21.64,-0.26,0.844,-0.035
21.65,-0.342,1.177,-0.129
21.66,-0.177,0.829,-0.066
21.67,-0.125,1.018,0.137
21.68,-0.199,0.903,0.108
21.69,-0.255,0.927,-0.07
21.7,-0.26,1.093,-0.1
21.71,-0.153,0.885,-0.023
21.72,-0.182,1.093,0.172
21.73,-0.166,0.791,0.095
21.74,-0.324,1.111,-0.125
21.75,-0.28,0.892,-0.124
21.76,-0.123,1.06,0.039
21.77,-0.165,0.989,0.15
21.78,-0.196,0.818,0.024
21.79,-0.33,1.131,-0.138
21.8,-0.191,0.867,-0.074
21.81,-0.149,1.162,0.063
21.82,-0.04,0.753,0.194
21.83,-0.339,1.026,-0.002
21.84,-0.346,0.895,-0.122
21.85,-0.144,1.057,-0.056
21.86,-0.069,1.091,0.056
21.87,-0.145,0.725,0.119
21.88,-0.319,1.142,-0.049
21.89,-0.22,0.886,-0.152
21.9,-0.238,1.122,-0.042
21.91,-0.239,0.817,0.113
21.92,-0.192,1.014,0.136
21.93,-0.311,1.02,-0.098
21.94,-0.299,0.846,-0.115
21.95,-0.205,1.086,-0.035
21.96,-0.04,0.813,0.12
21.97,-0.224,1.073,0.063
21.98,-0.229,0.818,-0.104
21.99,-0.253,1.118,-0.096
22.0,-0.177,1.005,0.022
22.01,-0.092,0.879,0.164
22.02,-0.176,0.98,0.043
22.03,-0.37,0.855,-0.103
22.04,-0.206,1.17,-0.078
22.05,-0.095,0.868,0.029
22.06,-0.091,1.057,0.166
22.07,-0.228,0.845,-0.015
22.08,-0.33,1.03,-0.139
22.09,-0.258,0.998,-0.037
22.1,-0.052,0.931,0.062
22.11,-0.132,0.983,0.137
22.12,-0.341,0.851,-0.035
22.13,-0.328,1.181,-0.126
22.14,-0.101,0.865,-0.072
22.15,-0.104,1.04,0.129
22.16,-0.236,0.81,0.144
22.17,-0.369,1.041,-0.038
22.18,-0.212,1.045,-0.146
22.19,-0.156,0.871,-0.013
22.2,-0.226,1.063,0.317
22.21,-0.178,0.785,0.09
22.22,-0.363,1.175,-0.118
22.23,-0.202,0.809,-0.121
22.24,-0.174,1.168,0.02
22.25,-0.049,0.896,0.111
22.26,-0.167,0.873,0.011
22.27,-0.353,1.038,-0.145
22.28,-0.244,0.886,-0.092
22.29,-0.066,1.207,0.062
22.3,-0.034,0.723,0.103
22.31,-0.254,1.02,-0.001
22.32,-0.331,0.9,-0.123
22.33,-0.141,1.106,-0.071
22.34,-0.14,0.947,0.058
22.35,-0.09,0.772,0.145
22.36,-0.376,1.096,-0.03
22.37,-0.283,0.856,-0.11
22.38,-0.21,1.166,-0.067
22.39,-0.047,0.758,0.104
22.4,-0.139,1.113,0.11
22.41,-0.341,0.862,-0.065
22.42,-0.292,1.036,-0.124
22.43,-0.147,0.963,-0.016
22.44,-0.25,0.995,0.148
22.45,-0.177,1.017,0.038
22.46,-0.365,0.857,-0.11
22.47,-0.151,1.151,-0.11
22.48,-0.144,0.931,0.028
22.49,0.042,0.981,0.027
22.5,-0.179,0.811,0.054
22.51,-0.367,1.078,-0.123
22.52,-0.213,1.023,-0.079
22.53,-0.13,0.949,0.037
22.54,-0.046,0.962,0.145
22.55,-0.259,0.787,-0.018
22.56,-0.302,1.209,-0.134
22.57,-0.226,0.854,-0.078
22.58,-0.122,1.043,0.128
22.59,-0.044,0.797,0.13
22.6,-0.335,1.018,-0.024
22.61,-0.316,1.015,-0.17
22.62,-0.25,0.873,-0.035
22.63,-0.106,1.065,0.118
22.64,-0.133,0.761,0.129
22.65,-0.359,1.129,-0.102
22.66,-0.265,0.777,-0.13
22.67,-0.175,1.095,-0.022
22.68,-0.061,0.94,0.139
22.69,-0.175,0.879,0.085
22.7,-0.337,1.089,-0.107
22.71,-0.216,0.825,-0.124
22.72,-0.186,1.2,0.007
22.73,-0.085,0.816,0.222
22.74,-0.193,1.046,0.01
22.75,-0.359,0.834,-0.1
22.76,-0.207,1.027,-0.086
22.77,-0.148,1.079,0.094
22.78,-0.018,0.811,0.099
22.79,-0.3,1.017,0.03
22.8,-0.322,0.8,-0.125
22.81,-0.163,1.246,-0.065
22.82,-0.101,0.849,0.046
22.83,-0.203,0.926,0.164
22.84,-0.31,0.949,-0.02
22.85,-0.195,1.06,-0.147
22.86,-0.147,1.036,-0.076
22.87,-0.31,0.784,0.085
22.88,-0.203,1.086,0.125
22.89,-0.325,0.862,-0.045
22.9,-0.274,1.121,-0.118
22.91,-0.163,0.865,-0.069
22.92,-0.13,1.034,0.135
22.93,-0.21,0.928,0.115
22.94,-0.41,0.92,-0.041
22.95,-0.206,1.046,-0.111
22.96,-0.163,0.912,0.02
22.97,-0.029,1.073,0.075
22.98,-0.128,0.756,0.076
22.99,-0.334,1.103,-0.092
23.0,-0.214,0.929,-0.143
23.01,-0.242,1.073,0.076
23.02,-0.062,0.939,0.14
23.03,-0.233,0.833,0.057
23.04,-0.322,1.106,-0.119
23.05,-0.253,0.871,-0.052
23.06,-0.072,1.205,0.041
23.07,-0.071,0.732,0.236
23.08,-0.311,1.013,0.026
23.09,-0.3,0.952,-0.123
23.1,-0.109,1.028,-0.128
23.11,-0.094,1.046,0.078
23.12,-0.105,0.752,0.11
23.13,-0.338,1.118,-0.035
23.14,-0.296,0.877,-0.14
23.15,-0.156,1.147,-0.065
23.16,-0.089,0.797,0.107
23.17,-0.227,0.948,0.153
23.18,-0.318,1.069,-0.073
23.19,-0.273,0.921,-0.15
23.2,-0.215,1.083,-0.012
23.21,-0.091,0.849,0.154
23.22,-0.174,1.087,0.028
23.23,-0.282,0.821,-0.114
23.24,-0.223,1.12,-0.151
23.25,-0.152,0.874,0.029
23.26,-0.236,1.072,0.274
23.27,-0.212,0.862,0.035
23.28,-0.383,0.928,-0.112
23.29,-0.19,1.128,-0.077
23.3,-0.037,0.976,0.03
23.31,-0.373,1.001,0.168
23.32,-0.257,0.762,-0.011
23.33,-0.282,1.213,-0.138
23.34,-0.16,0.965,-0.11
23.35,-0.17,0.972,0.069
23.36,-0.108,0.851,0.148
23.37,-0.344,0.918,-0.015
23.38,-0.227,1.118,-0.164
23.39,-0.22,0.847,-0.061
23.4,-0.11,1.086,0.105
23.41,-0.123,0.771,0.133
23.42,-0.313,1.113,-0.104
23.43,-0.287,0.853,-0.154
23.44,-0.238,1.025,-0.007
23.45,-0.044,1.02,0.129
23.46,-0.186,0.772,0.054
23.47,-0.365,1.112,-0.044
23.48,-0.155,0.817,-0.118
23.49,-0.223,1.262,0.016
23.5,-0.031,0.769,0.14
23.51,-0.237,0.975,0.048
23.52,-0.307,0.951,-0.09
23.53,-0.194,0.997,-0.124
23.54,-0.092,1.125,0.012
23.55,-0.065,0.747,0.164
23.56,-0.24,1.106,-0.012
23.57,-0.315,0.828,-0.125
23.58,-0.188,1.192,-0.086
23.59,-0.099,0.888,0.029
23.6,-0.135,0.892,0.166
23.61,-0.311,0.993,-0.036
23.62,-0.31,0.907,-0.151
23.63,-0.139,1.142,-0.077
23.64,-0.101,0.741,0.115
23.65,-0.188,0.997,0.142
23.66,-0.263,0.892,-0.041
23.67,-0.262,1.146,-0.158
23.68,-0.192,0.927,-0.077
23.69,-0.233,0.855,0.137
23.7,-0.21,1.038,0.105
23.71,-0.296,0.904,-0.072
23.72,-0.267,1.139,-0.153
23.73,-0.177,0.796,0.007
23.74,-0.136,1.114,0.156
23.75,-0.148,0.851,0.095
23.76,-0.353,1.008,-0.113
23.77,-0.192,0.94,-0.135
23.78,-0.159,0.984,0.053
23.79,-0.086,1.042,0.162
23.8,-0.22,0.782,0.018
23.81,-0.377,1.101,-0.149
23.82,-0.238,0.907,-0.012
23.83,-0.041,1.138,0.039
23.84,-0.143,0.799,0.155
23.85,-0.311,0.93,0.014
23.86,-0.277,1.061,-0.103
23.87,-0.156,0.885,-0.121
23.88,-0.227,1.104,0.211
23.89,-0.081,0.697,0.105
23.9,-0.373,1.156,-0.013
23.91,-0.205,0.895,-0.155
23.92,-0.227,1.066,-0.051
23.93,-0.136,0.893,0.13
23.94,-0.165,0.868,0.154
23.95,-0.32,1.101,-0.13
23.96,-0.265,0.745,-0.126
23.97,-0.187,1.197,-0.029
23.98,-0.08,0.84,0.175
23.99,-0.18,1.031,0.04
24.0,-0.287,0.835,-0.105
24.01,-0.233,1.019,-0.093
24.02,-0.167,1.133,0.037
24.03,-0.018,0.782,0.13
24.04,-0.23,0.993,0.046
24.05,-0.303,0.912,-0.113
24.06,-0.262,1.198,-0.107
24.07,-0.105,0.821,0.084
24.08,-0.071,1.037,0.118
24.09,-0.271,0.847,-0.013
24.1,-0.306,1.124,-0.137
24.11,-0.215,0.993,-0.071
24.12,-0.083,0.866,0.098
24.13,-0.181,0.989,0.109
24.14,-0.299,0.874,-0.022
24.15,-0.383,1.19,-0.141
24.16,-0.146,0.802,-0.036
24.17,-0.105,1.082,0.104
24.18,-0.189,0.799,0.103
24.19,-0.322,1.038,-0.066
24.2,-0.237,0.995,-0.133
24.21,-0.191,0.896,-0.016
24.22,-0.136,1.103,0.135
24.23,-0.167,0.75,0.059
24.24,-0.37,1.139,-0.07
24.25,-0.166,0.815,-0.125
24.26,-0.196,1.198,0.042
24.27,-0.022,0.833,0.108
24.28,-0.202,0.88,0.041
24.29,-0.344,1.037,-0.132
24.3,-0.208,0.912,-0.045
24.31,-0.111,1.227,0.026
24.32,-0.069,0.679,0.136
24.33,-0.272,0.997,0.006
24.34,-0.334,0.884,-0.067
24.35,-0.166,1.062,-0.126
24.36,-0.117,0.993,0.085
24.37,-0.051,0.834,0.158
24.38,-0.271,1.05,-0.041
24.39,-0.31,0.851,-0.09
24.4,-0.205,1.188,-0.095
24.41,-0.042,0.774,0.061
24.42,-0.143,1.004,0.151
24.43,-0.268,0.978,-0.061
24.44,-0.306,1.004,-0.151
24.45,-0.199,0.979,-0.038
24.46,-0.062,0.812,0.107
24.47,-0.236,1.122,0.118
24.48,-0.317,0.839,-0.087
24.49,-0.316,1.122,-0.1
24.5,-0.183,0.84,-0.051
24.51,-0.05,1.069,0.117
24.52,-0.176,0.95,0.066
24.53,-0.323,0.89,-0.11
24.54,-0.187,1.073,-0.104
24.55,-0.155,0.944,0.037
24.56,-0.145,1.107,0.144
24.57,-0.202,0.787,0.051
24.58,-0.334,1.1,-0.106
24.59,-0.255,0.946,-0.07
24.6,-0.053,1.077,-0.007
24.61,-0.124,0.925,0.147
24.62,-0.271,0.812,0.035
24.63,-0.337,1.094,-0.13
24.64,-0.115,0.906,-0.104
24.65,-0.09,1.192,0.017
24.66,-0.281,0.719,0.157
24.67,-0.329,1.053,0.011
24.68,-0.252,0.965,-0.137
24.69,-0.136,0.997,-0.119
24.7,-0.163,1.0,0.106
24.71,-0.186,0.745,0.161
24.72,-0.324,1.14,-0.049
24.73,-0.262,0.879,-0.145
24.74,-0.131,1.132,-0.065
24.75,-0.104,0.823,0.08
24.76,-0.182,0.944,0.15
24.77,-0.287,1.0,-0.054
24.78,-0.224,0.901,-0.149
24.79,-0.145,1.092,-0.048
24.8,-0.171,0.773,0.163
24.81,-0.219,1.121,0.102
24.82,-0.221,0.863,-0.116
24.83,-0.265,1.058,-0.14
24.84,-0.169,0.921,-0.028
24.85,-0.13,0.942,0.21
24.86,-0.153,0.894,0.007
24.87,-0.322,0.936,-0.119
24.88,-0.22,1.111,-0.072
24.89,-0.043,0.976,0.047
24.9,-0.027,1.015,0.038
24.91,-0.243,0.774,-0.003
24.92,-0.309,1.141,-0.151
24.93,-0.158,0.976,-0.076
24.94,-0.147,1.01,0.108
24.95,-0.144,0.854,0.165
24.96,-0.382,0.903,-0.021
24.97,-0.248,1.135,-0.147
24.98,-0.162,0.849,-0.096
24.99,-0.154,1.067,0.115
25.0,-0.16,0.728,0.115
25.01,-0.33,1.115,-0.036
25.02,-0.217,0.909,-0.141
25.03,-0.22,1.0,-0.019
25.04,-0.183,0.974,0.185
25.05,-0.159,0.81,0.085
25.06,-0.402,1.123,-0.065
25.07,-0.149,0.772,-0.131
25.08,-0.188,1.206,-0.013
25.09,-0.399,0.78,0.347
25.1,-0.192,0.985,0.05
25.11,-0.337,0.941,-0.105
25.12,-0.173,0.919,-0.111
25.13,-0.082,1.153,0.036
25.14,-0.1,0.751,0.133
25.15,-0.298,1.072,0.022
25.16,-0.361,0.824,-0.123
25.17,-0.14,1.174,-0.113
25.18,-0.138,0.903,0.046
25.19,-0.125,0.858,0.164
25.2,-0.301,0.989,0.003
25.21,-0.256,0.901,-0.134
25.22,-0.125,1.19,-0.093
25.23,-0.111,0.78,0.091
25.24,-0.187,1.008,0.148
25.25,-0.349,0.881,-0.042
25.26,-0.244,1.162,-0.166
25.27,-0.155,0.95,-0.109
25.28,-0.129,0.835,0.14
25.29,-0.199,0.996,0.12
25.3,-0.305,0.87,-0.086
25.31,-0.271,1.174,-0.106
25.32,-0.15,0.828,-0.059
25.33,-0.115,1.061,0.092
25.34,-0.151,0.854,0.085
25.35,-0.331,1.034,-0.108
25.36,-0.256,0.976,-0.145
25.37,-0.17,0.998,0.056
25.38,-0.4,1.088,0.245
25.39,-0.242,0.735,0.039
25.4,-0.325,1.156,-0.14
25.41,-0.17,0.925,-0.068
25.42,-0.091,1.139,0.019
25.43,-0.103,0.816,0.196
25.44,-0.314,0.924,-0.008
25.45,-0.348,1.024,-0.089
25.46,-0.123,0.939,-0.101
25.47,-0.166,1.105,0.094
25.48,-0.106,0.677,0.122
25.49,-0.334,1.157,-0.009
25.5,-0.224,0.865,-0.172
25.51,-0.247,1.005,-0.037
25.52,-0.077,0.967,0.112
25.53,-0.143,0.903,0.156
25.54,-0.252,1.08,-0.102
25.55,-0.278,0.75,-0.135
25.56,-0.216,1.166,0.002
25.57,-0.073,0.833,0.167
25.58,-0.193,1.057,0.063
25.59,-0.305,0.876,-0.112
25.6,-0.267,0.973,-0.106
25.61,-0.101,1.151,0.032
25.62,-0.013,0.817,0.083
25.63,-0.247,1.061,0.067
25.64,-0.284,0.818,-0.143
25.65,-0.206,1.231,-0.079
25.66,-0.085,0.915,0.025
25.67,-0.122,0.944,0.188
25.68,-0.323,0.936,0.021
25.69,-0.3,1.105,-0.155
25.7,-0.17,0.971,-0.067
25.71,-0.073,0.903,0.124
25.72,-0.391,0.99,0.149
25.73,-0.335,0.831,-0.058
25.74,-0.248,1.177,-0.164
25.75,-0.32,0.839,0.015
25.76,-0.093,1.03,0.137
25.77,-0.173,0.881,0.121
25.78,-0.324,0.996,-0.091
25.79,-0.264,0.987,-0.121
25.8,-0.178,0.927,0.034
25.81,-0.122,1.136,0.17
25.82,-0.136,0.779,0.044
25.83,-0.407,1.103,-0.14
25.84,-0.182,0.819,-0.09
25.85,-0.116,1.202,0.03
25.86,-0.05,0.876,0.154
25.87,-0.194,0.89,-0.002
25.88,-0.346,1.033,-0.149
25.89,-0.166,0.948,-0.058
25.9,0.002,1.232,0.013
25.91,-0.157,0.66,0.156
25.92,-0.352,1.055,0.013
25.93,-0.251,0.916,-0.139
25.94,-0.19,1.104,-0.068
25.95,-0.084,0.936,0.081
25.96,-0.14,0.842,0.132
25.97,-0.315,1.117,-0.058
25.98,-0.224,0.826,-0.126
25.99,-0.22,1.135,-0.066
26.0,-0.198,0.793,0.171
26.01,-0.132,1.056,0.093
26.02,-0.375,0.926,-0.071
26.03,-0.228,0.885,-0.142
26.04,-0.222,1.082,-0.031
26.05,-0.067,0.798,0.191
26.06,-0.175,1.101,0.072
26.07,-0.315,0.772,-0.155
26.08,-0.228,1.139,-0.095
26.09,-0.161,0.975,0.042
26.1,0.003,0.918,0.122
26.11,-0.181,0.866,-0.087
26.12,-0.145,0.999,0.109
26.13,-0.169,0.844,0.108
26.14,-0.327,1.024,-0.05
26.15,-0.279,1.041,-0.17
26.16,-0.169,0.827,-0.011
26.17,-0.099,1.128,0.16
26.18,-0.155,0.77,0.025
26.19,-0.403,1.102,-0.089
26.2,-0.231,0.836,-0.143
26.21,-0.123,1.151,0.022
26.22,-0.239,0.911,0.11
26.23,-0.213,0.855,0.046
26.24,-0.255,1.066,-0.153
26.25,-0.249,0.889,-0.062
26.26,-0.074,1.188,-0.006
26.27,-0.012,0.694,0.101
26.28,-0.301,1.05,0.026
26.29,-0.313,0.948,-0.154
26.3,-0.182,1.011,-0.091
26.31,-0.093,0.988,0.083
26.32,-0.106,0.774,0.141
26.33,-0.331,1.126,-0.013
26.34,-0.271,0.843,-0.144
26.35,-0.221,1.137,-0.056
26.36,-0.08,0.798,0.124
26.37,-0.195,1.007,0.104
26.38,-0.34,0.984,-0.056
26.39,-0.254,0.926,-0.167
26.4,-0.228,1.042,-0.004
26.41,-0.049,0.819,0.144
26.42,-0.217,1.115,0.074
26.43,-0.303,0.792,-0.107
26.44,-0.29,1.144,-0.062
26.45,-0.105,0.927,0.062
26.46,-0.039,1.032,0.11
26.47,-0.223,0.816,0.043
26.48,-0.311,0.984,-0.098
26.49,-0.264,1.103,-0.095
26.5,-0.116,0.951,0.049
26.51,-0.109,1.032,0.162
26.52,-0.282,0.769,-0.021
26.53,-0.325,1.154,-0.127
26.54,-0.094,0.969,-0.042
26.55,-0.023,1.066,0.055
26.56,-0.269,0.779,0.148
26.57,-0.323,0.981,0.028
26.58,-0.269,1.147,-0.141
26.59,-0.155,0.819,-0.069
26.6,-0.198,1.077,0.19
26.61,-0.137,0.76,0.146
26.62,-0.334,1.118,-0.114
26.63,-0.216,0.861,-0.104
26.64,-0.224,1.087,-0.049
26.65,-0.115,0.895,0.176
26.66,-0.137,0.852,0.092
26.67,-0.356,1.091,-0.095
26.68,-0.24,0.833,-0.084
26.69,-0.15,1.241,0.009
26.7,-0.052,0.758,0.136
26.71,-0.232,1.009,0.05
26.72,-0.301,0.901,-0.137
26.73,-0.186,1.03,-0.108
26.74,-0.078,1.123,0.032
26.75,-0.089,0.752,0.144
26.76,-0.271,1.092,0.003
26.77,-0.328,0.841,-0.113
26.78,-0.199,1.183,-0.093
26.79,-0.151,0.873,0.068
26.8,-0.168,0.933,0.147
26.81,-0.342,0.974,-0.023
26.82,-0.25,0.962,-0.143
26.83,-0.205,1.09,-0.065
26.84,-0.097,0.779,0.126
26.85,-0.196,1.071,0.121
26.86,-0.288,0.847,-0.083
26.87,-0.289,1.136,-0.147
26.88,-0.203,0.874,-0.043
26.89,-0.105,0.938,0.146
26.9,-0.236,0.991,0.103
26.91,-0.291,0.881,-0.127
26.92,-0.267,1.107,-0.117
26.93,-0.151,0.83,0.022
26.94,-0.103,1.11,0.218
26.95,-0.142,0.817,0.014
26.96,-0.405,1.009,-0.121
26.97,-0.255,0.974,-0.091
26.98,-0.042,1.074,0.03
26.99,-0.111,0.976,0.151
27.0,-0.267,0.75,-0.027
27.01,-0.342,1.201,-0.121
27.02,-0.153,0.891,-0.09
27.03,-0.327,1.091,0.133
27.04,-0.09,0.741,0.098
27.05,-0.336,1.031,-0.016
27.06,-0.238,1.024,-0.166
27.07,-0.231,0.874,-0.057
27.08,-0.157,1.049,0.117
27.09,-0.119,0.783,0.141
27.1,-0.365,1.155,-0.103
27.11,-0.282,0.763,-0.125
27.12,-0.227,1.107,-0.008
27.13,-0.111,0.942,0.168
27.14,-0.097,0.846,0.05
27.15,-0.362,1.057,-0.098
27.16,-0.218,0.84,-0.124
27.17,-0.186,1.241,0.03
27.18,-0.008,0.743,0.135
27.19,-0.268,1.028,0.034
27.2,-0.348,0.865,-0.106
27.21,-0.203,1.088,-0.077
27.22,-0.065,1.03,0.024
27.23,-0.128,0.762,0.171
27.24,-0.262,1.042,0.001
27.25,-0.306,0.896,-0.096
27.26,-0.137,1.216,-0.135
27.27,-0.018,0.734,0.084
27.28,-0.159,1.094,0.164
27.29,-0.307,0.905,-0.074
27.3,-0.287,1.053,-0.157
27.31,-0.127,0.948,-0.049
27.32,-0.113,0.926,0.132
27.33,-0.242,1.021,0.131
27.34,-0.298,0.858,-0.093
27.35,-0.268,1.139,-0.166
27.36,-0.171,0.798,-0.0
27.37,-0.109,1.081,0.168
27.38,-0.158,0.859,0.028
27.39,-0.354,1.018,-0.123
27.4,-0.28,0.978,-0.13
27.41,-0.116,0.991,0.035
27.42,-0.071,1.061,0.144
27.43,-0.222,0.765,0.016
27.44,-0.389,1.078,-0.14
27.45,-0.167,0.873,-0.063
27.46,-0.016,1.227,0.059
27.47,-0.142,0.832,0.134
27.48,-0.288,0.907,0.04
27.49,-0.314,1.038,-0.129
27.5,-0.099,0.975,-0.078
27.51,-0.042,1.108,-0.003
27.52,-0.077,0.662,0.109
27.53,-0.403,1.167,-0.029
27.54,-0.168,0.895,-0.129
27.55,-0.182,1.07,-0.044
27.56,-0.126,0.872,0.121
27.57,-0.252,0.893,0.159
27.58,-0.289,1.13,-0.128
27.59,-0.278,0.819,-0.116
27.6,-0.202,1.151,0.018
27.61,0.021,0.798,0.145
27.62,-0.224,1.082,0.013
27.63,-0.28,0.868,-0.129
27.64,-0.22,1.041,-0.09
27.65,-0.106,1.091,0.022
27.66,-0.068,0.686,0.167
27.67,-0.274,1.065,0.044
27.68,-0.303,0.831,-0.117
27.69,-0.213,1.219,-0.083
27.7,-0.075,0.832,0.066
27.71,-0.165,0.929,0.139
27.72,-0.292,0.99,0.003
27.73,-0.2,0.987,-0.177
27.74,-0.267,1.075,-0.044
27.75,-0.086,0.758,0.122
27.76,-0.197,1.088,0.119
27.77,-0.313,0.847,-0.074
27.78,-0.244,1.143,-0.169
27.79,-0.192,0.895,-0.034
27.8,-0.108,0.968,0.141
27.81,-0.144,0.98,0.069
27.82,-0.331,0.902,-0.102
27.83,-0.234,1.082,-0.124
27.84,-0.113,0.9,0.007
27.85,-0.113,1.127,0.149
27.86,-0.216,0.754,0.045
27.87,-0.33,1.049,-0.126
27.88,-0.195,1.007,-0.095
27.89,-0.079,1.029,0.051
27.9,-0.085,0.951,0.148
27.91,-0.292,0.771,0.016
27.92,-0.352,1.144,-0.157
27.93,-0.135,0.945,-0.041
27.94,-0.137,1.15,0.044
27.95,-0.177,0.703,0.157
27.96,-0.326,1.0,-0.005
27.97,-0.205,1.089,-0.16
27.98,-0.176,0.928,-0.091
27.99,-0.178,0.974,0.134
28.0,-0.168,0.765,0.158
28.01,-0.348,1.166,-0.107
28.02,-0.27,0.823,-0.17
28.03,-0.152,1.095,-0.018
28.04,-0.113,0.895,0.175
28.05,-0.26,0.934,0.08
28.06,-0.318,1.036,-0.115
28.07,-0.204,0.807,-0.108
28.08,-0.146,1.181,0.055
28.09,-0.05,0.732,0.14
28.1,-0.317,1.091,0.037
28.11,-0.305,0.814,-0.151
28.12,-0.146,1.224,-0.077
28.13,-0.18,0.858,0.113
28.14,-0.158,0.91,0.126
28.15,-0.289,1.0,-0.022
28.16,-0.21,0.958,-0.18
28.17,-0.208,1.062,-0.031
28.18,-0.043,0.763,0.069
28.19,-0.153,1.099,0.093
28.2,-0.292,0.879,-0.128
28.21,-0.242,1.088,-0.122
28.22,-0.206,0.963,-0.014
28.23,-0.087,0.943,0.182
28.24,-0.211,0.995,0.037
28.25,-0.337,0.851,-0.107
28.26,-0.198,1.205,-0.062
28.27,-0.104,0.906,0.023
28.28,-0.072,0.949,0.123
28.29,-0.26,0.854,-0.002
28.3,-0.34,1.098,-0.127
28.31,-0.242,0.981,-0.066
28.32,-0.046,0.898,0.101
28.33,-0.181,1.049,0.175
28.34,-0.28,0.875,-0.045
28.35,-0.335,1.117,-0.145
28.36,-0.139,0.843,-0.037
28.37,-0.144,1.085,0.141
28.38,-0.15,0.875,0.096
28.39,-0.323,0.982,-0.122
28.4,-0.2,1.007,-0.131
28.41,-0.232,0.989,0.088
28.42,-0.063,1.074,0.109
28.43,-0.176,0.728,0.048
28.44,-0.348,1.145,-0.135
28.45,-0.222,0.96,-0.068
28.46,-0.14,1.117,0.009
28.47,-0.053,0.787,0.171
28.48,-0.257,0.913,0.002
28.49,-0.32,1.09,-0.147
28.5,-0.23,0.867,-0.077
28.51,-0.088,1.097,0.092
28.52,-0.129,0.71,0.121
28.53,-0.351,1.11,-0.049
28.54,-0.297,0.876,-0.142
28.55,-0.194,1.017,-0.052
28.56,-0.125,0.948,0.135
28.57,-0.16,0.819,0.134
28.58,-0.357,1.155,-0.1
28.59,-0.174,0.788,-0.098
28.6,-0.186,1.242,0.006
28.61,-0.122,0.796,0.176
28.62,-0.202,1.029,0.056
28.63,-0.306,0.918,-0.122
28.64,-0.253,0.959,-0.073
28.65,-0.121,1.19,0.059
28.66,-0.061,0.7,0.144
28.67,-0.261,1.091,0.037
28.68,-0.347,0.837,-0.139
28.69,-0.256,1.153,-0.074
28.7,-0.055,0.913,0.063
28.71,-0.121,0.944,0.174
28.72,-0.279,0.98,-0.055
28.73,-0.332,0.929,-0.129
28.74,-0.152,1.104,-0.087
28.75,-0.136,0.788,0.136
28.76,-0.199,1.079,0.136
28.77,-0.28,0.884,-0.06
28.78,-0.273,1.087,-0.132
28.79,-0.169,0.947,-0.05
28.8,-0.12,0.933,0.15
28.81,-0.201,1.022,0.071
28.82,-0.33,0.836,-0.137
28.83,-0.221,1.159,-0.083
28.84,-0.193,0.942,0.109
28.85,-0.101,0.982,0.137
28.86,-0.188,0.818,0.045
28.87,-0.35,1.071,-0.14
28.88,-0.189,1.017,-0.074
28.89,-0.132,0.946,0.078
28.9,-0.104,1.017,0.126
28.91,-0.287,0.835,-0.027
28.92,-0.308,1.103,-0.128
28.93,-0.157,0.817,-0.04
28.94,-0.156,1.102,0.133
28.95,-0.158,0.79,0.127
28.96,-0.351,1.075,-0.116
28.97,-0.27,0.923,-0.135
28.98,-0.175,1.026,-0.002
28.99,-0.093,1.008,0.158
29.0,-0.136,0.776,0.051
29.01,-0.339,1.129,-0.103
29.02,-0.241,0.853,-0.086
29.03,-0.152,1.26,0.055
29.04,-0.044,0.769,0.139
29.05,-0.229,0.969,0.016
29.06,-0.333,0.969,-0.131
29.07,-0.148,0.984,-0.112
29.08,-0.153,1.09,0.084
29.09,-0.052,0.664,0.12
29.1,-0.362,1.151,-0.022
29.11,-0.296,0.822,-0.15
29.12,-0.278,1.062,-0.044
29.13,-0.057,0.887,0.114
29.14,-0.152,0.949,0.126
29.15,-0.372,1.051,-0.11
29.16,-0.326,0.807,-0.115
29.17,-0.217,1.148,-0.017
29.18,-0.062,0.826,0.148
29.19,-0.227,1.077,0.043
29.2,-0.338,0.845,-0.056
29.21,-0.232,1.041,-0.125
29.22,-0.159,1.037,0.046
29.23,-0.044,0.955,0.138
29.24,-0.272,0.997,0.024
29.25,-0.408,0.758,-0.11
29.26,-0.137,1.208,-0.078
29.27,-0.093,0.953,0.045
29.28,-0.246,0.953,0.128
29.29,-0.247,0.879,0.012
29.3,-0.325,1.052,-0.127
29.31,-0.099,1.076,-0.078
29.32,-0.165,0.85,0.084
29.33,-0.237,0.988,0.197
29.34,-0.31,0.832,-0.036
29.35,-0.293,1.186,-0.175
29.36,-0.129,0.836,-0.04
29.37,-0.142,1.047,0.155
29.38,-0.239,0.889,0.121
29.39,-0.279,0.927,-0.104
29.4,-0.198,1.07,-0.155
29.41,-0.183,0.894,0.032
29.42,-0.403,1.126,0.183
29.43,-0.189,0.768,0.012
29.44,-0.358,1.086,-0.151
29.45,-0.158,0.93,-0.095
29.46,-0.145,1.111,0.028
29.47,0.016,0.853,0.077
29.48,-0.288,0.839,0.006
29.49,-0.322,1.138,-0.119
29.5,-0.078,0.932,-0.043
29.51,-0.121,1.17,0.064
29.52,-0.291,0.679,0.16
29.53,-0.365,1.075,-0.049
29.54,-0.126,1.012,-0.154
29.55,-0.158,1.009,-0.067
29.56,-0.189,0.909,0.127
29.57,-0.136,0.768,0.199
29.58,-0.291,1.243,-0.152
29.59,-0.267,0.795,-0.146
29.6,-0.276,1.156,0.047
29.61,-0.001,0.851,0.153
29.62,-0.209,0.968,0.007
29.63,-0.344,0.961,-0.141
29.64,-0.228,0.94,-0.04
29.65,-0.101,1.175,0.063
29.66,-0.09,0.684,0.156
29.67,-0.349,1.107,-0.026
29.68,-0.297,0.824,-0.107
29.69,-0.201,1.097,-0.085
29.7,-0.082,0.888,0.117
29.71,-0.164,0.912,0.131
29.72,-0.318,1.079,-0.078
29.73,-0.265,0.794,-0.131
29.74,-0.217,1.177,-0.007
29.75,-0.068,0.824,0.153
29.76,-0.229,1.038,0.057
29.77,-0.253,0.82,-0.108
29.78,-0.269,1.262,-0.121
29.79,-0.147,0.924,0.019
29.8,-0.123,0.867,0.157
29.81,-0.23,0.969,0.011
29.82,-0.343,0.946,-0.095
29.83,-0.256,1.094,-0.101
29.84,-0.122,0.768,0.093
29.85,-0.118,1.034,0.157
29.86,-0.274,0.841,-0.041
29.87,-0.369,1.108,-0.174
29.88,-0.181,0.911,-0.024
29.89,-0.087,0.961,0.09
29.9,-0.238,1.009,0.129
29.91,-0.34,0.857,-0.105
29.92,-0.256,1.112,-0.098
29.93,-0.153,0.892,-0.001
29.94,-0.092,1.111,0.165
29.95,-0.175,0.781,0.048
29.96,-0.357,1.019,-0.13
29.97,-0.17,1.036,-0.096
29.98,-0.144,1.01,0.022
29.99,-0.108,0.939,0.146
30.0,-0.186,0.792,-0.008
30.01,-0.393,1.181,-0.129
30.02,-0.135,0.894,-0.051
30.03,-0.145,1.088,0.073
30.04,-0.088,0.772,0.123
30.05,-0.336,1.029,-0.043
30.06,-0.268,1.036,-0.157
30.07,-0.124,0.891,-0.049
30.08,-0.125,1.112,0.148
30.09,-0.113,0.75,0.073
30.1,-0.38,1.158,-0.071
30.11,-0.177,0.845,-0.106
30.12,-0.193,1.203,0.024
30.13,-0.077,0.853,0.137
30.14,-0.193,0.818,0.037
30.15,-0.307,1.089,-0.116
30.16,-0.23,0.945,-0.033
30.17,-0.13,1.193,0.005
30.18,-0.066,0.689,0.174
30.19,-0.279,1.096,-0.007
30.2,-0.338,0.951,-0.103
30.21,-0.175,1.001,-0.112
30.22,-0.143,0.974,0.1
30.23,-0.135,0.795,0.147
30.24,-0.426,1.164,-0.066
30.25,-0.204,0.785,-0.168
30.26,-0.213,1.161,-0.043
30.27,-0.146,0.777,0.194
30.28,-0.12,1.0,0.077
30.29,-0.324,0.951,-0.118
30.3,-0.259,0.9,-0.112
30.31,-0.198,1.138,0.044
30.32,0.015,0.736,0.134
30.33,-0.28,1.1,0.042
30.34,-0.344,0.782,-0.156
30.35,-0.236,1.181,-0.064
30.36,-0.097,0.919,0.037
30.37,-0.116,0.866,0.137
30.38,-0.347,1.01,0.041
30.39,-0.252,0.909,-0.154
30.4,-0.205,1.139,-0.048
30.41,-0.099,0.806,0.086
30.42,-0.266,1.056,0.169
30.43,-0.205,0.872,-0.074
30.44,-0.245,1.105,-0.138
30.45,-0.19,0.948,-0.072
30.46,-0.097,0.909,0.185
30.47,-0.162,1.028,0.077
30.48,-0.341,0.862,-0.08
30.49,-0.247,1.112,-0.112
30.5,-0.187,0.916,0.058
30.51,-0.045,1.028,0.113
30.52,-0.216,0.817,0.048
30.53,-0.351,0.98,-0.123
30.54,-0.267,1.031,-0.066
30.55,-0.048,0.975,0.053
30.56,-0.123,1.018,0.143
30.57,-0.325,0.872,-0.021
30.58,-0.298,1.193,-0.123
30.59,-0.168,0.842,-0.086
30.6,-0.113,1.069,0.124
30.61,-0.148,0.761,0.157
30.62,-0.393,1.101,-0.099
30.63,-0.253,0.897,-0.146
30.64,-0.081,0.99,-0.012
30.65,-0.269,1.012,0.233
30.66,-0.162,0.773,0.097
30.67,-0.363,1.17,-0.111
30.68,-0.221,0.843,-0.117
30.69,-0.155,1.179,0.046
30.7,0.001,0.8,0.128
30.71,-0.265,0.98,0.013
30.72,-0.369,0.994,-0.134
30.73,-0.116,0.946,-0.103
30.74,-0.2,1.086,0.074
30.75,-0.084,0.666,0.151
30.76,-0.344,1.192,-0.008
30.77,-0.256,0.817,-0.134
30.78,-0.272,1.075,-0.089
30.79,-0.071,0.923,0.14
30.8,-0.172,0.934,0.134
30.81,-0.298,1.059,-0.098
30.82,-0.256,0.804,-0.113
30.83,-0.26,1.203,-0.009
30.84,-0.083,0.82,0.18
30.85,-0.237,1.075,0.054
30.86,-0.266,0.805,-0.142
30.87,-0.277,1.053,-0.081
30.88,-0.166,1.068,0.042
30.89,0.001,0.813,0.11
30.9,-0.247,1.033,0.049
30.91,-0.276,0.817,-0.149
30.92,-0.283,1.218,-0.05
30.93,-0.077,0.827,0.059
30.94,-0.089,0.985,0.153
30.95,-0.269,0.897,-0.02
30.96,-0.331,1.027,-0.114
30.97,-0.224,1.071,-0.065
30.98,-0.086,0.778,0.072
30.99,-0.186,1.048,0.171
31.0,-0.266,0.922,-0.116
31.01,-0.348,1.135,-0.106
31.02,-0.216,0.822,-0.06
31.03,-0.082,1.063,0.212
31.04,-0.164,0.942,0.024
31.05,-0.347,0.881,-0.122
31.06,-0.241,1.103,-0.056
31.07,-0.115,0.973,0.036
31.08,-0.113,1.029,0.119
31.09,-0.171,0.761,0.017
31.1,-0.372,1.12,-0.122
31.11,-0.207,0.99,-0.072
31.12,-0.145,1.029,0.093
31.13,-0.084,0.863,0.129
31.14,-0.297,0.878,0.026
31.15,-0.333,1.208,-0.141
31.16,-0.285,0.821,-0.085
31.17,-0.096,1.08,0.119
31.18,-0.134,0.749,0.098
31.19,-0.345,1.102,-0.059
31.2,-0.267,0.965,-0.139
31.21,-0.148,0.933,-0.054
31.22,-0.134,1.06,0.161
31.23,-0.161,0.776,0.081
31.24,-0.342,1.147,-0.121
31.25,-0.209,0.798,-0.097
31.26,-0.151,1.229,0.002
31.27,-0.107,0.859,0.145
31.28,-0.205,0.909,0.043
31.29,-0.296,0.984,-0.136
31.3,-0.164,0.955,-0.063
31.31,-0.153,1.195,0.037
31.32,-0.044,0.691,0.172
31.33,-0.24,1.094,0.007
31.34,-0.312,0.869,-0.151
31.35,-0.196,1.139,-0.075
31.36,-0.124,0.928,0.066
31.37,-0.109,0.805,0.166
31.38,-0.312,1.11,-0.039
31.39,-0.26,0.883,-0.144
31.4,-0.183,1.039,-0.038
31.41,-0.054,0.818,0.137
31.42,-0.245,1.103,0.12
31.43,-0.334,0.822,-0.111
31.44,-0.243,1.089,-0.1
31.45,-0.203,0.966,0.031
31.46,-0.071,0.938,0.156
31.47,-0.157,0.972,0.034
31.48,-0.304,0.867,-0.152
31.49,-0.298,1.131,-0.085
31.5,-0.126,0.911,0.063
31.51,-0.085,1.051,0.139
31.52,-0.26,0.822,-0.018
31.53,-0.294,1.136,-0.126
31.54,-0.195,1.004,-0.105
31.55,-0.137,0.883,0.067
31.56,-0.114,0.929,0.148
31.57,-0.328,0.876,-0.054
31.58,-0.308,1.169,-0.145
31.59,-0.184,0.784,-0.062
31.6,-0.101,1.084,0.124
31.61,-0.175,0.871,0.127
31.62,-0.32,1.011,-0.095
31.63,-0.251,0.937,-0.127
31.64,-0.178,0.999,0.047
31.65,-0.111,1.112,0.13
31.66,-0.241,0.746,0.023
31.67,-0.286,1.106,-0.092
31.68,-0.225,0.963,-0.086
31.69,-0.127,1.179,0.03
31.7,-0.104,0.76,0.124
31.71,-0.26,0.888,0.03
31.72,-0.296,1.092,-0.134
31.73,-0.157,0.916,-0.12
31.74,-0.166,1.11,0.104
31.75,-0.056,0.687,0.122
31.76,-0.368,1.155,-0.035
31.77,-0.291,0.888,-0.144
31.78,-0.182,1.022,-0.062
31.79,-0.145,0.94,0.134
31.8,-0.1,0.831,0.114
31.81,-0.384,1.112,-0.092
31.82,-0.221,0.771,-0.132
31.83,-0.251,1.275,0.039
31.84,-0.029,0.793,0.127
31.85,-0.219,0.979,0.058
31.86,-0.297,0.886,-0.123
31.87,-0.229,1.032,-0.027
31.88,-0.063,1.142,0.002
31.89,-0.036,0.724,0.127
31.9,-0.284,1.069,0.031
31.91,-0.309,0.82,-0.136
31.92,-0.228,1.23,-0.094
31.93,-0.077,0.882,0.091
31.94,-0.112,0.901,0.145
31.95,-0.32,0.983,-0.037
31.96,-0.234,1.0,-0.134
31.97,-0.225,1.105,-0.078
31.98,-0.113,0.738,0.093
31.99,-0.189,1.075,0.138
32.0,-0.272,0.901,-0.09
32.01,-0.329,1.091,-0.143
32.02,-0.183,0.931,-0.013
32.03,-0.107,0.979,0.159
32.04,-0.168,1.012,0.076
32.05,-0.363,0.851,-0.141
32.06,-0.254,1.087,-0.108
32.07,-0.083,0.951,0.057
32.08,-0.032,1.077,0.113
32.09,-0.231,0.792,0.026
32.1,-0.344,1.047,-0.121
32.11,-0.26,1.069,-0.054
32.12,-0.094,0.93,0.041
32.13,-0.109,0.96,0.13
32.14,-0.307,0.833,0.005
32.15,-0.31,1.219,-0.151
32.16,-0.221,0.854,-0.059
32.17,-0.108,1.061,0.095
32.18,-0.133,0.828,0.134
32.19,-0.367,1.024,-0.065
32.2,-0.235,1.034,-0.127
32.21,-0.182,0.921,-0.033
32.22,-0.117,0.936,0.087
32.23,-0.192,0.799,0.073
32.24,-0.321,1.157,-0.126
32.25,-0.259,0.833,-0.096
32.26,-0.154,1.174,0.022
32.27,0.007,0.805,0.146
32.28,-0.219,0.975,0.009
32.29,-0.325,0.932,-0.127
32.3,-0.171,0.966,-0.091
32.31,-0.094,1.162,0.05
32.32,-0.085,0.709,0.109
32.33,-0.36,1.111,-0.001
32.34,-0.249,0.861,-0.136
32.35,-0.201,1.161,-0.065
32.36,-0.148,0.818,0.09
32.37,-0.184,0.892,0.156
32.38,-0.326,1.068,-0.087
32.39,-0.247,0.903,-0.162
32.4,-0.145,1.096,-0.042
32.41,-0.085,0.759,0.15
32.42,-0.196,1.102,0.082
32.43,-0.287,0.914,-0.098
32.44,-0.229,1.059,-0.159
32.45,-0.191,0.923,0.028
32.46,-0.045,0.919,0.201
32.47,-0.307,1.063,0.01
32.48,-0.398,0.778,-0.142
32.49,-0.214,1.171,-0.107
32.5,0.002,0.942,0.081
32.51,-0.117,0.995,0.121
32.52,-0.279,0.872,-0.026
32.53,-0.323,1.037,-0.077
32.54,-0.085,1.141,-0.093
32.55,-0.171,0.838,0.091
32.56,-0.201,0.984,0.136
32.57,-0.238,0.852,-0.08
32.58,-0.291,1.224,-0.117
32.59,-0.219,0.84,-0.056
32.6,-0.111,0.967,0.218
32.61,-0.091,0.929,0.053
32.62,-0.392,0.919,-0.099
32.63,-0.222,1.061,-0.138
32.64,-0.165,0.96,0.052
32.65,-0.031,1.057,0.13
32.66,-0.215,0.753,0.007
32.67,-0.367,1.145,-0.122
32.68,-0.113,1.012,-0.106
32.69,-0.092,1.029,0.055
32.7,-0.184,0.859,0.164
32.71,-0.292,0.929,0.012
32.72,-0.24,1.179,-0.169
32.73,-0.286,0.813,-0.058
32.74,-0.118,1.053,0.115
32.75,-0.12,0.795,0.121
32.76,-0.332,1.05,-0.103
32.77,-0.312,0.858,-0.132
32.78,-0.153,1.004,0.002
32.79,-0.093,1.06,0.152
32.8,-0.13,0.787,0.05
32.81,-0.419,1.126,-0.094
32.82,-0.246,0.847,-0.076
32.83,-0.132,1.261,0.066
32.84,-0.038,0.77,0.124
32.85,-0.289,0.94,0.01
32.86,-0.391,0.999,-0.078
32.87,-0.135,0.959,-0.092
32.88,-0.102,1.12,0.073
32.89,-0.128,0.675,0.172
32.9,-0.391,1.146,-0.01
32.91,-0.272,0.89,-0.145
32.92,-0.235,1.055,-0.091
32.93,-0.133,0.863,0.104
32.94,-0.174,0.917,0.169
32.95,-0.262,1.075,-0.104
32.96,-0.332,0.787,-0.11
32.97,-0.18,1.147,-0.028
32.98,-0.081,0.802,0.219
32.99,-0.145,1.049,0.048
33.0,-0.327,0.812,-0.157
33.01,-0.277,1.057,-0.078
33.02,-0.084,1.088,0.015
33.03,-0.014,0.769,0.155
33.04,-0.256,1.039,0.028
33.05,-0.334,0.929,-0.092
33.06,-0.175,1.161,-0.084
33.07,-0.073,0.788,0.071
33.08,-0.173,1.018,0.103
33.09,-0.342,0.863,-0.021
33.1,-0.254,1.13,-0.145
33.11,-0.172,0.946,-0.046
33.12,-0.136,0.899,0.119
33.13,-0.21,0.987,0.141
33.14,-0.275,0.902,-0.105
33.15,-0.217,1.14,-0.14
33.16,-0.221,0.908,0.046
33.17,-0.098,1.058,0.159
33.18,-0.153,0.815,0.009
33.19,-0.359,0.993,-0.148
33.2,-0.234,1.049,-0.089
33.21,-0.088,0.997,0.053
33.22,-0.044,0.969,0.122
33.23,-0.298,0.749,-0.011
33.24,-0.336,1.171,-0.108
33.25,-0.197,0.942,-0.072
33.26,-0.141,1.046,0.092
33.27,-0.111,0.763,0.122
33.28,-0.341,1.01,-0.02
33.29,-0.333,1.073,-0.157
33.3,-0.188,0.826,-0.011
33.31,-0.119,1.095,0.134
33.32,-0.159,0.779,0.094
33.33,-0.357,1.145,-0.104
33.34,-0.242,0.828,-0.144
33.35,-0.218,1.105,0.011
33.36,-0.034,0.956,0.15
33.37,-0.242,0.836,0.044
33.38,-0.286,1.06,-0.116
33.39,-0.264,0.897,-0.069
33.4,-0.146,1.231,0.08
33.41,-0.033,0.7,0.155
33.42,-0.249,1.009,0.004
33.43,-0.394,0.948,-0.099
33.44,-0.151,0.994,-0.113
33.45,-0.155,1.038,0.116
33.46,-0.093,0.753,0.126
33.47,-0.419,1.172,-0.028
33.48,-0.24,0.83,-0.155
33.49,-0.205,1.107,-0.053
33.5,-0.111,0.818,0.134
33.51,-0.161,0.997,0.122
33.52,-0.305,0.97,-0.094
33.53,-0.228,0.872,-0.109
33.54,-0.225,1.165,0.04
33.55,-0.085,0.823,0.148
33.56,-0.196,1.057,0.024
33.57,-0.326,0.788,-0.113
33.58,-0.214,1.157,-0.083
33.59,-0.071,1.035,0.02
33.6,-0.101,0.854,0.142
33.61,-0.24,0.983,0.032
33.62,-0.35,0.947,-0.084
33.63,-0.203,1.184,-0.131
33.64,-0.084,0.797,0.083
33.65,-0.213,1.086,0.155
33.66,-0.287,0.904,-0.033
33.67,-0.307,1.073,-0.197
33.68,-0.22,0.926,-0.048
33.69,-0.095,0.886,0.142
33.7,-0.109,1.096,0.106
33.71,-0.287,0.832,-0.113
33.72,-0.324,1.121,-0.127
33.73,-0.247,0.893,0.024
33.74,-0.061,1.081,0.119
33.75,-0.152,0.857,0.044
33.76,-0.363,0.941,-0.106
33.77,-0.242,1.068,-0.121
33.78,-0.095,0.998,0.034
33.79,-0.03,0.988,0.137
33.8,-0.22,0.753,0.014
33.81,-0.415,1.179,-0.093
33.82,-0.157,0.923,-0.084
33.83,-0.115,1.07,0.089
33.84,-0.1,0.812,0.152
33.85,-0.323,0.93,-0.056
33.86,-0.34,1.125,-0.105
33.87,-0.138,0.921,-0.055
33.88,-0.189,1.043,0.147
33.89,-0.092,0.753,0.12
33.9,-0.337,1.167,-0.086
33.91,-0.249,0.779,-0.137
33.92,-0.261,1.159,-0.001
33.93,-0.03,0.895,0.144
33.94,-0.213,0.936,0.047
33.95,-0.35,0.964,-0.112
33.96,-0.239,0.889,-0.075
33.97,-0.131,1.26,0.048
33.98,0.02,0.701,0.093
33.99,-0.299,1.055,0.038
34.0,-0.356,0.841,-0.088
34.01,-0.107,1.121,-0.113
34.02,-0.126,0.956,0.069
34.03,-0.112,0.788,0.133
34.04,-0.389,1.087,0.028
34.05,-0.226,0.827,-0.17
34.06,-0.249,1.123,-0.05
34.07,-0.113,0.785,0.1
34.08,-0.167,1.084,0.172
34.09,-0.261,0.947,-0.092
34.1,-0.289,0.954,-0.144
34.11,-0.238,0.995,-0.039
34.12,-0.082,0.905,0.183
34.13,-0.189,1.106,0.049
34.14,-0.39,0.796,-0.076
34.15,-0.218,1.085,-0.105
34.16,-0.146,0.996,0.04
34.17,-0.053,0.99,0.1
34.18,-0.233,0.893,0.061
34.19,-0.342,0.912,-0.133
34.2,-0.196,1.127,-0.078
34.21,-0.115,0.859,-0.004
34.22,-0.146,1.001,0.201
34.23,-0.179,0.787,-0.029
34.24,-0.333,1.172,-0.125
34.25,-0.127,0.959,-0.089
34.26,-0.119,0.969,0.08
34.27,-0.132,0.864,0.137
34.28,-0.264,0.939,-0.031
34.29,-0.359,1.182,-0.15
34.3,-0.19,0.773,-0.01
34.31,-0.166,1.097,0.17
34.32,-0.114,0.826,0.082
34.33,-0.328,1.074,-0.079
34.34,-0.288,0.895,-0.134
34.35,-0.169,0.998,0.032
34.36,-0.06,1.065,0.152
34.37,-0.188,0.793,0.043
34.38,-0.371,1.102,-0.133
34.39,-0.228,0.853,-0.049
34.4,-0.102,1.274,0.046
34.41,-0.074,0.806,0.139
34.42,-0.211,0.922,0.011
34.43,-0.3,1.051,-0.137
34.44,-0.196,0.97,-0.086
34.45,-0.176,1.014,0.128
34.46,-0.293,0.949,-0.107
34.47,-0.234,0.877,-0.114
34.48,-0.198,1.149,0.019
34.49,-0.086,0.861,0.167
34.5,-0.206,1.078,0.044
34.51,-0.31,0.756,-0.142
34.52,-0.296,1.125,-0.065
34.53,-0.048,1.022,0.054
34.54,-0.046,0.953,0.107
34.55,-0.23,0.924,0.014
34.56,-0.311,0.868,-0.128
34.57,-0.234,1.219,-0.016
34.58,-0.041,0.858,0.029
34.59,-0.201,1.019,0.153
34.6,-0.286,0.851,-0.055
34.61,-0.312,1.159,-0.106
34.62,-0.203,0.933,-0.082
34.63,-0.152,1.006,0.126
34.64,-0.165,0.911,0.111
34.65,-0.32,0.964,-0.067
34.66,-0.249,1.049,-0.127
34.67,-0.201,0.872,-0.004
34.68,-0.11,1.111,0.179
34.69,-0.134,0.746,0.049
34.7,-0.368,1.09,-0.127
34.71,-0.273,0.934,-0.073
34.72,-0.07,1.094,0.02
34.73,-0.097,0.882,0.143
34.74,-0.2,0.814,0.024
34.75,-0.371,1.126,-0.128
34.76,-0.229,0.881,-0.05
34.77,-0.078,1.2,0.051
34.78,-0.096,0.696,0.133
34.79,-0.319,1.054,-0.005
34.8,-0.279,0.984,-0.117
34.81,-0.171,0.975,-0.106
34.82,-0.097,0.983,0.072
34.83,-0.135,0.746,0.115
34.84,-0.397,1.185,-0.058
34.85,-0.234,0.798,-0.138
34.86,-0.209,1.117,-0.042
34.87,-0.127,0.835,0.142
34.88,-0.184,0.965,0.088
34.89,-0.308,1.016,-0.102
34.9,-0.219,0.815,-0.111
34.91,-0.201,1.203,0.048
34.92,-0.067,0.827,0.148
34.93,-0.175,1.072,0.015
34.94,-0.33,0.792,-0.143
34.95,-0.208,1.131,-0.064
34.96,-0.087,1.054,0.059
34.97,-0.039,0.869,0.107
34.98,-0.291,0.987,0.017
34.99,-0.347,0.866,-0.117
35.0,-0.162,1.228,-0.076
35.01,-0.073,0.815,0.066
35.02,-0.135,1.004,0.106
35.03,-0.336,0.896,-0.022
35.04,-0.293,1.064,-0.157
35.05,-0.196,0.981,-0.057
35.06,-0.112,0.834,0.113
35.07,-0.18,1.079,0.173
35.08,-0.271,0.792,-0.098
35.09,-0.279,1.12,-0.104
35.1,-0.212,0.924,-0.002
35.11,-0.13,1.016,0.145
35.12,-0.141,0.895,0.071
35.13,-0.323,0.957,-0.119
35.14,-0.236,1.055,-0.104
35.15,-0.121,0.937,0.034
35.16,-0.082,1.104,0.141
35.17,-0.172,0.754,0.008
35.18,-0.4,1.08,-0.141
35.19,-0.191,0.944,-0.039
35.2,-0.043,1.066,0.016
35.21,-0.148,0.878,0.171
35.22,-0.271,0.861,-0.024
35.23,-0.411,1.16,-0.109
35.24,-0.1,0.875,-0.08
35.25,-0.076,1.159,0.095
35.26,-0.128,0.674,0.118
35.27,-0.377,1.096,-0.011
35.28,-0.247,0.99,-0.141
35.29,-0.207,0.967,-0.045
35.3,-0.124,0.977,0.145
35.31,-0.199,0.8,0.125
35.32,-0.326,1.147,-0.129
35.33,-0.252,0.816,-0.124
35.34,-0.148,1.171,0.007
35.35,-0.138,0.858,0.128
35.36,-0.192,0.998,0.063
35.37,-0.304,0.963,-0.146
35.38,-0.218,0.897,-0.069
35.39,-0.073,1.256,0.03
35.4,-0.074,0.749,0.166
35.41,-0.327,1.064,0.016
35.42,-0.325,0.87,-0.101
35.43,-0.135,1.175,-0.103
35.44,-0.137,0.922,0.08
35.45,-0.1,0.819,0.165
35.46,-0.302,0.979,-0.066
35.47,-0.258,0.964,-0.154
35.48,-0.203,1.076,-0.044
35.49,-0.127,0.794,0.151
35.5,-0.201,1.091,0.105
35.51,-0.298,0.867,-0.121
35.52,-0.252,1.135,-0.161
35.53,-0.178,0.881,0.019
35.54,-0.109,0.964,0.185
35.55,-0.187,0.979,0.05
35.56,-0.425,0.875,-0.13
35.57,-0.158,1.106,-0.117
35.58,-0.077,0.958,0.062
35.59,-0.05,1.007,0.032
35.6,-0.239,0.77,0.007
35.61,-0.293,1.139,-0.132
35.62,-0.134,1.03,-0.058
35.63,-0.158,0.925,0.09
35.64,-0.111,0.914,0.146
35.65,-0.318,0.867,-0.06
35.66,-0.29,1.183,-0.148
35.67,-0.19,0.833,-0.027
35.68,-0.133,1.067,0.126
35.69,-0.138,0.831,0.118
35.7,-0.328,1.053,-0.131
35.71,-0.254,0.954,-0.103
35.72,-0.153,0.979,0.043
35.73,-0.022,1.038,0.123
35.74,-0.188,0.716,0.011
35.75,-0.395,1.126,-0.104
35.76,-0.235,0.957,-0.044
35.77,-0.059,1.192,0.061
35.78,-0.14,0.758,0.127
35.79,-0.32,0.901,0.0
35.8,-0.294,1.111,-0.092
35.81,-0.118,0.886,-0.12
35.82,-0.151,1.031,0.117
35.83,-0.149,0.748,0.155
35.84,-0.314,1.149,-0.063
35.85,-0.316,0.839,-0.143
35.86,-0.193,1.016,0.01
35.87,-0.113,1.027,0.164
35.88,-0.139,0.836,0.085
35.89,-0.354,1.081,-0.089
35.9,-0.2,0.798,-0.122
35.91,-0.187,1.29,0.053
35.92,0.005,0.775,0.115
35.93,-0.213,0.987,0.033
35.94,-0.367,0.947,-0.107
35.95,-0.22,1.057,-0.053
35.96,-0.154,1.071,0.041
35.97,-0.089,0.703,0.129
35.98,-0.34,1.115,0.023
35.99,-0.249,0.827,-0.149
36.0,-0.261,1.151,-0.066
36.01,-0.087,0.868,0.104
36.02,-0.107,0.94,0.119
36.03,-0.328,1.006,-0.055
36.04,-0.3,0.899,-0.139
36.05,-0.22,1.055,-0.029
36.06,-0.094,0.763,0.176
36.07,-0.17,1.127,0.078
36.08,-0.313,0.844,-0.114
36.09,-0.282,1.066,-0.108
36.1,-0.198,1.023,0.009
36.11,-0.034,0.959,0.16
36.12,-0.196,1.006,0.051
36.13,-0.36,0.818,-0.119
36.14,-0.203,1.188,-0.076
36.15,-0.115,0.944,0.063
36.16,-0.045,1.004,0.133
36.17,-0.205,0.839,-0.006
36.18,-0.332,1.052,-0.161
36.19,-0.271,1.055,-0.029
36.2,-0.039,0.903,0.07
36.21,-0.124,0.97,0.134
36.22,-0.361,0.857,-0.037
36.23,-0.327,1.237,-0.128
36.24,-0.193,0.847,-0.061
36.25,-0.124,0.978,0.112
36.26,-0.151,0.876,0.106
36.27,-0.339,1.01,-0.11
36.28,-0.232,0.898,-0.146
36.29,-0.164,1.037,0.025
36.3,-0.071,0.97,0.152
36.31,-0.186,0.767,0.034
36.32,-0.312,1.132,-0.119
36.33,-0.244,0.93,-0.046
36.34,-0.075,1.131,0.018
36.35,-0.068,0.733,0.176
36.36,-0.267,0.986,-0.023
36.37,-0.384,1.027,-0.129
36.38,-0.162,0.965,-0.078
36.39,-0.103,1.076,0.08
36.4,-0.143,0.716,0.142
36.41,-0.351,1.184,-0.018
36.42,-0.296,0.847,-0.184
36.43,-0.187,1.044,-0.031
36.44,-0.118,0.936,0.157
36.45,-0.154,0.892,0.061
36.46,-0.362,1.024,-0.09
36.47,-0.251,0.836,-0.13
36.48,-0.196,1.242,0.058
36.49,-0.026,0.783,0.124
36.5,-0.266,1.006,0.06
36.51,-0.289,0.84,-0.132
36.52,-0.198,1.139,-0.053
36.53,-0.117,1.017,0.01
36.54,-0.1,0.73,0.148
36.55,-0.264,1.076,0.043
36.56,-0.347,0.911,-0.144
36.57,-0.229,1.124,-0.107
36.58,-0.129,0.829,0.111
36.59,-0.104,1.016,0.128
36.6,-0.311,0.918,-0.031
36.61,-0.326,0.959,-0.153
36.62,-0.208,1.049,-0.049
36.63,-0.08,0.828,0.106
36.64,-0.218,1.118,0.151
36.65,-0.256,0.837,-0.097
36.66,-0.308,1.096,-0.095
36.67,-0.164,0.898,-0.021
36.68,-0.135,1.032,0.164
36.69,-0.177,0.955,0.073
36.7,-0.3,0.9,-0.107
36.71,-0.239,1.088,-0.109
36.72,-0.131,0.934,0.077
36.73,-0.083,1.047,0.114
36.74,-0.245,0.763,0.046
36.75,-0.32,1.1,-0.144
36.76,-0.282,1.036,-0.057
36.77,-0.125,0.992,0.033
36.78,-0.145,0.898,0.153
36.79,-0.263,0.843,-0.018
36.8,-0.29,1.221,-0.115
36.81,-0.232,0.852,-0.078
36.82,-0.09,1.072,0.099
36.83,-0.116,0.783,0.131
36.84,-0.34,1.059,-0.059
36.85,-0.335,0.931,-0.134
36.86,-0.127,0.973,-0.034
36.87,-0.119,1.14,0.125
36.88,-0.17,0.723,0.077
36.89,-0.31,1.128,-0.091
36.9,-0.208,0.859,-0.132
36.91,-0.157,1.173,0.035
36.92,-0.049,0.844,0.125
36.93,-0.214,0.882,0.058
36.94,-0.308,1.011,-0.14
36.95,-0.18,0.923,-0.064
36.96,-0.179,1.249,0.036
36.97,-0.076,0.653,0.14
36.98,-0.267,1.065,0.03
36.99,-0.319,0.904,-0.124
37.0,-0.124,1.062,-0.109
37.01,-0.142,0.977,0.088
37.02,-0.06,0.804,0.151
37.03,-0.349,1.111,-0.032
37.04,-0.284,0.828,-0.154
37.05,-0.2,1.15,-0.037
37.06,-0.088,0.802,0.09
37.07,-0.208,1.069,0.143
37.08,-0.292,0.935,-0.105
37.09,-0.299,0.951,-0.113
37.1,-0.139,1.044,-0.029
37.11,-0.047,0.92,0.104
37.12,-0.217,1.001,0.074
37.13,-0.332,0.825,-0.128
37.14,-0.222,1.162,-0.065
37.15,-0.095,0.89,0.017
37.16,-0.056,1.045,0.103
37.17,-0.185,0.832,0.021
37.18,-0.375,1.048,-0.133
37.19,-0.123,1.066,-0.109
37.2,-0.326,0.931,0.234
37.21,-0.114,0.896,0.129
37.22,-0.295,0.847,-0.01
37.23,-0.266,1.263,-0.179
37.24,-0.283,0.8,-0.05
37.25,-0.091,0.952,0.122
37.26,-0.132,0.864,0.148
37.27,-0.321,0.963,-0.104
37.28,-0.313,0.978,-0.092
37.29,-0.159,0.913,-0.007
37.3,-0.116,1.138,0.157
37.31,-0.123,0.74,0.044
37.32,-0.363,1.094,-0.107
37.33,-0.191,0.906,-0.094
37.34,-0.195,1.158,0.045
37.35,-0.117,0.835,0.149
37.36,-0.209,0.822,0.046
37.37,-0.35,1.12,-0.129
37.38,-0.176,0.883,-0.102
37.39,-0.174,1.181,0.043
37.4,-0.026,0.696,0.132
37.41,-0.259,1.051,-0.017
37.42,-0.338,0.944,-0.119
37.43,-0.204,1.018,-0.097
37.44,-0.123,1.0,0.109
37.45,-0.092,0.753,0.121
37.46,-0.351,1.156,-0.072
37.47,-0.325,0.808,-0.148
37.48,-0.158,1.105,-0.018
37.49,-0.057,0.87,0.135
37.5,-0.204,0.969,0.104
37.51,-0.335,0.946,-0.102
37.52,-0.213,0.871,-0.082
37.53,-0.12,1.169,-0.026
37.54,-0.11,0.79,0.168
37.55,-0.189,1.114,0.03
37.56,-0.342,0.809,-0.117
37.57,-0.201,1.098,-0.119
37.58,-0.098,1.033,0.049
37.59,0.013,0.827,0.16
37.6,-0.258,1.004,0.04
37.61,-0.298,0.896,-0.122
37.62,-0.172,1.224,-0.069
37.63,-0.094,0.808,0.073
37.64,-0.136,1.02,0.129
37.65,-0.245,0.877,-0.04
37.66,-0.271,1.114,-0.178
37.67,-0.173,0.988,-0.095
37.68,-0.061,0.838,0.074
37.69,-0.162,1.034,0.132
37.7,-0.33,0.835,-0.093
37.71,-0.298,1.133,-0.118
37.72,-0.165,0.851,-0.001
37.73,-0.134,1.051,0.161
37.74,-0.144,0.854,0.073
37.75,-0.344,0.968,-0.118
37.76,-0.209,1.048,-0.115
37.77,-0.18,0.947,0.038
37.78,-0.06,1.081,0.144
37.79,-0.268,0.754,0.032
37.8,-0.329,1.129,-0.138
37.81,-0.125,1.001,-0.091
37.82,-0.154,1.044,0.086
37.83,-0.19,0.783,0.186
37.84,-0.335,0.908,-0.009
37.85,-0.298,1.156,-0.159
37.86,-0.141,0.869,-0.07
37.87,-0.279,1.085,0.104
37.88,-0.07,0.719,0.093
37.89,-0.349,1.122,-0.077
37.9,-0.266,0.883,-0.143
37.91,-0.229,1.015,0.017
37.92,-0.127,1.017,0.145
37.93,-0.168,0.88,0.061
37.94,-0.319,1.046,-0.139
37.95,-0.206,0.871,-0.077
37.96,-0.121,1.226,0.049
37.97,-0.029,0.758,0.127
37.98,-0.292,1.04,0.023
37.99,-0.326,0.852,-0.12
38.0,-0.131,1.137,-0.104
38.01,-0.157,0.976,0.061
38.02,-0.084,0.746,0.165
38.03,-0.383,1.124,-0.027
38.04,-0.229,0.861,-0.166
38.05,-0.194,1.116,-0.075
38.06,-0.082,0.766,0.114
38.07,-0.208,1.018,0.176
38.08,-0.285,0.952,-0.088
38.09,-0.292,0.976,-0.129
38.1,-0.181,1.05,-0.029
38.11,-0.07,0.839,0.182
38.12,-0.171,1.058,0.029
38.13,-0.299,0.779,-0.086
38.14,-0.202,1.166,-0.102
38.15,-0.255,0.983,0.125
38.16,-0.014,0.919,0.1
38.17,-0.235,0.952,0.045
38.18,-0.326,0.886,-0.13
38.19,-0.19,1.179,-0.086
38.2,-0.118,0.823,0.067
38.21,-0.143,1.032,0.137
38.22,-0.283,0.841,-0.032
38.23,-0.29,1.132,-0.125
38.24,-0.199,0.913,-0.063
38.25,-0.129,0.968,0.141
38.26,-0.145,0.989,0.124
38.27,-0.307,0.888,-0.082
38.28,-0.326,1.122,-0.112
38.29,-0.138,0.868,-0.057
38.3,-0.165,1.133,0.143
38.31,-0.111,0.792,0.089
38.32,-0.341,1.032,-0.113
38.33,-0.254,0.986,-0.119
38.34,-0.095,0.995,0.016
38.35,-0.041,0.987,0.154
38.36,-0.17,0.764,0.034
38.37,-0.387,1.168,-0.111
38.38,-0.212,0.906,-0.062
38.39,-0.085,1.161,0.034
38.4,-0.087,0.76,0.162
38.41,-0.27,0.97,-0.018
38.42,-0.324,1.087,-0.122
38.43,-0.198,0.872,-0.086
38.44,-0.129,1.07,0.11
38.45,-0.125,0.686,0.141
38.46,-0.335,1.167,-0.068
38.47,-0.316,0.842,-0.123
38.48,-0.153,1.024,-0.048
38.49,-0.161,0.91,0.144
38.5,-0.17,0.862,0.118
38.51,-0.34,1.12,-0.08
38.52,-0.219,0.774,-0.11
38.53,-0.21,1.186,-0.001
38.54,-0.068,0.789,0.153
38.55,-0.196,1.04,0.039
38.56,-0.255,0.871,-0.15
38.57,-0.255,1.009,-0.076
38.58,-0.15,1.122,0.087
38.59,0.011,0.802,0.118
38.6,-0.312,1.07,0.029
38.61,-0.31,0.815,-0.15
38.62,-0.167,1.233,-0.055
38.63,-0.068,0.883,0.057
38.64,-0.285,0.977,0.168
38.65,-0.312,0.947,-0.061
38.66,-0.209,0.952,-0.126
38.67,-0.126,1.104,-0.05
38.68,-0.135,0.756,0.131
38.69,-0.119,1.091,0.105
38.7,-0.268,0.848,-0.092
38.71,-0.3,1.098,-0.157
38.72,-0.182,0.945,-0.019
38.73,-0.18,0.988,0.156
38.74,-0.182,0.94,0.052
38.75,-0.324,0.847,-0.116
38.76,-0.1,1.149,-0.083
38.77,-0.144,0.906,0.006
38.78,-0.156,0.922,0.224
38.79,-0.224,0.801,-0.012
38.8,-0.319,1.239,-0.147
38.81,-0.237,0.912,-0.097
38.82,-0.158,0.981,0.083
38.83,-0.08,0.86,0.181
38.84,-0.344,0.958,-0.079
38.85,-0.374,1.054,-0.106
38.86,-0.131,0.853,-0.051
38.87,-0.138,1.139,0.159
38.88,-0.207,0.77,0.105
38.89,-0.373,1.105,-0.102
38.9,-0.162,0.913,-0.121
38.91,-0.162,1.135,0.033
38.92,-0.042,0.933,0.112
38.93,-0.215,0.743,0.067
38.94,-0.331,1.126,-0.118
38.95,-0.248,0.898,-0.048
38.96,-0.125,1.179,0.011
38.97,-0.061,0.715,0.155
38.98,-0.266,0.998,-0.003
38.99,-0.286,0.972,-0.163
39.0,-0.197,0.988,-0.09
39.01,-0.185,1.026,0.099
39.02,-0.098,0.699,0.145
39.03,-0.354,1.173,-0.044
39.04,-0.241,0.828,-0.167
39.05,-0.186,1.147,-0.029
39.06,-0.149,0.827,0.117
39.07,-0.213,0.865,0.124
39.08,-0.325,1.057,-0.066
39.09,-0.207,0.868,-0.162
39.1,-0.145,1.11,-0.008
39.11,-0.126,0.789,0.176
39.12,-0.203,1.113,0.033
39.13,-0.338,0.862,-0.148
39.14,-0.207,1.068,-0.129
39.15,-0.144,1.012,0.073
39.16,-0.065,0.857,0.169
39.17,-0.276,1.026,-0.008
39.18,-0.344,0.833,-0.105
39.19,-0.209,1.245,-0.06
39.2,-0.156,0.793,0.087
39.21,-0.117,0.997,0.134
39.22,-0.302,0.93,-0.008
39.23,-0.251,1.063,-0.21
39.24,-0.24,0.99,-0.05
39.25,-0.114,0.807,0.141
39.26,-0.126,1.078,0.126
39.27,-0.318,0.79,-0.125
39.28,-0.279,1.139,-0.113
39.29,-0.202,0.946,0.024
39.3,-0.017,1.009,0.14
39.31,-0.218,0.887,0.038
39.32,-0.289,0.907,-0.117
39.33,-0.226,1.194,-0.043
39.34,-0.1,0.926,0.013
39.35,-0.126,0.933,0.153
39.36,-0.208,0.765,0.008
39.37,-0.371,1.231,-0.095
39.38,-0.188,0.929,-0.102
39.39,-0.161,0.971,0.115
39.4,-0.122,0.874,0.138
39.41,-0.345,0.948,-0.038
39.42,-0.307,1.123,-0.179
39.43,-0.168,0.823,-0.02
39.44,-0.096,1.099,0.109
39.45,-0.158,0.812,0.135
39.46,-0.332,1.074,-0.121
39.47,-0.233,0.912,-0.137
39.48,-0.192,1.046,-0.009
39.49,-0.139,1.017,0.149
39.5,-0.136,0.778,0.069
39.51,-0.353,1.149,-0.141
39.52,-0.236,0.812,-0.094
39.53,-0.218,1.239,0.068
39.54,-0.019,0.789,0.117
39.55,-0.261,0.934,0.033
39.56,-0.237,0.987,-0.147
39.57,-0.202,1.008,-0.059
39.58,-0.119,0.973,0.049
39.59,-0.125,0.781,0.129
39.6,-0.315,1.155,-0.026
39.61,-0.302,0.819,-0.163
39.62,-0.261,1.107,-0.025
39.63,-0.05,0.818,0.112
39.64,-0.157,1.068,0.112
39.65,-0.301,0.913,-0.118
39.66,-0.233,0.865,-0.102
39.67,-0.216,1.09,0.01
39.68,-0.044,0.848,0.167
39.69,-0.23,1.082,0.048
39.7,-0.352,0.774,-0.125
39.71,-0.197,1.187,-0.081
39.72,-0.101,1.006,0.026
39.73,-0.084,0.883,0.132
39.74,-0.208,0.919,-0.008
39.75,-0.308,0.927,-0.095
39.76,-0.156,1.164,-0.111
39.77,-0.184,0.816,0.067
39.78,-0.089,1.025,0.155
39.79,-0.308,0.885,-0.01
39.8,-0.287,1.102,-0.142
39.81,-0.218,0.921,-0.083
39.82,-0.054,0.946,0.109
39.83,-0.183,0.974,0.12
39.84,-0.297,0.885,-0.096
39.85,-0.368,1.109,-0.088
39.86,-0.133,0.813,-0.065
39.87,-0.12,1.128,0.188
39.88,-0.18,0.808,0.059
39.89,-0.353,0.985,-0.094
39.9,-0.2,0.999,-0.111
39.91,-0.175,1.007,0.019
39.92,-0.043,0.993,0.125
39.93,-0.195,0.783,0.027
39.94,-0.361,1.152,-0.133
39.95,-0.193,0.94,-0.05
39.96,-0.061,1.128,0.051
39.97,-0.113,0.766,0.15
39.98,-0.277,0.939,-0.01
39.99,-0.399,1.094,-0.105
40.0,-0.16,0.866,-0.108
40.01,-0.121,1.092,0.099
40.02,-0.147,0.74,0.131
40.03,-0.331,1.159,-0.071
40.04,-0.278,0.886,-0.128
40.05,-0.159,1.059,-0.066
40.06,-0.109,0.935,0.145
40.07,-0.193,0.848,0.081
40.08,-0.326,1.115,-0.082
40.09,-0.231,0.797,-0.133
40.1,-0.232,1.226,0.035
40.11,-0.067,0.792,0.129
40.12,-0.19,0.995,0.038
40.13,-0.312,0.884,-0.134
40.14,-0.217,1.033,-0.03
40.15,-0.094,1.103,0.013
40.16,-0.1,0.733,0.167
40.17,-0.261,1.095,0.003
40.18,-0.354,0.835,-0.153
40.19,-0.2,1.168,-0.063
40.2,-0.114,0.841,0.061
40.21,-0.086,0.914,0.15
40.22,-0.293,1.016,-0.004
40.23,-0.339,0.937,-0.155
40.24,-0.2,1.042,-0.045
40.25,-0.022,0.842,0.12
40.26,-0.18,1.152,0.119
40.27,-0.314,0.816,-0.137
40.28,-0.352,1.037,-0.072
40.29,-0.113,0.962,-0.027
40.3,-0.053,0.971,0.116
40.31,-0.227,0.93,0.055
40.32,-0.301,0.857,-0.089
40.33,-0.255,1.19,-0.077
40.34,-0.085,0.933,-0.002
40.35,-0.118,1.013,0.154
40.36,-0.153,0.785,-0.004
40.37,-0.39,1.076,-0.115
40.38,-0.226,1.016,-0.09
40.39,-0.068,0.941,0.069
40.4,-0.118,1.003,0.164
40.41,-0.311,0.916,-0.024
40.42,-0.345,1.119,-0.149
40.43,-0.194,0.853,-0.058
40.44,-0.089,1.117,0.098
40.45,-0.166,0.75,0.138
40.46,-0.316,1.114,-0.114
40.47,-0.268,0.889,-0.118
40.48,-0.139,1.009,-0.026
40.49,-0.102,0.971,0.14
40.5,-0.21,0.794,0.061
40.51,-0.393,1.091,-0.1
40.52,-0.182,0.805,-0.099
40.53,-0.157,1.277,0.039
40.54,-0.065,0.748,0.117
40.55,-0.242,0.982,0.04
40.56,-0.274,0.953,-0.14
40.57,-0.265,1.003,-0.052
40.58,-0.097,1.138,0.059
40.59,-0.094,0.732,0.115
40.6,-0.342,1.09,-0.026
40.61,-0.289,0.832,-0.096
40.62,-0.215,1.159,-0.102
40.63,-0.115,0.832,0.083
40.64,-0.196,0.935,0.175
40.65,-0.283,1.018,-0.059
40.66,-0.253,0.903,-0.139
40.67,-0.22,1.094,-0.018
40.68,-0.112,0.769,0.13
40.69,-0.175,1.14,0.133
40.7,-0.292,0.854,-0.119
40.71,-0.246,1.0,-0.121
40.72,-0.232,1.025,0.034
40.73,-0.029,0.911,0.155
40.74,-0.165,1.01,0.053
40.75,-0.307,0.822,-0.115
40.76,-0.276,1.144,-0.093
40.77,-0.094,0.917,0.004
40.78,-0.124,1.008,0.147
40.79,-0.186,0.829,0.02
40.8,-0.358,1.021,-0.113
40.81,-0.207,1.039,-0.062
40.82,-0.11,0.922,0.06
40.83,-0.197,0.996,0.12
40.84,-0.303,0.814,-0.03
40.85,-0.328,1.221,-0.1
40.86,-0.168,0.853,-0.073
40.87,-0.091,1.003,0.09
40.88,-0.154,0.863,0.119
40.89,-0.334,1.008,-0.035
40.9,-0.291,1.063,-0.134
40.91,-0.159,0.881,-0.022
40.92,-0.153,1.137,0.161
40.93,-0.168,0.751,0.065
40.94,-0.363,1.126,-0.092
40.95,-0.216,0.852,-0.138
40.96,-0.176,1.114,0.029
40.97,-0.048,0.979,0.152
40.98,-0.179,0.827,0.012
40.99,-0.344,1.062,-0.11
41.0,-0.228,0.873,-0.081
41.01,-0.083,1.279,0.036
41.02,-0.079,0.685,0.094
41.03,-0.289,1.001,0.024
41.04,-0.34,0.911,-0.121
41.05,-0.068,1.063,-0.094
41.06,-0.417,1.067,0.097
41.07,-0.084,0.664,0.093
41.08,-0.355,1.154,-0.0
41.09,-0.278,0.863,-0.132
41.1,-0.229,1.102,-0.073
41.11,-0.105,0.876,0.108
41.12,-0.196,0.996,0.136
41.13,-0.3,0.988,-0.097
41.14,-0.234,0.84,-0.107
41.15,-0.223,1.115,-0.016
41.16,-0.104,0.818,0.164
41.17,-0.209,1.092,0.096
41.18,-0.26,0.833,-0.112
41.19,-0.271,1.08,-0.128
41.2,-0.197,0.979,0.008
41.21,-0.017,0.949,0.151
41.22,-0.166,1.005,0.052
41.23,-0.352,0.948,-0.103
41.24,-0.268,1.111,-0.06
41.25,-0.069,0.901,0.044
41.26,-0.135,1.038,0.143
41.27,-0.247,0.8,-0.041
41.28,-0.345,1.186,-0.134
41.29,-0.223,0.876,-0.09
41.3,-0.053,0.979,0.113
41.31,-0.165,0.926,0.119
41.32,-0.357,0.942,-0.036
41.33,-0.304,1.119,-0.138
41.34,-0.13,0.863,-0.047
41.35,-0.133,1.1,0.107
41.36,-0.187,0.76,0.109
41.37,-0.32,1.121,-0.101
41.38,-0.233,0.886,-0.143
41.39,-0.177,1.04,0.012
41.4,-0.13,1.02,0.189
41.41,-0.155,0.797,0.037
41.42,-0.359,1.107,-0.084
41.43,-0.236,0.843,-0.073
41.44,-0.135,1.297,0.05
41.45,-0.022,0.766,0.117
41.46,-0.274,0.969,0.005
41.47,-0.348,0.916,-0.123
41.48,-0.169,0.979,-0.062
41.49,-0.085,1.108,0.069
41.5,-0.089,0.704,0.134
41.51,-0.38,1.134,0.007
41.52,-0.239,0.849,-0.163
41.53,-0.261,1.101,-0.058
41.54,-0.089,0.821,0.071
41.55,-0.149,0.955,0.143
41.56,-0.391,1.031,-0.06
41.57,-0.219,0.783,-0.142
41.58,-0.203,1.128,-0.015
41.59,-0.125,0.794,0.15
41.6,-0.215,1.072,0.094
41.61,-0.307,0.829,-0.1
41.62,-0.289,1.03,-0.097
41.63,-0.159,1.035,-0.015
41.64,-0.081,0.93,0.171
41.65,-0.198,1.023,0.07
41.66,-0.28,0.813,-0.139
41.67,-0.239,1.177,-0.086
41.68,-0.168,0.934,0.069
41.69,-0.054,1.015,0.135
41.7,-0.214,0.871,0.012
41.71,-0.339,0.991,-0.144
41.72,-0.278,1.091,-0.05
41.73,-0.041,0.943,0.077
41.74,-0.125,0.997,0.131
41.75,-0.299,0.815,-0.022
41.76,-0.352,1.173,-0.115
41.77,-0.109,0.876,-0.065
41.78,-0.078,1.038,0.082
41.79,-0.146,0.812,0.079
41.8,-0.341,1.015,-0.035
41.81,-0.293,1.068,-0.126
41.82,-0.186,0.845,-0.044
41.83,-0.131,1.114,0.137
41.84,-0.161,0.772,0.081
41.85,-0.32,1.119,-0.099
41.86,-0.216,0.853,-0.128
41.87,-0.153,1.075,0.007
41.88,-0.111,0.949,0.16
41.89,-0.146,0.86,0.018
41.9,-0.334,1.078,-0.102
41.91,-0.298,0.859,-0.042
41.92,-0.105,1.27,0.09
41.93,-0.077,0.728,0.104
41.94,-0.242,0.947,-0.001
41.95,-0.308,0.927,-0.153
41.96,-0.174,1.042,-0.055
41.97,-0.089,1.032,0.066
41.98,-0.065,0.733,0.123
41.99,-0.339,1.116,-0.034
42.0,-0.321,0.861,-0.09
42.01,-0.146,1.17,-0.08
42.02,-0.169,0.819,0.13
42.03,-0.16,0.937,0.124
42.04,-0.344,1.029,-0.075
42.05,-0.274,0.922,-0.119
42.06,-0.115,0.988,-0.062
42.07,-0.21,0.892,0.35
42.08,-0.217,1.069,0.098
42.09,-0.312,0.853,-0.127
42.1,-0.25,1.133,-0.121
42.11,-0.187,0.907,0.063
42.12,-0.012,1.07,0.104
42.13,-0.195,0.852,0.024
42.14,-0.344,0.949,-0.136
42.15,-0.269,1.124,-0.018
42.16,-0.054,0.9,0.025
42.17,-0.14,1.013,0.14
42.18,-0.261,0.81,-0.03
42.19,-0.393,1.222,-0.115
42.2,-0.166,0.894,-0.075
42.21,-0.063,1.022,0.06
42.22,-0.167,0.874,0.133
42.23,-0.269,0.938,-0.034
42.24,-0.3,1.124,-0.13
42.25,-0.156,0.833,-0.052
42.26,-0.166,1.091,0.14
42.27,-0.147,0.801,0.11
42.28,-0.332,1.107,-0.094
42.29,-0.248,0.839,-0.137
42.3,-0.18,1.062,0.037
42.31,-0.059,1.044,0.145
42.32,-0.153,0.744,0.019
42.33,-0.387,1.076,-0.098
42.34,-0.214,0.865,-0.082
42.35,-0.152,1.28,0.064
42.36,-0.019,0.716,0.094
42.37,-0.253,0.956,0.045
42.38,-0.346,0.966,-0.144
42.39,-0.193,1.041,-0.076
42.4,-0.088,1.058,0.039
42.41,-0.067,0.681,0.138
42.42,-0.319,1.123,-0.004
42.43,-0.326,0.875,-0.081
42.44,-0.215,1.119,-0.081
42.45,-0.073,0.839,0.057
42.46,-0.204,0.962,0.125
42.47,-0.314,1.017,-0.047
42.48,-0.307,0.887,-0.144
42.49,-0.186,1.072,-0.036
42.5,-0.213,0.763,0.12
42.51,-0.193,1.129,0.1
42.52,-0.316,0.859,-0.099
42.53,-0.289,0.996,-0.136
42.54,-0.201,0.958,0.006
42.55,-0.105,0.959,0.194
42.56,-0.191,1.011,0.039
42.57,-0.342,0.84,-0.107
42.58,-0.277,1.155,-0.106
42.59,-0.135,0.917,0.064
42.6,-0.04,1.054,0.102
42.61,-0.204,0.801,0.016
42.62,-0.383,1.045,-0.127
42.63,-0.208,1.059,-0.085
42.64,-0.143,0.883,0.09
42.65,-0.104,0.962,0.132
42.66,-0.299,0.814,0.005
42.67,-0.357,1.203,-0.137
42.68,-0.216,0.843,-0.075
42.69,-0.064,1.04,0.062
42.7,-0.17,0.854,0.136
42.71,-0.337,0.992,-0.057
42.72,-0.282,1.049,-0.118
42.73,-0.177,0.865,-0.061
42.74,-0.154,1.073,0.132
42.75,-0.191,0.783,0.126
42.76,-0.262,1.136,-0.11
42.77,-0.272,0.833,-0.122
42.78,-0.191,1.055,-0.018
42.79,-0.324,0.863,0.002
42.8,-0.333,1.192,-0.167
42.81,-0.142,0.821,-0.056
42.82,-0.163,1.136,0.147
42.83,-0.146,0.846,0.087
42.84,-0.323,1.024,-0.104
42.85,-0.231,0.986,-0.107
42.86,-0.138,0.968,-0.003
42.87,-0.16,1.094,0.168
42.88,-0.127,0.734,0.046
42.89,-0.353,1.158,-0.118
42.9,-0.224,0.869,-0.101
42.91,-0.177,1.168,0.055
42.92,-0.028,0.823,0.124
42.93,-0.236,0.89,0.033
42.94,-0.349,1.041,-0.106
42.95,-0.232,0.921,-0.046
42.96,-0.106,1.212,0.078
42.97,-0.015,0.694,0.089
42.98,-0.333,1.076,-0.013
42.99,-0.319,0.884,-0.106
43.0,-0.16,1.042,-0.081
43.01,-0.142,0.931,0.079
43.02,-0.104,0.804,0.119
43.03,-0.334,1.15,-0.025
43.04,-0.29,0.86,-0.121
43.05,-0.24,1.083,-0.08
43.06,-0.084,0.771,0.131
43.07,-0.143,1.079,0.126
43.08,-0.312,0.954,-0.077
43.09,-0.271,0.939,-0.12
43.1,-0.175,1.031,-0.023
43.11,-0.11,0.855,0.135
43.12,-0.24,1.107,0.09
43.13,-0.341,0.826,-0.106
43.14,-0.273,1.102,-0.067
43.15,-0.143,0.94,0.025
43.16,-0.058,1.024,0.206
43.17,-0.204,0.898,0.062
43.18,-0.341,0.893,-0.09
43.19,-0.184,1.106,-0.084
43.2,-0.031,0.976,0.018
43.21,-0.163,1.057,0.16
43.22,-0.224,0.768,-0.011
43.23,-0.389,1.143,-0.122
43.24,-0.106,0.974,-0.104
43.25,-0.236,1.03,0.088
43.26,-0.116,0.877,0.137
43.27,-0.31,0.89,-0.022
43.28,-0.287,1.174,-0.116
43.29,-0.156,0.84,-0.087
43.3,-0.114,1.081,0.074
43.31,-0.151,0.8,0.147
43.32,-0.297,1.096,-0.069
43.33,-0.328,0.919,-0.132
43.34,-0.221,0.964,-0.04
43.35,-0.146,1.062,0.149
43.36,-0.121,0.801,0.111
43.37,-0.339,1.139,-0.097
43.38,-0.275,0.73,-0.143
43.39,-0.208,1.191,0.009
43.4,-0.046,0.896,0.151
43.41,-0.213,0.945,0.051
43.42,-0.333,0.945,-0.114
43.43,-0.243,0.884,-0.089
43.44,-0.132,1.231,0.063
43.45,-0.02,0.77,0.135
43.46,-0.262,1.054,0.028
43.47,-0.261,0.786,-0.128
43.48,-0.161,1.194,-0.067
43.49,-0.079,1.004,0.01
43.5,-0.1,0.843,0.163
43.51,-0.268,1.049,-0.014
43.52,-0.323,0.912,-0.088
43.53,-0.213,1.167,-0.076
43.54,-0.094,0.803,0.077
43.55,-0.154,1.053,0.101
43.56,-0.31,0.92,-0.021
43.57,-0.294,1.063,-0.149
43.58,-0.201,0.924,-0.053
43.59,-0.093,0.855,0.136
43.6,-0.139,1.092,0.142
43.61,-0.319,0.862,-0.097
43.62,-0.363,1.093,-0.11
43.63,-0.186,0.852,0.001
43.64,-0.05,1.167,0.132
43.65,-0.201,0.775,0.038
43.66,-0.307,1.034,-0.105
43.67,-0.237,0.963,-0.09
43.68,-0.108,1.079,0.048
43.69,-0.052,0.962,0.122
43.7,-0.224,0.793,0.029
43.71,-0.339,1.111,-0.126
43.72,-0.164,0.923,-0.052
43.73,-0.128,1.179,0.019
43.74,-0.11,0.719,0.133
43.75,-0.259,0.991,-0.033
43.76,-0.332,0.998,-0.114
43.77,-0.133,0.979,-0.088
43.78,-0.124,1.039,0.105
43.79,-0.126,0.693,0.117
43.8,-0.352,1.159,-0.009
43.81,-0.286,0.882,-0.18
43.82,-0.224,1.074,-0.052
43.83,-0.092,0.821,0.115
43.84,-0.228,0.925,0.16
43.85,-0.384,1.065,-0.051
43.86,-0.198,0.853,-0.143
43.87,-0.18,1.157,-0.035
43.88,-0.096,0.777,0.16
43.89,-0.201,1.117,0.059
43.9,-0.303,0.843,-0.127
43.91,-0.216,1.018,-0.121
43.92,-0.137,1.007,0.015
43.93,-0.139,0.968,0.187
43.94,-0.211,1.012,0.018
43.95,-0.381,0.781,-0.108
43.96,-0.143,1.157,-0.098
43.97,-0.122,0.886,0.055
43.98,-0.191,1.018,0.26
43.99,-0.222,0.817,-0.006
44.0,-0.355,1.036,-0.13
44.01,-0.124,1.063,-0.082
44.02,-0.161,0.905,0.097
44.03,-0.173,0.943,0.15
44.04,-0.317,0.816,-0.02
44.05,-0.21,1.209,-0.174
44.06,-0.18,0.857,-0.037
44.07,0.003,0.987,-0.022
44.08,-0.123,0.869,0.144
44.09,-0.353,0.982,-0.081
44.1,-0.228,1.016,-0.106
44.11,-0.159,0.913,-0.023
44.12,-0.102,1.106,0.166
44.13,-0.185,0.767,0.049
44.14,-0.37,1.127,-0.091
44.15,-0.253,0.878,-0.106
44.16,-0.137,1.123,0.032
44.17,-0.04,0.883,0.084
44.18,-0.233,0.856,0.024
44.19,-0.334,1.063,-0.148
44.2,-0.22,0.909,-0.053
44.21,-0.128,1.208,0.041
44.22,-0.114,0.7,0.15
44.23,-0.286,1.041,-0.004
44.24,-0.285,0.976,-0.12
44.25,-0.211,1.001,-0.101
44.26,-0.095,0.963,0.075
44.27,-0.139,0.778,0.152
44.28,-0.353,1.166,-0.055
44.29,-0.239,0.796,-0.146
44.3,-0.234,1.144,-0.038
44.31,-0.11,0.799,0.143
44.32,-0.176,1.029,0.124
44.33,-0.367,0.957,-0.116
44.34,-0.265,0.853,-0.114
44.35,-0.139,1.184,-0.0
44.36,-0.247,0.827,0.153
44.37,-0.229,1.08,0.056
44.38,-0.311,0.779,-0.123
44.39,-0.237,1.114,-0.108
44.4,-0.122,1.004,0.04
44.41,-0.02,0.968,0.161
44.42,-0.252,0.948,0.011
44.43,-0.32,0.847,-0.09
44.44,-0.221,1.221,-0.065
44.45,-0.04,0.837,0.042
44.46,-0.245,0.988,0.163
44.47,-0.295,0.86,-0.054
44.48,-0.313,1.229,-0.122
44.49,-0.148,0.824,-0.102
44.5,-0.114,0.961,0.144
44.51,-0.203,0.897,0.121
44.52,-0.351,0.98,-0.072
44.53,-0.285,1.035,-0.125
44.54,-0.163,0.882,-0.001
44.55,-0.232,1.133,0.238
44.56,-0.169,0.739,0.078
44.57,-0.385,1.103,-0.11
44.58,-0.195,0.891,-0.13
44.59,-0.163,1.13,0.046
44.6,-0.11,0.877,0.126
44.61,-0.215,0.824,0.028
44.62,-0.324,1.164,-0.137
44.63,-0.171,0.934,-0.065
44.64,-0.082,1.15,0.023
44.65,-0.19,0.661,0.176
44.66,-0.3,1.063,-0.006
44.67,-0.288,0.969,-0.14
44.68,-0.206,1.022,-0.082
44.69,-0.137,0.97,0.095
44.7,-0.083,0.759,0.132
44.71,-0.402,1.158,-0.065
44.72,-0.257,0.78,-0.139
44.73,-0.248,1.114,-0.015
44.74,-0.121,0.822,0.12
44.75,-0.182,0.997,0.093
44.76,-0.352,0.966,-0.095
44.77,-0.225,0.878,-0.132
44.78,-0.174,1.17,0.021
44.79,-0.019,0.81,0.147
44.8,-0.242,1.052,0.034
44.81,-0.312,0.753,-0.149
44.82,-0.18,1.185,-0.063
44.83,-0.113,0.991,0.025
44.84,-0.085,0.848,0.136
44.85,-0.26,0.993,0.033
44.86,-0.264,0.921,-0.145
44.87,-0.153,1.214,-0.059
44.88,-0.121,0.793,0.059
44.89,-0.13,1.015,0.133
44.9,-0.313,0.889,-0.037
44.91,-0.301,1.124,-0.147
44.92,-0.189,0.91,-0.057
44.93,-0.121,0.858,0.139
44.94,-0.191,1.026,0.129
44.95,-0.312,0.845,-0.097
44.96,-0.33,1.109,-0.118
44.97,-0.151,0.849,0.01
44.98,-0.085,1.118,0.165
44.99,-0.186,0.83,0.047
45.0,-0.356,0.966,-0.087
45.01,-0.172,1.05,-0.129
45.02,-0.079,1.053,0.036
45.03,-0.173,0.994,0.136
45.04,-0.223,0.743,0.025
45.05,-0.374,1.182,-0.112
45.06,-0.121,0.97,-0.088
45.07,-0.1,1.105,0.04
45.08,-0.183,0.791,0.2
45.09,-0.321,0.943,0.006
45.1,-0.273,1.141,-0.167
45.11,-0.233,0.831,-0.075
45.12,-0.108,1.064,0.078
45.13,-0.143,0.765,0.166
45.14,-0.331,1.133,-0.104
45.15,-0.311,0.837,-0.139
45.16,-0.175,1.038,-0.044
45.17,-0.171,0.978,0.213
45.18,-0.118,0.826,0.048
45.19,-0.442,1.104,-0.08
45.2,-0.197,0.787,-0.111
45.21,-0.122,1.306,0.042
45.22,-0.214,0.767,0.129
45.23,-0.277,0.989,0.043
45.24,-0.278,0.894,-0.153
45.25,-0.159,1.07,-0.061
45.26,-0.127,1.076,0.006
45.27,-0.036,0.729,0.098
45.28,-0.24,1.106,-0.025
45.29,-0.258,0.887,-0.136
45.3,-0.223,1.105,-0.06
45.31,-0.034,0.799,0.042
45.32,-0.133,1.048,0.083
45.33,-0.338,0.91,-0.062
45.34,-0.298,1.055,-0.156
45.35,-0.187,0.969,-0.038
45.36,-0.041,0.903,0.149
45.37,-0.214,1.086,0.113
45.38,-0.338,0.836,-0.096
45.39,-0.212,1.152,-0.118
45.4,-0.221,0.933,0.05
45.41,-0.053,1.056,0.103
45.42,-0.282,0.845,0.047
45.43,-0.312,0.989,-0.142
45.44,-0.141,1.099,-0.069
45.45,-0.14,0.94,0.058
45.46,-0.17,0.962,0.151
45.47,-0.266,0.824,0.024
45.48,-0.329,1.217,-0.156
45.49,-0.142,0.893,-0.097
45.5,-0.044,1.014,0.005
45.51,-0.113,0.811,0.166
45.52,-0.313,0.997,-0.056
45.53,-0.33,1.089,-0.123
45.54,-0.182,0.823,-0.036
45.55,-0.135,1.106,0.161
45.56,-0.163,0.774,0.092
45.57,-0.363,1.132,-0.105
45.58,-0.258,0.85,-0.124
45.59,-0.138,1.091,0.006
45.6,-0.079,1.002,0.144
45.61,-0.231,0.835,0.034
45.62,-0.396,1.064,-0.111
45.63,-0.182,0.84,-0.082
45.64,-0.105,1.253,0.085
45.65,-0.073,0.706,0.15
45.66,-0.324,1.031,0.051
45.67,-0.326,0.953,-0.145
45.68,-0.127,1.067,-0.069
45.69,-0.083,0.991,0.071
45.7,-0.133,0.731,0.164
45.71,-0.367,1.168,-0.053
45.72,-0.192,0.865,-0.153
45.73,-0.22,1.121,-0.091
45.74,-0.042,0.771,0.086
45.75,-0.156,1.019,0.107
45.76,-0.319,0.987,-0.119
45.77,-0.245,0.849,-0.107
45.78,-0.289,1.173,0.044
45.79,-0.033,0.823,0.135
45.8,-0.221,1.082,0.031
45.81,-0.304,0.784,-0.139
45.82,-0.233,1.203,-0.046
45.83,-0.036,1.004,0.031
45.84,-0.127,0.889,0.15
45.85,-0.232,0.955,-0.022
45.86,-0.296,0.946,-0.105
45.87,-0.209,1.158,-0.06
45.88,-0.107,0.76,0.084
45.89,-0.184,1.057,0.166
45.9,-0.258,0.902,-0.103
45.91,-0.28,1.036,-0.159
45.92,-0.194,0.938,-0.036
45.93,-0.123,0.965,0.207
45.94,-0.156,1.056,0.071
45.95,-0.394,0.814,-0.107
45.96,-0.252,1.125,-0.079
45.97,-0.107,1.0,0.028
45.98,-0.008,1.064,0.113
45.99,-0.184,0.798,0.024
46.0,-0.321,1.042,-0.121
46.01,-0.232,1.129,-0.069
46.02,-0.122,0.893,0.038
46.03,-0.116,0.912,0.186
46.04,-0.293,0.816,-0.005
46.05,-0.33,1.234,-0.13
46.06,-0.227,0.866,-0.115
46.07,-0.061,1.006,0.13
46.08,-0.136,0.783,0.1
46.09,-0.325,1.012,-0.008
46.1,-0.27,1.085,-0.173
46.11,-0.217,0.957,-0.03
46.12,-0.104,1.035,0.174
46.13,-0.202,0.781,0.08
46.14,-0.387,1.101,-0.124
46.15,-0.21,0.796,-0.079
46.16,-0.14,1.268,0.025
46.17,-0.476,0.821,0.365
46.18,-0.302,0.946,0.027
46.19,-0.282,0.954,-0.156
46.2,-0.136,1.006,-0.054
46.21,-0.17,1.149,0.02
46.22,-0.099,0.663,0.189
46.23,-0.353,1.137,0.014
46.24,-0.22,0.856,-0.16
46.25,-0.272,1.1,-0.073
46.26,-0.057,0.836,0.094
46.27,-0.16,0.953,0.172
46.28,-0.291,1.069,-0.104
46.29,-0.365,0.803,-0.124
46.3,-0.207,1.139,-0.033
46.31,-0.031,0.857,0.159
46.32,-0.16,1.116,0.075
46.33,-0.292,0.82,-0.154
46.34,-0.207,1.072,-0.1
46.35,-0.25,1.05,0.036
46.36,-0.026,0.826,0.134
46.37,-0.235,1.008,0.016
46.38,-0.353,0.821,-0.105
46.39,-0.22,1.24,-0.054
46.4,-0.185,0.873,0.043
46.41,-0.097,0.928,0.148
46.42,-0.236,0.873,-0.043
46.43,-0.312,1.106,-0.105
46.44,-0.181,0.979,-0.082
46.45,-0.114,0.814,0.125
46.46,-0.137,1.021,0.151
46.47,-0.373,0.857,-0.102
46.48,-0.345,1.136,-0.125
46.49,-0.161,0.878,-0.038
46.5,-0.106,1.0,0.161
46.51,-0.212,0.846,0.082
46.52,-0.278,0.99,-0.114
46.53,-0.242,1.06,-0.137
46.54,-0.158,0.879,0.008
46.55,-0.091,1.078,0.163
46.56,-0.188,0.779,0.012
46.57,-0.357,1.103,-0.135
46.58,-0.224,0.925,-0.037
46.59,-0.119,1.117,0.054
46.6,-0.104,0.851,0.146
46.61,-0.275,0.868,-0.029
46.62,-0.357,1.091,-0.119
46.63,-0.111,0.873,-0.078
46.64,-0.159,1.114,0.104
46.65,-0.155,0.699,0.125
46.66,-0.351,1.119,-0.051
46.67,-0.309,0.951,-0.131
46.68,-0.165,0.999,-0.035
46.69,-0.154,0.953,0.153
46.7,-0.208,0.788,0.083
46.71,-0.369,1.174,-0.119
46.72,-0.246,0.78,-0.143
46.73,-0.142,1.191,0.023
46.74,-0.086,0.845,0.177
46.75,-0.229,1.0,0.023
46.76,-0.375,0.903,-0.126
46.77,-0.161,0.937,-0.11
46.78,-0.016,1.151,0.046
46.79,-0.097,0.755,0.176
46.8,-0.363,1.103,-0.039
46.81,-0.274,0.792,-0.096
46.82,-0.147,1.196,-0.065
46.83,-0.166,0.86,0.134
46.84,-0.134,0.906,0.137
46.85,-0.305,1.057,-0.072
46.86,-0.291,0.878,-0.133
46.87,-0.187,1.12,-0.042
46.88,0.009,0.772,0.112
46.89,-0.163,1.124,0.074
46.9,-0.311,0.803,-0.141
46.91,-0.229,1.04,-0.088
46.92,-0.167,1.032,0.053
46.93,0.003,0.866,0.139
46.94,-0.264,0.913,0.022
46.95,-0.336,0.971,-0.115
46.96,-0.14,1.153,-0.096
46.97,-0.185,0.826,0.081
46.98,-0.16,0.992,0.163
46.99,-0.292,0.84,-0.043
47.0,-0.313,1.183,-0.155
47.01,-0.108,0.828,-0.086
47.02,-0.058,0.991,0.134
47.03,-0.206,0.93,0.123
47.04,-0.283,0.964,-0.092
47.05,-0.281,1.092,-0.131
47.06,-0.18,0.887,0.022
47.07,-0.144,1.151,0.158
47.08,-0.182,0.736,0.047
47.09,-0.401,1.05,-0.128
47.1,-0.218,0.968,-0.054
47.11,-0.064,1.115,0.026
47.12,-0.126,0.906,0.141
47.13,-0.262,0.783,-0.0
47.14,-0.353,1.122,-0.147
47.15,-0.107,0.926,-0.076
47.16,-0.221,1.125,0.132
47.17,-0.134,0.715,0.16
47.18,-0.356,1.097,-0.03
47.19,-0.224,1.001,-0.177
47.2,-0.213,0.925,-0.052
47.21,-0.229,1.028,0.201
47.22,-0.07,0.791,0.1
47.23,-0.375,1.169,-0.113
47.24,-0.229,0.742,-0.156
47.25,-0.315,1.205,0.062
47.26,0.045,0.847,0.155
47.27,-0.229,0.944,0.028
47.28,-0.335,0.944,-0.13
47.29,-0.254,0.949,-0.023
47.3,-0.059,1.199,0.022
47.31,-0.044,0.671,0.131
47.32,-0.321,1.129,-0.021
47.33,-0.288,0.865,-0.108
47.34,-0.138,1.109,-0.112
47.35,-0.179,0.888,0.081
47.36,-0.173,0.83,0.153
47.37,-0.325,1.111,-0.041
47.38,-0.279,0.808,-0.144
47.39,-0.191,1.083,-0.06
47.4,-0.114,0.819,0.173
47.41,-0.13,1.088,0.069
47.42,-0.326,0.884,-0.112
47.43,-0.22,0.977,-0.137
47.44,-0.187,1.084,0.066
47.45,0.058,0.878,0.122
47.46,-0.226,1.058,0.043
47.47,-0.367,0.792,-0.141
47.48,-0.271,1.218,-0.059
47.49,-0.07,0.917,0.048
47.5,-0.103,0.992,0.12
47.51,-0.35,0.885,-0.01
47.52,-0.298,1.018,-0.127
47.53,-0.189,1.054,-0.068
47.54,-0.056,0.79,0.065
47.55,-0.215,1.098,0.169
47.56,-0.247,0.808,-0.067
47.57,-0.348,1.16,-0.125
47.58,-0.175,0.874,-0.042
47.59,-0.115,1.046,0.136
47.6,-0.097,0.897,0.079
47.61,-0.335,0.957,-0.093
47.62,-0.231,1.075,-0.088
47.63,-0.165,0.925,-0.002
47.64,-0.137,1.076,0.148
47.65,-0.159,0.732,0.025
47.66,-0.342,1.107,-0.132
47.67,-0.218,0.943,-0.069
47.68,-0.14,1.075,0.039
47.69,-0.111,0.887,0.15
47.7,-0.225,0.85,0.0
47.71,-0.327,1.161,-0.173
47.72,-0.175,0.909,-0.053
47.73,-0.123,1.142,0.08
47.74,-0.067,0.669,0.138
47.75,-0.392,1.083,-0.047
47.76,-0.252,0.822,-0.164
47.77,-0.186,1.054,-0.015
47.78,-0.052,0.872,0.122
47.79,-0.189,0.945,0.102
47.8,-0.352,1.013,-0.111
47.81,-0.235,0.812,-0.079
47.82,-0.15,1.248,0.033
47.83,-0.008,0.753,0.119
47.84,-0.262,1.062,0.053
47.85,-0.301,0.815,-0.15
47.86,-0.191,1.112,-0.056
47.87,-0.094,1.067,0.022
47.88,-0.108,0.752,0.147
47.89,-0.248,1.076,-0.028
47.9,-0.271,0.907,-0.119
47.91,-0.24,1.173,-0.091
47.92,-0.096,0.751,0.133
47.93,-0.159,1.057,0.155
47.94,-0.323,0.953,-0.061
47.95,-0.279,0.958,-0.166
47.96,-0.216,1.008,-0.049
47.97,-0.118,0.86,0.169
47.98,-0.181,1.101,0.067
47.99,-0.307,0.812,-0.105
48.0,-0.235,1.136,-0.115
48.01,-0.151,0.98,0.054
48.02,-0.056,1.019,0.123
48.03,-0.231,0.872,0.054
48.04,-0.313,0.891,-0.152
48.05,-0.21,1.195,-0.055
48.06,-0.109,0.866,0.034
48.07,-0.145,0.984,0.159
48.08,-0.253,0.808,-0.01
48.09,-0.344,1.159,-0.157
48.1,-0.187,0.899,-0.093
48.11,-0.095,0.997,0.105
48.12,-0.163,0.901,0.15
48.13,-0.312,0.933,-0.06
48.14,-0.348,1.123,-0.129
48.15,-0.125,0.833,-0.079
48.16,-0.15,1.137,0.199
48.17,-0.141,0.798,0.054
48.18,-0.373,1.084,-0.065
48.19,-0.228,0.913,-0.122
48.2,-0.205,1.103,0.044
48.21,-0.029,0.945,0.077
48.22,-0.202,0.721,0.068
48.23,-0.351,1.141,-0.161
48.24,-0.201,0.927,-0.041
48.25,-0.138,1.157,0.022
