t,ax,ay,az
0.0,-0.034,0.946,0.066
0.01,-0.067,1.055,0.123
0.02,-0.229,0.8,0.038
0.03,-0.431,1.114,-0.118
0.04,-0.085,1.128,-0.052
0.05,-0.129,0.873,0.014
0.06,-0.103,0.929,0.144
0.07,-0.297,0.88,-0.015
0.08,-0.362,1.248,-0.16
0.09,-0.191,0.783,-0.078
0.1,-0.109,1.039,0.14
0.11,-0.159,0.898,0.155
0.12,-0.338,0.903,-0.136
0.13,-0.281,1.05,-0.132
0.14,-0.173,0.885,0.013
0.15,-0.037,1.163,0.152
0.16,-0.135,0.728,0.025
0.17,-0.28,1.142,-0.065
0.18,-0.04,0.941,0.017
0.19,-0.073,1.045,0.124
0.2,-0.184,0.756,-0.037
0.21,-0.41,1.163,-0.121
0.22,-0.121,0.962,-0.099
0.23,-0.069,0.974,0.066
0.24,-0.122,0.893,0.11
0.25,-0.381,0.859,-0.03
0.26,-0.321,1.198,-0.127
0.27,-0.154,0.82,-0.049
0.28,-0.176,1.062,0.129
0.29,-0.109,0.746,0.102
0.3,-0.375,1.104,-0.13
0.31,-0.257,0.817,-0.136
0.32,-0.236,1.115,0.079
0.33,-0.038,0.953,0.143
0.34,-0.159,0.734,0.006
0.35,-0.427,1.157,-0.136
0.36,-0.195,0.903,-0.06
0.37,-0.105,1.239,0.024
0.38,-0.007,0.664,0.142
0.39,-0.31,1.029,-0.019
0.4,-0.427,0.952,-0.137
0.41,-0.152,0.931,-0.073
0.42,-0.09,1.095,0.104
0.43,-0.087,0.701,0.107
0.44,-0.423,1.161,-0.042
0.45,-0.249,0.764,-0.149
0.46,-0.23,1.102,-0.029
0.47,-0.096,0.904,0.191
0.48,-0.14,0.891,0.081
0.49,-0.377,1.06,-0.071
0.5,-0.183,0.802,-0.107
0.51,-0.169,1.262,-0.01
0.52,-0.036,0.744,0.14
0.53,-0.224,1.062,0.043
0.54,-0.334,0.851,-0.143
0.55,-0.244,1.104,-0.073
0.56,-0.138,1.055,0.049
0.57,-0.086,0.782,0.147
0.58,-0.3,1.094,0.011
0.59,-0.293,0.815,-0.132
0.6,-0.259,1.171,-0.068
0.61,-0.083,0.798,0.114
0.62,-0.122,0.983,0.08
0.63,-0.393,0.948,-0.041
0.64,-0.25,0.925,-0.156
0.65,-0.154,1.075,-0.035
0.66,-0.079,0.808,0.159
0.67,-0.281,1.141,0.138
0.68,-0.302,0.802,-0.131
0.69,-0.296,1.099,-0.117
0.7,-0.171,0.98,0.055
0.71,-0.068,0.977,0.129
0.72,-0.19,0.96,0.031
0.73,-0.382,0.827,-0.152
0.74,-0.24,1.183,-0.035
0.75,-0.087,0.851,0.068
0.76,-0.118,1.031,0.127
0.77,-0.275,0.844,-0.022
0.78,-0.322,1.089,-0.145
0.79,-0.221,1.036,-0.052
0.8,-0.094,0.882,0.07
0.81,-0.2,1.033,0.133
0.82,-0.298,0.84,-0.064
0.83,-0.315,1.183,-0.133
0.84,-0.138,0.828,-0.042
0.85,-0.123,1.049,0.153
0.86,-0.184,0.907,0.098
0.87,-0.328,0.94,-0.139
0.88,-0.264,1.093,-0.098
0.89,-0.125,0.895,0.012
0.9,-0.079,1.1,0.159
0.91,-0.15,0.73,0.006
0.92,-0.424,1.138,-0.121
0.93,-0.186,0.958,-0.05
0.94,-0.056,1.1,0.073
0.95,-0.119,0.89,0.119
0.96,-0.26,0.816,-0.029
0.97,-0.387,1.246,-0.145
0.98,-0.073,0.88,-0.076
0.99,-0.162,1.106,0.087
1.0,-0.134,0.689,0.123
1.01,-0.42,1.108,-0.011
1.02,-0.222,0.969,-0.151
1.03,-0.19,0.879,-0.01
1.04,-0.112,1.038,0.123
1.05,-0.157,0.766,0.095
1.06,-0.373,1.171,-0.137
1.07,-0.26,0.779,-0.129
1.08,-0.073,1.167,0.058
1.09,-0.181,0.753,0.335
1.1,-0.336,1.002,0.054
1.11,-0.325,0.935,-0.147
1.12,-0.092,1.046,-0.065
1.13,-0.124,1.063,0.072
1.14,-0.121,0.673,0.17
1.15,-0.328,1.138,-0.049
1.16,-0.306,0.814,-0.165
1.17,-0.17,1.09,-0.05
1.18,-0.134,0.878,0.166
1.19,-0.091,0.937,0.099
1.2,-0.348,1.038,-0.108
1.21,-0.332,0.777,-0.114
1.22,-0.181,1.187,0.034
1.23,0.067,0.787,0.095
1.24,-0.211,1.073,0.022
1.25,-0.333,0.854,-0.154
1.26,-0.21,1.103,-0.033
1.27,-0.049,1.031,-0.003
1.28,-0.068,0.768,0.135
1.29,-0.347,1.096,-0.022
1.3,-0.27,0.817,-0.133
1.31,-0.269,1.191,-0.061
1.32,-0.088,0.796,0.092
1.33,-0.167,1.008,0.135
1.34,-0.314,0.946,-0.069
1.35,-0.312,0.927,-0.115
1.36,-0.252,1.054,-0.006
1.37,-0.027,0.811,0.173
1.38,-0.205,1.132,0.085
1.39,-0.261,0.784,-0.167
1.4,-0.283,1.14,-0.12
1.41,-0.084,0.938,0.025
1.42,-0.066,0.935,0.162
1.43,-0.225,0.959,0.015
1.44,-0.331,0.87,-0.142
1.45,-0.229,1.222,-0.066
1.46,-0.035,0.856,0.062
1.47,-0.15,1.031,0.14
1.48,-0.255,0.851,-0.07
1.49,-0.367,1.092,-0.147
1.5,-0.122,0.998,-0.038
1.51,-0.164,0.87,0.142
1.52,-0.204,1.041,0.122
1.53,-0.311,0.881,-0.067
1.54,-0.324,1.164,-0.133
1.55,-0.151,0.802,0.017
1.56,-0.154,1.072,0.239
1.57,-0.129,0.876,0.03
1.58,-0.434,0.936,-0.148
1.59,-0.182,1.067,-0.106
1.6,0.005,0.967,0.01
1.61,-0.192,1.03,0.128
1.62,-0.231,0.765,0.01
1.63,-0.368,1.229,-0.156
1.64,-0.083,0.931,-0.104
1.65,-0.173,0.992,0.12
1.66,-0.08,0.89,0.098
1.67,-0.249,0.9,-0.069
1.68,-0.33,1.188,-0.167
1.69,-0.2,0.807,-0.018
1.7,-0.155,1.112,0.185
1.71,-0.166,0.774,0.103
1.72,-0.385,1.08,-0.124
1.73,-0.21,1.017,-0.099
1.74,-0.199,1.014,0.072
1.75,-0.07,0.926,0.153
1.76,-0.209,0.78,0.011
1.77,-0.334,1.211,-0.181
1.78,-0.141,0.929,-0.047
1.79,-0.11,1.13,0.044
1.8,-0.128,0.729,0.127
1.81,-0.352,0.991,-0.035
1.82,-0.294,1.106,-0.147
1.83,-0.171,0.87,-0.04
1.84,-0.169,1.086,0.148
1.85,-0.093,0.714,0.095
1.86,-0.377,1.146,-0.124
1.87,-0.245,0.843,-0.111
1.88,-0.135,1.131,0.035
1.89,-0.058,0.715,0.153
1.9,-0.251,0.913,0.007
1.91,-0.373,1.073,-0.141
1.92,-0.105,0.94,-0.101
1.93,-0.173,1.144,0.062
1.94,-0.145,0.616,0.161
1.95,-0.349,1.158,-0.04
1.96,-0.222,0.834,-0.183
1.97,-0.248,1.058,-0.037
1.98,-0.072,0.915,0.097
1.99,-0.15,0.842,0.112
2.0,-0.36,1.11,-0.107
2.01,-0.206,0.749,-0.148
2.02,-0.233,1.279,0.051
2.03,-0.024,0.774,0.15
2.04,-0.218,1.034,0.054
2.05,-0.351,0.914,-0.15
2.06,-0.206,1.038,-0.075
2.07,-0.073,1.124,0.022
2.08,-0.013,0.652,0.11
2.09,-0.339,1.164,0.001
2.1,-0.252,0.839,-0.111
2.11,-0.191,1.187,-0.088
2.12,-0.125,0.844,0.116
2.13,-0.135,0.9,0.124
2.14,-0.357,1.07,-0.059
2.15,-0.296,0.865,-0.138
2.16,-0.24,1.107,-0.013
2.17,-0.043,0.78,0.212
2.18,-0.197,1.089,0.043
2.19,-0.316,0.793,-0.169
2.2,-0.256,1.054,-0.098
2.21,-0.086,1.073,0.028
2.22,-0.046,0.799,0.149
2.23,-0.286,1.038,0.016
2.24,-0.335,0.829,-0.114
2.25,-0.197,1.232,-0.034
2.26,-0.098,0.8,0.065
2.27,-0.179,0.984,0.157
2.28,-0.311,0.944,-0.096
2.29,-0.269,0.968,-0.131
2.3,-0.182,1.06,-0.063
2.31,-0.081,0.798,0.185
2.32,-0.198,1.125,0.118
2.33,-0.315,0.781,-0.163
2.34,-0.249,1.13,-0.071
2.35,-0.096,1.042,0.059
2.36,-0.116,0.884,0.136
2.37,-0.207,0.946,0.008
2.38,-0.348,0.926,-0.133
2.39,-0.177,1.209,-0.107
2.4,-0.12,0.796,0.098
2.41,-0.102,1.03,0.15
2.42,-0.323,0.856,-0.041
2.43,-0.286,1.074,-0.18
2.44,-0.175,0.963,-0.016
2.45,-0.176,0.906,0.142
2.46,-0.193,1.022,0.082
2.47,-0.317,0.863,-0.114
2.48,-0.292,1.148,-0.142
2.49,-0.073,0.83,0.048
2.5,-0.039,1.131,0.166
2.51,-0.194,0.833,0.021
2.52,-0.424,0.95,-0.133
2.53,-0.148,1.141,-0.086
2.54,-0.045,0.985,0.023
2.55,-0.15,0.959,0.104
2.56,-0.262,0.768,-0.013
2.57,-0.305,1.26,-0.164
2.58,-0.068,0.932,-0.081
2.59,-0.194,0.931,0.131
2.6,-0.142,0.869,0.139
2.61,-0.352,0.931,-0.067
2.62,-0.26,1.167,-0.148
2.63,-0.172,0.837,-0.013
2.64,-0.141,1.109,0.173
2.65,-0.141,0.768,0.078
2.66,-0.407,1.06,-0.157
2.67,-0.244,0.957,-0.092
2.68,-0.163,1.06,0.232
2.69,-0.105,0.81,0.171
2.7,-0.323,0.87,-0.042
2.71,-0.297,1.144,-0.149
2.72,-0.182,0.882,-0.046
2.73,-0.196,1.1,0.12
2.74,-0.124,0.696,0.15
2.75,-0.339,1.132,-0.108
2.76,-0.35,0.872,-0.111
2.77,-0.206,1.005,0.02
2.78,-0.033,1.046,0.187
2.79,-0.138,0.756,0.021
2.8,-0.408,1.164,-0.138
2.81,-0.188,0.852,-0.084
2.82,-0.145,1.227,0.009
2.83,-0.021,0.672,0.167
2.84,-0.295,0.994,-0.024
2.85,-0.394,1.068,-0.111
2.86,-0.132,0.896,-0.063
2.87,-0.146,1.071,0.133
2.88,-0.1,0.669,0.137
2.89,-0.39,1.208,-0.089
2.9,-0.263,0.792,-0.165
2.91,-0.236,1.111,-0.024
2.92,-0.0,0.932,0.152
2.93,-0.181,0.838,0.041
2.94,-0.345,1.092,-0.125
2.95,-0.22,0.825,-0.084
2.96,-0.14,1.246,0.037
2.97,-0.062,0.665,0.149
2.98,-0.265,1.03,-0.0
2.99,-0.31,0.96,-0.127
3.0,-0.162,1.036,-0.084
3.01,-0.143,0.977,0.133
3.02,-0.119,0.729,0.144
3.03,-0.36,1.191,-0.089
3.04,-0.283,0.779,-0.161
3.05,-0.221,1.13,-0.002
3.06,-0.079,0.817,0.182
3.07,-0.158,0.983,0.061
3.08,-0.346,0.98,-0.159
3.09,-0.214,0.834,-0.113
3.1,-0.281,1.233,0.184
3.11,0.032,0.694,0.133
3.12,-0.338,1.112,0.011
3.13,-0.314,0.82,-0.131
3.14,-0.19,1.138,-0.069
3.15,-0.145,0.893,0.094
3.16,-0.149,0.812,0.171
3.17,-0.401,1.149,-0.043
3.18,-0.21,0.78,-0.196
3.19,-0.243,1.121,-0.01
3.2,-0.079,0.809,0.186
3.21,-0.169,1.067,0.078
3.22,-0.332,0.869,-0.197
3.23,-0.197,0.927,-0.099
3.24,-0.19,1.204,0.116
3.25,-0.036,0.743,0.124
3.26,-0.283,1.072,0.028
3.27,-0.274,0.812,-0.158
3.28,-0.172,1.273,-0.045
3.29,-0.152,0.818,0.079
3.3,-0.051,0.831,0.12
3.31,-0.372,1.062,-0.058
3.32,-0.25,0.895,-0.177
3.33,-0.262,1.133,-0.003
3.34,-0.045,0.739,0.145
3.35,-0.24,1.125,0.106
3.36,-0.305,0.822,-0.168
3.37,-0.215,1.042,-0.109
3.38,-0.167,1.053,0.084
3.39,-0.017,0.842,0.121
3.4,-0.287,1.017,0.037
3.41,-0.346,0.827,-0.121
3.42,-0.216,1.263,-0.07
3.43,-0.117,0.784,0.086
3.44,-0.155,0.999,0.132
3.45,-0.314,0.936,-0.054
3.46,-0.372,0.99,-0.148
3.47,-0.182,0.962,-0.065
3.48,-0.045,0.895,0.205
3.49,-0.201,0.982,0.041
3.5,-0.305,0.832,-0.174
3.51,-0.273,1.241,-0.052
3.52,-0.017,0.9,0.025
3.53,-0.149,0.986,0.152
3.54,-0.235,0.853,0.011
3.55,-0.281,1.074,-0.169
3.56,-0.204,1.014,-0.097
3.57,-0.129,0.845,0.129
3.58,-0.197,1.06,0.196
3.59,-0.241,0.828,-0.16
3.6,-0.35,1.113,-0.158
3.61,-0.185,0.865,0.011
3.62,-0.027,1.088,0.159
3.63,-0.159,0.879,0.024
3.64,-0.305,0.935,-0.118
3.65,-0.296,1.165,-0.039
3.66,-0.024,0.915,0.004
3.67,-0.106,1.027,0.12
3.68,-0.211,0.767,-0.009
3.69,-0.365,1.182,-0.13
3.7,-0.163,0.936,-0.103
3.71,-0.163,0.948,0.112
3.72,-0.136,0.914,0.156
3.73,-0.308,0.915,-0.072
3.74,-0.343,1.171,-0.149
3.75,-0.153,0.788,-0.028
3.76,-0.09,1.151,0.17
3.77,-0.137,0.796,0.012
3.78,-0.372,1.007,-0.13
3.79,-0.214,1.042,-0.083
3.8,-0.086,1.082,0.076
3.81,-0.135,0.958,0.128
3.82,-0.159,0.733,0.013
3.83,-0.412,1.253,-0.15
3.84,-0.104,0.894,-0.107
3.85,-0.169,1.064,0.08
3.86,-0.122,0.743,0.136
3.87,-0.319,0.979,-0.021
3.88,-0.321,1.117,-0.143
3.89,-0.174,0.763,-0.054
3.9,-0.119,1.141,0.181
3.91,-0.109,0.767,0.081
3.92,-0.393,1.074,-0.168
3.93,-0.285,0.866,-0.113
3.94,-0.05,1.164,0.065
3.95,-0.084,0.92,0.133
3.96,-0.195,0.735,0.008
3.97,-0.378,1.196,-0.136
3.98,-0.135,0.913,-0.038
3.99,-0.124,1.127,-0.017
4.0,-0.119,0.647,0.163
4.01,-0.302,1.055,-0.025
4.02,-0.323,1.038,-0.13
4.03,-0.233,0.848,-0.043
4.04,-0.176,1.083,0.186
4.05,-0.099,0.733,0.116
4.06,-0.369,1.162,-0.122
4.07,-0.223,0.766,-0.135
4.08,-0.269,1.222,0.081
4.09,-0.005,0.849,0.127
4.1,-0.22,0.859,0.033
4.11,-0.383,1.087,-0.177
4.12,-0.185,0.937,-0.03
4.13,-0.117,1.221,0.048
4.14,-0.085,0.578,0.184
4.15,-0.321,1.082,-0.029
4.16,-0.294,0.906,-0.134
4.17,-0.274,1.01,-0.055
4.18,-0.128,0.958,0.124
4.19,-0.139,0.785,0.157
4.2,-0.373,1.144,-0.109
4.21,-0.236,0.751,-0.145
4.22,-0.216,1.188,0.003
4.23,-0.047,0.839,0.165
4.24,-0.167,0.968,0.034
4.25,-0.357,0.986,-0.11
4.26,-0.168,0.906,-0.109
4.27,-0.154,1.227,0.058
4.28,-0.089,0.678,0.165
4.29,-0.275,1.095,-0.018
4.3,-0.31,0.809,-0.139
4.31,-0.319,1.136,-0.009
4.32,-0.069,0.809,0.118
4.33,-0.18,1.036,0.176
4.34,-0.301,0.938,-0.123
4.35,-0.292,0.847,-0.123
4.36,-0.211,1.103,0.025
4.37,-0.052,0.811,0.152
4.38,-0.199,1.085,0.078
4.39,-0.316,0.841,-0.147
4.4,-0.281,1.162,-0.051
4.41,-0.088,0.979,0.008
4.42,-0.087,0.872,0.16
4.43,-0.246,1.006,-0.011
4.44,-0.302,0.92,-0.127
4.45,-0.247,1.225,-0.049
4.46,-0.146,0.709,0.077
4.47,-0.124,0.988,0.148
4.48,-0.299,0.921,-0.048
4.49,-0.28,1.077,-0.149
4.5,-0.19,0.966,-0.043
4.51,-0.116,0.898,0.177
4.52,-0.198,1.062,0.087
4.53,-0.354,0.804,-0.121
4.54,-0.266,1.159,-0.091
4.55,-0.22,0.968,0.154
4.56,-0.058,0.996,0.133
4.57,-0.205,0.869,-0.002
4.58,-0.394,0.962,-0.096
4.59,-0.146,1.176,-0.065
4.6,-0.095,0.829,0.019
4.61,-0.126,0.97,0.142
4.62,-0.302,0.855,-0.018
4.63,-0.344,1.185,-0.172
4.64,-0.194,0.855,-0.099
4.65,-0.14,0.942,0.165
4.66,-0.121,0.981,0.121
4.67,-0.317,0.876,-0.131
4.68,-0.301,1.082,-0.116
4.69,-0.158,0.855,0.031
4.7,-0.038,1.129,0.15
4.71,-0.176,0.798,0.01
4.72,-0.401,1.056,-0.129
4.73,-0.238,1.036,-0.072
4.74,-0.096,0.986,0.047
4.75,-0.088,0.977,0.127
4.76,-0.301,0.788,-0.013
4.77,-0.383,1.225,-0.124
4.78,-0.121,0.859,-0.109
4.79,-0.113,1.045,0.104
4.8,-0.102,0.796,0.156
4.81,-0.342,1.001,-0.097
4.82,-0.328,1.074,-0.113
4.83,-0.171,0.833,-0.058
4.84,-0.113,1.146,0.184
4.85,-0.156,0.715,0.072
4.86,-0.332,1.129,-0.145
4.87,-0.295,0.904,-0.081
4.88,-0.094,1.092,0.021
4.89,-0.028,0.869,0.14
4.9,-0.223,0.802,-0.012
4.91,-0.425,1.194,-0.09
4.92,-0.177,0.886,-0.086
4.93,-0.088,1.129,0.032
4.94,-0.112,0.668,0.153
4.95,-0.366,1.068,-0.019
4.96,-0.311,0.989,-0.178
4.97,-0.17,0.899,-0.074
4.98,-0.168,1.074,0.174
4.99,-0.062,0.739,0.103
5.0,-0.378,1.192,-0.132
5.01,-0.219,0.755,-0.119
5.02,-0.254,1.184,0.032
5.03,0.015,0.899,0.133
5.04,-0.224,0.866,0.019
5.05,-0.385,1.039,-0.134
5.06,-0.197,0.92,-0.023
5.07,-0.122,1.257,0.062
5.08,-0.045,0.618,0.146
5.09,-0.38,1.135,-0.008
5.1,-0.271,0.847,-0.142
5.11,-0.21,1.115,-0.062
5.12,-0.111,0.841,0.126
5.13,-0.188,0.954,0.138
5.14,-0.309,1.039,-0.044
5.15,-0.312,0.804,-0.14
5.16,-0.317,1.087,0.012
5.17,0.02,0.846,0.173
5.18,-0.16,1.119,0.041
5.19,-0.285,0.797,-0.161
5.2,-0.302,0.999,-0.093
5.21,-0.156,1.105,0.081
5.22,0.012,0.791,0.125
5.23,-0.271,1.066,0.034
5.24,-0.417,0.81,-0.091
5.25,-0.231,1.256,-0.053
5.26,-0.047,0.83,0.053
5.27,-0.129,0.972,0.12
5.28,-0.316,0.962,-0.01
5.29,-0.316,0.967,-0.166
5.3,-0.159,1.011,-0.064
5.31,-0.163,0.87,0.152
5.32,-0.173,1.116,0.131
5.33,-0.291,0.812,-0.126
5.34,-0.275,1.087,-0.126
5.35,-0.18,0.917,0.012
5.36,-0.102,0.994,0.187
5.37,-0.14,0.951,0.037
5.38,-0.299,0.879,-0.14
5.39,-0.322,1.217,-0.076
5.4,-0.04,0.855,-0.006
5.41,-0.069,1.042,0.161
5.42,-0.192,0.776,-0.024
5.43,-0.387,1.14,-0.1
5.44,-0.198,1.009,-0.074
5.45,-0.134,0.876,0.103
5.46,-0.094,0.971,0.142
5.47,-0.331,0.853,-0.081
5.48,-0.4,1.2,-0.144
5.49,-0.123,0.814,-0.056
5.5,-0.104,1.065,0.099
5.51,-0.21,0.843,0.142
5.52,-0.295,0.976,-0.117
5.53,-0.327,1.043,-0.119
5.54,-0.135,0.896,-0.008
5.55,-0.134,1.156,0.196
5.56,-0.118,0.717,0.007
5.57,-0.398,1.15,-0.139
5.58,-0.25,0.887,-0.076
5.59,-0.129,1.11,0.072
5.6,-0.015,0.885,0.154
5.61,-0.283,0.817,-0.023
5.62,-0.365,1.139,-0.112
5.63,-0.22,0.913,-0.02
5.64,-0.168,1.164,0.094
5.65,-0.122,0.667,0.097
5.66,-0.351,1.093,-0.02
5.67,-0.242,0.953,-0.177
5.68,-0.149,0.923,-0.058
5.69,-0.171,1.058,0.19
5.7,-0.107,0.727,0.076
5.71,-0.43,1.15,-0.113
5.72,-0.198,0.792,-0.119
5.73,-0.234,1.283,0.103
5.74,0.026,0.808,0.101
5.75,-0.231,0.85,0.026
5.76,-0.335,1.085,-0.147
5.77,-0.131,0.945,-0.08
5.78,-0.174,1.194,0.037
5.79,-0.058,0.589,0.147
5.8,-0.328,1.129,0.009
5.81,-0.278,0.837,-0.165
5.82,-0.199,1.006,-0.084
5.83,-0.126,1.031,0.119
5.84,-0.101,0.801,0.124
5.85,-0.367,1.136,-0.088
5.86,-0.203,0.711,-0.132
5.87,-0.193,1.233,0.006
5.88,-0.033,0.852,0.146
5.89,-0.225,1.105,0.047
5.9,-0.316,0.807,-0.17
5.91,-0.246,1.083,-0.086
5.92,-0.121,1.084,0.053
5.93,-0.083,0.795,0.151
5.94,-0.299,1.06,0.006
5.95,-0.35,0.814,-0.119
5.96,-0.256,1.207,-0.05
5.97,-0.083,0.82,0.063
5.98,-0.168,0.996,0.12
5.99,-0.324,0.935,-0.073
6.0,-0.243,0.963,-0.112
6.01,-0.243,1.068,-0.054
6.02,-0.098,0.755,0.151
6.03,-0.212,1.157,0.135
6.04,-0.326,0.824,-0.129
6.05,-0.311,1.074,-0.131
6.06,-0.206,0.986,0.053
6.07,-0.044,1.012,0.135
6.08,-0.188,0.937,0.025
6.09,-0.297,0.863,-0.133
6.1,-0.232,1.223,-0.07
6.11,-0.063,0.869,0.06
6.12,-0.116,1.002,0.133
6.13,-0.23,0.846,-0.034
6.14,-0.322,1.098,-0.171
6.15,-0.173,1.02,-0.051
6.16,-0.163,0.901,0.116
6.17,-0.169,0.964,0.125
6.18,-0.333,0.875,-0.053
6.19,-0.285,1.209,-0.125
6.2,-0.152,0.817,-0.051
6.21,-0.144,1.044,0.187
6.22,-0.118,0.875,0.025
6.23,-0.335,0.998,-0.162
6.24,-0.245,1.084,-0.081
6.25,-0.113,0.963,0.059
6.26,-0.133,1.007,0.128
6.27,-0.202,0.736,-0.02
6.28,-0.372,1.191,-0.145
6.29,-0.19,0.947,-0.044
6.3,-0.126,1.008,0.057
6.31,-0.087,0.83,0.15
6.32,-0.364,0.889,-0.057
6.33,-0.306,1.168,-0.154
6.34,-0.157,0.833,-0.034
6.35,-0.143,1.092,0.132
6.36,-0.175,0.747,0.107
6.37,-0.364,1.091,-0.137
6.38,-0.26,0.959,-0.102
6.39,-0.153,0.993,0.016
6.4,-0.101,1.045,0.194
6.41,-0.206,0.719,-0.009
6.42,-0.346,1.17,-0.138
6.43,-0.215,0.932,-0.039
6.44,-0.117,1.189,0.049
6.45,-0.04,0.702,0.117
6.46,-0.323,0.957,-0.026
6.47,-0.371,1.077,-0.079
6.48,-0.131,0.86,-0.059
6.49,-0.145,1.109,0.106
6.5,-0.175,0.692,0.152
6.51,-0.363,1.177,-0.096
6.52,-0.271,0.813,-0.175
6.53,-0.204,1.052,-0.003
6.54,-0.049,0.999,0.173
6.55,-0.148,0.806,0.029
6.56,-0.346,1.108,-0.141
6.57,-0.213,0.879,-0.053
6.58,-0.073,1.279,0.041
6.59,-0.101,0.672,0.167
6.6,-0.269,0.986,-0.013
6.61,-0.359,0.995,-0.122
6.62,-0.135,0.994,-0.075
6.63,-0.155,1.035,0.08
6.64,-0.146,0.679,0.147
6.65,-0.366,1.181,-0.041
6.66,-0.282,0.765,-0.153
6.67,-0.206,1.075,-0.026
6.68,-0.103,0.884,0.171
6.69,-0.18,1.034,0.075
6.7,-0.322,0.887,-0.162
6.71,-0.259,0.942,-0.076
6.72,-0.155,1.137,0.086
6.73,-0.002,0.787,0.135
6.74,-0.314,1.065,0.024
6.75,-0.354,0.784,-0.107
6.76,-0.194,1.208,-0.045
6.77,-0.093,0.892,0.071
6.78,-0.107,0.917,0.117
6.79,-0.366,1.035,-0.028
6.8,-0.28,0.902,-0.167
6.81,-0.183,1.097,-0.057
6.82,-0.109,0.762,0.155
6.83,-0.206,1.109,0.113
6.84,-0.262,0.834,-0.159
6.85,-0.267,1.057,-0.097
6.86,-0.205,1.036,0.055
6.87,-0.021,0.868,0.139
6.88,-0.263,1.018,0.052
6.89,-0.355,0.843,-0.098
6.9,-0.198,1.26,-0.108
6.91,-0.101,0.819,0.034
6.92,-0.071,0.969,0.143
6.93,-0.282,0.907,-0.021
6.94,-0.285,1.04,-0.145
6.95,-0.209,1.032,-0.051
6.96,-0.081,0.837,0.101
6.97,-0.183,1.087,0.169
6.98,-0.262,0.835,-0.134
6.99,-0.311,1.161,-0.136
7.0,-0.201,0.924,-0.001
7.01,-0.068,0.985,0.179
7.02,-0.16,0.915,0.068
7.03,-0.352,0.923,-0.146
7.04,-0.324,1.205,-0.031
7.05,-0.045,0.868,-0.016
7.06,-0.097,1.036,0.136
7.07,-0.25,0.785,-0.015
7.08,-0.332,1.154,-0.136
7.09,-0.201,0.99,-0.103
7.1,-0.161,0.894,0.1
7.11,-0.135,0.962,0.182
7.12,-0.284,0.846,-0.079
7.13,-0.364,1.156,-0.132
7.14,-0.127,0.812,-0.074
7.15,-0.166,1.113,0.211
7.16,-0.081,0.815,0.061
7.17,-0.376,0.996,-0.136
7.18,-0.258,1.003,-0.115
7.19,-0.15,1.01,0.053
7.2,-0.097,1.066,0.149
7.21,-0.163,0.693,0.014
7.22,-0.352,1.177,-0.123
7.23,-0.171,0.993,-0.057
7.24,-0.119,1.11,0.047
7.25,-0.132,0.741,0.13
7.26,-0.266,0.915,-0.022
7.27,-0.295,1.182,-0.152
7.28,-0.131,0.837,-0.093
7.29,-0.153,1.059,0.119
7.3,-0.122,0.695,0.14
7.31,-0.395,1.148,-0.102
7.32,-0.22,0.917,-0.18
7.33,-0.179,0.969,0.006
7.34,-0.158,1.053,0.2
7.35,-0.153,0.763,0.027
7.36,-0.348,1.14,-0.14
7.37,-0.235,0.807,-0.064
7.38,-0.066,1.271,0.027
7.39,-0.058,0.768,0.144
7.4,-0.257,0.925,0.011
7.41,-0.387,1.039,-0.087
7.42,-0.112,0.969,-0.073
7.43,-0.19,1.12,0.052
7.44,-0.074,0.603,0.156
7.45,-0.37,1.195,-0.03
7.46,-0.308,0.831,-0.162
7.47,-0.281,1.032,-0.004
7.48,-0.126,0.94,0.137
7.49,-0.114,0.975,0.059
7.5,-0.358,0.949,-0.117
7.51,-0.258,0.832,-0.065
7.52,-0.213,1.262,0.076
7.53,0.031,0.761,0.129
7.54,-0.281,1.063,0.048
7.55,-0.337,0.789,-0.137
7.56,-0.226,1.186,-0.056
7.57,-0.113,0.976,0.068
7.58,-0.081,0.797,0.133
7.59,-0.32,1.064,-0.016
7.6,-0.307,0.866,-0.162
7.61,-0.179,1.179,-0.06
7.62,-0.058,0.756,0.094
7.63,-0.198,1.071,0.135
7.64,-0.317,0.921,-0.084
7.65,-0.394,0.998,-0.133
7.66,-0.199,0.984,-0.028
7.67,-0.042,0.913,0.163
7.68,-0.29,1.08,0.072
7.69,-0.333,0.749,-0.15
7.7,-0.269,1.164,-0.089
7.71,-0.028,0.963,0.084
7.72,-0.022,0.977,0.085
7.73,-0.239,0.928,0.019
7.74,-0.373,0.949,-0.123
7.75,-0.094,1.205,-0.086
7.76,-0.089,0.772,0.067
7.77,-0.15,1.018,0.149
7.78,-0.265,0.867,-0.03
7.79,-0.346,1.145,-0.151
7.8,-0.162,0.858,-0.047
7.81,-0.127,0.976,0.159
7.82,-0.12,1.022,0.104
7.83,-0.264,0.861,-0.172
7.84,-0.307,1.12,-0.094
7.85,-0.179,0.911,0.026
7.86,-0.015,1.121,0.125
7.87,-0.194,0.781,-0.002
7.88,-0.339,1.02,-0.16
7.89,-0.234,1.169,-0.02
7.9,-0.056,0.92,0.01
7.91,-0.116,0.935,0.157
7.92,-0.274,0.806,-0.028
7.93,-0.38,1.271,-0.136
7.94,-0.147,0.87,-0.085
7.95,-0.146,0.958,0.105
7.96,-0.168,0.858,0.18
7.97,-0.344,0.963,-0.088
7.98,-0.339,1.065,-0.13
7.99,-0.198,0.804,-0.02
8.0,-0.187,1.156,0.198
8.01,-0.102,0.762,0.042
8.02,-0.311,1.072,-0.151
8.03,-0.251,0.913,-0.112
8.04,-0.185,1.113,0.123
8.05,-0.013,0.992,0.112
8.06,-0.22,0.763,0.007
8.07,-0.448,1.177,-0.146
8.08,-0.16,0.889,-0.041
8.09,-0.109,1.191,0.04
8.1,-0.01,0.65,0.094
8.11,-0.368,1.042,-0.033
8.12,-0.335,1.031,-0.128
8.13,-0.105,0.904,-0.061
8.14,-0.175,1.067,0.12
8.15,-0.177,0.677,0.158
8.16,-0.288,1.213,-0.108
8.17,-0.253,0.81,-0.138
8.18,-0.257,1.125,0.013
8.19,-0.054,0.93,0.177
8.2,-0.123,0.846,0.006
8.21,-0.392,1.093,-0.14
8.22,-0.209,0.874,-0.062
8.23,-0.094,1.303,0.069
8.24,-0.047,0.654,0.15
8.25,-0.292,1.036,0.01
8.26,-0.282,0.941,-0.13
8.27,-0.276,1.024,-0.043
8.28,-0.13,1.009,0.087
8.29,-0.146,0.947,0.16
8.3,-0.335,1.081,-0.082
8.31,-0.249,0.791,-0.113
8.32,-0.278,1.178,-0.005
8.33,-0.052,0.84,0.207
8.34,-0.165,1.091,0.041
8.35,-0.324,0.821,-0.142
8.36,-0.258,1.0,-0.059
8.37,-0.11,1.122,0.085
8.38,-0.05,0.77,0.128
8.39,-0.284,1.08,0.033
8.4,-0.335,0.815,-0.111
8.41,-0.197,1.24,-0.059
8.42,-0.095,0.781,0.085
8.43,-0.096,0.958,0.137
8.44,-0.341,0.996,-0.027
8.45,-0.303,0.921,-0.183
8.46,-0.242,1.037,-0.055
8.47,-0.103,0.854,0.164
8.48,-0.162,1.131,0.117
8.49,-0.248,0.813,-0.099
8.5,-0.292,1.08,-0.147
8.51,-0.149,1.062,-0.072
8.52,-0.134,0.929,0.118
8.53,-0.14,0.806,0.134
8.54,-0.352,1.164,-0.053
8.55,-0.264,0.786,-0.165
8.56,-0.223,1.153,-0.035
8.57,-0.06,0.827,0.158
8.58,-0.208,1.036,0.085
8.59,-0.303,0.886,-0.135
8.6,-0.22,0.927,-0.107
8.61,-0.145,1.164,0.035
8.62,-0.017,0.773,0.136
8.63,-0.275,1.088,0.02
8.64,-0.347,0.758,-0.133
8.65,-0.228,1.2,-0.055
8.66,-0.095,0.918,0.081
8.67,-0.096,0.909,0.149
8.68,-0.38,1.035,-0.01
8.69,-0.27,0.863,-0.163
8.7,-0.191,1.157,-0.057
8.71,-0.079,0.786,0.139
8.72,-0.202,1.117,0.14
8.73,-0.271,0.851,-0.1
8.74,-0.285,0.99,-0.116
8.75,-0.252,1.023,0.032
8.76,-0.051,0.872,0.151
8.77,-0.224,1.052,0.036
8.78,-0.309,0.816,-0.104
8.79,-0.282,1.214,-0.126
8.8,-0.037,0.867,-0.001
8.81,-0.089,1.009,0.149
8.82,-0.195,0.866,0.009
8.83,-0.333,0.993,-0.15
8.84,-0.232,1.117,-0.025
8.85,-0.105,0.907,0.105
8.86,-0.167,0.939,0.153
8.87,-0.298,0.889,-0.032
8.88,-0.362,1.229,-0.168
8.89,-0.177,0.763,-0.038
8.9,-0.134,1.096,0.149
8.91,-0.121,0.817,0.071
8.92,-0.386,1.012,-0.145
8.93,-0.248,0.973,-0.134
8.94,-0.094,0.921,0.077
8.95,-0.38,1.164,0.431
8.96,-0.217,0.709,0.051
8.97,-0.426,1.154,-0.136
8.98,-0.127,0.916,-0.102
8.99,-0.032,1.13,-0.016
9.0,0.019,0.743,-0.015
9.01,-0.243,0.928,-0.006
9.02,-0.359,1.182,-0.133
9.03,-0.099,0.836,-0.078
9.04,-0.261,1.124,0.088
9.05,-0.125,0.665,0.106
9.06,-0.357,1.133,-0.08
9.07,-0.259,0.92,-0.142
9.08,-0.218,0.964,-0.004
9.09,-0.067,1.007,0.189
9.1,-0.119,0.791,0.065
9.11,-0.37,1.146,-0.149
9.12,-0.251,0.839,-0.094
9.13,-0.104,1.266,0.063
9.14,-0.059,0.747,0.167
9.15,-0.265,0.937,-0.0
9.16,-0.362,1.062,-0.132
9.17,-0.162,0.944,-0.083
9.18,-0.091,1.124,0.036
9.19,-0.044,0.628,0.136
9.2,-0.366,1.167,-0.049
9.21,-0.274,0.835,-0.134
9.22,-0.2,1.049,-0.051
9.23,-0.16,0.921,0.181
9.24,-0.124,0.842,0.1
9.25,-0.377,1.098,-0.12
9.26,-0.229,0.739,-0.119
9.27,-0.17,1.255,-0.014
9.28,-0.057,0.78,0.165
9.29,-0.173,1.028,0.027
9.3,-0.342,0.887,-0.144
9.31,-0.219,1.02,-0.074
9.32,-0.079,1.11,0.041
9.33,-0.042,0.698,0.13
9.34,-0.358,1.129,-0.003
9.35,-0.311,0.808,-0.135
9.36,-0.184,1.144,-0.057
9.37,-0.098,0.84,0.098
9.38,-0.169,0.914,0.141
9.39,-0.332,1.039,-0.043
9.4,-0.235,0.823,-0.121
9.41,-0.231,1.142,-0.015
9.42,-0.042,0.81,0.155
9.43,-0.225,1.133,0.079
9.44,-0.286,0.821,-0.159
9.45,-0.225,1.071,-0.093
9.46,-0.217,1.025,0.081
9.47,0.015,0.823,0.177
9.48,-0.265,1.033,0.003
9.49,-0.334,0.818,-0.109
9.5,-0.268,1.26,-0.015
9.51,-0.054,0.802,0.037
9.52,-0.111,0.947,0.129
9.53,-0.326,0.923,-0.082
9.54,-0.271,1.031,-0.144
9.55,-0.175,1.021,-0.061
9.56,-0.087,0.808,0.183
9.57,-0.193,1.124,0.132
9.58,-0.317,0.809,-0.135
9.59,-0.25,1.151,-0.124
9.6,-0.166,0.964,0.01
9.61,-0.075,0.962,0.169
9.62,-0.191,0.92,0.019
9.63,-0.344,0.898,-0.144
9.64,-0.256,1.174,-0.021
9.65,-0.091,0.884,0.07
9.66,-0.165,0.988,0.159
9.67,-0.318,0.807,-0.037
9.68,-0.339,1.227,-0.151
9.69,-0.187,0.834,-0.069
9.7,-0.16,1.055,0.146
9.71,-0.113,0.888,0.102
9.72,-0.351,0.934,-0.105
9.73,-0.234,1.045,-0.131
9.74,-0.15,0.948,0.021
9.75,-0.118,1.112,0.154
9.76,-0.124,0.697,0.05
9.77,-0.358,1.151,-0.128
9.78,-0.214,1.004,-0.054
9.79,-0.176,1.016,0.063
9.8,-0.05,0.85,0.177
9.81,-0.238,0.856,0.006
9.82,-0.379,1.19,-0.146
9.83,-0.204,0.82,-0.071
9.84,-0.132,1.143,0.111
9.85,-0.105,0.698,0.11
9.86,-0.382,1.047,-0.046
9.87,-0.301,0.969,-0.16
9.88,-0.09,0.892,-0.021
9.89,-0.123,1.117,0.175
9.9,-0.18,0.704,0.075
9.91,-0.359,1.146,-0.115
9.92,-0.23,0.856,-0.104
9.93,-0.15,1.211,0.033
9.94,-0.058,0.871,0.125
9.95,-0.212,0.848,0.022
9.96,-0.362,1.08,-0.14
9.97,-0.195,0.907,-0.031
9.98,-0.114,1.22,0.075
9.99,-0.102,0.594,0.131
10.0,-0.326,1.063,-0.031
10.01,-0.284,0.946,-0.087
10.02,-0.147,1.051,-0.043
10.03,-0.176,0.965,0.122
10.04,-0.135,0.781,0.134
10.05,-0.376,1.189,-0.121
10.06,-0.299,0.745,-0.137
10.07,-0.208,1.19,-0.001
10.08,0.005,0.85,0.18
10.09,-0.158,0.978,0.014
10.1,-0.334,0.951,-0.16
10.11,-0.233,0.913,-0.059
10.12,-0.114,1.198,-0.019
10.13,-0.037,0.674,0.151
10.14,-0.326,1.115,-0.02
10.15,-0.335,0.8,-0.1
10.16,-0.195,1.118,-0.087
10.17,-0.105,0.912,0.111
10.18,-0.102,0.845,0.128
10.19,-0.353,1.116,-0.054
10.2,-0.26,0.803,-0.13
10.21,-0.254,1.165,-0.024
10.22,-0.048,0.797,0.152
10.23,-0.208,1.105,0.082
10.24,-0.335,0.866,-0.135
10.25,-0.286,0.988,-0.062
10.26,-0.213,1.134,0.089
10.27,-0.015,0.733,0.127
10.28,-0.263,1.067,0.009
10.29,-0.319,0.829,-0.119
10.3,-0.253,1.238,-0.066
10.31,-0.113,0.815,0.036
10.32,-0.074,0.903,0.148
10.33,-0.324,0.983,-0.056
10.34,-0.305,0.948,-0.17
10.35,-0.223,1.082,-0.055
10.36,-0.054,0.8,0.129
10.37,-0.245,1.122,0.124
10.38,-0.267,0.825,-0.097
10.39,-0.254,1.083,-0.148
10.4,-0.162,0.969,0.012
10.41,-0.085,0.974,0.187
10.42,-0.139,1.007,0.03
10.43,-0.359,0.817,-0.148
10.44,-0.235,1.208,-0.047
10.45,-0.056,0.914,0.058
10.46,-0.125,0.987,0.146
10.47,-0.248,0.792,-0.023
10.48,-0.37,1.198,-0.178
10.49,-0.087,0.931,-0.088
10.5,-0.141,0.984,0.104
10.51,-0.167,0.873,0.136
10.52,-0.302,0.913,-0.061
10.53,-0.287,1.145,-0.141
10.54,-0.224,0.796,-0.034
10.55,-0.092,1.123,0.17
10.56,-0.129,0.775,0.06
10.57,-0.385,1.055,-0.148
10.58,-0.205,0.946,-0.1
10.59,-0.095,1.041,0.038
10.6,-0.067,0.978,0.109
10.61,-0.251,0.76,-0.001
10.62,-0.381,1.176,-0.128
10.63,-0.156,0.901,-0.051
10.64,-0.085,1.143,0.06
10.65,-0.089,0.79,0.13
10.66,-0.336,0.957,-0.056
10.67,-0.333,1.083,-0.104
10.68,-0.085,0.875,-0.072
10.69,-0.191,1.08,0.13
10.7,-0.118,0.706,0.114
10.71,-0.372,1.187,-0.109
10.72,-0.291,0.854,-0.109
10.73,-0.16,1.087,0.01
10.74,-0.066,0.961,0.188
10.75,-0.181,0.773,-0.003
10.76,-0.395,1.129,-0.148
10.77,-0.223,0.842,-0.062
10.78,-0.121,1.245,0.073
10.79,-0.057,0.675,0.157
10.8,-0.271,1.003,-0.035
10.81,-0.367,0.955,-0.097
10.82,-0.147,0.982,-0.077
10.83,-0.139,1.057,0.107
10.84,-0.106,0.702,0.142
10.85,-0.374,1.191,-0.08
10.86,-0.306,0.825,-0.125
10.87,-0.24,1.102,0.003
10.88,-0.049,0.88,0.178
10.89,-0.208,0.913,0.056
10.9,-0.356,1.038,-0.135
10.91,-0.253,0.879,-0.097
10.92,-0.128,1.252,0.081
10.93,-0.011,0.643,0.185
10.94,-0.289,1.099,0.008
10.95,-0.358,0.888,-0.13
10.96,-0.247,1.091,-0.08
10.97,-0.131,0.955,0.071
10.98,-0.084,0.791,0.121
10.99,-0.373,1.129,-0.059
11.0,-0.237,0.786,-0.167
11.01,-0.231,1.144,-0.049
11.02,-0.126,0.773,0.154
11.03,-0.114,1.044,0.104
11.04,-0.339,0.932,-0.122
11.05,-0.267,0.847,-0.116
11.06,-0.302,1.165,0.031
11.07,-0.029,0.806,0.176
11.08,-0.218,1.112,0.024
11.09,-0.35,0.776,-0.155
11.1,-0.221,1.175,-0.046
11.11,-0.062,0.97,0.068
11.12,-0.112,0.816,0.143
11.13,-0.274,1.03,-0.003
11.14,-0.296,0.894,-0.146
11.15,-0.251,1.151,-0.064
11.16,-0.119,0.747,0.088
11.17,-0.16,1.09,0.164
11.18,-0.281,0.896,-0.114
11.19,-0.294,1.012,-0.131
11.2,-0.218,1.019,-0.023
11.21,-0.053,0.874,0.182
11.22,-0.152,1.065,0.066
11.23,-0.399,0.827,-0.137
11.24,-0.268,1.192,-0.081
11.25,-0.122,0.865,0.08
11.26,-0.098,0.971,0.139
11.27,-0.295,0.836,-0.012
11.28,-0.319,1.168,-0.149
11.29,-0.15,0.967,-0.08
11.3,-0.177,0.881,0.108
11.31,-0.104,0.952,0.152
11.32,-0.331,0.894,-0.102
11.33,-0.326,1.124,-0.144
11.34,-0.183,0.84,-0.028
11.35,-0.095,1.076,0.176
11.36,-0.11,0.835,0.06
11.37,-0.336,0.993,-0.15
11.38,-0.278,1.053,-0.097
11.39,-0.075,0.968,0.068
11.4,-0.084,1.012,0.159
11.41,-0.239,0.754,-0.027
11.42,-0.356,1.23,-0.146
11.43,-0.119,0.923,-0.098
11.44,-0.171,1.022,0.083
11.45,-0.082,0.795,0.118
11.46,-0.328,0.946,-0.032
11.47,-0.355,1.157,-0.114
11.48,-0.205,0.823,-0.051
11.49,-0.146,1.148,0.139
11.5,-0.083,0.741,0.093
11.51,-0.357,1.073,-0.136
11.52,-0.268,0.86,-0.13
11.53,-0.216,1.072,0.112
11.54,-0.077,0.995,0.156
11.55,-0.173,0.749,0.009
11.56,-0.417,1.184,-0.142
11.57,-0.212,0.867,-0.081
11.58,-0.165,1.187,0.119
11.59,-0.1,0.678,0.156
11.6,-0.279,0.998,-0.036
11.61,-0.354,1.084,-0.112
11.62,-0.187,0.893,-0.066
11.63,-0.159,1.084,0.095
11.64,-0.121,0.709,0.152
11.65,-0.374,1.176,-0.094
11.66,-0.253,0.779,-0.149
11.67,-0.271,1.062,-0.02
11.68,-0.027,0.976,0.191
11.69,-0.119,0.837,0.06
11.7,-0.34,1.053,-0.163
11.71,-0.232,0.844,-0.061
11.72,-0.092,1.262,0.014
11.73,-0.015,0.617,0.142
11.74,-0.309,1.036,0.015
11.75,-0.344,0.97,-0.115
11.76,-0.21,1.049,-0.072
11.77,-0.158,1.033,0.113
11.78,-0.058,0.701,0.136
11.79,-0.402,1.185,-0.021
11.8,-0.181,0.832,-0.189
11.81,-0.266,1.171,-0.03
11.82,-0.08,0.807,0.124
11.83,-0.172,0.984,0.137
11.84,-0.3,1.0,-0.136
11.85,-0.239,0.79,-0.122
11.86,-0.282,1.192,0.035
11.87,-0.028,0.784,0.169
11.88,-0.237,1.08,0.021
11.89,-0.262,0.831,-0.123
11.9,-0.31,1.128,-0.086
11.91,-0.053,0.956,-0.007
11.92,-0.05,0.802,0.159
11.93,-0.329,1.057,-0.006
11.94,-0.338,0.823,-0.116
11.95,-0.268,1.233,-0.05
11.96,-0.102,0.742,0.06
11.97,-0.184,1.057,0.164
11.98,-0.262,0.916,-0.063
11.99,-0.309,0.953,-0.132
12.0,-0.176,1.017,-0.02
12.01,-0.082,0.86,0.153
12.02,-0.213,1.111,0.089
12.03,-0.237,0.789,-0.145
12.04,-0.298,1.147,-0.101
12.05,-0.129,0.918,0.074
12.06,-0.071,1.081,0.128
12.07,-0.171,0.809,-0.002
12.08,-0.361,1.061,-0.119
12.09,-0.194,1.064,-0.066
12.1,-0.043,0.894,0.071
12.11,-0.172,0.983,0.149
12.12,-0.266,0.805,-0.055
12.13,-0.375,1.24,-0.134
12.14,-0.145,0.837,-0.066
12.15,-0.173,0.972,0.113
12.16,-0.177,0.847,0.176
12.17,-0.325,0.975,-0.094
12.18,-0.308,1.067,-0.139
12.19,-0.17,0.792,0.035
12.2,-0.094,1.121,0.171
12.21,-0.155,0.798,0.05
12.22,-0.363,1.128,-0.16
12.23,-0.254,0.89,-0.101
12.24,-0.1,1.082,0.033
12.25,-0.04,0.995,0.134
12.26,-0.264,0.752,-0.02
12.27,-0.372,1.161,-0.138
12.28,-0.148,0.901,-0.015
12.29,-0.096,1.152,0.065
12.3,-0.096,0.701,0.084
12.31,-0.385,1.057,-0.025
12.32,-0.304,1.012,-0.149
12.33,-0.151,0.881,-0.046
12.34,-0.209,1.08,0.179
12.35,-0.093,0.698,0.101
12.36,-0.372,1.175,-0.114
12.37,-0.253,0.819,-0.13
12.38,-0.189,1.189,0.094
12.39,-0.029,0.865,0.152
12.4,-0.249,0.854,0.058
12.41,-0.355,1.077,-0.149
12.42,-0.226,0.917,-0.062
12.43,-0.023,1.212,0.033
12.44,-0.092,0.671,0.17
12.45,-0.325,1.07,-0.026
12.46,-0.367,0.904,-0.112
12.47,-0.214,1.029,-0.06
12.48,-0.054,0.969,0.066
12.49,-0.164,0.786,0.127
12.5,-0.445,1.153,-0.034
12.51,-0.223,0.743,-0.15
12.52,-0.204,1.158,-0.009
12.53,-0.057,0.841,0.135
12.54,-0.224,1.009,0.1
12.55,-0.304,0.98,-0.125
12.56,-0.266,0.849,-0.117
12.57,-0.192,1.195,0.109
12.58,-0.005,0.792,0.14
12.59,-0.301,1.051,0.034
12.6,-0.337,0.792,-0.138
12.61,-0.201,1.181,-0.05
12.62,-0.094,0.947,0.037
12.63,-0.064,0.765,0.131
12.64,-0.263,1.088,-0.023
12.65,-0.368,0.894,-0.127
12.66,-0.175,1.128,-0.061
12.67,-0.1,0.806,0.121
12.68,-0.179,1.064,0.129
12.69,-0.331,0.923,-0.08
12.7,-0.271,0.998,-0.157
12.71,-0.249,0.995,0.014
12.72,-0.076,0.842,0.158
12.73,-0.259,1.111,0.124
12.74,-0.27,0.778,-0.214
12.75,-0.251,1.124,-0.116
12.76,-0.139,0.96,0.127
12.77,-0.012,1.007,0.125
12.78,-0.249,0.876,-0.022
12.79,-0.384,0.913,-0.1
12.8,-0.193,1.191,-0.089
12.81,-0.081,0.819,0.058
12.82,-0.119,1.071,0.099
12.83,-0.273,0.833,-0.036
12.84,-0.341,1.121,-0.151
12.85,-0.129,0.823,-0.031
12.86,-0.097,1.075,0.186
12.87,-0.094,0.881,0.082
12.88,-0.341,0.946,-0.116
12.89,-0.298,1.106,-0.12
12.9,-0.179,0.929,0.055
12.91,-0.067,1.075,0.137
12.92,-0.196,0.735,0.022
12.93,-0.387,1.178,-0.145
12.94,-0.166,1.012,-0.089
12.95,-0.118,1.03,0.068
12.96,-0.057,0.801,0.17
12.97,-0.287,0.874,-0.046
12.98,-0.343,1.213,-0.141
12.99,-0.181,0.831,-0.065
13.0,-0.123,1.049,0.111
13.01,-0.19,0.736,0.146
13.02,-0.317,1.063,-0.089
13.03,-0.364,0.956,-0.109
13.04,-0.111,0.914,-0.017
13.05,-0.104,1.1,0.172
13.06,-0.119,0.746,0.033
13.07,-0.378,1.142,-0.166
13.08,-0.19,0.83,-0.109
13.09,-0.13,1.245,0.066
13.1,-0.066,0.8,0.146
13.11,-0.28,0.862,-0.011
13.12,-0.38,1.06,-0.11
13.13,-0.125,0.929,-0.073
13.14,-0.143,1.151,0.1
13.15,-0.089,0.649,0.108
13.16,-0.279,1.136,-0.056
13.17,-0.349,0.878,-0.091
13.18,-0.2,1.006,-0.027
13.19,-0.14,1.004,0.149
13.2,-0.131,0.814,0.109
13.21,-0.393,1.114,-0.114
13.22,-0.229,0.74,-0.127
13.23,-0.222,1.258,-0.006
13.24,-0.01,0.812,0.158
13.25,-0.202,0.977,0.021
13.26,-0.337,0.963,-0.153
13.27,-0.229,0.985,-0.084
13.28,-0.136,1.132,0.035
13.29,-0.001,0.69,0.175
13.3,-0.346,1.146,-0.01
13.31,-0.259,0.789,-0.16
13.32,-0.259,1.154,-0.084
13.33,-0.067,0.887,0.077
13.34,-0.115,0.877,0.153
13.35,-0.321,1.057,-0.117
13.36,-0.223,0.77,-0.124
13.37,-0.275,1.173,0.026
13.38,-0.105,0.788,0.194
13.39,-0.156,1.081,0.058
13.4,-0.309,0.843,-0.118
13.41,-0.274,1.01,-0.118
13.42,-0.08,1.108,0.003
13.43,-0.051,0.798,0.118
13.44,-0.243,1.051,0.027
13.45,-0.343,0.808,-0.123
13.46,-0.237,1.227,-0.04
13.47,-0.136,0.854,0.067
13.48,-0.058,0.944,0.121
13.49,-0.379,0.962,-0.025
13.5,-0.258,0.983,-0.158
13.51,-0.246,1.073,-0.076
13.52,-0.11,0.753,0.138
13.53,-0.162,1.108,0.152
13.54,-0.272,0.846,-0.115
13.55,-0.357,1.106,-0.108
13.56,-0.196,0.907,0.001
13.57,-0.067,0.969,0.182
13.58,-0.21,0.976,0.028
13.59,-0.324,0.832,-0.14
13.6,-0.289,1.215,-0.057
13.61,0.008,0.904,0.005
13.62,-0.085,1.002,0.141
13.63,-0.212,0.804,0.012
13.64,-0.335,1.22,-0.134
13.65,-0.207,0.899,-0.079
13.66,-0.058,0.956,0.086
13.67,-0.146,0.901,0.143
13.68,-0.351,0.953,-0.078
13.69,-0.387,1.153,-0.122
13.7,-0.145,0.778,-0.029
13.71,-0.121,1.149,0.194
13.72,-0.117,0.76,0.055
13.73,-0.377,1.04,-0.121
13.74,-0.171,0.936,-0.11
13.75,-0.154,1.057,0.031
13.76,-0.071,0.938,0.136
13.77,-0.241,0.748,0.059
13.78,-0.339,1.17,-0.158
13.79,-0.237,0.893,-0.064
13.8,-0.119,1.167,0.065
13.81,-0.015,0.666,0.166
13.82,-0.327,0.997,-0.005
13.83,-0.276,1.073,-0.153
13.84,-0.155,0.89,-0.104
13.85,-0.094,1.126,0.124
13.86,-0.115,0.734,0.126
13.87,-0.412,1.104,-0.119
13.88,-0.293,0.844,-0.092
13.89,-0.118,1.099,-0.027
13.9,-0.098,0.955,0.165
13.91,-0.233,0.824,0.064
13.92,-0.452,1.078,-0.099
13.93,-0.19,0.79,-0.096
13.94,-0.153,1.31,0.07
13.95,-0.106,0.718,0.122
13.96,-0.243,0.992,0.019
13.97,-0.32,0.928,-0.17
13.98,-0.177,1.002,-0.053
13.99,-0.135,1.053,0.062
14.0,-0.073,0.656,0.155
14.01,-0.318,1.157,-0.046
14.02,-0.267,0.816,-0.178
14.03,-0.189,1.105,-0.036
14.04,-0.095,0.867,0.113
14.05,-0.138,0.935,0.132
14.06,-0.372,1.033,-0.107
14.07,-0.264,0.813,-0.109
14.08,-0.262,1.218,0.033
14.09,0.031,0.76,0.145
14.1,-0.235,1.107,0.026
14.11,-0.314,0.803,-0.133
14.12,-0.227,1.084,-0.064
14.13,-0.116,1.095,0.07
14.14,-0.07,0.751,0.133
14.15,-0.249,1.068,-0.0
14.16,-0.299,0.857,-0.114
14.17,-0.263,1.212,-0.053
14.18,-0.081,0.767,0.103
14.19,-0.12,1.01,0.132
14.2,-0.384,0.953,-0.058
14.21,-0.302,0.945,-0.157
14.22,-0.187,1.052,-0.013
14.23,-0.05,0.824,0.137
14.24,-0.229,1.146,0.132
14.25,-0.304,0.801,-0.176
14.26,-0.263,1.111,-0.142
14.27,-0.127,0.975,0.079
14.28,-0.042,1.003,0.133
14.29,-0.23,0.927,0.036
14.3,-0.346,0.871,-0.136
14.31,-0.279,1.249,-0.05
14.32,-0.086,0.811,0.054
14.33,-0.094,0.995,0.129
14.34,-0.338,0.879,-0.006
14.35,-0.293,1.099,-0.175
14.36,-0.194,0.929,-0.088
14.37,-0.116,0.878,0.163
14.38,-0.16,1.044,0.144
14.39,-0.259,0.828,-0.1
14.4,-0.385,1.159,-0.097
14.41,-0.118,0.835,-0.016
14.42,-0.116,1.097,0.167
14.43,-0.156,0.85,0.01
14.44,-0.343,0.95,-0.086
14.45,-0.261,1.018,-0.04
14.46,-0.089,1.03,0.023
14.47,-0.117,0.886,0.17
14.48,-0.167,0.782,-0.039
14.49,-0.443,1.242,-0.132
14.5,-0.112,0.851,-0.07
14.51,-0.102,1.121,0.059
14.52,-0.114,0.743,0.126
14.53,-0.352,1.046,-0.041
14.54,-0.38,1.046,-0.121
14.55,-0.181,0.869,-0.002
14.56,-0.14,1.123,0.156
14.57,-0.104,0.709,0.073
14.58,-0.381,1.139,-0.143
14.59,-0.232,0.78,-0.123
14.6,-0.174,1.152,0.032
14.61,-0.04,0.929,0.129
14.62,-0.176,0.807,0.031
14.63,-0.395,1.125,-0.139
14.64,-0.161,0.887,-0.031
14.65,-0.142,1.26,0.022
14.66,-0.045,0.64,0.134
14.67,-0.333,1.08,-0.004
14.68,-0.394,0.93,-0.107
14.69,-0.156,0.97,-0.092
14.7,-0.156,1.024,0.111
14.71,-0.139,0.736,0.148
14.72,-0.402,1.164,-0.073
14.73,-0.24,0.748,-0.152
14.74,-0.218,1.147,-0.041
14.75,-0.018,0.872,0.169
14.76,-0.193,0.967,0.073
14.77,-0.317,0.965,-0.154
14.78,-0.261,0.87,-0.086
14.79,-0.211,1.248,0.076
14.8,-0.007,0.677,0.139
14.81,-0.302,1.101,0.026
14.82,-0.341,0.838,-0.123
14.83,-0.169,1.109,-0.11
14.84,-0.137,0.925,0.066
14.85,-0.062,0.802,0.141
14.86,-0.377,1.103,0.009
14.87,-0.246,0.845,-0.153
14.88,-0.266,1.205,-0.063
14.89,-0.08,0.798,0.108
14.9,-0.145,1.085,0.151
14.91,-0.247,0.914,-0.144
14.92,-0.307,0.899,-0.119
14.93,-0.229,1.039,-0.016
14.94,0.007,0.871,0.163
14.95,-0.2,1.11,0.065
14.96,-0.3,0.768,-0.153
14.97,-0.282,1.227,-0.071
14.98,-0.111,0.912,0.019
14.99,-0.062,0.881,0.177
15.0,-0.244,0.978,0.002
15.01,-0.385,0.955,-0.121
15.02,-0.24,1.167,-0.084
15.03,-0.112,0.81,0.109
15.04,-0.155,1.035,0.125
15.05,-0.266,0.862,-0.027
15.06,-0.309,1.132,-0.193
15.07,-0.193,0.935,-0.054
15.08,-0.105,0.903,0.115
15.09,-0.185,1.006,0.123
15.1,-0.296,0.86,-0.094
15.11,-0.329,1.164,-0.124
15.12,-0.128,0.827,-0.034
15.13,-0.099,1.096,0.175
15.14,-0.065,0.846,0.042
15.15,-0.375,1.006,-0.131
15.16,-0.262,1.005,-0.079
15.17,-0.091,0.979,0.028
15.18,-0.065,1.07,0.124
15.19,-0.264,0.75,-0.009
15.2,-0.385,1.175,-0.15
15.21,-0.124,0.971,-0.066
15.22,-0.15,1.054,0.075
15.23,-0.103,0.823,0.134
15.24,-0.321,0.935,-0.023
15.25,-0.293,1.002,-0.122
15.26,-0.189,0.922,-0.077
15.27,-0.177,1.082,0.195
15.28,-0.074,0.728,0.054
15.29,-0.394,1.187,-0.102
15.3,-0.242,0.783,-0.14
15.31,-0.253,1.151,0.084
15.32,-0.012,0.892,0.13
15.33,-0.205,0.865,0.023
15.34,-0.363,1.038,-0.16
15.35,-0.225,0.852,-0.068
15.36,-0.151,1.203,0.056
15.37,-0.039,0.68,0.158
15.38,-0.327,1.045,-0.022
15.39,-0.365,0.885,-0.14
15.4,-0.174,1.047,-0.062
15.41,-0.065,1.031,0.105
15.42,-0.118,0.77,0.1
15.43,-0.391,1.146,-0.037
15.44,-0.312,0.779,-0.151
15.45,-0.16,1.141,-0.014
15.46,-0.057,0.825,0.12
15.47,-0.167,0.973,0.092
15.48,-0.349,0.991,-0.115
15.49,-0.254,0.897,-0.105
15.5,-0.076,1.15,-0.011
15.51,0.055,0.765,0.089
15.52,-0.193,1.114,0.029
15.53,-0.38,0.794,-0.111
15.54,-0.205,1.111,-0.118
15.55,-0.023,1.016,0.042
15.56,-0.085,0.89,0.14
15.57,-0.256,0.995,0.009
15.58,-0.361,0.843,-0.122
15.59,-0.157,1.221,-0.079
15.6,-0.052,0.813,0.093
15.61,-0.144,1.0,0.104
15.62,-0.282,0.942,-0.047
15.63,-0.299,1.046,-0.135
15.64,-0.165,0.991,-0.047
15.65,-0.113,0.81,0.139
15.66,-0.178,1.108,0.098
15.67,-0.353,0.857,-0.081
15.68,-0.297,1.148,-0.168
15.69,-0.111,0.828,0.012
15.7,-0.233,1.062,0.172
15.71,-0.175,0.943,0.019
15.72,-0.397,0.899,-0.167
15.73,-0.23,1.098,-0.077
15.74,-0.06,0.91,0.066
15.75,-0.146,1.04,0.166
15.76,-0.255,0.754,-0.019
15.77,-0.358,1.15,-0.121
15.78,-0.17,0.994,-0.055
15.79,-0.106,0.928,0.099
15.8,-0.233,0.918,0.148
15.81,-0.288,0.903,-0.055
15.82,-0.274,1.195,-0.152
15.83,-0.16,0.833,-0.025
15.84,-0.167,1.091,0.183
15.85,-0.122,0.811,0.051
15.86,-0.326,1.027,-0.14
15.87,-0.257,1.008,-0.119
15.88,-0.169,1.006,0.063
15.89,-0.035,1.016,0.136
15.9,-0.221,0.761,0.042
15.91,-0.356,1.175,-0.157
15.92,-0.182,0.93,-0.066
15.93,-0.121,1.12,0.079
15.94,-0.101,0.75,0.109
15.95,-0.305,0.966,-0.007
15.96,-0.394,1.156,-0.136
15.97,-0.142,0.809,-0.067
15.98,-0.08,1.121,0.131
15.99,-0.132,0.75,0.115
16.0,-0.353,1.1,-0.09
16.01,-0.282,0.882,-0.15
16.02,-0.124,1.063,-0.02
16.03,-0.143,0.989,0.143
16.04,-0.165,0.787,0.06
16.05,-0.366,1.05,-0.121
16.06,-0.184,0.857,-0.067
16.07,-0.138,1.269,0.099
16.08,-0.026,0.686,0.152
16.09,-0.322,1.079,0.002
16.1,-0.315,0.877,-0.152
16.11,-0.125,1.137,-0.097
16.12,-0.182,0.952,0.096
16.13,-0.113,0.74,0.124
16.14,-0.336,1.147,-0.049
16.15,-0.225,0.83,-0.159
16.16,-0.224,1.117,-0.039
16.17,-0.045,0.784,0.153
16.18,-0.198,1.04,0.088
16.19,-0.324,0.941,-0.139
16.2,-0.264,0.875,-0.114
16.21,-0.152,1.154,0.029
16.22,-0.05,0.805,0.161
16.23,-0.27,1.08,0.06
16.24,-0.371,0.805,-0.132
16.25,-0.184,1.172,-0.084
16.26,-0.022,0.908,-0.007
16.27,-0.072,0.854,0.154
16.28,-0.27,1.035,-0.023
16.29,-0.301,0.894,-0.153
16.3,-0.234,1.141,-0.057
16.31,-0.059,0.78,0.101
16.32,-0.22,1.123,0.166
16.33,-0.356,0.851,-0.081
16.34,-0.235,1.015,-0.18
16.35,-0.19,1.006,0.008
16.36,-0.043,0.893,0.15
16.37,-0.225,1.083,0.096
16.38,-0.265,0.795,-0.15
16.39,-0.272,1.186,-0.104
16.4,-0.164,0.9,0.072
16.41,-0.077,0.969,0.166
16.42,-0.219,0.89,-0.009
16.43,-0.355,0.976,-0.144
16.44,-0.146,1.159,-0.062
16.45,-0.095,0.835,0.051
16.46,-0.119,0.995,0.127
16.47,-0.284,0.829,-0.039
16.48,-0.338,1.216,-0.155
16.49,-0.155,0.859,-0.04
16.5,-0.128,0.943,0.173
16.51,-0.181,0.974,0.129
16.52,-0.375,0.87,-0.082
16.53,-0.307,1.125,-0.117
16.54,-0.201,0.893,0.064
16.55,-0.108,1.129,0.166
16.56,-0.192,0.76,0.026
16.57,-0.385,1.046,-0.137
16.58,-0.177,1.086,-0.054
16.59,-0.073,0.995,0.023
16.6,-0.101,0.893,0.173
16.61,-0.282,0.821,-0.028
16.62,-0.323,1.248,-0.122
16.63,-0.183,0.865,-0.09
16.64,-0.129,1.033,0.124
16.65,-0.158,0.801,0.122
16.66,-0.34,0.998,-0.034
16.67,-0.298,1.053,-0.161
16.68,-0.191,0.816,-0.014
16.69,-0.123,1.156,0.182
16.7,-0.149,0.753,0.07
16.71,-0.413,1.097,-0.154
16.72,-0.266,0.869,-0.08
16.73,-0.054,1.161,0.029
16.74,-0.06,0.87,0.148
16.75,-0.246,0.802,0.018
16.76,-0.361,1.18,-0.171
16.77,-0.124,0.892,-0.043
16.78,-0.104,1.158,-0.029
16.79,-0.067,0.616,0.157
16.8,-0.372,1.062,-0.04
16.81,-0.227,0.981,-0.12
16.82,-0.215,0.942,-0.05
16.83,-0.136,1.007,0.159
16.84,-0.134,0.761,0.135
16.85,-0.322,1.17,-0.134
16.86,-0.223,0.86,0.033
16.87,-0.121,1.147,0.172
16.88,-0.152,0.741,0.011
16.89,-0.416,1.117,-0.135
16.9,-0.193,0.983,-0.075
16.91,-0.16,1.102,0.062
16.92,-0.122,0.856,0.176
16.93,-0.257,0.795,-0.006
16.94,-0.373,1.235,-0.15
16.95,-0.118,0.857,-0.092
16.96,-0.142,1.11,0.093
16.97,-0.124,0.719,0.15
16.98,-0.366,1.038,-0.066
16.99,-0.283,0.987,-0.124
17.0,-0.18,0.928,-0.047
17.01,-0.117,1.074,0.173
17.02,-0.095,0.715,0.091
17.03,-0.385,1.179,-0.129
17.04,-0.212,0.816,-0.127
17.05,-0.174,1.212,0.048
17.06,-0.01,0.848,0.111
17.07,-0.216,0.846,0.013
17.08,-0.392,1.132,-0.123
17.09,-0.106,0.957,-0.071
17.1,-0.06,1.189,0.007
17.11,-0.112,0.613,0.165
17.12,-0.312,1.095,-0.016
17.13,-0.26,0.944,-0.159
17.14,-0.246,1.01,-0.062
17.15,-0.132,0.943,0.147
17.16,-0.122,0.779,0.159
17.17,-0.34,1.166,-0.119
17.18,-0.255,0.744,-0.134
17.19,-0.194,1.188,-0.007
17.2,0.012,0.801,0.131
17.21,-0.153,1.0,0.049
17.22,-0.399,0.99,-0.146
17.23,-0.211,0.906,-0.075
17.24,-0.13,1.227,0.091
17.25,-0.043,0.665,0.137
17.26,-0.315,1.108,-0.008
17.27,-0.311,0.808,-0.148
17.28,-0.172,1.177,-0.031
17.29,-0.159,0.881,0.097
17.3,-0.111,0.792,0.134
17.31,-0.361,1.125,-0.05
17.32,-0.221,0.817,-0.191
17.33,-0.218,1.144,-0.01
17.34,-0.084,0.787,0.186
17.35,-0.167,1.068,0.082
17.36,-0.302,0.86,-0.187
17.37,-0.252,0.979,-0.106
17.38,-0.165,1.109,0.11
17.39,-0.058,0.748,0.143
17.4,-0.272,1.099,0.01
17.41,-0.36,0.829,-0.116
17.42,-0.191,1.185,-0.063
17.43,-0.138,0.875,0.083
17.44,-0.126,0.896,0.162
17.45,-0.295,1.014,-0.04
17.46,-0.274,0.929,-0.157
17.47,-0.196,1.094,-0.077
17.48,-0.134,0.784,0.183
17.49,-0.148,1.099,0.107
17.5,-0.302,0.85,-0.156
17.51,-0.296,1.077,-0.119
17.52,-0.156,0.969,0.043
17.53,-0.076,0.882,0.136
17.54,-0.238,1.017,0.058
17.55,-0.349,0.822,-0.142
17.56,-0.239,1.22,-0.042
17.57,-0.098,0.833,0.044
17.58,-0.132,1.013,0.169
17.59,-0.334,0.802,-0.056
17.6,-0.273,1.175,-0.16
17.61,-0.19,0.899,-0.024
17.62,-0.144,0.96,0.113
17.63,-0.14,0.966,0.144
17.64,-0.256,0.886,-0.147
17.65,-0.271,1.14,-0.138
17.66,-0.231,0.889,0.086
17.67,0.007,1.103,0.126
17.68,-0.183,0.752,0.015
17.69,-0.352,1.062,-0.13
17.7,-0.194,1.12,-0.06
17.71,-0.107,0.932,0.029
17.72,-0.122,0.929,0.185
17.73,-0.265,0.805,-0.017
17.74,-0.394,1.259,-0.124
17.75,-0.161,0.825,-0.057
17.76,-0.175,1.083,0.118
17.77,-0.079,0.816,0.133
17.78,-0.303,0.968,-0.131
17.79,-0.333,1.009,-0.118
17.8,-0.136,0.872,-0.019
17.81,-0.12,1.123,0.172
17.82,-0.105,0.726,0.082
17.83,-0.4,1.137,-0.136
17.84,-0.226,0.885,-0.134
17.85,-0.187,1.15,0.049
17.86,-0.015,0.896,0.13
17.87,-0.214,0.786,-0.003
17.88,-0.373,1.167,-0.146
17.89,-0.147,0.884,-0.084
17.9,-0.099,1.189,0.088
17.91,-0.064,0.66,0.116
17.92,-0.351,1.027,-0.019
17.93,-0.329,0.987,-0.134
17.94,-0.124,0.963,-0.06
17.95,-0.157,1.044,0.149
17.96,-0.114,0.695,0.121
17.97,-0.338,1.204,-0.088
17.98,-0.261,0.827,-0.146
17.99,-0.167,1.134,0.014
18.0,-0.055,0.843,0.126
18.01,-0.201,0.93,0.064
18.02,-0.372,1.074,-0.113
18.03,-0.207,0.846,-0.149
18.04,-0.187,1.217,0.111
18.05,-0.071,0.722,0.129
18.06,-0.312,1.06,-0.017
18.07,-0.339,0.861,-0.09
18.08,-0.186,1.099,-0.066
18.09,-0.092,0.965,0.091
18.1,-0.088,0.749,0.113
18.11,-0.344,1.171,-0.026
18.12,-0.26,0.795,-0.164
18.13,-0.157,1.194,-0.05
18.14,-0.129,0.807,0.188
18.15,-0.171,0.976,0.068
18.16,-0.339,0.94,-0.127
18.17,-0.207,0.941,-0.102
18.18,-0.087,1.193,0.015
18.19,-0.059,0.698,0.128
18.2,-0.237,1.089,0.02
18.21,-0.352,0.853,-0.123
18.22,-0.239,1.144,-0.086
18.23,-0.156,0.875,0.098
18.24,-0.055,0.892,0.156
18.25,-0.332,1.035,-0.042
18.26,-0.383,0.821,-0.117
18.27,-0.207,1.114,-0.056
18.28,-0.048,0.825,0.166
18.29,-0.17,1.099,0.11
18.3,-0.33,0.873,-0.091
18.31,-0.251,1.018,-0.162
18.32,-0.21,1.011,0.03
18.33,-0.077,0.859,0.168
18.34,-0.195,1.082,0.079
18.35,-0.363,0.815,-0.138
18.36,-0.253,1.181,-0.078
18.37,-0.182,0.937,0.083
18.38,-0.059,0.969,0.135
18.39,-0.224,0.804,-0.012
18.4,-0.303,1.151,-0.14
18.41,-0.186,0.981,-0.034
18.42,-0.13,0.848,0.117
18.43,-0.141,0.994,0.151
18.44,-0.361,0.877,-0.078
18.45,-0.336,1.156,-0.16
18.46,-0.218,0.793,0.007
18.47,-0.106,1.125,0.171
18.48,-0.204,0.857,0.086
18.49,-0.354,0.979,-0.135
18.5,-0.227,1.041,-0.121
18.51,-0.077,0.979,0.055
18.52,-0.051,1.049,0.119
18.53,-0.22,0.749,-0.013
18.54,-0.348,1.189,-0.126
18.55,-0.215,0.958,-0.039
18.56,-0.126,1.024,0.093
18.57,-0.133,0.863,0.122
18.58,-0.311,0.893,-0.029
18.59,-0.372,1.167,-0.103
18.6,-0.175,0.8,-0.061
18.61,-0.135,1.14,0.158
18.62,-0.097,0.79,0.074
18.63,-0.373,1.057,-0.101
18.64,-0.29,0.903,-0.112
18.65,-0.182,1.053,0.092
18.66,-0.025,1.005,0.12
18.67,-0.183,0.69,0.019
18.68,-0.423,1.202,-0.114
18.69,-0.115,0.902,-0.088
18.7,-0.178,1.187,0.042
18.71,-0.062,0.685,0.152
18.72,-0.296,0.96,-0.04
18.73,-0.371,1.129,-0.127
18.74,-0.163,0.882,-0.131
18.75,-0.132,1.043,0.102
18.76,-0.132,0.694,0.149
18.77,-0.374,1.15,-0.104
18.78,-0.339,0.793,-0.112
18.79,-0.16,1.052,0.004
18.8,-0.09,1.001,0.177
18.81,-0.197,0.833,0.059
18.82,-0.389,1.058,-0.157
18.83,-0.167,0.797,-0.082
18.84,-0.049,1.365,0.068
18.85,-0.118,0.697,0.125
18.86,-0.248,0.985,0.014
18.87,-0.28,0.945,-0.103
18.88,-0.199,1.062,-0.104
18.89,-0.126,0.982,0.019
18.9,-0.087,0.747,0.17
18.91,-0.341,1.191,-0.036
18.92,-0.37,0.764,-0.172
18.93,-0.284,1.082,0.026
18.94,-0.027,0.934,0.139
18.95,-0.17,0.982,0.094
18.96,-0.284,0.991,-0.129
18.97,-0.271,0.798,-0.1
18.98,-0.244,1.19,0.034
18.99,0.042,0.786,0.164
19.0,-0.211,1.101,0.024
19.01,-0.396,0.806,-0.144
19.02,-0.243,1.12,-0.059
19.03,-0.045,1.037,0.013
19.04,-0.095,0.752,0.147
19.05,-0.292,1.086,0.013
19.06,-0.309,0.864,-0.136
19.07,-0.23,1.14,-0.066
19.08,-0.104,0.763,0.091
19.09,-0.085,1.032,0.172
19.1,-0.299,0.959,-0.102
19.11,-0.262,0.876,-0.14
19.12,-0.283,1.07,0.024
19.13,0.014,0.872,0.161
19.14,-0.191,1.118,0.063
19.15,-0.295,0.769,-0.149
19.16,-0.297,1.154,-0.042
19.17,-0.057,0.999,0.043
19.18,-0.082,0.916,0.159
19.19,-0.236,0.826,-0.006
19.2,-0.348,1.061,-0.1
19.21,-0.14,1.058,-0.087
19.22,-0.131,0.85,0.108
19.23,-0.199,1.05,0.153
19.24,-0.256,0.806,-0.098
19.25,-0.356,1.185,-0.133
19.26,-0.126,0.868,-0.048
19.27,-0.226,1.019,0.141
19.28,-0.1,0.906,0.123
19.29,-0.341,0.919,-0.131
19.3,-0.269,1.069,-0.117
19.31,-0.16,0.918,0.037
19.32,-0.09,1.101,0.133
19.33,-0.171,0.73,0.037
19.34,-0.379,1.12,-0.197
19.35,-0.184,1.008,-0.022
19.36,-0.068,1.065,0.036
19.37,-0.098,0.886,0.167
19.38,-0.243,0.802,-0.05
19.39,-0.36,1.252,-0.15
19.4,-0.126,0.861,-0.098
19.41,-0.173,1.091,0.076
19.42,-0.129,0.748,0.15
19.43,-0.354,1.039,-0.088
19.44,-0.295,1.008,-0.133
19.45,-0.167,0.895,-0.045
19.46,-0.065,1.099,0.153
19.47,-0.143,0.739,0.077
19.48,-0.366,1.126,-0.141
19.49,-0.221,0.848,-0.081
19.5,-0.16,1.234,0.101
19.51,-0.096,0.838,0.134
19.52,-0.2,0.827,0.036
19.53,-0.354,1.159,-0.117
19.54,-0.16,0.919,-0.071
19.55,-0.124,1.218,0.044
19.56,-0.069,0.614,0.17
19.57,-0.338,1.113,-0.039
19.58,-0.34,0.921,-0.128
19.59,-0.227,0.958,-0.08
19.6,-0.101,1.003,0.109
19.61,-0.152,0.786,0.145
19.62,-0.379,1.143,-0.086
19.63,-0.248,0.732,-0.14
19.64,-0.219,1.143,-0.012
19.65,-0.066,0.883,0.181
19.66,-0.145,0.981,0.056
19.67,-0.308,0.985,-0.164
19.68,-0.268,0.834,-0.097
19.69,-0.065,1.24,0.027
19.7,-0.034,0.719,0.162
19.71,-0.291,1.072,0.033
19.72,-0.365,0.819,-0.12
19.73,-0.199,1.163,-0.045
19.74,-0.069,0.986,0.019
19.75,-0.091,0.757,0.142
19.76,-0.317,1.088,-0.028
19.77,-0.223,0.877,-0.153
19.78,-0.213,1.164,-0.035
19.79,-0.096,0.754,0.111
19.8,-0.185,1.072,0.148
19.81,-0.268,0.931,-0.085
19.82,-0.304,0.964,-0.15
19.83,-0.207,1.051,-0.015
19.84,-0.112,0.856,0.168
19.85,-0.169,1.101,0.059
19.86,-0.291,0.772,-0.144
19.87,-0.263,1.189,-0.086
19.88,-0.09,0.943,0.033
19.89,-0.037,0.918,0.146
19.9,-0.178,0.954,0.024
19.91,-0.393,0.941,-0.156
19.92,-0.257,1.179,-0.068
19.93,-0.055,0.829,0.022
19.94,-0.144,1.06,0.137
19.95,-0.307,0.824,-0.054
19.96,-0.34,1.148,-0.131
19.97,-0.162,0.958,-0.039
19.98,-0.136,0.846,0.114
19.99,-0.1,0.893,0.117
20.0,-0.336,0.988,-0.132
20.01,-0.27,1.041,-0.149
20.02,-0.178,0.858,0.016
20.03,-0.077,1.158,0.182
20.04,-0.165,0.758,0.012
20.05,-0.413,1.091,-0.116
20.06,-0.243,0.956,-0.055
20.07,-0.017,1.086,0.077
20.08,-0.036,0.935,0.088
20.09,-0.256,0.773,-0.05
20.1,-0.404,1.164,-0.149
20.11,-0.093,0.936,-0.051
20.12,-0.171,1.134,0.086
20.13,-0.121,0.673,0.127
20.14,-0.388,1.076,-0.016
20.15,-0.241,1.04,-0.149
20.16,-0.203,0.895,-0.01
20.17,-0.047,1.026,0.085
20.18,-0.099,0.76,0.07
20.19,-0.37,1.176,-0.148
20.2,-0.212,0.83,-0.111
20.21,-0.133,1.174,0.014
20.22,-0.019,0.855,0.163
20.23,-0.258,0.879,0.05
20.24,-0.401,1.087,-0.147
20.25,-0.154,0.905,-0.087
20.26,-0.027,1.258,0.025
20.27,-0.372,0.642,0.25
20.28,-0.337,1.083,-0.054
20.29,-0.307,0.926,-0.133
20.3,-0.131,1.039,-0.056
20.31,-0.044,0.933,0.03
20.32,-0.142,0.738,0.103
20.33,-0.37,1.197,-0.063
20.34,-0.26,0.775,-0.14
20.35,-0.152,1.158,-0.049
20.36,-0.088,0.833,0.185
20.37,-0.212,0.988,0.054
20.38,-0.305,0.963,-0.124
20.39,-0.245,0.919,-0.117
20.4,-0.162,1.182,0.096
20.41,-0.008,0.686,0.166
20.42,-0.295,1.121,-0.022
20.43,-0.404,0.833,-0.152
20.44,-0.197,1.132,-0.055
20.45,-0.109,0.938,0.096
20.46,-0.109,0.856,0.125
20.47,-0.373,1.061,-0.017
20.48,-0.242,0.803,-0.165
20.49,-0.245,1.132,-0.026
20.5,-0.041,0.797,0.155
20.51,-0.18,1.086,0.111
20.52,-0.292,0.901,-0.115
20.53,-0.24,1.001,-0.116
20.54,-0.157,1.081,0.014
20.55,-0.073,0.813,0.181
20.56,-0.233,1.09,0.041
20.57,-0.404,0.788,-0.114
20.58,-0.217,1.206,-0.075
20.59,-0.008,0.935,0.039
20.6,-0.075,0.887,0.131
20.61,-0.265,0.97,-0.012
20.62,-0.316,0.969,-0.127
20.63,-0.191,1.111,-0.052
20.64,-0.098,0.791,0.103
20.65,-0.229,1.115,0.13
20.66,-0.309,0.823,-0.077
20.67,-0.323,1.081,-0.158
20.68,-0.135,0.909,-0.004
20.69,-0.106,0.976,0.198
20.7,-0.157,1.007,0.071
20.71,-0.36,0.826,-0.11
20.72,-0.226,1.174,-0.118
20.73,-0.074,0.92,0.073
20.74,-0.088,1.034,0.106
20.75,-0.276,0.829,-0.017
20.76,-0.378,1.046,-0.133
20.77,-0.102,1.101,-0.048
20.78,-0.125,0.872,0.094
20.79,-0.19,0.86,0.156
20.8,-0.285,0.887,-0.039
20.81,-0.3,1.225,-0.132
20.82,-0.159,0.819,-0.058
20.83,-0.185,1.09,0.18
20.84,-0.168,0.809,0.118
20.85,-0.365,1.055,-0.118
20.86,-0.231,0.963,-0.106
20.87,-0.171,1.003,0.077
20.88,-0.072,1.015,0.168
20.89,-0.239,0.74,-0.003
20.9,-0.414,1.19,-0.186
20.91,-0.142,0.923,-0.056
20.92,0.007,1.168,0.048
20.93,-0.261,0.746,0.158
20.94,-0.333,0.937,-0.026
20.95,-0.237,1.161,-0.116
20.96,-0.156,0.906,-0.062
20.97,-0.169,1.064,0.102
20.98,-0.232,0.715,0.189
20.99,-0.37,1.151,-0.118
21.0,-0.28,0.861,-0.143
21.01,-0.183,1.052,-0.018
21.02,-0.095,0.975,0.268
21.03,-0.173,0.772,0.014
21.04,-0.393,1.11,-0.147
21.05,-0.224,0.862,-0.021
21.06,-0.172,1.234,0.093
21.07,-0.053,0.688,0.139
21.08,-0.372,1.014,-0.033
21.09,-0.31,0.984,-0.141
21.1,-0.202,0.956,-0.05
21.11,-0.144,1.036,0.106
21.12,-0.133,0.711,0.154
21.13,-0.332,1.193,-0.107
21.14,-0.318,0.758,-0.143
21.15,-0.23,1.141,-0.003
21.16,-0.12,0.913,0.181
21.17,-0.136,0.886,0.041
21.18,-0.332,1.05,-0.148
21.19,-0.242,0.865,-0.076
21.2,-0.214,1.239,0.091
21.21,-0.016,0.666,0.113
21.22,-0.332,1.061,0.029
21.23,-0.295,0.863,-0.149
21.24,-0.144,1.087,-0.08
21.25,-0.157,0.968,0.105
21.26,-0.109,0.761,0.127
21.27,-0.365,1.14,-0.041
21.28,-0.21,0.806,-0.17
21.29,-0.236,1.153,-0.024
21.3,-0.081,0.789,0.16
21.31,-0.159,1.019,0.083
21.32,-0.345,0.947,-0.144
21.33,-0.241,0.895,-0.129
21.34,-0.083,1.212,-0.018
21.35,-0.048,0.743,0.16
21.36,-0.262,1.07,0.047
21.37,-0.38,0.821,-0.134
21.38,-0.104,1.191,-0.08
21.39,-0.117,0.93,0.06
21.4,-0.161,0.835,0.218
21.41,-0.341,1.06,-0.042
21.42,-0.222,0.89,-0.163
21.43,-0.155,1.138,-0.048
21.44,0.05,0.72,-0.0
21.45,-0.095,1.1,0.106
21.46,-0.327,0.896,-0.128
21.47,-0.255,0.988,-0.103
21.48,-0.173,1.061,0.036
21.49,-0.086,0.844,0.2
21.5,-0.235,1.07,0.027
21.51,-0.352,0.783,-0.176
21.52,-0.281,1.191,-0.063
21.53,-0.055,0.883,0.027
21.54,-0.05,0.947,0.161
21.55,-0.311,0.93,-0.049
21.56,-0.344,0.975,-0.138
21.57,-0.172,1.101,-0.077
21.58,-0.07,0.811,0.098
21.59,-0.247,1.034,0.154
21.6,-0.275,0.845,-0.135
21.61,-0.285,1.181,-0.11
21.62,-0.15,0.87,0.022
21.63,-0.115,1.063,0.169
21.64,-0.191,0.84,0.065
21.65,-0.361,0.972,-0.163
21.66,-0.194,1.116,-0.09
21.67,-0.106,0.872,0.052
21.68,-0.118,1.021,0.197
21.69,-0.221,0.761,-0.069
21.7,-0.348,1.21,-0.131
21.71,-0.2,0.932,-0.013
21.72,-0.115,1.005,0.115
21.73,-0.163,0.85,0.096
21.74,-0.346,0.933,-0.051
21.75,-0.288,1.162,-0.164
21.76,-0.16,0.818,-0.043
21.77,-0.125,1.095,0.201
21.78,-0.124,0.786,0.071
21.79,-0.405,1.1,-0.14
21.8,-0.207,0.983,-0.063
21.81,-0.104,1.026,0.027
21.82,-0.143,0.942,0.168
21.83,-0.217,0.783,-0.035
21.84,-0.404,1.221,-0.132
21.85,-0.114,0.841,-0.067
21.86,-0.18,1.125,0.113
21.87,-0.118,0.753,0.127
21.88,-0.331,1.025,-0.067
21.89,-0.315,1.079,-0.079
21.9,-0.158,0.905,-0.032
21.91,-0.14,1.093,0.167
21.92,-0.121,0.742,0.054
21.93,-0.401,1.184,-0.147
21.94,-0.193,0.894,-0.094
21.95,-0.121,1.141,0.021
21.96,-0.021,0.844,0.181
21.97,-0.282,0.847,-0.036
21.98,-0.383,1.138,-0.108
21.99,-0.237,0.885,-0.041
22.0,-0.156,1.151,0.102
22.01,-0.103,0.647,0.116
22.02,-0.351,1.103,-0.042
22.03,-0.219,0.951,-0.17
22.04,-0.145,0.937,-0.031
22.05,-0.195,1.051,0.186
22.06,-0.158,0.79,0.085
22.07,-0.395,1.156,-0.147
22.08,-0.256,0.803,-0.101
22.09,-0.259,1.235,0.161
22.1,-0.059,0.795,0.16
22.11,-0.216,0.908,0.011
22.12,-0.399,1.046,-0.176
22.13,-0.19,0.931,-0.069
22.14,-0.072,1.181,0.048
22.15,-0.095,0.637,0.127
22.16,-0.351,1.144,-0.041
22.17,-0.214,0.883,-0.147
22.18,-0.176,1.068,-0.009
22.19,-0.088,0.918,0.128
22.2,-0.22,0.832,0.128
22.21,-0.363,1.144,-0.123
22.22,-0.242,0.812,-0.146
22.23,-0.187,1.244,0.032
22.24,-0.031,0.749,0.158
22.25,-0.235,0.988,0.021
22.26,-0.381,0.914,-0.16
22.27,-0.172,0.982,-0.079
22.28,-0.08,1.11,0.089
22.29,-0.111,0.66,0.145
22.3,-0.345,1.135,-0.013
22.31,-0.232,0.836,-0.154
22.32,-0.173,1.152,-0.033
22.33,-0.097,0.832,0.122
22.34,-0.171,0.919,0.119
22.35,-0.31,1.043,-0.102
22.36,-0.245,0.845,-0.129
22.37,-0.192,1.171,0.033
22.38,-0.043,0.776,0.175
22.39,-0.227,1.085,0.023
22.4,-0.384,0.796,-0.177
22.41,-0.119,1.268,-0.047
22.42,-0.057,0.883,0.06
22.43,-0.096,0.826,0.126
22.44,-0.286,1.005,-0.01
22.45,-0.256,0.984,-0.156
22.46,-0.216,1.083,-0.012
22.47,-0.107,0.774,0.126
22.48,-0.176,1.127,0.123
22.49,-0.327,0.842,-0.139
22.5,-0.277,1.107,-0.085
22.51,-0.175,1.001,0.058
22.52,-0.014,0.855,0.15
22.53,-0.187,1.022,0.043
22.54,-0.351,0.874,-0.185
22.55,-0.292,1.217,-0.066
22.56,-0.043,0.84,0.065
22.57,-0.131,1.027,0.154
22.58,-0.33,0.856,-0.04
22.59,-0.323,1.024,-0.134
22.6,-0.172,1.066,-0.022
22.61,-0.088,0.827,0.089
22.62,-0.253,1.026,0.109
22.63,-0.288,0.863,-0.1
22.64,-0.279,1.182,-0.123
22.65,-0.163,0.872,-0.018
22.66,-0.086,1.037,0.211
22.67,-0.105,0.884,-0.01
22.68,-0.393,0.924,-0.143
22.69,-0.293,1.16,-0.055
22.7,-0.05,0.882,0.031
22.71,-0.047,1.051,0.126
22.72,-0.258,0.798,-0.077
22.73,-0.393,1.154,-0.133
22.74,-0.134,0.917,-0.05
22.75,-0.092,0.927,0.123
22.76,-0.141,0.963,0.137
22.77,-0.327,0.852,-0.109
22.78,-0.265,1.164,-0.101
22.79,-0.134,0.934,0.056
22.8,-0.139,1.039,0.125
22.81,-0.157,0.8,0.049
22.82,-0.362,1.061,-0.112
22.83,-0.219,1.082,-0.103
22.84,-0.155,0.93,0.071
22.85,-0.085,0.987,0.185
22.86,-0.23,0.802,-0.038
22.87,-0.42,1.22,-0.174
22.88,-0.128,0.873,-0.055
22.89,-0.133,1.05,0.089
22.9,-0.151,0.826,0.124
22.91,-0.362,0.978,-0.053
22.92,-0.314,1.097,-0.131
22.93,-0.235,0.792,-0.004
22.94,-0.134,1.133,0.176
22.95,-0.122,0.755,0.051
22.96,-0.333,1.059,-0.151
22.97,-0.25,0.952,-0.088
22.98,-0.13,1.046,0.079
22.99,-0.109,0.92,0.168
23.0,-0.255,0.763,-0.027
23.01,-0.356,1.233,-0.123
23.02,-0.144,0.938,-0.054
23.03,-0.155,1.137,0.107
23.04,-0.117,0.667,0.129
23.05,-0.341,1.069,-0.031
23.06,-0.315,1.072,-0.139
23.07,-0.148,0.89,-0.054
23.08,-0.171,1.017,0.159
23.09,-0.073,0.74,0.087
23.1,-0.387,1.176,-0.166
23.11,-0.25,0.833,-0.117
23.12,-0.201,1.15,0.083
23.13,0.015,0.893,0.17
23.14,-0.248,0.854,-0.01
23.15,-0.388,1.071,-0.187
23.16,-0.137,0.906,-0.013
23.17,-0.133,1.207,0.098
23.18,-0.066,0.643,0.091
23.19,-0.404,1.123,-0.011
23.2,-0.235,0.807,-0.146
23.21,-0.212,1.095,-0.02
23.22,-0.066,0.854,0.158
23.23,-0.118,0.928,0.091
23.24,-0.332,1.052,-0.13
23.25,-0.284,0.835,-0.09
23.26,-0.15,1.232,0.078
23.27,-0.034,0.711,0.142
23.28,-0.265,1.062,0.008
23.29,-0.391,0.895,-0.166
23.3,-0.183,1.086,-0.066
23.31,-0.14,0.999,0.085
23.32,-0.103,0.769,0.112
23.33,-0.381,1.101,-0.042
23.34,-0.227,0.81,-0.158
23.35,-0.17,1.156,-0.056
23.36,-0.104,0.797,0.15
23.37,-0.132,0.994,0.102
23.38,-0.299,0.985,-0.113
23.39,-0.248,0.898,-0.128
23.4,-0.211,1.138,0.029
23.41,-0.023,0.761,0.145
23.42,-0.267,1.106,0.043
23.43,-0.351,0.771,-0.139
23.44,-0.211,1.203,-0.076
23.45,-0.123,0.95,0.079
23.46,-0.065,0.829,0.134
23.47,-0.351,1.038,0.002
23.48,-0.254,0.871,-0.158
23.49,-0.24,1.168,-0.045
23.5,-0.103,0.789,0.12
23.51,-0.176,1.115,0.127
23.52,-0.268,0.858,-0.11
23.53,-0.233,1.001,-0.094
23.54,-0.172,1.042,-0.043
23.55,-0.077,0.874,0.189
23.56,-0.146,1.062,0.064
23.57,-0.363,0.778,-0.156
23.58,-0.267,1.213,-0.07
23.59,-0.039,0.963,0.033
23.6,-0.078,0.982,0.135
23.61,-0.235,0.873,-0.028
23.62,-0.385,0.969,-0.118
23.63,-0.14,1.152,-0.053
23.64,-0.127,0.821,0.103
23.65,-0.168,1.054,0.13
23.66,-0.311,0.844,-0.076
23.67,-0.263,1.124,-0.162
23.68,-0.186,0.938,-0.034
23.69,-0.094,0.938,0.133
23.7,-0.156,0.989,0.119
23.71,-0.308,0.877,-0.145
23.72,-0.325,1.129,-0.116
23.73,-0.186,0.87,0.099
23.74,-0.003,1.115,0.104
23.75,-0.199,0.781,0.013
23.76,-0.406,1.076,-0.143
23.77,-0.165,1.07,-0.093
23.78,-0.03,0.931,0.042
23.79,-0.114,0.985,0.16
23.8,-0.325,0.803,-0.052
23.81,-0.373,1.194,-0.159
23.82,-0.126,0.825,-0.059
23.83,-0.15,1.1,0.169
23.84,-0.14,0.833,0.087
23.85,-0.325,0.962,-0.108
23.86,-0.258,1.106,-0.111
23.87,-0.136,0.894,-0.003
23.88,-0.17,1.074,0.198
23.89,-0.1,0.72,0.04
23.9,-0.407,1.156,-0.125
23.91,-0.228,0.927,-0.071
23.92,-0.13,1.078,0.049
23.93,-0.105,0.875,0.14
23.94,-0.268,0.82,-0.027
23.95,-0.41,1.208,-0.127
23.96,-0.125,0.855,-0.078
23.97,-0.089,1.115,0.097
23.98,-0.161,0.703,0.133
23.99,-0.325,1.078,-0.079
24.0,-0.271,0.843,-0.146
24.01,-0.208,1.077,0.004
24.02,-0.112,0.971,0.196
24.03,-0.122,0.81,0.029
24.04,-0.394,1.125,-0.162
24.05,-0.229,0.824,-0.074
24.06,-0.112,1.28,0.101
24.07,-0.029,0.657,0.143
24.08,-0.309,1.027,0.016
24.09,-0.375,0.943,-0.115
24.1,-0.218,0.992,-0.06
24.11,-0.124,1.052,0.096
24.12,-0.153,0.719,0.122
24.13,-0.367,1.176,-0.065
24.14,-0.233,0.751,-0.172
24.15,-0.182,1.155,-0.049
24.16,-0.098,0.867,0.165
24.17,-0.113,0.932,0.097
24.18,-0.321,1.038,-0.125
24.19,-0.272,0.854,-0.107
24.2,-0.161,1.27,0.044
24.21,-0.035,0.704,0.12
24.22,-0.246,1.076,0.01
24.23,-0.325,0.865,-0.108
24.24,-0.153,1.142,-0.094
24.25,-0.105,0.971,0.058
24.26,-0.041,0.783,0.191
24.27,-0.367,1.101,-0.026
24.28,-0.284,0.82,-0.148
24.29,-0.212,1.213,-0.06
24.3,-0.091,0.802,0.084
24.31,-0.19,1.044,0.135
24.32,-0.271,0.938,-0.11
24.33,-0.266,0.938,-0.147
24.34,-0.287,1.074,0.055
24.35,0.007,0.819,0.154
24.36,-0.206,1.093,0.051
24.37,-0.33,0.792,-0.116
24.38,-0.267,1.194,-0.081
24.39,-0.007,0.989,0.03
24.4,-0.052,0.89,0.101
24.41,-0.272,0.925,0.013
24.42,-0.335,0.926,-0.119
24.43,-0.229,1.199,-0.048
24.44,-0.077,0.786,0.098
24.45,-0.159,1.041,0.15
24.46,-0.339,0.863,-0.045
24.47,-0.307,1.117,-0.18
24.48,-0.141,0.934,-0.071
24.49,-0.117,0.891,0.169
24.5,-0.172,1.056,0.087
24.51,-0.289,0.821,-0.11
24.52,-0.251,1.148,-0.111
24.53,-0.113,0.86,0.026
24.54,-0.089,1.072,0.142
24.55,-0.203,0.862,0.043
24.56,-0.434,0.973,-0.146
24.57,-0.18,1.083,-0.077
24.58,-0.048,0.945,0.032
24.59,-0.176,1.036,0.176
24.6,-0.293,0.771,0.011
24.61,-0.353,1.194,-0.152
24.62,-0.107,0.918,-0.065
24.63,-0.12,0.988,0.108
24.64,-0.161,0.835,0.137
24.65,-0.339,0.942,-0.064
24.66,-0.302,1.163,-0.151
24.67,-0.151,0.789,0.01
24.68,-0.198,1.104,0.157
24.69,-0.078,0.775,0.087
24.7,-0.386,1.089,-0.147
24.71,-0.287,0.926,-0.102
24.72,-0.128,1.054,0.091
24.73,-0.05,0.995,0.127
24.74,-0.246,0.741,0.014
24.75,-0.411,1.218,-0.145
24.76,-0.081,0.922,-0.073
24.77,-0.156,1.139,0.064
24.78,-0.118,0.707,0.155
24.79,-0.371,1.027,-0.026
24.8,-0.28,0.843,-0.18
24.81,-0.2,0.989,-0.047
24.82,-0.089,1.039,0.18
24.83,-0.102,0.763,0.088
24.84,-0.38,1.149,-0.12
24.85,-0.23,0.797,-0.102
24.86,-0.14,1.254,0.028
24.87,-0.022,0.739,0.141
24.88,-0.253,0.961,0.034
24.89,-0.384,1.019,-0.131
24.9,-0.187,0.937,-0.091
24.91,-0.128,1.14,0.068
24.92,-0.069,0.662,0.13
24.93,-0.386,1.108,-0.023
24.94,-0.292,0.824,-0.169
24.95,-0.228,1.113,-0.039
24.96,-0.102,0.892,0.104
24.97,-0.182,0.882,0.142
24.98,-0.381,1.097,-0.069
24.99,-0.192,0.772,-0.171
25.0,-0.203,1.176,-0.001
25.01,-0.089,0.774,0.18
25.02,-0.179,1.077,0.055
25.03,-0.316,0.861,-0.147
25.04,-0.272,0.968,-0.098
25.05,-0.095,1.159,0.069
25.06,-0.06,0.76,0.142
25.07,-0.3,1.081,0.018
25.08,-0.329,0.858,-0.108
25.09,-0.185,1.177,-0.096
25.1,-0.082,0.817,0.056
25.11,-0.134,1.024,0.134
25.12,-0.354,0.99,-0.044
25.13,-0.293,0.875,-0.144
25.14,-0.184,1.068,-0.029
25.15,-0.072,0.789,0.141
25.16,-0.197,1.12,0.096
25.17,-0.306,0.813,-0.163
25.18,-0.218,1.067,-0.121
25.19,-0.062,0.808,0.167
25.2,-0.223,1.009,0.019
25.21,-0.278,0.893,-0.166
25.22,-0.216,1.048,-0.074
25.23,-0.114,1.144,0.085
25.24,0.01,0.713,0.109
25.25,-0.33,1.1,0.0
25.26,-0.332,0.8,-0.116
25.27,-0.229,1.16,-0.056
25.28,-0.076,0.841,0.075
25.29,-0.125,0.94,0.131
25.3,-0.39,1.019,-0.039
25.31,-0.221,0.846,-0.138
25.32,-0.22,1.168,-0.022
25.33,-0.024,0.797,0.159
25.34,-0.216,1.118,0.099
25.35,-0.278,0.835,-0.14
25.36,-0.274,1.068,-0.095
25.37,-0.139,1.021,-0.013
25.38,-0.063,0.833,0.165
25.39,-0.214,1.022,0.022
25.4,-0.34,0.819,-0.116
25.41,-0.218,1.243,-0.037
25.42,-0.111,0.801,0.054
25.43,-0.118,0.999,0.162
25.44,-0.255,0.93,-0.034
25.45,-0.394,0.992,-0.18
25.46,-0.173,0.989,-0.066
25.47,-0.085,0.9,0.158
25.48,-0.154,1.099,0.077
25.49,-0.337,0.8,-0.085
25.5,-0.223,1.15,-0.11
25.51,-0.162,0.973,0.037
25.52,-0.06,0.947,0.147
25.53,-0.125,0.938,0.018
25.54,-0.347,1.088,-0.157
25.55,-0.228,1.092,-0.07
25.56,-0.098,0.914,0.066
25.57,-0.119,0.982,0.149
25.58,-0.22,0.789,-0.062
25.59,-0.367,1.206,-0.115
25.6,-0.117,0.861,-0.069
25.61,-0.272,1.015,0.182
25.62,-0.152,0.854,0.11
25.63,-0.309,0.966,-0.089
25.64,-0.338,1.093,-0.152
25.65,-0.12,0.834,0.011
25.66,-0.135,1.155,0.174
25.67,-0.108,0.75,0.053
25.68,-0.341,1.118,-0.12
25.69,-0.249,0.92,-0.098
25.7,-0.117,1.119,0.058
25.71,-0.15,0.918,0.126
25.72,-0.25,0.743,-0.022
25.73,-0.376,1.204,-0.127
25.74,-0.045,0.906,-0.103
25.75,-0.186,1.13,0.1
25.76,-0.101,0.709,0.164
25.77,-0.348,1.042,-0.076
25.78,-0.258,0.989,-0.11
25.79,-0.142,0.922,-0.034
25.8,-0.174,1.114,0.152
25.81,-0.136,0.724,0.096
25.82,-0.358,1.179,-0.109
25.83,-0.215,0.814,-0.144
25.84,-0.178,1.153,0.02
25.85,-0.054,0.819,0.164
25.86,-0.191,0.848,0.05
25.87,-0.41,1.106,-0.121
25.88,-0.195,0.919,-0.092
25.89,-0.189,1.203,0.094
25.9,-0.065,0.641,0.133
25.91,-0.337,1.076,-0.033
25.92,-0.324,0.881,-0.112
25.93,-0.192,1.005,-0.045
25.94,-0.144,0.985,0.115
25.95,-0.077,0.786,0.124
25.96,-0.396,1.158,-0.053
25.97,-0.208,0.781,-0.181
25.98,-0.222,1.163,-0.033
25.99,-0.073,0.818,0.152
26.0,-0.178,0.986,0.083
26.01,-0.329,0.936,-0.154
26.02,-0.25,0.872,-0.106
26.03,-0.166,1.225,0.129
26.04,0.004,0.723,0.135
26.05,-0.26,1.08,-0.0
26.06,-0.353,0.833,-0.106
26.07,-0.212,1.162,-0.081
26.08,-0.076,0.932,0.064
26.09,-0.119,0.875,0.112
26.1,-0.338,1.05,-0.018
26.11,-0.356,0.821,-0.094
26.12,-0.206,1.154,-0.017
26.13,-0.077,0.821,0.148
26.14,-0.143,1.088,0.082
26.15,-0.277,0.862,-0.121
26.16,-0.279,0.953,-0.138
26.17,-0.16,1.099,0.024
26.18,-0.003,0.833,0.155
26.19,-0.221,1.089,0.079
26.2,-0.284,0.841,-0.149
26.21,-0.304,1.207,-0.078
26.22,-0.088,0.874,0.037
26.23,-0.017,0.973,0.145
26.24,-0.26,0.905,-0.021
26.25,-0.324,0.986,-0.169
26.26,-0.197,1.151,-0.048
26.27,-0.118,0.783,0.125
26.28,-0.098,1.03,0.132
26.29,-0.318,0.86,-0.078
26.3,-0.372,1.156,-0.164
26.31,-0.217,0.867,-0.017
26.32,-0.019,0.96,0.152
26.33,-0.195,1.018,0.12
26.34,-0.314,0.968,-0.151
26.35,-0.253,1.044,-0.101
26.36,-0.106,0.957,0.054
26.37,-0.083,1.129,0.143
26.38,-0.257,0.717,-0.002
26.39,-0.387,1.171,-0.123
26.4,-0.136,0.986,-0.056
26.41,-0.154,1.036,0.046
26.42,-0.104,0.793,0.124
26.43,-0.279,0.916,-0.029
26.44,-0.328,1.225,-0.177
26.45,-0.107,0.777,-0.084
26.46,-0.146,1.122,0.18
26.47,-0.144,0.773,0.097
26.48,-0.357,1.084,-0.081
26.49,-0.34,0.916,-0.133
26.5,-0.159,0.981,0.025
26.51,-0.145,1.058,0.192
26.52,-0.144,0.728,0.005
26.53,-0.436,1.188,-0.125
26.54,-0.166,0.825,-0.092
26.55,-0.116,1.229,0.025
26.56,-0.026,0.745,0.129
26.57,-0.292,0.936,0.017
26.58,-0.386,1.063,-0.153
26.59,-0.146,0.932,-0.085
26.6,-0.084,1.105,0.046
26.61,-0.152,0.67,0.141
26.62,-0.335,1.157,-0.082
26.63,-0.286,0.838,-0.104
26.64,-0.193,1.013,-0.023
26.65,-0.092,0.966,0.157
26.66,-0.088,0.825,0.055
26.67,-0.361,1.142,-0.101
26.68,-0.246,0.799,-0.107
26.69,-0.199,1.297,0.082
26.7,-0.048,0.726,0.156
26.71,-0.23,0.993,0.02
26.72,-0.384,0.923,-0.095
26.73,-0.227,1.012,-0.066
26.74,-0.084,1.097,0.056
26.75,-0.03,0.672,0.125
26.76,-0.378,1.156,-0.033
26.77,-0.301,0.86,-0.12
26.78,-0.228,1.137,-0.053
26.79,-0.102,0.815,0.127
26.8,-0.211,0.967,0.166
26.81,-0.282,1.013,-0.073
26.82,-0.283,0.845,-0.107
26.83,-0.19,1.106,-0.043
26.84,-0.001,0.796,0.12
26.85,-0.252,1.101,0.05
26.86,-0.267,0.776,-0.157
26.87,-0.295,1.063,-0.06
26.88,-0.046,1.063,0.046
26.89,-0.037,0.819,0.129
26.9,-0.247,1.036,0.033
26.91,-0.326,0.835,-0.125
26.92,-0.146,1.243,-0.092
26.93,-0.149,0.823,0.088
26.94,-0.085,1.009,0.1
26.95,-0.287,0.93,-0.057
26.96,-0.4,0.972,-0.14
26.97,-0.222,0.99,0.007
26.98,-0.052,0.855,0.122
26.99,-0.188,1.122,0.117
27.0,-0.272,0.796,-0.14
27.01,-0.268,1.078,-0.101
27.02,-0.167,0.95,0.032
27.03,-0.07,0.997,0.147
27.04,-0.241,0.94,0.048
27.05,-0.331,0.909,-0.115
27.06,-0.187,1.205,-0.068
27.07,-0.085,0.834,-0.005
27.08,-0.077,0.996,0.165
27.09,-0.242,0.849,-0.007
27.1,-0.311,1.101,-0.204
27.11,-0.222,0.941,-0.067
27.12,-0.044,0.91,0.116
27.13,-0.198,1.061,0.134
27.14,-0.318,0.917,-0.099
27.15,-0.272,1.086,-0.129
27.16,-0.169,0.888,0.0
27.17,-0.066,1.137,0.13
27.18,-0.165,0.731,0.049
27.19,-0.374,1.103,-0.132
27.2,-0.204,0.975,-0.128
27.21,-0.172,1.06,0.07
27.22,-0.159,0.916,0.167
27.23,-0.174,0.805,-0.008
27.24,-0.387,1.215,-0.126
27.25,-0.182,0.847,-0.075
27.26,-0.209,1.132,0.128
27.27,-0.009,0.713,0.111
27.28,-0.344,1.016,-0.065
27.29,-0.342,1.009,-0.162
27.3,-0.162,0.907,-0.006
27.31,-0.137,1.115,0.134
27.32,-0.163,0.731,0.113
27.33,-0.321,1.153,-0.106
27.34,-0.275,0.818,-0.1
27.35,-0.173,1.165,0.043
27.36,-0.041,0.924,0.113
27.37,-0.227,0.832,0.028
27.38,-0.325,1.088,-0.17
27.39,-0.173,0.921,-0.051
27.4,-0.151,1.24,0.04
27.41,-0.068,0.654,0.159
27.42,-0.324,1.068,0.024
27.43,-0.337,0.885,-0.143
27.44,-0.146,1.021,-0.076
27.45,-0.151,1.01,0.094
27.46,-0.105,0.733,0.126
27.47,-0.356,1.167,-0.079
27.48,-0.242,0.786,-0.127
27.49,-0.209,1.135,-0.025
27.5,-0.077,0.819,0.175
27.51,-0.183,1.005,0.103
27.52,-0.335,0.979,-0.106
27.53,-0.22,0.879,-0.115
27.54,-0.159,1.224,0.051
27.55,-0.041,0.771,0.136
27.56,-0.269,1.094,0.057
27.57,-0.278,0.825,-0.141
27.58,-0.276,1.178,-0.049
27.59,-0.082,0.927,0.063
27.6,-0.123,0.812,0.165
27.61,-0.293,1.056,-0.031
27.62,-0.322,0.856,-0.126
27.63,-0.247,1.165,-0.059
27.64,-0.086,0.766,0.091
27.65,-0.164,1.072,0.151
27.66,-0.304,0.892,-0.085
27.67,-0.31,0.957,-0.123
27.68,-0.168,1.037,-0.008
27.69,-0.019,0.889,0.162
27.7,-0.26,1.091,0.041
27.71,-0.338,0.775,-0.126
27.72,-0.271,1.214,-0.075
27.73,-0.108,0.945,0.077
27.74,-0.126,0.917,0.149
27.75,-0.23,0.937,-0.003
27.76,-0.321,0.957,-0.133
27.77,-0.186,1.098,-0.085
27.78,-0.077,0.784,0.084
27.79,-0.177,1.073,0.152
27.8,-0.285,0.811,-0.07
27.81,-0.317,1.091,-0.165
27.82,-0.159,0.903,-0.012
27.83,-0.121,0.973,0.174
27.84,-0.161,1.018,0.078
27.85,-0.332,0.846,-0.103
27.86,-0.242,1.155,-0.115
27.87,-0.132,0.887,0.048
27.88,-0.087,1.111,0.144
27.89,-0.145,0.808,0.017
27.9,-0.348,1.004,-0.143
27.91,-0.247,1.094,-0.071
27.92,-0.064,0.925,0.015
27.93,-0.141,0.995,0.144
27.94,-0.361,0.894,-0.023
27.95,-0.324,1.148,-0.152
27.96,-0.164,0.819,-0.031
27.97,-0.145,1.136,0.125
27.98,-0.122,0.731,0.109
27.99,-0.315,1.09,-0.08
28.0,-0.277,0.935,-0.162
28.01,-0.167,0.949,-0.019
28.02,-0.069,1.079,0.179
28.03,-0.217,0.731,0.036
28.04,-0.387,1.151,-0.095
28.05,-0.182,0.888,-0.075
28.06,-0.281,1.228,0.153
28.07,-0.107,0.755,0.131
28.08,-0.242,0.922,-0.004
28.09,-0.36,1.082,-0.146
28.1,-0.131,0.909,-0.089
28.11,-0.119,1.103,0.069
28.12,-0.135,0.659,0.136
28.13,-0.391,1.144,-0.037
28.14,-0.336,0.827,-0.121
28.15,-0.179,1.048,-0.025
28.16,-0.08,0.973,0.116
28.17,-0.17,0.836,0.127
28.18,-0.327,1.137,-0.118
28.19,-0.217,0.789,-0.124
28.2,-0.259,1.283,0.074
28.21,-0.005,0.782,0.125
28.22,-0.24,1.001,0.045
28.23,-0.342,0.937,-0.134
28.24,-0.231,1.013,-0.06
28.25,-0.158,1.096,0.072
28.26,-0.04,0.684,0.118
28.27,-0.341,1.141,-0.036
28.28,-0.304,0.813,-0.152
28.29,-0.234,1.082,-0.036
28.3,-0.078,0.866,0.145
28.31,-0.138,0.968,0.15
28.32,-0.374,1.002,-0.108
28.33,-0.359,0.798,-0.062
28.34,-0.102,1.155,-0.043
28.35,-0.07,0.833,0.154
28.36,-0.186,1.095,0.065
28.37,-0.311,0.843,-0.146
28.38,-0.26,1.06,-0.084
28.39,-0.135,1.063,0.086
28.4,-0.036,0.836,0.151
28.41,-0.242,1.019,0.015
28.42,-0.352,0.812,-0.115
28.43,-0.179,1.208,-0.08
28.44,-0.126,0.836,0.088
28.45,-0.079,0.973,0.13
28.46,-0.317,0.967,-0.041
28.47,-0.332,0.993,-0.159
28.48,-0.189,1.035,-0.055
28.49,-0.092,0.815,0.163
28.5,-0.185,1.107,0.116
28.51,-0.303,0.855,-0.105
28.52,-0.319,1.1,-0.162
28.53,-0.168,0.896,-0.006
28.54,-0.082,0.99,0.17
28.55,-0.178,0.972,0.044
28.56,-0.345,0.867,-0.146
28.57,-0.262,1.183,-0.05
28.58,-0.031,0.928,0.033
28.59,-0.133,1.022,0.144
28.6,-0.21,0.777,-0.037
28.61,-0.375,1.15,-0.142
28.62,-0.147,1.019,-0.082
28.63,-0.078,0.892,0.054
28.64,-0.159,1.001,0.176
28.65,-0.256,0.85,-0.085
28.66,-0.385,1.177,-0.14
28.67,-0.163,0.818,-0.052
28.68,-0.134,1.108,0.171
28.69,-0.136,0.828,0.064
28.7,-0.344,0.959,-0.12
28.71,-0.305,1.021,-0.098
28.72,-0.13,0.934,0.013
28.73,-0.044,1.074,0.124
28.74,-0.213,0.705,0.038
28.75,-0.368,1.24,-0.16
28.76,-0.156,0.905,-0.069
28.77,-0.099,1.137,0.056
28.78,-0.074,0.691,0.139
28.79,-0.323,1.002,-0.04
28.8,-0.338,1.035,-0.15
28.81,-0.18,0.898,-0.038
28.82,-0.104,1.124,0.103
28.83,-0.161,0.695,0.125
28.84,-0.357,1.158,-0.086
28.85,-0.22,0.837,-0.118
28.86,-0.253,1.092,0.008
28.87,-0.079,0.888,0.166
28.88,-0.186,0.886,0.084
28.89,-0.38,1.067,-0.137
28.9,-0.24,0.778,-0.1
28.91,-0.119,1.296,0.089
28.92,-0.011,0.747,0.106
28.93,-0.294,1.002,0.039
28.94,-0.323,0.935,-0.154
28.95,-0.164,1.097,-0.051
28.96,-0.139,0.99,0.066
28.97,-0.057,0.673,0.118
28.98,-0.365,1.188,-0.019
28.99,-0.305,0.81,-0.191
29.0,-0.272,1.092,-0.011
29.01,-0.075,0.838,0.132
29.02,-0.111,1.022,0.108
29.03,-0.368,0.99,-0.076
29.04,-0.278,0.836,-0.151
29.05,-0.214,1.157,0.017
29.06,-0.021,0.777,0.16
29.07,-0.22,1.101,0.033
29.08,-0.336,0.811,-0.15
29.09,-0.249,1.094,-0.067
29.1,-0.071,1.03,0.04
29.11,-0.049,0.828,0.145
29.12,-0.287,1.017,0.023
29.13,-0.362,0.854,-0.119
29.14,-0.203,1.206,-0.082
29.15,-0.116,0.807,0.104
29.16,-0.118,1.014,0.12
29.17,-0.346,0.928,-0.047
29.18,-0.243,1.003,-0.142
29.19,-0.171,1.018,-0.042
29.2,-0.112,0.831,0.162
29.21,-0.165,1.156,0.126
29.22,-0.288,0.802,-0.131
29.23,-0.315,1.101,-0.124
29.24,-0.174,0.963,0.034
29.25,-0.005,0.986,0.113
29.26,-0.189,0.902,0.044
29.27,-0.335,0.934,-0.131
29.28,-0.255,1.206,-0.048
29.29,-0.072,0.852,0.023
29.3,-0.096,1.026,0.142
29.31,-0.259,0.798,-0.022
29.32,-0.359,1.173,-0.132
29.33,-0.191,0.963,-0.09
29.34,-0.061,0.925,0.073
29.35,-0.173,0.948,0.166
29.36,-0.305,0.861,-0.048
29.37,-0.352,1.162,-0.159
29.38,-0.154,0.793,-0.055
29.39,-0.15,1.119,0.135
29.4,-0.12,0.832,0.105
29.41,-0.364,1.004,-0.141
29.42,-0.261,0.956,-0.136
29.43,-0.138,0.952,0.073
29.44,-0.048,1.103,0.144
29.45,-0.148,0.698,0.026
29.46,-0.366,1.142,-0.149
29.47,-0.216,0.93,-0.038
29.48,-0.025,1.182,0.016
29.49,-0.068,0.81,0.14
29.5,-0.334,0.85,0.017
29.51,-0.336,1.158,-0.114
29.52,-0.117,0.926,-0.084
29.53,-0.188,1.124,0.067
29.54,-0.101,0.657,0.112
29.55,-0.358,1.183,-0.065
29.56,-0.223,0.802,-0.186
29.57,-0.228,1.084,0.008
29.58,-0.199,0.854,0.261
29.59,-0.09,0.918,0.113
29.6,-0.391,1.066,-0.127
29.61,-0.285,0.759,-0.129
29.62,-0.195,1.28,0.114
29.63,0.03,0.784,0.123
29.64,-0.284,1.037,0.006
29.65,-0.351,0.838,-0.132
29.66,-0.156,1.154,-0.061
29.67,-0.064,1.037,0.049
29.68,-0.097,0.716,0.129
29.69,-0.379,1.108,-0.003
29.7,-0.21,0.856,-0.163
29.71,-0.234,1.178,-0.075
29.72,-0.099,0.762,0.102
29.73,-0.125,1.045,0.131
29.74,-0.337,0.975,-0.085
29.75,-0.27,0.837,-0.136
29.76,-0.287,1.087,-0.008
29.77,-0.007,0.843,0.186
29.78,-0.232,1.115,0.03
29.79,-0.312,0.78,-0.119
29.8,-0.265,1.144,-0.075
29.81,-0.118,0.969,0.002
29.82,-0.038,0.803,0.169
29.83,-0.198,1.035,0.038
29.84,-0.367,0.891,-0.116
29.85,-0.252,1.198,-0.083
29.86,-0.139,0.809,0.093
29.87,-0.045,1.043,0.13
29.88,-0.295,0.89,-0.031
29.89,-0.329,1.093,-0.173
29.9,-0.249,0.959,-0.051
29.91,-0.077,0.859,0.125
29.92,-0.173,1.089,0.154
29.93,-0.315,0.817,-0.131
29.94,-0.341,1.131,-0.114
29.95,-0.168,0.865,0.02
29.96,-0.102,1.119,0.18
29.97,-0.125,0.885,0.059
29.98,-0.379,0.966,-0.123
29.99,-0.232,1.112,-0.113
30.0,-0.082,0.972,0.082
30.01,-0.106,1.073,0.134
30.02,-0.227,0.723,0.028
30.03,-0.373,1.184,-0.152
30.04,-0.238,0.998,-0.046
30.05,-0.096,0.978,0.072
30.06,-0.084,0.839,0.141
30.07,-0.276,0.872,-0.023
30.08,-0.363,1.226,-0.141
30.09,-0.162,0.78,-0.049
30.1,-0.124,1.097,0.108
30.11,-0.165,0.781,0.152
30.12,-0.365,1.058,-0.084
30.13,-0.302,0.895,-0.143
30.14,-0.237,0.958,0.054
30.15,-0.073,1.098,0.152
30.16,-0.094,0.725,0.058
30.17,-0.366,1.163,-0.124
30.18,-0.23,0.859,-0.087
30.19,-0.132,1.198,0.039
30.2,-0.051,0.779,0.154
30.21,-0.269,0.878,0.019
30.22,-0.378,1.089,-0.121
30.23,-0.137,0.916,-0.096
30.24,-0.197,1.156,0.081
30.25,-0.037,0.608,0.129
30.26,-0.395,1.114,-0.043
30.27,-0.258,0.881,-0.148
30.28,-0.189,1.034,-0.044
30.29,-0.062,0.944,0.067
30.3,-0.124,0.808,0.14
30.31,-0.346,1.152,-0.104
30.32,-0.239,0.769,-0.132
30.33,-0.212,1.195,0.006
30.34,-0.072,0.821,0.147
30.35,-0.239,1.094,0.072
30.36,-0.273,0.821,-0.173
30.37,-0.232,1.087,-0.063
30.38,-0.124,1.07,0.082
30.39,0.02,0.833,0.121
30.4,-0.268,1.039,0.015
30.41,-0.293,0.853,-0.134
30.42,-0.216,1.228,-0.065
30.43,-0.094,0.81,0.056
30.44,-0.106,1.038,0.146
30.45,-0.337,0.917,-0.059
30.46,-0.325,0.975,-0.131
30.47,-0.158,1.048,-0.051
30.48,-0.073,0.854,0.138
30.49,-0.203,1.093,0.094
30.5,-0.26,0.813,-0.077
30.51,-0.299,1.141,-0.152
30.52,-0.141,0.882,-0.027
30.53,-0.145,0.993,0.246
30.54,-0.155,0.985,0.085
30.55,-0.358,0.875,-0.119
30.56,-0.259,1.141,-0.1
30.57,-0.098,0.914,0.068
30.58,-0.045,1.069,0.119
30.59,-0.185,0.776,0.008
30.6,-0.379,1.114,-0.139
30.61,-0.154,1.006,-0.05
30.62,-0.101,0.973,0.085
30.63,-0.135,0.941,0.106
30.64,-0.353,0.87,-0.005
30.65,-0.309,1.201,-0.156
30.66,-0.105,0.814,-0.07
30.67,-0.102,1.084,0.106
30.68,-0.157,0.8,0.126
30.69,-0.29,1.033,-0.087
30.7,-0.323,1.059,-0.138
30.71,-0.153,0.883,-0.014
30.72,-0.131,1.1,0.174
30.73,-0.157,0.75,0.032
30.74,-0.399,1.177,-0.111
30.75,-0.239,0.908,-0.095
30.76,-0.128,1.102,0.036
30.77,-0.099,0.814,0.162
30.78,-0.192,0.818,-0.046
30.79,-0.445,1.177,-0.118
30.8,-0.145,0.828,-0.066
30.81,-0.12,1.106,0.086
30.82,-0.161,0.68,0.148
30.83,-0.3,1.087,-0.051
30.84,-0.43,0.935,-0.108
30.85,-0.129,0.911,-0.055
30.86,-0.102,1.073,0.145
30.87,-0.149,0.791,0.089
30.88,-0.345,1.161,-0.112
30.89,-0.234,0.764,-0.152
30.9,-0.232,1.18,0.061
30.91,-0.04,0.834,0.163
30.92,-0.206,0.946,0.073
30.93,-0.342,1.021,-0.123
30.94,-0.242,0.866,-0.124
30.95,-0.209,1.219,0.081
30.96,0.057,0.685,0.128
30.97,-0.311,1.123,-0.004
30.98,-0.316,0.837,-0.162
30.99,-0.219,1.154,-0.052
31.0,-0.084,0.955,0.065
31.01,-0.085,0.785,0.139
31.02,-0.329,1.134,-0.018
31.03,-0.298,0.834,-0.155
31.04,-0.233,1.149,-0.062
31.05,-0.068,0.81,0.136
31.06,-0.206,1.103,0.128
31.07,-0.261,0.87,-0.144
31.08,-0.302,0.892,-0.117
31.09,-0.26,1.06,0.057
31.1,-0.024,0.833,0.15
31.11,-0.187,1.107,0.056
31.12,-0.311,0.772,-0.112
31.13,-0.314,1.178,-0.081
31.14,-0.029,0.976,0.032
31.15,-0.13,1.0,0.126
31.16,-0.291,0.843,0.002
31.17,-0.328,1.092,-0.148
31.18,-0.206,1.025,-0.107
31.19,-0.087,0.795,0.084
31.2,-0.166,1.072,0.177
31.21,-0.296,0.831,-0.061
31.22,-0.374,1.147,-0.127
31.23,-0.148,0.818,-0.042
31.24,-0.167,1.091,0.158
31.25,-0.126,0.873,0.06
31.26,-0.365,0.944,-0.107
31.27,-0.283,1.039,-0.118
31.28,-0.181,0.934,0.062
31.29,-0.019,1.102,0.117
31.3,-0.183,0.712,0.012
31.31,-0.385,1.085,-0.141
31.32,-0.218,1.039,-0.049
31.33,-0.041,1.025,0.012
31.34,-0.136,0.831,0.146
31.35,-0.28,0.828,-0.005
31.36,-0.344,1.24,-0.141
31.37,-0.106,0.826,-0.116
31.38,-0.152,1.112,0.105
31.39,-0.122,0.727,0.14
31.4,-0.348,1.052,-0.035
31.41,-0.267,0.998,-0.143
31.42,-0.16,0.902,-0.056
31.43,-0.188,1.069,0.141
31.44,-0.107,0.748,0.089
31.45,-0.344,1.175,-0.118
31.46,-0.27,0.777,-0.126
31.47,-0.182,1.177,0.078
31.48,-0.073,0.922,0.169
31.49,-0.154,0.838,-0.001
31.5,-0.386,1.066,-0.16
31.51,-0.199,0.865,-0.086
31.52,-0.181,1.278,0.105
31.53,-0.026,0.678,0.097
31.54,-0.39,1.061,0.042
31.55,-0.272,0.87,-0.15
31.56,-0.126,1.115,-0.056
31.57,-0.395,0.956,0.101
31.58,-0.193,0.709,0.123
31.59,-0.319,1.184,-0.043
31.6,-0.215,0.828,-0.176
31.61,-0.266,1.087,-0.027
31.62,-0.008,0.806,0.093
31.63,-0.146,1.052,0.101
31.64,-0.297,0.964,-0.095
31.65,-0.259,0.843,-0.121
31.66,-0.152,1.177,0.056
31.67,-0.066,0.836,0.232
31.68,-0.257,1.085,0.024
31.69,-0.357,0.779,-0.132
31.7,-0.213,1.182,-0.086
31.71,-0.057,0.974,0.037
31.72,-0.11,0.844,0.165
31.73,-0.27,1.021,0.004
31.74,-0.323,0.885,-0.146
31.75,-0.174,1.18,-0.066
31.76,-0.014,0.732,0.051
31.77,-0.112,1.054,0.097
31.78,-0.325,0.922,-0.039
31.79,-0.3,0.999,-0.158
31.8,-0.195,1.001,-0.031
31.81,-0.079,0.878,0.14
31.82,-0.227,1.059,0.13
31.83,-0.26,0.837,-0.123
31.84,-0.275,1.188,-0.112
31.85,-0.255,0.875,0.091
31.86,-0.035,1.019,0.155
31.87,-0.195,0.884,0.021
31.88,-0.375,0.941,-0.134
31.89,-0.195,1.187,-0.067
31.9,-0.032,0.828,0.035
31.91,-0.093,1.008,0.133
31.92,-0.283,0.798,-0.022
31.93,-0.35,1.183,-0.158
31.94,-0.123,0.953,-0.096
31.95,-0.137,1.002,0.082
31.96,-0.165,0.826,0.15
31.97,-0.285,1.02,-0.103
31.98,-0.36,1.043,-0.107
31.99,-0.129,0.83,-0.045
32.0,-0.102,1.153,0.181
32.01,-0.166,0.74,0.058
32.02,-0.329,1.127,-0.146
32.03,-0.212,0.936,-0.108
32.04,-0.114,1.187,0.076
32.05,-0.096,0.822,0.118
32.06,-0.25,0.805,0.009
32.07,-0.364,1.187,-0.119
32.08,-0.124,0.896,-0.088
32.09,-0.127,1.165,0.079
32.1,-0.085,0.696,0.138
32.11,-0.383,1.071,-0.046
32.12,-0.36,0.94,-0.125
32.13,-0.15,0.951,-0.072
32.14,-0.153,1.024,0.131
32.15,-0.132,0.729,0.13
32.16,-0.34,1.195,-0.104
32.17,-0.262,0.748,-0.161
32.18,-0.189,1.135,0.009
32.19,-0.069,0.885,0.189
32.2,-0.142,0.957,0.065
32.21,-0.38,0.995,-0.136
32.22,-0.226,0.815,-0.11
32.23,-0.284,1.27,0.167
32.24,0.011,0.729,0.115
32.25,-0.342,1.043,0.0
32.26,-0.364,0.823,-0.13
32.27,-0.15,1.129,-0.037
32.28,-0.043,0.979,0.032
32.29,-0.158,0.745,0.109
32.3,-0.304,1.15,-0.026
32.31,-0.21,0.854,-0.16
32.32,-0.256,1.113,-0.052
32.33,0.016,0.735,0.058
32.34,-0.179,1.071,0.117
32.35,-0.291,0.944,-0.132
32.36,-0.337,0.9,-0.096
32.37,-0.171,1.093,0.06
32.38,0.059,0.83,0.114
32.39,-0.218,1.096,0.022
32.4,-0.327,0.768,-0.162
32.41,-0.279,1.187,-0.063
32.42,-0.012,0.978,0.051
32.43,-0.094,0.92,0.151
32.44,-0.296,0.978,-0.019
32.45,-0.283,0.884,-0.147
32.46,-0.225,1.145,-0.069
32.47,-0.052,0.734,0.045
32.48,-0.141,1.093,0.116
32.49,-0.347,0.875,-0.069
32.5,-0.268,1.083,-0.13
32.51,-0.129,0.973,-0.017
32.52,-0.147,0.848,0.187
32.53,-0.191,1.03,0.097
32.54,-0.311,0.892,-0.124
32.55,-0.304,1.167,-0.153
32.56,-0.164,0.837,0.047
32.57,-0.045,1.062,0.141
32.58,-0.254,0.864,0.011
32.59,-0.357,0.975,-0.134
32.6,-0.127,1.098,-0.093
32.61,-0.036,0.9,0.061
32.62,-0.145,0.996,0.227
32.63,-0.287,0.802,-0.009
32.64,-0.304,1.213,-0.157
32.65,-0.038,0.953,-0.068
32.66,-0.217,0.92,0.106
32.67,-0.108,0.839,0.132
32.68,-0.351,0.977,-0.063
32.69,-0.237,1.194,-0.16
32.7,-0.179,0.787,0.006
32.71,-0.134,1.089,0.201
32.72,-0.126,0.781,0.05
32.73,-0.388,1.075,-0.131
32.74,-0.258,0.946,-0.111
32.75,-0.016,1.204,0.05
32.76,-0.147,0.83,0.124
32.77,-0.323,0.86,-0.044
32.78,-0.289,1.132,-0.127
32.79,-0.075,0.95,-0.058
32.8,-0.2,1.103,0.104
32.81,-0.129,0.655,0.153
32.82,-0.289,1.181,-0.083
32.83,-0.331,0.913,-0.128
32.84,-0.242,0.967,-0.0
32.85,-0.069,1.027,0.216
32.86,-0.143,0.78,0.013
32.87,-0.414,1.125,-0.135
32.88,-0.201,0.79,-0.062
32.89,-0.039,1.288,0.066
32.9,-0.049,0.761,0.139
32.91,-0.317,0.927,-0.009
32.92,-0.328,0.99,-0.106
32.93,-0.103,1.038,-0.075
32.94,-0.186,1.025,0.035
32.95,-0.089,0.634,0.177
32.96,-0.372,1.203,-0.044
32.97,-0.338,0.753,-0.139
32.98,-0.201,1.05,0.0
32.99,-0.078,0.965,0.204
33.0,-0.117,0.897,0.088
33.01,-0.355,1.041,-0.17
33.02,-0.219,0.796,-0.118
33.03,-0.183,1.28,0.077
33.04,0.027,0.733,0.13
33.05,-0.263,1.038,0.004
33.06,-0.377,0.88,-0.095
33.07,-0.209,1.09,-0.09
33.08,-0.118,1.037,0.084
33.09,-0.066,0.727,0.117
33.1,-0.381,1.137,-0.023
33.11,-0.225,0.823,-0.159
33.12,-0.186,1.179,-0.079
33.13,-0.128,0.801,0.138
33.14,-0.192,1.004,0.147
33.15,-0.293,0.991,-0.081
33.16,-0.242,0.867,-0.147
33.17,-0.278,1.149,0.016
33.18,-0.017,0.833,0.164
33.19,-0.201,1.101,0.038
33.2,-0.302,0.784,-0.178
33.21,-0.28,1.152,-0.073
33.22,-0.049,0.987,0.056
33.23,-0.04,0.857,0.148
33.24,-0.318,1.003,0.007
33.25,-0.318,0.862,-0.118
33.26,-0.177,1.186,-0.038
33.27,-0.123,0.751,0.064
33.28,-0.161,1.059,0.14
33.29,-0.281,0.923,-0.081
33.3,-0.301,1.017,-0.142
33.31,-0.169,0.973,-0.058
33.32,-0.074,0.897,0.182
33.33,-0.143,1.089,0.065
33.34,-0.32,0.78,-0.144
33.35,-0.319,1.192,-0.076
33.36,-0.06,0.957,0.017
33.37,-0.109,0.979,0.121
33.38,-0.185,0.852,0.005
33.39,-0.405,1.015,-0.094
33.4,-0.182,1.161,-0.091
33.41,-0.093,0.81,0.056
33.42,-0.13,0.996,0.149
33.43,-0.247,0.822,-0.048
33.44,-0.36,1.215,-0.147
33.45,-0.119,0.866,-0.071
33.46,-0.161,0.95,0.116
33.47,-0.191,0.941,0.149
33.48,-0.261,0.875,-0.108
33.49,-0.297,1.128,-0.142
33.5,-0.2,0.885,0.046
33.51,-0.108,1.105,0.176
33.52,-0.076,0.805,0.046
33.53,-0.093,0.975,-0.011
33.54,-0.155,1.155,0.103
33.55,-0.161,0.687,0.147
33.56,-0.33,1.126,-0.065
33.57,-0.336,0.917,-0.176
33.58,-0.213,0.949,-0.011
33.59,-0.08,1.079,0.187
33.6,-0.099,0.76,0.032
33.61,-0.37,1.132,-0.129
33.62,-0.227,0.819,-0.068
33.63,-0.107,1.283,0.062
33.64,-0.046,0.722,0.129
33.65,-0.299,0.899,-0.011
33.66,-0.326,1.067,-0.098
33.67,-0.176,0.961,-0.083
33.68,-0.163,1.126,0.064
33.69,-0.083,0.659,0.143
33.7,-0.422,1.163,-0.03
33.71,-0.351,0.826,-0.099
33.72,-0.218,1.012,-0.022
33.73,-0.117,0.935,0.15
33.74,-0.118,0.86,0.101
33.75,-0.299,1.106,-0.128
33.76,-0.269,0.753,-0.126
33.77,-0.282,1.238,0.094
33.78,-0.067,0.781,0.191
33.79,-0.17,1.039,0.018
33.8,-0.347,0.881,-0.12
33.81,-0.202,1.015,-0.067
33.82,-0.099,1.141,0.068
33.83,-0.063,0.684,0.136
33.84,-0.237,1.088,-0.003
33.85,-0.359,0.864,-0.123
33.86,-0.201,1.143,-0.087
33.87,-0.331,0.865,0.275
33.88,-0.14,0.944,0.108
33.89,-0.342,1.032,-0.069
33.9,-0.234,0.864,-0.169
33.91,-0.193,1.124,-0.057
33.92,-0.044,0.758,0.15
33.93,-0.206,1.147,0.088
33.94,-0.323,0.813,-0.154
33.95,-0.27,1.04,-0.106
33.96,-0.134,1.07,0.067
33.97,-0.034,0.861,0.098
33.98,-0.289,1.026,0.045
33.99,-0.367,0.84,-0.112
34.0,-0.171,1.255,-0.09
34.01,-0.09,0.758,0.108
34.02,-0.078,0.973,0.19
34.03,-0.271,0.96,-0.038
34.04,-0.317,1.041,-0.181
34.05,-0.297,1.024,-0.054
34.06,-0.12,0.838,0.136
34.07,-0.207,1.096,0.125
34.08,-0.307,0.814,-0.126
34.09,-0.29,1.16,-0.138
34.1,-0.177,0.922,0.006
34.11,-0.045,0.986,0.156
34.12,-0.148,0.909,0.04
34.13,-0.326,0.916,-0.134
34.14,-0.283,1.185,-0.066
34.15,-0.021,0.893,-0.01
34.16,-0.129,1.011,0.128
34.17,-0.255,0.79,-0.017
34.18,-0.319,1.15,-0.123
34.19,-0.17,0.983,-0.071
34.2,-0.16,0.917,0.08
34.21,-0.158,0.958,0.176
34.22,-0.247,0.89,-0.115
34.23,-0.377,1.163,-0.171
34.24,-0.103,0.763,-0.105
34.25,-0.085,1.137,0.183
34.26,-0.158,0.829,0.056
34.27,-0.347,1.03,-0.126
34.28,-0.26,1.054,-0.098
34.29,-0.073,1.083,-0.023
34.3,-0.113,0.852,0.144
34.31,-0.247,0.781,-0.019
34.32,-0.292,1.217,-0.144
34.33,-0.181,0.841,-0.126
34.34,-0.136,1.109,0.112
34.35,-0.026,0.762,0.134
34.36,-0.345,1.05,-0.048
34.37,-0.324,0.915,-0.157
34.38,-0.171,0.927,-0.027
34.39,-0.131,1.13,0.15
34.4,-0.101,0.738,0.069
34.41,-0.381,1.152,-0.136
34.42,-0.209,0.769,-0.114
34.43,-0.24,1.219,0.06
34.44,0.015,0.85,0.113
34.45,-0.199,0.882,0.013
34.46,-0.368,1.045,-0.154
34.47,-0.224,0.908,-0.051
34.48,-0.062,1.234,0.024
34.49,-0.092,0.642,0.162
34.5,-0.325,1.097,-0.029
34.51,-0.357,0.901,-0.128
34.52,-0.257,1.039,-0.026
34.53,-0.129,0.964,0.098
34.54,-0.105,0.759,0.118
34.55,-0.349,1.175,-0.08
34.56,-0.296,0.768,-0.143
34.57,-0.233,1.161,0.025
34.58,-0.047,0.863,0.198
34.59,-0.184,1.001,0.033
34.6,-0.319,0.927,-0.158
34.61,-0.277,0.925,-0.062
34.62,-0.103,1.158,0.031
34.63,-0.03,0.684,0.13
34.64,-0.277,1.119,0.022
34.65,-0.346,0.845,-0.133
34.66,-0.212,1.135,-0.098
34.67,-0.106,0.88,0.105
34.68,-0.104,0.949,0.155
34.69,-0.373,1.037,-0.035
34.7,-0.294,0.834,-0.157
34.71,-0.254,1.135,-0.044
34.72,-0.096,0.76,0.133
34.73,-0.167,1.125,0.156
34.74,-0.273,0.844,-0.155
34.75,-0.265,0.92,-0.121
34.76,-0.22,1.071,0.075
34.77,-0.007,0.893,0.147
34.78,-0.215,1.033,0.047
34.79,-0.362,0.829,-0.133
34.8,-0.173,1.274,-0.094
34.81,-0.091,0.849,-0.008
34.82,-0.089,0.936,0.145
34.83,-0.256,0.944,-0.005
34.84,-0.323,0.99,-0.114
34.85,-0.166,1.051,-0.098
34.86,-0.081,0.801,0.08
34.87,-0.176,1.103,0.167
34.88,-0.29,0.839,-0.083
34.89,-0.368,1.085,-0.124
34.9,-0.198,0.897,-0.021
34.91,-0.102,1.041,0.194
34.92,-0.126,0.943,0.077
34.93,-0.312,0.861,-0.111
34.94,-0.312,1.141,-0.092
34.95,-0.133,0.878,0.044
34.96,0.023,1.059,0.142
34.97,-0.225,0.816,0.027
34.98,-0.346,1.076,-0.144
34.99,-0.175,1.092,-0.047
35.0,-0.092,0.919,0.031
35.01,-0.149,0.91,0.195
35.02,-0.276,0.835,-0.017
35.03,-0.354,1.243,-0.145
35.04,-0.155,0.839,-0.12
35.05,-0.184,1.054,0.113
35.06,-0.09,0.794,0.144
35.07,-0.313,1.004,-0.074
35.08,-0.355,1.038,-0.133
35.09,-0.126,0.849,-0.019
35.1,-0.106,1.061,0.133
35.11,-0.168,0.742,0.054
35.12,-0.35,1.167,-0.127
35.13,-0.19,0.87,-0.061
35.14,-0.121,1.252,0.03
35.15,-0.072,0.712,0.109
35.16,-0.248,0.927,0.032
35.17,-0.307,1.065,-0.127
35.18,-0.175,0.965,-0.097
35.19,-0.204,1.116,0.096
35.2,-0.031,0.642,0.148
35.21,-0.357,1.153,-0.038
35.22,-0.346,0.84,-0.136
35.23,-0.253,0.991,-0.058
35.24,-0.104,0.946,0.172
35.25,-0.059,0.865,0.092
35.26,-0.371,1.07,-0.135
35.27,-0.263,0.728,-0.104
35.28,-0.194,1.261,0.016
35.29,-0.044,0.783,0.159
35.3,-0.197,0.984,0.049
35.31,-0.339,0.895,-0.142
35.32,-0.223,1.037,-0.028
35.33,-0.077,1.092,-0.002
35.34,-0.004,0.678,0.163
35.35,-0.315,1.143,0.005
35.36,-0.3,0.841,-0.119
35.37,-0.198,1.182,-0.077
35.38,-0.132,0.864,0.07
35.39,-0.135,0.882,0.153
35.4,-0.343,1.029,-0.032
35.41,-0.305,0.917,-0.156
35.42,-0.242,1.085,-0.076
35.43,-0.161,0.786,0.2
35.44,-0.11,1.164,0.11
35.45,-0.385,0.837,-0.104
35.46,-0.297,0.956,-0.128
35.47,-0.233,1.014,0.03
35.48,0.0,0.927,0.165
35.49,-0.22,1.013,0.048
35.5,-0.36,0.813,-0.115
35.51,-0.293,1.261,-0.073
35.52,-0.008,0.88,-0.049
35.53,-0.069,1.004,0.138
35.54,-0.241,0.859,-0.011
35.55,-0.386,1.037,-0.107
35.56,-0.126,1.1,-0.081
35.57,-0.091,0.825,0.092
35.58,-0.199,1.006,0.138
35.59,-0.271,0.849,-0.039
35.6,-0.359,1.229,-0.154
35.61,-0.168,0.818,-0.059
35.62,-0.147,1.0,0.151
35.63,-0.145,0.93,0.121
35.64,-0.309,0.896,-0.109
35.65,-0.323,1.069,-0.101
35.66,-0.115,0.87,0.011
35.67,-0.161,1.18,0.172
35.68,-0.221,0.732,0.035
35.69,-0.373,1.115,-0.151
35.7,-0.153,1.01,-0.057
35.71,-0.088,1.053,-0.016
35.72,-0.095,0.876,0.126
35.73,-0.234,0.789,0.018
35.74,-0.337,1.239,-0.184
35.75,-0.147,0.88,-0.07
35.76,-0.143,1.089,0.057
35.77,-0.125,0.697,0.15
35.78,-0.344,1.046,-0.026
35.79,-0.291,1.027,-0.158
35.8,-0.163,0.865,-0.049
35.81,-0.149,1.077,0.132
35.82,-0.111,0.739,0.096
35.83,-0.37,1.177,-0.118
35.84,-0.249,0.793,-0.129
35.85,-0.216,1.187,0.048
35.86,-0.029,0.881,0.124
35.87,-0.234,0.791,0.038
35.88,-0.337,1.112,-0.128
35.89,-0.199,0.926,-0.063
35.9,-0.045,1.084,0.031
35.91,-0.066,0.682,0.127
35.92,-0.441,1.148,0.02
35.93,-0.273,0.815,-0.168
35.94,-0.257,1.131,-0.071
35.95,-0.102,0.841,0.091
35.96,-0.163,0.959,0.178
35.97,-0.272,1.031,-0.097
35.98,-0.292,0.757,-0.116
35.99,-0.276,1.146,0.03
36.0,-0.037,0.86,0.187
36.01,-0.156,1.084,0.06
36.02,-0.303,0.814,-0.138
36.03,-0.288,1.017,-0.105
36.04,-0.083,1.115,-0.003
36.05,-0.028,0.797,0.123
36.06,-0.251,1.057,0.057
36.07,-0.372,0.809,-0.127
36.08,-0.179,1.215,-0.078
36.09,-0.176,0.851,0.076
36.1,-0.007,0.921,0.128
36.11,-0.358,0.997,0.007
36.12,-0.265,0.941,-0.164
36.13,-0.273,1.096,-0.062
36.14,-0.052,0.781,0.095
36.15,-0.221,1.166,0.185
36.16,-0.268,0.859,-0.083
36.17,-0.357,1.097,-0.113
36.18,-0.22,0.863,-0.047
36.19,-0.071,0.966,0.17
36.2,-0.161,1.027,0.074
36.21,-0.287,0.829,-0.14
36.22,-0.316,1.126,-0.116
36.23,-0.071,0.898,0.083
36.24,-0.071,1.1,0.129
36.25,-0.221,0.769,0.025
36.26,-0.4,1.076,-0.119
36.27,-0.099,1.124,-0.071
36.28,-0.092,0.938,-0.003
36.29,-0.123,0.925,0.152
36.3,-0.24,0.818,-0.034
36.31,-0.403,1.288,-0.161
36.32,-0.174,0.79,-0.076
36.33,-0.111,1.066,0.126
36.34,-0.118,0.842,0.149
36.35,-0.336,0.964,-0.071
36.36,-0.369,1.041,-0.128
36.37,-0.142,0.888,-0.028
36.38,-0.168,1.217,0.172
36.39,-0.091,0.675,0.043
36.4,-0.386,1.115,-0.125
36.41,-0.19,0.887,-0.059
36.42,-0.147,1.172,0.046
36.43,-0.036,0.901,0.112
36.44,-0.214,0.774,0.027
36.45,-0.338,1.159,-0.134
36.46,-0.19,0.919,-0.067
36.47,-0.175,1.188,0.035
36.48,-0.118,0.685,0.183
36.49,-0.363,0.999,-0.022
36.5,-0.343,0.99,-0.117
36.51,-0.102,0.98,-0.078
36.52,-0.099,1.041,0.223
36.53,-0.076,0.705,0.13
36.54,-0.358,1.187,-0.083
36.55,-0.279,0.821,-0.168
36.56,-0.207,1.078,-0.005
36.57,-0.104,0.89,0.175
36.58,-0.164,0.884,0.071
36.59,-0.375,1.046,-0.119
36.6,-0.242,0.81,-0.085
36.61,-0.197,1.243,0.084
36.62,0.027,0.703,0.125
36.63,-0.242,1.049,0.034
36.64,-0.311,0.864,-0.173
36.65,-0.243,1.099,-0.065
36.66,-0.114,0.995,0.035
36.67,-0.076,0.712,0.139
36.68,-0.353,1.114,0.036
36.69,-0.28,0.843,-0.146
36.7,-0.238,1.09,-0.035
36.71,-0.078,0.754,0.152
36.72,-0.163,1.143,0.125
36.73,-0.251,0.85,-0.139
36.74,-0.328,0.957,-0.139
36.75,-0.146,0.988,0.037
36.76,-0.033,0.976,0.144
36.77,-0.183,1.024,0.042
36.78,-0.305,0.808,-0.133
36.79,-0.278,1.231,-0.061
36.8,-0.031,0.915,0.027
36.81,-0.153,0.983,0.13
36.82,-0.169,0.863,-0.005
36.83,-0.333,1.073,-0.142
36.84,-0.184,1.088,-0.079
36.85,-0.081,0.777,0.074
36.86,-0.18,1.073,0.192
36.87,-0.257,0.831,-0.047
36.88,-0.337,1.153,-0.169
36.89,-0.199,0.83,0.005
36.9,-0.085,1.028,0.126
36.91,-0.129,0.96,0.101
36.92,-0.347,0.896,-0.098
36.93,-0.285,1.086,-0.099
36.94,-0.163,0.908,0.059
36.95,-0.073,1.151,0.145
36.96,-0.195,0.731,0.052
36.97,-0.334,1.106,-0.118
36.98,-0.283,1.065,-0.097
36.99,-0.09,0.99,0.003
37.0,-0.076,0.889,0.144
37.01,-0.268,0.786,-0.035
37.02,-0.365,1.238,-0.136
37.03,-0.138,0.891,-0.126
37.04,-0.142,1.062,0.122
37.05,-0.074,0.73,0.122
37.06,-0.359,1.021,-0.007
37.07,-0.384,1.086,-0.136
37.08,-0.186,0.879,-0.038
37.09,-0.19,1.104,0.144
37.1,-0.125,0.695,0.106
37.11,-0.388,1.162,-0.108
37.12,-0.218,0.819,-0.138
37.13,-0.217,1.12,0.017
37.14,-0.072,0.911,0.161
37.15,-0.173,0.815,0.027
37.16,-0.402,1.08,-0.138
37.17,-0.183,0.825,-0.066
37.18,-0.064,1.261,0.005
37.19,-0.05,0.659,0.161
37.2,-0.273,1.018,-0.01
37.21,-0.338,0.938,-0.128
37.22,-0.212,1.006,-0.071
37.23,-0.102,1.017,0.094
37.24,-0.109,0.729,0.141
37.25,-0.367,1.151,-0.045
37.26,-0.318,0.789,-0.113
37.27,-0.209,1.139,-0.046
37.28,-0.11,0.853,0.155
37.29,-0.163,0.943,0.089
37.3,-0.276,1.042,-0.09
37.31,-0.31,0.852,-0.114
37.32,-0.199,1.179,0.02
37.33,-0.047,0.728,0.161
37.34,-0.21,1.112,0.052
37.35,-0.339,0.848,-0.176
37.36,-0.261,1.048,-0.075
37.37,-0.113,1.028,0.092
37.38,-0.04,0.837,0.166
37.39,-0.273,1.043,-0.006
37.4,-0.368,0.837,-0.126
37.41,-0.157,1.216,-0.092
37.42,-0.129,0.808,0.099
37.43,-0.135,0.976,0.082
37.44,-0.335,0.933,-0.093
37.45,-0.246,1.007,-0.138
37.46,-0.135,1.052,-0.061
37.47,-0.074,0.805,0.145
37.48,-0.191,1.102,0.108
37.49,-0.319,0.858,-0.12
37.5,-0.27,1.123,-0.087
37.51,-0.158,0.847,0.09
37.52,-0.084,1.099,0.199
37.53,-0.18,0.833,0.003
37.54,-0.385,1.008,-0.115
37.55,-0.185,1.074,-0.048
37.56,-0.068,0.963,0.105
37.57,-0.136,0.97,0.145
37.58,-0.282,0.766,-0.076
37.59,-0.358,1.274,-0.131
37.6,-0.161,0.852,-0.052
37.61,-0.131,1.008,0.138
37.62,-0.158,0.87,0.138
37.63,-0.318,0.974,-0.121
37.64,-0.312,1.083,-0.092
37.65,-0.151,0.892,0.013
37.66,-0.078,1.138,0.165
37.67,-0.148,0.685,0.025
37.68,-0.418,1.163,-0.123
37.69,-0.192,0.977,-0.064
37.7,-0.138,1.018,0.013
37.71,-0.062,0.866,0.164
37.72,-0.274,0.835,-0.044
37.73,-0.412,1.231,-0.123
37.74,-0.108,0.818,-0.106
37.75,-0.113,1.116,0.137
37.76,-0.071,0.731,0.103
37.77,-0.354,1.021,-0.084
37.78,-0.294,0.933,-0.13
37.79,-0.161,0.929,-0.009
37.8,-0.15,1.113,0.178
37.81,-0.121,0.698,0.057
37.82,-0.364,1.163,-0.122
37.83,-0.238,0.86,-0.111
37.84,-0.118,1.239,0.041
37.85,-0.033,0.816,0.132
37.86,-0.177,0.84,-0.001
37.87,-0.4,1.111,-0.135
37.88,-0.146,0.893,-0.093
37.89,-0.097,1.17,0.038
37.9,-0.112,0.606,0.114
37.91,-0.369,1.122,0.013
37.92,-0.276,0.904,-0.128
37.93,-0.186,0.987,-0.062
37.94,-0.162,0.939,0.117
37.95,-0.117,0.791,0.154
37.96,-0.361,1.157,-0.098
37.97,-0.234,0.76,-0.163
37.98,-0.185,1.176,-0.018
37.99,-0.036,0.795,0.138
38.0,-0.209,1.003,0.061
38.01,-0.367,0.965,-0.142
38.02,-0.228,0.91,-0.115
38.03,-0.163,1.183,0.076
38.04,-0.009,0.71,0.166
38.05,-0.245,1.108,-0.015
38.06,-0.445,0.81,-0.125
38.07,-0.163,1.127,-0.063
38.08,-0.057,0.91,0.051
38.09,-0.138,0.867,0.152
38.1,-0.287,1.055,-0.057
38.11,-0.319,0.838,-0.119
38.12,-0.246,1.107,0.01
38.13,-0.087,0.764,0.131
38.14,-0.201,1.113,0.116
38.15,-0.325,0.89,-0.148
38.16,-0.3,0.967,-0.12
38.17,-0.172,1.066,0.064
38.18,0.013,0.844,0.148
38.19,-0.24,1.048,0.037
38.2,-0.364,0.812,-0.135
38.21,-0.277,1.207,-0.072
38.22,-0.082,0.856,0.038
38.23,-0.076,0.903,0.122
38.24,-0.332,0.962,0.005
38.25,-0.245,0.998,-0.177
38.26,-0.262,1.071,-0.078
38.27,-0.086,0.782,0.147
38.28,-0.185,1.135,0.15
38.29,-0.304,0.824,-0.09
38.3,-0.317,1.153,-0.118
38.31,-0.186,0.88,0.039
38.32,-0.081,1.072,0.142
38.33,-0.185,0.836,0.069
38.34,-0.353,0.98,-0.149
38.35,-0.313,1.127,-0.045
38.36,-0.063,0.889,0.035
38.37,-0.107,1.001,0.162
38.38,-0.268,0.792,-0.016
38.39,-0.32,1.245,-0.149
38.4,-0.169,0.916,-0.058
38.41,-0.112,0.982,0.103
38.42,-0.243,0.913,0.178
38.43,-0.312,0.901,-0.085
38.44,-0.247,1.141,-0.139
38.45,-0.159,0.862,-0.036
38.46,-0.122,1.08,0.164
38.47,-0.107,0.811,0.069
38.48,-0.352,1.088,-0.156
38.49,-0.267,0.919,-0.11
38.5,-0.151,1.061,0.092
38.51,-0.064,0.943,0.127
38.52,-0.229,0.725,0.003
38.53,-0.394,1.235,-0.148
38.54,-0.094,0.888,-0.069
38.55,-0.134,1.129,0.066
38.56,-0.093,0.679,0.116
38.57,-0.336,0.992,-0.047
38.58,-0.344,1.075,-0.117
38.59,-0.171,0.852,-0.064
38.6,-0.131,1.064,0.132
38.61,-0.21,0.746,0.146
38.62,-0.334,1.155,-0.137
38.63,-0.255,0.806,-0.146
38.64,-0.168,1.126,0.058
38.65,-0.031,0.932,0.174
38.66,-0.246,0.783,0.039
38.67,-0.344,1.12,-0.148
38.68,-0.176,0.896,-0.079
38.69,-0.014,1.209,-0.047
38.7,-0.043,0.667,0.152
38.71,-0.379,1.031,0.005
38.72,-0.304,0.925,-0.127
38.73,-0.143,1.036,-0.073
38.74,-0.178,0.996,0.12
38.75,-0.163,0.685,0.159
38.76,-0.384,1.209,-0.071
38.77,-0.24,0.773,-0.15
38.78,-0.222,1.105,-0.024
38.79,-0.105,0.834,0.22
38.8,-0.123,0.968,0.068
38.81,-0.346,0.96,-0.122
38.82,-0.195,0.852,-0.111
38.83,-0.15,1.255,0.066
38.84,-0.061,0.68,0.161
38.85,-0.262,1.071,-0.002
38.86,-0.372,0.861,-0.126
38.87,-0.165,1.125,-0.07
38.88,-0.14,0.963,0.079
38.89,-0.115,0.801,0.146
38.9,-0.363,1.112,-0.014
38.91,-0.245,0.825,-0.194
38.92,-0.271,1.131,-0.022
38.93,-0.08,0.729,0.131
38.94,-0.152,1.102,0.115
38.95,-0.315,0.912,-0.134
38.96,-0.284,0.936,-0.113
38.97,-0.11,1.126,0.016
38.98,-0.052,0.814,0.139
38.99,-0.294,1.069,0.059
39.0,-0.352,0.799,-0.123
39.01,-0.17,1.239,-0.081
39.02,-0.192,0.875,0.182
39.03,-0.055,0.873,0.157
39.04,-0.22,0.928,-0.039
39.05,-0.321,1.04,-0.2
39.06,-0.222,0.935,-0.048
39.07,-0.131,0.895,0.197
39.08,-0.155,1.079,0.091
39.09,-0.4,0.823,-0.09
39.1,-0.266,1.203,-0.067
39.11,-0.045,0.896,-0.01
39.12,-0.084,0.995,0.108
39.13,-0.209,0.787,0.017
39.14,-0.298,1.116,-0.139
39.15,-0.234,1.078,-0.064
39.16,-0.144,0.905,0.089
39.17,-0.125,0.936,0.129
39.18,-0.315,0.851,-0.022
39.19,-0.355,1.213,-0.185
39.2,-0.198,0.781,-0.032
39.21,-0.086,1.091,0.1
39.22,-0.123,0.857,0.096
39.23,-0.334,0.981,-0.122
39.24,-0.276,0.994,-0.147
39.25,-0.145,0.9,0.016
39.26,-0.138,1.147,0.153
39.27,-0.11,0.706,0.007
39.28,-0.476,1.17,-0.102
39.29,-0.193,0.92,-0.081
39.3,-0.05,1.156,0.053
39.31,-0.191,0.808,0.183
39.32,-0.295,0.833,0.01
39.33,-0.268,1.231,-0.193
39.34,-0.115,0.861,-0.083
39.35,-0.172,1.089,0.079
39.36,-0.117,0.692,0.18
39.37,-0.334,1.094,-0.098
39.38,-0.311,0.927,-0.125
39.39,-0.225,0.982,0.038
39.4,-0.1,1.058,0.156
39.41,-0.157,0.719,0.034
39.42,-0.385,1.177,-0.157
39.43,-0.18,0.88,-0.066
39.44,-0.077,1.163,0.009
39.45,-0.104,0.717,0.186
39.46,-0.271,0.957,0.008
39.47,-0.349,1.068,-0.139
39.48,-0.143,0.896,-0.102
39.49,-0.209,1.122,0.134
39.5,-0.074,0.657,0.113
39.51,-0.339,1.192,-0.08
39.52,-0.33,0.799,-0.149
39.53,-0.182,1.044,-0.051
39.54,-0.118,0.987,0.164
39.55,-0.143,0.802,0.052
39.56,-0.352,1.118,-0.1
39.57,-0.19,0.775,-0.137
39.58,-0.198,1.307,0.101
39.59,0.005,0.729,0.094
39.6,-0.249,1.006,0.022
39.61,-0.329,0.913,-0.143
39.62,-0.167,1.042,-0.08
39.63,-0.184,1.046,0.087
39.64,-0.039,0.678,0.167
39.65,-0.35,1.177,-0.024
39.66,-0.282,0.804,-0.167
39.67,-0.23,1.103,-0.084
39.68,0.002,0.825,0.107
39.69,-0.118,1.004,0.11
39.7,-0.337,1.013,-0.122
39.71,-0.298,0.8,-0.092
39.72,-0.182,1.182,0.038
39.73,-0.049,0.814,0.156
39.74,-0.279,1.067,0.041
39.75,-0.362,0.807,-0.141
39.76,-0.226,1.156,-0.065
39.77,-0.007,1.0,-0.046
39.78,-0.06,0.752,0.147
39.79,-0.307,1.076,-0.011
39.8,-0.224,0.861,-0.166
39.81,-0.223,1.146,-0.066
39.82,-0.092,0.785,0.121
39.83,-0.155,1.061,0.166
39.84,-0.341,0.918,-0.099
39.85,-0.212,0.939,-0.169
39.86,-0.208,1.123,-0.012
39.87,-0.034,0.821,0.142
39.88,-0.179,1.058,0.056
39.89,-0.331,0.808,-0.137
39.9,-0.246,1.221,-0.029
39.91,-0.05,0.828,0.056
39.92,-0.126,0.996,0.16
39.93,-0.281,0.863,-0.02
39.94,-0.303,1.1,-0.128
39.95,-0.127,1.04,-0.103
39.96,-0.113,0.872,0.081
39.97,-0.233,1.037,0.186
39.98,-0.219,0.819,-0.141
39.99,-0.287,1.152,-0.142
40.0,-0.155,0.91,-0.01
40.01,-0.084,1.054,0.171
40.02,-0.141,0.859,0.056
40.03,-0.363,0.929,-0.123
40.04,-0.254,1.163,-0.085
40.05,-0.076,0.944,0.056
40.06,-0.099,1.001,0.106
40.07,-0.226,0.759,0.002
40.08,-0.322,1.198,-0.159
40.09,-0.142,0.972,-0.099
40.1,-0.178,0.951,0.12
40.11,-0.098,0.879,0.157
40.12,-0.331,0.896,-0.055
40.13,-0.37,1.165,-0.138
40.14,-0.121,0.828,-0.007
40.15,-0.135,1.156,0.158
40.16,-0.121,0.756,0.08
40.17,-0.383,1.083,-0.126
40.18,-0.253,0.977,-0.135
40.19,-0.157,1.003,0.056
40.2,-0.046,1.013,0.128
40.21,-0.175,0.734,0.024
40.22,-0.451,1.222,-0.159
40.23,-0.07,0.906,-0.099
40.24,-0.156,1.111,0.074
40.25,-0.079,0.692,0.163
40.26,-0.377,0.972,-0.006
40.27,-0.311,1.068,-0.16
40.28,-0.202,0.844,-0.043
40.29,-0.143,1.16,0.138
40.3,-0.141,0.732,0.127
40.31,-0.389,1.118,-0.117
40.32,-0.254,0.821,-0.132
40.33,-0.169,1.126,0.018
40.34,-0.075,0.961,0.161
40.35,-0.161,0.757,0.048
40.36,-0.354,1.152,-0.139
40.37,-0.219,0.871,-0.099
40.38,-0.151,1.24,0.012
40.39,-0.051,0.702,0.138
40.4,-0.298,0.993,-0.014
40.41,-0.336,0.975,-0.163
40.42,-0.162,0.965,-0.064
40.43,-0.153,1.076,0.133
40.44,-0.079,0.695,0.16
40.45,-0.385,1.173,-0.074
40.46,-0.341,0.756,-0.12
40.47,-0.157,1.142,-0.028
40.48,-0.123,0.903,0.142
40.49,-0.153,0.902,0.105
40.5,-0.363,1.042,-0.149
40.51,-0.191,0.84,-0.08
40.52,-0.031,1.227,-0.01
40.53,-0.013,0.675,0.12
40.54,-0.21,1.069,0.017
40.55,-0.349,0.854,-0.147
40.56,-0.165,1.051,-0.06
40.57,-0.148,1.04,0.11
40.58,-0.022,0.798,0.115
40.59,-0.391,1.132,-0.012
40.6,-0.295,0.75,-0.149
40.61,-0.235,1.16,0.007
40.62,-0.058,0.791,0.141
40.63,-0.173,1.042,0.075
40.64,-0.361,0.948,-0.104
40.65,-0.26,0.948,-0.117
40.66,-0.155,1.172,0.081
40.67,-0.047,0.726,0.126
40.68,-0.24,1.103,0.071
40.69,-0.35,0.843,-0.151
40.7,-0.216,1.187,-0.09
40.71,-0.151,0.829,0.088
40.72,-0.083,1.008,0.138
40.73,-0.311,0.921,-0.07
40.74,-0.338,1.006,-0.182
40.75,-0.209,1.006,-0.029
40.76,-0.083,0.843,0.148
40.77,-0.187,1.095,0.114
40.78,-0.341,0.809,-0.118
40.79,-0.245,1.129,-0.117
40.8,-0.156,0.932,0.017
40.81,-0.098,0.955,0.173
40.82,-0.193,0.909,0.022
40.83,-0.406,0.897,-0.145
40.84,-0.186,1.184,-0.073
40.85,-0.055,0.881,0.045
40.86,-0.102,0.984,0.165
40.87,-0.255,0.83,-0.039
40.88,-0.366,1.147,-0.154
40.89,-0.154,0.907,-0.103
40.9,-0.078,0.9,0.153
40.91,-0.177,0.962,0.12
40.92,-0.337,0.891,-0.084
40.93,-0.315,1.15,-0.11
40.94,-0.162,0.886,0.038
40.95,-0.071,1.082,0.124
40.96,-0.153,0.788,0.036
40.97,-0.356,1.039,-0.155
40.98,-0.195,1.135,-0.062
40.99,-0.133,0.912,0.036
41.0,-0.079,0.954,0.132
41.01,-0.316,0.802,0.001
41.02,-0.363,1.214,-0.159
41.03,-0.201,0.861,-0.081
41.04,-0.107,1.062,0.1
41.05,-0.135,0.895,0.148
41.06,-0.352,0.945,-0.101
41.07,-0.261,1.071,-0.164
41.08,-0.158,0.864,-0.01
41.09,-0.107,1.132,0.166
41.1,-0.141,0.75,0.038
41.11,-0.367,1.149,-0.134
41.12,-0.26,0.946,-0.096
41.13,-0.12,1.056,0.084
41.14,-0.049,0.911,0.126
41.15,-0.257,0.758,0.002
41.16,-0.416,1.216,-0.123
41.17,-0.1,0.904,-0.085
41.18,-0.154,1.16,0.087
41.19,-0.074,0.715,0.133
41.2,-0.371,1.086,-0.016
41.21,-0.327,0.977,-0.15
41.22,-0.216,0.894,-0.002
41.23,-0.141,1.103,0.145
41.24,-0.121,0.723,0.098
41.25,-0.352,1.14,-0.136
41.26,-0.256,0.791,-0.11
41.27,-0.165,1.176,0.055
41.28,-0.02,0.873,0.127
41.29,-0.2,0.869,0.032
41.3,-0.356,1.102,-0.176
41.31,-0.163,0.9,-0.085
41.32,-0.173,1.151,0.097
41.33,-0.078,0.663,0.177
41.34,-0.363,1.105,-0.011
41.35,-0.328,0.921,-0.151
41.36,-0.189,1.011,-0.004
41.37,-0.092,1.041,0.134
41.38,-0.091,0.774,0.095
41.39,-0.379,1.148,-0.085
41.4,-0.199,0.768,-0.159
41.41,-0.265,1.262,0.049
41.42,-0.054,0.772,0.132
41.43,-0.183,0.958,0.074
41.44,-0.406,0.99,-0.153
41.45,-0.188,0.961,-0.061
41.46,-0.077,1.16,-0.039
41.47,-0.031,0.637,0.162
41.48,-0.291,1.12,-0.015
41.49,-0.316,0.881,-0.122
41.5,-0.279,1.103,-0.093
41.51,-0.098,0.768,0.088
41.52,-0.147,1.048,0.168
41.53,-0.278,0.92,-0.118
41.54,-0.333,0.901,-0.137
41.55,-0.301,1.058,0.051
41.56,-0.019,0.822,0.14
41.57,-0.212,1.131,0.085
41.58,-0.353,0.767,-0.134
41.59,-0.236,1.113,-0.065
41.6,-0.085,1.023,0.05
41.61,-0.135,0.87,0.167
41.62,-0.218,0.965,0.018
41.63,-0.337,0.908,-0.119
41.64,-0.161,1.19,-0.075
41.65,-0.064,0.825,0.024
41.66,-0.101,1.013,0.121
41.67,-0.323,0.883,-0.051
41.68,-0.298,1.1,-0.173
41.69,-0.2,0.941,-0.075
41.7,-0.124,0.872,0.171
41.71,-0.232,1.073,0.135
41.72,-0.307,0.805,-0.155
41.73,-0.302,1.148,-0.072
41.74,-0.106,0.91,0.073
41.75,-0.046,1.028,0.145
41.76,-0.205,0.877,0.016
41.77,-0.381,0.961,-0.142
41.78,-0.186,1.162,-0.067
41.79,-0.079,0.906,0.054
41.8,-0.151,0.953,0.151
41.81,-0.267,0.845,0.008
41.82,-0.285,1.236,-0.167
41.83,-0.274,0.838,-0.059
41.84,-0.135,0.964,0.129
41.85,-0.11,0.952,0.154
41.86,-0.319,0.895,-0.162
41.87,-0.172,0.942,0.084
41.88,-0.118,0.944,0.143
41.89,-0.185,0.725,-0.024
41.9,-0.352,1.267,-0.095
41.91,-0.168,0.976,-0.097
41.92,-0.178,0.937,0.112
41.93,-0.105,0.813,0.164
41.94,-0.382,0.894,-0.032
41.95,-0.373,1.194,-0.111
41.96,-0.167,0.816,-0.056
41.97,-0.191,1.121,0.146
41.98,-0.187,0.767,0.129
41.99,-0.315,1.062,-0.127
42.0,-0.242,0.946,-0.145
42.01,-0.162,0.945,-0.011
42.02,-0.092,1.068,0.157
42.03,-0.198,0.717,0.052
42.04,-0.377,1.176,-0.138
42.05,-0.164,0.915,-0.06
42.06,-0.109,1.201,0.033
42.07,-0.016,0.719,0.081
42.08,-0.277,0.952,-0.013
42.09,-0.342,1.12,-0.154
42.1,-0.095,0.887,-0.079
42.11,-0.172,1.098,0.166
42.12,-0.059,0.678,0.114
42.13,-0.375,1.16,-0.068
42.14,-0.258,0.823,-0.153
42.15,-0.227,1.066,-0.022
42.16,-0.1,0.973,0.173
42.17,-0.197,0.817,0.044
42.18,-0.372,1.11,-0.162
42.19,-0.29,0.853,-0.047
42.2,-0.068,1.265,0.009
42.21,-0.095,0.645,0.16
42.22,-0.251,0.982,0.013
42.23,-0.39,1.03,-0.099
42.24,-0.138,0.954,-0.089
42.25,-0.189,0.919,0.123
42.26,-0.107,0.851,0.153
42.27,-0.343,1.113,-0.086
42.28,-0.246,0.739,-0.139
42.29,-0.266,1.215,0.001
42.3,-0.023,0.815,0.163
42.31,-0.173,1.008,0.062
42.32,-0.335,0.854,-0.17
42.33,-0.252,1.03,-0.055
42.34,-0.053,1.124,0.003
42.35,-0.052,0.706,0.155
42.36,-0.299,1.109,-0.002
42.37,-0.269,0.839,-0.122
42.38,-0.279,1.166,-0.044
42.39,-0.094,0.802,0.058
42.4,-0.153,0.983,0.154
42.41,-0.277,1.015,-0.097
42.42,-0.295,0.805,-0.139
42.43,-0.227,1.113,-0.029
42.44,-0.039,0.833,0.16
42.45,-0.196,1.123,0.068
42.46,-0.264,0.798,-0.154
42.47,-0.27,1.076,-0.105
42.48,-0.19,1.056,0.079
42.49,-0.025,0.87,0.163
42.5,-0.23,0.991,0.014
42.51,-0.379,0.841,-0.116
42.52,-0.219,1.25,-0.075
42.53,-0.096,0.846,0.045
42.54,-0.064,0.981,0.153
42.55,-0.301,0.916,-0.039
42.56,-0.34,1.04,-0.145
42.57,-0.179,1.039,-0.053
42.58,-0.101,0.816,0.143
42.59,-0.19,1.082,0.132
42.6,-0.272,0.846,-0.094
42.61,-0.351,1.136,-0.139
42.62,-0.173,0.862,0.027
42.63,-0.059,1.01,0.172
42.64,-0.124,0.914,0.042
42.65,-0.364,0.931,-0.146
42.66,-0.238,1.18,-0.044
42.67,-0.057,0.915,0.016
42.68,-0.105,0.99,0.114
42.69,-0.255,0.764,0.015
42.7,-0.252,1.213,-0.172
42.71,-0.189,0.947,-0.073
42.72,-0.12,0.905,0.112
42.73,-0.206,0.99,0.177
42.74,-0.312,0.868,-0.092
42.75,-0.314,1.137,-0.131
42.76,-0.185,0.827,-0.017
42.77,-0.147,1.137,0.182
42.78,-0.101,0.835,0.039
42.79,-0.374,1.015,-0.127
42.8,-0.238,1.024,-0.114
42.81,-0.111,0.981,0.098
42.82,-0.1,1.03,0.129
42.83,-0.246,0.715,0.026
42.84,-0.362,1.214,-0.152
42.85,-0.076,0.98,-0.078
42.86,-0.384,1.081,0.099
42.87,-0.191,0.776,0.164
42.88,-0.245,0.942,-0.063
42.89,-0.422,1.135,-0.119
42.9,-0.116,0.806,-0.063
42.91,-0.14,1.121,0.129
42.92,-0.126,0.759,0.135
42.93,-0.347,1.106,-0.146
42.94,-0.281,0.832,-0.155
42.95,-0.155,1.089,0.049
42.96,-0.036,0.981,0.15
42.97,-0.193,0.737,0.034
42.98,-0.383,1.198,-0.14
42.99,-0.118,0.883,-0.108
43.0,-0.186,1.241,0.117
43.01,0.011,0.692,0.126
43.02,-0.379,0.998,-0.033
43.03,-0.323,1.018,-0.155
43.04,-0.156,0.923,-0.092
43.05,-0.138,0.943,0.155
43.06,-0.141,0.835,0.13
43.07,-0.322,1.131,-0.116
43.08,-0.231,0.74,-0.127
43.09,-0.177,1.27,0.015
43.1,-0.053,0.79,0.128
43.11,-0.203,0.994,0.059
43.12,-0.306,0.942,-0.171
43.13,-0.19,1.011,-0.086
43.14,-0.075,1.147,0.033
43.15,-0.125,0.661,0.145
43.16,-0.288,1.117,0.01
43.17,-0.264,0.877,-0.135
43.18,-0.183,1.141,-0.091
43.19,-0.094,0.85,0.057
43.2,-0.102,0.887,0.123
43.21,-0.341,1.048,-0.08
43.22,-0.285,0.803,-0.16
43.23,-0.292,1.152,0.03
43.24,-0.06,0.804,0.141
43.25,-0.205,1.092,0.07
43.26,-0.346,0.821,-0.148
43.27,-0.192,1.044,-0.082
43.28,-0.076,1.101,0.017
43.29,-0.017,0.791,0.096
43.3,-0.279,1.035,0.006
43.31,-0.287,0.831,-0.101
43.32,-0.102,1.241,-0.081
43.33,-0.144,0.78,0.092
43.34,-0.094,0.967,0.118
43.35,-0.33,0.958,-0.068
43.36,-0.272,0.988,-0.172
43.37,-0.196,1.054,-0.048
43.38,-0.091,0.796,0.159
43.39,-0.211,1.076,0.102
43.4,-0.23,0.826,-0.119
43.41,-0.279,1.151,-0.148
43.42,-0.154,0.896,0.016
43.43,-0.062,0.965,0.158
43.44,-0.18,0.975,0.027
43.45,-0.362,0.856,-0.148
43.46,-0.201,1.17,-0.085
43.47,-0.071,0.911,0.069
43.48,-0.132,1.003,0.156
43.49,-0.272,0.814,-0.035
43.5,-0.29,1.11,-0.132
43.51,-0.146,0.988,-0.068
43.52,-0.085,0.85,0.071
43.53,-0.144,1.005,0.119
43.54,-0.314,0.904,-0.141
43.55,-0.272,1.177,-0.126
43.56,-0.201,0.805,0.102
43.57,0.007,1.101,0.172
43.58,-0.237,0.862,0.019
43.59,-0.405,0.958,-0.145
43.6,-0.217,1.147,-0.033
43.61,-0.034,0.928,-0.0
43.62,-0.129,0.938,0.157
43.63,-0.229,0.799,-0.038
43.64,-0.287,1.223,-0.195
43.65,-0.158,0.888,-0.063
43.66,-0.116,0.998,0.127
43.67,-0.146,0.912,0.131
43.68,-0.37,0.903,-0.095
43.69,-0.246,1.104,-0.119
43.7,-0.135,0.915,0.037
43.71,-0.052,1.11,0.124
43.72,-0.168,0.75,0.02
43.73,-0.411,1.107,-0.168
43.74,-0.139,1.027,-0.081
43.75,-0.094,1.006,0.046
43.76,-0.13,0.882,0.184
43.77,-0.291,0.835,-0.02
43.78,-0.382,1.251,-0.151
43.79,-0.132,0.821,-0.061
43.8,-0.186,1.104,0.12
43.81,-0.135,0.808,0.155
43.82,-0.331,1.011,-0.105
43.83,-0.259,1.013,-0.135
43.84,-0.205,0.934,0.004
43.85,-0.092,0.909,0.171
43.86,-0.221,0.761,0.009
43.87,-0.413,1.199,-0.13
43.88,-0.141,0.899,-0.077
43.89,-0.128,1.218,0.016
43.9,-0.075,0.621,0.134
43.91,-0.315,1.029,-0.02
43.92,-0.275,1.06,-0.155
43.93,-0.099,0.916,-0.075
43.94,-0.139,1.066,0.143
43.95,-0.14,0.7,0.126
43.96,-0.319,1.236,-0.11
43.97,-0.304,0.829,-0.13
43.98,-0.181,1.105,0.003
43.99,-0.043,0.939,0.196
44.0,-0.238,0.895,0.024
44.01,-0.356,1.057,-0.152
44.02,-0.147,0.903,-0.08
44.03,-0.442,1.258,0.269
44.04,-0.102,0.615,0.12
44.05,-0.323,1.083,-0.017
44.06,-0.287,0.937,-0.118
44.07,-0.181,1.051,-0.069
44.08,-0.317,0.941,0.167
44.09,-0.166,0.76,0.139
44.1,-0.321,1.187,-0.113
44.11,-0.284,0.79,-0.14
44.12,-0.256,1.161,0.012
44.13,0.044,0.819,0.16
44.14,-0.204,1.002,0.04
44.15,-0.391,0.963,-0.157
44.16,-0.136,0.977,-0.068
44.17,-0.163,1.152,0.025
44.18,-0.07,0.632,0.174
44.19,-0.347,1.167,-0.011
44.2,-0.283,0.838,-0.16
44.21,-0.255,1.092,-0.036
44.22,-0.167,0.905,0.145
44.23,-0.042,0.881,0.119
44.24,-0.361,1.066,-0.112
44.25,-0.241,0.766,-0.139
44.26,-0.187,1.263,0.069
44.27,-0.033,0.74,0.129
44.28,-0.246,1.058,0.087
44.29,-0.255,0.917,-0.159
44.3,-0.243,1.119,-0.107
44.31,-0.122,1.012,0.056
44.32,-0.038,0.77,0.181
44.33,-0.341,1.072,-0.031
44.34,-0.291,0.796,-0.162
44.35,-0.264,1.194,-0.022
44.36,-0.05,0.808,0.099
44.37,-0.158,1.008,0.133
44.38,-0.358,0.962,-0.082
44.39,-0.234,0.884,-0.118
44.4,-0.142,1.124,-0.023
44.41,-0.107,0.802,0.245
44.42,-0.21,1.103,0.04
44.43,-0.332,0.789,-0.153
44.44,-0.209,1.166,-0.07
44.45,-0.334,0.991,0.225
44.46,-0.087,0.863,0.17
44.47,-0.286,0.987,-0.009
44.48,-0.328,0.882,-0.138
44.49,-0.173,1.156,-0.054
44.5,-0.31,0.778,0.146
44.51,-0.102,1.07,0.12
44.52,-0.292,0.874,-0.133
44.53,-0.324,0.983,-0.115
44.54,-0.162,1.016,0.025
44.55,-0.058,0.917,0.187
44.56,-0.223,1.056,0.058
44.57,-0.337,0.841,-0.17
44.58,-0.28,1.237,-0.028
44.59,-0.052,0.884,-0.001
44.6,-0.092,0.924,0.164
44.61,-0.222,0.901,-0.047
44.62,-0.343,1.041,-0.121
44.63,-0.154,1.075,-0.068
44.64,-0.113,0.785,0.13
44.65,-0.105,1.063,0.139
44.66,-0.337,0.894,-0.123
44.67,-0.27,1.13,-0.143
44.68,-0.165,0.869,0.046
44.69,-0.14,1.109,0.121
44.7,-0.167,0.834,0.024
44.71,-0.401,0.992,-0.18
44.72,-0.356,1.117,0.021
44.73,-0.088,0.921,0.052
44.74,-0.115,0.918,0.161
44.75,-0.232,0.775,-0.043
44.76,-0.285,1.265,-0.196
44.77,-0.113,0.903,-0.053
44.78,-0.197,0.972,0.124
44.79,-0.136,0.824,0.129
44.8,-0.396,0.953,-0.105
44.81,-0.239,1.108,-0.155
44.82,-0.134,0.825,0.023
44.83,-0.073,1.133,0.243
44.84,-0.231,0.752,0.003
44.85,-0.381,1.076,-0.196
44.86,-0.157,1.026,-0.044
44.87,-0.154,1.012,0.08
44.88,-0.132,0.859,0.125
44.89,-0.244,0.88,-0.001
44.9,-0.362,1.25,-0.158
44.91,-0.15,0.732,-0.068
44.92,-0.122,1.12,0.175
44.93,-0.104,0.774,0.081
44.94,-0.364,1.003,-0.172
44.95,-0.25,1.033,-0.094
44.96,-0.125,1.007,0.035
44.97,-0.072,0.92,0.164
44.98,-0.237,0.726,0.011
44.99,-0.336,1.254,-0.136
45.0,-0.139,0.896,-0.126
45.01,-0.118,1.004,0.063
45.02,-0.106,0.804,0.176
45.03,-0.336,0.978,-0.066
45.04,-0.361,1.093,-0.151
45.05,-0.119,0.848,-0.006
45.06,-0.172,1.146,0.18
45.07,-0.058,0.705,0.058
45.08,-0.416,1.146,-0.115
45.09,-0.247,0.934,-0.108
45.1,-0.115,1.081,0.03
45.11,-0.044,0.903,0.151
45.12,-0.206,0.784,0.011
45.13,-0.415,1.183,-0.175
45.14,-0.106,0.887,-0.053
45.15,-0.105,1.207,0.081
45.16,-0.122,0.646,0.149
45.17,-0.329,1.053,-0.049
45.18,-0.276,1.032,-0.161
45.19,-0.17,0.892,-0.051
45.2,-0.145,1.065,0.2
45.21,-0.081,0.735,0.064
45.22,-0.415,1.16,-0.147
45.23,-0.205,0.827,-0.091
45.24,-0.11,1.235,0.047
45.25,-0.024,0.78,0.15
45.26,-0.308,0.858,0.006
45.27,-0.301,1.108,-0.133
45.28,-0.119,0.944,-0.082
45.29,-0.159,1.158,0.064
45.3,-0.106,0.636,0.153
45.31,-0.324,1.125,-0.067
45.32,-0.327,0.875,-0.126
45.33,-0.173,1.018,-0.012
45.34,-0.13,1.005,0.167
45.35,-0.096,0.752,0.06
45.36,-0.464,1.147,-0.1
45.37,-0.189,0.823,-0.108
45.38,-0.118,1.328,0.035
45.39,-0.094,0.672,0.124
45.4,-0.234,0.983,0.074
45.41,-0.375,0.973,-0.183
45.42,-0.049,0.967,-0.108
45.43,-0.177,1.115,0.031
45.44,-0.066,0.67,0.133
45.45,-0.398,1.19,-0.04
45.46,-0.328,0.752,-0.112
45.47,-0.188,1.196,-0.023
45.48,-0.045,0.814,0.192
45.49,-0.147,1.014,0.064
45.5,-0.356,0.895,-0.149
45.51,-0.22,0.951,-0.058
45.52,-0.189,1.198,0.104
45.53,-0.063,0.675,0.135
45.54,-0.293,1.101,0.007
45.55,-0.302,0.847,-0.149
45.56,-0.177,1.205,-0.066
45.57,-0.115,0.831,0.074
45.58,-0.12,0.844,0.125
45.59,-0.27,1.072,-0.052
45.6,-0.294,0.907,-0.147
45.61,-0.243,1.118,-0.027
45.62,-0.129,0.763,0.188
45.63,-0.141,1.111,0.092
45.64,-0.291,0.821,-0.186
45.65,-0.272,1.017,-0.076
45.66,-0.098,1.054,0.083
45.67,-0.013,0.895,0.152
45.68,-0.275,1.012,0.002
45.69,-0.311,0.83,-0.157
45.7,-0.219,1.252,-0.03
45.71,-0.117,0.802,0.093
45.72,-0.126,0.943,0.144
45.73,-0.31,0.954,-0.065
45.74,-0.249,1.036,-0.192
45.75,-0.255,1.006,-0.026
45.76,-0.116,0.795,0.18
45.77,-0.111,1.098,0.099
45.78,-0.372,0.835,-0.146
45.79,-0.257,1.123,-0.085
45.8,-0.064,0.986,0.036
45.81,-0.082,0.902,0.153
45.82,-0.219,0.939,0.011
45.83,-0.341,0.94,-0.155
45.84,-0.181,1.187,-0.075
45.85,-0.1,0.782,0.054
45.86,-0.125,1.039,0.186
45.87,-0.271,0.87,-0.119
45.88,-0.4,1.103,-0.111
45.89,-0.163,0.932,-0.035
45.9,-0.084,0.937,0.183
45.91,-0.138,0.997,0.062
45.92,-0.312,0.842,-0.152
45.93,-0.317,1.221,-0.053
45.94,-0.046,0.898,0.029
45.95,-0.093,0.996,0.141
45.96,-0.262,0.829,0.017
45.97,-0.344,1.048,-0.143
45.98,-0.151,1.074,-0.095
45.99,-0.142,0.824,0.078
46.0,-0.196,1.033,0.195
46.01,-0.295,0.824,-0.109
46.02,-0.341,1.131,-0.124
46.03,-0.161,0.87,-0.025
46.04,-0.13,1.061,0.188
46.05,-0.159,0.888,0.093
46.06,-0.37,0.934,-0.129
46.07,-0.234,1.148,-0.051
46.08,-0.281,0.986,0.081
46.09,-0.148,1.005,0.136
46.1,-0.192,0.741,-0.022
46.11,-0.285,1.213,-0.155
46.12,-0.162,1.005,-0.092
46.13,-0.089,0.927,0.078
46.14,-0.097,0.933,0.197
46.15,-0.283,0.87,-0.102
46.16,-0.42,1.163,-0.119
46.17,-0.16,0.812,-0.029
46.18,-0.15,1.175,0.165
46.19,-0.211,0.772,0.08
46.2,-0.386,1.026,-0.14
46.21,-0.162,1.029,-0.107
46.22,-0.181,1.015,0.187
46.23,-0.085,1.007,0.135
46.24,-0.205,0.763,0.022
46.25,-0.375,1.197,-0.182
46.26,-0.138,0.892,-0.063
46.27,-0.156,1.154,0.089
46.28,-0.089,0.674,0.131
46.29,-0.365,1.068,-0.058
46.3,-0.296,0.979,-0.158
46.31,-0.129,0.931,-0.01
46.32,-0.049,1.066,0.151
46.33,-0.194,0.762,0.065
46.34,-0.403,1.158,-0.159
46.35,-0.201,0.808,-0.11
46.36,-0.167,1.241,0.067
46.37,-0.087,0.809,0.147
46.38,-0.292,0.873,0.042
46.39,-0.357,1.075,-0.151
46.4,-0.111,0.931,-0.047
46.41,-0.24,1.187,0.147
46.42,-0.072,0.639,0.116
46.43,-0.326,1.144,-0.025
46.44,-0.344,0.868,-0.136
46.45,-0.177,1.005,-0.042
46.46,-0.156,0.986,0.172
46.47,-0.096,0.807,0.082
46.48,-0.431,1.098,-0.144
46.49,-0.191,0.775,-0.104
46.5,-0.116,1.361,0.065
46.51,-0.067,0.705,0.12
46.52,-0.298,0.966,0.023
46.53,-0.324,0.988,-0.115
46.54,-0.156,1.034,-0.1
46.55,-0.185,1.04,0.087
46.56,-0.055,0.722,0.145
46.57,-0.381,1.186,-0.063
46.58,-0.388,0.71,-0.098
46.59,-0.275,1.114,-0.019
46.6,-0.002,0.939,0.202
46.61,-0.139,0.939,0.067
46.62,-0.367,0.969,-0.147
46.63,-0.234,0.85,-0.073
46.64,-0.074,1.296,0.042
46.65,-0.022,0.658,0.121
46.66,-0.291,1.071,0.013
46.67,-0.308,0.899,-0.122
46.68,-0.217,1.145,-0.082
46.69,-0.219,0.884,0.086
46.7,-0.048,0.762,0.137
46.71,-0.286,1.165,-0.081
46.72,-0.366,0.777,-0.184
46.73,-0.256,1.072,-0.07
46.74,-0.018,0.819,0.186
46.75,-0.136,1.092,0.084
46.76,-0.337,0.873,-0.146
46.77,-0.238,0.91,-0.116
46.78,-0.138,1.202,0.067
46.79,-0.056,0.771,0.14
46.8,-0.26,1.086,0.041
46.81,-0.343,0.809,-0.137
46.82,-0.2,1.22,-0.087
46.83,-0.178,0.867,0.096
46.84,-0.032,0.838,0.183
46.85,-0.332,1.079,-0.035
46.86,-0.248,0.916,-0.224
46.87,-0.28,1.075,-0.043
46.88,-0.08,0.764,0.171
46.89,-0.158,1.135,0.145
46.9,-0.306,0.835,-0.14
46.91,-0.338,0.999,-0.088
46.92,-0.161,1.02,0.041
46.93,-0.02,0.974,0.144
46.94,-0.252,1.013,0.036
46.95,-0.306,0.777,-0.142
46.96,-0.216,1.318,-0.025
46.97,-0.056,0.861,0.016
46.98,-0.113,0.932,0.154
46.99,-0.234,0.909,-0.025
47.0,-0.28,1.077,-0.142
47.01,-0.225,1.034,-0.111
47.02,-0.103,0.774,0.062
47.03,-0.078,1.027,0.114
47.04,-0.312,0.86,-0.128
47.05,-0.336,1.081,-0.17
47.06,-0.128,0.855,0.04
47.07,-0.074,1.155,0.187
47.08,-0.194,0.76,0.018
47.09,-0.405,1.05,-0.119
47.1,-0.18,1.104,-0.052
47.11,-0.088,0.997,0.016
47.12,-0.109,0.931,0.075
47.13,-0.263,0.789,-0.013
47.14,-0.278,1.288,-0.139
47.15,-0.16,0.87,-0.064
47.16,-0.097,1.003,0.094
47.17,-0.091,0.789,0.112
47.18,-0.349,0.989,-0.092
47.19,-0.276,1.113,-0.162
47.2,-0.18,0.857,0.008
47.21,-0.167,1.111,0.188
47.22,-0.124,0.745,0.048
47.23,-0.375,1.143,-0.159
47.24,-0.293,0.882,-0.057
47.25,-0.075,1.116,0.06
47.26,-0.067,0.873,0.141
47.27,-0.318,0.808,0.004
47.28,-0.325,1.217,-0.133
47.29,-0.171,0.88,-0.085
47.3,-0.159,1.102,0.066
47.31,-0.111,0.703,0.181
47.32,-0.372,1.077,-0.1
47.33,-0.336,0.94,-0.105
47.34,-0.129,0.942,-0.011
47.35,-0.138,1.096,0.206
47.36,-0.139,0.72,0.053
47.37,-0.394,1.144,-0.154
47.38,-0.226,0.853,-0.063
47.39,-0.057,1.245,-0.008
47.4,-0.1,0.761,0.151
47.41,-0.29,0.894,0.011
47.42,-0.32,1.134,-0.124
47.43,-0.104,0.919,-0.1
47.44,-0.133,1.114,0.104
47.45,-0.071,0.668,0.163
47.46,-0.367,1.179,-0.085
47.47,-0.291,0.827,-0.175
47.48,-0.169,1.045,-0.037
47.49,-0.154,1.009,0.164
47.5,-0.179,0.797,0.084
47.51,-0.36,1.124,-0.118
47.52,-0.219,0.796,-0.092
47.53,-0.167,1.308,0.048
47.54,-0.051,0.709,0.09
47.55,-0.238,0.973,0.03
47.56,-0.342,0.966,-0.17
47.57,-0.177,1.024,-0.033
47.58,-0.114,1.078,0.068
47.59,-0.091,0.676,0.121
47.6,-0.373,1.157,-0.018
47.61,-0.26,0.811,-0.189
47.62,-0.214,1.112,-0.02
47.63,-0.146,0.823,0.184
47.64,-0.125,0.91,0.092
47.65,-0.356,1.083,-0.115
47.66,-0.237,0.802,-0.161
47.67,-0.187,1.182,0.011
47.68,-0.003,0.801,0.147
47.69,-0.189,1.079,0.026
47.7,-0.378,0.817,-0.133
47.71,-0.188,1.052,-0.061
47.72,0.013,1.034,0.001
47.73,-0.097,0.765,0.126
47.74,-0.338,1.068,-0.004
47.75,-0.277,0.843,-0.141
47.76,-0.15,1.22,-0.048
47.77,-0.111,0.794,0.106
47.78,-0.179,0.999,0.148
47.79,-0.266,0.976,-0.094
47.8,-0.297,0.995,-0.128
47.81,-0.159,1.04,-0.05
47.82,-0.02,0.848,0.191
47.83,-0.217,1.096,0.01
47.84,-0.356,0.775,-0.156
47.85,-0.264,1.158,-0.089
47.86,-0.064,0.871,0.05
47.87,-0.134,0.969,0.147
47.88,-0.304,0.885,-0.042
47.89,-0.275,1.056,-0.143
47.9,-0.203,1.001,-0.046
47.91,-0.131,0.805,0.12
47.92,-0.195,1.063,0.152
47.93,-0.31,0.845,-0.117
47.94,-0.324,1.138,-0.13
47.95,-0.173,0.871,0.044
47.96,-0.04,1.043,0.172
47.97,-0.136,0.872,0.018
47.98,-0.398,0.935,-0.142
47.99,-0.21,1.17,-0.036
48.0,-0.064,0.883,0.033
48.01,-0.146,0.963,0.158
48.02,-0.257,0.826,-0.032
48.03,-0.331,1.231,-0.143
48.04,-0.16,0.909,-0.086
48.05,-0.163,0.91,0.118
48.06,-0.164,0.97,0.184
48.07,-0.321,0.885,-0.088
48.08,-0.353,1.112,-0.13
48.09,-0.127,0.812,-0.003
48.1,-0.085,1.141,0.18
48.11,-0.172,0.775,0.03
48.12,-0.412,1.03,-0.125
48.13,-0.147,1.076,-0.062
48.14,-0.11,0.983,0.058
48.15,-0.122,0.982,0.161
48.16,-0.185,0.771,-0.003
48.17,-0.351,1.257,-0.161
48.18,-0.119,0.895,-0.052
48.19,-0.226,1.049,0.092
48.2,-0.135,0.812,0.149
48.21,-0.354,0.977,-0.067
48.22,-0.241,1.124,-0.166
48.23,-0.204,0.848,0.026
48.24,-0.143,1.104,0.167
48.25,-0.135,0.749,0.097
