t,ax,ay,az
0.0,-0.158,1.104,0.2
0.01,-0.178,0.874,0.047
0.02,-0.404,0.962,-0.118
0.03,-0.17,1.036,-0.074
0.04,-0.049,0.976,0.067
0.05,-0.055,1.048,0.075
0.06,-0.282,0.75,0.016
0.07,-0.327,1.159,-0.139
0.08,-0.069,0.991,-0.077
0.09,-0.068,0.992,0.003
0.1,-0.113,0.82,0.17
0.11,-0.328,0.972,-0.062
0.12,-0.252,0.961,-0.134
0.13,-0.21,0.943,-0.029
0.14,-0.217,1.081,0.191
0.15,-0.19,0.78,0.041
0.16,-0.381,1.118,-0.15
0.17,-0.218,0.867,-0.087
0.18,-0.064,1.243,0.03
0.19,-0.11,0.747,0.212
0.2,-0.333,0.912,0.041
0.21,-0.282,1.063,-0.109
0.22,-0.112,0.985,-0.15
0.23,-0.184,1.097,0.09
0.24,-0.112,0.654,0.141
0.25,-0.287,1.192,-0.04
0.26,-0.337,0.873,-0.183
0.27,-0.262,0.987,-0.049
0.28,-0.165,0.966,0.241
0.29,-0.133,0.889,0.044
0.3,-0.396,1.028,-0.085
0.31,-0.198,0.748,-0.115
0.32,-0.088,1.314,-0.003
0.33,0.006,0.745,0.078
0.34,-0.247,1.025,0.092
0.35,-0.326,0.887,-0.163
0.36,-0.171,1.077,-0.084
0.37,-0.119,1.02,0.047
0.38,-0.096,0.755,0.161
0.39,-0.315,1.113,-0.008
0.4,-0.222,0.865,-0.149
0.41,-0.251,1.155,-0.052
0.42,-0.095,0.822,0.102
0.43,-0.118,1.033,0.136
0.44,-0.34,0.955,-0.09
0.45,-0.281,0.886,-0.1
0.46,-0.149,1.099,-0.042
0.47,-0.069,0.814,0.104
0.48,-0.142,1.105,0.055
0.49,-0.385,0.771,-0.121
0.5,-0.217,1.078,-0.061
0.51,-0.039,1.022,-0.004
0.52,-0.054,0.911,0.136
0.53,-0.187,0.952,0.036
0.54,-0.295,0.946,-0.108
0.55,-0.288,1.23,-0.043
0.56,-0.136,0.81,0.043
0.57,-0.096,1.027,0.145
0.58,-0.3,0.854,-0.02
0.59,-0.331,1.159,-0.164
0.6,-0.179,0.895,-0.058
0.61,-0.141,0.931,0.146
0.62,-0.163,1.047,0.141
0.63,-0.35,0.82,-0.123
0.64,-0.265,1.12,-0.121
0.65,-0.224,0.911,0.012
0.66,-0.056,1.115,0.149
0.67,-0.254,0.814,0.055
0.68,-0.363,1.012,-0.114
0.69,-0.199,1.078,0.153
0.7,-0.123,0.771,0.163
0.71,-0.368,1.109,-0.122
0.72,-0.321,0.861,-0.106
0.73,-0.188,1.028,-0.002
0.74,-0.088,1.023,0.166
0.75,-0.182,0.77,0.052
0.76,-0.339,1.126,-0.144
0.77,-0.209,0.847,-0.081
0.78,-0.159,1.256,0.05
0.79,-0.058,0.796,0.152
0.8,-0.279,0.941,0.005
0.81,-0.31,0.976,-0.134
0.82,-0.132,1.021,-0.042
0.83,-0.112,1.098,0.054
0.84,-0.197,0.669,0.156
0.85,-0.372,1.165,-0.041
0.86,-0.187,0.868,-0.152
0.87,-0.225,1.113,-0.053
0.88,-0.089,0.731,0.181
0.89,-0.133,1.083,0.103
0.9,-0.35,0.891,-0.139
0.91,-0.251,0.898,-0.134
0.92,-0.239,1.183,0.097
0.93,0.003,0.768,0.106
0.94,-0.304,1.104,0.018
0.95,-0.306,0.83,-0.127
0.96,-0.159,1.269,-0.07
0.97,-0.175,0.843,0.086
0.98,-0.122,0.899,0.158
0.99,-0.312,0.96,-0.048
1.0,-0.232,0.945,-0.165
1.01,-0.206,1.045,-0.069
1.02,-0.103,0.789,0.164
1.03,-0.108,1.101,0.069
1.04,-0.369,0.839,-0.131
1.05,-0.202,1.066,-0.113
1.06,-0.164,1.01,0.043
1.07,0.012,0.908,0.117
1.08,-0.224,0.96,0.028
1.09,-0.339,0.877,-0.102
1.1,-0.131,1.262,-0.058
1.11,-0.124,0.859,0.041
1.12,-0.135,0.973,0.165
1.13,-0.268,0.858,-0.05
1.14,-0.303,1.152,-0.149
1.15,-0.217,0.914,-0.076
1.16,-0.12,0.852,0.125
1.17,-0.155,1.037,0.158
1.18,-0.341,0.879,-0.137
1.19,-0.307,1.101,-0.125
1.2,-0.151,0.878,0.014
1.21,-0.093,1.124,0.15
1.22,-0.165,0.804,0.061
1.23,-0.378,0.963,-0.145
1.24,-0.21,1.073,-0.074
1.25,-0.028,0.985,0.011
1.26,-0.13,0.978,0.132
1.27,-0.264,0.74,-0.005
1.28,-0.318,1.241,-0.125
1.29,-0.084,0.942,-0.093
1.3,-0.208,0.993,0.104
1.31,-0.101,0.784,0.159
1.32,-0.362,0.999,-0.093
1.33,-0.277,1.024,-0.154
1.34,-0.108,0.86,-0.037
1.35,-0.115,1.129,0.191
1.36,-0.107,0.749,0.035
1.37,-0.382,1.115,-0.138
1.38,-0.242,0.914,-0.102
1.39,-0.14,1.172,0.044
1.4,-0.08,0.821,0.134
1.41,-0.265,0.842,0.037
1.42,-0.304,1.173,-0.153
1.43,-0.143,0.919,-0.113
1.44,-0.196,1.12,0.09
1.45,-0.051,0.69,0.134
1.46,-0.333,1.11,-0.052
1.47,-0.284,0.91,-0.156
1.48,-0.182,0.974,-0.051
1.49,-0.155,1.023,0.175
1.5,-0.089,0.775,0.092
1.51,-0.438,1.131,-0.136
1.52,-0.198,0.723,-0.099
1.53,-0.17,1.31,0.041
1.54,-0.021,0.826,0.157
1.55,-0.245,0.895,0.011
1.56,-0.316,0.972,-0.12
1.57,-0.113,1.063,-0.063
1.58,-0.199,1.106,0.055
1.59,-0.076,0.595,0.17
1.6,-0.335,1.155,-0.023
1.61,-0.205,0.881,-0.179
1.62,-0.254,1.054,-0.049
1.63,-0.14,0.854,0.123
1.64,-0.11,0.966,0.147
1.65,-0.387,1.071,-0.097
1.66,-0.24,0.767,-0.138
1.67,-0.296,1.257,0.014
1.68,0.013,0.79,0.151
1.69,-0.22,1.073,0.039
1.7,-0.352,0.795,-0.139
1.71,-0.171,1.221,-0.081
1.72,-0.076,0.906,0.062
1.73,-0.05,0.883,0.118
1.74,-0.292,0.96,-0.003
1.75,-0.284,0.991,-0.126
1.76,-0.229,1.099,-0.06
1.77,-0.071,0.735,0.091
1.78,-0.221,1.11,0.173
1.79,-0.276,0.883,-0.104
1.8,-0.311,1.092,-0.125
1.81,-0.216,0.894,-0.007
1.82,-0.055,1.027,0.202
1.83,-0.196,0.966,0.039
1.84,-0.39,0.857,-0.144
1.85,-0.201,1.209,-0.066
1.86,-0.051,0.956,0.009
1.87,-0.101,0.966,0.105
1.88,-0.254,0.795,0.024
1.89,-0.269,1.165,-0.126
1.9,-0.243,1.01,-0.07
1.91,-0.127,0.821,0.073
1.92,-0.11,0.964,0.168
1.93,-0.313,0.889,-0.054
1.94,-0.299,1.154,-0.166
1.95,-0.187,0.844,-0.01
1.96,-0.15,1.129,0.167
1.97,-0.163,0.835,0.115
1.98,-0.344,0.993,-0.115
1.99,-0.189,1.026,-0.137
2.0,-0.196,0.969,0.012
2.01,-0.083,1.027,0.157
2.02,-0.175,0.736,0.028
2.03,-0.37,1.168,-0.155
2.04,-0.213,0.919,-0.058
2.05,-0.103,1.109,0.051
2.06,-0.06,0.741,0.149
2.07,-0.33,0.946,0.003
2.08,-0.319,1.135,-0.162
2.09,-0.205,0.848,-0.05
2.1,-0.152,1.113,0.101
2.11,-0.169,0.754,0.152
2.12,-0.366,1.118,-0.112
2.13,-0.238,0.818,-0.112
2.14,-0.199,1.125,-0.011
2.15,-0.119,0.994,0.176
2.16,-0.183,0.798,0.027
2.17,-0.343,1.087,-0.104
2.18,-0.234,0.877,-0.069
2.19,-0.1,1.255,0.018
2.2,-0.09,0.7,0.149
2.21,-0.263,0.996,0.013
2.22,-0.287,0.977,-0.14
2.23,-0.148,1.061,-0.084
2.24,-0.184,1.015,0.072
2.25,-0.086,0.667,0.151
2.26,-0.32,1.182,-0.039
2.27,-0.235,0.856,-0.153
2.28,-0.202,1.105,-0.065
2.29,-0.097,0.803,0.158
2.3,-0.195,0.978,0.091
2.31,-0.305,1.016,-0.108
2.32,-0.244,0.854,-0.118
2.33,-0.227,1.169,0.032
2.34,-0.018,0.801,0.185
2.35,-0.25,1.076,0.019
2.36,-0.323,0.782,-0.125
2.37,-0.192,1.172,-0.066
2.38,0.001,0.992,-0.054
2.39,-0.114,0.849,0.163
2.4,-0.278,0.99,-0.026
2.41,-0.306,0.919,-0.087
2.42,-0.263,1.164,-0.056
2.43,-0.09,0.739,0.092
2.44,-0.159,1.07,0.163
2.45,-0.275,0.905,-0.087
2.46,-0.321,1.028,-0.14
2.47,-0.196,0.94,-0.007
2.48,-0.11,0.919,0.199
2.49,-0.22,1.056,0.059
2.5,-0.336,0.792,-0.108
2.51,-0.18,1.17,-0.105
2.52,0.037,0.9,-0.046
2.53,-0.139,1.006,0.134
2.54,-0.246,0.782,0.003
2.55,-0.352,1.174,-0.141
2.56,-0.129,0.973,-0.074
2.57,-0.158,0.95,0.102
2.58,-0.164,0.879,0.143
2.59,-0.354,0.911,-0.058
2.6,-0.294,1.205,-0.166
2.61,-0.176,0.804,-0.012
2.62,-0.112,1.126,0.172
2.63,-0.193,0.813,0.077
2.64,-0.402,1.03,-0.13
2.65,-0.189,0.907,-0.133
2.66,-0.146,1.063,0.075
2.67,-0.135,1.05,0.125
2.68,-0.266,0.738,0.042
2.69,-0.385,1.156,-0.164
2.7,-0.102,0.936,-0.056
2.71,-0.134,1.149,0.076
2.72,-0.094,0.693,0.162
2.73,-0.322,0.998,-0.013
2.74,-0.316,1.114,-0.132
2.75,-0.214,0.854,-0.078
2.76,-0.128,1.025,0.119
2.77,-0.094,0.77,0.158
2.78,-0.422,1.173,-0.122
2.79,-0.269,0.737,-0.101
2.8,-0.216,1.195,0.02
2.81,-0.03,0.97,0.138
2.82,-0.238,0.809,0.033
2.83,-0.3,1.033,-0.104
2.84,-0.242,0.927,-0.043
2.85,-0.114,1.221,0.028
2.86,-0.076,0.649,0.166
2.87,-0.286,1.08,-0.003
2.88,-0.337,0.934,-0.119
2.89,-0.192,1.038,-0.085
2.9,-0.127,0.983,0.087
2.91,-0.065,0.806,0.139
2.92,-0.399,1.182,-0.052
2.93,-0.205,0.754,-0.155
2.94,-0.218,1.179,-0.061
2.95,-0.096,0.822,0.155
2.96,-0.198,1.036,0.089
2.97,-0.318,0.934,-0.095
2.98,-0.216,0.924,-0.103
2.99,-0.234,1.214,0.081
3.0,0.036,0.773,0.123
3.01,-0.281,1.093,0.042
3.02,-0.267,0.776,-0.15
3.03,-0.268,1.202,-0.098
3.04,-0.038,0.938,0.045
3.05,-0.087,0.887,0.138
3.06,-0.337,0.979,-0.018
3.07,-0.262,0.958,-0.1
3.08,-0.23,1.151,-0.042
3.09,-0.082,0.719,0.089
3.1,-0.211,1.061,0.159
3.11,-0.275,0.91,-0.078
3.12,-0.335,1.073,-0.129
3.13,-0.179,0.931,-0.046
3.14,-0.073,0.955,0.194
3.15,-0.159,1.01,0.068
3.16,-0.369,0.82,-0.101
3.17,-0.245,1.163,-0.093
3.18,-0.053,0.962,0.033
3.19,-0.089,1.024,0.138
3.2,-0.207,0.791,-0.026
3.21,-0.328,1.082,-0.146
3.22,-0.169,1.077,-0.062
3.23,-0.178,0.893,0.072
3.24,-0.117,0.969,0.152
3.25,-0.329,0.84,-0.016
3.26,-0.333,1.204,-0.149
3.27,-0.18,0.814,-0.065
3.28,-0.145,1.075,0.155
3.29,-0.091,0.845,0.119
3.3,-0.334,0.972,-0.131
3.31,-0.283,1.018,-0.09
3.32,-0.159,0.963,0.008
3.33,-0.112,1.132,0.163
3.34,-0.167,0.72,0.025
3.35,-0.378,1.134,-0.144
3.36,-0.092,0.95,-0.02
3.37,-0.118,1.225,-0.008
3.38,-0.08,0.677,0.182
3.39,-0.269,1.003,-0.043
3.4,-0.308,1.041,-0.136
3.41,-0.185,0.955,-0.084
3.42,-0.162,1.045,0.096
3.43,-0.112,0.731,0.148
3.44,-0.341,1.167,-0.095
3.45,-0.277,0.761,-0.141
3.46,-0.235,1.099,-0.011
3.47,-0.059,0.895,0.136
3.48,-0.145,0.921,0.077
3.49,-0.351,1.05,-0.149
3.5,-0.221,0.792,-0.089
3.51,-0.204,1.275,0.082
3.52,0.024,0.775,0.141
3.53,-0.288,1.053,0.052
3.54,-0.319,0.796,-0.149
3.55,-0.255,1.158,-0.059
3.56,-0.075,0.972,0.013
3.57,-0.038,0.767,0.145
3.58,-0.303,1.114,-0.014
3.59,-0.293,0.857,-0.134
3.6,-0.259,1.183,-0.043
3.61,-0.127,0.741,0.123
3.62,-0.132,0.993,0.126
3.63,-0.308,0.951,-0.036
3.64,-0.271,1.026,-0.192
3.65,-0.214,0.976,-0.036
3.66,-0.106,0.848,0.174
3.67,-0.206,1.147,0.099
3.68,-0.335,0.764,-0.131
3.69,-0.254,1.134,-0.102
3.7,-0.104,0.94,0.022
3.71,0.003,0.982,0.127
3.72,-0.234,0.869,0.041
3.73,-0.355,0.939,-0.125
3.74,-0.241,1.183,-0.05
3.75,-0.148,0.879,0.042
3.76,-0.151,0.952,0.122
3.77,-0.295,0.84,0.013
3.78,-0.238,1.196,-0.195
3.79,-0.216,0.859,-0.053
3.8,-0.102,0.926,0.132
3.81,-0.14,0.935,0.139
3.82,-0.298,0.911,-0.068
3.83,-0.359,1.099,-0.147
3.84,-0.167,0.834,-0.024
3.85,-0.105,1.139,0.179
3.86,-0.224,0.806,0.087
3.87,-0.372,1.036,-0.106
3.88,-0.145,0.987,-0.134
3.89,-0.125,1.092,0.064
3.9,-0.096,0.97,0.09
3.91,-0.186,0.757,-0.03
3.92,-0.383,1.194,-0.142
3.93,-0.135,0.892,-0.054
3.94,-0.105,1.16,0.055
3.95,-0.137,0.704,0.176
3.96,-0.322,0.995,-0.017
3.97,-0.248,1.098,-0.147
3.98,-0.207,0.908,-0.052
3.99,-0.173,0.993,0.128
4.0,-0.134,0.754,0.138
4.01,-0.393,1.197,-0.111
4.02,-0.28,0.77,-0.154
4.03,-0.156,1.111,0.012
4.04,-0.117,0.921,0.219
4.05,-0.138,0.879,0.031
4.06,-0.374,1.04,-0.125
4.07,-0.277,0.862,-0.064
4.08,-0.171,1.26,0.049
4.09,-0.042,0.73,0.118
4.1,-0.326,1.05,-0.005
4.11,-0.32,0.875,-0.127
4.12,-0.141,1.115,-0.06
4.13,0.002,0.877,-0.036
4.14,-0.154,0.758,0.17
4.15,-0.308,1.154,-0.076
4.16,-0.281,0.918,-0.136
4.17,-0.205,1.052,-0.034
4.18,0.004,0.779,0.113
4.19,-0.162,1.128,0.035
4.2,-0.373,0.821,-0.129
4.21,-0.257,1.05,-0.117
4.22,-0.135,1.024,0.077
4.23,-0.033,0.895,0.123
4.24,-0.249,0.975,0.022
4.25,-0.345,0.85,-0.143
4.26,-0.193,1.223,-0.037
4.27,-0.086,0.855,0.043
4.28,-0.194,0.98,0.119
4.29,-0.288,0.874,-0.007
4.3,-0.227,1.138,-0.155
4.31,-0.179,0.957,-0.075
4.32,-0.099,0.826,0.166
4.33,-0.165,1.053,0.145
4.34,-0.272,0.842,-0.136
4.35,-0.292,1.109,-0.1
4.36,-0.198,0.895,0.036
4.37,-0.095,1.105,0.159
4.38,-0.158,0.804,0.02
4.39,-0.435,0.977,-0.099
4.4,-0.121,1.121,-0.086
4.41,-0.277,0.957,0.057
4.42,-0.172,1.003,0.156
4.43,-0.182,0.755,-0.057
4.44,-0.388,1.194,-0.118
4.45,-0.138,0.911,-0.109
4.46,-0.118,0.973,0.096
4.47,-0.162,0.848,0.162
4.48,-0.306,0.984,-0.052
4.49,-0.332,1.099,-0.126
4.5,-0.185,0.785,-0.026
4.51,-0.164,1.099,0.187
4.52,-0.112,0.805,0.09
4.53,-0.353,1.101,-0.162
4.54,-0.259,0.842,-0.146
4.55,-0.114,1.112,0.103
4.56,-0.079,0.96,0.096
4.57,-0.243,0.773,0.039
4.58,-0.358,1.145,-0.127
4.59,-0.125,0.92,-0.064
4.6,-0.146,1.2,0.097
4.61,-0.071,0.673,0.112
4.62,-0.32,1.034,-0.012
4.63,-0.309,1.037,-0.096
4.64,-0.129,0.954,-0.074
4.65,-0.166,0.988,0.13
4.66,-0.113,0.714,0.151
4.67,-0.387,1.165,-0.102
4.68,-0.302,0.818,-0.095
4.69,-0.175,1.106,-0.013
4.7,-0.093,0.837,0.164
4.71,-0.141,0.973,0.068
4.72,-0.315,0.982,-0.159
4.73,-0.295,0.84,-0.053
4.74,-0.104,1.246,0.095
4.75,-0.024,0.77,0.127
4.76,-0.249,1.047,0.014
4.77,-0.347,0.861,-0.159
4.78,-0.199,1.173,-0.06
4.79,-0.12,0.93,0.055
4.8,-0.087,0.761,0.117
4.81,-0.321,1.101,-0.029
4.82,-0.239,0.88,-0.159
4.83,-0.218,1.112,-0.012
4.84,-0.06,0.731,0.125
4.85,-0.182,1.088,0.15
4.86,-0.348,0.912,-0.102
4.87,-0.235,0.952,-0.126
4.88,-0.216,1.057,0.036
4.89,-0.031,0.847,0.131
4.9,-0.216,1.077,0.064
4.91,-0.313,0.817,-0.15
4.92,-0.312,1.191,-0.057
4.93,-0.075,0.922,0.057
4.94,-0.078,0.967,0.126
4.95,-0.332,0.847,-0.014
4.96,-0.297,0.968,-0.12
4.97,-0.211,1.164,-0.048
4.98,-0.084,0.784,0.067
4.99,-0.186,0.985,0.174
5.0,-0.288,0.881,-0.097
5.01,-0.328,1.138,-0.095
5.02,-0.176,0.826,-0.017
5.03,-0.17,1.078,0.149
5.04,-0.1,0.863,0.062
5.05,-0.35,1.015,-0.165
5.06,-0.266,0.984,-0.099
5.07,-0.085,1.032,0.059
5.08,-0.092,1.047,0.13
5.09,-0.197,0.737,0.026
5.1,-0.376,1.189,-0.141
5.11,-0.173,0.944,-0.05
5.12,-0.084,1.112,0.059
5.13,-0.111,0.781,0.126
5.14,-0.306,0.931,-0.038
5.15,-0.29,1.122,-0.104
5.16,-0.151,0.895,-0.059
5.17,-0.15,1.078,0.105
5.18,-0.162,0.73,0.147
5.19,-0.376,1.178,-0.089
5.2,-0.275,0.855,-0.122
5.21,-0.208,1.016,-0.011
5.22,-0.133,0.919,0.188
5.23,-0.151,0.882,0.038
5.24,-0.359,1.096,-0.141
5.25,-0.241,0.803,-0.08
5.26,-0.094,1.26,0.037
5.27,-0.049,0.731,0.159
5.28,-0.252,1.002,0.009
5.29,-0.345,0.942,-0.152
5.3,-0.186,1.02,-0.064
5.31,-0.037,1.084,0.047
5.32,-0.2,0.745,0.162
5.33,-0.355,1.11,-0.046
5.34,-0.214,0.866,-0.107
5.35,-0.12,1.219,-0.097
5.36,-0.152,0.755,0.141
5.37,-0.131,0.953,0.112
5.38,-0.285,1.058,-0.088
5.39,-0.258,0.916,-0.146
5.4,-0.182,1.096,-0.027
5.41,0.009,0.776,0.141
5.42,-0.201,1.134,0.024
5.43,-0.348,0.816,-0.131
5.44,-0.281,1.111,-0.061
5.45,-0.032,1.008,0.036
5.46,-0.098,0.892,0.12
5.47,-0.302,0.975,-0.024
5.48,-0.296,0.9,-0.107
5.49,-0.165,1.231,-0.097
5.5,-0.142,0.716,0.114
5.51,-0.201,1.03,0.142
5.52,-0.268,0.875,-0.029
5.53,-0.314,1.065,-0.172
5.54,-0.209,0.96,-0.02
5.55,-0.105,0.909,0.183
5.56,-0.125,1.051,0.083
5.57,-0.344,0.818,-0.115
5.58,-0.238,1.136,-0.139
5.59,-0.142,0.961,0.083
5.6,-0.007,1.022,0.113
5.61,-0.217,0.831,0.017
5.62,-0.395,1.019,-0.097
5.63,-0.117,1.14,-0.086
5.64,-0.163,0.89,0.091
5.65,-0.138,0.948,0.143
5.66,-0.333,0.836,-0.017
5.67,-0.292,1.215,-0.165
5.68,-0.175,0.838,-0.083
5.69,-0.181,1.019,0.171
5.7,-0.099,0.903,0.127
5.71,-0.34,0.925,-0.129
5.72,-0.254,1.039,-0.114
5.73,-0.176,0.935,0.029
5.74,-0.071,1.131,0.149
5.75,-0.158,0.73,0.047
5.76,-0.365,1.116,-0.136
5.77,-0.202,0.989,-0.056
5.78,-0.052,1.135,0.019
5.79,-0.123,0.868,0.163
5.8,-0.279,0.8,0.007
5.81,-0.284,1.082,-0.139
5.82,-0.198,0.893,-0.074
5.83,-0.133,1.025,0.085
5.84,-0.138,0.705,0.149
5.85,-0.349,1.165,-0.111
5.86,-0.258,0.847,-0.124
5.87,-0.203,1.059,-0.027
5.88,-0.197,0.921,0.244
5.89,-0.158,0.884,0.088
5.9,-0.388,1.065,-0.16
5.91,-0.2,0.811,-0.095
5.92,-0.217,1.289,0.067
5.93,0.047,0.701,0.134
5.94,-0.267,1.05,0.004
5.95,-0.336,0.855,-0.144
5.96,-0.214,1.096,-0.046
5.97,-0.125,1.04,0.075
5.98,-0.054,0.728,0.129
5.99,-0.334,1.149,-0.005
6.0,-0.222,0.869,-0.152
6.01,-0.229,1.15,-0.07
6.02,-0.276,0.774,0.185
6.03,-0.151,1.032,0.11
6.04,-0.295,0.992,-0.109
6.05,-0.274,0.913,-0.136
6.06,-0.296,1.088,0.038
6.07,-0.046,0.813,0.19
6.08,-0.2,1.106,0.062
6.09,-0.305,0.783,-0.136
6.1,-0.262,1.176,-0.102
6.11,-0.126,0.955,0.058
6.12,-0.071,0.917,0.146
6.13,-0.261,0.97,-0.002
6.14,-0.322,0.917,-0.108
6.15,-0.156,1.151,-0.09
6.16,-0.121,0.775,0.107
6.17,-0.175,1.042,0.173
6.18,-0.24,0.848,-0.069
6.19,-0.327,1.12,-0.143
6.2,-0.194,0.92,-0.072
6.21,-0.133,0.919,0.176
6.22,-0.116,0.992,0.065
6.23,-0.347,0.87,-0.145
6.24,-0.252,1.155,-0.093
6.25,-0.167,0.932,0.041
6.26,-0.048,1.005,0.122
6.27,-0.201,0.806,0.026
6.28,-0.391,1.084,-0.116
6.29,-0.211,1.05,-0.102
6.3,-0.125,0.925,0.061
6.31,-0.08,0.985,0.141
6.32,-0.305,0.836,-0.044
6.33,-0.298,1.215,-0.175
6.34,-0.276,0.828,-0.05
6.35,-0.062,1.002,0.098
6.36,-0.142,0.866,0.174
6.37,-0.381,0.982,-0.142
6.38,-0.331,0.97,-0.083
6.39,-0.159,0.912,-0.022
6.4,-0.086,1.146,0.166
6.41,-0.172,0.706,0.039
6.42,-0.34,1.117,-0.116
6.43,-0.198,0.897,-0.11
6.44,-0.14,1.185,0.046
6.45,-0.083,0.839,0.142
6.46,-0.282,0.812,-0.014
6.47,-0.358,1.131,-0.11
6.48,-0.071,0.953,-0.082
6.49,-0.151,1.141,0.082
6.5,-0.115,0.653,0.157
6.51,-0.321,1.105,-0.027
6.52,-0.248,0.954,-0.164
6.53,-0.157,0.964,-0.091
6.54,-0.163,1.022,0.142
6.55,-0.116,0.833,0.123
6.56,-0.388,1.164,-0.098
6.57,-0.277,0.719,-0.131
6.58,-0.192,1.196,0.035
6.59,-0.065,0.89,0.161
6.6,-0.206,0.99,0.023
6.61,-0.299,0.923,-0.145
6.62,-0.232,0.977,-0.075
6.63,-0.062,0.998,0.036
6.64,-0.099,0.758,0.141
6.65,-0.356,1.076,0.011
6.66,-0.231,0.862,-0.161
6.67,-0.26,1.118,-0.056
6.68,-0.103,0.75,0.111
6.69,-0.128,1.019,0.103
6.7,-0.31,0.975,-0.086
6.71,-0.291,0.958,-0.154
6.72,-0.273,1.011,-0.044
6.73,-0.034,0.858,0.159
6.74,-0.184,1.103,0.104
6.75,-0.286,0.781,-0.147
6.76,-0.256,1.161,-0.105
6.77,-0.093,0.986,0.074
6.78,-0.068,0.983,0.153
6.79,-0.199,0.883,0.023
6.8,-0.386,0.988,-0.101
6.81,-0.148,1.2,-0.096
6.82,-0.132,0.836,0.093
6.83,-0.094,0.982,0.138
6.84,-0.275,0.845,-0.028
6.85,-0.3,1.22,-0.166
6.86,-0.205,0.855,-0.052
6.87,-0.141,0.927,0.077
6.88,-0.18,0.963,0.159
6.89,-0.332,0.936,-0.096
6.9,-0.32,1.076,-0.114
6.91,-0.194,0.837,0.018
6.92,-0.106,1.173,0.186
6.93,-0.085,0.772,0.01
6.94,-0.353,1.001,-0.128
6.95,-0.299,0.939,-0.076
6.96,-0.086,1.087,0.046
6.97,-0.028,1.031,0.13
6.98,-0.246,0.787,-0.001
6.99,-0.359,1.139,-0.146
7.0,-0.129,0.955,-0.065
7.01,-0.148,1.127,0.073
7.02,-0.084,0.672,0.115
7.03,-0.38,1.026,0.005
7.04,-0.242,1.053,-0.137
7.05,-0.201,0.862,-0.086
7.06,-0.212,1.024,0.149
7.07,-0.106,0.74,0.125
7.08,-0.362,1.175,-0.123
7.09,-0.275,0.801,-0.115
7.1,-0.145,1.118,-0.03
7.11,-0.099,0.921,0.179
7.12,-0.129,0.881,0.05
7.13,-0.369,1.042,-0.122
7.14,-0.249,0.823,-0.068
7.15,-0.152,1.276,0.073
7.16,-0.0,0.749,0.131
7.17,-0.288,1.024,0.029
7.18,-0.344,0.854,-0.12
7.19,-0.139,1.124,-0.058
7.2,-0.11,1.026,0.066
7.21,-0.055,0.735,0.131
7.22,-0.335,1.123,-0.02
7.23,-0.198,0.902,-0.148
7.24,-0.29,1.125,-0.027
7.25,-0.069,0.784,0.123
7.26,-0.188,1.056,0.134
7.27,-0.306,0.971,-0.058
7.28,-0.268,0.959,-0.147
7.29,-0.171,1.04,-0.055
7.3,-0.082,0.843,0.199
7.31,-0.198,1.115,0.048
7.32,-0.329,0.757,-0.143
7.33,-0.28,1.128,-0.059
7.34,-0.104,1.019,0.028
7.35,-0.04,0.913,0.131
7.36,-0.231,0.909,0.021
7.37,-0.342,0.932,-0.073
7.38,-0.172,1.194,-0.135
7.39,-0.171,0.824,0.068
7.4,-0.101,1.007,0.121
7.41,-0.333,0.868,-0.011
7.42,-0.282,1.15,-0.154
7.43,-0.176,0.885,-0.103
7.44,-0.143,0.916,0.13
7.45,-0.089,0.869,0.127
7.46,-0.349,0.996,-0.13
7.47,-0.233,0.968,-0.13
7.48,-0.198,0.974,0.029
7.49,-0.132,1.144,0.17
7.5,-0.107,0.709,0.008
7.51,-0.395,1.134,-0.112
7.52,-0.225,0.928,-0.049
7.53,-0.075,1.182,0.011
7.54,-0.084,0.846,0.14
7.55,-0.265,0.814,0.01
7.56,-0.341,1.12,-0.123
7.57,-0.05,0.941,-0.074
7.58,-0.201,1.138,0.061
7.59,-0.112,0.601,0.138
7.6,-0.278,1.127,-0.023
7.61,-0.223,0.996,-0.155
7.62,-0.232,0.957,-0.055
7.63,-0.189,0.957,0.162
7.64,-0.152,0.82,0.152
7.65,-0.373,1.156,-0.125
7.66,-0.226,0.758,-0.16
7.67,-0.258,1.182,0.001
7.68,-0.027,0.866,0.168
7.69,-0.169,0.981,0.038
7.7,-0.352,0.931,-0.132
7.71,-0.205,0.943,-0.052
7.72,-0.156,1.229,0.036
7.73,-0.04,0.663,0.144
7.74,-0.269,1.082,0.024
7.75,-0.331,0.846,-0.1
7.76,-0.202,1.175,-0.097
7.77,-0.161,0.868,0.049
7.78,-0.065,0.874,0.137
7.79,-0.368,1.047,0.013
7.8,-0.245,0.92,-0.154
7.81,-0.224,1.127,-0.051
7.82,-0.093,0.758,0.123
7.83,-0.175,1.113,0.175
7.84,-0.275,0.896,-0.127
7.85,-0.345,0.989,-0.084
7.86,-0.188,0.98,-0.034
7.87,-0.094,0.969,0.16
7.88,-0.231,1.034,0.05
7.89,-0.322,0.779,-0.117
7.9,-0.251,1.17,-0.113
7.91,-0.171,0.948,0.04
7.92,-0.083,1.008,0.123
7.93,-0.227,0.814,0.007
7.94,-0.337,1.027,-0.114
7.95,-0.127,1.134,-0.095
7.96,-0.086,0.887,0.04
7.97,-0.107,0.961,0.127
7.98,-0.299,0.876,-0.008
7.99,-0.292,1.222,-0.17
8.0,-0.215,0.831,-0.061
8.01,-0.125,1.03,0.142
8.02,-0.116,0.896,0.13
8.03,-0.378,0.974,-0.12
8.04,-0.321,1.038,-0.109
8.05,-0.197,0.866,-0.02
8.06,-0.078,1.14,0.16
8.07,-0.12,0.756,0.027
8.08,-0.318,1.117,-0.093
8.09,-0.231,0.921,-0.125
8.1,-0.11,1.108,0.025
8.11,-0.103,0.885,0.175
8.12,-0.22,0.812,0.03
8.13,-0.388,1.154,-0.114
8.14,-0.128,0.902,-0.075
8.15,-0.197,1.205,0.074
8.16,-0.021,0.654,0.132
8.17,-0.306,1.079,-0.019
8.18,-0.276,0.962,-0.14
8.19,-0.219,0.962,-0.069
8.2,-0.116,1.029,0.097
8.21,-0.091,0.793,0.148
8.22,-0.369,1.143,-0.107
8.23,-0.324,0.75,-0.082
8.24,-0.189,1.177,-0.019
8.25,-0.041,0.879,0.149
8.26,-0.234,0.96,0.081
8.27,-0.288,0.854,-0.146
8.28,-0.237,1.031,-0.077
8.29,-0.159,1.061,0.042
8.3,-0.046,0.814,0.147
8.31,-0.243,1.049,0.028
8.32,-0.342,0.806,-0.111
8.33,-0.148,1.242,-0.095
8.34,-0.12,0.876,0.048
8.35,-0.045,0.911,0.076
8.36,-0.276,0.931,-0.016
8.37,-0.29,1.014,-0.141
8.38,-0.17,1.04,-0.068
8.39,-0.159,0.796,0.082
8.4,-0.188,1.054,0.133
8.41,-0.299,0.866,-0.073
8.42,-0.299,1.172,-0.144
8.43,-0.153,0.849,-0.071
8.44,-0.338,1.015,0.304
8.45,-0.151,0.946,0.062
8.46,-0.409,0.885,-0.102
8.47,-0.188,1.032,-0.171
8.48,-0.157,0.954,0.082
8.49,-0.085,1.105,0.138
8.5,-0.211,0.721,0.019
8.51,-0.355,1.088,-0.117
8.52,-0.108,1.035,-0.086
8.53,-0.219,1.04,0.08
8.54,-0.099,0.87,0.146
8.55,-0.299,0.865,-0.013
8.56,-0.283,1.189,-0.149
8.57,-0.171,0.834,-0.075
8.58,-0.181,1.121,0.109
8.59,-0.118,0.77,0.147
8.6,-0.332,1.033,-0.081
8.61,-0.326,0.944,-0.135
8.62,-0.148,0.94,-0.041
8.63,-0.114,1.087,0.164
8.64,-0.126,0.735,0.068
8.65,-0.374,1.151,-0.113
8.66,-0.187,0.846,-0.094
8.67,-0.234,1.222,0.03
8.68,-0.043,0.801,0.158
8.69,-0.212,0.876,0.057
8.7,-0.321,1.052,-0.139
8.71,-0.171,0.962,-0.068
8.72,-0.129,1.154,0.076
8.73,-0.08,0.675,0.173
8.74,-0.337,1.132,0.007
8.75,-0.296,0.891,-0.157
8.76,-0.176,1.049,-0.096
8.77,-0.462,0.927,0.273
8.78,-0.13,0.824,0.121
8.79,-0.354,1.106,-0.059
8.8,-0.241,0.781,-0.176
8.81,-0.202,1.102,-0.048
8.82,-0.099,0.804,0.174
8.83,-0.139,1.07,0.078
8.84,-0.291,0.925,-0.108
8.85,-0.321,0.972,-0.102
8.86,-0.143,1.076,-0.012
8.87,-0.096,0.887,0.266
8.88,-0.243,1.046,0.009
8.89,-0.352,0.769,-0.149
8.9,-0.201,1.215,-0.058
8.91,-0.052,0.919,0.036
8.92,-0.049,0.935,0.142
8.93,-0.271,0.884,-0.026
8.94,-0.314,0.985,-0.124
8.95,-0.209,1.155,-0.057
8.96,-0.081,0.775,0.06
8.97,-0.163,1.03,0.135
8.98,-0.359,0.847,-0.043
8.99,-0.323,1.172,-0.117
9.0,-0.171,0.899,-0.051
9.01,-0.089,0.966,0.13
9.02,-0.199,0.972,0.127
9.03,-0.115,1.076,0.078
9.04,-0.116,0.791,0.17
9.05,-0.245,0.896,-0.035
9.06,-0.387,1.165,-0.101
9.07,-0.153,0.868,-0.091
9.08,-0.174,1.092,0.1
9.09,-0.127,0.701,0.108
9.1,-0.402,1.167,-0.033
9.11,-0.217,0.855,-0.208
9.12,-0.245,0.999,-0.014
9.13,-0.137,0.95,0.156
9.14,-0.116,0.853,0.119
9.15,-0.394,1.114,-0.141
9.16,-0.171,0.739,-0.141
9.17,-0.217,1.256,0.061
9.18,-0.007,0.826,0.123
9.19,-0.239,1.008,0.026
9.2,-0.393,0.873,-0.152
9.21,-0.171,1.001,-0.055
9.22,-0.104,1.149,0.029
9.23,-0.085,0.715,0.131
9.24,-0.294,1.122,0.0
9.25,-0.255,0.839,-0.138
9.26,-0.24,1.1,-0.067
9.27,-0.114,0.814,0.087
9.28,-0.174,0.986,0.136
9.29,-0.339,1.039,-0.056
9.3,-0.237,0.864,-0.174
9.31,-0.25,1.096,-0.021
9.32,-0.062,0.799,0.144
9.33,-0.151,1.128,0.065
9.34,-0.329,0.809,-0.108
9.35,-0.26,1.047,-0.149
9.36,-0.215,1.063,0.062
9.37,-0.048,0.924,0.109
9.38,-0.241,0.942,0.039
9.39,-0.315,0.824,-0.138
9.4,-0.24,1.251,-0.031
9.41,-0.05,0.853,0.008
9.42,-0.12,1.026,0.152
9.43,-0.186,0.819,-0.031
9.44,-0.334,1.104,-0.108
9.45,-0.161,1.049,-0.092
9.46,-0.148,0.844,0.063
9.47,-0.178,0.964,0.16
9.48,-0.265,0.87,-0.033
9.49,-0.335,1.237,-0.179
9.5,-0.209,0.798,-0.069
9.51,-0.131,1.019,0.123
9.52,-0.102,0.871,0.139
9.53,-0.254,0.997,-0.12
9.54,-0.298,0.962,-0.102
9.55,-0.192,0.929,0.009
9.56,-0.121,1.15,0.158
9.57,-0.138,0.738,-0.001
9.58,-0.394,1.092,-0.144
9.59,-0.206,0.904,-0.031
9.6,-0.064,1.246,0.028
9.61,-0.098,0.802,0.155
9.62,-0.221,0.853,0.035
9.63,-0.336,1.156,-0.131
9.64,-0.164,0.926,-0.081
9.65,-0.178,1.136,0.061
9.66,-0.082,0.628,0.136
9.67,-0.377,1.097,-0.008
9.68,-0.205,0.97,-0.138
9.69,-0.209,0.987,-0.093
9.7,-0.183,0.937,0.165
9.71,-0.11,0.799,0.152
9.72,-0.367,1.187,-0.097
9.73,-0.297,0.762,-0.125
9.74,-0.204,1.172,-0.022
9.75,-0.08,0.875,0.178
9.76,-0.165,0.96,0.038
9.77,-0.353,0.915,-0.102
9.78,-0.207,0.946,-0.123
9.79,-0.162,1.205,0.073
9.8,0.01,0.707,0.121
9.81,-0.264,1.049,0.025
9.82,-0.346,0.812,-0.091
9.83,-0.155,1.196,-0.104
9.84,-0.235,0.951,0.09
9.85,-0.152,0.987,0.106
9.86,-0.338,0.905,-0.017
9.87,-0.224,1.055,-0.15
9.88,-0.182,1.028,-0.062
9.89,-0.103,0.824,0.121
9.9,-0.179,1.094,0.142
9.91,-0.292,0.824,-0.116
9.92,-0.298,1.116,-0.093
9.93,-0.143,0.892,-0.034
9.94,-0.144,1.058,0.174
9.95,-0.153,0.895,0.083
9.96,-0.363,0.919,-0.101
9.97,-0.206,1.107,-0.089
9.98,-0.044,0.969,0.017
9.99,-0.135,1.056,0.137
10.0,-0.174,0.76,0.011
10.01,-0.373,1.181,-0.163
10.02,-0.195,0.962,-0.077
10.03,-0.111,1.033,0.07
10.04,-0.108,0.861,0.162
10.05,-0.353,0.906,-0.043
10.06,-0.294,1.191,-0.154
10.07,-0.202,0.824,-0.039
10.08,-0.175,1.073,0.126
10.09,-0.098,0.711,0.133
10.1,-0.341,1.143,-0.086
10.11,-0.241,0.934,-0.156
10.12,-0.223,0.933,-0.0
10.13,-0.141,1.051,0.16
10.14,-0.154,0.808,0.093
10.15,-0.375,1.14,-0.143
10.16,-0.253,0.76,-0.097
10.17,-0.134,1.237,0.016
10.18,-0.095,0.879,0.218
10.19,-0.167,0.945,-0.009
10.2,-0.381,0.943,-0.141
10.21,-0.184,0.953,-0.063
10.22,-0.236,1.215,0.125
10.23,-0.046,0.663,0.122
10.24,-0.313,1.099,-0.023
10.25,-0.323,0.89,-0.122
10.26,-0.171,1.147,-0.095
10.27,-0.169,0.848,0.115
10.28,-0.136,0.877,0.152
10.29,-0.284,1.085,-0.091
10.3,-0.333,0.794,-0.142
10.31,-0.225,1.119,-0.017
10.32,0.042,0.793,0.067
10.33,-0.18,1.109,0.097
10.34,-0.274,0.886,-0.149
10.35,-0.27,1.003,-0.093
10.36,-0.152,1.08,0.028
10.37,-0.056,0.896,0.108
10.38,-0.272,1.045,0.063
10.39,-0.29,0.783,-0.163
10.4,-0.187,1.277,-0.053
10.41,-0.105,0.886,0.019
10.42,-0.132,0.928,0.16
10.43,-0.255,0.888,0.006
10.44,-0.288,1.035,-0.151
10.45,-0.096,1.099,-0.085
10.46,-0.169,0.81,0.12
10.47,-0.123,0.99,0.114
10.48,-0.328,0.875,-0.056
10.49,-0.226,1.205,-0.169
10.5,-0.187,0.865,-0.057
10.51,-0.157,0.967,0.184
10.52,-0.138,0.94,0.114
10.53,-0.349,0.961,-0.12
10.54,-0.236,1.046,-0.148
10.55,-0.14,0.909,0.008
10.56,-0.118,1.135,0.154
10.57,-0.154,0.721,0.025
10.58,-0.403,1.075,-0.119
10.59,-0.173,1.003,-0.096
10.6,-0.063,1.107,0.062
10.61,-0.104,0.88,0.078
10.62,-0.293,0.819,0.012
10.63,-0.3,1.22,-0.138
10.64,-0.083,0.886,-0.101
10.65,-0.237,1.09,0.074
10.66,-0.116,0.719,0.164
10.67,-0.371,1.175,-0.125
10.68,-0.277,0.782,-0.129
10.69,-0.197,1.073,-0.04
10.7,-0.198,0.989,0.346
10.71,-0.19,0.845,0.072
10.72,-0.362,1.076,-0.121
10.73,-0.146,0.835,-0.076
10.74,-0.08,1.253,-0.004
10.75,0.049,0.683,0.115
10.76,-0.272,1.045,-0.0
10.77,-0.309,0.922,-0.144
10.78,-0.157,1.051,-0.103
10.79,-0.107,1.03,0.076
10.8,-0.074,0.739,0.16
10.81,-0.354,1.163,-0.046
10.82,-0.244,0.841,-0.171
10.83,-0.251,1.17,-0.053
10.84,-0.099,0.764,0.109
10.85,-0.182,1.0,0.14
10.86,-0.33,0.982,-0.08
10.87,-0.203,0.876,-0.135
10.88,-0.23,1.135,-0.001
10.89,-0.044,0.823,0.18
10.9,-0.211,1.076,0.03
10.91,-0.318,0.794,-0.121
10.92,-0.25,1.167,-0.092
10.93,-0.087,0.996,0.07
10.94,-0.07,0.866,0.126
10.95,-0.249,0.975,0.021
10.96,-0.318,0.925,-0.123
10.97,-0.187,1.142,-0.098
10.98,-0.094,0.819,0.116
10.99,-0.156,1.056,0.117
11.0,-0.284,0.864,-0.045
11.01,-0.266,1.143,-0.141
11.02,-0.255,0.877,-0.058
11.03,-0.12,0.869,0.17
11.04,-0.166,1.04,0.133
11.05,-0.332,0.828,-0.141
11.06,-0.258,1.111,-0.119
11.07,-0.162,0.961,0.01
11.08,-0.103,1.082,0.159
11.09,-0.137,0.785,0.045
11.1,-0.334,1.032,-0.115
11.11,-0.245,1.058,-0.094
11.12,-0.096,0.972,0.021
11.13,-0.118,0.986,0.175
11.14,-0.212,0.774,-0.024
11.15,-0.409,1.213,-0.102
11.16,-0.092,0.911,-0.093
11.17,-0.15,1.075,0.076
11.18,-0.156,0.767,0.144
11.19,-0.295,0.994,-0.035
11.2,-0.36,1.113,-0.127
11.21,-0.139,0.846,-0.061
11.22,-0.197,1.145,0.159
11.23,-0.114,0.74,0.105
11.24,-0.329,1.163,-0.126
11.25,-0.222,0.85,-0.151
11.26,-0.275,1.12,0.077
11.27,-0.007,0.961,0.162
11.28,-0.196,0.846,0.003
11.29,-0.407,1.039,-0.135
11.3,-0.238,0.864,-0.068
11.31,-0.104,1.306,0.084
11.32,-0.039,0.695,0.09
11.33,-0.303,0.986,-0.001
11.34,-0.308,0.979,-0.111
11.35,-0.168,1.102,-0.071
11.36,-0.101,0.955,0.072
11.37,-0.199,0.723,0.172
11.38,-0.278,1.167,-0.058
11.39,-0.306,0.839,-0.161
11.4,-0.231,1.092,-0.033
11.41,-0.085,0.834,0.09
11.42,-0.117,0.982,0.091
11.43,-0.341,0.982,-0.113
11.44,-0.256,0.833,-0.142
11.45,-0.194,1.209,0.072
11.46,0.01,0.829,0.127
11.47,-0.256,1.052,0.042
11.48,-0.323,0.784,-0.158
11.49,-0.187,1.238,-0.07
11.5,-0.14,0.842,0.045
11.51,-0.092,0.932,0.142
11.52,-0.295,0.94,0.011
11.53,-0.254,1.035,-0.177
11.54,-0.243,0.981,-0.085
11.55,-0.098,0.775,0.11
11.56,-0.213,1.107,0.151
11.57,-0.297,0.857,-0.086
11.58,-0.304,1.109,-0.108
11.59,-0.197,0.898,-0.012
11.6,-0.141,1.015,0.153
11.61,-0.132,0.889,0.059
11.62,-0.328,0.943,-0.13
11.63,-0.251,1.141,-0.085
11.64,-0.162,0.901,0.041
11.65,-0.065,1.071,0.157
11.66,-0.214,0.758,-0.011
11.67,-0.339,1.079,-0.119
11.68,-0.192,1.003,-0.044
11.69,-0.131,1.041,0.046
11.7,-0.134,0.859,0.159
11.71,-0.254,0.886,-0.039
11.72,-0.328,1.229,-0.11
11.73,-0.175,0.808,-0.12
11.74,-0.205,1.049,0.158
11.75,-0.087,0.757,0.112
11.76,-0.363,1.11,-0.086
11.77,-0.274,0.942,-0.143
11.78,-0.162,0.93,-0.018
11.79,-0.092,1.083,0.169
11.8,-0.135,0.765,0.047
11.81,-0.406,1.132,-0.09
11.82,-0.201,0.822,-0.102
11.83,-0.149,1.253,0.033
11.84,-0.003,0.825,0.102
11.85,-0.234,0.926,0.013
11.86,-0.355,0.996,-0.118
11.87,-0.071,1.001,-0.073
11.88,-0.113,1.158,0.067
11.89,-0.092,0.655,0.157
11.9,-0.313,1.139,-0.022
11.91,-0.303,0.903,-0.121
11.92,-0.167,1.054,-0.085
11.93,-0.112,0.909,0.089
11.94,-0.173,0.867,0.168
11.95,-0.334,1.154,-0.075
11.96,-0.267,0.803,-0.155
11.97,-0.256,1.154,-0.004
11.98,-0.015,0.813,0.17
11.99,-0.253,1.055,0.05
12.0,-0.306,0.837,-0.104
12.01,-0.238,1.059,-0.123
12.02,-0.162,1.089,0.062
12.03,-0.02,0.754,0.131
12.04,-0.245,1.059,0.01
12.05,-0.362,0.825,-0.084
12.06,-0.145,1.192,-0.119
12.07,-0.124,0.848,0.066
12.08,-0.088,1.0,0.147
12.09,-0.31,0.943,-0.046
12.1,-0.308,0.993,-0.116
12.11,-0.272,1.071,-0.037
12.12,-0.076,0.796,0.099
12.13,-0.276,1.113,0.143
12.14,-0.207,0.849,-0.104
12.15,-0.322,1.123,-0.114
12.16,-0.2,0.915,-0.012
12.17,-0.034,0.985,0.167
12.18,-0.175,0.955,0.055
12.19,-0.328,0.866,-0.12
12.2,-0.28,1.151,-0.12
12.21,-0.115,0.927,0.054
12.22,-0.063,1.067,0.132
12.23,-0.198,0.764,0.022
12.24,-0.357,1.129,-0.104
12.25,-0.131,1.014,-0.062
12.26,-0.106,0.973,0.071
12.27,-0.128,0.921,0.159
12.28,-0.331,0.87,-0.041
12.29,-0.299,1.212,-0.154
12.3,-0.204,0.785,-0.064
12.31,-0.162,1.103,0.159
12.32,-0.102,0.798,0.106
12.33,-0.398,1.152,-0.113
12.34,-0.244,0.783,-0.11
12.35,-0.146,1.103,0.026
12.36,-0.032,0.971,0.118
12.37,-0.22,0.813,0.03
12.38,-0.366,1.099,-0.107
12.39,-0.168,0.868,-0.096
12.4,-0.195,1.26,0.096
12.41,-0.021,0.716,0.113
12.42,-0.329,1.007,0.006
12.43,-0.34,0.911,-0.113
12.44,-0.114,1.054,-0.115
12.45,-0.277,1.04,0.164
12.46,-0.09,0.72,0.145
12.47,-0.315,1.127,-0.06
12.48,-0.363,0.852,-0.133
12.49,-0.176,1.119,-0.062
12.5,-0.14,0.819,0.149
12.51,-0.191,0.962,0.169
12.52,-0.306,1.005,-0.114
12.53,-0.265,0.871,-0.126
12.54,-0.141,1.12,-0.014
12.55,-0.007,0.773,0.244
12.56,-0.174,1.126,0.076
12.57,-0.324,0.812,-0.122
12.58,-0.245,1.078,-0.104
12.59,-0.093,0.976,0.05
12.6,0.021,0.981,0.126
12.61,-0.275,0.943,0.006
12.62,-0.371,0.851,-0.129
12.63,-0.182,1.239,-0.042
12.64,-0.059,0.861,0.037
12.65,-0.196,0.958,0.16
12.66,-0.286,0.844,-0.024
12.67,-0.256,1.127,-0.137
12.68,-0.153,0.984,-0.089
12.69,-0.168,0.813,0.15
12.7,-0.167,0.996,0.143
12.71,-0.225,0.898,-0.101
12.72,-0.348,1.156,-0.142
12.73,-0.172,0.789,-0.009
12.74,-0.117,1.079,0.194
12.75,-0.23,0.871,0.048
12.76,-0.36,0.983,-0.103
12.77,-0.182,1.047,-0.137
12.78,-0.122,0.967,0.067
12.79,-0.108,1.056,0.141
12.8,-0.256,0.728,-0.005
12.81,-0.389,1.114,-0.155
12.82,-0.083,0.92,-0.046
12.83,-0.235,1.175,0.022
12.84,-0.161,0.787,0.135
12.85,-0.335,0.901,0.003
12.86,-0.204,1.165,-0.144
12.87,-0.152,0.872,-0.048
12.88,-0.281,1.086,0.178
12.89,-0.063,0.739,0.114
12.9,-0.379,1.164,-0.132
12.91,-0.203,0.81,-0.152
12.92,-0.19,1.084,0.012
12.93,-0.104,1.02,0.159
12.94,-0.192,0.782,0.049
12.95,-0.341,1.12,-0.134
12.96,-0.23,0.881,-0.083
12.97,-0.11,1.245,0.007
12.98,-0.036,0.73,0.148
12.99,-0.294,0.999,0.01
13.0,-0.31,0.928,-0.221
13.01,-0.156,1.034,-0.034
13.02,-0.061,1.054,0.041
13.03,-0.125,0.714,0.144
13.04,-0.334,1.155,-0.045
13.05,-0.229,0.833,-0.119
13.06,-0.255,1.094,-0.068
13.07,-0.093,0.819,0.157
13.08,-0.177,0.961,0.093
13.09,-0.282,1.038,-0.095
13.1,-0.301,0.867,-0.131
13.11,-0.236,1.126,0.006
13.12,-0.014,0.802,0.214
13.13,-0.252,1.042,0.005
13.14,-0.343,0.735,-0.119
13.15,-0.262,1.25,-0.04
13.16,-0.048,0.923,0.043
13.17,-0.105,0.957,0.098
13.18,-0.278,0.923,-0.001
13.19,-0.364,0.977,-0.128
13.2,-0.124,1.056,-0.055
13.21,-0.16,0.823,0.11
13.22,-0.171,1.01,0.091
13.23,-0.308,0.891,-0.034
13.24,-0.26,1.201,-0.166
13.25,-0.231,0.875,-0.049
13.26,-0.113,0.981,0.174
13.27,-0.161,0.973,0.091
13.28,-0.275,0.937,-0.133
13.29,-0.284,1.082,-0.12
13.3,-0.191,0.841,0.044
13.31,-0.062,1.146,0.162
13.32,-0.155,0.727,-0.009
13.33,-0.448,1.031,-0.112
13.34,-0.136,1.039,-0.04
13.35,-0.044,1.114,0.014
13.36,-0.167,0.913,0.124
13.37,-0.287,0.794,-0.002
13.38,-0.266,1.195,-0.165
13.39,-0.158,0.853,-0.072
13.4,-0.063,1.08,-0.002
13.41,-0.086,0.752,0.163
13.42,-0.34,1.07,-0.082
13.43,-0.279,0.969,-0.125
13.44,-0.264,0.923,-0.037
13.45,-0.121,1.091,0.185
13.46,-0.084,0.745,0.052
13.47,-0.367,1.15,-0.102
13.48,-0.187,0.834,-0.124
13.49,-0.208,1.251,0.053
13.5,-0.009,0.822,0.14
13.51,-0.236,0.885,0.05
13.52,-0.338,1.051,-0.164
13.53,-0.18,0.951,-0.065
13.54,-0.225,1.185,0.071
13.55,-0.056,0.688,0.13
13.56,-0.337,1.085,-0.011
13.57,-0.31,0.853,-0.132
13.58,-0.175,1.053,-0.098
13.59,-0.135,0.917,0.108
13.6,-0.086,0.81,0.109
13.61,-0.375,1.125,-0.046
13.62,-0.217,0.844,-0.14
13.63,-0.244,1.136,-0.038
13.64,-0.087,0.776,0.189
13.65,-0.159,1.075,0.092
13.66,-0.329,0.911,-0.135
13.67,-0.306,0.914,-0.107
13.68,-0.169,1.131,0.038
13.69,-0.021,0.898,0.143
13.7,-0.263,1.07,0.032
13.71,-0.285,0.753,-0.151
13.72,-0.263,1.262,-0.037
13.73,-0.062,0.92,0.04
13.74,-0.094,0.918,0.132
13.75,-0.265,0.908,0.004
13.76,-0.287,1.012,-0.152
13.77,-0.197,1.075,-0.044
13.78,-0.15,0.786,0.075
13.79,-0.172,1.1,0.173
13.8,-0.283,0.873,-0.09
13.81,-0.352,1.158,-0.114
13.82,-0.173,0.898,-0.044
13.83,-0.102,0.966,0.149
13.84,-0.2,0.978,0.115
13.85,-0.314,0.877,-0.129
13.86,-0.241,1.119,-0.084
13.87,-0.134,0.915,0.006
13.88,-0.123,1.072,0.145
13.89,-0.135,0.758,0.028
13.9,-0.352,1.078,-0.125
13.91,-0.232,1.029,-0.061
13.92,-0.082,1.0,0.036
13.93,-0.077,0.921,0.148
13.94,-0.29,0.819,0.004
13.95,-0.286,1.251,-0.136
13.96,-0.222,0.84,-0.068
13.97,-0.106,1.079,0.098
13.98,-0.112,0.756,0.125
13.99,-0.364,1.123,-0.097
14.0,-0.266,0.822,-0.126
14.01,-0.19,1.025,0.017
14.02,-0.132,1.009,0.166
14.03,-0.203,0.818,0.077
14.04,-0.355,1.112,-0.13
14.05,-0.23,0.79,-0.103
14.06,-0.132,1.25,0.02
14.07,-0.035,0.803,0.153
14.08,-0.258,0.993,-0.001
14.09,-0.35,0.887,-0.109
14.1,-0.135,1.033,-0.094
14.11,-0.11,1.117,0.021
14.12,-0.117,0.676,0.156
14.13,-0.291,1.101,-0.031
14.14,-0.242,0.884,-0.132
14.15,-0.214,1.15,-0.067
14.16,-0.113,0.847,0.141
14.17,-0.14,0.942,0.122
14.18,-0.352,1.012,-0.062
14.19,-0.223,0.857,-0.128
14.2,-0.219,1.137,-0.03
14.21,-0.094,0.78,0.166
14.22,-0.203,1.132,0.062
14.23,-0.317,0.818,-0.148
14.24,-0.237,1.077,-0.121
14.25,-0.2,1.033,0.056
14.26,-0.008,0.856,0.127
14.27,-0.262,1.001,0.034
14.28,-0.348,0.869,-0.107
14.29,-0.181,1.205,-0.095
14.3,-0.216,0.803,0.067
14.31,-0.067,0.979,0.156
14.32,-0.295,0.875,-0.066
14.33,-0.261,1.099,-0.15
14.34,-0.157,0.996,-0.076
14.35,-0.263,0.825,0.245
14.36,-0.153,1.01,0.134
14.37,-0.322,0.851,-0.094
14.38,-0.249,1.165,-0.138
14.39,-0.167,0.852,-0.021
14.4,-0.164,1.056,0.192
14.41,-0.209,0.857,0.053
14.42,-0.401,0.99,-0.105
14.43,-0.193,1.09,-0.136
14.44,-0.122,0.927,0.063
14.45,-0.056,1.003,0.18
14.46,-0.177,0.781,0.009
14.47,-0.361,1.144,-0.183
14.48,-0.26,0.937,-0.011
14.49,-0.092,1.039,0.053
14.5,-0.146,0.821,0.115
14.51,-0.364,0.935,-0.006
14.52,-0.269,1.183,-0.177
14.53,-0.209,0.834,-0.008
14.54,-0.096,1.082,0.129
14.55,-0.13,0.782,0.092
14.56,-0.357,1.101,-0.139
14.57,-0.224,0.869,-0.116
14.58,-0.217,1.069,0.01
14.59,-0.133,0.999,0.17
14.6,-0.192,0.79,0.042
14.61,-0.369,1.123,-0.122
14.62,-0.157,0.865,-0.09
14.63,-0.037,1.266,0.052
14.64,-0.199,0.703,0.224
14.65,-0.295,0.974,-0.003
14.66,-0.274,1.02,-0.148
14.67,-0.124,0.993,-0.09
14.68,-0.157,1.068,0.083
14.69,-0.09,0.68,0.154
14.7,-0.373,1.182,-0.061
14.71,-0.179,0.859,-0.117
14.72,-0.256,1.146,-0.092
14.73,-0.174,0.812,0.182
14.74,-0.135,0.953,0.102
14.75,-0.322,1.072,-0.148
14.76,-0.256,0.81,-0.132
14.77,-0.165,1.144,0.017
14.78,-0.031,0.823,0.217
14.79,-0.304,1.077,0.009
14.8,-0.343,0.769,-0.137
14.81,-0.22,1.226,-0.072
14.82,-0.073,0.89,0.06
14.83,-0.077,0.948,0.109
14.84,-0.312,0.952,-0.017
14.85,-0.187,1.004,-0.167
14.86,-0.162,1.128,-0.063
14.87,-0.171,0.729,0.133
14.88,-0.177,1.042,0.148
14.89,-0.285,0.867,-0.095
14.9,-0.275,1.09,-0.15
14.91,-0.187,0.928,0.007
14.92,-0.126,0.987,0.212
14.93,-0.156,0.929,0.053
14.94,-0.361,0.874,-0.12
14.95,-0.189,1.171,-0.109
14.96,-0.339,0.924,0.153
14.97,-0.047,1.026,0.103
14.98,-0.271,0.755,-0.024
14.99,-0.357,1.126,-0.145
15.0,-0.104,1.05,-0.069
15.01,-0.081,0.877,0.035
15.02,-0.126,0.933,0.152
15.03,-0.339,0.921,-0.063
15.04,-0.231,1.207,-0.165
15.05,-0.198,0.809,-0.023
15.06,-0.112,1.065,0.154
15.07,-0.138,0.831,0.108
15.08,-0.374,1.002,-0.147
15.09,-0.277,0.928,-0.125
15.1,-0.144,0.976,0.042
15.11,-0.059,1.047,0.145
15.12,-0.244,0.726,0.032
15.13,-0.274,1.118,-0.16
15.14,-0.184,0.962,-0.065
15.15,-0.125,1.123,0.072
15.16,-0.091,0.77,0.157
15.17,-0.288,0.935,-0.036
15.18,-0.289,1.129,-0.14
15.19,-0.108,0.87,-0.068
15.2,-0.233,1.09,0.114
15.21,-0.099,0.7,0.179
15.22,-0.319,1.194,-0.104
15.23,-0.294,0.849,-0.133
15.24,-0.254,1.015,-0.013
15.25,-0.044,0.989,0.187
15.26,-0.147,0.854,0.015
15.27,-0.427,1.08,-0.149
15.28,-0.237,0.82,-0.034
15.29,-0.056,1.287,0.009
15.3,-0.107,0.701,0.171
15.31,-0.3,0.978,-0.001
15.32,-0.303,0.957,-0.107
15.33,-0.174,1.037,-0.106
15.34,-0.19,1.022,0.067
15.35,-0.088,0.714,0.144
15.36,-0.331,1.193,-0.061
15.37,-0.268,0.79,-0.124
15.38,-0.206,1.104,-0.053
15.39,-0.138,0.837,0.169
15.4,-0.154,1.016,0.107
15.41,-0.367,0.978,-0.104
15.42,-0.236,0.862,-0.136
15.43,-0.173,1.206,0.031
15.44,-0.012,0.764,0.154
15.45,-0.202,1.106,0.057
15.46,-0.298,0.839,-0.169
15.47,-0.274,1.165,-0.083
15.48,-0.172,0.958,0.077
15.49,-0.067,0.859,0.183
15.5,-0.26,1.001,-0.029
15.51,-0.278,0.917,-0.15
15.52,-0.223,1.16,-0.052
15.53,-0.069,0.768,0.054
15.54,-0.132,1.035,0.145
15.55,-0.341,0.889,-0.095
15.56,-0.281,1.066,-0.129
15.57,-0.128,0.975,-0.069
15.58,-0.12,0.882,0.182
15.59,-0.14,1.022,0.101
15.6,-0.369,0.896,-0.14
15.61,-0.236,1.065,-0.095
15.62,-0.142,0.938,0.082
15.63,-0.046,1.075,0.1
15.64,-0.226,0.765,0.014
15.65,-0.349,1.163,-0.141
15.66,-0.086,0.979,-0.084
15.67,-0.183,0.976,0.093
15.68,-0.108,0.877,0.164
15.69,-0.314,0.897,-0.028
15.7,-0.239,1.178,-0.194
15.71,-0.228,0.815,-0.044
15.72,-0.108,1.071,0.093
15.73,-0.097,0.791,0.132
15.74,-0.413,1.075,-0.097
15.75,-0.249,0.916,-0.144
15.76,-0.146,1.075,0.019
15.77,0.013,0.997,0.096
15.78,-0.211,0.723,0.055
15.79,-0.36,1.159,-0.136
15.8,-0.192,0.948,-0.068
15.81,-0.143,1.147,0.045
15.82,-0.048,0.706,0.16
15.83,-0.332,0.993,-0.019
15.84,-0.285,1.06,-0.158
15.85,-0.236,0.927,-0.086
15.86,-0.113,1.063,0.115
15.87,-0.101,0.744,0.142
15.88,-0.389,1.164,-0.105
15.89,-0.307,0.769,-0.103
15.9,-0.176,1.103,-0.02
15.91,-0.089,0.95,0.195
15.92,-0.191,0.861,0.065
15.93,-0.371,1.054,-0.095
15.94,-0.195,0.81,-0.151
15.95,-0.207,1.26,0.064
15.96,-0.018,0.755,0.154
15.97,-0.227,1.007,-0.034
15.98,-0.344,0.876,-0.128
15.99,-0.158,1.058,-0.073
16.0,-0.13,0.991,0.074
16.01,-0.043,0.739,0.169
16.02,-0.396,1.139,-0.049
16.03,-0.253,0.853,-0.102
16.04,-0.246,1.152,-0.059
16.05,-0.094,0.758,0.122
16.06,-0.147,1.021,0.13
16.07,-0.298,0.998,-0.11
16.08,-0.264,0.906,-0.136
16.09,-0.249,1.104,0.014
16.1,-0.015,0.809,0.178
16.11,-0.181,1.083,0.018
16.12,-0.346,0.759,-0.11
16.13,-0.27,1.173,-0.06
16.14,-0.045,0.99,0.009
16.15,-0.064,0.887,0.16
16.16,-0.271,0.922,-0.007
16.17,-0.314,0.968,-0.097
16.18,-0.207,1.196,-0.084
16.19,-0.124,0.781,0.093
16.2,-0.168,1.03,0.111
16.21,-0.323,0.875,-0.033
16.22,-0.282,1.12,-0.17
16.23,-0.171,0.929,-0.08
16.24,-0.18,0.912,0.151
16.25,-0.103,1.004,0.134
16.26,-0.297,0.887,-0.122
16.27,-0.313,1.08,-0.119
16.28,-0.168,0.88,0.059
16.29,-0.064,1.163,0.134
16.3,-0.239,0.764,0.06
16.31,-0.36,1.007,-0.129
16.32,-0.172,1.096,-0.077
16.33,-0.215,1.023,0.171
16.34,-0.127,0.919,0.151
16.35,-0.263,0.78,0.032
16.36,-0.326,1.219,-0.153
16.37,-0.192,0.827,-0.071
16.38,-0.13,1.071,0.121
16.39,-0.102,0.789,0.14
16.4,-0.342,1.013,-0.056
16.41,-0.334,1.063,-0.116
16.42,-0.182,1.012,-0.001
16.43,-0.1,1.011,0.174
16.44,-0.161,0.817,0.08
16.45,-0.385,1.101,-0.141
16.46,-0.221,0.778,-0.1
16.47,-0.181,1.265,0.056
16.48,-0.036,0.768,0.136
16.49,-0.272,0.928,0.015
16.5,-0.358,0.965,-0.126
16.51,-0.148,1.046,-0.1
16.52,-0.16,1.092,0.094
16.53,-0.053,0.645,0.121
16.54,-0.361,1.168,0.001
16.55,-0.255,0.857,-0.191
16.56,-0.252,1.104,-0.034
16.57,-0.061,0.843,0.103
16.58,-0.193,0.926,0.13
16.59,-0.344,1.054,-0.1
16.6,-0.233,0.832,-0.124
16.61,-0.204,1.144,-0.029
16.62,-0.07,0.789,0.207
16.63,-0.192,1.097,0.046
16.64,-0.305,0.805,-0.133
16.65,-0.243,1.084,-0.085
16.66,-0.127,1.076,0.024
16.67,-0.022,0.787,0.128
16.68,-0.231,1.034,0.014
16.69,-0.343,0.87,-0.136
16.7,-0.238,1.204,-0.059
16.71,-0.098,0.811,0.072
16.72,-0.147,0.974,0.159
16.73,-0.287,0.921,-0.038
16.74,-0.278,1.091,-0.159
16.75,-0.202,0.951,-0.095
16.76,-0.107,0.786,0.12
16.77,-0.168,1.065,0.126
16.78,-0.321,0.841,-0.082
16.79,-0.312,1.102,-0.139
16.8,-0.205,0.857,0.0
16.81,-0.073,1.083,0.172
16.82,-0.218,0.926,0.069
16.83,-0.423,0.866,-0.115
16.84,-0.164,1.078,-0.102
16.85,-0.182,1.004,0.113
16.86,-0.069,1.026,0.098
16.87,-0.212,0.768,0.022
16.88,-0.372,1.157,-0.133
16.89,-0.171,0.97,-0.063
16.9,-0.123,1.006,0.074
16.91,-0.165,0.877,0.167
16.92,-0.337,0.885,-0.02
16.93,-0.315,1.151,-0.145
16.94,-0.099,0.853,-0.048
16.95,-0.16,1.09,0.1
16.96,-0.159,0.758,0.131
16.97,-0.284,1.119,-0.108
16.98,-0.21,0.896,-0.118
16.99,-0.219,1.038,0.004
17.0,-0.113,0.985,0.154
17.01,-0.19,0.794,0.05
17.02,-0.34,1.117,-0.105
17.03,-0.197,0.833,-0.106
17.04,-0.132,1.233,0.034
17.05,-0.066,0.737,0.174
17.06,-0.221,0.959,0.021
17.07,-0.277,1.027,-0.167
17.08,-0.235,0.966,-0.063
17.09,-0.349,1.094,0.126
17.1,-0.047,0.711,0.101
17.11,-0.389,1.129,-0.08
17.12,-0.252,0.837,-0.125
17.13,-0.171,1.148,-0.007
17.14,-0.018,0.82,0.035
17.15,-0.196,0.895,0.133
17.16,-0.327,1.095,-0.068
17.17,-0.205,0.87,-0.135
17.18,-0.201,1.13,-0.002
17.19,-0.104,0.726,0.177
17.2,-0.217,1.115,0.067
17.21,-0.26,0.851,-0.144
17.22,-0.266,1.048,-0.099
17.23,-0.104,1.037,0.069
17.24,-0.016,0.887,0.122
17.25,-0.261,0.919,0.005
17.26,-0.334,0.925,-0.136
17.27,-0.238,1.2,-0.014
17.28,-0.037,0.8,0.085
17.29,-0.154,1.018,0.124
17.3,-0.281,0.832,-0.048
17.31,-0.326,1.224,-0.152
17.32,-0.115,0.919,-0.056
17.33,-0.193,0.9,0.166
17.34,-0.19,0.982,0.104
17.35,-0.338,0.917,-0.119
17.36,-0.224,1.119,-0.167
17.37,-0.117,0.942,0.121
17.38,-0.39,0.894,-0.0
17.39,-0.212,1.16,-0.189
17.4,-0.141,0.897,-0.066
17.41,-0.181,1.073,0.131
17.42,-0.112,0.728,0.167
17.43,-0.35,1.14,-0.099
17.44,-0.252,0.879,-0.154
17.45,-0.263,1.057,0.05
17.46,-0.061,0.986,0.16
17.47,-0.226,0.78,0.044
17.48,-0.37,1.129,-0.119
17.49,-0.201,0.875,-0.043
17.5,-0.277,1.276,0.128
17.51,-0.099,0.677,0.172
17.52,-0.285,0.976,0.003
17.53,-0.332,0.966,-0.143
17.54,-0.165,0.999,-0.089
17.55,-0.184,1.071,0.128
17.56,-0.06,0.715,0.115
17.57,-0.369,1.201,-0.08
17.58,-0.204,0.763,-0.155
17.59,-0.267,1.138,-0.036
17.6,-0.062,0.861,0.15
17.61,-0.134,0.974,0.1
17.62,-0.364,0.996,-0.108
17.63,-0.227,0.824,-0.145
17.64,-0.196,1.265,0.05
17.65,-0.002,0.786,0.151
17.66,-0.266,1.061,0.024
17.67,-0.33,0.786,-0.164
17.68,-0.251,1.177,-0.056
17.69,-0.088,0.959,-0.0
17.7,-0.065,0.805,0.186
17.71,-0.296,1.052,0.015
17.72,-0.305,0.88,-0.159
17.73,-0.237,1.223,-0.034
17.74,-0.063,0.8,0.075
17.75,-0.197,0.99,0.125
17.76,-0.313,0.909,-0.066
17.77,-0.26,1.086,-0.122
17.78,-0.179,0.976,-0.06
17.79,-0.115,0.82,0.139
17.8,-0.166,1.073,0.088
17.81,-0.324,0.863,-0.153
17.82,-0.269,1.119,-0.101
17.83,-0.143,0.902,0.008
17.84,-0.073,1.01,0.185
17.85,-0.221,0.861,0.015
17.86,-0.364,0.943,-0.132
17.87,-0.257,1.128,-0.001
17.88,-0.068,0.908,0.039
17.89,-0.13,0.996,0.125
17.9,-0.292,0.789,-0.012
17.91,-0.279,1.176,-0.173
17.92,-0.175,0.865,-0.059
17.93,-0.108,0.999,0.1
17.94,-0.205,0.942,0.159
17.95,-0.289,0.906,-0.093
17.96,-0.316,1.085,-0.12
17.97,-0.171,0.877,-0.021
17.98,-0.125,1.118,0.169
17.99,-0.16,0.759,0.049
18.0,-0.366,1.072,-0.122
18.01,-0.201,0.884,-0.073
18.02,-0.092,1.18,0.039
18.03,-0.081,0.783,0.147
18.04,-0.229,0.923,0.007
18.05,-0.357,1.122,-0.122
18.06,-0.15,0.906,-0.105
18.07,-0.182,1.094,0.113
18.08,-0.084,0.69,0.128
18.09,-0.355,1.185,-0.066
18.1,-0.255,0.853,-0.162
18.11,-0.23,1.014,-0.02
18.12,-0.089,0.943,0.161
18.13,-0.135,0.882,0.105
18.14,-0.389,1.108,-0.11
18.15,-0.208,0.732,-0.131
18.16,-0.198,1.248,0.059
18.17,-0.044,0.827,0.138
18.18,-0.204,0.979,0.037
18.19,-0.348,0.9,-0.116
18.2,-0.203,1.06,-0.076
18.21,-0.12,1.139,0.053
18.22,-0.068,0.736,0.137
18.23,-0.295,1.076,0.001
18.24,-0.3,0.844,-0.129
18.25,-0.153,1.171,-0.066
18.26,-0.076,0.83,0.07
18.27,-0.174,0.94,0.128
18.28,-0.332,1.017,-0.047
18.29,-0.269,0.983,-0.167
18.3,-0.227,1.039,-0.022
18.31,-0.137,0.771,0.149
18.32,-0.178,1.108,0.137
18.33,-0.299,0.851,-0.155
18.34,-0.297,1.048,-0.12
18.35,-0.188,0.936,0.034
18.36,0.002,0.986,0.16
18.37,-0.229,0.968,0.034
18.38,-0.355,0.832,-0.121
18.39,-0.198,1.179,-0.093
18.4,-0.044,0.915,0.053
18.41,-0.162,1.002,0.121
18.42,-0.333,0.836,-0.016
18.43,-0.278,1.081,-0.151
18.44,-0.129,1.021,-0.095
18.45,-0.176,0.875,0.132
18.46,-0.201,0.968,0.149
18.47,-0.31,0.85,-0.06
18.48,-0.256,1.189,-0.149
18.49,-0.138,0.822,-0.029
18.5,-0.09,1.064,0.111
18.51,-0.155,0.845,0.08
18.52,-0.337,0.999,-0.158
18.53,-0.25,1.021,-0.09
18.54,-0.173,0.964,0.071
18.55,-0.104,1.033,0.141
18.56,-0.182,0.725,0.015
18.57,-0.322,1.185,-0.166
18.58,-0.368,0.937,0.014
18.59,-0.072,1.068,0.018
18.6,-0.114,0.819,0.141
18.61,-0.343,0.919,-0.023
18.62,-0.309,1.102,-0.15
18.63,-0.175,0.854,-0.053
18.64,-0.162,1.096,0.113
18.65,-0.145,0.737,0.145
18.66,-0.362,1.145,-0.105
18.67,-0.208,0.863,-0.14
18.68,-0.249,1.095,-0.001
18.69,-0.038,0.937,0.126
18.7,-0.189,0.836,0.037
18.71,-0.36,1.082,-0.142
18.72,-0.181,0.854,-0.035
18.73,-0.107,1.281,0.041
18.74,-0.06,0.664,0.145
18.75,-0.288,0.982,0.023
18.76,-0.313,1.009,-0.117
18.77,-0.192,1.009,-0.1
18.78,-0.139,1.025,0.091
18.79,-0.112,0.762,0.129
18.8,-0.34,1.198,-0.05
18.81,-0.275,0.762,-0.14
18.82,-0.204,1.121,-0.037
18.83,-0.083,0.844,0.183
18.84,-0.15,1.052,0.053
18.85,-0.346,0.837,-0.109
18.86,-0.205,1.005,-0.113
18.87,-0.192,1.149,0.059
18.88,-0.028,0.802,0.124
18.89,-0.259,1.04,0.056
18.9,-0.351,0.793,-0.11
18.91,-0.198,1.28,-0.044
18.92,-0.116,0.86,0.014
18.93,-0.119,0.894,0.15
18.94,-0.321,0.959,-0.004
18.95,-0.275,1.05,-0.147
18.96,-0.208,1.037,-0.078
18.97,-0.115,0.804,0.109
18.98,-0.2,1.118,0.158
18.99,-0.335,0.834,-0.093
19.0,-0.285,1.067,-0.101
19.01,-0.189,0.914,-0.034
19.02,-0.147,1.005,0.141
19.03,-0.14,0.93,0.074
19.04,-0.284,0.914,-0.15
19.05,-0.289,1.114,-0.107
19.06,-0.127,0.913,0.008
19.07,-0.055,1.038,0.173
19.08,-0.181,0.786,-0.002
19.09,-0.361,1.086,-0.135
19.1,-0.221,0.986,-0.068
19.11,-0.151,0.978,0.123
19.12,-0.132,0.913,0.145
19.13,-0.275,0.856,-0.046
19.14,-0.346,1.212,-0.125
19.15,-0.192,0.839,-0.054
19.16,-0.125,1.062,0.125
19.17,-0.108,0.747,0.122
19.18,-0.355,1.046,-0.105
19.19,-0.3,0.947,-0.136
19.2,-0.179,0.945,-0.009
19.21,-0.129,1.094,0.167
19.22,-0.166,0.748,0.052
19.23,-0.382,1.137,-0.095
19.24,-0.192,0.853,-0.091
19.25,-0.138,1.21,0.032
19.26,-0.03,0.771,0.134
19.27,-0.26,0.932,0.046
19.28,-0.335,1.023,-0.161
19.29,-0.173,0.969,-0.049
19.3,-0.097,1.165,0.03
19.31,-0.109,0.621,0.139
19.32,-0.368,1.136,-0.002
19.33,-0.288,0.901,-0.137
19.34,-0.196,1.037,-0.073
19.35,-0.097,0.896,0.101
19.36,-0.23,0.862,0.177
19.37,-0.271,1.101,-0.114
19.38,-0.304,0.756,-0.126
19.39,-0.217,1.154,-0.001
19.4,-0.184,0.852,0.143
19.41,-0.206,1.061,0.047
19.42,-0.334,0.868,-0.132
19.43,-0.226,1.001,-0.084
19.44,-0.088,1.127,0.03
19.45,-0.047,0.755,0.17
19.46,-0.233,1.049,0.015
19.47,-0.381,0.82,-0.115
19.48,-0.213,1.208,-0.05
19.49,-0.058,0.872,0.023
19.5,-0.102,0.912,0.158
19.51,-0.275,0.953,-0.034
19.52,-0.271,1.019,-0.168
19.53,-0.221,1.077,-0.089
19.54,-0.123,0.761,0.127
19.55,-0.234,1.081,0.133
19.56,-0.287,0.829,-0.085
19.57,-0.28,1.126,-0.133
19.58,-0.191,0.873,-0.005
19.59,-0.15,0.947,0.212
19.6,-0.122,1.0,0.075
19.61,-0.366,0.867,-0.146
19.62,-0.225,1.081,-0.112
19.63,-0.115,0.962,0.064
19.64,-0.121,1.054,0.154
19.65,-0.252,0.745,-0.008
19.66,-0.364,1.208,-0.122
19.67,-0.083,0.929,-0.08
19.68,-0.122,1.04,0.075
19.69,-0.111,0.799,0.127
19.7,-0.341,0.994,-0.034
19.71,-0.263,1.1,-0.154
19.72,-0.222,0.853,-0.039
19.73,-0.106,1.123,0.175
19.74,-0.158,0.721,0.108
19.75,-0.323,1.082,-0.099
19.76,-0.238,0.887,-0.129
19.77,-0.187,1.139,0.034
19.78,-0.063,0.924,0.132
19.79,-0.208,0.76,0.013
19.8,-0.365,1.146,-0.129
19.81,-0.136,0.93,-0.073
19.82,-0.218,1.214,0.044
19.83,-0.118,0.671,0.164
19.84,-0.283,1.02,-0.026
19.85,-0.275,1.012,-0.116
19.86,-0.163,0.971,-0.101
19.87,-0.084,0.963,0.08
19.88,-0.148,0.81,0.179
19.89,-0.375,1.145,-0.106
19.9,-0.332,0.735,-0.137
19.91,-0.205,1.206,0.018
19.92,-0.096,0.926,0.145
19.93,-0.224,0.899,0.089
19.94,-0.292,0.97,-0.115
19.95,-0.245,0.947,-0.076
19.96,-0.09,1.195,-0.011
19.97,-0.007,0.685,0.174
19.98,-0.242,1.07,0.014
19.99,-0.327,0.828,-0.122
20.0,-0.166,1.166,-0.116
20.01,-0.146,0.925,0.052
20.02,-0.048,0.795,0.167
20.03,-0.313,1.082,-0.059
20.04,-0.282,0.862,-0.16
20.05,-0.258,1.125,-0.005
20.06,-0.087,0.806,0.124
20.07,-0.144,1.083,0.115
20.08,-0.354,0.884,-0.069
20.09,-0.259,0.983,-0.15
20.1,-0.208,1.044,0.003
20.11,-0.099,0.861,0.158
20.12,-0.218,1.077,0.072
20.13,-0.39,0.811,-0.127
20.14,-0.218,1.169,-0.1
20.15,-0.071,0.954,0.029
20.16,-0.074,0.988,0.128
20.17,-0.264,0.861,0.006
20.18,-0.292,0.98,-0.125
20.19,-0.226,1.173,-0.064
20.2,-0.07,0.811,0.037
20.21,-0.167,0.956,0.148
20.22,-0.29,0.824,-0.033
20.23,-0.306,1.238,-0.147
20.24,-0.198,0.85,-0.077
20.25,-0.073,0.908,0.091
20.26,-0.193,0.949,0.182
20.27,-0.249,0.934,-0.139
20.28,-0.29,1.098,-0.123
20.29,-0.152,0.854,0.022
20.3,-0.07,1.106,0.174
20.31,-0.114,0.74,0.043
20.32,-0.45,1.098,-0.12
20.33,-0.245,0.946,-0.083
20.34,-0.126,1.077,0.055
20.35,-0.075,0.917,0.118
20.36,-0.288,0.765,0.004
20.37,-0.341,1.16,-0.162
20.38,-0.1,0.91,-0.055
20.39,-0.111,1.144,0.061
20.4,-0.143,0.663,0.142
20.41,-0.271,1.08,-0.045
20.42,-0.257,1.075,-0.141
20.43,-0.253,0.892,-0.039
20.44,-0.121,1.034,0.157
20.45,-0.172,0.774,0.1
20.46,-0.381,1.189,-0.102
20.47,-0.253,0.786,-0.124
20.48,-0.088,1.256,0.029
20.49,-0.056,0.805,0.165
20.5,-0.246,0.969,0.001
20.51,-0.358,0.893,-0.137
20.52,-0.199,1.065,-0.069
20.53,-0.249,1.047,0.025
20.54,-0.1,0.706,0.122
20.55,-0.337,1.149,-0.014
20.56,-0.277,0.883,-0.161
20.57,-0.258,1.137,-0.047
20.58,-0.088,0.777,0.117
20.59,-0.196,0.988,0.149
20.6,-0.348,1.007,-0.106
20.61,-0.296,0.885,-0.13
20.62,-0.206,1.127,-0.031
20.63,-0.056,0.797,0.177
20.64,-0.167,1.083,0.069
20.65,-0.293,0.808,-0.138
20.66,-0.272,1.135,-0.101
20.67,-0.187,0.983,0.051
20.68,0.024,0.931,0.138
20.69,-0.275,0.968,0.008
20.7,-0.339,0.843,-0.127
20.71,-0.154,1.251,-0.058
20.72,-0.146,0.805,0.028
20.73,-0.156,0.977,0.176
20.74,-0.238,0.875,-0.059
20.75,-0.295,1.13,-0.152
20.76,-0.147,0.933,-0.055
20.77,-0.111,0.906,0.133
20.78,-0.131,1.002,0.099
20.79,-0.364,0.878,-0.065
20.8,-0.263,1.12,-0.123
20.81,-0.18,0.869,-0.001
20.82,-0.119,1.071,0.17
20.83,-0.211,0.85,0.056
20.84,-0.375,0.99,-0.14
20.85,-0.225,1.035,-0.107
20.86,-0.135,0.986,0.049
20.87,-0.069,1.012,0.144
20.88,-0.281,0.771,0.009
20.89,-0.34,1.12,-0.141
20.9,-0.13,0.946,-0.059
20.91,-0.122,1.04,0.09
20.92,-0.138,0.795,0.157
20.93,-0.331,0.967,-0.046
20.94,-0.256,1.168,-0.15
20.95,-0.185,0.844,-0.027
20.96,-0.104,1.068,0.139
20.97,-0.136,0.75,0.098
20.98,-0.378,1.135,-0.125
20.99,-0.271,0.844,-0.116
21.0,-0.171,1.084,0.014
21.01,-0.098,0.958,0.19
21.02,-0.229,0.798,0.004
21.03,-0.364,1.092,-0.122
21.04,-0.136,0.899,-0.055
21.05,-0.103,1.213,0.125
21.06,-0.081,0.662,0.139
21.07,-0.361,1.032,0.002
21.08,-0.303,0.961,-0.154
21.09,-0.146,1.013,-0.08
21.1,-0.174,0.953,0.105
21.11,-0.143,0.702,0.126
21.12,-0.359,1.216,-0.047
21.13,-0.217,0.843,-0.158
21.14,-0.218,1.121,-0.028
21.15,-0.009,0.82,0.124
21.16,-0.156,1.003,0.1
21.17,-0.355,0.974,-0.118
21.18,-0.254,0.847,-0.109
21.19,-0.133,1.216,0.051
21.2,0.027,0.789,0.144
21.21,-0.325,1.037,0.012
21.22,-0.28,0.818,-0.11
21.23,-0.172,1.25,-0.06
21.24,-0.107,0.92,0.022
21.25,-0.178,0.797,0.165
21.26,-0.268,1.076,-0.019
21.27,-0.282,0.93,-0.171
21.28,-0.22,1.082,-0.019
21.29,-0.138,0.776,0.125
21.3,-0.119,1.114,0.062
21.31,-0.4,0.816,-0.109
21.32,-0.25,1.072,-0.118
21.33,-0.183,0.993,0.056
21.34,-0.027,0.959,0.11
21.35,-0.282,0.92,0.035
21.36,-0.346,0.9,-0.113
21.37,-0.165,1.198,-0.07
21.38,-0.12,0.844,0.032
21.39,-0.133,0.99,0.149
21.4,-0.29,0.871,0.037
21.41,-0.308,1.146,-0.223
21.42,-0.237,0.877,-0.039
21.43,-0.089,0.906,0.084
21.44,-0.216,1.006,0.17
21.45,-0.287,0.876,-0.108
21.46,-0.308,1.12,-0.105
21.47,-0.163,0.841,-0.016
21.48,-0.151,1.131,0.181
21.49,-0.142,0.812,0.065
21.5,-0.348,0.983,-0.147
21.51,-0.308,1.027,-0.079
21.52,-0.114,1.01,0.034
21.53,-0.096,0.986,0.154
21.54,-0.229,0.747,0.012
21.55,-0.357,1.188,-0.133
21.56,-0.141,0.921,-0.081
21.57,-0.15,1.099,0.067
21.58,-0.103,0.699,0.137
21.59,-0.34,0.958,-0.023
21.6,-0.234,1.124,-0.155
21.61,-0.195,0.865,-0.064
21.62,-0.165,1.03,0.123
21.63,-0.182,0.725,0.152
21.64,-0.348,1.188,-0.11
21.65,-0.317,0.787,-0.136
21.66,-0.236,1.07,0.003
21.67,-0.002,0.952,0.13
21.68,-0.183,0.846,0.05
21.69,-0.312,1.042,-0.153
21.7,-0.272,0.863,-0.043
21.71,-0.096,1.259,0.058
21.72,-0.002,0.694,0.121
21.73,-0.322,1.013,0.017
21.74,-0.301,0.91,-0.117
21.75,-0.113,1.108,-0.097
21.76,-0.151,0.975,0.068
21.77,-0.152,0.737,0.171
21.78,-0.35,1.16,-0.028
21.79,-0.244,0.827,-0.145
21.8,-0.216,1.128,-0.03
21.81,-0.018,0.802,0.102
21.82,-0.157,1.0,0.109
21.83,-0.304,0.958,-0.127
21.84,-0.235,0.892,-0.09
21.85,-0.26,1.177,0.044
21.86,-0.027,0.771,0.182
21.87,-0.213,1.081,0.014
21.88,-0.355,0.779,-0.128
21.89,-0.23,1.162,-0.065
21.9,-0.092,0.988,0.033
21.91,-0.021,0.865,0.116
21.92,-0.292,1.001,0.002
21.93,-0.303,0.912,-0.122
21.94,-0.159,1.15,-0.093
21.95,-0.125,0.762,0.094
21.96,-0.168,1.052,0.16
21.97,-0.342,0.892,-0.08
21.98,-0.296,1.023,-0.13
21.99,-0.172,0.953,-0.059
22.0,-0.106,0.926,0.157
22.01,-0.155,1.026,0.098
22.02,-0.245,0.846,-0.159
22.03,-0.275,1.165,-0.077
22.04,-0.176,0.889,0.015
22.05,-0.1,1.042,0.133
22.06,-0.175,0.811,0.027
22.07,-0.38,0.992,-0.113
22.08,-0.167,1.097,-0.064
22.09,-0.051,0.932,0.004
22.1,-0.117,0.987,0.127
22.11,-0.264,0.789,-0.005
22.12,-0.32,1.221,-0.108
22.13,-0.138,0.861,-0.077
22.14,-0.158,1.039,0.109
22.15,-0.132,0.744,0.137
22.16,-0.337,1.146,-0.093
22.17,-0.307,0.906,-0.125
22.18,-0.171,0.958,-0.049
22.19,-0.081,1.105,0.212
22.2,-0.128,0.78,0.01
22.21,-0.431,1.107,-0.095
22.22,-0.166,0.846,-0.076
22.23,-0.128,1.263,0.046
22.24,-0.039,0.727,0.128
22.25,-0.334,0.942,-0.006
22.26,-0.28,1.003,-0.119
22.27,-0.159,1.014,-0.099
22.28,-0.159,1.089,0.075
22.29,-0.045,0.655,0.146
22.3,-0.38,1.213,-0.036
22.31,-0.229,0.846,-0.166
22.32,-0.239,1.077,-0.037
22.33,-0.126,0.863,0.161
22.34,-0.154,0.91,0.099
22.35,-0.394,1.094,-0.09
22.36,-0.194,0.79,-0.12
22.37,-0.283,1.242,0.045
22.38,-0.03,0.739,0.17
22.39,-0.211,1.052,0.031
22.4,-0.319,0.848,-0.093
22.41,-0.236,1.072,-0.075
22.42,-0.113,1.086,-0.013
22.43,-0.083,0.758,0.16
22.44,-0.267,1.081,0.018
22.45,-0.337,0.877,-0.106
22.46,-0.215,1.179,-0.076
22.47,-0.071,0.827,0.07
22.48,-0.157,0.968,0.135
22.49,-0.33,0.963,-0.05
22.5,-0.227,1.042,-0.151
22.51,-0.207,0.992,-0.07
22.52,-0.126,0.768,0.147
22.53,-0.202,1.147,0.164
22.54,-0.298,0.843,-0.125
22.55,-0.303,1.096,-0.1
22.56,-0.219,0.909,0.004
22.57,-0.068,0.994,0.168
22.58,-0.176,0.915,0.024
22.59,-0.402,0.865,-0.138
22.6,-0.2,1.139,-0.067
22.61,-0.04,0.931,0.028
22.62,-0.146,1.052,0.126
22.63,-0.235,0.748,0.013
22.64,-0.414,1.107,-0.133
22.65,-0.1,0.993,-0.083
22.66,-0.068,0.949,-0.02
22.67,-0.155,0.877,0.145
22.68,-0.287,0.862,-0.059
22.69,-0.275,1.203,-0.124
22.7,-0.158,0.846,-0.011
22.71,-0.136,1.087,0.128
22.72,-0.166,0.806,0.118
22.73,-0.307,1.11,-0.099
22.74,-0.294,0.944,-0.13
22.75,-0.174,0.947,0.019
22.76,-0.065,1.1,0.14
22.77,-0.152,0.708,-0.01
22.78,-0.367,1.083,-0.112
22.79,-0.18,0.911,-0.045
22.8,-0.037,1.189,-0.04
22.81,-0.068,0.741,0.124
22.82,-0.28,0.921,0.018
22.83,-0.347,1.084,-0.133
22.84,-0.149,0.923,-0.107
22.85,-0.26,1.095,0.12
22.86,-0.143,0.692,0.144
22.87,-0.351,1.151,-0.058
22.88,-0.261,0.848,-0.117
22.89,-0.243,1.081,-0.024
22.9,-0.125,0.921,0.131
22.91,-0.144,0.857,0.106
22.92,-0.293,1.14,-0.124
22.93,-0.22,0.79,-0.132
22.94,-0.211,1.265,0.052
22.95,-0.048,0.73,0.125
22.96,-0.229,1.093,0.055
22.97,-0.311,0.806,-0.145
22.98,-0.235,1.169,-0.066
22.99,-0.097,0.965,0.054
23.0,-0.062,0.895,0.109
23.01,-0.309,1.002,-0.026
23.02,-0.286,0.899,-0.102
23.03,-0.243,1.178,-0.077
23.04,-0.089,0.728,0.116
23.05,-0.162,1.065,0.145
23.06,-0.322,0.898,-0.088
23.07,-0.344,1.038,-0.1
23.08,-0.13,0.95,-0.039
23.09,-0.122,0.883,0.167
23.1,-0.183,1.078,0.071
23.11,-0.301,0.855,-0.147
23.12,-0.252,1.11,-0.139
23.13,-0.128,0.897,0.059
23.14,0.018,1.092,0.069
23.15,-0.207,0.836,0.025
23.16,-0.386,0.984,-0.151
23.17,-0.22,1.079,-0.088
23.18,-0.095,0.912,0.074
23.19,-0.154,0.969,0.144
23.2,-0.304,0.761,-0.03
23.21,-0.254,1.211,-0.141
23.22,-0.125,0.925,-0.06
23.23,-0.202,0.992,0.138
23.24,-0.141,0.826,0.138
23.25,-0.347,0.951,-0.087
23.26,-0.221,1.111,-0.121
23.27,-0.161,0.859,-0.014
23.28,-0.321,1.059,0.229
23.29,-0.156,0.776,0.047
23.3,-0.363,1.14,-0.124
23.31,-0.263,0.873,-0.094
23.32,-0.136,1.085,0.081
23.33,-0.069,0.996,0.164
23.34,-0.223,0.777,-0.056
23.35,-0.367,1.106,-0.136
23.36,-0.127,0.933,-0.054
23.37,-0.14,1.175,0.09
23.38,-0.067,0.687,0.129
23.39,-0.357,1.071,-0.034
23.4,-0.232,1.021,-0.169
23.41,-0.128,0.984,-0.029
23.42,-0.199,0.953,0.126
23.43,-0.125,0.751,0.11
23.44,-0.373,1.225,-0.134
23.45,-0.214,0.752,-0.141
23.46,-0.186,1.168,0.03
23.47,-0.089,0.863,0.219
23.48,-0.185,0.935,0.026
23.49,-0.364,0.965,-0.149
23.5,-0.207,0.936,-0.057
23.51,-0.075,1.235,0.047
23.52,-0.076,0.66,0.129
23.53,-0.331,1.113,-0.025
23.54,-0.25,0.908,-0.097
23.55,-0.19,1.144,-0.08
23.56,-0.174,0.837,0.123
23.57,-0.161,0.87,0.146
23.58,-0.365,1.134,-0.065
23.59,-0.258,0.814,-0.156
23.6,-0.247,1.172,-0.019
23.61,-0.044,0.737,0.17
23.62,-0.188,1.117,0.083
23.63,-0.312,0.818,-0.15
23.64,-0.216,0.979,-0.109
23.65,-0.108,1.104,0.096
23.66,-0.039,0.834,0.104
23.67,-0.331,1.021,-0.003
23.68,-0.337,0.827,-0.101
23.69,-0.156,1.25,-0.045
23.7,-0.108,0.785,0.091
23.71,-0.117,0.94,0.104
23.72,-0.331,0.966,0.02
23.73,-0.221,0.978,-0.16
23.74,-0.221,1.049,-0.032
23.75,-0.137,0.815,0.16
23.76,-0.178,1.107,0.122
23.77,-0.368,0.797,-0.142
23.78,-0.279,1.156,-0.088
23.79,-0.059,0.965,0.018
23.8,-0.063,1.019,0.111
23.81,-0.194,0.778,0.02
23.82,-0.358,1.073,-0.129
23.83,-0.176,1.074,-0.066
23.84,-0.063,0.901,0.039
23.85,-0.176,0.978,0.148
23.86,-0.309,0.851,-0.05
23.87,-0.326,1.22,-0.127
23.88,-0.152,0.826,-0.063
23.89,-0.137,1.089,0.147
23.9,-0.142,0.856,0.108
23.91,-0.328,0.976,-0.095
23.92,-0.254,1.032,-0.138
23.93,-0.186,0.923,-0.001
23.94,-0.134,1.121,0.182
23.95,-0.122,0.766,0.04
23.96,-0.411,1.119,-0.133
23.97,-0.249,0.898,-0.075
23.98,-0.085,1.15,0.057
23.99,-0.051,0.85,0.099
24.0,-0.253,0.824,-0.018
24.01,-0.389,1.166,-0.084
24.02,-0.116,0.909,-0.115
24.03,-0.142,1.104,0.113
24.04,-0.134,0.674,0.134
24.05,-0.388,1.144,-0.016
24.06,-0.236,0.927,-0.175
24.07,-0.246,0.976,-0.014
24.08,-0.139,0.959,0.12
24.09,-0.173,0.818,0.135
24.1,-0.376,1.151,-0.125
24.11,-0.223,0.744,-0.146
24.12,-0.274,1.251,0.078
24.13,0.026,0.854,0.092
24.14,-0.23,0.945,0.029
24.15,-0.341,0.932,-0.146
24.16,-0.198,1.011,-0.039
24.17,-0.106,1.151,0.014
24.18,-0.089,0.67,0.157
24.19,-0.317,1.129,-0.02
24.2,-0.278,0.884,-0.102
24.21,-0.196,1.111,-0.098
24.22,-0.104,0.841,0.114
24.23,-0.13,0.906,0.14
24.24,-0.399,1.058,-0.059
24.25,-0.247,0.805,-0.169
24.26,-0.224,1.138,-0.031
24.27,-0.125,0.803,0.192
24.28,-0.147,1.098,0.061
24.29,-0.333,0.861,-0.139
24.3,-0.194,0.984,-0.111
24.31,-0.242,1.065,0.068
24.32,0.007,0.846,0.139
24.33,-0.251,1.015,0.048
24.34,-0.312,0.801,-0.111
24.35,-0.219,1.247,-0.081
24.36,-0.16,0.851,0.026
24.37,-0.102,0.905,0.164
24.38,-0.252,0.889,-0.034
24.39,-0.267,1.072,-0.12
24.4,-0.163,1.008,-0.109
24.41,-0.117,0.792,0.132
24.42,-0.205,1.045,0.165
24.43,-0.283,0.867,-0.117
24.44,-0.375,1.159,-0.096
24.45,-0.191,0.864,-0.037
24.46,-0.118,1.055,0.152
24.47,-0.125,0.916,0.084
24.48,-0.351,0.911,-0.121
24.49,-0.202,1.106,-0.111
24.5,-0.107,0.962,0.033
24.51,-0.061,1.032,0.117
24.52,-0.264,0.764,0.039
24.53,-0.344,1.132,-0.163
24.54,-0.166,0.997,-0.094
24.55,-0.13,1.023,0.086
24.56,-0.132,0.837,0.167
24.57,-0.301,0.85,-0.035
24.58,-0.384,1.185,-0.075
24.59,-0.115,0.907,-0.061
24.6,-0.173,1.096,0.113
24.61,-0.099,0.724,0.115
24.62,-0.403,1.191,-0.075
24.63,-0.258,0.798,-0.163
24.64,-0.209,1.127,0.032
24.65,-0.091,0.92,0.158
24.66,-0.186,0.841,0.057
24.67,-0.346,1.051,-0.135
24.68,-0.179,0.846,-0.08
24.69,-0.152,1.247,0.062
24.7,-0.017,0.704,0.141
24.71,-0.28,1.053,-0.002
24.72,-0.345,0.907,-0.123
24.73,-0.185,1.075,-0.086
24.74,-0.161,0.967,0.103
24.75,-0.094,0.785,0.119
24.76,-0.31,1.18,-0.076
24.77,-0.289,0.785,-0.176
24.78,-0.154,1.135,-0.045
24.79,-0.096,0.838,0.174
24.8,-0.135,1.008,0.117
24.81,-0.233,0.929,-0.137
24.82,-0.287,0.956,-0.086
24.83,-0.237,1.136,0.034
24.84,-0.032,0.813,0.181
24.85,-0.263,1.073,0.049
24.86,-0.347,0.781,-0.14
24.87,-0.17,1.206,-0.112
24.88,-0.045,0.942,0.019
24.89,-0.046,0.866,0.138
24.9,-0.308,0.993,-0.012
24.91,-0.339,0.929,-0.114
24.92,-0.224,1.142,-0.076
24.93,-0.065,0.754,0.073
24.94,-0.178,1.076,0.135
24.95,-0.313,0.861,-0.091
24.96,-0.33,1.067,-0.115
24.97,-0.209,0.962,-0.045
24.98,-0.09,0.958,0.154
24.99,-0.226,1.033,0.107
25.0,-0.248,0.839,-0.146
25.01,-0.267,1.16,-0.112
25.02,-0.136,0.924,0.038
25.03,-0.036,1.054,0.144
25.04,-0.231,0.84,0.025
25.05,-0.318,0.996,-0.158
25.06,-0.235,1.08,-0.045
25.07,-0.067,0.957,0.04
25.08,-0.122,0.94,0.142
25.09,-0.327,0.838,-0.017
25.1,-0.322,1.221,-0.125
25.11,-0.191,0.834,-0.096
25.12,-0.088,1.01,0.093
25.13,-0.143,0.842,0.134
25.14,-0.326,0.987,-0.044
25.15,-0.299,1.034,-0.156
25.16,-0.244,0.879,0.0
25.17,-0.13,1.091,0.156
25.18,-0.139,0.743,0.08
25.19,-0.357,1.104,-0.121
25.2,-0.252,0.851,-0.12
25.21,-0.106,1.117,0.036
25.22,-0.098,0.929,0.165
25.23,-0.171,0.821,-0.006
25.24,-0.383,1.121,-0.128
25.25,-0.18,0.905,-0.058
25.26,-0.22,1.231,0.067
25.27,-0.084,0.666,0.107
25.28,-0.33,1.074,0.0
25.29,-0.238,0.987,-0.143
25.3,-0.143,0.991,-0.084
25.31,-0.164,0.977,0.135
25.32,-0.108,0.773,0.119
25.33,-0.374,1.214,-0.07
25.34,-0.292,0.812,-0.134
25.35,-0.217,1.119,-0.026
25.36,-0.064,0.852,0.191
25.37,-0.173,0.961,0.051
25.38,-0.352,0.943,-0.11
25.39,-0.263,0.941,-0.074
25.4,-0.058,1.215,0.006
25.41,-0.073,0.765,0.147
25.42,-0.272,1.039,0.011
25.43,-0.354,0.86,-0.124
25.44,-0.179,1.198,-0.083
25.45,-0.148,0.792,0.079
25.46,-0.14,1.019,0.139
25.47,-0.25,0.954,-0.048
25.48,-0.314,0.992,-0.134
25.49,-0.242,0.988,-0.027
25.5,-0.082,0.843,0.175
25.51,-0.146,1.056,0.081
25.52,-0.306,0.81,-0.105
25.53,-0.252,1.123,-0.12
25.54,-0.179,0.965,0.022
25.55,-0.073,1.007,0.148
25.56,-0.213,0.908,0.069
25.57,-0.377,0.919,-0.107
25.58,-0.184,1.177,-0.06
25.59,-0.033,0.91,-0.017
25.6,-0.204,0.984,0.148
25.61,-0.225,0.759,0.005
25.62,-0.34,1.232,-0.144
25.63,-0.158,0.942,-0.089
25.64,-0.101,0.896,0.101
25.65,-0.18,0.947,0.15
25.66,-0.331,0.907,-0.049
25.67,-0.329,1.176,-0.131
25.68,-0.136,0.832,-0.04
25.69,-0.339,1.087,0.194
25.7,-0.141,0.81,0.112
25.71,-0.254,0.96,-0.117
25.72,-0.146,1.093,0.086
25.73,-0.003,0.955,0.145
25.74,-0.339,0.834,0.032
25.75,-0.362,1.027,-0.174
25.76,-0.076,0.934,-0.071
25.77,-0.238,1.203,0.147
25.78,-0.099,0.673,0.109
25.79,-0.335,1.059,-0.012
25.8,-0.204,1.044,-0.142
25.81,-0.249,0.959,-0.03
25.82,-0.206,0.941,0.159
25.83,-0.054,0.805,0.111
25.84,-0.403,1.195,-0.115
25.85,-0.246,0.763,-0.164
25.86,-0.261,1.18,0.051
25.87,-0.022,0.843,0.125
25.88,-0.224,0.921,0.016
25.89,-0.382,0.985,-0.134
25.9,-0.184,0.933,-0.068
25.91,-0.093,1.179,0.034
25.92,-0.067,0.679,0.138
25.93,-0.374,1.108,-0.012
25.94,-0.298,0.883,-0.129
25.95,-0.249,1.086,-0.064
25.96,-0.16,0.889,0.1
25.97,-0.136,0.922,0.158
25.98,-0.335,1.08,-0.096
25.99,-0.268,0.764,-0.129
26.0,-0.212,1.177,-0.055
26.01,-0.073,0.838,0.159
26.02,-0.175,1.058,0.048
26.03,-0.313,0.855,-0.121
26.04,-0.233,1.033,-0.091
26.05,-0.188,1.128,0.039
26.06,-0.025,0.787,0.139
26.07,-0.276,1.053,0.066
26.08,-0.319,0.792,-0.128
26.09,-0.209,1.214,-0.074
26.1,-0.11,0.883,0.037
26.11,-0.053,0.928,0.151
26.12,-0.301,0.951,-0.007
26.13,-0.313,1.018,-0.114
26.14,-0.167,1.1,-0.077
26.15,-0.092,0.779,0.106
26.16,-0.23,1.05,0.136
26.17,-0.319,0.884,-0.053
26.18,-0.317,1.127,-0.123
26.19,-0.177,0.847,-0.028
26.2,-0.12,1.124,0.192
26.21,-0.132,0.846,0.035
26.22,-0.372,0.954,-0.132
26.23,-0.21,1.008,-0.101
26.24,-0.128,1.032,0.05
26.25,-0.123,0.99,0.138
26.26,-0.239,0.751,-0.016
26.27,-0.367,1.174,-0.117
26.28,-0.087,0.94,-0.102
26.29,-0.162,1.067,0.081
26.3,-0.126,0.776,0.127
26.31,-0.354,0.988,-0.014
26.32,-0.289,1.123,-0.153
26.33,-0.121,0.869,-0.071
26.34,-0.198,1.101,0.185
26.35,-0.084,0.75,0.072
26.36,-0.364,1.178,-0.124
26.37,-0.229,0.794,-0.153
26.38,-0.199,1.148,0.058
26.39,-0.065,0.961,0.112
26.4,-0.196,0.808,0.039
26.41,-0.371,1.085,-0.141
26.42,-0.198,0.885,-0.048
26.43,-0.116,1.245,0.019
26.44,-0.073,0.686,0.164
26.45,-0.29,1.011,-0.029
26.46,-0.362,0.949,-0.1
26.47,-0.138,1.029,-0.112
26.48,-0.179,0.993,0.116
26.49,-0.076,0.724,0.111
26.5,-0.404,1.181,-0.031
26.51,-0.237,0.801,-0.156
26.52,-0.248,1.107,-0.025
26.53,-0.087,0.826,0.145
26.54,-0.138,1.007,0.091
26.55,-0.32,0.972,-0.105
26.56,-0.195,0.872,-0.115
26.57,-0.264,1.222,0.064
26.58,-0.012,0.757,0.139
26.59,-0.264,1.074,0.046
26.6,-0.344,0.81,-0.131
26.61,-0.189,1.178,-0.067
26.62,-0.093,0.971,-0.002
26.63,-0.089,0.811,0.179
26.64,-0.262,1.01,-0.009
26.65,-0.304,0.906,-0.083
26.66,-0.232,1.15,-0.069
26.67,-0.114,0.768,0.107
26.68,-0.179,1.059,0.144
26.69,-0.306,0.91,-0.056
26.7,-0.289,1.035,-0.126
26.71,-0.162,0.988,-0.073
26.72,-0.143,0.89,0.171
26.73,-0.177,1.057,0.126
26.74,-0.269,0.85,-0.137
26.75,-0.251,1.154,-0.11
26.76,-0.238,0.94,0.035
26.77,-0.067,1.027,0.156
26.78,-0.237,0.838,0.027
26.79,-0.309,0.974,-0.146
26.8,-0.223,1.133,-0.079
26.81,-0.086,0.917,0.036
26.82,-0.109,0.983,0.157
26.83,-0.267,0.803,-0.02
26.84,-0.334,1.181,-0.159
26.85,-0.208,0.861,-0.088
26.86,-0.075,1.004,0.085
26.87,-0.118,0.882,0.117
26.88,-0.356,0.934,-0.032
26.89,-0.313,1.123,-0.145
26.9,-0.132,0.863,-0.052
26.91,-0.17,1.101,0.176
26.92,-0.154,0.733,0.067
26.93,-0.373,1.142,-0.105
26.94,-0.164,0.899,-0.127
26.95,-0.203,1.089,0.013
26.96,-0.079,0.936,0.17
26.97,-0.173,0.812,0.023
26.98,-0.375,1.114,-0.129
26.99,-0.173,0.861,-0.059
27.0,-0.123,1.168,0.074
27.01,-0.056,0.625,0.144
27.02,-0.329,1.147,-0.037
27.03,-0.285,0.89,-0.117
27.04,-0.235,1.074,-0.068
27.05,-0.114,0.91,0.115
27.06,-0.156,0.905,0.146
27.07,-0.37,1.1,-0.092
27.08,-0.303,0.781,-0.12
27.09,-0.183,1.144,-0.008
27.1,-0.062,0.786,0.135
27.11,-0.19,1.074,0.067
27.12,-0.312,0.906,-0.15
27.13,-0.25,0.96,-0.089
27.14,-0.094,1.082,0.022
27.15,-0.265,0.849,0.256
27.16,-0.262,1.055,0.019
27.17,-0.374,0.759,-0.131
27.18,-0.179,1.227,-0.093
27.19,-0.088,0.919,0.068
27.2,-0.082,0.904,0.109
27.21,-0.296,0.927,-0.055
27.22,-0.255,1.058,-0.14
27.23,-0.139,1.13,-0.066
27.24,-0.138,0.703,0.122
27.25,-0.24,1.055,0.163
27.26,-0.308,0.839,-0.077
27.27,-0.307,1.152,-0.116
27.28,-0.128,0.878,-0.053
27.29,-0.09,0.957,0.201
27.3,-0.219,0.957,0.094
27.31,-0.328,0.869,-0.131
27.32,-0.208,1.193,-0.128
27.33,-0.172,0.926,0.105
27.34,-0.039,0.999,0.126
27.35,-0.229,0.8,0.015
27.36,-0.362,1.133,-0.138
27.37,-0.184,0.979,-0.071
27.38,-0.09,0.924,0.055
27.39,-0.193,0.897,0.145
27.4,-0.284,0.856,-0.025
27.41,-0.327,1.213,-0.147
27.42,-0.167,0.856,-0.042
27.43,-0.148,1.075,0.134
27.44,-0.191,0.84,0.112
27.45,-0.323,1.041,-0.12
27.46,-0.227,0.972,-0.103
27.47,-0.308,0.966,0.087
27.48,-0.071,1.086,0.125
27.49,-0.195,0.728,0.014
27.5,-0.329,1.145,-0.147
27.51,-0.19,0.948,-0.048
27.52,-0.088,1.12,0.01
27.53,-0.109,0.796,0.167
27.54,-0.319,0.932,0.039
27.55,-0.335,1.127,-0.119
27.56,-0.181,0.843,-0.098
27.57,-0.108,1.114,0.094
27.58,-0.16,0.724,0.166
27.59,-0.342,1.102,-0.091
27.6,-0.278,0.849,-0.133
27.61,-0.145,1.077,-0.013
27.62,-0.162,0.987,0.198
27.63,-0.172,0.832,0.077
27.64,-0.379,1.092,-0.102
27.65,-0.198,0.799,-0.091
27.66,-0.164,1.306,0.055
27.67,-0.044,0.72,0.115
27.68,-0.229,0.979,0.046
27.69,-0.285,0.945,-0.175
27.7,-0.189,1.076,-0.055
27.71,-0.158,1.035,0.033
27.72,-0.084,0.681,0.16
27.73,-0.341,1.169,-0.023
27.74,-0.259,0.864,-0.156
27.75,-0.193,1.134,-0.032
27.76,-0.065,0.833,0.13
27.77,-0.13,0.965,0.097
27.78,-0.391,0.971,-0.092
27.79,-0.225,0.845,-0.142
27.8,-0.212,1.218,0.024
27.81,-0.03,0.759,0.148
27.82,-0.194,1.052,0.081
27.83,-0.331,0.851,-0.153
27.84,-0.199,1.24,-0.07
27.85,-0.094,0.852,0.015
27.86,-0.098,0.967,0.167
27.87,-0.277,0.956,-0.004
27.88,-0.336,0.989,-0.181
27.89,-0.272,1.016,-0.053
27.9,-0.072,0.846,0.148
27.91,-0.169,1.058,0.111
27.92,-0.298,0.859,-0.062
27.93,-0.343,1.158,-0.148
27.94,-0.159,0.838,-0.05
27.95,-0.092,1.003,0.174
27.96,-0.158,0.956,0.061
27.97,-0.363,0.9,-0.118
27.98,-0.25,1.118,-0.105
27.99,-0.063,0.946,0.015
28.0,-0.16,1.038,0.137
28.01,-0.228,0.741,0.033
28.02,-0.304,1.157,-0.107
28.03,-0.152,1.044,-0.128
28.04,-0.16,0.954,0.081
28.05,-0.08,0.903,0.156
28.06,-0.329,0.901,-0.035
28.07,-0.346,1.148,-0.212
28.08,-0.196,0.774,-0.046
28.09,-0.112,1.124,0.115
28.1,-0.17,0.81,0.148
28.11,-0.389,1.002,-0.105
28.12,-0.244,0.926,-0.12
28.13,-0.149,1.01,0.015
28.14,-0.103,1.052,0.144
28.15,-0.178,0.747,0.027
28.16,-0.327,1.173,-0.104
28.17,-0.22,0.877,-0.113
28.18,-0.151,1.199,0.032
28.19,-0.049,0.762,0.135
28.2,-0.306,0.926,0.031
28.21,-0.326,1.051,-0.121
28.22,-0.163,0.948,-0.105
28.23,-0.171,1.087,0.062
28.24,-0.141,0.648,0.17
28.25,-0.348,1.184,-0.044
28.26,-0.288,0.862,-0.148
28.27,-0.21,1.027,-0.082
28.28,-0.067,0.889,0.121
28.29,-0.136,0.899,0.125
28.3,-0.369,1.096,-0.107
28.31,-0.23,0.766,-0.163
28.32,-0.24,1.254,0.051
28.33,0.009,0.824,0.155
28.34,-0.252,1.01,0.066
28.35,-0.286,0.88,-0.154
28.36,-0.227,1.061,-0.045
28.37,-0.102,1.098,0.003
28.38,-0.053,0.727,0.174
28.39,-0.311,1.104,-0.013
28.4,-0.271,0.841,-0.116
28.41,-0.253,1.179,-0.091
28.42,-0.08,0.803,0.082
28.43,-0.1,0.976,0.134
28.44,-0.313,1.006,-0.066
28.45,-0.282,0.894,-0.123
28.46,-0.192,1.104,-0.078
28.47,-0.055,0.829,0.182
28.48,-0.134,1.162,0.086
28.49,-0.361,0.8,-0.113
28.5,-0.26,1.059,-0.095
28.51,-0.179,1.035,0.033
28.52,-0.009,0.963,0.14
28.53,-0.275,0.972,0.036
28.54,-0.282,0.831,-0.129
28.55,-0.266,1.261,-0.034
28.56,-0.063,0.888,0.024
28.57,-0.125,1.013,0.157
28.58,-0.212,0.789,-0.033
28.59,-0.323,1.143,-0.122
28.6,-0.151,1.006,-0.11
28.61,-0.145,0.829,0.097
28.62,-0.123,0.951,0.146
28.63,-0.29,0.937,-0.042
28.64,-0.357,1.196,-0.165
28.65,-0.199,0.83,-0.018
28.66,-0.115,1.16,0.191
28.67,-0.133,0.774,0.033
28.68,-0.377,1.052,-0.132
28.69,-0.258,0.902,-0.101
28.7,-0.098,1.163,0.034
28.71,-0.081,0.87,0.142
28.72,-0.223,0.766,0.029
28.73,-0.35,1.192,-0.105
28.74,-0.129,0.94,-0.082
28.75,-0.214,1.146,0.071
28.76,-0.025,0.69,0.16
28.77,-0.375,1.058,-0.024
28.78,-0.286,0.967,-0.16
28.79,-0.247,0.948,-0.066
28.8,-0.139,1.027,0.13
28.81,-0.061,0.766,0.143
28.82,-0.37,1.151,-0.122
28.83,-0.263,0.713,-0.105
28.84,-0.26,1.213,0.004
28.85,-0.052,0.879,0.17
28.86,-0.15,0.954,0.044
28.87,-0.372,0.984,-0.123
28.88,-0.302,0.912,-0.082
28.89,-0.099,1.244,0.05
28.9,-0.032,0.692,0.144
28.91,-0.271,1.026,0.03
28.92,-0.315,0.856,-0.096
28.93,-0.195,1.147,-0.128
28.94,-0.154,0.905,0.108
28.95,-0.081,0.83,0.118
28.96,-0.356,1.104,-0.006
28.97,-0.276,0.855,-0.178
28.98,-0.28,1.131,-0.015
28.99,-0.055,0.772,0.115
29.0,-0.216,1.109,0.167
29.01,-0.277,0.916,-0.102
29.02,-0.285,0.969,-0.149
29.03,-0.198,0.985,-0.043
29.04,-0.066,0.867,0.176
29.05,-0.24,1.087,0.059
29.06,-0.361,0.775,-0.121
29.07,-0.225,1.176,-0.056
29.08,-0.06,0.989,0.034
29.09,-0.101,0.933,0.136
29.1,-0.173,0.89,0.024
29.11,-0.324,1.027,-0.109
29.12,-0.254,1.188,-0.077
29.13,-0.096,0.829,0.054
29.14,-0.106,0.982,0.153
29.15,-0.262,0.828,-0.024
29.16,-0.349,1.241,-0.145
29.17,-0.177,0.882,-0.089
29.18,-0.146,0.915,0.148
29.19,-0.185,0.946,0.119
29.2,-0.306,0.912,-0.087
29.21,-0.308,1.086,-0.162
29.22,-0.183,0.793,-0.002
29.23,-0.051,1.129,0.206
29.24,-0.158,0.811,0.04
29.25,-0.408,1.045,-0.11
29.26,-0.173,0.985,-0.101
29.27,-0.111,1.102,0.018
29.28,-0.237,0.924,0.173
29.29,-0.265,0.795,0.01
29.3,-0.312,1.212,-0.125
29.31,-0.112,0.906,-0.101
29.32,-0.198,1.134,0.07
29.33,-0.106,0.69,0.214
29.34,-0.336,1.034,-0.051
29.35,-0.251,0.99,-0.176
29.36,-0.21,0.907,-0.057
29.37,-0.139,1.051,0.124
29.38,-0.138,0.775,0.132
29.39,-0.395,1.162,-0.113
29.4,-0.251,0.744,-0.119
29.41,-0.188,1.214,0.036
29.42,-0.076,0.883,0.137
29.43,-0.163,0.898,0.056
29.44,-0.324,1.01,-0.13
29.45,-0.197,0.879,-0.082
29.46,-0.219,1.291,0.032
29.47,-0.048,0.72,0.135
29.48,-0.353,1.11,-0.032
29.49,-0.316,0.82,-0.139
29.5,-0.146,1.19,-0.053
29.51,-0.334,0.834,0.291
29.52,-0.133,0.919,0.143
29.53,-0.286,1.075,-0.103
29.54,-0.293,0.892,-0.152
29.55,-0.155,1.067,-0.058
29.56,-0.062,0.825,0.171
29.57,-0.212,1.109,0.06
29.58,-0.348,0.806,-0.111
29.59,-0.222,1.051,-0.119
29.6,-0.198,1.06,0.056
29.61,-0.017,0.902,0.113
29.62,-0.283,0.959,0.037
29.63,-0.3,0.841,-0.13
29.64,-0.116,1.258,-0.104
29.65,-0.135,0.797,0.053
29.66,-0.07,1.002,0.163
29.67,-0.304,0.894,-0.051
29.68,-0.305,1.051,-0.133
29.69,-0.21,0.98,-0.072
29.7,-0.206,0.861,0.202
29.71,-0.145,1.048,0.139
29.72,-0.311,0.858,-0.128
29.73,-0.308,1.129,-0.117
29.74,-0.174,0.864,-0.022
29.75,-0.083,1.07,0.169
29.76,-0.166,0.855,0.058
29.77,-0.329,0.929,-0.131
29.78,-0.262,1.083,-0.093
29.79,-0.088,0.985,0.021
29.8,-0.073,1.057,0.143
29.81,-0.235,0.74,-0.016
29.82,-0.35,1.165,-0.117
29.83,-0.214,0.969,-0.081
29.84,-0.112,1.025,0.092
29.85,-0.083,0.795,0.154
29.86,-0.353,0.915,-0.044
29.87,-0.246,1.177,-0.125
29.88,-0.203,0.839,-0.115
29.89,-0.151,1.026,0.133
29.9,-0.123,0.804,0.137
29.91,-0.362,1.125,-0.104
29.92,-0.271,0.853,-0.163
29.93,-0.157,0.996,0.03
29.94,-0.276,1.087,0.137
29.95,-0.204,0.812,0.043
29.96,-0.344,1.137,-0.131
29.97,-0.21,0.838,-0.106
29.98,-0.185,1.233,0.042
29.99,0.029,0.751,0.07
30.0,-0.298,0.971,0.019
30.01,-0.295,0.992,-0.145
30.02,-0.129,0.997,-0.071
30.03,-0.156,1.066,0.064
30.04,-0.1,0.676,0.145
30.05,-0.385,1.173,-0.034
30.06,-0.172,0.854,-0.156
30.07,-0.245,1.112,-0.054
30.08,-0.127,0.858,0.135
30.09,-0.104,0.922,0.13
30.1,-0.313,1.09,-0.126
30.11,-0.263,0.784,-0.096
30.12,-0.223,1.209,0.012
30.13,0.004,0.84,0.173
30.14,-0.253,1.043,0.02
30.15,-0.356,0.799,-0.133
30.16,-0.173,1.146,-0.075
30.17,-0.064,1.042,0.001
30.18,-0.115,0.747,0.16
30.19,-0.304,1.082,-0.008
30.2,-0.242,0.885,-0.134
30.21,-0.167,1.206,-0.078
30.22,-0.086,0.752,0.085
30.23,-0.106,1.01,0.12
30.24,-0.334,0.965,-0.043
30.25,-0.298,0.965,-0.171
30.26,-0.198,1.002,-0.069
30.27,-0.107,0.851,0.203
30.28,-0.205,1.102,0.073
30.29,-0.304,0.823,-0.142
30.3,-0.22,1.196,-0.056
30.31,-0.069,0.96,0.016
30.32,-0.116,1.003,0.134
30.33,-0.149,0.79,0.001
30.34,-0.355,1.131,-0.102
30.35,-0.182,1.053,-0.067
30.36,-0.125,0.906,0.063
30.37,-0.114,0.927,0.148
30.38,-0.303,0.859,-0.044
30.39,-0.35,1.217,-0.138
30.4,-0.154,0.782,-0.111
30.41,-0.103,1.052,0.119
30.42,-0.205,0.848,0.133
30.43,-0.321,1.015,-0.076
30.44,-0.216,1.001,-0.149
30.45,-0.216,0.916,0.009
30.46,-0.095,1.068,0.17
30.47,-0.151,0.741,0.027
30.48,-0.388,1.138,-0.106
30.49,-0.187,0.887,-0.065
30.5,-0.094,1.188,0.03
30.51,-0.06,0.831,0.154
30.52,-0.252,0.853,-0.007
30.53,-0.352,1.122,-0.125
30.54,-0.134,0.943,-0.091
30.55,-0.139,1.121,0.114
30.56,-0.086,0.667,0.134
30.57,-0.385,1.143,-0.058
30.58,-0.327,0.926,-0.114
30.59,-0.221,1.033,-0.065
30.6,-0.122,0.982,0.146
30.61,-0.108,0.827,0.099
30.62,-0.378,1.139,-0.111
30.63,-0.199,0.747,-0.145
30.64,-0.255,1.293,0.059
30.65,-0.02,0.799,0.16
30.66,-0.25,0.974,0.042
30.67,-0.329,0.934,-0.129
30.68,-0.233,1.029,-0.057
30.69,-0.158,1.149,0.025
30.7,-0.025,0.701,0.131
30.71,-0.323,1.118,-0.014
30.72,-0.271,0.839,-0.109
30.73,-0.203,1.147,-0.046
30.74,-0.136,0.839,0.085
30.75,-0.169,0.874,0.147
30.76,-0.357,1.069,-0.039
30.77,-0.263,0.913,-0.133
30.78,-0.221,1.131,-0.069
30.79,-0.125,0.763,0.183
30.8,-0.144,1.092,0.098
30.81,-0.287,0.873,-0.138
30.82,-0.246,1.029,-0.135
30.83,-0.212,1.038,0.06
30.84,-0.0,0.904,0.151
30.85,-0.286,1.023,0.035
30.86,-0.353,0.809,-0.111
30.87,-0.14,1.271,-0.101
30.88,-0.167,0.828,0.038
30.89,-0.078,0.958,0.148
30.9,-0.273,0.922,-0.003
30.91,-0.253,1.025,-0.158
30.92,-0.186,1.017,-0.066
30.93,-0.122,0.852,0.073
30.94,-0.18,1.038,0.167
30.95,-0.286,0.863,-0.113
30.96,-0.345,1.145,-0.102
30.97,-0.225,0.819,-0.01
30.98,-0.142,1.078,0.19
30.99,-0.122,0.929,0.051
31.0,-0.299,0.923,-0.137
31.01,-0.191,1.06,-0.145
31.02,-0.211,0.954,0.09
31.03,-0.067,1.058,0.123
31.04,-0.225,0.73,0.009
31.05,-0.411,1.12,-0.141
31.06,-0.134,1.004,-0.101
31.07,-0.165,1.048,0.051
31.08,-0.185,0.836,0.168
31.09,-0.249,0.86,-0.033
31.1,-0.292,1.198,-0.145
31.11,-0.171,0.877,-0.061
31.12,-0.097,1.063,0.116
31.13,-0.144,0.761,0.155
31.14,-0.385,1.154,-0.132
31.15,-0.281,0.762,-0.111
31.16,-0.228,1.134,0.01
31.17,-0.089,0.927,0.185
31.18,-0.186,0.853,0.031
31.19,-0.343,1.073,-0.109
31.2,-0.151,0.869,-0.081
31.21,-0.101,1.267,0.003
31.22,-0.046,0.69,0.139
31.23,-0.242,1.056,0.018
31.24,-0.312,0.889,-0.115
31.25,-0.151,1.122,-0.08
31.26,-0.183,0.962,0.08
31.27,-0.107,0.72,0.145
31.28,-0.304,1.174,-0.034
31.29,-0.226,0.866,-0.159
31.3,-0.24,1.091,-0.041
31.31,-0.094,0.771,0.118
31.32,-0.14,1.03,0.12
31.33,-0.344,0.961,-0.125
31.34,-0.298,0.881,-0.09
31.35,-0.135,1.117,0.012
31.36,-0.055,0.841,0.168
31.37,-0.285,1.097,0.077
31.38,-0.256,0.779,-0.148
31.39,-0.216,1.184,-0.061
31.4,-0.116,0.973,0.054
31.41,-0.066,0.873,0.15
31.42,-0.289,0.955,0.001
31.43,-0.308,0.928,-0.107
31.44,-0.125,1.199,-0.093
31.45,-0.309,0.742,0.122
31.46,-0.146,1.042,0.124
31.47,-0.289,0.841,-0.06
31.48,-0.265,1.087,-0.173
31.49,-0.166,0.948,-0.038
31.5,-0.132,0.915,0.192
31.51,-0.175,1.017,0.106
31.52,-0.35,0.847,-0.113
31.53,-0.281,1.132,-0.104
31.54,-0.127,0.913,0.027
31.55,-0.025,1.074,0.131
31.56,-0.211,0.791,0.006
31.57,-0.393,0.99,-0.102
31.58,-0.144,1.109,-0.077
31.59,-0.049,1.006,0.025
31.6,-0.13,0.913,0.141
31.61,-0.264,0.787,-0.008
31.62,-0.333,1.272,-0.135
31.63,-0.139,0.897,-0.116
31.64,-0.185,1.001,0.136
31.65,-0.074,0.784,0.131
31.66,-0.353,1.021,-0.084
31.67,-0.31,1.072,-0.156
31.68,-0.177,0.824,-0.007
31.69,-0.121,1.097,0.17
31.7,-0.133,0.78,0.077
31.71,-0.446,1.144,-0.117
31.72,-0.226,0.841,-0.108
31.73,-0.168,1.155,0.046
31.74,-0.078,0.925,0.161
31.75,-0.208,0.817,-0.004
31.76,-0.311,1.092,-0.163
31.77,-0.19,0.919,-0.022
31.78,-0.058,1.205,0.047
31.79,-0.156,0.681,0.161
31.8,-0.343,1.02,-0.014
31.81,-0.21,1.019,-0.129
31.82,-0.222,0.97,-0.007
31.83,-0.194,0.928,0.141
31.84,-0.105,0.822,0.167
31.85,-0.339,1.174,-0.157
31.86,-0.325,0.758,-0.074
31.87,-0.118,1.21,-0.011
31.88,-0.086,0.927,0.154
31.89,-0.215,0.93,-0.006
31.9,-0.369,0.96,-0.108
31.91,-0.205,0.945,-0.094
31.92,-0.029,1.197,0.03
31.93,-0.154,0.68,0.151
31.94,-0.292,1.095,-0.002
31.95,-0.226,0.898,-0.131
31.96,-0.18,1.129,-0.077
31.97,-0.12,0.77,0.105
31.98,-0.099,1.022,0.14
31.99,-0.371,0.995,-0.089
32.0,-0.325,0.926,-0.111
32.01,-0.302,1.074,0.003
32.02,-0.068,0.841,0.178
32.03,-0.188,1.08,0.04
32.04,-0.369,0.789,-0.109
32.05,-0.218,1.141,-0.086
32.06,-0.101,0.991,0.025
32.07,-0.075,0.86,0.143
32.08,-0.228,0.975,0.005
32.09,-0.336,0.958,-0.093
32.1,-0.21,1.139,-0.111
32.11,-0.147,0.787,0.106
32.12,-0.128,1.073,0.131
32.13,-0.282,0.895,-0.039
32.14,-0.388,1.076,-0.167
32.15,-0.181,0.857,-0.08
32.16,-0.072,0.97,0.107
32.17,-0.124,1.047,0.1
32.18,-0.297,0.841,-0.103
32.19,-0.26,1.126,-0.108
32.2,-0.18,0.948,0.032
32.21,-0.037,1.093,0.118
32.22,-0.177,0.778,0.027
32.23,-0.316,1.013,-0.121
32.24,-0.216,1.091,-0.057
32.25,-0.101,0.969,0.021
32.26,-0.104,0.947,0.159
32.27,-0.234,0.783,-0.002
32.28,-0.357,1.233,-0.122
32.29,-0.209,0.901,-0.086
32.3,-0.118,1.047,0.099
32.31,-0.116,0.812,0.141
32.32,-0.372,0.995,-0.027
32.33,-0.326,1.051,-0.118
32.34,-0.162,0.833,-0.058
32.35,-0.195,1.142,0.154
32.36,-0.146,0.749,0.099
32.37,-0.364,1.121,-0.131
32.38,-0.238,0.805,-0.106
32.39,-0.165,1.172,0.038
32.4,-0.005,0.962,0.106
32.41,-0.229,0.811,0.022
32.42,-0.354,1.089,-0.16
32.43,-0.169,0.911,-0.049
32.44,-0.107,1.197,-0.001
32.45,-0.062,0.674,0.154
32.46,-0.356,1.051,-0.013
32.47,-0.252,0.929,-0.151
32.48,-0.202,0.991,-0.047
32.49,-0.229,0.996,0.126
32.5,-0.116,0.742,0.147
32.51,-0.362,1.182,-0.09
32.52,-0.301,0.779,-0.144
32.53,-0.198,1.111,-0.039
32.54,0.0,0.879,0.155
32.55,-0.204,1.004,0.057
32.56,-0.361,0.951,-0.119
32.57,-0.207,0.904,-0.086
32.58,-0.173,1.258,0.055
32.59,-0.029,0.678,0.153
32.6,-0.288,1.056,0.022
32.61,-0.348,0.827,-0.052
32.62,-0.142,1.128,-0.134
32.63,-0.125,0.909,0.066
32.64,-0.08,0.858,0.138
32.65,-0.344,1.083,-0.045
32.66,-0.298,0.87,-0.137
32.67,-0.237,1.135,-0.042
32.68,-0.031,0.803,0.125
32.69,-0.221,1.12,0.116
32.7,-0.33,0.872,-0.07
32.71,-0.298,0.987,-0.167
32.72,-0.261,1.01,0.042
32.73,-0.002,0.915,0.129
32.74,-0.243,1.059,0.084
32.75,-0.292,0.776,-0.17
32.76,-0.245,1.182,-0.029
32.77,-0.13,0.878,0.018
32.78,-0.077,0.982,0.164
32.79,-0.231,0.797,-0.026
32.8,-0.314,1.185,-0.132
32.81,-0.185,0.971,-0.076
32.82,-0.139,0.901,0.114
32.83,-0.132,0.884,0.133
32.84,-0.311,0.931,-0.043
32.85,-0.302,1.173,-0.194
32.86,-0.246,0.799,-0.053
32.87,-0.138,1.084,0.165
32.88,-0.149,0.833,0.114
32.89,-0.337,0.999,-0.141
32.9,-0.262,0.96,-0.121
32.91,-0.116,1.068,0.034
32.92,-0.043,1.023,0.155
32.93,-0.209,0.729,0.027
32.94,-0.366,1.176,-0.117
32.95,-0.15,0.968,-0.066
32.96,-0.168,1.139,0.052
32.97,-0.069,0.712,0.126
32.98,-0.349,0.983,-0.001
32.99,-0.251,1.116,-0.123
33.0,-0.186,0.882,-0.097
33.01,-0.163,1.064,0.102
33.02,-0.132,0.73,0.152
33.03,-0.327,1.139,-0.075
33.04,-0.229,0.828,-0.162
33.05,-0.236,1.049,0.003
33.06,-0.089,0.966,0.172
33.07,-0.162,0.864,0.071
33.08,-0.358,1.034,-0.152
33.09,-0.304,0.765,-0.074
33.1,-0.111,1.326,0.096
33.11,-0.033,0.751,0.087
33.12,-0.277,0.99,0.065
33.13,-0.311,0.896,-0.14
33.14,-0.155,1.086,-0.07
33.15,-0.118,1.056,0.044
33.16,-0.118,0.677,0.16
33.17,-0.33,1.132,0.007
33.18,-0.221,0.849,-0.16
33.19,-0.224,1.117,-0.049
33.2,-0.062,0.776,0.123
33.21,-0.16,0.998,0.141
33.22,-0.303,1.021,-0.095
33.23,-0.265,0.91,-0.136
33.24,-0.212,1.095,-0.02
33.25,-0.044,0.819,0.187
33.26,-0.167,1.116,0.053
33.27,-0.323,0.765,-0.152
33.28,-0.245,1.094,-0.066
33.29,-0.071,1.028,0.035
33.3,-0.103,0.85,0.135
33.31,-0.242,0.976,0.043
33.32,-0.312,0.911,-0.147
33.33,-0.177,1.244,-0.079
33.34,-0.019,0.774,-0.021
33.35,-0.075,0.978,0.173
33.36,-0.329,0.911,-0.017
33.37,-0.229,1.129,-0.164
33.38,-0.238,0.936,-0.073
33.39,-0.087,0.808,0.113
33.4,-0.222,1.044,0.14
33.41,-0.302,0.877,-0.089
33.42,-0.315,1.103,-0.132
33.43,-0.231,0.842,0.043
33.44,-0.038,1.097,0.153
33.45,-0.154,0.852,0.064
33.46,-0.356,0.95,-0.145
33.47,-0.233,1.073,-0.093
33.48,-0.065,1.009,0.071
33.49,-0.117,1.06,0.125
33.5,-0.258,0.753,-0.025
33.51,-0.349,1.194,-0.132
33.52,-0.103,0.936,-0.055
33.53,-0.068,1.052,0.008
33.54,-0.161,0.832,0.16
33.55,-0.342,0.92,-0.071
33.56,-0.277,1.164,-0.096
33.57,-0.198,0.847,-0.06
33.58,-0.125,1.026,0.161
33.59,-0.135,0.766,0.088
33.6,-0.368,1.138,-0.139
33.61,-0.265,0.797,-0.124
33.62,-0.178,1.221,0.058
33.63,-0.04,0.804,0.137
33.64,-0.224,0.924,0.029
33.65,-0.352,1.017,-0.142
33.66,-0.124,0.935,-0.096
33.67,-0.183,1.176,0.074
33.68,-0.071,0.675,0.122
33.69,-0.329,1.135,-0.021
33.7,-0.268,0.884,-0.137
33.71,-0.141,1.114,-0.065
33.72,-0.146,0.906,0.12
33.73,-0.205,0.812,0.156
33.74,-0.357,1.117,-0.082
33.75,-0.201,0.82,-0.135
33.76,-0.209,1.147,-0.031
33.77,-0.121,0.735,0.209
33.78,-0.134,1.071,0.067
33.79,-0.34,0.934,-0.149
33.8,-0.22,0.935,-0.118
33.81,-0.155,1.091,0.083
33.82,-0.055,0.824,0.127
33.83,-0.371,1.067,0.022
33.84,-0.311,0.778,-0.14
33.85,-0.129,1.298,-0.047
33.86,-0.173,0.798,0.085
33.87,-0.144,0.876,0.166
33.88,-0.203,1.017,-0.044
33.89,-0.248,1.001,-0.189
33.9,-0.231,1.064,-0.061
33.91,-0.089,0.776,0.194
33.92,-0.198,1.09,0.084
33.93,-0.3,0.818,-0.122
33.94,-0.311,1.157,-0.097
33.95,-0.151,0.968,0.013
33.96,-0.047,0.855,0.143
33.97,-0.223,0.952,0.02
33.98,-0.367,0.905,-0.107
33.99,-0.174,1.2,-0.101
34.0,-0.115,0.8,0.058
34.01,-0.119,1.009,0.159
34.02,-0.287,0.893,-0.041
34.03,-0.308,1.121,-0.142
34.04,-0.178,0.963,-0.047
34.05,-0.247,0.871,-0.138
34.06,-0.246,1.066,-0.025
34.07,-0.127,0.76,0.201
34.08,-0.142,1.08,0.087
34.09,-0.306,0.87,-0.191
34.1,-0.289,0.928,-0.097
34.11,-0.108,1.064,0.02
34.12,-0.096,0.851,0.247
34.13,-0.272,1.019,0.013
34.14,-0.363,0.796,-0.122
34.15,-0.184,1.228,-0.063
34.16,-0.09,0.9,0.044
34.17,-0.147,0.922,0.114
34.18,-0.254,0.909,-0.041
34.19,-0.188,1.055,-0.173
34.2,-0.207,1.072,-0.048
34.21,-0.175,0.729,0.132
34.22,-0.125,1.086,0.11
34.23,-0.327,0.879,-0.121
34.24,-0.216,1.121,-0.158
34.25,-0.189,0.922,0.06
34.26,-0.014,0.99,0.136
34.27,-0.222,0.901,0.057
34.28,-0.352,0.887,-0.127
34.29,-0.15,1.238,-0.045
34.3,-0.124,0.873,0.04
34.31,-0.133,0.955,0.137
34.32,-0.302,0.828,-0.018
34.33,-0.287,1.209,-0.166
34.34,-0.155,0.846,-0.055
34.35,-0.191,1.024,0.161
34.36,-0.082,0.867,0.12
34.37,-0.399,0.963,-0.126
34.38,-0.299,0.999,-0.09
34.39,-0.072,0.977,0.051
34.4,-0.084,1.088,0.161
34.41,-0.162,0.696,0.021
34.42,-0.369,1.169,-0.144
34.43,-0.161,0.987,-0.057
34.44,-0.14,1.055,0.075
34.45,-0.102,0.86,0.177
34.46,-0.361,0.903,-0.038
34.47,-0.311,1.188,-0.108
34.48,-0.154,0.828,-0.071
34.49,-0.194,1.091,0.141
34.5,-0.114,0.758,0.144
34.51,-0.324,1.128,-0.133
34.52,-0.306,0.889,-0.132
34.53,-0.122,1.031,0.0
34.54,-0.167,1.087,0.189
34.55,-0.107,0.724,0.003
34.56,-0.412,1.125,-0.123
34.57,-0.16,0.915,-0.037
34.58,-0.071,1.259,0.026
34.59,-0.104,0.683,0.137
34.6,-0.269,0.938,0.023
34.61,-0.293,1.07,-0.14
34.62,-0.133,0.952,-0.093
34.63,-0.19,1.045,0.086
34.64,-0.1,0.695,0.144
34.65,-0.365,1.192,-0.06
34.66,-0.259,0.828,-0.152
34.67,-0.242,1.104,-0.021
34.68,-0.132,0.877,0.163
34.69,-0.116,0.911,0.092
34.7,-0.319,1.056,-0.151
34.71,-0.28,0.835,-0.093
34.72,-0.117,1.275,0.035
34.73,-0.025,0.72,0.147
34.74,-0.243,1.042,0.006
34.75,-0.355,0.864,-0.094
34.76,-0.142,1.135,-0.088
34.77,-0.156,1.024,0.071
34.78,-0.067,0.711,0.152
34.79,-0.337,1.152,0.009
34.8,-0.207,0.877,-0.181
34.81,-0.271,1.142,-0.049
34.82,-0.074,0.769,0.102
34.83,-0.173,1.02,0.115
34.84,-0.283,0.96,-0.104
34.85,-0.256,0.895,-0.114
34.86,-0.234,1.118,0.034
34.87,-0.031,0.828,0.155
34.88,-0.24,1.103,0.059
34.89,-0.297,0.772,-0.129
34.9,-0.251,1.204,-0.064
34.91,-0.082,0.972,0.016
34.92,-0.066,0.888,0.151
34.93,-0.291,0.979,-0.027
34.94,-0.3,0.948,-0.109
34.95,-0.18,1.175,-0.067
34.96,-0.148,0.741,0.101
34.97,-0.192,1.072,0.138
34.98,-0.248,0.872,-0.096
34.99,-0.369,1.077,-0.124
35.0,-0.196,0.87,-0.058
35.01,-0.11,0.981,0.178
35.02,-0.141,1.033,0.096
35.03,-0.329,0.833,-0.143
35.04,-0.25,1.103,-0.106
35.05,-0.183,0.961,0.083
35.06,-0.037,1.099,0.12
35.07,-0.226,0.778,-0.005
35.08,-0.369,1.027,-0.12
35.09,-0.183,1.133,-0.047
35.1,-0.152,0.918,0.053
35.11,-0.105,0.884,0.147
35.12,-0.327,0.88,0.014
35.13,-0.316,1.249,-0.164
35.14,-0.274,0.802,-0.065
35.15,-0.123,1.076,0.14
35.16,-0.121,0.836,0.14
35.17,-0.365,1.097,-0.122
35.18,-0.223,0.844,-0.149
35.19,-0.22,1.11,0.045
35.2,-0.029,0.996,0.172
35.21,-0.172,0.763,0.012
35.22,-0.34,1.119,-0.135
35.23,-0.249,0.937,-0.056
35.24,-0.101,1.232,0.05
35.25,-0.097,0.695,0.133
35.26,-0.307,0.957,0.008
35.27,-0.249,1.076,-0.119
35.28,-0.185,0.958,-0.083
35.29,-0.141,1.033,0.102
35.3,-0.127,0.704,0.13
35.31,-0.361,1.198,-0.039
35.32,-0.308,0.784,-0.147
35.33,-0.196,1.038,-0.044
35.34,-0.097,0.955,0.201
35.35,-0.112,0.912,0.06
35.36,-0.382,1.045,-0.096
35.37,-0.193,0.821,-0.135
35.38,-0.234,1.282,0.067
35.39,0.027,0.73,0.124
35.4,-0.284,1.054,0.022
35.41,-0.313,0.828,-0.175
35.42,-0.213,1.132,-0.05
35.43,-0.089,1.005,0.024
35.44,-0.06,0.731,0.158
35.45,-0.314,1.122,-0.01
35.46,-0.286,0.885,-0.137
35.47,-0.261,1.141,-0.043
35.48,-0.092,0.772,0.125
35.49,-0.165,1.047,0.133
35.5,-0.314,0.959,-0.119
35.51,-0.365,0.906,-0.118
35.52,-0.152,1.025,-0.002
35.53,-0.035,0.875,0.145
35.54,-0.226,1.084,0.067
35.55,-0.322,0.773,-0.134
35.56,-0.238,1.165,-0.086
35.57,-0.062,0.992,0.064
35.58,-0.079,0.933,0.13
35.59,-0.222,0.9,0.027
35.6,-0.396,0.894,-0.104
35.61,-0.13,1.204,-0.068
35.62,-0.056,0.843,0.046
35.63,-0.179,0.969,0.183
35.64,-0.29,0.833,-0.036
35.65,-0.272,1.17,-0.116
35.66,-0.103,0.939,-0.077
35.67,-0.201,0.911,0.132
35.68,-0.177,0.924,0.175
35.69,-0.278,0.897,-0.096
35.7,-0.285,1.157,-0.134
35.71,-0.16,0.84,0.02
35.72,-0.418,1.153,0.295
35.73,-0.173,0.792,0.015
35.74,-0.364,1.005,-0.153
35.75,-0.188,1.02,-0.094
35.76,-0.085,1.052,0.051
35.77,-0.12,0.942,0.177
35.78,-0.306,0.763,-0.007
35.79,-0.258,1.19,-0.141
35.8,-0.191,0.904,-0.093
35.81,-0.168,1.053,0.151
35.82,-0.09,0.79,0.137
35.83,-0.376,1.003,-0.05
35.84,-0.25,1.047,-0.156
35.85,-0.18,0.876,-0.077
35.86,-0.122,1.089,0.161
35.87,-0.155,0.757,0.097
35.88,-0.37,1.143,-0.123
35.89,-0.249,0.81,-0.114
35.9,-0.156,1.153,-0.006
35.91,-0.06,0.911,0.167
35.92,-0.194,0.876,0.014
35.93,-0.314,1.093,-0.154
35.94,-0.244,0.879,-0.091
35.95,-0.138,1.218,0.09
35.96,-0.067,0.676,0.136
35.97,-0.404,1.13,-0.017
35.98,-0.228,0.869,-0.146
35.99,-0.179,1.123,-0.04
36.0,-0.142,0.818,0.13
36.01,-0.192,0.881,0.122
36.02,-0.33,1.101,-0.13
36.03,-0.208,0.801,-0.131
36.04,-0.178,1.18,-0.008
36.05,0.084,0.756,0.113
36.06,-0.212,1.076,0.056
36.07,-0.317,0.85,-0.153
36.08,-0.166,1.073,-0.085
36.09,-0.109,1.058,0.027
36.1,-0.07,0.772,0.105
36.11,-0.291,1.066,-0.0
36.12,-0.257,0.863,-0.152
36.13,-0.217,1.175,-0.065
36.14,-0.048,0.791,0.043
36.15,-0.088,1.01,0.122
36.16,-0.303,0.974,-0.081
36.17,-0.293,0.938,-0.132
36.18,-0.265,1.064,-0.03
36.19,-0.047,0.857,0.179
36.2,-0.213,1.105,0.072
36.21,-0.337,0.785,-0.109
36.22,-0.207,1.166,-0.126
36.23,-0.102,0.978,0.044
36.24,-0.088,0.883,0.143
36.25,-0.208,0.908,0.034
36.26,-0.329,0.952,-0.13
36.27,-0.23,1.184,-0.087
36.28,-0.116,0.795,0.07
36.29,-0.101,0.979,0.13
36.3,-0.307,0.837,-0.026
36.31,-0.328,1.174,-0.153
36.32,-0.171,0.882,-0.068
36.33,-0.129,0.917,0.121
36.34,-0.234,1.025,0.152
36.35,-0.347,0.873,-0.12
36.36,-0.259,1.088,-0.121
36.37,-0.139,0.912,0.057
36.38,-0.079,1.142,0.148
36.39,-0.173,0.729,0.024
36.4,-0.368,1.043,-0.115
36.41,-0.156,1.103,-0.051
36.42,-0.069,0.971,0.023
36.43,-0.108,0.93,0.14
36.44,-0.319,0.82,-0.029
36.45,-0.344,1.22,-0.119
36.46,-0.099,0.837,-0.079
36.47,-0.125,1.059,0.086
36.48,-0.199,0.788,0.163
36.49,-0.314,1.008,-0.098
36.5,-0.299,1.024,-0.139
36.51,-0.187,0.901,-0.02
36.52,-0.148,1.151,0.184
36.53,-0.187,0.766,0.063
36.54,-0.391,1.121,-0.127
36.55,-0.192,0.875,-0.094
36.56,-0.083,1.195,0.056
36.57,-0.058,0.875,0.201
36.58,-0.23,0.821,-0.014
36.59,-0.339,1.115,-0.126
36.6,-0.14,0.919,-0.058
36.61,-0.224,1.152,0.071
36.62,-0.094,0.679,0.163
36.63,-0.359,1.118,-0.038
36.64,-0.274,0.944,-0.146
36.65,-0.173,0.982,-0.05
36.66,-0.148,1.004,0.13
36.67,-0.11,0.782,0.122
36.68,-0.392,1.151,-0.118
36.69,-0.22,0.731,-0.128
36.7,-0.279,1.315,0.088
36.71,0.021,0.829,0.127
36.72,-0.245,0.974,0.055
36.73,-0.281,0.924,-0.168
36.74,-0.156,1.022,-0.045
36.75,-0.125,1.151,0.025
36.76,-0.051,0.671,0.125
36.77,-0.311,1.116,-0.023
36.78,-0.261,0.833,-0.144
36.79,-0.223,1.101,-0.095
36.8,-0.112,0.805,0.113
36.81,-0.172,1.04,0.147
36.82,-0.315,0.881,-0.116
36.83,-0.228,0.913,-0.118
36.84,-0.209,1.159,0.038
36.85,-0.042,0.85,0.134
36.86,-0.251,1.036,0.056
36.87,-0.276,0.79,-0.113
36.88,-0.241,1.231,-0.088
36.89,-0.104,0.968,0.023
36.9,-0.091,0.914,0.142
36.91,-0.278,0.918,0.005
36.92,-0.323,0.925,-0.136
36.93,-0.07,1.176,-0.081
36.94,-0.088,0.749,0.084
36.95,-0.18,1.02,0.161
36.96,-0.256,0.874,-0.046
36.97,-0.291,1.177,-0.193
36.98,-0.183,0.841,-0.031
36.99,0.011,0.945,0.055
37.0,-0.201,1.013,0.129
37.01,-0.29,0.845,-0.166
37.02,-0.247,1.114,-0.085
37.03,-0.129,0.893,0.06
37.04,-0.059,1.1,0.146
37.05,-0.191,0.791,0.031
37.06,-0.382,1.053,-0.152
37.07,-0.151,1.083,-0.037
37.08,-0.085,0.985,0.091
37.09,-0.156,0.918,0.14
37.1,-0.302,0.806,-0.0
37.11,-0.277,1.234,-0.166
37.12,-0.19,0.805,-0.034
37.13,-0.15,0.993,0.102
37.14,-0.096,0.834,0.169
37.15,-0.386,1.007,-0.115
37.16,-0.287,0.953,-0.146
37.17,-0.239,0.984,0.033
37.18,-0.045,1.098,0.14
37.19,-0.178,0.678,0.035
37.2,-0.344,1.157,-0.128
37.21,-0.277,0.964,-0.029
37.22,-0.094,1.154,0.046
37.23,-0.112,0.79,0.14
37.24,-0.304,0.865,0.005
37.25,-0.298,1.175,-0.124
37.26,-0.14,0.892,-0.084
37.27,-0.153,1.084,0.079
37.28,-0.121,0.687,0.152
37.29,-0.344,1.154,-0.062
37.3,-0.232,0.896,-0.15
37.31,-0.211,0.99,-0.061
37.32,-0.135,0.99,0.18
37.33,-0.13,0.814,0.075
37.34,-0.373,1.11,-0.135
37.35,-0.188,0.739,-0.144
37.36,-0.163,1.306,0.1
37.37,-0.055,0.767,0.116
37.38,-0.263,0.914,0.001
37.39,-0.353,0.966,-0.103
37.4,-0.119,1.057,-0.092
37.41,-0.147,1.084,0.078
37.42,-0.072,0.638,0.127
37.43,-0.354,1.146,-0.027
37.44,-0.221,0.87,-0.168
37.45,-0.193,1.115,-0.053
37.46,-0.18,0.827,0.125
37.47,-0.163,0.906,0.172
37.48,-0.305,1.084,-0.103
37.49,-0.289,0.816,-0.097
37.5,-0.266,1.165,-0.013
37.51,-0.023,0.817,0.158
37.52,-0.196,1.073,0.029
37.53,-0.363,0.796,-0.158
37.54,-0.233,1.105,-0.016
37.55,-0.047,1.078,0.003
37.56,-0.062,0.775,0.144
37.57,-0.327,1.041,0.0
37.58,-0.266,0.886,-0.106
37.59,-0.192,1.211,-0.112
37.6,-0.177,0.708,0.094
37.61,-0.114,1.01,0.147
37.62,-0.312,0.885,-0.104
37.63,-0.295,1.071,-0.123
37.64,-0.241,0.927,0.011
37.65,-0.034,0.976,0.188
37.66,-0.146,0.985,0.042
37.67,-0.362,0.836,-0.131
37.68,-0.255,1.187,-0.081
37.69,-0.101,0.984,0.034
37.7,-0.066,1.017,0.107
37.71,-0.232,0.793,0.019
37.72,-0.311,1.066,-0.132
37.73,-0.22,1.029,-0.045
37.74,-0.065,0.922,0.079
37.75,-0.166,0.926,0.129
37.76,-0.325,0.856,-0.036
37.77,-0.348,1.234,-0.122
37.78,-0.128,0.82,-0.076
37.79,-0.141,1.063,0.145
37.8,-0.174,0.817,0.127
37.81,-0.354,1.034,-0.085
37.82,-0.21,1.0,-0.15
37.83,-0.171,0.93,0.014
37.84,-0.098,1.109,0.167
37.85,-0.151,0.742,0.019
37.86,-0.412,1.108,-0.129
37.87,-0.207,0.846,-0.064
37.88,-0.041,1.182,0.025
37.89,-0.054,0.849,0.147
37.9,-0.268,0.884,0.014
37.91,-0.321,1.085,-0.136
37.92,-0.122,0.935,-0.103
37.93,-0.439,1.126,0.226
37.94,-0.081,0.678,0.105
37.95,-0.392,1.147,-0.08
37.96,-0.243,0.868,-0.165
37.97,-0.193,1.007,-0.012
37.98,-0.145,1.001,0.148
37.99,-0.151,0.792,0.095
38.0,-0.405,1.128,-0.089
38.01,-0.22,0.797,-0.084
38.02,-0.147,1.268,0.036
38.03,0.031,0.743,0.121
38.04,-0.27,1.002,0.057
38.05,-0.288,0.921,-0.183
38.06,-0.198,1.029,-0.059
38.07,-0.113,1.095,0.065
38.08,-0.082,0.654,0.146
38.09,-0.346,1.137,-0.013
38.1,-0.305,0.849,-0.136
38.11,-0.256,1.116,-0.04
38.12,-0.081,0.838,0.101
38.13,-0.15,0.951,0.151
38.14,-0.337,1.031,-0.132
38.15,-0.233,0.776,-0.093
38.16,-0.211,1.183,-0.007
38.17,-0.023,0.812,0.205
38.18,-0.23,1.077,0.036
38.19,-0.291,0.788,-0.137
38.2,-0.264,1.144,-0.079
38.21,-0.158,1.074,0.041
38.22,-0.039,0.757,0.161
38.23,-0.27,1.049,0.018
38.24,-0.306,0.874,-0.125
38.25,-0.232,1.244,-0.094
38.26,-0.094,0.793,0.07
38.27,-0.116,0.983,0.127
38.28,-0.306,0.92,-0.023
38.29,-0.278,1.044,-0.17
38.3,-0.194,0.995,-0.056
38.31,-0.121,0.823,0.158
38.32,-0.173,1.085,0.095
38.33,-0.35,0.826,-0.13
38.34,-0.224,1.083,-0.111
38.35,-0.16,0.925,0.028
38.36,-0.106,1.069,0.17
38.37,-0.134,0.886,0.044
38.38,-0.418,0.922,-0.135
38.39,-0.243,1.114,-0.086
38.4,-0.077,0.924,0.059
38.41,-0.102,1.004,0.118
38.42,-0.274,0.772,-0.026
38.43,-0.344,1.179,-0.138
38.44,-0.248,0.853,-0.014
38.45,-0.173,1.003,0.113
38.46,-0.166,0.793,0.137
38.47,-0.386,1.053,-0.109
38.48,-0.245,0.976,-0.145
38.49,-0.187,0.951,0.021
38.5,-0.086,1.102,0.166
38.51,-0.09,0.685,-0.012
38.52,-0.422,1.133,-0.078
38.53,-0.214,0.898,-0.089
38.54,-0.074,1.187,0.044
38.55,-0.107,0.83,0.145
38.56,-0.267,0.865,0.02
38.57,-0.325,1.148,-0.125
38.58,-0.091,0.91,-0.092
38.59,-0.17,1.101,0.085
38.6,-0.066,0.699,0.119
38.61,-0.392,1.171,-0.062
38.62,-0.357,0.859,-0.154
38.63,-0.206,0.988,-0.052
38.64,-0.141,1.031,0.201
38.65,-0.15,0.799,0.092
38.66,-0.368,1.135,-0.131
38.67,-0.244,0.785,-0.128
38.68,-0.176,1.239,0.055
38.69,-0.005,0.772,0.139
38.7,-0.229,0.977,0.038
38.71,-0.338,0.944,-0.117
38.72,-0.16,1.028,-0.051
38.73,-0.134,1.115,0.031
38.74,-0.051,0.629,0.141
38.75,-0.368,1.153,-0.002
38.76,-0.224,0.855,-0.162
38.77,-0.278,1.124,-0.018
38.78,-0.098,0.795,0.104
38.79,-0.195,0.96,0.174
38.8,-0.293,1.07,-0.11
38.81,-0.285,0.828,-0.108
38.82,-0.226,1.14,-0.035
38.83,-0.088,0.81,0.177
38.84,-0.18,1.096,0.027
38.85,-0.352,0.796,-0.15
38.86,-0.267,1.052,-0.094
38.87,-0.136,1.042,0.054
38.88,-0.023,0.814,0.155
38.89,-0.265,1.016,0.01
38.9,-0.344,0.862,-0.106
38.91,-0.231,1.221,-0.094
38.92,-0.09,0.787,0.053
38.93,-0.124,0.992,0.118
38.94,-0.302,0.951,-0.01
38.95,-0.268,1.017,-0.161
38.96,-0.2,0.97,-0.051
38.97,-0.079,0.865,0.129
38.98,-0.226,1.092,0.148
38.99,-0.302,0.833,-0.115
39.0,-0.29,1.117,-0.119
39.01,-0.191,0.918,0.011
39.02,-0.077,1.072,0.19
39.03,-0.169,0.877,0.015
39.04,-0.312,0.941,-0.138
39.05,-0.268,1.15,-0.023
39.06,-0.053,0.903,-0.02
39.07,-0.098,0.98,0.137
39.08,-0.238,0.741,-0.009
39.09,-0.368,1.177,-0.11
39.1,-0.172,0.943,-0.083
39.11,-0.135,0.971,0.074
39.12,-0.197,0.9,0.157
39.13,-0.316,0.952,-0.019
39.14,-0.37,1.15,-0.126
39.15,-0.154,0.791,-0.071
39.16,-0.188,1.129,0.194
39.17,-0.097,0.796,0.057
39.18,-0.374,1.052,-0.13
39.19,-0.198,0.86,-0.156
39.2,-0.191,1.087,0.048
39.21,-0.076,1.012,0.127
39.22,-0.2,0.723,0.012
39.23,-0.32,1.16,-0.103
39.24,-0.185,0.957,-0.056
39.25,-0.105,1.187,0.038
39.26,-0.071,0.668,0.149
39.27,-0.337,1.11,-0.025
39.28,-0.279,0.892,-0.148
39.29,-0.198,1.03,-0.067
39.3,-0.247,0.967,0.149
39.31,-0.168,0.837,0.121
39.32,-0.33,1.137,-0.087
39.33,-0.309,0.777,-0.115
39.34,-0.161,1.165,-0.038
39.35,-0.064,0.878,0.154
39.36,-0.19,0.985,0.047
39.37,-0.322,0.876,-0.102
39.38,-0.185,0.941,-0.137
39.39,-0.187,1.203,0.08
39.4,0.006,0.729,0.101
39.41,-0.315,1.055,0.056
39.42,-0.279,0.802,-0.142
39.43,-0.188,1.259,-0.063
39.44,-0.112,0.911,0.043
39.45,-0.093,0.851,0.13
39.46,-0.28,1.021,-0.001
39.47,-0.273,0.952,-0.145
39.48,-0.203,1.083,-0.037
39.49,-0.137,0.775,0.088
39.5,-0.175,1.08,0.131
39.51,-0.287,0.886,-0.061
39.52,-0.275,1.064,-0.129
39.53,-0.192,0.954,-0.023
39.54,-0.075,0.939,0.168
39.55,-0.181,1.031,0.066
39.56,-0.298,0.815,-0.151
39.57,-0.255,1.177,-0.056
39.58,-0.073,0.939,0.048
39.59,-0.108,1.009,0.143
39.6,-0.221,0.791,0.009
39.61,-0.393,1.041,-0.122
39.62,-0.202,1.056,-0.049
39.63,-0.098,0.932,0.043
39.64,-0.127,0.948,0.142
39.65,-0.291,0.808,-0.048
39.66,-0.334,1.186,-0.135
39.67,-0.102,0.895,-0.058
39.68,-0.091,1.013,0.063
39.69,-0.162,0.814,0.112
39.7,-0.378,0.994,-0.071
39.71,-0.25,1.072,-0.129
39.72,-0.166,0.861,0.003
39.73,-0.232,1.112,0.142
39.74,-0.139,0.785,0.035
39.75,-0.372,1.108,-0.143
39.76,-0.181,0.868,-0.107
39.77,-0.091,1.158,0.068
39.78,0.003,0.95,0.092
39.79,-0.33,0.806,0.005
39.8,-0.29,1.099,-0.145
39.81,-0.107,0.963,-0.086
39.82,-0.174,1.129,0.053
39.83,-0.126,0.661,0.163
39.84,-0.338,1.103,-0.033
39.85,-0.249,0.919,-0.148
39.86,-0.191,0.932,-0.047
39.87,-0.157,1.032,0.166
39.88,-0.114,0.791,0.102
39.89,-0.351,1.165,-0.136
39.9,-0.25,0.754,-0.145
39.91,-0.22,1.212,0.061
39.92,-0.027,0.823,0.176
39.93,-0.249,0.937,0.014
39.94,-0.403,0.969,-0.102
39.95,-0.127,0.983,-0.083
39.96,-0.117,1.14,0.052
39.97,-0.054,0.651,0.141
39.98,-0.342,1.135,-0.041
39.99,-0.267,0.875,-0.15
40.0,-0.243,1.066,-0.099
40.01,-0.108,0.874,0.1
40.02,-0.16,0.933,0.171
40.03,-0.363,1.055,-0.074
40.04,-0.25,0.774,-0.09
40.05,-0.221,1.198,-0.021
40.06,-0.091,0.799,0.16
40.07,-0.152,1.091,0.068
40.08,-0.244,0.839,-0.143
40.09,-0.298,1.167,-0.031
40.1,-0.074,0.955,0.025
40.11,-0.04,0.951,0.153
40.12,-0.246,0.961,0.003
40.13,-0.354,0.914,-0.088
40.14,-0.182,1.183,-0.093
40.15,-0.097,0.812,0.053
40.16,-0.16,1.015,0.144
40.17,-0.298,0.842,-0.058
40.18,-0.309,1.191,-0.153
40.19,-0.176,0.885,-0.08
40.2,-0.1,0.883,0.145
40.21,-0.224,1.053,0.183
40.22,-0.282,0.872,-0.121
40.23,-0.349,1.103,-0.116
40.24,-0.194,0.899,0.066
40.25,-0.026,1.165,0.123
40.26,-0.182,0.772,0.038
40.27,-0.362,1.002,-0.14
40.28,-0.2,1.08,-0.055
40.29,-0.077,0.987,0.01
40.3,-0.101,0.884,0.108
40.31,-0.3,0.805,0.026
40.32,-0.292,1.237,-0.15
40.33,-0.227,0.862,-0.08
40.34,-0.112,1.041,0.081
40.35,-0.171,0.815,0.134
40.36,-0.325,1.013,-0.053
40.37,-0.236,1.033,-0.133
40.38,-0.17,0.887,-0.043
40.39,-0.138,1.095,0.184
40.4,-0.116,0.76,0.094
40.41,-0.311,1.137,-0.144
40.42,-0.282,0.85,-0.099
40.43,-0.167,1.105,0.008
40.44,-0.039,0.934,0.159
40.45,-0.203,0.826,0.051
40.46,-0.333,1.131,-0.132
40.47,-0.259,0.878,-0.065
40.48,-0.064,1.213,0.027
40.49,-0.059,0.701,0.19
40.5,-0.311,1.039,-0.019
40.51,-0.351,0.936,-0.116
40.52,-0.19,0.981,-0.1
40.53,-0.093,1.022,0.105
40.54,-0.156,0.786,0.129
40.55,-0.342,1.153,-0.071
40.56,-0.293,0.759,-0.124
40.57,-0.171,1.177,-0.033
40.58,-0.069,0.906,0.146
40.59,-0.168,0.982,0.1
40.6,-0.261,0.959,-0.118
40.61,-0.253,0.868,-0.079
40.62,-0.192,1.234,0.018
40.63,-0.048,0.84,0.171
40.64,-0.199,1.049,0.024
40.65,-0.307,0.772,-0.117
40.66,-0.163,1.211,-0.082
40.67,-0.073,1.005,0.005
40.68,-0.075,0.817,0.162
40.69,-0.231,1.009,0.009
40.7,-0.31,0.926,-0.117
40.71,-0.215,1.192,-0.067
40.72,-0.106,0.751,0.077
40.73,-0.126,0.989,0.127
40.74,-0.297,0.923,-0.039
40.75,-0.246,1.077,-0.193
40.76,-0.218,0.927,-0.019
40.77,-0.142,0.823,0.164
40.78,-0.219,1.093,0.15
40.79,-0.287,0.85,-0.095
40.8,-0.297,1.124,-0.145
40.81,-0.192,0.872,0.028
40.82,0.022,1.061,0.085
40.83,-0.177,0.846,0.035
40.84,-0.356,0.964,-0.141
40.85,-0.2,1.095,-0.076
40.86,-0.071,0.952,0.019
40.87,-0.087,0.997,0.17
40.88,-0.224,0.77,-0.012
40.89,-0.358,1.162,-0.116
40.9,-0.2,0.945,-0.078
40.91,-0.138,1.105,0.075
40.92,-0.116,0.776,0.138
40.93,-0.288,1.061,-0.109
40.94,-0.326,0.959,-0.124
40.95,-0.193,0.929,-0.019
40.96,-0.135,1.099,0.162
40.97,-0.132,0.728,0.065
40.98,-0.349,1.12,-0.131
40.99,-0.209,0.838,-0.111
41.0,-0.191,1.215,0.063
41.01,-0.043,0.838,0.162
41.02,-0.249,0.894,0.021
41.03,-0.34,1.018,-0.126
41.04,-0.178,0.968,-0.05
41.05,-0.134,1.177,0.048
41.06,-0.082,0.638,0.136
41.07,-0.295,1.082,-0.008
41.08,-0.342,0.918,-0.105
41.09,-0.178,1.107,-0.115
41.1,-0.138,0.894,0.123
41.11,-0.104,0.823,0.149
41.12,-0.281,1.147,-0.067
41.13,-0.303,0.814,-0.154
41.14,-0.254,1.105,-0.026
41.15,-0.036,0.832,0.122
41.16,-0.113,1.077,0.078
41.17,-0.307,0.905,-0.132
41.18,-0.261,0.868,-0.117
41.19,-0.183,1.131,0.051
41.2,0.006,0.888,0.142
41.21,-0.296,1.039,0.014
41.22,-0.32,0.721,-0.118
41.23,-0.183,1.259,-0.084
41.24,-0.143,0.932,0.039
41.25,-0.062,0.832,0.152
41.26,-0.247,0.968,-0.029
41.27,-0.284,0.998,-0.101
41.28,-0.195,1.128,-0.102
41.29,-0.092,0.733,0.102
41.3,-0.178,1.096,0.17
41.31,-0.32,0.876,-0.065
41.32,-0.306,1.077,-0.162
41.33,-0.19,0.912,-0.053
41.34,-0.135,0.989,0.158
41.35,-0.187,1.003,0.104
41.36,-0.289,0.865,-0.113
41.37,-0.268,1.124,-0.129
41.38,-0.171,0.889,0.041
41.39,-0.045,1.129,0.149
41.4,-0.146,0.795,-0.012
41.41,-0.383,0.986,-0.14
41.42,-0.243,1.046,-0.033
41.43,-0.045,1.026,0.046
41.44,-0.127,0.947,0.138
41.45,-0.255,0.763,-0.013
41.46,-0.363,1.209,-0.116
41.47,-0.099,0.889,-0.094
41.48,-0.153,1.09,0.097
41.49,-0.155,0.785,0.134
41.5,-0.329,1.02,-0.065
41.51,-0.289,1.051,-0.113
41.52,-0.183,0.876,-0.077
41.53,-0.127,1.086,0.201
41.54,-0.103,0.749,0.065
41.55,-0.394,1.137,-0.084
41.56,-0.262,0.828,-0.135
41.57,-0.164,1.156,0.065
41.58,-0.018,0.851,0.142
41.59,-0.24,0.82,0.016
41.6,-0.355,1.086,-0.099
41.61,-0.191,0.936,-0.052
41.62,-0.119,1.187,0.018
41.63,-0.035,0.678,0.147
41.64,-0.338,1.1,0.001
41.65,-0.305,0.93,-0.14
41.66,-0.252,1.03,-0.085
41.67,-0.094,0.976,0.098
41.68,-0.184,0.774,0.126
41.69,-0.323,1.158,-0.041
41.7,-0.271,0.798,-0.149
41.71,-0.214,1.145,-0.032
41.72,-0.129,0.802,0.128
41.73,-0.171,1.096,0.083
41.74,-0.315,0.809,-0.164
41.75,-0.224,1.042,-0.094
41.76,-0.158,1.091,0.037
41.77,-0.019,0.779,0.147
41.78,-0.258,1.037,0.072
41.79,-0.311,0.813,-0.139
41.8,-0.209,1.212,-0.042
41.81,-0.102,0.848,0.015
41.82,-0.118,0.961,0.122
41.83,-0.304,0.892,0.011
41.84,-0.271,1.049,-0.118
41.85,-0.23,1.042,-0.082
41.86,-0.144,0.836,0.144
41.87,-0.124,1.069,0.112
41.88,-0.323,0.887,-0.085
41.89,-0.33,1.099,-0.138
41.9,-0.167,0.85,-0.024
41.91,-0.086,1.086,0.148
41.92,-0.207,0.92,0.102
41.93,-0.332,0.924,-0.096
41.94,-0.219,1.07,-0.108
41.95,-0.147,0.939,0.041
41.96,-0.116,1.106,0.147
41.97,-0.183,0.726,0.001
41.98,-0.338,1.075,-0.151
41.99,-0.166,1.013,-0.036
42.0,-0.079,1.034,0.034
42.01,-0.135,0.86,0.187
42.02,-0.295,0.861,-0.026
42.03,-0.377,1.217,-0.127
42.04,-0.144,0.838,-0.101
42.05,-0.162,1.088,0.09
42.06,-0.106,0.709,0.12
42.07,-0.316,1.087,-0.051
42.08,-0.323,0.897,-0.165
42.09,-0.184,0.889,0.004
42.1,-0.19,1.067,0.201
42.11,-0.164,0.778,0.089
42.12,-0.395,1.132,-0.124
42.13,-0.254,0.751,-0.088
42.14,-0.156,1.2,0.034
42.15,-0.052,0.872,0.208
42.16,-0.254,0.934,0.014
42.17,-0.334,0.96,-0.12
42.18,-0.165,0.959,-0.054
42.19,-0.03,1.256,0.056
42.2,-0.071,0.677,0.094
42.21,-0.307,1.067,0.001
42.22,-0.29,0.914,-0.124
42.23,-0.152,1.109,-0.117
42.24,-0.243,0.866,0.242
42.25,-0.085,0.84,0.15
42.26,-0.3,1.117,-0.059
42.27,-0.262,0.822,-0.164
42.28,-0.202,1.12,-0.017
42.29,-0.068,0.804,0.16
42.3,-0.194,1.075,0.072
42.31,-0.367,0.861,-0.114
42.32,-0.26,1.003,-0.095
42.33,-0.115,1.108,0.048
42.34,-0.057,0.804,0.117
42.35,-0.258,1.03,0.059
42.36,-0.306,0.842,-0.127
42.37,-0.228,1.219,-0.086
42.38,-0.087,0.807,0.002
42.39,-0.325,0.878,-0.128
42.4,-0.328,1.082,-0.115
42.41,-0.176,0.829,-0.003
42.42,-0.092,1.132,0.18
42.43,-0.181,0.835,0.047
42.44,-0.352,0.976,-0.116
42.45,-0.216,1.021,-0.098
42.46,-0.129,1.029,0.047
42.47,-0.051,0.997,0.118
42.48,-0.273,0.756,0.025
42.49,-0.315,1.161,-0.133
42.5,-0.112,0.91,-0.08
42.51,-0.066,1.143,-0.018
42.52,-0.086,0.66,0.127
42.53,-0.349,1.114,-0.039
42.54,-0.247,0.957,-0.152
42.55,-0.196,0.942,-0.065
42.56,-0.146,1.039,0.162
42.57,-0.131,0.776,0.094
42.58,-0.383,1.141,-0.115
42.59,-0.222,0.783,-0.122
42.6,-0.188,1.224,0.025
42.61,-0.044,0.835,0.146
42.62,-0.195,0.948,0.021
42.63,-0.32,0.971,-0.144
42.64,-0.198,0.956,-0.063
42.65,-0.108,1.187,0.041
42.66,-0.095,0.666,0.146
42.67,-0.277,1.101,-0.008
42.68,-0.329,0.885,-0.111
42.69,-0.163,1.093,-0.105
42.7,-0.145,0.927,0.113
42.71,-0.125,0.85,0.122
42.72,-0.332,1.115,-0.05
42.73,-0.267,0.827,-0.139
42.74,-0.207,1.127,-0.024
42.75,-0.12,0.822,0.191
42.76,-0.163,1.083,0.081
42.77,-0.271,0.849,-0.128
42.78,-0.267,1.011,-0.087
42.79,-0.128,1.132,0.055
42.8,-0.045,0.809,0.125
42.81,-0.26,1.04,0.07
42.82,-0.319,0.806,-0.148
42.83,-0.293,1.213,-0.072
42.84,-0.03,0.838,0.051
42.85,-0.159,0.983,0.173
42.86,-0.237,0.893,-0.038
42.87,-0.354,1.015,-0.116
42.88,-0.187,1.057,-0.087
42.89,-0.088,0.79,0.091
42.9,-0.208,1.068,0.165
42.91,-0.294,0.8,-0.082
42.92,-0.329,1.142,-0.136
42.93,-0.112,0.875,-0.03
42.94,-0.101,1.002,0.142
42.95,-0.185,0.955,0.085
42.96,-0.308,0.864,-0.139
42.97,-0.241,1.142,-0.101
42.98,-0.113,0.93,0.033
42.99,-0.098,0.993,0.135
43.0,-0.172,0.756,0.049
43.01,-0.339,1.136,-0.162
43.02,-0.277,1.034,-0.049
43.03,-0.115,1.002,0.042
43.04,-0.134,0.868,0.167
43.05,-0.313,0.81,-0.016
43.06,-0.253,1.221,-0.169
43.07,-0.206,0.836,-0.069
43.08,-0.106,1.04,0.102
43.09,-0.148,0.823,0.173
43.1,-0.373,1.041,-0.116
43.11,-0.281,0.924,-0.109
43.12,-0.195,0.956,-0.006
43.13,-0.143,1.098,0.171
43.14,-0.158,0.73,0.067
43.15,-0.33,1.155,-0.1
43.16,-0.208,0.854,-0.102
43.17,-0.135,1.208,0.033
43.18,-0.058,0.814,0.112
43.19,-0.242,0.879,0.031
43.2,-0.397,1.064,-0.109
43.21,-0.121,0.924,-0.098
43.22,-0.205,1.169,0.091
43.23,-0.063,0.626,0.151
43.24,-0.354,1.142,-0.015
43.25,-0.265,0.881,-0.165
43.26,-0.22,1.049,-0.042
43.27,-0.067,0.91,0.096
43.28,-0.088,0.847,0.163
43.29,-0.372,1.142,-0.113
43.3,-0.302,0.782,-0.11
43.31,-0.202,1.194,-0.021
43.32,-0.059,0.758,0.157
43.33,-0.26,1.105,0.045
43.34,-0.297,0.815,-0.133
43.35,-0.22,1.143,-0.056
43.36,-0.082,0.994,0.027
43.37,-0.021,0.835,0.135
43.38,-0.309,0.995,0.001
43.39,-0.303,0.892,-0.109
43.4,-0.219,1.221,-0.047
43.41,-0.097,0.749,0.047
43.42,-0.164,1.004,0.147
43.43,-0.284,0.891,-0.051
43.44,-0.309,1.088,-0.162
43.45,-0.168,0.907,-0.044
43.46,-0.104,0.871,0.155
43.47,-0.167,1.078,0.122
43.48,-0.309,0.834,-0.12
43.49,-0.261,1.104,-0.11
43.5,-0.184,0.928,0.063
43.51,-0.057,1.092,0.127
43.52,-0.18,0.832,0.04
43.53,-0.396,0.981,-0.102
43.54,-0.121,1.111,-0.082
43.55,-0.08,0.975,0.023
43.56,-0.125,0.99,0.133
43.57,-0.205,0.753,-0.004
43.58,-0.337,1.223,-0.131
43.59,-0.115,0.933,-0.09
43.6,-0.161,1.02,0.094
43.61,-0.104,0.782,0.14
43.62,-0.392,0.978,-0.024
43.63,-0.276,1.122,-0.143
43.64,-0.133,0.811,-0.045
43.65,-0.143,1.085,0.147
43.66,-0.159,0.742,0.091
43.67,-0.358,1.122,-0.11
43.68,-0.174,0.893,-0.135
43.69,-0.148,1.026,0.007
43.7,-0.331,0.948,0.151
43.71,-0.156,0.857,0.02
43.72,-0.349,1.138,-0.139
43.73,-0.211,0.808,-0.103
43.74,-0.122,1.209,0.095
43.75,-0.072,0.722,0.166
43.76,-0.388,1.004,-0.003
43.77,-0.301,0.926,-0.13
43.78,-0.072,1.051,-0.086
43.79,-0.413,1.037,0.162
43.8,-0.099,0.69,0.096
43.81,-0.359,1.231,-0.085
43.82,-0.215,0.828,-0.183
43.83,-0.256,1.082,0.006
43.84,-0.11,0.831,0.217
43.85,-0.132,0.987,0.07
43.86,-0.419,1.015,-0.127
43.87,-0.217,0.831,-0.098
43.88,-0.209,1.276,0.1
43.89,0.011,0.712,0.123
43.9,-0.316,1.061,0.033
43.91,-0.331,0.845,-0.128
43.92,-0.123,1.164,-0.102
43.93,-0.16,0.922,0.078
43.94,-0.083,0.814,0.143
43.95,-0.352,1.124,-0.049
43.96,-0.215,0.83,-0.179
43.97,-0.241,1.141,-0.025
43.98,-0.132,0.754,0.186
43.99,-0.169,1.048,0.108
44.0,-0.371,0.921,-0.103
44.01,-0.258,0.947,-0.152
44.02,-0.167,1.092,0.051
44.03,-0.012,0.869,0.16
44.04,-0.276,1.049,0.063
44.05,-0.31,0.767,-0.139
44.06,-0.176,1.256,-0.066
44.07,-0.208,0.891,0.024
44.08,-0.054,0.909,0.157
44.09,-0.274,0.956,-0.019
44.1,-0.257,0.984,-0.162
44.11,-0.232,1.07,-0.057
44.12,-0.012,0.774,0.071
44.13,-0.156,1.08,0.155
44.14,-0.345,0.88,-0.107
44.15,-0.268,1.1,-0.115
44.16,-0.175,0.882,0.012
44.17,-0.065,1.125,0.14
44.18,-0.163,0.809,0.059
44.19,-0.313,1.004,-0.159
44.2,-0.225,1.136,-0.057
44.21,-0.133,0.935,0.02
44.22,-0.082,0.937,0.165
44.23,-0.239,0.776,-0.007
44.24,-0.378,1.247,-0.152
44.25,-0.185,0.915,-0.069
44.26,-0.113,0.991,0.065
44.27,-0.14,0.833,0.195
44.28,-0.311,0.981,-0.067
44.29,-0.348,1.077,-0.151
44.3,-0.132,0.851,-0.015
44.31,-0.177,1.149,0.194
44.32,-0.131,0.712,0.057
44.33,-0.388,1.114,-0.146
44.34,-0.202,0.892,-0.104
44.35,-0.13,1.125,0.038
44.36,-0.052,0.93,0.142
44.37,-0.227,0.82,0.032
44.38,-0.377,1.112,-0.148
44.39,-0.132,0.913,-0.028
44.4,-0.165,1.169,0.051
44.41,-0.135,0.619,0.15
44.42,-0.304,1.09,-0.013
44.43,-0.278,0.964,-0.195
44.44,-0.178,0.932,-0.053
44.45,-0.201,1.036,0.157
44.46,-0.045,0.79,0.109
44.47,-0.362,1.142,-0.147
44.48,-0.225,0.761,-0.123
44.49,-0.24,1.266,0.079
44.5,0.009,0.847,0.102
44.51,-0.239,0.935,0.065
44.52,-0.306,1.006,-0.146
44.53,-0.18,1.009,-0.066
44.54,-0.17,1.116,0.039
44.55,-0.016,0.642,0.152
44.56,-0.368,1.136,0.004
44.57,-0.277,0.833,-0.152
44.58,-0.181,1.111,-0.051
44.59,-0.112,0.892,0.096
44.6,-0.14,0.887,0.181
44.61,-0.329,1.097,-0.095
44.62,-0.341,0.812,-0.091
44.63,-0.192,1.155,-0.049
44.64,-0.026,0.832,0.168
44.65,-0.201,1.068,0.064
44.66,-0.281,0.785,-0.138
44.67,-0.252,1.073,-0.053
44.68,-0.043,1.068,-0.032
44.69,-0.057,0.795,0.188
44.7,-0.221,1.053,0.03
44.71,-0.338,0.834,-0.136
44.72,-0.263,1.209,-0.08
44.73,-0.135,0.818,0.097
44.74,-0.104,0.972,0.13
44.75,-0.296,0.928,-0.019
44.76,-0.281,1.001,-0.198
44.77,-0.208,0.994,-0.009
44.78,-0.062,0.828,0.092
44.79,-0.222,1.103,0.138
44.8,-0.35,0.785,-0.094
44.81,-0.208,1.102,-0.108
44.82,-0.245,0.984,0.043
44.83,-0.081,1.002,0.145
44.84,-0.196,0.902,0.053
44.85,-0.322,0.915,-0.105
44.86,-0.162,1.223,-0.094
44.87,-0.099,0.896,0.003
44.88,-0.118,0.976,0.14
44.89,-0.232,0.774,-0.02
44.9,-0.357,1.185,-0.158
44.91,-0.163,0.901,-0.074
44.92,-0.082,0.973,0.107
44.93,-0.16,0.959,0.146
44.94,-0.308,0.878,-0.074
44.95,-0.347,1.126,-0.119
44.96,-0.131,0.936,-0.005
44.97,-0.1,1.152,0.161
44.98,-0.136,0.694,0.017
44.99,-0.38,1.15,-0.104
45.0,-0.186,0.939,-0.091
45.01,-0.163,1.2,0.025
45.02,-0.094,0.798,0.188
45.03,-0.246,0.859,0.007
45.04,-0.317,1.138,-0.147
45.05,-0.149,0.935,-0.101
45.06,-0.164,1.098,0.046
45.07,-0.057,0.646,0.147
45.08,-0.311,1.138,-0.055
45.09,-0.371,0.896,-0.142
45.1,-0.178,0.975,-0.041
45.11,-0.158,1.051,0.17
45.12,-0.182,0.785,0.083
45.13,-0.35,1.104,-0.112
45.14,-0.17,0.778,-0.104
45.15,-0.216,1.246,0.024
45.16,-0.033,0.817,0.136
45.17,-0.213,0.963,0.035
45.18,-0.329,0.943,-0.143
45.19,-0.139,1.051,-0.038
45.2,-0.151,1.156,0.021
45.21,-0.104,0.652,0.191
45.22,-0.251,1.122,0.002
45.23,-0.321,0.869,-0.136
45.24,-0.259,1.087,-0.071
45.25,-0.093,0.867,0.075
45.26,-0.134,0.945,0.168
45.27,-0.325,1.052,-0.081
45.28,-0.253,0.833,-0.129
45.29,-0.246,1.184,-0.018
45.3,-0.052,0.798,0.155
45.31,-0.208,1.042,0.035
45.32,-0.382,0.828,-0.065
45.33,-0.174,1.082,-0.154
45.34,-0.205,1.083,0.051
45.35,-0.081,0.828,0.119
45.36,-0.199,0.99,0.053
45.37,-0.324,0.846,-0.135
45.38,-0.18,1.222,-0.025
45.39,-0.16,0.838,0.046
45.4,-0.129,0.967,0.147
45.41,-0.304,0.917,-0.0
45.42,-0.281,1.055,-0.212
45.43,-0.229,0.941,-0.049
45.44,-0.109,0.854,0.108
45.45,-0.188,1.077,0.167
45.46,-0.303,0.814,-0.114
45.47,-0.267,1.101,-0.146
45.48,-0.177,0.92,0.021
45.49,-0.085,1.069,0.111
45.5,-0.175,0.839,0.064
45.51,-0.393,0.958,-0.1
45.52,-0.184,1.158,-0.091
45.53,-0.117,0.976,0.013
45.54,-0.115,0.989,0.113
45.55,-0.229,0.74,-0.01
45.56,-0.268,1.173,-0.091
45.57,-0.159,0.942,-0.103
45.58,-0.169,0.945,0.074
45.59,-0.083,0.877,0.151
45.6,-0.363,0.912,-0.056
45.61,-0.333,1.163,-0.138
45.62,-0.153,0.843,-0.057
45.63,-0.271,1.147,0.168
45.64,-0.182,0.763,0.084
45.65,-0.337,1.103,-0.1
45.66,-0.206,0.933,-0.123
45.67,-0.135,1.005,-0.018
45.68,-0.115,1.01,0.128
45.69,-0.213,0.762,0.052
45.7,-0.358,1.103,-0.126
45.71,-0.154,0.858,-0.063
45.72,-0.12,1.242,0.039
45.73,0.027,0.709,0.086
45.74,-0.28,1.001,0.015
45.75,-0.313,1.012,-0.141
45.76,-0.156,0.966,-0.06
45.77,-0.217,1.101,0.064
45.78,-0.05,0.695,0.103
45.79,-0.359,1.172,-0.078
45.8,-0.286,0.801,-0.142
45.81,-0.178,1.172,-0.011
45.82,-0.111,0.823,0.167
45.83,-0.15,0.973,0.072
45.84,-0.324,0.941,-0.123
45.85,-0.218,1.008,-0.099
45.86,-0.122,1.127,0.048
45.87,-0.042,0.742,0.145
45.88,-0.232,1.065,-0.011
45.89,-0.376,0.851,-0.095
45.9,-0.163,1.205,-0.079
45.91,-0.111,0.882,0.065
45.92,-0.159,0.904,0.152
45.93,-0.282,1.02,-0.014
45.94,-0.291,0.96,-0.164
45.95,-0.261,1.028,-0.049
45.96,-0.054,0.812,0.159
45.97,-0.15,1.137,0.102
45.98,-0.323,0.775,-0.136
45.99,-0.264,1.033,-0.099
46.0,-0.216,1.059,0.061
46.01,-0.02,0.92,0.087
46.02,-0.246,0.979,0.089
46.03,-0.315,0.845,-0.142
46.04,-0.282,1.242,-0.048
46.05,-0.094,0.856,-0.015
46.06,-0.046,0.966,0.13
46.07,-0.271,0.844,0.011
46.08,-0.287,1.067,-0.152
46.09,-0.252,1.01,-0.036
46.1,-0.086,0.875,0.109
46.11,-0.179,0.989,0.147
46.12,-0.25,0.862,-0.036
46.13,-0.36,1.206,-0.133
46.14,-0.177,0.823,-0.038
46.15,-0.148,1.078,0.165
46.16,-0.143,0.862,0.108
46.17,-0.311,0.973,-0.131
46.18,-0.253,0.991,-0.116
46.19,-0.124,0.956,0.018
46.2,-0.079,1.09,0.15
46.21,-0.217,0.72,0.018
46.22,-0.395,1.136,-0.126
46.23,-0.132,0.997,-0.05
46.24,-0.154,1.125,0.023
46.25,-0.145,0.77,0.209
46.26,-0.274,0.905,-0.016
46.27,-0.304,1.162,-0.139
46.28,-0.061,0.85,-0.135
46.29,-0.182,1.123,0.117
46.3,-0.07,0.705,0.133
46.31,-0.348,1.159,-0.088
46.32,-0.321,0.915,-0.105
46.33,-0.213,0.986,0.002
46.34,-0.139,1.006,0.219
46.35,-0.11,0.785,0.048
46.36,-0.393,1.138,-0.124
46.37,-0.223,0.792,-0.109
46.38,-0.142,1.303,0.034
46.39,-0.007,0.75,0.145
46.4,-0.248,0.955,0.037
46.41,-0.315,0.932,-0.099
46.42,-0.136,1.05,-0.092
46.43,-0.202,1.051,0.076
46.44,-0.059,0.651,0.176
46.45,-0.303,1.179,-0.015
46.46,-0.268,0.819,-0.179
46.47,-0.316,1.085,-0.027
46.48,-0.015,0.863,0.101
46.49,-0.161,1.0,0.137
46.5,-0.321,0.999,-0.108
46.51,-0.267,0.783,-0.112
46.52,-0.212,1.187,0.025
46.53,-0.03,0.845,0.15
46.54,-0.24,1.067,0.013
46.55,-0.342,0.778,-0.104
46.56,-0.272,1.105,-0.064
46.57,-0.002,1.073,-0.011
46.58,-0.075,0.8,0.114
46.59,-0.276,1.009,0.022
46.6,-0.331,0.866,-0.084
46.61,-0.309,1.109,-0.004
46.62,-0.062,0.828,0.079
46.63,-0.174,1.073,0.143
46.64,-0.292,0.875,-0.053
46.65,-0.291,1.114,-0.181
46.66,-0.185,0.894,0.0
46.67,-0.096,0.994,0.164
46.68,-0.184,0.963,0.081
46.69,-0.359,0.857,-0.126
46.7,-0.227,1.096,-0.131
46.71,-0.146,0.946,0.071
46.72,-0.077,1.037,0.116
46.73,-0.164,0.76,0.011
46.74,-0.371,1.105,-0.161
46.75,-0.222,1.013,-0.032
46.76,-0.075,0.979,0.026
46.77,-0.151,0.911,0.174
46.78,-0.343,0.849,-0.033
46.79,-0.298,1.219,-0.15
46.8,-0.198,0.821,-0.049
46.81,-0.167,1.038,0.119
46.82,-0.094,0.776,0.164
46.83,-0.327,1.112,-0.126
46.84,-0.251,0.931,-0.134
46.85,-0.181,0.918,-0.002
46.86,-0.063,1.124,0.179
46.87,-0.138,0.724,0.012
46.88,-0.385,1.098,-0.107
46.89,-0.249,0.922,-0.03
46.9,-0.088,1.229,0.02
46.91,-0.05,0.712,0.143
46.92,-0.264,0.903,0.01
46.93,-0.332,1.156,-0.104
46.94,-0.127,0.885,-0.119
46.95,-0.129,1.06,0.098
46.96,-0.133,0.707,0.131
46.97,-0.415,1.194,-0.045
46.98,-0.282,0.801,-0.131
46.99,-0.228,1.01,-0.054
47.0,-0.085,1.012,0.189
47.01,-0.112,0.837,0.045
47.02,-0.427,1.055,-0.085
47.03,-0.152,0.783,-0.111
47.04,-0.255,1.336,0.064
47.05,-0.013,0.69,0.125
47.06,-0.256,1.005,0.061
47.07,-0.282,0.913,-0.142
47.08,-0.186,1.043,-0.075
47.09,-0.25,1.102,0.097
47.1,-0.08,0.719,0.141
47.11,-0.288,1.112,-0.022
47.12,-0.277,0.852,-0.137
47.13,-0.306,1.134,-0.066
47.14,-0.023,0.776,0.1
47.15,-0.158,0.986,0.161
47.16,-0.366,0.981,-0.097
47.17,-0.356,0.869,-0.093
47.18,-0.16,1.143,-0.035
47.19,-0.102,0.816,0.167
47.2,-0.233,1.085,0.08
47.21,-0.302,0.803,-0.137
47.22,-0.223,1.096,-0.086
47.23,-0.144,1.028,0.048
47.24,-0.04,0.892,0.14
47.25,-0.245,0.982,0.054
47.26,-0.297,0.856,-0.139
47.27,-0.128,1.267,-0.105
47.28,-0.297,0.816,0.107
47.29,-0.098,0.967,0.151
47.3,-0.27,0.875,-0.033
47.31,-0.297,1.135,-0.173
47.32,-0.216,0.907,-0.104
47.33,-0.073,0.887,0.127
47.34,-0.161,1.054,0.137
47.35,-0.344,0.84,-0.098
47.36,-0.288,1.103,-0.131
47.37,-0.224,0.888,-0.003
47.38,-0.099,1.091,0.173
47.39,-0.178,0.823,0.08
47.4,-0.383,0.988,-0.097
47.41,-0.131,1.096,-0.126
47.42,-0.1,0.966,0.049
47.43,-0.096,0.884,0.189
47.44,-0.271,0.824,-0.011
47.45,-0.305,1.209,-0.127
47.46,-0.198,0.853,-0.133
47.47,-0.13,1.127,0.13
47.48,-0.052,0.74,0.098
47.49,-0.385,1.066,-0.081
47.5,-0.317,0.925,-0.146
47.51,-0.156,0.947,-0.028
47.52,-0.255,1.083,0.119
47.53,-0.193,0.757,0.064
47.54,-0.358,1.126,-0.104
47.55,-0.207,0.828,-0.114
47.56,-0.133,1.227,0.022
47.57,-0.127,0.821,0.133
47.58,-0.25,0.912,0.054
47.59,-0.292,0.999,-0.127
47.6,-0.138,0.952,-0.097
47.61,-0.08,1.136,0.059
47.62,-0.086,0.628,0.123
47.63,-0.334,1.132,-0.036
47.64,-0.274,0.872,-0.126
47.65,-0.175,1.088,-0.069
47.66,-0.491,0.918,0.337
47.67,-0.122,0.837,0.119
47.68,-0.369,1.143,-0.081
47.69,-0.208,0.772,-0.153
47.7,-0.208,1.195,0.011
47.71,-0.025,0.838,0.147
47.72,-0.25,1.038,0.036
47.73,-0.294,0.859,-0.135
47.74,-0.216,1.119,-0.054
47.75,-0.136,1.102,-0.017
47.76,-0.113,0.721,0.168
47.77,-0.297,1.087,0.026
47.78,-0.196,0.889,-0.147
47.79,-0.25,1.182,-0.07
47.8,-0.011,0.718,-0.03
47.81,-0.081,0.982,0.166
47.82,-0.308,1.009,-0.087
47.83,-0.335,0.885,-0.152
47.84,-0.187,1.054,-0.019
47.85,-0.047,0.853,0.162
47.86,-0.183,1.075,0.073
47.87,-0.28,0.817,-0.097
47.88,-0.229,1.123,-0.116
47.89,-0.135,0.962,0.023
47.9,-0.061,0.955,0.147
47.91,-0.217,0.931,0.039
47.92,-0.323,0.897,-0.123
47.93,-0.257,1.233,-0.074
47.94,-0.142,0.824,0.057
47.95,-0.091,0.996,0.157
47.96,-0.281,0.861,-0.006
47.97,-0.29,1.162,-0.17
47.98,-0.245,0.958,-0.076
47.99,-0.105,0.836,0.099
48.0,-0.167,1.014,0.151
48.01,-0.301,0.879,-0.084
48.02,-0.342,1.121,-0.137
48.03,-0.218,0.799,0.005
48.04,-0.103,1.116,0.18
48.05,-0.135,0.845,0.067
48.06,-0.359,0.973,-0.15
48.07,-0.314,1.006,-0.078
48.08,0.013,1.049,0.014
48.09,-0.098,1.02,0.106
48.1,-0.233,0.728,0.041
48.11,-0.33,1.185,-0.141
48.12,-0.16,0.958,-0.036
48.13,-0.11,1.095,0.048
48.14,-0.172,0.75,0.156
48.15,-0.343,0.975,-0.01
48.16,-0.28,1.137,-0.146
48.17,-0.183,0.837,-0.051
48.18,-0.246,1.084,0.105
48.19,-0.145,0.751,0.12
48.2,-0.373,1.163,-0.132
48.21,-0.24,0.833,-0.131
48.22,-0.17,1.11,0.029
48.23,-0.289,0.972,0.302
