t,ax,ay,az
0.0,-0.265,0.818,0.044
0.01,-0.374,1.137,-0.149
0.02,-0.111,0.924,-0.081
0.03,-0.417,1.202,0.168
0.04,-0.102,0.602,0.138
0.05,-0.314,1.05,-0.029
0.06,-0.211,1.002,-0.149
0.07,-0.233,0.994,-0.07
0.08,-0.096,0.93,0.078
0.09,-0.118,0.784,0.145
0.1,-0.396,1.171,-0.132
0.11,-0.253,0.701,-0.111
0.12,-0.187,1.213,0.022
0.13,-0.064,0.889,0.205
0.14,-0.193,0.93,0.053
0.15,-0.357,0.968,-0.125
0.16,-0.19,0.981,-0.047
0.17,-0.109,1.182,0.012
0.18,-0.108,0.653,0.176
0.19,-0.294,1.112,-0.035
0.2,-0.241,0.882,-0.147
0.21,-0.406,1.102,0.016
0.22,-0.12,0.849,0.106
0.23,-0.078,0.927,0.145
0.24,-0.361,1.063,-0.102
0.25,-0.224,0.756,-0.167
0.26,-0.247,1.181,-0.005
0.27,-0.013,0.841,0.171
0.28,-0.194,1.094,0.038
0.29,-0.353,0.82,-0.133
0.3,-0.181,1.263,-0.062
0.31,-0.115,0.89,0.005
0.32,-0.093,0.847,0.168
0.33,-0.314,0.985,0.004
0.34,-0.254,0.979,-0.187
0.35,-0.265,1.041,-0.071
0.36,-0.077,0.763,0.124
0.37,-0.148,1.142,0.177
0.38,-0.337,0.834,-0.138
0.39,-0.354,1.052,-0.093
0.4,-0.234,0.959,0.049
0.41,-0.253,1.001,0.039
0.42,-0.283,1.018,-0.142
0.43,-0.245,1.099,-0.11
0.44,-0.116,0.785,0.131
0.45,-0.165,1.091,0.126
0.46,-0.265,0.832,-0.065
0.47,-0.349,1.143,-0.142
0.48,-0.25,0.864,0.015
0.49,-0.119,1.016,0.178
0.5,-0.125,0.963,0.062
0.51,-0.344,0.9,-0.121
0.52,-0.231,1.102,-0.15
0.53,-0.151,0.948,0.072
0.54,-0.075,1.039,0.107
0.55,-0.226,0.779,0.047
0.56,-0.354,1.14,-0.162
0.57,-0.131,1.025,-0.088
0.58,-0.156,0.991,0.057
0.59,-0.129,0.882,0.19
0.6,-0.32,0.827,-0.065
0.61,-0.283,1.226,-0.137
0.62,-0.166,0.853,-0.069
0.63,-0.134,1.075,0.136
0.64,-0.115,0.79,0.143
0.65,-0.348,1.057,-0.103
0.66,-0.296,0.955,-0.163
0.67,-0.215,0.956,0.029
0.68,-0.148,1.041,0.19
0.69,-0.154,0.719,0.035
0.7,-0.458,1.156,-0.117
0.71,-0.17,0.848,-0.078
0.72,-0.121,1.228,0.059
0.73,-0.082,0.746,0.147
0.74,-0.236,0.925,-0.003
0.75,-0.361,1.099,-0.129
0.76,-0.16,0.94,-0.031
0.77,-0.177,1.117,0.095
0.78,-0.119,0.645,0.106
0.79,-0.375,1.191,-0.065
0.8,-0.187,0.858,-0.174
0.81,-0.244,1.019,0.004
0.82,-0.085,0.9,0.222
0.83,-0.163,0.91,0.084
0.84,-0.367,1.047,-0.154
0.85,-0.191,0.845,-0.098
0.86,-0.136,1.273,0.042
0.87,-0.034,0.704,0.14
0.88,-0.312,1.036,0.01
0.89,-0.313,0.925,-0.123
0.9,-0.177,1.063,-0.059
0.91,-0.142,0.991,0.085
0.92,-0.108,0.772,0.173
0.93,-0.303,1.152,-0.081
0.94,-0.322,0.767,-0.121
0.95,-0.223,1.168,-0.026
0.96,-0.111,0.897,0.19
0.97,-0.168,1.024,0.045
0.98,-0.3,0.927,-0.138
0.99,-0.206,1.03,-0.071
1.0,-0.117,1.173,0.02
1.01,-0.001,0.683,0.159
1.02,-0.308,1.078,0.01
1.03,-0.372,0.846,-0.11
1.04,-0.117,1.204,-0.099
1.05,-0.114,0.747,0.119
1.06,-0.123,1.039,0.172
1.07,-0.256,0.904,-0.107
1.08,-0.315,1.041,-0.109
1.09,-0.152,0.989,-0.033
1.1,-0.121,0.894,0.152
1.11,-0.193,1.065,0.083
1.12,-0.353,0.801,-0.122
1.13,-0.242,1.179,-0.131
1.14,-0.11,0.907,0.038
1.15,-0.086,0.974,0.164
1.16,-0.205,0.839,-0.011
1.17,-0.367,1.005,-0.113
1.18,-0.165,1.118,-0.088
1.19,-0.116,0.866,0.09
1.2,-0.128,1.003,0.115
1.21,-0.303,0.846,-0.034
1.22,-0.294,1.228,-0.182
1.23,-0.173,0.88,-0.079
1.24,-0.178,0.979,0.151
1.25,-0.149,0.906,0.129
1.26,-0.354,0.923,-0.131
1.27,-0.283,1.108,-0.134
1.28,-0.131,0.93,0.063
1.29,-0.053,1.048,0.098
1.3,-0.198,0.71,0.017
1.31,-0.336,1.144,-0.132
1.32,-0.184,1.051,-0.059
1.33,-0.191,1.016,0.075
1.34,-0.112,0.845,0.154
1.35,-0.332,0.865,-0.035
1.36,-0.327,1.161,-0.139
1.37,-0.166,0.833,-0.046
1.38,-0.154,1.14,0.136
1.39,-0.147,0.774,0.092
1.4,-0.355,1.056,-0.09
1.41,-0.218,0.903,-0.166
1.42,-0.205,1.008,0.036
1.43,-0.068,1.001,0.164
1.44,-0.175,0.751,0.056
1.45,-0.4,1.14,-0.136
1.46,-0.185,0.906,-0.073
1.47,-0.123,1.248,0.03
1.48,-0.158,0.717,0.165
1.49,-0.28,0.947,0.014
1.5,-0.286,1.051,-0.157
1.51,-0.064,0.992,-0.085
1.52,-0.166,1.096,0.107
1.53,-0.072,0.65,0.12
1.54,-0.367,1.184,-0.063
1.55,-0.206,0.836,-0.206
1.56,-0.193,1.123,0.012
1.57,-0.126,0.893,0.117
1.58,-0.093,0.933,0.073
1.59,-0.331,1.074,-0.177
1.6,-0.18,0.808,-0.114
1.61,-0.172,1.235,0.094
1.62,-0.034,0.704,0.107
1.63,-0.288,1.049,0.016
1.64,-0.291,0.915,-0.142
1.65,-0.282,1.1,-0.014
1.66,-0.181,0.939,0.089
1.67,-0.118,0.802,0.155
1.68,-0.332,1.131,-0.069
1.69,-0.339,0.757,-0.1
1.7,-0.162,1.155,-0.008
1.71,-0.047,0.884,0.196
1.72,-0.176,1.037,0.044
1.73,-0.343,0.84,-0.158
1.74,-0.196,1.05,-0.063
1.75,-0.151,1.123,-0.004
1.76,-0.072,0.692,0.182
1.77,-0.258,1.121,0.036
1.78,-0.367,0.838,-0.141
1.79,-0.178,1.132,-0.113
1.8,-0.388,0.841,0.3
1.81,-0.142,0.975,0.129
1.82,-0.311,0.97,-0.076
1.83,-0.243,0.889,-0.169
1.84,-0.223,1.09,-0.024
1.85,-0.065,0.802,0.154
1.86,-0.175,1.112,0.092
1.87,-0.302,0.82,-0.141
1.88,-0.309,1.187,-0.067
1.89,-0.07,0.939,0.035
1.9,-0.064,1.019,0.133
1.91,-0.237,0.805,-0.029
1.92,-0.274,1.048,-0.15
1.93,-0.142,1.11,-0.071
1.94,-0.11,0.773,0.055
1.95,-0.131,0.989,0.176
1.96,-0.368,0.849,-0.069
1.97,-0.304,1.214,-0.166
1.98,-0.221,0.784,-0.024
1.99,-0.076,1.01,0.152
2.0,-0.162,0.937,0.107
2.01,-0.321,0.902,-0.159
2.02,-0.214,1.081,-0.136
2.03,-0.335,0.966,0.227
2.04,-0.059,1.049,0.135
2.05,-0.213,0.735,0.013
2.06,-0.384,1.214,-0.179
2.07,-0.089,0.981,-0.054
2.08,-0.121,0.999,-0.007
2.09,-0.143,0.784,0.125
2.1,-0.379,0.938,-0.029
2.11,-0.224,1.206,-0.185
2.12,-0.158,0.802,-0.034
2.13,-0.187,1.076,0.192
2.14,-0.094,0.759,0.144
2.15,-0.362,1.143,-0.17
2.16,-0.258,0.901,-0.144
2.17,-0.135,1.063,0.069
2.18,-0.102,0.98,0.169
2.19,-0.237,0.77,0.004
2.2,-0.353,1.173,-0.135
2.21,-0.079,0.886,-0.118
2.22,-0.228,1.135,0.089
2.23,-0.018,0.71,0.162
2.24,-0.323,1.087,-0.059
2.25,-0.311,0.943,-0.147
2.26,-0.181,0.947,-0.08
2.27,-0.145,1.114,0.208
2.28,-0.078,0.728,0.052
2.29,-0.39,1.151,-0.109
2.3,-0.216,0.8,-0.123
2.31,-0.162,1.204,-0.022
2.32,-0.015,0.777,0.114
2.33,-0.251,0.907,0.046
2.34,-0.324,1.086,-0.138
2.35,-0.119,1.002,-0.112
2.36,-0.215,1.102,0.071
2.37,-0.059,0.609,0.146
2.38,-0.368,1.155,-0.006
2.39,-0.237,0.882,-0.193
2.4,-0.218,1.057,-0.043
2.41,-0.154,0.914,0.113
2.42,-0.078,0.88,0.101
2.43,-0.405,1.061,-0.129
2.44,-0.205,0.757,-0.121
2.45,-0.457,1.301,0.099
2.46,-0.047,0.741,0.111
2.47,-0.221,1.007,0.046
2.48,-0.334,0.908,-0.147
2.49,-0.12,1.07,-0.097
2.5,-0.17,1.021,0.055
2.51,-0.063,0.729,0.138
2.52,-0.319,1.137,-0.012
2.53,-0.299,0.842,-0.158
2.54,-0.211,1.139,-0.015
2.55,-0.15,0.825,0.11
2.56,-0.121,1.019,0.123
2.57,-0.29,0.959,-0.16
2.58,-0.239,0.883,-0.145
2.59,-0.256,1.106,0.023
2.6,-0.01,0.813,0.185
2.61,-0.247,1.083,0.052
2.62,-0.287,0.781,-0.174
2.63,-0.263,1.219,-0.032
2.64,-0.091,0.94,0.047
2.65,-0.087,0.867,0.183
2.66,-0.297,0.971,-0.043
2.67,-0.224,0.959,-0.17
2.68,-0.188,0.974,-0.071
2.69,-0.131,0.833,0.184
2.7,-0.195,1.106,0.124
2.71,-0.32,0.792,-0.141
2.72,-0.24,1.172,-0.101
2.73,-0.196,0.958,0.079
2.74,-0.036,0.952,0.111
2.75,-0.227,0.87,0.074
2.76,-0.282,1.006,-0.191
2.77,-0.275,1.192,-0.018
2.78,-0.094,0.821,0.029
2.79,-0.153,0.969,0.18
2.8,-0.28,0.802,-0.037
2.81,-0.288,1.198,-0.177
2.82,-0.205,0.858,-0.034
2.83,-0.086,1.014,0.122
2.84,-0.103,0.906,0.11
2.85,-0.404,0.917,-0.124
2.86,-0.204,1.084,-0.102
2.87,-0.044,0.877,-0.025
2.88,-0.076,1.089,0.144
2.89,-0.172,0.746,0.034
2.9,-0.402,1.131,-0.162
2.91,-0.176,0.972,-0.047
2.92,-0.167,1.011,0.044
2.93,-0.132,0.844,0.168
2.94,-0.295,0.871,-0.021
2.95,-0.318,1.197,-0.184
2.96,-0.135,0.813,-0.075
2.97,-0.115,1.129,0.147
2.98,-0.118,0.793,0.133
2.99,-0.425,1.043,-0.101
3.0,-0.181,0.907,-0.153
3.01,-0.199,1.064,0.061
3.02,-0.04,0.975,0.107
3.03,-0.218,0.765,0.063
3.04,-0.37,1.185,-0.16
3.05,-0.246,0.952,-0.003
3.06,-0.182,1.172,0.065
3.07,-0.042,0.669,0.147
3.08,-0.311,1.016,-0.023
3.09,-0.339,1.023,-0.144
3.1,-0.198,0.872,-0.024
3.11,-0.133,1.132,0.127
3.12,-0.155,0.708,0.102
3.13,-0.406,1.146,-0.101
3.14,-0.253,0.805,-0.11
3.15,-0.144,1.201,-0.028
3.16,0.02,0.871,0.132
3.17,-0.244,0.864,0.035
3.18,-0.344,1.054,-0.14
3.19,-0.206,0.93,-0.065
3.2,-0.159,1.234,0.036
3.21,-0.065,0.626,0.125
3.22,-0.351,1.112,0.002
3.23,-0.242,0.91,-0.131
3.24,-0.136,1.098,-0.047
3.25,-0.132,0.912,0.128
3.26,-0.173,0.794,0.156
3.27,-0.333,1.167,-0.097
3.28,-0.224,0.857,-0.178
3.29,-0.217,1.098,-0.026
3.3,-0.054,0.756,0.195
3.31,-0.23,1.07,0.117
3.32,-0.372,0.865,-0.167
3.33,-0.154,0.937,-0.111
3.34,-0.116,1.156,0.084
3.35,-0.106,0.724,0.164
3.36,-0.288,1.078,0.017
3.37,-0.29,0.862,-0.141
3.38,-0.094,1.195,-0.146
3.39,-0.131,0.791,0.115
3.4,-0.12,0.934,0.187
3.41,-0.305,1.003,-0.116
3.42,-0.237,0.917,-0.106
3.43,-0.229,1.172,-0.021
3.44,-0.04,0.795,0.145
3.45,-0.202,1.08,0.061
3.46,-0.335,0.867,-0.161
3.47,-0.282,1.148,-0.056
3.48,-0.048,0.954,0.031
3.49,-0.144,0.882,0.172
3.5,-0.266,0.857,-0.041
3.51,-0.295,1.055,-0.143
3.52,-0.261,1.069,-0.043
3.53,-0.157,0.819,0.104
3.54,-0.184,1.04,0.13
3.55,-0.313,0.832,-0.119
3.56,-0.301,1.104,-0.13
3.57,-0.454,0.921,0.212
3.58,-0.003,1.047,0.122
3.59,-0.2,0.865,0.033
3.6,-0.335,0.939,-0.175
3.61,-0.229,1.184,-0.08
3.62,-0.068,0.879,0.011
3.63,-0.171,0.952,0.172
3.64,-0.235,0.829,-0.021
3.65,-0.282,1.244,-0.155
3.66,-0.07,0.868,-0.137
3.67,-0.105,0.97,0.136
3.68,-0.16,0.938,0.169
3.69,-0.353,0.925,-0.112
3.7,-0.304,1.049,-0.15
3.71,-0.201,0.866,0.04
3.72,-0.06,1.126,0.154
3.73,-0.166,0.748,0.028
3.74,-0.427,1.076,-0.168
3.75,-0.204,0.983,-0.035
3.76,-0.005,1.094,0.01
3.77,-0.144,0.894,0.135
3.78,-0.305,0.806,-0.017
3.79,-0.296,1.225,-0.132
3.8,-0.144,0.834,-0.063
3.81,-0.202,1.065,0.093
3.82,-0.133,0.763,0.174
3.83,-0.406,1.077,-0.106
3.84,-0.245,0.927,-0.149
3.85,-0.16,1.014,0.006
3.86,-0.073,1.017,0.109
3.87,-0.163,0.686,0.054
3.88,-0.386,1.189,-0.159
3.89,-0.159,0.896,-0.034
3.9,-0.132,1.147,0.03
3.91,-0.101,0.757,0.188
3.92,-0.287,0.983,0.005
3.93,-0.297,1.074,-0.202
3.94,-0.225,0.848,-0.02
3.95,-0.212,1.147,0.156
3.96,-0.097,0.714,0.117
3.97,-0.424,1.209,-0.106
3.98,-0.245,0.789,-0.131
3.99,-0.178,1.131,-0.006
4.0,-0.048,0.961,0.192
4.01,-0.197,0.827,0.043
4.02,-0.346,1.043,-0.16
4.03,-0.22,0.947,-0.021
4.04,-0.13,1.232,0.001
4.05,-0.063,0.592,0.164
4.06,-0.285,1.078,0.014
4.07,-0.314,0.954,-0.17
4.08,-0.19,1.036,-0.099
4.09,-0.133,0.924,0.128
4.1,-0.11,0.753,0.161
4.11,-0.369,1.176,-0.073
4.12,-0.294,0.767,-0.143
4.13,-0.229,1.149,-0.019
4.14,-0.06,0.84,0.216
4.15,-0.174,1.021,0.052
4.16,-0.342,0.896,-0.169
4.17,-0.28,0.97,-0.06
4.18,-0.073,1.168,0.025
4.19,-0.053,0.693,0.152
4.2,-0.308,1.097,0.024
4.21,-0.337,0.828,-0.152
4.22,-0.221,1.197,-0.045
4.23,-0.114,0.806,0.078
4.24,-0.152,0.9,0.157
4.25,-0.267,1.03,-0.049
4.26,-0.217,0.923,-0.176
4.27,-0.261,1.088,-0.018
4.28,-0.117,0.793,0.178
4.29,-0.162,1.084,0.091
4.3,-0.326,0.864,-0.15
4.31,-0.22,1.173,-0.11
4.32,-0.072,0.895,0.003
4.33,-0.025,1.031,0.141
4.34,-0.317,0.873,-0.015
4.35,-0.364,0.958,-0.112
4.36,-0.179,1.146,-0.058
4.37,-0.144,0.829,0.062
4.38,-0.165,0.975,0.144
4.39,-0.286,0.87,-0.077
4.4,-0.298,1.195,-0.156
4.41,-0.267,0.844,0.014
4.42,-0.116,0.988,0.187
4.43,-0.129,0.907,0.071
4.44,-0.403,0.92,-0.116
4.45,-0.153,1.113,-0.136
4.46,-0.21,0.966,0.083
4.47,-0.089,1.003,0.129
4.48,-0.25,0.767,0.001
4.49,-0.335,1.195,-0.169
4.5,-0.145,0.981,-0.08
4.51,-0.144,0.93,0.113
4.52,-0.13,0.862,0.133
4.53,-0.339,0.895,-0.057
4.54,-0.288,1.172,-0.155
4.55,-0.131,0.827,-0.031
4.56,-0.181,1.116,0.162
4.57,-0.136,0.76,0.079
4.58,-0.404,1.098,-0.126
4.59,-0.174,0.966,-0.136
4.6,-0.159,1.073,0.04
4.61,-0.128,0.987,0.207
4.62,-0.239,0.733,-0.02
4.63,-0.361,1.153,-0.132
4.64,-0.108,0.899,-0.061
4.65,-0.169,1.165,0.103
4.66,-0.086,0.688,0.131
4.67,-0.339,1.024,-0.042
4.68,-0.239,1.081,-0.151
4.69,-0.315,0.906,-0.011
4.7,-0.147,1.047,0.156
4.71,-0.144,0.735,0.11
4.72,-0.364,1.187,-0.158
4.73,-0.243,0.838,-0.125
4.74,-0.214,1.176,0.072
4.75,-0.025,0.853,0.174
4.76,-0.219,0.902,-0.014
4.77,-0.372,1.032,-0.162
4.78,-0.163,0.89,-0.033
4.79,-0.104,1.183,0.104
4.8,-0.107,0.659,0.128
4.81,-0.384,1.125,-0.031
4.82,-0.215,0.907,-0.149
4.83,-0.208,1.069,-0.061
4.84,-0.184,0.899,0.194
4.85,-0.137,0.817,0.118
4.86,-0.349,1.138,-0.128
4.87,-0.25,0.781,-0.115
4.88,-0.162,1.226,0.03
4.89,-0.045,0.793,0.194
4.9,-0.243,1.033,0.016
4.91,-0.353,0.885,-0.17
4.92,-0.206,1.022,-0.08
4.93,-0.291,1.087,0.175
4.94,-0.122,0.729,0.109
4.95,-0.339,1.094,-0.055
4.96,-0.19,0.844,-0.105
4.97,-0.197,1.225,-0.04
4.98,-0.173,0.743,0.117
4.99,-0.082,0.954,0.118
5.0,-0.31,1.048,-0.144
5.01,-0.296,0.884,-0.145
5.02,-0.278,1.128,0.122
5.03,0.034,0.747,0.115
5.04,-0.273,1.065,0.04
5.05,-0.319,0.819,-0.148
5.06,-0.193,1.204,-0.048
5.07,-0.115,0.903,0.047
5.08,-0.082,0.848,0.166
5.09,-0.304,1.051,-0.065
5.1,-0.226,0.89,-0.176
5.11,-0.227,1.089,-0.039
5.12,-0.091,0.788,0.143
5.13,-0.221,1.052,0.113
5.14,-0.328,0.798,-0.109
5.15,-0.274,1.15,-0.106
5.16,-0.099,0.98,0.08
5.17,-0.05,0.973,0.132
5.18,-0.238,0.87,0.009
5.19,-0.318,1.004,-0.121
5.2,-0.186,1.193,-0.021
5.21,-0.129,0.798,0.063
5.22,-0.128,0.937,0.14
5.23,-0.249,0.878,-0.02
5.24,-0.35,1.2,-0.169
5.25,-0.2,0.827,-0.06
5.26,-0.095,0.981,0.155
5.27,-0.169,0.969,0.115
5.28,-0.307,0.9,-0.147
5.29,-0.329,1.039,-0.087
5.3,-0.154,0.913,0.085
5.31,-0.111,1.164,0.142
5.32,-0.203,0.725,0.038
5.33,-0.354,1.097,-0.147
5.34,-0.226,1.07,-0.017
5.35,-0.06,1.042,0.022
5.36,-0.166,0.853,0.162
5.37,-0.287,0.831,-0.032
5.38,-0.298,1.237,-0.152
5.39,-0.084,0.84,-0.064
5.4,-0.234,1.111,0.133
5.41,-0.113,0.738,0.118
5.42,-0.376,1.092,-0.076
5.43,-0.233,0.913,-0.135
5.44,-0.12,0.963,-0.019
5.45,-0.092,1.114,0.198
5.46,-0.211,0.718,0.022
5.47,-0.431,1.111,-0.171
5.48,-0.118,0.894,-0.059
5.49,-0.153,1.267,0.083
5.5,-0.067,0.669,0.138
5.51,-0.307,0.962,0.003
5.52,-0.226,1.098,-0.162
5.53,-0.288,0.928,0.01
5.54,-0.156,1.053,0.108
5.55,-0.132,0.718,0.122
5.56,-0.426,1.197,-0.073
5.57,-0.241,0.846,-0.137
5.58,-0.204,1.122,-0.022
5.59,0.009,0.868,0.107
5.6,-0.158,0.893,0.058
5.61,-0.392,1.09,-0.138
5.62,-0.147,0.825,-0.104
5.63,-0.184,1.273,0.055
5.64,-0.101,0.736,0.165
5.65,-0.315,1.031,-0.011
5.66,-0.348,0.886,-0.145
5.67,-0.108,1.092,-0.076
5.68,-0.327,0.993,0.317
5.69,-0.132,0.768,0.157
5.7,-0.361,1.167,-0.083
5.71,-0.23,0.811,-0.165
5.72,-0.137,1.184,-0.042
5.73,-0.115,0.82,0.164
5.74,-0.129,1.024,0.057
5.75,-0.329,0.919,-0.166
5.76,-0.245,0.94,-0.09
5.77,-0.159,1.152,0.079
5.78,0.005,0.775,0.157
5.79,-0.295,1.089,-0.03
5.8,-0.302,0.793,-0.128
5.81,-0.211,1.205,-0.047
5.82,-0.093,0.858,0.093
5.83,-0.069,0.928,0.101
5.84,-0.348,1.019,-0.093
5.85,-0.288,0.913,-0.113
5.86,-0.172,1.121,-0.034
5.87,-0.081,0.773,0.16
5.88,-0.153,1.091,0.078
5.89,-0.326,0.855,-0.168
5.9,-0.246,1.066,-0.106
5.91,-0.184,0.995,0.071
5.92,-0.008,0.959,0.14
5.93,-0.283,0.979,-0.011
5.94,-0.328,1.006,-0.131
5.95,-0.091,1.166,-0.069
5.96,-0.134,0.852,0.082
5.97,-0.17,0.974,0.136
5.98,-0.276,0.852,-0.076
5.99,-0.312,1.192,-0.148
6.0,-0.203,0.852,-0.032
6.01,-0.089,1.019,0.206
6.02,-0.143,0.9,0.042
6.03,-0.375,0.933,-0.174
6.04,-0.268,1.182,-0.055
6.05,-0.062,0.932,0.025
6.06,-0.148,0.965,0.133
6.07,-0.25,0.773,0.021
6.08,-0.317,1.215,-0.153
6.09,-0.259,0.957,0.032
6.1,-0.142,0.962,0.093
6.11,-0.127,0.875,0.161
6.12,-0.293,0.907,-0.082
6.13,-0.33,1.141,-0.134
6.14,-0.254,0.821,-0.001
6.15,-0.147,1.114,0.175
6.16,-0.182,0.803,0.073
6.17,-0.365,1.077,-0.143
6.18,-0.196,0.945,-0.151
6.19,-0.139,1.086,0.054
6.2,-0.079,0.97,0.133
6.21,-0.206,0.749,-0.018
6.22,-0.396,1.191,-0.106
6.23,-0.116,0.916,-0.022
6.24,-0.152,1.135,0.065
6.25,-0.148,0.706,0.132
6.26,-0.355,1.036,-0.047
6.27,-0.221,1.054,-0.148
6.28,-0.304,0.927,-0.029
6.29,-0.147,1.006,0.127
6.3,-0.073,0.755,0.133
6.31,-0.385,1.181,-0.153
6.32,-0.243,0.797,-0.131
6.33,-0.239,1.205,0.062
6.34,0.008,0.832,0.129
6.35,-0.267,0.882,-0.037
6.36,-0.393,1.045,-0.138
6.37,-0.15,0.938,-0.05
6.38,-0.16,1.185,0.052
6.39,-0.11,0.634,0.143
6.4,-0.304,1.138,-0.038
6.41,-0.238,0.861,-0.164
6.42,-0.185,1.042,-0.089
6.43,-0.144,0.919,0.134
6.44,-0.135,0.877,0.135
6.45,-0.355,1.1,-0.128
6.46,-0.262,0.777,-0.129
6.47,-0.225,1.237,0.034
6.48,-0.001,0.773,0.137
6.49,-0.229,1.035,0.027
6.5,-0.334,0.86,-0.145
6.51,-0.176,1.065,-0.051
6.52,-0.152,1.079,0.063
6.53,-0.107,0.691,0.129
6.54,-0.324,1.08,0.002
6.55,-0.273,0.868,-0.126
6.56,-0.231,1.204,-0.082
6.57,-0.131,0.758,0.103
6.58,-0.102,0.979,0.142
6.59,-0.283,0.994,-0.11
6.6,-0.333,0.92,-0.123
6.61,-0.177,1.079,0.0
6.62,-0.022,0.839,0.161
6.63,-0.211,1.095,0.02
6.64,-0.363,0.808,-0.156
6.65,-0.201,1.174,-0.082
6.66,-0.042,0.956,-0.003
6.67,-0.073,0.853,0.147
6.68,-0.303,0.975,-0.033
6.69,-0.267,0.944,-0.157
6.7,-0.228,1.111,-0.051
6.71,-0.09,0.778,0.078
6.72,-0.169,1.089,0.157
6.73,-0.315,0.872,-0.102
6.74,-0.281,1.058,-0.152
6.75,-0.206,0.948,-0.001
6.76,-0.01,1.051,0.142
6.77,-0.184,0.824,0.059
6.78,-0.348,0.99,-0.161
6.79,-0.22,1.14,-0.068
6.8,-0.094,0.923,0.032
6.81,-0.128,0.959,0.154
6.82,-0.245,0.806,-0.036
6.83,-0.384,1.258,-0.138
6.84,-0.188,0.863,-0.066
6.85,-0.094,0.994,0.087
6.86,-0.138,0.889,0.148
6.87,-0.329,0.912,-0.119
6.88,-0.344,1.041,-0.076
6.89,-0.16,0.89,-0.003
6.9,-0.138,1.166,0.156
6.91,-0.17,0.775,0.086
6.92,-0.421,1.081,-0.131
6.93,-0.168,0.946,-0.107
6.94,-0.277,1.165,0.008
6.95,-0.064,0.85,0.124
6.96,-0.213,0.814,-0.028
6.97,-0.33,1.222,-0.143
6.98,-0.192,0.905,-0.02
6.99,-0.158,1.112,0.102
7.0,-0.059,0.681,0.169
7.01,-0.347,1.087,-0.076
7.02,-0.333,0.924,-0.16
7.03,-0.186,0.921,-0.044
7.04,-0.138,1.107,0.168
7.05,-0.105,0.753,0.085
7.06,-0.402,1.168,-0.148
7.07,-0.151,0.789,-0.108
7.08,-0.227,1.266,0.05
7.09,-0.038,0.787,0.174
7.1,-0.226,0.961,-0.012
7.11,-0.362,0.969,-0.147
7.12,-0.153,0.974,-0.066
7.13,-0.149,1.175,0.076
7.14,-0.065,0.655,0.152
7.15,-0.331,1.106,-0.037
7.16,-0.291,0.856,-0.141
7.17,-0.286,1.162,-0.036
7.18,-0.096,0.862,0.14
7.19,-0.149,0.861,0.097
7.2,-0.259,1.102,-0.103
7.21,-0.253,0.877,-0.129
7.22,-0.201,1.161,-0.001
7.23,-0.072,0.816,0.206
7.24,-0.174,1.085,0.028
7.25,-0.389,0.812,-0.149
7.26,-0.144,1.077,-0.095
7.27,-0.079,1.076,0.068
7.28,-0.139,0.77,0.153
7.29,-0.265,1.034,-0.001
7.3,-0.278,0.874,-0.168
7.31,-0.098,1.228,-0.068
7.32,-0.083,0.743,0.05
7.33,-0.132,0.983,0.136
7.34,-0.314,0.962,-0.086
7.35,-0.28,1.018,-0.171
7.36,-0.216,0.991,0.015
7.37,-0.103,0.839,0.2
7.38,-0.202,1.095,0.037
7.39,-0.376,0.796,-0.119
7.4,-0.204,1.168,-0.147
7.41,-0.105,0.911,0.093
7.42,-0.031,0.947,0.117
7.43,-0.222,0.917,-0.006
7.44,-0.34,0.985,-0.139
7.45,-0.236,1.133,-0.044
7.46,-0.12,0.792,0.082
7.47,-0.154,1.028,0.171
7.48,-0.275,0.848,-0.108
7.49,-0.308,1.144,-0.128
7.5,-0.175,0.884,-0.011
7.51,-0.12,0.956,0.16
7.52,-0.191,0.996,0.115
7.53,-0.331,0.877,-0.167
7.54,-0.259,1.114,-0.095
7.55,-0.088,0.94,0.054
7.56,-0.113,1.062,0.137
7.57,-0.214,0.751,-0.012
7.58,-0.296,1.272,-0.15
7.59,-0.142,0.857,-0.104
7.6,-0.166,1.0,0.122
7.61,-0.111,0.829,0.173
7.62,-0.381,0.998,-0.083
7.63,-0.284,1.03,-0.115
7.64,-0.136,0.906,-0.027
7.65,-0.144,1.148,0.182
7.66,-0.137,0.735,0.066
7.67,-0.408,1.13,-0.122
7.68,-0.197,0.894,-0.103
7.69,-0.206,1.151,0.051
7.7,-0.111,0.874,0.206
7.71,-0.272,0.815,-0.015
7.72,-0.379,1.115,-0.145
7.73,-0.066,0.928,-0.056
7.74,-0.218,1.185,0.123
7.75,-0.083,0.628,0.118
7.76,-0.388,1.111,-0.058
7.77,-0.238,0.948,-0.138
7.78,-0.228,0.995,-0.019
7.79,-0.146,0.947,0.186
7.8,-0.167,0.819,0.088
7.81,-0.325,1.16,-0.175
7.82,-0.244,0.776,-0.091
7.83,-0.154,1.216,0.034
7.84,-0.057,0.819,0.197
7.85,-0.308,0.969,0.0
7.86,-0.307,0.936,-0.152
7.87,-0.151,1.028,-0.046
7.88,-0.113,1.108,0.056
7.89,-0.164,0.679,0.15
7.9,-0.342,1.141,-0.058
7.91,-0.158,0.865,-0.153
7.92,-0.232,1.134,-0.023
7.93,-0.097,0.772,0.162
7.94,-0.121,0.977,0.134
7.95,-0.36,1.031,-0.178
7.96,-0.235,0.849,-0.097
7.97,-0.213,1.252,0.04
7.98,-0.065,0.738,0.148
7.99,-0.29,1.08,0.02
8.0,-0.319,0.842,-0.153
8.01,-0.118,1.148,-0.06
8.02,-0.16,0.897,0.07
8.03,-0.115,0.815,0.147
8.04,-0.335,1.075,-0.075
8.05,-0.232,0.853,-0.157
8.06,-0.112,1.124,-0.071
8.07,-0.096,0.743,0.148
8.08,-0.146,1.045,0.108
8.09,-0.312,0.91,-0.167
8.1,-0.268,0.977,-0.087
8.11,-0.163,1.034,0.043
8.12,-0.014,0.889,0.122
8.13,-0.285,1.002,0.014
8.14,-0.338,0.804,-0.138
8.15,-0.096,1.273,-0.039
8.16,-0.096,0.806,0.037
8.17,-0.15,0.958,0.151
8.18,-0.242,0.932,-0.073
8.19,-0.243,1.084,-0.161
8.2,-0.193,1.007,-0.023
8.21,-0.133,0.819,0.186
8.22,-0.152,1.084,0.044
8.23,-0.403,0.799,-0.118
8.24,-0.226,1.149,-0.111
8.25,-0.378,0.976,0.071
8.26,-0.101,0.877,0.091
8.27,-0.188,0.914,-0.006
8.28,-0.325,1.014,-0.152
8.29,-0.175,1.1,-0.081
8.3,-0.125,0.741,0.079
8.31,-0.114,1.022,0.186
8.32,-0.293,0.888,-0.121
8.33,-0.293,1.095,-0.115
8.34,-0.208,0.93,-0.024
8.35,-0.108,0.998,0.172
8.36,-0.145,0.93,0.047
8.37,-0.357,0.874,-0.126
8.38,-0.185,1.215,-0.044
8.39,-0.132,0.956,0.009
8.4,-0.13,0.866,0.201
8.41,-0.248,0.807,-0.003
8.42,-0.336,1.283,-0.166
8.43,-0.111,0.823,-0.112
8.44,-0.108,1.016,0.113
8.45,-0.134,0.867,0.16
8.46,-0.321,0.977,-0.128
8.47,-0.388,1.025,-0.101
8.48,-0.185,0.888,0.003
8.49,-0.067,1.173,0.19
8.5,-0.183,0.733,0.048
8.51,-0.388,1.092,-0.12
8.52,-0.141,0.953,-0.073
8.53,-0.049,1.143,0.034
8.54,-0.1,0.774,0.136
8.55,-0.301,0.86,0.013
8.56,-0.32,1.203,-0.168
8.57,-0.149,0.832,-0.068
8.58,-0.166,1.073,0.144
8.59,-0.069,0.722,0.139
8.6,-0.39,1.143,-0.101
8.61,-0.231,0.885,-0.145
8.62,-0.2,1.021,-0.025
8.63,-0.079,1.005,0.207
8.64,-0.17,0.801,0.042
8.65,-0.406,1.118,-0.122
8.66,-0.176,0.893,-0.043
8.67,-0.057,1.265,0.016
8.68,-0.081,0.687,0.159
8.69,-0.252,1.011,-0.015
8.7,-0.376,1.015,-0.096
8.71,-0.135,0.958,-0.088
8.72,-0.159,1.037,0.138
8.73,-0.114,0.717,0.14
8.74,-0.331,1.157,-0.11
8.75,-0.165,0.94,0.085
8.76,-0.111,1.009,0.151
8.77,-0.205,0.822,0.044
8.78,-0.384,1.014,-0.107
8.79,-0.096,1.151,-0.131
8.8,-0.101,0.875,0.05
8.81,-0.124,0.964,0.166
8.82,-0.275,0.79,-0.018
8.83,-0.326,1.234,-0.172
8.84,-0.193,0.855,-0.035
8.85,-0.173,1.0,0.112
8.86,-0.16,0.894,0.158
8.87,-0.32,0.945,-0.116
8.88,-0.25,1.044,-0.16
8.89,-0.201,0.912,0.053
8.9,-0.103,1.121,0.22
8.91,-0.172,0.71,0.039
8.92,-0.415,1.1,-0.145
8.93,-0.199,0.995,-0.063
8.94,-0.129,1.104,0.053
8.95,-0.135,0.76,0.148
8.96,-0.292,0.849,0.002
8.97,-0.323,1.215,-0.161
8.98,-0.249,0.855,-0.034
8.99,-0.165,1.096,0.116
9.0,-0.106,0.77,0.146
9.01,-0.341,1.064,-0.11
9.02,-0.257,0.883,-0.16
9.03,-0.163,1.037,0.011
9.04,-0.119,1.024,0.138
9.05,-0.213,0.74,0.043
9.06,-0.345,1.157,-0.141
9.07,-0.191,0.905,-0.082
9.08,-0.232,1.232,0.148
9.09,-0.096,0.706,0.162
9.1,-0.331,1.112,-0.037
9.11,-0.283,0.913,-0.139
9.12,-0.142,1.066,-0.056
9.13,-0.151,0.952,0.135
9.14,-0.152,0.802,0.105
9.15,-0.324,1.125,-0.136
9.16,-0.344,0.786,-0.119
9.17,-0.225,1.274,0.066
9.18,0.018,0.773,0.132
9.19,-0.267,0.999,0.028
9.2,-0.291,0.905,-0.148
9.21,-0.181,1.076,-0.08
9.22,-0.066,1.062,-0.008
9.23,-0.132,0.722,0.171
9.24,-0.316,1.093,-0.04
9.25,-0.226,0.888,-0.15
9.26,-0.168,1.156,-0.092
9.27,-0.131,0.79,0.157
9.28,-0.137,1.007,0.132
9.29,-0.358,1.024,-0.139
9.3,-0.242,0.876,-0.109
9.31,-0.31,1.179,0.057
9.32,0.025,0.75,0.121
9.33,-0.267,1.085,0.034
9.34,-0.332,0.8,-0.149
9.35,-0.226,1.212,-0.052
9.36,-0.031,0.912,0.052
9.37,-0.133,0.851,0.164
9.38,-0.267,1.018,-0.051
9.39,-0.3,0.922,-0.132
9.4,-0.202,1.147,-0.065
9.41,-0.102,0.783,0.144
9.42,-0.104,1.077,0.094
9.43,-0.363,0.867,-0.098
9.44,-0.235,1.071,-0.117
9.45,-0.204,1.046,0.054
9.46,-0.032,0.843,0.136
9.47,-0.207,1.009,0.045
9.48,-0.329,0.873,-0.163
9.49,-0.266,1.209,-0.046
9.5,-0.13,0.821,0.037
9.51,-0.13,0.969,0.157
9.52,-0.257,0.869,-0.03
9.53,-0.264,1.083,-0.178
9.54,-0.206,0.991,-0.038
9.55,-0.148,0.826,0.155
9.56,-0.147,1.034,0.13
9.57,-0.324,0.839,-0.151
9.58,-0.294,1.118,-0.088
9.59,-0.135,0.88,0.045
9.6,-0.095,1.094,0.165
9.61,-0.199,0.815,0.041
9.62,-0.356,0.99,-0.163
9.63,-0.194,1.121,-0.049
9.64,-0.077,0.908,0.045
9.65,-0.105,1.003,0.172
9.66,-0.294,0.81,-0.05
9.67,-0.323,1.216,-0.173
9.68,-0.159,0.856,-0.066
9.69,-0.162,0.994,0.108
9.7,-0.161,0.889,0.171
9.71,-0.344,0.938,-0.096
9.72,-0.246,1.046,-0.126
9.73,-0.208,0.899,0.041
9.74,-0.097,1.101,0.144
9.75,-0.126,0.723,0.005
9.76,-0.428,1.131,-0.149
9.77,-0.18,1.004,-0.046
9.78,-0.169,1.058,0.031
9.79,-0.109,0.792,0.175
9.8,-0.286,0.847,-0.05
9.81,-0.32,1.199,-0.14
9.82,-0.149,0.815,-0.102
9.83,-0.115,1.081,0.131
9.84,-0.094,0.761,0.124
9.85,-0.411,1.093,-0.122
9.86,-0.308,0.859,-0.104
9.87,-0.15,1.042,0.015
9.88,-0.149,1.052,0.177
9.89,-0.11,0.737,0.004
9.9,-0.36,1.147,-0.144
9.91,-0.166,0.947,-0.072
9.92,-0.149,1.21,0.065
9.93,-0.057,0.631,0.138
9.94,-0.351,1.097,-0.019
9.95,-0.293,0.925,-0.152
9.96,-0.136,1.075,-0.075
9.97,-0.132,0.934,0.154
9.98,-0.185,0.79,0.132
9.99,-0.308,1.142,-0.089
10.0,-0.248,0.8,-0.164
10.01,-0.245,1.153,0.02
10.02,-0.036,0.826,0.188
10.03,-0.215,1.041,0.034
10.04,-0.353,0.864,-0.177
10.05,-0.272,0.988,-0.038
10.06,-0.015,1.122,0.05
10.07,-0.144,0.701,0.167
10.08,-0.312,1.05,0.01
10.09,-0.269,0.893,-0.123
10.1,-0.155,1.195,-0.098
10.11,-0.163,0.77,0.145
10.12,-0.118,0.981,0.154
10.13,-0.364,1.017,-0.102
10.14,-0.273,0.844,-0.129
10.15,-0.219,1.142,0.023
10.16,-0.027,0.823,0.167
10.17,-0.163,1.09,0.002
10.18,-0.346,0.806,-0.154
10.19,-0.257,1.141,-0.084
10.2,-0.074,0.977,0.051
10.21,-0.066,0.853,0.129
10.22,-0.285,0.979,-0.012
10.23,-0.288,0.956,-0.124
10.24,-0.323,1.148,0.002
10.25,-0.119,0.775,0.118
10.26,-0.142,1.077,0.136
10.27,-0.33,0.885,-0.116
10.28,-0.282,1.04,-0.153
10.29,-0.192,1.007,-0.016
10.3,-0.082,0.911,0.182
10.31,-0.151,1.027,0.047
10.32,-0.359,0.858,-0.135
10.33,-0.303,1.208,-0.079
10.34,-0.087,0.881,0.055
10.35,-0.07,1.008,0.139
10.36,-0.266,0.841,-0.008
10.37,-0.319,1.048,-0.163
10.38,-0.177,1.033,-0.077
10.39,-0.1,0.866,0.13
10.4,-0.177,1.033,0.148
10.41,-0.338,0.853,-0.077
10.42,-0.284,1.17,-0.15
10.43,-0.146,0.838,-0.046
10.44,-0.094,1.054,0.132
10.45,-0.159,0.89,0.069
10.46,-0.396,0.959,-0.146
10.47,-0.212,1.048,-0.106
10.48,-0.112,0.996,0.078
10.49,-0.091,1.005,0.136
10.5,-0.243,0.727,0.015
10.51,-0.329,1.22,-0.183
10.52,-0.174,0.937,-0.076
10.53,-0.123,1.016,0.118
10.54,-0.125,0.825,0.147
10.55,-0.359,0.94,-0.07
10.56,-0.252,1.115,-0.134
10.57,-0.206,0.882,0.011
10.58,-0.148,1.102,0.131
10.59,-0.149,0.761,0.11
10.6,-0.357,1.141,-0.176
10.61,-0.222,0.891,-0.123
10.62,-0.194,1.055,0.026
10.63,-0.124,0.962,0.26
10.64,-0.258,0.812,-0.021
10.65,-0.367,1.103,-0.162
10.66,-0.168,0.875,-0.045
10.67,-0.077,1.168,0.075
10.68,-0.107,0.705,0.162
10.69,-0.333,1.039,-0.055
10.7,-0.29,0.956,-0.146
10.71,-0.197,1.093,-0.018
10.72,-0.113,0.878,0.157
10.73,-0.182,0.883,0.092
10.74,-0.367,1.105,-0.145
10.75,-0.221,0.813,-0.1
10.76,-0.139,1.231,0.038
10.77,-0.061,0.716,0.136
10.78,-0.267,1.065,0.023
10.79,-0.325,0.894,-0.174
10.8,-0.174,1.048,-0.066
10.81,-0.069,1.026,0.061
10.82,-0.197,0.777,0.181
10.83,-0.339,1.1,-0.057
10.84,-0.242,0.84,-0.125
10.85,-0.169,1.197,-0.02
10.86,-0.527,0.75,0.161
10.87,-0.185,1.007,0.091
10.88,-0.266,0.982,-0.221
10.89,-0.236,0.95,-0.129
10.9,-0.358,1.075,0.149
10.91,0.037,0.799,0.126
10.92,-0.287,1.071,0.019
10.93,-0.357,0.781,-0.1
10.94,-0.184,1.216,-0.077
10.95,-0.157,0.875,0.069
10.96,-0.105,0.88,0.151
10.97,-0.267,0.997,-0.092
10.98,-0.299,0.927,-0.143
10.99,-0.224,1.083,-0.038
11.0,-0.095,0.812,0.199
11.01,-0.111,1.111,0.076
11.02,-0.387,0.809,-0.154
11.03,-0.22,1.095,-0.096
11.04,-0.136,1.038,0.055
11.05,-0.06,0.85,0.099
11.06,-0.232,0.934,0.025
11.07,-0.324,0.931,-0.133
11.08,-0.223,1.231,-0.035
11.09,-0.123,0.792,0.065
11.1,-0.112,0.962,0.14
11.11,-0.285,0.891,-0.035
11.12,-0.324,1.135,-0.178
11.13,-0.158,0.903,-0.055
11.14,-0.087,0.935,0.168
11.15,-0.163,1.05,0.065
11.16,-0.395,0.845,-0.135
11.17,-0.215,1.114,-0.147
11.18,-0.161,0.931,0.151
11.19,-0.061,1.078,0.128
11.2,-0.224,0.793,0.007
11.21,-0.297,1.08,-0.119
11.22,-0.167,1.093,-0.083
11.23,-0.133,0.892,0.087
11.24,-0.096,0.919,0.13
11.25,-0.329,0.845,-0.048
11.26,-0.334,1.243,-0.129
11.27,-0.172,0.822,-0.039
11.28,-0.129,1.048,0.164
11.29,-0.109,0.856,0.103
11.3,-0.469,0.964,-0.128
11.31,-0.21,1.006,-0.119
11.32,-0.134,1.029,0.078
11.33,-0.089,1.028,0.09
11.34,-0.214,0.715,0.037
11.35,-0.34,1.221,-0.141
11.36,-0.077,0.987,-0.098
11.37,-0.222,1.049,0.069
11.38,-0.094,0.752,0.188
11.39,-0.254,0.973,-0.042
11.4,-0.359,1.135,-0.171
11.41,-0.2,0.804,-0.067
11.42,-0.119,1.152,0.181
11.43,-0.082,0.769,0.08
11.44,-0.399,1.089,-0.135
11.45,-0.225,0.891,-0.109
11.46,-0.169,1.128,0.03
11.47,-0.031,0.919,0.149
11.48,-0.25,0.771,0.049
11.49,-0.415,1.187,-0.111
11.5,-0.108,0.951,-0.088
11.51,-0.199,1.151,0.069
11.52,-0.078,0.612,0.153
11.53,-0.343,1.059,-0.026
11.54,-0.277,0.806,-0.164
11.55,-0.203,1.052,-0.026
11.56,-0.086,0.937,0.169
11.57,-0.157,0.88,0.086
11.58,-0.351,1.07,-0.136
11.59,-0.24,0.761,-0.096
11.6,-0.229,1.294,0.073
11.61,-0.013,0.78,0.125
11.62,-0.255,1.035,0.048
11.63,-0.309,0.849,-0.14
11.64,-0.17,1.118,-0.072
11.65,-0.149,1.029,0.053
11.66,-0.111,0.704,0.176
11.67,-0.29,1.097,-0.042
11.68,-0.284,0.883,-0.146
11.69,-0.178,1.148,-0.041
11.7,-0.072,0.758,0.081
11.71,-0.131,1.018,0.092
11.72,-0.35,0.964,-0.093
11.73,-0.251,0.95,-0.129
11.74,-0.161,1.04,-0.001
11.75,-0.067,0.803,0.215
11.76,-0.223,1.097,0.037
11.77,-0.345,0.76,-0.201
11.78,-0.21,1.172,-0.047
11.79,-0.088,0.971,0.062
11.8,-0.104,0.878,0.13
11.81,-0.281,0.947,-0.014
11.82,-0.252,0.996,-0.138
11.83,-0.19,1.097,-0.071
11.84,-0.133,0.749,0.113
11.85,-0.075,1.055,0.118
11.86,-0.329,0.891,-0.073
11.87,-0.289,1.074,-0.159
11.88,-0.268,0.92,-0.007
11.89,-0.01,0.953,0.173
11.9,-0.22,1.011,0.052
11.91,-0.38,0.835,-0.152
11.92,-0.226,1.209,-0.051
11.93,-0.027,0.906,0.002
11.94,-0.183,0.939,0.171
11.95,-0.188,0.82,-0.019
11.96,-0.342,1.193,-0.117
11.97,-0.197,0.961,-0.107
11.98,-0.187,0.858,0.107
11.99,-0.06,0.963,0.145
12.0,-0.353,0.935,-0.105
12.01,-0.332,1.097,-0.129
12.02,-0.161,0.845,-0.012
12.03,-0.125,1.116,0.193
12.04,-0.125,0.833,0.008
12.05,-0.407,0.992,-0.117
12.06,-0.222,1.021,-0.119
12.07,-0.061,1.031,0.041
12.08,-0.13,0.971,0.146
12.09,-0.184,0.741,0.014
12.1,-0.356,1.201,-0.147
12.11,-0.158,0.935,-0.065
12.12,-0.175,1.048,0.09
12.13,-0.077,0.752,0.121
12.14,-0.345,1.003,-0.061
12.15,-0.311,1.106,-0.127
12.16,-0.183,0.818,-0.098
12.17,-0.117,1.107,0.178
12.18,-0.133,0.773,0.065
12.19,-0.38,1.104,-0.095
12.2,-0.254,0.817,-0.118
12.21,-0.162,1.145,0.036
12.22,-0.135,0.906,0.214
12.23,-0.226,0.823,0.029
12.24,-0.391,1.099,-0.143
12.25,-0.127,0.886,-0.058
12.26,-0.185,1.243,0.054
12.27,-0.122,0.689,0.168
12.28,-0.307,1.068,-0.054
12.29,-0.236,0.929,-0.134
12.3,-0.225,1.018,-0.056
12.31,-0.089,0.963,0.102
12.32,-0.099,0.808,0.144
12.33,-0.388,1.144,-0.138
12.34,-0.267,0.727,-0.082
12.35,-0.14,1.274,0.07
12.36,-0.026,0.701,0.115
12.37,-0.302,1.036,0.053
12.38,-0.309,0.914,-0.155
12.39,-0.158,1.189,-0.099
12.4,-0.173,0.891,0.051
12.41,-0.054,0.767,0.16
12.42,-0.293,1.133,-0.047
12.43,-0.3,0.841,-0.194
12.44,-0.278,1.067,-0.037
12.45,-0.077,0.835,0.194
12.46,-0.154,1.074,0.095
12.47,-0.348,0.859,-0.142
12.48,-0.29,0.946,-0.111
12.49,-0.181,1.142,0.065
12.5,-0.017,0.824,0.155
12.51,-0.225,1.017,0.042
12.52,-0.34,0.801,-0.118
12.53,-0.17,1.294,-0.067
12.54,-0.151,0.864,0.028
12.55,-0.118,0.839,0.134
12.56,-0.226,0.978,-0.007
12.57,-0.285,1.062,-0.201
12.58,-0.19,0.989,-0.075
12.59,-0.136,0.83,0.134
12.6,-0.186,1.073,0.13
12.61,-0.362,0.823,-0.127
12.62,-0.255,1.036,-0.151
12.63,-0.212,0.92,0.02
12.64,-0.023,1.041,0.136
12.65,-0.217,0.932,0.063
12.66,-0.294,0.883,-0.185
12.67,-0.269,1.214,-0.02
12.68,-0.079,0.903,-0.007
12.69,-0.105,0.978,0.16
12.7,-0.238,0.816,-0.026
12.71,-0.32,1.232,-0.141
12.72,-0.16,0.914,-0.085
12.73,-0.114,0.904,0.096
12.74,-0.165,0.914,0.153
12.75,-0.311,0.934,-0.066
12.76,-0.363,1.136,-0.106
12.77,-0.163,0.801,-0.048
12.78,-0.093,1.136,0.172
12.79,-0.123,0.812,0.082
12.8,-0.418,1.012,-0.166
12.81,-0.233,0.941,-0.116
12.82,-0.119,1.098,0.076
12.83,-0.089,0.963,0.121
12.84,-0.232,0.745,-0.004
12.85,-0.349,1.207,-0.105
12.86,-0.1,0.92,-0.073
12.87,-0.233,1.122,0.06
12.88,-0.073,0.656,0.154
12.89,-0.311,1.05,-0.032
12.9,-0.333,1.044,-0.172
12.91,-0.233,0.877,-0.038
12.92,-0.174,1.134,0.196
12.93,-0.101,0.777,0.093
12.94,-0.431,1.132,-0.11
12.95,-0.219,0.736,-0.14
12.96,-0.193,1.266,0.062
12.97,-0.043,0.886,0.112
12.98,-0.204,0.821,0.021
12.99,-0.383,1.049,-0.146
13.0,-0.148,0.967,-0.053
13.01,-0.144,1.226,0.031
13.02,-0.081,0.589,0.159
13.03,-0.322,1.095,-0.019
13.04,-0.27,0.94,-0.127
13.05,-0.232,1.018,-0.089
13.06,-0.083,0.887,0.136
13.07,-0.09,0.867,0.151
13.08,-0.35,1.171,-0.119
13.09,-0.31,0.756,-0.115
13.1,-0.266,1.184,0.006
13.11,-0.061,0.883,0.205
13.12,-0.183,1.042,0.026
13.13,-0.405,0.851,-0.122
13.14,-0.243,0.989,-0.091
13.15,-0.091,1.196,0.059
13.16,-0.062,0.754,0.113
13.17,-0.226,0.979,0.008
13.18,-0.315,0.941,-0.115
13.19,-0.212,1.192,-0.065
13.2,-0.162,0.724,0.078
13.21,-0.136,1.024,0.124
13.22,-0.278,0.911,-0.063
13.23,-0.32,1.124,-0.159
13.24,-0.2,0.874,-0.059
13.25,-0.049,0.916,0.121
13.26,-0.091,1.037,0.096
13.27,-0.313,0.889,-0.16
13.28,-0.296,1.072,-0.108
13.29,-0.194,0.882,0.068
13.3,0.002,1.136,0.118
13.31,-0.233,0.789,-0.008
13.32,-0.404,0.965,-0.113
13.33,-0.071,1.145,-0.049
13.34,0.011,0.951,-0.019
13.35,-0.121,0.933,0.127
13.36,-0.316,0.848,-0.009
13.37,-0.275,1.246,-0.165
13.38,-0.269,0.818,-0.056
13.39,-0.123,0.997,0.134
13.4,-0.137,0.871,0.167
13.41,-0.353,0.984,-0.131
13.42,-0.29,0.98,-0.125
13.43,-0.205,0.91,0.02
13.44,-0.063,1.138,0.202
13.45,-0.162,0.772,0.017
13.46,-0.358,1.096,-0.098
13.47,-0.231,0.918,-0.096
13.48,-0.1,1.17,0.047
13.49,-0.044,0.83,0.151
13.5,-0.239,0.825,-0.012
13.51,-0.333,1.152,-0.092
13.52,-0.107,0.924,-0.062
13.53,-0.134,1.085,0.096
13.54,-0.115,0.64,0.151
13.55,-0.365,1.129,-0.05
13.56,-0.263,0.944,-0.168
13.57,-0.197,0.967,-0.052
13.58,-0.191,0.94,0.153
13.59,-0.115,0.784,0.132
13.6,-0.336,1.197,-0.102
13.61,-0.26,0.76,-0.128
13.62,-0.183,1.17,0.037
13.63,-0.057,0.853,0.167
13.64,-0.175,0.988,-0.005
13.65,-0.396,0.928,-0.143
13.66,-0.198,0.953,-0.096
13.67,-0.057,1.172,0.078
13.68,-0.041,0.7,0.107
13.69,-0.329,1.09,-0.003
13.7,-0.313,0.856,-0.093
13.71,-0.144,1.206,-0.053
13.72,-0.156,0.819,0.102
13.73,-0.175,0.854,0.163
13.74,-0.292,1.076,-0.082
13.75,-0.262,0.948,-0.156
13.76,-0.194,1.054,-0.063
13.77,-0.152,0.772,0.246
13.78,-0.096,1.115,0.07
13.79,-0.374,0.842,-0.135
13.8,-0.21,1.036,-0.126
13.81,-0.166,1.051,0.099
13.82,-0.036,0.883,0.139
13.83,-0.272,0.974,-0.015
13.84,-0.357,0.887,-0.107
13.85,-0.136,1.222,-0.092
13.86,-0.065,0.761,0.049
13.87,-0.12,1.021,0.152
13.88,-0.274,0.905,-0.054
13.89,-0.277,1.088,-0.205
13.9,-0.189,0.947,-0.042
13.91,-0.111,0.9,0.176
13.92,-0.13,1.072,0.104
13.93,-0.359,0.836,-0.121
13.94,-0.247,1.115,-0.145
13.95,-0.164,0.925,0.06
13.96,-0.066,1.037,0.163
13.97,-0.196,0.799,0.03
13.98,-0.338,1.167,-0.148
13.99,-0.151,1.017,-0.082
14.0,-0.078,0.982,0.074
14.01,-0.111,0.847,0.14
14.02,-0.36,0.876,-0.038
14.03,-0.277,1.202,-0.16
14.04,-0.212,0.858,0.008
14.05,-0.141,1.073,0.107
14.06,-0.138,0.759,0.128
14.07,-0.359,1.118,-0.106
14.08,-0.192,0.905,-0.136
14.09,-0.179,1.014,-0.01
14.1,-0.036,1.033,0.15
14.11,-0.192,0.798,0.04
14.12,-0.41,1.126,-0.136
14.13,-0.234,0.901,-0.057
14.14,-0.038,1.242,0.009
14.15,-0.061,0.71,0.136
14.16,-0.353,0.959,-0.012
14.17,-0.257,1.062,-0.122
14.18,-0.181,0.984,-0.08
14.19,-0.123,1.061,0.128
14.2,-0.1,0.687,0.129
14.21,-0.356,1.204,-0.079
14.22,-0.277,0.825,-0.162
14.23,-0.234,1.094,-0.013
14.24,-0.13,0.896,0.209
14.25,-0.174,0.941,0.094
14.26,-0.381,1.022,-0.151
14.27,-0.242,0.818,-0.08
14.28,-0.122,1.261,0.116
14.29,0.008,0.717,0.128
14.3,-0.311,1.024,0.017
14.31,-0.376,0.879,-0.109
14.32,-0.175,1.155,-0.084
14.33,-0.146,0.93,0.1
14.34,-0.105,0.799,0.136
14.35,-0.347,1.128,-0.061
14.36,-0.265,0.813,-0.149
14.37,-0.199,1.121,-0.032
14.38,-0.114,0.808,0.135
14.39,-0.118,1.071,0.071
14.4,-0.337,0.91,-0.127
14.41,-0.254,0.921,-0.122
14.42,-0.25,1.102,0.077
14.43,0.042,0.834,0.136
14.44,-0.263,1.096,0.027
14.45,-0.348,0.742,-0.159
14.46,-0.296,1.207,-0.023
14.47,-0.024,0.899,0.044
14.48,-0.12,0.923,0.123
14.49,-0.299,0.917,0.004
14.5,-0.293,1.006,-0.134
14.51,-0.165,1.096,-0.087
14.52,-0.136,0.782,0.098
14.53,-0.178,1.084,0.177
14.54,-0.312,0.841,-0.107
14.55,-0.275,1.111,-0.118
14.56,-0.152,0.91,-0.016
14.57,0.03,0.947,0.091
14.58,-0.134,0.985,0.045
14.59,-0.376,0.901,-0.096
14.6,-0.22,1.127,-0.087
14.61,-0.076,0.949,0.045
14.62,-0.091,1.015,0.122
14.63,-0.207,0.782,-0.005
14.64,-0.359,1.158,-0.136
14.65,-0.249,1.023,-0.044
14.66,-0.134,0.919,0.057
14.67,-0.113,0.881,0.165
14.68,-0.263,0.874,-0.035
14.69,-0.343,1.187,-0.164
14.7,-0.204,0.828,-0.045
14.71,-0.095,1.114,0.134
14.72,-0.17,0.793,0.119
14.73,-0.368,1.033,-0.102
14.74,-0.214,0.961,-0.142
14.75,-0.121,1.034,0.005
14.76,-0.062,1.042,0.129
14.77,-0.248,0.734,0.041
14.78,-0.385,1.15,-0.115
14.79,-0.129,0.958,-0.07
14.8,-0.324,1.179,0.22
14.81,-0.069,0.629,0.169
14.82,-0.376,1.136,-0.035
14.83,-0.249,0.929,-0.167
14.84,-0.213,1.016,-0.081
14.85,-0.1,0.977,0.148
14.86,-0.161,0.832,0.137
14.87,-0.317,1.111,-0.131
14.88,-0.28,0.78,-0.102
14.89,-0.153,1.227,0.008
14.9,-0.099,0.833,0.203
14.91,-0.218,0.99,0.024
14.92,-0.327,0.938,-0.136
14.93,-0.195,1.016,-0.077
14.94,-0.157,1.112,0.056
14.95,-0.054,0.696,0.141
14.96,-0.305,1.122,-0.004
14.97,-0.323,0.834,-0.151
14.98,-0.185,1.133,-0.09
14.99,-0.151,0.845,0.115
15.0,-0.16,0.906,0.135
15.01,-0.378,1.023,-0.046
15.02,-0.21,0.912,-0.167
15.03,-0.189,1.131,-0.04
15.04,-0.132,0.734,0.183
15.05,-0.14,1.115,0.12
15.06,-0.301,0.853,-0.153
15.07,-0.274,1.083,-0.138
15.08,-0.158,1.013,0.068
15.09,0.009,0.891,0.117
15.1,-0.277,1.002,0.037
15.11,-0.335,0.856,-0.161
15.12,-0.172,1.209,-0.074
15.13,-0.133,0.8,0.08
15.14,-0.157,1.0,0.179
15.15,-0.258,0.83,-0.059
15.16,-0.269,1.12,-0.163
15.17,-0.148,0.969,-0.071
15.18,-0.171,0.879,0.175
15.19,-0.103,0.995,0.121
15.2,-0.36,0.878,-0.128
15.21,-0.242,1.135,-0.102
15.22,-0.29,0.895,0.043
15.23,-0.085,1.013,0.164
15.24,-0.18,0.837,0.013
15.25,-0.401,1.024,-0.147
15.26,-0.168,1.066,-0.085
15.27,-0.069,0.957,0.042
15.28,-0.084,0.941,0.136
15.29,-0.301,0.828,-0.027
15.3,-0.277,1.25,-0.119
15.31,-0.211,0.867,-0.04
15.32,-0.221,0.954,0.081
15.33,-0.133,0.864,0.14
15.34,-0.347,0.991,-0.132
15.35,-0.292,1.029,-0.103
15.36,-0.181,0.878,-0.011
15.37,-0.125,1.115,0.237
15.38,-0.155,0.709,0.026
15.39,-0.388,1.098,-0.133
15.4,-0.19,0.92,-0.063
15.41,-0.275,1.157,0.055
15.42,-0.081,0.826,0.127
15.43,-0.325,0.87,-0.005
15.44,-0.289,1.154,-0.118
15.45,-0.091,0.932,-0.084
15.46,-0.185,1.069,0.11
15.47,-0.056,0.679,0.111
15.48,-0.396,1.149,-0.068
15.49,-0.242,0.887,-0.177
15.5,-0.22,1.004,-0.024
15.51,-0.323,1.048,0.363
15.52,-0.133,0.839,0.091
15.53,-0.389,1.128,-0.15
15.54,-0.191,0.771,-0.108
15.55,-0.166,1.275,0.073
15.56,0.044,0.696,0.051
15.57,-0.319,1.01,0.011
15.58,-0.308,0.989,-0.145
15.59,-0.115,1.03,-0.105
15.6,-0.199,1.036,0.104
15.61,-0.147,0.784,0.164
15.62,-0.355,1.152,-0.098
15.63,-0.244,0.787,-0.143
15.64,-0.195,1.17,-0.035
15.65,-0.105,0.782,0.242
15.66,-0.165,1.068,0.041
15.67,-0.359,0.901,-0.15
15.68,-0.217,1.02,-0.084
15.69,-0.171,1.124,0.063
15.7,-0.061,0.71,0.152
15.71,-0.292,1.092,-0.021
15.72,-0.239,0.876,-0.125
15.73,-0.213,1.177,-0.053
15.74,-0.121,0.791,0.124
15.75,-0.102,0.974,0.145
15.76,-0.352,0.969,-0.116
15.77,-0.323,0.903,-0.096
15.78,-0.201,1.11,-0.049
15.79,-0.058,0.858,0.179
15.8,-0.204,1.071,0.071
15.81,-0.302,0.796,-0.141
15.82,-0.221,1.185,-0.076
15.83,-0.088,0.974,0.009
15.84,-0.066,0.859,0.165
15.85,-0.27,0.958,-0.026
15.86,-0.296,0.942,-0.124
15.87,-0.259,1.128,-0.074
15.88,-0.135,0.739,0.083
15.89,-0.114,1.051,0.174
15.9,-0.29,0.892,-0.103
15.91,-0.326,1.087,-0.135
15.92,-0.243,0.886,0.02
15.93,-0.054,1.005,0.188
15.94,-0.181,1.007,0.088
15.95,-0.347,0.817,-0.152
15.96,-0.242,1.13,-0.088
15.97,-0.112,0.956,0.042
15.98,-0.07,1.056,0.136
15.99,-0.231,0.77,0.025
16.0,-0.369,1.094,-0.143
16.01,-0.142,1.073,-0.06
16.02,-0.115,0.934,0.055
16.03,-0.14,0.883,0.159
16.04,-0.298,0.833,-0.041
16.05,-0.261,1.29,-0.123
16.06,-0.179,0.89,-0.048
16.07,-0.215,1.029,0.203
16.08,-0.132,0.808,0.129
16.09,-0.339,1.048,-0.146
16.1,-0.236,0.992,-0.19
16.11,-0.248,0.924,0.051
16.12,-0.052,1.066,0.148
16.13,-0.208,0.755,0.003
16.14,-0.43,1.113,-0.149
16.15,-0.127,0.894,-0.075
16.16,-0.078,1.19,0.06
16.17,-0.194,0.771,0.165
16.18,-0.29,0.904,-0.03
16.19,-0.216,1.157,-0.157
16.2,-0.161,0.906,-0.059
16.21,-0.404,1.062,0.081
16.22,-0.094,0.704,0.152
16.23,-0.321,1.194,-0.153
16.24,-0.252,0.814,-0.105
16.25,-0.187,1.084,0.012
16.26,-0.008,0.936,0.184
16.27,-0.228,0.806,-0.002
16.28,-0.367,1.096,-0.155
16.29,-0.134,0.905,-0.058
16.3,-0.075,1.216,0.023
16.31,-0.137,0.657,0.174
16.32,-0.327,1.082,-0.005
16.33,-0.229,0.912,-0.196
16.34,-0.159,0.995,-0.047
16.35,-0.087,0.953,0.117
16.36,-0.12,0.8,0.139
16.37,-0.359,1.209,-0.157
16.38,-0.273,0.761,-0.117
16.39,-0.217,1.217,0.026
16.4,-0.078,0.827,0.209
16.41,-0.281,0.95,0.019
16.42,-0.346,0.934,-0.126
16.43,-0.143,1.18,-0.085
16.44,-0.05,0.917,-0.044
16.45,-0.107,0.753,0.162
16.46,-0.312,1.113,-0.095
16.47,-0.202,0.878,-0.177
16.48,-0.194,1.123,-0.06
16.49,-0.098,0.756,0.156
16.5,-0.125,1.075,0.129
16.51,-0.379,0.854,-0.157
16.52,-0.257,0.947,-0.114
16.53,-0.123,1.108,0.054
16.54,-0.002,0.789,0.136
16.55,-0.303,1.033,0.006
16.56,-0.307,0.81,-0.152
16.57,-0.103,1.239,-0.059
16.58,-0.104,0.79,0.054
16.59,-0.125,0.921,0.176
16.6,-0.305,1.004,-0.059
16.61,-0.243,1.021,-0.136
16.62,-0.195,1.048,-0.045
16.63,-0.106,0.779,0.181
16.64,-0.138,1.105,0.09
16.65,-0.376,0.799,-0.152
16.66,-0.197,1.103,-0.129
16.67,-0.095,1.005,0.084
16.68,-0.062,0.942,0.143
16.69,-0.309,0.911,0.004
16.7,-0.319,0.938,-0.111
16.71,-0.105,1.152,-0.105
16.72,-0.151,0.761,0.085
16.73,-0.148,1.039,0.154
16.74,-0.277,0.88,-0.1
16.75,-0.334,1.099,-0.134
16.76,-0.156,0.868,-0.02
16.77,-0.088,1.006,0.201
16.78,-0.124,0.973,0.028
16.79,-0.399,0.839,-0.118
16.8,-0.168,1.151,-0.076
16.81,-0.069,0.975,0.036
16.82,-0.081,0.998,0.086
16.83,-0.257,0.789,0.03
16.84,-0.291,1.119,-0.131
16.85,-0.119,1.06,-0.06
16.86,-0.072,0.857,0.104
16.87,-0.134,0.936,0.193
16.88,-0.333,0.871,-0.077
16.89,-0.3,1.199,-0.142
16.9,-0.156,0.824,-0.003
16.91,-0.135,1.118,0.209
16.92,-0.104,0.807,0.055
16.93,-0.42,0.98,-0.123
16.94,-0.16,1.004,-0.092
16.95,-0.105,1.042,0.057
16.96,-0.091,0.983,0.138
16.97,-0.292,0.743,0.024
16.98,-0.359,1.202,-0.163
16.99,-0.064,0.94,-0.064
17.0,-0.139,1.042,0.041
17.01,-0.115,0.759,0.149
17.02,-0.311,1.017,-0.077
17.03,-0.303,1.052,-0.175
17.04,-0.229,0.838,0.014
17.05,-0.017,1.138,0.174
17.06,-0.152,0.714,0.042
17.07,-0.424,1.114,-0.137
17.08,-0.149,0.901,-0.046
17.09,-0.116,0.707,0.182
17.1,-0.289,1.014,-0.112
17.11,-0.333,1.042,-0.115
17.12,-0.137,0.885,-0.053
17.13,-0.047,1.147,0.184
17.14,-0.137,0.723,0.059
17.15,-0.382,1.125,-0.131
17.16,-0.201,0.884,-0.041
17.17,-0.13,1.224,0.036
17.18,-0.079,0.637,0.167
17.19,-0.344,1.022,-0.003
17.2,-0.348,0.991,-0.124
17.21,-0.182,0.942,-0.093
17.22,-0.15,1.023,0.113
17.23,-0.096,0.744,0.159
17.24,-0.366,1.182,-0.107
17.25,-0.261,0.768,-0.13
17.26,-0.235,1.221,-0.005
17.27,-0.094,0.883,0.212
17.28,-0.198,0.916,0.045
17.29,-0.366,0.988,-0.149
17.3,-0.163,0.952,-0.064
17.31,-0.149,1.197,0.078
17.32,-0.037,0.638,0.137
17.33,-0.347,1.138,0.017
17.34,-0.194,0.888,-0.172
17.35,-0.381,1.103,-0.008
17.36,-0.131,0.834,0.115
17.37,-0.096,0.898,0.154
17.38,-0.348,1.095,-0.11
17.39,-0.279,0.767,-0.135
17.4,-0.245,1.218,-0.002
17.41,0.025,0.815,0.141
17.42,-0.254,1.042,0.058
17.43,-0.321,0.822,-0.132
17.44,-0.224,1.15,-0.043
17.45,-0.08,1.063,0.025
17.46,-0.111,0.701,0.156
17.47,-0.289,1.063,0.008
17.48,-0.226,0.913,-0.162
17.49,-0.224,1.168,-0.051
17.5,-0.131,0.725,0.108
17.51,-0.116,1.037,0.145
17.52,-0.332,0.964,-0.134
17.53,-0.254,0.907,-0.159
17.54,-0.166,1.03,0.001
17.55,-0.041,0.883,0.204
17.56,-0.201,1.09,0.048
17.57,-0.374,0.771,-0.16
17.58,-0.193,1.171,-0.066
17.59,-0.066,0.981,0.091
17.6,-0.139,0.913,0.169
17.61,-0.27,0.919,-0.027
17.62,-0.238,1.0,-0.124
17.63,-0.115,1.125,-0.087
17.64,-0.12,0.772,0.085
17.65,-0.111,1.024,0.159
17.66,-0.331,0.883,-0.116
17.67,-0.266,1.119,-0.124
17.68,-0.216,0.901,-0.022
17.69,-0.083,0.983,0.213
17.7,-0.171,0.976,0.032
17.71,-0.401,0.866,-0.141
17.72,-0.18,1.139,-0.069
17.73,-0.008,0.954,0.036
17.74,-0.11,0.985,0.117
17.75,-0.292,0.799,-0.017
17.76,-0.27,1.191,-0.148
17.77,-0.12,0.967,-0.101
17.78,-0.156,0.838,0.132
17.79,-0.15,0.94,0.164
17.8,-0.318,0.912,-0.116
17.81,-0.287,1.148,-0.102
17.82,-0.295,0.875,0.056
17.83,-0.084,1.094,0.191
17.84,-0.157,0.783,0.019
17.85,-0.399,1.034,-0.142
17.86,-0.158,1.038,-0.037
17.87,-0.088,0.999,0.032
17.88,-0.112,0.91,0.152
17.89,-0.342,0.805,-0.034
17.9,-0.238,1.241,-0.155
17.91,-0.256,0.854,-0.043
17.92,-0.169,1.023,0.12
17.93,-0.058,0.819,0.139
17.94,-0.372,1.019,-0.11
17.95,-0.267,0.982,-0.148
17.96,-0.172,0.929,0.01
17.97,-0.091,1.116,0.155
17.98,-0.136,0.759,0.045
17.99,-0.437,1.133,-0.167
18.0,-0.101,0.861,-0.072
18.01,-0.166,1.226,0.051
18.02,-0.088,0.662,0.122
18.03,-0.336,1.025,-0.018
18.04,-0.208,1.019,-0.19
18.05,-0.11,0.989,-0.076
18.06,-0.087,0.952,0.021
18.07,-0.09,0.691,0.117
18.08,-0.413,1.238,-0.115
18.09,-0.209,0.8,-0.148
18.1,-0.216,1.166,0.028
18.11,-0.064,0.837,0.201
18.12,-0.222,0.96,0.015
18.13,-0.394,1.002,-0.16
18.14,-0.116,0.922,-0.059
18.15,-0.057,1.21,0.076
18.16,-0.077,0.641,0.167
18.17,-0.267,1.114,-0.042
18.18,-0.188,0.882,-0.125
18.19,-0.203,1.149,-0.06
18.2,-0.194,0.845,0.173
18.21,-0.117,0.864,0.171
18.22,-0.359,1.102,-0.157
18.23,-0.185,0.821,-0.132
18.24,-0.247,1.236,0.079
18.25,0.009,0.698,0.181
18.26,-0.264,1.047,0.033
18.27,-0.33,0.871,-0.152
18.28,-0.128,1.113,-0.058
18.29,-0.178,1.012,0.08
18.3,-0.147,0.722,0.144
18.31,-0.356,1.121,-0.031
18.32,-0.213,0.836,-0.143
18.33,-0.201,1.132,-0.034
18.34,-0.086,0.757,0.129
18.35,-0.075,1.039,0.092
18.36,-0.357,0.923,-0.177
18.37,-0.209,0.923,-0.08
18.38,-0.234,1.166,0.049
18.39,0.01,0.754,0.124
18.4,-0.301,1.077,0.012
18.41,-0.302,0.834,-0.126
18.42,-0.095,1.246,-0.071
18.43,-0.188,0.826,0.118
18.44,-0.135,0.887,0.201
18.45,-0.288,1.012,-0.096
18.46,-0.235,0.994,-0.152
18.47,-0.306,1.095,-0.019
18.48,-0.106,0.789,0.182
18.49,-0.139,1.091,0.077
18.5,-0.361,0.859,-0.18
18.51,-0.252,1.098,-0.095
18.52,-0.177,0.991,0.157
18.53,-0.035,0.921,0.11
18.54,-0.318,0.955,0.011
18.55,-0.301,0.901,-0.136
18.56,-0.159,1.216,-0.059
18.57,-0.126,0.727,0.086
18.58,-0.156,1.01,0.191
18.59,-0.249,0.875,-0.11
18.6,-0.316,1.112,-0.105
18.61,-0.158,0.892,-0.065
18.62,-0.089,0.948,0.22
18.63,-0.175,1.014,0.033
18.64,-0.392,0.818,-0.173
18.65,-0.147,1.183,-0.052
18.66,-0.505,0.937,0.217
18.67,-0.098,0.951,0.082
18.68,-0.243,0.852,-0.044
18.69,-0.279,1.124,-0.154
18.7,-0.179,0.966,-0.078
18.71,-0.121,0.86,0.113
18.72,-0.134,1.022,0.139
18.73,-0.298,0.846,-0.148
18.74,-0.292,1.148,-0.086
18.75,-0.188,0.884,0.005
18.76,-0.042,1.041,0.21
18.77,-0.159,0.841,-0.01
18.78,-0.414,0.989,-0.103
18.79,-0.166,1.111,-0.044
18.8,0.084,0.917,-0.065
18.81,-0.127,0.854,0.118
18.82,-0.309,0.888,-0.021
18.83,-0.308,1.236,-0.147
18.84,-0.146,0.799,-0.04
18.85,-0.171,1.122,0.185
18.86,-0.133,0.781,0.122
18.87,-0.42,1.054,-0.142
18.88,-0.258,0.96,-0.12
18.89,-0.157,1.115,0.074
18.9,-0.016,1.013,0.104
18.91,-0.297,0.708,-0.009
18.92,-0.394,1.155,-0.119
18.93,-0.189,0.986,0.006
18.94,-0.189,1.165,0.04
18.95,-0.169,0.649,0.145
18.96,-0.281,1.054,-0.017
18.97,-0.177,1.094,-0.195
18.98,-0.214,0.864,-0.049
18.99,-0.169,1.014,0.192
19.0,-0.092,0.763,0.113
19.01,-0.417,1.161,-0.175
19.02,-0.238,0.823,-0.098
19.03,-0.16,1.202,0.097
19.04,-0.06,0.831,0.154
19.05,-0.329,0.859,-0.0
19.06,-0.324,1.073,-0.146
19.07,-0.182,0.958,-0.001
19.08,-0.19,1.135,0.061
19.09,-0.133,0.632,0.158
19.1,-0.365,1.149,-0.066
19.11,-0.186,0.873,-0.17
19.12,-0.213,1.095,-0.06
19.13,-0.158,0.963,0.205
19.14,-0.038,0.816,0.052
19.15,-0.449,1.128,-0.153
19.16,-0.228,0.81,-0.087
19.17,-0.102,1.311,0.043
19.18,-0.085,0.677,0.16
19.19,-0.305,1.02,0.022
19.2,-0.235,0.955,-0.136
19.21,-0.184,1.023,-0.126
19.22,-0.186,0.961,0.127
19.23,-0.123,0.748,0.184
19.24,-0.304,1.168,-0.126
19.25,-0.251,0.739,-0.127
19.26,-0.29,1.182,-0.022
19.27,-0.036,0.876,0.184
19.28,-0.101,0.962,0.045
19.29,-0.398,0.924,-0.14
19.3,-0.206,0.966,-0.07
19.31,-0.139,1.224,0.038
19.32,-0.073,0.638,0.126
19.33,-0.298,1.071,0.037
19.34,-0.269,0.875,-0.148
19.35,-0.18,1.206,-0.091
19.36,-0.181,0.824,0.078
19.37,-0.075,0.839,0.163
19.38,-0.307,1.094,-0.08
19.39,-0.335,0.858,-0.146
19.4,-0.293,1.099,-0.02
19.41,0.016,0.798,0.191
19.42,-0.153,1.091,0.057
19.43,-0.325,0.792,-0.171
19.44,-0.233,1.096,-0.082
19.45,-0.111,1.049,0.003
19.46,-0.063,0.76,0.145
19.47,-0.278,1.028,0.039
19.48,-0.266,0.905,-0.115
19.49,-0.21,1.213,-0.107
19.5,-0.137,0.758,0.108
19.51,-0.109,0.955,0.131
19.52,-0.311,0.917,-0.049
19.53,-0.232,1.035,-0.188
19.54,-0.255,0.98,-0.016
19.55,-0.096,0.841,0.174
19.56,-0.089,1.093,0.098
19.57,-0.389,0.812,-0.131
19.58,-0.273,1.11,-0.123
19.59,-0.183,0.964,0.087
19.6,-0.065,0.986,0.107
19.61,-0.207,0.838,0.06
19.62,-0.389,1.181,-0.131
19.63,-0.132,0.99,-0.089
19.64,-0.164,0.947,0.104
19.65,-0.144,0.893,0.148
19.66,-0.324,0.919,-0.064
19.67,-0.375,1.166,-0.126
19.68,-0.171,0.819,-0.034
19.69,-0.18,1.124,0.144
19.7,-0.175,0.782,0.121
19.71,-0.339,1.032,-0.175
19.72,-0.246,0.92,-0.103
19.73,-0.168,1.049,0.088
19.74,-0.046,1.046,0.136
19.75,-0.249,0.723,0.027
19.76,-0.35,1.168,-0.179
19.77,-0.089,0.946,-0.038
19.78,-0.149,1.142,0.051
19.79,-0.102,0.664,0.158
19.8,-0.339,1.008,-0.017
19.81,-0.2,1.125,-0.132
19.82,-0.217,0.884,-0.061
19.83,-0.213,1.016,0.138
19.84,-0.101,0.752,0.136
19.85,-0.412,1.177,-0.156
19.86,-0.241,0.761,-0.13
19.87,-0.159,1.211,0.043
19.88,-0.011,0.945,0.148
19.89,-0.221,0.831,0.021
19.9,-0.361,1.053,-0.148
19.91,-0.153,0.935,-0.031
19.92,-0.115,1.224,0.04
19.93,-0.052,0.648,0.137
19.94,-0.356,1.087,-0.041
19.95,-0.271,0.916,-0.134
19.96,-0.188,1.039,-0.068
19.97,-0.186,0.909,0.16
19.98,-0.102,0.819,0.164
19.99,-0.354,1.141,-0.138
20.0,-0.278,0.735,-0.085
20.01,-0.182,1.212,-0.024
20.02,-0.003,0.834,0.204
20.03,-0.169,1.012,0.021
20.04,-0.345,0.921,-0.142
20.05,-0.29,1.009,-0.036
20.06,-0.078,1.124,0.036
20.07,-0.042,0.699,0.142
20.08,-0.318,1.094,-0.012
20.09,-0.282,0.842,-0.135
20.1,-0.224,1.16,-0.072
20.11,-0.058,0.827,0.086
20.12,-0.122,0.969,0.154
20.13,-0.305,1.029,-0.099
20.14,-0.337,0.878,-0.131
20.15,-0.239,1.061,-0.036
20.16,-0.059,0.831,0.185
20.17,-0.227,1.117,0.083
20.18,-0.389,0.763,-0.125
20.19,-0.202,1.1,-0.1
20.2,-0.155,1.015,0.115
20.21,-0.036,0.843,0.152
20.22,-0.23,0.958,-0.02
20.23,-0.368,0.891,-0.123
20.24,-0.18,1.18,-0.047
20.25,-0.101,0.813,0.058
20.26,-0.142,0.999,0.121
20.27,-0.31,0.883,-0.028
20.28,-0.298,1.149,-0.149
20.29,-0.188,0.933,-0.074
20.3,-0.111,0.908,0.17
20.31,-0.167,1.024,0.118
20.32,-0.394,0.842,-0.147
20.33,-0.27,1.11,-0.11
20.34,-0.128,0.93,0.029
20.35,-0.086,1.07,0.155
20.36,-0.176,0.805,0.009
20.37,-0.398,1.056,-0.122
20.38,-0.124,1.094,-0.065
20.39,-0.058,0.907,0.049
20.4,-0.132,0.925,0.151
20.41,-0.314,0.826,-0.009
20.42,-0.275,1.275,-0.183
20.43,-0.202,0.832,-0.069
20.44,-0.125,1.088,0.124
20.45,-0.172,0.772,0.099
20.46,-0.309,1.119,-0.137
20.47,-0.248,0.893,-0.12
20.48,-0.217,1.044,0.047
20.49,-0.059,1.015,0.159
20.5,-0.188,0.733,0.002
20.51,-0.388,1.134,-0.158
20.52,-0.147,0.9,-0.033
20.53,-0.286,1.24,0.177
20.54,-0.094,0.648,0.159
20.55,-0.32,1.01,-0.04
20.56,-0.326,1.055,-0.125
20.57,-0.136,0.923,-0.118
20.58,-0.142,1.049,0.109
20.59,-0.115,0.748,0.131
20.6,-0.347,1.199,-0.121
20.61,-0.274,0.752,-0.134
20.62,-0.285,1.138,0.02
20.63,-0.044,0.902,0.178
20.64,-0.128,0.924,0.03
20.65,-0.345,1.021,-0.147
20.66,-0.216,0.884,-0.086
20.67,-0.122,1.252,0.08
20.68,-0.008,0.721,0.129
20.69,-0.293,1.052,-0.009
20.7,-0.342,0.856,-0.141
20.71,-0.177,1.138,-0.064
20.72,-0.044,0.87,0.027
20.73,-0.137,0.793,0.133
20.74,-0.324,1.115,-0.049
20.75,-0.202,0.861,-0.168
20.76,-0.199,1.16,-0.008
20.77,-0.132,0.746,0.159
20.78,-0.153,1.042,0.091
20.79,-0.353,0.902,-0.13
20.8,-0.263,0.957,-0.101
20.81,-0.183,1.073,0.061
20.82,0.08,0.827,0.064
20.83,-0.301,1.051,0.051
20.84,-0.316,0.796,-0.15
20.85,-0.104,1.271,-0.082
20.86,-0.139,0.843,0.049
20.87,-0.112,0.927,0.145
20.88,-0.287,0.949,-0.029
20.89,-0.233,1.025,-0.183
20.9,-0.205,1.041,-0.043
20.91,-0.071,0.749,0.182
20.92,-0.16,1.096,0.159
20.93,-0.346,0.864,-0.105
20.94,-0.255,1.111,-0.149
20.95,-0.216,0.969,0.027
20.96,-0.066,0.971,0.125
20.97,-0.192,0.887,0.054
20.98,-0.294,0.952,-0.144
20.99,-0.268,1.221,-0.053
21.0,-0.084,0.842,0.01
21.01,-0.125,0.98,0.167
21.02,-0.248,0.812,-0.012
21.03,-0.302,1.229,-0.147
21.04,-0.136,0.935,-0.087
21.05,-0.153,0.915,0.102
21.06,-0.119,0.931,0.179
21.07,-0.365,0.912,-0.117
21.08,-0.306,1.088,-0.124
21.09,-0.175,0.845,0.005
21.1,-0.109,1.115,0.147
21.11,-0.167,0.803,0.074
21.12,-0.375,1.038,-0.123
21.13,-0.247,0.981,-0.105
21.14,-0.065,1.082,0.039
21.15,-0.041,0.988,0.143
21.16,-0.256,0.734,-0.006
21.17,-0.388,1.157,-0.155
21.18,-0.102,0.914,-0.055
21.19,-0.084,1.113,0.046
21.2,-0.122,0.678,0.132
21.21,-0.322,1.051,-0.007
21.22,-0.251,1.086,-0.123
21.23,-0.198,0.871,-0.04
21.24,-0.169,1.035,0.136
21.25,-0.126,0.81,0.096
21.26,-0.384,1.148,-0.145
21.27,-0.286,0.751,-0.101
21.28,-0.18,1.24,0.043
21.29,0.009,0.808,0.145
21.3,-0.238,0.969,-0.003
21.31,-0.359,0.916,-0.124
21.32,-0.197,1.011,-0.028
21.33,-0.045,1.122,0.013
21.34,-0.139,0.684,0.119
21.35,-0.333,1.165,-0.012
21.36,-0.207,0.888,-0.154
21.37,-0.25,1.096,-0.041
21.38,-0.21,0.821,0.182
21.39,-0.1,1.0,0.128
21.4,-0.344,1.012,-0.138
21.41,-0.291,0.783,-0.089
21.42,-0.187,1.161,-0.038
21.43,-0.088,0.797,0.202
21.44,-0.163,1.079,0.002
21.45,-0.415,0.814,-0.121
21.46,-0.211,1.121,-0.08
21.47,-0.025,0.992,-0.004
21.48,-0.132,0.839,0.193
21.49,-0.272,1.018,-0.006
21.5,-0.297,0.896,-0.132
21.51,-0.291,1.201,-0.023
21.52,-0.087,0.763,0.093
21.53,-0.105,0.992,0.096
21.54,-0.348,0.938,-0.058
21.55,-0.272,1.076,-0.161
21.56,-0.187,0.951,-0.055
21.57,-0.127,0.895,0.194
21.58,-0.15,1.05,0.065
21.59,-0.358,0.802,-0.108
21.6,-0.218,1.122,-0.145
21.61,-0.115,0.951,0.092
21.62,-0.065,1.021,0.176
21.63,-0.225,0.849,0.022
21.64,-0.32,1.002,-0.155
21.65,-0.243,1.173,-0.038
21.66,-0.1,0.841,0.065
21.67,-0.116,0.969,0.132
21.68,-0.307,0.857,-0.029
21.69,-0.342,1.222,-0.187
21.7,-0.16,0.813,-0.078
21.71,-0.147,1.027,0.132
21.72,-0.159,0.891,0.156
21.73,-0.309,0.962,-0.122
21.74,-0.29,1.062,-0.135
21.75,-0.205,0.938,0.017
21.76,-0.041,1.103,0.151
21.77,-0.137,0.714,0.015
21.78,-0.42,1.104,-0.152
21.79,-0.252,0.984,-0.066
21.8,-0.112,1.128,0.012
21.81,-0.088,0.808,0.181
21.82,-0.294,0.811,-0.036
21.83,-0.299,1.06,-0.15
21.84,-0.166,0.917,-0.084
21.85,-0.083,1.014,0.116
21.86,-0.12,0.738,0.176
21.87,-0.313,1.2,-0.137
21.88,-0.317,0.767,-0.117
21.89,-0.199,1.114,-0.023
21.9,-0.147,0.972,0.221
21.91,-0.119,0.882,0.037
21.92,-0.352,1.042,-0.127
21.93,-0.187,0.802,-0.091
21.94,-0.134,1.241,0.062
21.95,0.04,0.697,0.126
21.96,-0.303,1.065,-0.011
21.97,-0.283,0.884,-0.15
21.98,-0.214,1.18,-0.039
21.99,-0.147,0.935,0.073
22.0,-0.078,0.736,0.151
22.01,-0.318,1.154,-0.026
22.02,-0.261,0.844,-0.15
22.03,-0.241,1.118,-0.066
22.04,-0.142,0.791,0.19
22.05,-0.122,1.068,0.112
22.06,-0.35,0.913,-0.117
22.07,-0.283,1.101,-0.085
22.08,-0.136,1.014,0.07
22.09,-0.04,0.855,0.163
22.1,-0.263,0.995,0.034
22.11,-0.315,0.892,-0.123
22.12,-0.218,1.234,-0.078
22.13,-0.126,0.756,0.067
22.14,-0.116,1.002,0.136
22.15,-0.339,0.895,-0.036
22.16,-0.294,1.092,-0.182
22.17,-0.211,0.945,-0.023
22.18,-0.092,0.864,0.114
22.19,-0.142,1.061,0.151
22.2,-0.425,0.881,-0.07
22.21,-0.264,1.091,-0.105
22.22,-0.25,0.938,0.03
22.23,-0.01,1.073,0.17
22.24,-0.169,0.807,0.001
22.25,-0.392,0.976,-0.132
22.26,-0.17,1.118,-0.041
22.27,-0.104,0.952,0.023
22.28,-0.109,0.914,0.16
22.29,-0.279,0.802,-0.029
22.3,-0.291,1.27,-0.108
22.31,-0.284,0.889,-0.048
22.32,-0.092,0.95,0.097
22.33,-0.181,0.861,0.147
22.34,-0.292,0.994,-0.082
22.35,-0.365,1.059,-0.14
22.36,-0.205,0.826,-0.003
22.37,-0.089,1.137,0.15
22.38,-0.161,0.775,0.082
22.39,-0.38,1.101,-0.185
22.4,-0.216,0.817,-0.129
22.41,-0.169,1.15,0.068
22.42,-0.055,0.935,0.162
22.43,-0.196,0.813,-0.033
22.44,-0.383,1.119,-0.125
22.45,-0.263,0.881,-0.036
22.46,-0.056,1.211,0.058
22.47,-0.091,0.672,0.12
22.48,-0.35,1.06,-0.012
22.49,-0.276,0.978,-0.116
22.5,-0.163,1.012,-0.091
22.51,-0.101,0.938,0.063
22.52,-0.129,0.768,0.135
22.53,-0.329,1.19,-0.094
22.54,-0.265,0.765,-0.141
22.55,-0.24,1.169,0.02
22.56,-0.036,0.833,0.159
22.57,-0.218,0.982,0.028
22.58,-0.316,0.948,-0.151
22.59,-0.229,0.966,-0.062
22.6,-0.076,1.196,0.033
22.61,-0.041,0.689,0.142
22.62,-0.335,1.094,0.001
22.63,-0.275,0.864,-0.109
22.64,-0.162,1.149,-0.088
22.65,-0.174,0.863,0.116
22.66,-0.116,0.882,0.157
22.67,-0.275,1.084,-0.093
22.68,-0.303,0.846,-0.116
22.69,-0.25,1.114,-0.049
22.7,-0.095,0.838,0.184
22.71,-0.158,1.091,0.062
22.72,-0.394,0.847,-0.123
22.73,-0.213,1.019,-0.104
22.74,-0.214,1.106,0.074
22.75,-0.022,0.858,0.098
22.76,-0.236,0.976,0.013
22.77,-0.35,0.833,-0.082
22.78,-0.151,1.292,-0.102
22.79,-0.195,0.814,0.06
22.8,-0.069,0.911,0.16
22.81,-0.245,0.931,-0.025
22.82,-0.285,1.123,-0.158
22.83,-0.229,0.975,-0.08
22.84,-0.064,0.837,0.121
22.85,-0.165,1.062,0.147
22.86,-0.339,0.822,-0.111
22.87,-0.286,1.105,-0.1
22.88,-0.169,0.9,0.049
22.89,-0.044,1.124,0.171
22.9,-0.205,0.754,0.033
22.91,-0.357,1.053,-0.157
22.92,-0.258,1.043,-0.041
22.93,-0.085,1.033,0.034
22.94,-0.071,0.877,0.146
22.95,-0.325,0.822,-0.017
22.96,-0.292,1.207,-0.136
22.97,-0.13,0.877,-0.092
22.98,-0.148,1.054,0.097
22.99,-0.144,0.724,0.144
23.0,-0.347,1.051,-0.102
23.01,-0.293,0.988,-0.123
23.02,-0.188,0.907,-0.035
23.03,-0.083,1.067,0.16
23.04,-0.191,0.793,0.105
23.05,-0.322,1.147,-0.126
23.06,-0.284,0.824,-0.121
23.07,-0.227,1.208,0.083
23.08,-0.029,0.86,0.122
23.09,-0.273,0.879,0.008
23.1,-0.32,1.03,-0.165
23.11,-0.241,0.958,-0.004
23.12,-0.081,1.147,0.045
23.13,-0.094,0.66,0.135
23.14,-0.336,1.122,-0.024
23.15,-0.245,0.871,-0.176
23.16,-0.234,1.051,-0.027
23.17,-0.148,0.94,0.128
23.18,-0.094,0.872,0.114
23.19,-0.399,1.111,-0.119
23.2,-0.181,0.732,-0.143
23.21,-0.274,1.278,0.066
23.22,0.055,0.76,0.095
23.23,-0.246,1.023,0.08
23.24,-0.315,0.883,-0.149
23.25,-0.225,1.069,-0.034
23.26,-0.161,1.059,0.003
23.27,-0.076,0.723,0.164
23.28,-0.293,1.118,-0.009
23.29,-0.29,0.846,-0.108
23.3,-0.253,1.165,-0.088
23.31,-0.111,0.787,0.145
23.32,-0.106,0.963,0.147
23.33,-0.288,1.008,-0.111
23.34,-0.3,0.906,-0.144
23.35,-0.219,1.073,-0.061
23.36,-0.129,0.826,0.163
23.37,-0.223,1.115,0.094
23.38,-0.309,0.801,-0.107
23.39,-0.293,1.128,-0.123
23.4,-0.23,0.949,0.031
23.41,0.013,0.988,0.149
23.42,-0.232,0.929,0.024
23.43,-0.35,0.836,-0.12
23.44,-0.21,1.204,-0.067
23.45,0.014,0.849,0.019
23.46,-0.153,1.005,0.151
23.47,-0.315,0.825,0.001
23.48,-0.254,1.185,-0.155
23.49,-0.184,0.923,-0.068
23.5,-0.074,0.861,0.031
23.51,-0.158,0.969,0.138
23.52,-0.363,0.894,-0.086
23.53,-0.298,1.104,-0.125
23.54,-0.102,0.806,-0.063
23.55,-0.081,1.125,0.173
23.56,-0.209,0.824,0.08
23.57,-0.424,1.025,-0.157
23.58,-0.253,0.983,-0.044
23.59,-0.196,1.073,0.1
23.6,-0.078,0.937,0.147
23.61,-0.252,0.764,-0.018
23.62,-0.353,1.237,-0.126
23.63,-0.148,0.884,-0.079
23.64,-0.152,1.08,0.088
23.65,-0.052,0.722,0.138
23.66,-0.313,1.023,-0.034
23.67,-0.4,1.041,-0.146
23.68,-0.208,0.841,-0.067
23.69,-0.141,1.108,0.169
23.7,-0.146,0.78,0.062
23.71,-0.369,1.1,-0.134
23.72,-0.178,0.811,-0.078
23.73,-0.232,1.272,0.033
23.74,0.007,0.736,0.133
23.75,-0.218,1.017,0.073
23.76,-0.332,0.94,-0.186
23.77,-0.249,1.01,-0.027
23.78,-0.129,1.157,0.038
23.79,-0.091,0.647,0.118
23.8,-0.344,1.096,-0.015
23.81,-0.198,0.89,-0.121
23.82,-0.163,1.179,-0.094
23.83,-0.202,0.783,0.153
23.84,-0.125,0.873,0.158
23.85,-0.319,1.074,-0.076
23.86,-0.276,0.884,-0.172
23.87,-0.255,1.062,-0.049
23.88,-0.14,0.795,0.23
23.89,-0.139,1.148,0.087
23.9,-0.364,0.816,-0.137
23.91,-0.254,1.002,-0.116
23.92,-0.147,1.064,0.059
23.93,0.012,0.872,0.139
23.94,-0.227,1.002,0.026
23.95,-0.375,0.831,-0.123
23.96,-0.155,1.236,-0.078
23.97,-0.03,0.863,0.022
23.98,-0.152,0.96,0.13
23.99,-0.265,0.903,-0.025
24.0,-0.248,1.105,-0.146
24.01,-0.185,0.973,-0.07
24.02,-0.155,0.801,0.15
24.03,-0.245,1.069,0.171
24.04,-0.281,0.851,-0.11
24.05,-0.318,1.136,-0.098
24.06,-0.167,0.833,-0.024
24.07,-0.144,1.061,0.172
24.08,-0.141,0.876,0.075
24.09,-0.309,0.978,-0.14
24.1,-0.275,1.039,-0.095
24.11,-0.058,0.968,0.034
24.12,-0.081,1.09,0.123
24.13,-0.285,0.747,0.018
24.14,-0.366,1.158,-0.121
24.15,-0.137,0.969,-0.077
24.16,-0.087,1.062,0.058
24.17,-0.137,0.81,0.144
24.18,-0.344,0.898,-0.04
24.19,-0.281,1.131,-0.129
24.2,-0.129,0.873,-0.051
24.21,-0.211,1.083,0.149
24.22,-0.11,0.711,0.116
24.23,-0.372,1.179,-0.102
24.24,-0.274,0.882,-0.162
24.25,-0.207,1.023,0.026
24.26,-0.114,0.992,0.21
24.27,-0.174,0.811,0.047
24.28,-0.373,1.093,-0.152
24.29,-0.219,0.817,-0.083
24.3,-0.079,1.251,0.028
24.31,-0.019,0.758,0.12
24.32,-0.29,0.983,0.01
24.33,-0.307,0.959,-0.151
24.34,-0.146,1.045,-0.067
24.35,-0.096,1.053,0.095
24.36,-0.088,0.668,0.114
24.37,-0.351,1.174,-0.056
24.38,-0.192,0.85,-0.146
24.39,-0.226,1.135,-0.056
24.4,-0.109,0.791,0.155
24.41,-0.196,0.971,0.104
24.42,-0.314,1.035,-0.123
24.43,-0.242,0.854,-0.132
24.44,-0.252,1.202,0.053
24.45,0.013,0.802,0.157
24.46,-0.243,1.089,0.011
24.47,-0.36,0.774,-0.133
24.48,-0.256,1.143,-0.034
24.49,-0.032,0.99,0.038
24.5,-0.11,0.824,0.146
24.51,-0.331,0.935,-0.025
24.52,-0.222,1.015,-0.143
24.53,-0.187,1.072,-0.046
24.54,-0.104,0.748,0.116
24.55,-0.186,1.058,0.149
24.56,-0.306,0.914,-0.108
24.57,-0.281,1.106,-0.153
24.58,-0.183,0.876,0.053
24.59,-0.036,1.125,0.143
24.6,-0.189,0.781,0.014
24.61,-0.377,0.992,-0.155
24.62,-0.201,1.075,-0.034
24.63,-0.031,0.999,0.016
24.64,-0.163,0.965,0.146
24.65,-0.297,0.789,-0.017
24.66,-0.326,1.244,-0.111
24.67,-0.111,0.869,-0.105
24.68,-0.168,1.039,0.116
24.69,-0.156,0.791,0.155
24.7,-0.329,1.028,-0.068
24.71,-0.271,1.018,-0.161
24.72,-0.24,0.874,-0.011
24.73,-0.087,1.103,0.146
24.74,-0.16,0.751,0.05
24.75,-0.369,1.106,-0.137
24.76,-0.247,0.9,-0.089
24.77,-0.101,1.216,0.066
24.78,-0.062,0.8,0.105
24.79,-0.295,0.832,0.029
24.8,-0.326,1.135,-0.104
24.81,-0.091,0.94,-0.11
24.82,-0.221,1.149,0.117
24.83,-0.101,0.664,0.174
24.84,-0.328,1.125,-0.036
24.85,-0.307,0.903,-0.146
24.86,-0.228,0.979,-0.059
24.87,-0.137,1.006,0.189
24.88,-0.144,0.813,0.119
24.89,-0.334,1.154,-0.117
24.9,-0.228,0.756,-0.149
24.91,-0.223,1.216,0.001
24.92,-0.054,0.807,0.193
24.93,-0.206,1.028,0.052
24.94,-0.338,0.92,-0.143
24.95,-0.243,0.964,-0.052
24.96,-0.092,1.188,0.042
24.97,-0.045,0.78,0.136
24.98,-0.301,1.069,-0.028
24.99,-0.315,0.839,-0.122
25.0,-0.106,1.227,-0.095
25.01,-0.115,0.823,0.151
25.02,-0.138,0.872,0.165
25.03,-0.32,0.999,-0.052
25.04,-0.258,0.942,-0.171
25.05,-0.176,1.081,-0.041
25.06,-0.006,0.764,0.04
25.07,-0.146,1.11,0.081
25.08,-0.313,0.888,-0.115
25.09,-0.23,1.074,-0.125
25.1,-0.187,0.946,0.025
25.11,-0.085,0.922,0.207
25.12,-0.154,1.016,0.016
25.13,-0.396,0.839,-0.127
25.14,-0.172,1.15,-0.087
25.15,-0.284,0.928,0.098
25.16,-0.109,0.991,0.109
25.17,-0.328,0.833,-0.022
25.18,-0.266,1.073,-0.157
25.19,-0.134,1.045,-0.035
25.2,0.005,0.808,0.027
25.21,-0.194,0.975,0.157
25.22,-0.302,0.888,-0.073
25.23,-0.276,1.256,-0.134
25.24,-0.184,0.803,0.007
25.25,-0.095,1.004,0.15
25.26,-0.145,0.884,0.057
25.27,-0.359,1.035,-0.16
25.28,-0.237,1.006,-0.11
25.29,-0.137,0.932,0.088
25.3,-0.04,1.081,0.137
25.31,-0.259,0.734,-0.012
25.32,-0.407,1.14,-0.127
25.33,-0.144,0.879,-0.069
25.34,-0.155,1.121,0.112
25.35,-0.116,0.704,0.162
25.36,-0.333,1.077,-0.104
25.37,-0.25,0.939,-0.122
25.38,-0.226,0.974,-0.014
25.39,-0.063,1.056,0.182
25.4,-0.122,0.744,0.033
25.41,-0.419,1.137,-0.172
25.42,-0.198,0.842,-0.051
25.43,-0.158,1.063,0.124
25.44,-0.294,0.852,-0.143
25.45,-0.277,1.104,-0.078
25.46,-0.147,0.987,0.057
25.47,0.005,0.912,0.149
25.48,-0.231,0.968,0.019
25.49,-0.324,0.867,-0.118
25.5,-0.254,1.212,-0.041
25.51,-0.067,0.821,0.068
25.52,-0.142,0.987,0.152
25.53,-0.298,0.833,-0.066
25.54,-0.342,1.182,-0.144
25.55,-0.183,0.876,-0.069
25.56,-0.078,1.021,0.122
25.57,-0.229,0.896,0.146
25.58,-0.276,0.937,-0.129
25.59,-0.26,1.072,-0.11
25.6,-0.181,0.904,0.023
25.61,-0.082,1.116,0.175
25.62,-0.198,0.72,0.039
25.63,-0.376,1.125,-0.137
25.64,-0.117,1.013,-0.047
25.65,-0.133,1.102,-0.01
25.66,-0.094,0.804,0.171
25.67,-0.293,0.867,-0.045
25.68,-0.322,1.208,-0.137
25.69,-0.17,0.828,-0.088
25.7,-0.161,1.104,0.094
25.71,-0.108,0.729,0.17
25.72,-0.309,1.095,-0.132
25.73,-0.334,0.871,-0.087
25.74,-0.167,1.013,-0.019
25.75,-0.123,1.043,0.173
25.76,-0.126,0.751,0.051
25.77,-0.364,1.162,-0.119
25.78,-0.233,0.847,-0.076
25.79,-0.146,1.277,0.032
25.8,-0.076,0.711,0.17
25.81,-0.243,0.967,0.015
25.82,-0.358,1.037,-0.136
25.83,-0.156,0.992,-0.086
25.84,-0.144,1.086,0.084
25.85,-0.025,0.661,0.14
25.86,-0.41,1.189,-0.027
25.87,-0.201,0.807,-0.165
25.88,-0.239,1.1,-0.056
25.89,-0.07,0.892,0.194
25.9,-0.129,0.964,0.085
25.91,-0.383,1.033,-0.101
25.92,-0.22,0.775,-0.114
25.93,-0.252,1.252,0.061
25.94,0.012,0.748,0.111
25.95,-0.2,1.099,0.049
25.96,-0.329,0.859,-0.176
25.97,-0.283,1.113,-0.043
25.98,-0.115,1.013,0.044
25.99,-0.08,0.775,0.134
26.0,-0.319,1.028,0.014
26.01,-0.293,0.897,-0.125
26.02,-0.156,1.164,-0.088
26.03,-0.07,0.771,0.07
26.04,-0.125,1.028,0.1
26.05,-0.298,0.944,-0.061
26.06,-0.353,0.991,-0.161
26.07,-0.179,0.915,0.021
26.08,-0.049,1.012,0.148
26.09,-0.182,0.959,0.07
26.1,-0.382,0.883,-0.091
26.11,-0.209,1.138,-0.11
26.12,-0.299,0.955,0.208
26.13,-0.09,1.043,0.136
26.14,-0.233,0.767,-0.037
26.15,-0.349,1.125,-0.097
26.16,-0.17,1.015,-0.059
26.17,-0.111,0.899,0.104
26.18,-0.136,0.909,0.149
26.19,-0.355,0.892,-0.027
26.2,-0.3,1.178,-0.175
26.21,-0.146,0.871,-0.06
26.22,-0.157,1.068,0.136
26.23,-0.153,0.818,0.138
26.24,-0.368,1.01,-0.089
26.25,-0.239,0.957,-0.135
26.26,-0.198,1.013,0.074
26.27,-0.082,1.024,0.114
26.28,-0.119,0.732,0.014
26.29,-0.374,1.194,-0.141
26.3,-0.207,0.921,-0.051
26.31,-0.075,1.156,0.034
26.32,-0.078,0.741,0.133
26.33,-0.347,0.952,0.015
26.34,-0.23,1.122,-0.15
26.35,-0.259,0.916,-0.078
26.36,-0.031,1.052,0.058
26.37,-0.141,0.715,0.105
26.38,-0.367,1.148,-0.085
26.39,-0.364,0.83,-0.086
26.4,-0.164,1.058,-0.036
26.41,-0.131,0.965,0.173
26.42,-0.204,0.871,0.108
26.43,-0.319,1.083,-0.137
26.44,-0.255,0.833,-0.111
26.45,-0.219,1.253,0.067
26.46,-0.008,0.727,0.148
26.47,-0.248,1.033,0.024
26.48,-0.335,0.88,-0.149
26.49,-0.202,1.047,-0.084
26.5,-0.104,1.038,0.074
26.51,-0.066,0.73,0.147
26.52,-0.331,1.113,-0.046
26.53,-0.272,0.838,-0.165
26.54,-0.232,1.143,-0.064
26.55,-0.099,0.797,0.109
26.56,-0.173,1.017,0.13
26.57,-0.288,0.958,-0.109
26.58,-0.278,0.874,-0.127
26.59,-0.221,1.096,0.034
26.6,-0.007,0.809,0.145
26.61,-0.232,1.09,0.064
26.62,-0.346,0.789,-0.138
26.63,-0.195,1.181,-0.082
26.64,-0.081,0.979,0.029
26.65,-0.115,0.887,0.164
26.66,-0.267,0.96,0.009
26.67,-0.307,0.941,-0.14
26.68,-0.149,1.173,-0.083
26.69,0.065,0.757,-0.085
26.7,-0.094,1.038,0.112
26.71,-0.364,0.862,-0.035
26.72,-0.274,1.133,-0.143
26.73,-0.202,0.937,-0.054
26.74,-0.121,0.897,0.147
26.75,-0.201,0.996,0.117
26.76,-0.305,0.887,-0.109
26.77,-0.303,1.119,-0.104
26.78,-0.165,0.831,-0.009
26.79,-0.036,1.091,0.173
26.8,-0.144,0.805,0.026
26.81,-0.406,1.018,-0.163
26.82,-0.199,1.046,-0.052
26.83,-0.114,1.01,0.027
26.84,-0.098,0.906,0.15
26.85,-0.27,0.795,-0.022
26.86,-0.367,1.214,-0.106
26.87,-0.209,0.915,-0.048
26.88,-0.138,1.087,0.085
26.89,-0.136,0.708,0.151
26.9,-0.325,1.122,-0.095
26.91,-0.282,0.917,-0.138
26.92,-0.172,1.028,-0.005
26.93,-0.117,0.978,0.188
26.94,-0.151,0.802,0.059
26.95,-0.348,1.139,-0.123
26.96,-0.219,0.812,-0.119
26.97,-0.105,1.255,0.03
26.98,-0.042,0.745,0.13
26.99,-0.272,0.99,0.037
27.0,-0.303,0.983,-0.162
27.01,-0.204,0.999,-0.045
27.02,-0.285,1.1,0.204
27.03,-0.112,0.721,0.127
27.04,-0.352,1.136,-0.035
27.05,-0.275,0.813,-0.166
27.06,-0.181,1.112,0.001
27.07,-0.407,0.923,0.163
27.08,-0.167,0.936,0.086
27.09,-0.297,1.03,-0.12
27.1,-0.214,0.885,-0.098
27.11,-0.221,1.156,-0.019
27.12,-0.047,0.746,0.177
27.13,-0.204,1.098,0.039
27.14,-0.32,0.85,-0.141
27.15,-0.23,1.097,-0.081
27.16,-0.181,1.025,0.076
27.17,-0.052,0.823,0.14
27.18,-0.312,1.009,0.003
27.19,-0.256,0.847,-0.132
27.2,-0.261,1.223,-0.062
27.21,-0.082,0.774,0.045
27.22,-0.131,1.007,0.128
27.23,-0.317,0.892,-0.073
27.24,-0.274,1.058,-0.125
27.25,-0.162,0.99,-0.069
27.26,-0.193,0.812,0.183
27.27,-0.131,1.058,0.09
27.28,-0.334,0.877,-0.114
27.29,-0.29,1.109,-0.143
27.3,-0.407,0.887,0.186
27.31,0.008,1.067,0.13
27.32,-0.18,0.876,0.026
27.33,-0.412,0.952,-0.149
27.34,-0.296,1.06,-0.045
27.35,-0.018,0.952,0.058
27.36,-0.11,1.02,0.144
27.37,-0.286,0.776,-0.04
27.38,-0.338,1.185,-0.09
27.39,-0.112,0.92,-0.079
27.4,-0.161,0.978,0.101
27.41,-0.13,0.844,0.161
27.42,-0.295,0.998,-0.104
27.43,-0.314,1.111,-0.127
27.44,-0.184,0.827,-0.024
27.45,-0.079,1.139,0.167
27.46,-0.149,0.776,0.067
27.47,-0.393,1.086,-0.127
27.48,-0.224,0.937,-0.068
27.49,-0.056,1.172,-0.007
27.5,-0.035,0.883,0.125
27.51,-0.252,0.831,-0.006
27.52,-0.32,1.189,-0.118
27.53,-0.089,0.863,-0.091
27.54,-0.377,1.131,0.253
27.55,-0.077,0.734,0.185
27.56,-0.36,1.094,-0.047
27.57,-0.29,0.9,-0.184
27.58,-0.233,0.955,-0.054
27.59,-0.085,1.057,0.147
27.6,-0.138,0.752,0.123
27.61,-0.341,1.183,-0.121
27.62,-0.266,0.756,-0.138
27.63,-0.234,1.207,0.038
27.64,-0.043,0.871,0.188
27.65,-0.212,0.94,0.03
27.66,-0.384,0.977,-0.113
27.67,-0.211,0.942,-0.06
27.68,-0.137,1.234,0.082
27.69,-0.038,0.681,0.12
27.7,-0.306,1.084,0.017
27.71,-0.235,0.901,-0.128
27.72,-0.216,1.163,-0.073
27.73,-0.139,0.767,0.106
27.74,-0.133,1.033,0.171
27.75,-0.292,0.967,-0.124
27.76,-0.325,0.904,-0.153
27.77,-0.256,1.024,-0.028
27.78,0.013,0.855,0.155
27.79,-0.167,1.113,0.049
27.8,-0.323,0.776,-0.144
27.81,-0.284,1.153,-0.09
27.82,-0.079,0.983,0.043
27.83,-0.037,0.884,0.139
27.84,-0.289,0.921,0.028
27.85,-0.348,0.94,-0.12
27.86,-0.165,1.194,-0.082
27.87,-0.163,0.804,0.068
27.88,-0.087,0.994,0.103
27.89,-0.284,0.884,-0.056
27.9,-0.34,1.166,-0.163
27.91,-0.173,0.921,-0.085
27.92,-0.118,0.934,0.141
27.93,-0.15,0.942,0.15
27.94,-0.275,0.917,-0.103
27.95,-0.289,1.138,-0.112
27.96,-0.238,0.872,0.017
27.97,-0.094,1.082,0.169
27.98,-0.119,0.821,0.026
27.99,-0.371,1.045,-0.136
28.0,-0.253,0.985,-0.102
28.01,-0.094,1.047,0.09
28.02,-0.058,0.965,0.119
28.03,-0.3,0.75,-0.024
28.04,-0.335,1.213,-0.113
28.05,-0.1,0.962,-0.091
28.06,-0.156,1.079,0.077
28.07,-0.162,0.732,0.161
28.08,-0.278,1.018,-0.024
28.09,-0.327,1.066,-0.15
28.1,-0.159,0.878,-0.058
28.11,-0.184,1.079,0.197
28.12,-0.083,0.767,0.084
28.13,-0.349,1.153,-0.116
28.14,-0.235,0.801,-0.141
28.15,-0.23,1.191,0.037
28.16,-0.035,0.885,0.159
28.17,-0.223,0.852,0.048
28.18,-0.371,1.075,-0.161
28.19,-0.184,0.887,-0.088
28.2,-0.14,1.231,0.037
28.21,-0.011,0.656,0.122
28.22,-0.293,1.061,-0.034
28.23,-0.32,0.917,-0.133
28.24,-0.149,1.058,-0.077
28.25,-0.166,0.972,0.103
28.26,-0.091,0.766,0.102
28.27,-0.34,1.161,-0.053
28.28,-0.203,0.761,-0.175
28.29,-0.246,1.163,-0.054
28.3,-0.079,0.805,0.174
28.31,-0.134,1.01,0.091
28.32,-0.32,0.954,-0.094
28.33,-0.236,0.942,-0.123
28.34,-0.193,1.155,0.07
28.35,-0.027,0.786,0.13
28.36,-0.27,1.052,0.018
28.37,-0.305,0.809,-0.132
28.38,-0.214,1.245,-0.068
28.39,-0.054,0.878,0.03
28.4,-0.055,0.915,0.146
28.41,-0.36,0.97,-0.016
28.42,-0.199,0.928,-0.122
28.43,-0.246,1.127,-0.075
28.44,-0.058,0.74,0.085
28.45,-0.162,1.14,0.122
28.46,-0.333,0.866,-0.068
28.47,-0.331,1.057,-0.117
28.48,-0.167,0.904,-0.022
28.49,-0.14,0.986,0.184
28.5,-0.141,1.027,0.083
28.51,-0.328,0.872,-0.118
28.52,-0.264,1.018,-0.141
28.53,-0.102,0.937,0.062
28.54,-0.053,1.06,0.134
28.55,-0.209,0.743,0.031
28.56,-0.411,1.154,-0.141
28.57,-0.195,0.954,-0.05
28.58,-0.103,1.133,0.07
28.59,-0.105,0.79,0.14
28.6,-0.335,0.904,-0.031
28.61,-0.26,1.159,-0.131
28.62,-0.205,0.881,0.021
28.63,-0.124,1.097,0.11
28.64,-0.132,0.685,0.108
28.65,-0.391,1.162,-0.066
28.66,-0.259,0.869,-0.155
28.67,-0.219,0.988,-0.018
28.68,-0.35,0.983,0.287
28.69,-0.147,0.832,0.051
28.7,-0.391,1.105,-0.115
28.71,-0.204,0.805,-0.125
28.72,-0.34,1.307,0.125
28.73,-0.007,0.741,0.101
28.74,-0.237,0.965,0.017
28.75,-0.318,0.957,-0.142
28.76,-0.111,1.034,-0.071
28.77,-0.121,1.062,0.04
28.78,-0.124,0.724,0.136
28.79,-0.375,1.125,-0.035
28.8,-0.235,0.819,-0.132
28.81,-0.181,1.155,-0.06
28.82,-0.465,0.828,0.139
28.83,-0.152,0.974,0.119
28.84,-0.26,1.057,-0.107
28.85,-0.28,0.866,-0.163
28.86,-0.215,1.095,0.004
28.87,-0.089,0.823,0.163
28.88,-0.163,1.107,0.065
28.89,-0.352,0.825,-0.121
28.9,-0.243,1.098,-0.124
28.91,-0.156,1.037,0.057
28.92,0.038,0.887,0.055
28.93,-0.214,1.014,0.016
28.94,-0.341,0.859,-0.106
28.95,-0.205,1.236,-0.095
28.96,-0.106,0.848,0.06
28.97,-0.091,0.96,0.099
28.98,-0.31,0.873,0.021
28.99,-0.205,1.103,-0.15
29.0,-0.256,0.967,-0.058
29.01,-0.148,0.824,0.128
29.02,-0.152,1.058,0.125
29.03,-0.271,0.838,-0.091
29.04,-0.286,1.118,-0.142
29.05,-0.315,0.857,0.007
29.06,-0.085,1.123,0.184
29.07,-0.106,0.85,0.034
29.08,-0.425,0.98,-0.087
29.09,-0.139,1.028,-0.124
29.1,-0.144,1.018,0.057
29.11,-0.119,1.021,0.136
29.12,-0.193,0.774,0.006
29.13,-0.354,1.189,-0.132
29.14,-0.191,0.957,-0.077
29.15,-0.119,1.039,0.078
29.16,-0.103,0.798,0.169
29.17,-0.311,0.949,-0.012
29.18,-0.299,1.136,-0.157
29.19,-0.153,0.854,-0.069
29.2,-0.17,1.068,0.126
29.21,-0.107,0.756,0.147
29.22,-0.323,1.154,-0.14
29.23,-0.333,0.829,-0.138
29.24,-0.215,1.033,0.011
29.25,-0.085,1.054,0.258
29.26,-0.197,0.796,0.039
29.27,-0.395,1.083,-0.11
29.28,-0.13,0.829,-0.104
29.29,-0.093,1.303,0.042
29.3,-0.098,0.707,0.187
29.31,-0.313,1.003,0.032
29.32,-0.345,0.941,-0.121
29.33,-0.073,1.078,-0.077
29.34,-0.217,0.896,0.118
29.35,-0.138,0.77,0.162
29.36,-0.295,1.146,-0.059
29.37,-0.257,0.834,-0.189
29.38,-0.233,1.101,-0.075
29.39,-0.117,0.792,0.225
29.4,-0.101,1.11,0.069
29.41,-0.343,0.856,-0.142
29.42,-0.264,1.009,-0.069
29.43,-0.163,1.114,0.026
29.44,0.016,0.792,0.14
29.45,-0.285,1.047,0.043
29.46,-0.335,0.812,-0.141
29.47,-0.154,1.259,-0.11
29.48,-0.123,0.837,0.05
29.49,-0.062,0.926,0.138
29.5,-0.278,0.971,-0.006
29.51,-0.219,1.044,-0.161
29.52,-0.341,1.04,-0.047
29.53,-0.094,0.795,0.106
29.54,-0.158,1.101,0.161
29.55,-0.299,0.813,-0.147
29.56,-0.355,1.1,-0.118
29.57,-0.176,0.908,0.024
29.58,-0.037,1.058,0.15
29.59,-0.175,0.883,0.027
29.6,-0.348,0.885,-0.12
29.61,-0.186,1.184,-0.095
29.62,-0.086,0.943,0.024
29.63,-0.05,1.007,0.14
29.64,-0.238,0.758,-0.007
29.65,-0.382,1.144,-0.113
29.66,-0.144,0.969,-0.075
29.67,-0.271,0.975,0.128
29.68,-0.13,0.869,0.151
29.69,-0.32,0.924,-0.068
29.7,-0.24,1.184,-0.158
29.71,-0.131,0.787,-0.104
29.72,-0.114,1.081,0.109
29.73,-0.156,0.822,0.163
29.74,-0.306,1.074,-0.136
29.75,-0.278,0.857,-0.128
29.76,-0.208,1.0,0.001
29.77,-0.107,1.038,0.207
29.78,-0.161,0.775,0.026
29.79,-0.424,1.123,-0.125
29.8,-0.2,0.87,-0.045
29.81,-0.1,1.249,0.034
29.82,-0.084,0.708,0.15
29.83,-0.294,0.929,0.02
29.84,-0.304,1.052,-0.119
29.85,-0.098,0.985,-0.077
29.86,-0.235,1.074,0.115
29.87,-0.088,0.608,0.124
29.88,-0.382,1.2,-0.055
29.89,-0.245,0.818,-0.141
29.9,-0.223,1.052,-0.045
29.91,-0.095,0.885,0.166
29.92,-0.14,0.907,0.097
29.93,-0.345,1.071,-0.164
29.94,-0.228,0.789,-0.103
29.95,-0.17,1.243,0.042
29.96,0.036,0.79,0.166
29.97,-0.256,1.043,0.034
29.98,-0.344,0.806,-0.139
29.99,-0.114,1.104,-0.057
30.0,-0.101,1.055,0.047
30.01,-0.125,0.753,0.168
30.02,-0.285,1.087,-0.012
30.03,-0.253,0.891,-0.143
30.04,-0.227,1.153,-0.079
30.05,-0.409,0.773,0.271
30.06,-0.146,1.015,0.144
30.07,-0.303,0.953,-0.104
30.08,-0.34,0.905,-0.13
30.09,-0.205,1.03,-0.018
30.1,-0.032,0.883,0.159
30.11,-0.234,1.076,0.035
30.12,-0.358,0.789,-0.075
30.13,-0.167,1.223,-0.094
30.14,-0.08,0.963,0.005
30.15,-0.111,0.976,0.186
30.16,-0.232,0.84,-0.014
30.17,-0.322,1.144,-0.161
30.18,-0.259,0.989,-0.074
30.19,-0.127,0.875,0.09
30.2,-0.122,0.963,0.132
30.21,-0.282,0.882,-0.068
30.22,-0.37,1.166,-0.125
30.23,-0.191,0.83,-0.03
30.24,-0.124,1.11,0.138
30.25,-0.136,0.845,0.052
30.26,-0.409,0.977,-0.148
30.27,-0.253,1.014,-0.091
30.28,-0.236,1.022,0.103
30.29,-0.117,1.031,0.128
30.3,-0.204,0.72,-0.021
30.31,-0.305,1.192,-0.131
30.32,-0.28,0.975,-0.04
30.33,-0.188,1.049,0.119
30.34,-0.049,0.77,0.137
30.35,-0.339,0.968,-0.023
30.36,-0.292,1.102,-0.203
30.37,-0.196,0.865,-0.042
30.38,-0.149,1.124,0.124
30.39,-0.112,0.74,0.126
30.4,-0.403,1.112,-0.098
30.41,-0.208,0.846,-0.153
30.42,-0.16,1.112,0.032
30.43,0.039,0.923,0.1
30.44,-0.246,0.781,0.04
30.45,-0.354,1.142,-0.12
30.46,-0.047,0.934,-0.085
30.47,-0.194,1.188,0.018
30.48,-0.087,0.634,0.224
30.49,-0.276,1.047,-0.022
30.5,-0.288,0.973,-0.153
30.51,-0.226,0.98,-0.088
30.52,-0.123,0.993,0.102
30.53,-0.092,0.713,0.138
30.54,-0.356,1.177,-0.1
30.55,-0.305,0.775,-0.142
30.56,-0.174,1.145,-0.031
30.57,-0.071,0.845,0.158
30.58,-0.166,0.989,0.057
30.59,-0.326,0.983,-0.127
30.6,-0.198,0.882,-0.137
30.61,-0.144,1.173,0.035
30.62,0.072,0.751,0.071
30.63,-0.294,1.085,-0.0
30.64,-0.3,0.827,-0.127
30.65,-0.126,1.218,-0.071
30.66,-0.172,0.922,0.056
30.67,-0.179,0.79,0.222
30.68,-0.31,1.048,-0.049
30.69,-0.198,0.918,-0.157
30.7,-0.176,1.136,-0.063
30.71,-0.033,0.743,0.013
30.72,-0.064,1.077,0.087
30.73,-0.34,0.924,-0.168
30.74,-0.264,0.989,-0.086
30.75,-0.192,0.998,0.032
30.76,-0.108,0.913,0.214
30.77,-0.242,1.016,0.029
30.78,-0.355,0.81,-0.114
30.79,-0.12,1.238,-0.078
30.8,-0.043,0.819,0.002
30.81,-0.124,0.945,0.24
30.82,-0.238,0.874,-0.065
30.83,-0.286,1.06,-0.153
30.84,-0.167,1.014,-0.045
30.85,-0.118,0.836,0.118
30.86,-0.147,1.013,0.126
30.87,-0.325,0.845,-0.103
30.88,-0.276,1.116,-0.119
30.89,-0.09,0.886,-0.047
30.9,-0.08,1.064,0.174
30.91,-0.142,0.869,0.077
30.92,-0.408,0.982,-0.137
30.93,-0.225,1.076,-0.084
30.94,-0.048,0.931,0.02
30.95,-0.161,1.029,0.153
30.96,-0.264,0.789,-0.016
30.97,-0.296,1.237,-0.132
30.98,-0.212,0.824,-0.062
30.99,-0.142,1.045,0.154
31.0,-0.091,0.816,0.16
31.01,-0.369,1.042,-0.132
31.02,-0.241,0.949,-0.147
31.03,-0.256,1.033,0.07
31.04,-0.036,1.034,0.128
31.05,-0.191,0.716,0.038
31.06,-0.351,1.201,-0.155
31.07,-0.216,0.949,-0.076
31.08,-0.117,1.109,-0.025
31.09,-0.045,0.742,0.144
31.1,-0.343,0.928,-0.006
31.11,-0.281,1.11,-0.148
31.12,-0.188,0.872,-0.083
31.13,-0.106,1.072,0.113
31.14,-0.173,0.715,0.144
31.15,-0.337,1.162,-0.082
31.16,-0.283,0.854,-0.141
31.17,-0.237,1.05,-0.018
31.18,-0.117,0.935,0.22
31.19,-0.156,0.85,0.062
31.2,-0.349,1.097,-0.144
31.21,-0.21,0.826,-0.065
31.22,-0.141,1.259,0.068
31.23,-0.058,0.69,0.111
31.24,-0.332,1.022,0.035
31.25,-0.272,0.919,-0.19
31.26,-0.181,1.087,-0.049
31.27,-0.177,1.02,0.164
31.28,-0.127,0.727,0.145
31.29,-0.324,1.142,-0.059
31.3,-0.203,0.813,-0.178
31.31,-0.315,1.154,-0.023
31.32,-0.044,0.824,0.129
31.33,-0.181,1.013,0.106
31.34,-0.283,0.967,-0.171
31.35,-0.296,0.892,-0.086
31.36,-0.205,1.167,0.06
31.37,-0.012,0.776,0.162
31.38,-0.275,1.081,0.01
31.39,-0.344,0.797,-0.13
31.4,-0.141,1.212,-0.076
31.41,-0.093,0.912,0.123
31.42,-0.122,0.821,0.147
31.43,-0.319,1.016,-0.036
31.44,-0.283,0.94,-0.138
31.45,-0.151,1.122,-0.056
31.46,-0.037,0.696,0.082
31.47,-0.152,1.073,0.112
31.48,-0.296,0.904,-0.134
31.49,-0.205,1.093,-0.148
31.5,-0.18,0.946,0.034
31.51,-0.006,0.919,0.13
31.52,-0.221,1.033,-0.005
31.53,-0.384,0.817,-0.126
31.54,-0.163,1.208,-0.1
31.55,-0.07,0.906,0.088
31.56,-0.176,0.965,0.147
31.57,-0.26,0.839,-0.035
31.58,-0.248,1.089,-0.16
31.59,-0.099,1.051,-0.066
31.6,-0.107,0.816,0.074
31.61,-0.123,1.031,0.178
31.62,-0.311,0.876,-0.119
31.63,-0.295,1.163,-0.132
31.64,-0.178,0.843,-0.025
31.65,-0.01,1.06,0.175
31.66,-0.203,0.846,0.018
31.67,-0.421,0.967,-0.142
31.68,-0.21,1.102,-0.046
31.69,-0.0,0.958,0.003
31.7,-0.178,0.967,0.133
31.71,-0.236,0.768,-0.018
31.72,-0.323,1.232,-0.162
31.73,-0.146,0.855,-0.032
31.74,-0.248,1.012,0.15
31.75,-0.154,0.895,0.156
31.76,-0.342,0.958,-0.126
31.77,-0.261,1.055,-0.136
31.78,-0.167,1.053,0.075
31.79,-0.035,1.018,0.132
31.8,-0.24,0.737,0.01
31.81,-0.382,1.204,-0.088
31.82,-0.032,0.927,-0.148
31.83,-0.212,1.079,0.1
31.84,-0.061,0.727,0.158
31.85,-0.392,1.014,-0.031
31.86,-0.248,1.061,-0.161
31.87,-0.145,0.876,-0.093
31.88,-0.201,1.057,0.153
31.89,-0.084,0.722,0.106
31.9,-0.378,1.181,-0.125
31.91,-0.242,0.772,-0.131
31.92,-0.214,1.199,0.07
31.93,-0.025,0.918,0.144
31.94,-0.213,0.813,0.013
31.95,-0.403,1.113,-0.116
31.96,-0.157,0.961,-0.079
31.97,-0.165,1.184,0.081
31.98,-0.065,0.614,0.148
31.99,-0.365,1.07,-0.015
32.0,-0.245,0.967,-0.103
32.01,-0.112,1.031,-0.045
32.02,-0.219,0.932,0.111
32.03,-0.127,0.76,0.129
32.04,-0.323,1.192,-0.105
32.05,-0.26,0.781,-0.148
32.06,-0.272,1.173,-0.018
32.07,-0.012,0.833,0.204
32.08,-0.159,0.97,0.036
32.09,-0.375,0.956,-0.167
32.1,-0.181,0.988,-0.054
32.11,-0.086,1.152,0.025
32.12,-0.063,0.672,0.142
32.13,-0.359,1.111,0.005
32.14,-0.271,0.835,-0.132
32.15,-0.166,1.157,-0.068
32.16,-0.132,0.832,0.084
32.17,-0.134,0.894,0.145
32.18,-0.353,1.062,-0.07
32.19,-0.277,0.845,-0.12
32.2,-0.22,1.098,0.013
32.21,-0.032,0.814,0.184
32.22,-0.23,1.103,0.061
32.23,-0.34,0.803,-0.166
32.24,-0.227,1.152,-0.024
32.25,-0.083,1.027,0.016
32.26,-0.074,0.846,0.177
32.27,-0.265,0.996,-0.019
32.28,-0.287,0.893,-0.096
32.29,-0.187,1.174,-0.096
32.3,-0.106,0.77,0.088
32.31,-0.151,1.027,0.158
32.32,-0.232,0.92,-0.122
32.33,-0.393,1.038,-0.077
32.34,-0.188,0.965,-0.04
32.35,-0.076,0.942,0.206
32.36,-0.199,1.025,0.052
32.37,-0.342,0.792,-0.128
32.38,-0.244,1.21,-0.065
32.39,-0.047,0.934,-0.017
32.4,-0.087,0.941,0.171
32.41,-0.193,0.84,-0.002
32.42,-0.389,1.052,-0.112
32.43,-0.156,1.081,-0.089
32.44,-0.115,0.825,0.101
32.45,-0.123,0.991,0.144
32.46,-0.334,0.864,-0.026
32.47,-0.321,1.19,-0.164
32.48,-0.144,0.855,-0.055
32.49,-0.126,1.043,0.155
32.5,-0.179,0.923,0.105
32.51,-0.346,0.925,-0.123
32.52,-0.253,1.038,-0.137
32.53,-0.211,0.907,0.089
32.54,-0.07,1.135,0.145
32.55,-0.144,0.73,0.019
32.56,-0.398,1.1,-0.142
32.57,-0.213,0.95,-0.059
32.58,-0.084,1.115,0.066
32.59,-0.111,0.859,0.106
32.6,-0.337,0.988,0.001
32.61,-0.264,1.113,-0.132
32.62,-0.163,0.918,-0.058
32.63,-0.341,1.05,0.158
32.64,-0.093,0.743,0.093
32.65,-0.401,1.186,-0.149
32.66,-0.225,0.768,-0.127
32.67,-0.246,1.121,0.081
32.68,0.003,0.912,0.174
32.69,-0.186,0.901,0.03
32.7,-0.38,1.045,-0.169
32.71,-0.195,0.885,-0.044
32.72,-0.135,1.245,0.049
32.73,-0.083,0.635,0.14
32.74,-0.363,1.112,-0.004
32.75,-0.209,0.909,-0.158
32.76,-0.219,1.018,-0.056
32.77,-0.408,0.943,0.179
32.78,-0.122,0.872,0.115
32.79,-0.362,1.136,-0.14
32.8,-0.282,0.719,-0.106
32.81,-0.193,1.213,-0.016
32.82,-0.036,0.839,0.177
32.83,-0.202,1.0,0.011
32.84,-0.292,0.894,-0.119
32.85,-0.252,1.043,-0.055
32.86,-0.109,1.115,0.001
32.87,-0.046,0.708,0.182
32.88,-0.251,1.079,-0.009
32.89,-0.299,0.879,-0.119
32.9,-0.207,1.189,-0.08
32.91,-0.116,0.825,0.116
32.92,-0.095,0.929,0.124
32.93,-0.331,1.046,-0.08
32.94,-0.333,0.883,-0.118
32.95,-0.233,1.076,-0.04
32.96,-0.088,0.835,0.188
32.97,-0.186,1.131,0.075
32.98,-0.393,0.796,-0.113
32.99,-0.23,1.099,-0.096
33.0,-0.127,1.045,0.05
33.01,-0.037,0.845,0.102
33.02,-0.233,0.959,0.035
33.03,-0.303,0.901,-0.123
33.04,-0.236,1.205,-0.063
33.05,-0.117,0.788,0.066
33.06,-0.091,1.006,0.145
33.07,-0.318,0.875,-0.044
33.08,-0.292,1.135,-0.189
33.09,-0.217,0.924,-0.06
33.1,-0.087,0.861,0.132
33.11,-0.133,1.029,0.135
33.12,-0.284,0.847,-0.118
33.13,-0.319,1.136,-0.121
33.14,-0.123,0.864,-0.027
33.15,-0.092,1.091,0.163
33.16,-0.213,0.795,0.063
33.17,-0.411,1.016,-0.14
33.18,-0.193,1.109,-0.084
33.19,-0.047,0.96,0.003
33.2,-0.137,0.951,0.183
33.21,-0.196,0.76,-0.038
33.22,-0.37,1.235,-0.137
33.23,-0.214,0.887,-0.064
33.24,-0.165,1.042,0.106
33.25,-0.119,0.761,0.148
33.26,-0.361,1.004,-0.039
33.27,-0.281,1.085,-0.161
33.28,-0.166,0.871,0.002
33.29,-0.136,1.087,0.15
33.3,-0.146,0.777,0.1
33.31,-0.408,1.137,-0.149
33.32,-0.261,0.876,-0.104
33.33,-0.127,1.164,0.049
33.34,-0.073,0.874,0.167
33.35,-0.246,0.846,-0.001
33.36,-0.334,1.153,-0.141
33.37,-0.166,0.883,-0.09
33.38,-0.135,1.146,0.101
33.39,-0.078,0.723,0.146
33.4,-0.337,1.084,-0.073
33.41,-0.307,0.757,-0.141
33.42,-0.167,1.11,-0.043
33.43,-0.095,0.941,0.171
33.44,-0.163,0.891,0.052
33.45,-0.324,1.047,-0.129
33.46,-0.197,0.889,-0.091
33.47,-0.221,1.225,0.024
33.48,-0.03,0.641,0.15
33.49,-0.214,1.081,-0.008
33.5,-0.338,0.877,-0.126
33.51,-0.199,1.096,-0.094
33.52,-0.105,0.969,0.075
33.53,-0.099,0.79,0.194
33.54,-0.327,1.091,-0.058
33.55,-0.289,0.849,-0.144
33.56,-0.207,1.149,-0.063
33.57,-0.004,0.731,0.123
33.58,-0.18,1.057,0.124
33.59,-0.315,0.919,-0.082
33.6,-0.274,0.972,-0.145
33.61,-0.139,1.06,0.027
33.62,-0.058,0.881,0.164
33.63,-0.2,1.056,0.028
33.64,-0.365,0.799,-0.136
33.65,-0.195,1.192,-0.103
33.66,-0.082,0.941,0.059
33.67,-0.082,0.951,0.113
33.68,-0.228,0.924,-0.03
33.69,-0.317,0.985,-0.098
33.7,-0.185,1.098,-0.085
33.71,-0.092,0.781,0.109
33.72,-0.132,1.062,0.138
33.73,-0.301,0.831,-0.087
33.74,-0.337,1.082,-0.125
33.75,-0.218,0.934,-0.007
33.76,-0.073,0.999,0.151
33.77,-0.197,0.979,-0.138
33.78,-0.191,0.852,0.098
33.79,-0.096,0.923,0.177
33.8,-0.32,0.92,-0.064
33.81,-0.37,1.121,-0.13
33.82,-0.149,0.77,-0.077
33.83,-0.088,1.141,0.202
33.84,-0.141,0.806,0.066
33.85,-0.326,0.989,-0.159
33.86,-0.239,1.043,-0.077
33.87,-0.1,1.031,0.011
33.88,-0.113,0.909,0.142
33.89,-0.233,0.771,0.027
33.9,-0.336,1.217,-0.16
33.91,-0.146,0.926,-0.073
33.92,-0.166,1.11,0.072
33.93,-0.084,0.699,0.141
33.94,-0.353,0.99,0.008
33.95,-0.205,1.072,-0.196
33.96,-0.176,0.876,-0.056
33.97,-0.158,1.101,0.131
33.98,-0.102,0.74,0.119
33.99,-0.399,1.16,-0.127
34.0,-0.214,0.818,-0.139
34.01,-0.185,1.178,0.047
34.02,-0.082,0.926,0.127
34.03,-0.211,0.81,0.054
34.04,-0.321,1.142,-0.145
34.05,-0.159,0.941,-0.063
34.06,-0.138,1.201,-0.014
34.07,-0.1,0.614,0.18
34.08,-0.329,1.063,-0.01
34.09,-0.265,0.922,-0.13
34.1,-0.195,1.017,-0.074
34.11,-0.16,0.95,0.142
34.12,-0.103,0.789,0.192
34.13,-0.32,1.163,-0.128
34.14,-0.304,0.768,-0.119
34.15,-0.276,1.147,0.017
34.16,-0.025,0.84,0.175
34.17,-0.19,1.095,0.01
34.18,-0.378,0.803,-0.123
34.19,-0.173,1.116,-0.077
34.2,-0.098,1.068,0.07
34.21,-0.09,0.816,0.115
34.22,-0.322,1.021,-0.01
34.23,-0.28,0.871,-0.116
34.24,-0.145,1.216,-0.092
34.25,-0.117,0.739,0.07
34.26,-0.121,1.009,0.146
34.27,-0.3,0.91,-0.077
34.28,-0.273,1.014,-0.157
34.29,-0.187,1.01,-0.027
34.3,-0.147,0.851,0.233
34.31,-0.139,1.08,0.054
34.32,-0.38,0.802,-0.119
34.33,-0.21,1.2,-0.073
34.34,-0.068,0.985,0.005
34.35,-0.065,0.944,0.137
34.36,-0.194,0.866,0.008
34.37,-0.311,0.997,-0.128
34.38,-0.171,1.094,-0.061
34.39,-0.154,0.823,0.086
34.4,-0.117,1.007,0.118
34.41,-0.275,0.859,-0.041
34.42,-0.317,1.168,-0.16
34.43,-0.253,0.832,-0.012
34.44,-0.069,1.016,0.202
34.45,-0.142,0.917,0.076
34.46,-0.361,0.875,-0.124
34.47,-0.203,1.135,-0.103
34.48,-0.059,0.96,0.046
34.49,-0.108,1.048,0.123
34.5,-0.208,0.759,0.018
34.51,-0.373,1.148,-0.123
34.52,-0.079,1.009,-0.098
34.53,-0.191,0.96,0.079
34.54,-0.14,0.86,0.188
34.55,-0.264,0.892,-0.032
34.56,-0.295,1.173,-0.187
34.57,-0.158,0.769,-0.057
34.58,-0.093,1.117,0.126
34.59,-0.115,0.797,0.12
34.6,-0.406,1.052,-0.123
34.61,-0.281,0.934,-0.105
34.62,-0.159,1.022,0.019
34.63,-0.144,1.019,0.172
34.64,-0.207,0.774,0.073
34.65,-0.327,1.175,-0.168
34.66,-0.173,0.874,-0.066
34.67,-0.113,1.189,0.047
34.68,-0.074,0.804,0.139
34.69,-0.35,0.909,-0.017
34.7,-0.295,1.022,-0.126
34.71,-0.131,0.961,-0.03
34.72,-0.178,1.063,0.097
34.73,-0.227,0.651,0.145
34.74,-0.358,1.153,-0.087
34.75,-0.213,0.862,-0.155
34.76,-0.203,1.081,-0.006
34.77,-0.311,0.881,0.173
34.78,-0.146,0.913,0.054
34.79,-0.339,1.081,-0.185
34.8,-0.222,0.809,-0.083
34.81,-0.144,1.238,0.085
34.82,-0.072,0.725,0.179
34.83,-0.359,1.06,0.005
34.84,-0.307,0.886,-0.117
34.85,-0.081,1.09,-0.098
34.86,-0.589,0.946,0.195
34.87,-0.117,0.748,0.142
34.88,-0.274,1.176,-0.131
34.89,-0.214,0.791,-0.115
34.9,-0.265,1.174,-0.044
34.91,-0.041,0.781,0.192
34.92,-0.17,1.023,0.048
34.93,-0.365,0.937,-0.167
34.94,-0.244,0.974,-0.064
34.95,-0.256,1.152,0.087
34.96,-0.05,0.709,0.15
34.97,-0.268,1.064,0.003
34.98,-0.202,0.87,-0.191
34.99,-0.27,1.132,-0.08
35.0,-0.071,0.765,0.137
35.01,-0.113,1.082,0.151
35.02,-0.308,0.885,-0.15
35.03,-0.263,0.984,-0.118
35.04,-0.279,1.068,0.002
35.05,-0.04,0.838,0.185
35.06,-0.237,1.039,0.053
35.07,-0.32,0.81,-0.147
35.08,-0.225,1.264,-0.089
35.09,-0.118,0.841,0.041
35.1,-0.058,0.89,0.139
35.11,-0.232,0.909,-0.021
35.12,-0.307,1.112,-0.147
35.13,-0.197,1.037,-0.092
35.14,-0.136,0.778,0.095
35.15,-0.156,1.045,0.144
35.16,-0.374,0.854,-0.084
35.17,-0.345,1.104,-0.152
35.18,-0.187,0.853,0.006
35.19,-0.083,1.071,0.201
35.2,-0.178,0.92,0.084
35.21,-0.387,0.89,-0.131
35.22,-0.274,1.117,-0.052
35.23,-0.066,1.004,0.062
35.24,-0.152,1.009,0.119
35.25,-0.206,0.755,-0.006
35.26,-0.371,1.215,-0.127
35.27,-0.123,0.963,-0.053
35.28,-0.18,0.96,0.095
35.29,-0.122,0.872,0.137
35.3,-0.307,0.939,-0.066
35.31,-0.334,1.192,-0.137
35.32,-0.153,0.799,-0.081
35.33,-0.165,1.126,0.186
35.34,-0.09,0.758,0.064
35.35,-0.416,1.066,-0.112
35.36,-0.236,0.904,-0.121
35.37,-0.141,1.13,0.073
35.38,-0.087,0.974,0.11
35.39,-0.261,0.746,0.044
35.4,-0.366,1.179,-0.14
35.41,-0.136,0.953,-0.077
35.42,-0.129,1.145,0.074
35.43,-0.093,0.715,0.19
35.44,-0.374,1.003,-0.067
35.45,-0.236,1.065,-0.14
35.46,-0.204,0.915,-0.068
35.47,-0.29,1.026,0.189
35.48,-0.052,0.76,0.112
35.49,-0.41,1.185,-0.117
35.5,-0.263,0.738,-0.16
35.51,-0.152,1.205,0.051
35.52,-0.139,0.875,0.163
35.53,-0.248,0.845,0.05
35.54,-0.309,1.065,-0.137
35.55,-0.149,0.993,-0.055
35.56,-0.198,1.156,0.038
35.57,-0.081,0.638,0.166
35.58,-0.289,1.107,-0.006
35.59,-0.272,0.891,-0.152
35.6,-0.205,1.028,-0.122
35.61,-0.09,0.943,0.139
35.62,-0.103,0.829,0.151
35.63,-0.291,1.138,-0.105
35.64,-0.38,0.79,-0.16
35.65,-0.279,1.145,0.023
35.66,-0.0,0.856,0.179
35.67,-0.217,1.014,0.054
35.68,-0.307,0.863,-0.109
35.69,-0.194,1.038,-0.115
35.7,-0.074,1.107,0.008
35.71,-0.135,0.713,0.168
35.72,-0.233,1.096,0.053
35.73,-0.318,0.847,-0.138
35.74,-0.144,1.221,-0.092
35.75,-0.108,0.861,0.029
35.76,-0.088,0.872,0.136
35.77,-0.298,1.008,-0.032
35.78,-0.349,1.087,-0.123
35.79,-0.179,0.947,-0.014
35.8,-0.036,0.89,0.149
35.81,-0.215,1.04,0.07
35.82,-0.297,0.817,-0.141
35.83,-0.256,1.16,-0.096
35.84,-0.133,0.939,0.103
35.85,-0.046,1.084,0.123
35.86,-0.262,0.795,0.024
35.87,-0.323,1.006,-0.153
35.88,-0.15,1.137,-0.033
35.89,-0.116,0.864,0.033
35.9,-0.135,0.922,0.167
35.91,-0.332,0.835,-0.061
35.92,-0.237,1.248,-0.154
35.93,-0.199,0.845,-0.036
35.94,-0.154,0.986,0.194
35.95,-0.089,0.885,0.138
35.96,-0.348,1.0,-0.166
35.97,-0.252,1.013,-0.153
35.98,-0.236,0.902,0.096
35.99,-0.017,1.088,0.138
36.0,-0.253,0.74,0.012
36.01,-0.334,1.131,-0.161
36.02,-0.107,0.979,-0.085
36.03,-0.085,1.058,0.021
36.04,-0.099,0.772,0.137
36.05,-0.322,0.923,-0.011
36.06,-0.295,1.194,-0.162
36.07,-0.167,0.814,-0.054
36.08,-0.164,1.089,0.156
36.09,-0.133,0.774,0.123
36.1,-0.389,1.134,-0.113
36.11,-0.279,0.844,-0.113
36.12,-0.175,1.042,0.017
36.13,-0.102,1.032,0.162
36.14,-0.219,0.768,0.034
36.15,-0.389,1.11,-0.121
36.16,-0.17,0.853,-0.047
36.17,-0.386,1.268,0.039
36.18,-0.098,0.667,0.099
36.19,-0.253,0.981,0.011
36.2,-0.319,1.037,-0.134
36.21,-0.126,0.956,-0.113
36.22,-0.161,1.024,0.122
36.23,-0.111,0.708,0.14
36.24,-0.326,1.218,-0.098
36.25,-0.315,0.799,-0.126
36.26,-0.229,1.107,-0.018
36.27,-0.053,0.899,0.203
36.28,-0.23,0.939,0.057
36.29,-0.374,0.984,-0.161
36.3,-0.186,0.899,-0.053
36.31,-0.109,1.284,0.024
36.32,-0.047,0.609,0.117
36.33,-0.308,1.052,0.011
36.34,-0.301,0.876,-0.094
36.35,-0.185,1.101,-0.107
36.36,-0.109,0.903,0.009
36.37,-0.095,0.857,0.162
36.38,-0.264,1.121,-0.078
36.39,-0.358,0.784,-0.13
36.4,-0.233,1.111,-0.053
36.41,-0.008,0.841,0.167
36.42,-0.178,1.104,0.083
36.43,-0.312,0.844,-0.13
36.44,-0.253,0.979,-0.073
36.45,-0.115,1.156,0.04
36.46,-0.129,0.793,0.129
36.47,-0.251,1.031,0.062
36.48,-0.273,0.812,-0.15
36.49,-0.221,1.225,-0.043
36.5,-0.167,0.848,0.06
36.51,-0.069,0.901,0.164
36.52,-0.268,0.941,0.005
36.53,-0.276,1.064,-0.161
36.54,-0.243,1.03,-0.093
36.55,-0.089,0.77,0.124
36.56,-0.139,1.094,0.138
36.57,-0.323,0.881,-0.09
36.58,-0.276,1.1,-0.169
36.59,-0.12,0.843,-0.065
36.6,-0.09,1.175,0.145
36.61,-0.232,0.788,0.051
36.62,-0.417,0.985,-0.117
36.63,-0.121,1.048,-0.057
36.64,-0.085,1.058,0.071
36.65,-0.201,0.919,0.144
36.66,-0.203,0.767,0.026
36.67,-0.314,1.276,-0.135
36.68,-0.108,0.891,-0.104
36.69,-0.249,1.031,0.137
36.7,-0.101,0.802,0.164
36.71,-0.336,1.034,-0.087
36.72,-0.346,1.016,-0.08
36.73,-0.216,0.906,-0.043
36.74,-0.047,1.108,0.155
36.75,-0.167,0.738,0.021
36.76,-0.37,1.107,-0.097
36.77,-0.221,0.895,-0.117
36.78,-0.129,1.222,0.05
36.79,-0.062,0.788,0.132
36.8,-0.273,0.846,0.048
36.81,-0.316,1.131,-0.128
36.82,-0.154,0.937,-0.072
36.83,-0.176,1.183,0.063
36.84,-0.082,0.626,0.126
36.85,-0.306,1.094,-0.051
36.86,-0.263,0.971,-0.127
36.87,-0.198,1.002,-0.073
36.88,-0.077,0.921,0.128
36.89,-0.118,0.819,0.124
36.9,-0.402,1.143,-0.093
36.91,-0.293,0.768,-0.12
36.92,-0.144,1.208,-0.012
36.93,0.036,0.792,0.081
36.94,-0.216,0.972,0.043
36.95,-0.35,0.926,-0.115
36.96,-0.165,0.962,-0.079
36.97,-0.115,1.163,0.025
36.98,0.006,0.74,0.074
36.99,-0.262,1.105,0.003
37.0,-0.329,0.827,-0.128
37.01,-0.161,1.201,-0.08
37.02,-0.126,0.908,0.096
37.03,-0.166,0.86,0.148
37.04,-0.333,1.022,-0.036
37.05,-0.224,0.931,-0.132
37.06,-0.173,1.109,-0.071
37.07,-0.116,0.765,0.175
37.08,-0.144,1.092,0.061
37.09,-0.275,0.867,-0.113
37.1,-0.24,1.106,-0.147
37.11,-0.165,0.964,-0.003
37.12,-0.29,0.922,0.298
37.13,-0.215,1.028,0.044
37.14,-0.359,0.852,-0.131
37.15,-0.143,1.156,-0.116
37.16,-0.042,0.924,0.076
37.17,-0.059,1.023,0.074
37.18,-0.256,0.808,-0.055
37.19,-0.23,1.125,-0.123
37.2,-0.148,1.063,-0.064
37.21,-0.091,0.843,0.074
37.22,-0.163,0.989,0.148
37.23,-0.305,0.85,-0.095
37.24,-0.289,1.193,-0.119
37.25,-0.315,0.861,0.005
37.26,-0.109,1.058,0.179
37.27,-0.121,0.843,0.03
37.28,-0.298,0.981,-0.184
37.29,-0.304,1.093,-0.024
37.3,-0.008,0.927,0.005
37.31,-0.103,0.957,0.166
37.32,-0.265,0.795,-0.021
37.33,-0.304,1.236,-0.143
37.34,-0.14,0.909,-0.097
37.35,-0.188,1.008,0.128
37.36,-0.114,0.828,0.148
37.37,-0.331,0.96,-0.076
37.38,-0.298,1.051,-0.144
37.39,-0.171,0.867,-0.002
37.4,-0.131,1.14,0.163
37.41,-0.148,0.723,0.067
37.42,-0.339,1.164,-0.141
37.43,-0.217,0.891,-0.047
37.44,-0.08,1.239,-0.0
37.45,-0.087,0.728,0.147
37.46,-0.316,0.961,0.03
37.47,-0.24,1.088,-0.187
37.48,-0.139,0.943,-0.05
37.49,-0.127,1.104,0.065
37.5,-0.143,0.684,0.171
37.51,-0.318,1.165,-0.077
37.52,-0.325,0.82,-0.143
37.53,-0.274,1.038,-0.028
37.54,-0.137,0.979,0.195
37.55,-0.161,0.899,0.076
37.56,-0.402,0.985,-0.126
37.57,-0.162,0.804,-0.082
37.58,-0.458,1.312,0.161
37.59,-0.033,0.694,0.095
37.6,-0.244,1.024,0.033
37.61,-0.353,0.873,-0.15
37.62,-0.163,1.121,-0.07
37.63,-0.1,1.01,0.034
37.64,-0.129,0.727,0.12
37.65,-0.307,1.132,-0.012
37.66,-0.207,0.893,-0.17
37.67,-0.216,1.132,-0.062
37.68,-0.114,0.746,0.168
37.69,-0.127,1.055,0.15
37.7,-0.286,0.965,-0.195
37.71,-0.298,0.874,-0.082
37.72,-0.284,1.101,0.065
37.73,-0.04,0.862,0.138
37.74,-0.271,1.077,0.055
37.75,-0.315,0.785,-0.134
37.76,-0.181,1.213,-0.063
37.77,-0.104,0.88,0.061
37.78,-0.055,0.89,0.161
37.79,-0.268,0.969,-0.037
37.8,-0.315,0.981,-0.178
37.81,-0.217,1.078,-0.066
37.82,-0.098,0.799,0.133
37.83,-0.188,1.084,0.12
37.84,-0.329,0.844,-0.081
37.85,-0.265,1.108,-0.125
37.86,-0.262,0.942,0.031
37.87,-0.053,0.944,0.195
37.88,-0.153,1.002,0.029
37.89,-0.35,0.847,-0.139
37.9,-0.231,1.226,-0.096
37.91,-0.114,0.884,0.047
37.92,-0.073,0.966,0.122
37.93,-0.242,0.853,0.023
37.94,-0.34,1.142,-0.136
37.95,-0.201,0.964,-0.068
37.96,-0.135,0.913,0.151
37.97,-0.105,0.967,0.121
37.98,-0.347,0.863,-0.082
37.99,-0.294,1.153,-0.182
38.0,-0.184,0.84,0.004
38.01,-0.104,1.099,0.174
38.02,-0.186,0.802,0.101
38.03,-0.365,1.003,-0.132
38.04,-0.181,1.021,-0.112
38.05,-0.129,0.995,0.036
38.06,-0.437,1.002,0.23
38.07,-0.206,0.731,-0.013
38.08,-0.353,1.216,-0.154
38.09,-0.112,0.966,-0.04
38.1,-0.191,1.08,0.044
38.11,-0.141,0.721,0.212
38.12,-0.354,0.979,-0.045
38.13,-0.278,1.124,-0.148
38.14,-0.171,0.867,-0.07
38.15,-0.123,1.085,0.137
38.16,-0.111,0.742,0.131
38.17,-0.352,1.139,-0.161
38.18,-0.292,0.808,-0.107
38.19,-0.178,1.101,0.028
38.2,-0.062,0.962,0.165
38.21,-0.228,0.841,0.034
38.22,-0.346,1.111,-0.151
38.23,-0.138,1.017,-0.034
38.24,-0.152,1.097,0.028
38.25,-0.146,0.637,0.171
38.26,-0.318,1.17,-0.057
38.27,-0.237,0.878,-0.16
38.28,-0.228,1.09,-0.04
38.29,-0.361,0.876,0.327
38.3,-0.124,0.936,0.112
38.31,-0.352,1.054,-0.164
38.32,-0.22,0.789,-0.118
38.33,-0.15,1.24,0.071
38.34,0.008,0.742,0.14
38.35,-0.305,1.09,0.033
38.36,-0.322,0.859,-0.15
38.37,-0.262,1.136,-0.016
38.38,-0.145,0.963,0.084
38.39,-0.112,0.777,0.148
38.4,-0.282,1.106,-0.062
38.41,-0.325,0.844,-0.17
38.42,-0.196,1.164,-0.057
38.43,-0.137,0.796,0.203
38.44,-0.126,1.019,0.085
38.45,-0.354,0.916,-0.139
38.46,-0.219,0.987,-0.101
38.47,-0.219,1.106,0.076
38.48,-0.02,0.734,0.158
38.49,-0.282,1.073,-0.001
38.5,-0.333,0.843,-0.104
38.51,-0.208,1.189,-0.112
38.52,-0.151,0.832,0.081
38.53,-0.058,0.94,0.167
38.54,-0.275,1.017,-0.058
38.55,-0.344,0.946,-0.17
38.56,-0.206,1.023,-0.086
38.57,-0.082,0.855,0.179
38.58,-0.172,1.112,0.075
38.59,-0.37,0.789,-0.118
38.6,-0.234,1.096,-0.094
38.61,-0.189,1.005,0.072
38.62,-0.046,0.884,0.107
38.63,-0.205,0.97,0.026
38.64,-0.355,0.933,-0.15
38.65,-0.135,1.209,-0.064
38.66,-0.135,0.804,0.058
38.67,-0.148,0.969,0.142
38.68,-0.262,0.88,-0.043
38.69,-0.295,1.152,-0.166
38.7,-0.217,0.904,-0.052
38.71,-0.148,0.947,0.158
38.72,-0.164,1.008,0.107
38.73,-0.386,0.826,-0.14
38.74,-0.242,1.124,-0.119
38.75,-0.074,0.969,0.051
38.76,-0.047,1.051,0.1
38.77,-0.245,0.775,0.062
38.78,-0.395,1.083,-0.096
38.79,-0.111,1.143,-0.083
38.8,-0.107,0.918,0.014
38.81,-0.159,0.893,0.179
38.82,-0.209,0.87,-0.016
38.83,-0.426,1.257,-0.163
38.84,-0.163,0.773,-0.114
38.85,-0.165,1.067,0.187
38.86,-0.056,0.827,0.09
38.87,-0.376,0.981,-0.119
38.88,-0.255,0.989,-0.106
38.89,-0.185,0.985,0.015
38.9,-0.014,1.079,0.128
38.91,-0.194,0.711,-0.0
38.92,-0.394,1.163,-0.128
38.93,-0.17,1.009,-0.076
38.94,-0.133,1.095,0.048
38.95,-0.112,0.743,0.178
38.96,-0.318,0.932,0.005
38.97,-0.326,1.14,-0.152
38.98,-0.209,0.839,-0.071
38.99,-0.085,1.131,0.12
39.0,-0.086,0.793,0.153
39.01,-0.378,1.085,-0.157
39.02,-0.25,0.803,-0.11
39.03,-0.191,1.106,-0.009
39.04,-0.067,1.004,0.197
39.05,-0.221,0.897,0.018
39.06,-0.337,1.005,-0.152
39.07,-0.159,1.004,-0.067
39.08,-0.15,1.204,0.026
39.09,-0.074,0.62,0.17
39.1,-0.343,1.098,-0.022
39.11,-0.314,0.886,-0.128
39.12,-0.269,1.136,-0.06
39.13,-0.143,0.869,0.098
39.14,-0.143,0.847,0.167
39.15,-0.238,1.14,-0.11
39.16,-0.362,0.838,-0.136
39.17,-0.184,1.11,-0.03
39.18,0.013,0.839,0.214
39.19,-0.149,1.035,0.025
39.2,-0.376,0.809,-0.126
39.21,-0.218,1.032,-0.055
39.22,-0.084,1.123,0.029
39.23,-0.066,0.74,0.162
39.24,-0.258,1.075,0.022
39.25,-0.347,0.849,-0.158
39.26,-0.158,1.215,-0.075
39.27,-0.128,0.813,0.088
39.28,-0.13,0.921,0.148
39.29,-0.252,0.974,-0.059
39.3,-0.281,1.022,-0.17
39.31,-0.199,1.011,-0.044
39.32,-0.092,0.823,0.176
39.33,-0.184,1.124,0.103
39.34,-0.365,0.815,-0.121
39.35,-0.276,1.077,-0.138
39.36,-0.171,0.99,0.092
39.37,-0.009,0.965,0.14
39.38,-0.242,0.9,0.012
39.39,-0.326,0.944,-0.086
39.4,-0.166,1.223,-0.09
39.41,-0.128,0.825,0.043
39.42,-0.105,0.951,0.138
39.43,-0.321,0.882,-0.008
39.44,-0.343,1.177,-0.193
39.45,-0.215,0.899,-0.067
39.46,-0.14,0.936,0.114
39.47,-0.189,0.96,0.191
39.48,-0.299,0.903,-0.127
39.49,-0.309,1.126,-0.113
39.5,-0.186,0.834,0.002
39.51,-0.039,1.168,0.171
39.52,-0.154,0.789,-0.01
39.53,-0.364,1.028,-0.143
39.54,-0.164,1.063,-0.068
39.55,-0.091,1.024,0.019
39.56,-0.097,0.908,0.16
39.57,-0.271,0.788,0.012
39.58,-0.344,1.229,-0.174
39.59,-0.171,0.863,-0.096
39.6,-0.119,1.071,0.075
39.61,-0.069,0.767,0.142
39.62,-0.366,1.018,-0.038
39.63,-0.282,1.015,-0.147
39.64,-0.177,0.884,-0.029
39.65,-0.18,1.067,0.169
39.66,-0.147,0.752,0.121
39.67,-0.374,1.144,-0.142
39.68,-0.28,0.819,-0.099
39.69,-0.128,1.185,0.027
39.7,-0.068,0.899,0.148
39.71,-0.21,0.848,0.046
39.72,-0.339,1.049,-0.155
39.73,-0.2,0.941,-0.062
39.74,-0.18,1.167,0.057
39.75,-0.048,0.606,0.158
39.76,-0.348,1.134,-0.023
39.77,-0.264,0.917,-0.14
39.78,-0.219,1.032,-0.074
39.79,-0.062,0.946,0.138
39.8,-0.109,0.839,0.147
39.81,-0.338,1.143,-0.106
39.82,-0.239,0.76,-0.166
39.83,-0.203,1.195,0.007
39.84,-0.092,0.807,0.165
39.85,-0.217,1.017,0.062
39.86,-0.324,0.874,-0.139
39.87,-0.189,1.151,-0.065
39.88,-0.081,0.992,0.004
39.89,-0.089,0.815,0.172
39.9,-0.257,1.018,-0.014
39.91,-0.283,0.911,-0.119
39.92,-0.142,1.171,-0.09
39.93,-0.098,0.772,0.09
39.94,-0.133,1.007,0.138
39.95,-0.29,0.919,-0.111
39.96,-0.323,1.05,-0.108
39.97,-0.194,1.01,-0.022
39.98,-0.02,0.868,0.1
39.99,-0.189,1.079,0.064
40.0,-0.303,0.833,-0.132
40.01,-0.244,1.152,-0.116
40.02,-0.418,0.911,0.186
40.03,-0.051,1.049,0.126
40.04,-0.205,0.834,-0.013
40.05,-0.376,0.974,-0.137
40.06,-0.157,1.097,-0.057
40.07,-0.104,0.876,0.076
40.08,-0.138,0.964,0.113
40.09,-0.333,0.835,-0.046
40.1,-0.255,1.249,-0.144
40.11,-0.202,0.86,-0.062
40.12,-0.134,0.944,0.157
40.13,-0.129,0.888,0.118
40.14,-0.316,0.972,-0.147
40.15,-0.259,1.051,-0.098
40.16,-0.191,0.877,0.016
40.17,-0.094,1.104,0.163
40.18,-0.205,0.731,0.01
40.19,-0.392,1.117,-0.141
40.2,-0.104,1.0,-0.038
40.21,-0.353,1.079,0.068
40.22,-0.124,0.84,0.158
40.23,-0.302,0.897,-0.023
40.24,-0.306,1.193,-0.135
40.25,-0.145,0.812,-0.045
40.26,-0.188,1.096,0.095
40.27,-0.105,0.739,0.159
40.28,-0.391,1.131,-0.112
40.29,-0.262,0.902,-0.15
40.3,-0.234,1.012,-0.013
40.31,-0.078,1.044,0.212
40.32,-0.113,0.771,-0.002
40.33,-0.366,1.148,-0.126
40.34,-0.253,0.891,-0.054
40.35,-0.122,1.242,0.046
40.36,-0.044,0.687,0.142
40.37,-0.318,0.975,-0.023
40.38,-0.273,1.044,-0.13
40.39,-0.199,0.954,-0.124
40.4,-0.133,1.062,0.134
40.41,-0.088,0.734,0.13
40.42,-0.389,1.161,-0.077
40.43,-0.307,0.783,-0.155
40.44,-0.219,1.097,-0.036
40.45,-0.074,0.896,0.18
40.46,-0.161,0.911,0.08
40.47,-0.358,1.014,-0.125
40.48,-0.263,0.791,-0.052
40.49,-0.19,1.273,0.064
40.5,0.017,0.751,0.116
40.51,-0.254,1.053,0.003
40.52,-0.288,0.825,-0.147
40.53,-0.157,1.183,-0.056
40.54,-0.122,1.008,0.048
40.55,-0.044,0.712,0.147
40.56,-0.342,1.124,0.005
40.57,-0.221,0.862,-0.179
40.58,-0.244,1.094,-0.048
40.59,-0.309,0.756,0.225
40.6,-0.122,1.048,0.089
40.61,-0.373,0.94,-0.088
40.62,-0.232,0.937,-0.137
40.63,-0.355,1.099,-0.006
40.64,0.01,0.795,0.138
40.65,-0.212,1.099,0.053
40.66,-0.339,0.798,-0.143
40.67,-0.274,1.234,-0.051
40.68,-0.133,0.861,0.056
40.69,-0.117,0.998,0.131
40.7,-0.311,0.846,-0.044
40.71,-0.289,1.14,-0.128
40.72,-0.184,0.959,-0.055
40.73,-0.11,0.834,0.084
40.74,-0.146,1.001,0.144
40.75,-0.336,0.871,-0.093
40.76,-0.267,1.134,-0.127
40.77,-0.234,0.864,0.024
40.78,-0.085,1.074,0.169
40.79,-0.182,0.863,0.056
40.8,-0.362,0.997,-0.149
40.81,-0.22,1.049,-0.077
40.82,-0.054,1.012,0.038
40.83,-0.129,0.947,0.16
40.84,-0.276,0.749,0.022
40.85,-0.285,1.244,-0.131
40.86,-0.196,0.891,-0.103
40.87,-0.164,1.006,0.118
40.88,-0.136,0.828,0.152
40.89,-0.327,0.996,-0.061
40.9,-0.315,1.06,-0.126
40.91,-0.18,0.859,-0.044
40.92,-0.162,1.152,0.193
40.93,-0.106,0.743,0.078
40.94,-0.411,1.114,-0.103
40.95,-0.161,0.85,-0.126
40.96,-0.213,1.164,0.08
40.97,-0.056,0.856,0.126
40.98,-0.21,0.819,0.011
40.99,-0.372,1.15,-0.122
41.0,-0.148,0.914,-0.066
41.01,-0.119,1.18,0.068
41.02,-0.026,0.657,0.153
41.03,-0.376,1.072,-0.021
41.04,-0.267,0.923,-0.165
41.05,-0.252,0.972,-0.053
41.06,-0.14,1.008,0.146
41.07,-0.103,0.785,0.116
41.08,-0.407,1.127,-0.128
41.09,-0.236,0.739,-0.118
41.1,-0.206,1.219,-0.021
41.11,-0.019,0.807,0.159
41.12,-0.209,0.953,0.031
41.13,-0.331,0.951,-0.092
41.14,-0.222,0.95,-0.065
41.15,-0.156,1.206,0.051
41.16,-0.073,0.7,0.133
41.17,-0.283,1.088,0.014
41.18,-0.301,0.861,-0.137
41.19,-0.242,1.189,-0.051
41.2,-0.09,0.854,0.085
41.21,-0.112,0.869,0.13
41.22,-0.313,1.058,-0.048
41.23,-0.271,0.874,-0.162
41.24,-0.236,1.086,-0.037
41.25,-0.104,0.777,0.155
41.26,-0.137,1.139,0.081
41.27,-0.359,0.859,-0.123
41.28,-0.248,0.997,-0.124
41.29,-0.219,1.048,0.04
41.3,-0.007,0.888,0.111
41.31,-0.246,1.02,0.05
41.32,-0.371,0.802,-0.111
41.33,-0.161,1.232,-0.067
41.34,-0.111,0.835,0.013
41.35,-0.111,0.967,0.145
41.36,-0.28,0.901,-0.017
41.37,-0.291,1.082,-0.159
41.38,-0.22,0.983,-0.051
41.39,-0.119,0.863,0.111
41.4,-0.184,1.094,0.166
41.41,-0.323,0.839,-0.1
41.42,-0.317,1.109,-0.139
41.43,-0.15,0.86,-0.042
41.44,-0.085,1.085,0.166
41.45,-0.194,0.914,0.073
41.46,-0.354,0.924,-0.147
41.47,-0.229,1.092,-0.076
41.48,-0.298,0.975,0.083
41.49,-0.113,1.021,0.132
41.5,-0.258,0.757,-0.015
41.51,-0.372,1.194,-0.137
41.52,-0.121,0.89,-0.081
41.53,-0.172,1.094,0.098
41.54,-0.101,0.685,0.144
41.55,-0.329,1.039,-0.033
41.56,-0.258,1.051,-0.16
41.57,-0.18,0.913,-0.033
41.58,-0.154,1.048,0.166
41.59,-0.146,0.727,0.086
41.6,-0.373,1.173,-0.114
41.61,-0.267,0.761,-0.135
41.62,-0.205,1.14,0.026
41.63,-0.119,0.929,0.247
41.64,-0.185,0.887,0.026
41.65,-0.351,1.019,-0.166
41.66,-0.166,0.902,-0.047
41.67,-0.074,1.259,0.022
41.68,-0.067,0.663,0.136
41.69,-0.342,1.087,0.012
41.7,-0.234,0.887,-0.144
41.71,-0.28,1.066,-0.006
41.72,-0.199,0.957,0.113
41.73,-0.114,0.823,0.157
41.74,-0.309,1.145,-0.095
41.75,-0.277,0.769,-0.129
41.76,-0.214,1.151,-0.033
41.77,-0.088,0.869,0.207
41.78,-0.175,1.046,0.046
41.79,-0.326,0.879,-0.123
41.8,-0.235,1.009,-0.065
41.81,-0.245,1.155,0.018
41.82,-0.054,0.722,0.131
41.83,-0.232,1.066,0.026
41.84,-0.344,0.816,-0.131
41.85,-0.196,1.196,-0.091
41.86,-0.108,0.866,0.087
41.87,-0.07,0.931,0.125
41.88,-0.316,0.99,-0.025
41.89,-0.238,0.954,-0.188
41.9,-0.297,1.074,-0.018
41.91,-0.091,0.758,0.119
41.92,-0.177,1.091,0.118
41.93,-0.285,0.826,-0.107
41.94,-0.306,1.082,-0.118
41.95,-0.13,0.899,-0.057
41.96,-0.118,0.996,0.227
41.97,-0.169,0.974,0.047
41.98,-0.43,0.83,-0.133
41.99,-0.239,1.141,-0.093
42.0,-0.105,0.972,0.103
42.01,-0.151,1.019,0.139
42.02,-0.187,0.783,0.001
42.03,-0.32,1.153,-0.139
42.04,-0.112,1.049,-0.086
42.05,-0.118,0.856,-0.015
42.06,-0.115,0.879,0.166
42.07,-0.303,0.898,-0.046
42.08,-0.305,1.208,-0.166
42.09,-0.153,0.837,-0.036
42.1,-0.125,1.096,0.176
42.11,-0.355,1.055,-0.137
42.12,-0.202,1.028,-0.062
42.13,-0.079,1.074,0.004
42.14,-0.149,0.894,0.154
42.15,-0.229,0.763,0.012
42.16,-0.374,1.214,-0.117
42.17,-0.084,0.875,-0.121
42.18,-0.158,1.111,0.122
42.19,-0.075,0.727,0.134
42.2,-0.343,1.059,-0.067
42.21,-0.311,0.979,-0.153
42.22,-0.191,0.913,-0.025
42.23,-0.152,1.101,0.144
42.24,-0.122,0.785,0.115
42.25,-0.385,1.071,-0.136
42.26,-0.215,0.802,-0.09
42.27,-0.29,1.312,0.095
42.28,-0.054,0.736,0.098
42.29,-0.248,1.002,0.014
42.3,-0.357,0.913,-0.145
42.31,-0.188,1.057,-0.049
42.32,-0.119,1.068,0.046
42.33,-0.063,0.683,0.131
42.34,-0.347,1.122,-0.052
42.35,-0.255,0.879,-0.125
42.36,-0.193,1.181,-0.08
42.37,-0.107,0.808,0.118
42.38,-0.158,0.99,0.128
42.39,-0.292,0.975,-0.102
42.4,-0.28,0.878,-0.146
42.41,-0.242,1.11,0.016
42.42,-0.025,0.799,0.181
42.43,-0.232,1.103,0.044
42.44,-0.3,0.776,-0.158
42.45,-0.266,1.175,-0.025
42.46,-0.055,0.972,0.009
42.47,-0.124,0.889,0.137
42.48,-0.241,0.969,0.031
42.49,-0.363,0.939,-0.134
42.5,-0.117,1.178,-0.078
42.51,-0.14,0.764,0.12
42.52,-0.143,1.013,0.142
42.53,-0.289,0.914,-0.042
42.54,-0.34,1.108,-0.191
42.55,-0.151,0.907,-0.045
42.56,-0.279,0.946,0.153
42.57,-0.197,1.054,0.067
42.58,-0.315,0.846,-0.138
42.59,-0.252,1.149,-0.112
42.6,-0.109,0.907,0.037
42.61,-0.093,1.04,0.136
42.62,-0.229,0.795,0.04
42.63,-0.314,1.068,-0.126
42.64,-0.191,1.136,-0.083
42.65,-0.214,0.847,0.043
42.66,-0.073,0.967,0.196
42.67,-0.248,0.842,-0.054
42.68,-0.38,1.201,-0.183
42.69,-0.157,0.85,-0.061
42.7,-0.129,1.036,0.14
42.71,-0.14,0.827,0.136
42.72,-0.347,0.986,-0.076
42.73,-0.25,1.072,-0.135
42.74,-0.18,0.886,-0.0
42.75,-0.098,1.091,0.116
42.76,-0.163,0.777,0.072
42.77,-0.356,1.152,-0.16
42.78,-0.216,0.884,-0.087
42.79,-0.137,1.146,0.067
42.8,-0.038,0.911,0.151
42.81,-0.279,0.805,0.004
42.82,-0.315,1.105,-0.137
42.83,-0.114,0.941,-0.059
42.84,-0.146,1.151,0.076
42.85,-0.142,0.656,0.151
42.86,-0.378,1.109,-0.057
42.87,-0.238,0.923,-0.151
42.88,-0.202,0.993,-0.042
42.89,-0.078,1.006,0.152
42.9,-0.166,0.78,0.095
42.91,-0.339,1.118,-0.151
42.92,-0.26,0.793,-0.078
42.93,-0.196,1.239,0.061
42.94,0.005,0.786,0.147
42.95,-0.233,0.978,0.009
42.96,-0.393,0.973,-0.128
42.97,-0.099,0.976,-0.112
42.98,-0.155,1.1,0.083
42.99,-0.083,0.68,0.161
43.0,-0.344,1.156,-0.063
43.01,-0.267,0.835,-0.147
43.02,-0.169,1.151,-0.052
43.03,-0.19,0.843,0.186
43.04,-0.165,0.89,0.146
43.05,-0.277,1.09,-0.11
43.06,-0.241,0.968,-0.113
43.07,-0.235,1.099,0.069
43.08,0.036,0.823,0.122
43.09,-0.271,1.057,-0.018
43.1,-0.343,0.786,-0.13
43.11,-0.129,1.23,-0.096
43.12,-0.114,0.866,0.078
43.13,-0.117,0.895,0.152
43.14,-0.315,0.96,-0.031
43.15,-0.208,0.958,-0.174
43.16,-0.189,1.105,-0.015
43.17,-0.097,0.804,0.136
43.18,-0.144,1.09,0.098
43.19,-0.307,0.876,-0.129
43.2,-0.256,1.074,-0.147
43.21,-0.29,0.959,0.028
43.22,0.001,0.994,0.169
43.23,-0.258,0.948,0.026
43.24,-0.341,0.84,-0.14
43.25,-0.285,1.23,-0.041
43.26,-0.067,0.873,0.061
43.27,-0.151,0.994,0.121
43.28,-0.255,0.825,-0.038
43.29,-0.31,1.165,-0.143
43.3,-0.216,0.93,-0.09
43.31,-0.13,0.834,0.128
43.32,-0.146,0.992,0.138
43.33,-0.293,0.876,-0.097
43.34,-0.361,1.114,-0.128
43.35,-0.201,0.829,0.018
43.36,-0.052,1.192,0.19
43.37,-0.225,0.781,0.042
43.38,-0.364,0.977,-0.117
43.39,-0.28,1.096,-0.057
43.4,-0.046,0.972,0.038
43.41,-0.151,0.921,0.138
43.42,-0.281,0.795,-0.02
43.43,-0.309,1.251,-0.155
43.44,-0.073,0.88,-0.109
43.45,-0.181,1.032,0.083
43.46,-0.171,0.797,0.175
43.47,-0.297,1.027,-0.076
43.48,-0.319,1.065,-0.134
43.49,-0.173,0.828,-0.057
43.5,-0.128,1.147,0.231
43.51,-0.138,0.735,0.04
43.52,-0.422,1.101,-0.093
43.53,-0.236,0.883,-0.091
43.54,-0.06,1.207,0.037
43.55,-0.11,0.839,0.131
43.56,-0.277,0.828,0.024
43.57,-0.301,1.136,-0.14
43.58,-0.119,0.921,-0.079
43.59,-0.175,1.146,0.047
43.6,-0.1,0.655,0.129
43.61,-0.372,1.137,-0.011
43.62,-0.233,0.906,-0.18
43.63,-0.187,0.978,-0.026
43.64,-0.165,1.004,0.183
43.65,-0.108,0.786,0.074
43.66,-0.427,1.144,-0.106
43.67,-0.199,0.733,-0.109
43.68,-0.195,1.288,0.103
43.69,0.031,0.799,0.12
43.7,-0.241,0.978,0.043
43.71,-0.308,0.992,-0.153
43.72,-0.153,1.05,-0.054
43.73,-0.193,1.128,0.019
43.74,-0.052,0.64,0.178
43.75,-0.343,1.16,-0.036
43.76,-0.263,0.844,-0.179
43.77,-0.259,1.061,-0.072
43.78,-0.073,0.823,0.102
43.79,-0.125,0.95,0.137
43.8,-0.335,0.997,-0.109
43.81,-0.298,0.807,-0.102
43.82,-0.183,1.197,0.01
43.83,-0.061,0.812,0.166
43.84,-0.234,1.038,0.054
43.85,-0.357,0.824,-0.117
43.86,-0.165,1.135,-0.085
43.87,-0.145,1.031,0.035
43.88,-0.093,0.912,0.166
43.89,-0.27,0.959,-0.037
43.9,-0.258,1.005,-0.143
43.91,-0.221,1.069,-0.019
43.92,-0.093,0.803,0.129
43.93,-0.178,1.094,0.14
43.94,-0.31,0.833,-0.122
43.95,-0.308,1.09,-0.093
43.96,-0.235,0.926,-0.022
43.97,-0.112,1.015,0.18
43.98,-0.162,0.951,0.044
43.99,-0.388,0.879,-0.098
44.0,-0.143,1.138,-0.109
44.01,-0.106,0.987,0.084
44.02,-0.128,1.031,0.125
44.03,-0.232,0.769,0.002
44.04,-0.332,1.141,-0.127
44.05,-0.142,1.071,-0.059
44.06,-0.21,0.893,0.059
44.07,-0.155,0.854,0.165
44.08,-0.322,0.901,-0.041
44.09,-0.261,1.227,-0.176
44.1,-0.203,0.795,-0.045
44.11,-0.108,1.071,0.162
44.12,-0.118,0.832,0.13
44.13,-0.341,1.018,-0.163
44.14,-0.272,0.932,-0.116
44.15,-0.194,0.986,0.062
44.16,-0.089,1.065,0.182
44.17,-0.24,0.749,0.008
44.18,-0.332,1.141,-0.15
44.19,-0.179,0.904,-0.061
44.2,-0.079,1.126,0.046
44.21,-0.083,0.733,0.145
44.22,-0.376,0.957,-0.018
44.23,-0.206,1.076,-0.143
44.24,-0.221,0.899,-0.017
44.25,-0.179,1.049,0.137
44.26,-0.121,0.745,0.111
44.27,-0.37,1.186,-0.097
44.28,-0.235,0.792,-0.14
44.29,-0.181,1.124,0.041
44.3,-0.035,0.942,0.154
44.31,-0.17,0.832,0.025
44.32,-0.343,1.1,-0.14
44.33,-0.283,0.906,-0.071
44.34,-0.113,1.229,0.051
44.35,-0.065,0.664,0.144
44.36,-0.318,1.036,-0.011
44.37,-0.308,0.945,-0.152
44.38,-0.106,1.044,-0.074
44.39,-0.117,0.986,0.134
44.4,-0.136,0.746,0.137
44.41,-0.346,1.155,-0.069
44.42,-0.277,0.819,-0.147
44.43,-0.217,1.131,-0.047
44.44,-0.044,0.785,0.155
44.45,-0.159,1.033,0.065
44.46,-0.336,0.926,-0.139
44.47,-0.192,0.893,-0.107
44.48,-0.192,1.201,0.103
44.49,-0.012,0.678,0.138
44.5,-0.247,1.078,0.017
44.51,-0.305,0.854,-0.155
44.52,-0.249,1.203,-0.086
44.53,-0.098,0.92,0.061
44.54,-0.091,0.874,0.146
44.55,-0.317,1.042,-0.06
44.56,-0.233,0.903,-0.115
44.57,-0.246,1.12,-0.049
44.58,-0.065,0.757,0.17
44.59,-0.198,1.12,0.099
44.6,-0.324,0.871,-0.117
44.61,-0.257,1.067,-0.116
44.62,-0.244,1.021,0.045
44.63,-0.004,0.891,0.141
44.64,-0.234,1.002,0.032
44.65,-0.28,0.818,-0.129
44.66,-0.326,1.25,-0.006
44.67,-0.012,0.819,0.023
44.68,-0.136,1.022,0.144
44.69,-0.277,0.853,-0.023
44.7,-0.276,1.195,-0.174
44.71,-0.177,0.871,-0.047
44.72,-0.154,0.956,0.126
44.73,-0.166,0.971,0.17
44.74,-0.29,0.93,-0.147
44.75,-0.295,1.054,-0.118
44.76,-0.192,0.9,0.047
44.77,-0.05,1.109,0.141
44.78,-0.139,0.74,0.025
44.79,-0.39,1.073,-0.136
44.8,-0.237,0.993,-0.038
44.81,-0.098,1.056,0.037
44.82,-0.122,0.895,0.156
44.83,-0.263,0.841,-0.018
44.84,-0.304,1.258,-0.148
44.85,-0.181,0.842,-0.092
44.86,-0.125,1.06,0.106
44.87,-0.151,0.742,0.159
44.88,-0.359,1.064,-0.08
44.89,-0.304,0.963,-0.142
44.9,-0.163,0.93,-0.024
44.91,-0.191,1.106,0.193
44.92,-0.145,0.761,0.095
44.93,-0.361,1.164,-0.129
44.94,-0.226,0.821,-0.122
44.95,-0.208,1.214,0.066
44.96,0.011,0.815,0.142
44.97,-0.247,0.896,-0.015
44.98,-0.365,1.037,-0.129
44.99,-0.147,0.974,-0.1
45.0,-0.353,1.154,0.098
45.01,-0.066,0.627,0.118
45.02,-0.367,1.139,-0.017
45.03,-0.21,0.908,-0.17
45.04,-0.201,1.027,-0.06
45.05,-0.104,0.912,0.125
45.06,-0.117,0.857,0.132
45.07,-0.392,1.131,-0.117
45.08,-0.269,0.708,-0.118
45.09,-0.188,1.227,-0.009
45.1,-0.094,0.795,0.165
45.11,-0.176,1.027,0.037
45.12,-0.343,0.891,-0.129
45.13,-0.199,1.025,-0.059
45.14,-0.149,1.159,0.068
45.15,-0.097,0.729,0.156
45.16,-0.273,1.085,0.019
45.17,-0.248,0.882,-0.132
45.18,-0.209,1.208,-0.073
45.19,-0.129,0.788,0.114
45.2,-0.096,0.948,0.156
45.21,-0.269,0.971,-0.073
45.22,-0.294,0.892,-0.153
45.23,-0.192,1.091,-0.008
45.24,-0.077,0.866,0.132
45.25,-0.169,1.111,0.091
45.26,-0.315,0.815,-0.124
45.27,-0.296,1.122,-0.098
45.28,-0.193,0.955,0.023
45.29,-0.075,0.947,0.169
45.3,-0.161,0.95,0.029
45.31,-0.379,0.865,-0.152
45.32,-0.251,1.158,-0.035
45.33,-0.089,0.88,0.062
45.34,-0.099,0.977,0.133
45.35,-0.241,0.832,-0.034
45.36,-0.343,1.162,-0.14
45.37,-0.144,0.963,-0.077
45.38,-0.104,0.876,0.099
45.39,-0.138,0.974,0.123
45.4,-0.374,0.898,-0.073
45.41,-0.326,1.111,-0.121
45.42,-0.125,0.839,-0.008
45.43,-0.126,1.124,0.144
45.44,-0.189,0.808,0.085
45.45,-0.37,1.02,-0.114
45.46,-0.231,1.007,-0.12
45.47,-0.112,1.031,0.044
45.48,-0.103,0.995,0.118
45.49,-0.217,0.738,-0.003
45.5,-0.339,1.217,-0.144
45.51,-0.095,0.844,-0.087
45.52,-0.109,1.101,0.09
45.53,-0.111,0.725,0.134
45.54,-0.339,1.102,-0.046
45.55,-0.285,0.895,-0.202
45.56,-0.188,0.925,-0.012
45.57,-0.158,1.036,0.183
45.58,-0.132,0.78,0.093
45.59,-0.389,1.151,-0.135
45.6,-0.149,0.777,-0.093
45.61,-0.194,1.271,0.055
45.62,0.051,0.789,0.042
45.63,-0.259,0.969,0.031
45.64,-0.317,0.983,-0.15
45.65,-0.142,0.979,-0.08
45.66,-0.194,1.168,0.163
45.67,-0.091,0.675,0.169
45.68,-0.297,1.09,-0.044
45.69,-0.274,0.875,-0.11
45.7,-0.212,1.132,-0.064
45.71,-0.112,0.841,0.104
45.72,-0.166,0.907,0.14
45.73,-0.35,1.082,-0.079
45.74,-0.232,0.818,-0.171
45.75,-0.196,1.127,-0.013
45.76,-0.068,0.794,0.234
45.77,-0.157,1.101,0.065
45.78,-0.37,0.806,-0.135
45.79,-0.228,1.034,-0.129
45.8,-0.219,1.096,0.095
45.81,-0.001,0.818,0.114
45.82,-0.297,1.029,0.009
45.83,-0.306,0.849,-0.125
45.84,-0.137,1.249,-0.059
45.85,-0.309,0.772,0.131
45.86,-0.115,0.945,0.141
45.87,-0.27,0.949,-0.062
45.88,-0.25,1.059,-0.157
45.89,-0.278,0.987,-0.062
45.9,-0.106,0.791,0.153
45.91,-0.195,1.104,0.13
45.92,-0.286,0.855,-0.155
45.93,-0.293,1.122,-0.112
45.94,-0.254,0.912,0.036
45.95,-0.021,1.013,0.197
45.96,-0.164,0.88,0.003
45.97,-0.359,0.922,-0.121
45.98,-0.208,1.182,-0.077
45.99,-0.043,0.884,0.026
46.0,-0.098,0.96,0.129
46.01,-0.283,0.822,0.006
46.02,-0.325,1.217,-0.16
46.03,-0.14,0.911,-0.095
46.04,-0.142,0.928,0.111
46.05,-0.149,0.898,0.175
46.06,-0.359,0.95,-0.094
46.07,-0.27,1.073,-0.134
46.08,-0.257,0.848,-0.028
46.09,-0.049,1.163,0.195
46.1,-0.125,0.781,0.051
46.11,-0.383,1.048,-0.137
46.12,-0.302,0.994,-0.067
46.13,-0.124,1.068,0.032
46.14,-0.013,0.89,0.141
46.15,-0.25,0.804,0.009
46.16,-0.389,1.178,-0.154
46.17,-0.12,0.913,-0.088
46.18,-0.121,1.16,0.054
46.19,-0.089,0.653,0.134
46.2,-0.344,1.045,0.007
46.21,-0.216,1.092,-0.148
46.22,-0.258,0.92,-0.043
46.23,-0.25,0.982,0.158
46.24,-0.118,0.757,0.119
46.25,-0.321,1.228,-0.114
46.26,-0.287,0.75,-0.181
46.27,-0.163,1.104,0.005
46.28,-0.025,0.956,0.197
46.29,-0.16,0.884,0.012
46.3,-0.367,0.955,-0.131
46.31,-0.25,0.895,-0.02
46.32,-0.073,1.285,0.054
46.33,-0.096,0.702,0.108
46.34,-0.356,1.099,-0.014
46.35,-0.215,0.875,-0.114
46.36,-0.214,1.116,-0.087
46.37,-0.065,0.814,0.092
46.38,-0.141,0.976,0.147
46.39,-0.303,1.005,-0.072
46.4,-0.29,0.85,-0.127
46.41,-0.241,1.096,-0.051
46.42,-0.075,0.842,0.222
46.43,-0.146,1.132,0.053
46.44,-0.38,0.794,-0.11
46.45,-0.232,1.058,-0.107
46.46,-0.118,1.039,0.054
46.47,-0.032,0.892,0.135
46.48,-0.227,0.957,0.034
46.49,-0.333,0.884,-0.108
46.5,-0.249,1.228,-0.09
46.51,-0.148,0.802,0.054
46.52,-0.115,1.009,0.16
46.53,-0.324,0.872,-0.045
46.54,-0.311,1.092,-0.146
46.55,-0.11,0.989,-0.058
46.56,-0.069,0.881,0.102
46.57,-0.142,0.987,0.099
46.58,-0.379,0.875,-0.045
46.59,-0.275,1.121,-0.156
46.6,-0.182,0.883,0.044
46.61,-0.11,1.087,0.149
46.62,-0.153,0.882,0.106
46.63,-0.337,1.022,-0.167
46.64,-0.288,1.03,-0.093
46.65,-0.102,1.014,0.086
46.66,-0.072,1.026,0.102
46.67,-0.246,0.737,-0.013
46.68,-0.342,1.153,-0.149
46.69,-0.173,0.958,-0.056
46.7,-0.147,1.057,0.088
46.71,-0.133,0.792,0.136
46.72,-0.347,0.922,-0.024
46.73,-0.295,1.132,-0.124
46.74,-0.133,0.874,-0.043
46.75,-0.172,1.073,0.173
46.76,-0.125,0.696,0.099
46.77,-0.343,1.174,-0.096
46.78,-0.233,0.879,-0.166
46.79,-0.221,1.005,0.003
46.8,-0.125,1.0,0.238
46.81,-0.2,0.804,0.03
46.82,-0.427,1.067,-0.116
46.83,-0.174,0.864,-0.061
46.84,-0.129,1.247,0.081
46.85,-0.07,0.66,0.119
46.86,-0.325,1.051,0.032
46.87,-0.292,0.991,-0.159
46.88,-0.122,1.012,-0.096
46.89,-0.231,1.006,0.072
46.9,-0.131,0.725,0.118
46.91,-0.385,1.179,-0.042
46.92,-0.214,0.8,-0.133
46.93,-0.241,1.117,-0.041
46.94,-0.114,0.855,0.2
46.95,-0.087,0.994,0.058
46.96,-0.359,0.982,-0.14
46.97,-0.263,0.865,-0.134
46.98,-0.177,1.223,0.088
46.99,-0.032,0.743,0.15
47.0,-0.231,1.059,0.028
47.01,-0.41,0.854,-0.117
47.02,-0.109,1.132,-0.106
47.03,-0.409,0.955,0.166
47.04,-0.133,0.84,0.174
47.05,-0.296,1.04,-0.054
47.06,-0.299,0.9,-0.156
47.07,-0.216,1.13,-0.058
47.08,-0.121,0.787,0.133
47.09,-0.107,1.067,0.11
47.1,-0.329,0.919,-0.118
47.11,-0.28,0.963,-0.118
47.12,-0.242,1.024,-0.008
47.13,-0.058,0.905,0.174
47.14,-0.271,0.895,0.049
47.15,-0.365,0.885,-0.143
47.16,-0.153,1.206,-0.076
47.17,-0.064,0.918,0.049
47.18,-0.112,0.963,0.131
47.19,-0.307,0.815,-0.004
47.2,-0.278,1.181,-0.139
47.21,-0.139,0.973,-0.099
47.22,-0.183,0.908,0.094
47.23,-0.155,0.935,0.132
47.24,-0.299,0.902,-0.096
47.25,-0.315,1.137,-0.112
47.26,-0.18,0.764,-0.038
47.27,0.003,1.116,0.13
47.28,-0.097,0.841,0.043
47.29,-0.413,1.021,-0.139
47.3,-0.224,0.964,-0.098
47.31,-0.101,1.103,0.022
47.32,0.021,0.948,0.079
47.33,-0.244,0.771,0.013
47.34,-0.355,1.198,-0.161
47.35,-0.125,0.958,-0.058
47.36,-0.26,1.167,0.055
47.37,-0.082,0.659,0.111
47.38,-0.344,0.991,-0.031
47.39,-0.256,1.11,-0.157
47.4,-0.212,0.89,-0.075
47.41,-0.163,1.018,0.114
47.42,-0.102,0.758,0.164
47.43,-0.365,1.187,-0.119
47.44,-0.281,0.75,-0.121
47.45,-0.224,1.161,0.042
47.46,-0.069,0.968,0.189
47.47,-0.142,0.804,0.004
47.48,-0.353,1.058,-0.126
47.49,-0.131,0.952,-0.048
47.5,-0.122,1.284,0.018
47.51,-0.101,0.626,0.161
47.52,-0.315,1.096,0.013
47.53,-0.254,0.924,-0.14
47.54,-0.228,1.094,-0.094
47.55,-0.164,0.949,0.107
47.56,-0.104,0.751,0.179
47.57,-0.358,1.142,-0.074
47.58,-0.237,0.758,-0.162
47.59,-0.2,1.159,-0.023
47.6,-0.06,0.869,0.124
47.61,-0.175,1.031,0.088
47.62,-0.308,0.931,-0.13
47.63,-0.28,0.91,-0.102
47.64,-0.145,1.157,0.033
47.65,-0.106,0.794,0.166
47.66,-0.259,1.047,0.025
47.67,-0.333,0.8,-0.139
47.68,-0.142,1.207,-0.082
47.69,-0.113,0.921,0.056
47.7,-0.126,0.858,0.173
47.71,-0.343,1.001,-0.014
47.72,-0.213,0.941,-0.17
47.73,-0.147,1.15,-0.054
47.74,-0.149,0.726,0.118
47.75,-0.17,1.017,0.146
47.76,-0.31,0.891,-0.099
47.77,-0.203,1.116,-0.163
47.78,-0.208,0.923,-0.002
47.79,-0.083,0.905,0.213
47.8,-0.15,1.051,0.044
47.81,-0.382,0.854,-0.16
47.82,-0.222,1.179,-0.096
47.83,-0.08,0.937,0.071
47.84,-0.306,0.989,0.177
47.85,-0.263,0.824,-0.044
47.86,-0.307,1.098,-0.133
47.87,-0.112,1.052,-0.073
47.88,-0.134,0.857,0.039
47.89,-0.13,0.917,0.113
47.9,-0.281,0.897,-0.066
47.91,-0.292,1.207,-0.145
47.92,-0.174,0.854,-0.039
47.93,-0.052,1.07,0.186
47.94,-0.153,0.844,0.048
47.95,-0.386,1.002,-0.127
47.96,-0.126,1.013,-0.078
47.97,-0.13,1.052,0.037
47.98,-0.088,0.864,0.147
47.99,-0.305,0.845,-0.015
48.0,-0.313,1.19,-0.127
48.01,-0.158,0.836,-0.071
48.02,-0.196,1.1,0.137
48.03,-0.087,0.719,0.133
48.04,-0.385,1.07,-0.101
48.05,-0.276,0.885,-0.125
48.06,-0.165,0.977,-0.015
48.07,-0.099,1.089,0.215
48.08,-0.189,0.746,0.007
48.09,-0.394,1.113,-0.114
48.1,-0.191,0.889,-0.062
48.11,-0.226,1.251,0.094
48.12,-0.028,0.731,0.133
48.13,-0.293,0.965,0.008
48.14,-0.338,1.042,-0.143
48.15,-0.114,0.979,-0.051
48.16,-0.126,1.096,0.048
48.17,-0.132,0.66,0.111
48.18,-0.344,1.167,-0.068
48.19,-0.181,0.889,-0.137
48.2,-0.208,1.076,-0.051
