t,ax,ay,az
0.0,-0.188,0.788,0.034
0.01,-0.356,1.095,-0.125
0.02,-0.234,0.881,-0.049
0.03,-0.074,1.235,0.005
0.04,-0.055,0.696,0.162
0.05,-0.238,0.978,-0.001
0.06,-0.373,0.959,-0.113
0.07,-0.139,1.003,-0.084
0.08,-0.252,1.071,0.093
0.09,-0.117,0.647,0.149
0.1,-0.333,1.16,-0.034
0.11,-0.259,0.872,-0.117
0.12,-0.239,1.073,-0.068
0.13,-0.008,0.815,0.109
0.14,-0.159,0.93,0.124
0.15,-0.321,1.077,-0.08
0.16,-0.292,0.864,-0.102
0.17,-0.225,1.102,-0.047
0.18,-0.109,0.789,0.196
0.19,-0.216,1.135,0.091
0.2,-0.336,0.796,-0.136
0.21,-0.276,1.0,-0.089
0.22,-0.082,1.051,0.002
0.23,0.003,0.889,0.066
0.24,-0.183,1.026,0.009
0.25,-0.35,0.809,-0.122
0.26,-0.202,1.165,-0.083
0.27,-0.086,0.903,0.056
0.28,-0.032,0.982,0.033
0.29,-0.33,0.828,-0.007
0.3,-0.264,1.177,-0.145
0.31,-0.12,0.995,-0.078
0.32,-0.153,0.928,0.114
0.33,-0.168,0.873,0.124
0.34,-0.336,0.926,-0.051
0.35,-0.231,1.196,-0.162
0.36,-0.167,0.795,-0.053
0.37,-0.169,1.056,0.183
0.38,-0.117,0.825,0.092
0.39,-0.359,1.078,-0.098
0.4,-0.229,0.93,-0.172
0.41,-0.217,1.028,0.072
0.42,-0.019,0.973,0.085
0.43,-0.203,0.749,0.035
0.44,-0.332,1.118,-0.161
0.45,-0.171,0.875,-0.036
0.46,-0.063,1.161,0.021
0.47,-0.091,0.786,0.133
0.48,-0.296,0.962,0.015
0.49,-0.312,1.043,-0.133
0.5,-0.135,0.917,-0.098
0.51,-0.192,1.07,0.138
0.52,-0.091,0.676,0.132
0.53,-0.381,1.176,-0.061
0.54,-0.266,0.825,-0.11
0.55,-0.158,1.073,-0.054
0.56,-0.143,0.926,0.16
0.57,-0.179,0.886,0.1
0.58,-0.359,1.089,-0.102
0.59,-0.208,0.824,-0.09
0.6,-0.153,1.246,0.014
0.61,-0.358,0.784,0.311
0.62,-0.256,1.058,0.025
0.63,-0.292,0.851,-0.139
0.64,-0.208,1.091,-0.067
0.65,-0.081,1.058,-0.006
0.66,-0.047,0.76,0.155
0.67,-0.287,1.074,-0.016
0.68,-0.325,0.859,-0.092
0.69,-0.181,1.207,-0.113
0.7,-0.077,0.734,0.08
0.71,-0.109,0.935,0.136
0.72,-0.288,1.011,-0.042
0.73,-0.293,0.968,-0.173
0.74,-0.191,1.003,-0.07
0.75,-0.139,0.807,0.215
0.76,-0.174,1.135,0.092
0.77,-0.367,0.8,-0.112
0.78,-0.266,1.091,-0.132
0.79,-0.181,0.996,0.037
0.8,-0.046,0.985,0.13
0.81,-0.183,0.915,0.041
0.82,-0.394,0.889,-0.092
0.83,-0.193,1.208,-0.086
0.84,-0.091,0.894,0.019
0.85,-0.125,1.034,0.152
0.86,-0.232,0.773,-0.004
0.87,-0.355,1.091,-0.126
0.88,-0.128,1.021,-0.047
0.89,-0.112,0.926,0.056
0.9,-0.175,0.872,0.144
0.91,-0.328,0.895,-0.03
0.92,-0.286,1.233,-0.142
0.93,-0.091,0.872,0.087
0.94,-0.29,0.981,-0.029
0.95,-0.246,1.041,-0.157
0.96,-0.138,1.083,-0.079
0.97,-0.181,0.73,0.142
0.98,-0.204,1.071,0.142
0.99,-0.296,0.883,-0.081
1.0,-0.294,1.14,-0.14
1.01,-0.17,0.891,-0.023
1.02,-0.014,0.958,0.188
1.03,-0.187,0.812,0.025
1.04,-0.382,0.96,-0.111
1.05,-0.181,1.116,-0.084
1.06,-0.067,0.982,0.022
1.07,-0.094,0.947,0.09
1.08,-0.282,0.779,0.009
1.09,-0.295,1.242,-0.152
1.1,-0.092,0.904,-0.091
1.11,-0.153,1.017,0.11
1.12,-0.086,0.785,0.145
1.13,-0.369,0.99,-0.016
1.14,-0.232,1.123,-0.176
1.15,-0.205,0.843,-0.051
1.16,-0.139,1.058,0.154
1.17,-0.11,0.79,0.1
1.18,-0.359,1.175,-0.106
1.19,-0.259,0.823,-0.154
1.2,-0.203,1.076,0.034
1.21,-0.037,1.001,0.14
1.22,-0.222,0.799,0.058
1.23,-0.314,1.073,-0.157
1.24,-0.228,0.885,-0.03
1.25,-0.235,1.217,0.116
1.26,-0.038,0.709,0.149
1.27,-0.334,1.042,0.002
1.28,-0.336,0.956,-0.122
1.29,-0.082,1.007,-0.114
1.3,-0.392,1.051,0.243
1.31,-0.114,0.683,0.112
1.32,-0.358,1.197,-0.085
1.33,-0.24,0.818,-0.164
1.34,-0.23,1.094,-0.042
1.35,-0.045,0.853,0.163
1.36,-0.147,0.997,0.09
1.37,-0.353,1.01,-0.106
1.38,-0.273,0.834,-0.129
1.39,-0.135,1.267,0.031
1.4,-0.041,0.786,0.136
1.41,-0.254,1.042,0.039
1.42,-0.291,0.813,-0.099
1.43,-0.176,1.148,-0.111
1.44,-0.109,1.024,0.061
1.45,-0.139,0.861,0.184
1.46,-0.311,1.041,-0.0
1.47,-0.262,0.832,-0.122
1.48,-0.138,1.23,-0.06
1.49,-0.138,0.782,0.13
1.5,-0.139,1.017,0.098
1.51,-0.34,0.915,-0.047
1.52,-0.229,1.052,-0.156
1.53,-0.169,0.992,-0.037
1.54,-0.144,0.849,0.148
1.55,-0.177,1.088,0.105
1.56,-0.303,0.841,-0.123
1.57,-0.233,1.138,-0.136
1.58,-0.153,0.927,0.026
1.59,-0.337,1.031,0.311
1.6,-0.221,0.891,0.055
1.61,-0.348,0.944,-0.132
1.62,-0.14,1.134,-0.094
1.63,-0.103,0.923,0.019
1.64,-0.094,0.999,0.128
1.65,-0.224,0.778,-0.012
1.66,-0.297,1.198,-0.169
1.67,-0.145,0.937,-0.067
1.68,-0.143,1.006,0.106
1.69,-0.159,0.864,0.154
1.7,-0.358,0.893,-0.074
1.71,-0.26,1.182,-0.1
1.72,-0.126,0.874,-0.046
1.73,-0.143,1.048,0.148
1.74,-0.125,0.764,0.078
1.75,-0.318,1.148,-0.125
1.76,-0.283,0.954,-0.123
1.77,-0.158,0.996,-0.005
1.78,-0.123,0.99,0.212
1.79,-0.195,0.796,0.017
1.8,-0.386,1.13,-0.133
1.81,-0.214,0.828,-0.11
1.82,-0.058,1.215,0.082
1.83,-0.162,0.746,0.127
1.84,-0.36,0.975,-0.004
1.85,-0.257,1.008,-0.118
1.86,-0.197,1.087,-0.054
1.87,-0.244,0.906,0.089
1.88,-0.149,0.82,0.157
1.89,-0.303,1.129,-0.125
1.9,-0.28,0.732,-0.11
1.91,-0.213,1.174,0.015
1.92,-0.063,0.841,0.183
1.93,-0.219,1.043,0.048
1.94,-0.367,0.89,-0.13
1.95,-0.161,1.013,-0.113
1.96,-0.077,1.167,0.046
1.97,-0.104,0.729,0.137
1.98,-0.315,1.074,0.019
1.99,-0.287,0.853,-0.126
2.0,-0.104,1.207,-0.098
2.01,-0.258,0.809,0.215
2.02,-0.094,0.835,0.153
2.03,-0.336,1.042,-0.06
2.04,-0.233,0.912,-0.146
2.05,-0.193,1.075,-0.057
2.06,-0.121,0.773,0.173
2.07,-0.168,1.097,0.095
2.08,-0.279,0.861,-0.147
2.09,-0.257,1.054,-0.132
2.1,-0.168,0.971,0.028
2.11,-0.037,0.947,0.186
2.12,-0.221,0.974,0.028
2.13,-0.301,0.791,-0.122
2.14,-0.27,1.253,-0.037
2.15,-0.077,0.854,0.023
2.16,-0.101,0.941,0.161
2.17,-0.229,0.84,-0.06
2.18,-0.336,1.117,-0.103
2.19,-0.159,1.006,-0.064
2.2,-0.087,0.859,0.109
2.21,-0.187,0.986,0.138
2.22,-0.286,0.883,-0.096
2.23,-0.326,1.183,-0.085
2.24,-0.149,0.853,-0.042
2.25,-0.289,1.077,0.261
2.26,-0.161,0.862,0.075
2.27,-0.346,0.981,-0.114
2.28,-0.178,1.077,-0.138
2.29,-0.14,0.947,0.037
2.3,-0.063,1.019,0.157
2.31,-0.214,0.761,0.004
2.32,-0.357,1.152,-0.152
2.33,-0.193,0.933,-0.044
2.34,-0.089,1.053,0.04
2.35,-0.133,0.816,0.154
2.36,-0.372,0.887,-0.053
2.37,-0.23,1.185,-0.135
2.38,-0.132,0.883,-0.069
2.39,-0.192,1.065,0.13
2.4,-0.158,0.711,0.169
2.41,-0.346,1.149,-0.126
2.42,-0.263,0.872,-0.149
2.43,-0.248,1.01,-0.012
2.44,-0.057,1.027,0.18
2.45,-0.181,0.798,0.027
2.46,-0.366,1.104,-0.13
2.47,-0.176,0.868,-0.041
2.48,-0.085,1.265,0.018
2.49,-0.131,0.693,0.151
2.5,-0.327,0.97,0.009
2.51,-0.277,1.013,-0.177
2.52,-0.122,1.025,-0.085
2.53,-0.167,1.05,0.09
2.54,-0.129,0.699,0.13
2.55,-0.375,1.158,-0.059
2.56,-0.21,0.804,-0.175
2.57,-0.178,1.084,-0.057
2.58,-0.18,0.85,0.184
2.59,-0.121,0.919,0.088
2.6,-0.328,1.073,-0.133
2.61,-0.272,0.817,-0.11
2.62,-0.158,1.184,0.016
2.63,0.131,0.743,-0.008
2.64,-0.208,1.088,0.005
2.65,-0.331,0.851,-0.143
2.66,-0.211,1.087,-0.063
2.67,-0.03,1.072,0.064
2.68,-0.264,0.889,0.206
2.69,-0.284,0.954,-0.028
2.7,-0.186,1.031,-0.141
2.71,-0.142,1.111,-0.09
2.72,-0.558,0.722,0.208
2.73,-0.097,1.065,0.095
2.74,-0.294,0.948,-0.134
2.75,-0.217,1.109,-0.155
2.76,-0.209,0.919,-0.015
2.77,-0.11,0.911,0.237
2.78,-0.169,1.004,0.026
2.79,-0.377,0.861,-0.15
2.8,-0.194,1.144,-0.106
2.81,-0.113,0.932,0.098
2.82,-0.036,1.002,0.048
2.83,-0.272,0.832,-0.02
2.84,-0.309,1.105,-0.146
2.85,-0.117,1.063,-0.062
2.86,-0.185,0.869,0.1
2.87,-0.167,0.918,0.157
2.88,-0.308,0.875,-0.064
2.89,-0.184,1.219,-0.17
2.9,-0.181,0.849,-0.033
2.91,-0.187,1.036,0.197
2.92,-0.116,0.865,0.079
2.93,-0.405,0.979,-0.14
2.94,-0.191,1.044,-0.12
2.95,-0.167,1.017,0.057
2.96,-0.108,0.998,0.175
2.97,-0.275,0.754,0.001
2.98,-0.317,1.188,-0.137
2.99,-0.113,0.93,-0.131
3.0,-0.191,0.997,0.135
3.01,-0.071,0.804,0.146
3.02,-0.36,0.969,-0.045
3.03,-0.291,1.104,-0.139
3.04,-0.22,0.852,-0.024
3.05,-0.144,1.094,0.154
3.06,-0.134,0.776,0.107
3.07,-0.431,1.117,-0.121
3.08,-0.198,0.799,-0.142
3.09,-0.339,1.129,0.105
3.1,-0.007,0.924,0.113
3.11,-0.206,0.817,0.046
3.12,-0.323,1.138,-0.191
3.13,-0.243,0.915,-0.037
3.14,-0.044,1.157,0.062
3.15,-0.092,0.674,0.124
3.16,-0.347,1.051,0.005
3.17,-0.289,1.019,-0.134
3.18,-0.17,0.949,-0.115
3.19,-0.147,0.969,0.113
3.2,-0.135,0.76,0.153
3.21,-0.325,1.216,-0.115
3.22,-0.26,0.808,-0.134
3.23,-0.252,1.162,-0.003
3.24,-0.02,0.896,0.18
3.25,-0.148,0.938,0.041
3.26,-0.296,0.979,-0.146
3.27,-0.263,0.886,-0.055
3.28,-0.077,1.228,0.012
3.29,-0.014,0.742,0.162
3.3,-0.327,1.072,-0.006
3.31,-0.342,0.865,-0.062
3.32,-0.147,1.155,-0.126
3.33,-0.158,0.901,0.091
3.34,-0.169,0.844,0.16
3.35,-0.306,1.132,-0.045
3.36,-0.258,0.864,-0.174
3.37,-0.216,1.086,-0.042
3.38,-0.115,0.757,0.151
3.39,-0.151,1.037,0.09
3.4,-0.358,0.91,-0.088
3.41,-0.224,0.956,-0.113
3.42,-0.219,1.089,0.02
3.43,-0.068,0.869,0.165
3.44,-0.209,1.072,0.05
3.45,-0.302,0.787,-0.157
3.46,-0.275,1.208,-0.089
3.47,-0.056,0.929,0.044
3.48,-0.069,0.961,0.148
3.49,-0.264,0.914,-0.009
3.5,-0.343,1.151,-0.14
3.51,-0.177,0.942,-0.089
3.52,-0.142,0.878,0.119
3.53,-0.169,0.99,0.091
3.54,-0.317,0.889,-0.069
3.55,-0.318,1.15,-0.13
3.56,-0.109,0.803,-0.044
3.57,-0.179,1.078,0.25
3.58,-0.095,0.856,0.057
3.59,-0.368,1.002,-0.108
3.6,-0.276,1.025,-0.107
3.61,-0.107,0.998,0.045
3.62,-0.051,1.022,0.133
3.63,-0.231,0.766,0.002
3.64,-0.393,1.182,-0.12
3.65,-0.125,0.925,-0.071
3.66,-0.127,1.091,0.083
3.67,-0.073,0.759,0.12
3.68,-0.41,0.984,-0.011
3.69,-0.261,1.114,-0.138
3.7,-0.175,0.851,-0.088
3.71,-0.148,1.062,0.128
3.72,-0.138,0.765,0.136
3.73,-0.359,1.171,-0.102
3.74,-0.2,0.869,-0.156
3.75,-0.172,1.064,-0.001
3.76,-0.312,0.946,0.211
3.77,-0.157,0.872,0.043
3.78,-0.358,1.109,-0.158
3.79,-0.223,0.816,-0.095
3.8,-0.094,1.282,0.07
3.81,-0.05,0.758,0.205
3.82,-0.361,0.995,0.036
3.83,-0.319,0.925,-0.121
3.84,-0.127,1.059,-0.07
3.85,-0.111,1.031,0.041
3.86,-0.173,0.669,0.186
3.87,-0.326,1.183,-0.012
3.88,-0.238,0.844,-0.177
3.89,-0.255,1.11,-0.027
3.9,-0.114,0.836,0.169
3.91,-0.129,0.964,0.121
3.92,-0.324,1.013,-0.121
3.93,-0.268,0.827,-0.123
3.94,-0.242,1.196,0.044
3.95,-0.014,0.803,0.123
3.96,-0.244,1.054,0.026
3.97,-0.334,0.802,-0.149
3.98,-0.2,1.173,-0.063
3.99,-0.096,0.968,-0.01
4.0,-0.101,0.809,0.17
4.01,-0.263,1.054,-0.006
4.02,-0.32,0.92,-0.113
4.03,-0.264,1.12,-0.07
4.04,-0.097,0.748,0.073
4.05,-0.179,1.063,0.138
4.06,-0.272,0.945,-0.064
4.07,-0.277,1.009,-0.153
4.08,-0.184,0.936,-0.053
4.09,-0.094,0.881,0.182
4.1,-0.166,1.105,0.096
4.11,-0.328,0.821,-0.132
4.12,-0.244,1.092,-0.108
4.13,-0.204,0.987,0.042
4.14,-0.05,1.047,0.135
4.15,-0.198,0.851,0.04
4.16,-0.316,0.94,-0.115
4.17,-0.262,1.145,-0.042
4.18,-0.046,0.901,0.004
4.19,-0.106,0.998,0.151
4.2,-0.225,0.801,-0.021
4.21,-0.388,1.218,-0.144
4.22,-0.156,0.92,-0.065
4.23,-0.094,0.958,0.092
4.24,-0.135,0.887,0.126
4.25,-0.356,0.962,-0.042
4.26,-0.362,1.091,-0.144
4.27,-0.189,0.806,-0.027
4.28,-0.179,1.121,0.187
4.29,-0.092,0.744,0.069
4.3,-0.379,1.057,-0.108
4.31,-0.208,0.866,-0.133
4.32,-0.128,1.115,0.051
4.33,-0.109,0.811,0.139
4.34,-0.234,0.815,0.009
4.35,-0.305,1.094,-0.094
4.36,-0.147,1.006,-0.079
4.37,-0.195,1.124,0.069
4.38,-0.056,0.662,0.2
4.39,-0.339,1.142,-0.025
4.4,-0.307,0.857,-0.192
4.41,-0.239,1.009,-0.043
4.42,-0.083,0.982,0.116
4.43,-0.118,0.871,0.116
4.44,-0.341,1.078,-0.065
4.45,-0.293,0.732,-0.16
4.46,-0.167,1.172,0.005
4.47,-0.075,0.862,0.168
4.48,-0.236,1.035,0.085
4.49,-0.259,0.898,-0.096
4.5,-0.194,0.983,-0.148
4.51,-0.206,1.156,0.027
4.52,-0.035,0.811,0.135
4.53,-0.251,1.032,0.042
4.54,-0.312,0.802,-0.104
4.55,-0.249,1.23,-0.068
4.56,-0.141,0.916,0.052
4.57,-0.07,0.933,0.186
4.58,-0.216,0.922,-0.006
4.59,-0.287,0.938,-0.145
4.6,-0.239,1.168,-0.047
4.61,-0.046,0.79,0.023
4.62,-0.175,1.023,0.135
4.63,-0.283,0.857,-0.026
4.64,-0.331,1.189,-0.135
4.65,-0.178,0.879,-0.072
4.66,-0.115,0.944,0.11
4.67,-0.216,1.009,0.13
4.68,-0.281,0.845,-0.108
4.69,-0.287,1.104,-0.103
4.7,-0.137,0.848,-0.03
4.71,-0.13,1.135,0.176
4.72,-0.145,0.775,0.059
4.73,-0.366,1.03,-0.134
4.74,-0.186,0.985,-0.085
4.75,-0.033,1.068,0.022
4.76,-0.112,0.985,0.112
4.77,-0.254,0.708,0.046
4.78,-0.311,1.183,-0.129
4.79,-0.183,0.954,-0.072
4.8,-0.135,1.127,0.031
4.81,-0.115,0.73,0.158
4.82,-0.302,0.955,-0.009
4.83,-0.327,1.109,-0.11
4.84,-0.166,0.916,-0.108
4.85,-0.156,1.049,0.095
4.86,-0.096,0.712,0.109
4.87,-0.396,1.168,-0.057
4.88,-0.273,0.802,-0.154
4.89,-0.228,1.014,-0.054
4.9,-0.071,0.918,0.133
4.91,-0.145,0.902,0.128
4.92,-0.419,1.064,-0.057
4.93,-0.234,0.766,-0.131
4.94,-0.215,1.21,0.001
4.95,-0.086,0.858,0.151
4.96,-0.225,1.047,0.054
4.97,-0.355,0.871,-0.119
4.98,-0.252,1.019,-0.106
4.99,-0.06,1.144,0.01
5.0,-0.06,0.805,0.162
5.01,-0.234,1.002,0.044
5.02,-0.303,0.81,-0.135
5.03,-0.236,1.214,-0.071
5.04,-0.123,0.897,0.049
5.05,-0.094,0.963,0.146
5.06,-0.276,0.941,-0.021
5.07,-0.311,0.99,-0.127
5.08,-0.2,1.099,-0.095
5.09,-0.109,0.773,0.106
5.1,-0.172,1.033,0.135
5.11,-0.323,0.868,-0.019
5.12,-0.275,1.153,-0.165
5.13,-0.209,0.89,-0.082
5.14,-0.034,0.887,0.07
5.15,-0.102,0.889,0.072
5.16,-0.329,0.982,-0.092
5.17,-0.261,1.009,-0.116
5.18,-0.138,0.945,0.017
5.19,-0.15,1.118,0.177
5.2,-0.121,0.744,0.031
5.21,-0.364,1.152,-0.12
5.22,-0.267,0.848,-0.095
5.23,-0.138,1.165,0.057
5.24,-0.014,0.928,0.11
5.25,-0.256,0.833,0.006
5.26,-0.365,1.044,-0.115
5.27,-0.152,0.96,-0.037
5.28,-0.091,1.203,0.018
5.29,-0.098,0.652,0.127
5.3,-0.343,1.086,-0.005
5.31,-0.249,0.927,-0.136
5.32,-0.201,1.043,-0.081
5.33,-0.059,0.946,0.036
5.34,-0.16,0.839,0.141
5.35,-0.327,1.136,-0.055
5.36,-0.262,0.831,-0.085
5.37,-0.278,1.161,-0.065
5.38,-0.11,0.761,0.148
5.39,-0.162,1.009,0.109
5.4,-0.284,0.965,-0.098
5.41,-0.259,0.887,-0.134
5.42,-0.246,1.121,0.002
5.43,-0.074,0.772,0.199
5.44,-0.178,1.065,0.051
5.45,-0.348,0.799,-0.108
5.46,-0.279,1.149,-0.127
5.47,-0.152,0.98,0.054
5.48,-0.007,0.957,0.145
5.49,-0.194,0.921,0.01
5.5,-0.391,0.853,-0.091
5.51,-0.18,1.168,-0.087
5.52,-0.113,0.871,0.094
5.53,-0.136,1.066,0.175
5.54,-0.262,0.81,-0.032
5.55,-0.348,1.107,-0.123
5.56,-0.117,1.026,-0.068
5.57,-0.104,0.937,0.078
5.58,-0.199,0.904,0.144
5.59,-0.321,0.859,-0.033
5.6,-0.292,1.238,-0.132
5.61,-0.109,0.822,-0.083
5.62,-0.169,1.05,0.143
5.63,-0.157,0.824,0.135
5.64,-0.324,1.043,-0.078
5.65,-0.257,0.986,-0.163
5.66,-0.21,0.901,-0.007
5.67,-0.118,1.088,0.177
5.68,-0.145,0.774,0.075
5.69,-0.363,1.115,-0.116
5.7,-0.23,0.818,-0.108
5.71,-0.116,1.162,0.036
5.72,-0.067,0.914,0.161
5.73,-0.231,0.872,0.016
5.74,-0.333,1.038,-0.133
5.75,-0.214,0.912,-0.046
5.76,-0.002,1.223,0.004
5.77,-0.18,0.712,0.186
5.78,-0.266,1.039,-0.009
5.79,-0.358,0.909,-0.091
5.8,-0.108,1.112,-0.094
5.81,-0.185,0.972,0.084
5.82,-0.151,0.791,0.146
5.83,-0.301,1.122,-0.028
5.84,-0.226,0.845,-0.176
5.85,-0.203,1.122,-0.049
5.86,-0.043,0.799,0.034
5.87,-0.109,1.046,0.12
5.88,-0.348,0.956,-0.063
5.89,-0.228,0.966,-0.125
5.9,-0.257,1.099,-0.003
5.91,-0.133,0.781,0.171
5.92,-0.163,1.081,0.062
5.93,-0.311,0.845,-0.145
5.94,-0.281,1.101,-0.112
5.95,-0.165,0.932,0.037
5.96,-0.076,1.017,0.189
5.97,-0.23,0.796,0.019
5.98,-0.304,1.0,-0.111
5.99,-0.274,1.124,-0.047
6.0,-0.075,0.923,0.027
6.01,-0.136,1.001,0.167
6.02,-0.249,0.8,-0.041
6.03,-0.368,1.17,-0.124
6.04,-0.095,0.914,-0.075
6.05,-0.038,1.032,0.049
6.06,-0.164,0.813,0.13
6.07,-0.307,0.991,-0.031
6.08,-0.345,1.103,-0.143
6.09,-0.122,0.826,-0.039
6.1,-0.238,1.098,0.098
6.11,-0.156,0.818,0.089
6.12,-0.335,1.15,-0.118
6.13,-0.248,0.82,-0.12
6.14,-0.173,1.093,0.004
6.15,-0.172,1.003,0.204
6.16,-0.177,0.818,0.047
6.17,-0.342,1.089,-0.117
6.18,-0.224,0.863,-0.084
6.19,-0.087,1.25,0.008
6.2,-0.038,0.757,0.093
6.21,-0.18,1.037,0.058
6.22,-0.288,0.93,-0.152
6.23,-0.233,1.021,-0.08
6.24,-0.133,1.102,0.092
6.25,-0.081,0.72,0.141
6.26,-0.33,1.101,-0.017
6.27,-0.294,0.844,-0.131
6.28,-0.204,1.179,-0.077
6.29,-0.218,0.821,0.204
6.3,-0.106,0.933,0.122
6.31,-0.333,1.007,-0.053
6.32,-0.305,0.919,-0.117
6.33,-0.172,1.077,-0.057
6.34,-0.136,0.779,0.153
6.35,-0.219,1.09,0.115
6.36,-0.293,0.822,-0.081
6.37,-0.239,1.107,-0.141
6.38,-0.2,0.944,0.014
6.39,-0.331,0.9,0.253
6.4,-0.242,1.023,0.102
6.41,-0.319,0.848,-0.135
6.42,-0.275,1.105,-0.124
6.43,-0.147,0.898,0.059
6.44,0.003,1.138,0.103
6.45,-0.194,0.818,-0.005
6.46,-0.346,0.996,-0.097
6.47,-0.213,1.034,-0.107
6.48,-0.054,0.983,0.062
6.49,-0.142,0.981,0.118
6.5,-0.314,0.815,0.012
6.51,-0.349,1.184,-0.142
6.52,-0.045,0.92,-0.088
6.53,-0.155,1.061,0.087
6.54,-0.2,0.751,0.149
6.55,-0.32,1.014,0.014
6.56,-0.253,1.07,-0.138
6.57,-0.225,0.845,-0.054
6.58,-0.112,1.072,0.121
6.59,-0.148,0.764,0.129
6.6,-0.351,1.17,-0.093
6.61,-0.24,0.846,-0.137
6.62,-0.202,1.053,-0.017
6.63,-0.263,0.959,0.214
6.64,-0.171,0.858,0.023
6.65,-0.35,1.082,-0.12
6.66,-0.256,0.829,-0.069
6.67,-0.137,1.216,0.067
6.68,-0.013,0.761,0.121
6.69,-0.237,1.021,0.021
6.7,-0.327,0.901,-0.154
6.71,-0.211,1.041,-0.076
6.72,-0.117,1.053,0.037
6.73,-0.128,0.725,0.15
6.74,-0.343,1.135,-0.007
6.75,-0.251,0.835,-0.144
6.76,-0.271,1.133,-0.061
6.77,-0.022,0.801,0.104
6.78,-0.13,1.024,0.133
6.79,-0.289,1.004,-0.055
6.8,-0.344,1.012,-0.106
6.81,-0.188,0.993,-0.034
6.82,-0.079,0.924,0.151
6.83,-0.229,1.083,0.103
6.84,-0.325,0.83,-0.103
6.85,-0.277,1.121,-0.111
6.86,-0.091,0.926,0.043
6.87,-0.066,1.096,0.153
6.88,-0.15,0.839,0.019
6.89,-0.333,0.953,-0.136
6.9,-0.311,1.09,-0.069
6.91,-0.057,0.966,0.044
6.92,-0.096,1.078,0.128
6.93,-0.276,0.761,0.011
6.94,-0.343,1.13,-0.125
6.95,-0.15,0.96,-0.068
6.96,-0.07,1.056,0.081
6.97,-0.157,0.813,0.162
6.98,-0.341,0.914,-0.006
6.99,-0.259,1.123,-0.16
7.0,-0.2,0.835,-0.053
7.01,-0.147,1.081,0.093
7.02,-0.106,0.725,0.128
7.03,-0.384,1.126,-0.074
7.04,-0.273,0.829,-0.118
7.05,-0.199,1.013,-0.034
7.06,-0.08,0.992,0.145
7.07,-0.201,0.795,0.103
7.08,-0.355,1.117,-0.07
7.09,-0.228,0.769,-0.134
7.1,-0.142,1.197,0.002
7.11,-0.122,0.845,0.207
7.12,-0.252,0.967,0.042
7.13,-0.329,0.932,-0.121
7.14,-0.197,0.959,-0.094
7.15,-0.158,1.193,0.038
7.16,-0.044,0.729,0.122
7.17,-0.261,1.067,0.03
7.18,-0.288,0.849,-0.147
7.19,-0.233,1.183,-0.051
7.2,-0.071,0.91,0.041
7.21,-0.122,0.89,0.139
7.22,-0.338,1.018,-0.011
7.23,-0.261,0.911,-0.148
7.24,-0.191,1.135,-0.086
7.25,-0.118,0.732,0.096
7.26,-0.168,1.025,0.126
7.27,-0.319,0.896,-0.057
7.28,-0.249,1.074,-0.136
7.29,-0.201,0.935,-0.081
7.3,-0.119,0.862,0.153
7.31,-0.177,1.066,0.1
7.32,-0.361,0.863,-0.102
7.33,-0.248,1.074,-0.12
7.34,-0.16,0.892,0.023
7.35,-0.156,1.071,0.18
7.36,-0.159,0.854,0.051
7.37,-0.373,0.97,-0.109
7.38,-0.228,0.996,-0.134
7.39,-0.132,0.988,0.043
7.4,-0.105,1.081,0.134
7.41,-0.231,0.743,-0.013
7.42,-0.364,1.129,-0.129
7.43,-0.127,0.959,-0.083
7.44,-0.103,1.092,0.047
7.45,-0.2,0.791,0.192
7.46,-0.317,0.902,0.008
7.47,-0.246,1.173,-0.171
7.48,-0.184,0.858,-0.061
7.49,-0.296,1.07,0.163
7.5,-0.144,0.77,0.127
7.51,-0.331,1.124,-0.08
7.52,-0.319,0.835,-0.15
7.53,-0.22,0.985,-0.064
7.54,-0.152,1.016,0.156
7.55,-0.127,0.842,0.085
7.56,-0.367,1.129,-0.083
7.57,-0.19,0.726,-0.168
7.58,-0.25,1.217,0.048
7.59,0.009,0.798,0.137
7.6,-0.229,0.997,0.053
7.61,-0.278,0.894,-0.125
7.62,-0.229,1.152,-0.058
7.63,-0.095,1.0,0.028
7.64,-0.097,0.818,0.164
7.65,-0.236,1.023,-0.009
7.66,-0.307,0.881,-0.099
7.67,-0.128,1.217,-0.119
7.68,-0.103,0.766,0.041
7.69,-0.096,1.0,0.124
7.7,-0.35,0.937,-0.017
7.71,-0.276,1.025,-0.15
7.72,-0.192,0.96,-0.072
7.73,-0.107,0.852,0.108
7.74,-0.199,1.12,0.137
7.75,-0.294,0.838,-0.117
7.76,-0.365,1.082,-0.085
7.77,-0.11,0.832,-0.021
7.78,-0.113,1.091,0.15
7.79,-0.224,0.913,0.089
7.8,-0.37,0.931,-0.107
7.81,-0.234,1.061,-0.105
7.82,-0.249,0.997,0.088
7.83,-0.053,1.131,0.118
7.84,-0.204,0.737,-0.005
7.85,-0.36,1.064,-0.069
7.86,-0.187,0.968,-0.108
7.87,-0.133,1.11,0.045
7.88,-0.078,0.883,0.1
7.89,-0.246,0.823,0.031
7.9,-0.328,1.097,-0.166
7.91,-0.16,0.89,-0.061
7.92,-0.144,1.184,0.079
7.93,-0.083,0.699,0.129
7.94,-0.312,1.048,-0.007
7.95,-0.272,1.0,-0.119
7.96,-0.163,0.968,-0.096
7.97,-0.134,1.03,0.106
7.98,-0.069,0.75,0.043
7.99,-0.414,1.147,-0.041
8.0,-0.229,0.816,-0.138
8.01,-0.191,1.144,-0.036
8.02,-0.133,0.773,0.128
8.03,-0.235,0.932,0.125
8.04,-0.367,1.037,-0.051
8.05,-0.196,0.859,-0.139
8.06,-0.15,1.127,-0.054
8.07,-0.135,0.745,0.187
8.08,-0.203,1.106,0.077
8.09,-0.272,0.8,-0.138
8.1,-0.244,1.045,-0.094
8.11,-0.103,1.045,0.023
8.12,-0.112,0.9,0.194
8.13,-0.262,0.992,0.048
8.14,-0.327,0.814,-0.13
8.15,-0.183,1.213,-0.095
8.16,-0.016,0.915,0.031
8.17,-0.174,1.009,0.141
8.18,-0.289,0.835,-0.013
8.19,-0.287,1.057,-0.128
8.2,-0.118,1.085,-0.077
8.21,-0.212,0.882,0.091
8.22,-0.156,1.007,0.111
8.23,-0.335,0.829,-0.051
8.24,-0.26,1.207,-0.181
8.25,-0.153,0.872,-0.035
8.26,-0.154,1.018,0.123
8.27,-0.112,0.873,0.12
8.28,-0.354,0.955,-0.096
8.29,-0.241,1.063,-0.087
8.3,-0.192,0.916,-0.01
8.31,-0.158,1.055,0.171
8.32,-0.167,0.764,0.067
8.33,-0.312,1.145,-0.131
8.34,-0.251,0.894,-0.104
8.35,-0.163,1.122,0.059
8.36,-0.079,0.94,0.151
8.37,-0.264,0.82,0.017
8.38,-0.35,1.09,-0.123
8.39,-0.156,0.87,-0.084
8.4,-0.079,1.195,0.055
8.41,-0.073,0.709,0.162
8.42,-0.338,1.033,-0.002
8.43,-0.293,0.956,-0.138
8.44,-0.214,1.105,-0.071
8.45,-0.098,0.856,0.101
8.46,-0.164,0.893,0.145
8.47,-0.315,1.067,-0.095
8.48,-0.306,0.785,-0.14
8.49,-0.17,1.124,-0.011
8.5,-0.143,0.793,0.202
8.51,-0.185,1.05,0.069
8.52,-0.281,0.905,-0.101
8.53,-0.227,1.023,-0.106
8.54,-0.135,1.048,-0.0
8.55,-0.128,0.899,0.184
8.56,-0.241,1.049,0.047
8.57,-0.341,0.783,-0.145
8.58,-0.177,1.204,-0.077
8.59,-0.051,0.924,0.012
8.6,-0.288,0.986,0.141
8.61,-0.254,0.895,-0.014
8.62,-0.318,0.948,-0.137
8.63,-0.116,1.129,-0.075
8.64,-0.288,0.84,0.104
8.65,-0.142,1.0,0.1
8.66,-0.303,0.81,-0.045
8.67,-0.251,1.206,-0.17
8.68,-0.178,0.88,-0.077
8.69,-0.177,0.929,0.147
8.7,-0.111,0.932,0.12
8.71,-0.327,0.953,-0.079
8.72,-0.252,1.092,-0.138
8.73,-0.199,0.865,0.028
8.74,-0.115,1.117,0.143
8.75,-0.148,0.798,0.069
8.76,-0.347,1.043,-0.155
8.77,-0.268,0.958,-0.114
8.78,-0.164,1.047,0.051
8.79,-0.047,0.987,0.146
8.8,-0.233,0.76,0.0
8.81,-0.37,1.131,-0.135
8.82,-0.157,0.924,-0.06
8.83,-0.053,1.166,0.045
8.84,-0.131,0.708,0.134
8.85,-0.34,1.0,-0.004
8.86,-0.244,1.068,-0.152
8.87,-0.162,0.919,-0.042
8.88,-0.19,1.036,0.146
8.89,-0.161,0.724,0.139
8.9,-0.371,1.216,-0.062
8.91,-0.207,0.865,-0.17
8.92,-0.23,1.093,-0.038
8.93,-0.198,0.876,0.281
8.94,-0.116,0.945,0.084
8.95,-0.341,1.06,-0.122
8.96,-0.249,0.829,-0.11
8.97,-0.264,1.241,0.089
8.98,-0.009,0.764,0.145
8.99,-0.202,1.029,-0.01
9.0,-0.386,0.854,-0.104
9.01,-0.166,1.065,-0.107
9.02,-0.074,1.053,0.067
9.03,-0.083,0.795,0.098
9.04,-0.34,1.045,0.001
9.05,-0.299,0.821,-0.09
9.06,-0.065,1.247,-0.081
9.07,-0.193,0.802,0.124
9.08,-0.157,0.939,0.132
9.09,-0.304,0.99,-0.044
9.1,-0.214,1.046,-0.169
9.11,-0.177,1.037,-0.045
9.12,-0.111,0.753,0.155
9.13,-0.186,1.124,0.098
9.14,-0.328,0.831,-0.104
9.15,-0.261,1.099,-0.13
9.16,-0.158,0.961,0.034
9.17,-0.049,1.007,0.171
9.18,-0.207,0.903,0.024
9.19,-0.328,0.864,-0.119
9.2,-0.19,1.215,-0.064
9.21,-0.156,0.886,0.135
9.22,-0.143,1.032,0.143
9.23,-0.257,0.81,-0.009
9.24,-0.32,1.141,-0.161
9.25,-0.153,0.993,-0.071
9.26,-0.13,0.915,0.1
9.27,-0.309,0.842,-0.131
9.28,-0.258,1.116,-0.065
9.29,-0.062,0.763,0.103
9.3,-0.219,1.092,0.134
9.31,-0.245,0.916,-0.077
9.32,-0.332,1.104,-0.136
9.33,-0.169,0.907,-0.078
9.34,-0.156,0.903,0.219
9.35,-0.118,1.056,0.071
9.36,-0.326,0.814,-0.156
9.37,-0.315,1.124,-0.069
9.38,-0.138,0.915,0.08
9.39,-0.015,1.016,0.117
9.4,-0.228,0.833,0.026
9.41,-0.303,1.003,-0.145
9.42,-0.253,1.125,-0.041
9.43,-0.094,0.936,0.045
9.44,-0.08,0.974,0.132
9.45,-0.324,0.796,-0.019
9.46,-0.315,1.208,-0.093
9.47,-0.119,0.909,-0.088
9.48,-0.148,1.012,0.104
9.49,-0.201,0.839,0.149
9.5,-0.269,0.98,-0.074
9.51,-0.335,1.141,-0.148
9.52,-0.141,0.827,-0.058
9.53,-0.195,1.129,0.171
9.54,-0.112,0.743,0.053
9.55,-0.414,1.114,-0.089
9.56,-0.213,0.878,-0.126
9.57,-0.223,1.087,0.031
9.58,-0.053,0.938,0.132
9.59,-0.198,0.781,0.021
9.6,-0.397,1.081,-0.147
9.61,-0.183,0.884,-0.059
9.62,-0.134,1.233,0.033
9.63,-0.074,0.673,0.157
9.64,-0.281,1.02,0.01
9.65,-0.301,0.978,-0.148
9.66,-0.218,1.002,-0.074
9.67,-0.103,1.058,0.076
9.68,-0.104,0.716,0.116
9.69,-0.371,1.136,-0.046
9.7,-0.232,0.801,-0.162
9.71,-0.187,1.131,-0.014
9.72,-0.095,0.815,0.177
9.73,-0.204,0.973,0.153
9.74,-0.306,1.068,-0.107
9.75,-0.231,0.852,-0.128
9.76,-0.193,1.148,-0.04
9.77,-0.2,0.799,0.267
9.78,-0.232,1.103,0.062
9.79,-0.328,0.807,-0.149
9.8,-0.208,1.063,-0.074
9.81,-0.124,1.054,0.047
9.82,-0.01,0.866,0.128
9.83,-0.28,1.006,0.017
9.84,-0.32,0.83,-0.112
9.85,-0.159,1.228,-0.098
9.86,-0.123,0.869,0.056
9.87,-0.083,0.935,0.101
9.88,-0.333,0.889,-0.019
9.89,-0.244,1.044,-0.176
9.9,-0.14,1.029,-0.058
9.91,-0.121,0.815,0.107
9.92,-0.215,1.008,0.143
9.93,-0.336,0.816,-0.083
9.94,-0.193,1.223,-0.112
9.95,-0.142,0.889,-0.033
9.96,-0.164,0.964,0.187
9.97,-0.18,0.896,0.09
9.98,-0.311,0.96,-0.146
9.99,-0.211,1.076,-0.137
10.0,-0.199,0.879,0.05
10.01,-0.094,1.086,0.187
10.02,-0.33,0.773,0.015
10.03,-0.318,1.133,-0.161
10.04,-0.099,0.89,-0.07
10.05,-0.335,1.119,0.088
10.06,-0.143,0.756,0.114
10.07,-0.311,1.015,-0.049
10.08,-0.255,1.065,-0.161
10.09,-0.187,0.893,-0.056
10.1,-0.177,1.056,0.152
10.11,-0.118,0.735,0.124
10.12,-0.345,1.147,-0.126
10.13,-0.251,0.791,-0.112
10.14,-0.16,1.135,0.024
10.15,-0.011,0.934,0.103
10.16,-0.217,0.87,0.053
10.17,-0.329,1.025,-0.151
10.18,-0.175,0.906,-0.051
10.19,-0.095,1.235,0.013
10.2,-0.13,0.681,0.187
10.21,-0.28,1.047,0.048
10.22,-0.282,0.92,-0.157
10.23,-0.138,1.086,-0.096
10.24,-0.124,0.98,0.031
10.25,-0.104,0.701,0.111
10.26,-0.342,1.167,-0.04
10.27,-0.23,0.836,-0.152
10.28,-0.21,1.105,-0.033
10.29,-0.059,0.745,0.134
10.3,-0.157,0.979,0.096
10.31,-0.33,1.002,-0.088
10.32,-0.21,0.9,-0.13
10.33,-0.19,1.112,-0.004
10.34,-0.024,0.82,0.136
10.35,-0.202,1.113,0.003
10.36,-0.327,0.764,-0.174
10.37,-0.182,1.106,-0.09
10.38,-0.161,1.015,0.061
10.39,-0.094,0.893,0.119
10.4,-0.275,0.975,-0.007
10.41,-0.27,0.897,-0.132
10.42,-0.113,1.234,-0.055
10.43,-0.024,0.722,0.05
10.44,-0.207,1.014,0.15
10.45,-0.296,0.887,-0.063
10.46,-0.225,1.145,-0.148
10.47,-0.189,0.92,-0.032
10.48,-0.072,0.865,0.15
10.49,-0.167,1.042,0.092
10.5,-0.317,0.834,-0.153
10.51,-0.278,1.108,-0.118
10.52,-0.159,0.89,0.072
10.53,-0.032,1.11,0.139
10.54,-0.208,0.827,0.002
10.55,-0.367,0.979,-0.108
10.56,-0.215,1.115,-0.03
10.57,-0.011,0.936,0.046
10.58,-0.171,0.952,0.12
10.59,-0.291,0.822,-0.006
10.6,-0.315,1.21,-0.151
10.61,-0.134,0.914,-0.05
10.62,-0.103,0.98,0.069
10.63,-0.179,0.835,0.151
10.64,-0.314,0.989,-0.063
10.65,-0.334,1.103,-0.121
10.66,-0.181,0.807,-0.0
10.67,-0.137,1.101,0.178
10.68,-0.125,0.776,0.038
10.69,-0.396,1.106,-0.154
10.7,-0.231,0.839,-0.104
10.71,-0.101,1.144,0.068
10.72,-0.047,1.003,0.144
10.73,-0.236,0.785,-0.035
10.74,-0.367,1.081,-0.111
10.75,-0.163,0.904,-0.044
10.76,-0.095,1.2,0.07
10.77,-0.108,0.649,0.117
10.78,-0.374,1.059,-0.007
10.79,-0.251,1.036,-0.158
10.8,-0.137,0.943,-0.074
10.81,-0.136,0.93,0.133
10.82,-0.142,0.756,0.13
10.83,-0.353,1.228,-0.098
10.84,-0.236,0.777,-0.142
10.85,-0.294,1.195,0.071
10.86,0.026,0.833,0.143
10.87,-0.236,1.039,0.014
10.88,-0.353,0.838,-0.128
10.89,-0.235,1.078,-0.064
10.9,-0.02,1.13,0.047
10.91,-0.093,0.764,0.111
10.92,-0.299,1.04,-0.011
10.93,-0.333,0.842,-0.087
10.94,-0.173,1.246,-0.073
10.95,-0.163,0.795,0.112
10.96,-0.169,0.95,0.11
10.97,-0.328,1.004,-0.01
10.98,-0.252,0.985,-0.156
10.99,-0.205,1.095,-0.049
11.0,-0.102,0.797,0.165
11.01,-0.155,1.112,0.094
11.02,-0.298,0.845,-0.153
11.03,-0.303,1.09,-0.107
11.04,-0.2,0.977,0.062
11.05,0.002,0.944,0.158
11.06,-0.225,0.938,0.009
11.07,-0.37,0.863,-0.073
11.08,-0.199,1.221,-0.116
11.09,-0.098,0.81,0.07
11.1,-0.069,1.014,0.11
11.11,-0.334,0.895,0.007
11.12,-0.313,1.119,-0.146
11.13,-0.171,0.922,-0.087
11.14,-0.105,0.861,0.105
11.15,-0.194,0.998,0.158
11.16,-0.307,0.924,-0.087
11.17,-0.337,1.126,-0.084
11.18,-0.147,0.84,-0.059
11.19,-0.174,1.085,0.172
11.2,-0.146,0.838,0.061
11.21,-0.295,1.013,-0.124
11.22,-0.291,1.0,-0.128
11.23,-0.184,0.963,0.059
11.24,-0.028,1.038,0.153
11.25,-0.203,0.753,0.032
11.26,-0.399,1.112,-0.116
11.27,-0.227,0.963,-0.03
11.28,-0.068,1.157,0.036
11.29,-0.13,0.774,0.149
11.3,-0.279,0.885,-0.032
11.31,-0.379,1.144,-0.064
11.32,-0.098,0.895,-0.131
11.33,-0.165,1.105,0.107
11.34,-0.138,0.7,0.144
11.35,-0.312,1.14,-0.061
11.36,-0.278,0.892,-0.143
11.37,-0.198,1.017,-0.059
11.38,-0.146,0.966,0.195
11.39,-0.112,0.824,0.084
11.4,-0.351,1.112,-0.108
11.41,-0.23,0.773,-0.11
11.42,-0.234,1.235,0.051
11.43,-0.001,0.791,0.157
11.44,-0.208,0.982,0.014
11.45,-0.395,0.916,-0.109
11.46,-0.14,1.023,-0.088
11.47,-0.134,1.152,0.046
11.48,-0.103,0.712,0.157
11.49,-0.234,1.068,-0.021
11.5,-0.367,0.861,-0.113
11.51,-0.198,1.132,-0.096
11.52,-0.084,0.881,0.075
11.53,-0.157,0.908,0.129
11.54,-0.324,1.002,-0.058
11.55,-0.292,0.933,-0.123
11.56,-0.11,1.155,-0.059
11.57,-0.102,0.736,0.118
11.58,-0.208,1.086,0.154
11.59,-0.286,0.887,-0.104
11.6,-0.267,1.039,-0.14
11.61,-0.162,0.957,0.008
11.62,-0.107,0.946,0.175
11.63,-0.218,1.024,0.024
11.64,-0.354,0.82,-0.125
11.65,-0.236,1.155,-0.115
11.66,-0.081,0.923,0.068
11.67,-0.134,1.04,0.122
11.68,-0.23,0.736,-0.024
11.69,-0.365,1.148,-0.102
11.7,-0.105,0.989,-0.089
11.71,-0.086,1.048,0.074
11.72,-0.187,0.841,0.139
11.73,-0.309,0.899,-0.023
11.74,-0.232,1.205,-0.157
11.75,-0.128,0.892,-0.067
11.76,-0.184,1.045,0.135
11.77,-0.166,0.75,0.145
11.78,-0.311,1.125,-0.117
11.79,-0.267,0.908,-0.165
11.8,-0.189,0.927,0.001
11.81,-0.083,1.045,0.191
11.82,-0.196,0.768,0.041
11.83,-0.36,1.103,-0.159
11.84,-0.218,0.846,-0.029
11.85,-0.112,1.23,0.098
11.86,-0.096,0.759,0.161
11.87,-0.306,0.953,-0.005
11.88,-0.298,1.059,-0.132
11.89,-0.181,0.937,-0.096
11.9,-0.154,1.069,0.11
11.91,-0.156,0.702,0.159
11.92,-0.284,1.171,-0.089
11.93,-0.32,0.808,-0.127
11.94,-0.234,1.109,-0.048
11.95,-0.106,0.92,0.17
11.96,-0.142,0.865,0.063
11.97,-0.352,1.044,-0.089
11.98,-0.169,0.825,-0.125
11.99,-0.209,1.247,0.056
12.0,-0.024,0.756,0.134
12.01,-0.19,1.025,0.049
12.02,-0.322,0.86,-0.152
12.03,-0.249,1.095,-0.065
12.04,-0.142,1.052,0.041
12.05,-0.064,0.796,0.134
12.06,-0.336,1.092,-0.012
12.07,-0.311,0.814,-0.101
12.08,-0.228,1.172,-0.071
12.09,-0.11,0.794,0.098
12.1,-0.148,0.957,0.122
12.11,-0.314,0.974,-0.04
12.12,-0.278,1.0,-0.131
12.13,-0.2,1.022,-0.071
12.14,-0.087,0.768,0.117
12.15,-0.201,1.09,0.097
12.16,-0.311,0.871,-0.078
12.17,-0.267,1.113,-0.13
12.18,-0.147,0.899,-0.027
12.19,0.058,0.953,0.093
12.2,-0.153,0.978,0.032
12.21,-0.429,0.858,-0.101
12.22,-0.261,1.128,-0.085
12.23,-0.029,0.927,0.066
12.24,-0.138,1.034,0.12
12.25,-0.214,0.79,0.016
12.26,-0.369,1.131,-0.144
12.27,-0.169,1.002,-0.077
12.28,-0.111,0.894,0.091
12.29,-0.158,0.96,0.142
12.3,-0.332,0.871,-0.052
12.31,-0.319,1.136,-0.154
12.32,-0.201,0.807,-0.016
12.33,-0.122,1.063,0.118
12.34,-0.185,0.837,0.129
12.35,-0.33,1.051,-0.116
12.36,-0.265,0.95,-0.121
12.37,-0.177,0.96,0.035
12.38,-0.08,1.092,0.18
12.39,-0.171,0.757,0.022
12.4,-0.353,1.119,-0.103
12.41,-0.261,0.919,-0.057
12.42,-0.186,1.15,0.049
12.43,-0.071,0.765,0.16
12.44,-0.258,0.89,0.017
12.45,-0.338,1.13,-0.122
12.46,-0.135,0.892,-0.093
12.47,-0.128,1.127,0.102
12.48,-0.079,0.641,0.117
12.49,-0.337,1.185,-0.062
12.5,-0.295,0.806,-0.131
12.51,-0.278,1.095,-0.035
12.52,-0.099,0.823,0.141
12.53,-0.149,0.967,0.095
12.54,-0.31,1.023,-0.084
12.55,-0.235,0.828,-0.152
12.56,-0.173,1.175,0.031
12.57,-0.041,0.843,0.173
12.58,-0.194,1.048,0.021
12.59,-0.351,0.803,-0.112
12.6,-0.187,1.133,-0.102
12.61,-0.071,1.074,0.032
12.62,-0.127,0.853,0.141
12.63,-0.238,1.016,0.012
12.64,-0.358,0.858,-0.118
12.65,-0.158,1.203,-0.047
12.66,-0.098,0.797,0.068
12.67,-0.075,0.977,0.068
12.68,-0.302,0.917,-0.068
12.69,-0.211,1.105,-0.152
12.7,-0.193,1.005,-0.061
12.71,-0.129,0.803,0.107
12.72,-0.195,1.024,0.12
12.73,-0.27,0.847,-0.113
12.74,-0.297,1.126,-0.116
12.75,-0.177,0.857,-0.009
12.76,-0.138,1.049,0.17
12.77,-0.193,0.9,0.105
12.78,-0.316,0.93,-0.125
12.79,-0.201,1.082,-0.117
12.8,-0.15,0.961,0.031
12.81,-0.036,1.079,0.126
12.82,-0.228,0.745,0.015
12.83,-0.339,1.106,-0.133
12.84,-0.183,0.974,-0.071
12.85,-0.102,1.032,0.073
12.86,-0.159,0.862,0.192
12.87,-0.334,0.882,-0.009
12.88,-0.32,1.187,-0.163
12.89,-0.133,0.873,-0.082
12.9,-0.133,1.094,0.117
12.91,-0.072,0.743,0.109
12.92,-0.365,1.084,-0.094
12.93,-0.233,0.957,-0.154
12.94,-0.205,0.959,0.01
12.95,-0.122,1.022,0.155
12.96,-0.196,0.82,0.099
12.97,-0.418,1.126,-0.154
12.98,-0.219,0.794,-0.102
12.99,-0.104,1.243,0.036
13.0,0.098,0.79,0.105
13.01,-0.246,0.952,0.048
13.02,-0.278,1.007,-0.154
13.03,-0.144,0.988,-0.077
13.04,-0.158,1.133,0.051
13.05,-0.113,0.666,0.165
13.06,-0.345,1.141,-0.039
13.07,-0.225,0.872,-0.167
13.08,-0.178,1.126,-0.033
13.09,-0.111,0.874,0.068
13.1,-0.126,0.855,0.121
13.11,-0.325,1.112,-0.088
13.12,-0.193,0.793,-0.133
13.13,-0.242,1.208,-0.018
13.14,-0.055,0.808,0.167
13.15,-0.146,1.063,0.054
13.16,-0.355,0.865,-0.118
13.17,-0.258,1.053,-0.08
13.18,-0.091,1.097,-0.011
13.19,-0.237,0.807,0.257
13.2,-0.263,1.029,0.027
13.21,-0.313,0.807,-0.102
13.22,-0.101,1.259,-0.104
13.23,-0.163,0.872,0.068
13.24,-0.139,0.931,0.182
13.25,-0.309,0.934,-0.017
13.26,-0.246,1.014,-0.139
13.27,-0.214,1.076,-0.058
13.28,-0.16,0.777,0.116
13.29,-0.174,1.068,0.134
13.3,-0.287,0.85,-0.098
13.31,-0.223,1.115,-0.12
13.32,-0.235,0.888,-0.008
13.33,-0.026,1.088,0.155
13.34,-0.159,0.839,0.074
13.35,-0.384,0.977,-0.115
13.36,-0.236,1.03,-0.059
13.37,-0.073,1.017,0.01
13.38,-0.153,0.943,0.167
13.39,-0.254,0.768,0.004
13.4,-0.29,1.243,-0.121
13.41,-0.163,0.88,-0.112
13.42,-0.177,1.024,0.116
13.43,-0.128,0.827,0.225
13.44,-0.355,0.948,-0.049
13.45,-0.276,1.087,-0.159
13.46,-0.224,0.852,-0.073
13.47,-0.173,1.091,0.212
13.48,-0.087,0.745,0.091
13.49,-0.419,1.115,-0.081
13.5,-0.168,0.833,-0.134
13.51,-0.17,1.108,0.009
13.52,-0.134,0.954,0.241
13.53,-0.179,0.824,0.051
13.54,-0.396,1.104,-0.106
13.55,-0.191,0.822,-0.073
13.56,-0.097,1.293,0.012
13.57,-0.092,0.724,0.17
13.58,-0.242,0.993,0.002
13.59,-0.357,0.981,-0.124
13.6,-0.093,0.984,-0.12
13.61,-0.184,1.067,0.103
13.62,-0.06,0.704,0.103
13.63,-0.377,1.162,-0.033
13.64,-0.253,0.829,-0.175
13.65,-0.276,1.119,-0.017
13.66,-0.086,0.825,0.104
13.67,-0.151,0.936,0.158
13.68,-0.355,1.001,-0.121
13.69,-0.244,0.831,-0.058
13.7,-0.165,1.199,-0.017
13.71,-0.12,0.796,0.183
13.72,-0.224,1.07,0.04
13.73,-0.247,0.84,-0.111
13.74,-0.217,1.143,-0.082
13.75,-0.133,1.037,0.041
13.76,-0.05,0.834,0.14
13.77,-0.216,1.02,0.018
13.78,-0.319,0.855,-0.12
13.79,-0.238,1.218,-0.073
13.8,-0.098,0.818,0.046
13.81,-0.132,1.006,0.145
13.82,-0.323,0.883,-0.046
13.83,-0.268,1.061,-0.161
13.84,-0.194,0.957,-0.074
13.85,-0.093,0.829,0.129
13.86,-0.173,1.093,0.147
13.87,-0.312,0.868,-0.093
13.88,-0.313,1.077,-0.141
13.89,-0.241,0.908,0.072
13.9,-0.035,1.086,0.108
13.91,-0.224,0.86,0.082
13.92,-0.345,0.926,-0.124
13.93,-0.191,1.156,-0.081
13.94,-0.027,0.927,-0.017
13.95,-0.096,0.996,0.129
13.96,-0.168,0.774,-0.013
13.97,-0.34,1.23,-0.12
13.98,-0.141,0.943,-0.125
13.99,-0.138,0.982,0.084
14.0,-0.157,0.842,0.182
14.01,-0.334,0.923,-0.014
14.02,-0.236,1.208,-0.173
14.03,-0.202,0.811,-0.094
14.04,-0.282,1.071,0.165
14.05,-0.023,0.792,0.085
14.06,-0.457,1.099,-0.123
14.07,-0.27,0.836,-0.1
14.08,-0.121,1.005,-0.032
14.09,-0.258,1.087,0.314
14.1,-0.166,0.784,0.023
14.11,-0.387,1.115,-0.113
14.12,-0.197,0.858,-0.088
14.13,-0.095,1.273,0.036
14.14,-0.057,0.658,0.136
14.15,-0.307,1.034,0.003
14.16,-0.281,0.952,-0.112
14.17,-0.211,1.077,-0.132
14.18,-0.143,0.951,0.097
14.19,-0.114,0.75,0.112
14.2,-0.393,1.154,-0.0
14.21,-0.214,0.8,-0.153
14.22,-0.269,1.106,-0.023
14.23,-0.077,0.771,0.142
14.24,-0.204,1.046,0.121
14.25,-0.28,0.955,-0.124
14.26,-0.27,0.869,-0.131
14.27,-0.23,1.074,0.016
14.28,-0.035,0.868,0.193
14.29,-0.193,1.137,0.042
14.3,-0.342,0.735,-0.138
14.31,-0.252,1.126,-0.063
14.32,-0.074,1.025,0.034
14.33,-0.073,0.927,0.13
14.34,-0.294,0.925,0.036
14.35,-0.324,0.905,-0.128
14.36,-0.116,1.216,-0.101
14.37,-0.143,0.83,0.079
14.38,-0.131,1.03,0.129
14.39,-0.303,0.832,-0.017
14.4,-0.248,1.122,-0.155
14.41,-0.182,0.949,-0.059
14.42,-0.139,0.9,0.112
14.43,-0.229,0.973,0.142
14.44,-0.3,0.858,-0.101
14.45,-0.283,1.128,-0.115
14.46,-0.175,0.816,0.006
14.47,-0.134,1.083,0.19
14.48,-0.117,0.844,0.04
14.49,-0.366,0.979,-0.119
14.5,-0.213,1.007,-0.117
14.51,-0.138,1.061,0.091
14.52,-0.057,1.013,0.055
14.53,-0.26,0.76,0.031
14.54,-0.362,1.168,-0.146
14.55,-0.118,0.979,-0.074
14.56,-0.115,1.082,0.069
14.57,-0.027,0.757,0.111
14.58,-0.358,0.959,-0.019
14.59,-0.244,1.159,-0.151
14.6,-0.254,0.854,-0.046
14.61,-0.074,1.035,0.081
14.62,-0.202,0.766,0.15
14.63,-0.342,1.133,-0.109
14.64,-0.266,0.855,-0.125
14.65,-0.158,1.07,-0.038
14.66,-0.308,0.982,0.272
14.67,-0.188,0.836,0.073
14.68,-0.333,1.11,-0.149
14.69,-0.226,0.816,-0.128
14.7,-0.125,1.214,0.047
14.71,-0.036,0.785,0.172
14.72,-0.291,0.996,0.014
14.73,-0.313,0.906,-0.111
14.74,-0.161,1.004,-0.118
14.75,-0.091,1.125,0.081
14.76,-0.131,0.766,0.137
14.77,-0.329,1.104,-0.058
14.78,-0.27,0.822,-0.139
14.79,-0.149,1.218,-0.045
14.8,-0.102,0.84,0.093
14.81,-0.159,0.912,0.143
14.82,-0.323,1.016,-0.064
14.83,-0.164,0.926,-0.119
14.84,-0.221,1.176,-0.03
14.85,-0.139,0.721,0.164
14.86,-0.251,1.105,0.115
14.87,-0.251,0.813,-0.162
14.88,-0.282,1.075,-0.106
14.89,-0.146,0.958,0.078
14.9,-0.073,0.947,0.209
14.91,-0.313,0.994,0.013
14.92,-0.294,0.816,-0.161
14.93,-0.213,1.206,-0.076
14.94,-0.108,0.852,0.052
14.95,-0.141,0.994,0.122
14.96,-0.296,0.826,-0.062
14.97,-0.198,1.231,-0.169
14.98,-0.161,0.924,-0.052
14.99,-0.213,0.905,0.158
15.0,-0.135,0.919,0.132
15.01,-0.312,0.952,-0.137
15.02,-0.216,1.124,-0.131
15.03,-0.214,0.872,0.023
15.04,-0.118,1.087,0.193
15.05,-0.168,0.737,0.023
15.06,-0.393,1.081,-0.128
15.07,-0.193,0.999,-0.093
15.08,-0.163,1.012,0.045
15.09,-0.108,0.886,0.159
15.1,-0.266,0.823,-0.063
15.11,-0.314,1.216,-0.135
15.12,-0.182,0.865,-0.043
15.13,-0.157,1.048,0.116
15.14,-0.133,0.73,0.124
15.15,-0.406,1.062,-0.046
15.16,-0.216,1.025,-0.17
15.17,-0.211,0.896,-0.017
15.18,-0.126,1.042,0.129
15.19,-0.13,0.788,0.072
15.2,-0.394,1.136,-0.134
15.21,-0.244,0.809,-0.119
15.22,-0.154,1.21,0.029
15.23,-0.012,0.883,0.134
15.24,-0.281,0.852,0.009
15.25,-0.331,1.051,-0.133
15.26,-0.112,0.926,-0.08
15.27,-0.089,1.139,0.034
15.28,-0.094,0.71,0.135
15.29,-0.385,1.094,-0.024
15.3,-0.179,0.899,-0.19
15.31,-0.175,1.049,-0.043
15.32,-0.064,0.901,0.001
15.33,-0.128,0.823,0.152
15.34,-0.348,1.162,-0.113
15.35,-0.214,0.748,-0.114
15.36,-0.309,1.222,0.027
15.37,-0.039,0.799,0.124
15.38,-0.136,1.0,0.007
15.39,-0.346,0.923,-0.112
15.4,-0.206,0.998,-0.062
15.41,-0.032,1.151,0.026
15.42,-0.104,0.74,0.163
15.43,-0.356,1.067,-0.014
15.44,-0.253,0.847,-0.127
15.45,-0.146,1.234,-0.083
15.46,-0.189,0.774,0.12
15.47,-0.101,0.893,0.075
15.48,-0.302,1.078,-0.046
15.49,-0.241,0.907,-0.16
15.5,-0.204,1.049,-0.015
15.51,-0.178,0.792,0.242
15.52,-0.123,1.129,0.079
15.53,-0.303,0.827,-0.126
15.54,-0.281,1.017,-0.109
15.55,-0.221,1.02,0.058
15.56,0.001,0.959,0.155
15.57,-0.261,0.972,0.024
15.58,-0.389,0.793,-0.128
15.59,-0.15,1.246,-0.042
15.6,-0.078,0.864,0.049
15.61,-0.132,0.958,0.126
15.62,-0.275,0.882,-0.015
15.63,-0.273,1.117,-0.139
15.64,-0.215,1.004,-0.08
15.65,-0.096,0.803,0.124
15.66,-0.195,1.054,0.154
15.67,-0.359,0.874,-0.092
15.68,-0.302,1.147,-0.142
15.69,-0.158,0.89,-0.009
15.7,-0.169,1.053,0.227
15.71,-0.16,0.891,0.064
15.72,-0.367,0.94,-0.129
15.73,-0.241,1.096,-0.094
15.74,-0.025,1.001,0.004
15.75,-0.055,1.004,0.087
15.76,-0.228,0.75,-0.0
15.77,-0.288,1.224,-0.143
15.78,-0.229,0.867,-0.036
15.79,-0.149,1.034,0.093
15.8,-0.147,0.759,0.167
15.81,-0.329,1.082,-0.087
15.82,-0.344,0.966,-0.124
15.83,-0.186,0.887,-0.052
15.84,-0.117,1.132,0.171
15.85,-0.135,0.747,0.071
15.86,-0.359,1.157,-0.099
15.87,-0.223,0.836,-0.136
15.88,-0.236,1.179,0.041
15.89,-0.061,0.862,0.168
15.9,-0.194,0.895,0.016
15.91,-0.345,1.061,-0.149
15.92,-0.19,0.936,-0.074
15.93,-0.111,1.179,0.075
15.94,0.013,0.629,0.126
15.95,-0.357,1.084,0.01
15.96,-0.274,0.925,-0.142
15.97,-0.133,1.074,-0.098
15.98,-0.087,0.919,0.11
15.99,-0.171,0.799,0.145
16.0,-0.317,1.163,-0.057
16.01,-0.279,0.848,-0.124
16.02,-0.25,1.134,-0.054
16.03,-0.055,0.83,0.203
16.04,-0.2,1.114,0.053
16.05,-0.338,0.764,-0.139
16.06,-0.226,1.058,-0.079
16.07,-0.158,1.052,0.076
16.08,-0.027,0.882,0.129
16.09,-0.289,0.985,0.01
16.1,-0.321,0.826,-0.123
16.11,-0.154,1.25,-0.046
16.12,-0.117,0.783,0.057
16.13,-0.226,0.962,0.187
16.14,-0.323,0.902,-0.042
16.15,-0.215,1.076,-0.158
16.16,-0.145,0.998,-0.061
16.17,-0.003,0.8,0.006
16.18,-0.175,1.035,0.119
16.19,-0.336,0.887,-0.106
16.2,-0.233,1.114,-0.113
16.21,-0.207,0.888,0.018
16.22,-0.042,1.042,0.14
16.23,-0.183,0.882,0.071
16.24,-0.381,0.94,-0.132
16.25,-0.212,1.087,-0.091
16.26,-0.098,0.957,0.041
16.27,-0.146,1.012,0.195
16.28,-0.21,0.741,-0.027
16.29,-0.311,1.171,-0.104
16.3,-0.144,0.963,-0.107
16.31,-0.105,0.955,0.075
16.32,-0.139,0.835,0.162
16.33,-0.312,0.926,-0.02
16.34,-0.29,1.152,-0.188
16.35,-0.199,0.796,-0.045
16.36,-0.162,1.083,0.157
16.37,-0.145,0.779,0.115
16.38,-0.342,1.1,-0.116
16.39,-0.224,0.871,-0.136
16.4,-0.163,1.054,0.046
16.41,-0.045,1.037,0.115
16.42,-0.27,0.797,0.049
16.43,-0.346,1.088,-0.125
16.44,-0.182,0.85,-0.077
16.45,-0.083,1.221,0.027
16.46,-0.104,0.756,0.155
16.47,-0.309,0.969,0.031
16.48,-0.297,1.005,-0.143
16.49,-0.127,0.996,-0.08
16.5,-0.137,1.102,0.071
16.51,-0.134,0.672,0.113
16.52,-0.347,1.143,-0.043
16.53,-0.174,0.864,-0.178
16.54,-0.265,1.09,-0.022
16.55,-0.363,0.833,0.174
16.56,-0.149,0.914,0.121
16.57,-0.36,1.063,-0.15
16.58,-0.292,0.741,-0.102
16.59,-0.163,1.198,0.026
16.6,-0.119,0.839,0.155
16.61,-0.231,1.053,0.036
16.62,-0.326,0.789,-0.123
16.63,-0.197,1.192,-0.065
16.64,-0.126,0.939,0.045
16.65,-0.063,0.848,0.158
16.66,-0.305,0.994,-0.024
16.67,-0.244,0.977,-0.13
16.68,-0.19,1.163,-0.095
16.69,-0.148,0.745,0.113
16.7,-0.189,1.054,0.144
16.71,-0.33,0.896,-0.086
16.72,-0.292,1.13,-0.141
16.73,-0.252,0.943,0.029
16.74,-0.123,0.923,0.181
16.75,-0.177,1.022,0.098
16.76,-0.307,0.861,-0.158
16.77,-0.281,1.144,-0.094
16.78,-0.142,0.922,0.052
16.79,-0.069,1.117,0.142
16.8,-0.242,0.828,0.012
16.81,-0.344,1.007,-0.151
16.82,-0.123,1.089,-0.067
16.83,-0.094,0.974,0.066
16.84,-0.175,0.946,0.201
16.85,-0.326,0.812,-0.007
16.86,-0.285,1.213,-0.17
16.87,-0.126,0.899,-0.046
16.88,-0.141,0.993,0.109
16.89,-0.177,0.804,0.186
16.9,-0.368,1.03,-0.063
16.91,-0.204,1.079,-0.163
16.92,-0.212,0.897,-0.006
16.93,-0.145,1.03,0.143
16.94,-0.129,0.801,0.086
16.95,-0.378,1.139,-0.153
16.96,-0.22,0.847,-0.123
16.97,-0.18,1.175,0.074
16.98,0.005,0.917,0.101
16.99,-0.346,0.819,0.005
17.0,-0.301,1.068,-0.13
17.01,-0.125,0.947,-0.086
17.02,-0.144,1.131,0.093
17.03,-0.085,0.654,0.131
17.04,-0.361,1.117,-0.016
17.05,-0.211,0.961,-0.178
17.06,-0.184,1.034,-0.059
17.07,-0.029,0.953,0.001
17.08,-0.134,0.769,0.136
17.09,-0.325,1.216,-0.117
17.1,-0.258,0.786,-0.114
17.11,-0.272,1.168,-0.012
17.12,-0.069,0.799,0.215
17.13,-0.213,0.985,0.033
17.14,-0.354,0.936,-0.134
17.15,-0.203,0.928,-0.076
17.16,-0.093,1.172,0.062
17.17,-0.009,0.698,0.095
17.18,-0.332,1.115,-0.012
17.19,-0.305,0.846,-0.121
17.2,-0.101,1.215,-0.06
17.21,-0.345,0.857,0.069
17.22,-0.168,0.83,0.141
17.23,-0.267,1.103,-0.078
17.24,-0.251,0.887,-0.171
17.25,-0.216,1.115,-0.044
17.26,-0.06,0.805,0.145
17.27,-0.192,1.103,0.106
17.28,-0.29,0.863,-0.152
17.29,-0.26,1.043,-0.072
17.3,-0.193,1.007,0.048
17.31,-0.043,0.878,0.172
17.32,-0.233,1.017,0.016
17.33,-0.312,0.829,-0.147
17.34,-0.219,1.219,-0.067
17.35,-0.109,0.844,0.048
17.36,-0.084,0.966,0.156
17.37,-0.293,0.917,-0.041
17.38,-0.287,1.043,-0.14
17.39,-0.22,1.064,-0.089
17.4,-0.088,0.781,0.134
17.41,-0.167,1.052,0.126
17.42,-0.309,0.897,-0.104
17.43,-0.329,1.135,-0.106
17.44,-0.144,0.867,0.002
17.45,-0.066,1.121,0.156
17.46,-0.169,0.774,0.05
17.47,-0.313,1.012,-0.125
17.48,-0.218,1.068,-0.067
17.49,-0.111,1.016,0.035
17.5,-0.155,0.938,0.178
17.51,-0.177,0.807,-0.032
17.52,-0.395,1.19,-0.114
17.53,-0.175,0.866,-0.084
17.54,-0.158,1.088,0.124
17.55,-0.106,0.768,0.131
17.56,-0.364,0.991,-0.017
17.57,-0.279,1.04,-0.172
17.58,-0.193,0.879,-0.028
17.59,-0.131,1.071,0.119
17.6,-0.16,0.76,0.103
17.61,-0.142,1.125,-0.082
17.62,-0.128,0.797,0.13
17.63,-0.219,1.055,0.118
17.64,-0.343,0.825,-0.085
17.65,-0.284,1.121,-0.096
17.66,-0.169,0.903,0.006
17.67,-0.112,0.959,0.138
17.68,-0.212,0.965,0.092
17.69,-0.305,0.905,-0.155
17.7,-0.254,1.084,-0.12
17.71,-0.333,0.89,0.108
17.72,-0.077,1.148,0.146
17.73,-0.208,0.742,-0.025
17.74,-0.404,1.042,-0.093
17.75,-0.183,0.963,-0.067
17.76,-0.036,1.028,0.086
17.77,-0.213,0.914,0.169
17.78,-0.354,0.822,-0.055
17.79,-0.304,1.19,-0.105
17.8,-0.074,0.902,-0.088
17.81,-0.231,1.051,0.098
17.82,-0.162,0.735,0.139
17.83,-0.287,1.088,-0.083
17.84,-0.209,1.006,-0.122
17.85,-0.214,0.929,-0.022
17.86,-0.119,1.054,0.207
17.87,-0.123,0.799,0.048
17.88,-0.399,1.125,-0.157
17.89,-0.208,0.821,-0.132
17.9,-0.183,1.218,0.085
17.91,0.005,0.793,0.137
17.92,-0.278,0.914,0.04
17.93,-0.311,1.068,-0.145
17.94,-0.187,0.917,-0.077
17.95,-0.127,1.127,0.049
17.96,-0.082,0.7,0.136
17.97,-0.376,1.104,-0.052
17.98,-0.267,0.876,-0.126
17.99,-0.156,1.087,-0.074
18.0,-0.268,0.914,0.194
18.01,-0.172,0.812,0.122
18.02,-0.377,1.143,-0.08
18.03,-0.183,0.848,-0.139
18.04,-0.209,1.176,-0.007
18.05,-0.031,0.708,0.184
18.06,-0.201,1.064,0.088
18.07,-0.347,0.896,-0.151
18.08,-0.212,0.931,-0.111
18.09,-0.136,1.116,0.066
18.1,-0.014,0.824,0.183
18.11,-0.321,1.073,0.02
18.12,-0.348,0.779,-0.121
18.13,-0.139,1.239,-0.104
18.14,-0.103,0.897,0.072
18.15,-0.157,0.873,0.175
18.16,-0.314,1.008,-0.024
18.17,-0.206,1.004,-0.153
18.18,-0.2,0.964,-0.042
18.19,-0.019,0.826,0.067
18.2,-0.164,1.066,0.122
18.21,-0.316,0.865,-0.137
18.22,-0.24,1.126,-0.116
18.23,-0.17,0.906,0.005
18.24,-0.089,1.052,0.201
18.25,-0.181,0.855,0.014
18.26,-0.356,0.963,-0.13
18.27,-0.203,1.099,-0.064
18.28,-0.048,0.906,0.048
18.29,-0.115,1.037,0.177
18.3,-0.26,0.792,-0.048
18.31,-0.345,1.177,-0.118
18.32,-0.177,0.924,-0.064
18.33,-0.088,0.993,0.084
18.34,-0.183,0.858,0.171
18.35,-0.317,0.955,-0.092
18.36,-0.329,1.093,-0.115
18.37,-0.149,0.819,-0.077
18.38,-0.145,1.158,0.193
18.39,-0.122,0.805,0.086
18.4,-0.352,1.064,-0.132
18.41,-0.231,0.891,-0.11
18.42,-0.173,1.142,0.058
18.43,-0.068,0.956,0.099
18.44,-0.208,0.792,0.066
18.45,-0.341,1.142,-0.172
18.46,-0.203,0.925,-0.039
18.47,-0.108,1.213,0.011
18.48,-0.032,0.704,0.15
18.49,-0.351,1.02,0.012
18.5,-0.26,1.022,-0.17
18.51,-0.198,0.955,-0.082
18.52,-0.121,1.034,0.087
18.53,-0.147,0.709,0.155
18.54,-0.331,1.182,-0.062
18.55,-0.281,0.788,-0.139
18.56,-0.252,1.093,-0.028
18.57,-0.106,0.864,0.127
18.58,-0.157,0.953,0.133
18.59,-0.289,1.052,-0.135
18.6,-0.214,0.802,-0.122
18.61,-0.21,1.215,0.044
18.62,-0.032,0.795,0.17
18.63,-0.219,1.069,0.015
18.64,-0.319,0.805,-0.131
18.65,-0.21,1.12,-0.089
18.66,-0.037,1.09,0.012
18.67,-0.127,0.811,0.128
18.68,-0.288,1.009,0.008
18.69,-0.295,0.872,-0.123
18.7,-0.1,1.228,-0.062
18.71,-0.059,0.772,-0.007
18.72,-0.125,0.98,0.116
18.73,-0.323,0.95,-0.024
18.74,-0.244,1.041,-0.184
18.75,-0.184,0.972,-0.055
18.76,-0.177,0.802,0.176
18.77,-0.166,1.092,0.102
18.78,-0.339,0.861,-0.113
18.79,-0.237,1.109,-0.101
18.8,-0.144,0.933,0.004
18.81,-0.064,1.01,0.164
18.82,-0.188,0.883,0.041
18.83,-0.371,0.918,-0.132
18.84,-0.218,1.174,-0.069
18.85,-0.017,0.934,-0.04
18.86,-0.111,1.039,0.142
18.87,-0.249,0.754,-0.017
18.88,-0.362,1.164,-0.098
18.89,-0.161,0.958,-0.089
18.9,-0.128,0.936,0.085
18.91,-0.15,0.869,0.17
18.92,-0.292,0.926,-0.028
18.93,-0.362,1.181,-0.166
18.94,-0.158,0.771,-0.067
18.95,-0.143,1.136,0.171
18.96,-0.13,0.818,0.094
18.97,-0.365,1.072,-0.123
18.98,-0.203,0.889,-0.142
18.99,-0.234,1.02,0.059
19.0,-0.051,0.909,0.091
19.01,-0.21,0.837,0.073
19.02,-0.322,1.046,-0.148
19.03,-0.249,0.914,-0.005
19.04,-0.134,1.254,0.037
19.05,-0.037,0.678,0.147
19.06,-0.323,1.037,-0.005
19.07,-0.303,0.942,-0.091
19.08,-0.153,1.019,-0.104
19.09,-0.093,0.956,0.044
19.1,-0.067,0.773,0.135
19.11,-0.404,1.163,-0.022
19.12,-0.25,0.766,-0.18
19.13,-0.245,1.108,-0.028
19.14,0.022,0.791,0.058
19.15,-0.127,1.014,0.112
19.16,-0.386,0.945,-0.112
19.17,-0.238,0.823,-0.091
19.18,-0.205,1.145,0.041
19.19,-0.015,0.831,0.15
19.2,-0.248,1.064,0.034
19.21,-0.32,0.778,-0.099
19.22,-0.182,1.157,-0.096
19.23,-0.149,1.044,0.04
19.24,-0.118,0.905,0.129
19.25,-0.235,0.983,0.055
19.26,-0.3,0.903,-0.132
19.27,-0.155,1.205,-0.076
19.28,-0.443,0.821,0.226
19.29,-0.114,1.008,0.16
19.3,-0.271,0.861,-0.04
19.31,-0.273,1.142,-0.189
19.32,-0.238,0.926,-0.047
19.33,-0.071,0.89,0.084
19.34,-0.223,1.051,0.171
19.35,-0.286,0.844,-0.094
19.36,-0.303,1.136,-0.102
19.37,-0.191,0.833,-0.028
19.38,-0.107,1.105,0.172
19.39,-0.155,0.842,0.056
19.4,-0.405,0.969,-0.084
19.41,-0.195,0.998,-0.137
19.42,-0.118,1.013,0.052
19.43,-0.131,1.037,0.137
19.44,-0.231,0.721,0.043
19.45,-0.374,1.145,-0.125
19.46,-0.101,0.967,-0.063
19.47,-0.077,1.162,-0.001
19.48,-0.361,0.809,0.211
19.49,-0.275,0.917,-0.008
19.5,-0.29,1.131,-0.117
19.51,-0.11,0.909,-0.108
19.52,-0.175,1.099,0.079
19.53,-0.111,0.719,0.121
19.54,-0.334,1.129,-0.053
19.55,-0.244,0.889,-0.173
19.56,-0.209,0.986,-0.026
19.57,-0.423,0.954,0.317
19.58,-0.149,0.84,0.138
19.59,-0.336,1.158,-0.136
19.6,-0.271,0.77,-0.117
19.61,-0.201,1.208,0.049
19.62,-0.079,0.852,0.253
19.63,-0.292,0.992,0.046
19.64,-0.313,0.889,-0.126
19.65,-0.217,1.03,-0.09
19.66,-0.078,1.127,0.023
19.67,-0.119,0.669,0.137
19.68,-0.22,1.064,0.027
19.69,-0.289,0.9,-0.126
19.7,-0.188,1.188,-0.086
19.71,-0.186,0.833,0.078
19.72,-0.104,0.903,0.146
19.73,-0.299,1.041,-0.022
19.74,-0.218,0.932,-0.177
19.75,-0.234,1.08,-0.032
19.76,-0.079,0.763,0.117
19.77,-0.153,1.131,0.145
19.78,-0.279,0.852,-0.127
19.79,-0.335,1.001,-0.117
19.8,-0.151,0.978,-0.003
19.81,-0.093,0.99,0.206
19.82,-0.212,0.887,0.047
19.83,-0.345,0.91,-0.124
19.84,-0.216,1.135,-0.058
19.85,-0.067,0.939,0.018
19.86,-0.163,1.009,0.169
19.87,-0.209,0.764,-0.029
19.88,-0.359,1.172,-0.115
19.89,-0.159,0.939,-0.104
19.9,-0.105,0.96,0.122
19.91,-0.093,0.85,0.129
19.92,-0.321,0.913,-0.038
19.93,-0.285,1.179,-0.16
19.94,-0.307,0.809,-0.012
19.95,-0.108,1.035,0.138
19.96,-0.121,0.804,0.114
19.97,-0.374,1.118,-0.12
19.98,-0.279,0.858,-0.116
19.99,-0.187,0.992,0.008
20.0,-0.079,1.073,0.144
20.01,-0.222,0.78,0.077
20.02,-0.383,1.091,-0.106
20.03,-0.18,0.827,-0.103
20.04,-0.125,1.254,0.028
20.05,-0.045,0.742,0.127
20.06,-0.238,0.94,0.031
20.07,-0.354,1.017,-0.155
20.08,-0.197,0.972,-0.049
20.09,-0.186,1.105,0.055
20.1,-0.057,0.638,0.141
20.11,-0.369,1.15,-0.021
20.12,-0.236,0.844,-0.17
20.13,-0.258,1.056,-0.033
20.14,-0.085,0.913,0.113
20.15,-0.139,0.873,0.11
20.16,-0.364,1.077,-0.062
20.17,-0.209,0.848,-0.165
20.18,-0.23,1.153,-0.072
20.19,-0.077,0.785,0.187
20.2,-0.205,1.103,0.048
20.21,-0.349,0.852,-0.099
20.22,-0.218,0.995,-0.112
20.23,-0.168,1.114,0.038
20.24,-0.006,0.862,0.161
20.25,-0.254,1.03,0.042
20.26,-0.337,0.791,-0.132
20.27,-0.222,1.24,-0.066
20.28,-0.064,0.892,0.027
20.29,-0.096,0.971,0.131
20.3,-0.301,0.922,-0.006
20.31,-0.287,1.015,-0.117
20.32,-0.156,1.073,-0.1
20.33,-0.093,0.788,0.092
20.34,-0.187,1.056,0.116
20.35,-0.28,0.887,-0.037
20.36,-0.36,1.177,-0.144
20.37,-0.152,0.834,-0.072
20.38,-0.129,1.007,0.177
20.39,-0.229,0.964,0.101
20.4,-0.351,0.919,-0.075
20.41,-0.282,1.065,-0.139
20.42,-0.151,0.833,0.002
20.43,-0.353,1.125,0.219
20.44,-0.121,0.784,-0.009
20.45,-0.385,1.071,-0.104
20.46,-0.186,0.943,-0.094
20.47,-0.119,1.107,0.049
20.48,-0.11,0.938,0.141
20.49,-0.247,0.767,0.017
20.5,-0.372,1.154,-0.128
20.51,-0.094,0.956,-0.06
20.52,-0.208,1.178,0.014
20.53,-0.113,0.667,0.134
20.54,-0.319,1.051,-0.022
20.55,-0.25,1.01,-0.145
20.56,-0.219,0.9,-0.028
20.57,-0.08,1.04,0.1
20.58,-0.173,0.765,0.118
20.59,-0.375,1.168,-0.105
20.6,-0.295,0.794,-0.089
20.61,-0.154,1.146,-0.059
20.62,-0.088,0.924,0.186
20.63,-0.154,0.898,0.025
20.64,-0.379,1.042,-0.084
20.65,-0.244,1.012,-0.057
20.66,-0.01,1.149,-0.006
20.67,-0.073,0.763,0.161
20.68,-0.287,1.047,0.01
20.69,-0.353,0.812,-0.105
20.7,-0.137,1.227,-0.104
20.71,-0.089,0.867,0.022
20.72,-0.153,0.914,0.175
20.73,-0.285,0.987,-0.034
20.74,-0.265,0.97,-0.089
20.75,-0.213,1.105,-0.071
20.76,-0.107,0.78,0.113
20.77,-0.215,1.065,0.166
20.78,-0.326,0.851,-0.106
20.79,-0.265,1.091,-0.155
20.8,-0.161,0.904,-0.044
20.81,-0.158,0.941,0.177
20.82,-0.174,1.005,0.061
20.83,-0.315,0.886,-0.129
20.84,-0.275,1.095,-0.129
20.85,-0.145,0.894,0.018
20.86,-0.338,1.152,0.131
20.87,-0.149,0.776,0.002
20.88,-0.319,1.044,-0.122
20.89,-0.215,1.039,-0.086
20.9,-0.091,1.003,0.016
20.91,-0.104,0.947,0.183
20.92,-0.239,0.75,-0.002
20.93,-0.397,1.207,-0.1
20.94,-0.073,0.905,-0.099
20.95,-0.073,1.055,-0.004
20.96,-0.061,0.735,0.11
20.97,-0.354,1.047,-0.012
20.98,-0.208,1.065,-0.167
20.99,-0.233,0.856,-0.06
21.0,-0.105,1.077,0.155
21.01,-0.151,0.775,0.132
21.02,-0.343,1.165,-0.106
21.03,-0.285,0.826,-0.165
21.04,-0.219,1.042,-0.025
21.05,-0.009,0.958,0.122
21.06,-0.155,0.844,0.055
21.07,-0.381,1.057,-0.102
21.08,-0.24,0.832,-0.083
21.09,-0.106,1.295,0.042
21.1,-0.18,0.764,0.133
21.11,-0.304,1.013,0.069
21.12,-0.297,0.872,-0.15
21.13,-0.155,1.064,-0.049
21.14,-0.033,1.114,0.032
21.15,-0.004,0.747,0.065
21.16,-0.348,1.057,-0.022
21.17,-0.268,0.883,-0.072
21.18,-0.115,1.199,-0.105
21.19,-0.217,0.78,0.121
21.2,-0.156,0.924,0.148
21.21,-0.354,1.033,-0.045
21.22,-0.208,0.971,-0.172
21.23,-0.206,1.066,-0.047
21.24,-0.08,0.754,0.14
21.25,-0.179,1.102,0.127
21.26,-0.262,0.871,-0.119
21.27,-0.28,1.062,-0.137
21.28,-0.221,0.934,-0.001
21.29,-0.038,1.018,0.155
21.3,-0.138,0.956,0.014
21.31,-0.352,0.836,-0.116
21.32,-0.201,1.172,-0.072
21.33,-0.085,0.953,0.035
21.34,-0.039,1.016,0.101
21.35,-0.226,0.814,-0.013
21.36,-0.341,1.101,-0.129
21.37,-0.14,1.076,-0.054
21.38,-0.123,0.947,0.062
21.39,-0.159,0.889,0.151
21.4,-0.292,0.843,-0.04
21.41,-0.24,1.262,-0.132
21.42,-0.23,0.837,-0.095
21.43,-0.144,0.998,0.135
21.44,-0.125,0.849,0.139
21.45,-0.344,1.052,-0.071
21.46,-0.291,0.966,-0.142
21.47,-0.199,1.086,0.008
21.48,-0.106,1.028,0.16
21.49,-0.173,0.806,0.036
21.5,-0.289,1.078,-0.127
21.51,-0.271,0.872,-0.084
21.52,-0.129,1.228,0.052
21.53,-0.01,0.728,0.13
21.54,-0.293,0.95,0.034
21.55,-0.342,0.967,-0.121
21.56,-0.138,1.027,-0.085
21.57,-0.054,1.091,0.053
21.58,-0.191,0.681,0.155
21.59,-0.359,1.112,-0.011
21.6,-0.258,0.863,-0.139
21.61,-0.146,1.156,-0.093
21.62,-0.143,0.78,0.087
21.63,-0.201,0.901,0.166
21.64,-0.299,1.08,-0.059
21.65,-0.231,0.909,-0.154
21.66,-0.233,1.061,-0.034
21.67,-0.109,0.769,0.196
21.68,-0.207,1.112,0.066
21.69,-0.297,0.864,-0.148
21.7,-0.274,1.011,-0.11
21.71,-0.146,0.997,0.011
21.72,-0.104,0.927,0.173
21.73,-0.22,1.028,0.039
21.74,-0.343,0.79,-0.108
21.75,-0.22,1.196,-0.087
21.76,-0.057,0.912,0.03
21.77,-0.233,0.994,0.183
21.78,-0.25,0.859,-0.033
21.79,-0.297,1.061,-0.096
21.8,-0.085,1.084,-0.124
21.81,-0.157,0.821,0.143
21.82,-0.101,0.975,0.088
21.83,-0.299,0.873,-0.032
21.84,-0.292,1.232,-0.137
21.85,-0.201,0.839,-0.069
21.86,-0.104,0.984,0.108
21.87,-0.068,0.921,0.102
21.88,-0.396,0.961,-0.103
21.89,-0.205,1.0,-0.144
21.9,-0.193,0.944,0.018
21.91,-0.098,1.136,0.156
21.92,-0.186,0.739,0.04
21.93,-0.371,1.073,-0.111
21.94,-0.201,0.947,-0.075
21.95,-0.089,1.126,0.01
21.96,-0.088,0.873,0.157
21.97,-0.215,0.807,-0.018
21.98,-0.374,1.135,-0.106
21.99,-0.128,0.91,-0.06
22.0,-0.147,1.127,0.088
22.01,-0.066,0.666,0.14
22.02,-0.351,1.109,-0.017
22.03,-0.254,0.997,-0.162
22.04,-0.228,0.979,-0.059
22.05,-0.13,0.973,0.096
22.06,-0.192,0.782,0.152
22.07,-0.366,1.205,-0.079
22.08,-0.194,0.814,-0.159
22.09,-0.284,1.139,0.003
22.1,-0.086,0.825,0.184
22.11,-0.158,0.992,0.072
22.12,-0.357,0.979,-0.133
22.13,-0.256,0.855,-0.092
22.14,-0.189,1.235,0.052
22.15,-0.004,0.8,0.137
22.16,-0.28,1.073,0.002
22.17,-0.319,0.781,-0.117
22.18,-0.18,1.115,-0.085
22.19,-0.096,1.013,0.068
22.2,-0.196,0.872,0.162
22.21,-0.337,1.039,0.007
22.22,-0.272,0.857,-0.118
22.23,-0.128,1.218,-0.06
22.24,-0.118,0.807,0.083
22.25,-0.203,0.965,0.144
22.26,-0.277,0.863,-0.051
22.27,-0.216,1.117,-0.143
22.28,-0.225,0.872,-0.007
22.29,-0.139,1.075,0.225
22.3,-0.151,0.85,0.03
22.31,-0.422,0.979,-0.14
22.32,-0.212,0.971,-0.087
22.33,-0.034,1.034,0.05
22.34,-0.131,0.999,0.128
22.35,-0.24,0.725,-0.009
22.36,-0.329,1.196,-0.113
22.37,-0.177,0.902,-0.068
22.38,-0.119,1.017,0.086
22.39,-0.102,0.834,0.137
22.4,-0.338,0.985,-0.059
22.41,-0.349,1.075,-0.149
22.42,-0.177,0.842,-0.025
22.43,-0.142,1.111,0.145
22.44,-0.129,0.754,0.116
22.45,-0.348,1.148,-0.138
22.46,-0.215,0.873,-0.133
22.47,-0.274,1.154,0.038
22.48,-0.013,0.935,0.12
22.49,-0.232,0.816,0.041
22.5,-0.308,1.116,-0.119
22.51,-0.185,0.915,-0.085
22.52,-0.199,1.193,0.03
22.53,-0.017,0.645,0.167
22.54,-0.238,1.031,-0.021
22.55,-0.355,0.944,-0.107
22.56,-0.154,0.962,-0.11
22.57,-0.119,1.057,0.107
22.58,-0.069,0.732,0.13
22.59,-0.383,1.127,-0.027
22.6,-0.286,0.867,-0.137
22.61,-0.232,1.145,-0.068
22.62,-0.069,0.779,0.127
22.63,-0.156,0.989,0.141
22.64,-0.315,1.023,-0.107
22.65,-0.276,0.852,-0.127
22.66,-0.187,1.107,-0.038
22.67,-0.124,0.792,0.174
22.68,-0.185,1.102,0.084
22.69,-0.302,0.824,-0.146
22.7,-0.3,1.098,-0.07
22.71,-0.125,1.017,0.06
22.72,-0.042,0.922,0.167
22.73,-0.231,0.976,0.026
22.74,-0.302,0.848,-0.151
22.75,-0.272,1.234,-0.056
22.76,-0.091,0.87,0.047
22.77,-0.13,0.989,0.141
22.78,-0.281,0.842,-0.025
22.79,-0.294,1.104,-0.137
22.8,-0.181,1.038,-0.053
22.81,-0.089,0.822,0.106
22.82,-0.19,1.008,0.155
22.83,-0.301,0.858,-0.056
22.84,-0.269,1.201,-0.147
22.85,-0.175,0.833,-0.028
22.86,-0.163,1.029,0.131
22.87,-0.197,0.871,0.108
22.88,-0.321,0.975,-0.146
22.89,-0.239,0.997,-0.108
22.9,-0.16,0.892,0.025
22.91,-0.078,1.088,0.155
22.92,-0.162,0.764,-0.001
22.93,-0.373,1.1,-0.129
22.94,-0.212,0.908,-0.062
22.95,-0.133,1.132,0.072
22.96,-0.097,0.848,0.145
22.97,-0.33,0.886,0.017
22.98,-0.298,1.125,-0.142
22.99,-0.173,0.841,-0.066
23.0,-0.118,1.118,0.12
23.01,-0.089,0.746,0.107
23.02,-0.379,1.157,-0.06
23.03,-0.311,0.879,-0.124
23.04,-0.191,1.009,-0.029
23.05,-0.164,1.003,0.151
23.06,-0.167,0.788,0.065
23.07,-0.36,1.119,-0.077
23.08,-0.192,0.778,-0.102
23.09,-0.204,1.23,0.033
23.1,-0.03,0.787,0.132
23.11,-0.261,1.078,0.058
23.12,-0.293,0.848,-0.15
23.13,-0.281,1.095,-0.072
23.14,-0.067,1.04,0.069
23.15,-0.107,0.816,0.126
23.16,-0.306,1.056,0.015
23.17,-0.298,0.875,-0.117
23.18,-0.135,1.178,-0.083
23.19,-0.175,0.808,0.077
23.2,-0.153,1.044,0.135
23.21,-0.277,0.934,-0.066
23.22,-0.274,1.006,-0.161
23.23,-0.151,1.008,-0.054
23.24,-0.044,0.812,0.164
23.25,-0.244,1.104,0.135
23.26,-0.3,0.845,-0.116
23.27,-0.287,1.108,-0.077
23.28,-0.117,0.923,-0.025
23.29,-0.168,1.035,0.201
23.3,-0.165,0.914,0.05
23.31,-0.391,0.911,-0.127
23.32,-0.189,1.103,-0.125
23.33,-0.066,0.921,0.03
23.34,-0.055,1.062,0.119
23.35,-0.266,0.799,-0.0
23.36,-0.367,1.091,-0.109
23.37,-0.152,1.01,-0.064
23.38,-0.116,0.998,0.059
23.39,-0.143,0.866,0.129
23.4,-0.303,0.908,-0.011
23.41,-0.287,1.19,-0.132
23.42,-0.19,0.825,-0.054
23.43,-0.208,1.105,0.135
23.44,-0.109,0.803,0.116
23.45,-0.379,1.069,-0.08
23.46,-0.267,0.879,-0.128
23.47,-0.142,1.023,-0.026
23.48,-0.147,1.097,0.181
23.49,-0.138,0.729,0.025
23.5,-0.414,1.134,-0.095
23.51,-0.153,0.844,-0.117
23.52,-0.149,1.247,0.048
23.53,0.025,0.76,0.03
23.54,-0.255,0.904,0.042
23.55,-0.353,1.011,-0.14
23.56,-0.152,0.959,-0.07
23.57,-0.051,1.138,0.056
23.58,-0.09,0.648,0.13
23.59,-0.301,1.082,-0.016
23.6,-0.247,0.914,-0.154
23.61,-0.225,1.104,-0.07
23.62,-0.087,0.918,0.099
23.63,-0.136,0.858,0.108
23.64,-0.353,1.093,-0.052
23.65,-0.275,0.87,-0.124
23.66,-0.251,1.128,-0.027
23.67,-0.124,0.748,0.141
23.68,-0.155,1.063,0.094
23.69,-0.323,0.951,-0.102
23.7,-0.281,0.955,-0.109
23.71,-0.119,1.041,-0.016
23.72,-0.116,0.892,0.208
23.73,-0.187,1.052,0.061
23.74,-0.321,0.796,-0.143
23.75,-0.221,1.188,-0.059
23.76,-0.09,0.971,0.028
23.77,-0.031,0.97,0.098
23.78,-0.287,0.89,0.041
23.79,-0.312,0.908,-0.139
23.8,-0.121,1.149,-0.066
23.81,-0.088,0.889,0.065
23.82,-0.077,0.995,0.037
23.83,-0.274,0.841,-0.022
23.84,-0.264,1.187,-0.136
23.85,-0.157,0.856,-0.055
23.86,-0.144,0.917,0.116
23.87,-0.167,0.93,0.126
23.88,-0.299,0.947,-0.066
23.89,-0.332,1.132,-0.119
23.9,-0.16,0.807,-0.041
23.91,-0.121,1.121,0.172
23.92,-0.162,0.788,0.094
23.93,-0.411,1.138,-0.099
23.94,-0.174,0.878,-0.111
23.95,-0.165,1.135,0.039
23.96,-0.035,0.905,0.145
23.97,-0.199,0.87,-0.01
23.98,-0.337,1.027,-0.131
23.99,-0.222,0.884,-0.055
24.0,-0.051,1.184,0.072
24.01,-0.064,0.694,0.123
24.02,-0.327,1.064,0.002
24.03,-0.329,0.887,-0.147
24.04,-0.134,1.082,-0.06
24.05,-0.14,0.969,0.068
24.06,-0.23,0.744,0.138
24.07,-0.316,1.131,-0.064
24.08,-0.216,0.861,-0.122
24.09,-0.154,1.124,-0.05
24.1,-0.462,0.809,0.427
24.11,-0.16,1.002,0.103
24.12,-0.319,0.972,-0.095
24.13,-0.172,0.945,-0.159
24.14,-0.157,1.122,0.045
24.15,0.006,0.743,0.015
24.16,-0.195,1.1,0.067
24.17,-0.315,0.847,-0.165
24.18,-0.205,1.11,-0.089
24.19,-0.119,0.923,0.057
24.2,-0.101,0.978,0.163
24.21,-0.272,0.939,-0.014
24.22,-0.293,0.857,-0.157
24.23,-0.115,1.211,-0.038
24.24,-0.115,0.872,0.055
24.25,-0.181,0.97,0.162
24.26,-0.302,0.839,0.007
24.27,-0.201,1.143,-0.182
24.28,-0.166,0.953,-0.046
24.29,-0.119,0.863,0.12
24.3,-0.169,0.989,0.142
24.31,-0.285,0.896,-0.113
24.32,-0.232,1.159,-0.128
24.33,-0.23,0.866,-0.027
24.34,-0.083,1.061,0.205
24.35,-0.131,0.81,0.03
24.36,-0.367,1.026,-0.087
24.37,-0.277,1.018,-0.113
24.38,-0.164,1.002,0.098
24.39,-0.077,1.041,0.119
24.4,-0.246,0.779,-0.012
24.41,-0.373,1.163,-0.156
24.42,-0.158,0.966,-0.025
24.43,-0.114,1.045,0.048
24.44,-0.128,0.773,0.145
24.45,-0.272,0.965,-0.031
24.46,-0.32,1.127,-0.149
24.47,-0.205,0.827,-0.032
24.48,-0.16,1.079,0.105
24.49,-0.144,0.761,0.153
24.5,-0.333,1.142,-0.116
24.51,-0.288,0.838,-0.107
24.52,-0.155,1.021,-0.029
24.53,-0.121,0.993,0.203
24.54,-0.128,0.833,0.032
24.55,-0.355,1.082,-0.114
24.56,-0.252,0.854,-0.066
24.57,-0.136,1.268,0.071
24.58,0.021,0.714,0.118
24.59,-0.271,1.0,0.056
24.6,-0.343,0.937,-0.119
24.61,-0.21,1.032,-0.071
24.62,-0.01,1.064,0.029
24.63,-0.112,0.712,0.14
24.64,-0.333,1.118,-0.011
24.65,-0.271,0.845,-0.124
24.66,-0.203,1.122,-0.054
24.67,-0.127,0.826,0.101
24.68,-0.167,0.938,0.13
24.69,-0.333,1.052,-0.053
24.7,-0.247,0.919,-0.161
24.71,-0.235,1.038,-0.017
24.72,-0.149,0.784,0.2
24.73,-0.135,1.126,0.068
24.74,-0.34,0.833,-0.087
24.75,-0.255,1.039,-0.128
24.76,-0.155,0.894,0.05
24.77,-0.063,1.035,0.152
24.78,-0.24,0.871,0.02
24.79,-0.403,0.906,-0.14
24.8,-0.151,1.14,-0.075
24.81,-0.215,0.958,0.114
24.82,-0.126,1.003,0.125
24.83,-0.261,0.792,-0.019
24.84,-0.352,1.25,-0.118
24.85,-0.145,0.924,-0.097
24.86,-0.096,0.946,0.097
24.87,-0.172,0.872,0.111
24.88,-0.302,0.972,-0.025
24.89,-0.33,1.149,-0.136
24.9,-0.158,0.836,-0.07
24.91,-0.176,1.139,0.186
24.92,-0.14,0.792,0.07
24.93,-0.328,1.078,-0.1
24.94,-0.222,0.88,-0.128
24.95,-0.153,1.054,0.031
24.96,-0.121,1.015,0.141
24.97,-0.153,0.795,0.028
24.98,-0.369,1.085,-0.143
24.99,-0.216,0.846,-0.08
25.0,-0.154,1.261,0.112
25.01,-0.084,0.692,0.113
25.02,-0.306,1.056,-0.004
25.03,-0.317,0.89,-0.137
25.04,-0.161,1.106,-0.07
25.05,-0.085,0.926,0.064
25.06,-0.133,0.828,0.111
25.07,-0.33,1.117,-0.038
25.08,-0.204,0.857,-0.128
25.09,-0.236,1.145,-0.029
25.1,-0.127,0.756,0.132
25.11,-0.191,1.022,0.158
25.12,-0.27,0.959,-0.122
25.13,-0.284,0.942,-0.123
25.14,-0.189,1.062,-0.007
25.15,-0.055,0.831,0.174
25.16,-0.233,1.091,0.044
25.17,-0.339,0.771,-0.114
25.18,-0.232,1.143,-0.094
25.19,-0.161,0.963,0.047
25.2,-0.008,0.898,0.112
25.21,-0.267,0.967,0.059
25.22,-0.323,0.885,-0.171
25.23,-0.187,1.157,-0.04
25.24,-0.015,0.897,0.061
25.25,-0.205,1.094,0.143
25.26,-0.279,0.813,-0.026
25.27,-0.35,1.157,-0.127
25.28,-0.177,0.955,-0.07
25.29,-0.065,0.925,0.089
25.3,-0.187,0.968,0.16
25.31,-0.262,0.902,-0.098
25.32,-0.311,1.139,-0.113
25.33,-0.139,0.856,-0.02
25.34,-0.168,1.108,0.127
25.35,-0.146,0.776,0.087
25.36,-0.338,1.078,-0.106
25.37,-0.264,0.936,-0.108
25.38,-0.167,0.962,0.005
25.39,-0.111,1.053,0.218
25.4,-0.166,0.757,-0.017
25.41,-0.382,1.092,-0.138
25.42,-0.234,0.914,-0.06
25.43,-0.087,1.201,0.035
25.44,-0.067,0.766,0.141
25.45,-0.263,0.911,0.004
25.46,-0.352,1.059,-0.124
25.47,-0.131,0.953,-0.06
25.48,-0.101,1.173,0.063
25.49,-0.094,0.675,0.148
25.5,-0.366,1.134,-0.047
25.51,-0.256,0.911,-0.115
25.52,-0.175,1.076,-0.082
25.53,-0.125,0.89,0.113
25.54,-0.198,0.845,0.176
25.55,-0.351,1.135,-0.083
25.56,-0.22,0.815,-0.125
25.57,-0.201,1.147,-0.021
25.58,-0.094,0.779,0.192
25.59,-0.22,1.123,0.019
25.6,-0.323,0.802,-0.146
25.61,-0.197,1.126,-0.11
25.62,-0.126,0.978,0.04
25.63,-0.045,0.906,0.174
25.64,-0.222,1.014,-0.031
25.65,-0.332,0.818,-0.136
25.66,-0.238,1.154,-0.051
25.67,-0.066,0.87,0.092
25.68,-0.168,1.025,0.122
25.69,-0.326,0.85,-0.045
25.7,-0.3,1.068,-0.141
25.71,-0.097,1.027,-0.088
25.72,-0.106,0.869,0.097
25.73,-0.286,0.956,0.15
25.74,-0.295,0.856,-0.061
25.75,-0.239,1.217,-0.149
25.76,-0.138,0.833,-0.015
25.77,-0.062,1.035,0.065
25.78,-0.147,0.859,0.075
25.79,-0.335,0.993,-0.128
25.8,-0.203,1.054,-0.14
25.81,-0.143,0.936,0.01
25.82,-0.149,1.061,0.168
25.83,-0.213,0.783,0.022
25.84,-0.356,1.122,-0.156
25.85,-0.248,0.89,-0.058
25.86,-0.04,1.089,0.07
25.87,-0.096,0.811,0.164
25.88,-0.327,0.896,-0.018
25.89,-0.287,1.112,-0.115
25.9,-0.171,0.893,-0.082
25.91,-0.217,1.062,0.152
25.92,-0.144,0.719,0.136
25.93,-0.298,1.153,-0.079
25.94,-0.337,0.859,-0.132
25.95,-0.076,0.852,0.116
25.96,-0.41,1.014,-0.109
25.97,-0.227,0.928,-0.119
25.98,-0.223,1.019,0.035
25.99,-0.098,1.097,0.139
26.0,-0.13,0.73,0.005
26.01,-0.385,1.137,-0.079
26.02,-0.21,0.9,-0.061
26.03,-0.113,1.228,0.01
26.04,-0.073,0.784,0.154
26.05,-0.226,0.862,0.006
26.06,-0.388,1.104,-0.097
26.07,-0.159,0.942,-0.07
26.08,-0.113,1.161,0.064
26.09,-0.095,0.654,0.144
26.1,-0.362,1.088,-0.014
26.11,-0.292,0.918,-0.114
26.12,-0.209,0.986,-0.09
26.13,-0.108,0.91,0.087
26.14,-0.174,0.875,0.188
26.15,-0.317,1.136,-0.098
26.16,-0.27,0.757,-0.146
26.17,-0.24,1.142,-0.016
26.18,-0.089,0.848,0.155
26.19,-0.159,1.064,0.06
26.2,-0.338,0.903,-0.115
26.21,-0.262,0.86,-0.103
26.22,-0.157,1.135,0.034
26.23,0.011,0.872,0.17
26.24,-0.25,1.077,0.002
26.25,-0.335,0.766,-0.098
26.26,-0.234,1.189,-0.121
26.27,-0.079,0.993,0.056
26.28,-0.095,0.927,0.107
26.29,-0.273,0.922,0.014
26.3,-0.342,0.938,-0.107
26.31,-0.192,1.149,-0.091
26.32,-0.126,0.798,0.067
26.33,-0.183,0.998,0.105
26.34,-0.332,0.841,-0.035
26.35,-0.3,1.231,-0.155
26.36,-0.208,0.826,-0.048
26.37,-0.237,0.965,0.213
26.38,-0.14,0.885,0.096
26.39,-0.319,1.012,-0.098
26.4,-0.267,0.989,-0.139
26.41,-0.141,0.867,0.018
26.42,-0.144,1.136,0.219
26.43,-0.183,0.745,0.046
26.44,-0.391,1.099,-0.101
26.45,-0.209,0.867,-0.09
26.46,-0.104,1.189,0.074
26.47,-0.135,0.907,0.173
26.48,-0.296,0.833,0.017
26.49,-0.33,1.085,-0.143
26.5,-0.092,0.921,-0.078
26.51,-0.039,1.133,-0.062
26.52,-0.075,0.669,0.127
26.53,-0.343,1.09,-0.042
26.54,-0.241,0.952,-0.143
26.55,-0.181,0.98,-0.066
26.56,-0.16,0.993,0.115
26.57,-0.176,0.76,0.138
26.58,-0.335,1.198,-0.066
26.59,-0.279,0.841,-0.107
26.6,-0.172,1.131,-0.024
26.61,-0.129,0.86,0.2
26.62,-0.166,0.974,0.064
26.63,-0.355,0.964,-0.149
26.64,-0.206,0.86,-0.102
26.65,-0.181,1.225,0.055
26.66,-0.009,0.802,0.127
26.67,-0.285,1.073,0.032
26.68,-0.337,0.772,-0.095
26.69,-0.181,1.16,-0.083
26.7,-0.094,0.962,0.03
26.71,-0.087,0.868,0.147
26.72,-0.3,1.02,-0.032
26.73,-0.359,0.9,-0.141
26.74,-0.165,1.125,-0.086
26.75,-0.107,0.806,0.129
26.76,-0.134,1.01,0.078
26.77,-0.35,0.873,-0.022
26.78,-0.244,1.044,-0.168
26.79,-0.181,1.009,-0.045
26.8,-0.094,0.829,0.07
26.81,-0.187,1.049,0.132
26.82,-0.301,0.85,-0.101
26.83,-0.277,1.116,-0.133
26.84,-0.161,0.869,0.017
26.85,-0.107,1.101,0.181
26.86,-0.213,0.877,0.044
26.87,-0.371,0.919,-0.134
26.88,-0.173,1.081,-0.083
26.89,-0.07,0.986,0.023
26.9,-0.123,1.006,0.135
26.91,-0.252,0.757,0.027
26.92,-0.29,1.155,-0.134
26.93,-0.19,0.935,-0.058
26.94,-0.098,1.011,0.072
26.95,-0.167,0.878,0.174
26.96,-0.345,0.91,-0.022
26.97,-0.232,1.125,-0.164
26.98,-0.18,0.867,-0.032
26.99,-0.144,1.113,0.114
27.0,-0.156,0.747,0.124
27.01,-0.335,1.107,-0.084
27.02,-0.29,0.94,-0.072
27.03,-0.117,1.004,-0.071
27.04,-0.11,1.0,0.186
27.05,-0.195,0.774,0.05
27.06,-0.362,1.107,-0.098
27.07,-0.235,0.867,-0.084
27.08,-0.142,1.223,0.052
27.09,-0.054,0.68,0.103
27.1,-0.219,0.975,0.045
27.11,-0.345,0.989,-0.128
27.12,-0.183,0.967,-0.123
27.13,-0.182,1.066,0.081
27.14,-0.062,0.693,0.119
27.15,-0.374,1.137,0.008
27.16,-0.221,0.833,-0.177
27.17,-0.311,1.108,-0.026
27.18,-0.018,0.791,0.138
27.19,-0.136,1.105,0.15
27.2,-0.323,0.89,-0.144
27.21,-0.365,0.882,-0.087
27.22,-0.139,1.077,-0.043
27.23,-0.08,0.908,0.168
27.24,-0.229,1.072,0.04
27.25,-0.41,0.75,-0.117
27.26,-0.177,1.107,-0.105
27.27,-0.052,1.009,0.041
27.28,-0.072,0.969,0.138
27.29,-0.227,0.879,0.02
27.3,-0.366,0.901,-0.119
27.31,-0.165,1.238,-0.063
27.32,-0.154,0.82,0.037
27.33,-0.104,0.963,0.147
27.34,-0.326,0.905,0.03
27.35,-0.296,1.195,-0.159
27.36,-0.186,0.88,-0.088
27.37,-0.098,0.936,0.109
27.38,-0.168,0.976,0.149
27.39,-0.297,0.952,-0.055
27.4,-0.346,1.123,-0.161
27.41,-0.218,0.807,-0.022
27.42,-0.136,1.156,0.177
27.43,-0.124,0.823,0.065
27.44,-0.354,1.013,-0.13
27.45,-0.307,0.905,-0.099
27.46,-0.132,1.021,0.027
27.47,-0.042,1.091,0.103
27.48,-0.257,0.712,0.035
27.49,-0.317,1.087,-0.136
27.5,-0.249,0.968,-0.027
27.51,-0.169,1.214,0.032
27.52,-0.129,0.748,0.145
27.53,-0.281,0.927,0.023
27.54,-0.314,1.104,-0.111
27.55,-0.192,0.88,-0.109
27.56,-0.156,1.059,0.099
27.57,-0.079,0.696,0.136
27.58,-0.361,1.165,-0.017
27.59,-0.299,0.864,-0.151
27.6,-0.217,1.046,-0.074
27.61,-0.134,0.919,0.137
27.62,-0.172,0.872,0.134
27.63,-0.317,1.117,-0.092
27.64,-0.349,0.782,-0.111
27.65,-0.165,1.151,-0.023
27.66,-0.053,0.886,0.152
27.67,-0.183,1.05,0.026
27.68,-0.328,0.857,-0.125
27.69,-0.234,0.972,-0.05
27.7,-0.076,1.174,0.01
27.71,-0.048,0.809,0.131
27.72,-0.303,1.046,0.038
27.73,-0.312,0.803,-0.108
27.74,-0.135,1.254,-0.101
27.75,-0.142,0.872,0.019
27.76,-0.098,0.888,0.141
27.77,-0.256,0.948,0.002
27.78,-0.287,0.978,-0.108
27.79,-0.204,1.113,-0.098
27.8,-0.062,0.78,0.066
27.81,-0.112,1.063,0.127
27.82,-0.346,0.866,-0.023
27.83,-0.285,1.125,-0.141
27.84,-0.237,0.885,-0.011
27.85,-0.081,0.966,0.132
27.86,-0.142,1.031,0.129
27.87,-0.351,0.872,-0.113
27.88,-0.25,1.1,-0.118
27.89,-0.234,0.92,0.047
27.9,-0.012,1.104,0.12
27.91,-0.194,0.803,0.06
27.92,-0.308,1.026,-0.109
27.93,-0.229,1.01,-0.095
27.94,-0.145,1.062,0.037
27.95,-0.072,0.976,0.116
27.96,-0.225,0.784,0.031
27.97,-0.335,1.144,-0.133
27.98,-0.125,0.936,-0.111
27.99,-0.08,1.139,0.072
28.0,-0.084,0.642,0.125
28.01,-0.369,1.083,0.014
28.02,-0.257,0.944,-0.138
28.03,-0.224,1.0,-0.088
28.04,-0.124,0.959,0.113
28.05,-0.042,0.819,0.09
28.06,-0.341,1.134,-0.083
28.07,-0.284,0.752,-0.127
28.08,-0.165,1.12,-0.045
28.09,-0.075,0.845,0.134
28.1,-0.19,1.111,0.062
28.11,-0.336,0.825,-0.111
28.12,-0.248,1.021,-0.089
28.13,-0.114,1.068,0.034
28.14,-0.048,0.905,0.146
28.15,-0.276,1.018,0.057
28.16,-0.299,0.792,-0.093
28.17,-0.203,1.225,-0.073
28.18,-0.054,0.913,0.02
28.19,-0.184,1.018,0.211
28.2,-0.243,0.862,-0.027
28.21,-0.246,1.037,-0.081
28.22,-0.174,1.08,-0.148
28.23,-0.258,0.824,0.125
28.24,-0.122,0.998,0.14
28.25,-0.339,0.821,-0.056
28.26,-0.279,1.194,-0.14
28.27,-0.156,0.894,-0.102
28.28,-0.142,0.96,0.149
28.29,-0.116,0.94,0.117
28.3,-0.293,0.92,-0.089
28.31,-0.284,1.096,-0.116
28.32,-0.148,0.841,0.0
28.33,-0.132,1.103,0.154
28.34,-0.196,0.776,0.075
28.35,-0.352,1.077,-0.11
28.36,-0.167,0.901,-0.131
28.37,-0.14,1.069,0.014
28.38,-0.126,0.952,0.177
28.39,-0.176,0.806,0.035
28.4,-0.38,1.144,-0.12
28.41,-0.152,0.84,-0.089
28.42,-0.136,1.239,0.076
28.43,-0.138,0.767,0.157
28.44,-0.333,0.989,0.015
28.45,-0.292,0.973,-0.165
28.46,-0.112,1.01,-0.044
28.47,-0.101,1.052,0.068
28.48,-0.123,0.71,0.117
28.49,-0.329,1.156,-0.055
28.5,-0.148,0.891,-0.186
28.51,-0.268,1.113,-0.062
28.52,-0.124,0.803,0.144
28.53,-0.179,0.936,0.172
28.54,-0.292,1.058,-0.117
28.55,-0.25,0.798,-0.134
28.56,-0.162,1.173,-0.02
28.57,0.051,0.758,0.057
28.58,-0.17,1.055,0.071
28.59,-0.305,0.845,-0.126
28.6,-0.2,1.09,-0.129
28.61,-0.046,1.049,0.004
28.62,0.004,0.832,0.097
28.63,-0.259,1.034,0.003
28.64,-0.333,0.857,-0.107
28.65,-0.14,1.272,-0.085
28.66,-0.191,0.846,0.096
28.67,-0.132,0.959,0.166
28.68,-0.308,0.918,-0.054
28.69,-0.247,1.049,-0.127
28.7,-0.197,1.004,-0.089
28.71,-0.054,0.784,0.068
28.72,-0.167,1.077,0.136
28.73,-0.354,0.847,-0.067
28.74,-0.262,1.095,-0.148
28.75,-0.22,0.877,0.007
28.76,-0.068,1.01,0.197
28.77,-0.122,0.907,0.065
28.78,-0.378,0.927,-0.096
28.79,-0.214,1.062,-0.132
28.8,-0.151,1.034,0.04
28.81,-0.054,0.976,0.15
28.82,-0.284,0.791,0.001
28.83,-0.328,1.139,-0.119
28.84,-0.115,0.926,-0.063
28.85,-0.078,1.119,0.07
28.86,-0.164,0.717,0.164
28.87,-0.334,0.979,-0.022
28.88,-0.259,1.117,-0.144
28.89,-0.145,0.882,-0.096
28.9,-0.167,1.055,0.147
28.91,-0.202,0.712,0.144
28.92,-0.364,1.157,-0.044
28.93,-0.2,0.832,-0.2
28.94,-0.251,1.019,0.009
28.95,-0.047,0.929,0.14
28.96,-0.17,0.933,0.074
28.97,-0.338,1.041,-0.119
28.98,-0.176,0.815,-0.095
28.99,-0.118,1.235,0.02
29.0,-0.128,0.771,0.197
29.01,-0.25,1.048,0.046
29.02,-0.351,0.872,-0.132
29.03,-0.167,1.053,-0.093
29.04,-0.048,1.068,0.028
29.05,-0.024,0.691,0.05
29.06,-0.247,1.092,-0.007
29.07,-0.245,0.914,-0.147
29.08,-0.146,1.22,-0.081
29.09,-0.181,0.754,0.105
29.1,-0.181,0.946,0.161
29.11,-0.32,0.996,-0.046
29.12,-0.193,0.996,-0.18
29.13,-0.243,1.054,0.006
29.14,-0.176,0.738,0.143
29.15,-0.132,1.114,0.109
29.16,-0.255,0.881,-0.154
29.17,-0.299,1.107,-0.104
29.18,-0.188,0.914,0.007
29.19,-0.045,0.96,0.203
29.2,-0.192,0.975,0.005
29.21,-0.357,0.831,-0.121
29.22,-0.211,1.193,-0.068
29.23,-0.218,0.924,0.108
29.24,-0.12,0.998,0.127
29.25,-0.287,0.804,-0.054
29.26,-0.294,1.113,-0.11
29.27,-0.125,1.057,-0.092
29.28,-0.178,0.883,0.102
29.29,-0.14,0.917,0.148
29.3,-0.314,0.885,-0.051
29.31,-0.264,1.23,-0.092
29.32,-0.19,0.853,-0.053
29.33,-0.15,0.99,0.179
29.34,-0.152,0.862,0.066
29.35,-0.314,0.993,-0.132
29.36,-0.268,1.048,-0.131
29.37,-0.144,0.987,0.052
29.38,-0.077,1.022,0.128
29.39,-0.224,0.753,0.061
29.4,-0.318,1.173,-0.135
29.41,-0.197,0.961,-0.084
29.42,-0.158,1.066,0.072
29.43,-0.114,0.761,0.149
29.44,-0.274,0.933,-0.016
29.45,-0.288,1.133,-0.155
29.46,-0.155,0.806,-0.091
29.47,-0.136,1.113,0.137
29.48,-0.139,0.743,0.135
29.49,-0.359,1.121,-0.078
29.5,-0.233,0.848,-0.141
29.51,-0.24,1.032,-0.017
29.52,-0.088,0.978,0.168
29.53,-0.195,0.852,0.082
29.54,-0.287,1.083,-0.122
29.55,-0.229,0.827,-0.09
29.56,-0.19,1.235,0.036
29.57,-0.052,0.82,0.184
29.58,-0.211,0.959,0.019
29.59,-0.373,0.902,-0.129
29.6,-0.155,1.018,-0.057
29.61,-0.058,1.137,0.03
29.62,-0.123,0.775,0.139
29.63,-0.305,1.082,-0.02
29.64,-0.205,0.903,-0.124
29.65,-0.201,1.16,-0.047
29.66,-0.142,0.774,0.107
29.67,-0.117,1.029,0.12
29.68,-0.349,0.93,-0.068
29.69,-0.279,0.964,-0.144
29.7,-0.155,1.012,-0.03
29.71,-0.182,0.854,0.182
29.72,-0.203,1.102,0.056
29.73,-0.326,0.796,-0.135
29.74,-0.188,1.078,-0.099
29.75,-0.118,0.976,0.056
29.76,-0.006,0.964,0.15
29.77,-0.229,0.897,0.038
29.78,-0.361,0.946,-0.136
29.79,-0.149,1.168,-0.068
29.8,-0.16,0.873,0.064
29.81,-0.123,0.958,0.175
29.82,-0.316,0.815,-0.036
29.83,-0.244,1.164,-0.154
29.84,-0.226,0.904,-0.054
29.85,-0.079,0.884,0.092
29.86,-0.193,0.922,0.156
29.87,-0.348,0.908,-0.1
29.88,-0.255,1.132,-0.12
29.89,-0.192,0.851,0.0
29.9,-0.066,1.086,0.114
29.91,-0.153,0.824,0.076
29.92,-0.384,1.05,-0.111
29.93,-0.143,0.956,-0.147
29.94,-0.19,1.042,0.064
29.95,-0.133,0.949,0.149
29.96,-0.225,0.761,0.034
29.97,-0.332,1.141,-0.137
29.98,-0.177,0.911,-0.052
29.99,-0.086,1.13,0.04
30.0,-0.195,0.73,0.203
30.01,-0.304,0.974,0.007
30.02,-0.24,1.074,-0.141
30.03,-0.214,0.919,-0.009
30.04,-0.146,1.068,0.113
30.05,-0.094,0.71,0.14
30.06,-0.372,1.204,-0.096
30.07,-0.281,0.819,-0.134
30.08,-0.162,1.062,-0.04
30.09,-0.103,0.953,0.174
30.1,-0.201,0.851,0.078
30.11,-0.364,1.074,-0.105
30.12,-0.193,0.845,-0.078
30.13,-0.207,1.261,0.064
30.14,-0.073,0.72,0.135
30.15,-0.248,0.975,0.033
30.16,-0.297,0.921,-0.12
30.17,-0.128,1.08,-0.122
30.18,-0.17,1.001,0.035
30.19,-0.052,0.731,0.159
30.2,-0.335,1.114,-0.019
30.21,-0.297,0.853,-0.11
30.22,-0.216,1.136,-0.066
30.23,-0.129,0.817,0.122
30.24,-0.119,1.037,0.098
30.25,-0.296,0.989,-0.09
30.26,-0.28,0.907,-0.151
30.27,-0.215,1.079,-0.039
30.28,-0.01,0.777,0.074
30.29,-0.146,1.115,0.082
30.3,-0.346,0.836,-0.127
30.31,-0.256,1.057,-0.097
30.32,-0.152,1.013,0.029
30.33,-0.06,1.004,0.129
30.34,-0.284,0.973,0.059
30.35,-0.292,0.827,-0.141
30.36,-0.203,1.202,-0.062
30.37,-0.059,0.86,0.033
30.38,-0.164,0.973,0.201
30.39,-0.287,0.841,0.011
30.4,-0.252,1.148,-0.156
30.41,-0.158,1.013,-0.115
30.42,-0.169,0.848,0.127
30.43,-0.16,0.963,0.168
30.44,-0.361,0.971,-0.093
30.45,-0.299,1.074,-0.169
30.46,-0.147,0.848,-0.015
30.47,-0.176,1.114,0.216
30.48,-0.124,0.763,0.045
30.49,-0.341,1.064,-0.113
30.5,-0.181,0.889,-0.116
30.51,-0.226,1.097,0.057
30.52,-0.073,0.931,0.143
30.53,-0.204,0.81,-0.002
30.54,-0.372,1.137,-0.126
30.55,-0.172,0.902,-0.082
30.56,-0.107,1.13,0.049
30.57,-0.14,0.708,0.232
30.58,-0.269,1.05,-0.037
30.59,-0.332,0.985,-0.145
30.6,-0.203,0.971,-0.078
30.61,-0.105,1.004,0.1
30.62,-0.131,0.74,0.134
30.63,-0.345,1.154,-0.065
30.64,-0.31,0.78,-0.148
30.65,-0.222,1.111,-0.038
30.66,-0.119,0.892,0.186
30.67,-0.138,0.948,0.069
30.68,-0.323,1.028,-0.112
30.69,-0.249,0.85,-0.115
30.7,-0.143,1.238,0.01
30.71,-0.053,0.766,0.172
30.72,-0.231,1.066,0.053
30.73,-0.312,0.839,-0.132
30.74,-0.212,1.122,-0.075
30.75,-0.088,1.018,0.023
30.76,-0.186,0.812,0.19
30.77,-0.258,1.037,-0.018
30.78,-0.354,0.867,-0.096
30.79,-0.12,1.18,-0.113
30.8,-0.169,0.763,0.122
30.81,-0.165,0.942,0.165
30.82,-0.318,0.937,-0.03
30.83,-0.315,1.109,-0.127
30.84,-0.132,0.926,-0.03
30.85,-0.04,0.939,0.062
30.86,-0.173,1.001,0.09
30.87,-0.32,0.878,-0.131
30.88,-0.203,1.174,-0.133
30.89,-0.185,0.916,0.108
30.9,-0.064,1.004,0.119
30.91,-0.19,0.78,0.03
30.92,-0.348,1.057,-0.143
30.93,-0.248,1.06,-0.063
30.94,-0.09,0.98,0.041
30.95,-0.141,0.934,0.121
30.96,-0.292,0.795,-0.027
30.97,-0.324,1.245,-0.112
30.98,-0.152,0.872,-0.073
30.99,-0.17,1.038,0.145
31.0,-0.102,0.784,0.126
31.01,-0.406,1.044,-0.04
31.02,-0.194,1.035,-0.198
31.03,-0.202,0.892,-0.026
31.04,-0.235,1.078,0.186
31.05,-0.145,0.766,0.091
31.06,-0.387,1.132,-0.111
31.07,-0.23,0.812,-0.114
31.08,-0.151,1.126,0.04
31.09,-0.078,0.926,0.173
31.1,-0.21,0.849,0.018
31.11,-0.364,1.036,-0.146
31.12,-0.145,0.889,-0.051
31.13,-0.148,1.263,0.078
31.14,-0.083,0.686,0.144
31.15,-0.309,1.009,0.007
31.16,-0.308,0.947,-0.111
31.17,-0.143,1.062,-0.089
31.18,-0.151,0.972,0.094
31.19,-0.14,0.709,0.127
31.2,-0.366,1.19,-0.073
31.21,-0.248,0.844,-0.137
31.22,-0.226,1.118,-0.056
31.23,-0.136,0.782,0.159
31.24,-0.192,0.986,0.107
31.25,-0.289,1.006,-0.09
31.26,-0.268,0.883,-0.12
31.27,-0.214,1.005,0.052
31.28,0.008,0.9,0.157
31.29,-0.241,1.026,0.001
31.3,-0.367,0.731,-0.149
31.31,-0.234,1.231,-0.03
31.32,-0.05,0.935,0.051
31.33,-0.09,0.987,0.11
31.34,-0.283,0.894,-0.03
31.35,-0.321,1.004,-0.121
31.36,-0.198,1.077,-0.036
31.37,-0.064,0.833,0.08
31.38,-0.222,1.015,0.118
31.39,-0.294,0.822,-0.056
31.4,-0.3,1.217,-0.118
31.41,-0.162,0.893,-0.071
31.42,-0.138,0.908,0.136
31.43,-0.236,0.926,0.129
31.44,-0.291,0.987,-0.117
31.45,-0.203,1.112,-0.122
31.46,-0.174,0.834,0.002
31.47,0.008,1.04,0.113
31.48,-0.108,0.803,0.021
31.49,-0.415,1.098,-0.131
31.5,-0.214,0.898,-0.07
31.51,-0.094,1.087,0.082
31.52,-0.16,0.929,0.173
31.53,-0.285,0.804,-0.017
31.54,-0.31,1.181,-0.145
31.55,-0.159,0.938,-0.097
31.56,-0.079,1.05,0.016
31.57,-0.072,0.729,0.124
31.58,-0.395,1.063,-0.016
31.59,-0.25,0.984,-0.16
31.6,-0.177,0.987,-0.029
31.61,-0.114,1.012,0.114
31.62,-0.142,0.71,0.097
31.63,-0.367,1.246,-0.08
31.64,-0.244,0.806,-0.154
31.65,-0.202,1.112,-0.004
31.66,-0.05,0.899,0.205
31.67,-0.188,0.913,0.024
31.68,-0.335,0.998,-0.103
31.69,-0.253,0.872,-0.065
31.7,-0.164,1.201,0.11
31.71,0.024,0.713,0.105
31.72,-0.362,1.058,-0.017
31.73,-0.296,0.804,-0.136
31.74,-0.182,1.138,-0.061
31.75,-0.072,0.982,0.075
31.76,-0.12,0.766,0.105
31.77,-0.321,1.125,-0.018
31.78,-0.249,0.886,-0.14
31.79,-0.192,1.136,-0.06
31.8,-0.088,0.732,0.119
31.81,-0.205,1.025,0.107
31.82,-0.307,0.941,-0.087
31.83,-0.228,0.961,-0.153
31.84,-0.194,1.075,0.008
31.85,-0.089,0.802,0.167
31.86,-0.211,1.087,0.084
31.87,-0.328,0.803,-0.128
31.88,-0.274,1.106,-0.104
31.89,-0.082,0.997,0.078
31.9,-0.109,0.994,0.175
31.91,-0.249,0.885,0.017
31.92,-0.346,0.878,-0.125
31.93,-0.222,1.174,-0.061
31.94,-0.024,0.889,0.058
31.95,-0.124,1.018,0.118
31.96,-0.309,0.825,-0.023
31.97,-0.302,1.147,-0.114
31.98,-0.11,1.003,-0.075
31.99,-0.166,0.886,0.095
32.0,-0.185,0.943,0.127
32.01,-0.344,0.916,-0.057
32.02,-0.203,1.185,-0.147
32.03,-0.369,0.83,0.017
32.04,-0.121,1.043,0.142
32.05,-0.133,0.869,0.094
32.06,-0.366,1.032,-0.131
32.07,-0.245,0.948,-0.146
32.08,-0.216,0.988,0.048
32.09,-0.033,0.906,0.13
32.1,-0.329,0.838,-0.013
32.11,-0.352,1.064,-0.116
32.12,-0.134,0.895,-0.06
32.13,0.052,1.167,-0.05
32.14,-0.079,0.697,0.11
32.15,-0.381,1.066,-0.018
32.16,-0.246,0.981,-0.137
32.17,-0.168,1.038,-0.091
32.18,-0.1,0.941,0.098
32.19,-0.182,0.76,0.16
32.2,-0.324,1.178,-0.084
32.21,-0.291,0.815,-0.133
32.22,-0.204,1.134,-0.023
32.23,-0.113,0.854,0.193
32.24,-0.129,0.984,0.049
32.25,-0.349,0.976,-0.12
32.26,-0.224,0.832,-0.125
32.27,-0.227,1.22,0.077
32.28,0.022,0.768,0.136
32.29,-0.25,1.083,0.028
32.3,-0.32,0.786,-0.144
32.31,-0.249,1.136,-0.023
32.32,-0.042,1.03,0.016
32.33,-0.101,0.827,0.11
32.34,-0.315,1.031,-0.029
32.35,-0.31,0.888,-0.101
32.36,-0.146,1.192,-0.094
32.37,-0.219,0.776,0.074
32.38,-0.181,1.046,0.117
32.39,-0.306,0.917,-0.029
32.4,-0.245,1.036,-0.162
32.41,-0.147,0.95,-0.062
32.42,-0.38,0.882,0.388
32.43,-0.219,1.083,0.128
32.44,-0.337,0.836,-0.099
32.45,-0.232,1.12,-0.108
32.46,-0.12,0.897,-0.001
32.47,-0.13,1.059,0.18
32.48,-0.161,0.883,0.044
32.49,-0.378,0.944,-0.123
32.5,-0.26,1.069,-0.089
32.51,-0.102,0.965,0.053
32.52,-0.083,1.088,0.114
32.53,-0.302,0.734,0.026
32.54,-0.325,1.116,-0.136
32.55,-0.1,1.032,-0.044
32.56,-0.098,1.026,0.021
32.57,-0.139,0.836,0.155
32.58,-0.37,0.924,-0.026
32.59,-0.301,1.155,-0.126
32.6,-0.138,0.844,-0.099
32.61,-0.133,1.087,0.132
32.62,-0.312,0.713,0.182
32.63,-0.36,1.106,-0.052
32.64,-0.25,0.942,-0.136
32.65,-0.165,0.975,-0.059
32.66,-0.157,1.024,0.184
32.67,-0.146,0.768,0.063
32.68,-0.343,1.132,-0.101
32.69,-0.244,0.832,-0.138
32.7,-0.22,1.231,0.063
32.71,-0.026,0.797,0.131
32.72,-0.249,0.94,0.052
32.73,-0.332,1.0,-0.147
32.74,-0.205,0.977,-0.038
32.75,-0.01,1.158,-0.01
32.76,-0.073,0.692,0.13
32.77,-0.314,1.069,-0.013
32.78,-0.295,0.867,-0.099
32.79,-0.183,1.156,-0.1
32.8,-0.121,0.943,0.11
32.81,-0.135,0.863,0.097
32.82,-0.363,1.089,-0.028
32.83,-0.296,0.886,-0.171
32.84,-0.208,1.117,-0.055
32.85,-0.099,0.8,0.135
32.86,-0.157,1.093,0.089
32.87,-0.298,0.87,-0.103
32.88,-0.272,0.971,-0.124
32.89,-0.175,1.021,-0.01
32.9,-0.116,0.859,0.191
32.91,-0.178,0.952,0.044
32.92,-0.354,0.85,-0.105
32.93,-0.258,1.187,-0.077
32.94,-0.003,0.939,0.033
32.95,-0.136,1.066,0.097
32.96,-0.24,0.75,-0.012
32.97,-0.34,1.094,-0.08
32.98,-0.086,1.07,-0.092
32.99,-0.154,0.905,0.091
33.0,-0.093,0.898,0.151
33.01,-0.323,0.877,-0.036
33.02,-0.324,1.229,-0.141
33.03,-0.175,0.823,-0.082
33.04,-0.172,1.072,0.123
33.05,-0.149,0.812,0.12
33.06,-0.306,1.04,-0.059
33.07,-0.241,1.021,-0.124
33.08,-0.169,0.887,-0.056
33.09,-0.069,1.006,0.117
33.1,-0.096,0.775,0.102
33.11,-0.404,1.161,-0.112
33.12,-0.246,0.796,-0.159
33.13,-0.204,1.147,0.067
33.14,-0.098,0.925,0.244
33.15,-0.284,0.832,0.053
33.16,-0.288,1.033,-0.131
33.17,-0.248,0.908,-0.04
33.18,-0.116,1.218,0.024
33.19,-0.115,0.654,0.115
33.2,-0.267,1.028,0.018
33.21,-0.261,0.987,-0.106
33.22,-0.171,1.067,-0.133
33.23,-0.209,0.927,0.098
33.24,-0.047,0.7,0.137
33.25,-0.342,1.15,0.007
33.26,-0.239,0.846,-0.184
33.27,-0.256,1.115,-0.043
33.28,-0.134,0.868,0.118
33.29,-0.104,1.061,0.106
33.3,-0.354,0.99,-0.104
33.31,-0.253,0.825,-0.135
33.32,-0.263,1.101,-0.006
33.33,-0.065,0.867,0.166
33.34,-0.182,1.119,0.069
33.35,-0.267,0.804,-0.116
33.36,-0.239,1.093,-0.103
33.37,-0.202,1.017,-0.003
33.38,-0.039,0.949,0.135
33.39,-0.2,0.97,0.042
33.4,-0.289,0.824,-0.14
33.41,-0.245,1.216,-0.046
33.42,-0.084,0.894,0.035
33.43,-0.079,1.067,0.123
33.44,-0.172,0.799,-0.001
33.45,-0.37,1.07,-0.104
33.46,-0.177,1.039,-0.077
33.47,-0.051,0.986,0.055
33.48,-0.191,0.97,0.133
33.49,-0.348,0.821,0.003
33.5,-0.286,1.198,-0.131
33.51,-0.099,0.91,-0.07
33.52,-0.124,0.991,0.075
33.53,-0.22,0.777,0.188
33.54,-0.297,1.056,-0.035
33.55,-0.247,1.106,-0.169
33.56,-0.22,0.8,-0.039
33.57,-0.108,1.045,0.13
33.58,-0.15,0.802,0.085
33.59,-0.339,1.173,-0.104
33.6,-0.302,0.793,-0.148
33.61,-0.189,1.053,0.031
33.62,-0.031,0.988,0.143
33.63,-0.217,0.846,0.045
33.64,-0.37,1.042,-0.115
33.65,-0.222,0.825,-0.085
33.66,-0.068,1.283,0.052
33.67,-0.006,0.736,0.16
33.68,-0.3,1.021,0.057
33.69,-0.305,0.877,-0.163
33.7,-0.111,1.082,-0.042
33.71,-0.09,1.074,0.033
33.72,-0.139,0.76,0.116
33.73,-0.315,1.064,-0.018
33.74,-0.227,0.915,-0.142
33.75,-0.235,1.132,-0.085
33.76,-0.096,0.762,0.125
33.77,-0.132,1.126,0.116
33.78,-0.289,0.893,-0.118
33.79,-0.318,0.971,-0.131
33.8,-0.181,0.988,-0.037
33.81,-0.12,0.897,0.213
33.82,-0.155,1.067,0.064
33.83,-0.288,0.826,-0.116
33.84,-0.286,1.146,-0.119
33.85,-0.182,0.914,0.015
33.86,-0.051,1.062,0.152
33.87,-0.198,0.839,0.032
33.88,-0.325,0.937,-0.131
33.89,-0.279,1.196,-0.044
33.9,-0.073,0.921,0.004
33.91,-0.14,1.011,0.127
33.92,-0.212,0.762,0.009
33.93,-0.333,1.177,-0.097
33.94,-0.232,0.969,-0.05
33.95,-0.072,1.008,0.038
33.96,-0.171,0.849,0.161
33.97,-0.29,0.907,-0.025
33.98,-0.315,1.192,-0.133
33.99,-0.141,0.867,-0.076
34.0,-0.135,1.052,0.082
34.01,-0.131,0.714,0.142
34.02,-0.337,1.126,-0.064
34.03,-0.223,0.958,-0.131
34.04,-0.184,0.924,-0.033
34.05,-0.127,1.001,0.134
34.06,-0.177,0.794,0.113
34.07,-0.369,1.159,-0.12
34.08,-0.252,0.748,-0.11
34.09,-0.192,1.19,0.01
34.1,-0.003,0.831,0.118
34.11,-0.207,0.956,0.046
34.12,-0.316,0.962,-0.113
34.13,-0.218,0.926,-0.086
34.14,-0.138,1.211,0.042
34.15,-0.005,0.711,0.128
34.16,-0.314,1.071,0.01
34.17,-0.354,0.829,-0.098
34.18,-0.117,1.133,-0.1
34.19,-0.091,0.975,0.076
34.2,-0.14,0.838,0.175
34.21,-0.295,1.036,-0.028
34.22,-0.267,0.878,-0.133
34.23,-0.133,1.163,-0.072
34.24,-0.106,0.786,0.092
34.25,-0.222,1.036,0.163
34.26,-0.312,0.906,-0.054
34.27,-0.246,1.091,-0.133
34.28,-0.14,0.994,-0.054
34.29,-0.291,1.082,0.227
34.3,-0.294,0.821,-0.011
34.31,-0.31,1.032,-0.146
34.32,-0.109,1.05,-0.072
34.33,-0.129,0.965,0.062
34.34,-0.176,0.878,0.137
34.35,-0.321,0.865,-0.028
34.36,-0.195,1.234,-0.179
34.37,-0.177,0.876,-0.031
34.38,-0.121,1.027,0.115
34.39,-0.159,0.818,0.162
34.4,-0.346,1.044,-0.092
34.41,-0.184,0.857,-0.139
34.42,-0.228,1.092,0.021
34.43,-0.063,0.942,0.16
34.44,-0.159,0.823,0.028
34.45,-0.353,1.117,-0.104
34.46,-0.196,0.827,-0.095
34.47,-0.09,1.241,0.059
34.48,-0.043,0.738,0.152
34.49,-0.31,1.0,0.013
34.5,-0.273,0.926,-0.13
34.51,-0.196,1.034,-0.097
34.52,-0.132,1.038,0.106
34.53,-0.094,0.739,0.139
34.54,-0.328,1.146,-0.064
34.55,-0.324,0.781,-0.153
34.56,-0.221,1.127,-0.009
34.57,-0.103,0.863,0.157
34.58,-0.198,0.921,0.101
34.59,-0.344,1.009,-0.085
34.6,-0.194,0.889,-0.127
34.61,-0.137,1.159,-0.016
34.62,-0.186,0.764,0.216
34.63,-0.226,1.078,0.051
34.64,-0.315,0.823,-0.142
34.65,-0.258,1.042,-0.104
34.66,-0.123,1.01,0.065
34.67,-0.103,0.897,0.153
34.68,-0.305,1.014,0.042
34.69,-0.325,0.826,-0.137
34.7,-0.166,1.239,-0.066
34.71,-0.055,0.887,0.045
34.72,-0.388,0.961,0.237
34.73,-0.299,0.874,-0.052
34.74,-0.271,1.055,-0.129
34.75,-0.135,1.064,-0.066
34.76,-0.153,0.787,0.117
34.77,-0.217,1.006,0.161
34.78,-0.298,0.844,-0.091
34.79,-0.263,1.168,-0.136
34.8,-0.193,0.885,-0.018
34.81,-0.211,1.043,0.312
34.82,-0.178,0.915,0.095
34.83,-0.33,0.953,-0.129
34.84,-0.229,1.118,-0.122
34.85,-0.124,0.959,0.039
34.86,-0.06,1.037,0.132
34.87,-0.267,0.771,0.022
34.88,-0.288,1.129,-0.167
34.89,-0.211,0.995,-0.081
34.9,-0.119,0.972,0.058
34.91,-0.292,0.877,0.205
34.92,-0.318,0.879,-0.038
34.93,-0.276,1.192,-0.144
34.94,-0.169,0.853,-0.08
34.95,-0.168,1.057,0.124
34.96,-0.142,0.756,0.146
34.97,-0.325,1.058,-0.1
34.98,-0.336,0.931,-0.121
34.99,-0.171,0.934,-0.041
35.0,-0.087,1.079,0.183
35.01,-0.191,0.791,0.069
35.02,-0.345,1.118,-0.125
35.03,-0.245,0.817,-0.089
35.04,-0.153,1.268,0.06
35.05,-0.006,0.847,0.107
35.06,-0.266,0.905,0.04
35.07,-0.346,1.02,-0.139
35.08,-0.148,0.954,-0.085
35.09,-0.109,1.172,0.048
35.1,-0.083,0.656,0.165
35.11,-0.356,1.1,-0.028
35.12,-0.289,0.899,-0.118
35.13,-0.084,1.083,-0.111
35.14,-0.204,0.917,0.118
35.15,-0.173,0.764,0.131
35.16,-0.364,1.177,-0.051
35.17,-0.228,0.85,-0.171
35.18,-0.216,1.1,-0.058
35.19,-0.082,0.764,0.191
35.2,-0.14,1.039,0.118
35.21,-0.357,0.915,-0.129
35.22,-0.224,0.901,-0.138
35.23,-0.093,1.019,0.036
35.24,-0.249,0.9,0.258
35.25,-0.245,1.001,-0.001
35.26,-0.354,0.841,-0.128
35.27,-0.139,1.222,-0.062
35.28,-0.097,0.831,0.04
35.29,-0.176,0.967,0.203
35.3,-0.273,0.907,-0.045
35.31,-0.2,1.118,-0.153
35.32,-0.243,1.008,-0.072
35.33,-0.128,0.793,0.131
35.34,-0.178,1.062,0.157
35.35,-0.292,0.866,-0.107
35.36,-0.3,1.109,-0.124
35.37,-0.155,0.888,-0.018
35.38,-0.29,1.104,0.189
35.39,-0.163,0.85,0.029
35.4,-0.335,0.918,-0.113
35.41,-0.189,1.087,-0.123
35.42,-0.109,1.01,0.044
35.43,-0.138,1.023,0.148
35.44,-0.167,0.746,0.017
35.45,-0.355,1.185,-0.132
35.46,-0.219,0.992,-0.076
35.47,-0.142,1.003,0.03
35.48,-0.135,0.827,0.154
35.49,-0.294,0.918,0.005
35.5,-0.284,1.189,-0.191
35.51,-0.253,0.787,-0.074
35.52,-0.062,1.067,0.103
35.53,-0.129,0.809,0.143
35.54,-0.314,1.066,-0.108
35.55,-0.322,0.876,-0.145
35.56,-0.176,0.983,-0.018
35.57,-0.123,1.093,0.167
35.58,-0.161,0.752,0.071
35.59,-0.36,1.086,-0.104
35.6,-0.262,0.833,-0.103
35.61,-0.132,1.253,0.06
35.62,-0.01,0.794,0.126
35.63,-0.234,0.934,0.071
35.64,-0.313,0.963,-0.135
35.65,-0.225,0.993,-0.065
35.66,-0.206,1.191,0.054
35.67,-0.059,0.663,0.093
35.68,-0.318,1.096,0.023
35.69,-0.226,0.915,-0.108
35.7,-0.148,1.15,-0.125
35.71,-0.187,0.88,0.098
35.72,-0.175,0.852,0.16
35.73,-0.352,1.085,-0.043
35.74,-0.213,0.869,-0.17
35.75,-0.205,1.127,-0.06
35.76,-0.125,0.714,0.142
35.77,-0.205,1.08,0.141
35.78,-0.232,0.915,-0.103
35.79,-0.294,0.959,-0.124
35.8,-0.176,1.013,-0.022
35.81,-0.1,0.884,0.17
35.82,-0.218,1.097,0.049
35.83,-0.307,0.779,-0.137
35.84,-0.262,1.155,-0.111
35.85,-0.051,0.921,0.04
35.86,0.031,0.985,0.028
35.87,-0.223,0.894,0.017
35.88,-0.335,0.94,-0.126
35.89,-0.123,1.176,-0.067
35.9,-0.139,0.833,0.068
35.91,-0.15,1.011,0.165
35.92,-0.277,0.846,-0.036
35.93,-0.29,1.162,-0.151
35.94,-0.185,0.894,-0.063
35.95,-0.085,0.985,0.141
35.96,-0.126,0.979,0.092
35.97,-0.358,0.853,-0.093
35.98,-0.269,1.104,-0.109
35.99,-0.154,0.871,0.002
36.0,-0.083,1.136,0.148
36.01,-0.221,0.781,0.086
36.02,-0.394,1.018,-0.121
36.03,-0.194,0.983,-0.113
36.04,-0.121,1.054,0.028
36.05,-0.072,0.782,0.164
36.06,-0.173,0.886,-0.001
36.07,-0.335,1.154,-0.16
36.08,-0.162,0.875,-0.125
36.09,-0.153,1.128,0.078
36.1,-0.033,0.662,0.132
36.11,-0.36,1.074,-0.053
36.12,-0.302,0.928,-0.109
36.13,-0.158,1.027,-0.079
36.14,-0.115,0.988,0.113
36.15,-0.141,0.781,0.129
36.16,-0.326,1.153,-0.11
36.17,-0.189,0.826,-0.099
36.18,-0.174,1.213,-0.042
36.19,-0.085,0.793,0.16
36.2,-0.168,1.012,0.096
36.21,-0.291,1.013,-0.12
36.22,-0.261,0.9,-0.13
36.23,-0.242,1.167,0.058
36.24,-0.016,0.799,0.16
36.25,-0.209,1.101,-0.005
36.26,-0.33,0.796,-0.105
36.27,-0.256,1.145,-0.106
36.28,-0.006,0.992,0.045
36.29,-0.233,0.874,0.159
36.3,-0.316,1.016,-0.024
36.31,-0.228,0.895,-0.108
36.32,-0.16,1.194,-0.076
36.33,-0.151,0.763,0.103
36.34,-0.14,1.031,0.138
36.35,-0.266,0.902,-0.098
36.36,-0.281,1.01,-0.136
36.37,-0.202,0.995,-0.035
36.38,-0.121,0.864,0.162
36.39,-0.192,1.015,0.125
36.4,-0.261,0.865,-0.117
36.41,-0.266,1.166,-0.1
36.42,-0.195,0.913,0.027
36.43,-0.065,1.056,0.18
36.44,-0.157,0.877,0.035
36.45,-0.349,0.954,-0.141
36.46,-0.267,1.111,-0.074
36.47,-0.106,0.857,0.037
36.48,-0.098,0.989,0.159
36.49,-0.232,0.801,-0.038
36.5,-0.344,1.158,-0.115
36.51,-0.193,0.923,-0.051
36.52,-0.114,0.983,0.099
36.53,-0.128,0.868,0.124
36.54,-0.384,0.922,-0.011
36.55,-0.219,1.153,-0.194
36.56,-0.214,0.847,-0.034
36.57,-0.271,1.052,0.11
36.58,-0.149,0.802,0.131
36.59,-0.367,1.071,-0.107
36.6,-0.226,0.893,-0.151
36.61,-0.214,1.006,-0.011
36.62,-0.258,1.045,0.306
36.63,-0.197,0.809,0.063
36.64,-0.354,1.102,-0.134
36.65,-0.245,0.836,-0.089
36.66,-0.099,1.251,0.002
36.67,0.025,0.762,0.085
36.68,-0.279,0.915,0.022
36.69,-0.335,1.014,-0.104
36.7,-0.068,0.948,-0.135
36.71,-0.147,1.133,0.071
36.72,-0.123,0.68,0.184
36.73,-0.363,1.106,-0.049
36.74,-0.29,0.865,-0.104
36.75,-0.178,1.108,-0.06
36.76,-0.137,0.892,0.112
36.77,-0.109,0.833,0.092
36.78,-0.356,1.101,-0.081
36.79,-0.198,0.784,-0.16
36.8,-0.241,1.155,-0.014
36.81,-0.109,0.793,0.178
36.82,-0.188,1.05,0.065
36.83,-0.353,0.862,-0.085
36.84,-0.187,0.963,-0.124
36.85,-0.156,1.178,0.058
36.86,0.039,0.824,0.079
36.87,-0.257,1.049,0.045
36.88,-0.328,0.871,-0.118
36.89,-0.073,1.193,-0.1
36.9,-0.127,0.866,0.05
36.91,-0.229,0.98,0.255
36.92,-0.268,0.875,-0.016
36.93,-0.269,1.142,-0.094
36.94,-0.105,0.991,-0.104
36.95,-0.164,0.848,0.144
36.96,-0.302,1.037,0.147
36.97,-0.313,0.899,-0.101
36.98,-0.273,1.203,-0.168
36.99,-0.203,0.829,-0.036
37.0,-0.116,1.041,0.192
37.01,-0.128,0.86,0.096
37.02,-0.359,0.963,-0.125
37.03,-0.277,0.973,-0.137
37.04,-0.133,0.986,0.053
37.05,-0.028,1.145,0.085
37.06,-0.212,0.713,0.028
37.07,-0.357,1.104,-0.134
37.08,-0.152,1.02,-0.056
37.09,-0.103,1.15,-0.005
37.1,-0.135,0.789,0.157
37.11,-0.288,0.888,-0.035
37.12,-0.269,1.208,-0.121
37.13,-0.174,0.88,-0.106
37.14,-0.154,1.056,0.086
37.15,-0.092,0.731,0.139
37.16,-0.333,1.116,-0.085
37.17,-0.294,0.878,-0.14
37.18,-0.18,0.962,-0.044
37.19,-0.155,1.044,0.18
37.2,-0.147,0.788,0.102
37.21,-0.382,1.119,-0.109
37.22,-0.231,0.752,-0.147
37.23,-0.16,1.257,0.031
37.24,-0.007,0.819,0.107
37.25,-0.281,0.933,0.067
37.26,-0.282,0.953,-0.127
37.27,-0.197,1.028,-0.023
37.28,-0.025,1.192,-0.005
37.29,-0.082,0.661,0.119
37.3,-0.271,1.066,0.001
37.31,-0.335,0.911,-0.103
37.32,-0.131,1.158,-0.121
37.33,-0.334,0.907,0.231
37.34,-0.089,0.835,0.132
37.35,-0.372,1.09,-0.043
37.36,-0.207,0.846,-0.162
37.37,-0.198,1.104,-0.044
37.38,-0.118,0.745,0.111
37.39,-0.185,1.044,0.104
37.4,-0.324,0.947,-0.036
37.41,-0.221,0.99,-0.186
37.42,-0.231,1.011,0.021
37.43,-0.068,0.855,0.167
37.44,-0.204,1.088,0.058
37.45,-0.302,0.777,-0.131
37.46,-0.246,1.163,-0.094
37.47,-0.093,0.979,0.063
37.48,-0.063,1.003,0.118
37.49,-0.2,0.876,0.018
37.5,-0.375,0.982,-0.086
37.51,-0.14,1.123,-0.101
37.52,-0.275,0.84,0.159
37.53,-0.145,1.03,0.11
37.54,-0.317,0.874,-0.017
37.55,-0.298,1.167,-0.175
37.56,-0.175,0.84,-0.059
37.57,-0.125,0.979,0.089
37.58,-0.228,0.947,0.181
37.59,-0.293,0.927,-0.054
37.6,-0.284,1.1,-0.173
37.61,-0.194,0.786,-0.014
37.62,-0.053,1.1,0.137
37.63,-0.111,0.814,0.069
37.64,-0.428,1.053,-0.115
37.65,-0.25,0.905,-0.103
37.66,-0.122,1.054,0.023
37.67,-0.017,1.045,0.142
37.68,-0.238,0.759,0.008
37.69,-0.329,1.114,-0.136
37.7,-0.112,0.967,-0.098
37.71,-0.135,1.147,0.044
37.72,-0.072,0.63,0.157
37.73,-0.306,1.086,-0.025
37.74,-0.285,0.953,-0.128
37.75,-0.183,1.0,-0.099
37.76,-0.18,0.925,0.12
37.77,-0.141,0.794,0.116
37.78,-0.342,1.176,-0.093
37.79,-0.297,0.76,-0.12
37.8,-0.151,1.117,-0.026
37.81,0.078,0.796,0.024
37.82,-0.158,1.016,0.118
37.83,-0.267,0.986,-0.108
37.84,-0.247,0.896,-0.131
37.85,-0.139,1.159,0.027
37.86,-0.043,0.814,0.138
37.87,-0.24,1.075,0.037
37.88,-0.329,0.79,-0.132
37.89,-0.17,1.162,-0.076
37.9,-0.009,0.968,0.008
37.91,-0.099,0.895,0.108
37.92,-0.225,0.985,0.006
37.93,-0.305,0.92,-0.13
37.94,-0.147,1.205,-0.074
37.95,-0.111,0.808,0.073
37.96,-0.19,0.982,0.172
37.97,-0.326,0.879,-0.041
37.98,-0.222,1.133,-0.143
37.99,-0.195,0.96,-0.059
38.0,-0.135,0.818,0.138
38.01,-0.174,1.077,0.136
38.02,-0.295,0.865,-0.11
38.03,-0.308,1.098,-0.16
38.04,-0.211,0.856,-0.001
38.05,-0.02,1.101,0.102
38.06,-0.174,0.866,0.053
38.07,-0.376,0.976,-0.094
38.08,-0.226,1.051,-0.138
38.09,-0.121,0.942,0.078
38.1,-0.041,1.106,0.147
38.11,-0.217,0.742,0.005
38.12,-0.394,1.089,-0.147
38.13,-0.134,0.972,-0.052
38.14,-0.082,1.123,0.052
38.15,-0.127,0.838,0.128
38.16,-0.302,0.882,-0.004
38.17,-0.344,1.169,-0.123
38.18,-0.094,0.893,-0.077
38.19,-0.178,1.089,0.109
38.2,-0.178,0.678,0.151
38.21,-0.373,1.158,-0.04
38.22,-0.202,0.918,-0.156
38.23,-0.235,0.902,-0.007
38.24,-0.083,1.003,0.152
38.25,-0.115,0.833,0.072
38.26,-0.365,1.153,-0.113
38.27,-0.228,0.732,-0.124
38.28,-0.173,1.258,0.032
38.29,-0.015,0.864,0.137
38.3,-0.211,0.927,0.044
38.31,-0.355,0.948,-0.116
38.32,-0.191,0.948,-0.1
38.33,-0.082,1.16,0.034
38.34,-0.294,0.71,0.349
38.35,-0.295,1.113,0.004
38.36,-0.33,0.853,-0.136
38.37,-0.115,1.127,-0.092
38.38,-0.125,0.923,0.091
38.39,-0.201,0.841,0.187
38.4,-0.327,1.065,-0.041
38.41,-0.193,0.89,-0.148
38.42,-0.198,1.146,-0.058
38.43,-0.167,0.742,0.135
38.44,-0.174,1.034,0.138
38.45,-0.281,0.932,-0.102
38.46,-0.24,1.011,-0.155
38.47,-0.184,1.013,-0.01
38.48,-0.334,0.864,0.2
38.49,-0.139,1.096,0.057
38.5,-0.339,0.816,-0.152
38.51,-0.236,1.157,-0.099
38.52,-0.068,0.909,0.066
38.53,-0.057,1.024,0.111
38.54,-0.275,0.777,-0.004
38.55,-0.326,1.109,-0.139
38.56,-0.13,1.021,-0.084
38.57,-0.275,0.891,0.196
38.58,-0.133,0.933,0.132
38.59,-0.326,0.911,-0.071
38.6,-0.337,1.154,-0.148
38.61,-0.178,0.846,-0.035
38.62,-0.124,1.11,0.152
38.63,-0.149,0.817,0.089
38.64,-0.317,1.018,-0.108
38.65,-0.283,1.015,-0.11
38.66,-0.21,0.958,0.02
38.67,-0.068,1.077,0.17
38.68,-0.183,0.734,0.034
38.69,-0.361,1.097,-0.131
38.7,-0.237,0.914,-0.057
38.71,-0.115,1.15,0.042
38.72,-0.082,0.842,0.128
38.73,-0.234,0.841,-0.035
38.74,-0.372,1.081,-0.125
38.75,-0.115,0.917,-0.064
38.76,-0.147,1.156,0.055
38.77,-0.084,0.637,0.123
38.78,-0.336,1.115,-0.021
38.79,-0.268,0.974,-0.136
38.8,-0.13,1.037,-0.06
38.81,-0.184,0.934,0.12
38.82,-0.183,0.769,0.149
38.83,-0.339,1.222,-0.057
38.84,-0.198,0.823,-0.136
38.85,-0.217,1.141,-0.037
38.86,-0.106,0.799,0.183
38.87,-0.182,1.035,0.076
38.88,-0.327,0.937,-0.173
38.89,-0.219,0.885,-0.087
38.9,-0.115,1.196,0.025
38.91,-0.068,0.779,0.153
38.92,-0.275,1.083,0.009
38.93,-0.277,0.793,-0.168
38.94,-0.193,1.157,-0.086
38.95,-0.069,0.884,0.064
38.96,-0.064,0.857,0.174
38.97,-0.288,1.022,-0.05
38.98,-0.292,0.905,-0.115
38.99,-0.188,1.14,-0.065
39.0,-0.1,0.791,0.099
39.01,-0.184,1.085,0.155
39.02,-0.3,0.881,-0.068
39.03,-0.296,1.008,-0.131
39.04,-0.206,0.979,-0.022
39.05,-0.062,0.881,0.152
39.06,-0.195,1.068,0.094
39.07,-0.24,0.81,-0.149
39.08,-0.275,1.143,-0.105
39.09,-0.153,0.871,0.053
39.1,-0.056,1.112,0.159
39.11,-0.229,0.877,-0.005
39.12,-0.388,0.942,-0.097
39.13,-0.205,1.125,-0.049
39.14,-0.028,0.967,0.038
39.15,-0.143,1.012,0.117
39.16,-0.259,0.784,-0.009
39.17,-0.32,1.193,-0.126
39.18,-0.118,0.941,-0.091
39.19,-0.141,0.971,0.101
39.2,-0.126,0.866,0.136
39.21,-0.344,0.964,-0.069
39.22,-0.309,1.149,-0.081
39.23,-0.165,0.825,-0.044
39.24,-0.12,1.065,0.135
39.25,-0.196,0.8,0.102
39.26,-0.322,1.1,-0.143
39.27,-0.266,0.887,-0.123
39.28,-0.16,1.031,0.038
39.29,-0.042,1.073,0.139
39.3,-0.268,0.768,0.02
39.31,-0.355,1.099,-0.138
39.32,-0.16,0.932,-0.057
39.33,-0.058,1.224,0.034
39.34,-0.137,0.673,0.209
39.35,-0.358,1.116,-0.025
39.36,-0.2,0.947,-0.161
39.37,-0.22,1.043,-0.067
39.38,-0.136,0.885,0.125
39.39,-0.178,0.797,0.163
39.4,-0.404,1.133,-0.11
39.41,-0.239,0.78,-0.134
39.42,-0.183,1.179,-0.03
39.43,-0.076,0.787,0.138
39.44,-0.16,1.026,0.057
39.45,-0.26,0.941,-0.13
39.46,-0.24,0.913,-0.127
39.47,-0.177,1.105,0.041
39.48,0.003,0.815,0.147
39.49,-0.214,1.089,0.006
39.5,-0.383,0.767,-0.111
39.51,-0.139,1.142,-0.116
39.52,-0.067,1.006,0.068
39.53,-0.164,0.868,0.131
39.54,-0.324,0.983,0.028
39.55,-0.234,0.93,-0.122
39.56,-0.115,1.204,-0.086
39.57,-0.17,0.731,0.124
39.58,-0.207,1.009,0.164
39.59,-0.281,0.899,-0.063
39.6,-0.23,1.08,-0.163
39.61,-0.201,0.938,-0.017
39.62,-0.327,0.899,0.261
39.63,-0.187,1.04,0.08
39.64,-0.32,0.824,-0.128
39.65,-0.221,1.158,-0.117
39.66,-0.186,0.919,0.062
39.67,-0.029,1.022,0.135
39.68,-0.24,0.836,0.053
39.69,-0.384,0.96,-0.186
39.7,-0.156,1.082,-0.059
39.71,-0.077,0.934,0.053
39.72,-0.156,0.961,0.142
39.73,-0.281,0.808,-0.018
39.74,-0.213,1.232,-0.152
39.75,-0.18,0.91,-0.07
39.76,-0.308,0.988,0.122
39.77,-0.183,0.878,0.146
39.78,-0.293,0.975,-0.096
39.79,-0.277,1.077,-0.16
39.8,-0.26,0.837,-0.005
39.81,-0.144,1.119,0.17
39.82,-0.179,0.774,0.056
39.83,-0.413,1.055,-0.111
39.84,-0.212,0.879,-0.123
39.85,-0.102,1.121,0.022
39.86,-0.128,0.92,0.157
39.87,-0.259,0.769,0.01
39.88,-0.375,1.18,-0.12
39.89,-0.071,0.95,-0.096
39.9,-0.199,1.161,0.087
39.91,-0.092,0.662,0.163
39.92,-0.314,1.057,-0.005
39.93,-0.239,0.981,-0.191
39.94,-0.25,0.888,-0.055
39.95,-0.107,1.064,0.123
39.96,-0.113,0.77,0.135
39.97,-0.389,1.158,-0.085
39.98,-0.228,0.776,-0.121
39.99,-0.216,1.156,-0.013
40.0,-0.108,0.908,0.196
40.01,-0.145,0.926,0.059
40.02,-0.353,1.011,-0.12
40.03,-0.242,0.829,-0.077
40.04,-0.073,1.266,0.016
40.05,-0.031,0.747,0.134
40.06,-0.267,1.047,0.048
40.07,-0.296,0.837,-0.135
40.08,-0.21,1.15,-0.046
40.09,-0.129,0.982,0.059
40.1,-0.069,0.748,0.15
40.11,-0.335,1.099,-0.027
40.12,-0.259,0.893,-0.133
40.13,-0.254,1.134,-0.06
40.14,-0.104,0.709,0.091
40.15,-0.182,1.047,0.141
40.16,-0.328,0.974,-0.092
40.17,-0.287,0.996,-0.12
40.18,-0.241,0.938,0.02
40.19,0.008,0.982,0.161
40.2,-0.235,0.991,0.059
40.21,-0.328,0.797,-0.147
40.22,-0.26,1.189,-0.037
40.23,-0.032,0.963,-0.002
40.24,-0.166,1.012,0.144
40.25,-0.19,0.817,-0.007
40.26,-0.324,1.059,-0.095
40.27,-0.205,1.05,-0.084
40.28,-0.135,0.895,0.087
40.29,-0.132,1.017,0.154
40.3,-0.312,0.839,-0.033
40.31,-0.282,1.143,-0.166
40.32,-0.208,0.816,-0.065
40.33,-0.127,1.044,0.101
40.34,-0.12,0.896,0.135
40.35,-0.296,0.951,-0.099
40.36,-0.287,0.989,-0.123
40.37,-0.182,0.923,0.01
40.38,-0.098,1.131,0.142
40.39,-0.114,0.755,0.052
40.4,-0.36,1.118,-0.128
40.41,-0.208,0.872,-0.126
40.42,-0.198,1.138,0.065
40.43,-0.025,0.941,0.14
40.44,-0.186,0.804,0.021
40.45,-0.368,1.085,-0.115
40.46,-0.118,0.928,-0.048
40.47,-0.221,1.279,0.018
40.48,-0.118,0.682,0.098
40.49,-0.268,1.015,0.022
40.5,-0.288,1.021,-0.123
40.51,-0.106,1.041,-0.084
40.52,-0.18,1.002,0.071
40.53,-0.117,0.69,0.133
40.54,-0.37,1.18,-0.02
40.55,-0.197,0.87,-0.161
40.56,-0.232,1.081,-0.048
40.57,-0.301,0.807,0.169
40.58,-0.156,0.972,0.099
40.59,-0.301,1.053,-0.102
40.6,-0.249,0.814,-0.113
40.61,-0.156,1.161,0.004
40.62,0.0,0.832,0.123
40.63,-0.229,1.104,0.038
40.64,-0.359,0.775,-0.154
40.65,-0.214,1.1,-0.083
40.66,-0.074,1.095,0.013
40.67,-0.114,0.827,0.176
40.68,-0.277,1.017,0.011
40.69,-0.303,0.861,-0.121
40.7,-0.182,1.198,-0.055
40.71,-0.076,0.834,0.09
40.72,-0.104,1.031,0.149
40.73,-0.319,0.934,-0.033
40.74,-0.283,1.021,-0.133
40.75,-0.243,1.005,-0.047
40.76,-0.084,0.828,0.136
40.77,-0.18,1.093,0.101
40.78,-0.349,0.833,-0.093
40.79,-0.302,1.115,-0.12
40.8,-0.083,0.897,-0.031
40.81,-0.398,1.093,0.326
40.82,-0.253,0.905,0.067
40.83,-0.343,0.918,-0.117
40.84,-0.168,1.097,-0.129
40.85,-0.12,0.93,0.025
40.86,-0.103,1.082,0.15
40.87,-0.224,0.751,0.028
40.88,-0.374,1.088,-0.12
40.89,-0.134,0.986,-0.07
40.9,-0.123,1.075,0.038
40.91,-0.086,0.858,0.149
40.92,-0.247,0.846,-0.032
40.93,-0.315,1.219,-0.115
40.94,-0.244,0.869,-0.06
40.95,-0.125,1.048,0.09
40.96,-0.111,0.711,0.127
40.97,-0.348,1.105,-0.032
40.98,-0.249,0.966,-0.164
40.99,-0.196,1.075,-0.043
41.0,-0.088,0.924,0.16
41.01,-0.183,0.901,0.104
41.02,-0.324,1.059,-0.159
41.03,-0.269,0.785,-0.099
41.04,-0.162,1.257,0.064
41.05,0.03,0.817,0.135
41.06,-0.313,1.017,0.018
41.07,-0.323,0.853,-0.134
41.08,-0.186,1.071,-0.092
41.09,-0.061,1.1,0.056
41.1,-0.022,0.727,0.029
41.11,-0.279,1.084,-0.009
41.12,-0.251,0.889,-0.125
41.13,-0.215,1.199,-0.071
41.14,-0.037,0.766,0.06
41.15,-0.129,0.985,0.143
41.16,-0.306,1.046,-0.082
41.17,-0.253,0.886,-0.136
41.18,-0.194,1.103,-0.042
41.19,-0.093,0.836,0.173
41.2,-0.239,1.109,0.086
41.21,-0.36,0.811,-0.102
41.22,-0.204,1.074,-0.125
41.23,-0.185,1.02,0.033
41.24,-0.065,0.913,0.174
41.25,-0.226,0.992,0.077
41.26,-0.344,0.871,-0.121
41.27,-0.173,1.24,-0.087
41.28,-0.112,0.876,0.01
41.29,-0.095,1.0,0.181
41.3,-0.213,0.838,-0.036
41.31,-0.346,1.073,-0.139
41.32,-0.163,1.009,-0.094
41.33,-0.125,0.875,0.103
41.34,-0.165,1.007,0.153
41.35,-0.317,0.836,-0.036
41.36,-0.346,1.175,-0.165
41.37,-0.269,0.837,-0.001
41.38,-0.123,1.079,0.146
41.39,-0.094,0.832,0.074
41.4,-0.361,0.989,-0.091
41.41,-0.211,1.047,-0.125
41.42,-0.152,0.976,0.012
41.43,-0.156,1.132,0.154
41.44,-0.106,0.752,0.05
41.45,-0.387,1.121,-0.135
41.46,-0.198,0.926,-0.1
41.47,-0.044,1.142,0.021
41.48,-0.151,0.867,0.174
41.49,-0.234,0.834,-0.0
41.5,-0.344,1.15,-0.111
41.51,-0.128,0.901,-0.079
41.52,-0.205,1.127,0.08
41.53,-0.117,0.709,0.172
41.54,-0.319,1.102,-0.054
41.55,-0.311,0.888,-0.154
41.56,-0.191,0.976,-0.031
41.57,-0.075,1.067,0.117
41.58,-0.191,0.795,0.103
41.59,-0.382,1.137,-0.065
41.6,-0.247,0.804,-0.131
41.61,-0.206,1.168,0.014
41.62,-0.028,0.835,0.139
41.63,-0.192,0.928,0.034
41.64,-0.326,0.968,-0.115
41.65,-0.183,0.958,-0.08
41.66,-0.196,1.179,0.02
41.67,-0.013,0.654,0.159
41.68,-0.208,1.11,0.027
41.69,-0.308,0.836,-0.144
41.7,-0.248,1.096,-0.068
41.71,-0.094,0.959,0.052
41.72,-0.101,0.861,0.181
41.73,-0.289,1.07,-0.06
41.74,-0.286,0.883,-0.109
41.75,-0.159,1.169,-0.093
41.76,-0.328,0.774,0.131
41.77,-0.132,1.055,0.114
41.78,-0.273,0.922,-0.074
41.79,-0.263,0.992,-0.156
41.8,-0.212,0.99,-0.033
41.81,0.014,0.947,0.08
41.82,-0.181,0.934,0.063
41.83,-0.383,0.889,-0.127
41.84,-0.179,1.191,-0.086
41.85,-0.062,0.947,0.014
41.86,-0.091,1.006,0.121
41.87,-0.223,0.784,0.0
41.88,-0.321,1.116,-0.101
41.89,-0.152,1.031,-0.105
41.9,-0.067,0.89,0.009
41.91,-0.13,0.952,0.145
41.92,-0.284,0.855,-0.034
41.93,-0.32,1.21,-0.164
41.94,-0.184,0.805,-0.058
41.95,-0.146,1.086,0.158
41.96,-0.147,0.861,0.15
41.97,-0.365,1.005,-0.083
41.98,-0.24,0.949,-0.149
41.99,-0.198,0.972,0.02
42.0,-0.079,1.097,0.185
42.01,-0.183,0.74,0.044
42.02,-0.341,1.132,-0.112
42.03,-0.198,0.956,-0.071
42.04,-0.105,1.154,-0.006
42.05,-0.114,0.765,0.157
42.06,-0.238,0.871,0.013
42.07,-0.365,1.122,-0.11
42.08,-0.106,0.92,-0.146
42.09,-0.171,1.113,0.091
42.1,-0.044,0.646,0.113
42.11,-0.322,1.113,-0.004
42.12,-0.248,0.914,-0.165
42.13,-0.25,0.968,-0.059
42.14,-0.09,0.992,0.112
42.15,-0.096,0.874,0.133
42.16,-0.317,1.121,-0.137
42.17,-0.31,0.734,-0.096
42.18,-0.165,1.208,-0.015
42.19,-0.001,0.871,0.102
42.2,-0.153,0.965,0.045
42.21,-0.368,0.948,-0.088
42.22,-0.203,0.934,-0.104
42.23,-0.244,1.228,0.069
42.24,-0.032,0.757,0.098
42.25,-0.271,1.063,0.045
42.26,-0.247,0.834,-0.132
42.27,-0.189,1.188,-0.08
42.28,-0.21,0.929,0.098
42.29,-0.096,0.873,0.139
42.3,-0.298,0.979,0.011
42.31,-0.31,0.891,-0.094
42.32,-0.077,1.173,-0.081
42.33,-0.174,0.797,0.116
42.34,-0.203,0.986,0.14
42.35,-0.269,0.912,-0.004
42.36,-0.251,1.138,-0.2
42.37,-0.222,0.885,-0.049
42.38,-0.132,0.823,0.161
42.39,-0.127,1.067,0.078
42.4,-0.307,0.875,-0.141
42.41,-0.311,1.089,-0.121
42.42,-0.149,0.865,0.034
42.43,-0.021,1.145,0.16
42.44,-0.196,0.831,0.011
42.45,-0.395,0.945,-0.113
42.46,-0.19,1.116,-0.067
42.47,-0.037,1.012,0.017
42.48,-0.072,0.952,0.099
42.49,-0.221,0.762,0.009
42.5,-0.313,1.236,-0.107
42.51,-0.165,0.92,-0.073
42.52,-0.139,0.996,0.071
42.53,-0.151,0.842,0.153
42.54,-0.302,0.972,-0.055
42.55,-0.302,1.104,-0.118
42.56,-0.23,0.821,-0.058
42.57,-0.176,1.125,0.213
42.58,-0.088,0.788,0.085
42.59,-0.41,1.085,-0.056
42.6,-0.179,0.845,-0.159
42.61,-0.204,1.135,0.061
42.62,-0.135,1.007,0.121
42.63,-0.178,0.916,-0.049
42.64,-0.162,1.15,0.035
42.65,-0.095,0.635,0.186
42.66,-0.312,1.079,-0.001
42.67,-0.268,0.959,-0.13
42.68,-0.218,1.006,-0.104
42.69,-0.114,0.963,0.117
42.7,-0.127,0.811,0.152
42.71,-0.371,1.155,-0.08
42.72,-0.259,0.773,-0.156
42.73,-0.199,1.139,-0.024
42.74,-0.034,0.817,0.093
42.75,-0.108,1.001,0.069
42.76,-0.311,0.985,-0.115
42.77,-0.262,0.855,-0.116
42.78,-0.17,1.169,0.044
42.79,-0.017,0.825,0.155
42.8,-0.251,1.088,0.033
42.81,-0.33,0.808,-0.137
42.82,-0.159,1.178,-0.068
42.83,-0.109,0.974,-0.008
42.84,-0.112,0.812,0.197
42.85,-0.24,0.995,-0.013
42.86,-0.306,0.92,-0.107
42.87,-0.143,1.167,-0.11
42.88,-0.163,0.763,0.103
42.89,-0.185,0.994,0.161
42.9,-0.309,0.92,-0.051
42.91,-0.287,1.048,-0.166
42.92,-0.207,0.915,-0.065
42.93,-0.136,0.865,0.201
42.94,-0.127,1.089,0.121
42.95,-0.341,0.794,-0.115
42.96,-0.23,1.094,-0.12
42.97,-0.145,0.954,0.015
42.98,-0.117,1.073,0.145
42.99,-0.194,0.835,0.064
43.0,-0.396,0.959,-0.118
43.01,-0.222,1.104,-0.086
43.02,-0.075,0.996,0.038
43.03,-0.091,1.033,0.15
43.04,-0.276,0.759,-0.002
43.05,-0.31,1.175,-0.114
43.06,-0.148,0.957,-0.095
43.07,-0.148,1.017,0.102
43.08,-0.183,0.821,0.166
43.09,-0.361,0.911,-0.015
43.1,-0.258,1.163,-0.12
43.11,-0.125,0.876,-0.056
43.12,-0.169,1.037,0.137
43.13,-0.166,0.727,0.126
43.14,-0.354,1.169,-0.074
43.15,-0.191,0.931,-0.165
43.16,-0.231,1.012,-0.015
43.17,-0.058,0.966,0.18
43.18,-0.162,0.821,0.052
43.19,-0.363,1.129,-0.121
43.2,-0.239,0.834,-0.08
43.21,-0.077,1.236,0.023
43.22,-0.054,0.762,0.133
43.23,-0.279,0.956,0.034
43.24,-0.296,1.017,-0.161
43.25,-0.149,1.0,-0.106
43.26,-0.156,1.089,0.076
43.27,-0.162,0.718,0.192
43.28,-0.363,1.13,-0.081
43.29,-0.258,0.839,-0.151
43.3,-0.21,1.105,-0.063
43.31,-0.355,0.879,0.113
43.32,-0.134,0.883,0.074
43.33,-0.32,1.119,-0.104
43.34,-0.27,0.785,-0.138
43.35,-0.185,1.186,-0.008
43.36,-0.058,0.806,0.202
43.37,-0.21,1.057,0.048
43.38,-0.334,0.855,-0.134
43.39,-0.231,1.192,-0.095
43.4,-0.109,0.929,0.054
43.41,-0.066,0.913,0.111
43.42,-0.288,0.961,-0.018
43.43,-0.246,0.919,-0.129
43.44,-0.143,1.162,-0.1
43.45,-0.157,0.749,0.123
43.46,-0.123,1.032,0.136
43.47,-0.322,0.885,-0.08
43.48,-0.281,1.122,-0.157
43.49,-0.171,0.975,-0.057
43.5,-0.112,0.863,0.154
43.51,-0.256,1.012,0.131
43.52,-0.26,0.878,-0.119
43.53,-0.265,1.175,-0.139
43.54,-0.201,0.836,0.044
43.55,-0.077,1.081,0.179
43.56,-0.145,0.857,0.027
43.57,-0.353,0.978,-0.154
43.58,-0.222,1.006,-0.068
43.59,-0.046,1.012,0.073
43.6,-0.206,1.026,0.125
43.61,-0.296,0.78,0.003
43.62,-0.317,1.19,-0.148
43.63,-0.057,0.946,-0.104
43.64,-0.21,1.031,0.132
43.65,-0.1,0.805,0.102
43.66,-0.32,0.964,-0.063
43.67,-0.216,1.112,-0.174
43.68,-0.188,0.868,0.005
43.69,-0.153,1.089,0.168
43.7,-0.166,0.752,0.107
43.71,-0.366,1.106,-0.111
43.72,-0.231,0.851,-0.137
43.73,-0.153,1.125,0.042
43.74,-0.059,0.958,0.169
43.75,-0.22,0.797,0.017
43.76,-0.344,1.118,-0.122
43.77,-0.143,0.909,-0.079
43.78,-0.085,1.184,0.057
43.79,-0.354,0.673,0.222
43.8,-0.328,1.037,-0.033
43.81,-0.242,0.995,-0.152
43.82,-0.156,0.982,-0.077
43.83,-0.009,0.937,0.053
43.84,-0.055,0.734,0.129
43.85,-0.402,1.2,-0.094
43.86,-0.223,0.797,-0.161
43.87,-0.226,1.17,-0.017
43.88,-0.096,0.859,0.196
43.89,-0.206,0.945,0.054
43.9,-0.344,0.972,-0.12
43.91,-0.191,0.875,-0.091
43.92,-0.079,1.214,0.062
43.93,-0.139,0.763,0.334
43.94,-0.295,1.069,0.044
43.95,-0.321,0.874,-0.135
43.96,-0.117,1.173,-0.132
43.97,-0.157,0.946,0.08
43.98,-0.101,0.789,0.185
43.99,-0.338,1.091,-0.039
44.0,-0.237,0.898,-0.148
44.01,-0.187,1.114,-0.062
44.02,-0.094,0.729,0.094
44.03,-0.119,1.076,0.127
44.04,-0.286,0.938,-0.14
44.05,-0.323,0.937,-0.107
44.06,-0.193,1.055,-0.003
44.07,0.042,0.885,0.098
44.08,-0.237,1.057,0.047
44.09,-0.331,0.764,-0.135
44.1,-0.154,1.243,-0.07
44.11,-0.086,0.933,-0.006
44.12,-0.122,0.892,0.181
44.13,-0.206,0.904,-0.003
44.14,-0.343,1.021,-0.118
44.15,-0.199,1.102,-0.089
44.16,-0.101,0.733,0.097
44.17,-0.184,1.051,0.153
44.18,-0.321,0.913,-0.043
44.19,-0.303,1.128,-0.181
44.2,-0.149,0.878,-0.053
44.21,-0.118,1.073,0.135
44.22,-0.2,0.86,0.089
44.23,-0.314,0.975,-0.139
44.24,-0.292,1.035,-0.127
44.25,-0.149,0.99,0.055
44.26,-0.077,1.059,0.141
44.27,-0.177,0.719,0.022
44.28,-0.383,1.147,-0.139
44.29,-0.2,0.936,-0.044
44.3,-0.111,1.162,0.056
44.31,-0.057,0.798,0.119
44.32,-0.346,0.906,-0.03
44.33,-0.29,1.146,-0.091
44.34,-0.181,0.85,-0.057
44.35,-0.164,1.071,0.122
44.36,-0.165,0.733,0.14
44.37,-0.372,1.104,-0.131
44.38,-0.258,0.863,-0.146
44.39,-0.176,1.018,-0.016
44.4,-0.09,0.982,0.155
44.41,-0.127,0.776,0.087
44.42,-0.353,1.127,-0.105
44.43,-0.253,0.802,-0.084
44.44,-0.122,1.278,0.039
44.45,-0.094,0.811,0.14
44.46,-0.279,0.949,0.036
44.47,-0.284,0.942,-0.162
44.48,-0.151,0.97,-0.071
44.49,-0.119,1.138,0.057
44.5,-0.078,0.724,0.171
44.51,-0.379,1.112,-0.047
44.52,-0.258,0.773,-0.116
44.53,-0.176,1.199,-0.043
44.54,-0.055,0.886,0.072
44.55,-0.247,0.858,0.167
44.56,-0.361,1.041,-0.08
44.57,-0.172,0.912,-0.139
44.58,-0.218,1.183,-0.035
44.59,-0.111,0.693,0.194
44.6,-0.156,1.12,0.053
44.61,-0.277,0.887,-0.132
44.62,-0.259,1.024,-0.17
44.63,-0.148,1.01,0.098
44.64,0.029,0.877,0.139
44.65,-0.316,1.075,0.032
44.66,-0.289,0.797,-0.14
44.67,-0.256,1.252,-0.036
44.68,-0.13,0.869,0.022
44.69,-0.15,0.928,0.17
44.7,-0.254,0.921,-0.054
44.71,-0.199,1.092,-0.18
44.72,-0.313,1.019,-0.079
44.73,-0.111,0.775,0.153
44.74,-0.168,1.068,0.122
44.75,-0.368,0.841,-0.086
44.76,-0.265,1.134,-0.088
44.77,-0.141,0.943,-0.013
44.78,-0.092,0.985,0.205
44.79,-0.181,0.937,0.052
44.8,-0.382,0.903,-0.118
44.81,-0.159,1.125,-0.108
44.82,-0.1,0.917,0.058
44.83,-0.118,1.021,0.17
44.84,-0.252,0.766,-0.002
44.85,-0.335,1.123,-0.149
44.86,-0.143,0.985,-0.059
44.87,-0.124,0.97,0.072
44.88,-0.198,0.872,0.136
44.89,-0.334,0.899,-0.023
44.9,-0.25,1.228,-0.168
44.91,-0.206,0.813,-0.049
44.92,-0.133,1.053,0.159
44.93,-0.099,0.808,0.107
44.94,-0.388,1.052,-0.113
44.95,-0.198,0.91,-0.175
44.96,-0.201,0.986,0.014
44.97,-0.22,1.037,0.182
44.98,-0.22,0.792,0.037
44.99,-0.33,1.118,-0.167
45.0,-0.189,0.856,-0.041
45.01,-0.075,1.208,0.075
45.02,-0.489,0.803,0.326
45.03,-0.26,0.904,-0.004
45.04,-0.264,0.985,-0.174
45.05,-0.134,1.052,-0.066
45.06,-0.17,0.978,0.093
45.07,-0.141,0.733,0.122
45.08,-0.354,1.196,-0.087
45.09,-0.161,0.851,-0.179
45.1,-0.221,1.149,-0.008
45.11,-0.064,0.781,0.194
45.12,-0.115,1.005,0.071
45.13,-0.373,1.013,-0.158
45.14,-0.189,0.905,-0.122
45.15,-0.277,1.186,0.122
45.16,0.02,0.733,0.141
45.17,-0.331,1.113,0.01
45.18,-0.283,0.798,-0.121
45.19,-0.111,1.154,-0.112
45.2,-0.198,0.909,0.111
45.21,-0.101,0.853,0.135
45.22,-0.371,1.1,-0.082
45.23,-0.207,0.823,-0.137
45.24,-0.199,1.155,-0.029
45.25,-0.041,0.754,0.096
45.26,-0.136,1.068,0.098
45.27,-0.311,0.866,-0.124
45.28,-0.234,0.992,-0.106
45.29,-0.232,1.104,0.103
45.3,-0.006,0.836,0.141
45.31,-0.296,1.003,0.04
45.32,-0.323,0.807,-0.111
45.33,-0.175,1.288,-0.082
45.34,-0.056,0.859,0.032
45.35,-0.143,0.939,0.183
45.36,-0.273,0.931,-0.046
45.37,-0.235,1.047,-0.144
45.38,-0.183,1.083,-0.086
45.39,0.011,0.74,-0.0
45.4,-0.143,1.058,0.128
45.41,-0.298,0.853,-0.103
45.42,-0.344,1.109,-0.095
45.43,-0.159,0.888,-0.029
45.44,-0.032,1.036,0.171
45.45,-0.264,0.91,0.068
45.46,-0.365,0.863,-0.115
45.47,-0.259,1.2,-0.074
45.48,-0.073,0.936,0.001
45.49,-0.116,1.0,0.161
45.5,-0.203,0.774,-0.007
45.51,-0.362,1.132,-0.116
45.52,-0.153,0.973,-0.114
45.53,-0.148,0.943,0.12
45.54,-0.208,0.936,0.152
45.55,-0.298,0.87,-0.052
45.56,-0.325,1.153,-0.136
45.57,-0.142,0.8,-0.064
45.58,-0.147,1.14,0.19
45.59,-0.141,0.847,0.096
45.6,-0.295,1.003,-0.131
45.61,-0.216,0.988,-0.096
45.62,-0.201,1.042,0.035
45.63,-0.086,1.027,0.125
45.64,-0.226,0.736,0.034
45.65,-0.364,1.134,-0.139
45.66,-0.153,0.978,-0.053
45.67,-0.111,1.154,0.027
45.68,-0.108,0.719,0.185
45.69,-0.29,0.935,-0.001
45.7,-0.252,1.144,-0.125
45.71,-0.232,0.874,-0.102
45.72,-0.136,1.046,0.109
45.73,-0.104,0.714,0.125
45.74,-0.367,1.177,-0.076
45.75,-0.337,0.843,-0.152
45.76,-0.178,1.01,-0.004
45.77,-0.106,0.998,0.183
45.78,-0.145,0.839,0.079
45.79,-0.384,1.067,-0.131
45.8,-0.223,0.77,-0.098
45.81,-0.162,1.32,0.079
45.82,-0.024,0.826,0.098
45.83,-0.259,0.939,0.022
45.84,-0.33,0.916,-0.114
45.85,-0.116,1.099,-0.066
45.86,-0.22,0.878,0.064
45.87,-0.088,0.764,0.17
45.88,-0.301,1.151,-0.03
45.89,-0.24,0.893,-0.195
45.9,-0.244,1.084,-0.047
45.91,-0.113,0.807,0.146
45.92,-0.137,1.07,0.137
45.93,-0.352,0.883,-0.111
45.94,-0.26,0.926,-0.115
45.95,-0.185,1.117,0.027
45.96,-0.039,0.885,0.168
45.97,-0.216,1.044,0.049
45.98,-0.298,0.767,-0.133
45.99,-0.288,1.222,-0.051
46.0,-0.06,0.931,0.015
46.01,-0.097,0.929,0.153
46.02,-0.257,0.878,-0.018
46.03,-0.302,1.002,-0.082
46.04,-0.204,1.113,-0.045
46.05,-0.123,0.747,0.047
46.06,-0.19,1.032,0.149
46.07,-0.288,0.87,-0.036
46.08,-0.33,1.133,-0.138
46.09,-0.17,0.835,-0.073
46.1,-0.16,1.0,0.168
46.11,-0.142,0.977,0.111
46.12,-0.345,0.878,-0.094
46.13,-0.288,1.054,-0.115
46.14,-0.174,0.956,0.057
46.15,0.001,1.129,0.098
46.16,-0.206,0.757,0.042
46.17,-0.361,1.03,-0.135
46.18,-0.227,1.065,-0.039
46.19,-0.067,1.03,-0.012
46.2,-0.131,0.884,0.164
46.21,-0.274,0.796,-0.03
46.22,-0.353,1.251,-0.125
46.23,-0.156,0.876,-0.108
46.24,-0.117,1.05,0.092
46.25,-0.158,0.73,0.144
46.26,-0.3,1.052,-0.025
46.27,-0.266,1.044,-0.176
46.28,-0.181,0.886,-0.023
46.29,-0.132,1.045,0.126
46.3,-0.12,0.79,0.133
46.31,-0.354,1.169,-0.132
46.32,-0.302,0.808,-0.114
46.33,-0.237,1.119,0.001
46.34,-0.048,0.922,0.174
46.35,-0.169,0.87,0.021
46.36,-0.338,1.036,-0.107
46.37,-0.234,0.882,-0.066
46.38,-0.091,1.238,0.032
46.39,-0.009,0.687,0.142
46.4,-0.25,1.056,-0.009
46.41,-0.378,0.911,-0.106
46.42,-0.148,1.083,-0.107
46.43,-0.132,0.995,0.085
46.44,-0.11,0.783,0.137
46.45,-0.322,1.145,-0.029
46.46,-0.258,0.847,-0.158
46.47,-0.234,1.135,-0.028
46.48,-0.11,0.825,0.109
46.49,-0.228,1.031,0.139
46.5,-0.288,0.944,-0.1
46.51,-0.29,0.902,-0.115
46.52,-0.224,1.077,-0.003
46.53,-0.039,0.844,0.174
46.54,-0.208,1.104,0.037
46.55,-0.334,0.757,-0.154
46.56,-0.253,1.162,-0.068
46.57,-0.085,1.026,0.057
46.58,-0.086,0.917,0.119
46.59,-0.257,0.952,0.052
46.6,-0.325,0.903,-0.148
46.61,-0.223,1.204,-0.053
46.62,-0.147,0.825,0.057
46.63,-0.106,1.011,0.122
46.64,-0.313,0.897,-0.007
46.65,-0.272,1.134,-0.181
46.66,-0.187,0.906,-0.083
46.67,-0.112,0.89,0.128
46.68,-0.138,0.928,0.116
46.69,-0.308,0.94,-0.127
46.7,-0.305,1.023,-0.092
46.71,-0.154,0.913,0.038
46.72,-0.081,1.115,0.104
46.73,-0.13,0.763,0.03
46.74,-0.342,1.103,-0.103
46.75,-0.237,0.946,-0.075
46.76,-0.071,1.109,0.011
46.77,-0.09,0.875,0.149
46.78,-0.244,0.807,-0.004
46.79,-0.331,1.14,-0.134
46.8,-0.155,0.927,-0.063
46.81,-0.154,1.11,0.086
46.82,-0.188,0.694,0.21
46.83,-0.303,1.082,-0.022
46.84,-0.264,0.993,-0.194
46.85,-0.233,0.894,-0.072
46.86,-0.075,1.025,0.139
46.87,-0.134,0.789,0.122
46.88,-0.343,1.155,-0.111
46.89,-0.293,0.795,-0.137
46.9,-0.202,1.139,-0.012
46.91,-0.097,0.895,0.177
46.92,-0.171,0.949,0.089
46.93,-0.357,0.972,-0.151
46.94,-0.235,0.831,-0.082
46.95,-0.095,1.229,0.028
46.96,-0.007,0.822,0.122
46.97,-0.221,1.051,-0.033
46.98,-0.37,0.799,-0.09
46.99,-0.091,1.207,-0.089
47.0,-0.155,0.986,0.036
47.01,-0.137,0.747,0.174
47.02,-0.278,1.067,-0.039
47.03,-0.253,0.913,-0.111
47.04,-0.226,1.17,-0.08
47.05,-0.093,0.738,0.106
47.06,-0.128,1.04,0.166
47.07,-0.312,0.987,-0.086
47.08,-0.34,0.934,-0.15
47.09,-0.243,0.99,-0.002
47.1,-0.093,0.91,0.179
47.11,-0.172,1.061,0.057
47.12,-0.317,0.777,-0.109
47.13,-0.245,1.148,-0.09
47.14,-0.114,0.95,0.049
47.15,-0.014,1.003,0.122
47.16,-0.231,0.898,0.027
47.17,-0.36,0.91,-0.13
47.18,-0.196,1.182,-0.046
47.19,-0.085,0.885,0.023
47.2,-0.165,1.028,0.141
47.21,-0.271,0.804,-0.003
47.22,-0.333,1.211,-0.128
47.23,-0.192,0.895,-0.078
47.24,-0.077,0.921,0.118
47.25,-0.13,0.992,0.131
47.26,-0.291,0.921,-0.058
47.27,-0.363,1.127,-0.136
47.28,-0.177,0.834,-0.063
47.29,-0.14,1.127,0.181
47.3,-0.155,0.812,0.087
47.31,-0.325,1.04,-0.108
47.32,-0.248,0.897,-0.1
47.33,-0.143,1.021,0.034
47.34,-0.08,1.027,0.156
47.35,-0.181,0.738,0.002
47.36,-0.353,1.122,-0.098
47.37,-0.224,0.878,-0.071
47.38,-0.109,1.177,0.017
47.39,-0.121,0.745,0.186
47.4,-0.243,0.919,0.012
47.41,-0.308,1.053,-0.126
47.42,-0.165,0.932,-0.093
47.43,-0.279,1.105,0.163
47.44,-0.104,0.675,0.152
47.45,-0.377,1.126,-0.054
47.46,-0.288,0.872,-0.112
47.47,-0.175,1.058,-0.074
47.48,-0.107,0.869,0.106
47.49,-0.207,0.86,0.152
47.5,-0.279,0.968,-0.12
47.51,-0.266,0.878,-0.098
47.52,-0.153,1.117,-0.004
47.53,-0.014,0.831,0.146
47.54,-0.224,1.102,0.015
47.55,-0.35,0.798,-0.158
47.56,-0.267,1.135,-0.087
47.57,-0.083,1.018,0.038
47.58,-0.1,0.917,0.149
47.59,-0.244,0.958,0.015
47.6,-0.33,0.906,-0.097
47.61,-0.21,1.172,-0.07
47.62,-0.121,0.845,0.099
47.63,-0.132,1.057,0.109
47.64,-0.321,0.844,-0.019
47.65,-0.258,1.088,-0.165
47.66,-0.191,0.943,-0.068
47.67,-0.137,0.858,0.123
47.68,-0.152,1.048,0.152
47.69,-0.327,0.856,-0.101
47.7,-0.295,1.111,-0.125
47.71,-0.199,0.856,-0.022
47.72,-0.128,1.07,0.161
47.73,-0.145,0.822,0.085
47.74,-0.283,0.99,-0.135
47.75,-0.222,1.104,-0.075
47.76,-0.139,0.955,0.027
47.77,-0.077,0.997,0.145
47.78,-0.183,0.764,0.018
47.79,-0.38,1.189,-0.128
47.8,-0.219,0.926,-0.086
47.81,-0.087,1.092,0.047
47.82,-0.14,0.855,0.177
47.83,-0.328,0.894,-0.024
47.84,-0.302,1.159,-0.155
47.85,-0.205,0.876,-0.071
47.86,-0.143,1.088,0.117
47.87,-0.154,0.763,0.142
47.88,-0.323,1.137,-0.089
47.89,-0.317,0.875,-0.164
47.9,-0.16,0.996,-0.008
47.91,-0.183,1.035,0.123
47.92,-0.215,0.776,0.092
47.93,-0.317,1.15,-0.091
47.94,-0.211,0.798,-0.123
47.95,-0.28,1.189,0.025
47.96,-0.009,0.81,0.143
47.97,-0.194,0.979,0.028
47.98,-0.347,0.914,-0.096
47.99,-0.187,0.949,-0.091
48.0,-0.147,1.199,0.015
48.01,-0.069,0.714,0.147
48.02,-0.291,1.079,0.014
48.03,-0.313,0.813,-0.088
48.04,-0.164,1.163,-0.075
48.05,-0.129,0.895,0.058
48.06,-0.098,0.849,0.134
48.07,-0.297,1.051,-0.017
48.08,-0.279,0.882,-0.191
48.09,-0.26,1.107,-0.0
48.1,-0.037,0.808,0.091
48.11,-0.201,1.087,0.121
48.12,-0.288,0.885,-0.083
48.13,-0.342,1.025,-0.09
48.14,-0.144,0.975,-0.062
48.15,-0.232,0.959,0.319
48.16,-0.201,1.059,0.077
48.17,-0.359,0.809,-0.11
48.18,-0.262,1.112,-0.118
48.19,-0.275,0.938,0.046
48.2,-0.065,1.077,0.089
