t,ax,ay,az
0.0,-0.178,1.196,-0.099
0.01,-0.03,0.932,-0.01
0.02,-0.056,0.96,0.128
0.03,-0.283,0.928,0.003
0.04,-0.306,1.015,-0.17
0.05,-0.221,1.011,-0.042
0.06,-0.072,0.846,0.135
0.07,-0.196,1.103,0.133
0.08,-0.344,0.858,-0.101
0.09,-0.304,1.096,-0.127
0.1,-0.198,0.881,-0.012
0.11,-0.06,1.012,0.148
0.12,-0.172,0.958,0.086
0.13,-0.335,0.884,-0.169
0.14,-0.262,1.12,-0.107
0.15,-0.1,0.93,0.047
0.16,-0.061,1.022,0.119
0.17,-0.25,0.795,0.019
0.18,-0.366,1.127,-0.136
0.19,-0.136,1.0,-0.091
0.2,-0.144,0.969,0.098
0.21,-0.107,0.849,0.132
0.22,-0.282,0.913,-0.005
0.23,-0.303,1.195,-0.168
0.24,-0.198,0.789,-0.065
0.25,-0.161,1.082,0.128
0.26,-0.152,0.816,0.131
0.27,-0.338,1.06,-0.115
0.28,-0.283,0.896,-0.126
0.29,-0.178,0.965,0.002
0.3,-0.067,1.077,0.194
0.31,-0.161,0.757,0.042
0.32,-0.402,1.095,-0.118
0.33,-0.19,0.846,-0.056
0.34,-0.258,1.293,0.136
0.35,-0.1,0.732,0.126
0.36,-0.281,0.951,0.018
0.37,-0.284,1.069,-0.135
0.38,-0.165,0.957,-0.112
0.39,-0.177,1.071,0.12
0.4,-0.069,0.667,0.126
0.41,-0.369,1.208,-0.046
0.42,-0.246,0.833,-0.171
0.43,-0.268,1.044,-0.031
0.44,-0.108,0.883,0.185
0.45,-0.156,0.897,0.071
0.46,-0.353,1.075,-0.098
0.47,-0.23,0.785,-0.122
0.48,-0.25,1.227,0.062
0.49,-0.01,0.763,0.136
0.5,-0.224,1.05,0.033
0.51,-0.288,0.856,-0.148
0.52,-0.252,1.218,-0.037
0.53,-0.11,0.877,0.054
0.54,-0.067,0.887,0.143
0.55,-0.336,0.998,-0.037
0.56,-0.26,0.912,-0.125
0.57,-0.242,1.123,-0.038
0.58,-0.09,0.753,0.122
0.59,-0.156,1.082,0.114
0.6,-0.339,0.868,-0.093
0.61,-0.285,1.037,-0.156
0.62,-0.237,0.995,0.073
0.63,-0.042,0.972,0.144
0.64,-0.234,0.978,0.079
0.65,-0.178,0.812,-0.045
0.66,-0.197,1.154,0.2
0.67,-0.071,0.74,0.055
0.68,-0.392,1.097,-0.092
0.69,-0.187,0.843,-0.151
0.7,-0.216,1.186,0.034
0.71,-0.087,0.886,0.111
0.72,-0.261,0.797,0.057
0.73,-0.3,1.082,-0.148
0.74,-0.165,0.953,-0.041
0.75,-0.135,1.209,-0.002
0.76,-0.121,0.623,0.197
0.77,-0.267,1.041,-0.012
0.78,-0.273,0.999,-0.122
0.79,-0.197,1.012,-0.105
0.8,-0.154,0.975,0.114
0.81,-0.079,0.745,0.098
0.82,-0.392,1.171,-0.08
0.83,-0.262,0.8,-0.118
0.84,-0.23,1.128,-0.047
0.85,-0.104,0.854,0.185
0.86,-0.139,1.008,0.066
0.87,-0.375,0.953,-0.083
0.88,-0.214,0.872,-0.146
0.89,-0.204,1.185,0.037
0.9,-0.062,0.815,0.132
0.91,-0.237,1.048,0.015
0.92,-0.305,0.786,-0.116
0.93,-0.201,1.198,-0.087
0.94,-0.127,0.933,0.063
0.95,-0.085,0.844,0.122
0.96,-0.268,0.977,-0.024
0.97,-0.353,0.937,-0.112
0.98,-0.177,1.153,-0.089
0.99,-0.129,0.781,0.127
1.0,-0.146,1.047,0.122
1.01,-0.322,0.889,-0.103
1.02,-0.28,1.052,-0.129
1.03,-0.19,0.952,-0.036
1.04,-0.087,0.933,0.165
1.05,-0.181,1.029,0.076
1.06,-0.326,0.835,-0.148
1.07,-0.231,1.175,-0.121
1.08,-0.165,0.924,0.062
1.09,-0.051,1.066,0.122
1.1,-0.199,0.807,0.03
1.11,-0.372,1.027,-0.133
1.12,-0.271,1.06,-0.033
1.13,-0.045,0.933,0.035
1.14,-0.116,0.947,0.147
1.15,-0.286,0.829,-0.011
1.16,-0.298,1.235,-0.16
1.17,-0.21,0.852,-0.088
1.18,-0.084,1.016,0.151
1.19,-0.146,0.849,0.108
1.2,-0.364,1.008,-0.064
1.21,-0.327,1.061,-0.152
1.22,-0.15,0.856,0.01
1.23,-0.145,1.114,0.141
1.24,-0.12,0.737,0.067
1.25,-0.398,1.162,-0.139
1.26,-0.222,0.836,-0.096
1.27,-0.121,1.179,0.032
1.28,-0.055,0.761,0.126
1.29,-0.323,0.945,0.038
1.3,-0.292,0.944,-0.133
1.31,-0.126,1.029,-0.083
1.32,-0.155,1.076,0.058
1.33,-0.229,0.712,0.269
1.34,-0.343,1.146,-0.07
1.35,-0.243,0.861,-0.165
1.36,-0.178,1.104,-0.036
1.37,-0.154,0.851,0.146
1.38,-0.16,0.891,0.114
1.39,-0.309,1.073,-0.114
1.4,-0.266,0.808,-0.15
1.41,-0.219,1.164,0.037
1.42,-0.005,0.809,0.137
1.43,-0.264,1.078,0.058
1.44,-0.296,0.837,-0.17
1.45,-0.196,1.131,-0.066
1.46,-0.081,1.029,-0.009
1.47,-0.077,0.785,0.159
1.48,-0.274,1.036,0.006
1.49,-0.242,0.869,-0.166
1.5,-0.252,1.177,-0.041
1.51,-0.093,0.753,0.069
1.52,-0.151,1.042,0.18
1.53,-0.279,0.908,-0.127
1.54,-0.364,1.041,-0.071
1.55,-0.131,1.003,-0.085
1.56,-0.129,0.865,0.201
1.57,-0.168,1.085,0.122
1.58,-0.263,0.833,-0.135
1.59,-0.248,1.125,-0.1
1.6,-0.205,0.943,0.062
1.61,-0.08,1.059,0.133
1.62,-0.19,0.853,0.008
1.63,-0.404,0.935,-0.119
1.64,-0.126,1.159,-0.067
1.65,-0.138,0.912,0.033
1.66,-0.165,0.936,0.165
1.67,-0.202,0.789,-0.017
1.68,-0.364,1.235,-0.137
1.69,-0.112,0.912,-0.076
1.7,-0.17,0.97,0.093
1.71,-0.154,0.829,0.145
1.72,-0.313,0.959,-0.067
1.73,-0.258,1.147,-0.17
1.74,-0.197,0.796,-0.049
1.75,-0.116,1.091,0.168
1.76,-0.2,0.786,0.119
1.77,-0.314,1.094,-0.152
1.78,-0.246,0.883,-0.121
1.79,-0.156,1.084,0.046
1.8,0.038,0.951,0.048
1.81,-0.22,0.797,0.009
1.82,-0.367,1.14,-0.13
1.83,-0.156,0.937,-0.078
1.84,-0.314,1.202,0.138
1.85,-0.094,0.654,0.13
1.86,-0.301,1.022,-0.033
1.87,-0.258,1.017,-0.144
1.88,-0.146,0.917,-0.111
1.89,-0.198,0.993,0.131
1.9,-0.116,0.759,0.154
1.91,-0.358,1.195,-0.088
1.92,-0.255,0.797,-0.126
1.93,-0.221,1.19,0.012
1.94,-0.037,0.849,0.151
1.95,-0.209,0.918,0.059
1.96,-0.31,1.037,-0.127
1.97,-0.216,0.923,-0.115
1.98,-0.103,1.193,0.042
1.99,-0.115,0.702,0.197
2.0,-0.292,1.09,-0.008
2.01,-0.3,0.853,-0.129
2.02,-0.222,1.133,-0.07
2.03,-0.111,0.931,0.083
2.04,-0.097,0.833,0.137
2.05,-0.387,1.088,-0.027
2.06,-0.207,0.807,-0.193
2.07,-0.195,1.143,-0.028
2.08,-0.136,0.79,0.147
2.09,-0.139,1.106,0.07
2.1,-0.325,0.815,-0.147
2.11,-0.221,1.098,-0.119
2.12,-0.134,0.986,0.021
2.13,-0.096,0.907,0.182
2.14,-0.215,0.956,0.045
2.15,-0.354,0.915,-0.147
2.16,-0.19,1.195,-0.054
2.17,-0.066,0.882,0.052
2.18,-0.171,0.973,0.161
2.19,-0.292,0.839,-0.021
2.2,-0.26,1.178,-0.161
2.21,-0.183,0.96,-0.062
2.22,-0.128,0.891,0.131
2.23,-0.123,0.969,0.093
2.24,-0.322,0.891,-0.091
2.25,-0.22,1.167,-0.146
2.26,-0.171,0.865,0.003
2.27,-0.149,1.071,0.162
2.28,-0.181,0.813,0.066
2.29,-0.415,1.018,-0.13
2.3,-0.166,1.013,-0.12
2.31,-0.067,1.033,0.077
2.32,-0.085,1.005,0.092
2.33,-0.279,0.767,-0.014
2.34,-0.333,1.192,-0.153
2.35,-0.115,0.873,-0.087
2.36,-0.181,1.095,0.092
2.37,-0.122,0.778,0.163
2.38,-0.337,1.016,-0.09
2.39,-0.261,1.013,-0.13
2.4,-0.21,0.912,-0.032
2.41,-0.207,1.086,0.227
2.42,-0.104,0.753,0.027
2.43,-0.406,1.128,-0.132
2.44,-0.197,0.852,-0.104
2.45,-0.417,1.222,0.209
2.46,-0.061,0.782,0.115
2.47,-0.256,0.87,0.011
2.48,-0.319,1.139,-0.118
2.49,-0.124,0.939,-0.106
2.5,-0.134,1.127,0.102
2.51,-0.074,0.691,0.094
2.52,-0.357,1.13,-0.094
2.53,-0.284,0.867,-0.14
2.54,-0.2,1.018,-0.044
2.55,-0.112,0.979,0.195
2.56,-0.16,0.825,0.099
2.57,-0.332,1.12,-0.122
2.58,-0.242,0.817,-0.109
2.59,-0.142,1.265,0.032
2.6,-0.002,0.773,0.11
2.61,-0.271,1.014,0.028
2.62,-0.314,0.904,-0.153
2.63,-0.126,1.064,-0.086
2.64,-0.121,1.058,0.078
2.65,-0.101,0.682,0.123
2.66,-0.289,1.141,-0.03
2.67,-0.215,0.869,-0.2
2.68,-0.21,1.174,-0.039
2.69,-0.018,0.757,0.057
2.7,-0.156,0.952,0.14
2.71,-0.31,1.037,-0.094
2.72,-0.245,0.901,-0.156
2.73,-0.194,1.058,-0.009
2.74,-0.237,0.824,0.281
2.75,-0.163,1.132,0.036
2.76,-0.337,0.817,-0.166
2.77,-0.201,1.118,-0.121
2.78,-0.036,0.991,0.055
2.79,-0.098,0.822,0.186
2.8,-0.272,0.988,0.012
2.81,-0.273,0.918,-0.136
2.82,-0.224,1.173,-0.044
2.83,-0.114,0.777,0.115
2.84,-0.165,1.048,0.17
2.85,-0.343,0.893,-0.095
2.86,-0.293,1.04,-0.146
2.87,-0.134,1.066,-0.052
2.88,-0.105,0.892,0.191
2.89,-0.166,0.981,0.052
2.9,-0.319,0.826,-0.125
2.91,-0.285,1.256,-0.026
2.92,-0.182,0.833,0.061
2.93,-0.126,1.014,0.157
2.94,-0.295,0.833,-0.014
2.95,-0.305,1.172,-0.202
2.96,-0.233,0.876,-0.063
2.97,-0.074,0.985,0.105
2.98,-0.18,0.99,0.198
2.99,-0.28,0.832,-0.125
3.0,-0.286,1.081,-0.082
3.01,-0.202,0.929,0.001
3.02,-0.112,1.13,0.122
3.03,-0.163,0.762,0.055
3.04,-0.343,1.064,-0.137
3.05,-0.208,1.017,-0.055
3.06,-0.151,1.088,0.038
3.07,-0.088,0.889,0.138
3.08,-0.21,0.766,0.004
3.09,-0.382,1.173,-0.106
3.1,-0.154,0.925,-0.071
3.11,-0.204,1.092,0.066
3.12,-0.082,0.674,0.15
3.13,-0.315,1.064,-0.052
3.14,-0.309,1.019,-0.164
3.15,-0.157,0.877,-0.035
3.16,-0.137,1.109,0.179
3.17,-0.158,0.722,0.08
3.18,-0.363,1.167,-0.095
3.19,-0.196,0.836,-0.111
3.2,-0.181,1.187,-0.016
3.21,-0.087,0.857,0.179
3.22,-0.182,0.9,0.015
3.23,-0.353,1.044,-0.155
3.24,-0.206,0.921,-0.043
3.25,-0.107,1.241,0.029
3.26,-0.09,0.632,0.14
3.27,-0.301,1.059,-0.033
3.28,-0.332,0.933,-0.095
3.29,-0.173,1.016,-0.099
3.3,-0.184,0.945,0.11
3.31,-0.098,0.826,0.159
3.32,-0.356,1.155,-0.093
3.33,-0.2,0.758,-0.143
3.34,-0.271,1.217,0.014
3.35,-0.046,0.813,0.172
3.36,-0.137,1.044,0.037
3.37,-0.304,0.848,-0.165
3.38,-0.215,1.031,-0.062
3.39,-0.11,1.112,0.007
3.4,-0.088,0.712,0.193
3.41,-0.274,1.083,-0.001
3.42,-0.328,0.852,-0.085
3.43,-0.201,1.213,-0.109
3.44,-0.143,0.808,0.099
3.45,-0.125,0.947,0.142
3.46,-0.263,1.01,-0.055
3.47,-0.267,0.939,-0.147
3.48,-0.261,1.055,-0.042
3.49,-0.115,0.783,0.136
3.5,-0.171,1.121,0.101
3.51,-0.3,0.817,-0.106
3.52,-0.301,1.133,-0.122
3.53,-0.102,0.977,0.028
3.54,-0.085,0.919,0.14
3.55,-0.228,0.923,0.053
3.56,-0.313,0.912,-0.129
3.57,-0.209,1.24,-0.082
3.58,-0.164,0.827,0.077
3.59,-0.076,1.009,0.144
3.6,-0.276,0.832,-0.014
3.61,-0.312,1.166,-0.163
3.62,-0.203,0.911,-0.062
3.63,-0.141,0.949,0.108
3.64,-0.137,1.02,0.149
3.65,-0.342,0.857,-0.088
3.66,-0.269,1.115,-0.086
3.67,-0.09,0.867,-0.03
3.68,-0.139,1.11,0.173
3.69,-0.155,0.782,0.086
3.7,-0.361,1.035,-0.13
3.71,-0.174,0.991,-0.117
3.72,-0.129,1.045,0.03
3.73,-0.221,1.037,0.15
3.74,-0.283,0.868,0.01
3.75,-0.288,1.132,-0.152
3.76,-0.089,0.918,-0.07
3.77,-0.146,1.153,0.09
3.78,-0.133,0.66,0.17
3.79,-0.329,1.104,-0.041
3.8,-0.251,0.919,-0.159
3.81,-0.181,0.991,-0.02
3.82,-0.142,1.019,0.152
3.83,-0.149,0.797,0.114
3.84,-0.363,1.162,-0.16
3.85,-0.185,0.824,-0.139
3.86,-0.21,1.232,0.038
3.87,-0.06,0.769,0.177
3.88,-0.239,0.973,0.032
3.89,-0.333,0.938,-0.155
3.9,-0.167,1.008,-0.06
3.91,-0.083,1.109,0.027
3.92,-0.086,0.715,0.15
3.93,-0.29,1.14,-0.028
3.94,-0.258,0.825,-0.153
3.95,-0.283,1.137,-0.066
3.96,-0.084,0.841,0.155
3.97,-0.148,0.938,0.115
3.98,-0.38,1.053,-0.067
3.99,-0.266,0.833,-0.151
4.0,-0.235,1.122,0.014
4.01,-0.051,0.781,0.189
4.02,-0.224,1.094,0.054
4.03,-0.34,0.824,-0.131
4.04,-0.203,1.067,-0.103
4.05,-0.141,1.024,0.045
4.06,-0.031,0.853,0.138
4.07,-0.253,1.014,0.019
4.08,-0.325,0.859,-0.153
4.09,-0.145,1.228,-0.06
4.1,-0.187,0.769,0.083
4.11,-0.102,0.938,0.163
4.12,-0.321,0.912,-0.079
4.13,-0.278,1.068,-0.162
4.14,-0.168,0.964,-0.04
4.15,-0.088,0.851,0.137
4.16,-0.157,1.021,0.102
4.17,-0.302,0.871,-0.129
4.18,-0.254,1.15,-0.138
4.19,-0.266,0.912,0.139
4.2,-0.052,1.022,0.16
4.21,-0.23,0.736,0.036
4.22,-0.346,1.086,-0.164
4.23,-0.191,1.016,-0.014
4.24,-0.096,1.008,0.036
4.25,-0.117,0.9,0.154
4.26,-0.327,0.833,-0.045
4.27,-0.289,1.193,-0.13
4.28,-0.135,0.848,-0.064
4.29,-0.133,1.09,0.128
4.3,-0.174,0.813,0.114
4.31,-0.352,1.061,-0.105
4.32,-0.233,0.925,-0.14
4.33,-0.169,1.003,0.019
4.34,-0.107,1.077,0.148
4.35,-0.148,0.757,0.03
4.36,-0.384,1.112,-0.132
4.37,-0.222,0.897,-0.04
4.38,-0.115,1.22,0.021
4.39,-0.125,0.753,0.175
4.4,-0.314,0.94,0.006
4.41,-0.29,1.1,-0.134
4.42,-0.116,0.933,-0.099
4.43,-0.176,1.073,0.106
4.44,-0.128,0.686,0.165
4.45,-0.361,1.186,-0.098
4.46,-0.223,0.812,-0.136
4.47,-0.227,1.07,-0.04
4.48,-0.121,0.927,0.208
4.49,-0.119,0.89,0.06
4.5,-0.391,1.076,-0.1
4.51,-0.185,0.817,-0.118
4.52,-0.161,1.3,0.015
4.53,-0.085,0.729,0.144
4.54,-0.266,1.024,0.03
4.55,-0.335,0.884,-0.121
4.56,-0.186,1.198,-0.092
4.57,-0.125,0.883,0.099
4.58,-0.158,0.899,0.157
4.59,-0.374,1.031,-0.034
4.6,-0.227,0.898,-0.157
4.61,-0.213,1.113,-0.074
4.62,-0.325,0.771,0.362
4.63,-0.157,1.104,0.108
4.64,-0.329,0.852,-0.128
4.65,-0.25,1.062,-0.104
4.66,-0.161,0.997,-0.011
4.67,-0.105,0.884,0.191
4.68,-0.186,1.031,0.045
4.69,-0.367,0.844,-0.159
4.7,-0.215,1.213,-0.076
4.71,-0.073,0.864,0.031
4.72,-0.077,0.958,0.147
4.73,-0.232,0.843,-0.038
4.74,-0.372,1.045,-0.155
4.75,-0.107,1.051,-0.069
4.76,-0.249,0.874,0.117
4.77,-0.173,0.964,0.1
4.78,-0.34,0.877,-0.046
4.79,-0.189,1.197,-0.175
4.8,-0.205,0.846,-0.005
4.81,-0.147,0.991,0.205
4.82,-0.125,0.876,0.094
4.83,-0.376,0.995,-0.127
4.84,-0.234,1.045,-0.116
4.85,-0.122,0.991,0.024
4.86,-0.08,1.031,0.159
4.87,-0.215,0.745,-0.028
4.88,-0.404,1.198,-0.116
4.89,-0.173,0.903,-0.132
4.9,-0.144,1.063,0.13
4.91,-0.09,0.833,0.131
4.92,-0.313,0.946,-0.042
4.93,-0.312,1.096,-0.149
4.94,-0.177,0.836,-0.069
4.95,-0.136,1.143,0.149
4.96,-0.158,0.766,0.106
4.97,-0.393,1.103,-0.086
4.98,-0.188,0.878,-0.124
4.99,-0.243,1.072,0.003
5.0,-0.089,0.915,0.174
5.01,-0.159,0.827,0.016
5.02,-0.412,1.111,-0.117
5.03,-0.193,0.855,-0.07
5.04,-0.121,1.253,0.033
5.05,-0.075,0.702,0.16
5.06,-0.313,1.03,-0.002
5.07,-0.289,1.003,-0.137
5.08,-0.163,1.028,-0.1
5.09,-0.048,1.003,0.032
5.1,-0.126,0.744,0.119
5.11,-0.367,1.15,-0.071
5.12,-0.213,0.826,-0.148
5.13,-0.213,1.134,-0.019
5.14,-0.048,0.819,0.132
5.15,-0.158,0.994,0.105
5.16,-0.342,0.995,-0.151
5.17,-0.224,0.835,-0.12
5.18,-0.112,1.201,0.044
5.19,-0.009,0.756,0.11
5.2,-0.298,1.059,0.037
5.21,-0.291,0.813,-0.145
5.22,-0.158,1.214,-0.071
5.23,-0.07,0.962,0.063
5.24,-0.124,0.819,0.148
5.25,-0.282,1.05,-0.02
5.26,-0.252,0.951,-0.17
5.27,-0.179,1.15,-0.084
5.28,-0.198,0.708,0.165
5.29,-0.124,1.051,0.108
5.3,-0.304,0.91,-0.12
5.31,-0.304,1.017,-0.139
5.32,-0.132,1.001,0.023
5.33,-0.078,0.926,0.2
5.34,-0.2,1.036,0.022
5.35,-0.36,0.788,-0.147
5.36,-0.156,1.204,-0.106
5.37,-0.112,0.953,0.08
5.38,-0.208,0.986,0.2
5.39,-0.273,0.785,-0.053
5.4,-0.248,1.185,-0.133
5.41,-0.139,0.945,-0.099
5.42,-0.341,0.922,0.359
5.43,-0.118,0.94,0.153
5.44,-0.319,0.938,-0.125
5.45,-0.277,1.145,-0.17
5.46,-0.174,0.856,0.006
5.47,-0.066,1.1,0.21
5.48,-0.169,0.785,0.031
5.49,-0.385,1.058,-0.128
5.5,-0.173,1.0,-0.08
5.51,-0.106,1.064,0.053
5.52,-0.175,0.922,0.164
5.53,-0.261,0.756,-0.02
5.54,-0.292,1.209,-0.143
5.55,-0.058,0.934,-0.065
5.56,-0.196,1.048,0.07
5.57,-0.118,0.71,0.147
5.58,-0.313,1.075,-0.061
5.59,-0.211,1.021,-0.195
5.6,-0.231,0.904,-0.002
5.61,-0.164,1.055,0.223
5.62,-0.11,0.767,0.035
5.63,-0.444,1.12,-0.165
5.64,-0.175,0.808,-0.083
5.65,-0.099,1.28,0.093
5.66,-0.083,0.844,0.075
5.67,-0.381,0.882,0.016
5.68,-0.269,1.056,-0.147
5.69,-0.113,0.975,-0.089
5.7,-0.201,1.07,0.113
5.71,-0.077,0.668,0.181
5.72,-0.343,1.154,-0.098
5.73,-0.279,0.844,-0.168
5.74,-0.215,1.098,-0.007
5.75,-0.113,0.991,0.218
5.76,-0.219,0.816,0.058
5.77,-0.365,1.065,-0.124
5.78,-0.136,0.862,-0.072
5.79,-0.151,1.279,0.046
5.8,-0.024,0.668,0.146
5.81,-0.288,1.056,0.021
5.82,-0.295,0.928,-0.126
5.83,-0.182,1.073,-0.081
5.84,-0.169,0.991,0.092
5.85,-0.106,0.717,0.114
5.86,-0.398,1.169,-0.047
5.87,-0.189,0.782,-0.196
5.88,-0.215,1.159,-0.03
5.89,-0.042,0.842,0.186
5.9,-0.159,1.011,0.063
5.91,-0.323,0.88,-0.129
5.92,-0.225,0.904,-0.08
5.93,-0.149,1.181,0.076
5.94,-0.068,0.743,0.154
5.95,-0.267,1.053,0.018
5.96,-0.272,0.879,-0.132
5.97,-0.231,1.217,-0.086
5.98,-0.142,0.837,0.064
5.99,-0.083,0.857,0.153
6.0,-0.34,1.04,-0.043
6.01,-0.25,0.883,-0.179
6.02,-0.214,1.059,-0.077
6.03,-0.101,0.782,0.163
6.04,-0.134,1.117,0.092
6.05,-0.359,0.821,-0.147
6.06,-0.275,1.034,-0.123
6.07,-0.257,1.075,0.032
6.08,-0.048,0.929,0.101
6.09,-0.24,0.939,0.03
6.1,-0.329,0.841,-0.116
6.11,-0.171,1.27,-0.093
6.12,-0.18,0.811,0.055
6.13,-0.064,0.955,0.138
6.14,-0.301,0.876,-0.022
6.15,-0.255,1.095,-0.176
6.16,-0.19,0.963,-0.045
6.17,-0.108,0.859,0.112
6.18,-0.157,1.057,0.128
6.19,-0.342,0.835,-0.092
6.2,-0.187,1.075,-0.132
6.21,-0.165,0.94,0.032
6.22,-0.089,0.989,0.128
6.23,-0.205,0.792,0.072
6.24,-0.339,1.118,-0.145
6.25,-0.216,0.978,-0.091
6.26,-0.09,0.998,0.07
6.27,-0.035,0.887,0.171
6.28,-0.307,0.875,-0.054
6.29,-0.414,1.151,-0.145
6.3,-0.12,0.806,-0.059
6.31,-0.097,1.117,0.117
6.32,-0.151,0.754,0.112
6.33,-0.356,1.089,-0.097
6.34,-0.254,0.895,-0.121
6.35,-0.163,0.99,0.019
6.36,-0.105,1.061,0.129
6.37,-0.246,0.746,0.064
6.38,-0.346,1.114,-0.159
6.39,-0.191,0.895,-0.053
6.4,-0.07,1.233,0.029
6.41,-0.139,0.719,0.194
6.42,-0.213,0.928,-0.027
6.43,-0.365,1.045,-0.128
6.44,-0.129,0.933,-0.079
6.45,-0.186,1.099,0.104
6.46,-0.089,0.694,0.167
6.47,-0.378,1.138,-0.131
6.48,-0.232,0.807,-0.094
6.49,-0.109,1.186,-0.028
6.5,-0.235,0.918,0.233
6.51,-0.169,0.872,0.068
6.52,-0.301,1.065,-0.128
6.53,-0.174,0.873,-0.122
6.54,-0.225,1.233,0.099
6.55,-0.029,0.711,0.167
6.56,-0.286,1.077,0.009
6.57,-0.35,0.867,-0.116
6.58,-0.156,1.098,-0.078
6.59,-0.181,0.975,0.097
6.6,-0.092,0.785,0.141
6.61,-0.348,1.108,-0.076
6.62,-0.27,0.801,-0.156
6.63,-0.293,1.192,0.023
6.64,-0.077,0.774,0.119
6.65,-0.177,1.033,0.111
6.66,-0.288,0.904,-0.126
6.67,-0.249,0.97,-0.073
6.68,-0.148,1.083,0.038
6.69,-0.032,0.816,0.1
6.7,-0.233,1.057,0.016
6.71,-0.376,0.811,-0.14
6.72,-0.141,1.203,-0.09
6.73,-0.081,0.849,0.066
6.74,-0.07,0.909,0.149
6.75,-0.309,0.977,-0.039
6.76,-0.252,0.995,-0.141
6.77,-0.185,1.085,-0.07
6.78,-0.176,0.749,0.136
6.79,-0.162,1.084,0.112
6.8,-0.299,0.856,-0.166
6.81,-0.257,1.08,-0.124
6.82,-0.148,0.919,0.002
6.83,-0.059,0.972,0.209
6.84,-0.239,0.962,0.068
6.85,-0.35,0.871,-0.167
6.86,-0.196,1.172,-0.08
6.87,-0.102,0.909,0.067
6.88,-0.179,0.988,0.108
6.89,-0.332,0.79,-0.007
6.9,-0.225,1.131,-0.18
6.91,-0.117,1.019,-0.064
6.92,-0.235,0.853,0.137
6.93,-0.125,0.911,0.131
6.94,-0.332,0.906,-0.106
6.95,-0.266,1.189,-0.162
6.96,-0.136,0.842,-0.01
6.97,-0.081,1.094,0.166
6.98,-0.223,0.785,0.045
6.99,-0.372,1.029,-0.147
7.0,-0.155,1.033,-0.057
7.01,-0.109,1.01,0.043
7.02,-0.17,0.936,0.174
7.03,-0.299,0.882,0.002
7.04,-0.268,1.16,-0.182
7.05,-0.185,0.813,-0.066
7.06,-0.091,1.089,0.05
7.07,-0.031,0.755,0.092
7.08,-0.404,1.14,-0.138
7.09,-0.208,0.862,-0.124
7.1,-0.215,1.149,0.107
7.11,-0.04,0.946,0.118
7.12,-0.217,0.773,0.044
7.13,-0.325,1.206,-0.176
7.14,-0.163,0.912,-0.057
7.15,-0.184,1.144,0.063
7.16,-0.067,0.704,0.155
7.17,-0.359,1.051,-0.041
7.18,-0.28,0.949,-0.177
7.19,-0.165,0.955,-0.04
7.2,-0.126,1.036,0.143
7.21,-0.136,0.743,0.115
7.22,-0.394,1.172,-0.112
7.23,-0.2,0.805,-0.141
7.24,-0.169,1.255,0.029
7.25,-0.094,0.829,0.147
7.26,-0.201,0.91,0.017
7.27,-0.381,0.996,-0.124
7.28,-0.114,0.97,-0.091
7.29,-0.006,1.149,-0.06
7.3,-0.095,0.655,0.153
7.31,-0.345,1.14,-0.042
7.32,-0.242,0.88,-0.138
7.33,-0.186,1.124,-0.063
7.34,-0.142,0.839,0.146
7.35,-0.158,0.869,0.109
7.36,-0.333,1.089,-0.115
7.37,-0.326,0.811,-0.076
7.38,-0.128,1.193,0.03
7.39,-0.242,0.8,0.23
7.4,-0.247,1.053,-0.005
7.41,-0.364,0.83,-0.162
7.42,-0.08,1.104,-0.079
7.43,-0.46,1.074,0.126
7.44,-0.094,0.735,0.125
7.45,-0.302,1.096,-0.042
7.46,-0.269,0.889,-0.176
7.47,-0.185,1.145,-0.05
7.48,-0.106,0.779,0.124
7.49,-0.092,1.034,0.13
7.5,-0.297,0.943,-0.143
7.51,-0.255,0.933,-0.102
7.52,-0.165,1.132,0.019
7.53,-0.084,0.845,0.167
7.54,-0.222,1.05,0.064
7.55,-0.311,0.808,-0.169
7.56,-0.173,1.244,-0.053
7.57,-0.052,0.859,-0.011
7.58,-0.101,0.912,0.167
7.59,-0.258,0.924,-0.032
7.6,-0.259,1.022,-0.154
7.61,-0.251,1.077,-0.043
7.62,-0.111,0.779,0.123
7.63,-0.127,1.054,0.127
7.64,-0.376,0.843,-0.095
7.65,-0.246,1.097,-0.13
7.66,-0.236,0.941,0.018
7.67,-0.074,0.987,0.161
7.68,-0.211,0.918,0.052
7.69,-0.313,0.901,-0.134
7.7,-0.212,1.215,-0.05
7.71,-0.146,0.864,0.057
7.72,-0.095,1.004,0.144
7.73,-0.268,0.836,-0.006
7.74,-0.322,1.131,-0.172
7.75,-0.219,0.923,-0.048
7.76,-0.079,0.94,0.118
7.77,-0.167,0.979,0.151
7.78,-0.403,0.897,-0.105
7.79,-0.308,1.112,-0.101
7.8,-0.131,0.854,-0.025
7.81,-0.097,1.147,0.195
7.82,-0.196,0.795,0.04
7.83,-0.363,1.016,-0.113
7.84,-0.195,1.057,-0.079
7.85,-0.095,1.089,-0.005
7.86,-0.084,0.818,0.174
7.87,-0.285,0.906,-0.019
7.88,-0.342,1.183,-0.153
7.89,-0.193,0.826,-0.079
7.9,-0.131,1.062,0.114
7.91,-0.145,0.713,0.175
7.92,-0.374,1.129,-0.126
7.93,-0.27,0.846,-0.135
7.94,-0.158,1.027,-0.011
7.95,-0.108,1.044,0.186
7.96,-0.144,0.82,0.022
7.97,-0.328,1.096,-0.14
7.98,-0.218,0.855,-0.049
7.99,-0.121,1.256,0.052
8.0,-0.04,0.672,0.155
8.01,-0.262,0.979,0.005
8.02,-0.34,1.018,-0.111
8.03,-0.182,0.994,-0.109
8.04,-0.138,1.039,0.098
8.05,-0.071,0.715,0.132
8.06,-0.398,1.183,-0.047
8.07,-0.204,0.789,-0.149
8.08,-0.232,1.147,-0.049
8.09,-0.113,0.806,0.177
8.1,-0.117,0.963,0.095
8.11,-0.369,1.013,-0.122
8.12,-0.265,0.836,-0.09
8.13,-0.134,1.26,0.038
8.14,-0.065,0.706,0.147
8.15,-0.257,1.038,0.019
8.16,-0.326,0.87,-0.105
8.17,-0.085,1.193,-0.146
8.18,-0.084,0.901,0.031
8.19,-0.058,0.835,0.164
8.2,-0.315,1.094,-0.032
8.21,-0.283,0.834,-0.171
8.22,-0.235,1.124,-0.025
8.23,-0.084,0.778,0.144
8.24,-0.167,1.09,0.129
8.25,-0.312,0.855,-0.129
8.26,-0.2,1.001,-0.108
8.27,-0.209,1.064,-0.009
8.28,-0.044,0.834,0.173
8.29,-0.218,1.064,0.08
8.3,-0.308,0.828,-0.138
8.31,-0.233,1.218,-0.048
8.32,-0.151,0.908,0.043
8.33,-0.069,0.954,0.132
8.34,-0.266,0.917,0.007
8.35,-0.273,1.041,-0.143
8.36,-0.224,1.065,-0.096
8.37,-0.137,0.797,0.126
8.38,-0.125,1.008,0.145
8.39,-0.354,0.868,-0.077
8.4,-0.281,1.138,-0.148
8.41,-0.162,0.859,0.004
8.42,-0.069,1.045,0.023
8.43,-0.171,0.902,0.057
8.44,-0.383,0.932,-0.101
8.45,-0.18,1.09,-0.083
8.46,-0.221,0.996,0.056
8.47,-0.1,1.024,0.117
8.48,-0.205,0.77,0.033
8.49,-0.31,1.162,-0.158
8.5,-0.206,0.988,-0.073
8.51,-0.274,1.015,0.122
8.52,-0.141,0.822,0.137
8.53,-0.319,0.884,-0.01
8.54,-0.294,1.199,-0.169
8.55,-0.142,0.832,-0.052
8.56,-0.032,1.089,0.063
8.57,-0.114,0.769,0.107
8.58,-0.327,1.131,-0.144
8.59,-0.262,0.875,-0.148
8.6,-0.199,1.017,0.029
8.61,-0.077,1.051,0.197
8.62,-0.217,0.782,0.047
8.63,-0.383,1.112,-0.11
8.64,-0.111,0.916,-0.054
8.65,-0.311,1.262,0.162
8.66,-0.078,0.691,0.142
8.67,-0.313,1.16,-0.017
8.68,-0.261,0.875,-0.171
8.69,-0.244,1.014,-0.048
8.7,-0.114,0.942,0.15
8.71,-0.138,0.875,0.126
8.72,-0.395,1.107,-0.081
8.73,-0.229,0.769,-0.12
8.74,-0.234,1.258,0.007
8.75,-0.09,0.776,0.147
8.76,-0.184,1.038,0.05
8.77,-0.379,0.885,-0.099
8.78,-0.178,1.007,-0.105
8.79,-0.156,1.138,0.057
8.8,-0.095,0.751,0.174
8.81,-0.24,1.082,0.03
8.82,-0.323,0.834,-0.168
8.83,-0.221,1.17,-0.09
8.84,-0.283,0.818,0.256
8.85,-0.104,0.916,0.096
8.86,-0.326,0.961,-0.063
8.87,-0.226,0.948,-0.139
8.88,-0.225,1.071,-0.035
8.89,-0.093,0.794,0.154
8.9,-0.118,1.121,0.069
8.91,-0.35,0.818,-0.151
8.92,-0.252,1.091,-0.126
8.93,-0.149,0.965,0.019
8.94,-0.123,0.976,0.181
8.95,-0.224,0.944,0.015
8.96,-0.407,0.889,-0.104
8.97,-0.11,1.175,-0.076
8.98,-0.061,0.893,0.061
8.99,-0.326,1.014,-0.173
9.0,-0.255,0.981,-0.138
9.01,-0.18,0.892,0.076
9.02,0.026,1.136,0.128
9.03,-0.248,0.721,0.011
9.04,-0.353,1.106,-0.165
9.05,-0.149,1.001,-0.057
9.06,-0.038,1.124,-0.035
9.07,-0.148,0.767,0.18
9.08,-0.295,0.899,-0.025
9.09,-0.292,1.221,-0.114
9.1,-0.15,0.84,-0.063
9.11,-0.199,1.046,0.119
9.12,-0.073,0.769,0.153
9.13,-0.359,1.21,-0.113
9.14,-0.255,0.857,-0.175
9.15,-0.259,1.034,0.037
9.16,-0.046,0.976,0.175
9.17,-0.167,0.774,0.031
9.18,-0.447,1.112,-0.12
9.19,-0.126,0.889,-0.07
9.2,-0.103,1.213,-0.039
9.21,-0.066,0.671,0.179
9.22,-0.301,1.022,-0.018
9.23,-0.269,0.997,-0.157
9.24,-0.217,0.944,-0.046
9.25,-0.146,1.042,0.138
9.26,-0.101,0.727,0.121
9.27,-0.368,1.187,-0.062
9.28,-0.263,0.762,-0.132
9.29,-0.257,1.138,0.003
9.3,-0.086,0.865,0.196
9.31,-0.19,0.971,0.071
9.32,-0.353,0.956,-0.12
9.33,-0.161,0.873,-0.089
9.34,-0.131,1.247,0.021
9.35,-0.045,0.685,0.137
9.36,-0.248,1.067,0.023
9.37,-0.341,0.831,-0.147
9.38,-0.182,1.155,-0.082
9.39,-0.108,0.937,0.084
9.4,-0.066,0.795,0.093
9.41,-0.359,1.061,-0.022
9.42,-0.206,0.892,-0.146
9.43,-0.198,1.013,-0.043
9.44,-0.103,0.801,0.179
9.45,-0.225,1.102,0.127
9.46,-0.323,0.774,-0.162
9.47,-0.282,1.128,-0.086
9.48,-0.151,0.957,0.047
9.49,-0.072,0.967,0.199
9.5,-0.221,0.913,0.014
9.51,-0.338,0.889,-0.145
9.52,-0.179,1.22,-0.056
9.53,-0.127,0.867,0.124
9.54,-0.19,0.954,0.17
9.55,-0.277,0.817,-0.036
9.56,-0.286,1.198,-0.191
9.57,-0.156,0.9,-0.072
9.58,-0.169,0.896,0.149
9.59,-0.147,0.928,0.129
9.6,-0.341,0.923,-0.085
9.61,-0.22,1.112,-0.161
9.62,-0.199,0.871,0.015
9.63,-0.291,1.121,0.186
9.64,-0.193,0.829,0.045
9.65,-0.363,1.057,-0.184
9.66,-0.217,0.976,-0.086
9.67,-0.129,1.002,0.094
9.68,-0.2,0.954,0.249
9.69,-0.321,0.795,0.001
9.7,-0.308,1.173,-0.205
9.71,-0.062,0.921,-0.049
9.72,-0.157,1.076,0.101
9.73,-0.178,0.732,0.16
9.74,-0.361,1.024,-0.057
9.75,-0.126,1.049,-0.172
9.76,-0.184,0.905,-0.02
9.77,-0.143,1.015,0.184
9.78,-0.08,0.798,0.038
9.79,-0.384,1.169,-0.162
9.8,-0.229,0.835,-0.078
9.81,-0.144,1.226,0.025
9.82,-0.133,0.824,0.189
9.83,-0.265,0.904,-0.017
9.84,-0.344,1.072,-0.142
9.85,-0.14,0.917,-0.056
9.86,-0.105,1.13,0.063
9.87,-0.146,0.676,0.155
9.88,-0.395,1.144,-0.095
9.89,-0.206,0.862,-0.143
9.9,-0.206,1.099,-0.006
9.91,-0.154,0.94,0.219
9.92,-0.187,0.847,0.043
9.93,-0.409,1.07,-0.103
9.94,-0.181,0.851,-0.062
9.95,-0.111,1.25,-0.027
9.96,-0.13,0.664,0.196
9.97,-0.238,1.058,-0.011
9.98,-0.376,0.924,-0.143
9.99,-0.212,1.018,-0.106
10.0,-0.128,1.021,0.115
10.01,-0.095,0.747,0.151
10.02,-0.32,1.119,-0.096
10.03,-0.3,0.757,-0.115
10.04,-0.196,1.201,-0.005
10.05,-0.096,0.854,0.183
10.06,-0.148,0.972,0.064
10.07,-0.314,0.946,-0.125
10.08,-0.236,0.983,-0.101
10.09,-0.144,1.179,0.041
10.1,-0.059,0.748,0.154
10.11,-0.298,1.053,0.03
10.12,-0.342,0.84,-0.133
10.13,-0.158,1.261,-0.042
10.14,-0.141,0.872,0.043
10.15,-0.152,0.839,0.161
10.16,-0.271,1.028,-0.048
10.17,-0.225,0.952,-0.195
10.18,-0.255,1.083,-0.005
10.19,-0.071,0.785,0.142
10.2,-0.177,1.094,0.116
10.21,-0.372,0.85,-0.135
10.22,-0.265,1.039,-0.085
10.23,-0.225,1.019,0.07
10.24,-0.035,0.932,0.138
10.25,-0.237,0.853,0.013
10.26,-0.352,0.992,-0.129
10.27,-0.054,1.147,-0.091
10.28,-0.156,0.821,0.115
10.29,-0.139,0.981,0.149
10.3,-0.258,0.86,-0.024
10.31,-0.321,1.217,-0.186
10.32,-0.194,0.83,-0.031
10.33,-0.195,1.04,0.183
10.34,-0.124,0.947,0.101
10.35,-0.362,0.914,-0.122
10.36,-0.203,1.038,-0.145
10.37,-0.217,0.923,0.105
10.38,-0.04,1.081,0.135
10.39,-0.244,0.746,0.042
10.4,-0.38,1.104,-0.14
10.41,-0.102,0.983,-0.08
10.42,-0.091,1.047,0.005
10.43,-0.122,0.855,0.138
10.44,-0.327,0.904,-0.024
10.45,-0.26,1.17,-0.165
10.46,-0.157,0.797,-0.054
10.47,-0.152,1.12,0.165
10.48,-0.116,0.748,0.089
10.49,-0.395,1.098,-0.09
10.5,-0.203,0.906,-0.124
10.51,-0.151,1.042,0.002
10.52,-0.093,1.035,0.146
10.53,-0.203,0.748,0.021
10.54,-0.364,1.157,-0.114
10.55,-0.25,0.854,-0.055
10.56,-0.088,1.229,0.073
10.57,-0.098,0.753,0.158
10.58,-0.323,0.968,-0.024
10.59,-0.25,1.043,-0.152
10.6,-0.122,0.997,-0.092
10.61,-0.149,1.015,0.099
10.62,-0.126,0.691,0.183
10.63,-0.417,1.2,-0.069
10.64,-0.205,0.83,-0.159
10.65,-0.159,1.128,0.005
10.66,-0.117,0.866,0.2
10.67,-0.166,0.93,0.04
10.68,-0.353,1.037,-0.15
10.69,-0.219,0.852,-0.122
10.7,-0.263,1.254,0.173
10.71,-0.027,0.674,0.125
10.72,-0.306,1.071,0.037
10.73,-0.265,0.912,-0.111
10.74,-0.191,1.135,-0.113
10.75,-0.226,0.853,0.107
10.76,-0.114,0.793,0.181
10.77,-0.341,1.156,-0.1
10.78,-0.232,0.805,-0.162
10.79,-0.223,1.173,-0.046
10.8,-0.013,0.803,0.149
10.81,-0.136,1.041,0.096
10.82,-0.342,0.876,-0.143
10.83,-0.23,0.955,-0.081
10.84,-0.141,1.14,0.008
10.85,-0.062,0.761,0.167
10.86,-0.306,1.065,0.01
10.87,-0.324,0.837,-0.128
10.88,-0.143,1.208,-0.098
10.89,-0.208,0.79,0.11
10.9,-0.119,0.926,0.159
10.91,-0.311,0.978,-0.049
10.92,-0.22,0.977,-0.19
10.93,-0.379,1.043,-0.027
10.94,-0.082,0.817,0.141
10.95,-0.098,1.117,0.075
10.96,-0.365,0.815,-0.159
10.97,-0.264,1.065,-0.097
10.98,-0.134,1.015,0.08
10.99,-0.309,0.976,0.209
11.0,-0.258,0.906,0.048
11.01,-0.33,0.886,-0.154
11.02,-0.101,1.217,-0.086
11.03,-0.123,0.818,0.031
11.04,-0.103,0.991,0.159
11.05,-0.223,0.833,-0.046
11.06,-0.335,1.177,-0.153
11.07,-0.139,0.906,-0.069
11.08,-0.159,1.085,0.171
11.09,-0.181,0.854,0.118
11.1,-0.39,0.955,-0.121
11.11,-0.183,1.043,-0.149
11.12,-0.167,0.983,0.062
11.13,-0.126,1.039,0.139
11.14,-0.136,0.725,0.034
11.15,-0.307,1.214,-0.153
11.16,-0.243,0.951,-0.083
11.17,-0.167,1.025,0.072
11.18,-0.103,0.825,0.194
11.19,-0.348,0.893,-0.062
11.2,-0.288,1.09,-0.134
11.21,-0.155,0.896,-0.034
11.22,-0.414,1.115,0.185
11.23,-0.152,0.748,0.112
11.24,-0.316,1.131,-0.129
11.25,-0.193,0.898,-0.155
11.26,-0.231,1.077,0.033
11.27,-0.071,0.965,0.169
11.28,-0.229,0.795,0.044
11.29,-0.361,1.098,-0.156
11.3,-0.201,0.911,-0.055
11.31,-0.188,1.211,0.045
11.32,-0.056,0.634,0.148
11.33,-0.332,1.048,-0.012
11.34,-0.247,1.005,-0.152
11.35,-0.213,0.978,-0.047
11.36,-0.123,1.009,0.122
11.37,-0.112,0.76,0.13
11.38,-0.423,1.166,-0.083
11.39,-0.208,0.743,-0.178
11.4,-0.185,1.203,-0.031
11.41,-0.109,0.865,0.189
11.42,-0.21,0.911,0.033
11.43,-0.316,0.951,-0.132
11.44,-0.227,0.979,-0.036
11.45,-0.086,1.207,0.032
11.46,-0.066,0.674,0.147
11.47,-0.296,1.112,0.005
11.48,-0.274,0.888,-0.135
11.49,-0.207,1.116,-0.081
11.5,-0.116,0.824,0.073
11.51,-0.146,0.861,0.16
11.52,-0.342,1.122,-0.091
11.53,-0.232,0.841,-0.122
11.54,-0.205,1.161,-0.025
11.55,-0.037,0.745,0.193
11.56,-0.192,1.07,0.068
11.57,-0.314,0.872,-0.131
11.58,-0.268,1.055,-0.077
11.59,-0.095,1.089,0.033
11.6,-0.045,0.788,0.149
11.61,-0.307,1.068,0.008
11.62,-0.349,0.878,-0.114
11.63,-0.214,1.177,-0.102
11.64,-0.144,0.768,0.111
11.65,-0.097,1.023,0.129
11.66,-0.264,0.956,-0.061
11.67,-0.328,0.964,-0.176
11.68,-0.243,0.975,-0.03
11.69,-0.073,0.861,0.112
11.7,-0.177,1.107,0.108
11.71,-0.326,0.827,-0.144
11.72,-0.265,1.111,-0.109
11.73,-0.192,0.976,0.079
11.74,-0.003,0.982,0.129
11.75,-0.208,0.873,0.043
11.76,-0.353,0.939,-0.135
11.77,-0.204,1.209,-0.065
11.78,-0.171,0.859,0.051
11.79,-0.09,0.941,0.155
11.8,-0.273,0.86,-0.036
11.81,-0.303,1.228,-0.146
11.82,-0.217,0.88,-0.082
11.83,-0.128,0.927,0.111
11.84,-0.18,0.912,0.146
11.85,-0.295,0.913,-0.135
11.86,-0.3,1.103,-0.101
11.87,-0.144,0.843,-0.03
11.88,-0.116,1.12,0.196
11.89,-0.149,0.818,0.023
11.9,-0.304,1.099,-0.156
11.91,-0.219,0.954,-0.028
11.92,-0.074,1.2,0.036
11.93,-0.149,0.752,0.157
11.94,-0.258,0.916,-0.005
11.95,-0.356,1.106,-0.132
11.96,-0.188,0.894,-0.066
11.97,-0.167,1.068,0.099
11.98,-0.15,0.711,0.147
11.99,-0.332,1.152,-0.07
12.0,-0.236,0.84,-0.167
12.01,-0.217,1.055,0.017
12.02,-0.162,0.97,0.213
12.03,-0.119,0.873,0.056
12.04,-0.386,1.082,-0.136
12.05,-0.258,0.77,-0.107
12.06,-0.135,1.279,0.059
12.07,-0.125,0.736,0.237
12.08,-0.283,0.995,0.04
12.09,-0.342,0.898,-0.132
12.1,-0.148,1.028,-0.084
12.11,-0.075,1.038,0.079
12.12,-0.119,0.735,0.137
12.13,-0.366,1.119,-0.023
12.14,-0.233,0.857,-0.187
12.15,-0.173,1.169,-0.03
12.16,-0.162,0.742,0.107
12.17,-0.174,0.951,0.162
12.18,-0.31,1.035,-0.093
12.19,-0.212,0.956,-0.158
12.2,-0.205,1.059,-0.005
12.21,-0.094,0.835,0.196
12.22,-0.232,1.106,0.06
12.23,-0.332,0.827,-0.183
12.24,-0.22,1.148,-0.078
12.25,-0.134,0.953,0.064
12.26,-0.098,0.882,0.136
12.27,-0.309,0.943,-0.01
12.28,-0.303,0.907,-0.133
12.29,-0.089,1.226,-0.081
12.3,-0.203,0.739,0.092
12.31,-0.174,0.998,0.161
12.32,-0.287,0.886,-0.095
12.33,-0.208,1.132,-0.165
12.34,-0.186,0.935,-0.042
12.35,-0.072,0.899,0.17
12.36,-0.111,1.027,0.065
12.37,-0.364,0.856,-0.156
12.38,-0.21,1.141,-0.129
12.39,-0.146,0.953,0.079
12.4,-0.047,0.995,0.118
12.41,-0.303,0.776,0.024
12.42,-0.253,1.08,-0.146
12.43,-0.088,1.123,-0.099
12.44,-0.178,0.821,0.178
12.45,-0.077,0.91,0.135
12.46,-0.368,0.882,-0.041
12.47,-0.272,1.197,-0.168
12.48,-0.318,0.835,0.092
12.49,-0.162,1.101,0.182
12.5,-0.119,0.825,0.054
12.51,-0.379,0.98,-0.116
12.52,-0.227,1.05,-0.126
12.53,-0.148,1.022,0.058
12.54,-0.085,1.007,0.115
12.55,-0.229,0.732,0.023
12.56,-0.346,1.188,-0.202
12.57,-0.136,0.957,-0.067
12.58,-0.138,1.062,0.055
12.59,-0.156,0.81,0.171
12.6,-0.336,0.931,-0.037
12.61,-0.265,1.14,-0.137
12.62,-0.109,0.851,-0.084
12.63,-0.178,1.071,0.143
12.64,-0.094,0.739,0.121
12.65,-0.387,1.167,-0.137
12.66,-0.202,0.817,-0.121
12.67,-0.225,1.152,0.048
12.68,-0.026,0.981,0.155
12.69,-0.22,0.797,0.015
12.7,-0.324,1.116,-0.144
12.71,-0.099,0.931,-0.064
12.72,-0.204,1.086,0.11
12.73,-0.06,0.681,0.141
12.74,-0.312,1.204,-0.039
12.75,-0.32,0.85,-0.174
12.76,-0.221,1.083,-0.014
12.77,-0.062,0.906,0.122
12.78,-0.185,0.914,0.086
12.79,-0.343,1.096,-0.126
12.8,-0.222,0.809,-0.129
12.81,-0.255,1.26,0.043
12.82,-0.028,0.773,0.131
12.83,-0.213,1.052,0.021
12.84,-0.321,0.861,-0.124
12.85,-0.197,1.087,-0.085
12.86,-0.111,1.019,0.02
12.87,-0.104,0.728,0.149
12.88,-0.341,1.098,-0.012
12.89,-0.147,0.925,-0.18
12.9,-0.297,1.127,-0.06
12.91,-0.052,0.696,0.121
12.92,-0.175,1.059,0.162
12.93,-0.385,0.953,-0.112
12.94,-0.32,0.942,-0.097
12.95,-0.21,1.058,0.006
12.96,-0.032,0.885,0.152
12.97,-0.235,1.079,0.06
12.98,-0.302,0.809,-0.144
12.99,-0.242,1.192,-0.069
13.0,-0.103,0.943,0.056
13.01,-0.061,0.916,0.147
13.02,-0.26,0.911,-0.002
13.03,-0.306,0.961,-0.115
13.04,-0.194,1.158,-0.038
13.05,-0.132,0.753,0.079
13.06,-0.141,0.974,0.127
13.07,-0.327,0.911,-0.042
13.08,-0.266,1.18,-0.163
13.09,-0.238,0.837,-0.048
13.1,-0.106,0.972,0.207
13.11,-0.241,0.957,0.067
13.12,-0.383,0.863,-0.108
13.13,-0.198,1.123,-0.119
13.14,-0.119,0.958,0.053
13.15,-0.032,0.975,0.082
13.16,-0.233,0.818,0.053
13.17,-0.285,1.101,-0.169
13.18,-0.232,1.07,-0.027
13.19,-0.168,0.963,0.059
13.2,-0.102,0.868,0.149
13.21,-0.294,0.867,-0.036
13.22,-0.335,1.236,-0.135
13.23,-0.211,0.81,-0.055
13.24,-0.123,1.109,0.124
13.25,-0.164,0.841,0.134
13.26,-0.41,1.003,-0.13
13.27,-0.208,0.93,-0.147
13.28,-0.195,1.041,0.031
13.29,-0.084,1.072,0.111
13.3,-0.172,0.692,0.029
13.31,-0.322,1.154,-0.154
13.32,-0.213,0.989,-0.033
13.33,-0.137,1.166,-0.006
13.34,-0.083,0.704,0.152
13.35,-0.289,0.959,0.037
13.36,-0.25,1.14,-0.158
13.37,-0.178,0.869,-0.109
13.38,-0.149,1.083,0.1
13.39,-0.114,0.719,0.148
13.4,-0.357,1.167,-0.083
13.41,-0.268,0.803,-0.129
13.42,-0.185,1.065,-0.047
13.43,-0.121,0.94,0.18
13.44,-0.159,0.83,0.057
13.45,-0.359,1.098,-0.089
13.46,-0.197,0.83,-0.134
13.47,-0.179,1.253,0.057
13.48,-0.027,0.755,0.145
13.49,-0.251,1.023,0.019
13.5,-0.343,0.868,-0.143
13.51,-0.163,1.121,-0.041
13.52,-0.33,1.083,0.17
13.53,-0.106,0.737,0.132
13.54,-0.312,1.055,-0.052
13.55,-0.255,0.934,-0.187
13.56,-0.251,1.059,-0.066
13.57,-0.108,0.768,0.177
13.58,-0.086,1.1,0.083
13.59,-0.393,0.854,-0.101
13.6,-0.167,1.011,-0.121
13.61,-0.204,1.074,0.052
13.62,-0.031,0.85,0.135
13.63,-0.233,0.986,0.052
13.64,-0.34,0.873,-0.112
13.65,-0.209,1.242,-0.09
13.66,-0.11,0.818,0.011
13.67,-0.108,0.97,0.151
13.68,-0.264,0.854,-0.032
13.69,-0.307,1.093,-0.129
13.7,-0.199,0.985,-0.099
13.71,-0.112,0.848,0.112
13.72,-0.164,0.998,0.135
13.73,-0.331,0.869,-0.078
13.74,-0.308,1.18,-0.137
13.75,-0.187,0.824,-0.028
13.76,-0.123,1.049,0.156
13.77,-0.131,0.897,0.09
13.78,-0.387,0.964,-0.14
13.79,-0.223,0.956,-0.095
13.8,-0.252,0.981,0.055
13.81,-0.083,1.113,0.124
13.82,-0.179,0.709,-0.018
13.83,-0.342,1.145,-0.148
13.84,-0.124,0.992,-0.039
13.85,-0.13,1.084,0.027
13.86,-0.115,0.753,0.17
13.87,-0.316,0.918,-0.018
13.88,-0.314,1.169,-0.131
13.89,-0.171,0.814,-0.085
13.9,-0.164,1.112,0.121
13.91,-0.146,0.714,0.157
13.92,-0.342,1.125,-0.09
13.93,-0.226,0.877,-0.155
13.94,-0.225,1.064,-0.016
13.95,-0.059,1.01,0.186
13.96,-0.158,0.825,0.068
13.97,-0.383,1.096,-0.146
13.98,-0.216,0.832,-0.079
13.99,-0.201,1.275,0.049
14.0,-0.055,0.687,0.129
14.01,-0.265,0.982,0.01
14.02,-0.329,0.988,-0.111
14.03,-0.123,1.036,-0.111
14.04,-0.198,1.08,0.081
14.05,-0.059,0.665,0.139
14.06,-0.338,1.15,-0.032
14.07,-0.249,0.869,-0.146
14.08,-0.24,1.116,-0.05
14.09,-0.129,0.811,0.112
14.1,-0.158,0.964,0.13
14.11,-0.355,1.009,-0.126
14.12,-0.294,0.802,-0.089
14.13,-0.171,1.134,0.004
14.14,0.0,0.816,0.14
14.15,-0.218,1.068,0.029
14.16,-0.336,0.797,-0.1
14.17,-0.191,1.135,-0.117
14.18,-0.137,1.037,0.069
14.19,-0.092,0.862,0.172
14.2,-0.248,0.979,-0.006
14.21,-0.322,0.918,-0.097
14.22,-0.096,1.184,-0.107
14.23,-0.216,0.767,0.097
14.24,-0.131,0.972,0.189
14.25,-0.293,0.905,-0.046
14.26,-0.271,1.123,-0.171
14.27,-0.224,0.954,-0.037
14.28,-0.393,0.844,0.247
14.29,-0.124,1.018,0.096
14.3,-0.317,0.882,-0.158
14.31,-0.287,1.141,-0.114
14.32,-0.152,0.858,-0.006
14.33,-0.098,1.089,0.235
14.34,-0.138,0.862,0.017
14.35,-0.414,0.974,-0.133
14.36,-0.183,0.965,-0.064
14.37,-0.053,1.095,0.036
14.38,-0.11,0.872,0.121
14.39,-0.284,0.838,-0.015
14.4,-0.292,1.232,-0.15
14.41,-0.128,0.882,-0.077
14.42,-0.334,1.089,0.112
14.43,-0.129,0.742,0.146
14.44,-0.343,1.089,-0.109
14.45,-0.284,0.937,-0.132
14.46,-0.183,0.959,-0.035
14.47,-0.201,1.014,0.172
14.48,-0.097,0.756,0.067
14.49,-0.398,1.154,-0.142
14.5,-0.238,0.807,-0.069
14.51,-0.201,1.262,0.05
14.52,-0.039,0.764,0.163
14.53,-0.248,0.916,-0.012
14.54,-0.305,1.018,-0.148
14.55,-0.179,0.992,-0.07
14.56,-0.111,1.134,0.05
14.57,-0.077,0.646,0.148
14.58,-0.39,1.167,-0.061
14.59,-0.207,0.881,-0.12
14.6,-0.217,1.121,-0.079
14.61,-0.118,0.845,0.119
14.62,-0.211,0.9,0.117
14.63,-0.311,1.117,-0.067
14.64,-0.245,0.815,-0.137
14.65,-0.261,1.18,0.039
14.66,-0.006,0.791,0.162
14.67,-0.21,1.093,0.024
14.68,-0.337,0.819,-0.138
14.69,-0.183,1.081,-0.067
14.7,-0.06,1.097,0.03
14.71,-0.057,0.792,0.079
14.72,-0.293,1.056,0.009
14.73,-0.323,0.845,-0.152
14.74,-0.141,1.215,-0.049
14.75,-0.105,0.781,0.095
14.76,-0.15,0.964,0.175
14.77,-0.304,0.927,-0.073
14.78,-0.255,1.021,-0.149
14.79,-0.152,1.066,-0.046
14.8,-0.128,0.81,0.136
14.81,-0.114,1.084,0.076
14.82,-0.369,0.856,-0.11
14.83,-0.232,1.126,-0.136
14.84,-0.195,0.922,0.055
14.85,0.022,0.964,0.127
14.86,-0.233,0.912,0.035
14.87,-0.357,0.894,-0.144
14.88,-0.153,1.183,-0.085
14.89,-0.104,0.886,0.054
14.9,-0.152,0.972,0.149
14.91,-0.28,0.843,-0.027
14.92,-0.29,1.226,-0.142
14.93,-0.163,0.885,-0.046
14.94,-0.154,0.939,0.123
14.95,-0.189,0.914,0.135
14.96,-0.352,0.903,-0.086
14.97,-0.273,1.093,-0.12
14.98,-0.195,0.846,-0.009
14.99,-0.168,1.129,0.185
15.0,-0.135,0.792,0.055
15.01,-0.392,1.033,-0.133
15.02,-0.219,0.961,-0.083
15.03,-0.033,1.074,-0.01
15.04,-0.083,0.943,0.148
15.05,-0.232,0.744,-0.016
15.06,-0.31,1.204,-0.126
15.07,-0.13,0.921,-0.089
15.08,-0.205,1.085,0.117
15.09,-0.069,0.716,0.122
15.1,-0.376,1.063,-0.026
15.11,-0.28,1.012,-0.164
15.12,-0.178,0.907,-0.015
15.13,-0.182,1.092,0.166
15.14,-0.089,0.743,0.112
15.15,-0.351,1.162,-0.135
15.16,-0.254,0.757,-0.115
15.17,-0.23,1.195,0.057
15.18,-0.02,0.731,0.132
15.19,-0.25,0.993,0.024
15.2,-0.367,0.927,-0.153
15.21,-0.141,1.054,-0.068
15.22,-0.125,1.079,0.03
15.23,-0.063,0.72,0.147
15.24,-0.404,1.161,-0.04
15.25,-0.204,0.858,-0.13
15.26,-0.226,1.163,-0.039
15.27,-0.135,0.823,0.132
15.28,-0.114,0.989,0.141
15.29,-0.321,1.001,-0.118
15.3,-0.262,0.813,-0.145
15.31,-0.253,1.162,0.004
15.32,-0.058,0.844,0.162
15.33,-0.229,1.076,0.063
15.34,-0.254,0.768,-0.139
15.35,-0.243,1.186,-0.081
15.36,-0.13,1.002,0.041
15.37,-0.005,0.875,0.154
15.38,-0.226,0.981,0.007
15.39,-0.358,0.896,-0.113
15.4,-0.192,1.224,-0.055
15.41,-0.13,0.84,0.061
15.42,-0.098,0.949,0.117
15.43,-0.333,0.866,-0.015
15.44,-0.247,1.133,-0.17
15.45,-0.188,0.922,-0.06
15.46,-0.135,0.856,0.145
15.47,-0.152,1.052,0.148
15.48,-0.359,0.832,-0.124
15.49,-0.253,1.077,-0.092
15.5,-0.153,0.903,0.036
15.51,-0.137,1.134,0.177
15.52,-0.175,0.793,0.05
15.53,-0.403,0.994,-0.116
15.54,-0.166,1.047,-0.108
15.55,-0.039,1.009,0.031
15.56,-0.174,0.965,0.189
15.57,-0.224,0.748,-0.02
15.58,-0.364,1.214,-0.102
15.59,-0.241,0.911,-0.059
15.6,-0.121,1.046,0.083
15.61,-0.152,0.826,0.16
15.62,-0.355,0.988,-0.072
15.63,-0.291,1.074,-0.135
15.64,-0.146,0.879,-0.072
15.65,-0.176,1.089,0.186
15.66,-0.116,0.747,0.063
15.67,-0.367,1.133,-0.086
15.68,-0.2,0.86,-0.127
15.69,-0.203,1.171,0.042
15.7,-0.037,0.87,0.132
15.71,-0.217,0.82,0.024
15.72,-0.358,1.097,-0.124
15.73,-0.201,0.918,-0.049
15.74,-0.174,1.2,0.058
15.75,-0.054,0.673,0.15
15.76,-0.28,1.075,-0.03
15.77,-0.328,0.928,-0.118
15.78,-0.182,0.997,-0.116
15.79,-0.115,1.002,0.122
15.8,-0.114,0.777,0.099
15.81,-0.366,1.157,-0.068
15.82,-0.296,0.769,-0.137
15.83,-0.188,1.126,-0.028
15.84,-0.077,0.848,0.156
15.85,-0.145,1.005,0.076
15.86,-0.375,0.972,-0.108
15.87,-0.237,0.858,-0.125
15.88,-0.187,1.223,0.037
15.89,0.013,0.789,0.134
15.9,-0.278,1.053,0.056
15.91,-0.274,0.782,-0.15
15.92,-0.214,1.222,-0.027
15.93,-0.066,0.922,0.021
15.94,-0.076,0.85,0.148
15.95,-0.316,1.027,-0.018
15.96,-0.282,0.94,-0.131
15.97,-0.202,1.097,-0.075
15.98,-0.112,0.772,0.093
15.99,-0.169,1.075,0.149
16.0,-0.258,0.917,-0.095
16.01,-0.27,1.114,-0.108
16.02,-0.235,0.932,0.039
16.03,-0.025,1.049,0.116
16.04,-0.206,0.852,0.045
16.05,-0.353,0.934,-0.117
16.06,-0.22,1.152,-0.095
16.07,-0.091,0.912,0.044
16.08,-0.103,1.025,0.161
16.09,-0.26,0.782,-0.022
16.1,-0.333,1.149,-0.117
16.11,-0.17,0.969,-0.089
16.12,-0.127,0.998,0.1
16.13,-0.126,0.847,0.144
16.14,-0.336,0.924,-0.014
16.15,-0.301,1.164,-0.154
16.16,-0.227,0.842,-0.045
16.17,-0.108,1.068,0.129
16.18,-0.163,0.806,0.127
16.19,-0.314,1.116,-0.1
16.2,-0.292,0.86,-0.155
16.21,-0.236,1.014,0.007
16.22,-0.094,1.047,0.176
16.23,-0.15,0.801,0.035
16.24,-0.354,1.093,-0.12
16.25,-0.249,0.856,-0.076
16.26,-0.091,1.277,0.047
16.27,-0.054,0.718,0.155
16.28,-0.293,0.939,-0.011
16.29,-0.334,0.987,-0.115
16.3,-0.16,0.998,-0.054
16.31,-0.114,1.042,0.045
16.32,-0.143,0.694,0.185
16.33,-0.325,1.175,-0.029
16.34,-0.304,0.855,-0.141
16.35,-0.255,1.069,-0.059
16.36,-0.095,0.889,0.128
16.37,-0.182,0.97,0.131
16.38,-0.338,1.03,-0.112
16.39,-0.25,0.81,-0.117
16.4,-0.183,1.226,-0.007
16.41,-0.011,0.797,0.14
16.42,-0.212,1.068,0.041
16.43,-0.296,0.796,-0.151
16.44,-0.234,1.134,-0.068
16.45,-0.066,1.053,0.014
16.46,-0.064,0.81,0.158
16.47,-0.213,1.044,0.016
16.48,-0.371,0.891,-0.119
16.49,-0.148,1.22,-0.093
16.5,-0.226,0.808,0.088
16.51,-0.092,0.956,0.122
16.52,-0.338,0.929,-0.008
16.53,-0.262,1.056,-0.19
16.54,-0.253,0.977,-0.049
16.55,0.04,0.802,0.046
16.56,-0.213,1.115,0.158
16.57,-0.298,0.853,-0.121
16.58,-0.303,1.137,-0.109
16.59,-0.195,0.866,0.028
16.6,-0.037,1.05,0.134
16.61,-0.207,0.869,0.064
16.62,-0.363,0.947,-0.094
16.63,-0.185,1.123,-0.129
16.64,-0.147,0.926,0.042
16.65,-0.109,0.992,0.186
16.66,-0.192,0.767,-0.023
16.67,-0.379,1.183,-0.103
16.68,-0.123,0.953,-0.124
16.69,-0.139,1.012,0.086
16.7,-0.141,0.844,0.173
16.71,-0.302,0.941,-0.025
16.72,-0.328,1.13,-0.17
16.73,-0.198,0.782,-0.069
16.74,-0.118,1.113,0.127
16.75,-0.126,0.796,0.114
16.76,-0.351,1.125,-0.107
16.77,-0.29,0.868,-0.116
16.78,-0.152,1.064,-0.011
16.79,-0.098,1.012,0.134
16.8,-0.167,0.791,0.045
16.81,-0.391,1.143,-0.104
16.82,-0.229,0.859,-0.102
16.83,-0.096,1.221,0.029
16.84,-0.008,0.67,0.128
16.85,-0.274,1.077,0.014
16.86,-0.301,0.896,-0.142
16.87,-0.147,1.086,-0.076
16.88,-0.017,0.912,0.032
16.89,-0.09,0.832,0.137
16.9,-0.359,1.117,-0.037
16.91,-0.267,0.851,-0.161
16.92,-0.238,1.124,-0.051
16.93,-0.078,0.763,0.143
16.94,-0.158,1.08,0.123
16.95,-0.283,0.915,-0.107
16.96,-0.267,0.943,-0.114
16.97,-0.236,1.077,0.032
16.98,-0.046,0.854,0.139
16.99,-0.222,1.054,0.038
17.0,-0.277,0.766,-0.145
17.01,-0.323,1.206,-0.067
17.02,-0.019,0.942,0.035
17.03,-0.073,0.981,0.129
17.04,-0.259,0.876,-0.002
17.05,-0.337,0.993,-0.105
17.06,-0.159,1.1,-0.1
17.07,-0.095,0.82,0.071
17.08,-0.182,1.064,0.148
17.09,-0.308,0.823,-0.03
17.1,-0.283,1.126,-0.15
17.11,-0.184,0.882,-0.031
17.12,-0.151,1.005,0.133
17.13,-0.158,0.941,0.096
17.14,-0.358,0.955,-0.069
17.15,-0.236,1.094,-0.124
17.16,-0.172,0.866,0.002
17.17,-0.052,1.103,0.134
17.18,-0.177,0.812,0.058
17.19,-0.374,1.061,-0.104
17.2,-0.186,0.917,-0.122
17.21,-0.161,1.125,0.043
17.22,-0.063,0.953,0.103
17.23,-0.251,0.778,-0.018
17.24,-0.34,1.133,-0.123
17.25,-0.156,0.922,-0.035
17.26,-0.03,1.157,0.051
17.27,-0.114,0.693,0.133
17.28,-0.339,1.054,-0.011
17.29,-0.269,1.017,-0.121
17.3,-0.153,0.957,-0.065
17.31,-0.11,1.019,0.116
17.32,-0.167,0.755,0.126
17.33,-0.285,1.045,-0.133
17.34,-0.153,0.877,-0.044
17.35,-0.157,1.124,0.168
17.36,-0.168,0.743,0.109
17.37,-0.357,1.093,-0.14
17.38,-0.272,0.844,-0.118
17.39,-0.146,1.121,0.014
17.4,-0.032,0.958,0.159
17.41,-0.177,0.813,0.048
17.42,-0.327,1.112,-0.136
17.43,-0.2,0.901,-0.09
17.44,-0.252,1.25,0.121
17.45,-0.049,0.692,0.126
17.46,-0.391,1.058,-0.001
17.47,-0.27,0.912,-0.143
17.48,-0.176,1.05,-0.078
17.49,-0.363,0.982,0.286
17.5,-0.146,0.732,0.171
17.51,-0.348,1.186,-0.086
17.52,-0.225,0.834,-0.147
17.53,-0.289,1.133,-0.004
17.54,-0.117,0.811,0.18
17.55,-0.168,0.993,0.074
17.56,-0.324,0.973,-0.136
17.57,-0.261,0.893,-0.124
17.58,-0.175,1.048,0.06
17.59,-0.01,0.848,0.153
17.6,-0.274,1.042,0.006
17.61,-0.293,0.789,-0.133
17.62,-0.189,1.239,-0.057
17.63,-0.086,0.832,0.036
17.64,-0.148,0.952,0.125
17.65,-0.295,0.946,-0.014
17.66,-0.286,1.074,-0.152
17.67,-0.186,1.011,-0.053
17.68,-0.122,0.807,0.125
17.69,-0.211,1.078,0.157
17.7,-0.27,0.856,-0.117
17.71,-0.271,1.132,-0.134
17.72,-0.161,0.906,-0.018
17.73,-0.134,1.035,0.201
17.74,-0.153,0.941,0.024
17.75,-0.368,0.948,-0.116
17.76,-0.258,1.103,-0.095
17.77,-0.126,0.924,0.044
17.78,-0.067,1.013,0.143
17.79,-0.215,0.767,-0.013
17.8,-0.39,1.169,-0.147
17.81,-0.187,0.974,-0.048
17.82,-0.126,0.996,0.078
17.83,-0.134,0.859,0.135
17.84,-0.36,0.928,-0.036
17.85,-0.316,1.16,-0.148
17.86,-0.192,0.838,-0.036
17.87,-0.149,1.072,0.148
17.88,-0.119,0.791,0.122
17.89,-0.358,1.09,-0.154
17.9,-0.288,0.842,-0.142
17.91,-0.1,1.067,0.039
17.92,-0.077,1.032,0.134
17.93,-0.247,0.741,0.044
17.94,-0.311,1.12,-0.12
17.95,-0.193,0.903,-0.07
17.96,-0.166,1.195,0.057
17.97,-0.067,0.696,0.15
17.98,-0.237,0.965,-0.023
17.99,-0.324,1.042,-0.108
18.0,-0.137,0.958,-0.137
18.01,-0.159,1.079,0.099
18.02,-0.084,0.714,0.128
18.03,-0.319,1.17,-0.045
18.04,-0.259,0.833,-0.174
18.05,-0.233,1.075,-0.02
18.06,-0.103,0.849,0.125
18.07,-0.151,0.94,0.091
18.08,-0.302,1.073,-0.125
18.09,-0.284,0.81,-0.136
18.1,-0.12,1.188,0.058
18.11,-0.027,0.805,0.133
18.12,-0.194,1.031,0.034
18.13,-0.379,0.826,-0.122
18.14,-0.124,1.106,-0.091
18.15,-0.324,1.089,0.088
18.16,-0.093,0.778,0.076
18.17,-0.292,1.045,-0.021
18.18,-0.247,0.904,-0.114
18.19,-0.184,1.173,-0.063
18.2,-0.138,0.74,0.099
18.21,-0.125,1.034,0.131
18.22,-0.313,0.956,-0.071
18.23,-0.328,1.004,-0.156
18.24,-0.156,0.968,-0.037
18.25,-0.051,0.931,0.165
18.26,-0.206,1.086,0.072
18.27,-0.407,0.773,-0.126
18.28,-0.254,1.132,-0.089
18.29,-0.071,0.992,0.051
18.3,-0.052,0.979,0.126
18.31,-0.24,0.855,0.009
18.32,-0.38,0.989,-0.124
18.33,-0.156,1.172,-0.05
18.34,-0.147,0.876,0.049
18.35,-0.101,0.95,0.142
18.36,-0.3,0.885,-0.014
18.37,-0.342,1.223,-0.142
18.38,-0.202,0.822,-0.062
18.39,-0.105,1.01,0.13
18.4,-0.203,0.975,0.152
18.41,-0.315,0.905,-0.117
18.42,-0.252,0.962,-0.115
18.43,-0.191,0.975,0.019
18.44,-0.103,1.07,0.174
18.45,-0.203,0.737,0.028
18.46,-0.399,1.1,-0.126
18.47,-0.131,0.884,-0.032
18.48,-0.112,1.177,0.022
18.49,-0.164,0.741,0.201
18.5,-0.341,0.944,0.028
18.51,-0.277,1.116,-0.135
18.52,-0.102,0.921,-0.121
18.53,-0.205,1.062,0.131
18.54,0.015,0.643,0.073
18.55,-0.34,1.213,-0.049
18.56,-0.306,0.833,-0.168
18.57,-0.177,0.99,-0.041
18.58,-0.107,0.974,0.182
18.59,-0.14,0.839,0.094
18.6,-0.365,1.063,-0.121
18.61,-0.147,0.811,-0.126
18.62,-0.262,1.299,0.036
18.63,-0.018,0.749,0.16
18.64,-0.261,1.029,0.055
18.65,-0.29,0.862,-0.15
18.66,-0.206,1.071,-0.069
18.67,-0.166,1.04,0.01
18.68,-0.083,0.67,0.153
18.69,-0.341,1.104,-0.029
18.7,-0.205,0.854,-0.15
18.71,-0.229,1.157,-0.06
18.72,-0.241,0.801,0.135
18.73,-0.125,1.008,0.151
18.74,-0.302,0.991,-0.119
18.75,-0.284,0.886,-0.134
18.76,-0.175,1.094,-0.009
18.77,0.002,0.858,0.123
18.78,-0.209,1.082,0.058
18.79,-0.36,0.801,-0.119
18.8,-0.235,1.147,-0.075
18.81,-0.124,1.032,0.085
18.82,-0.071,0.884,0.118
18.83,-0.299,0.948,0.039
18.84,-0.306,0.957,-0.105
18.85,-0.09,1.213,-0.134
18.86,-0.403,0.78,0.246
18.87,-0.092,1.023,0.149
18.88,-0.263,0.88,-0.038
18.89,-0.318,1.094,-0.187
18.9,-0.184,0.895,-0.053
18.91,-0.15,0.936,0.222
18.92,-0.057,0.999,0.068
18.93,-0.455,0.874,-0.101
18.94,-0.209,1.081,-0.176
18.95,-0.161,0.939,0.046
18.96,-0.042,1.084,0.102
18.97,-0.191,0.768,0.041
18.98,-0.359,1.051,-0.128
18.99,-0.183,1.121,-0.064
19.0,-0.12,0.95,-0.023
19.01,-0.133,0.877,0.199
19.02,-0.248,0.83,-0.046
19.03,-0.348,1.26,-0.12
19.04,-0.193,0.849,-0.093
19.05,-0.206,1.034,0.104
19.06,-0.061,0.778,0.145
19.07,-0.339,1.036,-0.098
19.08,-0.36,0.986,-0.089
19.09,-0.188,0.859,-0.047
19.1,-0.095,1.133,0.206
19.11,-0.131,0.748,0.02
19.12,-0.403,1.114,-0.095
19.13,-0.235,0.864,-0.102
19.14,-0.151,1.223,0.068
19.15,-0.008,0.863,0.138
19.16,-0.232,0.839,0.021
19.17,-0.344,1.098,-0.116
19.18,-0.063,0.966,-0.077
19.19,-0.202,1.162,0.081
19.2,-0.092,0.612,0.124
19.21,-0.345,1.105,-0.02
19.22,-0.267,0.929,-0.148
19.23,-0.191,1.017,-0.072
19.24,-0.265,0.854,0.283
19.25,-0.105,0.941,0.133
19.26,-0.362,1.037,-0.147
19.27,-0.226,0.788,-0.109
19.28,-0.16,1.263,0.043
19.29,-0.051,0.753,0.133
19.3,-0.306,1.069,0.074
19.31,-0.311,0.837,-0.132
19.32,-0.181,1.159,-0.049
19.33,-0.08,1.003,-0.008
19.34,-0.038,0.765,0.029
19.35,-0.241,1.073,-0.004
19.36,-0.223,0.902,-0.169
19.37,-0.234,1.128,-0.045
19.38,-0.11,0.755,0.207
19.39,-0.148,1.083,0.146
19.4,-0.271,0.901,-0.103
19.41,-0.358,1.003,-0.122
19.42,-0.218,0.969,-0.05
19.43,-0.109,0.899,0.202
19.44,-0.182,1.081,0.055
19.45,-0.327,0.805,-0.136
19.46,-0.234,1.15,-0.114
19.47,-0.14,0.938,0.048
19.48,-0.062,0.987,0.14
19.49,-0.22,0.84,0.027
19.5,-0.322,1.031,-0.125
19.51,-0.239,1.183,-0.084
19.52,-0.177,0.83,0.056
19.53,-0.115,0.964,0.169
19.54,-0.325,0.833,-0.042
19.55,-0.269,1.207,-0.178
19.56,-0.207,0.881,-0.088
19.57,-0.086,1.013,0.135
19.58,-0.13,0.906,0.097
19.59,-0.388,0.907,-0.061
19.6,-0.207,1.095,-0.147
19.61,-0.179,0.884,0.03
19.62,-0.129,1.046,0.112
19.63,-0.227,0.793,0.09
19.64,-0.341,1.121,-0.146
19.65,-0.167,0.943,-0.117
19.66,-0.122,1.075,0.02
19.67,-0.057,0.889,0.165
19.68,-0.238,0.808,-0.009
19.69,-0.323,1.169,-0.122
19.7,-0.365,0.872,0.003
19.71,-0.134,1.13,0.089
19.72,-0.143,0.7,0.13
19.73,-0.317,1.059,-0.042
19.74,-0.237,1.016,-0.165
19.75,-0.164,0.972,-0.028
19.76,-0.197,1.001,0.173
19.77,-0.124,0.792,0.103
19.78,-0.421,1.193,-0.155
19.79,-0.273,0.759,-0.091
19.8,-0.146,1.243,0.062
19.81,-0.096,0.839,0.131
19.82,-0.252,0.92,0.01
19.83,-0.402,0.974,-0.082
19.84,-0.069,1.001,-0.098
19.85,-0.222,1.122,0.058
19.86,-0.028,0.635,0.156
19.87,-0.355,1.202,-0.048
19.88,-0.298,0.83,-0.15
19.89,-0.203,1.087,-0.044
19.9,-0.146,0.967,0.17
19.91,-0.164,0.868,0.08
19.92,-0.361,1.05,-0.128
19.93,-0.176,0.813,-0.104
19.94,-0.211,1.237,0.039
19.95,0.014,0.758,0.16
19.96,-0.238,1.056,0.04
19.97,-0.334,0.835,-0.161
19.98,-0.154,1.085,-0.034
19.99,-0.14,1.074,0.038
20.0,-0.145,0.733,0.148
20.01,-0.329,1.082,0.008
20.02,-0.185,0.901,-0.174
20.03,-0.223,1.175,-0.057
20.04,-0.321,0.774,0.134
20.05,-0.116,1.11,0.136
20.06,-0.267,0.838,-0.137
20.07,-0.348,1.031,-0.098
20.08,-0.16,0.956,-0.03
20.09,-0.171,0.987,0.257
20.1,-0.236,0.981,0.069
20.11,-0.334,0.822,-0.134
20.12,-0.195,1.236,-0.057
20.13,-0.054,0.885,0.016
20.14,-0.121,0.994,0.172
20.15,-0.229,0.811,-0.028
20.16,-0.3,1.113,-0.141
20.17,-0.208,1.031,-0.076
20.18,-0.109,0.883,0.086
20.19,-0.151,0.984,0.134
20.2,-0.34,0.859,-0.088
20.21,-0.296,1.147,-0.135
20.22,-0.191,0.853,-0.022
20.23,-0.086,1.1,0.175
20.24,-0.147,0.831,0.084
20.25,-0.375,0.983,-0.137
20.26,-0.179,1.03,-0.144
20.27,-0.153,1.016,0.041
20.28,-0.122,1.017,0.178
20.29,-0.235,0.74,0.009
20.3,-0.385,1.161,-0.135
20.31,-0.073,0.922,-0.098
20.32,-0.2,1.081,0.089
20.33,-0.047,0.736,0.075
20.34,-0.314,0.963,-0.016
20.35,-0.245,1.195,-0.177
20.36,-0.173,0.843,-0.078
20.37,-0.195,1.092,0.164
20.38,-0.083,0.735,0.107
20.39,-0.426,1.125,-0.122
20.4,-0.217,0.812,-0.149
20.41,-0.198,1.061,0.018
20.42,-0.038,0.988,0.166
20.43,-0.161,0.839,0.056
20.44,-0.385,1.078,-0.154
20.45,-0.17,0.821,-0.09
20.46,-0.135,1.26,0.078
20.47,-0.053,0.74,0.144
20.48,-0.346,1.027,0.008
20.49,-0.29,0.933,-0.153
20.5,-0.104,1.055,-0.068
20.51,-0.179,0.998,0.111
20.52,-0.138,0.729,0.146
20.53,-0.331,1.197,-0.111
20.54,-0.221,0.83,-0.173
20.55,-0.224,1.101,-0.024
20.56,-0.126,0.828,0.181
20.57,-0.107,0.984,0.043
20.58,-0.385,0.941,-0.172
20.59,-0.255,0.857,-0.074
20.6,-0.084,1.261,0.058
20.61,-0.109,0.742,0.16
20.62,-0.343,1.103,-0.004
20.63,-0.216,0.837,-0.143
20.64,-0.194,1.149,-0.105
20.65,-0.214,0.869,0.154
20.66,-0.146,0.851,0.159
20.67,-0.255,1.073,-0.079
20.68,-0.245,0.861,-0.145
20.69,-0.268,1.162,-0.065
20.7,-0.037,0.773,0.177
20.71,-0.19,1.082,0.054
20.72,-0.325,0.82,-0.129
20.73,-0.187,1.098,-0.124
20.74,-0.156,1.051,0.068
20.75,-0.07,0.756,0.134
20.76,-0.237,1.054,-0.002
20.77,-0.294,0.895,-0.103
20.78,-0.185,1.192,-0.081
20.79,-0.215,0.777,0.127
20.8,-0.088,1.013,0.129
20.81,-0.327,0.884,-0.093
20.82,-0.291,0.989,-0.138
20.83,-0.136,1.018,-0.081
20.84,-0.057,0.877,0.142
20.85,-0.16,1.062,0.097
20.86,-0.332,0.817,-0.132
20.87,-0.229,1.146,-0.106
20.88,-0.144,0.947,0.045
20.89,-0.159,1.054,0.148
20.9,-0.222,0.771,-0.025
20.91,-0.309,1.099,-0.115
20.92,-0.061,1.042,-0.112
20.93,-0.203,0.943,0.089
20.94,-0.032,0.911,0.177
20.95,-0.271,0.873,-0.086
20.96,-0.326,1.171,-0.16
20.97,-0.145,0.853,-0.033
20.98,-0.13,1.076,0.144
20.99,-0.19,0.779,0.121
21.0,-0.39,1.058,-0.143
21.01,-0.222,0.993,-0.11
21.02,-0.133,0.965,0.02
21.03,-0.071,1.04,0.187
21.04,-0.281,0.763,0.035
21.05,-0.326,1.143,-0.159
21.06,-0.153,0.928,-0.072
21.07,-0.156,1.114,0.031
21.08,-0.088,0.726,0.184
21.09,-0.337,0.97,-0.045
21.1,-0.208,1.098,-0.159
21.11,-0.221,0.904,-0.034
21.12,-0.136,1.043,0.138
21.13,-0.138,0.73,0.138
21.14,-0.394,1.149,-0.157
21.15,-0.194,0.829,-0.128
21.16,-0.148,1.174,0.047
21.17,-0.154,0.933,0.122
21.18,-0.295,0.835,0.05
21.19,-0.27,1.107,-0.173
21.2,-0.103,0.957,-0.082
21.21,-0.211,1.116,0.064
21.22,-0.125,0.681,0.21
21.23,-0.282,1.106,-0.061
21.24,-0.259,0.882,-0.202
21.25,-0.219,1.006,-0.001
21.26,-0.114,1.03,0.164
21.27,-0.136,0.8,0.105
21.28,-0.368,1.127,-0.139
21.29,-0.211,0.762,-0.126
21.3,-0.151,1.285,0.059
21.31,-0.093,0.756,0.129
21.32,-0.27,0.972,0.03
21.33,-0.298,0.978,-0.152
21.34,-0.153,1.033,-0.097
21.35,-0.128,1.046,0.012
21.36,-0.031,0.68,0.149
21.37,-0.384,1.154,-0.055
21.38,-0.212,0.806,-0.202
21.39,-0.199,1.144,-0.022
21.4,-0.187,0.83,0.179
21.41,-0.103,0.919,0.112
21.42,-0.364,1.043,-0.129
21.43,-0.206,0.872,-0.13
21.44,-0.339,1.231,0.052
21.45,-0.039,0.747,0.106
21.46,-0.239,1.046,-0.003
21.47,-0.347,0.87,-0.141
21.48,-0.107,1.187,-0.07
21.49,-0.104,0.895,0.01
21.5,-0.147,0.799,0.181
21.51,-0.272,1.077,-0.084
21.52,-0.224,0.873,-0.122
21.53,-0.255,1.127,-0.044
21.54,-0.117,0.771,0.171
21.55,-0.069,1.06,0.074
21.56,-0.305,0.889,-0.165
21.57,-0.298,1.019,-0.082
21.58,-0.21,1.1,0.108
21.59,-0.012,0.816,0.124
21.6,-0.36,0.991,0.029
21.61,-0.259,0.835,-0.118
21.62,-0.088,1.295,-0.082
21.63,-0.151,0.796,0.08
21.64,-0.126,0.902,0.116
21.65,-0.257,0.96,-0.052
21.66,-0.233,1.062,-0.17
21.67,-0.193,1.019,-0.013
21.68,-0.132,0.816,0.166
21.69,-0.177,1.062,0.131
21.7,-0.368,0.877,-0.154
21.71,-0.184,1.167,-0.082
21.72,-0.445,0.948,0.088
21.73,-0.088,0.991,0.12
21.74,-0.265,0.822,-0.009
21.75,-0.283,1.115,-0.155
21.76,-0.146,1.033,-0.058
21.77,-0.262,0.857,0.138
21.78,-0.113,0.933,0.165
21.79,-0.301,0.9,-0.093
21.8,-0.24,1.161,-0.145
21.81,-0.231,0.823,0.025
21.82,-0.061,1.097,0.207
21.83,-0.183,0.794,0.046
21.84,-0.439,0.957,-0.163
21.85,-0.137,1.132,-0.074
21.86,-0.103,0.997,-0.003
21.87,-0.146,0.884,0.175
21.88,-0.266,0.807,0.011
21.89,-0.308,1.264,-0.173
21.9,-0.213,0.812,-0.056
21.91,-0.143,1.025,0.136
21.92,-0.053,0.89,0.135
21.93,-0.396,0.958,-0.146
21.94,-0.187,1.006,-0.122
21.95,-0.187,0.958,-0.016
21.96,-0.091,1.063,0.161
21.97,-0.192,0.705,0.056
21.98,-0.37,1.149,-0.156
21.99,-0.211,0.995,-0.018
22.0,-0.142,1.073,0.028
22.01,-0.124,0.82,0.148
22.02,-0.305,0.865,-0.008
22.03,-0.306,1.158,-0.177
22.04,-0.107,0.83,-0.064
22.05,-0.219,1.129,0.118
22.06,-0.141,0.721,0.166
22.07,-0.348,1.092,-0.115
22.08,-0.215,0.917,-0.139
22.09,-0.193,1.094,0.021
22.1,-0.05,0.965,0.15
22.11,-0.147,0.732,0.049
22.12,-0.378,1.176,-0.123
22.13,-0.123,0.919,-0.104
22.14,-0.226,1.196,0.091
22.15,-0.026,0.713,0.155
22.16,-0.334,1.045,0.004
22.17,-0.365,0.965,-0.174
22.18,-0.186,0.906,-0.014
22.19,-0.142,1.121,0.086
22.2,-0.11,0.752,0.125
22.21,-0.381,1.15,-0.122
22.22,-0.162,0.789,-0.1
22.23,-0.192,1.236,0.02
22.24,-0.067,0.866,0.145
22.25,-0.184,0.907,0.043
22.26,-0.372,1.044,-0.141
22.27,-0.182,0.931,-0.053
22.28,-0.153,1.242,0.051
22.29,-0.107,0.636,0.114
22.3,-0.341,1.093,-0.002
22.31,-0.292,0.91,-0.099
22.32,-0.221,1.111,-0.019
22.33,-0.186,0.879,0.105
22.34,-0.139,0.84,0.15
22.35,-0.356,1.101,-0.107
22.36,-0.247,0.812,-0.13
22.37,-0.163,1.157,0.008
22.38,-0.126,0.794,0.277
22.39,-0.215,1.082,0.07
22.4,-0.37,0.856,-0.119
22.41,-0.177,1.024,-0.088
22.42,-0.491,1.15,0.141
22.43,-0.043,0.795,0.044
22.44,-0.258,1.039,-0.026
22.45,-0.323,0.873,-0.119
22.46,-0.229,1.234,-0.031
22.47,-0.115,0.766,0.095
22.48,-0.18,0.979,0.118
22.49,-0.337,0.952,-0.077
22.5,-0.286,0.934,-0.146
22.51,-0.129,1.058,-0.013
22.52,-0.005,0.94,0.133
22.53,-0.164,1.007,0.032
22.54,-0.377,0.83,-0.127
22.55,-0.221,1.211,-0.112
22.56,-0.081,0.87,0.083
22.57,-0.119,0.984,0.166
22.58,-0.276,0.846,-0.039
22.59,-0.327,1.095,-0.126
22.6,-0.174,0.996,-0.073
22.61,-0.157,0.976,0.15
22.62,-0.124,0.926,0.091
22.63,-0.357,0.938,-0.124
22.64,-0.197,1.101,-0.113
22.65,-0.168,0.916,0.022
22.66,-0.058,1.088,0.161
22.67,-0.187,0.745,-0.005
22.68,-0.395,1.115,-0.142
22.69,-0.097,1.033,-0.066
22.7,-0.208,1.009,0.064
22.71,-0.166,0.843,0.194
22.72,-0.305,0.877,-0.057
22.73,-0.275,1.204,-0.162
22.74,-0.174,0.808,-0.063
22.75,-0.129,1.07,0.161
22.76,-0.116,0.791,0.113
22.77,-0.45,1.052,-0.087
22.78,-0.167,0.931,-0.139
22.79,-0.294,1.059,0.123
22.8,-0.014,0.967,0.151
22.81,-0.188,0.769,0.039
22.82,-0.414,1.181,-0.148
22.83,-0.123,0.928,-0.087
22.84,-0.114,1.157,0.055
22.85,-0.145,0.713,0.133
22.86,-0.309,1.002,-0.029
22.87,-0.271,1.096,-0.148
22.88,-0.18,0.876,-0.06
22.89,-0.174,1.086,0.156
22.9,-0.093,0.738,0.131
22.91,-0.333,1.143,-0.147
22.92,-0.231,0.825,-0.141
22.93,-0.251,1.17,0.049
22.94,0.013,0.901,0.168
22.95,-0.198,0.85,0.022
22.96,-0.393,1.076,-0.139
22.97,-0.158,0.939,-0.051
22.98,-0.153,1.18,0.027
22.99,-0.045,0.639,0.152
23.0,-0.385,1.121,-0.012
23.01,-0.231,0.861,-0.156
23.02,-0.218,1.012,-0.07
23.03,-0.132,0.958,0.128
23.04,-0.133,0.835,0.18
23.05,-0.368,1.148,-0.103
23.06,-0.262,0.749,-0.134
23.07,-0.271,1.247,0.019
23.08,0.007,0.811,0.155
23.09,-0.208,1.015,0.063
23.1,-0.304,0.886,-0.145
23.11,-0.235,1.025,-0.095
23.12,-0.115,1.132,0.013
23.13,-0.046,0.67,0.128
23.14,-0.363,1.125,0.019
23.15,-0.253,0.857,-0.146
23.16,-0.244,1.148,-0.065
23.17,-0.147,0.799,0.091
23.18,-0.113,0.955,0.146
23.19,-0.332,0.986,-0.09
23.2,-0.291,0.878,-0.137
23.21,-0.128,1.149,-0.038
23.22,-0.11,0.849,0.206
23.23,-0.221,1.069,0.051
23.24,-0.358,0.806,-0.107
23.25,-0.193,1.147,-0.091
23.26,-0.197,1.039,0.059
23.27,-0.031,0.849,0.126
23.28,-0.241,0.981,0.025
23.29,-0.296,0.874,-0.13
23.3,-0.224,1.198,-0.054
23.31,-0.113,0.831,0.082
23.32,-0.103,0.984,0.128
23.33,-0.266,0.864,-0.006
23.34,-0.302,1.149,-0.16
23.35,-0.107,0.858,-0.034
23.36,-0.136,1.022,0.139
23.37,-0.163,0.894,0.104
23.38,-0.303,0.956,-0.136
23.39,-0.217,1.098,-0.127
23.4,-0.148,0.856,-0.002
23.41,-0.054,1.081,0.153
23.42,-0.197,0.754,0.021
23.43,-0.359,1.064,-0.163
23.44,-0.204,0.927,-0.058
23.45,-0.076,1.117,0.071
23.46,-0.187,0.882,0.139
23.47,-0.32,0.807,-0.008
23.48,-0.291,1.174,-0.145
23.49,-0.031,0.93,-0.077
23.5,-0.345,1.098,0.105
23.51,-0.111,0.713,0.122
23.52,-0.299,1.123,-0.084
23.53,-0.224,0.969,-0.143
23.54,-0.314,0.989,-0.026
23.55,-0.113,0.995,0.2
23.56,-0.243,0.755,0.029
23.57,-0.373,1.134,-0.126
23.58,-0.16,0.903,-0.085
23.59,-0.125,1.219,0.036
23.6,-0.106,0.664,0.173
23.61,-0.313,0.989,0.041
23.62,-0.229,1.045,-0.189
23.63,-0.206,0.942,-0.072
23.64,-0.143,1.06,0.098
23.65,-0.145,0.721,0.176
23.66,-0.321,1.155,-0.087
23.67,-0.26,0.803,-0.14
23.68,-0.249,1.174,-0.004
23.69,-0.086,0.909,0.171
23.7,-0.104,0.868,0.053
23.71,-0.387,1.051,-0.134
23.72,-0.193,0.892,-0.064
23.73,-0.089,1.258,0.029
23.74,-0.1,0.679,0.146
23.75,-0.273,1.044,0.004
23.76,-0.264,0.937,-0.152
23.77,-0.211,1.086,-0.099
23.78,-0.127,0.898,0.105
23.79,-0.151,0.808,0.167
23.8,-0.303,1.133,-0.079
23.81,-0.304,0.826,-0.145
23.82,-0.265,1.119,-0.014
23.83,-0.099,0.824,0.172
23.84,-0.216,1.031,0.063
23.85,-0.346,0.88,-0.139
23.86,-0.211,0.962,-0.112
23.87,-0.213,1.092,0.107
23.88,-0.041,0.79,0.159
23.89,-0.254,1.025,0.032
23.9,-0.341,0.826,-0.16
23.91,-0.169,1.22,-0.094
23.92,-0.105,0.837,0.068
23.93,-0.104,0.925,0.138
23.94,-0.301,0.969,-0.046
23.95,-0.306,0.982,-0.142
23.96,-0.302,1.037,0.004
23.97,-0.098,0.792,0.123
23.98,-0.178,1.049,0.089
23.99,-0.324,0.854,-0.093
24.0,-0.253,1.103,-0.11
24.01,-0.142,0.947,0.016
24.02,-0.097,0.964,0.154
24.03,-0.206,0.945,0.055
24.04,-0.351,0.878,-0.134
24.05,-0.171,1.157,-0.045
24.06,-0.071,0.88,0.041
24.07,-0.125,0.997,0.129
24.08,-0.256,0.807,-0.012
24.09,-0.311,1.163,-0.148
24.1,-0.11,0.966,-0.07
24.11,-0.173,0.9,0.118
24.12,-0.219,0.923,0.173
24.13,-0.314,0.912,-0.086
24.14,-0.244,1.219,-0.151
24.15,-0.17,0.83,-0.003
24.16,-0.035,1.047,0.077
24.17,-0.097,0.719,0.003
24.18,-0.465,1.134,-0.15
24.19,-0.132,0.924,-0.083
24.2,-0.063,1.129,0.039
24.21,-0.162,0.808,0.127
24.22,-0.283,0.865,-0.017
24.23,-0.339,1.213,-0.105
24.24,-0.159,0.873,-0.047
24.25,-0.177,1.086,0.124
24.26,-0.147,0.689,0.107
24.27,-0.359,1.181,-0.089
24.28,-0.176,0.883,-0.167
24.29,-0.268,0.996,0.01
24.3,-0.099,0.99,0.231
24.31,-0.144,0.807,0.05
24.32,-0.382,1.098,-0.144
24.33,-0.206,0.854,-0.053
24.34,-0.178,1.274,0.081
24.35,-0.048,0.707,0.116
24.36,-0.349,0.994,-0.009
24.37,-0.271,0.982,-0.155
24.38,-0.148,1.004,-0.074
24.39,-0.146,0.993,0.082
24.4,-0.152,0.67,0.198
24.41,-0.315,1.233,-0.094
24.42,-0.246,0.842,-0.165
24.43,-0.21,1.094,-0.006
24.44,-0.078,0.881,0.189
24.45,-0.189,0.939,0.049
24.46,-0.379,1.001,-0.154
24.47,-0.21,0.834,-0.101
24.48,-0.226,1.264,0.144
24.49,0.043,0.735,0.13
24.5,-0.336,1.064,-0.003
24.51,-0.348,0.823,-0.102
24.52,-0.148,1.204,-0.082
24.53,-0.138,0.907,0.077
24.54,-0.156,0.774,0.135
24.55,-0.278,1.135,-0.044
24.56,-0.256,0.86,-0.15
24.57,-0.226,1.135,-0.045
24.58,-0.114,0.793,0.197
24.59,-0.126,1.071,0.058
24.6,-0.353,0.828,-0.13
24.61,-0.213,1.006,-0.117
24.62,-0.174,1.126,0.069
24.63,-0.022,0.765,0.143
24.64,-0.249,1.03,0.022
24.65,-0.364,0.827,-0.14
24.66,-0.122,1.189,-0.074
24.67,-0.136,0.824,0.066
24.68,-0.078,0.933,0.144
24.69,-0.338,0.988,-0.039
24.7,-0.273,0.983,-0.178
24.71,-0.261,1.034,-0.024
24.72,-0.064,0.836,0.142
24.73,-0.211,1.078,0.096
24.74,-0.398,0.804,-0.102
24.75,-0.182,1.084,-0.099
24.76,-0.402,0.983,0.086
24.77,-0.043,0.958,0.133
24.78,-0.179,0.893,0.044
24.79,-0.318,0.917,-0.136
24.8,-0.285,1.183,-0.052
24.81,-0.1,0.863,0.027
24.82,-0.073,0.973,0.141
24.83,-0.308,0.83,-0.03
24.84,-0.257,1.171,-0.149
24.85,-0.196,0.908,-0.098
24.86,-0.102,0.923,0.114
24.87,-0.162,0.974,0.171
24.88,-0.309,0.951,-0.107
24.89,-0.282,1.083,-0.132
24.9,-0.175,0.842,-0.018
24.91,-0.088,1.157,0.2
24.92,-0.092,0.809,0.027
24.93,-0.401,1.035,-0.133
24.94,-0.275,0.986,-0.071
24.95,-0.093,1.09,0.031
24.96,-0.078,0.929,0.141
24.97,-0.249,0.77,-0.01
24.98,-0.368,1.215,-0.116
24.99,-0.143,0.871,-0.08
25.0,-0.163,1.078,0.07
25.01,-0.112,0.716,0.19
25.02,-0.342,1.171,-0.094
25.03,-0.268,0.842,-0.129
25.04,-0.319,1.023,-0.028
25.05,-0.038,1.003,0.183
25.06,-0.156,0.835,0.041
25.07,-0.347,1.054,-0.144
25.08,-0.283,0.831,-0.05
25.09,-0.067,1.316,0.05
25.1,-0.03,0.731,0.111
25.11,-0.267,0.985,0.023
25.12,-0.335,0.959,-0.136
25.13,-0.139,1.073,-0.095
25.14,-0.168,1.051,0.079
25.15,-0.091,0.696,0.14
25.16,-0.398,1.158,0.005
25.17,-0.22,0.834,-0.168
25.18,-0.246,1.122,-0.043
25.19,-0.078,0.814,0.114
25.2,-0.117,0.969,0.15
25.21,-0.363,1.012,-0.153
25.22,-0.236,0.765,-0.147
25.23,-0.296,1.172,0.046
25.24,-0.025,0.811,0.163
25.25,-0.182,1.086,0.036
25.26,-0.331,0.777,-0.125
25.27,-0.274,1.093,-0.089
25.28,-0.022,1.022,0.003
25.29,-0.042,0.847,0.135
25.3,-0.322,0.999,0.013
25.31,-0.297,0.902,-0.094
25.32,-0.168,1.182,-0.091
25.33,-0.129,0.781,0.123
25.34,-0.192,1.034,0.13
25.35,-0.26,0.92,-0.035
25.36,-0.299,1.106,-0.162
25.37,-0.227,0.91,-0.052
25.38,-0.122,0.861,0.174
25.39,-0.15,1.106,0.116
25.4,-0.283,0.81,-0.145
25.41,-0.328,1.104,-0.106
25.42,-0.184,0.919,0.017
25.43,-0.104,1.106,0.171
25.44,-0.18,0.801,0.034
25.45,-0.387,0.954,-0.128
25.46,-0.274,1.121,-0.029
25.47,-0.058,0.981,0.025
25.48,-0.137,0.943,0.149
25.49,-0.243,0.749,0.002
25.5,-0.316,1.216,-0.135
25.51,-0.197,0.881,-0.099
25.52,-0.121,0.99,0.09
25.53,-0.174,0.867,0.156
25.54,-0.299,0.969,-0.074
25.55,-0.356,1.074,-0.128
25.56,-0.194,0.84,-0.03
25.57,-0.183,1.085,0.17
25.58,-0.097,0.76,0.068
25.59,-0.376,1.105,-0.107
25.6,-0.228,0.858,-0.112
25.61,-0.12,1.163,0.057
25.62,-0.033,0.95,0.091
25.63,-0.218,0.776,0.046
25.64,-0.339,1.115,-0.12
25.65,-0.179,0.933,-0.087
25.66,-0.135,1.199,0.042
25.67,-0.3,1.051,-0.153
25.68,-0.173,0.916,-0.084
25.69,-0.146,1.021,0.13
25.7,-0.138,0.735,0.136
25.71,-0.383,1.19,-0.089
25.72,-0.266,0.803,-0.122
25.73,-0.242,1.115,-0.002
25.74,-0.006,0.828,0.176
25.75,-0.249,1.055,0.019
25.76,-0.324,0.882,-0.108
25.77,-0.156,1.02,-0.086
25.78,-0.104,1.154,0.059
25.79,-0.068,0.771,0.174
25.8,-0.324,1.091,0.029
25.81,-0.256,0.791,-0.128
25.82,-0.129,1.257,-0.047
25.83,-0.115,0.808,0.1
25.84,-0.23,0.912,0.18
25.85,-0.277,0.959,-0.063
25.86,-0.261,0.974,-0.142
25.87,-0.136,1.075,-0.039
25.88,-0.267,0.767,0.138
25.89,-0.198,1.075,0.107
25.9,-0.26,0.881,-0.174
25.91,-0.247,1.122,-0.094
25.92,-0.198,0.939,0.052
25.93,-0.01,0.934,0.177
25.94,-0.256,0.973,0.036
25.95,-0.357,0.862,-0.148
25.96,-0.143,1.203,-0.055
25.97,-0.143,0.832,0.071
25.98,-0.196,1.0,0.17
25.99,-0.257,0.858,-0.015
26.0,-0.274,1.152,-0.192
26.01,-0.214,0.899,-0.042
26.02,-0.142,0.885,0.119
26.03,-0.107,1.023,0.145
26.04,-0.326,0.872,-0.116
26.05,-0.284,1.114,-0.145
26.06,-0.225,0.884,0.029
26.07,-0.042,1.092,0.164
26.08,-0.186,0.798,0.05
26.09,-0.35,1.001,-0.144
26.1,-0.225,1.106,-0.051
26.11,-0.136,0.979,0.002
26.12,-0.096,0.914,0.172
26.13,-0.217,0.767,0.007
26.14,-0.329,1.248,-0.128
26.15,-0.15,0.919,-0.116
26.16,-0.166,0.989,0.096
26.17,-0.142,0.776,0.165
26.18,-0.293,1.006,-0.058
26.19,-0.342,1.08,-0.148
26.2,-0.173,0.825,-0.047
26.21,-0.148,1.123,0.181
26.22,-0.073,0.77,0.051
26.23,-0.323,1.144,-0.125
26.24,-0.217,0.801,-0.142
26.25,-0.178,1.134,0.013
26.26,-0.065,1.003,0.18
26.27,-0.229,0.81,0.034
26.28,-0.363,1.052,-0.146
26.29,-0.198,0.936,-0.004
26.3,-0.032,1.263,0.01
26.31,-0.112,0.629,0.167
26.32,-0.346,1.057,0.015
26.33,-0.234,0.964,-0.129
26.34,-0.154,1.059,-0.11
26.35,-0.227,0.959,0.105
26.36,-0.163,0.749,0.166
26.37,-0.284,1.178,-0.093
26.38,-0.328,0.782,-0.129
26.39,-0.159,1.126,-0.038
26.4,-0.111,0.876,0.147
26.41,-0.124,0.986,0.059
26.42,-0.302,0.961,-0.13
26.43,-0.261,0.924,-0.142
26.44,-0.199,1.158,0.072
26.45,-0.026,0.748,0.167
26.46,-0.233,1.093,0.014
26.47,-0.382,0.812,-0.095
26.48,-0.151,1.168,-0.105
26.49,-0.195,0.907,0.087
26.5,-0.069,0.855,0.133
26.51,-0.318,1.11,-0.013
26.52,-0.312,0.9,-0.184
26.53,-0.24,1.071,-0.051
26.54,-0.119,0.812,0.138
26.55,-0.175,1.121,0.141
26.56,-0.346,0.801,-0.085
26.57,-0.239,1.093,-0.124
26.58,-0.186,0.97,0.044
26.59,-0.081,0.985,0.122
26.6,-0.219,0.844,0.034
26.61,-0.279,0.963,-0.105
26.62,-0.265,1.196,-0.076
26.63,-0.121,0.878,0.011
26.64,-0.099,1.021,0.171
26.65,-0.197,0.769,-0.052
26.66,-0.377,1.189,-0.101
26.67,-0.148,0.917,-0.097
26.68,-0.153,0.957,0.115
26.69,-0.161,0.867,0.125
26.7,-0.3,0.954,-0.054
26.71,-0.317,1.192,-0.161
26.72,-0.179,0.805,-0.034
26.73,-0.108,1.15,0.148
26.74,-0.144,0.777,0.093
26.75,-0.343,1.081,-0.119
26.76,-0.278,0.865,-0.1
26.77,-0.174,1.045,0.018
26.78,-0.12,1.056,0.171
26.79,-0.17,0.764,-0.01
26.8,-0.371,1.101,-0.139
26.81,-0.234,0.881,-0.01
26.82,-0.057,1.23,0.047
26.83,-0.143,0.723,0.176
26.84,-0.356,0.976,-0.005
26.85,-0.302,0.974,-0.135
26.86,-0.064,0.969,-0.139
26.87,-0.157,1.079,0.125
26.88,-0.112,0.666,0.114
26.89,-0.328,1.192,-0.085
26.9,-0.281,0.834,-0.132
26.91,-0.209,1.126,-0.029
26.92,-0.08,0.894,0.194
26.93,-0.147,0.914,0.052
26.94,-0.34,1.037,-0.145
26.95,-0.225,0.846,-0.091
26.96,-0.166,1.237,0.021
26.97,0.022,0.732,0.154
26.98,-0.259,1.064,-0.001
26.99,-0.33,0.823,-0.114
27.0,-0.234,1.122,-0.042
27.01,-0.063,0.998,0.054
27.02,-0.093,0.782,0.128
27.03,-0.335,1.11,0.003
27.04,-0.267,0.892,-0.129
27.05,-0.185,1.215,-0.08
27.06,-0.107,0.743,0.122
27.07,-0.132,1.041,0.12
27.08,-0.303,0.937,-0.093
27.09,-0.3,0.986,-0.119
27.1,-0.157,1.032,-0.017
27.11,-0.169,0.87,0.202
27.12,-0.209,1.065,0.041
27.13,-0.387,0.805,-0.113
27.14,-0.213,1.149,-0.106
27.15,-0.06,0.956,0.022
27.16,-0.092,0.937,0.182
27.17,-0.244,0.885,0.018
27.18,-0.364,0.992,-0.109
27.19,-0.105,1.132,-0.089
27.2,-0.201,0.795,0.093
27.21,-0.148,0.995,0.169
27.22,-0.316,0.884,-0.043
27.23,-0.242,1.141,-0.171
27.24,-0.185,0.873,-0.027
27.25,-0.029,0.996,0.063
27.26,-0.148,0.927,0.104
27.27,-0.332,0.949,-0.114
27.28,-0.219,1.073,-0.147
27.29,-0.181,0.929,0.005
27.3,-0.112,1.134,0.194
27.31,-0.177,0.737,0.013
27.32,-0.38,1.093,-0.11
27.33,-0.206,1.018,-0.079
27.34,-0.073,1.023,0.062
27.35,-0.128,0.871,0.149
27.36,-0.313,0.843,-0.009
27.37,-0.292,1.22,-0.13
27.38,-0.196,0.854,-0.082
27.39,-0.058,1.042,0.025
27.4,-0.135,0.734,0.13
27.41,-0.358,1.179,-0.104
27.42,-0.28,0.802,-0.138
27.43,-0.187,1.093,-0.014
27.44,-0.049,0.959,0.128
27.45,-0.097,0.807,-0.011
27.46,-0.431,1.101,-0.11
27.47,-0.219,0.852,-0.055
27.48,-0.087,1.27,0.04
27.49,-0.294,0.716,0.261
27.5,-0.306,1.045,0.009
27.51,-0.349,0.913,-0.119
27.52,-0.156,1.06,-0.069
27.53,-0.139,1.022,0.049
27.54,-0.118,0.683,0.183
27.55,-0.322,1.155,-0.07
27.56,-0.184,0.845,-0.143
27.57,-0.315,1.151,0.017
27.58,-0.109,0.78,0.15
27.59,-0.14,0.982,0.118
27.6,-0.321,1.016,-0.14
27.61,-0.267,0.879,-0.095
27.62,-0.194,1.109,0.003
27.63,-0.058,0.837,0.198
27.64,-0.244,1.097,0.03
27.65,-0.333,0.775,-0.141
27.66,-0.186,1.192,-0.071
27.67,-0.119,0.968,0.034
27.68,-0.064,0.821,0.14
27.69,-0.299,1.041,-0.038
27.7,-0.261,0.934,-0.134
27.71,-0.226,1.142,-0.08
27.72,-0.18,0.727,0.103
27.73,-0.181,1.078,0.14
27.74,-0.295,0.871,-0.105
27.75,-0.3,1.05,-0.113
27.76,-0.294,0.963,0.06
27.77,-0.08,0.919,0.188
27.78,-0.175,1.01,0.052
27.79,-0.295,0.84,-0.125
27.8,-0.235,1.199,-0.113
27.81,-0.089,0.946,0.059
27.82,-0.112,1.023,0.112
27.83,-0.232,0.836,0.027
27.84,-0.348,1.052,-0.142
27.85,-0.144,1.106,-0.065
27.86,0.0,0.867,-0.026
27.87,-0.128,0.958,0.133
27.88,-0.344,0.831,-0.021
27.89,-0.281,1.214,-0.168
27.9,-0.157,0.825,-0.057
27.91,-0.141,1.056,0.131
27.92,-0.165,0.868,0.125
27.93,-0.371,0.991,-0.104
27.94,-0.2,0.988,-0.122
27.95,-0.144,0.937,0.041
27.96,-0.195,1.118,0.271
27.97,-0.163,0.72,0.013
27.98,-0.347,1.129,-0.167
27.99,-0.138,0.969,-0.065
28.0,-0.062,1.089,-0.039
28.01,-0.041,0.814,0.177
28.02,-0.321,0.855,-0.035
28.03,-0.344,1.147,-0.094
28.04,-0.119,0.865,-0.057
28.05,-0.149,1.152,0.063
28.06,-0.129,0.676,0.142
28.07,-0.323,1.137,-0.095
28.08,-0.226,0.905,-0.155
28.09,-0.241,1.008,-0.006
28.1,-0.135,1.015,0.208
28.11,-0.11,0.795,0.084
28.12,-0.343,1.145,-0.158
28.13,-0.246,0.806,-0.08
28.14,-0.154,1.267,0.026
28.15,-0.049,0.795,0.18
28.16,-0.316,0.973,-0.008
28.17,-0.322,0.913,-0.132
28.18,-0.09,1.031,-0.069
28.19,-0.065,1.118,0.043
28.2,-0.181,0.688,0.188
28.21,-0.334,1.115,-0.065
28.22,-0.158,0.886,-0.134
28.23,-0.221,1.171,-0.08
28.24,-0.169,0.7,0.134
28.25,-0.118,1.06,0.106
28.26,-0.311,0.914,-0.138
28.27,-0.245,0.938,-0.104
28.28,-0.163,1.078,0.018
28.29,-0.061,0.867,0.152
28.3,-0.257,1.03,0.035
28.31,-0.322,0.798,-0.165
28.32,-0.177,1.23,-0.082
28.33,-0.429,0.908,0.162
28.34,-0.131,0.919,0.159
28.35,-0.286,0.903,-0.021
28.36,-0.22,1.025,-0.139
28.37,-0.183,1.114,-0.063
28.38,-0.067,0.736,-0.005
28.39,-0.136,1.09,0.136
28.4,-0.302,0.896,-0.101
28.41,-0.269,1.119,-0.151
28.42,-0.176,0.914,-0.007
28.43,-0.085,1.002,0.189
28.44,-0.243,0.962,0.096
28.45,-0.31,0.849,-0.172
28.46,-0.234,1.183,-0.07
28.47,-0.157,0.942,0.054
28.48,-0.077,0.964,0.166
28.49,-0.273,0.769,-0.012
28.5,-0.329,1.148,-0.132
28.51,-0.106,1.007,-0.084
28.52,-0.317,0.903,0.135
28.53,-0.15,0.88,0.143
28.54,-0.292,0.917,-0.077
28.55,-0.31,1.167,-0.114
28.56,-0.188,0.806,-0.069
28.57,-0.169,1.127,0.228
28.58,-0.119,0.796,0.075
28.59,-0.38,1.005,-0.141
28.6,-0.211,0.984,-0.099
28.61,-0.142,1.07,0.055
28.62,-0.074,0.972,0.135
28.63,-0.195,0.735,0.009
28.64,-0.386,1.199,-0.153
28.65,-0.11,0.927,-0.091
28.66,-0.219,1.146,0.094
28.67,-0.086,0.738,0.145
28.68,-0.349,0.958,-0.022
28.69,-0.222,1.081,-0.154
28.7,-0.226,0.888,-0.054
28.71,-0.177,1.079,0.141
28.72,-0.097,0.758,0.143
28.73,-0.35,1.172,-0.135
28.74,-0.237,0.797,-0.147
28.75,-0.267,1.172,0.036
28.76,-0.061,0.937,0.158
28.77,-0.157,0.816,0.046
28.78,-0.351,1.073,-0.125
28.79,-0.19,0.893,-0.067
28.8,-0.111,1.276,0.039
28.81,-0.042,0.726,0.154
28.82,-0.308,1.036,-0.012
28.83,-0.304,0.919,-0.121
28.84,-0.11,1.1,-0.091
28.85,-0.187,0.959,0.112
28.86,-0.162,0.75,0.136
28.87,-0.312,1.169,-0.059
28.88,-0.292,0.817,-0.135
28.89,-0.218,1.101,-0.06
28.9,-0.027,0.821,0.137
28.91,-0.173,1.031,0.068
28.92,-0.359,0.941,-0.124
28.93,-0.243,0.947,-0.082
28.94,-0.1,1.209,0.023
28.95,-0.075,0.734,0.134
28.96,-0.243,1.027,0.012
28.97,-0.371,0.829,-0.091
28.98,-0.178,1.194,-0.087
28.99,-0.174,0.893,0.072
29.0,-0.065,0.895,0.156
29.01,-0.315,1.025,-0.043
29.02,-0.28,0.93,-0.16
29.03,-0.211,1.035,-0.009
29.04,-0.04,0.872,0.107
29.05,-0.173,1.087,0.11
29.06,-0.334,0.839,-0.106
29.07,-0.242,1.118,-0.151
29.08,-0.222,0.949,0.065
29.09,-0.054,1.04,0.152
29.1,-0.225,0.836,0.046
29.11,-0.351,0.951,-0.162
29.12,-0.144,1.154,-0.076
29.13,-0.089,0.938,0.032
29.14,-0.131,0.964,0.172
29.15,-0.264,0.803,-0.023
29.16,-0.351,1.212,-0.112
29.17,-0.152,0.855,-0.092
29.18,-0.102,0.975,0.101
29.19,-0.184,0.917,0.142
29.2,-0.303,0.948,-0.117
29.21,-0.285,1.073,-0.085
29.22,-0.158,0.902,-0.03
29.23,-0.158,1.12,0.195
29.24,-0.115,0.727,0.038
29.25,-0.357,1.114,-0.099
29.26,-0.202,0.963,-0.081
29.27,-0.118,1.12,0.024
29.28,-0.124,0.871,0.143
29.29,-0.256,0.807,0.025
29.3,-0.353,1.162,-0.135
29.31,-0.156,0.903,-0.06
29.32,-0.277,1.162,0.081
29.33,-0.028,0.698,0.156
29.34,-0.359,1.055,-0.054
29.35,-0.274,0.987,-0.19
29.36,-0.195,0.926,-0.051
29.37,-0.083,1.053,0.137
29.38,-0.211,0.784,0.113
29.39,-0.367,1.165,-0.098
29.4,-0.231,0.777,-0.106
29.41,-0.207,1.195,0.032
29.42,-0.057,0.854,0.147
29.43,-0.245,0.937,0.015
29.44,-0.315,1.016,-0.132
29.45,-0.188,0.922,-0.082
29.46,-0.372,1.207,0.089
29.47,-0.037,0.649,0.126
29.48,-0.328,1.116,0.0
29.49,-0.285,0.885,-0.117
29.5,-0.167,1.102,-0.11
29.51,-0.159,0.888,0.13
29.52,-0.123,0.874,0.166
29.53,-0.339,1.091,-0.105
29.54,-0.301,0.796,-0.162
29.55,-0.195,1.135,-0.013
29.56,0.025,0.759,0.068
29.57,-0.162,1.084,0.111
29.58,-0.302,0.898,-0.154
29.59,-0.257,0.977,-0.101
29.6,-0.196,1.079,0.062
29.61,-0.011,0.861,0.148
29.62,-0.27,1.034,0.018
29.63,-0.358,0.804,-0.128
29.64,-0.156,1.256,-0.058
29.65,-0.166,0.881,0.058
29.66,-0.164,0.912,0.16
29.67,-0.285,0.955,-0.022
29.68,-0.198,1.036,-0.191
29.69,-0.231,1.034,-0.055
29.7,-0.126,0.713,0.12
29.71,-0.142,1.074,0.163
29.72,-0.278,0.89,-0.117
29.73,-0.335,1.107,-0.123
29.74,-0.192,0.887,0.011
29.75,-0.018,1.0,0.163
29.76,-0.193,0.878,0.041
29.77,-0.361,0.904,-0.11
29.78,-0.227,1.19,-0.064
29.79,-0.032,0.909,-0.003
29.8,-0.113,0.986,0.16
29.81,-0.278,0.789,-0.034
29.82,-0.336,1.164,-0.114
29.83,-0.151,0.948,-0.089
29.84,-0.099,0.925,0.087
29.85,-0.158,0.841,0.144
29.86,-0.345,1.0,-0.097
29.87,-0.31,1.012,-0.11
29.88,-0.16,0.927,0.0
29.89,-0.136,1.133,0.163
29.9,-0.084,0.748,0.031
29.91,-0.393,1.133,-0.131
29.92,-0.208,0.842,-0.089
29.93,-0.126,1.185,0.075
29.94,-0.058,0.858,0.132
29.95,-0.28,0.842,0.012
29.96,-0.395,1.109,-0.133
29.97,-0.051,0.928,-0.07
29.98,-0.158,1.129,0.06
29.99,-0.197,0.66,0.19
30.0,-0.332,1.143,-0.05
30.01,-0.289,0.945,-0.147
30.02,-0.198,0.946,-0.033
30.03,0.011,0.981,0.025
30.04,-0.067,0.825,0.087
30.05,-0.414,1.126,-0.136
30.06,-0.22,0.747,-0.127
30.07,-0.259,1.293,0.053
30.08,-0.022,0.78,0.145
30.09,-0.25,0.98,0.05
30.1,-0.304,0.943,-0.149
30.11,-0.208,1.042,-0.082
30.12,-0.097,1.1,0.026
30.13,-0.052,0.678,0.165
30.14,-0.352,1.117,-0.051
30.15,-0.258,0.847,-0.117
30.16,-0.209,1.189,-0.074
30.17,-0.143,0.787,0.105
30.18,-0.145,0.908,0.16
30.19,-0.31,1.084,-0.068
30.2,-0.29,0.902,-0.159
30.21,-0.211,1.078,-0.015
30.22,-0.061,0.797,0.196
30.23,-0.193,1.133,0.062
30.24,-0.314,0.804,-0.149
30.25,-0.262,1.091,-0.1
30.26,-0.158,1.041,0.074
30.27,-0.03,0.893,0.148
30.28,-0.269,0.983,0.001
30.29,-0.36,0.856,-0.105
30.3,-0.231,1.221,-0.06
30.31,-0.146,0.795,0.058
30.32,-0.119,0.956,0.12
30.33,-0.271,0.901,-0.036
30.34,-0.267,1.085,-0.206
30.35,-0.214,0.944,-0.038
30.36,-0.13,0.868,0.145
30.37,-0.113,1.056,0.122
30.38,-0.356,0.844,-0.115
30.39,-0.243,1.092,-0.133
30.4,-0.167,0.963,0.08
30.41,-0.05,1.057,0.126
30.42,-0.22,0.818,0.053
30.43,-0.331,0.98,-0.124
30.44,-0.177,1.153,-0.043
30.45,-0.325,0.92,0.138
30.46,-0.119,0.941,0.157
30.47,-0.363,0.842,-0.012
30.48,-0.233,1.22,-0.157
30.49,-0.212,0.9,-0.073
30.5,-0.172,0.984,0.127
30.51,-0.181,0.856,0.152
30.52,-0.35,0.969,-0.096
30.53,-0.232,1.051,-0.113
30.54,-0.237,0.887,-0.027
30.55,-0.19,1.096,0.226
30.56,-0.15,0.757,0.032
30.57,-0.373,1.097,-0.112
30.58,-0.191,0.94,-0.099
30.59,-0.128,1.158,0.056
30.6,-0.124,0.836,0.158
30.61,-0.173,0.79,-0.009
30.62,-0.376,1.206,-0.108
30.63,-0.137,0.871,-0.125
30.64,-0.187,1.103,0.114
30.65,-0.097,0.726,0.137
30.66,-0.343,1.101,-0.04
30.67,-0.247,0.77,-0.162
30.68,-0.209,1.089,-0.025
30.69,-0.086,0.957,0.214
30.7,-0.081,0.865,0.048
30.71,-0.432,1.041,-0.126
30.72,-0.28,0.808,-0.085
30.73,-0.208,1.287,0.064
30.74,-0.003,0.676,0.125
30.75,-0.3,1.024,0.038
30.76,-0.308,0.885,-0.109
30.77,-0.184,1.137,-0.107
30.78,-0.131,0.98,0.055
30.79,-0.074,0.686,0.15
30.8,-0.331,1.144,0.009
30.81,-0.271,0.877,-0.135
30.82,-0.251,1.132,-0.064
30.83,-0.123,0.783,0.128
30.84,-0.153,1.022,0.144
30.85,-0.318,0.976,-0.111
30.86,-0.281,0.903,-0.116
30.87,-0.284,1.074,-0.02
30.88,-0.0,0.813,0.168
30.89,-0.216,1.088,0.075
30.9,-0.256,0.737,-0.139
30.91,-0.323,1.205,-0.083
30.92,-0.135,0.954,0.036
30.93,-0.009,0.935,0.157
30.94,-0.244,0.938,0.001
30.95,-0.369,0.922,-0.124
30.96,-0.153,1.177,-0.064
30.97,-0.099,0.795,0.064
30.98,-0.219,0.991,0.182
30.99,-0.268,0.823,-0.06
31.0,-0.249,1.212,-0.121
31.01,-0.341,0.947,0.021
31.02,-0.099,0.892,0.116
31.03,-0.157,0.971,0.146
31.04,-0.304,0.872,-0.111
31.05,-0.25,1.115,-0.158
31.06,-0.16,0.894,0.042
31.07,-0.119,1.113,0.15
31.08,-0.202,0.757,0.085
31.09,-0.377,1.05,-0.134
31.1,-0.194,1.058,-0.053
31.11,0.017,0.965,-0.001
31.12,-0.128,0.933,0.175
31.13,-0.288,0.784,-0.026
31.14,-0.361,1.199,-0.154
31.15,-0.111,0.839,-0.077
31.16,-0.131,1.084,0.093
31.17,-0.093,0.791,0.135
31.18,-0.352,1.014,-0.047
31.19,-0.277,1.008,-0.149
31.2,-0.161,0.896,-0.058
31.21,-0.153,1.104,0.155
31.22,-0.163,0.732,0.098
31.23,-0.351,1.154,-0.119
31.24,-0.195,0.86,-0.124
31.25,-0.188,1.179,0.036
31.26,-0.057,0.856,0.16
31.27,-0.21,0.847,0.015
31.28,-0.302,1.059,-0.171
31.29,-0.154,0.91,-0.09
31.3,-0.187,1.173,0.068
31.31,-0.018,0.639,0.134
31.32,-0.367,1.102,-0.013
31.33,-0.264,0.885,-0.147
31.34,-0.22,0.993,-0.053
31.35,-0.098,0.976,0.133
31.36,-0.16,0.82,0.117
31.37,-0.398,1.123,-0.116
31.38,-0.192,0.752,-0.124
31.39,-0.203,1.222,-0.016
31.4,-0.089,0.775,0.163
31.41,-0.17,1.013,0.07
31.42,-0.285,0.91,-0.114
31.43,-0.271,0.979,-0.097
31.44,-0.118,1.154,0.061
31.45,0.009,0.759,0.129
31.46,-0.325,1.074,0.008
31.47,-0.347,0.827,-0.121
31.48,-0.195,1.189,-0.065
31.49,-0.066,0.773,0.102
31.5,-0.169,1.06,0.12
31.51,-0.341,0.933,-0.03
31.52,-0.29,1.042,-0.153
31.53,-0.169,0.981,-0.079
31.54,-0.109,0.87,0.15
31.55,-0.198,1.055,0.097
31.56,-0.287,0.842,-0.113
31.57,-0.228,1.168,-0.127
31.58,-0.173,0.934,0.048
31.59,-0.111,1.019,0.169
31.6,-0.161,0.844,0.051
31.61,-0.322,1.016,-0.169
31.62,-0.238,1.137,-0.089
31.63,-0.054,0.881,0.007
31.64,-0.111,0.998,0.166
31.65,-0.244,0.795,-0.029
31.66,-0.383,1.216,-0.139
31.67,-0.179,0.88,-0.054
31.68,-0.153,1.037,0.105
31.69,-0.118,0.825,0.145
31.7,-0.377,0.946,-0.062
31.71,-0.229,1.128,-0.122
31.72,-0.21,0.865,-0.058
31.73,-0.137,1.065,0.163
31.74,-0.085,0.783,0.088
31.75,-0.329,1.108,-0.15
31.76,-0.309,0.861,-0.098
31.77,-0.205,1.082,0.04
31.78,-0.064,0.954,0.151
31.79,-0.179,0.767,0.019
31.8,-0.363,1.116,-0.134
31.81,-0.195,0.915,-0.044
31.82,-0.092,1.227,0.031
31.83,-0.068,0.68,0.148
31.84,-0.302,0.997,-0.018
31.85,-0.26,1.027,-0.116
31.86,-0.15,0.995,-0.116
31.87,-0.192,1.011,0.115
31.88,-0.135,0.744,0.142
31.89,-0.381,1.193,-0.099
31.9,-0.227,0.775,-0.151
31.91,-0.233,1.119,-0.027
31.92,-0.074,0.871,0.18
31.93,-0.132,0.966,0.07
31.94,-0.322,0.985,-0.091
31.95,-0.279,0.891,-0.115
31.96,-0.207,1.217,0.067
31.97,-0.002,0.753,0.143
31.98,-0.266,1.074,0.032
31.99,-0.311,0.823,-0.12
32.0,-0.224,1.177,-0.066
32.01,-0.095,0.942,0.03
32.02,-0.075,0.809,0.156
32.03,-0.308,1.03,-0.013
32.04,-0.283,0.909,-0.129
32.05,-0.242,1.142,-0.074
32.06,-0.102,0.748,0.084
32.07,-0.182,1.084,0.143
32.08,-0.334,0.925,-0.047
32.09,-0.261,1.024,-0.17
32.1,-0.207,0.982,-0.053
32.11,-0.141,0.875,0.156
32.12,-0.146,1.064,0.095
32.13,-0.315,0.815,-0.122
32.14,-0.266,1.104,-0.122
32.15,-0.19,0.926,0.061
32.16,-0.062,1.048,0.153
32.17,-0.193,0.81,0.004
32.18,-0.356,0.934,-0.124
32.19,-0.152,1.162,-0.057
32.2,-0.085,0.939,0.025
32.21,-0.137,0.948,0.14
32.22,-0.285,0.797,-0.015
32.23,-0.294,1.228,-0.144
32.24,-0.217,0.874,-0.076
32.25,-0.162,1.02,0.124
32.26,-0.139,0.933,0.164
32.27,-0.333,0.915,-0.116
32.28,-0.294,1.005,-0.111
32.29,-0.16,0.875,-0.017
32.3,-0.135,1.126,0.21
32.31,-0.185,0.751,0.045
32.32,-0.338,1.111,-0.096
32.33,-0.216,0.883,-0.12
32.34,-0.21,1.21,0.073
32.35,-0.063,0.757,0.152
32.36,-0.238,0.91,0.036
32.37,-0.342,1.042,-0.121
32.38,-0.131,0.919,-0.095
32.39,-0.165,1.127,0.048
32.4,-0.128,0.667,0.167
32.41,-0.3,1.116,-0.045
32.42,-0.245,0.895,-0.15
32.43,-0.252,1.049,-0.062
32.44,-0.095,0.919,0.111
32.45,-0.163,0.918,0.144
32.46,-0.339,1.073,-0.081
32.47,-0.235,0.765,-0.131
32.48,-0.239,1.184,-0.01
32.49,-0.117,0.8,0.161
32.5,-0.213,1.037,0.044
32.51,-0.328,0.872,-0.085
32.52,-0.186,1.029,-0.122
32.53,-0.174,1.099,0.041
32.54,-0.017,0.77,0.133
32.55,-0.252,1.077,0.05
32.56,-0.306,0.797,-0.139
32.57,-0.258,1.223,-0.086
32.58,-0.104,0.885,0.056
32.59,-0.128,0.941,0.116
32.6,-0.273,0.947,-0.005
32.61,-0.262,1.018,-0.161
32.62,-0.242,1.023,-0.031
32.63,-0.104,0.784,0.117
32.64,-0.176,1.087,0.132
32.65,-0.326,0.83,-0.108
32.66,-0.349,1.083,-0.13
32.67,-0.106,0.88,-0.03
32.68,-0.098,1.054,0.161
32.69,-0.169,0.954,0.066
32.7,-0.365,0.882,-0.12
32.71,-0.218,1.102,-0.1
32.72,-0.04,0.949,0.035
32.73,-0.059,1.031,0.113
32.74,-0.167,0.779,0.045
32.75,-0.375,1.139,-0.114
32.76,-0.094,1.049,-0.102
32.77,-0.176,1.008,0.035
32.78,-0.099,0.846,0.158
32.79,-0.302,0.879,-0.011
32.8,-0.299,1.191,-0.181
32.81,-0.194,0.813,-0.073
32.82,-0.075,1.08,0.089
32.83,-0.132,0.765,0.133
32.84,-0.333,1.075,-0.079
32.85,-0.281,0.919,-0.15
32.86,-0.162,0.928,0.015
32.87,-0.126,1.078,0.151
32.88,-0.177,0.754,0.09
32.89,-0.334,1.129,-0.121
32.9,-0.218,0.854,-0.106
32.91,-0.167,1.224,0.029
32.92,-0.057,0.774,0.15
32.93,-0.197,0.903,0.035
32.94,-0.343,1.029,-0.126
32.95,-0.161,0.977,-0.081
32.96,-0.17,1.14,0.084
32.97,-0.042,0.634,0.129
32.98,-0.327,1.104,-0.023
32.99,-0.354,0.868,-0.092
33.0,-0.148,1.076,-0.113
33.01,-0.106,0.928,0.108
33.02,-0.071,0.841,0.086
33.03,-0.371,1.11,-0.047
33.04,-0.256,0.81,-0.127
33.05,-0.233,1.116,-0.023
33.06,-0.064,0.802,0.168
33.07,-0.186,1.069,0.082
33.08,-0.311,0.879,-0.098
33.09,-0.286,0.987,-0.108
33.1,-0.148,1.066,0.012
33.11,-0.203,0.885,0.177
33.12,-0.242,1.068,0.021
33.13,-0.353,0.844,-0.151
33.14,-0.162,1.18,-0.041
33.15,-0.028,0.846,0.126
33.16,-0.112,0.995,0.159
33.17,-0.235,0.835,0.011
33.18,-0.347,1.164,-0.149
33.19,-0.131,1.009,-0.076
33.2,-0.151,0.899,0.095
33.21,-0.198,0.947,0.119
33.22,-0.383,0.914,-0.056
33.23,-0.239,1.194,-0.155
33.24,-0.191,0.789,-0.012
33.25,-0.073,1.066,0.154
33.26,-0.142,0.845,0.084
33.27,-0.315,0.996,-0.16
33.28,-0.189,0.959,-0.174
33.29,-0.191,0.999,0.032
33.3,-0.067,1.029,0.136
33.31,-0.239,0.767,0.061
33.32,-0.316,1.139,-0.153
33.33,-0.147,0.952,-0.071
33.34,-0.12,1.158,0.053
33.35,-0.205,0.737,0.296
33.36,-0.281,0.976,-0.011
33.37,-0.33,1.104,-0.138
33.38,-0.119,0.891,-0.105
33.39,-0.25,1.109,0.109
33.4,-0.082,0.701,0.072
33.41,-0.39,1.147,-0.064
33.42,-0.212,0.836,-0.175
33.43,-0.225,1.065,0.001
33.44,-0.079,0.958,0.169
33.45,-0.186,0.854,0.071
33.46,-0.376,1.078,-0.107
33.47,-0.15,0.826,-0.106
33.48,-0.188,1.239,0.007
33.49,-0.009,0.75,0.16
33.5,-0.245,1.042,0.033
33.51,-0.297,0.869,-0.133
33.52,-0.207,1.053,-0.044
33.53,-0.138,1.031,0.057
33.54,-0.109,0.747,0.17
33.55,-0.345,1.116,-0.059
33.56,-0.275,0.837,-0.113
33.57,-0.309,1.17,-0.014
33.58,-0.099,0.805,0.127
33.59,-0.102,0.957,0.13
33.6,-0.329,0.984,-0.068
33.61,-0.227,0.914,-0.15
33.62,-0.206,1.089,-0.01
33.63,-0.047,0.788,0.112
33.64,-0.244,1.146,0.069
33.65,-0.331,0.769,-0.157
33.66,-0.204,1.111,-0.084
33.67,-0.073,1.019,0.049
33.68,-0.075,0.982,0.176
33.69,-0.24,0.935,0.011
33.7,-0.332,0.909,-0.128
33.71,-0.124,1.201,-0.101
33.72,-0.37,0.82,0.101
33.73,-0.149,0.964,0.131
33.74,-0.308,0.84,-0.069
33.75,-0.3,1.155,-0.148
33.76,-0.167,0.951,-0.045
33.77,-0.138,0.873,0.139
33.78,-0.143,0.987,0.128
33.79,-0.351,0.878,-0.074
33.8,-0.198,1.153,-0.156
33.81,-0.204,0.87,-0.005
33.82,-0.132,1.042,0.252
33.83,-0.13,0.857,0.073
33.84,-0.399,1.004,-0.168
33.85,-0.225,0.983,-0.102
33.86,-0.134,1.002,0.079
33.87,-0.041,1.003,0.129
33.88,-0.325,0.755,-0.001
33.89,-0.31,1.188,-0.17
33.9,-0.141,0.968,-0.058
33.91,-0.055,1.075,0.051
33.92,-0.147,0.781,0.148
33.93,-0.34,0.983,-0.05
33.94,-0.229,1.136,-0.154
33.95,-0.229,0.932,0.003
33.96,-0.058,1.0,0.155
33.97,-0.098,0.826,0.056
33.98,-0.359,1.122,-0.142
33.99,-0.362,0.777,-0.1
34.0,-0.187,1.261,0.074
34.01,-0.225,0.962,-0.167
34.02,-0.189,1.093,-0.081
34.03,-0.047,0.833,0.034
34.04,-0.123,0.912,0.129
34.05,-0.306,1.061,-0.101
34.06,-0.25,0.847,-0.112
34.07,-0.129,1.173,-0.023
34.08,-0.083,0.787,0.189
34.09,-0.244,1.088,0.044
34.1,-0.327,0.807,-0.134
34.11,-0.142,1.083,-0.105
34.12,-0.091,1.032,0.059
34.13,-0.14,0.811,0.153
34.14,-0.279,1.03,-0.009
34.15,-0.273,0.863,-0.129
34.16,-0.132,1.21,-0.083
34.17,-0.194,0.777,0.293
34.18,-0.119,1.025,0.124
34.19,-0.337,0.926,-0.078
34.2,-0.222,0.996,-0.16
34.21,-0.164,1.047,-0.014
34.22,-0.136,0.81,0.203
34.23,-0.228,1.1,0.105
34.24,-0.291,0.809,-0.151
34.25,-0.241,1.127,-0.111
34.26,-0.145,0.921,0.058
34.27,-0.164,0.989,0.148
34.28,-0.257,0.913,0.03
34.29,-0.317,0.941,-0.152
34.3,-0.138,1.18,-0.046
34.31,-0.122,0.844,0.053
34.32,-0.166,0.99,0.175
34.33,-0.243,0.802,-0.051
34.34,-0.275,1.164,-0.217
34.35,-0.142,0.892,-0.06
34.36,-0.141,0.999,0.185
34.37,-0.148,0.939,0.099
34.38,-0.392,0.87,-0.092
34.39,-0.231,1.108,-0.138
34.4,-0.12,0.942,0.078
34.41,-0.075,1.058,0.12
34.42,-0.199,0.735,0.016
34.43,-0.347,1.13,-0.116
34.44,-0.065,1.056,-0.127
34.45,-0.159,0.973,0.05
34.46,-0.163,0.858,0.157
34.47,-0.27,0.865,0.009
34.48,-0.385,1.25,-0.159
34.49,-0.167,0.753,-0.102
34.5,-0.211,1.123,0.157
34.51,-0.042,0.803,0.13
34.52,-0.418,0.986,-0.133
34.53,-0.229,0.917,-0.102
34.54,-0.232,1.064,0.034
34.55,-0.029,1.099,0.102
34.56,-0.19,0.735,0.07
34.57,-0.366,1.126,-0.148
34.58,-0.257,0.879,-0.033
34.59,-0.122,1.25,0.054
34.6,-0.083,0.744,0.122
34.61,-0.295,0.917,0.013
34.62,-0.288,1.104,-0.134
34.63,-0.146,0.934,-0.117
34.64,-0.167,1.069,0.099
34.65,-0.061,0.667,0.154
34.66,-0.344,1.193,-0.047
34.67,-0.296,0.833,-0.165
34.68,-0.185,1.049,-0.023
34.69,-0.112,0.964,0.151
34.7,-0.16,0.866,0.103
34.71,-0.317,0.942,-0.152
34.72,-0.285,0.93,-0.046
34.73,-0.095,1.209,0.007
34.74,-0.007,0.712,0.165
34.75,-0.272,1.065,0.009
34.76,-0.342,0.833,-0.104
34.77,-0.161,1.186,-0.102
34.78,-0.153,0.878,0.05
34.79,-0.14,0.882,0.168
34.8,-0.3,1.075,-0.014
34.81,-0.251,0.865,-0.185
34.82,-0.262,1.105,-0.012
34.83,-0.099,0.793,0.144
34.84,-0.151,1.124,0.118
34.85,-0.24,0.85,-0.164
34.86,-0.288,1.043,-0.11
34.87,-0.226,1.005,0.03
34.88,0.013,0.921,0.133
34.89,-0.248,1.02,0.03
34.9,-0.339,0.828,-0.107
34.91,-0.25,1.267,-0.03
34.92,-0.07,0.914,-0.02
34.93,-0.161,0.95,0.206
34.94,-0.194,0.844,-0.021
34.95,-0.296,1.095,-0.117
34.96,-0.215,1.011,-0.088
34.97,-0.094,0.783,0.076
34.98,-0.169,1.059,0.19
34.99,-0.271,0.868,-0.077
35.0,-0.332,1.161,-0.125
35.01,-0.195,0.834,-0.047
35.02,-0.104,1.056,0.198
35.03,-0.13,0.922,0.064
35.04,-0.326,0.891,-0.122
35.05,-0.196,1.052,-0.097
35.06,-0.134,0.966,0.026
35.07,-0.139,1.098,0.134
35.08,-0.182,0.757,0.021
35.09,-0.384,1.131,-0.164
35.1,-0.147,0.974,-0.051
35.11,-0.093,1.101,0.046
35.12,-0.113,0.831,0.126
35.13,-0.334,0.855,-0.032
35.14,-0.251,1.192,-0.148
35.15,-0.146,0.872,-0.07
35.16,-0.085,1.114,0.046
35.17,-0.115,0.729,0.153
35.18,-0.375,1.121,-0.1
35.19,-0.279,0.935,-0.12
35.2,-0.149,0.973,-0.035
35.21,-0.086,1.013,0.136
35.22,-0.149,0.805,0.042
35.23,-0.428,1.157,-0.1
35.24,-0.189,0.823,-0.097
35.25,-0.081,1.29,0.023
35.26,-0.104,0.707,0.145
35.27,-0.25,0.922,0.052
35.28,-0.266,1.001,-0.192
35.29,-0.182,0.986,-0.07
35.3,-0.108,1.084,0.069
35.31,-0.088,0.697,0.162
35.32,-0.365,1.118,-0.034
35.33,-0.262,0.853,-0.151
35.34,-0.166,1.175,-0.047
35.35,-0.117,0.862,0.093
35.36,-0.201,0.889,0.183
35.37,-0.344,1.071,-0.101
35.38,-0.244,0.84,-0.135
35.39,-0.207,1.155,-0.028
35.4,-0.076,0.781,0.193
35.41,-0.208,1.09,0.044
35.42,-0.311,0.863,-0.148
35.43,-0.226,1.067,-0.104
35.44,-0.159,1.036,0.045
35.45,-0.065,0.834,0.175
35.46,-0.292,1.041,-0.014
35.47,-0.34,0.841,-0.123
35.48,-0.157,1.208,-0.061
35.49,-0.136,0.84,0.097
35.5,-0.183,0.946,0.131
35.51,-0.301,0.901,-0.066
35.52,-0.197,1.084,-0.139
35.53,-0.204,0.925,-0.019
35.54,-0.146,0.849,0.195
35.55,-0.217,0.947,0.1
35.56,-0.294,0.927,-0.149
35.57,-0.196,1.166,-0.118
35.58,-0.189,0.855,0.049
35.59,-0.35,1.081,0.248
35.6,-0.283,0.809,0.0
35.61,-0.271,1.058,-0.196
35.62,-0.115,1.041,-0.05
35.63,-0.18,0.944,0.106
35.64,-0.125,0.901,0.116
35.65,-0.271,0.817,-0.055
35.66,-0.186,1.203,-0.204
35.67,-0.215,0.855,-0.02
35.68,-0.062,1.058,0.105
35.69,-0.076,0.867,0.093
35.7,-0.382,0.998,-0.161
35.71,-0.181,1.01,-0.156
35.72,-0.086,1.028,0.005
35.73,-0.095,1.004,0.138
35.74,-0.284,0.738,0.039
35.75,-0.317,1.199,-0.147
35.76,-0.05,0.985,-0.098
35.77,-0.125,1.074,-0.024
35.78,-0.109,0.72,0.14
35.79,-0.276,0.987,-0.026
35.8,-0.26,1.125,-0.16
35.81,-0.168,0.855,-0.052
35.82,-0.158,1.068,0.162
35.83,-0.096,0.756,0.092
35.84,-0.422,1.142,-0.128
35.85,-0.215,0.844,-0.101
35.86,-0.177,1.164,0.041
35.87,-0.056,0.924,0.165
35.88,-0.221,0.817,0.029
35.89,-0.411,1.166,-0.163
35.9,-0.075,0.911,-0.085
35.91,-0.168,1.2,0.083
35.92,-0.096,0.623,0.151
35.93,-0.371,1.063,-0.025
35.94,-0.231,0.984,-0.158
35.95,-0.155,0.979,-0.095
35.96,-0.248,0.955,0.151
35.97,-0.07,0.765,0.098
35.98,-0.432,1.178,-0.093
35.99,-0.206,0.759,-0.119
36.0,-0.158,1.293,0.061
36.01,-0.079,0.826,0.098
36.02,-0.222,0.905,0.051
36.03,-0.294,0.995,-0.112
36.04,-0.209,0.993,-0.1
36.05,-0.157,1.172,0.059
36.06,-0.071,0.687,0.148
36.07,-0.385,1.086,0.004
36.08,-0.228,0.841,-0.114
36.09,-0.175,1.152,-0.074
36.1,-0.124,0.822,0.118
36.11,-0.117,0.907,0.129
36.12,-0.314,1.114,-0.099
36.13,-0.318,0.835,-0.156
36.14,-0.187,1.116,0.009
36.15,-0.044,0.819,0.176
36.16,-0.235,1.098,0.032
36.17,-0.355,0.796,-0.132
36.18,-0.203,1.056,-0.085
36.19,-0.058,1.095,0.064
36.2,-0.103,0.776,0.151
36.21,-0.317,1.041,0.033
36.22,-0.221,0.876,-0.124
36.23,-0.23,1.162,-0.061
36.24,-0.163,0.766,0.127
36.25,-0.096,1.028,0.151
36.26,-0.31,0.965,-0.097
36.27,-0.344,0.969,-0.132
36.28,-0.166,0.988,-0.025
36.29,0.045,0.865,0.072
36.3,-0.22,1.091,0.025
36.31,-0.384,0.785,-0.119
36.32,-0.177,1.141,-0.091
36.33,-0.047,0.989,0.04
36.34,-0.05,0.937,0.113
36.35,-0.229,0.798,-0.003
36.36,-0.316,1.136,-0.13
36.37,-0.155,1.012,-0.072
36.38,-0.142,0.876,0.084
36.39,-0.163,0.983,0.175
36.4,-0.31,0.894,-0.085
36.41,-0.298,1.122,-0.134
36.42,-0.162,0.848,-0.005
36.43,-0.117,1.083,0.178
36.44,-0.152,0.858,0.062
36.45,-0.363,0.985,-0.143
36.46,-0.252,1.033,-0.091
36.47,-0.052,1.002,0.029
36.48,-0.156,1.023,0.169
36.49,-0.234,0.749,0.003
36.5,-0.33,1.16,-0.159
36.51,-0.167,0.937,-0.037
36.52,-0.105,1.092,0.072
36.53,-0.104,0.775,0.157
36.54,-0.321,0.952,-0.057
36.55,-0.324,1.103,-0.156
36.56,-0.199,0.826,-0.025
36.57,-0.123,1.103,0.134
36.58,-0.173,0.765,0.117
36.59,-0.353,1.124,-0.121
36.6,-0.226,0.843,-0.143
36.61,-0.158,1.118,0.059
36.62,-0.096,0.996,0.156
36.63,-0.245,0.823,-0.006
36.64,-0.371,1.081,-0.135
36.65,-0.174,0.896,-0.032
36.66,-0.221,1.22,0.015
36.67,-0.139,0.649,0.155
36.68,-0.345,1.073,-0.025
36.69,-0.211,0.993,-0.183
36.7,-0.2,0.977,-0.039
36.71,-0.158,0.937,0.162
36.72,-0.061,0.8,0.181
36.73,-0.396,1.198,-0.165
36.74,-0.288,0.756,-0.099
36.75,-0.264,1.227,0.033
36.76,0.037,0.836,0.145
36.77,-0.298,0.938,0.029
36.78,-0.301,0.974,-0.125
36.79,-0.163,1.009,-0.058
36.8,-0.122,1.151,0.036
36.81,-0.098,0.665,0.172
36.82,-0.344,1.13,-0.031
36.83,-0.275,0.855,-0.141
36.84,-0.202,1.117,-0.084
36.85,-0.104,0.851,0.131
36.86,-0.168,0.912,0.157
36.87,-0.367,1.068,-0.087
36.88,-0.193,0.793,-0.148
36.89,-0.244,1.201,0.001
36.9,-0.049,0.768,0.187
36.91,-0.202,1.111,0.067
36.92,-0.264,0.823,-0.177
36.93,-0.235,1.113,-0.062
36.94,-0.164,1.069,0.046
36.95,-0.104,0.771,0.142
36.96,-0.269,1.089,0.006
36.97,-0.277,0.875,-0.119
36.98,-0.222,1.223,-0.063
36.99,-0.105,0.747,0.107
37.0,-0.146,1.009,0.159
37.01,-0.277,0.937,-0.088
37.02,-0.278,1.025,-0.194
37.03,-0.215,1.0,-0.003
37.04,-0.15,0.852,0.223
37.05,-0.156,1.1,0.064
37.06,-0.375,0.798,-0.16
37.07,-0.22,1.12,-0.103
37.08,-0.342,1.013,0.211
37.09,-0.076,0.945,0.132
37.1,-0.244,0.882,0.01
37.11,-0.321,0.917,-0.142
37.12,-0.098,1.171,-0.047
37.13,-0.185,0.818,0.067
37.14,-0.169,0.961,0.181
37.15,-0.269,0.885,-0.046
37.16,-0.218,1.219,-0.164
37.17,-0.199,0.801,-0.025
37.18,-0.233,1.068,0.141
37.19,-0.139,0.871,0.069
37.2,-0.366,1.002,-0.184
37.21,-0.194,0.997,-0.131
37.22,-0.414,1.033,0.13
37.23,-0.116,0.988,0.106
37.24,-0.265,0.724,0.012
37.25,-0.349,1.176,-0.124
37.26,-0.069,0.959,-0.09
37.27,-0.202,1.068,0.105
37.28,-0.153,0.788,0.137
37.29,-0.272,0.969,-0.068
37.3,-0.255,1.107,-0.164
37.31,-0.151,0.889,-0.075
37.32,-0.125,1.097,0.204
37.33,-0.124,0.722,0.056
37.34,-0.41,1.112,-0.128
37.35,-0.216,0.895,-0.096
37.36,-0.105,1.143,0.052
37.37,-0.1,0.835,0.146
37.38,-0.319,0.823,0.01
37.39,-0.275,1.118,-0.161
37.4,-0.111,0.92,-0.101
37.41,-0.247,1.127,0.211
37.42,-0.05,0.68,0.135
37.43,-0.37,1.12,-0.041
37.44,-0.294,0.969,-0.174
37.45,-0.237,0.954,-0.038
37.46,-0.149,1.003,0.176
37.47,-0.174,0.744,0.082
37.48,-0.381,1.128,-0.116
37.49,-0.21,0.789,-0.097
37.5,-0.161,1.255,0.057
37.51,-0.056,0.795,0.142
37.52,-0.272,0.954,0.045
37.53,-0.35,0.965,-0.157
37.54,-0.092,0.993,-0.068
37.55,-0.11,1.145,0.034
37.56,-0.145,0.646,0.164
37.57,-0.3,1.128,-0.036
37.58,-0.221,0.902,-0.158
37.59,-0.195,1.095,-0.079
37.6,-0.463,0.865,0.229
37.61,-0.037,0.882,0.111
37.62,-0.374,1.082,-0.17
37.63,-0.23,0.773,-0.127
37.64,-0.184,1.258,0.021
37.65,-0.028,0.804,0.195
37.66,-0.217,1.075,0.044
37.67,-0.341,0.855,-0.147
37.68,-0.212,1.103,-0.066
37.69,-0.102,1.017,0.034
37.7,-0.151,0.784,0.207
37.71,-0.335,1.059,-0.028
37.72,-0.228,0.863,-0.154
37.73,-0.187,1.219,-0.055
37.74,-0.16,0.757,0.126
37.75,-0.166,0.962,0.137
37.76,-0.323,0.942,-0.088
37.77,-0.156,1.003,-0.143
37.78,-0.213,1.065,-0.009
37.79,0.05,0.771,0.028
37.8,-0.191,1.122,0.09
37.81,-0.283,0.82,-0.21
37.82,-0.206,1.156,-0.109
37.83,-0.097,0.925,0.097
37.84,-0.087,0.944,0.163
37.85,-0.302,0.888,0.004
37.86,-0.311,0.952,-0.15
37.87,-0.059,1.18,-0.068
37.88,-0.218,0.764,0.146
37.89,-0.164,0.996,0.128
37.9,-0.256,0.855,-0.083
37.91,-0.229,1.189,-0.149
37.92,-0.436,0.922,0.143
37.93,-0.071,0.972,0.187
37.94,-0.215,0.926,0.052
37.95,-0.4,0.849,-0.148
37.96,-0.173,1.182,-0.057
37.97,-0.042,0.926,0.055
37.98,-0.217,0.955,0.177
37.99,-0.254,0.773,-0.026
38.0,-0.311,1.24,-0.161
38.01,-0.152,0.87,-0.057
38.02,-0.242,0.999,0.187
38.03,-0.094,0.834,0.126
38.04,-0.328,0.992,-0.121
38.05,-0.207,1.093,-0.125
38.06,-0.176,0.922,-0.006
38.07,-0.09,1.072,0.186
38.08,-0.134,0.716,-0.015
38.09,-0.395,1.136,-0.176
38.1,-0.151,1.002,-0.032
38.11,-0.073,1.041,0.009
38.12,-0.129,0.819,0.168
38.13,-0.333,0.904,-0.018
38.14,-0.282,1.197,-0.189
38.15,-0.175,0.809,-0.059
38.16,-0.129,1.117,0.163
38.17,-0.15,0.778,0.118
38.18,-0.356,1.082,-0.165
38.19,-0.236,0.915,-0.105
38.2,-0.211,1.081,0.023
38.21,-0.066,0.998,0.152
38.22,-0.144,0.752,0.015
38.23,-0.367,1.169,-0.161
38.24,-0.172,0.905,-0.027
38.25,-0.092,1.19,0.027
38.26,-0.122,0.68,0.152
38.27,-0.336,0.995,-0.01
38.28,-0.267,1.088,-0.155
38.29,-0.228,0.931,-0.013
38.3,-0.234,1.045,0.163
38.31,-0.122,0.711,0.132
38.32,-0.431,1.182,-0.112
38.33,-0.192,0.757,-0.169
38.34,-0.173,1.119,0.028
38.35,0.032,0.922,0.175
38.36,-0.227,0.893,0.012
38.37,-0.407,1.011,-0.127
38.38,-0.159,0.883,-0.045
38.39,-0.187,1.249,0.082
38.4,-0.037,0.678,0.134
38.41,-0.348,1.112,-0.043
38.42,-0.302,0.868,-0.143
38.43,-0.094,1.125,-0.049
38.44,-0.176,0.918,0.082
38.45,-0.138,0.739,0.118
38.46,-0.318,1.212,-0.075
38.47,-0.218,0.86,-0.154
38.48,-0.261,1.144,-0.025
38.49,-0.043,0.788,0.24
38.5,-0.162,1.064,0.01
38.51,-0.353,0.867,-0.167
38.52,-0.287,1.0,-0.055
38.53,-0.03,1.147,0.044
38.54,-0.099,0.728,0.154
38.55,-0.371,1.066,-0.014
38.56,-0.215,0.848,-0.123
38.57,-0.212,1.215,-0.064
38.58,-0.185,0.774,0.109
38.59,-0.106,0.954,0.169
38.6,-0.299,1.035,-0.139
38.61,-0.26,0.893,-0.127
38.62,-0.27,1.146,0.052
38.63,0.026,0.77,0.137
38.64,-0.262,1.063,0.031
38.65,-0.339,0.793,-0.133
38.66,-0.177,1.226,-0.067
38.67,-0.086,0.919,0.006
38.68,-0.132,0.814,0.156
38.69,-0.268,1.042,-0.007
38.7,-0.318,0.943,-0.143
38.71,-0.203,1.102,-0.063
38.72,-0.12,0.755,0.126
38.73,-0.193,1.071,0.174
38.74,-0.277,0.841,-0.107
38.75,-0.312,1.0,-0.125
38.76,-0.232,1.021,0.027
38.77,-0.002,0.96,0.158
38.78,-0.241,1.019,0.037
38.79,-0.317,0.772,-0.157
38.8,-0.236,1.249,-0.042
38.81,-0.071,0.865,0.032
38.82,-0.153,0.944,0.137
38.83,-0.31,0.826,-0.006
38.84,-0.29,1.212,-0.144
38.85,-0.129,0.91,-0.064
38.86,-0.413,0.865,0.202
38.87,-0.165,0.955,0.106
38.88,-0.302,0.947,-0.079
38.89,-0.292,1.112,-0.167
38.9,-0.195,0.828,0.041
38.91,-0.122,1.14,0.2
38.92,-0.083,0.759,-0.008
38.93,-0.409,1.018,-0.15
38.94,-0.254,0.994,-0.072
38.95,-0.007,1.072,0.048
38.96,-0.12,0.931,0.129
38.97,-0.297,0.793,-0.01
38.98,-0.318,1.224,-0.108
38.99,-0.11,0.85,-0.098
39.0,-0.153,1.042,0.094
39.01,-0.171,0.763,0.176
39.02,-0.312,1.048,-0.108
39.03,-0.247,0.987,-0.119
39.04,-0.163,0.954,-0.008
39.05,-0.076,1.105,0.176
39.06,-0.185,0.711,0.029
39.07,-0.385,1.111,-0.138
39.08,-0.205,0.922,-0.007
39.09,-0.084,1.214,-0.006
39.1,-0.082,0.739,0.145
39.11,-0.324,0.881,0.002
39.12,-0.296,1.132,-0.117
39.13,-0.165,0.914,-0.127
39.14,-0.131,1.058,0.139
39.15,-0.12,0.679,0.127
39.16,-0.355,1.163,-0.076
39.17,-0.322,0.829,-0.15
39.18,-0.216,1.026,-0.031
39.19,-0.115,1.019,0.201
39.2,-0.097,0.838,0.02
39.21,-0.413,1.092,-0.144
39.22,-0.192,0.763,-0.093
39.23,-0.15,1.331,0.08
39.24,-0.063,0.765,0.131
39.25,-0.249,0.962,0.015
39.26,-0.345,0.95,-0.111
39.27,-0.082,1.086,-0.091
39.28,-0.208,1.04,0.058
39.29,-0.067,0.696,0.165
39.3,-0.299,1.168,-0.057
39.31,-0.255,0.849,-0.163
39.32,-0.235,1.114,-0.067
39.33,-0.123,0.81,0.164
39.34,-0.091,0.962,0.124
39.35,-0.375,1.013,-0.09
39.36,-0.23,0.771,-0.164
39.37,-0.22,1.205,0.034
39.38,0.002,0.829,0.142
39.39,-0.25,1.072,0.017
39.4,-0.336,0.795,-0.151
39.41,-0.205,1.204,-0.067
39.42,-0.088,1.001,0.021
39.43,-0.108,0.789,0.184
39.44,-0.273,1.043,-0.014
39.45,-0.278,0.921,-0.13
39.46,-0.188,1.179,-0.066
39.47,-0.104,0.76,0.103
39.48,-0.153,1.051,0.136
39.49,-0.341,0.928,-0.098
39.5,-0.265,0.998,-0.139
39.51,-0.258,0.978,-0.032
39.52,-0.048,0.886,0.179
39.53,-0.159,1.078,0.086
39.54,-0.354,0.81,-0.131
39.55,-0.22,1.191,-0.104
39.56,-0.116,1.005,0.067
39.57,-0.089,1.003,0.101
39.58,-0.229,0.823,0.009
39.59,-0.336,1.021,-0.127
39.6,-0.104,1.147,-0.094
39.61,-0.394,0.823,0.115
39.62,-0.079,0.979,0.114
39.63,-0.359,0.924,-0.06
39.64,-0.29,1.14,-0.161
39.65,-0.197,0.788,-0.043
39.66,-0.11,1.111,0.196
39.67,-0.139,0.821,0.029
39.68,-0.444,0.997,-0.103
39.69,-0.178,0.973,-0.122
39.7,-0.129,1.068,0.053
39.71,-0.077,0.945,0.11
39.72,-0.2,0.769,0.029
39.73,-0.361,1.219,-0.163
39.74,-0.306,0.937,-0.036
39.75,-0.192,1.091,0.081
39.76,-0.087,0.725,0.144
39.77,-0.292,0.993,-0.032
39.78,-0.312,1.087,-0.193
39.79,-0.173,0.862,-0.038
39.8,-0.146,1.093,0.127
39.81,-0.206,0.74,0.125
39.82,-0.402,1.161,-0.11
39.83,-0.249,0.798,-0.111
39.84,-0.158,1.137,-0.011
39.85,-0.319,0.948,0.334
39.86,-0.159,0.839,0.044
39.87,-0.376,1.088,-0.123
39.88,-0.198,0.883,-0.04
39.89,-0.118,1.243,0.047
39.9,-0.058,0.654,0.137
39.91,-0.329,1.061,0.01
39.92,-0.307,0.902,-0.158
39.93,-0.132,1.073,-0.076
39.94,-0.158,0.985,0.107
39.95,-0.095,0.746,0.127
39.96,-0.392,1.167,-0.112
39.97,-0.255,0.81,-0.14
39.98,-0.196,1.163,-0.016
39.99,-0.104,0.811,0.16
40.0,-0.173,1.02,0.039
40.01,-0.326,0.976,-0.126
40.02,-0.2,0.927,-0.117
40.03,-0.245,1.162,0.1
40.04,0.016,0.78,0.133
40.05,-0.288,1.065,-0.017
40.06,-0.297,0.815,-0.114
40.07,-0.275,1.202,-0.047
40.08,-0.097,0.834,0.08
40.09,-0.126,0.871,0.149
40.1,-0.324,1.031,-0.066
40.11,-0.234,0.928,-0.161
40.12,-0.33,1.079,-0.024
40.13,-0.097,0.748,0.133
40.14,-0.148,1.094,0.118
40.15,-0.283,0.858,-0.133
40.16,-0.274,1.03,-0.103
40.17,-0.181,0.999,0.042
40.18,-0.021,0.949,0.163
40.19,-0.251,0.987,0.01
40.2,-0.353,0.782,-0.157
40.21,-0.191,1.24,-0.02
40.22,-0.047,0.892,0.027
40.23,-0.13,0.918,0.138
40.24,-0.278,0.891,-0.006
40.25,-0.248,1.118,-0.129
40.26,-0.182,1.015,-0.084
40.27,-0.255,0.805,0.175
40.28,-0.14,1.048,0.138
40.29,-0.289,0.856,-0.139
40.3,-0.292,1.153,-0.098
40.31,-0.216,0.902,0.007
40.32,-0.058,1.045,0.194
40.33,-0.189,0.862,0.042
40.34,-0.363,0.911,-0.161
40.35,-0.204,1.159,-0.059
40.36,-0.07,0.94,-0.002
40.37,-0.132,0.949,0.132
40.38,-0.308,0.79,0.005
40.39,-0.262,1.215,-0.182
40.4,-0.148,0.917,-0.072
40.41,-0.143,0.973,0.101
40.42,-0.161,0.897,0.171
40.43,-0.337,0.969,-0.1
40.44,-0.272,1.078,-0.161
40.45,-0.204,0.961,-0.049
40.46,-0.082,1.108,0.208
40.47,-0.101,0.77,0.03
40.48,-0.417,1.098,-0.165
40.49,-0.275,0.837,-0.014
40.5,-0.073,1.208,0.004
40.51,-0.063,0.765,0.139
40.52,-0.306,0.898,-0.0
40.53,-0.364,1.129,-0.098
40.54,-0.111,0.93,-0.111
40.55,-0.202,1.106,0.109
40.56,-0.073,0.659,0.131
40.57,-0.416,1.194,-0.059
40.58,-0.24,0.825,-0.124
40.59,-0.229,1.083,-0.007
40.6,-0.125,0.956,0.188
40.61,-0.14,0.841,0.078
40.62,-0.344,1.126,-0.14
40.63,-0.251,0.822,-0.101
40.64,-0.204,1.269,0.092
40.65,0.007,0.773,0.125
40.66,-0.259,0.998,0.02
40.67,-0.319,0.869,-0.136
40.68,-0.144,1.057,-0.067
40.69,-0.094,1.097,0.062
40.7,-0.088,0.693,0.148
40.71,-0.325,1.108,-0.039
40.72,-0.24,0.877,-0.163
40.73,-0.163,1.136,-0.055
40.74,-0.369,0.796,0.132
40.75,-0.159,0.977,0.125
40.76,-0.295,1.001,-0.12
40.77,-0.251,0.877,-0.123
40.78,-0.179,1.1,-0.013
40.79,-0.101,0.843,0.187
40.8,-0.186,1.094,0.057
40.81,-0.344,0.834,-0.134
40.82,-0.2,1.117,-0.152
40.83,-0.103,1.027,0.061
40.84,-0.096,0.853,0.191
40.85,-0.313,0.956,0.011
40.86,-0.284,0.88,-0.143
40.87,-0.144,1.215,-0.053
40.88,-0.327,0.759,0.109
40.89,-0.132,1.01,0.118
40.9,-0.317,0.884,-0.085
40.91,-0.244,1.089,-0.13
40.92,-0.178,0.99,-0.04
40.93,-0.17,0.841,0.186
40.94,-0.173,1.045,0.118
40.95,-0.33,0.859,-0.131
40.96,-0.27,1.103,-0.116
40.97,-0.229,0.9,0.111
40.98,-0.016,1.093,0.141
40.99,-0.222,0.85,-0.032
41.0,-0.38,0.958,-0.134
41.01,-0.271,1.104,-0.012
41.02,-0.045,0.916,0.049
41.03,-0.15,0.96,0.14
41.04,-0.317,0.833,-0.017
41.05,-0.237,1.258,-0.187
41.06,-0.245,0.873,-0.022
41.07,-0.156,0.987,0.142
41.08,-0.12,0.935,0.103
41.09,-0.405,0.959,-0.139
41.1,-0.205,1.024,-0.141
41.11,-0.188,0.923,0.055
41.12,-0.054,1.121,0.159
41.13,-0.167,0.72,-0.003
41.14,-0.396,1.121,-0.143
41.15,-0.149,1.031,-0.057
41.16,-0.146,1.073,0.024
41.17,-0.076,0.803,0.137
41.18,-0.328,0.852,-0.026
41.19,-0.324,1.223,-0.112
41.2,-0.116,0.855,-0.081
41.21,-0.128,1.074,0.098
41.22,-0.208,0.752,0.182
41.23,-0.295,1.098,-0.12
41.24,-0.268,0.952,-0.122
41.25,-0.24,0.963,0.01
41.26,-0.077,1.043,0.19
41.27,-0.122,0.738,0.014
41.28,-0.343,1.059,-0.142
41.29,-0.228,0.897,-0.048
41.3,-0.092,1.217,0.023
41.31,-0.076,0.666,0.146
41.32,-0.364,1.094,-0.012
41.33,-0.389,0.896,-0.14
41.34,-0.188,1.012,-0.047
41.35,-0.111,1.0,0.089
41.36,-0.202,0.809,0.181
41.37,-0.292,1.124,-0.118
41.38,-0.23,0.789,-0.144
41.39,-0.269,1.205,0.008
41.4,-0.111,0.86,0.203
41.41,-0.14,0.991,0.046
41.42,-0.348,0.907,-0.13
41.43,-0.229,0.947,-0.077
41.44,-0.159,1.226,0.074
41.45,-0.013,0.687,0.109
41.46,-0.299,1.061,0.03
41.47,-0.293,0.867,-0.097
41.48,-0.156,1.235,-0.112
41.49,-0.155,0.83,0.082
41.5,-0.118,0.839,0.144
41.51,-0.313,1.068,-0.022
41.52,-0.246,0.937,-0.217
41.53,-0.246,1.065,-0.026
41.54,-0.042,0.752,0.091
41.55,-0.198,1.119,0.14
41.56,-0.25,0.877,-0.116
41.57,-0.275,1.043,-0.135
41.58,-0.236,0.97,0.011
41.59,-0.023,0.901,0.156
41.6,-0.197,1.02,0.042
41.61,-0.359,0.799,-0.147
41.62,-0.219,1.179,-0.029
41.63,-0.272,0.962,0.201
41.64,-0.09,0.999,0.113
41.65,-0.252,0.81,-0.031
41.66,-0.286,1.059,-0.114
41.67,-0.122,1.1,-0.064
41.68,-0.142,0.842,0.065
41.69,-0.217,0.977,0.149
41.7,-0.29,0.888,-0.073
41.71,-0.261,1.177,-0.132
41.72,-0.242,0.854,-0.057
41.73,-0.119,1.033,0.207
41.74,-0.105,0.903,0.05
41.75,-0.359,0.919,-0.124
41.76,-0.288,1.084,-0.069
41.77,-0.112,0.991,0.038
41.78,-0.066,1.022,0.147
41.79,-0.209,0.745,-0.012
41.8,-0.389,1.153,-0.12
41.81,-0.219,0.962,-0.029
41.82,-0.035,1.072,0.054
41.83,-0.157,0.813,0.144
41.84,-0.325,0.886,-0.025
41.85,-0.326,1.233,-0.112
41.86,-0.123,0.863,-0.074
41.87,-0.202,1.04,0.131
41.88,-0.15,0.757,0.138
41.89,-0.35,1.147,-0.116
41.9,-0.241,0.865,-0.159
41.91,-0.162,0.983,-0.01
41.92,-0.109,1.068,0.204
41.93,-0.201,0.756,0.035
41.94,-0.391,1.048,-0.113
41.95,-0.16,0.822,-0.057
41.96,-0.073,1.292,0.06
41.97,-0.093,0.773,0.127
41.98,-0.299,0.933,0.004
41.99,-0.328,0.978,-0.112
42.0,-0.053,1.043,-0.078
42.01,-0.063,1.118,-0.033
42.02,-0.092,0.664,0.123
42.03,-0.363,1.17,-0.035
42.04,-0.202,0.876,-0.176
42.05,-0.221,1.083,-0.036
42.06,-0.12,0.849,0.121
42.07,-0.099,0.936,0.078
42.08,-0.378,1.042,-0.13
42.09,-0.214,0.816,-0.111
42.1,-0.123,1.171,0.042
42.11,-0.038,0.708,0.155
42.12,-0.266,1.09,0.03
42.13,-0.333,0.833,-0.116
42.14,-0.176,1.181,-0.134
42.15,-0.129,0.854,0.121
42.16,-0.096,0.955,0.145
42.17,-0.359,0.985,-0.046
42.18,-0.254,0.902,-0.157
42.19,-0.185,1.104,-0.066
42.2,-0.118,0.798,0.193
42.21,-0.152,1.111,0.106
42.22,-0.322,0.843,-0.108
42.23,-0.277,1.079,-0.138
42.24,-0.156,0.997,-0.008
42.25,-0.101,0.947,0.163
42.26,-0.236,0.99,0.063
42.27,-0.359,0.853,-0.15
42.28,-0.174,1.208,-0.076
42.29,-0.083,0.891,0.033
42.3,-0.077,0.96,0.141
42.31,-0.207,0.815,-0.013
42.32,-0.309,1.119,-0.137
42.33,-0.126,1.071,-0.085
42.34,-0.125,0.865,0.101
42.35,-0.16,0.77,0.149
42.36,-0.377,1.186,-0.109
42.37,-0.288,0.749,-0.115
42.38,-0.194,1.162,0.004
42.39,-0.073,0.937,0.145
42.4,-0.238,0.919,0.033
42.41,-0.341,0.986,-0.113
42.42,-0.232,0.907,-0.074
42.43,-0.068,1.199,-0.03
42.44,0.016,0.709,0.14
42.45,-0.335,1.073,-0.017
42.46,-0.314,0.842,-0.119
42.47,-0.094,1.179,-0.079
42.48,-0.159,0.906,0.081
42.49,-0.166,0.806,0.14
42.5,-0.333,1.131,-0.053
42.51,-0.253,0.851,-0.141
42.52,-0.161,1.12,-0.07
42.53,-0.274,0.825,0.388
42.54,-0.13,1.058,0.089
42.55,-0.375,0.915,-0.119
42.56,-0.204,0.979,-0.13
42.57,-0.298,1.1,0.12
42.58,0.003,0.786,0.142
42.59,-0.26,1.044,0.026
42.6,-0.351,0.813,-0.115
42.61,-0.292,1.197,-0.061
42.62,-0.07,0.879,0.057
42.63,-0.076,0.93,0.136
42.64,-0.321,0.944,-0.043
42.65,-0.277,0.977,-0.13
42.66,-0.191,1.11,-0.104
42.67,-0.092,0.771,0.088
42.68,-0.194,1.076,0.138
42.69,-0.33,0.844,-0.089
42.7,-0.258,1.096,-0.127
42.71,-0.21,0.921,-0.033
42.72,-0.081,0.986,0.166
42.73,-0.143,0.772,0.043
42.74,-0.334,0.998,-0.118
42.75,-0.207,1.113,-0.101
42.76,-0.095,0.947,0.011
42.77,-0.083,1.007,0.145
42.78,-0.257,0.777,-0.019
42.79,-0.304,1.181,-0.146
42.8,-0.233,0.886,-0.004
42.81,-0.101,1.036,0.108
42.82,-0.161,0.827,0.126
42.83,-0.33,0.935,-0.078
42.84,-0.337,1.156,-0.104
42.85,-0.119,0.861,-0.072
42.86,-0.165,1.068,0.141
42.87,-0.165,0.753,0.098
42.88,-0.371,1.125,-0.106
42.89,-0.222,0.841,-0.096
42.9,-0.124,1.115,0.035
42.91,-0.038,0.946,0.173
42.92,-0.199,0.825,0.067
42.93,-0.386,1.122,-0.149
42.94,-0.174,0.854,-0.089
42.95,-0.078,1.272,0.079
42.96,-0.118,0.726,0.185
42.97,-0.391,0.989,0.032
42.98,-0.3,0.897,-0.144
42.99,-0.115,1.046,-0.054
43.0,-0.126,1.021,0.069
43.01,-0.111,0.719,0.09
43.02,-0.364,1.176,-0.06
43.03,-0.244,0.848,-0.149
43.04,-0.185,1.132,-0.052
43.05,-0.109,0.844,0.146
43.06,-0.117,0.952,0.092
43.07,-0.336,0.984,-0.148
43.08,-0.245,0.866,-0.097
43.09,-0.151,1.235,0.056
43.1,0.009,0.721,0.103
43.11,-0.304,1.068,0.004
43.12,-0.362,0.842,-0.107
43.13,-0.106,1.168,-0.11
43.14,-0.172,0.935,0.066
43.15,-0.053,0.797,0.161
43.16,-0.346,1.106,-0.054
43.17,-0.254,0.858,-0.149
43.18,-0.26,1.118,-0.042
43.19,-0.048,0.771,0.101
43.2,-0.202,1.075,0.122
43.21,-0.326,0.886,-0.107
43.22,-0.285,0.963,-0.092
43.23,-0.263,1.043,0.014
43.24,0.013,0.886,0.163
43.25,-0.28,1.047,0.039
43.26,-0.282,0.773,-0.125
43.27,-0.294,1.224,-0.079
43.28,-0.108,0.918,0.032
43.29,-0.106,0.939,0.18
43.3,-0.203,0.868,-0.024
43.31,-0.423,1.008,-0.082
43.32,-0.195,1.062,-0.101
43.33,-0.135,0.818,0.113
43.34,-0.122,0.996,0.094
43.35,-0.341,0.848,-0.046
43.36,-0.266,1.193,-0.151
43.37,-0.195,0.859,-0.052
43.38,-0.066,0.978,0.148
43.39,-0.197,0.965,0.121
43.4,-0.354,0.907,-0.112
43.41,-0.244,1.071,-0.101
43.42,-0.177,0.952,0.018
43.43,-0.118,1.104,0.14
43.44,-0.19,0.718,0.058
43.45,-0.302,1.081,-0.153
43.46,-0.248,1.02,-0.051
43.47,-0.055,1.009,0.006
43.48,-0.078,0.895,0.167
43.49,-0.291,0.84,-0.028
43.5,-0.313,1.182,-0.156
43.51,-0.214,0.88,-0.062
43.52,-0.109,1.084,0.108
43.53,-0.15,0.752,0.148
43.54,-0.354,1.077,-0.06
43.55,-0.283,0.818,-0.146
43.56,-0.21,1.09,-0.019
43.57,-0.051,0.968,0.149
43.58,-0.136,0.85,0.044
43.59,-0.31,1.059,-0.131
43.6,-0.281,0.835,-0.058
43.61,-0.124,1.247,0.051
43.62,-0.046,0.73,0.142
43.63,-0.242,0.995,0.034
43.64,-0.302,0.915,-0.155
43.65,-0.185,1.04,-0.069
43.66,-0.102,1.004,0.031
43.67,-0.054,0.706,0.147
43.68,-0.345,1.156,-0.032
43.69,-0.237,0.885,-0.165
43.7,-0.267,1.113,-0.029
43.71,-0.202,0.769,0.196
43.72,-0.138,1.041,0.153
43.73,-0.335,1.011,-0.144
43.74,-0.291,0.829,-0.134
43.75,-0.207,1.141,0.021
43.76,0.06,0.835,0.131
43.77,-0.246,1.062,0.057
43.78,-0.311,0.787,-0.124
43.79,-0.21,1.201,-0.091
43.8,-0.093,1.004,0.027
43.81,-0.057,0.857,0.161
43.82,-0.27,0.981,-0.007
43.83,-0.303,0.939,-0.104
43.84,-0.2,1.156,-0.075
43.85,-0.101,0.764,0.085
43.86,-0.136,1.039,0.138
43.87,-0.312,0.86,-0.063
43.88,-0.277,1.116,-0.146
43.89,-0.171,0.963,-0.073
43.9,-0.129,0.868,0.143
43.91,-0.199,1.072,0.144
43.92,-0.345,0.855,-0.093
43.93,-0.284,1.11,-0.131
43.94,-0.215,0.924,0.018
43.95,-0.105,1.135,0.157
43.96,-0.139,0.828,0.043
43.97,-0.37,0.981,-0.139
43.98,-0.263,1.048,-0.081
43.99,-0.091,0.976,0.046
44.0,-0.102,1.018,0.128
44.01,-0.235,0.755,-0.018
44.02,-0.394,1.178,-0.108
44.03,-0.084,0.957,-0.08
44.04,-0.202,1.09,0.107
44.05,-0.147,0.767,0.132
44.06,-0.296,0.991,-0.038
44.07,-0.26,1.109,-0.151
44.08,-0.143,0.833,-0.061
44.09,-0.218,1.147,0.174
44.1,-0.092,0.781,0.095
44.11,-0.344,1.139,-0.126
44.12,-0.237,0.805,-0.112
44.13,-0.237,1.089,0.039
44.14,-0.007,0.922,0.126
44.15,-0.193,0.82,0.029
44.16,-0.325,1.1,-0.124
44.17,-0.264,0.852,-0.061
44.18,-0.085,1.229,0.082
44.19,-0.053,0.714,0.138
44.2,-0.365,1.038,-0.017
44.21,-0.276,0.926,-0.124
44.22,-0.174,1.018,-0.099
44.23,-0.134,1.034,0.068
44.24,-0.094,0.72,0.129
44.25,-0.317,1.195,-0.034
44.26,-0.282,0.812,-0.178
44.27,-0.221,1.062,-0.049
44.28,-0.087,0.842,0.134
44.29,-0.141,1.0,0.1
44.3,-0.329,0.989,-0.146
44.31,-0.276,0.837,-0.094
44.32,-0.167,1.178,0.031
44.33,0.01,0.824,0.113
44.34,-0.258,1.071,0.027
44.35,-0.318,0.792,-0.16
44.36,-0.187,1.149,-0.049
44.37,-0.112,0.863,0.013
44.38,-0.101,0.905,0.138
44.39,-0.335,0.962,-0.002
44.4,-0.227,1.026,-0.164
44.41,-0.235,1.058,-0.053
44.42,-0.123,0.808,0.122
44.43,-0.21,1.059,0.14
44.44,-0.287,0.859,-0.08
44.45,-0.275,1.115,-0.147
44.46,-0.257,0.869,-0.034
44.47,-0.064,0.995,0.201
44.48,-0.131,0.979,0.065
44.49,-0.378,0.869,-0.115
44.5,-0.241,1.093,-0.097
44.51,-0.07,0.949,0.037
44.52,-0.076,1.06,0.115
44.53,-0.191,0.756,0.02
44.54,-0.381,1.135,-0.138
44.55,-0.186,0.988,-0.061
44.56,-0.083,0.985,0.064
44.57,-0.085,0.924,0.136
44.58,-0.371,0.89,-0.007
44.59,-0.267,1.17,-0.157
44.6,-0.27,0.803,-0.013
44.61,-0.134,1.065,0.103
44.62,-0.175,0.823,0.151
44.63,-0.305,1.045,-0.118
44.64,-0.334,0.921,-0.128
44.65,-0.163,0.941,-0.011
44.66,-0.131,1.099,0.166
44.67,-0.103,0.733,0.021
44.68,-0.387,1.137,-0.106
44.69,-0.235,0.837,-0.091
44.7,-0.188,1.24,0.067
44.71,-0.004,0.822,0.098
44.72,-0.25,0.884,0.005
44.73,-0.349,1.05,-0.113
44.74,-0.065,0.99,-0.103
44.75,-0.251,1.15,0.062
44.76,-0.056,0.614,0.175
44.77,-0.337,1.129,-0.056
44.78,-0.288,0.897,-0.127
44.79,-0.189,1.082,-0.063
44.8,-0.121,0.895,0.123
44.81,-0.154,0.842,0.152
44.82,-0.349,1.108,-0.074
44.83,-0.246,0.796,-0.127
44.84,-0.146,1.154,-0.06
44.85,-0.153,0.782,0.195
44.86,-0.185,1.093,0.066
44.87,-0.291,0.868,-0.142
44.88,-0.213,0.961,-0.127
44.89,-0.214,1.14,0.092
44.9,0.034,0.784,0.105
44.91,-0.308,1.065,0.071
44.92,-0.316,0.768,-0.157
44.93,-0.237,1.208,-0.035
44.94,-0.118,0.863,0.055
44.95,-0.108,0.946,0.159
44.96,-0.322,0.957,-0.029
44.97,-0.272,0.971,-0.124
44.98,-0.199,1.095,-0.071
44.99,-0.266,0.794,0.251
45.0,-0.188,1.068,0.15
45.01,-0.365,0.865,-0.078
45.02,-0.276,1.066,-0.14
45.03,-0.151,0.947,-0.004
45.04,-0.058,0.987,0.07
45.05,-0.186,0.976,0.064
45.06,-0.296,0.891,-0.107
45.07,-0.251,1.178,-0.109
45.08,-0.122,0.919,0.053
45.09,-0.075,1.04,0.123
45.1,-0.217,0.781,0.021
45.11,-0.359,1.117,-0.145
45.12,-0.168,1.013,-0.086
45.13,-0.16,0.95,0.069
45.14,-0.094,0.906,0.136
45.15,-0.328,0.859,-0.041
45.16,-0.337,1.205,-0.136
45.17,-0.167,0.816,-0.079
45.18,-0.132,1.036,0.118
45.19,-0.104,0.776,0.123
45.2,-0.397,1.144,-0.123
45.21,-0.279,0.791,-0.149
45.22,-0.208,1.101,0.027
45.23,-0.026,0.991,0.131
45.24,-0.235,0.803,0.011
45.25,-0.344,1.085,-0.113
45.26,-0.213,0.896,-0.034
45.27,-0.023,1.26,0.002
45.28,-0.071,0.667,0.15
45.29,-0.336,1.032,0.03
45.3,-0.239,0.975,-0.148
45.31,-0.208,1.015,-0.109
45.32,-0.309,0.981,0.114
45.33,-0.071,0.754,0.122
45.34,-0.385,1.209,-0.069
45.35,-0.282,0.729,-0.116
45.36,-0.247,1.128,-0.042
45.37,-0.14,0.856,0.186
45.38,-0.154,0.988,0.078
45.39,-0.333,0.99,-0.11
45.4,-0.215,0.847,-0.127
45.41,-0.189,1.207,0.023
45.42,0.025,0.8,0.139
45.43,-0.223,1.089,0.043
45.44,-0.357,0.821,-0.119
45.45,-0.191,1.145,-0.127
45.46,-0.086,1.021,0.047
45.47,-0.077,0.837,0.163
45.48,-0.336,1.001,-0.022
45.49,-0.275,0.87,-0.102
45.5,-0.125,1.212,-0.073
45.51,-0.168,0.765,0.132
45.52,-0.165,0.972,0.135
45.53,-0.285,0.912,-0.056
45.54,-0.274,1.104,-0.164
45.55,-0.238,0.921,-0.045
45.56,-0.058,0.861,0.121
45.57,-0.185,1.092,0.079
45.58,-0.294,0.813,-0.128
45.59,-0.273,1.136,-0.12
45.6,-0.221,0.885,0.071
45.61,-0.035,1.063,0.15
45.62,-0.173,0.86,0.017
45.63,-0.355,0.954,-0.141
45.64,-0.264,1.129,-0.031
45.65,-0.113,0.918,0.082
45.66,-0.152,1.029,0.128
45.67,-0.321,0.8,-0.035
45.68,-0.31,1.216,-0.145
45.69,-0.163,0.903,-0.045
45.7,-0.038,0.948,0.019
45.71,-0.167,0.871,0.147
45.72,-0.323,0.98,-0.069
45.73,-0.279,1.124,-0.142
45.74,-0.19,0.824,-0.023
45.75,-0.107,1.111,0.161
45.76,-0.148,0.772,0.065
45.77,-0.397,1.102,-0.135
45.78,-0.165,0.915,-0.115
45.79,-0.206,1.093,0.06
45.8,-0.0,0.917,0.131
45.81,-0.236,0.801,-0.002
45.82,-0.341,1.155,-0.171
45.83,-0.178,0.895,-0.046
45.84,-0.153,1.161,0.06
45.85,-0.107,0.686,0.159
45.86,-0.338,1.044,-0.056
45.87,-0.274,1.0,-0.13
45.88,-0.199,0.96,-0.056
45.89,-0.178,0.974,0.152
45.9,-0.141,0.73,0.137
45.91,-0.357,1.214,-0.099
45.92,-0.193,0.811,-0.126
45.93,-0.217,1.186,0.01
45.94,-0.095,0.846,0.192
45.95,-0.142,0.986,0.046
45.96,-0.359,0.972,-0.149
45.97,-0.27,0.85,-0.065
45.98,-0.107,1.236,0.088
45.99,-0.105,0.765,0.144
46.0,-0.345,1.059,0.012
46.01,-0.264,0.829,-0.144
46.02,-0.105,1.245,-0.059
46.03,-0.169,0.779,0.132
46.04,-0.113,0.91,0.146
46.05,-0.307,1.003,-0.082
46.06,-0.219,1.011,-0.136
46.07,-0.23,1.086,-0.025
46.08,-0.098,0.733,0.139
46.09,-0.219,1.119,0.081
46.1,-0.337,0.815,-0.137
46.11,-0.255,1.107,-0.079
46.12,-0.087,0.983,0.03
46.13,-0.013,0.972,0.122
46.14,-0.253,0.921,-0.012
46.15,-0.349,0.874,-0.099
46.16,-0.136,1.238,-0.059
46.17,0.032,0.837,-0.062
46.18,-0.118,0.991,0.153
46.19,-0.296,0.829,-0.055
46.2,-0.287,1.124,-0.126
46.21,-0.132,0.969,-0.053
46.22,-0.087,0.877,0.122
46.23,-0.181,0.978,0.148
46.24,-0.299,0.901,-0.083
46.25,-0.262,1.174,-0.126
46.26,-0.134,0.843,-0.023
46.27,-0.102,1.097,0.217
46.28,-0.14,0.843,0.036
46.29,-0.408,1.004,-0.14
46.3,-0.21,1.023,-0.09
46.31,-0.111,1.004,0.066
46.32,-0.117,0.983,0.176
46.33,-0.245,0.738,-0.004
46.34,-0.344,1.162,-0.161
46.35,-0.106,0.927,-0.062
46.36,-0.138,1.035,0.108
46.37,-0.153,0.755,0.143
46.38,-0.319,0.997,-0.044
46.39,-0.232,1.135,-0.157
46.4,-0.187,0.84,-0.009
46.41,-0.151,1.05,0.151
46.42,-0.129,0.767,0.073
46.43,-0.389,1.145,-0.139
46.44,-0.228,0.842,-0.143
46.45,-0.126,1.127,0.036
46.46,-0.146,0.956,0.189
46.47,-0.222,0.8,0.011
46.48,-0.381,1.085,-0.154
46.49,-0.158,0.89,-0.078
46.5,-0.204,1.242,0.064
46.51,-0.146,0.731,0.148
46.52,-0.313,1.024,-0.042
46.53,-0.245,0.973,-0.134
46.54,-0.114,1.088,-0.062
46.55,-0.139,0.951,0.054
46.56,-0.153,0.755,0.144
46.57,-0.291,1.198,-0.13
46.58,-0.29,0.813,-0.122
46.59,-0.324,1.141,0.042
46.6,0.01,0.842,0.153
46.61,-0.223,0.947,0.042
46.62,-0.357,0.935,-0.157
46.63,-0.152,0.972,-0.074
46.64,-0.158,1.148,0.027
46.65,-0.067,0.69,0.158
46.66,-0.263,1.133,-0.0
46.67,-0.321,0.866,-0.169
46.68,-0.164,1.09,-0.078
46.69,-0.188,0.862,0.123
46.7,-0.086,0.872,0.133
46.71,-0.338,1.116,-0.076
46.72,-0.257,0.83,-0.134
46.73,-0.231,1.143,-0.003
46.74,-0.052,0.765,0.182
46.75,-0.159,1.143,0.07
46.76,-0.374,0.795,-0.145
46.77,-0.282,1.041,-0.073
46.78,-0.089,1.087,0.033
46.79,-0.068,0.796,0.151
46.8,-0.233,1.025,0.019
46.81,-0.294,0.912,-0.091
46.82,-0.208,1.193,-0.101
46.83,-0.078,0.777,0.128
46.84,-0.157,1.092,0.127
46.85,-0.312,0.873,-0.073
46.86,-0.379,1.115,-0.131
46.87,-0.196,0.902,-0.058
46.88,-0.064,0.986,0.179
46.89,-0.182,0.97,0.065
46.9,-0.296,0.821,-0.135
46.91,-0.213,1.146,-0.111
46.92,-0.133,0.924,0.071
46.93,-0.071,1.052,0.151
46.94,-0.209,0.782,-0.006
46.95,-0.393,1.052,-0.129
46.96,-0.142,1.027,-0.077
46.97,-0.125,0.964,0.069
46.98,-0.179,0.902,0.156
46.99,-0.295,0.839,-0.023
47.0,-0.231,1.237,-0.151
47.01,-0.203,0.822,-0.028
47.02,-0.064,1.033,0.102
47.03,-0.174,0.844,0.145
47.04,-0.34,1.019,-0.113
47.05,-0.283,0.979,-0.108
47.06,-0.234,0.994,0.046
47.07,-0.104,1.093,0.159
47.08,-0.199,0.704,0.021
47.09,-0.367,1.125,-0.144
47.1,-0.151,0.923,-0.031
47.11,-0.083,1.154,-0.0
47.12,-0.094,0.764,0.168
47.13,-0.304,0.937,-0.003
47.14,-0.254,1.16,-0.152
47.15,-0.233,0.851,-0.053
47.16,-0.125,1.088,0.091
47.17,-0.102,0.74,0.176
47.18,-0.366,1.137,-0.121
47.19,-0.297,0.774,-0.146
47.2,-0.245,1.062,0.022
47.21,-0.025,1.08,0.171
47.22,-0.191,0.78,0.04
47.23,-0.321,1.063,-0.122
47.24,-0.187,0.902,-0.066
47.25,-0.124,1.288,0.01
47.26,-0.074,0.668,0.156
47.27,-0.245,1.001,0.031
47.28,-0.344,0.95,-0.147
47.29,-0.147,1.021,-0.078
47.3,-0.154,1.052,0.084
47.31,-0.087,0.682,0.161
47.32,-0.352,1.169,-0.016
47.33,-0.224,0.876,-0.184
47.34,-0.28,1.102,-0.038
47.35,-0.054,0.8,0.13
47.36,-0.157,0.986,0.132
47.37,-0.375,0.997,-0.111
47.38,-0.191,0.827,-0.152
47.39,-0.233,1.166,0.01
47.4,-0.079,0.806,0.175
47.41,-0.219,1.091,0.043
47.42,-0.285,0.791,-0.157
47.43,-0.24,1.137,-0.049
47.44,-0.057,1.052,0.027
47.45,-0.106,0.842,0.156
47.46,-0.236,0.973,-0.016
47.47,-0.324,0.926,-0.108
47.48,-0.176,1.202,-0.07
47.49,-0.132,0.753,0.099
47.5,-0.134,0.999,0.147
47.51,-0.279,0.921,-0.06
47.52,-0.29,1.059,-0.147
47.53,-0.205,0.94,-0.017
47.54,-0.102,0.916,0.165
47.55,-0.208,1.071,0.089
47.56,-0.354,0.824,-0.128
47.57,-0.226,1.153,-0.126
47.58,-0.097,0.982,0.034
47.59,-0.081,1.019,0.134
47.6,-0.19,0.81,0.031
47.61,-0.352,0.989,-0.125
47.62,-0.226,1.146,-0.047
47.63,-0.108,0.904,0.037
47.64,-0.088,0.97,0.148
47.65,-0.352,0.883,-0.026
47.66,-0.379,1.209,-0.144
47.67,-0.191,0.79,-0.101
47.68,-0.132,1.085,0.125
47.69,-0.143,0.834,0.158
47.7,-0.397,1.035,-0.108
47.71,-0.206,0.918,-0.136
47.72,-0.177,1.059,0.043
47.73,-0.059,1.085,0.146
47.74,-0.235,0.693,0.021
47.75,-0.359,1.138,-0.104
47.76,-0.098,0.946,-0.074
47.77,-0.121,1.182,-0.003
47.78,-0.116,0.719,0.175
47.79,-0.229,0.94,-0.002
47.8,-0.367,1.066,-0.126
47.81,-0.156,0.931,-0.089
47.82,-0.086,1.087,0.083
47.83,-0.094,0.705,0.131
47.84,-0.354,1.204,-0.04
47.85,-0.297,0.85,-0.16
47.86,-0.199,1.068,-0.039
47.87,-0.135,0.953,0.151
47.88,-0.174,0.874,0.09
47.89,-0.364,1.069,-0.097
47.9,-0.174,0.79,-0.148
47.91,-0.201,1.282,0.076
47.92,-0.027,0.729,0.111
47.93,-0.256,1.008,0.059
47.94,-0.312,0.904,-0.139
47.95,-0.199,1.082,-0.078
47.96,-0.125,1.052,0.088
47.97,-0.085,0.764,0.155
47.98,-0.322,1.104,-0.012
47.99,-0.279,0.844,-0.126
48.0,-0.214,1.171,-0.046
48.01,-0.109,0.787,0.105
48.02,-0.147,0.991,0.159
48.03,-0.279,1.013,-0.125
48.04,-0.319,0.927,-0.121
48.05,-0.221,1.086,-0.029
48.06,-0.022,0.836,0.173
48.07,-0.211,1.093,0.068
48.08,-0.322,0.78,-0.155
48.09,-0.261,1.177,-0.079
48.1,-0.051,0.998,0.028
48.11,-0.064,0.859,0.129
48.12,-0.296,0.946,0.036
48.13,-0.305,0.957,-0.13
48.14,-0.253,1.195,-0.092
48.15,-0.118,0.78,0.082
48.16,-0.131,1.054,0.134
48.17,-0.331,0.887,-0.002
48.18,-0.334,1.114,-0.168
48.19,-0.188,0.917,-0.045
48.2,-0.099,0.89,0.118
