t,ax,ay,az
0.0,-0.337,1.149,-0.009
0.01,-0.24,0.898,-0.147
0.02,-0.145,1.136,-0.083
0.03,-0.22,0.87,0.108
0.04,-0.148,0.896,0.134
0.05,-0.34,1.081,-0.091
0.06,-0.184,0.871,-0.147
0.07,-0.244,1.169,-0.015
0.08,-0.091,0.74,0.177
0.09,-0.226,1.114,0.079
0.1,-0.306,0.84,-0.184
0.11,-0.199,1.039,-0.088
0.12,-0.129,1.062,0.03
0.13,-0.047,0.839,0.118
0.14,-0.289,1.039,-0.026
0.15,-0.291,0.858,-0.127
0.16,-0.137,1.233,-0.059
0.17,-0.116,0.827,0.1
0.18,-0.206,0.927,0.149
0.19,-0.289,0.918,-0.042
0.2,-0.221,1.094,-0.163
0.21,-0.151,1.085,-0.103
0.22,-0.168,0.734,0.164
0.23,-0.181,1.056,0.137
0.24,-0.271,0.879,-0.156
0.25,-0.313,1.148,-0.112
0.26,-0.194,0.868,0.025
0.27,-0.08,1.051,0.268
0.28,-0.234,0.923,-0.026
0.29,-0.398,0.888,-0.116
0.3,-0.139,1.207,-0.042
0.31,-0.03,0.934,0.011
0.32,-0.128,0.971,0.076
0.33,-0.253,0.792,-0.029
0.34,-0.182,1.248,-0.192
0.35,-0.169,0.951,-0.058
0.36,-0.264,0.857,0.176
0.37,-0.05,0.94,0.17
0.38,-0.32,0.924,-0.142
0.39,-0.252,1.121,-0.139
0.4,-0.196,0.868,0.005
0.41,-0.047,1.106,0.182
0.42,-0.147,0.776,0.028
0.43,-0.377,1.02,-0.161
0.44,-0.156,1.057,-0.079
0.45,-0.086,1.006,0.058
0.46,-0.157,0.906,0.132
0.47,-0.251,0.78,-0.015
0.48,-0.329,1.279,-0.144
0.49,-0.122,0.866,-0.12
0.5,-0.208,1.037,0.146
0.51,-0.148,0.796,0.169
0.52,-0.329,1.025,-0.117
0.53,-0.253,0.976,-0.118
0.54,-0.221,0.925,0.003
0.55,-0.098,1.125,0.184
0.56,-0.138,0.718,0.067
0.57,-0.368,1.105,-0.14
0.58,-0.245,0.921,-0.064
0.59,-0.116,1.189,-0.01
0.6,-0.095,0.811,0.172
0.61,-0.277,0.837,0.009
0.62,-0.319,1.118,-0.143
0.63,-0.099,0.896,-0.071
0.64,-0.165,1.1,0.089
0.65,-0.148,0.7,0.159
0.66,-0.317,1.12,-0.055
0.67,-0.275,0.918,-0.164
0.68,-0.197,0.969,-0.033
0.69,-0.129,1.033,0.192
0.7,-0.137,0.803,0.085
0.71,-0.415,1.111,-0.102
0.72,-0.16,0.763,-0.181
0.73,-0.25,1.333,0.094
0.74,-0.022,0.779,0.109
0.75,-0.205,0.941,0.04
0.76,-0.339,1.004,-0.146
0.77,-0.204,0.978,-0.072
0.78,-0.07,1.119,0.041
0.79,-0.083,0.693,0.118
0.8,-0.336,1.093,-0.04
0.81,-0.262,0.869,-0.152
0.82,-0.198,1.194,-0.051
0.83,-0.13,0.76,0.146
0.84,-0.154,0.988,0.105
0.85,-0.294,1.193,-0.133
0.86,-0.198,0.923,0.015
0.87,-0.08,1.088,0.179
0.88,-0.165,0.716,0.031
0.89,-0.375,1.13,-0.13
0.9,-0.244,0.966,-0.046
0.91,-0.113,1.074,0.035
0.92,-0.135,0.833,0.127
0.93,-0.288,0.843,0.028
0.94,-0.303,1.207,-0.146
0.95,-0.182,0.855,-0.078
0.96,-0.122,1.066,0.081
0.97,-0.094,0.713,0.162
0.98,-0.34,1.115,-0.087
0.99,-0.297,0.902,-0.128
1.0,-0.178,0.986,-0.031
1.01,-0.135,1.083,0.193
1.02,-0.125,0.718,0.038
1.03,-0.375,1.149,-0.106
1.04,-0.21,0.839,-0.097
1.05,-0.217,1.25,0.047
1.06,-0.035,0.751,0.154
1.07,-0.233,0.906,0.018
1.08,-0.392,1.022,-0.132
1.09,-0.161,0.999,-0.076
1.1,-0.103,1.094,0.042
1.11,-0.072,0.604,0.159
1.12,-0.311,1.157,-0.046
1.13,-0.296,0.925,-0.123
1.14,-0.258,1.064,-0.074
1.15,-0.066,0.824,0.131
1.16,-0.168,0.906,0.154
1.17,-0.391,1.143,-0.059
1.18,-0.231,0.75,-0.182
1.19,-0.254,1.149,0.013
1.2,-0.098,0.851,0.189
1.21,-0.173,1.07,0.056
1.22,-0.308,0.835,-0.152
1.23,-0.227,0.986,-0.124
1.24,-0.2,1.126,0.11
1.25,0.041,0.779,0.126
1.26,-0.296,1.039,0.011
1.27,-0.345,0.827,-0.135
1.28,-0.248,1.238,-0.027
1.29,-0.068,0.831,0.041
1.3,-0.145,0.935,0.132
1.31,-0.34,0.945,-0.025
1.32,-0.271,1.015,-0.141
1.33,-0.197,1.067,-0.058
1.34,-0.1,0.747,0.126
1.35,-0.181,1.103,0.141
1.36,-0.323,0.885,-0.114
1.37,-0.293,1.076,-0.129
1.38,-0.206,0.932,0.008
1.39,-0.072,1.0,0.19
1.4,-0.179,0.948,0.067
1.41,-0.335,0.852,-0.144
1.42,-0.24,1.178,-0.058
1.43,-0.017,0.894,0.031
1.44,-0.082,1.035,0.138
1.45,-0.295,0.79,-0.009
1.46,-0.348,1.101,-0.138
1.47,-0.118,1.028,-0.071
1.48,-0.135,0.907,0.071
1.49,-0.173,0.907,0.168
1.5,-0.297,0.88,-0.083
1.51,-0.306,1.176,-0.128
1.52,-0.169,0.82,-0.026
1.53,-0.112,1.053,0.118
1.54,-0.138,0.799,0.075
1.55,-0.355,1.119,-0.138
1.56,-0.27,0.876,-0.116
1.57,-0.141,1.136,0.055
1.58,-0.05,0.948,0.113
1.59,-0.224,0.789,0.016
1.6,-0.385,1.105,-0.141
1.61,-0.097,0.906,-0.076
1.62,-0.22,1.177,0.085
1.63,-0.04,0.656,0.144
1.64,-0.367,1.08,-0.038
1.65,-0.346,0.973,-0.111
1.66,-0.157,0.93,-0.07
1.67,-0.147,1.023,0.116
1.68,-0.175,0.741,0.119
1.69,-0.356,1.212,-0.084
1.7,-0.211,0.787,-0.164
1.71,-0.25,1.149,0.047
1.72,-0.064,0.889,0.167
1.73,-0.185,0.974,0.039
1.74,-0.326,0.98,-0.117
1.75,-0.206,0.917,-0.108
1.76,-0.164,1.217,0.04
1.77,-0.083,0.737,0.149
1.78,-0.241,1.038,-0.021
1.79,-0.292,0.845,-0.141
1.8,-0.205,1.141,-0.066
1.81,-0.063,0.947,0.076
1.82,-0.109,0.821,0.132
1.83,-0.347,1.071,-0.044
1.84,-0.249,0.87,-0.119
1.85,-0.244,1.135,-0.03
1.86,-0.111,0.753,0.123
1.87,-0.213,1.058,0.13
1.88,-0.259,0.917,-0.104
1.89,-0.243,0.957,-0.157
1.9,-0.184,1.032,0.029
1.91,-0.024,0.886,0.168
1.92,-0.221,1.095,0.052
1.93,-0.326,0.77,-0.141
1.94,-0.225,1.221,-0.065
1.95,-0.077,1.004,0.047
1.96,-0.105,0.957,0.116
1.97,-0.266,0.891,0.023
1.98,-0.304,0.972,-0.142
1.99,-0.177,1.114,-0.048
2.0,-0.081,0.802,0.093
2.01,-0.179,1.027,0.105
2.02,-0.31,0.851,-0.052
2.03,-0.296,1.157,-0.133
2.04,-0.172,0.88,-0.024
2.05,-0.134,0.946,0.131
2.06,-0.202,0.972,0.115
2.07,-0.305,0.923,-0.125
2.08,-0.296,1.105,-0.111
2.09,-0.15,0.878,0.019
2.1,-0.078,1.156,0.149
2.11,-0.192,0.755,0.037
2.12,-0.324,1.041,-0.12
2.13,-0.181,1.045,-0.074
2.14,-0.115,1.017,0.042
2.15,-0.153,0.912,0.165
2.16,-0.243,0.823,-0.017
2.17,-0.393,1.196,-0.149
2.18,-0.111,0.852,-0.085
2.19,-0.29,1.105,0.246
2.2,-0.116,0.728,0.134
2.21,-0.333,1.001,-0.073
2.22,-0.323,1.052,-0.115
2.23,-0.138,0.897,-0.019
2.24,-0.109,1.042,0.153
2.25,-0.18,0.748,0.057
2.26,-0.395,1.178,-0.124
2.27,-0.178,0.819,-0.122
2.28,-0.159,1.173,0.028
2.29,-0.113,0.901,0.166
2.3,-0.181,0.877,-0.02
2.31,-0.378,1.039,-0.143
2.32,-0.164,0.873,-0.067
2.33,-0.107,1.242,0.078
2.34,-0.087,0.686,0.128
2.35,-0.39,1.079,-0.05
2.36,-0.193,0.836,-0.155
2.37,-0.21,1.134,-0.031
2.38,-0.086,0.8,0.11
2.39,-0.189,0.96,0.123
2.4,-0.305,1.059,-0.098
2.41,-0.272,0.855,-0.108
2.42,-0.188,1.165,0.037
2.43,-0.022,0.807,0.137
2.44,-0.257,1.05,0.012
2.45,-0.349,0.805,-0.125
2.46,-0.192,1.135,-0.096
2.47,-0.079,1.015,0.04
2.48,-0.107,0.794,0.171
2.49,-0.298,1.043,-0.03
2.5,-0.312,0.861,-0.112
2.51,-0.184,1.178,-0.057
2.52,-0.113,0.774,0.111
2.53,-0.17,1.003,0.12
2.54,-0.325,0.942,-0.081
2.55,-0.284,0.977,-0.11
2.56,-0.209,0.992,-0.021
2.57,-0.064,0.852,0.17
2.58,-0.218,1.098,0.069
2.59,-0.279,0.784,-0.137
2.6,-0.216,1.168,-0.096
2.61,-0.129,0.978,0.02
2.62,-0.116,0.931,0.157
2.63,-0.21,0.898,-0.0
2.64,-0.302,0.968,-0.141
2.65,-0.241,1.151,-0.047
2.66,-0.137,0.799,0.071
2.67,-0.092,0.969,0.145
2.68,-0.3,0.89,-0.026
2.69,-0.339,1.15,-0.194
2.7,-0.178,0.881,-0.058
2.71,-0.063,0.978,0.129
2.72,-0.183,0.966,0.112
2.73,-0.312,0.892,-0.123
2.74,-0.3,1.14,-0.089
2.75,-0.174,0.892,-0.015
2.76,-0.112,1.12,0.158
2.77,-0.14,0.769,0.022
2.78,-0.349,1.033,-0.114
2.79,-0.243,1.039,-0.064
2.8,-0.068,1.014,0.008
2.81,-0.129,0.913,0.18
2.82,-0.256,0.789,-0.017
2.83,-0.368,1.225,-0.116
2.84,-0.183,0.891,-0.106
2.85,-0.082,1.039,0.089
2.86,-0.136,0.781,0.167
2.87,-0.316,1.033,-0.09
2.88,-0.296,1.001,-0.154
2.89,-0.146,0.921,-0.047
2.9,-0.096,1.107,0.146
2.91,-0.14,0.738,0.084
2.92,-0.373,1.166,-0.1
2.93,-0.222,0.817,-0.114
2.94,-0.195,1.149,-0.017
2.95,-0.124,0.898,0.184
2.96,-0.165,0.867,0.042
2.97,-0.312,1.07,-0.149
2.98,-0.217,0.908,-0.079
2.99,-0.143,1.198,0.014
3.0,-0.067,0.629,0.176
3.01,-0.278,1.09,-0.007
3.02,-0.288,0.972,-0.124
3.03,-0.216,0.984,-0.127
3.04,-0.145,0.918,0.132
3.05,-0.121,0.788,0.132
3.06,-0.376,1.192,-0.082
3.07,-0.287,0.768,-0.133
3.08,-0.194,1.111,-0.041
3.09,-0.075,0.841,0.183
3.1,-0.214,1.022,0.068
3.11,-0.323,0.914,-0.089
3.12,-0.147,0.878,-0.11
3.13,-0.19,1.221,0.023
3.14,-0.049,0.8,0.149
3.15,-0.251,1.082,0.021
3.16,-0.281,0.802,-0.128
3.17,-0.211,1.215,-0.065
3.18,-0.13,0.812,0.07
3.19,-0.083,0.958,0.143
3.2,-0.32,0.945,-0.011
3.21,-0.345,1.037,-0.149
3.22,-0.232,1.01,-0.063
3.23,-0.06,0.839,0.115
3.24,-0.245,1.071,0.124
3.25,-0.318,0.841,-0.082
3.26,-0.321,1.152,-0.13
3.27,-0.163,0.89,-0.002
3.28,-0.04,1.026,0.158
3.29,-0.185,0.917,0.06
3.3,-0.357,0.903,-0.132
3.31,-0.264,1.098,-0.085
3.32,-0.098,0.936,0.046
3.33,-0.108,1.037,0.12
3.34,-0.229,0.777,0.007
3.35,-0.318,1.137,-0.114
3.36,-0.145,1.004,-0.113
3.37,-0.153,0.946,0.07
3.38,-0.114,0.881,0.154
3.39,-0.299,0.908,-0.043
3.4,-0.331,1.179,-0.158
3.41,-0.187,0.794,-0.068
3.42,-0.122,1.055,0.102
3.43,-0.134,0.825,0.143
3.44,-0.369,1.07,-0.13
3.45,-0.283,0.858,-0.092
3.46,-0.189,1.025,0.008
3.47,-0.042,1.125,0.14
3.48,-0.151,0.764,0.004
3.49,-0.398,1.114,-0.105
3.5,-0.17,0.877,-0.084
3.51,-0.102,1.282,0.026
3.52,-0.073,0.704,0.129
3.53,-0.222,0.886,0.023
3.54,-0.358,1.105,-0.103
3.55,-0.152,0.935,-0.087
3.56,-0.131,1.102,0.108
3.57,-0.099,0.664,0.121
3.58,-0.315,1.141,-0.035
3.59,-0.262,0.918,-0.145
3.6,-0.233,1.051,-0.064
3.61,-0.109,0.897,0.108
3.62,-0.182,0.866,0.146
3.63,-0.328,1.116,-0.086
3.64,-0.285,0.82,-0.127
3.65,-0.215,1.189,0.052
3.66,-0.074,0.805,0.142
3.67,-0.227,1.044,0.057
3.68,-0.284,0.915,-0.115
3.69,-0.196,0.968,-0.096
3.7,-0.192,1.088,0.055
3.71,-0.005,0.815,0.123
3.72,-0.319,1.052,0.029
3.73,-0.34,0.788,-0.134
3.74,-0.099,1.252,-0.067
3.75,-0.105,0.889,0.049
3.76,-0.145,0.855,0.142
3.77,-0.287,0.973,-0.038
3.78,-0.212,1.002,-0.179
3.79,-0.156,1.06,-0.068
3.8,-0.063,0.778,0.114
3.81,-0.25,1.106,0.165
3.82,-0.239,0.834,-0.108
3.83,-0.272,1.092,-0.111
3.84,-0.289,0.942,-0.01
3.85,-0.097,0.933,0.163
3.86,-0.183,0.987,0.042
3.87,-0.354,0.844,-0.112
3.88,-0.195,1.165,-0.111
3.89,-0.059,0.915,-0.0
3.9,-0.074,1.043,0.147
3.91,-0.204,0.805,0.007
3.92,-0.359,1.074,-0.097
3.93,-0.199,1.042,-0.116
3.94,-0.129,0.903,0.087
3.95,-0.167,0.937,0.133
3.96,-0.325,0.857,0.019
3.97,-0.334,1.2,-0.207
3.98,-0.194,0.809,-0.024
3.99,-0.116,1.063,0.102
4.0,-0.138,0.787,0.119
4.01,-0.352,1.068,-0.123
4.02,-0.248,0.848,-0.124
4.03,-0.187,1.088,0.067
4.04,-0.057,0.982,0.114
4.05,-0.259,0.756,0.043
4.06,-0.375,1.104,-0.119
4.07,-0.156,0.895,-0.042
4.08,-0.131,1.233,0.021
4.09,-0.08,0.697,0.132
4.1,-0.298,0.995,-0.006
4.11,-0.325,1.022,-0.153
4.12,-0.182,0.967,-0.074
4.13,-0.154,1.061,0.076
4.14,-0.125,0.714,0.151
4.15,-0.357,1.201,-0.059
4.16,-0.273,0.839,-0.121
4.17,-0.24,1.053,-0.05
4.18,-0.034,0.865,0.157
4.19,-0.185,0.961,0.112
4.2,-0.364,1.007,-0.142
4.21,-0.302,0.782,-0.08
4.22,-0.211,1.218,0.031
4.23,-0.031,0.803,0.145
4.24,-0.199,1.073,0.022
4.25,-0.312,0.834,-0.108
4.26,-0.25,1.047,-0.081
4.27,-0.081,1.082,0.077
4.28,-0.076,0.839,0.113
4.29,-0.286,1.032,-0.002
4.3,-0.334,0.821,-0.143
4.31,-0.166,1.202,-0.077
4.32,-0.038,0.798,0.032
4.33,-0.131,1.013,0.151
4.34,-0.306,0.909,-0.069
4.35,-0.258,0.973,-0.116
4.36,-0.18,1.023,-0.048
4.37,-0.042,0.803,0.129
4.38,-0.213,1.092,0.129
4.39,-0.302,0.832,-0.079
4.4,-0.272,1.118,-0.13
4.41,-0.209,0.908,-0.019
4.42,-0.085,0.986,0.2
4.43,-0.147,0.955,0.038
4.44,-0.396,0.887,-0.095
4.45,-0.198,1.11,-0.075
4.46,-0.068,0.939,0.019
4.47,-0.076,1.055,0.107
4.48,-0.162,0.8,-0.022
4.49,-0.379,1.146,-0.142
4.5,-0.219,0.978,-0.035
4.51,-0.111,0.981,0.088
4.52,-0.151,0.915,0.174
4.53,-0.325,0.854,-0.056
4.54,-0.343,1.177,-0.125
4.55,-0.144,0.818,-0.101
4.56,-0.153,1.071,0.127
4.57,-0.18,0.791,0.137
4.58,-0.331,1.061,-0.118
4.59,-0.306,0.947,-0.098
4.6,-0.151,0.926,0.003
4.61,-0.125,1.096,0.205
4.62,-0.179,0.815,0.021
4.63,-0.367,1.103,-0.122
4.64,-0.197,0.865,-0.095
4.65,-0.159,1.237,0.056
4.66,-0.036,0.763,0.122
4.67,-0.303,0.907,0.004
4.68,-0.337,1.019,-0.075
4.69,-0.189,0.968,-0.064
4.7,-0.154,1.142,0.091
4.71,-0.112,0.618,0.113
4.72,-0.342,1.165,0.001
4.73,-0.236,0.898,-0.161
4.74,-0.238,1.052,-0.051
4.75,-0.094,0.91,0.11
4.76,-0.174,0.857,0.132
4.77,-0.364,1.125,-0.089
4.78,-0.2,0.757,-0.119
4.79,-0.23,1.245,0.002
4.8,-0.022,0.792,0.16
4.81,-0.211,1.025,0.052
4.82,-0.343,0.857,-0.127
4.83,-0.219,1.134,-0.079
4.84,-0.141,0.969,0.027
4.85,-0.086,0.824,0.138
4.86,-0.323,1.02,0.014
4.87,-0.281,0.862,-0.137
4.88,-0.229,1.156,-0.079
4.89,-0.061,0.785,0.074
4.9,-0.121,1.038,0.107
4.91,-0.298,0.89,-0.038
4.92,-0.304,1.025,-0.156
4.93,-0.178,0.99,-0.026
4.94,-0.123,0.892,0.137
4.95,-0.206,1.061,0.131
4.96,-0.293,0.832,-0.099
4.97,-0.246,1.148,-0.106
4.98,-0.172,0.953,0.046
4.99,-0.083,1.024,0.123
5.0,-0.166,0.852,0.034
5.01,-0.319,0.974,-0.148
5.02,-0.275,1.113,-0.031
5.03,-0.048,0.905,-0.008
5.04,-0.141,1.017,0.178
5.05,-0.254,0.791,-0.01
5.06,-0.368,1.186,-0.138
5.07,-0.191,0.92,-0.084
5.08,-0.078,0.949,0.075
5.09,-0.139,0.848,0.165
5.1,-0.322,0.957,-0.042
5.11,-0.309,1.127,-0.123
5.12,-0.219,0.816,-0.049
5.13,-0.155,1.091,0.141
5.14,-0.138,0.769,0.091
5.15,-0.347,1.114,-0.086
5.16,-0.245,0.912,-0.13
5.17,-0.136,1.0,-0.006
5.18,-0.125,1.027,0.183
5.19,-0.155,0.833,0.034
5.2,-0.382,1.091,-0.131
5.21,-0.225,0.8,-0.096
5.22,-0.15,1.284,0.081
5.23,-0.017,0.827,0.104
5.24,-0.315,0.906,0.018
5.25,-0.308,0.946,-0.133
5.26,-0.171,1.016,-0.071
5.27,-0.088,1.107,0.069
5.28,-0.115,0.652,0.149
5.29,-0.336,1.127,-0.047
5.3,-0.306,0.898,-0.084
5.31,-0.162,1.125,-0.078
5.32,-0.173,0.839,0.105
5.33,-0.153,0.859,0.139
5.34,-0.294,1.115,-0.078
5.35,-0.217,0.805,-0.127
5.36,-0.244,1.144,-0.004
5.37,-0.056,0.781,0.169
5.38,-0.154,1.079,0.083
5.39,-0.335,0.842,-0.136
5.4,-0.267,0.986,-0.105
5.41,-0.093,1.131,0.032
5.42,-0.062,0.854,0.148
5.43,-0.249,0.993,0.025
5.44,-0.305,0.825,-0.137
5.45,-0.226,1.21,-0.048
5.46,-0.07,0.858,0.038
5.47,-0.076,0.955,0.111
5.48,-0.379,0.931,0.005
5.49,-0.221,1.004,-0.167
5.5,-0.211,1.071,-0.073
5.51,-0.086,0.8,0.091
5.52,-0.239,1.083,0.184
5.53,-0.264,0.859,-0.086
5.54,-0.243,1.144,-0.154
5.55,-0.28,0.863,-0.02
5.56,-0.101,0.936,0.15
5.57,-0.155,1.004,0.109
5.58,-0.343,0.895,-0.153
5.59,-0.249,1.04,-0.113
5.6,-0.12,0.938,0.058
5.61,-0.106,1.127,0.128
5.62,-0.196,0.76,0.041
5.63,-0.372,1.047,-0.099
5.64,-0.189,1.012,-0.077
5.65,-0.215,1.15,0.125
5.66,-0.096,0.722,0.128
5.67,-0.293,0.948,0.008
5.68,-0.313,1.129,-0.157
5.69,-0.156,0.838,-0.063
5.7,-0.116,1.097,0.118
5.71,-0.164,0.719,0.119
5.72,-0.376,1.146,-0.082
5.73,-0.242,0.872,-0.134
5.74,-0.198,1.035,-0.028
5.75,-0.182,0.943,0.15
5.76,-0.13,0.827,0.096
5.77,-0.352,1.132,-0.093
5.78,-0.236,0.794,-0.115
5.79,-0.212,1.268,0.05
5.8,0.025,0.778,0.106
5.81,-0.246,1.015,0.051
5.82,-0.312,0.876,-0.151
5.83,-0.209,1.057,-0.042
5.84,-0.113,1.094,0.035
5.85,-0.044,0.714,0.141
5.86,-0.333,1.111,-0.006
5.87,-0.325,0.825,-0.135
5.88,-0.196,1.116,-0.074
5.89,-0.149,0.846,0.136
5.9,-0.119,0.955,0.081
5.91,-0.356,1.053,-0.036
5.92,-0.212,0.835,-0.166
5.93,-0.212,1.105,-0.049
5.94,-0.09,0.773,0.166
5.95,-0.195,1.113,0.082
5.96,-0.282,0.808,-0.11
5.97,-0.268,1.081,-0.113
5.98,-0.191,1.04,0.051
5.99,-0.062,0.858,0.116
6.0,-0.205,1.013,0.071
6.01,-0.319,0.854,-0.162
6.02,-0.246,1.217,-0.046
6.03,-0.098,0.868,0.051
6.04,-0.08,1.012,0.159
6.05,-0.219,0.844,-0.012
6.06,-0.351,1.055,-0.101
6.07,-0.211,0.991,-0.095
6.08,-0.064,0.868,0.118
6.09,-0.195,1.073,0.133
6.1,-0.283,0.835,-0.052
6.11,-0.319,1.166,-0.115
6.12,-0.091,0.881,-0.038
6.13,-0.129,1.046,0.133
6.14,-0.208,0.855,0.109
6.15,-0.314,0.993,-0.098
6.16,-0.233,1.043,-0.134
6.17,-0.189,0.874,-0.003
6.18,-0.104,1.11,0.148
6.19,-0.161,0.784,0.082
6.2,-0.356,1.102,-0.117
6.21,-0.236,0.857,-0.117
6.22,-0.137,1.138,0.066
6.23,-0.065,0.948,0.134
6.24,-0.177,0.786,-0.008
6.25,-0.402,1.122,-0.134
6.26,-0.177,0.884,-0.067
6.27,-0.119,1.192,0.076
6.28,-0.058,0.683,0.102
6.29,-0.408,1.034,-0.018
6.3,-0.305,0.953,-0.077
6.31,-0.138,1.0,-0.072
6.32,-0.139,0.993,0.078
6.33,-0.175,0.758,0.132
6.34,-0.355,1.174,-0.072
6.35,-0.282,0.791,-0.15
6.36,-0.172,1.114,-0.016
6.37,-0.099,0.889,0.178
6.38,-0.191,0.934,0.075
6.39,-0.37,0.996,-0.108
6.4,-0.231,0.852,-0.094
6.41,-0.177,1.247,0.047
6.42,-0.013,0.793,0.12
6.43,-0.266,1.076,0.018
6.44,-0.296,0.793,-0.146
6.45,-0.26,1.115,-0.054
6.46,-0.065,1.019,0.052
6.47,-0.066,0.935,0.126
6.48,-0.329,0.948,0.006
6.49,-0.278,0.994,-0.103
6.5,-0.188,1.036,-0.073
6.51,-0.065,0.776,0.111
6.52,-0.227,1.079,0.138
6.53,-0.283,0.853,-0.073
6.54,-0.357,1.111,-0.124
6.55,-0.177,0.873,-0.051
6.56,-0.12,1.004,0.184
6.57,-0.122,0.998,0.071
6.58,-0.363,0.902,-0.121
6.59,-0.314,1.079,-0.086
6.6,-0.095,0.963,0.065
6.61,-0.113,1.128,0.094
6.62,-0.156,0.737,0.015
6.63,-0.403,1.071,-0.114
6.64,-0.237,1.019,-0.052
6.65,-0.069,0.987,0.014
6.66,-0.174,0.945,0.164
6.67,-0.219,0.778,-0.019
6.68,-0.385,1.209,-0.106
6.69,-0.127,0.865,-0.107
6.7,-0.167,1.1,0.119
6.71,-0.077,0.759,0.132
6.72,-0.339,1.035,-0.031
6.73,-0.329,1.032,-0.134
6.74,-0.156,0.869,-0.068
6.75,-0.131,1.075,0.134
6.76,-0.184,0.77,0.125
6.77,-0.369,1.173,-0.093
6.78,-0.258,0.815,-0.096
6.79,-0.187,1.104,-0.025
6.8,-0.102,0.953,0.202
6.81,-0.181,0.88,0.038
6.82,-0.344,1.035,-0.116
6.83,-0.229,0.864,-0.078
6.84,-0.098,1.269,0.002
6.85,-0.041,0.736,0.123
6.86,-0.265,1.049,0.053
6.87,-0.33,0.842,-0.136
6.88,-0.116,1.071,-0.072
6.89,-0.08,1.061,0.025
6.9,-0.115,0.734,0.137
6.91,-0.228,1.069,-0.033
6.92,-0.303,0.883,-0.119
6.93,-0.225,1.176,-0.039
6.94,-0.049,0.781,0.055
6.95,-0.155,0.991,0.143
6.96,-0.343,0.985,-0.063
6.97,-0.237,0.953,-0.163
6.98,-0.187,1.05,-0.02
6.99,0.044,0.777,0.059
7.0,-0.236,1.121,0.111
7.01,-0.287,0.851,-0.131
7.02,-0.299,1.065,-0.095
7.03,-0.125,0.946,0.026
7.04,-0.333,1.008,0.235
7.05,-0.246,0.956,0.028
7.06,-0.319,0.866,-0.095
7.07,-0.186,1.187,-0.115
7.08,-0.085,0.871,0.057
7.09,-0.106,1.015,0.163
7.1,-0.242,0.786,-0.017
7.11,-0.345,1.085,-0.113
7.12,-0.151,1.033,-0.083
7.13,-0.29,0.909,0.111
7.14,-0.18,0.914,0.132
7.15,-0.315,0.862,-0.037
7.16,-0.246,1.188,-0.194
7.17,-0.222,0.831,-0.028
7.18,-0.145,1.06,0.148
7.19,-0.138,0.855,0.131
7.2,-0.372,1.016,-0.111
7.21,-0.294,0.944,-0.122
7.22,-0.211,0.943,0.028
7.23,-0.105,1.121,0.158
7.24,-0.155,0.73,0.017
7.25,-0.339,1.123,-0.122
7.26,-0.213,0.906,-0.088
7.27,-0.136,1.176,0.063
7.28,-0.027,0.861,0.127
7.29,-0.273,1.005,-0.01
7.3,-0.349,0.987,-0.136
7.31,-0.148,1.028,-0.081
7.32,-0.153,1.039,0.092
7.33,-0.1,0.721,0.128
7.34,-0.392,1.177,-0.042
7.35,-0.299,0.826,-0.169
7.36,-0.24,1.086,-0.009
7.37,-0.128,0.86,0.134
7.38,-0.166,0.918,0.113
7.39,-0.288,1.055,-0.092
7.4,-0.226,0.838,-0.157
7.41,-0.242,1.145,0.007
7.42,-0.02,0.832,0.137
7.43,-0.218,1.068,0.026
7.44,-0.303,0.776,-0.153
7.45,-0.22,1.13,-0.049
7.46,-0.086,1.039,-0.004
7.47,-0.073,0.766,0.144
7.48,-0.234,1.03,0.011
7.49,-0.359,0.92,-0.096
7.5,-0.149,1.179,-0.111
7.51,-0.175,0.847,0.091
7.52,-0.103,1.014,0.124
7.53,-0.337,0.921,-0.014
7.54,-0.27,1.012,-0.147
7.55,-0.2,1.012,-0.041
7.56,-0.116,0.843,0.119
7.57,-0.216,1.062,0.128
7.58,-0.276,0.826,-0.094
7.59,-0.28,1.111,-0.136
7.6,-0.213,0.878,-0.019
7.61,-0.109,1.008,0.165
7.62,-0.168,0.921,0.081
7.63,-0.35,0.895,-0.125
7.64,-0.241,1.087,-0.094
7.65,-0.042,0.976,0.045
7.66,-0.077,1.097,0.098
7.67,-0.189,0.732,0.024
7.68,-0.368,1.115,-0.121
7.69,-0.175,1.018,-0.074
7.7,-0.078,1.026,0.038
7.71,-0.121,0.868,0.148
7.72,-0.333,0.873,-0.008
7.73,-0.31,1.182,-0.122
7.74,-0.218,0.853,-0.051
7.75,-0.124,1.05,0.118
7.76,-0.148,0.747,0.088
7.77,-0.356,1.11,-0.061
7.78,-0.231,0.936,-0.126
7.79,-0.168,0.94,-0.053
7.8,-0.154,1.06,0.188
7.81,-0.168,0.755,0.096
7.82,-0.346,1.146,-0.102
7.83,-0.213,0.824,-0.123
7.84,-0.192,1.204,0.036
7.85,-0.033,0.847,0.124
7.86,-0.208,0.909,0.011
7.87,-0.368,0.995,-0.145
7.88,-0.199,0.926,-0.056
7.89,-0.095,1.215,0.03
7.9,-0.047,0.677,0.136
7.91,-0.32,1.099,-0.007
7.92,-0.328,0.897,-0.1
7.93,-0.192,1.068,-0.081
7.94,-0.119,0.927,0.06
7.95,-0.11,0.857,0.129
7.96,-0.368,1.127,-0.036
7.97,-0.232,0.826,-0.14
7.98,-0.218,1.165,-0.05
7.99,-0.085,0.792,0.125
8.0,-0.187,1.051,0.138
8.01,-0.292,0.929,-0.104
8.02,-0.255,0.963,-0.127
8.03,-0.24,1.056,-0.035
8.04,-0.037,0.827,0.166
8.05,-0.21,1.106,0.071
8.06,-0.341,0.754,-0.127
8.07,-0.292,1.139,-0.09
8.08,-0.073,0.994,0.035
8.09,-0.014,0.977,0.146
8.1,-0.252,0.914,0.015
8.11,-0.358,0.894,-0.086
8.12,-0.137,1.087,-0.096
8.13,-0.123,0.903,0.082
8.14,-0.184,0.96,0.126
8.15,-0.323,0.883,-0.016
8.16,-0.28,1.217,-0.155
8.17,-0.189,0.812,-0.069
8.18,-0.115,1.062,0.105
8.19,-0.152,0.862,0.109
8.2,-0.316,1.005,-0.099
8.21,-0.325,1.001,-0.11
8.22,-0.189,0.879,-0.009
8.23,-0.128,1.114,0.184
8.24,-0.135,0.766,0.041
8.25,-0.401,1.09,-0.092
8.26,-0.231,0.844,-0.096
8.27,-0.097,1.202,0.074
8.28,-0.031,0.916,0.113
8.29,-0.257,0.838,0.056
8.3,-0.311,1.068,-0.157
8.31,-0.217,0.945,-0.041
8.32,-0.101,1.24,0.039
8.33,-0.045,0.675,0.109
8.34,-0.341,1.075,0.009
8.35,-0.279,0.941,-0.125
8.36,-0.172,1.027,-0.07
8.37,-0.137,0.972,0.092
8.38,-0.131,0.756,0.103
8.39,-0.354,1.173,-0.038
8.4,-0.217,0.844,-0.168
8.41,-0.244,1.117,-0.07
8.42,-0.158,0.802,0.149
8.43,-0.174,1.02,0.152
8.44,-0.269,0.986,-0.111
8.45,-0.309,0.861,-0.073
8.46,-0.287,1.125,-0.002
8.47,-0.021,0.805,0.155
8.48,-0.217,1.091,0.044
8.49,-0.295,0.756,-0.149
8.5,-0.295,1.093,-0.069
8.51,-0.068,0.996,0.028
8.52,-0.045,0.892,0.166
8.53,-0.27,0.971,0.03
8.54,-0.385,0.806,-0.119
8.55,-0.143,1.187,-0.064
8.56,-0.054,0.86,0.043
8.57,-0.174,1.021,0.144
8.58,-0.323,0.844,-0.006
8.59,-0.225,1.108,-0.145
8.6,-0.157,0.981,-0.071
8.61,-0.005,0.815,-0.021
8.62,-0.164,1.058,0.171
8.63,-0.28,0.882,-0.08
8.64,-0.357,1.147,-0.098
8.65,-0.152,0.814,-0.049
8.66,-0.148,1.104,0.146
8.67,-0.131,0.863,0.092
8.68,-0.311,0.984,-0.113
8.69,-0.249,0.979,-0.119
8.7,-0.174,0.941,0.056
8.71,-0.089,1.128,0.152
8.72,-0.146,0.737,0.035
8.73,-0.377,1.086,-0.119
8.74,-0.264,0.946,-0.067
8.75,-0.085,1.179,0.001
8.76,-0.095,0.824,0.142
8.77,-0.274,0.855,0.013
8.78,-0.322,1.101,-0.152
8.79,-0.148,0.902,-0.079
8.8,-0.122,1.165,0.075
8.81,-0.038,0.679,0.127
8.82,-0.371,1.057,-0.019
8.83,-0.278,0.962,-0.116
8.84,-0.218,0.993,-0.057
8.85,-0.223,1.016,0.11
8.86,-0.133,0.771,0.144
8.87,-0.339,1.179,-0.1
8.88,-0.292,0.808,-0.091
8.89,-0.179,1.167,-0.043
8.9,-0.039,0.872,0.142
8.91,-0.163,0.965,0.062
8.92,-0.347,0.977,-0.102
8.93,-0.254,0.897,-0.127
8.94,-0.133,1.05,0.048
8.95,-0.038,0.812,0.12
8.96,-0.281,1.037,0.041
8.97,-0.348,0.8,-0.117
8.98,-0.133,1.197,-0.11
8.99,-0.246,0.859,0.103
9.0,-0.111,0.98,0.093
9.01,-0.289,0.937,-0.001
9.02,-0.254,1.019,-0.137
9.03,-0.233,1.038,-0.074
9.04,-0.015,0.791,0.084
9.05,-0.164,1.128,0.14
9.06,-0.294,0.882,-0.081
9.07,-0.36,1.121,-0.116
9.08,-0.162,0.853,-0.06
9.09,-0.157,1.023,0.182
9.1,-0.173,0.974,0.095
9.11,-0.386,0.905,-0.093
9.12,-0.248,1.059,-0.118
9.13,-0.108,0.925,0.047
9.14,-0.083,1.127,0.116
9.15,-0.231,0.743,0.058
9.16,-0.365,1.087,-0.116
9.17,-0.187,0.982,-0.09
9.18,-0.089,1.071,0.042
9.19,-0.379,1.205,-0.078
9.2,-0.284,0.787,-0.143
9.21,-0.261,1.122,-0.029
9.22,-0.084,0.871,0.186
9.23,-0.133,0.96,0.08
9.24,-0.34,0.978,-0.118
9.25,-0.274,0.865,-0.13
9.26,-0.242,1.204,0.06
9.27,0.009,0.807,0.117
9.28,-0.22,1.074,0.04
9.29,-0.325,0.804,-0.143
9.3,-0.25,1.15,-0.063
9.31,-0.075,1.019,0.039
9.32,-0.103,0.834,0.143
9.33,-0.319,1.009,0.007
9.34,-0.305,0.858,-0.118
9.35,-0.145,1.239,-0.078
9.36,-0.188,0.78,0.079
9.37,-0.136,1.018,0.147
9.38,-0.344,0.864,-0.044
9.39,-0.223,1.046,-0.126
9.4,-0.161,1.059,-0.058
9.41,-0.044,0.803,0.099
9.42,-0.218,1.066,0.122
9.43,-0.296,0.859,-0.112
9.44,-0.289,1.133,-0.137
9.45,-0.204,0.913,0.002
9.46,-0.049,1.049,0.168
9.47,-0.174,0.874,0.067
9.48,-0.305,0.919,-0.127
9.49,-0.25,1.168,-0.058
9.5,-0.099,0.923,0.028
9.51,-0.067,0.97,0.131
9.52,-0.246,0.772,0.001
9.53,-0.322,1.15,-0.115
9.54,-0.115,0.956,-0.125
9.55,-0.137,0.995,0.077
9.56,-0.167,0.824,0.191
9.57,-0.268,0.937,-0.0
9.58,-0.321,1.199,-0.151
9.59,-0.203,0.782,-0.086
9.6,-0.107,1.064,0.098
9.61,-0.168,0.811,0.133
9.62,-0.331,1.105,-0.105
9.63,-0.303,0.874,-0.102
9.64,-0.146,0.949,-0.032
9.65,-0.148,1.101,0.207
9.66,-0.161,0.717,0.056
9.67,-0.344,1.136,-0.095
9.68,-0.195,0.859,-0.113
9.69,-0.198,1.28,0.045
9.7,-0.027,0.675,0.105
9.71,-0.272,1.035,0.059
9.72,-0.354,0.885,-0.119
9.73,-0.12,1.086,-0.081
9.74,-0.289,1.015,0.082
9.75,-0.106,0.741,0.135
9.76,-0.309,1.117,-0.026
9.77,-0.228,0.857,-0.133
9.78,-0.227,1.153,-0.084
9.79,-0.041,0.802,0.061
9.8,-0.144,1.0,0.119
9.81,-0.324,0.993,-0.072
9.82,-0.267,0.885,-0.108
9.83,-0.191,1.06,-0.039
9.84,-0.132,0.81,0.187
9.85,-0.208,1.12,0.076
9.86,-0.309,0.828,-0.099
9.87,-0.201,1.083,-0.148
9.88,-0.211,1.014,0.043
9.89,-0.086,0.955,0.136
9.9,-0.191,0.93,0.042
9.91,-0.31,0.846,-0.104
9.92,-0.199,1.162,-0.066
9.93,-0.095,0.922,0.023
9.94,-0.098,1.044,0.145
9.95,-0.25,0.799,-0.022
9.96,-0.346,1.039,-0.068
9.97,-0.114,1.019,-0.095
9.98,-0.108,0.919,0.055
9.99,-0.225,0.932,0.17
10.0,-0.348,0.835,-0.006
10.01,-0.261,1.216,-0.142
10.02,-0.124,0.821,-0.087
10.03,-0.17,1.012,0.127
10.04,-0.124,0.834,0.126
10.05,-0.263,1.072,-0.104
10.06,-0.311,1.007,-0.138
10.07,-0.199,0.862,0.006
10.08,-0.099,1.103,0.157
10.09,-0.194,0.792,0.046
10.1,-0.375,1.105,-0.14
10.11,-0.203,0.825,-0.135
10.12,-0.148,1.159,0.021
10.13,0.116,0.867,0.065
10.14,-0.177,0.872,0.009
10.15,-0.374,1.071,-0.142
10.16,-0.139,0.941,-0.055
10.17,-0.107,1.239,0.029
10.18,-0.087,0.624,0.188
10.19,-0.327,1.1,0.017
10.2,-0.277,0.968,-0.124
10.21,-0.17,1.062,-0.107
10.22,-0.123,0.958,0.102
10.23,-0.273,0.762,0.218
10.24,-0.337,1.174,-0.076
10.25,-0.255,0.814,-0.156
10.26,-0.265,1.125,-0.041
10.27,-0.103,0.806,0.18
10.28,-0.146,1.016,0.109
10.29,-0.339,0.958,-0.097
10.3,-0.199,0.847,-0.143
10.31,-0.231,1.214,0.053
10.32,-0.029,0.826,0.125
10.33,-0.221,1.059,0.025
10.34,-0.325,0.77,-0.147
10.35,-0.181,1.207,-0.053
10.36,-0.026,0.998,0.025
10.37,-0.207,0.863,0.259
10.38,-0.287,0.978,0.024
10.39,-0.279,0.945,-0.107
10.4,-0.187,1.209,-0.09
10.41,-0.11,0.721,0.065
10.42,-0.117,1.041,0.141
10.43,-0.271,0.9,-0.037
10.44,-0.271,1.086,-0.19
10.45,-0.254,0.947,-0.043
10.46,-0.095,0.844,0.145
10.47,-0.215,1.063,0.164
10.48,-0.339,0.842,-0.112
10.49,-0.305,1.111,-0.104
10.5,-0.146,0.854,-0.013
10.51,-0.128,1.099,0.196
10.52,-0.148,0.725,0.015
10.53,-0.318,1.064,-0.142
10.54,-0.252,0.991,-0.061
10.55,-0.088,1.089,0.04
10.56,-0.089,0.892,0.162
10.57,-0.273,0.788,-0.013
10.58,-0.33,1.188,-0.096
10.59,-0.098,0.922,-0.097
10.6,-0.172,1.085,0.099
10.61,-0.123,0.704,0.133
10.62,-0.356,1.1,0.004
10.63,-0.255,1.03,-0.17
10.64,-0.244,0.872,-0.042
10.65,-0.104,1.039,0.098
10.66,-0.156,0.777,0.106
10.67,-0.388,1.19,-0.11
10.68,-0.231,0.787,-0.126
10.69,-0.191,1.135,-0.003
10.7,-0.068,0.88,0.187
10.71,-0.156,0.961,0.059
10.72,-0.386,1.007,-0.146
10.73,-0.247,0.814,-0.071
10.74,-0.168,1.263,0.079
10.75,-0.011,0.761,0.161
10.76,-0.282,1.051,0.002
10.77,-0.306,0.843,-0.124
10.78,-0.19,1.116,-0.109
10.79,-0.053,0.982,0.065
10.8,-0.123,0.797,0.164
10.81,-0.329,1.07,-0.032
10.82,-0.268,0.846,-0.109
10.83,-0.162,1.216,-0.04
10.84,-0.142,0.733,0.081
10.85,-0.217,0.968,0.14
10.86,-0.302,0.972,-0.059
10.87,-0.226,1.009,-0.171
10.88,-0.167,1.031,-0.027
10.89,-0.089,0.809,0.153
10.9,-0.165,1.121,0.094
10.91,-0.331,0.788,-0.153
10.92,-0.237,1.126,-0.13
10.93,-0.257,0.965,0.114
10.94,-0.027,0.99,0.13
10.95,-0.223,0.911,0.011
10.96,-0.317,0.918,-0.106
10.97,-0.152,1.178,-0.086
10.98,-0.096,0.813,0.041
10.99,-0.094,1.047,0.124
11.0,-0.35,0.875,-0.005
11.01,-0.274,1.102,-0.199
11.02,-0.258,0.904,-0.039
11.03,-0.118,0.918,0.11
11.04,-0.175,1.002,0.144
11.05,-0.289,0.889,-0.081
11.06,-0.35,1.107,-0.117
11.07,-0.173,0.797,-0.008
11.08,-0.133,1.15,0.17
11.09,-0.149,0.815,0.063
11.1,-0.405,1.01,-0.119
11.11,-0.235,1.012,-0.09
11.12,-0.017,1.052,0.023
11.13,-0.247,1.003,0.104
11.14,-0.238,0.741,0.045
11.15,-0.299,1.191,-0.17
11.16,-0.207,0.965,-0.041
11.17,-0.057,1.101,0.032
11.18,-0.1,0.8,0.132
11.19,-0.284,0.926,-0.003
11.2,-0.34,1.129,-0.147
11.21,-0.179,0.899,-0.092
11.22,-0.147,1.071,0.095
11.23,-0.122,0.709,0.121
11.24,-0.333,1.145,-0.098
11.25,-0.246,0.842,-0.142
11.26,-0.166,0.996,-0.035
11.27,-0.02,0.975,0.083
11.28,-0.16,0.892,0.072
11.29,-0.349,1.115,-0.101
11.3,-0.191,0.814,-0.138
11.31,-0.194,1.22,0.02
11.32,-0.036,0.801,0.141
11.33,-0.289,1.043,0.066
11.34,-0.355,0.882,-0.116
11.35,-0.126,1.149,-0.098
11.36,-0.087,0.97,0.046
11.37,-0.33,0.818,0.23
11.38,-0.282,1.042,-0.042
11.39,-0.326,0.871,-0.108
11.4,-0.118,1.208,-0.078
11.41,-0.179,0.796,0.126
11.42,-0.171,0.976,0.106
11.43,-0.304,0.923,-0.046
11.44,-0.226,1.069,-0.172
11.45,-0.188,0.987,-0.019
11.46,-0.145,0.839,0.162
11.47,-0.259,1.082,0.06
11.48,-0.323,0.807,-0.124
11.49,-0.166,1.217,-0.101
11.5,-0.413,0.977,0.076
11.51,-0.13,0.903,0.094
11.52,-0.211,0.867,0.029
11.53,-0.295,1.048,-0.115
11.54,-0.155,1.141,-0.096
11.55,-0.252,0.801,0.134
11.56,-0.121,1.027,0.136
11.57,-0.319,0.854,-0.023
11.58,-0.296,1.161,-0.206
11.59,-0.212,0.857,-0.049
11.6,-0.209,0.986,0.187
11.61,-0.156,0.965,0.122
11.62,-0.35,0.888,-0.112
11.63,-0.271,1.067,-0.111
11.64,-0.202,0.931,0.047
11.65,-0.088,1.113,0.137
11.66,-0.238,0.771,0.064
11.67,-0.326,1.037,-0.14
11.68,-0.201,1.064,-0.065
11.69,-0.352,1.042,0.128
11.7,-0.117,0.879,0.162
11.71,-0.278,0.77,0.01
11.72,-0.299,1.239,-0.157
11.73,-0.222,0.907,-0.079
11.74,-0.118,1.072,0.108
11.75,-0.135,0.749,0.157
11.76,-0.354,1.045,-0.047
11.77,-0.348,1.016,-0.134
11.78,-0.141,0.867,-0.045
11.79,-0.178,1.097,0.188
11.8,-0.141,0.751,0.076
11.81,-0.384,1.131,-0.106
11.82,-0.176,0.83,-0.142
11.83,-0.214,1.195,0.044
11.84,-0.018,0.838,0.129
11.85,-0.186,0.867,0.038
11.86,-0.303,1.066,-0.149
11.87,-0.208,0.936,-0.055
11.88,-0.144,1.194,0.053
11.89,-0.043,0.656,0.126
11.9,-0.304,1.119,0.017
11.91,-0.222,0.918,-0.18
11.92,-0.25,1.012,-0.062
11.93,-0.102,0.951,0.116
11.94,-0.14,0.814,0.106
11.95,-0.393,1.157,-0.069
11.96,-0.229,0.779,-0.141
11.97,-0.227,1.158,-0.01
11.98,-0.031,0.848,0.177
11.99,-0.169,1.017,0.04
12.0,-0.349,0.906,-0.136
12.01,-0.182,0.942,-0.081
12.02,-0.224,1.226,0.072
12.03,-0.047,0.699,0.102
12.04,-0.26,1.069,0.045
12.05,-0.312,0.833,-0.115
12.06,-0.24,1.231,-0.084
12.07,-0.121,0.851,0.051
12.08,-0.055,0.859,0.153
12.09,-0.293,1.047,-0.003
12.1,-0.284,0.929,-0.153
12.11,-0.251,1.092,-0.061
12.12,-0.042,0.772,0.12
12.13,-0.218,1.111,0.117
12.14,-0.29,0.837,-0.127
12.15,-0.361,1.023,-0.072
12.16,-0.093,0.97,-0.023
12.17,-0.123,1.046,0.174
12.18,-0.21,0.902,0.047
12.19,-0.33,0.898,-0.159
12.2,-0.205,1.125,-0.085
12.21,-0.106,0.935,0.026
12.22,-0.112,1.023,0.141
12.23,-0.312,0.758,0.023
12.24,-0.285,1.118,-0.132
12.25,-0.098,1.029,-0.061
12.26,-0.165,0.964,0.075
12.27,-0.176,0.87,0.179
12.28,-0.335,0.922,-0.034
12.29,-0.247,1.192,-0.176
12.3,-0.198,0.834,-0.043
12.31,-0.177,1.052,0.187
12.32,-0.147,0.81,0.106
12.33,-0.381,1.042,-0.108
12.34,-0.244,0.945,-0.117
12.35,-0.229,1.089,0.048
12.36,-0.077,0.993,0.125
12.37,-0.174,0.719,0.041
12.38,-0.359,1.167,-0.15
12.39,-0.195,0.92,-0.054
12.4,-0.125,1.161,0.024
12.41,-0.059,0.738,0.142
12.42,-0.318,0.957,0.026
12.43,-0.295,1.059,-0.148
12.44,-0.208,0.913,-0.088
12.45,-0.077,1.076,0.106
12.46,-0.102,0.725,0.139
12.47,-0.343,1.167,-0.102
12.48,-0.36,0.799,-0.075
12.49,-0.162,1.081,-0.026
12.5,-0.115,0.96,0.165
12.51,-0.158,0.838,0.032
12.52,-0.394,1.064,-0.046
12.53,-0.206,0.831,-0.124
12.54,-0.221,1.283,0.06
12.55,-0.037,0.756,0.126
12.56,-0.257,1.051,0.033
12.57,-0.305,0.843,-0.182
12.58,-0.192,1.081,-0.063
12.59,-0.148,1.101,0.038
12.6,-0.044,0.689,0.135
12.61,-0.267,1.101,0.004
12.62,-0.318,0.888,-0.113
12.63,-0.166,1.129,-0.121
12.64,-0.126,0.805,0.13
12.65,-0.083,0.96,0.11
12.66,-0.319,0.991,-0.077
12.67,-0.292,0.93,-0.157
12.68,-0.224,1.052,-0.022
12.69,-0.221,0.819,0.284
12.7,-0.225,1.144,0.103
12.71,-0.314,0.833,-0.168
12.72,-0.236,1.07,-0.13
12.73,-0.278,0.968,0.102
12.74,-0.052,0.965,0.152
12.75,-0.233,0.956,0.052
12.76,-0.362,0.821,-0.116
12.77,-0.159,1.162,-0.076
12.78,-0.061,0.87,0.026
12.79,-0.146,1.011,0.138
12.8,-0.241,0.855,-0.022
12.81,-0.274,1.133,-0.161
12.82,-0.129,1.017,-0.104
12.83,-0.197,0.855,0.148
12.84,-0.184,0.962,0.142
12.85,-0.344,0.89,-0.063
12.86,-0.305,1.169,-0.13
12.87,-0.163,0.825,-0.029
12.88,-0.132,1.077,0.171
12.89,-0.128,0.87,0.086
12.9,-0.369,0.972,-0.156
12.91,-0.232,0.986,-0.117
12.92,-0.183,1.002,0.089
12.93,-0.074,1.046,0.134
12.94,-0.21,0.75,0.004
12.95,-0.378,1.165,-0.146
12.96,-0.133,0.956,-0.071
12.97,-0.121,1.067,0.051
12.98,-0.088,0.787,0.119
12.99,-0.319,1.094,-0.049
13.0,-0.304,1.006,-0.138
13.01,-0.231,0.928,-0.017
13.02,-0.101,1.082,0.132
13.03,-0.154,0.779,0.119
13.04,-0.371,1.12,-0.115
13.05,-0.249,0.767,-0.127
13.06,-0.243,1.216,0.019
13.07,-0.053,0.871,0.149
13.08,-0.173,0.905,0.046
13.09,-0.293,0.999,-0.165
13.1,-0.275,0.923,-0.024
13.11,-0.078,1.191,0.027
13.12,-0.086,0.682,0.14
13.13,-0.334,1.088,-0.027
13.14,-0.253,0.889,-0.128
13.15,-0.177,1.074,-0.062
13.16,-0.179,0.903,0.095
13.17,-0.11,0.819,0.128
13.18,-0.365,1.108,-0.06
13.19,-0.269,0.8,-0.135
13.2,-0.278,1.136,0.0
13.21,-0.046,0.75,0.124
13.22,-0.184,1.081,0.1
13.23,-0.313,0.909,-0.152
13.24,-0.251,0.89,-0.117
13.25,-0.192,1.113,0.063
13.26,-0.044,0.869,0.152
13.27,-0.195,1.055,0.031
13.28,-0.318,0.781,-0.124
13.29,-0.229,1.209,-0.067
13.3,-0.068,0.924,0.048
13.31,-0.116,0.921,0.123
13.32,-0.299,0.977,-0.031
13.33,-0.302,0.959,-0.131
13.34,-0.17,1.108,-0.078
13.35,-0.12,0.777,0.116
13.36,-0.243,1.025,0.113
13.37,-0.318,0.871,-0.044
13.38,-0.244,1.159,-0.122
13.39,-0.178,0.933,-0.042
13.4,-0.086,0.897,0.124
13.41,-0.229,0.994,0.117
13.42,-0.297,0.909,-0.147
13.43,-0.287,1.158,-0.105
13.44,-0.145,0.865,0.033
13.45,-0.111,1.12,0.213
13.46,-0.185,0.795,-0.015
13.47,-0.421,1.029,-0.133
13.48,-0.15,1.018,-0.061
13.49,-0.048,0.949,0.02
13.5,-0.117,0.927,0.135
13.51,-0.311,0.816,-0.027
13.52,-0.292,1.196,-0.152
13.53,-0.122,0.888,-0.07
13.54,-0.156,1.01,0.126
13.55,-0.151,0.792,0.136
13.56,-0.326,1.031,-0.075
13.57,-0.207,1.062,-0.146
13.58,-0.249,0.873,0.018
13.59,-0.136,1.08,0.183
13.6,-0.132,0.798,0.06
13.61,-0.404,1.13,-0.164
13.62,-0.217,0.826,-0.092
13.63,-0.227,1.2,0.092
13.64,-0.037,0.894,0.119
13.65,-0.292,0.834,-0.016
13.66,-0.327,1.085,-0.163
13.67,-0.117,0.929,-0.052
13.68,-0.085,1.169,0.021
13.69,-0.141,0.685,0.142
13.7,-0.352,1.098,-0.058
13.71,-0.173,0.986,-0.129
13.72,-0.194,1.058,-0.067
13.73,-0.172,0.89,0.131
13.74,-0.136,0.789,0.146
13.75,-0.385,1.192,-0.104
13.76,-0.244,0.781,-0.114
13.77,-0.173,1.249,0.045
13.78,-0.001,0.841,0.121
13.79,-0.227,0.935,0.022
13.8,-0.31,0.955,-0.127
13.81,-0.197,0.983,-0.063
13.82,-0.062,0.973,0.059
13.83,-0.081,0.804,0.123
13.84,-0.384,1.077,-0.023
13.85,-0.278,0.86,-0.105
13.86,-0.157,1.192,-0.057
13.87,-0.158,0.747,0.102
13.88,-0.18,1.005,0.146
13.89,-0.247,1.015,-0.093
13.9,-0.293,0.971,-0.116
13.91,-0.246,1.0,-0.016
13.92,-0.032,0.843,0.181
13.93,-0.201,1.102,0.043
13.94,-0.341,0.775,-0.14
13.95,-0.285,1.148,-0.034
13.96,0.009,0.979,0.041
13.97,-0.102,0.942,0.141
13.98,-0.279,0.909,0.003
13.99,-0.324,0.954,-0.119
14.0,-0.128,1.12,-0.073
14.01,-0.077,0.812,0.086
14.02,-0.196,1.044,0.134
14.03,-0.305,0.855,-0.066
14.04,-0.277,1.149,-0.149
14.05,-0.203,0.913,-0.053
14.06,-0.124,0.941,0.15
14.07,-0.174,1.006,0.119
14.08,-0.284,0.888,-0.139
14.09,-0.285,1.087,-0.133
14.1,-0.189,0.898,0.056
14.11,-0.02,1.112,0.159
14.12,-0.202,0.764,0.019
14.13,-0.371,1.032,-0.123
14.14,-0.228,1.068,-0.057
14.15,-0.069,0.977,0.037
14.16,-0.114,0.93,0.141
14.17,-0.287,0.808,-0.008
14.18,-0.356,1.238,-0.106
14.19,-0.138,0.861,-0.093
14.2,-0.139,1.038,0.077
14.21,-0.195,0.794,0.152
14.22,-0.289,1.012,-0.111
14.23,-0.281,1.042,-0.134
14.24,-0.224,0.866,-0.004
14.25,-0.123,1.079,0.169
14.26,-0.173,0.804,0.102
14.27,-0.354,1.131,-0.147
14.28,-0.267,0.839,-0.119
14.29,-0.128,1.183,0.06
14.3,-0.028,0.897,0.123
14.31,-0.25,0.841,0.025
14.32,-0.359,1.07,-0.144
14.33,-0.175,0.914,-0.067
14.34,-0.116,1.226,0.068
14.35,-0.044,0.657,0.119
14.36,-0.364,1.066,-0.029
14.37,-0.273,0.965,-0.124
14.38,-0.15,1.015,-0.101
14.39,-0.13,0.943,0.141
14.4,-0.151,0.754,0.107
14.41,-0.38,1.224,-0.067
14.42,-0.26,0.788,-0.175
14.43,-0.268,1.138,0.006
14.44,-0.216,0.815,0.212
14.45,-0.228,1.041,0.079
14.46,-0.308,0.929,-0.171
14.47,-0.2,0.895,-0.078
14.48,-0.094,1.182,0.047
14.49,-0.027,0.739,0.166
14.5,-0.311,1.073,0.025
14.51,-0.335,0.789,-0.131
14.52,-0.228,1.202,-0.048
14.53,-0.057,0.91,0.059
14.54,-0.068,0.831,0.091
14.55,-0.336,1.024,-0.047
14.56,-0.213,0.915,-0.166
14.57,-0.189,1.15,-0.05
14.58,-0.112,0.725,0.138
14.59,-0.137,1.078,0.112
14.6,-0.289,0.88,-0.105
14.61,-0.274,1.039,-0.138
14.62,-0.166,0.979,-0.002
14.63,-0.092,0.936,0.154
14.64,-0.175,0.915,0.041
14.65,-0.385,0.894,-0.108
14.66,-0.192,1.142,-0.069
14.67,-0.043,0.899,0.033
14.68,-0.145,1.014,0.129
14.69,-0.208,0.773,-0.038
14.7,-0.343,1.219,-0.136
14.71,-0.123,0.958,-0.075
14.72,-0.255,0.976,0.191
14.73,-0.104,0.885,0.1
14.74,-0.399,0.906,-0.044
14.75,-0.203,1.193,-0.142
14.76,-0.17,0.857,-0.018
14.77,-0.15,1.038,0.154
14.78,-0.144,0.823,0.106
14.79,-0.375,1.075,-0.154
14.8,-0.208,0.914,-0.151
14.81,-0.149,1.041,0.061
14.82,-0.009,1.047,0.131
14.83,-0.281,0.775,0.035
14.84,-0.308,1.126,-0.136
14.85,-0.133,0.927,-0.062
14.86,-0.136,1.156,0.049
14.87,-0.1,0.75,0.154
14.88,-0.366,0.97,-0.068
14.89,-0.223,1.056,-0.138
14.9,-0.233,0.886,-0.039
14.91,-0.176,1.03,0.187
14.92,-0.103,0.751,0.16
14.93,-0.389,1.166,-0.126
14.94,-0.248,0.788,-0.133
14.95,-0.203,1.203,0.027
14.96,-0.015,0.911,0.126
14.97,-0.222,0.802,0.032
14.98,-0.288,1.105,-0.119
14.99,-0.21,0.946,-0.05
15.0,-0.148,1.199,0.017
15.01,-0.084,0.645,0.157
15.02,-0.302,1.056,-0.006
15.03,-0.28,0.934,-0.129
15.04,-0.151,1.06,-0.093
15.05,-0.13,0.962,0.075
15.06,-0.107,0.764,0.143
15.07,-0.295,1.163,-0.078
15.08,-0.32,0.82,-0.121
15.09,-0.209,1.122,-0.021
15.1,-0.074,0.865,0.146
15.11,-0.18,1.009,0.096
15.12,-0.365,0.941,-0.113
15.13,-0.236,0.915,-0.09
15.14,-0.173,1.206,0.027
15.15,0.024,0.767,0.125
15.16,-0.257,1.076,0.052
15.17,-0.29,0.769,-0.17
15.18,-0.239,1.18,-0.018
15.19,-0.05,0.961,0.004
15.2,-0.156,0.881,0.156
15.21,-0.213,0.935,-0.022
15.22,-0.304,0.951,-0.1
15.23,-0.191,1.158,-0.109
15.24,-0.249,0.753,0.112
15.25,-0.125,1.045,0.114
15.26,-0.289,0.918,-0.054
15.27,-0.338,1.065,-0.134
15.28,-0.316,0.914,0.016
15.29,-0.092,0.976,0.181
15.3,-0.202,1.046,0.087
15.31,-0.285,0.836,-0.143
15.32,-0.227,1.136,-0.113
15.33,-0.191,0.9,0.056
15.34,-0.021,1.074,0.154
15.35,-0.196,0.843,0.011
15.36,-0.384,0.979,-0.114
15.37,-0.205,1.086,-0.058
15.38,-0.063,0.943,0.046
15.39,-0.152,0.967,0.152
15.4,-0.246,0.819,-0.043
15.41,-0.374,1.254,-0.115
15.42,-0.133,0.854,-0.087
15.43,-0.132,1.002,0.088
15.44,-0.249,0.836,0.159
15.45,-0.294,0.98,-0.082
15.46,-0.243,0.929,-0.122
15.47,-0.179,1.0,-0.027
15.48,-0.091,1.048,0.185
15.49,-0.103,0.77,0.01
15.5,-0.412,1.092,-0.134
15.51,-0.235,0.839,-0.057
15.52,-0.1,1.284,0.046
15.53,-0.089,0.741,0.139
15.54,-0.293,0.928,0.004
15.55,-0.313,1.036,-0.123
15.56,-0.137,0.985,-0.072
15.57,-0.14,1.099,0.087
15.58,-0.086,0.694,0.132
15.59,-0.381,1.183,-0.043
15.6,-0.26,0.871,-0.168
15.61,-0.208,1.05,-0.029
15.62,-0.11,0.879,0.138
15.63,-0.186,0.885,0.14
15.64,-0.314,1.099,-0.08
15.65,-0.254,0.797,-0.103
15.66,-0.275,1.192,0.002
15.67,-0.034,0.781,0.18
15.68,-0.167,1.053,0.029
15.69,-0.329,0.858,-0.113
15.7,-0.22,1.046,-0.12
15.71,-0.102,1.11,0.031
15.72,-0.021,0.773,0.135
15.73,-0.281,1.047,-0.007
15.74,-0.351,0.853,-0.078
15.75,-0.213,1.23,-0.095
15.76,-0.169,0.805,0.079
15.77,-0.122,0.942,0.133
15.78,-0.372,0.972,-0.006
15.79,-0.266,0.985,-0.185
15.8,-0.183,1.032,-0.038
15.81,-0.082,0.802,0.091
15.82,-0.235,1.107,0.179
15.83,-0.31,0.842,-0.13
15.84,-0.359,1.065,-0.084
15.85,-0.18,0.904,-0.03
15.86,-0.142,1.067,0.161
15.87,-0.21,0.908,0.054
15.88,-0.318,0.833,-0.134
15.89,-0.185,1.131,-0.09
15.9,-0.112,0.954,0.072
15.91,-0.063,1.054,0.1
15.92,-0.196,0.79,0.029
15.93,-0.375,1.096,-0.132
15.94,-0.263,1.012,-0.055
15.95,-0.106,0.979,0.046
15.96,-0.101,0.926,0.134
15.97,-0.355,0.88,-0.024
15.98,-0.32,1.191,-0.119
15.99,-0.126,0.838,-0.079
16.0,-0.101,1.041,0.115
16.01,-0.159,0.797,0.131
16.02,-0.382,1.043,-0.087
16.03,-0.309,0.923,-0.14
16.04,-0.122,0.945,0.006
16.05,-0.171,1.134,0.136
16.06,-0.151,0.732,0.06
16.07,-0.377,1.129,-0.079
16.08,-0.238,0.802,-0.106
16.09,-0.185,1.166,0.07
16.1,-0.057,0.862,0.153
16.11,-0.21,0.855,0.027
16.12,-0.33,1.027,-0.111
16.13,-0.219,0.925,-0.057
16.14,-0.102,1.213,0.033
16.15,-0.07,0.69,0.154
16.16,-0.308,1.058,-0.016
16.17,-0.339,0.893,-0.117
16.18,-0.161,1.073,-0.09
16.19,-0.136,0.96,0.096
16.2,-0.09,0.839,0.133
16.21,-0.38,1.123,-0.054
16.22,-0.249,0.837,-0.144
16.23,-0.316,1.138,-0.032
16.24,-0.094,0.747,0.145
16.25,-0.181,1.046,0.11
16.26,-0.34,0.915,-0.092
16.27,-0.319,0.917,-0.119
16.28,-0.124,0.998,0.018
16.29,-0.105,0.948,0.154
16.3,-0.205,0.986,0.065
16.31,-0.35,0.834,-0.109
16.32,-0.261,1.203,-0.074
16.33,-0.011,0.932,0.021
16.34,-0.133,1.05,0.149
16.35,-0.24,0.796,0.019
16.36,-0.335,1.055,-0.118
16.37,-0.171,1.069,-0.084
16.38,-0.088,0.883,0.07
16.39,-0.146,0.951,0.113
16.4,-0.294,0.833,-0.033
16.41,-0.294,1.238,-0.154
16.42,-0.141,0.81,-0.064
16.43,-0.119,1.014,0.095
16.44,-0.263,0.82,0.235
16.45,-0.35,1.021,-0.063
16.46,-0.284,1.052,-0.111
16.47,-0.167,0.868,-0.043
16.48,-0.109,1.071,0.159
16.49,-0.157,0.773,0.098
16.5,-0.361,1.098,-0.12
16.51,-0.21,0.844,-0.14
16.52,-0.181,1.172,0.057
16.53,0.018,0.898,0.088
16.54,-0.28,0.851,0.04
16.55,-0.339,1.097,-0.158
16.56,-0.175,0.935,-0.065
16.57,-0.216,1.225,0.116
16.58,-0.065,0.645,0.149
16.59,-0.307,1.05,-0.003
16.6,-0.231,0.987,-0.14
16.61,-0.208,1.028,-0.1
16.62,-0.368,0.952,0.21
16.63,-0.082,0.756,0.098
16.64,-0.402,1.164,-0.069
16.65,-0.255,0.791,-0.148
16.66,-0.19,1.143,-0.021
16.67,-0.245,0.852,0.29
16.68,-0.164,0.993,0.082
16.69,-0.328,0.976,-0.133
16.7,-0.205,0.882,-0.137
16.71,-0.158,1.167,0.025
16.72,0.007,0.813,0.112
16.73,-0.302,1.062,0.045
16.74,-0.283,0.775,-0.126
16.75,-0.208,1.212,-0.097
16.76,-0.101,0.978,0.005
16.77,-0.083,0.84,0.157
16.78,-0.237,1.002,0.006
16.79,-0.292,0.909,-0.135
16.8,-0.245,1.136,-0.063
16.81,-0.064,0.771,0.077
16.82,-0.164,1.088,0.143
16.83,-0.351,0.868,-0.024
16.84,-0.293,1.089,-0.153
16.85,-0.273,0.924,-0.033
16.86,-0.11,0.873,0.118
16.87,-0.178,1.062,0.13
16.88,-0.246,0.823,-0.136
16.89,-0.277,1.133,-0.128
16.9,-0.177,0.925,0.019
16.91,-0.096,1.097,0.136
16.92,-0.128,0.823,0.042
16.93,-0.382,1.016,-0.098
16.94,-0.23,1.07,-0.129
16.95,-0.137,0.99,0.033
16.96,-0.07,1.02,0.136
16.97,-0.213,0.772,-0.006
16.98,-0.409,1.183,-0.107
16.99,-0.128,0.911,-0.114
17.0,-0.159,1.112,0.076
17.01,-0.073,0.799,0.134
17.02,-0.308,0.957,-0.03
17.03,-0.313,1.139,-0.127
17.04,-0.222,0.841,-0.072
17.05,-0.143,1.07,0.102
17.06,-0.127,0.763,0.113
17.07,-0.33,1.142,-0.102
17.08,-0.27,0.802,-0.127
17.09,-0.192,1.011,-0.018
17.1,-0.109,1.025,0.167
17.11,-0.181,0.946,0.04
17.12,-0.33,0.956,-0.145
17.13,-0.2,0.887,-0.064
17.14,-0.153,1.233,0.032
17.15,-0.065,0.721,0.18
17.16,-0.216,1.083,0.005
17.17,-0.368,0.811,-0.128
17.18,-0.236,1.064,-0.093
17.19,-0.085,0.976,0.07
17.2,-0.078,0.854,0.129
17.21,-0.289,1.052,-0.048
17.22,-0.292,0.857,-0.104
17.23,-0.294,1.183,-0.046
17.24,-0.081,0.763,0.082
17.25,-0.19,1.068,0.136
17.26,-0.299,0.913,-0.076
17.27,-0.287,0.999,-0.128
17.28,-0.182,1.015,-0.019
17.29,-0.103,0.865,0.207
17.3,-0.292,1.089,0.139
17.31,-0.24,0.854,-0.103
17.32,-0.271,1.199,-0.093
17.33,-0.111,0.887,-0.015
17.34,-0.115,1.043,0.169
17.35,-0.151,0.882,0.035
17.36,-0.319,0.946,-0.146
17.37,-0.247,1.132,-0.074
17.38,-0.115,0.926,0.028
17.39,-0.116,1.001,0.151
17.4,-0.25,0.814,-0.011
17.41,-0.359,1.187,-0.171
17.42,-0.238,0.867,-0.081
17.43,-0.084,1.004,0.121
17.44,-0.096,0.905,0.122
17.45,-0.374,0.917,-0.043
17.46,-0.246,1.094,-0.167
17.47,-0.197,0.853,-0.028
17.48,-0.082,1.122,0.105
17.49,-0.15,0.792,0.093
17.5,-0.414,1.13,-0.083
17.51,-0.21,0.876,-0.135
17.52,-0.173,1.06,0.033
17.53,-0.333,0.879,-0.076
17.54,-0.315,1.111,-0.108
17.55,-0.098,0.861,0.022
17.56,-0.137,1.117,0.113
17.57,-0.253,0.804,0.073
17.58,-0.308,1.046,-0.11
17.59,-0.171,0.984,-0.107
17.6,-0.119,1.008,0.021
17.61,-0.442,1.021,0.37
17.62,-0.28,0.769,0.007
17.63,-0.322,1.123,-0.153
17.64,-0.128,0.918,-0.061
17.65,-0.05,1.163,0.048
17.66,-0.043,0.728,0.053
17.67,-0.311,0.982,-0.057
17.68,-0.3,1.098,-0.136
17.69,-0.116,0.923,-0.103
17.7,-0.276,1.036,0.116
17.71,-0.103,0.718,0.105
17.72,-0.306,1.22,-0.073
17.73,-0.217,0.851,-0.174
17.74,-0.235,1.055,-0.021
17.75,-0.064,0.925,0.204
17.76,-0.172,0.91,0.061
17.77,-0.353,1.026,-0.135
17.78,-0.273,0.818,-0.058
17.79,-0.191,1.283,0.072
17.8,-0.018,0.703,0.124
17.81,-0.292,1.041,0.045
17.82,-0.245,0.868,-0.156
17.83,-0.208,1.111,-0.071
17.84,-0.07,0.99,0.036
17.85,-0.111,0.732,0.161
17.86,-0.342,1.095,-0.013
17.87,-0.269,0.905,-0.138
17.88,-0.173,1.136,-0.045
17.89,-0.103,0.775,0.143
17.9,-0.174,1.073,0.105
17.91,-0.279,0.853,-0.093
17.92,-0.292,1.039,-0.131
17.93,-0.181,0.984,0.021
17.94,-0.077,0.945,0.189
17.95,-0.177,0.985,0.054
17.96,-0.344,0.791,-0.096
17.97,-0.24,1.208,-0.105
17.98,-0.084,0.95,0.046
17.99,-0.089,1.002,0.113
18.0,-0.211,0.817,0.012
18.01,-0.379,1.056,-0.115
18.02,-0.141,1.064,-0.083
18.03,-0.135,0.873,0.073
18.04,-0.128,0.965,0.145
18.05,-0.306,0.853,-0.018
18.06,-0.336,1.163,-0.156
18.07,-0.174,0.799,-0.064
18.08,-0.128,1.049,0.108
18.09,-0.155,0.883,0.12
18.1,-0.31,0.957,-0.102
18.11,-0.286,1.025,-0.105
18.12,-0.169,0.896,-0.0
18.13,-0.073,1.168,0.161
18.14,-0.187,0.732,0.075
18.15,-0.353,1.108,-0.134
18.16,-0.251,0.928,-0.117
18.17,-0.124,1.182,0.046
18.18,-0.022,0.856,0.098
18.19,-0.346,0.831,0.045
18.2,-0.349,1.142,-0.107
18.21,-0.124,0.95,-0.089
18.22,-0.196,1.167,0.06
18.23,-0.071,0.638,0.126
18.24,-0.313,1.071,-0.006
18.25,-0.334,0.975,-0.128
18.26,-0.193,0.956,-0.111
18.27,-0.123,0.967,0.131
18.28,-0.072,0.75,0.133
18.29,-0.334,1.207,-0.072
18.3,-0.328,0.828,-0.145
18.31,-0.29,1.061,-0.031
18.32,-0.042,0.791,0.166
18.33,-0.161,1.057,0.09
18.34,-0.325,0.942,-0.151
18.35,-0.307,0.817,-0.09
18.36,-0.138,1.175,0.025
18.37,-0.03,0.857,0.155
18.38,-0.249,1.06,0.035
18.39,-0.297,0.782,-0.121
18.4,-0.221,1.194,-0.092
18.41,-0.09,0.994,0.022
18.42,-0.075,0.885,0.116
18.43,-0.242,1.01,-0.008
18.44,-0.371,0.891,-0.099
18.45,-0.163,1.159,-0.081
18.46,-0.145,0.796,0.1
18.47,-0.144,1.022,0.148
18.48,-0.301,0.9,-0.039
18.49,-0.256,1.076,-0.191
18.5,-0.233,0.923,-0.064
18.51,-0.1,0.87,0.125
18.52,-0.139,1.064,0.146
18.53,-0.275,0.853,-0.111
18.54,-0.271,1.1,-0.094
18.55,-0.218,0.893,0.015
18.56,-0.133,1.076,0.17
18.57,-0.167,0.859,0.041
18.58,-0.377,0.96,-0.102
18.59,-0.18,1.086,-0.107
18.6,-0.093,1.019,0.038
18.61,-0.077,0.991,0.116
18.62,-0.195,0.769,0.048
18.63,-0.323,1.184,-0.134
18.64,-0.191,0.93,-0.047
18.65,-0.141,1.072,0.072
18.66,-0.105,0.819,0.155
18.67,-0.346,0.952,-0.028
18.68,-0.278,1.152,-0.141
18.69,-0.199,0.933,-0.031
18.7,-0.091,0.998,0.127
18.71,-0.148,0.787,0.094
18.72,-0.338,1.178,-0.113
18.73,-0.268,0.789,-0.111
18.74,-0.158,1.129,-0.031
18.75,-0.095,0.875,0.19
18.76,-0.177,0.933,0.022
18.77,-0.307,0.999,-0.096
18.78,-0.193,0.914,-0.117
18.79,-0.067,1.195,0.0
18.8,0.018,0.66,0.052
18.81,-0.209,1.08,0.022
18.82,-0.332,0.898,-0.133
18.83,-0.164,1.126,-0.102
18.84,-0.116,0.905,0.094
18.85,-0.083,0.839,0.151
18.86,-0.303,1.073,-0.034
18.87,-0.278,0.875,-0.16
18.88,-0.291,1.147,-0.009
18.89,-0.078,0.772,0.096
18.9,-0.184,1.051,0.122
18.91,-0.297,0.906,-0.104
18.92,-0.267,0.997,-0.117
18.93,-0.162,1.01,-0.005
18.94,-0.041,0.878,0.171
18.95,-0.246,1.052,0.064
18.96,-0.288,0.809,-0.115
18.97,-0.253,1.195,-0.094
18.98,-0.146,0.929,0.051
18.99,-0.064,0.966,0.12
19.0,-0.259,0.937,0.024
19.01,-0.343,0.926,-0.131
19.02,-0.201,1.133,-0.053
19.03,-0.082,0.866,0.081
19.04,-0.171,1.0,0.134
19.05,-0.32,0.825,-0.029
19.06,-0.298,1.172,-0.166
19.07,-0.207,0.862,-0.032
19.08,-0.113,0.96,0.094
19.09,-0.211,0.976,0.159
19.1,-0.315,0.885,-0.118
19.11,-0.324,1.064,-0.122
19.12,-0.209,0.858,0.024
19.13,-0.09,1.151,0.157
19.14,-0.201,0.733,0.05
19.15,-0.316,1.072,-0.135
19.16,-0.208,0.998,-0.087
19.17,-0.068,1.068,0.006
19.18,-0.107,0.92,0.14
19.19,-0.2,0.764,0.01
19.2,-0.334,1.185,-0.136
19.21,-0.222,0.913,-0.016
19.22,-0.101,1.121,0.068
19.23,-0.156,0.695,0.16
19.24,-0.339,1.012,-0.016
19.25,-0.255,1.046,-0.168
19.26,-0.159,0.905,-0.062
19.27,-0.118,1.035,0.099
19.28,-0.212,0.771,0.132
19.29,-0.354,1.151,-0.094
19.3,-0.218,0.78,-0.15
19.31,-0.212,1.129,-0.016
19.32,-0.094,0.916,0.145
19.33,-0.187,0.911,0.101
19.34,-0.285,1.031,-0.115
19.35,-0.219,0.837,-0.091
19.36,-0.198,1.27,0.065
19.37,0.01,0.792,0.111
19.38,-0.241,1.05,0.021
19.39,-0.377,0.83,-0.126
19.4,-0.183,1.149,-0.062
19.41,-0.136,0.997,0.045
19.42,-0.062,0.792,0.138
19.43,-0.349,1.088,-0.015
19.44,-0.297,0.861,-0.1
19.45,-0.224,1.138,-0.086
19.46,-0.095,0.786,0.117
19.47,-0.167,1.052,0.136
19.48,-0.234,0.948,-0.086
19.49,-0.387,0.952,-0.103
19.5,-0.152,0.996,-0.04
19.51,-0.01,0.988,0.117
19.52,-0.177,0.955,0.061
19.53,-0.32,0.85,-0.125
19.54,-0.254,1.186,-0.081
19.55,-0.092,0.896,0.009
19.56,-0.056,1.011,0.164
19.57,-0.208,0.799,0.005
19.58,-0.331,1.055,-0.105
19.59,-0.22,1.082,-0.065
19.6,-0.107,0.919,0.056
19.61,-0.15,0.942,0.15
19.62,-0.339,0.868,-0.028
19.63,-0.269,1.22,-0.166
19.64,-0.239,0.816,-0.044
19.65,-0.088,1.008,0.104
19.66,-0.115,0.835,0.126
19.67,-0.374,1.005,-0.057
19.68,-0.27,0.996,-0.148
19.69,-0.139,0.928,-0.03
19.7,-0.21,1.101,0.129
19.71,-0.16,0.75,0.071
19.72,-0.353,1.162,-0.122
19.73,-0.226,0.845,-0.144
19.74,-0.113,1.17,0.044
19.75,0.088,0.816,0.05
19.76,-0.271,0.859,0.052
19.77,-0.374,1.068,-0.116
19.78,-0.131,0.953,-0.086
19.79,-0.059,1.224,0.005
19.8,-0.068,0.653,0.091
19.81,-0.31,1.042,-0.008
19.82,-0.245,0.965,-0.101
19.83,-0.215,1.045,-0.102
19.84,-0.147,0.89,0.118
19.85,-0.053,0.805,0.164
19.86,-0.314,1.161,-0.098
19.87,-0.361,0.72,-0.151
19.88,-0.191,1.109,-0.016
19.89,-0.111,0.85,0.129
19.9,-0.184,1.001,0.09
19.91,-0.285,0.925,-0.1
19.92,-0.232,0.896,-0.118
19.93,-0.152,1.123,0.014
19.94,-0.052,0.813,0.166
19.95,-0.239,1.101,0.05
19.96,-0.319,0.756,-0.19
19.97,-0.203,1.184,-0.063
19.98,-0.132,1.003,0.037
19.99,-0.052,0.849,0.151
20.0,-0.262,0.959,0.036
20.01,-0.248,0.955,-0.126
20.02,-0.275,1.155,-0.063
20.03,-0.128,0.776,0.123
20.04,-0.104,1.036,0.125
20.05,-0.32,0.856,-0.05
20.06,-0.295,1.109,-0.171
20.07,-0.235,0.91,-0.063
20.08,-0.296,0.928,0.218
20.09,-0.112,1.001,0.107
20.1,-0.34,0.854,-0.114
20.11,-0.306,1.11,-0.119
20.12,-0.131,0.899,0.019
20.13,-0.099,1.146,0.165
20.14,-0.169,0.821,0.036
20.15,-0.362,1.03,-0.124
20.16,-0.204,1.019,-0.124
20.17,-0.13,0.97,0.073
20.18,-0.137,1.003,0.204
20.19,-0.25,0.754,0.041
20.2,-0.305,1.17,-0.153
20.21,-0.163,0.949,-0.053
20.22,-0.146,1.086,0.044
20.23,-0.097,0.736,0.083
20.24,-0.306,0.969,-0.025
20.25,-0.285,1.091,-0.153
20.26,-0.185,0.848,-0.043
20.27,-0.195,1.08,0.168
20.28,-0.118,0.738,0.131
20.29,-0.372,1.152,-0.109
20.3,-0.245,0.835,-0.136
20.31,-0.176,1.112,0.001
20.32,-0.119,0.982,0.173
20.33,-0.157,0.846,0.02
20.34,-0.316,0.949,-0.12
20.35,-0.128,1.024,-0.056
20.36,-0.139,1.143,0.03
20.37,-0.083,0.66,0.174
20.38,-0.318,1.111,-0.012
20.39,-0.26,0.857,-0.132
20.4,-0.235,1.118,-0.06
20.41,-0.108,0.856,0.101
20.42,-0.143,0.903,0.137
20.43,-0.29,1.074,-0.078
20.44,-0.311,0.823,-0.137
20.45,-0.192,1.114,-0.039
20.46,-0.074,0.858,0.165
20.47,-0.117,1.115,0.052
20.48,-0.312,0.823,-0.135
20.49,-0.221,1.021,-0.102
20.5,-0.171,1.107,0.079
20.51,-0.078,0.834,0.135
20.52,-0.199,1.001,0.032
20.53,-0.336,0.838,-0.115
20.54,-0.207,1.237,-0.05
20.55,-0.08,0.829,0.024
20.56,-0.141,0.968,0.163
20.57,-0.264,0.92,-0.015
20.58,-0.31,1.076,-0.161
20.59,-0.25,0.981,-0.073
20.6,-0.072,0.835,0.109
20.61,-0.159,1.082,0.133
20.62,-0.309,0.849,-0.062
20.63,-0.338,1.146,-0.151
20.64,-0.246,0.852,0.022
20.65,-0.116,1.035,0.188
20.66,-0.157,0.918,0.064
20.67,-0.34,0.918,-0.129
20.68,-0.283,1.065,-0.11
20.69,-0.089,0.979,0.055
20.7,-0.094,1.066,0.125
20.71,-0.18,0.702,0.05
20.72,-0.373,1.125,-0.132
20.73,-0.241,0.994,-0.044
20.74,-0.069,1.099,0.011
20.75,-0.125,0.853,0.125
20.76,-0.322,0.849,0.002
20.77,-0.314,1.182,-0.12
20.78,-0.167,0.85,-0.097
20.79,-0.123,1.126,0.122
20.8,-0.146,0.755,0.142
20.81,-0.281,1.115,-0.056
20.82,-0.346,0.904,-0.118
20.83,-0.215,0.945,-0.046
20.84,-0.121,1.058,0.178
20.85,-0.155,0.766,0.053
20.86,-0.416,1.108,-0.067
20.87,-0.205,0.826,-0.122
20.88,-0.109,1.266,0.015
20.89,-0.094,0.751,0.145
20.9,-0.229,0.904,0.066
20.91,-0.366,1.002,-0.15
20.92,-0.179,0.975,-0.064
20.93,-0.125,1.156,0.032
20.94,-0.053,0.69,0.102
20.95,-0.41,1.098,0.02
20.96,-0.282,0.834,-0.118
20.97,-0.201,1.115,-0.061
20.98,-0.113,0.87,0.104
20.99,-0.15,0.869,0.142
21.0,-0.316,1.117,-0.044
21.01,-0.286,0.838,-0.176
21.02,-0.222,1.085,-0.036
21.03,-0.095,0.799,0.169
21.04,-0.153,1.109,0.071
21.05,-0.372,0.822,-0.128
21.06,-0.246,0.975,-0.12
21.07,-0.208,1.075,0.051
21.08,-0.033,0.85,0.139
21.09,-0.191,1.02,0.051
21.1,-0.293,0.819,-0.141
21.11,-0.28,1.226,-0.04
21.12,-0.043,0.861,0.006
21.13,-0.051,0.978,0.135
21.14,-0.27,0.89,0.002
21.15,-0.334,1.041,-0.111
21.16,-0.218,0.912,-0.061
21.17,-0.099,0.951,0.117
21.18,-0.169,0.969,0.141
21.19,-0.328,0.916,-0.076
21.2,-0.323,1.121,-0.112
21.21,-0.169,0.844,-0.028
21.22,-0.115,1.097,0.142
21.23,-0.16,0.809,0.09
21.24,-0.336,1.043,-0.115
21.25,-0.256,0.969,-0.116
21.26,-0.141,1.01,0.047
21.27,-0.113,1.028,0.119
21.28,-0.211,0.721,0.05
21.29,-0.33,1.157,-0.16
21.3,-0.259,0.939,-0.032
21.31,-0.122,1.122,0.028
21.32,-0.11,0.756,0.176
21.33,-0.272,0.941,-0.01
21.34,-0.343,1.065,-0.127
21.35,-0.174,0.89,-0.099
21.36,-0.136,1.085,0.126
21.37,-0.075,0.729,0.118
21.38,-0.383,1.183,-0.059
21.39,-0.364,0.817,-0.127
21.4,-0.189,1.072,-0.024
21.41,-0.064,0.986,0.152
21.42,-0.173,0.861,0.055
21.43,-0.38,1.068,-0.08
21.44,-0.154,0.827,-0.132
21.45,-0.261,1.282,0.035
21.46,-0.062,0.705,0.103
21.47,-0.225,1.046,0.069
21.48,-0.28,0.891,-0.133
21.49,-0.207,1.073,-0.051
21.5,-0.092,1.063,0.007
21.51,-0.089,0.756,0.131
21.52,-0.306,1.078,0.009
21.53,-0.233,0.895,-0.171
21.54,-0.259,1.151,-0.078
21.55,-0.029,0.784,0.032
21.56,-0.075,1.03,0.113
21.57,-0.382,0.994,-0.058
21.58,-0.304,0.908,-0.154
21.59,-0.209,1.067,-0.032
21.6,-0.129,0.756,0.138
21.61,-0.207,1.09,0.104
21.62,-0.343,0.844,-0.101
21.63,-0.235,1.1,-0.117
21.64,-0.127,0.918,0.001
21.65,-0.086,1.004,0.154
21.66,-0.237,0.942,0.086
21.67,-0.364,0.873,-0.121
21.68,-0.194,1.153,-0.063
21.69,-0.05,0.914,0.021
21.7,-0.15,1.031,0.17
21.71,-0.222,0.764,0.02
21.72,-0.314,1.138,-0.146
21.73,-0.098,1.002,-0.091
21.74,-0.165,0.932,0.091
21.75,-0.138,0.929,0.187
21.76,-0.373,0.869,-0.046
21.77,-0.282,1.187,-0.167
21.78,-0.144,0.835,-0.05
21.79,-0.12,1.078,0.171
21.8,-0.084,0.788,0.127
21.81,-0.356,1.046,-0.081
21.82,-0.261,0.928,-0.137
21.83,-0.157,0.981,0.0
21.84,-0.062,1.083,0.177
21.85,-0.206,0.733,0.024
21.86,-0.39,1.146,-0.139
21.87,-0.151,0.918,-0.077
21.88,-0.1,1.2,0.037
21.89,-0.027,0.718,0.114
21.9,-0.302,0.942,0.022
21.91,-0.337,1.083,-0.148
21.92,-0.103,0.901,-0.12
21.93,-0.03,1.096,0.004
21.94,-0.104,0.731,0.175
21.95,-0.311,1.142,-0.085
21.96,-0.321,0.818,-0.127
21.97,-0.173,1.053,-0.041
21.98,-0.08,0.867,0.161
21.99,-0.145,0.969,0.027
22.0,-0.324,0.954,-0.101
22.01,-0.216,0.936,-0.097
22.02,-0.107,1.194,-0.004
22.03,-0.082,0.679,0.17
22.04,-0.214,1.072,0.042
22.05,-0.351,0.876,-0.124
22.06,-0.198,1.164,-0.111
22.07,-0.123,0.9,0.083
22.08,-0.058,0.853,0.176
22.09,-0.325,1.037,-0.053
22.1,-0.285,0.911,-0.12
22.11,-0.227,1.139,-0.035
22.12,-0.077,0.775,0.114
22.13,-0.157,1.096,0.125
22.14,-0.375,0.871,-0.098
22.15,-0.287,0.998,-0.123
22.16,-0.235,0.999,0.02
22.17,0.004,0.918,0.137
22.18,-0.193,1.034,0.066
22.19,-0.328,0.818,-0.103
22.2,-0.233,1.198,-0.134
22.21,-0.156,0.917,0.046
22.22,-0.024,0.99,0.124
22.23,-0.289,0.858,0.007
22.24,-0.317,1.003,-0.098
22.25,-0.237,1.113,-0.05
22.26,-0.106,0.886,0.057
22.27,-0.175,0.961,0.172
22.28,-0.26,0.828,-0.058
22.29,-0.283,1.207,-0.172
22.3,-0.203,0.827,-0.044
22.31,-0.157,1.0,0.137
22.32,-0.109,0.891,0.145
22.33,-0.35,0.974,-0.08
22.34,-0.241,1.046,-0.17
22.35,-0.266,0.926,0.041
22.36,-0.04,1.049,0.127
22.37,-0.157,0.742,0.039
22.38,-0.427,1.106,-0.116
22.39,-0.243,0.95,-0.087
22.4,-0.084,1.122,0.013
22.41,-0.063,0.851,0.154
22.42,-0.247,0.812,0.009
22.43,-0.395,1.164,-0.092
22.44,-0.125,0.886,-0.126
22.45,-0.138,1.16,0.095
22.46,-0.106,0.695,0.135
22.47,-0.345,1.077,-0.031
22.48,-0.283,0.93,-0.159
22.49,-0.154,0.988,-0.032
22.5,-0.18,1.055,0.153
22.51,-0.13,0.8,0.114
22.52,-0.395,1.126,-0.103
22.53,-0.201,0.757,-0.126
22.54,-0.209,1.259,0.035
22.55,-0.035,0.844,0.114
22.56,-0.204,0.933,0.049
22.57,-0.336,0.942,-0.128
22.58,-0.192,0.952,-0.057
22.59,-0.096,1.186,0.035
22.6,-0.058,0.69,0.146
22.61,-0.269,1.079,0.025
22.62,-0.369,0.862,-0.135
22.63,-0.143,1.189,-0.07
22.64,-0.126,0.877,0.059
22.65,-0.128,0.81,0.13
22.66,-0.308,1.099,0.025
22.67,-0.234,0.902,-0.202
22.68,-0.285,1.069,-0.031
22.69,-0.094,0.744,0.092
22.7,-0.126,1.106,0.15
22.71,-0.315,0.868,-0.107
22.72,-0.276,1.024,-0.117
22.73,-0.168,1.019,-0.006
22.74,-0.01,0.902,0.149
22.75,-0.285,1.036,0.079
22.76,-0.318,0.821,-0.13
22.77,-0.24,1.231,-0.092
22.78,-0.249,0.912,0.07
22.79,-0.079,0.987,0.146
22.8,-0.291,0.8,0.001
22.81,-0.309,1.141,-0.155
22.82,-0.175,0.915,-0.085
22.83,-0.11,0.938,0.1
22.84,-0.144,0.912,0.129
22.85,-0.323,0.945,-0.02
22.86,-0.288,1.136,-0.176
22.87,-0.208,0.826,-0.055
22.88,-0.152,1.152,0.194
22.89,-0.08,0.785,0.044
22.9,-0.351,1.055,-0.101
22.91,-0.205,0.917,-0.158
22.92,-0.189,1.06,0.042
22.93,-0.052,1.009,0.121
22.94,-0.216,0.702,0.042
22.95,-0.334,1.152,-0.105
22.96,-0.117,0.965,-0.05
22.97,-0.223,1.185,0.015
22.98,-0.1,0.705,0.171
22.99,-0.215,0.945,-0.039
23.0,-0.351,1.087,-0.106
23.01,-0.147,0.932,-0.106
23.02,-0.128,1.062,0.11
23.03,-0.122,0.68,0.145
23.04,-0.344,1.204,-0.056
23.05,-0.317,0.832,-0.161
23.06,-0.233,0.99,-0.008
23.07,-0.072,0.93,0.146
23.08,-0.122,0.89,0.068
23.09,-0.367,1.058,-0.067
23.1,-0.256,0.805,-0.116
23.11,-0.175,1.242,0.011
23.12,0.005,0.779,0.141
23.13,-0.22,1.032,0.037
23.14,-0.334,0.857,-0.129
23.15,-0.249,1.076,-0.061
23.16,-0.088,1.061,0.004
23.17,-0.084,0.772,0.15
23.18,-0.276,1.058,0.014
23.19,-0.326,0.862,-0.107
23.2,-0.188,1.238,-0.064
23.21,-0.133,0.777,0.082
23.22,-0.12,0.98,0.142
23.23,-0.294,0.987,-0.014
23.24,-0.294,0.992,-0.192
23.25,-0.262,0.974,-0.04
23.26,-0.072,0.826,0.126
23.27,-0.165,1.142,0.136
23.28,-0.306,0.782,-0.134
23.29,-0.333,1.06,-0.063
23.3,-0.172,0.976,0.027
23.31,-0.054,1.049,0.145
23.32,-0.212,0.901,0.049
23.33,-0.344,0.884,-0.097
23.34,-0.21,1.173,-0.072
23.35,-0.071,0.94,0.055
23.36,-0.084,0.998,0.093
23.37,-0.238,0.783,0.022
23.38,-0.321,1.167,-0.135
23.39,-0.213,1.011,-0.1
23.4,-0.129,0.955,0.087
23.41,-0.118,0.865,0.154
23.42,-0.269,0.904,-0.042
23.43,-0.325,1.219,-0.158
23.44,-0.263,0.783,-0.035
23.45,-0.084,1.063,0.124
23.46,-0.15,0.834,0.113
23.47,-0.366,1.059,-0.117
23.48,-0.309,0.919,-0.106
23.49,-0.175,0.952,-0.008
23.5,-0.162,1.076,0.175
23.51,-0.158,0.778,0.049
23.52,-0.394,1.137,-0.135
23.53,-0.194,0.846,-0.118
23.54,-0.219,1.243,0.087
23.55,-0.011,0.756,0.1
23.56,-0.293,0.945,0.028
23.57,-0.352,1.045,-0.15
23.58,-0.132,0.959,-0.071
23.59,-0.184,1.109,0.089
23.6,-0.06,0.652,0.165
23.61,-0.365,1.134,-0.039
23.62,-0.274,0.838,-0.162
23.63,-0.257,1.12,-0.027
23.64,-0.119,0.825,0.155
23.65,-0.083,1.012,0.082
23.66,-0.381,0.939,-0.098
23.67,-0.229,0.865,-0.161
23.68,-0.265,1.188,0.09
23.69,0.021,0.775,0.115
23.7,-0.264,1.074,0.07
23.71,-0.297,0.798,-0.117
23.72,-0.233,1.207,-0.086
23.73,-0.178,0.966,0.04
23.74,-0.033,0.857,0.133
23.75,-0.275,0.954,0.03
23.76,-0.309,0.914,-0.125
23.77,-0.206,1.194,-0.076
23.78,-0.123,0.769,0.103
23.79,-0.148,1.018,0.117
23.8,-0.308,0.846,-0.022
23.81,-0.331,1.136,-0.142
23.82,-0.155,0.9,-0.06
23.83,-0.109,0.902,0.139
23.84,-0.189,0.97,0.121
23.85,-0.267,0.895,-0.105
23.86,-0.336,1.099,-0.078
23.87,-0.191,0.836,0.004
23.88,-0.041,1.15,0.156
23.89,-0.194,0.828,0.043
23.9,-0.399,0.987,-0.135
23.91,-0.226,1.041,-0.075
23.92,-0.075,1.034,-0.02
23.93,-0.145,0.928,0.156
23.94,-0.253,0.755,-0.013
23.95,-0.343,1.226,-0.123
23.96,-0.143,0.873,-0.082
23.97,-0.139,1.058,0.083
23.98,-0.147,0.743,0.153
23.99,-0.313,0.98,-0.012
24.0,-0.298,1.061,-0.181
24.01,-0.172,0.823,-0.049
24.02,-0.178,1.112,0.16
24.03,-0.108,0.763,0.088
24.04,-0.326,1.157,-0.101
24.05,-0.205,0.838,-0.105
24.06,-0.257,1.142,0.008
24.07,-0.082,0.934,0.155
24.08,-0.165,0.855,0.052
24.09,-0.342,1.072,-0.121
24.1,-0.226,0.856,-0.096
24.11,-0.158,1.258,0.055
24.12,-0.002,0.721,0.166
24.13,-0.246,1.009,0.016
24.14,-0.312,0.866,-0.132
24.15,-0.196,1.075,-0.05
24.16,-0.099,1.062,0.048
24.17,-0.092,0.715,0.136
24.18,-0.357,1.145,-0.014
24.19,-0.224,0.891,-0.14
24.2,-0.258,1.191,-0.05
24.21,-0.118,0.747,0.141
24.22,-0.156,0.995,0.171
24.23,-0.32,1.008,-0.102
24.24,-0.277,0.904,-0.122
24.25,-0.28,1.08,-0.017
24.26,-0.044,0.804,0.191
24.27,-0.182,1.094,0.023
24.28,-0.341,0.789,-0.122
24.29,-0.181,1.138,-0.109
24.3,-0.196,0.988,0.101
24.31,-0.04,0.922,0.106
24.32,-0.273,0.927,0.024
24.33,-0.329,0.91,-0.101
24.34,-0.118,1.187,-0.113
24.35,-0.422,0.821,0.221
24.36,-0.101,1.035,0.11
24.37,-0.298,0.891,-0.019
24.38,-0.262,1.11,-0.205
24.39,-0.228,0.925,-0.054
24.4,-0.17,0.887,0.122
24.41,-0.208,1.049,0.154
24.42,-0.305,0.858,-0.138
24.43,-0.355,1.083,-0.082
24.44,-0.162,0.798,-0.021
24.45,-0.229,1.147,0.279
24.46,-0.253,0.728,0.024
24.47,-0.374,1.095,-0.106
24.48,-0.138,0.978,-0.078
24.49,-0.097,1.094,-0.017
24.5,-0.056,0.771,0.087
24.51,-0.232,0.847,0.03
24.52,-0.298,1.216,-0.156
24.53,-0.211,0.85,-0.103
24.54,-0.083,1.092,0.097
24.55,-0.113,0.723,0.174
24.56,-0.262,1.111,-0.062
24.57,-0.371,0.937,-0.153
24.58,-0.184,0.953,-0.046
24.59,-0.129,1.053,0.154
24.6,-0.137,0.833,0.114
24.61,-0.404,1.121,-0.108
24.62,-0.221,0.714,-0.138
24.63,-0.205,1.209,0.024
24.64,-0.021,0.87,0.169
24.65,-0.227,0.948,0.026
24.66,-0.322,0.933,-0.114
24.67,-0.195,0.974,-0.032
24.68,-0.069,1.222,-0.016
24.69,-0.052,0.648,0.138
24.7,-0.274,1.124,0.006
24.71,-0.294,0.87,-0.102
24.72,-0.18,1.151,-0.109
24.73,-0.168,0.882,0.105
24.74,-0.08,0.845,0.111
24.75,-0.368,1.083,-0.015
24.76,-0.305,0.882,-0.133
24.77,-0.247,1.103,-0.049
24.78,-0.075,0.788,0.152
24.79,-0.161,1.133,0.11
24.8,-0.357,0.828,-0.11
24.81,-0.258,0.986,-0.107
24.82,-0.265,1.008,0.008
24.83,-0.013,0.886,0.148
24.84,-0.26,1.044,0.058
24.85,-0.301,0.773,-0.125
24.86,-0.239,1.221,-0.091
24.87,-0.101,0.967,0.042
24.88,-0.116,0.956,0.145
24.89,-0.238,0.836,-0.017
24.9,-0.316,1.045,-0.106
24.91,-0.161,1.086,-0.099
24.92,-0.166,0.82,0.088
24.93,-0.111,0.987,0.134
24.94,-0.363,0.854,-0.033
24.95,-0.29,1.187,-0.169
24.96,-0.163,0.823,-0.056
24.97,-0.135,1.025,0.131
24.98,-0.157,0.912,0.143
24.99,-0.319,0.94,-0.115
25.0,-0.31,1.03,-0.101
25.01,-0.158,0.909,-0.006
25.02,-0.136,1.164,0.176
25.03,-0.142,0.743,0.029
25.04,-0.369,1.121,-0.084
25.05,-0.162,0.955,-0.099
25.06,-0.163,1.168,0.043
25.07,-0.105,0.851,0.114
25.08,-0.206,0.838,0.027
25.09,-0.343,1.136,-0.131
25.1,-0.18,0.859,-0.054
25.11,-0.179,1.141,0.053
25.12,-0.056,0.667,0.16
25.13,-0.345,1.07,-0.067
25.14,-0.27,0.962,-0.141
25.15,-0.192,0.98,-0.082
25.16,-0.147,0.989,0.128
25.17,-0.14,0.773,0.167
25.18,-0.351,1.163,-0.087
25.19,-0.281,0.779,-0.152
25.2,-0.166,1.167,-0.021
25.21,-0.08,0.867,0.157
25.22,-0.203,0.985,0.067
25.23,-0.338,0.966,-0.141
25.24,-0.231,0.906,-0.094
25.25,-0.123,1.198,0.027
25.26,-0.074,0.72,0.141
25.27,-0.279,1.05,0.013
25.28,-0.255,0.874,-0.091
25.29,-0.177,1.183,-0.134
25.3,-0.194,0.764,0.136
25.31,-0.098,1.013,0.116
25.32,-0.374,0.95,-0.028
25.33,-0.22,0.958,-0.207
25.34,-0.183,1.027,-0.053
25.35,-0.151,0.816,0.133
25.36,-0.194,1.114,0.162
25.37,-0.262,0.809,-0.117
25.38,-0.29,1.078,-0.073
25.39,-0.122,0.928,0.002
25.4,-0.103,1.039,0.161
25.41,-0.214,0.887,0.035
25.42,-0.373,0.909,-0.105
25.43,-0.145,1.192,-0.094
25.44,-0.073,0.879,0.007
25.45,-0.205,1.03,0.215
25.46,-0.18,0.792,-0.032
25.47,-0.285,1.184,-0.129
25.48,-0.25,0.977,-0.061
25.49,-0.12,0.911,0.093
25.5,-0.126,0.939,0.169
25.51,-0.343,0.921,-0.083
25.52,-0.392,1.093,-0.129
25.53,-0.192,0.821,-0.008
25.54,-0.082,1.174,0.164
25.55,-0.116,0.775,0.047
25.56,-0.436,1.033,-0.076
25.57,-0.143,0.896,-0.144
25.58,-0.141,1.076,0.029
25.59,-0.026,0.971,0.047
25.6,-0.171,0.746,0.031
25.61,-0.373,1.144,-0.105
25.62,-0.207,0.891,-0.07
25.63,-0.065,1.199,0.057
25.64,-0.059,0.734,0.155
25.65,-0.328,0.979,0.038
25.66,-0.303,1.055,-0.163
25.67,-0.111,0.971,-0.09
25.68,-0.094,1.073,0.1
25.69,-0.145,0.677,0.131
25.7,-0.358,1.141,-0.04
25.71,-0.236,0.837,-0.185
25.72,-0.189,1.066,-0.012
25.73,-0.097,0.873,0.143
25.74,-0.228,0.897,0.148
25.75,-0.322,1.055,-0.13
25.76,-0.259,0.794,-0.105
25.77,-0.162,1.221,0.024
25.78,0.04,0.842,0.114
25.79,-0.201,1.027,0.017
25.8,-0.313,0.825,-0.148
25.81,-0.194,1.138,-0.061
25.82,-0.093,1.045,0.031
25.83,-0.115,0.71,0.121
25.84,-0.304,1.073,0.014
25.85,-0.213,0.901,-0.136
25.86,-0.19,1.161,-0.094
25.87,-0.066,1.003,0.011
25.88,-0.135,0.847,0.155
25.89,-0.263,0.978,0.035
25.9,-0.318,0.927,-0.113
25.91,-0.145,1.154,-0.122
25.92,-0.183,0.744,0.116
25.93,-0.109,1.025,0.136
25.94,-0.272,0.916,-0.049
25.95,-0.365,1.113,-0.156
25.96,-0.184,0.82,-0.063
25.97,-0.071,1.032,0.178
25.98,-0.141,0.897,0.062
25.99,-0.382,0.965,-0.118
26.0,-0.226,1.093,-0.116
26.01,-0.157,0.955,0.061
26.02,-0.052,1.016,0.122
26.03,-0.198,0.735,-0.002
26.04,-0.353,1.154,-0.097
26.05,-0.138,1.01,-0.087
26.06,-0.156,1.042,0.062
26.07,-0.081,0.818,0.127
26.08,-0.326,0.909,-0.0
26.09,-0.251,1.207,-0.15
26.1,-0.229,0.795,-0.077
26.11,-0.144,1.044,0.088
26.12,-0.065,0.803,0.148
26.13,-0.405,1.118,-0.104
26.14,-0.295,0.837,-0.127
26.15,-0.191,1.011,0.032
26.16,-0.005,1.079,0.084
26.17,-0.162,0.779,0.051
26.18,-0.387,1.129,-0.113
26.19,-0.207,0.862,-0.084
26.2,-0.116,1.301,0.034
26.21,-0.058,0.738,0.147
26.22,-0.284,0.937,0.02
26.23,-0.318,1.001,-0.087
26.24,-0.114,0.996,-0.109
26.25,-0.179,1.089,0.076
26.26,-0.026,0.659,0.135
26.27,-0.373,1.174,-0.015
26.28,-0.259,0.823,-0.164
26.29,-0.267,1.073,-0.041
26.3,-0.133,0.861,0.119
26.31,-0.097,0.94,0.139
26.32,-0.36,1.059,-0.123
26.33,-0.275,0.771,-0.083
26.34,-0.15,1.162,-0.042
26.35,-0.091,0.819,0.206
26.36,-0.147,1.072,0.063
26.37,-0.333,0.818,-0.133
26.38,-0.251,1.038,-0.068
26.39,-0.101,1.125,0.031
26.4,-0.044,0.817,0.143
26.41,-0.281,1.013,0.017
26.42,-0.321,0.865,-0.078
26.43,-0.132,1.279,-0.088
26.44,-0.173,0.823,0.083
26.45,-0.089,0.929,0.133
26.46,-0.304,0.938,-0.02
26.47,-0.254,1.062,-0.184
26.48,-0.245,0.995,-0.08
26.49,-0.112,0.795,0.157
26.5,-0.182,1.081,0.139
26.51,-0.328,0.864,-0.084
26.52,-0.324,1.089,-0.132
26.53,-0.202,0.869,-0.009
26.54,-0.075,1.056,0.191
26.55,-0.123,0.934,0.034
26.56,-0.342,0.898,-0.131
26.57,-0.218,1.065,-0.087
26.58,-0.12,1.019,0.071
26.59,-0.064,1.023,0.115
26.6,-0.233,0.782,0.016
26.61,-0.344,1.138,-0.136
26.62,-0.159,0.991,-0.078
26.63,-0.095,0.984,0.043
26.64,-0.092,0.876,0.163
26.65,-0.36,0.907,-0.021
26.66,-0.332,1.142,-0.173
26.67,-0.125,0.811,-0.019
26.68,-0.143,1.119,0.087
26.69,-0.166,0.774,0.142
26.7,-0.33,1.093,-0.129
26.71,-0.218,0.907,-0.135
26.72,-0.21,0.965,0.021
26.73,-0.082,1.061,0.183
26.74,-0.158,0.763,0.044
26.75,-0.345,1.11,-0.135
26.76,-0.211,0.885,-0.046
26.77,-0.078,1.276,0.025
26.78,-0.096,0.664,0.184
26.79,-0.256,1.076,-0.011
26.8,-0.335,0.927,-0.123
26.81,-0.206,1.054,-0.099
26.82,-0.118,0.952,0.082
26.83,-0.094,0.849,0.124
26.84,-0.448,1.158,-0.028
26.85,-0.274,0.756,-0.124
26.86,-0.214,1.153,-0.059
26.87,-0.128,0.828,0.178
26.88,-0.174,1.02,0.089
26.89,-0.287,0.91,-0.106
26.9,-0.23,0.914,-0.105
26.91,-0.244,1.119,0.049
26.92,-0.05,0.824,0.17
26.93,-0.234,1.084,0.053
26.94,-0.262,0.781,-0.131
26.95,-0.282,1.205,-0.06
26.96,-0.062,0.946,0.026
26.97,-0.06,0.932,0.157
26.98,-0.272,0.92,-0.026
26.99,-0.323,0.926,-0.084
27.0,-0.207,1.158,-0.046
27.01,-0.094,0.792,0.072
27.02,-0.198,1.049,0.152
27.03,-0.326,0.842,-0.02
27.04,-0.269,1.118,-0.156
27.05,-0.155,0.893,-0.079
27.06,-0.124,0.951,0.124
27.07,-0.206,1.016,0.144
27.08,-0.277,0.868,-0.083
27.09,-0.277,1.113,-0.14
27.1,-0.194,0.896,0.015
27.11,-0.147,1.121,0.16
27.12,-0.146,0.795,0.042
27.13,-0.349,1.035,-0.126
27.14,-0.284,0.974,-0.091
27.15,-0.15,1.025,0.059
27.16,-0.01,1.023,0.136
27.17,-0.207,0.771,-0.005
27.18,-0.373,1.129,-0.137
27.19,-0.203,0.904,-0.057
27.2,-0.068,1.17,0.073
27.21,-0.079,0.736,0.1
27.22,-0.379,0.965,-0.032
27.23,-0.271,1.063,-0.106
27.24,-0.155,0.938,-0.03
27.25,-0.15,1.007,0.079
27.26,-0.183,0.683,0.126
27.27,-0.353,1.199,-0.081
27.28,-0.216,0.903,-0.134
27.29,-0.228,1.072,-0.03
27.3,-0.087,0.854,0.135
27.31,-0.215,0.931,0.122
27.32,-0.318,1.077,-0.124
27.33,-0.251,0.814,-0.13
27.34,-0.14,1.179,0.019
27.35,-0.305,0.819,0.239
27.36,-0.282,1.075,-0.008
27.37,-0.3,0.832,-0.162
27.38,-0.2,1.051,-0.064
27.39,-0.005,1.081,0.038
27.4,-0.042,0.759,-0.002
27.41,-0.301,1.067,-0.015
27.42,-0.231,0.869,-0.143
27.43,-0.085,1.224,-0.057
27.44,-0.19,0.815,0.096
27.45,-0.167,0.916,0.153
27.46,-0.278,0.985,-0.053
27.47,-0.225,1.02,-0.173
27.48,-0.221,1.02,-0.028
27.49,-0.125,0.771,0.157
27.5,-0.179,1.11,0.1
27.51,-0.299,0.855,-0.157
27.52,-0.271,1.096,-0.131
27.53,-0.159,0.923,0.061
27.54,-0.004,1.011,0.127
27.55,-0.232,0.881,0.012
27.56,-0.366,0.885,-0.13
27.57,-0.172,1.218,-0.063
27.58,-0.136,0.841,0.02
27.59,-0.131,0.962,0.149
27.6,-0.328,0.865,-0.003
27.61,-0.285,1.169,-0.204
27.62,-0.229,0.763,-0.062
27.63,-0.136,1.061,0.144
27.64,-0.094,0.892,0.103
27.65,-0.344,0.969,-0.125
27.66,-0.251,0.965,-0.11
27.67,-0.181,0.97,0.004
27.68,-0.149,1.145,0.187
27.69,-0.088,0.735,0.007
27.7,-0.43,1.147,-0.107
27.71,-0.221,0.896,-0.107
27.72,-0.07,1.167,0.037
27.73,-0.106,0.831,0.14
27.74,-0.262,0.814,0.025
27.75,-0.306,1.138,-0.121
27.76,-0.112,0.931,-0.054
27.77,-0.175,1.134,0.065
27.78,-0.099,0.652,0.144
27.79,-0.372,1.157,-0.013
27.8,-0.263,0.939,-0.202
27.81,-0.271,0.938,-0.06
27.82,-0.087,0.968,0.118
27.83,-0.118,0.877,0.16
27.84,-0.352,1.077,-0.132
27.85,-0.298,0.738,-0.052
27.86,-0.205,1.218,0.002
27.87,-0.04,0.847,0.128
27.88,-0.218,0.978,0.06
27.89,-0.348,0.886,-0.15
27.9,-0.301,0.957,-0.032
27.91,-0.126,1.186,-0.003
27.92,-0.02,0.719,0.13
27.93,-0.286,1.061,0.024
27.94,-0.34,0.833,-0.102
27.95,-0.2,1.207,-0.082
27.96,-0.089,0.881,0.059
27.97,-0.13,0.901,0.146
27.98,-0.309,1.055,-0.032
27.99,-0.266,0.949,-0.156
28.0,-0.264,1.061,-0.039
28.01,-0.084,0.748,0.132
28.02,-0.185,1.141,0.145
28.03,-0.292,0.876,-0.113
28.04,-0.35,1.025,-0.103
28.05,-0.24,0.937,-0.028
28.06,-0.06,0.973,0.168
28.07,-0.178,0.998,0.066
28.08,-0.332,0.823,-0.133
28.09,-0.278,1.153,-0.073
28.1,-0.192,0.918,0.059
28.11,-0.042,1.024,0.105
28.12,-0.198,0.814,0.002
28.13,-0.374,1.042,-0.101
28.14,-0.196,1.069,-0.08
28.15,-0.104,0.924,0.055
28.16,-0.125,0.958,0.137
28.17,-0.319,0.839,0.006
28.18,-0.284,1.236,-0.124
28.19,-0.186,0.875,-0.057
28.2,-0.106,1.035,0.094
28.21,-0.135,0.832,0.14
28.22,-0.383,1.031,-0.072
28.23,-0.28,1.03,-0.116
28.24,-0.163,0.848,-0.081
28.25,-0.176,1.077,0.176
28.26,-0.156,0.768,0.082
28.27,-0.379,1.14,-0.083
28.28,-0.284,0.792,-0.097
28.29,-0.156,1.134,0.032
28.3,-0.032,0.921,0.104
28.31,-0.241,0.831,0.03
28.32,-0.368,1.033,-0.138
28.33,-0.186,0.877,-0.042
28.34,-0.067,1.257,0.035
28.35,-0.06,0.675,0.161
28.36,-0.299,1.029,-0.016
28.37,-0.312,0.927,-0.093
28.38,-0.139,1.071,-0.091
28.39,-0.163,0.974,0.053
28.4,-0.115,0.743,0.147
28.41,-0.318,1.187,-0.041
28.42,-0.241,0.866,-0.171
28.43,-0.202,1.084,-0.037
28.44,-0.073,0.787,0.167
28.45,-0.163,1.107,0.082
28.46,-0.323,0.833,-0.107
28.47,-0.287,1.038,-0.097
28.48,-0.146,1.014,-0.016
28.49,-0.061,0.903,0.155
28.5,-0.218,1.018,0.052
28.51,-0.298,0.856,-0.138
28.52,-0.258,1.231,-0.083
28.53,-0.127,0.88,-0.016
28.54,-0.066,0.947,0.166
28.55,-0.293,0.865,-0.017
28.56,-0.354,1.027,-0.088
28.57,-0.205,1.066,-0.093
28.58,-0.063,0.853,0.086
28.59,-0.19,1.011,0.143
28.6,-0.29,0.836,-0.019
28.61,-0.308,1.192,-0.147
28.62,-0.153,0.846,-0.064
28.63,-0.097,0.998,0.114
28.64,-0.164,0.913,0.133
28.65,-0.293,0.976,-0.089
28.66,-0.295,1.056,-0.129
28.67,-0.226,0.85,0.005
28.68,-0.141,1.124,0.16
28.69,-0.182,0.778,0.074
28.7,-0.393,1.078,-0.138
28.71,-0.232,0.838,-0.135
28.72,-0.146,1.169,0.048
28.73,-0.082,0.911,0.109
28.74,-0.214,0.782,0.032
28.75,-0.385,1.115,-0.128
28.76,-0.175,0.919,-0.063
28.77,-0.152,1.205,0.04
28.78,-0.067,0.703,0.143
28.79,-0.309,1.052,-0.009
28.8,-0.309,0.958,-0.142
28.81,-0.21,0.941,-0.112
28.82,-0.083,0.987,0.118
28.83,-0.057,0.808,0.145
28.84,-0.35,1.161,-0.084
28.85,-0.381,0.724,-0.116
28.86,-0.162,1.142,-0.037
28.87,-0.058,0.892,0.164
28.88,-0.173,0.968,0.072
28.89,-0.36,0.96,-0.085
28.9,-0.203,0.887,-0.098
28.91,-0.135,1.195,0.012
28.92,0.005,0.741,0.126
28.93,-0.313,1.091,0.062
28.94,-0.279,0.788,-0.144
28.95,-0.245,1.171,-0.044
28.96,-0.115,0.994,0.033
28.97,-0.114,0.841,0.149
28.98,-0.22,0.974,0.044
28.99,-0.301,0.913,-0.12
29.0,-0.194,1.192,-0.1
29.01,-0.126,0.785,0.098
29.02,-0.113,1.041,0.104
29.03,-0.281,0.886,-0.026
29.04,-0.334,1.079,-0.148
29.05,-0.162,0.949,-0.06
29.06,-0.226,0.879,0.131
29.07,-0.191,1.024,0.126
29.08,-0.314,0.837,-0.084
29.09,-0.328,1.131,-0.101
29.1,-0.124,0.819,-0.04
29.11,-0.064,1.09,0.142
29.12,-0.135,0.828,0.054
29.13,-0.385,0.972,-0.105
29.14,-0.258,1.022,-0.091
29.15,-0.035,0.985,0.022
29.16,-0.13,1.044,0.172
29.17,-0.24,0.731,0.041
29.18,-0.284,1.121,-0.158
29.19,-0.21,0.97,-0.045
29.2,-0.084,1.068,0.028
29.21,-0.133,0.797,0.156
29.22,-0.31,0.929,-0.012
29.23,-0.325,1.11,-0.144
29.24,-0.204,0.87,-0.084
29.25,-0.154,1.115,0.115
29.26,-0.136,0.773,0.142
29.27,-0.309,1.162,-0.12
29.28,-0.31,0.76,-0.097
29.29,-0.155,1.156,-0.008
29.3,-0.049,0.899,0.163
29.31,-0.237,0.911,0.063
29.32,-0.283,1.021,-0.072
29.33,-0.283,0.908,-0.107
29.34,-0.167,1.152,0.031
29.35,-0.034,0.756,0.165
29.36,-0.247,1.068,0.035
29.37,-0.291,0.808,-0.167
29.38,-0.176,1.119,-0.094
29.39,-0.039,0.97,0.031
29.4,-0.082,0.828,0.171
29.41,-0.267,0.998,-0.012
29.42,-0.284,0.899,-0.097
29.43,-0.217,1.179,-0.064
29.44,-0.148,0.795,0.097
29.45,-0.163,1.058,0.097
29.46,-0.356,0.876,-0.013
29.47,-0.193,1.06,-0.183
29.48,-0.136,1.045,-0.051
29.49,-0.071,0.816,0.131
29.5,-0.165,1.07,0.129
29.51,-0.379,0.826,-0.08
29.52,-0.258,1.128,-0.134
29.53,-0.147,0.855,0.008
29.54,0.039,1.016,0.01
29.55,-0.25,0.889,0.045
29.56,-0.329,0.972,-0.06
29.57,-0.169,1.119,-0.112
29.58,-0.125,0.935,0.048
29.59,-0.154,1.005,0.141
29.6,-0.278,0.751,0.044
29.61,-0.292,1.181,-0.166
29.62,-0.125,1.005,-0.071
29.63,-0.187,1.08,0.043
29.64,-0.126,0.806,0.156
29.65,-0.302,0.899,-0.028
29.66,-0.282,1.157,-0.114
29.67,-0.141,0.85,-0.069
29.68,-0.111,1.079,0.125
29.69,-0.161,0.768,0.143
29.7,-0.348,1.101,-0.094
29.71,-0.315,0.846,-0.13
29.72,-0.193,1.034,0.021
29.73,-0.078,1.052,0.141
29.74,-0.171,0.773,0.055
29.75,-0.345,1.121,-0.081
29.76,-0.184,0.865,-0.086
29.77,-0.115,1.27,0.033
29.78,0.04,0.759,0.073
29.79,-0.292,0.978,0.073
29.8,-0.311,0.931,-0.157
29.81,-0.177,1.02,-0.057
29.82,-0.042,1.136,0.024
29.83,-0.09,0.675,0.168
29.84,-0.33,1.112,-0.022
29.85,-0.263,0.866,-0.15
29.86,-0.241,1.105,-0.071
29.87,-0.075,0.844,0.119
29.88,-0.125,0.944,0.117
29.89,-0.332,1.059,-0.07
29.9,-0.321,0.824,-0.112
29.91,-0.201,1.113,-0.064
29.92,-0.098,0.845,0.208
29.93,-0.15,1.074,0.041
29.94,-0.34,0.829,-0.097
29.95,-0.198,1.041,-0.133
29.96,-0.163,1.095,0.069
29.97,0.001,0.907,0.111
29.98,-0.277,1.009,0.06
29.99,-0.342,0.8,-0.121
30.0,-0.184,1.248,-0.072
30.01,-0.149,0.853,0.021
30.02,-0.103,0.953,0.182
30.03,-0.256,0.894,-0.011
30.04,-0.332,1.063,-0.163
30.05,-0.254,0.991,-0.069
30.06,-0.006,0.828,0.084
30.07,-0.199,1.053,0.149
30.08,-0.275,0.904,-0.084
30.09,-0.347,1.127,-0.126
30.1,-0.15,0.83,-0.022
30.11,-0.116,1.148,0.177
30.12,-0.147,0.815,0.058
30.13,-0.348,1.03,-0.123
30.14,-0.214,0.958,-0.133
30.15,-0.159,1.05,0.064
30.16,-0.094,0.977,0.151
30.17,-0.156,0.782,0.027
30.18,-0.396,1.12,-0.094
30.19,-0.243,0.909,-0.053
30.2,-0.12,1.212,0.067
30.21,-0.087,0.718,0.11
30.22,-0.29,0.952,0.009
30.23,-0.272,1.063,-0.14
30.24,-0.178,0.93,-0.085
30.25,-0.103,1.067,0.1
30.26,-0.059,0.682,0.097
30.27,-0.375,1.171,-0.019
30.28,-0.312,0.827,-0.15
30.29,-0.221,1.083,-0.035
30.3,-0.104,0.888,0.131
30.31,-0.106,0.903,0.087
30.32,-0.4,1.104,-0.059
30.33,-0.189,0.784,-0.178
30.34,-0.227,1.231,0.052
30.35,-0.003,0.787,0.153
30.36,-0.221,1.045,0.051
30.37,-0.324,0.853,-0.117
30.38,-0.212,1.101,-0.072
30.39,-0.108,1.079,0.016
30.4,-0.109,0.795,0.163
30.41,-0.249,1.03,0.009
30.42,-0.331,0.85,-0.087
30.43,-0.23,1.194,-0.101
30.44,-0.153,0.781,0.079
30.45,-0.063,0.984,0.16
30.46,-0.304,0.95,-0.014
30.47,-0.268,1.007,-0.144
30.48,-0.228,1.019,-0.049
30.49,-0.082,0.833,0.087
30.5,-0.206,1.108,0.144
30.51,-0.256,0.832,-0.113
30.52,-0.351,1.129,-0.091
30.53,-0.172,0.872,-0.052
30.54,-0.099,1.042,0.166
30.55,-0.209,0.925,0.07
30.56,-0.368,0.897,-0.091
30.57,-0.178,1.116,-0.101
30.58,-0.171,0.951,0.023
30.59,-0.109,1.029,0.122
30.6,-0.172,0.767,0.04
30.61,-0.377,1.082,-0.134
30.62,-0.213,0.986,-0.058
30.63,-0.199,1.04,0.08
30.64,-0.106,0.898,0.175
30.65,-0.288,0.828,-0.023
30.66,-0.28,1.172,-0.164
30.67,-0.111,0.9,-0.078
30.68,-0.099,1.121,0.059
30.69,-0.137,0.702,0.125
30.7,-0.312,1.097,-0.019
30.71,-0.3,0.993,-0.154
30.72,-0.171,0.915,-0.064
30.73,-0.139,1.044,0.122
30.74,-0.163,0.779,0.1
30.75,-0.33,1.154,-0.117
30.76,-0.249,0.78,-0.143
30.77,-0.239,1.155,0.041
30.78,0.008,0.869,0.138
30.79,-0.236,0.916,0.043
30.8,-0.29,0.951,-0.128
30.81,-0.289,0.948,-0.008
30.82,-0.002,1.222,-0.016
30.83,-0.103,0.697,0.156
30.84,-0.266,1.042,-0.031
30.85,-0.325,0.865,-0.081
30.86,-0.186,1.121,-0.116
30.87,-0.131,0.892,0.086
30.88,-0.116,0.84,0.151
30.89,-0.341,0.996,-0.024
30.9,-0.277,0.904,-0.161
30.91,-0.208,1.043,-0.051
30.92,-0.099,0.808,0.158
30.93,-0.181,1.111,0.098
30.94,-0.305,0.808,-0.096
30.95,-0.258,1.083,-0.117
30.96,-0.206,0.975,0.023
30.97,-0.09,1.009,0.169
30.98,-0.167,0.929,0.059
30.99,-0.347,0.87,-0.11
31.0,-0.284,1.179,-0.058
31.01,-0.1,0.906,0.023
31.02,-0.092,1.014,0.14
31.03,-0.23,0.774,0.022
31.04,-0.39,1.089,-0.117
31.05,-0.149,1.045,-0.081
31.06,-0.125,0.95,0.055
31.07,-0.12,0.907,0.143
31.08,-0.33,0.87,-0.029
31.09,-0.27,1.227,-0.144
31.1,-0.163,0.797,-0.087
31.11,-0.115,1.054,0.102
31.12,-0.167,0.822,0.158
31.13,-0.29,1.057,-0.089
31.14,-0.346,0.963,-0.136
31.15,-0.178,0.893,-0.031
31.16,-0.352,1.144,0.281
31.17,-0.119,0.728,0.041
31.18,-0.401,1.131,-0.099
31.19,-0.191,0.8,-0.117
31.2,-0.134,1.211,0.035
31.21,-0.251,0.865,0.37
31.22,-0.304,0.861,0.091
31.23,-0.324,1.024,-0.17
31.24,-0.122,0.938,-0.048
31.25,-0.111,1.227,0.024
31.26,-0.113,0.657,0.194
31.27,-0.286,1.059,0.001
31.28,-0.332,0.915,-0.093
31.29,-0.141,1.066,-0.132
31.3,-0.116,0.997,0.09
31.31,-0.103,0.824,0.115
31.32,-0.31,1.128,-0.033
31.33,-0.259,0.84,-0.171
31.34,-0.258,1.074,-0.047
31.35,-0.098,0.783,0.137
31.36,-0.17,1.118,0.134
31.37,-0.304,0.924,-0.109
31.38,-0.278,0.866,-0.122
31.39,-0.135,1.107,-0.019
31.4,-0.062,0.889,0.139
31.41,-0.211,1.102,0.029
31.42,-0.355,0.773,-0.109
31.43,-0.228,1.151,-0.077
31.44,-0.072,0.969,0.042
31.45,-0.054,0.952,0.104
31.46,-0.252,0.893,0.029
31.47,-0.314,0.907,-0.137
31.48,-0.205,1.232,-0.047
31.49,-0.103,0.822,0.02
31.5,-0.132,0.985,0.172
31.51,-0.244,0.817,-0.047
31.52,-0.293,1.205,-0.139
31.53,-0.171,0.94,-0.09
31.54,-0.192,0.907,0.198
31.55,-0.154,0.925,0.121
31.56,-0.335,0.93,-0.039
31.57,-0.306,1.129,-0.145
31.58,-0.174,0.823,-0.051
31.59,-0.09,1.149,0.167
31.6,-0.125,0.799,0.064
31.61,-0.369,1.042,-0.093
31.62,-0.219,0.963,-0.13
31.63,-0.133,1.038,0.022
31.64,-0.074,0.992,0.134
31.65,-0.241,0.746,0.031
31.66,-0.353,1.15,-0.128
31.67,-0.141,0.973,-0.048
31.68,-0.099,1.139,-0.019
31.69,-0.108,0.698,0.164
31.7,-0.232,0.959,0.004
31.71,-0.332,1.125,-0.137
31.72,-0.223,0.88,-0.106
31.73,-0.1,0.994,0.097
31.74,-0.114,0.843,0.125
31.75,-0.378,1.129,-0.068
31.76,-0.26,0.778,-0.143
31.77,-0.255,1.157,-0.048
31.78,-0.123,0.82,0.146
31.79,-0.137,1.018,0.089
31.8,-0.313,0.943,-0.108
31.81,-0.26,0.823,-0.135
31.82,-0.216,1.157,0.059
31.83,0.003,0.855,0.143
31.84,-0.26,1.062,0.025
31.85,-0.328,0.741,-0.119
31.86,-0.221,1.204,-0.102
31.87,-0.219,0.983,0.118
31.88,-0.085,0.863,0.127
31.89,-0.238,0.95,-0.003
31.9,-0.337,0.926,-0.08
31.91,-0.192,1.171,-0.105
31.92,-0.112,0.805,0.076
31.93,-0.138,1.032,0.134
31.94,-0.309,0.854,-0.049
31.95,-0.336,1.105,-0.131
31.96,-0.175,0.916,-0.062
31.97,-0.107,0.924,0.109
31.98,-0.16,1.03,0.14
31.99,-0.283,0.874,-0.099
32.0,-0.357,1.111,-0.125
32.01,-0.185,0.813,-0.053
32.02,-0.069,1.137,0.169
32.03,-0.191,0.822,0.056
32.04,-0.369,0.99,-0.071
32.05,-0.221,1.002,-0.117
32.06,-0.127,0.981,0.029
32.07,-0.118,1.057,0.128
32.08,-0.184,0.74,0.04
32.09,-0.337,1.141,-0.139
32.1,-0.248,0.965,-0.031
32.11,-0.114,1.127,0.012
32.12,-0.062,0.798,0.146
32.13,-0.295,0.939,0.023
32.14,-0.306,1.102,-0.16
32.15,-0.175,0.865,-0.084
32.16,-0.109,1.137,0.099
32.17,-0.132,0.736,0.119
32.18,-0.33,1.109,-0.056
32.19,-0.24,0.92,-0.124
32.2,-0.178,1.02,-0.063
32.21,-0.115,0.931,0.125
32.22,-0.191,0.83,0.104
32.23,-0.338,1.119,-0.091
32.24,-0.221,0.795,-0.132
32.25,-0.179,1.164,-0.023
32.26,-0.045,0.785,0.135
32.27,-0.163,1.027,0.056
32.28,-0.317,0.927,-0.121
32.29,-0.241,0.968,-0.094
32.3,-0.141,1.169,0.042
32.31,-0.074,0.741,0.14
32.32,-0.224,1.069,0.043
32.33,-0.357,0.797,-0.131
32.34,-0.195,1.187,-0.093
32.35,-0.104,0.884,0.057
32.36,-0.115,0.942,0.146
32.37,-0.306,1.009,0.014
32.38,-0.279,0.894,-0.191
32.39,-0.222,1.098,-0.014
32.4,-0.029,0.814,0.102
32.41,-0.2,1.136,0.132
32.42,-0.3,0.83,-0.071
32.43,-0.36,1.059,-0.101
32.44,-0.11,0.976,-0.053
32.45,-0.09,0.96,0.118
32.46,-0.227,1.009,0.094
32.47,-0.319,0.835,-0.083
32.48,-0.213,1.145,-0.087
32.49,-0.116,0.929,0.027
32.5,-0.102,1.064,0.132
32.51,-0.221,0.82,0.059
32.52,-0.322,1.022,-0.142
32.53,-0.165,1.088,-0.092
32.54,-0.113,1.001,0.03
32.55,-0.087,0.85,0.158
32.56,-0.336,0.887,0.012
32.57,-0.276,1.172,-0.137
32.58,-0.108,0.881,-0.097
32.59,-0.189,1.102,0.104
32.6,-0.157,0.709,0.135
32.61,-0.404,1.103,-0.048
32.62,-0.19,0.918,-0.167
32.63,-0.216,0.973,-0.054
32.64,-0.155,0.942,0.154
32.65,-0.152,0.787,0.12
32.66,-0.331,1.152,-0.108
32.67,-0.219,0.784,-0.163
32.68,-0.18,1.158,0.013
32.69,-0.246,0.835,0.288
32.7,-0.212,0.994,0.045
32.71,-0.356,0.932,-0.118
32.72,-0.141,0.934,-0.106
32.73,-0.12,1.209,0.066
32.74,-0.083,0.759,0.146
32.75,-0.303,1.075,-0.019
32.76,-0.302,0.833,-0.117
32.77,-0.257,1.175,-0.017
32.78,-0.127,0.888,0.048
32.79,-0.12,0.818,0.118
32.8,-0.344,1.066,-0.02
32.81,-0.24,0.896,-0.165
32.82,-0.245,1.094,-0.046
32.83,-0.089,0.761,0.177
32.84,-0.164,1.126,0.11
32.85,-0.339,0.837,-0.138
32.86,-0.245,0.947,-0.128
32.87,-0.186,1.059,0.027
32.88,-0.0,0.917,0.118
32.89,-0.239,1.016,0.056
32.9,-0.272,0.793,-0.134
32.91,-0.259,1.237,-0.033
32.92,-0.05,0.849,-0.009
32.93,-0.151,0.972,0.185
32.94,-0.26,0.891,-0.023
32.95,-0.327,1.074,-0.094
32.96,-0.193,1.019,-0.136
32.97,-0.114,0.812,0.125
32.98,-0.143,0.994,0.107
32.99,-0.323,0.895,-0.053
33.0,-0.373,1.152,-0.126
33.01,-0.168,0.832,-0.049
33.02,-0.16,1.07,0.173
33.03,-0.141,0.899,0.089
33.04,-0.379,0.92,-0.087
33.05,-0.252,1.046,-0.147
33.06,-0.146,0.962,0.062
33.07,-0.048,1.119,0.103
33.08,-0.22,0.699,0.047
33.09,-0.331,1.121,-0.107
33.1,-0.19,1.011,-0.09
33.11,-0.214,1.114,0.008
33.12,-0.109,0.858,0.122
33.13,-0.251,0.823,0.004
33.14,-0.323,1.188,-0.116
33.15,-0.064,0.897,-0.108
33.16,-0.203,1.107,0.113
33.17,-0.089,0.666,0.142
33.18,-0.351,1.108,-0.02
33.19,-0.299,0.986,-0.193
33.2,-0.245,0.903,-0.052
33.21,0.0,0.985,0.14
33.22,-0.113,0.831,0.11
33.23,-0.359,1.158,-0.116
33.24,-0.278,0.768,-0.087
33.25,-0.182,1.198,0.013
33.26,-0.041,0.916,0.131
33.27,-0.258,0.926,0.044
33.28,-0.333,0.939,-0.151
33.29,-0.222,0.909,-0.053
33.3,-0.058,1.216,0.006
33.31,-0.091,0.646,0.149
33.32,-0.247,1.072,0.014
33.33,-0.342,0.851,-0.12
33.34,-0.16,1.106,-0.126
33.35,-0.157,0.946,0.078
33.36,-0.102,0.86,0.14
33.37,-0.271,0.966,-0.081
33.38,-0.292,0.914,-0.111
33.39,-0.217,1.057,-0.028
33.4,-0.072,0.83,0.158
33.41,-0.153,1.141,0.076
33.42,-0.317,0.836,-0.125
33.43,-0.274,1.107,-0.114
33.44,-0.168,0.993,0.027
33.45,-0.059,0.956,0.137
33.46,-0.192,0.917,0.037
33.47,-0.351,0.887,-0.107
33.48,-0.169,1.225,-0.075
33.49,-0.111,0.882,0.025
33.5,-0.102,0.986,0.162
33.51,-0.181,0.812,-0.034
33.52,-0.351,1.125,-0.124
33.53,-0.173,0.931,-0.112
33.54,-0.111,0.966,0.122
33.55,-0.121,0.932,0.133
33.56,-0.328,0.837,-0.05
33.57,-0.35,1.174,-0.117
33.58,-0.203,0.826,-0.048
33.59,-0.098,1.048,0.107
33.6,-0.178,0.871,0.128
33.61,-0.354,1.029,-0.088
33.62,-0.262,0.954,-0.122
33.63,-0.164,0.998,0.012
33.64,-0.097,1.086,0.137
33.65,-0.243,0.732,0.062
33.66,-0.342,1.137,-0.105
33.67,-0.199,0.915,-0.093
33.68,-0.11,1.178,0.015
33.69,-0.114,0.775,0.149
33.7,-0.292,0.906,0.034
33.71,-0.296,1.07,-0.138
33.72,-0.112,0.929,-0.095
33.73,-0.163,1.131,0.099
33.74,-0.073,0.638,0.102
33.75,-0.364,1.123,0.0
33.76,-0.231,0.896,-0.166
33.77,-0.208,1.02,-0.044
33.78,-0.131,0.917,0.137
33.79,-0.167,0.832,0.121
33.8,-0.324,1.156,-0.095
33.81,-0.258,0.781,-0.128
33.82,-0.181,1.141,-0.019
33.83,-0.044,0.833,0.181
33.84,-0.189,1.064,0.055
33.85,-0.373,0.835,-0.131
33.86,-0.161,0.971,-0.104
33.87,-0.067,1.194,0.043
33.88,-0.322,0.734,0.257
33.89,-0.306,1.097,0.047
33.9,-0.277,0.835,-0.176
33.91,-0.152,1.19,-0.06
33.92,-0.073,0.856,0.054
33.93,-0.115,0.899,0.084
33.94,-0.294,1.008,-0.047
33.95,-0.228,0.997,-0.183
33.96,-0.174,1.074,-0.054
33.97,-0.419,0.782,0.281
33.98,-0.146,1.097,0.128
33.99,-0.291,0.84,-0.137
34.0,-0.285,1.047,-0.121
34.01,-0.153,0.94,-0.006
34.02,-0.237,0.993,0.257
34.03,-0.222,0.989,0.05
34.04,-0.352,0.895,-0.131
34.05,-0.228,1.216,-0.077
34.06,-0.078,0.868,0.006
34.07,-0.249,1.016,0.307
34.08,-0.245,0.786,0.004
34.09,-0.317,1.104,-0.13
34.1,-0.136,1.036,-0.105
34.11,-0.061,0.9,0.013
34.12,-0.073,0.939,0.137
34.13,-0.393,0.858,-0.044
34.14,-0.246,1.206,-0.189
34.15,-0.206,0.852,-0.045
34.16,-0.212,1.029,0.141
34.17,-0.136,0.854,0.136
34.18,-0.37,1.02,-0.132
34.19,-0.208,0.985,-0.126
34.2,-0.298,1.087,0.177
34.21,-0.079,0.721,0.12
34.22,-0.322,1.132,-0.036
34.23,-0.261,0.928,-0.171
34.24,-0.239,0.977,-0.057
34.25,-0.146,0.932,0.182
34.26,-0.117,0.835,0.071
34.27,-0.392,1.115,-0.124
34.28,-0.22,0.765,-0.123
34.29,-0.174,1.275,0.077
34.3,0.003,0.814,0.104
34.31,-0.23,0.937,0.035
34.32,-0.364,0.952,-0.125
34.33,-0.108,1.031,-0.091
34.34,-0.151,1.104,0.012
34.35,-0.116,0.696,0.158
34.36,-0.336,1.113,-0.04
34.37,-0.281,0.866,-0.103
34.38,-0.211,1.136,-0.07
34.39,-0.117,0.814,0.101
34.4,-0.101,0.962,0.146
34.41,-0.351,1.041,-0.113
34.42,-0.286,0.811,-0.115
34.43,-0.173,1.184,0.014
34.44,-0.1,0.809,0.134
34.45,-0.212,1.096,0.094
34.46,-0.274,0.849,-0.135
34.47,-0.271,1.084,-0.115
34.48,-0.18,0.983,0.073
34.49,-0.003,0.91,0.123
34.5,-0.278,0.981,0.021
34.51,-0.358,0.804,-0.117
34.52,-0.157,1.237,-0.085
34.53,-0.161,0.846,0.054
34.54,-0.097,0.948,0.116
34.55,-0.302,0.926,0.023
34.56,-0.279,1.092,-0.163
34.57,-0.191,0.943,-0.081
34.58,-0.128,0.893,0.146
34.59,-0.159,1.073,0.144
34.6,-0.294,0.826,-0.113
34.61,-0.325,1.094,-0.08
34.62,-0.194,0.91,0.0
34.63,-0.096,1.07,0.157
34.64,-0.177,0.866,0.045
34.65,-0.362,0.936,-0.113
34.66,-0.249,1.115,-0.075
34.67,-0.05,0.93,-0.012
34.68,-0.142,1.018,0.178
34.69,-0.176,0.767,0.005
34.7,-0.386,1.187,-0.124
34.71,-0.196,0.921,-0.089
34.72,-0.157,1.059,0.082
34.73,-0.105,0.871,0.137
34.74,-0.348,0.9,-0.028
34.75,-0.28,1.151,-0.159
34.76,-0.19,0.825,-0.057
34.77,-0.108,1.076,0.116
34.78,-0.113,0.757,0.096
34.79,-0.382,1.098,-0.104
34.8,-0.265,0.877,-0.109
34.81,-0.194,1.038,0.004
34.82,-0.121,1.05,0.155
34.83,-0.15,0.776,0.053
34.84,-0.374,1.119,-0.113
34.85,-0.207,0.851,-0.061
34.86,-0.072,1.29,0.028
34.87,-0.057,0.722,0.115
34.88,-0.262,0.957,0.024
34.89,-0.281,1.024,-0.149
34.9,-0.174,0.994,-0.095
34.91,-0.14,1.056,0.069
34.92,-0.194,0.818,0.166
34.93,-0.292,1.14,-0.076
34.94,-0.311,0.802,-0.137
34.95,-0.188,1.114,-0.059
34.96,-0.097,0.817,0.168
34.97,-0.114,1.032,0.073
34.98,-0.282,0.902,-0.128
34.99,-0.24,0.901,-0.104
35.0,-0.184,1.169,0.046
35.01,-0.087,0.837,0.147
35.02,-0.191,1.037,0.011
35.03,-0.36,0.795,-0.112
35.04,-0.169,1.218,-0.051
35.05,-0.137,0.893,-0.005
35.06,-0.067,0.866,0.16
35.07,-0.33,1.028,0.021
35.08,-0.263,0.947,-0.181
35.09,-0.315,1.089,-0.068
35.1,-0.054,0.775,0.095
35.11,-0.217,1.125,0.158
35.12,-0.283,0.86,-0.072
35.13,-0.344,1.059,-0.156
35.14,-0.173,0.917,-0.03
35.15,-0.091,1.018,0.131
35.16,-0.167,0.984,0.074
35.17,-0.251,0.841,-0.091
35.18,-0.241,1.146,-0.14
35.19,-0.198,0.919,0.067
35.2,-0.057,1.055,0.101
35.21,-0.191,0.778,0.038
35.22,-0.342,1.037,-0.139
35.23,-0.23,1.087,-0.044
35.24,-0.093,0.971,0.026
35.25,-0.152,0.948,0.168
35.26,-0.187,0.776,-0.018
35.27,-0.37,1.216,-0.148
35.28,-0.163,0.848,-0.088
35.29,-0.093,1.084,0.106
35.3,-0.086,0.808,0.118
35.31,-0.415,0.985,-0.063
35.32,-0.296,1.057,-0.1
35.33,-0.169,0.885,-0.019
35.34,-0.16,1.082,0.133
35.35,-0.153,0.741,0.095
35.36,-0.402,1.167,-0.096
35.37,-0.19,0.825,-0.131
35.38,-0.239,1.181,0.01
35.39,-0.099,0.846,0.151
35.4,-0.165,0.824,0.026
35.41,-0.338,1.1,-0.1
35.42,-0.198,0.894,-0.069
35.43,-0.145,1.229,0.051
35.44,-0.062,0.696,0.16
35.45,-0.262,1.054,0.012
35.46,-0.286,0.884,-0.165
35.47,-0.176,1.078,-0.062
35.48,-0.095,1.031,0.069
35.49,-0.145,0.748,0.163
35.5,-0.331,1.105,-0.063
35.51,-0.287,0.867,-0.112
35.52,-0.123,1.176,-0.079
35.53,-0.138,0.806,0.116
35.54,-0.226,0.997,0.148
35.55,-0.27,0.953,-0.106
35.56,-0.311,0.931,-0.098
35.57,-0.183,1.076,-0.039
35.58,-0.135,0.797,0.238
35.59,-0.17,1.128,0.039
35.6,-0.336,0.772,-0.127
35.61,-0.258,1.122,-0.081
35.62,-0.071,1.018,0.028
35.63,-0.057,0.905,0.138
35.64,-0.209,0.973,0.009
35.65,-0.377,0.898,-0.135
35.66,-0.209,1.161,-0.066
35.67,-0.085,0.808,0.065
35.68,-0.112,1.022,0.119
35.69,-0.32,0.875,-0.018
35.7,-0.254,1.103,-0.172
35.71,-0.235,0.917,-0.045
35.72,-0.1,0.889,0.125
35.73,-0.092,0.911,0.08
35.74,-0.358,0.94,-0.117
35.75,-0.229,1.059,-0.13
35.76,-0.18,0.951,0.034
35.77,-0.052,1.088,0.128
35.78,-0.198,0.733,0.042
35.79,-0.322,1.129,-0.127
35.8,-0.198,1.0,-0.083
35.81,-0.078,1.062,0.022
35.82,-0.134,0.891,0.169
35.83,-0.242,0.817,-0.029
35.84,-0.392,1.179,-0.102
35.85,-0.134,0.843,-0.105
35.86,-0.167,1.144,0.121
35.87,-0.092,0.712,0.114
35.88,-0.368,1.097,-0.007
35.89,-0.224,0.964,-0.183
35.9,-0.234,0.982,-0.023
35.91,-0.12,0.973,0.08
35.92,-0.172,0.812,0.156
35.93,-0.326,1.177,-0.125
35.94,-0.302,0.768,-0.101
35.95,-0.157,1.114,-0.024
35.96,-0.031,0.9,0.184
35.97,-0.178,0.954,0.018
35.98,-0.347,0.927,-0.093
35.99,-0.207,0.901,-0.094
36.0,-0.103,1.222,0.053
36.01,-0.047,0.683,0.125
36.02,-0.277,1.052,0.006
36.03,-0.347,0.834,-0.099
36.04,-0.128,1.145,-0.105
36.05,-0.202,0.921,0.092
36.06,-0.123,0.815,0.168
36.07,-0.288,1.101,-0.04
36.08,-0.289,0.877,-0.151
36.09,-0.25,1.084,-0.037
36.1,-0.071,0.789,0.137
36.11,-0.193,1.105,0.126
36.12,-0.274,0.877,-0.117
36.13,-0.3,0.962,-0.113
36.14,-0.215,1.055,0.013
36.15,-0.069,0.881,0.144
36.16,-0.256,1.028,0.066
36.17,-0.308,0.779,-0.112
36.18,-0.204,1.2,-0.085
36.19,-0.138,0.962,0.071
36.2,-0.08,0.941,0.16
36.21,-0.227,0.865,-0.001
36.22,-0.349,1.002,-0.099
36.23,-0.195,1.114,-0.113
36.24,-0.146,0.823,0.087
36.25,-0.097,1.054,0.138
36.26,-0.328,0.848,-0.055
36.27,-0.34,1.117,-0.104
36.28,-0.166,0.859,-0.076
36.29,-0.094,0.969,0.116
36.3,-0.151,0.925,0.143
36.31,-0.31,0.924,-0.096
36.32,-0.31,1.103,-0.129
36.33,-0.151,0.854,0.023
36.34,-0.088,1.123,0.154
36.35,-0.142,0.8,0.074
36.36,-0.366,1.093,-0.129
36.37,-0.212,0.925,-0.118
36.38,-0.196,1.07,0.037
36.39,-0.083,0.996,0.15
36.4,-0.185,0.781,-0.008
36.41,-0.385,1.11,-0.113
36.42,-0.177,0.899,-0.054
36.43,-0.082,1.177,0.065
36.44,-0.088,0.73,0.146
36.45,-0.333,0.996,-0.018
36.46,-0.297,1.026,-0.14
36.47,-0.155,0.96,-0.063
36.48,-0.096,1.023,0.105
36.49,-0.177,0.715,0.147
36.5,-0.35,1.173,-0.055
36.51,-0.204,0.866,-0.154
36.52,-0.168,1.086,-0.025
36.53,-0.131,0.869,0.139
36.54,-0.204,0.92,0.093
36.55,-0.347,1.06,-0.119
36.56,-0.25,0.852,-0.144
36.57,-0.146,1.102,0.029
36.58,0.105,0.733,0.049
36.59,-0.255,1.083,0.014
36.6,-0.294,0.794,-0.151
36.61,-0.138,1.215,-0.04
36.62,0.048,0.932,-0.095
36.63,-0.149,0.896,0.12
36.64,-0.314,0.981,-0.024
36.65,-0.259,0.995,-0.136
36.66,-0.173,1.085,-0.058
36.67,-0.115,0.769,0.117
36.68,-0.214,1.063,0.139
36.69,-0.288,0.859,-0.112
36.7,-0.261,1.096,-0.104
36.71,-0.204,0.997,-0.017
36.72,-0.114,0.911,0.166
36.73,-0.176,0.96,0.049
36.74,-0.306,0.846,-0.108
36.75,-0.231,1.223,-0.077
36.76,-0.045,0.948,0.038
36.77,-0.143,0.999,0.127
36.78,-0.246,0.823,0.014
36.79,-0.259,1.11,-0.14
36.8,-0.22,1.062,-0.104
36.81,-0.186,0.844,0.111
36.82,-0.114,0.966,0.153
36.83,-0.339,0.876,-0.041
36.84,-0.305,1.163,-0.173
36.85,-0.228,0.823,-0.052
36.86,-0.107,1.018,0.113
36.87,-0.125,0.892,0.146
36.88,-0.343,1.005,-0.133
36.89,-0.301,0.956,-0.115
36.9,-0.163,0.924,0.016
36.91,-0.132,1.184,0.192
36.92,-0.157,0.719,0.007
36.93,-0.345,1.102,-0.127
36.94,-0.196,0.915,-0.068
36.95,-0.073,1.21,0.028
36.96,-0.07,0.825,0.149
36.97,-0.263,0.827,0.013
36.98,-0.338,1.108,-0.115
36.99,-0.134,0.939,-0.069
37.0,-0.184,1.127,0.055
37.01,-0.09,0.628,0.146
37.02,-0.319,1.116,-0.021
37.03,-0.261,1.007,-0.156
37.04,-0.242,0.953,-0.065
37.05,-0.085,0.905,0.129
37.06,-0.156,0.827,0.14
37.07,-0.34,1.157,-0.132
37.08,-0.267,0.73,-0.108
37.09,-0.225,1.205,0.008
37.1,-0.033,0.888,0.17
37.11,-0.219,0.967,0.035
37.12,-0.3,0.909,-0.106
37.13,-0.242,0.935,-0.095
37.14,-0.096,1.191,0.063
37.15,-0.014,0.713,0.12
37.16,-0.303,1.064,0.011
37.17,-0.315,0.845,-0.089
37.18,-0.191,1.198,-0.107
37.19,-0.184,0.86,0.063
37.2,-0.102,0.875,0.14
37.21,-0.332,1.068,-0.007
37.22,-0.307,0.887,-0.146
37.23,-0.273,1.064,-0.048
37.24,-0.047,0.739,0.106
37.25,-0.169,1.106,0.153
37.26,-0.329,0.893,-0.104
37.27,-0.342,0.985,-0.132
37.28,-0.164,0.945,-0.028
37.29,-0.104,0.99,0.2
37.3,-0.185,1.046,0.034
37.31,-0.362,0.758,-0.115
37.32,-0.211,1.128,-0.1
37.33,-0.101,0.988,0.075
37.34,-0.075,1.063,0.08
37.35,-0.209,0.798,0.033
37.36,-0.343,0.965,-0.129
37.37,-0.187,1.135,-0.034
37.38,-0.08,0.934,0.019
37.39,-0.103,0.855,0.143
37.4,-0.358,0.882,-0.022
37.41,-0.289,1.212,-0.141
37.42,-0.163,0.785,-0.076
37.43,-0.135,1.023,0.1
37.44,-0.153,0.809,0.15
37.45,-0.307,1.086,-0.113
37.46,-0.277,0.904,-0.138
37.47,-0.188,0.934,0.002
37.48,-0.072,1.107,0.174
37.49,-0.132,0.76,0.029
37.5,-0.414,1.121,-0.082
37.51,-0.197,0.828,-0.11
37.52,-0.262,1.289,0.11
37.53,0.009,0.804,0.122
37.54,-0.3,0.921,0.036
37.55,-0.31,0.974,-0.125
37.56,-0.148,0.981,-0.066
37.57,-0.089,1.178,0.036
37.58,-0.094,0.617,0.119
37.59,-0.3,1.105,0.003
37.6,-0.315,0.931,-0.105
37.61,-0.175,1.093,-0.11
37.62,-0.088,0.852,0.066
37.63,-0.128,0.866,0.157
37.64,-0.352,1.18,-0.089
37.65,-0.252,0.813,-0.147
37.66,-0.233,1.145,-0.03
37.67,-0.104,0.79,0.169
37.68,-0.148,1.08,0.089
37.69,-0.318,0.874,-0.137
37.7,-0.302,0.914,-0.127
37.71,-0.152,1.106,0.054
37.72,-0.033,0.882,0.119
37.73,-0.266,1.029,0.036
37.74,-0.321,0.799,-0.131
37.75,-0.193,1.251,-0.048
37.76,0.01,0.893,0.009
37.77,-0.187,0.938,0.169
37.78,-0.246,0.91,-0.009
37.79,-0.343,1.012,-0.103
37.8,-0.146,1.127,-0.097
37.81,-0.106,0.796,0.047
37.82,-0.191,1.016,0.139
37.83,-0.269,0.895,-0.032
37.84,-0.281,1.173,-0.155
37.85,-0.219,0.813,-0.033
37.86,-0.102,0.947,0.124
37.87,-0.2,1.01,0.124
37.88,-0.377,0.891,-0.132
37.89,-0.306,1.045,-0.095
37.9,-0.173,0.896,0.025
37.91,-0.073,1.141,0.195
37.92,-0.148,0.78,0.042
37.93,-0.356,1.022,-0.134
37.94,-0.22,1.001,-0.094
37.95,-0.117,1.087,0.066
37.96,-0.021,0.965,0.107
37.97,-0.252,0.759,-0.03
37.98,-0.366,1.149,-0.105
37.99,-0.095,0.926,-0.095
38.0,-0.084,1.14,0.075
38.01,-0.097,0.698,0.111
38.02,-0.365,1.003,-0.034
38.03,-0.244,1.07,-0.12
38.04,-0.149,0.937,-0.072
38.05,-0.191,0.979,0.133
38.06,-0.144,0.742,0.135
38.07,-0.333,1.203,-0.104
38.08,-0.263,0.819,-0.112
38.09,-0.161,1.085,-0.029
38.1,-0.297,0.917,0.18
38.11,-0.144,0.897,0.043
38.12,-0.374,1.065,-0.103
38.13,-0.27,0.808,-0.121
38.14,-0.104,1.192,0.028
38.15,-0.027,0.747,0.157
38.16,-0.228,1.003,0.023
38.17,-0.352,0.866,-0.122
38.18,-0.207,1.09,-0.056
38.19,-0.087,1.041,0.039
38.2,-0.071,0.767,0.136
38.21,-0.304,1.034,-0.033
38.22,-0.247,0.933,-0.119
38.23,-0.193,1.13,-0.074
38.24,-0.141,0.751,0.134
38.25,-0.181,1.031,0.108
38.26,-0.324,0.916,-0.033
38.27,-0.283,1.096,-0.138
38.28,-0.228,0.939,-0.002
38.29,-0.048,0.923,0.159
38.3,-0.187,1.049,0.084
38.31,-0.331,0.813,-0.143
38.32,-0.236,1.125,-0.111
38.33,-0.111,0.917,0.055
38.34,-0.014,1.073,0.088
38.35,-0.234,0.767,0.038
38.36,-0.382,1.002,-0.117
38.37,-0.116,1.118,-0.064
38.38,-0.132,0.941,0.043
38.39,-0.119,0.921,0.15
38.4,-0.296,0.825,-0.027
38.41,-0.302,1.26,-0.116
38.42,-0.184,0.872,-0.084
38.43,-0.122,0.997,0.065
38.44,-0.151,0.836,0.173
38.45,-0.318,1.019,-0.081
38.46,-0.291,1.02,-0.125
38.47,-0.173,0.851,-0.027
38.48,-0.171,1.135,0.16
38.49,-0.097,0.787,0.086
38.5,-0.369,1.144,-0.14
38.51,-0.252,0.777,-0.143
38.52,-0.222,1.154,0.076
38.53,-0.015,1.035,0.158
38.54,-0.188,0.779,-0.024
38.55,-0.389,1.032,-0.082
38.56,-0.158,0.927,-0.053
38.57,-0.065,1.297,0.013
38.58,-0.149,0.692,0.151
38.59,-0.21,0.963,0.01
38.6,-0.358,1.005,-0.102
38.61,-0.113,1.061,-0.076
38.62,-0.144,1.015,0.091
38.63,-0.098,0.691,0.113
38.64,-0.391,1.166,-0.033
38.65,-0.256,0.883,-0.152
38.66,-0.221,1.095,-0.062
38.67,-0.103,0.79,0.118
38.68,-0.156,0.99,0.128
38.69,-0.32,1.017,-0.083
38.7,-0.302,0.844,-0.099
38.71,-0.106,1.137,0.011
38.72,-0.051,0.834,0.098
38.73,-0.212,1.073,0.027
38.74,-0.399,0.793,-0.103
38.75,-0.157,1.071,-0.119
38.76,-0.121,1.03,0.058
38.77,0.083,0.864,0.044
38.78,-0.241,0.973,0.061
38.79,-0.311,0.852,-0.135
38.8,-0.159,1.193,-0.051
38.81,-0.009,0.854,0.001
38.82,-0.097,0.987,0.138
38.83,-0.296,0.865,-0.037
38.84,-0.319,1.085,-0.108
38.85,-0.16,1.001,-0.077
38.86,-0.094,0.827,0.082
38.87,-0.185,1.0,0.135
38.88,-0.285,0.873,-0.094
38.89,-0.248,1.194,-0.141
38.9,-0.2,0.826,-0.012
38.91,-0.053,1.077,0.172
38.92,-0.165,0.917,0.076
38.93,-0.359,0.94,-0.132
38.94,-0.211,1.031,-0.115
38.95,-0.183,0.984,0.051
38.96,-0.098,1.071,0.133
38.97,-0.232,0.78,0.042
38.98,-0.328,1.109,-0.147
38.99,-0.164,0.933,-0.035
39.0,-0.032,1.074,0.019
39.01,-0.124,0.825,0.095
39.02,-0.297,0.894,-0.026
39.03,-0.25,1.194,-0.133
39.04,-0.233,0.924,-0.049
39.05,-0.116,1.037,0.13
39.06,-0.145,0.737,0.098
39.07,-0.341,1.172,-0.101
39.08,-0.278,0.824,-0.129
39.09,-0.189,1.127,-0.008
39.1,-0.031,0.871,0.125
39.11,-0.158,0.93,0.036
39.12,-0.342,1.013,-0.125
39.13,-0.188,0.909,-0.084
39.14,-0.184,1.221,0.058
39.15,-0.02,0.657,0.162
39.16,-0.267,1.082,0.023
39.17,-0.306,0.874,-0.135
39.18,-0.181,1.108,-0.072
39.19,-0.172,0.947,0.085
39.2,-0.062,0.777,0.134
39.21,-0.308,1.138,-0.013
39.22,-0.27,0.844,-0.128
39.23,-0.247,1.081,-0.038
39.24,-0.072,0.784,0.129
39.25,-0.16,1.031,0.134
39.26,-0.298,0.926,-0.097
39.27,-0.267,0.937,-0.116
39.28,-0.176,1.055,-0.028
39.29,-0.285,0.872,0.35
39.3,-0.2,1.103,0.057
39.31,-0.356,0.776,-0.136
39.32,-0.218,1.108,-0.11
39.33,-0.099,0.956,0.053
39.34,-0.376,0.997,0.129
39.35,-0.262,0.896,0.004
39.36,-0.345,0.919,-0.143
39.37,-0.076,1.189,-0.062
39.38,-0.131,0.847,0.058
39.39,-0.218,0.925,0.24
39.4,-0.268,0.815,-0.037
39.41,-0.256,1.201,-0.147
39.42,-0.146,0.901,-0.083
39.43,-0.16,0.874,0.154
39.44,-0.154,0.946,0.152
39.45,-0.346,0.904,-0.087
39.46,-0.284,1.152,-0.138
39.47,-0.086,0.875,0.008
39.48,-0.111,1.147,0.136
39.49,-0.176,0.776,0.095
39.5,-0.379,1.017,-0.131
39.51,-0.16,0.999,-0.132
39.52,-0.149,1.105,0.048
39.53,-0.027,0.99,0.076
39.54,-0.293,0.754,0.033
39.55,-0.303,1.199,-0.144
39.56,-0.128,0.973,-0.093
39.57,-0.041,1.064,-0.056
39.58,-0.059,0.745,0.159
39.59,-0.366,1.03,-0.017
39.6,-0.272,1.071,-0.144
39.61,-0.168,0.865,-0.059
39.62,-0.139,1.064,0.155
39.63,-0.176,0.785,0.126
39.64,-0.362,1.132,-0.145
39.65,-0.304,0.757,-0.088
39.66,-0.197,1.176,0.026
39.67,-0.032,0.968,0.123
39.68,-0.201,0.804,0.029
39.69,-0.321,1.028,-0.145
39.7,-0.196,0.905,-0.035
39.71,-0.149,1.26,0.046
39.72,-0.037,0.695,0.151
39.73,-0.289,1.067,-0.01
39.74,-0.305,0.917,-0.108
39.75,-0.173,1.049,-0.097
39.76,-0.178,0.992,0.095
39.77,-0.074,0.752,0.123
39.78,-0.342,1.173,-0.054
39.79,-0.27,0.789,-0.176
39.8,-0.241,1.077,-0.024
39.81,-0.074,0.833,0.177
39.82,-0.139,1.013,0.07
39.83,-0.373,0.959,-0.074
39.84,-0.177,0.867,-0.136
39.85,-0.187,1.192,0.038
39.86,-0.057,0.855,0.146
39.87,-0.218,1.008,0.007
39.88,-0.345,0.804,-0.106
39.89,-0.144,1.236,-0.044
39.9,-0.059,0.842,0.038
39.91,-0.093,0.955,0.163
39.92,-0.253,0.935,-0.03
39.93,-0.321,1.052,-0.153
39.94,-0.202,1.004,-0.066
39.95,-0.013,0.809,0.09
39.96,-0.103,1.078,0.106
39.97,-0.351,0.861,-0.08
39.98,-0.307,1.129,-0.142
39.99,-0.164,0.864,-0.026
40.0,-0.122,1.03,0.186
40.01,-0.184,0.893,0.081
40.02,-0.41,0.914,-0.105
40.03,-0.199,1.101,-0.102
40.04,-0.035,0.983,0.045
40.05,-0.09,1.067,0.114
40.06,-0.199,0.765,-0.003
40.07,-0.344,1.159,-0.134
40.08,-0.152,0.997,-0.08
40.09,-0.126,0.969,0.056
40.1,-0.141,0.855,0.171
40.11,-0.293,0.9,-0.023
40.12,-0.307,1.205,-0.162
40.13,-0.237,0.772,-0.027
40.14,-0.147,1.068,0.137
40.15,-0.144,0.783,0.134
40.16,-0.377,1.086,-0.097
40.17,-0.244,0.882,-0.135
40.18,-0.169,0.939,-0.019
40.19,-0.076,1.075,0.175
40.2,-0.188,0.758,0.053
40.21,-0.369,1.091,-0.114
40.22,-0.16,0.848,-0.067
40.23,-0.057,1.262,0.004
40.24,0.015,0.67,0.05
40.25,-0.228,0.935,0.036
40.26,-0.333,1.032,-0.17
40.27,-0.145,0.93,-0.069
40.28,-0.082,1.108,0.069
40.29,-0.093,0.689,0.101
40.3,-0.347,1.135,-0.03
40.31,-0.201,0.898,-0.182
40.32,-0.244,1.062,-0.047
40.33,-0.12,0.881,0.168
40.34,-0.08,0.896,0.117
40.35,-0.34,1.109,-0.1
40.36,-0.27,0.819,-0.098
40.37,-0.171,1.207,-0.01
40.38,-0.072,0.826,0.164
40.39,-0.198,1.038,0.045
40.4,-0.306,0.851,-0.12
40.41,-0.162,1.073,-0.096
40.42,-0.091,1.123,0.053
40.43,-0.047,0.76,0.131
40.44,-0.268,1.079,0.01
40.45,-0.328,0.861,-0.123
40.46,-0.169,1.222,-0.086
40.47,-0.354,0.804,0.275
40.48,-0.123,0.913,0.172
40.49,-0.304,1.007,-0.031
40.5,-0.291,0.975,-0.142
40.51,-0.19,1.03,-0.026
40.52,-0.108,0.854,0.167
40.53,-0.215,1.087,0.091
40.54,-0.304,0.844,-0.105
40.55,-0.248,1.116,-0.124
40.56,-0.172,0.98,0.039
40.57,-0.063,0.972,0.157
40.58,-0.242,0.916,0.056
40.59,-0.337,0.874,-0.081
40.6,-0.188,1.225,-0.101
40.61,-0.098,0.875,0.027
40.62,-0.199,1.0,0.188
40.63,-0.26,0.819,-0.023
40.64,-0.286,1.16,-0.128
40.65,-0.123,0.998,-0.121
40.66,-0.171,0.882,0.155
40.67,-0.185,0.937,0.174
40.68,-0.335,0.99,-0.072
40.69,-0.253,1.07,-0.127
40.7,-0.178,0.872,0.001
40.71,-0.22,1.102,0.216
40.72,-0.088,0.792,0.039
40.73,-0.419,1.114,-0.133
40.74,-0.235,0.888,-0.098
40.75,-0.125,1.108,0.071
40.76,-0.056,0.87,0.141
40.77,-0.279,0.797,0.025
40.78,-0.302,1.153,-0.145
40.79,-0.129,0.917,-0.051
40.8,-0.24,1.113,0.088
40.81,-0.086,0.664,0.136
40.82,-0.374,1.102,-0.023
40.83,-0.219,0.93,-0.181
40.84,-0.205,0.974,-0.018
40.85,-0.15,1.02,0.144
40.86,-0.119,0.755,0.098
40.87,-0.408,1.146,-0.083
40.88,-0.197,0.798,-0.106
40.89,-0.255,1.248,0.038
40.9,0.008,0.811,0.144
40.91,-0.206,0.93,0.015
40.92,-0.378,1.001,-0.131
40.93,-0.151,0.976,-0.085
40.94,-0.148,1.136,0.03
40.95,-0.101,0.696,0.179
40.96,-0.281,1.103,-0.046
40.97,-0.352,0.885,-0.103
40.98,-0.156,1.108,-0.134
40.99,-0.061,0.861,0.071
41.0,-0.164,0.8,0.146
41.01,-0.337,1.112,-0.042
41.02,-0.275,0.837,-0.159
41.03,-0.185,1.121,-0.015
41.04,-0.147,0.801,0.183
41.05,-0.191,1.078,0.098
41.06,-0.309,0.849,-0.144
41.07,-0.252,0.987,-0.094
41.08,-0.264,1.099,-0.012
41.09,-0.033,0.784,0.123
41.1,-0.165,1.042,0.039
41.11,-0.357,0.884,-0.165
41.12,-0.223,1.193,-0.052
41.13,-0.094,0.838,0.062
41.14,-0.12,0.97,0.153
41.15,-0.296,0.955,-0.023
41.16,-0.288,1.0,-0.125
41.17,-0.253,1.04,-0.112
41.18,-0.094,0.839,0.166
41.19,-0.115,1.107,0.124
41.2,-0.27,0.761,-0.132
41.21,-0.283,1.043,-0.087
41.22,-0.143,0.981,-0.028
41.23,-0.149,1.017,0.172
41.24,-0.234,0.95,0.088
41.25,-0.37,0.851,-0.096
41.26,-0.205,1.158,-0.08
41.27,-0.023,0.923,0.022
41.28,-0.149,1.066,0.191
41.29,-0.177,0.777,0.002
41.3,-0.329,1.125,-0.159
41.31,-0.128,0.984,-0.095
41.32,-0.042,0.915,-0.014
41.33,-0.094,0.908,0.147
41.34,-0.311,0.896,-0.002
41.35,-0.363,1.195,-0.168
41.36,-0.202,0.791,0.005
41.37,-0.089,1.134,0.125
41.38,-0.177,0.838,0.147
41.39,-0.365,1.009,-0.105
41.4,-0.196,0.95,-0.127
41.41,-0.2,1.032,0.046
41.42,-0.079,1.043,0.13
41.43,-0.21,0.732,0.039
41.44,-0.331,1.164,-0.122
41.45,-0.209,0.949,-0.067
41.46,-0.122,1.127,0.034
41.47,-0.119,0.72,0.159
41.48,-0.279,0.927,0.019
41.49,-0.285,1.092,-0.182
41.5,-0.182,0.904,-0.059
41.51,-0.08,1.0,0.118
41.52,-0.135,0.755,0.146
41.53,-0.366,1.158,-0.07
41.54,-0.262,0.802,-0.153
41.55,-0.185,1.14,-0.024
41.56,-0.131,0.849,0.183
41.57,-0.206,0.953,0.058
41.58,-0.309,0.96,-0.118
41.59,-0.181,0.96,-0.115
41.6,-0.17,1.196,0.024
41.61,-0.03,0.709,0.137
41.62,-0.237,1.082,0.056
41.63,-0.315,0.833,-0.13
41.64,-0.206,1.146,-0.096
41.65,-0.154,0.934,0.061
41.66,-0.078,0.853,0.148
41.67,-0.295,1.063,-0.018
41.68,-0.307,0.917,-0.108
41.69,-0.191,1.13,-0.062
41.7,-0.091,0.768,0.123
41.71,-0.137,1.07,0.119
41.72,-0.32,0.918,-0.118
41.73,-0.354,0.972,-0.125
41.74,-0.165,0.968,-0.02
41.75,-0.082,0.948,0.181
41.76,-0.257,1.032,0.072
41.77,-0.333,0.807,-0.094
41.78,-0.187,1.19,-0.108
41.79,-0.151,0.953,0.044
41.8,-0.066,0.98,0.143
41.81,-0.191,0.872,0.011
41.82,-0.329,1.012,-0.117
41.83,-0.168,1.12,-0.11
41.84,-0.18,0.834,0.061
41.85,-0.087,1.003,0.179
41.86,-0.29,0.838,-0.062
41.87,-0.355,1.165,-0.139
41.88,-0.164,0.862,-0.058
41.89,-0.02,0.995,0.1
41.9,-0.196,0.919,0.104
41.91,-0.355,0.928,-0.075
41.92,-0.311,1.116,-0.109
41.93,-0.175,0.844,-0.006
41.94,-0.121,1.098,0.154
41.95,-0.219,0.807,0.061
41.96,-0.372,1.058,-0.096
41.97,-0.187,0.919,-0.12
41.98,-0.086,1.101,0.068
41.99,-0.196,0.92,0.214
42.0,-0.263,0.804,0.027
42.01,-0.298,1.201,-0.125
42.02,-0.161,0.901,-0.082
42.03,-0.161,1.114,0.044
42.04,-0.099,0.685,0.158
42.05,-0.352,1.019,-0.019
42.06,-0.274,0.982,-0.182
42.07,-0.229,0.913,-0.019
42.08,-0.112,1.07,0.123
42.09,-0.13,0.764,0.114
42.1,-0.374,1.179,-0.108
42.11,-0.281,0.791,-0.151
42.12,-0.2,1.149,-0.003
42.13,-0.073,0.891,0.176
42.14,-0.166,0.911,0.014
42.15,-0.359,0.956,-0.134
42.16,-0.216,0.911,-0.045
42.17,-0.053,1.232,0.013
42.18,-0.085,0.654,0.132
42.19,-0.25,1.067,0.004
42.2,-0.308,0.909,-0.105
42.21,-0.194,1.144,-0.117
42.22,-0.13,0.908,0.092
42.23,-0.126,0.782,0.16
42.24,-0.31,1.125,-0.036
42.25,-0.272,0.843,-0.158
42.26,-0.234,1.149,-0.032
42.27,-0.122,0.785,0.136
42.28,-0.182,1.082,0.106
42.29,-0.317,0.911,-0.107
42.3,-0.259,0.896,-0.13
42.31,-0.171,1.097,0.022
42.32,-0.056,0.865,0.143
42.33,-0.211,0.966,0.057
42.34,-0.331,0.839,-0.132
42.35,-0.239,1.243,-0.088
42.36,-0.155,0.805,0.025
42.37,-0.137,0.991,0.193
42.38,-0.253,0.844,-0.027
42.39,-0.297,1.136,-0.141
42.4,-0.104,0.984,-0.126
42.41,-0.454,0.892,0.318
42.42,-0.119,1.0,0.111
42.43,-0.339,0.896,-0.085
42.44,-0.352,1.181,-0.119
42.45,-0.127,0.832,-0.037
42.46,-0.127,1.086,0.148
42.47,-0.2,0.876,0.084
42.48,-0.292,0.979,-0.122
42.49,-0.237,1.052,-0.129
42.5,-0.141,0.941,0.053
42.51,-0.112,1.085,0.134
42.52,-0.173,0.726,0.012
42.53,-0.351,1.115,-0.149
42.54,-0.153,0.937,-0.079
42.55,-0.297,1.153,-0.128
42.56,-0.243,0.82,-0.153
42.57,-0.233,1.162,-0.009
42.58,-0.081,0.851,0.214
42.59,-0.243,0.909,0.056
42.6,-0.361,1.019,-0.144
42.61,-0.136,0.938,-0.048
42.62,-0.121,1.205,0.024
42.63,-0.092,0.658,0.171
42.64,-0.269,1.101,0.025
42.65,-0.258,0.932,-0.149
42.66,-0.224,1.095,-0.072
42.67,-0.138,0.925,0.083
42.68,-0.1,0.818,0.138
42.69,-0.346,1.119,-0.063
42.7,-0.274,0.781,-0.096
42.71,-0.339,1.174,-0.022
42.72,-0.072,0.812,0.155
42.73,-0.148,1.019,0.036
42.74,-0.315,0.855,-0.106
42.75,-0.197,1.031,-0.096
42.76,-0.205,1.145,-0.026
42.77,-0.053,0.743,0.15
42.78,-0.243,1.079,0.06
42.79,-0.391,0.772,-0.093
42.8,-0.103,1.223,-0.119
42.81,-0.131,0.872,0.023
42.82,-0.112,0.93,0.176
42.83,-0.217,0.944,-0.033
42.84,-0.305,0.986,-0.136
42.85,-0.141,1.081,-0.095
42.86,-0.021,0.839,0.071
42.87,-0.174,1.06,0.162
42.88,-0.313,0.821,-0.066
42.89,-0.324,1.129,-0.137
42.9,-0.123,0.911,-0.026
42.91,-0.129,1.005,0.137
42.92,-0.239,0.963,0.079
42.93,-0.359,0.87,-0.13
42.94,-0.165,1.115,-0.111
42.95,-0.099,0.918,0.033
42.96,-0.046,1.067,0.07
42.97,-0.193,0.774,0.051
42.98,-0.323,1.078,-0.151
42.99,-0.203,1.062,-0.082
43.0,-0.174,0.944,0.058
43.01,-0.133,0.924,0.146
43.02,-0.328,0.845,-0.02
43.03,-0.302,1.197,-0.148
43.04,-0.261,0.837,-0.001
43.05,-0.142,1.062,0.129
43.06,-0.107,0.836,0.155
43.07,-0.344,1.032,-0.11
43.08,-0.253,0.869,-0.153
43.09,-0.197,1.114,0.078
43.1,-0.03,0.935,0.117
43.11,-0.225,0.803,0.065
43.12,-0.367,1.145,-0.129
43.13,-0.142,0.95,-0.08
43.14,-0.136,1.187,0.044
43.15,-0.06,0.686,0.142
43.16,-0.331,1.034,-0.013
43.17,-0.226,1.008,-0.124
43.18,-0.202,0.968,-0.113
43.19,-0.178,1.021,0.102
43.2,-0.084,0.755,0.153
43.21,-0.345,1.171,-0.077
43.22,-0.315,0.742,-0.117
43.23,-0.21,1.127,-0.008
43.24,-0.11,0.941,0.182
43.25,-0.123,0.937,0.03
43.26,-0.38,1.0,-0.071
43.27,-0.201,0.925,-0.12
43.28,-0.165,1.269,0.044
43.29,-0.03,0.693,0.137
43.3,-0.254,1.056,0.042
43.31,-0.346,0.82,-0.117
43.32,-0.196,1.181,-0.071
43.33,-0.1,0.998,0.039
43.34,-0.134,0.795,0.153
43.35,-0.299,1.034,-0.027
43.36,-0.236,0.877,-0.132
43.37,-0.247,1.157,-0.037
43.38,-0.078,0.778,0.113
43.39,-0.159,1.071,0.16
43.4,-0.295,0.892,-0.109
43.41,-0.344,0.972,-0.122
43.42,-0.173,1.055,-0.028
43.43,-0.046,0.894,0.161
43.44,-0.264,1.035,0.057
43.45,-0.246,0.757,-0.14
43.46,-0.268,1.179,-0.07
43.47,-0.082,0.929,0.014
43.48,-0.061,0.956,0.16
43.49,-0.234,0.906,0.054
43.5,-0.366,0.949,-0.148
43.51,-0.187,1.156,-0.095
43.52,-0.14,0.862,0.038
43.53,-0.178,0.968,0.2
43.54,-0.263,0.834,-0.031
43.55,-0.26,1.229,-0.138
43.56,-0.151,0.872,-0.104
43.57,-0.145,0.943,0.129
43.58,-0.21,0.949,0.205
43.59,-0.312,0.9,-0.091
43.6,-0.329,1.128,-0.128
43.61,-0.213,0.833,-0.036
43.62,-0.191,1.166,0.335
43.63,-0.153,0.773,0.046
43.64,-0.371,1.026,-0.114
43.65,-0.251,0.985,-0.096
43.66,-0.118,1.096,0.024
43.67,-0.095,0.911,0.156
43.68,-0.222,0.774,-0.02
43.69,-0.384,1.171,-0.136
43.7,-0.154,0.896,-0.061
43.71,-0.146,1.153,0.062
43.72,-0.125,0.734,0.176
43.73,-0.304,1.026,-0.022
43.74,-0.318,1.022,-0.159
43.75,-0.24,0.886,-0.022
43.76,-0.06,1.069,0.116
43.77,-0.154,0.772,0.143
43.78,-0.306,1.105,-0.17
43.79,-0.314,0.826,-0.088
43.8,-0.206,1.138,-0.016
43.81,-0.088,0.88,0.168
43.82,-0.241,0.901,0.074
43.83,-0.307,1.018,-0.143
43.84,-0.212,0.846,-0.061
43.85,-0.073,1.272,0.035
43.86,-0.056,0.717,0.126
43.87,-0.247,1.047,0.028
43.88,-0.275,0.89,-0.142
43.89,-0.153,1.142,-0.085
43.9,-0.115,0.81,0.069
43.91,-0.135,0.854,0.136
43.92,-0.321,1.053,-0.049
43.93,-0.204,0.961,-0.134
43.94,-0.199,1.093,-0.053
43.95,-0.117,0.746,0.168
43.96,-0.196,1.106,0.113
43.97,-0.325,0.862,-0.103
43.98,-0.253,1.023,-0.12
43.99,-0.148,0.998,-0.009
44.0,0.075,0.94,0.061
44.01,-0.243,1.005,0.043
44.02,-0.318,0.826,-0.127
44.03,-0.206,1.227,-0.084
44.04,-0.086,0.889,0.054
44.05,-0.031,0.984,0.1
44.06,-0.298,0.851,0.006
44.07,-0.315,1.039,-0.123
44.08,-0.202,1.06,-0.076
44.09,-0.106,0.859,0.085
44.1,-0.188,0.952,0.128
44.11,-0.307,0.868,-0.048
44.12,-0.304,1.223,-0.143
44.13,-0.162,0.828,-0.071
44.14,-0.12,1.03,0.16
44.15,-0.164,0.892,0.127
44.16,-0.314,0.961,-0.137
44.17,-0.29,1.029,-0.101
44.18,-0.153,0.998,0.056
44.19,-0.038,1.081,0.117
44.2,-0.222,0.718,0.028
44.21,-0.348,1.13,-0.112
44.22,-0.219,0.972,-0.059
44.23,-0.102,1.098,0.043
44.24,-0.099,0.854,0.155
44.25,-0.326,0.898,-0.008
44.26,-0.303,1.122,-0.117
44.27,-0.181,0.867,-0.07
44.28,-0.2,1.115,0.147
44.29,-0.133,0.71,0.121
44.3,-0.336,1.115,-0.1
44.31,-0.255,0.903,-0.133
44.32,-0.173,1.0,-0.048
44.33,-0.127,1.033,0.151
44.34,-0.133,0.796,0.09
44.35,-0.377,1.142,-0.101
44.36,-0.24,0.753,-0.096
44.37,-0.201,1.247,0.055
44.38,-0.026,0.818,0.13
44.39,-0.177,0.934,0.023
44.4,-0.358,0.963,-0.155
44.41,-0.146,0.996,-0.043
44.42,-0.052,1.154,0.009
44.43,-0.07,0.678,0.178
44.44,-0.315,1.135,-0.01
44.45,-0.325,0.881,-0.12
44.46,-0.177,1.114,-0.087
44.47,-0.125,0.869,0.118
44.48,-0.13,0.885,0.106
44.49,-0.317,1.08,-0.034
44.5,-0.222,0.866,-0.187
44.51,-0.208,1.1,-0.053
44.52,-0.073,0.795,0.16
44.53,-0.217,1.094,0.108
44.54,-0.261,0.853,-0.128
44.55,-0.238,1.002,-0.11
44.56,-0.215,1.073,0.062
44.57,-0.009,0.915,0.117
44.58,-0.212,1.015,0.033
44.59,-0.341,0.793,-0.14
44.6,-0.194,1.231,-0.043
44.61,-0.028,0.875,0.009
44.62,-0.148,0.97,0.171
44.63,-0.255,0.879,-0.013
44.64,-0.325,1.034,-0.147
44.65,-0.195,1.021,-0.095
44.66,-0.104,0.798,0.083
44.67,-0.182,1.028,0.139
44.68,-0.327,0.839,-0.045
44.69,-0.219,1.182,-0.13
44.7,-0.181,0.889,-0.081
44.71,-0.132,0.955,0.152
44.72,-0.152,0.925,0.151
44.73,-0.335,1.05,-0.131
44.74,-0.277,0.943,-0.127
44.75,-0.11,1.017,0.056
44.76,-0.079,1.021,0.147
44.77,-0.198,0.731,0.028
44.78,-0.382,1.138,-0.11
44.79,-0.188,0.914,-0.039
44.8,-0.143,1.143,0.076
44.81,-0.049,0.759,0.108
44.82,-0.332,0.975,-0.021
44.83,-0.298,1.104,-0.104
44.84,-0.149,0.893,-0.131
44.85,-0.164,1.025,0.101
44.86,-0.139,0.723,0.117
44.87,-0.376,1.205,-0.03
44.88,-0.31,0.817,-0.143
44.89,-0.211,1.0,-0.041
44.9,-0.127,0.929,0.166
44.91,-0.127,0.875,0.098
44.92,-0.305,1.08,-0.129
44.93,-0.303,0.764,-0.105
44.94,-0.2,1.192,0.03
44.95,-0.087,0.856,0.207
44.96,-0.197,1.013,0.013
44.97,-0.343,0.842,-0.134
44.98,-0.24,1.025,-0.078
44.99,-0.09,1.178,0.065
45.0,-0.051,0.76,0.109
45.01,-0.354,1.033,0.01
45.02,-0.321,0.829,-0.105
45.03,-0.153,1.247,-0.091
45.04,-0.126,0.796,0.061
45.05,-0.139,0.925,0.142
45.06,-0.337,1.001,-0.028
45.07,-0.282,0.954,-0.16
45.08,-0.169,1.056,-0.053
45.09,-0.075,0.784,0.11
45.1,-0.2,1.071,0.126
45.11,-0.298,0.856,-0.075
45.12,-0.277,1.133,-0.138
45.13,-0.203,0.875,-0.002
45.14,-0.121,0.959,0.171
45.15,-0.221,1.003,0.075
45.16,-0.311,0.856,-0.15
45.17,-0.251,1.077,-0.114
45.18,-0.083,0.94,0.041
45.19,0.006,1.176,0.046
45.2,-0.213,0.766,0.002
45.21,-0.367,1.026,-0.121
45.22,-0.158,1.058,-0.073
45.23,-0.06,1.015,0.074
45.24,-0.186,0.965,0.118
45.25,-0.287,0.782,-0.006
45.26,-0.309,1.222,-0.123
45.27,-0.094,0.855,-0.079
45.28,-0.229,1.056,0.092
45.29,-0.19,0.775,0.182
45.3,-0.275,1.048,-0.077
45.31,-0.262,1.019,-0.144
45.32,-0.213,0.913,-0.024
45.33,-0.192,1.065,0.219
45.34,-0.102,0.761,0.041
45.35,-0.432,1.133,-0.113
45.36,-0.217,0.831,-0.137
45.37,-0.179,1.201,0.065
45.38,0.02,0.876,0.113
45.39,-0.244,0.854,0.032
45.4,-0.358,1.052,-0.117
45.41,-0.147,0.919,-0.076
45.42,-0.143,1.215,0.033
45.43,-0.082,0.677,0.139
45.44,-0.36,1.076,-0.037
45.45,-0.25,0.903,-0.124
45.46,-0.164,1.069,-0.062
45.47,-0.258,0.922,0.091
45.48,-0.194,0.764,0.144
45.49,-0.32,1.168,-0.08
45.5,-0.267,0.796,-0.138
45.51,-0.197,1.063,-0.025
45.52,-0.055,0.787,0.165
45.53,-0.169,1.043,0.089
45.54,-0.343,0.935,-0.111
45.55,-0.182,1.038,-0.113
45.56,-0.113,1.077,0.074
45.57,-0.213,0.873,0.139
45.58,-0.285,1.004,0.052
45.59,-0.275,0.84,-0.135
45.6,-0.147,1.223,-0.066
45.61,-0.101,0.844,0.054
45.62,-0.12,0.966,0.119
45.63,-0.341,0.867,-0.022
45.64,-0.219,1.038,-0.131
45.65,-0.144,1.048,-0.044
45.66,-0.152,0.8,0.126
45.67,-0.169,1.006,0.11
45.68,-0.35,0.858,-0.076
45.69,-0.205,1.217,-0.14
45.7,-0.156,0.837,-0.027
45.71,-0.102,0.969,0.201
45.72,-0.145,0.935,0.106
45.73,-0.322,0.969,-0.124
45.74,-0.271,1.044,-0.139
45.75,-0.143,0.892,0.059
45.76,-0.137,1.093,0.164
45.77,-0.267,0.751,0.006
45.78,-0.396,1.101,-0.157
45.79,-0.092,0.88,-0.113
45.8,-0.121,1.074,0.118
45.81,-0.025,0.834,0.055
45.82,-0.337,0.889,0.002
45.83,-0.286,1.128,-0.097
45.84,-0.082,0.928,-0.063
45.85,-0.211,1.12,0.109
45.86,-0.216,0.702,0.119
45.87,-0.319,1.106,-0.045
45.88,-0.203,0.986,-0.166
45.89,-0.205,0.959,-0.039
45.9,-0.143,0.982,0.224
45.91,-0.091,0.82,0.043
45.92,-0.402,1.129,-0.118
45.93,-0.246,0.794,-0.122
45.94,-0.108,1.267,0.068
45.95,0.043,0.732,0.034
45.96,-0.333,0.963,0.071
45.97,-0.238,1.026,-0.161
45.98,-0.119,1.022,-0.093
45.99,-0.271,1.053,0.219
46.0,-0.044,0.658,0.156
46.01,-0.363,1.216,-0.028
46.02,-0.196,0.821,-0.171
46.03,-0.232,1.074,-0.039
46.04,-0.152,0.887,0.142
46.05,-0.168,0.875,0.099
46.06,-0.345,1.067,-0.108
46.07,-0.198,0.805,-0.141
46.08,-0.204,1.185,0.025
46.09,-0.044,0.794,0.19
46.1,-0.218,1.08,0.052
46.11,-0.269,0.811,-0.177
46.12,-0.249,1.104,-0.053
46.13,-0.116,1.077,0.047
46.14,-0.066,0.793,0.145
46.15,-0.325,1.044,0.012
46.16,-0.346,0.836,-0.104
46.17,-0.109,1.233,-0.07
46.18,-0.147,0.773,0.086
46.19,-0.255,0.968,0.197
46.2,-0.266,0.972,-0.04
46.21,-0.221,1.025,-0.174
46.22,-0.209,1.007,-0.063
46.23,-0.167,0.794,0.298
46.24,-0.115,1.109,0.077
46.25,-0.413,0.831,-0.1
46.26,-0.222,1.13,-0.145
46.27,-0.203,0.957,0.031
46.28,-0.071,0.94,0.128
46.29,-0.191,0.879,0.021
46.3,-0.412,0.937,-0.143
46.31,-0.195,1.202,-0.053
46.32,-0.079,0.859,0.044
46.33,-0.159,0.973,0.172
46.34,-0.343,0.825,-0.028
46.35,-0.235,1.185,-0.149
46.36,-0.237,0.934,-0.06
46.37,-0.155,1.016,0.141
46.38,-0.13,0.877,0.092
46.39,-0.343,0.979,-0.128
46.4,-0.205,1.032,-0.155
46.41,-0.203,0.976,0.062
46.42,-0.054,1.022,0.133
46.43,-0.168,0.726,0.038
46.44,-0.362,1.115,-0.138
46.45,-0.199,1.014,-0.051
46.46,-0.081,1.11,0.01
46.47,-0.09,0.786,0.145
46.48,-0.273,0.898,0.003
46.49,-0.304,1.205,-0.174
46.5,-0.158,0.828,-0.083
46.51,-0.164,1.112,0.146
46.52,-0.082,0.72,0.116
46.53,-0.408,1.144,-0.077
46.54,-0.249,0.899,-0.158
46.55,-0.215,0.989,-0.014
46.56,-0.138,1.003,0.155
46.57,-0.171,0.797,0.091
46.58,-0.393,1.143,-0.112
46.59,-0.196,0.768,-0.107
46.6,-0.168,1.294,0.055
46.61,-0.04,0.788,0.142
46.62,-0.255,0.93,0.012
46.63,-0.34,0.975,-0.133
46.64,-0.06,1.029,-0.105
46.65,-0.173,1.116,0.076
46.66,-0.125,0.656,0.17
46.67,-0.293,1.159,-0.011
46.68,-0.307,0.836,-0.171
46.69,-0.239,1.04,-0.024
46.7,-0.095,0.887,0.119
46.71,-0.097,0.972,0.111
46.72,-0.349,1.041,-0.116
46.73,-0.242,0.803,-0.16
46.74,-0.242,1.212,0.054
46.75,-0.021,0.831,0.138
46.76,-0.264,1.063,0.046
46.77,-0.328,0.785,-0.146
46.78,-0.166,1.133,-0.051
46.79,-0.257,1.051,0.053
46.8,-0.092,0.751,0.149
46.81,-0.204,1.045,-0.024
46.82,-0.303,0.942,-0.088
46.83,-0.187,1.162,-0.126
46.84,-0.172,0.739,0.091
46.85,-0.054,1.011,0.146
46.86,-0.302,0.958,-0.057
46.87,-0.375,0.981,-0.15
46.88,-0.188,1.006,-0.055
46.89,-0.102,0.868,0.195
46.9,-0.203,1.1,0.08
46.91,-0.386,0.82,-0.106
46.92,-0.236,1.104,-0.136
46.93,-0.144,0.946,0.052
46.94,-0.059,1.024,0.137
46.95,-0.196,0.896,0.057
46.96,-0.312,0.946,-0.14
46.97,-0.228,1.204,-0.075
46.98,-0.12,0.884,0.011
46.99,-0.089,0.953,0.154
47.0,-0.206,0.787,-0.035
47.01,-0.354,1.213,-0.129
47.02,-0.248,0.869,-0.068
47.03,-0.082,0.928,0.103
47.04,-0.157,0.962,0.19
47.05,-0.354,0.902,-0.094
47.06,-0.364,1.065,-0.153
47.07,-0.139,0.828,-0.0
47.08,-0.146,1.174,0.164
47.09,-0.138,0.796,0.049
47.1,-0.388,1.038,-0.116
47.11,-0.24,0.887,-0.088
47.12,-0.105,1.064,0.061
47.13,-0.061,1.016,0.115
47.14,-0.201,0.741,0.031
47.15,-0.336,1.111,-0.126
47.16,-0.172,0.964,-0.032
47.17,-0.111,1.199,0.003
47.18,-0.123,0.672,0.153
47.19,-0.278,0.999,0.024
47.2,-0.257,0.954,-0.167
47.21,-0.272,0.953,-0.05
47.22,-0.13,0.966,0.131
47.23,-0.146,0.868,0.174
47.24,-0.336,1.112,-0.137
47.25,-0.249,0.759,-0.113
47.26,-0.161,1.214,-0.004
47.27,-0.094,0.88,0.162
47.28,-0.191,0.99,0.061
47.29,-0.326,0.884,-0.132
47.3,-0.253,0.987,-0.053
47.31,-0.009,1.189,-0.018
47.32,-0.082,0.732,0.112
47.33,-0.228,1.052,0.04
47.34,-0.335,0.859,-0.117
47.35,-0.219,1.204,-0.093
47.36,-0.173,0.852,0.062
47.37,-0.057,0.85,0.175
47.38,-0.282,1.033,-0.032
47.39,-0.294,0.93,-0.168
47.4,-0.292,1.049,-0.072
47.41,-0.06,0.781,0.106
47.42,-0.106,1.11,0.121
47.43,-0.294,0.893,-0.128
47.44,-0.384,1.003,-0.122
47.45,-0.138,0.94,0.017
47.46,-0.065,0.989,0.188
47.47,-0.186,1.035,0.088
47.48,-0.334,0.797,-0.158
47.49,-0.25,1.125,-0.057
47.5,-0.083,0.947,0.021
47.51,-0.057,1.091,0.111
47.52,-0.258,0.815,0.013
47.53,-0.357,0.951,-0.12
47.54,-0.09,1.12,-0.039
47.55,-0.37,0.95,0.152
47.56,-0.174,0.936,0.144
47.57,-0.208,0.828,-0.04
47.58,-0.364,1.267,-0.143
47.59,-0.186,0.842,-0.073
47.6,-0.159,1.006,0.092
47.61,-0.167,0.831,0.119
47.62,-0.311,0.981,-0.078
47.63,-0.319,1.042,-0.13
47.64,-0.143,0.822,0.012
47.65,-0.132,1.156,0.188
47.66,-0.191,0.775,0.02
47.67,-0.429,1.075,-0.118
47.68,-0.154,0.89,-0.13
47.69,-0.075,1.173,0.053
47.7,-0.066,0.856,0.057
47.71,-0.281,0.789,0.064
47.72,-0.335,1.122,-0.113
47.73,-0.11,0.958,-0.074
47.74,-0.126,1.179,0.033
47.75,-0.103,0.623,0.147
47.76,-0.359,1.085,-0.006
47.77,-0.228,0.993,-0.17
47.78,-0.275,0.932,-0.06
47.79,-0.137,0.926,0.133
47.8,-0.12,0.817,0.186
47.81,-0.303,1.158,-0.133
47.82,-0.32,0.761,-0.107
47.83,-0.131,1.152,-0.041
47.84,-0.244,0.925,0.33
47.85,-0.182,0.981,0.05
47.86,-0.304,0.971,-0.114
47.87,-0.257,0.94,-0.06
47.88,-0.13,1.234,0.047
47.89,-0.067,0.694,0.122
47.9,-0.228,1.074,0.063
47.91,-0.311,0.838,-0.169
47.92,-0.23,1.133,-0.048
47.93,-0.085,0.986,0.045
47.94,-0.085,0.848,0.099
47.95,-0.299,1.022,-0.003
47.96,-0.27,0.902,-0.187
47.97,-0.276,1.11,-0.015
47.98,-0.1,0.762,0.109
47.99,-0.19,1.084,0.164
48.0,-0.35,0.901,-0.109
48.01,-0.267,0.979,-0.148
48.02,-0.185,0.907,-0.025
48.03,-0.05,1.025,0.166
48.04,-0.213,0.944,0.032
48.05,-0.347,0.869,-0.077
48.06,-0.171,1.155,-0.084
48.07,-0.135,0.934,0.022
48.08,-0.109,0.992,0.164
48.09,-0.215,0.787,0.01
48.1,-0.356,1.138,-0.15
48.11,-0.098,1.025,-0.094
48.12,-0.12,0.988,0.016
48.13,-0.095,0.875,0.125
48.14,-0.337,0.892,-0.012
48.15,-0.323,1.189,-0.172
48.16,-0.139,0.791,-0.076
48.17,-0.146,1.099,0.085
48.18,-0.132,0.804,0.147
48.19,-0.365,1.068,-0.107
48.2,-0.223,0.945,-0.131
48.21,-0.216,0.963,-0.001
48.22,-0.059,1.051,0.148
