t,ax,ay,az
0.0,-0.091,1.18,0.04
0.01,-0.091,0.79,0.15
0.02,-0.298,0.898,-0.042
0.03,-0.359,1.042,-0.121
0.04,-0.137,0.922,-0.09
0.05,-0.138,1.108,0.108
0.06,-0.075,0.697,0.113
0.07,-0.392,1.145,-0.036
0.08,-0.256,0.894,-0.152
0.09,-0.185,1.062,-0.021
0.1,-0.135,0.892,0.116
0.11,-0.143,0.848,0.112
0.12,-0.342,1.132,-0.118
0.13,-0.236,0.794,-0.081
0.14,-0.158,1.193,0.001
0.15,-0.056,0.774,0.153
0.16,-0.254,1.037,0.067
0.17,-0.271,0.889,-0.117
0.18,-0.178,1.014,-0.124
0.19,-0.203,1.084,0.085
0.2,-0.02,0.805,0.129
0.21,-0.293,1.059,0.01
0.22,-0.346,0.773,-0.121
0.23,-0.243,1.189,-0.041
0.24,-0.062,0.852,0.063
0.25,-0.119,0.945,0.141
0.26,-0.288,0.959,-0.049
0.27,-0.275,1.016,-0.112
0.28,-0.206,1.07,-0.082
0.29,-0.073,0.774,0.11
0.3,-0.274,1.096,0.152
0.31,-0.251,0.842,-0.076
0.32,-0.367,1.136,-0.105
0.33,-0.169,0.862,-0.034
0.34,-0.088,1.002,0.177
0.35,-0.146,0.983,0.044
0.36,-0.337,0.869,-0.134
0.37,-0.277,1.111,-0.128
0.38,-0.09,0.923,0.044
0.39,-0.106,0.979,0.165
0.4,-0.214,0.747,-0.034
0.41,-0.433,1.205,-0.089
0.42,-0.096,0.884,-0.071
0.43,-0.113,1.087,0.046
0.44,-0.12,0.753,0.113
0.45,-0.362,0.972,-0.05
0.46,-0.258,1.079,-0.125
0.47,-0.163,0.882,-0.046
0.48,-0.197,1.086,0.121
0.49,-0.123,0.719,0.127
0.5,-0.385,1.18,-0.076
0.51,-0.176,0.844,-0.133
0.52,-0.197,1.118,-0.017
0.53,-0.091,0.907,0.142
0.54,-0.184,0.901,0.099
0.55,-0.327,1.052,-0.141
0.56,-0.234,0.822,-0.092
0.57,-0.215,1.293,0.08
0.58,-0.025,0.807,0.139
0.59,-0.212,1.009,0.023
0.6,-0.309,0.866,-0.132
0.61,-0.243,1.077,-0.057
0.62,-0.075,1.037,0.056
0.63,-0.069,0.784,0.121
0.64,-0.348,1.083,-0.034
0.65,-0.334,0.825,-0.07
0.66,-0.166,1.212,-0.036
0.67,-0.106,0.791,0.112
0.68,-0.218,0.996,0.142
0.69,-0.296,0.988,-0.02
0.7,-0.257,0.994,-0.168
0.71,-0.215,1.013,-0.075
0.72,-0.08,0.774,0.158
0.73,-0.187,1.116,0.076
0.74,-0.283,0.825,-0.109
0.75,-0.275,1.132,-0.134
0.76,-0.2,0.974,0.052
0.77,-0.044,1.0,0.133
0.78,-0.212,0.921,0.049
0.79,-0.337,0.9,-0.164
0.8,-0.289,1.123,-0.043
0.81,-0.043,0.911,0.033
0.82,-0.077,1.065,0.132
0.83,-0.264,0.767,-0.014
0.84,-0.35,1.127,-0.1
0.85,-0.163,0.959,-0.083
0.86,-0.112,0.919,0.113
0.87,-0.154,0.919,0.13
0.88,-0.364,0.927,-0.015
0.89,-0.308,1.142,-0.171
0.9,-0.177,0.792,-0.028
0.91,-0.098,1.072,0.091
0.92,-0.179,0.769,0.163
0.93,-0.3,1.119,-0.092
0.94,-0.285,0.949,-0.119
0.95,-0.18,0.954,-0.04
0.96,-0.097,1.06,0.163
0.97,-0.182,0.775,0.055
0.98,-0.381,1.137,-0.081
0.99,-0.203,0.849,-0.115
1.0,-0.205,1.268,0.08
1.01,-0.021,0.746,0.141
1.02,-0.226,0.932,0.044
1.03,-0.292,0.997,-0.158
1.04,-0.243,0.968,-0.033
1.05,-0.078,1.108,0.038
1.06,-0.083,0.713,0.137
1.07,-0.355,1.103,0.004
1.08,-0.321,0.834,-0.12
1.09,-0.209,1.125,-0.074
1.1,-0.096,0.94,0.107
1.11,-0.09,0.879,0.11
1.12,-0.377,1.061,-0.025
1.13,-0.194,0.874,-0.157
1.14,-0.224,1.131,-0.045
1.15,-0.116,0.742,0.143
1.16,-0.204,1.109,0.128
1.17,-0.286,0.874,-0.115
1.18,-0.298,1.019,-0.106
1.19,-0.164,0.986,-0.037
1.2,-0.096,0.913,0.181
1.21,-0.122,0.905,0.03
1.22,-0.323,0.886,-0.123
1.23,-0.249,1.114,-0.106
1.24,-0.092,0.96,0.071
1.25,-0.341,1.141,-0.106
1.26,-0.185,0.897,-0.066
1.27,-0.087,1.009,0.075
1.28,-0.175,0.839,0.116
1.29,-0.325,0.983,0.005
1.3,-0.286,1.103,-0.131
1.31,-0.171,0.831,-0.053
1.32,-0.201,1.082,0.131
1.33,-0.092,0.783,0.109
1.34,-0.337,1.179,-0.103
1.35,-0.253,0.83,-0.133
1.36,-0.174,1.05,0.016
1.37,-0.146,1.0,0.181
1.38,-0.175,0.832,0.049
1.39,-0.384,1.083,-0.115
1.4,-0.27,0.795,-0.079
1.41,-0.209,1.295,0.07
1.42,0.035,0.784,0.095
1.43,-0.285,1.001,0.031
1.44,-0.333,0.87,-0.134
1.45,-0.183,1.039,-0.068
1.46,-0.081,1.136,0.063
1.47,-0.085,0.729,0.123
1.48,-0.328,1.072,-0.021
1.49,-0.315,0.839,-0.086
1.5,-0.181,1.192,-0.111
1.51,-0.164,0.825,0.104
1.52,-0.138,0.954,0.102
1.53,-0.32,0.976,-0.027
1.54,-0.202,0.975,-0.128
1.55,-0.222,1.088,-0.032
1.56,-0.038,0.715,0.077
1.57,-0.269,1.14,0.18
1.58,-0.259,0.874,-0.125
1.59,-0.336,1.083,-0.099
1.6,-0.206,0.885,-0.026
1.61,-0.107,1.002,0.206
1.62,-0.177,0.978,0.026
1.63,-0.301,0.81,-0.116
1.64,-0.242,1.105,-0.128
1.65,-0.136,0.932,0.078
1.66,-0.076,1.106,0.121
1.67,-0.17,0.733,0.013
1.68,-0.364,1.038,-0.139
1.69,-0.222,1.029,-0.041
1.7,-0.071,1.037,0.025
1.71,-0.148,0.941,0.144
1.72,-0.251,0.795,-0.013
1.73,-0.319,1.208,-0.106
1.74,-0.152,0.864,-0.09
1.75,-0.111,1.07,0.096
1.76,-0.146,0.779,0.139
1.77,-0.306,1.059,-0.034
1.78,-0.303,0.964,-0.168
1.79,-0.206,0.88,-0.039
1.8,-0.088,1.099,0.125
1.81,-0.176,0.764,0.096
1.82,-0.343,1.168,-0.037
1.83,-0.255,0.837,-0.143
1.84,-0.138,1.112,-0.063
1.85,-0.044,0.91,0.17
1.86,-0.145,0.89,0.036
1.87,-0.371,0.993,-0.071
1.88,-0.188,0.869,-0.095
1.89,-0.206,1.238,0.024
1.9,-0.096,0.735,0.134
1.91,-0.204,1.06,0.03
1.92,-0.28,0.833,-0.124
1.93,-0.194,1.067,-0.105
1.94,-0.099,1.045,0.081
1.95,-0.051,0.864,0.111
1.96,-0.247,0.913,-0.028
1.97,-0.372,0.907,-0.114
1.98,-0.211,1.148,-0.039
1.99,-0.032,0.833,0.053
2.0,-0.16,1.009,0.114
2.01,-0.33,0.809,-0.025
2.02,-0.267,1.184,-0.122
2.03,-0.135,0.905,-0.062
2.04,-0.121,0.947,0.096
2.05,-0.188,0.934,0.155
2.06,-0.311,0.939,-0.094
2.07,-0.288,1.119,-0.118
2.08,-0.158,0.849,-0.025
2.09,-0.131,1.1,0.146
2.1,-0.167,0.812,0.083
2.11,-0.353,1.038,-0.124
2.12,-0.24,0.916,-0.107
2.13,-0.147,1.095,0.041
2.14,-0.066,0.972,0.114
2.15,-0.185,0.742,0.012
2.16,-0.342,1.138,-0.111
2.17,-0.222,0.911,-0.073
2.18,-0.092,1.162,0.027
2.19,-0.128,0.743,0.165
2.2,-0.231,0.948,0.008
2.21,-0.349,1.093,-0.086
2.22,-0.126,0.978,-0.098
2.23,-0.161,1.023,0.06
2.24,-0.07,0.681,0.127
2.25,-0.372,1.184,-0.02
2.26,-0.297,0.824,-0.166
2.27,-0.199,1.081,-0.048
2.28,-0.039,0.893,0.073
2.29,-0.178,0.92,0.14
2.3,-0.336,1.045,-0.042
2.31,-0.226,0.862,-0.151
2.32,-0.228,1.109,-0.051
2.33,-0.074,0.783,0.149
2.34,-0.199,1.139,0.094
2.35,-0.288,0.833,-0.106
2.36,-0.256,0.996,-0.107
2.37,-0.138,1.038,-0.004
2.38,-0.071,0.93,0.167
2.39,-0.241,1.02,0.076
2.4,-0.284,0.771,-0.14
2.41,-0.243,1.183,-0.082
2.42,-0.135,0.948,0.045
2.43,-0.151,1.066,0.131
2.44,-0.148,0.814,0.024
2.45,-0.295,0.996,-0.115
2.46,-0.234,1.051,-0.054
2.47,-0.079,0.908,0.029
2.48,-0.132,0.983,0.174
2.49,-0.265,0.78,-0.035
2.5,-0.352,1.207,-0.083
2.51,-0.17,0.896,-0.115
2.52,-0.117,1.027,0.076
2.53,-0.076,0.829,0.132
2.54,-0.329,0.98,-0.032
2.55,-0.337,1.108,-0.119
2.56,-0.195,0.827,-0.073
2.57,-0.1,1.044,0.094
2.58,-0.233,0.797,0.153
2.59,-0.34,1.118,-0.117
2.6,-0.297,0.828,-0.154
2.61,-0.147,0.999,0.008
2.62,-0.161,0.962,0.152
2.63,-0.16,0.862,0.084
2.64,-0.363,1.051,-0.11
2.65,-0.174,0.774,-0.097
2.66,-0.241,1.253,0.07
2.67,-0.056,0.76,0.131
2.68,-0.167,1.022,0.028
2.69,-0.32,0.899,-0.11
2.7,-0.24,1.001,-0.071
2.71,-0.148,1.114,0.05
2.72,-0.014,0.765,0.143
2.73,-0.27,1.031,0.032
2.74,-0.323,0.804,-0.113
2.75,-0.182,1.196,-0.074
2.76,-0.118,0.873,0.038
2.77,-0.098,0.945,0.164
2.78,-0.235,0.937,-0.046
2.79,-0.334,1.119,-0.128
2.8,-0.23,0.958,-0.05
2.81,-0.044,0.888,0.115
2.82,-0.179,1.018,0.089
2.83,-0.302,0.893,-0.049
2.84,-0.358,1.118,-0.124
2.85,-0.126,0.84,-0.053
2.86,-0.127,1.118,0.142
2.87,-0.218,0.818,0.106
2.88,-0.316,0.992,-0.102
2.89,-0.287,0.999,-0.093
2.9,-0.158,0.951,0.008
2.91,-0.159,1.11,0.14
2.92,-0.161,0.783,0.039
2.93,-0.371,1.148,-0.099
2.94,-0.133,0.861,-0.099
2.95,-0.171,1.189,0.017
2.96,-0.068,0.866,0.136
2.97,-0.212,0.88,0.023
2.98,-0.303,1.008,-0.104
2.99,-0.181,0.919,-0.046
3.0,-0.119,1.239,0.03
3.01,-0.105,0.698,0.161
3.02,-0.284,1.076,0.003
3.03,-0.282,0.872,-0.134
3.04,-0.166,1.073,-0.113
3.05,-0.136,0.948,0.114
3.06,-0.084,0.837,0.14
3.07,-0.367,1.116,0.004
3.08,-0.29,0.818,-0.142
3.09,-0.218,1.126,-0.038
3.1,-0.076,0.835,0.087
3.11,-0.218,1.086,0.104
3.12,-0.303,0.908,-0.052
3.13,-0.25,0.965,-0.13
3.14,-0.212,1.042,-0.031
3.15,-0.098,0.844,0.138
3.16,-0.206,1.082,0.079
3.17,-0.295,0.827,-0.091
3.18,-0.251,1.1,-0.119
3.19,-0.141,0.928,-0.008
3.2,-0.147,1.067,0.14
3.21,-0.197,0.891,0.043
3.22,-0.283,0.954,-0.093
3.23,-0.22,1.092,-0.12
3.24,-0.15,0.903,0.034
3.25,-0.061,1.093,0.144
3.26,-0.155,0.763,0.005
3.27,-0.333,1.075,-0.141
3.28,-0.244,0.956,-0.034
3.29,-0.095,1.097,0.019
3.3,-0.1,0.854,0.138
3.31,-0.274,0.864,0.024
3.32,-0.312,1.09,-0.141
3.33,-0.163,0.893,-0.067
3.34,-0.067,1.145,0.059
3.35,-0.07,0.655,0.094
3.36,-0.338,1.085,-0.02
3.37,-0.345,0.984,-0.11
3.38,-0.138,1.014,-0.086
3.39,-0.073,0.966,0.115
3.4,-0.162,0.77,0.105
3.41,-0.383,1.164,-0.03
3.42,-0.186,0.832,-0.14
3.43,-0.249,1.161,-0.032
3.44,-0.089,0.769,0.125
3.45,-0.183,1.015,0.108
3.46,-0.268,1.003,-0.115
3.47,-0.281,0.857,-0.108
3.48,-0.193,1.134,0.01
3.49,-0.071,0.852,0.144
3.5,-0.24,1.065,0.029
3.51,-0.295,0.76,-0.108
3.52,-0.288,1.171,-0.063
3.53,-0.066,0.963,0.017
3.54,-0.054,0.906,0.14
3.55,-0.219,0.967,0.054
3.56,-0.342,0.858,-0.122
3.57,-0.24,1.129,-0.072
3.58,-0.055,0.897,0.051
3.59,-0.128,1.061,0.122
3.6,-0.258,0.803,-0.002
3.61,-0.346,1.176,-0.101
3.62,-0.157,0.841,-0.072
3.63,-0.094,1.022,0.101
3.64,-0.149,0.869,0.127
3.65,-0.298,1.01,-0.054
3.66,-0.329,1.058,-0.128
3.67,-0.153,0.847,-0.054
3.68,-0.12,1.083,0.125
3.69,-0.184,0.779,0.114
3.7,-0.34,1.139,-0.1
3.71,-0.261,0.848,-0.123
3.72,-0.152,1.04,-0.013
3.73,-0.126,0.956,0.17
3.74,-0.157,0.847,0.046
3.75,-0.378,1.08,-0.086
3.76,-0.173,0.775,-0.11
3.77,-0.22,1.276,0.069
3.78,-0.017,0.785,0.114
3.79,-0.24,1.006,0.035
3.8,-0.333,0.863,-0.138
3.81,-0.242,1.011,-0.03
3.82,-0.096,1.112,0.026
3.83,-0.069,0.773,0.16
3.84,-0.282,1.057,-0.001
3.85,-0.35,0.808,-0.109
3.86,-0.172,1.186,-0.091
3.87,-0.052,0.881,0.059
3.88,-0.135,0.956,0.142
3.89,-0.332,0.958,-0.015
3.9,-0.252,0.933,-0.136
3.91,-0.23,1.064,-0.05
3.92,-0.051,0.806,0.095
3.93,-0.226,1.126,0.13
3.94,-0.29,0.864,-0.067
3.95,-0.311,1.084,-0.124
3.96,-0.172,0.866,-0.035
3.97,-0.081,0.997,0.125
3.98,-0.234,0.994,0.105
3.99,-0.282,0.899,-0.095
4.0,-0.274,1.073,-0.094
4.01,-0.124,0.854,0.009
4.02,-0.141,1.14,0.135
4.03,-0.158,0.763,0.064
4.04,-0.348,1.081,-0.091
4.05,-0.205,0.932,-0.119
4.06,-0.226,1.03,0.033
4.07,-0.081,1.042,0.145
4.08,-0.23,0.804,0.037
4.09,-0.329,1.078,-0.136
4.1,-0.205,0.856,-0.053
4.11,-0.082,1.257,0.059
4.12,-0.065,0.75,0.118
4.13,-0.284,0.974,0.024
4.14,-0.326,0.971,-0.127
4.15,-0.22,0.97,-0.049
4.16,-0.091,1.125,0.069
4.17,-0.105,0.687,0.127
4.18,-0.336,1.105,-0.039
4.19,-0.302,0.864,-0.137
4.2,-0.157,1.121,-0.041
4.21,-0.119,0.843,0.12
4.22,-0.157,0.853,0.099
4.23,-0.346,1.063,-0.044
4.24,-0.291,0.866,-0.146
4.25,-0.195,1.095,-0.008
4.26,-0.053,0.79,0.123
4.27,-0.238,1.041,0.087
4.28,-0.281,0.887,-0.075
4.29,-0.27,1.089,-0.09
4.3,-0.151,0.966,-0.05
4.31,-0.064,0.89,0.174
4.32,-0.166,1.068,0.049
4.33,-0.352,0.81,-0.109
4.34,-0.239,1.115,-0.125
4.35,-0.16,0.956,0.098
4.36,0.011,1.082,0.097
4.37,-0.299,0.853,0.036
4.38,-0.359,0.931,-0.131
4.39,-0.204,1.08,-0.042
4.4,-0.005,0.952,0.034
4.41,-0.171,0.994,0.131
4.42,-0.292,0.815,0.006
4.43,-0.317,1.162,-0.12
4.44,-0.177,0.811,-0.065
4.45,-0.194,1.11,0.114
4.46,-0.12,0.732,0.091
4.47,-0.333,1.108,-0.076
4.48,-0.255,0.907,-0.143
4.49,-0.148,0.973,-0.036
4.5,-0.122,1.044,0.164
4.51,-0.144,0.815,0.071
4.52,-0.333,1.121,-0.106
4.53,-0.242,0.775,-0.11
4.54,-0.201,1.231,0.053
4.55,-0.012,0.84,0.122
4.56,-0.212,0.951,0.039
4.57,-0.33,0.943,-0.119
4.58,-0.245,0.981,-0.047
4.59,-0.053,1.185,-0.017
4.6,-0.052,0.704,0.124
4.61,-0.279,1.049,0.015
4.62,-0.375,0.833,-0.102
4.63,-0.172,1.136,-0.061
4.64,-0.067,0.926,0.073
4.65,-0.151,0.894,0.108
4.66,-0.327,1.023,0.016
4.67,-0.301,0.876,-0.112
4.68,-0.185,1.107,-0.043
4.69,-0.084,0.788,0.086
4.7,-0.207,1.062,0.128
4.71,-0.323,0.863,-0.042
4.72,-0.277,1.098,-0.126
4.73,-0.154,0.95,-0.056
4.74,-0.118,0.879,0.118
4.75,-0.252,1.017,0.112
4.76,-0.28,0.883,-0.085
4.77,-0.27,1.139,-0.1
4.78,-0.135,0.869,-0.007
4.79,-0.104,1.088,0.162
4.8,-0.158,0.87,0.055
4.81,-0.327,0.987,-0.142
4.82,-0.24,1.001,-0.115
4.83,-0.148,1.011,0.048
4.84,-0.036,1.061,0.118
4.85,-0.241,0.746,0.001
4.86,-0.353,1.108,-0.127
4.87,-0.238,0.906,-0.019
4.88,-0.036,1.152,0.041
4.89,-0.131,0.822,0.162
4.9,-0.295,0.944,-0.042
4.91,-0.367,1.042,-0.088
4.92,-0.142,0.911,-0.085
4.93,-0.15,1.077,0.092
4.94,-0.131,0.675,0.132
4.95,-0.375,1.175,-0.034
4.96,-0.21,0.884,-0.159
4.97,-0.201,1.025,-0.048
4.98,-0.104,0.902,0.115
4.99,-0.18,0.86,0.116
5.0,-0.335,1.164,-0.103
5.01,-0.273,0.822,-0.113
5.02,-0.198,1.192,-0.018
5.03,-0.103,0.823,0.169
5.04,-0.194,1.026,0.052
5.05,-0.288,0.844,-0.111
5.06,-0.278,0.96,-0.106
5.07,-0.138,1.092,0.054
5.08,0.009,0.831,0.131
5.09,-0.275,1.031,0.04
5.1,-0.337,0.796,-0.133
5.11,-0.267,1.206,-0.035
5.12,-0.052,0.946,0.023
5.13,-0.114,0.986,0.123
5.14,-0.219,0.897,-0.013
5.15,-0.369,1.004,-0.099
5.16,-0.153,1.122,-0.105
5.17,-0.066,0.841,0.06
5.18,-0.144,1.06,0.126
5.19,-0.35,0.859,-0.021
5.2,-0.314,1.143,-0.115
5.21,-0.17,0.889,-0.061
5.22,-0.123,0.961,0.098
5.23,-0.168,0.969,0.134
5.24,-0.302,0.95,-0.107
5.25,-0.246,0.928,-0.122
5.26,-0.165,0.969,0.009
5.27,-0.076,1.093,0.129
5.28,-0.119,0.739,0.054
5.29,-0.359,1.145,-0.101
5.3,-0.282,0.903,-0.075
5.31,-0.12,1.19,0.02
5.32,-0.09,0.827,0.109
5.33,-0.244,0.878,0.044
5.34,-0.278,1.062,-0.122
5.35,-0.278,0.938,-0.079
5.36,-0.074,1.111,0.05
5.37,-0.051,0.669,0.147
5.38,-0.275,1.091,0.003
5.39,-0.334,0.905,-0.09
5.4,-0.184,1.072,-0.147
5.41,-0.091,0.947,0.082
5.42,-0.105,0.837,0.097
5.43,-0.382,1.078,0.011
5.44,-0.284,0.861,-0.096
5.45,-0.249,1.131,-0.061
5.46,-0.094,0.752,0.083
5.47,-0.217,1.024,0.118
5.48,-0.31,0.925,-0.062
5.49,-0.24,0.998,-0.15
5.5,-0.165,1.008,-0.064
5.51,-0.116,0.818,0.15
5.52,-0.257,1.059,0.123
5.53,-0.298,0.844,-0.053
5.54,-0.264,1.168,-0.114
5.55,-0.178,0.854,0.003
5.56,-0.101,1.025,0.166
5.57,-0.212,0.927,0.07
5.58,-0.235,0.933,-0.143
5.59,-0.249,1.037,-0.09
5.6,-0.144,0.877,0.04
5.61,-0.136,1.162,0.174
5.62,-0.127,0.739,-0.012
5.63,-0.429,1.073,-0.106
5.64,-0.223,0.875,-0.075
5.65,-0.115,1.144,0.066
5.66,-0.084,0.873,0.127
5.67,-0.242,0.834,-0.017
5.68,-0.377,1.106,-0.124
5.69,-0.141,0.876,-0.082
5.7,-0.135,1.119,0.075
5.71,-0.105,0.696,0.142
5.72,-0.353,1.105,-0.041
5.73,-0.312,0.928,-0.117
5.74,-0.205,0.975,-0.075
5.75,-0.087,0.986,0.079
5.76,-0.149,0.776,0.11
5.77,-0.371,1.152,-0.062
5.78,-0.215,0.79,-0.118
5.79,-0.179,1.166,-0.011
5.8,-0.095,0.835,0.147
5.81,-0.224,0.982,0.075
5.82,-0.33,0.984,-0.085
5.83,-0.216,0.909,-0.108
5.84,-0.177,1.134,-0.015
5.85,-0.07,0.797,0.163
5.86,-0.204,1.092,0.057
5.87,-0.352,0.77,-0.119
5.88,-0.252,1.116,-0.086
5.89,-0.153,1.032,0.081
5.9,-0.045,0.964,0.101
5.91,-0.253,0.943,0.015
5.92,-0.284,0.859,-0.126
5.93,-0.203,1.208,-0.038
5.94,-0.071,0.842,0.046
5.95,-0.154,1.01,0.154
5.96,-0.297,0.846,-0.029
5.97,-0.365,1.1,-0.1
5.98,-0.142,0.962,-0.084
5.99,-0.154,0.95,0.107
6.0,-0.156,0.945,0.099
6.01,-0.273,0.912,-0.051
6.02,-0.325,1.153,-0.152
6.03,-0.161,0.791,-0.019
6.04,-0.104,1.115,0.101
6.05,-0.197,0.808,0.115
6.06,-0.299,1.033,-0.093
6.07,-0.268,0.963,-0.113
6.08,-0.176,1.092,0.036
6.09,-0.1,0.937,0.16
6.1,-0.166,0.808,0.032
6.11,-0.362,1.069,-0.099
6.12,-0.236,0.844,-0.067
6.13,-0.112,1.292,0.034
6.14,0.009,0.734,0.128
6.15,-0.324,1.005,0.025
6.16,-0.356,0.9,-0.086
6.17,-0.119,1.062,-0.101
6.18,-0.133,1.037,0.031
6.19,-0.103,0.727,0.141
6.2,-0.325,1.095,0.003
6.21,-0.28,0.813,-0.151
6.22,-0.22,1.125,-0.08
6.23,-0.116,0.849,0.138
6.24,-0.146,0.96,0.082
6.25,-0.314,0.989,-0.061
6.26,-0.326,0.985,-0.135
6.27,-0.176,1.048,-0.056
6.28,-0.071,0.766,0.142
6.29,-0.19,1.082,0.117
6.3,-0.281,0.826,-0.108
6.31,-0.312,1.107,-0.1
6.32,-0.164,0.92,-0.053
6.33,-0.134,0.962,0.134
6.34,-0.217,0.987,0.077
6.35,-0.312,0.879,-0.111
6.36,-0.208,1.068,-0.118
6.37,-0.179,0.923,0.046
6.38,-0.035,1.103,0.13
6.39,-0.172,0.796,0.02
6.4,-0.348,1.018,-0.093
6.41,-0.253,0.985,-0.07
6.42,-0.11,1.063,0.043
6.43,-0.114,0.958,0.105
6.44,-0.258,0.81,-0.012
6.45,-0.362,1.118,-0.127
6.46,-0.177,0.895,-0.035
6.47,-0.077,1.138,0.049
6.48,-0.106,0.722,0.123
6.49,-0.348,1.007,-0.062
6.5,-0.361,1.028,-0.092
6.51,-0.085,0.95,-0.067
6.52,-0.138,1.078,0.123
6.53,-0.172,0.698,0.126
6.54,-0.351,1.191,-0.056
6.55,-0.241,0.875,-0.142
6.56,-0.236,1.082,-0.04
6.57,-0.116,0.838,0.187
6.58,-0.182,0.916,0.089
6.59,-0.331,0.998,-0.099
6.6,-0.23,0.828,-0.121
6.61,-0.205,1.247,0.063
6.62,0.023,0.757,0.108
6.63,-0.289,1.077,0.042
6.64,-0.351,0.811,-0.108
6.65,-0.243,1.092,-0.087
6.66,-0.143,1.042,0.074
6.67,-0.026,0.834,0.099
6.68,-0.293,1.038,-0.002
6.69,-0.312,0.829,-0.106
6.7,-0.235,1.157,-0.061
6.71,-0.05,0.866,0.085
6.72,-0.121,1.018,0.11
6.73,-0.322,0.873,-0.006
6.74,-0.312,1.03,-0.135
6.75,-0.188,1.034,-0.056
6.76,-0.088,0.876,0.104
6.77,-0.189,1.021,0.115
6.78,-0.312,0.816,-0.099
6.79,-0.323,1.137,-0.064
6.8,-0.105,0.879,-0.046
6.81,-0.133,1.041,0.178
6.82,-0.199,0.88,0.057
6.83,-0.386,0.976,-0.09
6.84,-0.194,1.03,-0.131
6.85,-0.151,0.936,0.023
6.86,-0.096,1.071,0.151
6.87,-0.188,0.761,0.018
6.88,-0.359,1.096,-0.125
6.89,-0.209,0.913,-0.047
6.9,-0.125,1.225,0.096
6.91,-0.096,0.724,0.1
6.92,-0.325,1.0,-0.021
6.93,-0.323,0.992,-0.097
6.94,-0.144,0.962,-0.13
6.95,-0.167,1.042,0.103
6.96,-0.142,0.72,0.102
6.97,-0.359,1.155,-0.068
6.98,-0.237,0.814,-0.131
6.99,-0.185,1.122,-0.033
7.0,-0.061,0.844,0.135
7.01,-0.198,0.941,0.11
7.02,-0.318,1.033,-0.126
7.03,-0.264,0.813,-0.123
7.04,-0.171,1.218,0.05
7.05,0.006,0.781,0.123
7.06,-0.278,1.055,0.047
7.07,-0.298,0.843,-0.107
7.08,-0.229,1.092,-0.092
7.09,-0.108,1.029,0.061
7.1,-0.027,0.853,0.12
7.11,-0.323,1.043,0.008
7.12,-0.33,0.813,-0.11
7.13,-0.213,1.212,-0.064
7.14,-0.105,0.818,0.086
7.15,-0.142,1.023,0.114
7.16,-0.3,0.923,-0.028
7.17,-0.267,1.065,-0.113
7.18,-0.197,0.992,-0.074
7.19,-0.077,0.811,0.107
7.2,-0.219,1.073,0.138
7.21,-0.252,0.832,-0.105
7.22,-0.37,1.099,-0.085
7.23,-0.102,0.843,-0.008
7.24,-0.125,1.091,0.17
7.25,-0.164,0.891,0.072
7.26,-0.32,0.989,-0.131
7.27,-0.187,1.043,-0.115
7.28,-0.176,0.948,0.034
7.29,-0.037,1.095,0.125
7.3,-0.158,0.769,0.027
7.31,-0.389,1.091,-0.119
7.32,-0.26,0.907,-0.038
7.33,-0.075,1.139,0.022
7.34,-0.132,0.892,0.124
7.35,-0.257,0.835,0.003
7.36,-0.343,1.134,-0.137
7.37,-0.113,0.897,-0.1
7.38,-0.113,1.085,0.07
7.39,-0.077,0.667,0.123
7.4,-0.401,1.125,0.003
7.41,-0.243,0.933,-0.131
7.42,-0.216,0.972,-0.041
7.43,-0.091,0.958,0.11
7.44,-0.154,0.817,0.127
7.45,-0.358,1.189,-0.094
7.46,-0.217,0.792,-0.137
7.47,-0.21,1.182,-0.039
7.48,-0.091,0.873,0.173
7.49,-0.171,0.992,0.068
7.5,-0.313,0.91,-0.109
7.51,-0.26,0.936,-0.072
7.52,-0.147,1.226,0.045
7.53,0.016,0.754,0.097
7.54,-0.305,1.071,0.064
7.55,-0.291,0.794,-0.137
7.56,-0.238,1.181,-0.074
7.57,-0.087,0.946,0.038
7.58,-0.086,0.919,0.175
7.59,-0.268,0.949,-0.026
7.6,-0.361,0.909,-0.088
7.61,-0.203,1.188,-0.079
7.62,-0.069,0.799,0.102
7.63,-0.16,1.055,0.108
7.64,-0.338,0.878,-0.02
7.65,-0.298,1.116,-0.139
7.66,-0.132,0.964,-0.071
7.67,-0.095,0.909,0.101
7.68,-0.248,0.978,0.134
7.69,-0.312,0.904,-0.027
7.7,-0.314,1.138,-0.138
7.71,-0.189,0.812,-0.061
7.72,-0.084,1.108,0.148
7.73,-0.158,0.753,0.024
7.74,-0.346,1.092,-0.106
7.75,-0.21,0.906,-0.094
7.76,-0.082,1.154,0.034
7.77,-0.122,0.911,0.157
7.78,-0.183,0.819,-0.016
7.79,-0.402,1.124,-0.096
7.8,-0.215,0.937,-0.058
7.81,-0.139,1.173,0.011
7.82,-0.101,0.689,0.154
7.83,-0.29,1.048,-0.02
7.84,-0.318,0.968,-0.105
7.85,-0.156,0.976,-0.147
7.86,-0.092,0.983,0.12
7.87,-0.141,0.785,0.134
7.88,-0.306,1.142,-0.015
7.89,-0.316,0.839,-0.165
7.9,-0.264,1.07,-0.064
7.91,-0.108,0.803,0.109
7.92,-0.204,1.039,0.175
7.93,-0.278,0.962,-0.096
7.94,-0.26,0.877,-0.16
7.95,-0.2,1.06,-0.021
7.96,-0.102,0.825,0.151
7.97,-0.205,1.125,0.106
7.98,-0.237,0.781,-0.155
7.99,-0.311,1.062,-0.095
8.0,-0.194,1.002,0.042
8.01,-0.07,0.984,0.119
8.02,-0.241,0.954,0.082
8.03,-0.254,0.871,-0.088
8.04,-0.24,1.148,-0.108
8.05,-0.181,0.908,0.077
8.06,-0.061,1.086,0.109
8.07,-0.142,0.78,-0.001
8.08,-0.359,1.067,-0.115
8.09,-0.196,1.004,-0.064
8.1,-0.136,0.978,0.058
8.11,-0.107,0.919,0.125
8.12,-0.278,0.868,-0.001
8.13,-0.386,1.164,-0.153
8.14,-0.175,0.846,-0.052
8.15,-0.049,1.133,0.053
8.16,-0.157,0.772,0.105
8.17,-0.385,1.013,-0.025
8.18,-0.283,1.039,-0.108
8.19,-0.15,0.899,-0.097
8.2,-0.123,1.013,0.112
8.21,-0.158,0.767,0.119
8.22,-0.406,1.197,-0.076
8.23,-0.213,0.787,-0.133
8.24,-0.219,1.149,-0.024
8.25,-0.12,0.889,0.162
8.26,-0.142,0.913,0.095
8.27,-0.329,1.025,-0.08
8.28,-0.192,0.861,-0.102
8.29,-0.211,1.242,0.032
8.3,-0.038,0.758,0.131
8.31,-0.284,1.066,0.054
8.32,-0.281,0.817,-0.15
8.33,-0.239,1.128,-0.06
8.34,-0.067,1.059,0.007
8.35,-0.089,0.816,0.144
8.36,-0.228,0.998,0.011
8.37,-0.305,0.908,-0.057
8.38,-0.171,1.19,-0.126
8.39,-0.144,0.79,0.058
8.4,-0.158,1.039,0.165
8.41,-0.28,0.901,-0.053
8.42,-0.408,1.018,-0.122
8.43,-0.197,1.002,-0.084
8.44,-0.039,0.854,0.095
8.45,-0.171,1.038,0.137
8.46,-0.293,0.837,-0.047
8.47,-0.349,1.106,-0.147
8.48,-0.132,0.833,-0.007
8.49,-0.097,1.105,0.11
8.5,-0.248,0.887,0.086
8.51,-0.306,1.0,-0.054
8.52,-0.255,1.064,-0.125
8.53,-0.172,0.868,0.014
8.54,-0.057,1.042,0.156
8.55,-0.13,0.804,-0.001
8.56,-0.402,1.065,-0.094
8.57,-0.192,0.835,-0.11
8.58,-0.166,1.275,0.06
8.59,-0.057,0.774,0.121
8.6,-0.292,0.948,0.025
8.61,-0.321,0.968,-0.141
8.62,-0.174,1.019,-0.013
8.63,-0.04,1.132,0.006
8.64,-0.136,0.674,0.136
8.65,-0.296,1.095,-0.032
8.66,-0.341,0.895,-0.071
8.67,-0.133,1.11,-0.125
8.68,-0.143,0.867,0.121
8.69,-0.13,0.917,0.082
8.7,-0.417,1.071,-0.009
8.71,-0.208,0.875,-0.117
8.72,-0.191,1.146,-0.035
8.73,-0.036,0.766,0.135
8.74,-0.234,1.072,0.124
8.75,-0.336,0.863,-0.091
8.76,-0.25,0.977,-0.124
8.77,-0.164,1.029,-0.009
8.78,-0.092,0.93,0.134
8.79,-0.219,1.022,0.077
8.8,-0.335,0.82,-0.079
8.81,-0.195,1.127,-0.096
8.82,-0.175,0.946,0.073
8.83,-0.084,1.055,0.103
8.84,-0.184,0.827,0.025
8.85,-0.324,0.975,-0.156
8.86,-0.213,1.119,-0.079
8.87,-0.08,0.933,0.035
8.88,-0.151,0.995,0.146
8.89,-0.255,0.824,0.016
8.9,-0.358,1.182,-0.133
8.91,-0.215,0.816,-0.066
8.92,-0.095,1.023,0.083
8.93,-0.14,0.844,0.12
8.94,-0.334,0.964,-0.042
8.95,-0.292,1.052,-0.151
8.96,-0.191,0.855,-0.019
8.97,-0.087,1.089,0.114
8.98,-0.198,0.757,0.13
8.99,-0.325,1.104,-0.099
9.0,-0.306,0.85,-0.096
9.01,-0.098,1.051,-0.031
9.02,-0.109,0.984,0.137
9.03,-0.257,0.852,0.079
9.04,-0.311,1.083,-0.091
9.05,-0.2,0.824,-0.099
9.06,-0.177,1.225,0.046
9.07,-0.048,0.79,0.149
9.08,-0.204,1.006,0.027
9.09,-0.298,0.874,-0.15
9.1,-0.279,1.013,-0.044
9.11,-0.104,1.133,0.022
9.12,-0.079,0.781,0.139
9.13,-0.271,1.062,-0.002
9.14,-0.327,0.815,-0.085
9.15,-0.176,1.181,-0.077
9.16,-0.102,0.897,0.06
9.17,-0.168,0.957,0.125
9.18,-0.317,0.978,0.019
9.19,-0.264,0.948,-0.148
9.2,-0.276,1.045,-0.061
9.21,-0.077,0.791,0.069
9.22,-0.204,1.15,0.143
9.23,-0.313,0.852,-0.052
9.24,-0.236,1.078,-0.145
9.25,-0.17,0.924,-0.02
9.26,-0.104,0.996,0.133
9.27,-0.229,0.956,0.068
9.28,-0.292,0.892,-0.082
9.29,-0.266,1.079,-0.127
9.3,-0.219,0.894,0.027
9.31,-0.086,1.13,0.163
9.32,-0.141,0.797,0.041
9.33,-0.371,1.016,-0.113
9.34,-0.241,0.96,-0.091
9.35,-0.072,1.065,0.032
9.36,-0.09,0.963,0.102
9.37,-0.247,0.889,0.038
9.38,-0.381,1.083,-0.142
9.39,-0.169,0.894,-0.088
9.4,-0.104,1.145,0.033
9.41,-0.087,0.665,0.155
9.42,-0.379,1.128,-0.014
9.43,-0.266,0.903,-0.122
9.44,-0.227,1.017,-0.064
9.45,-0.053,0.916,0.069
9.46,-0.208,0.85,0.15
9.47,-0.309,1.12,-0.075
9.48,-0.257,0.776,-0.112
9.49,-0.2,1.137,-0.067
9.5,-0.136,0.827,0.172
9.51,-0.181,1.055,0.08
9.52,-0.274,0.929,-0.084
9.53,-0.232,0.925,-0.111
9.54,-0.168,1.102,-0.057
9.55,-0.13,0.878,0.171
9.56,-0.196,1.053,0.052
9.57,-0.269,0.777,-0.124
9.58,-0.296,1.148,-0.076
9.59,-0.215,0.922,0.015
9.6,-0.391,1.021,-0.106
9.61,-0.159,1.078,-0.078
9.62,-0.104,0.902,0.068
9.63,-0.139,0.983,0.137
9.64,-0.323,0.846,0.004
9.65,-0.36,1.19,-0.112
9.66,-0.158,0.862,-0.094
9.67,-0.088,1.034,0.092
9.68,-0.148,0.867,0.104
9.69,-0.356,1.001,-0.02
9.7,-0.263,1.072,-0.146
9.71,-0.215,0.85,-0.027
9.72,-0.122,1.097,0.125
9.73,-0.18,0.821,0.098
9.74,-0.359,1.123,-0.089
9.75,-0.275,0.831,-0.101
9.76,-0.135,1.076,0.005
9.77,-0.114,0.995,0.126
9.78,-0.191,0.823,0.044
9.79,-0.312,1.077,-0.09
9.8,-0.23,0.861,-0.095
9.81,-0.197,1.255,0.068
9.82,-0.048,0.777,0.121
9.83,-0.183,1.01,0.034
9.84,-0.329,0.882,-0.16
9.85,-0.207,1.042,-0.048
9.86,-0.139,1.128,0.032
9.87,-0.064,0.752,0.14
9.88,-0.318,1.083,0.012
9.89,-0.34,0.823,-0.112
9.9,-0.194,1.209,-0.048
9.91,-0.06,0.892,0.052
9.92,-0.174,0.932,0.131
9.93,-0.336,0.971,-0.02
9.94,-0.217,0.958,-0.132
9.95,-0.202,1.078,-0.053
9.96,-0.089,0.733,0.108
9.97,-0.245,1.115,0.138
9.98,-0.251,0.873,-0.119
9.99,-0.333,1.063,-0.128
10.0,-0.222,0.906,0.001
10.01,-0.009,0.973,0.148
10.02,-0.174,0.931,0.044
10.03,-0.314,0.846,-0.103
10.04,-0.282,1.145,-0.105
10.05,-0.133,0.909,0.046
10.06,-0.047,1.068,0.114
10.07,-0.172,0.778,0.023
10.08,-0.395,1.071,-0.111
10.09,-0.271,1.017,-0.032
10.1,-0.017,1.026,0.019
10.11,-0.149,0.988,0.14
10.12,-0.286,0.901,-0.002
10.13,-0.332,1.139,-0.085
10.14,-0.064,0.894,-0.108
10.15,-0.118,1.092,0.079
10.16,-0.133,0.725,0.133
10.17,-0.334,1.2,-0.008
10.18,-0.281,0.872,-0.202
10.19,-0.234,0.933,-0.034
10.2,-0.104,0.981,0.12
10.21,-0.176,0.838,0.142
10.22,-0.361,1.143,-0.071
10.23,-0.218,0.788,-0.117
10.24,-0.216,1.217,-0.007
10.25,-0.057,0.774,0.12
10.26,-0.202,1.058,0.068
10.27,-0.371,0.91,-0.104
10.28,-0.233,0.968,-0.112
10.29,-0.154,1.123,0.028
10.3,-0.061,0.789,0.173
10.31,-0.207,1.049,0.016
10.32,-0.334,0.803,-0.105
10.33,-0.21,1.168,-0.088
10.34,-0.083,0.929,0.034
10.35,-0.104,0.994,0.17
10.36,-0.215,0.93,-0.068
10.37,-0.369,0.927,-0.108
10.38,-0.168,1.138,-0.084
10.39,-0.084,0.806,0.091
10.4,-0.174,1.041,0.108
10.41,-0.261,0.865,-0.019
10.42,-0.344,1.123,-0.158
10.43,-0.166,0.835,-0.066
10.44,-0.114,0.978,0.141
10.45,-0.24,1.003,0.106
10.46,-0.257,0.86,-0.097
10.47,-0.283,1.111,-0.091
10.48,-0.129,0.848,0.007
10.49,-0.124,1.098,0.164
10.5,-0.183,0.807,0.078
10.51,-0.305,1.064,-0.121
10.52,-0.233,0.985,-0.102
10.53,-0.168,1.036,0.039
10.54,-0.076,0.999,0.141
10.55,-0.203,0.801,0.013
10.56,-0.382,1.133,-0.14
10.57,-0.203,0.862,-0.073
10.58,-0.137,1.198,0.071
10.59,-0.065,0.779,0.143
10.6,-0.337,0.941,-0.005
10.61,-0.284,0.999,-0.109
10.62,-0.155,0.976,-0.078
10.63,-0.089,1.104,0.076
10.64,-0.118,0.651,0.081
10.65,-0.336,1.138,-0.044
10.66,-0.302,0.885,-0.1
10.67,-0.146,1.109,-0.05
10.68,-0.132,0.842,0.129
10.69,-0.172,0.857,0.093
10.7,-0.306,1.072,-0.063
10.71,-0.244,0.883,-0.126
10.72,-0.167,1.106,-0.023
10.73,-0.094,0.754,0.177
10.74,-0.222,1.104,0.077
10.75,-0.292,0.879,-0.119
10.76,-0.214,0.987,-0.112
10.77,-0.141,0.985,0.027
10.78,-0.093,0.883,0.185
10.79,-0.324,1.053,-0.003
10.8,-0.392,0.751,-0.136
10.81,-0.208,1.214,-0.051
10.82,0.016,0.953,0.06
10.83,-0.172,0.927,0.134
10.84,-0.235,0.848,-0.025
10.85,-0.279,1.069,-0.104
10.86,-0.182,1.098,-0.081
10.87,-0.126,0.781,0.107
10.88,-0.252,1.045,0.122
10.89,-0.299,0.865,-0.063
10.9,-0.27,1.193,-0.121
10.91,-0.24,0.841,-0.034
10.92,-0.086,0.962,0.189
10.93,-0.123,0.963,0.078
10.94,-0.293,1.009,-0.163
10.95,-0.273,1.026,-0.065
10.96,-0.105,1.006,0.035
10.97,-0.081,0.981,0.148
10.98,-0.258,0.781,0.005
10.99,-0.384,1.189,-0.118
11.0,-0.175,0.886,-0.05
11.01,-0.102,1.106,0.049
11.02,-0.136,0.714,0.157
11.03,-0.317,0.99,-0.038
11.04,-0.338,1.106,-0.14
11.05,-0.135,0.874,-0.081
11.06,-0.167,1.04,0.14
11.07,-0.109,0.751,0.131
11.08,-0.376,1.152,-0.092
11.09,-0.314,0.817,-0.111
11.1,-0.165,1.096,-0.027
11.11,-0.132,0.908,0.163
11.12,-0.173,0.866,0.061
11.13,-0.367,1.071,-0.103
11.14,-0.157,0.829,-0.113
11.15,-0.191,1.285,0.047
11.16,-0.016,0.75,0.116
11.17,-0.265,1.029,0.053
11.18,-0.253,0.826,-0.153
11.19,-0.23,1.119,-0.065
11.2,-0.156,1.014,0.042
11.21,-0.113,0.77,0.156
11.22,-0.291,1.085,-0.031
11.23,-0.282,0.856,-0.094
11.24,-0.196,1.167,-0.056
11.25,-0.088,0.793,0.106
11.26,-0.139,1.025,0.129
11.27,-0.329,0.962,-0.081
11.28,-0.291,0.947,-0.151
11.29,-0.181,1.02,-0.055
11.3,-0.069,0.83,0.16
11.31,-0.242,1.129,0.106
11.32,-0.266,0.834,-0.14
11.33,-0.268,1.121,-0.115
11.34,-0.232,0.945,0.032
11.35,-0.014,0.992,0.123
11.36,-0.208,0.95,0.065
11.37,-0.273,0.897,-0.161
11.38,-0.281,1.163,-0.035
11.39,-0.069,0.879,0.013
11.4,-0.134,1.027,0.176
11.41,-0.251,0.762,-0.008
11.42,-0.344,1.108,-0.135
11.43,-0.215,0.955,-0.068
11.44,-0.079,0.972,0.067
11.45,-0.153,0.855,0.115
11.46,-0.336,0.886,-0.037
11.47,-0.262,1.201,-0.14
11.48,-0.178,0.835,-0.039
11.49,-0.096,1.045,0.139
11.5,-0.194,0.842,0.112
11.51,-0.31,1.069,-0.108
11.52,-0.245,0.921,-0.142
11.53,-0.207,0.983,0.005
11.54,-0.082,1.039,0.178
11.55,-0.162,0.808,0.049
11.56,-0.342,1.116,-0.113
11.57,-0.258,0.846,-0.088
11.58,-0.166,1.236,0.048
11.59,-0.002,0.799,0.117
11.6,-0.3,0.931,0.002
11.61,-0.321,0.98,-0.144
11.62,-0.15,0.984,-0.09
11.63,-0.104,1.1,0.065
11.64,-0.119,0.679,0.144
11.65,-0.33,1.125,-0.036
11.66,-0.263,0.873,-0.098
11.67,-0.199,1.15,-0.057
11.68,-0.139,0.864,0.101
11.69,-0.226,0.878,0.15
11.7,-0.288,1.095,-0.079
11.71,-0.194,0.868,-0.136
11.72,-0.249,1.171,0.013
11.73,-0.055,0.767,0.181
11.74,-0.171,1.082,0.076
11.75,-0.312,0.846,-0.127
11.76,-0.215,1.138,-0.093
11.77,-0.12,0.982,0.046
11.78,-0.082,0.955,0.127
11.79,-0.301,0.949,-0.008
11.8,-0.314,0.894,-0.097
11.81,-0.202,1.163,-0.059
11.82,-0.087,0.808,0.063
11.83,-0.186,1.009,0.139
11.84,-0.278,0.827,-0.045
11.85,-0.313,1.14,-0.139
11.86,-0.17,0.911,-0.055
11.87,-0.064,0.929,0.092
11.88,-0.205,0.955,0.119
11.89,-0.328,0.871,-0.07
11.9,-0.289,1.137,-0.096
11.91,-0.14,0.879,-0.012
11.92,-0.1,1.058,0.169
11.93,-0.188,0.823,0.045
11.94,-0.339,1.07,-0.118
11.95,-0.194,0.954,-0.125
11.96,-0.122,1.015,0.028
11.97,-0.109,1.034,0.163
11.98,-0.193,0.796,-0.011
11.99,-0.416,1.113,-0.141
12.0,-0.255,0.816,-0.051
12.01,-0.109,1.212,0.133
12.02,-0.099,0.777,0.107
12.03,-0.339,0.966,-0.02
12.04,-0.341,1.001,-0.141
12.05,-0.112,0.963,-0.042
12.06,-0.137,1.104,0.103
12.07,-0.157,0.685,0.101
12.08,-0.379,1.179,-0.044
12.09,-0.173,0.926,-0.162
12.1,-0.199,1.088,-0.044
12.11,-0.129,0.799,0.194
12.12,-0.167,0.925,0.091
12.13,-0.353,1.082,-0.123
12.14,-0.289,0.812,-0.103
12.15,-0.118,1.232,0.037
12.16,-0.05,0.733,0.139
12.17,-0.28,1.053,0.004
12.18,-0.328,0.874,-0.092
12.19,-0.183,1.063,-0.098
12.2,-0.112,0.964,0.078
12.21,-0.101,0.82,0.113
12.22,-0.371,1.075,-0.005
12.23,-0.284,0.836,-0.114
12.24,-0.198,1.136,-0.051
12.25,-0.109,0.819,0.135
12.26,-0.108,1.052,0.136
12.27,-0.341,0.922,-0.103
12.28,-0.288,0.92,-0.109
12.29,-0.222,1.108,-0.007
12.3,-0.041,0.841,0.104
12.31,-0.23,1.072,0.076
12.32,-0.271,0.79,-0.102
12.33,-0.26,1.209,-0.082
12.34,-0.146,0.908,0.025
12.35,-0.058,0.919,0.145
12.36,-0.179,0.916,0.02
12.37,-0.367,0.936,-0.114
12.38,-0.198,1.15,-0.069
12.39,-0.115,0.85,0.087
12.4,-0.096,1.013,0.113
12.41,-0.27,0.832,-0.04
12.42,-0.354,1.178,-0.135
12.43,-0.189,0.892,-0.08
12.44,-0.111,0.937,0.148
12.45,-0.127,0.921,0.142
12.46,-0.359,0.909,-0.079
12.47,-0.346,1.092,-0.107
12.48,-0.145,0.843,-0.023
12.49,-0.155,1.105,0.145
12.5,-0.143,0.781,0.096
12.51,-0.293,1.111,-0.132
12.52,-0.268,0.897,-0.103
12.53,-0.181,1.025,-0.002
12.54,-0.054,1.031,0.166
12.55,-0.205,0.75,0.029
12.56,-0.334,1.111,-0.1
12.57,-0.258,0.939,-0.056
12.58,-0.099,1.185,0.019
12.59,-0.038,0.648,0.135
12.6,-0.391,1.105,-0.013
12.61,-0.275,0.92,-0.121
12.62,-0.209,1.008,-0.118
12.63,-0.114,0.954,0.123
12.64,-0.144,0.847,0.128
12.65,-0.379,1.106,-0.057
12.66,-0.237,0.775,-0.145
12.67,-0.211,1.141,-0.045
12.68,-0.137,0.8,0.173
12.69,-0.126,1.005,0.062
12.7,-0.268,0.91,-0.137
12.71,-0.26,0.916,-0.08
12.72,-0.188,1.074,0.035
12.73,-0.058,0.815,0.152
12.74,-0.166,1.084,0.014
12.75,-0.37,0.772,-0.115
12.76,-0.205,1.175,-0.077
12.77,-0.071,1.016,0.04
12.78,-0.085,0.905,0.125
12.79,-0.196,0.921,0.001
12.8,-0.34,0.99,-0.112
12.81,-0.244,1.12,-0.056
12.82,-0.105,0.789,0.092
12.83,-0.146,1.034,0.113
12.84,-0.308,0.881,-0.046
12.85,-0.378,1.151,-0.158
12.86,-0.188,0.847,-0.069
12.87,-0.069,0.946,0.148
12.88,-0.181,1.018,0.108
12.89,-0.309,0.863,-0.093
12.9,-0.326,1.055,-0.15
12.91,-0.139,0.845,-0.001
12.92,-0.132,1.175,0.177
12.93,-0.117,0.786,0.013
12.94,-0.368,1.025,-0.099
12.95,-0.218,0.977,-0.115
12.96,-0.119,1.046,0.057
12.97,-0.03,0.984,0.117
12.98,-0.208,0.794,0.002
12.99,-0.357,1.139,-0.136
13.0,-0.166,0.963,-0.051
13.01,-0.156,1.155,0.069
13.02,-0.126,0.693,0.151
13.03,-0.333,1.02,-0.018
13.04,-0.245,1.079,-0.144
13.05,-0.216,0.856,-0.08
13.06,-0.134,1.034,0.144
13.07,-0.14,0.797,0.138
13.08,-0.327,1.165,-0.119
13.09,-0.277,0.766,-0.134
13.1,-0.252,1.093,-0.015
13.11,-0.041,0.913,0.18
13.12,-0.136,0.901,0.058
13.13,-0.397,1.032,-0.077
13.14,-0.233,0.845,-0.134
13.15,-0.174,1.249,0.068
13.16,-0.036,0.748,0.107
13.17,-0.219,1.016,0.03
13.18,-0.295,0.864,-0.147
13.19,-0.195,1.105,-0.031
13.2,-0.087,0.995,-0.003
13.21,-0.089,0.796,0.181
13.22,-0.26,1.079,0.0
13.23,-0.355,0.836,-0.128
13.24,-0.199,1.198,-0.067
13.25,-0.111,0.837,0.075
13.26,-0.154,0.939,0.132
13.27,-0.316,0.948,-0.037
13.28,-0.275,1.054,-0.128
13.29,-0.217,1.021,-0.051
13.3,-0.086,0.769,0.11
13.31,-0.279,1.098,0.11
13.32,-0.281,0.853,-0.089
13.33,-0.303,1.103,-0.135
13.34,-0.229,0.897,-0.001
13.35,-0.083,1.044,0.16
13.36,-0.173,0.923,0.048
13.37,-0.378,0.868,-0.103
13.38,-0.224,1.083,-0.114
13.39,-0.071,0.971,0.058
13.4,-0.052,1.072,0.11
13.41,-0.278,0.753,-0.0
13.42,-0.389,1.217,-0.089
13.43,-0.159,0.899,-0.073
13.44,-0.12,1.053,0.083
13.45,-0.136,0.75,0.138
13.46,-0.312,1.051,-0.013
13.47,-0.323,1.055,-0.166
13.48,-0.22,0.84,-0.034
13.49,-0.047,1.1,0.102
13.5,-0.188,0.794,0.125
13.51,-0.297,1.153,-0.126
13.52,-0.225,0.816,-0.135
13.53,-0.233,1.103,0.017
13.54,-0.037,0.983,0.145
13.55,-0.183,0.852,0.053
13.56,-0.356,1.019,-0.07
13.57,-0.248,0.852,-0.105
13.58,-0.176,1.269,0.067
13.59,0.017,0.769,0.093
13.6,-0.258,1.001,0.014
13.61,-0.345,0.853,-0.126
13.62,-0.143,1.125,-0.064
13.63,-0.139,0.999,0.031
13.64,-0.13,0.712,0.141
13.65,-0.282,1.124,0.029
13.66,-0.286,0.864,-0.141
13.67,-0.261,1.153,-0.061
13.68,-0.118,0.796,0.097
13.69,-0.171,1.031,0.116
13.7,-0.298,0.956,-0.054
13.71,-0.298,0.944,-0.184
13.72,-0.233,1.008,-0.024
13.73,-0.052,0.795,0.128
13.74,-0.21,1.131,0.125
13.75,-0.253,0.798,-0.112
13.76,-0.275,1.088,-0.095
13.77,-0.173,0.919,0.017
13.78,-0.085,1.034,0.143
13.79,-0.119,0.948,0.028
13.8,-0.341,0.881,-0.102
13.81,-0.249,1.09,-0.099
13.82,-0.087,0.983,0.068
13.83,-0.114,1.081,0.102
13.84,-0.165,0.761,0.004
13.85,-0.43,1.072,-0.126
13.86,-0.155,0.995,-0.038
13.87,-0.052,1.059,0.039
13.88,-0.145,0.852,0.126
13.89,-0.271,0.785,-0.003
13.9,-0.348,1.232,-0.082
13.91,-0.132,0.87,-0.068
13.92,-0.119,1.095,0.08
13.93,-0.16,0.745,0.12
13.94,-0.37,1.086,-0.033
13.95,-0.221,0.981,-0.146
13.96,-0.144,0.926,-0.057
13.97,-0.151,1.016,0.179
13.98,-0.117,0.787,0.089
13.99,-0.319,1.183,-0.069
14.0,-0.211,0.798,-0.15
14.01,-0.246,1.165,0.015
14.02,-0.117,0.849,0.146
14.03,-0.175,0.948,0.05
14.04,-0.335,0.985,-0.142
14.05,-0.217,0.852,-0.068
14.06,-0.153,1.23,0.055
14.07,0.013,0.736,0.118
14.08,-0.266,1.06,0.038
14.09,-0.288,0.823,-0.143
14.1,-0.174,1.142,-0.075
14.11,-0.064,0.997,0.049
14.12,-0.162,0.836,0.121
14.13,-0.332,1.032,-0.021
14.14,-0.31,0.871,-0.122
14.15,-0.173,1.157,-0.074
14.16,-0.094,0.782,0.106
14.17,-0.192,1.044,0.128
14.18,-0.361,0.9,-0.041
14.19,-0.274,1.044,-0.148
14.2,-0.201,0.98,-0.035
14.21,-0.082,0.819,0.122
14.22,-0.236,1.052,0.101
14.23,-0.286,0.907,-0.138
14.24,-0.257,1.05,-0.145
14.25,-0.149,0.88,0.042
14.26,-0.126,1.124,0.154
14.27,-0.172,0.778,0.056
14.28,-0.318,1.037,-0.137
14.29,-0.245,0.938,-0.093
14.3,-0.102,1.054,0.045
14.31,-0.099,0.96,0.128
14.32,-0.268,0.808,0.005
14.33,-0.349,1.137,-0.153
14.34,-0.194,0.919,-0.018
14.35,-0.09,1.148,0.065
14.36,-0.112,0.687,0.128
14.37,-0.336,0.995,-0.036
14.38,-0.304,1.051,-0.115
14.39,-0.172,0.914,-0.085
14.4,-0.16,0.976,0.093
14.41,-0.18,0.771,0.159
14.42,-0.324,1.176,-0.123
14.43,-0.259,0.762,-0.117
14.44,-0.25,1.148,-0.011
14.45,-0.022,0.892,0.124
14.46,-0.169,0.916,0.071
14.47,-0.323,1.008,-0.091
14.48,-0.233,0.886,-0.12
14.49,-0.18,1.219,0.032
14.5,-0.014,0.759,0.162
14.51,-0.264,1.07,0.032
14.52,-0.318,0.838,-0.109
14.53,-0.281,1.138,-0.037
14.54,-0.112,1.016,0.038
14.55,-0.081,0.854,0.166
14.56,-0.295,1.026,-0.014
14.57,-0.342,0.868,-0.119
14.58,-0.189,1.178,-0.078
14.59,-0.1,0.839,0.068
14.6,-0.128,0.994,0.116
14.61,-0.301,0.904,-0.035
14.62,-0.298,1.045,-0.098
14.63,-0.219,0.993,-0.056
14.64,-0.115,0.823,0.12
14.65,-0.192,1.086,0.125
14.66,-0.299,0.852,-0.081
14.67,-0.324,1.143,-0.131
14.68,-0.164,0.865,-0.022
14.69,-0.105,1.024,0.152
14.7,-0.2,0.906,0.095
14.71,-0.292,0.947,-0.135
14.72,-0.264,1.011,-0.124
14.73,-0.142,0.935,0.036
14.74,-0.066,1.132,0.147
14.75,-0.159,0.759,0.019
14.76,-0.371,1.052,-0.128
14.77,-0.236,0.901,-0.048
14.78,-0.073,1.157,0.065
14.79,-0.096,0.915,0.115
14.8,-0.287,0.816,-0.018
14.81,-0.335,1.08,-0.11
14.82,-0.139,0.924,-0.029
14.83,-0.075,1.163,0.069
14.84,-0.107,0.685,0.123
14.85,-0.367,1.083,-0.034
14.86,-0.221,0.982,-0.091
14.87,-0.129,1.084,-0.087
14.88,-0.149,0.915,0.111
14.89,-0.238,0.749,0.118
14.9,-0.318,1.202,-0.055
14.91,-0.232,0.881,-0.14
14.92,-0.237,1.086,-0.015
14.93,-0.077,0.795,0.201
14.94,-0.096,1.019,0.045
14.95,-0.361,0.952,-0.159
14.96,-0.252,0.879,-0.107
14.97,-0.107,1.186,0.078
14.98,0.01,0.789,0.12
14.99,-0.282,1.08,0.026
15.0,-0.337,0.775,-0.106
15.01,-0.209,1.169,-0.084
15.02,-0.103,0.96,0.044
15.03,-0.105,0.886,0.114
15.04,-0.328,1.006,-0.005
15.05,-0.269,1.025,-0.161
15.06,-0.194,1.022,-0.059
15.07,-0.096,0.852,0.112
15.08,-0.193,1.065,0.137
15.09,-0.243,0.844,-0.102
15.1,-0.326,1.133,-0.067
15.11,-0.279,0.875,-0.008
15.12,-0.086,1.027,0.152
15.13,-0.164,0.912,0.049
15.14,-0.307,0.915,-0.121
15.15,-0.25,1.097,-0.082
15.16,-0.066,0.948,0.024
15.17,-0.143,1.025,0.163
15.18,-0.167,0.734,0.024
15.19,-0.352,1.126,-0.136
15.2,-0.232,0.942,-0.063
15.21,-0.107,1.084,0.023
15.22,-0.143,0.881,0.153
15.23,-0.248,0.817,-0.024
15.24,-0.353,1.146,-0.121
15.25,-0.106,0.864,-0.067
15.26,-0.129,1.138,0.103
15.27,-0.073,0.724,0.122
15.28,-0.381,1.082,-0.047
15.29,-0.27,0.943,-0.129
15.3,-0.152,1.003,-0.049
15.31,-0.135,0.98,0.099
15.32,-0.188,0.745,0.106
15.33,-0.345,1.189,-0.044
15.34,-0.239,0.829,-0.138
15.35,-0.214,1.137,-0.006
15.36,-0.104,0.83,0.168
15.37,-0.166,0.985,0.065
15.38,-0.309,0.957,-0.124
15.39,-0.247,0.88,-0.107
15.4,-0.196,1.155,0.045
15.41,-0.001,0.81,0.129
15.42,-0.24,1.079,0.024
15.43,-0.318,0.793,-0.164
15.44,-0.244,1.157,-0.035
15.45,-0.045,0.985,0.006
15.46,-0.117,0.908,0.16
15.47,-0.287,0.964,-0.024
15.48,-0.354,0.896,-0.099
15.49,-0.185,1.177,-0.08
15.5,-0.046,0.8,0.076
15.51,-0.224,1.05,0.118
15.52,-0.298,0.855,-0.031
15.53,-0.247,1.083,-0.129
15.54,-0.163,0.933,-0.069
15.55,-0.165,0.896,0.138
15.56,-0.222,1.05,0.123
15.57,-0.276,0.845,-0.093
15.58,-0.302,1.115,-0.072
15.59,-0.145,0.875,-0.033
15.6,-0.173,1.114,0.157
15.61,-0.168,0.814,0.089
15.62,-0.311,1.005,-0.113
15.63,-0.221,1.0,-0.127
15.64,-0.128,0.969,0.047
15.65,-0.154,1.044,0.131
15.66,-0.167,0.758,0.035
15.67,-0.346,1.129,-0.137
15.68,-0.281,0.88,-0.051
15.69,-0.115,1.174,0.085
15.7,-0.05,0.864,0.121
15.71,-0.28,0.859,-0.017
15.72,-0.314,1.043,-0.136
15.73,-0.169,0.933,-0.048
15.74,-0.05,1.166,0.079
15.75,-0.086,0.712,0.093
15.76,-0.413,1.148,-0.015
15.77,-0.286,0.95,-0.139
15.78,-0.18,1.052,-0.058
15.79,-0.083,0.899,0.128
15.8,-0.205,0.83,0.112
15.81,-0.379,1.132,-0.08
15.82,-0.248,0.841,-0.124
15.83,-0.175,1.145,-0.016
15.84,-0.073,0.765,0.147
15.85,-0.262,1.054,0.086
15.86,-0.28,0.92,-0.129
15.87,-0.247,0.926,-0.105
15.88,-0.147,0.992,0.103
15.89,-0.043,0.907,0.136
15.9,-0.229,0.98,0.001
15.91,-0.334,0.827,-0.129
15.92,-0.233,1.2,-0.026
15.93,-0.034,0.841,0.036
15.94,-0.143,1.015,0.15
15.95,-0.292,0.854,-0.044
15.96,-0.321,1.121,-0.111
15.97,-0.197,0.968,-0.063
15.98,-0.1,0.91,0.097
15.99,-0.211,1.019,0.136
16.0,-0.281,0.859,-0.1
16.01,-0.32,1.134,-0.11
16.02,-0.174,0.875,-0.013
16.03,-0.09,1.096,0.123
16.04,-0.112,0.83,0.048
16.05,-0.332,0.999,-0.079
16.06,-0.205,1.006,-0.131
16.07,-0.163,0.998,0.051
16.08,-0.072,1.078,0.118
16.09,-0.186,0.732,0.014
16.1,-0.396,1.106,-0.118
16.11,-0.238,0.915,-0.069
16.12,-0.099,1.115,0.045
16.13,-0.063,0.818,0.153
16.14,-0.279,0.898,-0.029
16.15,-0.396,1.048,-0.144
16.16,-0.173,0.914,-0.077
16.17,-0.124,1.107,0.077
16.18,-0.105,0.683,0.113
16.19,-0.43,1.15,-0.001
16.2,-0.234,0.906,-0.166
16.21,-0.206,1.016,-0.056
16.22,-0.081,0.932,0.1
16.23,-0.214,0.844,0.14
16.24,-0.35,1.117,-0.079
16.25,-0.25,0.811,-0.122
16.26,-0.245,1.17,-0.012
16.27,-0.086,0.787,0.157
16.28,-0.239,1.02,0.069
16.29,-0.263,0.896,-0.12
16.3,-0.233,0.966,-0.112
16.31,-0.147,1.121,-0.015
16.32,-0.073,0.831,0.176
16.33,-0.229,1.062,0.032
16.34,-0.305,0.795,-0.136
16.35,-0.207,1.2,-0.106
16.36,-0.149,0.937,0.062
16.37,-0.075,0.91,0.138
16.38,-0.242,0.924,-0.009
16.39,-0.34,0.926,-0.119
16.4,-0.205,1.096,-0.082
16.41,-0.071,0.793,0.116
16.42,-0.153,1.049,0.134
16.43,-0.295,0.826,-0.055
16.44,-0.356,1.124,-0.121
16.45,-0.176,0.922,-0.039
16.46,-0.067,0.917,0.113
16.47,-0.22,0.964,0.132
16.48,-0.316,0.885,-0.092
16.49,-0.255,1.167,-0.111
16.5,-0.136,0.854,0.006
16.51,-0.129,1.096,0.173
16.52,-0.161,0.854,0.052
16.53,-0.338,1.073,-0.126
16.54,-0.266,0.934,-0.114
16.55,-0.157,1.032,0.054
16.56,-0.095,1.045,0.142
16.57,-0.193,0.76,-0.019
16.58,-0.341,1.128,-0.114
16.59,-0.197,0.871,-0.053
16.6,-0.134,1.2,0.081
16.61,-0.045,0.747,0.117
16.62,-0.298,0.986,-0.009
16.63,-0.346,1.018,-0.124
16.64,-0.142,0.953,-0.071
16.65,-0.115,1.071,0.103
16.66,-0.11,0.708,0.117
16.67,-0.385,1.167,-0.049
16.68,-0.185,0.854,-0.148
16.69,-0.214,1.109,-0.006
16.7,-0.079,0.776,0.139
16.71,-0.198,1.06,0.092
16.72,-0.287,0.921,-0.154
16.73,-0.23,0.938,-0.122
16.74,-0.225,1.151,0.089
16.75,-0.016,0.8,0.139
16.76,-0.273,1.049,0.032
16.77,-0.305,0.752,-0.12
16.78,-0.246,1.201,-0.027
16.79,-0.037,0.911,0.018
16.8,-0.146,0.91,0.139
16.81,-0.24,0.961,0.007
16.82,-0.33,0.939,-0.134
16.83,-0.164,1.132,-0.065
16.84,-0.105,0.771,0.1
16.85,-0.175,1.045,0.128
16.86,-0.352,0.868,-0.021
16.87,-0.275,1.148,-0.139
16.88,-0.212,0.913,-0.042
16.89,-0.094,0.923,0.135
16.9,-0.175,1.018,0.1
16.91,-0.308,0.892,-0.115
16.92,-0.235,1.084,-0.107
16.93,-0.186,0.905,0.006
16.94,-0.115,1.096,0.18
16.95,-0.142,0.82,0.052
16.96,-0.364,1.018,-0.126
16.97,-0.26,1.018,-0.085
16.98,-0.087,1.059,0.042
16.99,-0.12,0.969,0.133
17.0,-0.219,0.771,0.003
17.01,-0.333,1.164,-0.119
17.02,-0.161,0.898,-0.066
17.03,-0.098,1.101,0.046
17.04,-0.17,0.743,0.178
17.05,-0.343,1.008,-0.015
17.06,-0.289,1.072,-0.131
17.07,-0.167,0.917,-0.069
17.08,-0.09,1.067,0.098
17.09,-0.139,0.743,0.145
17.1,-0.331,1.182,-0.077
17.11,-0.272,0.838,-0.107
17.12,-0.174,1.076,-0.023
17.13,-0.132,0.948,0.146
17.14,-0.188,0.881,0.072
17.15,-0.343,1.027,-0.114
17.16,-0.241,0.826,-0.086
17.17,-0.223,1.251,0.046
17.18,0.004,0.787,0.138
17.19,-0.243,1.049,0.05
17.2,-0.318,0.839,-0.142
17.21,-0.205,1.061,-0.065
17.22,-0.099,1.092,0.031
17.23,-0.103,0.783,0.118
17.24,-0.302,1.051,-0.005
17.25,-0.282,0.85,-0.121
17.26,-0.213,1.187,-0.064
17.27,-0.096,0.805,0.096
17.28,-0.134,1.013,0.15
17.29,-0.326,0.917,-0.065
17.3,-0.239,0.986,-0.163
17.31,-0.182,1.052,-0.044
17.32,-0.074,0.778,0.135
17.33,-0.196,1.061,0.117
17.34,-0.273,0.841,-0.095
17.35,-0.316,1.1,-0.105
17.36,-0.19,0.878,-0.013
17.37,-0.089,1.033,0.176
17.38,-0.187,0.943,0.044
17.39,-0.37,0.869,-0.107
17.4,-0.231,1.062,-0.151
17.41,-0.132,0.919,0.072
17.42,-0.038,1.089,0.14
17.43,-0.17,0.748,-0.005
17.44,-0.38,1.089,-0.112
17.45,-0.219,0.986,-0.048
17.46,-0.076,1.053,0.026
17.47,-0.179,0.896,0.156
17.48,-0.29,0.848,-0.029
17.49,-0.313,1.195,-0.118
17.5,-0.148,0.849,-0.103
17.51,-0.106,1.073,0.085
17.52,-0.193,0.725,0.14
17.53,-0.307,1.169,-0.078
17.54,-0.29,0.849,-0.103
17.55,-0.234,1.08,-0.025
17.56,-0.096,0.906,0.162
17.57,-0.135,0.875,0.056
17.58,-0.37,1.094,-0.113
17.59,-0.203,0.804,-0.097
17.6,-0.181,1.26,0.064
17.61,0.028,0.737,0.12
17.62,-0.243,1.023,0.049
17.63,-0.353,0.88,-0.139
17.64,-0.218,1.056,-0.059
17.65,-0.13,1.063,-0.007
17.66,-0.073,0.771,0.139
17.67,-0.343,1.079,-0.006
17.68,-0.293,0.85,-0.118
17.69,-0.199,1.165,-0.076
17.7,-0.109,0.778,0.082
17.71,-0.115,0.991,0.118
17.72,-0.319,0.95,-0.048
17.73,-0.293,1.022,-0.152
17.74,-0.226,1.026,-0.047
17.75,-0.062,0.772,0.122
17.76,-0.227,1.091,0.125
17.77,-0.324,0.853,-0.086
17.78,-0.302,1.115,-0.13
17.79,-0.158,0.86,-0.016
17.8,-0.059,1.013,0.175
17.81,-0.213,0.995,0.066
17.82,-0.29,0.876,-0.156
17.83,-0.208,1.073,-0.1
17.84,-0.118,0.921,0.03
17.85,-0.153,1.117,0.116
17.86,-0.165,0.758,-0.001
17.87,-0.353,1.088,-0.113
17.88,-0.228,1.0,-0.048
17.89,-0.121,1.046,0.037
17.9,-0.101,0.896,0.157
17.91,-0.266,0.843,-0.031
17.92,-0.365,1.144,-0.107
17.93,-0.092,0.877,0.059
17.94,-0.145,0.995,0.127
17.95,-0.29,0.85,-0.028
17.96,-0.263,1.196,-0.16
17.97,-0.255,0.849,-0.061
17.98,-0.089,0.99,0.121
17.99,-0.135,0.871,0.131
18.0,-0.331,0.992,-0.1
18.01,-0.351,0.994,-0.094
18.02,-0.108,0.889,-0.015
18.03,-0.113,1.148,0.121
18.04,-0.171,0.721,0.091
18.05,-0.363,1.114,-0.117
18.06,-0.233,0.881,-0.098
18.07,-0.146,1.164,0.032
18.08,-0.087,0.906,0.149
18.09,-0.194,0.805,0.03
18.1,-0.345,1.095,-0.117
18.11,-0.212,0.887,-0.062
18.12,-0.163,1.256,0.064
18.13,-0.045,0.73,0.134
18.14,-0.285,1.041,-0.018
18.15,-0.316,0.948,-0.112
18.16,-0.154,1.069,-0.092
18.17,-0.101,0.968,0.055
18.18,-0.159,0.741,0.143
18.19,-0.323,1.132,-0.042
18.2,-0.318,0.861,-0.122
18.21,-0.245,1.115,-0.057
18.22,-0.074,0.781,0.124
18.23,-0.181,0.976,0.099
18.24,-0.363,1.016,-0.059
18.25,-0.243,0.897,-0.146
18.26,-0.218,1.093,0.018
18.27,-0.03,0.802,0.166
18.28,-0.214,1.125,0.054
18.29,-0.317,0.787,-0.151
18.3,-0.248,1.154,-0.07
18.31,-0.065,0.948,0.071
18.32,-0.094,1.061,0.12
18.33,-0.252,0.814,-0.013
18.34,-0.33,0.961,-0.144
18.35,-0.182,1.121,-0.034
18.36,-0.029,0.892,0.059
18.37,-0.173,0.95,0.126
18.38,-0.3,0.846,-0.029
18.39,-0.33,1.239,-0.148
18.4,-0.179,0.829,-0.057
18.41,-0.09,1.007,0.117
18.42,-0.208,0.89,0.126
18.43,-0.322,0.966,-0.092
18.44,-0.251,1.075,-0.13
18.45,-0.159,0.882,-0.009
18.46,-0.134,1.102,0.175
18.47,-0.144,0.792,0.051
18.48,-0.359,1.117,-0.148
18.49,-0.249,0.853,-0.113
18.5,-0.176,1.092,0.063
18.51,-0.052,0.928,0.115
18.52,-0.249,0.817,0.012
18.53,-0.378,1.069,-0.125
18.54,-0.165,0.905,-0.056
18.55,-0.103,1.206,0.044
18.56,-0.091,0.668,0.135
18.57,-0.321,1.048,-0.037
18.58,-0.331,0.953,-0.107
18.59,-0.121,1.014,-0.073
18.6,-0.129,0.99,0.087
18.61,-0.178,0.723,0.114
18.62,-0.377,1.179,-0.025
18.63,-0.224,0.837,-0.132
18.64,-0.226,1.134,-0.013
18.65,-0.129,0.796,0.139
18.66,-0.184,0.986,0.101
18.67,-0.245,0.998,-0.15
18.68,-0.255,0.875,-0.125
18.69,-0.199,1.15,0.04
18.7,0.004,0.815,0.129
18.71,-0.257,1.068,0.017
18.72,-0.293,0.779,-0.133
18.73,-0.286,1.199,-0.048
18.74,-0.102,0.964,0.043
18.75,-0.076,0.831,0.14
18.76,-0.295,0.994,-0.032
18.77,-0.36,0.9,-0.081
18.78,-0.121,1.142,-0.103
18.79,-0.117,0.826,0.145
18.8,-0.15,1.053,0.101
18.81,-0.308,0.862,-0.047
18.82,-0.293,1.121,-0.123
18.83,-0.154,0.984,-0.041
18.84,-0.096,0.885,0.141
18.85,-0.216,1.021,0.12
18.86,-0.231,0.898,-0.134
18.87,-0.269,1.14,-0.125
18.88,-0.183,0.88,0.035
18.89,-0.054,1.086,0.138
18.9,-0.176,0.827,0.048
18.91,-0.368,0.987,-0.098
18.92,-0.229,1.052,-0.09
18.93,-0.093,1.0,0.046
18.94,-0.105,0.993,0.126
18.95,-0.22,0.79,0.012
18.96,-0.353,1.155,-0.192
18.97,-0.229,0.9,-0.013
18.98,-0.051,1.065,0.061
18.99,-0.106,0.809,0.13
19.0,-0.366,0.957,-0.065
19.01,-0.34,1.087,-0.103
19.02,-0.168,0.892,-0.068
19.03,-0.109,1.039,0.119
19.04,-0.206,0.772,0.153
19.05,-0.326,1.184,-0.088
19.06,-0.221,0.872,-0.148
19.07,-0.153,1.021,0.008
19.08,-0.091,0.961,0.147
19.09,-0.199,0.885,0.03
19.1,-0.379,1.083,-0.098
19.11,-0.204,0.966,-0.095
19.12,-0.147,1.187,0.04
19.13,-0.031,0.719,0.15
19.14,-0.28,1.102,-0.007
19.15,-0.328,0.845,-0.121
19.16,-0.23,1.139,-0.065
19.17,-0.057,0.895,0.091
19.18,-0.143,0.884,0.12
19.19,-0.317,1.011,-0.076
19.2,-0.361,0.887,-0.129
19.21,-0.187,1.149,-0.032
19.22,-0.054,0.766,0.114
19.23,-0.23,1.033,0.088
19.24,-0.321,0.872,-0.073
19.25,-0.251,1.063,-0.119
19.26,-0.109,0.999,-0.012
19.27,-0.096,0.915,0.168
19.28,-0.181,1.043,0.03
19.29,-0.316,0.826,-0.126
19.3,-0.252,1.162,-0.058
19.31,-0.12,0.92,0.069
19.32,-0.123,1.116,0.165
19.33,-0.208,0.823,-0.019
19.34,-0.369,0.972,-0.108
19.35,-0.218,1.061,-0.049
19.36,-0.034,0.9,0.054
19.37,-0.125,0.97,0.114
19.38,-0.27,0.803,-0.049
19.39,-0.334,1.173,-0.124
19.4,-0.147,0.908,-0.03
19.41,-0.154,1.015,0.121
19.42,-0.208,0.851,0.107
19.43,-0.296,1.0,-0.071
19.44,-0.313,1.103,-0.134
19.45,-0.084,0.834,-0.035
19.46,-0.136,1.101,0.207
19.47,-0.094,0.779,0.006
19.48,-0.403,1.075,-0.149
19.49,-0.232,0.871,-0.058
19.5,-0.111,1.153,0.055
19.51,-0.088,0.871,0.126
19.52,-0.273,0.836,-0.0
19.53,-0.388,1.121,-0.092
19.54,-0.108,0.899,-0.037
19.55,-0.134,1.139,0.045
19.56,-0.123,0.705,0.142
19.57,-0.351,1.136,-0.06
19.58,-0.272,0.955,-0.153
19.59,-0.207,0.965,-0.057
19.6,-0.095,0.996,0.11
19.61,-0.212,0.803,0.131
19.62,-0.347,1.149,-0.104
19.63,-0.175,0.781,-0.132
19.64,-0.242,1.223,0.031
19.65,-0.062,0.804,0.151
19.66,-0.15,0.99,0.04
19.67,-0.333,0.939,-0.129
19.68,-0.18,0.917,-0.122
19.69,-0.127,1.191,0.071
19.7,-0.078,0.714,0.109
19.71,-0.278,1.048,0.001
19.72,-0.346,0.856,-0.085
19.73,-0.186,1.148,-0.084
19.74,-0.119,0.851,0.086
19.75,-0.104,0.901,0.15
19.76,-0.322,1.07,-0.044
19.77,-0.257,0.869,-0.175
19.78,-0.215,1.097,-0.034
19.79,-0.135,0.802,0.151
19.8,-0.165,1.097,0.103
19.81,-0.293,0.892,-0.056
19.82,-0.272,1.017,-0.126
19.83,-0.199,0.986,0.004
19.84,-0.043,0.886,0.134
19.85,-0.211,1.026,0.07
19.86,-0.305,0.828,-0.134
19.87,-0.251,1.209,-0.096
19.88,-0.134,0.921,0.051
19.89,-0.095,1.027,0.118
19.9,-0.253,0.817,0.036
19.91,-0.338,1.006,-0.111
19.92,-0.17,1.069,-0.041
19.93,-0.129,1.014,0.047
19.94,-0.156,0.879,0.12
19.95,-0.363,0.896,-0.032
19.96,-0.324,1.166,-0.149
19.97,-0.136,0.841,-0.032
19.98,-0.189,1.09,0.141
19.99,-0.137,0.749,0.085
20.0,-0.357,1.131,-0.047
20.01,-0.201,0.932,-0.149
20.02,-0.162,0.97,0.001
20.03,-0.151,0.982,0.172
20.04,-0.153,0.819,0.014
20.05,-0.375,1.091,-0.149
20.06,-0.194,0.804,-0.08
20.07,-0.186,1.262,0.071
20.08,-0.039,0.744,0.132
20.09,-0.3,0.968,0.009
20.1,-0.326,0.979,-0.143
20.11,-0.166,0.969,-0.057
20.12,-0.1,1.063,0.064
20.13,-0.105,0.71,0.106
20.14,-0.345,1.176,-0.032
20.15,-0.246,0.863,-0.144
20.16,-0.248,1.108,-0.031
20.17,-0.084,0.883,0.13
20.18,-0.156,0.911,0.119
20.19,-0.357,1.056,-0.108
20.2,-0.254,0.841,-0.108
20.21,-0.231,1.196,0.015
20.22,-0.033,0.807,0.148
20.23,-0.215,1.096,0.049
20.24,-0.322,0.819,-0.119
20.25,-0.272,1.123,-0.075
20.26,-0.082,1.028,-0.006
20.27,-0.082,0.812,0.176
20.28,-0.262,1.022,0.01
20.29,-0.343,0.861,-0.124
20.3,-0.244,1.189,-0.112
20.31,-0.052,0.826,0.078
20.32,-0.14,1.0,0.123
20.33,-0.289,0.887,-0.011
20.34,-0.346,1.056,-0.165
20.35,-0.22,0.978,-0.024
20.36,-0.099,0.833,0.106
20.37,-0.157,1.08,0.131
20.38,-0.34,0.854,-0.1
20.39,-0.311,1.072,-0.129
20.4,-0.165,0.864,0.014
20.41,-0.08,1.118,0.169
20.42,-0.194,0.874,0.07
20.43,-0.29,0.912,-0.124
20.44,-0.228,1.107,-0.099
20.45,-0.176,0.942,0.083
20.46,-0.042,1.025,0.104
20.47,-0.18,0.762,0.012
20.48,-0.366,1.116,-0.117
20.49,-0.16,0.988,-0.047
20.5,-0.103,1.048,0.02
20.51,-0.115,0.807,0.154
20.52,-0.305,0.903,0.013
20.53,-0.338,1.192,-0.129
20.54,-0.186,0.815,-0.089
20.55,-0.12,1.073,0.125
20.56,-0.14,0.72,0.095
20.57,-0.375,1.133,-0.065
20.58,-0.29,0.934,-0.156
20.59,-0.171,0.923,-0.036
20.6,-0.146,0.978,0.186
20.61,-0.12,0.814,0.058
20.62,-0.41,1.115,-0.103
20.63,-0.239,0.771,-0.132
20.64,-0.184,1.205,0.035
20.65,-0.081,0.836,0.154
20.66,-0.202,0.917,-0.015
20.67,-0.336,0.944,-0.112
20.68,-0.196,0.969,-0.055
20.69,-0.101,1.137,0.025
20.7,-0.087,0.7,0.137
20.71,-0.275,1.098,-0.001
20.72,-0.356,0.865,-0.155
20.73,-0.208,1.107,-0.07
20.74,-0.094,0.881,0.084
20.75,-0.145,0.903,0.132
20.76,-0.347,0.957,-0.051
20.77,-0.29,0.986,-0.175
20.78,-0.183,0.985,-0.035
20.79,-0.057,0.843,0.175
20.8,-0.213,1.139,0.095
20.81,-0.34,0.79,-0.166
20.82,-0.273,1.085,-0.122
20.83,-0.185,0.979,0.092
20.84,-0.053,1.034,0.114
20.85,-0.235,0.868,0.043
20.86,-0.29,0.905,-0.103
20.87,-0.215,1.168,-0.022
20.88,-0.037,0.894,0.002
20.89,-0.114,1.017,0.15
20.9,-0.27,0.821,-0.032
20.91,-0.302,1.15,-0.149
20.92,-0.221,0.933,-0.061
20.93,-0.087,0.947,0.066
20.94,-0.228,0.977,0.183
20.95,-0.27,0.905,-0.047
20.96,-0.346,1.115,-0.139
20.97,-0.154,0.819,-0.018
20.98,-0.088,1.124,0.122
20.99,-0.133,0.813,0.064
21.0,-0.346,1.073,-0.089
21.01,-0.245,0.956,-0.113
21.02,-0.175,1.019,0.019
21.03,-0.115,1.055,0.163
21.04,-0.196,0.809,0.022
21.05,-0.353,1.113,-0.095
21.06,-0.226,0.848,-0.11
21.07,-0.121,1.26,0.07
21.08,-0.066,0.756,0.152
21.09,-0.248,0.947,-0.019
21.1,-0.349,0.982,-0.096
21.11,-0.206,0.992,-0.069
21.12,-0.092,1.09,0.065
21.13,-0.113,0.68,0.119
21.14,-0.342,1.141,-0.01
21.15,-0.29,0.877,-0.137
21.16,-0.203,1.121,-0.037
21.17,-0.067,0.876,0.12
21.18,-0.177,0.844,0.112
21.19,-0.352,1.086,-0.037
21.2,-0.248,0.89,-0.158
21.21,-0.241,1.098,-0.014
21.22,-0.075,0.749,0.151
21.23,-0.167,1.115,0.096
21.24,-0.344,0.855,-0.136
21.25,-0.259,1.009,-0.086
21.26,-0.149,1.052,0.061
21.27,0.008,0.857,0.137
21.28,-0.281,1.033,0.052
21.29,-0.348,0.786,-0.149
21.3,-0.213,1.197,-0.034
21.31,-0.094,0.887,0.021
21.32,-0.146,0.972,0.144
21.33,-0.339,0.924,-0.014
21.34,-0.226,1.022,-0.16
21.35,-0.225,1.012,-0.092
21.36,-0.084,0.794,0.111
21.37,-0.166,1.122,0.177
21.38,-0.273,0.874,-0.127
21.39,-0.379,1.085,-0.094
21.4,-0.13,0.85,-0.078
21.41,-0.131,1.073,0.174
21.42,-0.142,0.912,0.058
21.43,-0.283,0.949,-0.102
21.44,-0.212,1.052,-0.14
21.45,-0.153,0.939,0.056
21.46,-0.062,1.109,0.145
21.47,-0.167,0.748,0.004
21.48,-0.349,1.084,-0.118
21.49,-0.236,1.0,-0.054
21.5,-0.062,1.116,0.008
21.51,-0.125,0.882,0.14
21.52,-0.195,0.874,0.016
21.53,-0.373,1.173,-0.102
21.54,-0.126,0.884,-0.093
21.55,-0.181,1.124,0.085
21.56,-0.072,0.705,0.128
21.57,-0.376,1.102,-0.031
21.58,-0.269,0.833,-0.154
21.59,-0.2,1.057,-0.016
21.6,-0.136,0.919,0.132
21.61,-0.216,0.888,0.12
21.62,-0.295,1.094,-0.119
21.63,-0.258,0.798,-0.136
21.64,-0.267,1.172,0.047
21.65,-0.004,0.814,0.198
21.66,-0.184,1.039,0.017
21.67,-0.332,0.815,-0.134
21.68,-0.28,1.021,-0.069
21.69,-0.086,1.118,0.044
21.7,-0.03,0.811,0.145
21.71,-0.312,1.019,0.022
21.72,-0.34,0.812,-0.086
21.73,-0.127,1.233,-0.061
21.74,-0.127,0.823,0.069
21.75,-0.121,0.948,0.128
21.76,-0.366,0.965,0.001
21.77,-0.179,0.989,-0.175
21.78,-0.228,1.055,-0.048
21.79,-0.081,0.788,0.103
21.8,-0.226,1.095,0.147
21.81,-0.221,0.833,-0.121
21.82,-0.414,1.131,-0.061
21.83,-0.143,0.859,-0.035
21.84,-0.171,1.051,0.169
21.85,-0.168,0.907,0.051
21.86,-0.349,0.89,-0.1
21.87,-0.184,1.061,-0.121
21.88,-0.175,0.962,0.081
21.89,-0.04,1.093,0.072
21.9,-0.231,0.742,0.055
21.91,-0.334,1.097,-0.147
21.92,-0.226,1.008,-0.052
21.93,-0.07,1.043,-0.004
21.94,-0.145,0.873,0.178
21.95,-0.232,0.825,-0.008
21.96,-0.341,1.193,-0.115
21.97,-0.164,0.837,-0.121
21.98,-0.17,1.112,0.105
21.99,-0.043,0.737,0.097
22.0,-0.328,1.101,-0.009
22.01,-0.31,0.958,-0.155
22.02,-0.235,0.874,-0.037
22.03,-0.072,1.058,0.13
22.04,-0.184,0.769,0.095
22.05,-0.379,1.149,-0.091
22.06,-0.212,0.838,-0.105
22.07,-0.157,1.167,0.001
22.08,-0.105,0.812,0.166
22.09,-0.16,0.934,0.069
22.1,-0.358,1.034,-0.104
22.11,-0.158,0.868,-0.12
22.12,-0.213,1.24,0.041
22.13,-0.018,0.787,0.081
22.14,-0.251,1.047,0.041
22.15,-0.309,0.782,-0.165
22.16,-0.204,1.12,-0.032
22.17,-0.094,1.043,0.025
22.18,-0.091,0.839,0.13
22.19,-0.261,1.026,-0.011
22.2,-0.319,0.906,-0.083
22.21,-0.267,1.134,-0.083
22.22,-0.092,0.782,0.101
22.23,-0.182,1.102,0.114
22.24,-0.316,0.916,-0.04
22.25,-0.276,1.004,-0.161
22.26,-0.187,0.939,-0.041
22.27,-0.078,0.885,0.172
22.28,-0.15,1.093,0.087
22.29,-0.317,0.823,-0.093
22.3,-0.335,1.101,-0.103
22.31,-0.14,0.868,-0.003
22.32,-0.083,1.077,0.13
22.33,-0.211,0.846,0.042
22.34,-0.327,0.945,-0.081
22.35,-0.229,1.115,-0.12
22.36,-0.121,0.963,0.038
22.37,-0.031,0.987,0.099
22.38,-0.228,0.756,0.04
22.39,-0.318,1.131,-0.125
22.4,-0.191,0.911,-0.066
22.41,-0.144,1.136,0.076
22.42,-0.101,0.729,0.141
22.43,-0.29,1.04,-0.008
22.44,-0.33,0.99,-0.134
22.45,-0.191,0.927,-0.068
22.46,-0.076,1.051,0.128
22.47,-0.11,0.754,0.092
22.48,-0.375,1.146,-0.112
22.49,-0.318,0.827,-0.121
22.5,-0.157,1.094,-0.021
22.51,-0.136,0.877,0.162
22.52,-0.184,0.911,0.089
22.53,-0.337,1.036,-0.085
22.54,-0.209,0.849,-0.088
22.55,-0.157,1.202,-0.006
22.56,-0.106,0.781,0.152
22.57,-0.242,1.077,0.022
22.58,-0.305,0.809,-0.137
22.59,-0.198,1.052,-0.093
22.6,-0.176,1.065,0.072
22.61,-0.025,0.827,0.12
22.62,-0.29,1.03,0.031
22.63,-0.353,0.824,-0.143
22.64,-0.229,1.189,-0.04
22.65,-0.09,0.85,0.058
22.66,-0.163,1.021,0.148
22.67,-0.295,0.912,-0.027
22.68,-0.24,1.04,-0.158
22.69,-0.215,0.988,-0.096
22.7,-0.106,0.855,0.145
22.71,-0.127,1.087,0.119
22.72,-0.271,0.839,-0.157
22.73,-0.399,1.113,-0.065
22.74,-0.152,0.881,-0.031
22.75,-0.109,1.094,0.187
22.76,-0.124,0.868,0.028
22.77,-0.34,0.908,-0.095
22.78,-0.299,1.103,-0.053
22.79,-0.052,0.982,0.014
22.8,-0.054,1.066,0.121
22.81,-0.183,0.747,0.003
22.82,-0.388,1.143,-0.103
22.83,-0.173,1.008,-0.072
22.84,-0.117,1.074,0.012
22.85,-0.128,0.824,0.155
22.86,-0.286,0.87,-0.027
22.87,-0.36,1.177,-0.07
22.88,-0.161,0.873,-0.086
22.89,-0.138,1.075,0.102
22.9,-0.112,0.734,0.138
22.91,-0.307,1.095,-0.021
22.92,-0.307,0.916,-0.173
22.93,-0.237,0.933,-0.02
22.94,-0.121,1.031,0.093
22.95,-0.2,0.831,0.119
22.96,-0.323,1.137,-0.073
22.97,-0.254,0.758,-0.113
22.98,-0.185,1.172,-0.018
22.99,-0.039,0.901,0.152
23.0,-0.224,0.944,0.052
23.01,-0.356,0.941,-0.097
23.02,-0.19,0.931,-0.101
23.03,-0.126,1.2,0.021
23.04,-0.051,0.704,0.126
23.05,-0.306,1.083,0.083
23.06,-0.295,0.799,-0.132
23.07,-0.258,1.164,-0.068
23.08,-0.083,0.967,0.025
23.09,-0.068,0.873,0.16
23.1,-0.243,1.002,0.002
23.11,-0.322,0.958,-0.084
23.12,-0.202,1.167,-0.11
23.13,-0.129,0.761,0.093
23.14,-0.194,1.067,0.15
23.15,-0.35,0.88,-0.016
23.16,-0.239,1.068,-0.172
23.17,-0.182,0.979,-0.033
23.18,-0.102,0.883,0.093
23.19,-0.225,1.086,0.144
23.2,-0.218,0.892,-0.074
23.21,-0.3,1.17,-0.123
23.22,-0.218,0.873,0.044
23.23,-0.072,1.152,0.148
23.24,-0.152,0.798,0.031
23.25,-0.351,1.094,-0.111
23.26,-0.244,0.946,-0.073
23.27,-0.059,1.15,-0.007
23.28,-0.148,0.901,0.141
23.29,-0.195,0.754,0.024
23.3,-0.385,1.183,-0.073
23.31,-0.154,0.92,-0.09
23.32,-0.169,1.14,0.042
23.33,-0.05,0.724,0.131
23.34,-0.355,1.042,-0.007
23.35,-0.295,0.974,-0.141
23.36,-0.236,0.954,-0.121
23.37,-0.118,1.006,0.073
23.38,-0.139,0.738,0.161
23.39,-0.295,1.178,-0.032
23.4,-0.326,0.805,-0.142
23.41,-0.246,1.056,-0.013
23.42,-0.077,0.882,0.131
23.43,-0.176,0.997,0.127
23.44,-0.337,1.012,-0.082
23.45,-0.263,0.819,-0.087
23.46,-0.166,1.131,-0.001
23.47,-0.031,0.817,0.146
23.48,-0.274,1.082,0.079
23.49,-0.28,0.805,-0.13
23.5,-0.226,1.051,-0.106
23.51,-0.147,1.054,0.033
23.52,-0.077,0.899,0.154
23.53,-0.194,0.974,0.059
23.54,-0.297,0.842,-0.127
23.55,-0.261,1.177,-0.068
23.56,-0.083,0.893,0.035
23.57,-0.05,1.016,0.132
23.58,-0.211,0.85,-0.02
23.59,-0.351,1.025,-0.099
23.6,-0.209,1.028,-0.088
23.61,-0.114,0.882,0.052
23.62,-0.157,0.99,0.118
23.63,-0.307,0.841,-0.045
23.64,-0.344,1.186,-0.123
23.65,-0.162,0.818,-0.049
23.66,-0.083,1.046,0.105
23.67,-0.189,0.856,0.125
23.68,-0.303,0.99,-0.062
23.69,-0.284,1.026,-0.129
23.7,-0.169,0.908,-0.018
23.71,-0.139,1.089,0.119
23.72,-0.216,0.734,0.068
23.73,-0.381,1.118,-0.068
23.74,-0.201,0.87,-0.146
23.75,-0.158,1.113,0.039
23.76,-0.08,0.893,0.14
23.77,-0.162,0.864,0.037
23.78,-0.355,1.062,-0.13
23.79,-0.273,0.806,-0.082
23.8,-0.117,1.263,0.078
23.81,-0.053,0.762,0.122
23.82,-0.255,1.022,0.029
23.83,-0.337,0.886,-0.143
23.84,-0.216,1.055,-0.06
23.85,-0.104,1.065,0.06
23.86,-0.065,0.732,0.131
23.87,-0.312,1.086,-0.012
23.88,-0.343,0.86,-0.094
23.89,-0.181,1.186,-0.063
23.9,-0.091,0.826,0.103
23.91,-0.161,0.953,0.106
23.92,-0.374,0.953,-0.046
23.93,-0.282,0.942,-0.135
23.94,-0.191,1.07,-0.035
23.95,-0.024,0.75,0.111
23.96,-0.271,1.087,0.109
23.97,-0.267,0.843,-0.1
23.98,-0.232,1.09,-0.129
23.99,-0.116,0.928,-0.016
24.0,-0.119,0.974,0.164
24.01,-0.215,0.962,0.069
24.02,-0.295,0.873,-0.109
24.03,-0.208,1.17,-0.105
24.04,-0.203,0.938,0.051
24.05,-0.096,1.013,0.154
24.06,-0.173,0.768,-0.024
24.07,-0.35,1.182,-0.127
24.08,-0.147,0.894,-0.095
24.09,-0.114,1.087,0.082
24.1,-0.106,0.834,0.13
24.11,-0.31,0.941,-0.05
24.12,-0.324,1.066,-0.106
24.13,-0.191,0.89,-0.052
24.14,-0.133,1.065,0.128
24.15,-0.146,0.741,0.102
24.16,-0.37,1.136,-0.084
24.17,-0.254,0.911,-0.126
24.18,-0.152,1.029,-0.01
24.19,-0.074,0.913,0.161
24.2,-0.233,0.834,0.092
24.21,-0.362,1.132,-0.1
24.22,-0.227,0.84,-0.129
24.23,-0.178,1.193,0.036
24.24,-0.029,0.79,0.145
24.25,-0.301,1.027,0.024
24.26,-0.301,0.874,-0.17
24.27,-0.188,0.971,-0.082
24.28,-0.118,1.14,0.091
24.29,-0.073,0.796,0.105
24.3,-0.342,1.084,0.002
24.31,-0.27,0.795,-0.15
24.32,-0.215,1.224,-0.032
24.33,-0.139,0.826,0.071
24.34,-0.133,0.896,0.101
24.35,-0.316,1.011,-0.027
24.36,-0.292,0.947,-0.144
24.37,-0.164,1.078,-0.039
24.38,-0.071,0.766,0.148
24.39,-0.195,1.081,0.09
24.4,-0.322,0.903,-0.098
24.41,-0.301,1.058,-0.114
24.42,-0.16,0.955,0.018
24.43,-0.092,0.956,0.185
24.44,-0.203,0.987,0.0
24.45,-0.375,0.829,-0.104
24.46,-0.238,1.156,-0.095
24.47,-0.073,0.936,0.078
24.48,-0.093,1.04,0.104
24.49,-0.225,0.806,0.003
24.5,-0.353,1.054,-0.124
24.51,-0.178,1.011,-0.057
24.52,-0.065,0.859,0.077
24.53,-0.188,1.016,0.126
24.54,-0.321,0.841,-0.043
24.55,-0.31,1.185,-0.161
24.56,-0.163,0.83,-0.053
24.57,-0.11,1.071,0.139
24.58,-0.141,0.891,0.103
24.59,-0.332,1.019,-0.109
24.6,-0.281,0.971,-0.131
24.61,-0.158,0.933,0.013
24.62,-0.121,1.091,0.138
24.63,-0.195,0.748,0.045
24.64,-0.412,1.102,-0.105
24.65,-0.257,0.862,-0.086
24.66,-0.16,1.164,0.072
24.67,-0.028,0.845,0.104
24.68,-0.231,0.874,-0.003
24.69,-0.327,1.061,-0.139
24.7,-0.166,0.908,-0.055
24.71,-0.072,1.166,0.04
24.72,-0.105,0.683,0.133
24.73,-0.41,1.138,-0.016
24.74,-0.273,0.918,-0.145
24.75,-0.21,1.032,-0.03
24.76,-0.133,0.891,0.127
24.77,-0.169,0.826,0.131
24.78,-0.336,1.154,-0.091
24.79,-0.226,0.828,-0.182
24.8,-0.192,1.134,0.003
24.81,-0.059,0.799,0.176
24.82,-0.201,1.019,0.031
24.83,-0.348,0.886,-0.136
24.84,-0.283,0.908,-0.049
24.85,-0.127,1.167,0.06
24.86,-0.059,0.8,0.13
24.87,-0.283,1.007,0.008
24.88,-0.27,0.865,-0.154
24.89,-0.209,1.208,-0.019
24.9,-0.023,0.806,0.069
24.91,-0.194,0.994,0.128
24.92,-0.319,0.891,-0.067
24.93,-0.316,1.069,-0.115
24.94,-0.177,0.999,-0.025
24.95,-0.115,0.846,0.148
24.96,-0.217,1.028,0.052
24.97,-0.295,0.891,-0.106
24.98,-0.198,1.145,-0.114
24.99,-0.12,0.882,0.014
25.0,-0.101,1.021,0.176
25.01,-0.216,0.92,0.033
25.02,-0.364,0.905,-0.136
25.03,-0.28,1.055,-0.047
25.04,-0.077,0.962,0.061
25.05,-0.124,1.047,0.088
25.06,-0.255,0.788,0.01
25.07,-0.383,1.132,-0.118
25.08,-0.096,0.948,-0.062
25.09,-0.137,1.009,0.108
25.1,-0.14,0.865,0.132
25.11,-0.314,0.925,-0.064
25.12,-0.327,1.138,-0.197
25.13,-0.159,0.831,-0.02
25.14,-0.117,1.142,0.147
25.15,-0.168,0.792,0.105
25.16,-0.325,1.086,-0.146
25.17,-0.247,0.899,-0.111
25.18,-0.126,1.061,0.031
25.19,-0.065,0.98,0.146
25.2,-0.225,0.761,-0.0
25.21,-0.368,1.121,-0.132
25.22,-0.252,0.914,-0.06
25.23,-0.108,1.191,0.034
25.24,-0.092,0.72,0.147
25.25,-0.356,1.035,-0.018
25.26,-0.291,1.004,-0.094
25.27,-0.168,0.938,-0.093
25.28,-0.164,1.017,0.152
25.29,-0.108,0.731,0.136
25.3,-0.344,1.187,-0.084
25.31,-0.32,0.77,-0.169
25.32,-0.263,1.128,-0.002
25.33,0.021,0.907,0.131
25.34,-0.201,0.913,0.05
25.35,-0.341,0.971,-0.099
25.36,-0.235,0.895,-0.088
25.37,-0.117,1.252,0.038
25.38,0.04,0.74,0.121
25.39,-0.273,1.032,-0.002
25.4,-0.307,0.819,-0.112
25.41,-0.232,1.184,-0.06
25.42,-0.125,0.979,0.051
25.43,-0.143,0.76,0.152
25.44,-0.319,1.089,0.006
25.45,-0.256,0.904,-0.124
25.46,-0.222,1.115,-0.069
25.47,-0.092,0.776,0.137
25.48,-0.179,1.051,0.115
25.49,-0.282,0.942,-0.084
25.5,-0.328,0.967,-0.159
25.51,-0.154,0.976,-0.007
25.52,-0.097,0.945,0.212
25.53,-0.206,1.06,0.041
25.54,-0.29,0.735,-0.126
25.55,-0.262,1.194,-0.062
25.56,-0.072,0.961,0.009
25.57,-0.078,0.911,0.134
25.58,-0.201,0.908,0.015
25.59,-0.392,1.012,-0.068
25.6,-0.18,1.112,-0.106
25.61,-0.142,0.814,0.075
25.62,-0.153,1.01,0.129
25.63,-0.308,0.862,-0.017
25.64,-0.298,1.157,-0.143
25.65,-0.202,0.844,-0.078
25.66,-0.163,0.941,0.124
25.67,-0.102,0.955,0.147
25.68,-0.314,0.935,-0.125
25.69,-0.215,0.914,-0.142
25.7,-0.202,1.018,0.006
25.71,-0.008,1.1,0.158
25.72,-0.21,0.731,0.027
25.73,-0.324,1.124,-0.122
25.74,-0.218,0.998,-0.055
25.75,-0.114,1.138,0.005
25.76,-0.038,0.743,0.135
25.77,-0.269,0.93,-0.012
25.78,-0.331,1.132,-0.076
25.79,-0.158,0.881,-0.108
25.8,-0.161,1.106,0.106
25.81,-0.115,0.675,0.145
25.82,-0.362,1.126,-0.042
25.83,-0.293,0.902,-0.136
25.84,-0.196,1.003,-0.099
25.85,-0.123,0.956,0.135
25.86,-0.129,0.867,0.134
25.87,-0.349,1.102,-0.097
25.88,-0.242,0.783,-0.095
25.89,-0.223,1.239,-0.013
25.9,-0.091,0.821,0.169
25.91,-0.212,1.004,0.04
25.92,-0.304,0.899,-0.115
25.93,-0.218,1.018,-0.056
25.94,-0.143,1.174,0.015
25.95,-0.017,0.713,0.107
25.96,-0.246,1.087,0.053
25.97,-0.29,0.81,-0.136
25.98,-0.236,1.22,-0.052
25.99,-0.11,0.902,0.042
26.0,-0.113,0.911,0.141
26.01,-0.326,0.959,0.016
26.02,-0.229,0.953,-0.182
26.03,-0.225,1.108,-0.078
26.04,-0.079,0.772,0.095
26.05,-0.173,1.101,0.12
26.06,-0.32,0.842,-0.058
26.07,-0.264,1.068,-0.148
26.08,-0.179,0.933,-0.042
26.09,-0.159,0.968,0.165
26.1,-0.167,1.007,0.062
26.11,-0.317,0.835,-0.105
26.12,-0.267,1.118,-0.098
26.13,-0.146,0.912,0.053
26.14,-0.049,1.076,0.121
26.15,-0.188,0.796,0.023
26.16,-0.316,1.003,-0.132
26.17,-0.272,1.074,-0.049
26.18,-0.036,1.005,-0.015
26.19,-0.091,0.935,0.11
26.2,-0.301,0.778,-0.008
26.21,-0.368,1.205,-0.083
26.22,-0.151,0.874,-0.093
26.23,-0.112,1.063,0.073
26.24,-0.128,0.773,0.146
26.25,-0.327,1.043,-0.012
26.26,-0.293,1.028,-0.225
26.27,-0.017,0.885,0.101
26.28,-0.205,0.998,0.161
26.29,-0.298,0.923,-0.052
26.3,-0.322,1.132,-0.109
26.31,-0.148,0.83,-0.068
26.32,-0.194,1.116,0.18
26.33,-0.148,0.842,0.074
26.34,-0.306,1.024,-0.088
26.35,-0.281,0.921,-0.112
26.36,-0.166,0.979,0.02
26.37,-0.064,1.07,0.134
26.38,-0.163,0.781,0.015
26.39,-0.353,1.116,-0.083
26.4,-0.286,0.865,-0.06
26.41,-0.1,1.219,0.027
26.42,-0.057,0.686,0.162
26.43,-0.277,1.03,-0.021
26.44,-0.382,0.948,-0.097
26.45,-0.075,1.021,-0.125
26.46,-0.121,1.029,0.108
26.47,-0.07,0.768,0.115
26.48,-0.399,1.146,-0.023
26.49,-0.277,0.849,-0.159
26.5,-0.217,1.115,-0.052
26.51,-0.101,0.846,0.116
26.52,-0.224,1.041,0.165
26.53,-0.272,0.985,-0.104
26.54,-0.254,0.861,-0.097
26.55,-0.206,1.093,-0.038
26.56,-0.013,0.875,0.156
26.57,-0.214,1.133,0.062
26.58,-0.308,0.816,-0.104
26.59,-0.284,1.139,-0.109
26.6,-0.171,1.019,0.038
26.61,-0.04,0.933,0.136
26.62,-0.203,0.983,0.015
26.63,-0.349,0.868,-0.104
26.64,-0.267,1.17,-0.011
26.65,-0.049,0.872,0.046
26.66,-0.112,1.038,0.125
26.67,-0.256,0.829,-0.011
26.68,-0.366,1.101,-0.109
26.69,-0.175,0.961,-0.102
26.7,-0.081,0.891,0.071
26.71,-0.155,0.979,0.116
26.72,-0.37,0.854,-0.025
26.73,-0.334,1.192,-0.138
26.74,-0.149,0.817,-0.044
26.75,-0.099,1.06,0.124
26.76,-0.17,0.828,0.106
26.77,-0.351,1.042,-0.072
26.78,-0.271,0.99,-0.139
26.79,-0.201,0.895,-0.032
26.8,-0.111,1.04,0.163
26.81,-0.183,0.793,0.09
26.82,-0.31,1.124,-0.127
26.83,-0.329,0.808,-0.098
26.84,-0.154,1.191,0.049
26.85,-0.05,0.937,0.151
26.86,-0.176,0.88,-0.001
26.87,-0.338,0.988,-0.12
26.88,-0.216,0.92,-0.079
26.89,-0.114,1.249,0.05
26.9,-0.021,0.679,0.115
26.91,-0.262,1.05,0.019
26.92,-0.364,0.905,-0.124
26.93,-0.188,1.086,-0.07
26.94,-0.086,0.993,0.046
26.95,-0.15,0.783,0.131
26.96,-0.347,1.059,-0.022
26.97,-0.257,0.871,-0.086
26.98,-0.184,1.186,-0.042
26.99,-0.121,0.796,0.114
27.0,-0.219,1.026,0.12
27.01,-0.293,0.986,-0.017
27.02,-0.235,0.971,-0.162
27.03,-0.181,1.053,-0.055
27.04,-0.138,0.792,0.114
27.05,-0.237,1.08,0.13
27.06,-0.231,0.829,-0.106
27.07,-0.266,1.087,-0.11
27.08,-0.207,0.914,0.034
27.09,-0.1,1.031,0.184
27.1,-0.113,0.921,0.02
27.11,-0.37,0.89,-0.114
27.12,-0.272,1.118,-0.092
27.13,-0.089,0.908,0.036
27.14,-0.034,1.062,0.097
27.15,-0.221,0.784,0.0
27.16,-0.423,1.07,-0.12
27.17,-0.203,0.977,-0.057
27.18,-0.031,1.053,0.064
27.19,-0.161,0.937,0.104
27.2,-0.327,0.828,-0.008
27.21,-0.344,1.219,-0.1
27.22,-0.13,0.874,-0.069
27.23,-0.132,1.063,0.089
27.24,-0.164,0.743,0.119
27.25,-0.354,1.159,-0.078
27.26,-0.277,0.894,-0.127
27.27,-0.191,1.031,-0.047
27.28,-0.119,0.92,0.154
27.29,-0.18,0.867,0.095
27.3,-0.329,1.101,-0.086
27.31,-0.22,0.784,-0.088
27.32,-0.168,1.222,0.005
27.33,-0.105,0.802,0.143
27.34,-0.224,1.02,0.03
27.35,-0.297,0.863,-0.132
27.36,-0.219,0.975,-0.089
27.37,-0.148,1.156,0.088
27.38,-0.002,0.797,0.129
27.39,-0.274,1.048,-0.015
27.4,-0.389,0.796,-0.102
27.41,-0.172,1.222,-0.062
27.42,-0.125,0.884,0.051
27.43,-0.093,0.889,0.115
27.44,-0.337,0.98,-0.016
27.45,-0.234,0.951,-0.111
27.46,-0.194,1.112,-0.068
27.47,-0.019,0.755,0.075
27.48,-0.22,1.099,0.148
27.49,-0.268,0.865,-0.039
27.5,-0.294,1.123,-0.153
27.51,-0.22,0.891,-0.04
27.52,-0.144,0.988,0.144
27.53,-0.184,1.019,0.065
27.54,-0.289,0.849,-0.087
27.55,-0.201,1.125,-0.139
27.56,-0.198,0.882,0.01
27.57,-0.147,1.053,0.109
27.58,-0.102,0.795,0.079
27.59,-0.363,1.052,-0.133
27.6,-0.242,0.936,-0.106
27.61,-0.171,1.019,0.067
27.62,-0.075,1.036,0.126
27.63,-0.192,0.759,-0.007
27.64,-0.373,1.124,-0.121
27.65,-0.201,0.907,-0.05
27.66,-0.1,1.179,0.074
27.67,-0.096,0.778,0.115
27.68,-0.328,0.965,-0.008
27.69,-0.344,1.066,-0.128
27.7,-0.135,0.903,-0.079
27.71,-0.112,1.07,0.097
27.72,-0.157,0.711,0.105
27.73,-0.397,1.138,-0.048
27.74,-0.309,0.866,-0.106
27.75,-0.146,1.074,-0.045
27.76,-0.136,0.89,0.131
27.77,-0.198,0.852,0.094
27.78,-0.29,1.134,-0.087
27.79,-0.237,0.814,-0.095
27.8,-0.19,1.14,-0.012
27.81,-0.092,0.792,0.164
27.82,-0.22,1.056,0.042
27.83,-0.293,0.855,-0.119
27.84,-0.229,1.028,-0.104
27.85,-0.213,1.091,0.078
27.86,0.017,0.79,0.096
27.87,-0.25,1.063,0.051
27.88,-0.368,0.782,-0.133
27.89,-0.25,1.17,-0.069
27.9,-0.137,0.89,0.076
27.91,-0.058,0.963,0.091
27.92,-0.34,0.922,-0.015
27.93,-0.302,0.946,-0.121
27.94,-0.197,1.082,-0.063
27.95,-0.05,0.823,0.077
27.96,-0.186,1.071,0.108
27.97,-0.335,0.838,-0.043
27.98,-0.307,1.164,-0.112
27.99,-0.145,0.892,-0.048
28.0,-0.128,0.948,0.144
28.01,-0.173,0.953,0.078
28.02,-0.279,0.93,-0.07
28.03,-0.278,1.115,-0.156
28.04,-0.191,0.837,0.015
28.05,-0.097,1.072,0.148
28.06,-0.212,0.764,0.041
28.07,-0.365,1.117,-0.12
28.08,-0.214,0.899,-0.08
28.09,-0.132,1.194,0.056
28.1,-0.073,0.828,0.122
28.11,-0.198,0.871,-0.023
28.12,-0.35,1.091,-0.128
28.13,-0.153,0.901,-0.074
28.14,-0.103,1.136,0.063
28.15,-0.097,0.703,0.158
28.16,-0.336,1.101,-0.037
28.17,-0.335,0.849,-0.124
28.18,-0.169,1.118,-0.016
28.19,-0.122,0.967,0.084
28.2,-0.149,0.74,0.117
28.21,-0.341,1.12,-0.042
28.22,-0.231,0.908,-0.147
28.23,-0.213,1.115,-0.03
28.24,-0.085,0.733,0.16
28.25,-0.227,1.058,0.113
28.26,-0.283,0.962,-0.117
28.27,-0.278,0.949,-0.137
28.28,-0.187,1.083,0.018
28.29,-0.065,0.877,0.192
28.3,-0.188,1.081,-0.004
28.31,-0.346,0.784,-0.126
28.32,-0.23,1.119,-0.116
28.33,-0.104,0.975,0.085
28.34,-0.094,0.934,0.118
28.35,-0.302,0.927,0.013
28.36,-0.342,0.911,-0.112
28.37,-0.122,1.165,-0.053
28.38,-0.117,0.836,0.086
28.39,-0.202,1.008,0.117
28.4,-0.253,0.848,-0.063
28.41,-0.236,1.144,-0.142
28.42,-0.178,0.92,-0.057
28.43,-0.138,0.908,0.147
28.44,-0.169,0.965,0.121
28.45,-0.275,0.893,-0.102
28.46,-0.318,1.137,-0.074
28.47,-0.157,0.861,-0.02
28.48,-0.139,1.088,0.16
28.49,-0.122,0.841,0.033
28.5,-0.377,1.014,-0.119
28.51,-0.23,0.99,-0.105
28.52,-0.126,1.032,0.057
28.53,-0.109,0.975,0.126
28.54,-0.216,0.758,0.018
28.55,-0.378,1.161,-0.115
28.56,-0.225,0.899,-0.05
28.57,-0.12,1.119,0.039
28.58,-0.111,0.758,0.149
28.59,-0.344,0.98,-0.031
28.6,-0.341,1.067,-0.12
28.61,-0.134,0.863,-0.069
28.62,-0.118,1.04,0.112
28.63,-0.182,0.713,0.121
28.64,-0.369,1.171,-0.071
28.65,-0.255,0.851,-0.145
28.66,-0.222,1.05,-0.004
28.67,-0.109,0.918,0.142
28.68,-0.212,0.898,0.095
28.69,-0.33,1.09,-0.128
28.7,-0.208,0.805,-0.135
28.71,-0.216,1.25,0.066
28.72,-0.02,0.781,0.14
28.73,-0.222,1.032,0.018
28.74,-0.322,0.857,-0.157
28.75,-0.225,1.013,-0.086
28.76,-0.076,1.143,0.088
28.77,-0.105,0.828,0.107
28.78,-0.317,1.052,-0.012
28.79,-0.356,0.796,-0.126
28.8,-0.197,1.216,-0.032
28.81,-0.084,0.819,0.057
28.82,-0.167,0.945,0.152
28.83,-0.353,0.972,-0.055
28.84,-0.224,0.948,-0.167
28.85,-0.193,1.106,-0.041
28.86,-0.077,0.76,0.113
28.87,-0.272,1.041,0.111
28.88,-0.235,0.856,-0.146
28.89,-0.32,1.118,-0.087
28.9,-0.123,0.853,0.022
28.91,-0.042,1.111,0.156
28.92,-0.159,0.846,-0.018
28.93,-0.377,0.947,-0.113
28.94,-0.213,1.042,-0.05
28.95,-0.08,0.972,0.061
28.96,-0.142,1.005,0.131
28.97,-0.276,0.779,-0.017
28.98,-0.397,1.165,-0.12
28.99,-0.162,0.938,-0.061
29.0,-0.077,1.035,0.07
29.01,-0.122,0.842,0.117
29.02,-0.348,0.948,-0.057
29.03,-0.292,1.124,-0.126
29.04,-0.173,0.851,-0.06
29.05,-0.112,1.042,0.145
29.06,-0.187,0.753,0.133
29.07,-0.375,1.136,-0.133
29.08,-0.248,0.874,-0.141
29.09,-0.18,1.04,0.033
29.1,-0.08,0.93,0.173
29.11,-0.15,0.879,0.037
29.12,-0.361,1.084,-0.135
29.13,-0.211,0.779,-0.082
29.14,-0.161,1.244,0.101
29.15,-0.0,0.789,0.106
29.16,-0.306,1.005,-0.005
29.17,-0.34,0.918,-0.135
29.18,-0.169,1.022,-0.037
29.19,-0.107,1.12,0.063
29.2,-0.086,0.715,0.116
29.21,-0.384,1.14,-0.048
29.22,-0.254,0.856,-0.109
29.23,-0.152,1.148,-0.08
29.24,-0.092,0.794,0.128
29.25,-0.184,0.918,0.126
29.26,-0.305,1.061,-0.072
29.27,-0.25,0.891,-0.149
29.28,-0.213,1.145,-0.018
29.29,-0.046,0.819,0.199
29.3,-0.198,1.095,0.027
29.31,-0.307,0.776,-0.108
29.32,-0.243,1.107,-0.098
29.33,-0.139,1.012,0.072
29.34,0.011,0.844,0.087
29.35,-0.298,1.017,0.029
29.36,-0.312,0.811,-0.116
29.37,-0.211,1.203,-0.069
29.38,-0.114,0.869,0.078
29.39,-0.15,0.989,0.142
29.4,-0.307,0.877,-0.042
29.41,-0.328,1.114,-0.111
29.42,-0.134,0.973,-0.116
29.43,-0.096,0.797,0.123
29.44,-0.23,1.038,0.143
29.45,-0.281,0.89,-0.089
29.46,-0.312,1.088,-0.128
29.47,-0.234,0.865,-0.026
29.48,-0.07,1.068,0.177
29.49,-0.204,0.913,0.058
29.5,-0.316,0.9,-0.071
29.51,-0.205,1.044,-0.138
29.52,-0.11,0.994,0.061
29.53,-0.032,1.079,0.111
29.54,-0.227,0.752,-0.0
29.55,-0.36,1.106,-0.137
29.56,-0.218,0.978,-0.035
29.57,-0.073,1.094,0.046
29.58,-0.109,0.878,0.121
29.59,-0.364,0.895,-0.011
29.6,-0.35,1.128,-0.098
29.61,-0.095,0.846,-0.065
29.62,-0.153,1.114,0.121
29.63,-0.122,0.716,0.129
29.64,-0.353,1.12,-0.08
29.65,-0.206,0.964,-0.128
29.66,-0.209,1.004,-0.038
29.67,-0.123,0.938,0.166
29.68,-0.193,0.816,0.12
29.69,-0.357,1.171,-0.13
29.7,-0.242,0.829,-0.112
29.71,-0.191,1.248,0.086
29.72,0.023,0.772,0.125
29.73,-0.271,1.041,-0.003
29.74,-0.36,0.836,-0.13
29.75,-0.157,1.118,-0.059
29.76,-0.091,1.019,0.074
29.77,-0.138,0.787,0.119
29.78,-0.383,1.095,-0.003
29.79,-0.297,0.86,-0.12
29.8,-0.191,1.162,-0.048
29.81,-0.08,0.791,0.116
29.82,-0.192,1.001,0.117
29.83,-0.276,0.975,-0.073
29.84,-0.279,0.967,-0.149
29.85,-0.191,1.05,-0.054
29.86,-0.083,0.829,0.18
29.87,-0.184,1.101,0.082
29.88,-0.337,0.804,-0.131
29.89,-0.24,1.103,-0.13
29.9,-0.146,0.977,0.073
29.91,-0.032,0.972,0.13
29.92,-0.183,0.888,0.01
29.93,-0.363,0.919,-0.079
29.94,-0.144,1.167,-0.098
29.95,-0.126,0.843,0.054
29.96,-0.114,1.013,0.149
29.97,-0.326,0.843,-0.028
29.98,-0.325,1.139,-0.095
29.99,-0.198,0.969,-0.083
30.0,-0.107,0.884,0.09
30.01,-0.171,0.937,0.144
30.02,-0.262,0.915,-0.083
30.03,-0.383,1.138,-0.125
30.04,-0.13,0.805,-0.031
30.05,-0.119,1.168,0.164
30.06,-0.152,0.837,0.083
30.07,-0.339,1.021,-0.124
30.08,-0.222,0.942,-0.119
30.09,-0.189,1.001,0.049
30.1,-0.056,1.056,0.116
30.11,-0.204,0.743,0.025
30.12,-0.325,1.117,-0.143
30.13,-0.241,0.911,-0.033
30.14,-0.117,1.198,0.045
30.15,-0.086,0.747,0.167
30.16,-0.284,0.939,-0.042
30.17,-0.332,1.084,-0.124
30.18,-0.183,0.898,-0.105
30.19,-0.106,1.077,0.111
30.2,-0.103,0.736,0.141
30.21,-0.437,1.188,-0.037
30.22,-0.218,0.855,-0.164
30.23,-0.228,1.094,-0.057
30.24,-0.115,0.896,0.106
30.25,-0.218,0.854,0.145
30.26,-0.263,1.112,-0.098
30.27,-0.236,0.777,-0.166
30.28,-0.231,1.209,0.032
30.29,-0.069,0.804,0.152
30.3,-0.212,1.051,0.065
30.31,-0.23,0.861,-0.152
30.32,-0.282,0.992,-0.075
30.33,-0.121,1.129,0.06
30.34,-0.01,0.85,0.125
30.35,-0.239,1.023,-0.01
30.36,-0.334,0.798,-0.104
30.37,-0.218,1.242,-0.048
30.38,-0.07,0.861,0.067
30.39,-0.142,0.92,0.132
30.4,-0.307,0.96,-0.031
30.41,-0.297,0.972,-0.103
30.42,-0.129,1.106,-0.056
30.43,-0.128,0.79,0.12
30.44,-0.196,1.021,0.126
30.45,-0.292,0.891,-0.055
30.46,-0.273,1.129,-0.152
30.47,-0.161,0.936,-0.032
30.48,-0.115,0.964,0.122
30.49,-0.219,0.987,0.111
30.5,-0.34,0.881,-0.131
30.51,-0.222,1.079,-0.124
30.52,-0.153,1.009,0.08
30.53,-0.039,1.039,0.11
30.54,-0.21,0.743,-0.001
30.55,-0.37,1.136,-0.124
30.56,-0.164,0.94,-0.039
30.57,-0.127,1.079,0.048
30.58,-0.156,0.807,0.122
30.59,-0.333,0.927,-0.008
30.6,-0.227,1.152,-0.14
30.61,-0.243,0.824,-0.073
30.62,-0.076,1.003,0.101
30.63,-0.191,0.776,0.162
30.64,-0.298,1.123,-0.116
30.65,-0.297,0.834,-0.146
30.66,-0.228,1.022,-0.006
30.67,-0.079,1.029,0.182
30.68,-0.12,0.806,0.056
30.69,-0.398,1.094,-0.113
30.7,-0.212,0.791,-0.074
30.71,-0.15,1.301,0.074
30.72,-0.03,0.793,0.13
30.73,-0.266,0.932,0.048
30.74,-0.288,0.932,-0.135
30.75,-0.243,1.041,-0.057
30.76,-0.135,1.139,0.011
30.77,-0.015,0.685,0.149
30.78,-0.342,1.109,-0.018
30.79,-0.354,0.833,-0.08
30.8,-0.198,1.165,-0.08
30.81,-0.056,0.861,0.081
30.82,-0.138,0.901,0.103
30.83,-0.362,1.056,-0.016
30.84,-0.209,0.906,-0.21
30.85,-0.231,1.06,-0.041
30.86,-0.086,0.767,0.143
30.87,-0.235,1.135,0.149
30.88,-0.263,0.88,-0.137
30.89,-0.304,0.975,-0.1
30.9,-0.234,0.989,0.025
30.91,-0.019,0.939,0.161
30.92,-0.186,1.02,0.061
30.93,-0.322,0.786,-0.137
30.94,-0.268,1.151,-0.051
30.95,-0.069,0.969,0.036
30.96,-0.07,1.011,0.101
30.97,-0.138,0.825,0.012
30.98,-0.398,1.029,-0.089
30.99,-0.171,1.113,-0.073
31.0,-0.07,0.912,0.077
31.01,-0.125,1.009,0.125
31.02,-0.357,0.816,-0.02
31.03,-0.296,1.228,-0.093
31.04,-0.203,0.901,-0.085
31.05,-0.11,0.966,0.083
31.06,-0.215,0.875,0.147
31.07,-0.325,1.007,-0.036
31.08,-0.313,1.056,-0.148
31.09,-0.154,0.815,-0.04
31.1,-0.17,1.126,0.138
31.11,-0.108,0.782,0.127
31.12,-0.372,1.13,-0.134
31.13,-0.287,0.846,-0.112
31.14,-0.18,1.085,-0.001
31.15,-0.106,1.022,0.159
31.16,-0.123,0.79,0.012
31.17,-0.393,1.094,-0.113
31.18,-0.221,0.847,-0.078
31.19,-0.166,1.315,0.082
31.2,-0.017,0.729,0.114
31.21,-0.24,0.975,0.066
31.22,-0.325,0.938,-0.147
31.23,-0.243,1.023,-0.052
31.24,-0.103,1.115,0.036
31.25,-0.017,0.7,0.116
31.26,-0.345,1.108,-0.017
31.27,-0.311,0.863,-0.086
31.28,-0.198,1.17,-0.092
31.29,-0.073,0.818,0.103
31.3,-0.133,0.911,0.114
31.31,-0.375,1.055,-0.016
31.32,-0.234,0.906,-0.171
31.33,-0.209,1.062,-0.038
31.34,-0.135,0.888,0.173
31.35,-0.178,1.103,0.093
31.36,-0.314,0.787,-0.138
31.37,-0.289,1.077,-0.096
31.38,-0.176,0.963,0.037
31.39,-0.061,1.048,0.131
31.4,-0.163,0.873,0.056
31.41,-0.3,0.918,-0.135
31.42,-0.302,1.111,-0.079
31.43,-0.107,0.957,0.046
31.44,-0.065,1.059,0.124
31.45,-0.248,0.765,0.005
31.46,-0.374,1.077,-0.131
31.47,-0.217,0.982,-0.044
31.48,-0.063,1.058,0.04
31.49,-0.125,0.882,0.13
31.5,-0.332,0.869,-0.019
31.51,-0.318,1.178,-0.109
31.52,-0.173,0.869,-0.072
31.53,-0.072,1.043,0.078
31.54,-0.131,0.766,0.119
31.55,-0.374,1.119,-0.043
31.56,-0.279,0.947,-0.152
31.57,-0.187,0.952,-0.037
31.58,-0.104,1.037,0.144
31.59,-0.209,0.796,0.083
31.6,-0.375,1.138,-0.07
31.61,-0.252,0.769,-0.123
31.62,-0.186,1.195,0.041
31.63,-0.075,0.875,0.143
31.64,-0.222,0.943,0.06
31.65,-0.312,0.969,-0.126
31.66,-0.225,0.906,-0.083
31.67,-0.165,1.239,0.05
31.68,-0.014,0.77,0.116
31.69,-0.287,1.062,0.026
31.7,-0.329,0.803,-0.133
31.71,-0.252,1.131,-0.046
31.72,-0.082,1.01,0.045
31.73,-0.108,0.837,0.126
31.74,-0.261,1.003,0.004
31.75,-0.335,0.911,-0.095
31.76,-0.163,1.152,-0.116
31.77,-0.106,0.749,0.1
31.78,-0.126,1.05,0.124
31.79,-0.35,0.935,-0.011
31.8,-0.24,1.037,-0.17
31.81,-0.255,0.933,-0.031
31.82,-0.064,0.823,0.094
31.83,-0.262,1.092,0.159
31.84,-0.21,0.833,-0.136
31.85,-0.354,1.088,-0.084
31.86,-0.125,0.822,-0.016
31.87,-0.141,1.112,0.179
31.88,-0.13,0.87,0.057
31.89,-0.354,0.956,-0.122
31.9,-0.209,1.026,-0.109
31.91,-0.221,0.971,0.065
31.92,-0.058,1.102,0.145
31.93,-0.177,0.745,-0.001
31.94,-0.381,1.082,-0.118
31.95,-0.205,0.926,-0.073
31.96,-0.104,1.128,0.025
31.97,-0.095,0.834,0.147
31.98,-0.198,0.839,-0.023
31.99,-0.413,1.19,-0.1
32.0,-0.127,0.847,-0.078
32.01,-0.15,1.14,0.075
32.02,-0.067,0.713,0.114
32.03,-0.393,1.073,-0.057
32.04,-0.313,0.934,-0.098
32.05,-0.141,0.981,-0.09
32.06,-0.121,1.003,0.093
32.07,-0.184,0.764,0.122
32.08,-0.33,1.187,-0.047
32.09,-0.237,0.795,-0.147
32.1,-0.218,1.122,-0.014
32.11,-0.099,0.861,0.155
32.12,-0.212,0.983,0.076
32.13,-0.306,1.006,-0.109
32.14,-0.219,0.844,-0.111
32.15,-0.196,1.178,0.025
32.16,-0.017,0.876,0.147
32.17,-0.224,1.028,0.014
32.18,-0.348,0.761,-0.122
32.19,-0.244,1.198,-0.056
32.2,-0.049,0.92,0.028
32.21,-0.1,0.977,0.133
32.22,-0.244,0.879,-0.023
32.23,-0.36,0.997,-0.084
32.24,-0.154,1.093,-0.083
32.25,-0.078,0.822,0.074
32.26,-0.157,1.045,0.13
32.27,-0.351,0.847,-0.031
32.28,-0.322,1.147,-0.119
32.29,-0.184,0.87,-0.068
32.3,-0.104,0.962,0.103
32.31,-0.255,0.935,0.133
32.32,-0.258,0.908,-0.078
32.33,-0.317,1.112,-0.109
32.34,-0.14,0.797,-0.025
32.35,-0.132,1.083,0.148
32.36,-0.167,0.804,0.072
32.37,-0.352,1.085,-0.088
32.38,-0.202,0.914,-0.142
32.39,-0.146,1.046,0.019
32.4,-0.117,1.004,0.158
32.41,-0.145,0.78,0.008
32.42,-0.361,1.083,-0.142
32.43,-0.242,0.828,-0.033
32.44,-0.094,1.264,0.052
32.45,-0.094,0.769,0.109
32.46,-0.265,0.955,0.019
32.47,-0.377,0.98,-0.121
32.48,-0.108,0.965,-0.084
32.49,-0.121,1.131,0.046
32.5,-0.153,0.687,0.136
32.51,-0.345,1.149,0.006
32.52,-0.254,0.859,-0.143
32.53,-0.227,1.052,-0.05
32.54,-0.107,0.89,0.095
32.55,-0.169,0.932,0.145
32.56,-0.357,1.084,-0.085
32.57,-0.289,0.816,-0.108
32.58,-0.188,1.158,-0.056
32.59,-0.068,0.845,0.168
32.6,-0.239,1.111,0.078
32.61,-0.278,0.836,-0.144
32.62,-0.277,0.997,-0.078
32.63,-0.157,1.066,0.013
32.64,-0.044,0.873,0.146
32.65,-0.287,1.016,0.043
32.66,-0.309,0.752,-0.132
32.67,-0.262,1.213,-0.021
32.68,-0.03,0.976,0.037
32.69,-0.123,0.95,0.136
32.7,-0.225,0.847,-0.002
32.71,-0.329,1.026,-0.081
32.72,-0.158,1.119,-0.126
32.73,-0.137,0.811,0.084
32.74,-0.18,1.036,0.145
32.75,-0.274,0.852,-0.021
32.76,-0.312,1.195,-0.157
32.77,-0.192,0.844,-0.076
32.78,-0.148,0.99,0.111
32.79,-0.183,0.913,0.111
32.8,-0.278,0.935,-0.051
32.81,-0.282,1.089,-0.16
32.82,-0.19,0.8,-0.043
32.83,-0.163,1.117,0.176
32.84,-0.128,0.8,0.1
32.85,-0.341,1.079,-0.126
32.86,-0.226,0.839,-0.14
32.87,-0.23,1.098,0.056
32.88,-0.055,1.052,0.169
32.89,-0.159,0.773,0.005
32.9,-0.381,1.099,-0.094
32.91,-0.212,0.824,-0.081
32.92,-0.122,1.271,0.068
32.93,0.006,0.771,0.103
32.94,-0.295,0.95,0.004
32.95,-0.335,0.948,-0.135
32.96,-0.184,0.997,-0.027
32.97,-0.076,1.116,0.016
32.98,-0.163,0.805,0.11
32.99,-0.364,1.13,-0.022
33.0,-0.213,0.876,-0.149
33.01,-0.211,1.135,-0.044
33.02,-0.057,0.801,0.109
33.03,-0.246,1.036,0.127
33.04,-0.279,0.953,-0.105
33.05,-0.28,0.956,-0.108
33.06,-0.177,1.077,-0.024
33.07,-0.1,0.835,0.177
33.08,-0.22,1.086,0.049
33.09,-0.339,0.802,-0.104
33.1,-0.196,1.091,-0.114
33.11,-0.168,0.996,0.051
33.12,-0.005,0.963,0.118
33.13,-0.241,0.926,0.035
33.14,-0.302,0.833,-0.124
33.15,-0.24,1.18,-0.033
33.16,-0.032,0.891,0.019
33.17,-0.151,1.065,0.144
33.18,-0.247,0.82,-0.01
33.19,-0.353,1.09,-0.156
33.2,-0.201,0.976,-0.026
33.21,-0.014,0.95,0.062
33.22,-0.143,0.937,0.115
33.23,-0.332,0.871,0.006
33.24,-0.312,1.216,-0.161
33.25,-0.169,0.767,-0.065
33.26,-0.15,1.038,0.144
33.27,-0.151,0.783,0.103
33.28,-0.394,1.097,-0.054
33.29,-0.239,0.973,-0.123
33.3,-0.168,0.926,-0.025
33.31,-0.128,1.001,0.151
33.32,-0.177,0.783,0.072
33.33,-0.353,1.162,-0.129
33.34,-0.24,0.792,-0.134
33.35,-0.129,1.165,0.018
33.36,-0.063,0.938,0.177
33.37,-0.21,0.893,0.016
33.38,-0.33,0.984,-0.122
33.39,-0.229,0.871,-0.066
33.4,-0.14,1.199,0.087
33.41,-0.034,0.735,0.111
33.42,-0.307,1.089,-0.017
33.43,-0.359,0.815,-0.145
33.44,-0.194,1.113,-0.012
33.45,-0.023,1.014,0.046
33.46,-0.126,0.81,0.105
33.47,-0.397,1.096,-0.023
33.48,-0.235,0.854,-0.128
33.49,-0.17,1.158,-0.041
33.5,-0.07,0.77,0.139
33.51,-0.246,1.036,0.134
33.52,-0.32,0.904,-0.102
33.53,-0.272,0.949,-0.102
33.54,-0.184,1.081,-0.023
33.55,-0.042,0.82,0.157
33.56,-0.257,1.077,0.055
33.57,-0.272,0.779,-0.115
33.58,-0.238,1.142,-0.118
33.59,-0.082,0.951,0.024
33.6,-0.109,0.994,0.16
33.61,-0.198,0.938,-0.0
33.62,-0.317,0.892,-0.139
33.63,-0.229,1.113,-0.069
33.64,-0.1,0.902,0.087
33.65,-0.083,1.068,0.126
33.66,-0.346,0.78,-0.028
33.67,-0.327,1.03,-0.128
33.68,-0.173,1.024,-0.031
33.69,-0.091,0.954,0.072
33.7,-0.218,0.916,0.117
33.71,-0.342,0.89,-0.047
33.72,-0.243,1.187,-0.149
33.73,-0.211,0.82,-0.033
33.74,-0.165,1.042,0.175
33.75,-0.125,0.827,0.107
33.76,-0.323,1.027,-0.153
33.77,-0.271,0.914,-0.119
33.78,-0.18,1.025,0.082
33.79,-0.001,1.072,0.108
33.8,-0.219,0.743,0.012
33.81,-0.345,1.097,-0.135
33.82,-0.182,0.977,-0.028
33.83,-0.124,1.162,0.04
33.84,-0.075,0.626,0.161
33.85,-0.337,1.079,-0.043
33.86,-0.257,0.973,-0.104
33.87,-0.145,1.004,-0.107
33.88,-0.152,0.974,0.14
33.89,-0.187,0.782,0.125
33.9,-0.342,1.175,-0.068
33.91,-0.229,0.781,-0.146
33.92,-0.274,1.161,0.004
33.93,-0.086,0.852,0.189
33.94,-0.155,1.013,0.067
33.95,-0.296,0.93,-0.173
33.96,-0.26,0.884,-0.097
33.97,-0.151,1.225,0.041
33.98,0.034,0.781,0.119
33.99,-0.3,1.028,0.038
34.0,-0.294,0.806,-0.13
34.01,-0.225,1.222,-0.043
34.02,-0.091,0.902,0.004
34.03,-0.113,0.852,0.155
34.04,-0.317,1.04,-0.03
34.05,-0.284,0.911,-0.119
34.06,-0.133,1.151,-0.098
34.07,-0.158,0.779,0.138
34.08,-0.138,1.021,0.125
34.09,-0.331,0.912,-0.034
34.1,-0.292,1.065,-0.147
34.11,-0.185,0.981,-0.038
34.12,-0.131,0.879,0.154
34.13,-0.192,1.063,0.079
34.14,-0.255,0.831,-0.162
34.15,-0.258,1.153,-0.088
34.16,-0.151,0.884,0.036
34.17,-0.055,1.046,0.17
34.18,-0.192,0.843,0.005
34.19,-0.355,0.941,-0.132
34.2,-0.235,1.055,-0.056
34.21,-0.114,0.967,0.099
34.22,-0.094,1.038,0.114
34.23,-0.291,0.791,-0.021
34.24,-0.368,1.157,-0.111
34.25,-0.17,0.911,-0.051
34.26,-0.059,0.971,0.102
34.27,-0.182,0.859,0.148
34.28,-0.32,0.939,-0.063
34.29,-0.288,1.142,-0.127
34.3,-0.146,0.839,-0.031
34.31,-0.172,1.107,0.172
34.32,-0.163,0.785,0.074
34.33,-0.385,1.114,-0.117
34.34,-0.202,0.875,-0.168
34.35,-0.139,1.037,0.066
34.36,-0.101,0.956,0.146
34.37,-0.165,0.833,0.021
34.38,-0.402,1.109,-0.138
34.39,-0.21,0.789,-0.043
34.4,-0.098,1.248,0.076
34.41,-0.094,0.757,0.089
34.42,-0.379,0.987,-0.02
34.43,-0.276,0.952,-0.123
34.44,-0.115,1.048,-0.031
34.45,-0.179,1.042,0.111
34.46,-0.133,0.678,0.128
34.47,-0.403,1.231,-0.068
34.48,-0.185,0.872,-0.148
34.49,-0.194,1.109,-0.029
34.5,-0.07,0.815,0.207
34.51,-0.128,0.929,0.015
34.52,-0.413,1.007,-0.129
34.53,-0.214,0.844,-0.068
34.54,-0.112,1.261,0.086
34.55,-0.082,0.686,0.135
34.56,-0.334,1.099,-0.02
34.57,-0.358,0.858,-0.09
34.58,-0.124,1.115,-0.092
34.59,-0.156,0.924,0.101
34.6,-0.133,0.783,0.123
34.61,-0.158,0.977,-0.03
34.62,-0.144,1.068,0.072
34.63,-0.144,0.745,0.117
34.64,-0.344,1.033,-0.098
34.65,-0.231,1.05,-0.124
34.66,-0.218,0.944,-0.021
34.67,-0.109,1.006,0.155
34.68,-0.153,0.794,0.063
34.69,-0.394,1.14,-0.147
34.7,-0.238,0.794,-0.094
34.71,-0.108,1.194,0.066
34.72,-0.192,0.9,0.221
34.73,-0.331,0.882,-0.01
34.74,-0.339,1.008,-0.128
34.75,-0.055,0.997,-0.062
34.76,-0.181,1.148,0.094
34.77,-0.131,0.618,0.104
34.78,-0.297,1.169,-0.043
34.79,-0.268,0.925,-0.134
34.8,-0.227,1.029,-0.083
34.81,-0.141,0.927,0.186
34.82,-0.161,0.853,0.108
34.83,-0.39,1.092,-0.136
34.84,-0.25,0.798,-0.078
34.85,-0.178,1.279,0.055
34.86,-0.066,0.777,0.14
34.87,-0.269,1.018,0.012
34.88,-0.265,0.901,-0.17
34.89,-0.218,1.037,-0.066
34.9,-0.115,1.029,0.096
34.91,-0.135,0.731,0.104
34.92,-0.371,1.122,-0.046
34.93,-0.182,0.834,-0.174
34.94,-0.188,1.18,-0.037
34.95,-0.114,0.791,0.125
34.96,-0.164,0.969,0.12
34.97,-0.356,1.003,-0.154
34.98,-0.235,0.891,-0.102
34.99,-0.155,1.196,0.001
35.0,-0.063,0.784,0.184
35.01,-0.267,1.046,0.011
35.02,-0.288,0.833,-0.134
35.03,-0.201,1.134,-0.057
35.04,-0.118,0.926,0.077
35.05,-0.039,0.818,0.142
35.06,-0.337,1.091,-0.038
35.07,-0.282,0.899,-0.138
35.08,-0.223,1.162,-0.035
35.09,-0.087,0.778,0.116
35.1,-0.184,1.041,0.107
35.11,-0.349,0.933,-0.043
35.12,-0.231,1.003,-0.158
35.13,-0.196,0.997,0.025
35.14,-0.037,0.888,0.182
35.15,-0.231,1.078,0.031
35.16,-0.338,0.761,-0.174
35.17,-0.213,1.154,-0.077
35.18,-0.136,0.962,0.087
35.19,-0.079,0.955,0.104
35.2,-0.285,0.91,-0.001
35.21,-0.251,0.987,-0.156
35.22,-0.197,1.118,-0.045
35.23,-0.089,0.772,0.087
35.24,-0.17,1.022,0.158
35.25,-0.364,0.853,-0.104
35.26,-0.311,1.15,-0.114
35.27,-0.172,0.884,-0.021
35.28,-0.056,0.97,0.168
35.29,-0.233,0.934,0.1
35.3,-0.329,0.922,-0.148
35.31,-0.22,1.113,-0.109
35.32,-0.142,0.887,0.052
35.33,-0.109,1.076,0.15
35.34,-0.248,0.778,-0.041
35.35,-0.351,1.044,-0.122
35.36,-0.158,1.0,-0.032
35.37,-0.097,1.031,0.087
35.38,-0.178,0.852,0.122
35.39,-0.305,0.997,-0.056
35.4,-0.265,1.167,-0.157
35.41,-0.177,0.852,-0.008
35.42,-0.068,1.047,0.175
35.43,-0.206,0.795,0.086
35.44,-0.37,1.115,-0.178
35.45,-0.262,0.857,-0.071
35.46,-0.129,1.135,0.066
35.47,-0.062,0.913,0.138
35.48,-0.3,0.82,-0.022
35.49,-0.258,1.089,-0.127
35.5,-0.193,0.973,-0.044
35.51,-0.164,1.07,0.083
35.52,-0.099,0.675,0.118
35.53,-0.345,1.157,-0.079
35.54,-0.246,0.968,-0.173
35.55,-0.258,0.956,-0.01
35.56,-0.083,0.963,0.188
35.57,-0.17,0.821,0.069
35.58,-0.407,1.086,-0.15
35.59,-0.243,0.791,-0.102
35.6,-0.1,1.269,0.078
35.61,-0.082,0.784,0.125
35.62,-0.257,0.964,0.004
35.63,-0.39,0.992,-0.115
35.64,-0.106,0.978,-0.085
35.65,-0.194,1.072,0.091
35.66,-0.153,0.658,0.136
35.67,-0.292,1.198,-0.058
35.68,-0.256,0.845,-0.18
35.69,-0.272,1.097,-0.031
35.7,-0.054,0.865,0.175
35.71,-0.133,0.939,0.055
35.72,-0.373,1.022,-0.126
35.73,-0.226,0.858,-0.053
35.74,-0.147,1.254,0.035
35.75,-0.096,0.623,0.116
35.76,-0.251,1.084,0.022
35.77,-0.361,0.953,-0.139
35.78,-0.159,1.045,-0.134
35.79,-0.207,0.928,0.119
35.8,-0.05,0.778,0.127
35.81,-0.358,1.164,-0.037
35.82,-0.251,0.808,-0.165
35.83,-0.269,1.101,-0.003
35.84,-0.073,0.805,0.198
35.85,-0.176,1.076,0.064
35.86,-0.391,0.858,-0.175
35.87,-0.179,0.891,-0.128
35.88,-0.192,1.183,0.087
35.89,0.003,0.764,0.129
35.9,-0.249,1.055,0.003
35.91,-0.323,0.818,-0.095
35.92,-0.219,1.239,-0.039
35.93,-0.147,0.868,0.083
35.94,-0.12,0.87,0.137
35.95,-0.327,1.008,-0.051
35.96,-0.204,0.976,-0.148
35.97,-0.231,1.106,-0.065
35.98,-0.134,0.738,0.185
35.99,-0.172,1.088,0.102
36.0,-0.323,0.863,-0.138
36.01,-0.246,1.043,-0.121
36.02,-0.2,1.018,0.036
36.03,0.006,0.933,0.131
36.04,-0.229,0.96,-0.006
36.05,-0.332,0.848,-0.101
36.06,-0.213,1.214,-0.06
36.07,-0.092,0.873,0.058
36.08,-0.148,0.973,0.12
36.09,-0.257,0.854,-0.034
36.1,-0.264,1.103,-0.146
36.11,-0.14,1.02,-0.053
36.12,-0.157,0.819,0.106
36.13,-0.219,1.012,0.176
36.14,-0.299,0.877,-0.151
36.15,-0.305,1.146,-0.092
36.16,-0.188,0.873,0.055
36.17,-0.007,1.056,0.128
36.18,-0.191,0.804,-0.01
36.19,-0.402,0.953,-0.117
36.2,-0.105,1.138,-0.081
36.21,-0.193,0.965,0.077
36.22,-0.162,0.868,0.17
36.23,-0.33,0.914,0.0
36.24,-0.274,1.152,-0.183
36.25,-0.196,0.834,-0.047
36.26,-0.173,1.143,0.18
36.27,-0.076,0.778,0.061
36.28,-0.373,1.035,-0.127
36.29,-0.213,0.956,-0.143
36.3,-0.177,1.069,0.059
36.31,-0.023,0.986,0.122
36.32,-0.217,0.738,-0.004
36.33,-0.402,1.162,-0.102
36.34,-0.176,0.927,-0.089
36.35,-0.158,1.141,0.039
36.36,-0.138,0.703,0.165
36.37,-0.294,0.98,-0.024
36.38,-0.284,1.084,-0.159
36.39,-0.14,0.876,-0.085
36.4,-0.191,1.087,0.175
36.41,-0.107,0.733,0.127
36.42,-0.356,1.175,-0.119
36.43,-0.297,0.807,-0.157
36.44,-0.251,1.081,0.049
36.45,-0.09,0.99,0.188
36.46,-0.149,0.804,-0.006
36.47,-0.33,1.047,-0.114
36.48,-0.165,0.867,-0.085
36.49,-0.146,1.26,0.057
36.5,-0.087,0.67,0.119
36.51,-0.322,1.041,0.001
36.52,-0.345,0.902,-0.126
36.53,-0.105,1.063,-0.087
36.54,-0.161,1.005,0.101
36.55,-0.157,0.738,0.166
36.56,-0.331,1.171,-0.089
36.57,-0.302,0.795,-0.133
36.58,-0.194,1.162,-0.006
36.59,-0.054,0.897,0.153
36.6,-0.177,0.995,0.048
36.61,-0.341,0.94,-0.111
36.62,-0.215,0.926,-0.137
36.63,-0.153,1.196,0.094
36.64,-0.013,0.727,0.124
36.65,-0.402,1.093,0.017
36.66,-0.354,0.789,-0.112
36.67,-0.119,1.192,-0.091
36.68,-0.183,0.876,0.081
36.69,-0.092,0.868,0.157
36.7,-0.28,1.107,-0.061
36.71,-0.352,0.848,-0.123
36.72,-0.267,1.082,-0.033
36.73,-0.007,0.844,0.142
36.74,-0.218,1.103,0.05
36.75,-0.332,0.802,-0.115
36.76,-0.275,1.06,-0.069
36.77,-0.063,1.106,0.007
36.78,-0.03,0.854,0.13
36.79,-0.287,1.001,0.024
36.8,-0.323,0.834,-0.076
36.81,-0.156,1.289,-0.121
36.82,-0.129,0.818,0.057
36.83,-0.183,0.929,0.19
36.84,-0.32,0.946,0.007
36.85,-0.247,1.045,-0.212
36.86,-0.24,0.981,-0.063
36.87,-0.074,0.803,0.12
36.88,-0.178,1.101,0.143
36.89,-0.297,0.806,-0.138
36.9,-0.329,1.082,-0.091
36.91,-0.134,0.909,0.013
36.92,-0.11,1.096,0.184
36.93,-0.194,0.87,0.03
36.94,-0.328,0.877,-0.116
36.95,-0.232,1.202,-0.046
36.96,-0.09,0.903,-0.001
36.97,-0.12,0.951,0.151
36.98,-0.208,0.818,-0.035
36.99,-0.352,1.23,-0.116
37.0,-0.166,0.936,-0.116
37.01,-0.153,0.931,0.132
37.02,-0.107,0.938,0.155
37.03,-0.397,1.009,-0.112
37.04,-0.256,0.975,-0.12
37.05,-0.179,0.954,0.012
37.06,-0.106,1.124,0.158
37.07,-0.148,0.735,0.022
37.08,-0.383,1.112,-0.1
37.09,-0.236,0.94,-0.055
37.1,-0.118,1.198,0.014
37.11,-0.11,0.761,0.136
37.12,-0.273,0.872,0.025
37.13,-0.346,1.149,-0.109
37.14,-0.192,0.887,-0.125
37.15,-0.209,1.127,0.107
37.16,-0.083,0.719,0.138
37.17,-0.349,1.14,-0.062
37.18,-0.228,0.878,-0.15
37.19,-0.219,0.996,-0.036
37.2,-0.183,0.932,0.171
37.21,-0.113,0.83,0.113
37.22,-0.351,1.139,-0.11
37.23,-0.297,0.745,-0.13
37.24,-0.245,1.264,0.091
37.25,-0.019,0.822,0.13
37.26,-0.242,0.967,0.067
37.27,-0.276,0.908,-0.183
37.28,-0.228,1.061,-0.033
37.29,-0.133,1.128,0.031
37.3,-0.101,0.661,0.142
37.31,-0.3,1.111,-0.002
37.32,-0.279,0.895,-0.157
37.33,-0.198,1.111,-0.07
37.34,-0.135,0.841,0.1
37.35,-0.169,0.943,0.148
37.36,-0.287,1.074,-0.081
37.37,-0.217,0.85,-0.157
37.38,-0.332,1.148,0.006
37.39,0.026,0.809,0.143
37.4,-0.178,1.116,0.035
37.41,-0.303,0.787,-0.097
37.42,-0.302,1.095,-0.074
37.43,-0.13,1.08,0.03
37.44,-0.071,0.851,0.126
37.45,-0.244,0.988,0.042
37.46,-0.333,0.855,-0.136
37.47,-0.158,1.242,-0.072
37.48,-0.099,0.813,0.061
37.49,-0.102,0.943,0.14
37.5,-0.308,0.924,0.014
37.51,-0.294,1.071,-0.15
37.52,-0.203,1.005,-0.073
37.53,-0.089,0.85,0.107
37.54,-0.224,1.05,0.135
37.55,-0.287,0.851,-0.066
37.56,-0.335,1.168,-0.151
37.57,-0.126,0.836,-0.023
37.58,-0.155,1.051,0.182
37.59,-0.15,0.919,0.08
37.6,-0.337,0.935,-0.151
37.61,-0.248,1.035,-0.105
37.62,-0.145,0.964,0.074
37.63,-0.091,1.106,0.123
37.64,-0.169,0.725,-0.004
37.65,-0.421,1.117,-0.135
37.66,-0.163,0.961,-0.044
37.67,-0.13,1.058,0.062
37.68,-0.1,0.839,0.128
37.69,-0.401,0.865,-0.03
37.7,-0.231,1.171,-0.14
37.71,-0.151,0.86,-0.063
37.72,-0.137,1.049,0.098
37.73,-0.204,0.785,0.165
37.74,-0.274,1.1,-0.101
37.75,-0.251,0.909,-0.152
37.76,-0.223,1.001,0.018
37.77,-0.113,1.051,0.163
37.78,-0.128,0.756,0.039
37.79,-0.394,1.129,-0.093
37.8,-0.262,0.877,-0.093
37.81,-0.064,1.263,0.025
37.82,-0.081,0.782,0.12
37.83,-0.287,0.902,-0.013
37.84,-0.374,0.98,-0.072
37.85,-0.158,1.061,-0.096
37.86,-0.121,0.936,0.089
37.87,-0.157,0.823,0.155
37.88,-0.372,1.137,-0.053
37.89,-0.258,0.777,-0.154
37.9,-0.204,1.149,-0.035
37.91,-0.111,0.812,0.14
37.92,-0.187,1.0,0.111
37.93,-0.311,0.951,-0.106
37.94,-0.162,0.914,-0.133
37.95,-0.238,1.134,0.021
37.96,-0.051,0.768,0.185
37.97,-0.266,1.087,0.051
37.98,-0.301,0.777,-0.151
37.99,-0.315,1.141,-0.045
38.0,-0.069,0.974,0.015
38.01,-0.094,0.925,0.147
38.02,-0.242,0.954,-0.012
38.03,-0.325,0.918,-0.107
38.04,-0.181,1.172,-0.105
38.05,-0.103,0.797,0.098
38.06,-0.173,1.082,0.119
38.07,-0.298,0.862,-0.048
38.08,-0.303,1.104,-0.125
38.09,-0.163,0.956,-0.068
38.1,-0.131,0.894,0.134
38.11,-0.207,0.996,0.143
38.12,-0.25,0.872,-0.112
38.13,-0.301,1.137,-0.083
38.14,-0.159,0.858,-0.025
38.15,-0.162,1.109,0.171
38.16,-0.152,0.85,0.06
38.17,-0.355,0.966,-0.137
38.18,-0.254,1.04,-0.075
38.19,-0.068,1.043,0.054
38.2,-0.125,0.995,0.129
38.21,-0.226,0.743,0.029
38.22,-0.382,1.192,-0.153
38.23,-0.182,0.946,-0.063
38.24,-0.138,1.123,0.05
38.25,-0.129,0.756,0.129
38.26,-0.302,0.944,-0.023
38.27,-0.293,1.147,-0.112
38.28,-0.157,0.847,-0.067
38.29,-0.126,1.073,0.102
38.3,-0.206,0.71,0.165
38.31,-0.311,1.182,-0.096
38.32,-0.265,0.873,-0.109
38.33,-0.222,1.012,-0.071
38.34,-0.133,0.972,0.184
38.35,-0.117,0.849,0.042
38.36,-0.376,1.089,-0.046
38.37,-0.205,0.793,-0.092
38.38,-0.168,1.291,0.063
38.39,-0.001,0.761,0.101
38.4,-0.245,0.982,0.039
38.41,-0.353,0.957,-0.149
38.42,-0.215,1.024,-0.073
38.43,-0.142,1.083,0.024
38.44,-0.083,0.752,0.173
38.45,-0.335,1.097,-0.017
38.46,-0.329,0.799,-0.118
38.47,-0.222,1.163,-0.098
38.48,-0.066,0.82,0.087
38.49,-0.12,0.912,0.083
38.5,-0.341,1.028,-0.034
38.51,-0.251,0.892,-0.178
38.52,-0.172,1.063,-0.045
38.53,-0.1,0.775,0.167
38.54,-0.207,1.103,0.092
38.55,-0.301,0.851,-0.091
38.56,-0.265,1.046,-0.108
38.57,-0.194,0.967,0.021
38.58,-0.04,0.96,0.147
38.59,-0.186,0.986,0.043
38.6,-0.325,0.81,-0.12
38.61,-0.25,1.17,-0.045
38.62,-0.083,0.935,0.036
38.63,-0.102,1.052,0.15
38.64,-0.167,0.804,-0.014
38.65,-0.376,1.056,-0.126
38.66,-0.16,1.061,-0.089
38.67,-0.122,1.003,0.088
38.68,-0.158,0.898,0.123
38.69,-0.357,0.925,-0.04
38.7,-0.306,1.125,-0.114
38.71,-0.104,0.855,-0.043
38.72,-0.187,1.106,0.153
38.73,-0.161,0.743,0.098
38.74,-0.319,1.138,-0.098
38.75,-0.232,0.938,-0.14
38.76,-0.145,1.012,0.003
38.77,-0.145,0.998,0.145
38.78,-0.161,0.803,0.055
38.79,-0.348,1.137,-0.102
38.8,-0.249,0.823,-0.101
38.81,-0.217,1.218,0.083
38.82,0.011,0.835,0.136
38.83,-0.262,0.987,-0.029
38.84,-0.323,0.929,-0.138
38.85,-0.18,0.939,-0.072
38.86,-0.071,1.172,0.1
38.87,-0.112,0.725,0.094
38.88,-0.399,1.099,-0.016
38.89,-0.291,0.845,-0.101
38.9,-0.118,1.18,-0.044
38.91,-0.118,0.888,0.094
38.92,-0.213,0.831,0.125
38.93,-0.308,1.107,-0.099
38.94,-0.2,0.931,-0.116
38.95,-0.195,1.105,-0.016
38.96,-0.093,0.71,0.157
38.97,-0.257,1.11,0.113
38.98,-0.295,0.862,-0.157
38.99,-0.245,0.97,-0.121
39.0,-0.241,1.035,0.051
39.01,-0.004,0.888,0.14
39.02,-0.233,1.042,-0.002
39.03,-0.365,0.774,-0.139
39.04,-0.246,1.169,-0.041
39.05,-0.001,0.94,0.064
39.06,-0.127,0.956,0.115
39.07,-0.32,0.883,-0.013
39.08,-0.38,1.043,-0.102
39.09,-0.187,1.064,-0.077
39.1,-0.124,0.787,0.103
39.11,-0.181,1.062,0.116
39.12,-0.381,0.845,-0.075
39.13,-0.276,1.136,-0.131
39.14,-0.139,0.891,-0.019
39.15,-0.135,0.994,0.176
39.16,-0.173,0.922,0.068
39.17,-0.351,0.938,-0.132
39.18,-0.174,1.046,-0.138
39.19,-0.235,0.94,0.112
39.2,-0.039,1.077,0.111
39.21,-0.185,0.764,0.025
39.22,-0.405,1.092,-0.111
39.23,-0.147,1.009,-0.074
39.24,-0.112,1.014,0.052
39.25,-0.123,0.916,0.148
39.26,-0.301,0.881,-0.03
39.27,-0.335,1.181,-0.135
39.28,-0.235,0.833,-0.037
39.29,-0.12,1.112,0.063
39.3,-0.149,0.785,0.141
39.31,-0.333,1.063,-0.094
39.32,-0.307,0.914,-0.127
39.33,-0.167,0.938,-0.02
39.34,-0.111,1.083,0.169
39.35,-0.124,0.748,0.038
39.36,-0.404,1.147,-0.117
39.37,-0.208,0.798,-0.129
39.38,-0.152,1.193,0.066
39.39,-0.014,0.826,0.138
39.4,-0.292,0.874,0.037
39.41,-0.305,1.017,-0.095
39.42,-0.208,0.983,-0.066
39.43,-0.107,1.175,0.018
39.44,-0.069,0.667,0.135
39.45,-0.308,1.108,-0.017
39.46,-0.285,0.887,-0.105
39.47,-0.158,1.055,-0.115
39.48,-0.139,0.889,0.147
39.49,-0.225,0.977,0.125
39.5,-0.342,1.013,-0.058
39.51,-0.24,0.921,-0.162
39.52,-0.239,1.083,0.005
39.53,-0.082,0.793,0.142
39.54,-0.206,1.123,0.035
39.55,-0.3,0.773,-0.151
39.56,-0.251,1.091,-0.111
39.57,-0.105,1.03,0.065
39.58,-0.06,0.915,0.123
39.59,-0.258,0.949,0.025
39.6,-0.373,0.897,-0.11
39.61,-0.202,1.212,-0.084
39.62,-0.087,0.786,0.053
39.63,-0.148,0.983,0.139
39.64,-0.305,0.92,-0.003
39.65,-0.263,1.116,-0.177
39.66,-0.25,0.92,-0.068
39.67,-0.068,0.897,0.118
39.68,-0.174,1.033,0.137
39.69,-0.319,0.837,-0.113
39.7,-0.291,1.075,-0.1
39.71,-0.176,0.905,-0.001
39.72,-0.029,1.107,0.14
39.73,-0.218,0.831,0.051
39.74,-0.314,0.94,-0.112
39.75,-0.195,1.086,-0.122
39.76,-0.101,0.985,0.049
39.77,-0.06,0.969,0.122
39.78,-0.197,0.762,-0.003
39.79,-0.411,1.182,-0.093
39.8,-0.211,0.949,-0.093
39.81,-0.098,1.065,0.05
39.82,-0.056,0.788,0.17
39.83,-0.333,0.961,-0.015
39.84,-0.349,1.145,-0.15
39.85,-0.199,0.817,-0.062
39.86,-0.101,1.127,0.119
39.87,-0.106,0.789,0.112
39.88,-0.375,1.123,-0.086
39.89,-0.259,0.864,-0.167
39.9,-0.188,0.983,0.001
39.91,-0.115,0.985,0.154
39.92,-0.18,0.777,0.06
39.93,-0.357,1.136,-0.095
39.94,-0.179,0.792,-0.105
39.95,-0.184,1.261,0.059
39.96,-0.013,0.771,0.116
39.97,-0.253,0.991,0.068
39.98,-0.246,0.947,-0.139
39.99,-0.252,1.027,-0.057
40.0,-0.095,1.114,0.039
40.01,-0.126,0.697,0.146
40.02,-0.296,1.091,-0.016
40.03,-0.292,0.858,-0.082
40.04,-0.255,1.138,-0.087
40.05,-0.081,0.823,0.079
40.06,-0.125,0.969,0.137
40.07,-0.384,1.042,-0.068
40.08,-0.261,0.831,-0.151
40.09,-0.217,1.133,0.006
40.1,-0.006,0.821,0.139
40.11,-0.274,1.121,0.103
40.12,-0.279,0.849,-0.132
40.13,-0.257,1.066,-0.114
40.14,-0.188,1.051,0.02
40.15,-0.07,0.903,0.129
40.16,-0.211,1.028,0.075
40.17,-0.279,0.84,-0.135
40.18,-0.268,1.177,-0.07
40.19,-0.114,0.937,0.064
40.2,-0.06,1.059,0.131
40.21,-0.213,0.843,-0.011
40.22,-0.361,1.015,-0.113
40.23,-0.255,1.097,-0.057
40.24,-0.09,0.902,0.045
40.25,-0.121,0.96,0.144
40.26,-0.304,0.822,-0.025
40.27,-0.34,1.187,-0.141
40.28,-0.183,0.843,-0.059
40.29,-0.084,1.025,0.099
40.3,-0.208,0.871,0.148
40.31,-0.36,0.974,-0.073
40.32,-0.25,0.911,-0.153
40.33,-0.177,1.005,0.01
40.34,-0.126,1.045,0.181
40.35,-0.152,0.773,0.026
40.36,-0.367,1.122,-0.084
40.37,-0.194,0.872,-0.108
40.38,-0.143,1.246,0.045
40.39,-0.111,0.742,0.125
40.4,-0.206,0.938,0.02
40.41,-0.35,1.014,-0.119
40.42,-0.123,0.932,-0.089
40.43,-0.103,1.115,0.048
40.44,-0.089,0.671,0.148
40.45,-0.333,1.14,-0.018
40.46,-0.268,0.871,-0.159
40.47,-0.281,1.05,-0.042
40.48,-0.069,0.89,0.114
40.49,-0.197,0.919,0.131
40.5,-0.336,1.083,-0.062
40.51,-0.251,0.8,-0.127
40.52,-0.19,1.116,-0.03
40.53,-0.108,0.807,0.206
40.54,-0.17,1.079,0.048
40.55,-0.306,0.843,-0.158
40.56,-0.298,0.974,-0.074
40.57,-0.131,1.096,0.024
40.58,-0.062,0.888,0.154
40.59,-0.25,1.015,0.044
40.6,-0.231,0.778,-0.148
40.61,-0.27,1.232,-0.03
40.62,-0.063,0.887,0.004
40.63,-0.129,0.935,0.161
40.64,-0.18,0.867,-0.028
40.65,-0.331,1.011,-0.09
40.66,-0.192,1.096,-0.075
40.67,-0.075,0.811,0.046
40.68,-0.19,1.024,0.154
40.69,-0.261,0.87,-0.019
40.7,-0.346,1.153,-0.138
40.71,-0.167,0.809,-0.052
40.72,-0.064,1.01,0.094
40.73,-0.196,0.968,0.124
40.74,-0.335,0.894,-0.116
40.75,-0.304,1.049,-0.077
40.76,-0.15,0.88,0.006
40.77,-0.063,1.151,0.146
40.78,-0.245,0.768,0.068
40.79,-0.357,1.03,-0.105
40.8,-0.208,0.963,-0.077
40.81,-0.036,1.078,-0.007
40.82,-0.095,0.928,0.147
40.83,-0.269,0.769,0.054
40.84,-0.289,1.144,-0.135
40.85,-0.223,0.945,-0.038
40.86,-0.128,1.168,0.026
40.87,-0.102,0.685,0.14
40.88,-0.258,0.991,-0.029
40.89,-0.37,1.054,-0.107
40.9,-0.161,0.926,-0.098
40.91,-0.149,1.02,0.128
40.92,-0.05,0.714,0.105
40.93,-0.412,1.185,-0.032
40.94,-0.259,0.837,-0.162
40.95,-0.225,1.057,-0.026
40.96,-0.093,0.869,0.133
40.97,-0.158,0.923,0.11
40.98,-0.325,1.06,-0.116
40.99,-0.232,0.787,-0.134
41.0,-0.212,1.163,0.026
41.01,-0.016,0.806,0.141
41.02,-0.278,1.105,0.049
41.03,-0.329,0.789,-0.115
41.04,-0.226,1.03,-0.129
41.05,-0.182,1.078,0.077
41.06,0.001,0.861,0.123
41.07,-0.252,1.017,0.027
41.08,-0.325,0.806,-0.121
41.09,-0.223,1.241,-0.043
41.1,-0.059,0.864,0.042
41.11,-0.121,0.951,0.114
41.12,-0.299,0.907,-0.003
41.13,-0.348,1.062,-0.085
41.14,-0.212,0.922,-0.063
41.15,-0.126,1.02,0.106
41.16,-0.189,0.906,0.146
41.17,-0.291,0.985,-0.135
41.18,-0.27,0.979,-0.141
41.19,-0.21,0.933,0.038
41.2,-0.046,1.095,0.105
41.21,-0.167,0.746,0.051
41.22,-0.384,1.127,-0.111
41.23,-0.283,0.932,-0.079
41.24,-0.087,1.124,0.019
41.25,-0.091,0.831,0.149
41.26,-0.27,0.817,-0.002
41.27,-0.382,1.153,-0.083
41.28,-0.094,0.91,-0.112
41.29,-0.167,1.122,0.033
41.3,-0.041,0.633,0.135
41.31,-0.375,1.083,-0.006
41.32,-0.257,0.945,-0.142
41.33,-0.181,0.977,-0.082
41.34,-0.139,0.967,0.092
41.35,-0.136,0.823,0.141
41.36,-0.32,1.128,-0.075
41.37,-0.246,0.789,-0.132
41.38,-0.26,1.144,0.011
41.39,-0.127,0.839,0.175
41.4,-0.116,0.995,0.052
41.41,-0.386,0.969,-0.077
41.42,-0.181,0.855,-0.123
41.43,-0.242,1.229,0.073
41.44,-0.014,0.807,0.088
41.45,-0.262,1.062,0.052
41.46,-0.256,0.803,-0.122
41.47,-0.287,1.187,-0.071
41.48,-0.091,0.985,0.036
41.49,-0.053,0.899,0.138
41.5,-0.251,0.992,0.007
41.51,-0.355,0.917,-0.097
41.52,-0.157,1.167,-0.128
41.53,-0.105,0.804,0.082
41.54,-0.166,1.024,0.139
41.55,-0.286,0.879,-0.035
41.56,-0.342,1.108,-0.128
41.57,-0.165,0.928,-0.091
41.58,-0.097,0.883,0.084
41.59,-0.177,1.046,0.138
41.6,-0.293,0.852,-0.106
41.61,-0.364,1.124,-0.093
41.62,-0.144,0.875,-0.029
41.63,-0.121,1.133,0.162
41.64,-0.155,0.83,0.062
41.65,-0.306,1.002,-0.123
41.66,-0.241,0.985,-0.12
41.67,-0.183,0.971,0.066
41.68,-0.04,1.117,0.119
41.69,-0.203,0.743,0.02
41.7,-0.364,1.083,-0.115
41.71,-0.25,0.971,-0.028
41.72,-0.063,1.141,0.015
41.73,-0.133,0.803,0.155
41.74,-0.259,0.895,0.003
41.75,-0.364,1.155,-0.109
41.76,-0.104,0.899,-0.121
41.77,-0.152,1.082,0.102
41.78,-0.124,0.653,0.136
41.79,-0.358,1.138,0.003
41.8,-0.242,0.933,-0.177
41.81,-0.226,0.946,-0.093
41.82,-0.118,0.957,0.123
41.83,-0.135,0.885,0.164
41.84,-0.292,1.121,-0.121
41.85,-0.283,0.745,-0.117
41.86,-0.221,1.167,-0.016
41.87,-0.073,0.877,0.16
41.88,-0.137,1.007,0.068
41.89,-0.316,0.886,-0.12
41.9,-0.219,0.937,-0.084
41.91,-0.174,1.178,0.0
41.92,-0.044,0.823,0.16
41.93,-0.252,1.061,0.022
41.94,-0.307,0.787,-0.123
41.95,-0.236,1.179,-0.064
41.96,-0.025,0.865,0.026
41.97,-0.148,0.942,0.139
41.98,-0.25,0.864,-0.017
41.99,-0.318,1.123,-0.101
42.0,-0.192,1.006,-0.108
42.01,-0.082,0.819,0.121
42.02,-0.166,1.036,0.115
42.03,-0.314,0.886,-0.036
42.04,-0.362,1.128,-0.145
42.05,-0.183,0.811,-0.029
42.06,-0.158,1.057,0.152
42.07,-0.101,0.881,0.099
42.08,-0.315,1.0,-0.101
42.09,-0.241,1.057,-0.126
42.1,-0.224,0.924,0.035
42.11,-0.07,1.138,0.148
42.12,-0.14,0.771,0.022
42.13,-0.383,1.105,-0.156
42.14,-0.28,0.952,-0.031
42.15,-0.113,1.097,-0.004
42.16,-0.085,0.876,0.159
42.17,-0.218,0.852,-0.012
42.18,-0.392,1.088,-0.131
42.19,-0.238,0.841,-0.067
42.2,-0.062,1.164,0.067
42.21,-0.117,0.713,0.128
42.22,-0.395,1.05,0.009
42.23,-0.281,0.974,-0.126
42.24,-0.182,0.978,-0.094
42.25,-0.097,0.976,0.057
42.26,-0.185,0.78,0.119
42.27,-0.332,1.193,-0.052
42.28,-0.29,0.789,-0.164
42.29,-0.203,1.075,-0.033
42.3,-0.162,0.855,0.154
42.31,-0.168,0.994,0.104
42.32,-0.369,0.97,-0.083
42.33,-0.268,0.854,-0.105
42.34,-0.159,1.126,-0.03
42.35,-0.063,0.777,0.17
42.36,-0.216,1.086,0.068
42.37,-0.267,0.818,-0.153
42.38,-0.237,1.039,-0.096
42.39,-0.206,1.015,0.072
42.4,-0.011,0.969,0.131
42.41,-0.22,0.962,0.035
42.42,-0.325,0.806,-0.113
42.43,-0.212,1.24,-0.031
42.44,-0.028,0.872,-0.002
42.45,-0.132,1.012,0.146
42.46,-0.259,0.833,-0.019
42.47,-0.326,1.099,-0.124
42.48,-0.173,0.987,-0.072
42.49,-0.035,0.848,0.021
42.5,-0.2,1.025,0.12
42.51,-0.335,0.88,-0.003
42.52,-0.288,1.171,-0.16
42.53,-0.243,0.827,-0.017
42.54,-0.069,1.084,0.124
42.55,-0.207,0.887,0.111
42.56,-0.298,0.991,-0.081
42.57,-0.293,0.997,-0.129
42.58,-0.193,0.896,0.026
42.59,-0.066,1.119,0.127
42.6,-0.152,0.727,0.04
42.61,-0.369,1.101,-0.091
42.62,-0.26,0.883,-0.101
42.63,-0.15,1.165,0.046
42.64,-0.034,0.863,0.116
42.65,-0.246,0.852,0.055
42.66,-0.396,1.084,-0.14
42.67,-0.178,0.898,-0.036
42.68,-0.093,1.215,0.014
42.69,-0.095,0.659,0.135
42.7,-0.327,1.064,0.022
42.71,-0.301,0.95,-0.142
42.72,-0.207,1.001,-0.12
42.73,-0.13,1.015,0.151
42.74,-0.112,0.777,0.105
42.75,-0.385,1.123,0.004
42.76,-0.278,0.832,-0.164
42.77,-0.209,1.115,-0.027
42.78,-0.077,0.805,0.122
42.79,-0.192,1.092,0.101
42.8,-0.323,0.837,-0.092
42.81,-0.233,1.044,-0.108
42.82,-0.238,1.007,0.032
42.83,-0.073,0.941,0.145
42.84,-0.244,1.034,0.075
42.85,-0.316,0.806,-0.113
42.86,-0.268,1.137,-0.063
42.87,-0.144,0.925,0.049
42.88,-0.036,1.03,0.101
42.89,-0.208,0.823,0.031
42.9,-0.354,0.966,-0.118
42.91,-0.211,1.068,-0.073
42.92,-0.064,0.953,0.04
42.93,-0.133,1.016,0.121
42.94,-0.187,0.778,-0.013
42.95,-0.094,0.934,0.078
42.96,-0.086,0.868,0.097
42.97,-0.362,0.905,-0.034
42.98,-0.37,1.14,-0.069
42.99,-0.118,0.875,-0.067
43.0,-0.104,1.064,0.1
43.01,-0.183,0.726,0.12
43.02,-0.356,1.133,-0.066
43.03,-0.215,0.972,-0.142
43.04,-0.178,0.922,0.003
43.05,-0.075,0.993,0.138
43.06,-0.245,0.825,0.107
43.07,-0.317,1.134,-0.148
43.08,-0.231,0.816,-0.131
43.09,-0.223,1.217,0.042
43.1,0.005,0.852,0.154
43.11,-0.195,0.955,0.006
43.12,-0.341,0.921,-0.137
43.13,-0.241,0.932,-0.06
43.14,-0.069,1.214,0.054
43.15,-0.104,0.706,0.124
43.16,-0.32,1.091,-0.005
43.17,-0.375,0.841,-0.097
43.18,-0.17,1.119,-0.094
43.19,-0.139,0.943,0.129
43.2,-0.119,0.893,0.094
43.21,-0.375,1.069,-0.022
43.22,-0.243,0.907,-0.133
43.23,-0.193,1.137,-0.055
43.24,-0.088,0.768,0.125
43.25,-0.226,1.096,0.126
43.26,-0.297,0.867,-0.098
43.27,-0.251,0.993,-0.084
43.28,-0.168,1.057,0.0
43.29,-0.124,0.888,0.138
43.3,-0.197,1.03,0.065
43.31,-0.273,0.843,-0.11
43.32,-0.303,1.171,-0.097
43.33,-0.139,0.904,0.063
43.34,-0.054,1.057,0.13
43.35,-0.172,0.836,0.017
43.36,-0.362,0.926,-0.148
43.37,-0.256,1.087,-0.049
43.38,-0.058,0.908,0.041
43.39,-0.134,1.006,0.124
43.4,-0.25,0.774,-0.028
43.41,-0.392,1.164,-0.127
43.42,-0.173,0.893,-0.072
43.43,-0.061,1.017,0.078
43.44,-0.171,0.839,0.128
43.45,-0.343,0.958,-0.028
43.46,-0.277,1.155,-0.138
43.47,-0.146,0.824,-0.057
43.48,-0.167,1.081,0.158
43.49,-0.166,0.762,0.076
43.5,-0.355,1.144,-0.09
43.51,-0.209,0.923,-0.168
43.52,-0.202,0.989,0.019
43.53,-0.119,0.848,0.202
43.54,-0.164,0.926,0.033
43.55,-0.337,1.003,-0.129
43.56,-0.227,0.841,-0.112
43.57,-0.155,1.204,0.073
43.58,0.011,0.764,0.12
43.59,-0.292,1.059,-0.02
43.6,-0.366,0.81,-0.135
43.61,-0.274,1.088,-0.066
43.62,-0.071,0.972,0.078
43.63,-0.099,0.843,0.157
43.64,-0.309,1.062,-0.075
43.65,-0.317,0.893,-0.11
43.66,-0.159,1.131,-0.038
43.67,-0.061,0.768,0.13
43.68,-0.191,1.036,0.12
43.69,-0.322,0.927,-0.092
43.7,-0.236,0.997,-0.126
43.71,-0.209,1.04,0.009
43.72,-0.087,0.844,0.126
43.73,-0.227,1.115,0.106
43.74,-0.316,0.827,-0.156
43.75,-0.25,1.108,-0.087
43.76,-0.166,0.909,0.016
43.77,-0.054,1.01,0.172
43.78,-0.154,0.873,0.004
43.79,-0.327,0.929,-0.142
43.8,-0.239,1.129,-0.049
43.81,-0.073,0.925,0.051
43.82,-0.123,1.022,0.135
43.83,-0.247,0.817,-0.024
43.84,-0.375,1.181,-0.105
43.85,-0.128,0.937,-0.076
43.86,-0.121,0.955,0.097
43.87,-0.165,0.875,0.126
43.88,-0.36,0.964,-0.045
43.89,-0.283,1.132,-0.171
43.9,-0.151,0.828,-0.047
43.91,-0.15,1.11,0.185
43.92,-0.13,0.824,0.097
43.93,-0.354,1.087,-0.11
43.94,-0.229,0.917,-0.141
43.95,-0.182,1.061,-0.005
43.96,-0.065,1.015,0.144
43.97,-0.179,0.784,0.018
43.98,-0.369,1.1,-0.109
43.99,-0.26,0.893,-0.038
44.0,-0.129,1.251,0.057
44.01,-0.047,0.735,0.125
44.02,-0.343,0.947,-0.003
44.03,-0.32,1.029,-0.12
44.04,-0.151,0.986,-0.114
44.05,-0.101,1.055,0.1
44.06,-0.122,0.712,0.092
44.07,-0.36,1.143,-0.031
44.08,-0.272,0.864,-0.149
44.09,-0.177,1.074,-0.072
44.1,-0.125,0.894,0.154
44.11,-0.12,0.902,0.117
44.12,-0.309,1.066,-0.114
44.13,-0.247,0.842,-0.125
44.14,-0.219,1.202,-0.002
44.15,-0.051,0.801,0.17
44.16,-0.198,1.06,0.052
44.17,-0.273,0.839,-0.122
44.18,-0.271,1.073,-0.086
44.19,-0.125,1.11,0.075
44.2,0.006,0.85,0.092
44.21,-0.294,1.039,0.064
44.22,-0.319,0.765,-0.163
44.23,-0.232,1.22,-0.048
44.24,-0.061,0.898,0.033
44.25,-0.134,0.968,0.121
44.26,-0.308,0.906,-0.021
44.27,-0.292,1.013,-0.106
44.28,-0.164,1.075,-0.05
44.29,-0.081,0.815,0.09
44.3,-0.194,1.024,0.123
44.31,-0.32,0.886,-0.057
44.32,-0.298,1.186,-0.146
44.33,-0.188,0.825,-0.047
44.34,-0.11,0.973,0.162
44.35,-0.219,0.95,0.094
44.36,-0.29,1.021,-0.147
44.37,-0.235,0.967,-0.099
44.38,-0.171,1.003,0.043
44.39,-0.052,1.048,0.142
44.4,-0.163,0.772,-0.01
44.41,-0.403,1.13,-0.134
44.42,-0.209,0.918,-0.058
44.43,-0.086,1.164,0.072
44.44,-0.072,0.744,0.14
44.45,-0.312,0.956,0.001
44.46,-0.309,1.059,-0.13
44.47,-0.124,0.936,-0.067
44.48,-0.13,1.041,0.061
44.49,-0.158,0.67,0.119
44.5,-0.336,1.193,-0.055
44.51,-0.283,0.91,-0.109
44.52,-0.214,1.023,-0.034
44.53,-0.078,0.882,0.164
44.54,-0.208,0.878,0.066
44.55,-0.351,1.127,-0.096
44.56,-0.223,0.804,-0.157
44.57,-0.212,1.191,0.038
44.58,-0.031,0.759,0.164
44.59,-0.233,1.069,0.049
44.6,-0.33,0.845,-0.157
44.61,-0.235,0.989,-0.096
44.62,-0.147,1.106,0.093
44.63,-0.063,0.83,0.107
44.64,-0.328,1.048,-0.026
44.65,-0.358,0.809,-0.114
44.66,-0.146,1.213,-0.082
44.67,-0.095,0.859,0.12
44.68,-0.174,0.968,0.115
44.69,-0.314,0.943,-0.045
44.7,-0.26,0.99,-0.141
44.71,-0.241,1.071,-0.032
44.72,-0.1,0.759,0.124
44.73,-0.223,1.105,0.122
44.74,-0.284,0.816,-0.116
44.75,-0.257,1.105,-0.12
44.76,-0.171,0.944,0.04
44.77,-0.04,0.971,0.183
44.78,-0.201,0.925,0.028
44.79,-0.361,0.862,-0.091
44.8,-0.236,1.175,-0.084
44.81,-0.104,0.927,0.053
44.82,-0.145,1.011,0.108
44.83,-0.294,0.824,0.012
44.84,-0.335,1.127,-0.115
44.85,-0.17,0.976,-0.092
44.86,-0.083,0.881,0.115
44.87,-0.156,0.96,0.141
44.88,-0.325,0.9,-0.062
44.89,-0.322,1.133,-0.137
44.9,-0.145,0.818,-0.042
44.91,-0.15,1.141,0.156
44.92,-0.17,0.806,0.077
44.93,-0.345,1.025,-0.116
44.94,-0.189,0.956,-0.123
44.95,-0.169,0.996,0.039
44.96,-0.046,1.046,0.148
44.97,-0.167,0.743,0.01
44.98,-0.4,1.128,-0.144
44.99,-0.234,0.914,-0.045
45.0,-0.08,1.219,0.011
45.01,-0.084,0.762,0.143
45.02,-0.32,0.908,0.011
45.03,-0.336,1.087,-0.094
45.04,-0.158,0.966,-0.094
45.05,-0.171,1.061,0.096
45.06,-0.088,0.668,0.103
45.07,-0.375,1.202,-0.042
45.08,-0.241,0.894,-0.172
45.09,-0.267,1.018,-0.03
45.1,-0.093,0.869,0.14
45.11,-0.203,0.867,0.122
45.12,-0.317,1.13,-0.117
45.13,-0.31,0.789,-0.134
45.14,-0.217,1.134,0.006
45.15,0.002,0.856,0.185
45.16,-0.191,1.027,-0.008
45.17,-0.33,0.827,-0.153
45.18,-0.183,1.189,-0.064
45.19,-0.114,0.983,0.041
45.2,-0.103,0.836,0.136
45.21,-0.304,1.011,0.003
45.22,-0.261,0.95,-0.09
45.23,-0.229,1.147,-0.099
45.24,-0.119,0.75,0.096
45.25,-0.174,1.066,0.127
45.26,-0.284,0.907,-0.062
45.27,-0.312,1.064,-0.147
45.28,-0.151,0.945,-0.062
45.29,-0.109,0.87,0.146
45.3,-0.216,1.003,0.115
45.31,-0.294,0.916,-0.107
45.32,-0.287,1.128,-0.154
45.33,-0.215,0.87,0.022
45.34,-0.096,1.077,0.192
45.35,-0.121,0.892,0.037
45.36,-0.37,0.974,-0.143
45.37,-0.26,1.03,-0.101
45.38,-0.111,1.001,0.075
45.39,-0.064,1.071,0.115
45.4,-0.249,0.743,-0.034
45.41,-0.349,1.123,-0.146
45.42,-0.12,0.974,-0.061
45.43,-0.107,1.04,0.055
45.44,-0.125,0.815,0.148
45.45,-0.334,0.96,-0.008
45.46,-0.274,1.126,-0.155
45.47,-0.198,0.811,-0.047
45.48,-0.154,1.103,0.126
45.49,-0.14,0.777,0.114
45.5,-0.344,1.123,-0.123
45.51,-0.244,0.828,-0.133
45.52,-0.207,1.07,0.003
45.53,-0.086,0.994,0.139
45.54,-0.154,0.803,0.035
45.55,-0.356,1.1,-0.096
45.56,-0.266,0.881,-0.062
45.57,-0.142,1.254,0.036
45.58,-0.034,0.702,0.116
45.59,-0.252,0.978,0.02
45.6,-0.314,0.962,-0.14
45.61,-0.163,1.04,-0.081
45.62,-0.177,1.042,0.069
45.63,-0.097,0.716,0.13
45.64,-0.35,1.138,-0.001
45.65,-0.287,0.815,-0.14
45.66,-0.238,1.13,-0.052
45.67,-0.043,0.849,0.108
45.68,-0.164,0.957,0.133
45.69,-0.356,1.045,-0.041
45.7,-0.258,0.878,-0.166
45.71,-0.219,1.096,-0.043
45.72,-0.105,0.808,0.172
45.73,-0.202,1.125,0.087
45.74,-0.298,0.845,-0.117
45.75,-0.237,1.025,-0.095
45.76,-0.172,0.979,0.005
45.77,-0.067,0.963,0.17
45.78,-0.167,0.995,0.0
45.79,-0.366,0.783,-0.088
45.8,-0.239,1.149,-0.068
45.81,-0.049,1.003,0.034
45.82,-0.123,1.02,0.11
45.83,-0.256,0.824,0.018
45.84,-0.38,1.079,-0.085
45.85,-0.131,1.042,-0.082
45.86,-0.145,0.924,0.055
45.87,-0.115,1.009,0.145
45.88,-0.314,0.835,-0.056
45.89,-0.357,1.186,-0.08
45.9,-0.157,0.875,-0.06
45.91,-0.15,1.041,0.116
45.92,-0.156,0.822,0.112
45.93,-0.326,1.036,-0.061
45.94,-0.323,1.012,-0.131
45.95,-0.137,0.843,-0.055
45.96,-0.151,1.14,0.201
45.97,-0.062,0.751,0.036
45.98,-0.371,1.13,-0.098
45.99,-0.211,0.826,-0.107
46.0,-0.212,1.258,0.028
46.01,-0.035,0.782,0.139
46.02,-0.243,0.928,0.033
46.03,-0.305,0.953,-0.121
46.04,-0.235,1.006,-0.058
46.05,-0.115,1.135,0.04
46.06,-0.05,0.737,0.148
46.07,-0.306,1.106,0.004
46.08,-0.284,0.862,-0.136
46.09,-0.241,1.164,-0.057
46.1,-0.072,0.873,0.069
46.11,-0.131,0.899,0.116
46.12,-0.329,1.03,-0.041
46.13,-0.296,0.895,-0.157
46.14,-0.221,1.095,-0.013
46.15,-0.097,0.771,0.138
46.16,-0.209,1.102,0.118
46.17,-0.277,0.865,-0.095
46.18,-0.3,1.039,-0.15
46.19,-0.173,0.924,-0.02
46.2,-0.085,0.918,0.16
46.21,-0.189,1.031,0.068
46.22,-0.311,0.824,-0.139
46.23,-0.216,1.099,-0.097
46.24,-0.191,0.964,0.072
46.25,-0.069,1.07,0.133
46.26,-0.207,0.84,0.062
46.27,-0.302,0.985,-0.143
46.28,-0.234,1.101,-0.065
46.29,-0.05,0.944,-0.02
46.3,-0.124,1.011,0.157
46.31,-0.259,0.812,0.017
46.32,-0.382,1.182,-0.148
46.33,-0.141,0.868,-0.074
46.34,-0.153,1.086,0.106
46.35,-0.118,0.841,0.13
46.36,-0.328,0.972,-0.041
46.37,-0.336,1.092,-0.154
46.38,-0.229,0.832,-0.033
46.39,-0.062,1.108,0.099
46.4,-0.156,0.767,0.11
46.41,-0.387,1.128,-0.069
46.42,-0.299,0.832,-0.119
46.43,-0.175,1.048,-0.034
46.44,-0.122,1.0,0.161
46.45,-0.24,0.824,0.094
46.46,-0.332,1.092,-0.103
46.47,-0.196,0.836,-0.1
46.48,-0.173,1.215,-0.001
46.49,-0.045,0.803,0.155
46.5,-0.215,1.031,0.019
46.51,-0.314,0.87,-0.095
46.52,-0.189,0.958,-0.057
46.53,-0.141,1.19,0.044
46.54,-0.064,0.783,0.109
46.55,-0.236,1.068,0.006
46.56,-0.299,0.771,-0.142
46.57,-0.231,1.154,-0.05
46.58,-0.051,0.925,0.08
46.59,-0.122,0.95,0.114
46.6,-0.323,0.958,-0.008
46.61,-0.334,0.865,-0.112
46.62,-0.167,1.163,-0.036
46.63,-0.064,0.791,0.073
46.64,-0.166,1.013,0.1
46.65,-0.288,0.863,-0.062
46.66,-0.293,1.117,-0.12
46.67,-0.123,0.892,-0.046
46.68,-0.051,0.905,0.111
46.69,-0.245,0.994,0.085
46.7,-0.347,0.911,-0.057
46.71,-0.282,1.125,-0.122
46.72,-0.168,0.834,-0.026
46.73,-0.147,1.118,0.203
46.74,-0.137,0.821,0.015
46.75,-0.391,0.997,-0.107
46.76,-0.249,0.968,-0.125
46.77,-0.122,1.054,0.079
46.78,-0.017,1.027,0.095
46.79,-0.236,0.778,-0.018
46.8,-0.465,1.117,-0.078
46.81,-0.136,0.909,-0.06
46.82,-0.167,1.155,0.08
46.83,-0.1,0.674,0.127
46.84,-0.385,1.095,-0.021
46.85,-0.278,0.904,-0.142
46.86,-0.143,0.998,-0.058
46.87,-0.139,0.97,0.089
46.88,-0.161,0.795,0.124
46.89,-0.311,1.168,-0.048
46.9,-0.24,0.78,-0.145
46.91,-0.243,1.105,-0.028
46.92,-0.071,0.824,0.117
46.93,-0.204,1.0,0.069
46.94,-0.297,0.962,-0.063
46.95,-0.203,0.898,-0.095
46.96,-0.198,1.1,0.003
46.97,-0.029,0.796,0.133
46.98,-0.216,1.079,0.026
46.99,-0.355,0.754,-0.101
47.0,-0.254,1.133,-0.051
47.01,-0.041,1.008,0.028
47.02,-0.156,0.898,0.112
47.03,-0.275,0.946,0.07
47.04,-0.291,0.856,-0.135
47.05,-0.221,1.147,-0.04
47.06,-0.072,0.847,0.078
47.07,-0.071,1.068,0.105
47.08,-0.269,0.831,-0.03
47.09,-0.361,1.082,-0.092
47.1,-0.097,0.965,-0.089
47.11,-0.115,0.963,0.08
47.12,-0.178,0.976,0.1
47.13,-0.332,0.892,-0.005
47.14,-0.302,1.195,-0.151
47.15,-0.15,0.792,-0.044
47.16,-0.119,1.037,0.138
47.17,-0.175,0.851,0.126
47.18,-0.29,1.063,-0.093
47.19,-0.281,0.953,-0.12
47.2,-0.153,0.898,-0.001
47.21,-0.119,1.112,0.149
47.22,-0.187,0.757,0.031
47.23,-0.357,1.121,-0.073
47.24,-0.262,0.855,-0.097
47.25,-0.185,1.174,0.05
47.26,-0.001,0.849,0.11
47.27,-0.25,0.876,0.023
47.28,-0.28,0.998,-0.127
47.29,-0.196,0.992,-0.016
47.3,-0.082,1.202,0.002
47.31,-0.094,0.66,0.139
47.32,-0.318,1.098,0.002
47.33,-0.333,0.881,-0.092
47.34,-0.173,1.072,-0.089
47.35,-0.139,0.943,0.078
47.36,-0.121,0.831,0.126
47.37,-0.342,1.091,-0.06
47.38,-0.239,0.849,-0.13
47.39,-0.151,1.17,-0.047
47.4,-0.094,0.787,0.087
47.41,-0.206,1.019,0.141
47.42,-0.265,0.919,-0.064
47.43,-0.282,0.961,-0.138
47.44,-0.198,1.035,-0.033
47.45,-0.08,0.855,0.16
47.46,-0.195,1.115,0.048
47.47,-0.273,0.783,-0.138
47.48,-0.272,1.118,-0.111
47.49,-0.109,0.944,0.016
47.5,-0.097,1.057,0.142
47.51,-0.191,0.911,0.036
47.52,-0.319,0.866,-0.124
47.53,-0.234,1.109,-0.042
47.54,-0.061,0.958,0.045
47.55,-0.094,1.072,0.101
47.56,-0.229,0.756,0.021
47.57,-0.286,1.101,-0.138
47.58,-0.198,0.984,-0.036
47.59,-0.049,1.01,0.044
47.6,-0.172,0.938,0.149
47.61,-0.334,0.853,-0.039
47.62,-0.323,1.151,-0.1
47.63,-0.148,0.868,-0.055
47.64,-0.163,1.05,0.153
47.65,-0.187,0.776,0.075
47.66,-0.387,1.15,-0.058
47.67,-0.225,0.849,-0.108
47.68,-0.153,1.11,0.008
47.69,-0.119,0.874,0.133
47.7,-0.237,0.893,0.069
47.71,-0.357,1.073,-0.106
47.72,-0.258,0.832,-0.097
47.73,-0.146,1.208,0.074
47.74,-0.055,0.789,0.131
47.75,-0.232,1.026,0.013
47.76,-0.326,0.859,-0.112
47.77,-0.206,1.039,-0.073
47.78,-0.136,1.052,0.058
47.79,-0.118,0.76,0.109
47.8,-0.321,1.08,-0.014
47.81,-0.33,0.827,-0.115
47.82,-0.155,1.229,-0.048
47.83,-0.111,0.83,0.097
47.84,-0.149,0.946,0.104
47.85,-0.319,0.967,-0.046
47.86,-0.257,0.991,-0.137
47.87,-0.161,1.036,-0.059
47.88,-0.062,0.775,0.109
47.89,-0.257,1.09,0.142
47.9,-0.272,0.845,-0.102
47.91,-0.343,1.097,-0.086
47.92,-0.177,0.887,-0.027
47.93,-0.054,1.023,0.172
47.94,-0.195,0.96,0.049
47.95,-0.352,0.83,-0.138
47.96,-0.202,1.168,-0.065
47.97,-0.074,0.926,0.016
47.98,-0.123,1.003,0.117
47.99,-0.217,0.785,0.059
48.0,-0.353,1.121,-0.125
48.01,-0.238,0.989,-0.068
48.02,-0.101,1.009,0.053
48.03,-0.109,0.924,0.122
48.04,-0.275,0.831,-0.018
48.05,-0.358,1.189,-0.107
48.06,-0.149,0.831,-0.099
48.07,-0.155,1.1,0.117
48.08,-0.067,0.784,0.131
48.09,-0.335,1.056,-0.071
48.1,-0.325,1.001,-0.124
48.11,-0.183,0.951,-0.042
48.12,-0.087,1.031,0.109
48.13,-0.157,0.792,0.106
48.14,-0.384,1.156,-0.076
48.15,-0.226,0.848,-0.114
48.16,-0.201,1.131,-0.003
48.17,-0.074,0.845,0.16
48.18,-0.237,0.955,0.066
48.19,-0.293,1.019,-0.106
48.2,-0.213,0.846,-0.132
48.21,-0.181,1.214,0.072
