t,ax,ay,az
0.0,-0.291,0.79,-0.016
0.01,-0.413,1.214,-0.13
0.02,-0.102,0.907,-0.111
0.03,-0.138,1.086,0.098
0.04,-0.147,0.746,0.147
0.05,-0.365,1.036,-0.048
0.06,-0.251,1.064,-0.135
0.07,-0.201,0.864,-0.043
0.08,-0.138,1.059,0.19
0.09,-0.119,0.798,0.067
0.1,-0.372,1.114,-0.15
0.11,-0.242,0.881,-0.098
0.12,-0.104,1.208,-0.003
0.13,-0.026,0.825,0.135
0.14,-0.239,0.871,0.024
0.15,-0.387,1.069,-0.119
0.16,-0.152,0.915,-0.062
0.17,-0.138,1.168,0.071
0.18,-0.074,0.649,0.131
0.19,-0.39,1.121,-0.035
0.2,-0.237,0.941,-0.145
0.21,-0.166,1.033,-0.12
0.22,-0.148,0.945,0.166
0.23,-0.115,0.827,0.115
0.24,-0.356,1.152,-0.082
0.25,-0.243,0.799,-0.125
0.26,-0.255,1.235,0.026
0.27,-0.015,0.827,0.193
0.28,-0.187,1.016,0.011
0.29,-0.301,0.884,-0.156
0.3,-0.248,1.031,-0.033
0.31,-0.043,1.096,-0.006
0.32,-0.105,0.709,0.167
0.33,-0.257,1.087,-0.013
0.34,-0.372,0.873,-0.089
0.35,-0.165,1.163,-0.089
0.36,-0.168,0.838,0.092
0.37,-0.149,0.88,0.144
0.38,-0.294,1.081,-0.07
0.39,-0.257,0.912,-0.164
0.4,-0.215,1.078,-0.015
0.41,-0.044,0.8,0.169
0.42,-0.198,1.162,0.102
0.43,-0.332,0.783,-0.154
0.44,-0.318,1.04,-0.087
0.45,-0.159,1.044,0.072
0.46,0.001,0.91,0.136
0.47,-0.235,0.853,0.015
0.48,-0.294,0.993,-0.134
0.49,-0.19,1.122,-0.056
0.5,-0.079,0.825,0.062
0.51,-0.129,0.979,0.157
0.52,-0.332,0.859,-0.057
0.53,-0.383,1.209,-0.127
0.54,-0.185,0.859,-0.067
0.55,-0.123,0.996,0.146
0.56,-0.192,0.939,0.13
0.57,-0.302,0.927,-0.126
0.58,-0.271,1.081,-0.118
0.59,-0.108,0.851,0.009
0.6,-0.117,1.129,0.158
0.61,-0.184,0.741,0.021
0.62,-0.41,1.103,-0.112
0.63,-0.185,0.975,-0.11
0.64,-0.093,1.06,0.039
0.65,-0.135,0.871,0.152
0.66,-0.271,0.838,-0.019
0.67,-0.35,1.166,-0.12
0.68,-0.11,0.875,-0.054
0.69,-0.142,1.122,0.122
0.7,-0.122,0.734,0.111
0.71,-0.347,1.062,-0.076
0.72,-0.243,0.99,-0.133
0.73,-0.162,0.991,-0.013
0.74,-0.182,1.022,0.159
0.75,-0.214,0.769,0.072
0.76,-0.333,1.161,-0.14
0.77,-0.147,0.743,0.164
0.78,-0.211,1.05,0.088
0.79,-0.321,0.838,-0.143
0.8,-0.229,1.102,-0.116
0.81,-0.113,0.933,0.037
0.82,-0.074,0.935,0.183
0.83,-0.269,0.98,-0.007
0.84,-0.396,0.888,-0.149
0.85,-0.16,1.209,-0.071
0.86,-0.047,0.872,0.035
0.87,-0.224,0.977,0.15
0.88,-0.31,0.78,-0.029
0.89,-0.185,1.143,-0.167
0.9,-0.181,1.02,-0.077
0.91,-0.115,0.804,0.103
0.92,-0.143,0.99,0.174
0.93,-0.296,0.885,-0.166
0.94,-0.259,1.128,-0.14
0.95,-0.217,0.885,0.069
0.96,0.019,1.083,0.111
0.97,-0.249,0.804,0.016
0.98,-0.396,0.999,-0.102
0.99,-0.096,1.096,-0.078
1.0,-0.138,0.918,0.056
1.01,-0.177,0.975,0.148
1.02,-0.271,0.79,-0.03
1.03,-0.312,1.221,-0.151
1.04,-0.169,0.85,-0.044
1.05,-0.188,1.055,0.169
1.06,-0.096,0.869,0.085
1.07,-0.369,0.967,-0.118
1.08,-0.265,1.022,-0.111
1.09,-0.161,0.936,0.054
1.1,-0.108,1.074,0.129
1.11,-0.135,0.72,0.021
1.12,-0.431,1.154,-0.166
1.13,-0.17,0.939,-0.036
1.14,-0.127,1.111,0.035
1.15,-0.069,0.815,0.135
1.16,-0.34,0.888,-0.01
1.17,-0.318,1.179,-0.117
1.18,-0.105,0.844,-0.072
1.19,-0.212,1.085,0.108
1.2,-0.1,0.738,0.158
1.21,-0.35,1.155,-0.133
1.22,-0.224,0.856,-0.14
1.23,-0.195,1.229,0.035
1.24,-0.027,0.845,0.179
1.25,-0.207,0.878,0.021
1.26,-0.352,1.034,-0.15
1.27,-0.179,0.937,-0.045
1.28,-0.124,1.187,0.042
1.29,-0.06,0.622,0.13
1.3,-0.338,1.141,-0.038
1.31,-0.296,0.924,-0.094
1.32,-0.234,1.07,-0.071
1.33,-0.135,0.889,0.125
1.34,-0.169,0.842,0.137
1.35,-0.372,1.134,-0.082
1.36,-0.266,0.777,-0.152
1.37,-0.22,1.186,-0.031
1.38,-0.063,0.838,0.219
1.39,-0.17,1.038,0.011
1.4,-0.291,0.843,-0.157
1.41,-0.243,1.037,-0.041
1.42,-0.082,1.135,0.011
1.43,-0.053,0.74,0.148
1.44,-0.29,1.105,0.0
1.45,-0.374,0.835,-0.109
1.46,-0.194,1.118,-0.072
1.47,-0.099,0.804,0.095
1.48,-0.168,0.97,0.144
1.49,-0.277,1.0,-0.071
1.5,-0.253,0.924,-0.135
1.51,-0.192,1.069,-0.046
1.52,-0.107,0.856,0.212
1.53,-0.171,1.117,0.077
1.54,-0.338,0.779,-0.142
1.55,-0.27,1.091,-0.086
1.56,-0.15,1.021,0.058
1.57,0.01,0.854,0.117
1.58,-0.281,1.003,0.021
1.59,-0.317,0.934,-0.107
1.6,-0.241,1.194,-0.077
1.61,-0.054,0.766,0.072
1.62,-0.133,0.991,0.12
1.63,-0.326,0.892,-0.008
1.64,-0.311,1.132,-0.152
1.65,-0.195,0.936,-0.052
1.66,-0.15,0.886,0.125
1.67,-0.161,1.025,0.158
1.68,-0.302,0.874,-0.119
1.69,-0.292,1.089,-0.126
1.7,-0.205,0.895,0.038
1.71,-0.048,1.126,0.144
1.72,-0.137,0.806,0.034
1.73,-0.341,0.989,-0.154
1.74,-0.264,1.08,-0.053
1.75,-0.084,0.996,0.019
1.76,-0.097,0.953,0.142
1.77,-0.276,0.768,-0.019
1.78,-0.383,1.24,-0.072
1.79,-0.141,0.878,-0.078
1.8,-0.132,1.021,0.036
1.81,-0.128,0.8,0.167
1.82,-0.312,1.063,-0.066
1.83,-0.282,1.023,-0.157
1.84,-0.172,0.833,-0.033
1.85,-0.103,1.117,0.168
1.86,-0.158,0.778,0.116
1.87,-0.332,1.137,-0.142
1.88,-0.261,0.838,-0.07
1.89,-0.157,1.177,0.019
1.9,-0.045,0.913,0.162
1.91,-0.166,0.826,-0.023
1.92,-0.39,1.074,-0.145
1.93,-0.212,0.883,-0.046
1.94,-0.06,1.282,0.056
1.95,-0.025,0.664,0.097
1.96,-0.391,1.045,-0.004
1.97,-0.289,0.919,-0.114
1.98,-0.175,1.01,-0.092
1.99,-0.166,0.961,0.115
2.0,-0.154,0.751,0.158
2.01,-0.344,1.129,-0.106
2.02,-0.26,0.78,-0.143
2.03,-0.219,1.198,-0.002
2.04,-0.033,0.838,0.186
2.05,-0.246,1.063,0.05
2.06,-0.277,0.816,-0.122
2.07,-0.252,1.153,-0.045
2.08,-0.128,1.035,0.027
2.09,-0.08,0.794,0.153
2.1,-0.267,1.055,0.0
2.11,-0.304,0.895,-0.135
2.12,-0.21,1.205,-0.078
2.13,-0.115,0.784,0.095
2.14,-0.153,0.982,0.13
2.15,-0.356,0.909,-0.047
2.16,-0.277,1.037,-0.173
2.17,-0.213,1.014,-0.037
2.18,-0.107,0.816,0.124
2.19,-0.243,1.092,0.119
2.2,-0.259,0.841,-0.121
2.21,-0.277,1.119,-0.108
2.22,-0.183,0.892,0.021
2.23,-0.066,1.068,0.18
2.24,-0.18,0.897,0.028
2.25,-0.358,0.897,-0.168
2.26,-0.238,1.097,-0.07
2.27,-0.11,0.934,0.056
2.28,-0.101,1.007,0.132
2.29,-0.294,0.789,-0.026
2.3,-0.332,1.149,-0.123
2.31,-0.177,0.986,-0.032
2.32,-0.102,0.959,0.078
2.33,-0.181,0.844,0.127
2.34,-0.347,0.945,-0.063
2.35,-0.278,1.142,-0.148
2.36,-0.174,0.804,-0.013
2.37,-0.135,1.065,0.139
2.38,-0.156,0.791,0.086
2.39,-0.335,1.067,-0.111
2.4,-0.257,0.937,-0.122
2.41,-0.174,1.049,0.059
2.42,-0.033,0.965,0.129
2.43,-0.205,0.778,0.004
2.44,-0.394,1.156,-0.166
2.45,-0.123,0.919,-0.078
2.46,-0.152,1.154,0.06
2.47,-0.083,0.682,0.152
2.48,-0.325,1.022,-0.005
2.49,-0.311,1.027,-0.126
2.5,-0.184,0.91,-0.062
2.51,-0.155,1.062,0.113
2.52,-0.103,0.742,0.124
2.53,-0.367,1.233,-0.086
2.54,-0.221,0.787,-0.136
2.55,-0.266,1.126,-0.004
2.56,-0.064,0.905,0.203
2.57,-0.135,0.941,0.053
2.58,-0.369,0.963,-0.158
2.59,-0.252,0.854,-0.055
2.6,-0.083,1.299,0.038
2.61,-0.002,0.719,0.123
2.62,-0.276,1.04,-0.039
2.63,-0.342,0.877,-0.091
2.64,-0.147,1.126,-0.119
2.65,-0.085,0.929,0.085
2.66,-0.138,0.8,0.143
2.67,-0.392,1.12,0.001
2.68,-0.295,0.852,-0.157
2.69,-0.219,1.132,-0.041
2.7,-0.139,0.782,0.146
2.71,-0.128,1.065,0.104
2.72,-0.323,0.927,-0.119
2.73,-0.234,0.939,-0.142
2.74,-0.21,1.072,0.029
2.75,-0.033,0.833,0.191
2.76,-0.235,1.087,0.035
2.77,-0.332,0.791,-0.145
2.78,-0.272,1.198,-0.071
2.79,-0.165,0.969,0.066
2.8,-0.05,0.953,0.154
2.81,-0.212,0.908,-0.004
2.82,-0.378,0.983,-0.126
2.83,-0.215,1.102,-0.063
2.84,-0.063,0.827,0.079
2.85,-0.136,0.997,0.097
2.86,-0.326,0.834,-0.033
2.87,-0.342,1.195,-0.122
2.88,-0.198,0.82,-0.055
2.89,-0.185,1.075,0.193
2.9,-0.113,0.806,0.078
2.91,-0.279,1.046,-0.139
2.92,-0.248,1.01,-0.103
2.93,-0.165,0.942,0.014
2.94,-0.029,1.074,0.137
2.95,-0.17,0.731,0.006
2.96,-0.395,1.167,-0.145
2.97,-0.212,0.953,-0.044
2.98,-0.157,1.135,0.031
2.99,-0.089,0.745,0.142
3.0,-0.301,0.921,-0.03
3.01,-0.353,1.132,-0.107
3.02,-0.106,0.86,-0.084
3.03,-0.136,1.072,0.108
3.04,-0.115,0.678,0.111
3.05,-0.379,1.188,-0.071
3.06,-0.262,0.862,-0.128
3.07,-0.193,1.046,-0.052
3.08,-0.12,0.971,0.191
3.09,-0.106,0.844,0.056
3.1,-0.34,1.091,-0.144
3.11,-0.281,0.801,-0.083
3.12,-0.083,1.287,0.053
3.13,0.033,0.721,0.13
3.14,-0.281,0.967,0.004
3.15,-0.309,0.907,-0.092
3.16,-0.146,1.092,-0.095
3.17,-0.157,1.038,0.061
3.18,-0.058,0.676,0.164
3.19,-0.359,1.162,-0.006
3.2,-0.266,0.843,-0.165
3.21,-0.233,1.143,-0.046
3.22,-0.065,0.824,0.105
3.23,-0.17,0.972,0.158
3.24,-0.327,1.011,-0.111
3.25,-0.28,0.855,-0.117
3.26,-0.217,1.12,-0.05
3.27,-0.105,0.826,0.181
3.28,-0.203,1.095,0.052
3.29,-0.311,0.774,-0.153
3.3,-0.29,1.077,-0.045
3.31,-0.1,1.053,0.078
3.32,-0.066,0.864,0.121
3.33,-0.227,0.958,0.033
3.34,-0.322,0.925,-0.121
3.35,-0.222,1.199,-0.086
3.36,-0.094,0.776,0.075
3.37,-0.101,1.045,0.116
3.38,-0.349,0.901,-0.025
3.39,-0.25,1.064,-0.147
3.4,-0.21,0.972,-0.066
3.41,-0.061,0.852,0.119
3.42,-0.198,1.039,0.13
3.43,-0.305,0.845,-0.084
3.44,-0.291,1.159,-0.103
3.45,-0.17,0.858,-0.019
3.46,-0.089,1.076,0.174
3.47,-0.172,0.892,0.05
3.48,-0.334,0.959,-0.151
3.49,-0.272,1.038,-0.071
3.5,-0.085,1.021,0.051
3.51,-0.116,1.039,0.124
3.52,-0.212,0.751,0.01
3.53,-0.348,1.165,-0.137
3.54,-0.198,0.906,-0.064
3.55,-0.103,1.054,0.049
3.56,-0.104,0.775,0.135
3.57,-0.319,0.912,-0.018
3.58,-0.268,1.178,-0.138
3.59,-0.143,0.846,-0.074
3.6,-0.185,1.049,0.127
3.61,-0.161,0.743,0.142
3.62,-0.346,1.186,-0.096
3.63,-0.234,0.857,-0.169
3.64,-0.202,1.009,-0.02
3.65,-0.106,0.98,0.212
3.66,-0.131,0.813,0.035
3.67,-0.406,1.1,-0.11
3.68,-0.26,0.806,-0.096
3.69,-0.133,1.321,0.08
3.7,-0.108,0.684,0.136
3.71,-0.266,1.062,-0.01
3.72,-0.304,0.913,-0.096
3.73,-0.138,1.13,-0.114
3.74,-0.133,0.858,0.083
3.75,-0.14,0.837,0.164
3.76,-0.329,1.147,-0.047
3.77,-0.214,0.805,-0.144
3.78,-0.255,1.116,-0.048
3.79,-0.13,0.803,0.189
3.8,-0.123,1.134,0.067
3.81,-0.316,0.865,-0.115
3.82,-0.249,0.964,-0.129
3.83,-0.205,1.102,0.048
3.84,0.028,0.867,0.148
3.85,-0.222,1.058,0.026
3.86,-0.336,0.786,-0.122
3.87,-0.302,1.223,-0.06
3.88,-0.039,0.909,0.019
3.89,-0.174,0.972,0.152
3.9,-0.251,0.847,-0.027
3.91,-0.324,1.042,-0.119
3.92,-0.155,1.108,-0.068
3.93,-0.073,0.752,0.076
3.94,-0.154,0.976,0.137
3.95,-0.289,0.876,-0.044
3.96,-0.323,1.186,-0.171
3.97,-0.207,0.864,-0.032
3.98,-0.156,0.998,0.139
3.99,-0.18,0.94,0.12
4.0,-0.287,0.932,-0.126
4.01,-0.278,1.072,-0.124
4.02,-0.165,0.897,0.033
4.03,-0.034,1.144,0.142
4.04,-0.188,0.713,0.034
4.05,-0.303,1.043,-0.144
4.06,-0.207,1.021,-0.016
4.07,-0.09,1.048,0.013
4.08,-0.163,0.877,0.21
4.09,-0.273,0.801,-0.026
4.1,-0.385,1.215,-0.079
4.11,-0.162,0.88,-0.094
4.12,-0.119,1.077,0.058
4.13,-0.163,0.781,0.17
4.14,-0.32,1.076,-0.082
4.15,-0.248,0.937,-0.135
4.16,-0.192,0.957,-0.024
4.17,-0.149,1.08,0.149
4.18,-0.163,0.771,0.083
4.19,-0.361,1.141,-0.097
4.2,-0.235,0.747,-0.135
4.21,-0.178,1.201,0.034
4.22,-0.072,0.897,0.152
4.23,-0.181,0.897,0.029
4.24,-0.323,0.956,-0.14
4.25,-0.216,0.899,-0.056
4.26,-0.133,1.269,0.06
4.27,-0.036,0.703,0.118
4.28,-0.275,1.063,0.002
4.29,-0.349,0.874,-0.115
4.3,-0.159,1.151,-0.059
4.31,-0.061,0.953,0.043
4.32,-0.13,0.772,0.13
4.33,-0.393,1.114,0.02
4.34,-0.199,0.885,-0.148
4.35,-0.247,1.12,-0.034
4.36,-0.104,0.74,0.099
4.37,-0.174,1.081,0.182
4.38,-0.31,0.92,-0.142
4.39,-0.247,0.927,-0.146
4.4,-0.243,1.08,0.046
4.41,-0.02,0.901,0.171
4.42,-0.163,1.054,0.036
4.43,-0.291,0.804,-0.11
4.44,-0.259,1.148,-0.11
4.45,-0.174,0.958,0.058
4.46,0.001,0.977,0.106
4.47,-0.231,0.897,0.01
4.48,-0.364,0.91,-0.128
4.49,-0.221,1.164,-0.02
4.5,-0.075,0.865,0.028
4.51,-0.119,0.998,0.146
4.52,-0.355,0.894,-0.027
4.53,-0.292,1.213,-0.129
4.54,-0.13,0.837,-0.065
4.55,-0.147,1.037,0.111
4.56,-0.198,0.777,0.115
4.57,-0.35,1.079,-0.054
4.58,-0.248,1.002,-0.157
4.59,-0.178,0.935,0.019
4.6,-0.129,1.083,0.144
4.61,-0.142,0.807,0.066
4.62,-0.39,1.13,-0.137
4.63,-0.222,0.828,-0.121
4.64,-0.186,1.179,0.057
4.65,-0.039,0.863,0.153
4.66,-0.229,0.894,0.001
4.67,-0.386,1.024,-0.134
4.68,-0.191,0.882,-0.039
4.69,-0.038,1.241,0.046
4.7,-0.097,0.69,0.119
4.71,-0.358,1.069,-0.029
4.72,-0.263,0.938,-0.101
4.73,-0.149,1.052,-0.096
4.74,-0.101,0.869,0.103
4.75,-0.155,0.799,0.153
4.76,-0.365,1.177,-0.069
4.77,-0.253,0.818,-0.133
4.78,-0.182,1.17,-0.034
4.79,-0.095,0.806,0.112
4.8,-0.187,1.034,0.09
4.81,-0.288,0.95,-0.144
4.82,-0.305,0.928,-0.106
4.83,-0.205,1.119,0.072
4.84,0.021,0.821,0.116
4.85,-0.268,1.072,0.02
4.86,-0.347,0.76,-0.132
4.87,-0.281,1.195,-0.048
4.88,-0.068,0.943,0.034
4.89,-0.085,0.908,0.12
4.9,-0.269,0.94,-0.007
4.91,-0.338,0.939,-0.102
4.92,-0.13,1.143,-0.096
4.93,-0.136,0.825,0.109
4.94,-0.156,1.013,0.114
4.95,-0.313,0.867,-0.037
4.96,-0.314,1.1,-0.149
4.97,-0.246,0.913,-0.017
4.98,-0.165,0.937,0.162
4.99,-0.14,0.999,0.11
5.0,-0.392,0.879,-0.107
5.01,-0.208,1.085,-0.117
5.02,-0.136,0.941,0.026
5.03,-0.061,1.081,0.103
5.04,-0.193,0.766,0.053
5.05,-0.336,1.051,-0.135
5.06,-0.246,1.075,-0.026
5.07,-0.045,0.974,-0.003
5.08,-0.117,0.939,0.178
5.09,-0.252,0.782,-0.018
5.1,-0.365,1.207,-0.119
5.11,-0.142,0.878,-0.087
5.12,-0.127,1.047,0.076
5.13,-0.129,0.741,0.119
5.14,-0.35,1.049,-0.009
5.15,-0.295,1.047,-0.151
5.16,-0.238,0.842,-0.047
5.17,-0.048,1.039,0.105
5.18,-0.192,0.776,0.156
5.19,-0.341,1.138,-0.133
5.2,-0.281,0.809,-0.103
5.21,-0.196,1.095,-0.035
5.22,-0.066,0.964,0.184
5.23,-0.164,0.852,0.038
5.24,-0.362,1.06,-0.108
5.25,-0.183,0.875,-0.101
5.26,-0.138,1.304,0.074
5.27,-0.01,0.683,0.098
5.28,-0.3,1.033,0.021
5.29,-0.329,0.917,-0.108
5.3,-0.164,1.089,-0.098
5.31,-0.1,1.005,0.08
5.32,-0.074,0.684,0.119
5.33,-0.412,1.149,0.004
5.34,-0.238,0.889,-0.168
5.35,-0.219,1.107,-0.053
5.36,-0.067,0.731,0.133
5.37,-0.197,1.094,0.114
5.38,-0.267,0.891,-0.106
5.39,-0.291,0.986,-0.124
5.4,-0.167,0.936,-0.009
5.41,-0.046,0.965,0.198
5.42,-0.222,1.037,0.043
5.43,-0.313,0.764,-0.127
5.44,-0.251,1.199,-0.062
5.45,-0.081,0.949,0.033
5.46,-0.081,1.006,0.111
5.47,-0.232,0.829,0.009
5.48,-0.316,1.016,-0.119
5.49,-0.213,1.126,-0.089
5.5,-0.062,0.876,0.055
5.51,-0.167,0.987,0.153
5.52,-0.28,0.825,-0.054
5.53,-0.392,1.229,-0.101
5.54,-0.104,0.832,-0.11
5.55,-0.125,1.01,0.106
5.56,-0.221,0.838,0.125
5.57,-0.29,0.998,-0.068
5.58,-0.245,1.072,-0.152
5.59,-0.172,0.833,-0.032
5.6,-0.144,1.173,0.2
5.61,-0.122,0.765,0.035
5.62,-0.354,1.085,-0.137
5.63,-0.179,0.887,-0.124
5.64,-0.206,1.17,0.046
5.65,-0.037,0.881,0.113
5.66,-0.237,0.822,0.04
5.67,-0.373,1.101,-0.146
5.68,-0.165,0.914,-0.045
5.69,-0.063,1.207,0.028
5.7,-0.109,0.678,0.148
5.71,-0.312,1.021,-0.007
5.72,-0.241,0.999,-0.135
5.73,-0.191,0.983,-0.109
5.74,-0.129,0.967,0.105
5.75,-0.125,0.776,0.157
5.76,-0.284,1.195,-0.074
5.77,-0.282,0.762,-0.141
5.78,-0.199,1.11,-0.033
5.79,-0.142,0.89,0.185
5.8,-0.098,0.979,0.069
5.81,-0.376,0.969,-0.118
5.82,-0.254,0.84,-0.107
5.83,-0.181,1.282,0.046
5.84,0.011,0.77,0.12
5.85,-0.216,1.037,0.038
5.86,-0.308,0.806,-0.138
5.87,-0.217,1.175,-0.05
5.88,-0.088,0.994,0.034
5.89,-0.063,0.805,0.124
5.9,-0.363,1.039,-0.003
5.91,-0.279,0.854,-0.108
5.92,-0.18,1.17,-0.106
5.93,-0.108,0.745,0.118
5.94,-0.148,0.994,0.112
5.95,-0.33,0.965,-0.027
5.96,-0.22,1.055,-0.166
5.97,-0.211,0.964,-0.043
5.98,-0.084,0.809,0.143
5.99,-0.25,1.095,0.152
6.0,-0.29,0.813,-0.147
6.01,-0.327,1.104,-0.091
6.02,-0.162,0.911,0.034
6.03,-0.046,1.127,0.142
6.04,-0.137,0.84,0.012
6.05,-0.343,0.922,-0.133
6.06,-0.252,1.103,-0.043
6.07,-0.035,0.987,0.027
6.08,-0.106,0.988,0.108
6.09,-0.258,0.752,-0.018
6.1,-0.332,1.21,-0.095
6.11,-0.111,0.98,-0.1
6.12,-0.193,0.947,0.094
6.13,-0.096,0.817,0.156
6.14,-0.359,0.979,-0.016
6.15,-0.248,1.146,-0.185
6.16,-0.183,0.811,-0.047
6.17,-0.177,1.056,0.206
6.18,-0.102,0.766,0.046
6.19,-0.393,1.174,-0.112
6.2,-0.27,0.797,-0.136
6.21,-0.174,1.209,0.068
6.22,-0.022,0.853,0.115
6.23,-0.248,0.862,0.007
6.24,-0.344,1.025,-0.111
6.25,-0.147,0.972,-0.073
6.26,-0.127,1.171,0.08
6.27,-0.029,0.663,0.115
6.28,-0.428,1.131,0.019
6.29,-0.237,0.84,-0.122
6.3,-0.206,1.097,-0.099
6.31,-0.124,0.915,0.109
6.32,-0.138,0.841,0.128
6.33,-0.381,1.139,-0.038
6.34,-0.196,0.785,-0.161
6.35,-0.262,1.15,-0.017
6.36,-0.069,0.756,0.166
6.37,-0.176,1.047,0.103
6.38,-0.307,0.952,-0.096
6.39,-0.244,0.945,-0.144
6.4,-0.24,1.143,0.065
6.41,0.048,0.813,0.152
6.42,-0.229,1.098,0.01
6.43,-0.326,0.757,-0.132
6.44,-0.297,1.207,-0.069
6.45,-0.018,0.957,0.059
6.46,-0.109,0.958,0.105
6.47,-0.261,0.898,-0.012
6.48,-0.332,0.979,-0.074
6.49,-0.145,1.18,-0.07
6.5,-0.068,0.738,0.077
6.51,-0.216,1.024,0.133
6.52,-0.312,0.892,-0.011
6.53,-0.251,1.172,-0.172
6.54,-0.173,0.853,-0.063
6.55,-0.161,0.924,0.169
6.56,-0.182,1.031,0.134
6.57,-0.242,0.872,-0.146
6.58,-0.324,1.066,-0.098
6.59,-0.204,0.886,0.046
6.6,-0.076,1.142,0.164
6.61,-0.115,0.805,0.016
6.62,-0.405,0.988,-0.14
6.63,-0.213,0.948,-0.088
6.64,-0.043,1.119,0.096
6.65,-0.059,0.988,0.114
6.66,-0.306,0.745,-0.021
6.67,-0.336,1.142,-0.134
6.68,-0.211,0.946,-0.007
6.69,-0.074,1.081,0.048
6.7,-0.131,0.732,0.148
6.71,-0.338,1.011,-0.04
6.72,-0.257,1.115,-0.12
6.73,-0.157,0.917,-0.066
6.74,-0.117,1.017,0.11
6.75,-0.198,0.752,0.14
6.76,-0.328,1.199,-0.118
6.77,-0.255,0.824,-0.128
6.78,-0.217,1.127,0.009
6.79,-0.11,0.888,0.147
6.8,-0.177,0.853,0.03
6.81,-0.361,1.09,-0.116
6.82,-0.182,0.856,-0.072
6.83,-0.102,1.284,0.007
6.84,-0.044,0.712,0.161
6.85,-0.271,1.02,-0.002
6.86,-0.314,0.899,-0.106
6.87,-0.131,1.088,-0.098
6.88,-0.043,0.993,-0.01
6.89,-0.078,0.742,0.128
6.9,-0.371,1.163,-0.046
6.91,-0.263,0.846,-0.151
6.92,-0.232,1.141,-0.023
6.93,-0.064,0.808,0.128
6.94,-0.235,1.013,0.134
6.95,-0.326,0.968,-0.085
6.96,-0.183,0.886,-0.137
6.97,-0.251,1.164,0.009
6.98,-0.081,0.812,0.161
6.99,-0.18,1.038,0.022
7.0,-0.332,0.815,-0.129
7.01,-0.314,1.185,-0.053
7.02,-0.031,0.902,0.067
7.03,-0.096,1.038,0.114
7.04,-0.306,0.856,-0.014
7.05,-0.329,1.019,-0.129
7.06,-0.192,1.084,-0.025
7.07,-0.077,0.82,0.047
7.08,-0.226,0.993,0.145
7.09,-0.309,0.85,-0.05
7.1,-0.268,1.202,-0.137
7.11,-0.184,0.839,-0.033
7.12,-0.133,0.992,0.14
7.13,-0.201,0.919,0.131
7.14,-0.316,0.969,-0.11
7.15,-0.265,1.031,-0.108
7.16,-0.185,0.919,0.049
7.17,-0.112,1.122,0.147
7.18,-0.112,0.769,0.012
7.19,-0.372,1.085,-0.12
7.2,-0.208,0.927,-0.077
7.21,-0.107,1.105,0.071
7.22,-0.101,0.895,0.143
7.23,-0.363,0.847,0.0
7.24,-0.346,1.125,-0.116
7.25,-0.093,0.869,-0.07
7.26,-0.163,1.115,0.095
7.27,-0.103,0.67,0.09
7.28,-0.328,1.116,-0.057
7.29,-0.216,0.965,-0.167
7.3,-0.165,0.928,-0.022
7.31,-0.26,1.026,0.289
7.32,-0.195,0.776,0.096
7.33,-0.404,1.136,-0.117
7.34,-0.225,0.802,-0.135
7.35,-0.143,1.218,0.013
7.36,-0.081,0.845,0.188
7.37,-0.234,0.951,0.069
7.38,-0.302,0.98,-0.135
7.39,-0.183,0.897,-0.067
7.4,-0.119,1.186,0.031
7.41,-0.078,0.692,0.171
7.42,-0.319,1.113,-0.009
7.43,-0.275,0.827,-0.112
7.44,-0.192,1.146,-0.044
7.45,-0.169,0.891,0.093
7.46,-0.155,0.845,0.169
7.47,-0.326,1.109,-0.082
7.48,-0.273,0.84,-0.113
7.49,-0.168,1.143,-0.054
7.5,-0.044,0.807,0.161
7.51,-0.204,1.071,0.03
7.52,-0.279,0.832,-0.128
7.53,-0.216,1.06,-0.065
7.54,-0.079,1.073,0.02
7.55,-0.075,0.746,0.163
7.56,-0.254,1.069,0.009
7.57,-0.333,0.871,-0.112
7.58,-0.223,1.232,-0.099
7.59,-0.135,0.817,0.088
7.6,-0.094,0.959,0.141
7.61,-0.302,0.974,-0.016
7.62,-0.268,0.999,-0.172
7.63,-0.26,1.019,-0.068
7.64,-0.049,0.779,0.114
7.65,-0.202,1.101,0.109
7.66,-0.33,0.825,-0.071
7.67,-0.299,1.099,-0.125
7.68,-0.197,0.917,0.012
7.69,-0.096,1.042,0.176
7.7,-0.216,0.929,0.077
7.71,-0.284,0.845,-0.15
7.72,-0.229,1.181,-0.052
7.73,-0.057,0.961,0.001
7.74,-0.12,0.976,0.154
7.75,-0.146,0.764,-0.006
7.76,-0.395,1.159,-0.122
7.77,-0.107,0.988,-0.088
7.78,-0.267,0.93,0.105
7.79,-0.157,0.917,0.171
7.8,-0.321,0.869,-0.042
7.81,-0.26,1.066,-0.194
7.82,-0.172,0.854,-0.003
7.83,-0.129,1.116,0.143
7.84,-0.109,0.74,0.091
7.85,-0.369,1.138,-0.115
7.86,-0.2,0.847,-0.146
7.87,-0.189,1.121,0.072
7.88,-0.084,0.933,0.126
7.89,-0.168,0.804,-0.008
7.9,-0.396,1.125,-0.127
7.91,-0.17,0.916,-0.05
7.92,-0.136,1.199,0.056
7.93,-0.095,0.655,0.177
7.94,-0.344,1.071,-0.021
7.95,-0.267,0.946,-0.14
7.96,-0.228,0.977,-0.077
7.97,-0.139,1.007,0.122
7.98,-0.16,0.787,0.127
7.99,-0.335,1.151,-0.094
8.0,-0.27,0.759,-0.144
8.01,-0.209,1.154,-0.014
8.02,-0.092,0.87,0.181
8.03,-0.178,0.934,0.064
8.04,-0.341,0.938,-0.131
8.05,-0.217,0.896,-0.1
8.06,-0.151,1.242,0.039
8.07,-0.008,0.739,0.083
8.08,-0.278,1.045,0.045
8.09,-0.332,0.806,-0.123
8.1,-0.192,1.239,-0.053
8.11,-0.152,0.879,0.045
8.12,-0.057,0.778,0.164
8.13,-0.289,1.032,-0.052
8.14,-0.348,0.917,-0.107
8.15,-0.236,1.115,-0.059
8.16,-0.096,0.782,0.059
8.17,-0.182,1.087,0.145
8.18,-0.333,0.905,-0.061
8.19,-0.322,1.024,-0.094
8.2,-0.214,0.944,-0.011
8.21,-0.045,0.891,0.151
8.22,-0.264,1.097,0.072
8.23,-0.314,0.794,-0.151
8.24,-0.227,1.159,-0.102
8.25,-0.121,0.928,0.016
8.26,-0.117,1.043,0.146
8.27,-0.206,0.851,0.033
8.28,-0.32,0.953,-0.107
8.29,-0.201,1.11,-0.106
8.3,-0.234,0.914,0.114
8.31,-0.123,1.068,0.107
8.32,-0.292,0.779,-0.079
8.33,-0.379,1.189,-0.112
8.34,-0.135,0.921,-0.058
8.35,-0.132,1.007,0.092
8.36,-0.139,0.853,0.138
8.37,-0.307,0.989,-0.054
8.38,-0.349,1.094,-0.129
8.39,-0.155,0.833,-0.026
8.4,-0.123,1.146,0.176
8.41,-0.134,0.741,0.057
8.42,-0.364,1.08,-0.118
8.43,-0.211,0.953,-0.141
8.44,-0.108,1.119,0.049
8.45,-0.057,0.919,0.117
8.46,-0.244,0.798,0.05
8.47,-0.375,1.183,-0.126
8.48,-0.165,0.92,-0.094
8.49,-0.187,1.095,0.036
8.5,-0.078,0.682,0.151
8.51,-0.342,1.068,-0.01
8.52,-0.255,0.949,-0.159
8.53,-0.239,0.912,-0.051
8.54,-0.095,1.061,0.114
8.55,-0.135,0.78,0.134
8.56,-0.339,1.156,-0.111
8.57,-0.302,0.747,-0.108
8.58,-0.22,1.12,-0.012
8.59,-0.089,0.927,0.15
8.6,-0.194,0.935,0.058
8.61,-0.301,0.996,-0.134
8.62,-0.243,0.865,-0.086
8.63,-0.124,1.131,0.055
8.64,-0.009,0.782,0.148
8.65,-0.253,1.037,-0.022
8.66,-0.391,0.806,-0.079
8.67,-0.244,1.185,-0.08
8.68,-0.078,0.909,0.057
8.69,-0.124,0.937,0.116
8.7,-0.328,0.941,-0.021
8.71,-0.263,0.96,-0.106
8.72,-0.161,1.123,-0.087
8.73,-0.081,0.758,0.121
8.74,-0.235,1.115,0.146
8.75,-0.292,0.848,-0.08
8.76,-0.311,1.102,-0.156
8.77,-0.273,0.926,0.009
8.78,-0.062,0.965,0.142
8.79,-0.171,0.963,0.058
8.8,-0.331,0.847,-0.112
8.81,-0.275,1.159,-0.084
8.82,-0.083,0.914,0.041
8.83,-0.071,1.048,0.137
8.84,-0.208,0.787,-0.026
8.85,-0.389,1.055,-0.101
8.86,-0.147,1.081,-0.066
8.87,-0.119,0.957,0.06
8.88,-0.147,0.89,0.126
8.89,-0.317,0.875,-0.004
8.9,-0.248,1.248,-0.146
8.91,-0.203,0.805,-0.054
8.92,-0.147,1.058,0.108
8.93,-0.119,0.814,0.144
8.94,-0.329,1.037,-0.084
8.95,-0.296,0.941,-0.097
8.96,-0.2,0.928,-0.028
8.97,-0.146,1.117,0.179
8.98,-0.073,0.729,0.059
8.99,-0.375,1.139,-0.098
9.0,-0.233,0.839,-0.152
9.01,-0.177,1.175,0.053
9.02,-0.054,0.883,0.142
9.03,-0.211,0.833,0.041
9.04,-0.383,1.089,-0.135
9.05,-0.183,0.955,-0.036
9.06,-0.132,1.208,0.01
9.07,-0.094,0.653,0.155
9.08,-0.301,1.072,-0.027
9.09,-0.33,0.967,-0.091
9.1,-0.161,1.06,-0.106
9.11,-0.17,1.129,0.073
9.12,-0.304,0.775,-0.138
9.13,-0.278,1.12,-0.093
9.14,-0.136,0.978,0.068
9.15,-0.026,1.002,0.126
9.16,-0.259,0.878,0.024
9.17,-0.334,0.921,-0.091
9.18,-0.193,1.201,-0.064
9.19,-0.107,0.827,0.043
9.2,-0.163,0.964,0.147
9.21,-0.295,0.822,0.009
9.22,-0.263,1.192,-0.15
9.23,-0.212,0.901,-0.058
9.24,-0.066,0.935,0.077
9.25,-0.204,0.964,0.131
9.26,-0.26,0.909,-0.075
9.27,-0.335,1.12,-0.161
9.28,-0.155,0.834,-0.018
9.29,-0.123,1.146,0.11
9.3,-0.159,0.805,0.098
9.31,-0.332,1.085,-0.091
9.32,-0.231,0.913,-0.13
9.33,-0.219,1.011,0.057
9.34,-0.083,1.065,0.138
9.35,-0.16,0.749,0.016
9.36,-0.346,1.128,-0.104
9.37,-0.254,0.884,-0.053
9.38,-0.101,1.244,0.03
9.39,-0.063,0.654,0.119
9.4,-0.349,1.068,0.031
9.41,-0.29,0.955,-0.102
9.42,-0.126,1.069,-0.111
9.43,-0.154,0.957,0.084
9.44,-0.131,0.745,0.174
9.45,-0.312,1.192,-0.057
9.46,-0.317,0.839,-0.134
9.47,-0.209,1.06,-0.032
9.48,-0.144,0.846,0.146
9.49,-0.144,1.046,0.113
9.5,-0.317,0.986,-0.103
9.51,-0.261,0.828,-0.112
9.52,-0.238,1.118,0.06
9.53,0.039,0.859,0.129
9.54,-0.214,1.102,0.046
9.55,-0.319,0.747,-0.139
9.56,-0.286,1.127,-0.05
9.57,-0.108,1.013,0.045
9.58,-0.027,0.913,0.122
9.59,-0.19,0.952,0.019
9.6,-0.372,0.854,-0.089
9.61,-0.16,1.214,-0.073
9.62,-0.109,0.855,0.062
9.63,-0.101,1.021,0.127
9.64,-0.314,0.882,-0.01
9.65,-0.261,1.137,-0.132
9.66,-0.196,0.946,-0.092
9.67,-0.104,0.885,0.098
9.68,-0.198,1.037,0.15
9.69,-0.301,0.902,-0.092
9.7,-0.317,1.139,-0.131
9.71,-0.147,0.853,-0.053
9.72,-0.153,1.087,0.172
9.73,-0.13,0.839,0.056
9.74,-0.29,1.016,-0.123
9.75,-0.227,0.973,-0.115
9.76,-0.174,0.94,0.047
9.77,-0.042,1.129,0.146
9.78,-0.161,0.741,-0.007
9.79,-0.37,1.122,-0.12
9.8,-0.222,0.902,-0.078
9.81,-0.069,1.167,0.025
9.82,-0.095,0.795,0.155
9.83,-0.218,0.854,-0.004
9.84,-0.373,1.137,-0.099
9.85,-0.159,0.892,-0.09
9.86,-0.126,1.132,0.064
9.87,-0.048,0.65,0.12
9.88,-0.373,1.14,-0.021
9.89,-0.344,0.91,-0.101
9.9,-0.223,0.981,-0.082
9.91,-0.107,0.949,0.099
9.92,-0.166,0.826,0.139
9.93,-0.315,1.116,-0.086
9.94,-0.259,0.765,-0.136
9.95,-0.249,1.141,-0.035
9.96,-0.067,0.805,0.179
9.97,-0.208,1.062,0.069
9.98,-0.292,0.926,-0.08
9.99,-0.252,0.866,-0.113
10.0,-0.186,1.126,0.037
10.01,0.025,0.898,0.16
10.02,-0.274,1.07,0.025
10.03,-0.343,0.723,-0.123
10.04,-0.241,1.157,-0.079
10.05,-0.082,1.019,0.056
10.06,-0.076,0.939,0.109
10.07,-0.241,0.942,0.021
10.08,-0.355,0.877,-0.109
10.09,-0.122,1.206,-0.056
10.1,-0.155,0.844,0.135
10.11,-0.147,0.983,0.143
10.12,-0.248,0.836,-0.077
10.13,-0.325,1.145,-0.109
10.14,-0.135,0.91,-0.075
10.15,-0.245,0.922,0.156
10.16,-0.241,1.03,0.146
10.17,-0.316,0.881,-0.086
10.18,-0.27,1.136,-0.141
10.19,-0.146,0.838,-0.028
10.2,-0.112,1.1,0.149
10.21,-0.138,0.853,0.089
10.22,-0.388,1.107,-0.116
10.23,-0.19,0.899,-0.109
10.24,-0.089,1.12,0.03
10.25,-0.225,0.944,0.257
10.26,-0.313,0.818,0.022
10.27,-0.339,1.104,-0.143
10.28,-0.122,0.904,-0.062
10.29,-0.099,1.184,0.042
10.3,-0.117,0.671,0.171
10.31,-0.318,1.058,-0.046
10.32,-0.251,0.976,-0.125
10.33,-0.183,0.964,-0.074
10.34,-0.197,0.999,0.138
10.35,-0.128,0.766,0.149
10.36,-0.357,1.184,-0.096
10.37,-0.282,0.786,-0.14
10.38,-0.17,1.175,-0.017
10.39,-0.133,0.888,0.173
10.4,-0.186,0.961,0.067
10.41,-0.317,0.964,-0.123
10.42,-0.247,0.889,-0.059
10.43,-0.17,1.214,0.036
10.44,-0.027,0.744,0.103
10.45,-0.236,1.076,0.037
10.46,-0.33,0.823,-0.128
10.47,-0.241,1.083,-0.103
10.48,-0.11,0.967,0.07
10.49,-0.055,0.87,0.161
10.5,-0.32,1.042,-0.028
10.51,-0.319,0.839,-0.127
10.52,-0.189,1.187,-0.058
10.53,-0.078,0.78,0.127
10.54,-0.192,1.053,0.128
10.55,-0.34,0.901,-0.062
10.56,-0.269,1.047,-0.156
10.57,-0.198,0.998,-0.032
10.58,-0.108,0.854,0.14
10.59,-0.217,1.08,0.095
10.6,-0.272,0.816,-0.133
10.61,-0.302,1.089,-0.136
10.62,-0.155,0.911,0.028
10.63,-0.072,1.11,0.17
10.64,-0.151,0.883,0.012
10.65,-0.43,0.934,-0.107
10.66,-0.196,1.105,-0.066
10.67,-0.072,0.965,0.05
10.68,-0.124,1.016,0.127
10.69,-0.281,0.759,-0.005
10.7,-0.353,1.125,-0.133
10.71,-0.084,0.957,-0.075
10.72,-0.171,1.056,0.06
10.73,-0.157,0.817,0.148
10.74,-0.323,0.891,-0.034
10.75,-0.286,1.194,-0.14
10.76,-0.147,0.841,-0.063
10.77,-0.192,1.078,0.139
10.78,-0.147,0.744,0.109
10.79,-0.332,1.144,-0.087
10.8,-0.313,0.914,-0.13
10.81,-0.155,0.994,0.0
10.82,-0.111,1.019,0.209
10.83,-0.147,0.77,0.015
10.84,-0.416,1.119,-0.111
10.85,-0.22,0.842,-0.066
10.86,-0.108,1.233,0.054
10.87,-0.049,0.739,0.146
10.88,-0.292,0.969,-0.016
10.89,-0.396,1.014,-0.089
10.9,-0.158,0.953,-0.1
10.91,-0.178,1.1,0.088
10.92,-0.11,0.691,0.116
10.93,-0.41,1.185,-0.05
10.94,-0.231,0.819,-0.171
10.95,-0.207,1.111,-0.032
10.96,-0.118,0.866,0.164
10.97,-0.135,0.914,0.091
10.98,-0.334,1.06,-0.105
10.99,-0.176,0.775,-0.14
11.0,-0.216,1.272,0.065
11.01,0.002,0.776,0.136
11.02,-0.26,1.051,0.044
11.03,-0.272,0.857,-0.142
11.04,-0.217,1.236,-0.116
11.05,-0.121,0.861,0.071
11.06,-0.062,0.916,0.152
11.07,-0.326,1.006,-0.021
11.08,-0.347,0.944,-0.139
11.09,-0.205,1.11,-0.076
11.1,-0.065,0.771,0.108
11.11,-0.207,1.103,0.154
11.12,-0.299,0.862,-0.081
11.13,-0.314,1.076,-0.154
11.14,-0.221,0.929,-0.026
11.15,-0.083,0.971,0.131
11.16,-0.213,1.036,0.126
11.17,-0.262,0.823,-0.151
11.18,-0.277,1.126,-0.098
11.19,-0.165,0.901,0.044
11.2,-0.044,1.092,0.114
11.21,-0.179,0.8,-0.004
11.22,-0.377,1.003,-0.109
11.23,-0.197,1.074,-0.062
11.24,-0.049,1.003,0.053
11.25,-0.149,0.94,0.122
11.26,-0.292,0.818,-0.029
11.27,-0.277,1.228,-0.117
11.28,-0.157,0.87,-0.062
11.29,-0.167,1.028,0.097
11.3,-0.132,0.809,0.144
11.31,-0.383,1.01,-0.077
11.32,-0.215,1.054,-0.144
11.33,-0.214,0.868,-0.019
11.34,-0.149,1.053,0.167
11.35,-0.203,0.77,0.079
11.36,-0.371,1.138,-0.121
11.37,-0.218,0.842,-0.118
11.38,-0.153,1.094,0.015
11.39,-0.068,0.911,0.148
11.4,-0.249,0.867,0.028
11.41,-0.34,1.041,-0.188
11.42,-0.22,0.87,-0.046
11.43,-0.008,1.246,0.054
11.44,-0.13,0.689,0.114
11.45,-0.333,1.015,-0.009
11.46,-0.248,0.959,-0.141
11.47,-0.15,1.035,-0.101
11.48,-0.11,0.962,0.092
11.49,-0.148,0.781,0.184
11.5,-0.335,1.133,-0.081
11.51,-0.276,0.751,-0.131
11.52,-0.155,1.181,-0.003
11.53,-0.127,0.814,0.194
11.54,-0.227,0.969,0.104
11.55,-0.28,0.974,-0.144
11.56,-0.249,0.915,-0.073
11.57,-0.045,1.171,0.014
11.58,0.007,0.817,0.078
11.59,-0.285,1.052,0.02
11.6,-0.326,0.794,-0.159
11.61,-0.177,1.203,-0.067
11.62,-0.091,0.93,0.029
11.63,-0.155,0.848,0.187
11.64,-0.316,1.032,-0.035
11.65,-0.255,0.927,-0.14
11.66,-0.139,1.15,-0.061
11.67,-0.073,0.747,0.096
11.68,-0.134,1.05,0.14
11.69,-0.272,0.881,-0.128
11.7,-0.306,1.056,-0.102
11.71,-0.172,0.973,0.006
11.72,-0.065,0.907,0.136
11.73,-0.221,1.072,0.054
11.74,-0.354,0.792,-0.16
11.75,-0.194,1.142,-0.086
11.76,-0.082,0.967,0.057
11.77,-0.285,1.023,0.189
11.78,-0.272,0.828,0.012
11.79,-0.266,0.999,-0.154
11.8,-0.108,1.159,-0.064
11.81,-0.199,0.842,0.063
11.82,-0.158,0.951,0.17
11.83,-0.293,0.834,-0.043
11.84,-0.235,1.221,-0.168
11.85,-0.173,0.855,-0.046
11.86,-0.142,1.12,0.177
11.87,-0.13,0.818,0.077
11.88,-0.392,1.0,-0.127
11.89,-0.214,0.965,-0.164
11.9,-0.161,1.064,0.076
11.91,-0.101,0.988,0.166
11.92,-0.271,0.751,0.018
11.93,-0.325,1.16,-0.144
11.94,-0.141,0.943,-0.071
11.95,-0.366,1.124,0.171
11.96,-0.11,0.744,0.157
11.97,-0.308,0.977,-0.047
11.98,-0.273,1.085,-0.168
11.99,-0.206,0.896,-0.049
12.0,-0.166,1.084,0.158
12.01,-0.147,0.735,0.144
12.02,-0.359,1.153,-0.11
12.03,-0.195,0.815,-0.125
12.04,-0.241,1.163,-0.004
12.05,-0.044,0.924,0.167
12.06,-0.151,0.815,0.024
12.07,-0.323,1.063,-0.12
12.08,-0.212,0.935,-0.01
12.09,-0.135,1.296,0.007
12.1,-0.096,0.678,0.168
12.11,-0.287,1.047,-0.003
12.12,-0.268,0.952,-0.144
12.13,-0.204,1.024,-0.115
12.14,-0.165,0.971,0.106
12.15,-0.146,0.717,0.143
12.16,-0.332,1.159,-0.067
12.17,-0.192,0.792,-0.13
12.18,-0.276,1.172,-0.055
12.19,-0.074,0.818,0.19
12.2,-0.158,0.996,0.079
12.21,-0.323,0.93,-0.119
12.22,-0.2,0.933,-0.098
12.23,-0.198,1.243,0.045
12.24,0.006,0.696,0.111
12.25,-0.283,1.062,0.032
12.26,-0.293,0.806,-0.13
12.27,-0.14,1.187,-0.127
12.28,-0.131,0.889,0.087
12.29,-0.11,0.868,0.157
12.3,-0.359,1.029,0.015
12.31,-0.216,0.897,-0.184
12.32,-0.255,1.136,-0.056
12.33,-0.065,0.751,0.097
12.34,-0.186,1.094,0.133
12.35,-0.317,0.883,-0.093
12.36,-0.258,1.005,-0.138
12.37,-0.168,1.038,0.014
12.38,-0.108,0.956,0.197
12.39,-0.164,0.977,0.045
12.4,-0.345,0.792,-0.1
12.41,-0.216,1.249,-0.105
12.42,-0.082,0.954,0.012
12.43,-0.104,0.988,0.145
12.44,-0.207,0.829,-0.036
12.45,-0.325,1.029,-0.09
12.46,-0.164,1.051,-0.106
12.47,-0.071,0.855,0.087
12.48,-0.161,0.995,0.135
12.49,-0.294,0.866,-0.013
12.5,-0.333,1.188,-0.172
12.51,-0.206,0.884,-0.065
12.52,-0.111,1.039,0.145
12.53,-0.15,0.927,0.108
12.54,-0.342,0.942,-0.111
12.55,-0.281,1.07,-0.119
12.56,-0.107,0.927,0.031
12.57,-0.06,1.068,0.142
12.58,-0.214,0.73,0.041
12.59,-0.358,1.077,-0.158
12.6,-0.19,1.003,-0.054
12.61,-0.114,1.089,0.015
12.62,-0.107,0.841,0.182
12.63,-0.277,0.861,0.012
12.64,-0.36,1.234,-0.109
12.65,-0.121,0.877,-0.116
12.66,-0.147,1.082,0.101
12.67,-0.115,0.712,0.139
12.68,-0.34,1.113,-0.077
12.69,-0.24,0.803,-0.162
12.7,-0.277,1.105,0.007
12.71,-0.124,0.886,0.187
12.72,-0.14,0.95,0.076
12.73,-0.346,1.037,-0.144
12.74,-0.276,0.808,-0.064
12.75,-0.122,1.277,0.072
12.76,-0.052,0.724,0.098
12.77,-0.267,1.003,0.006
12.78,-0.28,0.918,-0.122
12.79,-0.123,1.124,-0.076
12.8,-0.126,1.025,0.055
12.81,-0.121,0.714,0.128
12.82,-0.343,1.156,-0.011
12.83,-0.2,0.886,-0.163
12.84,-0.253,1.149,-0.026
12.85,-0.153,0.755,0.142
12.86,-0.148,1.02,0.126
12.87,-0.345,1.01,-0.1
12.88,-0.188,0.865,-0.174
12.89,-0.287,1.138,0.073
12.9,0.045,0.797,0.107
12.91,-0.252,1.051,0.055
12.92,-0.371,0.803,-0.14
12.93,-0.195,1.208,-0.05
12.94,-0.126,0.969,-0.006
12.95,-0.091,0.869,0.154
12.96,-0.352,0.996,0.001
12.97,-0.267,0.938,-0.102
12.98,-0.208,1.144,-0.073
12.99,-0.067,0.769,0.093
13.0,-0.166,1.047,0.144
13.01,-0.265,0.891,-0.061
13.02,-0.28,1.108,-0.148
13.03,-0.223,0.924,-0.072
13.04,-0.133,0.909,0.195
13.05,-0.177,1.055,0.076
13.06,-0.281,0.858,-0.131
13.07,-0.231,1.122,-0.109
13.08,-0.201,0.943,0.052
13.09,-0.02,1.064,0.131
13.1,-0.149,0.851,0.04
13.11,-0.322,0.984,-0.155
13.12,-0.284,1.064,-0.065
13.13,-0.076,0.937,0.017
13.14,-0.155,0.969,0.175
13.15,-0.279,0.785,-0.015
13.16,-0.323,1.2,-0.129
13.17,-0.108,0.915,-0.081
13.18,-0.153,1.055,0.098
13.19,-0.102,0.778,0.111
13.2,-0.365,0.987,-0.08
13.21,-0.252,1.113,-0.134
13.22,-0.205,0.866,-0.031
13.23,-0.124,1.026,0.144
13.24,-0.142,0.754,0.087
13.25,-0.419,1.139,-0.127
13.26,-0.236,0.834,-0.129
13.27,-0.122,1.133,0.055
13.28,-0.018,0.93,0.122
13.29,-0.262,0.816,0.037
13.3,-0.346,1.122,-0.14
13.31,-0.187,0.915,-0.065
13.32,-0.112,1.146,0.056
13.33,-0.082,0.652,0.162
13.34,-0.375,1.072,-0.013
13.35,-0.276,0.951,-0.136
13.36,-0.265,1.001,-0.04
13.37,-0.184,0.992,0.117
13.38,-0.148,0.775,0.152
13.39,-0.352,1.176,-0.112
13.4,-0.286,0.779,-0.126
13.41,-0.175,1.156,-0.016
13.42,-0.095,0.888,0.192
13.43,-0.147,0.926,0.039
13.44,-0.348,0.976,-0.128
13.45,-0.207,0.917,-0.102
13.46,-0.208,1.229,0.074
13.47,-0.037,0.691,0.14
13.48,-0.284,1.073,-0.004
13.49,-0.343,0.821,-0.121
13.5,-0.155,1.137,-0.077
13.51,-0.121,0.812,0.116
13.52,-0.095,0.922,0.106
13.53,-0.307,0.958,-0.059
13.54,-0.291,0.992,-0.152
13.55,-0.246,1.024,-0.028
13.56,-0.07,0.766,0.129
13.57,-0.159,1.113,0.115
13.58,-0.294,0.859,-0.122
13.59,-0.3,1.111,-0.114
13.6,-0.094,0.937,0.011
13.61,-0.071,0.978,0.165
13.62,-0.245,0.955,0.045
13.63,-0.344,0.883,-0.139
13.64,-0.264,1.153,-0.108
13.65,-0.074,0.899,0.086
13.66,-0.095,1.052,0.131
13.67,-0.281,0.77,-0.037
13.68,-0.301,1.107,-0.074
13.69,-0.055,1.048,-0.083
13.7,-0.144,0.938,0.056
13.71,-0.135,0.899,0.124
13.72,-0.334,0.901,-0.055
13.73,-0.256,1.156,-0.14
13.74,-0.238,0.809,-0.038
13.75,-0.121,1.039,0.244
13.76,-0.104,0.828,0.087
13.77,-0.399,1.056,-0.125
13.78,-0.219,0.988,-0.123
13.79,-0.097,1.027,0.047
13.8,-0.081,1.019,0.1
13.81,-0.262,0.75,0.017
13.82,-0.319,1.202,-0.154
13.83,-0.197,0.912,-0.088
13.84,-0.129,1.072,0.077
13.85,-0.134,0.76,0.196
13.86,-0.322,0.968,-0.054
13.87,-0.303,1.094,-0.116
13.88,-0.18,0.881,-0.06
13.89,-0.161,1.072,0.139
13.9,-0.061,0.764,0.108
13.91,-0.398,1.173,-0.127
13.92,-0.23,0.783,-0.158
13.93,-0.271,1.15,0.031
13.94,-0.008,0.941,0.134
13.95,-0.215,0.817,0.027
13.96,-0.332,1.052,-0.139
13.97,-0.181,0.965,-0.038
13.98,-0.188,1.201,0.006
13.99,-0.06,0.598,0.176
14.0,-0.333,1.099,0.01
14.01,-0.304,0.97,-0.125
14.02,-0.221,0.991,-0.087
14.03,-0.143,1.008,0.124
14.04,-0.143,0.77,0.15
14.05,-0.382,1.16,-0.058
14.06,-0.204,0.78,-0.161
14.07,-0.232,1.178,-0.047
14.08,-0.098,0.797,0.16
14.09,-0.164,1.002,0.075
14.1,-0.33,0.963,-0.13
14.11,-0.211,0.873,-0.113
14.12,-0.177,1.218,0.087
14.13,-0.033,0.727,0.148
14.14,-0.245,1.06,0.025
14.15,-0.321,0.83,-0.139
14.16,-0.197,1.19,-0.099
14.17,-0.142,0.889,0.034
14.18,-0.039,0.852,0.163
14.19,-0.351,1.059,-0.018
14.2,-0.266,0.873,-0.108
14.21,-0.242,1.159,-0.044
14.22,-0.105,0.738,0.107
14.23,-0.157,1.068,0.143
14.24,-0.259,0.909,-0.092
14.25,-0.336,1.026,-0.132
14.26,-0.231,0.957,-0.001
14.27,0.069,0.957,0.104
14.28,-0.229,1.044,0.043
14.29,-0.385,0.78,-0.107
14.3,-0.217,1.213,-0.084
14.31,-0.026,0.946,-0.008
14.32,-0.138,0.993,0.138
14.33,-0.204,0.769,-0.011
14.34,-0.284,1.205,-0.131
14.35,-0.205,0.944,-0.082
14.36,-0.135,0.906,0.081
14.37,-0.141,0.916,0.159
14.38,-0.301,0.927,-0.066
14.39,-0.309,1.142,-0.117
14.4,-0.165,0.776,-0.048
14.41,-0.081,1.135,0.179
14.42,-0.159,0.823,0.063
14.43,-0.374,0.988,-0.12
14.44,-0.154,0.953,-0.142
14.45,-0.229,1.083,0.05
14.46,-0.065,0.955,0.132
14.47,-0.212,0.781,0.048
14.48,-0.342,1.16,-0.143
14.49,-0.183,0.948,-0.037
14.5,-0.141,1.163,0.041
14.51,-0.103,0.732,0.147
14.52,-0.326,0.967,-0.041
14.53,-0.357,1.039,-0.124
14.54,-0.149,0.883,-0.076
14.55,-0.165,1.093,0.147
14.56,-0.15,0.709,0.102
14.57,-0.384,1.18,-0.046
14.58,-0.225,0.868,-0.187
14.59,-0.174,1.07,0.006
14.6,-0.081,0.909,0.119
14.61,-0.146,0.891,0.071
14.62,-0.389,1.081,-0.106
14.63,-0.194,0.826,-0.122
14.64,-0.225,1.268,0.1
14.65,-0.031,0.688,0.119
14.66,-0.304,1.056,0.044
14.67,-0.271,0.906,-0.126
14.68,-0.152,1.105,-0.07
14.69,-0.213,0.991,0.094
14.7,-0.078,0.743,0.13
14.71,-0.372,1.161,-0.048
14.72,-0.195,0.803,-0.177
14.73,-0.275,1.125,-0.037
14.74,-0.089,0.796,0.15
14.75,-0.172,0.998,0.096
14.76,-0.292,0.938,-0.085
14.77,-0.256,0.938,-0.118
14.78,-0.185,1.136,0.03
14.79,-0.052,0.776,0.128
14.8,-0.218,1.061,0.03
14.81,-0.328,0.79,-0.129
14.82,-0.208,1.187,-0.069
14.83,-0.083,0.96,0.047
14.84,-0.128,0.879,0.146
14.85,-0.274,0.993,0.0
14.86,-0.292,0.935,-0.124
14.87,-0.177,1.121,-0.053
14.88,-0.073,0.743,0.067
14.89,-0.258,1.068,0.161
14.9,-0.257,0.902,-0.081
14.91,-0.305,1.083,-0.155
14.92,-0.22,0.879,-0.033
14.93,-0.085,0.969,0.207
14.94,-0.165,1.027,0.049
14.95,-0.386,0.797,-0.128
14.96,-0.178,1.154,-0.076
14.97,-0.068,0.982,0.025
14.98,-0.139,0.994,0.112
14.99,-0.206,0.791,0.034
15.0,-0.345,1.089,-0.1
15.01,-0.139,1.064,-0.07
15.02,-0.156,0.92,0.082
15.03,-0.107,0.998,0.139
15.04,-0.345,0.838,-0.028
15.05,-0.297,1.205,-0.155
15.06,-0.229,0.815,-0.04
15.07,-0.139,1.021,0.074
15.08,-0.166,0.902,0.159
15.09,-0.392,0.977,-0.101
15.1,-0.223,1.006,-0.115
15.11,-0.191,0.936,0.007
15.12,-0.045,1.142,0.15
15.13,-0.146,0.754,0.034
15.14,-0.399,1.106,-0.115
15.15,-0.239,0.946,-0.034
15.16,-0.139,1.218,0.035
15.17,-0.082,0.719,0.117
15.18,-0.314,0.975,0.025
15.19,-0.299,1.033,-0.142
15.2,-0.136,0.96,-0.085
15.21,-0.304,1.048,0.233
15.22,-0.097,0.687,0.125
15.23,-0.399,1.166,-0.081
15.24,-0.276,0.858,-0.203
15.25,-0.203,1.059,-0.016
15.26,-0.086,0.908,0.161
15.27,-0.138,0.901,0.077
15.28,-0.358,1.048,-0.136
15.29,-0.198,0.803,-0.123
15.3,-0.228,1.302,0.097
15.31,0.021,0.757,0.113
15.32,-0.271,1.036,0.031
15.33,-0.357,0.854,-0.161
15.34,-0.165,1.121,-0.042
15.35,-0.125,1.038,0.022
15.36,-0.08,0.726,0.139
15.37,-0.371,1.104,-0.009
15.38,-0.213,0.855,-0.132
15.39,-0.212,1.17,-0.047
15.4,-0.111,0.777,0.111
15.41,-0.142,1.01,0.163
15.42,-0.316,0.986,-0.102
15.43,-0.255,0.88,-0.151
15.44,-0.26,1.106,-0.0
15.45,-0.045,0.841,0.166
15.46,-0.192,1.085,0.056
15.47,-0.294,0.785,-0.143
15.48,-0.252,1.147,-0.073
15.49,-0.123,0.948,0.054
15.5,-0.053,0.909,0.111
15.51,-0.238,0.936,0.012
15.52,-0.319,0.948,-0.133
15.53,-0.229,1.193,-0.056
15.54,-0.112,0.806,0.042
15.55,-0.164,0.964,0.149
15.56,-0.278,0.842,-0.042
15.57,-0.232,1.175,-0.164
15.58,-0.166,0.896,-0.063
15.59,-0.111,0.848,0.11
15.6,-0.16,1.003,0.14
15.61,-0.314,0.891,-0.134
15.62,-0.238,1.109,-0.105
15.63,-0.171,0.851,-0.013
15.64,-0.065,1.117,0.175
15.65,-0.16,0.826,0.009
15.66,-0.44,1.001,-0.107
15.67,-0.179,1.024,-0.094
15.68,-0.052,1.058,0.042
15.69,-0.077,0.955,0.104
15.7,-0.289,0.778,-0.014
15.71,-0.298,1.235,-0.136
15.72,-0.103,0.934,-0.075
15.73,-0.123,1.053,0.055
15.74,-0.104,0.774,0.138
15.75,-0.341,0.997,-0.062
15.76,-0.196,1.071,-0.153
15.77,-0.24,0.862,-0.007
15.78,-0.154,1.061,0.14
15.79,-0.157,0.771,0.103
15.8,-0.402,1.112,-0.148
15.81,-0.243,0.854,-0.122
15.82,-0.17,1.147,0.058
15.83,-0.056,0.9,0.16
15.84,-0.218,0.819,0.017
15.85,-0.358,1.087,-0.139
15.86,-0.113,0.914,-0.078
15.87,-0.191,1.203,0.078
15.88,-0.071,0.679,0.101
15.89,-0.394,1.107,0.012
15.9,-0.205,0.921,-0.159
15.91,-0.187,0.984,-0.046
15.92,-0.199,0.981,0.168
15.93,-0.11,0.788,0.128
15.94,-0.365,1.167,-0.124
15.95,-0.221,0.746,-0.114
15.96,-0.218,1.25,0.003
15.97,-0.069,0.823,0.156
15.98,-0.223,1.032,0.037
15.99,-0.346,0.846,-0.125
16.0,-0.234,1.079,-0.061
16.01,-0.078,1.015,0.057
16.02,-0.126,0.773,0.179
16.03,-0.321,1.074,-0.026
16.04,-0.283,0.873,-0.112
16.05,-0.19,1.164,-0.08
16.06,-0.128,0.754,0.103
16.07,-0.152,0.995,0.138
16.08,-0.289,0.979,-0.084
16.09,-0.296,0.954,-0.128
16.1,-0.226,1.065,-0.017
16.11,-0.103,0.825,0.175
16.12,-0.194,1.073,0.048
16.13,-0.277,0.788,-0.161
16.14,-0.259,1.168,-0.103
16.15,-0.127,0.98,0.067
16.16,-0.039,0.945,0.144
16.17,-0.221,0.916,0.037
16.18,-0.307,0.924,-0.14
16.19,-0.225,1.198,-0.014
16.2,-0.108,0.812,0.046
16.21,-0.119,0.989,0.155
16.22,-0.336,0.823,-0.067
16.23,-0.287,1.172,-0.163
16.24,-0.178,0.922,-0.055
16.25,-0.147,0.904,0.137
16.26,-0.142,0.958,0.169
16.27,-0.286,0.895,-0.152
16.28,-0.298,1.134,-0.104
16.29,-0.16,0.901,0.01
16.3,-0.068,1.121,0.146
16.31,-0.181,0.75,0.014
16.32,-0.345,1.047,-0.129
16.33,-0.215,1.054,-0.06
16.34,-0.118,0.971,0.04
16.35,-0.104,0.957,0.153
16.36,-0.25,0.788,-0.034
16.37,-0.356,1.21,-0.121
16.38,-0.115,0.873,-0.107
16.39,-0.121,1.058,0.116
16.4,-0.182,0.791,0.14
16.41,-0.366,1.009,-0.041
16.42,-0.268,1.0,-0.133
16.43,-0.148,0.907,-0.041
16.44,-0.186,1.122,0.193
16.45,-0.089,0.716,0.059
16.46,-0.375,1.141,-0.083
16.47,-0.208,0.878,-0.15
16.48,-0.167,1.16,0.046
16.49,-0.062,0.894,0.152
16.5,-0.194,0.858,0.031
16.51,-0.386,1.085,-0.145
16.52,-0.184,0.892,-0.042
16.53,-0.128,1.245,0.039
16.54,-0.018,0.661,0.129
16.55,-0.365,1.079,-0.017
16.56,-0.299,0.927,-0.1
16.57,-0.136,0.985,-0.09
16.58,-0.161,0.996,0.106
16.59,-0.149,0.783,0.148
16.6,-0.353,1.179,-0.088
16.61,-0.238,0.787,-0.103
16.62,-0.261,1.211,-0.026
16.63,-0.061,0.814,0.176
16.64,-0.141,0.967,0.062
16.65,-0.31,0.937,-0.124
16.66,-0.284,0.945,-0.11
16.67,-0.135,1.19,0.06
16.68,-0.029,0.714,0.113
16.69,-0.284,1.049,0.024
16.7,-0.355,0.818,-0.12
16.71,-0.166,1.172,-0.088
16.72,-0.127,0.901,0.067
16.73,-0.156,0.869,0.165
16.74,-0.296,1.034,-0.016
16.75,-0.293,0.904,-0.149
16.76,-0.204,1.096,-0.025
16.77,-0.072,0.784,0.117
16.78,-0.223,1.124,0.161
16.79,-0.288,0.872,-0.107
16.8,-0.287,1.085,-0.109
16.81,-0.186,0.956,0.035
16.82,-0.062,1.041,0.131
16.83,-0.178,0.88,0.035
16.84,-0.336,0.909,-0.114
16.85,-0.254,1.178,-0.069
16.86,-0.037,0.887,0.021
16.87,-0.123,1.011,0.148
16.88,-0.251,0.777,-0.005
16.89,-0.33,1.148,-0.118
16.9,-0.127,0.937,-0.105
16.91,-0.099,0.955,0.097
16.92,-0.143,0.919,0.108
16.93,-0.353,0.925,-0.029
16.94,-0.294,1.159,-0.15
16.95,-0.179,0.831,-0.047
16.96,-0.155,1.096,0.151
16.97,-0.145,0.787,0.105
16.98,-0.402,1.061,-0.118
16.99,-0.186,0.914,-0.133
17.0,-0.159,1.061,0.025
17.01,-0.061,1.02,0.139
17.02,-0.223,0.767,0.03
17.03,-0.374,1.137,-0.14
17.04,-0.179,0.906,-0.081
17.05,-0.124,1.193,0.067
17.06,-0.123,0.754,0.175
17.07,-0.308,0.945,-0.003
17.08,-0.264,1.051,-0.149
17.09,-0.17,0.936,-0.07
17.1,-0.153,1.089,0.095
17.11,-0.168,0.676,0.142
17.12,-0.34,1.146,-0.058
17.13,-0.236,0.892,-0.13
17.14,-0.18,1.1,-0.033
17.15,-0.171,0.844,0.158
17.16,-0.198,0.86,0.123
17.17,-0.25,1.148,-0.148
17.18,-0.256,0.821,-0.126
17.19,-0.186,1.162,0.052
17.2,0.08,0.797,0.084
17.21,-0.337,1.03,-0.003
17.22,-0.355,0.854,-0.148
17.23,-0.078,1.131,-0.057
17.24,-0.134,1.062,0.036
17.25,-0.141,0.671,0.151
17.26,-0.308,1.149,-0.003
17.27,-0.157,0.896,-0.176
17.28,-0.258,1.147,-0.058
17.29,-0.322,0.734,0.216
17.3,-0.121,0.998,0.166
17.31,-0.291,1.001,-0.135
17.32,-0.315,0.875,-0.13
17.33,-0.155,1.141,0.016
17.34,-0.023,0.841,0.184
17.35,-0.263,1.078,0.045
17.36,-0.292,0.795,-0.159
17.37,-0.237,1.221,-0.062
17.38,-0.091,0.954,0.02
17.39,-0.058,0.81,0.156
17.4,-0.303,1.003,0.011
17.41,-0.3,0.937,-0.132
17.42,-0.166,1.161,-0.076
17.43,-0.1,0.792,0.114
17.44,-0.174,1.011,0.146
17.45,-0.175,0.963,0.014
17.46,-0.067,0.934,0.149
17.47,-0.236,0.915,0.03
17.48,-0.319,0.976,-0.162
17.49,-0.16,0.913,-0.074
17.5,-0.092,1.236,0.057
17.51,-0.037,0.706,0.107
17.52,-0.325,1.082,0.009
17.53,-0.31,0.855,-0.149
17.54,-0.075,1.118,-0.075
17.55,-0.348,0.959,0.067
17.56,-0.171,0.784,0.097
17.57,-0.273,1.17,-0.073
17.58,-0.229,0.891,-0.153
17.59,-0.244,1.149,-0.025
17.6,-0.063,0.768,0.198
17.61,-0.199,1.042,0.064
17.62,-0.351,0.879,-0.186
17.63,-0.239,0.988,-0.059
17.64,-0.068,1.152,-0.018
17.65,-0.098,0.735,0.205
17.66,-0.267,1.049,-0.018
17.67,-0.312,0.875,-0.076
17.68,-0.124,1.226,-0.13
17.69,-0.201,0.786,0.097
17.7,-0.093,0.894,0.165
17.71,-0.324,0.996,-0.068
17.72,-0.224,0.945,-0.156
17.73,-0.195,1.09,-0.059
17.74,-0.067,0.774,0.126
17.75,-0.183,1.106,0.11
17.76,-0.282,0.851,-0.133
17.77,-0.277,1.079,-0.139
17.78,-0.204,0.96,0.042
17.79,-0.001,0.971,0.149
17.8,-0.255,0.943,0.014
17.81,-0.278,0.834,-0.128
17.82,-0.234,1.268,-0.036
17.83,-0.11,0.866,0.071
17.84,-0.138,0.947,0.146
17.85,-0.262,0.864,-0.059
17.86,-0.334,1.151,-0.136
17.87,-0.149,0.955,-0.07
17.88,-0.153,0.872,0.142
17.89,-0.165,0.958,0.148
17.9,-0.284,0.895,-0.144
17.91,-0.312,1.162,-0.143
17.92,-0.216,0.884,0.024
17.93,-0.081,1.064,0.181
17.94,-0.125,0.829,0.027
17.95,-0.388,0.975,-0.128
17.96,-0.251,1.062,-0.054
17.97,-0.068,1.001,0.03
17.98,-0.11,0.934,0.146
17.99,-0.291,0.779,-0.03
18.0,-0.293,1.205,-0.121
18.01,-0.153,0.917,-0.102
18.02,-0.144,0.992,0.088
18.03,-0.157,0.853,0.169
18.04,-0.312,0.937,-0.085
18.05,-0.286,1.079,-0.099
18.06,-0.162,0.862,-0.025
18.07,-0.157,1.115,0.16
18.08,-0.152,0.769,0.074
18.09,-0.372,1.125,-0.143
18.1,-0.198,0.873,-0.123
18.11,-0.17,1.154,0.08
18.12,-0.043,0.955,0.144
18.13,-0.249,0.776,0.006
18.14,-0.302,1.135,-0.146
18.15,-0.156,0.947,-0.039
18.16,-0.122,1.154,0.046
18.17,-0.099,0.675,0.145
18.18,-0.348,1.073,-0.042
18.19,-0.267,1.015,-0.112
18.2,-0.156,0.965,-0.057
18.21,-0.195,0.997,0.119
18.22,-0.121,0.775,0.145
18.23,-0.394,1.18,-0.1
18.24,-0.242,0.768,-0.18
18.25,-0.242,1.209,0.035
18.26,-0.003,0.875,0.134
18.27,-0.236,0.888,0.01
18.28,-0.329,0.87,-0.1
18.29,-0.071,1.118,-0.117
18.3,-0.21,1.011,0.046
18.31,-0.076,0.694,0.131
18.32,-0.349,1.135,-0.015
18.33,-0.242,0.836,-0.131
18.34,-0.199,1.168,-0.033
18.35,-0.105,0.827,0.146
18.36,-0.19,1.005,0.102
18.37,-0.31,0.986,-0.075
18.38,-0.294,0.931,-0.14
18.39,-0.212,1.118,0.014
18.4,-0.034,0.833,0.187
18.41,-0.198,1.064,0.039
18.42,-0.316,0.801,-0.126
18.43,-0.242,1.162,-0.107
18.44,-0.156,0.979,0.045
18.45,-0.076,0.923,0.123
18.46,-0.254,0.955,0.001
18.47,-0.324,0.876,-0.159
18.48,-0.2,1.189,-0.037
18.49,-0.058,0.8,0.084
18.5,-0.197,0.999,0.127
18.51,-0.3,0.862,-0.043
18.52,-0.288,1.132,-0.14
18.53,-0.177,0.929,-0.056
18.54,-0.119,0.868,0.15
18.55,-0.225,1.044,0.136
18.56,-0.305,0.803,-0.158
18.57,-0.272,1.108,-0.101
18.58,-0.155,0.896,0.047
18.59,-0.029,1.086,0.143
18.6,-0.24,0.813,-0.001
18.61,-0.332,0.988,-0.12
18.62,-0.15,1.124,-0.024
18.63,-0.114,0.922,0.046
18.64,-0.222,0.961,0.161
18.65,-0.284,0.802,-0.045
18.66,-0.282,1.219,-0.164
18.67,-0.165,0.836,-0.028
18.68,-0.148,1.03,0.137
18.69,-0.11,0.892,0.132
18.7,-0.357,0.962,-0.129
18.71,-0.279,1.01,-0.131
18.72,-0.192,0.994,0.089
18.73,-0.02,1.094,0.07
18.74,-0.195,0.725,0.033
18.75,-0.336,1.105,-0.12
18.76,-0.222,1.012,0.006
18.77,-0.127,1.078,0.038
18.78,-0.097,0.811,0.164
18.79,-0.29,0.882,0.0
18.8,-0.282,1.215,-0.147
18.81,-0.275,0.834,-0.07
18.82,-0.123,1.062,0.121
18.83,-0.121,0.737,0.118
18.84,-0.366,1.121,-0.082
18.85,-0.311,0.92,-0.148
18.86,-0.188,0.937,-0.002
18.87,-0.125,1.035,0.216
18.88,-0.171,0.814,0.086
18.89,-0.399,1.173,-0.148
18.9,-0.246,0.826,-0.109
18.91,-0.174,1.214,0.023
18.92,-0.042,0.784,0.135
18.93,-0.298,0.961,0.053
18.94,-0.37,0.965,-0.14
18.95,-0.154,0.963,-0.066
18.96,-0.074,1.166,0.028
18.97,-0.045,0.637,0.129
18.98,-0.297,1.11,-0.035
18.99,-0.267,0.896,-0.142
19.0,-0.234,1.105,-0.029
19.01,-0.097,0.838,0.149
19.02,-0.148,0.879,0.135
19.03,-0.348,1.087,-0.108
19.04,-0.247,0.829,-0.13
19.05,-0.218,1.181,0.008
19.06,-0.009,0.783,0.16
19.07,-0.209,1.081,0.054
19.08,-0.339,0.845,-0.151
19.09,-0.204,1.029,-0.114
19.1,-0.134,1.069,0.071
19.11,-0.089,0.842,0.143
19.12,-0.335,0.994,-0.004
19.13,-0.234,0.94,-0.162
19.14,-0.211,1.097,-0.067
19.15,-0.137,0.727,0.134
19.16,-0.165,1.09,0.144
19.17,-0.274,0.896,-0.113
19.18,-0.298,1.062,-0.131
19.19,-0.184,0.957,0.014
19.2,0.018,0.956,0.172
19.21,-0.208,0.996,0.04
19.22,-0.328,0.799,-0.13
19.23,-0.27,1.214,-0.028
19.24,-0.015,0.922,0.015
19.25,-0.158,0.985,0.127
19.26,-0.292,0.843,0.0
19.27,-0.247,1.114,-0.145
19.28,-0.194,1.013,-0.096
19.29,-0.099,0.828,0.095
19.3,-0.21,1.025,0.201
19.31,-0.292,0.877,-0.12
19.32,-0.323,1.089,-0.123
19.33,-0.245,0.856,-0.009
19.34,-0.024,1.067,0.132
19.35,-0.159,0.854,0.055
19.36,-0.358,0.935,-0.103
19.37,-0.245,1.106,-0.071
19.38,-0.027,0.989,0.015
19.39,-0.106,1.011,0.155
19.4,-0.206,0.729,0.024
19.41,-0.362,1.197,-0.147
19.42,-0.152,0.941,-0.081
19.43,-0.122,1.0,0.051
19.44,-0.125,0.83,0.147
19.45,-0.35,0.932,-0.027
19.46,-0.315,1.165,-0.135
19.47,-0.175,0.788,-0.053
19.48,-0.182,1.097,0.142
19.49,-0.119,0.784,0.091
19.5,-0.358,1.112,-0.12
19.51,-0.208,0.857,-0.146
19.52,-0.221,1.062,0.071
19.53,-0.06,1.025,0.138
19.54,-0.21,0.76,0.036
19.55,-0.347,1.118,-0.135
19.56,-0.191,0.918,-0.049
19.57,-0.138,1.263,0.039
19.58,-0.111,0.675,0.116
19.59,-0.222,0.968,-0.001
19.6,-0.291,1.084,-0.119
19.61,-0.122,0.963,-0.067
19.62,-0.16,1.016,0.123
19.63,-0.089,0.698,0.136
19.64,-0.412,1.229,-0.09
19.65,-0.291,0.811,-0.143
19.66,-0.17,1.088,-0.025
19.67,-0.097,0.93,0.186
19.68,-0.127,0.914,0.046
19.69,-0.365,1.006,-0.131
19.7,-0.252,0.815,-0.082
19.71,-0.118,1.287,0.039
19.72,-0.064,0.704,0.128
19.73,-0.237,1.032,-0.004
19.74,-0.438,0.88,-0.094
19.75,-0.102,1.068,-0.136
19.76,-0.147,0.983,0.102
19.77,-0.105,0.781,0.13
19.78,-0.375,1.12,-0.004
19.79,-0.183,0.867,-0.197
19.8,-0.247,1.107,-0.044
19.81,-0.11,0.766,0.156
19.82,-0.179,1.049,0.126
19.83,-0.278,0.922,-0.123
19.84,-0.252,0.926,-0.13
19.85,-0.214,1.123,0.049
19.86,-0.046,0.829,0.154
19.87,-0.202,1.042,0.026
19.88,-0.297,0.795,-0.133
19.89,-0.211,1.208,-0.058
19.9,-0.064,0.917,-0.002
19.91,-0.124,0.917,0.169
19.92,-0.223,0.915,-0.03
19.93,-0.306,1.112,-0.138
19.94,-0.196,0.97,-0.082
19.95,-0.137,0.864,0.109
19.96,-0.196,1.057,0.164
19.97,-0.267,0.879,-0.12
19.98,-0.287,1.133,-0.108
19.99,-0.178,0.833,-0.008
20.0,-0.148,1.054,0.161
20.01,-0.116,0.892,0.083
20.02,-0.375,0.939,-0.156
20.03,-0.276,1.023,-0.099
20.04,-0.107,1.009,0.063
20.05,-0.072,1.067,0.116
20.06,-0.183,0.732,-0.029
20.07,-0.422,1.177,-0.093
20.08,-0.118,0.939,-0.06
20.09,-0.146,1.066,0.066
20.1,-0.115,0.775,0.128
20.11,-0.352,0.936,-0.036
20.12,-0.285,1.148,-0.121
20.13,-0.173,0.835,-0.055
20.14,-0.146,1.063,0.144
20.15,-0.161,0.773,0.138
20.16,-0.356,1.134,-0.099
20.17,-0.26,0.842,-0.155
20.18,-0.206,1.063,0.039
20.19,-0.052,1.023,0.114
20.2,-0.187,0.74,0.05
20.21,-0.309,1.129,-0.132
20.22,-0.225,0.936,-0.05
20.23,-0.074,1.205,-0.009
20.24,-0.082,0.692,0.153
20.25,-0.268,0.992,0.013
20.26,-0.313,1.029,-0.119
20.27,-0.168,0.964,-0.111
20.28,-0.178,1.067,0.092
20.29,-0.064,0.722,0.148
20.3,-0.378,1.165,-0.084
20.31,-0.277,0.778,-0.137
20.32,-0.222,1.12,-0.014
20.33,-0.088,0.851,0.124
20.34,-0.175,0.92,0.102
20.35,-0.325,1.066,-0.088
20.36,-0.22,0.845,-0.11
20.37,-0.252,1.18,0.033
20.38,-0.038,0.759,0.126
20.39,-0.234,1.074,0.048
20.4,-0.312,0.837,-0.163
20.41,-0.258,1.118,-0.054
20.42,-0.12,1.026,0.052
20.43,-0.048,0.783,0.161
20.44,-0.304,1.064,0.004
20.45,-0.317,0.881,-0.112
20.46,-0.278,1.146,-0.081
20.47,-0.099,0.748,0.116
20.48,-0.091,1.028,0.125
20.49,-0.349,0.95,-0.053
20.5,-0.267,0.984,-0.156
20.51,-0.213,1.0,-0.044
20.52,-0.07,0.831,0.178
20.53,-0.27,1.095,0.115
20.54,-0.299,0.793,-0.101
20.55,-0.24,1.115,-0.101
20.56,-0.184,0.919,0.022
20.57,-0.062,1.021,0.133
20.58,-0.189,0.905,0.009
20.59,-0.415,0.901,-0.115
20.6,-0.144,1.106,-0.101
20.61,-0.02,0.936,0.03
20.62,-0.142,1.023,0.107
20.63,-0.288,0.778,-0.014
20.64,-0.331,1.167,-0.113
20.65,-0.133,0.963,-0.053
20.66,-0.117,0.925,0.084
20.67,-0.11,0.901,0.147
20.68,-0.378,0.915,-0.075
20.69,-0.335,1.17,-0.106
20.7,-0.171,0.812,-0.049
20.71,-0.105,1.144,0.186
20.72,-0.208,0.788,0.074
20.73,-0.41,1.026,-0.126
20.74,-0.175,0.911,-0.098
20.75,-0.058,1.19,0.028
20.76,-0.067,0.82,0.082
20.77,-0.264,0.854,0.029
20.78,-0.34,1.105,-0.147
20.79,-0.16,0.927,-0.082
20.8,-0.183,1.145,0.087
20.81,-0.069,0.649,0.142
20.82,-0.369,1.136,-0.044
20.83,-0.275,0.924,-0.136
20.84,-0.178,0.986,-0.061
20.85,-0.166,0.999,0.177
20.86,-0.11,0.799,0.074
20.87,-0.408,1.14,-0.116
20.88,-0.226,0.763,-0.113
20.89,-0.233,1.308,0.053
20.9,-0.008,0.768,0.137
20.91,-0.232,0.963,0.034
20.92,-0.306,0.926,-0.113
20.93,-0.227,1.017,-0.072
20.94,-0.117,1.128,0.027
20.95,-0.049,0.714,0.132
20.96,-0.33,1.093,0.012
20.97,-0.287,0.817,-0.138
20.98,-0.21,1.162,-0.068
20.99,-0.151,0.827,0.108
21.0,-0.115,0.914,0.131
21.01,-0.35,1.093,-0.028
21.02,-0.23,0.866,-0.202
21.03,-0.191,1.126,-0.039
21.04,-0.118,0.806,0.166
21.05,-0.134,1.109,0.073
21.06,-0.337,0.84,-0.112
21.07,-0.248,1.026,-0.123
21.08,-0.202,1.074,0.062
21.09,-0.044,0.87,0.144
21.1,-0.22,0.979,0.047
21.11,-0.299,0.837,-0.121
21.12,-0.167,1.252,-0.064
21.13,-0.117,0.83,0.012
21.14,-0.135,0.98,0.202
21.15,-0.218,0.872,-0.049
21.16,-0.347,1.087,-0.094
21.17,-0.186,1.007,-0.105
21.18,-0.118,0.849,0.1
21.19,-0.172,1.038,0.144
21.2,-0.311,0.835,-0.066
21.21,-0.321,1.17,-0.13
21.22,-0.146,0.84,-0.038
21.23,-0.156,1.1,0.211
21.24,-0.118,0.896,0.057
21.25,-0.317,0.907,-0.11
21.26,-0.239,1.099,-0.116
21.27,-0.14,0.943,0.024
21.28,-0.056,1.026,0.147
21.29,-0.203,0.746,0.044
21.3,-0.352,1.094,-0.134
21.31,-0.222,0.983,-0.039
21.32,-0.096,1.111,0.022
21.33,-0.098,0.843,0.141
21.34,-0.277,0.869,0.004
21.35,-0.318,1.227,-0.151
21.36,-0.14,0.867,-0.075
21.37,-0.114,1.097,0.096
21.38,-0.106,0.719,0.107
21.39,-0.382,1.12,-0.029
21.4,-0.255,0.93,-0.17
21.41,-0.232,0.964,-0.004
21.42,-0.155,1.021,0.184
21.43,-0.132,0.802,0.073
21.44,-0.372,1.167,-0.139
21.45,-0.251,0.748,-0.113
21.46,-0.275,1.25,0.054
21.47,-0.026,0.865,0.144
21.48,-0.218,0.941,0.005
21.49,-0.313,0.971,-0.146
21.5,-0.189,0.975,-0.04
21.51,-0.214,1.182,0.017
21.52,-0.091,0.647,0.133
21.53,-0.307,1.086,-0.037
21.54,-0.3,0.876,-0.114
21.55,-0.222,1.091,-0.068
21.56,-0.087,0.838,0.084
21.57,-0.154,0.856,0.154
21.58,-0.28,0.985,-0.107
21.59,-0.339,0.909,-0.122
21.6,-0.243,1.062,-0.006
21.61,-0.047,0.818,0.142
21.62,-0.239,1.087,0.067
21.63,-0.326,0.771,-0.11
21.64,-0.198,1.164,-0.116
21.65,-0.123,0.982,0.059
21.66,-0.038,0.912,0.136
21.67,-0.255,0.947,0.029
21.68,-0.364,0.886,-0.094
21.69,-0.198,1.197,-0.072
21.7,-0.097,0.866,0.088
21.71,-0.142,1.014,0.088
21.72,-0.325,0.864,-0.032
21.73,-0.252,1.145,-0.145
21.74,-0.178,0.952,-0.09
21.75,-0.079,0.855,0.094
21.76,-0.17,0.966,0.131
21.77,-0.297,0.898,-0.087
21.78,-0.327,1.124,-0.14
21.79,-0.148,0.805,-0.022
21.8,-0.108,1.134,0.201
21.81,-0.109,0.807,0.024
21.82,-0.374,0.996,-0.109
21.83,-0.284,1.041,-0.033
21.84,-0.026,1.033,-0.012
21.85,-0.13,1.013,0.171
21.86,-0.248,0.746,-0.051
21.87,-0.376,1.173,-0.084
21.88,-0.125,0.899,-0.1
21.89,-0.116,1.059,0.098
21.9,-0.182,0.768,0.144
21.91,-0.286,0.998,-0.011
21.92,-0.315,1.099,-0.145
21.93,-0.198,0.84,-0.074
21.94,-0.155,1.126,0.151
21.95,-0.086,0.774,0.093
21.96,-0.35,1.133,-0.133
21.97,-0.252,0.788,-0.137
21.98,-0.226,1.144,0.059
21.99,-0.035,0.954,0.146
22.0,-0.173,0.819,0.037
22.01,-0.375,1.069,-0.112
22.02,-0.219,0.876,-0.078
22.03,-0.09,1.256,0.036
22.04,-0.053,0.721,0.137
22.05,-0.247,1.008,-0.003
22.06,-0.337,0.941,-0.126
22.07,-0.101,1.041,-0.079
22.08,-0.179,1.036,0.095
22.09,-0.132,0.686,0.12
22.1,-0.353,1.16,-0.009
22.11,-0.24,0.863,-0.161
22.12,-0.214,1.102,-0.026
22.13,-0.094,0.814,0.114
22.14,-0.186,0.988,0.125
22.15,-0.328,0.994,-0.077
22.16,-0.284,0.883,-0.128
22.17,-0.168,1.123,-0.009
22.18,-0.098,0.788,0.167
22.19,-0.198,1.069,0.033
22.2,-0.361,0.781,-0.148
22.21,-0.245,1.099,-0.06
22.22,-0.047,1.067,0.066
22.23,-0.054,0.901,0.118
22.24,-0.333,0.991,0.022
22.25,-0.345,0.858,-0.078
22.26,-0.167,1.247,-0.072
22.27,-0.141,0.801,0.08
22.28,-0.16,0.982,0.143
22.29,-0.317,0.898,-0.039
22.3,-0.251,1.081,-0.159
22.31,-0.222,0.922,-0.081
22.32,-0.092,0.844,0.168
22.33,-0.175,1.054,0.127
22.34,-0.297,0.832,-0.105
22.35,-0.299,1.11,-0.116
22.36,-0.197,0.885,0.018
22.37,-0.071,1.05,0.163
22.38,-0.192,0.862,0.039
22.39,-0.316,0.95,-0.15
22.4,-0.249,1.014,-0.04
22.41,-0.124,1.069,0.043
22.42,-0.079,0.851,0.146
22.43,-0.271,0.825,-0.005
22.44,-0.357,1.206,-0.139
22.45,-0.103,0.865,-0.117
22.46,-0.154,1.14,0.103
22.47,-0.107,0.729,0.11
22.48,-0.412,1.079,-0.049
22.49,-0.23,0.973,-0.143
22.5,-0.19,0.978,-0.053
22.51,-0.142,1.01,0.141
22.52,-0.142,0.762,0.115
22.53,-0.367,1.165,-0.117
22.54,-0.215,0.771,-0.117
22.55,-0.229,1.24,0.044
22.56,-0.022,0.857,0.148
22.57,-0.208,0.89,0.005
22.58,-0.321,0.998,-0.119
22.59,-0.242,0.94,-0.04
22.6,-0.122,1.203,0.073
22.61,-0.021,0.671,0.132
22.62,-0.309,1.069,-0.039
22.63,-0.362,0.872,-0.085
22.64,-0.136,1.102,-0.09
22.65,-0.104,0.921,0.059
22.66,-0.155,0.797,0.154
22.67,-0.343,1.14,-0.054
22.68,-0.267,0.806,-0.134
22.69,-0.209,1.13,-0.044
22.7,-0.119,0.815,0.17
22.71,-0.159,1.085,0.081
22.72,-0.284,0.893,-0.103
22.73,-0.262,0.961,-0.112
22.74,-0.195,1.089,0.035
22.75,-0.068,0.828,0.169
22.76,-0.202,1.073,0.064
22.77,-0.304,0.775,-0.149
22.78,-0.231,1.21,-0.059
22.79,-0.093,0.919,0.003
22.8,-0.127,0.937,0.176
22.81,-0.215,0.916,-0.007
22.82,-0.335,0.986,-0.138
22.83,-0.222,1.069,-0.067
22.84,-0.053,0.771,0.115
22.85,-0.168,1.044,0.13
22.86,-0.318,0.859,-0.017
22.87,-0.284,1.163,-0.207
22.88,-0.164,0.875,-0.046
22.89,-0.103,0.98,0.161
22.9,-0.15,0.988,0.086
22.91,-0.37,0.857,-0.121
22.92,-0.24,1.097,-0.1
22.93,-0.244,0.939,0.057
22.94,-0.103,1.134,0.097
22.95,-0.136,0.745,0.049
22.96,-0.322,1.071,-0.136
22.97,-0.229,1.066,-0.072
22.98,-0.118,0.971,0.021
22.99,-0.109,0.917,0.157
23.0,-0.208,0.788,-0.02
23.01,-0.384,1.206,-0.13
23.02,-0.184,0.873,-0.045
23.03,-0.129,1.094,0.1
23.04,-0.08,0.732,0.134
23.05,-0.309,1.039,-0.031
23.06,-0.353,1.029,-0.158
23.07,-0.188,0.869,-0.019
23.08,-0.09,1.122,0.123
23.09,-0.153,0.733,0.095
23.1,-0.421,1.149,-0.091
23.11,-0.187,0.793,-0.148
23.12,-0.225,1.139,0.023
23.13,-0.089,0.874,0.164
23.14,-0.177,0.892,0.071
23.15,-0.356,1.063,-0.126
23.16,-0.187,0.855,-0.106
23.17,-0.213,1.225,0.055
23.18,0.005,0.681,0.155
23.19,-0.333,1.086,0.008
23.2,-0.295,0.812,-0.156
23.21,-0.207,1.095,-0.057
23.22,-0.089,1.021,0.056
23.23,-0.14,0.88,0.146
23.24,-0.339,1.042,-0.059
23.25,-0.211,0.903,-0.149
23.26,-0.211,1.096,-0.06
23.27,-0.079,0.777,0.166
23.28,-0.234,1.116,0.125
23.29,-0.333,0.839,-0.116
23.3,-0.277,1.02,-0.103
23.31,-0.179,1.011,0.04
23.32,-0.064,0.949,0.171
23.33,-0.171,1.024,0.019
23.34,-0.349,0.805,-0.128
23.35,-0.252,1.156,-0.11
23.36,-0.086,0.937,0.08
23.37,-0.082,1.078,0.097
23.38,-0.263,0.801,0.0
23.39,-0.315,1.033,-0.124
23.4,-0.173,1.096,-0.056
23.41,-0.116,0.867,0.054
23.42,-0.168,0.949,0.122
23.43,-0.314,0.831,-0.054
23.44,-0.309,1.19,-0.134
23.45,-0.124,0.842,-0.044
23.46,-0.073,1.047,0.13
23.47,-0.268,0.881,0.137
23.48,-0.326,0.977,-0.083
23.49,-0.293,1.065,-0.092
23.5,-0.159,0.9,-0.008
23.51,-0.156,1.12,0.22
23.52,-0.128,0.772,0.005
23.53,-0.368,1.088,-0.099
23.54,-0.216,0.913,-0.11
23.55,-0.153,1.133,0.073
23.56,-0.047,0.872,0.126
23.57,-0.223,0.833,-0.005
23.58,-0.346,1.098,-0.154
23.59,-0.193,0.894,-0.057
23.6,-0.068,1.133,0.051
23.61,-0.11,0.714,0.142
23.62,-0.331,1.09,-0.027
23.63,-0.264,0.95,-0.142
23.64,-0.206,0.958,-0.026
23.65,-0.135,1.005,0.119
23.66,-0.177,0.759,0.097
23.67,-0.376,1.202,-0.084
23.68,-0.224,0.795,-0.144
23.69,-0.19,1.169,0.011
23.7,-0.072,0.856,0.158
23.71,-0.2,0.927,0.051
23.72,-0.312,0.931,-0.135
23.73,-0.23,0.943,-0.06
23.74,-0.101,1.217,0.022
23.75,-0.094,0.701,0.146
23.76,-0.257,1.062,-0.001
23.77,-0.321,0.878,-0.11
23.78,-0.192,1.153,-0.105
23.79,-0.123,0.872,0.073
23.8,-0.088,0.895,0.145
23.81,-0.359,1.083,-0.008
23.82,-0.256,0.821,-0.167
23.83,-0.272,1.118,-0.038
23.84,-0.074,0.816,0.126
23.85,-0.146,1.122,0.095
23.86,-0.34,0.848,-0.113
23.87,-0.281,0.984,-0.102
23.88,-0.182,1.032,-0.001
23.89,-0.083,0.895,0.173
23.9,-0.204,1.043,0.069
23.91,-0.304,0.796,-0.115
23.92,-0.223,1.172,-0.12
23.93,-0.184,0.91,0.041
23.94,-0.083,1.023,0.157
23.95,-0.212,0.861,-0.005
23.96,-0.365,0.944,-0.121
23.97,-0.146,1.123,-0.051
23.98,-0.05,0.9,0.071
23.99,-0.151,1.002,0.137
24.0,-0.304,0.81,-0.032
24.01,-0.352,1.194,-0.17
24.02,-0.118,0.878,-0.067
24.03,-0.115,0.989,0.084
24.04,-0.153,0.747,0.087
24.05,-0.333,1.087,-0.056
24.06,-0.227,0.974,-0.145
24.07,-0.193,0.939,0.027
24.08,-0.087,1.025,0.153
24.09,-0.149,0.787,0.047
24.1,-0.373,1.16,-0.149
24.11,-0.236,0.84,-0.099
24.12,-0.178,1.202,0.059
24.13,-0.032,0.807,0.137
24.14,-0.242,0.911,0.008
24.15,-0.316,1.015,-0.136
24.16,-0.173,0.916,-0.074
24.17,-0.098,1.171,0.073
24.18,-0.079,0.64,0.125
24.19,-0.333,1.124,-0.04
24.2,-0.271,0.921,-0.164
24.21,-0.2,1.088,-0.049
24.22,-0.093,0.89,0.117
24.23,-0.198,0.812,0.131
24.24,-0.377,1.116,-0.076
24.25,-0.212,0.863,-0.135
24.26,-0.171,1.119,-0.012
24.27,-0.073,0.759,0.172
24.28,-0.242,1.073,0.073
24.29,-0.278,0.912,-0.119
24.3,-0.265,0.973,-0.125
24.31,-0.122,1.04,0.019
24.32,-0.011,0.834,0.18
24.33,-0.3,1.08,0.024
24.34,-0.32,0.741,-0.161
24.35,-0.146,1.201,-0.065
24.36,-0.072,0.93,0.048
24.37,-0.094,0.926,0.131
24.38,-0.314,0.951,-0.035
24.39,-0.266,0.976,-0.152
24.4,-0.175,1.108,-0.03
24.41,-0.084,0.746,0.093
24.42,-0.186,1.069,0.121
24.43,-0.278,0.872,-0.108
24.44,-0.304,1.106,-0.118
24.45,-0.131,0.947,-0.031
24.46,-0.132,0.977,0.171
24.47,-0.238,0.963,0.079
24.48,-0.297,0.875,-0.123
24.49,-0.224,1.206,-0.086
24.5,-0.137,0.865,0.03
24.51,-0.096,0.988,0.175
24.52,-0.169,0.783,-0.002
24.53,-0.337,1.123,-0.137
24.54,-0.243,1.026,-0.049
24.55,-0.106,0.908,0.104
24.56,-0.122,0.931,0.144
24.57,-0.324,0.854,-0.05
24.58,-0.33,1.181,-0.135
24.59,-0.153,0.876,-0.034
24.6,-0.107,1.046,0.136
24.61,-0.192,0.839,0.116
24.62,-0.32,1.044,-0.122
24.63,-0.232,0.974,-0.126
24.64,-0.153,0.969,0.036
24.65,-0.062,1.122,0.142
24.66,-0.231,0.709,0.023
24.67,-0.322,1.106,-0.149
24.68,-0.236,0.96,-0.008
24.69,-0.098,1.124,-0.006
24.7,-0.082,0.781,0.184
24.71,-0.297,0.888,-0.009
24.72,-0.324,1.145,-0.09
24.73,-0.13,0.904,-0.119
24.74,-0.209,1.112,0.124
24.75,-0.071,0.662,0.133
24.76,-0.409,1.181,-0.072
24.77,-0.291,0.851,-0.134
24.78,-0.231,1.039,-0.026
24.79,-0.09,0.961,0.133
24.8,-0.156,0.84,0.113
24.81,-0.324,1.148,-0.125
24.82,-0.268,0.772,-0.141
24.83,-0.192,1.211,0.011
24.84,-0.002,0.859,0.202
24.85,-0.192,1.017,-0.017
24.86,-0.32,0.849,-0.135
24.87,-0.257,1.192,-0.039
24.88,-0.1,0.965,0.031
24.89,-0.122,0.794,0.164
24.9,-0.314,1.069,-0.043
24.91,-0.24,0.907,-0.119
24.92,-0.214,1.14,-0.049
24.93,-0.097,0.733,0.125
24.94,-0.189,1.086,0.166
24.95,-0.327,0.883,-0.107
24.96,-0.328,0.977,-0.139
24.97,-0.231,1.015,0.011
24.98,-0.003,0.91,0.153
24.99,-0.272,1.058,0.064
25.0,-0.281,0.773,-0.116
25.01,-0.278,1.232,-0.065
25.02,-0.093,0.943,0.024
25.03,-0.068,0.936,0.13
25.04,-0.225,0.88,0.041
25.05,-0.356,1.022,-0.148
25.06,-0.205,1.101,-0.059
25.07,-0.108,0.829,0.049
25.08,-0.177,1.041,0.189
25.09,-0.269,0.819,-0.054
25.1,-0.36,1.152,-0.17
25.11,-0.165,0.832,-0.018
25.12,-0.083,0.998,0.108
25.13,-0.172,0.925,0.133
25.14,-0.322,0.886,-0.109
25.15,-0.305,1.06,-0.089
25.16,-0.141,0.911,0.001
25.17,-0.173,1.172,0.155
25.18,-0.142,0.755,0.057
25.19,-0.37,1.091,-0.125
25.2,-0.191,0.962,-0.102
25.21,-0.143,1.086,0.056
25.22,-0.059,0.938,0.142
25.23,-0.225,0.779,-0.01
25.24,-0.346,1.146,-0.159
25.25,-0.193,0.899,-0.024
25.26,-0.135,1.12,0.06
25.27,-0.094,0.72,0.134
25.28,-0.356,1.044,-0.034
25.29,-0.345,1.021,-0.123
25.3,-0.123,0.905,-0.046
25.31,-0.156,1.082,0.151
25.32,-0.108,0.735,0.094
25.33,-0.37,1.185,-0.099
25.34,-0.219,0.781,-0.131
25.35,-0.233,1.183,0.019
25.36,-0.053,0.905,0.175
25.37,-0.199,0.885,0.045
25.38,-0.346,0.97,-0.132
25.39,-0.209,0.906,-0.053
25.4,-0.105,1.236,0.031
25.41,-0.044,0.667,0.138
25.42,-0.239,1.085,-0.024
25.43,-0.372,0.897,-0.146
25.44,-0.198,1.101,-0.078
25.45,-0.153,0.948,0.101
25.46,-0.097,0.784,0.125
25.47,-0.402,1.133,-0.02
25.48,-0.272,0.819,-0.153
25.49,-0.186,1.106,-0.054
25.5,-0.07,0.763,0.157
25.51,-0.148,1.047,0.069
25.52,-0.298,0.917,-0.122
25.53,-0.281,0.944,-0.101
25.54,-0.249,1.11,0.021
25.55,0.003,0.79,0.162
25.56,-0.274,1.066,0.067
25.57,-0.316,0.754,-0.125
25.58,-0.245,1.225,-0.092
25.59,-0.043,0.913,0.023
25.6,-0.091,0.936,0.139
25.61,-0.222,0.912,-0.025
25.62,-0.33,0.948,-0.125
25.63,-0.194,1.119,-0.08
25.64,-0.134,0.777,0.118
25.65,-0.17,1.061,0.122
25.66,-0.313,0.856,-0.026
25.67,-0.33,1.139,-0.166
25.68,-0.196,0.855,-0.015
25.69,0.01,0.918,0.025
25.7,-0.142,0.858,0.042
25.71,-0.355,0.975,-0.121
25.72,-0.231,1.043,-0.092
25.73,-0.167,0.994,0.065
25.74,-0.026,1.009,0.123
25.75,-0.23,0.755,0.024
25.76,-0.349,1.145,-0.136
25.77,-0.155,0.979,-0.078
25.78,-0.133,1.108,0.065
25.79,-0.277,0.83,-0.005
25.8,-0.351,1.204,-0.16
25.81,-0.119,0.824,-0.06
25.82,-0.165,1.104,0.096
25.83,-0.144,0.76,0.137
25.84,-0.293,1.085,-0.119
25.85,-0.338,0.901,-0.102
25.86,-0.167,0.934,0.025
25.87,-0.133,1.072,0.215
25.88,-0.139,0.746,0.007
25.89,-0.472,1.105,-0.135
25.9,-0.217,0.833,-0.051
25.91,-0.116,1.278,0.078
25.92,-0.035,0.736,0.149
25.93,-0.306,0.963,-0.01
25.94,-0.346,1.033,-0.047
25.95,-0.133,0.996,-0.108
25.96,-0.149,1.107,0.096
25.97,-0.113,0.658,0.114
25.98,-0.388,1.175,-0.007
25.99,-0.198,0.808,-0.185
26.0,-0.194,1.117,-0.048
26.01,-0.155,0.896,0.188
26.02,-0.139,0.871,0.099
26.03,-0.317,1.097,-0.079
26.04,-0.203,0.841,-0.124
26.05,-0.254,1.232,-0.01
26.06,-0.022,0.765,0.183
26.07,-0.169,1.062,0.004
26.08,-0.321,0.877,-0.144
26.09,-0.252,1.054,-0.075
26.1,-0.132,1.059,0.026
26.11,-0.026,0.767,0.146
26.12,-0.328,1.079,0.006
26.13,-0.324,0.847,-0.098
26.14,-0.187,1.199,-0.062
26.15,-0.127,0.775,0.094
26.16,-0.164,0.975,0.122
26.17,-0.296,1.003,-0.069
26.18,-0.324,0.947,-0.153
26.19,-0.185,1.0,-0.024
26.2,-0.063,0.855,0.167
26.21,-0.21,1.092,0.106
26.22,-0.339,0.818,-0.1
26.23,-0.201,1.104,-0.142
26.24,-0.245,0.995,0.082
26.25,-0.029,0.975,0.104
26.26,-0.173,0.946,0.015
26.27,-0.341,0.906,-0.107
26.28,-0.293,1.188,-0.064
26.29,-0.065,0.857,0.089
26.3,-0.105,1.035,0.133
26.31,-0.252,0.81,-0.0
26.32,-0.309,1.15,-0.156
26.33,-0.213,0.984,-0.077
26.34,-0.134,0.907,0.084
26.35,-0.177,0.929,0.146
26.36,-0.322,0.9,-0.057
26.37,-0.299,1.148,-0.142
26.38,-0.124,0.805,-0.024
26.39,-0.158,1.085,0.169
26.4,-0.148,0.819,0.098
26.41,-0.339,1.057,-0.103
26.42,-0.262,0.951,-0.135
26.43,-0.189,0.973,0.022
26.44,-0.058,1.053,0.143
26.45,-0.214,0.758,0.034
26.46,-0.343,1.08,-0.159
26.47,-0.178,0.896,-0.059
26.48,-0.163,1.156,0.111
26.49,-0.088,0.667,0.132
26.5,-0.354,1.067,-0.045
26.51,-0.298,0.963,-0.152
26.52,-0.183,0.99,-0.07
26.53,-0.108,1.006,0.128
26.54,-0.187,0.781,0.135
26.55,-0.331,1.158,-0.071
26.56,-0.245,0.802,-0.14
26.57,-0.212,1.177,0.002
26.58,-0.041,0.849,0.164
26.59,-0.21,0.998,0.062
26.6,-0.353,0.942,-0.149
26.61,-0.25,0.92,-0.09
26.62,-0.147,1.208,0.059
26.63,0.018,0.705,0.125
26.64,-0.305,1.039,0.026
26.65,-0.295,0.818,-0.126
26.66,-0.172,1.202,-0.078
26.67,-0.121,0.891,0.051
26.68,-0.064,0.814,0.133
26.69,-0.351,1.107,-0.022
26.7,-0.238,0.901,-0.154
26.71,-0.255,1.109,-0.046
26.72,-0.074,0.738,0.151
26.73,-0.197,1.112,0.141
26.74,-0.293,0.883,-0.116
26.75,-0.312,0.981,-0.102
26.76,-0.246,1.021,0.012
26.77,-0.037,0.925,0.183
26.78,-0.18,1.039,0.043
26.79,-0.275,0.79,-0.119
26.8,-0.292,1.244,-0.063
26.81,-0.069,0.937,0.005
26.82,-0.145,0.947,0.162
26.83,-0.184,0.848,0.006
26.84,-0.412,1.065,-0.093
26.85,-0.132,1.055,-0.091
26.86,-0.132,0.838,0.08
26.87,-0.134,0.981,0.136
26.88,-0.322,0.85,-0.015
26.89,-0.298,1.2,-0.166
26.9,-0.17,0.839,-0.055
26.91,-0.169,0.995,0.153
26.92,-0.181,0.94,0.14
26.93,-0.324,0.965,-0.12
26.94,-0.25,1.062,-0.122
26.95,-0.14,0.877,0.005
26.96,-0.174,1.123,0.194
26.97,-0.153,0.779,0.039
26.98,-0.372,1.084,-0.126
26.99,-0.248,0.911,-0.071
27.0,-0.107,1.13,0.056
27.01,-0.048,0.92,0.134
27.02,-0.276,0.785,-0.009
27.03,-0.348,1.162,-0.13
27.04,-0.073,0.955,-0.074
27.05,-0.148,1.126,0.089
27.06,-0.101,0.682,0.129
27.07,-0.376,1.078,-0.021
27.08,-0.238,0.982,-0.155
27.09,-0.235,0.941,-0.018
27.1,-0.083,1.017,0.114
27.11,-0.195,0.755,0.132
27.12,-0.296,1.179,-0.116
27.13,-0.236,0.82,-0.121
27.14,-0.231,1.188,-0.026
27.15,-0.071,0.845,0.19
27.16,-0.149,0.927,0.024
27.17,-0.325,0.984,-0.143
27.18,-0.279,0.907,-0.043
27.19,-0.088,1.188,0.064
27.2,-0.016,0.707,0.117
27.21,-0.319,1.086,-0.02
27.22,-0.319,0.862,-0.117
27.23,-0.205,1.153,-0.038
27.24,-0.109,0.912,0.057
27.25,-0.166,0.824,0.152
27.26,-0.317,1.091,-0.068
27.27,-0.206,0.907,-0.177
27.28,-0.205,1.119,-0.066
27.29,-0.054,0.813,0.114
27.3,-0.137,1.146,0.095
27.31,-0.322,0.851,-0.149
27.32,-0.292,1.02,-0.098
27.33,-0.175,0.978,0.034
27.34,-0.077,1.024,0.224
27.35,-0.254,0.922,0.006
27.36,-0.398,0.835,-0.113
27.37,-0.111,1.234,-0.055
27.38,-0.094,0.914,0.033
27.39,-0.107,0.954,0.132
27.4,-0.246,0.835,-0.02
27.41,-0.247,1.194,-0.15
27.42,-0.191,0.977,-0.068
27.43,-0.115,0.9,0.105
27.44,-0.149,0.942,0.129
27.45,-0.353,0.895,-0.086
27.46,-0.281,1.133,-0.155
27.47,-0.189,0.836,-0.027
27.48,-0.174,1.075,0.182
27.49,-0.119,0.812,0.07
27.5,-0.391,1.005,-0.157
27.51,-0.247,1.004,-0.088
27.52,-0.132,1.025,0.057
27.53,-0.032,1.014,0.131
27.54,-0.226,0.735,0.013
27.55,-0.312,1.168,-0.128
27.56,-0.15,0.986,-0.063
27.57,-0.149,1.123,0.011
27.58,-0.081,0.708,0.154
27.59,-0.412,0.984,0.007
27.6,-0.204,1.132,-0.161
27.61,-0.221,0.877,-0.044
27.62,-0.134,1.007,0.095
27.63,-0.098,0.744,0.131
27.64,-0.301,1.184,-0.131
27.65,-0.289,0.832,-0.137
27.66,-0.18,1.089,-0.001
27.67,-0.055,1.006,0.155
27.68,-0.137,0.817,0.04
27.69,-0.372,1.081,-0.143
27.7,-0.26,0.838,-0.023
27.71,-0.107,1.256,0.033
27.72,-0.017,0.712,0.128
27.73,-0.281,1.01,-0.003
27.74,-0.317,0.968,-0.111
27.75,-0.189,1.107,-0.116
27.76,-0.191,1.001,0.114
27.77,-0.07,0.621,0.142
27.78,-0.396,1.185,0.003
27.79,-0.209,0.827,-0.191
27.8,-0.298,1.12,-0.023
27.81,-0.09,0.794,0.122
27.82,-0.186,1.017,0.16
27.83,-0.245,0.992,-0.162
27.84,-0.297,0.841,-0.094
27.85,-0.206,1.164,-0.015
27.86,-0.049,0.838,0.209
27.87,-0.181,1.084,0.039
27.88,-0.335,0.792,-0.154
27.89,-0.206,1.179,-0.071
27.9,-0.117,1.0,0.011
27.91,-0.081,0.804,0.162
27.92,-0.235,1.003,0.009
27.93,-0.31,0.97,-0.123
27.94,-0.209,1.217,-0.119
27.95,-0.118,0.749,0.092
27.96,-0.092,1.009,0.126
27.97,-0.356,0.921,-0.019
27.98,-0.26,1.053,-0.159
27.99,-0.224,0.947,-0.069
28.0,-0.102,0.837,0.132
28.01,-0.195,1.052,0.147
28.02,-0.314,0.883,-0.139
28.03,-0.247,1.129,-0.119
28.04,-0.192,0.919,0.02
28.05,-0.063,1.075,0.159
28.06,-0.196,0.847,0.04
28.07,-0.327,0.969,-0.132
28.08,-0.242,1.117,-0.041
28.09,-0.083,0.938,0.002
28.1,-0.154,0.951,0.173
28.11,-0.282,0.864,-0.029
28.12,-0.295,1.234,-0.164
28.13,-0.241,0.832,-0.048
28.14,-0.056,1.064,0.099
28.15,-0.133,0.77,0.144
28.16,-0.325,1.07,-0.111
28.17,-0.326,0.933,-0.108
28.18,-0.183,0.95,-0.017
28.19,-0.1,1.083,0.155
28.2,-0.151,0.795,0.076
28.21,-0.375,1.114,-0.154
28.22,-0.221,0.809,-0.116
28.23,-0.218,1.252,0.079
28.24,-0.006,0.829,0.132
28.25,-0.241,0.899,0.003
28.26,-0.353,1.009,-0.101
28.27,-0.22,0.954,-0.052
28.28,-0.125,1.139,0.056
28.29,-0.046,0.637,0.167
28.3,-0.334,1.133,-0.046
28.31,-0.284,0.875,-0.089
28.32,-0.182,1.078,-0.089
28.33,-0.112,0.906,0.104
28.34,-0.112,0.879,0.161
28.35,-0.323,1.138,-0.101
28.36,-0.304,0.782,-0.115
28.37,-0.241,1.174,-0.026
28.38,-0.21,0.809,0.295
28.39,-0.161,1.062,0.058
28.4,-0.315,0.861,-0.146
28.41,-0.269,0.973,-0.097
28.42,-0.12,1.145,0.05
28.43,0.0,0.798,0.12
28.44,-0.309,1.047,0.03
28.45,-0.295,0.806,-0.107
28.46,-0.237,1.256,-0.07
28.47,-0.121,0.83,0.067
28.48,-0.111,0.925,0.127
28.49,-0.325,0.972,-0.013
28.5,-0.263,0.99,-0.145
28.51,-0.229,1.082,-0.063
28.52,-0.077,0.766,0.117
28.53,-0.191,1.059,0.148
28.54,-0.248,0.874,-0.082
28.55,-0.333,1.143,-0.143
28.56,-0.246,0.851,-0.009
28.57,-0.087,0.99,0.177
28.58,-0.156,0.983,0.062
28.59,-0.356,0.862,-0.134
28.6,-0.233,1.129,-0.116
28.61,-0.137,0.931,0.061
28.62,-0.023,1.133,0.163
28.63,-0.213,0.765,-0.033
28.64,-0.368,1.042,-0.121
28.65,-0.19,1.078,-0.049
28.66,-0.077,1.03,0.042
28.67,-0.13,0.889,0.137
28.68,-0.336,0.833,-0.016
28.69,-0.287,1.227,-0.129
28.7,-0.19,0.844,-0.036
28.71,-0.169,1.042,0.123
28.72,-0.159,0.785,0.155
28.73,-0.335,1.08,-0.104
28.74,-0.229,0.953,-0.138
28.75,-0.228,0.941,-0.016
28.76,-0.123,1.087,0.19
28.77,-0.15,0.774,0.064
28.78,-0.403,1.136,-0.142
28.79,-0.187,0.869,-0.07
28.8,-0.094,1.226,-0.007
28.81,-0.087,0.749,0.163
28.82,-0.271,0.899,0.026
28.83,-0.306,1.106,-0.122
28.84,-0.175,0.922,-0.119
28.85,-0.162,1.058,0.116
28.86,-0.026,0.645,0.156
28.87,-0.353,1.187,-0.039
28.88,-0.203,0.874,-0.205
28.89,-0.263,1.048,0.001
28.9,-0.115,0.956,0.116
28.91,-0.174,0.853,0.12
28.92,-0.335,1.115,-0.109
28.93,-0.295,0.855,-0.117
28.94,-0.184,1.216,0.083
28.95,-0.012,0.774,0.097
28.96,-0.276,1.066,0.061
28.97,-0.275,0.801,-0.153
28.98,-0.253,1.189,-0.06
28.99,-0.078,0.902,0.021
29.0,-0.069,0.842,0.153
29.01,-0.372,1.008,-0.014
29.02,-0.317,0.887,-0.111
29.03,-0.108,1.214,-0.085
29.04,-0.159,0.725,0.102
29.05,-0.17,1.026,0.146
29.06,-0.291,0.943,-0.071
29.07,-0.251,1.057,-0.151
29.08,-0.181,0.934,-0.008
29.09,-0.1,0.926,0.18
29.1,-0.159,1.045,0.043
29.11,-0.349,0.823,-0.126
29.12,-0.267,1.123,-0.102
29.13,-0.09,0.896,0.028
29.14,-0.112,1.058,0.147
29.15,-0.178,0.854,0.023
29.16,-0.382,0.999,-0.126
29.17,-0.168,1.082,-0.097
29.18,-0.076,0.963,0.08
29.19,-0.087,0.971,0.079
29.2,-0.345,0.774,0.003
29.21,-0.28,1.205,-0.154
29.22,-0.065,0.97,-0.079
29.23,-0.196,0.98,0.104
29.24,-0.125,0.844,0.155
29.25,-0.268,0.966,-0.099
29.26,-0.232,1.088,-0.146
29.27,-0.223,0.863,-0.013
29.28,-0.342,1.135,0.144
29.29,-0.152,0.763,0.043
29.3,-0.386,1.104,-0.118
29.31,-0.166,0.927,-0.102
29.32,-0.134,1.131,0.045
29.33,-0.153,0.839,0.194
29.34,-0.286,0.819,0.032
29.35,-0.305,1.209,-0.167
29.36,-0.14,0.881,-0.111
29.37,-0.267,1.118,0.18
29.38,-0.063,0.679,0.135
29.39,-0.38,1.097,-0.059
29.4,-0.266,0.919,-0.159
29.41,-0.207,0.941,-0.036
29.42,-0.111,1.068,0.124
29.43,-0.139,0.771,0.099
29.44,-0.327,1.148,-0.14
29.45,-0.201,0.769,-0.122
29.46,-0.216,1.27,0.019
29.47,-0.057,0.838,0.176
29.48,-0.19,0.935,0.034
29.49,-0.33,0.996,-0.132
29.5,-0.172,0.956,-0.091
29.51,-0.172,1.229,0.068
29.52,-0.062,0.63,0.136
29.53,-0.309,1.09,-0.005
29.54,-0.265,0.879,-0.122
29.55,-0.176,1.124,-0.07
29.56,-0.154,0.825,0.078
29.57,-0.187,0.855,0.184
29.58,-0.341,1.135,-0.081
29.59,-0.273,0.841,-0.141
29.6,-0.205,1.147,-0.046
29.61,-0.148,0.824,0.21
29.62,-0.139,1.064,0.044
29.63,-0.337,0.834,-0.157
29.64,-0.237,1.011,-0.052
29.65,-0.363,1.138,0.157
29.66,-0.104,0.746,0.153
29.67,-0.258,1.028,0.024
29.68,-0.31,0.862,-0.112
29.69,-0.103,1.243,-0.111
29.7,-0.21,0.821,0.083
29.71,-0.075,0.949,0.14
29.72,-0.324,0.954,-0.03
29.73,-0.289,1.006,-0.17
29.74,-0.161,1.051,-0.056
29.75,-0.124,0.809,0.138
29.76,-0.161,0.971,0.077
29.77,-0.341,0.861,-0.106
29.78,-0.193,1.147,-0.107
29.79,-0.187,0.918,0.043
29.8,-0.085,1.038,0.127
29.81,-0.186,0.8,0.027
29.82,-0.363,1.029,-0.143
29.83,-0.177,1.11,-0.053
29.84,-0.165,0.934,0.053
29.85,-0.089,0.92,0.151
29.86,-0.316,0.845,0.006
29.87,-0.3,1.251,-0.176
29.88,-0.2,0.84,-0.078
29.89,-0.117,1.039,0.1
29.9,-0.165,0.835,0.128
29.91,-0.351,1.019,-0.066
29.92,-0.248,1.016,-0.129
29.93,-0.18,0.91,-0.011
29.94,-0.143,1.113,0.175
29.95,-0.15,0.771,0.062
29.96,-0.333,1.12,-0.158
29.97,-0.265,0.883,-0.088
29.98,-0.154,1.16,0.047
29.99,-0.055,0.877,0.134
30.0,-0.259,0.835,0.0
30.01,-0.328,1.099,-0.116
30.02,-0.117,0.93,-0.057
30.03,-0.107,1.19,0.041
30.04,-0.086,0.644,0.122
30.05,-0.389,1.092,-0.008
30.06,-0.269,0.953,-0.154
30.07,-0.176,1.034,-0.051
30.08,-0.137,0.957,0.121
30.09,-0.174,0.774,0.128
30.1,-0.346,1.158,-0.117
30.11,-0.238,0.784,-0.107
30.12,-0.278,1.229,0.053
30.13,0.003,0.831,0.142
30.14,-0.209,0.973,0.027
30.15,-0.294,0.958,-0.167
30.16,-0.26,1.02,-0.046
30.17,-0.127,1.15,0.019
30.18,-0.033,0.706,0.147
30.19,-0.351,1.104,-0.017
30.2,-0.249,0.822,-0.115
30.21,-0.234,1.142,-0.072
30.22,-0.116,0.834,0.071
30.23,-0.142,0.914,0.185
30.24,-0.329,1.05,-0.118
30.25,-0.248,0.84,-0.148
30.26,-0.229,1.159,-0.013
30.27,-0.096,0.777,0.182
30.28,-0.162,1.11,0.062
30.29,-0.302,0.828,-0.122
30.3,-0.249,1.083,-0.097
30.31,-0.135,1.052,0.033
30.32,-0.04,0.85,0.166
30.33,-0.244,1.009,0.025
30.34,-0.346,0.831,-0.147
30.35,-0.281,1.241,-0.029
30.36,-0.083,0.839,0.034
30.37,-0.098,0.953,0.128
30.38,-0.251,0.901,-0.021
30.39,-0.25,1.068,-0.169
30.4,-0.243,0.958,-0.065
30.41,-0.097,0.806,0.141
30.42,-0.208,1.095,0.148
30.43,-0.314,0.826,-0.108
30.44,-0.279,1.103,-0.124
30.45,-0.223,0.923,0.002
30.46,-0.07,1.09,0.176
30.47,-0.185,0.849,0.075
30.48,-0.342,0.92,-0.133
30.49,-0.221,1.149,-0.07
30.5,-0.242,0.95,0.05
30.51,-0.075,1.013,0.111
30.52,-0.238,0.752,-0.035
30.53,-0.352,1.186,-0.108
30.54,-0.196,0.983,-0.051
30.55,-0.149,0.965,0.08
30.56,-0.141,0.822,0.145
30.57,-0.366,0.954,-0.04
30.58,-0.247,0.966,-0.146
30.59,-0.199,0.907,-0.029
30.6,-0.14,1.054,0.208
30.61,-0.125,0.783,0.045
30.62,-0.386,1.138,-0.122
30.63,-0.252,0.815,-0.089
30.64,-0.134,1.246,0.061
30.65,-0.075,0.787,0.134
30.66,-0.205,0.9,-0.004
30.67,-0.417,1.047,-0.074
30.68,-0.035,0.931,-0.13
30.69,-0.194,1.2,0.06
30.7,-0.098,0.647,0.152
30.71,-0.282,1.125,-0.05
30.72,-0.25,0.888,-0.147
30.73,-0.24,1.059,-0.017
30.74,-0.084,0.942,0.123
30.75,-0.152,0.859,0.149
30.76,-0.353,1.124,-0.127
30.77,-0.235,0.737,-0.112
30.78,-0.227,1.255,0.04
30.79,-0.06,0.808,0.172
30.8,-0.204,0.99,0.038
30.81,-0.305,0.863,-0.151
30.82,-0.247,1.034,-0.067
30.83,-0.084,1.123,0.028
30.84,-0.08,0.721,0.151
30.85,-0.241,1.094,-0.005
30.86,-0.291,0.907,-0.094
30.87,-0.24,1.185,-0.109
30.88,-0.181,0.766,0.096
30.89,-0.029,0.945,0.116
30.9,-0.389,1.026,-0.048
30.91,-0.294,0.888,-0.152
30.92,-0.177,1.055,-0.06
30.93,-0.129,0.785,0.157
30.94,-0.157,1.08,0.104
30.95,-0.282,0.833,-0.135
30.96,-0.269,1.122,-0.1
30.97,-0.207,1.006,0.012
30.98,-0.054,0.952,0.171
30.99,-0.222,0.971,0.016
31.0,-0.348,0.825,-0.114
31.01,-0.163,1.197,-0.057
31.02,-0.033,0.904,0.009
31.03,-0.142,1.005,0.146
31.04,-0.232,0.794,-0.001
31.05,-0.341,1.139,-0.136
31.06,-0.111,0.994,-0.113
31.07,-0.113,0.86,0.087
31.08,-0.209,0.989,0.138
31.09,-0.269,0.868,-0.094
31.1,-0.347,1.202,-0.137
31.11,-0.147,0.776,-0.023
31.12,-0.106,1.109,0.172
31.13,-0.151,0.82,0.072
31.14,-0.366,0.989,-0.124
31.15,-0.237,0.986,-0.138
31.16,-0.125,0.996,0.047
31.17,-0.123,1.042,0.246
31.18,-0.234,0.758,0.038
31.19,-0.36,1.167,-0.143
31.2,-0.126,0.929,-0.09
31.21,-0.187,1.091,0.091
31.22,-0.131,0.745,0.125
31.23,-0.288,0.958,-0.018
31.24,-0.264,1.13,-0.196
31.25,-0.191,0.829,-0.091
31.26,-0.146,1.067,0.121
31.27,-0.12,0.766,0.141
31.28,-0.366,1.126,-0.103
31.29,-0.192,0.838,-0.159
31.3,-0.209,1.141,0.01
31.31,-0.162,0.931,0.175
31.32,-0.142,0.838,0.04
31.33,-0.374,1.1,-0.153
31.34,-0.203,0.823,-0.073
31.35,-0.134,1.266,0.03
31.36,-0.078,0.703,0.165
31.37,-0.281,1.01,0.003
31.38,-0.276,0.96,-0.094
31.39,-0.144,1.067,-0.118
31.4,-0.23,1.02,0.082
31.41,-0.149,0.856,0.167
31.42,-0.314,1.089,-0.118
31.43,-0.304,0.828,-0.107
31.44,-0.206,1.158,-0.017
31.45,-0.126,0.792,0.207
31.46,-0.169,1.054,0.046
31.47,-0.378,0.822,-0.082
31.48,-0.215,1.028,-0.106
31.49,-0.118,1.078,0.03
31.5,-0.106,0.781,0.156
31.51,-0.219,1.034,0.023
31.52,-0.312,0.88,-0.103
31.53,-0.193,1.21,-0.073
31.54,-0.153,0.822,0.068
31.55,-0.056,0.976,0.113
31.56,-0.334,0.941,-0.007
31.57,-0.26,1.011,-0.148
31.58,-0.229,1.024,-0.041
31.59,-0.088,0.824,0.121
31.6,-0.174,1.062,0.094
31.61,-0.329,0.792,-0.083
31.62,-0.25,1.091,-0.142
31.63,-0.151,0.936,0.03
31.64,-0.019,1.045,0.143
31.65,-0.257,0.87,0.084
31.66,-0.361,0.878,-0.129
31.67,-0.21,1.165,-0.086
31.68,-0.059,0.948,0.056
31.69,-0.156,1.0,0.15
31.7,-0.266,0.773,-0.005
31.71,-0.288,1.161,-0.128
31.72,-0.084,0.995,-0.085
31.73,-0.24,0.98,0.135
31.74,-0.108,0.84,0.115
31.75,-0.312,0.935,-0.023
31.76,-0.274,1.185,-0.168
31.77,-0.235,0.792,-0.047
31.78,-0.147,1.079,0.175
31.79,-0.064,0.779,0.065
31.8,-0.391,1.052,-0.132
31.81,-0.211,0.933,-0.119
31.82,-0.163,1.08,0.058
31.83,-0.034,0.933,0.131
31.84,-0.245,0.736,0.033
31.85,-0.372,1.19,-0.094
31.86,-0.095,0.941,-0.109
31.87,-0.206,1.129,0.066
31.88,-0.125,0.687,0.16
31.89,-0.294,1.049,-0.009
31.9,-0.245,1.051,-0.157
31.91,-0.229,0.925,-0.034
31.92,-0.157,1.063,0.085
31.93,-0.085,0.756,0.135
31.94,-0.33,1.187,-0.124
31.95,-0.231,0.784,-0.132
31.96,-0.248,1.187,0.013
31.97,-0.092,0.893,0.165
31.98,-0.165,0.898,0.063
31.99,-0.343,1.022,-0.138
32.0,-0.246,0.847,-0.069
32.01,-0.156,1.282,0.04
32.02,-0.043,0.747,0.132
32.03,-0.325,1.031,0.012
32.04,-0.302,0.885,-0.133
32.05,-0.1,1.14,-0.078
32.06,-0.206,0.92,0.052
32.07,-0.173,0.728,0.201
32.08,-0.314,1.147,-0.028
32.09,-0.212,0.869,-0.168
32.1,-0.18,1.145,-0.067
32.11,-0.159,0.764,0.158
32.12,-0.16,0.992,0.091
32.13,-0.292,0.989,-0.093
32.14,-0.214,0.968,-0.15
32.15,-0.22,1.056,0.007
32.16,-0.016,0.84,0.203
32.17,-0.242,1.103,0.034
32.18,-0.384,0.772,-0.133
32.19,-0.159,1.18,-0.085
32.2,-0.046,0.977,0.02
32.21,-0.155,0.869,0.142
32.22,-0.275,0.935,-0.051
32.23,-0.198,1.146,-0.187
32.24,-0.21,1.0,-0.056
32.25,-0.057,0.797,0.026
32.26,-0.052,1.016,0.147
32.27,-0.378,0.903,-0.139
32.28,-0.241,1.119,-0.122
32.29,-0.196,0.931,0.03
32.3,-0.04,1.053,0.136
32.31,-0.19,0.817,0.06
32.32,-0.369,1.0,-0.139
32.33,-0.148,1.139,-0.063
32.34,-0.146,0.872,0.043
32.35,-0.088,0.921,0.157
32.36,-0.278,0.828,-0.031
32.37,-0.317,1.253,-0.147
32.38,-0.19,0.888,-0.086
32.39,-0.138,1.015,0.095
32.4,-0.155,0.869,0.199
32.41,-0.293,0.958,-0.134
32.42,-0.277,1.073,-0.098
32.43,-0.208,0.907,-0.039
32.44,-0.075,1.121,0.174
32.45,-0.147,0.783,0.045
32.46,-0.383,1.087,-0.139
32.47,-0.225,0.918,-0.108
32.48,-0.137,1.171,0.06
32.49,-0.111,0.864,0.171
32.5,-0.25,0.804,-0.011
32.51,-0.277,1.212,-0.108
32.52,-0.163,0.95,-0.088
32.53,-0.147,1.061,0.067
32.54,-0.068,0.694,0.145
32.55,-0.322,1.119,-0.062
32.56,-0.281,0.983,-0.172
32.57,-0.202,0.932,-0.053
32.58,-0.184,1.001,0.153
32.59,-0.083,0.769,0.111
32.6,-0.368,1.167,-0.141
32.61,-0.308,0.747,-0.095
32.62,-0.203,1.209,0.046
32.63,0.059,0.905,0.128
32.64,-0.232,0.916,0.006
32.65,-0.353,0.965,-0.151
32.66,-0.187,1.01,-0.035
32.67,-0.117,1.175,0.025
32.68,-0.056,0.611,0.141
32.69,-0.363,1.124,-0.011
32.7,-0.242,0.902,-0.096
32.71,-0.163,1.123,-0.086
32.72,-0.156,0.874,0.142
32.73,-0.096,0.834,0.144
32.74,-0.331,1.128,-0.108
32.75,-0.323,0.828,-0.135
32.76,-0.231,1.111,-0.004
32.77,-0.03,0.83,0.202
32.78,-0.223,1.089,0.04
32.79,-0.363,0.82,-0.118
32.8,-0.164,1.011,-0.08
32.81,-0.1,1.146,0.038
32.82,0.033,0.781,0.048
32.83,-0.301,1.04,-0.014
32.84,-0.26,0.839,-0.138
32.85,-0.14,1.265,-0.06
32.86,-0.138,0.767,0.099
32.87,-0.191,0.951,0.153
32.88,-0.274,0.97,-0.036
32.89,-0.225,1.04,-0.183
32.9,-0.203,1.005,-0.06
32.91,-0.154,0.824,0.166
32.92,-0.108,1.122,0.092
32.93,-0.336,0.819,-0.156
32.94,-0.256,1.083,-0.076
32.95,-0.169,0.963,0.022
32.96,-0.007,0.998,0.134
32.97,-0.232,0.877,0.046
32.98,-0.371,0.921,-0.118
32.99,-0.121,1.255,-0.074
33.0,-0.144,0.844,-0.004
33.01,-0.106,0.906,0.192
33.02,-0.221,0.842,-0.046
33.03,-0.317,1.236,-0.146
33.04,-0.187,0.847,-0.069
33.05,-0.108,0.878,0.126
33.06,-0.155,0.874,0.149
33.07,-0.336,0.986,-0.164
33.08,-0.26,0.97,-0.118
33.09,-0.134,0.97,0.046
33.1,-0.15,1.131,0.213
33.11,-0.219,0.692,0.033
33.12,-0.374,1.135,-0.147
33.13,-0.09,0.971,-0.04
33.14,-0.145,1.113,0.047
33.15,-0.105,0.796,0.174
33.16,-0.332,0.913,-0.044
33.17,-0.247,1.145,-0.13
33.18,-0.172,0.885,-0.064
33.19,-0.262,1.089,0.125
33.2,-0.132,0.701,0.166
33.21,-0.324,1.166,-0.08
33.22,-0.184,0.891,-0.198
33.23,-0.232,1.048,0.021
33.24,-0.01,0.978,0.137
33.25,-0.176,0.8,0.034
33.26,-0.366,1.135,-0.131
33.27,-0.18,0.879,-0.078
33.28,-0.143,1.218,0.04
33.29,-0.086,0.709,0.185
33.3,-0.308,1.006,0.009
33.31,-0.317,0.941,-0.158
33.32,-0.096,1.008,-0.072
33.33,-0.203,1.046,0.046
33.34,-0.094,0.691,0.151
33.35,-0.339,1.2,-0.105
33.36,-0.233,0.832,-0.11
33.37,-0.31,1.143,0.03
33.38,-0.073,0.839,0.164
33.39,-0.198,0.933,0.075
33.4,-0.366,0.992,-0.152
33.41,-0.257,0.853,-0.057
33.42,-0.12,1.23,0.039
33.43,-0.024,0.764,0.148
33.44,-0.306,1.072,-0.012
33.45,-0.359,0.816,-0.12
33.46,-0.093,1.173,-0.079
33.47,-0.116,0.968,0.058
33.48,-0.21,0.806,0.147
33.49,-0.333,1.082,-0.034
33.5,-0.198,0.914,-0.137
33.51,-0.166,1.177,-0.084
33.52,-0.144,0.705,0.179
33.53,-0.141,1.038,0.091
33.54,-0.273,0.937,-0.126
33.55,-0.285,0.978,-0.143
33.56,-0.156,0.99,0.009
33.57,-0.379,0.909,0.351
33.58,-0.304,1.039,-0.01
33.59,-0.371,0.759,-0.16
33.6,-0.107,1.243,-0.026
33.61,-0.073,0.896,0.04
33.62,-0.095,0.886,0.113
33.63,-0.306,0.921,-0.026
33.64,-0.225,1.034,-0.182
33.65,-0.197,1.054,-0.035
33.66,-0.175,0.769,0.154
33.67,-0.168,1.064,0.134
33.68,-0.299,0.852,-0.176
33.69,-0.224,1.167,-0.093
33.7,-0.242,0.945,0.025
33.71,-0.021,0.911,0.148
33.72,-0.215,0.894,0.008
33.73,-0.336,0.954,-0.135
33.74,-0.184,1.204,-0.027
33.75,-0.143,0.847,0.064
33.76,-0.147,0.948,0.152
33.77,-0.301,0.85,-0.051
33.78,-0.281,1.182,-0.145
33.79,-0.212,0.876,-0.049
33.8,-0.129,0.915,0.138
33.81,-0.145,0.853,0.09
33.82,-0.334,0.975,-0.185
33.83,-0.233,1.021,-0.101
33.84,-0.137,1.018,0.067
33.85,-0.07,1.042,0.12
33.86,-0.262,0.691,0.009
33.87,-0.371,1.16,-0.131
33.88,-0.073,0.944,-0.063
33.89,-0.316,1.075,0.14
33.9,-0.131,0.704,0.148
33.91,-0.292,1.081,-0.081
33.92,-0.243,1.048,-0.132
33.93,-0.118,0.888,-0.037
33.94,-0.113,1.028,0.19
33.95,-0.151,0.788,0.099
33.96,-0.385,1.165,-0.176
33.97,-0.276,0.794,-0.086
33.98,-0.119,1.198,0.068
33.99,-0.018,0.826,0.136
34.0,-0.343,0.901,-0.002
34.01,-0.336,0.996,-0.118
34.02,-0.051,1.001,-0.088
34.03,-0.188,1.114,0.153
34.04,-0.104,0.632,0.155
34.05,-0.37,1.206,-0.078
34.06,-0.257,0.864,-0.171
34.07,-0.223,1.074,-0.028
34.08,-0.139,0.905,0.223
34.09,-0.154,0.887,0.042
34.1,-0.346,1.057,-0.139
34.11,-0.264,0.863,-0.048
34.12,-0.076,1.26,0.027
34.13,-0.072,0.886,0.035
34.14,-0.081,1.012,0.171
34.15,-0.294,0.813,-0.047
34.16,-0.376,1.185,-0.125
34.17,-0.177,0.946,-0.072
34.18,-0.143,0.939,0.078
34.19,-0.177,0.898,0.17
34.2,-0.287,0.907,-0.107
34.21,-0.261,1.111,-0.1
34.22,-0.16,0.885,-0.01
34.23,-0.181,1.108,0.186
34.24,-0.134,0.775,0.042
34.25,-0.326,1.087,-0.127
34.26,-0.25,1.023,-0.109
34.27,-0.135,1.043,0.047
34.28,-0.081,0.962,0.17
34.29,-0.246,0.733,-0.02
34.3,-0.413,1.178,-0.099
34.31,-0.113,0.918,-0.067
34.32,-0.147,1.104,0.048
34.33,-0.134,0.691,0.135
34.34,-0.318,1.033,-0.023
34.35,-0.344,1.065,-0.147
34.36,-0.18,0.868,-0.057
34.37,-0.158,1.042,0.184
34.38,-0.099,0.754,0.105
34.39,-0.384,1.196,-0.129
34.4,-0.211,0.801,-0.134
34.41,-0.188,1.168,0.047
34.42,-0.077,0.891,0.152
34.43,-0.171,0.904,0.003
34.44,-0.376,1.022,-0.183
34.45,-0.161,0.857,-0.058
34.46,-0.114,1.252,0.124
34.47,-0.096,0.663,0.104
34.48,-0.372,1.101,-0.025
34.49,-0.219,0.926,-0.101
34.5,-0.179,1.127,-0.088
34.51,-0.204,0.874,0.127
34.52,-0.157,0.765,0.161
34.53,-0.315,1.169,-0.118
34.54,-0.226,0.819,-0.135
34.55,-0.254,1.176,0.021
34.56,-0.027,0.787,0.22
34.57,-0.184,1.007,-0.003
34.58,-0.316,0.902,-0.137
34.59,-0.27,0.994,-0.037
34.6,-0.03,1.143,0.016
34.61,-0.074,0.731,0.117
34.62,-0.3,1.053,-0.027
34.63,-0.264,0.88,-0.154
34.64,-0.219,1.125,-0.008
34.65,-0.104,0.795,0.132
34.66,-0.168,1.068,0.119
34.67,-0.305,0.894,-0.109
34.68,-0.25,0.975,-0.142
34.69,-0.236,1.051,0.06
34.7,0.001,0.854,0.13
34.71,-0.23,1.058,0.041
34.72,-0.315,0.793,-0.132
34.73,-0.229,1.213,-0.06
34.74,-0.141,0.882,0.033
34.75,-0.046,0.918,0.137
34.76,-0.282,0.906,-0.031
34.77,-0.329,1.025,-0.139
34.78,-0.137,1.043,-0.056
34.79,-0.102,0.834,0.084
34.8,-0.178,1.029,0.161
34.81,-0.333,0.856,-0.042
34.82,-0.219,1.16,-0.188
34.83,-0.222,0.901,-0.037
34.84,-0.155,1.016,0.16
34.85,-0.175,0.949,0.114
34.86,-0.366,0.869,-0.161
34.87,-0.219,1.045,-0.073
34.88,-0.082,0.962,0.055
34.89,-0.064,1.128,0.1
34.9,-0.181,0.736,0.008
34.91,-0.387,1.112,-0.103
34.92,-0.123,1.017,-0.071
34.93,-0.158,1.007,0.063
34.94,-0.092,0.862,0.143
34.95,-0.352,0.864,-0.014
34.96,-0.267,1.161,-0.18
34.97,-0.161,0.833,-0.013
34.98,-0.21,1.11,0.138
34.99,-0.16,0.741,0.151
35.0,-0.364,1.075,-0.112
35.01,-0.221,0.916,-0.142
35.02,-0.188,1.019,0.035
35.03,-0.03,1.045,0.144
35.04,-0.191,0.728,-0.005
35.05,-0.413,1.12,-0.128
35.06,-0.155,0.934,-0.044
35.07,-0.109,1.195,0.047
35.08,-0.08,0.696,0.125
35.09,-0.315,0.979,-0.003
35.1,-0.302,1.082,-0.132
35.11,-0.184,0.91,-0.081
35.12,-0.147,1.082,0.121
35.13,-0.13,0.759,0.14
35.14,-0.404,1.153,-0.102
35.15,-0.204,0.752,-0.15
35.16,-0.24,1.158,-0.027
35.17,-0.089,0.918,0.167
35.18,-0.101,0.881,0.065
35.19,-0.338,1.042,-0.129
35.2,-0.228,0.814,-0.104
35.21,-0.165,1.285,0.071
35.22,-0.01,0.688,0.139
35.23,-0.255,1.047,0.045
35.24,-0.3,0.861,-0.137
35.25,-0.208,1.093,-0.062
35.26,-0.114,0.98,0.028
35.27,-0.094,0.715,0.168
35.28,-0.289,1.146,-0.038
35.29,-0.197,0.892,-0.169
35.3,-0.265,1.106,-0.056
35.31,-0.122,0.732,0.091
35.32,-0.153,1.033,0.155
35.33,-0.295,0.97,-0.097
35.34,-0.276,0.914,-0.133
35.35,-0.22,1.099,0.023
35.36,-0.049,0.892,0.191
35.37,-0.265,1.022,0.021
35.38,-0.356,0.749,-0.133
35.39,-0.166,1.257,-0.059
35.4,-0.111,0.975,-0.019
35.41,-0.056,0.836,0.157
35.42,-0.256,0.957,-0.005
35.43,-0.312,0.981,-0.097
35.44,-0.198,0.973,-0.076
35.45,-0.12,0.821,0.09
35.46,-0.197,1.018,0.198
35.47,-0.262,0.866,-0.105
35.48,-0.318,1.167,-0.158
35.49,-0.218,0.842,-0.038
35.5,-0.127,1.05,0.197
35.51,-0.091,0.88,0.077
35.52,-0.342,0.978,-0.155
35.53,-0.233,1.024,-0.122
35.54,-0.169,0.964,0.067
35.55,-0.074,1.029,0.141
35.56,-0.215,0.769,-0.003
35.57,-0.323,1.163,-0.137
35.58,-0.206,0.963,-0.075
35.59,-0.18,1.044,0.079
35.6,-0.077,0.774,0.155
35.61,-0.318,0.945,-0.025
35.62,-0.299,1.154,-0.147
35.63,-0.246,0.818,-0.05
35.64,-0.086,1.082,0.116
35.65,-0.117,0.799,0.131
35.66,-0.382,1.114,-0.116
35.67,-0.273,0.822,-0.134
35.68,-0.161,1.04,-0.023
35.69,-0.108,1.042,0.17
35.7,-0.149,0.795,0.064
35.71,-0.351,1.13,-0.121
35.72,-0.277,0.841,-0.084
35.73,-0.194,1.24,0.056
35.74,-0.01,0.717,0.144
35.75,-0.251,0.993,0.016
35.76,-0.31,0.95,-0.146
35.77,-0.237,1.004,-0.086
35.78,-0.069,1.065,0.064
35.79,-0.053,0.695,0.137
35.8,-0.327,1.149,-0.019
35.81,-0.283,0.872,-0.124
35.82,-0.25,1.14,-0.055
35.83,-0.097,0.814,0.101
35.84,-0.157,0.903,0.13
35.85,-0.335,1.09,-0.069
35.86,-0.267,0.823,-0.134
35.87,-0.198,1.151,-0.006
35.88,-0.071,0.821,0.19
35.89,-0.189,1.094,0.049
35.9,-0.283,0.775,-0.156
35.91,-0.216,1.09,-0.045
35.92,-0.063,1.11,0.042
35.93,-0.076,0.833,0.158
35.94,-0.232,0.987,-0.003
35.95,-0.318,0.864,-0.056
35.96,-0.049,1.21,-0.136
35.97,-0.107,0.8,0.024
35.98,-0.076,1.022,0.134
35.99,-0.326,0.949,-0.003
36.0,-0.323,1.042,-0.165
36.01,-0.222,0.939,-0.057
36.02,-0.111,0.879,0.134
36.03,-0.166,1.125,0.167
36.04,-0.36,0.821,-0.094
36.05,-0.273,1.086,-0.136
36.06,-0.182,0.933,0.007
36.07,-0.103,1.096,0.146
36.08,-0.168,0.859,0.054
36.09,-0.333,0.951,-0.127
36.1,-0.234,1.124,-0.075
36.11,-0.136,0.966,0.046
36.12,-0.065,0.981,0.154
36.13,-0.203,0.777,0.031
36.14,-0.321,1.156,-0.179
36.15,-0.206,0.979,-0.071
36.16,-0.086,1.038,0.04
36.17,-0.122,0.792,0.154
36.18,-0.331,0.932,0.001
36.19,-0.313,1.212,-0.135
36.2,-0.178,0.793,-0.073
36.21,-0.135,1.077,0.102
36.22,-0.134,0.797,0.123
36.23,-0.32,1.084,-0.128
36.24,-0.27,0.866,-0.116
36.25,-0.163,1.03,-0.071
36.26,-0.101,1.044,0.184
36.27,-0.221,0.865,0.037
36.28,-0.312,0.995,-0.111
36.29,-0.224,0.934,-0.035
36.3,-0.104,1.224,0.025
36.31,-0.04,0.671,0.158
36.32,-0.302,1.057,-0.033
36.33,-0.311,0.897,-0.086
36.34,-0.146,1.098,-0.093
36.35,-0.126,0.948,0.105
36.36,-0.155,0.764,0.135
36.37,-0.323,1.137,0.008
36.38,-0.278,0.864,-0.228
36.39,-0.244,1.063,-0.032
36.4,-0.227,0.79,0.247
36.41,-0.127,1.088,0.14
36.42,-0.327,0.923,-0.127
36.43,-0.319,0.908,-0.079
36.44,-0.184,1.032,-0.038
36.45,-0.082,0.863,0.186
36.46,-0.24,1.073,0.044
36.47,-0.385,0.757,-0.11
36.48,-0.258,1.13,-0.064
36.49,-0.01,1.022,0.006
36.5,-0.049,0.971,0.099
36.51,-0.238,0.886,0.035
36.52,-0.344,0.93,-0.119
36.53,-0.059,1.222,-0.104
36.54,-0.161,0.834,0.076
36.55,-0.104,0.984,0.149
36.56,-0.289,0.877,-0.006
36.57,-0.272,1.177,-0.175
36.58,-0.253,0.87,-0.079
36.59,-0.076,0.917,0.103
36.6,-0.146,0.98,0.145
36.61,-0.362,0.887,-0.117
36.62,-0.377,1.085,-0.097
36.63,-0.081,0.822,-0.029
36.64,-0.086,1.169,0.094
36.65,-0.119,0.782,0.034
36.66,-0.3,1.015,-0.141
36.67,-0.226,0.98,-0.101
36.68,-0.141,1.071,0.071
36.69,-0.107,0.992,0.125
36.7,-0.181,0.744,0.023
36.71,-0.385,1.166,-0.117
36.72,-0.171,0.936,-0.05
36.73,-0.155,1.155,0.046
36.74,-0.078,0.686,0.156
36.75,-0.305,1.014,-0.005
36.76,-0.292,1.106,-0.132
36.77,-0.196,0.91,-0.087
36.78,-0.154,1.008,0.125
36.79,-0.103,0.725,0.139
36.8,-0.363,1.217,-0.087
36.81,-0.328,0.762,-0.138
36.82,-0.237,1.053,-0.004
36.83,-0.04,0.937,0.152
36.84,-0.17,0.905,0.074
36.85,-0.373,1.046,-0.09
36.86,-0.25,0.796,-0.127
36.87,-0.124,1.265,0.069
36.88,0.006,0.842,0.113
36.89,-0.273,1.019,0.028
36.9,-0.284,0.842,-0.142
36.91,-0.175,1.151,-0.036
36.92,-0.102,1.047,0.02
36.93,-0.053,0.736,0.145
36.94,-0.294,1.092,-0.017
36.95,-0.309,0.856,-0.121
36.96,-0.231,1.166,-0.077
36.97,-0.071,0.773,0.089
36.98,-0.156,0.993,0.129
36.99,-0.343,0.966,-0.05
37.0,-0.284,0.941,-0.163
37.01,-0.187,1.031,-0.02
37.02,-0.08,0.8,0.136
37.03,-0.215,1.103,0.102
37.04,-0.289,0.83,-0.113
37.05,-0.275,1.109,-0.125
37.06,-0.135,0.944,0.043
37.07,-0.082,1.029,0.142
37.08,-0.271,0.907,0.053
37.09,-0.318,1.017,-0.11
37.1,-0.111,1.144,-0.088
37.11,-0.163,0.93,0.039
37.12,-0.138,0.93,0.182
37.13,-0.313,0.83,-0.024
37.14,-0.234,1.19,-0.163
37.15,-0.244,0.858,-0.053
37.16,-0.092,0.987,0.118
37.17,-0.171,0.86,0.143
37.18,-0.333,0.987,-0.076
37.19,-0.299,1.042,-0.127
37.2,-0.125,0.865,-0.023
37.21,-0.072,1.107,0.124
37.22,-0.194,0.787,0.086
37.23,-0.362,1.121,-0.14
37.24,-0.203,0.849,-0.082
37.25,-0.089,1.156,0.02
37.26,-0.092,0.947,0.166
37.27,-0.298,0.819,0.03
37.28,-0.418,1.084,-0.117
37.29,-0.147,0.913,-0.101
37.3,-0.102,1.2,0.054
37.31,-0.427,0.648,0.225
37.32,-0.266,1.061,-0.02
37.33,-0.322,0.953,-0.164
37.34,-0.103,1.026,-0.073
37.35,-0.33,1.013,0.213
37.36,-0.135,0.743,0.131
37.37,-0.394,1.158,-0.081
37.38,-0.15,0.826,-0.154
37.39,-0.229,1.162,-0.024
37.4,-0.109,0.785,0.172
37.41,-0.117,1.011,0.087
37.42,-0.342,0.948,-0.133
37.43,-0.231,0.905,-0.105
37.44,-0.128,1.185,0.004
37.45,-0.051,0.704,0.159
37.46,-0.324,1.062,0.028
37.47,-0.267,0.807,-0.165
37.48,-0.183,1.218,-0.053
37.49,-0.106,0.915,0.036
37.5,-0.172,0.853,0.193
37.51,-0.303,1.049,-0.002
37.52,-0.197,0.913,-0.17
37.53,-0.174,1.158,-0.081
37.54,-0.05,0.758,0.084
37.55,-0.161,1.039,0.116
37.56,-0.329,0.881,-0.071
37.57,-0.252,1.066,-0.13
37.58,-0.176,1.018,-0.023
37.59,-0.094,0.896,0.169
37.6,-0.177,1.039,0.035
37.61,-0.366,0.837,-0.098
37.62,-0.238,1.199,-0.112
37.63,-0.099,0.917,0.031
37.64,-0.065,1.006,0.148
37.65,-0.243,0.843,-0.012
37.66,-0.332,1.008,-0.106
37.67,-0.177,1.091,-0.059
37.68,-0.127,0.888,0.087
37.69,-0.16,0.987,0.115
37.7,-0.293,0.857,-0.029
37.71,-0.333,1.203,-0.186
37.72,-0.161,0.849,-0.046
37.73,-0.098,1.052,0.134
37.74,-0.165,0.901,0.103
37.75,-0.324,0.932,-0.105
37.76,-0.215,1.07,-0.117
37.77,-0.196,0.936,0.036
37.78,-0.1,1.088,0.123
37.79,-0.175,0.735,0.028
37.8,-0.329,1.117,-0.152
37.81,-0.126,0.992,-0.078
37.82,-0.077,1.062,-0.005
37.83,-0.102,0.809,0.176
37.84,-0.286,0.873,0.005
37.85,-0.309,1.169,-0.152
37.86,-0.226,0.891,-0.035
37.87,-0.143,1.115,0.1
37.88,-0.13,0.688,0.125
37.89,-0.298,1.108,-0.054
37.9,-0.292,0.95,-0.154
37.91,-0.201,0.965,-0.028
37.92,-0.066,0.912,0.144
37.93,-0.186,0.867,0.071
37.94,-0.311,1.034,-0.13
37.95,-0.252,0.902,-0.053
37.96,-0.16,1.208,0.01
37.97,-0.025,0.677,0.15
37.98,-0.307,1.073,0.003
37.99,-0.33,0.872,-0.108
38.0,-0.174,1.065,-0.112
38.01,-0.154,0.981,0.077
38.02,-0.092,0.785,0.145
38.03,-0.399,1.141,-0.009
38.04,-0.233,0.815,-0.187
38.05,-0.242,1.141,-0.06
38.06,-0.142,0.788,0.148
38.07,-0.082,1.042,0.133
38.08,-0.307,0.91,-0.117
38.09,-0.292,0.888,-0.112
38.1,-0.262,1.117,-0.0
38.11,0.035,0.804,0.169
38.12,-0.2,1.108,0.062
38.13,-0.365,0.761,-0.144
38.14,-0.294,1.169,-0.047
38.15,-0.056,0.975,0.04
38.16,-0.071,0.918,0.155
38.17,-0.271,0.926,-0.016
38.18,-0.312,0.944,-0.088
38.19,-0.151,1.193,-0.104
38.2,-0.095,0.772,0.087
38.21,-0.177,1.012,0.149
38.22,-0.302,0.88,-0.022
38.23,-0.232,1.143,-0.155
38.24,-0.264,0.904,-0.062
38.25,-0.117,0.902,0.134
38.26,-0.171,1.02,0.154
38.27,-0.29,0.884,-0.114
38.28,-0.305,1.093,-0.148
38.29,-0.192,0.894,0.055
38.3,-0.05,1.15,0.164
38.31,-0.141,0.801,0.021
38.32,-0.32,0.995,-0.131
38.33,-0.297,1.027,-0.069
38.34,-0.103,1.045,0.056
38.35,-0.095,0.981,0.126
38.36,-0.219,0.735,-0.017
38.37,-0.41,1.216,-0.086
38.38,-0.079,0.943,-0.081
38.39,-0.14,1.077,0.073
38.4,-0.155,0.732,0.141
38.41,-0.344,1.04,-0.009
38.42,-0.239,1.111,-0.17
38.43,-0.229,0.85,-0.062
38.44,-0.158,1.058,0.128
38.45,-0.125,0.784,0.143
38.46,-0.335,1.161,-0.131
38.47,-0.271,0.755,-0.146
38.48,-0.254,1.143,0.037
38.49,-0.021,0.992,0.155
38.5,-0.138,0.869,0.042
38.51,-0.352,1.014,-0.123
38.52,-0.25,0.864,-0.068
38.53,-0.136,1.28,0.038
38.54,-0.01,0.716,0.142
38.55,-0.261,0.993,-0.003
38.56,-0.368,0.894,-0.109
38.57,-0.115,1.082,-0.105
38.58,-0.201,1.003,0.082
38.59,-0.099,0.736,0.149
38.6,-0.369,1.152,-0.031
38.61,-0.238,0.847,-0.179
38.62,-0.262,1.124,-0.052
38.63,-0.084,0.817,0.123
38.64,-0.172,1.032,0.154
38.65,-0.308,0.987,-0.104
38.66,-0.249,0.898,-0.13
38.67,-0.273,1.099,0.009
38.68,-0.003,0.8,0.148
38.69,-0.183,1.097,0.047
38.7,-0.321,0.769,-0.153
38.71,-0.303,1.107,-0.067
38.72,-0.068,0.98,0.037
38.73,-0.034,0.939,0.136
38.74,-0.216,0.833,-0.023
38.75,-0.347,1.096,-0.071
38.76,-0.188,1.054,-0.094
38.77,-0.134,0.828,0.071
38.78,-0.178,1.029,0.15
38.79,-0.29,0.886,-0.033
38.8,-0.312,1.17,-0.172
38.81,-0.216,0.806,-0.062
38.82,-0.147,1.052,0.152
38.83,-0.134,0.921,0.13
38.84,-0.328,0.935,-0.097
38.85,-0.295,0.981,-0.116
38.86,-0.205,0.947,0.059
38.87,-0.014,1.097,0.108
38.88,-0.202,0.714,0.061
38.89,-0.333,1.107,-0.133
38.9,-0.238,0.981,-0.078
38.91,-0.105,1.122,0.043
38.92,-0.047,0.876,0.126
38.93,-0.287,0.812,0.022
38.94,-0.342,1.142,-0.126
38.95,-0.102,0.899,-0.083
38.96,-0.074,1.119,0.068
38.97,-0.134,0.664,0.132
38.98,-0.349,1.073,-0.024
38.99,-0.296,1.013,-0.11
39.0,-0.157,0.97,-0.08
39.01,-0.16,0.935,0.093
39.02,-0.121,0.754,0.143
39.03,-0.351,1.232,-0.073
39.04,-0.281,0.768,-0.134
39.05,-0.223,1.104,-0.004
39.06,-0.084,0.874,0.174
39.07,-0.166,0.971,0.069
39.08,-0.327,0.945,-0.137
39.09,-0.266,0.854,-0.093
39.1,-0.128,1.197,0.058
39.11,-0.017,0.802,0.104
39.12,-0.275,1.054,0.02
39.13,-0.339,0.775,-0.128
39.14,-0.126,1.189,-0.04
39.15,-0.052,1.007,0.031
39.16,-0.13,0.808,0.146
39.17,-0.271,1.065,-0.016
39.18,-0.264,0.935,-0.126
39.19,-0.178,1.15,-0.127
39.2,-0.161,0.718,0.135
39.21,-0.125,1.03,0.145
39.22,-0.34,0.953,-0.066
39.23,-0.278,1.045,-0.145
39.24,-0.21,0.929,-0.044
39.25,-0.132,0.89,0.221
39.26,-0.161,1.064,0.078
39.27,-0.369,0.797,-0.123
39.28,-0.25,1.135,-0.131
39.29,-0.14,0.948,0.069
39.3,-0.009,1.022,0.12
39.31,-0.215,0.825,0.023
39.32,-0.329,0.955,-0.108
39.33,-0.171,1.145,-0.052
39.34,-0.043,0.861,-0.0
39.35,-0.132,0.998,0.184
39.36,-0.279,0.815,-0.034
39.37,-0.308,1.242,-0.127
39.38,-0.198,0.917,-0.084
39.39,-0.146,0.96,0.091
39.4,-0.213,0.867,0.158
39.41,-0.286,0.986,-0.072
39.42,-0.336,1.125,-0.12
39.43,-0.16,0.842,-0.033
39.44,-0.135,1.138,0.167
39.45,-0.099,0.748,0.044
39.46,-0.356,1.089,-0.122
39.47,-0.249,0.88,-0.124
39.48,-0.165,1.128,0.048
39.49,-0.061,0.909,0.11
39.5,-0.259,0.781,0.058
39.51,-0.345,1.15,-0.138
39.52,-0.115,0.942,-0.059
39.53,-0.121,1.192,0.04
39.54,-0.075,0.674,0.17
39.55,-0.303,1.061,-0.042
39.56,-0.255,0.837,-0.158
39.57,-0.242,1.054,-0.042
39.58,-0.098,0.926,0.122
39.59,-0.166,0.928,0.165
39.6,-0.328,1.072,-0.124
39.61,-0.28,0.771,-0.126
39.62,-0.171,1.219,-0.035
39.63,-0.076,0.83,0.181
39.64,-0.229,1.037,0.055
39.65,-0.312,0.844,-0.115
39.66,-0.221,1.02,-0.099
39.67,-0.143,1.122,0.064
39.68,-0.042,0.775,0.114
39.69,-0.231,1.036,0.023
39.7,-0.347,0.84,-0.109
39.71,-0.223,1.23,-0.098
39.72,-0.184,0.838,0.1
39.73,-0.006,0.904,0.104
39.74,-0.373,1.004,0.002
39.75,-0.255,0.971,-0.146
39.76,-0.182,1.08,-0.039
39.77,-0.057,0.779,0.089
39.78,-0.238,1.073,0.147
39.79,-0.26,0.873,-0.067
39.8,-0.294,1.137,-0.162
39.81,-0.167,0.869,-0.041
39.82,-0.135,1.036,0.206
39.83,-0.081,0.979,0.048
39.84,-0.411,0.903,-0.115
39.85,-0.227,1.068,-0.096
39.86,-0.096,0.973,0.052
39.87,-0.034,1.065,0.096
39.88,-0.207,0.754,0.01
39.89,-0.34,1.098,-0.137
39.9,-0.228,1.028,-0.017
39.91,-0.075,0.951,0.042
39.92,-0.169,0.934,0.148
39.93,-0.303,0.877,0.015
39.94,-0.306,1.233,-0.161
39.95,-0.251,0.816,-0.043
39.96,-0.093,1.057,0.096
39.97,-0.14,0.834,0.172
39.98,-0.363,1.042,-0.136
39.99,-0.301,0.912,-0.097
40.0,-0.163,0.975,-0.018
40.01,-0.073,1.11,0.171
40.02,-0.171,0.7,0.049
40.03,-0.379,1.116,-0.112
40.04,-0.268,0.843,-0.112
40.05,-0.138,1.196,0.039
40.06,-0.066,0.821,0.117
40.07,-0.225,0.886,0.042
40.08,-0.331,1.061,-0.134
40.09,-0.189,0.981,-0.052
40.1,-0.158,1.156,0.069
40.11,-0.037,0.63,0.152
40.12,-0.33,1.129,-0.029
40.13,-0.32,0.89,-0.127
40.14,-0.198,1.068,-0.072
40.15,-0.106,0.914,0.091
40.16,-0.14,0.816,0.138
40.17,-0.37,1.176,-0.068
40.18,-0.273,0.8,-0.131
40.19,-0.264,1.117,-0.047
40.2,-0.031,0.804,0.188
40.21,-0.18,1.08,0.083
40.22,-0.339,0.881,-0.093
40.23,-0.24,0.931,-0.133
40.24,-0.145,1.149,0.02
40.25,-0.054,0.832,0.15
40.26,-0.198,1.054,0.033
40.27,-0.299,0.781,-0.108
40.28,-0.281,1.228,-0.071
40.29,-0.097,0.919,0.066
40.3,-0.09,0.95,0.117
40.31,-0.282,0.91,-0.0
40.32,-0.324,0.98,-0.11
40.33,-0.17,1.141,-0.09
40.34,-0.079,0.742,0.059
40.35,-0.167,1.036,0.133
40.36,-0.303,0.89,-0.031
40.37,-0.316,1.122,-0.159
40.38,-0.195,0.869,-0.058
40.39,-0.102,1.105,0.14
40.4,-0.159,0.845,0.063
40.41,-0.369,0.982,-0.104
40.42,-0.225,1.037,-0.099
40.43,-0.074,0.99,0.012
40.44,-0.081,1.013,0.136
40.45,-0.158,0.722,0.039
40.46,-0.387,1.203,-0.114
40.47,-0.164,0.962,-0.095
40.48,-0.209,1.075,0.053
40.49,-0.062,0.766,0.126
40.5,-0.345,0.952,0.008
40.51,-0.315,1.115,-0.167
40.52,-0.18,0.856,-0.097
40.53,-0.099,1.068,0.118
40.54,-0.072,0.726,0.12
40.55,-0.387,1.164,-0.066
40.56,-0.266,0.853,-0.15
40.57,-0.211,1.028,-0.046
40.58,-0.135,0.977,0.143
40.59,-0.142,0.805,0.085
40.6,-0.362,1.135,-0.083
40.61,-0.219,0.789,-0.113
40.62,-0.242,1.265,0.071
40.63,-0.015,0.772,0.129
40.64,-0.235,0.973,0.026
40.65,-0.347,0.914,-0.14
40.66,-0.223,1.021,-0.036
40.67,-0.111,1.14,0.035
40.68,-0.061,0.708,0.136
40.69,-0.378,1.093,-0.008
40.7,-0.294,0.842,-0.091
40.71,-0.218,1.175,-0.09
40.72,-0.084,0.829,0.09
40.73,-0.13,0.932,0.112
40.74,-0.314,1.069,-0.027
40.75,-0.317,0.885,-0.161
40.76,-0.229,1.061,-0.035
40.77,-0.098,0.768,0.128
40.78,-0.188,1.117,0.13
40.79,-0.307,0.875,-0.137
40.8,-0.312,1.012,-0.086
40.81,-0.2,0.981,0.013
40.82,-0.044,0.963,0.164
40.83,-0.206,1.032,0.071
40.84,-0.32,0.807,-0.152
40.85,-0.239,1.161,-0.086
40.86,-0.081,0.962,0.069
40.87,-0.039,1.012,0.126
40.88,-0.252,0.808,-0.003
40.89,-0.316,1.057,-0.093
40.9,-0.119,1.101,-0.1
40.91,-0.116,0.87,0.018
40.92,-0.147,0.944,0.139
40.93,-0.35,0.885,0.019
40.94,-0.259,1.232,-0.171
40.95,-0.213,0.807,-0.056
40.96,-0.161,1.023,0.135
40.97,-0.143,0.878,0.166
40.98,-0.337,1.003,-0.133
40.99,-0.32,0.999,-0.115
41.0,-0.168,0.846,-0.023
41.01,-0.095,1.14,0.177
41.02,-0.162,0.739,0.061
41.03,-0.41,1.11,-0.122
41.04,-0.248,0.873,-0.08
41.05,-0.187,1.186,0.049
41.06,-0.029,0.909,0.117
41.07,-0.244,0.829,0.032
41.08,-0.344,1.077,-0.154
41.09,-0.159,0.946,-0.048
41.1,-0.104,1.208,0.033
41.11,-0.098,0.625,0.144
41.12,-0.317,1.064,-0.016
41.13,-0.285,0.955,-0.099
41.14,-0.188,0.989,-0.089
41.15,-0.134,0.951,0.082
41.16,-0.17,0.774,0.182
41.17,-0.33,1.184,-0.087
41.18,-0.292,0.775,-0.144
41.19,-0.174,1.09,-0.085
41.2,-0.059,0.827,0.287
41.21,-0.165,1.102,0.018
41.22,-0.363,0.834,-0.114
41.23,-0.272,1.045,-0.067
41.24,-0.149,1.104,0.023
41.25,-0.075,0.805,0.107
41.26,-0.246,1.023,0.035
41.27,-0.32,0.829,-0.112
41.28,-0.164,1.244,-0.055
41.29,-0.121,0.844,0.046
41.3,-0.093,0.981,0.186
41.31,-0.291,0.932,-0.04
41.32,-0.306,1.053,-0.17
41.33,-0.255,1.007,-0.064
41.34,-0.063,0.803,0.103
41.35,-0.198,1.111,0.154
41.36,-0.26,0.826,-0.133
41.37,-0.385,1.079,-0.119
41.38,-0.141,0.83,-0.024
41.39,-0.067,1.081,0.173
41.4,-0.158,0.929,0.099
41.41,-0.356,0.912,-0.152
41.42,-0.229,1.077,-0.118
41.43,-0.148,0.959,0.068
41.44,-0.064,1.082,0.097
41.45,-0.209,0.745,0.033
41.46,-0.339,1.111,-0.139
41.47,-0.208,1.033,-0.026
41.48,-0.13,1.009,0.005
41.49,-0.085,0.828,0.165
41.5,-0.298,0.887,-0.004
41.51,-0.314,1.223,-0.147
41.52,-0.188,0.844,-0.106
41.53,-0.11,1.089,0.096
41.54,-0.087,0.797,0.17
41.55,-0.362,1.08,-0.115
41.56,-0.305,0.889,-0.097
41.57,-0.233,0.977,-0.03
41.58,-0.086,1.052,0.172
41.59,-0.146,0.753,0.042
41.6,-0.408,1.112,-0.093
41.61,-0.167,0.798,-0.111
41.62,-0.164,1.268,0.048
41.63,-0.042,0.793,0.143
41.64,-0.279,0.869,0.062
41.65,-0.286,0.972,-0.148
41.66,-0.158,0.993,-0.029
41.67,-0.149,1.152,-0.027
41.68,-0.041,0.651,0.171
41.69,-0.242,1.117,-0.051
41.7,-0.354,0.889,-0.101
41.71,-0.217,1.114,-0.086
41.72,-0.097,0.882,0.089
41.73,-0.058,0.835,0.135
41.74,-0.39,1.108,-0.043
41.75,-0.275,0.852,-0.145
41.76,-0.206,1.104,-0.053
41.77,-0.06,0.786,0.134
41.78,-0.234,1.074,0.113
41.79,-0.247,0.892,-0.106
41.8,-0.217,0.963,-0.133
41.81,-0.205,1.058,0.031
41.82,-0.037,0.861,0.164
41.83,-0.237,1.068,0.057
41.84,-0.327,0.778,-0.134
41.85,-0.281,1.236,-0.045
41.86,-0.021,0.941,0.003
41.87,-0.094,1.003,0.131
41.88,-0.262,0.867,0.037
41.89,-0.323,1.006,-0.122
41.9,-0.18,1.17,-0.074
41.91,-0.088,0.793,0.039
41.92,-0.172,0.994,0.141
41.93,-0.269,0.85,-0.011
41.94,-0.303,1.2,-0.167
41.95,-0.166,0.825,-0.088
41.96,-0.186,0.999,0.156
41.97,-0.156,0.941,0.114
41.98,-0.324,0.903,-0.087
41.99,-0.279,1.071,-0.118
42.0,-0.164,0.886,0.014
42.01,-0.124,1.124,0.187
42.02,-0.21,0.768,0.049
42.03,-0.412,1.059,-0.099
42.04,-0.128,0.959,-0.049
42.05,-0.062,1.178,-0.004
42.06,-0.142,0.757,0.171
42.07,-0.237,0.939,0.017
42.08,-0.349,1.075,-0.155
42.09,-0.157,0.919,-0.075
42.1,-0.135,1.15,0.101
42.11,-0.129,0.667,0.154
42.12,-0.328,1.16,-0.057
42.13,-0.224,0.892,-0.152
42.14,-0.238,1.035,-0.041
42.15,-0.087,0.894,0.139
42.16,-0.213,0.871,0.104
42.17,-0.366,1.123,-0.095
42.18,-0.19,0.783,-0.127
42.19,-0.164,1.174,-0.005
42.2,-0.135,0.78,0.175
42.21,-0.213,1.043,0.076
42.22,-0.267,0.918,-0.169
42.23,-0.231,0.922,-0.107
42.24,-0.102,1.097,0.068
42.25,-0.053,0.848,0.193
42.26,-0.275,1.063,-0.005
42.27,-0.342,0.795,-0.127
42.28,-0.186,1.222,-0.053
42.29,-0.069,0.899,0.045
42.3,-0.176,0.902,0.167
42.31,-0.309,0.992,-0.05
42.32,-0.205,0.958,-0.154
42.33,-0.179,1.104,-0.038
42.34,0.02,0.713,0.06
42.35,-0.118,1.089,0.134
42.36,-0.322,0.863,-0.134
42.37,-0.255,1.131,-0.126
42.38,-0.163,0.972,0.014
42.39,-0.091,0.917,0.151
42.4,-0.203,0.97,0.048
42.41,-0.352,0.889,-0.156
42.42,-0.24,1.214,-0.047
42.43,-0.124,0.827,0.0
42.44,-0.139,0.978,0.177
42.45,-0.232,0.852,-0.002
42.46,-0.321,1.13,-0.161
42.47,-0.129,1.051,0.04
42.48,-0.064,1.003,0.102
42.49,-0.207,0.73,0.01
42.5,-0.377,1.205,-0.124
42.51,-0.179,0.993,-0.087
42.52,-0.181,1.077,0.073
42.53,-0.073,0.76,0.151
42.54,-0.311,0.97,-0.006
42.55,-0.279,1.134,-0.147
42.56,-0.233,0.839,-0.068
42.57,-0.089,1.064,0.113
42.58,-0.122,0.77,0.136
42.59,-0.377,1.129,-0.123
42.6,-0.213,0.798,-0.157
42.61,-0.232,1.105,0.035
42.62,-0.067,1.016,0.14
42.63,-0.146,0.81,0.067
42.64,-0.346,1.106,-0.126
42.65,-0.211,0.859,-0.07
42.66,-0.127,1.288,-0.001
42.67,-0.081,0.701,0.132
42.68,-0.244,0.976,-0.009
42.69,-0.363,0.939,-0.091
42.7,-0.142,1.032,-0.097
42.71,-0.12,1.013,0.046
42.72,-0.105,0.661,0.153
42.73,-0.365,1.174,-0.039
42.74,-0.221,0.885,-0.139
42.75,-0.242,1.118,-0.065
42.76,-0.105,0.771,0.197
42.77,-0.184,1.102,0.071
42.78,-0.332,0.853,-0.126
42.79,-0.248,0.947,-0.12
42.8,-0.171,1.072,0.052
42.81,-0.004,0.896,0.141
42.82,-0.256,1.051,0.012
42.83,-0.303,0.753,-0.112
42.84,-0.179,1.267,-0.057
42.85,-0.094,0.953,0.019
42.86,-0.129,0.89,0.14
42.87,-0.219,0.89,0.012
42.88,-0.332,1.012,-0.115
42.89,-0.212,1.094,-0.068
42.9,-0.133,0.787,0.085
42.91,-0.12,1.023,0.111
42.92,-0.308,0.881,-0.023
42.93,-0.323,1.157,-0.178
42.94,-0.189,0.827,-0.046
42.95,-0.076,0.995,0.19
42.96,-0.167,0.969,0.079
42.97,-0.373,0.884,-0.117
42.98,-0.178,1.062,-0.107
42.99,-0.191,0.915,0.049
43.0,-0.106,1.115,0.105
43.01,-0.171,0.759,0.04
43.02,-0.347,1.083,-0.129
43.03,-0.223,1.033,-0.03
43.04,-0.12,1.057,0.049
43.05,-0.122,0.87,0.138
43.06,-0.239,0.831,0.01
43.07,-0.361,1.229,-0.139
43.08,-0.169,0.824,-0.077
43.09,-0.16,1.106,0.101
43.1,-0.098,0.718,0.111
43.11,-0.35,1.057,-0.053
43.12,-0.291,1.0,-0.118
43.13,-0.198,0.875,-0.046
43.14,-0.137,1.056,0.18
43.15,-0.175,0.815,0.101
43.16,-0.385,1.15,-0.136
43.17,-0.219,0.766,-0.126
43.18,-0.109,1.245,0.045
43.19,-0.004,0.876,0.082
43.2,-0.286,0.886,0.038
43.21,-0.356,0.996,-0.118
43.22,-0.122,0.962,-0.063
43.23,-0.068,1.207,0.032
43.24,-0.064,0.67,0.122
43.25,-0.305,1.084,-0.023
43.26,-0.327,0.9,-0.107
43.27,-0.114,1.071,-0.107
43.28,-0.419,0.92,0.309
43.29,-0.152,0.793,0.17
43.3,-0.317,1.174,-0.051
43.31,-0.258,0.853,-0.157
43.32,-0.264,1.108,-0.021
43.33,-0.064,0.816,0.181
43.34,-0.196,1.073,0.054
43.35,-0.353,0.857,-0.123
43.36,-0.229,0.953,-0.119
43.37,-0.109,1.173,0.033
43.38,-0.042,0.788,0.115
43.39,-0.265,1.053,0.029
43.4,-0.368,0.791,-0.118
43.41,-0.129,1.231,-0.073
43.42,-0.108,0.904,0.03
43.43,-0.107,0.905,0.155
43.44,-0.283,0.946,-0.051
43.45,-0.278,1.006,-0.114
43.46,-0.248,1.042,-0.082
43.47,-0.097,0.736,0.134
43.48,-0.192,1.131,0.164
43.49,-0.328,0.83,-0.125
43.5,-0.327,1.061,-0.093
43.51,-0.139,0.928,-0.058
43.52,-0.106,0.992,0.194
43.53,-0.209,0.927,0.054
43.54,-0.318,0.849,-0.131
43.55,-0.177,1.204,-0.093
43.56,-0.101,0.939,0.051
43.57,-0.119,0.983,0.146
43.58,-0.223,0.784,-0.009
43.59,-0.306,1.24,-0.137
43.6,-0.226,0.903,-0.096
43.61,-0.094,1.015,0.073
43.62,-0.106,0.834,0.129
43.63,-0.395,0.945,-0.058
43.64,-0.28,1.078,-0.139
43.65,-0.183,0.868,-0.053
43.66,-0.143,1.065,0.169
43.67,-0.12,0.755,0.112
43.68,-0.391,1.124,-0.132
43.69,-0.202,0.823,-0.131
43.7,-0.148,1.175,0.043
43.71,-0.053,0.918,0.095
43.72,-0.225,0.792,0.049
43.73,-0.339,1.108,-0.131
43.74,-0.201,0.969,-0.044
43.75,-0.159,1.227,0.017
43.76,-0.087,0.636,0.164
43.77,-0.315,1.041,-0.025
43.78,-0.313,0.984,-0.125
43.79,-0.123,0.954,-0.146
43.8,-0.136,1.021,0.134
43.81,-0.137,0.749,0.149
43.82,-0.318,1.153,-0.099
43.83,-0.289,0.8,-0.119
43.84,-0.209,1.146,-0.019
43.85,-0.116,0.846,0.17
43.86,-0.148,0.973,0.071
43.87,-0.329,0.981,-0.149
43.88,-0.213,0.878,-0.108
43.89,-0.196,1.231,0.093
43.9,-0.012,0.72,0.154
43.91,-0.257,1.088,0.014
43.92,-0.349,0.821,-0.116
43.93,-0.205,1.165,-0.067
43.94,-0.099,0.964,0.072
43.95,-0.102,0.842,0.13
43.96,-0.315,1.088,-0.02
43.97,-0.298,0.874,-0.182
43.98,-0.227,1.116,-0.046
43.99,-0.048,0.775,0.16
44.0,-0.178,1.128,0.128
44.01,-0.322,0.827,-0.106
44.02,-0.251,1.034,-0.071
44.03,-0.117,1.053,-0.027
44.04,-0.14,0.841,0.15
44.05,-0.221,1.079,0.05
44.06,-0.324,0.813,-0.148
44.07,-0.191,1.158,-0.085
44.08,-0.104,0.919,0.044
44.09,-0.113,0.971,0.173
44.1,-0.209,0.848,0.022
44.11,-0.316,1.024,-0.161
44.12,-0.162,1.102,-0.075
44.13,-0.068,0.804,0.024
44.14,-0.128,0.977,0.114
44.15,-0.331,0.854,-0.064
44.16,-0.249,1.185,-0.157
44.17,-0.158,0.859,-0.021
44.18,-0.186,0.961,0.199
44.19,-0.156,0.907,0.108
44.2,-0.367,0.954,-0.132
44.21,-0.218,1.038,-0.152
44.22,-0.127,0.885,0.03
44.23,-0.085,1.115,0.152
44.24,-0.2,0.782,0.03
44.25,-0.352,1.104,-0.139
44.26,-0.217,0.962,-0.089
44.27,-0.074,1.055,0.107
44.28,-0.172,0.932,0.228
44.29,-0.332,0.818,-0.012
44.3,-0.291,1.147,-0.123
44.31,-0.016,0.952,-0.1
44.32,-0.247,1.058,0.128
44.33,-0.158,0.719,0.114
44.34,-0.323,1.088,-0.067
44.35,-0.223,1.027,-0.161
44.36,-0.16,0.928,-0.014
44.37,-0.056,0.983,0.132
44.38,-0.135,0.789,0.043
44.39,-0.385,1.165,-0.136
44.4,-0.21,0.865,-0.1
44.41,-0.149,1.199,0.041
44.42,-0.115,0.652,0.182
44.43,-0.265,1.059,-0.014
44.44,-0.315,0.93,-0.121
44.45,-0.224,1.003,-0.074
44.46,-0.094,0.957,0.128
44.47,-0.077,0.788,0.119
44.48,-0.411,1.134,-0.073
44.49,-0.201,0.776,-0.155
44.5,-0.175,1.23,0.011
44.51,-0.104,0.812,0.16
44.52,-0.22,0.971,0.074
44.53,-0.316,0.957,-0.111
44.54,-0.184,0.961,-0.096
44.55,-0.15,1.19,0.051
44.56,-0.042,0.713,0.117
44.57,-0.265,1.074,-0.006
44.58,-0.313,0.835,-0.141
44.59,-0.213,1.184,-0.044
44.6,-0.155,0.877,0.081
44.61,-0.111,0.865,0.164
44.62,-0.348,1.072,-0.047
44.63,-0.284,0.897,-0.163
44.64,-0.223,1.109,-0.013
44.65,-0.066,0.806,0.143
44.66,-0.187,1.096,0.096
44.67,-0.307,0.857,-0.144
44.68,-0.283,1.013,-0.102
44.69,-0.216,1.013,0.037
44.7,0.035,0.914,0.143
44.71,-0.324,0.995,0.04
44.72,-0.342,0.792,-0.134
44.73,-0.192,1.294,-0.01
44.74,-0.104,0.839,0.033
44.75,-0.171,0.905,0.151
44.76,-0.255,0.922,-0.031
44.77,-0.201,1.106,-0.167
44.78,-0.213,0.975,-0.063
44.79,-0.105,0.797,0.135
44.8,-0.113,1.074,0.131
44.81,-0.371,0.85,-0.138
44.82,-0.231,1.115,-0.126
44.83,-0.213,0.962,0.045
44.84,-0.0,0.984,0.118
44.85,-0.203,0.865,0.061
44.86,-0.387,0.946,-0.141
44.87,-0.184,1.097,-0.068
44.88,-0.092,0.881,0.055
44.89,-0.108,1.01,0.137
44.9,-0.331,0.824,-0.018
44.91,-0.296,1.175,-0.169
44.92,-0.198,0.868,-0.055
44.93,-0.125,0.988,0.094
44.94,-0.135,0.905,0.129
44.95,-0.301,0.926,-0.1
44.96,-0.255,1.076,-0.144
44.97,-0.188,0.843,-0.015
44.98,-0.121,1.168,0.199
44.99,-0.121,0.751,0.025
45.0,-0.392,1.076,-0.142
45.01,-0.274,1.005,-0.074
45.02,-0.066,1.083,0.006
45.03,-0.089,0.894,0.16
45.04,-0.231,0.759,-0.016
45.05,-0.427,1.197,-0.11
45.06,-0.106,0.879,-0.072
45.07,-0.099,1.114,0.069
45.08,-0.16,0.702,0.153
45.09,-0.353,1.044,-0.006
45.1,-0.253,1.04,-0.159
45.11,-0.156,0.899,-0.055
45.12,-0.194,1.024,0.141
45.13,-0.105,0.789,0.133
45.14,-0.375,1.18,-0.161
45.15,-0.223,0.726,-0.135
45.16,-0.282,1.21,0.093
45.17,0.005,0.906,0.114
45.18,-0.195,0.844,0.049
45.19,-0.374,1.03,-0.148
45.2,-0.221,0.961,-0.053
45.21,-0.094,1.19,0.034
45.22,-0.033,0.7,0.139
45.23,-0.377,1.141,-0.018
45.24,-0.249,0.844,-0.14
45.25,-0.195,1.165,-0.075
45.26,-0.177,0.81,0.137
45.27,-0.131,0.962,0.17
45.28,-0.274,1.051,-0.126
45.29,-0.3,0.879,-0.127
45.3,-0.198,1.101,-0.006
45.31,-0.048,0.8,0.159
45.32,-0.25,1.117,0.06
45.33,-0.305,0.8,-0.143
45.34,-0.234,1.111,-0.109
45.35,-0.159,1.008,0.061
45.36,-0.025,0.897,0.162
45.37,-0.214,0.985,-0.011
45.38,-0.303,0.865,-0.126
45.39,-0.239,1.219,-0.038
45.4,-0.068,0.815,0.052
45.41,-0.169,0.992,0.133
45.42,-0.298,0.857,-0.06
45.43,-0.294,1.134,-0.128
45.44,-0.136,0.98,-0.069
45.45,-0.059,0.84,0.121
45.46,-0.157,1.027,0.121
45.47,-0.327,0.903,-0.147
45.48,-0.237,1.113,-0.107
45.49,-0.193,0.878,0.028
45.5,-0.039,1.069,0.179
45.51,-0.229,0.827,0.031
45.52,-0.414,0.957,-0.108
45.53,-0.119,1.104,-0.057
45.54,-0.067,0.972,0.039
45.55,-0.209,0.945,0.169
45.56,-0.259,0.783,-0.028
45.57,-0.308,1.254,-0.145
45.58,-0.137,0.88,-0.079
45.59,-0.18,0.992,0.094
45.6,-0.148,0.847,0.172
45.61,-0.355,0.961,-0.092
45.62,-0.245,1.054,-0.13
45.63,-0.208,0.906,0.002
45.64,-0.123,1.121,0.176
45.65,-0.066,0.773,0.034
45.66,-0.396,1.101,-0.144
45.67,-0.23,0.92,-0.108
45.68,-0.112,1.148,0.079
45.69,-0.062,0.904,0.124
45.7,-0.26,0.781,-0.001
45.71,-0.338,1.164,-0.141
45.72,-0.166,0.917,-0.077
45.73,-0.122,1.118,0.088
45.74,-0.11,0.707,0.128
45.75,-0.361,1.082,-0.024
45.76,-0.228,1.016,-0.144
45.77,-0.156,0.948,-0.065
45.78,-0.194,0.996,0.168
45.79,-0.129,0.777,0.124
45.8,-0.367,1.16,-0.105
45.81,-0.192,0.741,-0.153
45.82,-0.275,1.245,0.057
45.83,0.035,0.857,0.143
45.84,-0.256,0.903,0.032
45.85,-0.34,1.0,-0.145
45.86,-0.188,0.99,-0.052
45.87,-0.082,1.211,0.045
45.88,-0.05,0.637,0.118
45.89,-0.356,1.153,0.017
45.9,-0.275,0.881,-0.13
45.91,-0.209,1.101,-0.066
45.92,-0.141,0.854,0.113
45.93,-0.156,0.857,0.162
45.94,-0.348,1.115,-0.11
45.95,-0.284,0.813,-0.128
45.96,-0.227,1.144,-0.003
45.97,-0.08,0.77,0.182
45.98,-0.166,1.096,0.061
45.99,-0.287,0.859,-0.172
46.0,-0.285,0.943,-0.114
46.01,-0.134,1.118,0.099
46.02,0.028,0.868,0.116
46.03,-0.329,1.026,0.006
46.04,-0.332,0.783,-0.125
46.05,-0.24,1.297,-0.013
46.06,-0.114,0.731,0.082
46.07,-0.189,1.005,0.139
46.08,-0.305,0.899,-0.065
46.09,-0.345,1.112,-0.157
46.1,-0.183,0.893,-0.036
46.11,-0.12,0.939,0.168
46.12,-0.156,1.035,0.075
46.13,-0.339,0.87,-0.14
46.14,-0.255,1.112,-0.114
46.15,-0.2,0.908,0.07
46.16,0.032,1.098,0.15
46.17,-0.235,0.806,0.015
46.18,-0.341,1.002,-0.152
46.19,-0.2,1.115,-0.046
46.2,-0.039,0.949,0.028
46.21,-0.206,0.93,0.146
46.22,-0.282,0.826,-0.04
46.23,-0.352,1.273,-0.119
46.24,-0.148,0.828,-0.075
46.25,-0.123,0.993,0.101
46.26,-0.145,0.882,0.153
46.27,-0.297,0.977,-0.1
46.28,-0.357,0.962,-0.138
46.29,-0.196,0.846,0.008
46.3,-0.111,1.202,0.212
46.31,-0.115,0.767,0.024
46.32,-0.378,1.088,-0.13
46.33,-0.26,0.892,-0.075
46.34,-0.095,1.176,0.064
46.35,-0.081,0.847,0.126
46.36,-0.254,0.83,-0.007
46.37,-0.367,1.162,-0.125
46.38,-0.129,0.896,-0.074
46.39,-0.19,1.074,0.085
46.4,-0.113,0.68,0.182
46.41,-0.372,1.145,-0.048
46.42,-0.262,0.937,-0.141
46.43,-0.242,0.99,-0.029
46.44,-0.131,0.97,0.143
46.45,-0.129,0.791,0.121
46.46,-0.355,1.155,-0.139
46.47,-0.271,0.77,-0.116
46.48,-0.249,1.232,0.028
46.49,-0.0,0.84,0.156
46.5,-0.204,0.947,0.017
46.51,-0.356,0.941,-0.137
46.52,-0.193,0.971,-0.039
46.53,-0.086,1.186,0.049
46.54,-0.095,0.68,0.109
46.55,-0.379,1.112,-0.034
46.56,-0.281,0.879,-0.101
46.57,-0.185,1.111,-0.092
46.58,-0.157,0.852,0.111
46.59,-0.131,0.895,0.143
46.6,-0.374,1.112,-0.077
46.61,-0.275,0.814,-0.112
46.62,-0.245,1.132,-0.024
46.63,-0.011,0.792,0.173
46.64,-0.198,1.083,0.014
46.65,-0.321,0.793,-0.133
46.66,-0.255,1.058,-0.062
46.67,-0.083,1.103,0.049
46.68,-0.055,0.807,0.136
46.69,-0.291,1.031,0.036
46.7,-0.294,0.893,-0.117
46.71,-0.189,1.232,-0.105
46.72,-0.144,0.763,0.08
46.73,-0.07,0.954,0.159
46.74,-0.348,0.952,-0.036
46.75,-0.248,1.071,-0.187
46.76,-0.217,0.951,-0.077
46.77,-0.109,0.83,0.175
46.78,-0.216,1.095,0.139
46.79,-0.293,0.818,-0.157
46.8,-0.308,1.099,-0.105
46.81,-0.167,0.947,-0.016
46.82,-0.118,1.049,0.168
46.83,-0.144,0.895,0.015
46.84,-0.327,0.892,-0.148
46.85,-0.161,1.191,-0.067
46.86,-0.17,0.96,0.071
46.87,-0.107,0.974,0.145
46.88,-0.247,0.796,-0.006
46.89,-0.299,1.256,-0.153
46.9,-0.161,0.864,-0.099
46.91,-0.201,0.995,0.128
46.92,-0.11,0.774,0.12
46.93,-0.396,1.056,-0.061
46.94,-0.195,1.019,-0.175
46.95,-0.204,0.886,0.003
46.96,-0.144,1.083,0.19
46.97,-0.135,0.785,0.073
46.98,-0.405,1.12,-0.148
46.99,-0.223,0.866,-0.105
47.0,-0.093,1.241,0.048
47.01,-0.132,0.809,0.158
47.02,-0.283,0.851,0.033
47.03,-0.318,1.114,-0.109
47.04,-0.073,0.937,-0.084
47.05,-0.239,1.14,0.101
47.06,-0.07,0.65,0.159
47.07,-0.344,1.137,-0.059
47.08,-0.262,0.894,-0.158
47.09,-0.236,1.025,-0.022
47.1,-0.189,0.976,0.158
47.11,-0.128,0.775,0.103
47.12,-0.401,1.157,-0.083
47.13,-0.188,0.801,-0.127
47.14,-0.241,1.282,0.045
47.15,-0.005,0.777,0.14
47.16,-0.191,0.955,0.012
47.17,-0.333,0.955,-0.15
47.18,-0.246,1.036,-0.07
47.19,-0.09,1.086,0.039
47.2,-0.067,0.683,0.167
47.21,-0.369,1.132,-0.036
47.22,-0.283,0.84,-0.114
47.23,-0.227,1.125,-0.111
47.24,-0.076,0.76,0.118
47.25,-0.173,0.957,0.168
47.26,-0.305,1.067,-0.093
47.27,-0.296,0.87,-0.17
47.28,-0.201,1.092,0.003
47.29,-0.053,0.823,0.177
47.3,-0.236,1.107,0.07
47.31,-0.329,0.816,-0.157
47.32,-0.246,1.073,-0.107
47.33,-0.201,1.021,0.093
47.34,0.01,0.881,0.129
47.35,-0.271,0.998,0.016
47.36,-0.349,0.813,-0.124
47.37,-0.159,1.244,-0.036
47.38,-0.108,0.833,0.068
47.39,-0.122,0.948,0.158
47.4,-0.284,0.89,-0.054
47.41,-0.311,1.107,-0.154
47.42,-0.159,0.97,-0.074
47.43,-0.146,0.802,0.115
47.44,-0.196,1.054,0.139
47.45,-0.315,0.856,-0.118
47.46,-0.256,1.103,-0.113
47.47,-0.158,0.862,0.017
47.48,-0.104,1.054,0.203
47.49,-0.149,0.872,0.044
47.5,-0.394,0.959,-0.137
47.51,-0.225,1.07,-0.085
47.52,-0.009,0.956,0.057
47.53,-0.155,1.052,0.158
47.54,-0.271,0.756,-0.02
47.55,-0.325,1.167,-0.131
47.56,-0.064,0.968,-0.072
47.57,-0.193,0.971,0.086
47.58,-0.182,0.814,0.179
47.59,-0.291,0.96,-0.094
47.6,-0.272,1.128,-0.14
47.61,-0.199,0.867,-0.008
47.62,-0.139,1.132,0.203
47.63,-0.112,0.786,0.048
47.64,-0.36,1.099,-0.143
47.65,-0.226,0.891,-0.109
47.66,-0.149,1.127,0.07
47.67,-0.06,0.945,0.133
47.68,-0.255,0.793,0.009
47.69,-0.39,1.118,-0.146
47.7,-0.184,0.895,-0.043
47.71,-0.132,1.125,0.066
47.72,-0.121,0.639,0.118
47.73,-0.313,1.187,-0.056
47.74,-0.245,0.894,-0.142
47.75,-0.218,1.038,-0.051
47.76,-0.146,0.9,0.163
47.77,-0.193,0.83,0.11
47.78,-0.418,1.098,-0.116
47.79,-0.22,0.779,-0.127
47.8,-0.18,1.237,0.036
47.81,0.033,0.76,0.098
47.82,-0.193,1.074,0.023
47.83,-0.371,0.868,-0.183
47.84,-0.174,0.987,-0.086
47.85,-0.059,1.136,0.076
47.86,-0.062,0.785,0.092
47.87,-0.422,1.083,-0.002
47.88,-0.231,0.823,-0.133
47.89,-0.081,1.24,-0.056
47.9,-0.167,0.76,0.135
47.91,-0.223,0.9,0.148
47.92,-0.267,1.042,-0.076
47.93,-0.202,1.011,-0.122
47.94,-0.225,1.067,-0.046
47.95,-0.055,0.725,0.233
47.96,-0.181,1.092,0.045
47.97,-0.409,0.813,-0.179
47.98,-0.229,1.143,-0.071
47.99,-0.022,0.989,0.024
48.0,-0.103,0.875,0.143
48.01,-0.313,0.979,-0.009
48.02,-0.204,0.933,-0.133
48.03,-0.359,1.168,-0.054
48.04,-0.134,0.695,0.093
48.05,-0.148,1.083,0.157
48.06,-0.268,0.894,-0.105
48.07,-0.345,1.041,-0.131
48.08,-0.231,0.939,-0.005
48.09,-0.081,0.952,0.179
48.1,-0.187,1.032,0.052
48.11,-0.3,0.815,-0.135
48.12,-0.306,1.167,-0.063
48.13,-0.033,0.944,0.052
48.14,-0.082,1.019,0.138
48.15,-0.204,0.804,0.001
48.16,-0.332,1.064,-0.116
48.17,-0.139,1.09,-0.077
48.18,-0.152,0.851,0.081
48.19,-0.152,0.981,0.119
48.2,-0.332,0.868,-0.037
