t,ax,ay,az
0.0,-0.373,1.022,-0.237
0.01,-0.151,1.172,-0.187
0.02,-0.147,0.909,-0.014
0.03,-0.105,0.777,0.149
0.04,-0.357,1.07,-0.152
0.05,-0.245,1.145,-0.105
0.06,-0.093,1.077,-0.015
0.07,-0.105,0.71,0.078
0.08,-0.194,1.069,-0.004
0.09,-0.33,0.872,-0.25
0.1,-0.168,1.158,-0.098
0.11,-0.151,0.802,0.133
0.12,-0.183,0.981,0.078
0.13,-0.368,0.821,-0.227
0.14,-0.245,1.044,-0.128
0.15,-0.12,1.159,0.021
0.16,-0.055,0.626,0.072
0.17,-0.24,1.104,0.001
0.18,-0.352,0.807,-0.22
0.19,-0.198,1.17,-0.082
0.2,-0.122,0.778,0.121
0.21,-0.166,0.923,0.091
0.22,-0.352,0.969,-0.244
0.23,-0.217,0.915,-0.197
0.24,-0.088,1.256,0.042
0.25,-0.018,0.621,0.052
0.26,-0.291,1.105,-0.031
0.27,-0.361,0.825,-0.228
0.28,-0.122,1.129,-0.083
0.29,-0.202,0.903,0.085
0.3,-0.085,0.786,0.092
0.31,-0.388,1.091,-0.212
0.32,-0.243,0.848,-0.157
0.33,-0.141,1.292,0.067
0.34,-0.106,0.617,0.086
0.35,-0.299,1.044,0.005
0.36,-0.331,0.905,-0.212
0.37,-0.149,1.17,-0.092
0.38,-0.168,0.861,0.179
0.39,-0.105,0.799,0.031
0.4,-0.372,1.026,-0.229
0.41,-0.175,0.967,-0.113
0.42,-0.126,1.22,0.038
0.43,-0.128,0.593,0.119
0.44,-0.327,1.146,0.005
0.45,-0.29,0.822,-0.294
0.46,-0.187,1.045,-0.087
0.47,-0.169,0.983,0.141
0.48,-0.036,0.745,0.028
0.49,-0.439,1.074,-0.221
0.5,-0.202,0.831,-0.057
0.51,-0.089,1.335,0.037
0.52,-0.083,0.591,0.095
0.53,-0.27,1.062,0.012
0.54,-0.311,0.958,-0.279
0.55,-0.148,0.949,-0.091
0.56,-0.21,1.058,0.196
0.57,-0.133,0.683,0.062
0.58,-0.391,1.14,-0.231
0.59,-0.267,0.897,-0.032
0.6,-0.066,1.294,0.006
0.61,-0.112,0.619,0.071
0.62,-0.282,1.003,0.038
0.63,-0.35,1.066,-0.27
0.64,-0.129,0.856,-0.075
0.65,-0.181,1.133,0.176
0.66,-0.025,0.637,0.036
0.67,-0.482,1.181,-0.185
0.68,-0.234,0.88,-0.135
0.69,-0.116,1.227,0.021
0.7,-0.063,0.728,0.088
0.71,-0.28,0.891,0.015
0.72,-0.383,1.187,-0.267
0.73,-0.071,0.812,-0.118
0.74,-0.21,1.143,0.14
0.75,-0.068,0.665,0.087
0.76,-0.375,1.103,-0.195
0.77,-0.287,0.924,-0.132
0.78,-0.093,1.116,0.025
0.79,-0.092,0.887,0.088
0.8,-0.214,0.763,0.022
0.81,-0.405,1.28,-0.227
0.82,-0.052,0.804,-0.064
0.83,-0.285,1.179,0.13
0.84,-0.015,0.69,0.126
0.85,-0.41,1.058,-0.163
0.86,-0.308,1.013,-0.141
0.87,-0.046,1.07,0.052
0.88,-0.119,0.995,0.123
0.89,-0.203,0.678,-0.014
0.9,-0.454,1.304,-0.192
0.91,-0.099,0.837,-0.075
0.92,-0.206,1.087,0.083
0.93,-0.079,0.747,0.167
0.94,-0.344,0.964,-0.2
0.95,-0.277,1.112,-0.19
0.96,-0.091,0.989,0.088
0.97,-0.11,1.126,0.111
0.98,-0.17,0.649,-0.033
0.99,-0.444,1.297,-0.174
1.0,-0.117,0.929,-0.091
1.01,-0.223,0.99,0.079
1.02,-0.155,0.85,0.169
1.03,-0.267,0.893,-0.183
1.04,-0.336,1.191,-0.133
1.05,-0.154,0.899,0.148
1.06,-0.134,1.137,0.136
1.07,-0.185,0.657,-0.008
1.08,-0.396,1.229,-0.194
1.09,-0.185,1.022,-0.062
1.1,-0.23,0.847,0.052
1.11,-0.058,0.952,0.178
1.12,-0.272,0.822,-0.191
1.13,-0.333,1.205,-0.158
1.14,-0.152,0.905,0.074
1.15,-0.148,1.089,0.143
1.16,-0.09,0.716,-0.02
1.17,-0.439,1.312,-0.185
1.18,-0.128,0.941,-0.094
1.19,-0.207,0.982,0.129
1.2,-0.08,0.886,0.165
1.21,-0.347,0.796,-0.166
1.22,-0.331,1.213,-0.16
1.23,-0.063,0.942,0.08
1.24,-0.178,1.078,0.127
1.25,-0.114,0.669,-0.003
1.26,-0.442,1.182,-0.222
1.27,-0.097,1.068,-0.106
1.28,-0.194,0.838,0.086
1.29,-0.159,0.981,0.175
1.3,-0.302,0.789,-0.151
1.31,-0.32,1.24,-0.202
1.32,-0.142,0.921,0.104
1.33,-0.099,1.106,0.108
1.34,-0.115,0.741,-0.033
1.35,-0.358,1.065,-0.137
1.36,-0.202,1.183,-0.094
1.37,-0.109,0.754,0.045
1.38,-0.198,1.065,0.212
1.39,-0.223,0.73,-0.14
1.4,-0.376,1.219,-0.148
1.41,-0.184,0.948,0.046
1.42,-0.088,1.0,0.105
1.43,-0.11,0.852,-0.016
1.44,-0.479,0.991,-0.093
1.45,-0.127,1.235,-0.118
1.46,-0.162,0.745,0.062
1.47,-0.135,1.016,0.188
1.48,-0.29,0.806,-0.119
1.49,-0.354,1.134,-0.231
1.5,-0.18,0.974,-0.001
1.51,-0.031,0.979,0.127
1.52,-0.171,0.919,0.032
1.53,-0.404,0.847,-0.203
1.54,-0.185,1.32,-0.055
1.55,-0.137,0.773,0.059
1.56,-0.163,0.961,0.138
1.57,-0.201,0.884,-0.078
1.58,-0.407,1.063,-0.198
1.59,-0.158,0.975,0.006
1.6,-0.084,0.905,0.191
1.61,-0.189,1.01,0.049
1.62,-0.339,0.772,-0.192
1.63,-0.29,1.317,0.001
1.64,-0.091,0.884,0.09
1.65,-0.178,0.878,0.138
1.66,-0.217,0.956,-0.035
1.67,-0.328,0.99,-0.227
1.68,-0.196,1.057,-0.015
1.69,-0.032,0.822,0.202
1.7,-0.143,1.031,0.064
1.71,-0.403,0.737,-0.22
1.72,-0.277,1.242,-0.024
1.73,-0.056,0.981,0.03
1.74,-0.181,0.793,0.111
1.75,-0.311,1.054,0.016
1.76,-0.255,0.866,-0.256
1.77,-0.187,1.159,-0.036
1.78,-0.046,0.78,0.206
1.79,-0.11,1.008,0.056
1.8,-0.368,0.849,-0.211
1.81,-0.212,1.156,-0.035
1.82,-0.084,1.042,0.049
1.83,-0.183,0.709,0.132
1.84,-0.297,1.114,0.015
1.85,-0.31,0.788,-0.207
1.86,-0.204,1.18,-0.029
1.87,-0.071,0.854,0.171
1.88,-0.086,0.93,0.044
1.89,-0.388,0.885,-0.209
1.9,-0.216,1.014,-0.095
1.91,-0.078,1.169,0.041
1.92,-0.087,0.62,0.135
1.93,-0.338,1.133,0.02
1.94,-0.312,0.778,-0.21
1.95,-0.197,1.136,-0.013
1.96,-0.21,0.855,0.202
1.97,-0.159,0.998,0.048
1.98,-0.352,0.889,-0.225
1.99,-0.14,1.102,-0.072
2.0,-0.158,1.047,0.051
2.01,-0.119,0.657,0.16
2.02,-0.315,1.13,-0.002
2.03,-0.313,0.782,-0.245
2.04,-0.167,1.172,-0.029
2.05,-0.141,0.828,0.207
2.06,-0.127,0.903,0.044
2.07,-0.353,0.935,-0.224
2.08,-0.179,1.018,-0.082
2.09,-0.053,1.192,0.025
2.1,-0.1,0.571,0.125
2.11,-0.312,1.157,0.028
2.12,-0.31,0.817,-0.223
2.13,-0.175,1.077,-0.047
2.14,-0.104,0.94,0.188
2.15,-0.194,0.815,0.069
2.16,-0.391,1.004,-0.201
2.17,-0.15,0.938,0.0
2.18,-0.062,1.248,0.027
2.19,-0.093,0.526,0.12
2.2,-0.254,1.166,0.05
2.21,-0.4,0.906,-0.261
2.22,-0.13,0.983,-0.053
2.23,-0.156,1.018,0.193
2.24,-0.082,0.744,0.022
2.25,-0.418,1.103,-0.177
2.26,-0.183,0.896,-0.096
2.27,-0.116,1.301,0.027
2.28,-0.048,0.558,0.106
2.29,-0.266,1.052,0.056
2.3,-0.326,1.001,-0.246
2.31,-0.13,0.908,-0.06
2.32,-0.144,1.078,0.168
2.33,-0.091,0.682,0.097
2.34,-0.392,1.17,-0.187
2.35,-0.238,0.843,-0.043
2.36,-0.104,1.287,0.014
2.37,-0.072,0.663,0.135
2.38,-0.242,0.947,0.03
2.39,-0.337,1.096,-0.226
2.4,-0.141,0.872,-0.031
2.41,-0.254,1.169,0.2
2.42,0.009,0.618,0.141
2.43,-0.451,1.174,-0.178
2.44,-0.226,0.833,-0.105
2.45,-0.16,1.282,0.087
2.46,-0.105,0.802,0.139
2.47,-0.228,0.806,0.043
2.48,-0.332,1.239,-0.2
2.49,-0.157,0.854,-0.062
2.5,-0.238,1.115,0.098
2.51,0.005,0.655,0.171
2.52,-0.486,1.116,-0.129
2.53,-0.345,0.878,-0.143
2.54,-0.034,1.12,0.054
2.55,-0.092,0.948,0.12
2.56,-0.233,0.696,0.053
2.57,-0.445,1.314,-0.146
2.58,-0.116,0.85,-0.065
2.59,-0.257,1.162,0.082
2.6,-0.057,0.693,0.168
2.61,-0.388,1.056,-0.127
2.62,-0.268,0.956,-0.241
2.63,-0.166,1.0,0.098
2.64,-0.061,1.067,0.129
2.65,-0.145,0.642,-0.009
2.66,-0.52,1.324,-0.116
2.67,-0.047,0.939,-0.11
2.68,-0.257,1.083,0.044
2.69,-0.094,0.713,0.185
2.7,-0.268,0.982,-0.089
2.71,-0.389,1.119,-0.19
2.72,-0.197,0.829,0.08
2.73,-0.131,1.202,0.152
2.74,0.001,0.623,0.006
2.75,-0.483,1.22,-0.175
2.76,-0.153,0.994,-0.004
2.77,-0.226,1.158,0.096
2.78,-0.148,0.652,0.185
2.79,-0.282,1.026,-0.042
2.8,-0.388,1.078,-0.229
2.81,-0.137,0.832,-0.002
2.82,-0.022,1.214,0.169
2.83,-0.113,0.599,0.015
2.84,-0.458,1.221,-0.207
2.85,-0.116,0.972,-0.052
2.86,-0.145,1.089,0.048
2.87,-0.141,0.778,0.15
2.88,-0.234,0.916,-0.021
2.89,-0.418,1.188,-0.195
2.9,-0.132,0.771,-0.029
2.91,-0.07,1.21,0.178
2.92,-0.038,0.63,0.038
2.93,-0.484,1.171,-0.188
2.94,-0.184,1.028,-0.055
2.95,-0.145,1.041,0.092
2.96,-0.16,0.831,0.148
2.97,-0.229,0.803,0.003
2.98,-0.401,1.305,-0.203
2.99,-0.099,0.754,-0.042
3.0,-0.211,1.169,0.21
3.01,-0.049,0.7,0.059
3.02,-0.415,1.07,-0.182
3.03,-0.215,1.037,-0.096
3.04,-0.036,1.027,0.047
3.05,-0.143,0.951,0.16
3.06,-0.192,0.713,0.013
3.07,-0.326,1.326,-0.205
3.08,-0.195,0.84,-0.025
3.09,-0.287,1.027,0.184
3.1,-0.056,0.796,0.17
3.11,-0.391,0.957,-0.166
3.12,-0.325,1.099,-0.117
3.13,0.016,1.018,0.026
3.14,-0.098,1.091,0.133
3.15,-0.222,0.659,0.03
3.16,-0.287,1.255,-0.244
3.17,-0.157,0.91,-0.084
3.18,-0.232,0.973,0.128
3.19,-0.034,0.906,0.144
3.2,-0.351,0.86,-0.144
3.21,-0.3,1.171,-0.188
3.22,-0.14,0.9,0.091
3.23,-0.064,1.124,0.138
3.24,-0.145,0.687,0.002
3.25,-0.439,1.18,-0.137
3.26,-0.177,1.055,-0.081
3.27,-0.164,0.881,0.023
3.28,-0.149,0.929,0.205
3.29,-0.249,0.828,-0.116
3.3,-0.38,1.245,-0.15
3.31,-0.12,0.869,0.025
3.32,-0.08,1.134,0.142
3.33,-0.062,0.726,0.0
3.34,-0.431,1.074,-0.171
3.35,-0.073,1.193,-0.076
3.36,-0.204,0.832,0.058
3.37,-0.14,0.948,0.161
3.38,-0.236,0.841,-0.04
3.39,-0.383,1.208,-0.224
3.4,-0.157,0.839,0.033
3.41,-0.164,1.056,0.189
3.42,-0.052,0.852,0.079
3.43,-0.413,0.945,-0.201
3.44,-0.203,1.253,-0.055
3.45,-0.028,0.917,0.04
3.46,-0.18,0.975,0.138
3.47,-0.17,0.77,-0.026
3.48,-0.362,1.224,-0.227
3.49,-0.144,0.89,-0.028
3.5,-0.199,0.956,0.171
3.51,-0.086,0.927,0.121
3.52,-0.406,0.833,-0.185
3.53,-0.325,1.249,-0.073
3.54,0.039,0.908,0.049
3.55,-0.147,1.003,0.133
3.56,-0.216,0.75,0.014
3.57,-0.32,1.279,-0.225
3.58,-0.146,0.845,-0.053
3.59,-0.233,0.996,0.233
3.6,-0.06,0.867,0.074
3.61,-0.369,0.876,-0.203
3.62,-0.281,1.224,-0.086
3.63,-0.037,0.891,0.068
3.64,-0.132,1.028,0.13
3.65,-0.191,0.735,-0.014
3.66,-0.388,1.182,-0.165
3.67,-0.135,1.017,-0.017
3.68,-0.261,0.87,0.129
3.69,-0.105,0.986,0.179
3.7,-0.246,0.813,-0.179
3.71,-0.365,1.231,-0.135
3.72,-0.089,0.882,0.102
3.73,-0.075,1.059,0.145
3.74,-0.16,0.77,0.007
3.75,-0.332,1.101,-0.185
3.76,-0.145,1.127,-0.053
3.77,-0.197,0.785,0.103
3.78,-0.205,1.071,0.204
3.79,-0.241,0.744,-0.123
3.8,-0.398,1.194,-0.179
3.81,-0.187,0.927,0.076
3.82,-0.082,1.057,0.132
3.83,-0.126,0.804,0.027
3.84,-0.43,0.964,-0.11
3.85,-0.151,1.307,-0.05
3.86,-0.049,0.747,0.062
3.87,-0.224,1.048,0.181
3.88,-0.215,0.787,-0.065
3.89,-0.361,1.181,-0.18
3.9,-0.177,0.946,-0.001
3.91,-0.137,0.968,0.164
3.92,-0.08,0.94,0.081
3.93,-0.338,0.867,-0.199
3.94,-0.278,1.281,-0.022
3.95,-0.057,0.831,0.08
3.96,-0.151,1.016,0.153
3.97,-0.272,0.802,-0.018
3.98,-0.283,1.106,-0.208
3.99,-0.129,1.035,-0.059
4.0,-0.184,0.826,0.153
4.01,-0.106,1.058,0.119
4.02,-0.258,0.765,-0.192
4.03,-0.377,1.242,-0.053
4.04,0.018,0.938,0.045
4.05,-0.095,0.965,0.173
4.06,-0.254,0.853,-0.004
4.07,-0.362,1.039,-0.143
4.08,-0.141,1.152,-0.064
4.09,-0.158,0.74,0.102
4.1,-0.138,1.101,0.199
4.11,-0.293,0.782,-0.187
4.12,-0.332,1.125,-0.138
4.13,-0.076,1.002,0.058
4.14,-0.084,0.925,0.16
4.15,-0.167,0.908,0.013
4.16,-0.413,0.943,-0.135
4.17,-0.136,1.261,-0.08
4.18,-0.119,0.764,0.058
4.19,-0.197,1.057,0.245
4.2,-0.22,0.815,-0.139
4.21,-0.348,1.061,-0.16
4.22,-0.247,0.983,0.05
4.23,-0.039,0.935,0.182
4.24,-0.169,1.0,0.058
4.25,-0.401,0.838,-0.159
4.26,-0.254,1.3,-0.033
4.27,-0.06,0.826,0.05
4.28,-0.182,0.943,0.182
4.29,-0.22,0.904,-0.014
4.3,-0.36,1.042,-0.194
4.31,-0.203,1.031,-0.08
4.32,-0.175,0.847,0.211
4.33,-0.102,1.043,0.081
4.34,-0.301,0.76,-0.196
4.35,-0.314,1.24,-0.044
4.36,0.018,0.92,0.025
4.37,-0.18,0.863,0.2
4.38,-0.236,0.843,0.031
4.39,-0.39,1.134,-0.206
4.4,-0.113,1.03,-0.063
4.41,-0.209,0.893,0.16
4.42,-0.091,0.995,0.114
4.43,-0.292,0.795,-0.203
4.44,-0.234,1.241,-0.131
4.45,-0.058,0.954,0.062
4.46,-0.16,0.93,0.169
4.47,-0.199,0.875,0.015
4.48,-0.317,1.054,-0.184
4.49,-0.224,1.118,-0.066
4.5,-0.139,0.76,0.083
4.51,-0.151,1.073,0.193
4.52,-0.248,0.832,-0.131
4.53,-0.361,1.099,-0.15
4.54,-0.18,0.945,0.047
4.55,-0.038,0.987,0.14
4.56,-0.136,0.901,0.028
4.57,-0.401,0.943,-0.156
4.58,-0.221,1.31,-0.035
4.59,-0.132,0.778,0.054
4.6,-0.178,0.969,0.185
4.61,-0.279,0.891,-0.061
4.62,-0.323,1.147,-0.207
4.63,-0.096,0.943,-0.043
4.64,-0.136,0.9,0.186
4.65,-0.173,0.987,0.105
4.66,-0.27,0.857,-0.195
4.67,-0.349,1.31,-0.035
4.68,-0.114,0.843,0.019
4.69,-0.135,0.94,0.143
4.7,-0.298,0.893,0.017
4.71,-0.275,1.007,-0.263
4.72,-0.171,1.089,0.001
4.73,-0.196,0.831,0.126
4.74,-0.066,0.997,0.111
4.75,-0.335,0.807,-0.141
4.76,-0.289,1.193,-0.108
4.77,-0.083,0.959,0.047
4.78,-0.089,0.879,0.172
4.79,-0.223,0.913,0.046
4.8,-0.364,0.954,-0.17
4.81,-0.129,1.22,-0.099
4.82,-0.09,0.8,0.059
4.83,-0.121,1.039,0.169
4.84,-0.249,0.825,-0.108
4.85,-0.296,1.061,-0.159
4.86,-0.232,0.995,0.033
4.87,-0.083,0.955,0.181
4.88,-0.161,0.971,0.067
4.89,-0.376,0.85,-0.173
4.9,-0.301,1.314,-0.015
4.91,-0.096,0.821,0.065
4.92,-0.139,0.987,0.18
4.93,-0.275,0.885,-0.003
4.94,-0.314,1.064,-0.214
4.95,-0.147,0.991,-0.069
4.96,-0.135,0.84,0.172
4.97,-0.12,1.073,0.135
4.98,-0.261,0.798,-0.186
4.99,-0.375,1.227,-0.05
5.0,-0.084,0.923,0.03
5.01,-0.038,0.929,0.155
5.02,-0.264,0.884,0.017
5.03,-0.326,1.002,-0.146
5.04,-0.16,1.195,-0.08
5.05,-0.152,0.746,0.093
5.06,-0.164,1.044,0.243
5.07,-0.25,0.83,-0.153
5.08,-0.319,1.117,-0.163
5.09,-0.26,0.953,0.089
5.1,-0.086,0.905,0.174
5.11,-0.132,0.933,0.058
5.12,-0.45,0.927,-0.148
5.13,-0.159,1.274,-0.034
5.14,-0.105,0.793,0.037
5.15,-0.185,0.984,0.17
5.16,-0.198,0.858,-0.062
5.17,-0.307,1.086,-0.201
5.18,-0.198,0.88,0.018
5.19,-0.07,1.04,0.182
5.2,-0.081,0.893,0.07
5.21,-0.414,0.937,-0.19
5.22,-0.219,1.244,-0.028
5.23,-0.126,0.872,0.048
5.24,-0.097,0.976,0.124
5.25,-0.234,0.809,-0.008
5.26,-0.355,1.187,-0.213
5.27,-0.096,0.926,-0.083
5.28,-0.176,0.939,0.158
5.29,-0.07,1.002,0.135
5.3,-0.393,0.832,-0.178
5.31,-0.296,1.171,-0.12
5.32,-0.079,0.926,0.059
5.33,-0.148,1.027,0.133
5.34,-0.126,0.762,0.016
5.35,-0.37,1.119,-0.136
5.36,-0.188,1.109,-0.088
5.37,-0.137,0.804,0.06
5.38,-0.1,1.06,0.224
5.39,-0.257,0.775,-0.148
5.4,-0.391,1.16,-0.151
5.41,-0.142,0.881,0.031
5.42,-0.117,1.065,0.18
5.43,-0.086,0.843,0.079
5.44,-0.434,0.974,-0.148
5.45,-0.244,1.223,-0.063
5.46,-0.059,0.923,0.045
5.47,-0.107,1.003,0.123
5.48,-0.23,0.755,-0.022
5.49,-0.364,1.249,-0.158
5.5,-0.135,0.936,-0.068
5.51,-0.198,0.9,0.145
5.52,-0.116,0.955,0.162
5.53,-0.328,0.855,-0.178
5.54,-0.324,1.176,-0.118
5.55,-0.118,0.917,0.102
5.56,-0.132,1.099,0.151
5.57,-0.141,0.701,0.015
5.58,-0.447,1.136,-0.138
5.59,-0.081,1.117,-0.094
5.6,-0.157,0.855,0.049
5.61,-0.147,1.006,0.193
5.62,-0.217,0.821,-0.096
5.63,-0.379,1.22,-0.181
5.64,-0.22,0.834,0.077
5.65,-0.039,1.144,0.146
5.66,-0.197,0.806,0.083
5.67,-0.377,0.956,-0.19
5.68,-0.204,1.206,-0.06
5.69,-0.043,0.867,0.033
5.7,-0.188,1.047,0.171
5.71,-0.2,0.736,0.012
5.72,-0.408,1.23,-0.212
5.73,-0.118,0.855,-0.032
5.74,-0.177,1.038,0.169
5.75,-0.084,0.902,0.107
5.76,-0.333,0.865,-0.169
5.77,-0.306,1.2,-0.132
5.78,-0.075,0.942,0.046
5.79,-0.084,1.078,0.148
5.8,-0.15,0.691,0.004
5.81,-0.434,1.176,-0.101
5.82,-0.122,1.065,-0.073
5.83,-0.211,0.901,0.048
5.84,-0.072,0.911,0.187
5.85,-0.294,0.845,-0.142
5.86,-0.4,1.181,-0.126
5.87,-0.141,0.852,0.047
5.88,-0.051,1.158,0.17
5.89,-0.15,0.736,0.059
5.9,-0.417,1.023,-0.151
5.91,-0.129,1.212,-0.055
5.92,-0.176,0.891,0.053
5.93,-0.108,0.974,0.166
5.94,-0.231,0.771,-0.037
5.95,-0.421,1.242,-0.205
5.96,-0.112,0.818,-0.038
5.97,-0.176,1.088,0.147
5.98,-0.029,0.689,0.069
5.99,-0.413,1.064,-0.169
6.0,-0.194,1.118,-0.053
6.01,-0.056,1.027,-0.005
6.02,-0.167,0.934,0.163
6.03,-0.267,0.729,0.021
6.04,-0.372,1.357,-0.154
6.05,-0.127,0.85,-0.057
6.06,-0.242,1.035,0.122
6.07,-0.097,0.793,0.164
6.08,-0.369,0.964,-0.128
6.09,-0.328,1.09,-0.121
6.1,-0.187,0.88,0.052
6.11,-0.08,1.176,0.147
6.12,-0.118,0.637,-0.023
6.13,-0.458,1.191,-0.17
6.14,-0.092,1.058,-0.023
6.15,-0.136,1.04,0.047
6.16,-0.143,0.776,0.162
6.17,-0.295,0.914,-0.017
6.18,-0.305,1.242,-0.2
6.19,-0.152,0.721,-0.017
6.2,-0.171,1.157,0.213
6.21,-0.031,0.739,0.03
6.22,-0.441,1.07,-0.162
6.23,-0.286,1.013,-0.039
6.24,0.016,1.057,0.03
6.25,-0.152,0.936,0.109
6.26,-0.247,0.784,0.002
6.27,-0.412,1.26,-0.158
6.28,-0.105,0.793,-0.059
6.29,-0.185,1.101,0.191
6.3,-0.052,0.789,0.111
6.31,-0.371,1.013,-0.145
6.32,-0.272,1.101,-0.083
6.33,-0.085,0.95,0.055
6.34,-0.096,1.019,0.165
6.35,-0.204,0.723,0.026
6.36,-0.409,1.226,-0.172
6.37,-0.197,0.895,-0.066
6.38,-0.132,1.045,0.114
6.39,-0.086,0.836,0.132
6.4,-0.35,0.884,-0.096
6.41,-0.283,1.122,-0.151
6.42,-0.169,0.856,0.004
6.43,-0.112,1.149,0.19
6.44,-0.103,0.67,0.042
6.45,-0.412,1.139,-0.182
6.46,-0.133,1.085,-0.042
6.47,-0.237,1.008,0.057
6.48,-0.027,0.844,0.172
6.49,-0.253,0.803,-0.027
6.5,-0.424,1.288,-0.185
6.51,-0.137,0.816,-0.035
6.52,-0.146,1.125,0.155
6.53,-0.154,0.733,0.127
6.54,-0.407,1.046,-0.15
6.55,-0.212,1.05,-0.132
6.56,-0.156,0.991,0.064
6.57,-0.116,1.014,0.178
6.58,-0.154,0.677,-0.005
6.59,-0.455,1.266,-0.145
6.6,-0.104,0.887,-0.079
6.61,-0.159,1.075,0.09
6.62,-0.154,0.815,0.182
6.63,-0.307,0.931,-0.116
6.64,-0.322,1.171,-0.14
6.65,-0.152,0.854,0.035
6.66,-0.091,1.14,0.161
6.67,-0.1,0.667,0.035
6.68,-0.448,1.215,-0.184
6.69,-0.121,1.007,-0.091
6.7,-0.154,1.004,0.051
6.71,-0.069,0.867,0.155
6.72,-0.285,0.838,-0.033
6.73,-0.389,1.24,-0.18
6.74,-0.095,0.772,-0.024
6.75,-0.167,1.224,0.194
6.76,-0.098,0.679,0.105
6.77,-0.384,1.092,-0.197
6.78,-0.152,0.981,-0.102
6.79,-0.16,1.076,0.051
6.8,-0.069,0.803,0.116
6.81,-0.285,0.836,-0.005
6.82,-0.334,1.215,-0.209
6.83,-0.144,0.813,-0.021
6.84,-0.169,1.168,0.17
6.85,-0.096,0.661,0.118
6.86,-0.365,1.113,-0.152
6.87,-0.236,0.981,-0.137
6.88,-0.143,1.057,0.061
6.89,-0.12,0.977,0.156
6.9,-0.177,0.692,0.02
6.91,-0.5,1.269,-0.165
6.92,-0.062,0.865,-0.09
6.93,-0.217,1.103,0.103
6.94,-0.103,0.694,0.181
6.95,-0.333,1.059,-0.072
6.96,-0.33,1.033,-0.182
6.97,-0.144,0.907,0.023
6.98,-0.068,1.174,0.141
6.99,-0.062,0.661,0.002
7.0,-0.471,1.245,-0.169
7.01,-0.168,0.925,-0.048
7.02,-0.144,1.087,0.063
7.03,-0.088,0.751,0.164
7.04,-0.301,0.917,-0.016
7.05,-0.369,1.207,-0.176
7.06,-0.139,0.771,-0.013
7.07,-0.165,1.183,0.171
7.08,-0.079,0.655,0.081
7.09,-0.428,1.14,-0.177
7.1,-0.182,0.951,-0.115
7.11,-0.145,1.081,0.121
7.12,-0.103,0.91,0.131
7.13,-0.179,0.778,-0.017
7.14,-0.439,1.288,-0.13
7.15,-0.124,0.833,-0.044
7.16,-0.26,1.095,0.136
7.17,-0.065,0.698,0.177
7.18,-0.391,1.057,-0.172
7.19,-0.317,1.002,-0.143
7.2,-0.176,0.997,0.106
7.21,-0.018,1.042,0.102
7.22,-0.218,0.636,0.016
7.23,-0.45,1.311,-0.15
7.24,-0.076,0.932,-0.108
7.25,-0.267,1.056,0.091
7.26,-0.051,0.76,0.17
7.27,-0.281,0.936,-0.114
7.28,-0.381,1.088,-0.158
7.29,-0.138,0.899,0.047
7.3,-0.125,1.148,0.137
7.31,-0.119,0.64,0.034
7.32,-0.46,1.245,-0.138
7.33,-0.097,0.997,-0.1
7.34,-0.166,1.031,0.071
7.35,-0.117,0.84,0.2
7.36,-0.288,0.86,-0.025
7.37,-0.361,1.24,-0.236
7.38,-0.135,0.769,-0.034
7.39,-0.137,1.182,0.177
7.4,-0.104,0.686,0.062
7.41,-0.371,1.106,-0.158
7.42,-0.238,1.076,-0.051
7.43,-0.141,1.005,0.05
7.44,-0.132,0.886,0.14
7.45,-0.18,0.774,0.041
7.46,-0.395,1.293,-0.28
7.47,-0.073,0.773,-0.058
7.48,-0.22,1.189,0.193
7.49,-0.083,0.729,0.151
7.5,-0.411,0.947,-0.121
7.51,-0.245,1.112,-0.105
7.52,-0.076,1.015,0.036
7.53,-0.184,1.058,0.128
7.54,-0.035,0.673,-0.001
7.55,-0.469,1.311,-0.157
7.56,-0.148,0.915,-0.049
7.57,-0.178,1.033,0.06
7.58,-0.071,0.725,0.165
7.59,-0.426,0.994,-0.113
7.6,-0.244,0.974,-0.148
7.61,-0.184,1.039,0.058
7.62,-0.087,1.072,0.129
7.63,-0.157,0.676,0.056
7.64,-0.536,1.245,-0.171
7.65,-0.131,0.914,-0.062
7.66,-0.121,1.142,0.078
7.67,-0.093,0.706,0.152
7.68,-0.317,0.984,-0.047
7.69,-0.308,1.18,-0.19
7.7,-0.187,0.806,-0.014
7.71,-0.184,1.133,0.183
7.72,-0.013,0.692,0.099
7.73,-0.499,1.173,-0.144
7.74,-0.191,0.898,-0.081
7.75,-0.136,1.152,0.077
7.76,-0.083,0.838,0.15
7.77,-0.198,0.778,-0.002
7.78,-0.405,1.304,-0.183
7.79,-0.041,0.828,-0.047
7.8,-0.24,1.159,0.121
7.81,-0.038,0.651,0.123
7.82,-0.401,1.076,-0.152
7.83,-0.232,0.958,-0.139
7.84,-0.23,1.072,0.139
7.85,-0.062,1.01,0.14
7.86,-0.181,0.674,-0.012
7.87,-0.444,1.293,-0.101
7.88,-0.125,0.882,-0.058
7.89,-0.177,1.121,0.08
7.9,-0.127,0.744,0.184
7.91,-0.326,0.964,-0.094
7.92,-0.329,1.059,-0.127
7.93,-0.214,0.919,0.091
7.94,-0.096,1.145,0.161
7.95,-0.094,0.642,0.012
7.96,-0.472,1.26,-0.124
7.97,-0.104,0.969,-0.113
7.98,-0.173,1.033,0.054
7.99,-0.075,0.792,0.153
8.0,-0.289,0.889,-0.018
8.01,-0.39,1.192,-0.173
8.02,-0.143,0.774,-0.038
8.03,-0.15,1.224,0.17
8.04,-0.062,0.646,0.067
8.05,-0.388,1.127,-0.158
8.06,-0.228,1.01,-0.044
8.07,-0.08,1.044,-0.006
8.08,-0.099,0.887,0.143
8.09,-0.254,0.768,0.041
8.1,-0.402,1.276,-0.2
8.11,-0.129,0.803,-0.066
8.12,-0.233,1.147,0.138
8.13,-0.058,0.698,0.162
8.14,-0.409,0.976,-0.131
8.15,-0.232,1.033,-0.117
8.16,-0.135,1.003,0.092
8.17,-0.161,1.021,0.136
8.18,-0.072,0.661,-0.001
8.19,-0.465,1.288,-0.184
8.2,-0.098,0.881,-0.079
8.21,-0.184,1.067,0.079
8.22,-0.119,0.78,0.191
8.23,-0.369,0.937,-0.052
8.24,-0.36,1.16,-0.209
8.25,-0.126,0.825,0.011
8.26,-0.138,1.242,0.133
8.27,-0.096,0.65,0.058
8.28,-0.393,1.143,-0.176
8.29,-0.164,1.01,-0.096
8.3,-0.153,1.068,0.098
8.31,-0.095,0.868,0.161
8.32,-0.226,0.791,-0.018
8.33,-0.457,1.268,-0.152
8.34,-0.088,0.814,-0.051
8.35,-0.183,1.148,0.117
8.36,-0.156,0.712,0.138
8.37,-0.302,1.033,-0.152
8.38,-0.222,0.87,-0.114
8.39,-0.164,1.011,0.056
8.4,-0.347,0.8,-0.174
8.41,-0.255,1.196,0.011
8.42,-0.058,0.925,0.046
8.43,-0.138,0.796,0.116
8.44,-0.286,1.05,-0.014
8.45,-0.266,0.86,-0.197
8.46,-0.221,1.126,0.003
8.47,-0.1,0.8,0.265
8.48,-0.112,1.047,0.06
8.49,-0.397,0.84,-0.188
8.5,-0.27,1.102,-0.059
8.51,-0.001,1.084,0.02
8.52,-0.076,0.696,0.149
8.53,-0.302,1.105,0.027
8.54,-0.219,0.85,-0.214
8.55,-0.216,1.184,-0.034
8.56,-0.168,0.764,0.171
8.57,-0.116,0.959,0.155
8.58,-0.312,0.978,-0.162
8.59,-0.287,0.922,-0.116
8.6,-0.155,1.173,0.08
8.61,-0.076,0.785,0.144
8.62,-0.229,1.071,0.045
8.63,-0.375,0.851,-0.176
8.64,-0.198,1.244,-0.039
8.65,-0.21,0.833,0.134
8.66,-0.114,0.835,0.176
8.67,-0.379,1.058,-0.07
8.68,-0.322,0.825,-0.167
8.69,-0.208,1.138,-0.016
8.7,-0.05,0.806,0.175
8.71,-0.187,1.021,0.046
8.72,-0.329,0.831,-0.215
8.73,-0.179,1.156,-0.033
8.74,-0.154,0.958,0.084
8.75,-0.084,0.738,0.166
8.76,-0.295,1.123,-0.035
8.77,-0.293,0.781,-0.19
8.78,-0.19,1.172,0.008
8.79,-0.052,0.807,0.175
8.8,-0.159,0.963,0.084
8.81,-0.38,0.925,-0.195
8.82,-0.21,1.042,-0.056
8.83,-0.101,1.163,0.043
8.84,-0.053,0.628,0.12
8.85,-0.347,1.139,0.047
8.86,-0.294,0.808,-0.23
8.87,-0.21,1.146,-0.022
8.88,-0.145,0.851,0.181
8.89,-0.097,0.907,0.08
8.9,-0.333,0.976,-0.151
8.91,-0.28,0.846,-0.087
8.92,-0.022,1.247,0.045
8.93,-0.087,0.672,0.162
8.94,-0.304,1.086,0.059
8.95,-0.352,0.866,-0.152
8.96,-0.258,1.12,-0.032
8.97,-0.149,0.894,0.086
8.98,-0.09,0.857,0.202
8.99,-0.353,1.051,-0.147
9.0,-0.246,0.668,-0.176
9.01,-0.196,1.266,0.097
9.02,0.009,0.784,0.113
9.03,-0.219,1.018,0.064
9.04,-0.367,0.923,-0.135
9.05,-0.225,1.098,-0.092
9.06,-0.153,1.003,0.079
9.07,-0.136,0.735,0.209
9.08,-0.308,1.118,-0.048
9.09,-0.269,0.745,-0.219
9.1,-0.231,1.146,-0.03
9.11,0.016,0.779,0.132
9.12,-0.198,1.083,0.06
9.13,-0.329,0.834,-0.182
9.14,-0.145,1.141,-0.064
9.15,-0.231,0.986,0.044
9.16,-0.055,0.721,0.191
9.17,-0.342,1.145,0.038
9.18,-0.294,0.783,-0.263
9.19,-0.185,1.153,-0.039
9.2,-0.119,0.872,0.196
9.21,-0.131,0.951,0.117
9.22,-0.318,0.893,-0.191
9.23,-0.246,0.967,-0.074
9.24,-0.076,1.196,0.006
9.25,-0.082,0.699,0.148
9.26,-0.247,1.091,0.022
9.27,-0.371,0.832,-0.131
9.28,-0.15,1.165,-0.051
9.29,-0.197,0.884,0.074
9.3,-0.112,0.911,0.201
9.31,-0.325,0.996,-0.101
9.32,-0.23,0.809,-0.146
9.33,-0.256,1.209,0.086
9.34,-0.029,0.749,0.144
9.35,-0.197,1.067,0.06
9.36,-0.399,0.828,-0.176
9.37,-0.187,1.14,-0.02
9.38,-0.136,1.005,0.089
9.39,-0.077,0.764,0.139
9.4,-0.311,1.094,-0.026
9.41,-0.33,0.837,-0.199
9.42,-0.19,1.169,-0.034
9.43,-0.132,0.795,0.169
9.44,-0.107,1.013,0.08
9.45,-0.327,0.899,-0.176
9.46,-0.24,1.001,-0.096
9.47,-0.115,1.142,0.043
9.48,-0.067,0.744,0.146
9.49,-0.26,1.073,-0.015
9.5,-0.345,0.82,-0.153
9.51,-0.168,1.213,-0.044
9.52,-0.18,0.809,0.082
9.53,-0.115,0.886,0.201
9.54,-0.279,1.035,-0.121
9.55,-0.311,0.849,-0.126
9.56,-0.283,1.158,0.037
9.57,0.024,0.786,0.148
9.58,-0.23,1.084,0.037
9.59,-0.4,0.837,-0.155
9.6,-0.161,1.181,-0.075
9.61,-0.154,0.888,0.071
9.62,-0.093,0.821,0.205
9.63,-0.307,1.077,-0.051
9.64,-0.263,0.791,-0.199
9.65,-0.197,1.187,-0.039
9.66,-0.092,0.77,0.188
9.67,-0.149,1.06,0.12
9.68,-0.304,0.885,-0.213
9.69,-0.298,1.05,-0.072
9.7,-0.161,1.07,0.002
9.71,-0.004,0.712,0.14
9.72,-0.337,1.131,0.058
9.73,-0.319,0.836,-0.191
9.74,-0.278,1.204,-0.054
9.75,-0.086,0.816,0.086
9.76,-0.125,0.958,0.188
9.77,-0.283,0.967,-0.147
9.78,-0.194,0.868,-0.147
9.79,-0.203,1.197,0.039
9.8,-0.08,0.801,0.163
9.81,-0.192,1.058,0.054
9.82,-0.401,0.843,-0.164
9.83,-0.228,1.239,-0.012
9.84,-0.14,0.884,0.054
9.85,-0.089,0.787,0.186
9.86,-0.324,1.076,-0.038
9.87,-0.257,0.878,-0.214
9.88,-0.218,1.105,-0.028
9.89,-0.116,0.792,0.184
9.9,-0.133,1.053,0.107
9.91,-0.31,0.816,-0.175
9.92,-0.342,1.247,-0.002
9.93,-0.111,0.901,0.057
9.94,-0.078,0.883,0.139
9.95,-0.273,0.955,0.037
9.96,-0.258,0.944,-0.205
9.97,-0.2,1.121,-0.028
9.98,-0.135,0.769,0.118
9.99,-0.14,1.093,0.129
10.0,-0.302,0.792,-0.174
10.01,-0.278,1.115,-0.15
10.02,-0.091,0.998,0.043
10.03,-0.049,0.845,0.158
10.04,-0.194,0.993,0.049
10.05,-0.362,0.886,-0.123
10.06,-0.161,1.245,-0.102
10.07,-0.066,0.791,0.051
10.08,-0.136,1.043,0.206
10.09,-0.263,0.844,-0.108
10.1,-0.394,1.01,-0.141
10.11,-0.168,1.056,0.005
10.12,-0.143,0.885,0.157
10.13,-0.134,0.994,0.074
10.14,-0.321,0.827,-0.151
10.15,-0.207,1.287,-0.066
10.16,-0.07,0.897,-0.014
10.17,-0.105,0.897,0.158
10.18,-0.203,0.934,0.003
10.19,-0.292,0.962,-0.169
10.2,-0.273,1.071,-0.058
10.21,-0.146,0.779,0.119
10.22,-0.127,1.062,0.164
10.23,-0.263,0.825,-0.162
10.24,-0.275,1.097,-0.127
10.25,-0.156,0.973,0.089
10.26,-0.068,0.96,0.157
10.27,-0.167,0.938,0.057
10.28,-0.397,0.874,-0.139
10.29,-0.271,1.272,-0.044
10.3,-0.115,0.81,0.049
10.31,-0.144,0.996,0.16
10.32,-0.284,0.865,-0.016
10.33,-0.311,1.102,-0.188
10.34,-0.142,0.933,-0.028
10.35,-0.144,0.92,0.169
10.36,-0.119,1.036,0.123
10.37,-0.295,0.808,-0.204
10.38,-0.251,1.212,-0.108
10.39,-0.142,0.958,0.086
10.4,-0.069,1.002,0.12
10.41,-0.246,0.821,0.024
10.42,-0.336,1.023,-0.126
10.43,-0.151,1.14,-0.062
10.44,-0.206,0.777,0.118
10.45,-0.127,1.032,0.134
10.46,-0.302,0.846,-0.081
10.47,-0.389,1.17,-0.179
10.48,-0.186,0.895,0.026
10.49,-0.081,1.061,0.187
10.5,-0.119,0.88,0.042
10.51,-0.414,0.879,-0.165
10.52,-0.239,1.246,0.022
10.53,-0.101,0.863,0.059
10.54,-0.147,1.01,0.124
10.55,-0.232,0.837,-0.012
10.56,-0.378,1.134,-0.21
10.57,-0.149,0.897,-0.079
10.58,-0.171,0.927,0.222
10.59,-0.083,0.968,0.098
10.6,-0.394,0.858,-0.12
10.61,-0.317,1.244,-0.06
10.62,-0.063,0.91,0.022
10.63,-0.117,0.998,0.182
10.64,-0.173,0.792,-0.016
10.65,-0.375,1.082,-0.152
10.66,-0.131,1.091,-0.09
10.67,-0.163,0.84,0.124
10.68,-0.167,0.995,0.163
10.69,-0.297,0.802,-0.081
10.7,-0.302,1.219,-0.15
10.71,-0.166,0.819,0.011
10.72,-0.052,1.085,0.197
10.73,-0.131,0.741,0.016
10.74,-0.422,1.109,-0.204
10.75,-0.151,1.093,-0.042
10.76,-0.18,0.921,0.102
10.77,-0.119,0.914,0.131
10.78,-0.302,0.826,-0.044
10.79,-0.351,1.248,-0.2
10.8,-0.112,0.797,-0.041
10.81,-0.195,1.104,0.194
10.82,-0.06,0.828,0.103
10.83,-0.386,0.969,-0.174
10.84,-0.32,1.134,-0.052
10.85,-0.022,0.947,0.02
10.86,-0.046,1.02,0.15
10.87,-0.264,0.741,0.01
10.88,-0.354,1.27,-0.2
10.89,-0.145,0.878,-0.072
10.9,-0.255,0.963,0.131
10.91,-0.045,0.9,0.155
10.92,-0.368,0.896,-0.136
10.93,-0.36,1.123,-0.122
10.94,-0.093,0.846,0.024
10.95,-0.066,1.084,0.152
10.96,-0.122,0.698,0.033
10.97,-0.443,1.182,-0.149
10.98,-0.165,1.04,-0.096
10.99,-0.167,0.933,0.056
11.0,-0.1,0.915,0.164
11.01,-0.252,0.822,-0.066
11.02,-0.374,1.237,-0.202
11.03,-0.106,0.803,-0.018
11.04,-0.178,1.131,0.199
11.05,-0.073,0.769,0.084
11.06,-0.409,1.031,-0.132
11.07,-0.254,1.094,-0.061
11.08,-0.109,0.934,-0.004
11.09,-0.079,0.967,0.148
11.1,-0.202,0.727,0.046
11.11,-0.381,1.312,-0.205
11.12,-0.207,0.869,-0.026
11.13,-0.171,0.977,0.102
11.14,-0.112,0.846,0.208
11.15,-0.369,0.915,-0.153
11.16,-0.32,1.116,-0.109
11.17,-0.195,0.865,0.063
11.18,-0.074,1.148,0.144
11.19,-0.125,0.652,0.025
11.2,-0.426,1.182,-0.129
11.21,-0.064,1.091,-0.086
11.22,-0.249,0.981,0.067
11.23,-0.076,0.802,0.16
11.24,-0.254,0.871,-0.037
11.25,-0.436,1.299,-0.18
11.26,-0.112,0.723,-0.061
11.27,-0.134,1.15,0.192
11.28,-0.088,0.737,0.061
11.29,-0.398,1.021,-0.202
11.3,-0.175,1.079,-0.097
11.31,-0.078,1.048,0.026
11.32,-0.104,0.939,0.154
11.33,-0.154,0.712,0.017
11.34,-0.445,1.357,-0.137
11.35,-0.098,0.851,-0.111
11.36,-0.215,1.044,0.118
11.37,-0.083,0.817,0.181
11.38,-0.336,0.915,-0.126
11.39,-0.339,1.119,-0.164
11.4,-0.172,0.897,0.044
11.41,-0.13,1.157,0.155
11.42,-0.088,0.635,0.038
11.43,-0.416,1.187,-0.174
11.44,-0.163,1.01,-0.056
11.45,-0.141,1.04,0.055
11.46,-0.105,0.823,0.133
11.47,-0.301,0.844,0.027
11.48,-0.362,1.243,-0.197
11.49,-0.107,0.778,-0.046
11.5,-0.184,1.174,0.178
11.51,-0.046,0.646,0.078
11.52,-0.428,1.177,-0.156
11.53,-0.255,0.894,-0.038
11.54,-0.089,1.159,0.041
11.55,-0.038,0.859,0.093
11.56,-0.324,0.816,0.041
11.57,-0.393,1.219,-0.143
11.58,-0.105,0.876,-0.054
11.59,-0.233,1.105,0.101
11.6,-0.054,0.662,0.169
11.61,-0.418,1.14,-0.082
11.62,-0.316,0.922,-0.156
11.63,-0.217,1.019,0.092
11.64,-0.014,1.057,0.168
11.65,-0.151,0.686,0.006
11.66,-0.517,1.244,-0.157
11.67,-0.07,0.902,-0.086
11.68,-0.16,1.157,0.078
11.69,-0.114,0.704,0.162
11.7,-0.336,1.03,-0.028
11.71,-0.343,1.004,-0.195
11.72,-0.156,0.856,-0.032
11.73,-0.139,1.163,0.17
11.74,-0.019,0.635,0.033
11.75,-0.452,1.194,-0.171
11.76,-0.226,0.874,-0.017
11.77,-0.112,1.21,0.029
11.78,-0.081,0.781,0.143
11.79,-0.296,0.861,0.058
11.8,-0.37,1.159,-0.215
11.81,-0.152,0.774,-0.036
11.82,-0.201,1.225,0.146
11.83,-0.061,0.687,0.121
11.84,-0.415,1.126,-0.12
11.85,-0.216,0.898,-0.086
11.86,-0.171,1.108,0.045
11.87,-0.083,0.924,0.117
11.88,-0.142,0.735,0.035
11.89,-0.5,1.274,-0.153
11.9,-0.056,0.866,-0.086
11.91,-0.238,1.208,0.089
11.92,-0.032,0.625,0.163
11.93,-0.34,1.053,-0.021
11.94,-0.365,1.0,-0.175
11.95,-0.144,0.843,0.001
11.96,-0.13,1.176,0.206
11.97,-0.1,0.679,0.067
11.98,-0.424,1.177,-0.169
11.99,-0.172,0.843,-0.06
12.0,-0.153,1.307,0.07
12.01,-0.072,0.722,0.134
12.02,-0.239,0.864,0.034
12.03,-0.425,1.151,-0.132
12.04,-0.087,0.879,-0.104
12.05,-0.175,1.106,0.105
12.06,-0.111,0.633,0.163
12.07,-0.353,1.168,-0.152
12.08,-0.265,0.823,-0.16
12.09,-0.259,1.117,0.074
12.1,-0.042,0.991,0.132
12.11,-0.177,0.73,0.041
12.12,-0.475,1.208,-0.12
12.13,-0.1,0.922,-0.066
12.14,-0.147,1.198,0.089
12.15,-0.119,0.65,0.179
12.16,-0.315,1.016,-0.036
12.17,-0.316,0.99,-0.189
12.18,-0.103,0.924,-0.048
12.19,-0.16,1.1,0.215
12.2,-0.065,0.659,0.076
12.21,-0.49,1.201,-0.158
12.22,-0.196,0.806,-0.066
12.23,-0.081,1.258,-0.018
12.24,-0.044,0.705,0.162
12.25,-0.27,0.908,0.043
12.26,-0.397,1.123,-0.131
12.27,-0.141,0.843,-0.079
12.28,-0.188,1.14,0.073
12.29,-0.094,0.652,0.186
12.3,-0.435,1.186,-0.119
12.31,-0.203,0.755,-0.147
12.32,-0.223,1.339,0.119
12.33,-0.025,0.777,0.135
12.34,-0.206,0.898,0.01
12.35,-0.379,1.028,-0.184
12.36,-0.146,0.98,-0.058
12.37,-0.148,1.139,0.041
12.38,-0.09,0.611,0.148
12.39,-0.397,1.177,-0.027
12.4,-0.357,0.752,-0.176
12.41,-0.226,1.077,-0.024
12.42,-0.104,0.973,0.181
12.43,-0.135,0.808,0.058
12.44,-0.374,1.08,-0.211
12.45,-0.175,0.824,-0.066
12.46,-0.042,1.289,0.044
12.47,-0.072,0.606,0.152
12.48,-0.35,1.04,0.041
12.49,-0.313,0.915,-0.129
12.5,-0.199,1.039,-0.048
12.51,-0.267,0.977,0.125
12.52,-0.042,0.697,0.135
12.53,-0.41,1.191,-0.121
12.54,-0.222,0.748,-0.147
12.55,-0.261,1.309,0.112
12.56,-0.001,0.692,0.133
12.57,-0.182,0.942,0.036
12.58,-0.442,1.039,-0.098
12.59,-0.112,0.965,-0.097
12.6,-0.198,1.085,0.015
12.61,-0.084,0.627,0.154
12.62,-0.385,1.204,-0.033
12.63,-0.266,0.732,-0.19
12.64,-0.26,1.14,-0.001
12.65,-0.032,0.927,0.185
12.66,-0.137,0.86,0.056
12.67,-0.354,1.032,-0.174
12.68,-0.245,0.855,-0.046
12.69,-0.125,1.294,0.02
12.7,-0.051,0.617,0.143
12.71,-0.401,1.107,0.047
12.72,-0.321,0.838,-0.149
12.73,-0.273,1.067,-0.043
12.74,-0.162,0.978,0.11
12.75,-0.052,0.746,0.189
12.76,-0.354,1.154,-0.135
12.77,-0.167,0.722,-0.19
12.78,-0.268,1.346,0.087
12.79,-0.04,0.747,0.147
12.8,-0.194,1.007,0.044
12.81,-0.375,0.99,-0.133
12.82,-0.18,1.037,-0.069
12.83,-0.205,1.088,0.069
12.84,-0.072,0.629,0.185
12.85,-0.346,1.187,-0.007
12.86,-0.261,0.76,-0.217
12.87,-0.175,1.122,-0.052
12.88,-0.107,0.873,0.17
12.89,-0.138,0.912,0.077
12.9,-0.385,1.007,-0.136
12.91,-0.233,0.839,-0.119
12.92,-0.118,1.318,0.069
12.93,-0.059,0.67,0.147
12.94,-0.22,1.075,0.022
12.95,-0.354,0.87,-0.149
12.96,-0.17,1.108,-0.068
12.97,-0.155,0.93,0.075
12.98,-0.077,0.78,0.146
12.99,-0.42,1.161,-0.054
13.0,-0.322,0.715,-0.142
13.01,-0.29,1.196,0.03
13.02,-0.011,0.815,0.178
13.03,-0.186,1.007,0.043
13.04,-0.287,0.896,-0.187
13.05,-0.217,1.032,-0.073
13.06,-0.069,1.105,0.001
13.07,-0.034,0.66,0.167
13.08,-0.359,1.15,-0.005
13.09,-0.289,0.788,-0.132
13.1,-0.295,1.178,-0.016
13.11,-0.157,0.784,0.199
13.12,-0.119,1.082,0.097
13.13,-0.302,0.824,-0.187
13.14,-0.28,0.991,-0.124
13.15,-0.14,1.147,0.06
13.16,-0.006,0.742,0.131
13.17,-0.228,1.073,0.046
13.18,-0.371,0.817,-0.107
13.19,-0.225,1.263,-0.024
13.2,-0.135,0.788,0.094
13.21,-0.148,0.948,0.217
13.22,-0.303,0.976,-0.099
13.23,-0.326,0.882,-0.19
13.24,-0.164,1.09,0.001
13.25,-0.046,0.86,0.159
13.26,-0.166,1.08,0.078
13.27,-0.366,0.803,-0.162
13.28,-0.222,1.212,-0.096
13.29,-0.154,0.999,0.055
13.3,-0.041,0.821,0.126
13.31,-0.286,0.982,-0.019
13.32,-0.331,0.89,-0.153
13.33,-0.145,1.204,-0.032
13.34,-0.11,0.73,0.122
13.35,-0.171,1.024,0.138
13.36,-0.25,0.887,-0.155
13.37,-0.291,1.065,-0.129
13.38,-0.193,1.021,0.029
13.39,-0.077,0.874,0.165
13.4,-0.218,1.005,0.02
13.41,-0.316,0.838,-0.176
13.42,-0.231,1.296,-0.036
13.43,-0.08,0.79,0.073
13.44,-0.123,0.955,0.143
13.45,-0.259,0.941,-0.065
13.46,-0.312,0.995,-0.207
13.47,-0.177,1.01,-0.026
13.48,-0.084,0.841,0.186
13.49,-0.182,1.06,0.071
13.5,-0.353,0.751,-0.181
13.51,-0.301,1.235,-0.018
13.52,0.024,0.978,0.039
13.53,-0.079,0.863,0.106
13.54,-0.302,0.989,0.037
13.55,-0.266,0.923,-0.21
13.56,-0.228,1.126,-0.045
13.57,-0.108,0.772,0.117
13.58,-0.176,1.086,0.132
13.59,-0.285,0.821,-0.169
13.6,-0.313,1.067,-0.118
13.61,-0.108,1.025,0.074
13.62,0.008,0.839,0.18
13.63,-0.224,1.0,-0.012
13.64,-0.376,0.846,-0.122
13.65,-0.156,1.283,-0.059
13.66,-0.131,0.804,0.091
13.67,-0.183,0.971,0.188
13.68,-0.236,0.925,-0.106
13.69,-0.337,1.008,-0.14
13.7,-0.293,1.003,0.003
13.71,-0.036,0.88,0.193
13.72,-0.148,1.065,0.065
13.73,-0.358,0.799,-0.187
13.74,-0.256,1.273,-0.062
13.75,-0.131,0.899,0.043
13.76,-0.126,0.842,0.145
13.77,-0.25,0.973,0.023
13.78,-0.28,1.001,-0.162
13.79,-0.201,1.083,-0.059
13.8,-0.193,0.788,0.172
13.81,-0.056,1.081,0.12
13.82,-0.337,0.805,-0.173
13.83,-0.274,1.101,-0.108
13.84,-0.149,1.053,0.075
13.85,-0.077,0.846,0.134
13.86,-0.168,0.96,0.026
13.87,-0.375,0.937,-0.088
13.88,-0.176,1.265,-0.089
13.89,-0.135,0.742,0.058
13.9,-0.137,1.0,0.183
13.91,-0.267,0.805,-0.139
13.92,-0.336,1.145,-0.169
13.93,-0.224,0.897,0.053
13.94,-0.068,1.052,0.171
13.95,-0.152,0.858,0.057
13.96,-0.413,0.934,-0.149
13.97,-0.219,1.291,-0.045
13.98,-0.103,0.818,0.03
13.99,-0.111,1.018,0.148
14.0,-0.272,0.809,-0.034
14.01,-0.348,1.196,-0.205
14.02,-0.151,0.95,-0.035
14.03,-0.167,0.898,0.188
14.04,-0.121,0.978,0.119
14.05,-0.333,0.865,-0.163
14.06,-0.314,1.208,-0.11
14.07,-0.149,0.864,0.062
14.08,-0.077,1.025,0.161
14.09,-0.174,0.793,0.005
14.1,-0.463,1.083,-0.126
14.11,-0.108,1.113,-0.099
14.12,-0.158,0.847,0.097
14.13,-0.118,0.988,0.185
14.14,-0.296,0.815,-0.093
14.15,-0.402,1.215,-0.141
14.16,-0.125,0.86,0.004
14.17,-0.145,1.096,0.204
14.18,-0.108,0.847,0.057
14.19,-0.391,0.955,-0.174
14.2,-0.272,1.211,-0.053
14.21,-0.041,0.901,0.021
14.22,-0.122,1.022,0.154
14.23,-0.204,0.752,-0.049
14.24,-0.396,1.236,-0.135
14.25,-0.123,0.957,-0.071
14.26,-0.149,0.924,0.152
14.27,-0.12,0.951,0.119
14.28,-0.313,0.871,-0.181
14.29,-0.321,1.202,-0.099
14.3,-0.166,0.903,0.084
14.31,-0.1,1.037,0.1
14.32,-0.174,0.752,0.008
14.33,-0.405,1.111,-0.162
14.34,-0.081,1.108,-0.093
14.35,-0.217,0.856,0.106
14.36,-0.147,0.957,0.161
14.37,-0.229,0.868,-0.098
14.38,-0.349,1.258,-0.175
14.39,-0.252,0.839,0.085
14.4,-0.06,1.052,0.175
14.41,-0.146,0.828,0.039
14.42,-0.46,0.991,-0.133
14.43,-0.15,1.18,-0.086
14.44,-0.179,0.896,0.104
14.45,-0.175,0.998,0.154
14.46,-0.183,0.77,-0.02
14.47,-0.437,1.222,-0.179
14.48,-0.133,0.865,-0.043
14.49,-0.22,0.988,0.219
14.5,-0.097,0.892,0.1
14.51,-0.346,0.886,-0.15
14.52,-0.288,1.268,-0.06
14.53,-0.096,0.881,0.03
14.54,-0.145,1.017,0.124
14.55,-0.138,0.732,0.026
14.56,-0.409,1.206,-0.148
14.57,-0.165,1.04,-0.086
14.58,-0.134,0.844,0.094
14.59,-0.193,0.972,0.18
14.6,-0.321,0.799,-0.101
14.61,-0.393,1.235,-0.165
14.62,-0.093,0.822,0.007
14.63,-0.162,1.118,0.185
14.64,-0.099,0.759,0.049
14.65,-0.448,1.033,-0.154
14.66,-0.172,1.146,-0.033
14.67,-0.146,0.931,0.065
14.68,-0.109,0.927,0.16
14.69,-0.252,0.782,-0.018
14.7,-0.318,1.271,-0.231
14.71,-0.08,0.786,-0.042
14.72,-0.23,1.183,0.183
14.73,-0.066,0.696,0.068
14.74,-0.415,1.076,-0.183
14.75,-0.199,1.129,-0.084
14.76,-0.03,0.956,0.01
14.77,-0.089,0.961,0.151
14.78,-0.228,0.741,-0.005
14.79,-0.397,1.272,-0.219
14.8,-0.13,0.827,-0.002
14.81,-0.208,1.112,0.136
14.82,-0.117,0.798,0.125
14.83,-0.341,0.978,-0.156
14.84,-0.281,1.142,-0.127
14.85,-0.203,0.898,0.064
14.86,-0.053,1.074,0.134
14.87,-0.087,0.655,-0.006
14.88,-0.438,1.227,-0.177
14.89,-0.105,0.991,-0.062
14.9,-0.176,0.999,0.082
14.91,-0.088,0.84,0.175
14.92,-0.378,0.9,-0.063
14.93,-0.308,1.205,-0.177
14.94,-0.153,0.843,-0.003
14.95,-0.159,1.193,0.229
14.96,-0.094,0.686,0.04
14.97,-0.383,1.086,-0.168
14.98,-0.173,1.065,-0.087
14.99,-0.096,0.998,0.042
15.0,-0.094,0.929,0.103
15.01,-0.306,0.799,0.023
15.02,-0.423,1.286,-0.185
15.03,-0.152,0.797,-0.051
15.04,-0.175,1.129,0.166
15.05,-0.028,0.784,0.115
15.06,-0.404,0.974,-0.174
15.07,-0.236,1.051,-0.141
15.08,-0.086,0.965,0.086
15.09,-0.082,1.048,0.118
15.1,-0.175,0.673,-0.001
15.11,-0.474,1.287,-0.107
15.12,-0.129,0.94,-0.054
15.13,-0.21,1.013,0.063
15.14,-0.15,0.819,0.197
15.15,-0.304,0.909,-0.104
15.16,-0.311,1.177,-0.144
15.17,-0.192,0.83,0.016
15.18,-0.042,1.15,0.131
15.19,-0.096,0.67,0.041
15.2,-0.491,1.177,-0.153
15.21,-0.18,1.052,-0.04
15.22,-0.135,1.007,0.046
15.23,-0.164,0.913,0.203
15.24,-0.293,0.778,-0.049
15.25,-0.421,1.273,-0.146
15.26,-0.121,0.784,-0.027
15.27,-0.222,1.15,0.213
15.28,-0.041,0.733,0.118
15.29,-0.38,1.016,-0.189
15.3,-0.284,1.05,-0.07
15.31,-0.084,0.99,0.056
15.32,-0.11,1.072,0.17
15.33,-0.166,0.648,-0.013
15.34,-0.484,1.277,-0.123
15.35,-0.072,0.928,-0.105
15.36,-0.168,1.034,0.073
15.37,-0.119,0.823,0.199
15.38,-0.312,0.925,-0.131
15.39,-0.343,1.116,-0.158
15.4,-0.195,0.886,0.071
15.41,-0.064,1.176,0.135
15.42,-0.153,0.647,0.026
15.43,-0.454,1.176,-0.185
15.44,-0.155,1.009,-0.053
15.45,-0.167,1.031,0.053
15.46,-0.082,0.869,0.14
15.47,-0.264,0.804,-0.014
15.48,-0.425,1.211,-0.16
15.49,-0.105,0.778,-0.049
15.5,-0.126,1.157,0.146
15.51,-0.052,0.658,0.027
15.52,-0.471,1.219,-0.114
15.53,-0.203,0.925,-0.068
15.54,-0.136,1.163,0.018
15.55,-0.035,0.749,0.121
15.56,-0.262,0.855,0.038
15.57,-0.339,1.268,-0.169
15.58,-0.13,0.779,-0.063
15.59,-0.28,1.15,0.169
15.6,0.018,0.657,0.105
15.61,-0.477,1.152,-0.112
15.62,-0.217,0.879,-0.164
15.63,-0.177,1.084,0.076
15.64,-0.053,0.954,0.114
15.65,-0.172,0.693,0.041
15.66,-0.504,1.318,-0.104
15.67,-0.112,0.897,-0.078
15.68,-0.234,1.146,0.059
15.69,-0.063,0.66,0.179
15.7,-0.306,1.022,-0.054
15.71,-0.34,1.031,-0.147
15.72,-0.2,0.869,-0.044
15.73,-0.143,1.171,0.192
15.74,-0.007,0.645,0.052
15.75,-0.426,1.202,-0.204
15.76,-0.242,0.859,0.0
15.77,-0.167,1.216,0.013
15.78,-0.053,0.81,0.146
15.79,-0.29,0.852,0.028
15.8,-0.416,1.166,-0.144
15.81,-0.115,0.824,-0.097
15.82,-0.126,1.146,0.096
15.83,-0.061,0.643,0.19
15.84,-0.404,1.139,-0.15
15.85,-0.254,0.861,-0.185
15.86,-0.242,1.07,0.031
15.87,-0.048,1.045,0.192
15.88,-0.136,0.684,0.041
15.89,-0.49,1.218,-0.153
15.9,-0.083,0.912,-0.071
15.91,-0.208,1.234,0.06
15.92,-0.104,0.596,0.159
15.93,-0.332,1.054,0.002
15.94,-0.35,1.034,-0.195
15.95,-0.184,0.857,-0.064
15.96,-0.172,1.161,0.194
15.97,-0.024,0.65,0.043
15.98,-0.48,1.18,-0.125
15.99,-0.183,0.823,-0.111
16.0,-0.139,1.269,0.023
16.01,-0.11,0.709,0.159
16.02,-0.253,0.883,0.049
16.03,-0.347,1.15,-0.21
16.04,-0.113,0.835,-0.097
16.05,-0.15,1.204,0.098
16.06,-0.112,0.631,0.185
16.07,-0.32,1.115,-0.117
16.08,-0.273,0.823,-0.19
16.09,-0.277,1.086,0.054
16.1,-0.058,1.027,0.157
16.11,-0.133,0.731,0.085
16.12,-0.447,1.165,-0.151
16.13,-0.126,0.857,-0.048
16.14,-0.2,1.304,0.039
16.15,-0.037,0.616,0.139
16.16,-0.314,1.001,0.044
16.17,-0.35,1.011,-0.165
16.18,-0.157,0.967,-0.082
16.19,-0.209,1.06,0.13
16.2,-0.09,0.684,0.152
16.21,-0.382,1.171,-0.133
16.22,-0.238,0.731,-0.156
16.23,-0.182,1.245,0.047
16.24,-0.076,0.891,0.143
16.25,-0.186,0.866,0.056
16.26,-0.406,1.071,-0.174
16.27,-0.138,0.929,-0.048
16.28,-0.233,1.207,0.049
16.29,-0.046,0.603,0.144
16.3,-0.343,1.202,-0.052
16.31,-0.335,0.741,-0.182
16.32,-0.276,1.133,0.027
16.33,-0.028,0.882,0.163
16.34,-0.164,0.924,0.076
16.35,-0.296,1.01,-0.191
16.36,-0.213,0.905,-0.033
16.37,-0.164,1.206,0.006
16.38,-0.049,0.661,0.161
16.39,-0.288,1.142,0.041
16.4,-0.277,0.816,-0.188
16.41,-0.303,1.087,-0.044
16.42,-0.109,0.931,0.056
16.43,-0.091,0.894,0.17
16.44,-0.444,1.068,-0.103
16.45,-0.202,0.711,-0.104
16.46,-0.178,1.32,0.024
16.47,-0.062,0.736,0.156
16.48,-0.194,1.054,0.081
16.49,-0.358,0.889,-0.178
16.5,-0.221,1.058,-0.097
16.51,-0.142,1.057,0.047
16.52,-0.044,0.684,0.154
16.53,-0.353,1.167,0.029
16.54,-0.278,0.8,-0.218
16.55,-0.251,1.118,-0.048
16.56,-0.071,0.852,0.167
16.57,-0.084,0.994,0.116
16.58,-0.325,0.965,-0.17
16.59,-0.256,0.875,-0.118
16.6,-0.186,1.209,0.066
16.61,-0.017,0.767,0.144
16.62,-0.269,1.057,0.005
16.63,-0.363,0.804,-0.143
16.64,-0.156,1.246,-0.024
16.65,-0.131,0.911,0.053
16.66,-0.134,0.81,0.185
16.67,-0.289,1.083,-0.051
16.68,-0.265,0.845,-0.191
16.69,-0.243,1.149,-0.029
16.7,-0.034,0.819,0.159
16.71,-0.198,1.067,0.074
16.72,-0.326,0.852,-0.197
16.73,-0.092,1.161,0.153
16.74,-0.136,0.666,0.03
16.75,-0.416,1.221,-0.179
16.76,-0.158,0.998,-0.058
16.77,-0.14,1.05,0.035
16.78,-0.089,0.812,0.166
16.79,-0.29,0.868,-0.017
16.8,-0.35,1.224,-0.159
16.81,-0.135,0.802,-0.017
16.82,-0.19,1.155,0.137
16.83,-0.086,0.714,0.129
16.84,-0.386,1.117,-0.198
16.85,-0.238,0.997,-0.134
16.86,-0.143,1.024,0.08
16.87,-0.047,0.973,0.122
16.88,-0.192,0.695,0.035
16.89,-0.488,1.25,-0.157
16.9,-0.115,0.869,-0.05
16.91,-0.208,1.105,0.106
16.92,-0.093,0.73,0.155
16.93,-0.365,0.977,-0.069
16.94,-0.26,1.084,-0.176
16.95,-0.14,0.895,0.027
16.96,-0.129,1.122,0.153
16.97,-0.072,0.665,0.048
16.98,-0.452,1.192,-0.17
16.99,-0.165,0.899,-0.088
17.0,-0.108,1.16,0.091
17.01,-0.121,0.811,0.153
17.02,-0.31,0.827,-0.025
17.03,-0.351,1.219,-0.177
17.04,-0.117,0.873,-0.023
17.05,-0.135,1.091,0.137
17.06,-0.102,0.677,0.088
17.07,-0.377,1.184,-0.172
17.08,-0.199,0.85,-0.117
17.09,-0.184,1.219,0.102
17.1,-0.043,0.836,0.081
17.11,-0.236,0.838,0.003
17.12,-0.45,1.15,-0.128
17.13,-0.082,0.897,-0.055
17.14,-0.222,1.124,0.113
17.15,-0.098,0.645,0.171
17.16,-0.364,1.207,-0.098
17.17,-0.323,0.862,-0.152
17.18,-0.218,1.05,0.048
17.19,-0.007,1.028,0.151
17.2,-0.204,0.729,0.017
17.21,-0.417,1.212,-0.143
17.22,-0.153,0.902,-0.038
17.23,-0.186,1.214,0.092
17.24,-0.115,0.619,0.17
17.25,-0.365,1.07,-0.002
17.26,-0.258,0.976,-0.218
17.27,-0.194,0.877,-0.044
17.28,-0.083,1.079,0.155
17.29,0.022,0.728,0.057
17.3,-0.457,1.182,-0.167
17.31,-0.186,0.791,-0.079
17.32,-0.137,1.281,0.067
17.33,-0.086,0.709,0.137
17.34,-0.226,0.887,0.027
17.35,-0.394,1.106,-0.153
17.36,-0.078,0.833,-0.085
17.37,-0.208,1.171,0.1
17.38,-0.021,0.685,0.195
17.39,-0.417,1.184,-0.149
17.4,-0.309,0.772,-0.133
17.41,-0.261,1.185,0.121
17.42,-0.01,0.995,0.116
17.43,-0.188,0.729,0.059
17.44,-0.433,1.215,-0.158
17.45,-0.066,0.916,-0.057
17.46,-0.233,1.256,0.035
17.47,-0.122,0.596,0.17
17.48,-0.259,1.09,-0.023
17.49,-0.283,0.931,-0.157
17.5,-0.229,0.952,-0.05
17.51,-0.109,1.078,0.167
17.52,-0.041,0.706,0.094
17.53,-0.474,1.178,-0.163
17.54,-0.193,0.736,-0.125
17.55,-0.149,1.357,0.089
17.56,-0.059,0.733,0.172
17.57,-0.265,0.871,0.044
17.58,-0.342,1.13,-0.119
17.59,-0.167,0.931,-0.078
17.6,-0.2,1.109,0.076
17.61,-0.11,0.619,0.151
17.62,-0.4,1.177,-0.103
17.63,-0.305,0.774,-0.179
17.64,-0.268,1.123,0.013
17.65,-0.046,0.975,0.185
17.66,-0.105,0.782,0.023
17.67,-0.41,1.127,-0.147
17.68,-0.152,0.873,-0.051
17.69,-0.097,1.332,0.042
17.7,-0.1,0.578,0.138
17.71,-0.27,1.049,-0.005
17.72,-0.281,0.936,-0.172
17.73,-0.168,0.995,-0.046
17.74,-0.168,1.001,0.139
17.75,-0.12,0.714,0.174
17.76,-0.407,1.176,-0.131
17.77,-0.187,0.717,-0.183
17.78,-0.225,1.309,0.067
17.79,-0.067,0.777,0.116
17.8,-0.137,0.928,0.031
17.81,-0.434,1.049,-0.159
17.82,-0.145,0.947,-0.049
17.83,-0.21,0.968,0.071
17.84,-0.107,0.742,0.194
17.85,-0.359,1.156,-0.058
17.86,-0.326,0.721,-0.193
17.87,-0.247,1.18,0.019
17.88,-0.071,0.85,0.192
17.89,-0.106,0.972,0.035
17.9,-0.38,0.933,-0.183
17.91,-0.218,0.936,-0.056
17.92,-0.098,1.209,0.01
17.93,-0.073,0.64,0.115
17.94,-0.366,1.099,0.053
17.95,-0.237,0.799,-0.203
17.96,-0.217,1.172,-0.055
17.97,-0.14,0.869,0.143
17.98,-0.079,0.91,0.14
17.99,-0.351,1.025,-0.104
18.0,-0.272,0.789,-0.137
18.01,-0.207,1.279,0.071
18.02,0.021,0.755,0.129
18.03,-0.238,1.035,0.04
18.04,-0.375,0.879,-0.106
18.05,-0.156,1.173,-0.08
18.06,-0.129,0.955,0.057
18.07,-0.17,0.785,0.177
18.08,-0.279,1.099,-0.043
18.09,-0.288,0.786,-0.148
18.1,-0.222,1.181,-0.015
18.11,-0.077,0.81,0.154
18.12,-0.189,1.03,0.131
18.13,-0.274,0.891,-0.19
18.14,-0.227,0.95,-0.09
18.15,-0.211,1.15,0.114
18.16,-0.073,0.733,0.137
18.17,-0.235,1.061,-0.015
18.18,-0.334,0.816,-0.153
18.19,-0.252,1.209,-0.041
18.2,-0.157,0.833,0.088
18.21,-0.09,0.915,0.158
18.22,-0.312,1.001,-0.072
18.23,-0.294,0.871,-0.17
18.24,-0.217,1.118,0.03
18.25,-0.11,0.804,0.219
18.26,-0.186,1.088,0.072
18.27,-0.316,0.793,-0.188
18.28,-0.262,1.173,-0.072
18.29,-0.067,1.011,0.041
18.3,-0.101,0.779,0.127
18.31,-0.276,1.061,0.003
18.32,-0.291,0.833,-0.172
18.33,-0.254,1.186,0.012
18.34,-0.056,0.735,0.135
18.35,-0.17,1.07,0.154
18.36,-0.289,0.858,-0.163
18.37,-0.24,1.008,-0.164
18.38,-0.121,1.141,0.066
18.39,-0.059,0.757,0.139
18.4,-0.274,1.068,0.042
18.41,-0.256,0.833,-0.173
18.42,-0.244,1.232,-0.074
18.43,-0.083,0.789,0.05
18.44,-0.14,0.997,0.169
18.45,-0.241,0.923,-0.088
18.46,-0.391,0.898,-0.091
18.47,-0.175,1.136,-0.016
18.48,-0.083,0.836,0.151
18.49,-0.206,1.082,0.096
18.5,-0.386,0.812,-0.168
18.51,-0.27,1.169,-0.057
18.52,-0.062,0.981,0.039
18.53,-0.12,0.854,0.153
18.54,-0.227,0.957,0.009
18.55,-0.364,0.903,-0.12
18.56,-0.225,1.195,-0.043
18.57,-0.098,0.764,0.104
18.58,-0.172,1.067,0.147
18.59,-0.279,0.86,-0.122
18.6,-0.367,1.002,-0.138
18.61,-0.135,1.012,0.024
18.62,-0.033,0.92,0.165
18.63,-0.164,0.879,0.024
18.64,-0.38,0.957,-0.127
18.65,-0.193,1.26,-0.042
18.66,-0.187,0.741,0.08
18.67,-0.125,1.014,0.177
18.68,-0.231,0.889,-0.062
18.69,-0.446,1.134,-0.166
18.7,-0.25,0.872,0.004
18.71,-0.035,0.997,0.155
18.72,-0.114,0.987,0.089
18.73,-0.371,0.836,-0.156
18.74,-0.225,1.253,-0.079
18.75,-0.081,0.911,0.04
18.76,-0.152,0.968,0.123
18.77,-0.212,0.813,0.005
18.78,-0.337,1.15,-0.162
18.79,-0.177,1.075,-0.08
18.8,-0.209,0.806,0.119
18.81,-0.111,1.013,0.163
18.82,-0.277,0.797,-0.126
18.83,-0.342,1.156,-0.103
18.84,-0.134,0.893,0.004
18.85,-0.141,1.046,0.165
18.86,-0.106,0.833,0.011
18.87,-0.425,0.972,-0.138
18.88,-0.244,1.227,-0.026
18.89,-0.049,0.904,0.03
18.9,-0.158,1.001,0.178
18.91,-0.162,0.768,-0.056
18.92,-0.375,1.237,-0.175
18.93,-0.125,0.872,-0.043
18.94,-0.156,0.942,0.128
18.95,-0.08,0.955,0.147
18.96,-0.377,0.877,-0.161
18.97,-0.329,1.146,-0.126
18.98,-0.072,0.913,0.074
18.99,-0.094,1.134,0.172
19.0,-0.188,0.717,-0.006
19.01,-0.428,1.118,-0.123
19.02,-0.067,1.127,-0.044
19.03,-0.181,0.92,0.089
19.04,-0.132,0.874,0.162
19.05,-0.272,0.884,-0.045
19.06,-0.36,1.271,-0.167
19.07,-0.213,0.781,-0.032
19.08,-0.099,1.106,0.184
19.09,-0.079,0.837,0.093
19.1,-0.476,0.984,-0.144
19.11,-0.204,1.099,-0.097
19.12,-0.115,0.942,0.066
19.13,-0.08,0.989,0.122
19.14,-0.244,0.731,-0.001
19.15,-0.437,1.28,-0.146
19.16,-0.069,0.969,-0.09
19.17,-0.24,0.939,0.091
19.18,-0.093,0.848,0.207
19.19,-0.307,0.933,-0.117
19.2,-0.348,1.146,-0.153
19.21,-0.221,0.822,0.027
19.22,-0.013,1.162,0.157
19.23,-0.114,0.695,0.026
19.24,-0.449,1.106,-0.185
19.25,-0.133,1.063,-0.067
19.26,-0.116,1.034,0.065
19.27,-0.136,0.904,0.149
19.28,-0.291,0.806,-0.014
19.29,-0.354,1.264,-0.149
19.3,-0.149,0.819,-0.087
19.31,-0.184,1.065,0.106
19.32,-0.045,0.802,0.149
19.33,-0.364,0.995,-0.151
19.34,-0.312,0.981,-0.113
19.35,-0.112,0.963,0.082
19.36,-0.067,1.075,0.108
19.37,-0.18,0.678,0.012
19.38,-0.422,1.249,-0.175
19.39,-0.13,0.917,-0.026
19.4,-0.203,1.107,0.1
19.41,-0.031,0.792,0.113
19.42,-0.335,0.911,-0.023
19.43,-0.318,0.994,-0.182
19.44,-0.16,0.886,-0.001
19.45,-0.111,1.101,0.151
19.46,-0.13,0.693,0.052
19.47,-0.417,1.206,-0.149
19.48,-0.177,0.842,-0.114
19.49,-0.155,1.233,0.084
19.5,-0.056,0.737,0.149
19.51,-0.348,0.889,0.031
19.52,-0.359,1.095,-0.146
19.53,-0.117,0.906,-0.068
19.54,-0.177,1.118,0.122
19.55,-0.072,0.644,0.152
19.56,-0.354,1.194,-0.079
19.57,-0.298,0.85,-0.192
19.58,-0.176,1.042,0.037
19.59,-0.059,1.002,0.186
19.6,-0.129,0.747,0.029
19.61,-0.44,1.154,-0.175
19.62,-0.154,0.881,-0.066
19.63,-0.115,1.253,0.031
19.64,-0.06,0.629,0.128
19.65,-0.318,1.022,-0.013
19.66,-0.353,0.98,-0.171
19.67,-0.093,0.975,-0.055
19.68,-0.18,1.03,0.127
19.69,-0.101,0.65,0.114
19.7,-0.383,1.223,-0.125
19.71,-0.268,0.799,-0.14
19.72,-0.196,1.157,0.011
19.73,-0.033,0.861,0.185
19.74,-0.193,0.872,0.01
19.75,-0.45,1.048,-0.192
19.76,-0.111,0.905,-0.006
19.77,-0.143,1.267,0.063
19.78,-0.111,0.565,0.104
19.79,-0.319,1.156,-0.021
19.8,-0.198,0.892,-0.229
19.81,-0.21,1.054,-0.019
19.82,-0.145,0.912,0.193
19.83,-0.085,0.787,0.057
19.84,-0.434,1.131,-0.152
19.85,-0.196,0.819,-0.058
19.86,-0.168,1.315,0.074
19.87,-0.072,0.632,0.134
19.88,-0.279,1.045,0.023
19.89,-0.329,0.971,-0.178
19.9,-0.151,1.004,-0.055
19.91,-0.183,1.038,0.09
19.92,-0.115,0.721,0.162
19.93,-0.373,1.172,-0.098
19.94,-0.321,0.755,-0.112
19.95,-0.242,1.246,0.044
19.96,-0.01,0.844,0.169
19.97,-0.209,0.915,0.065
19.98,-0.421,1.007,-0.177
19.99,-0.104,0.94,-0.083
20.0,-0.225,1.2,0.048
20.01,-0.065,0.619,0.148
20.02,-0.39,1.172,0.002
20.03,-0.27,0.745,-0.203
20.04,-0.235,1.093,-0.035
20.05,-0.084,0.945,0.143
20.06,-0.153,0.821,0.125
20.07,-0.337,1.091,-0.173
20.08,-0.199,0.82,-0.099
20.09,-0.192,1.276,0.085
20.1,-0.032,0.69,0.152
20.11,-0.309,1.038,0.023
20.12,-0.411,0.902,-0.114
20.13,-0.197,1.077,-0.081
20.14,-0.137,1.007,0.071
20.15,-0.105,0.681,0.135
20.16,-0.425,1.186,-0.055
20.17,-0.21,0.782,-0.197
20.18,-0.219,1.178,0.017
20.19,-0.027,0.811,0.179
20.2,-0.126,0.992,0.073
20.21,-0.385,0.953,-0.192
20.22,-0.205,0.92,-0.059
20.23,-0.097,1.057,0.06
20.24,-0.082,0.755,0.14
20.25,-0.3,1.1,-0.016
20.26,-0.295,0.784,-0.187
20.27,-0.182,1.194,-0.012
20.28,-0.084,0.797,0.149
20.29,-0.184,0.99,0.131
20.3,-0.347,0.969,-0.154
20.31,-0.231,0.96,-0.128
20.32,-0.218,1.187,0.081
20.33,-0.049,0.781,0.161
20.34,-0.281,1.088,0.001
20.35,-0.361,0.743,-0.179
20.36,-0.248,1.23,0.014
20.37,-0.038,0.888,0.082
20.38,-0.122,0.861,0.141
20.39,-0.27,1.052,-0.078
20.4,-0.239,0.903,-0.175
20.41,-0.145,1.135,0.018
20.42,-0.078,0.755,0.206
20.43,-0.282,1.067,0.056
20.44,-0.337,0.795,-0.231
20.45,-0.244,1.165,-0.035
20.46,-0.07,1.018,0.09
20.47,-0.111,0.755,0.158
20.48,-0.244,1.045,-0.02
20.49,-0.273,0.838,-0.23
20.5,-0.139,1.182,-0.031
20.51,-0.095,0.796,0.127
20.52,-0.161,1.021,0.108
20.53,-0.353,0.89,-0.173
20.54,-0.244,1.034,-0.086
20.55,-0.144,1.136,0.091
20.56,-0.089,0.73,0.172
20.57,-0.289,1.093,0.029
20.58,-0.344,0.817,-0.169
20.59,-0.195,1.177,-0.059
20.6,-0.152,0.834,0.094
20.61,-0.116,0.923,0.174
20.62,-0.268,1.001,-0.171
20.63,-0.276,0.846,-0.097
20.64,-0.203,1.182,0.033
20.65,-0.035,0.803,0.152
20.66,-0.244,1.055,0.072
20.67,-0.371,0.819,-0.153
20.68,-0.188,1.226,-0.075
20.69,-0.145,0.934,0.062
20.7,-0.071,0.785,0.167
20.71,-0.279,1.072,-0.056
20.72,-0.263,0.847,-0.203
20.73,-0.219,1.129,-0.003
20.74,-0.113,0.823,0.17
20.75,-0.136,1.074,0.106
20.76,-0.302,0.848,-0.202
20.77,-0.269,1.046,-0.073
20.78,-0.085,1.114,0.019
20.79,-0.033,0.736,0.144
20.8,-0.321,1.047,0.044
20.81,-0.365,0.847,-0.14
20.82,-0.114,1.193,-0.067
20.83,-0.164,0.8,0.099
20.84,-0.162,0.948,0.187
20.85,-0.263,0.973,-0.126
20.86,-0.285,0.91,-0.172
20.87,-0.26,1.125,0.041
20.88,-0.027,0.82,0.152
20.89,-0.215,1.066,0.059
20.9,-0.326,0.797,-0.166
20.91,-0.217,1.233,-0.047
20.92,-0.083,0.941,0.034
20.93,-0.134,0.833,0.145
20.94,-0.306,1.003,-0.026
20.95,-0.242,0.879,-0.208
20.96,-0.176,1.147,-0.048
20.97,-0.153,0.75,0.162
20.98,-0.176,1.077,0.141
20.99,-0.267,0.861,-0.174
21.0,-0.293,1.05,-0.099
21.01,-0.101,1.057,0.057
21.02,-0.038,0.888,0.158
21.03,-0.261,0.891,0.003
21.04,-0.417,0.941,-0.133
21.05,-0.13,1.199,-0.064
21.06,-0.156,0.77,0.096
21.07,-0.244,1.031,0.207
21.08,-0.214,0.879,-0.18
21.09,-0.336,1.168,-0.136
21.1,-0.213,0.955,0.05
21.11,-0.014,0.915,0.15
21.12,-0.164,0.951,0.016
21.13,-0.428,0.874,-0.18
21.14,-0.2,1.271,-0.034
21.15,-0.11,0.825,0.074
21.16,-0.179,0.979,0.154
21.17,-0.257,0.883,-0.043
21.18,-0.276,1.081,-0.162
21.19,-0.202,1.011,-0.01
21.2,-0.152,0.816,0.189
21.21,-0.105,1.036,0.092
21.22,-0.335,0.824,-0.215
21.23,-0.322,1.184,-0.088
21.24,-0.041,0.931,0.068
21.25,-0.118,0.945,0.132
21.26,-0.271,0.882,0.005
21.27,-0.266,1.02,-0.135
21.28,-0.197,1.103,-0.065
21.29,-0.164,0.754,0.129
21.3,-0.14,1.094,0.18
21.31,-0.244,0.806,-0.195
21.32,-0.326,1.118,-0.139
21.33,-0.124,0.965,0.079
21.34,-0.076,0.929,0.117
21.35,-0.243,0.925,0.048
21.36,-0.416,0.913,-0.12
21.37,-0.126,1.221,-0.085
21.38,-0.181,0.815,0.096
21.39,-0.19,1.002,0.175
21.4,-0.196,0.88,-0.107
21.41,-0.273,1.1,-0.168
21.42,-0.271,0.98,0.019
21.43,-0.032,0.919,0.156
21.44,-0.137,0.984,0.06
21.45,-0.418,0.859,-0.153
21.46,-0.275,1.252,-0.041
21.47,-0.09,0.859,0.036
21.48,-0.06,0.978,0.132
21.49,-0.296,0.897,-0.021
21.5,-0.292,1.058,-0.186
21.51,-0.155,1.056,-0.048
21.52,-0.166,0.823,0.183
21.53,-0.153,1.076,0.142
21.54,-0.269,0.815,-0.181
21.55,-0.328,1.157,-0.109
21.56,-0.185,0.944,0.068
21.57,-0.067,0.994,0.159
21.58,-0.157,0.86,-0.005
21.59,-0.41,0.943,-0.139
21.6,-0.158,1.225,-0.083
21.61,-0.125,0.8,0.043
21.62,-0.16,0.983,0.173
21.63,-0.285,0.875,-0.057
21.64,-0.271,1.185,-0.202
21.65,-0.175,0.873,-0.03
21.66,-0.155,0.945,0.197
21.67,-0.081,0.983,0.077
21.68,-0.325,0.877,-0.184
21.69,-0.291,1.246,-0.073
21.7,-0.074,0.91,0.076
21.71,-0.106,0.994,0.135
21.72,-0.226,0.807,-0.029
21.73,-0.375,1.141,-0.1
21.74,-0.176,1.066,-0.046
21.75,-0.225,0.827,0.088
21.76,-0.117,1.03,0.173
21.77,-0.256,0.822,-0.169
21.78,-0.356,1.206,-0.114
21.79,-0.178,0.85,0.033
21.8,-0.017,1.028,0.179
21.81,-0.136,0.864,0.02
21.82,-0.414,1.143,-0.163
21.83,-0.123,1.041,-0.062
21.84,-0.186,0.898,0.077
21.85,-0.153,0.937,0.166
21.86,-0.282,0.875,-0.094
21.87,-0.338,1.253,-0.154
21.88,-0.157,0.804,-0.058
21.89,-0.068,1.119,0.194
21.9,-0.028,0.773,0.033
21.91,-0.431,1.052,-0.196
21.92,-0.221,1.127,-0.068
21.93,-0.092,0.964,0.009
21.94,-0.118,0.948,0.148
21.95,-0.238,0.755,-0.019
21.96,-0.403,1.28,-0.151
21.97,-0.115,0.891,-0.057
21.98,-0.194,1.009,0.111
21.99,-0.09,0.856,0.153
22.0,-0.333,0.949,-0.141
22.01,-0.311,1.136,-0.134
22.02,-0.203,0.876,0.051
22.03,-0.046,1.084,0.147
22.04,-0.14,0.732,0.018
22.05,-0.452,1.174,-0.18
22.06,-0.124,1.005,-0.06
22.07,-0.125,0.983,0.078
22.08,-0.133,0.899,0.159
22.09,-0.287,0.826,-0.053
22.1,-0.325,1.273,-0.19
22.11,-0.107,0.801,-0.028
22.12,-0.195,1.112,0.159
22.13,-0.074,0.747,0.097
22.14,-0.371,1.044,-0.197
22.15,-0.286,1.043,-0.055
22.16,-0.061,0.97,0.043
22.17,-0.122,0.977,0.152
22.18,-0.198,0.729,-0.011
22.19,-0.404,1.323,-0.153
22.2,-0.116,0.877,-0.076
22.21,-0.201,1.032,0.094
22.22,-0.15,0.806,0.174
22.23,-0.32,0.955,-0.116
22.24,-0.274,1.095,-0.152
22.25,-0.165,0.893,0.01
22.26,-0.096,1.147,0.143
22.27,-0.071,0.652,0.013
22.28,-0.448,1.223,-0.162
22.29,-0.148,1.03,-0.015
22.3,-0.129,1.019,0.041
22.31,-0.109,0.837,0.176
22.32,-0.313,0.846,-0.026
22.33,-0.341,1.272,-0.143
22.34,-0.089,0.762,-0.046
22.35,-0.233,1.167,0.199
22.36,-0.049,0.708,0.099
22.37,-0.37,1.082,-0.185
22.38,-0.26,0.998,-0.1
22.39,-0.154,1.017,0.053
22.4,-0.039,1.026,0.144
22.41,-0.182,0.677,0.001
22.42,-0.474,1.242,-0.152
22.43,-0.111,0.892,-0.058
22.44,-0.171,1.12,0.076
22.45,-0.121,0.748,0.176
22.46,-0.32,0.978,-0.094
22.47,-0.352,1.1,-0.127
22.48,-0.102,0.841,0.001
22.49,-0.179,1.182,0.17
22.5,-0.054,0.638,0.039
22.51,-0.404,1.189,-0.195
22.52,-0.202,0.928,-0.064
22.53,-0.113,1.122,0.073
22.54,-0.087,0.845,0.139
22.55,-0.349,0.813,0.007
22.56,-0.395,1.229,-0.154
22.57,-0.053,0.825,-0.064
22.58,-0.246,1.134,0.152
22.59,-0.074,0.694,0.148
22.6,-0.335,1.122,-0.166
22.61,-0.278,0.949,-0.135
22.62,-0.186,1.207,0.101
22.63,-0.022,0.855,0.125
22.64,-0.263,0.794,-0.007
22.65,-0.496,1.154,-0.12
22.66,-0.067,0.893,-0.078
22.67,-0.198,1.155,0.085
22.68,-0.125,0.615,0.185
22.69,-0.345,1.155,-0.096
22.7,-0.277,0.875,-0.174
22.71,-0.221,1.019,-0.014
22.72,-0.087,1.015,0.182
22.73,-0.093,0.74,0.034
22.74,-0.474,1.194,-0.172
22.75,-0.12,0.872,-0.059
22.76,-0.112,1.284,0.022
22.77,-0.064,0.626,0.16
22.78,-0.34,0.993,-0.015
22.79,-0.276,1.03,-0.177
22.8,-0.168,0.923,-0.029
22.81,-0.176,1.08,0.167
22.82,-0.083,0.663,0.1
22.83,-0.41,1.194,-0.145
22.84,-0.207,0.806,-0.118
22.85,-0.207,1.272,0.059
22.86,-0.023,0.81,0.111
22.87,-0.241,0.849,0.02
22.88,-0.41,1.126,-0.132
22.89,-0.086,0.96,-0.081
22.9,-0.208,1.145,0.058
22.91,-0.126,0.587,0.173
22.92,-0.306,1.174,-0.08
22.93,-0.25,0.876,-0.175
22.94,-0.273,1.052,-0.002
22.95,-0.047,1.01,0.187
22.96,-0.079,0.725,0.014
22.97,-0.474,1.148,-0.183
22.98,-0.143,0.876,-0.031
22.99,-0.125,1.287,-0.003
23.0,-0.055,0.599,0.143
23.01,-0.35,1.039,0.028
23.02,-0.328,0.982,-0.168
23.03,-0.147,0.958,-0.063
23.04,-0.17,1.052,0.115
23.05,-0.097,0.68,0.143
23.06,-0.385,1.171,-0.125
23.07,-0.249,0.76,-0.16
23.08,-0.251,1.212,0.081
23.09,0.006,0.845,0.186
23.1,-0.217,0.894,0.028
23.11,-0.363,1.06,-0.153
23.12,-0.164,0.931,-0.019
23.13,-0.166,1.198,0.082
23.14,-0.066,0.617,0.158
23.15,-0.406,1.146,-0.05
23.16,-0.242,0.811,-0.17
23.17,-0.207,1.101,-0.053
23.18,-0.105,0.962,0.193
23.19,-0.153,0.78,0.108
23.2,-0.375,1.133,-0.162
23.21,-0.195,0.772,-0.104
23.22,-0.182,1.295,0.073
23.23,-0.005,0.685,0.141
23.24,-0.285,1.009,0.036
23.25,-0.374,0.903,-0.162
23.26,-0.18,1.049,-0.045
23.27,-0.101,1.017,0.071
23.28,-0.137,0.698,0.197
23.29,-0.389,1.204,-0.097
23.3,-0.209,0.777,-0.178
23.31,-0.224,1.202,0.037
23.32,-0.035,0.818,0.16
23.33,-0.17,0.967,0.062
23.34,-0.379,0.988,-0.202
23.35,-0.203,0.879,-0.112
23.36,-0.084,1.243,0.074
23.37,-0.066,0.634,0.102
23.38,-0.338,1.077,-0.029
23.39,-0.269,0.823,-0.125
23.4,-0.161,1.189,-0.02
23.41,-0.127,0.815,0.104
23.42,-0.098,1.019,0.112
23.43,-0.366,0.948,-0.153
23.44,-0.267,0.917,-0.131
23.45,-0.065,1.211,0.098
23.46,-0.063,0.708,0.131
23.47,-0.338,1.065,0.01
23.48,-0.263,0.796,-0.138
23.49,-0.233,1.195,-0.039
23.5,-0.109,0.832,0.073
23.51,-0.124,0.907,0.179
23.52,-0.309,1.053,-0.112
23.53,-0.299,0.787,-0.157
23.54,-0.238,1.221,0.06
23.55,0.019,0.782,0.177
23.56,-0.235,1.042,0.052
23.57,-0.347,0.865,-0.143
23.58,-0.18,1.156,-0.042
23.59,-0.169,1.012,0.07
23.6,-0.088,0.722,0.156
23.61,-0.362,1.109,0.001
23.62,-0.258,0.785,-0.202
23.63,-0.194,1.16,-0.055
23.64,-0.093,0.827,0.179
23.65,-0.064,1.028,0.078
23.66,-0.31,0.878,-0.164
23.67,-0.268,0.939,-0.034
23.68,-0.063,1.184,0.033
23.69,-0.069,0.699,0.167
23.7,-0.303,1.093,0.031
23.71,-0.332,0.812,-0.154
23.72,-0.23,1.219,-0.033
23.73,-0.146,0.842,0.111
23.74,-0.146,0.908,0.196
23.75,-0.314,1.031,-0.084
23.76,-0.311,0.864,-0.135
23.77,-0.177,1.158,-0.034
23.78,-0.046,0.802,0.193
23.79,-0.186,1.086,0.092
23.8,-0.364,0.831,-0.2
23.81,-0.272,1.142,-0.023
23.82,-0.09,1.003,0.027
23.83,-0.159,0.769,0.205
23.84,-0.309,1.063,0.005
23.85,-0.289,0.888,-0.165
23.86,-0.217,1.2,-0.051
23.87,-0.151,0.756,0.136
23.88,-0.106,1.026,0.168
23.89,-0.317,0.93,-0.146
23.9,-0.284,0.978,-0.115
23.91,-0.277,1.099,0.07
23.92,0.004,0.782,0.135
23.93,-0.23,1.074,0.037
23.94,-0.406,0.843,-0.138
23.95,-0.147,1.25,-0.081
23.96,-0.17,0.833,0.057
23.97,-0.131,0.907,0.177
23.98,-0.256,0.986,-0.061
23.99,-0.282,0.924,-0.164
24.0,-0.233,1.116,-0.044
24.01,-0.086,0.813,0.149
24.02,-0.117,1.078,0.089
24.03,-0.349,0.805,-0.176
24.04,-0.271,1.132,-0.086
24.05,-0.058,1.048,0.05
24.06,-0.079,0.878,0.145
24.07,-0.264,0.949,-0.01
24.08,-0.319,0.895,-0.154
24.09,-0.185,1.212,-0.059
24.1,-0.162,0.752,0.084
24.11,-0.183,1.069,0.178
24.12,-0.22,0.837,-0.164
24.13,-0.325,1.017,-0.124
24.14,-0.16,1.044,0.065
24.15,-0.04,0.849,0.108
24.16,-0.18,1.013,0.083
24.17,-0.321,0.829,-0.132
24.18,-0.292,1.304,-0.042
24.19,-0.064,0.829,0.033
24.2,-0.116,0.971,0.183
24.21,-0.257,0.839,-0.055
24.22,-0.358,1.129,-0.172
24.23,-0.184,0.907,-0.033
24.24,-0.157,0.987,0.216
24.25,-0.09,0.964,0.072
24.26,-0.324,0.847,-0.142
24.27,-0.274,1.237,-0.082
24.28,-0.153,0.901,0.066
24.29,-0.111,0.987,0.17
24.3,-0.189,0.813,-0.017
24.31,-0.344,1.089,-0.166
24.32,-0.199,1.1,-0.068
24.33,-0.108,0.821,0.097
24.34,-0.192,1.029,0.174
24.35,-0.313,0.811,-0.122
24.36,-0.316,1.212,-0.181
24.37,-0.201,0.85,0.018
24.38,-0.182,1.016,0.189
24.39,-0.111,0.87,0.061
24.4,-0.37,0.937,-0.188
24.41,-0.25,1.175,-0.093
24.42,-0.077,0.895,0.067
24.43,-0.096,1.024,0.11
24.44,-0.22,0.777,-0.016
24.45,-0.479,1.244,-0.148
24.46,-0.108,0.936,-0.046
24.47,-0.199,0.982,0.119
24.48,-0.169,0.888,0.161
24.49,-0.292,0.916,-0.093
24.5,-0.302,1.24,-0.157
24.51,-0.159,0.806,0.014
24.52,-0.145,1.117,0.191
24.53,-0.075,0.774,0.031
24.54,-0.477,1.102,-0.172
24.55,-0.236,1.009,-0.054
24.56,-0.087,1.0,0.061
24.57,-0.085,0.977,0.126
24.58,-0.258,0.747,-0.057
24.59,-0.388,1.254,-0.153
24.6,-0.022,0.901,-0.082
24.61,-0.136,1.039,0.14
24.62,-0.167,0.783,0.144
24.63,-0.37,1.037,-0.153
24.64,-0.275,1.113,-0.132
24.65,-0.179,0.873,0.078
24.66,-0.079,1.126,0.135
24.67,-0.202,0.695,-0.009
24.68,-0.424,1.192,-0.166
24.69,-0.075,0.991,-0.072
24.7,-0.22,1.014,0.084
24.71,-0.139,0.846,0.154
24.72,-0.312,0.919,-0.086
24.73,-0.386,1.164,-0.124
24.74,-0.147,0.833,-0.002
24.75,-0.135,1.162,0.212
24.76,-0.112,0.671,0.02
24.77,-0.431,1.124,-0.167
24.78,-0.186,1.088,-0.034
24.79,-0.153,0.994,0.054
24.8,-0.095,0.885,0.132
24.81,-0.263,0.827,-0.017
24.82,-0.374,1.241,-0.154
24.83,-0.167,0.783,-0.019
24.84,-0.223,1.14,0.156
24.85,-0.063,0.792,0.096
24.86,-0.4,0.994,-0.154
24.87,-0.258,1.003,-0.125
24.88,-0.031,0.98,0.049
24.89,-0.112,1.043,0.172
24.9,-0.193,0.703,0.028
24.91,-0.469,1.265,-0.184
24.92,-0.106,0.932,-0.074
24.93,-0.226,1.058,0.08
24.94,-0.07,0.769,0.139
24.95,-0.335,0.955,-0.062
24.96,-0.38,1.177,-0.142
24.97,-0.187,0.783,-0.024
24.98,-0.118,1.158,0.169
24.99,-0.028,0.694,0.062
25.0,-0.419,1.12,-0.163
25.01,-0.181,0.868,-0.054
25.02,-0.183,1.226,0.052
25.03,-0.056,0.703,0.17
25.04,-0.3,0.935,0.007
25.05,-0.326,1.112,-0.2
25.06,-0.124,0.84,-0.029
25.07,-0.307,1.122,-0.015
25.08,-0.342,0.912,-0.123
25.09,-0.186,1.105,-0.061
25.1,-0.084,0.818,0.191
25.11,-0.128,1.077,0.08
25.12,-0.321,0.838,-0.159
25.13,-0.299,1.138,-0.063
25.14,-0.12,1.021,-0.004
25.15,-0.048,0.784,0.142
25.16,-0.293,1.041,0.022
25.17,-0.29,0.858,-0.13
25.18,-0.223,1.18,-0.056
25.19,-0.107,0.772,0.137
25.2,-0.141,1.039,0.187
25.21,-0.26,0.928,-0.144
25.22,-0.313,0.936,-0.139
25.23,-0.209,1.039,0.05
25.24,-0.015,0.924,0.181
25.25,-0.254,1.034,0.049
25.26,-0.335,0.786,-0.13
25.27,-0.302,1.327,-0.015
25.28,-0.104,0.864,0.059
25.29,-0.082,0.932,0.168
25.3,-0.226,0.948,-0.032
25.31,-0.339,0.996,-0.196
25.32,-0.194,1.06,-0.07
25.33,-0.121,0.793,0.144
25.34,-0.163,1.118,0.146
25.35,-0.24,0.776,-0.148
25.36,-0.306,1.134,-0.127
25.37,-0.095,0.977,0.052
25.38,-0.079,0.936,0.153
25.39,-0.21,0.933,0.015
25.4,-0.376,0.906,-0.157
25.41,-0.152,1.252,-0.092
25.42,-0.164,0.787,0.086
25.43,-0.123,0.992,0.17
25.44,-0.259,0.899,-0.05
25.45,-0.352,1.097,-0.164
25.46,-0.196,0.924,-0.035
25.47,-0.171,0.921,0.214
25.48,-0.114,1.031,0.073
25.49,-0.384,0.822,-0.159
25.5,-0.313,1.218,-0.037
25.51,-0.024,0.932,0.006
25.52,-0.122,0.94,0.145
25.53,-0.181,0.862,0.028
25.54,-0.317,1.079,-0.173
25.55,-0.184,1.081,-0.106
25.56,-0.14,0.831,0.121
25.57,-0.135,1.039,0.162
25.58,-0.337,0.834,-0.109
25.59,-0.362,1.174,-0.126
25.6,-0.157,0.902,0.033
25.61,-0.097,1.027,0.196
25.62,-0.163,0.888,0.047
25.63,-0.379,0.926,-0.098
25.64,-0.196,1.234,-0.114
25.65,-0.164,0.857,0.041
25.66,-0.114,1.011,0.164
25.67,-0.191,0.777,-0.065
25.68,-0.421,1.169,-0.094
25.69,-0.103,1.033,-0.054
25.7,-0.156,0.914,0.135
25.71,-0.151,0.886,0.177
25.72,-0.312,0.889,-0.1
25.73,-0.281,1.26,-0.145
25.74,-0.142,0.856,-0.0
25.75,-0.074,1.115,0.156
25.76,-0.148,0.714,0.018
25.77,-0.469,1.185,-0.179
25.78,-0.145,0.975,-0.005
25.79,-0.125,1.085,0.054
25.8,-0.095,0.783,0.117
25.81,-0.285,0.892,-0.037
25.82,-0.346,1.264,-0.116
25.83,-0.137,0.8,-0.042
25.84,-0.143,1.069,0.112
25.85,-0.121,0.768,0.15
25.86,-0.453,1.078,-0.198
25.87,-0.229,0.93,-0.144
25.88,-0.147,1.049,0.122
25.89,-0.077,1.076,0.122
25.9,-0.246,0.678,-0.067
25.91,-0.385,1.221,-0.114
25.92,-0.079,0.929,-0.064
25.93,-0.204,1.046,0.071
25.94,-0.072,0.765,0.201
25.95,-0.344,1.009,-0.122
25.96,-0.296,1.053,-0.153
25.97,-0.188,0.938,0.081
25.98,-0.064,1.143,0.109
25.99,-0.165,0.637,0.017
26.0,-0.488,1.24,-0.144
26.01,-0.084,1.01,-0.108
26.02,-0.183,1.042,0.033
26.03,-0.053,0.779,0.166
26.04,-0.308,0.896,-0.017
26.05,-0.403,1.179,-0.175
26.06,-0.103,0.801,-0.036
26.07,-0.17,1.2,0.147
26.08,-0.108,0.713,0.085
26.09,-0.357,1.089,-0.141
26.1,-0.231,0.96,-0.099
26.11,-0.111,1.098,0.05
26.12,-0.092,0.961,0.109
26.13,-0.149,0.696,-0.013
26.14,-0.434,1.284,-0.127
26.15,-0.098,0.863,-0.079
26.16,-0.205,1.142,0.126
26.17,-0.114,0.731,0.137
26.18,-0.364,0.984,-0.091
26.19,-0.332,1.036,-0.167
26.2,-0.138,0.861,0.013
26.21,-0.159,1.11,0.185
26.22,-0.112,0.699,0.074
26.23,-0.374,1.184,-0.19
26.24,-0.201,0.827,-0.097
26.25,-0.174,1.194,0.113
26.26,-0.1,0.896,0.152
26.27,-0.202,0.788,-0.026
26.28,-0.456,1.14,-0.162
26.29,-0.091,0.929,-0.025
26.3,-0.167,1.131,0.127
26.31,-0.084,0.624,0.153
26.32,-0.385,1.178,-0.092
26.33,-0.264,0.909,-0.141
26.34,-0.196,1.011,0.022
26.35,-0.035,1.01,0.169
26.36,-0.157,0.742,0.002
26.37,-0.427,1.204,-0.189
26.38,-0.113,0.866,-0.047
26.39,-0.166,1.197,0.109
26.4,-0.091,0.66,0.171
26.41,-0.312,1.064,0.006
26.42,-0.4,0.998,-0.2
26.43,-0.158,0.898,-0.055
26.44,-0.068,1.167,0.147
26.45,-0.06,0.648,0.057
26.46,-0.459,1.212,-0.174
26.47,-0.202,0.88,-0.044
26.48,-0.131,1.182,0.036
26.49,-0.083,0.736,0.162
26.5,-0.26,0.886,0.027
26.51,-0.385,1.146,-0.174
26.52,-0.139,0.845,-0.083
26.53,-0.183,1.168,0.142
26.54,-0.088,0.683,0.132
26.55,-0.376,1.191,-0.128
26.56,-0.248,0.747,-0.131
26.57,-0.269,1.246,0.085
26.58,-0.022,0.825,0.163
26.59,-0.16,0.885,0.025
26.6,-0.415,1.066,-0.155
26.61,-0.112,0.942,-0.093
26.62,-0.145,1.204,0.067
26.63,-0.109,0.606,0.151
26.64,-0.372,1.15,-0.025
26.65,-0.283,0.812,-0.157
26.66,-0.156,1.079,-0.047
26.67,-0.169,0.932,0.127
26.68,-0.156,0.796,0.129
26.69,-0.389,1.119,-0.18
26.7,-0.206,0.773,-0.12
26.71,-0.216,1.299,0.071
26.72,0.049,0.705,0.117
26.73,-0.324,1.035,0.015
26.74,-0.407,0.847,-0.178
26.75,-0.14,1.049,-0.033
26.76,-0.135,1.064,0.1
26.77,-0.125,0.665,0.119
26.78,-0.353,1.21,-0.051
26.79,-0.194,0.812,-0.181
26.8,-0.209,1.175,-0.003
26.81,-0.06,0.828,0.223
26.82,-0.165,0.931,0.062
26.83,-0.41,0.989,-0.161
26.84,-0.222,0.936,-0.063
26.85,-0.051,1.249,0.057
26.86,-0.078,0.591,0.126
26.87,-0.356,1.122,0.018
26.88,-0.243,0.804,-0.172
26.89,-0.235,1.066,-0.035
26.9,-0.187,0.907,0.155
26.91,-0.131,0.83,0.114
26.92,-0.35,1.112,-0.148
26.93,-0.284,0.756,-0.111
26.94,-0.195,1.255,0.074
26.95,0.003,0.71,0.148
26.96,-0.272,1.035,0.013
26.97,-0.371,0.907,-0.135
26.98,-0.11,1.064,-0.092
26.99,-0.196,1.034,0.11
27.0,-0.138,0.727,0.164
27.01,-0.35,1.172,-0.078
27.02,-0.315,0.733,-0.149
27.03,-0.257,1.163,-0.017
27.04,-0.036,0.875,0.205
27.05,-0.131,0.945,0.036
27.06,-0.357,0.952,-0.164
27.07,-0.203,0.95,-0.058
27.08,-0.13,1.21,0.003
27.09,-0.051,0.585,0.164
27.1,-0.317,1.148,0.008
27.11,-0.29,0.801,-0.175
27.12,-0.276,1.121,-0.043
27.13,-0.151,0.895,0.127
27.14,-0.118,0.858,0.185
27.15,-0.328,1.056,-0.127
27.16,-0.257,0.772,-0.148
27.17,-0.209,1.261,0.053
27.18,-0.06,0.782,0.149
27.19,-0.225,1.037,0.036
27.2,-0.375,0.868,-0.14
27.21,-0.225,1.137,-0.041
27.22,-0.132,1.009,0.046
27.23,-0.122,0.7,0.198
27.24,-0.328,1.123,-0.018
27.25,-0.224,0.815,-0.188
27.26,-0.216,1.169,-0.028
27.27,-0.132,0.782,0.176
27.28,-0.121,0.984,0.097
27.29,-0.316,0.953,-0.157
27.3,-0.236,0.909,-0.086
27.31,-0.159,1.242,0.104
27.32,-0.034,0.715,0.15
27.33,-0.264,1.091,0.013
27.34,-0.257,0.821,-0.173
27.35,-0.221,1.195,-0.087
27.36,-0.16,0.776,0.095
27.37,-0.181,1.018,0.185
27.38,-0.239,0.919,-0.141
27.39,-0.349,0.924,-0.14
27.4,-0.206,1.045,0.039
27.41,-0.028,0.869,0.171
27.42,-0.24,1.029,0.039
27.43,-0.371,0.812,-0.182
27.44,-0.212,1.242,-0.05
27.45,-0.103,0.875,0.022
27.46,-0.099,0.874,0.197
27.47,-0.331,0.983,-0.007
27.48,-0.245,0.893,-0.213
27.49,-0.241,1.102,-0.036
27.5,-0.135,0.816,0.189
27.51,-0.091,1.076,0.122
27.52,-0.324,0.829,-0.171
27.53,-0.311,1.081,-0.111
27.54,-0.147,1.016,0.071
27.55,-0.017,0.843,0.102
27.56,-0.202,0.975,0.007
27.57,-0.341,0.897,-0.094
27.58,-0.195,1.288,-0.064
27.59,-0.176,0.733,0.075
27.6,-0.128,0.989,0.186
27.61,-0.3,0.938,-0.069
27.62,-0.337,1.035,-0.183
27.63,-0.224,0.972,-0.024
27.64,-0.027,0.91,0.142
27.65,-0.161,1.026,0.084
27.66,-0.33,0.838,-0.168
27.67,-0.279,1.249,-0.01
27.68,-0.094,0.902,0.011
27.69,-0.108,0.916,0.145
27.7,-0.222,0.926,-0.01
27.71,-0.34,0.99,-0.158
27.72,-0.19,1.142,-0.058
27.73,-0.151,0.768,0.064
27.74,-0.137,1.062,0.213
27.75,-0.27,0.837,-0.134
27.76,-0.338,1.094,-0.143
27.77,-0.214,0.975,0.081
27.78,-0.006,0.989,0.14
27.79,-0.188,0.904,0.061
27.8,-0.328,0.871,-0.151
27.81,-0.178,1.29,-0.033
27.82,-0.159,0.834,0.02
27.83,-0.084,0.972,0.157
27.84,-0.276,0.875,-0.005
27.85,-0.27,1.038,-0.25
27.86,-0.182,0.988,-0.038
27.87,-0.2,0.908,0.21
27.88,-0.118,1.017,0.12
27.89,-0.363,0.79,-0.149
27.9,-0.328,1.18,-0.083
27.91,-0.071,0.941,0.045
27.92,-0.047,1.014,0.115
27.93,-0.179,0.789,0.033
27.94,-0.367,1.055,-0.14
27.95,-0.132,1.168,-0.083
27.96,-0.17,0.799,0.067
27.97,-0.119,1.001,0.2
27.98,-0.317,0.858,-0.074
27.99,-0.385,1.171,-0.169
28.0,-0.166,0.85,-0.036
28.01,-0.019,1.055,0.175
28.02,-0.153,0.914,0.092
28.03,-0.337,0.898,-0.207
28.04,-0.22,1.208,-0.031
28.05,-0.023,0.885,0.013
28.06,-0.144,0.968,0.159
28.07,-0.221,0.829,-0.008
28.08,-0.314,1.184,-0.213
28.09,-0.21,0.93,-0.063
28.1,-0.199,0.879,0.144
28.11,-0.068,1.015,0.154
28.12,-0.321,0.83,-0.125
28.13,-0.246,1.089,-0.133
28.14,-0.167,0.923,0.06
28.15,-0.028,1.071,0.104
28.16,-0.136,0.713,0.003
28.17,-0.427,1.204,-0.143
28.18,-0.154,0.974,-0.077
28.19,-0.142,0.957,0.072
28.2,-0.076,0.89,0.155
28.21,-0.354,0.877,-0.055
28.22,-0.349,1.213,-0.181
28.23,-0.107,0.765,-0.029
28.24,-0.164,1.121,0.188
28.25,-0.06,0.761,0.073
28.26,-0.332,1.076,-0.203
28.27,-0.25,1.028,-0.081
28.28,-0.146,1.029,0.079
28.29,-0.108,0.981,0.143
28.3,-0.202,0.703,-0.001
28.31,-0.443,1.3,-0.153
28.32,-0.049,0.925,-0.103
28.33,-0.219,1.067,0.118
28.34,-0.084,0.73,0.14
28.35,-0.353,0.986,-0.097
28.36,-0.298,1.102,-0.161
28.37,-0.168,0.847,-0.03
28.38,-0.13,1.135,0.205
28.39,-0.081,0.643,0.034
28.4,-0.443,1.192,-0.164
28.41,-0.119,0.98,-0.041
28.42,-0.138,1.127,0.046
28.43,-0.109,0.793,0.145
28.44,-0.267,0.855,0.021
28.45,-0.365,1.246,-0.189
28.46,-0.108,0.781,-0.057
28.47,-0.221,1.179,0.173
28.48,-0.077,0.721,0.12
28.49,-0.368,1.05,-0.139
28.5,-0.265,0.962,-0.128
28.51,-0.082,1.041,0.063
28.52,-0.13,0.988,0.14
28.53,-0.187,0.683,0.02
28.54,-0.493,1.289,-0.108
28.55,-0.069,0.897,-0.084
28.56,-0.224,1.13,0.097
28.57,-0.061,0.704,0.151
28.58,-0.358,0.982,-0.04
28.59,-0.335,1.058,-0.146
28.6,-0.165,0.907,0.012
28.61,-0.15,1.126,0.135
28.62,-0.041,0.659,0.083
28.63,-0.447,1.211,-0.165
28.64,-0.178,0.893,-0.078
28.65,-0.106,1.153,0.057
28.66,-0.093,0.827,0.165
28.67,-0.215,0.799,0.018
28.68,-0.406,1.21,-0.162
28.69,-0.141,0.834,-0.066
28.7,-0.187,1.156,0.089
28.71,-0.049,0.669,0.137
28.72,-0.402,1.102,-0.091
28.73,-0.314,0.914,-0.174
28.74,-0.131,0.997,0.031
28.75,-0.102,1.042,0.162
28.76,-0.141,0.694,0.064
28.77,-0.39,1.238,-0.185
28.78,-0.17,0.868,-0.063
28.79,-0.18,1.167,0.067
28.8,-0.044,0.677,0.164
28.81,-0.328,1.009,0.001
28.82,-0.329,1.076,-0.189
28.83,-0.139,0.863,-0.005
28.84,-0.144,1.103,0.133
28.85,-0.121,0.658,0.113
28.86,-0.4,1.21,-0.152
28.87,-0.215,0.818,-0.128
28.88,-0.197,1.165,0.08
28.89,0.009,0.884,0.135
28.9,-0.27,0.826,0.042
28.91,-0.458,1.12,-0.145
28.92,-0.054,0.894,-0.099
28.93,-0.215,1.081,0.109
28.94,-0.039,0.663,0.13
28.95,-0.37,1.225,-0.161
28.96,-0.262,0.791,-0.13
28.97,-0.161,1.209,0.07
28.98,0.012,0.838,0.14
28.99,-0.251,0.871,0.043
29.0,-0.41,1.127,-0.141
29.01,-0.115,0.89,-0.091
29.02,-0.214,1.205,0.039
29.03,-0.053,0.608,0.173
29.04,-0.385,1.14,-0.052
29.05,-0.288,0.818,-0.163
29.06,-0.236,1.003,-0.013
29.07,-0.084,1.06,0.187
29.08,-0.074,0.755,0.073
29.09,-0.462,1.141,-0.14
29.1,-0.167,0.817,-0.056
29.11,-0.14,1.344,0.036
29.12,-0.051,0.641,0.137
29.13,-0.271,0.976,-0.002
29.14,-0.397,1.028,-0.135
29.15,-0.105,1.016,-0.075
29.16,-0.21,1.016,0.088
29.17,-0.092,0.659,0.188
29.18,-0.366,1.22,-0.143
29.19,-0.26,0.757,-0.157
29.2,-0.236,1.245,0.067
29.21,-0.02,0.884,0.134
29.22,-0.177,0.841,0.036
29.23,-0.516,1.08,-0.095
29.24,-0.063,0.917,-0.089
29.25,-0.185,1.208,0.06
29.26,-0.093,0.609,0.161
29.27,-0.307,1.13,-0.036
29.28,-0.284,0.84,-0.179
29.29,-0.176,1.039,-0.028
29.3,-0.165,1.002,0.216
29.31,-0.05,0.756,0.068
29.32,-0.437,1.164,-0.146
29.33,-0.247,0.808,-0.036
29.34,-0.114,1.289,0.003
29.35,-0.014,0.646,0.155
29.36,-0.307,1.014,0.027
29.37,-0.331,1.012,-0.175
29.38,-0.149,0.982,-0.034
29.39,-0.187,1.043,0.07
29.4,-0.118,0.706,0.211
29.41,-0.36,1.184,-0.141
29.42,-0.224,0.683,-0.181
29.43,-0.317,1.238,0.098
29.44,-0.002,0.854,0.152
29.45,-0.144,0.888,0.042
29.46,-0.466,1.064,-0.147
29.47,-0.216,0.948,-0.054
29.48,-0.074,1.231,0.043
29.49,-0.091,0.581,0.141
29.5,-0.367,1.137,-0.001
29.51,-0.201,0.853,-0.182
29.52,-0.225,1.091,-0.05
29.53,-0.175,0.859,0.14
29.54,-0.09,0.844,0.155
29.55,-0.373,1.093,-0.17
29.56,-0.181,0.706,-0.113
29.57,-0.189,1.322,0.091
29.58,-0.026,0.735,0.147
29.59,-0.234,1.008,0.036
29.6,-0.331,0.917,-0.156
29.61,-0.212,1.093,-0.068
29.62,-0.187,1.056,0.084
29.63,-0.058,0.66,0.128
29.64,-0.372,1.157,-0.058
29.65,-0.284,0.768,-0.163
29.66,-0.139,1.172,-0.011
29.67,-0.096,0.839,0.182
29.68,-0.174,0.933,0.109
29.69,-0.295,0.986,-0.182
29.7,-0.251,0.926,-0.06
29.71,-0.116,1.245,0.097
29.72,-0.068,0.661,0.121
29.73,-0.296,1.084,0.002
29.74,-0.316,0.811,-0.167
29.75,-0.152,1.219,-0.038
29.76,-0.088,0.764,0.136
29.77,-0.186,0.989,0.156
29.78,-0.31,0.977,-0.154
29.79,-0.241,0.942,-0.139
29.8,-0.236,1.157,0.087
29.81,0.023,0.677,0.149
29.82,-0.292,1.107,0.017
29.83,-0.399,0.777,-0.124
29.84,-0.191,1.195,-0.049
29.85,-0.125,0.899,0.051
29.86,-0.181,0.881,0.209
29.87,-0.274,1.061,-0.086
29.88,-0.286,0.847,-0.16
29.89,-0.229,1.194,0.012
29.9,0.056,0.775,0.168
29.91,-0.245,1.055,0.059
29.92,-0.357,0.854,-0.18
29.93,-0.137,1.119,-0.081
29.94,-0.196,0.998,0.05
29.95,-0.09,0.748,0.179
29.96,-0.252,1.117,-0.015
29.97,-0.362,0.769,-0.198
29.98,-0.226,1.121,0.029
29.99,-0.099,0.883,0.199
30.0,-0.113,0.996,0.066
30.01,-0.299,0.899,-0.193
30.02,-0.284,0.986,-0.055
30.03,-0.07,1.163,-0.022
30.04,-0.091,0.691,0.168
30.05,-0.261,1.088,0.047
30.06,-0.344,0.805,-0.156
30.07,-0.227,1.152,-0.061
30.08,-0.135,0.833,0.067
30.09,-0.112,0.904,0.183
30.1,-0.311,1.031,-0.133
30.11,-0.343,0.789,-0.138
30.12,-0.204,1.153,0.021
30.13,0.014,0.826,0.163
30.14,-0.251,1.059,0.048
30.15,-0.395,0.821,-0.129
30.16,-0.175,1.169,-0.046
30.17,-0.16,0.987,0.031
30.18,-0.086,0.747,0.151
30.19,-0.332,1.111,0.009
30.2,-0.27,0.807,-0.247
30.21,-0.223,1.126,-0.079
30.22,-0.053,0.839,0.186
30.23,-0.103,1.005,0.077
30.24,-0.345,0.884,-0.145
30.25,-0.266,1.001,-0.071
30.26,-0.078,1.169,0.049
30.27,-0.07,0.689,0.158
30.28,-0.285,1.066,0.035
30.29,-0.324,0.82,-0.182
30.3,-0.201,1.163,-0.042
30.31,-0.173,0.835,0.116
30.32,-0.112,0.877,0.188
30.33,-0.308,1.014,-0.099
30.34,-0.341,0.86,-0.128
30.35,-0.156,1.118,-0.021
30.36,-0.051,0.814,0.158
30.37,-0.206,1.096,0.028
30.38,-0.31,0.847,-0.197
30.39,-0.184,1.152,-0.068
30.4,-0.183,0.965,0.034
30.41,-0.074,0.751,0.167
30.42,-0.263,1.079,0.012
30.43,-0.302,0.802,-0.217
30.44,-0.214,1.176,-0.025
30.45,-0.082,0.771,0.128
30.46,-0.184,1.038,0.11
30.47,-0.33,0.883,-0.172
30.48,-0.271,1.021,-0.099
30.49,-0.075,1.098,0.031
30.5,-0.051,0.817,0.193
30.51,-0.242,1.05,0.008
30.52,-0.37,0.869,-0.175
30.53,-0.176,1.25,-0.052
30.54,-0.128,0.768,0.08
30.55,-0.166,1.023,0.147
30.56,-0.279,0.881,-0.13
30.57,-0.377,1.079,-0.166
30.58,-0.095,0.954,0.004
30.59,-0.016,0.898,0.218
30.6,-0.238,0.984,0.017
30.61,-0.389,0.812,-0.174
30.62,-0.197,1.289,-0.005
30.63,-0.091,0.833,0.073
30.64,-0.18,0.952,0.158
30.65,-0.242,0.941,-0.052
30.66,-0.366,1.023,-0.16
30.67,-0.153,1.013,-0.036
30.68,-0.125,0.842,0.259
30.69,-0.15,1.053,0.061
30.7,-0.424,0.766,-0.163
30.71,-0.252,1.214,-0.053
30.72,-0.037,0.959,0.014
30.73,-0.116,0.809,0.152
30.74,-0.253,0.992,-0.01
30.75,-0.27,0.91,-0.18
30.76,-0.191,1.102,-0.01
30.77,-0.173,0.794,0.214
30.78,-0.141,1.074,0.131
30.79,-0.35,0.826,-0.173
30.8,-0.299,1.095,-0.085
30.81,-0.05,1.041,0.059
30.82,-0.088,0.765,0.142
30.83,-0.271,1.002,0.03
30.84,-0.299,0.862,-0.163
30.85,-0.209,1.189,-0.08
30.86,-0.227,0.786,0.067
30.87,-0.071,1.013,0.185
30.88,-0.261,0.933,-0.143
30.89,-0.33,0.937,-0.149
30.9,-0.216,1.082,0.084
30.91,0.036,0.851,0.15
30.92,-0.228,1.055,0.081
30.93,-0.418,0.851,-0.146
30.94,-0.149,1.28,-0.067
30.95,-0.16,0.822,0.028
30.96,-0.142,0.854,0.187
30.97,-0.296,1.045,-0.02
30.98,-0.26,0.888,-0.244
30.99,-0.238,1.077,-0.024
31.0,-0.106,0.812,0.178
31.01,-0.094,1.074,0.059
31.02,-0.336,0.808,-0.18
31.03,-0.316,1.171,-0.043
31.04,-0.103,0.988,0.01
31.05,-0.026,0.81,0.136
31.06,-0.335,1.043,0.051
31.07,-0.26,0.871,-0.213
31.08,-0.198,1.246,-0.06
31.09,-0.111,0.748,0.095
31.1,-0.156,0.965,0.22
31.11,-0.243,0.936,-0.153
31.12,-0.318,1.016,-0.162
31.13,-0.247,1.054,0.07
31.14,-0.021,0.816,0.14
31.15,-0.219,1.058,0.088
31.16,-0.351,0.848,-0.177
31.17,-0.238,1.305,-0.021
31.18,-0.149,0.783,0.032
31.19,-0.161,0.906,0.227
31.2,-0.243,0.977,-0.046
31.21,-0.362,0.937,-0.188
31.22,-0.188,1.084,-0.041
31.23,-0.098,0.881,0.188
31.24,-0.166,1.002,0.1
31.25,-0.33,0.819,-0.13
31.26,-0.303,1.206,-0.084
31.27,-0.066,0.984,0.017
31.28,-0.097,0.818,0.163
31.29,-0.281,0.995,0.032
31.3,-0.242,0.88,-0.188
31.31,-0.268,1.195,-0.023
31.32,-0.222,0.789,0.141
31.33,-0.085,1.031,0.154
31.34,-0.339,0.808,-0.126
31.35,-0.25,1.144,-0.116
31.36,-0.169,0.98,0.028
31.37,-0.047,0.918,0.119
31.38,-0.109,0.887,0.002
31.39,-0.403,0.962,-0.126
31.4,-0.16,1.247,-0.026
31.41,-0.19,0.805,0.042
31.42,-0.161,0.97,0.18
31.43,-0.268,0.831,-0.06
31.44,-0.318,1.147,-0.178
31.45,-0.179,0.895,-0.022
31.46,-0.144,0.913,0.188
31.47,-0.1,1.0,0.093
31.48,-0.37,0.828,-0.178
31.49,-0.258,1.19,-0.096
31.5,-0.086,0.926,0.09
31.51,-0.128,1.004,0.16
31.52,-0.199,0.805,-0.028
31.53,-0.354,1.101,-0.132
31.54,-0.146,1.101,-0.1
31.55,-0.178,0.815,0.05
31.56,-0.141,1.007,0.185
31.57,-0.213,0.841,-0.146
31.58,-0.386,1.185,-0.134
31.59,-0.198,0.872,0.013
31.6,-0.06,1.021,0.177
31.61,-0.149,0.869,0.052
31.62,-0.425,0.971,-0.151
31.63,-0.227,1.217,-0.03
31.64,-0.079,0.859,0.002
31.65,-0.192,0.961,0.204
31.66,-0.225,0.811,-0.052
31.67,-0.325,1.222,-0.192
31.68,-0.117,0.905,-0.091
31.69,-0.178,0.935,0.161
31.7,-0.132,0.978,0.155
31.71,-0.308,0.856,-0.192
31.72,-0.3,1.185,-0.093
31.73,-0.161,0.861,0.085
31.74,-0.095,1.073,0.134
31.75,-0.171,0.77,0.022
31.76,-0.401,1.098,-0.174
31.77,-0.116,1.125,-0.034
31.78,-0.146,0.876,0.045
31.79,-0.132,0.921,0.127
31.8,-0.251,0.864,-0.076
31.81,-0.351,1.253,-0.166
31.82,-0.219,0.824,0.002
31.83,-0.094,1.063,0.147
31.84,-0.099,0.828,0.055
31.85,-0.341,0.965,-0.141
31.86,-0.253,1.179,-0.062
31.87,-0.022,0.867,-0.002
31.88,-0.133,1.021,0.181
31.89,-0.231,0.754,-0.015
31.9,-0.43,1.224,-0.141
31.91,-0.095,0.951,-0.072
31.92,-0.223,0.946,0.117
31.93,-0.133,0.89,0.149
31.94,-0.292,0.908,-0.102
31.95,-0.351,1.167,-0.113
31.96,-0.178,0.854,0.034
31.97,-0.078,1.123,0.172
31.98,-0.11,0.729,0.014
31.99,-0.443,1.106,-0.164
32.0,-0.199,1.076,-0.047
32.01,-0.097,0.954,0.064
32.02,-0.194,0.966,0.141
32.03,-0.292,0.799,-0.026
32.04,-0.332,1.263,-0.151
32.05,-0.127,0.802,-0.065
32.06,-0.209,1.083,0.193
32.07,-0.007,0.819,0.059
32.08,-0.348,1.01,-0.147
32.09,-0.334,1.091,-0.117
32.1,-0.177,0.914,0.044
32.11,-0.006,0.906,0.135
32.12,-0.327,0.747,0.008
32.13,-0.435,1.255,-0.139
32.14,-0.082,0.875,-0.096
32.15,-0.247,1.119,0.141
32.16,-0.126,0.697,0.185
32.17,-0.302,1.004,-0.139
32.18,-0.313,0.987,-0.186
32.19,-0.215,0.952,0.022
32.2,-0.017,1.153,0.146
32.21,-0.114,0.637,0.026
32.22,-0.392,1.231,-0.165
32.23,-0.232,0.936,-0.064
32.24,-0.143,1.134,0.008
32.25,-0.014,0.762,0.132
32.26,-0.32,0.892,0.047
32.27,-0.355,1.156,-0.217
32.28,-0.121,0.809,-0.066
32.29,-0.199,1.203,0.13
32.3,-0.069,0.664,0.15
32.31,-0.37,1.14,-0.097
32.32,-0.225,0.887,-0.149
32.33,-0.287,1.065,0.069
32.34,0.01,0.991,0.147
32.35,-0.158,0.719,0.009
32.36,-0.49,1.227,-0.12
32.37,-0.07,0.858,-0.092
32.38,-0.196,1.223,0.11
32.39,-0.042,0.661,0.147
32.4,-0.385,1.041,-0.035
32.41,-0.291,1.016,-0.169
32.42,-0.194,0.886,-0.057
32.43,-0.196,1.134,0.16
32.44,-0.073,0.678,0.11
32.45,-0.361,1.172,-0.171
32.46,-0.304,0.762,-0.133
32.47,-0.225,1.216,0.067
32.48,0.021,0.824,0.119
32.49,-0.231,0.836,0.057
32.5,-0.437,1.153,-0.156
32.51,-0.158,0.909,-0.057
32.52,-0.17,1.167,0.059
32.53,-0.083,0.617,0.155
32.54,-0.377,1.165,-0.015
32.55,-0.289,0.864,-0.198
32.56,-0.156,1.013,-0.038
32.57,-0.189,1.054,0.181
32.58,-0.066,0.718,0.083
32.59,-0.363,1.141,-0.148
32.6,-0.232,0.761,-0.107
32.61,-0.167,1.307,0.029
32.62,-0.034,0.707,0.151
32.63,-0.229,0.979,0.033
32.64,-0.401,1.003,-0.148
32.65,-0.172,0.971,-0.056
32.66,-0.194,1.121,0.079
32.67,-0.082,0.621,0.136
32.68,-0.413,1.184,-0.076
32.69,-0.223,0.767,-0.18
32.7,-0.243,1.147,-0.027
32.71,-0.121,0.903,0.143
32.72,-0.135,0.832,0.078
32.73,-0.327,1.09,-0.138
32.74,-0.205,0.798,-0.077
32.75,-0.191,1.281,0.024
32.76,-0.003,0.648,0.152
32.77,-0.269,1.065,0.034
32.78,-0.351,0.864,-0.132
32.79,-0.213,1.104,-0.066
32.8,-0.105,1.0,0.068
32.81,-0.114,0.726,0.178
32.82,-0.393,1.155,-0.068
32.83,-0.233,0.765,-0.159
32.84,-0.206,1.246,-0.004
32.85,-0.094,0.813,0.161
32.86,-0.199,0.983,0.085
32.87,-0.296,0.949,-0.167
32.88,-0.208,0.949,-0.091
32.89,-0.143,1.187,0.044
32.9,0.011,0.669,0.141
32.91,-0.321,1.08,-0.014
32.92,-0.349,0.815,-0.121
32.93,-0.226,1.205,-0.028
32.94,-0.101,0.772,0.116
32.95,-0.187,1.038,0.146
32.96,-0.254,0.951,-0.153
32.97,-0.273,0.947,-0.138
32.98,-0.202,1.063,0.061
32.99,-0.002,0.821,0.146
33.0,-0.263,1.071,0.058
33.01,-0.388,0.767,-0.141
33.02,-0.228,1.234,-0.055
33.03,-0.119,0.886,0.053
33.04,-0.128,0.917,0.166
33.05,-0.299,1.01,-0.059
33.06,-0.256,0.891,-0.172
33.07,-0.232,1.112,-0.031
33.08,-0.075,0.754,0.152
33.09,-0.18,1.096,0.146
33.1,-0.277,0.833,-0.17
33.11,-0.303,1.08,-0.109
33.12,-0.172,1.014,0.058
33.13,-0.065,0.865,0.156
33.14,-0.205,0.98,0.023
33.15,-0.368,0.89,-0.142
33.16,-0.181,1.281,-0.062
33.17,-0.146,0.756,0.08
33.18,-0.141,0.959,0.175
33.19,-0.245,0.948,-0.097
33.2,-0.349,1.006,-0.185
33.21,-0.127,1.0,-0.031
33.22,-0.14,0.875,0.188
33.23,-0.161,1.056,0.079
33.24,-0.353,0.828,-0.146
33.25,-0.277,1.228,-0.114
33.26,-0.077,0.957,0.041
33.27,-0.08,0.927,0.151
33.28,-0.227,0.906,0.014
33.29,-0.294,0.957,-0.185
33.3,-0.146,1.158,-0.07
33.31,-0.171,0.814,0.132
33.32,-0.169,1.042,0.155
33.33,-0.227,0.822,-0.1
33.34,-0.372,1.127,-0.125
33.35,-0.176,0.902,-0.011
33.36,-0.092,0.984,0.22
33.37,-0.178,0.966,0.084
33.38,-0.361,0.837,-0.154
33.39,-0.25,1.247,-0.029
33.4,-0.038,0.874,0.042
33.41,-0.455,1.2,-0.159
33.42,-0.175,0.904,-0.061
33.43,-0.042,1.212,0.033
33.44,-0.094,0.689,0.157
33.45,-0.317,0.955,-0.023
33.46,-0.343,1.087,-0.146
33.47,-0.137,0.858,-0.048
33.48,-0.235,1.138,0.155
33.49,-0.094,0.659,0.126
33.5,-0.375,1.169,-0.145
33.51,-0.26,0.85,-0.125
33.52,-0.247,1.136,0.11
33.53,0.007,0.884,0.113
33.54,-0.207,0.786,0.022
33.55,-0.456,1.178,-0.143
33.56,-0.095,0.897,-0.099
33.57,-0.137,1.156,0.052
33.58,-0.103,0.686,0.19
33.59,-0.301,1.092,-0.051
33.6,-0.359,0.914,-0.149
33.61,-0.223,0.963,-0.025
33.62,-0.114,1.04,0.16
33.63,-0.051,0.684,0.077
33.64,-0.382,1.069,-0.161
33.65,-0.249,0.849,-0.054
33.66,-0.111,1.288,0.025
33.67,-0.013,0.633,0.13
33.68,-0.333,1.094,0.038
33.69,-0.331,0.908,-0.157
33.7,-0.198,1.064,-0.045
33.71,-0.194,0.995,0.084
33.72,-0.121,0.703,0.164
33.73,-0.326,1.157,-0.078
33.74,-0.225,0.739,-0.136
33.75,-0.28,1.249,0.011
33.76,-0.06,0.801,0.144
33.77,-0.162,0.985,0.094
33.78,-0.363,0.951,-0.178
33.79,-0.202,0.951,-0.05
33.8,-0.099,1.18,0.041
33.81,-0.11,0.669,0.154
33.82,-0.293,1.097,-0.006
33.83,-0.291,0.83,-0.122
33.84,-0.201,1.156,-0.045
33.85,-0.134,0.861,0.107
33.86,-0.163,0.871,0.169
33.87,-0.317,1.08,-0.089
33.88,-0.25,0.804,-0.169
33.89,-0.225,1.186,0.033
33.9,-0.04,0.783,0.156
33.91,-0.222,1.059,0.058
33.92,-0.301,0.804,-0.215
33.93,-0.262,1.093,-0.047
33.94,-0.119,1.07,0.023
33.95,-0.062,0.707,0.149
33.96,-0.34,1.135,0.017
33.97,-0.279,0.779,-0.174
33.98,-0.222,1.182,-0.076
33.99,-0.111,0.835,0.118
34.0,-0.17,0.987,0.147
34.01,-0.257,0.954,-0.139
34.02,-0.25,0.921,-0.107
34.03,-0.218,1.15,0.021
34.04,0.017,0.786,0.141
34.05,-0.24,1.093,0.044
34.06,-0.391,0.793,-0.159
34.07,-0.214,1.219,-0.059
34.08,-0.089,0.929,0.038
34.09,-0.077,0.833,0.166
34.1,-0.287,1.038,-0.017
34.11,-0.26,0.888,-0.187
34.12,-0.203,1.126,-0.061
34.13,-0.137,0.78,0.184
34.14,-0.152,1.081,0.104
34.15,-0.26,0.843,-0.166
34.16,-0.281,1.067,-0.121
34.17,-0.136,1.053,0.031
34.18,-0.011,0.85,0.149
34.19,-0.224,1.01,0.046
34.2,-0.403,0.824,-0.13
34.21,-0.186,1.269,-0.045
34.22,-0.161,0.808,0.054
34.23,-0.109,0.922,0.164
34.24,-0.335,0.93,-0.025
34.25,-0.261,1.003,-0.196
34.26,-0.191,1.04,-0.049
34.27,-0.155,0.845,0.186
34.28,-0.124,1.07,0.097
34.29,-0.336,0.797,-0.146
34.3,-0.252,1.144,-0.114
34.31,-0.085,0.987,0.079
34.32,-0.098,0.904,0.17
34.33,-0.217,0.91,0.028
34.34,-0.321,0.962,-0.147
34.35,-0.198,1.193,-0.095
34.36,-0.118,0.783,0.085
34.37,-0.165,1.058,0.209
34.38,-0.274,0.851,-0.103
34.39,-0.294,1.072,-0.166
34.4,-0.197,0.957,-0.021
34.41,-0.13,0.948,0.167
34.42,-0.133,1.024,0.091
34.43,-0.331,0.821,-0.152
34.44,-0.244,1.162,-0.061
34.45,-0.107,0.88,0.017
34.46,-0.114,1.015,0.136
34.47,-0.201,0.756,0.001
34.48,-0.358,1.222,-0.181
34.49,-0.165,0.928,-0.076
34.5,-0.19,0.958,0.13
34.51,-0.149,0.908,0.14
34.52,-0.317,0.865,-0.083
34.53,-0.349,1.175,-0.19
34.54,-0.092,0.795,-0.012
34.55,-0.146,1.177,0.188
34.56,-0.087,0.736,0.046
34.57,-0.393,1.081,-0.149
34.58,-0.205,1.062,-0.079
34.59,-0.124,1.034,0.076
34.6,-0.1,0.952,0.145
34.61,-0.255,0.761,-0.0
34.62,-0.422,1.253,-0.154
34.63,-0.088,0.856,-0.077
34.64,-0.192,1.065,0.101
34.65,-0.09,0.754,0.139
34.66,-0.376,0.991,-0.069
34.67,-0.316,1.092,-0.169
34.68,-0.127,0.844,-0.018
34.69,-0.179,1.136,0.187
34.7,-0.117,0.694,0.037
34.71,-0.434,1.173,-0.146
34.72,-0.219,0.9,-0.066
34.73,-0.1,1.145,0.084
34.74,-0.095,0.836,0.15
34.75,-0.203,0.817,-0.022
34.76,-0.454,1.237,-0.121
34.77,-0.04,0.871,-0.079
34.78,-0.191,1.117,0.114
34.79,-0.124,0.662,0.146
34.8,-0.402,1.147,-0.082
34.81,-0.332,0.975,-0.104
34.82,-0.195,0.97,0.018
34.83,-0.012,1.057,0.143
34.84,-0.162,0.697,0.01
34.85,-0.498,1.231,-0.146
34.86,-0.094,0.901,-0.059
34.87,-0.14,1.192,0.052
34.88,-0.135,0.631,0.199
34.89,-0.276,0.982,-0.01
34.9,-0.346,1.111,-0.182
34.91,-0.2,0.815,-0.039
34.92,-0.184,1.157,0.151
34.93,-0.078,0.668,0.134
34.94,-0.446,1.141,-0.126
34.95,-0.212,0.811,-0.148
34.96,-0.2,1.212,0.048
34.97,0.023,0.905,0.162
34.98,-0.228,0.799,0.019
34.99,-0.419,1.161,-0.116
35.0,-0.141,0.92,-0.054
35.01,-0.14,1.228,0.056
35.02,-0.078,0.583,0.145
35.03,-0.375,1.132,-0.019
35.04,-0.28,0.922,-0.162
35.05,-0.175,0.965,-0.054
35.06,-0.171,1.047,0.168
35.07,-0.091,0.715,0.12
35.08,-0.359,1.18,-0.187
35.09,-0.248,0.738,-0.109
35.1,-0.193,1.282,0.07
35.11,-0.005,0.797,0.151
35.12,-0.261,0.893,-0.008
35.13,-0.388,1.039,-0.155
35.14,-0.188,0.971,-0.018
35.15,-0.102,1.144,0.066
35.16,-0.119,0.594,0.134
35.17,-0.398,1.187,-0.026
35.18,-0.258,0.855,-0.189
35.19,-0.178,1.048,-0.078
35.2,-0.103,0.938,0.224
35.21,-0.098,0.849,0.066
35.22,-0.416,1.066,-0.159
35.23,-0.214,0.938,-0.031
35.24,-0.131,1.214,0.037
35.25,-0.041,0.633,0.132
35.26,-0.34,1.154,0.01
35.27,-0.267,0.762,-0.21
35.28,-0.226,1.093,-0.025
35.29,-0.161,0.979,0.137
35.3,-0.08,0.882,0.152
35.31,-0.332,1.05,-0.124
35.32,-0.22,0.735,-0.137
35.33,-0.313,1.28,0.05
35.34,0.023,0.783,0.15
35.35,-0.229,1.082,0.046
35.36,-0.338,0.836,-0.172
35.37,-0.262,1.083,-0.046
35.38,-0.157,1.061,0.041
35.39,-0.017,0.71,0.119
35.4,-0.341,1.128,0.004
35.41,-0.294,0.808,-0.168
35.42,-0.242,1.183,-0.059
35.43,-0.12,0.79,0.117
35.44,-0.108,1.015,0.145
35.45,-0.269,0.971,-0.147
35.46,-0.294,0.835,-0.145
35.47,-0.218,1.166,0.058
35.48,-0.014,0.889,0.154
35.49,-0.261,1.071,0.04
35.5,-0.319,0.779,-0.149
35.51,-0.248,1.246,-0.013
35.52,-0.131,0.927,0.048
35.53,-0.08,0.84,0.158
35.54,-0.333,1.082,0.018
35.55,-0.315,0.838,-0.194
35.56,-0.164,1.14,-0.096
35.57,-0.145,0.812,0.193
35.58,-0.108,1.076,0.119
35.59,-0.312,0.847,-0.15
35.6,-0.271,1.034,-0.128
35.61,-0.135,1.072,0.042
35.62,0.014,0.792,0.141
35.63,-0.214,1.044,0.024
35.64,-0.345,0.825,-0.124
35.65,-0.16,1.276,-0.076
35.66,-0.189,0.828,0.046
35.67,-0.094,0.94,0.162
35.68,-0.301,0.927,-0.044
35.69,-0.32,0.999,-0.182
35.7,-0.178,1.048,-0.074
35.71,-0.147,0.811,0.173
35.72,-0.105,1.073,0.128
35.73,-0.309,0.807,-0.14
35.74,-0.321,1.12,-0.134
35.75,-0.134,0.941,0.051
35.76,-0.048,0.982,0.143
35.77,-0.172,0.883,0.033
35.78,-0.412,0.949,-0.144
35.79,-0.202,1.223,-0.045
35.8,-0.132,0.798,0.053
35.81,-0.136,0.983,0.171
35.82,-0.275,0.848,-0.046
35.83,-0.272,1.13,-0.202
35.84,-0.118,0.932,-0.067
35.85,-0.213,0.917,0.175
35.86,-0.096,1.014,0.123
35.87,-0.367,0.836,-0.161
35.88,-0.314,1.139,-0.096
35.89,-0.136,0.926,0.081
35.9,-0.095,1.033,0.134
35.91,-0.22,0.779,0.009
35.92,-0.376,1.031,-0.119
35.93,-0.158,1.107,-0.047
35.94,-0.152,0.85,0.058
35.95,-0.137,0.982,0.187
35.96,-0.279,0.845,-0.019
35.97,-0.352,1.213,-0.185
35.98,-0.183,0.806,-0.033
35.99,-0.136,1.06,0.239
36.0,-0.105,0.88,0.101
36.01,-0.404,0.922,-0.145
36.02,-0.26,1.111,-0.093
36.03,-0.151,1.028,0.066
36.04,-0.097,0.943,0.161
36.05,-0.17,0.704,-0.022
36.06,-0.435,1.257,-0.101
36.07,-0.146,0.895,-0.115
36.08,-0.138,1.088,0.098
36.09,-0.098,0.777,0.159
36.1,-0.354,0.996,-0.098
36.11,-0.33,1.073,-0.156
36.12,-0.15,0.861,-0.027
36.13,-0.207,1.128,0.195
36.14,-0.078,0.702,0.057
36.15,-0.412,1.172,-0.159
36.16,-0.197,0.853,-0.096
36.17,-0.066,1.169,0.06
36.18,-0.059,0.842,0.157
36.19,-0.224,0.777,-0.003
36.2,-0.382,1.252,-0.132
36.21,-0.16,0.878,-0.082
36.22,-0.165,1.129,0.121
36.23,-0.056,0.638,0.123
36.24,-0.425,1.128,-0.053
36.25,-0.296,0.925,-0.167
36.26,-0.167,0.923,-0.03
36.27,-0.097,1.095,0.181
36.28,-0.079,0.704,0.04
36.29,-0.441,1.182,-0.149
36.3,-0.23,0.856,-0.057
36.31,-0.154,1.264,0.009
36.32,-0.034,0.687,0.16
36.33,-0.29,0.936,0.026
36.34,-0.406,1.114,-0.141
36.35,-0.152,0.885,-0.096
36.36,-0.136,1.116,0.086
36.37,-0.071,0.62,0.145
36.38,-0.386,1.184,-0.089
36.39,-0.24,0.777,-0.148
36.4,-0.278,1.125,-0.004
36.41,-0.05,0.98,0.175
36.42,-0.151,0.794,0.08
36.43,-0.341,1.114,-0.168
36.44,-0.243,0.831,-0.079
36.45,-0.141,1.266,0.048
36.46,0.025,0.677,0.178
36.47,-0.304,1.017,0.011
36.48,-0.394,0.919,-0.122
36.49,-0.134,1.016,-0.067
36.5,-0.127,1.026,0.066
36.51,-0.125,0.661,0.195
36.52,-0.363,1.205,-0.078
36.53,-0.263,0.721,-0.164
36.54,-0.239,1.171,-0.007
36.55,-0.092,0.905,0.201
36.56,-0.178,0.912,0.064
36.57,-0.307,0.995,-0.185
36.58,-0.247,0.936,-0.059
36.59,-0.104,1.223,-0.008
36.6,-0.04,0.616,0.166
36.61,-0.355,1.131,0.035
36.62,-0.257,0.842,-0.148
36.63,-0.289,1.089,-0.054
36.64,-0.087,0.912,0.082
36.65,-0.135,0.831,0.174
36.66,-0.339,1.133,-0.089
36.67,-0.188,0.706,-0.19
36.68,-0.304,1.259,0.028
36.69,0.0,0.795,0.154
36.7,-0.196,1.035,0.085
36.71,-0.333,0.923,-0.18
36.72,-0.244,1.008,-0.069
36.73,-0.107,1.104,0.029
36.74,-0.023,0.712,0.144
36.75,-0.292,1.118,-0.015
36.76,-0.313,0.809,-0.116
36.77,-0.235,1.225,-0.064
36.78,-0.09,0.821,0.075
36.79,-0.165,0.922,0.176
36.8,-0.256,1.029,-0.095
36.81,-0.299,0.851,-0.129
36.82,-0.21,1.134,-0.053
36.83,0.029,0.865,0.148
36.84,-0.206,1.068,0.049
36.85,-0.315,0.789,-0.145
36.86,-0.295,1.263,-0.023
36.87,-0.072,0.9,0.013
36.88,-0.109,0.968,0.15
36.89,-0.3,0.917,0.006
36.9,-0.313,0.958,-0.181
36.91,-0.175,1.096,-0.091
36.92,-0.106,0.814,0.108
36.93,-0.187,1.076,0.155
36.94,-0.211,0.803,-0.167
36.95,-0.335,1.114,-0.147
36.96,-0.221,0.903,0.014
36.97,-0.058,1.001,0.174
36.98,-0.156,0.963,0.026
36.99,-0.344,0.892,-0.111
37.0,-0.267,1.239,-0.048
37.01,-0.071,0.868,-0.003
37.02,-0.095,0.985,0.183
37.03,-0.19,0.805,-0.018
37.04,-0.381,1.165,-0.147
37.05,-0.173,0.987,-0.08
37.06,-0.157,0.893,0.097
37.07,-0.145,1.008,0.158
37.08,-0.304,0.82,-0.116
37.09,-0.332,1.158,-0.125
37.1,-0.15,0.812,-0.022
37.11,-0.073,1.095,0.17
37.12,-0.084,0.825,0.068
37.13,-0.379,0.997,-0.151
37.14,-0.252,1.09,-0.087
37.15,-0.144,0.99,0.071
37.16,-0.103,1.036,0.138
37.17,-0.175,0.721,-0.021
37.18,-0.431,1.255,-0.152
37.19,-0.067,0.944,-0.083
37.2,-0.15,1.011,0.073
37.21,-0.12,0.802,0.138
37.22,-0.312,0.959,-0.044
37.23,-0.296,1.171,-0.162
37.24,-0.179,0.75,-0.034
37.25,-0.148,1.149,0.23
37.26,-0.058,0.732,0.054
37.27,-0.443,1.101,-0.147
37.28,-0.229,0.933,-0.098
37.29,-0.139,1.087,0.057
37.3,-0.051,0.94,0.128
37.31,-0.216,0.727,0.01
37.32,-0.405,1.25,-0.151
37.33,-0.126,0.911,-0.061
37.34,-0.176,1.159,0.063
37.35,-0.093,0.66,0.17
37.36,-0.379,1.023,-0.044
37.37,-0.283,1.032,-0.172
37.38,-0.171,0.856,-0.017
37.39,-0.094,1.112,0.155
37.4,-0.077,0.693,0.09
37.41,-0.453,1.18,-0.143
37.42,-0.204,0.81,-0.123
37.43,-0.167,1.264,0.1
37.44,-0.022,0.853,0.139
37.45,-0.29,0.808,0.034
37.46,-0.369,1.147,-0.13
37.47,-0.11,0.924,-0.063
37.48,-0.183,1.179,0.074
37.49,-0.104,0.626,0.167
37.5,-0.376,1.148,-0.04
37.51,-0.285,0.895,-0.168
37.52,-0.206,0.979,-0.035
37.53,-0.128,1.033,0.173
37.54,-0.128,0.767,0.078
37.55,-0.35,1.164,-0.167
37.56,-0.242,0.74,-0.109
37.57,-0.173,1.269,0.084
37.58,-0.007,0.803,0.151
37.59,-0.298,0.931,0.017
37.6,-0.363,1.01,-0.154
37.61,-0.148,1.007,-0.041
37.62,-0.128,0.948,0.067
37.63,-0.118,0.708,0.175
37.64,-0.36,1.177,-0.076
37.65,-0.25,0.776,-0.159
37.66,-0.276,1.164,-0.006
37.67,-0.056,0.81,0.2
37.68,-0.179,1.037,0.073
37.69,-0.355,0.898,-0.202
37.7,-0.223,0.906,-0.111
37.71,-0.116,1.236,0.07
37.72,-0.02,0.749,0.12
37.73,-0.304,1.086,0.002
37.74,-0.375,0.769,-0.118
37.75,-0.132,1.193,-0.063
37.76,-0.098,0.875,0.073
37.77,-0.184,0.858,0.159
37.78,-0.293,1.057,-0.061
37.79,-0.241,0.86,-0.171
37.8,-0.245,1.134,0.015
37.81,-0.096,0.755,0.208
37.82,-0.178,1.112,0.08
37.83,-0.305,0.804,-0.226
37.84,-0.275,1.032,-0.091
37.85,-0.092,1.102,0.095
37.86,-0.075,0.835,0.117
37.87,-0.27,0.997,-0.039
37.88,-0.36,0.797,-0.075
37.89,-0.166,1.263,-0.038
37.9,-0.11,0.785,0.056
37.91,-0.204,0.981,0.173
37.92,-0.281,0.955,-0.085
37.93,-0.324,0.963,-0.138
37.94,-0.206,1.059,0.004
37.95,-0.032,0.861,0.184
37.96,-0.177,1.059,0.019
37.97,-0.341,0.764,-0.168
37.98,-0.307,1.222,-0.033
37.99,-0.061,0.924,0.037
38.0,-0.068,0.893,0.155
38.01,-0.29,0.931,-0.034
38.02,-0.323,0.941,-0.136
38.03,-0.126,1.142,-0.078
38.04,-0.095,0.734,0.121
38.05,-0.168,1.068,0.143
38.06,-0.272,0.876,-0.132
38.07,-0.334,1.062,-0.103
38.08,-0.2,0.995,0.049
38.09,-0.021,0.947,0.169
38.1,-0.237,0.978,0.025
38.11,-0.353,0.802,-0.136
38.12,-0.236,1.292,-0.005
38.13,-0.06,0.824,0.05
38.14,-0.11,0.948,0.175
38.15,-0.251,0.912,-0.037
38.16,-0.307,1.052,-0.16
38.17,-0.176,1.013,-0.063
38.18,-0.154,0.861,0.137
38.19,-0.166,1.089,0.142
38.2,-0.265,0.815,-0.2
38.21,-0.338,1.108,-0.11
38.22,-0.152,0.892,0.068
38.23,-0.01,1.027,0.145
38.24,-0.162,0.886,0.003
38.25,-0.354,0.937,-0.142
38.26,-0.268,1.225,-0.007
38.27,-0.065,0.835,0.063
38.28,-0.157,1.026,0.155
38.29,-0.297,0.801,-0.066
38.3,-0.285,1.191,-0.155
38.31,-0.184,0.93,-0.045
38.32,-0.169,0.9,0.159
38.33,-0.081,0.99,0.145
38.34,-0.313,0.875,-0.199
38.35,-0.319,1.089,-0.128
38.36,-0.149,0.901,0.083
38.37,-0.028,1.126,0.142
38.38,-0.165,0.743,-0.026
38.39,-0.414,1.114,-0.124
38.4,-0.095,1.114,-0.092
38.41,-0.126,0.878,0.06
38.42,-0.138,0.81,0.141
38.43,-0.289,0.968,-0.099
38.44,-0.277,1.163,-0.186
38.45,-0.186,0.834,-0.008
38.46,-0.118,1.147,0.215
38.47,-0.077,0.693,0.026
38.48,-0.487,1.117,-0.165
38.49,-0.22,1.013,-0.056
38.5,-0.073,1.059,0.021
38.51,-0.097,0.85,0.139
38.52,-0.286,0.802,0.0
38.53,-0.348,1.282,-0.163
38.54,-0.134,0.824,-0.042
38.55,-0.184,1.067,0.11
38.56,-0.086,0.765,0.155
38.57,-0.371,1.03,-0.104
38.58,-0.288,0.999,-0.149
38.59,-0.219,0.958,0.032
38.6,-0.083,1.131,0.145
38.61,-0.113,0.665,0.019
38.62,-0.467,1.231,-0.151
38.63,-0.127,0.958,-0.041
38.64,-0.189,1.121,0.047
38.65,-0.06,0.707,0.166
38.66,-0.343,0.932,0.028
38.67,-0.344,1.161,-0.186
38.68,-0.165,0.784,-0.043
38.69,-0.147,1.177,0.145
38.7,-0.126,0.703,0.176
38.71,-0.375,1.109,-0.131
38.72,-0.222,0.84,-0.154
38.73,-0.248,1.118,0.056
38.74,-0.035,1.025,0.164
38.75,-0.123,0.712,0.025
38.76,-0.471,1.206,-0.129
38.77,-0.113,0.906,-0.071
38.78,-0.21,1.247,0.066
38.79,-0.045,0.601,0.184
38.8,-0.364,1.05,0.01
38.81,-0.301,1.026,-0.202
38.82,-0.168,0.885,-0.073
38.83,-0.162,1.104,0.128
38.84,-0.064,0.674,0.146
38.85,-0.423,1.164,-0.148
38.86,-0.25,0.758,-0.075
38.87,-0.218,1.267,0.037
38.88,-0.054,0.853,0.151
38.89,-0.172,0.84,0.039
38.9,-0.424,1.09,-0.151
38.91,-0.104,0.91,-0.045
38.92,-0.189,1.261,0.065
38.93,-0.057,0.562,0.143
38.94,-0.325,1.142,-0.028
38.95,-0.3,0.856,-0.178
38.96,-0.181,1.0,-0.056
38.97,-0.128,1.018,0.163
38.98,-0.123,0.758,0.108
38.99,-0.409,1.148,-0.164
39.0,-0.166,0.766,-0.128
39.01,-0.214,1.306,0.059
39.02,-0.029,0.76,0.175
39.03,-0.216,0.989,0.018
39.04,-0.351,0.94,-0.171
39.05,-0.201,0.962,-0.064
39.06,-0.126,1.186,0.062
39.07,-0.066,0.632,0.116
39.08,-0.34,1.135,-0.068
39.09,-0.301,0.789,-0.141
39.1,-0.24,1.161,-0.032
39.11,-0.056,0.837,0.137
39.12,-0.182,0.893,0.118
39.13,-0.336,1.083,-0.143
39.14,-0.276,0.827,-0.094
39.15,-0.207,1.22,0.058
39.16,0.013,0.76,0.159
39.17,-0.342,1.058,-0.026
39.18,-0.367,0.765,-0.131
39.19,-0.15,1.139,-0.017
39.2,-0.17,1.026,0.126
39.21,-0.178,0.905,0.195
39.22,-0.227,1.04,-0.112
39.23,-0.363,0.891,-0.164
39.24,-0.291,1.08,0.019
39.25,0.06,0.799,0.16
39.26,-0.251,1.098,0.029
39.27,-0.417,0.798,-0.181
39.28,-0.16,1.173,-0.034
39.29,-0.15,1.0,0.085
39.3,-0.144,0.768,0.172
39.31,-0.245,1.063,-0.028
39.32,-0.28,0.832,-0.173
39.33,-0.23,1.08,-0.06
39.34,-0.111,0.798,0.166
39.35,-0.116,1.092,0.098
39.36,-0.328,0.84,-0.16
39.37,-0.227,0.999,-0.107
39.38,-0.125,1.172,0.04
39.39,-0.071,0.722,0.132
39.4,-0.177,1.047,0.043
39.41,-0.36,0.899,-0.12
39.42,-0.211,1.216,-0.117
39.43,-0.194,0.746,0.106
39.44,-0.144,0.951,0.203
39.45,-0.307,0.994,-0.073
39.46,-0.36,0.892,-0.143
39.47,-0.234,1.109,-0.013
39.48,-0.057,0.845,0.162
39.49,-0.167,1.054,0.075
39.5,-0.303,0.807,-0.137
39.51,-0.279,1.195,-0.118
39.52,-0.057,1.001,0.011
39.53,-0.067,0.839,0.116
39.54,-0.264,0.948,0.02
39.55,-0.297,0.923,-0.089
39.56,-0.208,1.207,-0.049
39.57,-0.142,0.733,0.119
39.58,-0.155,1.045,0.148
39.59,-0.243,0.898,-0.11
39.6,-0.323,1.037,-0.173
39.61,-0.227,0.973,0.015
39.62,-0.057,0.936,0.182
39.63,-0.148,1.032,0.068
39.64,-0.361,0.819,-0.153
39.65,-0.29,1.257,-0.024
39.66,-0.061,0.903,0.018
39.67,-0.125,0.937,0.147
39.68,-0.26,0.853,-0.019
39.69,-0.282,1.052,-0.169
39.7,-0.197,1.096,-0.067
39.71,-0.106,0.795,0.059
39.72,-0.137,1.067,0.195
39.73,-0.285,0.831,-0.107
39.74,-0.314,1.157,-0.13
39.75,-0.271,0.875,0.006
39.76,-0.017,1.006,0.168
39.77,-0.175,0.953,0.059
39.78,-0.404,0.91,-0.119
39.79,-0.262,1.204,-0.058
39.8,-0.094,0.882,0.062
39.81,-0.147,0.985,0.153
39.82,-0.207,0.803,-0.004
39.83,-0.349,1.154,-0.135
39.84,-0.145,0.934,-0.075
39.85,-0.125,0.904,0.103
39.86,-0.182,0.977,0.141
39.87,-0.294,0.866,-0.111
39.88,-0.295,1.181,-0.106
39.89,-0.111,0.818,-0.024
39.9,-0.142,1.129,0.225
39.91,-0.085,0.793,0.021
39.92,-0.379,1.038,-0.151
39.93,-0.247,1.068,-0.061
39.94,-0.079,0.998,0.048
39.95,-0.07,0.973,0.136
39.96,-0.239,0.779,-0.059
39.97,-0.406,1.252,-0.133
39.98,-0.143,0.828,-0.047
39.99,-0.111,1.015,0.138
40.0,-0.175,0.858,0.177
40.01,-0.345,1.064,-0.14
40.02,-0.263,1.007,-0.108
40.03,-0.141,1.014,0.052
40.04,-0.107,0.986,0.152
40.05,-0.225,0.724,0.007
40.06,-0.397,1.265,-0.138
40.07,-0.136,0.886,-0.096
40.08,-0.184,1.102,0.085
40.09,-0.092,0.714,0.167
40.1,-0.314,0.995,-0.047
40.11,-0.326,1.062,-0.17
40.12,-0.159,0.855,-0.032
40.13,-0.069,1.149,0.148
40.14,-0.114,0.714,0.065
40.15,-0.427,1.157,-0.133
40.16,-0.22,0.873,-0.091
40.17,-0.114,1.221,0.062
40.18,-0.069,0.879,0.123
40.19,-0.222,0.783,0.023
40.2,-0.42,1.186,-0.15
40.21,-0.062,0.905,-0.081
40.22,-0.201,1.183,0.108
40.23,-0.029,0.615,0.111
40.24,-0.428,1.113,-0.048
40.25,-0.315,0.902,-0.185
40.26,-0.181,0.932,-0.003
40.27,-0.135,1.043,0.185
40.28,-0.105,0.717,0.069
40.29,-0.407,1.162,-0.162
40.3,-0.195,0.778,-0.097
40.31,-0.08,1.279,0.046
40.32,-0.057,0.723,0.172
40.33,-0.257,0.925,0.025
40.34,-0.412,1.093,-0.125
40.35,-0.149,0.909,-0.064
40.36,-0.218,1.144,0.13
40.37,-0.116,0.641,0.161
40.38,-0.371,1.149,-0.07
40.39,-0.227,0.792,-0.189
40.4,-0.193,1.103,-0.02
40.41,-0.08,0.941,0.178
40.42,-0.127,0.831,0.06
40.43,-0.355,1.101,-0.18
40.44,-0.184,0.831,-0.065
40.45,-0.175,1.242,0.056
40.46,-0.016,0.682,0.145
40.47,-0.344,1.089,0.018
40.48,-0.362,0.898,-0.157
40.49,-0.206,1.037,-0.053
40.5,-0.07,1.008,0.067
40.51,-0.143,0.699,0.178
40.52,-0.331,1.141,-0.081
40.53,-0.27,0.785,-0.158
40.54,-0.145,1.178,0.01
40.55,-0.138,0.831,0.182
40.56,-0.167,0.968,0.101
40.57,-0.375,0.976,-0.17
40.58,-0.205,0.917,-0.078
40.59,-0.18,1.246,0.072
40.6,-0.054,0.671,0.133
40.61,-0.314,1.108,0.008
40.62,-0.352,0.866,-0.105
40.63,-0.22,1.174,-0.04
40.64,-0.098,0.865,0.069
40.65,-0.183,0.895,0.184
40.66,-0.33,1.074,-0.1
40.67,-0.309,0.79,-0.129
40.68,-0.248,1.159,0.0
40.69,-0.027,0.827,0.199
40.7,-0.193,1.053,0.073
40.71,-0.36,0.854,-0.192
40.72,-0.194,1.083,-0.073
40.73,-0.112,1.076,0.023
40.74,-0.086,0.745,0.154
40.75,-0.282,1.089,0.001
40.76,-0.316,0.784,-0.148
40.77,-0.258,1.171,-0.024
40.78,-0.137,0.857,0.106
40.79,-0.116,1.01,0.159
40.8,-0.277,0.83,-0.146
40.81,-0.281,1.052,-0.118
40.82,-0.158,1.042,0.04
40.83,-0.028,0.868,0.174
40.84,-0.194,0.99,0.046
40.85,-0.382,0.846,-0.132
40.86,-0.24,1.224,-0.082
40.87,-0.096,0.859,0.053
40.88,-0.132,1.009,0.184
40.89,-0.274,0.859,-0.034
40.9,-0.272,1.067,-0.179
40.91,-0.179,1.047,-0.065
40.92,-0.122,0.809,0.137
40.93,-0.137,1.075,0.137
40.94,-0.325,0.822,-0.129
40.95,-0.299,1.187,-0.134
40.96,-0.179,0.878,0.045
40.97,-0.078,0.972,0.155
40.98,-0.185,0.881,0.032
40.99,-0.363,0.967,-0.162
41.0,-0.241,1.199,-0.017
41.01,-0.044,0.871,0.061
41.02,-0.164,0.972,0.129
41.03,-0.25,0.775,-0.047
41.04,-0.322,1.248,-0.129
41.05,-0.203,0.945,-0.044
41.06,-0.189,0.888,0.148
41.07,-0.083,0.962,0.132
41.08,-0.326,0.865,-0.147
41.09,-0.315,1.139,-0.13
41.1,-0.167,0.895,0.07
41.11,-0.032,1.071,0.119
41.12,-0.136,0.738,-0.021
41.13,-0.427,1.099,-0.126
41.14,-0.129,1.104,-0.086
41.15,-0.126,0.958,0.059
41.16,-0.122,0.948,0.139
41.17,-0.279,0.797,-0.01
41.18,-0.333,1.269,-0.151
41.19,-0.181,0.829,-0.039
41.2,-0.166,1.066,0.154
41.21,-0.079,0.827,0.124
41.22,-0.363,0.979,-0.118
41.23,-0.266,1.056,-0.13
41.24,-0.161,0.979,0.047
41.25,-0.065,1.057,0.131
41.26,-0.148,0.685,0.03
41.27,-0.394,1.214,-0.138
41.28,-0.161,0.967,-0.065
41.29,-0.155,1.079,0.07
41.3,-0.16,0.781,0.166
41.31,-0.3,0.863,-0.007
41.32,-0.387,1.227,-0.164
41.33,-0.105,0.815,-0.051
41.34,-0.184,1.143,0.135
41.35,-0.068,0.692,0.117
41.36,-0.339,1.121,-0.103
41.37,-0.299,0.921,-0.129
41.38,-0.226,0.994,0.013
41.39,-0.038,1.048,0.139
41.4,-0.136,0.701,0.015
41.41,-0.471,1.202,-0.165
41.42,-0.172,0.867,-0.053
41.43,-0.158,1.231,0.054
41.44,-0.076,0.671,0.142
41.45,-0.333,0.94,-0.037
41.46,-0.295,1.032,-0.157
41.47,-0.167,0.885,-0.05
41.48,-0.171,1.124,0.114
41.49,-0.075,0.673,0.155
41.5,-0.454,1.186,-0.082
41.51,-0.264,0.76,-0.182
41.52,-0.284,1.147,0.067
41.53,0.068,0.924,0.117
41.54,-0.213,0.838,0.033
41.55,-0.385,1.102,-0.154
41.56,-0.203,0.866,-0.079
41.57,-0.09,1.285,0.016
41.58,-0.06,0.627,0.149
41.59,-0.387,1.139,-0.002
41.6,-0.243,0.81,-0.159
41.61,-0.219,1.164,-0.038
41.62,-0.139,0.899,0.131
41.63,-0.091,0.869,0.152
41.64,-0.344,1.052,-0.13
41.65,-0.253,0.729,-0.127
41.66,-0.221,1.219,0.028
41.67,-0.037,0.824,0.17
41.68,-0.207,1.091,0.058
41.69,-0.352,0.86,-0.151
41.7,-0.242,1.099,-0.018
41.71,-0.151,1.032,0.026
41.72,-0.021,0.708,0.158
41.73,-0.297,1.114,0.006
41.74,-0.277,0.826,-0.15
41.75,-0.196,1.094,0.076
41.76,-0.369,0.87,-0.127
41.77,-0.19,1.263,-0.054
41.78,-0.136,0.827,0.003
41.79,-0.115,0.954,0.198
41.8,-0.225,0.869,-0.05
41.81,-0.272,1.114,-0.156
41.82,-0.223,1.023,-0.076
41.83,-0.156,0.818,0.102
41.84,-0.108,1.064,0.155
41.85,-0.267,0.823,-0.122
41.86,-0.382,1.098,-0.122
41.87,-0.145,0.809,0.026
41.88,-0.046,1.114,0.169
41.89,-0.161,0.878,0.059
41.9,-0.331,0.95,-0.102
41.91,-0.255,1.193,-0.076
41.92,-0.145,0.923,0.026
41.93,-0.102,0.996,0.154
41.94,-0.172,0.746,-0.044
41.95,-0.4,1.19,-0.151
41.96,-0.137,0.958,-0.087
41.97,-0.146,0.954,0.114
41.98,-0.118,0.891,0.168
41.99,-0.359,0.89,-0.081
42.0,-0.366,1.179,-0.156
42.01,-0.15,0.779,-0.015
42.02,-0.147,1.129,0.153
42.03,-0.147,0.765,0.086
42.04,-0.365,1.057,-0.155
42.05,-0.237,0.971,-0.122
42.06,-0.131,1.056,0.092
42.07,-0.062,1.041,0.135
42.08,-0.143,0.716,0.009
42.09,-0.397,1.265,-0.145
42.1,-0.169,0.938,-0.049
42.11,-0.105,1.146,0.013
42.12,-0.129,0.717,0.146
42.13,-0.357,0.978,-0.041
42.14,-0.346,1.108,-0.152
42.15,-0.127,0.854,-0.06
42.16,-0.157,1.12,0.158
42.17,-0.104,0.67,0.099
42.18,-0.396,1.159,-0.185
42.19,-0.209,0.82,-0.137
42.2,-0.192,1.186,0.093
42.21,-0.036,0.872,0.08
42.22,-0.233,0.807,0.036
42.23,-0.411,1.17,-0.122
42.24,-0.117,0.919,-0.064
42.25,-0.136,1.187,0.054
42.26,-0.109,0.617,0.174
42.27,-0.338,1.073,-0.034
42.28,-0.261,0.962,-0.197
42.29,-0.21,0.966,-0.055
42.3,-0.07,0.998,0.104
42.31,-0.099,0.754,0.106
42.32,-0.359,1.08,-0.133
42.33,-0.249,0.806,-0.074
42.34,-0.165,1.281,0.023
42.35,-0.014,0.689,0.153
42.36,-0.276,1.054,0.036
42.37,-0.383,0.88,-0.172
42.38,-0.218,1.104,-0.071
42.39,-0.077,1.066,0.04
42.4,-0.044,0.709,0.136
42.41,-0.367,1.118,-0.038
42.42,-0.301,0.792,-0.127
42.43,-0.188,1.162,-0.045
42.44,-0.12,0.762,0.146
42.45,-0.173,0.99,0.123
42.46,-0.307,1.028,-0.157
42.47,-0.23,0.923,-0.165
42.48,-0.196,1.122,0.03
42.49,-0.0,0.785,0.187
42.5,-0.231,1.118,0.039
42.51,-0.381,0.763,-0.161
42.52,-0.273,1.138,-0.026
42.53,-0.06,0.993,0.078
42.54,-0.114,0.856,0.123
42.55,-0.289,0.986,-0.093
42.56,-0.281,0.873,-0.126
42.57,-0.131,1.177,-0.03
42.58,-0.091,0.721,0.104
42.59,-0.153,1.057,0.17
42.6,-0.253,0.916,-0.147
42.61,-0.317,1.063,-0.118
42.62,-0.213,0.981,0.085
42.63,-0.008,0.897,0.155
42.64,-0.251,1.029,0.001
42.65,-0.384,0.824,-0.125
42.66,-0.175,1.258,-0.067
42.67,-0.13,0.834,0.064
42.68,-0.122,0.962,0.174
42.69,-0.233,0.937,-0.052
42.7,-0.237,0.985,-0.213
42.71,-0.203,1.023,-0.061
42.72,-0.107,0.853,0.195
42.73,-0.127,1.112,0.093
42.74,-0.318,0.8,-0.171
42.75,-0.393,1.179,-0.041
42.76,-0.088,0.933,0.01
42.77,-0.062,0.878,0.14
42.78,-0.211,0.93,0.014
42.79,-0.354,1.009,-0.102
42.8,-0.186,1.199,-0.103
42.81,-0.102,0.732,0.053
42.82,-0.151,1.062,0.193
42.83,-0.252,0.852,-0.063
42.84,-0.351,1.139,-0.189
42.85,-0.215,0.884,-0.072
42.86,-0.124,0.964,0.184
42.87,-0.067,1.003,0.087
42.88,-0.346,0.842,-0.15
42.89,-0.34,1.154,-0.091
42.9,-0.07,0.905,0.026
42.91,-0.091,1.041,0.162
42.92,-0.143,0.771,0.013
42.93,-0.442,1.146,-0.148
42.94,-0.118,1.104,-0.096
42.95,-0.164,0.896,0.077
42.96,-0.069,0.889,0.153
42.97,-0.329,0.849,0.005
42.98,-0.359,1.273,-0.147
42.99,-0.18,0.808,-0.071
43.0,-0.183,1.019,0.169
43.01,-0.078,0.863,0.118
43.02,-0.351,0.958,-0.144
43.03,-0.323,1.039,-0.104
43.04,-0.142,0.943,0.086
43.05,-0.094,1.095,0.163
43.06,-0.163,0.68,0.03
43.07,-0.426,1.223,-0.12
43.08,-0.125,0.987,-0.072
43.09,-0.186,1.016,0.047
43.1,-0.085,0.785,0.165
43.11,-0.355,0.906,0.019
43.12,-0.366,1.035,-0.184
43.13,-0.223,0.873,-0.063
43.14,-0.105,1.181,0.177
43.15,-0.001,0.659,0.06
43.16,-0.478,1.189,-0.108
43.17,-0.199,0.795,-0.134
43.18,-0.185,1.24,0.065
43.19,-0.011,0.867,0.105
43.2,-0.255,0.818,0.042
43.21,-0.412,1.151,-0.125
43.22,-0.167,0.93,-0.051
43.23,-0.171,1.189,0.023
43.24,-0.018,0.56,0.171
43.25,-0.403,1.115,0.032
43.26,-0.239,0.953,-0.206
43.27,-0.242,1.016,-0.039
43.28,-0.094,0.973,0.105
43.29,-0.198,0.775,0.161
43.3,-0.317,1.142,-0.136
43.31,-0.269,0.706,-0.137
43.32,-0.267,1.249,0.047
43.33,-0.052,0.855,0.202
43.34,-0.16,0.934,0.041
43.35,-0.402,0.973,-0.18
43.36,-0.197,0.982,-0.061
43.37,-0.106,1.177,0.003
43.38,-0.039,0.608,0.148
43.39,-0.378,1.161,0.024
43.4,-0.226,0.84,-0.12
43.41,-0.24,1.131,-0.056
43.42,-0.142,0.878,0.115
43.43,-0.116,0.877,0.153
43.44,-0.349,1.087,-0.068
43.45,-0.274,0.764,-0.128
43.46,-0.276,1.193,-0.006
43.47,-0.035,0.802,0.176
43.48,-0.195,1.081,0.09
43.49,-0.318,0.83,-0.177
43.5,-0.306,1.072,-0.036
43.51,-0.126,1.055,0.005
43.52,-0.02,0.736,0.155
43.53,-0.261,1.097,-0.02
43.54,-0.328,0.838,-0.106
43.55,-0.238,1.226,-0.052
43.56,-0.111,0.796,0.066
43.57,-0.132,1.009,0.171
43.58,-0.293,0.951,-0.057
43.59,-0.273,0.943,-0.188
43.6,-0.2,1.051,-0.036
43.61,-0.153,0.844,0.2
43.62,-0.153,1.132,0.101
43.63,-0.317,0.803,-0.15
43.64,-0.298,1.09,-0.094
43.65,-0.104,0.971,0.027
43.66,-0.077,0.973,0.164
43.67,-0.148,0.93,0.054
43.68,-0.347,0.905,-0.155
43.69,-0.243,1.218,-0.041
43.7,-0.126,0.839,0.052
43.71,-0.101,1.011,0.13
43.72,-0.281,0.837,-0.044
43.73,-0.324,1.125,-0.175
43.74,-0.21,0.911,-0.046
43.75,-0.104,0.892,0.132
43.76,-0.161,1.026,0.152
43.77,-0.265,0.853,-0.117
43.78,-0.344,1.174,-0.148
43.79,-0.171,0.836,0.007
43.8,-0.081,1.12,0.163
43.81,-0.141,0.771,0.033
43.82,-0.378,1.028,-0.133
43.83,-0.24,1.08,-0.084
43.84,-0.048,0.954,0.042
43.85,-0.083,1.017,0.134
43.86,-0.257,0.739,-0.036
43.87,-0.385,1.243,-0.115
43.88,-0.087,0.929,-0.074
43.89,-0.188,1.026,0.101
43.9,-0.167,0.792,0.122
43.91,-0.381,1.121,-0.071
43.92,-0.222,0.967,-0.15
43.93,-0.203,0.97,0.017
43.94,-0.057,1.019,0.158
43.95,-0.151,0.731,0.028
43.96,-0.427,1.161,-0.124
43.97,-0.218,0.852,-0.084
43.98,-0.074,1.233,0.059
43.99,-0.054,0.745,0.128
44.0,-0.322,0.932,0.01
44.01,-0.432,1.062,-0.135
44.02,-0.113,0.887,-0.093
44.03,-0.161,1.099,0.088
44.04,-0.087,0.657,0.142
44.05,-0.348,1.187,-0.095
44.06,-0.219,0.777,-0.182
44.07,-0.293,1.139,0.073
44.08,-0.004,0.903,0.124
44.09,-0.163,0.781,0.055
44.1,-0.405,1.154,-0.101
44.11,-0.267,0.85,-0.05
44.12,-0.139,1.22,-0.001
44.13,-0.016,0.685,0.164
44.14,-0.279,1.047,-0.018
44.15,-0.389,0.89,-0.137
44.16,-0.169,1.021,-0.054
44.17,-0.1,1.094,0.121
44.18,-0.092,0.684,0.102
44.19,-0.417,1.162,-0.027
44.2,-0.203,0.746,-0.167
44.21,-0.218,1.196,-0.021
44.22,-0.15,0.83,0.193
44.23,-0.134,0.948,0.087
44.24,-0.295,0.985,-0.164
44.25,-0.232,0.819,-0.112
44.26,-0.161,1.226,0.071
44.27,-0.01,0.733,0.151
44.28,-0.24,1.117,0.035
44.29,-0.364,0.817,-0.147
44.3,-0.272,1.121,-0.046
44.31,-0.091,0.976,0.052
44.32,-0.039,0.835,0.174
44.33,-0.334,1.065,-0.069
44.34,-0.316,0.834,-0.108
44.35,-0.234,1.201,-0.025
44.36,-0.055,0.774,0.115
44.37,-0.204,1.052,0.116
44.38,-0.273,0.929,-0.148
44.39,-0.296,1.015,-0.105
44.4,-0.242,1.015,0.006
44.41,-0.006,0.854,0.209
44.42,-0.208,1.097,0.052
44.43,-0.434,0.748,-0.137
44.44,-0.272,1.179,-0.045
44.45,-0.047,0.976,0.057
44.46,-0.143,0.909,0.129
44.47,-0.26,0.892,-0.061
44.48,-0.309,1.006,-0.138
44.49,-0.165,1.122,-0.077
44.5,-0.134,0.754,0.109
44.51,-0.152,1.079,0.131
44.52,-0.293,0.843,-0.098
44.53,-0.312,1.167,-0.156
44.54,-0.133,0.899,-0.001
44.55,-0.079,0.979,0.182
44.56,-0.142,0.971,0.049
44.57,-0.391,0.885,-0.162
44.58,-0.315,1.172,-0.063
44.59,0.006,0.928,0.083
44.6,-0.135,1.082,0.143
44.61,-0.226,0.766,-0.033
44.62,-0.417,1.143,-0.116
44.63,-0.113,1.032,-0.087
44.64,-0.144,0.857,0.078
44.65,-0.167,0.988,0.154
44.66,-0.354,0.862,-0.086
44.67,-0.356,1.178,-0.158
44.68,-0.152,0.822,0.004
44.69,-0.128,1.099,0.163
44.7,-0.107,0.813,0.024
44.71,-0.424,1.144,-0.145
44.72,-0.207,0.932,-0.085
44.73,-0.038,1.071,0.069
44.74,-0.079,0.899,0.127
44.75,-0.309,0.801,-0.053
44.76,-0.427,1.207,-0.098
44.77,-0.092,0.874,-0.036
44.78,-0.166,1.115,0.111
44.79,-0.125,0.705,0.123
44.8,-0.355,1.132,-0.106
44.81,-0.295,0.98,-0.121
44.82,-0.187,0.926,0.026
44.83,-0.007,1.089,0.178
44.84,-0.191,0.707,-0.009
44.85,-0.418,1.181,-0.173
44.86,-0.16,0.891,-0.04
44.87,-0.074,1.173,0.058
44.88,-0.103,0.724,0.162
44.89,-0.256,0.926,-0.07
44.9,-0.374,1.112,-0.135
44.91,-0.132,0.842,-0.051
44.92,-0.172,1.129,0.135
44.93,-0.089,0.662,0.125
44.94,-0.438,1.192,-0.121
44.95,-0.247,0.832,-0.11
44.96,-0.191,1.163,0.005
44.97,-0.027,0.914,0.158
44.98,-0.182,0.792,0.026
44.99,-0.446,1.148,-0.167
45.0,-0.189,0.862,-0.053
45.01,-0.136,1.229,0.068
45.02,-0.017,0.626,0.121
45.03,-0.392,1.073,-0.045
45.04,-0.278,0.928,-0.137
45.05,-0.179,1.012,-0.057
45.06,-0.142,1.027,0.112
45.07,-0.103,0.707,0.125
45.08,-0.39,1.188,-0.133
45.09,-0.25,0.703,-0.145
45.1,-0.217,1.3,0.103
45.11,0.005,0.836,0.126
45.12,-0.206,0.901,0.019
45.13,-0.382,1.031,-0.129
45.14,-0.236,0.976,-0.044
45.15,-0.108,1.165,0.057
45.16,-0.038,0.627,0.159
45.17,-0.407,1.143,-0.039
45.18,-0.244,0.832,-0.129
45.19,-0.262,1.132,-0.055
45.2,-0.098,0.876,0.108
45.21,-0.116,0.835,0.181
45.22,-0.344,1.138,-0.153
45.23,-0.242,0.729,-0.127
45.24,-0.316,1.249,0.089
45.25,0.107,0.773,0.134
45.26,-0.327,1.027,0.016
45.27,-0.402,0.878,-0.135
45.28,-0.158,1.099,-0.06
45.29,-0.162,1.033,0.091
45.3,-0.078,0.671,0.188
45.31,-0.344,1.165,-0.001
45.32,-0.282,0.798,-0.208
45.33,-0.281,1.14,-0.021
45.34,-0.068,0.832,0.143
45.35,-0.149,1.018,0.116
45.36,-0.283,0.935,-0.158
45.37,-0.275,0.883,-0.074
45.38,-0.217,1.18,0.059
45.39,-0.044,0.738,0.166
45.4,-0.247,1.097,0.074
45.41,-0.351,0.814,-0.14
45.42,-0.22,1.211,-0.041
45.43,-0.191,0.909,0.059
45.44,-0.031,0.804,0.165
45.45,-0.357,1.087,-0.024
45.46,-0.257,0.875,-0.229
45.47,-0.271,1.129,-0.024
45.48,-0.071,0.766,0.134
45.49,-0.167,1.101,0.136
45.5,-0.255,0.821,-0.194
45.51,-0.302,1.167,-0.061
45.52,-0.164,0.948,0.079
45.53,-0.056,1.0,0.139
45.54,-0.198,0.801,-0.033
45.55,-0.366,1.14,-0.123
45.56,-0.15,1.057,-0.084
45.57,-0.211,0.853,0.114
45.58,-0.148,0.96,0.157
45.59,-0.339,0.884,-0.063
45.6,-0.334,1.195,-0.172
45.61,-0.187,0.805,-0.014
45.62,-0.092,1.113,0.188
45.63,-0.105,0.837,0.06
45.64,-0.406,0.973,-0.146
45.65,-0.231,1.061,-0.068
45.66,-0.091,0.975,0.082
45.67,-0.101,1.017,0.142
45.68,-0.223,0.733,0.002
45.69,-0.406,1.229,-0.098
45.7,-0.135,0.942,-0.098
45.71,-0.119,0.967,0.072
45.72,-0.137,0.841,0.16
45.73,-0.33,0.937,-0.105
45.74,-0.288,1.154,-0.129
45.75,-0.257,0.87,-0.015
45.76,-0.039,1.125,0.172
45.77,-0.108,0.745,0.058
45.78,-0.385,1.105,-0.205
45.79,-0.25,0.99,-0.071
45.8,-0.085,1.045,0.029
45.81,-0.069,0.87,0.162
45.82,-0.221,0.787,-0.006
45.83,-0.277,1.251,-0.183
45.84,-0.205,0.795,-0.119
45.85,-0.146,1.045,0.139
45.86,-0.135,0.777,0.215
45.87,-0.335,0.989,-0.148
45.88,-0.362,0.964,-0.132
45.89,-0.219,0.971,-0.002
45.9,-0.006,1.147,0.102
45.91,-0.108,0.656,-0.014
45.92,-0.421,1.202,-0.122
45.93,-0.185,0.917,-0.08
45.94,-0.119,1.155,0.041
45.95,-0.053,0.76,0.183
45.96,-0.289,0.909,0.024
45.97,-0.405,1.168,-0.12
45.98,-0.13,0.896,-0.067
45.99,-0.225,1.115,0.092
46.0,-0.091,0.594,0.133
46.01,-0.386,1.194,-0.09
46.02,-0.248,0.878,-0.178
46.03,-0.256,1.034,-0.012
46.04,-0.07,1.008,0.2
46.05,-0.138,0.78,0.052
46.06,-0.408,1.16,-0.173
46.07,-0.159,0.814,-0.032
46.08,-0.121,1.33,0.013
46.09,-0.063,0.662,0.162
46.1,-0.305,1.012,0.044
46.11,-0.305,0.994,-0.144
46.12,-0.171,0.929,-0.099
46.13,-0.185,1.104,0.113
46.14,-0.045,0.691,0.161
46.15,-0.391,1.152,-0.102
46.16,-0.224,0.718,-0.178
46.17,-0.277,1.225,0.012
46.18,-0.003,0.933,0.145
46.19,-0.181,0.878,0.037
46.2,-0.374,1.03,-0.164
46.21,-0.182,0.871,-0.02
46.22,-0.141,1.3,-0.01
46.23,-0.022,0.617,0.158
46.24,-0.361,1.119,0.034
46.25,-0.26,0.863,-0.107
46.26,-0.209,1.119,-0.122
46.27,-0.135,0.924,0.082
46.28,-0.134,0.793,0.193
46.29,-0.372,1.145,-0.067
46.3,-0.297,0.786,-0.111
46.31,-0.226,1.181,0.04
46.32,-0.009,0.849,0.181
46.33,-0.208,1.097,0.051
46.34,-0.307,0.786,-0.179
46.35,-0.247,1.17,-0.047
46.36,-0.027,1.017,-0.001
46.37,-0.105,0.783,0.137
46.38,-0.328,1.074,0.03
46.39,-0.262,0.824,-0.189
46.4,-0.271,1.153,-0.063
46.41,-0.141,0.809,0.119
46.42,-0.126,1.096,0.193
46.43,-0.261,0.848,-0.143
46.44,-0.27,0.969,-0.132
46.45,-0.241,1.051,0.027
46.46,-0.005,0.864,0.153
46.47,-0.251,1.055,0.05
46.48,-0.338,0.817,-0.14
46.49,-0.33,1.252,-0.028
46.5,-0.089,0.896,0.056
46.51,-0.097,0.933,0.163
46.52,-0.298,0.944,0.002
46.53,-0.3,0.976,-0.159
46.54,-0.204,1.117,-0.09
46.55,-0.13,0.763,0.077
46.56,-0.128,1.072,0.151
46.57,-0.27,0.84,-0.126
46.58,-0.372,1.101,-0.147
46.59,-0.193,0.866,-0.023
46.6,-0.048,1.047,0.143
46.61,-0.14,0.943,0.076
46.62,-0.339,0.865,-0.176
46.63,-0.27,1.224,-0.09
46.64,-0.047,0.926,0.032
46.65,-0.095,1.021,0.137
46.66,-0.186,0.739,-0.02
46.67,-0.391,1.202,-0.103
46.68,-0.124,1.017,-0.082
46.69,-0.169,0.875,0.084
46.7,-0.099,0.945,0.147
46.71,-0.391,0.897,-0.069
46.72,-0.35,1.164,-0.151
46.73,-0.171,0.796,-0.02
46.74,-0.16,1.139,0.193
46.75,-0.025,0.799,0.066
46.76,-0.344,0.992,-0.154
46.77,-0.313,1.09,-0.031
46.78,-0.029,0.995,0.017
46.79,-0.086,1.007,0.153
46.8,-0.243,0.707,-0.017
46.81,-0.44,1.258,-0.101
46.82,-0.137,0.911,-0.063
46.83,-0.17,1.058,0.083
46.84,-0.153,0.81,0.184
46.85,-0.297,0.962,-0.066
46.86,-0.326,1.128,-0.153
46.87,-0.109,0.802,-0.036
46.88,-0.146,1.145,0.174
46.89,-0.136,0.741,0.088
46.9,-0.388,1.105,-0.173
46.91,-0.223,0.917,-0.089
46.92,-0.094,1.116,0.051
46.93,-0.073,0.917,0.119
46.94,-0.167,0.762,-0.002
46.95,-0.387,1.236,-0.143
46.96,-0.111,0.881,-0.063
46.97,-0.195,1.179,0.102
46.98,-0.084,0.633,0.126
46.99,-0.408,1.078,-0.016
47.0,-0.24,0.967,-0.177
47.01,-0.188,0.91,-0.052
47.02,-0.125,1.024,0.137
47.03,-0.136,0.699,0.118
47.04,-0.36,1.213,-0.155
47.05,-0.218,0.782,-0.129
47.06,-0.229,1.219,0.085
47.07,-0.02,0.853,0.132
47.08,-0.268,0.87,0.005
47.09,-0.371,0.942,-0.097
47.1,-0.145,1.071,-0.061
47.11,-0.195,1.02,0.079
47.12,-0.103,0.638,0.17
47.13,-0.345,1.213,-0.053
47.14,-0.286,0.775,-0.164
47.15,-0.214,1.154,-0.038
47.16,-0.06,0.86,0.177
47.17,-0.128,0.953,0.091
47.18,-0.353,0.963,-0.157
47.19,-0.231,0.891,-0.075
47.2,-0.133,1.309,0.062
47.21,-0.068,0.654,0.166
47.22,-0.286,1.058,0.018
47.23,-0.313,0.856,-0.143
47.24,-0.206,1.175,-0.064
47.25,-0.127,0.909,0.072
47.26,-0.095,0.819,0.157
47.27,-0.37,1.112,-0.043
47.28,-0.268,0.812,-0.166
47.29,-0.261,1.176,-0.033
47.3,-0.091,0.797,0.173
47.31,-0.131,1.078,0.091
47.32,-0.323,0.9,-0.178
47.33,-0.242,0.923,-0.117
47.34,-0.189,1.131,0.085
47.35,0.017,0.797,0.159
47.36,-0.305,1.054,0.031
47.37,-0.335,0.807,-0.097
47.38,-0.202,1.262,-0.076
47.39,-0.126,0.813,0.047
47.4,-0.142,0.971,0.166
47.41,-0.302,0.981,-0.059
47.42,-0.298,0.908,-0.149
47.43,-0.166,1.066,-0.072
47.44,-0.142,0.832,0.208
47.45,-0.156,1.066,0.081
47.46,-0.33,0.845,-0.126
47.47,-0.259,1.129,-0.114
47.48,-0.167,0.956,0.048
47.49,-0.024,0.874,0.157
47.5,-0.227,0.967,0.008
47.51,-0.345,0.883,-0.152
47.52,-0.211,1.24,-0.028
47.53,-0.135,0.791,0.087
47.54,-0.076,0.98,0.142
47.55,-0.33,0.898,-0.048
47.56,-0.312,1.121,-0.208
47.57,-0.155,0.906,-0.051
47.58,-0.176,0.909,0.195
47.59,-0.135,1.031,0.099
47.6,-0.349,0.838,-0.144
47.61,-0.226,1.11,-0.125
47.62,-0.169,0.936,0.098
47.63,-0.025,1.035,0.111
47.64,-0.185,0.819,0.007
47.65,-0.335,1.04,-0.17
47.66,-0.19,1.149,-0.049
47.67,-0.1,0.863,0.07
47.68,-0.133,0.972,0.12
47.69,-0.255,0.816,-0.069
47.7,-0.27,1.281,-0.15
47.71,-0.144,0.826,-0.038
47.72,-0.195,0.946,0.175
47.73,-0.118,0.927,0.146
47.74,-0.338,0.942,-0.183
47.75,-0.302,1.1,-0.125
47.76,-0.131,0.876,0.063
47.77,-0.076,1.11,0.118
47.78,-0.205,0.73,-0.006
47.79,-0.428,1.171,-0.143
47.8,-0.096,1.03,-0.056
47.81,-0.191,0.945,0.076
47.82,-0.168,0.881,0.171
47.83,-0.257,0.888,-0.075
47.84,-0.356,1.251,-0.147
47.85,-0.163,0.755,-0.04
47.86,-0.168,1.115,0.229
47.87,-0.011,0.77,0.057
47.88,-0.435,1.061,-0.184
47.89,-0.17,0.895,-0.046
47.9,-0.072,1.17,0.076
47.91,-0.094,0.816,0.122
47.92,-0.346,0.852,-0.007
47.93,-0.305,1.207,-0.151
47.94,-0.106,0.881,-0.07
47.95,-0.237,1.058,0.11
47.96,-0.058,0.679,0.163
47.97,-0.397,1.153,-0.095
47.98,-0.344,0.898,-0.131
47.99,-0.248,0.996,0.01
48.0,0.005,1.046,0.15
48.01,-0.203,0.713,0.026
48.02,-0.423,1.157,-0.17
48.03,-0.202,0.858,-0.066
48.04,-0.059,1.25,0.074
48.05,-0.075,0.694,0.148
48.06,-0.355,0.983,-0.026
48.07,-0.31,1.053,-0.128
48.08,-0.198,0.919,-0.045
48.09,-0.19,1.092,0.127
48.1,-0.059,0.65,0.149
48.11,-0.37,1.201,-0.149
48.12,-0.243,0.798,-0.159
48.13,-0.215,1.171,0.086
48.14,0.026,0.888,0.162
48.15,-0.189,0.816,-0.008
48.16,-0.441,1.19,-0.142
48.17,-0.114,0.91,-0.057
48.18,-0.258,1.206,0.095
48.19,-0.045,0.607,0.179
48.2,-0.356,1.149,-0.04
48.21,-0.233,0.872,-0.193
48.22,-0.25,1.024,-0.024
48.23,-0.126,0.998,0.153
48.24,-0.048,0.738,0.105
48.25,-0.388,1.162,-0.15
48.26,-0.242,0.764,-0.103
48.27,-0.204,1.308,0.092
48.28,0.012,0.716,0.169
48.29,-0.291,0.954,0.018
