t,ax,ay,az
0.0,-0.039,0.703,0.081
0.01,-0.356,1.132,-0.107
0.02,-0.252,0.87,-0.147
0.03,-0.212,1.073,0.057
0.04,-0.044,0.931,0.148
0.05,-0.172,0.748,0.013
0.06,-0.453,1.199,-0.126
0.07,-0.135,0.883,-0.067
0.08,-0.116,1.183,0.052
0.09,-0.057,0.643,0.169
0.1,-0.327,1.024,-0.021
0.11,-0.332,1.029,-0.139
0.12,-0.171,0.905,-0.077
0.13,-0.329,0.947,-0.126
0.14,-0.227,1.016,-0.068
0.15,-0.095,1.135,0.024
0.16,-0.067,0.639,0.144
0.17,-0.362,1.142,0.024
0.18,-0.298,0.825,-0.135
0.19,-0.25,1.114,-0.067
0.2,-0.092,0.861,0.136
0.21,-0.169,0.932,0.14
0.22,-0.327,1.058,-0.065
0.23,-0.285,0.809,-0.142
0.24,-0.227,1.14,-0.04
0.25,-0.05,0.842,0.158
0.26,-0.142,1.11,0.08
0.27,-0.325,0.843,-0.173
0.28,-0.274,1.01,-0.099
0.29,-0.149,1.097,0.087
0.3,0.027,0.786,0.11
0.31,-0.256,1.032,0.021
0.32,-0.393,0.869,-0.093
0.33,-0.214,1.253,-0.086
0.34,-0.11,0.849,0.089
0.35,-0.079,0.964,0.125
0.36,-0.324,0.95,-0.039
0.37,-0.292,0.989,-0.145
0.38,-0.182,1.047,-0.068
0.39,-0.187,0.773,0.161
0.4,-0.177,1.091,0.131
0.41,-0.276,0.831,-0.138
0.42,-0.321,1.055,-0.133
0.43,-0.183,0.948,0.044
0.44,-0.047,1.013,0.168
0.45,-0.171,0.927,0.044
0.46,-0.324,0.891,-0.174
0.47,-0.242,1.231,-0.058
0.48,-0.091,0.883,0.025
0.49,-0.104,1.01,0.158
0.5,-0.221,0.82,-0.022
0.51,-0.374,1.154,-0.166
0.52,-0.187,0.969,-0.114
0.53,-0.092,0.854,0.1
0.54,-0.124,0.971,0.15
0.55,-0.268,0.847,-0.111
0.56,-0.415,1.226,-0.141
0.57,-0.105,0.819,-0.064
0.58,-0.147,1.099,0.175
0.59,-0.119,0.813,0.086
0.6,-0.362,1.131,-0.13
0.61,-0.213,0.964,-0.11
0.62,-0.174,1.115,0.078
0.63,-0.078,0.917,0.147
0.64,-0.199,0.734,-0.026
0.65,-0.401,1.226,-0.097
0.66,-0.062,0.909,-0.097
0.67,-0.181,1.121,0.077
0.68,-0.037,0.668,0.17
0.69,-0.351,1.023,-0.035
0.7,-0.368,1.013,-0.124
0.71,-0.216,0.865,-0.029
0.72,-0.113,1.123,0.122
0.73,-0.121,0.738,0.122
0.74,-0.38,1.126,-0.138
0.75,-0.269,0.768,-0.131
0.76,-0.169,1.157,0.045
0.77,-0.078,0.959,0.177
0.78,-0.119,0.822,0.046
0.79,-0.364,1.135,-0.127
0.8,-0.2,0.818,-0.087
0.81,-0.187,1.267,0.088
0.82,-0.039,0.705,0.155
0.83,-0.289,1.057,-0.02
0.84,-0.381,0.89,-0.129
0.85,-0.201,1.07,-0.029
0.86,-0.045,1.029,0.045
0.87,-0.102,0.696,0.149
0.88,-0.398,1.158,-0.021
0.89,-0.222,0.827,-0.17
0.9,-0.212,1.151,-0.054
0.91,-0.094,0.771,0.149
0.92,-0.222,0.98,0.137
0.93,-0.305,1.009,-0.145
0.94,-0.228,0.864,-0.122
0.95,-0.292,1.19,0.1
0.96,0.037,0.776,0.133
0.97,-0.247,1.096,0.007
0.98,-0.321,0.795,-0.156
0.99,-0.201,1.159,-0.062
1.0,-0.091,0.964,0.038
1.01,-0.13,0.799,0.139
1.02,-0.328,1.057,0.026
1.03,-0.319,0.875,-0.136
1.04,-0.239,1.166,-0.046
1.05,-0.129,0.784,0.142
1.06,-0.167,1.034,0.149
1.07,-0.286,0.898,-0.107
1.08,-0.275,0.948,-0.147
1.09,-0.2,1.038,0.016
1.1,-0.047,0.868,0.172
1.11,-0.231,1.08,0.071
1.12,-0.312,0.781,-0.143
1.13,-0.293,1.206,-0.066
1.14,-0.023,0.969,0.046
1.15,-0.117,0.94,0.157
1.16,-0.199,0.898,-0.016
1.17,-0.305,1.018,-0.099
1.18,-0.152,1.174,-0.108
1.19,-0.134,0.775,0.046
1.2,-0.117,1.048,0.152
1.21,-0.317,0.851,-0.051
1.22,-0.384,1.123,-0.181
1.23,-0.185,0.927,-0.035
1.24,-0.124,0.99,0.162
1.25,-0.177,0.964,0.109
1.26,-0.299,0.847,-0.165
1.27,-0.28,1.139,-0.102
1.28,-0.103,0.846,0.053
1.29,-0.062,1.137,0.124
1.3,-0.18,0.782,0.014
1.31,-0.335,1.062,-0.115
1.32,-0.169,1.121,-0.071
1.33,-0.179,0.91,0.085
1.34,-0.122,0.952,0.165
1.35,-0.249,0.808,-0.043
1.36,-0.358,1.277,-0.159
1.37,-0.137,0.812,-0.084
1.38,-0.169,1.016,0.11
1.39,-0.101,0.866,0.137
1.4,-0.383,1.052,-0.129
1.41,-0.264,0.927,-0.107
1.42,-0.212,1.041,0.043
1.43,-0.026,1.009,0.096
1.44,-0.172,0.68,0.053
1.45,-0.425,1.233,-0.126
1.46,-0.191,0.902,-0.065
1.47,-0.091,1.178,0.012
1.48,-0.07,0.703,0.124
1.49,-0.303,0.971,0.055
1.5,-0.313,1.111,-0.146
1.51,-0.199,0.886,-0.08
1.52,-0.114,1.102,0.096
1.53,-0.125,0.715,0.123
1.54,-0.409,1.133,-0.078
1.55,-0.293,0.772,-0.175
1.56,-0.25,1.035,0.004
1.57,-0.063,1.03,0.17
1.58,-0.104,0.785,0.079
1.59,-0.377,1.1,-0.115
1.6,-0.193,0.76,-0.098
1.61,-0.206,1.291,0.044
1.62,-0.004,0.754,0.143
1.63,-0.245,1.002,-0.005
1.64,-0.372,0.926,-0.144
1.65,-0.195,1.063,-0.056
1.66,-0.038,1.117,0.068
1.67,-0.116,0.634,0.157
1.68,-0.339,1.146,-0.019
1.69,-0.274,0.862,-0.14
1.7,-0.174,1.115,-0.064
1.71,-0.116,0.864,0.107
1.72,-0.195,0.962,0.131
1.73,-0.348,1.039,-0.092
1.74,-0.255,0.767,-0.143
1.75,-0.243,1.164,0.022
1.76,-0.036,0.791,0.182
1.77,-0.162,1.067,0.059
1.78,-0.352,0.814,-0.141
1.79,-0.248,1.076,-0.093
1.8,-0.116,1.074,0.049
1.81,-0.039,0.772,0.128
1.82,-0.292,1.063,0.036
1.83,-0.313,0.812,-0.157
1.84,-0.22,1.248,0.003
1.85,-0.115,0.822,0.099
1.86,-0.164,0.977,0.151
1.87,-0.294,0.928,-0.058
1.88,-0.21,0.986,-0.154
1.89,-0.189,1.071,-0.064
1.9,-0.134,0.768,0.12
1.91,-0.215,1.14,0.136
1.92,-0.23,0.843,-0.126
1.93,-0.347,1.102,-0.12
1.94,-0.183,0.914,0.071
1.95,0.013,1.044,0.148
1.96,-0.207,0.93,0.026
1.97,-0.364,0.868,-0.129
1.98,-0.204,1.237,-0.061
1.99,-0.052,0.844,0.04
2.0,-0.106,1.024,0.143
2.01,-0.251,0.836,-0.045
2.02,-0.359,1.088,-0.158
2.03,-0.184,0.98,-0.067
2.04,-0.084,0.925,0.069
2.05,-0.2,1.01,0.144
2.06,-0.274,0.86,-0.091
2.07,-0.4,1.161,-0.13
2.08,-0.149,0.805,-0.016
2.09,-0.069,1.131,0.169
2.1,-0.112,0.835,0.045
2.11,-0.341,0.952,-0.125
2.12,-0.228,1.076,-0.088
2.13,-0.122,0.966,0.073
2.14,-0.094,1.049,0.143
2.15,-0.206,0.748,-0.037
2.16,-0.459,1.228,-0.097
2.17,-0.136,0.938,-0.094
2.18,-0.137,1.004,0.053
2.19,-0.115,0.849,0.152
2.2,-0.375,1.001,-0.077
2.21,-0.319,0.952,-0.17
2.22,-0.141,0.875,-0.026
2.23,-0.121,1.142,0.199
2.24,-0.088,0.678,0.043
2.25,-0.415,1.169,-0.117
2.26,-0.166,0.816,-0.117
2.27,-0.234,1.208,0.065
2.28,-0.019,0.842,0.141
2.29,-0.219,0.849,0.037
2.3,-0.369,1.13,-0.121
2.31,-0.218,0.955,-0.047
2.32,-0.062,1.193,0.043
2.33,-0.083,0.601,0.161
2.34,-0.332,1.065,-0.022
2.35,-0.329,0.935,-0.142
2.36,-0.214,0.994,-0.088
2.37,-0.115,0.977,0.088
2.38,-0.115,0.762,0.132
2.39,-0.418,1.178,-0.063
2.4,-0.28,0.738,-0.162
2.41,-0.228,1.115,0.007
2.42,-0.034,0.858,0.18
2.43,-0.217,0.986,0.098
2.44,-0.294,0.967,-0.18
2.45,-0.235,0.838,-0.105
2.46,-0.166,1.222,0.07
2.47,-0.077,0.774,0.177
2.48,-0.196,1.08,0.005
2.49,-0.341,0.826,-0.137
2.5,-0.224,1.127,-0.029
2.51,-0.073,1.02,0.085
2.52,-0.077,0.771,0.148
2.53,-0.329,1.082,-0.026
2.54,-0.282,0.85,-0.119
2.55,-0.195,1.224,-0.08
2.56,-0.098,0.741,0.105
2.57,-0.142,1.021,0.106
2.58,-0.317,0.943,-0.063
2.59,-0.276,1.011,-0.136
2.6,-0.143,1.008,-0.036
2.61,-0.083,0.822,0.222
2.62,-0.166,1.115,0.014
2.63,-0.322,0.78,-0.156
2.64,-0.313,1.182,-0.082
2.65,-0.017,0.952,0.043
2.66,-0.116,0.955,0.135
2.67,-0.24,0.931,-0.016
2.68,-0.33,0.93,-0.089
2.69,-0.163,1.146,-0.102
2.7,-0.1,0.776,0.08
2.71,-0.189,1.057,0.155
2.72,-0.251,0.866,-0.112
2.73,-0.323,1.08,-0.145
2.74,-0.196,0.921,-0.054
2.75,-0.114,0.938,0.195
2.76,-0.126,1.011,0.065
2.77,-0.326,0.834,-0.134
2.78,-0.307,1.163,-0.082
2.79,-0.07,0.889,0.07
2.8,-0.085,1.025,0.133
2.81,-0.225,0.824,0.015
2.82,-0.347,1.056,-0.155
2.83,-0.17,1.102,-0.063
2.84,-0.115,0.862,0.065
2.85,-0.135,0.991,0.164
2.86,-0.299,0.845,-0.035
2.87,-0.366,1.208,-0.184
2.88,-0.189,0.81,-0.029
2.89,-0.128,1.062,0.175
2.9,-0.122,0.903,0.104
2.91,-0.353,0.96,-0.131
2.92,-0.297,1.066,-0.106
2.93,-0.102,0.891,0.04
2.94,-0.084,1.118,0.181
2.95,-0.137,0.698,0.01
2.96,-0.408,1.16,-0.14
2.97,-0.23,0.981,-0.062
2.98,-0.074,1.096,0.036
2.99,-0.063,0.705,0.112
3.0,-0.328,0.967,-0.025
3.01,-0.359,1.116,-0.104
3.02,-0.09,0.876,-0.081
3.03,-0.148,1.083,0.148
3.04,-0.126,0.681,0.122
3.05,-0.379,1.207,-0.096
3.06,-0.266,0.819,-0.15
3.07,-0.233,1.043,0.007
3.08,-0.068,0.986,0.169
3.09,-0.211,0.79,0.04
3.1,-0.366,1.095,-0.164
3.11,-0.221,0.861,-0.07
3.12,-0.108,1.244,0.065
3.13,-0.037,0.665,0.149
3.14,-0.273,1.029,0.009
3.15,-0.369,0.973,-0.137
3.16,-0.157,1.012,-0.087
3.17,-0.186,1.057,0.106
3.18,-0.082,0.673,0.142
3.19,-0.404,1.216,-0.072
3.2,-0.202,0.807,-0.2
3.21,-0.191,1.156,-0.006
3.22,-0.058,0.873,0.174
3.23,-0.148,0.92,0.06
3.24,-0.396,1.012,-0.14
3.25,-0.21,0.848,-0.097
3.26,-0.168,1.278,0.084
3.27,-0.041,0.674,0.119
3.28,-0.285,1.09,0.014
3.29,-0.323,0.876,-0.152
3.3,-0.15,1.133,-0.074
3.31,-0.132,0.951,0.08
3.32,-0.123,0.76,0.162
3.33,-0.404,1.148,-0.04
3.34,-0.253,0.793,-0.169
3.35,-0.235,1.153,-0.024
3.36,-0.06,0.822,0.166
3.37,-0.202,1.02,0.064
3.38,-0.353,0.905,-0.137
3.39,-0.222,0.905,-0.087
3.4,-0.129,1.171,0.069
3.41,-0.05,0.757,0.147
3.42,-0.24,1.077,0.016
3.43,-0.337,0.794,-0.148
3.44,-0.218,1.178,-0.054
3.45,-0.1,0.918,0.087
3.46,-0.128,0.873,0.13
3.47,-0.375,1.04,-0.03
3.48,-0.284,0.885,-0.105
3.49,-0.201,1.165,-0.037
3.5,-0.055,0.739,0.127
3.51,-0.196,1.118,0.129
3.52,-0.309,0.891,-0.14
3.53,-0.27,1.001,-0.118
3.54,-0.147,1.01,0.019
3.55,-0.023,0.891,0.166
3.56,-0.235,1.021,0.018
3.57,-0.369,0.793,-0.136
3.58,-0.26,1.239,-0.018
3.59,-0.027,0.899,0.015
3.6,-0.121,0.927,0.138
3.61,-0.252,0.933,-0.067
3.62,-0.261,1.014,-0.129
3.63,-0.227,1.069,-0.025
3.64,-0.107,0.768,0.106
3.65,-0.155,1.089,0.143
3.66,-0.293,0.834,-0.172
3.67,-0.309,1.105,-0.13
3.68,-0.229,0.948,0.107
3.69,-0.015,0.927,0.129
3.7,-0.263,0.943,0.023
3.71,-0.399,0.893,-0.12
3.72,-0.199,1.226,-0.067
3.73,-0.112,0.792,0.068
3.74,-0.107,1.012,0.163
3.75,-0.26,0.867,-0.049
3.76,-0.297,1.086,-0.171
3.77,-0.193,0.977,-0.053
3.78,-0.135,0.904,0.147
3.79,-0.066,0.876,0.068
3.8,-0.34,0.934,-0.147
3.81,-0.261,1.173,-0.065
3.82,-0.078,0.933,-0.016
3.83,-0.136,1.015,0.163
3.84,-0.151,0.76,-0.024
3.85,-0.401,1.245,-0.124
3.86,-0.152,0.974,-0.102
3.87,-0.162,0.899,0.117
3.88,-0.13,0.897,0.156
3.89,-0.304,0.879,-0.051
3.9,-0.358,1.198,-0.151
3.91,-0.17,0.787,-0.052
3.92,-0.196,1.138,0.208
3.93,-0.046,0.776,0.06
3.94,-0.36,1.013,-0.172
3.95,-0.279,0.994,-0.094
3.96,-0.11,1.029,0.089
3.97,-0.052,1.026,0.155
3.98,-0.169,0.676,0.011
3.99,-0.466,1.233,-0.113
4.0,-0.106,0.931,-0.085
4.01,-0.197,1.074,0.058
4.02,-0.128,0.733,0.15
4.03,-0.308,0.999,-0.027
4.04,-0.373,1.172,-0.163
4.05,-0.174,0.781,-0.041
4.06,-0.177,1.173,0.19
4.07,-0.041,0.698,0.073
4.08,-0.39,1.114,-0.119
4.09,-0.218,0.869,-0.141
4.1,-0.277,1.109,0.088
4.11,-0.043,0.914,0.144
4.12,-0.214,0.753,0.028
4.13,-0.464,1.237,-0.101
4.14,-0.096,0.924,-0.081
4.15,-0.209,1.173,0.09
4.16,-0.06,0.602,0.135
4.17,-0.332,1.057,-0.006
4.18,-0.276,1.021,-0.205
4.19,-0.194,0.871,-0.058
4.2,-0.139,1.123,0.12
4.21,-0.102,0.764,0.154
4.22,-0.382,1.146,-0.138
4.23,-0.254,0.705,-0.153
4.24,-0.217,1.2,0.063
4.25,-0.021,0.947,0.132
4.26,-0.197,0.795,0.03
4.27,-0.305,1.059,-0.166
4.28,-0.138,0.94,-0.031
4.29,-0.142,1.237,-0.022
4.3,-0.084,0.61,0.193
4.31,-0.35,1.113,0.025
4.32,-0.301,0.911,-0.139
4.33,-0.217,1.009,-0.104
4.34,-0.129,0.994,0.147
4.35,-0.09,0.739,0.13
4.36,-0.34,1.197,-0.095
4.37,-0.311,0.709,-0.147
4.38,-0.257,1.15,-0.015
4.39,-0.057,0.885,0.185
4.4,-0.176,0.973,0.058
4.41,-0.361,0.915,-0.163
4.42,-0.261,0.917,-0.076
4.43,-0.122,1.217,0.053
4.44,0.009,0.674,0.147
4.45,-0.306,1.091,0.012
4.46,-0.291,0.857,-0.125
4.47,-0.154,1.193,-0.076
4.48,-0.169,0.899,0.099
4.49,-0.091,0.807,0.135
4.5,-0.333,1.109,-0.016
4.51,-0.29,0.831,-0.178
4.52,-0.245,1.147,-0.04
4.53,-0.095,0.777,0.175
4.54,-0.186,1.076,0.091
4.55,-0.253,0.886,-0.163
4.56,-0.272,0.976,-0.105
4.57,-0.22,1.087,0.058
4.58,-0.039,0.897,0.123
4.59,-0.229,0.97,0.019
4.6,-0.376,0.91,-0.082
4.61,-0.194,1.233,-0.063
4.62,-0.135,0.782,0.039
4.63,-0.15,1.023,0.163
4.64,-0.283,0.882,-0.059
4.65,-0.27,1.106,-0.165
4.66,-0.189,0.962,-0.046
4.67,-0.101,0.871,0.152
4.68,-0.143,1.053,0.155
4.69,-0.291,0.842,-0.155
4.7,-0.32,1.138,-0.126
4.71,-0.22,0.885,0.074
4.72,-0.043,1.108,0.158
4.73,-0.19,0.837,0.022
4.74,-0.346,0.958,-0.157
4.75,-0.208,1.172,-0.022
4.76,-0.133,0.895,0.074
4.77,-0.092,0.946,0.144
4.78,-0.277,0.827,-0.011
4.79,-0.362,1.233,-0.17
4.8,-0.188,0.866,-0.077
4.81,-0.12,0.969,0.096
4.82,-0.152,0.917,0.161
4.83,-0.315,0.912,-0.115
4.84,-0.313,1.114,-0.127
4.85,-0.217,0.881,0.053
4.86,-0.03,1.109,0.107
4.87,-0.097,0.76,0.056
4.88,-0.392,1.104,-0.175
4.89,-0.258,1.033,-0.067
4.9,-0.101,1.023,0.029
4.91,-0.074,0.925,0.17
4.92,-0.297,0.761,-0.003
4.93,-0.354,1.221,-0.111
4.94,-0.115,0.905,-0.087
4.95,-0.173,1.067,0.138
4.96,-0.119,0.723,0.133
4.97,-0.371,1.042,-0.06
4.98,-0.306,1.062,-0.164
4.99,-0.22,0.829,-0.021
5.0,-0.121,1.124,0.18
5.01,-0.08,0.722,0.061
5.02,-0.377,1.133,-0.128
5.03,-0.239,0.868,-0.099
5.04,-0.147,1.169,0.062
5.05,-0.098,0.816,0.122
5.06,-0.197,0.801,-0.016
5.07,-0.435,1.206,-0.087
5.08,-0.095,0.871,-0.087
5.09,-0.18,1.172,0.062
5.1,-0.08,0.694,0.169
5.11,-0.362,1.09,-0.029
5.12,-0.278,0.913,-0.172
5.13,-0.23,0.948,-0.014
5.14,-0.086,1.083,0.123
5.15,-0.18,0.737,0.105
5.16,-0.378,1.124,-0.14
5.17,-0.191,0.811,-0.107
5.18,-0.209,1.271,0.101
5.19,-0.033,0.75,0.133
5.2,-0.267,0.937,0.09
5.21,-0.365,1.065,-0.144
5.22,-0.181,0.966,-0.093
5.23,-0.153,1.156,0.064
5.24,-0.035,0.584,0.128
5.25,-0.399,1.135,-0.01
5.26,-0.262,0.885,-0.153
5.27,-0.265,1.069,-0.035
5.28,-0.082,0.894,0.098
5.29,-0.179,0.834,0.131
5.3,-0.37,1.145,-0.089
5.31,-0.268,0.742,-0.137
5.32,-0.223,1.189,0.022
5.33,-0.043,0.846,0.202
5.34,-0.222,1.022,0.059
5.35,-0.357,0.895,-0.162
5.36,-0.205,1.001,-0.054
5.37,-0.152,1.138,0.028
5.38,-0.091,0.777,0.174
5.39,-0.297,1.071,-0.035
5.4,-0.338,0.851,-0.163
5.41,-0.216,1.171,-0.03
5.42,-0.091,0.768,0.153
5.43,-0.161,1.028,0.122
5.44,-0.314,0.915,-0.111
5.45,-0.283,0.971,-0.137
5.46,-0.142,1.026,-0.04
5.47,-0.06,0.875,0.196
5.48,-0.239,1.094,0.036
5.49,-0.381,0.747,-0.145
5.5,-0.266,1.215,-0.056
5.51,-0.091,0.929,0.059
5.52,-0.136,0.866,0.167
5.53,-0.243,0.967,-0.03
5.54,-0.338,0.959,-0.112
5.55,-0.189,1.128,-0.061
5.56,-0.118,0.761,0.08
5.57,-0.171,1.063,0.172
5.58,-0.263,0.844,-0.141
5.59,-0.305,1.075,-0.136
5.6,-0.179,0.991,0.042
5.61,-0.062,0.927,0.17
5.62,-0.198,0.986,0.045
5.63,-0.346,0.876,-0.158
5.64,-0.244,1.25,-0.033
5.65,-0.104,0.853,0.045
5.66,-0.096,0.948,0.142
5.67,-0.226,0.886,-0.055
5.68,-0.32,1.111,-0.16
5.69,-0.184,0.993,-0.058
5.7,-0.145,0.875,0.144
5.71,-0.156,1.041,0.151
5.72,-0.295,0.814,-0.133
5.73,-0.33,1.156,-0.092
5.74,-0.198,0.909,-0.011
5.75,-0.071,1.038,0.18
5.76,-0.155,0.872,0.037
5.77,-0.353,0.93,-0.152
5.78,-0.242,1.214,-0.044
5.79,-0.086,0.833,0.042
5.8,-0.156,0.981,0.16
5.81,-0.234,0.792,-0.037
5.82,-0.359,1.216,-0.173
5.83,-0.115,0.91,-0.081
5.84,-0.165,0.946,0.1
5.85,-0.175,0.94,0.155
5.86,-0.278,0.874,-0.1
5.87,-0.338,1.149,-0.145
5.88,-0.203,0.824,0.01
5.89,-0.076,1.145,0.166
5.9,-0.08,0.789,0.032
5.91,-0.4,1.038,-0.153
5.92,-0.213,1.007,-0.083
5.93,-0.104,1.01,0.061
5.94,-0.062,0.987,0.098
5.95,-0.268,0.74,-0.002
5.96,-0.427,1.203,-0.114
5.97,-0.058,0.917,-0.067
5.98,-0.143,1.047,0.061
5.99,-0.154,0.764,0.16
6.0,-0.326,0.99,-0.055
6.01,-0.277,1.116,-0.166
6.02,-0.199,0.809,-0.0
6.03,-0.112,1.124,0.197
6.04,-0.11,0.771,0.058
6.05,-0.42,1.089,-0.161
6.06,-0.251,0.915,-0.049
6.07,-0.061,1.106,0.074
6.08,-0.088,0.898,0.143
6.09,-0.264,0.75,-0.006
6.1,-0.391,1.184,-0.151
6.11,-0.092,0.916,-0.072
6.12,-0.154,1.137,0.108
6.13,-0.155,0.693,0.142
6.14,-0.389,1.053,-0.034
6.15,-0.251,0.999,-0.176
6.16,-0.172,0.898,-0.031
6.17,-0.087,0.95,0.144
6.18,-0.141,0.809,0.047
6.19,-0.417,1.121,-0.119
6.2,-0.197,0.814,-0.088
6.21,-0.137,1.24,0.069
6.22,-0.023,0.694,0.112
6.23,-0.334,1.035,0.026
6.24,-0.37,0.933,-0.115
6.25,-0.169,1.019,-0.05
6.26,-0.115,1.056,0.073
6.27,-0.122,0.704,0.128
6.28,-0.38,1.165,-0.082
6.29,-0.274,0.78,-0.133
6.3,-0.2,1.211,0.014
6.31,-0.087,0.871,0.155
6.32,-0.167,0.924,0.065
6.33,-0.352,1.043,-0.128
6.34,-0.212,0.876,-0.087
6.35,-0.157,1.256,0.053
6.36,-0.008,0.695,0.155
6.37,-0.246,1.109,-0.015
6.38,-0.311,0.875,-0.14
6.39,-0.219,1.105,-0.057
6.4,-0.107,0.915,0.088
6.41,-0.1,0.783,0.129
6.42,-0.42,1.129,-0.048
6.43,-0.292,0.773,-0.158
6.44,-0.191,1.163,-0.036
6.45,-0.074,0.798,0.138
6.46,-0.129,1.023,0.087
6.47,-0.333,0.925,-0.149
6.48,-0.237,0.938,-0.13
6.49,-0.198,1.178,0.066
6.5,-0.01,0.741,0.146
6.51,-0.317,1.083,0.029
6.52,-0.359,0.806,-0.098
6.53,-0.209,1.215,-0.048
6.54,-0.148,0.871,0.063
6.55,-0.12,0.84,0.136
6.56,-0.342,1.06,-0.03
6.57,-0.263,0.877,-0.165
6.58,-0.153,1.118,-0.029
6.59,-0.126,0.802,0.147
6.6,-0.178,1.095,0.116
6.61,-0.319,0.848,-0.164
6.62,-0.273,1.013,-0.129
6.63,-0.142,1.078,0.065
6.64,0.043,0.857,0.103
6.65,-0.234,1.045,0.021
6.66,-0.363,0.812,-0.118
6.67,-0.177,1.256,-0.048
6.68,-0.141,0.845,0.075
6.69,-0.098,0.939,0.148
6.7,-0.326,0.937,-0.035
6.71,-0.32,0.993,-0.202
6.72,-0.185,1.025,-0.044
6.73,-0.122,0.859,0.127
6.74,-0.165,1.069,0.133
6.75,-0.266,0.824,-0.155
6.76,-0.295,1.122,-0.145
6.77,-0.174,0.946,0.037
6.78,-0.046,1.036,0.144
6.79,-0.136,0.9,0.002
6.8,-0.413,0.88,-0.152
6.81,-0.158,1.225,-0.034
6.82,-0.079,0.833,0.003
6.83,-0.094,0.929,0.166
6.84,-0.268,0.837,-0.033
6.85,-0.311,1.215,-0.156
6.86,-0.131,0.83,-0.053
6.87,-0.152,1.047,0.155
6.88,-0.133,0.874,0.11
6.89,-0.318,0.926,-0.132
6.9,-0.254,1.08,-0.129
6.91,-0.209,0.923,0.069
6.92,-0.046,1.084,0.152
6.93,-0.132,0.729,0.03
6.94,-0.451,1.155,-0.17
6.95,-0.161,1.009,-0.075
6.96,-0.14,0.991,0.078
6.97,-0.132,0.744,0.144
6.98,-0.339,0.997,-0.03
6.99,-0.287,1.075,-0.166
7.0,-0.223,0.865,-0.009
7.01,-0.139,1.123,0.14
7.02,-0.07,0.729,0.104
7.03,-0.353,1.158,-0.132
7.04,-0.246,0.797,-0.129
7.05,-0.207,1.084,0.037
7.06,0.015,0.927,0.156
7.07,-0.164,0.825,0.053
7.08,-0.437,1.163,-0.131
7.09,-0.223,0.877,-0.066
7.1,-0.141,1.235,0.028
7.11,-0.063,0.629,0.165
7.12,-0.343,1.055,-0.006
7.13,-0.284,0.978,-0.201
7.14,-0.192,0.921,-0.069
7.15,-0.091,1.012,0.078
7.16,-0.15,0.719,0.156
7.17,-0.368,1.182,-0.082
7.18,-0.259,0.716,-0.151
7.19,-0.215,1.142,0.034
7.2,-0.102,0.936,0.162
7.21,-0.138,0.875,0.026
7.22,-0.349,1.013,-0.157
7.23,-0.186,0.852,-0.079
7.24,-0.092,1.287,0.054
7.25,-0.035,0.682,0.173
7.26,-0.283,1.123,-0.002
7.27,-0.31,0.893,-0.159
7.28,-0.216,1.067,-0.115
7.29,-0.117,0.966,0.065
7.3,-0.096,0.816,0.149
7.31,-0.41,1.132,-0.052
7.32,-0.281,0.727,-0.145
7.33,-0.245,1.166,0.003
7.34,-0.111,0.821,0.185
7.35,-0.19,1.027,0.122
7.36,-0.292,0.907,-0.159
7.37,-0.26,0.904,-0.098
7.38,-0.157,1.229,0.076
7.39,-0.055,0.742,0.14
7.4,-0.249,1.053,0.006
7.41,-0.326,0.797,-0.115
7.42,-0.2,1.237,-0.034
7.43,-0.083,0.892,-0.004
7.44,-0.067,0.829,0.157
7.45,-0.275,1.034,-0.022
7.46,-0.277,0.94,-0.157
7.47,-0.238,1.109,-0.02
7.48,-0.059,0.722,0.116
7.49,-0.21,1.1,0.153
7.5,-0.295,0.875,-0.127
7.51,-0.273,1.001,-0.128
7.52,-0.209,1.03,0.019
7.53,-0.07,0.919,0.178
7.54,-0.211,1.052,0.021
7.55,-0.33,0.796,-0.123
7.56,-0.297,1.229,-0.012
7.57,-0.117,0.887,0.025
7.58,-0.083,0.946,0.125
7.59,-0.251,0.901,-0.023
7.6,-0.31,0.983,-0.133
7.61,-0.205,1.136,-0.054
7.62,-0.084,0.789,0.096
7.63,-0.194,1.051,0.139
7.64,-0.312,0.833,-0.071
7.65,-0.331,1.139,-0.141
7.66,-0.151,0.897,-0.019
7.67,-0.101,0.979,0.167
7.68,-0.137,0.965,0.051
7.69,-0.365,0.88,-0.123
7.7,-0.27,1.147,-0.092
7.71,-0.061,0.905,0.071
7.72,-0.106,1.067,0.145
7.73,-0.225,0.785,-0.023
7.74,-0.406,1.113,-0.105
7.75,-0.158,1.036,-0.064
7.76,-0.136,0.932,0.083
7.77,-0.146,0.838,0.137
7.78,-0.327,0.952,-0.076
7.79,-0.33,1.11,-0.152
7.8,-0.146,0.831,-0.023
7.81,-0.115,1.126,0.195
7.82,-0.11,0.724,0.02
7.83,-0.361,1.11,-0.153
7.84,-0.261,0.951,-0.072
7.85,-0.117,1.02,0.057
7.86,-0.045,0.918,0.156
7.87,-0.284,0.779,0.001
7.88,-0.364,1.178,-0.172
7.89,-0.098,0.905,-0.089
7.9,-0.146,1.122,0.13
7.91,-0.137,0.708,0.14
7.92,-0.368,1.041,-0.047
7.93,-0.323,1.007,-0.18
7.94,-0.158,0.861,-0.033
7.95,-0.138,1.098,0.159
7.96,-0.113,0.718,0.08
7.97,-0.403,1.177,-0.139
7.98,-0.166,0.844,-0.139
7.99,-0.188,1.202,0.101
8.0,-0.056,0.858,0.148
8.01,-0.23,0.85,-0.005
8.02,-0.439,1.139,-0.119
8.03,-0.075,0.913,-0.077
8.04,-0.176,1.188,0.036
8.05,-0.062,0.613,0.137
8.06,-0.43,1.159,-0.019
8.07,-0.22,0.893,-0.165
8.08,-0.165,0.978,-0.037
8.09,-0.172,1.005,0.203
8.1,-0.114,0.753,0.093
8.11,-0.378,1.154,-0.137
8.12,-0.2,0.772,-0.114
8.13,-0.189,1.27,0.071
8.14,-0.012,0.773,0.141
8.15,-0.253,0.953,-0.001
8.16,-0.346,0.966,-0.161
8.17,-0.181,0.994,-0.036
8.18,-0.089,1.164,0.031
8.19,-0.088,0.624,0.149
8.2,-0.381,1.168,-0.033
8.21,-0.23,0.792,-0.181
8.22,-0.233,1.102,-0.022
8.23,-0.102,0.901,0.145
8.24,-0.154,0.859,0.127
8.25,-0.333,1.086,-0.148
8.26,-0.219,0.797,-0.142
8.27,-0.247,1.255,0.103
8.28,0.031,0.732,0.147
8.29,-0.288,1.047,0.027
8.3,-0.362,0.891,-0.105
8.31,-0.191,1.086,-0.035
8.32,-0.167,1.03,0.068
8.33,-0.068,0.708,0.122
8.34,-0.348,1.14,-0.023
8.35,-0.269,0.77,-0.206
8.36,-0.218,1.121,-0.003
8.37,-0.093,0.835,0.147
8.38,-0.163,1.003,0.106
8.39,-0.319,0.98,-0.14
8.4,-0.275,0.841,-0.117
8.41,-0.221,1.188,0.062
8.42,0.0,0.777,0.157
8.43,-0.212,1.079,0.032
8.44,-0.37,0.811,-0.152
8.45,-0.245,1.163,-0.042
8.46,-0.037,0.944,0.026
8.47,-0.276,0.937,-0.162
8.48,-0.198,0.989,-0.058
8.49,-0.084,1.002,0.132
8.5,-0.138,0.896,0.107
8.51,-0.327,1.089,-0.12
8.52,-0.286,0.766,-0.12
8.53,-0.237,1.186,0.071
8.54,-0.043,0.796,0.168
8.55,-0.198,1.065,0.04
8.56,-0.364,0.868,-0.136
8.57,-0.259,1.06,-0.036
8.58,-0.071,1.052,0.01
8.59,-0.039,0.685,0.124
8.6,-0.339,1.12,-0.022
8.61,-0.281,0.843,-0.136
8.62,-0.189,1.174,-0.051
8.63,-0.097,0.79,0.093
8.64,-0.198,0.993,0.159
8.65,-0.287,1.014,-0.085
8.66,-0.238,0.906,-0.145
8.67,-0.302,1.126,0.036
8.68,-0.008,0.788,0.181
8.69,-0.165,1.11,0.044
8.7,-0.339,0.804,-0.148
8.71,-0.263,1.132,-0.061
8.72,-0.087,0.99,0.019
8.73,-0.059,0.852,0.16
8.74,-0.273,1.033,0.018
8.75,-0.348,0.857,-0.091
8.76,-0.193,1.179,-0.078
8.77,-0.135,0.78,0.13
8.78,-0.22,1.072,0.171
8.79,-0.264,0.863,-0.099
8.8,-0.302,1.035,-0.137
8.81,-0.104,1.011,-0.034
8.82,-0.162,0.864,0.23
8.83,-0.099,1.032,0.063
8.84,-0.352,0.822,-0.121
8.85,-0.355,1.187,-0.09
8.86,-0.071,0.908,0.025
8.87,-0.07,0.974,0.115
8.88,-0.239,0.9,-0.026
8.89,-0.287,1.023,-0.128
8.9,-0.205,1.149,-0.076
8.91,-0.067,0.787,0.072
8.92,-0.2,1.097,0.179
8.93,-0.255,0.817,-0.103
8.94,-0.352,1.157,-0.12
8.95,-0.171,0.867,-0.069
8.96,-0.17,1.004,0.196
8.97,-0.109,0.979,0.05
8.98,-0.315,0.875,-0.099
8.99,-0.334,1.182,-0.083
9.0,-0.189,0.867,0.1
9.01,-0.052,1.049,0.157
9.02,-0.159,0.775,-0.022
9.03,-0.408,1.102,-0.139
9.04,-0.228,1.074,-0.07
9.05,-0.076,0.917,0.047
9.06,-0.13,0.979,0.147
9.07,-0.314,0.816,-0.045
9.08,-0.323,1.26,-0.153
9.09,-0.174,0.819,-0.063
9.1,-0.145,1.012,0.118
9.11,-0.101,0.861,0.134
9.12,-0.345,0.956,-0.133
9.13,-0.3,1.009,-0.153
9.14,-0.187,0.917,0.048
9.15,-0.113,1.156,0.192
9.16,-0.147,0.68,0.019
9.17,-0.378,1.151,-0.134
9.18,-0.218,0.959,-0.066
9.19,-0.082,1.114,0.03
9.2,-0.1,0.84,0.157
9.21,-0.254,0.83,-0.022
9.22,-0.432,1.212,-0.142
9.23,-0.103,0.894,-0.089
9.24,-0.162,1.091,0.077
9.25,-0.111,0.659,0.137
9.26,-0.385,1.117,-0.051
9.27,-0.304,0.968,-0.16
9.28,-0.151,0.882,-0.031
9.29,-0.07,0.964,0.169
9.3,-0.158,0.835,0.033
9.31,-0.404,1.088,-0.151
9.32,-0.162,0.783,-0.081
9.33,-0.087,1.364,0.045
9.34,-0.104,0.666,0.127
9.35,-0.275,1.023,0.003
9.36,-0.339,0.959,-0.09
9.37,-0.153,1.05,-0.074
9.38,-0.158,0.989,0.08
9.39,-0.072,0.727,0.141
9.4,-0.409,1.177,-0.041
9.41,-0.334,0.739,-0.166
9.42,-0.226,1.123,-0.046
9.43,-0.082,0.901,0.165
9.44,-0.178,0.981,0.109
9.45,-0.333,0.967,-0.164
9.46,-0.225,0.782,-0.091
9.47,-0.206,1.28,0.089
9.48,0.0,0.765,0.122
9.49,-0.253,1.062,0.018
9.5,-0.318,0.853,-0.145
9.51,-0.241,1.169,-0.082
9.52,-0.097,0.978,0.07
9.53,-0.05,0.792,0.161
9.54,-0.368,1.066,-0.009
9.55,-0.288,0.863,-0.146
9.56,-0.124,1.213,-0.06
9.57,-0.145,0.739,0.126
9.58,-0.165,1.054,0.146
9.59,-0.304,0.962,-0.088
9.6,-0.283,0.926,-0.136
9.61,-0.226,1.046,-0.001
9.62,-0.069,0.863,0.181
9.63,-0.18,1.095,0.021
9.64,-0.312,0.764,-0.161
9.65,-0.254,1.161,-0.053
9.66,-0.039,1.021,0.025
9.67,-0.055,0.906,0.124
9.68,-0.24,0.952,0.008
9.69,-0.35,0.942,-0.109
9.7,-0.189,1.168,-0.069
9.71,-0.096,0.746,0.069
9.72,-0.185,1.09,0.192
9.73,-0.287,0.873,-0.062
9.74,-0.365,1.093,-0.136
9.75,-0.169,0.9,-0.029
9.76,-0.107,0.973,0.185
9.77,-0.151,1.016,0.06
9.78,-0.304,0.854,-0.136
9.79,-0.294,1.18,-0.092
9.8,-0.208,0.88,0.103
9.81,-0.055,1.021,0.141
9.82,-0.162,0.835,0.02
9.83,-0.377,1.078,-0.116
9.84,-0.225,1.093,-0.072
9.85,-0.183,0.889,0.116
9.86,-0.084,0.975,0.151
9.87,-0.296,0.797,-0.057
9.88,-0.379,1.249,-0.102
9.89,-0.165,0.849,-0.084
9.9,-0.138,0.923,0.123
9.91,-0.151,0.884,0.16
9.92,-0.349,0.973,-0.106
9.93,-0.4,1.096,-0.116
9.94,-0.138,0.972,0.031
9.95,-0.107,1.137,0.143
9.96,-0.138,0.673,0.019
9.97,-0.402,1.169,-0.128
9.98,-0.206,0.881,-0.041
9.99,-0.116,1.22,0.098
10.0,-0.096,0.759,0.138
10.01,-0.261,0.892,-0.018
10.02,-0.411,1.114,-0.118
10.03,-0.086,0.89,-0.087
10.04,-0.148,1.111,0.101
10.05,-0.109,0.67,0.142
10.06,-0.368,1.158,-0.069
10.07,-0.294,0.798,-0.154
10.08,-0.19,1.044,-0.019
10.09,-0.056,0.899,0.128
10.1,-0.162,0.907,0.022
10.11,-0.369,0.997,-0.139
10.12,-0.222,0.889,-0.063
10.13,-0.087,1.229,-0.012
10.14,-0.006,0.65,0.168
10.15,-0.346,1.122,-0.0
10.16,-0.31,0.859,-0.11
10.17,-0.233,1.086,-0.114
10.18,-0.124,0.922,0.076
10.19,-0.156,0.855,0.179
10.2,-0.257,1.106,-0.066
10.21,-0.253,0.778,-0.17
10.22,-0.27,1.173,-0.001
10.23,-0.066,0.801,0.119
10.24,-0.148,1.058,0.128
10.25,-0.281,0.912,-0.156
10.26,-0.277,0.91,-0.121
10.27,-0.248,1.137,0.048
10.28,0.013,0.819,0.175
10.29,-0.205,1.093,0.043
10.3,-0.329,0.753,-0.143
10.31,-0.247,1.209,-0.031
10.32,-0.054,0.967,0.035
10.33,-0.094,0.849,0.104
10.34,-0.252,0.973,0.003
10.35,-0.322,0.94,-0.132
10.36,-0.189,1.182,-0.074
10.37,-0.096,0.747,0.072
10.38,-0.183,1.068,0.156
10.39,-0.303,0.854,-0.08
10.4,-0.26,1.096,-0.181
10.41,-0.203,0.941,-0.021
10.42,-0.14,0.877,0.192
10.43,-0.121,1.069,0.094
10.44,-0.329,0.816,-0.156
10.45,-0.316,1.139,-0.122
10.46,-0.149,0.914,0.084
10.47,0.009,1.092,0.136
10.48,-0.237,0.816,-0.017
10.49,-0.402,0.997,-0.117
10.5,-0.15,1.153,-0.054
10.51,-0.107,0.875,0.074
10.52,-0.153,0.974,0.146
10.53,-0.319,0.823,-0.023
10.54,-0.363,1.228,-0.142
10.55,-0.185,0.871,-0.047
10.56,-0.098,0.967,0.083
10.57,-0.201,0.924,0.163
10.58,-0.27,0.894,-0.117
10.59,-0.359,1.112,-0.135
10.6,-0.166,0.876,0.041
10.61,-0.092,1.135,0.159
10.62,-0.155,0.71,0.031
10.63,-0.383,1.12,-0.134
10.64,-0.221,0.991,-0.062
10.65,-0.074,1.013,0.035
10.66,-0.067,0.951,0.141
10.67,-0.242,0.755,-0.044
10.68,-0.421,1.207,-0.109
10.69,-0.105,0.924,-0.075
10.7,-0.091,1.1,0.008
10.71,-0.15,0.718,0.127
10.72,-0.394,1.046,-0.001
10.73,-0.309,1.019,-0.187
10.74,-0.105,0.862,-0.079
10.75,-0.129,1.135,0.182
10.76,-0.077,0.694,0.04
10.77,-0.363,1.172,-0.107
10.78,-0.246,0.813,-0.12
10.79,-0.192,1.14,0.053
10.8,-0.039,0.893,0.146
10.81,-0.181,0.844,0.001
10.82,-0.427,1.077,-0.138
10.83,-0.15,0.887,-0.062
10.84,-0.095,1.228,0.104
10.85,-0.077,0.611,0.13
10.86,-0.315,1.071,-0.016
10.87,-0.362,0.948,-0.139
10.88,-0.18,1.123,-0.022
10.89,-0.112,0.855,0.13
10.9,-0.165,0.896,0.112
10.91,-0.334,1.115,-0.079
10.92,-0.26,0.771,-0.14
10.93,-0.249,1.196,0.043
10.94,-0.037,0.828,0.184
10.95,-0.195,1.082,0.034
10.96,-0.314,0.821,-0.186
10.97,-0.273,1.02,-0.064
10.98,-0.132,1.099,0.09
10.99,-0.035,0.76,0.133
11.0,-0.326,1.101,0.017
11.01,-0.35,0.802,-0.112
11.02,-0.17,1.233,-0.077
11.03,-0.131,0.843,0.108
11.04,-0.151,0.958,0.142
11.05,-0.309,0.978,-0.043
11.06,-0.268,0.96,-0.14
11.07,-0.208,1.09,-0.068
11.08,-0.061,0.767,0.21
11.09,-0.215,1.121,0.09
11.1,-0.301,0.797,-0.133
11.11,-0.326,1.157,-0.068
11.12,-0.114,0.975,0.018
11.13,-0.044,0.851,0.143
11.14,-0.252,1.019,0.038
11.15,-0.314,0.882,-0.152
11.16,-0.231,1.24,-0.088
11.17,-0.041,0.778,0.026
11.18,-0.087,1.001,0.145
11.19,-0.285,0.904,-0.004
11.2,-0.297,1.115,-0.175
11.21,-0.258,0.969,-0.023
11.22,-0.053,0.829,0.103
11.23,-0.199,1.056,0.142
11.24,-0.317,0.829,-0.12
11.25,-0.363,1.145,-0.104
11.26,-0.139,0.86,-0.005
11.27,-0.074,1.061,0.168
11.28,-0.138,0.872,0.023
11.29,-0.347,0.953,-0.121
11.3,-0.271,1.142,-0.078
11.31,-0.062,0.92,0.025
11.32,-0.07,1.035,0.142
11.33,-0.196,0.75,-0.018
11.34,-0.419,1.189,-0.131
11.35,-0.142,0.977,-0.049
11.36,-0.094,0.99,0.077
11.37,-0.12,0.862,0.162
11.38,-0.332,0.917,-0.046
11.39,-0.31,1.186,-0.136
11.4,-0.118,0.806,-0.034
11.41,-0.169,1.123,0.16
11.42,-0.125,0.759,0.07
11.43,-0.361,1.074,-0.132
11.44,-0.223,0.96,-0.146
11.45,-0.149,0.972,0.023
11.46,-0.045,1.021,0.167
11.47,-0.173,0.779,0.032
11.48,-0.424,1.168,-0.145
11.49,-0.17,0.838,-0.087
11.5,-0.086,1.239,0.049
11.51,-0.088,0.76,0.148
11.52,-0.292,0.915,-0.041
11.53,-0.348,1.073,-0.11
11.54,-0.105,0.944,-0.06
11.55,-0.105,1.078,0.079
11.56,-0.128,0.656,0.133
11.57,-0.405,1.19,-0.063
11.58,-0.232,0.911,-0.186
11.59,-0.21,1.057,-0.017
11.6,-0.112,0.896,0.192
11.61,-0.133,0.8,0.029
11.62,-0.409,1.152,-0.133
11.63,-0.221,0.764,-0.11
11.64,-0.135,1.263,0.109
11.65,-0.074,0.743,0.136
11.66,-0.304,0.995,-0.031
11.67,-0.36,0.928,-0.112
11.68,-0.236,1.11,-0.057
11.69,-0.118,0.931,0.036
11.7,-0.142,0.832,0.156
11.71,-0.308,1.104,-0.091
11.72,-0.267,0.77,-0.121
11.73,-0.261,1.226,0.05
11.74,-0.022,0.788,0.171
11.75,-0.188,1.042,0.053
11.76,-0.269,0.884,-0.138
11.77,-0.259,1.03,-0.116
11.78,-0.126,1.109,0.026
11.79,-0.059,0.722,0.125
11.8,-0.272,1.128,0.017
11.81,-0.291,0.821,-0.116
11.82,-0.209,1.182,-0.081
11.83,-0.122,0.839,0.124
11.84,-0.119,0.95,0.138
11.85,-0.286,1.001,-0.07
11.86,-0.313,0.874,-0.157
11.87,-0.224,1.126,-0.025
11.88,-0.167,0.807,0.193
11.89,-0.134,1.107,0.107
11.9,-0.301,0.821,-0.158
11.91,-0.273,1.038,-0.127
11.92,-0.124,1.034,0.053
11.93,0.001,0.916,0.16
11.94,-0.243,0.99,0.02
11.95,-0.406,0.837,-0.115
11.96,-0.218,1.268,-0.042
11.97,-0.166,0.853,0.043
11.98,-0.135,0.947,0.179
11.99,-0.235,0.906,-0.04
12.0,-0.316,1.082,-0.127
12.01,-0.246,1.01,-0.055
12.02,-0.116,0.814,0.128
12.03,-0.188,1.078,0.152
12.04,-0.252,0.833,-0.142
12.05,-0.34,1.135,-0.124
12.06,-0.227,0.854,0.012
12.07,-0.034,1.051,0.178
12.08,-0.154,0.909,0.011
12.09,-0.333,0.909,-0.145
12.1,-0.277,1.173,-0.006
12.11,-0.059,0.923,0.04
12.12,-0.106,1.0,0.128
12.13,-0.224,0.773,0.003
12.14,-0.362,1.159,-0.111
12.15,-0.152,0.964,-0.089
12.16,-0.116,0.943,0.119
12.17,-0.18,0.959,0.144
12.18,-0.313,0.844,-0.054
12.19,-0.339,1.205,-0.112
12.2,-0.158,0.85,-0.062
12.21,-0.169,1.102,0.183
12.22,-0.088,0.811,0.086
12.23,-0.367,1.036,-0.158
12.24,-0.248,0.966,-0.138
12.25,-0.125,0.99,0.039
12.26,-0.071,1.011,0.132
12.27,-0.182,0.732,0.044
12.28,-0.435,1.226,-0.135
12.29,-0.176,0.925,-0.068
12.3,-0.186,1.119,0.091
12.31,-0.077,0.772,0.138
12.32,-0.342,0.93,-0.023
12.33,-0.312,1.117,-0.112
12.34,-0.192,0.831,-0.067
12.35,-0.131,1.084,0.122
12.36,-0.08,0.742,0.117
12.37,-0.378,1.132,-0.095
12.38,-0.327,0.866,-0.129
12.39,-0.216,1.025,0.026
12.4,-0.083,1.027,0.182
12.41,-0.166,0.76,0.039
12.42,-0.373,1.144,-0.141
12.43,-0.2,0.839,-0.074
12.44,-0.128,1.269,0.043
12.45,-0.054,0.679,0.155
12.46,-0.271,0.999,0.018
12.47,-0.382,0.99,-0.133
12.48,-0.156,1.063,-0.088
12.49,-0.147,0.975,0.136
12.5,-0.2,0.793,0.145
12.51,-0.303,1.134,-0.09
12.52,-0.221,0.759,-0.171
12.53,-0.247,1.153,-0.048
12.54,-0.096,0.829,0.186
12.55,-0.14,1.05,0.085
12.56,-0.28,0.941,-0.12
12.57,-0.267,0.917,-0.117
12.58,-0.203,1.168,0.054
12.59,-0.033,0.78,0.146
12.6,-0.216,1.099,0.022
12.61,-0.375,0.79,-0.13
12.62,-0.237,1.172,-0.037
12.63,0.001,0.937,-0.019
12.64,-0.102,0.86,0.155
12.65,-0.3,0.998,-0.023
12.66,-0.278,0.913,-0.147
12.67,-0.151,1.035,-0.088
12.68,-0.105,0.747,0.1
12.69,-0.203,1.074,0.148
12.7,-0.273,0.839,-0.123
12.71,-0.365,1.14,-0.131
12.72,-0.174,0.829,0.009
12.73,-0.123,1.062,0.203
12.74,-0.136,0.923,0.018
12.75,-0.351,0.902,-0.151
12.76,-0.291,1.136,-0.045
12.77,-0.007,0.924,-0.011
12.78,-0.125,1.028,0.126
12.79,-0.242,0.767,-0.005
12.8,-0.36,1.144,-0.124
12.81,-0.122,0.998,-0.087
12.82,-0.165,0.92,0.115
12.83,-0.139,0.934,0.178
12.84,-0.291,0.907,-0.08
12.85,-0.372,1.175,-0.123
12.86,-0.141,0.779,-0.024
12.87,-0.177,1.13,0.197
12.88,-0.089,0.792,0.059
12.89,-0.337,1.02,-0.124
12.9,-0.261,1.021,-0.095
12.91,-0.15,0.984,0.066
12.92,-0.015,1.063,0.144
12.93,-0.2,0.749,0.003
12.94,-0.449,1.194,-0.124
12.95,-0.145,0.961,-0.081
12.96,-0.121,1.086,0.026
12.97,-0.1,0.747,0.161
12.98,-0.342,0.943,-0.038
12.99,-0.333,1.159,-0.132
13.0,-0.19,0.822,-0.055
13.01,-0.142,1.131,0.107
13.02,-0.138,0.716,0.147
13.03,-0.373,1.115,-0.121
13.04,-0.271,0.867,-0.139
13.05,-0.173,1.042,-0.024
13.06,-0.113,1.027,0.176
13.07,-0.13,0.753,0.022
13.08,-0.41,1.17,-0.106
13.09,-0.214,0.855,-0.055
13.1,-0.106,1.282,0.023
13.11,-0.054,0.693,0.163
13.12,-0.23,0.969,-0.008
13.13,-0.356,1.045,-0.106
13.14,-0.141,0.976,-0.116
13.15,-0.123,1.08,0.058
13.16,-0.106,0.693,0.15
13.17,-0.418,1.183,-0.036
13.18,-0.294,0.761,-0.123
13.19,-0.199,1.097,-0.03
13.2,-0.108,0.972,0.171
13.21,-0.141,0.842,0.079
13.22,-0.358,1.064,-0.117
13.23,-0.177,0.761,-0.139
13.24,-0.234,1.283,0.094
13.25,0.006,0.718,0.136
13.26,-0.284,1.071,0.057
13.27,-0.316,0.792,-0.112
13.28,-0.244,1.156,-0.062
13.29,-0.091,0.899,0.028
13.3,-0.108,0.866,0.142
13.31,-0.355,1.063,-0.003
13.32,-0.23,0.855,-0.183
13.33,-0.246,1.147,-0.045
13.34,-0.076,0.766,0.135
13.35,-0.16,1.144,0.136
13.36,-0.255,0.828,-0.131
13.37,-0.24,1.023,-0.122
13.38,-0.191,1.069,-0.006
13.39,-0.073,0.84,0.133
13.4,-0.171,1.056,0.037
13.41,-0.317,0.816,-0.14
13.42,-0.252,1.25,-0.036
13.43,-0.12,0.858,0.026
13.44,-0.068,0.975,0.183
13.45,-0.237,0.917,-0.003
13.46,-0.364,0.958,-0.17
13.47,-0.237,1.082,-0.057
13.48,-0.059,0.809,0.113
13.49,-0.167,1.034,0.119
13.5,-0.29,0.837,-0.055
13.51,-0.308,1.217,-0.186
13.52,-0.145,0.859,-0.065
13.53,-0.111,0.995,0.211
13.54,-0.128,0.993,0.079
13.55,-0.321,0.884,-0.148
13.56,-0.288,1.113,-0.108
13.57,-0.14,0.907,0.069
13.58,-0.063,1.121,0.149
13.59,-0.156,0.751,0.007
13.6,-0.347,1.064,-0.153
13.61,-0.143,1.074,-0.051
13.62,-0.12,0.964,0.038
13.63,-0.094,0.896,0.169
13.64,-0.271,0.835,-0.057
13.65,-0.405,1.224,-0.119
13.66,-0.129,0.832,-0.076
13.67,-0.149,1.07,0.101
13.68,-0.15,0.748,0.153
13.69,-0.281,1.046,-0.116
13.7,-0.281,1.082,-0.151
13.71,-0.181,0.877,-0.017
13.72,-0.091,1.119,0.159
13.73,-0.081,0.741,0.047
13.74,-0.457,1.149,-0.135
13.75,-0.205,0.889,-0.115
13.76,-0.174,1.177,0.104
13.77,-0.105,0.858,0.15
13.78,-0.234,0.794,-0.022
13.79,-0.391,1.209,-0.069
13.8,-0.134,0.898,-0.091
13.81,-0.187,1.111,0.069
13.82,-0.034,0.674,0.131
13.83,-0.422,1.091,-0.042
13.84,-0.282,0.921,-0.21
13.85,-0.19,0.934,-0.033
13.86,-0.145,1.039,0.147
13.87,-0.151,0.749,0.13
13.88,-0.435,1.127,-0.123
13.89,-0.221,0.733,-0.129
13.9,-0.205,1.252,0.083
13.91,-0.051,0.81,0.134
13.92,-0.213,0.887,0.044
13.93,-0.399,1.083,-0.119
13.94,-0.147,0.938,-0.085
13.95,-0.166,1.162,0.052
13.96,-0.057,0.638,0.158
13.97,-0.376,1.129,-0.002
13.98,-0.305,0.833,-0.112
13.99,-0.276,1.063,-0.092
14.0,-0.019,0.899,0.067
14.01,-0.158,0.837,0.133
14.02,-0.331,1.108,-0.089
14.03,-0.257,0.761,-0.116
14.04,-0.221,1.216,-0.008
14.05,-0.088,0.813,0.179
14.06,-0.197,1.015,0.078
14.07,-0.295,0.813,-0.14
14.08,-0.295,1.137,-0.078
14.09,-0.109,1.01,0.014
14.1,-0.03,0.826,0.143
14.11,-0.233,1.047,0.001
14.12,-0.327,0.861,-0.14
14.13,-0.226,1.178,-0.068
14.14,-0.121,0.774,0.085
14.15,-0.161,1.055,0.175
14.16,-0.302,0.886,-0.064
14.17,-0.334,1.003,-0.166
14.18,-0.185,0.986,-0.036
14.19,-0.073,0.851,0.136
14.2,-0.191,1.078,0.085
14.21,-0.284,0.832,-0.12
14.22,-0.266,1.145,-0.111
14.23,-0.16,0.935,0.051
14.24,-0.06,1.032,0.143
14.25,-0.155,0.898,0.026
14.26,-0.324,0.95,-0.142
14.27,-0.251,1.215,-0.045
14.28,-0.096,0.866,0.041
14.29,-0.093,0.987,0.138
14.3,-0.29,0.805,-0.009
14.31,-0.304,1.173,-0.139
14.32,-0.143,0.925,-0.056
14.33,-0.124,0.911,0.095
14.34,-0.199,0.984,0.169
14.35,-0.304,0.885,-0.092
14.36,-0.344,1.144,-0.133
14.37,-0.164,0.847,0.02
14.38,-0.116,1.177,0.163
14.39,-0.092,0.795,0.06
14.4,-0.354,1.022,-0.122
14.41,-0.259,1.043,-0.08
14.42,-0.11,1.026,0.04
14.43,-0.097,1.025,0.129
14.44,-0.222,0.703,-0.006
14.45,-0.439,1.242,-0.113
14.46,-0.126,0.945,-0.068
14.47,-0.12,1.06,0.048
14.48,-0.131,0.771,0.16
14.49,-0.322,0.953,-0.013
14.5,-0.297,1.133,-0.167
14.51,-0.202,0.841,-0.033
14.52,-0.127,1.112,0.124
14.53,-0.134,0.747,0.111
14.54,-0.331,1.098,-0.129
14.55,-0.28,0.818,-0.158
14.56,-0.193,1.078,0.078
14.57,-0.032,1.034,0.136
14.58,-0.21,0.702,0.044
14.59,-0.365,1.179,-0.128
14.6,-0.174,0.917,-0.08
14.61,-0.139,1.188,0.01
14.62,-0.072,0.649,0.175
14.63,-0.307,0.987,-0.025
14.64,-0.35,1.007,-0.129
14.65,-0.187,0.98,-0.082
14.66,-0.112,1.07,0.05
14.67,-0.056,0.673,0.128
14.68,-0.386,1.178,-0.046
14.69,-0.288,0.756,-0.153
14.7,-0.221,1.084,-0.046
14.71,-0.052,0.943,0.172
14.72,-0.149,0.931,0.093
14.73,-0.35,1.02,-0.143
14.74,-0.226,0.724,-0.134
14.75,-0.138,1.288,0.072
14.76,0.023,0.753,0.134
14.77,-0.294,1.079,0.057
14.78,-0.299,0.865,-0.128
14.79,-0.174,1.121,-0.068
14.8,-0.168,1.047,0.033
14.81,-0.061,0.686,0.17
14.82,-0.342,1.164,0.013
14.83,-0.28,0.798,-0.152
14.84,-0.315,1.142,-0.056
14.85,-0.11,0.854,0.138
14.86,-0.103,1.126,0.145
14.87,-0.303,0.805,-0.133
14.88,-0.332,1.001,-0.103
14.89,-0.128,0.992,-0.047
14.9,-0.001,0.939,0.146
14.91,-0.195,1.081,0.042
14.92,-0.33,0.807,-0.143
14.93,-0.313,1.206,-0.023
14.94,-0.051,0.929,-0.004
14.95,-0.139,0.955,0.15
14.96,-0.214,0.856,-0.004
14.97,-0.367,1.015,-0.099
14.98,-0.112,1.104,-0.136
14.99,-0.104,0.846,0.107
15.0,-0.115,1.009,0.137
15.01,-0.284,0.85,-0.03
15.02,-0.312,1.176,-0.157
15.03,-0.214,0.876,-0.052
15.04,-0.154,1.002,0.154
15.05,-0.166,0.974,0.135
15.06,-0.305,0.885,-0.121
15.07,-0.31,1.108,-0.126
15.08,-0.14,0.872,0.03
15.09,-0.074,1.137,0.128
15.1,-0.148,0.752,0.051
15.11,-0.38,1.095,-0.146
15.12,-0.281,0.994,-0.08
15.13,-0.081,1.006,0.027
15.14,-0.094,0.959,0.13
15.15,-0.273,0.734,-0.022
15.16,-0.369,1.252,-0.12
15.17,-0.106,0.927,-0.107
15.18,-0.136,1.056,0.088
15.19,-0.099,0.719,0.182
15.2,-0.322,1.036,-0.024
15.21,-0.329,1.052,-0.18
15.22,-0.202,0.82,-0.012
15.23,-0.122,1.139,0.108
15.24,-0.112,0.715,0.09
15.25,-0.37,1.146,-0.117
15.26,-0.255,0.788,-0.154
15.27,-0.205,1.133,0.086
15.28,-0.003,0.956,0.135
15.29,-0.167,0.749,0.003
15.3,-0.379,1.138,-0.087
15.31,-0.198,0.9,-0.067
15.32,-0.138,1.257,-0.03
15.33,-0.032,0.627,0.158
15.34,-0.343,1.042,0.012
15.35,-0.339,0.922,-0.126
15.36,-0.134,0.99,-0.122
15.37,-0.162,1.119,0.135
15.38,-0.088,0.691,0.108
15.39,-0.373,1.159,-0.019
15.4,-0.184,0.792,-0.189
15.41,-0.279,1.146,-0.038
15.42,-0.131,0.841,0.151
15.43,-0.126,0.981,0.143
15.44,-0.305,1.015,-0.123
15.45,-0.243,0.753,-0.128
15.46,-0.259,1.238,0.067
15.47,0.055,0.775,0.139
15.48,-0.239,1.093,0.055
15.49,-0.294,0.834,-0.147
15.5,-0.223,1.119,-0.105
15.51,-0.149,1.055,0.041
15.52,-0.056,0.762,0.143
15.53,-0.233,1.09,0.012
15.54,-0.301,0.836,-0.115
15.55,-0.237,1.264,-0.037
15.56,-0.124,0.795,0.068
15.57,-0.12,0.956,0.139
15.58,-0.306,0.956,-0.058
15.59,-0.302,1.029,-0.128
15.6,-0.19,1.0,-0.064
15.61,-0.116,0.774,0.149
15.62,-0.206,1.115,0.15
15.63,-0.237,0.851,-0.108
15.64,-0.344,1.116,-0.117
15.65,-0.2,0.916,0.026
15.66,-0.023,1.085,0.151
15.67,-0.202,0.794,0.0
15.68,-0.381,1.03,-0.12
15.69,-0.206,1.11,-0.042
15.7,-0.085,0.927,0.017
15.71,-0.135,0.968,0.171
15.72,-0.236,0.798,-0.031
15.73,-0.386,1.24,-0.089
15.74,-0.17,0.899,-0.08
15.75,-0.171,1.008,0.05
15.76,-0.126,0.857,0.149
15.77,-0.307,0.953,-0.092
15.78,-0.364,1.097,-0.104
15.79,-0.167,0.826,-0.032
15.8,-0.092,1.138,0.177
15.81,-0.104,0.708,0.027
15.82,-0.356,1.099,-0.116
15.83,-0.23,0.958,-0.112
15.84,-0.133,1.103,0.113
15.85,-0.061,0.968,0.125
15.86,-0.204,0.745,0.007
15.87,-0.423,1.219,-0.096
15.88,-0.161,0.906,-0.068
15.89,-0.143,1.159,0.077
15.9,-0.102,0.681,0.141
15.91,-0.316,1.015,-0.018
15.92,-0.331,1.075,-0.146
15.93,-0.167,0.899,-0.077
15.94,-0.109,1.065,0.083
15.95,-0.128,0.698,0.12
15.96,-0.412,1.189,-0.077
15.97,-0.292,0.815,-0.151
15.98,-0.151,1.09,0.01
15.99,-0.16,0.948,0.197
16.0,-0.209,0.816,0.064
16.01,-0.339,1.111,-0.14
16.02,-0.223,0.798,-0.099
16.03,-0.162,1.208,0.058
16.04,0.019,0.754,0.167
16.05,-0.254,1.035,-0.012
16.06,-0.4,0.846,-0.129
16.07,-0.201,0.981,-0.026
16.08,-0.037,1.15,0.085
16.09,-0.163,0.746,0.109
16.1,-0.352,1.108,-0.049
16.11,-0.254,0.82,-0.087
16.12,-0.167,1.236,-0.076
16.13,-0.104,0.798,0.097
16.14,-0.18,0.953,0.186
16.15,-0.262,1.034,-0.125
16.16,-0.247,0.887,-0.115
16.17,-0.302,1.138,0.017
16.18,0.024,0.799,0.168
16.19,-0.233,1.116,0.035
16.2,-0.303,0.788,-0.174
16.21,-0.302,1.09,-0.044
16.22,0.01,1.029,0.04
16.23,-0.098,0.828,0.177
16.24,-0.283,1.052,0.007
16.25,-0.309,0.85,-0.131
16.26,-0.259,1.185,-0.082
16.27,-0.062,0.761,0.072
16.28,-0.18,1.076,0.151
16.29,-0.281,0.918,-0.068
16.3,-0.288,0.962,-0.165
16.31,-0.208,1.008,-0.047
16.32,-0.086,0.88,0.211
16.33,-0.119,1.092,0.051
16.34,-0.345,0.799,-0.095
16.35,-0.297,1.14,-0.1
16.36,-0.131,0.949,0.069
16.37,-0.028,0.968,0.131
16.38,-0.225,0.893,0.007
16.39,-0.35,0.936,-0.098
16.4,-0.172,1.25,-0.075
16.41,-0.118,0.801,0.028
16.42,-0.085,0.972,0.161
16.43,-0.304,0.87,-0.032
16.44,-0.313,1.202,-0.189
16.45,-0.193,0.905,-0.044
16.46,-0.178,1.093,0.158
16.47,-0.105,0.9,0.095
16.48,-0.351,0.953,-0.111
16.49,-0.239,1.038,-0.119
16.5,-0.211,0.957,0.058
16.51,-0.01,1.099,0.152
16.52,-0.156,0.713,0.013
16.53,-0.416,1.163,-0.149
16.54,-0.176,0.978,-0.056
16.55,-0.132,1.101,0.042
16.56,-0.071,0.815,0.159
16.57,-0.265,0.839,-0.016
16.58,-0.413,1.225,-0.063
16.59,-0.174,0.874,-0.094
16.6,-0.146,1.104,0.108
16.61,-0.091,0.705,0.116
16.62,-0.388,1.081,-0.057
16.63,-0.297,0.952,-0.19
16.64,-0.169,0.913,-0.062
16.65,-0.111,1.094,0.182
16.66,-0.12,0.754,0.067
16.67,-0.373,1.137,-0.123
16.68,-0.203,0.786,-0.106
16.69,-0.237,1.242,0.06
16.7,-0.029,0.803,0.112
16.71,-0.203,0.886,0.028
16.72,-0.356,1.087,-0.13
16.73,-0.173,0.923,-0.074
16.74,-0.148,1.16,0.056
16.75,-0.05,0.604,0.167
16.76,-0.35,1.13,-0.008
16.77,-0.305,0.87,-0.13
16.78,-0.212,1.042,-0.09
16.79,-0.089,0.961,0.045
16.8,-0.175,0.796,0.16
16.81,-0.184,0.91,-0.057
16.82,-0.174,1.128,0.157
16.83,-0.118,0.718,0.096
16.84,-0.381,1.146,-0.117
16.85,-0.231,0.765,-0.132
16.86,-0.196,1.182,0.051
16.87,-0.009,0.906,0.151
16.88,-0.18,0.816,0.022
16.89,-0.365,1.079,-0.117
16.9,-0.189,0.884,-0.07
16.91,-0.168,1.248,0.015
16.92,-0.079,0.629,0.141
16.93,-0.301,1.064,-0.008
16.94,-0.365,0.923,-0.114
16.95,-0.221,1.039,-0.064
16.96,-0.112,0.975,0.076
16.97,-0.069,0.695,0.148
16.98,-0.409,1.221,-0.038
16.99,-0.253,0.81,-0.195
17.0,-0.242,1.081,-0.069
17.01,-0.089,0.818,0.16
17.02,-0.143,1.002,0.084
17.03,-0.38,0.957,-0.144
17.04,-0.229,0.8,-0.092
17.05,-0.152,1.258,0.047
17.06,0.007,0.778,0.088
17.07,-0.269,1.033,0.032
17.08,-0.352,0.825,-0.13
17.09,-0.207,1.172,-0.077
17.1,-0.074,0.986,0.041
17.11,-0.123,0.831,0.14
17.12,-0.377,1.063,0.027
17.13,-0.25,0.831,-0.151
17.14,-0.293,1.166,-0.045
17.15,-0.092,0.767,0.079
17.16,-0.196,1.109,0.171
17.17,-0.251,0.93,-0.123
17.18,-0.278,0.926,-0.143
17.19,-0.191,0.909,-0.015
17.2,-0.082,1.002,0.211
17.21,-0.136,0.984,0.027
17.22,-0.355,0.863,-0.128
17.23,-0.312,1.17,-0.015
17.24,-0.088,0.88,0.027
17.25,-0.049,1.025,0.129
17.26,-0.204,0.826,-0.015
17.27,-0.374,1.083,-0.14
17.28,-0.169,1.04,-0.091
17.29,-0.078,0.87,0.063
17.3,-0.115,0.959,0.147
17.31,-0.351,0.87,-0.015
17.32,-0.391,1.206,-0.147
17.33,-0.175,0.804,-0.068
17.34,-0.137,1.035,0.138
17.35,-0.18,0.864,0.109
17.36,-0.287,0.964,-0.111
17.37,-0.288,1.068,-0.119
17.38,-0.137,0.83,-0.016
17.39,-0.129,1.142,0.162
17.4,-0.107,0.729,0.045
17.41,-0.411,1.155,-0.113
17.42,-0.231,0.938,-0.066
17.43,-0.138,1.104,0.061
17.44,-0.041,0.859,0.149
17.45,-0.218,0.812,-0.007
17.46,-0.427,1.188,-0.165
17.47,-0.144,0.872,-0.063
17.48,-0.092,1.15,0.079
17.49,-0.081,0.671,0.135
17.5,-0.364,1.042,0.012
17.51,-0.32,1.001,-0.151
17.52,-0.258,0.906,-0.038
17.53,-0.115,1.027,0.128
17.54,-0.129,0.768,0.154
17.55,-0.335,1.188,-0.135
17.56,-0.276,0.748,-0.122
17.57,-0.248,1.174,0.046
17.58,-0.038,0.909,0.141
17.59,-0.208,0.843,0.025
17.6,-0.327,1.054,-0.142
17.61,-0.218,0.907,-0.072
17.62,-0.104,1.236,0.048
17.63,-0.03,0.633,0.144
17.64,-0.285,1.063,-0.006
17.65,-0.35,0.907,-0.133
17.66,-0.176,1.104,-0.066
17.67,-0.136,0.979,0.12
17.68,-0.097,0.749,0.12
17.69,-0.383,1.159,-0.019
17.7,-0.234,0.799,-0.198
17.71,-0.249,1.115,-0.038
17.72,-0.055,0.794,0.167
17.73,-0.19,1.028,0.11
17.74,-0.313,0.967,-0.135
17.75,-0.26,0.842,-0.129
17.76,-0.239,1.145,0.05
17.77,-0.051,0.808,0.163
17.78,-0.237,1.121,0.04
17.79,-0.301,0.774,-0.16
17.8,-0.309,1.141,-0.047
17.81,-0.03,0.977,0.009
17.82,-0.076,0.882,0.165
17.83,-0.289,0.997,-0.044
17.84,-0.319,0.862,-0.102
17.85,-0.149,1.184,-0.088
17.86,-0.116,0.789,0.098
17.87,-0.163,1.04,0.138
17.88,-0.277,0.926,-0.066
17.89,-0.304,1.03,-0.178
17.9,-0.226,0.942,-0.042
17.91,-0.104,0.863,0.185
17.92,-0.128,1.11,0.106
17.93,-0.293,0.802,-0.172
17.94,-0.279,1.168,-0.11
17.95,-0.162,0.93,0.028
17.96,-0.031,0.996,0.159
17.97,-0.223,0.891,0.021
17.98,-0.379,1.125,-0.13
17.99,-0.137,1.068,-0.139
18.0,-0.117,0.908,0.059
18.01,-0.115,0.937,0.155
18.02,-0.338,0.863,-0.004
18.03,-0.341,1.217,-0.157
18.04,-0.188,0.825,-0.047
18.05,-0.115,1.092,0.114
18.06,-0.158,0.858,0.117
18.07,-0.358,0.981,-0.092
18.08,-0.297,1.041,-0.122
18.09,-0.199,0.931,0.0
18.1,-0.054,1.115,0.188
18.11,-0.145,0.724,0.051
18.12,-0.372,1.133,-0.151
18.13,-0.264,0.928,-0.075
18.14,-0.051,1.086,-0.027
18.15,-0.082,0.808,0.169
18.16,-0.26,0.825,0.006
18.17,-0.412,1.152,-0.119
18.18,-0.163,0.872,-0.08
18.19,-0.126,1.125,0.112
18.2,-0.1,0.662,0.141
18.21,-0.379,1.084,-0.009
18.22,-0.303,0.946,-0.183
18.23,-0.219,0.916,-0.019
18.24,-0.128,1.06,0.153
18.25,-0.093,0.768,0.1
18.26,-0.38,1.153,-0.091
18.27,-0.235,0.725,-0.095
18.28,-0.239,1.215,0.032
18.29,-0.04,0.903,0.13
18.3,-0.214,0.878,0.042
18.31,-0.354,1.039,-0.125
18.32,-0.249,0.927,-0.063
18.33,-0.071,1.225,-0.014
18.34,0.001,0.638,0.149
18.35,-0.272,1.084,-0.013
18.36,-0.355,0.857,-0.112
18.37,-0.204,1.113,-0.094
18.38,-0.13,0.969,0.136
18.39,-0.093,0.778,0.112
18.4,-0.376,1.136,-0.016
18.41,-0.251,0.789,-0.182
18.42,-0.285,1.124,-0.039
18.43,-0.006,0.805,0.123
18.44,-0.207,1.066,0.132
18.45,-0.277,0.915,-0.14
18.46,-0.26,0.86,-0.123
18.47,-0.211,1.144,0.031
18.48,-0.104,0.843,0.16
18.49,-0.156,1.074,0.027
18.5,-0.302,0.81,-0.139
18.51,-0.251,1.145,-0.064
18.52,-0.102,0.987,0.037
18.53,-0.044,0.874,0.165
18.54,-0.251,1.021,0.002
18.55,-0.337,0.882,-0.104
18.56,-0.229,1.187,-0.067
18.57,-0.058,0.787,0.066
18.58,-0.185,1.075,0.144
18.59,-0.218,0.863,-0.065
18.6,-0.339,1.059,-0.114
18.61,-0.181,0.958,-0.067
18.62,-0.159,0.872,0.205
18.63,-0.088,1.068,0.07
18.64,-0.306,0.812,-0.093
18.65,-0.256,1.162,-0.141
18.66,-0.142,0.93,0.027
18.67,-0.075,1.052,0.135
18.68,-0.132,0.861,0.024
18.69,-0.324,0.992,-0.117
18.7,-0.259,1.159,-0.055
18.71,-0.077,0.869,0.027
18.72,-0.122,1.028,0.177
18.73,-0.194,0.755,-0.012
18.74,-0.37,1.202,-0.188
18.75,-0.176,0.961,-0.075
18.76,-0.135,0.957,0.08
18.77,-0.091,0.839,0.131
18.78,-0.421,1.037,-0.056
18.79,-0.292,1.012,-0.141
18.8,-0.144,0.877,-0.0
18.81,-0.105,1.124,0.17
18.82,-0.149,0.707,0.068
18.83,-0.321,1.146,-0.14
18.84,-0.23,0.86,-0.122
18.85,-0.26,1.135,0.101
18.86,-0.056,0.909,0.167
18.87,-0.213,0.825,0.015
18.88,-0.445,1.123,-0.118
18.89,-0.115,0.877,-0.064
18.9,-0.105,1.216,0.032
18.91,-0.065,0.64,0.136
18.92,-0.37,1.068,-0.014
18.93,-0.285,0.933,-0.165
18.94,-0.193,0.944,-0.067
18.95,-0.153,1.053,0.101
18.96,-0.135,0.792,0.155
18.97,-0.344,1.149,-0.106
18.98,-0.281,0.705,-0.116
18.99,-0.214,1.174,-0.007
19.0,-0.082,0.913,0.184
19.01,-0.168,0.946,0.06
19.02,-0.302,1.001,-0.145
19.03,-0.223,0.856,-0.119
19.04,-0.191,1.281,0.05
19.05,-0.021,0.689,0.151
19.06,-0.295,1.076,0.018
19.07,-0.293,0.842,-0.141
19.08,-0.251,1.148,-0.031
19.09,-0.059,1.006,0.017
19.1,-0.078,0.785,0.133
19.11,-0.33,1.094,-0.02
19.12,-0.289,0.819,-0.151
19.13,-0.251,1.163,-0.03
19.14,-0.073,0.787,0.075
19.15,-0.193,1.076,0.169
19.16,-0.259,0.928,-0.083
19.17,-0.289,0.894,-0.121
19.18,-0.208,1.087,0.012
19.19,-0.072,0.86,0.173
19.2,-0.191,1.125,0.086
19.21,-0.285,0.776,-0.156
19.22,-0.339,1.169,-0.041
19.23,-0.104,0.972,0.043
19.24,0.006,0.88,0.122
19.25,-0.278,0.967,0.006
19.26,-0.339,0.913,-0.1
19.27,-0.204,1.218,-0.067
19.28,-0.074,0.768,0.033
19.29,-0.11,1.031,0.142
19.3,-0.34,0.861,-0.073
19.31,-0.303,1.096,-0.122
19.32,-0.204,0.942,-0.079
19.33,-0.132,0.839,0.12
19.34,-0.147,1.036,0.142
19.35,-0.324,0.855,-0.117
19.36,-0.318,1.117,-0.135
19.37,-0.242,0.849,0.046
19.38,-0.061,1.117,0.156
19.39,-0.179,0.85,0.027
19.4,-0.354,0.979,-0.134
19.41,-0.261,1.149,-0.026
19.42,-0.026,0.932,-0.04
19.43,-0.097,0.992,0.146
19.44,-0.212,0.743,-0.022
19.45,-0.426,1.255,-0.129
19.46,-0.161,0.905,-0.056
19.47,-0.073,0.988,0.065
19.48,-0.12,0.875,0.123
19.49,-0.301,0.912,-0.063
19.5,-0.375,1.178,-0.113
19.51,-0.174,0.793,-0.045
19.52,-0.155,1.09,0.166
19.53,-0.116,0.752,0.098
19.54,-0.38,1.117,-0.101
19.55,-0.276,0.912,-0.147
19.56,-0.125,0.969,-0.033
19.57,-0.046,1.037,0.154
19.58,-0.25,0.823,-0.008
19.59,-0.359,1.107,-0.146
19.6,-0.173,0.917,-0.059
19.61,-0.108,1.217,0.064
19.62,-0.034,0.608,0.116
19.63,-0.381,1.083,-0.02
19.64,-0.298,0.925,-0.118
19.65,-0.14,1.019,-0.059
19.66,-0.16,0.982,0.088
19.67,-0.129,0.742,0.148
19.68,-0.354,1.218,-0.074
19.69,-0.265,0.759,-0.14
19.7,-0.27,1.12,0.014
19.71,-0.033,0.882,0.202
19.72,-0.164,0.954,0.012
19.73,-0.361,0.963,-0.139
19.74,-0.257,0.856,-0.084
19.75,-0.07,1.255,0.023
19.76,-0.052,0.668,0.157
19.77,-0.271,1.072,0.004
19.78,-0.361,0.866,-0.118
19.79,-0.137,1.12,-0.09
19.8,-0.104,0.976,0.071
19.81,-0.13,0.803,0.146
19.82,-0.373,1.107,-0.037
19.83,-0.255,0.833,-0.152
19.84,-0.234,1.147,-0.025
19.85,-0.084,0.737,0.124
19.86,-0.132,1.051,0.136
19.87,-0.305,0.93,-0.129
19.88,-0.259,0.922,-0.114
19.89,-0.218,1.085,0.02
19.9,-0.046,0.839,0.196
19.91,-0.198,1.107,0.03
19.92,-0.322,0.772,-0.154
19.93,-0.275,1.18,-0.046
19.94,-0.026,0.957,0.005
19.95,-0.073,0.89,0.121
19.96,-0.263,0.947,0.001
19.97,-0.333,0.937,-0.086
19.98,-0.195,1.169,-0.08
19.99,-0.125,0.761,0.079
20.0,-0.21,1.091,0.173
20.01,-0.236,0.879,-0.088
20.02,-0.301,1.07,-0.177
20.03,-0.177,0.896,-0.06
20.04,-0.123,0.949,0.239
20.05,-0.139,1.039,0.064
20.06,-0.26,0.801,-0.13
20.07,-0.366,1.178,-0.097
20.08,-0.096,0.897,0.064
20.09,-0.019,1.037,0.15
20.1,-0.201,0.859,0.007
20.11,-0.39,1.009,-0.12
20.12,-0.133,1.174,-0.053
20.13,-0.074,0.877,0.055
20.14,-0.186,1.01,0.154
20.15,-0.292,0.802,0.008
20.16,-0.396,1.224,-0.138
20.17,-0.133,0.847,-0.043
20.18,-0.138,1.04,0.113
20.19,-0.199,0.906,0.117
20.2,-0.236,0.906,-0.069
20.21,-0.343,1.152,-0.15
20.22,-0.16,0.789,-0.035
20.23,-0.074,1.14,0.157
20.24,-0.108,0.754,0.048
20.25,-0.35,1.113,-0.138
20.26,-0.277,0.962,-0.105
20.27,-0.094,1.058,0.065
20.28,-0.015,0.965,0.118
20.29,-0.227,0.734,-0.007
20.3,-0.426,1.189,-0.133
20.31,-0.164,0.947,-0.047
20.32,-0.139,1.135,0.08
20.33,-0.142,0.681,0.138
20.34,-0.361,1.021,-0.0
20.35,-0.293,1.087,-0.135
20.36,-0.113,0.862,-0.078
20.37,-0.137,1.01,0.16
20.38,-0.12,0.788,0.088
20.39,-0.338,1.13,-0.146
20.4,-0.227,0.73,-0.103
20.41,-0.252,1.249,0.067
20.42,0.045,0.791,0.144
20.43,-0.223,0.97,0.024
20.44,-0.385,0.962,-0.176
20.45,-0.189,0.961,-0.057
20.46,-0.062,1.188,0.08
20.47,-0.095,0.626,0.139
20.48,-0.415,1.132,0.03
20.49,-0.217,0.819,-0.193
20.5,-0.161,1.108,-0.054
20.51,-0.095,0.882,0.105
20.52,-0.169,0.906,0.128
20.53,-0.335,1.111,-0.078
20.54,-0.246,0.76,-0.134
20.55,-0.29,1.202,0.011
20.56,-0.033,0.807,0.177
20.57,-0.184,1.057,0.041
20.58,-0.289,0.857,-0.141
20.59,-0.277,0.987,-0.098
20.6,-0.093,1.113,0.044
20.61,0.015,0.759,0.118
20.62,-0.333,1.084,0.033
20.63,-0.327,0.78,-0.135
20.64,-0.253,1.208,-0.055
20.65,-0.107,0.842,0.084
20.66,-0.102,0.93,0.143
20.67,-0.288,0.984,-0.046
20.68,-0.282,0.908,-0.171
20.69,-0.214,1.106,-0.033
20.7,-0.116,0.795,0.15
20.71,-0.166,1.138,0.094
20.72,-0.268,0.852,-0.123
20.73,-0.305,1.046,-0.09
20.74,-0.201,0.982,-0.007
20.75,-0.025,0.953,0.152
20.76,-0.154,1.019,0.023
20.77,-0.34,0.828,-0.138
20.78,-0.289,1.24,-0.064
20.79,-0.06,0.881,0.073
20.8,-0.109,1.0,0.136
20.81,-0.249,0.846,-0.023
20.82,-0.367,1.062,-0.11
20.83,-0.151,1.065,-0.103
20.84,-0.11,0.803,0.082
20.85,-0.175,1.052,0.162
20.86,-0.301,0.84,-0.074
20.87,-0.348,1.18,-0.165
20.88,-0.151,0.814,-0.035
20.89,-0.178,1.039,0.197
20.9,-0.141,0.911,0.111
20.91,-0.298,0.906,-0.167
20.92,-0.314,1.102,-0.094
20.93,-0.21,0.909,0.1
20.94,-0.046,1.103,0.155
20.95,-0.185,0.736,-0.016
20.96,-0.384,1.108,-0.151
20.97,-0.155,1.044,-0.094
20.98,-0.099,1.019,0.064
20.99,-0.108,0.86,0.128
21.0,-0.334,0.846,-0.006
21.01,-0.394,1.245,-0.087
21.02,-0.111,0.835,-0.093
21.03,-0.168,1.054,0.125
21.04,-0.128,0.769,0.144
21.05,-0.379,1.032,-0.034
21.06,-0.271,1.01,-0.175
21.07,-0.182,0.864,0.019
21.08,-0.132,1.107,0.184
21.09,-0.098,0.77,0.047
21.1,-0.44,1.157,-0.156
21.11,-0.22,0.813,-0.091
21.12,-0.148,1.236,0.075
21.13,-0.054,0.814,0.114
21.14,-0.228,0.834,-0.015
21.15,-0.405,1.148,-0.132
21.16,-0.138,0.887,-0.084
21.17,-0.118,1.044,0.098
21.18,-0.077,0.652,0.107
21.19,-0.443,1.197,-0.038
21.2,-0.236,0.798,-0.192
21.21,-0.228,1.097,-0.016
21.22,-0.072,0.906,0.154
21.23,-0.191,0.889,0.102
21.24,-0.309,1.077,-0.142
21.25,-0.226,0.808,-0.111
21.26,-0.143,1.235,0.001
21.27,-0.046,0.762,0.18
21.28,-0.179,1.066,0.01
21.29,-0.345,0.863,-0.153
21.3,-0.259,1.049,-0.031
21.31,-0.058,1.076,0.045
21.32,-0.042,0.738,0.115
21.33,-0.342,1.09,-0.01
21.34,-0.326,0.848,-0.127
21.35,-0.166,1.197,-0.041
21.36,-0.116,0.801,0.101
21.37,-0.187,0.958,0.165
21.38,-0.302,0.983,-0.09
21.39,-0.236,0.931,-0.134
21.4,-0.241,1.082,-0.013
21.41,-0.031,0.78,0.185
21.42,-0.172,1.118,0.048
21.43,-0.36,0.813,-0.131
21.44,-0.295,1.103,-0.105
21.45,-0.099,1.027,0.08
21.46,-0.032,0.854,0.116
21.47,-0.271,0.996,0.016
21.48,-0.365,0.878,-0.084
21.49,-0.191,1.225,-0.087
21.5,-0.085,0.771,0.041
21.51,-0.154,1.029,0.144
21.52,-0.317,0.905,-0.041
21.53,-0.29,1.04,-0.158
21.54,-0.177,0.951,-0.05
21.55,-0.18,0.885,0.202
21.56,-0.119,1.08,0.114
21.57,-0.303,0.83,-0.122
21.58,-0.287,1.109,-0.099
21.59,-0.2,0.924,0.063
21.6,-0.007,1.048,0.126
21.61,-0.191,0.874,0.025
21.62,-0.419,0.938,-0.123
21.63,-0.238,1.195,-0.008
21.64,-0.06,0.893,0.056
21.65,-0.112,0.977,0.149
21.66,-0.276,0.839,-0.018
21.67,-0.295,1.213,-0.185
21.68,-0.172,0.913,-0.079
21.69,-0.088,0.91,0.083
21.7,-0.156,0.95,0.133
21.71,-0.339,0.905,-0.079
21.72,-0.303,1.176,-0.158
21.73,-0.174,0.805,-0.009
21.74,-0.136,1.143,0.208
21.75,-0.117,0.787,0.037
21.76,-0.351,1.036,-0.149
21.77,-0.249,0.965,-0.156
21.78,-0.118,0.977,0.081
21.79,-0.049,1.034,0.138
21.8,-0.198,0.744,-0.012
21.81,-0.461,1.186,-0.091
21.82,-0.092,0.933,-0.077
21.83,-0.132,1.102,0.059
21.84,-0.125,0.729,0.139
21.85,-0.338,0.984,0.023
21.86,-0.301,1.146,-0.184
21.87,-0.152,0.833,-0.086
21.88,-0.145,1.107,0.145
21.89,-0.1,0.749,0.123
21.9,-0.399,1.14,-0.063
21.91,-0.298,0.833,-0.166
21.92,-0.252,1.069,0.059
21.93,-0.036,1.008,0.148
21.94,-0.168,0.73,0.03
21.95,-0.393,1.162,-0.122
21.96,-0.23,0.862,-0.083
21.97,-0.102,1.215,0.023
21.98,-0.025,0.638,0.145
21.99,-0.35,1.125,0.01
22.0,-0.299,0.919,-0.115
22.01,-0.189,1.089,-0.08
22.02,-0.155,0.912,0.092
22.03,-0.114,0.781,0.116
22.04,-0.414,1.137,-0.051
22.05,-0.22,0.746,-0.151
22.06,-0.227,1.187,-0.014
22.07,-0.093,0.819,0.179
22.08,-0.173,1.042,0.098
22.09,-0.27,0.93,-0.127
22.1,-0.268,0.897,-0.113
22.11,-0.142,1.145,-0.001
22.12,-0.036,0.839,0.161
22.13,-0.257,1.08,0.03
22.14,-0.34,0.781,-0.129
22.15,-0.231,1.165,-0.05
22.16,-0.115,0.982,0.083
22.17,-0.069,0.811,0.141
22.18,-0.268,1.041,-0.008
22.19,-0.329,0.895,-0.115
22.2,-0.192,1.166,-0.063
22.21,-0.111,0.737,0.071
22.22,-0.209,1.065,0.16
22.23,-0.295,0.928,-0.1
22.24,-0.323,1.014,-0.151
22.25,-0.229,0.937,-0.001
22.26,-0.096,0.925,0.2
22.27,-0.123,1.066,0.057
22.28,-0.333,0.789,-0.143
22.29,-0.345,1.148,-0.051
22.3,-0.096,0.95,0.052
22.31,-0.014,0.988,0.109
22.32,-0.224,0.883,-0.027
22.33,-0.397,0.965,-0.13
22.34,-0.152,1.105,-0.079
22.35,-0.08,0.839,0.055
22.36,-0.12,1.008,0.133
22.37,-0.313,0.817,-0.02
22.38,-0.308,1.21,-0.124
22.39,-0.209,0.868,-0.068
22.4,-0.168,0.941,0.133
22.41,-0.144,0.942,0.177
22.42,-0.287,0.911,-0.14
22.43,-0.339,1.093,-0.118
22.44,-0.172,0.858,0.04
22.45,-0.043,1.191,0.177
22.46,-0.131,0.727,-0.003
22.47,-0.374,1.037,-0.158
22.48,-0.246,1.037,-0.038
22.49,-0.058,1.051,0.022
22.5,-0.089,0.923,0.135
22.51,-0.219,0.755,-0.015
22.52,-0.39,1.229,-0.111
22.53,-0.113,0.91,-0.074
22.54,-0.183,1.038,0.106
22.55,-0.099,0.717,0.111
22.56,-0.369,1.032,-0.006
22.57,-0.336,1.111,-0.173
22.58,-0.161,0.813,-0.057
22.59,-0.141,1.105,0.157
22.6,-0.15,0.742,0.106
22.61,-0.34,1.114,-0.159
22.62,-0.224,0.813,-0.108
22.63,-0.177,1.124,0.072
22.64,-0.087,0.944,0.116
22.65,-0.18,0.756,0.037
22.66,-0.386,1.165,-0.142
22.67,-0.211,0.878,-0.067
22.68,-0.115,1.221,0.047
22.69,-0.031,0.648,0.174
22.7,-0.319,1.024,-0.017
22.71,-0.334,1.01,-0.093
22.72,-0.138,1.003,-0.101
22.73,-0.178,0.999,0.122
22.74,-0.094,0.685,0.129
22.75,-0.426,1.23,-0.053
22.76,-0.264,0.707,-0.144
22.77,-0.231,1.164,0.029
22.78,-0.083,0.855,0.191
22.79,-0.161,1.042,0.034
22.8,-0.276,0.863,-0.15
22.81,-0.288,0.975,-0.105
22.82,-0.109,1.124,0.039
22.83,-0.013,0.748,0.148
22.84,-0.236,1.099,0.014
22.85,-0.369,0.815,-0.134
22.86,-0.203,1.204,-0.047
22.87,-0.11,0.855,0.047
22.88,-0.131,0.922,0.125
22.89,-0.303,1.035,0.007
22.9,-0.279,0.871,-0.207
22.91,-0.244,1.09,-0.038
22.92,-0.073,0.779,0.127
22.93,-0.174,1.115,0.149
22.94,-0.304,0.845,-0.116
22.95,-0.34,1.038,-0.122
22.96,-0.215,1.021,0.031
22.97,-0.021,0.909,0.146
22.98,-0.195,1.008,0.045
22.99,-0.304,0.824,-0.126
23.0,-0.282,1.252,-0.057
23.01,-0.062,0.865,0.016
23.02,-0.09,0.995,0.148
23.03,-0.213,0.861,0.006
23.04,-0.338,1.019,-0.129
23.05,-0.162,1.105,-0.068
23.06,-0.124,0.839,0.078
23.07,-0.192,1.025,0.135
23.08,-0.293,0.842,-0.02
23.09,-0.334,1.172,-0.14
23.1,-0.154,0.859,-0.052
23.11,-0.135,1.022,0.151
23.12,-0.107,0.955,0.11
23.13,-0.318,0.891,-0.127
23.14,-0.288,1.097,-0.114
23.15,-0.149,0.908,0.008
23.16,-0.075,1.133,0.149
23.17,-0.166,0.726,0.013
23.18,-0.374,1.111,-0.125
23.19,-0.217,1.031,-0.053
23.2,-0.093,1.025,0.017
23.21,-0.108,0.894,0.163
23.22,-0.202,0.789,-0.042
23.23,-0.425,1.257,-0.139
23.24,-0.072,0.845,-0.093
23.25,-0.156,1.097,0.101
23.26,-0.141,0.765,0.134
23.27,-0.369,1.045,-0.02
23.28,-0.298,1.017,-0.178
23.29,-0.234,0.854,0.0
23.3,-0.147,1.133,0.149
23.31,-0.112,0.688,0.085
23.32,-0.384,1.157,-0.138
23.33,-0.261,0.802,-0.123
23.34,-0.144,1.165,0.068
23.35,-0.005,0.927,0.137
23.36,-0.231,0.775,0.03
23.37,-0.414,1.129,-0.104
23.38,-0.164,0.927,-0.033
23.39,-0.086,1.238,-0.042
23.4,-0.092,0.623,0.165
23.41,-0.308,1.037,-0.003
23.42,-0.318,0.955,-0.11
23.43,-0.16,0.984,-0.116
23.44,-0.135,0.996,0.124
23.45,-0.118,0.732,0.142
23.46,-0.329,1.166,-0.07
23.47,-0.358,0.748,-0.146
23.48,-0.255,1.096,-0.003
23.49,-0.09,0.917,0.158
23.5,-0.131,0.964,0.047
23.51,-0.312,0.968,-0.133
23.52,-0.215,0.8,-0.073
23.53,-0.16,1.259,0.088
23.54,0.007,0.751,0.116
23.55,-0.297,1.081,0.024
23.56,-0.325,0.798,-0.097
23.57,-0.248,1.264,-0.057
23.58,-0.112,0.875,0.074
23.59,-0.115,0.95,0.165
23.6,-0.308,0.982,-0.072
23.61,-0.291,0.948,-0.134
23.62,-0.188,1.114,-0.091
23.63,-0.061,0.718,0.137
23.64,-0.197,1.096,0.165
23.65,-0.249,0.838,-0.143
23.66,-0.328,1.066,-0.112
23.67,-0.195,0.957,0.022
23.68,-0.088,0.96,0.173
23.69,-0.171,1.017,0.032
23.7,-0.329,0.834,-0.13
23.71,-0.318,1.187,-0.066
23.72,-0.049,0.907,0.036
23.73,-0.073,1.032,0.14
23.74,-0.208,0.795,-0.03
23.75,-0.357,1.027,-0.134
23.76,-0.182,1.098,-0.04
23.77,-0.119,0.873,0.057
23.78,-0.155,0.966,0.131
23.79,-0.259,0.837,-0.016
23.8,-0.313,1.228,-0.188
23.81,-0.176,0.838,-0.018
23.82,-0.131,0.992,0.133
23.83,-0.149,0.868,0.094
23.84,-0.324,0.972,-0.126
23.85,-0.294,1.089,-0.114
23.86,-0.163,0.8,0.022
23.87,-0.098,1.138,0.159
23.88,-0.205,0.764,0.024
23.89,-0.422,1.079,-0.162
23.9,-0.205,0.93,-0.06
23.91,-0.05,1.063,0.089
23.92,-0.142,0.922,0.12
23.93,-0.346,0.798,-0.021
23.94,-0.369,1.187,-0.127
23.95,-0.05,0.902,-0.074
23.96,-0.185,1.081,0.11
23.97,-0.199,0.705,0.174
23.98,-0.3,1.087,-0.06
23.99,-0.296,1.047,-0.131
24.0,-0.132,0.898,-0.082
24.01,-0.095,1.071,0.23
24.02,-0.132,0.734,0.029
24.03,-0.411,1.157,-0.161
24.04,-0.24,0.88,-0.068
24.05,-0.048,1.197,0.039
24.06,-0.128,0.788,0.145
24.07,-0.244,0.871,-0.008
24.08,-0.397,1.127,-0.095
24.09,-0.12,0.849,-0.087
24.1,-0.147,1.129,0.099
24.11,-0.121,0.705,0.171
24.12,-0.376,1.118,-0.098
24.13,-0.256,0.846,-0.177
24.14,-0.215,1.064,-0.002
24.15,-0.073,1.016,0.178
24.16,-0.171,0.746,0.047
24.17,-0.376,1.148,-0.091
24.18,-0.241,0.87,-0.062
24.19,-0.183,1.254,0.039
24.2,-0.023,0.646,0.117
24.21,-0.266,0.973,0.021
24.22,-0.301,1.03,-0.144
24.23,-0.205,0.952,-0.06
24.24,-0.128,1.102,0.11
24.25,-0.065,0.692,0.142
24.26,-0.418,1.187,-0.029
24.27,-0.299,0.81,-0.152
24.28,-0.236,1.089,-0.037
24.29,-0.041,0.914,0.122
24.3,-0.149,0.892,0.116
24.31,-0.338,1.052,-0.159
24.32,-0.219,0.775,-0.111
24.33,-0.187,1.289,0.061
24.34,0.011,0.739,0.169
24.35,-0.23,1.047,0.026
24.36,-0.308,0.825,-0.138
24.37,-0.224,1.213,-0.039
24.38,-0.129,0.879,0.09
24.39,-0.116,0.847,0.136
24.4,-0.312,1.052,-0.032
24.41,-0.223,0.905,-0.16
24.42,-0.208,1.112,-0.044
24.43,-0.074,0.75,0.162
24.44,-0.197,1.105,0.147
24.45,-0.305,0.842,-0.159
24.46,-0.29,1.011,-0.11
24.47,-0.162,1.058,0.028
24.48,-0.065,0.908,0.17
24.49,-0.213,1.024,-0.003
24.5,-0.35,0.796,-0.128
24.51,-0.257,1.267,0.005
24.52,-0.013,0.898,0.005
24.53,-0.108,0.925,0.134
24.54,-0.228,0.917,-0.031
24.55,-0.312,1.047,-0.145
24.56,-0.174,1.093,-0.072
24.57,-0.114,0.742,0.12
24.58,-0.236,1.089,0.16
24.59,-0.297,0.837,-0.132
24.6,-0.338,1.156,-0.139
24.61,-0.144,0.905,0.025
24.62,-0.105,0.988,0.2
24.63,-0.169,0.94,0.017
24.64,-0.366,0.853,-0.145
24.65,-0.27,1.177,-0.05
24.66,-0.124,0.889,0.079
24.67,-0.115,1.021,0.13
24.68,-0.262,0.788,-0.032
24.69,-0.327,1.14,-0.118
24.7,-0.104,1.025,-0.112
24.71,-0.145,0.833,0.084
24.72,-0.187,1.007,0.206
24.73,-0.278,0.844,-0.133
24.74,-0.302,1.164,-0.151
24.75,-0.16,0.901,0.005
24.76,-0.108,1.109,0.163
24.77,-0.155,0.799,0.053
24.78,-0.344,1.006,-0.144
24.79,-0.268,1.152,-0.037
24.8,-0.069,0.86,0.039
24.81,-0.098,1.002,0.165
24.82,-0.268,0.791,-0.028
24.83,-0.39,1.21,-0.161
24.84,-0.173,0.902,-0.059
24.85,-0.096,1.013,0.077
24.86,-0.167,0.895,0.16
24.87,-0.254,0.932,-0.098
24.88,-0.333,1.14,-0.133
24.89,-0.197,0.812,0.001
24.9,-0.102,1.148,0.197
24.91,-0.129,0.754,0.049
24.92,-0.363,1.105,-0.152
24.93,-0.246,1.012,-0.109
24.94,-0.147,1.035,0.042
24.95,-0.075,0.909,0.14
24.96,-0.24,0.748,-0.013
24.97,-0.402,1.231,-0.121
24.98,-0.131,0.865,-0.095
24.99,-0.152,1.095,0.063
25.0,-0.107,0.761,0.145
25.01,-0.348,1.017,-0.055
25.02,-0.307,1.019,-0.178
25.03,-0.163,0.874,-0.044
25.04,-0.145,1.137,0.151
25.05,-0.125,0.696,0.109
25.06,-0.329,1.152,-0.137
25.07,-0.264,0.838,-0.129
25.08,-0.212,1.147,0.071
25.09,-0.036,0.9,0.153
25.1,-0.218,0.819,0.034
25.11,-0.443,1.138,-0.163
25.12,-0.134,0.898,-0.068
25.13,-0.13,1.239,0.044
25.14,-0.08,0.635,0.184
25.15,-0.108,0.915,0.048
25.16,-0.126,0.973,0.144
25.17,-0.31,0.891,-0.02
25.18,-0.322,1.104,-0.146
25.19,-0.152,0.948,-0.099
25.2,-0.084,0.847,0.127
25.21,-0.202,1.062,0.118
25.22,-0.292,0.828,-0.117
25.23,-0.342,1.148,-0.11
25.24,-0.13,0.86,-0.005
25.25,-0.108,1.112,0.191
25.26,-0.188,0.84,0.009
25.27,-0.382,0.944,-0.132
25.28,-0.193,1.147,-0.076
25.29,-0.161,0.929,0.064
25.3,-0.097,0.965,0.127
25.31,-0.229,0.788,-0.033
25.32,-0.368,1.163,-0.159
25.33,-0.113,0.938,-0.063
25.34,-0.136,0.98,0.1
25.35,-0.176,0.867,0.139
25.36,-0.324,0.92,-0.058
25.37,-0.31,1.19,-0.159
25.38,-0.127,0.784,-0.028
25.39,-0.134,1.125,0.193
25.4,-0.073,0.772,0.038
25.41,-0.394,1.063,-0.172
25.42,-0.264,1.007,-0.044
25.43,-0.027,1.025,-0.001
25.44,-0.132,0.944,0.145
25.45,-0.252,0.76,0.012
25.46,-0.431,1.257,-0.12
25.47,-0.174,0.866,-0.073
25.48,-0.181,1.125,0.121
25.49,-0.127,0.799,0.139
25.5,-0.318,0.955,-0.063
25.51,-0.335,1.056,-0.127
25.52,-0.117,0.866,-0.036
25.53,-0.16,1.16,0.2
25.54,-0.095,0.694,0.046
25.55,-0.387,1.172,-0.124
25.56,-0.228,0.903,-0.115
25.57,-0.19,1.12,0.025
25.58,-0.019,0.929,0.145
25.59,-0.228,0.803,-0.019
25.6,-0.386,1.107,-0.156
25.61,-0.094,0.883,-0.063
25.62,-0.144,1.195,0.041
25.63,-0.052,0.618,0.146
25.64,-0.327,1.055,-0.003
25.65,-0.347,0.957,-0.179
25.66,-0.21,0.929,-0.037
25.67,-0.104,1.094,0.136
25.68,-0.155,0.736,0.095
25.69,-0.394,1.156,-0.09
25.7,-0.255,0.795,-0.143
25.71,-0.152,1.17,0.034
25.72,-0.064,0.868,0.134
25.73,-0.2,0.893,0.052
25.74,-0.399,1.06,-0.146
25.75,-0.198,0.865,-0.078
25.76,-0.154,1.244,0.116
25.77,-0.054,0.658,0.127
25.78,-0.34,1.071,-0.021
25.79,-0.316,0.856,-0.125
25.8,-0.088,1.113,-0.083
25.81,-0.149,0.944,0.125
25.82,-0.154,0.777,0.14
25.83,-0.363,1.17,-0.067
25.84,-0.266,0.801,-0.142
25.85,-0.25,1.191,-0.009
25.86,-0.1,0.797,0.205
25.87,-0.166,0.983,0.041
25.88,-0.327,0.835,-0.123
25.89,-0.216,1.173,-0.047
25.9,-0.067,0.937,0.028
25.91,-0.103,0.798,0.143
25.92,-0.322,1.074,0.002
25.93,-0.22,0.85,-0.209
25.94,-0.292,1.153,-0.02
25.95,-0.091,0.779,0.098
25.96,-0.192,1.085,0.177
25.97,-0.263,0.902,-0.128
25.98,-0.267,0.957,-0.14
25.99,-0.222,1.076,0.018
26.0,-0.033,0.841,0.178
26.01,-0.215,1.075,0.043
26.02,-0.318,0.783,-0.164
26.03,-0.306,1.233,-0.038
26.04,-0.076,0.892,0.013
26.05,-0.13,0.913,0.166
26.06,-0.301,0.968,0.013
26.07,-0.319,0.934,-0.18
26.08,-0.218,1.105,-0.056
26.09,-0.087,0.783,0.093
26.1,-0.174,1.103,0.156
26.11,-0.252,0.822,-0.131
26.12,-0.326,1.077,-0.131
26.13,-0.189,0.953,-0.026
26.14,-0.075,0.934,0.193
26.15,-0.164,0.993,0.066
26.16,-0.334,0.844,-0.148
26.17,-0.297,1.217,-0.043
26.18,-0.057,0.916,0.012
26.19,-0.056,0.997,0.122
26.2,-0.204,0.838,-0.002
26.21,-0.371,1.073,-0.148
26.22,-0.16,1.091,-0.103
26.23,-0.093,0.826,0.068
26.24,-0.171,1.002,0.188
26.25,-0.298,0.871,-0.047
26.26,-0.391,1.204,-0.193
26.27,-0.149,0.803,-0.061
26.28,-0.142,1.069,0.195
26.29,-0.121,0.904,0.055
26.3,-0.296,0.905,-0.164
26.31,-0.324,1.067,-0.101
26.32,-0.136,0.885,0.088
26.33,-0.081,1.118,0.117
26.34,-0.172,0.701,0.003
26.35,-0.423,1.153,-0.15
26.36,-0.101,1.078,-0.041
26.37,-0.19,1.005,0.083
26.38,-0.108,0.804,0.127
26.39,-0.294,0.856,-0.027
26.4,-0.313,1.229,-0.182
26.41,-0.196,0.779,-0.014
26.42,-0.123,1.096,0.131
26.43,-0.069,0.837,0.124
26.44,-0.363,1.017,-0.125
26.45,-0.284,0.964,-0.129
26.46,-0.207,0.992,0.026
26.47,-0.05,1.044,0.171
26.48,-0.193,0.703,0.033
26.49,-0.399,1.146,-0.18
26.5,-0.212,0.921,-0.039
26.51,-0.075,1.16,0.017
26.52,-0.12,0.727,0.152
26.53,-0.228,0.923,0.006
26.54,-0.343,1.153,-0.131
26.55,-0.21,0.816,-0.096
26.56,-0.127,1.114,0.148
26.57,-0.098,0.729,0.159
26.58,-0.371,1.08,-0.135
26.59,-0.261,0.823,-0.133
26.6,-0.193,1.097,0.016
26.61,-0.034,1.043,0.149
26.62,-0.19,0.761,0.025
26.63,-0.369,1.139,-0.151
26.64,-0.197,0.9,-0.056
26.65,-0.125,1.26,0.007
26.66,-0.053,0.647,0.152
26.67,-0.238,1.0,0.004
26.68,-0.303,0.908,-0.153
26.69,-0.231,1.037,-0.101
26.7,-0.076,0.934,0.112
26.71,-0.059,0.806,0.166
26.72,-0.379,1.116,-0.11
26.73,-0.329,0.724,-0.093
26.74,-0.23,1.228,0.027
26.75,0.003,0.868,0.14
26.76,-0.215,0.981,0.035
26.77,-0.332,0.964,-0.14
26.78,-0.178,0.982,-0.085
26.79,-0.139,1.157,0.028
26.8,-0.05,0.668,0.126
26.81,-0.26,1.127,0.016
26.82,-0.313,0.84,-0.143
26.83,-0.185,1.167,-0.082
26.84,-0.114,0.839,0.053
26.85,-0.117,0.887,0.127
26.86,-0.36,1.054,-0.024
26.87,-0.277,0.83,-0.191
26.88,-0.194,1.1,-0.024
26.89,-0.042,0.833,0.182
26.9,-0.174,1.071,0.089
26.91,-0.288,0.804,-0.137
26.92,-0.268,1.067,-0.076
26.93,-0.114,1.062,0.048
26.94,-0.059,0.851,0.127
26.95,-0.289,1.044,0.023
26.96,-0.336,0.813,-0.125
26.97,-0.224,1.277,-0.019
26.98,-0.08,0.874,0.023
26.99,-0.077,0.896,0.128
27.0,-0.276,0.937,-0.023
27.01,-0.291,1.004,-0.17
27.02,-0.197,1.068,-0.058
27.03,-0.083,0.769,0.14
27.04,-0.216,1.123,0.118
27.05,-0.337,0.834,-0.142
27.06,-0.316,1.11,-0.122
27.07,-0.12,0.936,0.023
27.08,-0.057,0.995,0.189
27.09,-0.231,0.953,0.026
27.1,-0.349,0.807,-0.158
27.11,-0.226,1.197,-0.052
27.12,-0.044,0.933,0.042
27.13,-0.148,1.042,0.148
27.14,-0.233,0.817,-0.019
27.15,-0.315,1.099,-0.177
27.16,-0.17,1.055,-0.014
27.17,-0.144,0.878,0.127
27.18,-0.13,0.959,0.121
27.19,-0.314,0.891,-0.089
27.2,-0.39,1.192,-0.119
27.21,-0.165,0.779,0.012
27.22,-0.055,1.133,0.223
27.23,-0.158,0.843,-0.006
27.24,-0.379,0.961,-0.156
27.25,-0.235,1.135,-0.014
27.26,-0.046,0.945,0.064
27.27,-0.142,0.963,0.125
27.28,-0.262,0.797,-0.024
27.29,-0.33,1.239,-0.185
27.3,-0.158,0.832,-0.072
27.31,-0.119,0.988,0.1
27.32,-0.109,0.914,0.158
27.33,-0.334,0.871,-0.122
27.34,-0.323,1.079,-0.11
27.35,-0.163,0.942,0.098
27.36,-0.051,1.114,0.114
27.37,-0.166,0.721,0.038
27.38,-0.451,1.132,-0.105
27.39,-0.14,1.073,-0.095
27.4,-0.125,0.997,-0.011
27.41,-0.072,0.885,0.141
27.42,-0.31,0.84,0.011
27.43,-0.325,1.283,-0.147
27.44,-0.183,0.81,-0.075
27.45,-0.147,1.04,0.116
27.46,-0.123,0.805,0.162
27.47,-0.381,1.105,-0.162
27.48,-0.229,0.824,-0.152
27.49,-0.228,1.13,0.051
27.5,-0.049,0.997,0.162
27.51,-0.148,0.728,0.026
27.52,-0.393,1.156,-0.131
27.53,-0.18,0.924,-0.061
27.54,-0.097,1.287,0.026
27.55,-0.066,0.639,0.114
27.56,-0.318,0.978,-0.006
27.57,-0.303,1.052,-0.116
27.58,-0.158,0.922,-0.062
27.59,-0.166,1.031,0.096
27.6,-0.127,0.711,0.163
27.61,-0.357,1.195,-0.135
27.62,-0.214,0.693,-0.191
27.63,-0.296,1.152,0.087
27.64,-0.028,0.909,0.163
27.65,-0.154,0.841,0.052
27.66,-0.406,1.09,-0.139
27.67,-0.214,0.938,-0.036
27.68,-0.124,1.275,-0.03
27.69,-0.042,0.606,0.129
27.7,-0.312,1.084,-0.003
27.71,-0.27,0.924,-0.141
27.72,-0.214,1.02,-0.063
27.73,-0.138,0.973,0.09
27.74,-0.161,0.755,0.16
27.75,-0.356,1.151,-0.052
27.76,-0.273,0.74,-0.148
27.77,-0.265,1.175,0.013
27.78,-0.086,0.852,0.166
27.79,-0.115,1.009,0.038
27.8,-0.293,0.925,-0.194
27.81,-0.208,0.888,-0.103
27.82,-0.121,1.211,0.06
27.83,-0.022,0.716,0.164
27.84,-0.314,1.106,-0.002
27.85,-0.344,0.829,-0.127
27.86,-0.171,1.202,-0.051
27.87,-0.156,0.865,0.079
27.88,-0.14,0.813,0.154
27.89,-0.28,0.986,-0.114
27.9,-0.309,0.883,-0.114
27.91,-0.225,1.063,0.017
27.92,-0.06,0.868,0.146
27.93,-0.168,1.099,0.07
27.94,-0.338,0.804,-0.166
27.95,-0.286,1.178,-0.057
27.96,-0.056,0.984,0.02
27.97,-0.044,0.871,0.163
27.98,-0.264,0.976,-0.006
27.99,-0.371,0.93,-0.12
28.0,-0.229,1.17,-0.045
28.01,-0.096,0.744,0.091
28.02,-0.163,1.035,0.128
28.03,-0.245,0.885,-0.092
28.04,-0.308,1.047,-0.132
28.05,-0.21,0.975,-0.015
28.06,-0.143,0.887,0.193
28.07,-0.15,1.019,0.072
28.08,-0.315,0.822,-0.148
28.09,-0.3,1.192,-0.083
28.1,-0.131,0.91,0.072
28.11,-0.083,1.015,0.157
28.12,-0.193,0.856,0.008
28.13,-0.318,1.007,-0.159
28.14,-0.176,1.14,-0.063
28.15,-0.146,0.84,0.041
28.16,-0.102,0.969,0.126
28.17,-0.339,0.854,-0.037
28.18,-0.364,1.22,-0.166
28.19,-0.135,0.847,-0.057
28.2,-0.14,1.009,0.203
28.21,-0.094,0.892,0.062
28.22,-0.339,0.889,-0.133
28.23,-0.205,1.125,-0.108
28.24,-0.151,0.931,0.056
28.25,-0.058,1.028,0.144
28.26,-0.192,0.768,0.033
28.27,-0.454,1.26,-0.097
28.28,-0.114,0.874,-0.107
28.29,-0.187,1.004,0.077
28.3,-0.082,0.79,0.126
28.31,-0.338,0.983,-0.027
28.32,-0.328,1.111,-0.175
28.33,-0.18,0.794,-0.043
28.34,-0.121,1.171,0.187
28.35,-0.096,0.74,0.062
28.36,-0.389,1.07,-0.143
28.37,-0.207,0.885,-0.104
28.38,-0.211,1.11,0.098
28.39,-0.089,0.949,0.133
28.4,-0.165,0.751,0.01
28.41,-0.383,1.212,-0.109
28.42,-0.105,0.912,-0.087
28.43,-0.152,1.156,0.026
28.44,-0.057,0.677,0.163
28.45,-0.352,1.018,-0.023
28.46,-0.29,1.052,-0.142
28.47,-0.192,0.904,-0.061
28.48,-0.154,1.071,0.138
28.49,-0.13,0.727,0.143
28.5,-0.406,1.184,-0.106
28.51,-0.25,0.747,-0.157
28.52,-0.308,1.176,0.116
28.53,0.017,0.96,0.127
28.54,-0.218,0.816,0.037
28.55,-0.326,1.057,-0.151
28.56,-0.164,0.898,-0.061
28.57,-0.098,1.256,-0.024
28.58,-0.092,0.649,0.173
28.59,-0.339,1.046,-0.015
28.6,-0.328,0.903,-0.095
28.61,-0.175,1.073,-0.106
28.62,-0.105,0.968,0.109
28.63,-0.154,0.751,0.149
28.64,-0.365,1.183,-0.063
28.65,-0.282,0.749,-0.149
28.66,-0.265,1.142,0.03
28.67,-0.06,0.883,0.19
28.68,-0.148,0.979,0.053
28.69,-0.355,0.939,-0.118
28.7,-0.236,0.89,-0.086
28.71,-0.137,1.279,0.06
28.72,0.002,0.638,0.156
28.73,-0.266,1.094,-0.004
28.74,-0.327,0.883,-0.109
28.75,-0.162,1.133,-0.116
28.76,-0.2,0.907,0.13
28.77,-0.069,0.849,0.18
28.78,-0.368,1.113,-0.022
28.79,-0.281,0.769,-0.179
28.8,-0.28,1.171,-0.034
28.81,-0.044,0.806,0.116
28.82,-0.149,1.119,0.118
28.83,-0.285,0.864,-0.129
28.84,-0.27,0.915,-0.146
28.85,-0.223,1.111,0.059
28.86,-0.005,0.836,0.136
28.87,-0.227,1.075,0.056
28.88,-0.268,0.794,-0.154
28.89,-0.302,1.268,-0.039
28.9,-0.081,0.87,-0.003
28.91,-0.106,0.912,0.157
28.92,-0.204,0.956,-0.032
28.93,-0.278,0.966,-0.155
28.94,-0.181,1.112,-0.094
28.95,-0.121,0.768,0.128
28.96,-0.164,1.08,0.185
28.97,-0.243,0.835,-0.121
28.98,-0.367,1.094,-0.13
28.99,-0.126,0.917,-0.057
29.0,-0.141,0.994,0.206
29.01,-0.131,1.011,0.058
29.02,-0.324,0.829,-0.127
29.03,-0.303,1.174,-0.073
29.04,-0.102,0.9,0.069
29.05,-0.057,1.048,0.123
29.06,-0.211,0.808,0.026
29.07,-0.421,1.215,-0.138
29.08,-0.114,0.979,-0.092
29.09,-0.174,0.99,0.08
29.1,-0.168,0.815,0.168
29.11,-0.308,0.927,-0.007
29.12,-0.323,1.202,-0.17
29.13,-0.152,0.775,-0.086
29.14,-0.143,1.132,0.169
29.15,-0.119,0.776,0.082
29.16,-0.331,1.067,-0.123
29.17,-0.259,0.947,-0.136
29.18,-0.215,1.016,0.061
29.19,-0.066,1.062,0.145
29.2,-0.15,0.699,0.015
29.21,-0.43,1.2,-0.142
29.22,-0.151,0.935,-0.071
29.23,-0.046,1.153,-0.01
29.24,-0.083,0.708,0.123
29.25,-0.326,0.936,-0.003
29.26,-0.41,1.093,-0.114
29.27,-0.113,0.874,-0.109
29.28,-0.185,1.085,0.115
29.29,-0.11,0.702,0.145
29.3,-0.36,1.155,-0.078
29.31,-0.248,0.812,-0.149
29.32,-0.247,1.022,0.005
29.33,-0.075,0.981,0.18
29.34,-0.093,0.813,0.057
29.35,-0.379,1.111,-0.124
29.36,-0.198,0.806,-0.07
29.37,-0.118,1.313,0.01
29.38,-0.096,0.675,0.135
29.39,-0.218,0.978,0.009
29.4,-0.443,0.979,-0.084
29.41,-0.147,0.996,-0.097
29.42,-0.115,1.073,0.065
29.43,-0.06,0.656,0.138
29.44,-0.402,1.174,-0.007
29.45,-0.237,0.805,-0.2
29.46,-0.249,1.141,-0.029
29.47,-0.12,0.906,0.123
29.48,-0.146,0.948,0.151
29.49,-0.304,1.029,-0.134
29.5,-0.217,0.8,-0.151
29.51,-0.257,1.205,0.001
29.52,-0.037,0.745,0.198
29.53,-0.161,1.095,0.07
29.54,-0.369,0.844,-0.147
29.55,-0.243,1.056,-0.084
29.56,-0.096,1.109,0.031
29.57,-0.018,0.773,0.136
29.58,-0.336,1.054,0.033
29.59,-0.301,0.826,-0.122
29.6,-0.172,1.215,-0.065
29.61,-0.139,0.788,0.104
29.62,-0.101,0.932,0.111
29.63,-0.354,0.991,-0.045
29.64,-0.236,0.95,-0.195
29.65,-0.19,1.01,-0.074
29.66,-0.105,0.791,0.164
29.67,-0.167,1.136,0.109
29.68,-0.26,0.811,-0.13
29.69,-0.31,1.077,-0.088
29.7,-0.177,0.968,0.013
29.71,-0.024,0.977,0.141
29.72,-0.213,0.962,0.028
29.73,-0.334,0.826,-0.139
29.74,-0.274,1.221,-0.022
29.75,-0.039,0.838,0.052
29.76,-0.131,1.028,0.153
29.77,-0.245,0.826,-0.033
29.78,-0.345,1.086,-0.115
29.79,-0.132,1.019,-0.083
29.8,-0.129,0.894,0.102
29.81,-0.214,1.021,0.107
29.82,-0.294,0.869,-0.081
29.83,-0.361,1.172,-0.117
29.84,-0.193,0.792,0.043
29.85,-0.098,1.106,0.174
29.86,-0.091,0.766,0.022
29.87,-0.351,1.08,-0.156
29.88,-0.29,0.973,-0.058
29.89,-0.09,1.081,0.027
29.9,-0.074,0.934,0.114
29.91,-0.285,0.767,0.001
29.92,-0.453,1.209,-0.141
29.93,-0.167,0.887,-0.055
29.94,-0.106,1.122,0.034
29.95,-0.098,0.708,0.129
29.96,-0.353,0.997,-0.015
29.97,-0.291,1.06,-0.15
29.98,-0.157,0.861,-0.052
29.99,-0.132,1.096,0.117
30.0,-0.125,0.723,0.098
30.01,-0.368,1.179,-0.108
30.02,-0.284,0.803,-0.077
30.03,-0.228,1.123,0.087
30.04,-0.017,0.965,0.164
30.05,-0.169,0.814,0.035
30.06,-0.392,1.114,-0.134
30.07,-0.179,0.9,-0.063
30.08,-0.151,1.219,0.047
30.09,-0.052,0.629,0.157
30.1,-0.289,1.063,0.03
30.11,-0.321,0.956,-0.127
30.12,-0.245,0.977,-0.058
30.13,-0.121,1.038,0.086
30.14,-0.098,0.729,0.137
30.15,-0.39,1.161,-0.05
30.16,-0.306,0.741,-0.125
30.17,-0.203,1.141,-0.042
30.18,-0.057,0.918,0.175
30.19,-0.119,0.935,0.058
30.2,-0.363,1.014,-0.129
30.21,-0.241,0.891,-0.061
30.22,-0.11,1.256,0.012
30.23,0.0,0.656,0.138
30.24,-0.315,1.123,0.054
30.25,-0.299,0.839,-0.143
30.26,-0.246,1.13,-0.073
30.27,-0.106,0.982,0.034
30.28,-0.075,0.792,0.144
30.29,-0.347,1.074,-0.034
30.3,-0.307,0.84,-0.138
30.31,-0.253,1.156,-0.071
30.32,-0.045,0.768,0.114
30.33,-0.158,1.086,0.147
30.34,-0.301,0.895,-0.09
30.35,-0.343,0.935,-0.134
30.36,-0.168,1.031,0.006
30.37,-0.053,0.895,0.19
30.38,-0.238,1.123,0.065
30.39,-0.309,0.753,-0.192
30.4,-0.237,1.149,-0.075
30.41,-0.126,1.009,0.047
30.42,-0.083,0.96,0.153
30.43,-0.22,0.923,-0.02
30.44,-0.377,0.906,-0.101
30.45,-0.226,1.193,-0.053
30.46,-0.045,0.862,0.065
30.47,-0.141,1.014,0.13
30.48,-0.253,0.842,-0.057
30.49,-0.256,1.144,-0.149
30.5,-0.226,0.96,-0.074
30.51,-0.185,0.815,0.166
30.52,-0.185,1.052,0.153
30.53,-0.291,0.856,-0.124
30.54,-0.304,1.139,-0.157
30.55,-0.232,0.836,0.08
30.56,-0.009,1.119,0.139
30.57,-0.211,0.81,0.003
30.58,-0.384,0.981,-0.134
30.59,-0.187,1.166,-0.049
30.6,-0.048,0.937,0.016
30.61,-0.128,0.958,0.154
30.62,-0.238,0.805,-0.014
30.63,-0.347,1.229,-0.163
30.64,-0.173,0.854,-0.067
30.65,-0.116,1.026,0.098
30.66,-0.11,0.806,0.103
30.67,-0.364,1.061,-0.097
30.68,-0.288,1.011,-0.114
30.69,-0.19,0.972,0.038
30.7,-0.088,1.007,0.182
30.71,-0.119,0.688,0.011
30.72,-0.4,1.202,-0.145
30.73,-0.221,0.904,-0.054
30.74,-0.108,1.15,0.066
30.75,-0.083,0.781,0.125
30.76,-0.285,0.876,-0.037
30.77,-0.409,1.128,-0.098
30.78,-0.123,0.882,-0.076
30.79,-0.129,1.116,0.12
30.8,-0.125,0.651,0.127
30.81,-0.38,1.164,-0.05
30.82,-0.327,0.914,-0.195
30.83,-0.156,0.966,-0.018
30.84,-0.068,0.986,0.134
30.85,-0.124,0.8,0.053
30.86,-0.383,1.153,-0.137
30.87,-0.176,0.755,-0.108
30.88,-0.143,1.229,0.021
30.89,0.02,0.771,0.181
30.9,-0.214,0.966,-0.001
30.91,-0.429,0.967,-0.151
30.92,-0.205,0.944,-0.043
30.93,-0.044,1.158,0.093
30.94,-0.135,0.65,0.109
30.95,-0.333,1.116,-0.063
30.96,-0.295,0.846,-0.124
30.97,-0.174,1.123,-0.034
30.98,-0.125,0.868,0.153
30.99,-0.14,0.858,0.114
31.0,-0.391,1.118,-0.118
31.01,-0.257,0.808,-0.135
31.02,-0.227,1.193,0.002
31.03,0.003,0.792,0.196
31.04,-0.283,1.059,0.009
31.05,-0.342,0.843,-0.142
31.06,-0.197,1.056,-0.057
31.07,-0.124,1.067,0.101
31.08,-0.075,0.692,0.157
31.09,-0.286,1.113,-0.04
31.1,-0.29,0.838,-0.127
31.11,-0.2,1.191,-0.035
31.12,-0.07,0.802,0.135
31.13,-0.186,0.979,0.135
31.14,-0.308,1.0,-0.121
31.15,-0.278,0.901,-0.11
31.16,-0.192,1.149,-0.003
31.17,-0.017,0.8,0.182
31.18,-0.268,1.079,0.05
31.19,-0.291,0.809,-0.138
31.2,-0.247,1.171,-0.043
31.21,-0.025,0.975,-0.006
31.22,-0.119,0.798,0.152
31.23,-0.283,1.039,0.013
31.24,-0.316,0.895,-0.13
31.25,-0.265,1.17,-0.055
31.26,-0.068,0.748,0.11
31.27,-0.116,1.09,0.172
31.28,-0.357,0.871,-0.146
31.29,-0.297,0.95,-0.12
31.3,-0.144,1.059,0.033
31.31,-0.083,0.892,0.174
31.32,-0.268,1.072,0.079
31.33,-0.295,0.81,-0.149
31.34,-0.226,1.204,-0.105
31.35,-0.141,0.915,0.087
31.36,-0.081,0.919,0.181
31.37,-0.202,0.93,-0.022
31.38,-0.342,0.979,-0.14
31.39,-0.15,1.141,-0.065
31.4,-0.105,0.798,0.1
31.41,-0.167,1.059,0.148
31.42,-0.312,0.849,-0.083
31.43,-0.356,1.121,-0.147
31.44,-0.183,0.913,-0.014
31.45,-0.109,1.001,0.218
31.46,-0.176,0.796,0.012
31.47,-0.383,0.96,-0.12
31.48,-0.211,1.197,-0.041
31.49,-0.083,0.9,0.022
31.5,-0.12,0.95,0.155
31.51,-0.226,0.805,-0.037
31.52,-0.365,1.252,-0.118
31.53,-0.201,0.893,-0.091
31.54,-0.13,0.921,0.087
31.55,-0.171,0.925,0.166
31.56,-0.336,0.919,-0.134
31.57,-0.332,1.094,-0.132
31.58,-0.202,0.868,0.017
31.59,-0.026,1.139,0.161
31.6,-0.172,0.759,0.014
31.61,-0.387,1.067,-0.148
31.62,-0.23,1.023,-0.054
31.63,-0.106,1.039,0.064
31.64,-0.083,0.913,0.122
31.65,-0.288,0.791,-0.012
31.66,-0.279,1.265,-0.17
31.67,-0.151,0.855,-0.071
31.68,-0.251,1.031,0.13
31.69,-0.067,0.818,0.175
31.7,-0.341,1.018,-0.117
31.71,-0.341,1.001,-0.128
31.72,-0.225,0.897,0.016
31.73,-0.081,1.166,0.126
31.74,-0.144,0.689,0.062
31.75,-0.397,1.162,-0.153
31.76,-0.144,0.919,-0.062
31.77,-0.087,1.137,0.019
31.78,-0.116,0.814,0.167
31.79,-0.221,0.82,0.004
31.8,-0.387,1.199,-0.107
31.81,-0.127,0.905,-0.083
31.82,-0.203,1.098,0.105
31.83,-0.118,0.674,0.146
31.84,-0.333,1.129,-0.048
31.85,-0.336,0.871,-0.165
31.86,-0.177,0.898,-0.027
31.87,-0.118,1.124,0.209
31.88,-0.085,0.722,0.026
31.89,-0.409,1.116,-0.162
31.9,-0.172,0.788,-0.087
31.91,-0.067,1.331,0.072
31.92,-0.07,0.742,0.081
31.93,-0.219,0.923,0.044
31.94,-0.409,1.107,-0.12
31.95,-0.161,0.973,-0.084
31.96,-0.181,1.095,0.042
31.97,-0.068,0.64,0.157
31.98,-0.393,1.183,-0.042
31.99,-0.271,0.814,-0.196
32.0,-0.23,1.019,-0.041
32.01,-0.107,0.97,0.163
32.02,-0.097,0.846,0.085
32.03,-0.405,1.093,-0.119
32.04,-0.199,0.733,-0.141
32.05,-0.188,1.334,0.083
32.06,0.027,0.759,0.149
32.07,-0.274,0.999,0.048
32.08,-0.388,0.942,-0.112
32.09,-0.175,1.062,-0.067
32.1,-0.135,1.087,0.02
32.11,-0.027,0.667,0.113
32.12,-0.407,1.167,0.016
32.13,-0.25,0.785,-0.171
32.14,-0.291,1.106,-0.053
32.15,-0.057,0.874,0.15
32.16,-0.191,0.976,0.134
32.17,-0.303,0.989,-0.123
32.18,-0.262,0.771,-0.137
32.19,-0.234,1.166,0.029
32.2,0.01,0.834,0.171
32.21,-0.22,1.067,0.068
32.22,-0.314,0.817,-0.163
32.23,-0.268,1.123,-0.03
32.24,-0.092,1.038,-0.009
32.25,-0.09,0.893,0.138
32.26,-0.279,0.97,-0.02
32.27,-0.349,0.944,-0.137
32.28,-0.204,1.102,-0.089
32.29,-0.055,0.761,0.09
32.3,-0.188,1.084,0.187
32.31,-0.298,0.839,-0.127
32.32,-0.305,1.04,-0.121
32.33,-0.152,0.998,-0.013
32.34,-0.05,0.958,0.175
32.35,-0.216,0.986,0.027
32.36,-0.303,0.846,-0.148
32.37,-0.271,1.263,-0.024
32.38,-0.056,0.883,-0.008
32.39,-0.097,0.951,0.173
32.4,-0.234,0.89,0.002
32.41,-0.318,1.086,-0.151
32.42,-0.26,1.041,-0.073
32.43,-0.102,0.808,0.059
32.44,-0.157,1.058,0.161
32.45,-0.28,0.854,-0.075
32.46,-0.42,1.189,-0.148
32.47,-0.174,0.836,-0.03
32.48,-0.094,1.085,0.19
32.49,-0.157,0.895,0.066
32.5,-0.324,0.892,-0.129
32.51,-0.24,1.155,-0.103
32.52,-0.137,0.919,0.02
32.53,-0.082,1.03,0.134
32.54,-0.167,0.783,0.019
32.55,-0.389,1.179,-0.16
32.56,-0.188,0.984,-0.081
32.57,-0.141,0.949,0.089
32.58,-0.112,0.872,0.149
32.59,-0.334,0.872,-0.017
32.6,-0.308,1.22,-0.158
32.61,-0.155,0.801,-0.038
32.62,-0.135,1.093,0.133
32.63,-0.076,0.824,0.088
32.64,-0.386,1.018,-0.095
32.65,-0.239,0.965,-0.119
32.66,-0.221,0.996,0.042
32.67,-0.051,1.064,0.148
32.68,-0.18,0.697,0.022
32.69,-0.371,1.191,-0.137
32.7,-0.156,0.951,-0.058
32.71,-0.194,1.092,0.011
32.72,-0.028,0.779,0.172
32.73,-0.303,0.934,0.006
32.74,-0.361,1.161,-0.139
32.75,-0.162,0.811,-0.09
32.76,-0.075,1.144,0.104
32.77,-0.18,0.725,0.144
32.78,-0.333,1.091,-0.089
32.79,-0.28,0.886,-0.166
32.8,-0.216,1.015,-0.012
32.81,-0.082,1.035,0.144
32.82,-0.127,0.749,0.054
32.83,-0.404,1.176,-0.113
32.84,-0.168,0.854,-0.09
32.85,-0.132,1.229,0.023
32.86,-0.051,0.694,0.112
32.87,-0.25,0.937,-0.003
32.88,-0.449,1.051,-0.081
32.89,-0.127,0.942,-0.082
32.9,-0.208,1.139,0.112
32.91,-0.076,0.664,0.14
32.92,-0.423,1.154,-0.017
32.93,-0.21,0.821,-0.18
32.94,-0.274,1.055,0.001
32.95,-0.126,0.917,0.141
32.96,-0.119,0.89,0.102
32.97,-0.35,1.09,-0.147
32.98,-0.25,0.74,-0.097
32.99,-0.241,1.28,0.078
33.0,0.017,0.755,0.145
33.01,-0.22,1.032,0.068
33.02,-0.343,0.883,-0.162
33.03,-0.271,1.06,-0.042
33.04,-0.097,1.096,0.047
33.05,-0.103,0.831,0.144
33.06,-0.324,1.049,-0.01
33.07,-0.263,0.915,-0.14
33.08,-0.222,1.176,-0.053
33.09,-0.11,0.727,0.138
33.1,-0.166,1.09,0.16
33.11,-0.264,0.858,-0.113
33.12,-0.276,0.995,-0.137
33.13,-0.128,1.043,0.014
33.14,-0.077,0.889,0.152
33.15,-0.142,1.065,0.076
33.16,-0.316,0.827,-0.113
33.17,-0.235,1.207,-0.105
33.18,-0.087,0.942,0.082
33.19,-0.105,0.979,0.141
33.2,-0.228,0.901,-0.001
33.21,-0.424,0.953,-0.121
33.22,-0.173,1.136,-0.063
33.23,-0.151,0.823,0.145
33.24,-0.195,1.073,0.145
33.25,-0.233,0.817,-0.091
33.26,-0.296,1.136,-0.16
33.27,-0.102,0.932,-0.023
33.28,-0.154,0.981,0.165
33.29,-0.093,0.966,0.034
33.3,-0.327,0.881,-0.114
33.31,-0.343,1.165,-0.101
33.32,-0.118,0.881,0.035
33.33,-0.018,1.104,0.126
33.34,-0.211,0.78,0.035
33.35,-0.371,1.079,-0.124
33.36,-0.131,1.121,-0.093
33.37,-0.189,0.925,0.099
33.38,-0.092,0.945,0.123
33.39,-0.286,0.826,-0.02
33.4,-0.404,1.221,-0.169
33.41,-0.135,0.824,-0.053
33.42,-0.156,1.064,0.103
33.43,-0.192,0.842,0.126
33.44,-0.321,0.948,-0.095
33.45,-0.317,1.072,-0.112
33.46,-0.158,0.846,0.014
33.47,-0.103,1.149,0.167
33.48,-0.1,0.733,-0.001
33.49,-0.29,0.926,-0.002
33.5,-0.347,0.938,-0.102
33.51,-0.177,1.195,-0.064
33.52,-0.102,0.805,0.105
33.53,-0.171,1.064,0.172
33.54,-0.354,0.863,-0.067
33.55,-0.301,1.104,-0.141
33.56,-0.176,0.927,-0.011
33.57,-0.086,0.935,0.137
33.58,-0.225,1.006,0.096
33.59,-0.303,0.864,-0.134
33.6,-0.26,1.174,-0.103
33.61,-0.105,0.895,0.005
33.62,-0.07,1.097,0.152
33.63,-0.142,0.808,-0.038
33.64,-0.355,1.03,-0.14
33.65,-0.215,1.082,-0.05
33.66,-0.074,0.94,0.075
33.67,-0.136,0.96,0.119
33.68,-0.255,0.786,-0.033
33.69,-0.399,1.219,-0.125
33.7,-0.107,0.887,-0.076
33.71,-0.151,1.082,0.131
33.72,-0.142,0.77,0.099
33.73,-0.357,1.087,-0.132
33.74,-0.268,0.923,-0.14
33.75,-0.163,0.937,0.052
33.76,-0.049,1.077,0.166
33.77,-0.202,0.718,-0.023
33.78,-0.407,1.152,-0.141
33.79,-0.192,0.887,-0.04
33.8,-0.097,1.198,0.033
33.81,-0.107,0.715,0.124
33.82,-0.307,0.949,-0.028
33.83,-0.317,1.102,-0.133
33.84,-0.131,0.852,-0.05
33.85,-0.154,1.114,0.157
33.86,-0.164,0.662,0.118
33.87,-0.359,1.185,-0.076
33.88,-0.258,0.901,-0.141
33.89,-0.227,1.064,-0.034
33.9,-0.04,0.943,0.164
33.91,-0.175,0.787,0.031
33.92,-0.414,1.142,-0.117
33.93,-0.243,0.858,-0.028
33.94,-0.053,1.238,0.005
33.95,-0.065,0.625,0.121
33.96,-0.315,1.007,0.045
33.97,-0.297,1.015,-0.139
33.98,-0.182,0.945,-0.073
33.99,-0.105,1.07,0.098
34.0,-0.162,0.718,0.139
34.01,-0.351,1.169,-0.037
34.02,-0.274,0.789,-0.145
34.03,-0.249,1.127,-0.022
34.04,-0.055,0.917,0.146
34.05,-0.139,0.883,0.059
34.06,-0.333,1.049,-0.128
34.07,-0.233,0.792,-0.103
34.08,-0.205,1.297,0.115
34.09,-0.023,0.741,0.139
34.1,-0.248,1.067,0.042
34.11,-0.374,0.874,-0.133
34.12,-0.194,1.117,-0.042
34.13,-0.14,1.039,0.083
34.14,-0.063,0.683,0.165
34.15,-0.378,1.144,0.009
34.16,-0.301,0.84,-0.143
34.17,-0.207,1.179,-0.111
34.18,-0.106,0.81,0.109
34.19,-0.16,0.992,0.165
34.2,-0.266,0.956,-0.113
34.21,-0.28,0.887,-0.124
34.22,-0.267,1.148,0.012
34.23,0.001,0.816,0.143
34.24,-0.223,1.091,0.065
34.25,-0.317,0.784,-0.152
34.26,-0.259,1.153,-0.05
34.27,-0.062,1.001,0.022
34.28,-0.052,0.832,0.161
34.29,-0.287,1.04,0.025
34.3,-0.298,0.878,-0.143
34.31,-0.261,1.208,-0.092
34.32,-0.104,0.759,0.098
34.33,-0.136,1.094,0.183
34.34,-0.278,0.884,-0.078
34.35,-0.302,0.983,-0.193
34.36,-0.247,1.013,-0.011
34.37,-0.072,0.864,0.111
34.38,-0.216,1.101,0.137
34.39,-0.247,0.807,-0.117
34.4,-0.33,1.144,-0.102
34.41,-0.149,0.901,0.013
34.42,-0.086,1.047,0.135
34.43,-0.152,0.888,0.038
34.44,-0.361,0.955,-0.128
34.45,-0.198,1.139,-0.075
34.46,-0.083,0.889,0.019
34.47,-0.103,1.036,0.145
34.48,-0.225,0.771,-0.029
34.49,-0.332,1.181,-0.145
34.5,-0.125,0.977,-0.056
34.51,-0.15,1.012,0.127
34.52,-0.107,0.803,0.134
34.53,-0.369,1.012,-0.067
34.54,-0.324,1.066,-0.139
34.55,-0.184,0.816,-0.002
34.56,-0.101,1.129,0.183
34.57,-0.188,0.762,0.066
34.58,-0.389,1.142,-0.137
34.59,-0.232,0.866,-0.132
34.6,-0.174,1.135,0.079
34.61,-0.002,0.927,0.098
34.62,-0.243,0.786,-0.002
34.63,-0.423,1.157,-0.136
34.64,-0.118,0.884,-0.053
34.65,-0.163,1.151,0.096
34.66,-0.082,0.656,0.12
34.67,-0.321,1.07,-0.023
34.68,-0.294,0.963,-0.19
34.69,-0.187,0.921,-0.038
34.7,-0.137,1.031,0.142
34.71,-0.075,0.735,0.111
34.72,-0.406,1.176,-0.117
34.73,-0.195,0.781,-0.107
34.74,-0.234,1.225,0.054
34.75,0.017,0.804,0.134
34.76,-0.21,0.904,0.051
34.77,-0.366,1.072,-0.126
34.78,-0.226,0.883,-0.055
34.79,-0.166,1.269,0.06
34.8,-0.033,0.611,0.149
34.81,-0.34,1.121,0.01
34.82,-0.32,0.87,-0.149
34.83,-0.282,1.04,-0.056
34.84,-0.101,0.968,0.115
34.85,-0.113,0.791,0.166
34.86,-0.432,1.155,-0.072
34.87,-0.256,0.744,-0.168
34.88,-0.219,1.201,-0.008
34.89,-0.079,0.839,0.151
34.9,-0.185,0.958,0.082
34.91,-0.303,0.946,-0.141
34.92,-0.209,0.867,-0.098
34.93,-0.219,1.226,0.108
34.94,-0.006,0.712,0.113
34.95,-0.275,1.082,0.012
34.96,-0.338,0.815,-0.147
34.97,-0.217,1.186,-0.056
34.98,-0.087,0.946,0.054
34.99,-0.09,0.81,0.125
35.0,-0.322,1.058,-0.049
35.01,-0.296,0.871,-0.099
35.02,-0.199,1.165,-0.047
35.03,-0.09,0.739,0.138
35.04,-0.201,1.075,0.1
35.05,-0.344,0.919,-0.094
35.06,-0.293,0.963,-0.143
35.07,-0.218,1.019,0.059
35.08,-0.016,0.884,0.175
35.09,-0.222,1.078,0.017
35.1,-0.341,0.794,-0.12
35.11,-0.282,1.193,-0.037
35.12,-0.083,0.94,0.081
35.13,-0.093,0.907,0.138
35.14,-0.279,0.949,0.0
35.15,-0.329,0.938,-0.127
35.16,-0.146,1.11,-0.08
35.17,-0.075,0.8,0.107
35.18,-0.236,1.072,0.133
35.19,-0.27,0.84,-0.089
35.2,-0.277,1.15,-0.146
35.21,-0.198,0.898,-0.026
35.22,-0.11,0.926,0.166
35.23,-0.119,1.035,0.055
35.24,-0.372,0.843,-0.138
35.25,-0.293,1.145,-0.074
35.26,-0.069,0.926,0.061
35.27,-0.059,1.024,0.143
35.28,-0.241,0.812,0.003
35.29,-0.367,1.06,-0.152
35.3,-0.205,1.038,-0.044
35.31,-0.148,1.005,0.098
35.32,-0.208,0.941,0.151
35.33,-0.319,0.883,-0.085
35.34,-0.323,1.172,-0.15
35.35,-0.164,0.817,-0.001
35.36,-0.125,1.118,0.166
35.37,-0.094,0.76,0.03
35.38,-0.432,1.069,-0.118
35.39,-0.232,0.997,-0.061
35.4,-0.07,1.023,0.021
35.41,-0.161,0.948,0.178
35.42,-0.143,0.724,-0.021
35.43,-0.453,1.254,-0.116
35.44,-0.158,0.87,-0.072
35.45,-0.129,1.098,0.059
35.46,-0.091,0.788,0.154
35.47,-0.299,1.005,-0.063
35.48,-0.335,1.073,-0.179
35.49,-0.159,0.864,-0.024
35.5,-0.164,1.166,0.164
35.51,-0.077,0.679,0.054
35.52,-0.389,1.119,-0.143
35.53,-0.212,0.899,-0.096
35.54,-0.162,1.132,0.051
35.55,-0.007,0.84,0.122
35.56,-0.227,0.821,0.04
35.57,-0.417,1.183,-0.137
35.58,-0.115,0.898,-0.085
35.59,-0.149,1.174,0.047
35.6,-0.105,0.692,0.185
35.61,-0.307,1.04,-0.05
35.62,-0.41,0.958,-0.121
35.63,-0.166,0.906,-0.06
35.64,-0.125,1.123,0.145
35.65,-0.091,0.786,0.096
35.66,-0.377,1.157,-0.121
35.67,-0.274,0.755,-0.121
35.68,-0.172,1.21,0.039
35.69,-0.047,0.9,0.156
35.7,-0.197,0.85,0.041
35.71,-0.417,1.058,-0.12
35.72,-0.214,0.887,-0.089
35.73,-0.042,1.244,-0.016
35.74,-0.02,0.623,0.131
35.75,-0.372,1.113,0.013
35.76,-0.243,0.879,-0.153
35.77,-0.259,1.008,-0.079
35.78,-0.161,0.976,0.127
35.79,-0.094,0.82,0.168
35.8,-0.381,1.135,-0.107
35.81,-0.295,0.704,-0.124
35.82,-0.232,1.229,0.011
35.83,-0.003,0.888,0.177
35.84,-0.235,0.966,0.019
35.85,-0.32,0.939,-0.128
35.86,-0.204,0.961,-0.089
35.87,-0.152,1.218,0.05
35.88,-0.095,0.647,0.177
35.89,-0.288,1.12,0.016
35.9,-0.351,0.877,-0.116
35.91,-0.221,1.13,-0.072
35.92,-0.155,0.897,0.094
35.93,-0.035,0.783,0.123
35.94,-0.398,1.125,-0.016
35.95,-0.211,0.831,-0.172
35.96,-0.242,1.141,-0.014
35.97,-0.084,0.764,0.165
35.98,-0.203,1.087,0.102
35.99,-0.348,0.901,-0.124
36.0,-0.264,0.96,-0.118
36.01,-0.143,1.124,-0.008
36.02,-0.043,0.827,0.137
36.03,-0.206,1.072,0.004
36.04,-0.307,0.79,-0.103
36.05,-0.257,1.248,-0.052
36.06,-0.086,0.89,0.066
36.07,-0.124,0.89,0.131
36.08,-0.292,0.984,-0.028
36.09,-0.347,0.958,-0.137
36.1,-0.149,1.094,-0.058
36.11,-0.124,0.858,0.145
36.12,-0.239,1.062,0.129
36.13,-0.266,0.841,-0.147
36.14,-0.324,1.154,-0.096
36.15,-0.16,0.877,0.04
36.16,-0.049,1.049,0.146
36.17,-0.208,0.87,0.015
36.18,-0.385,0.924,-0.172
36.19,-0.162,1.155,-0.068
36.2,-0.063,0.857,0.036
36.21,-0.153,1.018,0.167
36.22,-0.246,0.811,-0.049
36.23,-0.322,1.19,-0.163
36.24,-0.178,0.885,-0.052
36.25,-0.095,0.948,0.101
36.26,-0.12,0.992,0.14
36.27,-0.35,0.888,-0.112
36.28,-0.305,1.101,-0.149
36.29,-0.152,0.868,0.071
36.3,-0.06,1.103,0.139
36.31,-0.196,0.792,0.06
36.32,-0.322,1.056,-0.168
36.33,-0.244,1.072,-0.082
36.34,-0.089,0.959,0.044
36.35,-0.096,0.949,0.116
36.36,-0.261,0.807,-0.025
36.37,-0.371,1.272,-0.144
36.38,-0.194,0.861,-0.066
36.39,-0.148,1.039,0.11
36.4,-0.107,0.847,0.148
36.41,-0.319,0.939,-0.111
36.42,-0.354,1.087,-0.145
36.43,-0.191,0.83,-0.005
36.44,-0.111,1.153,0.177
36.45,-0.111,0.721,0.027
36.46,-0.394,1.1,-0.163
36.47,-0.228,0.943,-0.033
36.48,-0.072,1.152,0.055
36.49,-0.132,0.853,0.141
36.5,-0.226,0.784,0.003
36.51,-0.385,1.233,-0.125
36.52,-0.115,0.86,-0.083
36.53,-0.22,1.123,0.103
36.54,-0.059,0.671,0.145
36.55,-0.384,1.09,-0.022
36.56,-0.292,0.973,-0.193
36.57,-0.219,0.881,-0.04
36.58,-0.09,1.109,0.186
36.59,-0.148,0.743,0.099
36.6,-0.364,1.115,-0.166
36.61,-0.27,0.81,-0.101
36.62,-0.167,1.215,0.107
36.63,-0.039,0.867,0.132
36.64,-0.198,0.824,0.021
36.65,-0.374,1.123,-0.128
36.66,-0.156,0.924,-0.064
36.67,-0.095,1.175,0.037
36.68,-0.059,0.626,0.122
36.69,-0.377,1.11,-0.048
36.7,-0.365,0.93,-0.108
36.71,-0.145,1.015,-0.036
36.72,-0.137,0.978,0.127
36.73,-0.132,0.726,0.103
36.74,-0.419,1.219,-0.087
36.75,-0.266,0.787,-0.119
36.76,-0.171,1.182,-0.056
36.77,-0.035,0.843,0.187
36.78,-0.187,0.947,0.007
36.79,-0.395,0.964,-0.158
36.8,-0.249,0.913,-0.046
36.81,-0.049,1.227,0.065
36.82,-0.076,0.654,0.152
36.83,-0.342,1.099,-0.018
36.84,-0.345,0.865,-0.132
36.85,-0.194,1.096,-0.044
36.86,-0.129,0.914,0.119
36.87,-0.168,0.857,0.176
36.88,-0.371,1.086,-0.112
36.89,-0.239,0.851,-0.107
36.9,-0.176,1.221,0.069
36.91,-0.013,0.801,0.148
36.92,-0.228,1.097,0.041
36.93,-0.307,0.806,-0.175
36.94,-0.281,1.2,-0.033
36.95,-0.131,0.935,0.077
36.96,-0.06,0.856,0.155
36.97,-0.375,1.052,0.019
36.98,-0.279,0.87,-0.17
36.99,-0.235,1.15,-0.081
37.0,-0.05,0.761,0.101
37.01,-0.157,1.117,0.168
37.02,-0.279,0.87,-0.165
37.03,-0.268,0.935,-0.14
37.04,-0.218,1.097,0.053
37.05,-0.008,0.872,0.15
37.06,-0.225,1.059,0.055
37.07,-0.304,0.832,-0.107
37.08,-0.257,1.295,-0.099
37.09,-0.085,0.891,-0.022
37.1,-0.08,0.924,0.158
37.11,-0.229,0.948,-0.026
37.12,-0.319,0.99,-0.178
37.13,-0.209,1.088,-0.08
37.14,-0.041,0.792,0.096
37.15,-0.169,1.111,0.151
37.16,-0.265,0.831,-0.083
37.17,-0.347,1.117,-0.141
37.18,-0.177,0.913,0.003
37.19,-0.1,0.986,0.175
37.2,-0.207,1.012,0.063
37.21,-0.333,0.863,-0.143
37.22,-0.26,1.177,-0.104
37.23,-0.122,0.903,0.014
37.24,-0.061,1.045,0.146
37.25,-0.171,0.792,-0.001
37.26,-0.338,1.032,-0.169
37.27,-0.261,1.095,-0.016
37.28,-0.068,0.862,0.048
37.29,-0.181,1.01,0.156
37.3,-0.297,0.823,-0.056
37.31,-0.333,1.227,-0.139
37.32,-0.159,0.869,-0.015
37.33,-0.066,1.007,0.125
37.34,-0.193,0.897,0.124
37.35,-0.318,0.928,-0.168
37.36,-0.309,1.098,-0.091
37.37,-0.11,0.888,0.035
37.38,-0.092,1.11,0.13
37.39,-0.183,0.729,0.005
37.4,-0.417,1.149,-0.125
37.41,-0.101,1.043,-0.045
37.42,-0.159,1.004,0.036
37.43,-0.051,0.793,0.141
37.44,-0.29,0.921,-0.025
37.45,-0.315,1.25,-0.163
37.46,-0.195,0.777,-0.063
37.47,-0.135,1.108,0.172
37.48,-0.064,0.786,0.067
37.49,-0.357,1.029,-0.103
37.5,-0.285,1.022,-0.113
37.51,-0.091,0.984,0.035
37.52,-0.085,1.016,0.145
37.53,-0.155,0.67,0.006
37.54,-0.435,1.239,-0.145
37.55,-0.169,0.949,-0.069
37.56,-0.127,1.082,0.07
37.57,-0.096,0.769,0.154
37.58,-0.376,0.918,-0.04
37.59,-0.298,1.163,-0.155
37.6,-0.141,0.862,-0.017
37.61,-0.167,1.11,0.125
37.62,-0.091,0.743,0.121
37.63,-0.369,1.108,-0.139
37.64,-0.28,0.838,-0.133
37.65,-0.242,1.062,0.096
37.66,0.003,1.032,0.135
37.67,-0.237,0.725,0.026
37.68,-0.386,1.184,-0.128
37.69,-0.144,0.953,-0.056
37.7,-0.187,1.133,0.032
37.71,-0.058,0.596,0.158
37.72,-0.37,1.156,-0.048
37.73,-0.268,0.9,-0.188
37.74,-0.208,0.982,-0.051
37.75,-0.105,0.969,0.158
37.76,-0.111,0.807,0.123
37.77,-0.336,1.137,-0.125
37.78,-0.263,0.705,-0.125
37.79,-0.253,1.277,0.104
37.8,0.018,0.836,0.171
37.81,-0.192,0.955,0.007
37.82,-0.429,0.982,-0.115
37.83,-0.148,0.98,-0.086
37.84,-0.059,1.183,0.031
37.85,-0.079,0.626,0.146
37.86,-0.374,1.145,-0.02
37.87,-0.258,0.847,-0.123
37.88,-0.228,1.122,-0.045
37.89,-0.152,0.891,0.119
37.9,-0.164,0.868,0.135
37.91,-0.327,1.093,-0.109
37.92,-0.199,0.774,-0.161
37.93,-0.203,1.229,-0.006
37.94,-0.043,0.777,0.178
37.95,-0.204,1.059,0.076
37.96,-0.31,0.863,-0.169
37.97,-0.285,1.022,-0.073
37.98,-0.039,1.092,0.034
37.99,-0.077,0.76,0.123
38.0,-0.32,1.079,-0.013
38.01,-0.375,0.799,-0.125
38.02,-0.194,1.18,-0.044
38.03,-0.1,0.838,0.134
38.04,-0.161,0.925,0.141
38.05,-0.361,1.023,-0.037
38.06,-0.275,0.935,-0.181
38.07,-0.193,1.081,-0.008
38.08,-0.066,0.802,0.189
38.09,-0.191,1.088,0.029
38.1,-0.315,0.81,-0.144
38.11,-0.262,1.139,-0.061
38.12,-0.072,1.005,-0.005
38.13,-0.087,0.797,0.14
38.14,-0.239,1.051,0.005
38.15,-0.307,0.867,-0.124
38.16,-0.241,1.188,-0.057
38.17,-0.051,0.794,0.059
38.18,-0.136,1.052,0.148
38.19,-0.33,0.882,-0.1
38.2,-0.32,0.971,-0.135
38.21,-0.217,1.031,-0.015
38.22,-0.08,0.876,0.196
38.23,-0.235,1.097,0.069
38.24,-0.277,0.795,-0.139
38.25,-0.285,1.232,-0.084
38.26,-0.057,0.919,0.009
38.27,-0.065,0.885,0.156
38.28,-0.234,0.945,0.025
38.29,-0.367,0.935,-0.131
38.3,-0.236,1.131,-0.074
38.31,-0.117,0.779,0.107
38.32,-0.162,1.077,0.166
38.33,-0.31,0.815,-0.078
38.34,-0.362,1.122,-0.135
38.35,-0.105,0.911,-0.055
38.36,-0.128,0.927,0.167
38.37,-0.114,1.026,0.07
38.38,-0.366,0.844,-0.123
38.39,-0.243,1.176,-0.132
38.4,-0.14,0.893,0.038
38.41,-0.097,0.999,0.15
38.42,-0.18,0.837,0.023
38.43,-0.359,1.064,-0.133
38.44,-0.198,1.075,-0.104
38.45,-0.112,0.861,0.067
38.46,-0.133,1.005,0.161
38.47,-0.286,0.812,-0.068
38.48,-0.4,1.184,-0.134
38.49,-0.163,0.865,-0.05
38.5,-0.154,1.142,0.146
38.51,-0.125,0.753,0.098
38.52,-0.306,1.029,-0.147
38.53,-0.305,1.013,-0.102
38.54,-0.035,0.958,0.001
38.55,-0.099,0.992,0.143
38.56,-0.17,0.731,0.036
38.57,-0.434,1.223,-0.169
38.58,-0.153,0.884,-0.094
38.59,-0.154,1.114,0.145
38.6,-0.119,0.78,0.178
38.61,-0.345,0.913,-0.042
38.62,-0.374,1.09,-0.166
38.63,-0.172,0.808,-0.051
38.64,-0.151,1.168,0.18
38.65,-0.144,0.73,0.102
38.66,-0.358,1.104,-0.131
38.67,-0.25,0.858,-0.121
38.68,-0.199,1.103,0.087
38.69,-0.064,0.98,0.151
38.7,-0.193,0.764,0.041
38.71,-0.342,1.144,-0.16
38.72,-0.209,0.905,-0.069
38.73,-0.15,1.254,0.081
38.74,-0.074,0.694,0.145
38.75,-0.3,0.996,-0.008
38.76,-0.375,0.983,-0.139
38.77,-0.147,0.932,-0.075
38.78,-0.104,1.099,0.087
38.79,-0.124,0.692,0.154
38.8,-0.403,1.17,-0.083
38.81,-0.171,0.828,-0.19
38.82,-0.236,1.171,0.037
38.83,-0.031,0.878,0.156
38.84,-0.187,0.867,0.06
38.85,-0.354,1.091,-0.15
38.86,-0.185,0.871,-0.075
38.87,-0.216,1.203,0.065
38.88,-0.101,0.643,0.164
38.89,-0.361,1.135,0.028
38.9,-0.321,0.895,-0.202
38.91,-0.262,0.984,-0.052
38.92,-0.045,1.053,0.12
38.93,-0.132,0.748,0.106
38.94,-0.363,1.121,-0.057
38.95,-0.236,0.768,-0.137
38.96,-0.253,1.208,-0.026
38.97,-0.094,0.837,0.146
38.98,-0.188,0.957,0.074
38.99,-0.331,0.989,-0.131
39.0,-0.22,0.885,-0.114
39.01,-0.155,1.196,0.097
39.02,-0.052,0.697,0.147
39.03,-0.301,1.095,0.009
39.04,-0.335,0.854,-0.14
39.05,-0.257,1.138,-0.077
39.06,-0.075,0.917,0.074
39.07,-0.114,0.851,0.115
39.08,-0.378,1.044,-0.056
39.09,-0.239,0.822,-0.165
39.1,-0.234,1.155,0.006
39.11,-0.049,0.786,0.152
39.12,-0.182,1.057,0.082
39.13,-0.272,0.868,-0.169
39.14,-0.265,0.967,-0.125
39.15,-0.154,1.102,0.057
39.16,-0.005,0.782,0.132
39.17,-0.257,1.063,0.043
39.18,-0.375,0.795,-0.138
39.19,-0.196,1.235,-0.03
39.2,-0.091,0.883,0.032
39.21,-0.096,0.894,0.109
39.22,-0.372,1.025,0.005
39.23,-0.255,0.905,-0.163
39.24,-0.215,1.134,-0.032
39.25,-0.084,0.802,0.147
39.26,-0.16,1.087,0.119
39.27,-0.247,0.841,-0.135
39.28,-0.23,1.091,-0.143
39.29,-0.143,1.036,0.069
39.3,-0.115,0.953,0.144
39.31,-0.186,0.907,0.029
39.32,-0.386,1.019,-0.137
39.33,-0.221,1.129,-0.086
39.34,-0.141,0.801,0.092
39.35,-0.082,1.048,0.125
39.36,-0.302,0.844,-0.049
39.37,-0.388,1.133,-0.149
39.38,-0.16,0.905,-0.042
39.39,-0.107,0.987,0.177
39.4,-0.153,0.987,0.079
39.41,-0.319,0.872,-0.106
39.42,-0.3,1.168,-0.107
39.43,-0.165,0.885,0.066
39.44,-0.07,1.07,0.126
39.45,-0.186,0.803,0.032
39.46,-0.36,1.084,-0.127
39.47,-0.131,1.11,-0.107
39.48,-0.196,0.885,0.053
39.49,-0.066,0.924,0.183
39.5,-0.323,0.833,-0.067
39.51,-0.327,1.234,-0.161
39.52,-0.182,0.847,-0.05
39.53,-0.119,1.016,0.119
39.54,-0.142,0.853,0.145
39.55,-0.347,0.954,-0.12
39.56,-0.355,1.068,-0.128
39.57,-0.124,0.891,0.012
39.58,-0.121,1.124,0.175
39.59,-0.101,0.703,0.036
39.6,-0.379,1.18,-0.139
39.61,-0.233,0.952,-0.097
39.62,-0.127,1.056,0.057
39.63,-0.106,0.886,0.133
39.64,-0.248,0.838,0.013
39.65,-0.415,1.244,-0.122
39.66,-0.168,0.87,-0.064
39.67,-0.157,1.11,0.09
39.68,-0.039,0.71,0.146
39.69,-0.386,1.046,-0.07
39.7,-0.282,0.972,-0.173
39.71,-0.176,0.906,0.012
39.72,-0.084,1.126,0.158
39.73,-0.156,0.741,0.074
39.74,-0.431,1.14,-0.13
39.75,-0.192,0.877,-0.075
39.76,-0.178,1.273,0.105
39.77,-0.06,0.778,0.122
39.78,-0.272,0.889,0.032
39.79,-0.369,1.136,-0.148
39.8,-0.152,0.923,-0.066
39.81,-0.186,1.126,0.086
39.82,-0.087,0.629,0.138
39.83,-0.414,1.129,-0.029
39.84,-0.288,0.884,-0.164
39.85,-0.163,0.975,-0.013
39.86,0.041,0.964,0.072
39.87,-0.189,0.793,0.087
39.88,-0.382,1.131,-0.133
39.89,-0.219,0.793,-0.112
39.9,-0.112,1.247,0.013
39.91,-0.017,0.743,0.145
39.92,-0.266,0.971,-0.002
39.93,-0.371,1.011,-0.16
39.94,-0.128,0.997,-0.064
39.95,-0.271,1.136,0.132
39.96,-0.057,0.648,0.129
39.97,-0.365,1.171,-0.048
39.98,-0.276,0.794,-0.156
39.99,-0.189,1.079,-0.033
40.0,-0.094,0.942,0.193
40.01,-0.091,0.877,0.061
40.02,-0.413,1.062,-0.128
40.03,-0.237,0.82,-0.071
40.04,-0.14,1.323,0.048
40.05,-0.044,0.615,0.124
40.06,-0.253,1.067,0.041
40.07,-0.319,0.919,-0.112
40.08,-0.179,1.083,-0.096
40.09,-0.16,1.012,0.117
40.1,-0.107,0.882,0.142
40.11,-0.329,1.045,-0.095
40.12,-0.303,0.845,-0.139
40.13,-0.222,1.149,0.031
40.14,-0.05,0.792,0.17
40.15,-0.208,1.071,0.078
40.16,-0.334,0.839,-0.165
40.17,-0.245,1.038,-0.091
40.18,-0.127,1.052,0.045
40.19,-0.071,0.831,0.168
40.2,-0.258,1.042,0.001
40.21,-0.352,0.813,-0.145
40.22,-0.241,1.234,0.003
40.23,-0.1,0.82,0.124
40.24,-0.145,0.969,0.139
40.25,-0.348,0.971,-0.059
40.26,-0.28,0.978,-0.136
40.27,-0.176,1.083,-0.022
40.28,-0.072,0.781,0.169
40.29,-0.196,1.101,0.09
40.3,-0.304,0.82,-0.173
40.31,-0.29,1.146,-0.092
40.32,-0.161,0.977,0.121
40.33,-0.078,0.892,0.147
40.34,-0.276,0.985,0.001
40.35,-0.356,0.901,-0.119
40.36,-0.142,1.222,-0.083
40.37,-0.145,0.781,0.1
40.38,-0.172,1.038,0.14
40.39,-0.257,0.91,-0.101
40.4,-0.332,1.001,-0.171
40.41,-0.236,0.962,0.015
40.42,-0.004,0.96,0.179
40.43,-0.186,1.043,0.057
40.44,-0.294,0.833,-0.13
40.45,-0.278,1.26,-0.074
40.46,-0.085,0.884,0.013
40.47,-0.09,0.91,0.136
40.48,-0.287,0.956,-0.005
40.49,-0.262,0.979,-0.15
40.5,-0.221,1.072,-0.08
40.51,-0.099,0.797,0.099
40.52,-0.197,1.067,0.153
40.53,-0.235,0.822,-0.087
40.54,-0.371,1.111,-0.141
40.55,-0.089,0.902,0.015
40.56,-0.109,1.031,0.188
40.57,-0.173,0.946,0.033
40.58,-0.289,0.9,-0.168
40.59,-0.215,1.274,-0.066
40.6,-0.107,0.847,0.03
40.61,-0.148,0.973,0.141
40.62,-0.197,0.832,0.0
40.63,-0.379,1.151,-0.164
40.64,-0.141,0.979,-0.076
40.65,-0.103,0.931,0.124
40.66,-0.143,0.984,0.154
40.67,-0.293,0.8,-0.104
40.68,-0.371,1.182,-0.088
40.69,-0.155,0.907,0.024
40.7,-0.128,1.107,0.164
40.71,-0.156,0.802,0.01
40.72,-0.381,1.013,-0.123
40.73,-0.212,1.204,-0.016
40.74,-0.056,0.884,0.007
40.75,-0.141,0.949,0.149
40.76,-0.235,0.799,0.01
40.77,-0.344,1.263,-0.16
40.78,-0.154,0.9,-0.107
40.79,-0.208,0.979,0.101
40.8,-0.104,0.872,0.13
40.81,-0.337,0.938,-0.092
40.82,-0.355,1.138,-0.129
40.83,-0.137,0.809,-0.018
40.84,-0.033,1.144,0.152
40.85,-0.174,0.789,-0.006
40.86,-0.385,1.051,-0.142
40.87,-0.175,1.047,-0.055
40.88,-0.046,1.038,-0.009
40.89,-0.089,0.734,0.162
40.9,-0.295,0.915,-0.037
40.91,-0.429,1.172,-0.138
40.92,-0.11,0.821,-0.038
40.93,-0.103,1.156,0.15
40.94,-0.133,0.697,0.111
40.95,-0.402,1.088,-0.116
40.96,-0.229,0.911,-0.132
40.97,-0.199,1.108,0.068
40.98,-0.057,0.963,0.095
40.99,-0.214,0.716,0.044
41.0,-0.38,1.218,-0.146
41.01,-0.094,0.923,-0.091
41.02,-0.184,1.153,-0.003
41.03,-0.051,0.655,0.154
41.04,-0.28,1.038,-0.014
41.05,-0.337,1.03,-0.193
41.06,-0.201,0.852,-0.026
41.07,-0.144,1.128,0.155
41.08,-0.076,0.737,0.112
41.09,-0.386,1.125,-0.132
41.1,-0.216,0.783,-0.119
41.11,-0.214,1.206,0.021
41.12,-0.043,0.872,0.168
41.13,-0.17,0.823,0.037
41.14,-0.413,1.114,-0.145
41.15,-0.116,0.926,-0.101
41.16,-0.167,1.199,0.071
41.17,-0.04,0.601,0.17
41.18,-0.384,1.111,-0.019
41.19,-0.323,0.879,-0.127
41.2,-0.22,1.014,-0.022
41.21,-0.154,1.037,0.116
41.22,-0.141,0.756,0.124
41.23,-0.356,1.172,-0.109
41.24,-0.231,0.739,-0.122
41.25,-0.24,1.208,0.007
41.26,0.021,0.829,0.164
41.27,-0.184,0.966,0.01
41.28,-0.371,0.973,-0.128
41.29,-0.231,0.934,-0.067
41.3,-0.119,1.226,0.112
41.31,-0.034,0.647,0.114
41.32,-0.366,1.091,-0.017
41.33,-0.282,0.848,-0.14
41.34,-0.134,1.178,-0.045
41.35,-0.144,0.888,0.111
41.36,-0.152,0.784,0.154
41.37,-0.316,1.154,-0.044
41.38,-0.282,0.859,-0.14
41.39,-0.262,1.151,-0.017
41.4,-0.054,0.796,0.226
41.41,-0.146,1.064,0.003
41.42,-0.388,0.873,-0.161
41.43,-0.239,1.007,-0.062
41.44,-0.039,1.12,-0.016
41.45,-0.084,0.744,0.142
41.46,-0.34,1.101,0.013
41.47,-0.26,0.833,-0.123
41.48,-0.217,1.193,-0.062
41.49,-0.118,0.789,0.11
41.5,-0.198,0.944,0.14
41.51,-0.311,1.013,-0.056
41.52,-0.24,0.867,-0.148
41.53,-0.229,1.151,-0.014
41.54,-0.088,0.779,0.167
41.55,-0.2,1.128,0.08
41.56,-0.32,0.794,-0.166
41.57,-0.242,1.08,-0.094
41.58,-0.042,1.084,0.037
41.59,-0.08,0.873,0.143
41.6,-0.25,1.008,0.008
41.61,-0.313,0.868,-0.132
41.62,-0.193,1.191,-0.086
41.63,-0.159,0.761,0.143
41.64,-0.126,1.053,0.141
41.65,-0.306,0.92,-0.12
41.66,-0.365,0.947,-0.134
41.67,-0.233,0.978,-0.023
41.68,-0.075,0.912,0.182
41.69,-0.177,0.952,0.034
41.7,-0.312,0.859,-0.128
41.71,-0.289,1.252,-0.051
41.72,-0.092,0.875,0.024
41.73,-0.124,0.953,0.152
41.74,-0.221,0.821,-0.012
41.75,-0.364,1.131,-0.164
41.76,-0.158,1.032,-0.077
41.77,-0.118,0.839,0.11
41.78,-0.163,1.016,0.172
41.79,-0.246,0.836,-0.1
41.8,-0.409,1.177,-0.117
41.81,-0.114,0.841,-0.031
41.82,-0.08,1.082,0.163
41.83,-0.231,0.807,-0.018
41.84,-0.121,1.137,0.216
41.85,-0.055,0.709,0.071
41.86,-0.369,1.154,-0.173
41.87,-0.231,0.842,-0.107
41.88,-0.164,1.201,0.042
41.89,-0.044,0.866,0.123
41.9,-0.203,0.802,0.005
41.91,-0.337,1.138,-0.158
41.92,-0.157,0.926,-0.043
41.93,-0.132,1.171,0.042
41.94,-0.048,0.621,0.125
41.95,-0.362,1.099,-0.044
41.96,-0.285,0.978,-0.161
41.97,-0.194,0.987,-0.036
41.98,-0.147,1.005,0.13
41.99,-0.131,0.747,0.121
42.0,-0.381,1.21,-0.1
42.01,-0.24,0.741,-0.158
42.02,-0.265,1.209,0.085
42.03,-0.008,0.852,0.169
42.04,-0.182,0.899,0.019
42.05,-0.362,1.008,-0.135
42.06,-0.218,0.943,-0.063
42.07,-0.047,1.172,-0.011
42.08,-0.025,0.606,0.145
42.09,-0.319,1.123,-0.016
42.1,-0.414,0.845,-0.106
42.11,-0.182,1.075,-0.054
42.12,-0.171,0.942,0.142
42.13,-0.163,0.8,0.14
42.14,-0.365,1.144,-0.071
42.15,-0.222,0.766,-0.116
42.16,-0.198,1.181,-0.002
42.17,-0.047,0.814,0.185
42.18,-0.157,1.051,0.035
42.19,-0.312,0.903,-0.119
42.2,-0.208,0.964,-0.099
42.21,-0.135,1.167,0.032
42.22,-0.069,0.724,0.161
42.23,-0.251,1.082,-0.028
42.24,-0.333,0.825,-0.112
42.25,-0.21,1.187,-0.075
42.26,-0.074,0.835,0.109
42.27,-0.085,0.939,0.138
42.28,-0.371,0.99,-0.067
42.29,-0.233,0.837,-0.161
42.3,-0.212,1.168,-0.004
42.31,-0.097,0.776,0.123
42.32,-0.242,1.118,0.136
42.33,-0.288,0.832,-0.142
42.34,-0.255,1.065,-0.12
42.35,-0.161,1.016,0.044
42.36,-0.032,0.809,0.148
42.37,-0.181,0.952,0.023
42.38,-0.371,0.98,-0.169
42.39,-0.272,1.134,-0.048
42.4,-0.049,0.844,0.072
42.41,-0.129,1.056,0.119
42.42,-0.33,0.847,-0.027
42.43,-0.339,1.183,-0.136
42.44,-0.115,0.907,-0.071
42.45,-0.115,0.909,0.162
42.46,-0.18,0.976,0.122
42.47,-0.294,0.886,-0.133
42.48,-0.304,1.174,-0.108
42.49,-0.117,0.847,-0.034
42.5,-0.112,1.099,0.205
42.51,-0.151,0.785,0.017
42.52,-0.395,1.04,-0.144
42.53,-0.207,1.055,-0.062
42.54,-0.103,0.974,0.036
42.55,-0.099,0.975,0.155
42.56,-0.278,0.783,-0.024
42.57,-0.373,1.211,-0.133
42.58,-0.118,0.871,-0.072
42.59,-0.138,1.069,0.068
42.6,-0.126,0.804,0.142
42.61,-0.341,0.973,-0.081
42.62,-0.268,1.104,-0.157
42.63,-0.171,0.833,0.005
42.64,-0.108,1.1,0.166
42.65,-0.128,0.744,0.049
42.66,-0.353,1.152,-0.117
42.67,-0.258,0.934,-0.119
42.68,-0.138,1.06,0.097
42.69,-0.087,0.895,0.155
42.7,-0.288,0.769,-0.024
42.71,-0.401,1.183,-0.119
42.72,-0.16,0.886,-0.071
42.73,-0.165,1.154,0.078
42.74,-0.066,0.696,0.138
42.75,-0.342,1.051,-0.046
42.76,-0.274,0.975,-0.127
42.77,-0.195,0.895,-0.0
42.78,-0.042,1.09,0.101
42.79,-0.167,0.737,0.11
42.8,-0.372,1.163,-0.125
42.81,-0.219,0.79,-0.121
42.82,-0.164,1.179,0.045
42.83,-0.02,0.892,0.179
42.84,-0.208,0.893,0.044
42.85,-0.372,1.066,-0.168
42.86,-0.193,0.884,-0.061
42.87,-0.095,1.266,0.056
42.88,-0.077,0.638,0.122
42.89,-0.339,1.103,-0.01
42.9,-0.353,0.881,-0.102
42.91,-0.144,1.092,-0.079
42.92,-0.124,0.965,0.051
42.93,-0.18,0.765,0.16
42.94,-0.394,1.167,-0.068
42.95,-0.228,0.739,-0.13
42.96,-0.18,1.17,-0.034
42.97,-0.117,0.835,0.156
42.98,-0.18,0.976,0.08
42.99,-0.343,0.946,-0.142
43.0,-0.239,0.867,-0.099
43.01,-0.193,1.182,0.105
43.02,-0.053,0.74,0.146
43.03,-0.272,1.083,-0.004
43.04,-0.371,0.806,-0.12
43.05,-0.186,1.19,-0.074
43.06,-0.104,0.925,0.039
43.07,-0.119,0.823,0.131
43.08,-0.35,1.056,-0.033
43.09,-0.234,0.866,-0.126
43.1,-0.219,1.145,-0.047
43.11,-0.075,0.738,0.113
43.12,-0.192,1.131,0.153
43.13,-0.283,0.896,-0.131
43.14,-0.294,0.965,-0.144
43.15,-0.228,1.063,0.049
43.16,0.001,0.87,0.139
43.17,-0.257,0.916,0.035
43.18,-0.384,0.871,-0.137
43.19,-0.148,1.223,-0.069
43.2,-0.087,0.824,0.06
43.21,-0.15,1.022,0.152
43.22,-0.277,0.856,-0.035
43.23,-0.29,1.14,-0.117
43.24,-0.178,0.95,-0.071
43.25,-0.108,0.894,0.064
43.26,-0.172,1.038,0.147
43.27,-0.296,0.843,-0.1
43.28,-0.32,1.11,-0.132
43.29,-0.195,0.859,0.031
43.3,-0.064,1.116,0.16
43.31,-0.126,0.852,0.069
43.32,-0.373,0.985,-0.136
43.33,-0.287,1.088,-0.093
43.34,-0.111,0.953,0.075
43.35,-0.047,1.064,0.113
43.36,-0.239,0.717,-0.005
43.37,-0.404,1.168,-0.145
43.38,-0.111,0.941,-0.092
43.39,-0.146,0.994,0.071
43.4,-0.113,0.836,0.129
43.41,-0.363,0.898,-0.005
43.42,-0.329,1.164,-0.125
43.43,-0.119,0.818,-0.06
43.44,-0.182,1.128,0.143
43.45,-0.13,0.753,0.106
43.46,-0.308,1.123,-0.1
43.47,-0.264,0.904,-0.164
43.48,-0.262,1.024,0.067
43.49,-0.044,1.067,0.143
43.5,-0.186,0.718,0.026
43.51,-0.404,1.168,-0.144
43.52,-0.246,0.888,-0.06
43.53,-0.077,1.191,0.035
43.54,-0.079,0.738,0.164
43.55,-0.299,0.952,-0.02
43.56,-0.376,1.061,-0.106
43.57,-0.14,0.896,-0.095
43.58,-0.171,1.148,0.112
43.59,-0.09,0.692,0.126
43.6,-0.41,1.146,-0.044
43.61,-0.293,0.816,-0.15
43.62,-0.205,1.023,-0.084
43.63,-0.107,0.981,0.175
43.64,-0.114,0.846,0.078
43.65,-0.308,1.097,-0.11
43.66,-0.252,0.747,-0.127
43.67,-0.257,1.245,0.049
43.68,-0.01,0.762,0.175
43.69,-0.223,1.021,0.039
43.7,-0.355,0.917,-0.146
43.71,-0.273,0.995,-0.053
43.72,-0.081,1.136,0.077
43.73,-0.065,0.696,0.131
43.74,-0.332,1.105,0.0
43.75,-0.299,0.822,-0.103
43.76,-0.223,1.186,-0.104
43.77,-0.129,0.828,0.099
43.78,-0.154,0.915,0.151
43.79,-0.316,1.035,-0.04
43.8,-0.257,0.829,-0.164
43.81,-0.226,1.124,-0.011
43.82,-0.076,0.802,0.142
43.83,-0.185,1.145,0.116
43.84,-0.255,0.825,-0.144
43.85,-0.294,0.979,-0.148
43.86,-0.199,1.066,0.053
43.87,0.006,0.951,0.136
43.88,-0.227,1.021,0.048
43.89,-0.32,0.822,-0.122
43.9,-0.283,1.323,-0.04
43.91,-0.078,0.855,0.017
43.92,-0.084,0.967,0.16
43.93,-0.293,0.898,-0.022
43.94,-0.301,1.017,-0.146
43.95,-0.222,1.1,-0.096
43.96,-0.15,0.917,0.102
43.97,-0.144,1.0,0.165
43.98,-0.237,0.848,-0.085
43.99,-0.374,1.141,-0.118
44.0,-0.133,0.765,0.003
44.01,-0.129,1.157,0.18
44.02,-0.133,0.83,0.017
44.03,-0.352,1.007,-0.124
44.04,-0.227,1.013,-0.099
44.05,-0.117,0.984,0.076
44.06,-0.08,1.024,0.128
44.07,-0.182,0.724,0.03
44.08,-0.415,1.226,-0.114
44.09,-0.154,0.946,-0.078
44.1,-0.139,1.094,-0.012
44.11,-0.112,0.773,0.169
44.12,-0.259,0.905,-0.048
44.13,-0.346,1.174,-0.13
44.14,-0.216,0.843,-0.041
44.15,-0.104,1.1,0.116
44.16,-0.157,0.708,0.15
44.17,-0.317,1.093,-0.065
44.18,-0.297,0.877,-0.169
44.19,-0.2,0.968,-0.045
44.2,-0.143,1.002,0.122
44.21,-0.136,0.765,0.092
44.22,-0.369,1.138,-0.113
44.23,-0.236,0.763,-0.104
44.24,-0.163,1.263,0.07
44.25,-0.031,0.826,0.153
44.26,-0.243,0.93,0.039
44.27,-0.288,0.969,-0.13
44.28,-0.197,0.977,-0.079
44.29,-0.113,1.173,0.018
44.3,-0.121,0.637,0.161
44.31,-0.312,1.11,-0.006
44.32,-0.32,0.856,-0.119
44.33,-0.212,1.116,-0.074
44.34,-0.114,0.918,0.088
44.35,-0.095,0.809,0.122
44.36,-0.376,1.121,-0.046
44.37,-0.252,0.804,-0.196
44.38,-0.223,1.115,-0.044
44.39,-0.083,0.794,0.154
44.4,-0.183,1.113,0.127
44.41,-0.282,0.877,-0.141
44.42,-0.276,0.901,-0.093
44.43,-0.241,1.128,0.062
44.44,-0.02,0.867,0.149
44.45,-0.221,1.09,0.042
44.46,-0.303,0.775,-0.177
44.47,-0.291,1.228,-0.055
44.48,-0.034,0.938,0.001
44.49,-0.088,0.923,0.158
44.5,-0.236,0.937,-0.002
44.51,-0.35,0.942,-0.113
44.52,-0.202,1.128,-0.077
44.53,-0.103,0.796,0.099
44.54,-0.153,1.078,0.103
44.55,-0.311,0.842,-0.037
44.56,-0.28,1.083,-0.154
44.57,-0.188,0.91,-0.056
44.58,-0.122,0.906,0.164
44.59,-0.14,1.028,0.115
44.6,-0.334,0.819,-0.137
44.61,-0.289,1.128,-0.112
44.62,-0.132,0.931,0.017
44.63,-0.076,1.107,0.12
44.64,-0.198,0.788,0.016
44.65,-0.29,1.05,-0.113
44.66,-0.229,1.114,-0.085
44.67,-0.087,0.956,0.011
44.68,-0.104,0.988,0.153
44.69,-0.196,0.765,-0.017
44.7,-0.363,1.23,-0.138
44.71,-0.201,0.901,-0.08
44.72,-0.125,1.02,0.09
44.73,-0.067,0.857,0.109
44.74,-0.362,0.933,-0.03
44.75,-0.344,1.141,-0.155
44.76,-0.195,0.915,-0.024
44.77,-0.123,1.056,0.167
44.78,-0.131,0.731,0.072
44.79,-0.344,1.128,-0.129
44.8,-0.205,0.786,-0.131
44.81,-0.173,1.211,0.077
44.82,-0.071,0.857,0.133
44.83,-0.184,0.844,0.023
44.84,-0.393,1.091,-0.137
44.85,-0.183,0.899,-0.062
44.86,-0.16,1.191,0.011
44.87,-0.04,0.601,0.147
44.88,-0.316,1.121,0.005
44.89,-0.32,0.901,-0.118
44.9,-0.236,1.004,-0.119
44.91,-0.091,0.994,0.153
44.92,-0.09,0.808,0.107
44.93,-0.436,1.13,-0.059
44.94,-0.273,0.747,-0.179
44.95,-0.198,1.148,-0.043
44.96,-0.091,0.842,0.173
44.97,-0.196,1.02,0.105
44.98,-0.342,0.937,-0.134
44.99,-0.251,0.862,-0.118
45.0,-0.244,1.227,0.088
45.01,-0.009,0.771,0.148
45.02,-0.243,1.079,0.036
45.03,-0.33,0.81,-0.144
45.04,-0.276,1.121,-0.068
45.05,-0.039,0.998,0.102
45.06,-0.055,0.894,0.103
45.07,-0.328,0.993,-0.04
45.08,-0.324,0.87,-0.069
45.09,-0.2,1.235,-0.045
45.1,-0.126,0.766,0.095
45.11,-0.193,1.042,0.133
45.12,-0.252,0.917,-0.08
45.13,-0.319,1.0,-0.141
45.14,-0.223,0.963,-0.039
45.15,-0.056,0.88,0.185
45.16,-0.177,1.11,0.073
45.17,-0.304,0.79,-0.126
45.18,-0.332,1.162,-0.072
45.19,-0.118,0.917,0.034
45.2,-0.043,0.988,0.138
45.21,-0.195,0.903,0.01
45.22,-0.343,0.955,-0.151
45.23,-0.23,1.169,-0.038
45.24,-0.075,0.852,0.047
45.25,-0.144,1.035,0.146
45.26,-0.277,0.815,-0.04
45.27,-0.367,1.191,-0.142
45.28,-0.146,0.904,-0.09
45.29,-0.14,0.934,0.089
45.3,-0.18,0.973,0.135
45.31,-0.298,0.871,-0.081
45.32,-0.333,1.164,-0.114
45.33,-0.158,0.8,-0.011
45.34,-0.143,1.117,0.162
45.35,-0.107,0.797,0.073
45.36,-0.376,1.042,-0.144
45.37,-0.243,0.93,-0.124
45.38,-0.117,1.034,0.086
45.39,-0.056,1.096,0.102
45.4,-0.219,0.702,0.007
45.41,-0.369,1.167,-0.124
45.42,-0.181,0.953,-0.024
45.43,-0.08,1.126,0.034
45.44,-0.087,0.757,0.157
45.45,-0.307,0.935,-0.019
45.46,-0.396,1.115,-0.085
45.47,-0.095,0.874,-0.072
45.48,-0.188,1.121,0.113
45.49,-0.082,0.664,0.1
45.5,-0.39,1.17,-0.046
45.51,-0.233,0.892,-0.169
45.52,-0.247,0.979,0.024
45.53,-0.073,0.948,0.135
45.54,-0.148,0.846,0.086
45.55,-0.406,1.148,-0.145
45.56,-0.196,0.845,-0.098
45.57,-0.097,1.284,0.062
45.58,-0.016,0.701,0.103
45.59,-0.348,1.078,0.046
45.6,-0.332,0.822,-0.168
45.61,-0.146,1.137,-0.039
45.62,-0.151,0.99,0.079
45.63,-0.102,0.749,0.106
45.64,-0.364,1.152,-0.019
45.65,-0.176,0.795,-0.182
45.66,-0.248,1.136,-0.033
45.67,-0.123,0.794,0.163
45.68,-0.113,1.026,0.094
45.69,-0.29,0.958,-0.138
45.7,-0.298,0.887,-0.093
45.71,-0.164,1.178,0.045
45.72,-0.004,0.811,0.142
45.73,-0.247,1.057,0.049
45.74,-0.377,0.806,-0.141
45.75,-0.174,1.209,-0.056
45.76,-0.146,0.974,0.087
45.77,-0.073,0.856,0.103
45.78,-0.315,1.016,0.008
45.79,-0.252,0.903,-0.147
45.8,-0.214,1.188,-0.049
45.81,-0.154,0.75,0.099
45.82,-0.201,1.08,0.146
45.83,-0.268,0.873,-0.071
45.84,-0.322,1.072,-0.146
45.85,-0.177,0.94,-0.045
45.86,-0.076,0.926,0.175
45.87,-0.174,1.089,0.091
45.88,-0.295,0.827,-0.148
45.89,-0.323,1.111,-0.122
45.9,-0.116,0.918,0.092
45.91,-0.007,1.078,0.142
45.92,-0.204,0.847,0.015
45.93,-0.348,0.961,-0.147
45.94,-0.242,1.175,-0.039
45.95,-0.091,0.882,0.008
45.96,-0.113,1.01,0.133
45.97,-0.29,0.833,-0.037
45.98,-0.336,1.245,-0.161
45.99,-0.18,0.852,-0.078
46.0,-0.117,0.952,0.11
46.01,-0.171,0.958,0.187
46.02,-0.337,0.896,-0.109
46.03,-0.343,1.087,-0.12
46.04,-0.219,0.81,0.003
46.05,-0.104,1.148,0.201
46.06,-0.112,0.807,0.025
46.07,-0.344,1.052,-0.148
46.08,-0.232,0.974,-0.092
46.09,-0.1,1.024,0.053
46.1,-0.012,0.968,0.144
46.11,-0.253,0.73,-0.012
46.12,-0.412,1.207,-0.127
46.13,-0.165,0.972,-0.044
46.14,-0.122,1.072,0.037
46.15,-0.122,0.676,0.156
46.16,-0.345,1.033,-0.013
46.17,-0.369,1.132,-0.136
46.18,-0.202,0.812,-0.051
46.19,-0.119,1.073,0.093
46.2,-0.119,0.716,0.149
46.21,-0.362,1.17,-0.104
46.22,-0.284,0.851,-0.138
46.23,-0.281,1.062,0.063
46.24,-0.038,0.994,0.149
46.25,-0.154,0.806,0.021
46.26,-0.412,1.135,-0.163
46.27,-0.198,0.832,-0.08
46.28,-0.012,1.244,-0.024
46.29,-0.051,0.708,0.154
46.3,-0.329,0.979,-0.012
46.31,-0.35,0.979,-0.117
46.32,-0.157,1.025,-0.058
46.33,-0.106,1.056,0.063
46.34,-0.143,0.707,0.128
46.35,-0.412,1.166,-0.019
46.36,-0.219,0.78,-0.139
46.37,-0.348,1.158,0.031
46.38,-0.038,0.784,0.157
46.39,-0.167,1.088,0.109
46.4,-0.256,0.905,-0.163
46.41,-0.286,0.896,-0.104
46.42,-0.209,1.131,0.098
46.43,-0.056,0.851,0.18
46.44,-0.197,1.048,-0.008
46.45,-0.34,0.781,-0.135
46.46,-0.278,1.217,-0.018
46.47,-0.046,0.917,0.058
46.48,-0.053,0.875,0.091
46.49,-0.323,1.0,-0.01
46.5,-0.27,0.952,-0.134
46.51,-0.21,1.125,-0.058
46.52,-0.147,0.707,0.091
46.53,-0.183,1.101,0.162
46.54,-0.26,0.884,-0.079
46.55,-0.255,1.067,-0.157
46.56,-0.212,0.939,-0.018
46.57,-0.052,0.914,0.175
46.58,-0.21,1.067,0.091
46.59,-0.303,0.808,-0.166
46.6,-0.254,1.151,-0.11
46.61,-0.117,0.911,0.063
46.62,-0.038,1.035,0.151
46.63,-0.147,0.82,-0.001
46.64,-0.393,1.022,-0.131
46.65,-0.185,1.119,-0.042
46.66,-0.049,0.89,0.058
46.67,-0.167,1.011,0.122
46.68,-0.31,0.822,-0.026
46.69,-0.36,1.231,-0.14
46.7,-0.13,0.853,-0.059
46.71,-0.146,0.961,0.117
46.72,-0.132,0.914,0.126
46.73,-0.358,0.938,-0.079
46.74,-0.316,1.106,-0.156
46.75,-0.171,0.84,0.002
46.76,-0.11,1.115,0.151
46.77,-0.171,0.771,0.069
46.78,-0.399,1.093,-0.14
46.79,-0.247,0.924,-0.09
46.8,-0.073,1.039,0.067
46.81,-0.026,0.983,0.154
46.82,-0.266,0.765,0.005
46.83,-0.334,1.176,-0.198
46.84,-0.19,0.932,-0.053
46.85,-0.056,1.15,0.077
46.86,-0.068,0.717,0.068
46.87,-0.359,0.981,-0.036
46.88,-0.281,1.072,-0.12
46.89,-0.114,0.922,-0.045
46.9,-0.117,1.095,0.135
46.91,-0.172,0.696,0.115
46.92,-0.341,1.15,-0.138
46.93,-0.265,0.847,-0.118
46.94,-0.122,1.133,-0.022
46.95,-0.01,0.876,0.155
46.96,-0.144,0.817,0.04
46.97,-0.348,1.125,-0.148
46.98,-0.142,0.896,-0.077
46.99,-0.103,1.223,0.022
47.0,-0.07,0.628,0.177
47.01,-0.333,1.067,-0.026
47.02,-0.33,0.908,-0.143
47.03,-0.186,0.96,-0.049
47.04,-0.142,1.065,0.155
47.05,-0.113,0.739,0.126
47.06,-0.417,1.165,-0.063
47.07,-0.195,0.769,-0.151
47.08,-0.283,1.18,0.04
47.09,-0.023,0.822,0.151
47.1,-0.199,0.968,0.061
47.11,-0.358,0.995,-0.111
47.12,-0.214,0.9,-0.1
47.13,-0.156,1.244,0.054
47.14,-0.03,0.669,0.173
47.15,-0.281,1.073,-0.011
47.16,-0.296,0.82,-0.125
47.17,-0.243,1.208,-0.062
47.18,-0.06,0.753,0.12
47.19,-0.162,0.966,0.149
47.2,-0.322,1.018,-0.058
47.21,-0.297,0.906,-0.163
47.22,-0.174,1.074,-0.047
47.23,-0.11,0.851,0.204
47.24,-0.195,1.11,0.071
47.25,-0.272,0.8,-0.164
47.26,-0.239,1.143,-0.077
47.27,-0.063,1.036,0.067
47.28,-0.076,0.84,0.181
47.29,-0.194,1.012,0.003
47.3,-0.381,0.919,-0.126
47.31,-0.246,1.203,-0.087
47.32,-0.102,0.794,0.057
47.33,-0.13,1.011,0.15
47.34,-0.312,0.895,-0.013
47.35,-0.302,1.058,-0.159
47.36,-0.231,0.963,-0.06
47.37,-0.088,0.85,0.149
47.38,-0.149,1.092,0.127
47.39,-0.276,0.828,-0.138
47.4,-0.326,1.1,-0.119
47.41,-0.1,0.912,0.042
47.42,-0.136,1.121,0.169
47.43,-0.161,0.851,0.013
47.44,-0.358,0.928,-0.125
47.45,-0.238,1.187,-0.041
47.46,-0.037,0.933,0.016
47.47,-0.109,1.008,0.125
47.48,-0.228,0.783,-0.024
47.49,-0.383,1.186,-0.145
47.5,-0.083,0.958,-0.097
47.51,-0.125,0.924,0.082
47.52,-0.188,0.919,0.153
47.53,-0.316,0.893,-0.049
47.54,-0.349,1.158,-0.179
47.55,-0.167,0.769,0.01
47.56,-0.139,1.139,0.178
47.57,-0.112,0.8,0.038
47.58,-0.346,1.034,-0.143
47.59,-0.284,1.003,-0.104
47.6,-0.052,0.995,0.046
47.61,-0.085,1.031,0.139
47.62,-0.239,0.744,0.002
47.63,-0.418,1.198,-0.13
47.64,-0.134,0.919,-0.061
47.65,-0.122,1.106,0.073
47.66,-0.107,0.776,0.101
47.67,-0.308,0.965,-0.014
47.68,-0.415,1.124,-0.126
47.69,-0.13,0.787,-0.051
47.7,-0.166,1.169,0.158
47.71,-0.135,0.719,0.094
47.72,-0.37,1.134,-0.122
47.73,-0.256,0.866,-0.113
47.74,-0.142,1.086,0.007
47.75,-0.09,0.968,0.17
47.76,-0.156,0.769,0.008
47.77,-0.409,1.156,-0.152
47.78,-0.166,0.891,-0.055
47.79,-0.112,1.269,0.075
47.8,-0.103,0.635,0.125
47.81,-0.308,0.983,-0.015
47.82,-0.332,1.014,-0.122
47.83,-0.145,0.909,-0.077
47.84,-0.128,1.047,0.116
47.85,-0.104,0.722,0.135
47.86,-0.422,1.183,-0.079
47.87,-0.233,0.797,-0.169
47.88,-0.232,1.156,0.005
47.89,-0.085,0.887,0.18
47.9,-0.138,0.871,0.035
47.91,-0.4,1.081,-0.138
47.92,-0.229,0.835,-0.074
47.93,-0.106,1.29,0.1
47.94,-0.038,0.656,0.12
47.95,-0.29,1.05,0.021
47.96,-0.316,0.894,-0.136
47.97,-0.224,1.132,-0.055
47.98,-0.125,0.825,0.099
47.99,-0.155,0.911,0.143
48.0,-0.37,1.04,-0.058
48.01,-0.297,0.83,-0.144
48.02,-0.225,1.144,-0.021
48.03,-0.073,0.802,0.183
48.04,-0.212,1.085,0.068
48.05,-0.33,0.812,-0.15
48.06,-0.272,1.014,-0.071
48.07,-0.029,1.108,0.057
48.08,-0.073,0.76,0.142
48.09,-0.255,1.05,0.024
48.1,-0.39,0.853,-0.116
48.11,-0.238,1.19,-0.073
48.12,-0.109,0.812,0.099
48.13,-0.158,1.015,0.156
48.14,-0.285,0.922,-0.047
48.15,-0.254,0.947,-0.173
48.16,-0.223,1.037,-0.075
48.17,-0.067,0.827,0.185
48.18,-0.099,1.138,0.067
48.19,-0.355,0.814,-0.117
48.2,-0.267,1.099,-0.138
48.21,-0.18,0.997,0.073
48.22,-0.037,0.904,0.106
48.23,-0.216,0.943,0.042
48.24,-0.305,0.91,-0.11
48.25,-0.151,1.262,-0.08
48.26,-0.034,0.791,0.012
