t,ax,ay,az
0.0,-0.184,0.991,-0.048
0.01,-0.078,1.097,0.048
0.02,-0.138,0.882,0.122
0.03,-0.278,0.854,-0.007
0.04,-0.365,1.185,-0.128
0.05,-0.114,0.873,-0.056
0.06,-0.151,1.108,0.087
0.07,-0.122,0.693,0.118
0.08,-0.377,1.112,-0.029
0.09,-0.252,0.996,-0.144
0.1,-0.201,0.94,-0.047
0.11,-0.123,0.996,0.138
0.12,-0.164,0.789,0.11
0.13,-0.349,1.161,-0.127
0.14,-0.283,0.742,-0.099
0.15,-0.177,1.216,0.038
0.16,-0.011,0.903,0.146
0.17,-0.171,0.917,0.013
0.18,-0.392,0.956,-0.128
0.19,-0.204,0.949,-0.034
0.2,-0.076,1.21,0.037
0.21,-0.064,0.708,0.131
0.22,-0.386,1.097,-0.007
0.23,-0.29,0.861,-0.111
0.24,-0.183,1.161,-0.099
0.25,-0.105,0.869,0.109
0.26,-0.116,0.855,0.119
0.27,-0.36,1.113,-0.042
0.28,-0.162,0.87,-0.171
0.29,-0.274,1.104,-0.063
0.3,-0.068,0.74,0.144
0.31,-0.191,1.137,0.113
0.32,-0.247,0.864,-0.097
0.33,-0.252,1.023,-0.12
0.34,-0.255,1.021,0.025
0.35,-0.003,0.892,0.167
0.36,-0.18,1.018,0.016
0.37,-0.315,0.783,-0.108
0.38,-0.282,1.181,-0.082
0.39,-0.149,0.88,0.052
0.4,-0.062,1.02,0.126
0.41,-0.196,0.837,0.012
0.42,-0.337,1.07,-0.117
0.43,-0.193,1.081,-0.08
0.44,-0.094,0.893,0.052
0.45,-0.134,0.993,0.129
0.46,-0.353,0.833,-0.059
0.47,-0.328,1.195,-0.111
0.48,-0.158,0.847,-0.079
0.49,-0.137,1.014,0.123
0.5,-0.172,0.841,0.115
0.51,-0.317,1.013,-0.047
0.52,-0.291,1.042,-0.129
0.53,-0.18,0.86,-0.006
0.54,-0.131,1.122,0.165
0.55,-0.126,0.764,0.058
0.56,-0.412,1.096,-0.11
0.57,-0.186,0.871,-0.13
0.58,-0.15,1.171,0.082
0.59,-0.084,0.873,0.118
0.6,-0.275,0.825,0.076
0.61,-0.343,1.099,-0.142
0.62,-0.243,0.9,-0.059
0.63,-0.039,1.197,0.051
0.64,-0.071,0.722,0.136
0.65,-0.366,1.044,-0.016
0.66,-0.316,0.907,-0.103
0.67,-0.164,1.075,-0.078
0.68,-0.11,0.966,0.038
0.69,-0.139,0.778,0.131
0.7,-0.406,1.165,-0.046
0.71,-0.188,0.846,-0.164
0.72,-0.219,1.123,-0.044
0.73,-0.073,0.793,0.144
0.74,-0.22,1.11,0.091
0.75,-0.27,0.814,-0.128
0.76,-0.289,1.028,-0.113
0.77,-0.177,1.062,0.045
0.78,-0.052,0.906,0.151
0.79,-0.224,0.996,0.071
0.8,-0.296,0.825,-0.146
0.81,-0.272,1.205,-0.053
0.82,0.002,0.909,0.032
0.83,-0.139,1.055,0.154
0.84,-0.243,0.817,-0.033
0.85,-0.314,1.038,-0.136
0.86,-0.186,1.069,-0.068
0.87,-0.112,0.881,0.096
0.88,-0.176,0.985,0.13
0.89,-0.282,0.838,-0.023
0.9,-0.319,1.183,-0.13
0.91,-0.193,0.82,-0.05
0.92,-0.083,1.026,0.116
0.93,-0.176,0.849,0.137
0.94,-0.303,0.996,-0.113
0.95,-0.323,1.02,-0.111
0.96,-0.16,0.922,-0.022
0.97,-0.113,1.085,0.159
0.98,-0.143,0.711,0.061
0.99,-0.371,1.153,-0.101
1.0,-0.169,0.886,-0.126
1.01,-0.177,1.178,0.053
1.02,-0.061,0.901,0.146
1.03,-0.229,0.839,0.014
1.04,-0.332,1.073,-0.134
1.05,-0.145,0.935,-0.036
1.06,-0.176,1.199,0.031
1.07,-0.046,0.666,0.151
1.08,-0.327,1.098,-0.011
1.09,-0.354,0.914,-0.123
1.1,-0.163,1.022,-0.087
1.11,-0.138,1.002,0.1
1.12,-0.08,0.781,0.078
1.13,-0.396,1.136,-0.023
1.14,-0.243,0.804,-0.148
1.15,-0.223,1.143,-0.034
1.16,-0.078,0.821,0.145
1.17,-0.198,1.026,0.118
1.18,-0.34,0.939,-0.109
1.19,-0.226,0.896,-0.101
1.2,-0.143,1.122,-0.042
1.21,-0.344,0.888,-0.008
1.22,-0.315,1.215,-0.14
1.23,-0.225,0.869,-0.096
1.24,-0.037,1.032,0.096
1.25,-0.151,0.829,0.143
1.26,-0.335,1.053,-0.064
1.27,-0.284,0.964,-0.17
1.28,-0.197,0.923,-0.009
1.29,-0.12,1.068,0.141
1.3,-0.186,0.77,0.098
1.31,-0.368,1.144,-0.097
1.32,-0.215,0.771,-0.115
1.33,-0.171,1.183,-0.001
1.34,-0.092,0.903,0.192
1.35,-0.179,0.899,0.036
1.36,-0.314,0.996,-0.122
1.37,-0.214,0.895,-0.052
1.38,-0.133,1.24,0.047
1.39,-0.068,0.738,0.141
1.4,-0.248,1.027,-0.007
1.41,-0.307,0.832,-0.116
1.42,-0.188,1.155,-0.05
1.43,-0.083,0.98,0.046
1.44,-0.124,0.778,0.146
1.45,-0.292,1.044,-0.025
1.46,-0.287,0.912,-0.108
1.47,-0.198,1.022,-0.061
1.48,-0.065,0.763,0.111
1.49,-0.174,1.147,0.129
1.5,-0.312,0.877,-0.12
1.51,-0.337,1.04,-0.109
1.52,-0.129,0.919,-0.017
1.53,-0.106,1.06,0.193
1.54,-0.145,0.948,0.05
1.55,-0.346,0.868,-0.099
1.56,-0.228,1.093,-0.093
1.57,-0.153,0.955,0.063
1.58,-0.064,1.08,0.088
1.59,-0.195,0.755,0.019
1.6,-0.316,1.059,-0.134
1.61,-0.212,1.008,-0.047
1.62,-0.115,1.01,0.029
1.63,-0.031,0.903,0.135
1.64,-0.306,0.829,-0.033
1.65,-0.352,1.154,-0.109
1.66,-0.162,0.869,-0.093
1.67,-0.106,1.108,0.08
1.68,-0.076,0.709,0.095
1.69,-0.384,1.083,0.009
1.7,-0.282,1.017,-0.126
1.71,-0.188,0.914,-0.057
1.72,-0.131,1.028,0.167
1.73,-0.158,0.764,0.113
1.74,-0.352,1.166,-0.11
1.75,-0.276,0.829,-0.103
1.76,-0.163,1.186,-0.032
1.77,-0.119,0.87,0.162
1.78,-0.211,0.922,0.082
1.79,-0.31,1.016,-0.101
1.8,-0.202,0.875,-0.104
1.81,-0.19,1.214,0.02
1.82,-0.086,0.774,0.148
1.83,-0.203,1.086,0.008
1.84,-0.287,0.804,-0.119
1.85,-0.248,1.104,-0.077
1.86,-0.082,1.016,0.036
1.87,-0.06,0.85,0.159
1.88,-0.316,1.037,0.013
1.89,-0.286,0.866,-0.105
1.9,-0.23,1.182,-0.072
1.91,-0.054,0.773,0.057
1.92,-0.185,1.077,0.125
1.93,-0.302,0.896,-0.042
1.94,-0.271,1.01,-0.139
1.95,-0.195,0.961,-0.063
1.96,-0.1,0.928,0.152
1.97,-0.177,1.091,0.122
1.98,-0.301,0.829,-0.118
1.99,-0.344,1.077,-0.086
2.0,-0.133,0.851,-0.044
2.01,-0.092,1.123,0.174
2.02,-0.158,0.867,0.063
2.03,-0.325,0.928,-0.132
2.04,-0.227,1.032,-0.088
2.05,-0.113,0.984,0.064
2.06,-0.035,1.074,0.127
2.07,-0.202,0.741,0.019
2.08,-0.376,1.093,-0.124
2.09,-0.193,0.974,-0.028
2.1,-0.098,1.134,-0.004
2.11,-0.148,0.798,0.146
2.12,-0.251,0.912,0.006
2.13,-0.392,1.147,-0.118
2.14,-0.14,0.886,-0.079
2.15,-0.131,1.13,0.082
2.16,-0.068,0.653,0.102
2.17,-0.38,1.122,-0.013
2.18,-0.284,0.941,-0.122
2.19,-0.215,1.02,-0.07
2.2,-0.15,0.906,0.118
2.21,-0.144,0.797,0.136
2.22,-0.383,1.208,-0.054
2.23,-0.229,0.802,-0.142
2.24,-0.233,1.108,0.015
2.25,-0.076,0.832,0.157
2.26,-0.176,1.065,0.046
2.27,-0.282,0.904,-0.143
2.28,-0.209,1.077,-0.091
2.29,-0.161,1.098,0.068
2.3,-0.056,0.905,0.107
2.31,-0.223,0.969,0.013
2.32,-0.304,0.797,-0.128
2.33,-0.178,1.245,-0.031
2.34,-0.015,0.857,-0.005
2.35,-0.159,1.009,0.139
2.36,-0.305,0.869,-0.03
2.37,-0.23,1.131,-0.12
2.38,-0.198,0.983,-0.088
2.39,-0.104,0.805,0.118
2.4,-0.245,1.073,0.155
2.41,-0.234,0.868,-0.063
2.42,-0.375,1.139,-0.136
2.43,-0.118,0.793,-0.041
2.44,-0.174,1.121,0.162
2.45,-0.114,0.876,0.094
2.46,-0.306,1.021,-0.126
2.47,-0.271,0.986,-0.134
2.48,-0.238,0.939,0.051
2.49,-0.071,1.141,0.138
2.5,-0.143,0.757,0.032
2.51,-0.358,1.129,-0.121
2.52,-0.253,0.868,-0.086
2.53,-0.115,1.161,0.046
2.54,-0.034,0.871,0.119
2.55,-0.272,0.853,0.003
2.56,-0.368,1.047,-0.108
2.57,-0.165,0.955,-0.072
2.58,-0.126,1.206,0.057
2.59,-0.062,0.677,0.14
2.6,-0.366,1.092,-0.036
2.61,-0.311,0.895,-0.119
2.62,-0.168,1.099,-0.093
2.63,-0.076,0.938,0.056
2.64,-0.178,0.79,0.136
2.65,-0.304,1.149,-0.044
2.66,-0.275,0.864,-0.125
2.67,-0.265,1.101,-0.045
2.68,-0.065,0.764,0.133
2.69,-0.198,1.052,0.125
2.7,-0.33,0.983,-0.097
2.71,-0.269,0.914,-0.143
2.72,-0.18,1.03,-0.0
2.73,-0.058,0.885,0.185
2.74,-0.216,1.107,0.054
2.75,-0.33,0.756,-0.113
2.76,-0.287,1.089,-0.112
2.77,-0.143,0.992,0.099
2.78,-0.049,1.034,0.105
2.79,-0.212,0.868,0.019
2.8,-0.39,0.9,-0.115
2.81,-0.184,1.158,-0.055
2.82,-0.094,0.88,0.036
2.83,-0.087,1.01,0.135
2.84,-0.247,0.786,-0.039
2.85,-0.368,1.113,-0.109
2.86,-0.158,0.941,-0.076
2.87,-0.109,0.986,0.059
2.88,-0.136,0.861,0.117
2.89,-0.355,0.912,-0.01
2.9,-0.287,1.19,-0.125
2.91,-0.148,0.802,-0.068
2.92,-0.137,1.047,0.13
2.93,-0.176,0.778,0.126
2.94,-0.297,1.113,-0.097
2.95,-0.312,0.894,-0.123
2.96,-0.172,0.944,-0.031
2.97,-0.1,1.098,0.193
2.98,-0.173,0.765,0.051
2.99,-0.342,1.094,-0.114
3.0,-0.219,0.847,-0.064
3.01,-0.115,1.287,0.067
3.02,0.005,0.795,0.119
3.03,-0.251,0.899,0.031
3.04,-0.344,0.953,-0.114
3.05,-0.204,1.0,-0.038
3.06,-0.094,1.187,0.012
3.07,-0.124,0.699,0.154
3.08,-0.258,1.084,-0.012
3.09,-0.359,0.878,-0.076
3.1,-0.126,1.159,-0.098
3.11,-0.099,0.78,0.085
3.12,-0.196,1.024,0.124
3.13,-0.353,0.963,-0.023
3.14,-0.207,0.967,-0.166
3.15,-0.174,0.976,-0.054
3.16,-0.11,0.833,0.137
3.17,-0.216,1.128,0.129
3.18,-0.263,0.819,-0.125
3.19,-0.236,1.096,-0.113
3.2,-0.199,0.904,0.012
3.21,-0.08,1.048,0.174
3.22,-0.187,0.922,0.033
3.23,-0.315,0.915,-0.115
3.24,-0.278,1.095,-0.098
3.25,-0.08,0.943,0.041
3.26,-0.088,1.079,0.159
3.27,-0.183,0.783,-0.002
3.28,-0.347,1.099,-0.133
3.29,-0.228,1.006,-0.046
3.3,-0.064,1.077,0.046
3.31,-0.123,0.843,0.111
3.32,-0.312,0.872,-0.035
3.33,-0.326,1.188,-0.109
3.34,-0.191,0.84,-0.108
3.35,-0.155,1.052,0.122
3.36,-0.123,0.734,0.112
3.37,-0.357,1.092,-0.056
3.38,-0.332,0.954,-0.106
3.39,-0.202,0.966,-0.034
3.4,-0.097,0.989,0.124
3.41,-0.196,0.806,0.117
3.42,-0.346,1.202,-0.096
3.43,-0.216,0.779,-0.163
3.44,-0.155,1.129,0.001
3.45,-0.104,0.863,0.182
3.46,-0.235,0.99,0.077
3.47,-0.303,0.947,-0.161
3.48,-0.216,0.878,-0.099
3.49,-0.215,1.206,0.074
3.5,0.004,0.749,0.12
3.51,-0.261,1.074,0.019
3.52,-0.261,0.764,-0.16
3.53,-0.252,1.161,-0.014
3.54,-0.036,0.959,0.031
3.55,-0.131,0.902,0.138
3.56,-0.31,0.988,-0.029
3.57,-0.283,0.901,-0.084
3.58,-0.237,1.172,-0.074
3.59,-0.094,0.789,0.127
3.6,-0.189,1.085,0.129
3.61,-0.328,0.887,-0.061
3.62,-0.263,1.03,-0.147
3.63,-0.173,0.975,-0.059
3.64,-0.114,0.93,0.16
3.65,-0.205,1.036,0.085
3.66,-0.264,0.859,-0.125
3.67,-0.248,1.142,-0.115
3.68,-0.153,0.895,0.038
3.69,-0.068,1.091,0.167
3.7,-0.163,0.796,0.022
3.71,-0.348,0.994,-0.109
3.72,-0.266,1.108,-0.052
3.73,-0.098,0.952,0.017
3.74,-0.051,0.958,0.147
3.75,-0.236,0.781,-0.018
3.76,-0.352,1.163,-0.143
3.77,-0.217,0.919,-0.05
3.78,-0.135,1.064,0.082
3.79,-0.1,0.758,0.11
3.8,-0.303,0.979,-0.025
3.81,-0.34,1.11,-0.115
3.82,-0.157,0.852,-0.067
3.83,-0.124,1.052,0.117
3.84,-0.178,0.723,0.126
3.85,-0.376,1.171,-0.094
3.86,-0.246,0.868,-0.148
3.87,-0.162,1.061,0.012
3.88,-0.139,0.917,0.152
3.89,-0.138,0.87,0.1
3.9,-0.36,1.1,-0.148
3.91,-0.249,0.768,-0.076
3.92,-0.192,1.261,0.064
3.93,0.011,0.775,0.098
3.94,-0.272,1.06,-0.001
3.95,-0.348,0.81,-0.108
3.96,-0.198,1.183,-0.044
3.97,-0.062,0.944,0.065
3.98,-0.075,0.84,0.136
3.99,-0.368,1.031,-0.038
4.0,-0.249,0.938,-0.111
4.01,-0.139,1.126,-0.086
4.02,-0.147,0.751,0.103
4.03,-0.198,1.052,0.147
4.04,-0.301,0.951,-0.048
4.05,-0.293,1.06,-0.181
4.06,-0.173,0.937,-0.032
4.07,-0.107,0.934,0.175
4.08,-0.178,1.046,0.082
4.09,-0.335,0.79,-0.127
4.1,-0.221,1.103,-0.132
4.11,-0.207,0.959,0.066
4.12,-0.026,1.053,0.101
4.13,-0.207,0.803,0.027
4.14,-0.335,1.006,-0.108
4.15,-0.258,1.093,-0.068
4.16,-0.069,0.97,0.026
4.17,-0.118,0.969,0.126
4.18,-0.281,0.774,-0.029
4.19,-0.324,1.186,-0.095
4.2,-0.142,0.944,-0.082
4.21,-0.138,1.006,0.086
4.22,-0.172,0.772,0.154
4.23,-0.291,1.021,-0.016
4.24,-0.293,1.113,-0.158
4.25,-0.198,0.789,-0.075
4.26,-0.136,1.04,0.12
4.27,-0.138,0.802,0.143
4.28,-0.295,1.144,-0.11
4.29,-0.323,0.784,-0.175
4.3,-0.213,1.091,0.0
4.31,-0.071,1.037,0.161
4.32,-0.112,0.829,0.049
4.33,-0.366,1.066,-0.094
4.34,-0.237,0.852,-0.093
4.35,-0.187,1.267,0.024
4.36,-0.028,0.771,0.123
4.37,-0.232,1.003,0.034
4.38,-0.302,0.853,-0.131
4.39,-0.18,1.068,-0.067
4.4,-0.109,1.09,0.029
4.41,-0.083,0.751,0.157
4.42,-0.284,1.056,0.005
4.43,-0.336,0.822,-0.151
4.44,-0.18,1.197,-0.05
4.45,-0.069,0.842,0.059
4.46,-0.154,0.923,0.131
4.47,-0.281,0.977,-0.03
4.48,-0.293,1.013,-0.124
4.49,-0.197,1.011,-0.063
4.5,-0.091,0.794,0.129
4.51,-0.193,1.091,0.129
4.52,-0.306,0.876,-0.073
4.53,-0.286,1.122,-0.129
4.54,-0.185,0.883,-0.023
4.55,-0.159,0.99,0.18
4.56,-0.145,0.978,0.086
4.57,-0.279,0.9,-0.125
4.58,-0.261,1.057,-0.087
4.59,-0.171,0.947,0.05
4.6,-0.044,1.158,0.143
4.61,-0.148,0.731,0.008
4.62,-0.354,1.032,-0.131
4.63,-0.249,1.047,-0.01
4.64,-0.052,1.086,-0.006
4.65,-0.125,0.88,0.15
4.66,-0.261,0.809,0.002
4.67,-0.365,1.189,-0.082
4.68,-0.139,0.888,-0.079
4.69,-0.109,1.114,0.061
4.7,-0.079,0.725,0.112
4.71,-0.39,1.058,-0.01
4.72,-0.272,1.012,-0.134
4.73,-0.172,0.901,-0.056
4.74,-0.123,1.017,0.098
4.75,-0.19,0.768,0.14
4.76,-0.319,1.101,-0.082
4.77,-0.216,0.781,-0.116
4.78,-0.24,1.179,-0.009
4.79,-0.07,0.853,0.191
4.8,-0.177,1.041,0.048
4.81,-0.302,0.826,-0.133
4.82,-0.271,0.985,-0.054
4.83,-0.108,1.149,0.028
4.84,-0.066,0.821,0.143
4.85,-0.25,1.028,0.049
4.86,-0.341,0.788,-0.138
4.87,-0.251,1.242,-0.042
4.88,-0.1,0.904,0.008
4.89,-0.084,0.887,0.136
4.9,-0.21,0.906,0.004
4.91,-0.332,1.025,-0.109
4.92,-0.193,1.099,-0.078
4.93,-0.121,0.834,0.082
4.94,-0.128,1.008,0.107
4.95,-0.35,0.869,-0.005
4.96,-0.269,1.219,-0.15
4.97,-0.227,0.854,-0.077
4.98,-0.116,0.965,0.106
4.99,-0.163,0.966,0.156
5.0,-0.301,0.907,-0.079
5.01,-0.275,1.065,-0.114
5.02,-0.173,0.86,-0.027
5.03,-0.168,1.112,0.133
5.04,-0.11,0.803,0.089
5.05,-0.375,1.084,-0.104
5.06,-0.254,0.836,-0.137
5.07,-0.173,1.105,0.078
5.08,-0.02,1.054,0.1
5.09,-0.223,0.761,0.045
5.1,-0.338,1.104,-0.123
5.11,-0.215,0.895,-0.073
5.12,-0.076,1.206,-0.004
5.13,-0.077,0.672,0.131
5.14,-0.231,0.936,-0.01
5.15,-0.373,1.015,-0.069
5.16,-0.147,0.99,-0.096
5.17,-0.149,1.104,0.065
5.18,-0.042,0.712,0.141
5.19,-0.315,1.121,-0.04
5.2,-0.261,0.835,-0.125
5.21,-0.216,1.119,-0.101
5.22,-0.073,0.844,0.105
5.23,-0.092,0.914,0.106
5.24,-0.389,1.084,-0.013
5.25,-0.266,0.847,-0.143
5.26,-0.231,1.099,-0.045
5.27,-0.082,0.807,0.136
5.28,-0.186,1.102,0.116
5.29,-0.268,0.884,-0.092
5.3,-0.285,1.029,-0.126
5.31,-0.164,0.943,-0.027
5.32,-0.08,0.95,0.164
5.33,-0.227,1.063,0.063
5.34,-0.274,0.804,-0.121
5.35,-0.262,1.114,-0.078
5.36,-0.178,0.945,0.082
5.37,-0.069,1.1,0.101
5.38,-0.189,0.814,0.033
5.39,-0.329,1.031,-0.124
5.4,-0.226,1.081,-0.073
5.41,-0.099,0.974,0.022
5.42,-0.059,0.966,0.134
5.43,-0.243,0.799,-0.018
5.44,-0.353,1.157,-0.096
5.45,-0.207,0.871,-0.112
5.46,-0.15,1.081,0.113
5.47,-0.087,0.786,0.095
5.48,-0.372,0.955,-0.027
5.49,-0.339,1.028,-0.127
5.5,-0.15,0.844,-0.079
5.51,-0.072,1.091,0.113
5.52,-0.119,0.744,0.107
5.53,-0.352,1.147,-0.066
5.54,-0.295,0.812,-0.117
5.55,-0.157,1.053,-0.041
5.56,-0.147,0.987,0.159
5.57,-0.193,0.851,0.06
5.58,-0.24,0.995,-0.071
5.59,-0.146,0.975,-0.111
5.6,-0.198,1.158,0.015
5.61,-0.077,0.78,0.159
5.62,-0.207,1.095,0.035
5.63,-0.359,0.787,-0.151
5.64,-0.234,1.127,-0.056
5.65,-0.073,1.013,0.019
5.66,-0.076,0.913,0.158
5.67,-0.241,0.967,0.025
5.68,-0.291,0.897,-0.124
5.69,-0.232,1.178,-0.027
5.7,-0.05,0.852,0.045
5.71,-0.155,1.019,0.144
5.72,-0.276,0.857,-0.02
5.73,-0.335,1.102,-0.137
5.74,-0.204,0.988,-0.046
5.75,-0.069,0.893,0.107
5.76,-0.151,0.984,0.114
5.77,-0.353,0.836,-0.051
5.78,-0.326,1.192,-0.105
5.79,-0.103,0.862,-0.047
5.8,-0.165,1.07,0.125
5.81,-0.184,0.819,0.09
5.82,-0.32,1.058,-0.056
5.83,-0.253,1.008,-0.14
5.84,-0.112,0.923,-0.002
5.85,-0.153,1.075,0.129
5.86,-0.213,0.816,0.094
5.87,-0.325,1.161,-0.125
5.88,-0.251,0.867,-0.124
5.89,-0.17,1.123,0.014
5.9,-0.117,0.852,0.153
5.91,-0.19,0.939,0.025
5.92,-0.353,1.021,-0.124
5.93,-0.23,0.831,-0.091
5.94,-0.122,1.266,0.107
5.95,-0.053,0.751,0.104
5.96,-0.283,1.068,-0.032
5.97,-0.369,0.841,-0.103
5.98,-0.144,1.115,-0.074
5.99,-0.119,0.987,0.101
6.0,-0.093,0.817,0.091
6.01,-0.368,1.093,-0.06
6.02,-0.234,0.827,-0.137
6.03,-0.133,1.168,-0.035
6.04,-0.093,0.792,0.116
6.05,-0.254,1.04,0.106
6.06,-0.268,0.913,-0.084
6.07,-0.241,1.008,-0.082
6.08,-0.154,1.071,-0.025
6.09,-0.073,0.855,0.186
6.1,-0.216,1.093,0.04
6.11,-0.334,0.788,-0.107
6.12,-0.262,1.164,-0.123
6.13,-0.256,0.93,0.118
6.14,-0.1,0.967,0.114
6.15,-0.233,0.908,0.018
6.16,-0.315,0.939,-0.108
6.17,-0.217,1.13,-0.063
6.18,-0.065,0.868,0.035
6.19,-0.185,1.032,0.133
6.2,-0.202,0.832,-0.018
6.21,-0.403,1.177,-0.148
6.22,-0.177,0.873,-0.071
6.23,-0.077,1.015,0.118
6.24,-0.178,0.927,0.131
6.25,-0.328,0.91,-0.071
6.26,-0.347,1.146,-0.103
6.27,-0.117,0.868,-0.019
6.28,-0.143,1.142,0.121
6.29,-0.209,0.764,0.1
6.3,-0.335,1.107,-0.094
6.31,-0.226,0.916,-0.107
6.32,-0.151,1.009,-0.002
6.33,-0.123,1.001,0.181
6.34,-0.154,0.786,0.017
6.35,-0.392,1.089,-0.095
6.36,-0.171,0.801,-0.092
6.37,-0.152,1.292,0.063
6.38,-0.041,0.756,0.116
6.39,-0.232,0.974,-0.012
6.4,-0.346,0.856,-0.147
6.41,-0.168,1.096,-0.059
6.42,-0.034,0.975,0.083
6.43,-0.171,0.814,0.126
6.44,-0.386,1.113,-0.021
6.45,-0.234,0.859,-0.139
6.46,-0.209,1.128,-0.057
6.47,-0.131,0.73,0.13
6.48,-0.176,1.041,0.112
6.49,-0.309,0.947,-0.095
6.5,-0.257,0.912,-0.111
6.51,-0.169,1.065,0.014
6.52,-0.068,0.875,0.179
6.53,-0.26,1.091,0.055
6.54,-0.299,0.774,-0.127
6.55,-0.233,1.18,-0.089
6.56,-0.139,0.975,0.044
6.57,-0.039,0.96,0.138
6.58,-0.236,0.914,0.005
6.59,-0.307,0.92,-0.116
6.6,-0.191,1.136,-0.062
6.61,-0.044,0.851,0.04
6.62,-0.172,1.021,0.139
6.63,-0.303,0.823,-0.024
6.64,-0.333,1.148,-0.116
6.65,-0.186,0.906,-0.067
6.66,-0.086,0.951,0.1
6.67,-0.19,0.911,0.11
6.68,-0.317,0.936,-0.07
6.69,-0.315,1.092,-0.115
6.7,-0.155,0.815,-0.022
6.71,-0.098,1.144,0.175
6.72,-0.174,0.779,0.038
6.73,-0.327,1.049,-0.099
6.74,-0.252,0.979,-0.115
6.75,-0.151,1.088,0.045
6.76,-0.005,0.922,0.084
6.77,-0.277,0.781,0.052
6.78,-0.339,1.131,-0.123
6.79,-0.224,0.916,-0.055
6.8,-0.168,1.128,0.058
6.81,-0.101,0.713,0.177
6.82,-0.286,1.008,-0.021
6.83,-0.344,0.997,-0.132
6.84,-0.142,0.93,-0.091
6.85,-0.095,1.069,0.081
6.86,-0.098,0.709,0.111
6.87,-0.386,1.182,-0.013
6.88,-0.268,0.807,-0.158
6.89,-0.187,1.09,-0.042
6.9,-0.145,0.923,0.16
6.91,-0.148,0.922,0.07
6.92,-0.333,1.028,-0.113
6.93,-0.192,0.839,-0.073
6.94,-0.19,1.195,0.015
6.95,-0.031,0.746,0.13
6.96,-0.294,1.059,0.053
6.97,-0.26,0.802,-0.135
6.98,-0.31,1.124,-0.065
6.99,-0.121,1.021,0.027
7.0,-0.063,0.852,0.163
7.01,-0.274,1.042,-0.0
7.02,-0.322,0.8,-0.116
7.03,-0.211,1.194,-0.062
7.04,-0.042,0.846,0.074
7.05,-0.108,1.02,0.119
7.06,-0.316,0.902,-0.028
7.07,-0.321,1.04,-0.152
7.08,-0.186,1.021,-0.054
7.09,-0.07,0.825,0.113
7.1,-0.224,1.031,0.111
7.11,-0.333,0.845,-0.048
7.12,-0.287,1.169,-0.121
7.13,-0.188,0.808,-0.001
7.14,-0.11,0.996,0.158
7.15,-0.207,0.922,0.07
7.16,-0.303,0.943,-0.122
7.17,-0.221,1.035,-0.147
7.18,-0.17,0.952,0.066
7.19,-0.035,1.068,0.099
7.2,-0.227,0.789,0.02
7.21,-0.418,1.083,-0.132
7.22,-0.114,0.916,-0.057
7.23,-0.18,1.15,0.096
7.24,-0.13,0.703,0.147
7.25,-0.273,1.035,-0.047
7.26,-0.283,0.996,-0.162
7.27,-0.251,0.915,-0.016
7.28,-0.101,1.038,0.096
7.29,-0.153,0.793,0.141
7.3,-0.319,1.146,-0.134
7.31,-0.297,0.727,-0.081
7.32,-0.218,1.168,0.024
7.33,-0.062,0.945,0.137
7.34,-0.199,0.875,0.042
7.35,-0.35,0.982,-0.12
7.36,-0.215,0.926,-0.081
7.37,-0.101,1.257,0.013
7.38,-0.085,0.635,0.111
7.39,-0.267,1.037,0.05
7.4,-0.302,0.888,-0.114
7.41,-0.186,1.124,-0.109
7.42,-0.183,0.917,0.064
7.43,-0.067,0.787,0.14
7.44,-0.332,1.091,0.004
7.45,-0.266,0.899,-0.116
7.46,-0.274,1.118,-0.075
7.47,-0.051,0.758,0.091
7.48,-0.215,1.082,0.135
7.49,-0.287,0.912,-0.081
7.5,-0.32,0.918,-0.127
7.51,-0.182,0.983,-0.023
7.52,-0.115,0.865,0.126
7.53,-0.201,1.065,0.089
7.54,-0.298,0.806,-0.126
7.55,-0.303,1.092,-0.098
7.56,-0.172,0.913,0.06
7.57,-0.039,1.031,0.163
7.58,-0.199,0.862,0.068
7.59,-0.358,0.966,-0.1
7.6,-0.189,1.11,-0.108
7.61,-0.101,0.976,0.018
7.62,-0.158,1.045,0.15
7.63,-0.224,0.766,-0.019
7.64,-0.331,1.151,-0.093
7.65,-0.141,0.951,-0.072
7.66,-0.171,1.033,0.087
7.67,-0.088,0.822,0.144
7.68,-0.283,0.944,-0.037
7.69,-0.345,1.167,-0.137
7.7,-0.177,0.822,-0.088
7.71,-0.085,1.079,0.121
7.72,-0.145,0.73,0.116
7.73,-0.371,1.103,-0.085
7.74,-0.297,0.914,-0.114
7.75,-0.194,0.97,-0.025
7.76,-0.054,0.968,0.135
7.77,-0.223,0.852,0.099
7.78,-0.348,1.135,-0.125
7.79,-0.196,0.793,-0.142
7.8,-0.21,1.23,0.048
7.81,0.007,0.846,0.132
7.82,-0.303,0.975,0.038
7.83,-0.295,0.908,-0.136
7.84,-0.189,1.054,-0.037
7.85,-0.129,1.137,0.011
7.86,-0.123,0.662,0.156
7.87,-0.32,1.114,-0.008
7.88,-0.293,0.889,-0.132
7.89,-0.195,1.113,-0.087
7.9,-0.105,0.827,0.104
7.91,-0.099,0.895,0.145
7.92,-0.386,1.07,-0.01
7.93,-0.263,0.895,-0.169
7.94,-0.295,1.064,-0.032
7.95,-0.065,0.783,0.102
7.96,-0.205,1.118,0.135
7.97,-0.335,0.82,-0.125
7.98,-0.255,0.989,-0.129
7.99,-0.167,1.009,0.011
8.0,-0.098,0.985,0.173
8.01,-0.197,0.998,0.055
8.02,-0.288,0.84,-0.124
8.03,-0.214,1.172,-0.078
8.04,-0.141,0.941,0.028
8.05,-0.09,1.03,0.106
8.06,-0.196,0.788,0.02
8.07,-0.358,1.161,-0.084
8.08,-0.134,0.969,-0.065
8.09,-0.164,0.997,0.07
8.1,-0.087,0.844,0.179
8.11,-0.31,0.923,-0.02
8.12,-0.302,1.18,-0.13
8.13,-0.211,0.835,-0.098
8.14,-0.109,1.067,0.099
8.15,-0.122,0.785,0.145
8.16,-0.313,1.111,-0.09
8.17,-0.35,0.861,-0.143
8.18,-0.154,0.973,-0.024
8.19,-0.125,1.047,0.171
8.2,-0.11,0.796,0.067
8.21,-0.381,1.112,-0.109
8.22,-0.174,0.771,-0.139
8.23,-0.229,1.256,0.069
8.24,-0.032,0.792,0.139
8.25,-0.191,0.956,0.038
8.26,-0.338,0.955,-0.109
8.27,-0.229,0.987,-0.038
8.28,-0.152,1.137,0.041
8.29,-0.014,0.667,0.113
8.3,-0.301,1.092,0.001
8.31,-0.327,0.864,-0.122
8.32,-0.177,1.161,-0.081
8.33,-0.123,0.884,0.057
8.34,-0.104,0.871,0.143
8.35,-0.364,1.043,0.019
8.36,-0.268,0.934,-0.156
8.37,-0.265,1.074,-0.062
8.38,-0.038,0.761,0.139
8.39,-0.208,1.109,0.117
8.4,-0.292,0.873,-0.055
8.41,-0.317,1.042,-0.167
8.42,-0.199,0.888,-0.028
8.43,-0.107,0.919,0.136
8.44,-0.197,1.065,0.106
8.45,-0.365,0.83,-0.119
8.46,-0.267,1.055,-0.085
8.47,-0.168,0.941,0.009
8.48,-0.093,1.117,0.12
8.49,-0.151,0.805,0.061
8.5,-0.312,0.979,-0.149
8.51,-0.209,0.971,-0.106
8.52,-0.104,1.03,0.055
8.53,-0.088,1.064,0.112
8.54,-0.236,0.745,0.008
8.55,-0.344,1.142,-0.107
8.56,-0.181,0.961,-0.062
8.57,-0.137,1.097,0.037
8.58,-0.126,0.768,0.141
8.59,-0.316,0.977,0.003
8.6,-0.293,1.085,-0.158
8.61,-0.167,0.885,-0.083
8.62,-0.091,1.1,0.086
8.63,-0.124,0.739,0.11
8.64,-0.365,1.147,-0.052
8.65,-0.277,0.872,-0.12
8.66,-0.216,1.047,-0.043
8.67,-0.113,0.924,0.138
8.68,-0.203,0.876,0.117
8.69,-0.376,1.09,-0.095
8.7,-0.22,0.775,-0.119
8.71,-0.197,1.221,-0.007
8.72,-0.073,0.839,0.142
8.73,-0.186,0.995,0.05
8.74,-0.335,0.853,-0.098
8.75,-0.212,1.008,-0.085
8.76,-0.185,1.177,0.073
8.77,-0.039,0.825,0.102
8.78,-0.233,1.044,0.005
8.79,-0.376,0.775,-0.104
8.8,-0.199,1.187,-0.072
8.81,-0.158,0.844,0.031
8.82,-0.067,0.977,0.166
8.83,-0.25,0.912,-0.034
8.84,-0.359,0.948,-0.12
8.85,-0.178,1.091,-0.075
8.86,-0.055,0.809,0.068
8.87,-0.204,1.012,0.136
8.88,-0.279,0.89,-0.072
8.89,-0.376,1.122,-0.124
8.9,-0.168,0.818,-0.059
8.91,-0.103,1.15,0.144
8.92,-0.193,0.852,0.064
8.93,-0.308,0.986,-0.094
8.94,-0.197,0.997,-0.113
8.95,-0.148,0.959,0.024
8.96,-0.115,1.056,0.153
8.97,-0.211,0.769,0.043
8.98,-0.385,1.164,-0.097
8.99,-0.209,0.872,-0.124
9.0,-0.154,1.161,0.03
9.01,-0.061,0.824,0.131
9.02,-0.263,0.91,0.054
9.03,-0.279,1.042,-0.135
9.04,-0.194,0.912,-0.069
9.05,-0.129,1.21,0.087
9.06,-0.052,0.742,0.096
9.07,-0.332,1.084,-0.01
9.08,-0.342,0.857,-0.115
9.09,-0.172,1.131,-0.043
9.1,-0.078,1.002,0.056
9.11,-0.134,0.824,0.116
9.12,-0.373,1.107,-0.047
9.13,-0.232,0.895,-0.106
9.14,-0.168,1.175,-0.054
9.15,-0.052,0.747,0.095
9.16,-0.243,1.042,0.13
9.17,-0.305,0.936,-0.087
9.18,-0.224,0.949,-0.147
9.19,-0.212,1.062,0.006
9.2,-0.077,0.821,0.15
9.21,-0.19,1.086,0.056
9.22,-0.29,0.795,-0.113
9.23,-0.23,1.133,-0.107
9.24,-0.072,0.952,0.031
9.25,-0.091,1.035,0.101
9.26,-0.254,0.804,0.007
9.27,-0.34,1.081,-0.102
9.28,-0.165,1.041,-0.076
9.29,-0.097,0.936,0.054
9.3,-0.136,0.942,0.143
9.31,-0.313,0.894,-0.009
9.32,-0.321,1.187,-0.172
9.33,-0.23,0.783,-0.072
9.34,-0.084,1.087,0.109
9.35,-0.198,0.845,0.146
9.36,-0.319,1.017,-0.088
9.37,-0.267,0.997,-0.12
9.38,-0.2,0.903,-0.042
9.39,-0.076,1.078,0.169
9.4,-0.166,0.757,0.054
9.41,-0.366,1.117,-0.104
9.42,-0.214,0.797,-0.106
9.43,-0.194,1.187,0.051
9.44,-0.052,0.84,0.117
9.45,-0.221,0.871,0.055
9.46,-0.332,1.036,-0.134
9.47,-0.226,0.914,-0.035
9.48,-0.1,1.208,0.031
9.49,-0.057,0.731,0.139
9.5,-0.324,1.047,-0.023
9.51,-0.318,0.882,-0.097
9.52,-0.166,1.126,-0.083
9.53,-0.083,0.931,0.073
9.54,-0.159,0.794,0.156
9.55,-0.401,1.19,-0.087
9.56,-0.163,0.88,-0.053
9.57,-0.09,1.087,0.064
9.58,-0.092,0.814,0.131
9.59,-0.387,1.114,-0.039
9.6,-0.291,0.937,-0.126
9.61,-0.187,0.973,-0.049
9.62,-0.136,0.991,0.108
9.63,-0.176,0.771,0.131
9.64,-0.342,1.207,-0.049
9.65,-0.224,0.821,-0.166
9.66,-0.213,1.142,-0.025
9.67,-0.08,0.805,0.148
9.68,-0.2,0.983,0.087
9.69,-0.298,0.963,-0.107
9.7,-0.263,0.928,-0.11
9.71,-0.187,1.19,0.067
9.72,-0.027,0.787,0.122
9.73,-0.242,1.059,0.022
9.74,-0.339,0.821,-0.113
9.75,-0.213,1.175,-0.099
9.76,-0.098,0.934,0.038
9.77,-0.045,0.881,0.143
9.78,-0.32,1.006,0.008
9.79,-0.324,0.875,-0.126
9.8,-0.25,1.154,-0.07
9.81,-0.061,0.796,0.094
9.82,-0.21,1.106,0.132
9.83,-0.281,0.869,-0.041
9.84,-0.312,1.085,-0.165
9.85,-0.142,0.919,-0.042
9.86,-0.083,0.913,0.097
9.87,-0.211,1.018,0.09
9.88,-0.347,0.881,-0.032
9.89,-0.238,1.136,-0.133
9.9,-0.189,0.849,-0.019
9.91,-0.141,1.084,0.141
9.92,-0.166,0.872,0.068
9.93,-0.304,0.999,-0.123
9.94,-0.247,1.002,-0.126
9.95,-0.133,1.008,0.045
9.96,-0.079,1.1,0.144
9.97,-0.162,0.725,-0.005
9.98,-0.393,1.123,-0.098
9.99,-0.21,0.89,-0.048
10.0,-0.101,1.164,0.065
10.01,-0.075,0.848,0.116
10.02,-0.287,0.916,-0.008
10.03,-0.398,1.027,-0.102
10.04,-0.12,0.959,-0.044
10.05,-0.086,1.152,0.072
10.06,-0.149,0.663,0.109
10.07,-0.361,1.147,-0.005
10.08,-0.231,0.947,-0.133
10.09,-0.177,0.991,-0.072
10.1,-0.194,0.89,0.167
10.11,-0.139,0.877,0.128
10.12,-0.352,1.126,-0.101
10.13,-0.238,0.785,-0.09
10.14,-0.234,1.214,0.006
10.15,-0.083,0.789,0.161
10.16,-0.161,0.994,0.025
10.17,-0.302,0.905,-0.105
10.18,-0.217,1.014,-0.093
10.19,-0.166,1.135,0.035
10.2,-0.016,0.76,0.124
10.21,-0.285,1.042,0.024
10.22,-0.327,0.808,-0.121
10.23,-0.178,1.211,-0.087
10.24,-0.099,0.87,0.072
10.25,-0.119,0.953,0.142
10.26,-0.262,0.957,-0.015
10.27,-0.356,0.953,-0.141
10.28,-0.178,1.083,-0.053
10.29,-0.079,0.826,0.097
10.3,-0.186,1.06,0.113
10.31,-0.301,0.84,-0.067
10.32,-0.317,1.146,-0.109
10.33,-0.161,0.908,-0.054
10.34,-0.098,0.927,0.146
10.35,-0.21,0.952,0.109
10.36,-0.346,0.933,-0.082
10.37,-0.196,1.096,-0.129
10.38,-0.146,0.885,0.006
10.39,-0.098,1.079,0.146
10.4,-0.195,0.813,0.062
10.41,-0.38,1.104,-0.122
10.42,-0.209,0.865,-0.077
10.43,-0.063,1.166,0.072
10.44,-0.127,0.87,0.141
10.45,-0.341,0.917,-0.006
10.46,-0.26,1.062,-0.129
10.47,-0.103,0.917,-0.085
10.48,-0.101,1.137,0.101
10.49,-0.414,0.713,0.195
10.5,-0.393,1.101,-0.058
10.51,-0.216,0.91,-0.137
10.52,-0.115,1.115,-0.057
10.53,-0.135,0.892,0.12
10.54,-0.193,0.788,0.15
10.55,-0.254,1.181,-0.092
10.56,-0.248,0.825,-0.146
10.57,-0.212,1.163,-0.006
10.58,-0.315,0.845,0.298
10.59,-0.222,1.047,0.045
10.6,-0.338,0.885,-0.151
10.61,-0.133,0.965,-0.125
10.62,-0.123,1.12,0.044
10.63,-0.146,0.779,0.215
10.64,-0.276,1.062,0.003
10.65,-0.322,0.822,-0.122
10.66,-0.189,1.19,-0.071
10.67,-0.221,0.876,0.175
10.68,-0.122,0.928,0.141
10.69,-0.327,0.959,-0.043
10.7,-0.218,0.969,-0.159
10.71,-0.12,1.137,-0.073
10.72,-0.139,0.754,0.127
10.73,-0.214,1.051,0.121
10.74,-0.325,0.881,-0.09
10.75,-0.211,1.143,-0.152
10.76,-0.157,0.944,-0.011
10.77,-0.092,0.896,0.169
10.78,-0.214,0.992,0.078
10.79,-0.273,0.889,-0.136
10.8,-0.285,1.136,-0.094
10.81,-0.134,0.847,0.022
10.82,-0.094,1.095,0.173
10.83,-0.254,0.765,-0.031
10.84,-0.32,1.054,-0.136
10.85,-0.112,1.039,-0.049
10.86,-0.11,0.973,0.091
10.87,-0.192,0.915,0.172
10.88,-0.308,0.833,-0.027
10.89,-0.182,1.26,-0.158
10.9,-0.177,0.885,-0.058
10.91,-0.51,0.993,0.192
10.92,-0.147,0.818,0.132
10.93,-0.33,1.055,-0.139
10.94,-0.242,0.993,-0.176
10.95,-0.226,0.933,0.012
10.96,-0.097,1.053,0.223
10.97,-0.141,0.76,0.016
10.98,-0.388,1.125,-0.13
10.99,-0.228,0.856,-0.084
11.0,-0.03,1.212,0.013
11.01,-0.117,0.818,0.15
11.02,-0.297,0.919,-0.009
11.03,-0.304,1.099,-0.097
11.04,-0.156,0.905,-0.092
11.05,-0.161,1.072,0.118
11.06,-0.142,0.742,0.156
11.07,-0.333,1.179,-0.097
11.08,-0.23,0.838,-0.156
11.09,-0.194,1.057,-0.08
11.1,-0.116,0.937,0.172
11.11,-0.134,0.842,0.075
11.12,-0.329,1.114,-0.101
11.13,-0.256,0.854,-0.089
11.14,-0.201,1.232,-0.018
11.15,-0.084,0.781,0.197
11.16,-0.214,1.043,0.016
11.17,-0.323,0.849,-0.19
11.18,-0.218,1.049,-0.068
11.19,-0.06,1.07,0.021
11.2,-0.063,0.7,0.13
11.21,-0.309,1.075,0.004
11.22,-0.361,0.842,-0.102
11.23,-0.169,1.145,-0.049
11.24,-0.087,0.776,0.094
11.25,-0.198,1.047,0.127
11.26,-0.33,0.905,-0.084
11.27,-0.23,1.097,-0.143
11.28,-0.19,0.959,-0.002
11.29,-0.106,0.865,0.16
11.3,-0.217,1.051,0.089
11.31,-0.301,0.827,-0.163
11.32,-0.243,1.155,-0.104
11.33,-0.159,0.909,0.051
11.34,-0.079,1.086,0.129
11.35,-0.225,0.816,-0.013
11.36,-0.349,0.969,-0.116
11.37,-0.13,1.07,-0.106
11.38,-0.126,0.948,0.118
11.39,-0.149,0.966,0.133
11.4,-0.285,0.792,-0.016
11.41,-0.327,1.206,-0.137
11.42,-0.138,0.906,-0.055
11.43,-0.265,0.996,0.129
11.44,-0.198,0.87,0.141
11.45,-0.301,1.012,-0.125
11.46,-0.271,1.053,-0.136
11.47,-0.224,0.883,0.04
11.48,-0.042,1.109,0.132
11.49,-0.164,0.727,0.019
11.5,-0.389,1.104,-0.116
11.51,-0.217,0.974,-0.059
11.52,-0.078,1.116,0.025
11.53,-0.153,0.842,0.153
11.54,-0.306,0.891,-0.0
11.55,-0.316,1.153,-0.12
11.56,-0.208,0.874,-0.083
11.57,-0.125,1.04,0.058
11.58,-0.155,0.764,0.168
11.59,-0.275,1.123,-0.095
11.6,-0.349,0.866,-0.144
11.61,-0.205,0.954,-0.028
11.62,-0.123,1.059,0.173
11.63,-0.142,0.823,0.083
11.64,-0.337,1.082,-0.15
11.65,-0.231,0.759,-0.08
11.66,-0.18,1.28,0.061
11.67,-0.011,0.838,0.107
11.68,-0.233,0.913,0.006
11.69,-0.318,0.924,-0.148
11.7,-0.199,1.021,-0.066
11.71,-0.09,1.163,0.045
11.72,-0.091,0.674,0.134
11.73,-0.331,1.102,-0.016
11.74,-0.287,0.882,-0.066
11.75,-0.228,1.152,-0.087
11.76,-0.103,0.824,0.08
11.77,-0.167,0.904,0.141
11.78,-0.331,1.078,-0.082
11.79,-0.272,0.875,-0.152
11.8,-0.286,1.121,-0.01
11.81,-0.054,0.794,0.169
11.82,-0.208,1.095,0.064
11.83,-0.27,0.813,-0.148
11.84,-0.263,1.038,-0.099
11.85,-0.197,1.012,0.028
11.86,-0.032,0.912,0.151
11.87,-0.206,0.97,0.001
11.88,-0.346,0.793,-0.08
11.89,-0.19,1.275,-0.022
11.9,-0.033,0.875,0.022
11.91,-0.177,0.979,0.163
11.92,-0.243,0.844,-0.043
11.93,-0.268,1.143,-0.125
11.94,-0.193,0.993,-0.103
11.95,-0.128,0.807,0.086
11.96,-0.219,1.049,0.166
11.97,-0.27,0.878,-0.091
11.98,-0.298,1.132,-0.117
11.99,-0.241,0.864,0.018
12.0,-0.084,1.11,0.163
12.01,-0.146,0.856,0.06
12.02,-0.345,0.932,-0.125
12.03,-0.189,1.051,-0.126
12.04,-0.15,1.005,0.067
12.05,-0.075,0.866,0.125
12.06,-0.24,0.792,0.003
12.07,-0.378,1.202,-0.069
12.08,-0.108,0.926,-0.104
12.09,-0.148,1.106,0.084
12.1,-0.123,0.719,0.147
12.11,-0.342,1.07,-0.049
12.12,-0.308,1.043,-0.143
12.13,-0.215,0.9,-0.082
12.14,-0.139,0.996,0.152
12.15,-0.135,0.784,0.097
12.16,-0.376,1.158,-0.133
12.17,-0.297,0.772,-0.119
12.18,-0.158,1.153,0.01
12.19,-0.094,0.908,0.165
12.2,-0.222,0.927,0.021
12.21,-0.305,0.979,-0.12
12.22,-0.18,0.919,-0.106
12.23,-0.146,1.257,0.052
12.24,-0.067,0.672,0.15
12.25,-0.246,1.091,0.019
12.26,-0.331,0.86,-0.133
12.27,-0.161,1.103,-0.05
12.28,-0.125,0.917,0.027
12.29,-0.133,0.81,0.161
12.3,-0.359,1.131,-0.019
12.31,-0.249,0.903,-0.176
12.32,-0.271,1.088,-0.068
12.33,-0.089,0.729,0.15
12.34,-0.16,1.088,0.124
12.35,-0.317,0.916,-0.133
12.36,-0.299,0.904,-0.114
12.37,-0.177,1.021,-0.002
12.38,-0.074,0.909,0.189
12.39,-0.229,1.052,-0.003
12.4,-0.312,0.755,-0.124
12.41,-0.223,1.214,-0.081
12.42,-0.059,0.964,0.032
12.43,-0.089,0.954,0.133
12.44,-0.228,0.895,0.011
12.45,-0.335,0.983,-0.142
12.46,-0.216,1.107,-0.051
12.47,-0.115,0.821,0.08
12.48,-0.192,1.022,0.134
12.49,-0.319,0.852,-0.035
12.5,-0.342,1.156,-0.161
12.51,-0.214,0.828,-0.022
12.52,-0.105,0.992,0.149
12.53,-0.181,0.977,0.106
12.54,-0.299,0.895,-0.126
12.55,-0.258,1.051,-0.081
12.56,-0.146,0.94,0.011
12.57,-0.107,1.106,0.132
12.58,-0.222,0.741,0.026
12.59,-0.35,1.095,-0.124
12.6,-0.223,1.019,-0.066
12.61,-0.105,1.081,0.015
12.62,-0.104,0.839,0.134
12.63,-0.249,0.824,-0.007
12.64,-0.324,1.175,-0.103
12.65,-0.162,0.874,-0.106
12.66,-0.2,1.084,0.094
12.67,-0.104,0.718,0.122
12.68,-0.356,1.076,-0.035
12.69,-0.31,0.978,-0.144
12.7,-0.177,0.879,-0.015
12.71,-0.058,1.063,0.128
12.72,-0.167,0.807,0.096
12.73,-0.383,1.129,-0.123
12.74,-0.18,0.771,-0.096
12.75,-0.167,1.271,0.058
12.76,-0.02,0.843,0.109
12.77,-0.266,0.917,0.065
12.78,-0.277,1.018,-0.16
12.79,-0.219,1.0,-0.04
12.8,-0.132,1.191,0.021
12.81,-0.073,0.654,0.154
12.82,-0.323,1.116,-0.003
12.83,-0.249,0.888,-0.154
12.84,-0.258,1.052,-0.069
12.85,-0.081,0.885,0.131
12.86,-0.142,0.868,0.125
12.87,-0.368,1.103,-0.07
12.88,-0.236,0.887,-0.108
12.89,-0.221,1.118,0.016
12.9,-0.057,0.841,0.16
12.91,-0.191,1.074,0.011
12.92,-0.327,0.771,-0.121
12.93,-0.247,1.165,-0.073
12.94,-0.087,1.018,0.037
12.95,-0.135,0.888,0.143
12.96,-0.207,0.944,-0.01
12.97,-0.336,0.973,-0.08
12.98,-0.163,1.168,-0.118
12.99,-0.158,0.758,0.105
13.0,-0.126,1.011,0.159
13.01,-0.314,0.895,-0.027
13.02,-0.369,1.133,-0.174
13.03,-0.201,0.864,-0.068
13.04,-0.088,0.933,0.169
13.05,-0.182,1.033,0.117
13.06,-0.336,0.845,-0.145
13.07,-0.26,1.087,-0.077
13.08,-0.135,0.938,0.023
13.09,-0.13,1.12,0.15
13.1,-0.182,0.779,0.025
13.11,-0.344,1.031,-0.116
13.12,-0.169,1.021,-0.078
13.13,-0.081,1.07,0.038
13.14,-0.14,0.951,0.143
13.15,-0.239,0.759,0.02
13.16,-0.291,1.181,-0.138
13.17,-0.218,0.948,-0.061
13.18,-0.164,1.033,0.09
13.19,-0.076,0.77,0.119
13.2,-0.36,1.036,-0.059
13.21,-0.355,1.045,-0.125
13.22,-0.132,0.902,-0.04
13.23,-0.054,1.101,0.138
13.24,-0.149,0.76,0.082
13.25,-0.374,1.174,-0.101
13.26,-0.214,0.829,-0.142
13.27,-0.164,1.13,0.039
13.28,-0.107,0.91,0.167
13.29,-0.212,0.89,0.033
13.3,-0.334,1.027,-0.149
13.31,-0.217,0.886,-0.056
13.32,-0.083,1.218,0.068
13.33,-0.035,0.712,0.109
13.34,-0.317,1.025,-0.042
13.35,-0.318,0.909,-0.118
13.36,-0.13,1.103,-0.043
13.37,-0.158,0.935,0.083
13.38,-0.096,0.743,0.117
13.39,-0.436,1.176,-0.043
13.4,-0.237,0.847,-0.13
13.41,-0.182,1.161,-0.033
13.42,-0.086,0.788,0.166
13.43,-0.189,1.015,0.079
13.44,-0.324,0.93,-0.166
13.45,-0.208,0.943,-0.118
13.46,-0.184,1.145,0.062
13.47,-0.022,0.726,0.129
13.48,-0.316,1.099,0.019
13.49,-0.394,0.81,-0.133
13.5,-0.204,1.178,-0.055
13.51,-0.095,0.867,0.072
13.52,-0.111,0.936,0.132
13.53,-0.343,0.997,-0.018
13.54,-0.277,0.93,-0.171
13.55,-0.192,1.063,-0.044
13.56,-0.088,0.829,0.133
13.57,-0.204,1.126,0.134
13.58,-0.283,0.803,-0.125
13.59,-0.253,1.049,-0.134
13.6,-0.253,1.032,0.06
13.61,-0.029,0.972,0.104
13.62,-0.218,0.964,0.065
13.63,-0.285,0.829,-0.144
13.64,-0.276,1.232,-0.044
13.65,-0.075,0.904,0.034
13.66,-0.101,1.028,0.136
13.67,-0.218,0.794,-0.001
13.68,-0.39,1.095,-0.12
13.69,-0.168,1.012,-0.087
13.7,-0.104,0.975,0.084
13.71,-0.177,0.86,0.162
13.72,-0.322,0.955,-0.073
13.73,-0.313,1.06,-0.151
13.74,-0.128,0.815,-0.037
13.75,-0.133,1.14,0.182
13.76,-0.124,0.784,0.066
13.77,-0.362,1.081,-0.134
13.78,-0.193,0.892,-0.116
13.79,-0.203,1.155,0.081
13.8,-0.021,0.94,0.134
13.81,-0.179,0.814,-0.014
13.82,-0.386,1.129,-0.112
13.83,-0.148,0.948,-0.059
13.84,-0.126,1.199,0.056
13.85,-0.104,0.632,0.126
13.86,-0.333,1.079,0.013
13.87,-0.238,1.003,-0.168
13.88,-0.195,0.937,-0.064
13.89,-0.146,1.013,0.108
13.9,-0.116,0.779,0.128
13.91,-0.36,1.188,-0.08
13.92,-0.201,0.747,-0.153
13.93,-0.288,1.209,0.039
13.94,-0.016,0.87,0.15
13.95,-0.194,0.923,0.022
13.96,-0.352,0.925,-0.094
13.97,-0.252,0.959,-0.062
13.98,-0.069,1.226,0.009
13.99,-0.069,0.691,0.12
14.0,-0.265,1.04,0.026
14.01,-0.347,0.873,-0.123
14.02,-0.132,1.151,-0.101
14.03,-0.134,0.91,0.077
14.04,-0.104,0.813,0.145
14.05,-0.343,1.091,0.008
14.06,-0.235,0.856,-0.17
14.07,-0.293,1.079,-0.037
14.08,-0.065,0.806,0.109
14.09,-0.19,1.134,0.137
14.1,-0.259,0.864,-0.133
14.11,-0.326,0.958,-0.111
14.12,-0.19,1.018,0.001
14.13,-0.012,0.939,0.165
14.14,-0.211,1.03,0.039
14.15,-0.345,0.788,-0.094
14.16,-0.216,1.158,-0.122
14.17,-0.14,0.95,0.091
14.18,-0.042,1.032,0.119
14.19,-0.208,0.843,-0.021
14.2,-0.409,1.031,-0.084
14.21,-0.074,1.119,-0.113
14.22,-0.105,0.857,0.068
14.23,-0.142,0.981,0.126
14.24,-0.334,0.866,0.011
14.25,-0.299,1.212,-0.174
14.26,-0.183,0.837,-0.081
14.27,-0.159,0.98,0.093
14.28,-0.166,0.913,0.156
14.29,-0.291,0.984,-0.098
14.3,-0.313,1.031,-0.135
14.31,-0.183,0.813,-0.012
14.32,-0.12,1.145,0.199
14.33,-0.093,0.751,0.039
14.34,-0.375,1.094,-0.122
14.35,-0.248,0.861,-0.112
14.36,-0.158,1.151,0.082
14.37,0.005,0.935,0.083
14.38,-0.267,0.783,0.025
14.39,-0.361,1.094,-0.121
14.4,-0.178,0.977,-0.051
14.41,-0.103,1.165,0.057
14.42,-0.078,0.694,0.157
14.43,-0.363,1.087,-0.021
14.44,-0.306,1.0,-0.149
14.45,-0.233,0.951,-0.135
14.46,-0.117,0.97,0.1
14.47,-0.144,0.763,0.117
14.48,-0.357,1.189,-0.065
14.49,-0.302,0.782,-0.128
14.5,-0.157,1.095,-0.034
14.51,-0.132,0.893,0.188
14.52,-0.147,1.056,-0.015
14.53,-0.351,0.853,-0.076
14.54,-0.219,1.027,-0.116
14.55,-0.211,1.092,0.04
14.56,-0.003,0.856,0.124
14.57,-0.273,1.048,0.032
14.58,-0.293,0.776,-0.138
14.59,-0.226,1.25,-0.033
14.6,-0.08,0.865,0.012
14.61,-0.142,0.961,0.148
14.62,-0.292,0.866,-0.019
14.63,-0.371,1.05,-0.115
14.64,-0.143,1.075,-0.096
14.65,-0.126,0.802,0.092
14.66,-0.15,1.0,0.152
14.67,-0.319,0.873,-0.051
14.68,-0.349,1.16,-0.143
14.69,-0.168,0.872,-0.05
14.7,-0.1,1.005,0.128
14.71,-0.242,0.905,0.113
14.72,-0.303,0.953,-0.109
14.73,-0.283,1.064,-0.1
14.74,-0.113,0.859,-0.004
14.75,-0.138,1.116,0.177
14.76,-0.183,0.758,0.024
14.77,-0.32,1.043,-0.121
14.78,-0.203,0.974,-0.031
14.79,-0.073,1.102,0.01
14.8,-0.152,0.858,0.143
14.81,-0.242,0.832,0.004
14.82,-0.394,1.167,-0.1
14.83,-0.142,0.881,-0.093
14.84,-0.184,1.132,0.118
14.85,-0.092,0.681,0.121
14.86,-0.341,1.091,-0.011
14.87,-0.225,0.996,-0.165
14.88,-0.185,0.955,-0.087
14.89,-0.104,1.031,0.124
14.9,-0.161,0.823,0.113
14.91,-0.366,1.151,-0.077
14.92,-0.248,0.777,-0.13
14.93,-0.213,1.165,0.014
14.94,-0.087,0.877,0.163
14.95,-0.204,0.978,0.067
14.96,-0.288,0.972,-0.159
14.97,-0.25,0.917,-0.081
14.98,-0.193,1.19,0.028
14.99,-0.027,0.702,0.135
15.0,-0.258,1.054,0.023
15.01,-0.326,0.814,-0.106
15.02,-0.177,1.127,-0.059
15.03,-0.14,0.975,0.046
15.04,-0.148,0.805,0.155
15.05,-0.283,1.037,-0.002
15.06,-0.304,0.925,-0.112
15.07,-0.165,1.147,-0.108
15.08,-0.116,0.733,0.121
15.09,-0.139,1.062,0.129
15.1,-0.373,0.941,-0.058
15.11,-0.265,0.979,-0.148
15.12,-0.21,0.971,-0.031
15.13,-0.059,0.915,0.128
15.14,-0.243,1.045,0.097
15.15,-0.207,0.798,-0.16
15.16,-0.258,1.173,-0.087
15.17,-0.153,0.894,0.065
15.18,-0.021,1.027,0.142
15.19,-0.186,0.865,0.033
15.2,-0.381,0.977,-0.121
15.21,-0.225,1.084,-0.079
15.22,-0.134,0.923,0.062
15.23,-0.115,0.942,0.127
15.24,-0.257,0.808,-0.01
15.25,-0.374,1.192,-0.132
15.26,-0.161,0.911,-0.089
15.27,-0.089,0.973,0.092
15.28,-0.109,0.842,0.126
15.29,-0.308,0.985,-0.026
15.3,-0.325,1.102,-0.174
15.31,-0.174,0.804,-0.021
15.32,-0.133,1.106,0.12
15.33,-0.19,0.823,0.1
15.34,-0.351,1.138,-0.106
15.35,-0.232,0.8,-0.075
15.36,-0.141,1.232,0.061
15.37,-0.065,0.851,0.116
15.38,-0.219,0.854,0.033
15.39,-0.34,1.011,-0.13
15.4,-0.171,0.991,-0.055
15.41,-0.154,1.172,0.04
15.42,-0.097,0.686,0.156
15.43,-0.356,1.123,0.018
15.44,-0.219,0.905,-0.146
15.45,-0.231,1.081,-0.06
15.46,-0.103,0.859,0.059
15.47,-0.146,0.926,0.166
15.48,-0.323,1.088,-0.102
15.49,-0.254,0.798,-0.148
15.5,-0.258,1.098,-0.005
15.51,-0.127,0.798,0.148
15.52,-0.181,1.126,0.114
15.53,-0.305,0.823,-0.103
15.54,-0.286,1.008,-0.085
15.55,-0.165,1.083,-0.011
15.56,-0.069,0.833,0.118
15.57,-0.204,1.069,0.069
15.58,-0.307,0.778,-0.124
15.59,-0.242,1.165,-0.096
15.6,-0.09,0.968,0.049
15.61,-0.066,1.033,0.111
15.62,-0.245,0.841,0.013
15.63,-0.358,0.98,-0.112
15.64,-0.203,1.12,-0.066
15.65,-0.12,0.88,0.058
15.66,-0.118,0.994,0.154
15.67,-0.275,0.841,-0.032
15.68,-0.34,1.191,-0.124
15.69,-0.168,0.848,-0.075
15.7,-0.148,1.013,0.121
15.71,-0.163,0.902,0.137
15.72,-0.312,0.982,-0.083
15.73,-0.36,1.057,-0.113
15.74,-0.114,0.832,-0.051
15.75,-0.124,1.152,0.18
15.76,-0.108,0.745,0.045
15.77,-0.376,1.072,-0.09
15.78,-0.255,0.865,-0.125
15.79,-0.107,1.128,0.023
15.8,-0.05,0.948,0.114
15.81,-0.241,0.782,0.043
15.82,-0.336,1.094,-0.121
15.83,-0.224,0.908,-0.021
15.84,-0.051,1.212,0.009
15.85,-0.113,0.686,0.149
15.86,-0.298,0.985,0.005
15.87,-0.331,0.992,-0.102
15.88,-0.175,1.009,-0.105
15.89,-0.14,1.012,0.085
15.9,-0.119,0.712,0.133
15.91,-0.412,1.174,-0.003
15.92,-0.215,0.824,-0.181
15.93,-0.243,1.138,-0.031
15.94,-0.023,0.855,0.11
15.95,-0.246,0.975,0.135
15.96,-0.293,1.034,-0.072
15.97,-0.296,0.899,-0.135
15.98,-0.176,1.07,-0.036
15.99,-0.11,0.864,0.177
16.0,-0.202,1.136,0.055
16.01,-0.295,0.786,-0.134
16.02,-0.243,1.044,-0.107
16.03,-0.189,1.03,0.061
16.04,0.0,0.925,0.115
16.05,-0.257,0.984,0.059
16.06,-0.325,0.827,-0.145
16.07,-0.238,1.183,-0.046
16.08,-0.059,0.861,0.032
16.09,-0.133,1.037,0.163
16.1,-0.22,0.819,-0.033
16.11,-0.386,1.053,-0.119
16.12,-0.173,0.956,-0.09
16.13,-0.086,0.908,0.115
16.14,-0.13,1.037,0.101
16.15,-0.353,0.831,-0.052
16.16,-0.292,1.088,-0.108
16.17,-0.135,0.852,-0.05
16.18,-0.183,1.104,0.157
16.19,-0.116,0.752,0.092
16.2,-0.323,1.15,-0.105
16.21,-0.242,0.889,-0.112
16.22,-0.171,1.059,0.005
16.23,-0.049,0.996,0.151
16.24,-0.203,0.832,0.015
16.25,-0.322,1.08,-0.107
16.26,-0.203,0.897,-0.077
16.27,-0.103,1.269,0.039
16.28,-0.13,0.677,0.106
16.29,-0.22,0.989,0.043
16.3,-0.351,1.0,-0.135
16.31,-0.183,0.968,-0.073
16.32,-0.114,1.049,0.08
16.33,-0.059,0.715,0.147
16.34,-0.374,1.135,-0.061
16.35,-0.317,0.814,-0.126
16.36,-0.217,1.117,-0.053
16.37,-0.067,0.869,0.098
16.38,-0.139,0.974,0.137
16.39,-0.302,0.993,-0.104
16.4,-0.319,0.889,-0.08
16.41,-0.143,1.135,-0.012
16.42,-0.109,0.812,0.158
16.43,-0.239,1.102,0.081
16.44,-0.324,0.831,-0.114
16.45,-0.205,1.071,-0.109
16.46,-0.19,1.037,0.062
16.47,-0.024,0.903,0.112
16.48,-0.245,0.983,0.055
16.49,-0.318,0.836,-0.136
16.5,-0.212,1.223,-0.045
16.51,-0.183,0.848,0.024
16.52,-0.108,0.978,0.152
16.53,-0.244,0.882,-0.006
16.54,-0.312,1.101,-0.123
16.55,-0.214,0.951,-0.114
16.56,-0.093,0.864,0.131
16.57,-0.115,1.012,0.117
16.58,-0.355,0.896,-0.013
16.59,-0.274,1.168,-0.165
16.6,-0.171,0.817,-0.05
16.61,-0.13,1.063,0.123
16.62,-0.203,0.892,0.145
16.63,-0.271,0.995,-0.134
16.64,-0.265,1.025,-0.134
16.65,-0.143,0.902,-0.01
16.66,-0.14,1.124,0.2
16.67,-0.128,0.775,0.024
16.68,-0.405,1.088,-0.133
16.69,-0.238,0.865,-0.083
16.7,-0.078,1.2,0.013
16.71,-0.09,0.844,0.154
16.72,-0.252,0.836,0.04
16.73,-0.373,1.075,-0.125
16.74,-0.112,0.935,-0.065
16.75,-0.132,1.157,0.032
16.76,-0.093,0.617,0.135
16.77,-0.348,1.086,-0.022
16.78,-0.245,0.926,-0.123
16.79,-0.203,1.021,-0.115
16.8,-0.137,0.914,0.104
16.81,-0.134,0.819,0.163
16.82,-0.326,1.171,-0.089
16.83,-0.262,0.768,-0.156
16.84,-0.24,1.125,-0.043
16.85,-0.064,0.839,0.191
16.86,-0.12,1.036,0.057
16.87,-0.339,0.91,-0.108
16.88,-0.204,0.923,-0.122
16.89,-0.217,1.147,0.079
16.9,-0.011,0.833,0.142
16.91,-0.24,1.054,0.038
16.92,-0.34,0.757,-0.147
16.93,-0.257,1.214,-0.042
16.94,-0.029,0.96,0.016
16.95,-0.042,0.913,0.135
16.96,-0.32,0.96,0.01
16.97,-0.38,0.942,-0.107
16.98,-0.189,1.015,-0.052
16.99,-0.098,0.893,0.086
17.0,-0.239,1.016,0.17
17.01,-0.242,0.876,-0.058
17.02,-0.357,1.169,-0.126
17.03,-0.186,0.811,-0.049
17.04,-0.121,1.076,0.169
17.05,-0.107,0.868,0.043
17.06,-0.355,1.001,-0.081
17.07,-0.203,1.029,-0.134
17.08,-0.224,0.955,0.036
17.09,-0.092,1.04,0.15
17.1,-0.209,0.735,0.006
17.11,-0.378,1.106,-0.1
17.12,-0.164,0.898,-0.047
17.13,-0.072,1.168,-0.011
17.14,-0.146,0.801,0.159
17.15,-0.223,0.886,-0.007
17.16,-0.384,1.112,-0.092
17.17,-0.08,0.873,-0.099
17.18,-0.172,1.159,0.102
17.19,-0.059,0.66,0.138
17.2,-0.432,1.136,-0.043
17.21,-0.257,0.926,-0.123
17.22,-0.248,1.016,-0.047
17.23,-0.073,0.927,0.095
17.24,-0.142,0.835,0.137
17.25,-0.379,1.167,-0.063
17.26,-0.27,0.796,-0.126
17.27,-0.184,1.21,-0.01
17.28,-0.07,0.834,0.105
17.29,-0.23,1.015,0.095
17.3,-0.28,0.937,-0.127
17.31,-0.242,0.92,-0.09
17.32,-0.169,1.15,0.05
17.33,-0.021,0.83,0.149
17.34,-0.27,1.061,0.018
17.35,-0.292,0.767,-0.139
17.36,-0.204,1.219,-0.067
17.37,-0.082,0.957,0.014
17.38,-0.078,0.91,0.137
17.39,-0.26,0.97,-0.018
17.4,-0.352,0.943,-0.08
17.41,-0.179,1.132,-0.052
17.42,-0.063,0.782,0.089
17.43,-0.18,1.062,0.131
17.44,-0.287,0.89,-0.055
17.45,-0.27,1.111,-0.151
17.46,-0.2,0.912,-0.042
17.47,-0.108,0.92,0.144
17.48,-0.197,1.01,0.135
17.49,-0.286,0.897,-0.099
17.5,-0.329,1.093,-0.087
17.51,-0.165,0.845,-0.006
17.52,-0.134,1.138,0.198
17.53,-0.074,0.813,-0.01
17.54,-0.374,1.012,-0.125
17.55,-0.257,0.961,-0.115
17.56,-0.131,1.023,0.076
17.57,-0.007,1.026,0.135
17.58,-0.265,0.808,0.008
17.59,-0.389,1.12,-0.128
17.6,-0.185,0.878,-0.05
17.61,-0.029,1.173,0.047
17.62,-0.102,0.782,0.106
17.63,-0.37,0.962,0.008
17.64,-0.306,1.059,-0.135
17.65,-0.125,0.926,-0.059
17.66,-0.113,1.053,0.052
17.67,-0.19,0.705,0.137
17.68,-0.386,1.17,-0.023
17.69,-0.265,0.864,-0.162
17.7,-0.247,1.015,-0.021
17.71,-0.121,0.862,0.125
17.72,-0.188,0.89,0.12
17.73,-0.268,1.122,-0.127
17.74,-0.258,0.812,-0.111
17.75,-0.208,1.153,0.006
17.76,-0.013,0.851,0.201
17.77,-0.162,1.089,0.017
17.78,-0.339,0.826,-0.157
17.79,-0.243,0.969,-0.091
17.8,-0.17,1.106,0.081
17.81,-0.027,0.92,0.128
17.82,-0.255,0.961,-0.028
17.83,-0.39,0.888,-0.091
17.84,-0.191,1.12,-0.062
17.85,-0.053,0.824,0.108
17.86,-0.119,1.056,0.093
17.87,-0.327,0.853,-0.044
17.88,-0.32,1.135,-0.164
17.89,-0.16,1.021,0.175
17.9,-0.157,0.775,0.06
17.91,-0.33,1.051,-0.081
17.92,-0.232,1.012,-0.129
17.93,-0.115,0.968,-0.011
17.94,-0.094,1.037,0.185
17.95,-0.142,0.768,-0.002
17.96,-0.376,1.157,-0.121
17.97,-0.265,0.917,-0.041
17.98,-0.097,1.127,0.021
17.99,-0.105,0.789,0.152
18.0,-0.276,0.958,-0.005
18.01,-0.356,1.04,-0.125
18.02,-0.163,0.939,-0.085
18.03,-0.107,1.103,0.089
18.04,-0.106,0.705,0.122
18.05,-0.326,1.172,-0.041
18.06,-0.257,0.884,-0.124
18.07,-0.192,1.082,-0.049
18.08,-0.082,0.879,0.107
18.09,-0.222,0.875,0.1
18.1,-0.356,1.099,-0.039
18.11,-0.252,0.839,-0.174
18.12,-0.192,1.134,-0.014
18.13,-0.103,0.761,0.187
18.14,-0.191,1.072,0.064
18.15,-0.275,0.835,-0.141
18.16,-0.219,1.011,-0.088
18.17,-0.172,1.076,0.037
18.18,-0.057,0.875,0.144
18.19,-0.255,1.05,0.004
18.2,-0.329,0.781,-0.124
18.21,-0.217,1.168,-0.061
18.22,-0.104,0.872,0.07
18.23,-0.101,0.99,0.134
18.24,-0.269,0.865,-0.039
18.25,-0.341,0.979,-0.129
18.26,-0.246,1.094,-0.027
18.27,-0.049,0.794,0.081
18.28,-0.207,1.02,0.122
18.29,-0.336,0.843,-0.049
18.3,-0.306,1.212,-0.097
18.31,-0.127,0.867,-0.092
18.32,-0.084,0.963,0.136
18.33,-0.19,0.926,0.118
18.34,-0.32,0.977,-0.111
18.35,-0.291,1.084,-0.099
18.36,-0.169,0.864,-0.008
18.37,-0.163,1.069,0.178
18.38,-0.114,0.781,0.02
18.39,-0.394,1.099,-0.107
18.4,-0.22,0.852,-0.119
18.41,-0.107,1.099,0.103
18.42,-0.101,0.954,0.125
18.43,-0.254,0.804,-0.039
18.44,-0.351,1.135,-0.097
18.45,-0.204,0.926,-0.047
18.46,-0.086,1.122,0.051
18.47,-0.122,0.71,0.129
18.48,-0.359,1.095,-0.032
18.49,-0.271,1.0,-0.101
18.5,-0.17,0.916,-0.055
18.51,-0.142,1.01,0.129
18.52,-0.181,0.791,0.116
18.53,-0.34,1.176,-0.088
18.54,-0.296,0.807,-0.118
18.55,-0.18,1.116,-0.013
18.56,-0.084,0.874,0.191
18.57,-0.226,1.047,0.024
18.58,-0.326,0.826,-0.135
18.59,-0.241,1.015,-0.091
18.6,-0.116,1.106,0.07
18.61,-0.045,0.806,0.091
18.62,-0.279,1.022,0.045
18.63,-0.335,0.815,-0.11
18.64,-0.215,1.22,-0.095
18.65,-0.086,0.844,0.068
18.66,-0.108,0.99,0.114
18.67,-0.342,0.945,-0.011
18.68,-0.305,0.967,-0.152
18.69,-0.166,1.007,-0.05
18.7,-0.05,0.82,0.087
18.71,-0.25,1.129,0.17
18.72,-0.274,0.848,-0.071
18.73,-0.297,1.113,-0.132
18.74,-0.187,0.876,-0.024
18.75,-0.117,1.043,0.16
18.76,-0.183,0.932,0.042
18.77,-0.305,0.9,-0.099
18.78,-0.227,1.06,-0.11
18.79,-0.113,0.941,0.05
18.8,-0.125,1.144,0.126
18.81,-0.167,0.756,0.013
18.82,-0.374,1.057,-0.107
18.83,-0.144,0.966,-0.073
18.84,-0.072,1.095,0.052
18.85,-0.12,0.874,0.108
18.86,-0.23,0.798,0.035
18.87,-0.312,1.157,-0.138
18.88,-0.179,0.913,-0.039
18.89,-0.131,1.162,0.079
18.9,-0.061,0.698,0.116
18.91,-0.349,1.082,-0.069
18.92,-0.234,1.011,-0.097
18.93,-0.204,0.969,-0.072
18.94,-0.076,0.945,0.108
18.95,-0.171,0.801,0.14
18.96,-0.388,1.206,-0.095
18.97,-0.29,0.814,-0.127
18.98,-0.193,1.149,-0.024
18.99,-0.096,0.86,0.162
19.0,-0.124,0.967,0.029
19.01,-0.384,1.0,-0.108
19.02,-0.247,0.868,-0.101
19.03,-0.173,1.244,0.07
19.04,0.018,0.768,0.107
19.05,-0.281,1.051,0.047
19.06,-0.337,0.83,-0.144
19.07,-0.241,1.151,-0.053
19.08,-0.057,0.947,0.031
19.09,-0.092,0.851,0.139
19.1,-0.3,1.036,-0.004
19.11,-0.307,0.916,-0.127
19.12,-0.247,1.131,-0.079
19.13,-0.077,0.727,0.084
19.14,-0.163,1.049,0.16
19.15,-0.25,0.929,-0.096
19.16,-0.307,1.042,-0.13
19.17,-0.198,0.938,-0.038
19.18,-0.021,0.863,0.121
19.19,-0.244,1.083,0.142
19.2,-0.281,0.851,-0.13
19.21,-0.317,1.138,-0.09
19.22,-0.168,0.894,0.008
19.23,-0.104,1.083,0.152
19.24,-0.195,0.877,0.049
19.25,-0.323,0.956,-0.096
19.26,-0.213,1.051,-0.139
19.27,-0.149,0.985,0.078
19.28,-0.06,1.058,0.117
19.29,-0.178,0.77,0.018
19.3,-0.402,1.122,-0.119
19.31,-0.199,0.925,-0.051
19.32,-0.099,1.156,0.058
19.33,-0.132,0.829,0.133
19.34,-0.254,0.918,0.001
19.35,-0.33,1.162,-0.148
19.36,-0.151,0.896,-0.047
19.37,-0.126,1.075,0.082
19.38,-0.119,0.729,0.149
19.39,-0.401,1.188,-0.096
19.4,-0.223,0.815,-0.128
19.41,-0.204,1.162,-0.015
19.42,-0.086,0.866,0.138
19.43,-0.227,0.972,0.088
19.44,-0.31,1.01,-0.127
19.45,-0.268,0.877,-0.071
19.46,-0.129,1.144,-0.003
19.47,-0.065,0.807,0.188
19.48,-0.227,1.083,0.009
19.49,-0.343,0.777,-0.127
19.5,-0.205,1.098,-0.07
19.51,-0.024,1.066,0.048
19.52,-0.155,0.864,0.136
19.53,-0.292,0.998,0.001
19.54,-0.273,0.884,-0.072
19.55,-0.211,1.198,-0.072
19.56,-0.123,0.734,0.083
19.57,-0.138,1.049,0.142
19.58,-0.255,0.914,-0.063
19.59,-0.307,1.01,-0.168
19.6,-0.178,0.94,-0.045
19.61,-0.083,0.899,0.125
19.62,-0.164,1.103,0.125
19.63,-0.29,0.849,-0.114
19.64,-0.323,1.099,-0.087
19.65,-0.225,0.895,0.038
19.66,-0.022,1.081,0.154
19.67,-0.162,0.851,0.034
19.68,-0.347,0.939,-0.126
19.69,-0.245,1.058,-0.104
19.7,-0.083,0.972,0.032
19.71,-0.044,1.087,0.137
19.72,-0.212,0.75,-0.001
19.73,-0.395,1.139,-0.093
19.74,-0.178,0.974,-0.06
19.75,-0.084,1.108,0.046
19.76,-0.085,0.818,0.147
19.77,-0.239,0.921,-0.023
19.78,-0.406,1.141,-0.11
19.79,-0.127,0.87,-0.106
19.8,-0.16,1.101,0.114
19.81,-0.065,0.666,0.101
19.82,-0.406,1.177,-0.01
19.83,-0.232,0.909,-0.17
19.84,-0.217,0.977,-0.026
19.85,-0.086,0.967,0.155
19.86,-0.204,0.857,0.076
19.87,-0.314,1.141,-0.096
19.88,-0.253,0.776,-0.112
19.89,-0.159,1.166,0.005
19.9,-0.093,0.851,0.158
19.91,-0.221,0.996,0.016
19.92,-0.295,0.912,-0.119
19.93,-0.193,1.012,-0.107
19.94,-0.152,1.145,0.059
19.95,-0.059,0.713,0.127
19.96,-0.289,1.072,0.031
19.97,-0.299,0.843,-0.142
19.98,-0.215,1.169,-0.06
19.99,-0.083,0.88,0.083
20.0,-0.12,0.965,0.096
20.01,-0.312,0.967,-0.036
20.02,-0.301,0.939,-0.101
20.03,-0.194,1.087,-0.073
20.04,-0.136,0.773,0.111
20.05,-0.175,1.074,0.1
20.06,-0.279,0.863,-0.097
20.07,-0.392,1.091,-0.111
20.08,-0.094,0.884,-0.06
20.09,-0.146,0.968,0.174
20.1,-0.144,0.984,0.072
20.11,-0.33,0.889,-0.111
20.12,-0.22,1.127,-0.093
20.13,-0.197,0.881,0.063
20.14,-0.095,1.064,0.125
20.15,-0.213,0.763,0.027
20.16,-0.359,1.059,-0.122
20.17,-0.171,1.033,-0.073
20.18,-0.097,0.972,0.012
20.19,-0.139,0.91,0.195
20.2,-0.184,0.804,-0.025
20.21,-0.366,1.134,-0.094
20.22,-0.147,0.861,-0.103
20.23,-0.152,1.138,0.125
20.24,-0.095,0.757,0.091
20.25,-0.411,1.117,-0.064
20.26,-0.241,0.872,-0.138
20.27,-0.177,1.031,-0.009
20.28,-0.119,0.967,0.135
20.29,-0.151,0.833,0.078
20.3,-0.324,1.151,-0.123
20.31,-0.235,0.81,-0.077
20.32,-0.198,1.22,0.013
20.33,-0.091,0.807,0.169
20.34,-0.21,1.03,0.024
20.35,-0.352,0.915,-0.12
20.36,-0.193,0.954,-0.095
20.37,-0.125,1.188,0.086
20.38,-0.047,0.743,0.119
20.39,-0.201,1.032,0.003
20.4,-0.34,0.896,-0.123
20.41,-0.221,1.201,-0.034
20.42,-0.152,0.85,0.068
20.43,-0.087,0.922,0.154
20.44,-0.331,1.01,-0.036
20.45,-0.284,0.933,-0.121
20.46,-0.222,1.097,-0.048
20.47,-0.05,0.806,0.089
20.48,-0.16,1.077,0.118
20.49,-0.279,0.885,-0.086
20.5,-0.329,1.074,-0.134
20.51,-0.148,0.9,-0.026
20.52,-0.106,1.018,0.157
20.53,-0.226,1.004,0.071
20.54,-0.3,0.839,-0.112
20.55,-0.204,1.145,-0.104
20.56,-0.189,0.926,0.053
20.57,-0.029,1.057,0.108
20.58,-0.177,0.794,0.025
20.59,-0.328,1.034,-0.141
20.6,-0.255,1.035,-0.06
20.61,-0.064,1.005,0.016
20.62,-0.152,0.955,0.155
20.63,-0.247,0.82,0.004
20.64,-0.341,1.247,-0.135
20.65,-0.157,0.835,-0.111
20.66,-0.151,1.052,0.112
20.67,-0.061,0.759,0.123
20.68,-0.348,1.044,-0.042
20.69,-0.278,1.047,-0.169
20.7,-0.215,0.865,-0.047
20.71,-0.098,1.047,0.124
20.72,-0.17,0.82,0.131
20.73,-0.377,1.144,-0.125
20.74,-0.285,0.787,-0.128
20.75,-0.185,1.121,0.038
20.76,-0.081,0.947,0.108
20.77,-0.209,0.903,0.061
20.78,-0.337,1.017,-0.107
20.79,-0.177,0.868,-0.076
20.8,-0.121,1.296,0.05
20.81,-0.027,0.784,0.102
20.82,-0.315,1.009,0.012
20.83,-0.34,0.858,-0.089
20.84,-0.16,1.151,-0.062
20.85,-0.118,0.975,0.003
20.86,-0.125,0.76,0.166
20.87,-0.336,1.112,0.021
20.88,-0.255,0.858,-0.162
20.89,-0.227,1.118,-0.086
20.9,-0.077,0.758,0.108
20.91,-0.149,1.052,0.161
20.92,-0.239,0.978,-0.087
20.93,-0.381,0.929,-0.14
20.94,-0.225,0.962,-0.048
20.95,-0.106,0.912,0.193
20.96,-0.178,1.12,0.083
20.97,-0.298,0.79,-0.134
20.98,-0.268,1.03,-0.081
20.99,-0.133,0.998,0.067
21.0,-0.031,1.103,0.14
21.01,-0.156,0.905,0.021
21.02,-0.361,0.883,-0.095
21.03,-0.252,1.044,-0.06
21.04,-0.083,1.013,0.047
21.05,-0.085,0.961,0.098
21.06,-0.304,0.789,0.019
21.07,-0.357,1.161,-0.112
21.08,-0.129,0.891,-0.11
21.09,-0.09,1.07,0.065
21.1,-0.093,0.775,0.137
21.11,-0.341,1.061,-0.006
21.12,-0.235,1.021,-0.145
21.13,-0.201,0.906,-0.024
21.14,-0.112,1.051,0.09
21.15,-0.196,0.75,0.105
21.16,-0.351,1.205,-0.035
21.17,-0.292,0.787,-0.138
21.18,-0.201,1.025,-0.003
21.19,-0.089,0.955,0.178
21.2,-0.123,0.88,0.046
21.21,-0.394,1.024,-0.075
21.22,-0.222,0.868,-0.096
21.23,-0.142,1.282,0.038
21.24,-0.024,0.729,0.092
21.25,-0.274,1.016,0.069
21.26,-0.336,0.875,-0.113
21.27,-0.219,1.125,-0.033
21.28,-0.108,0.989,-0.017
21.29,-0.08,0.771,0.165
21.3,-0.293,1.083,-0.009
21.31,-0.29,0.913,-0.09
21.32,-0.167,1.175,-0.121
21.33,-0.146,0.798,0.131
21.34,-0.129,1.003,0.124
21.35,-0.32,0.975,-0.044
21.36,-0.304,1.021,-0.149
21.37,-0.228,0.983,-0.065
21.38,-0.068,0.841,0.125
21.39,-0.208,1.107,0.116
21.4,-0.311,0.883,-0.078
21.41,-0.299,1.099,-0.146
21.42,-0.165,0.876,-0.039
21.43,-0.11,1.049,0.164
21.44,-0.186,0.921,0.063
21.45,-0.278,0.933,-0.108
21.46,-0.278,1.062,-0.102
21.47,-0.203,0.907,0.059
21.48,-0.059,1.088,0.133
21.49,-0.173,0.766,0.011
21.5,-0.336,1.118,-0.109
21.51,-0.22,0.951,-0.085
21.52,-0.128,1.095,0.04
21.53,-0.073,0.869,0.156
21.54,-0.226,0.845,-0.011
21.55,-0.406,1.128,-0.126
21.56,-0.157,0.892,-0.084
21.57,-0.147,1.166,0.05
21.58,-0.073,0.683,0.109
21.59,-0.336,1.105,-0.003
21.6,-0.338,0.965,-0.14
21.61,-0.203,0.943,-0.053
21.62,-0.03,1.015,0.077
21.63,-0.149,0.765,0.096
21.64,-0.389,1.152,-0.038
21.65,-0.269,0.803,-0.152
21.66,-0.187,1.138,-0.043
21.67,-0.149,0.851,0.155
21.68,-0.181,0.943,0.054
21.69,-0.312,0.97,-0.093
21.7,-0.149,0.895,-0.119
21.71,-0.177,1.185,0.029
21.72,-0.042,0.764,0.142
21.73,-0.22,1.056,0.036
21.74,-0.322,0.8,-0.147
21.75,-0.266,1.175,-0.035
21.76,-0.116,0.923,-0.025
21.77,-0.093,0.863,0.166
21.78,-0.252,0.962,0.031
21.79,-0.295,0.857,-0.145
21.8,-0.28,1.166,-0.047
21.81,-0.024,0.829,0.05
21.82,-0.153,1.015,0.152
21.83,-0.288,0.86,-0.014
21.84,-0.331,1.11,-0.136
21.85,-0.193,0.947,-0.103
21.86,-0.09,1.011,0.142
21.87,-0.189,0.911,0.123
21.88,-0.318,0.981,-0.053
21.89,-0.278,1.036,-0.163
21.9,-0.139,0.86,-0.012
21.91,-0.167,1.123,0.148
21.92,-0.138,0.748,0.076
21.93,-0.335,1.117,-0.104
21.94,-0.218,0.858,-0.119
21.95,-0.162,1.089,0.005
21.96,-0.079,0.97,0.139
21.97,-0.239,0.831,0.055
21.98,-0.328,1.073,-0.122
21.99,-0.189,0.865,-0.045
22.0,-0.117,1.264,0.028
22.01,-0.055,0.73,0.11
22.02,-0.243,1.019,-0.011
22.03,-0.323,0.919,-0.143
22.04,-0.19,1.011,-0.066
22.05,-0.1,1.059,0.073
22.06,-0.086,0.754,0.127
22.07,-0.361,1.126,-0.066
22.08,-0.326,0.825,-0.055
22.09,-0.171,1.197,-0.06
22.1,-0.076,0.829,0.113
22.11,-0.175,0.927,0.109
22.12,-0.337,1.029,-0.052
22.13,-0.228,0.948,-0.131
22.14,-0.216,1.047,-0.008
22.15,-0.04,0.748,0.121
22.16,-0.272,1.121,0.105
22.17,-0.285,0.838,-0.119
22.18,-0.271,1.076,-0.088
22.19,-0.207,0.949,0.018
22.2,-0.017,0.958,0.142
22.21,-0.216,0.984,0.016
22.22,-0.324,0.781,-0.152
22.23,-0.241,1.16,-0.05
22.24,-0.045,0.992,0.06
22.25,-0.101,1.031,0.115
22.26,-0.236,0.812,0.023
22.27,-0.338,1.088,-0.16
22.28,-0.251,0.972,-0.037
22.29,-0.051,0.967,0.042
22.3,-0.155,0.944,0.109
22.31,-0.345,0.855,-0.015
22.32,-0.273,1.185,-0.113
22.33,-0.195,0.847,-0.063
22.34,-0.108,1.005,0.08
22.35,-0.157,0.802,0.126
22.36,-0.359,1.074,-0.061
22.37,-0.289,0.959,-0.131
22.38,-0.17,0.903,-0.026
22.39,-0.132,1.062,0.153
22.4,-0.124,0.766,0.067
22.41,-0.401,1.125,-0.087
22.42,-0.237,0.855,-0.1
22.43,-0.116,1.175,0.021
22.44,-0.054,0.825,0.133
22.45,-0.239,0.878,0.066
22.46,-0.346,1.025,-0.125
22.47,-0.176,0.907,-0.056
22.48,-0.063,1.218,0.018
22.49,-0.088,0.686,0.134
22.5,-0.313,1.071,-0.021
22.51,-0.334,0.911,-0.101
22.52,-0.148,1.072,-0.086
22.53,-0.124,0.94,0.098
22.54,-0.122,0.797,0.106
22.55,-0.372,1.13,-0.016
22.56,-0.255,0.866,-0.15
22.57,-0.222,1.118,-0.038
22.58,-0.08,0.76,0.111
22.59,-0.217,1.055,0.099
22.6,-0.349,0.889,-0.072
22.61,-0.233,0.987,-0.14
22.62,-0.152,1.043,-0.025
22.63,-0.103,0.826,0.127
22.64,-0.218,1.079,0.093
22.65,-0.264,0.808,-0.127
22.66,-0.279,1.107,-0.081
22.67,-0.113,0.929,0.05
22.68,-0.096,1.065,0.152
22.69,-0.208,0.777,0.004
22.7,-0.39,1.071,-0.105
22.71,-0.159,1.006,-0.062
22.72,-0.069,1.002,0.066
22.73,-0.143,0.919,0.134
22.74,-0.297,0.834,-0.02
22.75,-0.348,1.205,-0.091
22.76,-0.087,0.875,-0.072
22.77,-0.17,1.071,0.114
22.78,-0.106,0.736,0.098
22.79,-0.403,1.093,-0.044
22.8,-0.255,1.005,-0.141
22.81,-0.183,0.918,-0.026
22.82,-0.125,1.028,0.129
22.83,-0.174,0.779,0.109
22.84,-0.376,1.168,-0.127
22.85,-0.244,0.778,-0.108
22.86,-0.234,1.167,0.046
22.87,0.034,0.87,0.126
22.88,-0.243,0.922,0.045
22.89,-0.332,1.0,-0.143
22.9,-0.262,0.896,-0.047
22.91,-0.078,1.203,0.039
22.92,-0.1,0.698,0.151
22.93,-0.354,1.071,-0.03
22.94,-0.322,0.877,-0.098
22.95,-0.142,1.115,-0.123
22.96,-0.117,0.898,0.101
22.97,-0.116,0.844,0.111
22.98,-0.38,1.124,-0.012
22.99,-0.216,0.804,-0.179
23.0,-0.255,1.138,-0.041
23.01,-0.123,0.793,0.153
23.02,-0.168,1.077,0.123
23.03,-0.258,0.906,-0.117
23.04,-0.312,0.948,-0.135
23.05,-0.197,1.02,-0.031
23.06,-0.103,0.889,0.21
23.07,-0.143,1.05,0.034
23.08,-0.323,0.785,-0.125
23.09,-0.346,1.201,-0.043
23.1,-0.101,0.939,0.01
23.11,-0.037,0.947,0.107
23.12,-0.273,0.887,0.05
23.13,-0.317,0.976,-0.111
23.14,-0.19,1.164,-0.076
23.15,-0.093,0.846,0.018
23.16,-0.123,0.946,0.144
23.17,-0.317,0.821,0.0
23.18,-0.272,1.196,-0.157
23.19,-0.234,0.864,-0.088
23.2,-0.095,0.981,0.117
23.21,-0.148,0.891,0.138
23.22,-0.356,0.96,-0.017
23.23,-0.311,1.112,-0.16
23.24,-0.181,0.848,-0.033
23.25,-0.132,1.089,0.124
23.26,-0.152,0.76,0.105
23.27,-0.31,1.125,-0.103
23.28,-0.274,0.888,-0.12
23.29,-0.234,1.013,0.027
23.3,-0.092,0.992,0.167
23.31,-0.213,0.829,0.044
23.32,-0.32,1.099,-0.097
23.33,-0.191,0.844,-0.105
23.34,-0.187,1.244,0.046
23.35,-0.048,0.735,0.143
23.36,-0.218,0.989,0.023
23.37,-0.304,0.965,-0.154
23.38,-0.251,1.011,-0.059
23.39,-0.12,1.095,0.037
23.4,-0.077,0.677,0.123
23.41,-0.35,1.108,-0.001
23.42,-0.287,0.856,-0.118
23.43,-0.179,1.182,-0.059
23.44,-0.09,0.812,0.09
23.45,-0.132,0.906,0.127
23.46,-0.307,1.028,-0.065
23.47,-0.283,0.923,-0.114
23.48,-0.187,1.15,-0.061
23.49,-0.119,0.772,0.161
23.5,-0.246,1.063,0.078
23.51,-0.309,0.855,-0.098
23.52,-0.245,1.132,-0.104
23.53,-0.152,0.866,0.013
23.54,-0.081,1.047,0.146
23.55,-0.196,0.877,0.013
23.56,-0.371,0.896,-0.137
23.57,-0.196,1.069,-0.056
23.58,-0.088,0.993,0.046
23.59,-0.136,1.014,0.123
23.6,-0.273,0.773,-0.009
23.61,-0.31,1.155,-0.127
23.62,-0.148,0.932,-0.07
23.63,-0.134,1.027,0.072
23.64,-0.142,0.851,0.126
23.65,-0.343,0.936,-0.01
23.66,-0.272,1.084,-0.17
23.67,-0.196,0.841,-0.012
23.68,-0.112,1.118,0.134
23.69,-0.165,0.793,0.118
23.7,-0.307,1.122,-0.113
23.71,-0.248,0.839,-0.134
23.72,-0.217,1.091,0.018
23.73,-0.043,0.984,0.12
23.74,-0.183,0.785,0.038
23.75,-0.388,1.1,-0.11
23.76,-0.262,0.85,-0.08
23.77,-0.154,1.248,0.053
23.78,-0.028,0.719,0.146
23.79,-0.247,0.972,0.027
23.8,-0.385,0.964,-0.088
23.81,-0.165,1.036,-0.104
23.82,-0.111,1.057,0.056
23.83,-0.066,0.683,0.148
23.84,-0.373,1.111,-0.014
23.85,-0.322,0.882,-0.095
23.86,-0.185,1.169,-0.054
23.87,-0.101,0.796,0.102
23.88,-0.169,0.923,0.123
23.89,-0.357,1.048,-0.018
23.9,-0.228,0.919,-0.16
23.91,-0.256,1.05,-0.048
23.92,-0.097,0.75,0.152
23.93,-0.216,1.089,0.111
23.94,-0.207,0.856,-0.108
23.95,-0.283,1.057,-0.092
23.96,-0.155,0.945,-0.003
23.97,-0.093,0.972,0.163
23.98,-0.192,1.007,0.043
23.99,-0.35,0.797,-0.13
24.0,-0.234,1.114,-0.073
24.01,-0.063,0.997,0.062
24.02,-0.139,1.035,0.121
24.03,-0.217,0.768,-0.017
24.04,-0.363,1.117,-0.139
24.05,-0.17,0.941,-0.05
24.06,-0.085,1.045,0.071
24.07,-0.129,0.825,0.146
24.08,-0.361,0.942,-0.04
24.09,-0.333,1.143,-0.121
24.1,-0.197,0.842,-0.069
24.11,-0.09,1.07,0.096
24.12,-0.167,0.766,0.132
24.13,-0.354,1.134,-0.114
24.14,-0.241,0.853,-0.112
24.15,-0.161,1.051,-0.027
24.16,-0.125,0.98,0.152
24.17,-0.164,0.818,0.05
24.18,-0.378,1.091,-0.102
24.19,-0.18,0.854,-0.098
24.2,-0.175,1.277,0.074
24.21,-0.073,0.744,0.107
24.22,-0.229,0.964,0.048
24.23,-0.282,0.935,-0.119
24.24,-0.211,1.054,-0.065
24.25,-0.136,1.096,0.042
24.26,-0.089,0.711,0.129
24.27,-0.331,1.088,-0.026
24.28,-0.285,0.852,-0.113
24.29,-0.182,1.16,-0.076
24.3,-0.13,0.814,0.08
24.31,-0.154,0.96,0.15
24.32,-0.294,0.924,-0.108
24.33,-0.296,1.002,-0.108
24.34,-0.171,1.019,-0.042
24.35,-0.13,0.902,0.159
24.36,-0.191,1.059,0.079
24.37,-0.253,0.816,-0.108
24.38,-0.294,1.099,-0.129
24.39,-0.219,0.872,0.045
24.4,-0.053,1.11,0.173
24.41,-0.13,0.861,0.013
24.42,-0.382,0.927,-0.139
24.43,-0.266,1.08,-0.064
24.44,-0.066,0.97,0.038
24.45,-0.095,1.013,0.111
24.46,-0.249,0.754,-0.008
24.47,-0.384,1.174,-0.1
24.48,-0.15,0.899,-0.094
24.49,-0.141,1.017,0.079
24.5,-0.136,0.792,0.148
24.51,-0.344,0.96,-0.032
24.52,-0.263,1.097,-0.134
24.53,-0.185,0.846,-0.021
24.54,-0.101,1.089,0.092
24.55,-0.192,0.752,0.159
24.56,-0.312,1.168,-0.117
24.57,-0.307,0.826,-0.127
24.58,-0.285,1.057,0.016
24.59,-0.04,1.031,0.138
24.6,-0.17,0.805,0.048
24.61,-0.322,1.06,-0.111
24.62,-0.258,0.867,-0.047
24.63,-0.068,1.264,0.012
24.64,-0.032,0.713,0.121
24.65,-0.26,0.97,0.031
24.66,-0.334,0.948,-0.095
24.67,-0.191,1.059,-0.078
24.68,-0.141,1.04,0.005
24.69,-0.047,0.712,0.158
24.7,-0.334,1.116,-0.007
24.71,-0.333,0.844,-0.11
24.72,-0.2,1.183,-0.101
24.73,-0.091,0.873,0.084
24.74,-0.142,0.958,0.107
24.75,-0.345,1.011,-0.002
24.76,-0.269,0.935,-0.164
24.77,-0.253,1.048,-0.044
24.78,-0.054,0.777,0.1
24.79,-0.288,1.157,0.146
24.8,-0.288,0.852,-0.111
24.81,-0.363,1.087,-0.123
24.82,-0.126,0.884,-0.042
24.83,-0.141,0.962,0.149
24.84,-0.163,0.976,0.073
24.85,-0.307,0.888,-0.141
24.86,-0.252,1.077,-0.105
24.87,-0.159,0.92,0.057
24.88,-0.092,1.135,0.131
24.89,-0.185,0.781,0.03
24.9,-0.374,1.052,-0.087
24.91,-0.245,0.98,-0.087
24.92,-0.105,1.046,0.034
24.93,-0.059,0.976,0.128
24.94,-0.202,0.773,0.001
24.95,-0.392,1.143,-0.123
24.96,-0.16,0.909,-0.053
24.97,-0.089,1.141,0.033
24.98,-0.078,0.703,0.126
24.99,-0.406,1.03,0.007
25.0,-0.291,1.052,-0.148
25.01,-0.188,0.939,-0.07
25.02,-0.086,1.058,0.065
25.03,-0.154,0.763,0.145
25.04,-0.323,1.214,-0.037
25.05,-0.236,0.813,-0.166
25.06,-0.206,1.057,-0.065
25.07,-0.129,0.927,0.185
25.08,-0.157,0.928,0.105
25.09,-0.279,1.0,-0.098
25.1,-0.293,0.825,-0.118
25.11,-0.17,1.213,0.036
25.12,-0.057,0.827,0.151
25.13,-0.255,1.058,0.061
25.14,-0.251,0.773,-0.109
25.15,-0.269,1.214,-0.072
25.16,-0.064,0.943,0.04
25.17,-0.096,0.979,0.106
25.18,-0.187,0.91,0.043
25.19,-0.332,0.911,-0.125
25.2,-0.26,1.151,-0.028
25.21,-0.106,0.866,0.035
25.22,-0.127,1.045,0.138
25.23,-0.27,0.809,-0.039
25.24,-0.365,1.118,-0.119
25.25,-0.169,0.932,-0.052
25.26,-0.067,0.995,0.072
25.27,-0.136,0.897,0.104
25.28,-0.323,0.924,-0.01
25.29,-0.342,1.171,-0.122
25.3,-0.103,0.867,-0.026
25.31,-0.161,1.122,0.099
25.32,-0.146,0.737,0.094
25.33,-0.361,1.122,-0.067
25.34,-0.221,0.963,-0.114
25.35,-0.142,1.0,0.001
25.36,-0.096,0.979,0.137
25.37,-0.205,0.797,0.09
25.38,-0.374,1.143,-0.096
25.39,-0.223,0.806,-0.13
25.4,-0.22,1.194,0.037
25.41,-0.042,0.835,0.145
25.42,-0.171,0.99,-0.008
25.43,-0.321,0.951,-0.119
25.44,-0.239,0.929,-0.058
25.45,-0.113,1.218,0.062
25.46,-0.062,0.745,0.095
25.47,-0.33,1.088,0.032
25.48,-0.333,0.821,-0.146
25.49,-0.219,1.154,-0.068
25.5,-0.098,0.896,0.06
25.51,-0.113,0.869,0.15
25.52,-0.316,1.025,-0.056
25.53,-0.291,0.92,-0.092
25.54,-0.202,1.135,-0.069
25.55,-0.119,0.771,0.119
25.56,-0.156,1.071,0.114
25.57,-0.31,0.907,-0.056
25.58,-0.347,1.029,-0.142
25.59,-0.157,0.907,-0.039
25.6,-0.122,0.991,0.179
25.61,-0.18,1.011,0.055
25.62,-0.3,0.843,-0.106
25.63,-0.212,1.136,-0.089
25.64,-0.185,0.918,0.036
25.65,-0.077,1.092,0.134
25.66,-0.189,0.824,0.013
25.67,-0.315,1.008,-0.123
25.68,-0.22,1.078,-0.052
25.69,-0.062,0.992,0.001
25.7,-0.113,0.961,0.122
25.71,-0.261,0.781,0.025
25.72,-0.346,1.2,-0.092
25.73,-0.146,0.928,-0.1
25.74,-0.138,1.088,0.066
25.75,-0.07,0.743,0.118
25.76,-0.307,0.973,-0.017
25.77,-0.344,1.107,-0.11
25.78,-0.206,0.868,-0.086
25.79,-0.074,1.065,0.099
25.8,-0.177,0.762,0.138
25.81,-0.389,1.17,-0.045
25.82,-0.24,0.834,-0.149
25.83,-0.229,1.054,-0.012
25.84,-0.066,0.904,0.106
25.85,-0.182,0.889,0.113
25.86,-0.313,1.116,-0.092
25.87,-0.252,0.788,-0.13
25.88,-0.231,1.175,0.014
25.89,-0.017,0.802,0.138
25.9,-0.225,1.041,0.067
25.91,-0.297,0.871,-0.101
25.92,-0.249,1.018,-0.099
25.93,-0.155,1.116,0.069
25.94,-0.015,0.805,0.102
25.95,-0.255,1.049,0.048
25.96,-0.296,0.801,-0.124
25.97,-0.192,1.16,-0.064
25.98,-0.101,0.828,0.104
25.99,-0.165,1.076,0.107
26.0,-0.276,0.877,-0.014
26.01,-0.383,1.089,-0.13
26.02,-0.182,0.922,-0.088
26.03,-0.086,0.939,0.107
26.04,-0.163,0.993,0.116
26.05,-0.293,0.87,-0.076
26.06,-0.294,1.146,-0.121
26.07,-0.154,0.817,-0.059
26.08,-0.16,1.087,0.163
26.09,-0.114,0.837,0.068
26.1,-0.331,1.029,-0.091
26.11,-0.276,0.969,-0.112
26.12,-0.124,1.025,0.051
26.13,-0.058,1.058,0.094
26.14,-0.17,0.717,0.027
26.15,-0.36,1.134,-0.115
26.16,-0.201,0.899,-0.074
26.17,-0.106,1.193,0.035
26.18,-0.099,0.781,0.148
26.19,-0.234,0.908,0.012
26.2,-0.392,1.059,-0.104
26.21,-0.192,0.92,-0.099
26.22,-0.111,1.13,0.089
26.23,-0.395,1.041,-0.081
26.24,-0.175,0.929,-0.079
26.25,-0.14,1.063,0.107
26.26,-0.063,0.694,0.126
26.27,-0.41,1.186,-0.013
26.28,-0.256,0.85,-0.175
26.29,-0.247,1.054,-0.025
26.3,-0.064,0.883,0.09
26.31,-0.17,0.94,0.136
26.32,-0.322,1.068,-0.091
26.33,-0.259,0.797,-0.116
26.34,-0.176,1.154,-0.005
26.35,-0.057,0.817,0.158
26.36,-0.2,1.081,0.059
26.37,-0.324,0.858,-0.105
26.38,-0.254,1.079,-0.089
26.39,-0.129,1.097,0.008
26.4,-0.085,0.831,0.128
26.41,-0.246,1.021,0.05
26.42,-0.288,0.832,-0.102
26.43,-0.218,1.225,-0.057
26.44,-0.091,0.897,0.045
26.45,-0.104,0.97,0.1
26.46,-0.246,0.909,0.007
26.47,-0.307,1.061,-0.123
26.48,-0.241,0.996,-0.094
26.49,-0.128,0.841,0.12
26.5,-0.069,1.052,0.124
26.51,-0.333,0.85,-0.047
26.52,-0.345,1.119,-0.155
26.53,-0.225,0.807,-0.058
26.54,-0.066,0.999,0.129
26.55,-0.139,0.865,0.098
26.56,-0.334,0.971,-0.09
26.57,-0.348,1.03,-0.123
26.58,-0.123,0.848,-0.028
26.59,-0.128,1.138,0.187
26.6,-0.143,0.76,0.04
26.61,-0.406,1.097,-0.082
26.62,-0.197,0.861,-0.128
26.63,-0.123,1.09,0.034
26.64,-0.087,0.927,0.132
26.65,-0.2,0.792,0.021
26.66,-0.304,1.12,-0.093
26.67,-0.187,0.91,-0.062
26.68,-0.104,1.247,0.043
26.69,-0.094,0.696,0.131
26.7,-0.235,1.031,0.0
26.71,-0.288,0.947,-0.141
26.72,-0.211,1.09,-0.096
26.73,-0.124,0.837,0.111
26.74,-0.146,0.933,0.149
26.75,-0.307,1.092,-0.042
26.76,-0.308,0.865,-0.103
26.77,-0.206,1.118,-0.025
26.78,-0.093,0.814,0.142
26.79,-0.213,1.104,0.099
26.8,-0.294,0.847,-0.119
26.81,-0.352,0.964,-0.082
26.82,-0.105,0.987,-0.034
26.83,-0.098,0.995,0.188
26.84,-0.205,0.994,-0.001
26.85,-0.375,0.756,-0.098
26.86,-0.216,1.101,-0.089
26.87,-0.123,0.972,0.055
26.88,-0.043,1.08,0.085
26.89,-0.244,0.804,0.045
26.9,-0.361,0.944,-0.122
26.91,-0.119,1.103,-0.053
26.92,-0.067,0.983,-0.0
26.93,-0.198,0.943,0.197
26.94,-0.193,0.768,-0.011
26.95,-0.396,1.235,-0.068
26.96,-0.115,0.881,-0.1
26.97,-0.162,1.065,0.085
26.98,-0.193,0.834,0.138
26.99,-0.334,1.006,-0.031
27.0,-0.26,1.096,-0.138
27.01,-0.215,0.826,-0.065
27.02,-0.108,1.077,0.152
27.03,-0.147,0.81,0.121
27.04,-0.337,1.149,-0.108
27.05,-0.287,0.799,-0.118
27.06,-0.191,1.107,0.002
27.07,-0.085,0.99,0.164
27.08,-0.173,0.824,0.013
27.09,-0.388,1.042,-0.07
27.1,-0.206,0.848,-0.075
27.11,-0.056,1.288,0.036
27.12,-0.053,0.719,0.109
27.13,-0.265,0.989,0.031
27.14,-0.327,0.942,-0.079
27.15,-0.176,1.099,-0.112
27.16,-0.1,1.005,0.036
27.17,-0.104,0.741,0.125
27.18,-0.355,1.095,0.017
27.19,-0.271,0.83,-0.136
27.2,-0.218,1.123,-0.127
27.21,-0.073,0.805,0.114
27.22,-0.142,1.01,0.146
27.23,-0.338,0.973,-0.04
27.24,-0.237,0.942,-0.153
27.25,-0.24,1.072,-0.041
27.26,-0.087,0.793,0.141
27.27,-0.218,1.115,0.119
27.28,-0.319,0.852,-0.089
27.29,-0.317,1.073,-0.105
27.3,-0.135,0.884,0.002
27.31,-0.078,1.032,0.164
27.32,-0.212,0.981,0.068
27.33,-0.31,0.833,-0.144
27.34,-0.226,1.067,-0.081
27.35,-0.117,0.906,0.045
27.36,-0.119,1.147,0.141
27.37,-0.187,0.749,-0.001
27.38,-0.37,1.051,-0.1
27.39,-0.2,1.0,-0.065
27.4,-0.089,1.053,0.035
27.41,-0.13,0.926,0.142
27.42,-0.245,0.819,-0.022
27.43,-0.427,1.129,-0.113
27.44,-0.1,0.868,-0.085
27.45,-0.113,1.136,0.085
27.46,-0.122,0.763,0.137
27.47,-0.356,1.053,-0.047
27.48,-0.235,0.987,-0.144
27.49,-0.165,0.938,-0.028
27.5,-0.162,1.025,0.126
27.51,-0.153,0.786,0.108
27.52,-0.347,1.185,-0.111
27.53,-0.255,0.755,-0.138
27.54,-0.165,1.267,0.045
27.55,-0.05,0.834,0.151
27.56,-0.239,0.995,0.043
27.57,-0.292,0.84,-0.131
27.58,-0.244,1.117,-0.083
27.59,-0.135,1.11,0.028
27.6,-0.014,0.737,0.121
27.61,-0.254,1.09,0.003
27.62,-0.277,0.861,-0.131
27.63,-0.255,1.202,-0.092
27.64,-0.113,0.833,0.079
27.65,-0.098,0.945,0.133
27.66,-0.302,0.946,-0.038
27.67,-0.367,0.981,-0.144
27.68,-0.185,1.095,-0.071
27.69,-0.074,0.787,0.109
27.7,-0.197,1.047,0.113
27.71,-0.291,0.884,-0.061
27.72,-0.251,1.194,-0.127
27.73,-0.168,0.855,-0.012
27.74,-0.092,0.986,0.162
27.75,-0.207,0.993,0.093
27.76,-0.274,0.91,-0.147
27.77,-0.288,1.078,-0.086
27.78,-0.141,0.891,0.033
27.79,-0.081,1.149,0.153
27.8,-0.15,0.753,-0.012
27.81,-0.354,1.051,-0.109
27.82,-0.206,0.996,-0.052
27.83,-0.061,1.045,0.035
27.84,-0.109,0.895,0.146
27.85,-0.311,0.814,-0.014
27.86,-0.382,1.192,-0.115
27.87,-0.15,0.835,-0.102
27.88,-0.13,1.074,0.09
27.89,-0.101,0.764,0.155
27.9,-0.377,1.116,-0.039
27.91,-0.217,0.931,-0.171
27.92,-0.185,0.966,-0.023
27.93,-0.129,1.033,0.154
27.94,-0.157,0.771,0.092
27.95,-0.396,1.162,-0.084
27.96,-0.221,0.805,-0.138
27.97,-0.246,1.145,0.016
27.98,-0.077,0.825,0.154
27.99,-0.161,0.982,0.049
28.0,-0.345,0.974,-0.114
28.01,-0.247,0.872,-0.105
28.02,-0.086,1.224,0.049
28.03,-0.043,0.722,0.129
28.04,-0.278,1.04,0.045
28.05,-0.33,0.815,-0.137
28.06,-0.232,1.167,-0.052
28.07,-0.102,0.955,0.038
28.08,-0.108,0.816,0.126
28.09,-0.264,1.036,-0.018
28.1,-0.3,0.896,-0.086
28.11,-0.149,1.16,-0.06
28.12,-0.06,0.787,0.083
28.13,-0.205,1.07,0.127
28.14,-0.335,0.907,-0.079
28.15,-0.303,1.077,-0.126
28.16,-0.203,0.993,-0.034
28.17,-0.102,0.858,0.153
28.18,-0.227,1.066,0.103
28.19,-0.302,0.856,-0.116
28.2,-0.302,1.097,-0.106
28.21,-0.107,0.884,0.016
28.22,-0.1,1.099,0.185
28.23,-0.172,0.831,-0.001
28.24,-0.36,0.935,-0.126
28.25,-0.204,1.086,-0.057
28.26,-0.079,1.018,0.047
28.27,-0.185,1.0,0.134
28.28,-0.244,0.787,-0.015
28.29,-0.298,1.195,-0.126
28.3,-0.134,0.905,-0.099
28.31,-0.14,1.027,0.085
28.32,-0.133,0.82,0.143
28.33,-0.307,0.967,-0.067
28.34,-0.318,1.117,-0.137
28.35,-0.18,0.831,-0.059
28.36,-0.161,1.095,0.175
28.37,-0.177,0.811,0.083
28.38,-0.394,1.084,-0.145
28.39,-0.256,0.768,-0.096
28.4,-0.123,1.252,0.043
28.41,0.015,0.813,0.103
28.42,-0.332,0.94,0.04
28.43,-0.265,0.96,-0.148
28.44,-0.151,1.018,-0.041
28.45,-0.154,1.135,0.045
28.46,-0.108,0.638,0.146
28.47,-0.328,1.153,-0.016
28.48,-0.244,0.879,-0.133
28.49,-0.209,1.062,-0.092
28.5,-0.132,0.875,0.131
28.51,-0.146,0.884,0.115
28.52,-0.348,1.101,-0.049
28.53,-0.273,0.796,-0.164
28.54,-0.226,1.131,-0.021
28.55,-0.088,0.792,0.152
28.56,-0.24,1.086,0.079
28.57,-0.337,0.833,-0.102
28.58,-0.247,1.026,-0.102
28.59,-0.165,1.074,0.053
28.6,-0.108,0.829,0.137
28.61,-0.242,1.011,0.043
28.62,-0.251,0.838,-0.154
28.63,-0.237,1.218,-0.043
28.64,-0.11,0.802,0.027
28.65,-0.085,0.965,0.176
28.66,-0.293,0.928,-0.014
28.67,-0.334,1.045,-0.148
28.68,-0.266,0.967,-0.077
28.69,-0.042,0.856,0.105
28.7,-0.177,1.085,0.168
28.71,-0.334,0.818,-0.138
28.72,-0.284,1.096,-0.094
28.73,-0.168,0.902,-0.051
28.74,-0.098,1.04,0.204
28.75,-0.226,0.901,0.055
28.76,-0.322,0.909,-0.096
28.77,-0.207,1.174,-0.104
28.78,-0.088,0.998,0.026
28.79,-0.115,1.004,0.105
28.8,-0.196,0.752,0.056
28.81,-0.335,1.159,-0.097
28.82,-0.163,1.003,-0.071
28.83,-0.142,1.014,0.056
28.84,-0.11,0.821,0.175
28.85,-0.305,0.909,-0.045
28.86,-0.358,1.185,-0.112
28.87,-0.183,0.826,-0.093
28.88,-0.119,1.083,0.103
28.89,-0.127,0.743,0.122
28.9,-0.349,1.099,-0.071
28.91,-0.301,0.854,-0.167
28.92,-0.157,0.954,-0.016
28.93,-0.086,1.088,0.174
28.94,-0.157,0.789,0.066
28.95,-0.381,1.064,-0.106
28.96,-0.211,0.821,-0.095
28.97,-0.174,1.308,0.052
28.98,0.003,0.742,0.13
28.99,-0.273,0.961,0.039
29.0,-0.36,0.963,-0.119
29.01,-0.155,1.026,-0.066
29.02,-0.14,1.153,0.022
29.03,-0.075,0.626,0.122
29.04,-0.339,1.095,0.013
29.05,-0.291,0.9,-0.1
29.06,-0.2,1.179,-0.133
29.07,-0.081,0.849,0.083
29.08,-0.17,0.942,0.132
29.09,-0.376,1.035,-0.006
29.1,-0.257,0.901,-0.169
29.11,-0.178,1.113,-0.071
29.12,-0.141,0.799,0.182
29.13,-0.115,1.115,0.064
29.14,-0.348,0.847,-0.111
29.15,-0.244,1.019,-0.137
29.16,-0.234,1.026,0.03
29.17,-0.008,0.91,0.134
29.18,-0.198,0.98,0.062
29.19,-0.386,0.92,-0.11
29.2,-0.183,1.166,-0.044
29.21,-0.068,0.909,-0.011
29.22,-0.192,0.995,0.161
29.23,-0.242,0.776,-0.025
29.24,-0.311,1.221,-0.128
29.25,-0.189,0.89,-0.077
29.26,-0.139,0.942,0.109
29.27,-0.136,0.863,0.12
29.28,-0.359,0.968,0.009
29.29,-0.329,1.083,-0.185
29.3,-0.253,0.813,-0.004
29.31,-0.058,1.103,0.127
29.32,-0.119,0.832,0.114
29.33,-0.366,1.098,-0.106
29.34,-0.246,0.871,-0.128
29.35,-0.187,1.041,-0.016
29.36,-0.089,1.042,0.162
29.37,-0.175,0.799,0.041
29.38,-0.343,1.103,-0.123
29.39,-0.256,0.884,-0.011
29.4,-0.166,1.309,0.035
29.41,-0.016,0.689,0.102
29.42,-0.23,0.953,0.042
29.43,-0.324,0.993,-0.115
29.44,-0.183,1.006,-0.103
29.45,-0.176,1.095,0.055
29.46,-0.07,0.679,0.143
29.47,-0.321,1.128,0.009
29.48,-0.269,0.864,-0.105
29.49,-0.234,1.112,-0.113
29.5,-0.119,0.791,0.137
29.51,-0.127,0.925,0.135
29.52,-0.345,1.08,-0.049
29.53,-0.235,0.805,-0.171
29.54,-0.232,1.092,-0.004
29.55,-0.065,0.812,0.143
29.56,-0.19,1.109,0.118
29.57,-0.301,0.83,-0.139
29.58,-0.271,0.981,-0.106
29.59,-0.148,1.038,0.015
29.6,-0.052,0.962,0.151
29.61,-0.242,0.979,0.051
29.62,-0.27,0.8,-0.133
29.63,-0.241,1.247,-0.062
29.64,-0.082,0.932,0.006
29.65,-0.147,0.969,0.174
29.66,-0.187,0.793,-0.032
29.67,-0.364,1.093,-0.061
29.68,-0.168,1.074,-0.12
29.69,-0.153,0.87,0.076
29.7,-0.189,0.967,0.161
29.71,-0.237,0.876,-0.023
29.72,-0.321,1.243,-0.159
29.73,-0.209,0.822,-0.075
29.74,-0.144,1.02,0.131
29.75,-0.144,0.834,0.129
29.76,-0.293,0.989,-0.109
29.77,-0.339,1.02,-0.102
29.78,-0.113,0.897,-0.047
29.79,-0.164,1.098,0.145
29.8,-0.145,0.756,0.094
29.81,-0.325,1.154,-0.118
29.82,-0.27,0.801,-0.151
29.83,-0.219,1.098,0.049
29.84,-0.038,0.945,0.162
29.85,-0.173,0.865,0.009
29.86,-0.355,1.006,-0.103
29.87,-0.217,0.854,-0.08
29.88,-0.148,1.292,0.059
29.89,-0.049,0.723,0.137
29.9,-0.276,1.017,-0.011
29.91,-0.328,0.862,-0.13
29.92,-0.187,1.108,-0.066
29.93,-0.056,1.054,0.054
29.94,-0.102,0.713,0.092
29.95,-0.381,1.09,0.011
29.96,-0.256,0.882,-0.109
29.97,-0.218,1.191,-0.055
29.98,-0.087,0.761,0.077
29.99,-0.21,1.027,0.134
30.0,-0.328,0.988,-0.042
30.01,-0.305,1.03,-0.131
30.02,-0.157,0.928,-0.028
30.03,-0.059,0.946,0.151
30.04,-0.209,0.984,0.069
30.05,-0.267,0.851,-0.092
30.06,-0.234,1.163,-0.109
30.07,-0.149,0.874,0.025
30.08,-0.087,1.058,0.157
30.09,-0.194,0.818,0.036
30.1,-0.337,1.011,-0.129
30.11,-0.229,1.062,-0.058
30.12,-0.058,0.984,0.019
30.13,-0.117,0.95,0.168
30.14,-0.212,0.779,-0.0
30.15,-0.377,1.214,-0.121
30.16,-0.133,0.857,-0.075
30.17,-0.121,1.085,0.106
30.18,-0.112,0.793,0.112
30.19,-0.339,1.026,-0.033
30.2,-0.364,1.06,-0.124
30.21,-0.156,0.863,-0.052
30.22,-0.126,1.064,0.118
30.23,-0.16,0.745,0.105
30.24,-0.412,1.191,-0.082
30.25,-0.226,0.854,-0.128
30.26,-0.167,1.084,-0.018
30.27,-0.148,0.912,0.162
30.28,-0.215,0.887,0.086
30.29,-0.297,1.071,-0.145
30.3,-0.253,0.834,-0.098
30.31,-0.155,1.224,0.043
30.32,-0.046,0.752,0.141
30.33,-0.199,1.043,0.043
30.34,-0.298,0.886,-0.167
30.35,-0.229,1.004,-0.093
30.36,-0.121,1.061,0.059
30.37,-0.072,0.828,0.125
30.38,-0.323,1.047,-0.01
30.39,-0.33,0.807,-0.108
30.4,-0.2,1.189,-0.053
30.41,-0.069,0.816,0.072
30.42,-0.152,0.945,0.117
30.43,-0.268,0.942,-0.036
30.44,-0.267,0.985,-0.142
30.45,-0.177,1.071,-0.027
30.46,-0.095,0.782,0.107
30.47,-0.246,1.054,0.115
30.48,-0.318,0.876,-0.061
30.49,-0.242,1.132,-0.128
30.5,-0.171,0.904,-0.004
30.51,-0.105,1.009,0.159
30.52,-0.146,0.964,0.053
30.53,-0.358,0.895,-0.149
30.54,-0.268,1.079,-0.091
30.55,-0.121,0.956,0.084
30.56,-0.089,1.107,0.108
30.57,-0.26,0.771,-0.018
30.58,-0.392,1.075,-0.125
30.59,-0.115,0.962,-0.054
30.6,-0.095,1.043,0.086
30.61,-0.129,0.907,0.101
30.62,-0.351,0.893,-0.008
30.63,-0.284,1.166,-0.146
30.64,-0.138,0.821,-0.074
30.65,-0.169,1.084,0.12
30.66,-0.142,0.782,0.134
30.67,-0.315,1.079,-0.09
30.68,-0.319,0.937,-0.124
30.69,-0.188,0.957,-0.013
30.7,-0.071,1.049,0.163
30.71,-0.17,0.767,0.047
30.72,-0.397,1.11,-0.104
30.73,-0.173,0.818,-0.126
30.74,-0.168,1.231,0.036
30.75,-0.048,0.814,0.156
30.76,-0.236,0.919,0.017
30.77,-0.315,0.97,-0.121
30.78,-0.217,0.983,-0.024
30.79,-0.1,1.187,0.03
30.8,-0.093,0.684,0.142
30.81,-0.302,1.102,-0.02
30.82,-0.299,0.882,-0.109
30.83,-0.196,1.129,-0.057
30.84,-0.104,0.765,0.147
30.85,-0.172,1.014,0.119
30.86,-0.341,0.986,-0.049
30.87,-0.296,0.955,-0.161
30.88,-0.231,0.973,-0.067
30.89,-0.06,0.849,0.17
30.9,-0.206,1.129,0.102
30.91,-0.265,0.796,-0.149
30.92,-0.262,1.09,-0.106
30.93,-0.17,0.993,0.052
30.94,-0.066,1.024,0.132
30.95,-0.257,0.913,0.033
30.96,-0.3,0.893,-0.143
30.97,-0.221,1.168,-0.043
30.98,-0.087,0.914,0.037
30.99,-0.094,1.01,0.116
31.0,-0.239,0.776,0.017
31.01,-0.327,1.137,-0.131
31.02,-0.208,0.947,-0.039
31.03,-0.07,0.976,0.066
31.04,-0.143,0.887,0.107
31.05,-0.366,0.892,-0.001
31.06,-0.334,1.198,-0.128
31.07,-0.185,0.845,-0.053
31.08,-0.046,1.072,0.094
31.09,-0.185,0.833,0.124
31.1,-0.363,1.072,-0.074
31.11,-0.2,0.95,-0.106
31.12,-0.161,1.019,-0.018
31.13,-0.167,0.972,0.156
31.14,-0.171,0.811,0.076
31.15,-0.349,1.151,-0.104
31.16,-0.26,0.837,-0.087
31.17,-0.195,1.212,0.055
31.18,-0.042,0.781,0.155
31.19,-0.217,0.937,0.007
31.2,-0.319,0.985,-0.126
31.21,-0.208,0.973,-0.101
31.22,-0.138,1.153,0.08
31.23,-0.058,0.702,0.127
31.24,-0.324,1.078,-0.024
31.25,-0.334,0.832,-0.119
31.26,-0.167,1.157,-0.046
31.27,-0.094,0.902,0.1
31.28,-0.183,0.882,0.106
31.29,-0.323,1.031,-0.063
31.3,-0.231,0.878,-0.155
31.31,-0.188,1.118,-0.043
31.32,-0.124,0.763,0.149
31.33,-0.183,1.105,0.114
31.34,-0.307,0.877,-0.116
31.35,-0.213,1.001,-0.109
31.36,-0.199,1.064,0.028
31.37,-0.102,0.879,0.153
31.38,-0.187,1.047,0.057
31.39,-0.312,0.845,-0.165
31.4,-0.259,1.135,-0.103
31.41,-0.129,0.904,0.052
31.42,-0.07,1.045,0.141
31.43,-0.226,0.855,0.017
31.44,-0.354,0.999,-0.114
31.45,-0.233,1.08,-0.059
31.46,-0.096,0.905,0.059
31.47,-0.16,0.994,0.127
31.48,-0.31,0.795,-0.045
31.49,-0.35,1.196,-0.105
31.5,-0.095,0.886,-0.071
31.51,-0.179,0.979,0.127
31.52,-0.187,0.804,0.128
31.53,-0.318,1.009,-0.053
31.54,-0.236,1.117,-0.139
31.55,-0.206,0.85,-0.024
31.56,-0.108,1.07,0.139
31.57,-0.162,0.815,0.071
31.58,-0.322,1.119,-0.156
31.59,-0.235,0.85,-0.106
31.6,-0.204,1.1,0.037
31.61,-0.028,0.918,0.187
31.62,-0.207,0.837,-0.005
31.63,-0.366,1.072,-0.09
31.64,-0.208,0.907,-0.088
31.65,-0.055,1.221,0.054
31.66,-0.119,0.703,0.146
31.67,-0.359,1.121,-0.046
31.68,-0.344,0.878,-0.095
31.69,-0.143,1.096,-0.054
31.7,-0.141,0.862,0.118
31.71,-0.178,0.887,0.127
31.72,-0.349,1.112,-0.05
31.73,-0.256,0.838,-0.165
31.74,-0.209,1.104,-0.016
31.75,-0.085,0.845,0.179
31.76,-0.193,1.073,0.043
31.77,-0.297,0.823,-0.089
31.78,-0.245,1.086,-0.079
31.79,-0.111,1.084,0.057
31.8,-0.068,0.845,0.11
31.81,-0.222,0.997,0.022
31.82,-0.358,0.831,-0.125
31.83,-0.207,1.221,-0.068
31.84,-0.098,0.846,0.063
31.85,-0.088,1.0,0.14
31.86,-0.314,0.892,0.007
31.87,-0.323,1.014,-0.144
31.88,-0.219,1.013,-0.082
31.89,-0.117,0.842,0.1
31.9,-0.189,1.034,0.145
31.91,-0.281,0.87,-0.064
31.92,-0.33,1.165,-0.164
31.93,-0.143,0.829,-0.039
31.94,-0.117,1.029,0.159
31.95,-0.186,0.904,0.09
31.96,-0.317,0.937,-0.116
31.97,-0.278,1.051,-0.081
31.98,-0.13,0.937,-0.03
31.99,-0.158,1.063,0.135
32.0,-0.174,0.739,0.026
32.01,-0.335,1.121,-0.126
32.02,-0.199,0.925,-0.1
32.03,-0.151,1.133,0.05
32.04,-0.071,0.852,0.127
32.05,-0.209,0.853,0.01
32.06,-0.328,1.125,-0.114
32.07,-0.167,0.894,-0.087
32.08,-0.143,1.172,0.073
32.09,-0.078,0.671,0.118
32.1,-0.328,1.092,-0.038
32.11,-0.3,0.943,-0.101
32.12,-0.212,0.998,-0.077
32.13,-0.046,0.968,0.096
32.14,-0.222,0.794,0.144
32.15,-0.35,1.146,-0.079
32.16,-0.253,0.802,-0.16
32.17,-0.223,1.137,-0.021
32.18,-0.091,0.849,0.157
32.19,-0.168,1.024,0.057
32.2,-0.32,0.929,-0.11
32.21,-0.242,0.899,-0.11
32.22,-0.171,1.182,0.042
32.23,-0.037,0.854,0.146
32.24,-0.259,1.055,0.029
32.25,-0.314,0.767,-0.132
32.26,-0.275,1.201,-0.062
32.27,-0.074,0.944,0.016
32.28,-0.077,0.879,0.13
32.29,-0.296,0.955,0.016
32.3,-0.329,0.896,-0.142
32.31,-0.197,1.11,-0.056
32.32,-0.077,0.781,0.076
32.33,-0.183,1.053,0.148
32.34,-0.289,0.879,-0.043
32.35,-0.357,1.1,-0.177
32.36,-0.141,0.874,-0.04
32.37,-0.092,0.971,0.125
32.38,-0.179,1.022,0.101
32.39,-0.311,0.851,-0.076
32.4,-0.253,1.113,-0.109
32.41,-0.174,0.855,0.001
32.42,-0.122,1.116,0.155
32.43,-0.139,0.848,0.059
32.44,-0.333,1.016,-0.149
32.45,-0.25,0.947,-0.123
32.46,-0.112,1.075,0.084
32.47,-0.075,1.065,0.119
32.48,-0.259,0.812,-0.015
32.49,-0.38,1.1,-0.112
32.5,-0.135,0.945,-0.046
32.51,-0.116,1.174,0.061
32.52,-0.11,0.668,0.1
32.53,-0.362,1.117,-0.02
32.54,-0.263,0.94,-0.14
32.55,-0.212,0.978,-0.043
32.56,-0.147,0.966,0.137
32.57,-0.107,0.811,0.112
32.58,-0.372,1.157,-0.098
32.59,-0.299,0.777,-0.129
32.6,-0.242,1.158,-0.005
32.61,-0.062,0.863,0.168
32.62,-0.189,0.99,0.037
32.63,-0.309,0.95,-0.088
32.64,-0.219,0.959,-0.1
32.65,-0.172,1.165,0.037
32.66,-0.031,0.743,0.121
32.67,-0.259,1.073,0.031
32.68,-0.294,0.789,-0.136
32.69,-0.229,1.176,-0.048
32.7,-0.17,0.909,0.013
32.71,-0.091,0.902,0.182
32.72,-0.256,0.977,-0.056
32.73,-0.353,0.904,-0.121
32.74,-0.213,1.07,-0.051
32.75,-0.087,0.83,0.094
32.76,-0.141,1.062,0.102
32.77,-0.359,0.831,-0.038
32.78,-0.284,1.082,-0.165
32.79,-0.193,0.916,-0.047
32.8,-0.1,0.9,0.137
32.81,-0.196,1.024,0.118
32.82,-0.341,0.89,-0.079
32.83,-0.257,1.115,-0.146
32.84,-0.153,0.86,-0.008
32.85,-0.12,1.118,0.153
32.86,-0.176,0.784,0.022
32.87,-0.337,1.02,-0.085
32.88,-0.192,1.006,-0.115
32.89,-0.146,1.023,0.055
32.9,-0.058,1.02,0.135
32.91,-0.243,0.768,0.008
32.92,-0.34,1.118,-0.153
32.93,-0.198,0.944,-0.059
32.94,-0.066,1.173,0.042
32.95,-0.11,0.751,0.12
32.96,-0.313,0.979,0.01
32.97,-0.338,1.035,-0.112
32.98,-0.153,0.937,-0.096
32.99,-0.099,1.053,0.093
33.0,-0.166,0.691,0.092
33.01,-0.365,1.185,-0.047
33.02,-0.219,0.901,-0.153
33.03,-0.183,1.048,-0.068
33.04,-0.108,0.855,0.172
33.05,-0.238,0.894,0.099
33.06,-0.334,1.104,-0.064
33.07,-0.282,0.827,-0.138
33.08,-0.21,1.18,0.009
33.09,-0.062,0.835,0.163
33.1,-0.196,1.066,0.021
33.11,-0.322,0.843,-0.141
33.12,-0.23,1.057,-0.076
33.13,-0.118,1.089,0.06
33.14,-0.097,0.846,0.137
33.15,-0.291,1.02,0.032
33.16,-0.296,0.816,-0.143
33.17,-0.272,1.186,-0.049
33.18,-0.103,0.85,0.083
33.19,-0.1,0.996,0.14
33.2,-0.267,0.927,-0.046
33.21,-0.342,0.999,-0.129
33.22,-0.15,1.093,-0.033
33.23,-0.006,0.837,0.098
33.24,-0.226,1.048,0.13
33.25,-0.317,0.859,-0.057
33.26,-0.317,1.149,-0.12
33.27,-0.165,0.847,-0.03
33.28,-0.13,1.037,0.178
33.29,-0.193,0.949,0.074
33.3,-0.335,0.987,-0.12
33.31,-0.203,0.998,-0.072
33.32,-0.094,1.072,0.025
33.33,-0.073,0.998,0.131
33.34,-0.181,0.779,-0.0
33.35,-0.369,1.125,-0.135
33.36,-0.194,0.91,-0.035
33.37,-0.137,1.198,0.07
33.38,-0.084,0.753,0.133
33.39,-0.322,0.967,-0.025
33.4,-0.339,1.028,-0.102
33.41,-0.16,0.927,-0.075
33.42,-0.097,1.069,0.118
33.43,-0.126,0.695,0.118
33.44,-0.373,1.176,-0.061
33.45,-0.287,0.891,-0.1
33.46,-0.183,1.08,-0.052
33.47,-0.131,0.837,0.16
33.48,-0.229,0.891,0.102
33.49,-0.325,1.154,-0.107
33.5,-0.254,0.833,-0.123
33.51,-0.176,1.153,-0.002
33.52,-0.0,0.838,0.143
33.53,-0.233,1.074,-0.001
33.54,-0.299,0.803,-0.156
33.55,-0.267,1.064,-0.061
33.56,-0.093,1.077,0.046
33.57,-0.087,0.774,0.139
33.58,-0.332,1.077,0.02
33.59,-0.355,0.864,-0.1
33.6,-0.172,1.162,-0.089
33.61,-0.126,0.8,0.067
33.62,-0.139,1.029,0.146
33.63,-0.325,0.953,-0.065
33.64,-0.242,0.968,-0.165
33.65,-0.18,1.011,-0.067
33.66,-0.142,0.845,0.195
33.67,-0.142,1.092,0.097
33.68,-0.295,0.82,-0.103
33.69,-0.259,1.103,-0.11
33.7,-0.177,0.955,0.022
33.71,-0.085,1.069,0.139
33.72,-0.125,0.913,0.029
33.73,-0.366,0.872,-0.107
33.74,-0.229,1.135,-0.056
33.75,-0.079,0.981,0.063
33.76,-0.087,1.059,0.145
33.77,-0.163,0.769,-0.021
33.78,-0.418,1.16,-0.116
33.79,-0.146,0.939,-0.093
33.8,-0.095,1.01,0.068
33.81,-0.137,0.844,0.125
33.82,-0.344,0.896,-0.019
33.83,-0.342,1.191,-0.112
33.84,-0.174,0.841,-0.07
33.85,-0.089,1.019,0.098
33.86,-0.146,0.78,0.186
33.87,-0.366,1.134,-0.112
33.88,-0.263,0.912,-0.15
33.89,-0.161,0.975,-0.004
33.9,-0.131,1.069,0.161
33.91,-0.168,0.797,0.07
33.92,-0.343,1.134,-0.114
33.93,-0.213,0.782,-0.101
33.94,-0.215,1.256,0.051
33.95,-0.027,0.853,0.137
33.96,-0.211,0.936,-0.006
33.97,-0.312,0.942,-0.13
33.98,-0.223,1.009,-0.051
33.99,-0.089,1.154,0.047
34.0,-0.072,0.681,0.122
34.01,-0.368,1.116,-0.004
34.02,-0.302,0.864,-0.093
34.03,-0.2,1.117,-0.085
34.04,-0.087,0.861,0.092
34.05,-0.142,0.891,0.116
34.06,-0.31,1.076,-0.056
34.07,-0.3,0.823,-0.152
34.08,-0.221,1.066,-0.035
34.09,-0.108,0.837,0.18
34.1,-0.163,1.12,0.094
34.11,-0.31,0.834,-0.113
34.12,-0.247,1.111,-0.109
34.13,-0.129,0.968,0.041
34.14,-0.041,0.978,0.116
34.15,-0.202,0.875,0.051
34.16,-0.301,0.925,-0.15
34.17,-0.245,1.157,-0.017
34.18,-0.049,0.846,-0.002
34.19,-0.133,0.985,0.126
34.2,-0.293,0.816,-0.0
34.21,-0.325,1.165,-0.139
34.22,-0.167,0.904,-0.085
34.23,-0.084,0.974,0.088
34.24,-0.125,0.892,0.116
34.25,-0.306,0.905,-0.031
34.26,-0.346,1.125,-0.158
34.27,-0.176,0.798,-0.036
34.28,-0.137,1.113,0.142
34.29,-0.141,0.794,0.119
34.3,-0.371,1.081,-0.122
34.31,-0.271,0.879,-0.121
34.32,-0.17,1.016,0.003
34.33,-0.096,1.057,0.138
34.34,-0.131,0.782,0.05
34.35,-0.39,1.108,-0.106
34.36,-0.183,0.835,-0.103
34.37,-0.14,1.247,0.047
34.38,-0.062,0.787,0.15
34.39,-0.277,0.948,0.032
34.4,-0.353,0.955,-0.136
34.41,-0.141,0.998,-0.069
34.42,-0.202,1.096,0.086
34.43,-0.064,0.622,0.154
34.44,-0.358,1.136,-0.052
34.45,-0.332,0.842,-0.119
34.46,-0.216,1.068,-0.072
34.47,-0.101,0.848,0.121
34.48,-0.135,0.91,0.114
34.49,-0.361,1.08,-0.049
34.5,-0.273,0.834,-0.155
34.51,-0.207,1.113,-0.005
34.52,-0.048,0.794,0.117
34.53,-0.236,1.105,0.089
34.54,-0.227,0.863,-0.109
34.55,-0.297,1.065,-0.091
34.56,-0.162,0.982,0.005
34.57,-0.326,0.916,-0.099
34.58,-0.244,0.946,-0.1
34.59,-0.162,1.165,0.051
34.6,0.038,0.752,0.103
34.61,-0.317,1.062,0.016
34.62,-0.369,0.758,-0.118
34.63,-0.2,1.195,-0.039
34.64,-0.067,0.9,0.032
34.65,-0.152,0.894,0.163
34.66,-0.314,0.993,-0.008
34.67,-0.277,0.909,-0.137
34.68,-0.201,1.094,-0.056
34.69,-0.085,0.819,0.091
34.7,-0.251,1.103,0.148
34.71,-0.277,0.847,-0.069
34.72,-0.242,1.065,-0.117
34.73,-0.18,0.925,-0.078
34.74,-0.098,0.919,0.195
34.75,-0.194,1.046,0.094
34.76,-0.294,0.861,-0.085
34.77,-0.274,1.146,-0.079
34.78,-0.201,0.918,0.014
34.79,-0.077,1.071,0.109
34.8,-0.161,0.824,0.016
34.81,-0.366,1.019,-0.089
34.82,-0.218,1.036,-0.063
34.83,-0.077,1.1,0.025
34.84,-0.101,0.837,0.162
34.85,-0.258,0.85,-0.022
34.86,-0.348,1.15,-0.131
34.87,-0.173,0.893,-0.096
34.88,-0.104,1.118,0.09
34.89,-0.106,0.684,0.134
34.9,-0.38,1.115,-0.028
34.91,-0.267,0.919,-0.15
34.92,-0.188,0.989,-0.033
34.93,-0.088,0.969,0.117
34.94,-0.156,0.816,0.129
34.95,-0.321,1.155,-0.09
34.96,-0.24,0.798,-0.102
34.97,-0.169,1.179,-0.026
34.98,-0.121,0.818,0.176
34.99,-0.199,1.0,0.081
35.0,-0.305,0.922,-0.112
35.01,-0.259,0.948,-0.092
35.02,-0.125,1.173,0.024
35.03,-0.06,0.75,0.164
35.04,-0.214,1.077,0.054
35.05,-0.282,0.843,-0.153
35.06,-0.287,1.214,-0.069
35.07,-0.128,0.9,0.029
35.08,-0.093,0.922,0.175
35.09,-0.239,0.983,-0.01
35.1,-0.317,0.9,-0.126
35.11,-0.253,1.191,-0.044
35.12,-0.092,0.849,0.082
35.13,-0.216,1.007,0.114
35.14,-0.273,0.815,0.001
35.15,-0.286,1.139,-0.129
35.16,-0.136,0.948,-0.071
35.17,-0.157,0.907,0.124
35.18,-0.204,0.998,0.137
35.19,-0.294,0.887,-0.091
35.2,-0.27,1.137,-0.12
35.21,-0.197,0.831,0.002
35.22,-0.059,1.082,0.127
35.23,-0.194,0.843,0.088
35.24,-0.336,1.044,-0.15
35.25,-0.254,0.921,-0.112
35.26,-0.175,1.001,0.071
35.27,-0.025,1.046,0.118
35.28,-0.236,0.776,-0.005
35.29,-0.416,1.097,-0.128
35.3,-0.147,0.889,-0.037
35.31,-0.086,1.174,0.045
35.32,-0.086,0.759,0.129
35.33,-0.345,1.01,-0.001
35.34,-0.308,1.041,-0.102
35.35,-0.184,0.893,-0.099
35.36,-0.154,1.114,0.126
35.37,-0.164,0.756,0.117
35.38,-0.35,1.169,-0.046
35.39,-0.276,0.839,-0.156
35.4,-0.192,1.068,-0.038
35.41,-0.094,0.907,0.148
35.42,-0.174,0.884,0.086
35.43,-0.282,1.036,-0.102
35.44,-0.26,0.793,-0.124
35.45,-0.247,1.247,0.082
35.46,0.032,0.785,0.112
35.47,-0.247,1.016,0.036
35.48,-0.319,0.842,-0.112
35.49,-0.239,1.129,-0.021
35.5,-0.049,1.04,-0.016
35.51,-0.066,0.777,0.142
35.52,-0.335,1.069,0.036
35.53,-0.292,0.871,-0.134
35.54,-0.24,1.156,-0.068
35.55,-0.081,0.823,0.107
35.56,-0.137,1.047,0.112
35.57,-0.339,0.941,-0.01
35.58,-0.295,1.003,-0.17
35.59,-0.221,1.012,-0.056
35.6,-0.007,0.86,0.135
35.61,-0.244,1.126,0.149
35.62,-0.274,0.811,-0.117
35.63,-0.303,1.118,-0.108
35.64,-0.223,0.877,-0.029
35.65,-0.053,1.105,0.133
35.66,-0.154,0.805,0.028
35.67,-0.395,1.016,-0.108
35.68,-0.22,0.951,-0.103
35.69,-0.141,1.05,0.061
35.7,-0.029,0.975,0.106
35.71,-0.226,0.775,0.02
35.72,-0.428,1.177,-0.114
35.73,-0.145,0.939,-0.056
35.74,-0.131,1.156,0.039
35.75,-0.119,0.699,0.128
35.76,-0.32,0.998,-0.015
35.77,-0.306,1.089,-0.098
35.78,-0.138,0.932,-0.132
35.79,-0.14,1.022,0.107
35.8,-0.176,0.71,0.151
35.81,-0.329,1.193,-0.079
35.82,-0.248,0.817,-0.119
35.83,-0.2,1.073,-0.053
35.84,-0.131,0.93,0.179
35.85,-0.163,0.922,0.066
35.86,-0.339,1.069,-0.088
35.87,-0.24,0.795,-0.132
35.88,-0.23,1.215,0.041
35.89,-0.028,0.805,0.15
35.9,-0.207,1.06,0.017
35.91,-0.354,0.8,-0.111
35.92,-0.239,1.046,-0.077
35.93,-0.047,1.094,0.017
35.94,-0.006,0.814,0.11
35.95,-0.29,1.029,-0.012
35.96,-0.354,0.862,-0.072
35.97,-0.191,1.191,-0.083
35.98,-0.069,0.826,0.09
35.99,-0.167,1.022,0.127
36.0,-0.349,0.91,-0.018
36.01,-0.278,1.04,-0.17
36.02,-0.219,0.994,-0.075
36.03,-0.091,0.961,0.125
36.04,-0.167,1.044,0.136
36.05,-0.301,0.847,-0.125
36.06,-0.277,1.049,-0.129
36.07,-0.185,0.87,0.056
36.08,-0.104,1.132,0.148
36.09,-0.106,0.789,0.052
36.1,-0.395,1.035,-0.113
36.11,-0.196,0.93,-0.1
36.12,-0.116,1.112,0.066
36.13,-0.073,0.984,0.121
36.14,-0.206,0.755,0.027
36.15,-0.379,1.123,-0.11
36.16,-0.164,0.969,-0.048
36.17,-0.156,1.148,0.031
36.18,-0.061,0.696,0.139
36.19,-0.353,1.021,-0.016
36.2,-0.284,1.062,-0.156
36.21,-0.192,0.899,-0.076
36.22,-0.145,1.039,0.09
36.23,-0.125,0.744,0.111
36.24,-0.351,1.172,-0.031
36.25,-0.232,0.798,-0.157
36.26,-0.217,1.088,-0.043
36.27,-0.123,0.902,0.159
36.28,-0.146,0.903,0.055
36.29,-0.321,1.035,-0.091
36.3,-0.271,0.826,-0.103
36.31,-0.21,1.176,0.002
36.32,-0.051,0.766,0.187
36.33,-0.169,1.071,0.024
36.34,-0.347,0.811,-0.113
36.35,-0.27,1.064,-0.091
36.36,-0.108,1.05,0.024
36.37,-0.058,0.828,0.143
36.38,-0.264,0.989,0.036
36.39,-0.346,0.862,-0.069
36.4,-0.151,1.206,-0.078
36.41,-0.12,0.826,0.034
36.42,-0.12,0.977,0.161
36.43,-0.266,0.911,-0.02
36.44,-0.258,1.104,-0.143
36.45,-0.272,0.985,-0.101
36.46,-0.124,0.774,0.092
36.47,-0.169,1.065,0.161
36.48,-0.234,0.922,-0.105
36.49,-0.351,1.04,-0.111
36.5,-0.164,0.796,-0.005
36.51,-0.124,1.18,0.157
36.52,-0.206,0.814,0.093
36.53,-0.321,1.057,-0.11
36.54,-0.248,0.922,-0.131
36.55,-0.191,1.037,0.045
36.56,-0.047,0.997,0.128
36.57,-0.194,0.777,0.021
36.58,-0.379,1.102,-0.09
36.59,-0.151,0.877,-0.094
36.6,-0.141,1.257,0.034
36.61,-0.071,0.722,0.12
36.62,-0.216,0.913,-0.002
36.63,-0.346,1.001,-0.089
36.64,-0.137,0.989,-0.044
36.65,-0.117,1.113,0.046
36.66,-0.121,0.681,0.162
36.67,-0.306,1.099,-0.033
36.68,-0.315,0.879,-0.117
36.69,-0.193,1.128,-0.099
36.7,-0.115,0.835,0.097
36.71,-0.151,0.87,0.122
36.72,-0.35,1.076,-0.043
36.73,-0.239,0.857,-0.148
36.74,-0.227,1.072,-0.026
36.75,-0.069,0.764,0.144
36.76,-0.277,1.095,0.107
36.77,-0.25,0.878,-0.097
36.78,-0.288,1.039,-0.114
36.79,-0.149,0.996,0.006
36.8,-0.095,0.954,0.167
36.81,-0.201,1.022,0.048
36.82,-0.318,0.803,-0.11
36.83,-0.296,1.178,-0.019
36.84,-0.03,0.964,0.022
36.85,-0.098,1.027,0.101
36.86,-0.247,0.828,0.007
36.87,-0.381,1.022,-0.106
36.88,-0.126,1.044,-0.074
36.89,-0.12,0.901,0.094
36.9,-0.175,0.992,0.129
36.91,-0.302,0.844,-0.015
36.92,-0.318,1.145,-0.165
36.93,-0.205,0.801,-0.06
36.94,-0.078,1.064,0.081
36.95,-0.2,0.928,0.14
36.96,-0.285,0.994,-0.104
36.97,-0.286,1.013,-0.097
36.98,-0.162,0.93,-0.038
36.99,-0.109,1.115,0.142
37.0,-0.191,0.765,0.078
37.01,-0.363,1.141,-0.089
37.02,-0.22,0.849,-0.139
37.03,-0.147,1.125,0.01
37.04,-0.11,0.953,0.158
37.05,-0.191,0.842,0.018
37.06,-0.335,1.041,-0.104
37.07,-0.225,0.87,-0.059
37.08,-0.158,1.27,0.059
37.09,-0.039,0.738,0.109
37.1,-0.216,1.04,-0.004
37.11,-0.348,0.875,-0.137
37.12,-0.132,1.012,-0.083
37.13,-0.125,1.111,0.076
37.14,-0.097,0.804,0.11
37.15,-0.339,1.082,-0.005
37.16,-0.284,0.84,-0.116
37.17,-0.13,1.245,-0.05
37.18,-0.101,0.795,0.087
37.19,-0.223,0.968,0.153
37.2,-0.337,1.001,-0.054
37.21,-0.235,0.993,-0.164
37.22,-0.171,0.975,-0.057
37.23,-0.118,0.766,0.157
37.24,-0.174,1.13,0.06
37.25,-0.362,0.839,-0.151
37.26,-0.191,1.071,-0.099
37.27,-0.159,0.942,0.029
37.28,-0.085,0.97,0.193
37.29,-0.201,0.927,0.04
37.3,-0.354,1.029,-0.11
37.31,-0.185,1.082,-0.053
37.32,-0.133,0.948,0.069
37.33,-0.133,0.97,0.14
37.34,-0.283,0.831,-0.038
37.35,-0.366,1.236,-0.119
37.36,-0.148,0.85,-0.092
37.37,-0.112,1.024,0.112
37.38,-0.124,0.82,0.101
37.39,-0.365,1.029,-0.056
37.4,-0.254,1.022,-0.143
37.41,-0.153,0.894,-0.026
37.42,-0.167,1.097,0.171
37.43,-0.169,0.735,0.108
37.44,-0.319,1.142,-0.121
37.45,-0.239,0.858,-0.132
37.46,-0.184,1.141,0.02
37.47,-0.067,0.898,0.164
37.48,-0.142,0.842,0.027
37.49,-0.353,1.079,-0.118
37.5,-0.236,0.865,-0.085
37.51,-0.119,1.246,0.059
37.52,-0.039,0.695,0.126
37.53,-0.326,1.021,-0.012
37.54,-0.351,0.911,-0.085
37.55,-0.134,1.086,-0.13
37.56,-0.132,0.954,0.087
37.57,-0.098,0.739,0.091
37.58,-0.371,1.152,0.002
37.59,-0.223,0.813,-0.175
37.6,-0.215,1.124,-0.079
37.61,-0.164,0.788,0.166
37.62,-0.103,1.033,0.133
37.63,-0.34,0.941,-0.063
37.64,-0.26,0.946,-0.105
37.65,-0.234,1.177,0.037
37.66,-0.003,0.782,0.108
37.67,-0.183,1.028,0.05
37.68,-0.371,0.794,-0.121
37.69,-0.25,1.173,-0.065
37.7,-0.115,0.929,0.021
37.71,-0.091,0.887,0.146
37.72,-0.223,0.904,0.042
37.73,-0.344,0.955,-0.115
37.74,-0.214,1.122,-0.089
37.75,-0.081,0.852,0.081
37.76,-0.11,1.063,0.12
37.77,-0.326,0.828,-0.009
37.78,-0.333,1.114,-0.094
37.79,-0.136,0.957,-0.098
37.8,-0.133,0.942,0.096
37.81,-0.164,0.923,0.132
37.82,-0.309,0.925,-0.059
37.83,-0.327,1.17,-0.137
37.84,-0.188,0.795,-0.032
37.85,-0.114,1.11,0.167
37.86,-0.111,0.815,0.074
37.87,-0.383,1.027,-0.12
37.88,-0.227,0.862,-0.121
37.89,-0.161,1.084,0.068
37.9,-0.036,1.027,0.098
37.91,-0.24,0.731,0.026
37.92,-0.364,1.142,-0.114
37.93,-0.178,0.917,-0.07
37.94,-0.137,1.126,0.039
37.95,-0.099,0.705,0.155
37.96,-0.31,0.993,0.027
37.97,-0.306,1.016,-0.118
37.98,-0.189,0.933,-0.084
37.99,-0.128,1.086,0.079
38.0,-0.126,0.721,0.155
38.01,-0.337,1.159,-0.025
38.02,-0.277,0.823,-0.17
38.03,-0.227,1.078,-0.043
38.04,-0.1,0.907,0.119
38.05,-0.129,0.97,0.151
38.06,-0.267,1.032,-0.125
38.07,-0.28,0.806,-0.103
38.08,-0.286,1.181,0.032
38.09,-0.003,0.824,0.151
38.1,-0.215,1.099,0.064
38.11,-0.273,0.807,-0.084
38.12,-0.333,1.185,-0.037
38.13,-0.055,0.925,0.035
38.14,-0.071,0.93,0.106
38.15,-0.254,0.912,0.022
38.16,-0.35,0.96,-0.07
38.17,-0.154,1.136,-0.099
38.18,-0.146,0.81,0.085
38.19,-0.127,1.037,0.144
38.2,-0.258,0.83,-0.03
38.21,-0.353,1.138,-0.156
38.22,-0.197,0.876,-0.063
38.23,-0.016,1.025,0.082
38.24,-0.188,0.941,0.097
38.25,-0.331,0.908,-0.048
38.26,-0.321,1.125,-0.104
38.27,-0.181,0.864,-0.023
38.28,-0.093,1.142,0.138
38.29,-0.171,0.795,0.057
38.3,-0.433,1.074,-0.065
38.31,-0.128,0.925,-0.137
38.32,-0.198,1.103,-0.009
38.33,-0.121,0.956,0.109
38.34,-0.174,0.786,0.046
38.35,-0.367,1.119,-0.091
38.36,-0.226,0.842,-0.09
38.37,-0.149,1.264,0.046
38.38,-0.084,0.757,0.145
38.39,-0.236,0.947,0.015
38.4,-0.316,0.95,-0.125
38.41,-0.202,1.005,-0.048
38.42,-0.098,1.106,0.04
38.43,-0.123,0.686,0.165
38.44,-0.348,1.12,-0.05
38.45,-0.297,0.878,-0.087
38.46,-0.239,1.119,-0.095
38.47,-0.083,0.82,0.1
38.48,-0.148,0.926,0.128
38.49,-0.329,1.065,-0.039
38.5,-0.253,0.813,-0.153
38.51,-0.241,1.135,-0.032
38.52,-0.057,0.817,0.153
38.53,-0.202,1.062,0.065
38.54,-0.298,0.807,-0.072
38.55,-0.218,1.071,-0.139
38.56,-0.175,1.031,0.002
38.57,0.017,0.906,0.122
38.58,-0.268,1.016,0.052
38.59,-0.305,0.781,-0.084
38.6,-0.262,1.21,-0.106
38.61,-0.092,0.917,0.032
38.62,-0.14,1.014,0.131
38.63,-0.168,0.817,0.004
38.64,-0.36,1.089,-0.089
38.65,-0.185,1.056,-0.114
38.66,-0.122,0.895,0.068
38.67,-0.114,0.991,0.15
38.68,-0.266,0.808,-0.024
38.69,-0.394,1.187,-0.141
38.7,-0.143,0.895,-0.115
38.71,-0.132,1.052,0.079
38.72,-0.137,0.741,0.136
38.73,-0.333,1.024,-0.013
38.74,-0.266,1.134,-0.155
38.75,-0.193,0.852,-0.073
38.76,-0.084,1.022,0.127
38.77,-0.164,0.812,0.126
38.78,-0.383,1.192,-0.082
38.79,-0.278,0.815,-0.144
38.8,-0.155,1.073,-0.007
38.81,-0.152,0.945,0.187
38.82,-0.148,0.879,0.063
38.83,-0.344,1.062,-0.131
38.84,-0.211,0.799,-0.09
38.85,-0.181,1.302,0.057
38.86,-0.019,0.803,0.12
38.87,-0.272,1.023,0.026
38.88,-0.307,0.859,-0.138
38.89,-0.262,1.071,-0.098
38.9,-0.109,1.062,0.084
38.91,-0.033,0.797,0.118
38.92,-0.314,1.052,-0.014
38.93,-0.306,0.831,-0.108
38.94,-0.173,1.128,-0.071
38.95,-0.096,0.776,0.108
38.96,-0.145,1.087,0.116
38.97,-0.293,0.885,-0.065
38.98,-0.33,1.089,-0.157
38.99,-0.131,0.929,-0.018
39.0,-0.101,0.965,0.124
39.01,-0.232,1.024,0.134
39.02,-0.301,0.855,-0.095
39.03,-0.276,1.112,-0.085
39.04,-0.154,0.892,-0.008
39.05,-0.085,1.079,0.157
39.06,-0.189,0.808,0.032
39.07,-0.353,1.016,-0.108
39.08,-0.243,1.01,-0.087
39.09,-0.089,1.017,0.046
39.1,-0.081,0.964,0.117
39.11,-0.276,0.781,0.031
39.12,-0.367,1.132,-0.134
39.13,-0.124,0.905,-0.077
39.14,-0.18,1.13,0.055
39.15,-0.105,0.736,0.14
39.16,-0.298,1.025,-0.005
39.17,-0.3,1.063,-0.119
39.18,-0.155,0.842,-0.088
39.19,-0.139,1.067,0.117
39.2,-0.134,0.76,0.11
39.21,-0.373,1.204,-0.042
39.22,-0.278,0.812,-0.146
39.23,-0.216,1.05,-0.035
39.24,-0.096,0.941,0.152
39.25,-0.166,0.9,0.062
39.26,-0.357,1.049,-0.09
39.27,-0.233,0.813,-0.08
39.28,-0.186,1.245,0.018
39.29,-0.114,0.773,0.148
39.3,-0.193,1.021,0.044
39.31,-0.36,0.865,-0.116
39.32,-0.242,1.052,-0.066
39.33,-0.086,1.086,0.038
39.34,-0.044,0.795,0.119
39.35,-0.28,1.037,0.02
39.36,-0.332,0.859,-0.114
39.37,-0.183,1.197,-0.089
39.38,-0.117,0.812,0.077
39.39,-0.114,0.991,0.142
39.4,-0.321,0.956,-0.032
39.41,-0.307,1.019,-0.129
39.42,-0.222,1.027,-0.086
39.43,-0.023,0.764,0.07
39.44,-0.177,1.095,0.145
39.45,-0.28,0.906,-0.103
39.46,-0.385,1.118,-0.112
39.47,-0.163,0.833,-0.025
39.48,-0.075,1.041,0.155
39.49,-0.189,0.914,0.083
39.5,-0.295,0.943,-0.138
39.51,-0.283,1.071,-0.09
39.52,-0.114,0.929,0.048
39.53,-0.065,1.119,0.102
39.54,-0.194,0.756,0.047
39.55,-0.328,1.081,-0.147
39.56,-0.282,0.983,-0.039
39.57,-0.038,1.081,-0.003
39.58,-0.125,0.885,0.159
39.59,-0.243,0.826,-0.025
39.6,-0.391,1.145,-0.092
39.61,-0.17,0.856,-0.091
39.62,-0.116,1.125,0.064
39.63,-0.053,0.705,0.134
39.64,-0.375,1.081,-0.016
39.65,-0.244,0.882,-0.182
39.66,-0.287,0.956,-0.032
39.67,-0.062,1.022,0.103
39.68,-0.161,0.818,0.132
39.69,-0.396,1.145,-0.096
39.7,-0.254,0.769,-0.099
39.71,-0.212,1.219,-0.039
39.72,-0.054,0.839,0.165
39.73,-0.203,0.963,0.059
39.74,-0.282,0.95,-0.106
39.75,-0.235,0.92,-0.097
39.76,-0.135,1.167,0.026
39.77,-0.075,0.828,0.096
39.78,-0.2,1.007,0.043
39.79,-0.332,0.849,-0.133
39.8,-0.224,1.221,-0.045
39.81,-0.07,0.856,0.045
39.82,-0.13,1.028,0.141
39.83,-0.277,0.831,-0.032
39.84,-0.366,1.048,-0.096
39.85,-0.137,1.015,-0.075
39.86,-0.067,0.857,0.076
39.87,-0.161,1.035,0.154
39.88,-0.267,0.84,-0.034
39.89,-0.365,1.165,-0.141
39.9,-0.18,0.835,-0.073
39.91,-0.105,1.064,0.143
39.92,-0.157,0.859,0.08
39.93,-0.418,0.989,-0.042
39.94,-0.259,1.002,-0.138
39.95,-0.097,0.867,0.002
39.96,-0.14,1.13,0.154
39.97,-0.187,0.773,0.07
39.98,-0.335,1.093,-0.111
39.99,-0.173,0.893,-0.101
40.0,-0.191,1.133,0.022
40.01,-0.04,0.879,0.145
40.02,-0.224,0.844,0.038
40.03,-0.363,1.08,-0.125
40.04,-0.198,0.879,-0.065
40.05,-0.121,1.214,0.057
40.06,-0.101,0.676,0.147
40.07,-0.272,1.04,-0.002
40.08,-0.322,0.961,-0.1
40.09,-0.157,1.008,-0.083
40.1,-0.179,1.024,0.089
40.11,-0.147,0.761,0.113
40.12,-0.333,1.173,-0.048
40.13,-0.255,0.826,-0.134
40.14,-0.235,1.109,-0.05
40.15,-0.066,0.842,0.097
40.16,-0.205,1.024,0.115
40.17,-0.322,0.957,-0.064
40.18,-0.24,0.897,-0.137
40.19,-0.193,1.12,-0.025
40.2,-0.078,0.838,0.159
40.21,-0.173,1.07,0.052
40.22,-0.296,0.834,-0.109
40.23,-0.254,1.107,-0.09
40.24,-0.174,0.993,0.026
40.25,-0.028,1.002,0.13
40.26,-0.224,0.949,0.047
40.27,-0.299,0.85,-0.136
40.28,-0.239,1.184,-0.03
40.29,-0.078,0.915,0.032
40.3,-0.136,1.031,0.131
40.31,-0.24,0.792,0.016
40.32,-0.31,1.116,-0.137
40.33,-0.134,0.969,-0.102
40.34,-0.127,0.954,0.066
40.35,-0.185,0.895,0.139
40.36,-0.302,0.876,-0.014
40.37,-0.34,1.217,-0.133
40.38,-0.132,0.793,-0.07
40.39,-0.148,1.07,0.137
40.4,-0.202,0.795,0.111
40.41,-0.289,1.096,-0.076
40.42,-0.242,0.946,-0.165
40.43,-0.168,0.88,-0.019
40.44,-0.142,1.06,0.193
40.45,-0.166,0.771,0.059
40.46,-0.374,1.098,-0.103
40.47,-0.231,0.821,-0.098
40.48,-0.151,1.253,0.067
40.49,-0.058,0.795,0.108
40.5,-0.17,0.897,0.034
40.51,-0.367,1.01,-0.127
40.52,-0.164,0.943,-0.065
40.53,-0.086,1.147,0.032
40.54,-0.074,0.727,0.157
40.55,-0.351,1.112,-0.012
40.56,-0.307,0.867,-0.095
40.57,-0.162,1.122,-0.09
40.58,-0.11,0.865,0.079
40.59,-0.156,1.038,0.136
40.6,-0.306,0.965,-0.059
40.61,-0.27,0.914,-0.148
40.62,-0.212,1.035,-0.035
40.63,-0.112,0.812,0.173
40.64,-0.178,1.096,0.094
40.65,-0.267,0.821,-0.081
40.66,-0.278,1.117,-0.126
40.67,-0.229,0.953,0.048
40.68,-0.028,0.996,0.126
40.69,-0.204,0.909,0.041
40.7,-0.322,0.91,-0.102
40.71,-0.279,1.17,-0.052
40.72,-0.016,0.887,0.026
40.73,-0.095,1.043,0.144
40.74,-0.211,0.772,0.013
40.75,-0.384,1.145,-0.104
40.76,-0.168,0.969,-0.115
40.77,-0.135,0.999,0.058
40.78,-0.133,0.889,0.159
40.79,-0.287,0.886,-0.016
40.8,-0.365,1.158,-0.13
40.81,-0.229,0.813,-0.042
40.82,-0.069,1.118,0.089
40.83,-0.075,0.796,0.096
40.84,-0.355,1.097,-0.056
40.85,-0.266,0.917,-0.132
40.86,-0.186,0.984,-0.062
40.87,-0.138,1.037,0.138
40.88,-0.182,0.772,0.088
40.89,-0.363,1.155,-0.081
40.9,-0.22,0.814,-0.11
40.91,-0.217,1.184,0.024
40.92,-0.055,0.825,0.15
40.93,-0.188,0.983,0.065
40.94,-0.29,0.983,-0.135
40.95,-0.266,0.898,-0.076
40.96,-0.181,1.162,0.046
40.97,-0.06,0.812,0.165
40.98,-0.243,1.073,0.013
40.99,-0.341,0.784,-0.129
41.0,-0.223,1.154,-0.078
41.01,-0.097,1.015,0.063
41.02,-0.069,0.898,0.102
41.03,-0.26,0.983,0.013
41.04,-0.296,0.909,-0.116
41.05,-0.23,1.186,-0.056
41.06,-0.068,0.79,0.057
41.07,-0.169,1.023,0.115
41.08,-0.3,0.852,-0.021
41.09,-0.347,1.122,-0.109
41.1,-0.137,0.948,-0.091
41.11,-0.086,0.879,0.111
41.12,-0.212,0.965,0.101
41.13,-0.278,0.93,-0.063
41.14,-0.293,1.167,-0.133
41.15,-0.182,0.786,-0.05
41.16,-0.146,1.11,0.176
41.17,-0.135,0.854,0.07
41.18,-0.367,1.017,-0.103
41.19,-0.201,0.956,-0.126
41.2,-0.192,1.002,0.059
41.21,-0.029,1.038,0.097
41.22,-0.223,0.74,0.062
41.23,-0.352,1.159,-0.129
41.24,-0.183,0.942,-0.045
41.25,-0.074,1.179,0.022
41.26,-0.076,0.76,0.125
41.27,-0.299,0.949,-0.002
41.28,-0.35,1.089,-0.072
41.29,-0.112,0.916,-0.122
41.3,-0.141,1.1,0.081
41.31,-0.088,0.669,0.146
41.32,-0.366,1.157,-0.001
41.33,-0.257,0.866,-0.165
41.34,-0.249,1.039,-0.078
41.35,-0.084,0.876,0.098
41.36,-0.15,0.907,0.128
41.37,-0.334,1.103,-0.065
41.38,-0.261,0.77,-0.115
41.39,-0.206,1.136,-0.025
41.4,-0.078,0.833,0.155
41.41,-0.226,1.073,0.033
41.42,-0.267,0.769,-0.115
41.43,-0.254,1.117,-0.113
41.44,-0.123,1.026,0.05
41.45,-0.067,0.99,0.116
41.46,-0.236,0.934,0.066
41.47,-0.34,0.855,-0.104
41.48,-0.213,1.179,-0.06
41.49,-0.107,0.895,0.011
41.5,-0.133,1.021,0.128
41.51,-0.233,0.823,0.026
41.52,-0.339,1.131,-0.125
41.53,-0.185,0.998,-0.109
41.54,-0.138,0.941,0.068
41.55,-0.149,0.931,0.165
41.56,-0.296,0.898,-0.031
41.57,-0.281,1.165,-0.151
41.58,-0.212,0.817,-0.048
41.59,-0.078,1.081,0.066
41.6,-0.16,0.826,0.154
41.61,-0.288,1.059,-0.09
41.62,-0.359,0.91,-0.125
41.63,-0.151,0.905,-0.017
41.64,-0.12,1.129,0.166
41.65,-0.116,0.793,0.077
41.66,-0.365,1.119,-0.092
41.67,-0.215,0.8,-0.107
41.68,-0.173,1.198,-0.005
41.69,-0.058,0.892,0.152
41.7,-0.24,0.908,0.02
41.71,-0.356,0.983,-0.093
41.72,-0.176,0.924,-0.088
41.73,-0.148,1.238,0.046
41.74,-0.027,0.694,0.145
41.75,-0.281,1.077,0.027
41.76,-0.31,0.794,-0.133
41.77,-0.22,1.147,-0.063
41.78,-0.094,0.982,0.041
41.79,-0.076,0.854,0.131
41.8,-0.299,1.032,0.019
41.81,-0.298,0.874,-0.105
41.82,-0.228,1.121,-0.08
41.83,-0.099,0.801,0.096
41.84,-0.135,1.082,0.092
41.85,-0.346,0.892,-0.038
41.86,-0.265,1.04,-0.127
41.87,-0.218,0.967,-0.058
41.88,-0.035,0.84,0.113
41.89,-0.231,1.057,0.135
41.9,-0.292,0.833,-0.105
41.91,-0.338,1.114,-0.078
41.92,-0.144,0.862,-0.022
41.93,-0.118,1.13,0.141
41.94,-0.164,0.856,0.051
41.95,-0.333,0.955,-0.108
41.96,-0.199,0.962,-0.108
41.97,-0.091,0.995,0.044
41.98,-0.098,1.119,0.113
41.99,-0.165,0.742,0.004
42.0,-0.372,1.067,-0.119
42.01,-0.211,0.862,-0.045
42.02,-0.108,1.19,0.074
42.03,-0.057,0.876,0.086
42.04,-0.325,0.895,-0.008
42.05,-0.297,1.045,-0.13
42.06,-0.154,0.963,-0.02
42.07,-0.038,1.139,0.055
42.08,-0.141,0.656,0.126
42.09,-0.358,1.143,-0.007
42.1,-0.288,0.948,-0.115
42.11,-0.214,0.999,-0.099
42.12,-0.112,0.897,0.122
42.13,-0.182,0.856,0.129
42.14,-0.343,1.13,-0.084
42.15,-0.26,0.763,-0.131
42.16,-0.217,1.16,0.001
42.17,-0.077,0.843,0.152
42.18,-0.17,1.027,0.038
42.19,-0.288,0.888,-0.104
42.2,-0.284,0.983,-0.12
42.21,-0.167,1.11,0.041
42.22,0.002,0.844,0.125
42.23,-0.267,0.959,0.042
42.24,-0.383,0.873,-0.081
42.25,-0.19,1.192,-0.092
42.26,-0.079,0.849,0.035
42.27,-0.114,1.025,0.125
42.28,-0.243,0.786,-0.031
42.29,-0.375,1.108,-0.086
42.3,-0.172,1.006,-0.081
42.31,-0.079,0.864,0.08
42.32,-0.212,0.937,0.144
42.33,-0.332,0.874,-0.03
42.34,-0.336,1.198,-0.109
42.35,-0.186,0.83,-0.065
42.36,-0.101,1.053,0.136
42.37,-0.163,0.81,0.073
42.38,-0.336,1.05,-0.081
42.39,-0.278,0.957,-0.149
42.4,-0.173,0.884,-0.002
42.41,-0.135,1.09,0.149
42.42,-0.178,0.751,0.081
42.43,-0.344,1.121,-0.081
42.44,-0.25,0.833,-0.084
42.45,-0.191,1.171,0.041
42.46,-0.029,0.865,0.137
42.47,-0.207,0.888,0.02
42.48,-0.34,0.999,-0.109
42.49,-0.208,0.928,-0.057
42.5,-0.106,1.208,0.008
42.51,-0.121,0.667,0.152
42.52,-0.264,1.066,0.028
42.53,-0.374,0.885,-0.13
42.54,-0.145,1.085,-0.067
42.55,-0.136,0.971,0.066
42.56,-0.052,0.824,0.108
42.57,-0.365,1.096,-0.004
42.58,-0.244,0.873,-0.114
42.59,-0.246,1.114,-0.08
42.6,-0.095,0.795,0.142
42.61,-0.154,1.055,0.129
42.62,-0.282,0.928,-0.074
42.63,-0.323,0.972,-0.115
42.64,-0.209,1.001,-0.043
42.65,-0.076,0.886,0.145
42.66,-0.215,1.078,0.061
42.67,-0.283,0.785,-0.087
42.68,-0.308,1.131,-0.081
42.69,-0.213,0.927,0.041
42.7,0.003,1.012,0.116
42.71,-0.181,0.868,0.044
42.72,-0.356,0.931,-0.105
42.73,-0.21,1.116,-0.074
42.74,-0.056,0.968,-0.001
42.75,-0.121,0.972,0.148
42.76,-0.225,0.76,-0.002
42.77,-0.373,1.225,-0.036
42.78,-0.195,0.933,-0.134
42.79,-0.111,0.992,0.07
42.8,-0.161,0.84,0.142
42.81,-0.315,0.92,0.0
42.82,-0.327,1.125,-0.121
42.83,-0.132,0.888,-0.103
42.84,-0.093,1.122,0.068
42.85,-0.131,0.712,0.097
42.86,-0.38,1.142,-0.011
42.87,-0.252,0.926,-0.15
42.88,-0.205,0.976,-0.035
42.89,-0.143,0.973,0.145
42.9,-0.223,0.859,0.113
42.91,-0.176,1.18,0.06
42.92,-0.041,0.838,0.085
42.93,-0.307,1.052,0.041
42.94,-0.272,0.761,-0.161
42.95,-0.247,1.233,-0.002
42.96,-0.025,0.926,-0.001
42.97,-0.149,0.913,0.141
42.98,-0.283,0.941,-0.009
42.99,-0.296,1.093,-0.12
43.0,-0.214,0.955,-0.107
43.01,-0.097,0.893,0.107
43.02,-0.162,1.022,0.092
43.03,-0.347,0.859,-0.028
43.04,-0.336,1.144,-0.161
43.05,-0.144,0.775,-0.051
43.06,-0.09,1.098,0.154
43.07,-0.134,0.898,0.11
43.08,-0.32,1.017,-0.11
43.09,-0.24,0.97,-0.134
43.1,-0.209,0.916,-0.011
43.11,-0.107,1.102,0.154
43.12,-0.158,0.773,0.038
43.13,-0.393,1.077,-0.071
43.14,-0.164,0.821,-0.144
43.15,-0.115,1.23,0.049
43.16,-0.062,0.837,0.12
43.17,-0.219,0.852,0.041
43.18,-0.328,1.059,-0.113
43.19,-0.21,0.924,-0.071
43.2,-0.115,1.214,0.031
43.21,-0.032,0.696,0.101
43.22,-0.333,1.07,0.007
43.23,-0.323,0.847,-0.087
43.24,-0.187,1.111,-0.092
43.25,-0.084,0.989,0.059
43.26,-0.128,0.768,0.123
43.27,-0.317,1.077,-0.019
43.28,-0.268,0.888,-0.107
43.29,-0.221,1.147,-0.073
43.3,-0.058,0.754,0.101
43.31,-0.174,1.035,0.109
43.32,-0.309,0.927,-0.07
43.33,-0.282,0.998,-0.146
43.34,-0.204,1.021,-0.048
43.35,-0.052,0.818,0.115
43.36,-0.241,1.097,0.135
43.37,-0.252,0.803,-0.113
43.38,-0.31,1.124,-0.108
43.39,-0.135,0.859,-0.019
43.4,-0.154,1.03,0.177
43.41,-0.179,0.917,0.048
43.42,-0.345,0.921,-0.099
43.43,-0.233,1.04,-0.102
43.44,-0.117,0.959,0.046
43.45,-0.07,1.087,0.127
43.46,-0.214,0.736,0.026
43.47,-0.331,1.097,-0.111
43.48,-0.233,1.012,-0.05
43.49,-0.069,1.084,-0.02
43.5,-0.156,0.843,0.145
43.51,-0.209,0.84,-0.016
43.52,-0.32,1.168,-0.129
43.53,-0.205,0.888,-0.075
43.54,-0.109,1.129,0.053
43.55,-0.135,0.714,0.155
43.56,-0.3,1.062,-0.038
43.57,-0.286,0.913,-0.127
43.58,-0.266,0.957,-0.061
43.59,-0.055,0.983,0.07
43.6,-0.178,0.883,0.146
43.61,-0.315,1.153,-0.064
43.62,-0.268,0.775,-0.167
43.63,-0.221,1.139,-0.016
43.64,-0.096,0.858,0.131
43.65,-0.197,1.01,0.11
43.66,-0.284,0.936,-0.104
43.67,-0.302,0.882,-0.085
43.68,-0.164,1.091,-0.006
43.69,-0.104,0.877,0.148
43.7,-0.213,1.08,0.036
43.71,-0.307,0.785,-0.114
43.72,-0.198,1.097,-0.08
43.73,-0.157,1.013,0.031
43.74,-0.062,0.99,0.127
43.75,-0.167,0.941,0.027
43.76,-0.347,0.834,-0.108
43.77,-0.224,1.127,-0.074
43.78,-0.103,0.938,0.055
43.79,-0.09,1.062,0.122
43.8,-0.219,0.8,-0.028
43.81,-0.395,1.171,-0.098
43.82,-0.127,0.908,-0.057
43.83,-0.088,1.067,0.044
43.84,-0.17,0.787,0.124
43.85,-0.346,1.019,-0.019
43.86,-0.254,1.066,-0.13
43.87,-0.23,0.856,-0.046
43.88,-0.126,1.073,0.136
43.89,-0.129,0.794,0.131
43.9,-0.362,1.131,-0.115
43.91,-0.293,0.785,-0.134
43.92,-0.211,1.136,0.003
43.93,-0.01,1.0,0.119
43.94,-0.127,0.792,0.039
43.95,-0.391,1.098,-0.051
43.96,-0.185,0.837,-0.086
43.97,-0.201,1.266,0.017
43.98,-0.013,0.779,0.124
43.99,-0.236,1.025,0.021
44.0,-0.333,0.851,-0.129
44.01,-0.255,1.063,-0.025
44.02,-0.076,1.043,0.001
44.03,-0.019,0.781,0.143
44.04,-0.336,1.086,0.048
44.05,-0.245,0.76,-0.136
44.06,-0.274,1.234,-0.065
44.07,-0.027,0.857,0.017
44.08,-0.123,0.972,0.134
44.09,-0.301,0.905,0.001
44.1,-0.283,0.993,-0.118
44.11,-0.18,1.054,-0.082
44.12,-0.045,0.837,0.082
44.13,-0.168,1.096,0.115
44.14,-0.34,0.856,-0.033
44.15,-0.332,1.104,-0.159
44.16,-0.147,0.851,-0.047
44.17,-0.129,1.053,0.131
44.18,-0.18,0.942,0.1
44.19,-0.317,0.924,-0.074
44.2,-0.307,1.065,-0.101
44.21,-0.135,0.858,-0.046
44.22,-0.103,1.145,0.146
44.23,-0.194,0.795,0.077
44.24,-0.365,1.094,-0.102
44.25,-0.21,0.855,-0.123
44.26,-0.197,1.103,0.057
44.27,-0.105,1.014,0.132
44.28,-0.168,0.808,0.033
44.29,-0.354,1.097,-0.104
44.3,-0.16,0.847,-0.103
44.31,-0.202,1.232,0.053
44.32,-0.002,0.749,0.11
44.33,-0.275,0.988,0.022
44.34,-0.303,0.922,-0.116
44.35,-0.254,1.047,-0.03
44.36,-0.12,1.097,0.025
44.37,-0.086,0.72,0.117
44.38,-0.336,1.109,-0.001
44.39,-0.294,0.867,-0.11
44.4,-0.171,1.149,-0.117
44.41,-0.101,0.847,0.098
44.42,-0.153,0.962,0.103
44.43,-0.333,1.004,0.002
44.44,-0.277,0.884,-0.143
44.45,-0.245,1.081,-0.029
44.46,-0.082,0.826,0.106
44.47,-0.26,1.144,0.125
44.48,-0.235,0.829,-0.113
44.49,-0.282,1.069,-0.152
44.5,-0.228,0.938,-0.021
44.51,-0.112,0.981,0.148
44.52,-0.18,1.015,0.11
44.53,-0.308,0.855,-0.129
44.54,-0.304,1.108,-0.088
44.55,-0.156,0.909,0.045
44.56,-0.055,1.128,0.106
44.57,-0.174,0.767,0.02
44.58,-0.33,1.002,-0.097
44.59,-0.214,1.008,-0.114
44.6,-0.119,1.075,0.074
44.61,-0.083,0.953,0.098
44.62,-0.243,0.793,0.068
44.63,-0.312,1.082,-0.088
44.64,-0.177,0.885,-0.082
44.65,-0.176,1.145,0.102
44.66,-0.05,0.694,0.096
44.67,-0.374,1.145,0.013
44.68,-0.27,0.899,-0.172
44.69,-0.214,1.001,-0.036
44.7,-0.074,0.958,0.072
44.71,-0.171,0.892,0.128
44.72,-0.352,1.117,-0.051
44.73,-0.213,0.787,-0.139
44.74,-0.213,1.18,-0.047
44.75,-0.104,0.797,0.1
44.76,-0.268,1.048,0.108
44.77,-0.299,0.899,-0.076
44.78,-0.199,0.951,-0.137
44.79,-0.173,1.074,-0.022
44.8,-0.083,0.813,0.129
44.81,-0.265,1.084,0.096
44.82,-0.241,0.807,-0.092
44.83,-0.217,1.146,-0.126
44.84,-0.167,0.97,0.016
44.85,-0.083,1.04,0.146
44.86,-0.193,0.93,0.038
44.87,-0.313,0.879,-0.105
44.88,-0.23,1.083,-0.068
44.89,-0.092,0.904,0.021
44.9,-0.142,1.068,0.128
44.91,-0.207,0.805,0.035
44.92,-0.292,1.132,-0.131
44.93,-0.235,0.941,-0.09
44.94,-0.108,1.029,0.041
44.95,-0.085,0.912,0.136
44.96,-0.271,0.864,-0.018
44.97,-0.389,1.11,-0.112
44.98,-0.125,0.867,-0.08
44.99,-0.098,1.127,0.103
45.0,-0.076,0.733,0.067
45.01,-0.39,1.142,0.018
45.02,-0.29,0.934,-0.154
45.03,-0.192,0.962,-0.061
45.04,-0.045,1.043,0.13
45.05,-0.188,0.804,0.081
45.06,-0.361,1.113,-0.05
45.07,-0.243,0.81,-0.09
45.08,-0.143,1.204,-0.01
45.09,-0.11,0.841,0.118
45.1,-0.208,0.958,0.062
45.11,-0.292,0.951,-0.097
45.12,-0.217,0.921,-0.105
45.13,-0.194,1.135,0.015
45.14,-0.092,0.805,0.15
45.15,-0.226,1.069,0.064
45.16,-0.265,0.767,-0.138
45.17,-0.261,1.157,-0.067
45.18,-0.127,0.961,0.033
45.19,-0.051,0.932,0.126
45.2,-0.201,1.009,0.002
45.21,-0.307,0.834,-0.122
45.22,-0.271,1.149,-0.075
45.23,-0.078,0.864,0.083
45.24,-0.118,1.037,0.109
45.25,-0.269,0.816,-0.015
45.26,-0.355,1.088,-0.114
45.27,-0.17,0.992,-0.054
45.28,-0.036,0.916,0.073
45.29,-0.171,0.934,0.105
45.3,-0.353,0.838,-0.037
45.31,-0.369,1.184,-0.095
45.32,-0.102,0.826,-0.077
45.33,-0.093,1.082,0.137
45.34,-0.178,0.798,0.11
45.35,-0.316,1.07,-0.033
45.36,-0.272,1.012,-0.119
45.37,-0.119,0.903,-0.076
45.38,-0.19,1.024,0.157
45.39,-0.179,0.813,0.082
45.4,-0.335,1.137,-0.085
45.41,-0.217,0.834,-0.123
45.42,-0.213,1.202,0.035
45.43,-0.057,0.822,0.131
45.44,-0.188,0.925,0.031
45.45,-0.302,0.927,-0.138
45.46,-0.238,1.083,-0.062
45.47,-0.129,1.061,0.041
45.48,-0.018,0.761,0.116
45.49,-0.332,1.084,-0.004
45.5,-0.308,0.811,-0.089
45.51,-0.225,1.168,-0.072
45.52,-0.074,0.857,0.085
45.53,-0.139,1.003,0.116
45.54,-0.325,0.947,-0.005
45.55,-0.257,0.927,-0.147
45.56,-0.219,1.078,-0.027
45.57,-0.062,0.844,0.1
45.58,-0.25,1.12,0.128
45.59,-0.256,0.832,-0.064
45.6,-0.351,1.129,-0.107
45.61,-0.162,0.894,-0.009
45.62,-0.074,0.999,0.108
45.63,-0.246,0.977,0.13
45.64,-0.259,0.904,-0.117
45.65,-0.298,1.059,-0.091
45.66,-0.146,0.91,-0.018
45.67,-0.17,1.161,0.143
45.68,-0.142,0.731,0.046
45.69,-0.342,1.09,-0.071
45.7,-0.216,0.917,-0.109
45.71,-0.132,1.057,0.034
45.72,-0.052,0.987,0.123
45.73,-0.2,0.793,0.036
45.74,-0.36,1.097,-0.149
45.75,-0.214,0.91,-0.033
45.76,-0.149,1.221,0.009
45.77,-0.06,0.725,0.165
45.78,-0.273,1.007,-0.01
45.79,-0.338,0.918,-0.133
45.8,-0.198,0.956,-0.092
45.81,-0.103,1.105,0.093
45.82,-0.052,0.752,0.098
45.83,-0.364,1.103,-0.041
45.84,-0.324,0.836,-0.102
45.85,-0.222,1.158,-0.066
45.86,-0.076,0.833,0.081
45.87,-0.191,0.969,0.144
45.88,-0.309,1.016,-0.037
45.89,-0.289,0.892,-0.12
45.9,-0.173,1.1,-0.053
45.91,-0.092,0.787,0.112
45.92,-0.234,1.095,0.096
45.93,-0.26,0.843,-0.084
45.94,-0.245,1.087,-0.113
45.95,-0.175,0.924,-0.015
45.96,-0.121,0.936,0.144
45.97,-0.222,1.042,0.1
45.98,-0.272,0.85,-0.128
45.99,-0.243,1.083,-0.093
46.0,-0.161,0.899,0.003
46.01,-0.099,1.127,0.135
46.02,-0.156,0.805,0.012
46.03,-0.355,1.014,-0.094
46.04,-0.239,0.99,-0.093
46.05,-0.063,1.048,0.048
46.06,-0.119,1.001,0.138
46.07,-0.226,0.764,-0.017
46.08,-0.402,1.153,-0.098
46.09,-0.165,0.888,-0.076
46.1,-0.109,1.144,0.053
46.11,-0.144,0.743,0.145
46.12,-0.332,0.983,-0.004
46.13,-0.296,1.054,-0.134
46.14,-0.134,0.89,-0.083
46.15,-0.131,1.065,0.09
46.16,-0.131,0.733,0.14
46.17,-0.368,1.199,-0.045
46.18,-0.219,0.815,-0.169
46.19,-0.195,1.098,-0.038
46.2,-0.131,0.907,0.126
46.21,-0.144,0.91,0.11
46.22,-0.308,1.094,-0.077
46.23,-0.223,0.802,-0.122
46.24,-0.258,1.175,0.026
46.25,-0.01,0.827,0.124
46.26,-0.244,1.09,0.043
46.27,-0.277,0.803,-0.121
46.28,-0.277,1.19,-0.042
46.29,-0.058,0.965,0.002
46.3,-0.103,0.945,0.152
46.31,-0.192,0.903,0.009
46.32,-0.365,0.958,-0.097
46.33,-0.179,1.135,-0.133
46.34,-0.136,0.82,0.055
46.35,-0.104,1.034,0.131
46.36,-0.334,0.84,0.008
46.37,-0.357,1.162,-0.108
46.38,-0.182,0.916,-0.085
46.39,-0.083,0.975,0.097
46.4,-0.144,0.894,0.101
46.41,-0.354,0.891,-0.011
46.42,-0.245,1.161,-0.159
46.43,-0.191,0.827,-0.069
46.44,-0.16,1.04,0.115
46.45,-0.186,0.801,0.146
46.46,-0.327,1.103,-0.103
46.47,-0.329,0.868,-0.108
46.48,-0.149,0.967,-0.018
46.49,-0.146,1.113,0.184
46.5,-0.094,0.767,0.059
46.51,-0.372,1.091,-0.096
46.52,-0.176,0.786,-0.103
46.53,-0.182,1.257,0.043
46.54,-0.049,0.832,0.125
46.55,-0.209,0.94,0.061
46.56,-0.348,0.944,-0.119
46.57,-0.242,0.952,-0.031
46.58,-0.083,1.233,0.012
46.59,-0.072,0.715,0.121
46.6,-0.265,1.037,0.021
46.61,-0.336,0.902,-0.113
46.62,-0.164,1.167,-0.14
46.63,-0.144,0.858,0.065
46.64,-0.08,0.874,0.15
46.65,-0.383,1.01,0.037
46.66,-0.25,0.883,-0.119
46.67,-0.287,1.103,-0.083
46.68,-0.07,0.778,0.067
46.69,-0.174,1.105,0.111
46.7,-0.271,0.917,-0.017
46.71,-0.29,1.057,-0.178
46.72,-0.21,0.926,-0.04
46.73,-0.106,0.922,0.114
46.74,-0.229,1.053,0.133
46.75,-0.253,0.875,-0.061
46.76,-0.38,1.135,-0.116
46.77,-0.188,0.797,-0.024
46.78,-0.127,1.131,0.163
46.79,-0.14,0.849,0.043
46.8,-0.357,0.971,-0.08
46.81,-0.23,0.968,-0.108
46.82,-0.14,0.99,0.014
46.83,-0.153,1.082,0.175
46.84,-0.123,0.782,0.015
46.85,-0.409,1.131,-0.098
46.86,-0.237,0.844,-0.074
46.87,-0.094,1.231,0.057
46.88,-0.094,0.843,0.089
46.89,-0.267,0.859,0.044
46.9,-0.349,1.027,-0.131
46.91,-0.103,0.961,-0.067
46.92,-0.139,1.18,0.045
46.93,-0.145,0.67,0.142
46.94,-0.285,1.102,0.021
46.95,-0.342,0.869,-0.133
46.96,-0.149,1.054,-0.089
46.97,-0.142,0.962,0.075
46.98,-0.13,0.823,0.124
46.99,-0.306,1.088,-0.031
47.0,-0.215,0.844,-0.15
47.01,-0.237,1.125,-0.031
47.02,-0.065,0.801,0.124
47.03,-0.203,1.086,0.096
47.04,-0.277,0.902,-0.059
47.05,-0.278,0.984,-0.129
47.06,-0.196,0.984,-0.051
47.07,-0.08,0.855,0.157
47.08,-0.192,1.078,0.088
47.09,-0.301,0.826,-0.117
47.1,-0.271,1.085,-0.104
47.11,-0.106,0.882,0.054
47.12,-0.113,1.154,0.132
47.13,-0.216,0.779,0.019
47.14,-0.386,1.028,-0.088
47.15,-0.205,0.986,-0.084
47.16,-0.131,1.086,0.054
47.17,-0.12,0.994,0.107
47.18,-0.225,0.778,0.013
47.19,-0.334,1.114,-0.126
47.2,-0.205,0.89,-0.035
47.21,-0.082,1.183,0.05
47.22,-0.107,0.724,0.109
47.23,-0.336,0.994,-0.005
47.24,-0.316,1.016,-0.102
47.25,-0.137,0.971,-0.071
47.26,-0.125,1.04,0.089
47.27,-0.117,0.719,0.089
47.28,-0.385,1.187,-0.014
47.29,-0.246,0.842,-0.158
47.3,-0.198,1.1,-0.048
47.31,-0.129,0.893,0.12
47.32,-0.241,0.937,0.149
47.33,-0.254,1.05,-0.077
47.34,-0.247,0.867,-0.132
47.35,-0.238,1.141,-0.018
47.36,-0.083,0.812,0.178
47.37,-0.155,1.098,0.03
47.38,-0.311,0.82,-0.091
47.39,-0.258,1.033,-0.109
47.4,-0.177,1.035,0.039
47.41,-0.007,0.962,0.142
47.42,-0.28,0.976,0.026
47.43,-0.378,0.783,-0.084
47.44,-0.251,1.183,-0.062
47.45,-0.03,0.918,0.037
47.46,-0.11,1.014,0.118
47.47,-0.257,0.805,0.004
47.48,-0.378,1.081,-0.077
47.49,-0.086,1.019,-0.121
47.5,-0.128,0.877,0.067
47.51,-0.163,0.972,0.161
47.52,-0.343,0.856,-0.001
47.53,-0.319,1.183,-0.096
47.54,-0.134,0.885,-0.104
47.55,-0.194,1.057,0.055
47.56,-0.138,0.809,0.112
47.57,-0.298,1.059,-0.016
47.58,-0.297,1.029,-0.135
47.59,-0.205,0.841,-0.034
47.6,-0.103,1.106,0.097
47.61,-0.232,0.788,0.136
47.62,-0.282,1.101,-0.099
47.63,-0.262,0.842,-0.094
47.64,-0.172,1.109,-0.024
47.65,-0.112,0.907,0.135
47.66,-0.18,0.854,0.071
47.67,-0.366,1.101,-0.051
47.68,-0.166,0.851,-0.113
47.69,-0.189,1.24,0.039
47.7,-0.01,0.753,0.11
47.71,-0.268,1.047,0.047
47.72,-0.339,0.855,-0.156
47.73,-0.246,1.037,-0.069
47.74,-0.083,1.096,0.002
47.75,-0.07,0.766,0.145
47.76,-0.238,1.015,0.011
47.77,-0.377,0.843,-0.083
47.78,-0.171,1.179,-0.085
47.79,-0.103,0.894,0.068
47.8,-0.087,0.978,0.112
47.81,-0.293,0.946,-0.023
47.82,-0.337,0.97,-0.11
47.83,-0.203,1.057,-0.074
47.84,-0.052,0.857,0.083
47.85,-0.244,1.095,0.142
47.86,-0.252,0.826,-0.036
47.87,-0.318,1.182,-0.144
47.88,-0.177,0.854,-0.054
47.89,-0.104,0.966,0.096
47.9,-0.21,0.954,0.108
47.91,-0.301,0.924,-0.075
47.92,-0.235,0.947,-0.109
47.93,-0.165,0.968,0.038
47.94,-0.128,1.073,0.13
47.95,-0.216,0.792,0.061
47.96,-0.328,1.111,-0.132
47.97,-0.23,0.84,-0.077
47.98,-0.13,1.211,0.031
47.99,-0.048,0.844,0.149
48.0,-0.193,0.913,0.005
48.01,-0.361,0.979,-0.119
48.02,-0.219,0.93,-0.057
48.03,-0.065,1.209,0.032
48.04,-0.075,0.695,0.121
48.05,-0.288,1.099,0.005
48.06,-0.296,0.902,-0.111
48.07,-0.141,1.106,-0.095
48.08,-0.113,0.916,0.072
48.09,-0.124,0.845,0.124
48.1,-0.367,1.096,0.003
48.11,-0.254,0.862,-0.134
48.12,-0.221,1.146,-0.041
48.13,-0.085,0.801,0.084
48.14,-0.232,1.067,0.102
48.15,-0.254,0.919,-0.046
48.16,-0.236,1.015,-0.135
48.17,-0.214,0.998,-0.062
48.18,-0.09,0.854,0.153
48.19,-0.196,1.06,0.083
48.2,-0.25,0.822,-0.098
