t,ax,ay,az
0.0,-0.094,0.804,0.156
0.01,-0.351,1.097,-0.058
0.02,-0.231,0.812,-0.197
0.03,-0.213,1.155,-0.041
0.04,-0.088,0.788,0.149
0.05,-0.116,1.061,0.106
0.06,-0.334,0.9,-0.174
0.07,-0.254,0.975,-0.094
0.08,-0.1,1.134,0.066
0.09,-0.145,0.734,0.084
0.1,-0.427,1.192,-0.176
0.11,-0.186,0.819,-0.059
0.12,-0.079,1.224,0.103
0.13,-0.095,0.758,0.187
0.14,-0.298,0.905,-0.056
0.15,-0.357,1.105,-0.115
0.16,-0.136,0.91,-0.065
0.17,-0.173,1.108,0.096
0.18,-0.084,0.662,0.155
0.19,-0.373,1.191,-0.129
0.2,-0.23,0.822,-0.156
0.21,-0.247,1.083,0.071
0.22,0.005,0.765,0.142
0.23,-0.264,0.934,0.009
0.24,-0.391,1.024,-0.134
0.25,-0.098,0.965,-0.079
0.26,-0.165,1.145,0.044
0.27,-0.124,0.612,0.188
0.28,-0.295,1.203,-0.06
0.29,-0.302,0.762,-0.152
0.3,-0.292,1.062,-0.031
0.31,-0.035,0.965,0.173
0.32,-0.115,0.857,0.061
0.33,-0.375,1.07,-0.146
0.34,-0.262,0.793,-0.11
0.35,-0.106,1.307,0.059
0.36,0.024,0.675,0.103
0.37,-0.265,1.024,0.022
0.38,-0.322,0.903,-0.096
0.39,-0.218,1.1,-0.072
0.4,-0.165,0.927,0.069
0.41,-0.062,0.718,0.129
0.42,-0.392,1.18,-0.071
0.43,-0.24,0.727,-0.201
0.44,-0.232,1.162,0.0
0.45,-0.049,0.869,0.173
0.46,-0.171,0.982,0.087
0.47,-0.308,0.928,-0.145
0.48,-0.208,0.927,-0.098
0.49,-0.097,1.208,0.043
0.5,-0.083,0.709,0.156
0.51,-0.271,1.073,0.036
0.52,-0.361,0.827,-0.138
0.53,-0.2,1.199,-0.072
0.54,-0.162,0.834,0.068
0.55,-0.093,0.851,0.189
0.56,-0.344,1.089,-0.058
0.57,-0.309,0.802,-0.16
0.58,-0.217,1.096,-0.052
0.59,-0.052,0.857,0.171
0.6,-0.211,1.092,0.09
0.61,-0.292,0.815,-0.16
0.62,-0.266,1.076,-0.069
0.63,-0.107,1.098,0.067
0.64,-0.084,0.809,0.168
0.65,-0.282,1.03,0.01
0.66,-0.339,0.82,-0.157
0.67,-0.152,1.262,-0.086
0.68,-0.079,0.791,0.06
0.69,-0.202,1.006,0.168
0.7,-0.28,0.926,-0.064
0.71,-0.308,1.023,-0.172
0.72,-0.241,1.027,-0.025
0.73,-0.088,0.858,0.18
0.74,-0.178,1.111,0.129
0.75,-0.321,0.781,-0.204
0.76,-0.287,1.106,-0.097
0.77,-0.101,0.987,0.071
0.78,-0.044,0.982,0.149
0.79,-0.181,0.885,0.005
0.8,-0.358,0.91,-0.14
0.81,-0.201,1.222,-0.024
0.82,-0.114,0.798,0.076
0.83,-0.108,1.02,0.145
0.84,-0.277,0.873,-0.084
0.85,-0.308,1.113,-0.202
0.86,-0.154,0.884,-0.029
0.87,-0.121,0.988,0.216
0.88,-0.124,0.973,0.081
0.89,-0.339,0.848,-0.139
0.9,-0.315,1.235,-0.037
0.91,-0.123,0.884,0.04
0.92,-0.049,0.972,0.132
0.93,-0.235,0.814,0.008
0.94,-0.368,1.084,-0.15
0.95,-0.142,1.064,-0.063
0.96,-0.198,0.871,0.114
0.97,-0.118,0.971,0.159
0.98,-0.283,0.857,-0.073
0.99,-0.338,1.213,-0.13
1.0,-0.148,0.828,-0.017
1.01,-0.105,1.137,0.202
1.02,-0.121,0.737,0.017
1.03,-0.356,1.106,-0.167
1.04,-0.22,1.059,-0.067
1.05,-0.116,0.992,0.013
1.06,-0.098,0.88,0.16
1.07,-0.24,0.819,0.039
1.08,-0.399,1.217,-0.161
1.09,-0.134,0.799,-0.074
1.1,-0.115,1.126,0.139
1.11,-0.093,0.751,0.129
1.12,-0.376,1.005,-0.123
1.13,-0.271,0.985,-0.15
1.14,-0.195,0.918,0.005
1.15,-0.068,1.117,0.171
1.16,-0.081,0.687,0.03
1.17,-0.452,1.176,-0.104
1.18,-0.131,0.923,-0.065
1.19,-0.182,1.221,0.063
1.2,-0.096,0.746,0.151
1.21,-0.256,0.857,-0.026
1.22,-0.402,1.212,-0.106
1.23,-0.094,0.865,-0.068
1.24,-0.184,1.091,0.089
1.25,-0.129,0.664,0.174
1.26,-0.365,1.156,-0.09
1.27,-0.314,0.852,-0.159
1.28,-0.187,1.02,-0.007
1.29,-0.11,1.054,0.177
1.3,-0.091,0.742,0.008
1.31,-0.428,1.173,-0.162
1.32,-0.178,0.803,-0.079
1.33,-0.157,1.267,0.091
1.34,-0.057,0.687,0.159
1.35,-0.302,0.984,-0.018
1.36,-0.39,0.99,-0.145
1.37,-0.151,0.935,-0.046
1.38,-0.122,1.049,0.092
1.39,-0.129,0.685,0.127
1.4,-0.37,1.22,-0.111
1.41,-0.218,0.775,-0.159
1.42,-0.19,1.167,0.015
1.43,-0.092,0.9,0.191
1.44,-0.106,0.863,0.014
1.45,-0.357,1.077,-0.153
1.46,-0.218,0.879,-0.071
1.47,-0.086,1.259,0.062
1.48,-0.072,0.616,0.153
1.49,-0.356,1.08,-0.013
1.5,-0.328,0.868,-0.132
1.51,-0.173,1.034,-0.065
1.52,-0.14,0.949,0.108
1.53,-0.173,0.765,0.155
1.54,-0.368,1.172,-0.124
1.55,-0.25,0.715,-0.11
1.56,-0.254,1.275,0.058
1.57,-0.035,0.792,0.138
1.58,-0.23,0.966,0.048
1.59,-0.349,0.945,-0.176
1.6,-0.228,1.027,-0.019
1.61,-0.089,1.114,0.012
1.62,-0.046,0.646,0.153
1.63,-0.328,1.156,-0.015
1.64,-0.31,0.81,-0.177
1.65,-0.266,1.127,-0.041
1.66,-0.107,0.882,0.127
1.67,-0.141,0.925,0.142
1.68,-0.328,1.041,-0.15
1.69,-0.219,0.793,-0.121
1.7,-0.274,1.218,0.043
1.71,0.032,0.763,0.145
1.72,-0.215,1.086,0.031
1.73,-0.372,0.843,-0.183
1.74,-0.23,1.112,-0.037
1.75,-0.09,1.027,0.05
1.76,-0.088,0.752,0.157
1.77,-0.355,1.088,-0.007
1.78,-0.3,0.83,-0.125
1.79,-0.178,1.173,-0.033
1.8,-0.158,0.804,0.152
1.81,-0.164,1.089,0.119
1.82,-0.253,0.87,-0.184
1.83,-0.291,1.099,-0.154
1.84,-0.209,0.969,0.073
1.85,-0.005,0.908,0.117
1.86,-0.238,0.978,0.027
1.87,-0.364,0.877,-0.132
1.88,-0.22,1.232,-0.053
1.89,-0.137,0.778,0.09
1.9,-0.126,0.989,0.172
1.91,-0.281,0.893,-0.065
1.92,-0.289,1.096,-0.164
1.93,-0.192,0.961,-0.054
1.94,-0.149,0.867,0.162
1.95,-0.131,1.068,0.153
1.96,-0.292,0.865,-0.18
1.97,-0.344,1.129,-0.095
1.98,-0.202,0.875,0.068
1.99,-0.024,1.051,0.163
2.0,-0.16,0.81,-0.004
2.01,-0.423,0.994,-0.142
2.02,-0.184,1.143,-0.028
2.03,-0.104,0.902,0.047
2.04,-0.131,0.951,0.138
2.05,-0.307,0.806,-0.029
2.06,-0.294,1.264,-0.174
2.07,-0.165,0.872,-0.067
2.08,-0.22,0.968,0.154
2.09,-0.076,0.908,0.117
2.1,-0.335,0.933,-0.105
2.11,-0.277,1.114,-0.124
2.12,-0.186,0.832,0.032
2.13,-0.03,1.101,0.181
2.14,-0.152,0.736,0.039
2.15,-0.44,1.116,-0.164
2.16,-0.24,0.994,-0.044
2.17,-0.055,1.035,0.059
2.18,-0.115,0.917,0.126
2.19,-0.328,0.782,-0.067
2.2,-0.329,1.252,-0.114
2.21,-0.088,0.834,-0.058
2.22,-0.176,1.104,0.119
2.23,-0.116,0.774,0.165
2.24,-0.304,1.035,-0.088
2.25,-0.289,0.979,-0.129
2.26,-0.203,0.935,0.035
2.27,-0.103,1.097,0.172
2.28,-0.087,0.67,0.0
2.29,-0.395,1.183,-0.162
2.3,-0.233,0.907,-0.04
2.31,-0.093,1.185,0.046
2.32,-0.025,0.789,0.152
2.33,-0.333,0.875,-0.005
2.34,-0.375,1.143,-0.126
2.35,-0.121,0.883,-0.076
2.36,-0.156,1.12,0.077
2.37,-0.081,0.681,0.151
2.38,-0.37,1.131,-0.094
2.39,-0.257,0.865,-0.121
2.4,-0.244,1.073,0.023
2.41,-0.081,1.02,0.17
2.42,-0.176,0.752,0.039
2.43,-0.338,1.168,-0.161
2.44,-0.215,0.843,-0.07
2.45,-0.141,1.203,0.027
2.46,-0.062,0.697,0.211
2.47,-0.274,0.989,0.008
2.48,-0.445,1.016,-0.117
2.49,-0.19,0.932,-0.081
2.5,-0.138,1.101,0.118
2.51,-0.153,0.713,0.137
2.52,-0.395,1.132,-0.083
2.53,-0.287,0.722,-0.16
2.54,-0.201,1.162,0.011
2.55,-0.104,0.917,0.16
2.56,-0.134,0.854,0.044
2.57,-0.352,1.103,-0.142
2.58,-0.277,0.856,-0.067
2.59,-0.195,1.275,0.052
2.6,-0.019,0.708,0.124
2.61,-0.327,1.112,-0.011
2.62,-0.334,0.776,-0.158
2.63,-0.157,1.186,-0.048
2.64,-0.149,0.875,0.106
2.65,-0.131,0.863,0.163
2.66,-0.34,1.045,-0.058
2.67,-0.229,0.862,-0.176
2.68,-0.247,1.1,-0.031
2.69,-0.068,0.764,0.175
2.7,-0.202,1.139,0.108
2.71,-0.275,0.824,-0.229
2.72,-0.261,1.042,-0.103
2.73,-0.155,1.06,0.074
2.74,0.012,0.873,0.15
2.75,-0.253,1.012,0.007
2.76,-0.374,0.796,-0.138
2.77,-0.208,1.267,-0.023
2.78,-0.127,0.817,0.041
2.79,-0.108,0.97,0.134
2.8,-0.318,0.924,-0.019
2.81,-0.263,1.037,-0.19
2.82,-0.181,1.004,-0.085
2.83,-0.152,0.838,0.198
2.84,-0.09,1.095,0.115
2.85,-0.304,0.816,-0.148
2.86,-0.335,1.148,-0.093
2.87,-0.158,0.939,0.047
2.88,-0.073,0.929,0.141
2.89,-0.179,0.913,0.01
2.9,-0.391,0.971,-0.122
2.91,-0.179,1.174,-0.081
2.92,-0.112,0.807,0.031
2.93,-0.143,1.035,0.194
2.94,-0.277,0.833,-0.039
2.95,-0.318,1.144,-0.163
2.96,-0.161,0.869,-0.066
2.97,-0.123,0.965,0.159
2.98,-0.092,0.988,0.122
2.99,-0.3,0.856,-0.129
3.0,-0.314,1.123,-0.106
3.01,-0.181,0.886,0.054
3.02,-0.067,1.102,0.156
3.03,-0.16,0.763,0.019
3.04,-0.377,1.088,-0.147
3.05,-0.244,1.09,-0.043
3.06,-0.13,0.943,0.039
3.07,-0.081,0.925,0.152
3.08,-0.285,0.81,-0.013
3.09,-0.381,1.286,-0.149
3.1,-0.137,0.832,-0.06
3.11,-0.155,1.076,0.112
3.12,-0.178,0.793,0.144
3.13,-0.33,0.997,-0.071
3.14,-0.292,1.104,-0.144
3.15,-0.198,0.826,0.007
3.16,-0.095,1.115,0.189
3.17,-0.084,0.739,0.02
3.18,-0.465,1.153,-0.139
3.19,-0.234,0.88,-0.071
3.2,-0.049,1.181,0.036
3.21,-0.079,0.822,0.144
3.22,-0.299,0.815,0.001
3.23,-0.367,1.203,-0.117
3.24,-0.191,0.856,-0.064
3.25,-0.166,1.116,0.101
3.26,-0.08,0.653,0.139
3.27,-0.341,1.121,-0.096
3.28,-0.302,0.909,-0.133
3.29,-0.224,0.948,-0.025
3.3,-0.072,1.076,0.187
3.31,-0.121,0.739,0.021
3.32,-0.441,1.134,-0.142
3.33,-0.229,0.816,-0.074
3.34,-0.094,1.272,0.05
3.35,-0.051,0.722,0.132
3.36,-0.258,0.912,0.026
3.37,-0.349,1.048,-0.178
3.38,-0.121,0.937,-0.103
3.39,-0.185,1.105,0.089
3.4,-0.135,0.772,0.146
3.41,-0.349,1.173,-0.092
3.42,-0.346,0.714,-0.143
3.43,-0.221,1.176,0.025
3.44,-0.069,0.867,0.186
3.45,-0.153,0.946,0.044
3.46,-0.334,0.931,-0.164
3.47,-0.251,0.902,-0.103
3.48,-0.058,1.206,-0.013
3.49,-0.085,0.706,0.123
3.5,-0.25,1.071,0.006
3.51,-0.358,0.84,-0.091
3.52,-0.208,1.156,-0.065
3.53,-0.177,0.877,0.063
3.54,-0.103,0.828,0.163
3.55,-0.287,1.122,-0.068
3.56,-0.297,0.786,-0.177
3.57,-0.264,1.113,-0.018
3.58,-0.024,0.845,0.178
3.59,-0.099,1.073,0.023
3.6,-0.347,0.866,-0.108
3.61,-0.285,1.068,-0.036
3.62,-0.076,1.099,-0.012
3.63,-0.022,0.695,0.135
3.64,-0.277,1.067,0.019
3.65,-0.302,0.841,-0.124
3.66,-0.242,1.228,-0.081
3.67,-0.088,0.777,0.039
3.68,-0.141,0.97,0.184
3.69,-0.289,0.961,-0.045
3.7,-0.284,0.92,-0.131
3.71,-0.175,1.05,-0.036
3.72,-0.169,0.838,0.19
3.73,-0.063,1.145,0.076
3.74,-0.303,0.82,-0.16
3.75,-0.305,1.121,-0.039
3.76,-0.101,1.005,0.05
3.77,-0.041,0.903,0.115
3.78,-0.21,0.968,0.062
3.79,-0.352,0.943,-0.128
3.8,-0.146,1.276,-0.089
3.81,-0.19,0.805,0.066
3.82,-0.169,1.011,0.18
3.83,-0.259,0.886,-0.04
3.84,-0.329,1.151,-0.204
3.85,-0.205,0.904,-0.062
3.86,-0.078,0.89,0.142
3.87,-0.162,1.052,0.157
3.88,-0.284,0.81,-0.135
3.89,-0.384,1.126,-0.112
3.9,-0.099,0.91,0.068
3.91,-0.092,1.089,0.152
3.92,-0.17,0.791,0.039
3.93,-0.372,1.029,-0.132
3.94,-0.164,1.186,-0.034
3.95,-0.166,0.876,0.039
3.96,-0.096,0.917,0.157
3.97,-0.283,0.841,-0.001
3.98,-0.368,1.258,-0.19
3.99,-0.22,0.817,-0.067
4.0,-0.202,0.988,0.124
4.01,-0.101,0.885,0.134
4.02,-0.295,0.923,-0.131
4.03,-0.317,1.073,-0.128
4.04,-0.178,0.836,0.033
4.05,-0.074,1.186,0.179
4.06,-0.129,0.69,-0.011
4.07,-0.394,1.106,-0.175
4.08,-0.19,1.027,-0.049
4.09,-0.112,1.074,0.018
4.1,-0.108,0.822,0.163
4.11,-0.265,0.801,0.006
4.12,-0.386,1.26,-0.146
4.13,-0.162,0.819,-0.103
4.14,-0.173,1.125,0.126
4.15,-0.15,0.711,0.133
4.16,-0.336,1.024,-0.073
4.17,-0.31,0.999,-0.163
4.18,-0.239,0.928,-0.014
4.19,-0.074,0.967,0.181
4.2,-0.153,0.738,0.011
4.21,-0.414,1.15,-0.124
4.22,-0.144,0.841,-0.05
4.23,-0.101,1.305,0.004
4.24,-0.108,0.64,0.145
4.25,-0.275,1.02,-0.004
4.26,-0.296,1.002,-0.158
4.27,-0.241,0.956,-0.053
4.28,-0.162,1.021,0.114
4.29,-0.168,0.696,0.181
4.3,-0.345,1.162,-0.091
4.31,-0.272,0.685,-0.186
4.32,-0.275,1.13,0.033
4.33,0.021,0.924,0.17
4.34,-0.22,0.899,0.029
4.35,-0.304,1.001,-0.165
4.36,-0.217,0.9,-0.033
4.37,-0.092,1.253,-0.015
4.38,-0.05,0.607,0.181
4.39,-0.32,1.118,0.031
4.4,-0.322,0.861,-0.145
4.41,-0.208,1.106,-0.087
4.42,-0.148,0.937,0.088
4.43,-0.106,0.773,0.172
4.44,-0.282,1.146,-0.059
4.45,-0.29,0.75,-0.154
4.46,-0.257,1.171,-0.037
4.47,-0.051,0.806,0.16
4.48,-0.115,1.03,0.076
4.49,-0.353,0.933,-0.109
4.5,-0.224,0.947,-0.118
4.51,-0.121,1.174,0.045
4.52,-0.064,0.802,0.151
4.53,-0.295,1.031,0.051
4.54,-0.284,0.86,-0.164
4.55,-0.188,1.214,-0.074
4.56,-0.123,0.803,0.081
4.57,-0.123,1.018,0.145
4.58,-0.242,0.914,-0.093
4.59,-0.344,1.019,-0.137
4.6,-0.209,0.956,-0.057
4.61,-0.091,0.887,0.196
4.62,-0.14,1.067,0.061
4.63,-0.318,0.826,-0.139
4.64,-0.303,1.172,-0.075
4.65,-0.093,0.934,0.048
4.66,-0.098,0.945,0.162
4.67,-0.18,0.905,0.025
4.68,-0.316,0.978,-0.133
4.69,-0.229,1.147,-0.081
4.7,-0.144,0.839,0.065
4.71,-0.123,1.031,0.167
4.72,-0.273,0.819,-0.051
4.73,-0.343,1.153,-0.15
4.74,-0.222,0.888,-0.008
4.75,-0.095,0.959,0.147
4.76,-0.187,0.989,0.111
4.77,-0.251,0.859,-0.164
4.78,-0.312,1.157,-0.082
4.79,-0.1,0.848,0.05
4.8,-0.091,1.097,0.145
4.81,-0.129,0.795,-0.007
4.82,-0.367,1.081,-0.151
4.83,-0.15,1.068,-0.067
4.84,-0.097,0.96,0.042
4.85,-0.091,0.925,0.163
4.86,-0.269,0.832,-0.047
4.87,-0.356,1.261,-0.155
4.88,-0.133,0.811,-0.058
4.89,-0.191,1.083,0.156
4.9,-0.134,0.804,0.12
4.91,-0.322,1.013,-0.109
4.92,-0.255,1.05,-0.111
4.93,-0.175,0.902,0.015
4.94,-0.072,1.048,0.17
4.95,-0.166,0.703,0.019
4.96,-0.413,1.199,-0.169
4.97,-0.204,0.955,-0.05
4.98,-0.115,1.053,0.047
4.99,-0.058,0.699,0.138
5.0,-0.36,1.026,-0.011
5.01,-0.285,0.992,-0.208
5.02,-0.119,0.906,-0.044
5.03,-0.125,1.106,0.161
5.04,-0.109,0.706,0.101
5.05,-0.468,1.168,-0.119
5.06,-0.211,0.817,-0.113
5.07,-0.173,1.205,0.079
5.08,-0.041,0.82,0.124
5.09,-0.24,0.864,0.017
5.1,-0.36,1.083,-0.177
5.11,-0.106,0.896,-0.081
5.12,-0.082,1.188,0.063
5.13,-0.104,0.66,0.123
5.14,-0.354,1.12,-0.03
5.15,-0.322,0.856,-0.192
5.16,-0.237,0.989,0.025
5.17,-0.094,1.024,0.152
5.18,-0.125,0.755,0.06
5.19,-0.458,1.146,-0.136
5.2,-0.17,0.74,-0.09
5.21,-0.157,1.335,0.095
5.22,-0.013,0.687,0.142
5.23,-0.295,0.965,0.068
5.24,-0.387,0.998,-0.128
5.25,-0.145,1.002,-0.087
5.26,-0.202,1.101,0.079
5.27,-0.086,0.635,0.181
5.28,-0.394,1.201,-0.029
5.29,-0.347,0.759,-0.19
5.3,-0.235,1.095,-0.009
5.31,-0.03,0.935,0.178
5.32,-0.108,0.892,0.051
5.33,-0.369,1.058,-0.15
5.34,-0.241,0.842,-0.081
5.35,-0.109,1.309,0.053
5.36,-0.08,0.641,0.166
5.37,-0.287,1.082,0.029
5.38,-0.36,0.888,-0.16
5.39,-0.182,1.087,-0.077
5.4,-0.169,0.992,0.104
5.41,-0.104,0.739,0.163
5.42,-0.312,1.146,-0.093
5.43,-0.281,0.753,-0.17
5.44,-0.276,1.207,-0.009
5.45,-0.043,0.812,0.172
5.46,-0.155,0.987,0.057
5.47,-0.386,0.949,-0.186
5.48,-0.215,0.954,-0.09
5.49,-0.114,1.205,0.028
5.5,-0.032,0.635,0.13
5.51,-0.295,1.102,0.002
5.52,-0.296,0.859,-0.153
5.53,-0.153,1.172,-0.096
5.54,-0.131,0.843,0.075
5.55,-0.128,0.882,0.19
5.56,-0.305,1.048,-0.128
5.57,-0.286,0.775,-0.138
5.58,-0.288,1.211,0.057
5.59,-0.005,0.813,0.145
5.6,-0.194,1.064,0.052
5.61,-0.335,0.856,-0.136
5.62,-0.195,1.194,-0.051
5.63,-0.153,0.978,0.006
5.64,-0.101,0.721,0.204
5.65,-0.284,1.067,-0.022
5.66,-0.295,0.864,-0.152
5.67,-0.223,1.188,-0.073
5.68,-0.131,0.771,0.117
5.69,-0.075,1.017,0.128
5.7,-0.355,0.928,-0.155
5.71,-0.267,0.906,-0.123
5.72,-0.189,1.115,0.045
5.73,-0.008,0.823,0.127
5.74,-0.272,1.066,0.064
5.75,-0.275,0.822,-0.13
5.76,-0.187,1.276,-0.035
5.77,-0.197,0.839,0.035
5.78,-0.062,1.013,0.185
5.79,-0.292,0.912,-0.062
5.8,-0.341,0.992,-0.173
5.81,-0.177,0.998,-0.049
5.82,-0.027,0.951,0.177
5.83,-0.199,1.049,0.1
5.84,-0.267,0.775,-0.149
5.85,-0.286,1.245,-0.016
5.86,-0.075,0.948,0.016
5.87,-0.105,0.906,0.147
5.88,-0.232,0.901,0.037
5.89,-0.31,1.015,-0.162
5.9,-0.215,1.103,-0.085
5.91,-0.136,0.815,0.104
5.92,-0.138,1.045,0.188
5.93,-0.286,0.807,-0.113
5.94,-0.353,1.123,-0.125
5.95,-0.173,0.906,-0.007
5.96,-0.113,0.999,0.145
5.97,-0.147,0.932,0.075
5.98,-0.356,0.921,-0.149
5.99,-0.265,1.224,-0.015
6.0,-0.045,0.912,0.005
6.01,-0.146,0.989,0.172
6.02,-0.186,0.787,0.023
6.03,-0.339,1.167,-0.16
6.04,-0.187,0.97,-0.103
6.05,-0.106,0.902,0.113
6.06,-0.122,1.017,0.151
6.07,-0.294,0.804,-0.161
6.08,-0.395,1.142,-0.072
6.09,-0.151,0.854,0.013
6.1,-0.092,1.128,0.122
6.11,-0.109,0.757,0.038
6.12,-0.406,1.046,-0.118
6.13,-0.189,1.171,-0.051
6.14,-0.092,0.903,0.01
6.15,-0.117,0.942,0.159
6.16,-0.281,0.787,0.009
6.17,-0.404,1.257,-0.186
6.18,-0.115,0.86,-0.063
6.19,-0.201,1.024,0.118
6.2,-0.168,0.878,0.175
6.21,-0.296,0.912,-0.114
6.22,-0.267,1.108,-0.162
6.23,-0.26,0.889,0.07
6.24,-0.05,1.149,0.169
6.25,-0.107,0.73,0.02
6.26,-0.415,1.113,-0.166
6.27,-0.253,1.023,-0.052
6.28,-0.075,1.01,0.019
6.29,-0.104,0.851,0.154
6.3,-0.292,0.812,0.007
6.31,-0.425,1.291,-0.142
6.32,-0.124,0.81,-0.089
6.33,-0.184,1.112,0.129
6.34,-0.09,0.746,0.14
6.35,-0.369,1.012,-0.113
6.36,-0.248,0.982,-0.135
6.37,-0.16,0.948,0.029
6.38,-0.12,1.087,0.158
6.39,-0.125,0.696,0.036
6.4,-0.443,1.191,-0.17
6.41,-0.16,0.901,-0.079
6.42,-0.087,1.199,0.06
6.43,-0.085,0.766,0.148
6.44,-0.283,0.88,-0.017
6.45,-0.377,1.132,-0.152
6.46,-0.145,0.847,-0.046
6.47,-0.165,1.146,0.118
6.48,-0.116,0.694,0.134
6.49,-0.451,1.159,-0.122
6.5,-0.229,0.883,-0.152
6.51,-0.205,1.107,0.041
6.52,-0.037,0.974,0.116
6.53,-0.172,0.725,0.042
6.54,-0.427,1.253,-0.131
6.55,-0.161,0.881,-0.072
6.56,-0.171,1.172,0.087
6.57,-0.047,0.642,0.181
6.58,-0.425,1.152,-0.026
6.59,-0.237,0.798,-0.197
6.6,-0.206,1.064,-0.005
6.61,-0.143,0.937,0.136
6.62,-0.127,0.799,0.116
6.63,-0.381,1.137,-0.143
6.64,-0.203,0.794,-0.127
6.65,-0.154,1.28,0.078
6.66,-0.003,0.674,0.155
6.67,-0.272,1.022,0.005
6.68,-0.368,0.978,-0.136
6.69,-0.141,1.026,-0.083
6.7,-0.166,1.043,0.079
6.71,-0.097,0.684,0.157
6.72,-0.376,1.159,-0.045
6.73,-0.328,0.728,-0.184
6.74,-0.209,1.137,0.011
6.75,-0.084,0.916,0.182
6.76,-0.142,0.891,0.057
6.77,-0.383,1.012,-0.154
6.78,-0.156,0.912,-0.092
6.79,-0.101,1.26,0.028
6.8,-0.04,0.597,0.147
6.81,-0.323,1.116,0.03
6.82,-0.335,0.878,-0.141
6.83,-0.162,1.107,-0.063
6.84,-0.192,0.925,0.097
6.85,-0.162,0.785,0.179
6.86,-0.353,1.123,-0.097
6.87,-0.209,0.756,-0.164
6.88,-0.213,1.178,0.021
6.89,-0.075,0.809,0.222
6.9,-0.138,1.063,0.066
6.91,-0.344,0.886,-0.164
6.92,-0.312,0.981,-0.078
6.93,-0.113,1.157,0.051
6.94,-0.043,0.707,0.146
6.95,-0.334,1.094,0.002
6.96,-0.263,0.78,-0.134
6.97,-0.24,1.185,-0.04
6.98,-0.104,0.83,0.112
6.99,-0.147,0.949,0.174
7.0,-0.298,1.0,-0.135
7.01,-0.255,0.824,-0.157
7.02,-0.226,1.222,0.047
7.03,-0.09,0.794,0.124
7.04,-0.198,1.072,0.088
7.05,-0.253,0.855,-0.181
7.06,-0.269,1.189,-0.036
7.07,-0.131,0.932,0.025
7.08,-0.037,0.83,0.153
7.09,-0.348,1.058,-0.0
7.1,-0.263,0.814,-0.205
7.11,-0.242,1.146,-0.043
7.12,-0.111,0.801,0.098
7.13,-0.129,1.09,0.172
7.14,-0.229,0.867,-0.154
7.15,-0.304,0.961,-0.124
7.16,-0.241,1.097,0.038
7.17,0.019,0.872,0.148
7.18,-0.236,1.044,0.06
7.19,-0.341,0.795,-0.165
7.2,-0.232,1.294,-0.063
7.21,-0.085,0.86,0.017
7.22,-0.134,0.907,0.179
7.23,-0.276,0.941,0.012
7.24,-0.251,0.975,-0.183
7.25,-0.243,1.089,-0.052
7.26,-0.13,0.801,0.114
7.27,-0.133,1.103,0.157
7.28,-0.278,0.791,-0.151
7.29,-0.291,1.094,-0.094
7.3,-0.224,0.96,0.035
7.31,0.02,0.96,0.125
7.32,-0.187,0.973,0.023
7.33,-0.323,0.867,-0.162
7.34,-0.202,1.266,-0.051
7.35,-0.103,0.838,0.046
7.36,-0.133,1.015,0.164
7.37,-0.263,0.817,-0.065
7.38,-0.348,1.224,-0.204
7.39,-0.155,0.845,-0.029
7.4,-0.139,1.041,0.178
7.41,-0.09,0.896,0.081
7.42,-0.387,0.911,-0.149
7.43,-0.302,1.119,-0.077
7.44,-0.114,0.934,0.067
7.45,-0.031,1.069,0.128
7.46,-0.2,0.718,-0.0
7.47,-0.359,1.19,-0.15
7.48,-0.108,1.103,-0.089
7.49,-0.164,0.901,0.049
7.5,-0.121,0.855,0.185
7.51,-0.305,0.881,-0.04
7.52,-0.382,1.219,-0.139
7.53,-0.194,0.773,-0.017
7.54,-0.151,1.174,0.213
7.55,-0.074,0.758,0.071
7.56,-0.375,1.014,-0.153
7.57,-0.226,1.052,-0.071
7.58,-0.125,0.998,0.043
7.59,-0.07,0.981,0.16
7.6,-0.147,0.712,0.003
7.61,-0.471,1.244,-0.122
7.62,-0.08,0.906,-0.127
7.63,-0.14,1.045,0.053
7.64,-0.137,0.741,0.212
7.65,-0.296,0.978,-0.049
7.66,-0.367,1.104,-0.182
7.67,-0.177,0.785,-0.032
7.68,-0.123,1.212,0.19
7.69,-0.039,0.713,0.066
7.7,-0.389,1.09,-0.183
7.71,-0.205,0.891,-0.134
7.72,-0.096,1.169,0.048
7.73,-0.031,0.869,0.088
7.74,-0.268,0.743,0.019
7.75,-0.4,1.229,-0.126
7.76,-0.047,0.931,-0.081
7.77,-0.198,1.145,0.074
7.78,-0.087,0.612,0.147
7.79,-0.334,1.1,-0.029
7.8,-0.314,0.991,-0.175
7.81,-0.165,0.866,-0.048
7.82,-0.141,1.138,0.202
7.83,-0.032,0.716,0.049
7.84,-0.419,1.156,-0.139
7.85,-0.226,0.826,-0.079
7.86,-0.138,1.309,0.067
7.87,0.001,0.767,0.105
7.88,-0.294,0.874,0.041
7.89,-0.413,1.125,-0.104
7.9,-0.11,0.931,-0.074
7.91,-0.219,1.139,0.058
7.92,-0.036,0.631,0.187
7.93,-0.38,1.155,-0.031
7.94,-0.26,0.804,-0.198
7.95,-0.257,1.03,-0.018
7.96,-0.106,1.015,0.173
7.97,-0.092,0.811,0.06
7.98,-0.392,1.117,-0.144
7.99,-0.236,0.714,-0.097
8.0,-0.115,1.354,0.067
8.01,-0.019,0.731,0.162
8.02,-0.18,0.96,0.009
8.03,-0.404,0.964,-0.119
8.04,-0.184,0.987,-0.06
8.05,-0.14,1.125,0.072
8.06,-0.029,0.646,0.117
8.07,-0.401,1.184,0.003
8.08,-0.253,0.779,-0.187
8.09,-0.209,1.143,-0.059
8.1,-0.105,0.889,0.179
8.11,-0.106,0.896,0.111
8.12,-0.341,1.031,-0.115
8.13,-0.228,0.808,-0.127
8.14,-0.206,1.269,0.073
8.15,-0.037,0.72,0.144
8.16,-0.224,1.075,0.039
8.17,-0.362,0.812,-0.161
8.18,-0.284,1.222,-0.038
8.19,-0.071,0.842,0.079
8.2,-0.146,0.91,0.14
8.21,-0.373,1.008,-0.022
8.22,-0.292,0.877,-0.152
8.23,-0.175,1.141,-0.058
8.24,-0.129,0.79,0.163
8.25,-0.142,1.107,0.095
8.26,-0.317,0.801,-0.176
8.27,-0.278,1.107,-0.054
8.28,-0.123,1.062,0.057
8.29,-0.008,0.819,0.117
8.3,-0.281,1.017,0.055
8.31,-0.344,0.815,-0.15
8.32,-0.229,1.245,-0.056
8.33,-0.096,0.797,0.077
8.34,-0.144,1.019,0.147
8.35,-0.299,0.895,-0.059
8.36,-0.279,1.058,-0.157
8.37,-0.244,1.015,-0.039
8.38,-0.144,0.835,0.216
8.39,-0.177,1.094,0.117
8.4,-0.269,0.817,-0.169
8.41,-0.326,1.152,-0.092
8.42,-0.125,0.916,0.035
8.43,-0.309,0.904,-0.034
8.44,-0.342,1.055,-0.159
8.45,-0.165,1.004,-0.051
8.46,-0.133,0.829,0.14
8.47,-0.114,1.084,0.105
8.48,-0.305,0.844,-0.133
8.49,-0.33,1.177,-0.146
8.5,-0.126,0.887,0.04
8.51,-0.039,1.009,0.173
8.52,-0.178,0.88,0.006
8.53,-0.388,0.966,-0.127
8.54,-0.189,1.197,-0.078
8.55,-0.157,0.831,0.064
8.56,-0.122,1.017,0.174
8.57,-0.309,0.828,-0.043
8.58,-0.379,1.168,-0.194
8.59,-0.142,0.892,-0.051
8.6,-0.156,0.978,0.188
8.61,-0.121,0.965,0.106
8.62,-0.32,0.865,-0.145
8.63,-0.281,1.161,-0.122
8.64,-0.185,0.855,0.076
8.65,-0.092,1.061,0.151
8.66,-0.145,0.812,0.034
8.67,-0.411,1.08,-0.145
8.68,-0.176,1.078,-0.077
8.69,-0.121,0.934,0.07
8.7,-0.092,0.925,0.15
8.71,-0.292,0.804,-0.053
8.72,-0.396,1.252,-0.165
8.73,-0.086,0.861,-0.079
8.74,-0.147,1.026,0.136
8.75,-0.146,0.801,0.125
8.76,-0.361,0.979,-0.132
8.77,-0.265,1.067,-0.13
8.78,-0.122,0.872,0.013
8.79,-0.124,1.131,0.189
8.8,-0.145,0.745,0.021
8.81,-0.449,1.17,-0.138
8.82,-0.171,0.95,-0.085
8.83,-0.094,1.103,0.063
8.84,-0.089,0.821,0.147
8.85,-0.286,0.827,-0.066
8.86,-0.364,1.209,-0.136
8.87,-0.095,0.813,-0.032
8.88,-0.197,1.132,0.169
8.89,-0.107,0.74,0.129
8.9,-0.401,1.159,-0.159
8.91,-0.268,0.832,-0.082
8.92,-0.143,1.163,0.096
8.93,-0.054,0.863,0.13
8.94,-0.268,0.806,0.034
8.95,-0.393,1.15,-0.164
8.96,-0.081,0.901,-0.084
8.97,-0.161,1.173,0.098
8.98,-0.082,0.612,0.145
8.99,-0.367,1.132,-0.047
9.0,-0.291,0.91,-0.161
9.01,-0.219,0.978,-0.014
9.02,-0.098,1.02,0.196
9.03,-0.114,0.759,0.061
9.04,-0.456,1.174,-0.142
9.05,-0.208,0.825,-0.068
9.06,-0.121,1.25,0.038
9.07,-0.083,0.616,0.132
9.08,-0.297,0.982,0.021
9.09,-0.295,1.069,-0.17
9.1,-0.207,0.881,-0.067
9.11,-0.149,1.067,0.134
9.12,-0.09,0.698,0.209
9.13,-0.384,1.153,-0.114
9.14,-0.304,0.725,-0.127
9.15,-0.224,1.144,0.013
9.16,-0.016,0.992,0.127
9.17,-0.238,0.815,0.04
9.18,-0.343,1.092,-0.133
9.19,-0.207,0.917,-0.025
9.2,-0.167,1.204,0.001
9.21,-0.099,0.612,0.232
9.22,-0.332,1.088,0.009
9.23,-0.252,0.921,-0.187
9.24,-0.25,0.994,-0.099
9.25,-0.114,0.963,0.091
9.26,-0.072,0.808,0.147
9.27,-0.377,1.14,-0.094
9.28,-0.213,0.682,-0.128
9.29,-0.292,1.225,0.043
9.3,-0.021,0.83,0.167
9.31,-0.218,0.991,0.081
9.32,-0.306,0.971,-0.166
9.33,-0.233,0.963,-0.084
9.34,-0.083,1.209,-0.002
9.35,-0.055,0.622,0.155
9.36,-0.301,1.125,0.002
9.37,-0.259,0.849,-0.11
9.38,-0.289,1.153,-0.053
9.39,-0.13,0.85,0.057
9.4,-0.077,0.887,0.152
9.41,-0.35,1.052,-0.125
9.42,-0.289,0.75,-0.134
9.43,-0.236,1.18,-0.011
9.44,-0.078,0.833,0.193
9.45,-0.152,1.081,0.047
9.46,-0.311,0.841,-0.153
9.47,-0.235,1.064,-0.04
9.48,-0.1,1.116,0.012
9.49,-0.045,0.739,0.14
9.5,-0.262,1.081,0.025
9.51,-0.314,0.835,-0.142
9.52,-0.235,1.221,-0.086
9.53,-0.109,0.805,0.119
9.54,-0.135,0.988,0.15
9.55,-0.322,0.973,-0.077
9.56,-0.323,0.911,-0.154
9.57,-0.291,1.092,-0.001
9.58,0.002,0.826,0.182
9.59,-0.151,1.076,0.067
9.6,-0.29,0.815,-0.154
9.61,-0.31,1.172,-0.087
9.62,-0.135,0.944,0.015
9.63,-0.05,0.848,0.15
9.64,-0.241,0.984,0.029
9.65,-0.374,0.941,-0.119
9.66,-0.244,1.196,-0.067
9.67,-0.073,0.746,0.036
9.68,-0.16,1.052,0.188
9.69,-0.219,0.885,-0.107
9.7,-0.304,1.156,-0.133
9.71,-0.22,0.856,0.007
9.72,-0.063,0.98,0.155
9.73,-0.172,0.894,0.104
9.74,-0.312,0.952,-0.149
9.75,-0.28,1.149,-0.082
9.76,-0.116,0.876,0.01
9.77,-0.078,0.99,0.176
9.78,-0.159,0.771,-0.016
9.79,-0.386,1.201,-0.129
9.8,-0.21,0.959,-0.108
9.81,-0.082,0.924,0.056
9.82,-0.082,0.914,0.165
9.83,-0.334,0.857,-0.081
9.84,-0.349,1.182,-0.149
9.85,-0.145,0.823,-0.015
9.86,-0.171,1.125,0.188
9.87,-0.111,0.763,0.051
9.88,-0.385,1.058,-0.118
9.89,-0.227,1.031,-0.088
9.9,-0.177,1.048,0.09
9.91,-0.057,1.004,0.121
9.92,-0.215,0.715,0.008
9.93,-0.431,1.237,-0.154
9.94,-0.134,0.945,-0.038
9.95,-0.181,1.103,0.078
9.96,-0.055,0.707,0.113
9.97,-0.394,0.99,0.008
9.98,-0.324,1.095,-0.184
9.99,-0.154,0.84,-0.012
10.0,-0.149,1.156,0.166
10.01,-0.099,0.711,0.07
10.02,-0.399,1.135,-0.122
10.03,-0.176,0.906,-0.136
10.04,-0.154,1.122,0.019
10.05,-0.025,0.87,0.135
10.06,-0.235,0.8,0.015
10.07,-0.398,1.197,-0.116
10.08,-0.139,0.852,-0.082
10.09,-0.19,1.188,0.118
10.1,-0.121,0.696,0.175
10.11,-0.316,1.049,-0.065
10.12,-0.359,0.947,-0.166
10.13,-0.137,0.917,-0.104
10.14,-0.128,1.135,0.21
10.15,-0.093,0.69,0.06
10.16,-0.353,1.15,-0.124
10.17,-0.244,0.797,-0.071
10.18,-0.16,1.286,0.048
10.19,-0.046,0.788,0.11
10.2,-0.214,0.886,0.002
10.21,-0.408,1.086,-0.092
10.22,-0.149,0.952,-0.102
10.23,-0.148,1.144,0.089
10.24,-0.074,0.634,0.168
10.25,-0.422,1.154,-0.032
10.26,-0.285,0.823,-0.181
10.27,-0.223,1.055,-0.023
10.28,-0.111,0.998,0.145
10.29,-0.16,0.821,0.104
10.3,-0.371,1.106,-0.122
10.31,-0.161,0.73,-0.153
10.32,-0.165,1.308,0.066
10.33,0.006,0.716,0.158
10.34,-0.223,1.046,0.065
10.35,-0.406,0.92,-0.173
10.36,-0.2,1.005,-0.057
10.37,-0.138,1.127,0.065
10.38,-0.066,0.664,0.114
10.39,-0.361,1.128,-0.015
10.4,-0.228,0.795,-0.185
10.41,-0.199,1.145,-0.052
10.42,-0.139,0.892,0.165
10.43,-0.111,0.965,0.117
10.44,-0.299,0.985,-0.119
10.45,-0.26,0.798,-0.151
10.46,-0.178,1.218,-0.016
10.47,-0.05,0.772,0.161
10.48,-0.216,1.083,0.062
10.49,-0.36,0.804,-0.129
10.5,-0.23,1.228,-0.017
10.51,-0.1,0.848,0.036
10.52,-0.083,0.901,0.163
10.53,-0.28,0.975,-0.021
10.54,-0.346,0.981,-0.166
10.55,-0.192,1.078,-0.071
10.56,-0.076,0.772,0.117
10.57,-0.202,1.102,0.148
10.58,-0.267,0.833,-0.103
10.59,-0.283,1.095,-0.096
10.6,-0.196,0.943,0.041
10.61,-0.063,0.96,0.159
10.62,-0.149,0.986,0.029
10.63,-0.336,0.858,-0.155
10.64,-0.313,1.219,-0.061
10.65,-0.046,0.853,0.067
10.66,-0.056,1.04,0.157
10.67,-0.286,0.813,-0.056
10.68,-0.329,1.076,-0.157
10.69,-0.115,1.027,-0.05
10.7,-0.135,0.908,0.111
10.71,-0.201,1.008,0.14
10.72,-0.255,0.815,-0.143
10.73,-0.293,1.2,-0.144
10.74,-0.151,0.878,0.024
10.75,-0.087,1.07,0.178
10.76,-0.132,0.828,0.059
10.77,-0.366,0.993,-0.152
10.78,-0.238,1.176,-0.051
10.79,-0.203,0.872,0.064
10.8,-0.067,0.971,0.169
10.81,-0.287,0.779,-0.03
10.82,-0.378,1.234,-0.135
10.83,-0.128,0.888,-0.088
10.84,-0.164,0.969,0.116
10.85,-0.167,0.877,0.169
10.86,-0.269,0.907,-0.125
10.87,-0.337,1.139,-0.161
10.88,-0.162,0.807,-0.021
10.89,-0.071,1.171,0.165
10.9,-0.147,0.731,0.042
10.91,-0.375,1.071,-0.183
10.92,-0.26,1.027,-0.048
10.93,-0.076,1.003,0.001
10.94,-0.092,0.942,0.186
10.95,-0.224,0.761,-0.018
10.96,-0.413,1.274,-0.111
10.97,-0.133,0.85,-0.085
10.98,-0.22,1.1,0.101
10.99,-0.148,0.746,0.181
11.0,-0.339,0.999,-0.073
11.01,-0.325,1.031,-0.134
11.02,-0.222,0.899,0.002
11.03,-0.138,1.149,0.172
11.04,-0.075,0.69,0.041
11.05,-0.401,1.179,-0.138
11.06,-0.282,0.903,-0.092
11.07,-0.112,1.165,0.049
11.08,-0.104,0.833,0.131
11.09,-0.202,0.797,-0.004
11.1,-0.429,1.195,-0.121
11.11,-0.097,0.912,-0.068
11.12,-0.181,1.138,0.102
11.13,-0.085,0.614,0.141
11.14,-0.405,1.103,-0.048
11.15,-0.279,0.909,-0.193
11.16,-0.18,0.971,-0.021
11.17,-0.107,1.052,0.136
11.18,-0.116,0.706,0.07
11.19,-0.393,1.184,-0.153
11.2,-0.173,0.805,-0.094
11.21,-0.181,1.284,0.071
11.22,-0.032,0.687,0.165
11.23,-0.302,0.957,0.038
11.24,-0.378,1.044,-0.159
11.25,-0.134,0.94,-0.086
11.26,-0.173,1.118,0.07
11.27,-0.067,0.646,0.128
11.28,-0.415,1.188,-0.025
11.29,-0.26,0.746,-0.116
11.3,-0.236,1.215,0.014
11.31,-0.022,0.852,0.184
11.32,-0.195,0.968,0.048
11.33,-0.302,0.956,-0.141
11.34,-0.299,0.976,-0.042
11.35,-0.107,1.201,0.023
11.36,-0.049,0.655,0.14
11.37,-0.347,1.107,0.006
11.38,-0.307,0.818,-0.108
11.39,-0.184,1.161,-0.073
11.4,-0.178,0.904,0.134
11.41,-0.057,0.843,0.116
11.42,-0.339,1.086,-0.06
11.43,-0.301,0.825,-0.146
11.44,-0.221,1.164,-0.04
11.45,-0.142,0.787,0.179
11.46,-0.17,1.067,0.054
11.47,-0.313,0.844,-0.138
11.48,-0.268,1.03,-0.081
11.49,-0.095,1.079,0.046
11.5,-0.068,0.739,0.161
11.51,-0.271,1.071,0.021
11.52,-0.315,0.817,-0.158
11.53,-0.199,1.207,-0.05
11.54,-0.164,0.811,0.087
11.55,-0.143,0.988,0.169
11.56,-0.315,0.965,-0.067
11.57,-0.215,0.934,-0.146
11.58,-0.231,1.073,-0.031
11.59,-0.06,0.805,0.122
11.6,-0.201,1.125,0.132
11.61,-0.24,0.783,-0.167
11.62,-0.317,1.131,-0.113
11.63,-0.088,0.954,0.062
11.64,-0.09,0.956,0.155
11.65,-0.182,0.936,0.017
11.66,-0.38,0.913,-0.107
11.67,-0.202,1.239,-0.009
11.68,-0.084,0.829,0.017
11.69,-0.107,0.962,0.146
11.7,-0.239,0.863,-0.051
11.71,-0.324,1.143,-0.157
11.72,-0.17,0.926,-0.061
11.73,-0.103,0.887,0.181
11.74,-0.193,1.029,0.145
11.75,-0.319,0.881,-0.151
11.76,-0.307,1.185,-0.098
11.77,-0.199,0.87,0.054
11.78,0.008,1.062,0.113
11.79,-0.218,0.808,0.01
11.8,-0.381,1.014,-0.145
11.81,-0.19,1.147,-0.045
11.82,-0.044,0.869,0.045
11.83,-0.163,0.964,0.164
11.84,-0.255,0.82,-0.029
11.85,-0.364,1.251,-0.156
11.86,-0.225,0.822,-0.041
11.87,-0.143,1.036,0.147
11.88,-0.106,0.925,0.093
11.89,-0.343,0.897,-0.161
11.9,-0.265,1.114,-0.123
11.91,-0.12,0.924,0.077
11.92,-0.056,1.069,0.128
11.93,-0.163,0.714,0.027
11.94,-0.424,1.199,-0.165
11.95,-0.16,0.995,-0.081
11.96,-0.131,0.948,0.062
11.97,-0.093,0.907,0.17
11.98,-0.308,0.853,-0.028
11.99,-0.357,1.234,-0.155
12.0,-0.126,0.795,-0.04
12.01,-0.183,1.131,0.18
12.02,-0.091,0.763,0.097
12.03,-0.332,1.035,-0.16
12.04,-0.273,0.991,-0.116
12.05,-0.18,1.018,0.072
12.06,-0.085,1.039,0.145
12.07,-0.16,0.732,0.003
12.08,-0.443,1.224,-0.119
12.09,-0.141,0.871,-0.059
12.1,-0.13,1.178,0.095
12.11,-0.07,0.659,0.14
12.12,-0.393,1.09,-0.051
12.13,-0.265,0.955,-0.152
12.14,-0.191,0.925,-0.033
12.15,-0.142,1.031,0.157
12.16,-0.112,0.757,0.106
12.17,-0.422,1.177,-0.137
12.18,-0.228,0.755,-0.129
12.19,-0.188,1.27,0.119
12.2,0.021,0.805,0.146
12.21,-0.271,0.877,-0.013
12.22,-0.365,1.019,-0.168
12.23,-0.093,0.984,-0.079
12.24,-0.164,1.167,0.097
12.25,-0.13,0.637,0.162
12.26,-0.341,1.176,-0.048
12.27,-0.286,0.825,-0.183
12.28,-0.305,1.038,-0.021
12.29,-0.026,0.961,0.181
12.3,-0.123,0.813,0.059
12.31,-0.387,1.111,-0.183
12.32,-0.233,0.825,-0.071
12.33,-0.104,1.273,0.022
12.34,-0.049,0.643,0.157
12.35,-0.306,1.049,0.028
12.36,-0.367,0.938,-0.145
12.37,-0.154,0.979,-0.106
12.38,-0.181,1.057,0.071
12.39,-0.08,0.711,0.158
12.4,-0.351,1.17,-0.083
12.41,-0.209,0.725,-0.15
12.42,-0.278,1.19,0.004
12.43,-0.005,0.866,0.148
12.44,-0.174,0.929,0.069
12.45,-0.308,0.994,-0.169
12.46,-0.26,0.902,-0.072
12.47,-0.105,1.233,0.039
12.48,-0.006,0.668,0.163
12.49,-0.362,1.087,0.027
12.5,-0.313,0.847,-0.147
12.51,-0.211,1.149,-0.083
12.52,-0.111,0.89,0.066
12.53,-0.114,0.805,0.194
12.54,-0.325,1.128,-0.074
12.55,-0.263,0.771,-0.173
12.56,-0.289,1.188,-0.029
12.57,-0.031,0.782,0.163
12.58,-0.169,1.054,0.073
12.59,-0.312,0.891,-0.16
12.6,-0.267,1.035,-0.043
12.61,-0.108,1.093,0.008
12.62,-0.036,0.727,0.159
12.63,-0.329,1.072,0.024
12.64,-0.298,0.819,-0.127
12.65,-0.231,1.209,-0.082
12.66,-0.123,0.844,0.115
12.67,-0.096,0.94,0.108
12.68,-0.33,0.977,-0.059
12.69,-0.246,0.915,-0.166
12.7,-0.168,1.134,-0.049
12.71,-0.148,0.756,0.198
12.72,-0.17,1.113,0.093
12.73,-0.326,0.799,-0.168
12.74,-0.294,1.118,-0.083
12.75,-0.133,1.02,0.071
12.76,-0.08,0.878,0.153
12.77,-0.238,0.99,-0.002
12.78,-0.407,0.873,-0.113
12.79,-0.184,1.236,-0.065
12.8,-0.12,0.762,0.058
12.81,-0.127,1.01,0.141
12.82,-0.274,0.897,-0.066
12.83,-0.297,1.073,-0.179
12.84,-0.207,1.021,-0.03
12.85,-0.096,0.877,0.176
12.86,-0.177,1.04,0.097
12.87,-0.311,0.8,-0.176
12.88,-0.199,1.232,-0.041
12.89,-0.116,0.81,0.022
12.9,-0.089,0.998,0.166
12.91,-0.266,0.799,-0.043
12.92,-0.404,1.174,-0.113
12.93,-0.106,0.987,-0.083
12.94,-0.143,0.898,0.084
12.95,-0.234,0.975,0.191
12.96,-0.253,0.803,-0.12
12.97,-0.346,1.149,-0.16
12.98,-0.143,0.84,0.017
12.99,-0.073,1.183,0.16
13.0,-0.126,0.76,0.046
13.01,-0.366,1.046,-0.162
13.02,-0.223,1.153,-0.05
13.03,-0.109,0.916,-0.011
13.04,-0.117,0.972,0.188
13.05,-0.251,0.761,-0.003
13.06,-0.382,1.248,-0.15
13.07,-0.104,0.892,-0.09
13.08,-0.178,1.049,0.077
13.09,-0.135,0.81,0.185
13.1,-0.3,0.936,-0.092
13.11,-0.308,1.092,-0.142
13.12,-0.162,0.862,-0.011
13.13,-0.146,1.168,0.175
13.14,-0.072,0.711,0.043
13.15,-0.403,1.1,-0.152
13.16,-0.267,0.953,-0.058
13.17,-0.036,1.103,0.013
13.18,-0.116,0.907,0.14
13.19,-0.279,0.767,0.02
13.2,-0.404,1.224,-0.12
13.21,-0.07,0.887,-0.085
13.22,-0.221,1.14,0.113
13.23,-0.114,0.662,0.126
13.24,-0.334,1.081,-0.054
13.25,-0.314,0.974,-0.171
13.26,-0.201,0.864,-0.035
13.27,-0.088,1.119,0.195
13.28,-0.05,0.687,0.055
13.29,-0.448,1.194,-0.128
13.3,-0.198,0.833,-0.102
13.31,-0.122,1.244,0.051
13.32,-0.0,0.775,0.122
13.33,-0.3,0.841,-0.007
13.34,-0.412,1.137,-0.102
13.35,-0.079,0.917,-0.108
13.36,-0.146,1.15,0.047
13.37,-0.128,0.61,0.18
13.38,-0.331,1.143,-0.036
13.39,-0.23,0.877,-0.217
13.4,-0.211,0.986,-0.04
13.41,-0.105,0.986,0.162
13.42,-0.077,0.798,0.09
13.43,-0.412,1.152,-0.12
13.44,-0.219,0.737,-0.163
13.45,-0.239,1.306,0.123
13.46,-0.021,0.75,0.13
13.47,-0.234,0.969,0.022
13.48,-0.439,1.009,-0.084
13.49,-0.148,0.967,-0.103
13.5,-0.167,1.113,0.087
13.51,-0.075,0.64,0.126
13.52,-0.314,1.168,-0.053
13.53,-0.271,0.791,-0.164
13.54,-0.234,1.108,-0.028
13.55,-0.17,0.935,0.157
13.56,-0.131,0.925,0.135
13.57,-0.258,1.031,-0.165
13.58,-0.242,0.732,-0.148
13.59,-0.251,1.267,0.073
13.6,0.028,0.781,0.165
13.61,-0.19,1.08,0.029
13.62,-0.34,0.864,-0.146
13.63,-0.288,1.111,-0.061
13.64,-0.114,1.015,0.061
13.65,-0.014,0.782,0.121
13.66,-0.383,1.075,0.008
13.67,-0.275,0.918,-0.121
13.68,-0.246,1.141,-0.044
13.69,-0.078,0.748,0.109
13.7,-0.181,1.114,0.131
13.71,-0.267,0.867,-0.102
13.72,-0.333,1.061,-0.155
13.73,-0.204,0.937,0.026
13.74,-0.139,0.976,0.21
13.75,-0.109,1.008,0.014
13.76,-0.332,0.82,-0.157
13.77,-0.303,1.207,-0.012
13.78,-0.047,0.901,-0.014
13.79,-0.063,0.963,0.136
13.8,-0.256,0.863,-0.009
13.81,-0.277,1.055,-0.184
13.82,-0.202,1.01,-0.069
13.83,-0.124,0.886,0.107
13.84,-0.165,1.035,0.165
13.85,-0.332,0.813,-0.103
13.86,-0.353,1.148,-0.103
13.87,-0.17,0.896,0.005
13.88,-0.099,1.077,0.196
13.89,-0.102,0.87,0.038
13.9,-0.389,0.944,-0.131
13.91,-0.246,1.125,-0.094
13.92,-0.088,0.922,0.024
13.93,-0.082,1.013,0.146
13.94,-0.208,0.747,-0.018
13.95,-0.376,1.191,-0.126
13.96,-0.166,0.989,-0.084
13.97,-0.153,0.941,0.085
13.98,-0.149,0.885,0.156
13.99,-0.283,0.897,-0.06
14.0,-0.381,1.189,-0.12
14.01,-0.135,0.789,-0.054
14.02,-0.169,1.148,0.179
14.03,-0.075,0.775,0.066
14.04,-0.385,1.023,-0.135
14.05,-0.217,0.928,-0.163
14.06,-0.127,1.029,0.06
14.07,-0.074,1.023,0.109
14.08,-0.193,0.71,0.033
14.09,-0.415,1.226,-0.134
14.1,-0.102,0.932,-0.073
14.11,-0.202,1.15,0.081
14.12,-0.086,0.685,0.141
14.13,-0.339,0.977,-0.014
14.14,-0.291,1.096,-0.142
14.15,-0.187,0.82,-0.064
14.16,-0.125,1.118,0.133
14.17,-0.163,0.719,0.138
14.18,-0.383,1.129,-0.107
14.19,-0.237,0.789,-0.157
14.2,-0.181,1.12,0.071
14.21,-0.017,0.988,0.119
14.22,-0.207,0.767,0.041
14.23,-0.408,1.17,-0.103
14.24,-0.206,0.819,-0.071
14.25,-0.108,1.267,0.057
14.26,-0.055,0.659,0.164
14.27,-0.354,1.037,0.01
14.28,-0.33,0.958,-0.12
14.29,-0.152,0.993,-0.092
14.3,-0.144,1.027,0.103
14.31,-0.13,0.712,0.173
14.32,-0.346,1.173,-0.138
14.33,-0.327,0.742,-0.133
14.34,-0.223,1.154,0.009
14.35,-0.081,0.921,0.189
14.36,-0.114,0.917,0.071
14.37,-0.341,1.043,-0.137
14.38,-0.274,0.869,-0.068
14.39,-0.142,1.257,0.047
14.4,-0.003,0.668,0.147
14.41,-0.304,1.076,-0.01
14.42,-0.346,0.879,-0.127
14.43,-0.154,1.143,-0.082
14.44,-0.179,0.967,0.114
14.45,-0.096,0.758,0.168
14.46,-0.435,1.145,-0.026
14.47,-0.291,0.875,-0.104
14.48,-0.228,1.097,-0.044
14.49,-0.138,0.777,0.191
14.5,-0.151,1.135,0.064
14.51,-0.302,0.825,-0.183
14.52,-0.291,1.069,-0.077
14.53,-0.114,1.025,0.059
14.54,-0.028,0.856,0.122
14.55,-0.243,1.012,0.049
14.56,-0.323,0.87,-0.124
14.57,-0.184,1.273,-0.09
14.58,-0.143,0.794,0.072
14.59,-0.158,1.015,0.166
14.6,-0.265,0.89,-0.049
14.61,-0.357,1.01,-0.18
14.62,-0.23,0.977,-0.006
14.63,-0.062,0.865,0.136
14.64,-0.215,1.066,0.139
14.65,-0.24,0.8,-0.13
14.66,-0.347,1.176,-0.125
14.67,-0.138,0.895,0.054
14.68,-0.082,1.046,0.179
14.69,-0.171,0.836,0.03
14.7,-0.381,0.984,-0.116
14.71,-0.218,1.173,-0.042
14.72,-0.069,0.869,0.021
14.73,-0.078,1.0,0.14
14.74,-0.28,0.817,-0.038
14.75,-0.357,1.214,-0.166
14.76,-0.148,0.899,-0.072
14.77,-0.125,0.98,0.128
14.78,-0.175,0.931,0.147
14.79,-0.358,0.894,-0.119
14.8,-0.376,1.118,-0.132
14.81,-0.139,0.834,0.006
14.82,-0.06,1.188,0.16
14.83,-0.123,0.718,0.011
14.84,-0.376,1.094,-0.155
14.85,-0.232,1.093,-0.084
14.86,-0.094,0.974,0.013
14.87,-0.073,0.889,0.148
14.88,-0.208,0.797,-0.034
14.89,-0.413,1.254,-0.138
14.9,-0.143,0.891,-0.104
14.91,-0.148,1.059,0.097
14.92,-0.092,0.749,0.132
14.93,-0.314,1.011,-0.071
14.94,-0.345,1.052,-0.154
14.95,-0.164,0.832,-0.024
14.96,-0.038,1.146,0.151
14.97,-0.15,0.692,0.049
14.98,-0.381,1.172,-0.117
14.99,-0.2,0.917,-0.125
15.0,-0.154,1.156,0.068
15.01,-0.061,0.842,0.145
15.02,-0.205,0.819,-0.006
15.03,-0.406,1.165,-0.144
15.04,-0.178,0.862,-0.057
15.05,-0.143,1.184,0.091
15.06,-0.029,0.646,0.112
15.07,-0.387,1.091,-0.022
15.08,-0.349,0.905,-0.16
15.09,-0.178,0.923,-0.049
15.1,-0.125,1.055,0.184
15.11,-0.098,0.732,0.096
15.12,-0.405,1.161,-0.107
15.13,-0.253,0.733,-0.112
15.14,-0.205,1.242,0.043
15.15,0.02,0.853,0.145
15.16,-0.191,0.892,0.023
15.17,-0.419,1.022,-0.114
15.18,-0.114,0.984,-0.067
15.19,-0.135,1.194,0.026
15.2,-0.045,0.57,0.172
15.21,-0.379,1.157,-0.007
15.22,-0.349,0.832,-0.115
15.23,-0.189,1.039,-0.08
15.24,-0.079,0.954,0.128
15.25,-0.115,0.873,0.148
15.26,-0.349,0.932,-0.175
15.27,-0.228,0.842,-0.121
15.28,-0.151,1.24,0.067
15.29,-0.033,0.756,0.141
15.3,-0.206,1.073,0.039
15.31,-0.364,0.833,-0.146
15.32,-0.241,1.202,-0.08
15.33,-0.104,0.913,0.031
15.34,-0.016,0.844,0.143
15.35,-0.367,1.042,-0.032
15.36,-0.275,0.796,-0.173
15.37,-0.178,1.21,-0.057
15.38,-0.104,0.806,0.13
15.39,-0.134,1.073,0.104
15.4,-0.221,0.872,-0.111
15.41,-0.309,1.038,-0.149
15.42,-0.204,0.975,0.005
15.43,-0.052,0.852,0.174
15.44,-0.157,1.084,0.028
15.45,-0.327,0.785,-0.159
15.46,-0.307,1.199,-0.065
15.47,-0.042,0.911,0.052
15.48,-0.065,0.969,0.141
15.49,-0.273,0.879,0.028
15.5,-0.296,1.058,-0.121
15.51,-0.147,1.135,-0.114
15.52,-0.144,0.762,0.107
15.53,-0.146,1.054,0.155
15.54,-0.275,0.863,-0.086
15.55,-0.415,1.158,-0.124
15.56,-0.167,0.845,-0.044
15.57,-0.101,1.027,0.209
15.58,-0.11,0.912,0.036
15.59,-0.325,0.893,-0.125
15.6,-0.263,1.208,-0.066
15.61,-0.162,0.875,0.028
15.62,-0.07,0.985,0.15
15.63,-0.169,0.818,-0.009
15.64,-0.432,1.154,-0.102
15.65,-0.199,1.012,-0.077
15.66,-0.123,0.91,0.075
15.67,-0.141,0.921,0.17
15.68,-0.297,0.852,-0.029
15.69,-0.312,1.227,-0.173
15.7,-0.181,0.829,-0.073
15.71,-0.157,1.139,0.191
15.72,-0.095,0.826,0.113
15.73,-0.357,0.985,-0.113
15.74,-0.296,1.069,-0.084
15.75,-0.127,0.982,0.032
15.76,-0.089,1.037,0.142
15.77,-0.145,0.7,0.024
15.78,-0.441,1.227,-0.119
15.79,-0.129,0.949,-0.091
15.8,-0.183,1.079,0.079
15.81,-0.054,0.767,0.12
15.82,-0.317,0.911,-0.011
15.83,-0.362,1.145,-0.139
15.84,-0.173,0.825,-0.052
15.85,-0.129,1.185,0.127
15.86,-0.109,0.71,0.106
15.87,-0.375,1.094,-0.114
15.88,-0.205,0.877,-0.152
15.89,-0.172,1.065,0.006
15.9,-0.062,1.009,0.142
15.91,-0.157,0.742,0.054
15.92,-0.386,1.169,-0.141
15.93,-0.231,0.828,-0.065
15.94,-0.176,1.216,0.048
15.95,-0.039,0.707,0.18
15.96,-0.25,0.96,0.001
15.97,-0.374,1.017,-0.151
15.98,-0.156,0.958,-0.092
15.99,-0.15,1.116,0.082
16.0,-0.06,0.626,0.145
16.01,-0.406,1.206,-0.017
16.02,-0.303,0.781,-0.185
16.03,-0.219,1.054,-0.055
16.04,-0.095,0.965,0.181
16.05,-0.13,0.835,0.092
16.06,-0.277,0.929,-0.138
16.07,-0.24,0.931,-0.067
16.08,-0.117,1.184,0.036
16.09,-0.009,0.704,0.148
16.1,-0.256,1.117,0.018
16.11,-0.336,0.823,-0.145
16.12,-0.199,1.224,-0.061
16.13,-0.146,0.897,0.076
16.14,-0.094,0.865,0.136
16.15,-0.373,1.049,-0.025
16.16,-0.247,0.851,-0.181
16.17,-0.231,1.149,-0.079
16.18,-0.11,0.771,0.202
16.19,-0.136,1.094,0.095
16.2,-0.324,0.861,-0.114
16.21,-0.279,1.044,-0.066
16.22,-0.129,1.075,0.034
16.23,-0.026,0.804,0.146
16.24,-0.275,1.036,0.065
16.25,-0.32,0.813,-0.128
16.26,-0.25,1.284,-0.062
16.27,-0.173,0.823,0.048
16.28,-0.092,0.961,0.153
16.29,-0.304,0.967,0.023
16.3,-0.26,1.028,-0.215
16.31,-0.28,1.033,-0.039
16.32,-0.089,0.819,0.115
16.33,-0.185,1.143,0.183
16.34,-0.28,0.786,-0.135
16.35,-0.385,1.12,-0.084
16.36,-0.173,0.94,0.02
16.37,-0.061,0.988,0.128
16.38,-0.178,0.885,0.064
16.39,-0.364,0.932,-0.124
16.4,-0.227,1.217,-0.073
16.41,-0.062,0.873,-0.008
16.42,-0.119,1.0,0.172
16.43,-0.185,0.783,-0.008
16.44,-0.369,1.196,-0.168
16.45,-0.2,0.966,-0.099
16.46,-0.115,0.931,0.102
16.47,-0.124,0.972,0.149
16.48,-0.335,0.877,-0.045
16.49,-0.348,1.178,-0.162
16.5,-0.181,0.822,-0.052
16.51,-0.122,1.127,0.189
16.52,-0.083,0.784,0.063
16.53,-0.343,0.999,-0.149
16.54,-0.214,1.019,-0.091
16.55,-0.164,0.972,0.041
16.56,-0.066,1.063,0.117
16.57,-0.124,0.706,0.007
16.58,-0.425,1.202,-0.124
16.59,-0.201,0.945,-0.05
16.6,-0.102,1.098,0.039
16.61,-0.043,0.741,0.147
16.62,-0.344,0.922,0.015
16.63,-0.338,1.138,-0.191
16.64,-0.136,0.822,-0.05
16.65,-0.168,1.167,0.12
16.66,-0.103,0.697,0.15
16.67,-0.34,1.105,-0.121
16.68,-0.257,0.861,-0.099
16.69,-0.235,1.056,0.048
16.7,-0.059,1.034,0.128
16.71,-0.188,0.753,0.064
16.72,-0.395,1.153,-0.135
16.73,-0.208,0.851,-0.081
16.74,-0.179,1.212,0.03
16.75,-0.016,0.675,0.15
16.76,-0.266,0.984,-0.005
16.77,-0.121,0.904,0.003
16.78,-0.074,0.969,0.155
16.79,-0.223,0.808,-0.03
16.8,-0.437,1.195,-0.133
16.81,-0.159,0.945,-0.087
16.82,-0.115,0.958,0.1
16.83,-0.117,0.906,0.138
16.84,-0.348,0.886,-0.092
16.85,-0.332,1.155,-0.139
16.86,-0.153,0.782,-0.008
16.87,-0.107,1.11,0.14
16.88,-0.121,0.802,0.05
16.89,-0.402,1.063,-0.123
16.9,-0.285,0.984,-0.064
16.91,-0.068,1.043,0.052
16.92,-0.078,0.966,0.107
16.93,-0.254,0.734,-0.004
16.94,-0.422,1.246,-0.13
16.95,-0.135,0.925,-0.109
16.96,-0.162,1.066,0.09
16.97,-0.089,0.735,0.141
16.98,-0.324,1.019,-0.008
16.99,-0.384,1.078,-0.156
17.0,-0.167,0.852,-0.057
17.01,-0.121,1.191,0.164
17.02,-0.084,0.647,0.044
17.03,-0.394,1.169,-0.094
17.04,-0.196,0.886,-0.108
17.05,-0.161,1.125,0.02
17.06,-0.045,0.898,0.136
17.07,-0.213,0.79,0.064
17.08,-0.413,1.162,-0.168
17.09,-0.147,0.895,-0.053
17.1,-0.162,1.258,0.045
17.11,-0.045,0.63,0.163
17.12,-0.328,1.059,-0.008
17.13,-0.353,0.976,-0.148
17.14,-0.19,0.941,-0.075
17.15,-0.083,1.024,0.099
17.16,-0.111,0.73,0.131
17.17,-0.397,1.187,-0.113
17.18,-0.271,0.727,-0.162
17.19,-0.226,1.179,0.043
17.2,-0.092,0.902,0.198
17.21,-0.187,0.894,0.044
17.22,-0.339,1.006,-0.17
17.23,-0.212,0.883,-0.04
17.24,-0.117,1.278,0.043
17.25,-0.055,0.646,0.164
17.26,-0.286,1.101,0.003
17.27,-0.364,0.852,-0.131
17.28,-0.198,1.085,-0.059
17.29,-0.128,0.96,0.084
17.3,-0.124,0.782,0.13
17.31,-0.368,1.122,-0.054
17.32,-0.239,0.734,-0.173
17.33,-0.259,1.189,0.015
17.34,0.028,0.84,0.172
17.35,-0.234,1.049,0.077
17.36,-0.242,0.874,-0.176
17.37,-0.246,1.019,-0.1
17.38,-0.097,1.13,0.026
17.39,-0.056,0.714,0.112
17.4,-0.298,1.091,0.048
17.41,-0.357,0.827,-0.137
17.42,-0.229,1.201,-0.069
17.43,-0.09,0.833,0.045
17.44,-0.111,0.928,0.17
17.45,-0.276,1.023,-0.066
17.46,-0.26,0.889,-0.16
17.47,-0.235,1.075,-0.06
17.48,-0.068,0.805,0.182
17.49,-0.18,1.133,0.132
17.5,-0.307,0.836,-0.158
17.51,-0.327,1.062,-0.071
17.52,-0.153,1.0,0.022
17.53,-0.045,0.93,0.164
17.54,-0.228,0.997,0.019
17.55,-0.381,0.819,-0.141
17.56,-0.232,1.275,-0.046
17.57,-0.108,0.835,0.025
17.58,-0.137,0.973,0.148
17.59,-0.301,0.851,-0.061
17.6,-0.33,1.188,-0.193
17.61,-0.213,0.879,-0.066
17.62,-0.188,0.969,0.17
17.63,-0.101,0.955,0.141
17.64,-0.305,0.886,-0.141
17.65,-0.316,1.109,-0.107
17.66,-0.181,0.888,0.061
17.67,-0.048,1.102,0.156
17.68,-0.139,0.747,0.008
17.69,-0.41,1.108,-0.126
17.7,-0.166,1.091,-0.057
17.71,-0.139,0.97,0.051
17.72,-0.144,0.91,0.177
17.73,-0.276,0.794,-0.02
17.74,-0.385,1.259,-0.111
17.75,-0.095,0.825,-0.083
17.76,-0.197,1.098,0.131
17.77,-0.073,0.795,0.143
17.78,-0.299,1.001,-0.106
17.79,-0.3,1.029,-0.149
17.8,-0.172,0.872,-0.007
17.81,-0.118,1.148,0.178
17.82,-0.123,0.73,0.06
17.83,-0.411,1.141,-0.138
17.84,-0.176,0.866,-0.098
17.85,-0.221,1.185,0.095
17.86,0.0,0.846,0.126
17.87,-0.246,0.831,-0.0
17.88,-0.441,1.174,-0.116
17.89,-0.086,0.903,-0.085
17.9,-0.164,1.16,0.093
17.91,-0.063,0.633,0.128
17.92,-0.401,1.133,-0.028
17.93,-0.327,0.902,-0.16
17.94,-0.223,0.949,-0.06
17.95,-0.117,1.059,0.16
17.96,-0.115,0.715,0.081
17.97,-0.345,1.188,-0.088
17.98,-0.227,0.775,-0.122
17.99,-0.181,1.219,0.033
18.0,-0.022,0.783,0.129
18.01,-0.271,0.924,0.043
18.02,-0.398,1.073,-0.132
18.03,-0.173,0.949,-0.114
18.04,-0.168,1.094,0.08
18.05,-0.044,0.612,0.162
18.06,-0.371,1.17,0.002
18.07,-0.271,0.799,-0.199
18.08,-0.248,1.053,-0.016
18.09,-0.052,0.972,0.138
18.1,-0.112,0.909,0.13
18.11,-0.335,1.063,-0.157
18.12,-0.25,0.694,-0.14
18.13,-0.236,1.247,0.078
18.14,-0.017,0.778,0.179
18.15,-0.292,1.038,0.067
18.16,-0.284,0.903,-0.196
18.17,-0.229,1.045,-0.105
18.18,-0.112,1.068,0.033
18.19,-0.035,0.687,0.14
18.2,-0.33,1.116,0.022
18.21,-0.259,0.794,-0.172
18.22,-0.26,1.18,-0.074
18.23,-0.034,0.839,0.07
18.24,-0.146,1.014,0.146
18.25,-0.265,0.96,-0.14
18.26,-0.328,0.839,-0.1
18.27,-0.179,1.108,-0.043
18.28,-0.001,0.85,0.157
18.29,-0.226,1.121,0.046
18.3,-0.307,0.827,-0.126
18.31,-0.263,1.105,-0.098
18.32,-0.123,1.031,0.042
18.33,-0.037,0.825,0.135
18.34,-0.275,0.992,0.033
18.35,-0.321,0.865,-0.124
18.36,-0.268,1.258,-0.078
18.37,-0.1,0.764,0.094
18.38,-0.057,1.059,0.134
18.39,-0.3,0.87,-0.066
18.4,-0.369,1.185,-0.177
18.41,-0.196,0.826,-0.019
18.42,-0.076,1.01,0.181
18.43,-0.186,0.985,0.103
18.44,-0.292,0.861,-0.13
18.45,-0.286,1.156,-0.095
18.46,-0.157,0.915,0.095
18.47,-0.064,1.071,0.126
18.48,-0.162,0.763,0.019
18.49,-0.375,1.137,-0.157
18.5,-0.169,1.069,-0.088
18.51,-0.11,0.931,0.068
18.52,-0.118,0.911,0.156
18.53,-0.308,0.822,-0.066
18.54,-0.404,1.243,-0.155
18.55,-0.152,0.802,-0.031
18.56,-0.196,1.105,0.172
18.57,-0.079,0.795,0.108
18.58,-0.341,1.018,-0.136
18.59,-0.272,1.029,-0.134
18.6,-0.127,0.917,0.008
18.61,-0.08,1.096,0.185
18.62,-0.143,0.677,0.007
18.63,-0.438,1.215,-0.148
18.64,-0.141,0.933,-0.1
18.65,-0.145,1.07,0.077
18.66,-0.107,0.782,0.159
18.67,-0.309,0.878,-0.028
18.68,-0.406,1.195,-0.141
18.69,-0.107,0.822,-0.076
18.7,-0.18,1.115,0.156
18.71,-0.071,0.676,0.116
18.72,-0.366,1.139,-0.08
18.73,-0.32,0.897,-0.156
18.74,-0.194,0.985,-0.015
18.75,-0.085,1.035,0.178
18.76,-0.178,0.721,0.061
18.77,-0.451,1.18,-0.148
18.78,-0.172,0.849,-0.048
18.79,-0.088,1.225,0.065
18.8,-0.027,0.677,0.143
18.81,-0.391,0.966,0.045
18.82,-0.265,1.026,-0.17
18.83,-0.181,0.909,-0.063
18.84,-0.137,1.105,0.119
18.85,-0.104,0.72,0.166
18.86,-0.386,1.157,-0.102
18.87,-0.268,0.747,-0.115
18.88,-0.269,1.138,-0.002
18.89,-0.031,0.951,0.184
18.9,-0.126,0.871,0.057
18.91,-0.362,1.084,-0.155
18.92,-0.282,0.852,-0.047
18.93,-0.114,1.261,0.036
18.94,0.036,0.661,0.134
18.95,-0.375,1.062,0.022
18.96,-0.403,0.879,-0.162
18.97,-0.194,1.071,-0.04
18.98,-0.052,1.001,0.075
18.99,-0.16,0.761,0.163
19.0,-0.294,1.179,-0.091
19.01,-0.277,0.722,-0.143
19.02,-0.264,1.151,-0.029
19.03,-0.089,0.861,0.17
19.04,-0.095,1.0,0.081
19.05,-0.339,0.983,-0.111
19.06,-0.26,0.872,-0.126
19.07,-0.206,1.201,0.053
19.08,-0.003,0.687,0.186
19.09,-0.276,1.081,0.041
19.1,-0.301,0.818,-0.162
19.11,-0.2,1.19,-0.084
19.12,-0.113,0.905,0.075
19.13,-0.072,0.845,0.143
19.14,-0.294,1.077,-0.059
19.15,-0.308,0.823,-0.154
19.16,-0.266,1.15,0.003
19.17,-0.082,0.778,0.149
19.18,-0.219,1.1,0.108
19.19,-0.262,0.792,-0.141
19.2,-0.265,1.175,-0.102
19.21,-0.182,0.949,0.055
19.22,-0.027,0.926,0.134
19.23,-0.212,0.968,0.007
19.24,-0.349,0.894,-0.139
19.25,-0.223,1.174,-0.049
19.26,-0.122,0.828,0.098
19.27,-0.158,1.037,0.119
19.28,-0.276,0.839,-0.052
19.29,-0.303,1.1,-0.182
19.3,-0.123,0.921,-0.071
19.31,-0.146,0.933,0.201
19.32,-0.162,1.051,0.111
19.33,-0.237,0.825,-0.157
19.34,-0.343,1.193,-0.076
19.35,-0.156,0.891,0.046
19.36,-0.117,1.046,0.185
19.37,-0.127,0.832,0.008
19.38,-0.403,1.038,-0.158
19.39,-0.197,1.075,-0.067
19.4,-0.113,0.917,0.079
19.41,-0.106,0.984,0.14
19.42,-0.282,0.799,-0.04
19.43,-0.389,1.203,-0.143
19.44,-0.103,0.852,-0.056
19.45,-0.114,1.021,0.104
19.46,-0.182,0.851,0.114
19.47,-0.326,0.969,-0.138
19.48,-0.276,1.129,-0.155
19.49,-0.133,0.836,0.039
19.5,-0.154,1.125,0.214
19.51,-0.154,0.734,0.009
19.52,-0.391,1.105,-0.176
19.53,-0.23,0.92,-0.079
19.54,-0.093,1.036,0.104
19.55,-0.134,0.931,0.117
19.56,-0.244,0.823,-0.04
19.57,-0.437,1.21,-0.093
19.58,-0.149,0.864,-0.046
19.59,-0.146,1.07,0.134
19.6,-0.167,0.744,0.125
19.61,-0.335,1.089,-0.146
19.62,-0.243,1.023,-0.168
19.63,-0.196,0.97,0.134
19.64,-0.038,1.048,0.131
19.65,-0.236,0.71,0.005
19.66,-0.448,1.217,-0.136
19.67,-0.069,0.922,-0.097
19.68,-0.189,1.113,0.113
19.69,-0.09,0.77,0.156
19.7,-0.299,0.955,-0.055
19.71,-0.36,1.072,-0.171
19.72,-0.164,0.871,-0.009
19.73,-0.093,1.161,0.201
19.74,-0.086,0.685,0.059
19.75,-0.44,1.17,-0.146
19.76,-0.196,0.955,-0.092
19.77,-0.133,1.105,0.043
19.78,-0.069,0.794,0.127
19.79,-0.249,0.799,-0.02
19.8,-0.422,1.233,-0.127
19.81,-0.118,0.876,-0.07
19.82,-0.19,1.133,0.102
19.83,-0.062,0.631,0.14
19.84,-0.441,1.107,-0.032
19.85,-0.303,0.926,-0.188
19.86,-0.191,0.918,0.014
19.87,-0.137,1.085,0.192
19.88,-0.118,0.725,0.067
19.89,-0.406,1.163,-0.166
19.9,-0.219,0.81,-0.079
19.91,-0.166,1.26,0.104
19.92,-0.041,0.798,0.162
19.93,-0.292,0.894,0.029
19.94,-0.368,1.067,-0.169
19.95,-0.148,0.947,-0.051
19.96,-0.188,1.109,0.064
19.97,-0.1,0.708,0.142
19.98,-0.402,1.235,-0.082
19.99,-0.266,0.766,-0.157
20.0,-0.197,1.192,0.019
20.01,0.013,0.861,0.177
20.02,-0.239,0.946,0.04
20.03,-0.389,0.942,-0.181
20.04,-0.143,0.939,-0.063
20.05,-0.092,1.221,0.07
20.06,-0.097,0.569,0.148
20.07,-0.32,1.137,-0.037
20.08,-0.266,0.855,-0.12
20.09,-0.23,1.134,-0.028
20.1,-0.114,0.861,0.128
20.11,-0.104,0.85,0.142
20.12,-0.367,1.115,-0.148
20.13,-0.272,0.748,-0.146
20.14,-0.141,1.277,0.069
20.15,-0.046,0.722,0.184
20.16,-0.256,1.029,-0.001
20.17,-0.377,0.914,-0.133
20.18,-0.122,1.094,-0.039
20.19,-0.197,1.03,0.079
20.2,-0.082,0.712,0.13
20.21,-0.308,1.153,-0.072
20.22,-0.21,0.767,-0.203
20.23,-0.233,1.164,-0.031
20.24,-0.136,0.821,0.175
20.25,-0.128,0.972,0.097
20.26,-0.383,0.985,-0.162
20.27,-0.298,0.887,-0.056
20.28,-0.117,1.201,0.02
20.29,-0.015,0.701,0.172
20.3,-0.244,1.092,0.019
20.31,-0.328,0.851,-0.155
20.32,-0.217,1.112,-0.119
20.33,-0.117,0.914,0.062
20.34,-0.077,0.886,0.186
20.35,-0.348,1.043,-0.124
20.36,-0.277,0.781,-0.095
20.37,-0.244,1.19,-0.027
20.38,0.021,0.822,0.134
20.39,-0.202,1.067,0.073
20.4,-0.276,0.865,-0.173
20.41,-0.274,1.085,-0.039
20.42,-0.095,1.082,0.006
20.43,-0.06,0.69,0.171
20.44,-0.287,1.102,0.053
20.45,-0.266,0.822,-0.134
20.46,-0.344,1.185,-0.012
20.47,-0.109,0.787,0.066
20.48,-0.164,1.005,0.172
20.49,-0.321,0.949,-0.116
20.5,-0.272,0.906,-0.158
20.51,-0.239,1.093,-0.013
20.52,-0.075,0.828,0.185
20.53,-0.145,1.077,0.063
20.54,-0.321,0.811,-0.158
20.55,-0.26,1.187,-0.007
20.56,-0.131,0.947,0.005
20.57,-0.018,0.848,0.142
20.58,-0.297,1.001,0.007
20.59,-0.334,0.915,-0.151
20.6,-0.145,1.192,-0.081
20.61,-0.123,0.769,0.117
20.62,-0.187,1.03,0.216
20.63,-0.292,0.908,-0.069
20.64,-0.403,1.062,-0.114
20.65,-0.221,0.947,-0.003
20.66,-0.061,0.938,0.192
20.67,-0.153,1.014,0.032
20.68,-0.366,0.822,-0.176
20.69,-0.264,1.23,-0.021
20.7,-0.074,0.903,0.046
20.71,-0.078,0.94,0.162
20.72,-0.26,0.892,0.011
20.73,-0.275,1.066,-0.172
20.74,-0.184,1.023,-0.087
20.75,-0.136,0.832,0.096
20.76,-0.116,1.003,0.136
20.77,-0.328,0.856,-0.152
20.78,-0.276,1.161,-0.106
20.79,-0.174,0.887,0.052
20.8,-0.055,1.054,0.154
20.81,-0.156,0.777,0.01
20.82,-0.412,1.099,-0.131
20.83,-0.244,1.089,-0.069
20.84,-0.068,0.919,0.058
20.85,-0.105,0.923,0.133
20.86,-0.297,0.826,-0.062
20.87,-0.378,1.28,-0.143
20.88,-0.131,0.876,-0.029
20.89,-0.154,1.031,0.155
20.9,-0.117,0.815,0.156
20.91,-0.332,0.993,-0.139
20.92,-0.284,1.094,-0.121
20.93,-0.169,0.879,0.044
20.94,-0.074,1.106,0.135
20.95,-0.135,0.736,0.006
20.96,-0.426,1.193,-0.194
20.97,-0.198,0.916,-0.066
20.98,-0.109,1.07,0.068
20.99,-0.098,0.842,0.155
21.0,-0.253,0.853,-0.063
21.01,-0.398,1.222,-0.104
21.02,-0.104,0.87,-0.036
21.03,-0.181,1.097,0.113
21.04,-0.137,0.69,0.127
21.05,-0.376,1.11,-0.15
21.06,-0.216,0.968,-0.15
21.07,-0.215,1.001,0.106
21.08,0.014,1.027,0.123
21.09,-0.248,0.724,-0.016
21.1,-0.434,1.167,-0.149
21.11,-0.101,0.94,-0.049
21.12,-0.188,1.141,0.076
21.13,-0.115,0.7,0.147
21.14,-0.349,0.999,-0.045
21.15,-0.334,1.032,-0.187
21.16,-0.151,0.837,0.016
21.17,-0.134,1.172,0.152
21.18,-0.097,0.67,0.047
21.19,-0.436,1.159,-0.135
21.2,-0.199,0.863,-0.096
21.21,-0.169,1.154,0.08
21.22,-0.101,0.865,0.121
21.23,-0.254,0.814,0.023
21.24,-0.418,1.173,-0.122
21.25,-0.068,0.851,-0.078
21.26,-0.243,1.138,0.082
21.27,-0.109,0.648,0.143
21.28,-0.362,1.116,-0.075
21.29,-0.292,0.905,-0.199
21.3,-0.22,0.979,0.02
21.31,-0.054,1.083,0.158
21.32,-0.115,0.736,0.044
21.33,-0.42,1.173,-0.144
21.34,-0.212,0.86,-0.036
21.35,-0.059,1.289,0.041
21.36,-0.062,0.689,0.116
21.37,-0.355,0.969,0.026
21.38,-0.281,1.062,-0.197
21.39,-0.143,0.902,-0.076
21.4,-0.177,1.059,0.129
21.41,-0.079,0.678,0.127
21.42,-0.396,1.186,-0.137
21.43,-0.269,0.779,-0.119
21.44,-0.245,1.17,0.069
21.45,-0.07,0.93,0.144
21.46,-0.215,0.806,0.029
21.47,-0.419,1.131,-0.148
21.48,-0.101,0.918,-0.07
21.49,-0.154,1.226,0.044
21.5,-0.069,0.58,0.171
21.51,-0.327,1.122,-0.019
21.52,-0.344,0.896,-0.184
21.53,-0.179,0.928,-0.067
21.54,-0.192,1.079,0.181
21.55,-0.077,0.753,0.092
21.56,-0.413,1.038,-0.128
21.57,-0.196,0.784,-0.112
21.58,-0.162,1.271,0.087
21.59,0.009,0.687,0.143
21.6,-0.266,1.071,0.011
21.61,-0.287,0.881,-0.158
21.62,-0.177,1.133,-0.071
21.63,-0.156,0.952,0.072
21.64,-0.108,0.723,0.131
21.65,-0.359,1.135,-0.063
21.66,-0.246,0.767,-0.209
21.67,-0.269,1.121,-0.004
21.68,-0.072,0.856,0.2
21.69,-0.116,1.029,0.089
21.7,-0.334,0.881,-0.169
21.71,-0.254,0.936,-0.083
21.72,-0.124,1.184,0.06
21.73,-0.046,0.687,0.154
21.74,-0.282,1.109,-0.005
21.75,-0.323,0.845,-0.142
21.76,-0.138,1.197,-0.116
21.77,-0.16,0.82,0.075
21.78,-0.114,0.888,0.192
21.79,-0.332,1.06,-0.07
21.8,-0.296,0.828,-0.173
21.81,-0.216,1.135,-0.032
21.82,-0.061,0.824,0.188
21.83,-0.118,1.089,0.055
21.84,-0.363,0.815,-0.176
21.85,-0.26,1.058,-0.039
21.86,-0.077,1.073,0.054
21.87,-0.028,0.787,0.123
21.88,-0.278,1.043,0.024
21.89,-0.36,0.836,-0.144
21.9,-0.206,1.235,-0.033
21.91,-0.152,0.781,0.1
21.92,-0.163,0.984,0.163
21.93,-0.343,0.94,-0.078
21.94,-0.321,0.961,-0.169
21.95,-0.171,1.016,-0.031
21.96,-0.065,0.858,0.174
21.97,-0.159,1.062,0.069
21.98,-0.327,0.8,-0.161
21.99,-0.292,1.169,-0.095
22.0,-0.098,0.966,0.093
22.01,-0.092,0.95,0.127
22.02,-0.228,0.932,-0.024
22.03,-0.427,0.926,-0.1
22.04,-0.136,1.162,-0.073
22.05,-0.105,0.778,0.056
22.06,-0.185,1.039,0.181
22.07,-0.307,0.865,-0.102
22.08,-0.335,1.083,-0.124
22.09,-0.167,0.966,-0.017
22.1,-0.051,0.986,0.178
22.11,-0.187,0.965,0.032
22.12,-0.281,0.844,-0.168
22.13,-0.274,1.272,-0.007
22.14,-0.105,0.833,0.021
22.15,-0.102,0.999,0.195
22.16,-0.237,0.87,-0.034
22.17,-0.382,1.067,-0.207
22.18,-0.133,1.008,-0.074
22.19,-0.07,0.881,0.111
22.2,-0.177,1.013,0.139
22.21,-0.316,0.833,-0.114
22.22,-0.29,1.203,-0.1
22.23,-0.166,0.901,0.016
22.24,-0.118,0.988,0.127
22.25,-0.158,0.879,0.058
22.26,-0.359,1.0,-0.157
22.27,-0.203,1.185,-0.064
22.28,-0.143,0.85,0.045
22.29,-0.073,0.966,0.164
22.3,-0.28,0.832,-0.048
22.31,-0.395,1.173,-0.162
22.32,-0.137,0.905,-0.06
22.33,-0.168,0.951,0.162
22.34,-0.124,0.929,0.108
22.35,-0.383,0.996,-0.147
22.36,-0.261,1.083,-0.106
22.37,-0.166,0.95,0.061
22.38,-0.081,1.095,0.153
22.39,-0.185,0.691,-0.025
22.4,-0.371,1.18,-0.146
22.41,-0.185,0.999,-0.034
22.42,-0.136,1.035,0.09
22.43,-0.094,0.804,0.126
22.44,-0.323,0.911,-0.07
22.45,-0.296,1.204,-0.149
22.46,-0.138,0.808,-0.002
22.47,-0.11,1.064,0.131
22.48,-0.118,0.742,0.108
22.49,-0.452,1.106,-0.149
22.5,-0.255,0.934,-0.101
22.51,-0.115,1.07,0.059
22.52,-0.094,0.945,0.131
22.53,-0.241,0.743,-0.011
22.54,-0.469,1.239,-0.119
22.55,-0.097,0.861,-0.072
22.56,-0.198,1.113,0.128
22.57,-0.115,0.718,0.136
22.58,-0.356,1.029,-0.078
22.59,-0.326,1.026,-0.162
22.6,-0.126,0.923,-0.001
22.61,-0.149,1.11,0.204
22.62,-0.09,0.687,0.026
22.63,-0.427,1.17,-0.145
22.64,-0.176,0.885,-0.091
22.65,-0.086,1.155,0.075
22.66,-0.047,0.779,0.15
22.67,-0.305,0.874,-0.032
22.68,-0.339,1.178,-0.146
22.69,-0.132,0.855,-0.021
22.7,-0.171,1.12,0.132
22.71,-0.167,0.704,0.163
22.72,-0.407,1.103,-0.123
22.73,-0.262,0.895,-0.123
22.74,-0.188,1.072,0.064
22.75,-0.076,1.003,0.161
22.76,-0.152,0.726,-0.019
22.77,-0.425,1.222,-0.159
22.78,-0.159,0.88,-0.048
22.79,-0.089,1.219,0.045
22.8,-0.082,0.692,0.165
22.81,-0.345,0.959,-0.044
22.82,-0.317,1.053,-0.137
22.83,-0.128,0.942,-0.033
22.84,-0.12,1.056,0.143
22.85,-0.146,0.691,0.111
22.86,-0.373,1.184,-0.158
22.87,-0.216,0.797,-0.133
22.88,-0.229,1.187,0.1
22.89,-0.027,0.882,0.138
22.9,-0.277,0.824,0.019
22.91,-0.415,1.097,-0.126
22.92,-0.099,0.937,-0.07
22.93,-0.228,1.168,0.1
22.94,-0.086,0.601,0.155
22.95,-0.395,1.131,-0.036
22.96,-0.306,0.849,-0.195
22.97,-0.176,1.002,-0.021
22.98,-0.145,1.004,0.175
22.99,-0.095,0.754,0.068
23.0,-0.445,1.167,-0.138
23.01,-0.165,0.765,-0.049
23.02,-0.143,1.288,-0.013
23.03,-0.047,0.684,0.189
23.04,-0.309,1.023,0.03
23.05,-0.315,0.983,-0.131
23.06,-0.163,0.956,-0.103
23.07,-0.169,1.093,0.066
23.08,-0.052,0.653,0.156
23.09,-0.373,1.195,-0.102
23.1,-0.254,0.742,-0.126
23.11,-0.283,1.176,0.036
23.12,-0.087,0.905,0.221
23.13,-0.141,0.873,0.031
23.14,-0.373,1.05,-0.176
23.15,-0.18,1.031,-0.067
23.16,-0.125,1.109,0.025
23.17,-0.107,0.66,0.18
23.18,-0.345,1.132,-0.011
23.19,-0.273,0.781,-0.158
23.2,-0.224,1.128,-0.061
23.21,-0.056,0.857,0.128
23.22,-0.131,0.962,0.136
23.23,-0.33,0.977,-0.145
23.24,-0.239,0.794,-0.142
23.25,-0.23,1.239,0.089
23.26,-0.023,0.754,0.161
23.27,-0.228,1.091,0.073
23.28,-0.377,0.83,-0.117
23.29,-0.24,1.134,-0.058
23.3,-0.094,1.017,0.05
23.31,-0.084,0.756,0.13
23.32,-0.334,1.076,-0.029
23.33,-0.276,0.875,-0.124
23.34,-0.196,1.196,-0.04
23.35,-0.146,0.699,0.124
23.36,-0.151,1.032,0.163
23.37,-0.255,0.963,-0.153
23.38,-0.358,0.913,-0.128
23.39,-0.226,1.053,0.05
23.4,0.035,0.874,0.169
23.41,-0.267,1.088,0.021
23.42,-0.387,0.75,-0.15
23.43,-0.216,1.262,-0.021
23.44,-0.074,0.919,0.042
23.45,-0.122,0.865,0.14
23.46,-0.328,1.002,-0.02
23.47,-0.188,0.956,-0.189
23.48,-0.206,1.14,-0.058
23.49,-0.151,0.765,0.168
23.5,-0.108,1.089,0.089
23.51,-0.269,0.817,-0.144
23.52,-0.324,1.088,-0.095
23.53,-0.149,1.0,0.055
23.54,0.019,0.846,0.157
23.55,-0.247,1.03,0.051
23.56,-0.336,0.858,-0.137
23.57,-0.224,1.253,-0.061
23.58,-0.135,0.795,0.076
23.59,-0.131,0.986,0.135
23.6,-0.305,0.889,-0.074
23.61,-0.243,1.079,-0.171
23.62,-0.148,1.048,-0.047
23.63,-0.168,0.832,0.164
23.64,-0.122,1.04,0.082
23.65,-0.293,0.84,-0.159
23.66,-0.301,1.179,-0.1
23.67,-0.165,0.926,0.078
23.68,-0.036,0.95,0.141
23.69,-0.192,0.873,-0.0
23.7,-0.401,1.03,-0.071
23.71,-0.149,1.179,-0.11
23.72,-0.136,0.759,0.07
23.73,-0.128,1.041,0.185
23.74,-0.329,0.858,-0.041
23.75,-0.324,1.158,-0.196
23.76,-0.188,0.937,-0.016
23.77,-0.175,0.979,0.169
23.78,-0.065,0.928,0.099
23.79,-0.319,0.867,-0.167
23.8,-0.323,1.188,-0.101
23.81,-0.08,0.875,0.023
23.82,-0.074,1.074,0.173
23.83,-0.132,0.791,-0.031
23.84,-0.424,1.139,-0.097
23.85,-0.123,1.04,-0.111
23.86,-0.134,0.874,0.055
23.87,-0.121,0.908,0.16
23.88,-0.374,0.832,-0.044
23.89,-0.274,1.271,-0.165
23.9,-0.191,0.83,-0.029
23.91,-0.177,1.056,0.15
23.92,-0.063,0.835,0.114
23.93,-0.401,0.979,-0.162
23.94,-0.248,0.939,-0.068
23.95,-0.094,1.099,0.049
23.96,-0.044,0.915,0.134
23.97,-0.229,0.772,0.004
23.98,-0.377,1.24,-0.122
23.99,-0.104,0.868,-0.104
24.0,-0.206,1.114,0.07
24.01,-0.075,0.717,0.186
24.02,-0.369,1.056,-0.07
24.03,-0.306,0.997,-0.143
24.04,-0.143,0.921,-0.038
24.05,-0.143,1.122,0.196
24.06,-0.125,0.68,0.086
24.07,-0.374,1.169,-0.166
24.08,-0.237,0.859,-0.07
24.09,-0.134,1.207,0.006
24.1,-0.016,0.825,0.135
24.11,-0.277,0.83,-0.021
24.12,-0.416,1.124,-0.12
24.13,-0.12,0.887,-0.107
24.14,-0.147,1.159,0.071
24.15,-0.099,0.618,0.139
24.16,-0.363,1.138,-0.052
24.17,-0.289,0.875,-0.177
24.18,-0.212,0.987,-0.044
24.19,-0.082,1.05,0.169
24.2,-0.115,0.752,0.07
24.21,-0.356,1.139,-0.109
24.22,-0.217,0.8,-0.054
24.23,-0.182,1.301,0.027
24.24,-0.048,0.708,0.157
24.25,-0.249,0.969,0.027
24.26,-0.401,1.009,-0.141
24.27,-0.118,0.971,-0.081
24.28,-0.176,1.143,0.096
24.29,-0.078,0.615,0.126
24.3,-0.346,1.172,-0.033
24.31,-0.241,0.795,-0.185
24.32,-0.219,1.093,-0.041
24.33,-0.115,0.91,0.142
24.34,-0.114,0.888,0.069
24.35,-0.344,1.053,-0.119
24.36,-0.225,0.77,-0.122
24.37,-0.195,1.328,0.097
24.38,-0.016,0.751,0.172
24.39,-0.199,1.031,0.021
24.4,-0.334,0.887,-0.145
24.41,-0.193,1.114,-0.088
24.42,-0.127,1.024,0.057
24.43,-0.094,0.725,0.151
24.44,-0.38,1.129,0.008
24.45,-0.275,0.813,-0.187
24.46,-0.237,1.159,-0.048
24.47,-0.11,0.801,0.139
24.48,-0.174,0.975,0.152
24.49,-0.279,0.988,-0.095
24.5,-0.232,0.856,-0.166
24.51,-0.263,1.13,0.049
24.52,0.026,0.807,0.171
24.53,-0.243,1.12,0.044
24.54,-0.327,0.771,-0.13
24.55,-0.312,1.201,-0.037
24.56,-0.024,1.013,0.029
24.57,-0.074,0.862,0.158
24.58,-0.285,0.982,-0.006
24.59,-0.254,0.853,-0.12
24.6,-0.234,1.196,-0.047
24.61,-0.143,0.761,0.107
24.62,-0.208,1.072,0.153
24.63,-0.223,0.895,-0.112
24.64,-0.329,1.066,-0.128
24.65,-0.174,0.994,-0.012
24.66,-0.079,0.89,0.184
24.67,-0.139,1.033,0.049
24.68,-0.302,0.836,-0.136
24.69,-0.288,1.204,-0.051
24.7,-0.101,0.859,-0.01
24.71,-0.099,0.945,0.165
24.72,-0.211,0.906,-0.03
24.73,-0.396,0.981,-0.127
24.74,-0.139,0.986,-0.05
24.75,-0.143,0.917,0.123
24.76,-0.131,0.987,0.151
24.77,-0.323,0.825,-0.124
24.78,-0.314,1.152,-0.088
24.79,-0.163,0.901,-0.021
24.8,-0.102,1.102,0.102
24.81,-0.165,0.792,0.096
24.82,-0.363,1.014,-0.112
24.83,-0.205,1.072,-0.137
24.84,-0.133,0.957,0.041
24.85,-0.079,1.003,0.159
24.86,-0.178,0.74,-0.021
24.87,-0.385,1.211,-0.126
24.88,-0.165,0.91,-0.09
24.89,-0.156,1.026,0.077
24.9,-0.091,0.813,0.15
24.91,-0.407,0.935,-0.02
24.92,-0.372,1.122,-0.158
24.93,-0.147,0.783,-0.039
24.94,-0.168,1.143,0.181
24.95,-0.122,0.711,0.072
24.96,-0.345,1.113,-0.158
24.97,-0.24,0.908,-0.127
24.98,-0.171,1.045,0.048
24.99,-0.03,0.993,0.147
25.0,-0.189,0.723,0.022
25.01,-0.481,1.173,-0.087
25.02,-0.157,0.903,-0.034
25.03,-0.104,1.244,0.081
25.04,-0.095,0.649,0.166
25.05,-0.379,0.969,-0.014
25.06,-0.341,1.066,-0.131
25.07,-0.099,0.907,-0.082
25.08,-0.137,1.103,0.124
25.09,-0.115,0.708,0.147
25.1,-0.365,1.171,-0.086
25.11,-0.088,1.186,0.054
25.12,-0.083,0.782,0.128
25.13,-0.29,0.872,-0.022
25.14,-0.38,1.152,-0.111
25.15,-0.16,0.89,-0.066
25.16,-0.151,1.115,0.101
25.17,-0.118,0.682,0.141
25.18,-0.397,1.135,-0.035
25.19,-0.275,0.837,-0.182
25.2,-0.219,0.992,-0.022
25.21,-0.144,1.041,0.174
25.22,-0.094,0.766,0.046
25.23,-0.385,1.144,-0.131
25.24,-0.235,0.776,-0.07
25.25,-0.131,1.307,0.084
25.26,-0.055,0.725,0.185
25.27,-0.196,0.948,-0.008
25.28,-0.444,1.028,-0.121
25.29,-0.149,0.942,-0.125
25.3,-0.123,1.12,0.059
25.31,-0.091,0.666,0.146
25.32,-0.405,1.143,-0.043
25.33,-0.276,0.759,-0.147
25.34,-0.25,1.098,-0.008
25.35,-0.072,0.916,0.126
25.36,-0.177,0.897,0.105
25.37,-0.273,1.039,-0.126
25.38,-0.223,0.78,-0.129
25.39,-0.25,1.269,0.04
25.4,0.042,0.773,0.11
25.41,-0.26,1.075,0.049
25.42,-0.305,0.879,-0.14
25.43,-0.281,1.24,-0.076
25.44,-0.121,0.898,0.068
25.45,-0.051,0.878,0.169
25.46,-0.35,1.004,-0.074
25.47,-0.322,0.877,-0.144
25.48,-0.19,1.167,-0.074
25.49,-0.062,0.747,0.074
25.5,-0.174,1.093,0.158
25.51,-0.267,0.831,-0.115
25.52,-0.306,1.029,-0.125
25.53,-0.133,0.991,-0.009
25.54,-0.095,0.901,0.147
25.55,-0.137,1.052,0.051
25.56,-0.344,0.82,-0.144
25.57,-0.269,1.207,-0.061
25.58,-0.077,0.895,0.052
25.59,-0.057,0.964,0.155
25.6,-0.221,0.88,-0.008
25.61,-0.362,1.014,-0.144
25.62,-0.167,1.116,-0.078
25.63,-0.108,0.784,0.107
25.64,-0.127,1.037,0.118
25.65,-0.304,0.849,-0.063
25.66,-0.363,1.17,-0.155
25.67,-0.181,0.843,-0.017
25.68,-0.084,1.061,0.169
25.69,-0.144,0.901,0.073
25.7,-0.321,0.885,-0.125
25.71,-0.257,1.148,-0.127
25.72,-0.168,0.895,0.074
25.73,-0.04,1.059,0.142
25.74,-0.155,0.736,-0.044
25.75,-0.439,1.152,-0.114
25.76,-0.161,1.047,-0.039
25.77,-0.083,0.988,0.062
25.78,-0.142,0.862,0.152
25.79,-0.265,0.855,-0.038
25.8,-0.332,1.286,-0.138
25.81,-0.186,0.787,-0.047
25.82,-0.168,1.083,0.183
25.83,-0.167,0.817,0.144
25.84,-0.354,1.005,-0.135
25.85,-0.299,0.976,-0.141
25.86,-0.158,0.954,0.015
25.87,-0.068,1.072,0.186
25.88,-0.108,0.642,-0.011
25.89,-0.459,1.209,-0.135
25.9,-0.13,0.943,-0.088
25.91,-0.12,1.127,0.027
25.92,-0.087,0.78,0.147
25.93,-0.296,0.913,-0.008
25.94,-0.361,1.152,-0.164
25.95,-0.192,0.857,-0.088
25.96,-0.193,1.146,0.147
25.97,-0.066,0.676,0.142
25.98,-0.375,1.108,-0.105
25.99,-0.288,0.863,-0.137
26.0,-0.177,1.022,-0.016
26.01,-0.115,1.033,0.177
26.02,-0.132,0.755,0.061
26.03,-0.423,1.162,-0.135
26.04,-0.228,0.805,-0.087
26.05,-0.193,1.271,0.072
26.06,0.015,0.725,0.133
26.07,-0.279,0.933,0.017
26.08,-0.355,1.052,-0.133
26.09,-0.149,0.987,-0.079
26.1,-0.187,1.128,0.084
26.11,-0.046,0.615,0.115
26.12,-0.423,1.164,-0.054
26.13,-0.25,0.804,-0.19
26.14,-0.177,1.074,-0.052
26.15,-0.108,0.9,0.136
26.16,-0.167,0.853,0.113
26.17,-0.248,1.133,-0.166
26.18,-0.222,0.789,-0.14
26.19,-0.186,1.216,0.046
26.2,0.034,0.768,0.148
26.21,-0.217,1.028,0.011
26.22,-0.369,0.788,-0.136
26.23,-0.185,1.171,-0.08
26.24,-0.107,0.93,0.08
26.25,-0.118,0.86,0.13
26.26,-0.355,1.032,-0.027
26.27,-0.175,0.873,-0.2
26.28,-0.227,1.142,-0.03
26.29,-0.092,0.757,0.132
26.3,-0.164,1.144,0.121
26.31,-0.284,0.835,-0.138
26.32,-0.328,1.022,-0.114
26.33,-0.166,1.072,0.03
26.34,-0.038,0.845,0.14
26.35,-0.177,1.06,0.053
26.36,-0.356,0.848,-0.149
26.37,-0.281,1.218,-0.06
26.38,-0.117,0.83,0.077
26.39,-0.053,0.99,0.153
26.4,-0.305,0.918,-0.013
26.41,-0.257,0.987,-0.162
26.42,-0.207,1.093,-0.069
26.43,-0.167,0.795,0.136
26.44,-0.171,1.101,0.137
26.45,-0.263,0.811,-0.114
26.46,-0.289,1.147,-0.144
26.47,-0.16,0.899,-0.025
26.48,-0.063,0.979,0.119
26.49,-0.145,0.952,0.035
26.5,-0.325,0.906,-0.128
26.51,-0.23,1.179,-0.07
26.52,-0.137,0.897,0.029
26.53,-0.083,1.09,0.15
26.54,-0.198,0.768,-0.035
26.55,-0.329,1.121,-0.157
26.56,-0.181,1.04,-0.034
26.57,-0.132,0.935,0.08
26.58,-0.148,0.917,0.158
26.59,-0.271,0.866,-0.06
26.6,-0.398,1.257,-0.108
26.61,-0.145,0.785,-0.031
26.62,-0.154,1.077,0.138
26.63,-0.155,0.826,0.088
26.64,-0.308,1.01,-0.156
26.65,-0.304,1.052,-0.102
26.66,-0.142,0.893,0.027
26.67,-0.011,1.093,0.175
26.68,-0.173,0.728,0.023
26.69,-0.42,1.193,-0.15
26.7,-0.186,0.98,-0.04
26.71,-0.086,1.097,0.047
26.72,-0.144,0.797,0.158
26.73,-0.279,0.874,-0.041
26.74,-0.353,1.184,-0.136
26.75,-0.166,0.802,-0.047
26.76,-0.16,1.106,0.13
26.77,-0.1,0.736,0.117
26.78,-0.403,1.112,-0.105
26.79,-0.334,0.877,-0.172
26.8,-0.143,0.996,-0.001
26.81,-0.038,1.048,0.155
26.82,-0.188,0.733,0.032
26.83,-0.402,1.182,-0.115
26.84,-0.205,0.846,-0.067
26.85,-0.076,1.2,0.048
26.86,-0.028,0.682,0.144
26.87,-0.303,0.955,0.007
26.88,-0.348,1.06,-0.122
26.89,-0.162,0.939,-0.096
26.9,-0.141,1.104,0.117
26.91,-0.094,0.665,0.14
26.92,-0.417,1.172,-0.074
26.93,-0.289,0.782,-0.15
26.94,-0.246,1.107,0.015
26.95,-0.083,0.968,0.17
26.96,-0.116,0.832,0.049
26.97,-0.388,1.102,-0.127
26.98,-0.182,0.789,-0.12
26.99,-0.103,1.3,0.061
27.0,-0.095,0.697,0.155
27.01,-0.34,1.116,0.026
27.02,-0.281,0.828,-0.138
27.03,-0.262,1.156,-0.039
27.04,-0.161,0.886,0.089
27.05,-0.075,0.892,0.15
27.06,-0.347,1.081,-0.113
27.07,-0.336,0.752,-0.14
27.08,-0.207,1.13,0.002
27.09,-0.073,0.848,0.156
27.1,-0.203,1.053,0.073
27.11,-0.337,0.847,-0.125
27.12,-0.234,1.042,-0.078
27.13,-0.131,1.184,0.068
27.14,-0.045,0.745,0.117
27.15,-0.271,1.037,0.027
27.16,-0.333,0.832,-0.152
27.17,-0.16,1.285,-0.052
27.18,-0.137,0.794,0.054
27.19,-0.076,0.876,0.134
27.2,-0.356,1.024,-0.017
27.21,-0.31,0.943,-0.155
27.22,-0.226,1.035,-0.065
27.23,-0.096,0.813,0.187
27.24,-0.176,1.124,0.07
27.25,-0.238,0.76,-0.186
27.26,-0.332,1.117,-0.093
27.27,-0.122,0.97,0.063
27.28,-0.096,0.905,0.152
27.29,-0.177,0.972,0.028
27.3,-0.326,0.837,-0.139
27.31,-0.294,1.228,-0.013
27.32,-0.049,0.822,0.037
27.33,-0.156,1.026,0.131
27.34,-0.239,0.825,-0.062
27.35,-0.322,1.139,-0.152
27.36,-0.153,0.993,-0.029
27.37,-0.094,0.839,0.146
27.38,-0.151,1.041,0.118
27.39,-0.289,0.839,-0.133
27.4,-0.325,1.17,-0.106
27.41,-0.135,0.885,0.037
27.42,-0.12,1.081,0.136
27.43,-0.185,0.833,0.02
27.44,-0.378,0.947,-0.162
27.45,-0.201,1.154,-0.051
27.46,-0.08,0.924,0.08
27.47,-0.148,0.985,0.135
27.48,-0.253,0.783,-0.058
27.49,-0.365,1.181,-0.097
27.5,-0.163,0.927,-0.061
27.51,-0.15,0.943,0.104
27.52,-0.134,0.897,0.141
27.53,-0.34,0.92,-0.111
27.54,-0.322,1.148,-0.094
27.55,-0.195,0.842,0.023
27.56,-0.055,1.155,0.171
27.57,-0.177,0.745,0.004
27.58,-0.368,1.099,-0.168
27.59,-0.238,1.051,-0.058
27.6,-0.035,0.988,0.037
27.61,-0.176,0.939,0.172
27.62,-0.283,0.803,-0.028
27.63,-0.331,1.257,-0.16
27.64,-0.171,0.812,-0.039
27.65,-0.213,1.054,0.15
27.66,-0.075,0.818,0.159
27.67,-0.326,1.006,-0.116
27.68,-0.272,0.971,-0.183
27.69,-0.173,0.91,0.038
27.7,0.003,1.177,0.111
27.71,-0.205,0.667,0.043
27.72,-0.403,1.161,-0.134
27.73,-0.18,0.999,-0.03
27.74,-0.088,1.084,-0.007
27.75,-0.101,0.78,0.182
27.76,-0.238,0.879,-0.042
27.77,-0.381,1.219,-0.155
27.78,-0.095,0.799,-0.064
27.79,-0.166,1.144,0.161
27.8,-0.121,0.725,0.174
27.81,-0.438,1.127,-0.11
27.82,-0.248,0.77,-0.137
27.83,-0.235,1.221,0.059
27.84,-0.004,0.857,0.118
27.85,-0.193,0.838,0.022
27.86,-0.372,1.102,-0.128
27.87,-0.137,0.918,-0.063
27.88,-0.155,1.213,0.021
27.89,-0.045,0.594,0.164
27.9,-0.319,1.125,-0.045
27.91,-0.332,0.902,-0.141
27.92,-0.223,1.017,-0.058
27.93,-0.12,0.994,0.127
27.94,-0.138,0.757,0.112
27.95,-0.394,1.178,-0.096
27.96,-0.224,0.749,-0.142
27.97,-0.228,1.211,0.036
27.98,-0.071,0.833,0.18
27.99,-0.178,1.0,0.083
28.0,-0.355,0.937,-0.176
28.01,-0.228,0.895,-0.069
28.02,-0.181,1.21,0.107
28.03,-0.019,0.671,0.126
28.04,-0.404,1.121,0.008
28.05,-0.258,0.804,-0.143
28.06,-0.212,1.217,-0.03
28.07,-0.161,0.872,0.13
28.08,-0.087,0.805,0.137
28.09,-0.383,1.118,-0.071
28.1,-0.278,0.819,-0.145
28.11,-0.213,1.155,-0.001
28.12,-0.018,0.803,0.194
28.13,-0.238,1.101,0.005
28.14,-0.388,0.808,-0.176
28.15,-0.216,1.075,-0.043
28.16,0.001,1.142,-0.031
28.17,-0.112,0.668,0.141
28.18,-0.358,1.144,-0.001
28.19,-0.224,0.803,-0.142
28.2,-0.258,1.17,-0.048
28.21,-0.108,0.795,0.139
28.22,-0.196,0.997,0.157
28.23,-0.315,0.956,-0.153
28.24,-0.263,0.891,-0.148
28.25,-0.26,1.176,0.025
28.26,0.062,0.751,0.172
28.27,-0.259,1.097,0.014
28.28,-0.43,0.772,-0.12
28.29,-0.205,1.171,-0.042
28.3,-0.094,1.01,0.063
28.31,-0.086,0.823,0.118
28.32,-0.366,1.049,-0.051
28.33,-0.223,0.854,-0.21
28.34,-0.212,1.185,-0.022
28.35,-0.125,0.747,0.176
28.36,-0.149,1.072,0.15
28.37,-0.265,0.901,-0.175
28.38,-0.276,1.023,-0.09
28.39,-0.21,1.05,0.03
28.4,0.037,0.843,0.152
28.41,-0.275,1.05,0.034
28.42,-0.318,0.793,-0.163
28.43,-0.238,1.274,-0.016
28.44,-0.118,0.852,0.055
28.45,-0.088,0.896,0.144
28.46,-0.337,0.974,-0.041
28.47,-0.271,0.982,-0.174
28.48,-0.197,1.07,-0.058
28.49,-0.092,0.809,0.146
28.5,-0.191,1.101,0.121
28.51,-0.283,0.813,-0.199
28.52,-0.254,1.111,-0.098
28.53,-0.207,0.995,0.07
28.54,-0.059,0.926,0.168
28.55,-0.208,0.939,0.023
28.56,-0.3,0.86,-0.15
28.57,-0.179,1.255,-0.027
28.58,-0.158,0.82,0.046
28.59,-0.12,0.954,0.151
28.6,-0.247,0.867,-0.042
28.61,-0.363,1.172,-0.168
28.62,-0.182,0.828,0.032
28.63,-0.132,1.065,0.192
28.64,-0.11,0.857,0.034
28.65,-0.421,0.897,-0.112
28.66,-0.234,1.16,-0.099
28.67,-0.056,0.89,0.007
28.68,-0.193,1.026,0.166
28.69,-0.17,0.763,-0.006
28.7,-0.367,1.215,-0.161
28.71,-0.127,1.02,-0.113
28.72,-0.192,0.907,0.094
28.73,-0.147,0.87,0.182
28.74,-0.323,0.871,-0.092
28.75,-0.366,1.169,-0.13
28.76,-0.185,0.776,-0.006
28.77,-0.09,1.177,0.192
28.78,-0.064,0.777,0.03
28.79,-0.415,1.0,-0.137
28.8,-0.242,1.047,-0.062
28.81,-0.027,1.022,0.018
28.82,-0.118,0.995,0.11
28.83,-0.248,0.723,-0.004
28.84,-0.396,1.241,-0.149
28.85,-0.117,0.948,-0.086
28.86,-0.157,1.055,0.099
28.87,-0.123,0.783,0.168
28.88,-0.34,0.961,-0.055
28.89,-0.356,1.143,-0.151
28.9,-0.147,0.769,-0.011
28.91,-0.102,1.15,0.151
28.92,-0.209,0.705,0.066
28.93,-0.401,1.108,-0.126
28.94,-0.134,0.944,-0.123
28.95,-0.193,1.123,0.085
28.96,-0.119,0.862,0.141
28.97,-0.174,0.788,-0.005
28.98,-0.416,1.251,-0.114
28.99,-0.151,0.821,-0.093
29.0,-0.146,1.154,0.112
29.01,-0.097,0.729,0.161
29.02,-0.388,1.023,-0.055
29.03,-0.317,0.962,-0.164
29.04,-0.131,0.891,0.003
29.05,-0.162,1.132,0.2
29.06,-0.081,0.715,0.067
29.07,-0.429,1.168,-0.153
29.08,-0.178,0.848,-0.068
29.09,-0.151,1.256,0.047
29.1,-0.068,0.757,0.151
29.11,-0.179,0.888,0.032
29.12,-0.393,1.12,-0.148
29.13,-0.157,0.88,-0.099
29.14,-0.189,1.172,0.106
29.15,-0.063,0.654,0.124
29.16,-0.389,1.154,-0.047
29.17,-0.276,0.844,-0.201
29.18,-0.209,0.984,-0.019
29.19,-0.063,0.991,0.135
29.2,-0.15,0.789,0.105
29.21,-0.364,1.136,-0.141
29.22,-0.244,0.788,-0.106
29.23,-0.165,1.321,0.058
29.24,-0.048,0.729,0.164
29.25,-0.201,0.975,-0.015
29.26,-0.393,1.004,-0.111
29.27,-0.115,0.973,-0.086
29.28,-0.163,1.117,0.067
29.29,-0.061,0.642,0.143
29.3,-0.435,1.189,-0.031
29.31,-0.26,0.766,-0.17
29.32,-0.245,1.118,-0.033
29.33,-0.098,0.937,0.216
29.34,-0.102,0.888,0.051
29.35,-0.391,1.053,-0.114
29.36,-0.162,0.841,-0.105
29.37,-0.187,1.307,0.023
29.38,-0.042,0.61,0.146
29.39,-0.27,1.108,0.077
29.4,-0.344,0.85,-0.143
29.41,-0.251,1.184,-0.088
29.42,-0.104,0.849,0.087
29.43,-0.112,0.902,0.16
29.44,-0.357,1.047,-0.04
29.45,-0.255,0.88,-0.193
29.46,-0.223,1.125,-0.051
29.47,-0.052,0.771,0.162
29.48,-0.237,1.136,0.136
29.49,-0.296,0.816,-0.163
29.5,-0.248,1.032,-0.093
29.51,-0.175,1.065,0.03
29.52,-0.071,0.81,0.155
29.53,-0.237,1.052,0.043
29.54,-0.29,0.817,-0.143
29.55,-0.283,1.248,-0.052
29.56,-0.097,0.829,0.06
29.57,-0.099,0.985,0.143
29.58,-0.251,0.904,-0.058
29.59,-0.332,1.029,-0.099
29.6,-0.172,1.086,-0.068
29.61,-0.094,0.754,0.071
29.62,-0.229,1.059,0.166
29.63,-0.274,0.856,-0.112
29.64,-0.322,1.132,-0.127
29.65,-0.14,0.889,0.034
29.66,-0.077,1.038,0.153
29.67,-0.178,0.905,0.03
29.68,-0.307,0.89,-0.158
29.69,-0.266,1.205,-0.021
29.7,-0.038,0.876,0.053
29.71,-0.165,1.049,0.151
29.72,-0.237,0.76,-0.054
29.73,-0.315,1.171,-0.127
29.74,-0.14,0.951,-0.11
29.75,-0.118,0.919,0.154
29.76,-0.127,1.024,0.15
29.77,-0.288,0.819,-0.104
29.78,-0.326,1.168,-0.142
29.79,-0.216,0.851,0.043
29.8,-0.092,1.077,0.185
29.81,-0.126,0.787,0.057
29.82,-0.347,1.019,-0.148
29.83,-0.287,1.107,-0.055
29.84,-0.042,0.939,0.027
29.85,-0.083,1.001,0.149
29.86,-0.253,0.758,-0.009
29.87,-0.382,1.252,-0.145
29.88,-0.18,0.879,-0.087
29.89,-0.18,1.034,0.131
29.9,-0.121,0.844,0.157
29.91,-0.332,0.927,-0.06
29.92,-0.36,1.123,-0.192
29.93,-0.083,0.807,-0.022
29.94,-0.161,1.165,0.171
29.95,-0.124,0.731,0.102
29.96,-0.391,1.102,-0.135
29.97,-0.257,0.943,-0.114
29.98,-0.171,1.106,0.041
29.99,-0.112,0.913,0.147
30.0,-0.174,0.761,-0.004
30.01,-0.417,1.228,-0.156
30.02,-0.107,0.893,-0.082
30.03,-0.146,1.176,0.078
30.04,-0.055,0.679,0.14
30.05,-0.398,1.011,-0.041
30.06,-0.304,1.03,-0.171
30.07,-0.172,0.905,-0.048
30.08,-0.144,1.111,0.131
30.09,-0.144,0.693,0.089
30.1,-0.394,1.165,-0.128
30.11,-0.19,0.784,-0.133
30.12,-0.218,1.189,0.064
30.13,-0.031,0.891,0.164
30.14,-0.196,0.823,0.053
30.15,-0.433,1.09,-0.118
30.16,-0.173,0.927,-0.06
30.17,-0.169,1.256,0.067
30.18,-0.052,0.608,0.144
30.19,-0.377,1.12,-0.029
30.2,-0.3,0.78,-0.158
30.21,-0.243,1.092,-0.028
30.22,-0.094,0.942,0.176
30.23,-0.101,0.915,0.121
30.24,-0.339,1.015,-0.133
30.25,-0.207,0.753,-0.129
30.26,-0.202,1.274,0.036
30.27,-0.027,0.753,0.13
30.28,-0.215,1.046,0.036
30.29,-0.387,0.869,-0.149
30.3,-0.216,1.08,-0.053
30.31,-0.149,1.089,0.052
30.32,-0.068,0.697,0.141
30.33,-0.341,1.122,0.041
30.34,-0.216,0.816,-0.188
30.35,-0.307,1.181,-0.055
30.36,-0.109,0.819,0.109
30.37,-0.09,1.058,0.144
30.38,-0.317,0.917,-0.119
30.39,-0.296,0.901,-0.078
30.4,-0.17,1.151,-0.034
30.41,-0.083,0.788,0.176
30.42,-0.189,1.11,0.051
30.43,-0.341,0.809,-0.101
30.44,-0.208,1.166,-0.113
30.45,-0.129,0.96,0.019
30.46,-0.056,0.842,0.155
30.47,-0.208,1.016,0.031
30.48,-0.334,0.863,-0.13
30.49,-0.304,1.225,-0.036
30.5,-0.152,0.798,0.069
30.51,-0.1,1.03,0.134
30.52,-0.25,0.846,-0.047
30.53,-0.339,1.088,-0.18
30.54,-0.188,0.961,-0.036
30.55,-0.007,0.874,0.124
30.56,-0.193,1.065,0.097
30.57,-0.33,0.818,-0.133
30.58,-0.349,1.179,-0.097
30.59,-0.136,0.841,0.025
30.6,-0.154,1.081,0.214
30.61,-0.209,0.854,0.014
30.62,-0.321,0.936,-0.164
30.63,-0.239,1.135,-0.075
30.64,-0.101,0.878,0.06
30.65,-0.066,1.026,0.135
30.66,-0.232,0.764,-0.045
30.67,-0.398,1.173,-0.143
30.68,-0.13,0.948,-0.024
30.69,-0.187,0.976,0.125
30.7,-0.126,0.832,0.102
30.71,-0.303,0.958,-0.05
30.72,-0.327,1.217,-0.13
30.73,-0.166,0.739,-0.017
30.74,-0.084,1.105,0.212
30.75,-0.075,0.821,0.02
30.76,-0.437,1.043,-0.17
30.77,-0.226,0.977,-0.065
30.78,-0.051,1.094,0.114
30.79,-0.142,0.947,0.106
30.8,-0.267,0.761,-0.008
30.81,-0.426,1.275,-0.11
30.82,-0.15,0.905,-0.093
30.83,-0.119,1.077,0.085
30.84,-0.159,0.792,0.171
30.85,-0.304,0.994,-0.128
30.86,-0.354,1.059,-0.116
30.87,-0.156,0.903,-0.023
30.88,-0.124,1.118,0.177
30.89,-0.094,0.708,0.023
30.9,-0.413,1.177,-0.146
30.91,-0.232,0.92,-0.029
30.92,-0.118,1.125,0.016
30.93,-0.093,0.8,0.155
30.94,-0.26,0.846,0.004
30.95,-0.362,1.192,-0.152
30.96,-0.123,0.82,-0.073
30.97,-0.104,1.179,0.107
30.98,-0.129,0.699,0.174
30.99,-0.442,1.126,-0.119
31.0,-0.17,0.762,-0.118
31.01,-0.32,1.244,0.078
31.02,-0.038,0.874,0.152
31.03,-0.166,0.808,0.027
31.04,-0.401,1.101,-0.146
31.05,-0.143,0.878,-0.074
31.06,-0.205,1.226,0.053
31.07,0.009,0.653,0.18
31.08,-0.374,1.091,-0.009
31.09,-0.317,0.867,-0.142
31.1,-0.207,1.046,-0.069
31.11,-0.144,1.007,0.107
31.12,-0.158,0.758,0.167
31.13,-0.338,1.145,-0.126
31.14,-0.247,0.722,-0.15
31.15,-0.225,1.245,0.03
31.16,-0.072,0.855,0.167
31.17,-0.168,0.951,0.058
31.18,-0.305,0.973,-0.134
31.19,-0.201,0.893,-0.113
31.2,-0.233,1.22,0.088
31.21,-0.047,0.708,0.138
31.22,-0.278,1.11,-0.004
31.23,-0.317,0.822,-0.179
31.24,-0.243,1.173,-0.029
31.25,-0.074,0.901,0.079
31.26,-0.084,0.8,0.153
31.27,-0.376,1.107,-0.035
31.28,-0.281,0.836,-0.181
31.29,-0.193,1.171,-0.027
31.3,-0.062,0.78,0.121
31.31,-0.243,1.069,0.104
31.32,-0.256,0.857,-0.168
31.33,-0.269,1.034,-0.104
31.34,-0.177,1.093,0.059
31.35,-0.027,0.778,0.169
31.36,-0.245,1.075,0.015
31.37,-0.382,0.821,-0.144
31.38,-0.247,1.205,-0.086
31.39,-0.102,0.805,0.089
31.4,-0.085,0.967,0.136
31.41,-0.329,0.989,-0.032
31.42,-0.289,0.868,-0.172
31.43,-0.188,1.089,-0.018
31.44,-0.097,0.83,0.191
31.45,-0.17,1.094,0.085
31.46,-0.338,0.788,-0.161
31.47,-0.275,1.114,-0.076
31.48,-0.082,1.024,0.047
31.49,-0.132,0.805,0.131
31.5,-0.204,1.034,0.035
31.51,-0.308,0.915,-0.129
31.52,-0.228,1.221,-0.109
31.53,-0.166,0.732,0.084
31.54,-0.09,1.041,0.17
31.55,-0.277,0.905,-0.099
31.56,-0.362,0.964,-0.178
31.57,-0.155,1.001,-0.043
31.58,-0.069,0.944,0.193
31.59,-0.177,1.022,0.046
31.6,-0.333,0.793,-0.116
31.61,-0.24,1.192,-0.069
31.62,-0.138,0.952,0.037
31.63,-0.116,0.926,0.137
31.64,-0.186,0.89,0.027
31.65,-0.344,1.028,-0.124
31.66,-0.155,1.158,-0.098
31.67,-0.166,0.758,0.045
31.68,-0.105,1.0,0.17
31.69,-0.279,0.881,-0.076
31.7,-0.349,1.123,-0.196
31.71,-0.183,0.853,-0.032
31.72,-0.103,1.015,0.208
31.73,-0.169,0.975,0.067
31.74,-0.352,0.817,-0.13
31.75,-0.269,1.196,-0.062
31.76,-0.01,0.956,0.023
31.77,-0.091,1.041,0.106
31.78,-0.18,0.779,-0.001
31.79,-0.431,1.235,-0.148
31.8,-0.07,0.925,-0.074
31.81,-0.172,1.009,0.08
31.82,-0.133,0.842,0.161
31.83,-0.313,0.919,-0.112
31.84,-0.343,1.109,-0.141
31.85,-0.16,0.817,0.003
31.86,-0.089,1.207,0.156
31.87,-0.134,0.722,0.037
31.88,-0.373,1.087,-0.157
31.89,-0.24,1.007,-0.024
31.9,-0.1,1.033,0.062
31.91,-0.093,0.929,0.128
31.92,-0.239,0.747,-0.015
31.93,-0.418,1.24,-0.137
31.94,-0.111,0.912,-0.054
31.95,-0.161,1.101,0.045
31.96,-0.107,0.657,0.158
31.97,-0.387,1.056,-0.032
31.98,-0.351,1.048,-0.176
31.99,-0.162,0.82,0.007
32.0,-0.132,1.163,0.189
32.01,-0.146,0.702,0.043
32.02,-0.408,1.151,-0.2
32.03,-0.179,0.868,-0.084
32.04,-0.203,1.188,0.059
32.05,-0.012,0.828,0.139
32.06,-0.277,0.841,-0.009
32.07,-0.376,1.136,-0.12
32.08,-0.148,0.897,-0.068
32.09,-0.191,1.156,0.107
32.1,-0.066,0.664,0.15
32.11,-0.39,1.124,-0.076
32.12,-0.311,0.909,-0.186
32.13,-0.158,0.98,-0.033
32.14,-0.087,1.051,0.186
32.15,-0.104,0.731,0.035
32.16,-0.43,1.168,-0.141
32.17,-0.238,0.842,-0.034
32.18,-0.068,1.26,0.028
32.19,-0.099,0.679,0.144
32.2,-0.302,0.957,0.026
32.21,-0.404,1.045,-0.106
32.22,-0.101,0.904,-0.081
32.23,-0.243,1.11,0.143
32.24,-0.064,0.641,0.146
32.25,-0.425,1.172,-0.101
32.26,-0.264,0.777,-0.184
32.27,-0.182,1.092,0.013
32.28,-0.078,0.956,0.162
32.29,-0.176,0.824,0.065
32.3,-0.402,1.084,-0.154
32.31,-0.149,0.797,-0.07
32.32,-0.06,1.316,-0.024
32.33,-0.068,0.625,0.174
32.34,-0.298,1.083,0.005
32.35,-0.275,0.936,-0.136
32.36,-0.215,1.002,-0.083
32.37,-0.162,1.0,0.14
32.38,-0.102,0.785,0.208
32.39,-0.373,1.149,-0.128
32.4,-0.278,0.697,-0.117
32.41,-0.274,1.248,0.052
32.42,-0.004,0.853,0.143
32.43,-0.141,0.919,0.038
32.44,-0.402,0.99,-0.139
32.45,-0.16,0.995,-0.055
32.46,-0.168,1.189,-0.005
32.47,-0.073,0.574,0.179
32.48,-0.351,1.155,0.025
32.49,-0.229,0.846,-0.173
32.5,-0.231,1.107,-0.063
32.51,-0.138,0.88,0.131
32.52,-0.104,0.889,0.159
32.53,-0.337,1.057,-0.14
32.54,-0.263,0.755,-0.114
32.55,-0.206,1.26,0.025
32.56,-0.046,0.811,0.145
32.57,-0.182,1.04,0.018
32.58,-0.332,0.798,-0.16
32.59,-0.196,1.211,-0.037
32.6,-0.153,0.918,0.021
32.61,-0.063,0.78,0.174
32.62,-0.357,1.089,-0.01
32.63,-0.26,0.867,-0.19
32.64,-0.243,1.109,-0.067
32.65,-0.056,0.759,0.163
32.66,-0.206,1.132,0.123
32.67,-0.312,0.816,-0.157
32.68,-0.257,1.023,-0.108
32.69,-0.179,1.114,0.054
32.7,-0.068,0.768,0.179
32.71,-0.212,1.054,0.024
32.72,-0.352,0.833,-0.108
32.73,-0.193,1.278,-0.071
32.74,-0.146,0.809,0.037
32.75,-0.083,0.905,0.152
32.76,-0.301,0.971,-0.023
32.77,-0.319,0.967,-0.153
32.78,-0.226,1.019,-0.039
32.79,-0.117,0.812,0.171
32.8,-0.181,1.104,0.136
32.81,-0.253,0.794,-0.187
32.82,-0.27,1.103,-0.104
32.83,-0.165,0.958,0.062
32.84,-0.024,0.94,0.15
32.85,-0.226,0.962,0.004
32.86,-0.342,0.888,-0.125
32.87,-0.223,1.225,-0.055
32.88,-0.078,0.816,0.04
32.89,-0.148,0.994,0.142
32.9,-0.295,0.871,-0.042
32.91,-0.285,1.135,-0.173
32.92,-0.132,0.98,-0.058
32.93,-0.124,0.85,0.133
32.94,-0.135,1.005,0.135
32.95,-0.279,0.835,-0.18
32.96,-0.321,1.161,-0.111
32.97,-0.164,0.894,0.065
32.98,-0.049,1.08,0.155
32.99,-0.214,0.804,-0.001
33.0,-0.34,0.996,-0.166
33.01,-0.162,1.17,-0.046
33.02,-0.139,0.83,0.057
33.03,-0.068,0.942,0.147
33.04,-0.251,0.837,-0.064
33.05,-0.35,1.238,-0.141
33.06,-0.154,0.859,-0.044
33.07,-0.124,0.971,0.151
33.08,-0.171,0.934,0.141
33.09,-0.289,0.904,-0.193
33.1,-0.297,1.128,-0.112
33.11,-0.142,0.875,0.098
33.12,-0.064,1.112,0.135
33.13,-0.208,0.729,-0.046
33.14,-0.361,1.081,-0.114
33.15,-0.132,1.083,-0.05
33.16,-0.104,0.948,0.02
33.17,-0.178,0.904,0.139
33.18,-0.271,0.861,-0.043
33.19,-0.395,1.199,-0.132
33.2,-0.182,0.831,-0.02
33.21,-0.095,1.099,0.175
33.22,-0.067,0.799,0.039
33.23,-0.421,1.009,-0.153
33.24,-0.231,1.101,-0.093
33.25,-0.082,0.98,0.032
33.26,-0.118,0.933,0.139
33.27,-0.244,0.751,0.02
33.28,-0.367,1.263,-0.132
33.29,-0.144,0.899,-0.081
33.3,-0.181,1.025,0.118
33.31,-0.095,0.854,0.176
33.32,-0.322,0.913,-0.114
33.33,-0.316,1.099,-0.143
33.34,-0.172,0.848,-0.019
33.35,-0.046,1.158,0.144
33.36,-0.13,0.712,0.051
33.37,-0.411,1.1,-0.139
33.38,-0.14,0.955,-0.081
33.39,-0.193,1.141,0.051
33.4,-0.052,0.696,0.16
33.41,-0.328,0.954,-0.007
33.42,-0.318,1.148,-0.165
33.43,-0.158,0.818,-0.053
33.44,-0.135,1.117,0.119
33.45,-0.223,1.136,0.086
33.46,-0.085,0.703,0.181
33.47,-0.33,1.176,-0.098
33.48,-0.257,0.699,-0.132
33.49,-0.29,1.223,0.019
33.5,-0.072,0.921,0.173
33.51,-0.164,0.927,0.052
33.52,-0.353,0.965,-0.178
33.53,-0.173,0.942,-0.061
33.54,-0.132,1.233,-0.017
33.55,-0.065,0.616,0.177
33.56,-0.273,1.131,0.023
33.57,-0.311,0.881,-0.156
33.58,-0.213,1.078,-0.078
33.59,-0.153,0.879,0.084
33.6,-0.104,0.855,0.196
33.61,-0.342,1.11,-0.114
33.62,-0.283,0.729,-0.155
33.63,-0.225,1.182,0.024
33.64,-0.016,0.86,0.167
33.65,-0.225,1.042,0.058
33.66,-0.313,0.862,-0.157
33.67,-0.275,1.058,-0.048
33.68,-0.077,1.138,-0.008
33.69,-0.098,0.688,0.169
33.7,-0.3,1.124,0.021
33.71,-0.24,0.839,-0.162
33.72,-0.279,1.142,-0.062
33.73,-0.129,0.807,0.085
33.74,-0.061,0.965,0.171
33.75,-0.31,0.95,-0.148
33.76,-0.26,0.789,-0.116
33.77,-0.228,1.23,0.044
33.78,-0.027,0.831,0.17
33.79,-0.226,1.073,0.017
33.8,-0.301,0.822,-0.127
33.81,-0.207,1.186,-0.067
33.82,-0.074,1.013,0.024
33.83,-0.114,0.765,0.142
33.84,-0.301,1.079,0.009
33.85,-0.286,0.854,-0.146
33.86,-0.27,1.166,-0.062
33.87,-0.083,0.742,0.077
33.88,-0.153,1.047,0.162
33.89,-0.304,0.883,-0.108
33.9,-0.329,0.971,-0.153
33.91,-0.146,1.022,-0.005
33.92,-0.05,0.889,0.214
33.93,-0.181,1.058,0.055
33.94,-0.356,0.791,-0.158
33.95,-0.313,1.213,-0.04
33.96,-0.035,0.98,0.063
33.97,-0.146,0.915,0.151
33.98,-0.236,0.956,-0.016
33.99,-0.321,0.987,-0.157
34.0,-0.195,1.108,-0.066
34.01,-0.104,0.758,0.06
34.02,-0.127,1.068,0.166
34.03,-0.283,0.84,-0.155
34.04,-0.3,1.083,-0.131
34.05,-0.192,0.983,0.044
34.06,0.006,0.944,0.128
34.07,-0.199,0.96,0.03
34.08,-0.434,1.056,-0.14
34.09,-0.119,1.171,-0.082
34.1,-0.159,0.818,0.062
34.11,-0.1,0.958,0.175
34.12,-0.27,0.872,-0.037
34.13,-0.426,1.189,-0.206
34.14,-0.19,0.827,-0.026
34.15,-0.102,1.095,0.206
34.16,-0.131,0.911,0.055
34.17,-0.374,0.849,-0.142
34.18,-0.258,1.183,-0.054
34.19,-0.004,0.935,0.029
34.2,-0.157,0.981,0.134
34.21,-0.147,0.776,0.005
34.22,-0.449,1.199,-0.119
34.23,-0.12,1.017,-0.1
34.24,-0.14,0.911,0.067
34.25,-0.152,0.922,0.182
34.26,-0.32,0.843,-0.072
34.27,-0.364,1.19,-0.141
34.28,-0.149,0.837,-0.034
34.29,-0.156,1.158,0.197
34.3,-0.08,0.78,0.065
34.31,-0.351,1.007,-0.163
34.32,-0.207,1.094,-0.119
34.33,-0.146,1.002,0.043
34.34,-0.069,0.992,0.152
34.35,-0.167,0.719,-0.001
34.36,-0.481,1.254,-0.12
34.37,-0.141,0.927,-0.109
34.38,-0.156,0.982,0.137
34.39,-0.123,0.83,0.155
34.4,-0.328,0.933,-0.043
34.41,-0.43,1.112,-0.123
34.42,-0.148,0.801,-0.013
34.43,-0.11,1.221,0.196
34.44,-0.047,0.687,0.021
34.45,-0.41,1.127,-0.088
34.46,-0.201,0.985,-0.079
34.47,-0.134,1.06,0.032
34.48,-0.091,0.943,0.124
34.49,-0.196,0.746,-0.015
34.5,-0.399,1.223,-0.144
34.51,-0.11,0.905,-0.036
34.52,-0.192,1.136,0.086
34.53,-0.058,0.676,0.154
34.54,-0.39,1.041,-0.027
34.55,-0.331,1.013,-0.198
34.56,-0.176,0.809,-0.013
34.57,-0.092,1.113,0.146
34.58,-0.161,0.733,0.092
34.59,-0.389,1.163,-0.157
34.6,-0.197,0.812,-0.117
34.61,-0.144,1.187,0.096
34.62,-0.039,0.85,0.14
34.63,-0.198,0.831,0.011
34.64,-0.403,1.174,-0.126
34.65,-0.178,0.888,-0.071
34.66,-0.131,1.153,0.044
34.67,-0.109,0.647,0.171
34.68,-0.365,1.115,-0.038
34.69,-0.294,0.885,-0.184
34.7,-0.137,0.944,-0.017
34.71,-0.089,1.004,0.159
34.72,-0.134,0.776,0.12
34.73,-0.396,1.164,-0.141
34.74,-0.254,0.783,-0.077
34.75,-0.193,1.3,0.092
34.76,-0.085,0.766,0.163
34.77,-0.257,0.936,0.003
34.78,-0.356,1.036,-0.156
34.79,-0.096,0.963,-0.077
34.8,-0.157,1.156,0.083
34.81,-0.069,0.604,0.158
34.82,-0.446,1.167,-0.038
34.83,-0.261,0.819,-0.179
34.84,-0.21,1.071,-0.015
34.85,-0.111,0.898,0.196
34.86,-0.178,0.84,0.088
34.87,-0.348,1.101,-0.148
34.88,-0.18,0.931,-0.096
34.89,-0.114,1.211,0.088
34.9,-0.068,0.713,0.128
34.91,-0.295,1.099,0.004
34.92,-0.344,0.809,-0.143
34.93,-0.221,1.196,-0.038
34.94,-0.155,0.873,0.128
34.95,-0.188,0.827,0.162
34.96,-0.319,1.093,-0.078
34.97,-0.296,0.828,-0.127
34.98,-0.222,1.163,-0.039
34.99,0.011,0.784,0.179
35.0,-0.213,1.086,0.04
35.01,-0.346,0.845,-0.19
35.02,-0.233,1.093,-0.045
35.03,-0.1,1.092,0.028
35.04,-0.083,0.694,0.13
35.05,-0.349,1.134,0.05
35.06,-0.261,0.791,-0.181
35.07,-0.268,1.134,-0.037
35.08,-0.143,0.806,0.099
35.09,-0.111,1.009,0.16
35.1,-0.369,0.948,-0.119
35.11,-0.261,0.876,-0.142
35.12,-0.244,1.187,0.038
35.13,0.004,0.784,0.173
35.14,-0.275,1.11,0.082
35.15,-0.319,0.797,-0.117
35.16,-0.306,1.224,-0.039
35.17,-0.112,0.92,-0.011
35.18,-0.073,0.815,0.18
35.19,-0.308,1.018,-0.037
35.2,-0.29,0.917,-0.162
35.21,-0.244,1.157,-0.077
35.22,-0.106,0.744,0.093
35.23,-0.191,1.119,0.16
35.24,-0.26,0.84,-0.109
35.25,-0.311,0.97,-0.15
35.26,-0.207,1.031,0.043
35.27,-0.012,0.924,0.142
35.28,-0.283,1.051,0.064
35.29,-0.326,0.773,-0.146
35.3,-0.232,1.254,-0.051
35.31,-0.03,0.937,0.04
35.32,-0.13,0.95,0.121
35.33,-0.256,0.921,0.019
35.34,-0.335,1.019,-0.144
35.35,-0.17,1.081,-0.089
35.36,-0.114,0.752,0.082
35.37,-0.138,1.104,0.164
35.38,-0.276,0.846,-0.132
35.39,-0.375,1.072,-0.121
35.4,-0.181,0.931,0.078
35.41,-0.018,1.052,0.152
35.42,-0.228,0.896,0.03
35.43,-0.345,0.881,-0.146
35.44,-0.218,1.283,-0.009
35.45,-0.168,0.814,0.064
35.46,-0.124,0.968,0.167
35.47,-0.262,0.893,-0.027
35.48,-0.303,1.152,-0.197
35.49,-0.182,0.925,-0.087
35.5,-0.115,0.896,0.159
35.51,-0.127,1.061,0.18
35.52,-0.325,0.792,-0.147
35.53,-0.314,1.146,-0.137
35.54,-0.182,0.897,0.017
35.55,-0.049,1.025,0.14
35.56,-0.155,0.837,0.052
35.57,-0.349,1.03,-0.16
35.58,-0.23,1.129,-0.069
35.59,-0.093,0.882,0.053
35.6,-0.089,1.0,0.175
35.61,-0.254,0.794,-0.039
35.62,-0.348,1.227,-0.157
35.63,-0.187,0.9,-0.069
35.64,-0.103,0.969,0.055
35.65,-0.148,0.896,0.156
35.66,-0.35,0.912,-0.13
35.67,-0.309,1.099,-0.119
35.68,-0.162,1.001,0.046
35.69,-0.067,1.032,0.16
35.7,-0.17,0.71,0.023
35.71,-0.418,1.218,-0.128
35.72,-0.118,0.949,-0.102
35.73,-0.229,1.09,0.092
35.74,-0.097,0.75,0.154
35.75,-0.305,0.929,-0.042
35.76,-0.361,1.114,-0.177
35.77,-0.156,0.871,-0.018
35.78,-0.135,1.183,0.146
35.79,-0.138,0.732,0.108
35.8,-0.316,1.101,-0.115
35.81,-0.26,0.901,-0.1
35.82,-0.173,1.105,0.041
35.83,-0.084,0.988,0.156
35.84,-0.194,0.76,0.025
35.85,-0.399,1.167,-0.154
35.86,-0.124,0.854,-0.078
35.87,-0.125,1.239,0.057
35.88,-0.065,0.662,0.166
35.89,-0.332,0.998,0.003
35.9,-0.367,1.032,-0.182
35.91,-0.189,0.919,-0.046
35.92,-0.098,1.12,0.087
35.93,-0.15,0.697,0.11
35.94,-0.396,1.156,-0.085
35.95,-0.234,0.801,-0.158
35.96,-0.156,1.153,0.004
35.97,-0.082,0.888,0.18
35.98,-0.136,0.818,0.045
35.99,-0.448,1.115,-0.138
36.0,-0.264,0.835,-0.091
36.01,-0.105,1.267,0.062
36.02,-0.04,0.669,0.112
36.03,-0.31,1.06,-0.036
36.04,-0.366,0.862,-0.114
36.05,-0.109,1.085,-0.05
36.06,-0.142,1.001,0.13
36.07,-0.174,0.745,0.162
36.08,-0.362,1.183,-0.085
36.09,-0.235,0.796,-0.185
36.1,-0.236,1.208,0.031
36.11,-0.048,0.815,0.174
36.12,-0.212,0.953,0.047
36.13,-0.391,0.972,-0.137
36.14,-0.222,0.956,-0.078
36.15,-0.076,1.216,0.052
36.16,-0.081,0.632,0.129
36.17,-0.347,1.114,0.024
36.18,-0.273,0.837,-0.16
36.19,-0.266,1.105,-0.1
36.2,-0.118,0.877,0.135
36.21,-0.153,0.88,0.156
36.22,-0.342,1.068,-0.133
36.23,-0.285,0.734,-0.128
36.24,-0.207,1.218,0.043
36.25,-0.002,0.827,0.162
36.26,-0.21,1.038,0.062
36.27,-0.282,0.915,-0.19
36.28,-0.232,1.106,-0.069
36.29,-0.148,1.044,-0.003
36.3,-0.028,0.706,0.171
36.31,-0.313,1.116,0.007
36.32,-0.302,0.785,-0.172
36.33,-0.246,1.154,-0.048
36.34,-0.052,0.845,0.081
36.35,-0.111,0.998,0.178
36.36,-0.277,0.993,-0.119
36.37,-0.327,0.869,-0.113
36.38,-0.242,1.103,-0.005
36.39,-0.03,0.853,0.169
36.4,-0.188,1.096,0.059
36.41,-0.347,0.795,-0.151
36.42,-0.234,1.142,-0.1
36.43,-0.072,1.007,0.018
36.44,-0.064,0.836,0.148
36.45,-0.259,1.006,0.007
36.46,-0.312,0.885,-0.167
36.47,-0.193,1.09,-0.073
36.48,-0.113,0.767,0.138
36.49,-0.152,1.053,0.137
36.5,-0.355,0.853,-0.104
36.51,-0.329,1.109,-0.116
36.52,-0.182,0.907,0.041
36.53,-0.052,1.034,0.182
36.54,-0.197,0.915,0.028
36.55,-0.331,0.872,-0.182
36.56,-0.242,1.249,-0.025
36.57,-0.118,0.854,0.072
36.58,-0.155,1.003,0.145
36.59,-0.259,0.83,-0.016
36.6,-0.3,1.146,-0.171
36.61,-0.167,0.946,-0.067
36.62,-0.213,0.918,0.2
36.63,-0.087,0.99,0.117
36.64,-0.33,0.843,-0.089
36.65,-0.312,1.179,-0.124
36.66,-0.219,0.909,0.037
36.67,-0.01,1.036,0.129
36.68,-0.219,0.811,0.034
36.69,-0.356,1.029,-0.134
36.7,-0.199,1.186,-0.088
36.71,-0.174,0.859,0.101
36.72,-0.131,0.989,0.177
36.73,-0.277,0.795,-0.031
36.74,-0.353,1.227,-0.174
36.75,-0.182,0.864,-0.025
36.76,-0.179,1.056,0.135
36.77,-0.083,0.903,0.117
36.78,-0.361,0.898,-0.129
36.79,-0.337,1.089,-0.093
36.8,-0.146,0.904,0.049
36.81,-0.017,1.101,0.114
36.82,-0.156,0.739,0.023
36.83,-0.379,1.134,-0.193
36.84,-0.21,1.025,-0.059
36.85,-0.152,0.986,0.102
36.86,-0.095,0.904,0.146
36.87,-0.294,0.805,-0.043
36.88,-0.411,1.249,-0.072
36.89,-0.134,0.874,-0.073
36.9,-0.155,1.042,0.08
36.91,-0.077,0.742,0.174
36.92,-0.368,1.042,-0.109
36.93,-0.316,1.027,-0.135
36.94,-0.152,0.926,-0.003
36.95,-0.111,1.122,0.157
36.96,-0.181,0.699,0.028
36.97,-0.401,1.172,-0.145
36.98,-0.207,0.919,-0.071
36.99,-0.133,1.142,0.039
37.0,-0.065,0.803,0.182
37.01,-0.268,0.85,-0.032
37.02,-0.374,1.16,-0.149
37.03,-0.15,0.886,-0.058
37.04,-0.153,1.113,0.098
37.05,-0.123,0.671,0.13
37.06,-0.39,1.118,-0.101
37.07,-0.284,0.928,-0.168
37.08,-0.159,0.994,-0.017
37.09,-0.101,1.01,0.167
37.1,-0.198,0.771,0.07
37.11,-0.365,1.163,-0.164
37.12,-0.21,0.799,-0.104
37.13,-0.161,1.227,0.14
37.14,-0.059,0.794,0.105
37.15,-0.311,0.916,0.01
37.16,-0.335,1.004,-0.168
37.17,-0.067,0.981,-0.079
37.18,-0.131,1.082,0.062
37.19,-0.128,0.615,0.131
37.2,-0.389,1.253,-0.078
37.21,-0.217,0.865,-0.17
37.22,-0.241,1.096,0.009
37.23,-0.061,0.909,0.211
37.24,-0.116,0.819,0.016
37.25,-0.434,1.113,-0.128
37.26,-0.26,0.852,-0.072
37.27,-0.115,1.137,0.07
37.28,-0.031,0.618,0.098
37.29,-0.381,1.141,0.009
37.3,-0.259,0.852,-0.175
37.31,-0.233,1.131,-0.031
37.32,-0.088,0.89,0.141
37.33,-0.177,0.917,0.187
37.34,-0.308,1.079,-0.129
37.35,-0.273,0.78,-0.142
37.36,-0.275,1.196,0.021
37.37,0.007,0.792,0.16
37.38,-0.236,1.052,0.019
37.39,-0.379,0.856,-0.146
37.4,-0.168,1.1,-0.081
37.41,-0.087,1.031,0.022
37.42,-0.047,0.705,0.142
37.43,-0.364,1.14,-0.004
37.44,-0.296,0.803,-0.163
37.45,-0.189,1.152,-0.066
37.46,-0.148,0.851,0.168
37.47,-0.139,0.995,0.141
37.48,-0.295,0.979,-0.123
37.49,-0.246,0.905,-0.126
37.5,-0.245,1.153,0.043
37.51,0.01,0.764,0.192
37.52,-0.245,1.124,0.041
37.53,-0.362,0.766,-0.168
37.54,-0.269,1.15,-0.023
37.55,-0.076,0.987,0.022
37.56,-0.082,0.831,0.131
37.57,-0.303,1.023,-0.005
37.58,-0.324,0.873,-0.163
37.59,-0.22,1.161,-0.038
37.6,-0.113,0.782,0.114
37.61,-0.15,1.04,0.146
37.62,-0.298,0.896,-0.139
37.63,-0.262,0.999,-0.158
37.64,-0.198,1.063,0.039
37.65,-0.057,0.901,0.172
37.66,-0.18,1.043,0.045
37.67,-0.352,0.792,-0.15
37.68,-0.26,1.262,-0.044
37.69,-0.092,0.927,0.056
37.7,-0.081,0.925,0.114
37.71,-0.252,0.945,0.006
37.72,-0.299,0.97,-0.158
37.73,-0.182,1.056,-0.094
37.74,-0.079,0.779,0.095
37.75,-0.211,1.112,0.198
37.76,-0.258,0.806,-0.134
37.77,-0.365,1.115,-0.115
37.78,-0.168,0.922,0.013
37.79,-0.045,1.013,0.135
37.8,-0.177,0.925,0.049
37.81,-0.344,0.9,-0.157
37.82,-0.266,1.224,-0.033
37.83,-0.105,0.869,0.024
37.84,-0.039,0.978,0.134
37.85,-0.252,0.815,-0.035
37.86,-0.312,1.13,-0.117
37.87,-0.157,1.023,-0.072
37.88,-0.167,0.822,0.071
37.89,-0.112,1.012,0.181
37.9,-0.345,0.868,-0.113
37.91,-0.327,1.156,-0.146
37.92,-0.155,0.823,0.009
37.93,-0.139,1.077,0.208
37.94,-0.079,0.87,0.025
37.95,-0.372,1.006,-0.148
37.96,-0.275,1.078,-0.066
37.97,-0.096,0.946,0.091
37.98,-0.115,1.021,0.144
37.99,-0.222,0.742,-0.022
38.0,-0.38,1.246,-0.114
38.01,-0.142,0.965,-0.086
38.02,-0.139,0.955,0.053
38.03,-0.122,0.868,0.164
38.04,-0.343,0.909,-0.069
38.05,-0.364,1.147,-0.161
38.06,-0.187,0.934,-0.001
38.07,-0.079,1.156,0.148
38.08,-0.13,0.692,0.005
38.09,-0.402,1.173,-0.154
38.1,-0.231,0.907,-0.022
38.11,-0.113,1.198,0.015
38.12,-0.075,0.768,0.177
38.13,-0.283,0.892,0.026
38.14,-0.341,1.159,-0.11
38.15,-0.163,0.875,-0.072
38.16,-0.219,1.148,0.126
38.17,-0.089,0.663,0.131
38.18,-0.407,1.128,-0.073
38.19,-0.321,0.869,-0.18
38.2,-0.152,0.962,-0.042
38.21,-0.113,1.081,0.176
38.22,-0.098,0.761,0.073
38.23,-0.388,1.153,-0.142
38.24,-0.182,0.778,-0.103
38.25,-0.156,1.291,0.09
38.26,-0.053,0.73,0.125
38.27,-0.228,0.939,0.006
38.28,-0.414,1.03,-0.134
38.29,-0.152,0.988,-0.063
38.3,-0.125,1.155,0.06
38.31,-0.084,0.637,0.126
38.32,-0.409,1.154,-0.001
38.33,-0.232,0.794,-0.173
38.34,-0.259,1.072,-0.029
38.35,-0.157,0.918,0.167
38.36,-0.109,0.857,0.118
38.37,-0.317,1.091,-0.121
38.38,-0.236,0.74,-0.133
38.39,-0.204,1.276,0.066
38.4,-0.019,0.761,0.133
38.41,-0.232,1.042,0.025
38.42,-0.332,0.884,-0.133
38.43,-0.22,1.053,-0.05
38.44,-0.097,1.094,0.027
38.45,-0.08,0.66,0.127
38.46,-0.366,1.178,0.022
38.47,-0.244,0.799,-0.148
38.48,-0.255,1.136,-0.068
38.49,-0.135,0.809,0.141
38.5,-0.176,1.015,0.153
38.51,-0.328,0.978,-0.139
38.52,-0.25,0.851,-0.138
38.53,-0.203,1.149,0.015
38.54,-0.054,0.817,0.163
38.55,-0.235,1.095,0.05
38.56,-0.339,0.785,-0.174
38.57,-0.312,1.131,-0.051
38.58,-0.054,1.045,0.04
38.59,-0.052,0.841,0.123
38.6,-0.288,1.021,0.019
38.61,-0.368,0.843,-0.12
38.62,-0.147,1.216,-0.055
38.63,-0.118,0.781,0.098
38.64,-0.166,1.016,0.13
38.65,-0.31,0.937,-0.07
38.66,-0.285,1.028,-0.19
38.67,-0.185,0.99,-0.008
38.68,-0.053,0.833,0.152
38.69,-0.191,1.098,0.074
38.7,-0.351,0.798,-0.169
38.71,-0.296,1.163,-0.065
38.72,0.022,0.96,0.026
38.73,-0.081,0.964,0.136
38.74,-0.22,0.886,-0.022
38.75,-0.352,0.962,-0.114
38.76,-0.164,1.112,-0.092
38.77,-0.12,0.766,0.086
38.78,-0.183,1.101,0.185
38.79,-0.301,0.837,-0.078
38.8,-0.362,1.099,-0.127
38.81,-0.153,0.896,-0.043
38.82,-0.085,0.976,0.199
38.83,-0.14,0.96,0.061
38.84,-0.324,0.83,-0.177
38.85,-0.231,1.193,-0.08
38.86,-0.076,0.923,0.037
38.87,-0.128,0.955,0.177
38.88,-0.207,0.766,-0.033
38.89,-0.39,1.248,-0.14
38.9,-0.121,0.902,-0.087
38.91,-0.166,0.963,0.129
38.92,-0.121,0.864,0.156
38.93,-0.334,0.93,-0.11
38.94,-0.323,1.14,-0.138
38.95,-0.17,0.83,-0.037
38.96,-0.129,1.135,0.229
38.97,-0.131,0.775,0.04
38.98,-0.381,1.1,-0.164
38.99,-0.227,0.996,-0.085
39.0,-0.125,1.048,0.071
39.01,-0.094,0.9,0.138
39.02,-0.202,0.75,0.004
39.03,-0.44,1.247,-0.137
39.04,-0.139,0.896,-0.09
39.05,-0.184,1.103,0.087
39.06,-0.092,0.721,0.136
39.07,-0.37,1.022,-0.026
39.08,-0.285,1.063,-0.186
39.09,-0.21,0.854,-0.038
39.1,-0.111,1.102,0.177
39.11,-0.099,0.721,0.101
39.12,-0.38,1.132,-0.162
39.13,-0.234,0.811,-0.123
39.14,-0.143,1.201,0.091
39.15,-0.069,0.918,0.135
39.16,-0.159,0.768,0.009
39.17,-0.488,1.191,-0.088
39.18,-0.085,0.92,-0.077
39.19,-0.225,1.188,0.097
39.2,-0.064,0.591,0.134
39.21,-0.374,1.126,0.01
39.22,-0.209,0.965,-0.199
39.23,-0.225,0.936,-0.047
39.24,-0.15,1.044,0.129
39.25,-0.099,0.748,0.13
39.26,-0.39,1.15,-0.145
39.27,-0.211,0.69,-0.12
39.28,-0.202,1.268,0.071
39.29,-0.055,0.859,0.171
39.3,-0.136,0.879,0.006
39.31,-0.364,1.031,-0.127
39.32,-0.212,0.95,-0.049
39.33,-0.13,1.247,0.063
39.34,-0.024,0.614,0.118
39.35,-0.404,1.132,0.001
39.36,-0.31,0.852,-0.106
39.37,-0.213,1.091,-0.076
39.38,-0.107,0.902,0.08
39.39,-0.128,0.83,0.162
39.4,-0.347,1.13,-0.133
39.41,-0.25,0.723,-0.147
39.42,-0.24,1.23,0.041
39.43,0.013,0.823,0.141
39.44,-0.24,1.002,0.038
39.45,-0.343,0.882,-0.162
39.46,-0.208,1.057,-0.054
39.47,-0.126,1.135,0.006
39.48,-0.071,0.654,0.158
39.49,-0.348,1.139,0.019
39.5,-0.249,0.81,-0.173
39.51,-0.254,1.144,-0.047
39.52,-0.09,0.843,0.108
39.53,-0.175,0.956,0.19
39.54,-0.327,0.995,-0.088
39.55,-0.27,0.837,-0.178
39.56,-0.24,1.152,0.013
39.57,-0.057,0.823,0.155
39.58,-0.244,1.11,0.079
39.59,-0.29,0.792,-0.183
39.6,-0.219,1.097,-0.061
39.61,-0.122,1.059,0.047
39.62,-0.031,0.805,0.182
39.63,-0.289,1.056,0.04
39.64,-0.303,0.814,-0.156
39.65,-0.182,1.145,-0.081
39.66,-0.123,0.785,0.049
39.67,-0.2,1.081,0.186
39.68,-0.274,0.848,-0.121
39.69,-0.315,1.133,-0.128
39.7,-0.153,0.888,0.009
39.71,-0.126,0.948,0.197
39.72,-0.169,0.984,0.041
39.73,-0.345,0.848,-0.137
39.74,-0.26,1.167,-0.061
39.75,-0.129,0.894,0.06
39.76,-0.056,1.023,0.134
39.77,-0.238,0.829,-0.012
39.78,-0.319,1.046,-0.164
39.79,-0.169,1.107,-0.035
39.8,-0.099,0.845,0.087
39.81,-0.19,0.925,0.161
39.82,-0.338,0.903,-0.05
39.83,-0.352,1.24,-0.152
39.84,-0.112,0.807,-0.032
39.85,-0.117,1.046,0.191
39.86,-0.133,0.858,0.014
39.87,-0.388,0.979,-0.137
39.88,-0.265,1.154,-0.041
39.89,-0.01,0.912,0.028
39.9,-0.138,1.005,0.159
39.91,-0.211,0.777,0.003
39.92,-0.416,1.241,-0.17
39.93,-0.125,0.935,-0.11
39.94,-0.145,0.994,0.099
39.95,-0.075,0.892,0.17
39.96,-0.38,0.888,-0.129
39.97,-0.33,1.163,-0.119
39.98,-0.158,0.861,-0.021
39.99,-0.101,1.122,0.147
40.0,-0.154,0.744,0.026
40.01,-0.302,1.075,-0.175
40.02,-0.297,1.066,-0.081
40.03,-0.053,0.99,-0.022
40.04,-0.071,0.932,0.164
40.05,-0.205,0.773,0.009
40.06,-0.411,1.256,-0.139
40.07,-0.118,0.883,-0.069
40.08,-0.234,1.139,0.16
40.09,-0.131,0.741,0.136
40.1,-0.352,0.983,-0.075
40.11,-0.274,1.093,-0.159
40.12,-0.135,0.834,-0.009
40.13,-0.123,1.089,0.166
40.14,-0.085,0.707,0.069
40.15,-0.411,1.168,-0.16
40.16,-0.182,0.847,-0.117
40.17,-0.168,1.154,0.056
40.18,-0.056,0.895,0.121
40.19,-0.243,0.802,-0.016
40.2,-0.396,1.176,-0.149
40.21,-0.12,0.92,-0.047
40.22,-0.149,1.198,0.1
40.23,-0.101,0.651,0.133
40.24,-0.382,1.097,-0.046
40.25,-0.295,0.952,-0.175
40.26,-0.157,0.918,-0.052
40.27,-0.137,1.027,0.209
40.28,-0.129,0.75,0.063
40.29,-0.409,1.166,-0.146
40.3,-0.168,0.79,-0.093
40.31,-0.124,1.257,0.09
40.32,-0.089,0.828,0.188
40.33,-0.231,0.874,-0.008
40.34,-0.424,1.046,-0.148
40.35,-0.156,0.95,-0.046
40.36,-0.125,1.174,0.068
40.37,-0.125,0.591,0.143
40.38,-0.381,1.165,-0.067
40.39,-0.18,0.896,-0.178
40.4,-0.192,1.055,-0.004
40.41,-0.115,0.874,0.174
40.42,-0.081,0.863,0.084
40.43,-0.445,1.117,-0.171
40.44,-0.217,0.741,-0.119
40.45,-0.073,1.239,0.062
40.46,-0.042,0.635,0.145
40.47,-0.344,1.099,-0.025
40.48,-0.276,0.799,-0.14
40.49,-0.179,1.118,-0.046
40.5,-0.131,0.918,0.146
40.51,-0.152,0.854,0.145
40.52,-0.334,1.102,-0.132
40.53,-0.244,0.76,-0.13
40.54,-0.271,1.236,0.068
40.55,-0.008,0.79,0.181
40.56,-0.218,1.049,0.029
40.57,-0.348,0.866,-0.148
40.58,-0.201,1.068,-0.045
40.59,-0.139,1.065,0.059
40.6,-0.064,0.663,0.16
40.61,-0.398,1.153,0.028
40.62,-0.235,0.808,-0.214
40.63,-0.249,1.146,-0.053
40.64,-0.121,0.821,0.142
40.65,-0.122,1.001,0.16
40.66,-0.271,0.966,-0.168
40.67,-0.229,0.853,-0.114
40.68,-0.263,1.191,0.059
40.69,-0.017,0.779,0.179
40.7,-0.209,1.097,0.021
40.71,-0.364,0.797,-0.145
40.72,-0.201,1.202,-0.046
40.73,-0.117,0.988,0.014
40.74,-0.021,0.767,0.153
40.75,-0.299,1.06,-0.011
40.76,-0.277,0.91,-0.178
40.77,-0.226,1.138,-0.042
40.78,-0.088,0.756,0.137
40.79,-0.142,1.081,0.113
40.8,-0.274,0.875,-0.174
40.81,-0.26,0.982,-0.108
40.82,-0.163,1.09,0.035
40.83,-0.033,0.85,0.12
40.84,-0.242,1.043,0.061
40.85,-0.331,0.796,-0.142
40.86,-0.204,1.25,-0.054
40.87,-0.099,0.826,0.036
40.88,-0.085,0.963,0.156
40.89,-0.274,0.943,-0.03
40.9,-0.312,1.014,-0.147
40.91,-0.157,1.086,-0.063
40.92,-0.095,0.758,0.119
40.93,-0.167,1.101,0.148
40.94,-0.291,0.792,-0.14
40.95,-0.315,1.11,-0.122
40.96,-0.16,0.929,0.048
40.97,-0.072,0.953,0.161
40.98,-0.169,0.957,0.032
40.99,-0.397,0.88,-0.153
41.0,-0.225,1.198,-0.046
41.01,-0.041,0.848,0.016
41.02,-0.13,0.984,0.142
41.03,-0.268,0.849,0.003
41.04,-0.312,1.117,-0.172
41.05,-0.193,0.975,-0.041
41.06,-0.127,0.833,0.139
41.07,-0.16,1.026,0.129
41.08,-0.315,0.833,-0.165
41.09,-0.292,1.158,-0.124
41.1,-0.178,0.874,0.096
41.11,-0.081,1.071,0.156
41.12,-0.198,0.835,0.001
41.13,-0.354,0.965,-0.148
41.14,-0.157,1.169,-0.056
41.15,-0.136,0.868,0.087
41.16,-0.152,0.973,0.134
41.17,-0.283,0.842,-0.041
41.18,-0.367,1.193,-0.173
41.19,-0.156,0.851,-0.05
41.2,-0.18,1.011,0.169
41.21,-0.084,0.899,0.069
41.22,-0.349,0.911,-0.141
41.23,-0.246,1.147,-0.105
41.24,-0.048,0.964,0.036
41.25,-0.119,0.988,0.154
41.26,-0.17,0.738,-0.022
41.27,-0.396,1.285,-0.122
41.28,-0.16,0.9,-0.078
41.29,-0.161,1.004,0.089
41.3,-0.122,0.798,0.186
41.31,-0.315,0.965,-0.113
41.32,-0.297,1.087,-0.158
41.33,-0.146,0.851,-0.027
41.34,-0.048,1.147,0.172
41.35,-0.115,0.747,0.052
41.36,-0.408,1.147,-0.123
41.37,-0.248,0.975,-0.087
41.38,-0.07,1.09,0.055
41.39,-0.131,0.844,0.141
41.4,-0.286,0.814,-0.049
41.41,-0.335,1.235,-0.131
41.42,-0.125,0.852,-0.046
41.43,-0.193,1.099,0.152
41.44,-0.085,0.75,0.178
41.45,-0.343,1.053,-0.123
41.46,-0.296,0.953,-0.133
41.47,-0.228,0.965,0.015
41.48,-0.023,1.092,0.116
41.49,-0.209,0.668,0.035
41.5,-0.436,1.205,-0.142
41.51,-0.166,0.993,-0.07
41.52,-0.145,1.155,0.041
41.53,-0.034,0.682,0.138
41.54,-0.306,0.959,-0.008
41.55,-0.317,1.186,-0.134
41.56,-0.19,0.859,-0.085
41.57,-0.152,1.066,0.103
41.58,-0.174,0.689,0.153
41.59,-0.376,1.145,-0.109
41.6,-0.295,0.838,-0.168
41.61,-0.233,1.082,0.063
41.62,-0.028,1.022,0.158
41.63,-0.166,0.76,0.022
41.64,-0.369,1.13,-0.175
41.65,-0.165,0.908,-0.051
41.66,-0.15,1.247,0.053
41.67,-0.041,0.613,0.113
41.68,-0.32,1.038,-0.02
41.69,-0.32,0.979,-0.127
41.7,-0.144,0.973,-0.032
41.71,-0.161,1.052,0.111
41.72,-0.125,0.688,0.169
41.73,-0.378,1.186,-0.14
41.74,-0.228,0.773,-0.132
41.75,-0.205,1.216,0.03
41.76,-0.023,0.873,0.167
41.77,-0.195,0.885,0.037
41.78,-0.397,1.042,-0.136
41.79,0.025,0.751,0.13
41.8,-0.212,1.015,0.024
41.81,-0.388,0.945,-0.158
41.82,-0.16,1.024,-0.053
41.83,-0.145,1.126,0.059
41.84,-0.055,0.671,0.137
41.85,-0.394,1.18,0.001
41.86,-0.248,0.796,-0.17
41.87,-0.225,1.094,-0.064
41.88,-0.167,0.883,0.187
41.89,-0.073,0.93,0.107
41.9,-0.361,0.995,-0.143
41.91,-0.225,0.825,-0.112
41.92,-0.15,1.264,0.039
41.93,-0.043,0.71,0.154
41.94,-0.252,1.083,-0.012
41.95,-0.376,0.833,-0.099
41.96,-0.194,1.171,-0.079
41.97,-0.151,0.817,0.108
41.98,-0.153,0.955,0.153
41.99,-0.288,1.007,-0.085
42.0,-0.296,0.894,-0.159
42.01,-0.232,1.093,-0.015
42.02,-0.05,0.839,0.191
42.03,-0.157,1.114,0.064
42.04,-0.345,0.764,-0.172
42.05,-0.302,1.066,-0.074
42.06,-0.104,1.099,0.055
42.07,-0.029,0.859,0.117
42.08,-0.267,0.965,0.011
42.09,-0.291,0.894,-0.136
42.1,-0.217,1.292,-0.027
42.11,-0.105,0.723,0.058
42.12,-0.176,0.957,0.155
42.13,-0.261,0.92,-0.044
42.14,-0.318,1.104,-0.174
42.15,-0.218,0.948,-0.038
42.16,-0.092,0.824,0.18
42.17,-0.197,1.1,0.097
42.18,-0.325,0.787,-0.19
42.19,-0.274,1.125,-0.086
42.2,-0.154,0.943,0.121
42.21,-0.043,1.032,0.142
42.22,-0.213,0.877,-0.017
42.23,-0.356,0.936,-0.152
42.24,-0.118,1.219,-0.091
42.25,-0.162,0.812,0.086
42.26,-0.197,1.016,0.175
42.27,-0.231,0.876,-0.077
42.28,-0.336,1.194,-0.18
42.29,-0.223,0.886,-0.02
42.3,-0.093,0.948,0.175
42.31,-0.082,0.961,0.069
42.32,-0.318,0.886,-0.169
42.33,-0.369,1.177,-0.068
42.34,-0.011,0.899,0.016
42.35,-0.117,1.034,0.135
42.36,-0.242,0.767,-0.004
42.37,-0.343,1.112,-0.111
42.38,-0.095,1.059,-0.074
42.39,-0.148,0.874,0.103
42.4,-0.18,0.961,0.163
42.41,-0.251,0.864,-0.097
42.42,-0.337,1.235,-0.124
42.43,-0.218,0.828,-0.022
42.44,-0.094,1.035,0.172
42.45,-0.129,0.849,0.08
42.46,-0.373,0.99,-0.148
42.47,-0.278,1.104,-0.047
42.48,-0.081,0.939,0.008
42.49,-0.11,0.98,0.151
42.5,-0.225,0.733,-0.034
42.51,-0.349,1.27,-0.18
42.52,-0.154,0.937,-0.104
42.53,-0.189,0.984,0.1
42.54,-0.126,0.867,0.178
42.55,-0.264,0.895,-0.11
42.56,-0.379,1.161,-0.126
42.57,-0.152,0.798,-0.012
42.58,-0.155,1.158,0.229
42.59,-0.051,0.738,0.031
42.6,-0.424,1.085,-0.131
42.61,-0.245,0.958,-0.074
42.62,-0.122,1.076,0.08
42.63,-0.073,0.92,0.122
42.64,-0.226,0.729,-0.008
42.65,-0.445,1.276,-0.119
42.66,-0.085,0.94,-0.103
42.67,-0.177,1.085,0.077
42.68,-0.077,0.7,0.155
42.69,-0.388,1.043,-0.026
42.7,-0.275,1.061,-0.162
42.71,-0.134,0.867,-0.015
42.72,-0.053,1.02,0.132
42.73,-0.12,0.759,0.043
42.74,-0.455,1.165,-0.115
42.75,-0.243,0.814,-0.081
42.76,-0.113,1.284,0.049
42.77,-0.031,0.713,0.119
42.78,-0.356,0.953,-0.008
42.79,-0.37,0.986,-0.14
42.8,-0.085,0.979,-0.04
42.81,-0.117,1.136,0.084
42.82,-0.163,0.641,0.162
42.83,-0.365,1.185,-0.096
42.84,-0.246,0.809,-0.157
42.85,-0.238,1.113,-0.01
42.86,-0.115,0.916,0.189
42.87,-0.126,0.866,0.044
42.88,-0.409,1.068,-0.137
42.89,-0.242,0.822,-0.075
42.9,-0.089,1.279,0.033
42.91,-0.032,0.692,0.165
42.92,-0.337,1.059,-0.0
42.93,-0.368,0.898,-0.082
42.94,-0.224,1.052,-0.082
42.95,-0.143,0.979,0.084
42.96,-0.173,0.755,0.183
42.97,-0.379,1.15,-0.09
42.98,-0.278,0.783,-0.131
42.99,-0.204,1.181,0.003
43.0,-0.084,0.869,0.186
43.01,-0.138,0.977,0.059
43.02,-0.337,0.937,-0.137
43.03,-0.211,0.92,-0.096
43.04,-0.132,1.217,0.048
43.05,-0.017,0.697,0.148
43.06,-0.294,1.076,0.011
43.07,-0.342,0.828,-0.142
43.08,-0.191,1.211,-0.061
43.09,-0.123,0.856,0.074
43.1,-0.146,0.823,0.164
43.11,-0.33,1.123,-0.053
43.12,-0.254,0.86,-0.186
43.13,-0.219,1.132,-0.014
43.14,-0.067,0.77,0.182
43.15,-0.236,1.097,0.103
43.16,-0.278,0.834,-0.184
43.17,-0.273,0.977,-0.096
43.18,-0.139,1.116,0.061
43.19,0.019,0.833,0.127
43.2,-0.315,1.046,-0.012
43.21,-0.38,0.771,-0.125
43.22,-0.173,1.26,-0.044
43.23,-0.092,0.842,0.095
43.24,-0.134,0.939,0.123
43.25,-0.313,0.979,-0.059
43.26,-0.277,0.962,-0.166
43.27,-0.186,1.065,-0.005
43.28,-0.095,0.812,0.209
43.29,-0.132,1.12,0.081
43.3,-0.333,0.802,-0.173
43.31,-0.344,1.161,-0.03
43.32,-0.037,0.982,0.019
43.33,-0.051,0.875,0.148
43.34,-0.286,0.965,0.006
43.35,-0.317,0.917,-0.124
43.36,-0.195,1.162,-0.082
43.37,-0.13,0.805,0.122
43.38,-0.177,1.054,0.158
43.39,-0.277,0.889,-0.073
43.4,-0.292,1.046,-0.183
43.41,-0.239,0.971,-0.026
43.42,-0.035,0.89,0.174
43.43,-0.128,1.033,0.075
43.44,-0.312,0.828,-0.14
43.45,-0.342,1.228,-0.047
43.46,-0.074,0.9,0.051
43.47,-0.06,0.956,0.148
43.48,-0.214,0.857,-0.041
43.49,-0.356,1.053,-0.131
43.5,-0.194,1.128,-0.078
43.51,-0.121,0.761,0.078
43.52,-0.133,0.956,0.172
43.53,-0.311,0.886,-0.113
43.54,-0.308,1.147,-0.131
43.55,-0.172,0.859,-0.005
43.56,-0.063,1.116,0.176
43.57,-0.159,0.818,0.043
43.58,-0.369,1.038,-0.156
43.59,-0.273,1.032,-0.062
43.6,-0.134,0.97,0.13
43.61,-0.022,0.957,0.122
43.62,-0.298,0.766,-0.013
43.63,-0.435,1.241,-0.138
43.64,-0.073,0.913,-0.08
43.65,-0.209,1.006,0.088
43.66,-0.172,0.793,0.142
43.67,-0.288,1.012,-0.075
43.68,-0.321,1.134,-0.117
43.69,-0.153,0.849,-0.008
43.7,-0.166,1.137,0.201
43.71,-0.106,0.71,0.039
43.72,-0.39,1.117,-0.147
43.73,-0.252,0.932,-0.051
43.74,-0.081,1.118,0.026
43.75,-0.088,0.868,0.131
43.76,-0.259,0.822,-0.018
43.77,-0.414,1.276,-0.108
43.78,-0.08,0.837,-0.081
43.79,-0.158,1.073,0.085
43.8,-0.137,0.725,0.19
43.81,-0.322,1.066,-0.121
43.82,-0.335,0.939,-0.152
43.83,-0.209,0.921,0.016
43.84,-0.074,1.159,0.168
43.85,-0.148,0.686,0.018
43.86,-0.413,1.165,-0.137
43.87,-0.205,0.881,-0.072
43.88,-0.091,1.198,0.041
43.89,-0.062,0.743,0.165
43.9,-0.254,0.899,-0.002
43.91,-0.375,1.15,-0.123
43.92,-0.109,0.902,-0.088
43.93,-0.145,1.101,0.115
43.94,-0.119,0.637,0.166
43.95,-0.401,1.135,-0.093
43.96,-0.236,0.87,-0.169
43.97,-0.174,1.058,0.005
43.98,-0.129,0.956,0.165
43.99,-0.152,0.789,0.072
44.0,-0.364,1.124,-0.165
44.01,-0.205,0.812,-0.064
44.02,-0.167,1.31,0.071
44.03,-0.034,0.717,0.14
44.04,-0.25,0.994,-0.007
44.05,-0.36,0.969,-0.15
44.06,-0.132,1.016,-0.048
44.07,-0.12,1.085,0.032
44.08,-0.094,0.654,0.145
44.09,-0.396,1.191,-0.058
44.1,-0.209,0.809,-0.178
44.11,-0.227,1.124,-0.01
44.12,-0.079,0.873,0.168
44.13,-0.147,0.924,0.077
44.14,-0.345,1.032,-0.16
44.15,-0.254,0.8,-0.069
44.16,-0.099,1.301,0.059
44.17,-0.043,0.706,0.137
44.18,-0.315,1.079,0.007
44.19,-0.324,0.845,-0.146
44.2,-0.191,1.137,-0.066
44.21,-0.1,0.935,0.031
44.22,-0.12,0.781,0.149
44.23,-0.376,1.124,-0.066
44.24,-0.218,0.781,-0.179
44.25,-0.246,1.203,0.022
44.26,-0.074,0.819,0.161
44.27,-0.182,1.039,0.092
44.28,-0.348,0.905,-0.148
44.29,-0.251,0.951,-0.097
44.3,-0.086,1.202,0.019
44.31,-0.079,0.778,0.149
44.32,-0.282,1.057,0.006
44.33,-0.297,0.859,-0.121
44.34,-0.232,1.206,-0.079
44.35,-0.125,0.752,0.089
44.36,-0.174,1.041,0.166
44.37,-0.288,0.903,-0.124
44.38,-0.316,0.943,-0.12
44.39,-0.242,1.041,-0.0
44.4,-0.024,0.878,0.163
44.41,-0.194,1.094,0.058
44.42,-0.315,0.765,-0.147
44.43,-0.33,1.215,-0.044
44.44,-0.03,0.933,0.011
44.45,-0.084,0.933,0.136
44.46,-0.256,0.926,-0.009
44.47,-0.331,0.983,-0.127
44.48,-0.173,1.175,-0.094
44.49,-0.115,0.752,0.08
44.5,-0.142,1.041,0.195
44.51,-0.282,0.924,-0.064
44.52,-0.353,1.093,-0.17
44.53,-0.198,0.872,-0.009
44.54,-0.089,1.029,0.196
44.55,-0.18,1.025,0.054
44.56,-0.356,0.823,-0.133
44.57,-0.322,1.171,-0.054
44.58,-0.06,0.936,0.065
44.59,-0.085,1.004,0.13
44.6,-0.157,0.807,-0.001
44.61,-0.432,1.062,-0.137
44.62,-0.101,1.057,-0.083
44.63,-0.131,0.874,0.064
44.64,-0.148,0.978,0.159
44.65,-0.323,0.869,-0.069
44.66,-0.332,1.197,-0.165
44.67,-0.181,0.815,-0.014
44.68,-0.074,1.058,0.132
44.69,-0.153,0.888,0.09
44.7,-0.322,0.937,-0.16
44.71,-0.294,1.079,-0.107
44.72,-0.155,0.926,0.059
44.73,-0.03,1.109,0.13
44.74,-0.236,0.724,-0.02
44.75,-0.405,1.164,-0.134
44.76,-0.11,1.011,-0.053
44.77,-0.183,1.002,0.062
44.78,-0.167,0.811,0.159
44.79,-0.311,0.927,-0.029
44.8,-0.283,1.249,-0.175
44.81,-0.193,0.787,-0.034
44.82,-0.145,1.106,0.144
44.83,-0.102,0.784,0.111
44.84,-0.352,1.053,-0.151
44.85,-0.244,0.972,-0.131
44.86,-0.104,1.032,0.064
44.87,-0.064,0.988,0.145
44.88,-0.186,0.71,-0.024
44.89,-0.483,1.241,-0.118
44.9,-0.053,0.899,-0.081
44.91,-0.179,1.115,0.071
44.92,-0.112,0.731,0.137
44.93,-0.324,0.997,-0.058
44.94,-0.297,1.056,-0.139
44.95,-0.183,0.869,-0.055
44.96,-0.151,1.115,0.149
44.97,-0.075,0.698,0.114
44.98,-0.368,1.144,-0.149
44.99,-0.243,0.854,-0.135
45.0,-0.193,1.142,0.055
45.01,0.007,0.904,0.141
45.02,-0.26,0.787,0.004
45.03,-0.438,1.182,-0.116
45.04,-0.135,0.88,-0.052
45.05,-0.127,1.156,0.066
45.06,-0.053,0.624,0.168
45.07,-0.373,1.102,-0.029
45.08,-0.306,0.978,-0.167
45.09,-0.218,0.943,-0.056
45.1,-0.087,1.03,0.082
45.11,-0.127,0.846,0.118
45.12,-0.335,1.079,-0.143
45.13,-0.309,0.767,-0.101
45.14,-0.157,1.285,0.076
45.15,0.008,0.723,0.144
45.16,-0.293,1.039,0.024
45.17,-0.349,0.897,-0.136
45.18,-0.138,1.084,-0.077
45.19,-0.12,1.035,0.06
45.2,-0.079,0.695,0.134
45.21,-0.388,1.168,0.003
45.22,-0.253,0.781,-0.168
45.23,-0.256,1.14,-0.023
45.24,-0.128,0.842,0.116
45.25,-0.136,0.981,0.135
45.26,-0.266,0.976,-0.177
45.27,-0.277,0.844,-0.085
45.28,-0.223,1.167,0.049
45.29,0.012,0.792,0.16
45.3,-0.259,1.104,0.052
45.31,-0.371,0.79,-0.13
45.32,-0.233,1.138,-0.052
45.33,-0.115,1.003,0.07
45.34,-0.101,0.827,0.158
45.35,-0.308,1.048,-0.035
45.36,-0.295,0.847,-0.164
45.37,-0.261,1.183,-0.042
45.38,-0.075,0.766,0.127
45.39,-0.17,1.053,0.167
45.4,-0.254,0.907,-0.131
45.41,-0.296,0.976,-0.16
45.42,-0.208,1.016,-0.006
45.43,-0.059,0.881,0.213
45.44,-0.2,1.11,0.058
45.45,-0.353,0.805,-0.146
45.46,-0.278,1.205,-0.058
45.47,-0.127,0.897,0.072
45.48,-0.095,0.906,0.168
45.49,-0.229,0.936,-0.02
45.5,-0.316,0.953,-0.142
45.51,-0.175,1.181,-0.057
45.52,-0.116,0.752,0.057
45.53,-0.203,1.019,0.168
45.54,-0.301,0.862,-0.078
45.55,-0.344,1.132,-0.153
45.56,-0.17,0.873,0.014
45.57,-0.092,0.964,0.177
45.58,-0.126,0.99,0.06
45.59,-0.331,0.861,-0.154
45.6,-0.281,1.18,-0.112
45.61,-0.126,0.877,0.073
45.62,-0.104,1.033,0.146
45.63,-0.228,0.808,0.009
45.64,-0.385,1.052,-0.158
45.65,-0.087,1.054,-0.08
45.66,-0.152,0.902,0.144
45.67,-0.158,0.964,0.146
45.68,-0.262,0.863,-0.075
45.69,-0.322,1.215,-0.103
45.7,-0.196,0.839,-0.038
45.71,-0.064,1.059,0.159
45.72,-0.144,0.89,0.059
45.73,-0.299,0.946,-0.165
45.74,-0.311,1.172,-0.034
45.75,-0.019,0.913,0.026
45.76,-0.099,1.003,0.152
45.77,-0.258,0.762,0.004
45.78,-0.391,1.226,-0.145
45.79,-0.154,0.973,-0.088
45.8,-0.129,0.971,0.089
45.81,-0.154,0.877,0.141
45.82,-0.354,0.896,-0.037
45.83,-0.351,1.187,-0.158
45.84,-0.119,0.793,-0.027
45.85,-0.152,1.115,0.204
45.86,-0.07,0.777,0.084
45.87,-0.361,1.061,-0.174
45.88,-0.21,0.945,-0.121
45.89,-0.153,1.036,0.08
45.9,-0.073,0.839,0.137
45.91,-0.256,0.819,-0.012
45.92,-0.452,1.201,-0.096
45.93,-0.121,0.881,-0.086
45.94,-0.17,1.124,0.082
45.95,-0.095,0.662,0.164
45.96,-0.348,1.119,-0.102
45.97,-0.328,0.902,-0.158
45.98,-0.168,0.986,-0.037
45.99,-0.122,1.035,0.161
46.0,-0.099,0.739,0.061
46.01,-0.381,1.133,-0.16
46.02,-0.231,0.809,-0.076
46.03,-0.073,1.262,0.054
46.04,-0.038,0.706,0.147
46.05,-0.245,0.939,-0.018
46.06,-0.332,1.084,-0.116
46.07,-0.139,0.969,-0.106
46.08,-0.105,1.102,0.032
46.09,-0.105,0.688,0.196
46.1,-0.417,1.165,-0.055
46.11,-0.244,0.778,-0.166
46.12,-0.264,1.119,0.012
46.13,-0.05,0.928,0.14
46.14,-0.166,0.842,0.111
46.15,-0.336,1.105,-0.154
46.16,-0.22,0.764,-0.115
46.17,-0.188,1.294,0.067
46.18,-0.017,0.744,0.14
46.19,-0.247,1.023,0.033
46.2,-0.334,0.9,-0.124
46.21,-0.199,1.075,-0.071
46.22,-0.117,1.057,0.015
46.23,-0.043,0.641,0.126
46.24,-0.345,1.153,-0.027
46.25,-0.269,0.835,-0.153
46.26,-0.239,1.138,-0.059
46.27,-0.062,0.813,0.096
46.28,-0.143,0.986,0.168
46.29,-0.312,1.002,-0.116
46.3,-0.278,0.786,-0.127
46.31,-0.262,1.139,0.048
46.32,-0.023,0.837,0.191
46.33,-0.18,1.108,0.037
46.34,-0.356,0.803,-0.151
46.35,-0.286,1.137,-0.059
46.36,-0.064,1.021,0.017
46.37,-0.077,0.808,0.128
46.38,-0.335,1.023,0.022
46.39,-0.275,0.872,-0.138
46.4,-0.182,1.205,-0.073
46.41,-0.124,0.737,0.057
46.42,-0.147,1.034,0.155
46.43,-0.253,0.942,-0.084
46.44,-0.328,0.985,-0.158
46.45,-0.211,1.0,-0.043
46.46,-0.083,0.882,0.179
46.47,-0.156,1.078,0.065
46.48,-0.327,0.8,-0.143
46.49,-0.274,1.154,-0.093
46.5,-0.108,0.954,0.074
46.51,-0.055,0.922,0.136
46.52,-0.19,0.919,0.005
46.53,-0.353,0.986,-0.108
46.54,-0.184,1.173,-0.079
46.55,-0.103,0.782,0.049
46.56,-0.196,1.042,0.2
46.57,-0.251,0.857,-0.058
46.58,-0.326,1.13,-0.167
46.59,-0.197,0.885,-0.061
46.6,-0.121,0.958,0.157
46.61,-0.102,0.978,0.106
46.62,-0.278,0.864,-0.127
46.63,-0.34,1.145,-0.078
46.64,-0.178,0.864,0.067
46.65,-0.063,1.058,0.135
46.66,-0.194,0.802,0.034
46.67,-0.363,1.071,-0.147
46.68,-0.208,1.114,-0.062
46.69,-0.08,0.918,0.061
46.7,-0.136,0.844,0.176
46.71,-0.296,0.905,-0.061
46.72,-0.341,1.201,-0.121
46.73,-0.129,0.797,-0.093
46.74,-0.2,1.107,0.169
46.75,-0.098,0.745,0.117
46.76,-0.324,1.092,-0.11
46.77,-0.333,0.91,-0.121
46.78,-0.166,0.991,0.005
46.79,-0.044,1.081,0.145
46.8,-0.115,0.722,-0.012
46.81,-0.419,1.159,-0.145
46.82,-0.19,0.849,-0.055
46.83,-0.063,1.202,0.029
46.84,-0.073,0.718,0.155
46.85,-0.344,0.927,-0.002
46.86,-0.349,1.054,-0.114
46.87,-0.134,0.952,-0.074
46.88,-0.16,1.103,0.043
46.89,-0.124,0.654,0.176
46.9,-0.337,1.197,-0.058
46.91,-0.271,0.801,-0.133
46.92,-0.267,1.072,-0.039
46.93,-0.033,0.994,0.174
46.94,-0.164,0.818,0.099
46.95,-0.315,1.088,-0.111
46.96,-0.276,0.812,-0.075
46.97,-0.199,1.301,0.083
46.98,0.078,0.718,0.137
46.99,-0.282,1.027,0.027
47.0,-0.314,0.945,-0.132
47.01,-0.233,1.054,-0.064
47.02,-0.077,1.054,0.055
47.03,-0.076,0.687,0.153
47.04,-0.405,1.13,-0.027
47.05,-0.304,0.79,-0.136
47.06,-0.223,1.17,-0.054
47.07,-0.076,0.839,0.116
47.08,-0.186,0.959,0.125
47.09,-0.299,1.026,-0.069
47.1,-0.292,0.832,-0.132
47.11,-0.234,1.107,-0.017
47.12,-0.01,0.786,0.211
47.13,-0.166,1.131,0.047
47.14,-0.336,0.787,-0.173
47.15,-0.307,1.038,-0.101
47.16,0.004,1.094,0.045
47.17,-0.073,0.862,0.127
47.18,-0.258,1.014,0.009
47.19,-0.359,0.854,-0.067
47.2,-0.24,1.261,-0.053
47.21,-0.105,0.809,0.06
47.22,-0.137,1.024,0.153
47.23,-0.243,0.922,-0.049
47.24,-0.321,0.965,-0.134
47.25,-0.196,1.019,-0.057
47.26,-0.16,0.874,0.193
47.27,-0.067,1.097,0.081
47.28,-0.316,0.792,-0.127
47.29,-0.303,1.121,-0.129
47.3,-0.184,0.943,0.035
47.31,-0.018,0.988,0.121
47.32,-0.151,0.912,-0.003
47.33,-0.371,0.93,-0.095
47.34,-0.239,1.217,-0.089
47.35,-0.086,0.809,0.005
47.36,-0.096,0.972,0.148
47.37,-0.235,0.789,-0.023
47.38,-0.335,1.153,-0.147
47.39,-0.201,0.96,-0.093
47.4,-0.076,0.882,0.058
47.41,-0.174,0.976,0.147
47.42,-0.319,0.846,-0.044
47.43,-0.34,1.209,-0.118
47.44,-0.108,0.828,-0.065
47.45,-0.142,1.085,0.175
47.46,-0.119,0.811,0.093
47.47,-0.358,1.042,-0.116
47.48,-0.301,1.017,-0.11
47.49,-0.12,1.092,0.004
47.5,-0.068,0.976,0.141
47.51,-0.237,0.762,-0.021
47.52,-0.396,1.154,-0.133
47.53,-0.137,0.906,-0.033
47.54,-0.102,1.233,0.056
47.55,-0.096,0.623,0.145
47.56,-0.316,1.017,-0.037
47.57,-0.339,1.047,-0.112
47.58,-0.135,0.915,-0.066
47.59,-0.173,1.032,0.099
47.6,-0.128,0.703,0.133
47.61,-0.39,1.212,-0.099
47.62,-0.256,0.757,-0.146
47.63,-0.216,1.122,0.055
47.64,-0.073,0.911,0.164
47.65,-0.156,0.866,0.026
47.66,-0.347,1.045,-0.142
47.67,-0.189,0.817,-0.089
47.68,-0.063,1.297,0.039
47.69,-0.058,0.681,0.163
47.7,-0.353,1.082,0.028
47.71,-0.354,0.876,-0.116
47.72,-0.182,1.079,-0.069
47.73,-0.139,0.987,0.155
47.74,-0.095,0.743,0.124
47.75,-0.371,1.159,-0.022
47.76,-0.347,0.774,-0.141
47.77,-0.164,1.135,-0.032
47.78,-0.151,0.847,0.202
47.79,-0.159,1.013,0.083
47.8,-0.315,0.929,-0.158
47.81,-0.286,0.884,-0.071
47.82,-0.156,1.218,0.059
47.83,0.003,0.743,0.129
47.84,-0.253,1.086,0.032
47.85,-0.299,0.794,-0.144
47.86,-0.255,1.202,-0.033
47.87,-0.049,0.956,0.056
47.88,-0.078,0.81,0.128
47.89,-0.351,1.036,0.014
47.9,-0.286,0.889,-0.113
47.91,-0.175,1.194,-0.065
47.92,-0.133,0.734,0.109
47.93,-0.156,1.052,0.123
47.94,-0.324,0.928,-0.07
47.95,-0.333,1.002,-0.188
47.96,-0.146,0.95,-0.008
47.97,-0.101,0.886,0.194
47.98,-0.191,1.054,0.05
47.99,-0.318,0.792,-0.126
48.0,-0.297,1.189,-0.067
48.01,-0.069,0.916,0.063
48.02,-0.101,0.999,0.171
48.03,-0.249,0.89,-0.014
48.04,-0.386,0.967,-0.133
48.05,-0.096,1.127,-0.072
48.06,-0.126,0.797,0.109
48.07,-0.141,1.006,0.145
48.08,-0.31,0.852,-0.07
48.09,-0.318,1.137,-0.16
48.1,-0.135,0.877,-0.047
48.11,-0.161,1.031,0.206
48.12,-0.146,0.939,0.069
48.13,-0.299,0.89,-0.127
48.14,-0.25,1.156,-0.083
48.15,-0.162,0.853,0.043
48.16,-0.037,1.095,0.16
48.17,-0.181,0.801,-0.036
48.18,-0.389,1.063,-0.144
48.19,-0.224,1.071,-0.065
48.2,-0.083,0.93,0.055
48.21,-0.15,0.963,0.125
48.22,-0.325,0.821,-0.05
