t,ax,ay,az
0.0,-0.087,0.822,0.024
0.01,-0.233,0.909,-0.128
0.02,-0.431,0.424,-0.157
0.03,-0.062,1.221,0.153
0.04,-0.244,1.045,-0.028
0.05,-0.175,0.502,-0.109
0.06,-0.481,0.95,-0.111
0.07,-0.034,0.869,0.195
0.08,-0.205,1.288,-0.041
0.09,-0.185,0.386,-0.172
0.1,-0.43,0.918,-0.105
0.11,-0.015,1.003,0.113
0.12,-0.281,1.031,0.051
0.13,-0.181,0.67,-0.151
0.14,-0.336,0.852,-0.077
0.15,-0.113,1.312,0.197
0.16,-0.172,0.658,0.086
0.17,-0.406,1.026,-0.13
0.18,-0.291,0.839,-0.046
0.19,-0.152,1.156,0.115
0.2,-0.207,0.948,0.054
0.21,-0.309,0.613,-0.187
0.22,-0.344,1.365,-0.027
0.23,-0.031,0.766,0.133
0.24,-0.306,1.269,0.023
0.25,-0.217,0.376,-0.15
0.26,-0.325,1.668,-0.017
0.27,-0.013,0.885,0.162
0.28,-0.177,0.825,0.032
0.29,-0.406,0.807,-0.233
0.3,-0.274,1.208,-0.008
0.31,-0.174,1.178,0.13
0.32,-0.137,0.565,0.025
0.33,-0.446,1.055,-0.192
0.34,-0.228,1.24,0.042
0.35,-0.118,0.997,0.111
0.36,-0.064,0.791,0.013
0.37,-0.444,0.708,-0.18
0.38,-0.239,1.802,0.051
0.39,-0.127,0.681,0.188
0.4,-0.161,1.066,0.082
0.41,-0.353,0.308,-0.234
0.42,-0.266,1.914,0.089
0.43,-0.059,0.824,0.164
0.44,-0.163,0.732,0.035
0.45,-0.387,0.735,-0.201
0.46,-0.237,1.585,0.104
0.47,-0.206,1.082,0.162
0.48,0.066,0.469,-0.005
0.49,-0.466,1.03,-0.234
0.5,-0.052,1.508,0.045
0.51,-0.156,1.126,0.105
0.52,0.01,0.545,0.023
0.53,-0.351,0.714,-0.218
0.54,-0.092,1.944,0.091
0.55,-0.01,0.806,0.121
0.56,-0.157,0.876,-0.009
0.57,-0.302,0.231,-0.217
0.58,-0.075,2.0,0.092
0.59,-0.07,0.69,0.069
0.6,-0.096,0.669,-0.02
0.61,-0.401,0.701,-0.28
0.62,-0.083,1.803,0.125
0.63,-0.122,1.092,0.093
0.64,0.048,0.29,-0.046
0.65,-0.436,0.837,-0.196
0.66,-0.051,1.337,0.186
0.67,-0.248,1.327,0.088
0.68,-0.024,0.421,-0.02
0.69,-0.574,0.888,-0.121
0.7,-0.049,1.423,0.227
0.71,-0.279,1.118,0.156
0.72,-0.128,0.819,-0.064
0.73,-0.395,0.357,-0.125
0.74,-0.214,1.72,0.248
0.75,-0.188,0.825,0.132
0.76,-0.203,0.968,-0.084
0.77,-0.438,0.22,-0.138
0.78,-0.214,1.47,0.232
0.79,-0.272,1.018,0.103
0.8,-0.082,0.685,-0.118
0.81,-0.429,0.747,-0.213
0.82,0.01,1.026,0.169
0.83,-0.301,1.422,0.019
0.84,-0.004,0.402,-0.128
0.85,-0.521,0.906,-0.147
0.86,0.025,1.069,0.139
0.87,-0.253,1.149,0.01
0.88,-0.186,0.762,-0.178
0.89,-0.443,0.406,-0.102
0.9,-0.135,1.312,0.163
0.91,-0.095,0.854,-0.005
0.92,-0.27,0.919,-0.114
0.93,-0.418,0.447,-0.062
0.94,-0.117,1.248,0.144
0.95,-0.24,0.95,0.014
0.96,-0.286,0.641,-0.12
0.97,-0.36,1.048,-0.029
0.98,-0.083,0.842,0.173
0.99,-0.318,1.314,0.099
1.0,-0.222,0.244,-0.142
1.01,-0.367,1.306,-0.057
1.02,-0.028,0.877,0.149
1.03,-0.287,1.113,-0.002
1.04,-0.235,0.65,-0.155
1.05,-0.33,1.058,-0.006
1.06,-0.109,1.197,0.185
1.07,-0.132,0.678,0.062
1.08,-0.427,1.034,-0.148
1.09,-0.271,1.059,-0.005
1.1,-0.127,1.171,0.196
1.11,-0.097,0.787,-0.032
1.12,-0.255,0.785,-0.234
1.13,-0.312,1.65,0.013
1.14,0.028,0.754,0.136
1.15,-0.244,1.016,0.033
1.16,-0.287,0.423,-0.171
1.17,-0.355,1.922,-0.015
1.18,-0.028,0.721,0.161
1.19,-0.142,0.906,0.029
1.2,-0.423,0.64,-0.183
1.21,-0.333,1.57,0.077
1.22,-0.224,0.982,0.176
1.23,0.055,0.571,0.065
1.24,-0.539,1.065,-0.167
1.25,-0.115,1.369,0.08
1.26,-0.248,1.131,0.177
1.27,0.025,0.539,0.051
1.28,-0.392,0.789,-0.19
1.29,-0.078,1.853,0.039
1.3,-0.06,0.765,0.064
1.31,-0.09,0.857,-0.021
1.32,-0.287,0.389,-0.209
1.33,-0.174,2.0,0.109
1.34,0.028,0.624,0.042
1.35,-0.087,0.802,-0.018
1.36,-0.348,0.522,-0.235
1.37,-0.039,1.841,0.088
1.38,-0.12,1.037,0.109
1.39,0.068,0.354,-0.058
1.4,-0.418,1.028,-0.21
1.41,0.025,1.599,0.075
1.42,-0.12,1.219,0.034
1.43,0.092,0.403,-0.074
1.44,-0.438,0.831,-0.287
1.45,-0.097,1.423,0.166
1.46,-0.205,1.151,0.061
1.47,-0.092,0.7,-0.066
1.48,-0.438,0.425,-0.128
1.49,-0.237,1.653,0.201
1.5,-0.125,0.837,0.1
1.51,-0.273,1.061,-0.028
1.52,-0.386,0.173,-0.11
1.53,-0.224,1.689,0.229
1.54,-0.167,1.077,0.099
1.55,-0.089,0.726,-0.073
1.56,-0.457,0.651,-0.155
1.57,-0.019,1.167,0.204
1.58,-0.308,1.388,0.056
1.59,0.037,0.474,-0.083
1.6,-0.549,0.972,-0.129
1.61,0.01,0.984,0.163
1.62,-0.259,1.26,-0.006
1.63,-0.134,0.687,-0.092
1.64,-0.444,0.546,-0.101
1.65,-0.109,1.258,0.168
1.66,-0.12,0.839,0.001
1.67,-0.316,0.938,-0.116
1.68,-0.378,0.413,-0.038
1.69,-0.176,1.286,0.167
1.7,-0.214,0.86,0.006
1.71,-0.295,0.667,-0.125
1.72,-0.314,1.0,-0.082
1.73,-0.038,0.927,0.129
1.74,-0.344,1.217,0.076
1.75,-0.143,0.385,-0.231
1.76,-0.416,1.331,-0.05
1.77,-0.008,0.748,0.157
1.78,-0.382,1.186,0.053
1.79,-0.177,0.548,-0.194
1.8,-0.396,1.152,-0.037
1.81,-0.095,1.123,0.124
1.82,-0.105,0.721,0.007
1.83,-0.421,0.981,-0.173
1.84,-0.143,1.025,-0.012
1.85,-0.178,1.156,0.166
1.86,-0.109,0.696,0.076
1.87,-0.406,0.838,-0.205
1.88,-0.158,1.47,0.009
1.89,-0.124,0.778,0.147
1.9,-0.186,1.028,0.039
1.91,-0.394,0.407,-0.194
1.92,-0.276,1.879,0.056
1.93,-0.037,0.631,0.123
1.94,-0.141,0.989,-0.017
1.95,-0.339,0.56,-0.215
1.96,-0.268,1.696,0.046
1.97,-0.102,0.998,0.137
1.98,-0.006,0.511,0.014
1.99,-0.528,1.01,-0.196
2.0,-0.09,1.451,0.076
2.01,-0.239,1.172,0.16
2.02,0.012,0.454,0.04
2.03,-0.484,0.918,-0.157
2.04,-0.11,1.737,0.117
2.05,-0.089,0.888,0.162
2.06,-0.094,0.788,-0.019
2.07,-0.413,0.397,-0.147
2.08,-0.175,2.0,0.117
2.09,-0.048,0.66,0.111
2.1,-0.102,0.888,0.002
2.11,-0.447,0.36,-0.208
2.12,-0.054,1.897,0.139
2.13,-0.122,1.054,0.112
2.14,-0.018,0.386,-0.039
2.15,-0.487,0.922,-0.205
2.16,-0.05,1.449,0.17
2.17,-0.22,1.319,0.091
2.18,0.006,0.41,-0.024
2.19,-0.528,0.852,-0.201
2.2,-0.065,1.541,0.208
2.21,-0.092,1.019,0.039
2.22,-0.098,0.809,-0.064
2.23,-0.456,0.299,-0.133
2.24,-0.201,1.757,0.214
2.25,-0.155,0.853,0.029
2.26,-0.19,1.04,-0.105
2.27,-0.372,0.22,-0.101
2.28,-0.172,1.473,0.223
2.29,-0.182,0.923,0.066
2.3,-0.113,0.8,-0.132
2.31,-0.458,0.652,-0.162
2.32,-0.017,1.071,0.201
2.33,-0.203,0.975,-0.056
2.34,-0.343,0.215,-0.125
2.35,-0.219,1.548,0.2
2.36,-0.147,0.821,0.044
2.37,-0.158,0.898,-0.149
2.38,-0.36,0.506,-0.214
2.39,-0.097,1.094,0.186
2.4,-0.246,1.208,-0.001
2.41,-0.147,0.403,-0.131
2.42,-0.476,0.969,-0.123
2.43,-0.047,0.864,0.2
2.44,-0.273,1.299,0.01
2.45,-0.188,0.444,-0.149
2.46,-0.449,0.82,-0.105
2.47,-0.027,1.101,0.136
2.48,-0.219,0.919,0.045
2.49,-0.328,0.873,-0.119
2.5,-0.417,0.42,-0.076
2.51,-0.182,1.3,0.155
2.52,-0.239,0.8,0.034
2.53,-0.334,0.77,-0.125
2.54,-0.304,0.852,-0.065
2.55,-0.083,1.075,0.172
2.56,-0.343,1.133,0.026
2.57,-0.226,0.468,-0.134
2.58,-0.374,1.55,-0.034
2.59,0.036,0.753,0.185
2.6,-0.319,1.256,0.033
2.61,-0.303,0.476,-0.209
2.62,-0.293,1.398,-0.012
2.63,-0.071,0.931,0.09
2.64,-0.119,0.842,0.027
2.65,-0.332,0.826,-0.187
2.66,-0.173,1.223,-0.019
2.67,-0.09,1.253,0.14
2.68,-0.082,0.5,0.071
2.69,-0.497,1.069,-0.187
2.7,-0.225,1.508,0.056
2.71,-0.209,0.963,0.172
2.72,-0.143,0.765,0.034
2.73,-0.378,0.681,-0.141
2.74,-0.331,1.931,0.061
2.75,0.011,0.591,0.098
2.76,-0.177,1.037,-0.007
2.77,-0.404,0.363,-0.206
2.78,-0.232,1.919,0.122
2.79,-0.147,0.824,0.153
2.8,-0.037,0.623,0.025
2.81,-0.403,0.905,-0.157
2.82,-0.109,1.499,0.111
2.83,-0.121,1.139,0.107
2.84,0.074,0.365,-0.038
2.85,-0.472,1.032,-0.217
2.86,0.028,1.647,0.041
2.87,-0.106,1.033,0.09
2.88,0.069,0.608,-0.052
2.89,-0.447,0.765,-0.226
2.9,-0.08,1.601,0.1
2.91,-0.139,0.894,0.02
2.92,-0.114,0.912,-0.095
2.93,-0.382,0.262,-0.163
2.94,-0.18,1.903,0.172
2.95,-0.056,0.866,0.105
2.96,-0.161,0.861,-0.075
2.97,-0.336,0.423,-0.184
2.98,-0.159,1.567,0.159
2.99,-0.152,1.232,0.099
3.0,-0.051,0.468,-0.075
3.01,-0.532,0.889,-0.161
3.02,0.001,1.255,0.212
3.03,-0.237,1.329,0.021
3.04,0.019,0.563,-0.066
3.05,-0.56,0.698,-0.156
3.06,-0.089,1.39,0.198
3.07,-0.244,1.069,0.094
3.08,-0.139,0.882,-0.067
3.09,-0.469,0.317,-0.096
3.1,-0.204,1.499,0.167
3.11,-0.162,0.807,0.048
3.12,-0.184,0.961,-0.102
3.13,-0.452,0.44,-0.141
3.14,-0.105,1.16,0.209
3.15,-0.245,1.093,-0.013
3.16,-0.177,0.472,-0.143
3.17,-0.449,0.946,-0.093
3.18,-0.062,0.84,0.227
3.19,-0.298,1.349,-0.001
3.2,-0.168,0.399,-0.151
3.21,-0.427,0.915,-0.081
3.22,-0.01,0.948,0.103
3.23,-0.159,1.041,-0.031
3.24,-0.224,0.759,-0.19
3.25,-0.301,0.598,-0.068
3.26,-0.062,1.325,0.091
3.27,-0.117,0.687,0.023
3.28,-0.34,0.927,-0.198
3.29,-0.331,0.798,-0.041
3.3,-0.12,1.137,0.149
3.31,-0.296,1.05,0.044
3.32,-0.229,0.452,-0.153
3.33,-0.3,1.556,-0.034
3.34,-0.048,0.755,0.177
3.35,-0.241,1.24,-0.019
3.36,-0.292,0.365,-0.162
3.37,-0.27,1.617,0.018
3.38,-0.116,0.902,0.14
3.39,-0.178,0.808,0.036
3.4,-0.333,0.813,-0.149
3.41,-0.235,1.265,-0.002
3.42,-0.135,1.221,0.153
3.43,-0.096,0.486,0.012
3.44,-0.381,1.059,-0.177
3.45,-0.288,1.287,0.011
3.46,-0.082,0.966,0.166
3.47,-0.183,0.782,0.021
3.48,-0.374,0.631,-0.2
3.49,-0.287,1.904,0.039
3.5,-0.024,0.617,0.124
3.51,-0.142,1.046,-0.001
3.52,-0.418,0.359,-0.186
3.53,-0.192,2.0,0.083
3.54,-0.143,0.733,0.147
3.55,-0.089,0.688,-0.009
3.56,-0.463,0.76,-0.208
3.57,-0.098,1.652,0.11
3.58,-0.178,1.178,0.141
3.59,0.079,0.29,-0.034
3.6,-0.521,1.027,-0.129
3.61,-0.029,1.669,0.117
3.62,-0.138,1.084,0.127
3.63,-0.0,0.593,-0.038
3.64,-0.41,0.616,-0.177
3.65,-0.147,2.0,0.132
3.66,-0.026,0.741,0.072
3.67,-0.12,0.856,-0.074
3.68,-0.313,0.263,-0.223
3.69,-0.305,1.642,0.191
3.7,-0.104,0.778,0.198
3.71,-0.306,0.985,-0.039
3.72,-0.35,0.309,-0.139
3.73,-0.195,1.449,0.18
3.74,-0.201,1.156,0.092
3.75,-0.075,0.6,-0.089
3.76,-0.5,0.914,-0.164
3.77,-0.019,0.967,0.174
3.78,-0.252,1.406,-0.003
3.79,-0.003,0.482,-0.102
3.8,-0.458,0.827,-0.144
3.81,-0.019,1.121,0.152
3.82,-0.206,1.017,0.057
3.83,-0.281,0.855,-0.112
3.84,-0.375,0.329,-0.076
3.85,-0.209,1.314,0.159
3.86,-0.156,0.806,0.023
3.87,-0.303,0.907,-0.103
3.88,-0.285,0.496,-0.145
3.89,-0.05,1.174,0.138
3.9,-0.24,1.05,-0.045
3.91,-0.252,0.505,-0.091
3.92,-0.424,1.165,-0.036
3.93,-0.067,0.822,0.221
3.94,-0.35,1.314,0.078
3.95,-0.148,0.341,-0.158
3.96,-0.341,1.365,-0.087
3.97,0.082,0.905,0.116
3.98,-0.276,0.966,-0.04
3.99,-0.323,0.726,-0.18
4.0,-0.175,1.101,-0.044
4.01,-0.139,1.158,0.143
4.02,-0.067,0.568,0.024
4.03,-0.406,1.108,-0.205
4.04,-0.29,1.164,0.02
4.05,-0.134,1.01,0.136
4.06,-0.202,0.829,0.018
4.07,-0.424,0.641,-0.195
4.08,-0.254,1.837,0.056
4.09,-0.024,0.721,0.18
4.1,-0.125,1.013,0.052
4.11,-0.356,0.427,-0.245
4.12,-0.235,1.869,0.038
4.13,-0.102,0.793,0.113
4.14,-0.064,0.773,0.05
4.15,-0.488,0.777,-0.202
4.16,-0.154,1.509,0.139
4.17,-0.224,1.12,0.122
4.18,0.085,0.434,0.033
4.19,-0.559,1.069,-0.182
4.2,0.025,1.556,0.087
4.21,-0.213,1.103,0.176
4.22,0.083,0.576,0.005
4.23,-0.448,0.636,-0.18
4.24,-0.037,1.987,0.055
4.25,-0.069,0.781,0.124
4.26,-0.1,0.88,-0.013
4.27,-0.33,0.317,-0.229
4.28,-0.063,2.0,0.058
4.29,-0.038,0.777,0.057
4.3,-0.079,0.645,-0.032
4.31,-0.467,0.651,-0.212
4.32,-0.047,1.713,0.087
4.33,-0.207,1.203,0.089
4.34,0.093,0.332,-0.023
4.35,-0.541,0.981,-0.208
4.36,-0.0,1.48,0.169
4.37,-0.213,1.24,0.077
4.38,-0.008,0.59,-0.057
4.39,-0.412,0.64,-0.179
4.4,-0.089,1.746,0.154
4.41,-0.119,0.855,0.118
4.42,-0.102,0.933,-0.086
4.43,-0.502,0.251,-0.158
4.44,-0.144,1.729,0.184
4.45,-0.181,0.872,0.102
4.46,-0.166,0.861,-0.06
4.47,-0.416,0.489,-0.142
4.48,-0.117,1.287,0.198
4.49,-0.25,1.272,0.09
4.5,-0.201,0.57,-0.137
4.51,-0.459,0.88,-0.147
4.52,-0.062,0.94,0.236
4.53,-0.284,1.323,0.065
4.54,-0.083,0.405,-0.109
4.55,-0.573,0.979,-0.059
4.56,0.0,1.022,0.195
4.57,-0.244,1.091,0.036
4.58,-0.22,0.694,-0.119
4.59,-0.312,0.586,-0.088
4.6,-0.115,1.359,0.17
4.61,-0.109,0.698,0.017
4.62,-0.366,0.984,-0.119
4.63,-0.29,0.596,-0.091
4.64,-0.101,1.189,0.114
4.65,-0.084,1.001,-0.031
4.66,-0.286,0.517,-0.191
4.67,-0.233,1.353,-0.145
4.68,0.0,0.845,0.149
4.69,-0.289,1.199,0.064
4.7,-0.256,0.359,-0.13
4.71,-0.345,1.599,-0.081
4.72,-0.04,0.837,0.159
4.73,-0.22,0.981,0.03
4.74,-0.328,0.716,-0.187
4.75,-0.239,1.157,-0.065
4.76,-0.107,1.152,0.156
4.77,-0.046,0.599,-0.001
4.78,-0.393,1.121,-0.183
4.79,-0.2,1.131,-0.025
4.8,-0.142,1.094,0.157
4.81,-0.092,0.788,0.028
4.82,-0.39,0.735,-0.225
4.83,-0.273,1.614,0.013
4.84,-0.029,0.709,0.128
4.85,-0.179,1.076,0.047
4.86,-0.339,0.388,-0.212
4.87,-0.306,1.941,0.015
4.88,-0.104,0.694,0.115
4.89,-0.075,0.88,0.047
4.9,-0.331,0.639,-0.193
4.91,-0.175,1.489,0.068
4.92,-0.174,1.188,0.124
4.93,-0.044,0.341,0.057
4.94,-0.465,1.033,-0.139
4.95,-0.149,1.516,0.1
4.96,-0.243,1.024,0.162
4.97,0.001,0.585,0.038
4.98,-0.469,0.856,-0.17
4.99,-0.17,1.843,0.109
5.0,-0.127,0.745,0.146
5.01,-0.073,0.867,-0.004
5.02,-0.352,0.358,-0.158
5.03,-0.162,2.0,0.108
5.04,-0.073,0.726,0.126
5.05,-0.111,0.772,-0.039
5.06,-0.448,0.512,-0.202
5.07,-0.071,1.849,0.105
5.08,-0.196,1.125,0.117
5.09,0.075,0.359,-0.049
5.1,-0.482,0.974,-0.237
5.11,0.06,1.484,0.159
5.12,-0.17,1.324,0.068
5.13,-0.017,0.462,-0.035
5.14,-0.429,0.724,-0.183
5.15,-0.087,1.601,0.19
5.16,-0.1,0.899,0.114
5.17,-0.132,0.988,-0.074
5.18,-0.402,0.19,-0.144
5.19,-0.222,1.783,0.194
5.2,-0.159,0.909,0.151
5.21,-0.197,0.885,-0.081
5.22,-0.34,0.419,-0.226
5.23,-0.132,1.253,0.11
5.24,-0.242,1.2,0.014
5.25,-0.049,0.518,-0.13
5.26,-0.487,0.913,-0.102
5.27,-0.085,0.882,0.245
5.28,-0.372,1.365,0.08
5.29,-0.186,0.452,-0.132
5.3,-0.395,1.121,-0.009
5.31,-0.093,0.879,0.191
5.32,-0.224,1.11,0.076
5.33,-0.261,0.585,-0.157
5.34,-0.239,0.957,-0.005
5.35,-0.12,1.215,0.161
5.36,-0.174,0.661,0.028
5.37,-0.388,1.035,-0.181
5.38,-0.213,0.884,-0.053
5.39,-0.155,1.125,0.137
5.4,-0.163,0.853,0.004
5.41,-0.372,0.766,-0.181
5.42,-0.207,1.498,-0.015
5.43,-0.102,0.754,0.143
5.44,-0.229,1.136,0.052
5.45,-0.345,0.381,-0.16
5.46,-0.267,1.824,0.045
5.47,-0.017,0.771,0.114
5.48,-0.235,0.88,0.048
5.49,-0.418,0.713,-0.202
5.5,-0.22,1.544,0.035
5.51,-0.118,1.109,0.157
5.52,0.01,0.451,0.026
5.53,-0.551,1.126,-0.176
5.54,-0.076,1.399,0.017
5.55,-0.212,1.08,0.144
5.56,0.013,0.578,0.036
5.57,-0.515,0.775,-0.2
5.58,-0.043,1.885,0.029
5.59,-0.032,0.883,0.175
5.6,-0.077,0.857,-0.018
5.61,-0.364,0.279,-0.216
5.62,-0.148,2.0,0.039
5.63,-0.012,0.737,0.127
5.64,-0.1,0.796,-0.014
5.65,-0.388,0.608,-0.283
5.66,-0.096,1.804,0.114
5.67,-0.053,1.134,0.08
5.68,0.038,0.301,-0.045
5.69,-0.452,1.048,-0.2
5.7,-0.07,1.471,0.111
5.71,-0.115,1.253,0.056
5.72,-0.001,0.547,-0.037
5.73,-0.453,0.743,-0.198
5.74,-0.115,1.636,0.142
5.75,-0.105,0.939,0.159
5.76,-0.135,0.848,-0.023
5.77,-0.369,0.271,-0.175
5.78,-0.235,1.862,0.125
5.79,-0.081,0.826,0.129
5.8,-0.218,0.884,-0.038
5.81,-0.401,0.421,-0.166
5.82,-0.19,1.553,0.166
5.83,-0.239,1.186,0.129
5.84,-0.01,0.496,-0.044
5.85,-0.556,0.911,-0.163
5.86,-0.002,1.125,0.186
5.87,-0.274,1.344,0.063
5.88,-0.041,0.475,-0.1
5.89,-0.406,0.738,-0.222
5.9,-0.038,1.3,0.087
5.91,-0.137,0.986,0.021
5.92,-0.233,0.892,-0.13
5.93,-0.389,0.233,-0.154
5.94,-0.215,1.493,0.156
5.95,-0.12,0.823,0.034
5.96,-0.249,0.926,-0.149
5.97,-0.397,0.375,-0.189
5.98,-0.114,1.129,0.186
5.99,-0.199,1.188,-0.035
6.0,-0.116,0.451,-0.164
6.01,-0.493,0.942,-0.161
6.02,0.032,0.866,0.203
6.03,-0.297,1.322,0.036
6.04,-0.159,0.401,-0.114
6.05,-0.466,0.918,-0.083
6.06,-0.074,1.03,0.22
6.07,-0.24,0.978,0.064
6.08,-0.339,0.817,-0.106
6.09,-0.344,0.543,-0.034
6.1,-0.115,1.131,0.184
6.11,-0.071,0.697,0.026
6.12,-0.454,1.002,-0.173
6.13,-0.168,0.903,-0.057
6.14,-0.229,1.165,0.2
6.15,-0.084,0.832,0.076
6.16,-0.414,0.802,-0.179
6.17,-0.197,1.415,-0.03
6.18,-0.144,0.857,0.178
6.19,-0.134,1.186,0.033
6.2,-0.321,0.369,-0.16
6.21,-0.33,1.736,0.002
6.22,-0.077,0.705,0.167
6.23,-0.234,1.061,0.048
6.24,-0.306,0.623,-0.176
6.25,-0.311,1.402,0.064
6.26,-0.108,0.998,0.176
6.27,-0.028,0.626,-0.03
6.28,-0.456,1.046,-0.149
6.29,-0.217,1.218,0.042
6.3,-0.22,1.095,0.196
6.31,-0.052,0.629,0.064
6.32,-0.508,0.884,-0.202
6.33,-0.198,1.665,0.074
6.34,-0.062,0.919,0.169
6.35,-0.171,0.848,0.054
6.36,-0.412,0.422,-0.135
6.37,-0.311,2.0,0.156
6.38,-0.097,0.646,0.173
6.39,-0.122,0.956,0.031
6.4,-0.365,0.572,-0.229
6.41,-0.188,1.78,0.083
6.42,-0.139,0.986,0.143
6.43,0.061,0.461,-0.025
6.44,-0.479,1.04,-0.206
6.45,-0.02,1.555,0.117
6.46,-0.213,1.193,0.146
6.47,0.095,0.417,-0.001
6.48,-0.518,0.901,-0.214
6.49,0.003,1.808,0.121
6.5,-0.158,0.846,0.102
6.51,-0.006,0.757,-0.034
6.52,-0.359,0.431,-0.204
6.53,-0.147,2.0,0.144
6.54,-0.158,0.676,0.089
6.55,-0.072,0.841,-0.019
6.56,-0.293,0.499,-0.198
6.57,-0.167,1.829,0.115
6.58,-0.135,1.11,0.031
6.59,-0.017,0.499,-0.121
6.6,-0.369,0.89,-0.175
6.61,0.07,1.599,0.14
6.62,-0.156,1.299,0.098
6.63,0.031,0.42,-0.068
6.64,-0.466,0.861,-0.19
6.65,-0.035,1.732,0.142
6.66,-0.187,1.041,0.106
6.67,-0.083,0.772,-0.1
6.68,-0.36,0.316,-0.199
6.69,-0.104,1.712,0.158
6.7,-0.155,0.85,0.116
6.71,-0.147,1.022,-0.075
6.72,-0.462,0.259,-0.121
6.73,-0.135,1.557,0.217
6.74,-0.221,1.162,0.089
6.75,-0.075,0.602,-0.07
6.76,-0.511,0.839,-0.162
6.77,-0.036,1.023,0.226
6.78,-0.341,1.421,0.065
6.79,-0.015,0.451,-0.063
6.8,-0.496,0.901,-0.134
6.81,-0.06,1.108,0.188
6.82,-0.167,1.089,-0.028
6.83,-0.243,0.891,-0.113
6.84,-0.314,0.331,-0.155
6.85,-0.161,1.384,0.127
6.86,-0.066,0.796,-0.007
6.87,-0.247,0.926,-0.143
6.88,-0.438,0.44,-0.114
6.89,-0.043,1.213,0.158
6.9,-0.188,1.046,-0.058
6.91,-0.339,0.79,-0.07
6.92,-0.306,1.277,-0.038
6.93,-0.144,0.942,0.231
6.94,-0.226,1.112,0.034
6.95,-0.321,0.436,-0.142
6.96,-0.318,1.648,-0.009
6.97,-0.027,0.737,0.152
6.98,-0.236,1.165,-0.0
6.99,-0.284,0.517,-0.226
7.0,-0.214,1.448,-0.068
7.01,-0.049,0.952,0.111
7.02,-0.138,0.68,0.032
7.03,-0.432,1.026,-0.22
7.04,-0.139,1.202,-0.013
7.05,-0.186,1.139,0.168
7.06,-0.02,0.591,0.035
7.07,-0.484,0.948,-0.179
7.08,-0.218,1.536,0.061
7.09,-0.144,0.833,0.168
7.1,-0.143,0.859,0.034
7.11,-0.378,0.446,-0.215
7.12,-0.284,2.0,0.109
7.13,-0.057,0.632,0.159
7.14,-0.142,0.959,0.018
7.15,-0.395,0.488,-0.224
7.16,-0.232,1.76,0.061
7.17,-0.107,0.943,0.119
7.18,-0.019,0.518,-0.003
7.19,-0.436,1.007,-0.215
7.2,-0.073,1.485,0.086
7.21,-0.097,1.198,0.146
7.22,0.004,0.367,-0.012
7.23,-0.333,0.97,-0.19
7.24,-0.106,1.705,0.037
7.25,-0.03,0.9,0.128
7.26,-0.008,0.862,-0.066
7.27,-0.433,0.376,-0.208
7.28,-0.087,2.0,0.119
7.29,-0.099,0.677,0.085
7.3,-0.097,0.865,-0.008
7.31,-0.383,0.381,-0.211
7.32,-0.144,1.96,0.119
7.33,-0.046,0.965,0.022
7.34,0.013,0.478,-0.035
7.35,-0.463,0.855,-0.193
7.36,-0.057,1.416,0.177
7.37,-0.206,1.319,0.084
7.38,0.031,0.429,-0.033
7.39,-0.49,0.899,-0.189
7.4,-0.058,1.41,0.168
7.41,-0.15,1.111,0.087
7.42,-0.082,0.779,-0.081
7.43,-0.414,0.346,-0.177
7.44,-0.215,1.694,0.2
7.45,-0.078,0.804,0.112
7.46,-0.225,1.045,-0.051
7.47,-0.352,0.201,-0.156
7.48,-0.246,1.517,0.163
7.49,-0.154,1.068,0.087
7.5,-0.134,0.615,-0.062
7.51,-0.499,0.793,-0.136
7.52,-0.064,1.128,0.193
7.53,-0.295,1.338,0.072
7.54,-0.032,0.472,-0.051
7.55,-0.518,0.873,-0.159
7.56,-0.111,1.122,0.186
7.57,-0.254,1.175,0.098
7.58,-0.164,0.746,-0.086
7.59,-0.491,0.446,-0.092
7.6,-0.182,1.431,0.188
7.61,-0.193,0.805,0.059
7.62,-0.239,0.981,-0.111
7.63,-0.463,0.311,-0.107
7.64,-0.164,1.27,0.223
7.65,-0.27,0.926,-0.002
7.66,-0.117,0.621,-0.12
7.67,-0.52,0.874,-0.139
7.68,0.043,0.939,0.217
7.69,-0.324,1.263,-0.01
7.7,-0.049,0.362,-0.135
7.71,-0.389,1.443,-0.021
7.72,-0.017,0.797,0.223
7.73,-0.403,1.221,0.057
7.74,-0.229,0.434,-0.144
7.75,-0.351,1.315,-0.018
7.76,-0.049,0.984,0.186
7.77,-0.196,0.772,0.051
7.78,-0.421,0.927,-0.171
7.79,-0.192,0.983,-0.012
7.8,-0.174,1.233,0.172
7.81,-0.171,0.645,0.109
7.82,-0.474,0.964,-0.167
7.83,-0.221,1.268,0.007
7.84,-0.175,0.9,0.163
7.85,-0.17,1.032,0.046
7.86,-0.393,0.479,-0.194
7.87,-0.275,1.789,0.048
7.88,-0.045,0.658,0.117
7.89,-0.112,1.112,0.033
7.9,-0.4,0.478,-0.237
7.91,-0.216,1.69,0.003
7.92,-0.047,0.957,0.169
7.93,0.011,0.646,0.039
7.94,-0.436,1.001,-0.246
7.95,-0.119,1.404,0.052
7.96,-0.185,1.184,0.188
7.97,0.014,0.464,0.042
7.98,-0.505,1.005,-0.156
7.99,-0.154,1.566,0.068
8.0,-0.158,0.979,0.171
8.01,-0.067,0.697,0.009
8.02,-0.396,0.554,-0.153
8.03,-0.268,2.0,0.102
8.04,0.004,0.647,0.118
8.05,-0.147,0.981,0.009
8.06,-0.361,0.395,-0.194
8.07,-0.181,1.954,0.089
8.08,-0.131,0.808,0.112
8.09,-0.066,0.596,0.025
8.1,-0.373,0.906,-0.215
8.11,-0.183,1.51,0.114
8.12,-0.149,1.203,0.219
8.13,0.009,0.323,0.043
8.14,-0.522,1.001,-0.192
8.15,-0.09,1.683,0.081
8.16,-0.167,1.051,0.13
8.17,-0.001,0.682,-0.061
8.18,-0.38,0.558,-0.22
8.19,-0.093,1.977,0.101
8.2,0.047,0.774,0.081
8.21,-0.145,0.814,-0.031
8.22,-0.348,0.316,-0.211
8.23,-0.178,1.999,0.122
8.24,-0.024,0.826,0.083
8.25,-0.068,0.639,-0.044
8.26,-0.413,0.791,-0.29
8.27,-0.04,1.628,0.168
8.28,-0.209,1.337,0.074
8.29,0.132,0.295,-0.047
8.3,-0.529,1.044,-0.224
8.31,-0.03,1.375,0.158
8.32,-0.221,1.22,0.054
8.33,-0.091,0.695,-0.074
8.34,-0.454,0.42,-0.12
8.35,-0.181,1.86,0.17
8.36,-0.166,0.798,0.133
8.37,-0.085,1.034,-0.049
8.38,-0.44,0.222,-0.172
8.39,-0.115,1.781,0.191
8.4,-0.185,1.035,0.128
8.41,-0.169,0.658,-0.057
8.42,-0.471,0.679,-0.152
8.43,-0.094,1.253,0.165
8.44,-0.218,1.358,0.054
8.45,-0.025,0.435,-0.092
8.46,-0.506,0.921,-0.128
8.47,-0.049,1.17,0.161
8.48,-0.255,1.245,0.055
8.49,-0.153,0.649,-0.104
8.5,-0.349,0.528,-0.182
8.51,-0.114,1.435,0.111
8.52,-0.156,1.01,-0.022
8.53,-0.223,0.859,-0.129
8.54,-0.455,0.362,-0.073
8.55,-0.143,1.367,0.198
8.56,-0.215,0.728,0.047
8.57,-0.285,0.948,-0.137
8.58,-0.374,0.613,-0.094
8.59,-0.153,1.134,0.209
8.6,-0.322,1.073,0.062
8.61,-0.203,0.452,-0.148
8.62,-0.48,1.224,-0.037
8.63,-0.028,0.823,0.199
8.64,-0.326,1.268,0.072
8.65,-0.224,0.361,-0.132
8.66,-0.354,1.222,-0.041
8.67,-0.103,0.928,0.177
8.68,-0.249,0.935,0.057
8.69,-0.364,0.763,-0.17
8.7,-0.213,0.929,-0.076
8.71,-0.112,1.256,0.134
8.72,-0.073,0.654,0.026
8.73,-0.364,1.0,-0.195
8.74,-0.25,1.108,-0.043
8.75,-0.112,1.125,0.149
8.76,-0.196,0.909,0.018
8.77,-0.285,0.584,-0.218
8.78,-0.282,1.666,-0.054
8.79,0.004,0.764,0.107
8.8,-0.299,1.128,0.063
8.81,-0.317,0.495,-0.173
8.82,-0.387,1.654,-0.005
8.83,-0.071,0.855,0.167
8.84,-0.168,0.865,0.045
8.85,-0.41,0.88,-0.195
8.86,-0.2,1.26,0.011
8.87,-0.193,1.158,0.141
8.88,-0.022,0.555,0.04
8.89,-0.431,1.086,-0.214
8.9,-0.261,1.338,0.037
8.91,-0.113,1.062,0.1
8.92,-0.037,0.749,0.022
8.93,-0.428,0.695,-0.207
8.94,-0.284,1.827,0.034
8.95,-0.084,0.653,0.136
8.96,-0.188,1.034,0.097
8.97,-0.305,0.387,-0.221
8.98,-0.345,1.874,0.023
8.99,-0.006,0.869,0.13
9.0,-0.171,0.706,0.038
9.01,-0.349,0.815,-0.187
9.02,-0.278,1.463,0.077
9.03,-0.147,1.175,0.22
9.04,-0.021,0.394,0.048
9.05,-0.559,1.109,-0.145
9.06,-0.178,1.401,0.121
9.07,-0.283,1.016,0.217
9.08,-0.028,0.66,0.018
9.09,-0.449,0.721,-0.198
9.1,-0.147,1.968,0.05
9.11,-0.002,0.794,0.186
9.12,-0.133,0.881,0.008
9.13,-0.344,0.349,-0.218
9.14,-0.193,2.0,0.065
9.15,-0.064,0.799,0.197
9.16,-0.102,0.743,0.014
9.17,-0.482,0.696,-0.256
9.18,-0.079,1.655,0.095
9.19,-0.24,1.098,0.089
9.2,0.075,0.378,-0.013
9.21,-0.529,1.031,-0.227
9.22,0.023,1.55,0.051
9.23,-0.063,1.121,0.027
9.24,0.13,0.529,-0.034
9.25,-0.392,0.661,-0.21
9.26,-0.071,1.953,0.057
9.27,-0.057,0.77,0.073
9.28,-0.04,0.916,-0.038
9.29,-0.441,0.353,-0.221
9.3,-0.032,2.0,0.071
9.31,-0.154,0.719,0.154
9.32,-0.03,0.796,-0.027
9.33,-0.384,0.385,-0.239
9.34,-0.072,1.829,0.05
9.35,-0.129,0.943,0.049
9.36,-0.008,0.528,-0.083
9.37,-0.526,0.88,-0.184
9.38,-0.003,1.448,0.179
9.39,-0.262,1.333,0.076
9.4,0.05,0.358,-0.029
9.41,-0.51,0.971,-0.202
9.42,-0.042,1.505,0.209
9.43,-0.219,1.052,0.141
9.44,-0.04,0.713,-0.052
9.45,-0.462,0.393,-0.183
9.46,-0.177,1.83,0.123
9.47,-0.198,0.761,0.128
9.48,-0.192,0.939,-0.034
9.49,-0.489,0.322,-0.165
9.5,-0.171,1.797,0.18
9.51,-0.203,1.069,0.1
9.52,-0.079,0.552,-0.068
9.53,-0.457,0.829,-0.212
9.54,-0.02,1.359,0.156
9.55,-0.289,1.323,0.114
9.56,0.006,0.427,-0.053
9.57,-0.551,0.914,-0.181
9.58,-0.049,1.427,0.216
9.59,-0.282,1.194,0.14
9.6,-0.065,0.696,-0.078
9.61,-0.474,0.459,-0.185
9.62,-0.154,1.851,0.131
9.63,-0.162,0.78,0.105
9.64,-0.125,0.969,-0.088
9.65,-0.446,0.227,-0.2
9.66,-0.105,1.598,0.134
9.67,-0.196,0.973,0.076
9.68,-0.065,0.671,-0.093
9.69,-0.49,0.747,-0.186
9.7,-0.017,1.299,0.192
9.71,-0.264,1.38,0.093
9.72,-0.007,0.375,-0.073
9.73,-0.556,0.961,-0.173
9.74,-0.048,1.201,0.177
9.75,-0.288,1.17,0.136
9.76,-0.072,0.737,-0.074
9.77,-0.461,0.433,-0.193
9.78,-0.159,1.63,0.176
9.79,-0.142,0.857,0.158
9.8,-0.286,1.002,-0.061
9.81,-0.37,0.204,-0.135
9.82,-0.211,1.655,0.198
9.83,-0.159,1.089,0.097
9.84,-0.164,0.566,-0.049
9.85,-0.429,0.747,-0.197
9.86,-0.029,1.207,0.139
9.87,-0.319,1.268,0.066
9.88,-0.026,0.482,-0.054
9.89,-0.598,0.861,-0.135
9.9,-0.028,1.189,0.199
9.91,-0.235,1.246,0.059
9.92,-0.187,0.63,-0.111
9.93,-0.427,0.545,-0.15
9.94,-0.195,1.555,0.199
9.95,-0.178,0.843,0.119
9.96,-0.173,1.013,-0.033
9.97,-0.477,0.237,-0.148
9.98,-0.146,1.522,0.191
9.99,-0.186,0.901,0.04
10.0,-0.184,0.845,-0.092
10.01,-0.418,0.629,-0.195
10.02,-0.108,1.069,0.207
10.03,-0.238,1.388,0.066
10.04,-0.05,0.384,-0.124
10.05,-0.436,1.002,-0.195
10.06,-0.016,1.039,0.149
10.07,-0.227,1.28,0.064
10.08,-0.125,0.604,-0.14
10.09,-0.457,0.61,-0.128
10.1,-0.148,1.35,0.13
10.11,-0.14,0.818,0.048
10.12,-0.232,1.022,-0.168
10.13,-0.434,0.421,-0.092
10.14,-0.264,1.301,0.223
10.15,-0.1,0.754,0.06
10.16,-0.39,0.848,-0.131
10.17,-0.385,0.583,-0.074
10.18,-0.16,1.165,0.179
10.19,-0.274,1.005,0.042
10.2,-0.245,0.567,-0.118
10.21,-0.509,1.09,-0.096
10.22,-0.017,0.813,0.176
10.23,-0.292,1.341,0.043
10.24,-0.257,0.259,-0.14
10.25,-0.477,1.062,-0.051
10.26,-0.093,0.937,0.164
10.27,-0.232,1.025,0.049
10.28,-0.318,0.628,-0.129
10.29,-0.307,0.754,-0.03
10.3,-0.148,1.284,0.171
10.31,-0.178,0.711,0.079
10.32,-0.379,0.962,-0.162
10.33,-0.306,0.767,-0.055
10.34,-0.09,1.211,0.142
10.35,-0.229,0.968,0.04
10.36,-0.236,0.602,-0.172
10.37,-0.399,1.285,-0.064
10.38,0.05,0.826,0.135
10.39,-0.332,1.351,0.05
10.4,-0.199,0.279,-0.16
10.41,-0.339,1.391,-0.094
10.42,0.049,0.885,0.125
10.43,-0.219,0.99,0.02
10.44,-0.265,0.738,-0.211
10.45,-0.323,0.991,-0.106
10.46,-0.07,1.225,0.107
10.47,-0.156,0.647,0.036
10.48,-0.372,1.032,-0.182
10.49,-0.27,1.048,-0.073
10.5,-0.084,1.145,0.11
10.51,-0.146,0.867,-0.012
10.52,-0.288,0.738,-0.208
10.53,-0.313,1.535,-0.083
10.54,0.011,0.754,0.133
10.55,-0.279,1.209,0.016
10.56,-0.222,0.417,-0.213
10.57,-0.35,1.634,-0.069
10.58,-0.062,0.766,0.105
10.59,-0.163,1.011,0.012
10.6,-0.367,0.685,-0.187
10.61,-0.183,1.246,-0.044
10.62,-0.134,1.102,0.131
10.63,-0.007,0.585,0.018
10.64,-0.424,1.089,-0.19
10.65,-0.217,1.161,-0.01
10.66,-0.1,1.078,0.107
10.67,0.004,0.94,0.006
10.68,-0.44,0.306,-0.217
10.69,-0.125,2.0,0.116
10.7,-0.038,0.811,0.071
10.71,-0.066,0.684,0.003
10.72,-0.415,0.606,-0.193
10.73,-0.051,1.767,0.112
10.74,-0.158,1.098,0.112
10.75,0.072,0.356,-0.013
10.76,-0.53,1.04,-0.199
10.77,0.013,1.623,0.1
10.78,-0.219,1.162,0.067
10.79,0.014,0.478,-0.006
10.8,-0.42,0.803,-0.193
10.81,-0.168,1.76,0.078
10.82,-0.109,0.867,0.079
10.83,-0.113,0.81,-0.04
10.84,-0.406,0.279,-0.122
10.85,-0.23,1.753,0.137
10.86,-0.071,0.719,0.12
10.87,-0.198,1.052,-0.096
10.88,-0.453,0.208,-0.133
10.89,-0.131,1.702,0.161
10.9,-0.187,1.107,0.118
10.91,-0.127,0.566,-0.075
10.92,-0.452,0.767,-0.173
10.93,-0.026,1.24,0.21
10.94,-0.294,1.334,0.069
10.95,-0.006,0.423,-0.083
10.96,-0.535,0.882,-0.151
10.97,0.013,1.259,0.184
10.98,-0.218,1.188,0.021
10.99,-0.104,0.762,-0.124
11.0,-0.356,0.437,-0.174
11.01,-0.14,1.547,0.134
11.02,-0.015,0.864,0.056
11.03,-0.237,0.952,-0.113
11.04,-0.3,0.26,-0.205
11.05,-0.172,1.378,0.142
11.06,-0.114,0.943,-0.015
11.07,-0.202,0.721,-0.167
11.08,-0.418,0.702,-0.177
11.09,-0.082,0.94,0.159
11.1,-0.214,1.42,-0.011
11.11,-0.094,0.247,-0.165
11.12,-0.405,1.005,-0.154
11.13,-0.054,0.962,0.179
11.14,-0.226,1.184,0.092
11.15,-0.232,0.591,-0.079
11.16,-0.458,0.601,-0.018
11.17,-0.208,1.276,0.189
11.18,-0.16,0.764,0.062
11.19,-0.39,0.984,-0.102
11.2,-0.359,0.413,-0.049
11.21,-0.19,1.276,0.148
11.22,-0.154,0.865,0.027
11.23,-0.245,0.683,-0.116
11.24,-0.386,1.034,-0.06
11.25,-0.052,0.865,0.169
11.26,-0.284,1.25,0.05
11.27,-0.198,0.316,-0.14
11.28,-0.327,1.415,-0.065
11.29,-0.026,0.756,0.16
11.3,-0.306,1.151,0.051
11.31,-0.271,0.538,-0.199
11.32,-0.232,1.146,-0.086
11.33,-0.06,1.147,0.109
11.34,-0.142,0.642,0.01
11.35,-0.363,1.048,-0.182
11.36,-0.196,1.022,-0.056
11.37,-0.104,1.17,0.149
11.38,-0.151,0.732,0.049
11.39,-0.434,0.834,-0.16
11.4,-0.203,1.432,-0.045
11.41,-0.091,0.827,0.142
11.42,-0.198,1.094,0.025
11.43,-0.315,0.405,-0.195
11.44,-0.332,1.824,0.067
11.45,0.027,0.75,0.133
11.46,-0.203,0.976,0.047
11.47,-0.321,0.623,-0.207
11.48,-0.32,1.598,0.026
11.49,-0.062,0.97,0.159
11.5,-0.009,0.584,0.015
11.51,-0.503,1.031,-0.169
11.52,-0.215,1.304,0.067
11.53,-0.147,1.159,0.171
11.54,0.027,0.526,0.063
11.55,-0.468,0.94,-0.189
11.56,-0.164,1.63,0.061
11.57,-0.069,0.962,0.166
11.58,-0.113,0.802,0.024
11.59,-0.409,0.433,-0.181
11.6,-0.241,2.0,0.101
11.61,-0.081,0.681,0.134
11.62,-0.144,0.912,0.023
11.63,-0.415,0.458,-0.218
11.64,-0.165,1.807,0.081
11.65,-0.118,0.742,0.146
11.66,-0.065,0.692,-0.003
11.67,-0.433,0.7,-0.209
11.68,-0.109,1.596,0.108
11.69,-0.113,1.225,0.151
11.7,0.035,0.323,-0.043
11.71,-0.485,1.028,-0.186
11.72,-0.074,1.536,0.138
11.73,-0.073,1.19,0.057
11.74,-0.038,0.536,-0.047
11.75,-0.389,0.696,-0.198
11.76,-0.16,1.769,0.083
11.77,-0.042,0.812,0.111
11.78,-0.089,0.908,-0.076
11.79,-0.381,0.25,-0.161
11.8,-0.168,1.961,0.139
11.81,-0.175,0.839,0.135
11.82,-0.055,0.802,-0.068
11.83,-0.496,0.583,-0.181
11.84,-0.048,1.521,0.145
11.85,-0.257,1.312,0.079
11.86,0.109,0.424,-0.094
11.87,-0.605,0.968,-0.172
11.88,-0.024,1.262,0.22
11.89,-0.33,1.271,0.177
11.9,-0.033,0.593,-0.034
11.91,-0.519,0.669,-0.119
11.92,-0.168,1.427,0.217
11.93,-0.236,0.872,0.124
11.94,-0.173,1.052,-0.081
11.95,-0.454,0.171,-0.121
11.96,-0.124,1.603,0.19
11.97,-0.202,0.928,0.12
11.98,-0.135,0.866,-0.091
11.99,-0.414,0.506,-0.243
12.0,-0.081,1.242,0.118
12.01,-0.29,1.209,0.06
12.02,-0.05,0.467,-0.085
12.03,-0.501,0.989,-0.096
12.04,-0.053,0.974,0.146
12.05,-0.273,1.357,0.009
12.06,-0.069,0.516,-0.092
12.07,-0.429,0.733,-0.144
12.08,-0.072,1.16,0.152
12.09,-0.157,0.919,-0.025
12.1,-0.216,0.908,-0.165
12.11,-0.35,0.329,-0.102
12.12,-0.247,1.327,0.2
12.13,-0.174,0.763,0.06
12.14,-0.288,0.845,-0.174
12.15,-0.38,0.608,-0.123
12.16,-0.086,1.072,0.17
12.17,-0.264,1.139,0.023
12.18,-0.163,0.401,-0.075
12.19,-0.437,1.269,-0.091
12.2,0.013,0.868,0.151
12.21,-0.308,1.217,0.123
12.22,-0.311,0.456,-0.136
12.23,-0.364,1.032,-0.021
12.24,-0.13,1.011,0.132
12.25,-0.191,0.845,0.067
12.26,-0.286,0.806,-0.139
12.27,-0.302,0.726,-0.078
12.28,-0.153,1.316,0.201
12.29,-0.232,0.685,0.05
12.3,-0.337,0.997,-0.134
12.31,-0.268,0.841,-0.072
12.32,-0.094,1.077,0.134
12.33,-0.156,1.054,0.006
12.34,-0.286,0.437,-0.162
12.35,-0.351,1.317,-0.052
12.36,-0.103,0.801,0.172
12.37,-0.246,1.255,0.073
12.38,-0.204,0.335,-0.162
12.39,-0.239,1.442,-0.098
12.4,0.016,0.965,0.136
12.41,-0.137,0.844,-0.013
12.42,-0.304,0.805,-0.164
12.43,-0.217,1.05,-0.076
12.44,-0.196,1.272,0.19
12.45,-0.054,0.573,0.036
12.46,-0.487,1.126,-0.183
12.47,-0.151,1.159,-0.002
12.48,-0.19,1.12,0.134
12.49,0.02,0.671,0.046
12.5,-0.495,0.896,-0.191
12.51,-0.209,1.547,0.03
12.52,-0.094,0.821,0.117
12.53,-0.143,0.987,0.051
12.54,-0.325,0.47,-0.213
12.55,-0.397,1.875,0.053
12.56,-0.017,0.641,0.129
12.57,-0.176,0.964,0.05
12.58,-0.386,0.548,-0.222
12.59,-0.222,1.588,0.029
12.6,-0.115,1.026,0.134
12.61,0.056,0.563,0.052
12.62,-0.491,1.073,-0.248
12.63,-0.19,1.271,0.037
12.64,-0.246,1.108,0.157
12.65,0.015,0.571,0.059
12.66,-0.493,0.948,-0.178
12.67,-0.197,1.666,0.053
12.68,-0.16,0.926,0.183
12.69,-0.062,0.815,0.028
12.7,-0.318,0.506,-0.154
12.71,-0.295,1.946,0.057
12.72,-0.051,0.642,0.217
12.73,-0.116,0.966,0.044
12.74,-0.403,0.49,-0.223
12.75,-0.227,1.716,0.091
12.76,-0.143,0.893,0.099
12.77,0.018,0.552,0.057
12.78,-0.46,1.033,-0.188
12.79,-0.172,1.336,0.079
12.8,-0.141,1.205,0.174
12.81,0.051,0.416,0.046
12.82,-0.46,0.945,-0.18
12.83,-0.124,1.749,0.104
12.84,-0.113,0.952,0.176
12.85,-0.074,0.763,0.016
12.86,-0.369,0.47,-0.178
12.87,-0.158,2.0,0.089
12.88,0.018,0.714,0.136
12.89,-0.097,0.867,-0.008
12.9,-0.331,0.448,-0.257
12.91,-0.057,1.925,0.052
12.92,-0.014,0.906,0.082
12.93,0.032,0.521,-0.001
12.94,-0.439,0.94,-0.257
12.95,-0.089,1.488,0.112
12.96,-0.154,1.2,0.092
12.97,0.07,0.377,0.054
12.98,-0.432,1.021,-0.2
12.99,-0.122,1.671,0.13
13.0,-0.189,0.982,0.164
13.01,-0.002,0.714,-0.005
13.02,-0.41,0.503,-0.137
13.03,-0.155,2.0,0.08
13.04,-0.12,0.585,0.13
13.05,-0.061,0.973,-0.002
13.06,-0.409,0.371,-0.208
13.07,-0.038,2.0,0.085
13.08,-0.136,0.941,0.063
13.09,-0.009,0.405,-0.05
13.1,-0.423,0.903,-0.217
13.11,-0.122,1.513,0.059
13.12,-0.137,1.196,0.097
13.13,0.036,0.392,-0.008
13.14,-0.564,0.999,-0.206
13.15,-0.012,1.554,0.168
13.16,-0.24,1.083,0.128
13.17,0.046,0.642,-0.074
13.18,-0.394,0.656,-0.228
13.19,-0.138,1.948,0.032
13.2,-0.098,0.754,0.124
13.21,-0.077,0.915,-0.009
13.22,-0.395,0.324,-0.233
13.23,-0.179,1.888,0.098
13.24,-0.065,0.893,0.072
13.25,-0.088,0.622,-0.063
13.26,-0.399,0.422,-0.136
13.27,-0.162,1.632,0.215
13.28,-0.199,1.162,0.127
13.29,-0.044,0.44,-0.069
13.3,-0.531,0.997,-0.198
13.31,-0.01,1.27,0.217
13.32,-0.275,1.363,0.097
13.33,-0.053,0.415,-0.038
13.34,-0.464,0.848,-0.211
13.35,-0.156,1.531,0.224
13.36,-0.212,1.013,0.143
13.37,-0.146,0.869,-0.061
13.38,-0.44,0.269,-0.158
13.39,-0.197,1.87,0.146
13.4,-0.157,0.84,0.103
13.41,-0.101,0.892,-0.059
13.42,-0.518,0.364,-0.187
13.43,-0.073,1.538,0.193
13.44,-0.237,1.083,0.102
13.45,-0.037,0.527,-0.067
13.46,-0.579,0.95,-0.176
13.47,-0.037,1.195,0.165
13.48,-0.281,1.325,0.086
13.49,-0.017,0.475,-0.057
13.5,-0.603,0.844,-0.161
13.51,-0.054,1.294,0.191
13.52,-0.224,1.041,0.117
13.53,-0.091,0.832,-0.068
13.54,-0.469,0.346,-0.217
13.55,-0.178,1.506,0.169
13.56,-0.191,0.761,0.14
13.57,-0.273,0.955,-0.065
13.58,-0.516,0.25,-0.17
13.59,-0.107,1.504,0.155
13.6,-0.266,1.074,0.097
13.61,0.001,0.603,-0.053
13.62,-0.552,0.901,-0.189
13.63,0.008,1.045,0.203
13.64,-0.279,1.349,0.049
13.65,-0.038,0.396,-0.038
13.66,-0.579,0.891,-0.162
13.67,-0.071,1.155,0.163
13.68,-0.217,1.107,0.056
13.69,-0.203,0.763,-0.11
13.7,-0.417,0.338,-0.126
13.71,-0.111,1.564,0.127
13.72,-0.085,0.837,0.118
13.73,-0.175,0.972,-0.084
13.74,-0.482,0.285,-0.17
13.75,-0.105,1.392,0.149
13.76,-0.2,0.941,0.064
13.77,-0.143,0.608,-0.135
13.78,-0.541,0.84,-0.133
13.79,-0.033,0.969,0.175
13.8,-0.242,1.415,-0.012
13.81,-0.003,0.327,-0.116
13.82,-0.538,0.954,-0.189
13.83,0.011,1.027,0.168
13.84,-0.208,1.155,0.078
13.85,-0.158,0.711,-0.162
13.86,-0.445,0.447,-0.114
13.87,-0.201,1.355,0.2
13.88,-0.081,0.856,0.011
13.89,-0.276,0.895,-0.118
13.9,-0.434,0.346,-0.133
13.91,-0.151,1.328,0.164
13.92,-0.218,0.925,0.03
13.93,-0.297,0.669,-0.132
13.94,-0.432,0.822,-0.117
13.95,-0.087,0.886,0.19
13.96,-0.211,1.28,0.021
13.97,-0.086,0.315,-0.182
13.98,-0.506,1.102,-0.131
13.99,0.025,0.916,0.145
14.0,-0.247,1.188,0.039
14.01,-0.223,0.575,-0.196
14.02,-0.395,0.681,-0.119
14.03,-0.057,1.216,0.14
14.04,-0.205,0.777,0.092
14.05,-0.389,0.883,-0.125
14.06,-0.358,0.53,-0.079
14.07,-0.201,1.24,0.202
14.08,-0.115,0.68,0.091
14.09,-0.374,0.979,-0.146
14.1,-0.283,1.094,-0.108
14.11,-0.122,1.03,0.176
14.12,-0.173,1.034,0.031
14.13,-0.334,0.522,-0.135
14.14,-0.325,1.609,-0.047
14.15,-0.06,0.723,0.156
14.16,-0.242,1.195,0.065
14.17,-0.23,0.433,-0.161
14.18,-0.347,1.641,-0.055
14.19,-0.004,0.934,0.211
14.2,-0.186,0.737,0.007
14.21,-0.4,0.91,-0.151
14.22,-0.26,1.167,-0.006
14.23,-0.209,1.152,0.181
14.24,-0.077,0.573,0.04
14.25,-0.52,1.053,-0.199
14.26,-0.238,1.167,-0.008
14.27,-0.192,0.979,0.119
14.28,-0.17,0.836,0.024
14.29,-0.295,0.651,-0.185
14.3,-0.35,1.824,0.056
14.31,-0.036,0.791,0.209
14.32,-0.204,0.975,0.088
14.33,-0.29,0.427,-0.159
14.34,-0.41,1.835,0.071
14.35,-0.027,0.838,0.187
14.36,-0.141,0.722,0.039
14.37,-0.484,0.833,-0.206
14.38,-0.251,1.393,0.095
14.39,-0.217,1.077,0.179
14.4,0.123,0.483,0.052
14.41,-0.513,1.12,-0.195
14.42,-0.133,1.361,0.072
14.43,-0.232,1.079,0.162
14.44,0.008,0.618,0.046
14.45,-0.468,0.681,-0.17
14.46,-0.16,1.869,0.111
14.47,-0.056,0.739,0.137
14.48,-0.09,0.943,0.023
14.49,-0.367,0.372,-0.215
14.5,-0.179,1.995,0.091
14.51,-0.161,0.696,0.132
14.52,-0.05,0.775,0.032
14.53,-0.42,0.694,-0.263
14.54,-0.037,1.595,0.104
14.55,-0.188,1.171,0.132
14.56,0.071,0.315,-0.019
14.57,-0.48,1.045,-0.156
14.58,-0.068,1.502,0.103
14.59,-0.113,1.169,0.153
14.6,-0.004,0.52,-0.016
14.61,-0.446,0.729,-0.185
14.62,-0.098,1.933,0.061
14.63,-0.126,0.766,0.142
14.64,-0.101,0.83,0.008
14.65,-0.394,0.388,-0.195
14.66,-0.13,2.0,0.046
14.67,-0.087,0.708,0.114
14.68,-0.053,0.747,-0.049
14.69,-0.383,0.583,-0.248
14.7,-0.04,1.665,0.069
14.71,-0.124,1.181,0.099
14.72,0.045,0.363,-0.055
14.73,-0.58,1.108,-0.223
14.74,0.051,1.572,0.066
14.75,-0.225,1.236,0.081
14.76,0.007,0.441,-0.025
14.77,-0.49,0.818,-0.172
14.78,-0.144,1.821,0.06
14.79,-0.178,0.84,0.092
14.8,-0.047,0.922,-0.039
14.81,-0.446,0.316,-0.206
14.82,-0.114,2.0,0.093
14.83,-0.15,0.836,0.117
14.84,-0.144,0.8,-0.047
14.85,-0.423,0.54,-0.225
14.86,-0.09,1.731,0.114
14.87,-0.213,1.013,0.114
14.88,-0.132,0.628,-0.062
14.89,-0.45,0.723,-0.184
14.9,-0.065,1.33,0.185
14.91,-0.281,1.365,0.133
14.92,-0.078,0.4,-0.06
14.93,-0.552,0.948,-0.171
14.94,-0.032,1.29,0.161
14.95,-0.253,1.182,0.088
14.96,-0.097,0.664,-0.029
14.97,-0.443,0.481,-0.159
14.98,-0.169,1.551,0.173
14.99,-0.149,0.766,0.103
15.0,-0.221,1.023,-0.079
15.01,-0.423,0.216,-0.169
15.02,-0.147,1.537,0.122
15.03,-0.122,0.986,0.074
15.04,-0.143,0.682,-0.098
15.05,-0.472,0.694,-0.148
15.06,-0.042,1.2,0.131
15.07,-0.27,1.259,0.063
15.08,0.043,0.404,-0.098
15.09,-0.57,0.979,-0.202
15.1,0.042,1.083,0.141
15.11,-0.258,1.178,0.029
15.12,-0.151,0.614,-0.091
15.13,-0.468,0.502,-0.131
15.14,-0.135,1.462,0.191
15.15,-0.113,0.897,0.099
15.16,-0.247,0.979,-0.068
15.17,-0.426,0.17,-0.167
15.18,-0.146,1.449,0.194
15.19,-0.1,0.923,0.038
15.2,-0.208,0.758,-0.123
15.21,-0.459,0.613,-0.195
15.22,-0.051,1.117,0.182
15.23,-0.305,1.317,0.123
15.24,-0.07,0.402,-0.101
15.25,-0.524,0.952,-0.162
15.26,0.008,1.003,0.196
15.27,-0.226,1.28,0.055
15.28,-0.122,0.548,-0.15
15.29,-0.483,0.656,-0.136
15.3,-0.139,1.306,0.151
15.31,-0.07,0.872,0.069
15.32,-0.259,0.927,-0.099
15.33,-0.457,0.294,-0.111
15.34,-0.186,1.369,0.166
15.35,-0.153,0.804,0.052
15.36,-0.244,0.85,-0.163
15.37,-0.392,0.597,-0.219
15.38,-0.063,1.079,0.15
15.39,-0.144,1.224,0.041
15.4,-0.197,0.305,-0.172
15.41,-0.389,1.04,-0.118
15.42,-0.104,0.911,0.156
15.43,-0.213,1.251,0.082
15.44,-0.148,0.476,-0.161
15.45,-0.439,0.805,-0.147
15.46,-0.044,1.196,0.101
15.47,-0.113,0.834,0.017
15.48,-0.257,0.889,-0.159
15.49,-0.387,0.344,-0.157
15.5,-0.148,1.361,0.168
15.51,-0.146,0.797,0.071
15.52,-0.356,0.75,-0.138
15.53,-0.383,0.629,-0.128
15.54,-0.076,1.119,0.166
15.55,-0.219,1.167,0.008
15.56,-0.183,0.322,-0.093
15.57,-0.436,1.137,-0.143
15.58,0.017,0.947,0.148
15.59,-0.222,1.255,0.015
15.6,-0.19,0.417,-0.177
15.61,-0.46,0.886,-0.041
15.62,-0.126,1.058,0.166
15.63,-0.112,0.908,-0.002
15.64,-0.256,0.769,-0.112
15.65,-0.29,0.606,-0.075
15.66,-0.187,1.323,0.192
15.67,-0.039,0.659,-0.047
15.68,-0.343,1.007,-0.199
15.69,-0.238,0.985,-0.039
15.7,-0.09,1.218,0.154
15.71,-0.115,0.759,0.068
15.72,-0.337,0.88,-0.168
15.73,-0.301,1.282,-0.087
15.74,-0.089,0.856,0.172
15.75,-0.177,1.226,0.049
15.76,-0.214,0.321,-0.165
15.77,-0.292,1.653,-0.09
15.78,0.063,0.83,0.111
15.79,-0.151,1.05,0.06
15.8,-0.264,0.652,-0.199
15.81,-0.288,1.3,-0.062
15.82,-0.055,1.118,0.114
15.83,-0.043,0.646,0.029
15.84,-0.357,1.005,-0.203
15.85,-0.246,0.95,-0.066
15.86,-0.157,1.221,0.147
15.87,-0.121,0.711,0.022
15.88,-0.257,0.854,-0.183
15.89,-0.275,1.429,-0.084
15.9,-0.004,0.856,0.148
15.91,-0.123,1.096,0.037
15.92,-0.257,0.496,-0.237
15.93,-0.304,1.663,-0.041
15.94,-0.047,0.704,0.098
15.95,-0.274,1.071,0.023
15.96,-0.229,0.58,-0.202
15.97,-0.281,1.47,-0.05
15.98,0.01,1.093,0.15
15.99,-0.071,0.549,0.027
16.0,-0.403,1.136,-0.158
16.01,-0.254,1.154,-0.021
16.02,-0.18,1.195,0.193
16.03,-0.047,0.618,0.038
16.04,-0.503,0.984,-0.179
16.05,-0.261,1.361,0.03
16.06,-0.096,0.916,0.126
16.07,-0.249,0.937,0.047
16.08,-0.198,0.529,-0.172
16.09,-0.4,1.854,0.01
16.1,0.073,0.755,0.18
16.11,-0.165,0.971,0.051
16.12,-0.343,0.572,-0.238
16.13,-0.291,1.586,0.018
16.14,-0.115,0.979,0.135
16.15,0.03,0.628,0.051
16.16,-0.493,1.025,-0.211
16.17,-0.185,1.199,0.014
16.18,-0.208,1.128,0.135
16.19,0.027,0.557,0.037
16.2,-0.448,1.022,-0.23
16.21,-0.151,1.525,0.012
16.22,-0.135,0.975,0.142
16.23,-0.003,0.846,0.063
16.24,-0.398,0.528,-0.196
16.25,-0.294,1.878,0.068
16.26,-0.059,0.697,0.125
16.27,-0.125,1.006,0.074
16.28,-0.359,0.49,-0.189
16.29,-0.333,1.7,0.115
16.3,-0.184,0.826,0.213
16.31,-0.039,0.648,0.048
16.32,-0.502,0.908,-0.206
16.33,-0.232,1.295,0.076
16.34,-0.133,1.292,0.205
16.35,-0.029,0.397,0.052
16.36,-0.509,1.064,-0.208
16.37,-0.212,1.5,0.081
16.38,-0.144,0.948,0.11
16.39,-0.059,0.772,0.052
16.4,-0.398,0.624,-0.22
16.41,-0.278,1.846,0.051
16.42,0.016,0.679,0.102
16.43,-0.156,0.987,0.045
16.44,-0.257,0.439,-0.229
16.45,-0.307,1.819,0.036
16.46,-0.083,0.818,0.136
16.47,-0.027,0.685,0.038
16.48,-0.355,0.56,-0.249
16.49,-0.103,1.738,0.115
16.5,-0.132,1.028,0.124
16.51,0.031,0.357,-0.006
16.52,-0.479,1.115,-0.203
16.53,-0.057,1.467,0.069
16.54,-0.138,1.208,0.178
16.55,0.054,0.396,0.021
16.56,-0.454,0.915,-0.149
16.57,-0.132,1.723,0.105
16.58,-0.071,0.809,0.107
16.59,-0.039,0.897,-0.022
16.6,-0.408,0.449,-0.245
16.61,-0.179,2.0,0.148
16.62,-0.147,0.644,0.152
16.63,-0.055,0.821,0.004
16.64,-0.31,0.542,-0.269
16.65,-0.142,1.68,0.065
16.66,-0.032,1.078,0.122
16.67,-0.022,0.403,-0.018
16.68,-0.436,0.979,-0.194
16.69,0.007,1.601,0.116
16.7,-0.253,1.142,0.151
16.71,0.049,0.42,0.066
16.72,-0.543,0.995,-0.212
16.73,-0.139,1.694,0.141
16.74,-0.21,0.812,0.168
16.75,-0.034,0.773,0.031
16.76,-0.295,0.431,-0.217
16.77,-0.238,1.935,0.002
16.78,0.09,0.763,0.053
16.79,-0.157,0.842,0.014
16.8,-0.341,0.411,-0.205
16.81,-0.126,1.93,0.127
16.82,-0.111,0.897,0.121
16.83,0.003,0.516,0.017
16.84,-0.5,0.987,-0.215
16.85,0.004,1.593,0.15
16.86,-0.26,1.231,0.193
16.87,0.077,0.316,0.047
16.88,-0.45,1.001,-0.234
16.89,0.029,1.732,0.013
16.9,-0.188,0.903,0.114
16.91,0.094,0.789,-0.038
16.92,-0.532,0.448,-0.201
16.93,-0.051,2.0,0.135
16.94,-0.169,0.76,0.078
16.95,-0.072,0.812,-0.03
16.96,-0.383,0.404,-0.255
16.97,-0.11,1.852,0.073
16.98,-0.144,0.906,0.158
16.99,-0.025,0.546,-0.018
17.0,-0.563,0.802,-0.215
17.01,-0.028,1.502,0.218
17.02,-0.354,1.303,0.104
17.03,0.122,0.369,-0.044
17.04,-0.513,1.064,-0.215
17.05,-0.044,1.57,0.13
17.06,-0.222,1.088,0.113
17.07,0.038,0.648,-0.022
17.08,-0.585,0.466,-0.11
17.09,-0.209,1.803,0.255
17.1,-0.179,0.748,0.135
17.11,-0.251,0.941,-0.027
17.12,-0.429,0.283,-0.131
17.13,-0.233,1.911,0.209
17.14,-0.153,0.96,0.112
17.15,-0.058,0.614,-0.048
17.16,-0.6,0.777,-0.157
17.17,-0.077,1.404,0.232
17.18,-0.36,1.37,0.183
17.19,-0.071,0.288,-0.008
17.2,-0.59,0.972,-0.143
17.21,-0.124,1.295,0.208
17.22,-0.303,1.147,0.135
17.23,-0.094,0.718,-0.058
17.24,-0.528,0.471,-0.171
17.25,-0.102,1.687,0.133
17.26,-0.081,0.893,0.092
17.27,-0.257,0.91,-0.037
17.28,-0.399,0.258,-0.2
17.29,-0.16,1.493,0.156
17.3,-0.062,0.816,0.067
17.31,-0.224,0.927,-0.117
17.32,-0.47,0.365,-0.186
17.33,-0.088,1.288,0.148
17.34,-0.202,1.139,0.012
17.35,-0.08,0.48,-0.126
17.36,-0.462,0.924,-0.21
17.37,0.04,0.939,0.12
17.38,-0.207,1.358,-0.003
17.39,-0.101,0.457,-0.119
17.4,-0.536,0.823,-0.114
17.41,-0.028,1.025,0.163
17.42,-0.136,1.063,0.044
17.43,-0.243,0.834,-0.169
17.44,-0.467,0.329,-0.114
17.45,-0.184,1.371,0.194
17.46,-0.052,0.8,0.022
17.47,-0.317,0.906,-0.154
17.48,-0.359,0.371,-0.181
17.49,-0.119,1.18,0.198
17.5,-0.127,1.099,-0.052
17.51,-0.196,0.532,-0.142
17.52,-0.424,0.927,-0.164
17.53,0.033,0.879,0.199
17.54,-0.242,1.322,0.035
17.55,-0.17,0.394,-0.124
17.56,-0.546,0.932,-0.083
17.57,-0.078,0.956,0.185
17.58,-0.23,1.092,0.046
17.59,-0.267,0.698,-0.088
17.6,-0.407,0.633,-0.09
17.61,-0.121,1.313,0.192
17.62,-0.146,0.705,0.063
17.63,-0.346,1.046,-0.112
17.64,-0.331,0.734,-0.107
17.65,-0.132,1.268,0.168
17.66,-0.17,0.879,0.093
17.67,-0.373,0.684,-0.152
17.68,-0.414,1.109,-0.022
17.69,-0.099,0.806,0.176
17.7,-0.298,1.298,0.063
17.71,-0.211,0.357,-0.141
17.72,-0.317,1.591,-0.095
17.73,0.025,0.838,0.142
17.74,-0.264,0.984,0.075
17.75,-0.247,0.741,-0.164
17.76,-0.36,1.143,-0.066
17.77,-0.091,1.195,0.189
17.78,-0.104,0.647,0.06
17.79,-0.41,1.11,-0.217
17.8,-0.202,1.005,-0.084
17.81,-0.115,1.197,0.181
17.82,-0.095,0.806,-0.007
17.83,-0.289,0.774,-0.219
17.84,-0.22,1.594,-0.148
17.85,0.07,0.894,0.157
17.86,-0.134,1.079,0.035
17.87,-0.274,0.47,-0.273
17.88,-0.264,1.809,-0.047
17.89,-0.046,0.793,0.154
17.9,-0.17,0.941,0.058
17.91,-0.37,0.721,-0.191
17.92,-0.225,1.417,-0.027
17.93,-0.144,1.099,0.158
17.94,0.039,0.561,0.088
17.95,-0.494,1.119,-0.188
17.96,-0.236,1.154,0.017
17.97,-0.314,1.071,0.141
17.98,-0.026,0.713,0.085
17.99,-0.382,0.868,-0.152
18.0,-0.332,1.575,0.069
18.01,-0.103,0.765,0.148
18.02,-0.121,0.966,0.058
18.03,-0.341,0.437,-0.18
18.04,-0.3,1.943,0.027
18.05,-0.097,0.663,0.071
18.06,-0.112,0.914,0.053
18.07,-0.363,0.651,-0.202
18.08,-0.309,1.534,0.082
18.09,-0.149,0.807,0.147
18.1,-0.059,0.622,0.016
18.11,-0.358,0.881,-0.211
18.12,-0.108,1.462,0.059
18.13,-0.184,1.235,0.21
18.14,-0.024,0.324,-0.006
18.15,-0.471,0.996,-0.172
18.16,-0.018,1.647,0.042
18.17,-0.125,1.051,0.123
18.18,0.029,0.611,-0.001
18.19,-0.455,0.68,-0.189
18.2,-0.081,2.0,0.041
18.21,-0.083,0.666,0.151
18.22,-0.074,0.919,-0.013
18.23,-0.296,0.317,-0.263
18.24,-0.108,2.0,0.016
18.25,0.076,0.843,0.054
18.26,-0.009,0.624,-0.077
18.27,-0.424,0.699,-0.276
18.28,0.057,1.66,0.037
18.29,-0.252,1.156,0.122
18.3,0.035,0.312,-0.009
18.31,-0.62,1.089,-0.199
18.32,-0.084,1.557,0.186
18.33,-0.278,1.158,0.158
18.34,-0.017,0.475,0.035
18.35,-0.508,0.698,-0.144
18.36,-0.167,1.886,0.14
18.37,-0.134,0.76,0.123
18.38,-0.16,0.885,-0.035
18.39,-0.332,0.286,-0.199
18.4,-0.142,2.0,0.152
18.41,-0.094,0.845,0.085
18.42,-0.061,0.685,-0.067
18.43,-0.399,0.668,-0.261
18.44,-0.009,1.622,0.086
18.45,-0.15,1.224,0.035
18.46,0.046,0.304,-0.079
18.47,-0.578,1.02,-0.204
18.48,0.01,1.399,0.15
18.49,-0.328,1.23,0.113
18.5,-0.041,0.527,-0.026
18.51,-0.505,0.713,-0.153
18.52,-0.121,1.624,0.191
18.53,-0.248,0.85,0.176
18.54,-0.146,0.928,-0.051
18.55,-0.511,0.222,-0.123
18.56,-0.113,1.815,0.182
18.57,-0.175,0.86,0.15
18.58,-0.103,0.806,-0.1
18.59,-0.417,0.445,-0.181
18.6,-0.02,1.543,0.126
18.61,-0.11,1.214,0.028
18.62,-0.007,0.415,-0.139
18.63,-0.524,0.967,-0.206
18.64,0.018,1.264,0.112
18.65,-0.332,1.325,0.115
18.66,-0.01,0.482,-0.036
18.67,-0.525,0.728,-0.18
18.68,-0.033,1.477,0.147
18.69,-0.198,0.906,0.1
18.7,-0.099,0.973,-0.125
18.71,-0.451,0.193,-0.132
18.72,-0.156,1.718,0.207
18.73,-0.214,0.866,0.176
18.74,-0.153,0.894,-0.044
18.75,-0.489,0.396,-0.149
18.76,-0.081,1.449,0.203
18.77,-0.264,1.2,0.061
18.78,-0.019,0.468,-0.079
18.79,-0.567,0.918,-0.16
18.8,0.048,1.12,0.129
18.81,-0.356,1.366,0.097
18.82,-0.066,0.448,-0.072
18.83,-0.498,0.758,-0.184
18.84,-0.028,1.281,0.186
18.85,-0.262,1.071,0.121
18.86,-0.136,0.889,-0.029
18.87,-0.501,0.266,-0.176
18.88,-0.171,1.596,0.203
18.89,-0.054,0.857,0.015
18.9,-0.24,0.902,-0.15
18.91,-0.391,0.329,-0.156
18.92,-0.105,1.345,0.151
18.93,-0.111,0.893,0.034
18.94,-0.284,0.677,-0.103
18.95,-0.374,0.726,-0.169
18.96,-0.047,0.988,0.176
18.97,-0.178,1.289,-0.007
18.98,-0.162,0.296,-0.144
18.99,-0.494,1.067,-0.116
19.0,0.028,0.891,0.149
19.01,-0.281,0.446,-0.143
19.02,-0.411,1.953,0.084
19.03,-0.058,0.688,0.204
19.04,-0.139,0.921,0.079
19.05,-0.412,0.577,-0.214
19.06,-0.279,1.583,0.107
19.07,-0.131,0.987,0.119
19.08,0.042,0.54,0.075
19.09,-0.393,1.101,-0.202
19.1,-0.27,1.292,0.058
19.11,-0.17,1.162,0.171
19.12,-0.013,0.466,0.074
19.13,-0.473,0.899,-0.16
19.14,-0.202,1.685,0.086
19.15,-0.07,0.884,0.194
19.16,-0.065,0.832,0.028
19.17,-0.443,0.403,-0.167
19.18,-0.223,2.0,0.116
19.19,-0.05,0.672,0.112
19.2,-0.145,0.851,0.04
19.21,-0.316,0.522,-0.265
19.22,-0.241,1.772,0.111
19.23,-0.068,0.958,0.188
19.24,-0.069,0.467,-0.02
19.25,-0.476,0.972,-0.212
19.26,-0.032,1.561,0.079
19.27,-0.164,1.278,0.13
19.28,0.071,0.359,-0.0
19.29,-0.447,0.988,-0.184
19.3,-0.031,1.792,0.081
19.31,-0.127,0.941,0.146
19.32,-0.002,0.775,-0.037
19.33,-0.38,0.436,-0.233
19.34,-0.165,2.0,0.039
19.35,-0.014,0.65,0.066
19.36,-0.112,0.908,-0.025
19.37,-0.353,0.383,-0.207
19.38,-0.07,1.908,0.055
19.39,-0.115,0.927,0.076
19.4,0.022,0.486,-0.027
19.41,-0.513,0.896,-0.257
19.42,0.05,1.582,0.089
19.43,-0.213,1.298,0.066
19.44,0.126,0.356,-0.016
19.45,-0.544,0.989,-0.254
19.46,0.002,1.556,0.119
19.47,-0.217,1.107,0.059
19.48,-0.018,0.706,-0.039
19.49,-0.461,0.413,-0.166
19.5,-0.186,1.906,0.171
19.51,-0.099,0.785,0.105
19.52,-0.191,0.899,-0.05
19.53,-0.392,0.292,-0.179
19.54,-0.174,1.922,0.142
19.55,-0.134,1.018,0.097
19.56,-0.123,0.551,-0.059
19.57,-0.481,0.83,-0.2
19.58,-0.024,1.463,0.158
19.59,-0.292,1.381,0.144
19.6,0.018,0.302,-0.078
19.61,-0.495,0.964,-0.186
19.62,-0.045,1.377,0.122
19.63,-0.244,1.143,0.107
19.64,-0.091,0.503,-0.074
19.65,-0.464,0.708,-0.141
19.66,-0.127,1.341,0.114
19.67,-0.132,0.942,0.099
19.68,-0.206,0.943,-0.082
19.69,-0.385,0.21,-0.145
19.7,-0.166,1.562,0.176
19.71,-0.169,0.854,0.153
19.72,-0.153,0.93,-0.086
19.73,-0.526,0.41,-0.171
19.74,-0.108,1.299,0.151
19.75,-0.346,1.183,0.11
19.76,-0.048,0.454,-0.082
19.77,-0.6,0.962,-0.195
19.78,0.054,0.962,0.152
19.79,-0.297,1.278,0.068
19.8,-0.096,0.46,-0.077
19.81,-0.54,0.748,-0.152
19.82,-0.043,1.184,0.153
19.83,-0.15,1.02,0.071
19.84,-0.219,0.867,-0.167
19.85,-0.448,0.292,-0.142
19.86,-0.148,1.469,0.174
19.87,-0.139,0.846,0.052
19.88,-0.209,0.915,-0.065
19.89,-0.441,0.413,-0.184
19.9,-0.079,1.24,0.133
19.91,-0.17,1.031,0.002
19.92,-0.084,0.544,-0.153
19.93,-0.494,0.936,-0.166
19.94,0.024,0.916,0.193
19.95,-0.248,1.34,0.066
19.96,-0.168,0.367,-0.128
19.97,-0.567,0.934,-0.097
19.98,-0.044,1.024,0.186
19.99,-0.149,1.076,0.058
20.0,-0.274,0.725,-0.161
20.01,-0.427,0.45,-0.093
20.02,-0.172,1.331,0.192
20.03,-0.169,0.674,0.071
20.04,-0.307,0.934,-0.161
20.05,-0.474,0.438,-0.122
20.06,-0.074,1.254,0.186
20.07,-0.237,0.989,-0.01
20.08,-0.207,0.514,-0.135
20.09,-0.499,0.98,-0.136
20.1,0.061,0.933,0.157
20.11,-0.277,1.275,0.069
20.12,-0.168,0.325,-0.121
20.13,-0.584,1.043,-0.052
20.14,0.019,0.982,0.122
20.15,-0.23,1.094,0.074
20.16,-0.252,0.677,-0.139
20.17,-0.468,0.57,-0.062
20.18,-0.11,1.267,0.179
20.19,-0.13,0.772,0.075
20.2,-0.361,0.914,-0.094
20.21,-0.437,0.485,-0.054
20.22,-0.147,1.232,0.223
20.23,-0.222,0.934,0.098
20.24,-0.284,0.596,-0.12
20.25,-0.461,1.076,-0.064
20.26,-0.003,0.917,0.213
20.27,-0.258,1.234,0.077
20.28,-0.185,0.3,-0.149
20.29,-0.445,1.224,-0.106
20.3,0.022,0.899,0.128
20.31,-0.219,1.095,0.075
20.32,-0.309,0.681,-0.095
20.33,-0.431,0.663,-0.009
20.34,-0.177,1.19,0.199
20.35,-0.062,0.769,0.076
20.36,-0.4,0.9,-0.1
20.37,-0.395,0.608,-0.074
20.38,-0.155,1.263,0.264
20.39,-0.121,0.789,0.068
20.4,-0.299,0.708,-0.154
20.41,-0.367,1.208,-0.132
20.42,-0.064,0.991,0.231
20.43,-0.27,1.158,0.052
20.44,-0.159,0.36,-0.161
20.45,-0.403,1.666,-0.083
20.46,0.001,0.776,0.192
20.47,-0.24,1.162,0.135
20.48,-0.339,0.54,-0.147
20.49,-0.402,1.318,-0.025
20.5,-0.071,0.878,0.134
20.51,-0.194,0.897,0.047
20.52,-0.333,0.81,-0.191
20.53,-0.393,0.906,-0.034
20.54,-0.152,1.265,0.22
20.55,-0.175,0.695,0.087
20.56,-0.346,0.94,-0.139
20.57,-0.266,1.136,-0.124
20.58,-0.095,1.13,0.175
20.59,-0.111,0.912,0.048
20.6,-0.35,0.59,-0.146
20.61,-0.299,1.575,-0.056
20.62,-0.114,0.728,0.138
20.63,-0.213,1.2,0.067
20.64,-0.237,0.418,-0.189
20.65,-0.355,1.525,-0.062
20.66,-0.056,0.849,0.146
20.67,-0.157,0.904,0.002
20.68,-0.314,0.812,-0.188
20.69,-0.248,1.175,-0.034
20.7,-0.156,1.225,0.19
20.71,-0.038,0.552,0.038
20.72,-0.437,1.05,-0.174
20.73,-0.182,1.17,-0.053
20.74,-0.149,1.113,0.105
20.75,-0.082,0.796,0.008
20.76,-0.319,0.686,-0.189
20.77,-0.266,1.679,-0.006
20.78,0.013,0.804,0.164
20.79,-0.223,1.062,0.039
20.8,-0.241,0.473,-0.181
20.81,-0.337,1.797,-0.037
20.82,0.008,0.802,0.127
20.83,-0.181,0.838,0.046
20.84,-0.396,0.775,-0.186
20.85,-0.25,1.334,-0.02
20.86,-0.147,1.15,0.153
20.87,-0.012,0.542,0.062
20.88,-0.46,1.164,-0.175
20.89,-0.216,1.198,0.037
20.9,-0.133,1.145,0.165
20.91,-0.065,0.69,0.042
20.92,-0.479,0.774,-0.226
20.93,-0.257,1.705,0.1
20.94,-0.162,0.765,0.16
20.95,-0.122,0.969,0.089
20.96,-0.286,0.446,-0.187
20.97,-0.177,1.96,0.055
20.98,-0.075,0.707,0.154
20.99,-0.096,0.917,-0.004
21.0,-0.369,0.469,-0.218
21.01,-0.15,1.868,0.029
21.02,-0.133,0.799,0.1
21.03,0.055,0.619,0.005
21.04,-0.516,0.886,-0.268
21.05,0.019,1.396,0.062
21.06,-0.249,1.157,0.146
21.07,0.112,0.434,0.065
21.08,-0.598,0.947,-0.185
21.09,-0.084,1.598,0.111
21.1,-0.176,0.963,0.106
21.11,0.067,0.7,0.012
21.12,-0.461,0.563,-0.219
21.13,-0.082,2.0,0.036
21.14,-0.093,0.684,0.111
21.15,-0.031,0.879,-0.028
21.16,-0.363,0.38,-0.224
21.17,-0.091,2.0,0.077
21.18,-0.167,0.814,0.117
21.19,0.028,0.542,-0.036
21.2,-0.498,0.872,-0.207
21.21,0.004,1.568,0.126
21.22,-0.15,1.163,0.113
21.23,0.087,0.328,-0.011
21.24,-0.499,1.075,-0.238
21.25,-0.023,1.365,0.096
21.26,-0.174,1.397,0.075
21.27,0.03,0.416,-0.06
21.28,-0.361,0.859,-0.27
21.29,-0.129,1.608,0.047
21.3,-0.033,0.961,0.058
21.31,-0.136,0.867,-0.117
21.32,-0.319,0.268,-0.217
21.33,-0.135,1.984,0.059
21.34,-0.045,0.802,0.141
21.35,-0.09,0.903,-0.074
21.36,-0.387,0.448,-0.202
21.37,-0.154,1.687,0.143
21.38,-0.156,1.192,0.056
21.39,-0.016,0.511,-0.045
21.4,-0.481,0.91,-0.217
21.41,-0.076,1.195,0.205
21.42,-0.24,1.318,0.086
21.43,0.016,0.481,-0.04
21.44,-0.47,0.83,-0.17
21.45,-0.073,1.341,0.208
21.46,-0.135,0.995,0.049
21.47,-0.173,0.885,-0.05
21.48,-0.431,0.29,-0.167
21.49,-0.24,1.671,0.196
21.5,-0.073,0.873,0.086
21.51,-0.193,0.887,-0.074
21.52,-0.388,0.313,-0.204
21.53,-0.124,1.41,0.179
21.54,-0.226,0.992,0.115
21.55,-0.12,0.584,-0.114
21.56,-0.522,0.833,-0.145
21.57,-0.024,1.127,0.22
21.58,-0.358,1.359,0.114
21.59,-0.122,0.384,-0.03
21.6,-0.584,0.936,-0.135
21.61,-0.044,1.233,0.177
21.62,-0.241,1.091,0.112
21.63,-0.128,0.809,-0.06
21.64,-0.483,0.343,-0.195
21.65,-0.165,1.517,0.206
21.66,-0.108,0.799,0.069
21.67,-0.314,0.981,-0.067
21.68,-0.417,0.268,-0.173
21.69,-0.244,1.412,0.29
21.7,-0.159,1.117,0.103
21.71,-0.161,0.602,-0.055
21.72,-0.499,0.785,-0.125
21.73,-0.011,1.08,0.188
21.74,-0.263,1.303,0.056
21.75,-0.077,0.425,-0.066
21.76,-0.581,0.954,-0.172
21.77,-0.042,1.077,0.19
21.78,-0.146,1.15,0.066
21.79,-0.206,0.743,-0.098
21.8,-0.499,0.47,-0.114
21.81,-0.143,1.412,0.164
21.82,-0.126,0.823,0.023
21.83,-0.139,0.964,-0.09
21.84,-0.532,0.281,-0.198
21.85,-0.056,1.334,0.196
21.86,-0.241,0.94,0.026
21.87,-0.191,0.632,-0.131
21.88,-0.463,0.781,-0.182
21.89,-0.004,0.957,0.194
21.9,-0.32,1.334,0.072
21.91,-0.073,0.337,-0.101
21.92,-0.537,1.017,-0.072
21.93,0.012,0.926,0.2
21.94,-0.232,1.187,0.006
21.95,-0.127,0.677,-0.133
21.96,-0.487,0.61,-0.088
21.97,-0.071,1.296,0.158
21.98,-0.111,0.767,-0.038
21.99,-0.269,0.985,-0.113
22.0,-0.451,0.353,-0.102
22.01,-0.124,1.297,0.216
22.02,-0.227,0.86,0.07
22.03,-0.215,0.748,-0.124
22.04,-0.521,0.844,-0.121
22.05,-0.058,1.072,0.142
22.06,-0.236,1.046,0.061
22.07,-0.149,0.454,-0.168
22.08,-0.368,1.553,-0.075
22.09,0.052,0.829,0.17
22.1,-0.312,1.164,0.093
22.11,-0.247,0.507,-0.107
22.12,-0.466,1.318,0.023
22.13,-0.09,0.924,0.188
22.14,-0.233,0.884,0.056
22.15,-0.285,0.832,-0.179
22.16,-0.247,0.99,-0.055
22.17,-0.129,1.283,0.204
22.18,-0.05,0.622,0.047
22.19,-0.474,0.985,-0.16
22.2,-0.168,1.08,-0.087
22.21,-0.208,1.089,0.151
22.22,-0.152,0.928,0.019
22.23,-0.301,0.557,-0.163
22.24,-0.267,1.539,-0.104
22.25,-0.02,0.786,0.191
22.26,-0.298,1.18,0.062
22.27,-0.253,0.49,-0.152
22.28,-0.375,1.568,-0.069
22.29,0.011,0.829,0.136
22.3,-0.114,0.91,0.017
22.31,-0.355,0.842,-0.201
22.32,-0.228,1.193,-0.025
22.33,-0.131,1.234,0.137
22.34,-0.054,0.534,0.069
22.35,-0.426,1.007,-0.196
22.36,-0.172,1.229,-0.04
22.37,-0.137,1.063,0.139
22.38,-0.087,0.793,0.038
22.39,-0.366,0.77,-0.224
22.4,-0.317,1.619,0.038
22.41,-0.127,0.735,0.179
22.42,-0.244,1.057,0.079
22.43,-0.275,0.359,-0.228
22.44,-0.406,1.895,0.078
22.45,0.021,0.831,0.204
22.46,-0.242,0.802,0.073
22.47,-0.339,0.754,-0.204
22.48,-0.354,1.45,0.055
22.49,-0.129,1.132,0.179
22.5,0.019,0.511,0.054
22.51,-0.549,1.039,-0.174
22.52,-0.194,1.348,0.076
22.53,-0.176,1.12,0.193
22.54,-0.086,0.589,0.081
22.55,-0.462,0.78,-0.177
22.56,-0.16,1.87,0.052
22.57,-0.064,0.74,0.132
22.58,-0.106,0.94,0.027
22.59,-0.29,0.365,-0.222
22.6,-0.222,2.0,0.082
22.61,-0.084,0.718,0.154
22.62,-0.136,0.805,0.015
22.63,-0.402,0.634,-0.197
22.64,-0.16,1.649,0.14
22.65,-0.147,1.137,0.145
22.66,0.064,0.359,-0.016
22.67,-0.53,1.026,-0.224
22.68,0.012,1.534,0.072
22.69,-0.21,1.147,0.116
22.7,0.042,0.473,-0.015
22.71,-0.506,0.843,-0.209
22.72,-0.041,1.846,0.095
22.73,-0.107,0.829,0.128
22.74,-0.074,0.784,-0.025
22.75,-0.332,0.393,-0.21
22.76,-0.145,2.0,0.032
22.77,-0.094,0.722,0.109
22.78,-0.102,0.865,-0.022
22.79,-0.397,0.498,-0.238
22.8,-0.025,1.86,0.078
22.81,-0.136,1.101,0.07
22.82,0.063,0.368,-0.033
22.83,-0.533,1.051,-0.193
22.84,-0.062,1.539,0.167
22.85,-0.254,1.268,0.167
22.86,-0.005,0.37,-0.069
22.87,-0.475,0.973,-0.209
22.88,-0.005,1.281,0.08
22.89,-0.274,1.175,0.128
22.9,-0.086,0.697,-0.085
22.91,-0.46,0.468,-0.161
22.92,-0.115,1.618,0.209
22.93,-0.143,0.837,0.085
22.94,-0.203,1.045,-0.072
22.95,-0.477,0.187,-0.152
22.96,-0.058,1.532,0.159
22.97,-0.201,0.933,0.04
22.98,-0.087,0.765,-0.113
22.99,-0.463,0.672,-0.231
23.0,0.053,1.131,0.138
23.01,-0.326,1.378,0.039
23.02,-0.001,0.35,-0.118
23.03,-0.628,0.989,-0.154
23.04,0.065,1.013,0.153
23.05,-0.306,1.335,0.066
23.06,-0.094,0.549,-0.112
23.07,-0.523,0.55,-0.112
23.08,-0.072,1.331,0.127
23.09,-0.12,0.832,0.065
23.1,-0.262,0.945,-0.133
23.11,-0.449,0.332,-0.097
23.12,-0.19,1.272,0.18
23.13,-0.257,0.817,0.048
23.14,-0.257,0.759,-0.082
23.15,-0.44,0.798,-0.058
23.16,-0.102,0.938,0.221
23.17,-0.289,1.235,0.115
23.18,-0.182,0.377,-0.126
23.19,-0.484,1.285,-0.026
23.2,0.034,0.895,0.179
23.21,-0.299,1.172,0.104
23.22,-0.236,0.544,-0.169
23.23,-0.448,0.859,-0.017
23.24,-0.104,1.163,0.113
23.25,-0.223,0.788,0.049
23.26,-0.307,0.936,-0.092
23.27,-0.398,0.801,-0.007
23.28,-0.043,1.292,0.185
23.29,-0.224,0.746,0.062
23.3,-0.275,0.882,-0.173
23.31,-0.315,1.268,-0.116
23.32,-0.004,0.98,0.154
23.33,-0.186,1.079,0.016
23.34,-0.275,0.488,-0.203
23.35,-0.409,1.522,-0.039
23.36,-0.018,0.687,0.146
23.37,-0.304,1.188,0.036
23.38,-0.244,0.489,-0.161
23.39,-0.287,1.489,-0.031
23.4,-0.048,1.021,0.156
23.41,-0.022,0.673,0.042
23.42,-0.455,1.034,-0.223
23.43,-0.172,1.118,0.0
23.44,-0.239,1.199,0.142
23.45,-0.079,0.588,0.042
23.46,-0.439,0.973,-0.179
23.47,-0.249,1.32,0.046
23.48,-0.103,0.876,0.122
23.49,-0.218,0.972,0.011
23.5,-0.304,0.522,-0.176
23.51,-0.326,1.89,0.034
23.52,0.019,0.749,0.147
23.53,-0.18,0.992,0.062
23.54,-0.338,0.496,-0.233
23.55,-0.336,1.663,0.052
23.56,-0.131,0.894,0.125
23.57,-0.095,0.636,0.009
23.58,-0.492,0.978,-0.206
23.59,-0.253,1.3,0.049
23.6,-0.151,1.142,0.165
23.61,0.015,0.496,0.085
23.62,-0.48,1.012,-0.197
23.63,-0.104,1.537,0.057
23.64,-0.166,1.013,0.17
23.65,-0.053,0.696,0.036
23.66,-0.417,0.806,-0.197
23.67,-0.082,1.895,0.068
23.68,-0.058,0.818,0.189
23.69,-0.068,0.827,-0.053
23.7,-0.402,0.387,-0.225
23.71,-0.142,2.0,0.024
23.72,-0.086,0.658,0.091
23.73,0.001,0.803,-0.075
23.74,-0.399,0.602,-0.263
23.75,-0.043,1.735,0.012
23.76,-0.102,1.104,0.06
23.77,0.068,0.325,-0.058
23.78,-0.482,1.083,-0.253
23.79,-0.036,1.447,0.092
23.8,-0.245,1.221,0.093
23.81,0.034,0.488,-0.003
23.82,-0.472,0.833,-0.202
23.83,-0.118,1.722,0.141
23.84,-0.181,0.906,0.122
23.85,-0.106,0.799,-0.015
23.86,-0.441,0.396,-0.145
23.87,-0.192,1.912,0.101
23.88,-0.098,0.728,0.125
23.89,-0.15,0.864,-0.049
23.9,-0.484,0.393,-0.166
23.91,-0.112,1.684,0.193
23.92,-0.293,1.149,0.141
23.93,-0.017,0.467,-0.045
23.94,-0.546,1.006,-0.214
23.95,-0.018,1.324,0.22
23.96,-0.327,1.395,0.158
23.97,-0.02,0.384,-0.028
23.98,-0.524,0.811,-0.194
23.99,-0.032,1.486,0.115
24.0,-0.134,0.941,0.012
24.01,-0.176,0.897,-0.094
24.02,-0.423,0.247,-0.192
24.03,-0.17,1.744,0.178
24.04,-0.055,0.913,0.091
24.05,-0.121,0.895,-0.104
24.06,-0.467,0.356,-0.177
24.07,-0.118,1.487,0.147
24.08,-0.183,1.171,0.021
24.09,-0.013,0.541,-0.073
24.1,-0.415,0.853,-0.181
24.11,-0.008,1.125,0.171
24.12,-0.246,1.337,0.069
24.13,-0.097,0.469,-0.104
24.14,-0.466,0.801,-0.196
24.15,-0.088,1.185,0.146
24.16,-0.132,1.12,0.065
24.17,-0.171,0.764,-0.119
24.18,-0.464,0.348,-0.145
24.19,-0.21,1.464,0.174
24.2,-0.066,0.729,0.044
24.21,-0.229,1.013,-0.133
24.22,-0.45,0.334,-0.176
24.23,-0.078,1.252,0.167
24.24,-0.245,0.993,0.05
24.25,-0.238,0.47,-0.135
24.26,-0.45,0.906,-0.138
24.27,-0.074,0.906,0.206
24.28,-0.231,1.347,0.037
24.29,-0.131,0.318,-0.153
24.3,-0.542,0.945,-0.133
24.31,0.012,1.054,0.133
24.32,-0.192,0.966,0.047
24.33,-0.232,0.744,-0.127
24.34,-0.434,0.499,-0.142
24.35,-0.186,1.302,0.174
24.36,-0.145,0.803,0.145
24.37,-0.366,0.829,-0.086
24.38,-0.419,0.615,-0.044
24.39,-0.065,1.252,0.133
24.4,-0.219,0.866,0.045
24.41,-0.23,0.7,-0.122
24.42,-0.502,0.965,-0.104
24.43,-0.052,0.887,0.193
24.44,-0.23,1.288,0.058
24.45,-0.194,0.254,-0.139
24.46,-0.319,1.435,-0.084
24.47,-0.066,0.781,0.127
24.48,-0.204,1.241,0.107
24.49,-0.235,0.366,-0.137
24.5,-0.297,1.365,-0.113
24.51,-0.002,1.093,0.133
24.52,-0.167,0.75,0.096
24.53,-0.418,0.988,-0.121
24.54,-0.318,0.765,-0.028
24.55,-0.254,1.231,0.168
24.56,-0.146,0.726,0.05
24.57,-0.353,0.852,-0.143
24.58,-0.198,1.144,-0.081
24.59,-0.063,1.047,0.177
24.6,-0.199,1.022,0.022
24.61,-0.275,0.535,-0.182
24.62,-0.285,1.632,-0.044
24.63,-0.12,0.746,0.221
24.64,-0.271,1.152,0.085
24.65,-0.312,0.451,-0.183
24.66,-0.305,1.383,-0.06
24.67,-0.1,0.954,0.158
24.68,-0.186,0.822,0.054
24.69,-0.323,0.879,-0.136
24.7,-0.29,1.123,-0.023
24.71,-0.067,1.281,0.198
24.72,-0.079,0.531,0.053
24.73,-0.377,1.061,-0.144
24.74,-0.277,1.209,-0.056
24.75,-0.073,1.085,0.111
24.76,-0.151,0.898,0.012
24.77,-0.289,0.683,-0.207
24.78,-0.325,1.611,-0.01
24.79,0.038,0.741,0.142
24.8,-0.3,1.152,0.054
24.81,-0.23,0.532,-0.196
24.82,-0.338,1.657,-0.086
24.83,0.01,0.906,0.103
24.84,-0.092,0.767,0.036
24.85,-0.324,0.942,-0.222
24.86,-0.271,1.201,-0.046
24.87,-0.121,1.277,0.168
24.88,-0.059,0.487,0.062
24.89,-0.449,1.062,-0.18
24.9,-0.285,1.271,-0.071
24.91,-0.035,1.077,0.111
24.92,-0.096,0.789,-0.0
24.93,-0.303,0.731,-0.201
24.94,-0.366,1.771,-0.006
24.95,0.041,0.743,0.142
24.96,-0.244,1.057,0.089
24.97,-0.258,0.43,-0.197
24.98,-0.482,1.781,0.036
24.99,0.018,0.889,0.141
25.0,-0.17,0.778,0.074
25.01,-0.388,0.864,-0.188
25.02,-0.34,1.355,0.005
25.03,-0.107,1.164,0.147
25.04,-0.037,0.504,0.109
25.05,-0.463,1.14,-0.166
25.06,-0.283,1.252,0.044
25.07,-0.149,1.072,0.13
25.08,-0.112,0.673,0.049
25.09,-0.346,0.708,-0.21
25.1,-0.287,1.697,-0.009
25.11,-0.035,0.682,0.11
25.12,-0.116,1.043,0.027
25.13,-0.288,0.427,-0.225
25.14,-0.302,1.802,-0.018
25.15,-0.051,0.73,0.12
25.16,-0.093,0.886,0.01
25.17,-0.349,0.773,-0.267
25.18,-0.218,1.431,-0.012
25.19,-0.15,1.158,0.127
25.2,0.064,0.487,0.052
25.21,-0.423,1.075,-0.202
25.22,-0.198,1.334,-0.006
25.23,-0.145,1.115,0.166
25.24,-0.013,0.639,0.039
25.25,-0.462,0.755,-0.206
25.26,-0.238,1.679,0.084
25.27,-0.146,0.935,0.11
25.28,0.063,0.763,0.01
25.29,-0.384,0.564,-0.283
25.3,-0.172,1.917,0.067
25.31,-0.022,0.675,0.139
25.32,-0.131,0.959,0.063
25.33,-0.394,0.405,-0.192
25.34,-0.208,1.844,0.142
25.35,-0.139,0.924,0.171
25.36,-0.003,0.523,0.019
25.37,-0.416,0.947,-0.237
25.38,-0.121,1.47,0.108
25.39,-0.201,1.241,0.175
25.4,0.062,0.302,0.017
25.41,-0.542,1.114,-0.161
25.42,-0.061,1.574,0.052
25.43,-0.136,0.865,0.112
25.44,0.075,0.798,0.016
25.45,-0.495,0.587,-0.187
25.46,-0.168,2.0,0.1
25.47,-0.144,0.636,0.157
25.48,-0.047,0.961,0.041
25.49,-0.388,0.394,-0.209
25.5,-0.095,1.917,0.093
25.51,-0.074,0.881,0.121
25.52,-0.018,0.571,-0.008
25.53,-0.324,0.889,-0.26
25.54,-0.061,1.566,0.049
25.55,-0.135,1.154,0.083
25.56,0.09,0.36,-0.001
25.57,-0.452,1.082,-0.26
25.58,-0.023,1.634,0.042
25.59,-0.066,1.079,0.075
25.6,0.012,0.575,-0.036
25.61,-0.334,0.603,-0.232
25.62,-0.113,2.0,0.084
25.63,0.025,0.681,0.083
25.64,-0.104,0.899,-0.012
25.65,-0.233,0.404,-0.216
25.66,-0.153,2.0,0.056
25.67,-0.053,0.782,0.085
25.68,-0.047,0.577,-0.021
25.69,-0.388,0.843,-0.228
25.7,-0.088,1.553,0.061
25.71,-0.176,1.199,0.094
25.72,0.078,0.335,-0.009
25.73,-0.457,1.07,-0.208
25.74,-0.033,1.508,0.13
25.75,-0.176,1.198,0.139
25.76,0.014,0.519,-0.026
25.77,-0.437,0.697,-0.236
25.78,-0.14,1.919,0.056
25.79,-0.05,0.783,0.088
25.8,-0.07,0.869,-0.083
25.81,-0.441,0.317,-0.25
25.82,-0.136,1.907,0.089
25.83,-0.194,0.827,0.069
25.84,-0.041,0.669,-0.056
25.85,-0.359,0.737,-0.24
25.86,-0.054,1.573,0.118
25.87,-0.132,1.289,0.084
25.88,0.041,0.311,-0.061
25.89,-0.482,1.085,-0.213
25.9,-0.09,1.434,0.168
25.91,-0.254,1.198,0.116
25.92,-0.002,0.536,-0.003
25.93,-0.527,0.697,-0.171
25.94,-0.15,1.699,0.149
25.95,-0.135,0.791,0.02
25.96,-0.114,0.904,-0.031
25.97,-0.418,0.31,-0.205
25.98,-0.187,1.857,0.173
25.99,-0.172,0.798,0.146
26.0,-0.139,0.791,-0.015
26.01,-0.511,0.651,-0.168
26.02,-0.108,1.562,0.16
26.03,-0.23,1.262,0.078
26.04,0.011,0.342,-0.07
26.05,-0.504,1.04,-0.203
26.06,0.033,1.281,0.14
26.07,-0.339,1.317,0.112
26.08,0.005,0.498,-0.061
26.09,-0.628,0.842,-0.138
26.1,-0.028,1.328,0.24
26.11,-0.25,1.135,0.092
26.12,-0.21,0.764,-0.06
26.13,-0.427,0.446,-0.165
26.14,-0.202,1.68,0.188
26.15,-0.053,0.937,0.157
26.16,-0.232,0.905,-0.029
26.17,-0.471,0.289,-0.131
26.18,-0.194,1.448,0.206
26.19,-0.268,0.986,0.115
26.2,-0.109,0.711,-0.079
26.21,-0.551,0.728,-0.152
26.22,-0.035,1.163,0.237
26.23,-0.335,1.432,0.107
26.24,-0.022,0.369,-0.051
26.25,-0.548,0.968,-0.163
26.26,-0.003,1.117,0.166
26.27,-0.229,1.199,0.084
26.28,-0.128,0.697,-0.121
26.29,-0.439,0.469,-0.159
26.3,-0.154,1.348,0.142
26.31,-0.121,0.81,0.067
26.32,-0.37,0.954,-0.148
26.33,-0.352,0.251,-0.137
26.34,-0.167,1.302,0.176
26.35,-0.135,1.006,-0.0
26.36,-0.179,0.643,-0.169
26.37,-0.442,0.828,-0.182
26.38,-0.032,0.919,0.197
26.39,-0.289,1.227,0.084
26.4,-0.165,0.299,-0.142
26.41,-0.516,1.11,-0.06
26.42,-0.066,0.943,0.177
26.43,-0.297,1.177,0.081
26.44,-0.29,0.603,-0.078
26.45,-0.428,0.711,-0.036
26.46,-0.163,1.2,0.275
26.47,-0.129,0.731,0.114
26.48,-0.374,0.976,-0.115
26.49,-0.385,0.562,-0.073
26.5,-0.162,1.284,0.2
26.51,-0.213,0.849,0.109
26.52,-0.3,0.739,-0.107
26.53,-0.4,1.078,-0.061
26.54,-0.009,0.922,0.184
26.55,-0.193,1.271,0.023
26.56,-0.177,0.339,-0.191
26.57,-0.288,1.647,-0.162
26.58,0.118,0.843,0.144
26.59,-0.121,1.081,-0.002
26.6,-0.263,0.567,-0.256
26.61,-0.197,1.288,-0.136
26.62,-0.046,1.119,0.129
26.63,-0.062,0.67,-0.013
26.64,-0.38,1.089,-0.153
26.65,-0.202,1.046,-0.084
26.66,-0.12,1.209,0.147
26.67,-0.071,0.682,0.031
26.68,-0.425,0.946,-0.153
26.69,-0.193,1.497,-0.072
26.7,-0.083,0.913,0.119
26.71,-0.15,0.999,-0.008
26.72,-0.235,0.501,-0.287
26.73,-0.34,1.773,-0.009
26.74,-0.036,0.662,0.136
26.75,-0.246,1.058,0.033
26.76,-0.282,0.585,-0.228
26.77,-0.239,1.58,0.011
26.78,-0.076,1.035,0.172
26.79,-0.034,0.527,0.048
26.8,-0.456,1.117,-0.189
26.81,-0.228,1.276,0.062
26.82,-0.178,1.179,0.178
26.83,-0.059,0.509,0.106
26.84,-0.441,1.01,-0.164
26.85,-0.222,1.558,0.054
26.86,-0.192,0.892,0.197
26.87,-0.088,0.858,0.051
26.88,-0.396,0.653,-0.19
26.89,-0.083,1.952,-0.004
26.9,0.004,0.726,0.137
26.91,-0.079,0.905,-0.0
26.92,-0.377,0.28,-0.248
26.93,-0.122,2.0,0.071
26.94,-0.065,0.752,0.141
26.95,-0.105,0.644,-0.025
26.96,-0.462,0.74,-0.239
26.97,-0.035,1.643,0.103
26.98,-0.147,1.121,0.151
26.99,0.059,0.29,-0.029
27.0,-0.413,1.127,-0.213
27.01,-0.087,1.414,0.087
27.02,-0.171,1.139,0.125
27.03,0.055,0.569,-0.029
27.04,-0.485,0.678,-0.132
27.05,-0.076,1.858,0.072
27.06,-0.041,0.852,0.111
27.07,-0.135,0.791,-0.02
27.08,-0.387,0.342,-0.189
27.09,-0.193,1.994,0.084
27.1,-0.018,0.802,0.095
27.11,-0.172,0.67,-0.004
27.12,-0.342,0.582,-0.24
27.13,-0.123,1.701,0.101
27.14,-0.095,1.158,0.043
27.15,0.002,0.382,-0.079
27.16,-0.434,1.011,-0.24
27.17,-0.031,1.399,0.183
27.18,-0.153,1.275,0.072
27.19,0.014,0.432,-0.049
27.2,-0.427,0.751,-0.195
27.21,-0.105,1.602,0.14
27.22,-0.146,0.865,0.122
27.23,-0.113,0.917,-0.083
27.24,-0.404,0.215,-0.159
27.25,-0.174,1.896,0.15
27.26,-0.144,0.785,0.099
27.27,-0.111,0.867,-0.095
27.28,-0.369,0.431,-0.227
27.29,-0.089,1.506,0.225
27.3,-0.205,1.201,0.127
27.31,-0.061,0.418,-0.09
27.32,-0.568,0.965,-0.185
27.33,-0.062,1.202,0.208
27.34,-0.279,1.307,0.106
27.35,-0.024,1.382,0.158
27.36,-0.28,1.315,0.154
27.37,0.065,0.44,0.02
27.38,-0.583,0.846,-0.186
27.39,-0.073,1.558,0.13
27.4,-0.2,0.963,0.1
27.41,-0.055,0.829,-0.073
27.42,-0.457,0.323,-0.196
27.43,-0.233,1.879,0.181
27.44,-0.067,0.782,0.141
27.45,-0.245,0.889,-0.025
27.46,-0.411,0.387,-0.176
27.47,-0.169,1.681,0.114
27.48,-0.224,1.092,0.102
27.49,-0.043,0.541,-0.084
27.5,-0.49,0.857,-0.191
27.51,0.041,1.299,0.182
27.52,-0.234,1.339,0.071
27.53,-0.011,0.422,-0.05
27.54,-0.531,0.898,-0.193
27.55,-0.059,1.438,0.219
27.56,-0.256,1.093,0.172
27.57,-0.115,0.751,-0.075
27.58,-0.438,0.61,-0.158
27.59,-0.089,1.448,0.179
27.6,-0.13,0.889,0.095
27.61,-0.176,0.912,-0.097
27.62,-0.38,0.228,-0.201
27.63,-0.2,1.51,0.187
27.64,-0.126,0.866,0.082
27.65,-0.263,0.809,-0.086
27.66,-0.41,0.497,-0.199
27.67,-0.092,1.226,0.175
27.68,-0.202,1.261,0.065
27.69,-0.084,0.406,-0.075
27.7,-0.553,0.932,-0.166
27.71,-0.026,1.019,0.179
27.72,-0.283,1.356,0.078
27.73,-0.1,0.506,-0.079
27.74,-0.483,0.714,-0.194
27.75,-0.101,1.283,0.221
27.76,-0.095,0.913,0.059
27.77,-0.183,0.906,-0.134
27.78,-0.37,0.254,-0.205
27.79,-0.202,1.5,0.166
27.8,-0.11,0.819,0.015
27.81,-0.271,0.844,-0.117
27.82,-0.412,0.461,-0.224
27.83,-0.091,1.195,0.166
27.84,-0.209,1.211,0.081
27.85,-0.119,0.401,-0.141
27.86,-0.599,0.969,-0.145
27.87,0.125,0.969,0.187
27.88,-0.239,1.288,0.017
27.89,-0.116,0.443,-0.119
27.9,-0.563,0.773,-0.141
27.91,-0.031,1.169,0.189
27.92,-0.121,0.95,0.055
27.93,-0.255,0.849,-0.179
27.94,-0.521,0.338,-0.111
27.95,-0.136,1.44,0.183
27.96,-0.136,0.862,0.072
27.97,-0.199,0.861,-0.164
27.98,-0.486,0.506,-0.16
27.99,0.003,1.193,0.148
28.0,-0.238,1.127,0.066
28.01,-0.138,0.466,-0.125
28.02,-0.577,1.005,-0.115
28.03,0.008,0.843,0.2
28.04,-0.278,1.41,0.072
28.05,-0.153,0.31,-0.123
28.06,-0.53,0.904,-0.1
28.07,0.012,1.087,0.175
28.08,-0.208,0.957,0.05
28.09,-0.247,0.876,-0.142
28.1,-0.477,0.442,-0.102
28.11,-0.092,1.335,0.194
28.12,-0.195,0.722,0.064
28.13,-0.283,0.927,-0.126
28.14,-0.467,0.536,-0.11
28.15,-0.057,1.143,0.204
28.16,-0.204,1.064,-0.003
28.17,-0.185,0.435,-0.144
28.18,-0.451,1.09,-0.147
28.19,0.078,0.879,0.189
28.2,-0.261,1.279,0.011
28.21,-0.226,0.332,-0.109
28.22,-0.479,1.016,-0.09
28.23,-0.07,0.989,0.174
28.24,-0.143,1.018,0.098
28.25,-0.35,0.688,-0.071
28.26,-0.382,0.619,-0.035
28.27,-0.165,1.341,0.207
28.28,-0.115,0.679,0.146
28.29,-0.367,0.939,-0.115
28.3,-0.351,0.804,-0.036
28.31,-0.159,1.213,0.195
28.32,-0.254,0.934,0.114
28.33,-0.213,0.537,-0.144
28.34,-0.414,1.207,-0.068
28.35,-0.061,0.832,0.188
28.36,-0.332,1.259,0.077
28.37,-0.193,0.378,-0.097
28.38,-0.448,1.277,-0.022
28.39,0.0,0.735,0.177
28.4,-0.178,1.139,0.045
28.41,-0.316,0.555,-0.205
28.42,-0.257,1.344,-0.007
28.43,-0.181,0.994,0.219
28.44,-0.118,0.68,0.074
28.45,-0.422,0.985,-0.155
28.46,-0.206,1.038,-0.03
28.47,-0.133,1.289,0.199
28.48,-0.062,0.541,0.053
28.49,-0.462,1.04,-0.155
28.5,-0.263,1.396,0.007
28.51,-0.112,0.921,0.134
28.52,-0.163,0.968,0.025
28.53,-0.359,0.532,-0.231
28.54,-0.404,1.742,0.033
28.55,-0.033,0.672,0.108
28.56,-0.277,1.091,0.045
28.57,-0.266,0.457,-0.169
28.58,-0.283,1.651,0.021
28.59,-0.082,0.974,0.222
28.6,-0.127,0.59,0.077
28.61,-0.381,0.991,-0.208
28.62,-0.306,1.312,0.072
28.63,-0.248,1.169,0.189
28.64,-0.104,0.463,0.06
28.65,-0.538,0.999,-0.16
28.66,-0.296,1.418,0.05
28.67,-0.115,0.889,0.141
28.68,-0.093,0.815,0.011
28.69,-0.342,0.542,-0.192
28.7,-0.323,1.947,0.123
28.71,0.028,0.707,0.203
28.72,-0.149,0.984,0.03
28.73,-0.324,0.401,-0.229
28.74,-0.187,1.894,0.083
28.75,-0.07,0.863,0.11
28.76,-0.082,0.562,-0.011
28.77,-0.424,0.923,-0.21
28.78,-0.121,1.504,0.107
28.79,-0.131,1.237,0.161
28.8,0.08,0.32,-0.003
28.81,-0.472,1.073,-0.142
28.82,-0.078,1.589,0.089
28.83,-0.138,1.046,0.138
28.84,-0.064,0.674,-0.03
28.85,-0.473,0.5,-0.176
28.86,-0.095,2.0,0.084
28.87,-0.094,0.716,0.068
28.88,-0.046,0.823,-0.024
28.89,-0.387,0.385,-0.219
28.9,-0.141,1.927,0.037
28.91,-0.076,0.837,0.066
28.92,-0.03,0.54,-0.027
28.93,-0.411,0.803,-0.234
28.94,-0.063,1.575,0.067
28.95,-0.191,1.232,0.103
28.96,-0.003,0.341,-0.024
28.97,-0.564,1.036,-0.187
28.98,-0.088,1.449,0.172
28.99,-0.179,1.167,0.1
29.0,-0.056,0.552,-0.024
29.01,-0.454,0.603,-0.129
29.02,-0.272,1.737,0.228
29.03,-0.189,0.711,0.179
29.04,-0.169,0.97,-0.034
29.05,-0.43,0.278,-0.129
29.06,-0.178,1.847,0.202
29.07,-0.127,0.885,0.098
29.08,-0.088,0.599,-0.07
29.09,-0.514,0.728,-0.215
29.1,-0.047,1.382,0.17
29.11,-0.328,1.266,0.133
29.12,-0.049,0.357,-0.064
29.13,-0.546,0.975,-0.173
29.14,-0.075,1.296,0.191
29.15,-0.328,1.242,0.124
29.16,-0.134,0.588,-0.091
29.17,-0.555,0.624,-0.18
29.18,-0.094,1.863,0.191
29.19,-0.114,1.099,0.054
29.2,-0.159,0.782,-0.109
29.21,-0.334,0.369,-0.209
29.22,-0.2,1.582,0.146
29.23,-0.066,0.804,0.108
29.24,-0.209,0.922,-0.113
29.25,-0.421,0.369,-0.173
29.26,-0.222,1.356,0.225
29.27,-0.124,1.081,0.062
29.28,-0.142,0.507,-0.119
29.29,-0.503,0.88,-0.188
29.3,0.011,1.011,0.162
29.31,-0.219,1.393,0.069
29.32,0.034,0.411,-0.155
29.33,-0.537,0.867,-0.211
29.34,0.027,1.182,0.135
29.35,-0.229,1.041,0.028
29.36,-0.15,0.775,-0.13
29.37,-0.45,0.344,-0.183
29.38,-0.134,1.469,0.134
29.39,-0.106,0.856,0.093
29.4,-0.22,0.925,-0.103
29.41,-0.453,0.297,-0.169
29.42,-0.1,1.329,0.187
29.43,-0.248,1.017,0.104
29.44,-0.126,0.601,-0.098
29.45,-0.525,0.824,-0.214
29.46,0.01,0.971,0.179
29.47,-0.288,1.337,0.078
29.48,-0.073,0.353,-0.145
29.49,-0.56,0.971,-0.176
29.5,-0.009,1.052,0.161
29.51,-0.219,1.121,0.049
29.52,-0.147,0.714,-0.144
29.53,-0.487,0.457,-0.147
29.54,-0.084,1.339,0.183
29.55,-0.123,0.742,0.037
29.56,-0.255,0.942,-0.169
29.57,-0.414,0.314,-0.206
29.58,-0.109,1.273,0.201
29.59,-0.209,0.906,0.032
29.6,-0.159,0.644,-0.17
29.61,-0.503,0.82,-0.149
29.62,0.09,0.96,0.162
29.63,-0.284,1.294,0.033
29.64,0.06,0.355,-0.152
29.65,-0.633,1.018,-0.179
29.66,0.167,1.026,0.136
29.67,-0.319,1.139,0.099
29.68,-0.135,0.594,-0.151
29.69,-0.539,0.576,-0.144
29.7,-0.077,1.312,0.194
29.71,-0.118,0.772,0.046
29.72,-0.342,0.942,-0.114
29.73,-0.394,0.358,-0.154
29.74,-0.145,1.315,0.19
29.75,-0.161,0.906,0.053
29.76,-0.267,0.633,-0.195
29.77,-0.385,0.813,-0.162
29.78,-0.047,0.944,0.21
29.79,-0.189,1.322,0.012
29.8,-0.221,0.269,-0.085
29.81,-0.547,1.144,-0.033
29.82,-0.041,0.937,0.179
29.83,-0.214,1.157,0.11
29.84,-0.333,0.571,-0.117
29.85,-0.432,0.69,-0.004
29.86,-0.201,1.187,0.205
29.87,-0.082,0.758,0.089
29.88,-0.372,0.88,-0.126
29.89,-0.387,0.544,-0.025
29.9,-0.144,1.311,0.257
29.91,-0.164,0.827,0.093
29.92,-0.34,0.678,-0.078
29.93,-0.412,0.952,-0.06
29.94,-0.096,1.01,0.215
29.95,-0.284,1.218,0.076
29.96,-0.091,0.323,-0.142
29.97,-0.401,1.414,-0.157
29.98,0.096,0.89,0.147
29.99,-0.263,1.188,0.137
30.0,-0.185,0.444,-0.22
30.01,-0.361,1.449,-0.089
30.02,-0.011,0.914,0.109
30.03,-0.184,0.906,0.01
30.04,-0.25,0.845,-0.232
30.05,-0.297,1.044,-0.112
30.06,0.01,1.297,0.073
30.07,-0.132,0.603,0.018
30.08,-0.346,1.111,-0.156
30.09,-0.285,1.21,-0.074
30.1,-0.073,1.162,0.197
30.11,-0.107,0.798,0.044
30.12,-0.406,0.691,-0.189
30.13,-0.293,1.582,-0.045
30.14,-0.17,0.719,0.086
30.15,-0.267,1.144,0.084
30.16,-0.271,0.431,-0.144
30.17,-0.373,1.711,-0.053
30.18,0.06,0.869,0.131
30.19,-0.098,0.811,0.026
30.2,-0.363,0.861,-0.232
30.21,-0.208,1.32,-0.091
30.22,-0.19,1.173,0.161
30.23,-0.027,0.53,0.077
30.24,-0.524,1.104,-0.21
30.25,-0.25,1.097,0.004
30.26,-0.183,1.097,0.138
30.27,-0.122,0.806,0.041
30.28,-0.377,0.774,-0.156
30.29,-0.318,1.62,0.005
30.3,-0.013,0.8,0.19
30.31,-0.158,1.106,0.111
30.32,-0.267,0.414,-0.215
30.33,-0.382,1.747,0.009
30.34,-0.025,0.759,0.123
30.35,-0.235,0.859,0.066
30.36,-0.277,0.758,-0.146
30.37,-0.322,1.379,-0.002
30.38,-0.098,1.191,0.197
30.39,-0.006,0.426,0.043
30.4,-0.489,1.15,-0.127
30.41,-0.23,1.263,0.009
30.42,-0.259,1.068,0.168
30.43,-0.054,0.695,0.059
30.44,-0.449,0.811,-0.182
30.45,-0.271,1.564,-0.015
30.46,-0.052,0.742,0.092
30.47,-0.129,0.987,0.038
30.48,-0.268,0.414,-0.224
30.49,-0.235,1.917,-0.0
30.5,-0.015,0.839,0.186
30.51,-0.095,0.813,0.047
30.52,-0.396,0.686,-0.255
30.53,-0.254,1.464,0.043
30.54,-0.211,1.043,0.1
30.55,0.048,0.539,0.022
30.56,-0.517,1.131,-0.234
30.57,-0.2,1.214,0.021
30.58,-0.208,1.062,0.128
30.59,0.013,0.679,0.068
30.6,-0.429,0.821,-0.198
30.61,-0.179,1.697,-0.02
30.62,-0.093,0.943,0.169
30.63,-0.186,0.887,0.147
30.64,-0.267,0.398,-0.155
30.65,-0.403,1.951,0.118
30.66,-0.09,0.665,0.169
30.67,-0.233,0.864,0.081
30.68,-0.301,0.586,-0.202
30.69,-0.255,1.593,0.034
30.7,-0.061,0.954,0.063
30.71,0.019,0.499,0.014
30.72,-0.299,1.05,-0.234
30.73,-0.18,1.308,0.067
30.74,-0.128,1.148,0.131
30.75,0.045,0.454,-0.007
30.76,-0.384,0.869,-0.24
30.77,-0.057,1.716,0.018
30.78,0.043,0.957,0.04
30.79,-0.056,0.758,-0.032
30.8,-0.385,0.584,-0.255
30.81,-0.094,2.0,0.048
30.82,-0.107,0.677,0.13
30.83,-0.086,0.913,-0.0
30.84,-0.49,0.329,-0.221
30.85,-0.125,1.981,0.116
30.86,-0.196,0.812,0.114
30.87,-0.035,0.565,-0.006
30.88,-0.467,0.775,-0.256
30.89,-0.024,1.485,0.084
30.9,-0.286,1.198,0.121
30.91,0.092,0.386,-0.031
30.92,-0.542,1.007,-0.218
30.93,-0.031,1.405,0.231
30.94,-0.298,1.177,0.083
30.95,-0.016,0.6,-0.036
30.96,-0.495,0.669,-0.185
30.97,-0.154,1.877,0.18
30.98,-0.125,0.811,0.115
30.99,-0.12,0.882,-0.063
31.0,-0.483,0.295,-0.157
31.01,-0.178,2.0,0.174
31.02,-0.186,0.8,0.107
31.03,-0.121,0.788,-0.028
31.04,-0.544,0.628,-0.183
31.05,-0.088,1.484,0.228
31.06,-0.292,1.36,0.115
31.07,-0.012,0.319,-0.039
31.08,-0.525,1.058,-0.198
31.09,-0.036,1.309,0.214
31.1,-0.304,1.211,0.192
31.11,-0.056,0.597,-0.027
31.12,-0.561,0.613,-0.133
31.13,-0.135,1.611,0.197
31.14,-0.095,0.907,0.109
31.15,-0.228,0.888,-0.048
31.16,-0.442,0.301,-0.164
31.17,-0.155,1.684,0.142
31.18,-0.187,0.859,0.097
31.19,-0.064,0.828,-0.12
31.2,-0.482,0.514,-0.214
31.21,-0.046,1.327,0.157
31.22,-0.181,1.224,0.105
31.23,-0.06,0.405,-0.089
31.24,-0.617,0.964,-0.162
31.25,0.037,1.136,0.147
31.26,-0.229,1.307,0.073
31.27,-0.091,0.515,-0.07
31.28,-0.493,0.697,-0.153
31.29,-0.056,1.318,0.183
31.3,-0.15,0.977,0.113
31.31,-0.191,0.936,-0.058
31.32,-0.466,0.235,-0.144
31.33,-0.192,1.492,0.178
31.34,-0.148,0.838,0.105
31.35,-0.237,0.86,-0.122
31.36,-0.449,0.45,-0.198
31.37,-0.097,1.205,0.208
31.38,-0.28,1.263,0.031
31.39,0.035,0.428,-0.151
31.4,-0.508,0.994,-0.197
31.41,0.068,0.932,0.159
31.42,-0.251,1.223,0.035
31.43,-0.103,0.528,-0.105
31.44,-0.498,0.744,-0.171
31.45,-0.035,1.202,0.098
31.46,-0.163,0.967,0.057
31.47,-0.22,0.83,-0.132
31.48,-0.43,0.333,-0.147
31.49,-0.145,1.389,0.179
31.5,-0.144,0.786,0.034
31.51,-0.176,0.904,-0.168
31.52,-0.382,0.499,-0.222
31.53,-0.033,1.157,0.129
31.54,-0.228,1.064,0.018
31.55,-0.108,0.466,-0.174
31.56,-0.591,1.0,-0.099
31.57,0.042,0.938,0.201
31.58,-0.272,1.349,0.062
31.59,-0.086,0.309,-0.16
31.6,-0.445,1.365,-0.077
31.61,0.097,0.889,0.146
31.62,-0.301,1.143,0.031
31.63,-0.204,0.664,-0.148
31.64,-0.424,0.921,-0.08
31.65,-0.034,1.234,0.129
31.66,-0.123,0.703,0.07
31.67,-0.334,1.012,-0.138
31.68,-0.386,0.658,-0.042
31.69,-0.074,1.252,0.15
31.7,-0.168,0.829,0.086
31.71,-0.241,0.75,-0.106
31.72,-0.319,1.292,-0.064
31.73,-0.044,0.941,0.199
31.74,-0.21,1.125,0.094
31.75,-0.214,0.385,-0.16
31.76,-0.32,1.535,-0.083
31.77,-0.009,0.844,0.17
31.78,-0.244,1.093,0.092
31.79,-0.218,0.561,-0.16
31.8,-0.264,1.292,-0.077
31.81,-0.105,1.14,0.225
31.82,-0.075,0.68,0.058
31.83,-0.36,1.02,-0.141
31.84,-0.272,0.92,-0.04
31.85,-0.2,1.25,0.15
31.86,-0.12,0.751,0.126
31.87,-0.473,0.831,-0.136
31.88,-0.273,1.154,-0.056
31.89,-0.094,0.951,0.138
31.9,-0.151,1.142,0.038
31.91,-0.216,0.356,-0.201
31.92,-0.203,1.699,-0.123
31.93,0.031,0.824,0.13
31.94,-0.21,1.08,0.016
31.95,-0.302,0.538,-0.202
31.96,-0.198,1.409,-0.1
31.97,-0.126,1.004,0.153
31.98,-0.099,0.647,0.027
31.99,-0.412,1.014,-0.176
32.0,-0.189,1.012,-0.083
32.01,-0.155,1.22,0.13
32.02,-0.02,0.627,0.012
32.03,-0.369,1.02,-0.212
32.04,-0.183,1.405,-0.053
32.05,-0.106,0.973,0.104
32.06,-0.068,0.914,0.051
32.07,-0.291,0.568,-0.223
32.08,-0.387,1.776,-0.004
32.09,-0.01,0.686,0.088
32.1,-0.203,1.061,0.079
32.11,-0.26,0.537,-0.202
32.12,-0.426,1.644,0.041
32.13,-0.109,0.956,0.19
32.14,-0.002,0.683,0.118
32.15,-0.462,1.002,-0.136
32.16,-0.317,1.301,0.119
32.17,-0.212,1.176,0.252
32.18,-0.04,0.486,0.116
32.19,-0.457,1.026,-0.128
32.2,-0.277,1.454,0.076
32.21,-0.113,0.991,0.177
32.22,-0.081,0.748,0.04
32.23,-0.401,0.572,-0.177
32.24,-0.289,1.873,0.087
32.25,-0.08,0.662,0.167
32.26,-0.135,0.954,0.051
32.27,-0.342,0.475,-0.192
32.28,-0.248,1.762,0.061
32.29,-0.123,0.867,0.12
32.3,-0.031,0.608,0.024
32.31,-0.437,0.93,-0.193
32.32,-0.084,1.4,0.053
32.33,-0.198,1.181,0.156
32.34,0.08,0.381,0.006
32.35,-0.426,1.071,-0.233
32.36,-0.06,1.483,0.042
32.37,-0.083,1.058,0.134
32.38,-0.006,0.648,-0.009
32.39,-0.396,0.586,-0.224
32.4,-0.146,1.901,0.025
32.41,-0.073,0.861,0.119
32.42,-0.053,0.785,-0.048
32.43,-0.352,0.35,-0.235
32.44,-0.11,2.0,0.058
32.45,-0.089,0.609,0.147
32.46,-0.007,0.816,-0.039
32.47,-0.405,0.579,-0.266
32.48,-0.016,1.764,0.016
32.49,-0.121,1.105,0.055
32.5,0.11,0.307,-0.068
32.51,-0.447,1.068,-0.227
32.52,0.022,1.52,0.006
32.53,-0.285,1.202,0.146
32.54,0.133,0.468,-0.007
32.55,-0.538,0.877,-0.197
32.56,0.016,1.853,0.067
32.57,-0.216,0.853,0.135
32.58,-0.008,0.791,0.011
32.59,-0.468,0.417,-0.176
32.6,-0.195,1.972,0.1
32.61,-0.113,0.774,0.164
32.62,-0.153,0.726,-0.023
32.63,-0.406,0.423,-0.202
32.64,-0.195,1.719,0.109
32.65,-0.269,0.958,0.124
32.66,0.028,0.548,-0.038
32.67,-0.575,0.969,-0.223
32.68,0.029,1.562,0.172
32.69,-0.192,1.365,0.12
32.7,0.05,0.284,-0.002
32.71,-0.516,0.939,-0.242
32.72,-0.014,1.576,0.087
32.73,-0.153,0.957,0.099
32.74,-0.074,0.763,-0.078
32.75,-0.41,0.381,-0.174
32.76,-0.118,2.0,0.106
32.77,-0.122,0.723,0.078
32.78,-0.102,0.923,-0.027
32.79,-0.432,0.46,-0.211
32.8,-0.072,1.908,0.102
32.81,-0.129,1.028,0.056
32.82,0.016,0.445,-0.057
32.83,-0.495,0.953,-0.225
32.84,-0.036,1.414,0.109
32.85,-0.265,1.301,0.121
32.86,0.042,0.417,-0.051
32.87,-0.518,0.949,-0.192
32.88,-0.088,1.594,0.166
32.89,-0.159,1.06,0.076
32.9,-0.046,0.76,-0.051
32.91,-0.441,0.448,-0.173
32.92,-0.189,1.834,0.153
32.93,-0.058,0.833,0.115
32.94,-0.164,0.816,-0.043
32.95,-0.406,0.321,-0.217
32.96,-0.163,1.723,0.111
32.97,-0.225,0.988,0.086
32.98,-0.061,0.645,-0.02
32.99,-0.589,0.808,-0.146
33.0,-0.071,1.375,0.269
33.01,-0.239,1.444,0.101
33.02,-0.001,0.331,-0.023
33.03,-0.56,0.995,-0.202
33.04,-0.054,1.271,0.245
33.05,-0.3,1.114,0.166
33.06,-0.134,0.725,-0.053
33.07,-0.449,0.432,-0.134
33.08,-0.182,1.661,0.206
33.09,-0.11,0.839,0.119
33.1,-0.275,0.95,-0.049
33.11,-0.435,0.285,-0.1
33.12,-0.138,1.622,0.178
33.13,-0.244,1.028,0.155
33.14,-0.052,0.625,-0.059
33.15,-0.548,0.784,-0.141
33.16,-0.056,1.15,0.265
33.17,-0.272,1.228,0.11
33.18,-0.035,0.357,-0.085
33.19,-0.552,0.984,-0.188
33.2,0.041,1.083,0.143
33.21,-0.265,1.318,-0.0
33.22,-0.046,0.459,-0.145
33.23,-0.467,0.792,-0.185
33.24,0.022,1.146,0.163
33.25,-0.135,0.987,0.068
33.26,-0.208,0.899,-0.187
33.27,-0.502,0.297,-0.11
33.28,-0.099,1.421,0.239
33.29,-0.131,0.755,0.087
33.3,-0.286,0.877,-0.131
33.31,-0.431,0.467,-0.141
33.32,-0.139,1.109,0.194
33.33,-0.207,1.125,-0.004
33.34,-0.136,0.377,-0.134
33.35,-0.465,1.036,-0.138
33.36,-0.021,0.873,0.219
33.37,-0.326,1.28,0.054
33.38,-0.17,0.435,-0.13
33.39,-0.549,0.951,-0.082
33.4,-0.002,1.053,0.149
33.41,-0.185,0.982,0.036
33.42,-0.292,0.784,-0.112
33.43,-0.321,0.577,-0.076
33.44,-0.206,1.342,0.226
33.45,-0.081,0.679,0.084
33.46,-0.377,0.91,-0.094
33.47,-0.269,0.845,-0.113
33.48,-0.143,1.142,0.208
33.49,-0.117,0.984,0.068
33.5,-0.329,0.52,-0.182
33.51,-0.261,1.325,-0.072
33.52,-0.047,0.805,0.121
33.53,-0.223,1.245,0.068
33.54,-0.242,0.398,-0.185
33.55,-0.375,1.324,-0.069
33.56,-0.002,0.913,0.115
33.57,-0.206,0.948,0.065
33.58,-0.389,0.736,-0.143
33.59,-0.27,0.995,-0.034
33.6,-0.196,1.265,0.183
33.61,-0.165,0.59,0.104
33.62,-0.363,1.014,-0.126
33.63,-0.266,1.12,-0.096
33.64,-0.073,1.16,0.176
33.65,-0.175,0.837,0.021
33.66,-0.378,0.669,-0.162
33.67,-0.232,1.609,-0.078
33.68,-0.055,0.786,0.181
33.69,-0.255,1.161,0.079
33.7,-0.283,0.414,-0.177
33.71,-0.306,1.62,-0.072
33.72,-0.026,0.84,0.141
33.73,-0.124,0.934,0.048
33.74,-0.356,0.735,-0.197
33.75,-0.229,1.231,-0.028
33.76,-0.153,1.164,0.164
33.77,0.021,0.533,0.038
33.78,-0.499,1.077,-0.181
33.79,-0.188,1.15,0.035
33.8,-0.17,1.101,0.127
33.81,-0.102,0.718,0.003
33.82,-0.428,0.752,-0.162
33.83,-0.267,1.661,0.003
33.84,-0.1,0.741,0.172
33.85,-0.225,0.996,0.067
33.86,-0.399,0.425,-0.16
33.87,-0.352,1.84,0.057
33.88,-0.098,0.74,0.225
33.89,-0.135,0.806,0.06
33.9,-0.443,0.72,-0.213
33.91,-0.21,1.404,0.019
33.92,-0.183,1.153,0.135
33.93,0.033,0.416,0.058
33.94,-0.478,1.087,-0.213
33.95,-0.123,1.31,0.059
33.96,-0.228,1.105,0.108
33.97,0.018,0.564,0.046
33.98,-0.487,0.845,-0.237
33.99,-0.221,1.672,0.063
34.0,-0.091,0.701,0.086
34.01,-0.083,0.987,0.023
34.02,-0.46,0.594,-0.208
34.03,-0.182,2.0,0.104
34.04,-0.109,0.719,0.169
34.05,-0.106,0.867,0.007
34.06,-0.391,0.385,-0.193
34.07,-0.135,1.886,0.076
34.08,-0.037,0.855,0.088
34.09,-0.024,0.606,-0.057
34.1,-0.457,0.879,-0.23
34.11,-0.047,1.59,0.158
34.12,-0.192,1.331,0.112
34.13,0.056,0.296,-0.01
34.14,-0.458,1.094,-0.243
34.15,-0.059,1.597,0.097
34.16,-0.112,1.148,0.03
34.17,0.026,0.676,-0.065
34.18,-0.375,0.528,-0.163
34.19,-0.261,1.83,0.119
34.2,-0.06,0.743,0.108
34.21,-0.196,1.028,-0.053
34.22,-0.372,0.289,-0.155
34.23,-0.19,1.885,0.148
34.24,-0.158,0.974,0.096
34.25,-0.08,0.635,-0.061
34.26,-0.422,0.747,-0.203
34.27,-0.087,1.232,0.178
34.28,-0.249,1.297,0.089
34.29,-0.025,0.424,-0.099
34.3,-0.497,0.952,-0.115
34.31,-0.06,1.217,0.117
34.32,-0.307,1.151,0.057
34.33,-0.032,0.77,-0.096
34.34,-0.513,0.518,-0.132
34.35,-0.073,1.491,0.204
34.36,-0.152,0.862,0.07
34.37,-0.168,0.983,-0.093
34.38,-0.5,0.252,-0.098
34.39,-0.134,1.385,0.142
34.4,-0.2,0.867,0.029
34.41,-0.224,0.723,-0.148
34.42,-0.411,0.689,-0.132
34.43,-0.093,1.012,0.254
34.44,-0.265,1.339,-0.007
34.45,-0.124,0.281,-0.111
34.46,-0.416,1.044,-0.114
34.47,-0.029,0.896,0.188
34.48,-0.235,1.261,-0.032
34.49,-0.161,0.492,-0.166
34.5,-0.371,0.833,-0.064
34.51,-0.04,1.159,0.144
34.52,-0.153,0.771,0.001
34.53,-0.287,0.964,-0.151
34.54,-0.327,0.717,-0.056
34.55,-0.073,1.28,0.174
34.56,-0.177,0.787,0.046
34.57,-0.345,0.82,-0.218
34.58,-0.21,1.196,-0.056
34.59,-0.103,0.914,0.206
34.6,-0.177,1.119,0.005
34.61,-0.259,0.405,-0.203
34.62,-0.281,1.79,0.01
34.63,-0.029,0.754,0.127
34.64,-0.222,1.003,0.096
34.65,-0.313,0.604,-0.208
34.66,-0.29,1.465,0.052
34.67,-0.1,1.006,0.12
34.68,-0.104,0.604,0.041
34.69,-0.463,0.921,-0.245
34.7,-0.161,1.198,0.073
34.71,-0.178,1.17,0.166
34.72,-0.065,0.571,0.081
34.73,-0.54,0.924,-0.205
34.74,-0.159,1.652,0.076
34.75,-0.133,0.892,0.156
34.76,0.019,0.822,0.009
34.77,-0.408,0.449,-0.2
34.78,-0.12,1.983,0.09
34.79,0.063,0.751,0.103
34.8,-0.154,0.849,0.009
34.81,-0.329,0.441,-0.237
34.82,-0.15,2.0,0.103
34.83,-0.043,0.795,0.085
34.84,-0.111,0.66,0.001
34.85,-0.461,0.684,-0.237
34.86,-0.07,1.553,0.14
34.87,-0.188,1.268,0.091
34.88,0.053,0.399,-0.055
34.89,-0.46,1.029,-0.203
34.9,-0.01,1.29,0.15
34.91,-0.213,1.261,0.124
34.92,-0.098,0.581,-0.102
34.93,-0.516,0.647,-0.144
34.94,-0.083,1.749,0.133
34.95,-0.082,0.843,0.003
34.96,-0.104,0.986,-0.093
34.97,-0.376,0.277,-0.186
34.98,-0.204,1.646,0.146
34.99,-0.095,0.951,0.075
35.0,-0.172,0.827,-0.117
35.01,-0.397,0.533,-0.165
35.02,-0.126,1.255,0.165
35.03,-0.221,1.205,0.046
35.04,-0.098,0.428,-0.123
35.05,-0.476,0.988,-0.146
35.06,-0.055,0.941,0.153
35.07,-0.226,1.384,0.02
35.08,-0.101,0.392,-0.115
35.09,-0.397,0.75,-0.139
35.1,-0.011,1.2,0.154
35.11,-0.088,0.882,-0.003
35.12,-0.331,0.904,-0.16
35.13,-0.322,0.365,-0.046
35.14,-0.149,1.352,0.22
35.15,-0.172,0.752,0.06
35.16,-0.258,0.832,-0.126
35.17,-0.392,0.831,-0.098
35.18,-0.049,1.047,0.156
35.19,-0.345,1.137,0.077
35.2,-0.17,0.43,-0.114
35.21,-0.398,1.44,-0.035
35.22,0.028,0.782,0.209
35.23,-0.336,1.203,0.062
35.24,-0.263,0.47,-0.151
35.25,-0.316,1.326,-0.033
35.26,-0.112,0.993,0.196
35.27,-0.225,0.764,0.007
35.28,-0.38,0.939,-0.178
35.29,-0.221,1.088,-0.0
35.3,-0.169,1.24,0.18
35.31,0.009,0.642,0.079
35.32,-0.51,1.008,-0.215
35.33,-0.121,1.342,0.043
35.34,-0.149,1.007,0.127
35.35,-0.108,0.848,0.051
35.36,-0.381,0.553,-0.237
35.37,-0.256,1.868,0.066
35.38,-0.081,0.721,0.158
35.39,-0.202,0.936,0.06
35.4,-0.336,0.444,-0.205
35.41,-0.235,1.848,0.07
35.42,-0.12,0.882,0.184
35.43,-0.027,0.599,0.03
35.44,-0.486,0.876,-0.182
35.45,-0.098,1.439,0.135
35.46,-0.203,1.201,0.123
35.47,0.035,0.356,0.005
35.48,-0.623,1.07,-0.167
35.49,-0.103,1.576,0.123
35.5,-0.086,1.01,0.118
35.51,-0.019,0.65,-0.026
35.52,-0.425,0.573,-0.187
35.53,-0.184,1.942,0.051
35.54,-0.048,0.75,0.146
35.55,-0.175,0.911,0.0
35.56,-0.341,0.359,-0.162
35.57,-0.227,1.906,0.106
35.58,-0.087,0.897,0.074
35.59,-0.048,0.623,-0.065
35.6,-0.46,0.778,-0.223
35.61,-0.031,1.398,0.191
35.62,-0.24,1.294,0.088
35.63,-0.054,0.521,-0.094
35.64,-0.474,0.91,-0.149
35.65,0.02,1.097,0.15
35.66,-0.32,1.363,0.037
35.67,-0.049,0.547,-0.037
35.68,-0.501,0.77,-0.14
35.69,-0.13,1.135,0.179
35.7,-0.035,0.598,0.007
35.71,-0.508,0.956,-0.192
35.72,-0.136,1.321,0.075
35.73,-0.244,1.175,0.197
35.74,0.07,0.446,0.039
35.75,-0.657,0.974,-0.16
35.76,-0.051,1.608,0.109
35.77,-0.169,0.964,0.157
35.78,0.056,0.746,0.009
35.79,-0.443,0.508,-0.18
35.8,-0.132,2.0,0.104
35.81,-0.02,0.751,0.154
35.82,-0.198,0.884,0.019
35.83,-0.426,0.345,-0.178
35.84,-0.134,2.0,0.14
35.85,-0.048,0.871,0.111
35.86,-0.008,0.547,-0.046
35.87,-0.536,0.849,-0.215
35.88,-0.042,1.521,0.123
35.89,-0.235,1.316,0.082
35.9,0.113,0.359,-0.027
35.91,-0.573,0.995,-0.179
35.92,-0.041,1.369,0.134
35.93,-0.197,1.142,0.071
35.94,-0.04,0.754,-0.104
35.95,-0.402,0.474,-0.175
35.96,-0.198,1.775,0.154
35.97,-0.062,0.814,0.113
35.98,-0.179,1.031,-0.053
35.99,-0.451,0.271,-0.147
36.0,-0.241,1.514,0.193
36.01,-0.205,0.977,0.061
36.02,-0.057,0.703,-0.108
36.03,-0.478,0.737,-0.197
36.04,0.01,1.143,0.13
36.05,-0.279,1.299,0.011
36.06,-0.059,0.394,-0.085
36.07,-0.55,0.934,-0.123
36.08,0.013,1.065,0.163
36.09,-0.259,1.193,0.071
36.1,-0.188,0.607,-0.121
36.11,-0.386,0.571,-0.118
36.12,-0.15,1.301,0.14
36.13,-0.113,0.741,-0.053
36.14,-0.279,0.999,-0.132
36.15,-0.326,0.497,-0.08
36.16,-0.103,1.246,0.188
36.17,-0.192,0.825,0.019
36.18,-0.285,0.707,-0.198
36.19,-0.305,1.058,-0.089
36.2,-0.041,0.921,0.141
36.21,-0.302,1.156,0.025
36.22,-0.199,0.374,-0.162
36.23,-0.447,1.373,-0.008
36.24,-0.029,0.788,0.176
36.25,-0.329,1.124,0.053
36.26,-0.245,0.583,-0.149
36.27,-0.278,1.347,-0.041
36.28,-0.05,1.118,0.18
36.29,-0.122,0.611,0.032
36.3,-0.489,1.0,-0.165
36.31,-0.136,1.131,0.001
36.32,-0.195,1.227,0.134
36.33,-0.077,0.588,-0.011
36.34,-0.469,0.888,-0.201
36.35,-0.17,1.429,0.041
36.36,-0.156,1.038,0.178
36.37,0.006,0.692,0.015
36.38,-0.517,0.554,-0.198
36.39,-0.124,1.991,0.073
36.4,-0.119,0.688,0.143
36.41,-0.056,0.964,0.0
36.42,-0.434,0.318,-0.24
36.43,-0.111,2.0,0.109
36.44,-0.06,0.87,0.14
36.45,-0.052,0.596,-0.052
36.46,-0.492,0.796,-0.185
36.47,-0.117,1.549,0.156
36.48,-0.218,1.137,0.185
36.49,0.073,0.413,0.003
36.5,-0.563,1.08,-0.192
36.51,-0.035,1.453,0.18
36.52,-0.215,1.209,0.087
36.53,-0.013,0.579,-0.028
36.54,-0.383,0.644,-0.156
36.55,-0.202,1.769,0.107
36.56,-0.048,0.791,0.094
36.57,-0.166,0.992,-0.057
36.58,-0.28,0.19,-0.142
36.59,-0.232,1.769,0.139
36.6,-0.123,0.962,0.091
36.61,-0.143,0.779,-0.07
36.62,-0.458,0.63,-0.198
36.63,-0.078,1.366,0.174
36.64,-0.238,1.377,0.079
36.65,-0.041,0.398,-0.075
36.66,-0.58,0.955,-0.143
36.67,-0.057,1.097,0.165
36.68,-0.318,1.238,0.083
36.69,-0.105,0.609,-0.054
36.7,-0.516,0.597,-0.1
36.71,-0.142,1.319,0.218
36.72,-0.19,0.905,0.055
36.73,-0.276,0.918,-0.097
36.74,-0.37,0.264,-0.11
36.75,-0.127,1.371,0.162
36.76,-0.274,0.82,0.034
36.77,-0.195,0.784,-0.115
36.78,-0.412,0.775,-0.124
36.79,-0.019,1.044,0.183
36.8,-0.297,1.135,-0.007
36.81,-0.245,0.428,-0.14
36.82,-0.44,1.215,0.001
36.83,-0.072,0.801,0.174
36.84,-0.317,1.179,0.038
36.85,-0.195,0.472,-0.164
36.86,-0.251,1.259,-0.059
36.87,-0.026,1.093,0.151
36.88,-0.142,0.681,0.022
36.89,-0.351,0.972,-0.193
36.9,-0.11,1.033,-0.072
36.91,-0.207,1.318,0.164
36.92,-0.061,0.599,0.011
36.93,-0.463,0.947,-0.199
36.94,-0.188,1.299,-0.051
36.95,-0.078,0.999,0.104
36.96,-0.117,1.001,-0.03
36.97,-0.406,0.528,-0.199
36.98,-0.249,1.834,0.026
36.99,-0.109,0.728,0.216
37.0,-0.125,1.019,0.078
37.01,-0.425,0.506,-0.219
37.02,-0.261,1.59,0.053
37.03,-0.134,0.94,0.141
37.04,-0.023,0.632,-0.015
37.05,-0.494,0.889,-0.225
37.06,-0.079,1.345,-0.006
37.07,-0.203,1.272,0.167
37.08,0.103,0.391,0.058
37.09,-0.588,0.997,-0.173
37.1,-0.077,1.545,0.083
37.11,-0.089,0.958,0.087
37.12,-0.015,0.781,-0.001
37.13,-0.404,0.492,-0.197
37.14,-0.151,2.0,0.064
37.15,-0.12,0.765,0.135
37.16,-0.107,0.879,-0.011
37.17,-0.362,0.304,-0.191
37.18,-0.203,1.995,0.066
37.19,-0.06,0.837,0.098
37.2,-0.182,0.726,-0.053
37.21,-0.377,0.585,-0.167
37.22,-0.174,1.591,0.107
37.23,-0.234,1.192,0.06
37.24,-0.021,0.497,-0.067
37.25,-0.598,0.983,-0.137
37.26,0.009,1.261,0.24
37.27,-0.293,1.417,0.098
37.28,-0.064,0.53,-0.09
37.29,-0.491,0.656,-0.195
37.3,-0.106,1.48,0.18
37.31,-0.194,0.963,0.066
37.32,-0.146,0.967,-0.11
37.33,-0.368,0.212,-0.164
37.34,-0.285,1.556,0.256
37.35,-0.084,0.85,0.029
37.36,-0.216,0.891,-0.098
37.37,-0.392,0.474,-0.155
37.38,-0.099,1.226,0.123
37.39,-0.242,1.201,-0.022
37.4,-0.044,0.462,-0.144
37.41,-0.489,1.012,-0.13
37.42,0.078,0.898,0.189
37.43,-0.379,1.266,0.086
37.44,-0.092,0.48,-0.108
37.45,-0.454,0.845,-0.055
37.46,-0.034,1.104,0.152
37.47,-0.224,0.885,0.011
37.48,-0.33,0.844,-0.107
37.49,-0.322,0.511,-0.038
37.5,-0.23,1.346,0.235
37.51,-0.146,0.674,0.076
37.52,-0.355,0.969,-0.16
37.53,-0.269,0.821,-0.051
37.54,-0.045,1.121,0.128
37.55,-0.243,1.029,0.016
37.56,-0.221,0.509,-0.178
37.57,-0.38,1.36,-0.071
37.58,0.009,0.799,0.147
37.59,-0.318,1.249,0.026
37.6,-0.228,0.311,-0.167
37.61,-0.251,1.521,-0.041
37.62,0.006,0.965,0.133
37.63,-0.172,0.796,0.067
37.64,-0.359,0.911,-0.173
37.65,-0.321,1.147,-0.003
37.66,-0.161,1.198,0.198
37.67,-0.11,0.528,0.021
37.68,-0.5,1.008,-0.17
37.69,-0.215,1.292,0.033
37.7,-0.166,1.062,0.149
37.71,-0.111,0.789,0.001
37.72,-0.386,0.651,-0.218
37.73,-0.268,1.797,0.044
37.74,-0.074,0.67,0.108
37.75,-0.088,1.002,0.023
37.76,-0.402,0.461,-0.222
37.77,-0.265,1.781,0.044
37.78,-0.095,0.839,0.109
37.79,-0.109,0.693,0.011
37.8,-0.42,0.797,-0.216
37.81,-0.16,1.437,0.064
37.82,-0.192,1.173,0.181
37.83,0.052,0.395,0.023
37.84,-0.562,1.052,-0.2
37.85,-0.044,1.506,0.091
37.86,-0.186,1.094,0.141
37.87,0.055,0.578,-0.021
37.88,-0.443,0.675,-0.202
37.89,-0.143,1.931,0.067
37.9,-0.004,0.716,0.13
37.91,-0.139,0.928,-0.014
37.92,-0.331,0.329,-0.218
37.93,-0.129,2.0,0.047
37.94,-0.015,0.846,0.062
37.95,-0.083,0.667,-0.021
37.96,-0.363,0.431,-0.222
37.97,-0.133,1.622,0.143
37.98,-0.14,1.138,0.072
37.99,-0.078,0.483,-0.077
38.0,-0.549,0.938,-0.127
38.01,-0.062,1.211,0.214
38.02,-0.295,1.379,0.087
38.03,-0.079,0.416,-0.088
38.04,-0.518,0.832,-0.145
38.05,-0.111,1.266,0.204
38.06,-0.284,1.04,0.102
38.07,-0.198,0.841,-0.091
38.08,-0.461,0.329,-0.141
38.09,-0.158,1.485,0.208
38.1,-0.16,0.849,0.045
38.11,-0.144,0.979,-0.092
38.12,-0.407,0.354,-0.186
38.13,-0.123,1.277,0.192
38.14,-0.163,1.057,0.006
38.15,-0.11,0.583,-0.111
38.16,-0.52,0.939,-0.11
38.17,-0.021,0.883,0.223
38.18,-0.25,1.38,-0.043
38.19,-0.097,0.292,-0.125
38.2,-0.413,1.012,-0.081
38.21,-0.021,0.939,0.181
38.22,-0.236,1.036,0.01
38.23,-0.205,0.778,-0.181
38.24,-0.314,0.688,-0.058
38.25,-0.103,1.288,0.165
38.26,-0.142,0.629,0.063
38.27,-0.384,1.017,-0.194
38.28,-0.295,0.715,-0.035
38.29,-0.085,1.171,0.134
38.3,-0.291,0.94,0.02
38.31,-0.194,0.511,-0.195
38.32,-0.335,1.536,-0.08
38.33,0.041,0.868,0.204
38.34,-0.298,1.165,0.038
38.35,-0.299,0.372,-0.159
38.36,-0.339,1.645,-0.018
38.37,-0.068,0.844,0.153
38.38,-0.146,0.954,0.072
38.39,-0.408,0.76,-0.203
38.4,-0.285,1.215,0.089
38.41,-0.144,1.169,0.172
38.42,0.001,0.563,0.019
38.43,-0.446,1.019,-0.209
38.44,-0.192,1.286,0.025
38.45,-0.122,1.15,0.157
38.46,-0.017,0.603,-0.003
38.47,-0.474,0.708,-0.188
38.48,-0.126,1.841,0.053
38.49,-0.144,0.734,0.14
38.5,-0.061,0.945,-0.003
38.51,-0.41,0.368,-0.217
38.52,-0.192,2.0,0.112
38.53,-0.124,0.737,0.132
38.54,-0.135,0.745,0.003
38.55,-0.429,0.608,-0.191
38.56,-0.111,1.636,0.105
38.57,-0.088,1.191,0.114
38.58,0.04,0.304,-0.058
38.59,-0.493,1.037,-0.194
38.6,-0.049,1.582,0.138
38.61,-0.104,1.18,0.123
38.62,-0.032,0.48,-0.026
38.63,-0.485,0.812,-0.19
38.64,-0.181,1.695,0.181
38.65,-0.069,0.873,0.052
38.66,-0.084,0.872,-0.036
38.67,-0.364,0.273,-0.175
38.68,-0.243,1.762,0.119
38.69,-0.045,0.81,0.075
38.7,-0.224,0.896,-0.136
38.71,-0.327,0.416,-0.173
38.72,-0.173,1.477,0.154
38.73,-0.161,1.234,0.026
38.74,-0.031,0.488,-0.072
38.75,-0.494,0.954,-0.179
38.76,0.028,0.934,0.23
38.77,-0.381,1.338,-0.001
38.78,-0.094,0.383,-0.084
38.79,-0.576,0.968,-0.115
38.8,0.01,1.022,0.173
38.81,-0.29,1.147,0.115
38.82,-0.352,0.598,-0.109
38.83,-0.443,0.575,0.017
38.84,-0.153,1.308,0.141
38.85,-0.109,0.69,-0.027
38.86,-0.267,0.963,-0.128
38.87,-0.249,0.835,-0.084
38.88,-0.092,1.216,0.154
38.89,-0.148,0.855,0.018
38.9,-0.353,0.755,-0.179
38.91,-0.178,1.379,-0.069
38.92,-0.08,0.835,0.188
38.93,-0.226,1.189,0.022
38.94,-0.224,0.374,-0.209
38.95,-0.333,1.731,-0.028
38.96,0.047,0.847,0.134
38.97,-0.277,0.923,0.044
38.98,-0.332,0.697,-0.155
38.99,-0.333,1.426,0.057
39.0,-0.077,1.128,0.16
39.01,0.004,0.538,0.034
39.02,-0.522,1.04,-0.211
39.03,-0.156,1.258,0.057
39.04,-0.232,1.135,0.19
39.05,-0.022,0.586,0.061
39.06,-0.514,0.827,-0.191
39.07,-0.13,1.751,0.054
39.08,-0.059,0.829,0.164
39.09,-0.135,0.874,0.008
39.1,-0.41,0.375,-0.163
39.11,-0.227,2.0,0.092
39.12,-0.024,0.758,0.191
39.13,-0.163,0.779,-0.019
39.14,-0.413,0.552,-0.221
39.15,-0.101,1.786,0.112
39.16,-0.138,1.054,0.111
39.17,0.002,0.381,-0.037
39.18,-0.56,1.056,-0.217
39.19,-0.027,1.482,0.145
39.2,-0.186,1.285,0.122
39.21,0.008,0.364,-0.005
39.22,-0.505,0.818,-0.2
39.23,-0.165,1.587,0.084
39.24,-0.104,0.925,0.066
39.25,-0.112,0.906,-0.067
39.26,-0.382,0.253,-0.18
39.27,-0.191,1.986,0.116
39.28,0.002,0.839,0.076
39.29,-0.211,0.875,-0.102
39.3,-0.357,0.459,-0.197
39.31,-0.166,1.521,0.19
39.32,-0.162,1.183,0.071
39.33,-0.052,0.443,-0.063
39.34,-0.479,0.933,-0.193
39.35,0.058,1.067,0.115
39.36,-0.268,1.298,0.008
39.37,-0.057,0.471,-0.111
39.38,-0.536,0.774,-0.178
39.39,-0.041,1.198,0.161
39.4,-0.16,0.986,0.03
39.41,-0.253,0.9,-0.134
39.42,-0.411,0.24,-0.15
39.43,-0.129,1.421,0.173
39.44,-0.113,0.753,0.016
39.45,-0.216,0.939,-0.124
39.46,-0.5,0.486,-0.144
39.47,-0.134,1.208,0.238
39.48,-0.23,0.959,0.036
39.49,-0.229,0.564,-0.15
39.5,-0.457,0.97,-0.111
39.51,-0.049,0.848,0.205
39.52,-0.323,1.332,0.057
39.53,-0.142,0.311,-0.118
39.54,-0.431,1.03,-0.098
39.55,0.011,1.012,0.145
39.56,-0.264,0.981,0.072
39.57,-0.155,0.553,-0.165
39.58,-0.271,1.338,-0.098
39.59,-0.048,1.079,0.213
39.6,-0.119,0.631,-0.006
39.61,-0.434,1.14,-0.175
39.62,-0.155,1.026,-0.019
39.63,-0.105,1.148,0.137
39.64,-0.13,0.695,0.004
39.65,-0.294,0.961,-0.255
39.66,-0.278,1.495,-0.001
39.67,-0.013,0.838,0.139
39.68,-0.175,1.01,0.018
39.69,-0.275,0.439,-0.196
39.7,-0.332,1.875,0.06
39.71,-0.043,0.74,0.138
39.72,-0.175,0.928,0.05
39.73,-0.331,0.546,-0.259
39.74,-0.251,1.633,0.079
39.75,-0.136,0.995,0.176
39.76,-0.011,0.523,0.063
39.77,-0.45,0.963,-0.152
39.78,-0.106,1.344,0.084
39.79,-0.139,1.215,0.095
39.8,0.027,0.448,0.055
39.81,-0.391,0.945,-0.252
39.82,-0.045,1.674,0.047
39.83,-0.089,0.891,0.127
39.84,-0.027,0.796,-0.032
39.85,-0.36,0.427,-0.223
39.86,-0.168,2.0,0.074
39.87,0.007,0.623,0.114
39.88,-0.113,0.876,-0.019
39.89,-0.363,0.46,-0.216
39.9,-0.137,1.824,0.099
39.91,-0.05,0.901,0.075
39.92,0.025,0.469,-0.04
39.93,-0.477,1.0,-0.238
39.94,0.031,1.488,0.065
39.95,-0.203,1.244,0.084
39.96,0.086,0.308,-0.066
39.97,-0.541,0.963,-0.2
39.98,-0.01,1.577,0.063
39.99,-0.187,0.983,0.117
40.0,0.004,0.771,-0.022
40.01,-0.538,0.42,-0.174
40.02,-0.105,2.0,0.134
40.03,-0.077,0.721,0.051
40.04,-0.136,0.829,-0.042
40.05,-0.42,0.351,-0.207
40.06,-0.191,1.744,0.15
40.07,-0.149,0.999,0.066
40.08,-0.1,0.558,-0.052
40.09,-0.541,0.831,-0.139
40.1,-0.076,1.302,0.238
40.11,-0.335,1.351,0.164
40.12,-0.087,0.406,-0.018
40.13,-0.61,0.899,-0.15
40.14,-0.052,1.327,0.247
40.15,-0.198,1.108,0.099
40.16,-0.131,0.736,-0.107
40.17,-0.354,0.386,-0.194
40.18,-0.184,1.578,0.14
40.19,-0.022,0.781,0.06
40.2,-0.198,0.976,-0.14
40.21,-0.316,0.21,-0.245
40.22,-0.085,1.459,0.085
40.23,-0.146,0.965,-0.0
40.24,-0.11,0.701,-0.131
40.25,-0.515,0.712,-0.17
40.26,0.041,1.064,0.2
40.27,-0.249,1.327,0.019
40.28,0.022,0.385,-0.139
40.29,-0.535,0.928,-0.188
40.3,0.021,1.048,0.151
40.31,-0.208,1.165,0.02
40.32,-0.22,0.688,-0.114
40.33,-0.5,0.406,-0.153
40.34,-0.127,1.375,0.191
40.35,-0.101,0.829,0.004
40.36,-0.303,0.962,-0.134
40.37,-0.431,0.401,-0.071
40.38,-0.154,1.334,0.208
40.39,-0.173,0.719,0.105
40.4,-0.336,0.922,-0.138
40.41,-0.413,0.78,-0.106
40.42,-0.076,1.118,0.162
40.43,-0.265,1.088,0.024
40.44,-0.205,0.434,-0.119
40.45,-0.377,1.452,-0.063
40.46,0.029,0.851,0.191
40.47,-0.253,1.199,0.087
40.48,-0.21,0.445,-0.135
40.49,-0.328,1.26,-0.031
40.5,-0.002,0.98,0.128
40.51,-0.143,0.858,0.027
40.52,-0.286,0.874,-0.199
40.53,-0.218,0.971,-0.113
40.54,-0.104,1.277,0.196
40.55,-0.098,0.656,0.049
40.56,-0.368,1.027,-0.142
40.57,-0.24,1.136,-0.1
40.58,-0.071,1.059,0.153
40.59,-0.174,0.939,0.042
40.6,-0.293,0.635,-0.217
40.61,-0.301,1.594,-0.009
40.62,-0.093,0.68,0.16
40.63,-0.192,1.227,0.063
40.64,-0.267,0.349,-0.181
40.65,-0.296,1.689,-0.045
40.66,-0.071,0.916,0.194
40.67,-0.132,0.76,0.046
40.68,-0.42,0.908,-0.17
40.69,-0.215,1.323,0.014
40.7,-0.183,1.164,0.191
40.71,-0.031,0.5,0.077
40.72,-0.468,1.095,-0.214
40.73,-0.216,1.316,0.026
40.74,-0.134,0.988,0.137
40.75,-0.163,0.77,0.095
40.76,-0.463,0.632,-0.212
40.77,-0.258,1.852,0.107
40.78,-0.102,0.731,0.169
40.79,-0.148,0.955,0.055
40.8,-0.312,0.445,-0.181
40.81,-0.258,1.848,0.069
40.82,-0.037,0.866,0.142
40.83,-0.107,0.684,0.025
40.84,-0.436,0.831,-0.2
40.85,-0.168,1.496,0.13
40.86,-0.185,1.093,0.149
40.87,0.017,0.433,0.065
40.88,-0.486,1.032,-0.167
40.89,-0.034,1.461,0.064
40.9,-0.099,1.158,0.148
40.91,0.016,0.571,-0.003
40.92,-0.414,0.653,-0.181
40.93,-0.123,1.992,0.104
40.94,-0.008,0.704,0.141
40.95,-0.143,0.938,0.006
40.96,-0.415,0.354,-0.224
40.97,-0.121,2.0,0.066
40.98,-0.143,0.81,0.185
40.99,-0.015,0.611,-0.04
41.0,-0.384,0.73,-0.309
41.01,-0.016,1.618,0.099
41.02,-0.149,1.139,0.134
41.03,0.039,0.359,-0.022
41.04,-0.526,1.076,-0.201
41.05,-0.052,1.438,0.169
41.06,-0.202,1.213,0.095
41.07,0.064,0.51,-0.005
41.08,-0.431,0.773,-0.215
41.09,-0.156,1.812,0.099
41.1,-0.107,0.787,0.082
41.11,-0.129,0.929,-0.064
41.12,-0.391,0.273,-0.165
41.13,-0.197,1.974,0.161
41.14,-0.141,0.845,0.181
41.15,-0.171,0.762,-0.054
41.16,-0.405,0.587,-0.203
41.17,-0.156,1.523,0.18
41.18,-0.132,1.086,0.062
41.19,-0.093,0.549,-0.117
41.2,-0.482,0.812,-0.198
41.21,0.013,1.146,0.191
41.22,-0.224,1.343,0.051
41.23,-0.025,0.376,-0.095
41.24,-0.57,0.874,-0.193
41.25,-0.003,1.136,0.191
41.26,-0.209,1.144,0.047
41.27,-0.171,0.746,-0.128
41.28,-0.395,0.384,-0.203
41.29,-0.113,1.433,0.117
41.3,-0.081,0.825,0.017
41.31,-0.233,0.911,-0.163
41.32,-0.386,0.295,-0.165
41.33,-0.082,1.269,0.173
41.34,-0.148,0.961,0.006
41.35,-0.296,0.565,-0.122
41.36,-0.556,0.853,-0.095
41.37,-0.003,0.932,0.213
41.38,-0.333,1.298,0.043
41.39,-0.101,0.361,-0.122
41.4,-0.599,1.015,-0.105
41.41,0.006,0.964,0.223
41.42,-0.239,1.143,0.057
41.43,-0.306,0.554,-0.059
41.44,-0.436,0.756,-0.04
41.45,-0.093,1.272,0.209
41.46,-0.204,0.627,0.086
41.47,-0.316,1.096,-0.109
41.48,-0.442,0.632,-0.055
41.49,-0.122,1.27,0.161
41.5,-0.233,0.881,0.061
41.51,-0.292,0.655,-0.126
41.52,-0.416,1.094,-0.058
41.53,0.009,0.899,0.165
41.54,-0.3,1.225,0.068
41.55,-0.17,0.275,-0.128
41.56,-0.365,1.534,-0.064
41.57,-0.001,0.857,0.162
41.58,-0.317,1.088,0.056
41.59,-0.323,0.613,-0.157
41.6,-0.279,1.131,-0.056
41.61,-0.159,1.136,0.214
41.62,-0.155,0.613,0.059
41.63,-0.436,1.082,-0.13
41.64,-0.287,0.944,-0.016
41.65,-0.163,1.204,0.247
41.66,-0.132,0.75,-0.007
41.67,-0.394,0.812,-0.176
41.68,-0.291,1.503,-0.02
41.69,-0.037,0.892,0.131
41.7,-0.289,1.022,0.037
41.71,-0.23,0.502,-0.147
41.72,-0.474,1.842,0.061
41.73,0.077,0.748,0.174
41.74,-0.221,0.911,0.033
41.75,-0.3,0.66,-0.249
41.76,-0.324,1.496,-0.027
41.77,-0.036,1.028,0.065
41.78,-0.023,0.573,0.047
41.79,-0.483,1.067,-0.207
41.8,-0.241,1.256,0.063
41.81,-0.209,1.191,0.179
41.82,-0.059,0.515,0.096
41.83,-0.474,0.93,-0.116
41.84,-0.252,1.645,0.103
41.85,-0.156,0.802,0.21
41.86,-0.085,0.915,0.021
41.87,-0.363,0.404,-0.205
41.88,-0.211,1.948,0.11
41.89,0.043,0.701,0.063
41.9,-0.109,0.884,0.006
41.91,-0.332,0.532,-0.222
41.92,-0.156,1.746,0.119
41.93,-0.124,0.976,0.12
41.94,0.036,0.44,0.003
41.95,-0.488,1.04,-0.199
41.96,-0.006,1.507,0.105
41.97,-0.225,1.261,0.137
41.98,0.062,0.291,-0.033
41.99,-0.601,1.046,-0.202
42.0,0.018,1.451,0.115
42.01,-0.221,1.167,0.112
42.02,-0.046,0.593,0.001
42.03,-0.511,0.611,-0.162
42.04,-0.196,1.75,0.237
42.05,-0.121,0.842,0.109
42.06,-0.165,0.901,-0.027
42.07,-0.476,0.289,-0.135
42.08,-0.171,1.782,0.196
42.09,-0.243,0.821,0.093
42.1,-0.066,0.832,-0.08
42.11,-0.44,0.573,-0.167
42.12,-0.084,1.485,0.192
42.13,-0.277,1.275,0.123
42.14,0.03,0.388,-0.069
42.15,-0.57,1.014,-0.173
42.16,-0.014,1.308,0.17
42.17,-0.299,1.284,0.084
42.18,-0.018,0.511,-0.123
42.19,-0.438,0.654,-0.227
42.2,0.059,1.478,0.078
42.21,-0.19,0.791,0.066
42.22,-0.197,1.06,-0.136
42.23,-0.426,0.144,-0.142
42.24,-0.148,1.433,0.208
42.25,-0.154,0.9,0.015
42.26,-0.137,0.814,-0.209
42.27,-0.492,0.54,-0.202
42.28,0.075,1.142,0.156
42.29,-0.295,1.257,0.025
42.3,0.006,0.418,-0.134
42.31,-0.542,1.027,-0.173
42.32,0.117,0.928,0.137
42.33,-0.389,1.274,0.015
42.34,-0.126,0.482,-0.158
42.35,-0.533,0.666,-0.134
42.36,-0.023,1.185,0.132
42.37,-0.18,0.934,0.04
42.38,-0.295,0.863,-0.146
42.39,-0.469,0.396,-0.049
42.4,-0.068,1.322,0.152
42.41,-0.19,0.782,0.069
42.42,-0.329,0.893,-0.139
42.43,-0.407,0.896,-0.079
42.44,-0.055,1.065,0.201
42.45,-0.252,1.132,0.092
42.46,-0.253,0.393,-0.204
42.47,-0.374,1.355,-0.017
42.48,0.03,0.793,0.161
42.49,-0.281,1.261,0.051
42.5,-0.197,0.441,-0.175
42.51,-0.268,1.316,-0.034
42.52,0.038,1.048,0.115
42.53,-0.124,0.759,0.031
42.54,-0.252,1.034,-0.265
42.55,-0.229,0.94,-0.094
42.56,-0.072,1.22,0.144
42.57,-0.095,0.684,-0.0
42.58,-0.312,0.962,-0.203
42.59,-0.258,1.305,-0.128
42.6,0.047,1.044,0.156
42.61,-0.15,0.982,0.0
42.62,-0.324,0.55,-0.169
42.63,-0.316,1.829,-0.001
42.64,-0.04,0.722,0.239
42.65,-0.188,1.065,0.099
42.66,-0.353,0.566,-0.217
42.67,-0.31,1.643,0.044
42.68,-0.057,0.932,0.136
42.69,-0.109,0.675,0.068
42.7,-0.363,1.01,-0.198
42.71,-0.295,1.265,0.029
42.72,-0.05,1.229,0.198
42.73,-0.002,0.491,0.062
42.74,-0.502,1.047,-0.2
42.75,-0.14,1.46,0.031
42.76,-0.238,1.005,0.155
42.77,-0.014,0.742,0.047
42.78,-0.459,0.565,-0.186
42.79,-0.121,1.871,0.143
42.8,-0.202,0.774,0.153
42.81,-0.038,0.839,0.029
42.82,-0.343,0.437,-0.209
42.83,-0.186,2.0,0.052
42.84,-0.002,0.68,0.146
42.85,-0.063,0.843,-0.006
42.86,-0.435,0.495,-0.232
42.87,-0.071,1.844,0.105
42.88,-0.093,1.065,0.088
42.89,0.056,0.388,-0.048
42.9,-0.438,1.096,-0.238
42.91,-0.037,1.516,0.072
42.92,-0.164,1.26,0.111
42.93,0.135,0.368,-0.002
42.94,-0.47,0.875,-0.199
42.95,0.015,1.725,-0.018
42.96,-0.167,0.833,0.071
42.97,0.028,0.945,-0.098
42.98,-0.424,0.344,-0.196
42.99,-0.113,2.0,0.148
43.0,-0.093,0.795,0.098
43.01,-0.13,0.8,-0.076
43.02,-0.398,0.482,-0.169
43.03,-0.093,1.792,0.15
43.04,-0.192,1.107,0.141
43.05,0.076,0.405,-0.052
43.06,-0.577,0.891,-0.143
43.07,0.016,1.272,0.218
43.08,-0.351,1.345,0.133
43.09,-0.007,0.446,-0.039
43.1,-0.551,0.876,-0.147
43.11,-0.016,1.475,0.153
43.12,-0.26,1.01,0.125
43.13,-0.12,0.867,-0.107
43.14,-0.426,0.254,-0.15
43.15,-0.125,1.618,0.223
43.16,-0.128,0.801,0.058
43.17,-0.178,0.934,-0.097
43.18,-0.402,0.298,-0.136
43.19,-0.151,1.454,0.192
43.2,-0.101,1.12,0.0
43.21,-0.082,0.576,-0.157
43.22,-0.507,0.845,-0.168
43.23,0.02,1.021,0.191
43.24,-0.328,1.39,0.073
43.25,-0.052,0.352,-0.106
43.26,-0.517,0.917,-0.174
43.27,0.016,1.108,0.104
43.28,-0.225,0.98,0.01
43.29,-0.272,0.848,-0.094
43.3,-0.492,0.431,-0.055
43.31,-0.202,1.319,0.2
43.32,-0.197,0.715,0.104
43.33,-0.32,0.957,-0.102
43.34,-0.479,0.518,-0.067
43.35,-0.127,1.224,0.232
43.36,-0.31,0.937,0.076
43.37,-0.224,0.599,-0.133
43.38,-0.525,1.057,-0.06
43.39,0.012,0.872,0.21
43.4,-0.391,1.319,0.104
43.41,-0.126,0.36,-0.158
43.42,-0.489,1.246,-0.039
43.43,0.006,0.884,0.193
43.44,-0.22,1.065,0.047
43.45,-0.296,0.685,-0.154
43.46,-0.264,0.991,-0.028
43.47,-0.167,1.206,0.239
43.48,-0.174,0.624,0.111
43.49,-0.402,1.038,-0.158
43.5,-0.264,1.045,-0.05
43.51,-0.054,1.164,0.165
43.52,-0.141,0.832,0.014
43.53,-0.227,0.788,-0.223
43.54,-0.284,1.607,-0.115
43.55,0.123,0.812,0.114
43.56,-0.266,1.112,0.015
43.57,-0.203,0.482,-0.227
43.58,-0.335,1.839,-0.042
43.59,0.028,0.735,0.147
43.6,-0.215,0.926,0.039
43.61,-0.315,0.476,-0.219
43.62,-0.298,1.695,0.004
43.63,-0.085,0.869,0.099
43.64,-0.022,0.631,0.027
43.65,-0.449,0.959,-0.23
43.66,-0.093,1.37,0.087
43.67,-0.226,1.145,0.165
43.68,0.102,0.437,0.095
43.69,-0.452,0.946,-0.221
43.7,0.0,1.643,0.036
43.71,-0.083,1.027,0.096
43.72,0.02,0.66,-0.068
43.73,-0.293,0.486,-0.246
43.74,-0.084,2.0,0.059
43.75,-0.008,0.628,0.065
43.76,-0.128,0.86,0.004
43.77,-0.326,0.429,-0.208
43.78,-0.162,1.957,0.142
43.79,-0.073,0.877,0.097
43.8,-0.059,0.478,-0.028
43.81,-0.393,0.91,-0.179
43.82,-0.014,1.635,0.102
43.83,-0.148,1.211,0.092
43.84,0.066,0.346,-0.038
43.85,-0.476,0.996,-0.201
43.86,0.089,1.584,0.073
43.87,-0.081,1.109,-0.024
43.88,0.03,0.587,-0.067
43.89,-0.438,0.556,-0.19
43.9,-0.102,1.886,0.115
43.91,-0.052,0.7,0.067
43.92,-0.135,0.909,-0.076
43.93,-0.411,0.28,-0.134
43.94,-0.23,1.761,0.151
43.95,-0.199,0.924,0.111
43.96,-0.134,0.683,-0.043
43.97,-0.482,0.722,-0.117
43.98,-0.107,1.311,0.241
43.99,-0.216,1.379,0.098
44.0,-0.006,0.365,-0.076
44.01,-0.476,0.938,-0.198
44.02,-0.025,1.252,0.157
44.03,-0.377,0.956,-0.194
44.04,-0.064,1.724,0.002
44.05,-0.052,0.926,0.063
44.06,0.038,0.751,-0.054
44.07,-0.417,0.438,-0.201
44.08,-0.075,2.0,0.042
44.09,-0.004,0.673,0.05
44.1,-0.102,0.84,-0.051
44.11,-0.322,0.431,-0.269
44.12,-0.082,1.968,0.031
44.13,-0.118,0.911,0.055
44.14,-0.043,0.384,-0.056
44.15,-0.424,0.969,-0.239
44.16,-0.113,1.414,0.12
44.17,-0.23,1.197,0.132
44.18,0.025,0.314,-0.013
44.19,-0.537,0.912,-0.169
44.2,-0.072,1.505,0.175
44.21,-0.211,1.074,0.085
44.22,-0.191,0.729,-0.027
44.23,-0.421,0.407,-0.112
44.24,-0.297,2.0,0.27
44.25,-0.124,0.736,0.215
44.26,-0.131,0.858,-0.029
44.27,-0.44,0.259,-0.129
44.28,-0.18,1.695,0.204
44.29,-0.24,1.01,0.098
44.3,-0.124,0.519,-0.047
44.31,-0.511,0.816,-0.151
44.32,-0.083,1.341,0.201
44.33,-0.302,1.344,0.166
44.34,-0.103,0.401,-0.088
44.35,-0.42,0.896,-0.184
44.36,0.044,1.116,0.144
44.37,-0.161,1.339,0.035
44.38,-0.031,0.508,-0.15
44.39,-0.465,0.695,-0.197
44.4,0.006,1.27,0.118
44.41,-0.138,0.931,-0.019
44.42,-0.161,0.952,-0.159
44.43,-0.528,0.242,-0.158
44.44,-0.143,1.467,0.169
44.45,-0.15,0.845,0.055
44.46,-0.329,0.843,-0.154
44.47,-0.433,0.475,-0.152
44.48,-0.025,1.123,0.169
44.49,-0.197,1.156,0.005
44.5,-0.069,0.399,-0.156
44.51,-0.566,1.014,-0.149
44.52,-0.01,0.914,0.192
44.53,-0.297,1.274,0.127
44.54,-0.248,0.405,-0.07
44.55,-0.54,0.787,-0.071
44.56,-0.074,1.128,0.205
44.57,-0.133,0.976,0.045
44.58,-0.289,0.816,-0.114
44.59,-0.456,0.405,-0.056
44.6,-0.145,1.343,0.243
44.61,-0.16,0.798,0.12
44.62,-0.329,0.847,-0.097
44.63,-0.481,0.613,-0.095
44.64,-0.122,1.152,0.28
44.65,-0.161,1.076,0.062
44.66,-0.236,0.416,-0.108
44.67,-0.462,1.125,-0.08
44.68,-0.093,0.852,0.214
44.69,-0.23,1.319,0.092
44.7,-0.212,0.325,-0.111
44.71,-0.44,1.147,-0.065
44.72,-0.116,0.984,0.228
44.73,-0.135,0.923,0.098
44.74,-0.374,0.778,-0.154
44.75,-0.389,0.662,-0.031
44.76,-0.25,1.281,0.165
44.77,-0.044,0.659,0.104
44.78,-0.371,0.899,-0.109
44.79,-0.316,0.914,-0.025
44.8,-0.107,1.129,0.217
44.81,-0.209,0.938,0.093
44.82,-0.24,0.591,-0.153
44.83,-0.303,1.447,-0.114
44.84,0.01,0.911,0.137
44.85,-0.274,1.21,0.098
44.86,-0.235,0.392,-0.124
44.87,-0.422,1.224,-0.035
44.88,-0.089,0.893,0.156
44.89,-0.258,0.977,0.071
44.9,-0.238,0.703,-0.216
44.91,-0.3,0.912,-0.051
44.92,-0.129,1.281,0.178
44.93,-0.148,0.618,0.116
44.94,-0.442,1.006,-0.076
44.95,-0.276,0.974,-0.063
44.96,-0.115,1.178,0.165
44.97,-0.179,0.902,0.041
44.98,-0.317,0.602,-0.164
44.99,-0.255,1.514,-0.101
45.0,-0.031,0.78,0.21
45.01,-0.206,1.195,0.089
45.02,-0.295,0.353,-0.173
45.03,-0.282,1.59,-0.087
45.04,-0.01,0.839,0.109
45.05,-0.139,0.941,0.054
45.06,-0.301,0.762,-0.176
45.07,-0.26,1.141,-0.039
45.08,-0.16,1.237,0.179
45.09,-0.073,0.601,0.066
45.1,-0.44,1.022,-0.176
45.11,-0.201,1.074,-0.041
45.12,-0.135,1.174,0.139
45.13,-0.113,0.776,0.021
45.14,-0.515,1.018,-0.155
45.15,-0.242,1.468,0.015
45.16,-0.105,0.959,0.131
45.17,-0.088,0.862,0.059
45.18,-0.393,0.581,-0.186
45.19,-0.329,1.808,0.05
45.2,-0.059,0.702,0.135
45.21,-0.158,1.012,0.039
45.22,-0.295,0.479,-0.244
45.23,-0.345,1.616,-0.001
45.24,-0.111,0.856,0.149
45.25,-0.043,0.747,0.054
45.26,-0.429,0.993,-0.183
45.27,-0.309,1.172,0.037
45.28,-0.212,1.131,0.141
45.29,-0.013,0.576,0.065
45.3,-0.438,1.032,-0.193
45.31,-0.249,1.366,-0.001
45.32,-0.17,0.981,0.166
45.33,-0.108,0.795,0.043
45.34,-0.384,0.567,-0.201
45.35,-0.324,1.834,0.055
45.36,-0.051,0.719,0.116
45.37,-0.205,0.963,0.08
45.38,-0.369,0.474,-0.181
45.39,-0.343,1.69,0.019
45.4,-0.032,0.87,0.096
45.41,-0.066,0.676,0.034
45.42,-0.352,0.932,-0.241
45.43,-0.273,1.301,0.006
45.44,-0.136,1.197,0.191
45.45,-0.057,0.447,0.106
45.46,-0.344,1.067,-0.226
45.47,-0.211,1.357,-0.023
45.48,-0.081,1.095,0.084
45.49,-0.08,0.655,0.012
45.5,-0.354,0.628,-0.222
45.51,-0.308,1.805,0.076
45.52,-0.089,0.595,0.157
45.53,-0.183,0.995,0.063
45.54,-0.323,0.411,-0.249
45.55,-0.274,1.829,0.047
45.56,-0.093,0.841,0.099
45.57,-0.028,0.673,0.031
45.58,-0.372,0.818,-0.227
45.59,-0.173,1.386,0.061
45.6,-0.222,1.15,0.116
45.61,0.051,0.406,0.031
45.62,-0.519,1.044,-0.198
45.63,-0.119,1.465,0.064
45.64,-0.198,1.012,0.137
45.65,0.048,0.653,0.004
45.66,-0.45,0.68,-0.184
45.67,-0.141,1.94,0.097
45.68,-0.074,0.763,0.149
45.69,-0.052,0.89,-0.01
45.7,-0.321,0.344,-0.286
45.71,-0.102,2.0,0.043
45.72,-0.028,0.802,0.11
45.73,-0.069,0.677,0.015
45.74,-0.365,0.739,-0.259
45.75,-0.019,1.606,0.083
45.76,-0.074,1.238,0.094
45.77,0.046,0.29,-0.048
45.78,-0.52,1.104,-0.234
45.79,-0.02,1.605,0.095
45.8,-0.172,1.147,0.092
45.81,0.05,0.496,-0.05
45.82,-0.434,0.749,-0.245
45.83,-0.037,1.923,0.036
45.84,-0.022,0.773,0.057
45.85,-0.017,0.85,-0.014
45.86,-0.295,0.365,-0.223
45.87,-0.097,2.0,0.056
45.88,-0.038,0.709,0.087
45.89,-0.066,0.809,-0.075
45.9,-0.415,0.637,-0.287
45.91,-0.005,1.776,0.113
45.92,-0.269,1.151,0.191
45.93,0.072,0.282,0.017
45.94,-0.621,1.089,-0.211
45.95,-0.018,1.372,0.229
45.96,-0.251,1.377,0.097
45.97,0.032,0.402,-0.034
45.98,-0.504,0.934,-0.161
45.99,-0.077,1.34,0.2
46.0,-0.174,1.105,0.12
46.01,-0.128,0.783,-0.071
46.02,-0.448,0.396,-0.121
46.03,-0.254,1.675,0.207
46.04,-0.093,0.85,0.128
46.05,-0.238,0.899,-0.081
46.06,-0.394,0.292,-0.184
46.07,-0.197,1.482,0.208
46.08,-0.152,0.984,0.061
46.09,-0.152,0.646,-0.09
46.1,-0.447,0.781,-0.15
46.11,-0.041,1.104,0.191
46.12,-0.201,1.345,0.069
46.13,-0.136,0.302,-0.148
46.14,-0.458,0.994,-0.188
46.15,0.008,1.069,0.11
46.16,-0.158,1.178,0.024
46.17,-0.163,0.695,-0.105
46.18,-0.374,0.472,-0.168
46.19,-0.196,1.34,0.221
46.2,-0.072,0.713,0.041
46.21,-0.35,0.997,-0.161
46.22,-0.393,0.287,-0.138
46.23,-0.161,1.302,0.212
46.24,-0.134,0.923,-0.0
46.25,-0.198,0.612,-0.131
46.26,-0.481,0.81,-0.162
46.27,-0.015,0.982,0.197
46.28,-0.293,1.281,0.038
46.29,-0.128,0.365,-0.131
46.3,-0.529,1.067,-0.082
46.31,0.008,0.933,0.174
46.32,-0.198,1.163,0.106
46.33,-0.345,0.628,-0.133
46.34,-0.412,0.636,-0.009
46.35,-0.182,1.166,0.172
46.36,-0.157,0.763,0.094
46.37,-0.28,0.94,-0.117
46.38,-0.29,0.861,-0.11
46.39,-0.041,1.286,0.258
46.4,-0.171,0.748,0.1
46.41,-0.363,0.859,-0.137
46.42,-0.255,1.256,-0.08
46.43,-0.073,0.864,0.18
46.44,-0.206,1.173,0.036
46.45,-0.258,0.343,-0.202
46.46,-0.22,1.639,-0.11
46.47,-0.026,0.757,0.15
46.48,-0.176,1.065,0.038
46.49,-0.26,0.658,-0.224
46.5,-0.208,1.385,-0.123
46.51,0.01,1.098,0.157
46.52,-0.013,0.578,-0.001
46.53,-0.466,1.113,-0.193
46.54,-0.177,1.078,-0.036
46.55,-0.196,1.189,0.201
46.56,-0.074,0.66,0.052
46.57,-0.423,0.925,-0.18
46.58,-0.203,1.443,-0.041
46.59,0.021,0.952,0.157
46.6,-0.062,0.961,0.021
46.61,-0.287,0.515,-0.266
46.62,-0.293,1.876,-0.011
46.63,-0.019,0.746,0.14
46.64,-0.276,0.962,0.077
46.65,-0.303,0.545,-0.226
46.66,-0.349,1.593,0.01
46.67,-0.092,0.985,0.135
46.68,-0.076,0.559,0.105
46.69,-0.398,1.099,-0.179
46.7,-0.309,1.297,0.075
46.71,-0.102,1.218,0.191
46.72,-0.046,0.493,0.09
46.73,-0.504,0.949,-0.164
46.74,-0.281,1.51,0.044
46.75,-0.168,0.835,0.169
46.76,0.021,0.642,0.061
46.77,-0.486,0.72,-0.192
46.78,-0.131,1.842,0.092
46.79,-0.059,0.791,0.166
46.8,-0.099,0.871,0.033
46.81,-0.427,0.369,-0.164
46.82,-0.153,2.0,0.118
46.83,-0.126,0.742,0.15
46.84,-0.09,0.734,-0.004
46.85,-0.409,0.738,-0.244
46.86,-0.104,1.651,0.112
46.87,-0.17,1.094,0.138
46.88,0.111,0.354,-0.008
46.89,-0.519,1.078,-0.211
46.9,-0.045,1.43,0.077
46.91,-0.126,1.196,0.137
46.92,0.036,0.522,-0.008
46.93,-0.468,0.74,-0.175
46.94,-0.019,1.911,0.054
46.95,-0.035,0.862,0.086
46.96,-0.099,0.808,-0.036
46.97,-0.411,0.385,-0.196
46.98,-0.148,2.0,0.091
46.99,-0.088,0.739,0.167
47.0,-0.044,0.7,-0.041
47.01,-0.419,0.609,-0.262
47.02,-0.063,1.708,-0.017
47.03,-0.235,1.138,0.084
47.04,0.156,0.419,-0.06
47.05,-0.552,1.095,-0.226
47.06,-0.052,1.482,0.141
47.07,-0.165,1.237,0.137
47.08,0.035,0.447,0.009
47.09,-0.556,0.777,-0.213
47.1,-0.061,1.661,0.131
47.11,-0.224,0.915,0.094
47.12,-0.034,0.894,-0.0
47.13,-0.431,0.343,-0.201
47.14,-0.228,1.998,0.157
47.15,-0.12,0.783,0.117
47.16,-0.087,0.801,-0.023
47.17,-0.502,0.477,-0.222
47.18,-0.093,1.661,0.16
47.19,-0.211,1.157,0.121
47.2,-0.005,0.398,-0.03
47.21,-0.526,1.027,-0.209
47.22,0.001,1.339,0.166
47.23,-0.303,1.301,0.068
47.24,0.044,0.512,-0.071
47.25,-0.499,0.844,-0.186
47.26,-0.093,1.53,0.188
47.27,-0.083,0.982,0.073
47.28,-0.141,0.827,-0.055
47.29,-0.461,0.33,-0.126
47.3,-0.267,1.88,0.162
47.31,-0.187,0.775,0.187
47.32,-0.181,0.924,-0.042
47.33,-0.511,0.388,-0.124
47.34,-0.15,1.585,0.246
47.35,-0.228,1.172,0.095
47.36,-0.012,0.481,-0.06
47.37,-0.609,0.963,-0.156
47.38,-0.03,1.228,0.225
47.39,-0.334,1.348,0.136
47.4,-0.077,0.38,-0.041
47.41,-0.518,0.908,-0.142
47.42,-0.056,1.284,0.168
47.43,-0.278,0.952,0.172
47.44,-0.136,0.87,-0.104
47.45,-0.457,0.321,-0.163
47.46,-0.169,1.561,0.182
47.47,-0.121,0.818,0.099
47.48,-0.211,0.896,-0.083
47.49,-0.443,0.363,-0.187
47.5,-0.102,1.412,0.134
47.51,-0.255,1.067,0.055
47.52,-0.043,0.587,-0.058
47.53,-0.58,0.849,-0.166
47.54,0.037,1.089,0.185
47.55,-0.283,1.375,0.084
47.56,-0.129,0.344,-0.155
47.57,-0.512,0.979,-0.163
47.58,0.005,0.959,0.164
47.59,-0.302,1.315,0.034
47.6,-0.124,0.489,-0.103
47.61,-0.526,0.706,-0.152
47.62,-0.038,1.25,0.113
47.63,-0.14,0.827,0.017
47.64,-0.265,0.918,-0.124
47.65,-0.476,0.326,-0.091
47.66,-0.173,1.356,0.183
47.67,-0.207,0.783,0.086
47.68,-0.333,0.846,-0.081
47.69,-0.508,0.606,-0.063
47.7,-0.1,1.013,0.228
47.71,-0.277,1.229,0.059
47.72,-0.173,0.353,-0.115
47.73,-0.569,1.237,-0.074
47.74,0.071,0.914,0.184
47.75,-0.367,1.18,0.085
47.76,-0.223,0.454,-0.133
47.77,-0.508,0.951,-0.038
47.78,-0.103,1.136,0.185
47.79,-0.22,0.793,0.082
47.8,-0.312,0.93,-0.123
47.81,-0.39,0.532,-0.084
47.82,-0.127,1.341,0.194
47.83,-0.116,0.779,0.043
47.84,-0.395,0.809,-0.126
47.85,-0.343,0.896,-0.048
47.86,-0.086,1.109,0.162
47.87,-0.281,1.106,0.064
47.88,-0.192,0.401,-0.172
47.89,-0.347,1.53,-0.112
47.9,-0.012,0.808,0.198
47.91,-0.309,1.205,0.05
47.92,-0.237,0.429,-0.205
47.93,-0.266,1.49,-0.129
47.94,-0.003,1.022,0.157
47.95,-0.124,0.669,0.002
47.96,-0.434,0.964,-0.195
47.97,-0.177,1.13,-0.073
47.98,-0.169,1.28,0.131
47.99,-0.108,0.519,0.092
48.0,-0.417,1.132,-0.156
48.01,-0.337,1.25,-0.043
48.02,-0.091,0.974,0.162
48.03,-0.102,0.932,-0.006
48.04,-0.325,0.595,-0.244
48.05,-0.258,1.817,-0.06
48.06,0.052,0.78,0.098
48.07,-0.17,1.033,0.066
48.08,-0.26,0.486,-0.219
48.09,-0.311,1.703,-0.028
48.1,-0.11,0.889,0.136
48.11,-0.081,0.724,0.037
48.12,-0.394,0.905,-0.213
48.13,-0.278,1.201,-0.012
48.14,-0.124,1.17,0.089
48.15,-0.017,0.567,0.034
48.16,-0.446,1.023,-0.203
48.17,-0.192,1.36,0.038
48.18,-0.048,1.107,0.151
48.19,-0.099,0.734,0.041
48.2,-0.365,0.618,-0.185
48.21,-0.24,1.857,0.069
48.22,-0.032,0.752,0.144
48.23,-0.229,0.917,0.047
48.24,-0.354,0.418,-0.219
48.25,-0.295,1.811,0.044
48.26,-0.033,0.783,0.094
48.27,-0.06,0.724,-0.003
48.28,-0.471,0.825,-0.216
48.29,-0.159,1.372,0.059
48.3,-0.175,1.19,0.19
48.31,0.106,0.397,0.052
48.32,-0.542,1.063,-0.175
48.33,-0.098,1.439,0.099
48.34,-0.19,1.132,0.165
48.35,-0.021,0.599,0.019
48.36,-0.409,0.677,-0.186
48.37,0.023,1.823,0.01
48.38,-0.046,0.905,0.139
48.39,-0.005,0.796,-0.054
48.4,-0.431,0.397,-0.214
48.41,-0.168,2.0,0.038
48.42,-0.062,0.685,0.118
48.43,-0.048,0.889,-0.017
48.44,-0.395,0.445,-0.241
48.45,-0.117,1.77,0.059
48.46,-0.128,0.963,0.088
48.47,0.077,0.425,-0.076
48.48,-0.473,0.976,-0.267
48.49,-0.057,1.432,0.105
48.5,-0.185,1.308,0.102
48.51,0.033,0.403,-0.007
48.52,-0.437,0.997,-0.238
