t,ax,ay,az
0.0,0.02,1.764,0.033
0.01,-0.18,0.965,0.084
0.02,0.066,0.928,-0.032
0.03,-0.423,0.409,-0.242
0.04,-0.044,2.0,0.129
0.05,-0.153,0.653,0.083
0.06,-0.079,1.062,0.006
0.07,-0.48,0.416,-0.172
0.08,-0.088,1.585,0.206
0.09,-0.182,1.002,0.032
0.1,0.045,0.705,-0.083
0.11,-0.385,0.899,-0.185
0.12,0.047,1.187,0.114
0.13,-0.296,1.177,0.065
0.14,0.078,0.612,-0.101
0.15,-0.379,0.829,-0.168
0.16,0.047,1.297,0.104
0.17,-0.166,0.932,0.038
0.18,-0.136,0.938,-0.144
0.19,-0.407,0.371,-0.141
0.2,-0.147,1.475,0.206
0.21,-0.321,0.923,0.022
0.22,-0.25,0.845,0.128
0.23,0.006,0.568,0.054
0.24,-0.551,0.791,-0.2
0.25,-0.162,1.748,0.049
0.26,-0.185,0.933,0.074
0.27,0.041,0.672,0.069
0.28,-0.475,0.46,-0.189
0.29,-0.161,2.0,0.084
0.3,-0.039,0.656,0.086
0.31,0.014,1.052,0.03
0.32,-0.447,0.322,-0.29
0.33,-0.147,2.0,0.131
0.34,-0.249,0.642,0.012
0.35,0.047,0.8,0.004
0.36,-0.541,0.745,-0.217
0.37,-0.03,1.522,0.153
0.38,-0.279,1.222,0.104
0.39,0.211,0.497,-0.016
0.4,-0.589,0.979,-0.129
0.41,0.073,1.238,0.108
0.42,-0.362,0.975,0.131
0.43,0.007,0.892,-0.044
0.44,-0.412,0.471,-0.131
0.45,0.09,1.885,0.196
0.46,-0.107,0.747,0.074
0.47,-0.105,1.09,-0.103
0.48,-0.345,0.35,-0.147
0.49,-0.045,1.555,0.096
0.5,-0.214,0.884,0.061
0.51,0.006,0.802,-0.105
0.52,-0.294,0.757,-0.193
0.53,-0.038,1.168,0.176
0.54,-0.411,1.11,0.127
0.55,-0.113,0.528,-0.118
0.56,-0.528,0.895,-0.116
0.57,-0.005,1.125,0.184
0.58,-0.284,1.352,0.114
0.59,-0.147,0.607,-0.127
0.6,-0.324,0.55,-0.074
0.61,-0.14,1.374,0.225
0.62,-0.213,0.931,0.059
0.63,-0.369,0.907,-0.099
0.64,-0.37,0.359,-0.057
0.65,-0.051,1.418,0.192
0.66,-0.213,0.776,0.085
0.67,-0.385,0.752,-0.116
0.68,-0.365,0.752,-0.111
0.69,-0.078,0.975,0.157
0.7,-0.275,1.232,0.017
0.71,-0.244,0.265,-0.144
0.72,-0.4,1.098,-0.074
0.73,0.15,0.827,0.105
0.74,-0.26,1.202,-0.017
0.75,-0.371,0.414,-0.142
0.76,-0.21,1.293,-0.087
0.77,-0.04,1.075,0.221
0.78,-0.066,0.502,0.06
0.79,-0.582,0.983,-0.139
0.8,-0.193,1.327,0.006
0.81,-0.15,0.965,0.229
0.82,-0.076,0.565,0.103
0.83,-0.488,0.799,-0.178
0.84,-0.288,1.933,0.034
0.85,-0.125,0.564,0.169
0.86,-0.079,0.964,0.056
0.87,-0.469,0.301,-0.214
0.88,-0.311,2.0,0.02
0.89,-0.034,0.513,0.036
0.9,-0.066,0.924,0.059
0.91,-0.432,0.46,-0.25
0.92,-0.214,2.0,0.073
0.93,-0.156,0.932,0.108
0.94,0.098,0.576,0.034
0.95,-0.554,0.92,-0.228
0.96,0.052,1.723,0.131
0.97,-0.291,1.149,0.017
0.98,0.154,0.536,0.021
0.99,-0.603,0.808,-0.215
1.0,0.074,1.91,0.062
1.01,-0.182,0.894,0.051
1.02,0.04,0.97,-0.018
1.03,-0.373,0.362,-0.253
1.04,-0.087,1.709,0.185
1.05,-0.06,0.68,0.065
1.06,-0.077,1.146,-0.077
1.07,-0.395,0.355,-0.127
1.08,0.011,1.616,0.124
1.09,-0.145,0.878,0.087
1.1,-0.017,0.88,-0.102
1.11,-0.372,0.761,-0.124
1.12,0.035,1.223,0.146
1.13,-0.302,1.258,0.137
1.14,0.001,0.536,-0.096
1.15,-0.376,0.965,-0.102
1.16,0.028,1.166,0.182
1.17,-0.361,1.226,0.134
1.18,-0.119,0.747,-0.122
1.19,-0.379,0.529,-0.044
1.2,-0.175,1.419,0.246
1.21,-0.161,0.953,0.023
1.22,-0.334,0.966,-0.112
1.23,-0.25,0.345,-0.065
1.24,-0.115,1.435,0.243
1.25,-0.247,0.815,0.004
1.26,-0.409,0.72,-0.077
1.27,-0.418,0.788,-0.057
1.28,-0.015,0.983,0.178
1.29,-0.319,1.194,0.031
1.3,-0.313,0.276,-0.11
1.31,-0.444,1.283,-0.049
1.32,0.109,0.713,0.138
1.33,-0.197,1.02,0.017
1.34,-0.403,0.531,-0.174
1.35,-0.308,1.271,-0.083
1.36,-0.054,0.972,0.2
1.37,-0.112,0.587,0.066
1.38,-0.504,0.889,-0.193
1.39,-0.277,1.487,-0.022
1.4,-0.128,0.944,0.126
1.41,-0.104,0.616,0.066
1.42,-0.437,0.688,-0.206
1.43,-0.29,2.0,-0.015
1.44,-0.041,0.613,0.083
1.45,-0.024,0.96,0.041
1.46,-0.442,0.347,-0.206
1.47,-0.326,2.0,0.095
1.48,-0.126,0.511,0.069
1.49,-0.06,0.999,0.056
1.5,-0.47,0.417,-0.234
1.51,-0.194,2.0,0.139
1.52,-0.152,0.967,0.067
1.53,0.115,0.506,-0.026
1.54,-0.521,0.94,-0.233
1.55,-0.033,1.578,0.051
1.56,-0.206,1.187,0.097
1.57,0.138,0.662,0.023
1.58,-0.579,0.793,-0.199
1.59,0.071,1.889,0.146
1.6,-0.253,0.877,0.079
1.61,0.008,1.015,-0.038
1.62,-0.372,0.349,-0.194
1.63,-0.096,1.74,0.19
1.64,-0.109,0.68,0.096
1.65,-0.05,1.076,-0.033
1.66,-0.414,0.48,-0.168
1.67,-0.053,1.419,0.138
1.68,-0.292,1.007,0.163
1.69,0.01,0.74,-0.07
1.7,-0.45,0.901,-0.149
1.71,-0.002,1.108,0.215
1.72,-0.342,1.36,0.137
1.73,-0.009,0.563,-0.052
1.74,-0.389,0.783,-0.139
1.75,-0.057,1.327,0.172
1.76,-0.216,0.966,0.068
1.77,-0.118,0.986,-0.157
1.78,-0.347,0.285,-0.098
1.79,-0.126,1.51,0.207
1.8,-0.176,0.84,0.03
1.81,-0.281,0.961,-0.101
1.82,-0.295,0.467,-0.062
1.83,-0.108,1.21,0.269
1.84,-0.314,0.845,-0.0
1.85,-0.348,0.615,-0.114
1.86,-0.371,1.01,-0.055
1.87,0.067,0.86,0.155
1.88,-0.279,1.109,0.011
1.89,-0.344,0.289,-0.172
1.9,-0.414,1.435,-0.016
1.91,0.088,0.681,0.2
1.92,-0.286,1.002,0.037
1.93,-0.396,0.525,-0.238
1.94,-0.309,1.353,-0.046
1.95,-0.058,0.971,0.156
1.96,-0.077,0.571,-0.021
1.97,-0.452,0.862,-0.227
1.98,-0.196,1.663,-0.031
1.99,-0.09,1.032,0.098
2.0,0.023,0.577,0.099
2.01,-0.547,0.717,-0.207
2.02,-0.249,2.0,0.085
2.03,-0.133,0.646,0.097
2.04,-0.017,1.011,0.072
2.05,-0.433,0.28,-0.259
2.06,-0.228,2.0,0.074
2.07,-0.134,0.534,0.018
2.08,0.01,0.919,0.051
2.09,-0.498,0.473,-0.253
2.1,-0.065,2.0,0.168
2.11,-0.241,0.956,0.04
2.12,0.171,0.527,-0.041
2.13,-0.506,0.963,-0.256
2.14,-0.046,1.322,0.117
2.15,-0.215,1.15,0.066
2.16,0.041,0.667,0.005
2.17,-0.507,0.729,-0.154
2.18,0.122,1.928,0.088
2.19,-0.262,0.844,0.07
2.2,-0.04,1.042,-0.012
2.21,-0.414,0.345,-0.141
2.22,-0.089,1.946,0.197
2.23,-0.18,0.713,0.07
2.24,0.008,1.024,-0.071
2.25,-0.395,0.562,-0.168
2.26,-0.041,1.399,0.096
2.27,-0.206,1.051,0.068
2.28,0.047,0.673,-0.099
2.29,-0.427,0.928,-0.144
2.3,0.028,1.098,0.183
2.31,-0.296,1.371,0.059
2.32,-0.016,0.586,-0.083
2.33,-0.333,0.758,-0.125
2.34,-0.091,1.244,0.197
2.35,-0.226,1.025,-0.025
2.36,-0.223,0.852,-0.116
2.37,-0.28,0.343,-0.072
2.38,-0.148,1.504,0.249
2.39,-0.275,0.679,0.09
2.4,-0.491,0.959,-0.055
2.41,-0.349,0.491,-0.029
2.42,-0.04,1.179,0.187
2.43,-0.284,1.066,0.008
2.44,-0.323,0.368,-0.15
2.45,-0.384,1.205,-0.074
2.46,0.135,0.782,0.133
2.47,-0.313,1.131,0.019
2.48,-0.317,0.293,-0.205
2.49,-0.297,1.578,-0.11
2.5,0.021,0.843,0.174
2.51,-0.198,0.651,0.097
2.52,-0.46,0.802,-0.196
2.53,-0.328,1.339,-0.013
2.54,-0.122,1.023,0.205
2.55,-0.103,0.509,0.072
2.56,-0.521,0.861,-0.163
2.57,-0.267,1.534,0.054
2.58,-0.229,0.761,0.231
2.59,-0.159,0.828,0.067
2.6,-0.393,0.446,-0.196
2.61,-0.37,2.0,0.023
2.62,0.019,0.511,0.115
2.63,-0.077,1.037,0.044
2.64,-0.397,0.326,-0.274
2.65,-0.183,2.0,0.05
2.66,-0.085,0.706,0.083
2.67,-0.054,0.936,0.019
2.68,-0.409,0.511,-0.215
2.69,-0.039,1.943,0.12
2.7,-0.284,1.071,0.083
2.71,0.093,0.555,-0.018
2.72,-0.622,1.014,-0.185
2.73,0.061,1.255,0.173
2.74,-0.273,1.245,0.047
2.75,0.062,0.589,-0.032
2.76,-0.461,0.815,-0.141
2.77,-0.034,1.463,0.105
2.78,-0.167,0.731,0.109
2.79,-0.105,1.148,-0.076
2.8,-0.362,0.265,-0.133
2.81,-0.095,1.64,0.18
2.82,-0.078,0.765,0.089
2.83,-0.191,1.049,-0.057
2.84,-0.316,0.513,-0.127
2.85,-0.115,1.367,0.13
2.86,-0.23,1.168,0.041
2.87,-0.028,0.621,-0.131
2.88,-0.387,0.929,-0.119
2.89,0.026,1.064,0.198
2.9,-0.226,1.314,0.073
2.91,-0.024,0.547,-0.168
2.92,-0.434,0.798,-0.115
2.93,-0.017,1.203,0.238
2.94,-0.239,0.955,0.021
2.95,-0.277,0.866,-0.136
2.96,-0.283,0.308,-0.097
2.97,-0.146,1.452,0.206
2.98,-0.191,0.692,0.039
2.99,-0.39,0.816,-0.102
3.0,-0.301,0.54,-0.106
3.01,-0.113,1.184,0.19
3.02,-0.291,1.117,0.019
3.03,-0.341,0.297,-0.101
3.04,-0.405,1.08,-0.009
3.05,0.113,0.839,0.129
3.06,-0.299,1.25,0.003
3.07,-0.332,0.27,-0.165
3.08,-0.385,1.104,-0.053
3.09,0.024,0.948,0.125
3.1,-0.25,0.778,-0.018
3.11,-0.434,0.65,-0.189
3.12,-0.364,0.87,-0.024
3.13,-0.122,1.123,0.168
3.14,-0.187,0.587,0.064
3.15,-0.47,0.825,-0.169
3.16,-0.27,1.465,0.005
3.17,-0.054,0.803,0.183
3.18,-0.084,0.833,0.031
3.19,-0.394,0.46,-0.217
3.2,-0.371,2.0,0.018
3.21,0.04,0.557,0.097
3.22,-0.096,1.064,0.078
3.23,-0.47,0.298,-0.237
3.24,-0.3,2.0,0.084
3.25,-0.149,0.774,0.034
3.26,0.144,0.744,0.004
3.27,-0.475,0.772,-0.291
3.28,0.008,1.697,0.037
3.29,-0.238,1.205,0.047
3.3,0.161,0.535,0.033
3.31,-0.575,0.967,-0.211
3.32,0.079,1.594,0.082
3.33,-0.184,1.001,0.004
3.34,0.029,0.845,-0.029
3.35,-0.476,0.5,-0.175
3.36,-0.025,1.942,0.184
3.37,-0.191,0.669,0.084
3.38,-0.129,1.098,-0.005
3.39,-0.425,0.354,-0.15
3.4,-0.07,1.712,0.201
3.41,-0.188,0.891,0.068
3.42,-0.02,0.85,-0.056
3.43,-0.404,0.826,-0.143
3.44,0.043,1.217,0.11
3.45,-0.261,1.175,0.051
3.46,-0.046,0.559,-0.177
3.47,-0.417,0.916,-0.122
3.48,-0.033,1.038,0.208
3.49,-0.323,1.384,0.105
3.5,-0.09,0.476,-0.137
3.51,-0.344,0.782,-0.058
3.52,-0.038,1.213,0.218
3.53,-0.269,0.899,-0.036
3.54,-0.358,0.777,-0.115
3.55,-0.302,0.389,-0.04
3.56,0.003,1.451,0.104
3.57,-0.181,0.609,0.036
3.58,-0.453,0.846,-0.159
3.59,-0.339,0.728,-0.077
3.6,-0.05,1.015,0.148
3.61,-0.25,0.979,-0.012
3.62,-0.349,0.324,-0.173
3.63,-0.253,1.804,-0.078
3.64,0.08,0.661,0.175
3.65,-0.283,1.044,0.047
3.66,-0.281,0.379,-0.168
3.67,-0.338,1.973,-0.076
3.68,0.054,0.793,0.137
3.69,-0.045,0.674,0.021
3.7,-0.519,0.859,-0.249
3.71,-0.196,1.385,0.058
3.72,-0.232,0.916,0.224
3.73,-0.093,0.575,0.097
3.74,-0.402,0.729,-0.187
3.75,-0.229,1.781,0.048
3.76,-0.097,0.888,0.084
3.77,0.022,0.76,0.033
3.78,-0.463,0.472,-0.181
3.79,-0.287,2.0,0.127
3.8,-0.113,0.548,0.073
3.81,-0.011,1.018,0.067
3.82,-0.486,0.409,-0.213
3.83,-0.111,2.0,0.095
3.84,-0.206,0.78,0.029
3.85,0.119,0.717,-0.076
3.86,-0.562,0.791,-0.212
3.87,0.032,1.393,0.08
3.88,-0.25,1.232,0.111
3.89,0.108,0.518,0.07
3.9,-0.603,0.987,-0.21
3.91,0.102,1.538,0.2
3.92,-0.258,1.036,0.098
3.93,0.024,0.877,-0.043
3.94,-0.421,0.514,-0.223
3.95,-0.097,1.651,0.19
3.96,-0.176,0.67,0.114
3.97,-0.078,1.128,-0.025
3.98,-0.361,0.332,-0.166
3.99,-0.097,1.527,0.077
4.0,-0.195,0.874,0.019
4.01,-0.046,0.811,-0.114
4.02,-0.397,0.734,-0.128
4.03,0.135,1.34,0.237
4.04,-0.257,1.339,0.137
4.05,0.097,0.559,-0.104
4.06,-0.477,0.957,-0.153
4.07,0.009,1.166,0.11
4.08,-0.261,1.158,0.04
4.09,-0.083,0.707,-0.066
4.1,-0.347,0.496,-0.071
4.11,-0.119,1.546,0.224
4.12,-0.349,0.7,0.141
4.13,-0.471,1.076,-0.091
4.14,-0.365,0.295,-0.008
4.15,-0.22,1.355,0.266
4.16,-0.127,1.006,0.051
4.17,-0.272,0.65,-0.157
4.18,-0.3,0.896,-0.104
4.19,-0.031,1.054,0.238
4.2,-0.394,1.276,0.069
4.21,-0.113,0.212,-0.101
4.22,-0.316,1.612,-0.128
4.23,0.252,0.966,0.135
4.24,-0.195,0.765,0.033
4.25,-0.368,0.614,-0.232
4.26,-0.545,0.979,-0.014
4.27,-0.071,0.81,0.102
4.28,-0.348,0.841,0.029
4.29,-0.409,0.715,-0.18
4.3,-0.25,1.231,0.017
4.31,-0.151,1.085,0.253
4.32,-0.08,0.449,0.091
4.33,-0.37,0.837,-0.167
4.34,-0.302,1.824,-0.057
4.35,-0.039,0.896,0.125
4.36,-0.01,0.783,0.048
4.37,-0.486,0.516,-0.182
4.38,-0.347,1.935,0.099
4.39,-0.155,0.322,0.136
4.4,-0.256,1.151,0.059
4.41,-0.344,0.26,-0.214
4.42,-0.282,2.0,0.056
4.43,-0.044,0.865,0.092
4.44,0.06,0.578,0.045
4.45,-0.475,0.798,-0.213
4.46,-0.083,1.682,0.055
4.47,-0.225,1.182,0.084
4.48,0.187,0.558,-0.02
4.49,-0.536,0.939,-0.314
4.5,0.078,1.908,0.121
4.51,-0.274,0.789,-0.027
4.52,0.037,0.809,0.027
4.53,-0.435,0.45,-0.218
4.54,-0.129,1.839,0.089
4.55,-0.144,0.639,0.104
4.56,-0.022,1.064,0.016
4.57,-0.523,0.326,-0.121
4.58,-0.087,1.706,0.235
4.59,-0.248,0.826,0.14
4.6,-0.008,0.818,0.014
4.61,-0.512,0.86,-0.186
4.62,0.157,1.658,0.194
4.63,-0.315,1.242,0.095
4.64,0.092,0.512,-0.022
4.65,-0.597,0.99,-0.225
4.66,0.048,1.316,0.186
4.67,-0.325,1.056,0.099
4.68,0.03,0.889,-0.026
4.69,-0.412,0.452,-0.126
4.7,-0.024,1.654,0.158
4.71,-0.062,0.662,0.108
4.72,-0.157,1.209,-0.066
4.73,-0.345,0.307,-0.188
4.74,-0.035,1.689,0.167
4.75,-0.131,1.009,0.034
4.76,-0.06,0.737,-0.055
4.77,-0.404,0.868,-0.162
4.78,-0.049,1.143,0.123
4.79,-0.334,1.276,0.081
4.8,0.034,0.524,-0.042
4.81,-0.412,0.94,-0.139
4.82,-0.02,1.2,0.154
4.83,-0.212,1.094,0.002
4.84,-0.155,0.853,-0.096
4.85,-0.344,0.396,-0.096
4.86,-0.12,1.518,0.173
4.87,-0.027,0.89,0.04
4.88,-0.212,1.007,-0.106
4.89,-0.284,0.352,-0.064
4.9,-0.208,1.28,0.22
4.91,-0.315,0.935,-0.002
4.92,-0.222,0.653,-0.117
4.93,-0.402,0.777,-0.135
4.94,0.007,1.021,0.217
4.95,-0.345,1.209,0.052
4.96,-0.208,0.46,-0.085
4.97,-0.51,0.926,-0.057
4.98,-0.079,0.975,0.247
4.99,-0.248,1.275,0.035
5.0,-0.159,0.554,-0.115
5.01,-0.296,0.594,-0.116
5.02,0.025,1.387,0.143
5.03,-0.204,0.748,0.045
5.04,-0.556,0.875,-0.084
5.05,-0.256,0.404,-0.025
5.06,-0.157,1.19,0.2
5.07,-0.143,0.501,0.074
5.08,-0.499,0.891,-0.179
5.09,-0.405,0.967,-0.073
5.1,-0.122,0.83,0.15
5.11,-0.248,0.98,0.028
5.12,-0.368,0.314,-0.18
5.13,-0.323,2.0,-0.015
5.14,0.012,0.547,0.179
5.15,-0.152,1.011,0.083
5.16,-0.308,0.439,-0.211
5.17,-0.416,1.99,-0.045
5.18,0.05,0.755,0.118
5.19,-0.051,0.673,0.037
5.2,-0.502,0.875,-0.25
5.21,-0.183,1.708,-0.011
5.22,-0.266,0.974,0.064
5.23,0.123,0.543,0.035
5.24,-0.456,0.791,-0.175
5.25,-0.228,1.891,-0.003
5.26,-0.214,0.74,0.078
5.27,0.06,0.826,0.016
5.28,-0.521,0.406,-0.216
5.29,-0.26,2.0,0.081
5.3,-0.128,0.479,0.015
5.31,0.026,1.025,0.014
5.32,-0.337,0.287,-0.24
5.33,-0.167,2.0,0.068
5.34,-0.097,0.894,0.105
5.35,0.052,0.647,-0.04
5.36,-0.429,0.771,-0.229
5.37,-0.01,1.871,0.118
5.38,-0.317,1.113,0.073
5.39,0.121,0.508,0.025
5.4,-0.556,0.928,-0.246
5.41,-0.01,1.867,0.119
5.42,-0.282,0.96,-0.012
5.43,0.086,0.771,0.003
5.44,-0.423,0.475,-0.191
5.45,-0.033,2.0,0.052
5.46,-0.114,0.719,0.102
5.47,-0.031,1.042,0.024
5.48,-0.419,0.348,-0.187
5.49,-0.005,2.0,0.103
5.5,-0.19,0.825,0.04
5.51,0.04,0.846,-0.026
5.52,-0.564,0.826,-0.18
5.53,0.081,1.653,0.195
5.54,-0.359,1.312,0.048
5.55,0.143,0.455,-0.045
5.56,-0.513,1.045,-0.191
5.57,0.024,1.287,0.188
5.58,-0.281,0.993,0.131
5.59,0.041,0.936,-0.067
5.6,-0.382,0.486,-0.113
5.61,-0.063,1.606,0.127
5.62,-0.021,0.708,0.042
5.63,-0.163,1.118,-0.134
5.64,-0.254,0.321,-0.119
5.65,-0.055,1.561,0.153
5.66,-0.107,0.947,0.076
5.67,-0.077,0.767,-0.099
5.68,-0.372,0.812,-0.177
5.69,0.004,1.158,0.116
5.7,-0.259,1.27,-0.05
5.71,0.011,0.529,-0.172
5.72,-0.404,0.902,-0.159
5.73,-0.01,1.159,0.172
5.74,-0.202,1.112,0.025
5.75,-0.181,0.766,-0.192
5.76,-0.34,0.444,-0.132
5.77,-0.12,1.49,0.219
5.78,-0.146,0.891,0.032
5.79,-0.216,0.982,-0.164
5.8,-0.32,0.323,-0.11
5.81,-0.102,1.364,0.232
5.82,-0.247,0.965,0.021
5.83,-0.301,0.719,-0.119
5.84,-0.416,0.781,-0.1
5.85,-0.034,0.98,0.281
5.86,-0.289,1.124,0.067
5.87,-0.309,0.36,-0.124
5.88,-0.504,1.117,-0.055
5.89,0.097,0.831,0.151
5.9,-0.362,1.219,0.088
5.91,-0.295,0.264,-0.102
5.92,-0.393,1.357,-0.079
5.93,0.116,0.946,0.161
5.94,-0.181,0.655,0.055
5.95,-0.399,0.882,-0.185
5.96,-0.366,0.963,-0.076
5.97,-0.069,1.071,0.209
5.98,-0.099,0.558,0.037
5.99,-0.494,0.849,-0.2
6.0,-0.278,1.322,-0.063
6.01,-0.086,0.806,0.23
6.02,-0.169,0.855,0.044
6.03,-0.33,0.454,-0.217
6.04,-0.374,2.0,-0.074
6.05,0.096,0.591,0.099
6.06,-0.151,0.989,0.069
6.07,-0.299,0.45,-0.196
6.08,-0.426,2.0,-0.012
6.09,-0.017,0.615,0.171
6.1,-0.116,0.739,0.079
6.11,-0.446,0.807,-0.253
6.12,-0.245,1.714,-0.009
6.13,-0.126,1.041,0.066
6.14,0.034,0.441,0.087
6.15,-0.446,0.903,-0.159
6.16,-0.322,1.869,0.029
6.17,-0.098,0.811,0.062
6.18,0.034,0.809,0.055
6.19,-0.482,0.466,-0.222
6.2,-0.246,2.0,0.114
6.21,-0.137,0.38,0.053
6.22,-0.144,1.075,0.071
6.23,-0.358,0.302,-0.177
6.24,-0.282,2.0,0.113
6.25,-0.1,0.866,0.152
6.26,0.104,0.653,-0.039
6.27,-0.477,0.776,-0.227
6.28,-0.032,1.762,0.058
6.29,-0.272,1.179,0.071
6.3,0.204,0.504,0.005
6.31,-0.547,0.972,-0.275
6.32,0.092,1.885,0.127
6.33,-0.263,0.932,-0.008
6.34,0.117,0.765,0.008
6.35,-0.448,0.504,-0.218
6.36,-0.026,2.0,0.051
6.37,-0.056,0.684,0.011
6.38,-0.048,1.032,0.002
6.39,-0.362,0.34,-0.205
6.4,-0.055,2.0,0.128
6.41,-0.252,0.827,0.098
6.42,0.062,0.724,-0.015
6.43,-0.544,0.838,-0.251
6.44,0.085,1.454,0.141
6.45,-0.31,1.267,0.113
6.46,0.114,0.536,0.017
6.47,-0.523,1.004,-0.191
6.48,0.125,1.393,0.164
6.49,-0.208,1.084,0.076
6.5,-0.006,0.9,-0.055
6.51,-0.434,0.519,-0.169
6.52,-0.036,1.706,0.216
6.53,-0.082,0.734,0.056
6.54,-0.073,1.142,-0.054
6.55,-0.36,0.373,-0.179
6.56,-0.13,1.511,0.13
6.57,-0.169,0.882,0.079
6.58,-0.136,0.848,-0.044
6.59,-0.337,0.75,-0.16
6.6,-0.057,1.239,0.14
6.61,-0.232,1.235,0.081
6.62,0.028,0.57,-0.076
6.63,-0.521,0.935,-0.119
6.64,0.056,1.172,0.231
6.65,-0.229,1.211,0.107
6.66,-0.027,0.802,-0.089
6.67,-0.412,0.813,-0.052
6.68,-0.052,1.254,0.244
6.69,-0.315,0.975,0.045
6.7,-0.229,0.847,-0.11
6.71,-0.312,0.341,-0.09
6.72,-0.082,1.494,0.203
6.73,-0.15,0.754,0.015
6.74,-0.38,0.908,-0.092
6.75,-0.309,0.51,-0.111
6.76,-0.119,1.137,0.246
6.77,-0.144,1.177,-0.002
6.78,-0.215,0.448,-0.123
6.79,-0.416,1.042,-0.127
6.8,0.035,0.888,0.176
6.81,-0.367,1.32,0.022
6.82,-0.151,0.31,-0.105
6.83,-0.424,1.111,-0.079
6.84,0.085,1.039,0.177
6.85,-0.22,0.714,0.008
6.86,-0.417,0.842,-0.14
6.87,-0.37,0.484,-0.056
6.88,-0.174,1.253,0.159
6.89,-0.134,0.706,0.039
6.9,-0.542,0.771,-0.125
6.91,-0.254,0.869,-0.093
6.92,-0.056,0.983,0.167
6.93,-0.166,0.918,-0.019
6.94,-0.302,0.414,-0.152
6.95,-0.295,2.0,-0.07
6.96,0.149,0.72,0.122
6.97,-0.147,0.963,0.069
6.98,-0.309,0.482,-0.198
6.99,-0.448,1.573,-0.029
7.0,-0.083,0.63,0.107
7.01,-0.145,0.817,0.024
7.02,-0.401,0.685,-0.255
7.03,-0.26,1.346,0.019
7.04,-0.173,0.993,0.193
7.05,-0.021,0.515,0.04
7.06,-0.385,0.784,-0.203
7.07,-0.232,1.711,-0.046
7.08,-0.037,0.969,0.087
7.09,0.007,0.811,0.066
7.1,-0.436,0.445,-0.158
7.11,-0.228,2.0,0.079
7.12,-0.203,0.403,0.048
7.13,-0.058,1.107,0.045
7.14,-0.419,0.262,-0.274
7.15,-0.221,2.0,0.097
7.16,-0.118,0.776,0.023
7.17,0.012,0.659,0.054
7.18,-0.4,0.723,-0.204
7.19,-0.046,1.763,0.022
7.2,-0.127,1.202,0.042
7.21,0.118,0.498,-0.008
7.22,-0.55,0.944,-0.182
7.23,0.039,1.9,0.155
7.24,-0.311,0.949,0.065
7.25,0.062,0.748,-0.006
7.26,-0.525,0.557,-0.196
7.27,-0.08,1.793,0.086
7.28,-0.107,0.706,0.091
7.29,-0.057,1.081,0.016
7.3,-0.456,0.346,-0.158
7.31,-0.05,1.606,0.142
7.32,-0.128,0.78,0.039
7.33,-0.004,0.906,-0.057
7.34,-0.493,0.793,-0.16
7.35,0.055,1.253,0.193
7.36,-0.28,1.257,0.128
7.37,0.105,0.555,-0.051
7.38,-0.52,0.974,-0.163
7.39,0.03,1.185,0.133
7.4,-0.33,1.159,0.109
7.41,-0.104,0.771,-0.062
7.42,-0.334,0.427,-0.105
7.43,-0.108,1.567,0.13
7.44,-0.056,0.694,0.106
7.45,-0.226,1.124,-0.131
7.46,-0.27,0.303,-0.142
7.47,-0.205,1.436,0.27
7.48,-0.153,0.873,0.075
7.49,-0.354,0.814,-0.117
7.5,-0.231,0.621,-0.068
7.51,-0.045,1.218,0.21
7.52,-0.377,1.076,0.026
7.53,-0.256,0.398,-0.08
7.54,-0.442,1.126,-0.06
7.55,0.112,0.828,0.23
7.56,-0.298,1.207,0.052
7.57,-0.398,0.304,-0.161
7.58,-0.38,0.923,-0.059
7.59,0.007,1.067,0.154
7.6,-0.232,0.823,0.001
7.61,-0.37,0.703,-0.134
7.62,-0.35,0.825,-0.122
7.63,0.015,1.218,0.145
7.64,-0.182,0.534,0.044
7.65,-0.438,0.874,-0.091
7.66,-0.435,1.278,-0.055
7.67,-0.076,0.841,0.234
7.68,-0.26,0.899,0.074
7.69,-0.335,0.43,-0.154
7.7,-0.447,1.839,0.026
7.71,0.001,0.483,0.24
7.72,-0.29,1.06,0.123
7.73,-0.362,0.398,-0.214
7.74,-0.328,2.0,0.002
7.75,-0.11,0.715,0.141
7.76,0.014,0.666,0.052
7.77,-0.502,0.823,-0.228
7.78,-0.246,1.722,0.017
7.79,-0.226,0.995,0.072
7.8,0.121,0.515,0.073
7.81,-0.568,0.818,-0.172
7.82,-0.136,1.866,0.071
7.83,-0.191,0.844,0.079
7.84,0.131,0.809,0.016
7.85,-0.448,0.426,-0.236
7.86,-0.263,2.0,0.071
7.87,-0.16,0.493,0.044
7.88,-0.039,1.001,0.013
7.89,-0.435,0.344,-0.171
7.9,-0.209,2.0,0.127
7.91,-0.192,0.795,0.069
7.92,0.157,0.677,0.002
7.93,-0.474,0.847,-0.251
7.94,0.063,1.491,0.042
7.95,-0.299,1.18,0.079
7.96,0.14,0.584,0.016
7.97,-0.58,0.878,-0.165
7.98,0.13,1.954,0.146
7.99,-0.418,0.951,0.075
8.0,0.045,0.853,-0.009
8.01,-0.579,0.487,-0.139
8.02,-0.066,2.0,0.195
8.03,-0.289,0.676,0.115
8.04,-0.019,1.104,0.013
8.05,-0.555,0.361,-0.113
8.06,-0.031,1.727,0.19
8.07,-0.222,0.932,0.058
8.08,0.006,0.798,-0.068
8.09,-0.427,0.86,-0.174
8.1,-0.002,1.191,0.156
8.11,-0.23,1.354,0.075
8.12,0.036,0.478,-0.061
8.13,-0.36,0.964,-0.137
8.14,-0.015,1.222,0.091
8.15,-0.234,1.094,0.049
8.16,-0.049,0.886,-0.101
8.17,-0.283,0.415,-0.112
8.18,-0.122,1.545,0.128
8.19,-0.063,0.808,0.104
8.2,-0.2,1.042,-0.146
8.21,-0.271,0.361,-0.117
8.22,-0.129,1.459,0.168
8.23,-0.188,1.081,0.036
8.24,-0.085,0.725,-0.155
8.25,-0.263,0.763,-0.129
8.26,-0.114,0.939,0.214
8.27,-0.237,1.241,0.027
8.28,-0.36,0.318,-0.116
8.29,-0.322,1.082,-0.052
8.3,-0.053,0.918,0.232
8.31,-0.355,1.243,0.064
8.32,-0.332,0.367,-0.124
8.33,-0.465,0.875,-0.053
8.34,-0.027,1.074,0.14
8.35,-0.245,0.849,-0.028
8.36,-0.422,0.698,-0.124
8.37,-0.312,0.73,-0.032
8.38,-0.058,1.182,0.178
8.39,-0.176,0.614,0.048
8.4,-0.396,0.776,-0.179
8.41,-0.279,1.594,-0.04
8.42,0.004,0.78,0.144
8.43,-0.19,0.891,0.059
8.44,-0.327,0.339,-0.209
8.45,-0.442,1.908,0.028
8.46,-0.064,0.399,0.16
8.47,-0.199,1.091,0.05
8.48,-0.35,0.251,-0.269
8.49,-0.26,2.0,-0.034
8.5,-0.097,0.818,0.034
8.51,0.03,0.58,0.037
8.52,-0.43,0.782,-0.232
8.53,-0.132,1.721,-0.008
8.54,-0.197,1.085,0.011
8.55,0.01,1.312,0.177
8.56,-0.19,0.931,0.042
8.57,0.0,1.019,-0.093
8.58,-0.343,0.332,-0.11
8.59,-0.135,1.57,0.205
8.6,-0.186,0.708,0.123
8.61,-0.214,1.126,-0.089
8.62,-0.316,0.393,-0.113
8.63,-0.092,1.387,0.151
8.64,-0.184,1.135,0.017
8.65,-0.01,0.621,-0.152
8.66,-0.287,0.968,-0.12
8.67,0.026,0.972,0.204
8.68,-0.45,1.29,0.026
8.69,-0.227,0.466,-0.141
8.7,-0.385,0.809,-0.056
8.71,-0.054,1.03,0.249
8.72,-0.238,1.038,0.01
8.73,-0.378,0.73,-0.175
8.74,-0.31,0.472,-0.03
8.75,-0.154,1.363,0.201
8.76,-0.282,0.692,0.033
8.77,-0.453,0.771,-0.098
8.78,-0.293,1.056,0.003
8.79,0.021,1.012,0.203
8.8,-0.174,0.786,-0.04
8.81,-0.388,0.547,-0.246
8.82,-0.349,1.607,-0.012
8.83,0.007,0.542,0.189
8.84,-0.25,1.11,0.075
8.85,-0.412,0.254,-0.241
8.86,-0.284,2.0,0.034
8.87,-0.111,0.657,0.159
8.88,0.001,0.767,0.044
8.89,-0.488,0.634,-0.258
8.9,-0.197,1.751,0.043
8.91,-0.146,1.092,0.091
8.92,0.169,0.466,0.045
8.93,-0.569,0.947,-0.22
8.94,-0.042,1.879,0.093
8.95,-0.247,0.916,0.022
8.96,0.129,0.76,0.004
8.97,-0.532,0.515,-0.243
8.98,0.013,2.0,0.059
8.99,-0.154,0.707,0.057
9.0,0.045,1.048,-0.001
9.01,-0.504,0.299,-0.182
9.02,-0.148,1.717,0.242
9.03,-0.2,0.58,0.183
9.04,-0.085,1.145,-0.03
9.05,-0.414,0.437,-0.122
9.06,-0.031,1.421,0.197
9.07,-0.265,1.146,0.137
9.08,0.0,0.578,-0.127
9.09,-0.375,0.995,-0.161
9.1,0.009,1.13,0.111
9.11,-0.331,1.247,0.054
9.12,-0.064,0.624,-0.073
9.13,-0.375,0.737,-0.106
9.14,-0.12,1.283,0.19
9.15,-0.198,0.962,0.059
9.16,-0.326,0.917,-0.147
9.17,-0.334,0.309,-0.055
9.18,-0.183,1.476,0.261
9.19,-0.251,0.745,0.067
9.2,-0.311,0.881,-0.12
9.21,-0.438,0.574,-0.063
9.22,0.054,1.253,0.202
9.23,-0.331,0.999,0.043
9.24,-0.293,0.514,-0.138
9.25,-0.465,1.03,-0.085
9.26,0.085,0.822,0.151
9.27,-0.289,1.217,0.066
9.28,-0.36,0.338,-0.141
9.29,-0.349,1.106,-0.071
9.3,0.047,0.974,0.166
9.31,-0.126,0.732,0.025
9.32,-0.435,0.777,-0.185
9.33,-0.331,0.808,-0.057
9.34,-0.091,1.15,0.19
9.35,-0.153,0.55,0.029
9.36,-0.381,0.854,-0.221
9.37,-0.316,0.971,-0.117
9.38,-0.027,0.921,0.132
9.39,-0.263,0.903,0.004
9.4,-0.315,0.455,-0.196
9.41,-0.388,2.0,-0.04
9.42,0.076,0.564,0.219
9.43,-0.209,1.012,0.096
9.44,-0.322,0.37,-0.204
9.45,-0.351,2.0,-0.024
9.46,-0.036,0.72,0.101
9.47,-0.125,0.707,0.087
9.48,-0.446,0.854,-0.241
9.49,-0.265,1.736,0.017
9.5,-0.173,0.985,0.121
9.51,0.033,0.459,0.126
9.52,-0.517,0.907,-0.168
9.53,-0.244,1.745,0.033
9.54,-0.144,0.842,0.082
9.55,0.067,0.841,0.009
9.56,-0.455,0.402,-0.232
9.57,-0.224,2.0,0.062
9.58,-0.157,0.476,0.038
9.59,-0.077,0.971,0.063
9.6,-0.437,0.36,-0.217
9.61,-0.268,2.0,0.118
9.62,-0.182,0.825,0.084
9.63,0.09,0.664,0.005
9.64,-0.514,0.785,-0.256
9.65,-0.004,1.715,0.006
9.66,-0.293,1.188,0.087
9.67,0.137,0.478,0.017
9.68,-0.559,0.969,-0.237
9.69,0.071,1.874,0.195
9.7,-0.318,0.938,0.119
9.71,0.043,0.771,0.018
9.72,-0.431,0.581,-0.219
9.73,-0.147,1.948,0.094
9.74,-0.127,0.654,0.089
9.75,-0.072,1.011,-0.002
9.76,-0.42,0.375,-0.185
9.77,-0.124,1.713,0.104
9.78,-0.199,0.745,0.117
9.79,0.023,0.823,-0.031
9.8,-0.477,0.866,-0.193
9.81,0.07,1.429,0.172
9.82,-0.118,1.201,0.066
9.83,-0.043,0.566,-0.082
9.84,-0.416,1.049,-0.194
9.85,0.034,1.141,0.197
9.86,-0.229,1.305,0.083
9.87,0.032,0.636,-0.077
9.88,-0.332,0.77,-0.188
9.89,-0.024,1.436,0.06
9.9,-0.141,0.828,0.085
9.91,-0.131,1.094,-0.103
9.92,-0.377,0.259,-0.117
9.93,-0.061,1.644,0.145
9.94,-0.093,0.848,0.126
9.95,-0.113,0.936,-0.137
9.96,-0.355,0.591,-0.155
9.97,0.009,1.351,0.103
9.98,-0.233,1.213,0.037
9.99,0.091,0.6,-0.126
10.0,-0.399,0.926,-0.16
10.01,0.039,1.033,0.12
10.02,-0.235,1.346,0.071
10.03,-0.104,0.586,-0.184
10.04,-0.267,0.705,-0.119
10.05,-0.102,1.465,0.133
10.06,-0.13,0.945,0.098
10.07,-0.291,1.011,-0.103
10.08,-0.352,0.324,-0.07
10.09,-0.261,1.468,0.295
10.1,-0.234,0.882,0.124
10.11,-0.353,0.849,-0.118
10.12,-0.336,0.627,-0.09
10.13,-0.099,1.188,0.228
10.14,-0.314,1.094,0.084
10.15,-0.293,0.448,-0.095
10.16,-0.439,1.012,-0.056
10.17,-0.052,0.907,0.276
10.18,-0.305,1.334,0.069
10.19,-0.312,0.37,-0.1
10.2,-0.392,0.786,-0.059
10.21,-0.079,1.239,0.194
10.22,-0.163,0.831,0.004
10.23,-0.426,0.858,-0.128
10.24,-0.34,0.372,-0.085
10.25,-0.136,1.39,0.211
10.26,-0.17,0.773,0.079
10.27,-0.492,0.731,-0.086
10.28,-0.351,0.832,-0.042
10.29,-0.009,1.01,0.183
10.3,-0.265,1.015,0.053
10.31,-0.347,0.335,-0.147
10.32,-0.417,1.271,-0.06
10.33,0.085,0.695,0.119
10.34,-0.285,1.14,0.033
10.35,-0.368,0.304,-0.164
10.36,-0.456,1.141,-0.044
10.37,-0.021,0.956,0.133
10.38,-0.158,0.692,0.018
10.39,-0.431,0.73,-0.177
10.4,-0.166,1.075,-0.069
10.41,-0.128,1.089,0.218
10.42,-0.01,0.51,0.054
10.43,-0.509,0.881,-0.196
10.44,-0.354,1.172,-0.062
10.45,-0.095,0.725,0.176
10.46,-0.178,1.007,0.01
10.47,-0.311,0.3,-0.232
10.48,-0.369,1.765,-0.045
10.49,0.021,0.509,0.139
10.5,-0.287,1.075,0.08
10.51,-0.361,0.32,-0.182
10.52,-0.372,2.0,-0.036
10.53,0.021,0.817,0.116
10.54,-0.005,0.63,0.058
10.55,-0.524,0.886,-0.27
10.56,-0.155,1.594,-0.003
10.57,-0.227,0.921,0.051
10.58,0.084,0.601,0.088
10.59,-0.544,0.768,-0.212
10.6,-0.182,1.846,0.033
10.61,-0.222,0.786,0.114
10.62,-0.034,0.868,0.077
10.63,-0.439,0.58,-0.194
10.64,-0.114,2.0,0.108
10.65,-0.168,0.584,0.056
10.66,-0.025,1.0,0.039
10.67,-0.447,0.318,-0.208
10.68,-0.204,2.0,0.121
10.69,-0.209,0.609,0.081
10.7,0.023,0.8,0.015
10.71,-0.453,0.643,-0.257
10.72,-0.085,1.476,0.069
10.73,-0.267,1.149,0.148
10.74,0.094,0.545,0.003
10.75,-0.539,1.009,-0.185
10.76,0.133,1.499,0.104
10.77,-0.224,1.115,0.049
10.78,0.054,0.729,-0.013
10.79,-0.535,0.725,-0.179
10.8,0.027,1.982,0.163
10.81,-0.249,0.774,0.058
10.82,-0.1,1.0,-0.012
10.83,-0.388,0.362,-0.17
10.84,-0.163,1.667,0.148
10.85,-0.167,0.676,0.098
10.86,-0.022,1.005,-0.038
10.87,-0.418,0.637,-0.202
10.88,0.095,1.423,0.21
10.89,-0.162,1.206,-0.01
10.9,0.005,0.601,-0.067
10.91,-0.471,1.026,-0.173
10.92,0.117,1.571,0.136
10.93,-0.339,1.28,0.089
10.94,0.019,0.686,-0.031
10.95,-0.478,0.683,-0.145
10.96,-0.054,1.494,0.121
10.97,-0.167,0.678,0.115
10.98,-0.134,1.113,-0.075
10.99,-0.271,0.283,-0.196
11.0,-0.117,1.601,0.123
11.01,-0.121,0.765,0.059
11.02,-0.111,1.003,-0.119
11.03,-0.327,0.599,-0.194
11.04,0.017,1.302,0.211
11.05,-0.131,1.309,0.054
11.06,0.047,0.52,-0.122
11.07,-0.353,1.024,-0.143
11.08,-0.02,0.937,0.203
11.09,-0.376,1.202,-0.025
11.1,-0.107,0.597,-0.104
11.11,-0.392,0.582,-0.169
11.12,-0.061,1.413,0.186
11.13,-0.113,0.734,0.054
11.14,-0.32,1.094,-0.148
11.15,-0.369,0.231,-0.1
11.16,-0.146,1.513,0.181
11.17,-0.028,0.954,0.108
11.18,-0.161,0.758,-0.126
11.19,-0.36,0.768,-0.118
11.2,0.096,1.191,0.17
11.21,-0.47,1.108,0.089
11.22,-0.096,0.455,-0.05
11.23,-0.576,0.948,-0.08
11.24,0.015,0.973,0.266
11.25,-0.32,1.152,0.119
11.26,-0.271,0.652,-0.124
11.27,-0.38,0.553,-0.122
11.28,-0.064,1.345,0.202
11.29,-0.032,1.075,0.05
11.3,-0.303,0.849,-0.105
11.31,-0.27,0.462,-0.028
11.32,-0.088,1.487,0.222
11.33,-0.273,0.74,0.071
11.34,-0.325,0.804,-0.063
11.35,-0.427,0.831,-0.125
11.36,0.109,1.027,0.159
11.37,-0.205,1.037,0.048
11.38,-0.33,0.43,-0.158
11.39,-0.488,1.008,-0.079
11.4,-0.163,0.777,0.236
11.41,-0.272,1.402,0.045
11.42,-0.288,0.362,-0.118
11.43,-0.308,1.676,-0.062
11.44,0.095,0.839,0.185
11.45,-0.144,0.684,0.048
11.46,-0.302,0.746,-0.203
11.47,-0.261,1.51,-0.152
11.48,0.021,1.122,0.172
11.49,0.076,0.436,0.061
11.5,-0.55,1.055,-0.232
11.51,-0.396,0.794,-0.018
11.52,-0.251,0.82,0.111
11.53,-0.216,0.973,0.024
11.54,-0.338,0.335,-0.144
11.55,-0.396,1.967,-0.01
11.56,-0.036,0.652,0.249
11.57,-0.25,0.987,0.105
11.58,-0.331,0.343,-0.188
11.59,-0.366,2.0,-0.099
11.6,0.0,0.737,0.136
11.61,-0.049,0.753,0.083
11.62,-0.457,0.751,-0.202
11.63,-0.384,1.229,0.034
11.64,-0.198,0.907,0.122
11.65,-0.085,0.652,0.065
11.66,-0.511,0.719,-0.187
11.67,-0.195,1.664,0.004
11.68,-0.143,0.889,0.139
11.69,-0.087,0.708,0.096
11.7,-0.364,0.467,-0.173
11.71,-0.416,2.0,-0.044
11.72,-0.021,0.506,0.082
11.73,-0.153,1.079,0.107
11.74,-0.446,0.277,-0.218
11.75,-0.446,1.964,0.107
11.76,-0.158,0.468,0.137
11.77,-0.134,0.861,0.091
11.78,-0.372,0.609,-0.211
11.79,-0.246,1.584,0.035
11.8,-0.16,1.167,0.15
11.81,0.21,0.476,0.06
11.82,-0.538,0.882,-0.178
11.83,-0.136,1.769,0.09
11.84,-0.246,0.951,0.086
11.85,0.112,0.756,0.062
11.86,-0.558,0.545,-0.212
11.87,-0.141,2.0,0.055
11.88,-0.202,0.445,0.017
11.89,-0.05,1.041,0.072
11.9,-0.447,0.306,-0.227
11.91,-0.158,2.0,0.066
11.92,0.015,0.855,0.073
11.93,0.094,0.708,-0.033
11.94,-0.399,0.719,-0.274
11.95,0.031,1.807,0.032
11.96,-0.293,1.124,0.104
11.97,0.228,0.601,-0.003
11.98,-0.628,0.993,-0.257
11.99,0.071,1.936,0.124
12.0,-0.415,0.825,-0.053
12.01,0.106,0.782,0.046
12.02,-0.554,0.559,-0.206
12.03,-0.073,2.0,0.11
12.04,-0.226,0.746,0.09
12.05,0.021,0.984,0.038
12.06,-0.428,0.304,-0.155
12.07,-0.118,1.833,0.074
12.08,-0.202,0.747,0.111
12.09,0.044,0.909,-0.019
12.1,-0.484,0.725,-0.187
12.11,0.138,1.863,0.149
12.12,-0.447,1.155,0.088
12.13,0.159,0.487,-0.021
12.14,-0.59,1.002,-0.196
12.15,0.087,1.568,0.146
12.16,-0.312,1.164,0.046
12.17,0.129,0.688,-0.01
12.18,-0.527,0.631,-0.154
12.19,-0.022,1.54,0.148
12.2,-0.16,0.608,0.074
12.21,-0.061,1.234,-0.054
12.22,-0.374,0.274,-0.18
12.23,-0.023,2.0,0.206
12.24,-0.053,0.751,0.051
12.25,-0.141,1.053,-0.063
12.26,-0.413,0.51,-0.126
12.27,-0.089,1.339,0.135
12.28,-0.261,1.177,0.045
12.29,0.001,0.558,-0.104
12.3,-0.337,1.013,-0.157
12.31,0.014,1.074,0.172
12.32,-0.296,1.174,0.068
12.33,-0.136,0.602,-0.137
12.34,-0.35,0.732,-0.169
12.35,0.025,1.34,0.092
12.36,-0.03,1.053,0.036
12.37,-0.144,0.949,-0.147
12.38,-0.221,0.368,-0.08
12.39,-0.235,1.455,0.228
12.4,-0.189,0.828,-0.021
12.41,-0.19,0.912,-0.13
12.42,-0.314,0.5,-0.173
12.43,-0.011,1.259,0.231
12.44,-0.289,0.952,0.046
12.45,-0.339,0.614,-0.147
12.46,-0.402,0.915,-0.09
12.47,-0.113,0.968,0.255
12.48,-0.252,1.443,0.053
12.49,-0.168,0.391,-0.158
12.5,-0.354,0.862,-0.061
12.51,0.131,1.224,0.147
12.52,-0.258,0.85,0.008
12.53,-0.367,0.854,-0.068
12.54,-0.378,0.61,-0.029
12.55,-0.022,1.38,0.241
12.56,-0.169,0.466,0.137
12.57,-0.425,1.0,-0.124
12.58,-0.489,0.538,-0.08
12.59,-0.108,1.042,0.196
12.6,-0.292,1.133,0.025
12.61,-0.268,0.367,-0.142
12.62,-0.373,1.507,-0.053
12.63,0.084,0.764,0.235
12.64,-0.319,1.014,0.193
12.65,-0.277,0.372,-0.142
12.66,-0.422,1.635,-0.083
12.67,0.059,0.859,0.172
12.68,-0.129,0.712,0.074
12.69,-0.456,0.857,-0.172
12.7,-0.523,0.562,-0.021
12.71,-0.191,1.133,0.143
12.72,-0.248,0.721,0.068
12.73,-0.398,0.774,-0.132
12.74,-0.246,1.533,-0.109
12.75,0.044,0.91,0.183
12.76,-0.088,0.795,0.061
12.77,-0.372,0.535,-0.127
12.78,-0.424,1.844,-0.023
12.79,0.024,0.515,0.175
12.8,-0.205,1.098,0.044
12.81,-0.354,0.403,-0.251
12.82,-0.452,1.302,-0.024
12.83,-0.121,0.682,0.095
12.84,-0.166,0.811,0.046
12.85,-0.372,0.662,-0.174
12.86,-0.275,1.627,-0.034
12.87,-0.077,1.176,0.105
12.88,0.032,0.393,0.097
12.89,-0.458,0.92,-0.196
12.9,-0.243,1.91,-0.056
12.91,-0.189,0.737,0.04
12.92,0.015,0.876,0.049
12.93,-0.422,0.38,-0.204
12.94,-0.381,1.798,0.105
12.95,-0.185,0.317,0.116
12.96,-0.204,1.114,0.043
12.97,-0.322,0.139,-0.202
12.98,-0.259,2.0,0.031
12.99,-0.03,0.892,0.054
13.0,0.087,0.554,-0.002
13.01,-0.414,0.801,-0.211
13.02,-0.148,1.745,0.101
13.03,-0.226,1.064,0.057
13.04,0.147,0.58,-0.012
13.05,-0.601,1.041,-0.248
13.06,0.011,1.862,0.144
13.07,-0.446,0.974,0.041
13.08,0.144,0.626,0.069
13.09,-0.566,0.708,-0.239
13.1,-0.074,1.462,0.085
13.11,-0.063,0.783,0.077
13.12,-0.071,0.991,0.01
13.13,-0.313,0.288,-0.13
13.14,-0.177,1.823,0.152
13.15,-0.14,0.66,0.174
13.16,-0.132,1.092,-0.032
13.17,-0.55,0.584,-0.19
13.18,0.088,1.723,0.183
13.19,-0.302,1.258,0.051
13.2,0.113,0.503,-0.047
13.21,-0.54,1.077,-0.175
13.22,0.001,1.177,0.128
13.23,-0.339,1.083,0.128
13.24,0.039,0.785,-0.025
13.25,-0.49,0.668,-0.107
13.26,0.005,1.463,0.154
13.27,-0.17,0.745,0.1
13.28,-0.107,1.172,-0.102
13.29,-0.371,0.283,-0.166
13.3,-0.026,1.657,0.225
13.31,-0.064,0.88,0.045
13.32,-0.081,0.942,-0.098
13.33,-0.305,0.672,-0.194
13.34,-0.061,1.223,0.095
13.35,-0.292,1.239,-0.029
13.36,0.024,0.486,-0.099
13.37,-0.355,0.988,-0.193
13.38,0.04,1.142,0.145
13.39,-0.223,1.127,0.077
13.4,-0.128,0.719,-0.139
13.41,-0.322,0.63,-0.133
13.42,-0.021,1.436,0.124
13.43,-0.157,0.983,0.137
13.44,-0.141,0.987,-0.082
13.45,-0.257,0.331,-0.118
13.46,-0.208,1.497,0.259
13.47,-0.218,0.814,0.051
13.48,-0.289,0.852,-0.15
13.49,-0.379,0.599,-0.126
13.5,-0.048,1.172,0.226
13.51,-0.219,1.189,0.004
13.52,-0.22,0.474,-0.172
13.53,-0.464,1.01,-0.103
13.54,0.026,1.042,0.246
13.55,-0.268,1.362,0.066
13.56,-0.167,0.536,-0.167
13.57,-0.41,0.727,-0.059
13.58,-0.026,1.322,0.227
13.59,-0.253,0.843,0.037
13.6,-0.365,0.858,-0.104
13.61,-0.39,0.416,-0.082
13.62,-0.046,1.456,0.152
13.63,-0.217,0.609,0.074
13.64,-0.334,0.896,-0.147
13.65,-0.475,0.63,-0.112
13.66,-0.076,1.021,0.243
13.67,-0.308,1.292,0.018
13.68,-0.18,0.309,-0.139
13.69,-0.499,1.045,-0.083
13.7,0.161,0.917,0.167
13.71,-0.286,1.252,0.006
13.72,-0.271,0.4,-0.114
13.73,-0.39,1.217,-0.077
13.74,0.067,1.16,0.205
13.75,-0.054,0.561,0.026
13.76,-0.467,1.028,-0.217
13.77,-0.358,0.439,-0.072
13.78,-0.27,1.129,0.103
13.79,-0.137,0.834,0.006
13.8,-0.378,0.626,-0.162
13.81,-0.26,1.119,-0.107
13.82,0.003,0.92,0.156
13.83,-0.117,0.938,0.016
13.84,-0.296,0.381,-0.168
13.85,-0.364,2.0,-0.069
13.86,-0.014,0.536,0.13
13.87,-0.171,1.069,0.076
13.88,-0.401,0.313,-0.256
13.89,-0.457,1.491,0.013
13.9,-0.137,0.541,0.126
13.91,-0.236,0.926,0.091
13.92,-0.456,0.545,-0.212
13.93,-0.294,1.648,0.021
13.94,-0.11,1.179,0.088
13.95,0.099,0.422,0.095
13.96,-0.53,0.995,-0.189
13.97,-0.248,1.75,0.028
13.98,-0.215,0.823,0.041
13.99,0.036,0.808,0.103
14.0,-0.535,0.534,-0.204
14.01,-0.227,2.0,0.162
14.02,-0.197,0.448,0.097
14.03,-0.139,1.045,0.102
14.04,-0.368,0.249,-0.159
14.05,-0.332,2.0,0.091
14.06,-0.088,0.83,0.169
14.07,0.054,0.744,0.022
14.08,-0.43,0.724,-0.231
14.09,-0.027,1.829,0.129
14.1,-0.359,1.015,0.091
14.11,0.151,0.54,0.033
14.12,-0.648,0.958,-0.239
14.13,0.088,1.758,0.122
14.14,-0.33,0.996,0.022
14.15,0.167,0.675,0.024
14.16,-0.474,0.593,-0.231
14.17,-0.064,1.774,0.026
14.18,-0.068,0.699,0.047
14.19,-0.003,1.073,-0.027
14.2,-0.391,0.291,-0.214
14.21,-0.019,2.0,0.066
14.22,-0.174,0.76,0.058
14.23,0.065,0.845,-0.056
14.24,-0.516,0.789,-0.214
14.25,0.067,1.669,0.172
14.26,-0.362,1.217,0.078
14.27,0.124,0.484,-0.017
14.28,-0.573,1.009,-0.206
14.29,0.076,1.236,0.164
14.3,-0.306,1.08,0.057
14.31,0.093,0.881,-0.042
14.32,-0.445,0.545,-0.147
14.33,0.07,1.745,0.201
14.34,-0.09,0.729,0.106
14.35,-0.121,1.143,-0.058
14.36,-0.415,0.364,-0.134
14.37,-0.043,1.754,0.156
14.38,-0.206,0.926,0.015
14.39,-0.017,0.802,-0.061
14.4,-0.434,0.819,-0.139
14.41,-0.039,1.211,0.111
14.42,-0.3,1.235,0.111
14.43,0.042,0.586,-0.061
14.44,-0.392,0.967,-0.13
14.45,0.03,1.205,0.097
14.46,-0.23,1.111,0.038
14.47,-0.033,0.847,-0.159
14.48,-0.418,0.522,-0.106
14.49,-0.098,1.499,0.187
14.5,-0.123,0.828,0.076
14.51,-0.127,1.082,-0.108
14.52,-0.307,0.372,-0.102
14.53,-0.198,1.371,0.272
14.54,-0.274,0.903,-0.015
14.55,-0.233,0.679,-0.122
14.56,-0.349,0.83,-0.147
14.57,0.084,1.105,0.2
14.58,-0.368,1.129,0.082
14.59,-0.226,0.503,-0.103
14.6,-0.548,0.95,-0.047
14.61,-0.097,0.923,0.295
14.62,-0.337,1.22,0.068
14.63,-0.254,0.594,-0.096
14.64,-0.296,0.672,-0.085
14.65,0.058,0.997,0.195
14.66,-0.192,0.635,0.014
14.67,-0.364,0.846,-0.164
14.68,-0.197,1.284,-0.1
14.69,-0.018,1.148,0.218
14.7,-0.044,0.499,0.054
14.71,-0.517,0.992,-0.229
14.72,-0.383,0.716,-0.062
14.73,-0.18,0.81,0.115
14.74,-0.243,1.159,-0.003
14.75,-0.207,0.287,-0.227
14.76,-0.244,2.0,-0.066
14.77,0.164,0.635,0.189
14.78,-0.144,0.959,0.085
14.79,-0.327,0.376,-0.196
14.8,-0.395,2.0,-0.035
14.81,-0.008,0.886,0.091
14.82,0.016,0.631,0.106
14.83,-0.6,0.942,-0.241
14.84,-0.238,1.244,0.098
14.85,-0.356,0.829,0.139
14.86,-0.128,0.664,0.058
14.87,-0.522,0.713,-0.167
14.88,-0.263,1.674,0.064
14.89,-0.062,1.001,0.18
14.9,-0.028,0.736,0.066
14.91,-0.372,0.45,-0.198
14.92,-0.26,2.0,0.023
14.93,-0.035,0.655,0.09
14.94,-0.083,1.048,0.026
14.95,-0.531,0.409,-0.244
14.96,-0.15,2.0,0.081
14.97,-0.29,0.656,-0.007
14.98,0.02,0.68,0.07
14.99,-0.549,0.766,-0.222
15.0,-0.01,1.615,0.054
15.01,-0.238,1.338,0.132
15.02,0.204,0.468,-0.003
15.03,-0.543,0.916,-0.19
15.04,0.062,1.781,0.048
15.05,-0.219,0.915,0.057
15.06,0.071,0.949,-0.018
15.07,-0.529,0.426,-0.183
15.08,-0.071,2.0,0.208
15.09,-0.273,0.57,0.045
15.1,-0.021,1.008,0.044
15.11,-0.531,0.417,-0.203
15.12,-0.09,1.515,0.157
15.13,-0.129,1.001,0.027
15.14,0.059,0.703,0.005
15.15,-0.471,0.914,-0.163
15.16,0.031,1.315,0.223
15.17,-0.246,1.091,0.145
15.18,0.087,0.739,-0.04
15.19,-0.605,0.904,-0.192
15.2,0.108,1.386,0.225
15.21,-0.256,1.09,0.061
15.22,0.01,0.914,-0.05
15.23,-0.338,0.461,-0.173
15.24,-0.178,1.631,0.13
15.25,-0.14,0.727,0.073
15.26,-0.174,1.07,-0.05
15.27,-0.276,0.388,-0.129
15.28,-0.098,1.526,0.147
15.29,-0.086,0.986,0.081
15.3,-0.061,0.774,-0.114
15.31,-0.447,0.903,-0.116
15.32,0.122,1.189,0.241
15.33,-0.288,1.44,0.028
15.34,0.104,0.554,-0.072
15.35,-0.519,0.953,-0.133
15.36,0.016,1.22,0.163
15.37,-0.339,1.067,-0.023
15.38,-0.051,0.872,-0.16
15.39,-0.291,0.341,-0.132
15.4,-0.146,1.582,0.145
15.41,-0.135,0.726,0.105
15.42,-0.303,1.079,-0.169
15.43,-0.287,0.374,-0.119
15.44,-0.041,1.448,0.147
15.45,-0.08,1.23,0.032
15.46,-0.144,0.791,-0.104
15.47,-0.34,0.823,-0.125
15.48,0.077,1.087,0.159
15.49,-0.281,1.131,0.038
15.5,-0.287,0.375,-0.113
15.51,-0.445,1.14,-0.041
15.52,0.131,0.844,0.128
15.53,-0.164,1.089,0.003
15.54,-0.419,0.525,-0.226
15.55,-0.347,0.665,-0.028
15.56,-0.176,1.046,0.169
15.57,-0.137,0.863,0.029
15.58,-0.374,0.766,-0.144
15.59,-0.15,1.028,-0.011
15.6,-0.017,1.235,0.187
15.61,-0.132,0.511,0.045
15.62,-0.405,0.834,-0.195
15.63,-0.256,1.458,-0.087
15.64,-0.022,0.711,0.174
15.65,-0.151,1.008,0.017
15.66,-0.411,0.376,-0.225
15.67,-0.45,1.271,-0.023
15.68,-0.078,0.558,0.101
15.69,-0.272,1.139,0.047
15.7,-0.35,0.323,-0.214
15.71,-0.194,1.714,-0.032
15.72,-0.05,1.018,0.141
15.73,-0.033,0.445,0.077
15.74,-0.471,0.947,-0.16
15.75,-0.261,1.611,-0.091
15.76,-0.166,1.032,0.093
15.77,0.041,0.542,0.111
15.78,-0.543,0.792,-0.213
15.79,-0.254,1.534,0.051
15.8,-0.251,0.46,0.153
15.81,-0.216,1.083,0.068
15.82,-0.302,0.199,-0.227
15.83,-0.424,2.0,0.006
15.84,0.014,0.639,0.083
15.85,-0.09,0.852,0.119
15.86,-0.364,0.478,-0.181
15.87,-0.382,1.898,0.076
15.88,-0.151,0.942,0.141
15.89,0.047,0.546,0.064
15.9,-0.649,0.934,-0.152
15.91,-0.093,1.523,0.144
15.92,-0.4,0.724,0.079
15.93,0.007,0.712,0.079
15.94,-0.524,0.643,-0.179
15.95,-0.121,1.847,0.104
15.96,-0.131,0.884,0.143
15.97,0.062,0.911,0.056
15.98,-0.369,0.279,-0.211
15.99,-0.105,2.0,0.045
16.0,-0.057,0.678,0.046
16.01,0.071,1.044,-0.049
16.02,-0.528,0.491,-0.251
16.03,-0.063,2.0,0.092
16.04,-0.329,0.784,-0.083
16.05,0.181,0.533,0.01
16.06,-0.539,0.937,-0.226
16.07,0.037,1.317,0.058
16.08,-0.209,1.242,0.067
16.09,0.106,0.632,0.021
16.1,-0.483,0.699,-0.118
16.11,0.053,1.831,0.084
16.12,-0.161,0.816,0.056
16.13,-0.032,1.062,-0.003
16.14,-0.478,0.325,-0.196
16.15,-0.098,2.0,0.286
16.16,-0.341,0.631,0.039
16.17,-0.006,0.866,0.002
16.18,-0.495,0.607,-0.194
16.19,-0.146,1.34,0.185
16.2,-0.277,1.07,0.09
16.21,0.101,0.678,-0.029
16.22,-0.448,0.965,-0.117
16.23,0.103,1.217,0.146
16.24,-0.347,1.182,0.207
16.25,0.032,0.766,-0.079
16.26,-0.428,0.915,-0.13
16.27,0.151,1.35,0.201
16.28,-0.21,1.27,0.023
16.29,-0.007,0.79,-0.139
16.3,-0.354,0.526,-0.095
16.31,-0.205,1.466,0.162
16.32,-0.241,0.774,0.016
16.33,-0.193,1.034,-0.127
16.34,-0.22,0.338,-0.112
16.35,-0.058,1.405,0.195
16.36,-0.256,0.826,0.039
16.37,-0.328,0.789,-0.162
16.38,-0.458,0.837,-0.06
16.39,-0.107,1.041,0.254
16.4,-0.238,1.455,0.106
16.41,-0.093,0.39,-0.173
16.42,-0.31,1.105,-0.065
16.43,0.09,1.05,0.17
16.44,-0.334,0.917,0.01
16.45,-0.325,0.668,-0.129
16.46,-0.274,0.944,-0.125
16.47,-0.035,1.227,0.183
16.48,-0.015,0.449,0.095
16.49,-0.555,1.067,-0.233
16.5,-0.379,0.48,-0.051
16.51,-0.292,1.018,0.148
16.52,-0.187,1.098,0.005
16.53,-0.229,0.446,-0.138
16.54,-0.296,1.567,-0.044
16.55,0.089,0.74,0.212
16.56,-0.223,1.029,-0.037
16.57,-0.264,0.298,-0.177
16.58,-0.325,1.815,-0.108
16.59,0.041,0.735,0.182
16.6,-0.135,0.818,0.063
16.61,-0.453,0.763,-0.259
16.62,-0.469,0.753,0.035
16.63,-0.261,0.936,0.075
16.64,-0.187,0.751,0.017
16.65,-0.386,0.625,-0.21
16.66,-0.146,1.667,-0.005
16.67,-0.079,1.093,0.133
16.68,0.05,0.603,0.09
16.69,-0.5,0.583,-0.155
16.7,-0.242,2.0,0.038
16.71,-0.027,0.672,0.073
16.72,0.093,1.077,0.029
16.73,-0.445,0.323,-0.252
16.74,-0.178,2.0,0.092
16.75,-0.227,0.447,0.022
16.76,-0.013,0.873,0.056
16.77,-0.446,0.589,-0.221
16.78,-0.101,1.673,0.08
16.79,-0.137,1.262,0.087
16.8,0.146,0.418,-0.024
16.81,-0.519,0.948,-0.155
16.82,0.045,1.714,0.064
16.83,-0.234,1.029,0.121
16.84,0.09,0.865,-0.014
16.85,-0.529,0.568,-0.182
16.86,-0.095,2.0,0.212
16.87,-0.35,0.57,0.0
16.88,0.003,1.021,-0.001
16.89,0.105,1.039,-0.055
16.9,-0.643,0.383,-0.241
16.91,-0.125,2.0,0.154
16.92,-0.279,0.494,-0.012
16.93,-0.047,1.023,0.083
16.94,-0.451,0.393,-0.178
16.95,-0.205,1.489,0.172
16.96,-0.126,1.036,0.073
16.97,0.089,0.621,0.0
16.98,-0.411,0.917,-0.169
16.99,0.09,1.271,0.135
17.0,-0.205,1.053,0.033
17.01,0.045,0.69,-0.133
17.02,-0.438,0.927,-0.137
17.03,0.182,1.394,0.204
17.04,-0.204,1.337,0.087
17.05,-0.073,0.661,-0.094
17.06,-0.427,0.626,-0.055
17.07,-0.264,1.405,0.196
17.08,-0.261,0.792,0.019
17.09,-0.231,1.013,-0.095
17.1,-0.216,0.289,-0.115
17.11,-0.146,1.486,0.2
17.12,-0.204,0.678,0.034
17.13,-0.363,0.922,-0.127
17.14,-0.367,0.678,-0.105
17.15,-0.129,1.072,0.186
17.16,-0.173,1.464,0.058
17.17,-0.103,0.41,-0.139
17.18,-0.314,1.155,-0.012
17.19,0.213,1.001,0.183
17.2,-0.397,1.046,0.039
17.21,-0.328,0.612,-0.092
17.22,-0.312,1.251,-0.037
17.23,0.025,1.126,0.207
17.24,-0.066,0.443,0.068
17.25,-0.518,1.09,-0.219
17.26,-0.427,0.497,-0.001
17.27,-0.213,0.982,0.096
17.28,-0.332,0.827,-0.017
17.29,-0.392,0.519,-0.12
17.3,-0.194,1.958,-0.006
17.31,-0.035,0.757,0.2
17.32,-0.178,0.914,0.091
17.33,-0.354,0.33,-0.21
17.34,-0.479,2.0,0.019
17.35,0.023,0.608,0.12
17.36,-0.1,0.895,0.098
17.37,-0.432,0.565,-0.246
17.38,-0.169,1.809,0.067
17.39,-0.243,0.74,0.05
17.4,-0.037,0.612,0.076
17.41,-0.458,0.8,-0.215
17.42,-0.082,1.521,0.087
17.43,-0.13,1.22,0.112
17.44,0.082,0.518,0.005
17.45,-0.413,0.669,-0.212
17.46,-0.026,2.0,0.025
17.47,-0.109,0.689,0.086
17.48,-0.062,1.102,0.014
17.49,-0.454,0.273,-0.223
17.5,-0.119,2.0,0.135
17.51,-0.297,0.5,0.005
17.52,-0.04,0.896,0.046
17.53,-0.519,0.561,-0.22
17.54,-0.037,1.47,0.108
17.55,-0.173,1.219,0.064
17.56,0.159,0.559,-0.054
17.57,-0.479,0.994,-0.122
17.58,0.077,1.242,0.035
17.59,-0.265,1.082,0.105
17.6,0.024,0.824,-0.102
17.61,-0.435,0.625,-0.119
17.62,0.163,1.776,0.166
17.63,-0.167,0.971,0.042
17.64,-0.034,1.023,-0.076
17.65,-0.351,0.367,-0.147
17.66,-0.229,1.522,0.156
17.67,-0.26,0.784,-0.003
17.68,-0.145,0.949,-0.093
17.69,-0.208,0.57,-0.127
17.7,-0.157,1.222,0.237
17.71,-0.277,1.081,0.022
17.72,-0.106,0.608,-0.147
17.73,-0.383,0.993,-0.051
17.74,-0.07,1.066,0.244
17.75,-0.193,1.385,-0.028
17.76,-0.128,0.538,-0.157
17.77,-0.249,0.853,-0.023
17.78,0.026,1.259,0.125
17.79,-0.211,0.668,0.024
17.8,-0.399,0.71,-0.195
17.81,-0.246,1.207,-0.052
17.82,-0.122,1.029,0.224
17.83,-0.067,0.531,0.038
17.84,-0.592,0.897,-0.2
17.85,-0.343,0.734,0.067
17.86,-0.235,0.815,0.094
17.87,-0.229,0.939,0.011
17.88,-0.401,0.328,-0.206
17.89,-0.255,2.0,-0.019
17.9,0.044,0.653,0.105
17.91,-0.04,0.958,0.044
17.92,-0.413,0.303,-0.236
17.93,-0.212,2.0,0.083
17.94,-0.049,0.767,0.076
17.95,0.042,0.806,0.024
17.96,-0.551,0.741,-0.254
17.97,0.019,1.981,0.068
17.98,-0.321,0.909,-0.031
17.99,0.127,0.536,0.061
18.0,-0.578,0.949,-0.202
18.01,-0.002,1.468,0.054
18.02,-0.107,1.135,0.113
18.03,0.088,0.712,-0.022
18.04,-0.438,0.514,-0.135
18.05,-0.07,1.67,0.088
18.06,-0.108,0.56,0.11
18.07,-0.138,1.288,-0.05
18.08,-0.343,0.244,-0.176
18.09,0.025,2.0,0.133
18.1,-0.155,0.915,0.05
18.11,-0.045,0.74,-0.057
18.12,-0.543,0.84,-0.166
18.13,-0.109,1.2,0.114
18.14,-0.304,1.179,0.114
18.15,0.099,0.549,-0.066
18.16,-0.496,0.978,-0.159
18.17,0.084,1.166,0.146
18.18,-0.347,0.987,0.024
18.19,-0.236,0.767,-0.13
18.2,-0.381,0.407,-0.13
18.21,-0.053,1.549,0.077
18.22,-0.026,0.817,0.044
18.23,-0.201,1.04,-0.129
18.24,-0.267,0.397,-0.062
18.25,-0.219,1.419,0.269
18.26,-0.281,0.968,0.051
18.27,-0.2,0.66,-0.084
18.28,-0.421,0.905,-0.068
18.29,0.108,1.014,0.188
18.3,-0.291,1.216,0.05
18.31,-0.278,0.418,-0.118
18.32,-0.481,0.948,-0.027
18.33,-0.132,0.849,0.229
18.34,-0.234,1.229,0.043
18.35,-0.298,0.568,-0.152
18.36,-0.352,0.635,-0.045
18.37,-0.007,1.265,0.068
18.38,-0.165,0.667,0.047
18.39,-0.416,0.867,-0.107
18.4,-0.24,1.123,-0.048
18.41,-0.08,1.032,0.222
18.42,-0.064,0.701,0.036
18.43,-0.507,0.644,-0.211
18.44,-0.401,1.134,-0.012
18.45,-0.135,0.572,0.05
18.46,-0.317,1.221,0.046
18.47,-0.324,0.123,-0.201
18.48,-0.312,2.0,0.009
18.49,0.005,0.692,0.148
18.5,-0.052,0.804,0.086
18.51,-0.464,0.642,-0.207
18.52,-0.26,1.741,0.07
18.53,-0.173,1.054,0.125
18.54,0.152,0.535,0.092
18.55,-0.609,0.987,-0.223
18.56,-0.026,1.858,0.047
18.57,-0.31,0.843,-0.03
18.58,0.13,0.747,0.052
18.59,-0.55,0.608,-0.231
18.6,-0.007,2.0,0.076
18.61,-0.254,0.945,0.082
18.62,0.06,0.98,-0.02
18.63,-0.344,0.355,-0.171
18.64,-0.085,1.852,0.173
18.65,-0.146,0.627,0.098
18.66,-0.132,1.146,-0.013
18.67,-0.409,0.418,-0.142
18.68,0.066,1.922,0.156
18.69,-0.228,1.096,0.034
18.7,0.09,0.641,-0.069
18.71,-0.562,0.993,-0.153
18.72,0.115,1.145,0.138
18.73,-0.356,1.27,0.035
18.74,0.097,0.626,-0.09
18.75,-0.427,0.832,-0.147
18.76,-0.034,1.261,0.13
18.77,-0.27,0.919,-0.032
18.78,-0.181,1.004,-0.17
18.79,-0.347,0.299,-0.104
18.8,-0.082,1.55,0.141
18.81,-0.191,0.87,0.133
18.82,-0.228,0.992,-0.163
18.83,-0.318,0.489,-0.074
18.84,-0.146,1.256,0.263
18.85,-0.38,1.102,0.113
18.86,-0.23,0.495,-0.088
18.87,-0.455,1.008,-0.057
18.88,0.13,0.948,0.169
18.89,-0.378,1.215,0.137
18.9,-0.305,0.441,-0.145
18.91,-0.466,0.872,-0.046
18.92,-0.125,0.933,0.223
18.93,-0.283,1.033,0.094
18.94,-0.374,0.675,-0.144
18.95,-0.252,0.782,-0.017
18.96,-0.048,1.209,0.164
18.97,-0.13,0.525,0.053
18.98,-0.455,0.951,-0.136
18.99,-0.267,1.538,-0.057
19.0,-0.008,0.872,0.17
19.01,-0.077,0.813,0.031
19.02,-0.449,0.543,-0.265
19.03,-0.277,1.856,0.011
19.04,-0.135,0.36,0.152
19.05,-0.209,1.11,0.063
19.06,-0.388,0.222,-0.252
19.07,-0.321,2.0,-0.002
19.08,-0.012,0.827,0.07
19.09,0.055,0.569,0.054
19.1,-0.523,0.866,-0.214
19.11,-0.185,1.704,0.068
19.12,-0.24,0.979,0.083
19.13,0.149,0.562,0.089
19.14,-0.621,0.918,-0.211
19.15,-0.02,1.84,0.125
19.16,-0.284,0.863,0.081
19.17,0.064,0.79,0.044
19.18,-0.537,0.486,-0.163
19.19,-0.068,2.0,0.054
19.2,-0.05,0.639,0.08
19.21,0.021,1.083,-0.04
19.22,-0.488,0.336,-0.211
19.23,0.026,2.0,0.109
19.24,-0.236,0.927,0.044
19.25,0.05,0.712,-0.0
19.26,-0.547,0.93,-0.199
19.27,0.055,1.364,0.22
19.28,-0.323,1.253,0.106
19.29,0.141,0.61,-0.013
19.3,-0.524,0.953,-0.171
19.31,0.102,1.338,0.154
19.32,-0.266,1.058,0.091
19.33,-0.02,0.988,-0.106
19.34,-0.352,0.395,-0.086
19.35,-0.02,1.753,0.192
19.36,-0.065,0.768,0.102
19.37,-0.145,1.159,-0.073
19.38,-0.403,0.385,-0.106
19.39,-0.033,1.527,0.167
19.4,-0.152,1.041,-0.006
19.41,-0.167,0.879,-0.144
19.42,-0.282,0.675,-0.109
19.43,-0.061,1.155,0.204
19.44,-0.372,1.191,0.045
19.45,-0.333,0.45,-0.125
19.46,-0.45,0.97,-0.058
19.47,-0.015,0.873,0.221
19.48,-0.226,1.287,0.001
19.49,-0.314,0.51,-0.133
19.5,-0.403,0.699,0.015
19.51,-0.08,1.195,0.197
19.52,-0.266,0.816,0.027
19.53,-0.347,0.795,-0.096
19.54,-0.288,1.07,-0.008
19.55,-0.035,1.204,0.209
19.56,-0.107,0.541,0.069
19.57,-0.436,0.895,-0.208
19.58,-0.325,1.413,-0.048
19.59,-0.053,0.646,0.148
19.6,-0.255,1.04,0.058
19.61,-0.321,0.275,-0.172
19.62,-0.485,1.832,0.061
19.63,-0.076,0.442,0.188
19.64,-0.272,1.054,0.088
19.65,-0.383,0.352,-0.218
19.66,-0.221,1.956,-0.006
19.67,-0.091,0.902,0.056
19.68,0.057,0.518,0.056
19.69,-0.495,0.888,-0.209
19.7,-0.216,1.659,0.045
19.71,-0.194,0.921,0.041
19.72,0.084,0.625,0.029
19.73,-0.519,0.747,-0.222
19.74,-0.143,2.0,0.064
19.75,-0.171,0.555,0.029
19.76,0.031,0.993,0.077
19.77,-0.442,0.257,-0.225
19.78,-0.135,2.0,0.027
19.79,-0.019,0.751,0.116
19.8,-0.039,0.941,0.005
19.81,-0.411,0.441,-0.212
19.82,-0.024,2.0,0.084
19.83,-0.262,1.026,0.076
19.84,0.107,0.585,-0.061
19.85,-0.527,1.001,-0.206
19.86,0.047,1.687,0.144
19.87,-0.396,1.261,0.072
19.88,0.104,0.527,0.013
19.89,-0.503,0.831,-0.183
19.9,-0.013,1.428,0.139
19.91,-0.175,0.767,0.079
19.92,-0.008,1.13,-0.054
19.93,-0.347,0.302,-0.105
19.94,-0.026,1.725,0.16
19.95,-0.031,0.682,0.083
19.96,-0.138,1.102,-0.158
19.97,-0.325,0.499,-0.14
19.98,-0.032,1.382,0.19
19.99,-0.223,1.223,0.073
20.0,0.042,0.598,-0.091
20.01,-0.394,1.024,-0.124
20.02,-0.004,1.025,0.23
20.03,-0.374,1.226,-0.01
20.04,-0.165,0.623,-0.124
20.05,-0.353,0.71,-0.128
20.06,-0.137,1.255,0.213
20.07,-0.093,0.967,0.017
20.08,-0.414,0.924,-0.148
20.09,-0.17,0.31,-0.103
20.1,-0.227,1.464,0.229
20.11,-0.17,0.793,0.038
20.12,-0.398,0.849,-0.119
20.13,-0.311,0.573,-0.091
20.14,-0.118,1.084,0.192
20.15,-0.254,1.201,0.054
20.16,-0.363,0.4,-0.164
20.17,-0.448,1.038,-0.031
20.18,0.051,0.827,0.165
20.19,-0.341,1.23,0.13
20.2,-0.335,0.383,-0.102
20.21,-0.347,1.24,-0.045
20.22,0.03,0.674,0.106
20.23,-0.165,0.887,0.072
20.24,-0.377,0.6,-0.232
20.25,-0.301,1.498,0.011
20.26,-0.218,0.84,0.181
20.27,-0.096,0.606,0.105
20.28,-0.55,0.828,-0.186
20.29,-0.228,1.614,0.045
20.3,-0.217,0.945,0.105
20.31,0.033,0.668,0.082
20.32,-0.435,0.543,-0.203
20.33,-0.236,2.0,0.06
20.34,-0.122,0.573,0.092
20.35,0.032,1.032,0.002
20.36,-0.433,0.273,-0.203
20.37,-0.143,2.0,0.09
20.38,-0.228,0.568,0.041
20.39,0.058,0.8,0.022
20.4,-0.557,0.687,-0.248
20.41,0.004,1.716,0.08
20.42,-0.228,1.183,0.04
20.43,0.198,0.486,-0.069
20.44,-0.49,1.007,-0.235
20.45,0.172,1.523,0.07
20.46,-0.309,1.037,0.065
20.47,0.131,0.804,-0.031
20.48,-0.545,0.571,-0.167
20.49,0.029,1.82,0.176
20.5,-0.201,0.76,0.083
20.51,0.01,1.086,-0.018
20.52,-0.505,0.342,-0.141
20.53,-0.02,1.684,0.199
20.54,-0.175,0.779,0.086
20.55,-0.037,0.959,-0.074
20.56,-0.411,0.671,-0.162
20.57,0.048,1.343,0.168
20.58,-0.309,1.279,0.098
20.59,0.066,0.6,-0.1
20.6,-0.47,0.989,-0.099
20.61,0.092,1.19,0.142
20.62,-0.279,1.262,0.031
20.63,0.006,0.734,-0.136
20.64,-0.374,0.621,-0.115
20.65,-0.11,1.485,0.176
20.66,-0.242,0.732,0.016
20.67,-0.242,1.057,-0.138
20.68,-0.31,0.251,-0.112
20.69,-0.24,1.457,0.173
20.7,-0.202,0.862,0.111
20.71,-0.298,0.801,-0.148
20.72,-0.371,0.769,-0.091
20.73,-0.052,1.018,0.256
20.74,-0.321,1.266,0.005
20.75,-0.099,0.358,-0.139
20.76,-0.455,1.114,-0.088
20.77,0.17,0.965,0.134
20.78,-0.35,1.036,0.04
20.79,-0.325,0.639,-0.147
20.8,-0.5,0.578,-0.014
20.81,-0.1,1.189,0.19
20.82,-0.198,0.827,-0.005
20.83,-0.376,0.848,-0.148
20.84,-0.354,0.534,-0.043
20.85,0.006,1.245,0.13
20.86,-0.191,0.761,0.023
20.87,-0.439,0.638,-0.089
20.88,-0.282,1.45,-0.063
20.89,0.033,0.743,0.193
20.9,-0.165,1.01,0.091
20.91,-0.432,0.356,-0.236
20.92,-0.458,1.317,-0.01
20.93,-0.16,0.602,0.101
20.94,-0.26,1.087,0.056
20.95,-0.347,0.367,-0.227
20.96,-0.203,1.878,0.0
20.97,-0.135,1.1,0.143
20.98,0.116,0.417,0.12
20.99,-0.584,0.989,-0.158
21.0,-0.256,1.739,-0.009
21.01,-0.18,0.962,0.034
21.02,0.163,0.536,0.039
21.03,-0.548,0.925,-0.284
21.04,0.007,2.0,0.061
21.05,-0.307,0.627,-0.003
21.06,0.016,0.872,0.087
21.07,-0.434,0.379,-0.182
21.08,-0.213,1.917,0.104
21.09,0.031,0.729,0.082
21.1,-0.023,0.957,0.022
21.11,-0.294,0.315,-0.139
21.12,-0.021,2.0,0.04
21.13,-0.228,0.792,0.036
21.14,0.094,0.806,-0.039
21.15,-0.635,0.876,-0.226
21.16,0.082,1.844,0.212
21.17,-0.485,1.161,0.013
21.18,0.162,0.354,0.071
21.19,-0.627,0.941,-0.204
21.2,-0.06,1.23,0.093
21.21,-0.163,0.891,0.039
21.22,-0.026,1.02,-0.033
21.23,-0.339,0.321,-0.097
21.24,-0.083,1.874,0.202
21.25,-0.105,0.666,0.138
21.26,-0.154,1.182,-0.065
21.27,-0.382,0.403,-0.144
21.28,0.005,1.985,0.193
21.29,-0.223,1.073,0.019
21.3,0.071,0.603,-0.091
21.31,-0.438,0.951,-0.203
21.32,-0.08,1.029,0.128
21.33,-0.414,1.252,0.035
21.34,0.022,0.598,-0.079
21.35,-0.397,0.839,-0.117
21.36,0.008,1.279,0.162
21.37,-0.102,0.969,0.045
21.38,-0.241,0.97,-0.184
21.39,-0.274,0.369,-0.091
21.4,-0.112,1.577,0.132
21.41,-0.065,0.916,0.07
21.42,-0.187,0.951,-0.103
21.43,-0.355,0.474,-0.06
21.44,-0.033,1.305,0.193
21.45,-0.353,0.915,0.037
21.46,-0.34,0.629,-0.126
21.47,-0.42,0.911,-0.051
21.48,-0.026,0.943,0.191
21.49,-0.283,1.232,0.085
21.5,-0.328,0.424,-0.175
21.51,-0.416,0.872,-0.036
21.52,-0.146,0.926,0.254
21.53,-0.26,1.115,0.094
21.54,-0.39,0.594,-0.122
21.55,-0.195,0.863,0.022
21.56,-0.045,1.328,0.159
21.57,-0.041,0.469,0.051
21.58,-0.423,0.974,-0.169
21.59,-0.339,0.81,-0.034
21.6,-0.06,0.952,0.152
21.61,-0.179,0.838,0.053
21.62,-0.453,0.541,-0.172
21.63,-0.354,1.335,-0.062
21.64,-0.005,0.559,0.106
21.65,-0.296,1.176,-0.007
21.66,-0.293,0.195,-0.212
21.67,-0.297,1.911,-0.097
21.68,0.021,0.763,0.185
21.69,-0.149,0.765,0.083
21.7,-0.473,0.773,-0.227
21.71,-0.233,1.492,-0.032
21.72,-0.145,0.926,0.109
21.73,-0.02,0.57,0.08
21.74,-0.505,0.842,-0.182
21.75,-0.218,1.564,0.083
21.76,-0.222,0.694,0.106
21.77,-0.085,0.823,0.096
21.78,-0.481,0.417,-0.175
21.79,-0.331,2.0,0.027
21.8,-0.045,0.545,0.077
21.81,-0.012,1.024,0.093
21.82,-0.436,0.275,-0.222
21.83,-0.074,2.0,0.065
21.84,-0.15,0.674,0.1
21.85,-0.029,0.976,0.015
21.86,-0.508,0.472,-0.198
21.87,-0.012,2.0,0.135
21.88,-0.343,1.032,0.083
21.89,0.135,0.542,0.002
21.9,-0.545,1.011,-0.222
21.91,0.075,1.306,0.134
21.92,-0.252,1.249,0.027
21.93,0.125,0.627,-0.016
21.94,-0.455,0.769,-0.185
21.95,0.029,1.541,0.168
21.96,-0.175,0.797,0.125
21.97,-0.074,1.132,-0.021
21.98,-0.402,0.307,-0.143
21.99,-0.061,2.0,0.196
22.0,-0.174,0.747,0.088
22.01,-0.115,0.959,-0.04
22.02,-0.485,0.563,-0.15
22.03,-0.034,1.368,0.096
22.04,-0.305,1.088,0.077
22.05,0.031,0.619,-0.047
22.06,-0.375,1.005,-0.171
22.07,0.054,1.226,0.099
22.08,-0.282,1.204,0.147
22.09,-0.057,0.752,-0.104
22.1,-0.383,0.681,-0.149
22.11,0.028,1.441,0.22
22.12,-0.047,1.132,0.047
22.13,-0.085,0.91,-0.126
22.14,-0.234,0.417,-0.176
22.15,-0.177,1.498,0.184
22.16,-0.254,0.661,-0.016
22.17,-0.194,0.977,-0.161
22.18,-0.339,0.553,-0.148
22.19,-0.157,1.152,0.206
22.2,-0.191,1.131,0.017
22.21,-0.17,0.533,-0.194
22.22,-0.372,0.999,-0.09
22.23,-0.034,0.975,0.227
22.24,-0.305,1.363,0.075
22.25,-0.129,0.411,-0.103
22.26,-0.333,0.986,-0.064
22.27,0.146,1.271,0.136
22.28,-0.262,0.625,-0.016
22.29,-0.412,1.019,-0.136
22.3,-0.417,0.324,-0.09
22.31,-0.184,1.277,0.21
22.32,-0.182,0.784,0.089
22.33,-0.48,0.805,-0.105
22.34,-0.358,0.616,-0.073
22.35,-0.172,0.956,0.249
22.36,-0.296,1.239,0.013
22.37,-0.272,0.268,-0.099
22.38,-0.285,1.696,-0.104
22.39,0.11,0.702,0.208
22.4,-0.215,1.006,0.044
22.41,-0.373,0.407,-0.212
22.42,-0.361,1.137,-0.05
22.43,-0.067,0.851,0.088
22.44,-0.161,0.762,0.002
22.45,-0.525,0.735,-0.179
22.46,-0.287,0.761,0.006
22.47,-0.213,1.107,0.125
22.48,-0.135,0.641,0.053
22.49,-0.413,0.716,-0.197
22.5,-0.23,1.797,-0.026
22.51,0.005,0.81,0.146
22.52,-0.112,0.907,0.056
22.53,-0.479,0.378,-0.184
22.54,-0.36,2.0,0.017
22.55,-0.107,0.47,0.085
22.56,-0.074,1.058,0.084
22.57,-0.513,0.381,-0.209
22.58,-0.251,2.0,0.087
22.59,-0.213,0.798,0.041
22.6,0.087,0.627,0.03
22.61,-0.582,0.857,-0.193
22.62,-0.003,1.603,0.022
22.63,-0.223,1.119,0.077
22.64,0.16,0.591,-0.067
22.65,-0.522,0.995,-0.218
22.66,0.096,1.458,0.099
22.67,-0.266,1.115,0.07
22.68,0.04,0.777,-0.026
22.69,-0.49,0.618,-0.137
22.7,-0.083,1.646,0.242
22.71,-0.212,0.71,0.134
22.72,-0.045,1.162,-0.024
22.73,-0.386,0.291,-0.137
22.74,-0.105,1.628,0.126
22.75,-0.196,0.788,0.055
22.76,-0.072,0.944,-0.078
22.77,-0.382,0.687,-0.16
22.78,0.009,1.348,0.16
22.79,-0.223,1.176,0.043
22.8,0.017,0.581,-0.116
22.81,-0.427,1.009,-0.147
22.82,0.03,1.183,0.146
22.83,-0.265,1.273,0.003
22.84,-0.085,0.699,-0.142
22.85,-0.218,0.577,-0.14
22.86,-0.144,1.446,0.178
22.87,-0.139,0.805,0.03
22.88,-0.328,1.047,-0.149
22.89,-0.268,0.275,-0.095
22.9,-0.183,1.468,0.207
22.91,-0.158,0.869,0.048
22.92,-0.287,0.88,-0.112
22.93,-0.377,0.75,-0.048
22.94,0.001,1.022,0.264
22.95,-0.287,1.248,0.013
22.96,-0.242,0.291,-0.171
22.97,-0.296,1.358,-0.097
22.98,0.122,0.876,0.168
22.99,-0.195,0.956,0.026
23.0,-0.414,0.576,-0.184
23.01,-0.384,0.691,-0.044
23.02,-0.15,1.083,0.113
23.03,-0.087,0.746,-0.042
23.04,-0.463,0.79,-0.164
23.05,-0.29,0.66,-0.032
23.06,-0.096,1.181,0.149
23.07,-0.152,0.683,-0.001
23.08,-0.408,0.69,-0.129
23.09,-0.263,1.728,-0.086
23.1,0.009,0.714,0.168
23.11,-0.102,1.023,0.046
23.12,-0.404,0.347,-0.252
23.13,-0.36,1.773,0.013
23.14,-0.113,0.453,0.117
23.15,-0.287,1.01,0.142
23.16,-0.401,0.468,-0.182
23.17,-0.318,1.806,0.018
23.18,-0.102,1.016,0.076
23.19,0.168,0.478,0.075
23.2,-0.589,0.982,-0.215
23.21,-0.021,1.611,0.068
23.22,-0.24,0.969,0.1
23.23,0.196,0.682,0.039
23.24,-0.607,0.728,-0.267
23.25,-0.009,2.0,0.103
23.26,-0.234,0.567,0.007
23.27,0.131,1.025,0.041
23.28,-0.51,0.285,-0.182
23.29,-0.083,2.0,0.088
23.3,-0.136,0.695,0.049
23.31,0.013,0.903,0.03
23.32,-0.437,0.519,-0.229
23.33,0.064,1.846,0.061
23.34,-0.228,1.062,0.055
23.35,0.187,0.618,-0.016
23.36,-0.653,0.988,-0.176
23.37,0.186,1.798,0.156
23.38,-0.418,1.109,0.088
23.39,0.125,0.665,-0.007
23.4,-0.564,0.76,-0.225
23.41,0.065,1.531,0.179
23.42,-0.21,0.781,0.069
23.43,-0.009,1.033,-0.003
23.44,-0.407,0.475,-0.108
23.45,-0.086,1.646,0.129
23.46,-0.158,0.641,0.095
23.47,-0.192,1.204,-0.131
23.48,-0.346,0.31,-0.13
23.49,-0.022,1.497,0.15
23.5,-0.099,1.078,0.082
23.51,-0.071,0.716,-0.074
23.52,-0.34,0.89,-0.129
23.53,-0.043,0.99,0.247
23.54,-0.376,1.3,0.002
23.55,-0.099,0.476,-0.093
23.56,-0.399,0.914,-0.113
23.57,-0.073,1.051,0.252
23.58,-0.168,1.058,0.061
23.59,-0.332,0.812,-0.163
23.6,-0.288,0.427,-0.051
23.61,-0.255,1.347,0.255
23.62,-0.147,0.804,0.07
23.63,-0.326,0.845,-0.079
23.64,-0.236,0.613,-0.057
23.65,-0.019,1.32,0.153
23.66,-0.179,0.724,0.041
23.67,-0.453,0.694,-0.15
23.68,-0.397,0.884,-0.069
23.69,-0.07,0.781,0.171
23.7,-0.265,1.32,0.048
23.71,-0.294,0.307,-0.14
23.72,-0.315,1.149,-0.02
23.73,0.005,0.858,0.147
23.74,-0.249,0.913,0.046
23.75,-0.392,0.557,-0.159
23.76,-0.162,1.434,-0.073
23.77,-0.066,1.142,0.195
23.78,0.01,0.409,0.045
23.79,-0.535,1.043,-0.238
23.8,-0.311,0.78,-0.051
23.81,-0.183,0.878,0.107
23.82,-0.233,0.875,0.007
23.83,-0.478,0.523,-0.173
23.84,-0.211,1.838,-0.021
23.85,-0.038,0.601,0.19
23.86,-0.176,1.008,0.092
23.87,-0.359,0.357,-0.196
23.88,-0.405,2.0,-0.02
23.89,0.021,0.727,0.074
23.9,-0.039,0.776,0.104
23.91,-0.531,0.776,-0.193
23.92,-0.191,1.747,0.058
23.93,-0.208,0.841,0.146
23.94,0.017,0.562,0.057
23.95,-0.597,0.888,-0.225
23.96,-0.107,1.619,0.076
23.97,-0.171,1.031,0.106
23.98,0.109,0.644,0.02
23.99,-0.523,0.593,-0.206
24.0,-0.09,2.0,0.032
24.01,-0.115,0.587,0.099
24.02,0.055,1.051,0.024
24.03,-0.51,0.333,-0.264
24.04,-0.19,2.0,0.114
24.05,-0.293,0.586,0.069
24.06,0.044,0.849,0.112
24.07,-0.601,0.64,-0.19
24.08,0.04,1.735,0.02
24.09,-0.201,1.262,0.06
24.1,0.181,0.45,-0.004
24.11,-0.531,1.018,-0.273
24.12,0.155,1.781,0.049
24.13,-0.214,1.021,0.042
24.14,0.111,0.768,-0.001
24.15,-0.544,0.641,-0.2
24.16,-0.003,2.0,0.197
24.17,-0.286,0.721,0.103
24.18,-0.056,0.989,0.012
24.19,-0.367,0.333,-0.17
24.2,-0.114,1.861,0.098
24.21,-0.099,0.808,0.055
24.22,0.001,0.866,-0.03
24.23,-0.447,0.72,-0.187
24.24,0.017,1.616,0.13
24.25,-0.192,0.963,0.072
24.26,0.046,0.786,-0.093
24.27,-0.534,0.921,-0.139
24.28,0.12,1.203,0.219
24.29,-0.256,1.416,0.054
24.3,0.05,0.545,-0.053
24.31,-0.418,0.911,-0.143
24.32,-0.061,1.326,0.099
24.33,-0.288,0.879,0.026
24.34,-0.028,1.021,-0.135
24.35,-0.391,0.307,-0.119
24.36,-0.089,1.635,0.131
24.37,-0.068,0.737,0.1
24.38,-0.261,1.07,-0.143
24.39,-0.263,0.47,-0.074
24.4,-0.148,1.37,0.143
24.41,-0.255,1.13,0.048
24.42,-0.039,0.56,-0.118
24.43,-0.406,1.01,-0.103
24.44,0.064,0.967,0.192
24.45,-0.356,1.172,0.028
24.46,-0.269,0.492,-0.104
24.47,-0.434,0.78,-0.055
24.48,-0.146,1.133,0.249
24.49,-0.168,1.021,0.038
24.5,-0.311,0.878,-0.137
24.51,-0.281,0.333,-0.035
24.52,-0.201,1.373,0.265
24.53,-0.184,0.783,0.048
24.54,-0.418,0.815,-0.073
24.55,-0.272,0.702,-0.03
24.56,-0.028,1.25,0.207
24.57,-0.219,0.845,0.03
24.58,-0.366,0.589,-0.18
24.59,-0.411,0.969,-0.057
24.6,-0.097,0.7,0.166
24.61,-0.285,1.302,0.033
24.62,-0.297,0.254,-0.137
24.63,-0.338,1.261,-0.058
24.64,0.025,0.889,0.141
24.65,-0.196,0.721,0.037
24.66,-0.419,0.752,-0.185
24.67,-0.184,1.43,-0.081
24.68,-0.0,1.135,0.174
24.69,0.046,0.423,0.065
24.7,-0.573,1.07,-0.193
24.71,-0.384,0.808,-0.028
24.72,-0.168,0.715,0.089
24.73,-0.225,1.017,0.002
24.74,-0.379,0.339,-0.218
24.75,-0.297,1.803,-0.0
24.76,-0.002,0.6,0.154
24.77,-0.229,0.99,0.085
24.78,-0.338,0.343,-0.191
24.79,-0.399,1.978,-0.005
24.8,0.023,0.802,0.106
24.81,-0.012,0.639,0.073
24.82,-0.54,0.915,-0.215
24.83,-0.246,1.5,0.112
24.84,-0.328,0.83,0.18
24.85,-0.08,0.619,0.101
24.86,-0.556,0.822,-0.221
24.87,-0.237,1.69,0.07
24.88,-0.17,0.906,0.098
24.89,0.101,0.73,0.083
24.9,-0.492,0.425,-0.183
24.91,-0.239,2.0,0.052
24.92,-0.015,0.646,0.111
24.93,-0.093,1.04,0.122
24.94,-0.41,0.339,-0.272
24.95,-0.201,2.0,0.052
24.96,-0.253,0.538,0.026
24.97,0.057,0.792,0.041
24.98,-0.53,0.683,-0.264
24.99,0.019,1.641,0.124
25.0,-0.248,1.273,0.08
25.01,0.192,0.44,0.036
25.02,-0.503,0.95,-0.195
25.03,0.016,1.818,0.078
25.04,-0.182,0.94,0.079
25.05,0.071,0.696,-0.023
25.06,-0.532,0.781,-0.178
25.07,0.043,1.998,0.143
25.08,-0.31,0.838,0.112
25.09,-0.018,1.032,0.012
25.1,-0.443,0.364,-0.154
25.11,-0.109,1.68,0.164
25.12,-0.063,0.752,0.058
25.13,-0.046,1.024,-0.073
25.14,-0.365,0.586,-0.127
25.15,-0.043,1.431,0.179
25.16,-0.23,1.085,0.054
25.17,0.051,0.704,-0.099
25.18,-0.427,1.015,-0.163
25.19,0.115,1.238,0.222
25.2,-0.266,1.433,0.038
25.21,0.038,0.585,-0.106
25.22,-0.379,0.791,-0.13
25.23,-0.567,0.624,-0.193
25.24,0.045,1.938,0.219
25.25,-0.321,0.746,0.076
25.26,0.043,0.917,-0.051
25.27,-0.482,0.366,-0.181
25.28,-0.16,1.655,0.123
25.29,-0.127,0.617,0.093
25.3,-0.101,1.052,-0.007
25.31,-0.328,0.469,-0.131
25.32,-0.063,1.517,0.182
25.33,-0.173,0.97,0.145
25.34,0.0,0.738,-0.093
25.35,-0.509,0.963,-0.184
25.36,0.133,1.272,0.198
25.37,-0.2,1.401,0.041
25.38,0.062,0.579,-0.08
25.39,-0.524,0.88,-0.12
25.4,-0.046,1.315,0.186
25.41,-0.329,0.942,0.07
25.42,-0.115,1.002,-0.101
25.43,-0.329,0.292,-0.133
25.44,-0.107,1.648,0.137
25.45,-0.086,0.78,0.117
25.46,-0.25,1.09,-0.116
25.47,-0.302,0.464,-0.077
25.48,-0.139,1.405,0.17
25.49,-0.169,1.221,0.068
25.5,0.018,0.577,-0.133
25.51,-0.427,1.017,-0.076
25.52,-0.062,0.955,0.271
25.53,-0.399,1.313,0.05
25.54,-0.289,0.474,-0.088
25.55,-0.382,0.818,-0.071
25.56,-0.155,1.134,0.234
25.57,-0.196,0.884,0.076
25.58,-0.339,0.892,-0.157
25.59,-0.286,0.358,-0.046
25.6,-0.229,1.341,0.274
25.61,-0.141,0.781,0.045
25.62,-0.444,0.808,-0.147
25.63,-0.308,0.622,-0.063
25.64,-0.04,1.136,0.129
25.65,-0.239,0.972,0.039
25.66,-0.307,0.423,-0.145
25.67,-0.445,1.127,-0.041
25.68,0.074,0.744,0.168
25.69,-0.328,1.206,0.098
25.7,-0.374,0.337,-0.168
25.71,-0.392,1.039,-0.071
25.72,0.093,0.821,0.111
25.73,-0.19,0.88,-0.01
25.74,-0.439,0.727,-0.199
25.75,-0.17,1.471,-0.053
25.76,-0.109,1.122,0.207
25.77,-0.036,0.49,0.09
25.78,-0.57,0.976,-0.194
25.79,-0.213,1.698,0.058
25.8,-0.17,0.804,0.027
25.81,0.046,0.723,0.071
25.82,-0.529,0.714,-0.237
25.83,-0.282,1.951,0.079
25.84,-0.102,0.578,0.092
25.85,0.039,1.012,0.089
25.86,-0.354,0.211,-0.225
25.87,-0.213,2.0,0.056
25.88,-0.102,0.709,0.084
25.89,0.023,0.876,-0.016
25.9,-0.455,0.506,-0.274
25.91,-0.042,2.0,0.123
25.92,-0.335,0.901,0.038
25.93,0.222,0.494,0.01
25.94,-0.545,1.046,-0.267
25.95,0.069,1.605,0.095
25.96,-0.278,1.144,0.04
25.97,0.083,0.624,0.03
25.98,-0.469,0.73,-0.195
25.99,0.032,1.817,0.056
26.0,-0.223,0.715,0.062
26.01,-0.015,1.05,0.005
26.02,-0.517,0.351,-0.162
26.03,-0.015,2.0,0.202
26.04,-0.237,0.708,0.101
26.05,-0.048,0.963,-0.0
26.06,-0.488,0.582,-0.164
26.07,-0.017,1.469,0.228
26.08,-0.251,1.111,0.047
26.09,0.062,0.628,-0.061
26.1,-0.48,1.028,-0.16
26.11,0.093,1.249,0.163
26.12,-0.276,1.235,0.117
26.13,-0.005,0.685,-0.065
26.14,-0.47,0.751,-0.115
26.15,0.094,1.49,0.179
26.16,-0.201,0.995,0.051
26.17,-0.076,1.036,-0.092
26.18,-0.26,0.347,-0.166
26.19,-0.143,1.681,0.048
26.2,-0.129,0.756,0.038
26.21,-0.198,1.045,-0.141
26.22,-0.257,0.504,-0.122
26.23,-0.037,1.371,0.124
26.24,-0.249,1.218,0.035
26.25,-0.022,0.578,-0.15
26.26,-0.392,0.998,-0.105
26.27,-0.044,1.021,0.225
26.28,-0.372,1.282,0.041
26.29,-0.197,0.536,-0.112
26.3,-0.436,0.777,-0.04
26.31,-0.05,1.197,0.205
26.32,-0.239,0.828,0.045
26.33,-0.396,0.935,-0.112
26.34,-0.419,0.311,-0.051
26.35,-0.089,1.357,0.202
26.36,-0.299,0.762,0.101
26.37,-0.389,0.821,-0.12
26.38,-0.447,0.654,-0.065
26.39,-0.005,1.056,0.148
26.4,-0.283,1.118,0.064
26.41,-0.31,0.345,-0.108
26.42,-0.426,1.262,-0.02
26.43,0.051,0.676,0.163
26.44,-0.261,1.146,0.067
26.45,-0.367,0.345,-0.17
26.46,-0.349,1.242,-0.037
26.47,-0.026,0.849,0.123
26.48,-0.191,0.714,0.085
26.49,-0.502,0.81,-0.144
26.5,-0.381,0.794,0.037
26.51,-0.176,1.011,0.154
26.52,-0.174,0.645,0.028
26.53,-0.462,0.771,-0.175
26.54,-0.241,1.765,0.009
26.55,-0.1,0.804,0.103
26.56,-0.088,0.811,0.105
26.57,-0.475,0.447,-0.196
26.58,-0.376,2.0,0.045
26.59,-0.115,0.558,0.075
26.6,-0.009,1.034,0.04
26.61,-0.486,0.31,-0.221
26.62,-0.216,2.0,0.106
26.63,-0.215,0.507,0.029
26.64,0.078,0.911,0.023
26.65,-0.505,0.577,-0.231
26.66,0.001,1.559,0.036
26.67,-0.217,1.179,0.049
26.68,0.14,0.594,-0.014
26.69,-0.59,0.947,-0.126
26.7,0.196,1.808,0.042
26.71,-0.328,1.123,0.046
26.72,0.156,0.754,-0.015
26.73,-0.598,0.707,-0.181
26.74,0.08,2.0,0.223
26.75,-0.285,0.76,0.068
26.76,0.021,0.953,-0.027
26.77,-0.492,0.388,-0.169
26.78,-0.121,1.605,0.134
26.79,-0.264,0.662,0.073
26.8,-0.001,1.111,-0.054
26.81,-0.428,0.541,-0.117
26.82,0.052,1.431,0.196
26.83,-0.231,1.172,0.12
26.84,-0.006,0.622,-0.101
26.85,-0.504,1.021,-0.116
26.86,0.12,1.26,0.239
26.87,-0.245,1.391,-0.005
26.88,0.035,0.598,-0.104
26.89,-0.374,0.782,-0.15
26.9,-0.163,1.4,0.166
26.91,-0.242,0.789,0.003
26.92,-0.237,1.04,-0.142
26.93,-0.307,0.262,-0.143
26.94,-0.189,1.519,0.175
26.95,-0.129,0.754,0.041
26.96,-0.292,0.979,-0.166
26.97,-0.322,0.613,-0.116
26.98,-0.122,1.141,0.221
26.99,-0.184,1.298,0.0
27.0,-0.15,0.414,-0.136
27.01,-0.374,1.166,-0.091
27.02,0.097,0.994,0.157
27.03,-0.376,1.067,0.026
27.04,-0.256,0.537,-0.14
27.05,-0.464,0.73,-0.043
27.06,-0.005,1.076,0.186
27.07,-0.174,0.855,0.071
27.08,-0.546,0.82,-0.153
27.09,-0.278,0.367,-0.012
27.1,-0.242,1.347,0.201
27.11,-0.185,0.815,0.02
27.12,-0.364,0.682,-0.099
27.13,-0.324,1.383,-0.069
27.14,0.0,0.933,0.225
27.15,-0.192,0.875,0.063
27.16,-0.415,0.441,-0.188
27.17,-0.333,1.796,-0.062
27.18,0.014,0.541,0.166
27.19,-0.228,1.09,0.1
27.2,-0.469,0.412,-0.23
27.21,-0.482,1.157,0.029
27.22,-0.184,0.741,0.099
27.23,-0.214,0.777,0.077
27.24,-0.439,0.755,-0.192
27.25,-0.242,1.545,-0.001
27.26,-0.123,1.159,0.075
27.27,0.122,0.483,0.097
27.28,-0.545,0.906,-0.185
27.29,-0.271,1.894,0.073
27.3,-0.159,0.651,0.119
27.31,0.048,0.956,0.085
27.32,-0.467,0.374,-0.255
27.33,-0.169,2.0,0.079
27.34,-0.214,0.357,0.044
27.35,-0.177,1.05,0.084
27.36,-0.377,0.317,-0.17
27.37,-0.26,1.943,0.074
27.38,-0.042,0.944,0.109
27.39,-0.029,0.76,0.034
27.4,-0.431,0.714,-0.202
27.41,0.041,1.738,0.053
27.42,-0.282,1.05,0.062
27.43,0.099,0.615,-0.024
27.44,-0.564,1.021,-0.242
27.45,0.159,1.724,0.171
27.46,-0.331,1.227,0.033
27.47,0.103,0.644,-0.009
27.48,-0.454,0.686,-0.162
27.49,-0.013,1.531,0.17
27.5,-0.225,0.672,0.072
27.51,-0.107,1.172,-0.027
27.52,-0.383,0.29,-0.146
27.53,-0.085,1.79,0.168
27.54,-0.106,0.729,0.094
27.55,-0.082,1.049,-0.092
27.56,-0.51,0.644,-0.124
27.57,0.041,1.411,0.246
27.58,-0.383,1.28,0.101
27.59,0.065,0.562,-0.002
27.6,-0.601,1.053,-0.127
27.61,0.027,1.153,0.134
27.62,-0.379,1.158,0.015
27.63,-0.032,0.737,-0.157
27.64,-0.345,0.61,-0.171
27.65,-0.082,1.455,0.132
27.66,-0.141,0.766,0.076
27.67,-0.286,1.126,-0.144
27.68,-0.326,0.247,-0.08
27.69,-0.146,1.538,0.144
27.7,-0.188,0.899,0.073
27.71,-0.143,0.859,-0.171
27.72,-0.307,0.716,-0.142
27.73,-0.038,1.153,0.189
27.74,-0.381,1.131,0.031
27.75,-0.143,0.432,-0.101
27.76,-0.463,1.024,-0.064
27.77,0.008,0.937,0.18
27.78,-0.3,1.14,0.068
27.79,-0.327,0.6,-0.129
27.8,-0.42,0.601,-0.07
27.81,-0.184,1.156,0.236
27.82,-0.194,0.949,0.06
27.83,-0.349,0.87,-0.082
27.84,-0.28,0.41,-0.048
27.85,-0.014,1.465,0.152
27.86,-0.201,0.692,0.036
27.87,-0.322,0.745,-0.15
27.88,-0.335,0.858,-0.129
27.89,0.099,0.947,0.12
27.9,-0.168,1.043,0.015
27.91,-0.39,0.386,-0.217
27.92,-0.418,1.032,-0.051
27.93,-0.096,0.684,0.143
27.94,-0.294,1.329,0.013
27.95,-0.263,0.322,-0.161
27.96,-0.137,1.482,-0.046
27.97,0.026,1.038,0.16
27.98,-0.114,0.495,0.036
27.99,-0.428,0.919,-0.202
28.0,-0.271,1.402,-0.095
28.01,-0.104,1.031,0.182
28.02,-0.044,0.56,0.061
28.03,-0.579,0.882,-0.229
28.04,-0.339,1.135,0.037
28.05,-0.208,0.594,0.132
28.06,-0.243,1.104,0.051
28.07,-0.319,0.255,-0.242
28.08,-0.326,2.0,-0.001
28.09,0.04,0.652,0.09
28.1,-0.146,0.882,0.122
28.11,-0.399,0.485,-0.2
28.12,-0.377,2.0,-0.026
28.13,-0.109,0.689,0.055
28.14,-0.032,0.609,0.066
28.15,-0.62,0.933,-0.206
28.16,-0.177,1.57,0.113
28.17,-0.333,0.801,0.148
28.18,-0.022,0.576,0.1
28.19,-0.552,0.719,-0.227
28.2,0.04,1.52,-0.0
28.21,-0.081,1.141,0.085
28.22,0.118,0.697,0.015
28.23,-0.471,0.555,-0.193
28.24,0.009,2.0,0.09
28.25,-0.167,0.645,0.057
28.26,-0.014,1.073,0.027
28.27,-0.53,0.355,-0.255
28.28,-0.075,2.0,0.189
28.29,-0.292,0.698,0.05
28.3,0.099,0.803,0.018
28.31,-0.511,0.704,-0.213
28.32,-0.122,1.286,0.089
28.33,-0.187,1.089,0.1
28.34,0.097,0.648,-0.008
28.35,-0.521,0.984,-0.209
28.36,0.123,1.515,0.157
28.37,-0.196,1.177,0.119
28.38,0.031,0.771,-0.064
28.39,-0.521,0.684,-0.224
28.4,0.065,1.751,0.149
28.41,-0.071,0.794,0.024
28.42,-0.072,1.002,0.01
28.43,-0.399,0.38,-0.167
28.44,-0.122,1.565,0.105
28.45,-0.17,0.69,0.044
28.46,-0.057,1.02,-0.102
28.47,-0.333,0.635,-0.171
28.48,0.05,1.523,0.205
28.49,-0.154,1.209,0.091
28.5,0.061,0.584,-0.101
28.51,-0.657,1.055,-0.104
28.52,0.11,1.126,0.186
28.53,-0.431,1.277,0.113
28.54,0.094,0.715,-0.046
28.55,-0.434,0.735,-0.184
28.56,-0.042,1.471,0.114
28.57,-0.2,0.714,0.069
28.58,-0.184,1.122,-0.189
28.59,-0.305,0.23,-0.165
28.6,-0.075,1.654,0.118
28.61,-0.021,0.888,0.104
28.62,-0.157,0.979,-0.06
28.63,-0.352,0.633,-0.135
28.64,-0.041,1.291,0.121
28.65,-0.211,1.35,-0.032
28.66,0.04,0.488,-0.134
28.67,-0.371,1.061,-0.141
28.68,-0.078,1.087,0.195
28.69,-0.306,1.146,0.057
28.7,-0.176,0.62,-0.111
28.71,-0.41,0.646,-0.067
28.72,-0.144,1.44,0.148
28.73,-0.101,0.923,0.109
28.74,-0.234,0.984,-0.142
28.75,-0.277,0.333,-0.107
28.76,-0.166,1.529,0.185
28.77,-0.166,0.845,0.025
28.78,-0.188,0.88,-0.126
28.79,-0.288,0.688,-0.146
28.8,-0.073,1.11,0.217
28.81,-0.319,1.175,-0.0
28.82,-0.161,0.437,-0.145
28.83,-0.401,1.027,-0.154
28.84,-0.062,0.89,0.223
28.85,-0.253,1.265,-0.005
28.86,-0.221,0.502,-0.109
28.87,-0.355,0.717,-0.069
28.88,-0.088,1.204,0.194
28.89,-0.198,0.82,0.018
28.9,-0.477,0.816,-0.1
28.91,-0.262,0.351,-0.016
28.92,-0.169,1.416,0.174
28.93,-0.154,0.712,0.009
28.94,-0.334,0.812,-0.131
28.95,-0.364,0.738,-0.12
28.96,0.081,1.034,0.132
28.97,-0.252,1.06,0.087
28.98,-0.339,0.38,-0.111
28.99,-0.437,1.136,-0.018
29.0,-0.048,0.619,0.171
29.01,-0.211,1.089,0.074
29.02,-0.306,0.347,-0.225
29.03,-0.391,1.565,-0.069
29.04,-0.008,0.656,0.217
29.05,-0.132,0.9,0.066
29.06,-0.405,0.648,-0.233
29.07,-0.277,1.292,-0.023
29.08,-0.157,0.962,0.187
29.09,-0.054,0.552,0.094
29.1,-0.605,0.893,-0.16
29.11,-0.179,1.623,-0.036
29.12,-0.15,0.911,0.073
29.13,0.025,0.656,0.065
29.14,-0.523,0.699,-0.225
29.15,-0.258,1.966,-0.021
29.16,-0.104,0.514,0.137
29.17,-0.197,0.99,0.133
29.18,-0.338,0.414,-0.192
29.19,-0.397,2.0,-0.009
29.2,-0.059,0.511,0.102
29.21,-0.125,0.88,0.098
29.22,-0.505,0.615,-0.188
29.23,-0.279,1.774,-0.013
29.24,-0.194,0.908,0.109
29.25,-0.023,0.467,0.109
29.26,-0.543,1.022,-0.183
29.27,-0.255,1.611,0.041
29.28,-0.261,0.781,0.141
29.29,0.019,0.669,0.082
29.3,-0.516,0.617,-0.197
29.31,-0.302,2.0,0.025
29.32,-0.081,0.52,0.054
29.33,-0.064,1.023,0.102
29.34,-0.375,0.294,-0.27
29.35,-0.305,2.0,-0.016
29.36,-0.122,0.545,0.044
29.37,0.013,0.853,0.076
29.38,-0.438,0.574,-0.247
29.39,-0.28,1.834,0.027
29.4,-0.207,0.937,0.07
29.41,0.185,0.513,0.093
29.42,-0.548,0.938,-0.208
29.43,-0.162,1.681,0.064
29.44,-0.193,0.936,0.066
29.45,0.082,0.68,0.076
29.46,-0.548,0.598,-0.202
29.47,-0.17,2.0,0.073
29.48,-0.203,0.534,0.032
29.49,0.005,1.0,0.071
29.5,-0.368,0.296,-0.227
29.51,-0.271,2.0,0.093
29.52,-0.07,0.572,0.089
29.53,0.01,0.847,0.033
29.54,-0.441,0.586,-0.262
29.55,0.009,1.851,0.104
29.56,-0.234,0.99,0.035
29.57,0.172,0.507,0.018
29.58,-0.552,1.029,-0.267
29.59,0.009,1.727,0.126
29.6,-0.327,1.007,0.056
29.61,0.157,0.608,0.014
29.62,-0.521,0.751,-0.208
29.63,-0.065,1.654,0.079
29.64,-0.133,0.755,0.083
29.65,0.026,1.065,0.04
29.66,-0.371,0.278,-0.208
29.67,-0.003,2.0,0.078
29.68,-0.151,0.666,0.103
29.69,-0.016,0.95,0.006
29.7,-0.559,0.638,-0.232
29.71,0.039,1.922,0.176
29.72,-0.359,1.141,0.082
29.73,0.187,0.477,0.015
29.74,-0.556,1.054,-0.186
29.75,0.022,1.224,0.166
29.76,-0.296,1.111,0.053
29.77,0.127,0.786,0.005
29.78,-0.509,0.707,-0.146
29.79,0.103,1.99,0.146
29.8,-0.215,0.799,0.083
29.81,-0.021,0.871,-0.1
29.82,-0.407,0.516,-0.15
29.83,0.067,1.836,0.129
29.84,-0.164,0.791,0.092
29.85,-0.095,1.052,-0.054
29.86,-0.384,0.431,-0.127
29.87,-0.072,1.602,0.096
29.88,-0.24,0.829,0.076
29.89,-0.025,0.888,-0.088
29.9,-0.511,0.823,-0.105
29.91,0.063,1.185,0.218
29.92,-0.292,1.327,0.062
29.93,-0.059,0.508,-0.068
29.94,-0.352,0.989,-0.136
29.95,-0.045,1.3,0.121
29.96,-0.179,1.128,-0.009
29.97,-0.104,0.81,-0.128
29.98,-0.327,0.476,-0.099
29.99,-0.113,1.594,0.153
30.0,-0.157,0.776,0.042
30.01,-0.192,1.082,-0.13
30.02,-0.345,0.356,-0.121
30.03,-0.144,1.461,0.184
30.04,-0.192,0.979,0.045
30.05,-0.156,0.743,-0.14
30.06,-0.383,0.835,-0.118
30.07,-0.001,1.055,0.251
30.08,-0.377,1.271,0.063
30.09,-0.084,0.429,-0.105
30.1,-0.448,1.023,-0.069
30.11,-0.024,1.083,0.24
30.12,-0.301,1.062,0.054
30.13,-0.291,0.72,-0.084
30.14,-0.375,0.51,-0.051
30.15,-0.126,1.322,0.245
30.16,-0.118,0.819,0.079
30.17,-0.471,0.921,-0.149
30.18,-0.286,0.386,-0.043
30.19,-0.063,1.371,0.174
30.2,-0.229,0.905,0.059
30.21,-0.348,0.637,-0.111
30.22,-0.392,0.949,-0.054
30.23,0.06,0.986,0.197
30.24,-0.269,1.146,0.054
30.25,-0.317,0.369,-0.157
30.26,-0.476,0.995,-0.009
30.27,-0.005,0.907,0.183
30.28,-0.314,1.102,0.125
30.29,-0.409,0.554,-0.113
30.3,-0.417,0.596,-0.019
30.31,-0.085,1.245,0.14
30.32,-0.182,0.748,0.05
30.33,-0.414,0.794,-0.112
30.34,-0.412,0.506,-0.058
30.35,0.014,1.245,0.114
30.36,-0.166,0.825,0.045
30.37,-0.396,0.679,-0.14
30.38,-0.528,0.883,-0.028
30.39,0.022,0.775,0.155
30.4,-0.266,1.282,0.062
30.41,-0.276,0.248,-0.175
30.42,-0.401,1.389,-0.068
30.43,0.045,0.72,0.183
30.44,-0.217,0.969,0.049
30.45,-0.433,0.529,-0.16
30.46,-0.276,1.076,-0.075
30.47,-0.111,0.953,0.139
30.48,0.015,0.649,0.027
30.49,-0.529,0.912,-0.214
30.5,-0.205,0.823,-0.074
30.51,-0.186,0.975,0.136
30.52,-0.082,0.738,0.04
30.53,-0.502,0.656,-0.18
30.54,-0.205,1.563,-0.095
30.55,-0.056,0.631,0.164
30.56,-0.136,1.081,0.071
30.57,-0.347,0.297,-0.253
30.58,-0.367,1.684,-0.022
30.59,-0.027,0.555,0.143
30.6,-0.198,0.99,0.044
30.61,-0.366,0.314,-0.274
30.62,-0.352,2.0,-0.033
30.63,-0.14,0.673,0.068
30.64,0.039,0.703,0.122
30.65,-0.485,0.751,-0.235
30.66,-0.202,1.651,0.047
30.67,-0.204,1.022,0.112
30.68,0.189,0.497,0.081
30.69,-0.544,0.947,-0.239
30.7,-0.146,1.861,0.03
30.71,-0.211,0.738,0.018
30.72,0.062,0.813,0.062
30.73,-0.368,0.425,-0.255
30.74,-0.232,2.0,0.018
30.75,-0.054,0.489,0.009
30.76,-0.009,0.996,0.089
30.77,-0.477,0.312,-0.167
30.78,-0.292,2.0,0.116
30.79,-0.154,0.645,0.062
30.8,0.053,0.693,0.066
30.81,-0.486,0.828,-0.248
30.82,-0.164,1.701,0.114
30.83,-0.271,0.991,0.081
30.84,0.146,0.524,0.079
30.85,-0.554,0.906,-0.2
30.86,0.012,1.819,0.121
30.87,-0.299,0.932,0.095
30.88,0.107,0.738,0.065
30.89,-0.487,0.528,-0.184
30.9,-0.053,2.0,0.121
30.91,-0.173,0.492,0.048
30.92,0.045,1.061,0.029
30.93,-0.503,0.346,-0.216
30.94,-0.049,2.0,0.114
30.95,-0.17,0.796,0.043
30.96,0.073,0.748,-0.022
30.97,-0.391,0.813,-0.246
30.98,0.037,1.696,0.098
30.99,-0.267,1.217,0.078
31.0,0.132,0.589,0.02
31.01,-0.563,0.957,-0.168
31.02,0.164,1.783,0.058
31.03,-0.312,1.05,0.066
31.04,0.143,0.741,-0.024
31.05,-0.52,0.629,-0.23
31.06,0.046,1.815,0.119
31.07,-0.107,0.673,0.016
31.08,-0.075,1.107,-0.01
31.09,-0.36,0.374,-0.192
31.1,-0.109,1.847,0.154
31.11,-0.217,0.733,0.164
31.12,0.0,0.936,-0.017
31.13,-0.544,0.752,-0.198
31.14,0.029,1.384,0.246
31.15,-0.277,1.269,0.106
31.16,0.136,0.603,-0.017
31.17,-0.495,1.05,-0.157
31.18,0.098,1.352,0.208
31.19,-0.241,1.127,0.066
31.2,-0.005,0.842,-0.076
31.21,-0.424,0.639,-0.128
31.22,0.001,1.816,0.191
31.23,-0.113,0.76,0.072
31.24,-0.12,1.104,-0.044
31.25,-0.4,0.38,-0.143
31.26,-0.051,1.596,0.115
31.27,-0.184,0.847,0.059
31.28,-0.026,0.941,-0.053
31.29,-0.435,0.735,-0.151
31.3,0.028,1.3,0.145
31.31,-0.282,1.233,0.077
31.32,0.034,0.538,-0.132
31.33,-0.486,1.043,-0.105
31.34,0.003,1.223,0.168
31.35,-0.341,1.219,0.094
31.36,-0.045,0.759,-0.084
31.37,-0.376,0.618,-0.15
31.38,-0.122,1.507,0.133
31.39,-0.114,0.868,0.053
31.4,-0.23,1.027,-0.158
31.41,-0.19,0.347,-0.2
31.42,-0.157,1.471,0.213
31.43,-0.242,0.706,0.077
31.44,-0.349,0.92,-0.053
31.45,-0.451,0.498,-0.077
31.46,-0.094,1.21,0.231
31.47,-0.292,1.09,0.089
31.48,-0.331,0.516,-0.123
31.49,-0.439,0.937,-0.025
31.5,-0.017,0.839,0.213
31.51,-0.286,1.323,0.035
31.52,-0.184,0.382,-0.111
31.53,-0.39,1.068,-0.078
31.54,0.104,0.981,0.149
31.55,-0.196,0.885,0.026
31.56,-0.35,0.715,-0.203
31.57,-0.361,0.545,-0.053
31.58,-0.099,1.205,0.121
31.59,-0.089,0.695,0.043
31.6,-0.509,0.841,-0.143
31.61,-0.321,0.737,-0.019
31.62,-0.095,0.998,0.181
31.63,-0.146,0.92,0.057
31.64,-0.437,0.479,-0.14
31.65,-0.366,1.35,-0.043
31.66,-0.005,0.604,0.138
31.67,-0.266,1.173,0.03
31.68,-0.332,0.255,-0.215
31.69,-0.356,1.481,-0.045
31.7,0.012,0.705,0.122
31.71,-0.122,0.812,-0.028
31.72,-0.376,0.722,-0.22
31.73,-0.202,1.409,-0.025
31.74,-0.104,1.001,0.152
31.75,-0.057,0.519,0.077
31.76,-0.482,0.938,-0.231
31.77,-0.252,1.607,0.007
31.78,-0.111,0.815,0.057
31.79,0.001,0.791,0.078
31.8,-0.574,0.482,-0.199
31.81,-0.327,2.0,0.074
31.82,-0.143,0.446,0.092
31.83,-0.101,1.075,0.103
31.84,-0.425,0.239,-0.245
31.85,-0.369,2.0,0.033
31.86,-0.125,0.592,0.044
31.87,0.036,0.805,0.082
31.88,-0.51,0.697,-0.251
31.89,-0.213,1.825,0.06
31.9,-0.306,0.856,0.051
31.91,0.169,0.553,0.119
31.92,-0.63,0.929,-0.189
31.93,-0.124,1.6,0.136
31.94,-0.256,0.936,0.099
31.95,0.148,0.706,0.049
31.96,-0.427,0.575,-0.207
31.97,-0.034,2.0,0.071
31.98,-0.1,0.632,0.092
31.99,0.009,1.034,0.021
32.0,-0.344,0.311,-0.222
32.01,-0.049,2.0,0.14
32.02,-0.272,0.659,0.116
32.03,0.06,0.875,-0.008
32.04,-0.41,0.69,-0.198
32.05,-0.055,1.793,0.174
32.06,-0.312,1.161,0.078
32.07,0.181,0.487,-0.041
32.08,-0.532,0.975,-0.194
32.09,0.097,1.419,0.108
32.1,-0.179,1.096,-0.025
32.11,0.144,0.823,-0.082
32.12,-0.417,0.561,-0.186
32.13,0.113,2.0,0.125
32.14,-0.198,0.727,-0.031
32.15,0.006,1.089,-0.077
32.16,-0.449,0.322,-0.191
32.17,-0.05,1.893,0.179
32.18,-0.263,0.768,0.089
32.19,-0.021,0.913,0.003
32.2,-0.533,0.647,-0.198
32.21,0.01,1.381,0.125
32.22,-0.296,0.917,0.048
32.23,-0.058,0.8,-0.095
32.24,-0.493,0.88,-0.14
32.25,0.064,1.154,0.144
32.26,-0.195,1.379,0.072
32.27,-0.085,0.568,-0.111
32.28,-0.379,0.883,-0.057
32.29,-0.072,1.269,0.154
32.3,-0.213,1.167,0.062
32.31,-0.139,0.827,-0.139
32.32,-0.295,0.469,-0.1
32.33,-0.098,1.528,0.2
32.34,-0.229,0.646,0.063
32.35,-0.331,1.01,-0.098
32.36,-0.399,0.449,-0.08
32.37,-0.17,1.221,0.231
32.38,-0.216,1.062,0.049
32.39,-0.219,0.567,-0.169
32.4,-0.328,0.93,-0.088
32.41,0.0,0.878,0.179
32.42,-0.308,1.339,0.052
32.43,-0.24,0.32,-0.092
32.44,-0.405,0.986,-0.073
32.45,0.005,1.008,0.142
32.46,-0.227,0.955,0.03
32.47,-0.397,0.728,-0.167
32.48,-0.382,0.568,-0.053
32.49,-0.204,1.182,0.171
32.5,-0.161,0.677,0.067
32.51,-0.519,0.776,-0.095
32.52,-0.315,0.904,-0.053
32.53,-0.09,1.055,0.175
32.54,-0.134,0.759,-0.052
32.55,-0.38,0.612,-0.195
32.56,-0.396,1.364,-0.042
32.57,-0.021,0.58,0.154
32.58,-0.256,1.144,0.043
32.59,-0.338,0.321,-0.199
32.6,-0.405,1.429,0.004
32.61,-0.061,0.624,0.183
32.62,-0.208,0.91,0.083
32.63,-0.388,0.669,-0.209
32.64,-0.275,1.655,-0.035
32.65,-0.052,1.078,0.073
32.66,0.021,0.459,0.052
32.67,-0.476,1.019,-0.199
32.68,-0.255,1.748,0.02
32.69,-0.13,0.828,0.105
32.7,0.005,0.695,0.093
32.71,-0.507,0.651,-0.188
32.72,-0.222,2.0,0.032
32.73,-0.149,0.414,0.055
32.74,-0.087,1.081,0.095
32.75,-0.411,0.218,-0.235
32.76,-0.264,2.0,0.055
32.77,-0.068,0.697,0.114
32.78,0.068,0.785,0.099
32.79,-0.579,0.698,-0.196
32.8,-0.157,1.808,0.163
32.81,-0.275,0.95,0.105
32.82,0.228,0.508,0.065
32.83,-0.644,1.004,-0.23
32.84,0.048,1.714,0.13
32.85,-0.338,0.994,0.069
32.86,0.154,0.733,0.056
32.87,-0.552,0.603,-0.217
32.88,0.006,2.0,0.075
32.89,-0.129,0.709,0.049
32.9,0.025,1.046,0.024
32.91,-0.451,0.312,-0.211
32.92,-0.038,2.0,0.084
32.93,-0.202,0.728,0.047
32.94,0.015,0.859,-0.016
32.95,-0.478,0.701,-0.236
32.96,0.019,1.811,0.092
32.97,-0.261,1.118,0.066
32.98,0.113,0.474,0.012
32.99,-0.596,1.084,-0.188
33.0,0.073,1.305,0.181
33.01,-0.355,1.125,0.107
33.02,0.096,0.753,0.016
33.03,-0.379,0.894,-0.187
33.04,0.048,1.402,0.122
33.05,-0.147,0.985,0.05
33.06,-0.082,1.056,-0.064
33.07,-0.297,0.361,-0.151
33.08,-0.005,1.854,0.238
33.09,-0.061,0.835,0.117
33.1,-0.186,1.033,-0.038
33.11,-0.322,0.488,-0.171
33.12,-0.07,1.543,0.115
33.13,-0.213,1.057,0.028
33.14,-0.027,0.745,-0.066
33.15,-0.406,0.896,-0.126
33.16,-0.033,1.181,0.163
33.17,-0.261,1.271,0.067
33.18,-0.065,0.573,-0.116
33.19,-0.424,0.888,-0.144
33.2,-0.032,1.297,0.146
33.21,-0.216,1.119,0.106
33.22,-0.106,0.854,-0.112
33.23,-0.355,0.446,-0.102
33.24,-0.163,1.531,0.179
33.25,-0.131,0.794,0.027
33.26,-0.241,0.974,-0.086
33.27,-0.24,0.446,-0.089
33.28,-0.286,1.383,0.22
33.29,-0.146,0.976,0.046
33.3,-0.305,0.66,-0.114
33.31,-0.357,0.872,-0.079
33.32,-0.087,1.1,0.183
33.33,-0.204,1.465,0.051
33.34,-0.161,0.396,-0.109
33.35,-0.309,0.999,-0.06
33.36,-0.076,1.067,0.239
33.37,-0.295,1.07,0.046
33.38,-0.323,0.696,-0.136
33.39,-0.274,0.46,-0.077
33.4,-0.122,1.362,0.125
33.41,-0.048,0.679,0.005
33.42,-0.496,0.946,-0.174
33.43,-0.28,0.411,-0.044
33.44,-0.165,1.129,0.163
33.45,-0.16,0.982,-0.019
33.46,-0.319,0.518,-0.129
33.47,-0.201,1.46,-0.098
33.48,0.127,0.743,0.143
33.49,-0.192,1.034,0.028
33.5,-0.298,0.383,-0.217
33.51,-0.352,1.518,-0.076
33.52,0.012,0.604,0.175
33.53,-0.176,0.89,0.012
33.54,-0.415,0.65,-0.222
33.55,-0.384,0.887,-0.021
33.56,-0.181,0.953,0.115
33.57,-0.321,2.0,0.042
33.58,-0.066,0.548,0.05
33.59,-0.082,0.788,0.087
33.6,-0.379,0.607,-0.21
33.61,-0.276,1.735,0.027
33.62,-0.122,0.979,0.115
33.63,0.107,0.478,0.028
33.64,-0.612,1.021,-0.224
33.65,-0.072,1.837,0.098
33.66,-0.33,0.795,0.056
33.67,0.075,0.691,0.07
33.68,-0.519,0.65,-0.255
33.69,0.026,1.962,0.067
33.7,-0.063,0.793,0.029
33.71,0.052,0.997,0.012
33.72,-0.362,0.322,-0.265
33.73,0.011,1.877,0.125
33.74,-0.118,0.624,0.133
33.75,-0.114,1.222,-0.015
33.76,-0.503,0.345,-0.173
33.77,0.003,2.0,0.223
33.78,-0.278,0.962,0.119
33.79,0.053,0.616,-0.05
33.8,-0.634,0.977,-0.16
33.81,0.04,1.09,0.159
33.82,-0.32,1.336,0.102
33.83,0.094,0.583,-0.066
33.84,-0.37,0.942,-0.107
33.85,0.056,1.359,0.11
33.86,-0.146,0.951,0.126
33.87,-0.097,0.996,-0.145
33.88,-0.365,0.392,-0.148
33.89,-0.022,1.681,0.21
33.9,-0.039,0.821,0.087
33.91,-0.111,1.059,-0.095
33.92,-0.294,0.442,-0.126
33.93,-0.208,1.389,0.157
33.94,-0.242,0.99,-0.027
33.95,-0.147,0.664,-0.109
33.96,-0.355,0.876,-0.174
33.97,0.006,1.015,0.191
33.98,-0.29,1.251,0.079
33.99,-0.19,0.537,-0.129
34.0,-0.456,0.887,-0.043
34.01,-0.097,1.149,0.229
34.02,-0.097,1.276,0.124
34.03,-0.239,0.726,-0.151
34.04,-0.24,0.481,-0.062
34.05,-0.132,1.461,0.221
34.06,-0.161,0.745,0.026
34.07,-0.342,0.901,-0.075
34.08,-0.335,0.605,-0.03
34.09,0.033,1.318,0.143
34.1,-0.221,0.788,0.064
34.11,-0.382,0.758,-0.155
34.12,-0.446,0.853,-0.114
34.13,-0.154,0.698,0.204
34.14,-0.298,1.43,0.072
34.15,-0.272,0.265,-0.143
34.16,-0.356,1.167,-0.007
34.17,0.075,0.885,0.144
34.18,-0.276,0.968,0.051
34.19,-0.345,0.602,-0.165
34.2,-0.236,1.18,-0.07
34.21,-0.049,1.094,0.226
34.22,0.001,0.5,0.019
34.23,-0.516,1.074,-0.26
34.24,-0.3,0.808,-0.063
34.25,-0.169,0.853,0.117
34.26,-0.142,0.878,0.029
34.27,-0.47,0.518,-0.189
34.28,-0.295,1.83,0.026
34.29,-0.079,0.588,0.157
34.3,-0.182,1.055,0.119
34.31,-0.309,0.268,-0.227
34.32,-0.383,2.0,-0.046
34.33,-0.049,0.67,0.057
34.34,0.026,0.817,0.085
34.35,-0.381,0.617,-0.227
34.36,-0.263,1.886,0.029
34.37,-0.18,0.804,0.057
34.38,0.041,0.621,0.064
34.39,-0.471,0.802,-0.222
34.4,-0.109,1.698,0.062
34.41,-0.227,0.878,0.005
34.42,-0.004,0.639,0.059
34.43,-0.441,0.581,-0.172
34.44,-0.273,1.987,0.067
34.45,-0.118,0.575,0.081
34.46,-0.013,0.99,0.027
34.47,-0.413,0.244,-0.207
34.48,-0.183,2.0,0.068
34.49,-0.25,0.458,0.038
34.5,0.023,0.943,0.031
34.51,-0.547,0.544,-0.238
34.52,0.034,1.801,0.109
34.53,-0.273,1.123,0.026
34.54,0.041,0.614,-0.037
34.55,-0.415,0.901,-0.222
34.56,0.066,1.218,0.139
34.57,-0.233,1.215,0.028
34.58,0.055,0.688,-0.05
34.59,-0.361,0.927,-0.131
34.6,0.068,1.471,0.198
34.61,-0.119,1.057,0.106
34.62,-0.022,0.951,-0.099
34.63,-0.457,0.494,-0.094
34.64,-0.134,1.575,0.19
34.65,-0.23,0.777,0.095
34.66,-0.151,1.074,-0.089
34.67,-0.234,0.399,-0.15
34.68,-0.128,1.527,0.087
34.69,-0.232,0.971,0.021
34.7,-0.065,0.811,-0.108
34.71,-0.415,0.856,-0.122
34.72,-0.014,1.14,0.201
34.73,-0.262,1.333,0.098
34.74,-0.096,0.532,-0.111
34.75,-0.43,0.948,-0.074
34.76,-0.106,1.178,0.249
34.77,-0.309,1.15,0.103
34.78,-0.203,0.727,-0.129
34.79,-0.314,0.511,-0.059
34.8,-0.089,1.44,0.193
34.81,-0.19,0.746,0.04
34.82,-0.473,0.972,-0.062
34.83,-0.34,0.383,-0.026
34.84,-0.084,1.281,0.209
34.85,-0.267,0.919,0.064
34.86,-0.319,0.612,-0.142
34.87,-0.451,0.901,-0.065
34.88,0.073,0.881,0.148
34.89,-0.464,1.287,0.119
34.9,-0.22,0.29,-0.139
34.91,-0.51,1.104,-0.061
34.92,0.118,0.854,0.135
34.93,-0.315,1.016,0.045
34.94,-0.341,0.586,-0.159
34.95,-0.414,0.913,-0.035
34.96,0.01,1.118,0.176
34.97,-0.166,0.601,0.057
34.98,-0.496,0.981,-0.157
34.99,-0.35,0.904,-0.045
35.0,-0.156,0.928,0.183
35.01,-0.09,0.794,0.05
35.02,-0.488,0.629,-0.186
35.03,-0.31,1.685,-0.052
35.04,-0.115,0.553,0.193
35.05,-0.255,1.088,0.104
35.06,-0.332,0.282,-0.163
35.07,-0.413,2.0,-0.037
35.08,-0.054,0.571,0.086
35.09,-0.045,0.864,0.087
35.1,-0.458,0.645,-0.223
35.11,-0.314,1.825,-0.019
35.12,-0.103,0.886,0.057
35.13,0.111,0.542,0.05
35.14,-0.582,0.969,-0.199
35.15,-0.127,1.721,0.081
35.16,-0.339,0.762,0.079
35.17,0.061,0.727,0.088
35.18,-0.475,0.617,-0.214
35.19,-0.244,1.974,0.038
35.2,-0.131,0.59,0.09
35.21,0.04,1.001,0.08
35.22,-0.471,0.219,-0.179
35.23,-0.223,2.0,0.133
35.24,-0.187,0.607,0.091
35.25,0.064,0.918,0.052
35.26,-0.503,0.515,-0.217
35.27,-0.054,1.938,0.137
35.28,-0.32,0.918,-0.054
35.29,0.206,0.518,0.017
35.3,-0.521,1.016,-0.239
35.31,-0.022,1.676,0.173
35.32,-0.257,1.094,0.038
35.33,0.181,0.636,0.008
35.34,-0.464,0.952,-0.198
35.35,0.098,1.541,0.096
35.36,-0.292,0.962,0.029
35.37,0.127,1.005,-0.088
35.38,-0.397,0.397,-0.19
35.39,0.05,1.84,0.17
35.4,-0.095,0.648,0.111
35.41,-0.05,1.15,-0.047
35.42,-0.439,0.376,-0.176
35.43,0.07,1.764,0.173
35.44,-0.214,0.951,0.052
35.45,0.083,0.807,-0.098
35.46,-0.491,0.893,-0.169
35.47,0.124,1.215,0.13
35.48,-0.288,1.3,0.046
35.49,0.116,0.564,-0.09
35.5,-0.443,0.953,-0.161
35.51,0.027,1.301,0.162
35.52,-0.29,1.081,0.06
35.53,-0.111,0.896,-0.104
35.54,-0.289,0.411,-0.184
35.55,-0.069,1.678,0.127
35.56,-0.041,0.835,0.07
35.57,-0.182,1.087,-0.075
35.58,-0.236,0.422,-0.137
35.59,-0.13,1.56,0.168
35.6,-0.205,1.016,0.052
35.61,-0.055,0.729,-0.117
35.62,-0.342,0.87,-0.154
35.63,0.052,1.123,0.152
35.64,-0.39,1.329,0.043
35.65,-0.109,0.47,-0.151
35.66,-0.37,0.945,-0.085
35.67,-0.067,1.245,0.126
35.68,-0.126,1.206,0.029
35.69,-0.161,0.773,-0.152
35.7,-0.292,0.498,-0.068
35.71,-0.158,1.477,0.217
35.72,-0.238,0.826,0.103
35.73,-0.315,0.943,-0.08
35.74,-0.343,0.443,-0.133
35.75,-0.129,1.46,0.225
35.76,-0.255,0.933,0.002
35.77,-0.285,0.678,-0.037
35.78,-0.388,0.784,-0.091
35.79,-0.044,0.904,0.245
35.8,-0.272,1.444,0.065
35.81,-0.253,0.336,-0.109
35.82,-0.285,0.964,-0.085
35.83,-0.068,0.946,0.251
35.84,-0.215,1.245,0.06
35.85,-0.378,0.498,-0.114
35.86,-0.253,0.722,-0.082
35.87,-0.021,1.327,0.12
35.88,-0.085,0.63,-0.01
35.89,-0.493,0.843,-0.166
35.9,-0.256,0.573,-0.052
35.91,-0.05,1.102,0.065
35.92,-0.158,0.814,0.048
35.93,-0.456,0.55,-0.136
35.94,-0.417,0.999,-0.053
35.95,-0.035,0.752,0.081
35.96,-0.251,1.18,0.023
35.97,-0.246,0.251,-0.204
35.98,-0.335,1.651,-0.042
35.99,0.003,0.677,0.218
36.0,-0.158,0.862,0.014
36.01,-0.386,0.557,-0.177
36.02,-0.277,1.515,-0.002
36.03,-0.13,0.958,0.187
36.04,-0.051,0.541,0.071
36.05,-0.571,0.93,-0.207
36.06,-0.241,1.015,0.04
36.07,-0.232,0.843,0.12
36.08,-0.104,0.696,0.038
36.09,-0.404,0.566,-0.245
36.1,-0.236,1.978,-0.032
36.11,-0.02,0.672,0.078
36.12,-0.131,0.936,0.106
36.13,-0.282,0.283,-0.22
36.14,-0.442,2.0,-0.05
36.15,-0.052,0.631,0.116
36.16,-0.045,0.952,0.052
36.17,-0.411,0.381,-0.262
36.18,-0.182,2.0,0.078
36.19,-0.178,0.62,-0.014
36.2,0.083,0.682,0.054
36.21,-0.538,0.855,-0.268
36.22,-0.017,1.594,0.083
36.23,-0.207,1.293,0.068
36.24,0.148,0.503,0.067
36.25,-0.477,0.922,-0.198
36.26,0.026,1.826,0.066
36.27,-0.14,0.958,0.043
36.28,0.055,0.883,0.018
36.29,-0.483,0.486,-0.218
36.3,-0.021,2.0,0.202
36.31,-0.18,0.663,0.083
36.32,-0.057,0.977,0.036
36.33,-0.442,0.425,-0.207
36.34,-0.144,1.676,0.125
36.35,-0.137,0.854,0.052
36.36,0.047,0.821,0.006
36.37,-0.49,0.836,-0.157
36.38,0.05,1.399,0.205
36.39,-0.255,1.155,0.122
36.4,0.143,0.672,-0.014
36.41,-0.623,1.0,-0.198
36.42,0.144,1.453,0.175
36.43,-0.219,1.156,0.064
36.44,0.033,0.829,-0.072
36.45,-0.449,0.583,-0.13
36.46,-0.087,1.611,0.127
36.47,-0.154,0.641,0.122
36.48,-0.064,1.195,-0.034
36.49,-0.458,0.312,-0.118
36.5,-0.033,1.611,0.147
36.51,-0.144,0.874,0.092
36.52,-0.055,0.893,-0.091
36.53,-0.363,0.841,-0.121
36.54,0.052,1.267,0.224
36.55,-0.225,1.415,0.049
36.56,0.03,0.422,-0.078
36.57,-0.374,1.024,-0.184
36.58,-0.088,1.203,0.092
36.59,-0.274,1.06,-0.05
36.6,-0.123,0.85,-0.112
36.61,-0.24,0.423,-0.137
36.62,-0.084,1.556,0.086
36.63,-0.016,0.782,0.081
36.64,-0.321,1.095,-0.136
36.65,-0.236,0.344,-0.128
36.66,-0.141,1.587,0.106
36.67,-0.151,0.95,0.011
36.68,-0.071,0.765,-0.101
36.69,-0.316,0.798,-0.162
36.7,-0.033,1.031,0.241
36.71,-0.425,1.225,0.085
36.72,-0.188,0.441,-0.089
36.73,-0.463,0.956,-0.098
36.74,-0.069,0.966,0.271
36.75,-0.318,1.268,0.138
36.76,-0.431,0.593,-0.125
36.77,-0.271,0.503,-0.025
36.78,-0.284,1.388,0.254
36.79,-0.177,0.894,0.097
36.8,-0.311,0.9,-0.074
36.81,-0.208,0.538,-0.069
36.82,0.029,1.398,0.151
36.83,-0.185,0.73,-0.022
36.84,-0.454,0.781,-0.122
36.85,-0.434,0.75,-0.083
36.86,-0.035,0.882,0.19
36.87,-0.203,1.272,0.043
36.88,-0.357,0.307,-0.186
36.89,-0.404,1.066,0.002
36.9,-0.131,0.808,0.23
36.91,-0.294,1.202,0.027
36.92,-0.289,0.415,-0.112
36.93,-0.223,1.381,-0.065
36.94,0.016,1.117,0.176
36.95,-0.022,0.589,0.047
36.96,-0.56,0.886,-0.235
36.97,-0.225,1.478,0.001
36.98,-0.243,0.881,0.12
36.99,-0.007,0.608,0.073
37.0,-0.529,0.826,-0.246
37.01,-0.264,1.309,0.097
37.02,-0.25,0.744,0.15
37.03,-0.182,0.877,0.048
37.04,-0.433,0.294,-0.171
37.05,-0.37,2.0,0.047
37.06,0.034,0.636,0.17
37.07,-0.029,0.956,0.12
37.08,-0.427,0.385,-0.212
37.09,-0.404,2.0,0.055
37.1,-0.129,0.576,0.084
37.11,-0.007,0.774,0.063
37.12,-0.567,0.783,-0.258
37.13,-0.093,1.811,0.032
37.14,-0.261,0.93,-0.005
37.15,0.12,0.477,0.108
37.16,-0.504,0.903,-0.216
37.17,-0.062,1.591,0.001
37.18,-0.047,1.045,0.019
37.19,0.09,0.75,0.026
37.2,-0.425,0.486,-0.22
37.21,-0.052,2.0,0.083
37.22,-0.14,0.529,0.048
37.23,-0.016,1.114,0.012
37.24,-0.425,0.352,-0.295
37.25,-0.135,2.0,0.143
37.26,-0.228,0.794,0.016
37.27,0.042,0.654,-0.014
37.28,-0.457,0.771,-0.232
37.29,-0.121,1.227,0.071
37.3,-0.257,1.095,0.152
37.31,0.174,0.606,-0.007
37.32,-0.51,0.981,-0.169
37.33,0.113,1.548,0.178
37.34,-0.24,1.092,0.127
37.35,0.017,0.878,-0.016
37.36,-0.57,0.555,-0.128
37.37,0.028,2.0,0.23
37.38,-0.306,0.76,0.12
37.39,-0.017,0.964,-0.037
37.4,-0.518,0.392,-0.199
37.41,-0.107,1.539,0.1
37.42,-0.222,0.748,0.088
37.43,-0.024,0.923,-0.024
37.44,-0.463,0.747,-0.178
37.45,0.071,1.362,0.145
37.46,-0.205,1.181,0.121
37.47,-0.014,0.627,-0.114
37.48,-0.516,0.999,-0.138
37.49,0.149,1.343,0.202
37.5,-0.258,1.243,0.129
37.51,-0.005,0.705,-0.062
37.52,-0.405,0.687,-0.135
37.53,-0.144,1.462,0.168
37.54,-0.232,0.619,0.012
37.55,-0.27,1.128,-0.104
37.56,-0.305,0.234,-0.184
37.57,-0.146,1.561,0.113
37.58,-0.033,0.855,0.043
37.59,-0.241,0.878,-0.167
37.6,-0.301,0.712,-0.174
37.61,0.028,1.278,0.172
37.62,-0.203,1.401,0.054
37.63,0.003,0.407,-0.113
37.64,-0.444,1.093,-0.149
37.65,-0.028,1.043,0.23
37.66,-0.435,1.128,0.057
37.67,-0.182,0.683,-0.064
37.68,-0.367,0.504,-0.145
37.69,-0.186,1.528,0.177
37.7,-0.056,0.861,0.13
37.71,-0.284,1.048,-0.129
37.72,-0.335,0.299,-0.082
37.73,-0.132,1.532,0.171
37.74,-0.141,1.006,0.072
37.75,-0.194,0.767,-0.135
37.76,-0.304,0.549,-0.082
37.77,-0.042,1.257,0.157
37.78,-0.248,1.043,0.059
37.79,-0.268,0.498,-0.134
37.8,-0.408,0.993,-0.081
37.81,-0.031,0.888,0.175
37.82,-0.239,1.289,0.028
37.83,-0.274,0.381,-0.15
37.84,-0.374,0.883,-0.065
37.85,-0.033,1.004,0.157
37.86,-0.223,0.98,0.023
37.87,-0.374,0.664,-0.138
37.88,-0.238,0.702,-0.04
37.89,-0.081,1.301,0.148
37.9,-0.068,0.564,0.045
37.91,-0.484,0.851,-0.159
37.92,-0.318,0.689,-0.032
37.93,-0.09,0.995,0.11
37.94,-0.151,0.937,0.033
37.95,-0.408,0.447,-0.16
37.96,-0.43,1.207,-0.061
37.97,0.05,0.685,0.079
37.98,-0.272,1.149,0.04
37.99,-0.277,0.285,-0.22
38.0,-0.329,1.727,-0.089
38.01,0.074,0.776,0.172
38.02,-0.101,0.761,0.027
38.03,-0.452,0.753,-0.196
38.04,-0.376,0.895,-0.007
38.05,-0.187,1.009,0.133
38.06,-0.117,0.629,0.051
38.07,-0.524,0.862,-0.187
38.08,-0.296,1.147,0.015
38.09,-0.082,0.9,0.118
38.1,-0.139,0.812,0.039
38.11,-0.346,0.545,-0.15
38.12,-0.437,2.0,-0.041
38.13,0.037,0.605,0.124
38.14,-0.041,0.983,0.065
38.15,-0.427,0.434,-0.217
38.16,-0.352,2.0,-0.03
38.17,-0.139,0.502,0.106
38.18,-0.085,0.869,0.067
38.19,-0.41,0.706,-0.321
38.2,-0.183,1.724,-0.004
38.21,-0.243,0.923,0.083
38.22,0.038,0.461,0.092
38.23,-0.46,0.916,-0.167
38.24,-0.225,1.524,0.031
38.25,-0.031,1.005,0.126
38.26,0.061,0.669,0.068
38.27,-0.412,0.661,-0.173
38.28,-0.255,2.0,0.006
38.29,-0.161,0.35,0.055
38.3,-0.147,1.086,0.137
38.31,-0.481,0.325,-0.263
38.32,-0.292,2.0,0.02
38.33,-0.123,0.58,0.034
38.34,-0.006,0.748,0.117
38.35,-0.374,0.607,-0.213
38.36,-0.158,1.641,0.079
38.37,-0.161,1.131,0.146
38.38,0.195,0.456,0.014
38.39,-0.593,1.021,-0.187
38.4,-0.035,1.852,0.069
38.41,-0.246,0.806,0.008
38.42,0.199,0.738,0.03
38.43,-0.521,0.606,-0.279
38.44,-0.009,2.0,0.09
38.45,-0.178,0.705,0.078
38.46,-0.015,0.978,0.1
38.47,-0.406,0.228,-0.236
38.48,-0.106,2.0,0.01
38.49,-0.052,0.808,0.07
38.5,0.016,0.815,0.035
38.51,-0.392,0.713,-0.276
38.52,-0.04,1.989,0.127
38.53,-0.275,0.887,-0.035
38.54,0.136,0.493,0.037
38.55,-0.592,0.991,-0.217
38.56,0.027,1.532,0.159
38.57,-0.303,1.314,0.066
38.58,0.063,0.483,0.026
38.59,-0.44,0.928,-0.164
38.6,-0.015,1.418,0.152
38.61,-0.092,0.803,0.045
38.62,-0.056,1.039,0.003
38.63,-0.415,0.411,-0.15
38.64,-0.0,2.0,0.161
38.65,-0.11,0.715,0.107
38.66,-0.148,1.028,0.009
38.67,-0.479,0.464,-0.156
38.68,-0.066,1.695,0.218
38.69,-0.162,1.031,0.026
38.7,0.024,0.647,0.01
38.71,-0.466,0.965,-0.153
38.72,-0.036,1.242,0.151
38.73,-0.311,1.081,0.102
38.74,-0.026,0.692,-0.008
38.75,-0.536,0.859,-0.137
38.76,0.086,1.515,0.232
38.77,-0.171,1.094,0.046
38.78,-0.09,0.948,-0.061
38.79,-0.34,0.441,-0.12
38.8,-0.033,1.821,0.191
38.81,-0.128,0.719,0.135
38.82,-0.046,0.995,-0.023
38.83,-0.503,0.499,-0.15
38.84,-0.137,1.523,0.153
38.85,-0.316,0.805,0.151
38.86,-0.029,0.854,-0.068
38.87,-0.462,0.841,-0.173
38.88,0.032,1.163,0.102
38.89,-0.275,1.338,0.086
38.9,0.058,0.578,-0.089
38.91,-0.39,0.898,-0.151
38.92,0.129,1.264,0.143
38.93,-0.185,1.198,0.12
38.94,-0.052,0.84,-0.08
38.95,-0.312,0.528,-0.136
38.96,-0.079,1.63,0.044
38.97,-0.148,0.699,0.042
38.98,-0.153,1.13,-0.109
38.99,-0.335,0.343,-0.115
39.0,-0.097,1.52,0.1
39.01,-0.17,0.993,0.066
39.02,-0.095,0.787,-0.132
39.03,-0.369,0.829,-0.103
39.04,0.016,1.211,0.157
39.05,-0.317,1.372,0.117
39.06,0.026,0.529,-0.093
39.07,-0.418,0.993,-0.106
39.08,-0.083,1.201,0.262
39.09,-0.27,1.002,0.073
39.1,-0.208,0.809,-0.101
39.11,-0.387,0.415,-0.086
39.12,-0.143,1.451,0.18
39.13,-0.142,0.841,0.074
39.14,-0.401,1.019,-0.141
39.15,-0.242,0.345,-0.084
39.16,-0.152,1.365,0.177
39.17,-0.174,0.979,0.031
39.18,-0.142,0.707,-0.152
39.19,-0.381,0.914,-0.098
39.2,0.052,0.997,0.206
39.21,-0.389,1.243,0.09
39.22,-0.219,0.395,-0.107
39.23,-0.515,0.992,-0.051
39.24,0.07,0.967,0.19
39.25,-0.296,1.031,0.073
39.26,-0.356,0.698,-0.157
39.27,-0.414,0.474,-0.077
39.28,-0.052,1.297,0.145
39.29,-0.165,0.73,0.023
39.3,-0.434,0.921,-0.091
39.31,-0.396,0.392,-0.079
39.32,-0.054,1.27,0.177
39.33,-0.171,0.881,0.057
39.34,-0.367,0.651,-0.085
39.35,-0.46,0.932,-0.091
39.36,0.041,0.829,0.165
39.37,-0.223,0.956,0.03
39.38,-0.338,0.443,-0.208
39.39,-0.43,1.48,-0.034
39.4,-0.015,0.541,0.142
39.41,-0.244,1.105,0.025
39.42,-0.321,0.342,-0.203
39.43,-0.362,1.561,-0.046
39.44,-0.063,0.797,0.17
39.45,-0.118,0.655,0.08
39.46,-0.448,0.83,-0.16
39.47,-0.372,1.465,0.025
39.48,-0.211,1.007,0.201
39.49,-0.131,0.515,0.145
39.5,-0.528,0.87,-0.173
39.51,-0.305,1.594,0.004
39.52,-0.141,0.662,0.122
39.53,-0.151,0.863,0.064
39.54,-0.431,0.388,-0.201
39.55,-0.387,1.894,0.045
39.56,-0.152,0.398,0.153
39.57,-0.206,1.076,0.094
39.58,-0.383,0.261,-0.216
39.59,-0.361,2.0,-0.019
39.6,-0.113,0.678,0.073
39.61,-0.025,0.679,0.067
39.62,-0.507,0.747,-0.222
39.63,-0.18,1.708,0.044
39.64,-0.24,0.927,0.068
39.65,0.103,0.53,0.082
39.66,-0.663,0.854,-0.215
39.67,-0.095,1.801,0.048
39.68,-0.232,0.758,0.016
39.69,0.054,0.809,0.053
39.7,-0.498,0.467,-0.226
39.71,-0.193,2.0,0.086
39.72,-0.088,0.553,0.116
39.73,-0.024,1.023,0.045
39.74,-0.538,0.31,-0.194
39.75,-0.137,2.0,0.17
39.76,-0.262,0.726,0.077
39.77,0.081,0.75,-0.002
39.78,-0.569,0.816,-0.238
39.79,0.06,1.757,0.148
39.8,-0.301,1.223,0.083
39.81,0.155,0.44,-0.002
39.82,-0.558,1.042,-0.229
39.83,0.075,1.587,0.063
39.84,-0.161,1.027,0.054
39.85,0.104,0.858,0.007
39.86,-0.489,0.53,-0.194
39.87,-0.002,2.0,0.12
39.88,-0.084,0.675,0.008
39.89,-0.048,1.111,-0.008
39.9,-0.428,0.379,-0.187
39.91,-0.001,1.921,0.12
39.92,-0.22,0.901,0.071
39.93,-0.011,0.822,-0.035
39.94,-0.477,0.799,-0.181
39.95,0.017,1.349,0.154
39.96,-0.266,1.142,0.109
39.97,0.089,0.656,-0.021
39.98,-0.551,0.977,-0.117
39.99,0.101,1.289,0.187
40.0,-0.236,1.159,0.116
40.01,-0.049,0.804,-0.07
40.02,-0.406,0.597,-0.148
40.03,-0.077,1.595,0.075
40.04,-0.222,0.765,0.123
40.05,-0.101,1.152,-0.084
40.06,-0.312,0.307,-0.115
40.07,-0.069,1.58,0.116
40.08,-0.219,0.93,0.059
40.09,-0.048,0.883,-0.143
40.1,-0.344,0.784,-0.162
40.11,0.043,1.202,0.093
40.12,-0.326,1.344,0.063
40.13,0.036,0.511,-0.13
40.14,-0.438,1.011,-0.066
40.15,-0.048,1.032,0.222
40.16,-0.362,1.214,0.054
40.17,-0.256,0.401,-0.087
40.18,-0.375,0.904,-0.026
40.19,-0.032,1.087,0.178
40.2,-0.226,0.852,0.04
40.21,-0.41,0.796,-0.162
40.22,-0.292,0.48,-0.065
40.23,-0.126,1.281,0.136
40.24,-0.119,0.709,0.024
40.25,-0.488,0.75,-0.159
40.26,-0.15,0.934,-0.083
40.27,-0.07,0.947,0.164
40.28,-0.179,0.873,0.02
40.29,-0.334,0.483,-0.184
40.3,-0.372,1.633,-0.084
40.31,0.033,0.521,0.171
40.32,-0.22,1.125,0.088
40.33,-0.393,0.338,-0.212
40.34,-0.366,1.759,0.019
40.35,-0.096,0.65,0.143
40.36,-0.086,0.795,0.09
40.37,-0.427,0.732,-0.244
40.38,-0.294,1.593,0.029
40.39,-0.071,1.074,0.098
40.4,0.151,0.494,0.058
40.41,-0.499,0.923,-0.236
40.42,-0.147,1.862,0.038
40.43,-0.194,0.795,0.043
40.44,0.064,0.841,0.078
40.45,-0.503,0.425,-0.218
40.46,-0.248,2.0,0.107
40.47,-0.156,0.485,0.03
40.48,-0.052,1.054,0.085
40.49,-0.461,0.233,-0.215
40.5,-0.104,2.0,0.089
40.51,-0.149,0.767,0.056
40.52,0.137,0.754,-0.014
40.53,-0.5,0.78,-0.238
40.54,0.107,1.735,0.084
40.55,-0.342,1.137,0.076
40.56,0.14,0.508,-0.035
40.57,-0.537,0.991,-0.215
40.58,0.119,1.75,0.137
40.59,-0.307,1.081,0.082
40.6,0.027,0.698,-0.057
40.61,-0.431,0.586,-0.17
40.62,-0.111,1.609,0.139
40.63,-0.165,0.602,0.098
40.64,-0.104,1.201,-0.083
40.65,-0.308,0.302,-0.12
40.66,-0.13,1.632,0.159
40.67,-0.159,0.871,0.117
40.68,-0.14,0.892,-0.132
40.69,-0.302,0.73,-0.124
40.7,0.031,1.287,0.216
40.71,-0.151,1.398,0.051
40.72,0.054,0.467,-0.161
40.73,-0.466,1.05,-0.063
40.74,-0.086,1.061,0.27
40.75,-0.423,1.113,0.011
40.76,-0.034,0.733,-0.104
40.77,-0.385,0.518,-0.126
40.78,-0.05,1.438,0.174
40.79,-0.169,0.745,0.006
40.8,-0.377,1.164,-0.119
40.81,-0.325,0.266,-0.054
40.82,-0.206,1.425,0.197
40.83,-0.151,1.05,0.048
40.84,-0.168,0.779,-0.128
40.85,-0.364,0.878,-0.075
40.86,0.198,1.033,0.115
40.87,-0.403,1.178,-0.001
40.88,-0.238,0.382,-0.133
40.89,-0.526,1.052,-0.027
40.9,0.078,0.816,0.14
40.91,-0.291,1.113,0.041
40.92,-0.406,0.593,-0.173
40.93,-0.394,0.763,-0.007
40.94,-0.107,1.008,0.11
40.95,-0.208,0.778,-0.001
40.96,-0.484,0.753,-0.16
40.97,-0.116,1.539,-0.075
40.98,-0.132,1.252,0.182
40.99,0.127,0.432,0.083
41.0,-0.528,0.927,-0.173
41.01,-0.181,1.908,0.102
41.02,-0.274,0.789,0.078
41.03,0.044,0.819,0.059
41.04,-0.552,0.487,-0.22
41.05,-0.188,2.0,0.114
41.06,-0.202,0.448,0.031
41.07,-0.039,1.004,0.096
41.08,-0.434,0.302,-0.17
41.09,-0.18,1.95,0.052
41.1,-0.085,0.868,0.114
41.11,0.035,0.753,-0.002
41.12,-0.468,0.754,-0.185
41.13,0.135,1.937,0.117
41.14,-0.38,1.037,0.071
41.15,0.216,0.564,-0.048
41.16,-0.702,0.963,-0.228
41.17,0.161,1.672,0.162
41.18,-0.361,1.168,0.103
41.19,0.097,0.743,-0.02
41.2,-0.411,0.52,-0.148
41.21,-0.066,1.615,0.07
41.22,-0.179,0.585,0.073
41.23,-0.07,1.281,-0.07
41.24,-0.331,0.269,-0.141
41.25,-0.029,1.692,0.207
41.26,-0.031,0.896,0.104
41.27,-0.088,0.923,-0.109
41.28,-0.408,0.775,-0.148
41.29,-0.005,1.199,0.141
41.3,-0.307,1.389,0.023
41.31,0.117,0.522,-0.09
41.32,-0.399,1.009,-0.16
41.33,-0.035,1.028,0.21
41.34,-0.382,1.073,0.057
41.35,-0.275,0.75,-0.141
41.36,-0.329,0.484,-0.063
41.37,-0.164,1.446,0.182
41.38,-0.132,0.872,0.091
41.39,-0.352,1.029,-0.119
41.4,-0.302,0.344,-0.006
41.41,-0.202,1.361,0.265
41.42,-0.322,0.896,0.034
41.43,-0.356,0.669,-0.068
41.44,-0.349,1.073,-0.034
41.45,0.065,0.989,0.244
41.46,-0.255,1.043,0.046
41.47,-0.347,0.415,-0.177
41.48,-0.491,1.073,-0.026
41.49,-0.036,0.758,0.122
41.5,-0.243,1.187,-0.013
41.51,-0.341,0.448,-0.199
41.52,-0.327,0.979,-0.035
41.53,-0.022,1.051,0.136
41.54,-0.068,0.621,0.021
41.55,-0.479,0.885,-0.15
41.56,-0.183,1.181,-0.045
41.57,-0.129,0.958,0.181
41.58,-0.075,0.663,0.068
41.59,-0.515,0.702,-0.203
41.6,-0.253,1.479,0.012
41.61,-0.183,0.523,0.105
41.62,-0.23,1.118,0.068
41.63,-0.356,0.234,-0.261
41.64,-0.34,2.0,-0.017
41.65,0.07,0.575,-0.004
41.66,-0.021,0.923,0.072
41.67,-0.451,0.443,-0.234
41.68,-0.206,1.923,0.041
41.69,-0.192,0.953,0.047
41.7,0.04,0.559,0.08
41.71,-0.466,0.916,-0.243
41.72,-0.094,1.804,0.072
41.73,-0.193,0.854,-0.06
41.74,0.095,0.585,0.064
41.75,-0.5,0.777,-0.251
41.76,-0.065,1.797,0.031
41.77,-0.012,0.836,0.073
41.78,0.032,0.848,-0.0
41.79,-0.358,0.451,-0.146
41.8,-0.088,1.955,0.162
41.81,-0.064,0.635,0.029
41.82,-0.069,1.199,-0.05
41.83,-0.405,0.335,-0.188
41.84,-0.028,1.95,0.142
41.85,-0.203,0.882,0.026
41.86,-0.029,0.716,-0.014
41.87,-0.497,0.85,-0.13
41.88,-0.008,1.232,0.072
41.89,-0.429,1.175,0.116
41.9,0.051,0.667,-0.007
41.91,0.124,0.425,0.051
41.92,-0.437,0.991,-0.226
41.93,-0.05,1.487,0.037
41.94,-0.192,1.096,0.087
41.95,0.117,0.772,0.005
41.96,-0.478,0.597,-0.197
41.97,0.008,1.947,0.133
41.98,-0.156,0.681,0.109
41.99,-0.11,1.059,0.014
42.0,-0.51,0.338,-0.128
42.01,-0.044,2.0,0.183
42.02,-0.226,0.812,0.081
42.03,0.008,0.885,0.007
42.04,-0.507,0.699,-0.208
42.05,0.004,1.302,0.173
42.06,-0.213,1.149,0.053
42.07,0.046,0.622,-0.029
42.08,-0.404,1.03,-0.159
42.09,0.05,1.287,0.178
42.1,-0.233,1.157,0.092
42.11,-0.02,0.818,-0.108
42.12,-0.442,0.623,-0.099
42.13,-0.036,1.508,0.181
42.14,-0.13,0.863,0.076
42.15,-0.117,1.101,-0.1
42.16,-0.322,0.332,-0.154
42.17,-0.128,1.581,0.158
42.18,-0.247,0.763,0.06
42.19,-0.314,0.984,-0.098
42.2,-0.393,0.443,-0.084
42.21,-0.127,1.22,0.255
42.22,-0.215,1.033,-0.015
42.23,-0.275,0.624,-0.146
42.24,-0.421,0.913,-0.096
42.25,-0.06,0.844,0.27
42.26,-0.295,1.438,0.035
42.27,-0.24,0.327,-0.101
42.28,-0.43,1.046,-0.045
42.29,0.03,1.05,0.185
42.3,-0.317,0.908,0.036
42.31,-0.314,0.753,-0.092
42.32,-0.468,0.541,-0.014
42.33,0.002,1.219,0.155
42.34,-0.157,0.668,0.064
42.35,-0.554,0.933,-0.168
42.36,-0.332,0.537,-0.046
42.37,-0.119,1.034,0.131
42.38,-0.191,1.009,0.014
42.39,-0.405,0.442,-0.124
42.4,-0.234,1.716,-0.052
42.41,0.004,0.641,0.181
42.42,-0.186,1.045,0.015
42.43,-0.377,0.324,-0.206
42.44,-0.332,1.945,-0.041
42.45,-0.078,0.589,0.151
42.46,-0.126,0.883,0.08
42.47,-0.537,0.679,-0.229
42.48,-0.176,1.358,0.015
42.49,-0.246,0.858,0.099
42.5,0.054,0.588,0.026
42.51,-0.477,0.827,-0.221
42.52,-0.057,1.541,0.075
42.53,-0.253,1.172,0.141
42.54,0.133,0.508,0.049
42.55,-0.541,0.797,-0.161
42.56,-0.027,1.912,0.148
42.57,-0.232,0.757,0.07
42.58,0.069,0.961,-0.02
42.59,-0.482,0.383,-0.205
42.6,-0.058,2.0,0.163
42.61,-0.257,0.55,0.05
42.62,-0.004,0.959,-0.009
42.63,-0.419,0.475,-0.264
42.64,-0.025,1.74,0.065
42.65,-0.166,0.975,0.029
42.66,0.085,0.66,0.004
42.67,-0.542,0.972,-0.146
42.68,-0.053,1.341,0.221
42.69,-0.361,1.164,0.164
42.7,0.043,0.724,-0.02
42.71,-0.497,0.848,-0.133
42.72,0.161,1.802,0.157
42.73,-0.225,1.002,0.104
42.74,0.002,0.896,-0.058
42.75,-0.49,0.434,-0.186
42.76,-0.018,1.648,0.101
42.77,-0.185,0.661,0.044
42.78,-0.051,1.116,-0.066
42.79,-0.346,0.408,-0.204
42.8,-0.01,1.538,0.095
42.81,-0.271,0.899,0.073
42.82,-0.13,0.758,-0.136
42.83,-0.383,0.867,-0.146
42.84,0.046,1.175,0.108
42.85,-0.302,1.465,0.122
42.86,0.032,0.534,-0.118
42.87,-0.451,0.906,-0.094
42.88,-0.041,1.199,0.244
42.89,-0.318,1.001,0.049
42.9,-0.186,0.834,-0.184
42.91,-0.332,0.414,-0.098
42.92,-0.154,1.516,0.227
42.93,-0.163,0.663,0.074
42.94,-0.379,1.035,-0.127
42.95,-0.369,0.404,-0.09
42.96,-0.198,1.268,0.242
42.97,-0.236,1.139,0.073
42.98,-0.255,0.502,-0.131
42.99,-0.292,0.978,-0.082
43.0,0.07,0.989,0.157
43.01,-0.328,1.232,0.068
43.02,-0.298,0.332,-0.137
43.03,-0.417,0.986,-0.041
43.04,0.075,0.996,0.107
43.05,-0.161,0.967,-0.006
43.06,-0.359,0.743,-0.227
43.07,-0.341,0.471,-0.091
43.08,-0.056,1.205,0.083
43.09,-0.075,0.787,-0.022
43.1,-0.5,0.82,-0.142
43.11,-0.195,1.033,-0.057
43.12,-0.109,1.028,0.204
43.13,-0.137,0.754,0.059
43.14,-0.417,0.663,-0.14
43.15,-0.312,1.892,-0.076
43.16,0.018,0.567,0.147
43.17,-0.139,1.059,0.066
43.18,-0.379,0.435,-0.24
43.19,-0.415,1.608,0.024
43.2,-0.117,0.456,0.157
43.21,-0.188,0.964,0.08
43.22,-0.386,0.626,-0.229
43.23,-0.262,1.681,-0.033
43.24,-0.097,1.039,0.102
43.25,0.047,0.463,0.099
43.26,-0.488,0.94,-0.17
43.27,-0.315,1.665,0.049
43.28,-0.155,0.906,0.09
43.29,0.057,0.687,0.06
43.3,-0.423,0.654,-0.234
43.31,-0.225,2.0,0.041
43.32,-0.229,0.633,-0.035
43.33,0.084,0.898,0.032
43.34,-0.468,0.433,-0.25
43.35,-0.171,2.0,0.092
43.36,-0.127,0.66,0.085
43.37,-0.021,1.011,0.04
43.38,-0.368,0.35,-0.212
43.39,-0.088,1.95,0.043
43.4,-0.208,0.945,0.072
43.41,0.064,0.711,-0.011
43.42,-0.555,0.93,-0.221
43.43,0.101,1.821,0.217
43.44,-0.44,1.115,0.043
43.45,0.157,0.437,0.009
43.46,-0.604,0.944,-0.209
43.47,-0.083,1.238,0.15
43.48,-0.273,0.878,0.078
43.49,0.024,0.998,0.001
43.5,-0.356,0.339,-0.114
43.51,-0.044,1.795,0.141
43.52,-0.107,0.536,0.121
43.53,-0.165,1.271,-0.056
43.54,-0.415,0.353,-0.183
43.55,0.058,2.0,0.188
43.56,-0.233,1.12,0.093
43.57,-0.014,0.599,-0.073
43.58,-0.479,0.947,-0.157
43.59,0.004,1.144,0.084
43.6,-0.351,1.263,0.087
43.61,0.118,0.602,-0.068
43.62,-0.401,0.874,-0.163
43.63,0.043,1.32,0.054
43.64,-0.199,0.894,0.07
43.65,-0.133,0.996,-0.169
43.66,-0.445,0.353,-0.107
43.67,0.052,1.641,0.178
43.68,-0.053,0.879,0.101
43.69,-0.163,1.0,-0.13
43.7,-0.364,0.451,-0.056
43.71,-0.224,1.26,0.229
43.72,-0.329,1.002,-0.006
43.73,-0.18,0.566,-0.106
43.74,-0.367,0.908,-0.078
43.75,0.058,1.125,0.149
43.76,-0.323,1.125,0.118
43.77,-0.346,0.604,-0.135
43.78,-0.502,0.825,-0.043
43.79,-0.091,1.079,0.177
43.8,-0.222,1.29,0.133
43.81,-0.146,0.675,-0.116
43.82,-0.332,0.593,0.003
43.83,0.02,1.461,0.125
43.84,-0.246,0.562,0.022
43.85,-0.444,0.954,-0.054
43.86,-0.306,0.594,-0.061
43.87,-0.029,1.227,0.174
43.88,-0.073,0.734,0.052
43.89,-0.449,0.746,-0.171
43.9,-0.375,0.856,-0.097
43.91,-0.166,0.646,0.177
43.92,-0.298,1.422,0.016
43.93,-0.221,0.204,-0.158
43.94,-0.185,1.631,-0.079
43.95,0.062,0.811,0.174
43.96,-0.15,0.791,-0.028
43.97,-0.347,0.677,-0.209
43.98,-0.244,1.512,-0.174
43.99,-0.054,1.11,0.108
44.0,0.117,0.39,0.064
44.01,-0.564,1.178,-0.29
44.02,-0.307,0.712,-0.028
44.03,-0.281,0.77,0.084
44.04,-0.228,0.929,0.03
44.05,-0.377,0.474,-0.153
44.06,-0.333,2.0,-0.054
44.07,0.01,0.688,0.133
44.08,-0.155,0.898,0.116
44.09,-0.391,0.342,-0.105
44.1,-0.444,2.0,-0.01
44.11,-0.015,0.605,0.087
44.12,-0.095,0.868,0.105
44.13,-0.417,0.437,-0.319
44.14,-0.083,2.0,0.094
44.15,-0.267,0.599,-0.031
44.16,0.053,0.722,0.064
44.17,-0.447,0.785,-0.224
44.18,0.002,1.471,0.015
44.19,-0.128,1.331,0.077
44.2,0.128,0.477,-0.002
44.21,-0.497,0.857,-0.201
44.22,0.075,1.753,0.059
44.23,-0.168,0.878,0.015
44.24,0.071,0.963,-0.025
44.25,-0.505,0.462,-0.21
44.26,-0.024,2.0,0.245
44.27,-0.412,0.567,0.072
44.28,0.018,1.0,0.029
44.29,-0.546,0.428,-0.138
44.3,-0.131,1.603,0.223
44.31,-0.218,0.949,0.052
44.32,0.063,0.697,0.019
44.33,-0.479,0.907,-0.129
44.34,0.093,1.306,0.165
44.35,-0.38,1.113,0.177
44.36,0.095,0.747,-0.054
44.37,-0.517,0.913,-0.153
44.38,0.153,1.635,0.216
44.39,-0.241,1.145,0.141
44.4,-0.051,0.821,-0.067
44.41,-0.349,0.56,-0.097
44.42,-0.177,1.609,0.125
44.43,-0.155,0.677,0.066
44.44,-0.149,1.069,-0.102
44.45,-0.29,0.377,-0.154
44.46,-0.103,1.532,0.201
44.47,-0.235,0.795,0.064
44.48,-0.151,0.801,-0.134
44.49,-0.399,0.815,-0.194
44.5,0.036,1.192,0.149
44.51,-0.145,1.438,0.06
44.52,0.025,0.483,-0.119
44.53,-0.362,0.97,-0.106
44.54,-0.167,1.042,0.315
44.55,-0.385,1.109,0.044
44.56,-0.2,0.707,-0.081
44.57,-0.305,0.467,-0.093
44.58,-0.09,1.511,0.189
44.59,-0.121,0.613,0.074
44.6,-0.442,1.049,-0.15
44.61,-0.271,0.353,-0.104
44.62,-0.288,1.24,0.26
44.63,-0.113,1.063,0.01
44.64,-0.302,0.571,-0.063
44.65,-0.306,0.982,-0.071
44.66,0.17,0.994,0.143
44.67,-0.286,1.127,-0.013
44.68,-0.216,0.385,-0.155
44.69,-0.467,1.109,-0.069
44.7,0.078,0.891,0.161
44.71,-0.171,0.987,0.061
44.72,-0.465,0.675,-0.176
44.73,-0.377,0.537,-0.023
44.74,-0.196,1.114,0.19
44.75,-0.161,0.798,0.021
44.76,-0.388,0.827,-0.125
44.77,-0.236,1.115,-0.023
44.78,-0.032,1.128,0.199
44.79,-0.107,0.65,0.008
44.8,-0.395,0.669,-0.183
44.81,-0.364,1.51,-0.077
44.82,0.046,0.588,0.177
44.83,-0.233,1.1,0.03
44.84,-0.415,0.38,-0.291
44.85,-0.447,1.258,0.045
44.86,-0.117,0.575,0.145
44.87,-0.297,1.035,0.041
44.88,-0.347,0.492,-0.192
44.89,-0.201,1.733,-0.035
44.9,-0.001,1.169,0.13
44.91,0.172,0.392,0.08
44.92,-0.628,1.065,-0.194
44.93,-0.027,1.707,0.079
44.94,-0.258,1.01,0.113
44.95,0.196,0.555,0.067
44.96,-0.55,0.955,-0.284
44.97,-0.065,1.961,0.069
44.98,-0.264,0.691,-0.043
44.99,0.121,0.898,0.075
45.0,-0.565,0.38,-0.217
45.01,-0.035,1.991,0.053
45.02,-0.04,0.739,0.032
45.03,-0.004,0.976,0.024
45.04,-0.37,0.354,-0.229
45.05,0.021,2.0,0.025
45.06,-0.16,0.833,0.026
45.07,0.107,0.742,-0.04
45.08,-0.61,0.886,-0.235
45.09,0.086,1.827,0.258
45.1,-0.534,1.118,0.045
45.11,0.189,0.405,0.017
45.12,-0.602,0.955,-0.212
45.13,-0.039,1.222,0.038
45.14,-0.236,0.868,0.083
45.15,0.038,0.959,-0.029
45.16,-0.363,0.412,-0.155
45.17,-0.055,1.846,0.166
45.18,-0.135,0.594,0.222
45.19,-0.218,1.272,-0.048
45.2,-0.414,0.304,-0.155
45.21,0.011,2.0,0.211
45.22,-0.196,1.042,0.102
45.23,-0.007,0.578,-0.032
45.24,-0.511,0.953,-0.188
45.25,-0.081,1.12,0.13
45.26,-0.344,1.268,0.044
45.27,0.014,0.535,-0.06
45.28,-0.395,0.888,-0.12
45.29,-0.043,1.317,0.168
45.3,-0.158,0.925,0.115
45.31,-0.214,0.975,-0.142
45.32,-0.394,0.346,-0.133
45.33,-0.124,1.554,0.188
45.34,-0.044,0.871,0.119
45.35,-0.23,1.0,-0.098
45.36,-0.292,0.419,-0.097
45.37,-0.204,1.41,0.236
45.38,-0.298,0.878,0.012
45.39,-0.147,0.742,-0.146
45.4,-0.431,0.85,-0.12
45.41,-0.006,1.06,0.206
45.42,-0.355,1.228,0.135
45.43,-0.171,0.486,-0.151
45.44,-0.408,0.933,-0.106
45.45,-0.08,1.051,0.239
45.46,-0.281,1.197,0.007
45.47,-0.24,0.612,-0.105
45.48,-0.3,0.585,-0.08
45.49,-0.077,1.474,0.135
45.5,-0.153,0.677,0.021
45.51,-0.373,0.987,-0.106
45.52,-0.334,0.372,-0.091
45.53,-0.097,1.31,0.204
45.54,-0.163,0.915,0.057
45.55,-0.369,0.706,-0.14
45.56,-0.362,0.847,-0.071
45.57,-0.14,0.893,0.276
45.58,-0.236,1.355,0.039
45.59,-0.252,0.217,-0.121
45.6,-0.347,1.222,-0.04
45.61,0.05,0.896,0.153
45.62,-0.252,0.971,0.038
45.63,-0.431,0.63,-0.167
45.64,-0.37,0.609,-0.015
45.65,-0.109,1.159,0.129
45.66,-0.095,0.686,-0.024
45.67,-0.482,0.904,-0.149
45.68,-0.306,0.621,-0.037
45.69,-0.115,1.085,0.147
45.7,-0.168,0.789,0.001
45.71,-0.433,0.555,-0.157
45.72,-0.148,1.843,-0.085
45.73,-0.01,0.673,0.178
45.74,-0.011,0.819,0.07
45.75,-0.508,0.45,-0.226
45.76,-0.252,2.0,-0.009
45.77,-0.103,0.395,0.058
45.78,-0.111,1.049,0.06
45.79,-0.403,0.362,-0.263
45.8,-0.326,2.0,0.032
45.81,-0.108,0.698,0.062
45.82,-0.009,0.64,0.077
45.83,-0.507,0.811,-0.194
45.84,-0.172,1.584,0.065
45.85,-0.191,1.07,0.137
45.86,0.154,0.497,0.096
45.87,-0.56,0.948,-0.222
45.88,-0.085,1.95,0.076
45.89,-0.219,0.771,0.039
45.9,0.064,0.798,0.043
45.91,-0.557,0.546,-0.217
45.92,-0.116,2.0,0.109
45.93,-0.141,0.622,0.115
45.94,0.03,1.008,0.039
45.95,-0.454,0.36,-0.291
45.96,-0.038,1.894,0.046
45.97,-0.09,0.936,0.074
45.98,0.024,0.713,-0.001
45.99,-0.457,0.846,-0.269
46.0,0.098,1.912,0.098
46.01,-0.303,1.182,0.113
46.02,0.188,0.434,-0.007
46.03,-0.572,1.043,-0.255
46.04,0.047,1.626,0.079
46.05,-0.231,1.056,0.084
46.06,0.083,0.803,-0.002
46.07,-0.498,0.513,-0.122
46.08,-0.07,1.869,0.145
46.09,-0.194,0.616,0.155
46.1,-0.049,1.17,0.031
46.11,-0.503,0.337,-0.155
46.12,0.017,2.0,0.162
46.13,-0.274,0.877,0.102
46.14,0.057,0.694,0.021
46.15,-0.638,0.912,-0.186
46.16,0.047,1.286,0.209
46.17,-0.331,1.172,0.107
46.18,0.123,0.584,0.031
46.19,-0.501,0.984,-0.204
46.2,0.059,1.395,0.133
46.21,-0.198,1.017,0.08
46.22,-0.038,0.929,-0.084
46.23,-0.37,0.472,-0.156
46.24,0.031,2.0,0.158
46.25,-0.144,0.781,0.077
46.26,-0.098,1.047,-0.021
46.27,-0.423,0.408,-0.189
46.28,-0.066,1.627,0.152
46.29,-0.248,0.878,0.09
46.3,-0.034,0.852,-0.015
46.31,-0.367,0.781,-0.158
46.32,-0.028,1.284,0.114
46.33,-0.305,1.186,0.133
46.34,-0.013,0.631,-0.054
46.35,-0.495,0.935,-0.15
46.36,0.048,1.234,0.163
46.37,-0.122,1.196,0.04
46.38,-0.073,0.753,-0.097
46.39,-0.36,0.606,-0.124
46.4,-0.186,1.547,0.121
46.41,-0.162,0.734,0.01
46.42,-0.14,1.126,-0.127
46.43,-0.302,0.313,-0.175
46.44,-0.141,1.502,0.15
46.45,-0.104,0.804,0.038
46.46,-0.184,0.872,-0.152
46.47,-0.39,0.764,-0.164
46.48,-0.001,1.248,0.157
46.49,-0.25,1.344,0.087
46.5,-0.055,0.443,-0.137
46.51,-0.456,1.044,-0.12
46.52,0.005,1.06,0.25
46.53,-0.344,1.138,0.058
46.54,-0.227,0.443,-0.089
46.55,-0.438,0.814,-0.114
46.56,-0.06,1.164,0.165
46.57,-0.145,0.873,0.059
46.58,-0.432,0.897,-0.113
46.59,-0.357,0.308,-0.07
46.6,-0.249,1.37,0.226
46.61,-0.083,0.921,0.084
46.62,-0.273,0.863,-0.133
46.63,-0.314,0.594,-0.096
46.64,0.003,1.243,0.164
46.65,-0.32,1.014,-0.023
46.66,-0.192,0.483,-0.1
46.67,-0.488,1.16,-0.091
46.68,0.12,0.819,0.144
46.69,-0.267,1.124,0.05
46.7,-0.393,0.472,-0.151
46.71,-0.465,0.839,-0.056
46.72,-0.1,0.901,0.176
46.73,-0.211,1.024,0.051
46.74,-0.371,0.739,-0.169
46.75,-0.225,0.71,-0.07
46.76,-0.04,1.225,0.123
46.77,-0.152,0.536,0.059
46.78,-0.358,0.847,-0.162
46.79,-0.303,1.385,-0.113
46.8,0.035,0.943,0.156
46.81,-0.125,0.749,0.024
46.82,-0.372,0.65,-0.243
46.83,-0.435,1.171,-0.057
46.84,0.011,0.525,0.068
46.85,-0.385,1.219,0.04
46.86,-0.249,0.313,-0.201
46.87,-0.441,1.537,-0.027
46.88,0.048,0.733,0.169
46.89,-0.177,0.736,0.024
46.9,-0.395,0.82,-0.214
46.91,-0.232,1.518,-0.07
46.92,-0.041,1.071,0.099
46.93,-0.007,0.448,0.067
46.94,-0.5,1.026,-0.227
46.95,-0.246,1.46,0.015
46.96,-0.225,0.665,0.136
46.97,-0.086,0.887,0.033
46.98,-0.417,0.44,-0.243
46.99,-0.326,2.0,0.051
47.0,-0.121,0.472,0.114
47.01,-0.096,1.027,0.084
47.02,-0.383,0.288,-0.212
47.03,-0.383,2.0,0.012
47.04,-0.126,0.641,0.086
47.05,0.045,0.698,0.06
47.06,-0.504,0.788,-0.218
47.07,-0.206,1.777,0.043
47.08,-0.257,0.876,0.047
47.09,0.022,0.525,0.113
47.1,-0.575,0.896,-0.197
47.11,-0.182,1.698,0.073
47.12,-0.259,0.867,0.11
47.13,0.08,0.722,0.079
47.14,-0.426,0.504,-0.203
47.15,-0.174,2.0,0.104
47.16,-0.046,0.614,0.113
47.17,-0.07,1.016,0.067
47.18,-0.405,0.328,-0.252
47.19,-0.156,2.0,0.114
47.2,-0.192,0.592,0.016
47.21,0.063,0.815,0.023
47.22,-0.514,0.731,-0.237
47.23,-0.018,1.795,0.158
47.24,-0.307,1.15,0.11
47.25,0.235,0.432,0.032
47.26,-0.572,0.993,-0.203
47.27,0.077,1.653,0.029
47.28,-0.212,1.022,0.05
47.29,0.17,0.844,-0.024
47.3,-0.473,0.565,-0.193
47.31,0.061,2.0,0.121
47.32,-0.208,0.628,0.027
47.33,-0.02,1.048,0.006
47.34,-0.478,0.354,-0.199
47.35,-0.067,1.81,0.209
47.36,-0.185,0.724,0.074
47.37,-0.067,1.046,-0.008
47.38,-0.364,0.518,-0.148
47.39,-0.11,1.473,0.096
47.4,-0.191,0.976,0.028
47.41,-0.045,0.772,-0.084
47.42,-0.43,0.893,-0.11
47.43,0.048,1.225,0.255
47.44,-0.2,1.386,0.126
47.45,0.002,0.563,-0.096
47.46,-0.354,0.924,-0.139
47.47,-0.09,1.373,0.073
47.48,-0.163,0.934,0.012
47.49,-0.095,0.997,-0.14
47.5,-0.227,0.372,-0.171
47.51,-0.143,1.573,0.172
47.52,-0.197,0.631,0.096
47.53,-0.371,1.055,-0.092
47.54,-0.334,0.437,-0.128
47.55,-0.108,1.413,0.116
47.56,-0.173,1.123,0.092
47.57,-0.081,0.615,-0.146
47.58,-0.406,0.97,-0.086
47.59,-0.083,0.994,0.271
47.6,-0.401,1.377,0.113
47.61,-0.129,0.37,-0.068
47.62,-0.406,0.923,-0.112
47.63,-0.006,1.199,0.191
47.64,-0.205,0.913,0.045
47.65,-0.371,0.921,-0.11
47.66,-0.318,0.32,-0.105
47.67,-0.221,1.472,0.202
47.68,-0.026,0.899,0.085
47.69,-0.29,0.933,-0.117
47.7,-0.207,0.539,-0.067
47.71,-0.056,1.289,0.135
47.72,-0.285,0.917,-0.003
47.73,-0.239,0.555,-0.12
47.74,-0.476,1.034,-0.097
47.75,0.198,0.829,0.12
47.76,-0.287,1.182,0.058
47.77,-0.346,0.458,-0.179
47.78,-0.463,0.887,-0.04
47.79,-0.179,0.844,0.214
47.8,-0.242,1.091,0.037
47.81,-0.324,0.63,-0.128
47.82,-0.193,1.044,-0.016
47.83,-0.073,1.195,0.188
47.84,-0.159,0.451,0.053
47.85,-0.442,0.936,-0.152
47.86,-0.26,1.173,-0.026
47.87,-0.139,0.941,0.211
47.88,-0.13,0.715,0.076
47.89,-0.448,0.683,-0.199
47.9,-0.408,1.2,0.006
47.91,-0.098,0.481,0.091
47.92,-0.276,1.226,0.045
47.93,-0.262,0.207,-0.199
47.94,-0.268,2.0,-0.072
47.95,0.11,0.788,0.105
47.96,-0.038,0.661,0.09
47.97,-0.499,0.836,-0.204
47.98,-0.323,1.738,-0.016
47.99,-0.161,0.935,0.135
48.0,0.056,0.499,0.137
48.01,-0.638,1.07,-0.244
48.02,-0.284,1.228,0.108
48.03,-0.258,0.642,0.121
48.04,-0.161,0.869,0.055
48.05,-0.438,0.455,-0.174
48.06,-0.322,1.992,0.047
48.07,-0.019,0.699,0.131
48.08,0.021,0.925,0.086
48.09,-0.462,0.403,-0.17
48.1,-0.38,2.0,0.146
48.11,-0.149,0.581,0.084
48.12,0.035,0.792,0.038
48.13,-0.49,0.793,-0.326
48.14,-0.122,1.803,0.113
48.15,-0.233,0.93,0.044
48.16,0.156,0.566,-0.018
48.17,-0.537,0.959,-0.205
48.18,-0.043,1.337,0.118
48.19,-0.283,1.238,0.11
48.2,0.086,0.53,0.071
48.21,-0.546,0.869,-0.187
48.22,0.104,1.848,0.09
48.23,-0.24,0.819,0.114
48.24,0.057,1.001,0.019
48.25,-0.569,0.445,-0.233
48.26,-0.01,2.0,0.168
48.27,-0.201,0.71,0.007
48.28,-0.022,0.969,-0.009
48.29,-0.478,0.515,-0.201
48.3,-0.105,1.595,0.163
48.31,-0.135,1.005,0.011
48.32,0.082,0.68,-0.007
48.33,-0.508,0.96,-0.176
48.34,0.114,1.321,0.164
48.35,-0.26,1.164,0.101
48.36,0.057,0.651,-0.058
48.37,-0.49,0.927,-0.165
48.38,0.061,1.544,0.213
48.39,-0.163,0.968,0.092
48.4,0.032,0.901,-0.126
48.41,-0.349,0.454,-0.177
48.42,-0.016,1.652,0.043
48.43,-0.17,0.711,0.078
48.44,-0.061,1.154,-0.095
48.45,-0.33,0.388,-0.17
48.46,0.062,1.531,0.113
48.47,-0.062,0.919,0.068
48.48,-0.024,0.742,-0.123
48.49,-0.464,0.896,-0.183
48.5,0.056,1.157,0.162
48.51,-0.379,1.391,0.12
48.52,0.05,0.498,-0.059
48.53,-0.426,0.888,-0.14
48.54,-0.099,1.285,0.142
48.55,-0.207,0.96,0.006
48.56,-0.108,0.967,-0.181
48.57,-0.34,0.308,-0.153
48.58,-0.053,1.603,0.115
48.59,0.007,0.839,0.084
48.6,-0.187,1.039,-0.135
48.61,-0.311,0.43,-0.147
48.62,-0.172,1.391,0.217
48.63,-0.246,1.04,0.019
48.64,-0.09,0.652,-0.138
48.65,-0.414,0.916,-0.133
48.66,-0.058,0.942,0.22
48.67,-0.3,1.221,0.076
48.68,-0.259,0.49,-0.113
48.69,-0.483,0.879,-0.086
48.7,-0.103,1.031,0.227
48.71,-0.17,1.135,0.041
48.72,-0.334,0.668,-0.101
48.73,-0.301,0.482,-0.036
48.74,-0.179,1.436,0.187
48.75,-0.137,0.695,0.055
48.76,-0.451,0.918,-0.099
48.77,-0.36,0.485,-0.07
48.78,-0.035,1.263,0.155
48.79,-0.201,0.877,0.056
48.8,-0.324,0.573,-0.136
48.81,-0.475,0.932,-0.084
48.82,-0.056,0.82,0.193
48.83,-0.301,1.327,0.058
