t,ax,ay,az
0.0,0.001,1.434,0.051
0.01,-0.167,1.066,0.106
0.02,-0.002,0.484,0.026
0.03,-0.544,0.754,-0.206
0.04,-0.047,1.728,0.091
0.05,-0.139,0.792,0.159
0.06,-0.008,0.888,0.015
0.07,-0.557,0.349,-0.181
0.08,-0.106,2.0,0.163
0.09,-0.181,0.573,0.106
0.1,-0.144,0.869,-0.027
0.11,-0.505,0.428,-0.164
0.12,-0.065,1.797,0.125
0.13,-0.067,0.977,0.106
0.14,0.084,0.444,-0.077
0.15,-0.472,0.941,-0.21
0.16,0.047,1.482,0.13
0.17,-0.128,1.268,0.041
0.18,0.042,0.545,-0.009
0.19,-0.447,0.841,-0.182
0.2,-0.025,1.698,0.147
0.21,-0.091,0.913,0.049
0.22,-0.013,0.851,-0.078
0.23,-0.34,0.32,-0.145
0.24,-0.196,1.868,0.116
0.25,-0.057,0.757,0.032
0.26,-0.114,0.987,-0.071
0.27,-0.302,0.333,-0.186
0.28,-0.16,1.568,0.172
0.29,-0.192,1.115,0.054
0.3,-0.041,0.578,-0.106
0.31,-0.422,0.858,-0.122
0.32,-0.036,1.258,0.212
0.33,-0.356,1.471,0.044
0.34,-0.054,0.34,-0.072
0.35,-0.411,0.792,-0.074
0.36,-0.095,1.166,0.183
0.37,-0.226,1.104,0.007
0.38,-0.223,0.888,-0.148
0.39,-0.287,0.384,-0.079
0.4,-0.095,1.358,0.222
0.41,-0.114,0.693,0.05
0.42,-0.411,1.068,-0.115
0.43,-0.328,0.399,-0.047
0.44,-0.136,1.152,0.197
0.45,-0.32,1.162,0.002
0.46,-0.168,0.54,-0.128
0.47,-0.394,1.093,-0.032
0.48,0.067,0.709,0.145
0.49,-0.374,1.412,0.002
0.5,-0.187,0.448,-0.149
0.51,-0.378,1.382,-0.027
0.52,0.035,0.809,0.172
0.53,-0.218,0.941,-0.017
0.54,-0.436,0.815,-0.163
0.55,-0.222,0.977,-0.016
0.56,-0.146,1.063,0.137
0.57,-0.108,0.694,0.022
0.58,-0.323,0.975,-0.182
0.59,-0.201,1.406,0.013
0.6,-0.033,0.955,0.162
0.61,-0.152,0.749,0.036
0.62,-0.437,0.548,-0.192
0.63,-0.236,1.927,0.068
0.64,-0.069,0.632,0.189
0.65,-0.214,1.031,0.072
0.66,-0.474,0.304,-0.224
0.67,-0.299,1.998,0.096
0.68,-0.146,0.636,0.071
0.69,-0.183,0.786,0.012
0.7,-0.429,0.637,-0.259
0.71,-0.026,1.587,0.032
0.72,-0.021,0.988,0.132
0.73,-0.004,0.423,-0.055
0.74,-0.51,0.914,-0.178
0.75,-0.015,1.482,0.098
0.76,-0.203,1.242,0.086
0.77,0.042,0.563,0.012
0.78,-0.458,0.804,-0.141
0.79,-0.05,1.729,0.214
0.8,-0.12,0.873,0.142
0.81,-0.108,1.198,0.172
0.82,-0.206,0.86,-0.031
0.83,-0.349,0.867,-0.154
0.84,-0.274,0.904,-0.034
0.85,-0.092,1.098,0.165
0.86,-0.078,0.708,-0.026
0.87,-0.416,0.976,-0.199
0.88,-0.2,1.365,0.072
0.89,-0.21,0.958,0.146
0.9,-0.169,0.677,0.021
0.91,-0.442,0.652,-0.174
0.92,-0.194,1.811,0.094
0.93,-0.049,0.694,0.135
0.94,-0.15,0.914,0.021
0.95,-0.368,0.241,-0.241
0.96,-0.143,2.0,0.087
0.97,0.015,0.722,0.1
0.98,-0.155,0.778,-0.032
0.99,-0.441,0.518,-0.231
1.0,-0.068,1.811,0.086
1.01,-0.131,0.99,0.092
1.02,0.044,0.418,-0.062
1.03,-0.533,0.978,-0.226
1.04,-0.009,1.458,0.057
1.05,-0.104,1.228,0.066
1.06,0.039,0.557,0.004
1.07,-0.438,0.68,-0.157
1.08,-0.085,1.764,0.191
1.09,-0.067,0.771,0.107
1.1,-0.14,1.033,-0.001
1.11,-0.414,0.253,-0.157
1.12,-0.148,1.975,0.208
1.13,-0.127,0.685,0.119
1.14,-0.105,0.893,0.018
1.15,-0.427,0.465,-0.132
1.16,-0.176,1.502,0.162
1.17,-0.309,1.22,0.058
1.18,-0.005,0.482,-0.067
1.19,-0.412,0.89,-0.137
1.2,-0.056,1.243,0.171
1.21,-0.258,1.378,0.026
1.22,-0.09,0.527,-0.096
1.23,-0.428,0.671,-0.064
1.24,-0.165,1.524,0.186
1.25,-0.204,1.083,0.043
1.26,-0.142,0.853,-0.094
1.27,-0.307,0.276,-0.113
1.28,-0.162,1.503,0.144
1.29,-0.187,0.82,0.005
1.3,-0.314,0.995,-0.113
1.31,-0.315,0.553,-0.02
1.32,-0.012,1.121,0.193
1.33,-0.258,1.125,-0.006
1.34,-0.239,0.653,-0.123
1.35,-0.43,1.094,-0.042
1.36,-0.03,0.688,0.204
1.37,-0.343,1.418,0.001
1.38,-0.248,0.392,-0.12
1.39,-0.268,1.501,-0.052
1.4,-0.077,0.85,0.219
1.41,-0.155,0.79,-0.044
1.42,-0.407,0.957,-0.177
1.43,-0.131,1.279,-0.066
1.44,-0.141,1.131,0.147
1.45,-0.136,0.53,0.001
1.46,-0.47,1.022,-0.137
1.47,-0.239,1.396,0.045
1.48,-0.168,0.98,0.155
1.49,-0.13,0.655,0.038
1.5,-0.422,0.661,-0.168
1.51,-0.187,1.835,0.053
1.52,0.019,0.702,0.103
1.53,-0.194,0.9,-0.004
1.54,-0.331,0.193,-0.206
1.55,-0.183,2.0,0.085
1.56,-0.034,0.609,0.142
1.57,-0.098,0.839,-0.062
1.58,-0.483,0.526,-0.204
1.59,-0.037,1.799,0.103
1.6,-0.179,0.996,0.102
1.61,0.039,0.409,-0.046
1.62,-0.57,0.955,-0.189
1.63,0.026,1.469,0.121
1.64,-0.173,1.193,0.093
1.65,0.099,0.47,-0.016
1.66,-0.572,0.766,-0.153
1.67,-0.101,1.67,0.109
1.68,-0.126,0.851,0.108
1.69,-0.116,0.995,-0.038
1.7,-0.385,0.253,-0.13
1.71,-0.173,1.906,0.17
1.72,-0.06,0.816,0.108
1.73,-0.156,0.871,-0.054
1.74,-0.426,0.437,-0.153
1.75,-0.107,1.599,0.151
1.76,-0.205,1.167,0.017
1.77,0.034,0.465,-0.124
1.78,-0.454,0.897,-0.151
1.79,-0.063,1.094,0.154
1.8,-0.356,1.36,0.074
1.81,-0.142,0.506,-0.084
1.82,-0.476,0.672,-0.08
1.83,-0.15,1.344,0.218
1.84,-0.248,1.0,0.087
1.85,-0.246,0.949,-0.076
1.86,-0.414,0.231,-0.02
1.87,-0.204,1.47,0.227
1.88,-0.225,0.865,0.043
1.89,-0.318,0.917,-0.085
1.9,-0.307,0.591,-0.089
1.91,-0.027,1.089,0.182
1.92,-0.32,1.129,0.001
1.93,-0.155,0.63,-0.171
1.94,-0.484,1.038,-0.056
1.95,0.036,0.778,0.231
1.96,-0.318,1.395,0.022
1.97,-0.229,0.426,-0.17
1.98,-0.338,1.058,-0.087
1.99,-0.039,0.921,0.144
2.0,-0.184,0.934,-0.013
2.01,-0.302,0.867,-0.158
2.02,-0.27,0.978,-0.029
2.03,-0.086,1.124,0.157
2.04,-0.17,0.633,-0.0
2.05,-0.401,1.013,-0.131
2.06,-0.289,1.32,-0.012
2.07,-0.056,0.858,0.156
2.08,-0.211,0.988,-0.011
2.09,-0.361,0.579,-0.181
2.1,-0.339,1.858,0.012
2.11,-0.081,0.517,0.126
2.12,-0.202,1.189,0.037
2.13,-0.396,0.359,-0.255
2.14,-0.244,1.837,0.075
2.15,-0.146,0.813,0.146
2.16,-0.11,0.634,0.051
2.17,-0.438,0.805,-0.21
2.18,-0.129,1.475,0.015
2.19,-0.114,1.115,0.149
2.2,0.013,0.441,0.049
2.21,-0.575,0.865,-0.202
2.22,-0.038,1.668,0.055
2.23,-0.17,0.841,0.068
2.24,0.006,0.786,-0.02
2.25,-0.456,0.446,-0.228
2.26,-0.098,2.0,0.113
2.27,-0.063,0.8,0.091
2.28,-0.037,0.832,-0.054
2.29,-0.393,0.267,-0.129
2.3,-0.188,2.0,0.125
2.31,-0.046,0.652,0.098
2.32,-0.079,0.909,-0.042
2.33,-0.426,0.476,-0.164
2.34,-0.058,1.753,0.2
2.35,-0.178,1.024,0.045
2.36,0.051,0.486,-0.044
2.37,-0.492,0.97,-0.183
2.38,-0.019,1.449,0.166
2.39,-0.298,1.323,0.075
2.4,0.04,0.503,-0.035
2.41,-0.466,0.721,-0.141
2.42,-0.13,1.518,0.141
2.43,-0.14,0.944,0.033
2.44,-0.189,0.993,-0.105
2.45,-0.286,0.198,-0.127
2.46,-0.205,1.816,0.183
2.47,-0.127,0.83,0.091
2.48,-0.198,0.91,-0.128
2.49,-0.287,0.442,-0.147
2.5,-0.208,1.307,0.198
2.51,-0.207,1.258,-0.022
2.52,-0.052,0.472,-0.152
2.53,-0.375,0.919,-0.106
2.54,0.019,0.884,0.143
2.55,-0.282,1.332,-0.012
2.56,-0.138,0.538,-0.124
2.57,-0.335,0.789,-0.09
2.58,-0.033,1.047,0.213
2.59,-0.212,1.074,-0.001
2.6,-0.245,0.923,-0.134
2.61,-0.345,0.561,0.001
2.62,-0.066,1.25,0.216
2.63,-0.171,0.724,-0.04
2.64,-0.321,0.989,-0.146
2.65,-0.166,1.3,-0.16
2.66,0.014,0.964,0.096
2.67,-0.232,0.925,-0.049
2.68,-0.337,0.518,-0.164
2.69,-0.347,1.661,-0.051
2.7,-0.058,0.561,0.111
2.71,-0.277,1.25,-0.0
2.72,-0.233,0.362,-0.195
2.73,-0.333,1.809,-0.009
2.74,-0.143,0.666,0.113
2.75,-0.155,0.768,0.045
2.76,-0.34,0.809,-0.133
2.77,-0.116,1.464,0.052
2.78,-0.117,1.165,0.152
2.79,0.006,0.416,0.023
2.8,-0.555,0.859,-0.201
2.81,-0.171,1.617,0.137
2.82,-0.328,0.761,0.073
2.83,-0.112,0.851,0.002
2.84,-0.459,0.381,-0.187
2.85,-0.05,2.0,0.088
2.86,-0.071,0.567,0.138
2.87,-0.148,0.858,-0.043
2.88,-0.385,0.266,-0.179
2.89,-0.165,1.95,0.076
2.9,-0.004,0.847,0.108
2.91,-0.025,0.678,-0.027
2.92,-0.521,0.809,-0.165
2.93,-0.033,1.533,0.178
2.94,-0.19,1.292,0.114
2.95,0.021,0.41,-0.007
2.96,-0.51,0.961,-0.165
2.97,0.033,1.569,0.152
2.98,-0.165,1.064,0.019
2.99,0.101,0.77,-0.098
3.0,-0.358,0.396,-0.207
3.01,-0.241,1.639,0.106
3.02,-0.103,0.792,0.057
3.03,-0.262,0.975,-0.061
3.04,-0.308,0.198,-0.087
3.05,-0.268,1.491,0.23
3.06,-0.235,0.991,0.048
3.07,-0.142,0.798,-0.114
3.08,-0.332,0.537,-0.102
3.09,-0.056,1.123,0.207
3.1,-0.265,1.27,0.009
3.11,-0.137,0.462,-0.181
3.12,-0.26,1.544,-0.067
3.13,0.002,0.719,0.157
3.14,-0.384,1.2,0.04
3.15,-0.252,0.482,-0.16
3.16,-0.34,1.213,-0.022
3.17,0.028,0.942,0.126
3.18,-0.248,0.79,0.019
3.19,-0.386,0.951,-0.153
3.2,-0.271,0.879,0.005
3.21,-0.221,1.093,0.169
3.22,-0.196,0.732,0.012
3.23,-0.402,0.952,-0.117
3.24,-0.194,1.454,0.048
3.25,-0.091,0.915,0.243
3.26,-0.138,0.804,0.023
3.27,-0.457,0.459,-0.154
3.28,-0.25,2.0,0.077
3.29,-0.096,0.573,0.134
3.3,-0.169,1.081,0.018
3.31,-0.427,0.281,-0.258
3.32,-0.144,1.945,0.054
3.33,-0.099,0.782,0.027
3.34,-0.031,0.591,-0.007
3.35,-0.528,0.789,-0.227
3.36,-0.016,1.523,0.042
3.37,-0.038,1.208,0.088
3.38,0.118,0.357,-0.033
3.39,-0.474,0.944,-0.23
3.4,-0.014,1.595,0.09
3.41,-0.095,0.931,0.093
3.42,0.018,0.821,-0.076
3.43,-0.489,0.446,-0.175
3.44,-0.05,2.0,0.188
3.45,-0.149,0.608,0.084
3.46,-0.048,0.935,-0.016
3.47,-0.493,0.292,-0.159
3.48,-0.043,1.929,0.153
3.49,-0.117,0.856,0.068
3.5,-0.006,0.645,-0.039
3.51,-0.525,0.794,-0.146
3.52,-0.025,1.436,0.135
3.53,-0.331,1.335,0.058
3.54,0.002,0.453,0.002
3.55,-0.472,0.888,-0.179
3.56,-0.033,1.491,0.152
3.57,-0.236,1.211,0.064
3.58,-0.116,0.739,-0.065
3.59,-0.438,0.341,-0.094
3.6,-0.17,1.604,0.14
3.61,-0.165,0.862,0.087
3.62,-0.27,0.971,-0.08
3.63,-0.408,0.225,-0.073
3.64,-0.15,1.421,0.174
3.65,-0.307,0.933,0.025
3.66,-0.136,0.744,-0.081
3.67,-0.438,0.717,-0.056
3.68,-0.069,0.953,0.226
3.69,-0.352,1.446,0.002
3.7,-0.164,0.433,-0.107
3.71,-0.407,0.991,-0.034
3.72,0.015,0.833,0.191
3.73,-0.282,1.314,0.005
3.74,-0.224,0.717,-0.148
3.75,-0.266,0.828,-0.018
3.76,-0.094,1.158,0.214
3.77,-0.16,0.726,-0.003
3.78,-0.395,0.991,-0.145
3.79,-0.174,0.843,-0.011
3.8,-0.121,1.109,0.173
3.81,-0.179,0.792,-0.048
3.82,-0.341,0.772,-0.124
3.83,-0.233,1.553,-0.065
3.84,-0.036,0.685,0.134
3.85,-0.255,1.143,-0.02
3.86,-0.311,0.421,-0.17
3.87,-0.358,1.95,0.02
3.88,-0.077,0.641,0.173
3.89,-0.198,1.048,0.023
3.9,-0.421,0.331,-0.239
3.91,-0.186,1.924,0.047
3.92,-0.061,0.821,0.082
3.93,-0.034,0.626,0.031
3.94,-0.478,0.755,-0.215
3.95,-0.028,1.565,0.066
3.96,-0.104,1.071,0.099
3.97,0.112,0.502,-0.004
3.98,-0.5,0.875,-0.279
3.99,0.088,1.64,0.017
4.0,-0.157,0.899,0.069
4.01,0.088,0.774,-0.028
4.02,-0.471,0.436,-0.206
4.03,-0.071,2.0,0.176
4.04,-0.134,0.563,0.098
4.05,-0.118,0.925,0.009
4.06,-0.458,0.341,-0.176
4.07,-0.104,1.943,0.136
4.08,-0.16,0.814,0.132
4.09,0.017,0.618,-0.014
4.1,-0.603,0.848,-0.138
4.11,-0.033,1.487,0.146
4.12,-0.262,1.266,0.148
4.13,0.045,0.452,-0.002
4.14,-0.623,0.958,-0.139
4.15,0.052,1.572,0.189
4.16,-0.272,1.05,0.11
4.17,-0.013,0.772,-0.01
4.18,-0.486,0.438,-0.114
4.19,-0.17,1.789,0.189
4.2,-0.104,0.797,0.104
4.21,-0.155,0.966,-0.088
4.22,-0.406,0.233,-0.126
4.23,-0.177,1.614,0.168
4.24,-0.177,0.969,0.017
4.25,-0.1,0.686,-0.12
4.26,-0.301,0.756,-0.203
4.27,-0.075,1.308,0.146
4.28,-0.245,1.405,0.036
4.29,-0.044,0.368,-0.084
4.3,-0.468,0.863,-0.139
4.31,-0.065,1.088,0.213
4.32,-0.25,1.342,0.067
4.33,-0.174,0.659,-0.095
4.34,-0.408,0.45,-0.035
4.35,-0.153,1.384,0.183
4.36,-0.154,0.765,0.049
4.37,-0.294,1.053,-0.127
4.38,-0.331,0.292,-0.085
4.39,-0.174,1.326,0.199
4.4,-0.221,1.038,-0.022
4.41,-0.175,0.704,-0.099
4.42,-0.267,1.046,-0.122
4.43,-0.005,0.786,0.169
4.44,-0.281,1.259,-0.026
4.45,-0.187,0.448,-0.129
4.46,-0.324,1.339,-0.099
4.47,0.012,0.753,0.149
4.48,-0.236,1.097,-0.02
4.49,-0.295,0.645,-0.156
4.5,-0.287,1.061,-0.066
4.51,-0.057,1.05,0.158
4.52,-0.112,0.663,-0.009
4.53,-0.366,1.033,-0.168
4.54,-0.26,1.169,-0.028
4.55,-0.177,1.034,0.171
4.56,-0.229,0.747,0.052
4.57,-0.364,0.746,-0.151
4.58,-0.396,1.717,0.03
4.59,-0.081,0.63,0.17
4.6,-0.298,1.074,0.028
4.61,-0.337,0.303,-0.154
4.62,-0.385,1.931,0.041
4.63,-0.092,0.534,0.127
4.64,-0.262,0.979,-0.008
4.65,-0.34,0.547,-0.249
4.66,-0.217,1.736,0.036
4.67,-0.184,0.879,0.109
4.68,-0.006,0.551,0.021
4.69,-0.565,0.728,-0.203
4.7,0.011,1.541,0.085
4.71,-0.105,1.214,0.051
4.72,0.086,0.394,-0.023
4.73,-0.499,0.885,-0.216
4.74,-0.019,1.646,0.143
4.75,-0.186,0.912,0.094
4.76,-0.061,0.765,-0.029
4.77,-0.432,0.428,-0.155
4.78,-0.106,1.961,0.149
4.79,0.012,0.657,0.082
4.8,-0.083,0.973,-0.06
4.81,-0.378,0.3,-0.117
4.82,-0.216,1.747,0.12
4.83,-0.177,0.927,0.079
4.84,-0.11,0.75,-0.04
4.85,-0.434,0.768,-0.129
4.86,-0.09,1.41,0.236
4.87,-0.231,1.336,0.062
4.88,-0.047,0.445,-0.113
4.89,-0.429,0.896,-0.087
4.9,-0.039,0.972,0.213
4.91,-0.365,1.477,-0.008
4.92,-0.111,0.466,-0.056
4.93,-0.351,0.935,-0.016
4.94,0.009,1.063,0.178
4.95,-0.215,0.823,0.013
4.96,-0.415,1.035,-0.173
4.97,-0.304,0.439,-0.007
4.98,-0.147,1.299,0.194
4.99,-0.206,0.784,0.033
5.0,-0.294,0.989,-0.169
5.01,-0.256,1.268,-0.117
5.02,0.046,0.873,0.154
5.03,-0.308,1.038,-0.026
5.04,-0.211,0.533,-0.198
5.05,-0.355,1.843,-0.084
5.06,0.014,0.621,0.168
5.07,-0.188,1.088,0.054
5.08,-0.354,0.459,-0.234
5.09,-0.321,1.733,0.018
5.1,-0.204,0.738,0.132
5.11,-0.118,0.803,0.006
5.12,-0.407,0.801,-0.187
5.13,-0.073,1.467,0.043
5.14,-0.117,1.178,0.231
5.15,-0.021,0.395,0.026
5.16,-0.513,0.867,-0.197
5.17,-0.043,1.661,0.022
5.18,-0.105,0.913,0.065
5.19,-0.018,0.802,-0.036
5.2,-0.531,0.361,-0.213
5.21,-0.151,2.0,0.103
5.22,-0.154,0.537,0.056
5.23,-0.194,0.923,-0.021
5.24,-0.392,0.287,-0.208
5.25,-0.126,1.9,0.105
5.26,0.0,0.823,0.11
5.27,-0.002,0.548,-0.03
5.28,-0.555,0.847,-0.16
5.29,-0.026,1.549,0.215
5.3,-0.25,1.177,0.156
5.31,0.067,0.458,-0.034
5.32,-0.553,0.978,-0.174
5.33,-0.027,1.552,0.198
5.34,-0.123,1.065,0.075
5.35,-0.022,0.758,-0.058
5.36,-0.293,0.414,-0.192
5.37,-0.189,1.714,0.059
5.38,-0.057,0.746,0.067
5.39,-0.206,0.963,-0.129
5.4,-0.334,0.233,-0.168
5.41,-0.113,1.607,0.184
5.42,-0.198,1.033,0.046
5.43,-0.082,0.634,-0.089
5.44,-0.442,0.771,-0.161
5.45,-0.008,1.248,0.175
5.46,-0.315,1.443,0.054
5.47,-0.005,0.32,-0.107
5.48,-0.473,0.861,-0.137
5.49,-0.026,1.069,0.182
5.5,-0.249,1.335,0.001
5.51,-0.222,0.593,-0.142
5.52,-0.381,0.853,-0.054
5.53,-0.041,1.063,0.205
5.54,-0.15,0.917,0.024
5.55,-0.33,0.945,-0.16
5.56,-0.301,0.518,-0.062
5.57,-0.108,1.215,0.16
5.58,-0.169,0.802,0.01
5.59,-0.269,0.913,-0.134
5.6,-0.289,1.406,-0.094
5.61,-0.047,0.883,0.189
5.62,-0.22,0.991,0.002
5.63,-0.335,0.493,-0.21
5.64,-0.323,1.623,-0.04
5.65,-0.059,0.627,0.141
5.66,-0.254,1.243,0.013
5.67,-0.274,0.446,-0.185
5.68,-0.321,1.699,0.026
5.69,-0.136,0.746,0.163
5.7,-0.163,0.717,-0.013
5.71,-0.457,0.825,-0.174
5.72,-0.144,1.418,0.039
5.73,-0.158,1.19,0.216
5.74,-0.045,0.432,0.064
5.75,-0.602,0.874,-0.186
5.76,-0.114,1.642,0.078
5.77,-0.235,0.767,0.083
5.78,-0.018,0.872,0.038
5.79,-0.499,0.426,-0.186
5.8,-0.157,2.0,0.129
5.81,-0.087,0.528,0.108
5.82,-0.092,0.968,-0.015
5.83,-0.45,0.307,-0.202
5.84,-0.116,1.906,0.052
5.85,-0.099,0.789,0.137
5.86,0.067,0.62,-0.036
5.87,-0.663,0.845,-0.216
5.88,0.028,1.513,0.146
5.89,-0.309,1.192,0.152
5.9,0.093,0.395,0.016
5.91,-0.592,0.945,-0.219
5.92,0.055,1.624,0.072
5.93,-0.146,0.949,0.052
5.94,-0.018,0.744,-0.054
5.95,-0.44,0.423,-0.145
5.96,-0.136,2.0,0.115
5.97,-0.125,0.604,0.117
5.98,-0.047,1.044,-0.016
5.99,-0.407,0.307,-0.124
6.0,-0.127,1.902,0.167
6.01,-0.083,0.913,0.086
6.02,-0.037,0.636,-0.064
6.03,-0.42,0.845,-0.203
6.04,-0.052,1.453,0.136
6.05,-0.241,1.302,0.064
6.06,0.049,0.389,-0.066
6.07,-0.405,0.912,-0.185
6.08,-0.027,1.28,0.107
6.09,-0.256,1.092,0.018
6.1,-0.046,0.812,-0.105
6.11,-0.412,0.378,-0.159
6.12,-0.097,1.693,0.138
6.13,-0.13,0.756,0.043
6.14,-0.201,0.985,-0.103
6.15,-0.394,0.245,-0.125
6.16,-0.158,1.521,0.191
6.17,-0.214,1.042,0.004
6.18,-0.053,0.626,-0.137
6.19,-0.428,0.808,-0.128
6.2,0.05,0.98,0.195
6.21,-0.343,1.311,0.024
6.22,-0.062,0.5,-0.134
6.23,-0.524,0.872,-0.109
6.24,0.007,1.04,0.237
6.25,-0.382,1.336,0.082
6.26,-0.161,0.643,-0.068
6.27,-0.472,0.469,-0.032
6.28,-0.122,1.336,0.29
6.29,-0.172,0.807,0.059
6.3,-0.323,1.036,-0.1
6.31,-0.245,0.81,-0.069
6.32,-0.057,1.261,0.162
6.33,-0.127,0.676,-0.01
6.34,-0.308,0.973,-0.183
6.35,-0.314,0.95,-0.079
6.36,0.009,0.878,0.106
6.37,-0.227,1.134,-0.071
6.38,-0.144,0.52,-0.165
6.39,-0.341,1.807,-0.135
6.4,0.093,0.63,0.156
6.41,-0.326,1.184,0.038
6.42,-0.267,0.493,-0.144
6.43,-0.387,1.721,-0.035
6.44,-0.098,0.858,0.157
6.45,-0.231,0.694,0.037
6.46,-0.402,0.896,-0.166
6.47,-0.233,1.36,0.016
6.48,-0.216,1.01,0.147
6.49,-0.155,0.608,0.085
6.5,-0.42,0.861,-0.144
6.51,-0.284,1.529,0.065
6.52,-0.089,0.887,0.19
6.53,-0.176,0.828,0.001
6.54,-0.352,0.469,-0.151
6.55,-0.394,1.97,0.056
6.56,-0.087,0.452,0.148
6.57,-0.271,1.139,0.039
6.58,-0.349,0.317,-0.245
6.59,-0.238,1.833,0.072
6.6,-0.206,0.769,0.137
6.61,-0.056,0.585,-0.01
6.62,-0.502,0.768,-0.197
6.63,-0.011,1.521,0.033
6.64,-0.181,1.134,0.172
6.65,0.029,0.42,0.003
6.66,-0.596,0.886,-0.185
6.67,-0.112,1.614,0.116
6.68,-0.236,0.838,0.084
6.69,-0.08,0.796,0.038
6.7,-0.531,0.465,-0.168
6.71,-0.057,1.946,0.09
6.72,-0.015,0.571,0.131
6.73,-0.081,0.938,-0.031
6.74,-0.388,0.312,-0.221
6.75,-0.1,1.957,0.017
6.76,-0.01,0.83,0.069
6.77,-0.011,0.693,-0.035
6.78,-0.524,0.778,-0.272
6.79,0.042,1.616,0.155
6.8,-0.239,1.13,0.071
6.81,0.039,0.353,-0.031
6.82,-0.46,0.988,-0.237
6.83,-0.039,1.561,0.12
6.84,-0.084,1.015,0.041
6.85,0.02,0.757,-0.057
6.86,-0.378,0.453,-0.16
6.87,-0.128,1.896,0.125
6.88,-0.02,0.661,0.072
6.89,-0.179,1.034,-0.082
6.9,-0.305,0.278,-0.174
6.91,-0.136,1.893,0.161
6.92,-0.066,0.828,0.072
6.93,-0.102,0.648,-0.064
6.94,-0.419,0.806,-0.192
6.95,-0.133,1.36,0.114
6.96,-0.248,1.31,0.103
6.97,0.023,0.438,-0.03
6.98,-0.498,0.933,-0.081
6.99,-0.076,1.218,0.156
7.0,-0.248,1.109,0.089
7.01,-0.049,0.794,-0.116
7.02,-0.384,0.485,-0.119
7.03,-0.105,1.75,0.165
7.04,-0.147,0.845,0.07
7.05,-0.121,1.035,-0.066
7.06,-0.331,0.229,-0.112
7.07,-0.218,1.506,0.206
7.08,-0.227,1.074,0.015
7.09,-0.166,0.626,-0.092
7.1,-0.318,0.738,-0.161
7.11,-0.047,1.106,0.162
7.12,-0.221,1.077,-0.01
7.13,-0.213,0.606,-0.176
7.14,-0.401,1.008,-0.075
7.15,0.017,0.79,0.245
7.16,-0.332,1.47,0.052
7.17,-0.183,0.417,-0.19
7.18,-0.339,1.157,-0.072
7.19,0.02,0.917,0.131
7.2,-0.234,0.815,-0.045
7.21,-0.276,0.933,-0.143
7.22,-0.247,1.116,-0.059
7.23,-0.089,1.199,0.17
7.24,-0.16,0.537,0.042
7.25,-0.473,0.924,-0.167
7.26,-0.311,1.022,-0.028
7.27,-0.125,0.827,0.158
7.28,-0.19,1.095,-0.031
7.29,-0.306,0.443,-0.197
7.3,-0.302,1.869,0.036
7.31,-0.083,0.532,0.16
7.32,-0.28,1.209,0.057
7.33,-0.302,0.395,-0.193
7.34,-0.282,1.764,0.019
7.35,0.068,0.945,0.185
7.36,-0.148,0.579,0.017
7.37,-0.509,0.854,-0.179
7.38,-0.257,1.488,0.111
7.39,-0.252,1.024,0.145
7.4,-0.078,0.529,0.045
7.41,-0.549,0.865,-0.213
7.42,-0.17,1.598,0.088
7.43,-0.295,0.792,0.11
7.44,-0.169,0.752,0.064
7.45,-0.416,0.381,-0.153
7.46,-0.123,1.967,0.089
7.47,0.077,0.675,0.121
7.48,-0.103,0.913,-0.042
7.49,-0.416,0.3,-0.232
7.5,-0.059,2.0,0.075
7.51,-0.156,0.761,0.11
7.52,-0.033,0.676,-0.043
7.53,-0.515,0.794,-0.216
7.54,-0.018,1.604,0.18
7.55,-0.256,1.167,0.131
7.56,0.085,0.423,0.003
7.57,-0.618,0.933,-0.134
7.58,-0.006,1.579,0.112
7.59,-0.141,1.092,0.046
7.6,0.052,0.787,-0.053
7.61,-0.451,0.472,-0.107
7.62,-0.1,1.845,0.196
7.63,-0.038,0.692,0.14
7.64,-0.155,1.05,-0.074
7.65,-0.356,0.283,-0.161
7.66,-0.109,1.868,0.19
7.67,-0.073,0.889,0.037
7.68,-0.059,0.674,-0.035
7.69,-0.409,0.741,-0.158
7.7,-0.12,1.155,0.153
7.71,-0.275,1.344,0.056
7.72,-0.042,0.437,-0.084
7.73,-0.37,0.895,-0.171
7.74,-0.062,1.15,0.203
7.75,-0.264,1.173,0.074
7.76,-0.229,0.831,-0.116
7.77,-0.351,0.445,-0.035
7.78,-0.312,1.578,0.278
7.79,-0.15,0.979,0.064
7.8,-0.323,0.859,-0.076
7.81,-0.332,0.463,-0.012
7.82,-0.177,1.322,0.172
7.83,-0.241,0.84,0.028
7.84,-0.29,0.876,-0.106
7.85,-0.402,0.9,-0.061
7.86,0.034,0.927,0.199
7.87,-0.226,1.234,0.029
7.88,-0.293,0.417,-0.135
7.89,-0.444,1.025,-0.004
7.9,-0.067,0.854,0.228
7.91,-0.312,1.333,0.029
7.92,-0.179,0.346,-0.143
7.93,-0.279,1.829,-0.044
7.94,-0.024,0.851,0.129
7.95,-0.205,0.701,0.042
7.96,-0.451,0.945,-0.166
7.97,-0.289,1.361,0.064
7.98,-0.166,1.106,0.181
7.99,-0.075,0.528,0.026
8.0,-0.491,0.964,-0.24
8.01,-0.157,1.532,-0.005
8.02,-0.257,0.785,0.143
8.03,-0.239,0.932,0.021
8.04,-0.293,0.435,-0.196
8.05,-0.23,1.939,0.066
8.06,0.064,0.607,0.137
8.07,-0.186,0.952,0.011
8.08,-0.44,0.333,-0.196
8.09,-0.13,1.969,0.012
8.1,-0.029,0.812,0.114
8.11,-0.024,0.704,-0.043
8.12,-0.541,0.779,-0.287
8.13,-0.04,1.642,0.072
8.14,-0.317,1.036,0.067
8.15,0.003,0.408,0.015
8.16,-0.581,0.909,-0.239
8.17,0.025,1.545,0.121
8.18,-0.067,0.99,0.118
8.19,0.028,0.671,-0.05
8.2,-0.44,0.466,-0.173
8.21,-0.137,1.878,0.144
8.22,-0.071,0.686,0.123
8.23,-0.077,1.026,-0.05
8.24,-0.452,0.292,-0.151
8.25,-0.158,1.942,0.202
8.26,-0.159,0.771,0.144
8.27,-0.051,0.731,-0.016
8.28,-0.507,0.765,-0.177
8.29,-0.095,1.455,0.145
8.3,-0.336,1.321,0.119
8.31,0.071,0.422,-0.026
8.32,-0.519,0.905,-0.152
8.33,-0.05,1.315,0.116
8.34,-0.236,1.196,0.029
8.35,-0.132,0.677,-0.084
8.36,-0.388,0.447,-0.14
8.37,-0.11,1.707,0.104
8.38,-0.101,0.827,0.032
8.39,-0.183,1.004,-0.122
8.4,-0.305,0.231,-0.123
8.41,-0.163,1.509,0.168
8.42,-0.244,1.03,-0.022
8.43,-0.096,0.723,-0.118
8.44,-0.399,0.73,-0.116
8.45,0.021,1.006,0.214
8.46,-0.295,1.264,0.02
8.47,-0.106,0.528,-0.115
8.48,-0.466,0.973,-0.066
8.49,-0.032,0.901,0.247
8.5,-0.293,1.343,0.002
8.51,-0.182,0.608,-0.145
8.52,-0.288,0.724,-0.078
8.53,-0.08,1.12,0.162
8.54,-0.083,0.873,-0.07
8.55,-0.412,0.973,-0.159
8.56,-0.091,0.898,-0.088
8.57,-0.146,1.141,0.175
8.58,-0.086,0.777,0.012
8.59,-0.455,0.86,-0.151
8.6,-0.322,1.096,-0.033
8.61,-0.023,0.659,0.136
8.62,-0.284,1.292,-0.055
8.63,-0.239,0.332,-0.134
8.64,-0.355,1.911,0.008
8.65,-0.038,0.562,0.133
8.66,-0.192,0.997,0.008
8.67,-0.416,0.563,-0.192
8.68,-0.201,1.649,0.054
8.69,-0.112,1.009,0.144
8.7,0.001,0.509,0.024
8.71,-0.537,0.958,-0.207
8.72,-0.151,1.461,0.128
8.73,-0.249,1.084,0.07
8.74,0.046,0.415,-0.013
8.75,-0.54,0.857,-0.234
8.76,0.099,1.607,0.045
8.77,-0.133,0.961,0.097
8.78,0.055,0.67,-0.062
8.79,-0.486,0.451,-0.222
8.8,-0.086,1.958,0.148
8.81,-0.034,0.674,0.121
8.82,-0.12,0.993,-0.023
8.83,-0.408,0.299,-0.171
8.84,-0.17,1.935,0.185
8.85,-0.089,0.784,0.08
8.86,-0.042,0.704,-0.078
8.87,-0.464,0.732,-0.156
8.88,-0.084,1.466,0.11
8.89,-0.249,1.309,0.092
8.9,0.064,0.423,-0.046
8.91,-0.46,0.914,-0.13
8.92,-0.077,1.257,0.152
8.93,-0.23,1.217,0.053
8.94,-0.129,0.77,-0.119
8.95,-0.364,0.391,-0.121
8.96,-0.156,1.707,0.147
8.97,-0.134,0.89,0.095
8.98,-0.128,0.976,-0.122
8.99,-0.356,0.209,-0.113
9.0,-0.132,1.431,0.173
9.01,-0.258,1.018,-0.015
9.02,-0.214,0.712,-0.112
9.03,-0.392,0.704,-0.069
9.04,-0.075,0.95,0.218
9.05,-0.29,1.34,0.017
9.06,-0.157,0.494,-0.108
9.07,-0.466,1.001,-0.025
9.08,0.027,0.852,0.229
9.09,-0.308,1.3,0.046
9.1,-0.209,0.656,-0.169
9.11,-0.216,1.063,-0.087
9.12,-0.104,1.102,0.16
9.13,-0.129,0.646,-0.019
9.14,-0.443,1.049,-0.152
9.15,-0.179,0.914,-0.068
9.16,-0.333,0.315,-0.089
9.17,-0.246,1.41,0.167
9.18,-0.175,1.147,-0.014
9.19,-0.204,0.633,-0.136
9.2,-0.334,0.82,-0.098
9.21,-0.102,0.998,0.286
9.22,-0.303,1.382,0.071
9.23,-0.136,0.455,-0.129
9.24,-0.409,0.851,-0.044
9.25,-0.079,1.027,0.242
9.26,-0.279,1.24,-0.014
9.27,-0.292,0.782,-0.131
9.28,-0.276,0.532,0.014
9.29,-0.092,1.294,0.183
9.3,-0.186,0.724,0.039
9.31,-0.376,1.118,-0.151
9.32,-0.248,0.606,-0.051
9.33,-0.073,1.045,0.176
9.34,-0.155,1.018,-0.06
9.35,-0.366,0.615,-0.135
9.36,-0.268,1.738,-0.061
9.37,-0.027,0.608,0.16
9.38,-0.271,1.186,-0.001
9.39,-0.379,0.423,-0.207
9.4,-0.34,1.88,0.017
9.41,-0.038,0.751,0.171
9.42,-0.197,0.797,0.058
9.43,-0.4,0.726,-0.21
9.44,-0.264,1.582,0.068
9.45,-0.186,1.04,0.14
9.46,-0.138,0.462,0.053
9.47,-0.493,0.858,-0.194
9.48,-0.063,1.576,0.066
9.49,-0.191,1.092,0.123
9.5,0.024,0.417,-0.013
9.51,-0.558,0.829,-0.183
9.52,0.016,1.713,0.069
9.53,-0.104,0.811,0.05
9.54,0.002,0.828,-0.057
9.55,-0.44,0.355,-0.172
9.56,-0.209,1.977,0.193
9.57,-0.067,0.619,0.13
9.58,-0.106,0.969,-0.039
9.59,-0.408,0.339,-0.136
9.6,-0.155,1.807,0.202
9.61,-0.186,1.048,0.073
9.62,-0.034,0.568,-0.015
9.63,-0.455,0.869,-0.193
9.64,-0.089,1.383,0.169
9.65,-0.233,1.342,0.02
9.66,-0.036,0.443,-0.073
9.67,-0.301,0.816,-0.225
9.68,-0.071,1.412,0.128
9.69,-0.187,1.125,-0.032
9.7,-0.107,0.829,-0.133
9.71,-0.267,0.304,-0.148
9.72,-0.182,1.627,0.2
9.73,-0.214,0.858,0.066
9.74,-0.28,0.971,-0.1
9.75,-0.351,0.39,-0.063
9.76,-0.152,1.277,0.24
9.77,-0.293,1.044,0.002
9.78,-0.169,0.666,-0.133
9.79,-0.441,0.991,-0.066
9.8,0.015,0.772,0.194
9.81,-0.408,1.415,0.041
9.82,-0.081,0.363,-0.117
9.83,-0.443,1.157,-0.104
9.84,0.104,0.807,0.111
9.85,-0.256,1.039,-0.028
9.86,-0.249,0.817,-0.137
9.87,-0.37,1.156,-0.084
9.88,-0.082,1.11,0.167
9.89,-0.131,0.622,0.023
9.9,-0.397,1.027,-0.185
9.91,-0.271,1.148,0.018
9.92,-0.17,0.942,0.143
9.93,-0.202,0.926,-0.019
9.94,-0.262,0.516,-0.184
9.95,-0.288,1.887,0.024
9.96,-0.019,0.553,0.102
9.97,-0.231,1.052,-0.015
9.98,-0.352,0.3,-0.173
9.99,-0.295,2.0,0.061
10.0,-0.108,0.677,0.147
10.01,-0.153,0.769,0.005
10.02,-0.48,0.677,-0.243
10.03,-0.089,1.719,0.066
10.04,-0.249,0.985,0.073
10.05,0.01,0.432,-0.013
10.06,-0.539,0.958,-0.196
10.07,0.079,1.512,0.081
10.08,-0.118,1.054,0.128
10.09,0.065,0.546,-0.034
10.1,-0.56,0.586,-0.165
10.11,-0.05,1.838,0.121
10.12,-0.036,0.678,0.101
10.13,-0.077,1.012,-0.026
10.14,-0.474,0.252,-0.164
10.15,-0.093,2.0,0.171
10.16,-0.103,0.735,0.129
10.17,-0.088,0.761,-0.044
10.18,-0.444,0.636,-0.173
10.19,-0.136,1.569,0.128
10.2,-0.223,1.241,0.09
10.21,0.022,0.428,-0.036
10.22,-0.452,0.971,-0.146
10.23,-0.07,1.339,0.169
10.24,-0.229,1.29,0.068
10.25,-0.139,0.626,-0.027
10.26,-0.317,0.543,-0.118
10.27,-0.189,1.285,0.206
10.28,-0.228,1.217,-0.016
10.29,-0.212,0.812,-0.08
10.3,-0.382,0.314,-0.024
10.31,-0.17,1.393,0.231
10.32,-0.184,0.837,0.006
10.33,-0.312,1.002,-0.116
10.34,-0.18,0.719,-0.018
10.35,-0.115,1.099,0.204
10.36,-0.173,0.898,-0.041
10.37,-0.301,0.654,-0.158
10.38,-0.401,1.106,-0.071
10.39,0.033,0.779,0.163
10.4,-0.271,1.316,-0.042
10.41,-0.244,0.439,-0.185
10.42,-0.299,1.595,-0.009
10.43,-0.023,0.698,0.123
10.44,-0.2,0.994,-0.022
10.45,-0.289,0.693,-0.195
10.46,-0.153,1.489,-0.09
10.47,-0.044,1.144,0.162
10.48,-0.015,0.477,0.041
10.49,-0.553,1.034,-0.193
10.5,-0.236,1.427,0.079
10.51,-0.291,0.866,0.157
10.52,-0.141,0.856,0.025
10.53,-0.4,0.54,-0.164
10.54,-0.197,1.907,0.101
10.55,-0.103,0.534,0.118
10.56,-0.146,0.958,0.027
10.57,-0.401,0.289,-0.137
10.58,-0.199,1.969,0.09
10.59,-0.004,0.719,0.153
10.6,-0.081,0.803,-0.028
10.61,-0.476,0.63,-0.209
10.62,-0.042,1.678,0.105
10.63,-0.282,1.023,0.072
10.64,0.022,0.379,-0.014
10.65,-0.547,0.977,-0.222
10.66,-0.011,1.527,0.181
10.67,-0.138,1.099,0.079
10.68,0.051,0.563,-0.031
10.69,-0.429,0.664,-0.17
10.7,-0.172,1.771,0.158
10.71,-0.071,0.733,0.104
10.72,-0.119,1.075,-0.108
10.73,-0.424,0.223,-0.135
10.74,-0.081,1.927,0.231
10.75,-0.194,0.809,0.081
10.76,-0.075,0.819,-0.057
10.77,-0.409,0.604,-0.19
10.78,-0.087,1.481,0.184
10.79,-0.286,1.332,-0.035
10.8,0.031,0.499,-0.143
10.81,-0.43,0.879,-0.18
10.82,0.006,1.121,0.173
10.83,-0.385,1.457,0.039
10.84,-0.138,0.594,-0.098
10.85,-0.412,0.535,-0.067
10.86,-0.221,1.31,0.233
10.87,-0.188,1.011,0.022
10.88,-0.274,1.007,-0.13
10.89,-0.286,0.313,-0.033
10.9,-0.075,1.31,0.138
10.91,-0.245,0.875,-0.034
10.92,-0.268,0.922,-0.146
10.93,-0.258,0.909,-0.066
10.94,-0.034,0.825,0.126
10.95,-0.223,1.219,-0.053
10.96,-0.229,0.49,-0.175
10.97,-0.298,1.747,-0.036
10.98,-0.042,0.573,0.146
10.99,-0.184,1.191,-0.025
11.0,-0.312,0.5,-0.218
11.01,-0.248,1.669,0.022
11.02,-0.173,0.851,0.129
11.03,-0.083,0.649,-0.038
11.04,-0.474,0.907,-0.192
11.05,-0.047,1.461,0.035
11.06,-0.218,1.056,0.133
11.07,-0.039,0.485,0.043
11.08,-0.585,0.907,-0.165
11.09,0.025,1.567,0.101
11.1,-0.123,1.059,0.077
11.11,0.03,0.638,-0.063
11.12,-0.416,0.543,-0.157
11.13,-0.08,1.948,0.142
11.14,-0.049,0.708,0.128
11.15,-0.117,0.965,-0.021
11.16,-0.418,0.223,-0.099
11.17,-0.181,1.964,0.148
11.18,0.003,0.794,0.092
11.19,-0.135,0.772,-0.074
11.2,-0.339,0.619,-0.148
11.21,-0.173,1.5,0.116
11.22,-0.259,1.28,0.06
11.23,0.03,0.489,-0.07
11.24,-0.433,0.909,-0.107
11.25,-0.117,1.237,0.215
11.26,-0.323,1.385,0.089
11.27,-0.094,0.596,-0.099
11.28,-0.351,0.52,-0.049
11.29,-0.182,1.322,0.206
11.3,-0.193,0.944,0.024
11.31,-0.278,1.058,-0.12
11.32,-0.297,0.359,0.013
11.33,-0.048,1.318,0.164
11.34,-0.147,0.844,-0.049
11.35,-0.271,0.934,-0.161
11.36,-0.237,1.095,-0.114
11.37,-0.027,0.799,0.161
11.38,-0.263,1.199,-0.037
11.39,-0.226,0.353,-0.168
11.4,-0.282,1.75,-0.056
11.41,0.006,0.6,0.13
11.42,-0.273,1.158,0.014
11.43,-0.301,0.539,-0.225
11.44,-0.272,1.745,0.002
11.45,-0.078,0.833,0.095
11.46,-0.121,0.646,-0.019
11.47,-0.464,0.945,-0.203
11.48,-0.059,1.468,0.067
11.49,-0.139,1.098,0.122
11.5,-0.046,0.452,0.026
11.51,-0.469,0.866,-0.206
11.52,-0.109,1.708,0.107
11.53,-0.027,0.814,0.139
11.54,-0.179,0.797,-0.014
11.55,-0.382,0.293,-0.193
11.56,-0.169,2.0,0.14
11.57,0.027,0.664,0.124
11.58,-0.171,0.878,-0.019
11.59,-0.365,0.329,-0.122
11.6,-0.166,1.816,0.136
11.61,-0.048,0.973,0.101
11.62,0.004,0.591,-0.038
11.63,-0.498,0.853,-0.2
11.64,0.008,1.489,0.189
11.65,-0.252,1.315,0.013
11.66,0.072,0.5,-0.038
11.67,-0.442,0.796,-0.192
11.68,-0.139,1.355,0.182
11.69,-0.206,1.166,0.05
11.7,-0.168,0.821,-0.135
11.71,-0.241,0.254,-0.118
11.72,-0.258,1.476,0.155
11.73,-0.093,0.824,-0.033
11.74,-0.361,1.116,-0.126
11.75,-0.321,0.314,-0.085
11.76,-0.144,1.269,0.222
11.77,-0.294,1.14,0.019
11.78,-0.183,0.564,-0.114
11.79,-0.337,1.233,-0.04
11.8,-0.049,0.709,0.228
11.81,-0.354,1.261,0.003
11.82,-0.234,0.468,-0.12
11.83,-0.333,1.525,-0.023
11.84,0.034,0.813,0.161
11.85,-0.24,0.904,0.01
11.86,-0.429,0.801,-0.151
11.87,-0.306,0.904,0.052
11.88,-0.106,1.039,0.152
11.89,-0.159,0.686,-0.006
11.9,-0.38,0.87,-0.214
11.91,-0.07,1.363,0.044
11.92,-0.085,1.174,0.123
11.93,-0.08,0.41,0.018
11.94,-0.552,0.767,-0.193
11.95,-0.085,1.711,0.101
11.96,-0.084,0.835,0.199
11.97,-0.093,0.866,0.003
11.98,-0.573,0.278,-0.151
11.99,-0.178,2.0,0.168
12.0,-0.234,0.574,0.106
12.01,-0.182,0.926,-0.008
12.02,-0.441,0.375,-0.135
12.03,-0.101,1.821,0.152
12.04,-0.043,0.965,0.078
12.05,0.085,0.554,-0.065
12.06,-0.529,0.895,-0.155
12.07,-0.066,1.333,0.118
12.08,-0.224,1.338,0.083
12.09,-0.007,0.497,-0.042
12.1,-0.463,0.834,-0.157
12.11,-0.001,1.61,0.146
12.12,-0.132,0.969,0.046
12.13,-0.067,0.911,-0.071
12.14,-0.338,0.243,-0.106
12.15,-0.246,1.629,0.183
12.16,-0.113,0.845,0.041
12.17,-0.197,0.886,-0.121
12.18,-0.287,0.425,-0.164
12.19,-0.035,1.259,0.157
12.2,-0.266,0.957,-0.036
12.21,-0.164,0.731,-0.175
12.22,-0.434,0.906,-0.08
12.23,-0.062,0.9,0.264
12.24,-0.415,1.441,0.029
12.25,-0.104,0.407,-0.071
12.26,-0.44,1.053,-0.025
12.27,0.045,0.842,0.181
12.28,-0.283,1.034,-0.064
12.29,-0.24,0.874,-0.173
12.3,-0.154,1.239,-0.057
12.31,-0.094,1.146,0.175
12.32,-0.051,0.486,-0.002
12.33,-0.497,1.009,-0.215
12.34,-0.214,1.237,0.023
12.35,-0.195,0.88,0.149
12.36,-0.266,0.88,0.03
12.37,-0.427,0.52,-0.126
12.38,-0.271,1.925,0.068
12.39,-0.053,0.57,0.189
12.4,-0.221,1.04,0.018
12.41,-0.342,0.325,-0.227
12.42,-0.16,2.0,0.062
12.43,0.004,0.784,0.126
12.44,-0.045,0.722,-0.02
12.45,-0.51,0.66,-0.245
12.46,-0.054,1.726,0.056
12.47,-0.2,1.017,0.053
12.48,0.059,0.467,-0.005
12.49,-0.664,0.897,-0.201
12.5,0.102,1.582,0.068
12.51,-0.157,1.078,0.07
12.52,0.039,0.536,-0.015
12.53,-0.452,0.561,-0.19
12.54,-0.066,1.922,0.072
12.55,-0.03,0.615,0.093
12.56,-0.087,0.984,-0.061
12.57,-0.416,0.268,-0.188
12.58,-0.121,2.0,0.126
12.59,-0.163,0.708,0.077
12.6,0.008,0.801,-0.057
12.61,-0.486,0.656,-0.154
12.62,-0.048,1.584,0.139
12.63,-0.2,1.201,0.079
12.64,0.031,0.429,-0.028
12.65,-0.414,0.931,-0.17
12.66,-0.109,1.277,0.099
12.67,-0.244,1.281,0.013
12.68,-0.067,0.652,-0.094
12.69,-0.408,0.755,-0.075
12.7,-0.129,1.219,0.233
12.71,-0.284,1.214,0.039
12.72,-0.245,0.824,-0.062
12.73,-0.309,0.32,-0.012
12.74,-0.236,1.427,0.219
12.75,-0.201,0.845,0.032
12.76,-0.274,1.039,-0.107
12.77,-0.278,0.522,-0.033
12.78,-0.112,1.074,0.162
12.79,-0.244,1.045,0.025
12.8,-0.289,0.618,-0.104
12.81,-0.373,1.155,-0.027
12.82,0.003,0.656,0.17
12.83,-0.3,1.361,-0.004
12.84,-0.237,0.362,-0.157
12.85,-0.298,1.66,-0.039
12.86,-0.036,0.724,0.155
12.87,-0.228,0.943,-0.006
12.88,-0.385,0.781,-0.169
12.89,-0.272,1.446,0.064
12.9,-0.118,1.085,0.222
12.91,-0.106,0.501,0.035
12.92,-0.511,0.946,-0.195
12.93,-0.22,1.476,0.085
12.94,-0.18,0.945,0.153
12.95,-0.215,0.69,0.033
12.96,-0.398,0.521,-0.218
12.97,-0.207,1.926,0.089
12.98,-0.054,0.584,0.142
12.99,-0.178,0.928,0.021
13.0,-0.379,0.269,-0.189
13.01,-0.131,2.0,0.085
13.02,0.011,0.719,0.115
13.03,-0.039,0.76,-0.026
13.04,-0.559,0.666,-0.195
13.05,-0.059,1.703,0.141
13.06,-0.219,1.126,0.122
13.07,0.062,0.4,-0.067
13.08,-0.573,0.983,-0.202
13.09,-0.017,1.48,0.132
13.1,-0.143,1.142,0.045
13.11,0.099,0.678,-0.057
13.12,-0.415,0.571,-0.122
13.13,-0.111,1.75,0.042
13.14,-0.047,0.806,-0.005
13.15,-0.114,1.074,-0.118
13.16,-0.321,0.172,-0.126
13.17,-0.2,1.751,0.198
13.18,-0.148,0.834,0.048
13.19,-0.114,0.821,-0.111
13.2,-0.414,0.573,-0.133
13.21,-0.131,1.174,0.204
13.22,-0.406,1.318,-0.037
13.23,-0.01,0.479,-0.132
13.24,-0.458,0.937,-0.098
13.25,0.018,0.908,0.219
13.26,-0.441,1.348,0.069
13.27,-0.174,0.696,-0.12
13.28,-0.379,0.629,-0.019
13.29,-0.052,1.167,0.192
13.3,-0.257,0.977,-0.038
13.31,-0.256,0.928,-0.156
13.32,-0.25,0.557,0.014
13.33,-0.079,1.215,0.168
13.34,-0.233,0.792,0.0
13.35,-0.326,0.947,-0.157
13.36,-0.255,1.195,-0.004
13.37,-0.092,0.731,0.171
13.38,-0.265,1.17,-0.007
13.39,-0.244,0.425,-0.208
13.4,-0.293,1.919,0.025
13.41,-0.019,0.562,0.174
13.42,-0.223,0.994,-0.006
13.43,-0.503,0.402,-0.219
13.44,-0.255,1.87,0.073
13.45,-0.221,0.785,0.127
13.46,-0.095,0.614,-0.002
13.47,-0.57,0.855,-0.225
13.48,0.02,1.493,0.092
13.49,-0.223,1.146,0.12
13.5,0.025,0.29,-0.053
13.51,-0.549,0.974,-0.207
13.52,-0.047,1.523,0.154
13.53,-0.18,1.105,0.138
13.54,0.024,0.686,-0.026
13.55,-0.496,0.585,-0.148
13.56,-0.098,1.91,0.149
13.57,-0.053,0.787,0.09
13.58,-0.138,1.042,-0.065
13.59,-0.292,0.173,-0.2
13.6,-0.194,1.857,0.137
13.61,-0.062,0.857,0.025
13.62,-0.084,0.815,-0.074
13.63,-0.349,0.57,-0.201
13.64,-0.135,1.323,0.158
13.65,-0.331,1.364,0.031
13.66,-0.034,0.448,-0.073
13.67,-0.481,0.911,-0.081
13.68,-0.121,1.081,0.259
13.69,-0.322,1.441,0.014
13.7,-0.168,0.611,-0.112
13.71,-0.324,0.585,-0.024
13.72,-0.127,1.239,0.17
13.73,-0.201,0.912,-0.032
13.74,-0.297,1.017,-0.129
13.75,-0.179,0.698,-0.018
13.76,-0.102,1.201,0.169
13.77,-0.158,0.73,-0.011
13.78,-0.398,0.892,-0.187
13.79,-0.173,1.18,-0.029
13.8,-0.062,0.762,0.102
13.81,-0.213,1.151,-0.053
13.82,-0.293,0.402,-0.223
13.83,-0.263,2.0,-0.026
13.84,-0.052,0.524,0.138
13.85,-0.229,1.075,0.045
13.86,-0.475,0.407,-0.165
13.87,-0.255,1.88,0.121
13.88,-0.179,0.882,0.17
13.89,-0.045,0.571,0.042
13.9,-0.53,0.823,-0.246
13.91,0.049,1.54,0.054
13.92,-0.192,1.13,0.06
13.93,0.031,0.459,-0.003
13.94,-0.516,0.745,-0.221
13.95,0.024,1.779,0.029
13.96,-0.177,0.747,0.072
13.97,-0.054,0.847,0.008
13.98,-0.521,0.291,-0.148
13.99,-0.103,2.0,0.182
14.0,-0.117,0.573,0.141
14.01,-0.115,0.899,-0.014
14.02,-0.448,0.386,-0.126
14.03,-0.153,1.785,0.135
14.04,-0.148,0.992,0.095
14.05,0.016,0.586,-0.077
14.06,-0.429,0.856,-0.16
14.07,-0.069,1.336,0.155
14.08,-0.267,1.356,0.022
14.09,-0.048,0.478,-0.03
14.1,-0.432,0.779,-0.156
14.11,-0.046,1.336,0.153
14.12,-0.237,1.167,-0.01
14.13,-0.136,0.848,-0.169
14.14,-0.353,0.241,-0.122
14.15,-0.152,1.515,0.196
14.16,-0.244,0.848,0.011
14.17,-0.311,1.038,-0.081
14.18,-0.325,0.368,-0.025
14.19,-0.157,1.214,0.215
14.2,-0.313,1.129,0.014
14.21,-0.194,0.616,-0.173
14.22,-0.389,1.05,-0.051
14.23,0.07,0.745,0.177
14.24,-0.387,1.346,-0.002
14.25,-0.17,0.437,-0.156
14.26,-0.26,1.598,-0.064
14.27,0.021,0.738,0.124
14.28,-0.191,0.95,-0.039
14.29,-0.363,0.777,-0.194
14.3,-0.213,1.389,0.043
14.31,-0.136,0.854,0.117
14.32,-0.074,0.562,0.01
14.33,-0.553,0.943,-0.223
14.34,-0.014,1.486,0.054
14.35,-0.166,1.08,0.11
14.36,-0.023,0.472,0.023
14.37,-0.588,0.785,-0.174
14.38,-0.048,1.707,0.102
14.39,-0.116,0.801,0.133
14.4,-0.056,0.833,-0.04
14.41,-0.505,0.302,-0.174
14.42,-0.173,2.0,0.218
14.43,-0.052,0.625,0.128
14.44,-0.15,0.85,0.0
14.45,-0.472,0.452,-0.118
14.46,-0.206,1.772,0.194
14.47,-0.156,0.989,0.107
14.48,0.052,0.554,-0.045
14.49,-0.436,0.888,-0.163
14.5,-0.016,1.457,0.155
14.51,-0.268,1.285,0.039
14.52,0.055,0.518,-0.059
14.53,-0.465,0.748,-0.191
14.54,-0.054,1.439,0.144
14.55,-0.197,1.106,-0.013
14.56,-0.189,0.817,-0.088
14.57,-0.358,0.261,-0.092
14.58,-0.207,1.541,0.186
14.59,-0.257,0.801,0.044
14.6,-0.261,1.15,-0.111
14.61,-0.379,0.342,-0.096
14.62,-0.08,1.313,0.251
14.63,-0.286,1.197,0.027
14.64,-0.184,0.654,-0.148
14.65,-0.489,0.856,-0.041
14.66,0.038,0.829,0.204
14.67,-0.395,1.599,0.005
14.68,-0.112,0.3,-0.103
14.69,-0.346,1.234,-0.043
14.7,0.057,0.843,0.155
14.71,-0.338,0.972,0.004
14.72,-0.336,0.854,-0.116
14.73,-0.263,1.088,-0.012
14.74,-0.157,1.09,0.153
14.75,-0.106,0.624,-0.005
14.76,-0.47,1.002,-0.202
14.77,-0.158,1.379,0.044
14.78,-0.226,0.897,0.192
14.79,-0.189,0.78,0.038
14.8,-0.407,0.553,-0.159
14.81,-0.175,1.999,0.052
14.82,-0.047,0.666,0.165
14.83,-0.169,1.018,0.051
14.84,-0.417,0.219,-0.206
14.85,-0.184,2.0,0.101
14.86,-0.104,0.743,0.092
14.87,-0.13,0.709,0.003
14.88,-0.531,0.646,-0.236
14.89,-0.041,1.742,0.087
14.9,-0.262,1.024,0.102
14.91,0.078,0.409,-0.0
14.92,-0.565,0.938,-0.163
14.93,0.062,1.56,0.113
14.94,-0.137,1.094,0.064
14.95,0.073,0.655,-0.014
14.96,-0.431,0.537,-0.164
14.97,-0.083,1.855,0.167
14.98,-0.008,0.74,0.097
14.99,-0.111,1.024,-0.104
15.0,-0.358,0.237,-0.158
15.01,-0.092,1.915,0.146
15.02,-0.058,0.779,0.018
15.03,-0.055,0.802,-0.094
15.04,-0.335,0.609,-0.198
15.05,-0.09,1.355,0.153
15.06,-0.248,1.322,-0.034
15.07,0.044,0.487,-0.112
15.08,-0.432,0.883,-0.136
15.09,-0.06,1.078,0.2
15.1,-0.355,1.344,-0.001
15.11,-0.218,0.464,-0.112
15.12,-0.417,0.856,0.013
15.13,-0.088,0.969,0.222
15.14,-0.292,1.125,0.014
15.15,-0.219,0.811,-0.15
15.16,-0.197,0.994,-0.096
15.17,-0.045,1.206,0.159
15.18,-0.177,0.597,-0.036
15.19,-0.463,1.039,-0.201
15.2,-0.139,1.107,-0.072
15.21,-0.14,0.907,0.104
15.22,-0.158,0.958,-0.019
15.23,-0.401,0.588,-0.16
15.24,-0.309,1.806,0.045
15.25,-0.114,0.554,0.234
15.26,-0.263,1.122,0.008
15.27,-0.3,0.334,-0.151
15.28,-0.334,1.916,0.051
15.29,-0.003,0.777,0.183
15.3,-0.151,0.707,0.009
15.31,-0.476,0.712,-0.209
15.32,-0.111,1.649,0.077
15.33,-0.082,1.057,0.102
15.34,0.054,0.469,-0.035
15.35,-0.547,0.925,-0.206
15.36,-0.016,1.587,0.08
15.37,-0.168,1.018,0.082
15.38,0.028,0.582,-0.053
15.39,-0.417,0.549,-0.245
15.4,-0.053,1.953,0.11
15.41,0.04,0.66,0.067
15.42,-0.098,0.962,-0.024
15.43,-0.324,0.271,-0.188
15.44,-0.153,1.969,0.146
15.45,-0.041,0.757,0.052
15.46,-0.077,0.752,-0.061
15.47,-0.41,0.68,-0.178
15.48,-0.01,1.607,0.183
15.49,-0.171,1.254,0.042
15.5,0.018,0.412,-0.03
15.51,-0.506,0.928,-0.139
15.52,-0.102,1.346,0.198
15.53,-0.278,1.277,0.055
15.54,-0.077,0.655,-0.054
15.55,-0.409,0.471,-0.128
15.56,-0.177,1.537,0.175
15.57,-0.156,0.92,-0.0
15.58,-0.243,1.057,-0.126
15.59,-0.305,0.219,-0.046
15.6,-0.286,1.547,0.239
15.61,-0.182,1.023,0.026
15.62,-0.122,0.781,-0.082
15.63,-0.344,0.709,-0.086
15.64,-0.016,0.995,0.166
15.65,-0.304,1.254,-0.065
15.66,-0.118,0.553,-0.192
15.67,-0.293,1.354,-0.066
15.68,0.029,0.712,0.223
15.69,-0.226,1.151,-0.002
15.7,-0.332,0.647,-0.173
15.71,-0.244,1.013,-0.034
15.72,-0.092,0.99,0.126
15.73,-0.148,0.708,-0.039
15.74,-0.375,0.97,-0.143
15.75,-0.184,1.249,-0.032
15.76,-0.151,1.025,0.148
15.77,-0.112,0.687,0.031
15.78,-0.466,0.819,-0.164
15.79,-0.189,1.693,0.02
15.8,-0.124,0.722,0.173
15.81,-0.224,1.03,-0.006
15.82,-0.322,0.333,-0.234
15.83,-0.321,1.971,0.042
15.84,-0.086,0.496,0.111
15.85,-0.231,1.024,0.006
15.86,-0.403,0.432,-0.236
15.87,-0.106,1.806,0.054
15.88,-0.042,0.958,0.135
15.89,-0.033,0.441,-0.027
15.9,-0.54,0.897,-0.203
15.91,0.038,1.52,0.041
15.92,-0.15,1.141,0.119
15.93,0.002,0.395,-0.032
15.94,-0.598,0.955,-0.171
15.95,-0.002,1.542,0.16
15.96,-0.173,1.085,0.057
15.97,-0.005,0.669,-0.03
15.98,-0.473,0.517,-0.125
15.99,-0.117,1.852,0.111
16.0,-0.098,0.77,0.092
16.01,-0.11,1.005,-0.085
16.02,-0.306,0.185,-0.171
16.03,-0.2,1.718,0.124
16.04,-0.16,0.912,0.017
16.05,-0.122,0.79,-0.117
16.06,-0.382,0.645,-0.15
16.07,-0.068,1.343,0.175
16.08,-0.315,1.302,0.031
16.09,0.029,0.403,-0.135
16.1,-0.525,0.907,-0.116
16.11,0.021,1.059,0.171
16.12,-0.428,1.329,0.049
16.13,-0.179,0.62,-0.042
16.14,-0.377,0.561,-0.047
16.15,-0.141,1.268,0.221
16.16,-0.131,0.871,0.011
16.17,-0.449,1.093,-0.141
16.18,-0.213,0.269,-0.017
16.19,-0.167,1.33,0.237
16.2,-0.137,0.971,0.046
16.21,-0.295,0.849,-0.154
16.22,-0.252,0.884,-0.13
16.23,-0.036,0.828,0.15
16.24,-0.252,1.314,-0.056
16.25,-0.228,0.363,-0.149
16.26,-0.271,1.772,-0.076
16.27,-0.028,0.635,0.167
16.28,-0.239,1.133,0.036
16.29,-0.363,0.577,-0.15
16.3,-0.306,1.496,0.024
16.31,-0.139,0.914,0.125
16.32,-0.058,0.689,0.008
16.33,-0.44,0.977,-0.183
16.34,-0.184,1.35,0.044
16.35,-0.275,0.987,0.134
16.36,-0.091,0.649,0.048
16.37,-0.448,0.782,-0.161
16.38,-0.15,1.716,0.092
16.39,-0.079,0.751,0.178
16.4,-0.121,0.901,0.023
16.41,-0.43,0.267,-0.191
16.42,-0.222,2.0,0.122
16.43,-0.178,0.542,0.104
16.44,-0.119,0.961,0.03
16.45,-0.502,0.383,-0.238
16.46,-0.06,1.878,0.037
16.47,-0.137,0.89,0.059
16.48,0.036,0.475,-0.022
16.49,-0.593,0.82,-0.174
16.5,0.058,1.601,0.122
16.51,-0.268,1.192,0.115
16.52,0.14,0.423,-0.02
16.53,-0.617,0.837,-0.205
16.54,0.044,1.724,0.137
16.55,-0.182,0.827,0.063
16.56,0.003,0.786,-0.044
16.57,-0.453,0.361,-0.138
16.58,-0.125,1.985,0.228
16.59,-0.093,0.619,0.131
16.6,-0.08,0.912,-0.046
16.61,-0.385,0.396,-0.145
16.62,-0.146,1.681,0.102
16.63,-0.194,1.056,0.061
16.64,-0.036,0.499,-0.084
16.65,-0.48,0.848,-0.15
16.66,-0.073,1.318,0.203
16.67,-0.279,1.364,0.071
16.68,-0.083,0.428,-0.077
16.69,-0.414,0.781,-0.213
16.7,-0.155,1.403,0.163
16.71,-0.207,1.103,0.022
16.72,-0.189,0.604,-0.067
16.73,-0.409,0.584,-0.055
16.74,-0.104,1.231,0.212
16.75,-0.235,0.858,0.046
16.76,-0.346,1.086,-0.075
16.77,-0.395,0.351,-0.031
16.78,-0.134,1.301,0.223
16.79,-0.191,0.863,0.016
16.8,-0.241,0.805,-0.14
16.81,-0.378,0.819,-0.126
16.82,-0.013,0.887,0.14
16.83,-0.258,1.303,-0.051
16.84,-0.133,0.368,-0.211
16.85,-0.29,1.463,-0.139
16.86,0.079,0.644,0.09
16.87,-0.287,1.245,-0.039
16.88,-0.305,0.569,-0.162
16.89,-0.343,1.032,-0.032
16.9,-0.106,0.963,0.134
16.91,-0.213,0.781,-0.019
16.92,-0.317,1.036,-0.115
16.93,-0.28,1.173,-0.007
16.94,-0.15,1.013,0.177
16.95,-0.167,0.708,0.034
16.96,-0.386,0.858,-0.157
16.97,-0.236,1.6,0.07
16.98,-0.103,0.776,0.177
16.99,-0.222,0.889,0.014
17.0,-0.384,0.371,-0.175
17.01,-0.326,2.0,0.056
17.02,-0.145,0.507,0.138
17.03,-0.229,0.991,0.044
17.04,-0.433,0.332,-0.215
17.05,-0.143,1.919,0.058
17.06,-0.133,0.864,0.013
17.07,0.05,0.518,-0.057
17.08,-0.541,0.862,-0.23
17.09,0.094,1.523,0.069
17.1,-0.176,1.182,0.117
17.11,0.095,0.41,0.02
17.12,-0.505,0.83,-0.218
17.13,0.029,1.745,0.078
17.14,-0.174,0.803,0.127
17.15,-0.034,0.834,-0.081
17.16,-0.527,0.282,-0.158
17.17,-0.043,2.0,0.163
17.18,-0.121,0.528,0.133
17.19,-0.05,0.879,-0.041
17.2,-0.525,0.38,-0.148
17.21,-0.144,1.747,0.12
17.22,-0.198,0.974,0.129
17.23,0.005,0.622,-0.044
17.24,-0.504,0.878,-0.15
17.25,0.032,1.467,0.21
17.26,-0.151,1.274,0.059
17.27,0.032,0.474,-0.05
17.28,-0.517,0.83,-0.18
17.29,-0.052,1.503,0.168
17.3,-0.253,1.108,0.034
17.31,-0.138,0.783,-0.026
17.32,-0.283,0.285,-0.164
17.33,-0.16,1.622,0.086
17.34,-0.118,0.819,0.054
17.35,-0.256,1.027,-0.12
17.36,-0.341,0.309,-0.139
17.37,-0.12,1.505,0.227
17.38,-0.188,1.114,0.03
17.39,-0.118,0.604,-0.128
17.4,-0.499,0.81,-0.101
17.41,-0.048,1.026,0.287
17.42,-0.357,1.555,0.028
17.43,-0.162,0.332,-0.082
17.44,-0.428,1.015,-0.016
17.45,-0.022,0.948,0.153
17.46,-0.23,1.083,0.02
17.47,-0.276,0.923,-0.144
17.48,-0.373,0.461,-0.036
17.49,-0.192,0.879,0.002
17.5,-0.446,0.504,-0.222
17.51,-0.23,1.972,0.089
17.52,-0.136,0.548,0.11
17.53,-0.236,1.019,0.033
17.54,-0.438,0.24,-0.198
17.55,-0.167,2.0,0.126
17.56,-0.046,0.733,0.115
17.57,-0.161,0.646,-0.012
17.58,-0.421,0.611,-0.186
17.59,-0.081,1.7,0.062
17.6,-0.131,1.069,0.094
17.61,0.137,0.441,-0.039
17.62,-0.627,0.997,-0.203
17.63,0.116,1.508,0.159
17.64,-0.212,1.091,0.087
17.65,0.02,0.603,-0.052
17.66,-0.439,0.609,-0.218
17.67,-0.081,1.887,0.092
17.68,-0.004,0.778,0.067
17.69,-0.093,1.005,-0.038
17.7,-0.359,0.234,-0.105
17.71,-0.219,1.816,0.131
17.72,-0.034,0.859,0.09
17.73,-0.203,0.791,-0.104
17.74,-0.354,0.569,-0.151
17.75,-0.103,1.488,0.149
17.76,-0.173,1.301,0.019
17.77,0.009,0.421,-0.092
17.78,-0.414,0.932,-0.204
17.79,-0.06,1.153,0.187
17.8,-0.299,1.402,0.059
17.81,-0.083,0.509,-0.092
17.82,-0.41,0.574,-0.081
17.83,-0.09,1.309,0.149
17.84,-0.147,0.861,0.01
17.85,-0.321,1.135,-0.133
17.86,-0.318,0.233,-0.051
17.87,-0.214,1.481,0.269
17.88,-0.159,0.964,0.057
17.89,-0.237,0.846,-0.091
17.9,-0.408,0.633,-0.068
17.91,-0.035,1.019,0.185
17.92,-0.303,1.403,-0.031
17.93,-0.151,0.398,-0.132
17.94,-0.353,1.276,-0.024
17.95,0.046,0.729,0.169
17.96,-0.301,1.242,0.038
17.97,-0.29,0.611,-0.157
17.98,-0.384,0.866,-0.026
17.99,-0.023,1.013,0.121
18.0,-0.241,0.856,0.029
18.01,-0.292,0.94,-0.144
18.02,-0.273,1.208,-0.032
18.03,-0.116,1.041,0.165
18.04,-0.257,0.685,0.06
18.05,-0.327,0.893,-0.143
18.06,-0.208,1.622,0.051
18.07,0.014,0.875,0.148
18.08,-0.134,0.865,-0.015
18.09,-0.389,0.323,-0.206
18.1,-0.283,2.0,0.009
18.11,-0.147,0.477,0.071
18.12,-0.251,1.058,0.016
18.13,-0.315,0.369,-0.239
18.14,-0.263,1.917,0.131
18.15,-0.175,0.772,0.103
18.16,-0.066,0.513,-0.005
18.17,-0.484,0.865,-0.125
18.18,0.007,1.54,0.052
18.19,-0.173,1.11,0.133
18.2,0.099,0.439,-0.025
18.21,-0.521,0.837,-0.203
18.22,0.03,1.736,0.097
18.23,-0.186,0.811,0.103
18.24,-0.067,0.768,-0.024
18.25,-0.431,0.614,-0.181
18.26,-0.127,1.807,0.139
18.27,-0.091,0.826,0.055
18.28,-0.13,0.96,-0.087
18.29,-0.277,0.175,-0.16
18.3,-0.198,1.732,0.173
18.31,-0.19,0.818,0.057
18.32,-0.158,0.905,-0.097
18.33,-0.395,0.557,-0.137
18.34,-0.072,1.402,0.214
18.35,-0.275,1.263,0.087
18.36,-0.085,0.434,-0.114
18.37,-0.466,0.884,-0.095
18.38,-0.04,1.095,0.207
18.39,-0.348,1.449,0.004
18.4,-0.146,0.537,-0.066
18.41,-0.391,0.579,-0.083
18.42,-0.039,1.263,0.163
18.43,-0.169,0.883,-0.002
18.44,-0.327,1.069,-0.148
18.45,-0.373,0.278,-0.011
18.46,-0.129,1.361,0.182
18.47,-0.195,0.94,0.036
18.48,-0.248,0.84,-0.162
18.49,-0.32,0.854,-0.072
18.5,0.0,0.898,0.126
18.51,-0.21,1.205,-0.115
18.52,-0.15,0.488,-0.176
18.53,-0.27,1.699,-0.092
18.54,0.061,0.676,0.129
18.55,-0.263,1.141,-0.001
18.56,-0.352,0.552,-0.137
18.57,-0.347,1.284,0.026
18.58,-0.084,0.926,0.132
18.59,-0.143,0.783,-0.017
18.6,-0.375,0.926,-0.185
18.61,-0.239,1.339,0.068
18.62,-0.166,1.032,0.144
18.63,-0.165,0.526,0.023
18.64,-0.454,0.884,-0.107
18.65,-0.222,1.587,0.07
18.66,-0.01,0.865,0.179
18.67,-0.153,0.851,-0.001
18.68,-0.443,0.333,-0.182
18.69,-0.336,2.0,0.11
18.7,-0.193,0.502,0.1
18.71,-0.226,1.035,0.01
18.72,-0.403,0.313,-0.186
18.73,-0.141,1.916,0.1
18.74,-0.157,0.826,0.138
18.75,0.058,0.501,-0.048
18.76,-0.58,0.837,-0.223
18.77,0.065,1.483,0.073
18.78,-0.209,1.21,0.064
18.79,0.132,0.436,0.009
18.8,-0.572,0.865,-0.167
18.81,0.033,1.746,0.118
18.82,-0.278,0.818,0.117
18.83,0.001,0.826,-0.051
18.84,-0.484,0.352,-0.187
18.85,-0.089,2.0,0.174
18.86,-0.05,0.633,0.096
18.87,-0.104,0.889,-0.05
18.88,-0.416,0.358,-0.15
18.89,-0.183,1.684,0.114
18.9,-0.173,0.972,0.09
18.91,-0.042,0.636,-0.106
18.92,-0.384,0.832,-0.175
18.93,-0.0,1.427,0.141
18.94,-0.213,1.294,0.058
18.95,-0.027,0.435,-0.072
18.96,-0.497,0.81,-0.177
18.97,-0.041,1.328,0.185
18.98,-0.353,1.256,0.045
18.99,-0.047,0.775,-0.128
19.0,-0.363,0.312,-0.095
19.01,-0.113,1.693,0.206
19.02,-0.07,0.81,0.025
19.03,-0.281,1.035,-0.154
19.04,-0.284,0.274,-0.099
19.05,-0.162,1.393,0.192
19.06,-0.213,0.94,-0.014
19.07,-0.279,0.745,-0.122
19.08,-0.302,1.082,-0.061
19.09,-0.066,0.875,0.191
19.1,-0.246,1.184,-0.013
19.11,-0.287,0.486,-0.171
19.12,-0.258,1.639,-0.04
19.13,0.005,0.653,0.152
19.14,-0.214,1.174,-0.001
19.15,-0.277,0.595,-0.185
19.16,-0.334,1.417,0.001
19.17,-0.086,0.861,0.152
19.18,-0.185,0.745,-0.001
19.19,-0.387,0.889,-0.146
19.2,-0.218,1.371,0.075
19.21,-0.162,1.066,0.19
19.22,-0.088,0.495,0.028
19.23,-0.5,0.822,-0.168
19.24,-0.104,1.666,0.051
19.25,-0.206,0.747,0.137
19.26,-0.104,0.888,-0.024
19.27,-0.494,0.291,-0.197
19.28,-0.252,2.0,0.098
19.29,-0.095,0.49,0.073
19.3,-0.239,0.953,0.016
19.31,-0.391,0.352,-0.222
19.32,-0.127,1.866,0.093
19.33,0.013,0.922,0.141
19.34,-0.031,0.469,0.003
19.35,-0.588,0.869,-0.187
19.36,-0.02,1.583,0.107
19.37,-0.203,1.184,0.05
19.38,0.083,0.467,-0.009
19.39,-0.58,0.856,-0.219
19.4,0.006,1.632,0.154
19.41,-0.102,0.884,0.073
19.42,-0.036,0.785,-0.037
19.43,-0.429,0.356,-0.138
19.44,-0.18,1.932,0.105
19.45,-0.039,0.684,0.1
19.46,-0.111,1.047,-0.044
19.47,-0.448,0.298,-0.134
19.48,-0.14,1.769,0.214
19.49,-0.206,0.975,0.061
19.5,0.003,0.656,-0.084
19.51,-0.399,0.796,-0.195
19.52,-0.061,1.299,0.138
19.53,-0.264,1.443,0.013
19.54,-0.01,0.384,-0.105
19.55,-0.37,0.813,-0.156
19.56,-0.074,1.159,0.182
19.57,-0.288,1.185,0.012
19.58,-0.165,0.861,-0.093
19.59,-0.401,0.346,-0.036
19.6,-0.189,1.461,0.3
19.61,-0.203,0.804,0.033
19.62,-0.274,0.985,-0.114
19.63,-0.256,0.591,-0.043
19.64,-0.136,1.176,0.185
19.65,-0.252,0.915,-0.013
19.66,-0.226,0.704,-0.145
19.67,-0.314,1.407,-0.048
19.68,0.124,0.777,0.147
19.69,-0.213,1.16,-0.007
19.7,-0.295,0.457,-0.188
19.71,-0.39,1.229,-0.092
19.72,0.003,0.771,0.147
19.73,-0.219,1.134,-0.041
19.74,-0.244,0.651,-0.175
19.75,-0.193,1.472,-0.097
19.76,-0.056,1.022,0.109
19.77,-0.041,0.627,-0.01
19.78,-0.43,1.09,-0.207
19.79,-0.216,1.337,0.023
19.8,-0.088,0.99,0.157
19.81,-0.065,0.739,0.021
19.82,-0.504,0.637,-0.218
19.83,-0.228,1.791,0.066
19.84,-0.173,0.558,0.099
19.85,-0.178,1.045,0.04
19.86,-0.496,0.329,-0.193
19.87,-0.104,2.0,0.134
19.88,0.013,0.593,0.112
19.89,-0.1,0.931,-0.039
19.9,-0.376,0.318,-0.222
19.91,-0.071,1.967,0.072
19.92,-0.118,0.83,0.084
19.93,0.039,0.549,-0.066
19.94,-0.505,0.881,-0.185
19.95,-0.033,1.539,0.193
19.96,-0.17,1.204,0.097
19.97,0.063,0.459,-0.019
19.98,-0.527,0.909,-0.142
19.99,-0.045,1.595,0.153
20.0,-0.176,1.062,0.064
20.01,0.032,0.829,-0.093
20.02,-0.439,0.339,-0.132
20.03,-0.091,1.796,0.186
20.04,-0.127,0.768,0.101
20.05,-0.121,0.987,-0.108
20.06,-0.38,0.263,-0.154
20.07,-0.089,1.743,0.155
20.08,-0.305,1.003,0.056
20.09,0.006,0.669,-0.099
20.1,-0.502,0.744,-0.136
20.11,0.011,1.148,0.248
20.12,-0.418,1.453,0.063
20.13,0.022,0.39,-0.116
20.14,-0.516,0.874,-0.098
20.15,0.016,1.019,0.185
20.16,-0.354,1.138,0.021
20.17,-0.177,0.876,-0.117
20.18,-0.446,0.41,-0.067
20.19,-0.092,1.316,0.206
20.2,-0.203,0.802,0.021
20.21,-0.287,1.045,-0.113
20.22,-0.274,0.612,-0.031
20.23,-0.116,1.082,0.156
20.24,-0.243,0.952,-0.011
20.25,-0.232,0.705,-0.152
20.26,-0.301,1.391,-0.073
20.27,0.07,0.711,0.123
20.28,-0.28,1.212,0.0
20.29,-0.242,0.421,-0.179
20.3,-0.328,1.411,-0.013
20.31,0.026,0.712,0.082
20.32,-0.2,1.132,-0.007
20.33,-0.285,0.654,-0.213
20.34,-0.176,1.51,-0.053
20.35,-0.06,1.019,0.115
20.36,-0.062,0.564,0.002
20.37,-0.447,1.118,-0.216
20.38,-0.132,1.387,0.013
20.39,-0.094,1.024,0.2
20.4,-0.054,0.617,0.028
20.41,-0.507,0.688,-0.228
20.42,-0.243,1.871,0.095
20.43,-0.17,0.539,0.076
20.44,-0.226,1.101,0.057
20.45,-0.351,0.244,-0.182
20.46,-0.257,2.0,0.125
20.47,-0.117,0.607,0.152
20.48,-0.219,0.754,0.008
20.49,-0.456,0.513,-0.158
20.5,-0.104,1.735,0.082
20.51,-0.015,1.065,0.123
20.52,0.053,0.441,-0.037
20.53,-0.541,0.939,-0.224
20.54,-0.012,1.534,0.133
20.55,-0.268,1.058,0.105
20.56,0.019,0.587,-0.005
20.57,-0.56,0.682,-0.157
20.58,-0.076,1.801,0.182
20.59,-0.078,0.699,0.121
20.6,-0.042,0.92,-0.032
20.61,-0.458,0.256,-0.149
20.62,-0.21,1.862,0.149
20.63,-0.128,0.742,0.117
20.64,-0.111,0.916,-0.057
20.65,-0.404,0.496,-0.131
20.66,-0.032,1.619,0.163
20.67,-0.125,0.991,0.083
20.68,-0.074,0.702,-0.093
20.69,-0.411,0.767,-0.144
20.7,-0.069,1.28,0.2
20.71,-0.295,1.472,0.024
20.72,0.006,0.341,-0.075
20.73,-0.464,0.895,-0.124
20.74,0.047,1.066,0.193
20.75,-0.346,1.154,-0.01
20.76,-0.157,0.889,-0.124
20.77,-0.411,0.397,-0.027
20.78,-0.126,1.337,0.252
20.79,-0.179,0.868,0.044
20.8,-0.333,1.03,-0.123
20.81,-0.288,0.475,0.028
20.82,-0.102,1.177,0.166
20.83,-0.185,0.941,-0.049
20.84,-0.245,0.702,-0.104
20.85,-0.242,1.43,-0.14
20.86,0.011,0.721,0.174
20.87,-0.264,1.183,-0.032
20.88,-0.31,0.388,-0.187
20.89,-0.256,1.549,-0.062
20.9,-0.05,0.677,0.124
20.91,-0.182,1.066,-0.046
20.92,-0.333,0.708,-0.156
20.93,-0.203,1.521,-0.044
20.94,-0.09,0.993,0.128
20.95,-0.022,0.595,0.004
20.96,-0.51,1.008,-0.195
20.97,-0.171,1.392,0.041
20.98,-0.231,0.979,0.203
20.99,-0.044,0.677,0.053
21.0,-0.58,0.667,-0.145
21.01,-0.174,1.858,0.089
21.02,-0.112,0.584,0.065
21.03,-0.199,1.055,0.048
21.04,-0.372,0.237,-0.18
21.05,-0.272,2.0,0.109
21.06,-0.071,0.541,0.117
21.07,-0.163,0.879,0.012
21.08,-0.407,0.483,-0.227
21.09,-0.054,1.673,0.064
21.1,-0.0,1.096,0.112
21.11,-0.004,0.352,-0.056
21.12,-0.505,0.925,-0.172
21.13,-0.045,1.545,0.087
21.14,-0.13,1.121,0.104
21.15,-0.002,0.534,-0.059
21.16,-0.478,0.675,-0.212
21.17,-0.043,1.823,0.155
21.18,-0.039,0.756,0.099
21.19,-0.051,0.909,-0.019
21.2,-0.397,0.258,-0.136
21.21,-0.235,1.851,0.11
21.22,-0.119,0.76,0.087
21.23,-0.058,0.936,-0.066
21.24,-0.383,0.433,-0.153
21.25,-0.089,1.634,0.134
21.26,-0.198,1.166,0.041
21.27,-0.041,0.528,-0.078
21.28,-0.421,0.886,-0.161
21.29,-0.056,1.289,0.179
21.3,-0.353,1.414,0.067
21.31,-0.029,0.487,-0.03
21.32,-0.5,0.677,-0.088
21.33,-0.061,1.25,0.162
21.34,-0.24,1.048,0.026
21.35,-0.305,0.974,-0.095
21.36,-0.353,0.288,-0.028
21.37,-0.096,1.392,0.218
21.38,-0.201,0.776,0.023
21.39,-0.257,1.035,-0.105
21.4,-0.399,0.566,-0.066
21.41,0.022,1.01,0.158
21.42,-0.283,1.193,-0.037
21.43,-0.163,0.522,-0.138
21.44,-0.303,1.545,-0.077
21.45,0.026,0.618,0.199
21.46,-0.299,1.245,-0.0
21.47,-0.326,0.368,-0.188
21.48,-0.34,1.921,-0.008
21.49,-0.052,0.644,0.116
21.5,-0.196,1.009,0.025
21.51,-0.413,0.578,-0.218
21.52,-0.208,1.63,0.047
21.53,-0.233,0.909,0.122
21.54,-0.11,0.561,0.048
21.55,-0.442,0.951,-0.149
21.56,-0.086,1.424,0.082
21.57,-0.085,1.1,0.166
21.58,-0.037,0.536,0.036
21.59,-0.509,0.665,-0.21
21.6,-0.111,1.9,0.069
21.61,-0.102,0.705,0.12
21.62,-0.119,0.942,-0.004
21.63,-0.467,0.268,-0.197
21.64,-0.125,2.0,0.114
21.65,-0.139,0.601,0.114
21.66,-0.109,0.817,-0.038
21.67,-0.4,0.499,-0.2
21.68,-0.114,1.748,0.127
21.69,-0.027,1.08,0.097
21.7,0.021,0.421,-0.046
21.71,-0.491,0.94,-0.171
21.72,-0.025,1.536,0.15
21.73,-0.211,1.151,0.14
21.74,0.002,0.566,-0.052
21.75,-0.415,0.775,-0.182
21.76,-0.054,1.722,0.135
21.77,-0.024,0.851,0.041
21.78,-0.074,0.96,-0.06
21.79,-0.288,0.255,-0.15
21.8,-0.197,1.772,0.123
21.81,-0.18,0.781,0.059
21.82,-0.086,0.945,-0.144
21.83,-0.328,0.426,-0.166
21.84,-0.063,1.393,0.154
21.85,-0.28,1.205,0.005
21.86,-0.026,0.534,-0.11
21.87,-0.482,0.873,-0.076
21.88,-0.088,1.082,0.246
21.89,-0.325,1.484,0.022
21.9,-0.116,0.422,-0.084
21.91,-0.439,0.725,-0.057
21.92,0.01,1.104,0.138
21.93,-0.241,1.025,0.026
21.94,-0.203,0.995,-0.164
21.95,-0.332,0.408,-0.014
21.96,-0.061,1.321,0.177
21.97,-0.21,0.774,0.023
21.98,-0.343,0.955,-0.123
21.99,-0.354,0.647,-0.054
22.0,-0.048,1.016,0.166
22.01,-0.25,1.189,-0.037
22.02,-0.152,0.475,-0.201
22.03,-0.251,1.825,-0.08
22.04,0.067,0.609,0.139
22.05,-0.228,1.19,0.018
22.06,-0.365,0.416,-0.214
22.07,-0.315,1.6,0.046
22.08,-0.125,0.788,0.105
22.09,-0.172,0.85,0.007
22.1,-0.333,0.799,-0.196
22.11,-0.22,1.443,0.062
22.12,-0.17,1.014,0.138
22.13,-0.09,0.526,0.031
22.14,-0.434,0.945,-0.186
22.15,-0.136,1.471,0.052
22.16,-0.017,0.913,0.141
22.17,-0.075,0.765,0.005
22.18,-0.412,0.398,-0.238
22.19,-0.184,2.0,0.064
22.2,-0.135,0.557,0.05
22.21,-0.178,1.002,0.018
22.22,-0.474,0.255,-0.186
22.23,-0.16,1.979,0.165
22.24,-0.085,0.781,0.115
22.25,-0.114,0.575,-0.009
22.26,-0.498,0.727,-0.22
22.27,-0.119,1.588,0.159
22.28,-0.154,1.119,0.064
22.29,-0.017,0.539,-0.052
22.3,-0.452,0.927,-0.157
22.31,-0.008,1.426,0.219
22.32,-0.244,1.333,0.056
22.33,0.04,0.577,-0.021
22.34,-0.443,0.658,-0.14
22.35,-0.126,1.519,0.158
22.36,-0.242,1.077,0.047
22.37,-0.095,0.864,-0.1
22.38,-0.329,0.258,-0.119
22.39,-0.171,1.507,0.176
22.4,-0.186,0.789,0.013
22.41,-0.302,1.087,-0.117
22.42,-0.358,0.492,-0.032
22.43,-0.094,1.167,0.242
22.44,-0.257,1.228,0.034
22.45,-0.157,0.484,-0.188
22.46,-0.329,1.086,-0.071
22.47,0.01,0.721,0.15
22.48,-0.353,1.408,-0.017
22.49,-0.173,0.41,-0.152
22.5,-0.195,1.353,-0.056
22.51,0.016,0.889,0.143
22.52,-0.099,0.835,-0.035
22.53,-0.426,0.939,-0.189
22.54,-0.2,0.929,-0.005
22.55,-0.13,1.12,0.122
22.56,-0.144,0.693,0.024
22.57,-0.422,0.966,-0.161
22.58,-0.201,1.445,0.044
22.59,-0.217,0.781,0.167
22.6,-0.15,0.909,0.055
22.61,-0.404,0.388,-0.165
22.62,-0.196,2.0,0.111
22.63,-0.046,0.659,0.176
22.64,-0.136,1.01,0.044
22.65,-0.411,0.225,-0.273
22.66,-0.106,2.0,0.023
22.67,-0.144,0.686,-0.006
22.68,-0.083,0.654,-0.052
22.69,-0.482,0.769,-0.238
22.7,-0.02,1.526,0.144
22.71,-0.159,1.106,0.147
22.72,0.135,0.344,-0.004
22.73,-0.613,0.945,-0.113
22.74,-0.043,1.572,0.127
22.75,-0.204,1.089,0.093
22.76,0.065,0.731,-0.034
22.77,-0.392,0.459,-0.103
22.78,-0.066,1.997,0.206
22.79,-0.003,0.604,0.11
22.8,-0.075,1.016,-0.075
22.81,-0.382,0.259,-0.167
22.82,-0.063,1.873,0.14
22.83,-0.155,0.875,0.038
22.84,0.04,0.688,-0.092
22.85,-0.448,0.704,-0.187
22.86,0.021,1.299,0.146
22.87,-0.382,1.375,0.051
22.88,-0.046,0.442,-0.056
22.89,-0.523,0.897,-0.135
22.9,-0.011,1.231,0.212
22.91,-0.304,1.365,0.044
22.92,-0.131,0.741,-0.137
22.93,-0.411,0.421,-0.035
22.94,-0.238,1.526,0.258
22.95,-0.154,0.979,0.022
22.96,-0.172,0.931,-0.116
22.97,-0.267,0.556,-0.059
22.98,-0.097,1.229,0.153
22.99,-0.204,0.867,-0.035
23.0,-0.302,0.785,-0.137
23.01,-0.275,1.115,-0.064
23.02,-0.033,0.748,0.151
23.03,-0.242,1.229,-0.024
23.04,-0.225,0.44,-0.139
23.05,-0.404,1.661,-0.003
23.06,0.008,0.596,0.147
23.07,-0.234,1.167,0.001
23.08,-0.338,0.515,-0.168
23.09,-0.189,1.937,0.063
23.1,-0.078,0.799,0.11
23.11,-0.064,0.617,-0.005
23.12,-0.483,0.743,-0.265
23.13,0.023,1.528,0.039
23.14,-0.13,1.196,0.082
23.15,0.03,0.352,-0.012
23.16,-0.535,0.934,-0.198
23.17,0.005,1.653,0.085
23.18,-0.179,0.879,0.118
23.19,-0.008,0.695,-0.05
23.2,-0.541,0.442,-0.15
23.21,-0.106,1.967,0.132
23.22,-0.089,0.667,0.152
23.23,-0.098,0.981,-0.032
23.24,-0.371,0.265,-0.135
23.25,-0.177,1.841,0.137
23.26,-0.142,0.918,0.053
23.27,-0.081,0.729,-0.067
23.28,-0.377,0.727,-0.141
23.29,-0.052,1.489,0.16
23.3,-0.277,1.368,0.065
23.31,-0.005,0.411,-0.05
23.32,-0.545,0.877,-0.094
23.33,-0.102,1.161,0.228
23.34,-0.37,1.29,0.072
23.35,-0.187,0.677,-0.065
23.36,-0.389,0.472,-0.014
23.37,-0.073,1.341,0.203
23.38,-0.175,0.764,0.015
23.39,-0.351,1.127,-0.134
23.4,-0.259,0.384,-0.008
23.41,-0.187,1.184,0.201
23.42,-0.197,0.917,0.019
23.43,-0.341,0.776,-0.115
23.44,-0.241,1.264,-0.052
23.45,-0.024,0.726,0.139
23.46,-0.216,1.231,-0.033
23.47,-0.286,0.399,-0.195
23.48,-0.254,1.89,-0.056
23.49,-0.025,0.648,0.157
23.5,-0.257,0.975,0.001
23.51,-0.411,0.588,-0.167
23.52,-0.264,1.613,0.017
23.53,-0.177,0.943,0.158
23.54,-0.105,0.627,0.007
23.55,-0.496,0.982,-0.173
23.56,-0.074,1.441,0.098
23.57,-0.244,1.028,0.145
23.58,0.02,0.542,0.031
23.59,-0.551,0.641,-0.254
23.6,0.048,1.856,-0.009
23.61,0.006,0.778,0.071
23.62,-0.083,0.901,-0.03
23.63,-0.443,0.208,-0.221
23.64,-0.186,2.0,0.117
23.65,-0.112,0.603,0.127
23.66,-0.21,0.839,0.011
23.67,-0.5,0.5,-0.137
23.68,-0.146,1.724,0.189
23.69,-0.145,1.077,0.065
23.7,0.103,0.466,-0.055
23.71,-0.473,0.955,-0.153
23.72,0.032,1.472,0.134
23.73,-0.159,1.163,0.028
23.74,0.057,0.557,-0.091
23.75,-0.479,0.698,-0.175
23.76,-0.085,1.573,0.144
23.77,-0.274,0.976,0.025
23.78,-0.043,0.913,-0.065
23.79,-0.295,0.223,-0.123
23.8,-0.244,1.644,0.169
23.81,-0.209,0.827,0.073
23.82,-0.183,1.103,-0.133
23.83,-0.347,0.398,-0.101
23.84,-0.079,1.404,0.205
23.85,-0.25,1.277,0.041
23.86,-0.046,0.465,-0.122
23.87,-0.491,0.918,-0.032
23.88,0.03,0.874,0.165
23.89,-0.401,1.352,-0.038
23.9,-0.116,0.334,-0.129
23.91,-0.314,1.622,-0.022
23.92,0.04,0.705,0.157
23.93,-0.293,1.029,-0.013
23.94,-0.345,0.749,-0.194
23.95,-0.251,1.457,0.009
23.96,-0.103,1.002,0.176
23.97,-0.154,0.604,0.018
23.98,-0.467,0.97,-0.167
23.99,-0.215,1.388,0.071
24.0,-0.177,1.019,0.177
24.01,-0.188,0.616,0.034
24.02,-0.394,0.666,-0.161
24.03,-0.237,1.792,0.108
24.04,-0.085,0.685,0.16
24.05,-0.241,0.924,0.036
24.06,-0.371,0.258,-0.196
24.07,-0.281,2.0,0.092
24.08,-0.081,0.594,0.11
24.09,-0.122,0.905,-0.017
24.1,-0.533,0.45,-0.213
24.11,-0.066,1.794,0.069
24.12,-0.201,0.989,0.095
24.13,-0.025,0.401,-0.013
24.14,-0.559,0.927,-0.151
24.15,-0.105,1.49,0.196
24.16,-0.206,1.163,0.171
24.17,0.056,0.523,-0.015
24.18,-0.52,0.757,-0.149
24.19,-0.077,1.67,0.128
24.2,-0.135,0.912,0.083
24.21,-0.079,0.946,-0.12
24.22,-0.315,0.227,-0.156
24.23,-0.094,2.0,0.131
24.24,-0.13,0.74,0.153
24.25,-0.065,0.928,-0.103
24.26,-0.398,0.392,-0.188
24.27,-0.086,1.504,0.132
24.28,-0.304,1.222,-0.015
24.29,0.046,0.536,-0.136
24.3,-0.462,0.845,-0.138
24.31,-0.088,1.133,0.246
24.32,-0.335,1.414,0.019
24.33,-0.183,0.512,-0.1
24.34,-0.376,0.694,-0.045
24.35,-0.218,1.182,0.25
24.36,-0.274,1.135,0.05
24.37,-0.284,0.858,-0.11
24.38,-0.278,0.549,0.01
24.39,-0.132,1.299,0.149
24.4,-0.161,0.691,0.015
24.41,-0.354,1.036,-0.134
24.42,-0.269,0.67,-0.051
24.43,-0.061,1.011,0.14
24.44,-0.262,1.113,-0.007
24.45,-0.271,0.569,-0.149
24.46,-0.313,1.578,0.027
24.47,-0.082,0.514,0.162
24.48,-0.289,1.275,-0.004
24.49,-0.279,0.378,-0.184
24.5,-0.292,1.818,-0.01
24.51,0.051,0.845,0.158
24.52,-0.153,0.648,-0.001
24.53,-0.476,0.807,-0.211
24.54,-0.242,1.526,0.128
24.55,-0.214,1.039,0.16
24.56,-0.113,0.481,0.056
24.57,-0.474,0.874,-0.218
24.58,-0.115,1.663,0.045
24.59,-0.135,0.836,0.039
24.6,-0.091,0.721,-0.021
24.61,-0.425,0.407,-0.147
24.62,-0.11,2.0,0.04
24.63,0.055,0.666,0.109
24.64,-0.141,0.931,-0.006
24.65,-0.512,0.234,-0.141
24.66,-0.186,2.0,0.211
24.67,-0.187,0.743,0.186
24.68,-0.056,0.704,-0.033
24.69,-0.547,0.723,-0.18
24.7,-0.05,1.679,0.12
24.71,-0.181,1.124,0.022
24.72,0.077,0.477,-0.097
24.73,-0.485,0.882,-0.14
24.74,0.004,1.094,0.146
24.75,-0.386,1.413,0.033
24.76,-0.074,0.525,-0.069
24.77,-0.488,0.675,-0.064
24.78,-0.08,1.33,0.204
24.79,-0.192,1.0,0.008
24.8,-0.231,1.029,-0.14
24.81,-0.326,0.222,-0.025
24.82,-0.229,1.536,0.238
24.83,-0.246,0.956,0.012
24.84,-0.23,0.908,-0.094
24.85,-0.242,0.807,-0.001
24.86,-0.075,0.992,0.165
24.87,-0.263,1.095,-0.052
24.88,-0.224,0.582,-0.176
24.89,-0.294,1.285,-0.074
24.9,0.024,0.67,0.131
24.91,-0.299,1.277,-0.021
24.92,-0.304,0.446,-0.155
24.93,-0.278,1.49,0.008
24.94,-0.125,0.757,0.128
24.95,-0.194,0.875,0.002
24.96,-0.407,0.78,-0.133
24.97,-0.091,1.456,0.045
24.98,-0.102,1.186,0.185
24.99,-0.08,0.391,0.059
25.0,-0.558,0.88,-0.178
25.01,-0.189,1.669,0.099
25.02,-0.146,0.891,0.113
25.03,-0.13,0.767,0.006
25.04,-0.482,0.387,-0.174
25.05,-0.175,2.0,0.094
25.06,-0.103,0.547,0.078
25.07,-0.141,0.919,-0.033
25.08,-0.398,0.252,-0.185
25.09,-0.207,1.936,0.116
25.1,-0.058,0.808,0.125
25.11,0.017,0.711,-0.021
25.12,-0.499,0.763,-0.154
25.13,0.029,1.562,0.152
25.14,-0.247,1.237,0.061
25.15,0.063,0.448,-0.062
25.16,-0.504,0.904,-0.173
25.17,0.069,1.561,0.123
25.18,-0.179,1.14,0.047
25.19,-0.019,0.693,-0.083
25.2,-0.309,0.376,-0.154
25.21,-0.217,1.598,0.112
25.22,-0.175,0.894,0.009
25.23,-0.304,1.068,-0.159
25.24,-0.232,0.23,-0.085
25.25,-0.193,1.512,0.222
25.26,-0.175,0.996,0.04
25.27,-0.153,0.852,-0.125
25.28,-0.461,0.762,-0.068
25.29,0.011,0.958,0.215
25.3,-0.459,1.493,-0.055
25.31,0.0,0.376,-0.129
25.32,-0.264,1.752,-0.119
25.33,0.085,0.757,0.119
25.34,-0.297,0.994,-0.03
25.35,-0.389,0.681,-0.177
25.36,-0.282,1.312,0.041
25.37,-0.158,1.021,0.167
25.38,-0.137,0.633,-0.022
25.39,-0.45,1.02,-0.189
25.4,-0.174,1.271,0.028
25.41,-0.252,0.927,0.144
25.42,-0.162,0.746,-0.013
25.43,-0.373,0.68,-0.154
25.44,-0.069,1.776,0.062
25.45,0.049,0.703,0.129
25.46,-0.123,0.906,-0.021
25.47,-0.424,0.271,-0.221
25.48,-0.172,2.0,0.109
25.49,-0.097,0.632,0.126
25.5,-0.124,0.885,-0.025
25.51,-0.429,0.289,-0.14
25.52,-0.114,1.907,0.192
25.53,-0.147,0.885,0.084
25.54,-0.031,0.638,-0.052
25.55,-0.469,0.753,-0.147
25.56,-0.089,1.268,0.179
25.57,-0.313,1.397,0.0
25.58,-0.051,0.394,-0.089
25.59,-0.369,0.836,-0.153
25.6,-0.085,1.171,0.181
25.61,-0.306,1.197,-0.008
25.62,-0.165,0.861,-0.149
25.63,-0.402,0.379,-0.044
25.64,-0.224,1.478,0.302
25.65,-0.247,0.92,0.019
25.66,-0.234,0.982,-0.121
25.67,-0.299,0.605,-0.0
25.68,-0.092,1.159,0.176
25.69,-0.326,0.934,0.047
25.7,-0.271,0.705,-0.153
25.71,-0.198,1.489,-0.071
25.72,-0.032,0.663,0.107
25.73,-0.266,1.186,-0.042
25.74,-0.321,0.362,-0.189
25.75,-0.36,1.649,0.071
25.76,-0.177,0.602,0.202
25.77,-0.295,1.049,0.004
25.78,-0.29,0.527,-0.187
25.79,-0.104,1.633,0.097
25.8,-0.143,0.986,0.134
25.81,-0.056,0.423,0.032
25.82,-0.54,0.932,-0.147
25.83,-0.1,1.966,0.149
25.84,0.004,0.861,0.107
25.85,-0.058,0.525,-0.096
25.86,-0.444,0.75,-0.157
25.87,-0.082,1.442,0.123
25.88,-0.154,1.323,0.025
25.89,0.031,0.487,-0.054
25.9,-0.408,0.92,-0.184
25.91,-0.026,1.49,0.147
25.92,-0.183,1.143,0.003
25.93,-0.057,0.826,-0.081
25.94,-0.336,0.324,-0.148
25.95,-0.201,1.527,0.193
25.96,-0.195,0.881,-0.043
25.97,-0.28,1.005,-0.106
25.98,-0.239,0.427,-0.044
25.99,-0.054,1.228,0.2
26.0,-0.181,0.846,-0.071
26.01,-0.275,0.785,-0.203
26.02,-0.262,0.987,-0.127
26.03,-0.003,0.771,0.112
26.04,-0.331,1.393,-0.036
26.05,-0.203,0.33,-0.149
26.06,-0.338,1.839,-0.016
26.07,0.023,0.668,0.156
26.08,-0.234,0.997,-0.018
26.09,-0.223,0.766,-0.262
26.1,-0.208,1.545,0.053
26.11,-0.024,1.125,0.225
26.12,-0.063,0.457,0.033
26.13,-0.532,0.916,-0.175
26.14,-0.25,1.501,0.113
26.15,-0.31,0.895,0.084
26.16,-0.102,0.69,-0.029
26.17,-0.446,0.554,-0.18
26.18,0.052,1.906,0.05
26.19,0.003,0.739,0.12
26.2,-0.124,0.823,-0.023
26.21,-0.388,0.232,-0.192
26.22,-0.207,2.0,0.165
26.23,-0.035,0.659,0.078
26.24,-0.11,1.086,-0.093
26.25,-0.353,0.298,-0.183
26.26,-0.043,1.815,0.167
26.27,-0.122,1.001,0.01
26.28,-0.064,0.603,-0.093
26.29,-0.374,0.742,-0.171
26.3,-0.131,1.104,0.173
26.31,-0.385,1.465,0.022
26.32,-0.121,0.4,-0.072
26.33,-0.383,0.81,-0.04
26.34,-0.071,1.023,0.228
26.35,-0.292,1.139,0.076
26.36,-0.286,0.869,-0.169
26.37,-0.302,0.41,-0.035
26.38,-0.105,1.332,0.189
26.39,-0.262,0.861,-0.029
26.4,-0.25,0.933,-0.143
26.41,-0.214,1.087,-0.068
26.42,-0.031,0.984,0.097
26.43,-0.228,0.905,-0.046
26.44,-0.313,0.657,-0.188
26.45,-0.318,1.787,0.024
26.46,-0.054,0.644,0.218
26.47,-0.235,1.084,0.032
26.48,-0.36,0.338,-0.23
26.49,-0.334,1.92,0.048
26.5,-0.152,0.579,0.123
26.51,-0.229,0.938,-0.001
26.52,-0.368,0.551,-0.214
26.53,-0.015,1.605,0.055
26.54,-0.016,1.147,0.167
26.55,-0.037,0.282,-0.009
26.56,-0.59,0.915,-0.147
26.57,0.003,1.508,0.098
26.58,-0.164,1.069,0.089
26.59,0.006,0.671,-0.051
26.6,-0.548,0.601,-0.189
26.61,-0.072,1.833,0.188
26.62,-0.141,0.782,0.117
26.63,-0.133,0.906,-0.036
26.64,-0.348,0.234,-0.144
26.65,-0.22,1.845,0.092
26.66,-0.064,0.814,0.051
26.67,-0.176,0.889,-0.147
26.68,-0.238,0.519,-0.165
26.69,-0.186,1.339,0.175
26.7,-0.26,1.375,0.05
26.71,-0.117,0.413,-0.104
26.72,-0.458,0.884,-0.05
26.73,-0.078,1.145,0.252
26.74,-0.394,1.455,0.035
26.75,-0.141,0.57,-0.122
26.76,-0.357,0.707,-0.02
26.77,-0.044,1.175,0.114
26.78,-0.162,0.879,-0.065
26.79,-0.294,1.093,-0.171
26.8,-0.139,0.867,-0.07
26.81,-0.099,1.139,0.19
26.82,-0.171,0.672,-0.007
26.83,-0.311,0.864,-0.194
26.84,-0.332,1.481,0.008
26.85,-0.143,0.691,0.154
26.86,-0.259,1.152,0.005
26.87,-0.208,0.319,-0.182
26.88,-0.339,1.969,0.114
26.89,-0.082,0.517,0.16
26.9,-0.152,1.008,0.013
26.91,-0.388,0.364,-0.214
26.92,-0.095,1.898,0.034
26.93,-0.083,0.884,0.038
26.94,0.002,0.526,-0.065
26.95,-0.589,0.823,-0.221
26.96,-0.017,1.57,0.091
26.97,-0.363,1.057,0.115
26.98,0.054,0.438,-0.014
26.99,-0.583,0.828,-0.166
27.0,-0.05,1.65,0.166
27.01,-0.131,0.942,0.112
27.02,-0.062,0.787,-0.049
27.03,-0.379,0.315,-0.126
27.04,-0.141,1.719,0.145
27.05,-0.168,0.827,0.047
27.06,-0.159,1.14,-0.122
27.07,-0.404,0.147,-0.093
27.08,-0.187,1.685,0.243
27.09,-0.26,0.965,0.058
27.1,-0.168,0.763,-0.079
27.11,-0.394,0.625,-0.047
27.12,-0.123,1.034,0.231
27.13,-0.308,1.417,-0.018
27.14,-0.197,0.414,-0.105
27.15,-0.331,1.251,-0.033
27.16,0.052,0.788,0.156
27.17,-0.225,1.169,-0.018
27.18,-0.33,0.689,-0.199
27.19,-0.223,1.216,-0.05
27.2,-0.159,0.917,0.125
27.21,-0.135,0.722,0.016
27.22,-0.38,0.88,-0.118
27.23,-0.21,1.366,0.01
27.24,-0.237,1.047,0.171
27.25,-0.205,0.673,0.05
27.26,-0.482,0.75,-0.115
27.27,-0.278,1.796,0.081
27.28,-0.107,0.615,0.104
27.29,-0.1,1.032,-0.006
27.3,-0.338,0.312,-0.227
27.31,-0.152,2.0,0.044
27.32,-0.058,0.623,0.107
27.33,-0.173,0.879,0.012
27.34,-0.461,0.413,-0.188
27.35,-0.1,1.836,0.162
27.36,-0.15,0.974,0.091
27.37,0.026,0.429,-0.049
27.38,-0.526,0.904,-0.138
27.39,0.009,1.53,0.174
27.4,-0.192,1.223,0.093
27.41,0.069,0.477,-0.051
27.42,-0.436,0.772,-0.169
27.43,0.009,1.68,0.1
27.44,-0.096,0.914,0.022
27.45,-0.125,0.937,-0.102
27.46,-0.34,0.186,-0.129
27.47,-0.208,1.794,0.147
27.48,-0.184,0.815,0.039
27.49,-0.137,0.998,-0.109
27.5,-0.367,0.333,-0.105
27.51,-0.137,1.399,0.191
27.52,-0.247,1.171,-0.063
27.53,-0.073,0.527,-0.137
27.54,-0.457,0.905,-0.068
27.55,0.014,0.885,0.215
27.56,-0.349,1.382,-0.005
27.57,-0.132,0.522,-0.169
27.58,-0.363,0.981,-0.029
27.59,0.017,0.907,0.191
27.6,-0.233,0.972,-0.014
27.61,-0.316,0.846,-0.162
27.62,-0.181,0.926,-0.026
27.63,-0.111,1.122,0.166
27.64,-0.126,0.659,-0.014
27.65,-0.363,0.964,-0.198
27.66,-0.202,1.416,-0.024
27.67,-0.089,0.892,0.137
27.68,-0.171,0.884,0.001
27.69,-0.39,0.461,-0.233
27.7,-0.26,1.981,0.079
27.71,-0.122,0.605,0.155
27.72,-0.229,1.034,0.053
27.73,-0.417,0.241,-0.218
27.74,-0.178,2.0,0.051
27.75,-0.067,0.77,0.03
27.76,-0.131,0.633,-0.037
27.77,-0.465,0.655,-0.224
27.78,-0.039,1.603,0.039
27.79,-0.14,1.167,0.127
27.8,0.026,0.306,0.006
27.81,-0.499,0.932,-0.185
27.82,-0.033,1.584,0.093
27.83,-0.129,0.998,0.06
27.84,0.04,0.678,-0.035
27.85,-0.519,0.736,-0.123
27.86,0.006,1.686,0.129
27.87,-0.155,0.928,0.065
27.88,-0.083,0.961,-0.069
27.89,-0.431,0.175,-0.096
27.9,-0.161,1.84,0.173
27.91,-0.187,0.794,0.069
27.92,-0.151,0.928,-0.099
27.93,-0.403,0.375,-0.116
27.94,-0.129,1.362,0.181
27.95,-0.342,1.181,0.004
27.96,-0.106,0.541,-0.106
27.97,-0.427,0.866,-0.066
27.98,-0.023,0.896,0.25
27.99,-0.377,1.518,0.006
28.0,-0.145,0.448,-0.122
28.01,-0.331,0.868,-0.04
28.02,0.034,1.0,0.172
28.03,-0.234,0.98,-0.005
28.04,-0.225,0.97,-0.191
28.05,-0.278,0.805,-0.037
28.06,-0.057,1.166,0.196
28.07,-0.128,0.651,-0.001
28.08,-0.427,1.021,-0.149
28.09,-0.236,1.32,-0.034
28.1,-0.107,0.847,0.187
28.11,-0.208,0.998,-0.017
28.12,-0.353,0.468,-0.208
28.13,-0.283,1.978,0.005
28.14,-0.044,0.497,0.12
28.15,-0.263,1.122,0.037
28.16,-0.325,0.348,-0.241
28.17,-0.332,1.937,0.05
28.18,-0.099,0.728,0.139
28.19,-0.189,0.727,0.032
28.2,-0.422,0.753,-0.218
28.21,-0.015,1.557,0.038
28.22,-0.103,1.167,0.115
28.23,0.081,0.375,0.028
28.24,-0.524,0.943,-0.194
28.25,-0.041,1.576,0.107
28.26,-0.113,0.948,0.134
28.27,-0.005,0.73,-0.04
28.28,-0.464,0.44,-0.178
28.29,-0.131,2.0,0.146
28.3,-0.073,0.58,0.132
28.31,-0.144,0.951,-0.011
28.32,-0.407,0.282,-0.186
28.33,-0.154,1.947,0.143
28.34,-0.105,0.86,0.09
28.35,-0.051,0.696,-0.013
28.36,-0.413,0.709,-0.099
28.37,-0.128,1.488,0.17
28.38,-0.212,1.274,0.082
28.39,0.043,0.429,-0.067
28.4,-0.459,0.92,-0.175
28.41,-0.009,1.472,0.104
28.42,-0.234,1.132,0.0
28.43,-0.021,0.785,-0.101
28.44,-0.375,0.428,-0.137
28.45,-0.198,1.605,0.178
28.46,-0.174,0.902,0.062
28.47,-0.189,0.957,-0.124
28.48,-0.38,0.232,-0.085
28.49,-0.12,1.458,0.211
28.5,-0.26,0.991,0.033
28.51,-0.155,0.839,-0.118
28.52,-0.432,0.68,-0.1
28.53,0.002,1.023,0.242
28.54,-0.323,1.461,0.003
28.55,-0.143,0.394,-0.143
28.56,-0.375,1.115,-0.04
28.57,0.021,0.773,0.193
28.58,-0.266,1.222,-0.032
28.59,-0.215,0.722,-0.193
28.6,-0.179,1.184,-0.093
28.61,-0.077,1.067,0.159
28.62,-0.071,0.595,-0.038
28.63,-0.46,1.014,-0.205
28.64,-0.197,0.947,-0.017
28.65,-0.296,1.011,0.164
28.66,-0.065,0.622,0.06
28.67,-0.49,0.86,-0.208
28.68,-0.121,1.541,0.108
28.69,-0.174,0.788,0.101
28.7,-0.115,0.807,0.002
28.71,-0.434,0.393,-0.197
28.72,-0.1,2.0,0.107
28.73,0.003,0.604,0.121
28.74,-0.082,0.99,0.015
28.75,-0.463,0.276,-0.26
28.76,-0.089,1.992,0.104
28.77,-0.161,0.782,0.089
28.78,-0.129,0.561,0.003
28.79,-0.494,0.743,-0.203
28.8,-0.081,1.581,0.186
28.81,-0.117,1.201,0.104
28.82,0.086,0.384,-0.025
28.83,-0.503,0.926,-0.155
28.84,0.01,1.566,0.099
28.85,-0.157,1.089,0.068
28.86,-0.039,0.835,-0.055
28.87,-0.374,0.402,-0.149
28.88,-0.092,1.953,0.195
28.89,-0.069,0.711,0.088
28.9,-0.089,1.011,-0.046
28.91,-0.394,0.237,-0.14
28.92,-0.198,1.599,0.175
28.93,-0.279,0.97,0.044
28.94,-0.088,0.716,-0.069
28.95,-0.432,0.707,-0.069
28.96,-0.088,1.042,0.247
28.97,-0.386,1.294,0.041
28.98,-0.076,0.523,-0.12
28.99,-0.437,0.92,-0.014
29.0,-0.094,0.906,0.274
29.01,-0.275,1.237,0.01
29.02,-0.179,0.757,-0.151
29.03,-0.276,0.664,-0.026
29.04,-0.06,1.165,0.134
29.05,-0.19,0.789,-0.037
29.06,-0.294,0.893,-0.171
29.07,-0.231,1.303,-0.037
29.08,-0.084,1.155,0.147
29.09,-0.124,0.53,-0.01
29.1,-0.463,0.948,-0.233
29.11,-0.209,1.564,-0.025
29.12,-0.17,0.748,0.147
29.13,-0.153,0.989,0.032
29.14,-0.396,0.39,-0.212
29.15,-0.286,1.972,0.143
29.16,-0.083,0.512,0.13
29.17,-0.266,0.969,0.025
29.18,-0.376,0.275,-0.205
29.19,-0.099,1.95,0.048
29.2,-0.012,0.85,0.073
29.21,-0.027,0.545,-0.049
29.22,-0.532,0.798,-0.251
29.23,-0.005,1.591,0.071
29.24,-0.109,1.125,0.091
29.25,0.03,0.412,-0.023
29.26,-0.57,0.908,-0.196
29.27,-0.045,1.629,0.147
29.28,-0.128,0.951,0.1
29.29,-0.018,0.734,-0.063
29.3,-0.475,0.424,-0.154
29.31,-0.172,1.853,0.098
29.32,-0.094,0.76,0.102
29.33,-0.149,1.017,-0.06
29.34,-0.303,0.262,-0.144
29.35,-0.171,1.754,0.128
29.36,-0.146,0.916,0.066
29.37,-0.066,0.701,-0.082
29.38,-0.446,0.743,-0.112
29.39,-0.154,1.277,0.179
29.4,-0.351,1.429,0.044
29.41,0.044,0.379,-0.062
29.42,-0.439,0.907,-0.079
29.43,-0.082,1.004,0.215
29.44,-0.288,1.221,0.016
29.45,-0.249,0.821,-0.129
29.46,-0.368,0.959,-0.019
29.47,-0.018,1.009,0.16
29.48,-0.181,0.808,-0.008
29.49,-0.347,0.971,-0.129
29.5,-0.27,0.864,-0.047
29.51,-0.116,1.107,0.152
29.52,-0.13,0.737,-0.011
29.53,-0.414,0.88,-0.156
29.54,-0.27,1.505,0.002
29.55,-0.045,0.784,0.159
29.56,-0.196,0.936,0.028
29.57,-0.381,0.449,-0.263
29.58,-0.325,1.968,0.039
29.59,-0.083,0.533,0.111
29.6,-0.263,1.121,0.022
29.61,-0.353,0.35,-0.251
29.62,-0.115,1.893,0.059
29.63,-0.062,0.879,0.092
29.64,-0.05,0.533,0.014
29.65,-0.539,0.788,-0.233
29.66,0.009,1.572,0.109
29.67,-0.162,1.185,0.129
29.68,0.058,0.422,-0.019
29.69,-0.577,0.868,-0.224
29.7,0.009,1.718,0.107
29.71,-0.198,0.846,0.099
29.72,-0.017,0.765,-0.035
29.73,-0.499,0.365,-0.146
29.74,-0.085,2.0,0.125
29.75,-0.105,0.527,0.156
29.76,-0.046,0.991,-0.042
29.77,-0.496,0.269,-0.115
29.78,-0.142,1.839,0.149
29.79,-0.156,0.954,0.132
29.8,-0.054,0.643,-0.026
29.81,-0.428,0.784,-0.169
29.82,-0.043,1.473,0.151
29.83,-0.205,1.309,0.033
29.84,0.05,0.473,-0.071
29.85,-0.36,0.845,-0.198
29.86,-0.071,1.345,0.138
29.87,-0.217,1.26,-0.018
29.88,-0.104,0.707,-0.151
29.89,-0.261,0.325,-0.136
29.9,-0.184,1.544,0.125
29.91,-0.121,0.821,0.003
29.92,-0.272,1.116,-0.161
29.93,-0.295,0.24,-0.083
29.94,-0.142,1.378,0.243
29.95,-0.276,1.06,0.013
29.96,-0.109,0.663,-0.111
29.97,-0.404,0.916,-0.106
29.98,0.081,0.854,0.168
29.99,-0.407,1.375,0.05
30.0,-0.094,0.372,-0.163
30.01,-0.263,1.48,-0.104
30.02,0.079,0.783,0.078
30.03,-0.093,1.027,-0.039
30.04,-0.334,0.794,-0.17
30.05,-0.33,0.923,-0.015
30.06,-0.126,1.003,0.095
30.07,-0.132,0.716,-0.018
30.08,-0.302,0.955,-0.119
30.09,-0.241,1.379,-0.013
30.1,-0.126,0.938,0.133
30.11,-0.143,0.752,-0.0
30.12,-0.458,0.626,-0.153
30.13,-0.238,1.849,0.025
30.14,-0.105,0.623,0.095
30.15,-0.221,1.121,0.007
30.16,-0.347,0.297,-0.206
30.17,-0.321,1.966,0.102
30.18,-0.201,0.497,0.122
30.19,-0.212,0.938,0.027
30.2,-0.365,0.471,-0.216
30.21,-0.021,1.676,0.072
30.22,-0.075,1.092,0.114
30.23,0.028,0.332,-0.054
30.24,-0.583,0.931,-0.183
30.25,-0.021,1.522,0.091
30.26,-0.157,1.1,0.122
30.27,0.078,0.478,0.026
30.28,-0.607,0.961,-0.181
30.29,-0.102,1.455,0.134
30.3,-0.205,1.187,0.088
30.31,-0.107,0.769,-0.032
30.32,-0.293,0.384,-0.109
30.33,-0.145,1.952,0.16
30.34,0.025,0.704,0.111
30.35,-0.114,1.122,-0.067
30.36,-0.361,0.212,-0.152
30.37,-0.194,1.66,0.165
30.38,-0.24,1.079,0.065
30.39,-0.095,0.569,-0.06
30.4,-0.373,0.78,-0.13
30.41,-0.131,1.066,0.201
30.42,-0.33,1.397,0.041
30.43,-0.135,0.467,-0.108
30.44,-0.436,0.831,-0.007
30.45,-0.076,1.023,0.276
30.46,-0.31,1.268,0.064
30.47,-0.24,0.799,-0.143
30.48,-0.367,0.442,-0.009
30.49,-0.107,1.3,0.206
30.5,-0.206,0.781,0.022
30.51,-0.284,1.027,-0.096
30.52,-0.307,0.818,-0.032
30.53,-0.071,1.073,0.207
30.54,-0.253,0.886,0.002
30.55,-0.279,0.724,-0.152
30.56,-0.227,1.406,-0.069
30.57,0.018,0.635,0.157
30.58,-0.241,1.21,-0.038
30.59,-0.283,0.407,-0.199
30.6,-0.304,1.849,0.017
30.61,-0.047,0.623,0.116
30.62,-0.185,1.011,0.011
30.63,-0.328,0.644,-0.196
30.64,-0.208,1.636,0.054
30.65,-0.114,1.04,0.14
30.66,-0.093,0.432,0.042
30.67,-0.501,0.987,-0.201
30.68,-0.042,1.475,0.041
30.69,-0.203,1.027,0.089
30.7,-0.038,0.611,0.014
30.71,-0.549,0.577,-0.209
30.72,0.017,1.919,0.027
30.73,-0.117,0.606,0.04
30.74,-0.087,0.941,-0.019
30.75,-0.455,0.237,-0.23
30.76,-0.07,2.0,0.134
30.77,-0.058,0.674,0.145
30.78,-0.131,0.773,-0.05
30.79,-0.498,0.51,-0.159
30.8,-0.147,1.737,0.21
30.81,-0.167,1.143,0.133
30.82,0.086,0.43,-0.057
30.83,-0.616,0.964,-0.121
30.84,0.031,1.483,0.215
30.85,-0.208,1.191,0.128
30.86,0.037,0.594,-0.053
30.87,-0.421,0.666,-0.169
30.88,-0.094,1.658,0.143
30.89,-0.144,0.911,0.02
30.9,-0.07,1.05,-0.073
30.91,-0.347,0.2,-0.109
30.92,-0.145,1.827,0.19
30.93,-0.187,0.911,0.075
30.94,-0.168,0.905,-0.12
30.95,-0.304,0.459,-0.174
30.96,-0.16,1.332,0.239
30.97,-0.314,1.399,-0.018
30.98,-0.067,0.523,-0.109
30.99,-0.414,0.921,-0.068
31.0,-0.006,0.889,0.204
31.01,-0.261,1.465,0.01
31.02,-0.256,0.533,-0.127
31.03,-0.317,0.842,0.003
31.04,-0.143,0.997,0.18
31.05,-0.224,0.963,-0.025
31.06,-0.32,0.883,-0.109
31.07,-0.196,1.383,0.025
31.08,-0.138,1.024,0.138
31.09,-0.167,0.603,0.019
31.1,-0.374,1.02,-0.176
31.11,-0.215,1.4,0.092
31.12,-0.112,0.957,0.138
31.13,-0.099,0.659,0.027
31.14,-0.453,0.638,-0.215
31.15,-0.13,1.865,0.097
31.16,-0.057,0.614,0.085
31.17,-0.181,0.999,0.011
31.18,-0.454,0.168,-0.21
31.19,-0.111,2.0,0.103
31.2,-0.079,0.682,0.094
31.21,-0.129,0.719,-0.008
31.22,-0.481,0.517,-0.19
31.23,0.001,1.77,0.144
31.24,-0.098,1.07,0.103
31.25,0.039,0.378,-0.095
31.26,-0.524,0.945,-0.156
31.27,-0.006,1.47,0.159
31.28,-0.181,1.209,0.063
31.29,0.052,0.616,-0.048
31.3,-0.436,0.677,-0.173
31.31,-0.034,1.781,0.161
31.32,-0.092,0.791,0.03
31.33,-0.084,0.997,-0.06
31.34,-0.238,0.189,-0.132
31.35,-0.246,1.653,0.134
31.36,-0.135,0.88,-0.012
31.37,-0.205,0.916,-0.133
31.38,-0.289,0.509,-0.137
31.39,-0.138,1.234,0.212
31.4,-0.31,1.316,0.026
31.41,-0.079,0.471,-0.105
31.42,-0.497,0.931,-0.047
31.43,0.005,0.859,0.224
31.44,-0.38,1.453,-0.024
31.45,-0.147,0.473,-0.102
31.46,-0.349,0.883,-0.044
31.47,0.002,0.999,0.157
31.48,-0.216,0.902,-0.036
31.49,-0.355,0.914,-0.101
31.5,-0.284,0.856,-0.015
31.51,-0.049,1.167,0.14
31.52,-0.153,0.688,-0.008
31.53,-0.382,0.988,-0.168
31.54,-0.304,1.417,0.029
31.55,-0.106,0.771,0.152
31.56,-0.21,1.009,0.025
31.57,-0.282,0.416,-0.233
31.58,-0.333,1.965,0.096
31.59,-0.061,0.536,0.108
31.6,-0.179,1.006,-0.005
31.61,-0.355,0.311,-0.241
31.62,-0.196,1.931,0.065
31.63,-0.013,0.887,0.123
31.64,-0.045,0.542,-0.005
31.65,-0.505,0.809,-0.24
31.66,0.041,1.634,0.073
31.67,-0.267,1.134,0.093
31.68,0.12,0.459,0.014
31.69,-0.557,0.801,-0.189
31.7,0.075,1.729,0.128
31.71,-0.257,0.81,0.081
31.72,-0.045,0.743,-0.079
31.73,-0.48,0.324,-0.128
31.74,-0.089,2.0,0.131
31.75,-0.089,0.642,0.127
31.76,-0.031,1.0,-0.032
31.77,-0.36,0.321,-0.163
31.78,-0.115,1.858,0.152
31.79,-0.198,0.969,0.091
31.8,-0.059,0.701,-0.085
31.81,-0.438,0.785,-0.15
31.82,0.022,1.457,0.165
31.83,-0.378,1.415,0.083
31.84,-0.032,0.401,-0.005
31.85,-0.444,0.788,-0.132
31.86,-0.098,1.162,0.191
31.87,-0.326,1.508,-0.022
31.88,-0.24,0.547,-0.161
31.89,-0.275,0.742,0.002
31.9,0.022,1.141,0.123
31.91,-0.187,0.877,-0.051
31.92,-0.293,1.082,-0.18
31.93,-0.299,0.617,-0.016
31.94,-0.123,1.133,0.169
31.95,-0.196,0.777,0.012
31.96,-0.355,0.854,-0.13
31.97,-0.215,1.552,-0.015
31.98,-0.062,0.782,0.151
31.99,-0.212,0.947,0.0
32.0,-0.374,0.353,-0.182
32.01,-0.34,2.0,0.025
32.02,0.003,0.567,0.12
32.03,-0.255,1.063,0.007
32.04,-0.389,0.364,-0.222
32.05,-0.227,1.948,0.042
32.06,-0.141,0.731,0.077
32.07,-0.078,0.635,-0.022
32.08,-0.461,0.814,-0.248
32.09,0.066,1.562,0.004
32.1,-0.125,1.131,0.082
32.11,0.022,0.398,0.014
32.12,-0.548,0.826,-0.153
32.13,-0.062,1.668,0.144
32.14,-0.076,0.936,0.081
32.15,-0.028,0.773,-0.034
32.16,-0.385,0.343,-0.138
32.17,-0.144,2.0,0.161
32.18,-0.03,0.609,0.085
32.19,-0.073,1.052,-0.068
32.2,-0.249,0.271,-0.191
32.21,-0.078,1.879,0.166
32.22,-0.134,0.953,0.051
32.23,0.041,0.647,-0.065
32.24,-0.469,0.815,-0.191
32.25,0.051,1.427,0.149
32.26,-0.33,1.401,0.042
32.27,-0.005,0.441,-0.086
32.28,-0.43,0.789,-0.171
32.29,-0.101,1.234,0.183
32.3,-0.244,1.219,0.043
32.31,-0.192,0.772,-0.09
32.32,-0.399,0.334,-0.041
32.33,-0.173,1.412,0.222
32.34,-0.193,0.836,0.059
32.35,-0.313,1.114,-0.092
32.36,-0.301,0.324,-0.064
32.37,-0.098,1.186,0.138
32.38,-0.277,1.089,-0.04
32.39,-0.133,0.672,-0.123
32.4,-0.297,1.23,-0.089
32.41,0.025,0.707,0.132
32.42,-0.297,1.259,-0.068
32.43,-0.208,0.451,-0.166
32.44,-0.288,1.762,-0.058
32.45,-0.021,0.727,0.16
32.46,-0.288,0.941,-0.013
32.47,-0.364,0.731,-0.14
32.48,-0.28,1.429,0.032
32.49,-0.187,0.984,0.18
32.5,-0.082,0.592,0.014
32.51,-0.414,0.93,-0.19
32.52,-0.14,1.418,0.08
32.53,-0.133,0.94,0.073
32.54,-0.158,0.671,0.013
32.55,-0.38,0.538,-0.228
32.56,-0.082,1.882,0.061
32.57,0.06,0.72,0.117
32.58,-0.148,0.901,-0.008
32.59,-0.411,0.228,-0.201
32.6,-0.128,2.0,0.086
32.61,-0.133,0.639,0.115
32.62,-0.12,0.789,-0.014
32.63,-0.487,0.574,-0.19
32.64,-0.041,1.71,0.145
32.65,-0.138,1.096,0.093
32.66,0.009,0.371,-0.035
32.67,-0.526,0.954,-0.153
32.68,-0.118,1.292,0.153
32.69,-0.262,1.337,0.057
32.7,-0.009,0.454,-0.07
32.71,-0.399,0.813,-0.157
32.72,-0.08,1.382,0.099
32.73,-0.16,1.125,0.058
32.74,-0.171,0.828,-0.102
32.75,-0.401,0.302,-0.07
32.76,-0.182,1.578,0.221
32.77,-0.253,0.911,0.043
32.78,-0.232,0.931,-0.048
32.79,-0.37,0.461,-0.017
32.8,-0.087,1.235,0.209
32.81,-0.251,0.971,0.018
32.82,-0.281,0.765,-0.148
32.83,-0.344,0.939,-0.026
32.84,0.003,0.828,0.206
32.85,-0.271,1.366,0.024
32.86,-0.219,0.409,-0.184
32.87,-0.348,1.182,-0.064
32.88,0.043,0.814,0.152
32.89,-0.273,1.089,-0.018
32.9,-0.218,0.671,-0.149
32.91,-0.239,1.316,-0.128
32.92,0.064,1.138,0.106
32.93,-0.157,0.592,-0.026
32.94,-0.387,1.047,-0.198
32.95,-0.3,0.956,0.03
32.96,-0.154,0.976,0.174
32.97,-0.164,0.941,0.015
32.98,-0.298,0.668,-0.21
32.99,-0.212,1.774,-0.026
33.0,-0.084,0.506,0.116
33.01,-0.237,1.121,0.024
33.02,-0.319,0.236,-0.164
33.03,-0.283,1.992,0.074
33.04,-0.102,0.696,0.176
33.05,-0.129,0.791,0.048
33.06,-0.499,0.596,-0.218
33.07,-0.103,1.691,0.077
33.08,-0.181,0.96,0.083
33.09,0.045,0.478,0.005
33.1,-0.6,0.935,-0.181
33.11,0.096,1.551,0.09
33.12,-0.18,1.076,0.118
33.13,0.041,0.512,-0.013
33.14,-0.517,0.621,-0.145
33.15,-0.092,1.881,0.104
33.16,-0.121,0.634,0.163
33.17,-0.037,0.956,-0.008
33.18,-0.57,0.287,-0.142
33.19,-0.159,2.0,0.207
33.2,-0.152,0.68,0.132
33.21,-0.051,0.818,-0.049
33.22,-0.383,0.571,-0.213
33.23,-0.071,1.649,0.084
33.24,-0.214,1.174,0.09
33.25,0.052,0.479,-0.045
33.26,-0.515,0.934,-0.134
33.27,0.014,1.401,0.153
33.28,-0.308,1.286,0.09
33.29,-0.056,0.542,-0.035
33.3,-0.476,0.629,-0.14
33.31,-0.067,1.627,0.132
33.32,-0.126,0.914,0.05
33.33,-0.115,0.968,-0.102
33.34,-0.333,0.17,-0.117
33.35,-0.175,1.64,0.157
33.36,-0.204,0.941,0.035
33.37,-0.207,0.86,-0.088
33.38,-0.31,0.487,-0.118
33.39,-0.117,1.23,0.219
33.4,-0.223,1.311,-0.0
33.41,-0.201,0.5,-0.109
33.42,-0.392,0.893,-0.07
33.43,-0.02,0.892,0.267
33.44,-0.315,1.463,-0.013
33.45,-0.146,0.49,-0.107
33.46,-0.36,0.892,-0.024
33.47,-0.03,1.039,0.203
33.48,-0.206,1.033,-0.073
33.49,-0.262,0.775,-0.2
33.5,-0.217,1.259,-0.075
33.51,-0.082,1.06,0.152
33.52,-0.083,0.616,0.009
33.53,-0.49,1.0,-0.167
33.54,-0.255,1.276,0.032
33.55,-0.217,0.922,0.156
33.56,-0.156,0.818,0.023
33.57,-0.337,0.732,-0.168
33.58,-0.29,1.741,0.046
33.59,-0.008,0.603,0.178
33.6,-0.169,1.031,0.049
33.61,-0.357,0.291,-0.226
33.62,-0.309,2.0,0.028
33.63,-0.096,0.605,0.126
33.64,-0.107,0.893,-0.008
33.65,-0.464,0.509,-0.264
33.66,-0.061,1.76,0.057
33.67,-0.209,1.034,0.11
33.68,0.094,0.379,-0.008
33.69,-0.465,0.909,-0.224
33.7,0.039,1.596,0.006
33.71,-0.206,1.093,0.108
33.72,0.04,0.515,0.042
33.73,-0.622,0.609,-0.202
33.74,-0.026,1.949,0.065
33.75,-0.216,0.682,0.093
33.76,-0.103,0.864,-0.006
33.77,-0.429,0.218,-0.157
33.78,-0.119,2.0,0.168
33.79,-0.081,0.638,0.114
33.8,-0.084,0.75,-0.066
33.81,-0.478,0.491,-0.197
33.82,-0.077,1.772,0.154
33.83,-0.168,1.043,0.135
33.84,0.099,0.458,-0.044
33.85,-0.55,0.969,-0.148
33.86,0.051,1.537,0.163
33.87,-0.222,1.193,0.051
33.88,0.106,0.573,-0.013
33.89,-0.523,0.707,-0.119
33.9,-0.057,1.768,0.166
33.91,-0.116,0.846,0.07
33.92,-0.031,0.923,-0.048
33.93,-0.407,0.252,-0.149
33.94,-0.232,1.771,0.206
33.95,-0.143,0.801,0.112
33.96,-0.155,0.933,-0.078
33.97,-0.366,0.424,-0.171
33.98,-0.17,1.567,0.15
33.99,-0.177,1.245,0.056
34.0,-0.031,0.494,-0.076
34.01,-0.427,0.899,-0.134
34.02,-0.067,1.173,0.192
34.03,-0.246,1.448,0.034
34.04,-0.009,0.493,-0.095
34.05,-0.394,0.703,-0.13
34.06,-0.094,1.274,0.152
34.07,-0.156,1.083,0.009
34.08,-0.189,0.914,-0.098
34.09,-0.357,0.281,-0.062
34.1,-0.273,1.444,0.25
34.11,-0.165,0.853,0.038
34.12,-0.281,0.955,-0.089
34.13,-0.368,0.537,-0.092
34.14,-0.079,1.122,0.213
34.15,-0.271,1.179,-0.023
34.16,-0.128,0.583,-0.14
34.17,-0.349,0.277,-0.232
34.18,-0.319,1.976,0.11
34.19,-0.067,0.607,0.152
34.2,-0.146,0.862,0.049
34.21,-0.396,0.53,-0.229
34.22,-0.106,1.915,0.108
34.23,-0.112,0.896,0.152
34.24,-0.0,0.571,-0.005
34.25,-0.551,0.796,-0.192
34.26,0.057,1.601,0.126
34.27,-0.342,1.05,0.149
34.28,0.081,0.39,-0.003
34.29,-0.584,0.915,-0.221
34.3,0.058,1.659,0.139
34.31,-0.175,0.912,0.105
34.32,0.05,0.678,-0.041
34.33,-0.485,0.482,-0.138
34.34,-0.135,1.952,0.108
34.35,-0.027,0.649,0.094
34.36,-0.094,1.026,-0.057
34.37,-0.379,0.276,-0.15
34.38,-0.105,1.973,0.192
34.39,-0.109,0.792,0.075
34.4,-0.041,0.642,-0.034
34.41,-0.498,0.789,-0.197
34.42,-0.026,1.522,0.138
34.43,-0.209,1.256,0.112
34.44,0.02,0.441,-0.023
34.45,-0.424,0.926,-0.152
34.46,-0.045,1.465,0.115
34.47,-0.188,1.185,0.067
34.48,-0.007,0.748,-0.115
34.49,-0.364,0.415,-0.153
34.5,-0.135,1.716,0.156
34.51,-0.074,0.784,0.055
34.52,-0.128,1.003,-0.139
34.53,-0.317,0.22,-0.164
34.54,-0.116,1.626,0.104
34.55,-0.204,0.957,-0.012
34.56,-0.085,0.776,-0.119
34.57,-0.402,0.646,-0.176
34.58,-0.04,1.086,0.177
34.59,-0.337,1.466,0.066
34.6,-0.102,0.386,-0.069
34.61,-0.462,0.892,-0.059
34.62,-0.12,1.0,0.24
34.63,-0.366,1.39,0.072
34.64,-0.16,0.655,-0.077
34.65,-0.361,0.484,-0.054
34.66,-0.178,1.414,0.297
34.67,-0.155,0.968,0.058
34.68,-0.278,1.017,-0.083
34.69,-0.271,0.247,-0.048
34.7,-0.147,1.315,0.208
34.71,-0.166,1.042,-0.015
34.72,-0.168,0.681,-0.167
34.73,-0.243,1.139,-0.124
34.74,0.008,0.841,0.144
34.75,-0.304,1.216,-0.043
34.76,-0.194,0.367,-0.159
34.77,-0.458,1.096,-0.048
34.78,0.097,0.763,0.139
34.79,-0.264,1.288,-0.027
34.8,-0.298,0.56,-0.151
34.81,-0.298,1.127,-0.029
34.82,-0.172,0.973,0.186
34.83,-0.165,0.743,0.007
34.84,-0.367,0.996,-0.148
34.85,-0.21,1.261,-0.029
34.86,-0.128,1.087,0.173
34.87,-0.168,0.599,0.037
34.88,-0.474,0.796,-0.151
34.89,-0.297,1.685,0.03
34.9,-0.177,0.649,0.159
34.91,-0.203,1.083,0.04
34.92,-0.364,0.268,-0.254
34.93,-0.303,1.957,0.068
34.94,-0.115,0.5,0.114
34.95,-0.198,0.99,0.015
34.96,-0.359,0.418,-0.223
34.97,-0.152,1.809,0.043
34.98,-0.025,0.963,0.125
34.99,0.032,0.503,-0.022
35.0,-0.523,0.864,-0.236
35.01,0.006,1.561,0.025
35.02,-0.212,1.132,0.093
35.03,0.048,0.425,0.006
35.04,-0.558,0.944,-0.226
35.05,0.046,1.552,0.156
35.06,-0.163,0.992,0.046
35.07,-0.01,0.643,-0.003
35.08,-0.507,0.514,-0.135
35.09,-0.127,1.95,0.131
35.1,-0.047,0.658,0.091
35.11,-0.051,1.036,-0.038
35.12,-0.402,0.243,-0.136
35.13,-0.165,1.912,0.189
35.14,-0.151,0.815,0.099
35.15,-0.024,0.804,-0.062
35.16,-0.496,0.669,-0.173
35.17,0.008,1.531,0.193
35.18,-0.29,1.295,0.083
35.19,0.048,0.4,-0.026
35.2,-0.483,0.896,-0.164
35.21,-0.03,1.231,0.129
35.22,-0.294,1.26,0.048
35.23,-0.092,0.651,-0.093
35.24,-0.481,0.502,-0.119
35.25,-0.036,1.549,0.166
35.26,-0.243,0.945,0.077
35.27,-0.156,0.997,-0.12
35.28,-0.438,0.233,-0.103
35.29,-0.146,1.565,0.2
35.3,-0.258,0.989,0.04
35.31,-0.183,0.801,-0.113
35.32,-0.408,0.625,-0.092
35.33,-0.044,1.055,0.217
35.34,-0.318,1.433,-0.006
35.35,-0.095,0.431,-0.126
35.36,-0.484,0.948,-0.074
35.37,-0.025,0.904,0.223
35.38,-0.296,1.392,-0.002
35.39,-0.154,0.611,-0.171
35.4,-0.35,0.818,-0.049
35.41,-0.09,1.041,0.209
35.42,-0.202,0.85,0.029
35.43,-0.316,1.011,-0.143
35.44,-0.232,0.709,-0.029
35.45,-0.092,1.215,0.177
35.46,-0.181,0.744,0.031
35.47,-0.313,0.881,-0.146
35.48,-0.28,1.056,-0.074
35.49,-0.066,0.856,0.136
35.5,-0.284,1.161,-0.019
35.51,-0.123,0.421,-0.14
35.52,-0.373,1.816,-0.044
35.53,0.029,0.58,0.141
35.54,-0.222,1.18,-0.04
35.55,-0.345,0.534,-0.185
35.56,-0.285,1.614,-0.048
35.57,-0.098,0.89,0.13
35.58,-0.127,0.701,0.024
35.59,-0.431,0.963,-0.221
35.6,-0.191,1.302,0.011
35.61,-0.183,0.999,0.108
35.62,-0.079,0.635,0.048
35.63,-0.425,0.789,-0.164
35.64,-0.175,1.652,0.054
35.65,-0.025,0.87,0.172
35.66,-0.168,0.827,0.041
35.67,-0.412,0.378,-0.204
35.68,-0.307,2.0,0.06
35.69,-0.038,0.523,0.113
35.7,-0.234,1.049,0.031
35.71,-0.386,0.344,-0.258
35.72,-0.167,1.936,0.029
35.73,-0.139,0.797,0.059
35.74,-0.062,0.542,0.02
35.75,-0.452,0.774,-0.246
35.76,-0.016,1.5,0.015
35.77,0.036,1.202,0.103
35.78,0.106,0.423,-0.014
35.79,-0.487,0.826,-0.292
35.8,0.007,1.781,0.041
35.81,-0.202,1.056,0.068
35.82,0.044,0.852,-0.013
35.83,-0.575,0.682,-0.236
35.84,0.042,1.863,0.145
35.85,-0.118,0.706,0.059
35.86,-0.009,0.875,-0.045
35.87,-0.382,0.269,-0.161
35.88,-0.236,1.925,0.123
35.89,-0.107,0.727,0.1
35.9,-0.119,0.906,-0.032
35.91,-0.43,0.552,-0.137
35.92,-0.061,1.677,0.244
35.93,-0.118,1.142,0.105
35.94,-0.068,0.436,-0.01
35.95,-0.464,1.002,-0.156
35.96,-0.023,1.476,0.193
35.97,-0.153,1.265,0.085
35.98,-0.035,0.521,-0.048
35.99,-0.387,0.635,-0.138
36.0,-0.11,1.547,0.104
36.01,-0.083,0.894,0.077
36.02,-0.208,0.936,-0.106
36.03,-0.318,0.228,-0.134
36.04,-0.163,1.728,0.192
36.05,-0.143,0.802,0.067
36.06,-0.14,0.909,-0.128
36.07,-0.332,0.5,-0.203
36.08,-0.113,1.438,0.167
36.09,-0.252,1.329,0.025
36.1,-0.089,0.368,-0.061
36.11,-0.425,0.941,-0.158
36.12,-0.057,0.966,0.195
36.13,-0.213,1.376,-0.031
36.14,-0.157,0.594,-0.168
36.15,-0.38,0.658,-0.112
36.16,-0.079,1.219,0.172
36.17,-0.133,1.016,0.024
36.18,-0.263,0.914,-0.127
36.19,-0.384,0.265,-0.105
36.2,-0.163,1.455,0.226
36.21,-0.163,0.861,-0.019
36.22,-0.21,0.887,-0.115
36.23,-0.384,0.607,-0.091
36.24,-0.065,1.114,0.255
36.25,-0.281,1.157,0.039
36.26,-0.185,0.557,-0.099
36.27,-0.403,1.0,-0.041
36.28,0.021,0.825,0.241
36.29,-0.248,1.427,0.016
36.3,-0.162,0.458,-0.131
36.31,-0.337,0.935,-0.082
36.32,0.013,1.012,0.168
36.33,-0.099,0.956,-0.004
36.34,-0.29,0.974,-0.163
36.35,-0.264,0.698,-0.045
36.36,-0.073,1.169,0.16
36.37,-0.087,0.737,-0.017
36.38,-0.345,0.886,-0.137
36.39,-0.201,1.024,-0.099
36.4,-0.124,0.958,0.168
36.41,-0.155,1.025,-0.051
36.42,-0.223,0.538,-0.161
36.43,-0.388,1.699,-0.099
36.44,0.077,0.612,0.127
36.45,-0.249,1.271,-0.011
36.46,-0.249,0.371,-0.204
36.47,-0.307,1.69,-0.081
36.48,-0.114,0.78,0.165
36.49,-0.183,0.869,0.015
36.5,-0.318,0.824,-0.158
36.51,-0.312,1.34,-0.029
36.52,-0.162,1.041,0.146
36.53,-0.074,0.571,0.027
36.54,-0.442,0.977,-0.18
36.55,-0.238,1.414,-0.002
36.56,-0.199,0.792,0.105
36.57,-0.157,0.908,0.02
36.58,-0.365,0.495,-0.22
36.59,-0.28,1.941,-0.0
36.6,-0.156,0.528,0.136
36.61,-0.193,1.103,0.041
36.62,-0.272,0.329,-0.201
36.63,-0.175,2.0,0.122
36.64,0.013,0.664,0.121
36.65,-0.067,0.891,0.014
36.66,-0.392,0.375,-0.255
36.67,-0.058,1.886,0.065
36.68,-0.192,0.913,0.051
36.69,0.033,0.498,0.01
36.7,-0.593,0.871,-0.23
36.71,-0.036,1.563,0.089
36.72,-0.328,0.962,0.068
36.73,0.032,0.528,0.06
36.74,-0.58,0.76,-0.175
36.75,0.02,1.699,0.094
36.76,-0.064,0.787,0.096
36.77,0.006,0.864,-0.02
36.78,-0.414,0.315,-0.209
36.79,-0.124,2.0,0.136
36.8,-0.139,0.558,0.126
36.81,-0.115,0.928,-0.008
36.82,-0.43,0.434,-0.219
36.83,-0.092,1.879,0.153
36.84,-0.133,0.909,0.085
36.85,-0.04,0.419,-0.027
36.86,-0.551,0.945,-0.187
36.87,-0.06,1.501,0.193
36.88,-0.183,1.252,0.127
36.89,0.067,0.444,-0.016
36.9,-0.458,0.836,-0.209
36.91,-0.033,1.656,0.126
36.92,-0.168,0.962,0.12
36.93,-0.053,0.889,-0.056
36.94,-0.425,0.343,-0.116
36.95,-0.076,2.0,0.233
36.96,-0.078,0.697,0.101
36.97,-0.143,0.948,-0.015
36.98,-0.287,0.359,-0.164
36.99,-0.054,1.807,0.088
37.0,-0.074,1.018,-0.002
37.01,0.037,0.522,-0.125
37.02,-0.388,0.854,-0.2
37.03,-0.032,1.334,0.173
37.04,-0.281,1.349,0.066
37.05,0.023,0.449,-0.061
37.06,-0.489,0.836,-0.165
37.07,-0.029,1.517,0.149
37.08,-0.237,1.094,0.063
37.09,-0.095,0.854,-0.091
37.1,-0.303,0.272,-0.163
37.11,-0.119,1.757,0.157
37.12,-0.111,0.848,0.063
37.13,-0.136,0.984,-0.088
37.14,-0.353,0.319,-0.125
37.15,-0.143,1.451,0.227
37.16,-0.189,1.117,-0.007
37.17,-0.15,0.6,-0.142
37.18,-0.351,0.794,-0.099
37.19,-0.019,1.047,0.234
37.2,-0.351,1.487,0.018
37.21,-0.037,0.386,-0.123
37.22,-0.488,0.893,-0.096
37.23,0.064,0.973,0.211
37.24,-0.279,1.154,-0.015
37.25,-0.216,0.772,-0.131
37.26,-0.38,0.504,-0.024
37.27,-0.135,1.323,0.212
37.28,-0.222,0.783,0.075
37.29,-0.325,1.005,-0.081
37.3,-0.464,0.359,0.003
37.31,-0.051,1.222,0.217
37.32,-0.235,1.148,0.023
37.33,-0.209,0.593,-0.109
37.34,-0.34,1.213,-0.064
37.35,-0.017,0.736,0.194
37.36,-0.263,1.311,0.007
37.37,-0.166,0.39,-0.15
37.38,-0.347,1.456,-0.066
37.39,-0.015,0.748,0.194
37.4,-0.256,1.052,0.006
37.41,-0.315,0.633,-0.153
37.42,-0.247,1.017,-0.065
37.43,-0.127,1.099,0.129
37.44,-0.182,0.777,0.023
37.45,-0.362,0.85,-0.163
37.46,-0.217,1.403,0.077
37.47,-0.037,1.094,0.173
37.48,-0.046,0.525,0.032
37.49,-0.458,0.91,-0.227
37.5,-0.116,1.602,0.028
37.51,-0.057,0.833,0.08
37.52,-0.039,0.869,0.014
37.53,-0.372,0.366,-0.255
37.54,-0.197,2.0,0.077
37.55,-0.115,0.566,0.088
37.56,-0.189,0.972,0.012
37.57,-0.37,0.278,-0.261
37.58,-0.099,1.909,0.092
37.59,-0.036,0.872,0.137
37.6,0.009,0.537,-0.031
37.61,-0.501,0.817,-0.245
37.62,0.013,1.522,0.074
37.63,-0.169,1.126,0.087
37.64,0.11,0.488,-0.02
37.65,-0.527,0.919,-0.253
37.66,0.049,1.693,0.111
37.67,-0.138,0.891,0.072
37.68,-0.055,0.714,-0.012
37.69,-0.479,0.371,-0.183
37.7,-0.115,2.0,0.122
37.71,-0.043,0.571,0.131
37.72,-0.064,0.972,-0.004
37.73,-0.525,0.31,-0.148
37.74,-0.198,1.932,0.175
37.75,-0.186,0.9,0.163
37.76,-0.036,0.656,0.002
37.77,-0.421,0.834,-0.189
37.78,-0.057,1.582,0.268
37.79,-0.187,1.227,0.084
37.8,0.061,0.395,-0.028
37.81,-0.489,0.96,-0.173
37.82,-0.048,1.518,0.172
37.83,-0.2,1.082,0.076
37.84,0.016,0.748,-0.03
37.85,-0.406,0.462,-0.157
37.86,-0.091,1.904,0.168
37.87,-0.118,0.786,0.076
37.88,-0.162,1.007,-0.062
37.89,-0.289,0.279,-0.179
37.9,-0.114,1.869,0.111
37.91,-0.086,0.908,0.048
37.92,-0.061,0.745,-0.059
37.93,-0.477,0.704,-0.123
37.94,-0.058,1.31,0.224
37.95,-0.294,1.445,0.121
37.96,-0.035,0.367,-0.095
37.97,-0.51,0.923,-0.152
37.98,-0.031,1.249,0.198
37.99,-0.293,1.302,0.059
38.0,-0.029,0.737,-0.128
38.01,-0.404,0.489,-0.068
38.02,-0.216,1.458,0.265
38.03,-0.125,0.98,0.072
38.04,-0.215,0.957,-0.127
38.05,-0.357,0.283,-0.028
38.06,-0.154,1.39,0.141
38.07,-0.314,0.998,0.032
38.08,-0.218,0.823,-0.123
38.09,-0.461,0.704,-0.072
38.1,0.015,0.946,0.264
38.11,-0.328,1.415,0.076
38.12,-0.168,0.441,-0.159
38.13,-0.435,1.099,-0.03
38.14,0.027,0.809,0.185
38.15,-0.25,1.289,0.011
38.16,-0.173,0.601,-0.157
38.17,-0.37,0.904,-0.082
38.18,-0.048,1.117,0.158
38.19,-0.149,0.719,-0.007
38.2,-0.267,1.0,-0.169
38.21,-0.24,1.035,-0.059
38.22,-0.092,1.096,0.172
38.23,-0.132,0.782,-0.057
38.24,-0.392,0.925,-0.156
38.25,-0.238,1.423,-0.032
38.26,-0.208,0.809,0.111
38.27,-0.133,0.911,-0.039
38.28,-0.305,0.434,-0.207
38.29,-0.265,1.903,0.003
38.3,-0.131,0.501,0.134
38.31,-0.219,1.134,0.022
38.32,-0.277,0.314,-0.195
38.33,-0.191,1.905,0.058
38.34,0.049,0.833,0.141
38.35,-0.083,0.632,-0.03
38.36,-0.488,0.689,-0.241
38.37,-0.016,1.657,0.061
38.38,-0.162,1.137,0.109
38.39,0.026,0.405,-0.026
38.4,-0.565,0.939,-0.233
38.41,-0.117,1.635,0.127
38.42,-0.265,0.92,0.116
38.43,-0.036,0.659,0.036
38.44,-0.511,0.527,-0.153
38.45,-0.139,1.908,0.083
38.46,-0.032,0.679,0.158
38.47,-0.074,0.973,0.025
38.48,-0.405,0.239,-0.155
38.49,-0.129,2.0,0.138
38.5,-0.067,0.78,0.082
38.51,-0.046,0.8,-0.006
38.52,-0.462,0.662,-0.211
38.53,-0.008,1.667,0.206
38.54,-0.199,1.104,0.069
38.55,0.059,0.356,-0.051
38.56,-0.548,0.995,-0.194
38.57,-0.036,1.478,0.144
38.58,-0.239,1.186,0.069
38.59,0.063,0.645,-0.012
38.6,-0.511,0.557,-0.12
38.61,-0.069,1.757,0.158
38.62,-0.148,0.836,0.098
38.63,-0.187,1.076,-0.07
38.64,-0.375,0.201,-0.159
38.65,-0.047,1.954,0.154
38.66,-0.123,0.825,0.008
38.67,-0.028,0.783,-0.045
38.68,-0.391,0.603,-0.2
38.69,-0.038,1.278,0.178
38.7,-0.343,1.335,0.018
38.71,-0.01,0.427,-0.093
38.72,-0.432,0.911,-0.121
38.73,0.027,1.131,0.228
38.74,-0.283,1.331,0.059
38.75,-0.187,0.685,-0.146
38.76,-0.458,0.549,-0.066
38.77,-0.139,1.405,0.242
38.78,-0.196,1.049,0.067
38.79,-0.291,0.889,-0.07
38.8,-0.374,0.282,-0.072
38.81,-0.147,1.421,0.177
38.82,-0.157,0.856,-0.001
38.83,-0.28,0.841,-0.149
38.84,-0.278,0.825,-0.104
38.85,-0.01,1.015,0.183
38.86,-0.197,1.143,-0.014
38.87,-0.249,0.496,-0.154
38.88,-0.365,1.097,-0.088
38.89,0.008,0.837,0.203
38.9,-0.259,1.33,0.051
38.91,-0.267,0.524,-0.109
38.92,-0.366,0.967,-0.054
38.93,-0.009,0.99,0.163
38.94,-0.149,0.922,-0.02
38.95,-0.348,0.923,-0.143
38.96,-0.205,0.877,-0.071
38.97,-0.104,1.198,0.165
38.98,-0.073,0.715,0.028
38.99,-0.43,0.97,-0.159
39.0,-0.329,0.968,-0.07
39.01,-0.004,0.864,0.14
39.02,-0.239,1.176,-0.05
39.03,-0.183,0.433,-0.181
39.04,-0.378,1.849,-0.053
39.05,-0.065,0.552,0.15
39.06,-0.254,1.063,0.061
39.07,-0.281,0.284,-0.16
39.08,-0.377,1.968,0.079
39.09,-0.071,0.64,0.162
39.1,-0.153,0.875,0.003
39.11,-0.395,0.584,-0.26
39.12,-0.243,1.648,0.04
39.13,-0.215,0.903,0.092
39.14,-0.056,0.523,0.035
39.15,-0.388,0.854,-0.229
39.16,-0.051,1.433,0.075
39.17,-0.118,1.128,0.152
39.18,-0.026,0.513,0.02
39.19,-0.466,0.581,-0.184
39.2,-0.09,1.864,0.079
39.21,-0.156,0.614,0.087
39.22,-0.126,0.968,0.027
39.23,-0.405,0.251,-0.228
39.24,-0.177,2.0,0.133
39.25,-0.128,0.536,0.113
39.26,-0.161,0.792,0.009
39.27,-0.473,0.516,-0.212
39.28,-0.071,1.684,0.083
39.29,-0.102,1.102,0.097
39.3,-0.006,0.388,-0.02
39.31,-0.458,0.933,-0.184
39.32,0.01,1.564,0.1
39.33,-0.119,1.105,0.091
39.34,0.049,0.513,-0.054
39.35,-0.49,0.729,-0.232
39.36,-0.038,1.803,0.137
39.37,-0.081,0.764,0.104
39.38,-0.035,0.965,-0.008
39.39,-0.408,0.292,-0.161
39.4,-0.198,1.917,0.13
39.41,-0.131,0.753,0.105
39.42,-0.111,0.972,-0.018
39.43,-0.376,0.466,-0.186
39.44,-0.095,1.756,0.231
39.45,-0.17,1.066,0.063
39.46,0.029,0.531,-0.02
39.47,-0.495,0.94,-0.187
39.48,-0.053,1.334,0.124
39.49,-0.276,1.364,0.041
39.5,0.05,0.437,-0.048
39.51,-0.353,0.722,-0.166
39.52,-0.042,1.408,0.11
39.53,-0.133,1.002,0.044
39.54,-0.241,1.054,-0.102
39.55,-0.221,0.284,-0.14
39.56,-0.113,1.934,0.154
39.57,-0.001,0.721,0.062
39.58,-0.126,0.981,-0.081
39.59,-0.473,0.402,-0.124
39.6,-0.14,1.397,0.253
39.61,-0.296,1.338,0.023
39.62,-0.069,0.339,-0.071
39.63,-0.318,0.902,-0.15
39.64,-0.015,1.019,0.149
39.65,-0.322,1.298,0.034
39.66,-0.161,0.676,-0.154
39.67,-0.431,0.745,-0.053
39.68,-0.096,1.369,0.275
39.69,-0.177,1.118,0.141
39.7,-0.213,0.82,-0.153
39.71,-0.412,0.352,-0.061
39.72,-0.157,1.469,0.167
39.73,-0.228,0.856,-0.0
39.74,-0.195,1.001,-0.062
39.75,-0.323,0.752,-0.076
39.76,-0.074,1.153,0.209
39.77,-0.209,0.916,0.052
39.78,-0.306,0.72,-0.156
39.79,-0.411,0.926,-0.019
39.8,-0.088,0.823,0.272
39.81,-0.27,1.483,0.059
39.82,-0.225,0.332,-0.078
39.83,-0.372,1.178,-0.061
39.84,-0.033,0.853,0.184
39.85,-0.222,1.158,-0.036
39.86,-0.26,0.545,-0.202
39.87,-0.208,1.618,-0.075
39.88,-0.133,1.001,0.126
39.89,-0.042,0.576,0.013
39.9,-0.526,0.939,-0.172
39.91,-0.301,1.017,0.037
39.92,-0.344,1.041,0.176
39.93,-0.139,0.768,0.004
39.94,-0.363,0.774,-0.145
39.95,-0.277,1.635,-0.02
39.96,-0.118,0.658,0.122
39.97,-0.174,1.056,0.024
39.98,-0.302,0.41,-0.162
39.99,-0.389,1.954,0.044
40.0,-0.042,0.615,0.182
40.01,-0.201,0.987,0.028
40.02,-0.478,0.435,-0.205
40.03,-0.254,1.824,-0.007
40.04,-0.198,0.807,0.093
40.05,-0.043,0.608,0.018
40.06,-0.5,0.872,-0.173
40.07,-0.154,1.416,0.057
40.08,-0.203,1.092,0.177
40.09,-0.021,0.507,0.071
40.1,-0.522,0.843,-0.163
40.11,-0.213,1.689,0.056
40.12,-0.212,0.728,0.159
40.13,-0.106,0.918,0.032
40.14,-0.434,0.324,-0.205
40.15,-0.264,2.0,0.073
40.16,-0.104,0.622,0.158
40.17,-0.156,0.922,0.025
40.18,-0.417,0.366,-0.179
40.19,-0.142,1.889,0.057
40.2,-0.116,0.871,0.114
40.21,0.064,0.569,-0.018
40.22,-0.537,0.843,-0.254
40.23,0.016,1.545,0.064
40.24,-0.257,1.084,0.117
40.25,0.021,0.468,0.041
40.26,-0.525,0.824,-0.228
40.27,-0.021,1.714,0.086
40.28,-0.168,0.767,0.069
40.29,0.045,0.792,-0.04
40.3,-0.371,0.369,-0.264
40.31,-0.129,1.919,0.103
40.32,-0.003,0.57,0.116
40.33,-0.096,0.972,0.005
40.34,-0.408,0.299,-0.209
40.35,-0.111,1.97,0.052
40.36,-0.169,0.809,0.118
40.37,0.011,0.564,-0.017
40.38,-0.596,0.816,-0.229
40.39,0.023,1.606,0.132
40.4,-0.242,1.113,0.128
40.41,0.097,0.378,-0.014
40.42,-0.535,0.956,-0.2
40.43,0.025,1.589,0.076
40.44,-0.113,0.89,0.083
40.45,0.027,0.774,-0.05
40.46,-0.428,0.447,-0.173
40.47,-0.042,2.0,0.122
40.48,-0.1,0.54,0.086
40.49,-0.07,0.965,-0.027
40.5,-0.434,0.308,-0.208
40.51,-0.068,1.984,0.135
40.52,-0.111,0.752,0.115
40.53,-0.036,0.596,-0.027
40.54,-0.473,0.793,-0.208
40.55,-0.034,1.565,0.123
40.56,-0.219,1.11,0.1
40.57,0.086,0.401,-0.052
40.58,-0.512,0.974,-0.214
40.59,0.021,1.505,0.111
40.6,-0.101,1.038,0.041
40.61,0.028,0.682,-0.058
40.62,-0.448,0.512,-0.14
40.63,-0.137,1.869,0.143
40.64,-0.043,0.684,0.139
40.65,-0.155,1.02,-0.038
40.66,-0.354,0.272,-0.13
40.67,-0.084,1.979,0.135
40.68,0.02,0.687,0.08
40.69,-0.063,0.87,-0.119
40.7,-0.382,0.487,-0.187
40.71,-0.13,1.523,0.16
40.72,-0.301,1.176,0.047
40.73,0.066,0.514,-0.082
40.74,-0.523,0.906,-0.137
40.75,0.031,1.232,0.211
40.76,-0.32,1.317,0.066
40.77,-0.029,0.528,-0.064
40.78,-0.501,0.75,-0.151
40.79,-0.008,1.629,0.184
40.8,-0.105,1.025,0.075
40.81,-0.12,0.819,-0.104
40.82,-0.329,0.31,-0.194
40.83,-0.185,1.708,0.16
40.84,-0.171,0.833,0.095
40.85,-0.167,0.934,-0.08
40.86,-0.322,0.371,-0.22
40.87,-0.05,1.484,0.178
40.88,-0.232,1.13,0.05
40.89,-0.06,0.604,-0.127
40.9,-0.45,0.862,-0.153
40.91,0.017,1.248,0.232
40.92,-0.28,1.422,0.078
40.93,-0.041,0.447,-0.072
40.94,-0.5,0.811,-0.151
40.95,-0.106,1.258,0.178
40.96,-0.222,1.177,0.045
40.97,-0.198,0.817,-0.044
40.98,-0.39,0.309,-0.082
40.99,-0.176,1.53,0.235
41.0,-0.113,0.822,0.112
41.01,-0.374,1.03,-0.124
41.02,-0.372,0.319,-0.1
41.03,-0.206,1.417,0.209
41.04,-0.25,1.156,0.071
41.05,-0.125,0.542,-0.087
41.06,-0.542,0.912,-0.123
41.07,0.031,0.927,0.182
41.08,-0.316,1.423,-0.011
41.09,-0.111,0.401,-0.1
41.1,-0.503,0.869,-0.096
41.11,-0.051,1.072,0.217
41.12,-0.17,1.202,0.048
41.13,-0.264,0.92,-0.168
41.14,-0.347,0.327,-0.073
41.15,-0.223,1.484,0.294
41.16,-0.106,0.979,0.064
41.17,-0.263,0.86,-0.085
41.18,-0.274,0.74,-0.105
41.19,-0.063,1.287,0.182
41.2,-0.236,0.718,0.044
41.21,-0.277,0.959,-0.124
41.22,-0.333,0.981,-0.112
41.23,0.045,0.966,0.144
41.24,-0.209,1.119,0.01
41.25,-0.248,0.498,-0.136
41.26,-0.505,1.162,-0.038
41.27,0.047,0.778,0.165
41.28,-0.3,1.327,0.02
41.29,-0.147,0.485,-0.129
41.3,-0.374,1.381,-0.097
41.31,0.033,0.97,0.17
41.32,-0.165,0.782,-0.008
41.33,-0.293,0.97,-0.182
41.34,-0.242,1.012,-0.075
41.35,-0.11,1.209,0.167
41.36,-0.151,0.678,0.057
41.37,-0.367,0.916,-0.181
41.38,-0.28,1.137,-0.112
41.39,-0.049,0.855,0.122
41.4,-0.154,1.125,-0.007
41.41,-0.251,0.409,-0.168
41.42,-0.342,1.771,-0.113
41.43,0.022,0.644,0.149
41.44,-0.275,1.219,0.017
41.45,-0.225,0.41,-0.182
41.46,-0.342,1.942,-0.051
41.47,-0.085,0.593,0.078
41.48,-0.143,1.046,0.021
41.49,-0.311,0.583,-0.21
41.5,-0.293,1.549,-0.065
41.51,-0.13,0.94,0.116
41.52,-0.036,0.648,0.024
41.53,-0.505,0.956,-0.159
41.54,-0.167,1.343,-0.013
41.55,-0.255,0.942,0.104
41.56,-0.1,0.684,0.049
41.57,-0.425,0.704,-0.202
41.58,-0.288,1.756,-0.003
41.59,-0.138,0.542,0.098
41.6,-0.167,1.106,0.026
41.61,-0.324,0.294,-0.208
41.62,-0.321,1.932,0.027
41.63,-0.096,0.58,0.123
41.64,-0.221,0.879,0.044
41.65,-0.396,0.504,-0.193
41.66,-0.307,1.728,0.025
41.67,-0.154,0.922,0.164
41.68,-0.151,0.494,0.041
41.69,-0.516,0.896,-0.189
41.7,-0.283,1.407,0.058
41.71,-0.251,0.936,0.161
41.72,-0.063,0.641,0.049
41.73,-0.54,0.69,-0.18
41.74,-0.157,1.696,0.059
41.75,-0.195,0.727,0.14
41.76,-0.121,0.942,0.044
41.77,-0.376,0.274,-0.195
41.78,-0.348,2.0,0.131
41.79,-0.097,0.545,0.102
41.8,-0.091,0.968,0.002
41.81,-0.368,0.366,-0.275
41.82,-0.092,1.746,0.008
41.83,-0.113,0.961,0.053
41.84,0.032,0.469,-0.01
41.85,-0.429,0.842,-0.26
41.86,-0.068,1.491,0.057
41.87,-0.132,1.114,0.075
41.88,-0.042,0.446,0.04
41.89,-0.489,0.773,-0.14
41.9,-0.209,1.743,0.106
41.91,-0.26,0.63,0.079
41.92,-0.119,0.89,-0.002
41.93,-0.43,0.267,-0.18
41.94,-0.189,2.0,0.114
41.95,-0.095,0.534,0.118
41.96,-0.138,0.887,0.025
41.97,-0.371,0.365,-0.204
41.98,-0.142,1.897,0.099
41.99,-0.124,0.891,0.124
42.0,0.003,0.499,-0.036
42.01,-0.556,0.931,-0.215
42.02,-0.032,1.493,0.085
42.03,-0.229,1.072,0.108
42.04,0.082,0.486,0.001
42.05,-0.574,0.854,-0.191
42.06,-0.015,1.618,0.131
42.07,-0.08,0.954,0.118
42.08,0.012,0.765,-0.003
42.09,-0.402,0.334,-0.169
42.1,-0.125,1.998,0.117
42.11,-0.015,0.597,0.094
42.12,-0.119,0.952,-0.045
42.13,-0.462,0.384,-0.222
42.14,-0.109,1.894,0.173
42.15,-0.206,0.824,0.123
42.16,0.004,0.482,-0.04
42.17,-0.543,0.899,-0.156
42.18,-0.031,1.449,0.111
42.19,-0.205,1.231,0.125
42.2,0.091,0.431,-0.007
42.21,-0.536,0.868,-0.17
42.22,0.025,1.624,0.127
42.23,-0.11,0.95,0.094
42.24,-0.047,0.855,-0.043
42.25,-0.471,0.4,-0.174
42.26,-0.128,1.982,0.243
42.27,-0.114,0.806,0.081
42.28,-0.044,0.98,-0.029
42.29,-0.378,0.303,-0.209
42.3,-0.183,1.793,0.166
42.31,-0.19,0.842,0.1
42.32,-0.128,0.847,-0.08
42.33,-0.352,0.5,-0.214
42.34,-0.079,1.492,0.132
42.35,-0.24,1.258,0.073
42.36,-0.001,0.467,-0.044
42.37,-0.495,0.991,-0.183
42.38,0.063,1.416,0.187
42.39,-0.256,1.335,0.062
42.4,0.039,0.581,-0.074
42.41,-0.348,0.701,-0.189
42.42,-0.177,1.57,0.145
42.43,-0.159,0.991,0.092
42.44,-0.09,0.958,-0.102
42.45,-0.323,0.203,-0.149
42.46,-0.135,1.671,0.169
42.47,-0.162,0.876,0.083
42.48,-0.127,0.984,-0.121
42.49,-0.464,0.509,-0.155
42.5,-0.012,1.542,0.181
42.51,-0.229,1.294,0.035
42.52,-0.309,0.44,-0.197
42.53,-0.413,1.312,0.02
42.54,-0.14,0.695,0.176
42.55,-0.233,1.173,0.011
42.56,-0.244,0.506,-0.129
42.57,-0.273,1.544,-0.088
42.58,-0.066,1.028,0.123
42.59,-0.046,0.565,0.011
42.6,-0.482,1.022,-0.197
42.61,-0.172,1.376,-0.041
42.62,-0.19,0.941,0.105
42.63,-0.089,0.719,0.062
42.64,-0.372,0.791,-0.2
42.65,-0.347,1.696,-0.034
42.66,-0.111,0.525,0.137
42.67,-0.245,1.172,0.019
42.68,-0.237,0.239,-0.198
42.69,-0.348,1.951,0.052
42.7,-0.023,0.657,0.157
42.71,-0.174,0.858,0.048
42.72,-0.428,0.538,-0.198
42.73,-0.272,1.688,0.073
42.74,-0.112,0.946,0.147
42.75,0.015,0.552,0.049
42.76,-0.561,0.934,-0.2
42.77,-0.086,1.441,0.057
42.78,-0.231,0.967,0.052
42.79,0.027,0.624,-0.017
42.8,-0.38,0.672,-0.264
42.81,-0.041,1.743,-0.013
42.82,0.003,0.764,0.104
42.83,-0.088,0.873,0.011
42.84,-0.337,0.254,-0.206
42.85,-0.202,2.0,0.09
42.86,-0.024,0.607,0.113
42.87,-0.064,0.916,0.003
42.88,-0.478,0.508,-0.231
42.89,-0.026,1.812,0.089
42.9,-0.232,0.883,0.1
42.91,0.073,0.495,-0.035
42.92,-0.569,0.937,-0.214
42.93,0.075,1.482,0.085
42.94,-0.155,1.092,0.094
42.95,0.144,0.458,-0.036
42.96,-0.535,0.814,-0.186
42.97,-0.038,1.736,0.068
42.98,-0.084,0.806,0.137
42.99,-0.004,0.721,-0.026
43.0,-0.404,0.581,-0.14
43.01,-0.154,1.91,0.169
43.02,-0.051,0.644,0.081
43.03,-0.092,1.039,-0.037
43.04,-0.316,0.274,-0.18
43.05,-0.143,1.939,0.145
43.06,-0.106,0.765,0.083
43.07,-0.093,0.708,-0.021
43.08,-0.399,0.729,-0.179
43.09,-0.124,1.485,0.142
43.1,-0.26,1.288,0.099
43.11,0.005,0.418,-0.051
43.12,-0.359,0.981,-0.179
43.13,0.001,1.44,0.125
43.14,-0.18,1.213,0.089
43.15,-0.061,0.676,-0.06
43.16,-0.398,0.522,-0.156
43.17,-0.103,1.808,0.107
43.18,-0.098,0.808,0.088
43.19,-0.143,0.982,-0.067
43.2,-0.296,0.214,-0.173
43.21,-0.208,1.756,0.122
43.22,-0.162,0.919,0.078
43.23,-0.182,0.737,-0.086
43.24,-0.294,0.625,-0.184
43.25,-0.067,1.27,0.182
43.26,-0.273,1.381,0.035
43.27,-0.01,0.391,-0.13
43.28,-0.394,0.945,-0.168
43.29,-0.031,1.147,0.162
43.3,-0.27,1.386,0.041
43.31,-0.143,0.565,-0.099
43.32,-0.353,0.568,-0.069
43.33,-0.242,1.438,0.206
43.34,-0.145,1.011,0.06
43.35,-0.296,0.924,-0.108
43.36,-0.299,0.234,-0.083
43.37,-0.15,1.459,0.202
43.38,-0.236,0.931,0.062
43.39,-0.297,0.862,-0.118
43.4,-0.359,0.624,-0.078
43.41,-0.099,1.079,0.23
43.42,-0.251,1.305,-0.01
43.43,-0.132,0.508,-0.114
43.44,-0.493,1.032,-0.043
43.45,0.059,0.835,0.244
43.46,-0.368,1.44,0.033
43.47,-0.176,0.484,-0.097
43.48,-0.317,1.135,-0.076
43.49,-0.041,1.025,0.203
43.5,-0.186,0.812,0.011
43.51,-0.37,0.92,-0.142
43.52,-0.26,0.647,-0.081
43.53,-0.139,1.22,0.193
43.54,-0.133,0.808,0.042
43.55,-0.399,0.889,-0.064
43.56,-0.344,0.929,-0.003
43.57,-0.063,0.878,0.166
43.58,-0.199,1.246,-0.029
43.59,-0.235,0.439,-0.162
43.6,-0.304,1.858,-0.03
43.61,-0.002,0.619,0.148
43.62,-0.26,1.155,0.032
43.63,-0.384,0.444,-0.165
43.64,-0.397,1.689,0.031
43.65,-0.214,0.816,0.176
43.66,-0.186,0.745,0.009
43.67,-0.382,0.841,-0.239
43.68,-0.249,1.402,0.022
43.69,-0.223,1.008,0.153
43.7,-0.05,0.536,0.088
43.71,-0.493,0.87,-0.175
43.72,-0.137,1.617,0.06
43.73,-0.139,0.887,0.224
43.74,-0.091,0.812,0.064
43.75,-0.488,0.359,-0.164
43.76,-0.288,2.0,0.128
43.77,-0.197,0.505,0.087
43.78,-0.135,1.038,0.013
43.79,-0.454,0.273,-0.203
43.8,-0.006,2.0,0.051
43.81,-0.173,0.601,0.11
43.82,-0.008,0.794,-0.024
43.83,-0.539,0.537,-0.201
43.84,-0.061,1.719,0.169
43.85,-0.157,1.106,0.11
43.86,0.055,0.442,0.008
43.87,-0.563,0.958,-0.152
43.88,-0.007,1.52,0.234
43.89,-0.263,1.149,0.123
43.9,0.033,0.567,-0.012
43.91,-0.566,0.746,-0.148
43.92,-0.028,1.808,0.186
43.93,-0.128,0.808,0.084
43.94,-0.04,0.92,-0.047
43.95,-0.379,0.221,-0.14
43.96,-0.159,1.847,0.125
43.97,-0.165,0.779,0.066
43.98,-0.106,0.986,-0.085
43.99,-0.346,0.449,-0.205
44.0,-0.02,1.643,0.128
44.01,-0.201,1.148,0.009
44.02,0.001,0.569,-0.081
44.03,-0.48,0.889,-0.183
44.04,-0.092,1.18,0.225
44.05,-0.308,1.489,0.029
44.06,-0.073,0.378,-0.085
44.07,-0.419,0.759,-0.09
44.08,-0.07,1.224,0.127
44.09,-0.188,0.969,-0.013
44.1,-0.245,1.002,-0.153
44.11,-0.308,0.288,-0.092
44.12,-0.219,1.511,0.254
44.13,-0.138,0.861,0.023
44.14,-0.255,0.97,-0.122
44.15,-0.272,0.506,-0.099
44.16,-0.065,1.095,0.19
44.17,-0.271,1.244,0.01
44.18,-0.138,0.485,-0.125
44.19,-0.407,1.294,-0.014
44.2,-0.055,0.733,0.194
44.21,-0.306,1.24,0.045
44.22,-0.298,0.45,-0.134
44.23,-0.39,0.941,-0.031
44.24,-0.074,0.96,0.175
44.25,-0.19,1.064,0.016
44.26,-0.291,0.773,-0.134
44.27,-0.205,1.069,-0.091
44.28,-0.108,1.161,0.169
44.29,-0.197,0.616,-0.006
44.3,-0.382,1.029,-0.121
44.31,-0.292,1.383,0.01
44.32,-0.02,0.966,0.163
44.33,-0.173,0.838,-0.05
44.34,-0.414,0.496,-0.218
44.35,-0.301,1.744,0.005
44.36,-0.153,0.534,0.135
44.37,-0.27,1.247,0.035
44.38,-0.204,0.247,-0.21
44.39,-0.323,1.902,0.032
44.4,-0.087,0.638,0.057
44.41,-0.117,0.833,0.002
44.42,-0.343,0.739,-0.231
44.43,-0.113,1.52,0.022
44.44,-0.048,1.096,0.163
44.45,0.006,0.437,0.02
44.46,-0.544,0.898,-0.208
44.47,-0.074,1.538,0.096
44.48,-0.181,0.974,0.084
44.49,-0.052,0.661,-0.005
44.5,-0.506,0.51,-0.191
44.51,-0.064,2.0,0.09
44.52,-0.1,0.568,0.138
44.53,-0.125,0.895,-0.025
44.54,-0.401,0.239,-0.2
44.55,-0.152,1.988,0.058
44.56,-0.04,0.733,0.098
44.57,-0.032,0.739,-0.028
44.58,-0.464,0.701,-0.196
44.59,-0.063,1.653,0.15
44.6,-0.13,1.041,0.049
44.61,-0.055,0.526,-0.023
44.62,-0.453,0.892,-0.167
44.63,-0.067,1.431,0.198
44.64,-0.32,1.374,0.074
44.65,-0.004,0.484,-0.031
44.66,-0.382,0.727,-0.174
44.67,-0.087,1.435,0.138
44.68,-0.146,1.078,0.025
44.69,-0.189,0.905,-0.1
44.7,-0.363,0.249,-0.106
44.71,-0.201,1.672,0.194
44.72,-0.187,0.907,0.075
44.73,-0.25,0.921,-0.063
44.74,-0.398,0.339,-0.065
44.75,-0.166,1.315,0.226
44.76,-0.263,1.153,0.011
44.77,-0.197,0.57,-0.095
44.78,-0.421,0.988,-0.039
44.79,0.011,0.901,0.257
44.8,-0.315,1.32,0.064
44.81,-0.235,0.51,-0.121
44.82,-0.377,0.957,-0.057
44.83,0.051,0.992,0.138
44.84,-0.204,1.069,-0.015
44.85,-0.262,0.807,-0.181
44.86,-0.202,0.996,-0.115
44.87,-0.062,1.164,0.13
44.88,-0.092,0.665,0.018
44.89,-0.392,1.009,-0.152
44.9,-0.23,0.958,-0.094
44.91,-0.085,0.997,0.131
44.92,-0.131,0.95,-0.03
44.93,-0.322,0.69,-0.158
44.94,-0.311,1.54,-0.046
44.95,-0.015,0.631,0.105
44.96,-0.251,1.297,-0.01
44.97,-0.223,0.306,-0.153
44.98,-0.341,1.853,-0.02
44.99,-0.036,0.663,0.117
45.0,-0.193,0.87,0.013
45.01,-0.406,0.718,-0.206
45.02,-0.232,1.531,0.013
45.03,-0.209,0.976,0.132
45.04,-0.078,0.511,0.033
45.05,-0.519,0.976,-0.219
45.06,-0.166,1.45,0.064
45.07,-0.236,0.884,0.142
45.08,-0.141,0.74,0.053
45.09,-0.441,0.518,-0.181
45.1,-0.191,1.878,0.083
45.11,-0.088,0.638,0.14
45.12,-0.238,0.901,0.061
45.13,-0.41,0.216,-0.184
45.14,-0.281,2.0,0.116
45.15,-0.096,0.616,0.118
45.16,-0.156,0.79,0.02
45.17,-0.472,0.589,-0.238
45.18,-0.103,1.661,0.103
45.19,-0.151,1.051,0.134
45.2,-0.022,0.384,-0.008
45.21,-0.536,0.925,-0.172
45.22,-0.006,1.528,0.121
45.23,-0.179,1.133,0.137
45.24,-0.008,0.533,0.009
45.25,-0.537,0.652,-0.204
45.26,-0.027,1.856,0.126
45.27,-0.052,0.698,0.11
45.28,-0.095,0.933,-0.02
45.29,-0.386,0.277,-0.176
45.3,-0.144,2.0,0.141
45.31,-0.053,0.707,0.08
45.32,-0.092,0.855,-0.047
45.33,-0.397,0.569,-0.187
45.34,-0.11,1.722,0.185
45.35,-0.201,1.132,0.125
45.36,0.094,0.473,-0.043
45.37,-0.548,0.988,-0.136
45.38,0.072,1.472,0.166
45.39,-0.229,1.241,0.051
45.4,-0.005,0.368,-0.059
45.41,-0.455,0.858,-0.198
45.42,-0.062,1.252,0.104
45.43,-0.314,1.182,0.045
45.44,-0.17,0.76,-0.052
45.45,-0.389,0.401,-0.052
45.46,-0.167,1.5,0.216
45.47,-0.142,0.873,0.026
45.48,-0.165,1.08,-0.147
45.49,-0.359,0.252,-0.127
45.5,-0.135,1.468,0.24
45.51,-0.262,1.128,0.024
45.52,-0.15,0.655,-0.118
45.53,-0.49,0.786,-0.129
45.54,0.056,0.981,0.21
45.55,-0.341,1.425,-0.005
45.56,-0.069,0.395,-0.057
45.57,-0.426,1.278,-0.021
45.58,-0.007,0.892,0.221
45.59,-0.269,1.108,0.045
45.6,-0.289,0.776,-0.158
45.61,-0.381,0.57,-0.079
45.62,0.022,1.25,0.132
45.63,-0.106,0.847,0.007
45.64,-0.375,1.011,-0.158
45.65,-0.291,0.514,-0.044
45.66,-0.075,1.16,0.151
45.67,-0.169,1.002,-0.015
45.68,-0.257,0.645,-0.146
45.69,-0.228,1.569,-0.133
45.7,0.002,0.748,0.15
45.71,-0.213,1.17,-0.008
45.72,-0.292,0.36,-0.148
45.73,-0.357,1.527,-0.013
45.74,-0.021,0.688,0.156
45.75,-0.267,1.09,-0.024
45.76,-0.247,0.674,-0.203
45.77,-0.29,1.404,-0.038
45.78,-0.113,0.947,0.174
45.79,-0.036,0.705,0.009
45.8,-0.47,0.987,-0.155
45.81,-0.18,1.272,0.004
45.82,-0.108,1.063,0.157
45.83,-0.123,0.63,0.043
45.84,-0.379,0.741,-0.215
45.85,-0.226,1.795,0.033
45.86,-0.118,0.655,0.117
45.87,-0.215,1.007,0.059
45.88,-0.284,0.277,-0.241
45.89,-0.405,1.994,0.115
45.9,-0.052,0.55,0.119
45.91,-0.196,0.891,0.02
45.92,-0.31,0.394,-0.191
45.93,-0.127,1.788,-0.003
45.94,-0.093,1.042,0.102
45.95,0.026,0.437,-0.02
45.96,-0.52,0.895,-0.225
45.97,-0.138,1.542,0.08
45.98,-0.294,0.886,0.067
45.99,-0.059,0.624,0.036
46.0,-0.504,0.77,-0.179
46.01,-0.107,1.766,0.058
46.02,-0.131,0.712,0.116
46.03,-0.104,0.836,-0.035
46.04,-0.385,0.232,-0.145
46.05,-0.134,2.0,0.088
46.06,0.001,0.608,0.093
46.07,-0.099,0.859,-0.046
46.08,-0.422,0.414,-0.182
46.09,-0.132,1.86,0.179
46.1,-0.178,0.912,0.091
46.11,-0.024,0.459,-0.051
46.12,-0.475,0.909,-0.192
46.13,-0.009,1.53,0.188
46.14,-0.21,1.117,0.095
46.15,0.049,0.513,0.003
46.16,-0.488,0.808,-0.156
46.17,-0.099,1.575,0.134
46.18,-0.222,0.976,0.108
46.19,-0.038,0.936,-0.049
46.2,-0.379,0.287,-0.115
46.21,-0.013,1.754,0.14
46.22,-0.076,0.831,0.049
46.23,-0.118,1.094,-0.136
46.24,-0.411,0.223,-0.151
46.25,-0.114,1.729,0.144
46.26,-0.167,0.951,0.019
46.27,-0.119,0.708,-0.113
46.28,-0.389,0.695,-0.166
46.29,-0.031,1.11,0.15
46.3,-0.348,1.328,-0.037
46.31,-0.095,0.518,-0.079
46.32,-0.47,0.944,-0.059
46.33,-0.084,1.003,0.267
46.34,-0.289,1.332,0.038
46.35,-0.224,0.652,-0.123
46.36,-0.415,0.585,-0.0
46.37,-0.129,1.236,0.24
46.38,-0.21,1.034,0.04
46.39,-0.311,0.92,-0.075
46.4,-0.248,0.845,0.001
46.41,-0.095,1.247,0.194
46.42,-0.182,0.711,0.025
46.43,-0.346,0.874,-0.184
46.44,-0.3,1.136,-0.089
46.45,-0.006,0.805,0.1
46.46,-0.252,1.217,-0.016
46.47,-0.19,0.377,-0.137
46.48,-0.354,1.723,-0.022
46.49,0.005,0.596,0.188
46.5,-0.299,1.199,-0.003
46.51,-0.314,0.492,-0.174
46.52,-0.305,1.636,-0.039
46.53,-0.137,0.913,0.114
46.54,-0.136,0.659,0.02
46.55,-0.437,0.956,-0.154
46.56,-0.221,1.351,0.046
46.57,-0.243,1.024,0.162
46.58,-0.127,0.644,0.01
46.59,-0.432,0.771,-0.213
46.6,-0.189,1.685,0.007
46.61,-0.155,0.671,0.102
46.62,-0.17,0.932,0.015
46.63,-0.41,0.298,-0.185
46.64,-0.3,2.0,0.104
46.65,-0.142,0.486,0.108
46.66,-0.176,1.023,0.049
46.67,-0.461,0.324,-0.186
46.68,-0.143,1.845,0.116
46.69,-0.123,0.909,0.1
46.7,-0.082,0.467,-0.031
46.71,-0.465,0.867,-0.195
46.72,-0.066,1.562,0.082
46.73,-0.268,1.09,0.131
46.74,0.054,0.466,-0.031
46.75,-0.617,0.8,-0.156
46.76,-0.008,1.668,0.146
46.77,-0.172,0.884,0.118
46.78,-0.048,0.742,-0.004
46.79,-0.441,0.326,-0.175
46.8,-0.144,1.977,0.174
46.81,-0.046,0.615,0.091
46.82,-0.12,1.024,-0.044
46.83,-0.438,0.346,-0.182
46.84,-0.134,1.917,0.183
46.85,-0.18,0.883,0.069
46.86,-0.011,0.571,-0.035
46.87,-0.496,0.857,-0.178
46.88,0.0,1.446,0.136
46.89,-0.281,1.302,0.066
46.9,0.038,0.449,-0.038
46.91,-0.404,0.868,-0.197
46.92,-0.022,1.471,0.087
46.93,-0.158,1.096,-0.023
46.94,-0.094,0.822,-0.132
46.95,-0.316,0.342,-0.141
46.96,-0.167,1.854,0.153
46.97,-0.138,0.775,0.079
46.98,-0.251,1.008,-0.06
46.99,-0.324,0.274,-0.084
47.0,-0.248,1.567,0.155
47.01,-0.215,0.978,0.046
47.02,-0.233,0.869,-0.142
47.03,-0.392,0.603,-0.069
47.04,0.017,1.079,0.225
47.05,-0.217,1.248,0.005
47.06,-0.14,0.532,-0.158
47.07,-0.367,1.025,-0.105
47.08,0.01,0.813,0.216
47.09,-0.245,1.484,-0.036
47.1,-0.195,0.43,-0.132
47.11,-0.354,0.838,-0.12
47.12,0.069,1.036,0.097
47.13,-0.114,0.987,-0.086
47.14,-0.354,0.868,-0.149
47.15,-0.187,0.839,-0.07
47.16,-0.143,1.147,0.151
47.17,-0.104,0.78,0.003
47.18,-0.399,0.904,-0.142
47.19,-0.252,1.248,-0.058
47.2,-0.091,0.753,0.101
47.21,-0.176,1.138,-0.05
47.22,-0.259,0.387,-0.209
47.23,-0.332,1.904,0.002
47.24,-0.057,0.478,0.092
47.25,-0.194,1.128,0.003
47.26,-0.331,0.392,-0.231
47.27,-0.322,1.775,0.037
47.28,-0.035,0.802,0.123
47.29,-0.165,0.639,0.022
47.3,-0.442,0.861,-0.21
47.31,-0.2,1.466,0.091
47.32,-0.167,1.024,0.095
47.33,0.002,0.506,0.002
47.34,-0.469,0.816,-0.246
47.35,-0.057,1.661,0.032
47.36,-0.044,0.866,0.058
47.37,-0.086,0.735,-0.002
47.38,-0.417,0.311,-0.183
47.39,-0.108,1.995,0.1
47.4,0.034,0.636,0.103
47.41,-0.076,0.933,-0.016
47.42,-0.416,0.297,-0.18
47.43,-0.102,2.0,0.134
47.44,-0.215,0.747,0.104
47.45,-0.009,0.601,-0.033
47.46,-0.576,0.847,-0.214
47.47,-0.01,1.524,0.212
47.48,-0.227,1.198,0.094
47.49,0.122,0.406,-0.024
47.5,-0.548,0.958,-0.155
47.51,-0.083,1.487,0.126
47.52,-0.225,1.066,0.091
47.53,-0.056,0.81,-0.109
47.54,-0.365,0.366,-0.162
47.55,-0.12,1.874,0.104
47.56,-0.029,0.785,0.055
47.57,-0.165,0.961,-0.089
47.58,-0.302,0.273,-0.162
47.59,-0.188,1.706,0.151
47.6,-0.192,1.011,0.009
47.61,-0.015,0.666,-0.091
47.62,-0.442,0.719,-0.121
47.63,-0.051,1.098,0.191
47.64,-0.292,1.415,0.058
47.65,-0.11,0.402,-0.091
47.66,-0.474,0.867,-0.092
47.67,-0.069,1.106,0.271
47.68,-0.254,1.275,0.039
47.69,-0.187,0.745,-0.1
47.7,-0.397,0.391,-0.051
47.71,-0.087,1.396,0.216
47.72,-0.201,0.912,0.027
47.73,-0.268,0.991,-0.092
47.74,-0.268,0.679,-0.011
47.75,-0.097,1.19,0.211
47.76,-0.237,0.868,0.056
47.77,-0.282,0.791,-0.117
47.78,-0.418,1.078,-0.046
47.79,0.003,0.824,0.188
47.8,-0.299,1.243,0.021
47.81,-0.2,0.402,-0.132
47.82,-0.309,1.833,-0.019
47.83,-0.089,0.521,0.137
47.84,-0.306,1.226,0.051
47.85,-0.28,0.29,-0.182
47.86,-0.354,1.824,0.034
47.87,-0.086,0.849,0.162
47.88,-0.151,0.627,0.0
47.89,-0.476,0.87,-0.244
47.9,-0.221,1.417,0.051
47.91,-0.281,0.984,0.1
47.92,-0.097,0.54,0.035
47.93,-0.468,0.872,-0.175
47.94,-0.098,1.562,0.072
47.95,-0.2,0.725,0.035
47.96,-0.08,0.798,-0.003
47.97,-0.383,0.354,-0.187
47.98,-0.063,2.0,0.034
47.99,0.061,0.613,0.1
48.0,-0.101,0.937,0.002
48.01,-0.444,0.246,-0.22
48.02,-0.062,2.0,0.102
48.03,-0.231,0.737,0.07
48.04,-0.06,0.567,-0.02
48.05,-0.568,0.79,-0.176
48.06,-0.047,1.519,0.165
48.07,-0.199,1.177,0.135
48.08,0.048,0.337,-0.04
48.09,-0.494,0.922,-0.144
48.1,-0.017,1.52,0.102
48.11,-0.173,1.073,0.074
48.12,0.062,0.825,-0.08
48.13,-0.502,0.447,-0.157
48.14,-0.018,1.927,0.195
48.15,-0.065,0.692,0.048
48.16,-0.14,0.984,-0.027
48.17,-0.329,0.255,-0.165
48.18,-0.208,1.789,0.16
48.19,-0.157,0.962,0.048
48.2,-0.051,0.755,-0.06
48.21,-0.38,0.695,-0.158
48.22,-0.105,1.314,0.223
48.23,-0.319,1.422,0.071
48.24,-0.028,0.462,-0.1
48.25,-0.44,0.888,-0.135
48.26,-0.011,1.33,0.204
48.27,-0.273,1.317,0.045
48.28,-0.036,0.728,-0.122
48.29,-0.395,0.424,-0.081
48.3,-0.113,1.425,0.15
48.31,-0.13,0.938,-0.008
48.32,-0.286,1.002,-0.123
48.33,-0.323,0.323,-0.063
48.34,-0.079,1.298,0.184
48.35,-0.191,0.916,-0.008
48.36,-0.21,0.749,-0.106
48.37,-0.38,0.909,-0.058
48.38,-0.035,0.849,0.203
48.39,-0.287,1.368,0.003
48.4,-0.238,0.317,-0.108
48.41,-0.33,1.288,-0.046
48.42,0.005,0.72,0.125
48.43,-0.228,1.21,-0.006
48.44,-0.318,0.631,-0.167
48.45,-0.226,1.276,-0.059
48.46,-0.112,1.053,0.184
48.47,-0.1,0.662,-0.011
48.48,-0.429,1.006,-0.157
