t,ax,ay,az
0.0,-0.072,0.726,0.106
0.01,-0.122,0.936,-0.028
0.02,-0.399,0.333,-0.2
0.03,-0.167,1.955,0.09
0.04,-0.112,0.849,0.088
0.05,-0.087,0.645,-0.013
0.06,-0.462,0.766,-0.194
0.07,-0.105,1.509,0.134
0.08,-0.215,1.271,0.121
0.09,0.043,0.388,-0.015
0.1,-0.584,1.016,-0.202
0.11,-0.053,1.316,0.169
0.12,-0.263,1.181,0.076
0.13,-0.021,0.673,-0.037
0.14,-0.437,0.617,-0.167
0.15,-0.154,1.657,0.156
0.16,-0.208,0.79,0.122
0.17,-0.128,0.97,-0.068
0.18,-0.46,0.221,-0.16
0.19,-0.149,1.71,0.114
0.2,-0.114,0.917,0.075
0.21,-0.159,0.766,-0.113
0.22,-0.313,0.649,-0.204
0.23,-0.132,1.329,0.156
0.24,-0.249,1.224,0.122
0.25,-0.013,0.428,-0.061
0.26,-0.501,1.057,-0.164
0.27,-0.027,1.155,0.182
0.28,-0.316,1.237,0.128
0.29,-0.074,0.618,-0.046
0.3,-0.531,0.61,-0.161
0.31,-0.123,1.446,0.194
0.32,-0.128,0.834,0.082
0.33,-0.243,0.988,-0.089
0.34,-0.4,0.259,-0.167
0.35,-0.21,1.584,0.205
0.36,-0.109,0.896,0.083
0.37,-0.141,0.836,-0.068
0.38,-0.358,0.594,-0.204
0.39,-0.027,1.219,0.133
0.4,-0.197,1.203,0.013
0.41,-0.005,0.502,-0.117
0.42,-0.52,0.968,-0.14
0.43,-0.013,1.037,0.133
0.44,-0.239,1.265,0.066
0.45,-0.066,0.537,-0.101
0.46,-0.464,0.739,-0.122
0.47,-0.081,1.237,0.152
0.48,-0.161,0.933,-0.028
0.49,-0.14,0.907,-0.113
0.5,-0.392,0.385,-0.141
0.51,-0.187,1.349,0.151
0.52,-0.178,0.769,0.023
0.53,-0.281,0.903,-0.123
0.54,-0.358,0.593,-0.157
0.55,-0.122,1.141,0.196
0.56,-0.191,1.168,-0.007
0.57,-0.212,0.367,-0.138
0.58,-0.433,1.078,-0.105
0.59,-0.039,0.862,0.183
0.6,-0.231,1.311,0.032
0.61,-0.204,0.366,-0.103
0.62,-0.344,1.103,-0.024
0.63,-0.16,1.113,0.217
0.64,-0.181,0.962,-0.015
0.65,-0.359,0.676,-0.176
0.66,-0.181,1.184,-0.038
0.67,-0.169,1.18,0.146
0.68,-0.057,0.547,0.029
0.69,-0.426,1.097,-0.203
0.7,-0.19,1.031,-0.025
0.71,-0.101,1.175,0.145
0.72,-0.167,0.764,0.024
0.73,-0.331,0.763,-0.21
0.74,-0.268,1.563,0.004
0.75,-0.021,0.826,0.146
0.76,-0.221,1.051,0.05
0.77,-0.293,0.363,-0.23
0.78,-0.38,1.764,0.049
0.79,0.048,0.751,0.154
0.8,-0.153,0.879,0.004
0.81,-0.427,0.688,-0.192
0.82,-0.253,1.458,0.06
0.83,-0.086,1.119,0.134
0.84,-0.047,0.483,0.046
0.85,-0.481,1.026,-0.187
0.86,-0.229,1.257,0.099
0.87,-0.144,1.13,0.189
0.88,-0.049,0.566,0.055
0.89,-0.476,0.834,-0.16
0.9,-0.235,1.755,0.128
0.91,-0.143,0.706,0.185
0.92,-0.067,0.952,0.024
0.93,-0.396,0.37,-0.188
0.94,-0.192,2.0,0.095
0.95,-0.096,0.673,0.138
0.96,-0.12,0.857,-0.008
0.97,-0.387,0.555,-0.22
0.98,-0.119,1.725,0.083
0.99,-0.061,1.002,0.076
1.0,0.066,0.417,-0.007
1.01,-0.56,1.061,-0.187
1.02,-0.048,1.401,0.139
1.03,-0.147,1.222,0.142
1.04,0.018,0.471,-0.004
1.05,-0.383,0.849,-0.184
1.06,-0.086,1.76,0.066
1.07,-0.014,0.953,0.08
1.08,-0.102,0.872,-0.036
1.09,-0.348,0.373,-0.168
1.1,-0.217,2.0,0.123
1.11,0.011,0.741,0.122
1.12,-0.132,0.861,-0.028
1.13,-0.388,0.447,-0.2
1.14,-0.156,1.681,0.097
1.15,-0.115,1.117,0.065
1.16,-0.006,0.534,-0.097
1.17,-0.466,1.012,-0.172
1.18,-0.059,1.224,0.153
1.19,-0.237,1.364,0.07
1.2,0.003,0.472,-0.099
1.21,-0.387,0.907,-0.176
1.22,-0.121,1.326,0.155
1.23,-0.17,0.962,0.067
1.24,-0.107,0.963,-0.105
1.25,-0.411,0.294,-0.12
1.26,-0.239,1.627,0.219
1.27,-0.171,0.839,0.083
1.28,-0.225,0.983,-0.052
1.29,-0.313,0.358,-0.196
1.3,-0.167,1.346,0.151
1.31,-0.148,1.143,0.053
1.32,-0.122,0.536,-0.09
1.33,-0.464,0.957,-0.145
1.34,-0.008,1.01,0.202
1.35,-0.324,1.213,0.008
1.36,-0.062,0.423,-0.075
1.37,-0.471,0.872,-0.14
1.38,-0.044,1.121,0.143
1.39,-0.214,1.073,-0.042
1.4,-0.222,0.756,-0.106
1.41,-0.374,0.41,-0.108
1.42,-0.137,1.37,0.202
1.43,-0.148,0.711,0.013
1.44,-0.298,1.019,-0.103
1.45,-0.298,0.666,-0.043
1.46,-0.131,1.313,0.191
1.47,-0.189,0.78,0.007
1.48,-0.4,0.77,-0.175
1.49,-0.202,1.18,-0.056
1.5,-0.117,0.979,0.205
1.51,-0.262,1.095,0.027
1.52,-0.282,0.481,-0.168
1.53,-0.303,1.717,-0.034
1.54,0.031,0.725,0.203
1.55,-0.315,1.098,0.056
1.56,-0.335,0.537,-0.213
1.57,-0.304,1.484,0.019
1.58,0.017,1.07,0.157
1.59,-0.171,0.573,0.048
1.6,-0.464,1.043,-0.155
1.61,-0.196,1.235,0.041
1.62,-0.129,1.227,0.209
1.63,-0.001,0.473,0.036
1.64,-0.521,0.969,-0.244
1.65,-0.144,1.531,0.04
1.66,-0.112,0.888,0.138
1.67,-0.125,0.827,0.012
1.68,-0.451,0.475,-0.164
1.69,-0.253,1.991,0.153
1.7,0.036,0.675,0.071
1.71,-0.129,0.894,-0.003
1.72,-0.432,0.417,-0.19
1.73,-0.196,1.796,0.072
1.74,-0.031,0.928,0.095
1.75,-0.006,0.539,-0.038
1.76,-0.433,0.955,-0.239
1.77,-0.029,1.482,0.085
1.78,-0.13,1.271,0.104
1.79,0.052,0.329,-0.029
1.8,-0.389,1.001,-0.203
1.81,-0.124,1.599,0.057
1.82,-0.086,1.014,0.115
1.83,-0.035,0.763,-0.045
1.84,-0.407,0.424,-0.19
1.85,-0.169,2.0,0.098
1.86,-0.098,0.684,0.092
1.87,-0.087,0.994,-0.064
1.88,-0.363,0.383,-0.206
1.89,-0.142,1.808,0.093
1.9,-0.113,1.068,0.061
1.91,-0.11,0.566,-0.079
1.92,-0.403,0.838,-0.2
1.93,-0.136,1.24,0.155
1.94,-0.252,1.337,0.125
1.95,-0.029,0.443,-0.073
1.96,-0.511,0.893,-0.166
1.97,-0.049,1.266,0.146
1.98,-0.256,1.122,0.052
1.99,-0.104,0.811,-0.036
2.0,-0.507,0.456,-0.09
2.01,-0.214,1.45,0.265
2.02,-0.16,0.833,0.087
2.03,-0.277,0.942,-0.108
2.04,-0.42,0.267,-0.099
2.05,-0.162,1.363,0.105
2.06,-0.205,0.946,0.065
2.07,-0.239,0.689,-0.147
2.08,-0.448,0.775,-0.155
2.09,0.042,0.972,0.214
2.1,-0.276,1.316,-0.015
2.11,-0.094,0.252,-0.129
2.12,-0.505,1.08,-0.074
2.13,0.038,0.981,0.176
2.14,-0.293,1.144,0.067
2.15,-0.148,0.568,-0.151
2.16,-0.396,0.849,-0.036
2.17,0.007,1.338,0.131
2.18,-0.175,0.687,0.061
2.19,-0.293,1.019,-0.146
2.2,-0.381,0.586,-0.021
2.21,-0.111,1.337,0.142
2.22,-0.209,0.861,0.026
2.23,-0.31,0.727,-0.132
2.24,-0.327,1.184,-0.067
2.25,-0.061,1.023,0.137
2.26,-0.187,0.971,-0.02
2.27,-0.271,0.545,-0.187
2.28,-0.267,1.8,0.003
2.29,0.017,0.756,0.205
2.3,-0.24,1.026,0.069
2.31,-0.392,0.431,-0.21
2.32,-0.324,1.602,0.048
2.33,-0.201,0.85,0.138
2.34,-0.107,0.707,0.047
2.35,-0.493,0.85,-0.223
2.36,-0.198,1.293,0.071
2.37,-0.134,1.231,0.166
2.38,0.003,0.426,0.082
2.39,-0.512,1.032,-0.177
2.4,-0.109,1.479,0.036
2.41,-0.104,1.053,0.153
2.42,-0.054,0.67,0.027
2.43,-0.488,0.542,-0.168
2.44,-0.181,2.0,0.103
2.45,-0.067,0.676,0.097
2.46,-0.136,0.931,0.031
2.47,-0.386,0.415,-0.222
2.48,-0.226,1.979,0.096
2.49,-0.044,0.822,0.136
2.5,-0.056,0.606,-0.038
2.51,-0.443,0.819,-0.207
2.52,-0.072,1.553,0.109
2.53,-0.184,1.206,0.152
2.54,0.082,0.392,-0.026
2.55,-0.491,1.089,-0.175
2.56,0.017,1.688,0.108
2.57,-0.227,1.081,0.081
2.58,0.104,0.604,-0.035
2.59,-0.485,0.622,-0.2
2.6,-0.099,1.89,0.071
2.61,-0.079,0.758,0.101
2.62,-0.179,0.949,-0.023
2.63,-0.417,0.26,-0.134
2.64,-0.204,1.892,0.137
2.65,-0.036,0.561,-0.074
2.66,-0.489,0.703,-0.147
2.67,-0.162,1.495,0.191
2.68,-0.172,0.91,0.109
2.69,-0.168,0.933,-0.082
2.7,-0.395,0.261,-0.192
2.71,-0.225,1.673,0.19
2.72,-0.195,0.813,0.104
2.73,-0.17,0.892,-0.081
2.74,-0.431,0.475,-0.184
2.75,-0.109,1.299,0.144
2.76,-0.286,1.281,0.137
2.77,-0.047,0.416,-0.068
2.78,-0.581,1.05,-0.148
2.79,-0.045,0.994,0.206
2.8,-0.249,1.324,0.024
2.81,-0.117,0.493,-0.062
2.82,-0.38,0.774,-0.149
2.83,-0.116,1.176,0.174
2.84,-0.103,0.889,0.037
2.85,-0.254,0.736,-0.122
2.86,-0.473,0.51,-0.111
2.87,-0.135,1.326,0.143
2.88,-0.148,0.751,0.016
2.89,-0.355,0.835,-0.13
2.9,-0.304,0.624,-0.065
2.91,-0.042,1.273,0.118
2.92,-0.271,0.844,0.047
2.93,-0.233,0.721,-0.131
2.94,-0.37,1.26,-0.072
2.95,-0.0,0.889,0.171
2.96,-0.281,1.229,0.081
2.97,-0.252,0.357,-0.193
2.98,-0.365,1.331,-0.043
2.99,-0.095,0.854,0.151
3.0,-0.252,1.074,0.052
3.01,-0.215,0.615,-0.178
3.02,-0.206,1.16,-0.085
3.03,-0.051,1.188,0.138
3.04,-0.122,0.605,0.04
3.05,-0.383,1.015,-0.195
3.06,-0.184,1.08,-0.057
3.07,-0.121,1.199,0.151
3.08,-0.157,0.698,0.043
3.09,-0.399,0.877,-0.149
3.1,-0.281,1.437,-0.041
3.11,-0.048,0.864,0.126
3.12,-0.216,1.103,0.009
3.13,-0.286,0.37,-0.228
3.14,-0.286,1.792,-0.011
3.15,-0.017,0.76,0.147
3.16,-0.235,0.975,0.091
3.17,-0.375,0.616,-0.221
3.18,-0.27,1.398,0.015
3.19,-0.09,1.083,0.131
3.2,0.008,0.535,0.041
3.21,-0.475,1.092,-0.191
3.22,-0.212,1.162,0.034
3.23,-0.111,1.147,0.117
3.24,-0.05,0.599,0.031
3.25,-0.484,0.888,-0.217
3.26,-0.167,1.585,0.046
3.27,-0.078,0.84,0.156
3.28,-0.093,0.902,-0.015
3.29,-0.404,0.418,-0.202
3.3,-0.308,1.914,0.1
3.31,-0.023,0.706,0.1
3.32,-0.144,0.881,-0.002
3.33,-0.467,0.551,-0.198
3.34,-0.237,1.64,0.106
3.35,-0.1,1.021,0.12
3.36,0.009,0.477,0.009
3.37,-0.541,1.023,-0.189
3.38,-0.084,1.392,0.092
3.39,-0.201,1.179,0.147
3.4,-0.006,0.436,0.073
3.41,-0.416,0.918,-0.231
3.42,-0.081,1.704,0.101
3.43,-0.024,0.873,0.085
3.44,-0.059,0.795,-0.005
3.45,-0.394,0.447,-0.195
3.46,-0.18,2.0,0.055
3.47,-0.054,0.64,0.163
3.48,-0.138,0.929,0.01
3.49,-0.397,0.449,-0.192
3.5,-0.107,1.901,0.113
3.51,-0.185,1.003,0.107
3.52,0.002,0.447,-0.029
3.53,-0.489,1.005,-0.201
3.54,0.017,1.495,0.114
3.55,-0.169,1.318,0.085
3.56,0.067,0.4,-0.051
3.57,-0.488,0.9,-0.202
3.58,-0.043,1.569,0.118
3.59,-0.141,1.012,0.038
3.6,-0.069,0.822,-0.068
3.61,-0.439,0.457,-0.166
3.62,-0.152,1.84,0.159
3.63,-0.081,0.794,0.11
3.64,-0.229,0.894,-0.105
3.65,-0.381,0.347,-0.18
3.66,-0.25,1.527,0.161
3.67,-0.183,0.797,0.111
3.68,-0.208,0.897,-0.076
3.69,-0.385,0.568,-0.121
3.7,-0.084,1.263,0.166
3.71,-0.171,1.291,0.095
3.72,-0.097,0.454,-0.081
3.73,-0.536,1.034,-0.101
3.74,-0.063,0.945,0.246
3.75,-0.336,1.306,0.082
3.76,-0.062,0.502,-0.058
3.77,-0.502,0.797,-0.119
3.78,-0.099,1.219,0.143
3.79,-0.113,0.82,0.03
3.8,-0.393,0.941,-0.153
3.81,-0.317,0.36,-0.08
3.82,-0.179,1.359,0.177
3.83,-0.119,0.802,0.039
3.84,-0.308,0.844,-0.125
3.85,-0.421,0.648,-0.098
3.86,-0.024,1.045,0.171
3.87,-0.254,1.234,-0.043
3.88,-0.104,0.344,-0.18
3.89,-0.454,1.292,-0.094
3.9,0.045,0.889,0.121
3.91,-0.236,1.288,0.033
3.92,-0.238,0.374,-0.165
3.93,-0.287,1.17,-0.049
3.94,-0.073,1.066,0.136
3.95,-0.228,0.777,0.07
3.96,-0.271,0.897,-0.152
3.97,-0.245,1.035,-0.067
3.98,-0.131,1.293,0.164
3.99,-0.174,0.619,0.067
4.0,-0.43,0.961,-0.16
4.01,-0.248,1.155,-0.019
4.02,-0.151,1.017,0.139
4.03,-0.22,1.014,0.037
4.04,-0.257,0.469,-0.176
4.05,-0.335,1.738,0.031
4.06,-0.018,0.713,0.146
4.07,-0.224,1.092,0.064
4.08,-0.363,0.446,-0.176
4.09,-0.289,1.597,0.027
4.1,-0.129,0.889,0.141
4.11,-0.043,0.683,0.026
4.12,-0.47,0.878,-0.219
4.13,-0.17,1.258,0.024
4.14,-0.183,1.155,0.186
4.15,0.035,0.479,0.064
4.16,-0.575,0.994,-0.215
4.17,-0.083,1.458,0.054
4.18,-0.135,1.013,0.119
4.19,-0.019,0.673,-0.005
4.2,-0.498,0.571,-0.183
4.21,-0.15,1.917,0.08
4.22,-0.052,0.65,0.115
4.23,-0.139,0.93,0.001
4.24,-0.434,0.379,-0.177
4.25,-0.137,1.907,0.114
4.26,-0.129,0.817,0.135
4.27,-0.034,0.602,-0.009
4.28,-0.505,0.849,-0.189
4.29,0.003,1.544,0.12
4.3,-0.214,1.235,0.16
4.31,0.054,0.291,-0.011
4.32,-0.505,1.039,-0.193
4.33,-0.013,1.576,0.073
4.34,-0.147,1.081,0.17
4.35,-0.0,0.667,-0.033
4.36,-0.463,0.553,-0.165
4.37,-0.185,1.891,0.172
4.38,-0.105,0.804,0.106
4.39,-0.17,0.926,-0.051
4.4,-0.331,0.368,-0.196
4.41,-0.221,1.808,0.113
4.42,-0.061,0.907,0.061
4.43,-0.114,0.728,-0.079
4.44,-0.354,0.641,-0.193
4.45,-0.139,1.322,0.194
4.46,-0.217,1.13,0.075
4.47,-0.163,0.46,-0.086
4.48,-0.468,0.98,-0.132
4.49,-0.031,1.061,0.142
4.5,-0.222,1.388,0.039
4.51,-0.057,0.461,-0.052
4.52,-0.432,0.836,-0.15
4.53,-0.075,1.169,0.158
4.54,-0.147,0.931,-0.007
4.55,-0.267,0.898,-0.116
4.56,-0.327,0.3,-0.113
4.57,-0.162,1.455,0.181
4.58,-0.168,0.782,0.068
4.59,-0.309,0.892,-0.096
4.6,-0.435,0.461,-0.109
4.61,-0.031,1.217,0.213
4.62,-0.182,1.09,-0.074
4.63,-0.152,0.516,-0.163
4.64,-0.454,1.18,-0.107
4.65,-0.002,0.888,0.14
4.66,-0.331,1.278,0.058
4.67,-0.252,0.347,-0.148
4.68,-0.393,1.243,0.008
4.69,-0.034,0.998,0.168
4.7,-0.285,0.94,0.068
4.71,-0.316,0.798,-0.152
4.72,-0.287,0.969,-0.05
4.73,-0.089,1.294,0.191
4.74,-0.139,0.627,0.015
4.75,-0.424,1.015,-0.132
4.76,-0.197,1.101,-0.078
4.77,-0.165,1.124,0.148
4.78,-0.1,0.888,0.003
4.79,-0.397,0.582,-0.186
4.8,-0.144,1.671,-0.012
4.81,-0.055,0.701,0.112
4.82,-0.145,1.097,0.061
4.83,-0.316,0.444,-0.202
4.84,-0.32,1.672,0.06
4.85,-0.077,0.776,0.157
4.86,-0.188,0.825,0.046
4.87,-0.437,0.789,-0.246
4.88,-0.196,1.333,0.025
4.89,-0.157,1.167,0.223
4.9,0.026,0.411,0.008
4.91,-0.531,1.112,-0.176
4.92,-0.148,1.365,0.065
4.93,-0.214,0.979,0.146
4.94,-0.012,0.652,0.029
4.95,-0.39,0.747,-0.236
4.96,-0.2,1.744,0.085
4.97,-0.044,0.779,0.171
4.98,-0.154,0.898,0.027
4.99,-0.451,0.299,-0.175
5.0,-0.22,2.0,0.14
5.01,-0.062,0.754,0.118
5.02,-0.136,0.769,-0.003
5.03,-0.461,0.663,-0.203
5.04,-0.108,1.641,0.12
5.05,-0.201,1.098,0.103
5.06,0.062,0.358,0.02
5.07,-0.543,1.06,-0.203
5.08,-0.031,1.492,0.114
5.09,-0.094,1.157,0.092
5.1,0.025,0.488,-0.03
5.11,-0.477,0.715,-0.185
5.12,-0.156,1.824,0.047
5.13,-0.04,0.805,0.068
5.14,-0.102,0.967,-0.063
5.15,-0.414,0.267,-0.177
5.16,-0.15,1.982,0.119
5.17,-0.072,0.838,0.092
5.18,-0.089,0.833,-0.047
5.19,-0.414,0.61,-0.207
5.2,-0.143,1.513,0.19
5.21,-0.16,1.223,0.081
5.22,0.006,0.408,-0.088
5.23,-0.466,1.044,-0.188
5.24,-0.063,1.141,0.125
5.25,-0.309,1.281,0.09
5.26,-0.037,0.547,-0.046
5.27,-0.579,0.951,-0.074
5.28,0.022,1.088,0.15
5.29,-0.278,1.165,0.046
5.3,-0.161,0.771,-0.13
5.31,-0.503,0.429,-0.064
5.32,-0.143,1.379,0.181
5.33,-0.138,0.847,0.004
5.34,-0.267,0.871,-0.139
5.35,-0.399,0.439,-0.092
5.36,-0.12,1.255,0.194
5.37,-0.269,0.916,0.041
5.38,-0.191,0.637,-0.14
5.39,-0.449,1.011,-0.084
5.4,-0.029,0.919,0.159
5.41,-0.332,1.295,0.018
5.42,-0.165,0.328,-0.154
5.43,-0.401,1.272,-0.04
5.44,-0.064,0.861,0.184
5.45,-0.29,1.125,0.136
5.46,-0.294,0.616,-0.16
5.47,-0.214,1.16,-0.057
5.48,-0.144,1.177,0.192
5.49,-0.17,0.595,0.06
5.5,-0.477,1.019,-0.138
5.51,-0.247,1.047,0.07
5.52,-0.175,1.189,0.12
5.53,-0.141,0.694,0.029
5.54,-0.349,0.842,-0.236
5.55,-0.218,1.569,0.019
5.56,-0.081,0.791,0.153
5.57,-0.18,1.016,0.013
5.58,-0.36,0.402,-0.204
5.59,-0.283,1.854,0.05
5.6,-0.114,0.718,0.193
5.61,-0.1,0.893,0.025
5.62,-0.47,0.59,-0.233
5.63,-0.197,1.513,0.071
5.64,-0.099,1.103,0.182
5.65,-0.019,0.433,0.009
5.66,-0.507,1.03,-0.187
5.67,-0.102,1.39,0.053
5.68,-0.168,1.164,0.188
5.69,-0.03,0.46,0.019
5.7,-0.493,0.833,-0.161
5.71,-0.15,1.764,0.075
5.72,-0.085,0.717,0.114
5.73,-0.059,0.889,-0.029
5.74,-0.408,0.416,-0.221
5.75,-0.178,2.0,0.036
5.76,-0.012,0.729,0.154
5.77,-0.129,0.758,-0.034
5.78,-0.392,0.573,-0.223
5.79,-0.195,1.673,0.079
5.8,-0.106,1.036,0.083
5.81,-0.01,0.477,-0.035
5.82,-0.492,1.04,-0.205
5.83,-0.038,1.409,0.144
5.84,-0.179,1.328,0.069
5.85,0.068,0.436,-0.026
5.86,-0.474,0.935,-0.231
5.87,-0.089,1.455,0.105
5.88,-0.156,0.937,0.064
5.89,-0.084,0.895,-0.047
5.9,-0.472,0.247,-0.171
5.91,-0.249,1.844,0.199
5.92,-0.135,0.795,0.146
5.93,-0.209,0.911,-0.047
5.94,-0.45,0.393,-0.128
5.95,-0.135,1.561,0.185
5.96,-0.279,1.138,0.104
5.97,-0.012,0.508,-0.068
5.98,-0.535,0.922,-0.123
5.99,-0.004,1.131,0.239
6.0,-0.344,1.308,0.088
6.01,-0.032,0.489,-0.069
6.02,-0.565,0.813,-0.158
6.03,-0.105,1.297,0.181
6.04,-0.253,1.003,0.097
6.05,-0.196,0.841,-0.092
6.06,-0.376,0.395,-0.151
6.07,-0.229,1.492,0.184
6.08,-0.086,0.845,-0.033
6.09,-0.29,0.927,-0.09
6.1,-0.369,0.401,-0.1
6.11,-0.2,1.36,0.214
6.12,-0.205,0.724,0.058
6.13,-0.387,0.854,-0.14
6.14,-0.38,0.75,-0.119
6.15,-0.127,0.997,0.153
6.16,-0.251,1.26,0.027
6.17,-0.129,0.274,-0.156
6.18,-0.434,1.285,-0.028
6.19,0.086,0.886,0.122
6.2,-0.372,1.232,0.073
6.21,-0.096,0.507,-0.18
6.22,-0.392,1.14,-0.071
6.23,-0.004,1.179,0.134
6.24,-0.203,0.705,0.039
6.25,-0.351,1.009,-0.2
6.26,-0.34,0.692,-0.033
6.27,-0.153,1.249,0.125
6.28,-0.206,0.803,-0.018
6.29,-0.288,0.777,-0.18
6.3,-0.203,1.281,-0.1
6.31,-0.026,0.951,0.141
6.32,-0.243,1.094,0.01
6.33,-0.295,0.473,-0.194
6.34,-0.283,1.737,-0.025
6.35,-0.007,0.693,0.136
6.36,-0.255,1.107,0.045
6.37,-0.33,0.518,-0.248
6.38,-0.297,1.492,0.032
6.39,0.0,0.987,0.096
6.4,-0.041,0.644,0.029
6.41,-0.405,0.975,-0.204
6.42,-0.201,1.229,0.065
6.43,-0.153,1.249,0.187
6.44,0.016,0.474,0.092
6.45,-0.518,0.951,-0.17
6.46,-0.105,1.539,0.063
6.47,-0.189,0.854,0.095
6.48,0.007,0.849,-0.016
6.49,-0.448,0.57,-0.174
6.5,-0.191,2.0,0.07
6.51,-0.151,0.632,0.138
6.52,-0.067,0.935,0.027
6.53,-0.459,0.381,-0.206
6.54,-0.046,1.877,0.058
6.55,-0.121,0.98,0.131
6.56,-0.053,0.458,-0.034
6.57,-0.469,0.968,-0.193
6.58,-0.026,1.532,0.103
6.59,-0.241,1.157,0.16
6.6,0.105,0.402,-0.007
6.61,-0.573,0.999,-0.22
6.62,0.02,1.657,0.099
6.63,-0.159,1.053,0.081
6.64,0.028,0.668,-0.076
6.65,-0.453,0.503,-0.196
6.66,-0.166,1.947,0.076
6.67,-0.095,0.746,0.102
6.68,-0.132,0.986,-0.057
6.69,-0.371,0.33,-0.169
6.7,-0.137,1.903,0.126
6.71,-0.115,1.02,0.072
6.72,-0.033,0.631,-0.083
6.73,-0.478,0.843,-0.182
6.74,-0.081,1.321,0.19
6.75,-0.241,1.396,0.049
6.76,0.069,0.376,-0.077
6.77,-0.494,0.918,-0.21
6.78,-0.024,1.269,0.147
6.79,-0.277,1.094,0.07
6.8,-0.148,0.785,-0.07
6.81,-0.416,0.4,-0.124
6.82,-0.234,1.498,0.23
6.83,-0.151,0.84,0.071
6.84,-0.203,0.994,-0.086
6.85,-0.436,0.24,-0.126
6.86,-0.145,1.448,0.182
6.87,-0.227,0.996,0.007
6.88,-0.107,0.727,-0.099
6.89,-0.455,0.577,-0.125
6.9,-0.058,1.066,0.203
6.91,-0.324,1.167,-0.019
6.92,-0.123,0.313,-0.163
6.93,-0.423,1.193,-0.054
6.94,0.085,0.836,0.135
6.95,-0.351,1.34,-0.01
6.96,-0.171,0.402,-0.173
6.97,-0.384,1.134,-0.028
6.98,0.027,1.009,0.143
6.99,-0.256,0.889,0.029
7.0,-0.343,0.861,-0.184
7.01,-0.224,0.952,-0.035
7.02,-0.153,1.302,0.158
7.03,-0.264,0.623,0.127
7.04,-0.396,0.968,-0.183
7.05,-0.246,1.289,0.043
7.06,-0.132,0.996,0.133
7.07,-0.189,0.886,0.078
7.08,-0.431,0.514,-0.151
7.09,-0.293,1.748,0.054
7.1,-0.015,0.656,0.134
7.11,-0.212,1.078,0.021
7.12,-0.344,0.378,-0.253
7.13,-0.293,1.719,0.049
7.14,-0.117,0.862,0.085
7.15,0.005,0.71,-0.011
7.16,-0.407,0.836,-0.22
7.17,-0.123,1.407,0.044
7.18,-0.138,1.303,0.15
7.19,0.045,0.327,0.008
7.2,-0.501,1.017,-0.165
7.21,-0.034,1.564,0.083
7.22,-0.166,1.045,0.183
7.23,-0.062,0.68,-0.017
7.24,-0.486,0.567,-0.169
7.25,-0.173,2.0,0.094
7.26,-0.072,0.73,0.132
7.27,-0.153,0.839,-0.017
7.28,-0.315,0.344,-0.2
7.29,-0.206,1.886,0.082
7.3,-0.102,0.853,0.088
7.31,-0.056,0.683,-0.067
7.32,-0.399,0.77,-0.178
7.33,-0.121,1.463,0.113
7.34,-0.252,1.331,0.108
7.35,-0.077,0.414,-0.059
7.36,-0.446,1.01,-0.135
7.37,-0.128,1.25,0.192
7.38,-0.225,1.236,0.048
7.39,-0.088,0.663,-0.069
7.4,-0.39,0.53,-0.147
7.41,-0.206,1.493,0.225
7.42,-0.071,0.784,0.028
7.43,-0.29,1.054,-0.071
7.44,-0.346,0.185,-0.079
7.45,-0.233,1.48,0.204
7.46,-0.149,0.947,0.049
7.47,-0.174,0.715,-0.105
7.48,-0.426,0.708,-0.177
7.49,-0.021,1.073,0.159
7.5,-0.269,1.296,-0.059
7.51,-0.071,0.369,-0.148
7.52,-0.472,1.128,-0.113
7.53,0.034,0.959,0.17
7.54,-0.252,1.219,-0.008
7.55,-0.328,0.577,-0.139
7.56,-0.368,0.679,-0.035
7.57,-0.168,1.248,0.134
7.58,-0.181,0.763,0.114
7.59,-0.374,0.901,-0.164
7.6,-0.197,0.813,-0.024
7.61,-0.073,1.316,0.174
7.62,-0.29,0.745,0.074
7.63,-0.292,0.862,-0.133
7.64,-0.28,1.447,-0.036
7.65,0.004,0.867,0.183
7.66,-0.206,1.08,0.025
7.67,-0.356,0.383,-0.231
7.68,-0.294,1.752,0.037
7.69,-0.042,0.702,0.108
7.7,-0.212,1.004,0.043
7.71,-0.311,0.394,-0.249
7.72,-0.267,1.858,0.114
7.73,0.019,0.826,0.143
7.74,-0.11,0.679,-0.001
7.75,-0.455,0.867,-0.184
7.76,-0.2,1.494,0.148
7.77,-0.17,1.164,0.173
7.78,0.056,0.382,0.027
7.79,-0.532,1.06,-0.16
7.8,-0.064,1.593,0.09
7.81,-0.196,1.102,0.164
7.82,0.024,0.611,-0.012
7.83,-0.548,0.604,-0.163
7.84,-0.14,1.875,0.133
7.85,-0.124,0.771,0.092
7.86,-0.081,0.856,-0.027
7.87,-0.407,0.256,-0.172
7.88,-0.2,1.833,0.097
7.89,-0.107,0.857,0.1
7.9,-0.098,0.727,-0.073
7.91,-0.5,0.698,-0.145
7.92,-0.099,1.37,0.178
7.93,-0.264,1.25,0.081
7.94,-0.02,0.426,-0.07
7.95,-0.51,0.989,-0.161
7.96,-0.031,1.22,0.148
7.97,-0.261,1.206,0.054
7.98,-0.079,0.623,-0.095
7.99,-0.414,0.525,-0.162
8.0,-0.119,1.461,0.161
8.01,-0.094,0.865,0.054
8.02,-0.223,0.963,-0.091
8.03,-0.404,0.209,-0.128
8.04,-0.162,1.467,0.182
8.05,-0.197,0.885,0.049
8.06,-0.167,0.781,-0.135
8.07,-0.469,0.608,-0.183
8.08,-0.038,1.056,0.181
8.09,-0.291,1.261,-0.009
8.1,-0.046,0.38,-0.194
8.11,-0.536,1.019,-0.115
8.12,0.072,0.953,0.133
8.13,-0.39,1.271,0.092
8.14,-0.126,0.563,-0.153
8.15,-0.531,0.716,-0.085
8.16,-0.027,1.193,0.146
8.17,-0.196,0.807,0.03
8.18,-0.242,0.875,-0.157
8.19,-0.406,0.613,-0.052
8.2,-0.055,1.33,0.125
8.21,-0.26,0.795,0.056
8.22,-0.283,0.824,-0.098
8.23,-0.426,1.035,-0.06
8.24,-0.013,0.991,0.143
8.25,-0.243,1.223,0.009
8.26,-0.23,0.396,-0.179
8.27,-0.378,1.42,-0.059
8.28,-0.036,0.795,0.17
8.29,-0.222,1.261,0.039
8.3,-0.265,0.444,-0.166
8.31,-0.179,1.466,-0.03
8.32,-0.036,1.07,0.15
8.33,-0.079,0.66,-0.015
8.34,-0.437,0.919,-0.182
8.35,-0.136,1.131,-0.009
8.36,-0.218,1.199,0.142
8.37,-0.065,0.588,0.056
8.38,-0.492,0.997,-0.164
8.39,-0.221,1.271,0.074
8.4,-0.187,0.876,0.095
8.41,-0.105,0.944,0.017
8.42,-0.298,0.532,-0.176
8.43,-0.294,1.872,0.054
8.44,0.026,0.671,0.105
8.45,-0.072,1.008,0.002
8.46,-0.401,0.459,-0.225
8.47,-0.187,1.713,0.068
8.48,-0.119,1.006,0.109
8.49,-0.066,0.491,-0.019
8.5,-0.437,0.705,-0.221
8.51,-0.143,1.625,0.169
8.52,-0.163,1.07,0.137
8.53,0.026,0.34,-0.003
8.54,-0.471,1.092,-0.235
8.55,-0.012,1.49,0.024
8.56,-0.186,1.2,0.12
8.57,0.043,0.527,-0.043
8.58,-0.503,0.777,-0.179
8.59,-0.012,1.815,0.115
8.6,-0.099,0.829,0.079
8.61,-0.125,0.918,-0.049
8.62,-0.368,0.321,-0.2
8.63,-0.161,2.0,0.115
8.64,-0.059,0.775,0.081
8.65,-0.085,0.694,-0.088
8.66,-0.466,0.58,-0.206
8.67,-0.105,1.626,0.122
8.68,-0.215,1.197,0.044
8.69,0.006,0.448,-0.088
8.7,-0.533,1.023,-0.157
8.71,-0.073,1.279,0.174
8.72,-0.29,1.314,0.11
8.73,-0.078,0.529,-0.061
8.74,-0.442,0.726,-0.162
8.75,-0.121,1.425,0.216
8.76,-0.068,0.943,0.072
8.77,-0.24,0.936,-0.085
8.78,-0.302,0.218,-0.164
8.79,-0.296,1.62,0.176
8.8,-0.055,0.856,0.134
8.81,-0.249,0.885,-0.087
8.82,-0.404,0.467,-0.157
8.83,-0.154,1.22,0.18
8.84,-0.157,1.191,0.051
8.85,-0.067,0.457,-0.136
8.86,-0.431,0.957,-0.136
8.87,-0.012,0.956,0.184
8.88,-0.314,1.371,0.085
8.89,-0.15,0.389,-0.12
8.9,-0.48,0.777,-0.123
8.91,-0.075,1.153,0.201
8.92,-0.174,0.991,0.03
8.93,-0.22,0.821,-0.139
8.94,-0.353,0.44,-0.112
8.95,-0.141,1.345,0.156
8.96,-0.159,0.77,0.034
8.97,-0.371,0.865,-0.131
8.98,-0.353,0.777,-0.075
8.99,-0.15,1.092,0.162
9.0,-0.128,1.105,0.061
9.01,-0.386,0.414,-0.163
9.02,-0.346,1.362,0.01
9.03,-0.132,0.807,0.185
9.04,-0.258,1.253,0.067
9.05,-0.259,0.346,-0.155
9.06,-0.197,1.555,-0.03
9.07,-0.005,0.966,0.093
9.08,-0.094,0.778,0.033
9.09,-0.435,0.86,-0.171
9.1,-0.144,1.12,0.047
9.11,-0.25,1.21,0.123
9.12,-0.06,0.59,0.016
9.13,-0.438,1.033,-0.185
9.14,-0.244,1.206,0.043
9.15,-0.144,0.996,0.155
9.16,-0.147,0.871,-0.039
9.17,-0.395,0.501,-0.205
9.18,-0.182,1.895,0.084
9.19,-0.012,0.74,0.152
9.2,-0.156,0.949,-0.001
9.21,-0.356,0.363,-0.203
9.22,-0.292,1.93,0.137
9.23,-0.118,0.799,0.145
9.24,-0.104,0.633,-0.006
9.25,-0.472,0.844,-0.225
9.26,-0.073,1.513,0.129
9.27,-0.113,1.236,0.15
9.28,0.057,0.275,-0.013
9.29,-0.52,1.016,-0.154
9.3,-0.046,1.573,0.096
9.31,-0.134,1.383,0.072
9.32,-0.043,0.504,-0.056
9.33,-0.407,0.802,-0.201
9.34,-0.132,1.51,0.158
9.35,-0.091,0.97,0.064
9.36,-0.094,0.962,-0.1
9.37,-0.408,0.3,-0.17
9.38,-0.226,1.555,0.176
9.39,-0.151,0.791,0.086
9.4,-0.246,0.942,-0.112
9.41,-0.26,0.358,-0.174
9.42,-0.18,1.229,0.201
9.43,-0.291,1.111,0.023
9.44,-0.158,0.513,-0.081
9.45,-0.505,0.94,-0.077
9.46,0.027,0.922,0.239
9.47,-0.302,1.356,-0.021
9.48,-0.06,0.449,-0.143
9.49,-0.437,0.968,-0.07
9.5,-0.006,1.042,0.159
9.51,-0.383,0.986,0.022
9.52,-0.225,0.787,-0.139
9.53,-0.35,0.775,-0.021
9.54,-0.12,1.33,0.132
9.55,-0.157,0.731,0.032
9.56,-0.417,0.923,-0.195
9.57,-0.174,1.005,-0.038
9.58,-0.114,1.044,0.131
9.59,-0.183,1.004,0.021
9.6,-0.341,0.539,-0.155
9.61,-0.192,1.731,-0.027
9.62,-0.04,0.687,0.095
9.63,-0.19,1.1,0.029
9.64,-0.34,0.416,-0.18
9.65,-0.27,1.741,0.061
9.66,-0.161,0.781,0.095
9.67,-0.025,0.779,0.027
9.68,-0.468,0.839,-0.207
9.69,-0.145,1.331,0.091
9.7,-0.213,1.132,0.138
9.71,0.017,0.442,0.035
9.72,-0.481,1.001,-0.184
9.73,-0.045,1.539,0.098
9.74,-0.161,1.029,0.164
9.75,-0.03,0.635,-0.042
9.76,-0.455,0.526,-0.17
9.77,-0.047,2.0,0.084
9.78,-0.077,0.709,0.108
9.79,-0.146,0.872,0.001
9.8,-0.393,0.368,-0.226
9.81,-0.092,2.0,0.08
9.82,-0.077,0.843,0.078
9.83,-0.117,0.632,-0.029
9.84,-0.356,0.758,-0.231
9.85,-0.054,1.496,0.078
9.86,-0.143,1.341,0.061
9.87,-0.037,0.394,-0.089
9.88,-0.399,0.981,-0.177
9.89,-0.078,1.386,0.171
9.9,-0.209,1.196,0.052
9.91,-0.036,0.711,-0.109
9.92,-0.458,0.502,-0.185
9.93,-0.087,1.586,0.257
9.94,-0.037,0.885,-0.059
9.95,-0.207,0.999,-0.127
9.96,-0.354,0.225,-0.153
9.97,-0.158,1.43,0.215
9.98,-0.182,0.947,0.05
9.99,-0.144,0.831,-0.118
10.0,-0.525,0.709,-0.096
10.01,0.074,1.037,0.169
10.02,-0.292,1.315,0.009
10.03,-0.1,0.326,-0.155
10.04,-0.437,1.225,-0.084
10.05,-0.05,0.8,0.121
10.06,-0.267,1.226,0.008
10.07,-0.257,0.516,-0.183
10.08,-0.285,1.076,0.001
10.09,-0.151,1.101,0.174
10.1,-0.125,0.728,0.05
10.11,-0.371,0.885,-0.159
10.12,-0.22,1.175,0.032
10.13,-0.193,1.161,0.119
10.14,-0.002,0.496,0.003
10.15,-0.5,1.003,-0.178
10.16,-0.142,1.441,0.104
10.17,-0.185,1.003,0.123
10.18,0.004,0.725,-0.001
10.19,-0.427,0.602,-0.168
10.2,-0.111,1.966,0.084
10.21,-0.081,0.691,0.11
10.22,-0.165,0.916,-0.002
10.23,-0.39,0.322,-0.204
10.24,-0.189,1.994,0.07
10.25,-0.006,0.821,0.063
10.26,-0.067,0.618,-0.069
10.27,-0.438,0.676,-0.225
10.28,-0.087,1.52,0.157
10.29,-0.192,1.376,0.077
10.3,0.023,0.37,-0.049
10.31,-0.513,1.047,-0.122
10.32,-0.056,1.337,0.216
10.33,-0.174,1.252,-0.008
10.34,-0.07,0.653,-0.121
10.35,-0.373,0.51,-0.184
10.36,-0.133,1.438,0.202
10.37,-0.063,0.87,-0.008
10.38,-0.308,0.94,-0.1
10.39,-0.298,0.2,-0.117
10.4,-0.218,1.359,0.199
10.41,-0.168,0.912,-0.021
10.42,-0.279,0.752,-0.105
10.43,-0.407,0.678,-0.111
10.44,-0.067,0.968,0.235
10.45,-0.311,1.287,0.041
10.46,-0.181,0.324,-0.131
10.47,-0.382,1.292,-0.021
10.48,-0.011,0.858,0.204
10.49,-0.304,1.196,0.022
10.5,-0.272,0.508,-0.206
10.51,-0.217,1.226,-0.06
10.52,-0.06,1.127,0.118
10.53,-0.112,0.653,-0.006
10.54,-0.415,1.037,-0.181
10.55,-0.184,1.092,0.026
10.56,-0.121,1.168,0.137
10.57,-0.191,0.643,0.064
10.58,-0.451,0.976,-0.159
10.59,-0.25,1.578,0.076
10.6,-0.131,0.799,0.178
10.61,-0.189,0.957,0.058
10.62,-0.387,0.452,-0.155
10.63,-0.335,1.959,0.147
10.64,-0.074,0.691,0.171
10.65,-0.119,0.918,0.037
10.66,-0.36,0.483,-0.202
10.67,-0.197,1.745,0.175
10.68,-0.155,0.969,0.168
10.69,0.04,0.489,-0.01
10.7,-0.488,0.963,-0.201
10.71,-0.029,1.502,0.059
10.72,-0.153,1.238,0.139
10.73,0.034,0.363,0.025
10.74,-0.451,0.912,-0.225
10.75,-0.122,1.736,0.12
10.76,-0.103,0.921,0.111
10.77,-0.111,0.79,-0.036
10.78,-0.426,0.382,-0.188
10.79,-0.164,1.976,0.153
10.8,-0.142,0.721,0.076
10.81,-0.112,0.904,-0.047
10.82,-0.378,0.363,-0.185
10.83,-0.181,1.54,0.199
10.84,-0.21,1.098,0.053
10.85,-0.159,0.483,-0.018
10.86,-0.426,0.917,-0.109
10.87,-0.09,1.276,0.186
10.88,-0.268,1.364,0.053
10.89,-0.061,0.47,-0.079
10.9,-0.395,0.893,-0.162
10.91,-0.046,1.28,0.139
10.92,-0.192,1.296,-0.013
10.93,-0.134,0.539,-0.124
10.94,-0.457,0.651,-0.058
10.95,-0.114,1.224,0.18
10.96,-0.194,0.807,0.064
10.97,-0.336,0.933,-0.138
10.98,-0.431,0.343,0.001
10.99,0.062,0.433,0.011
11.0,-0.396,0.796,-0.231
11.01,0.032,1.63,0.067
11.02,-0.162,1.288,0.044
11.03,0.048,0.429,-0.057
11.04,-0.522,1.022,-0.161
11.05,-0.014,1.728,0.182
11.06,-0.221,1.094,0.117
11.07,-0.022,0.61,-0.036
11.08,-0.529,0.529,-0.151
11.09,-0.16,1.773,0.208
11.1,-0.151,0.76,0.085
11.11,-0.177,0.984,-0.052
11.12,-0.356,0.259,-0.117
11.13,-0.159,1.633,0.205
11.14,-0.153,0.98,0.058
11.15,-0.176,0.689,-0.143
11.16,-0.373,0.666,-0.166
11.17,-0.012,1.191,0.187
11.18,-0.245,1.346,0.015
11.19,-0.075,0.35,-0.12
11.2,-0.508,0.983,-0.148
11.21,0.014,1.043,0.162
11.22,-0.278,1.195,0.026
11.23,-0.203,0.658,-0.128
11.24,-0.503,0.516,-0.112
11.25,-0.094,1.31,0.18
11.26,-0.22,0.852,0.022
11.27,-0.313,0.913,-0.087
11.28,-0.466,0.404,-0.008
11.29,-0.127,1.323,0.221
11.3,-0.268,0.889,0.074
11.31,-0.277,0.704,-0.15
11.32,-0.38,1.068,-0.061
11.33,0.011,0.963,0.14
11.34,-0.315,1.271,0.051
11.35,-0.169,0.262,-0.175
11.36,-0.344,1.547,-0.075
11.37,0.05,0.813,0.179
11.38,-0.212,1.106,-0.019
11.39,-0.328,0.654,-0.202
11.4,-0.211,1.285,-0.053
11.41,-0.149,1.076,0.148
11.42,-0.067,0.64,0.01
11.43,-0.422,1.102,-0.22
11.44,-0.174,1.054,-0.013
11.45,-0.166,1.096,0.087
11.46,-0.15,0.736,0.037
11.47,-0.372,0.812,-0.194
11.48,-0.269,1.571,0.072
11.49,-0.076,0.854,0.161
11.5,-0.139,0.956,0.046
11.51,-0.334,0.448,-0.186
11.52,-0.332,1.92,0.087
11.53,-0.132,0.667,0.137
11.54,-0.123,0.919,0.004
11.55,-0.433,0.546,-0.191
11.56,-0.2,1.675,0.121
11.57,-0.229,1.008,0.138
11.58,0.037,0.488,0.011
11.59,-0.437,1.014,-0.206
11.6,-0.051,1.389,0.059
11.61,-0.06,1.195,0.128
11.62,-0.001,0.449,-0.011
11.63,-0.448,0.838,-0.188
11.64,-0.031,1.794,0.068
11.65,-0.103,0.926,0.123
11.66,-0.088,0.776,-0.049
11.67,-0.454,0.626,-0.153
11.68,-0.25,1.867,0.183
11.69,-0.115,0.751,0.114
11.7,-0.117,1.016,-0.047
11.71,-0.402,0.211,-0.171
11.72,-0.109,1.88,0.112
11.73,-0.159,0.964,0.109
11.74,-0.188,0.695,-0.095
11.75,-0.414,0.676,-0.184
11.76,-0.119,1.341,0.233
11.77,-0.247,1.342,0.075
11.78,-0.052,0.36,-0.033
11.79,-0.491,0.98,-0.134
11.8,-0.06,1.193,0.235
11.81,-0.254,1.246,0.063
11.82,-0.146,0.65,-0.067
11.83,-0.431,0.548,-0.127
11.84,-0.121,1.466,0.201
11.85,-0.131,0.898,0.108
11.86,-0.242,0.958,-0.082
11.87,-0.428,0.27,-0.137
11.88,-0.155,1.441,0.214
11.89,-0.174,0.894,0.025
11.9,-0.23,0.715,-0.174
11.91,-0.418,0.698,-0.186
11.92,-0.028,1.041,0.174
11.93,-0.254,1.301,-0.001
11.94,-0.17,0.287,-0.134
11.95,-0.521,1.065,-0.089
11.96,0.003,0.937,0.155
11.97,-0.334,1.221,0.094
11.98,-0.23,0.56,-0.093
11.99,-0.471,0.87,-0.02
12.0,-0.107,1.218,0.245
12.01,-0.177,0.807,0.074
12.02,-0.357,0.94,-0.138
12.03,-0.333,0.659,-0.048
12.04,-0.098,1.3,0.169
12.05,-0.142,0.815,0.048
12.06,-0.347,0.77,-0.161
12.07,-0.308,1.121,-0.063
12.08,-0.019,0.971,0.149
12.09,-0.209,1.189,-0.002
12.1,-0.218,0.395,-0.189
12.11,-0.285,1.664,-0.101
12.12,-0.043,0.768,0.136
12.13,-0.165,1.139,0.041
12.14,-0.329,0.529,-0.196
12.15,-0.241,1.427,-0.031
12.16,-0.156,1.006,0.128
12.17,-0.13,0.669,0.018
12.18,-0.406,0.998,-0.171
12.19,-0.147,1.19,0.016
12.2,-0.209,1.208,0.175
12.21,-0.086,0.524,0.05
12.22,-0.514,1.015,-0.165
12.23,-0.24,1.483,0.051
12.24,-0.123,0.858,0.163
12.25,-0.15,0.903,0.035
12.26,-0.407,0.478,-0.158
12.27,-0.348,1.867,0.131
12.28,-0.07,0.667,0.174
12.29,-0.186,0.969,0.048
12.3,-0.384,0.481,-0.136
12.31,-0.3,1.746,0.106
12.32,-0.142,0.945,0.139
12.33,-0.043,0.515,0.015
12.34,-0.495,0.968,-0.173
12.35,-0.076,1.43,0.092
12.36,-0.202,1.137,0.135
12.37,0.052,0.436,-0.008
12.38,-0.498,0.989,-0.225
12.39,0.012,1.7,0.043
12.4,-0.096,0.921,0.088
12.41,-0.045,0.714,-0.009
12.42,-0.423,0.464,-0.197
12.43,-0.122,2.0,0.061
12.44,0.001,0.683,0.103
12.45,-0.102,0.929,-0.013
12.46,-0.392,0.422,-0.203
12.47,-0.106,1.909,0.149
12.48,-0.103,0.902,0.113
12.49,-0.111,0.744,-0.082
12.5,-0.437,0.656,-0.234
12.51,-0.081,1.482,0.121
12.52,-0.241,1.244,0.084
12.53,-0.033,0.415,-0.071
12.54,-0.529,0.978,-0.184
12.55,-0.038,1.22,0.189
12.56,-0.211,1.333,0.065
12.57,-0.187,0.511,-0.021
12.58,-0.466,0.674,-0.117
12.59,-0.111,1.516,0.212
12.6,-0.128,0.903,0.06
12.61,-0.173,0.979,-0.117
12.62,-0.371,0.229,-0.215
12.63,-0.191,1.559,0.188
12.64,-0.169,0.85,0.058
12.65,-0.173,0.869,-0.105
12.66,-0.427,0.509,-0.214
12.67,-0.047,1.209,0.167
12.68,-0.269,1.303,0.005
12.69,-0.117,0.359,-0.133
12.7,-0.491,0.97,-0.152
12.71,0.043,0.985,0.128
12.72,-0.292,1.343,0.024
12.73,-0.126,0.465,-0.104
12.74,-0.484,0.739,-0.088
12.75,-0.054,1.193,0.131
12.76,-0.177,0.877,0.066
12.77,-0.334,0.891,-0.134
12.78,-0.435,0.347,-0.086
12.79,-0.236,1.364,0.206
12.8,-0.166,0.758,0.091
12.81,-0.325,0.814,-0.101
12.82,-0.34,0.772,-0.069
12.83,-0.174,1.099,0.234
12.84,-0.264,1.096,0.103
12.85,-0.228,0.428,-0.12
12.86,-0.447,1.204,-0.038
12.87,-0.094,0.817,0.166
12.88,-0.256,1.255,0.059
12.89,-0.236,0.41,-0.165
12.9,-0.279,1.153,-0.049
12.91,-0.07,1.05,0.132
12.92,-0.167,0.792,0.015
12.93,-0.304,0.897,-0.182
12.94,-0.165,1.066,-0.105
12.95,-0.08,1.295,0.155
12.96,-0.075,0.579,-0.006
12.97,-0.434,1.027,-0.187
12.98,-0.132,1.294,-0.079
12.99,-0.09,1.032,0.065
13.0,-0.129,0.934,-0.013
13.01,-0.276,0.601,-0.21
13.02,-0.301,1.728,-0.054
13.03,0.003,0.712,0.094
13.04,-0.183,1.114,0.038
13.05,-0.316,0.539,-0.227
13.06,-0.279,1.66,0.007
13.07,-0.068,0.896,0.11
13.08,-0.056,0.723,0.044
13.09,-0.404,0.968,-0.223
13.1,-0.189,1.292,0.032
13.11,-0.171,1.162,0.164
13.12,0.045,0.489,0.035
13.13,-0.496,1.03,-0.205
13.14,-0.131,1.458,0.062
13.15,-0.21,0.951,0.123
13.16,-0.049,0.777,0.025
13.17,-0.445,0.57,-0.203
13.18,-0.206,1.896,0.127
13.19,-0.094,0.649,0.168
13.2,-0.139,0.971,0.035
13.21,-0.445,0.38,-0.182
13.22,-0.139,1.864,0.114
13.23,-0.163,0.821,0.173
13.24,-0.012,0.638,0.024
13.25,-0.516,0.853,-0.226
13.26,-0.008,1.474,0.094
13.27,-0.163,1.159,0.147
13.28,0.146,0.385,0.017
13.29,-0.574,1.04,-0.247
13.3,0.028,1.428,0.102
13.31,-0.17,1.302,0.095
13.32,0.028,0.41,-0.039
13.33,-0.493,0.859,-0.22
13.34,-0.129,1.595,0.133
13.35,-0.064,0.876,0.082
13.36,-0.086,0.865,-0.063
13.37,-0.353,0.365,-0.201
13.38,-0.224,1.905,0.046
13.39,-0.051,0.728,0.108
13.4,-0.148,0.87,-0.07
13.41,-0.353,0.479,-0.224
13.42,-0.15,1.671,0.143
13.43,-0.122,1.169,0.112
13.44,-0.083,0.443,-0.048
13.45,-0.478,1.036,-0.181
13.46,-0.108,1.364,0.137
13.47,-0.268,1.317,0.178
13.48,-0.063,0.442,-0.03
13.49,-0.511,0.833,-0.133
13.5,-0.11,1.41,0.181
13.51,-0.15,0.958,0.108
13.52,-0.109,0.908,-0.102
13.53,-0.343,0.317,-0.167
13.54,-0.198,1.717,0.153
13.55,-0.067,0.785,0.137
13.56,-0.217,0.943,-0.078
13.57,-0.473,0.357,-0.161
13.58,-0.097,1.368,0.21
13.59,-0.207,1.187,0.044
13.6,-0.025,0.477,-0.108
13.61,-0.512,0.932,-0.164
13.62,0.057,1.083,0.16
13.63,-0.286,1.257,0.03
13.64,-0.12,0.48,-0.097
13.65,-0.497,0.771,-0.128
13.66,-0.105,1.17,0.191
13.67,-0.152,1.113,0.039
13.68,-0.24,0.793,-0.066
13.69,-0.399,0.29,-0.083
13.7,-0.18,1.426,0.25
13.71,-0.129,0.802,0.003
13.72,-0.216,0.912,-0.162
13.73,-0.429,0.432,-0.146
13.74,-0.098,1.209,0.177
13.75,-0.245,0.998,-0.041
13.76,-0.12,0.571,-0.173
13.77,-0.391,1.128,-0.153
13.78,0.003,0.842,0.209
13.79,-0.338,1.296,0.049
13.8,-0.21,0.402,-0.142
13.81,-0.42,1.298,-0.01
13.82,-0.062,0.948,0.193
13.83,-0.225,0.912,0.055
13.84,-0.358,0.822,-0.158
13.85,-0.251,1.009,-0.048
13.86,-0.138,1.283,0.181
13.87,-0.117,0.606,0.079
13.88,-0.398,1.048,-0.166
13.89,-0.228,1.094,-0.071
13.9,-0.098,1.133,0.156
13.91,-0.276,0.902,0.033
13.92,-0.289,0.667,-0.187
13.93,-0.273,1.685,-0.023
13.94,-0.014,0.748,0.167
13.95,-0.246,1.135,0.061
13.96,-0.258,0.424,-0.213
13.97,-0.308,1.725,0.038
13.98,-0.037,0.879,0.196
13.99,-0.163,0.732,0.056
14.0,-0.384,0.831,-0.26
14.01,-0.175,1.385,0.046
14.02,-0.182,1.125,0.167
14.03,0.008,0.442,0.037
14.04,-0.53,1.107,-0.2
14.05,-0.149,1.396,0.073
14.06,-0.221,0.976,0.184
14.07,-0.013,0.648,0.029
14.08,-0.498,0.652,-0.193
14.09,-0.022,1.667,0.1
14.1,-0.128,0.904,0.162
14.11,-0.035,0.881,-0.063
14.12,-0.471,0.38,-0.234
14.13,-0.089,2.0,0.081
14.14,-0.044,0.696,0.123
14.15,-0.125,0.814,-0.054
14.16,-0.456,0.441,-0.22
14.17,-0.094,1.71,0.129
14.18,-0.132,1.027,0.07
14.19,0.001,0.464,-0.046
14.2,-0.546,0.963,-0.187
14.21,-0.07,1.273,0.167
14.22,-0.243,1.35,0.112
14.23,-0.094,0.394,-0.086
14.24,-0.45,0.89,-0.144
14.25,-0.184,1.326,0.185
14.26,-0.209,1.009,0.126
14.27,-0.182,0.856,-0.061
14.28,-0.426,0.296,-0.131
14.29,-0.217,1.579,0.218
14.3,-0.041,0.79,0.027
14.31,-0.269,0.993,-0.113
14.32,-0.359,0.318,-0.167
14.33,-0.159,1.379,0.156
14.34,-0.118,1.038,0.022
14.35,-0.109,0.574,-0.153
14.36,-0.475,0.837,-0.126
14.37,0.013,0.977,0.144
14.38,-0.221,1.339,-0.031
14.39,-0.071,0.355,-0.125
14.4,-0.482,0.935,-0.133
14.41,0.005,1.09,0.137
14.42,-0.273,0.967,0.031
14.43,-0.283,0.848,-0.129
14.44,-0.378,0.412,-0.067
14.45,-0.183,1.313,0.138
14.46,-0.221,0.704,0.069
14.47,-0.267,0.953,-0.11
14.48,-0.284,0.832,-0.059
14.49,-0.095,1.197,0.237
14.5,-0.224,0.925,0.005
14.51,-0.276,0.612,-0.129
14.52,-0.261,1.48,-0.078
14.53,0.008,0.786,0.162
14.54,-0.243,1.202,0.015
14.55,-0.249,0.459,-0.22
14.56,-0.314,1.411,-0.024
14.57,-0.049,0.808,0.143
14.58,-0.24,0.983,0.001
14.59,-0.269,0.783,-0.23
14.6,-0.161,1.279,-0.014
14.61,-0.087,1.15,0.14
14.62,-0.045,0.509,0.041
14.63,-0.417,1.137,-0.195
14.64,-0.201,1.308,0.018
14.65,-0.194,1.061,0.155
14.66,-0.094,0.677,0.029
14.67,-0.482,0.667,-0.218
14.68,-0.18,1.8,0.079
14.69,-0.073,0.704,0.131
14.7,-0.155,0.947,0.057
14.71,-0.36,0.428,-0.194
14.72,-0.261,1.926,0.131
14.73,-0.159,0.732,0.197
14.74,-0.062,0.8,0.0
14.75,-0.466,0.695,-0.255
14.76,-0.052,1.568,0.11
14.77,-0.181,1.122,0.117
14.78,-0.007,0.338,0.026
14.79,-0.516,1.058,-0.2
14.8,-0.038,1.445,0.099
14.81,-0.152,1.111,0.139
14.82,0.037,0.559,-0.039
14.83,-0.537,0.716,-0.202
14.84,-0.069,1.909,0.073
14.85,-0.096,0.774,0.126
14.86,-0.069,0.938,-0.004
14.87,-0.408,0.306,-0.203
14.88,-0.176,2.0,0.126
14.89,-0.033,0.799,0.111
14.9,-0.165,0.884,-0.054
14.91,-0.389,0.38,-0.212
14.92,-0.106,1.577,0.144
14.93,-0.171,1.041,0.039
14.94,-0.083,0.593,-0.084
14.95,-0.471,0.86,-0.145
14.96,-0.015,1.209,0.183
14.97,-0.251,1.388,0.047
14.98,-0.019,0.47,-0.058
14.99,-0.473,0.884,-0.193
15.0,-0.008,1.155,0.201
15.01,-0.21,1.062,0.07
15.02,-0.178,0.739,-0.123
15.03,-0.373,0.387,-0.139
15.04,-0.126,1.448,0.121
15.05,-0.142,0.811,0.006
15.06,-0.291,0.942,-0.107
15.07,-0.43,0.308,-0.143
15.08,-0.066,1.283,0.188
15.09,-0.224,1.025,-0.01
15.1,-0.145,0.61,-0.141
15.11,-0.451,0.877,-0.109
15.12,-0.018,0.895,0.18
15.13,-0.293,1.372,0.077
15.14,-0.157,0.323,-0.148
15.15,-0.437,1.189,-0.048
15.16,-0.056,0.924,0.215
15.17,-0.263,1.035,0.09
15.18,-0.304,0.76,-0.164
15.19,-0.326,0.891,-0.038
15.2,-0.157,1.251,0.177
15.21,-0.138,0.68,0.044
15.22,-0.343,0.978,-0.158
15.23,-0.208,1.132,-0.059
15.24,-0.1,1.134,0.125
15.25,-0.136,0.804,0.011
15.26,-0.388,0.73,-0.18
15.27,-0.24,1.631,-0.023
15.28,-0.122,0.716,0.137
15.29,-0.221,1.13,0.051
15.3,-0.279,0.439,-0.21
15.31,-0.287,1.76,0.063
15.32,-0.101,0.735,0.137
15.33,-0.105,0.809,-0.008
15.34,-0.351,0.8,-0.217
15.35,-0.152,1.422,0.07
15.36,-0.13,1.115,0.163
15.37,0.025,0.412,-0.023
15.38,-0.549,1.037,-0.211
15.39,-0.065,1.402,0.104
15.4,-0.238,1.101,0.111
15.41,0.006,0.535,0.035
15.42,-0.502,0.815,-0.182
15.43,-0.158,1.786,0.08
15.44,-0.047,0.682,0.168
15.45,-0.039,0.761,-0.06
15.46,-0.428,0.404,-0.179
15.47,-0.164,1.959,0.093
15.48,-0.118,0.671,0.152
15.49,-0.116,0.937,-0.071
15.5,-0.402,0.401,-0.203
15.51,-0.155,1.817,0.113
15.52,-0.141,1.005,0.057
15.53,-0.006,0.504,-0.075
15.54,-0.543,0.932,-0.177
15.55,-0.096,1.274,0.21
15.56,-0.269,1.286,0.073
15.57,0.013,0.476,-0.076
15.58,-0.563,0.85,-0.133
15.59,-0.068,1.301,0.142
15.6,-0.189,1.058,0.075
15.61,-0.169,0.79,-0.116
15.62,-0.386,0.356,-0.192
15.63,-0.152,1.46,0.147
15.64,-0.068,0.832,0.031
15.65,-0.235,0.964,-0.112
15.66,-0.438,0.298,-0.154
15.67,-0.089,1.327,0.114
15.68,-0.205,0.987,0.006
15.69,-0.177,0.607,-0.127
15.7,-0.5,0.865,-0.115
15.71,-0.034,1.013,0.17
15.72,-0.272,1.186,0.016
15.73,-0.239,0.331,-0.163
15.74,-0.276,1.581,-0.068
15.75,0.021,0.782,0.203
15.76,-0.318,1.134,0.051
15.77,-0.252,0.547,-0.143
15.78,-0.36,1.503,-0.008
15.79,-0.15,0.978,0.187
15.8,-0.104,0.679,0.044
15.81,-0.491,1.047,-0.198
15.82,-0.073,1.202,-0.006
15.83,-0.18,1.148,0.154
15.84,-0.029,0.598,0.05
15.85,-0.409,1.05,-0.213
15.86,-0.189,1.529,0.055
15.87,-0.129,0.866,0.158
15.88,-0.068,0.852,-0.018
15.89,-0.415,0.419,-0.187
15.9,-0.158,2.0,0.107
15.91,-0.117,0.664,0.175
15.92,-0.127,0.889,0.044
15.93,-0.378,0.552,-0.192
15.94,-0.12,1.796,0.161
15.95,-0.043,0.922,0.103
15.96,-0.072,0.503,-0.012
15.97,-0.458,0.955,-0.233
15.98,0.006,1.494,0.084
15.99,-0.166,1.177,0.132
16.0,0.079,0.372,-0.012
16.01,-0.463,0.972,-0.232
16.02,-0.053,1.594,0.043
16.03,-0.107,1.017,0.067
16.04,-0.073,0.753,-0.05
16.05,-0.402,0.397,-0.162
16.06,-0.174,1.972,0.142
16.07,-0.081,0.742,0.125
16.08,-0.215,0.962,-0.064
16.09,-0.409,0.357,-0.118
16.1,-0.249,1.731,0.191
16.11,-0.198,1.074,0.136
16.12,-0.062,0.602,-0.008
16.13,-0.555,0.852,-0.131
16.14,-0.03,1.227,0.243
16.15,-0.357,1.351,0.109
16.16,-0.02,0.506,-0.056
16.17,-0.552,0.841,-0.122
16.18,-0.049,1.244,0.197
16.19,-0.244,1.139,0.087
16.2,-0.163,0.781,-0.097
16.21,-0.463,0.381,-0.111
16.22,-0.158,1.441,0.161
16.23,-0.138,0.792,-0.045
16.24,-0.23,1.007,-0.11
16.25,-0.349,0.375,-0.153
16.26,-0.137,1.256,0.16
16.27,-0.138,0.989,-0.0
16.28,-0.279,0.621,-0.182
16.29,-0.387,0.992,-0.053
16.3,-0.133,0.775,0.14
16.31,-0.264,1.291,0.035
16.32,-0.176,0.303,-0.197
16.33,-0.356,1.469,-0.05
16.34,-0.012,0.848,0.172
16.35,-0.202,0.931,-0.032
16.36,-0.309,0.75,-0.225
16.37,-0.178,1.218,-0.031
16.38,-0.244,1.145,0.164
16.39,-0.077,0.589,0.065
16.4,-0.468,1.077,-0.185
16.41,-0.122,1.234,0.06
16.42,-0.147,1.106,0.091
16.43,-0.083,0.667,-0.01
16.44,-0.469,0.764,-0.182
16.45,-0.113,1.806,0.069
16.46,-0.139,0.735,0.156
16.47,-0.093,0.947,0.015
16.48,-0.453,0.384,-0.228
16.49,-0.13,1.926,0.117
16.5,-0.139,0.753,0.145
16.51,-0.129,0.835,-0.017
16.52,-0.409,0.483,-0.237
16.53,-0.125,1.826,0.146
16.54,-0.02,1.011,0.12
16.55,-0.097,0.459,-0.018
16.56,-0.491,0.981,-0.189
16.57,-0.106,1.482,0.122
16.58,-0.086,1.358,0.089
16.59,-0.035,0.392,-0.037
16.6,-0.373,0.974,-0.198
16.61,-0.168,1.342,0.16
16.62,-0.088,1.018,0.114
16.63,-0.159,0.826,-0.089
16.64,-0.397,0.331,-0.108
16.65,-0.295,1.64,0.234
16.66,-0.019,0.791,0.121
16.67,-0.251,0.984,-0.121
16.68,-0.427,0.291,-0.126
16.69,-0.159,1.393,0.128
16.7,-0.186,1.089,-0.028
16.71,-0.118,0.563,-0.117
16.72,-0.36,0.9,-0.166
16.73,-0.011,0.919,0.165
16.74,-0.284,1.344,-0.018
16.75,-0.138,0.456,-0.136
16.76,-0.483,0.927,-0.085
16.77,-0.02,0.955,0.121
16.78,-0.26,1.02,-0.024
16.79,-0.149,0.744,-0.145
16.8,-0.231,1.07,-0.095
16.81,-0.089,1.297,0.194
16.82,-0.21,0.529,0.031
16.83,-0.38,1.139,-0.155
16.84,-0.187,1.166,-0.001
16.85,-0.097,1.08,0.16
16.86,-0.214,0.795,0.003
16.87,-0.358,0.705,-0.181
16.88,-0.251,1.772,0.021
16.89,-0.08,0.656,0.13
16.9,-0.214,1.024,0.02
16.91,-0.409,0.378,-0.201
16.92,-0.163,1.884,0.11
16.93,-0.104,0.826,0.188
16.94,-0.106,0.661,0.018
16.95,-0.548,0.726,-0.193
16.96,-0.083,1.556,0.12
16.97,-0.164,1.244,0.161
16.98,-0.009,0.266,-0.004
16.99,-0.594,1.063,-0.142
17.0,-0.053,1.513,0.156
17.01,-0.091,1.152,0.122
17.02,-0.015,0.522,-0.06
17.03,-0.367,0.641,-0.188
17.04,-0.235,1.741,0.092
17.05,0.007,0.801,0.057
17.06,-0.14,1.023,-0.066
17.07,-0.351,0.251,-0.183
17.08,-0.226,1.866,0.18
17.09,-0.156,0.894,0.116
17.1,-0.122,0.781,-0.04
17.11,-0.429,0.619,-0.198
17.12,-0.081,1.279,0.235
17.13,-0.328,1.33,0.092
17.14,0.031,0.46,-0.087
17.15,-0.583,0.948,-0.124
17.16,-0.018,1.05,0.219
17.17,-0.278,1.28,0.022
17.18,-0.119,0.644,-0.092
17.19,-0.56,0.573,-0.122
17.2,-0.04,1.25,0.16
17.21,-0.206,0.856,0.028
17.22,-0.299,0.902,-0.101
17.23,-0.354,0.519,-0.039
17.24,-0.13,1.282,0.228
17.25,-0.283,0.781,0.048
17.26,-0.288,0.831,-0.158
17.27,-0.249,1.177,-0.064
17.28,-0.028,0.927,0.153
17.29,-0.266,1.135,-0.006
17.3,-0.288,0.434,-0.185
17.31,-0.288,1.615,0.018
17.32,-0.048,0.644,0.103
17.33,-0.196,1.07,0.013
17.34,-0.367,0.399,-0.257
17.35,-0.203,1.831,0.069
17.36,-0.113,0.805,0.096
17.37,-0.044,0.696,0.014
17.38,-0.533,0.824,-0.205
17.39,-0.095,1.494,0.145
17.4,-0.218,1.126,0.175
17.41,0.011,0.361,-0.007
17.42,-0.547,1.018,-0.169
17.43,0.018,1.5,0.126
17.44,-0.088,1.18,0.124
17.45,-0.011,0.541,-0.047
17.46,-0.494,0.598,-0.199
17.47,-0.194,1.961,0.104
17.48,0.003,0.712,0.097
17.49,-0.136,0.96,-0.085
17.5,-0.403,0.274,-0.203
17.51,-0.178,1.832,0.059
17.52,-0.079,0.912,0.103
17.53,-0.174,0.694,-0.048
17.54,-0.451,0.683,-0.122
17.55,-0.114,1.323,0.241
17.56,-0.223,1.332,0.067
17.57,-0.07,0.462,-0.048
17.58,-0.479,0.973,-0.149
17.59,-0.05,1.137,0.171
17.6,-0.217,1.297,0.072
17.61,-0.169,0.63,-0.104
17.62,-0.472,0.524,-0.133
17.63,-0.101,1.314,0.179
17.64,-0.162,0.797,-0.039
17.65,-0.218,1.013,-0.107
17.66,-0.41,0.314,-0.086
17.67,-0.118,1.334,0.182
17.68,-0.269,0.882,0.038
17.69,-0.276,0.739,-0.144
17.7,-0.353,0.879,-0.06
17.71,-0.017,0.926,0.152
17.72,-0.323,1.237,0.019
17.73,-0.107,0.394,-0.172
17.74,-0.373,1.43,-0.031
17.75,0.032,0.807,0.17
17.76,-0.254,1.147,0.028
17.77,-0.306,0.579,-0.197
17.78,-0.224,1.319,-0.027
17.79,-0.057,1.052,0.121
17.8,-0.135,0.628,0.004
17.81,-0.332,1.07,-0.188
17.82,-0.241,1.211,0.035
17.83,-0.122,1.221,0.134
17.84,-0.091,0.509,0.054
17.85,-0.493,0.915,-0.184
17.86,-0.095,1.611,0.032
17.87,-0.117,0.846,0.172
17.88,-0.108,0.896,0.017
17.89,-0.505,0.36,-0.19
17.9,-0.181,2.0,0.157
17.91,-0.163,0.621,0.164
17.92,-0.071,0.93,0.026
17.93,-0.471,0.584,-0.178
17.94,-0.103,1.703,0.075
17.95,-0.092,1.024,0.144
17.96,0.078,0.414,-0.073
17.97,-0.49,0.99,-0.185
17.98,0.021,1.485,0.082
17.99,-0.199,1.22,0.142
18.0,-0.002,0.424,-0.008
18.01,-0.528,0.852,-0.179
18.02,-0.037,1.738,0.1
18.03,-0.083,0.885,0.108
18.04,-0.106,0.796,-0.045
18.05,-0.435,0.31,-0.21
18.06,-0.184,1.932,0.103
18.07,-0.051,0.758,0.127
18.08,-0.249,0.788,-0.02
18.09,-0.387,0.441,-0.166
18.1,-0.241,1.618,0.161
18.11,-0.182,1.1,0.093
18.12,-0.091,0.561,-0.089
18.13,-0.394,0.642,-0.178
18.14,-0.024,1.142,0.167
18.15,-0.259,1.375,-0.008
18.16,0.025,0.415,-0.103
18.17,-0.543,0.924,-0.17
18.18,0.061,0.916,0.199
18.19,-0.289,1.314,0.016
18.2,-0.26,0.377,-0.109
18.21,-0.395,0.916,-0.031
18.22,-0.097,1.058,0.229
18.23,-0.16,0.916,0.104
18.24,-0.337,0.868,-0.185
18.25,-0.308,0.67,-0.051
18.26,-0.057,1.347,0.155
18.27,-0.152,0.719,0.046
18.28,-0.363,0.921,-0.127
18.29,-0.243,1.195,-0.117
18.3,-0.074,1.126,0.118
18.31,-0.117,0.95,0.016
18.32,-0.312,0.611,-0.204
18.33,-0.293,1.579,-0.026
18.34,-0.066,0.686,0.168
18.35,-0.327,1.21,0.031
18.36,-0.23,0.455,-0.206
18.37,-0.27,1.665,-0.047
18.38,-0.04,0.864,0.15
18.39,-0.099,0.747,0.015
18.4,-0.375,0.923,-0.209
18.41,-0.186,1.291,0.013
18.42,-0.175,1.2,0.194
18.43,0.021,0.451,0.048
18.44,-0.517,1.059,-0.18
18.45,-0.166,1.46,0.112
18.46,-0.216,0.956,0.182
18.47,-0.063,0.727,0.021
18.48,-0.43,0.6,-0.179
18.49,-0.228,1.947,0.104
18.5,-0.025,0.637,0.159
18.51,-0.161,0.952,0.02
18.52,-0.419,0.362,-0.183
18.53,-0.15,1.924,0.089
18.54,-0.081,0.827,0.091
18.55,-0.086,0.575,-0.051
18.56,-0.464,0.829,-0.229
18.57,0.063,1.578,0.101
18.58,-0.201,1.18,0.163
18.59,0.013,0.314,-0.025
18.6,-0.457,1.021,-0.239
18.61,-0.002,1.601,0.081
18.62,0.004,1.141,0.009
18.63,-0.011,0.538,-0.058
18.64,-0.415,0.58,-0.182
18.65,-0.166,1.91,0.106
18.66,-0.011,0.722,0.074
18.67,-0.108,0.997,-0.04
18.68,-0.407,0.261,-0.185
18.69,-0.185,1.931,0.109
18.7,-0.01,0.952,0.06
18.71,-0.116,0.662,-0.065
18.72,-0.394,0.794,-0.241
18.73,-0.128,1.441,0.13
18.74,-0.22,1.342,0.113
18.75,0.007,0.422,-0.083
18.76,-0.485,0.949,-0.19
18.77,-0.112,1.219,0.146
18.78,-0.149,1.211,0.034
18.79,-0.246,0.652,-0.076
18.8,-0.353,0.429,-0.133
18.81,-0.198,1.537,0.163
18.82,-0.094,0.852,0.109
18.83,-0.208,1.047,-0.07
18.84,-0.419,0.2,-0.107
18.85,-0.142,1.443,0.19
18.86,-0.241,0.964,0.049
18.87,-0.124,0.753,-0.114
18.88,-0.494,0.683,-0.146
18.89,0.026,1.019,0.206
18.9,-0.37,1.264,-0.037
18.91,-0.08,0.439,-0.111
18.92,-0.565,0.975,-0.095
18.93,0.032,0.783,0.219
18.94,-0.421,1.281,0.067
18.95,-0.186,0.41,-0.143
18.96,-0.328,1.414,-0.055
18.97,-0.03,0.99,0.172
18.98,-0.227,0.813,0.018
18.99,-0.299,0.85,-0.141
19.0,-0.182,1.18,-0.06
19.01,-0.151,1.238,0.167
19.02,-0.023,0.527,0.031
19.03,-0.428,1.089,-0.217
19.04,-0.122,1.319,0.005
19.05,-0.128,1.0,0.121
19.06,-0.152,0.867,0.004
19.07,-0.309,0.606,-0.232
19.08,-0.185,1.858,0.041
19.09,-0.068,0.709,0.137
19.1,-0.095,0.982,0.025
19.11,-0.388,0.426,-0.272
19.12,-0.119,1.834,0.092
19.13,-0.145,0.8,0.12
19.14,0.05,0.66,0.009
19.15,-0.559,0.894,-0.204
19.16,-0.055,1.451,0.131
19.17,-0.212,1.138,0.177
19.18,0.115,0.377,-0.028
19.19,-0.571,1.029,-0.184
19.2,0.019,1.544,0.062
19.21,-0.12,1.04,0.155
19.22,0.004,0.635,-0.037
19.23,-0.554,0.57,-0.143
19.24,-0.097,1.973,0.118
19.25,-0.02,0.709,0.157
19.26,-0.156,0.895,-0.016
19.27,-0.39,0.321,-0.214
19.28,-0.16,1.934,0.077
19.29,-0.068,0.867,0.03
19.3,-0.069,0.612,-0.019
19.31,-0.425,0.776,-0.249
19.32,-0.13,1.452,0.129
19.33,-0.077,0.917,0.176
19.34,-0.038,0.571,0.032
19.35,-0.508,0.929,-0.226
19.36,-0.129,1.403,0.11
19.37,-0.263,1.111,0.169
19.38,0.018,0.439,0.057
19.39,-0.584,1.01,-0.146
19.4,-0.087,1.572,0.067
19.41,-0.063,0.953,0.166
19.42,-0.068,0.736,-0.012
19.43,-0.477,0.428,-0.166
19.44,-0.133,2.0,0.078
19.45,-0.087,0.716,0.196
19.46,-0.211,0.885,0.01
19.47,-0.485,0.368,-0.199
19.48,-0.104,1.901,0.121
19.49,0.0,0.943,0.033
19.5,-0.027,0.463,-0.021
19.51,-0.544,0.936,-0.259
19.52,-0.018,1.456,0.091
19.53,-0.18,1.278,0.105
19.54,-0.026,0.431,0.003
19.55,-0.406,0.975,-0.195
19.56,-0.169,1.341,0.179
19.57,-0.163,1.051,0.141
19.58,-0.166,0.552,-0.028
19.59,-0.449,0.639,-0.159
19.6,-0.188,1.353,0.22
19.61,-0.112,0.843,0.051
19.62,-0.172,1.021,-0.064
19.63,-0.516,0.237,-0.162
19.64,-0.114,1.483,0.184
19.65,-0.15,0.801,-0.059
19.66,-0.269,0.854,-0.156
19.67,-0.45,0.573,-0.153
19.68,-0.062,1.038,0.181
19.69,-0.354,1.274,0.0
19.7,-0.085,0.383,-0.131
19.71,-0.525,1.159,-0.076
19.72,0.07,0.883,0.159
19.73,-0.396,1.219,0.063
19.74,-0.151,0.554,-0.165
19.75,-0.424,1.021,-0.03
19.76,-0.034,1.137,0.176
19.77,-0.168,0.79,0.05
19.78,-0.334,0.982,-0.16
19.79,-0.186,0.853,-0.04
19.8,-0.121,1.251,0.153
19.81,-0.176,0.702,0.05
19.82,-0.393,0.98,-0.127
19.83,-0.208,1.343,-0.041
19.84,-0.087,0.92,0.169
19.85,-0.15,1.026,-0.003
19.86,-0.302,0.5,-0.249
19.87,-0.232,1.854,0.005
19.88,-0.113,0.677,0.145
19.89,-0.187,1.011,0.046
19.9,-0.372,0.515,-0.233
19.91,-0.195,1.62,0.043
19.92,-0.07,0.953,0.136
19.93,0.021,0.561,-0.017
19.94,-0.487,1.039,-0.198
19.95,-0.061,1.358,0.048
19.96,-0.293,1.107,0.19
19.97,0.05,0.5,0.083
19.98,-0.532,0.946,-0.175
19.99,-0.114,1.591,0.138
20.0,-0.151,0.859,0.103
20.01,-0.117,0.802,0.027
20.02,-0.382,0.472,-0.163
20.03,-0.175,2.0,0.058
20.04,-0.029,0.593,0.162
20.05,-0.157,0.92,0.011
20.06,-0.411,0.394,-0.19
20.07,-0.136,1.95,0.096
20.08,-0.056,0.964,0.165
20.09,-0.105,0.454,-0.034
20.1,-0.47,0.933,-0.219
20.11,-0.019,1.497,0.059
20.12,-0.078,1.307,0.062
20.13,0.052,0.347,-0.019
20.14,-0.488,0.929,-0.213
20.15,-0.036,1.47,0.127
20.16,-0.079,1.047,0.071
20.17,-0.122,0.821,-0.048
20.18,-0.394,0.389,-0.157
20.19,-0.242,1.863,0.145
20.2,-0.012,0.829,0.08
20.21,-0.212,0.939,-0.074
20.22,-0.347,0.328,-0.153
20.23,-0.231,1.578,0.222
20.24,-0.144,1.021,0.066
20.25,-0.1,0.644,-0.089
20.26,-0.414,0.781,-0.171
20.27,-0.023,1.163,0.162
20.28,-0.283,1.397,-0.009
20.29,-0.022,0.453,-0.08
20.3,-0.543,0.841,-0.174
20.31,0.037,1.133,0.165
20.32,-0.201,1.164,0.044
20.33,-0.224,0.759,-0.095
20.34,-0.467,0.359,-0.122
20.35,-0.148,1.384,0.16
20.36,-0.205,0.748,0.036
20.37,-0.299,0.984,-0.086
20.38,-0.419,0.63,-0.02
20.39,-0.097,1.337,0.158
20.4,-0.17,0.648,0.074
20.41,-0.348,1.0,-0.161
20.42,-0.256,1.279,-0.075
20.43,-0.027,0.95,0.111
20.44,-0.22,1.1,-0.004
20.45,-0.227,0.478,-0.23
20.46,-0.221,1.802,-0.034
20.47,0.029,0.707,0.108
20.48,-0.158,1.076,0.044
20.49,-0.287,0.579,-0.247
20.5,-0.212,1.593,-0.032
20.51,-0.109,0.935,0.106
20.52,-0.038,0.614,0.033
20.53,-0.482,1.03,-0.276
20.54,-0.158,1.282,0.074
20.55,-0.263,1.148,0.18
20.56,-0.025,0.507,0.086
20.57,-0.515,1.003,-0.202
20.58,-0.11,1.586,0.038
20.59,-0.121,0.907,0.14
20.6,-0.066,0.851,-0.001
20.61,-0.437,0.437,-0.17
20.62,-0.2,2.0,0.119
20.63,-0.12,0.631,0.173
20.64,-0.184,0.921,0.036
20.65,-0.506,0.427,-0.153
20.66,-0.17,1.824,0.117
20.67,-0.057,0.934,0.145
20.68,-0.003,0.484,-0.049
20.69,-0.473,0.953,-0.213
20.7,-0.066,1.382,0.107
20.71,-0.165,1.248,0.15
20.72,0.035,0.385,0.003
20.73,-0.532,0.937,-0.176
20.74,-0.034,1.714,0.088
20.75,-0.093,1.03,0.13
20.76,-0.029,0.719,-0.036
20.77,-0.476,0.433,-0.203
20.78,-0.162,1.943,0.062
20.79,-0.061,0.71,0.112
20.8,-0.135,0.853,-0.045
20.81,-0.381,0.307,-0.202
20.82,-0.209,1.745,0.077
20.83,-0.126,0.998,0.108
20.84,-0.095,0.62,-0.085
20.85,-0.489,0.877,-0.17
20.86,-0.084,1.263,0.174
20.87,-0.257,1.407,0.1
20.88,-0.01,0.41,-0.025
20.89,-0.488,0.921,-0.2
20.9,-0.104,1.279,0.203
20.91,-0.133,1.035,0.063
20.92,-0.125,0.831,-0.116
20.93,-0.386,0.337,-0.166
20.94,-0.251,1.586,0.203
20.95,-0.034,0.815,0.071
20.96,-0.252,0.944,-0.119
20.97,-0.361,0.309,-0.158
20.98,-0.183,1.378,0.191
20.99,-0.189,1.022,-0.007
21.0,-0.094,0.697,-0.114
21.01,-0.417,0.792,-0.176
21.02,0.007,0.943,0.15
21.03,-0.285,1.315,-0.004
21.04,-0.159,0.355,-0.143
21.05,-0.503,0.929,-0.096
21.06,-0.069,1.006,0.179
21.07,-0.252,1.06,0.037
21.08,-0.233,0.753,-0.16
21.09,-0.481,0.605,-0.057
21.1,-0.111,1.301,0.19
21.11,-0.152,0.695,0.074
21.12,-0.371,1.022,-0.161
21.13,-0.309,0.778,-0.016
21.14,-0.085,1.225,0.153
21.15,-0.204,0.873,0.071
21.16,-0.313,0.655,-0.127
21.17,-0.305,1.381,-0.071
21.18,-0.096,0.772,0.171
21.19,-0.234,1.225,0.03
21.2,-0.366,0.444,-0.226
21.21,-0.212,1.815,0.03
21.22,-0.078,0.653,0.135
21.23,-0.109,1.062,0.077
21.24,-0.349,0.548,-0.253
21.25,-0.227,1.614,0.043
21.26,-0.159,0.947,0.141
21.27,-0.042,0.566,0.055
21.28,-0.524,0.952,-0.173
21.29,-0.137,1.312,0.09
21.3,-0.23,1.177,0.236
21.31,-0.02,0.444,0.076
21.32,-0.543,1.049,-0.18
21.33,-0.162,1.557,0.104
21.34,-0.095,0.885,0.166
21.35,-0.07,0.817,0.003
21.36,-0.469,0.472,-0.174
21.37,-0.156,2.0,0.105
21.38,-0.092,0.649,0.19
21.39,-0.163,0.874,0.016
21.4,-0.377,0.467,-0.207
21.41,-0.164,1.821,0.062
21.42,0.006,0.931,0.111
21.43,-0.051,0.509,-0.047
21.44,-0.491,0.935,-0.252
21.45,-0.07,1.491,0.092
21.46,-0.181,1.267,0.12
21.47,0.012,0.334,-0.031
21.48,-0.489,0.963,-0.218
21.49,-0.078,1.512,0.115
21.5,-0.133,1.032,0.063
21.51,-0.039,0.743,-0.075
21.52,-0.436,0.436,-0.189
21.53,-0.242,1.96,0.161
21.54,-0.082,0.706,0.117
21.55,-0.149,0.879,-0.039
21.56,-0.457,0.375,-0.156
21.57,-0.223,1.682,0.178
21.58,-0.277,1.019,0.142
21.59,-0.098,0.549,-0.072
21.6,-0.449,0.842,-0.184
21.61,-0.001,1.233,0.186
21.62,-0.283,1.295,0.07
21.63,0.032,0.49,-0.113
21.64,-0.57,0.85,-0.159
21.65,0.034,1.299,0.177
21.66,-0.252,1.11,0.063
21.67,-0.077,0.813,-0.095
21.68,-0.476,0.372,-0.169
21.69,-0.144,1.535,0.218
21.7,-0.075,0.879,0.004
21.71,-0.174,0.966,-0.14
21.72,-0.415,0.264,-0.201
21.73,-0.114,1.334,0.173
21.74,-0.217,0.971,0.026
21.75,-0.288,0.656,-0.09
21.76,-0.474,0.816,-0.064
21.77,-0.108,0.875,0.182
21.78,-0.309,1.324,0.061
21.79,-0.187,0.329,-0.116
21.8,-0.509,1.108,-0.041
21.81,-0.03,0.948,0.181
21.82,-0.277,1.079,0.116
21.83,-0.299,0.777,-0.164
21.84,-0.34,0.795,-0.042
21.85,-0.124,1.252,0.175
21.86,-0.169,0.704,0.104
21.87,-0.414,0.976,-0.179
21.88,-0.258,0.911,-0.059
21.89,-0.058,1.193,0.16
21.9,-0.172,0.91,0.003
21.91,-0.321,0.662,-0.126
21.92,-0.208,1.62,-0.067
21.93,0.039,0.783,0.108
21.94,-0.178,1.125,0.016
21.95,-0.259,0.468,-0.221
21.96,-0.225,1.762,-0.053
21.97,-0.11,0.729,0.092
21.98,-0.153,0.862,0.029
21.99,-0.385,0.784,-0.238
22.0,-0.216,1.709,0.117
22.01,-0.142,0.902,0.141
22.02,0.034,0.556,0.006
22.03,-0.509,0.953,-0.201
22.04,-0.017,1.417,0.081
22.05,-0.194,1.209,0.15
22.06,0.019,0.387,0.003
22.07,-0.458,0.996,-0.186
22.08,-0.081,1.72,0.044
22.09,-0.082,0.923,0.131
22.1,-0.019,0.75,-0.061
22.11,-0.391,0.441,-0.222
22.12,-0.141,2.0,0.051
22.13,0.046,0.711,0.067
22.14,-0.133,0.837,-0.061
22.15,-0.307,0.4,-0.253
22.16,-0.143,1.769,0.087
22.17,-0.024,0.952,0.044
22.18,-0.116,0.493,-0.073
22.19,-0.405,0.955,-0.21
22.2,-0.112,1.386,0.154
22.21,-0.262,1.305,0.165
22.22,-0.039,0.399,-0.021
22.23,-0.565,0.897,-0.135
22.24,-0.059,1.326,0.196
22.25,-0.258,1.131,0.133
22.26,-0.116,0.814,-0.099
22.27,-0.42,0.355,-0.132
22.28,-0.201,1.703,0.223
22.29,-0.107,0.83,0.146
22.3,-0.25,0.999,-0.086
22.31,-0.369,0.277,-0.158
22.32,-0.169,1.44,0.133
22.33,-0.128,1.059,0.008
22.34,-0.078,0.587,-0.096
22.35,-0.469,0.833,-0.165
22.36,-0.044,1.002,0.181
22.37,-0.235,1.26,-0.004
22.38,-0.163,0.477,-0.146
22.39,-0.449,0.828,-0.131
22.4,-0.122,1.02,0.149
22.41,-0.153,1.126,-0.018
22.42,-0.281,0.658,-0.101
22.43,-0.433,0.505,-0.038
22.44,-0.185,1.281,0.175
22.45,-0.131,0.721,0.067
22.46,-0.34,0.983,-0.113
22.47,-0.269,0.733,-0.049
22.48,-0.098,1.245,0.158
22.49,-0.19,0.9,0.052
22.5,-0.336,0.643,-0.15
22.51,-0.299,1.334,-0.059
22.52,-0.015,0.819,0.174
22.53,-0.317,1.216,0.031
22.54,-0.201,0.401,-0.173
22.55,-0.33,1.72,-0.057
22.56,0.063,0.858,0.159
22.57,-0.175,0.877,0.007
22.58,-0.362,0.82,-0.178
22.59,-0.231,1.361,-0.014
22.6,-0.205,1.147,0.189
22.61,-0.017,0.523,0.052
22.62,-0.494,1.189,-0.126
22.63,-0.23,1.231,0.059
22.64,-0.173,1.082,0.151
22.65,-0.052,0.706,0.033
22.66,-0.404,0.803,-0.192
22.67,-0.246,1.736,0.071
22.68,-0.062,0.734,0.164
22.69,-0.157,0.978,0.055
22.7,-0.282,0.489,-0.195
22.71,-0.336,1.853,0.139
22.72,-0.056,0.76,0.172
22.73,-0.155,0.77,0.03
22.74,-0.439,0.674,-0.166
22.75,-0.165,1.577,0.152
22.76,-0.144,1.095,0.153
22.77,0.029,0.418,0.006
22.78,-0.538,1.105,-0.181
22.79,-0.097,1.496,0.154
22.8,-0.164,1.118,0.176
22.81,0.055,0.321,-0.012
22.82,-0.45,1.004,-0.261
22.83,-0.073,1.578,0.092
22.84,-0.1,1.004,0.053
22.85,-0.106,0.716,-0.086
22.86,-0.288,0.407,-0.168
22.87,-0.252,1.935,0.071
22.88,-0.056,0.717,0.136
22.89,-0.157,0.925,-0.086
22.9,-0.391,0.325,-0.203
22.91,-0.115,1.707,0.074
22.92,-0.158,1.052,0.084
22.93,-0.054,0.544,-0.108
22.94,-0.518,0.855,-0.217
22.95,-0.024,1.277,0.123
22.96,-0.292,1.326,0.147
22.97,0.019,0.437,-0.08
22.98,-0.589,0.89,-0.209
22.99,-0.023,1.28,0.184
23.0,-0.265,1.092,0.102
23.01,-0.119,0.792,-0.107
23.02,-0.449,0.366,-0.148
23.03,-0.179,1.475,0.194
23.04,-0.079,0.792,0.064
23.05,-0.191,1.005,-0.077
23.06,-0.512,0.304,-0.129
23.07,-0.093,1.376,0.16
23.08,-0.184,0.978,-0.031
23.09,-0.042,0.673,-0.106
23.1,-0.528,0.882,-0.143
23.11,0.021,0.951,0.199
23.12,-0.302,1.326,0.026
23.13,-0.084,0.393,-0.126
23.14,-0.524,0.959,-0.112
23.15,0.056,1.046,0.069
23.16,-0.245,1.084,0.002
23.17,-0.171,0.755,-0.167
23.18,-0.35,0.7,-0.059
23.19,-0.11,1.286,0.16
23.2,-0.151,0.632,0.032
23.21,-0.371,1.055,-0.127
23.22,-0.228,0.881,-0.027
23.23,-0.161,1.173,0.155
23.24,-0.157,0.829,0.029
23.25,-0.365,0.668,-0.154
23.26,-0.218,1.607,-0.062
23.27,-0.068,0.799,0.183
23.28,-0.238,1.073,0.044
23.29,-0.384,0.448,-0.13
23.3,-0.251,1.766,0.047
23.31,-0.1,0.817,0.165
23.32,-0.072,0.912,0.084
23.33,-0.402,0.83,-0.25
23.34,-0.172,1.335,0.009
23.35,-0.201,1.088,0.157
23.36,0.017,0.549,0.039
23.37,-0.52,1.066,-0.225
23.38,-0.115,1.251,0.054
23.39,-0.149,1.076,0.156
23.4,-0.053,0.633,0.045
23.41,-0.428,0.832,-0.183
23.42,-0.171,1.762,0.063
23.43,-0.07,0.682,0.167
23.44,-0.093,0.952,-0.009
23.45,-0.419,0.372,-0.234
23.46,-0.211,1.918,0.123
23.47,-0.107,0.694,0.136
23.48,-0.139,0.731,0.008
23.49,-0.433,0.688,-0.209
23.5,-0.097,1.616,0.134
23.51,-0.155,1.089,0.098
23.52,0.022,0.32,-0.061
23.53,-0.562,1.108,-0.19
23.54,-0.019,1.465,0.101
23.55,-0.152,1.13,0.162
23.56,-0.026,0.467,-0.025
23.57,-0.498,0.784,-0.169
23.58,-0.124,1.886,0.097
23.59,-0.071,0.862,0.132
23.6,-0.084,0.874,-0.037
23.61,-0.372,0.306,-0.199
23.62,-0.2,1.779,0.121
23.63,-0.072,0.753,0.113
23.64,-0.231,1.051,-0.069
23.65,-0.457,0.229,-0.164
23.66,-0.219,1.511,0.186
23.67,-0.179,1.1,0.065
23.68,-0.106,0.585,-0.086
23.69,-0.436,0.825,-0.19
23.7,-0.043,1.139,0.156
23.71,-0.212,1.323,0.029
23.72,-0.084,0.463,-0.07
23.73,-0.48,0.887,-0.128
23.74,-0.066,1.028,0.173
23.75,-0.172,1.071,0.076
23.76,-0.24,0.775,-0.149
23.77,-0.447,0.446,-0.079
23.78,-0.116,1.369,0.164
23.79,-0.123,0.765,0.021
23.8,-0.258,0.935,-0.16
23.81,-0.318,0.533,-0.121
23.82,-0.042,1.233,0.173
23.83,-0.212,0.898,-0.011
23.84,-0.26,0.698,-0.184
23.85,-0.365,1.118,-0.077
23.86,-0.073,0.751,0.201
23.87,-0.354,1.266,0.087
23.88,-0.24,0.358,-0.142
23.89,-0.414,1.302,-0.032
23.9,0.007,0.838,0.165
23.91,-0.272,1.049,0.027
23.92,-0.297,0.775,-0.167
23.93,-0.278,1.153,-0.008
23.94,-0.097,1.211,0.181
23.95,-0.077,0.615,0.036
23.96,-0.475,1.066,-0.196
23.97,-0.133,1.203,-0.028
23.98,-0.22,1.13,0.117
23.99,-0.048,0.75,0.02
24.0,-0.428,0.744,-0.192
24.01,-0.185,1.682,0.068
24.02,-0.044,0.793,0.192
24.03,-0.11,0.979,0.028
24.04,-0.38,0.442,-0.225
24.05,-0.247,1.849,0.078
24.06,-0.06,0.712,0.131
24.07,-0.114,0.8,-0.027
24.08,-0.511,0.724,-0.203
24.09,-0.141,1.545,0.143
24.1,-0.231,1.018,0.151
24.11,0.074,0.405,-0.023
24.12,-0.516,1.102,-0.171
24.13,-0.085,1.402,0.062
24.14,-0.038,1.138,0.125
24.15,0.009,0.51,-0.062
24.16,-0.503,0.706,-0.196
24.17,-0.023,1.888,0.076
24.18,-0.036,0.817,0.107
24.19,-0.126,0.812,-0.045
24.2,-0.36,0.366,-0.231
24.21,-0.138,1.985,0.101
24.22,-0.057,0.732,0.099
24.23,-0.082,0.784,-0.059
24.24,-0.409,0.597,-0.231
24.25,-0.086,1.556,0.072
24.26,-0.184,1.271,0.099
24.27,-0.04,0.402,-0.081
24.28,-0.488,1.016,-0.167
24.29,-0.032,1.188,0.157
24.3,-0.193,1.32,0.102
24.31,-0.081,0.558,-0.106
24.32,-0.508,0.63,-0.097
24.33,-0.182,1.475,0.204
24.34,-0.137,0.897,0.095
24.35,-0.212,0.946,-0.095
24.36,-0.417,0.28,-0.11
24.37,-0.244,1.449,0.176
24.38,-0.194,0.796,0.054
24.39,-0.158,0.936,-0.124
24.4,-0.439,0.581,-0.186
24.41,0.007,1.113,0.151
24.42,-0.197,0.912,-0.003
24.43,-0.204,0.669,-0.187
24.44,-0.37,1.187,-0.104
24.45,0.021,0.84,0.144
24.46,-0.284,1.285,0.079
24.47,-0.188,0.266,-0.183
24.48,-0.317,1.486,-0.031
24.49,-0.072,0.84,0.18
24.5,-0.193,0.95,0.018
24.51,-0.345,0.704,-0.208
24.52,-0.148,1.244,-0.041
24.53,-0.23,1.121,0.176
24.54,0.003,0.553,0.046
24.55,-0.541,1.088,-0.171
24.56,-0.111,1.219,0.062
24.57,-0.226,1.036,0.144
24.58,-0.018,0.726,0.023
24.59,-0.441,0.742,-0.191
24.6,-0.167,1.766,0.063
24.61,-0.112,0.672,0.182
24.62,-0.084,0.999,0.034
24.63,-0.465,0.344,-0.258
24.64,-0.145,1.887,0.112
24.65,-0.143,0.784,0.169
24.66,-0.092,0.729,0.013
24.67,-0.513,0.753,-0.209
24.68,-0.085,1.508,0.114
24.69,-0.134,1.115,0.133
24.7,-0.003,0.374,-0.008
24.71,-0.552,1.107,-0.131
24.72,-0.083,1.48,0.134
24.73,-0.178,1.104,0.156
24.74,0.018,0.542,-0.001
24.75,-0.538,0.779,-0.151
24.76,-0.136,1.895,0.124
24.77,-0.063,0.792,0.134
24.78,-0.155,0.856,-0.045
24.79,-0.352,0.308,-0.201
24.8,-0.193,1.922,0.072
24.81,-0.133,0.855,0.127
24.82,-0.203,0.791,-0.068
24.83,-0.381,0.603,-0.215
24.84,-0.109,1.485,0.13
24.85,-0.198,1.304,0.056
24.86,0.014,0.427,-0.142
24.87,-0.518,0.992,-0.153
24.88,-0.088,1.154,0.262
24.89,-0.248,1.302,0.109
24.9,-0.168,0.56,-0.059
24.91,-0.54,0.647,-0.126
24.92,-0.152,1.332,0.273
24.93,-0.166,0.952,0.056
24.94,-0.208,0.973,-0.075
24.95,-0.428,0.203,-0.135
24.96,-0.095,1.457,0.118
24.97,-0.187,0.876,0.023
24.98,-0.221,0.829,-0.117
24.99,-0.504,0.568,-0.108
25.0,-0.072,1.037,0.143
25.01,-0.33,1.254,0.018
25.02,-0.124,0.368,-0.151
25.03,-0.448,1.284,-0.064
25.04,0.061,0.791,0.17
25.05,-0.293,1.227,0.008
25.06,-0.326,0.469,-0.145
25.07,-0.253,1.194,-0.027
25.08,-0.146,1.046,0.161
25.09,-0.114,0.731,0.022
25.1,-0.433,0.92,-0.224
25.11,-0.092,1.078,-0.058
25.12,-0.179,1.197,0.124
25.13,-0.129,0.617,0.056
25.14,-0.442,0.955,-0.209
25.15,-0.095,1.48,0.043
25.16,-0.157,0.926,0.112
25.17,-0.097,0.843,0.028
25.18,-0.438,0.502,-0.219
25.19,-0.26,1.931,0.148
25.2,-0.151,0.621,0.148
25.21,-0.162,0.966,0.026
25.22,-0.448,0.418,-0.168
25.23,-0.135,2.0,0.089
25.24,0.001,0.769,0.136
25.25,-0.112,0.665,-0.033
25.26,-0.45,0.703,-0.189
25.27,-0.073,1.572,0.148
25.28,-0.114,1.219,0.052
25.29,0.008,0.394,-0.071
25.3,-0.475,1.072,-0.178
25.31,-0.12,1.366,0.183
25.32,-0.142,1.331,0.081
25.33,-0.113,0.552,-0.088
25.34,-0.383,0.605,-0.154
25.35,-0.187,1.572,0.171
25.36,-0.086,0.872,0.072
25.37,-0.181,1.017,-0.095
25.38,-0.406,0.195,-0.134
25.39,-0.22,1.531,0.177
25.4,-0.188,0.927,0.098
25.41,-0.223,0.771,-0.088
25.42,-0.343,0.621,-0.18
25.43,-0.097,1.031,0.163
25.44,-0.294,1.277,-0.019
25.45,-0.091,0.368,-0.126
25.46,-0.487,1.035,-0.096
25.47,0.079,0.949,0.1
25.48,-0.345,1.293,0.015
25.49,-0.229,0.489,-0.192
25.5,-0.393,0.841,-0.017
25.51,-0.111,1.136,0.154
25.52,-0.151,0.805,0.007
25.53,-0.378,0.913,-0.138
25.54,-0.154,0.979,-0.032
25.55,-0.172,1.229,0.155
25.56,-0.102,0.695,0.005
25.57,-0.416,0.866,-0.176
25.58,-0.15,1.467,-0.0
25.59,-0.106,0.898,0.121
25.6,-0.135,0.933,0.002
25.61,-0.413,0.504,-0.192
25.62,-0.245,1.918,0.096
25.63,-0.065,0.681,0.222
25.64,-0.148,0.901,0.014
25.65,-0.489,0.556,-0.162
25.66,-0.148,1.715,0.1
25.67,-0.175,0.956,0.172
25.68,0.007,0.489,-0.01
25.69,-0.533,1.046,-0.14
25.7,-0.071,1.425,0.105
25.71,-0.153,1.215,0.181
25.72,0.043,0.4,-0.009
25.73,-0.472,0.953,-0.232
25.74,-0.034,1.703,0.077
25.75,-0.072,0.888,0.111
25.76,-0.044,0.858,-0.061
25.77,-0.402,0.382,-0.205
25.78,-0.236,1.956,0.13
25.79,-0.054,0.778,0.081
25.8,-0.146,0.889,-0.053
25.81,-0.37,0.385,-0.179
25.82,-0.203,1.632,0.142
25.83,-0.171,1.089,0.027
25.84,-0.009,0.558,-0.076
25.85,-0.491,0.902,-0.154
25.86,-0.027,1.184,0.23
25.87,-0.327,1.344,0.034
25.88,-0.075,0.479,-0.03
25.89,-0.508,0.823,-0.159
25.9,-0.104,1.161,0.183
25.91,-0.11,1.074,-0.003
25.92,-0.233,0.802,-0.099
25.93,-0.329,0.315,-0.102
25.94,-0.192,1.419,0.207
25.95,-0.194,0.798,0.047
25.96,-0.277,0.892,-0.097
25.97,-0.454,0.41,-0.13
25.98,-0.079,1.211,0.166
25.99,-0.23,1.066,-0.026
26.0,-0.206,0.491,-0.141
26.01,-0.456,1.131,-0.026
26.02,0.002,0.85,0.201
26.03,-0.362,1.327,0.067
26.04,-0.229,0.397,-0.165
26.05,-0.278,1.763,-0.094
26.06,0.037,0.754,0.097
26.07,-0.175,1.053,-0.035
26.08,-0.306,0.667,-0.246
26.09,-0.223,1.436,-0.028
26.1,-0.091,0.992,0.134
26.11,-0.077,0.59,0.026
26.12,-0.435,1.016,-0.228
26.13,-0.233,1.226,0.067
26.14,-0.211,1.169,0.209
26.15,-0.063,0.567,0.058
26.16,-0.522,0.921,-0.133
26.17,-0.151,1.691,0.064
26.18,-0.174,0.815,0.183
26.19,-0.027,0.875,0.028
26.2,-0.449,0.389,-0.196
26.21,-0.192,2.0,0.132
26.22,-0.191,0.618,0.164
26.23,-0.13,0.89,0.012
26.24,-0.347,0.512,-0.197
26.25,-0.152,1.781,0.133
26.26,-0.055,1.024,0.134
26.27,-0.019,0.376,-0.052
26.28,-0.447,1.024,-0.2
26.29,0.011,1.577,0.092
26.3,-0.216,1.26,0.142
26.31,0.036,0.397,-0.016
26.32,-0.424,0.936,-0.226
26.33,-0.062,1.682,0.105
26.34,-0.125,0.935,0.1
26.35,0.011,0.812,-0.081
26.36,-0.44,0.363,-0.157
26.37,-0.213,1.891,0.171
26.38,-0.172,0.758,0.168
26.39,-0.162,0.921,-0.072
26.4,-0.419,0.399,-0.179
26.41,-0.134,1.584,0.141
26.42,-0.215,1.156,0.046
26.43,-0.009,0.5,-0.098
26.44,-0.566,0.891,-0.161
26.45,0.058,1.175,0.229
26.46,-0.351,1.309,0.06
26.47,-0.005,0.475,-0.078
26.48,-0.518,0.834,-0.199
26.49,0.003,1.179,0.165
26.5,-0.232,1.115,0.019
26.51,-0.218,0.75,-0.143
26.52,-0.417,0.315,-0.133
26.53,-0.207,1.479,0.184
26.54,-0.163,0.775,0.02
26.55,-0.371,0.962,-0.097
26.56,-0.434,0.389,-0.122
26.57,-0.097,1.205,0.183
26.58,-0.248,1.084,0.031
26.59,-0.256,0.406,-0.134
26.6,-0.534,1.044,-0.064
26.61,0.008,0.896,0.215
26.62,-0.281,1.333,0.071
26.63,-0.23,0.3,-0.13
26.64,-0.332,1.223,-0.04
26.65,0.018,0.978,0.188
26.66,-0.203,0.974,0.058
26.67,-0.299,0.788,-0.173
26.68,-0.215,1.021,-0.106
26.69,-0.164,1.294,0.182
26.7,-0.122,0.621,0.082
26.71,-0.421,1.027,-0.153
26.72,-0.251,1.107,-0.042
26.73,-0.157,1.071,0.137
26.74,-0.156,0.915,0.045
26.75,-0.239,0.644,-0.211
26.76,-0.334,1.713,0.0
26.77,-0.031,0.691,0.139
26.78,-0.233,1.135,0.077
26.79,-0.28,0.37,-0.2
26.8,-0.351,1.74,0.047
26.81,-0.026,0.827,0.068
26.82,-0.135,0.766,0.068
26.83,-0.414,0.823,-0.159
26.84,-0.196,1.691,0.118
26.85,-0.133,0.973,0.121
26.86,-0.022,0.469,0.01
26.87,-0.507,1.055,-0.164
26.88,-0.003,1.475,0.082
26.89,-0.205,1.177,0.116
26.9,0.074,0.406,-0.034
26.91,-0.481,0.935,-0.203
26.92,-0.023,1.764,0.052
26.93,-0.059,0.902,0.091
26.94,-0.077,0.753,-0.046
26.95,-0.43,0.41,-0.21
26.96,-0.132,2.0,0.077
26.97,-0.093,0.696,0.092
26.98,-0.155,0.875,-0.056
26.99,-0.395,0.447,-0.199
27.0,-0.166,1.761,0.16
27.01,-0.129,1.127,0.075
27.02,-0.064,0.41,-0.06
27.03,-0.516,0.991,-0.139
27.04,-0.067,1.298,0.218
27.05,-0.217,1.34,0.115
27.06,-0.008,0.457,-0.061
27.07,-0.458,0.786,-0.196
27.08,-0.071,1.405,0.159
27.09,-0.17,1.045,0.043
27.1,-0.158,0.831,-0.085
27.11,-0.456,0.292,-0.122
27.12,-0.245,1.62,0.234
27.13,-0.112,0.822,0.103
27.14,-0.24,0.908,-0.098
27.15,-0.385,0.355,-0.19
27.16,-0.093,1.309,0.15
27.17,-0.215,1.159,-0.01
27.18,-0.105,0.519,-0.119
27.19,-0.485,0.883,-0.167
27.2,-0.014,0.917,0.202
27.21,-0.289,1.411,0.018
27.22,-0.217,0.314,-0.08
27.23,-0.524,0.883,-0.066
27.24,-0.062,1.061,0.148
27.25,-0.197,1.065,0.034
27.26,-0.278,0.783,-0.175
27.27,-0.36,0.511,-0.052
27.28,-0.178,1.317,0.159
27.29,-0.176,0.753,0.095
27.3,-0.349,0.865,-0.136
27.31,-0.225,0.991,-0.075
27.32,-0.027,1.146,0.148
27.33,-0.163,0.976,0.011
27.34,-0.27,0.586,-0.185
27.35,-0.223,1.608,-0.103
27.36,-0.02,0.712,0.128
27.37,-0.239,1.159,0.005
27.38,-0.228,0.463,-0.208
27.39,-0.308,1.702,-0.027
27.4,-0.06,0.814,0.14
27.41,-0.138,0.851,0.059
27.42,-0.358,0.865,-0.18
27.43,-0.244,1.308,0.017
27.44,-0.099,1.142,0.202
27.45,0.016,0.513,0.017
27.46,-0.54,1.035,-0.22
27.47,-0.129,1.438,0.088
27.48,-0.247,0.993,0.187
27.49,-0.084,0.706,0.067
27.5,-0.482,0.737,-0.113
27.51,-0.258,1.868,0.132
27.52,-0.146,0.626,0.165
27.53,-0.11,0.963,0.051
27.54,-0.389,0.397,-0.206
27.55,-0.115,1.939,0.056
27.56,-0.066,0.753,0.07
27.57,-0.072,0.723,-0.004
27.58,-0.356,0.751,-0.242
27.59,-0.021,1.64,0.084
27.6,-0.105,1.258,0.12
27.61,-0.043,0.24,-0.035
27.62,-0.424,1.11,-0.219
27.63,-0.095,1.5,0.113
27.64,-0.099,1.127,0.087
27.65,0.009,0.422,-0.019
27.66,-0.51,0.862,-0.193
27.67,-0.319,1.725,-0.074
27.68,-0.006,0.699,0.168
27.69,-0.187,1.048,0.073
27.7,-0.344,0.461,-0.256
27.71,-0.339,1.716,0.05
27.72,-0.1,0.831,0.142
27.73,-0.082,0.662,0.039
27.74,-0.449,0.958,-0.213
27.75,-0.204,1.364,0.114
27.76,-0.195,1.103,0.221
27.77,0.031,0.449,0.093
27.78,-0.479,1.056,-0.181
27.79,-0.071,1.492,0.092
27.8,-0.13,0.944,0.1
27.81,0.028,0.731,-0.036
27.82,-0.334,0.559,-0.277
27.83,-0.06,1.968,0.075
27.84,-0.01,0.67,0.136
27.85,-0.133,0.883,0.01
27.86,-0.397,0.369,-0.22
27.87,-0.115,1.948,0.109
27.88,-0.082,0.772,0.044
27.89,-0.009,0.616,-0.053
27.9,-0.488,0.855,-0.251
27.91,0.022,1.567,0.107
27.92,-0.206,1.217,0.093
27.93,0.047,0.243,-0.013
27.94,-0.503,1.076,-0.223
27.95,-0.074,1.474,0.124
27.96,-0.243,1.093,0.147
27.97,-0.031,0.635,-0.013
27.98,-0.53,0.479,-0.136
27.99,-0.146,1.804,0.148
28.0,-0.185,0.793,0.144
28.01,-0.233,0.914,-0.077
28.02,-0.421,0.296,-0.096
28.03,-0.182,1.979,0.187
28.04,-0.184,0.949,0.134
28.05,-0.073,0.643,-0.062
28.06,-0.534,0.737,-0.175
28.07,0.018,1.368,0.199
28.08,-0.263,1.349,0.099
28.09,0.01,0.35,-0.102
28.1,-0.532,0.961,-0.179
28.11,0.067,1.216,0.1
28.12,-0.202,1.235,0.064
28.13,-0.095,0.658,-0.115
28.14,-0.461,0.493,-0.14
28.15,-0.14,1.513,0.184
28.16,-0.146,0.878,0.119
28.17,-0.168,0.963,-0.068
28.18,-0.524,0.248,-0.163
28.19,-0.134,1.447,0.213
28.2,-0.173,0.924,0.051
28.21,-0.23,0.745,-0.116
28.22,-0.443,0.708,-0.204
28.23,-0.056,1.02,0.153
28.24,-0.199,1.389,-0.015
28.25,-0.203,0.203,-0.095
28.26,-0.34,1.243,-0.125
28.27,-0.008,0.871,0.18
28.28,-0.301,1.277,0.057
28.29,-0.235,0.414,-0.121
28.3,-0.358,1.137,-0.083
28.31,-0.062,0.983,0.129
28.32,-0.172,0.924,0.074
28.33,-0.36,0.858,-0.136
28.34,-0.308,0.773,-0.043
28.35,-0.209,1.246,0.199
28.36,-0.149,0.703,0.078
28.37,-0.339,0.9,-0.142
28.38,-0.232,1.25,-0.075
28.39,-0.062,1.107,0.125
28.4,-0.207,0.886,0.025
28.41,-0.288,0.633,-0.19
28.42,-0.275,1.793,-0.07
28.43,-0.01,0.706,0.061
28.44,-0.249,1.104,0.049
28.45,-0.24,0.517,-0.175
28.46,-0.408,1.691,-0.011
28.47,-0.019,0.814,0.142
28.48,-0.1,0.774,0.036
28.49,-0.421,0.893,-0.204
28.5,-0.21,1.311,0.033
28.51,-0.141,1.171,0.105
28.52,0.016,0.474,0.055
28.53,-0.427,1.103,-0.204
28.54,-0.26,1.323,0.072
28.55,-0.177,0.896,0.158
28.56,-0.099,0.798,0.024
28.57,-0.447,0.643,-0.182
28.58,-0.263,1.886,0.091
28.59,-0.015,0.654,0.056
28.6,-0.12,0.962,0.036
28.61,-0.304,0.445,-0.219
28.62,-0.244,1.955,0.109
28.63,-0.09,0.789,0.136
28.64,-0.03,0.68,-0.011
28.65,-0.442,0.854,-0.221
28.66,0.017,1.548,0.102
28.67,-0.168,1.253,0.058
28.68,0.018,0.283,-0.025
28.69,-0.494,1.106,-0.225
28.7,-0.022,1.689,0.13
28.71,-0.173,1.019,0.173
28.72,0.026,0.628,-0.009
28.73,-0.529,0.618,-0.191
28.74,-0.089,1.991,0.072
28.75,-0.141,0.722,0.102
28.76,-0.041,0.938,-0.039
28.77,-0.45,0.293,-0.171
28.78,-0.165,1.897,0.154
28.79,-0.145,0.89,0.045
28.8,-0.055,0.715,-0.1
28.81,-0.484,0.68,-0.162
28.82,0.0,1.53,0.196
28.83,-0.223,1.399,0.128
28.84,-0.007,0.327,-0.08
28.85,-0.458,1.038,-0.189
28.86,-0.023,1.28,0.191
28.87,-0.187,1.235,0.058
28.88,-0.062,0.628,-0.142
28.89,-0.411,0.542,-0.195
28.9,-0.165,1.498,0.186
28.91,-0.196,0.799,0.094
28.92,-0.284,0.99,-0.084
28.93,-0.384,0.187,-0.166
28.94,-0.237,1.45,0.153
28.95,-0.132,0.941,0.011
28.96,-0.252,0.688,-0.182
28.97,-0.416,0.651,-0.182
28.98,-0.045,1.062,0.169
28.99,-0.283,1.346,0.05
29.0,-0.155,0.309,-0.146
29.01,-0.488,1.004,-0.112
29.02,-0.007,1.022,0.188
29.03,-0.205,1.213,0.008
29.04,-0.243,0.562,-0.163
29.05,-0.442,0.627,-0.1
29.06,-0.085,1.25,0.146
29.07,-0.239,0.958,0.06
29.08,-0.296,0.777,-0.165
29.09,-0.224,0.966,-0.066
29.1,-0.059,1.297,0.172
29.11,-0.167,0.64,0.049
29.12,-0.368,1.024,-0.137
29.13,-0.274,1.168,-0.026
29.14,-0.051,1.079,0.16
29.15,-0.219,0.923,-0.0
29.16,-0.272,0.663,-0.182
29.17,-0.277,1.72,-0.045
29.18,-0.042,0.658,0.09
29.19,-0.204,1.139,0.084
29.2,-0.316,0.433,-0.22
29.21,-0.333,1.747,0.076
29.22,-0.038,0.89,0.2
29.23,-0.1,0.672,0.061
29.24,-0.439,0.914,-0.195
29.25,-0.194,1.332,0.068
29.26,-0.229,1.143,0.222
29.27,0.053,0.444,0.04
29.28,-0.58,1.047,-0.168
29.29,-0.129,1.403,0.11
29.3,-0.288,0.989,0.177
29.31,-0.004,0.693,0.012
29.32,-0.464,0.652,-0.196
29.33,-0.099,1.934,0.107
29.34,-0.149,0.655,0.173
29.35,-0.037,0.943,0.013
29.36,-0.334,0.373,-0.268
29.37,-0.102,2.0,0.011
29.38,-0.085,0.746,0.051
29.39,-0.078,0.666,-0.006
29.4,-0.409,0.786,-0.278
29.41,-0.016,1.629,0.033
29.42,-0.17,1.229,0.154
29.43,0.042,0.257,-0.033
29.44,-0.499,1.057,-0.206
29.45,-0.026,1.579,0.119
29.46,-0.127,1.144,0.047
29.47,-0.001,0.535,-0.067
29.48,-0.459,0.659,-0.219
29.49,-0.096,1.939,0.085
29.5,-0.117,0.747,0.1
29.51,-0.127,0.896,-0.013
29.52,-0.38,0.327,-0.162
29.53,-0.178,1.993,0.159
29.54,-0.105,0.876,0.144
29.55,-0.111,0.701,-0.056
29.56,-0.436,0.716,-0.226
29.57,-0.059,1.454,0.1
29.58,-0.145,1.346,0.091
29.59,0.044,0.326,-0.103
29.6,-0.532,0.976,-0.201
29.61,0.014,1.248,0.174
29.62,-0.313,1.226,0.175
29.63,-0.053,0.63,-0.1
29.64,-0.474,0.6,-0.159
29.65,-0.194,1.497,0.203
29.66,-0.124,0.834,0.115
29.67,-0.197,1.007,-0.106
29.68,-0.435,0.187,-0.191
29.69,-0.197,1.495,0.204
29.7,-0.125,0.936,0.039
29.71,-0.165,0.69,-0.066
29.72,-0.454,0.685,-0.175
29.73,-0.048,1.136,0.148
29.74,-0.281,1.27,0.025
29.75,-0.05,0.393,-0.111
29.76,-0.543,0.982,-0.143
29.77,0.008,0.938,0.178
29.78,-0.249,1.322,0.034
29.79,-0.178,0.449,-0.14
29.8,-0.4,0.583,-0.14
29.81,-0.043,1.265,0.125
29.82,-0.054,0.816,-0.078
29.83,-0.301,0.906,-0.14
29.84,-0.344,0.339,-0.089
29.85,-0.129,1.373,0.159
29.86,-0.256,0.78,0.045
29.87,-0.304,0.937,-0.129
29.88,-0.263,0.937,-0.105
29.89,0.03,1.142,0.08
29.9,-0.203,0.987,-0.011
29.91,-0.268,0.653,-0.157
29.92,-0.383,1.457,-0.063
29.93,0.012,0.77,0.209
29.94,-0.221,1.264,0.044
29.95,-0.243,0.41,-0.25
29.96,-0.245,1.59,-0.07
29.97,-0.022,0.835,0.16
29.98,-0.189,0.89,0.04
29.99,-0.303,0.833,-0.192
30.0,-0.225,1.209,-0.064
30.01,-0.051,1.172,0.136
30.02,-0.052,0.553,0.063
30.03,-0.424,1.151,-0.198
30.04,-0.224,1.283,0.019
30.05,-0.108,0.987,0.113
30.06,-0.073,0.819,0.046
30.07,-0.401,0.638,-0.227
30.08,-0.293,1.759,0.049
30.09,-0.061,0.673,0.088
30.1,-0.174,1.021,0.062
30.11,-0.245,0.439,-0.184
30.12,-0.34,1.863,0.059
30.13,-0.033,0.793,0.145
30.14,-0.071,0.762,0.051
30.15,-0.419,0.735,-0.156
30.16,-0.195,1.463,0.142
30.17,-0.317,1.146,0.163
30.18,0.078,0.409,0.043
30.19,-0.481,1.045,-0.187
30.2,-0.098,1.447,0.096
30.21,-0.14,1.088,0.136
30.22,0.017,0.591,0.035
30.23,-0.375,0.689,-0.148
30.24,-0.18,1.918,0.118
30.25,-0.033,0.689,0.173
30.26,-0.099,0.951,-0.007
30.27,-0.392,0.356,-0.218
30.28,-0.167,2.0,0.12
30.29,-0.117,0.652,0.112
30.3,-0.021,0.719,-0.026
30.31,-0.38,0.744,-0.243
30.32,-0.087,1.51,0.067
30.33,-0.023,1.252,0.067
30.34,0.036,0.235,-0.046
30.35,-0.43,1.072,-0.202
30.36,-0.085,1.504,0.067
30.37,-0.182,1.152,0.098
30.38,0.051,0.607,-0.024
30.39,-0.443,0.654,-0.168
30.4,-0.132,1.883,0.179
30.41,-0.047,0.846,0.108
30.42,-0.158,0.796,-0.011
30.43,-0.342,0.357,-0.178
30.44,-0.249,1.999,0.172
30.45,-0.118,0.72,0.095
30.46,-0.139,0.72,-0.036
30.47,-0.449,0.612,-0.164
30.48,-0.11,1.516,0.148
30.49,-0.308,1.229,0.135
30.5,0.0,0.41,-0.068
30.51,-0.533,1.007,-0.197
30.52,0.033,1.266,0.212
30.53,-0.233,1.261,0.074
30.54,-0.079,0.546,-0.059
30.55,-0.494,0.665,-0.168
30.56,-0.115,1.529,0.198
30.57,-0.207,0.8,0.144
30.58,-0.151,0.967,-0.058
30.59,-0.412,0.207,-0.187
30.6,-0.172,1.648,0.15
30.61,-0.206,0.815,0.1
30.62,-0.226,0.854,-0.077
30.63,-0.559,0.506,-0.209
30.64,-0.022,1.319,0.132
30.65,-0.299,1.244,0.029
30.66,-0.004,0.409,-0.093
30.67,-0.58,0.984,-0.198
30.68,-0.012,0.972,0.199
30.69,-0.354,1.336,0.092
30.7,-0.208,0.367,-0.068
30.71,-0.536,0.883,-0.105
30.72,-0.032,1.088,0.18
30.73,-0.13,0.993,0.057
30.74,-0.293,0.767,-0.138
30.75,-0.435,0.435,-0.134
30.76,-0.148,1.386,0.199
30.77,-0.059,0.764,0.043
30.78,-0.383,0.876,-0.113
30.79,-0.43,0.479,-0.114
30.8,-0.12,1.329,0.179
30.81,-0.265,0.936,0.094
30.82,-0.211,0.637,-0.11
30.83,-0.489,1.007,-0.133
30.84,-0.004,1.015,0.166
30.85,-0.2,1.265,0.071
30.86,-0.23,0.316,-0.159
30.87,-0.479,0.991,-0.122
30.88,-0.023,0.969,0.158
30.89,-0.211,1.136,0.064
30.9,-0.229,0.644,-0.089
30.91,-0.386,0.682,-0.074
30.92,-0.158,1.26,0.257
30.93,-0.174,0.667,0.113
30.94,-0.389,1.051,-0.117
30.95,-0.407,0.631,-0.018
30.96,-0.14,1.256,0.152
30.97,-0.169,0.837,0.046
30.98,-0.202,0.719,-0.157
30.99,-0.473,1.118,-0.084
31.0,-0.01,0.893,0.189
31.01,-0.357,1.28,0.089
31.02,-0.178,0.356,-0.111
31.03,-0.48,1.33,-0.083
31.04,0.017,0.906,0.167
31.05,-0.27,1.091,0.062
31.06,-0.276,0.671,-0.123
31.07,-0.465,0.81,-0.045
31.08,-0.107,1.284,0.175
31.09,-0.155,0.713,0.09
31.1,-0.293,0.941,-0.117
31.11,-0.323,0.804,-0.111
31.12,-0.072,1.276,0.156
31.13,-0.226,0.834,0.05
31.14,-0.248,0.701,-0.139
31.15,-0.284,1.342,-0.123
31.16,-0.041,0.858,0.186
31.17,-0.217,1.229,0.071
31.18,-0.264,0.362,-0.183
31.19,-0.41,1.361,-0.068
31.2,-0.08,0.822,0.227
31.21,-0.265,1.1,0.086
31.22,-0.237,0.632,-0.177
31.23,-0.286,1.105,-0.09
31.24,-0.06,1.227,0.158
31.25,-0.077,0.646,0.041
31.26,-0.353,0.975,-0.134
31.27,-0.191,1.042,-0.103
31.28,-0.105,1.271,0.182
31.29,-0.17,0.743,0.091
31.3,-0.39,0.776,-0.104
31.31,-0.33,1.304,-0.107
31.32,-0.08,0.824,0.141
31.33,-0.279,1.232,0.055
31.34,-0.233,0.357,-0.181
31.35,-0.401,1.521,-0.025
31.36,-0.07,0.789,0.192
31.37,-0.289,1.097,0.069
31.38,-0.23,0.565,-0.158
31.39,-0.283,1.314,-0.07
31.4,-0.095,1.15,0.179
31.41,-0.085,0.613,0.062
31.42,-0.418,1.074,-0.15
31.43,-0.268,0.994,-0.048
31.44,-0.164,1.192,0.163
31.45,-0.169,0.779,0.02
31.46,-0.361,0.773,-0.155
31.47,-0.254,1.444,-0.061
31.48,-0.091,1.003,0.179
31.49,-0.154,0.815,0.048
31.5,-0.373,0.644,-0.177
31.51,-0.346,1.856,0.029
31.52,0.008,0.668,0.16
31.53,-0.238,1.006,0.061
31.54,-0.353,0.474,-0.178
31.55,-0.368,1.702,0.032
31.56,-0.071,0.878,0.21
31.57,-0.112,0.701,0.057
31.58,-0.467,0.902,-0.218
31.59,-0.187,1.366,0.021
31.6,-0.207,1.186,0.2
31.61,0.044,0.435,0.043
31.62,-0.507,1.129,-0.176
31.63,-0.188,1.413,0.03
31.64,-0.178,0.949,0.149
31.65,-0.034,0.775,0.043
31.66,-0.486,0.604,-0.22
31.67,-0.208,1.869,0.072
31.68,-0.149,0.685,0.184
31.69,-0.117,0.968,0.056
31.7,-0.332,0.416,-0.208
31.71,-0.227,1.848,0.016
31.72,-0.085,0.725,0.13
31.73,0.033,0.737,0.036
31.74,-0.459,0.84,-0.299
31.75,-0.118,1.342,0.094
31.76,-0.184,1.143,0.162
31.77,0.005,0.386,0.062
31.78,-0.455,1.094,-0.2
31.79,-0.178,1.407,0.056
31.8,0.02,1.053,0.109
31.81,-0.077,0.612,-0.02
31.82,-0.408,0.653,-0.203
31.83,-0.138,1.977,0.024
31.84,-0.027,0.709,0.086
31.85,-0.129,0.948,0.04
31.86,-0.464,0.302,-0.205
31.87,-0.198,1.992,0.125
31.88,-0.152,0.77,0.103
31.89,0.008,0.695,-0.017
31.9,-0.446,0.879,-0.268
31.91,-0.062,1.487,0.057
31.92,-0.154,1.129,0.126
31.93,0.118,0.375,0.025
31.94,-0.553,1.055,-0.224
31.95,0.068,1.538,0.026
31.96,-0.135,1.121,0.053
31.97,0.035,0.553,-0.028
31.98,-0.464,0.718,-0.242
31.99,-0.122,1.918,0.082
32.0,-0.058,0.717,0.125
32.01,-0.107,0.841,-0.001
32.02,-0.382,0.381,-0.19
32.03,-0.24,2.0,0.077
32.04,-0.075,0.727,0.125
32.05,-0.054,0.735,-0.043
32.06,-0.479,0.722,-0.214
32.07,-0.072,1.636,0.117
32.08,-0.228,1.277,0.121
32.09,0.051,0.277,-0.015
32.1,-0.491,1.115,-0.164
32.11,-0.082,1.549,0.108
32.12,-0.196,1.122,0.133
32.13,0.021,0.53,-0.047
32.14,-0.519,0.667,-0.169
32.15,-0.074,1.992,0.137
32.16,-0.139,0.794,0.096
32.17,-0.09,0.818,-0.051
32.18,-0.334,0.398,-0.213
32.19,-0.107,1.923,0.043
32.2,-0.11,0.816,0.048
32.21,-0.096,0.744,-0.103
32.22,-0.397,0.655,-0.198
32.23,0.008,1.709,0.124
32.24,-0.207,1.268,0.098
32.25,0.088,0.326,-0.069
32.26,-0.571,1.092,-0.202
32.27,0.033,1.47,0.126
32.28,-0.25,1.257,0.07
32.29,-0.066,0.363,-0.007
32.3,-0.58,0.871,-0.184
32.31,-0.091,1.313,0.195
32.32,-0.208,1.061,0.068
32.33,-0.178,0.811,-0.092
32.34,-0.379,0.344,-0.146
32.35,-0.213,1.712,0.143
32.36,-0.115,0.827,0.091
32.37,-0.177,0.951,-0.084
32.38,-0.396,0.32,-0.202
32.39,-0.112,1.421,0.178
32.4,-0.188,1.036,0.044
32.41,-0.113,0.61,-0.082
32.42,-0.497,0.877,-0.147
32.43,-0.071,1.048,0.213
32.44,-0.324,1.304,0.101
32.45,-0.083,0.364,-0.094
32.46,-0.51,0.948,-0.166
32.47,-0.02,1.127,0.129
32.48,-0.206,1.116,0.031
32.49,-0.119,0.741,-0.11
32.5,-0.404,0.396,-0.141
32.51,-0.106,1.413,0.138
32.52,-0.144,0.713,0.072
32.53,-0.338,0.983,-0.113
32.54,-0.43,0.325,-0.13
32.55,-0.152,1.32,0.18
32.56,-0.222,0.972,0.04
32.57,-0.12,0.585,-0.14
32.58,-0.558,0.896,-0.173
32.59,0.066,0.913,0.197
32.6,-0.329,1.324,-0.018
32.61,-0.046,0.362,-0.158
32.62,-0.562,0.996,-0.107
32.63,-0.006,1.001,0.13
32.64,-0.25,1.036,0.059
32.65,-0.27,0.695,-0.114
32.66,-0.437,0.498,-0.096
32.67,-0.149,1.343,0.179
32.68,-0.089,0.753,0.058
32.69,-0.344,0.94,-0.142
32.7,-0.413,0.53,-0.044
32.71,-0.078,1.264,0.224
32.72,-0.259,0.961,0.106
32.73,-0.275,0.621,-0.172
32.74,-0.44,1.017,-0.1
32.75,-0.008,0.926,0.133
32.76,-0.212,1.298,0.025
32.77,-0.142,0.354,-0.177
32.78,-0.42,1.125,-0.105
32.79,-0.044,0.931,0.163
32.8,-0.213,1.12,0.079
32.81,-0.24,0.54,-0.125
32.82,-0.319,0.937,-0.047
32.83,-0.116,1.302,0.186
32.84,-0.123,0.622,0.064
32.85,-0.374,1.072,-0.103
32.86,-0.311,0.748,-0.047
32.87,-0.193,1.208,0.229
32.88,-0.185,0.879,0.072
32.89,-0.375,0.628,-0.112
32.9,-0.32,1.256,-0.076
32.91,-0.107,0.825,0.211
32.92,-0.282,1.22,0.081
32.93,-0.216,0.325,-0.132
32.94,-0.276,1.625,-0.054
32.95,-0.029,0.826,0.207
32.96,-0.156,0.987,0.047
32.97,-0.34,0.726,-0.186
32.98,-0.258,1.021,-0.049
32.99,-0.162,1.119,0.154
33.0,-0.077,0.68,0.02
33.01,-0.376,1.027,-0.189
33.02,-0.167,0.963,-0.091
33.03,-0.072,1.21,0.145
33.04,-0.192,0.799,0.057
33.05,-0.327,0.767,-0.129
33.06,-0.217,1.495,-0.083
33.07,-0.013,0.823,0.17
33.08,-0.244,1.158,0.022
33.09,-0.38,0.526,-0.221
33.1,-0.275,1.813,0.025
33.11,-0.102,0.637,0.128
33.12,-0.166,1.085,0.097
33.13,-0.339,0.472,-0.203
33.14,-0.321,1.683,0.057
33.15,-0.048,0.898,0.175
33.16,-0.061,0.686,0.052
33.17,-0.404,0.97,-0.205
33.18,-0.208,1.373,0.078
33.19,-0.219,1.14,0.18
33.2,0.001,0.501,0.085
33.21,-0.491,1.03,-0.173
33.22,-0.205,1.436,0.098
33.23,-0.099,0.928,0.133
33.24,-0.046,0.782,0.064
33.25,-0.416,0.61,-0.197
33.26,-0.221,1.919,0.074
33.27,-0.092,0.705,0.184
33.28,-0.116,0.95,0.055
33.29,-0.413,0.372,-0.235
33.3,-0.132,1.848,0.087
33.31,-0.117,0.872,0.103
33.32,-0.018,0.615,0.014
33.33,-0.436,0.945,-0.248
33.34,-0.091,1.453,0.074
33.35,-0.138,1.113,0.14
33.36,0.059,0.421,0.018
33.37,-0.509,1.024,-0.188
33.38,-0.053,1.585,0.054
33.39,-0.174,1.007,0.168
33.4,-0.001,0.717,0.038
33.41,-0.575,0.565,-0.193
33.42,-0.125,2.0,0.127
33.43,-0.11,0.68,0.108
33.44,-0.126,0.886,0.017
33.45,-0.343,0.408,-0.254
33.46,-0.223,1.856,0.098
33.47,-0.01,0.851,0.134
33.48,-0.106,0.571,-0.051
33.49,-0.432,0.783,-0.245
33.5,-0.058,1.523,0.073
33.51,-0.155,1.194,0.12
33.52,0.063,0.371,-0.034
33.53,-0.486,1.081,-0.253
33.54,-0.022,1.564,0.083
33.55,-0.17,1.171,0.104
33.56,0.005,0.539,-0.006
33.57,-0.501,0.643,-0.165
33.58,-0.116,1.965,0.09
33.59,-0.109,0.699,0.125
33.6,-0.111,0.931,-0.042
33.61,-0.399,0.316,-0.215
33.62,-0.159,1.872,0.138
33.63,-0.079,0.855,0.088
33.64,-0.073,0.592,-0.03
33.65,-0.382,0.833,-0.242
33.66,-0.078,1.405,0.11
33.67,-0.241,1.285,0.106
33.68,0.05,0.37,-0.074
33.69,-0.547,1.007,-0.217
33.7,-0.01,1.409,0.116
33.71,-0.304,1.187,0.094
33.72,-0.003,0.596,-0.034
33.73,-0.511,0.562,-0.197
33.74,-0.185,1.714,0.125
33.75,-0.164,0.786,0.093
33.76,-0.097,1.017,-0.092
33.77,-0.424,0.181,-0.229
33.78,-0.051,1.903,0.105
33.79,-0.093,0.914,0.092
33.8,-0.144,0.731,-0.088
33.81,-0.431,0.681,-0.181
33.82,0.016,1.541,0.131
33.83,-0.247,1.333,0.08
33.84,0.064,0.307,-0.086
33.85,-0.523,1.052,-0.179
33.86,0.012,1.223,0.139
33.87,-0.209,1.173,0.076
33.88,-0.061,0.632,-0.071
33.89,-0.494,0.55,-0.129
33.9,-0.124,1.246,0.172
33.91,-0.267,0.992,0.125
33.92,-0.192,0.831,-0.095
33.93,-0.493,0.325,-0.095
33.94,-0.138,1.52,0.185
33.95,-0.128,0.792,0.094
33.96,-0.122,0.956,-0.086
33.97,-0.525,0.388,-0.189
33.98,-0.034,1.271,0.203
33.99,-0.24,1.061,0.021
34.0,-0.159,0.523,-0.105
34.01,-0.522,0.921,-0.168
34.02,-0.008,1.058,0.204
34.03,-0.31,1.367,0.101
34.04,-0.022,0.406,-0.103
34.05,-0.506,0.872,-0.146
34.06,-0.0,1.068,0.203
34.07,-0.169,1.093,0.012
34.08,-0.094,0.745,-0.129
34.09,-0.447,0.416,-0.137
34.1,-0.144,1.377,0.153
34.11,-0.134,0.698,0.026
34.12,-0.261,0.952,-0.119
34.13,-0.413,0.365,-0.174
34.14,-0.113,1.266,0.207
34.15,-0.119,1.052,-0.04
34.16,-0.217,0.497,-0.155
34.17,-0.44,0.912,-0.122
34.18,-0.028,0.917,0.184
34.19,-0.218,1.32,-0.002
34.2,-0.11,0.295,-0.144
34.21,-0.47,0.972,-0.126
34.22,-0.001,1.034,0.143
34.23,-0.276,1.05,0.053
34.24,-0.255,0.714,-0.111
34.25,-0.35,0.505,-0.089
34.26,-0.142,1.349,0.16
34.27,-0.109,0.713,0.037
34.28,-0.363,0.968,-0.106
34.29,-0.357,0.473,-0.121
34.3,-0.09,1.219,0.148
34.31,-0.238,0.96,0.002
34.32,-0.149,0.575,-0.157
34.33,-0.428,1.093,-0.125
34.34,0.077,0.861,0.166
34.35,-0.301,1.359,0.012
34.36,-0.159,0.355,-0.169
34.37,-0.433,1.134,-0.067
34.38,-0.038,0.929,0.16
34.39,-0.222,1.052,0.076
34.4,-0.222,0.668,-0.166
34.41,-0.265,0.81,-0.085
34.42,-0.095,1.28,0.192
34.43,-0.154,0.671,0.04
34.44,-0.311,0.933,-0.15
34.45,-0.197,1.03,-0.077
34.46,-0.109,1.164,0.196
34.47,-0.181,0.849,0.068
34.48,-0.358,0.741,-0.144
34.49,-0.34,1.312,-0.055
34.5,-0.071,0.82,0.166
34.51,-0.245,1.282,0.09
34.52,-0.229,0.325,-0.158
34.53,-0.321,1.567,-0.037
34.54,-0.018,0.816,0.181
34.55,-0.201,1.017,0.004
34.56,-0.328,0.664,-0.139
34.57,-0.214,1.261,-0.068
34.58,-0.053,1.213,0.159
34.59,0.018,0.511,0.02
34.6,-0.519,1.159,-0.161
34.61,-0.147,1.076,-0.055
34.62,-0.287,1.079,0.148
34.63,-0.071,0.824,0.045
34.64,-0.444,0.732,-0.199
34.65,-0.201,1.558,-0.043
34.66,-0.039,0.778,0.143
34.67,-0.143,1.104,0.02
34.68,-0.311,0.432,-0.224
34.69,-0.202,1.857,-0.016
34.7,-0.105,0.699,0.138
34.71,-0.089,0.964,0.045
34.72,-0.446,0.474,-0.194
34.73,-0.184,1.719,0.082
34.74,-0.148,0.853,0.143
34.75,-0.014,0.598,0.042
34.76,-0.541,0.986,-0.188
34.77,-0.111,1.394,0.106
34.78,-0.236,1.139,0.115
34.79,0.036,0.414,0.105
34.8,-0.517,0.996,-0.188
34.81,-0.069,1.546,0.059
34.82,-0.173,0.983,0.17
34.83,-0.076,0.773,0.037
34.84,-0.404,0.513,-0.187
34.85,-0.206,1.989,0.13
34.86,-0.062,0.712,0.187
34.87,-0.186,0.899,0.051
34.88,-0.448,0.4,-0.207
34.89,-0.176,1.897,0.07
34.9,-0.093,0.859,0.089
34.91,0.07,0.619,-0.002
34.92,-0.458,0.921,-0.237
34.93,0.01,1.457,0.07
34.94,-0.212,1.154,0.129
34.95,0.138,0.408,0.034
34.96,-0.519,1.081,-0.254
34.97,-0.01,1.535,0.093
34.98,-0.132,0.99,0.151
34.99,0.02,0.67,-0.031
35.0,-0.382,0.557,-0.212
35.01,-0.174,1.972,0.07
35.02,-0.083,0.682,0.187
35.03,-0.155,0.926,0.067
35.04,-0.373,0.372,-0.22
35.05,-0.098,1.979,0.102
35.06,-0.095,0.891,0.111
35.07,-0.006,0.516,-0.041
35.08,-0.403,0.966,-0.254
35.09,-0.111,1.464,0.1
35.1,-0.206,1.155,0.204
35.11,0.101,0.417,0.016
35.12,-0.57,1.028,-0.222
35.13,0.043,1.665,0.077
35.14,-0.173,1.072,0.073
35.15,0.068,0.638,0.001
35.16,-0.428,0.608,-0.223
35.17,-0.124,1.962,0.057
35.18,0.029,0.712,0.067
35.19,-0.144,0.868,0.012
35.2,-0.353,0.328,-0.239
35.21,-0.137,2.0,0.067
35.22,-0.052,0.803,0.155
35.23,-0.031,0.648,-0.047
35.24,-0.495,0.878,-0.245
35.25,-0.062,1.687,0.11
35.26,-0.216,1.28,0.118
35.27,0.075,0.265,-0.012
35.28,-0.535,1.062,-0.226
35.29,-0.054,1.447,0.068
35.3,-0.158,1.109,0.076
35.31,0.021,0.623,-0.034
35.32,-0.399,0.588,-0.175
35.33,-0.178,1.997,0.111
35.34,-0.057,0.727,0.116
35.35,-0.117,0.903,-0.056
35.36,-0.317,0.39,-0.222
35.37,-0.168,2.0,0.134
35.38,-0.078,0.83,0.112
35.39,-0.099,0.551,-0.026
35.4,-0.415,0.829,-0.247
35.41,-0.096,1.512,0.114
35.42,-0.171,1.268,0.041
35.43,0.02,0.386,-0.059
35.44,-0.472,1.062,-0.213
35.45,-0.007,1.423,0.128
35.46,-0.215,1.237,0.152
35.47,-0.043,0.603,-0.061
35.48,-0.465,0.666,-0.179
35.49,-0.099,1.962,0.144
35.5,-0.028,0.781,0.057
35.51,-0.19,0.845,-0.047
35.52,-0.424,0.318,-0.14
35.53,-0.261,1.837,0.179
35.54,-0.074,0.849,0.147
35.55,-0.207,0.867,-0.055
35.56,-0.439,0.386,-0.146
35.57,-0.177,1.453,0.227
35.58,-0.271,1.145,0.121
35.59,-0.093,0.493,-0.042
35.6,-0.529,0.918,-0.154
35.61,-0.002,1.136,0.226
35.62,-0.279,1.323,0.097
35.63,-0.016,0.432,-0.058
35.64,-0.513,0.823,-0.175
35.65,-0.037,1.258,0.164
35.66,-0.164,1.053,0.105
35.67,-0.168,0.842,-0.053
35.68,-0.446,0.287,-0.121
35.69,-0.223,1.575,0.212
35.7,-0.077,0.82,0.101
35.71,-0.194,0.928,-0.124
35.72,-0.399,0.394,-0.187
35.73,-0.156,1.305,0.2
35.74,-0.217,1.11,0.018
35.75,-0.031,0.516,-0.068
35.76,-0.465,0.905,-0.194
35.77,0.016,0.993,0.167
35.78,-0.276,1.327,0.038
35.79,-0.127,0.381,-0.086
35.8,-0.466,0.852,-0.148
35.81,-0.074,1.187,0.163
35.82,-0.178,1.134,0.078
35.83,-0.172,0.759,-0.11
35.84,-0.38,0.355,-0.136
35.85,-0.08,1.406,0.175
35.86,-0.191,0.775,0.036
35.87,-0.161,0.94,-0.113
35.88,-0.502,0.413,-0.129
35.89,-0.059,1.279,0.152
35.9,-0.303,0.978,-0.02
35.91,-0.176,0.556,-0.129
35.92,-0.5,0.952,-0.109
35.93,0.037,0.918,0.206
35.94,-0.331,1.303,0.053
35.95,-0.105,0.343,-0.122
35.96,-0.487,1.109,-0.065
35.97,0.031,1.068,0.15
35.98,-0.26,0.951,0.066
35.99,-0.237,0.843,-0.158
36.0,-0.407,0.537,-0.055
36.01,0.007,1.088,0.161
36.02,-0.237,1.078,0.049
36.03,-0.18,0.745,-0.113
36.04,-0.484,0.462,-0.101
36.05,-0.097,1.396,0.144
36.06,-0.186,0.713,0.067
36.07,-0.267,0.954,-0.079
36.08,-0.457,0.408,-0.116
36.09,-0.157,1.311,0.188
36.1,-0.296,0.891,0.03
36.11,-0.277,0.658,-0.098
36.12,-0.493,0.861,-0.149
36.13,-0.012,0.947,0.184
36.14,-0.279,1.241,0.043
36.15,-0.156,0.414,-0.112
36.16,-0.552,1.012,-0.085
36.17,-0.027,0.946,0.198
36.18,-0.241,1.123,0.024
36.19,-0.243,0.58,-0.132
36.2,-0.392,0.664,-0.075
36.21,-0.127,1.324,0.193
36.22,-0.198,0.71,0.071
36.23,-0.318,0.984,-0.118
36.24,-0.292,0.939,-0.039
36.25,-0.118,1.297,0.148
36.26,-0.071,0.668,0.044
36.27,-0.403,1.004,-0.195
36.28,-0.265,0.979,-0.071
36.29,-0.146,0.982,0.138
36.3,-0.182,1.112,0.058
36.31,-0.272,0.391,-0.187
36.32,-0.266,1.731,-0.061
36.33,0.005,0.765,0.206
36.34,-0.252,1.13,0.116
36.35,-0.189,0.469,-0.186
36.36,-0.318,1.492,-0.079
36.37,-0.096,0.983,0.145
36.38,-0.081,0.746,0.075
36.39,-0.437,0.987,-0.168
36.4,-0.262,0.929,0.003
36.41,-0.271,1.212,0.201
36.42,-0.076,0.656,0.066
36.43,-0.398,0.874,-0.137
36.44,-0.158,1.261,-0.095
36.45,-0.102,1.003,0.186
36.46,-0.054,0.939,0.032
36.47,-0.4,0.579,-0.181
36.48,-0.248,1.758,-0.0
36.49,-0.138,0.709,0.175
36.5,-0.257,1.104,0.109
36.51,-0.34,0.464,-0.139
36.52,-0.311,1.49,-0.024
36.53,-0.164,0.879,0.171
36.54,-0.142,0.771,0.029
36.55,-0.408,0.914,-0.152
36.56,-0.206,1.158,-0.029
36.57,-0.205,1.219,0.209
36.58,-0.078,0.575,0.068
36.59,-0.47,0.98,-0.124
36.6,-0.214,1.348,-0.035
36.61,-0.16,1.017,0.182
36.62,-0.081,0.86,0.019
36.63,-0.342,0.636,-0.172
36.64,-0.272,1.8,-0.019
36.65,-0.064,0.738,0.119
36.66,-0.118,1.04,0.093
36.67,-0.387,0.507,-0.169
36.68,-0.331,1.667,-0.008
36.69,-0.064,0.885,0.105
36.7,-0.043,0.708,0.05
36.71,-0.484,0.937,-0.213
36.72,-0.278,1.249,0.038
36.73,-0.244,1.102,0.181
36.74,-0.064,0.56,0.131
36.75,-0.519,1.047,-0.137
36.76,-0.37,1.264,0.026
36.77,-0.18,0.998,0.127
36.78,-0.104,0.848,0.059
36.79,-0.315,0.674,-0.171
36.8,-0.343,1.781,-0.006
36.81,-0.029,0.72,0.133
36.82,-0.17,1.061,0.088
36.83,-0.401,0.478,-0.12
36.84,-0.362,1.77,0.009
36.85,-0.044,0.793,0.12
36.86,-0.097,0.779,0.06
36.87,-0.414,0.947,-0.178
36.88,-0.197,1.34,-0.009
36.89,-0.187,1.187,0.176
36.9,0.147,0.481,0.059
36.91,-0.544,1.085,-0.206
36.92,-0.233,1.339,0.106
36.93,-0.227,0.987,0.152
36.94,-0.04,0.773,0.077
36.95,-0.432,0.667,-0.216
36.96,-0.284,1.815,0.084
36.97,-0.131,0.681,0.14
36.98,-0.124,1.007,0.103
36.99,-0.354,0.491,-0.187
37.0,-0.354,1.81,0.096
37.01,-0.067,0.836,0.198
37.02,-0.093,0.77,0.1
37.03,-0.493,0.875,-0.15
37.04,-0.186,1.708,0.109
37.05,-0.171,0.943,0.122
37.06,-0.029,0.488,0.033
37.07,-0.497,1.08,-0.208
37.08,-0.106,1.359,0.096
37.09,-0.246,1.163,0.199
37.1,0.025,0.434,0.089
37.11,-0.467,0.922,-0.195
37.12,-0.076,1.669,0.051
37.13,-0.073,0.927,0.095
37.14,-0.105,0.831,-0.0
37.15,-0.331,0.48,-0.188
37.16,-0.31,1.978,0.069
37.17,-0.011,0.65,0.113
37.18,-0.158,0.875,0.016
37.19,-0.324,0.519,-0.203
37.2,-0.195,1.733,0.032
37.21,-0.176,0.862,0.148
37.22,0.036,0.555,0.003
37.23,-0.556,0.981,-0.191
37.24,-0.063,1.344,0.127
37.25,-0.381,1.182,0.181
37.26,0.084,0.4,0.076
37.27,-0.545,0.984,-0.199
37.28,-0.13,1.653,0.046
37.29,-0.179,0.823,0.185
37.3,0.036,0.867,-0.012
37.31,-0.427,0.479,-0.198
37.32,-0.121,2.0,0.091
37.33,-0.118,0.746,0.156
37.34,-0.139,0.822,0.04
37.35,-0.367,0.549,-0.208
37.36,-0.18,1.824,0.073
37.37,-0.154,0.911,0.144
37.38,-0.013,0.543,0.042
37.39,-0.451,0.964,-0.228
37.4,-0.087,1.359,0.082
37.41,-0.178,1.243,0.155
37.42,0.022,0.367,0.038
37.43,-0.478,0.982,-0.161
37.44,-0.115,1.659,0.07
37.45,-0.063,0.975,0.122
37.46,-0.042,0.749,-0.014
37.47,-0.453,0.535,-0.174
37.48,-0.198,2.0,0.092
37.49,-0.206,0.561,0.138
37.5,-0.122,1.004,0.094
37.51,-0.34,0.455,-0.262
37.52,-0.243,1.781,0.048
37.53,-0.188,0.89,0.2
37.54,0.028,0.549,0.04
37.55,-0.433,0.993,-0.185
37.56,-0.128,1.417,0.08
37.57,-0.204,1.145,0.16
37.58,0.061,0.437,0.038
37.59,-0.471,0.98,-0.184
37.6,-0.147,1.596,0.076
37.61,-0.225,0.955,0.152
37.62,-0.04,0.732,0.004
37.63,-0.427,0.543,-0.189
37.64,-0.176,2.0,0.069
37.65,-0.125,0.632,0.154
37.66,-0.076,0.908,0.013
37.67,-0.414,0.428,-0.209
37.68,-0.164,1.867,0.079
37.69,-0.208,0.853,0.1
37.7,0.061,0.595,-0.025
37.71,-0.522,0.88,-0.237
37.72,-0.016,1.463,0.089
37.73,-0.284,1.2,0.122
37.74,0.166,0.364,-0.016
37.75,-0.509,1.044,-0.24
37.76,-0.023,1.611,0.019
37.77,-0.08,0.948,0.067
37.78,0.1,0.733,-0.039
37.79,-0.413,0.547,-0.261
37.8,-0.039,2.0,0.031
37.81,-0.014,0.72,0.096
37.82,-0.116,0.879,0.0
37.83,-0.414,0.393,-0.203
37.84,-0.114,1.97,0.072
37.85,-0.107,0.703,0.113
37.86,-0.056,0.704,-0.068
37.87,-0.418,0.621,-0.222
37.88,-0.102,1.687,0.165
37.89,-0.194,1.026,0.032
37.9,0.094,0.38,-0.028
37.91,-0.502,1.122,-0.213
37.92,-0.025,1.325,0.141
37.93,-0.366,1.24,0.127
37.94,0.057,0.501,-0.068
37.95,-0.486,0.874,-0.194
37.96,-0.018,1.708,0.069
37.97,-0.152,0.876,0.078
37.98,-0.067,0.911,-0.099
37.99,-0.435,0.341,-0.205
38.0,-0.098,2.0,0.122
38.01,-0.066,0.807,0.103
38.02,-0.094,0.75,-0.033
38.03,-0.521,0.562,-0.184
38.04,-0.122,1.667,0.151
38.05,-0.25,1.166,0.066
38.06,0.112,0.459,-0.07
38.07,-0.582,1.004,-0.216
38.08,0.053,1.445,0.128
38.09,-0.284,1.295,0.068
38.1,0.052,0.507,-0.06
38.11,-0.493,0.802,-0.219
38.12,-0.04,1.603,0.148
38.13,-0.192,0.971,0.057
38.14,-0.056,0.895,-0.081
38.15,-0.386,0.319,-0.246
38.16,-0.197,1.843,0.107
38.17,-0.043,0.875,0.105
38.18,-0.271,0.846,-0.065
38.19,-0.345,0.435,-0.189
38.2,-0.22,1.62,0.177
38.21,-0.151,1.151,0.077
38.22,-0.092,0.476,-0.106
38.23,-0.464,0.967,-0.162
38.24,-0.054,1.233,0.199
38.25,-0.329,1.35,0.105
38.26,-0.006,0.495,-0.016
38.27,-0.613,0.749,-0.145
38.28,-0.045,1.33,0.201
38.29,-0.239,1.015,0.087
38.3,-0.154,0.863,-0.097
38.31,-0.416,0.274,-0.152
38.32,-0.25,1.591,0.178
38.33,-0.124,0.786,0.054
38.34,-0.226,0.992,-0.113
38.35,-0.419,0.33,-0.176
38.36,-0.174,1.392,0.178
38.37,-0.209,1.12,0.057
38.38,-0.135,0.493,-0.099
38.39,-0.463,1.015,-0.178
38.4,-0.108,0.977,0.188
38.41,-0.295,1.242,0.07
38.42,-0.077,0.503,-0.117
38.43,-0.544,0.849,-0.133
38.44,-0.042,1.095,0.159
38.45,-0.143,1.079,-0.036
38.46,-0.193,0.767,-0.157
38.47,-0.433,0.361,-0.111
38.48,-0.174,1.463,0.191
38.49,-0.174,0.763,0.07
38.5,-0.217,0.909,-0.141
38.51,-0.451,0.487,-0.164
38.52,-0.087,1.218,0.206
38.53,-0.219,1.049,-0.021
38.54,-0.172,0.445,-0.101
38.55,-0.469,1.008,-0.125
38.56,0.046,0.895,0.146
38.57,-0.297,1.307,-0.006
38.58,-0.114,0.376,-0.172
38.59,-0.465,0.972,-0.089
38.6,-0.001,0.995,0.126
38.61,-0.265,0.995,0.086
38.62,-0.265,0.802,-0.107
38.63,-0.469,0.589,-0.088
38.64,-0.142,1.309,0.181
38.65,-0.139,0.74,0.035
38.66,-0.364,0.986,-0.181
38.67,-0.146,0.996,-0.113
38.68,-0.109,1.211,0.125
38.69,-0.14,0.742,0.054
38.7,-0.352,0.892,-0.216
38.71,-0.195,1.425,-0.129
38.72,-0.077,0.839,0.12
38.73,-0.222,1.129,0.012
38.74,-0.198,0.476,-0.244
38.75,-0.284,1.842,-0.066
38.76,0.047,0.704,0.096
38.77,-0.118,1.072,0.052
38.78,-0.316,0.623,-0.202
38.79,-0.272,1.516,0.006
38.8,-0.105,0.979,0.149
38.81,-0.072,0.638,0.04
38.82,-0.422,1.102,-0.209
38.83,-0.218,1.248,0.056
38.84,-0.135,1.118,0.197
38.85,-0.034,0.559,0.074
38.86,-0.437,0.949,-0.183
38.87,-0.128,1.633,0.054
38.88,-0.036,0.875,0.163
38.89,-0.113,0.863,0.021
38.9,-0.362,0.437,-0.163
38.91,-0.305,2.0,0.143
38.92,-0.028,0.648,0.099
38.93,-0.083,0.923,0.01
38.94,-0.449,0.55,-0.183
38.95,-0.092,1.739,0.131
38.96,-0.227,0.946,0.12
38.97,0.19,0.507,-0.021
38.98,-0.515,0.985,-0.227
38.99,0.038,1.448,0.042
39.0,-0.192,1.181,0.087
39.01,0.135,0.442,0.011
39.02,-0.437,0.964,-0.241
39.03,0.004,1.77,0.003
39.04,-0.037,0.898,0.053
39.05,0.046,0.786,-0.077
39.06,-0.338,0.441,-0.23
39.07,-0.106,2.0,0.034
39.08,-0.036,0.648,0.059
39.09,-0.084,0.858,-0.045
39.1,-0.307,0.49,-0.266
39.11,-0.14,1.75,0.078
39.12,-0.104,0.969,0.095
39.13,0.055,0.422,-0.055
39.14,-0.498,0.973,-0.237
39.15,0.016,1.526,0.093
39.16,-0.191,1.288,0.105
39.17,0.065,0.322,-0.025
39.18,-0.501,0.96,-0.212
39.19,-0.025,1.742,0.069
39.2,-0.157,0.981,0.129
39.21,-0.05,0.754,-0.054
39.22,-0.49,0.447,-0.176
39.23,-0.199,1.988,0.137
39.24,-0.145,0.722,0.108
39.25,-0.176,0.851,0.013
39.26,-0.362,0.387,-0.187
39.27,-0.235,1.841,0.117
39.28,-0.199,0.995,0.145
39.29,-0.001,0.575,-0.05
39.3,-0.663,0.906,-0.141
39.31,-0.035,1.451,0.238
39.32,-0.293,1.385,0.074
39.33,0.062,0.403,-0.039
39.34,-0.529,0.925,-0.152
39.35,-0.097,1.424,0.217
39.36,-0.246,1.051,0.155
39.37,-0.146,0.803,-0.069
39.38,-0.468,0.36,-0.111
39.39,-0.16,1.85,0.197
39.4,-0.165,0.832,0.12
39.41,-0.236,0.949,-0.071
39.42,-0.405,0.345,-0.099
39.43,-0.152,1.643,0.225
39.44,-0.25,1.073,0.13
39.45,-0.035,0.592,-0.082
39.46,-0.472,0.588,-0.174
39.47,-0.018,1.086,0.16
39.48,-0.277,1.273,0.028
39.49,-0.095,0.415,-0.124
39.5,-0.541,0.974,-0.151
39.51,-0.022,0.945,0.175
39.52,-0.202,1.324,0.039
39.53,-0.173,0.43,-0.136
39.54,-0.515,0.719,-0.1
39.55,-0.016,1.215,0.139
39.56,-0.176,0.864,0.05
39.57,-0.284,0.908,-0.145
39.58,-0.423,0.348,-0.109
39.59,-0.167,1.367,0.233
39.6,-0.199,0.795,0.027
39.61,-0.316,0.791,-0.12
39.62,-0.359,0.715,-0.173
39.63,-0.046,1.048,0.151
39.64,-0.179,1.205,-0.016
39.65,-0.201,0.323,-0.15
39.66,-0.381,1.328,-0.082
39.67,-0.02,0.856,0.166
39.68,-0.284,1.168,0.07
39.69,-0.222,0.443,-0.154
39.7,-0.344,1.191,-0.029
39.71,-0.06,1.106,0.17
39.72,-0.183,0.786,0.061
39.73,-0.34,0.939,-0.155
39.74,-0.281,0.877,-0.053
39.75,-0.089,1.256,0.171
39.76,-0.174,0.74,0.101
39.77,-0.355,0.905,-0.111
39.78,-0.27,1.239,-0.027
39.79,0.0,0.968,0.143
39.8,-0.196,1.075,-0.002
39.81,-0.233,0.463,-0.211
39.82,-0.329,1.758,-0.053
39.83,0.005,0.771,0.137
39.84,-0.28,1.118,0.045
39.85,-0.211,0.509,-0.208
39.86,-0.322,1.563,-0.039
39.87,-0.011,0.941,0.096
39.88,-0.113,0.729,0.09
39.89,-0.406,0.99,-0.18
39.9,-0.341,1.198,0.062
39.91,-0.177,1.219,0.179
39.92,-0.073,0.612,0.061
39.93,-0.448,0.992,-0.176
39.94,-0.292,1.469,0.034
39.95,-0.157,0.88,0.196
39.96,-0.1,0.875,0.056
39.97,-0.388,0.497,-0.14
39.98,-0.331,2.0,0.121
39.99,-0.148,0.655,0.196
40.0,-0.153,0.96,0.056
40.01,-0.402,0.467,-0.159
40.02,-0.196,1.735,0.124
40.03,-0.156,0.842,0.087
40.04,-0.023,0.596,0.03
40.05,-0.513,0.967,-0.18
40.06,-0.048,1.429,0.109
40.07,-0.223,1.19,0.157
40.08,0.052,0.397,0.024
40.09,-0.514,0.942,-0.147
40.1,-0.03,1.671,0.071
40.11,-0.155,0.914,0.096
40.12,0.043,0.767,-0.037
40.13,-0.436,0.507,-0.278
40.14,-0.036,2.0,0.025
40.15,-0.052,0.705,0.098
40.16,-0.093,0.837,-0.033
40.17,-0.36,0.421,-0.238
40.18,-0.125,1.888,0.078
40.19,-0.082,0.928,0.077
40.2,-0.031,0.489,-0.037
40.21,-0.37,0.916,-0.315
40.22,0.039,1.578,0.064
40.23,-0.207,1.23,0.105
40.24,0.081,0.349,-0.013
40.25,-0.571,1.005,-0.225
40.26,-0.002,1.284,0.17
40.27,-0.324,1.238,0.123
40.28,-0.015,0.565,-0.061
40.29,-0.53,0.69,-0.163
40.3,-0.082,1.493,0.173
40.31,-0.188,0.888,0.064
40.32,-0.148,0.973,-0.097
40.33,-0.493,0.25,-0.177
40.34,-0.138,1.672,0.189
40.35,-0.232,0.873,0.141
40.36,-0.118,0.841,-0.08
40.37,-0.47,0.532,-0.183
40.38,-0.109,1.245,0.188
40.39,-0.268,1.216,0.076
40.4,-0.092,0.481,-0.09
40.41,-0.562,0.923,-0.146
40.42,-0.102,1.086,0.18
40.43,-0.208,1.312,0.124
40.44,-0.151,0.522,-0.045
40.45,-0.5,0.69,-0.131
40.46,-0.138,1.282,0.2
40.47,-0.135,0.985,0.012
40.48,-0.234,0.858,-0.069
40.49,-0.34,0.285,-0.136
40.5,-0.267,1.46,0.189
40.51,-0.123,0.78,0.023
40.52,-0.253,0.931,-0.122
40.53,-0.359,0.445,-0.184
40.54,-0.08,1.126,0.206
40.55,-0.196,1.23,0.003
40.56,-0.181,0.382,-0.117
40.57,-0.481,1.007,-0.119
40.58,-0.005,0.921,0.201
40.59,-0.216,1.259,-0.001
40.6,-0.137,0.453,-0.125
40.61,-0.507,0.919,-0.071
40.62,-0.042,1.114,0.156
40.63,-0.188,0.83,0.035
40.64,-0.341,0.882,-0.116
40.65,-0.38,0.584,-0.042
40.66,-0.216,1.353,0.174
40.67,-0.183,0.678,0.121
40.68,-0.342,0.904,-0.156
40.69,-0.343,0.88,-0.071
40.7,-0.106,1.056,0.157
40.71,-0.243,1.107,0.014
40.72,-0.208,0.411,-0.135
40.73,-0.345,1.419,-0.047
40.74,-0.075,0.763,0.256
40.75,-0.265,1.254,0.058
40.76,-0.315,0.452,-0.143
40.77,-0.237,1.385,-0.056
40.78,-0.08,0.962,0.149
40.79,-0.139,0.799,-0.011
40.8,-0.332,0.899,-0.191
40.81,-0.152,1.11,-0.086
40.82,-0.173,1.189,0.123
40.83,0.021,0.584,-0.006
40.84,-0.489,1.011,-0.187
40.85,-0.212,1.335,0.032
40.86,-0.087,0.948,0.042
40.87,-0.13,0.887,0.009
40.88,-0.34,0.532,-0.175
40.89,-0.345,1.88,0.061
40.9,-0.085,0.611,0.153
40.91,-0.18,1.034,0.049
40.92,-0.314,0.515,-0.209
40.93,-0.264,1.764,0.026
40.94,-0.067,0.862,0.128
40.95,-0.035,0.667,0.028
40.96,-0.427,0.929,-0.209
40.97,-0.128,1.401,0.071
40.98,-0.259,1.169,0.194
40.99,0.04,0.413,0.064
41.0,-0.508,0.999,-0.176
41.01,-0.062,1.578,0.09
41.02,-0.18,0.951,0.169
41.03,-0.051,0.693,-0.01
41.04,-0.454,0.55,-0.175
41.05,-0.118,2.0,0.093
41.06,-0.126,0.62,0.164
41.07,-0.046,0.879,-0.04
41.08,-0.399,0.355,-0.227
41.09,-0.146,2.0,0.067
41.1,-0.067,0.765,0.094
41.11,-0.055,0.748,-0.026
41.12,-0.476,0.548,-0.22
41.13,-0.095,1.577,0.114
41.14,-0.199,1.098,0.102
41.15,0.004,0.454,-0.053
41.16,-0.512,0.983,-0.193
41.17,-0.027,1.251,0.181
41.18,-0.302,1.296,0.124
41.19,0.009,0.545,-0.028
41.2,-0.525,0.751,-0.167
41.21,-0.118,1.488,0.206
41.22,-0.107,0.975,0.075
41.23,-0.163,0.894,-0.097
41.24,-0.426,0.212,-0.184
41.25,-0.214,1.741,0.175
41.26,-0.107,0.829,0.095
41.27,-0.258,0.88,-0.051
41.28,-0.421,0.481,-0.18
41.29,-0.171,1.316,0.217
41.3,-0.213,1.202,0.089
41.31,-0.137,0.474,-0.075
41.32,-0.456,0.937,-0.224
41.33,-0.076,1.087,0.203
41.34,-0.313,1.323,0.054
41.35,-0.097,0.49,-0.059
41.36,-0.457,0.761,-0.166
41.37,-0.074,1.241,0.147
41.38,-0.174,0.937,0.069
41.39,-0.234,0.939,-0.102
41.4,-0.474,0.244,-0.135
41.41,-0.14,1.458,0.213
41.42,-0.139,0.831,0.048
41.43,-0.266,0.837,-0.14
41.44,-0.446,0.493,-0.157
41.45,-0.042,1.181,0.143
41.46,-0.271,1.182,-0.019
41.47,-0.085,0.427,-0.152
41.48,-0.514,1.031,-0.1
41.49,0.044,0.931,0.157
41.5,-0.299,1.304,0.037
41.51,-0.2,0.472,-0.106
41.52,-0.531,0.81,-0.026
41.53,-0.072,1.105,0.166
41.54,-0.207,0.918,0.024
41.55,-0.254,0.796,-0.113
41.56,-0.428,0.55,-0.023
41.57,-0.119,1.292,0.171
41.58,-0.235,0.716,0.026
41.59,-0.234,0.919,-0.109
41.6,-0.374,0.787,-0.104
41.61,-0.073,1.1,0.156
41.62,-0.218,1.058,0.009
41.63,-0.275,0.47,-0.201
41.64,-0.384,1.269,-0.045
41.65,-0.098,0.761,0.138
41.66,-0.346,1.22,0.095
41.67,-0.203,0.388,-0.169
41.68,-0.293,1.405,-0.064
41.69,-0.053,0.923,0.149
41.7,-0.191,0.819,0.014
41.71,-0.305,0.825,-0.205
41.72,-0.251,0.992,-0.03
41.73,-0.187,1.189,0.123
41.74,-0.16,0.639,0.024
41.75,-0.438,0.965,-0.146
41.76,-0.251,1.104,-0.002
41.77,-0.076,1.046,0.141
41.78,-0.315,0.972,0.089
41.79,-0.254,0.58,-0.136
41.8,-0.332,1.819,0.038
41.81,-0.083,0.687,0.19
41.82,-0.211,1.085,0.061
41.83,-0.343,0.389,-0.221
41.84,-0.293,1.655,0.034
41.85,-0.115,0.789,0.112
41.86,-0.107,0.709,0.028
41.87,-0.393,0.662,-0.215
41.88,-0.157,1.648,0.121
41.89,-0.175,1.111,0.143
41.9,0.047,0.346,0.005
41.91,-0.579,1.072,-0.189
41.92,-0.011,1.475,0.122
41.93,-0.199,1.147,0.148
41.94,0.019,0.487,-0.002
41.95,-0.492,0.869,-0.214
41.96,-0.055,1.908,0.086
41.97,-0.185,0.797,0.143
41.98,-0.043,0.818,0.007
41.99,-0.435,0.378,-0.175
42.0,-0.185,1.978,0.038
42.01,-0.082,0.751,0.083
42.02,-0.073,0.847,-0.05
42.03,-0.487,0.482,-0.193
42.04,-0.092,1.701,0.15
42.05,-0.116,1.16,0.044
42.06,0.018,0.423,-0.077
42.07,-0.504,1.06,-0.21
42.08,-0.034,1.395,0.144
42.09,-0.165,1.359,0.051
42.1,-0.008,0.462,-0.029
42.11,-0.512,0.795,-0.183
42.12,-0.127,1.433,0.195
42.13,-0.169,0.939,0.121
42.14,-0.15,0.976,-0.093
42.15,-0.428,0.212,-0.15
42.16,-0.214,1.693,0.189
42.17,-0.12,0.84,0.125
42.18,-0.198,0.949,-0.072
42.19,-0.464,0.414,-0.112
42.2,-0.16,1.333,0.178
42.21,-0.199,1.217,0.08
42.22,-0.084,0.467,-0.098
42.23,-0.507,0.976,-0.159
42.24,-0.042,0.997,0.169
42.25,-0.228,1.313,0.096
42.26,-0.164,0.419,-0.162
42.27,-0.454,0.812,-0.154
42.28,-0.096,1.238,0.094
42.29,-0.142,0.96,0.017
42.3,-0.157,0.828,-0.146
42.31,-0.369,0.334,-0.129
42.32,-0.188,1.386,0.183
42.33,-0.134,0.771,-0.03
42.34,-0.249,0.896,-0.132
42.35,-0.386,0.49,-0.151
42.36,-0.103,1.149,0.188
42.37,-0.218,1.121,-0.018
42.38,-0.159,0.406,-0.145
42.39,-0.471,1.082,-0.063
42.4,-0.005,0.856,0.164
42.41,-0.262,1.344,-0.004
42.42,-0.207,0.352,-0.133
42.43,-0.409,0.985,-0.049
42.44,-0.09,1.031,0.125
42.45,-0.204,0.911,0.052
42.46,-0.306,0.858,-0.133
42.47,-0.373,0.622,-0.024
42.48,-0.087,1.317,0.175
42.49,-0.205,0.748,0.094
42.5,-0.349,0.875,-0.106
42.51,-0.311,1.008,-0.014
42.52,-0.097,1.143,0.193
42.53,-0.25,0.991,0.037
42.54,-0.252,0.573,-0.149
42.55,-0.264,1.651,-0.057
42.56,0.058,0.751,0.119
42.57,-0.295,1.211,0.007
42.58,-0.203,0.447,-0.195
42.59,-0.274,1.608,-0.064
42.6,0.008,0.868,0.111
42.61,-0.108,0.797,-0.003
42.62,-0.369,0.92,-0.234
42.63,-0.221,1.204,-0.013
42.64,-0.175,1.109,0.112
42.65,-0.054,0.596,0.054
42.66,-0.461,1.046,-0.209
42.67,-0.249,1.306,0.072
42.68,-0.214,1.109,0.173
42.69,0.007,0.553,0.055
42.7,-0.491,0.851,-0.17
42.71,-0.116,1.793,0.09
42.72,-0.125,0.706,0.137
42.73,-0.011,0.895,-0.01
42.74,-0.427,0.385,-0.222
42.75,-0.106,2.0,0.064
42.76,-0.066,0.656,0.144
42.77,-0.088,0.87,0.004
42.78,-0.435,0.531,-0.211
42.79,-0.038,1.785,0.119
42.8,-0.168,1.044,0.098
42.81,0.035,0.365,-0.012
42.82,-0.484,1.077,-0.228
42.83,0.003,1.434,0.078
42.84,-0.108,1.214,0.107
42.85,0.047,0.467,-0.023
42.86,-0.507,0.798,-0.209
42.87,-0.009,1.732,0.119
42.88,-0.084,0.924,0.062
42.89,-0.03,0.829,-0.099
42.9,-0.418,0.337,-0.214
42.91,-0.146,2.0,0.157
42.92,-0.102,0.768,0.07
42.93,-0.077,0.774,-0.042
42.94,-0.475,0.489,-0.182
42.95,-0.144,1.679,0.147
42.96,-0.259,1.098,0.06
42.97,0.015,0.525,-0.067
42.98,-0.522,0.997,-0.174
42.99,-0.036,1.284,0.196
43.0,-0.286,1.398,0.06
43.01,-0.014,0.435,-0.051
43.02,-0.534,0.782,-0.184
43.03,-0.034,1.424,0.184
43.04,-0.229,0.966,0.012
43.05,-0.079,0.943,-0.101
43.06,-0.497,0.229,-0.167
43.07,-0.166,1.767,0.196
43.08,-0.182,0.838,0.091
43.09,-0.206,0.956,-0.06
43.1,-0.475,0.335,-0.165
43.11,-0.101,1.412,0.172
43.12,-0.255,1.239,0.056
43.13,0.037,0.488,-0.051
43.14,-0.528,0.955,-0.17
43.15,0.003,1.041,0.148
43.16,-0.271,1.263,0.047
43.17,-0.096,0.482,-0.117
43.18,-0.497,0.81,-0.1
43.19,-0.108,1.158,0.212
43.2,-0.187,1.005,0.073
43.21,-0.159,0.839,-0.134
43.22,-0.427,0.353,-0.088
43.23,-0.146,1.369,0.16
43.24,-0.206,0.738,0.028
43.25,-0.209,0.952,-0.123
43.26,-0.422,0.486,-0.176
43.27,-0.105,1.223,0.183
43.28,-0.22,1.008,0.012
43.29,-0.245,0.477,-0.173
43.3,-0.45,1.06,-0.03
43.31,-0.072,0.85,0.208
43.32,-0.32,1.249,0.048
43.33,-0.167,0.392,-0.103
43.34,-0.375,1.196,-0.025
43.35,-0.044,1.038,0.169
43.36,-0.21,0.912,0.075
43.37,-0.362,0.809,-0.158
43.38,-0.312,0.779,0.031
43.39,-0.179,1.308,0.162
43.4,-0.177,0.68,0.131
43.41,-0.367,0.97,-0.109
43.42,-0.301,1.039,-0.028
43.43,-0.095,1.118,0.192
43.44,-0.181,0.982,0.043
43.45,-0.299,0.548,-0.165
43.46,-0.279,1.621,-0.04
43.47,-0.055,0.768,0.22
43.48,-0.177,0.988,0.047
43.49,-0.351,0.473,-0.226
43.5,-0.284,1.857,0.034
43.51,-0.077,0.644,0.117
43.52,-0.144,0.963,0.028
43.53,-0.394,0.624,-0.265
43.54,-0.141,1.55,-0.013
43.55,-0.113,1.014,0.134
43.56,0.062,0.537,0.033
43.57,-0.538,1.075,-0.24
43.58,-0.053,1.347,0.03
43.59,-0.272,1.071,0.153
43.6,0.022,0.539,0.062
43.61,-0.547,0.866,-0.213
43.62,-0.082,1.673,0.046
43.63,-0.149,0.831,0.11
43.64,-0.071,0.832,0.014
43.65,-0.395,0.442,-0.246
43.66,-0.201,2.0,0.114
43.67,0.009,0.676,0.117
43.68,-0.145,0.924,0.02
43.69,-0.378,0.571,-0.227
43.7,-0.208,1.744,0.13
43.71,-0.213,0.96,0.154
43.72,0.014,0.479,0.033
43.73,-0.5,1.03,-0.192
43.74,-0.082,1.422,0.076
43.75,-0.216,1.21,0.23
43.76,0.034,0.421,0.011
43.77,-0.538,0.857,-0.159
43.78,-0.024,1.779,0.056
43.79,-0.095,0.914,0.131
43.8,-0.052,0.858,-0.037
43.81,-0.377,0.46,-0.219
43.82,-0.136,2.0,0.088
43.83,-0.05,0.71,0.141
43.84,-0.105,0.828,-0.02
43.85,-0.393,0.502,-0.265
43.86,-0.139,1.742,0.087
43.87,0.011,1.051,0.048
43.88,-0.032,0.423,-0.092
43.89,-0.417,0.982,-0.214
43.9,-0.043,1.513,0.087
43.91,-0.195,1.335,0.082
43.92,0.08,0.448,-0.04
43.93,-0.485,0.953,-0.211
43.94,-0.06,1.634,0.137
43.95,-0.142,1.015,0.099
43.96,-0.11,0.789,-0.069
43.97,-0.463,0.343,-0.182
43.98,-0.247,1.821,0.122
43.99,-0.126,0.777,0.123
44.0,-0.206,0.986,-0.061
44.01,-0.419,0.265,-0.135
44.02,-0.104,1.612,0.165
44.03,-0.211,1.162,0.12
44.04,-0.014,0.497,-0.086
44.05,-0.545,0.933,-0.148
44.06,0.012,1.201,0.22
44.07,-0.405,1.337,0.138
44.08,-0.029,0.443,-0.032
44.09,-0.521,0.851,-0.209
44.1,-0.047,1.242,0.173
44.11,-0.176,1.035,0.049
44.12,-0.222,0.856,-0.077
44.13,-0.39,0.285,-0.119
44.14,-0.236,1.583,0.193
44.15,-0.072,0.824,0.089
44.16,-0.189,0.975,-0.1
44.17,-0.431,0.352,-0.153
44.18,-0.083,1.312,0.158
44.19,-0.231,1.109,0.005
44.2,-0.054,0.549,-0.087
44.21,-0.491,0.935,-0.175
44.22,0.015,0.948,0.198
44.23,-0.311,1.269,-0.003
44.24,-0.132,0.414,-0.101
44.25,-0.502,0.905,-0.081
44.26,-0.055,1.074,0.137
44.27,-0.224,1.082,0.002
44.28,-0.158,0.5,-0.14
44.29,-0.364,1.015,-0.029
44.3,-0.047,1.132,0.157
44.31,-0.209,0.717,0.036
44.32,-0.307,0.968,-0.147
44.33,-0.275,0.933,-0.04
44.34,-0.109,1.324,0.135
44.35,-0.367,0.309,-0.198
44.36,-0.283,1.846,0.164
44.37,-0.126,0.832,0.13
44.38,-0.156,0.919,-0.083
44.39,-0.367,0.446,-0.194
44.4,-0.164,1.536,0.172
44.41,-0.099,1.206,0.018
44.42,-0.094,0.472,-0.087
44.43,-0.469,0.967,-0.181
44.44,-0.02,1.082,0.235
44.45,-0.264,1.26,0.075
44.46,-0.065,0.554,-0.089
44.47,-0.498,0.797,-0.144
44.48,-0.098,1.182,0.213
44.49,-0.158,1.007,0.069
44.5,-0.236,0.89,-0.111
44.51,-0.428,0.33,-0.104
44.52,-0.16,1.379,0.174
44.53,-0.106,0.789,0.043
44.54,-0.243,0.925,-0.121
44.55,-0.411,0.52,-0.11
44.56,-0.078,1.153,0.167
44.57,-0.248,1.089,-0.02
44.58,-0.106,0.479,-0.164
44.59,-0.49,1.076,-0.106
44.6,0.049,0.871,0.157
44.61,-0.318,1.327,0.006
44.62,-0.101,0.389,-0.142
44.63,-0.438,1.021,-0.051
44.64,-0.026,1.046,0.086
44.65,-0.256,0.917,0.008
44.66,-0.241,0.81,-0.115
44.67,-0.277,0.874,-0.033
44.68,-0.136,1.315,0.186
44.69,-0.128,0.625,0.007
44.7,-0.405,1.021,-0.162
44.71,-0.283,0.898,-0.027
44.72,-0.174,1.045,0.129
44.73,-0.229,1.022,0.018
44.74,-0.311,0.526,-0.164
44.75,-0.264,1.659,0.001
44.76,-0.006,0.747,0.188
44.77,-0.208,1.165,0.048
44.78,-0.315,0.451,-0.194
44.79,-0.258,1.716,0.064
44.8,-0.115,0.894,0.201
44.81,-0.113,0.708,0.037
44.82,-0.428,0.87,-0.226
44.83,-0.125,1.293,0.015
44.84,-0.166,1.183,0.136
44.85,0.068,0.464,0.037
44.86,-0.544,1.066,-0.228
44.87,-0.113,1.42,0.109
44.88,-0.189,0.881,0.171
44.89,-0.042,0.762,0.018
44.9,-0.524,0.573,-0.168
44.91,-0.134,1.991,0.092
44.92,-0.038,0.734,0.116
44.93,-0.164,0.848,-0.02
44.94,-0.302,0.365,-0.187
44.95,-0.216,1.979,0.074
44.96,-0.039,0.747,0.127
44.97,-0.135,0.879,-0.039
44.98,-0.424,0.49,-0.233
44.99,-0.115,1.774,0.131
45.0,-0.119,1.219,0.067
45.01,-0.01,0.422,-0.079
45.02,-0.512,0.997,-0.158
45.03,-0.08,1.32,0.214
45.04,-0.286,1.354,0.121
45.05,-0.027,0.488,-0.07
45.06,-0.533,0.745,-0.149
45.07,-0.071,1.392,0.186
45.08,-0.22,0.987,0.1
45.09,-0.194,0.921,-0.092
45.1,-0.354,0.246,-0.161
45.11,-0.194,1.581,0.143
45.12,-0.081,0.813,0.032
45.13,-0.232,0.933,-0.155
45.14,-0.304,0.447,-0.204
45.15,-0.104,1.144,0.147
45.16,-0.213,1.208,-0.031
45.17,-0.156,0.453,-0.122
45.18,-0.431,0.947,-0.117
45.19,-0.002,0.95,0.17
45.2,-0.211,1.332,-0.014
45.21,-0.11,0.418,-0.161
45.22,-0.404,0.94,-0.084
45.23,-0.085,1.04,0.156
45.24,-0.239,0.891,0.014
45.25,-0.238,0.856,-0.139
45.26,-0.29,0.786,-0.057
45.27,-0.081,1.32,0.158
45.28,-0.219,0.712,0.037
45.29,-0.276,0.953,-0.188
45.3,-0.245,1.046,-0.095
45.31,-0.081,1.069,0.125
45.32,-0.203,1.044,0.0
45.33,-0.291,0.57,-0.223
45.34,-0.195,1.698,-0.027
45.35,-0.011,0.708,0.095
45.36,-0.234,1.095,0.052
45.37,-0.305,0.506,-0.206
45.38,-0.294,1.699,0.036
45.39,-0.11,0.868,0.179
45.4,-0.086,0.649,0.052
45.41,-0.503,0.969,-0.222
45.42,-0.225,1.295,0.101
45.43,-0.26,1.097,0.221
45.44,-0.025,0.501,0.081
45.45,-0.577,0.99,-0.151
45.46,-0.093,1.535,0.082
45.47,-0.182,1.018,0.167
45.48,-0.082,0.651,0.02
45.49,-0.416,0.539,-0.123
45.5,-0.116,2.0,0.043
45.51,-0.095,0.673,0.203
45.52,-0.1,0.955,0.011
45.53,-0.427,0.35,-0.19
45.54,-0.089,2.0,0.107
45.55,-0.173,0.811,0.087
45.56,-0.042,0.572,-0.003
45.57,-0.469,0.882,-0.238
45.58,-0.014,1.599,0.093
45.59,-0.16,1.213,0.104
45.6,0.096,0.284,-0.036
45.61,-0.513,1.03,-0.192
45.62,-0.111,1.474,0.131
45.63,-0.212,1.091,0.064
45.64,-0.012,0.775,-0.059
45.65,-0.456,0.518,-0.17
45.66,-0.14,1.855,0.16
45.67,-0.106,0.923,0.095
45.68,-0.183,0.89,-0.079
45.69,-0.384,0.272,-0.175
45.7,-0.217,1.688,0.192
45.71,-0.244,0.951,0.145
45.72,-0.146,0.719,-0.037
45.73,-0.412,0.704,-0.157
45.74,-0.076,1.23,0.204
45.75,-0.207,1.333,0.045
45.76,-0.12,0.44,-0.142
45.77,-0.46,0.955,-0.136
45.78,0.025,0.926,0.179
45.79,-0.33,1.341,0.0
45.8,-0.089,0.405,-0.128
45.81,-0.487,0.882,-0.085
45.82,-0.068,1.127,0.166
45.83,-0.187,0.871,0.05
45.84,-0.319,0.956,-0.149
45.85,-0.314,0.539,-0.049
45.86,-0.194,1.319,0.173
45.87,-0.178,0.732,0.044
45.88,-0.349,0.86,-0.095
45.89,-0.201,1.042,-0.077
45.9,-0.091,1.073,0.154
45.91,-0.223,1.008,0.043
45.92,-0.246,0.522,-0.184
45.93,-0.293,1.557,-0.022
45.94,-0.042,0.73,0.145
45.95,-0.325,1.2,0.058
45.96,-0.24,0.397,-0.183
45.97,-0.303,1.526,-0.013
45.98,-0.063,0.91,0.128
45.99,-0.116,0.785,0.005
46.0,-0.36,0.93,-0.198
46.01,-0.169,1.249,-0.014
46.02,-0.168,1.188,0.163
46.03,-0.021,0.603,0.079
46.04,-0.542,0.966,-0.183
46.05,-0.26,1.312,0.082
46.06,-0.188,0.916,0.145
46.07,-0.109,0.904,0.003
46.08,-0.336,0.551,-0.214
46.09,-0.257,1.949,0.064
46.1,-0.012,0.691,0.138
46.11,-0.172,0.971,0.032
46.12,-0.347,0.406,-0.215
46.13,-0.241,1.877,0.132
46.14,-0.177,0.818,0.126
46.15,-0.034,0.666,-0.014
46.16,-0.446,0.837,-0.212
46.17,-0.052,1.52,0.118
46.18,-0.233,1.163,0.146
46.19,0.084,0.377,-0.033
46.2,-0.534,0.998,-0.253
46.21,-0.004,1.591,0.049
46.22,-0.149,1.003,0.089
46.23,0.046,0.696,-0.05
46.24,-0.51,0.478,-0.208
46.25,-0.127,2.0,0.133
46.26,-0.191,0.723,0.117
46.27,-0.09,0.905,0.008
46.28,-0.478,0.351,-0.166
46.29,-0.192,1.864,0.184
46.3,-0.239,0.906,0.165
46.31,-0.047,0.605,0.005
46.32,-0.513,0.777,-0.15
46.33,-0.088,1.482,0.202
46.34,-0.301,1.287,0.106
46.35,0.03,0.467,-0.052
46.36,-0.633,1.016,-0.135
46.37,0.035,1.403,0.198
46.38,-0.288,1.251,0.074
46.39,-0.075,0.626,-0.113
46.4,-0.471,0.489,-0.145
46.41,-0.098,1.625,0.228
46.42,-0.129,0.744,0.077
46.43,-0.116,1.041,-0.133
46.44,-0.401,0.241,-0.193
46.45,-0.113,1.502,0.12
46.46,-0.218,0.963,0.004
46.47,-0.235,0.65,-0.151
46.48,-0.383,0.711,-0.228
46.49,-0.074,1.02,0.183
46.5,-0.228,1.343,0.008
46.51,-0.088,0.417,-0.147
46.52,-0.522,0.921,-0.117
46.53,0.04,0.995,0.135
46.54,-0.188,1.161,0.034
46.55,-0.249,0.592,-0.154
46.56,-0.374,1.05,-0.09
46.57,-0.035,1.064,0.112
46.58,-0.264,0.876,0.043
46.59,-0.228,0.832,-0.144
46.6,-0.258,0.952,-0.097
46.61,-0.043,1.334,0.146
46.62,-0.103,0.66,0.011
46.63,-0.405,0.982,-0.214
46.64,-0.197,1.163,-0.085
46.65,-0.146,1.014,0.079
46.66,-0.195,1.007,0.022
46.67,-0.291,0.556,-0.172
46.68,-0.392,1.717,0.018
46.69,-0.051,0.675,0.165
46.7,-0.275,1.139,0.056
46.71,-0.267,0.486,-0.158
46.72,-0.354,1.687,0.02
46.73,-0.1,0.856,0.175
46.74,-0.096,0.716,0.06
46.75,-0.441,0.949,-0.203
46.76,-0.237,1.325,0.054
46.77,-0.275,1.112,0.182
46.78,0.001,0.469,0.027
46.79,-0.456,0.998,-0.168
46.8,-0.16,1.506,0.092
46.81,-0.117,0.937,0.097
46.82,-0.057,0.736,0.007
46.83,-0.422,0.562,-0.187
46.84,-0.212,1.964,0.123
46.85,-0.191,0.54,0.163
46.86,-0.145,0.984,0.033
46.87,-0.409,0.363,-0.174
46.88,-0.14,1.955,0.115
46.89,-0.138,0.844,0.106
46.9,0.004,0.545,0.003
46.91,-0.438,0.884,-0.251
46.92,0.015,1.547,0.08
46.93,-0.176,1.194,0.124
46.94,0.094,0.35,-0.032
46.95,-0.487,0.998,-0.237
46.96,0.003,1.669,0.06
46.97,-0.132,1.084,0.066
46.98,0.008,0.661,-0.065
46.99,-0.419,0.558,-0.209
47.0,-0.11,1.965,0.083
47.01,-0.049,0.758,0.07
47.02,-0.144,0.855,-0.058
47.03,-0.401,0.269,-0.177
47.04,-0.184,1.822,0.118
47.05,-0.166,0.906,0.093
47.06,-0.067,0.653,-0.076
47.07,-0.457,0.81,-0.179
47.08,-0.062,1.387,0.173
47.09,-0.239,1.311,0.103
47.1,-0.008,0.438,-0.038
47.11,-0.56,0.913,-0.163
47.12,-0.016,1.227,0.23
47.13,-0.239,1.195,0.077
47.14,-0.149,0.658,-0.083
47.15,-0.466,0.477,-0.174
47.16,-0.153,1.532,0.192
47.17,-0.101,0.812,0.1
47.18,-0.232,0.998,-0.07
47.19,-0.446,0.221,-0.195
47.2,-0.129,1.436,0.134
47.21,-0.175,0.936,-0.018
47.22,-0.143,0.693,-0.103
47.23,-0.479,0.727,-0.161
47.24,0.021,1.108,0.179
47.25,-0.262,1.304,0.078
47.26,-0.068,0.379,-0.108
47.27,-0.581,0.977,-0.114
47.28,0.021,0.997,0.153
47.29,-0.258,1.22,0.021
47.3,-0.175,0.61,-0.093
47.31,-0.528,0.575,-0.032
47.32,-0.189,1.306,0.196
47.33,-0.146,0.726,0.085
47.34,-0.361,0.943,-0.119
47.35,-0.341,0.407,-0.027
47.36,-0.201,1.304,0.194
47.37,-0.1,0.695,0.023
47.38,-0.372,0.922,-0.122
47.39,-0.176,1.131,-0.084
47.4,-0.111,1.069,0.157
47.41,-0.116,1.021,0.016
47.42,-0.331,0.553,-0.177
47.43,-0.3,1.542,-0.009
47.44,-0.073,0.697,0.143
47.45,-0.227,1.242,0.018
47.46,-0.274,0.415,-0.186
47.47,-0.252,1.555,-0.006
47.48,-0.065,0.899,0.169
47.49,-0.108,0.776,0.022
47.5,-0.343,0.946,-0.195
47.51,-0.209,1.215,-0.005
47.52,-0.115,1.186,0.145
47.53,-0.052,0.594,0.066
47.54,-0.461,1.029,-0.186
47.55,-0.25,1.35,0.058
47.56,-0.229,0.874,0.158
47.57,-0.08,0.835,0.017
47.58,-0.39,0.586,-0.179
47.59,-0.25,1.939,0.12
47.6,-0.042,0.677,0.197
47.61,-0.135,1.013,0.07
47.62,-0.458,0.361,-0.161
47.63,-0.225,1.888,0.154
47.64,-0.146,0.76,0.075
47.65,0.018,0.705,0.022
47.66,-0.428,0.874,-0.262
47.67,-0.013,1.478,0.09
47.68,-0.232,1.169,0.139
47.69,0.084,0.358,0.029
47.7,-0.456,1.066,-0.178
47.71,-0.109,1.597,0.142
47.72,-0.136,1.002,0.164
47.73,-0.035,0.703,-0.019
47.74,-0.424,0.524,-0.187
47.75,-0.12,2.0,0.113
47.76,-0.15,0.669,0.097
47.77,-0.094,0.84,-0.045
47.78,-0.433,0.377,-0.218
47.79,-0.146,1.816,0.078
47.8,-0.149,0.873,0.076
47.81,-0.103,0.623,-0.014
47.82,-0.455,0.749,-0.178
47.83,-0.082,1.451,0.182
47.84,-0.223,1.355,0.086
47.85,-0.021,0.419,-0.041
47.86,-0.559,1.016,-0.137
47.87,-0.078,1.395,0.256
47.88,-0.224,1.212,0.096
47.89,-0.083,0.644,-0.056
47.9,-0.455,0.496,-0.193
47.91,-0.159,1.654,0.195
47.92,-0.156,0.813,0.106
47.93,-0.202,1.009,-0.091
47.94,-0.426,0.216,-0.191
47.95,-0.139,1.563,0.172
47.96,-0.163,1.039,0.102
47.97,-0.143,0.669,-0.108
47.98,-0.417,0.692,-0.206
47.99,-0.048,1.082,0.197
48.0,-0.266,1.382,0.01
48.01,-0.031,0.379,-0.097
48.02,-0.49,0.931,-0.174
48.03,-0.003,1.077,0.154
48.04,-0.175,1.265,0.021
48.05,-0.243,0.58,-0.09
48.06,-0.407,0.513,-0.112
48.07,-0.187,1.318,0.185
48.08,-0.129,0.829,-0.009
48.09,-0.281,0.943,-0.106
48.1,-0.393,0.364,-0.124
48.11,-0.171,1.294,0.188
48.12,-0.195,0.876,0.023
48.13,-0.321,0.706,-0.145
48.14,-0.389,0.897,-0.03
48.15,-0.051,0.904,0.179
48.16,-0.294,1.292,0.048
48.17,-0.245,0.492,-0.161
48.18,-0.313,1.595,-0.072
48.19,-0.033,0.752,0.181
48.2,-0.252,1.233,0.072
48.21,-0.292,0.461,-0.22
48.22,-0.278,1.583,-0.037
48.23,-0.051,0.917,0.132
48.24,-0.189,0.734,0.022
48.25,-0.344,0.943,-0.218
48.26,-0.26,1.263,0.023
48.27,-0.138,1.169,0.202
48.28,-0.02,0.512,0.046
48.29,-0.529,1.123,-0.219
48.3,-0.243,1.386,0.044
48.31,-0.152,0.939,0.132
48.32,-0.07,0.833,0.034
48.33,-0.44,0.559,-0.209
48.34,-0.255,1.941,0.062
48.35,-0.068,0.665,0.118
48.36,-0.101,0.986,0.055
48.37,-0.346,0.471,-0.22
48.38,-0.247,1.793,0.086
48.39,-0.145,0.742,0.142
48.4,-0.006,0.709,0.047
48.41,-0.541,0.853,-0.231
48.42,-0.043,1.434,0.129
48.43,-0.276,1.205,0.116
48.44,0.019,0.349,0.044
48.45,-0.513,1.044,-0.196
48.46,-0.038,1.561,0.046
48.47,-0.059,1.028,0.146
48.48,-0.032,0.672,-0.056
48.49,-0.4,0.487,-0.176
48.5,-0.129,2.0,0.053
