t,ax,ay,az
0.0,-0.259,1.628,-0.063
0.01,0.031,0.738,0.123
0.02,-0.301,1.188,0.022
0.03,-0.247,0.434,-0.192
0.04,-0.258,1.604,-0.045
0.05,-0.043,0.93,0.149
0.06,-0.162,0.77,-0.011
0.07,-0.384,0.94,-0.218
0.08,-0.232,1.275,0.025
0.09,-0.113,1.175,0.118
0.1,-0.119,0.554,0.067
0.11,-0.452,1.053,-0.18
0.12,-0.323,1.459,0.097
0.13,-0.143,0.981,0.198
0.14,-0.134,0.82,0.079
0.15,-0.355,0.603,-0.228
0.16,-0.342,1.93,0.095
0.17,-0.013,0.666,0.16
0.18,-0.256,0.987,0.067
0.19,-0.287,0.434,-0.201
0.2,-0.311,1.92,0.019
0.21,-0.086,0.762,0.111
0.22,-0.027,0.675,0.011
0.23,-0.424,0.855,-0.239
0.24,-0.132,1.453,0.076
0.25,-0.252,1.173,0.161
0.26,0.062,0.386,0.057
0.27,-0.53,1.052,-0.167
0.28,-0.084,1.623,0.056
0.29,-0.155,1.002,0.164
0.3,-0.026,0.686,0.018
0.31,-0.466,0.533,-0.171
0.32,-0.134,2.0,0.1
0.33,-0.152,0.585,0.16
0.34,-0.116,0.99,0.059
0.35,-0.396,0.328,-0.205
0.36,-0.107,2.0,0.143
0.37,-0.094,0.826,0.14
0.38,0.025,0.606,0.007
0.39,-0.441,0.81,-0.285
0.4,0.023,1.553,0.107
0.41,-0.171,1.217,0.148
0.42,0.115,0.326,-0.015
0.43,-0.52,1.033,-0.214
0.44,0.002,1.679,0.104
0.45,-0.083,1.073,0.061
0.46,-0.013,0.6,-0.018
0.47,-0.388,0.639,-0.162
0.48,-0.167,2.0,0.106
0.49,-0.083,0.689,0.104
0.5,-0.056,0.983,-0.011
0.51,-0.346,0.307,-0.248
0.52,-0.088,1.978,0.113
0.53,-0.077,0.859,0.09
0.54,-0.056,0.562,-0.007
0.55,-0.478,0.733,-0.202
0.56,-0.02,1.575,0.182
0.57,-0.217,1.163,0.104
0.58,0.062,0.385,-0.016
0.59,-0.565,0.994,-0.238
0.6,0.041,1.516,0.152
0.61,-0.23,1.181,0.099
0.62,0.025,0.584,-0.054
0.63,-0.524,0.846,-0.177
0.64,-0.082,1.4,0.145
0.65,-0.204,0.928,0.094
0.66,-0.169,0.968,-0.077
0.67,-0.434,0.198,-0.149
0.68,-0.21,1.678,0.232
0.69,-0.149,0.848,0.136
0.7,-0.235,0.97,-0.045
0.71,-0.427,0.362,-0.125
0.72,-0.154,1.457,0.215
0.73,-0.147,1.185,0.045
0.74,-0.039,0.519,-0.118
0.75,-0.438,0.924,-0.217
0.76,0.032,1.03,0.151
0.77,-0.216,1.36,-0.007
0.78,-0.051,0.493,-0.089
0.79,-0.48,0.793,-0.142
0.8,-0.087,1.223,0.178
0.81,-0.196,0.998,0.098
0.82,-0.228,0.906,-0.115
0.83,-0.373,0.297,-0.133
0.84,-0.2,1.438,0.163
0.85,-0.088,0.875,0.005
0.86,-0.207,0.916,-0.105
0.87,-0.407,0.429,-0.158
0.88,-0.125,1.203,0.225
0.89,-0.151,1.105,-0.025
0.9,-0.158,0.449,-0.187
0.91,-0.472,0.999,-0.1
0.92,-0.033,0.857,0.17
0.93,-0.274,1.369,0.044
0.94,-0.2,0.361,-0.1
0.95,-0.455,0.913,-0.079
0.96,-0.074,0.995,0.155
0.97,-0.219,1.002,0.076
0.98,-0.245,0.829,-0.188
0.99,-0.321,0.447,-0.11
1.0,-0.187,1.257,0.107
1.01,-0.109,0.787,-0.009
1.02,-0.322,0.853,-0.104
1.03,-0.415,0.684,-0.033
1.04,-0.057,1.098,0.177
1.05,-0.324,1.15,0.029
1.06,-0.222,0.441,-0.104
1.07,-0.415,1.333,-0.07
1.08,0.027,0.809,0.161
1.09,-0.306,1.294,-0.001
1.1,-0.216,0.347,-0.175
1.11,-0.304,1.495,-0.11
1.12,-0.035,0.892,0.161
1.13,-0.202,0.884,0.005
1.14,-0.382,0.795,-0.154
1.15,-0.16,1.082,-0.06
1.16,-0.218,1.217,0.137
1.17,-0.078,0.619,0.034
1.18,-0.427,0.998,-0.18
1.19,-0.246,1.211,-0.028
1.2,-0.055,0.997,0.082
1.21,-0.198,0.906,-0.016
1.22,-0.339,0.601,-0.184
1.23,-0.281,1.807,0.028
1.24,-0.059,0.662,0.157
1.25,-0.238,1.067,0.069
1.26,-0.322,0.372,-0.228
1.27,-0.317,1.887,0.046
1.28,-0.085,0.797,0.132
1.29,-0.178,0.711,0.026
1.3,-0.402,0.84,-0.218
1.31,-0.189,1.443,0.065
1.32,-0.185,1.168,0.189
1.33,0.019,0.41,0.048
1.34,-0.503,1.044,-0.213
1.35,-0.131,1.546,0.079
1.36,-0.157,0.97,0.111
1.37,-0.046,0.721,-0.022
1.38,-0.411,0.596,-0.19
1.39,-0.166,2.0,0.1
1.4,-0.071,0.657,0.157
1.41,-0.085,0.914,0.051
1.42,-0.406,0.33,-0.191
1.43,-0.111,2.0,0.114
1.44,-0.049,0.691,0.076
1.45,-0.046,0.873,-0.044
1.46,-0.417,0.477,-0.255
1.47,-0.067,1.852,0.115
1.48,-0.158,1.085,0.073
1.49,0.088,0.396,-0.074
1.5,-0.461,0.962,-0.204
1.51,-0.094,1.376,0.1
1.52,-0.136,1.323,0.081
1.53,-0.014,0.463,-0.046
1.54,-0.448,0.759,-0.15
1.55,-0.085,1.679,0.125
1.56,-0.16,1.007,0.102
1.57,-0.085,0.927,-0.072
1.58,-0.366,0.279,-0.156
1.59,-0.163,1.927,0.136
1.6,-0.082,0.834,0.096
1.61,-0.151,0.849,-0.063
1.62,-0.323,0.416,-0.161
1.63,-0.182,1.477,0.172
1.64,-0.209,1.133,0.106
1.65,-0.056,0.542,-0.064
1.66,-0.489,0.908,-0.151
1.67,-0.05,1.149,0.126
1.68,-0.238,1.345,0.046
1.69,-0.031,0.515,-0.076
1.7,-0.493,0.765,-0.138
1.71,-0.066,1.239,0.188
1.72,-0.215,1.073,0.052
1.73,-0.156,0.888,-0.068
1.74,-0.405,0.25,-0.114
1.75,-0.219,1.475,0.228
1.76,-0.123,0.854,0.029
1.77,-0.208,0.895,-0.11
1.78,-0.346,0.447,-0.149
1.79,-0.115,1.223,0.159
1.8,-0.182,1.061,-0.053
1.81,-0.115,0.499,-0.154
1.82,-0.43,0.974,-0.109
1.83,-0.032,0.852,0.216
1.84,-0.319,1.345,-0.054
1.85,-0.124,0.364,-0.123
1.86,-0.459,0.948,-0.086
1.87,-0.071,0.993,0.168
1.88,-0.262,1.009,0.06
1.89,-0.287,0.825,-0.123
1.9,-0.347,0.613,-0.05
1.91,-0.106,1.285,0.146
1.92,-0.142,0.725,0.016
1.93,-0.357,0.91,-0.15
1.94,-0.286,0.856,-0.082
1.95,-0.031,1.121,0.126
1.96,-0.332,1.059,-0.007
1.97,-0.178,0.484,-0.173
1.98,-0.444,1.43,-0.031
1.99,0.051,0.729,0.189
2.0,-0.314,1.307,-0.007
2.01,-0.252,0.389,-0.209
2.02,-0.261,1.529,-0.005
2.03,-0.086,0.901,0.187
2.04,-0.146,0.851,0.021
2.05,-0.412,0.842,-0.162
2.06,-0.174,1.241,0.024
2.07,-0.166,1.166,0.142
2.08,-0.043,0.572,0.054
2.09,-0.511,1.043,-0.168
2.1,-0.204,1.367,0.047
2.11,-0.092,0.985,0.163
2.12,-0.117,0.823,0.024
2.13,-0.428,0.588,-0.242
2.14,-0.188,1.906,0.059
2.15,-0.078,0.703,0.118
2.16,-0.133,0.986,0.032
2.17,-0.346,0.396,-0.219
2.18,-0.228,1.969,0.06
2.19,-0.116,0.833,0.145
2.2,-0.073,0.625,0.007
2.21,-0.499,0.832,-0.19
2.22,-0.167,1.509,0.134
2.23,-0.122,1.008,0.121
2.24,0.01,0.368,-0.011
2.25,-0.527,1.026,-0.19
2.26,-0.068,1.514,0.112
2.27,-0.247,1.23,0.177
2.28,0.081,0.462,0.026
2.29,-0.147,0.643,0.028
2.3,-0.464,0.961,-0.213
2.31,-0.156,1.256,0.056
2.32,-0.186,1.132,0.135
2.33,-0.003,0.532,0.051
2.34,-0.525,0.924,-0.205
2.35,-0.065,1.661,0.065
2.36,-0.142,0.871,0.148
2.37,-0.009,0.808,0.003
2.38,-0.422,0.443,-0.207
2.39,-0.129,2.0,0.134
2.4,0.012,0.67,0.074
2.41,-0.167,0.857,-0.015
2.42,-0.324,0.473,-0.184
2.43,-0.18,1.92,0.122
2.44,-0.098,0.858,0.158
2.45,-0.061,0.496,-0.008
2.46,-0.477,0.89,-0.195
2.47,-0.049,1.481,0.087
2.48,-0.112,1.308,0.095
2.49,0.02,0.321,-0.017
2.5,-0.491,0.939,-0.168
2.51,-0.079,1.65,0.126
2.52,-0.097,0.992,0.082
2.53,-0.049,0.778,-0.108
2.54,-0.423,0.425,-0.166
2.55,-0.164,1.771,0.162
2.56,-0.078,0.77,0.093
2.57,-0.161,0.946,-0.051
2.58,-0.351,0.282,-0.19
2.59,-0.188,1.568,0.14
2.6,-0.218,1.072,0.106
2.61,-0.092,0.682,-0.076
2.62,-0.432,0.764,-0.156
2.63,-0.017,1.24,0.176
2.64,-0.295,1.451,0.124
2.65,-0.05,0.422,-0.068
2.66,-0.484,0.883,-0.142
2.67,-0.079,1.182,0.192
2.68,-0.28,1.122,0.183
2.69,-0.158,0.854,-0.101
2.7,-0.392,0.343,-0.119
2.71,-0.208,1.396,0.21
2.72,-0.15,0.792,0.028
2.73,-0.264,0.928,-0.09
2.74,-0.396,0.397,-0.102
2.75,-0.108,1.24,0.192
2.76,-0.257,1.041,-0.059
2.77,-0.104,0.63,-0.116
2.78,-0.447,1.044,-0.076
2.79,-0.025,0.811,0.163
2.8,-0.276,1.359,0.071
2.81,-0.271,0.291,-0.147
2.82,-0.424,1.141,-0.012
2.83,-0.117,0.859,0.146
2.84,-0.283,1.032,0.024
2.85,-0.308,0.703,-0.114
2.86,-0.187,1.07,-0.029
2.87,-0.112,1.21,0.123
2.88,-0.073,0.641,0.001
2.89,-0.457,1.065,-0.224
2.9,-0.12,1.237,0.008
2.91,-0.257,1.149,0.196
2.92,-0.049,0.546,0.013
2.93,-0.548,0.896,-0.19
2.94,-0.136,1.636,0.059
2.95,-0.151,0.779,0.106
2.96,-0.101,0.872,-0.008
2.97,-0.4,0.428,-0.168
2.98,-0.171,2.0,0.091
2.99,-0.11,0.659,0.2
3.0,-0.107,0.888,0.012
3.01,-0.491,0.493,-0.192
3.02,-0.105,1.865,0.138
3.03,-0.209,0.894,0.115
3.04,-0.058,0.472,0.038
3.05,-0.497,0.971,-0.189
3.06,-0.055,1.566,0.12
3.07,-0.097,1.194,0.148
3.08,0.04,0.344,-0.023
3.09,-0.455,0.894,-0.205
3.1,-0.016,1.69,0.093
3.11,-0.054,0.922,0.032
3.12,-0.015,0.847,-0.101
3.13,-0.468,0.381,-0.154
3.14,-0.132,1.964,0.138
3.15,-0.125,0.755,0.11
3.16,-0.044,0.918,-0.078
3.17,-0.477,0.349,-0.19
3.18,-0.041,1.722,0.148
3.19,-0.177,1.092,0.041
3.2,-0.032,0.577,-0.123
3.21,-0.51,0.845,-0.141
3.22,-0.054,1.267,0.198
3.23,-0.295,1.427,0.107
3.24,-0.019,0.432,-0.042
3.25,-0.522,0.905,-0.178
3.26,-0.034,1.247,0.156
3.27,-0.201,1.105,0.077
3.28,-0.122,0.881,-0.145
3.29,-0.317,0.299,-0.136
3.3,-0.208,1.45,0.164
3.31,-0.096,0.792,-0.022
3.32,-0.194,1.015,-0.118
3.33,-0.433,0.372,-0.128
3.34,-0.105,1.172,0.212
3.35,-0.236,1.122,-0.032
3.36,-0.213,0.527,-0.124
3.37,-0.418,0.986,-0.081
3.38,-0.067,0.823,0.162
3.39,-0.311,1.349,-0.003
3.4,-0.145,0.358,-0.19
3.41,-0.388,1.104,-0.088
3.42,-0.05,0.91,0.117
3.43,-0.292,1.021,0.039
3.44,-0.3,0.724,-0.141
3.45,-0.244,0.953,-0.01
3.46,-0.133,1.244,0.163
3.47,-0.182,0.612,0.052
3.48,-0.433,1.056,-0.152
3.49,-0.18,1.085,-0.002
3.5,-0.203,1.036,0.156
3.51,-0.197,0.919,-0.003
3.52,-0.32,0.646,-0.239
3.53,-0.225,1.752,0.017
3.54,0.021,0.649,0.143
3.55,-0.222,1.067,0.054
3.56,-0.312,0.467,-0.228
3.57,-0.334,1.784,0.045
3.58,-0.013,0.813,0.175
3.59,-0.115,0.737,-0.007
3.6,-0.502,0.752,-0.221
3.61,-0.219,1.49,0.104
3.62,-0.208,1.074,0.157
3.63,-0.008,0.385,0.06
3.64,-0.462,1.101,-0.159
3.65,-0.161,1.541,0.102
3.66,-0.109,1.039,0.109
3.67,-0.059,0.597,-0.021
3.68,-0.465,0.647,-0.188
3.69,-0.076,2.0,0.086
3.7,-0.148,0.885,0.094
3.71,-0.047,0.808,-0.068
3.72,-0.453,0.323,-0.173
3.73,-0.089,2.0,0.151
3.74,-0.121,0.721,0.099
3.75,-0.109,0.838,-0.054
3.76,-0.372,0.339,-0.197
3.77,-0.038,1.678,0.141
3.78,-0.13,1.166,0.068
3.79,-0.045,0.544,-0.091
3.8,-0.496,0.841,-0.168
3.81,-0.013,1.342,0.185
3.82,-0.245,1.433,0.12
3.83,-0.002,0.474,-0.052
3.84,-0.508,0.844,-0.187
3.85,-0.034,1.303,0.117
3.86,-0.165,1.032,0.057
3.87,-0.083,0.979,-0.113
3.88,-0.424,0.258,-0.134
3.89,-0.181,1.468,0.135
3.9,-0.164,0.817,0.028
3.91,-0.193,1.011,-0.115
3.92,-0.378,0.333,-0.175
3.93,-0.113,1.151,0.184
3.94,-0.183,1.111,-0.026
3.95,-0.044,0.525,-0.129
3.96,-0.485,0.959,-0.096
3.97,-0.026,0.801,0.169
3.98,-0.371,1.333,-0.006
3.99,-0.127,0.437,-0.084
4.0,-0.523,0.941,-0.031
4.01,-0.039,0.959,0.152
4.02,-0.279,1.004,0.028
4.03,-0.273,0.784,-0.154
4.04,-0.206,0.75,-0.093
4.05,-0.156,1.252,0.157
4.06,-0.151,0.732,0.042
4.07,-0.397,0.933,-0.16
4.08,-0.22,1.02,-0.005
4.09,-0.06,1.084,0.129
4.1,-0.195,0.958,-0.073
4.11,-0.248,0.598,-0.198
4.12,-0.233,1.694,-0.045
4.13,-0.042,0.702,0.138
4.14,-0.245,1.198,0.044
4.15,-0.317,0.401,-0.19
4.16,-0.256,1.737,0.013
4.17,-0.055,0.802,0.122
4.18,-0.099,0.797,0.018
4.19,-0.426,0.894,-0.235
4.2,-0.155,1.372,0.034
4.21,-0.221,1.117,0.15
4.22,0.048,0.47,0.023
4.23,-0.561,0.984,-0.187
4.24,-0.018,1.52,0.078
4.25,-0.231,1.024,0.134
4.26,0.026,0.65,-0.006
4.27,-0.481,0.607,-0.181
4.28,-0.152,2.0,0.127
4.29,-0.103,0.61,0.127
4.3,-0.145,1.003,0.026
4.31,-0.434,0.341,-0.187
4.32,-0.143,2.0,0.125
4.33,-0.166,0.788,0.158
4.34,-0.039,0.593,0.005
4.35,-0.536,0.751,-0.151
4.36,-0.034,1.648,0.129
4.37,-0.099,1.17,0.083
4.38,0.052,0.319,-0.066
4.39,-0.465,0.993,-0.228
4.4,-0.033,1.537,0.143
4.41,-0.128,1.226,0.051
4.42,-0.006,0.585,-0.063
4.43,-0.431,0.544,-0.136
4.44,-0.147,1.689,0.148
4.45,-0.09,0.829,0.105
4.46,-0.165,0.984,-0.07
4.47,-0.41,0.17,-0.12
4.48,-0.242,1.729,0.19
4.49,-0.154,0.921,0.107
4.5,-0.212,0.993,-0.095
4.51,-0.334,0.354,-0.168
4.52,-0.132,1.243,0.197
4.53,-0.191,1.281,-0.022
4.54,-0.16,0.44,-0.101
4.55,-0.434,0.976,-0.123
4.56,-0.043,0.925,0.212
4.57,-0.258,1.27,0.014
4.58,-0.048,0.503,-0.159
4.59,-0.478,0.875,-0.084
4.6,-0.03,1.038,0.164
4.61,-0.295,1.048,-0.021
4.62,-0.207,0.799,-0.116
4.63,-0.343,0.544,-0.085
4.64,-0.117,1.294,0.18
4.65,-0.181,0.75,0.042
4.66,-0.38,0.95,-0.099
4.67,-0.268,0.809,-0.034
4.68,-0.216,1.052,0.201
4.69,-0.221,1.084,-0.025
4.7,-0.294,0.49,-0.162
4.71,-0.279,1.546,0.014
4.72,-0.108,0.725,0.161
4.73,-0.277,1.21,0.034
4.74,-0.24,0.403,-0.17
4.75,-0.345,1.698,0.074
4.76,-0.052,0.816,0.132
4.77,-0.159,0.743,0.002
4.78,-0.422,0.795,-0.225
4.79,-0.219,1.31,0.087
4.8,-0.198,1.12,0.133
4.81,-0.035,0.469,0.046
4.82,-0.441,1.048,-0.224
4.83,-0.111,1.47,0.06
4.84,-0.105,1.066,0.149
4.85,-0.121,0.645,0.028
4.86,-0.449,0.526,-0.145
4.87,-0.145,2.0,0.118
4.88,-0.006,0.735,0.153
4.89,-0.198,0.897,0.0
4.9,-0.324,0.31,-0.204
4.91,-0.147,2.0,0.122
4.92,-0.049,0.853,0.113
4.93,-0.146,0.546,-0.012
4.94,-0.345,0.806,-0.235
4.95,-0.188,1.527,0.107
4.96,-0.083,1.344,0.112
4.97,-0.071,0.33,-0.045
4.98,-0.434,0.937,-0.176
4.99,-0.118,1.378,0.199
5.0,-0.21,1.143,0.095
5.01,-0.123,0.762,-0.081
5.02,-0.405,0.406,-0.131
5.03,-0.177,1.703,0.183
5.04,-0.099,0.854,0.075
5.05,-0.21,0.992,-0.094
5.06,-0.361,0.229,-0.135
5.07,-0.243,1.511,0.176
5.08,-0.161,0.965,0.032
5.09,-0.163,0.788,-0.097
5.1,-0.41,0.703,-0.144
5.11,-0.065,1.014,0.228
5.12,-0.275,1.359,-0.005
5.13,-0.044,0.375,-0.112
5.14,-0.451,1.005,-0.109
5.15,0.008,0.906,0.162
5.16,-0.31,1.272,-0.012
5.17,-0.167,0.637,-0.139
5.18,-0.359,0.656,-0.048
5.19,-0.153,1.193,0.136
5.2,-0.097,0.756,-0.064
5.21,-0.362,1.003,-0.17
5.22,-0.208,0.678,-0.031
5.23,-0.223,1.19,0.165
5.24,-0.266,0.857,0.022
5.25,-0.302,0.76,-0.129
5.26,-0.283,1.429,-0.04
5.27,-0.015,0.795,0.195
5.28,-0.301,1.154,0.014
5.29,-0.341,0.377,-0.171
5.3,-0.213,1.905,0.048
5.31,-0.061,0.625,0.123
5.32,-0.197,1.043,0.018
5.33,-0.373,0.382,-0.264
5.34,-0.181,1.905,0.059
5.35,-0.062,0.877,0.129
5.36,-0.044,0.526,-0.013
5.37,-0.462,0.884,-0.183
5.38,-0.109,1.514,0.122
5.39,-0.102,1.214,0.181
5.4,0.021,0.318,-0.022
5.41,-0.492,0.95,-0.193
5.42,-0.054,1.696,0.076
5.43,-0.133,1.054,0.093
5.44,-0.013,0.69,-0.052
5.45,-0.444,0.427,-0.187
5.46,-0.122,1.854,0.105
5.47,-0.022,0.756,0.077
5.48,-0.127,0.913,-0.05
5.49,-0.355,0.265,-0.145
5.5,-0.254,1.687,0.156
5.51,-0.089,0.962,0.104
5.52,-0.129,0.722,-0.063
5.53,-0.416,0.733,-0.152
5.54,-0.079,1.242,0.144
5.55,-0.258,1.354,0.058
5.56,0.03,0.478,-0.077
5.57,-0.496,0.899,-0.146
5.58,-0.015,1.126,0.163
5.59,-0.286,1.145,0.062
5.6,-0.151,0.736,-0.12
5.61,-0.439,0.403,-0.065
5.62,-0.21,1.323,0.203
5.63,-0.165,0.775,0.056
5.64,-0.214,0.987,-0.126
5.65,-0.435,0.345,-0.098
5.66,-0.071,1.27,0.191
5.67,-0.326,0.947,-0.005
5.68,-0.205,0.605,-0.133
5.69,-0.356,1.124,-0.087
5.7,0.036,0.931,0.168
5.71,-0.362,1.283,0.05
5.72,-0.172,0.358,-0.154
5.73,-0.449,1.221,-0.006
5.74,-0.074,0.833,0.164
5.75,-0.259,1.148,0.016
5.76,-0.334,0.561,-0.194
5.77,-0.156,1.014,-0.07
5.78,-0.134,1.155,0.133
5.79,-0.031,0.712,-0.014
5.8,-0.405,1.016,-0.214
5.81,-0.094,1.132,-0.03
5.82,-0.158,1.11,0.111
5.83,-0.161,0.77,0.002
5.84,-0.412,0.743,-0.189
5.85,-0.249,1.721,0.057
5.86,-0.136,0.716,0.149
5.87,-0.243,1.011,0.043
5.88,-0.369,0.408,-0.185
5.89,-0.286,1.966,0.093
5.9,-0.069,0.696,0.148
5.91,-0.168,0.83,0.028
5.92,-0.491,0.623,-0.154
5.93,-0.126,1.712,0.113
5.94,-0.277,0.987,0.172
5.95,0.057,0.465,0.039
5.96,-0.529,1.039,-0.172
5.97,0.029,1.499,0.155
5.98,-0.175,1.204,0.13
5.99,0.062,0.427,0.002
6.0,-0.395,0.78,-0.201
6.01,-0.03,1.885,0.035
6.02,0.002,0.734,0.059
6.03,-0.082,0.953,-0.065
6.04,-0.335,0.275,-0.208
6.05,-0.151,2.0,0.112
6.06,-0.078,0.81,0.1
6.07,-0.189,0.743,-0.053
6.08,-0.38,0.536,-0.162
6.09,-0.175,1.535,0.162
6.1,-0.198,1.256,0.108
6.11,-0.1,0.653,-0.087
6.12,-0.433,0.745,-0.19
6.13,-0.02,1.061,0.206
6.14,-0.266,1.43,0.037
6.15,-0.045,0.421,-0.07
6.16,-0.473,0.847,-0.168
6.17,-0.047,1.065,0.198
6.18,-0.198,1.202,-0.032
6.19,-0.139,0.766,-0.132
6.2,-0.457,0.4,-0.124
6.21,-0.11,1.38,0.168
6.22,-0.214,0.827,0.024
6.23,-0.344,0.965,-0.095
6.24,-0.417,0.421,0.001
6.25,-0.176,1.187,0.163
6.26,-0.267,1.025,-0.001
6.27,-0.206,0.588,-0.148
6.28,-0.395,1.138,-0.042
6.29,0.006,0.794,0.141
6.3,-0.328,1.367,0.014
6.31,-0.171,0.328,-0.189
6.32,-0.331,1.463,-0.053
6.33,0.028,0.814,0.136
6.34,-0.231,1.056,0.043
6.35,-0.301,0.733,-0.186
6.36,-0.28,1.123,-0.016
6.37,-0.155,1.104,0.11
6.38,-0.108,0.697,-0.003
6.39,-0.411,1.039,-0.202
6.4,-0.158,1.252,0.031
6.41,-0.14,1.078,0.132
6.42,-0.083,0.67,0.034
6.43,-0.421,0.726,-0.19
6.44,-0.196,1.789,0.074
6.45,-0.139,0.757,0.178
6.46,-0.189,0.948,0.039
6.47,-0.371,0.289,-0.177
6.48,-0.256,2.0,0.134
6.49,-0.067,0.675,0.104
6.5,-0.138,0.728,-0.01
6.51,-0.372,0.664,-0.187
6.52,-0.128,1.702,0.142
6.53,-0.113,1.086,0.105
6.54,0.023,0.321,-0.03
6.55,-0.477,1.042,-0.163
6.56,-0.003,1.529,0.13
6.57,-0.193,1.193,0.099
6.58,0.05,0.511,-0.065
6.59,-0.467,0.674,-0.163
6.6,-0.003,1.865,0.102
6.61,-0.119,0.816,0.1
6.62,-0.127,0.809,-0.079
6.63,-0.337,0.284,-0.191
6.64,-0.224,1.941,0.101
6.65,-0.1,0.816,0.121
6.66,-0.139,0.775,-0.074
6.67,-0.367,0.532,-0.177
6.68,-0.105,1.472,0.165
6.69,-0.239,1.256,0.067
6.7,0.013,0.452,-0.11
6.71,-0.467,0.947,-0.193
6.72,-0.063,1.147,0.211
6.73,-0.308,1.314,0.107
6.74,-0.16,0.563,-0.066
6.75,-0.416,0.631,-0.137
6.76,-0.146,1.386,0.153
6.77,-0.079,0.892,0.053
6.78,-0.283,1.035,-0.132
6.79,-0.302,0.163,-0.091
6.8,-0.222,1.446,0.222
6.81,-0.146,0.937,0.011
6.82,-0.211,0.839,-0.127
6.83,-0.414,0.588,-0.13
6.84,0.01,1.106,0.183
6.85,-0.286,1.229,-0.038
6.86,-0.162,0.385,-0.155
6.87,-0.478,1.124,-0.083
6.88,-0.015,0.834,0.166
6.89,-0.394,1.324,0.036
6.9,-0.194,0.376,-0.152
6.91,-0.453,1.586,0.017
6.92,-0.002,0.809,0.16
6.93,-0.27,1.036,0.061
6.94,-0.303,0.717,-0.156
6.95,-0.342,1.348,0.089
6.96,-0.043,1.186,0.169
6.97,-0.109,0.511,0.023
6.98,-0.484,1.017,-0.18
6.99,-0.174,1.358,0.092
7.0,-0.225,1.024,0.127
7.01,-0.076,0.645,0.031
7.02,-0.383,0.727,-0.172
7.03,-0.209,1.9,0.076
7.04,-0.083,0.656,0.148
7.05,-0.157,0.916,0.025
7.06,-0.382,0.388,-0.175
7.07,-0.13,2.0,0.093
7.08,-0.15,0.665,0.143
7.09,-0.112,0.757,0.002
7.1,-0.419,0.618,-0.226
7.11,-0.043,1.755,0.155
7.12,-0.139,1.245,0.117
7.13,0.094,0.27,-0.038
7.14,-0.505,1.016,-0.223
7.15,-0.022,1.477,0.13
7.16,-0.184,1.205,0.083
7.17,0.014,0.613,-0.057
7.18,-0.444,0.603,-0.15
7.19,-0.095,1.681,0.16
7.2,-0.15,0.915,0.106
7.21,-0.101,0.998,-0.096
7.22,-0.423,0.186,-0.188
7.23,-0.154,1.645,0.159
7.24,-0.203,0.896,0.078
7.25,-0.127,0.904,-0.075
7.26,-0.461,0.556,-0.136
7.27,-0.052,1.129,0.205
7.28,-0.352,1.306,0.017
7.29,-0.08,0.404,-0.09
7.3,-0.458,1.01,-0.122
7.31,-0.014,0.893,0.185
7.32,-0.318,1.323,-0.03
7.33,-0.183,0.51,-0.111
7.34,-0.36,0.764,-0.091
7.35,-0.045,1.141,0.125
7.36,-0.152,0.864,0.05
7.37,-0.363,0.838,-0.144
7.38,-0.232,0.681,-0.056
7.39,-0.115,1.23,0.157
7.4,-0.218,0.796,0.011
7.41,-0.375,0.816,-0.138
7.42,-0.215,1.202,-0.05
7.43,-0.184,0.869,0.158
7.44,-0.215,1.141,0.007
7.45,-0.308,0.425,-0.177
7.46,-0.26,1.753,-0.024
7.47,-0.049,0.649,0.116
7.48,-0.205,1.083,0.07
7.49,-0.349,0.487,-0.178
7.5,-0.194,1.647,0.033
7.51,-0.116,0.987,0.123
7.52,-0.025,0.558,0.029
7.53,-0.491,0.974,-0.217
7.54,-0.121,1.395,0.035
7.55,-0.208,1.091,0.132
7.56,-0.042,0.547,0.011
7.57,-0.514,0.952,-0.142
7.58,-0.126,1.715,0.071
7.59,-0.084,0.868,0.163
7.6,-0.086,0.787,-0.013
7.61,-0.365,0.407,-0.117
7.62,-0.209,2.0,0.111
7.63,0.003,0.699,0.075
7.64,-0.082,0.895,-0.034
7.65,-0.389,0.404,-0.188
7.66,-0.042,1.954,0.112
7.67,-0.1,0.984,0.037
7.68,-0.038,0.427,-0.069
7.69,-0.416,0.887,-0.193
7.7,-0.069,1.437,0.167
7.71,-0.197,1.347,0.067
7.72,0.026,0.445,-0.109
7.73,-0.517,0.975,-0.143
7.74,-0.019,1.065,0.167
7.75,-0.3,1.266,0.061
7.76,-0.071,0.667,-0.121
7.77,-0.44,0.585,-0.11
7.78,-0.098,1.221,0.167
7.79,-0.105,0.895,-0.067
7.8,-0.246,0.986,-0.103
7.81,-0.392,0.281,-0.099
7.82,-0.148,1.287,0.188
7.83,-0.273,0.892,0.05
7.84,-0.274,0.771,-0.12
7.85,-0.331,0.833,-0.085
7.86,-0.112,0.927,0.196
7.87,-0.293,1.281,0.013
7.88,-0.226,0.283,-0.079
7.89,-0.35,1.512,0.005
7.9,-0.061,0.77,0.16
7.91,-0.265,1.156,-0.043
7.92,-0.321,0.515,-0.19
7.93,-0.276,1.285,0.001
7.94,-0.096,1.004,0.158
7.95,-0.138,0.747,0.024
7.96,-0.445,1.009,-0.232
7.97,-0.168,1.037,0.069
7.98,-0.193,1.141,0.12
7.99,-0.02,0.64,0.024
8.0,-0.477,0.811,-0.18
8.01,-0.096,1.654,0.044
8.02,-0.114,0.884,0.133
8.03,-0.102,0.836,0.025
8.04,-0.47,0.35,-0.154
8.05,-0.149,2.0,0.131
8.06,-0.118,0.641,0.195
8.07,-0.095,0.874,0.033
8.08,-0.508,0.42,-0.201
8.09,-0.061,1.969,0.143
8.1,-0.132,1.072,0.07
8.11,0.027,0.307,-0.085
8.12,-0.437,0.932,-0.239
8.13,-0.024,1.484,0.185
8.14,-0.148,1.304,0.002
8.15,0.087,0.444,-0.048
8.16,-0.442,0.829,-0.216
8.17,0.025,1.7,0.145
8.18,-0.232,1.049,0.107
8.19,-0.104,0.812,-0.096
8.2,-0.402,0.29,-0.153
8.21,-0.167,1.765,0.203
8.22,-0.161,0.852,0.102
8.23,-0.146,0.952,-0.12
8.24,-0.319,0.301,-0.166
8.25,-0.077,1.39,0.148
8.26,-0.253,1.161,0.012
8.27,-0.038,0.623,-0.169
8.28,-0.49,0.835,-0.131
8.29,0.004,0.948,0.197
8.3,-0.299,1.486,0.014
8.31,-0.131,0.413,-0.097
8.32,-0.367,0.912,-0.09
8.33,-0.124,1.005,0.198
8.34,-0.262,1.05,0.016
8.35,-0.304,0.775,-0.101
8.36,-0.28,0.634,-0.018
8.37,-0.183,1.267,0.169
8.38,-0.132,0.75,0.033
8.39,-0.418,0.911,-0.126
8.4,-0.242,0.899,-0.017
8.41,-0.1,1.06,0.156
8.42,-0.2,1.004,-0.018
8.43,-0.29,0.564,-0.176
8.44,-0.22,1.644,0.007
8.45,-0.021,0.705,0.171
8.46,-0.262,1.135,0.008
8.47,-0.356,0.373,-0.201
8.48,-0.228,1.722,0.029
8.49,-0.091,0.768,0.084
8.5,-0.115,0.806,0.012
8.51,-0.5,0.796,-0.233
8.52,-0.142,1.826,0.107
8.53,-0.171,0.997,0.091
8.54,0.045,0.405,-0.058
8.55,-0.494,1.033,-0.189
8.56,-0.104,1.523,0.157
8.57,-0.124,1.202,0.162
8.58,0.008,0.401,-0.036
8.59,-0.452,0.801,-0.214
8.6,-0.104,1.689,0.161
8.61,-0.073,0.93,0.09
8.62,-0.104,0.864,-0.055
8.63,-0.299,0.309,-0.194
8.64,-0.179,1.951,0.136
8.65,-0.057,0.844,0.057
8.66,-0.116,0.909,-0.064
8.67,-0.391,0.371,-0.22
8.68,-0.119,1.543,0.184
8.69,-0.213,1.163,0.056
8.7,-0.048,0.56,-0.075
8.71,-0.45,0.883,-0.163
8.72,-0.044,1.155,0.221
8.73,-0.363,1.382,0.099
8.74,-0.028,0.512,-0.049
8.75,-0.444,0.809,-0.147
8.76,-0.103,1.234,0.167
8.77,-0.15,1.043,0.012
8.78,-0.172,0.94,-0.13
8.79,-0.325,0.309,-0.119
8.8,-0.133,1.362,0.181
8.81,-0.251,0.781,0.01
8.82,-0.303,0.891,-0.087
8.83,-0.436,0.537,-0.039
8.84,-0.031,1.153,0.158
8.85,-0.283,1.092,-0.044
8.86,-0.149,0.46,-0.197
8.87,-0.385,1.229,-0.039
8.88,0.014,0.785,0.171
8.89,-0.39,1.327,0.052
8.9,-0.178,0.314,-0.172
8.91,-0.278,1.428,-0.039
8.92,0.052,0.938,0.105
8.93,-0.178,0.862,-0.014
8.94,-0.349,0.81,-0.24
8.95,-0.275,1.051,0.05
8.96,-0.114,1.185,0.141
8.97,-0.209,0.625,0.06
8.98,-0.394,0.998,-0.225
8.99,-0.222,1.32,0.029
9.0,-0.087,1.028,0.174
9.01,-0.111,0.775,-0.024
9.02,-0.423,0.605,-0.196
9.03,-0.233,1.953,0.033
9.04,-0.056,0.644,0.14
9.05,-0.092,0.991,0.013
9.06,-0.454,0.376,-0.217
9.07,-0.181,2.0,0.073
9.08,-0.159,0.749,0.124
9.09,-0.068,0.648,0.033
9.1,-0.474,0.835,-0.18
9.11,-0.11,1.602,0.134
9.12,-0.15,1.198,0.158
9.13,0.059,0.283,-0.021
9.14,-0.564,1.001,-0.131
9.15,-0.05,1.645,0.093
9.16,-0.167,1.104,0.149
9.17,-0.016,0.635,-0.06
9.18,-0.41,0.535,-0.169
9.19,-0.176,1.898,0.135
9.2,-0.073,0.795,0.134
9.21,-0.116,0.901,-0.05
9.22,-0.41,0.225,-0.165
9.23,-0.099,1.796,0.07
9.24,-0.144,0.933,0.084
9.25,-0.019,0.778,-0.111
9.26,-0.471,0.611,-0.205
9.27,0.034,1.327,0.127
9.28,-0.301,1.38,0.061
9.29,0.097,0.471,-0.083
9.3,-0.617,0.937,-0.138
9.31,0.017,1.11,0.195
9.32,-0.276,1.254,0.023
9.33,-0.059,0.429,-0.077
9.34,-0.543,0.842,-0.112
9.35,-0.082,1.021,0.184
9.36,-0.255,0.985,0.019
9.37,-0.267,0.814,-0.107
9.38,-0.359,0.446,-0.03
9.39,-0.162,1.308,0.203
9.4,-0.192,0.755,0.046
9.41,-0.337,0.881,-0.118
9.42,-0.278,0.848,-0.035
9.43,-0.073,1.069,0.157
9.44,-0.249,1.074,0.032
9.45,-0.295,0.5,-0.158
9.46,-0.263,1.48,-0.063
9.47,-0.042,0.688,0.16
9.48,-0.25,1.273,0.038
9.49,-0.318,0.376,-0.171
9.5,-0.189,1.567,-0.045
9.51,-0.094,0.861,0.13
9.52,-0.135,0.807,0.039
9.53,-0.399,0.825,-0.181
9.54,-0.254,1.228,0.063
9.55,-0.182,1.16,0.16
9.56,-0.074,0.572,0.043
9.57,-0.493,1.038,-0.15
9.58,-0.152,1.465,0.064
9.59,-0.115,1.039,0.177
9.6,-0.084,0.732,0.005
9.61,-0.377,0.584,-0.186
9.62,-0.212,1.985,0.059
9.63,-0.078,0.67,0.187
9.64,-0.155,0.906,0.009
9.65,-0.368,0.372,-0.195
9.66,-0.189,2.0,0.103
9.67,-0.022,0.815,0.137
9.68,-0.091,0.576,-0.058
9.69,-0.352,0.822,-0.222
9.7,-0.035,1.682,0.091
9.71,-0.178,1.194,0.128
9.72,0.071,0.295,-0.064
9.73,-0.488,0.98,-0.212
9.74,0.025,1.624,0.135
9.75,-0.138,1.117,0.083
9.76,-0.011,0.604,-0.034
9.77,-0.445,0.484,-0.148
9.78,-0.146,1.89,0.162
9.79,-0.049,0.777,0.094
9.8,-0.117,0.924,-0.053
9.81,-0.423,0.224,-0.158
9.82,-0.194,1.812,0.178
9.83,-0.12,0.934,0.093
9.84,-0.147,0.713,-0.07
9.85,-0.375,0.656,-0.162
9.86,-0.113,1.344,0.176
9.87,-0.253,1.337,0.1
9.88,-0.012,0.446,-0.076
9.89,-0.448,0.914,-0.173
9.9,-0.049,1.142,0.144
9.91,-0.26,1.263,0.047
9.92,-0.103,0.715,-0.089
9.93,-0.476,0.45,-0.094
9.94,-0.163,1.399,0.159
9.95,-0.088,0.865,0.014
9.96,-0.229,0.994,-0.105
9.97,-0.369,0.233,-0.126
9.98,-0.2,1.329,0.182
9.99,-0.193,0.944,-0.047
10.0,-0.141,0.692,-0.137
10.01,-0.388,0.812,-0.109
10.02,-0.073,0.991,0.185
10.03,-0.299,1.276,0.016
10.04,-0.17,0.373,-0.167
10.05,-0.337,1.211,-0.039
10.06,-0.104,0.836,0.189
10.07,-0.297,1.186,0.089
10.08,-0.319,0.581,-0.143
10.09,-0.241,0.936,-0.015
10.1,-0.248,1.087,0.144
10.11,-0.134,0.734,-0.006
10.12,-0.436,0.936,-0.179
10.13,-0.123,1.189,-0.008
10.14,-0.208,1.217,0.176
10.15,-0.074,0.543,0.053
10.16,-0.493,1.066,-0.178
10.17,-0.159,1.375,0.043
10.18,-0.194,0.974,0.156
10.19,-0.09,0.809,0.002
10.2,-0.44,0.536,-0.198
10.21,-0.209,1.964,0.088
10.22,-0.089,0.694,0.18
10.23,-0.129,0.916,0.029
10.24,-0.414,0.429,-0.17
10.25,-0.229,2.0,0.143
10.26,-0.179,0.759,0.18
10.27,-0.03,0.662,-0.004
10.28,-0.497,0.836,-0.197
10.29,-0.07,1.585,0.111
10.3,-0.236,1.217,0.209
10.31,0.028,0.278,0.019
10.32,-0.531,1.032,-0.151
10.33,-0.063,1.622,0.1
10.34,-0.141,1.113,0.123
10.35,0.014,0.641,-0.069
10.36,-0.468,0.534,-0.162
10.37,-0.092,1.991,0.126
10.38,-0.047,0.742,0.106
10.39,-0.163,0.93,-0.057
10.4,-0.354,0.274,-0.178
10.41,-0.123,1.956,0.13
10.42,-0.11,0.988,0.086
10.43,-0.092,0.6,-0.052
10.44,-0.475,0.678,-0.196
10.45,-0.114,1.427,0.207
10.46,-0.199,1.294,0.065
10.47,0.014,0.478,-0.066
10.48,-0.541,0.918,-0.172
10.49,-0.061,1.253,0.218
10.5,-0.243,1.315,0.067
10.51,-0.063,0.701,-0.046
10.52,-0.449,0.475,-0.111
10.53,-0.157,1.499,0.166
10.54,-0.146,0.846,0.054
10.55,-0.202,1.097,-0.109
10.56,-0.354,0.197,-0.144
10.57,-0.163,1.399,0.154
10.58,-0.084,0.901,0.058
10.59,-0.272,0.75,-0.109
10.6,-0.423,0.723,-0.158
10.61,-0.002,1.017,0.162
10.62,-0.365,1.325,0.016
10.63,-0.291,1.385,-0.009
10.64,-0.069,0.425,-0.086
10.65,-0.437,0.994,-0.115
10.66,-0.041,1.016,0.132
10.67,-0.216,1.019,0.022
10.68,-0.292,0.825,-0.148
10.69,-0.407,0.497,0.014
10.7,-0.203,1.27,0.156
10.71,-0.187,0.708,0.03
10.72,-0.334,0.917,-0.142
10.73,-0.232,0.796,-0.04
10.74,-0.126,1.148,0.14
10.75,-0.243,0.975,0.021
10.76,-0.311,0.54,-0.19
10.77,-0.193,1.485,-0.078
10.78,-0.027,0.777,0.126
10.79,-0.265,1.189,-0.005
10.8,-0.324,0.394,-0.211
10.81,-0.208,1.665,-0.023
10.82,-0.067,0.804,0.114
10.83,-0.151,0.956,-0.013
10.84,-0.427,0.48,-0.21
10.85,-0.248,1.79,0.094
10.86,-0.126,0.913,0.122
10.87,0.004,0.519,-0.0
10.88,-0.504,1.006,-0.186
10.89,-0.122,1.501,0.131
10.9,-0.203,1.131,0.148
10.91,-0.019,0.457,0.088
10.92,-0.499,0.952,-0.14
10.93,-0.077,1.761,0.138
10.94,-0.084,0.905,0.135
10.95,-0.094,0.769,-0.039
10.96,-0.404,0.35,-0.174
10.97,-0.155,2.0,0.119
10.98,-0.07,0.724,0.114
10.99,-0.16,0.884,-0.042
11.0,-0.369,0.34,-0.213
11.01,-0.088,1.884,0.145
11.02,-0.085,1.117,-0.009
11.03,-0.038,0.509,-0.068
11.04,-0.396,0.881,-0.188
11.05,-0.02,1.454,0.212
11.06,-0.237,1.435,0.104
11.07,-0.002,0.449,-0.076
11.08,-0.39,0.844,-0.208
11.09,-0.054,1.42,0.126
11.1,-0.209,1.097,0.066
11.11,-0.151,0.893,-0.077
11.12,-0.324,0.288,-0.078
11.13,-0.209,1.536,0.178
11.14,-0.159,0.85,0.067
11.15,-0.279,1.056,-0.135
11.16,-0.34,0.35,-0.073
11.17,-0.14,1.238,0.151
11.18,-0.215,1.138,0.016
11.19,-0.116,0.672,-0.157
11.2,-0.424,0.977,-0.052
11.21,0.005,0.833,0.211
11.22,-0.321,1.357,0.005
11.23,-0.214,0.337,-0.172
11.24,-0.349,1.12,-0.071
11.25,-0.12,0.869,0.106
11.26,-0.286,1.039,0.024
11.27,-0.278,0.651,-0.175
11.28,-0.259,0.952,-0.034
11.29,-0.104,1.208,0.152
11.3,-0.092,0.676,-0.069
11.31,-0.428,0.973,-0.195
11.32,-0.156,1.177,0.017
11.33,-0.127,1.062,0.131
11.34,-0.122,0.84,-0.056
11.35,-0.416,0.622,-0.195
11.36,-0.308,1.667,0.089
11.37,-0.056,0.642,0.104
11.38,-0.166,1.145,-0.016
11.39,-0.415,0.352,-0.232
11.4,-0.228,1.943,0.017
11.41,-0.057,0.762,0.104
11.42,-0.11,0.718,0.001
11.43,-0.504,0.716,-0.13
11.44,-0.177,1.701,0.154
11.45,-0.29,1.035,0.156
11.46,0.112,0.437,0.023
11.47,-0.55,0.997,-0.212
11.48,0.012,1.558,0.14
11.49,-0.165,1.197,0.084
11.5,0.003,0.459,-0.08
11.51,-0.476,0.581,-0.18
11.52,-0.133,1.861,0.111
11.53,-0.156,0.762,0.024
11.54,-0.078,1.053,-0.081
11.55,-0.345,0.193,-0.173
11.56,-0.166,1.912,0.207
11.57,-0.208,0.983,0.106
11.58,-0.145,0.747,-0.06
11.59,-0.393,0.584,-0.201
11.6,-0.043,1.26,0.154
11.61,-0.289,1.309,0.049
11.62,0.009,0.504,-0.09
11.63,-0.485,0.911,-0.099
11.64,-0.042,0.832,0.213
11.65,-0.319,1.396,-0.035
11.66,-0.192,0.286,-0.128
11.67,-0.421,1.017,-0.022
11.68,-0.073,0.937,0.158
11.69,-0.235,1.045,0.022
11.7,-0.24,0.72,-0.173
11.71,-0.273,0.844,-0.033
11.72,-0.093,1.255,0.173
11.73,-0.192,0.645,0.039
11.74,-0.345,1.029,-0.156
11.75,-0.302,1.055,-0.004
11.76,-0.192,1.033,0.131
11.77,-0.257,0.926,-0.008
11.78,-0.304,0.572,-0.163
11.79,-0.201,1.691,0.038
11.8,-0.012,0.669,0.094
11.81,-0.181,1.103,-0.029
11.82,-0.266,0.361,-0.241
11.83,-0.271,1.911,0.029
11.84,-0.037,0.759,0.144
11.85,-0.155,0.757,-0.022
11.86,-0.483,0.707,-0.212
11.87,-0.188,1.588,0.088
11.88,-0.177,1.06,0.159
11.89,-0.025,0.415,-0.007
11.9,-0.557,1.105,-0.143
11.91,-0.145,1.575,0.132
11.92,-0.133,1.034,0.121
11.93,-0.042,0.602,-0.013
11.94,-0.345,0.617,-0.148
11.95,-0.194,1.906,0.122
11.96,0.039,0.761,0.08
11.97,-0.167,0.958,-0.068
11.98,-0.298,0.217,-0.198
11.99,-0.171,1.951,0.157
12.0,-0.081,0.882,0.117
12.01,-0.144,0.715,-0.065
12.02,-0.416,0.632,-0.192
12.03,-0.083,1.373,0.196
12.04,-0.298,1.345,0.097
12.05,0.048,0.492,-0.077
12.06,-0.557,0.948,-0.102
12.07,-0.01,1.036,0.205
12.08,-0.33,1.3,0.069
12.09,-0.079,0.71,-0.112
12.1,-0.492,0.539,-0.052
12.11,-0.123,1.279,0.202
12.12,-0.206,0.894,-0.008
12.13,-0.206,1.008,-0.114
12.14,-0.354,0.312,-0.059
12.15,-0.132,1.295,0.164
12.16,-0.22,0.904,-0.042
12.17,-0.282,0.752,-0.132
12.18,-0.323,0.993,-0.057
12.19,-0.082,0.916,0.172
12.2,-0.315,1.25,-0.014
12.21,-0.241,0.336,-0.198
12.22,-0.244,1.547,0.037
12.23,-0.095,0.763,0.128
12.24,-0.321,1.123,0.004
12.25,-0.317,0.503,-0.164
12.26,-0.26,1.48,0.088
12.27,-0.077,1.017,0.136
12.28,-0.029,0.577,-0.054
12.29,-0.538,1.012,-0.2
12.3,-0.038,1.317,0.065
12.31,-0.213,1.102,0.125
12.32,-0.016,0.579,0.041
12.33,-0.601,0.876,-0.164
12.34,-0.111,1.788,0.075
12.35,-0.052,0.852,0.131
12.36,-0.103,0.808,-0.048
12.37,-0.431,0.329,-0.194
12.38,-0.185,2.0,0.138
12.39,-0.06,0.696,0.139
12.4,-0.133,0.857,-0.049
12.41,-0.364,0.369,-0.194
12.42,-0.145,1.828,0.123
12.43,-0.147,1.087,0.043
12.44,-0.089,0.791,-0.038
12.45,-0.455,0.608,-0.152
12.46,-0.025,1.151,0.169
12.47,-0.285,1.416,0.026
12.48,0.016,0.508,-0.085
12.49,-0.44,0.927,-0.125
12.5,-0.06,0.916,0.171
12.51,-0.352,1.261,0.043
12.52,-0.118,0.667,-0.098
12.53,-0.49,0.625,-0.01
12.54,-0.108,1.192,0.179
12.55,-0.302,0.783,0.007
12.56,-0.283,0.981,-0.128
12.57,-0.278,0.681,-0.009
12.58,-0.187,1.2,0.165
12.59,-0.221,0.843,-0.028
12.6,-0.414,0.714,-0.125
12.61,-0.193,1.294,-0.013
12.62,-0.125,0.803,0.12
12.63,-0.218,1.19,-0.057
12.64,-0.344,0.315,-0.222
12.65,-0.177,1.782,0.051
12.66,0.007,0.765,0.119
12.67,-0.254,0.94,0.01
12.68,-0.345,0.576,-0.237
12.69,-0.264,1.703,0.046
12.7,-0.125,1.01,0.178
12.71,-0.046,0.476,0.02
12.72,-0.481,1.02,-0.185
12.73,-0.103,1.588,0.123
12.74,-0.113,1.228,0.152
12.75,0.002,0.395,0.014
12.76,-0.438,0.801,-0.151
12.77,-0.102,1.827,0.15
12.78,-0.004,0.921,0.101
12.79,-0.092,0.764,-0.116
12.8,-0.334,0.273,-0.2
12.81,-0.218,1.947,0.093
12.82,-0.146,0.788,0.17
12.83,-0.116,0.983,-0.039
12.84,-0.475,0.297,-0.167
12.85,-0.09,1.527,0.163
12.86,-0.228,1.26,0.112
12.87,-0.008,0.52,-0.073
12.88,-0.49,0.92,-0.116
12.89,-0.05,1.04,0.213
12.9,-0.334,1.34,0.066
12.91,-0.09,0.554,-0.078
12.92,-0.425,0.793,-0.118
12.93,-0.037,1.132,0.136
12.94,-0.257,1.011,-0.025
12.95,-0.22,0.895,-0.116
12.96,-0.341,0.363,-0.062
12.97,-0.155,1.376,0.138
12.98,-0.245,0.662,0.009
12.99,-0.278,0.966,-0.145
13.0,-0.291,0.76,-0.021
13.01,-0.11,1.12,0.109
13.02,-0.298,1.055,-0.063
13.03,-0.173,0.472,-0.167
13.04,-0.31,1.549,-0.014
13.05,0.02,0.734,0.174
13.06,-0.305,1.224,0.029
13.07,-0.353,0.396,-0.215
13.08,-0.293,1.531,0.021
13.09,-0.07,0.825,0.121
13.1,-0.174,0.838,0.028
13.11,-0.39,0.895,-0.262
13.12,-0.136,1.26,0.03
13.13,-0.17,1.174,0.172
13.14,0.011,0.467,0.02
13.15,-0.611,0.967,-0.216
13.16,-0.076,1.505,0.068
13.17,-0.202,0.974,0.14
13.18,-0.085,0.724,0.013
13.19,-0.485,0.564,-0.162
13.2,-0.126,2.0,0.121
13.21,-0.101,0.665,0.173
13.22,-0.173,0.875,0.016
13.23,-0.416,0.338,-0.183
13.24,-0.115,2.0,0.073
13.25,-0.005,0.778,0.076
13.26,-0.088,0.861,-0.095
13.27,-0.428,0.394,-0.208
13.28,-0.079,1.736,0.153
13.29,-0.206,1.208,0.039
13.3,-0.018,0.438,-0.068
13.31,-0.413,0.965,-0.172
13.32,-0.07,1.162,0.204
13.33,-0.284,1.359,0.107
13.34,-0.077,0.543,-0.047
13.35,-0.358,0.709,-0.105
13.36,-0.176,1.299,0.15
13.37,-0.137,0.933,0.04
13.38,-0.195,1.004,-0.132
13.39,-0.423,0.25,-0.089
13.4,-0.15,1.392,0.215
13.41,-0.242,0.833,0.009
13.42,-0.229,0.961,-0.122
13.43,-0.44,0.514,-0.084
13.44,-0.042,1.125,0.186
13.45,-0.269,1.124,-0.06
13.46,-0.246,0.407,-0.149
13.47,-0.345,1.285,-0.067
13.48,0.004,0.807,0.164
13.49,-0.348,1.313,0.01
13.5,-0.246,0.378,-0.184
13.51,-0.327,1.364,0.001
13.52,-0.037,0.91,0.15
13.53,-0.27,0.894,0.034
13.54,-0.352,0.876,-0.199
13.55,-0.187,1.125,0.001
13.56,-0.096,1.206,0.126
13.57,-0.051,0.553,-0.019
13.58,-0.503,1.021,-0.19
13.59,-0.123,1.442,0.034
13.6,-0.167,0.977,0.17
13.61,-0.087,0.764,0.029
13.62,-0.473,0.554,-0.194
13.63,-0.19,2.0,0.117
13.64,-0.072,0.628,0.113
13.65,-0.219,0.915,0.02
13.66,-0.333,0.401,-0.165
13.67,-0.15,2.0,0.078
13.68,-0.058,0.803,0.181
13.69,-0.083,0.596,-0.063
13.7,-0.44,0.746,-0.173
13.71,-0.028,1.703,0.102
13.72,-0.16,1.263,0.093
13.73,0.022,0.379,-0.029
13.74,-0.505,1.019,-0.169
13.75,-0.089,1.477,0.211
13.76,-0.168,1.226,0.069
13.77,0.006,0.644,-0.069
13.78,-0.45,0.428,-0.129
13.79,-0.181,1.599,0.202
13.8,-0.217,0.781,0.127
13.81,-0.135,1.128,-0.084
13.82,-0.382,0.142,-0.14
13.83,-0.166,1.563,0.161
13.84,-0.233,1.007,0.059
13.85,-0.114,0.777,-0.094
13.86,-0.434,0.701,-0.119
13.87,-0.057,1.018,0.186
13.88,-0.268,1.352,-0.073
13.89,-0.027,0.478,-0.148
13.9,-0.459,1.06,-0.048
13.91,-0.016,0.89,0.159
13.92,-0.272,1.191,-0.027
13.93,-0.323,0.61,-0.12
13.94,-0.282,0.716,-0.027
13.95,-0.165,1.138,0.115
13.96,-0.248,0.702,-0.048
13.97,-0.262,0.993,-0.167
13.98,-0.204,0.947,-0.03
13.99,-0.076,1.186,0.174
14.0,-0.226,0.704,-0.013
14.01,-0.404,0.877,-0.154
14.02,-0.224,1.448,0.008
14.03,-0.109,0.771,0.162
14.04,-0.175,0.798,-0.019
14.05,-0.414,0.463,-0.222
14.06,-0.077,2.0,0.084
14.07,-0.118,0.641,0.159
14.08,-0.135,0.885,0.021
14.09,-0.445,0.349,-0.173
14.1,-0.116,2.0,0.141
14.11,-0.029,0.87,0.118
14.12,-0.082,0.613,-0.024
14.13,-0.425,0.768,-0.216
14.14,-0.105,1.615,0.201
14.15,-0.14,1.331,0.091
14.16,-0.017,0.328,-0.056
14.17,-0.427,0.985,-0.147
14.18,-0.079,1.506,0.146
14.19,-0.13,1.202,0.077
14.2,-0.046,0.716,-0.054
14.21,-0.399,0.406,-0.113
14.22,-0.215,1.679,0.185
14.23,-0.125,0.815,0.077
14.24,-0.181,1.128,-0.086
14.25,-0.351,0.194,-0.084
14.26,-0.293,1.375,0.232
14.27,-0.081,1.011,0.015
14.28,-0.175,0.775,-0.103
14.29,-0.342,0.792,-0.091
14.3,-0.064,0.959,0.155
14.31,-0.335,1.263,-0.052
14.32,-0.092,0.352,-0.098
14.33,-0.388,1.205,-0.021
14.34,-0.063,0.825,0.169
14.35,-0.37,1.125,-0.006
14.36,-0.238,0.654,-0.184
14.37,-0.338,1.024,0.025
14.38,-0.124,1.099,0.174
14.39,-0.244,0.669,0.007
14.4,-0.394,1.019,-0.207
14.41,-0.128,1.118,0.048
14.42,-0.099,1.16,0.158
14.43,-0.166,0.645,-0.02
14.44,-0.484,0.775,-0.216
14.45,-0.091,1.699,0.043
14.46,-0.143,0.801,0.17
14.47,-0.126,0.935,0.017
14.48,-0.487,0.339,-0.216
14.49,-0.179,2.0,0.114
14.5,-0.139,0.667,0.124
14.51,-0.073,0.828,-0.023
14.52,-0.468,0.51,-0.216
14.53,-0.065,1.845,0.147
14.54,-0.103,1.083,0.104
14.55,0.07,0.363,-0.076
14.56,-0.564,0.95,-0.176
14.57,-0.041,1.424,0.218
14.58,-0.249,1.326,0.124
14.59,0.033,0.492,-0.046
14.6,-0.432,0.722,-0.201
14.61,-0.112,1.523,0.135
14.62,-0.116,0.971,0.089
14.63,-0.142,0.991,-0.067
14.64,-0.372,0.243,-0.122
14.65,-0.254,1.524,0.178
14.66,-0.165,0.816,0.038
14.67,-0.171,1.011,-0.124
14.68,-0.332,0.45,-0.149
14.69,-0.108,1.14,0.172
14.7,-0.273,1.167,-0.069
14.71,-0.02,0.527,-0.161
14.72,-0.406,1.159,-0.083
14.73,0.017,0.758,0.158
14.74,-0.353,1.284,0.008
14.75,-0.259,0.37,-0.169
14.76,-0.277,1.172,-0.023
14.77,-0.093,0.943,0.111
14.78,-0.236,0.895,-0.016
14.79,-0.367,0.808,-0.215
14.8,-0.106,1.005,0.004
14.81,-0.143,1.257,0.122
14.82,-0.14,0.633,0.004
14.83,-0.469,0.929,-0.174
14.84,-0.137,1.327,0.037
14.85,-0.206,1.084,0.157
14.86,-0.065,0.576,-0.0
14.87,-0.509,0.825,-0.122
14.88,-0.131,1.84,0.124
14.89,-0.091,0.839,0.136
14.9,-0.143,0.817,-0.05
14.91,-0.373,0.297,-0.142
14.92,-0.2,2.0,0.091
14.93,-0.013,0.717,0.104
14.94,-0.156,0.823,-0.061
14.95,-0.339,0.433,-0.243
14.96,-0.102,1.741,0.147
14.97,-0.087,1.285,0.039
14.98,-0.051,0.409,-0.069
14.99,-0.428,0.911,-0.171
15.0,-0.018,1.294,0.166
15.01,-0.239,1.364,0.043
15.02,-0.025,0.597,-0.071
15.03,-0.442,0.681,-0.134
15.04,-0.117,1.302,0.156
15.05,-0.132,1.032,0.052
15.06,-0.173,1.036,-0.092
15.07,-0.382,0.264,-0.085
15.08,-0.153,1.372,0.22
15.09,-0.247,0.838,0.032
15.1,-0.201,0.988,-0.08
15.11,-0.352,0.6,-0.084
15.12,-0.088,1.065,0.163
15.13,-0.313,1.146,-0.051
15.14,-0.156,0.431,-0.141
15.15,-0.307,1.386,-0.037
15.16,0.021,0.742,0.131
15.17,-0.387,1.297,0.043
15.18,-0.282,0.393,-0.146
15.19,-0.31,1.391,0.022
15.2,-0.104,0.952,0.124
15.21,-0.189,0.834,0.02
15.22,-0.468,0.889,-0.164
15.23,-0.118,1.102,0.06
15.24,-0.224,1.183,0.14
15.25,-0.013,0.578,0.003
15.26,-0.543,0.951,-0.152
15.27,-0.087,1.512,0.032
15.28,-0.126,1.005,0.15
15.29,-0.075,0.726,-0.013
15.3,-0.508,0.496,-0.142
15.31,-0.086,2.0,0.052
15.32,0.004,0.67,0.089
15.33,-0.143,0.93,0.002
15.34,-0.434,0.279,-0.177
15.35,-0.133,2.0,0.11
15.36,-0.065,0.861,0.076
15.37,-0.011,0.602,-0.047
15.38,-0.424,0.732,-0.216
15.39,-0.078,1.538,0.156
15.4,-0.136,1.363,-0.004
15.41,0.012,0.41,-0.035
15.42,-0.479,0.909,-0.148
15.43,-0.069,1.389,0.201
15.44,-0.23,1.23,0.036
15.45,-0.062,0.777,-0.064
15.46,-0.346,0.413,-0.146
15.47,-0.159,1.466,0.145
15.48,-0.14,0.805,0.002
15.49,-0.167,1.149,-0.099
15.5,-0.318,0.222,-0.096
15.51,-0.185,1.255,0.203
15.52,-0.189,0.944,-0.072
15.53,-0.16,0.7,-0.139
15.54,-0.339,0.896,-0.078
15.55,-0.071,0.88,0.183
15.56,-0.306,1.277,0.028
15.57,-0.257,0.33,-0.146
15.58,-0.297,1.288,-0.004
15.59,-0.049,0.795,0.132
15.6,-0.293,1.133,0.016
15.61,-0.378,0.579,-0.201
15.62,-0.128,1.12,-0.001
15.63,-0.145,1.069,0.071
15.64,-0.057,0.724,0.006
15.65,-0.574,0.816,-0.229
15.66,-0.08,1.302,0.077
15.67,-0.269,1.12,0.16
15.68,0.002,0.465,0.078
15.69,-0.626,0.983,-0.13
15.7,-0.006,1.664,0.09
15.71,-0.124,1.038,0.17
15.72,0.033,0.654,-0.048
15.73,-0.444,0.415,-0.172
15.74,-0.184,2.0,0.207
15.75,0.005,0.691,0.057
15.76,-0.171,0.875,-0.062
15.77,-0.328,0.297,-0.185
15.78,-0.204,1.942,0.123
15.79,-0.054,0.953,0.072
15.8,-0.107,0.622,-0.067
15.81,-0.414,0.712,-0.188
15.82,-0.069,1.289,0.203
15.83,-0.295,1.404,0.083
15.84,0.01,0.505,-0.058
15.85,-0.467,0.92,-0.117
15.86,-0.025,1.068,0.151
15.87,-0.241,1.218,0.049
15.88,-0.116,0.845,-0.109
15.89,-0.428,0.445,-0.074
15.9,-0.115,1.294,0.191
15.91,-0.244,0.827,0.015
15.92,-0.17,1.039,-0.119
15.93,-0.377,0.538,-0.069
15.94,-0.086,1.199,0.158
15.95,-0.297,0.953,-0.017
15.96,-0.206,0.62,-0.152
15.97,-0.317,1.238,-0.054
15.98,0.032,0.81,0.125
15.99,-0.388,1.266,-0.008
16.0,-0.193,0.297,-0.193
16.01,-0.356,1.632,-0.007
16.02,-0.039,0.77,0.13
16.03,-0.317,1.038,0.045
16.04,-0.38,0.572,-0.179
16.05,-0.216,1.448,0.04
16.06,-0.132,1.012,0.121
16.07,-0.058,0.521,0.004
16.08,-0.52,1.033,-0.204
16.09,-0.074,1.44,0.051
16.1,-0.201,1.136,0.16
16.11,-0.014,0.551,-0.001
16.12,-0.538,0.721,-0.159
16.13,-0.06,1.908,0.126
16.14,-0.047,0.779,0.121
16.15,-0.124,0.817,-0.033
16.16,-0.349,0.218,-0.172
16.17,-0.248,2.0,0.119
16.18,0.015,0.782,0.024
16.19,-0.108,0.889,-0.027
16.2,-0.411,0.416,-0.134
16.21,-0.115,1.581,0.14
16.22,-0.231,1.269,0.062
16.23,0.05,0.55,-0.106
16.24,-0.505,0.884,-0.096
16.25,-0.003,1.115,0.211
16.26,-0.422,1.329,0.081
16.27,0.01,0.642,-0.109
16.28,-0.497,0.724,-0.082
16.29,-0.071,1.173,0.167
16.3,-0.205,0.948,-0.04
16.31,-0.241,0.903,-0.12
16.32,-0.275,0.501,-0.029
16.33,-0.22,1.309,0.167
16.34,-0.23,0.739,0.035
16.35,-0.41,0.874,-0.124
16.36,-0.184,0.999,-0.029
16.37,-0.174,0.984,0.133
16.38,-0.232,1.114,0.014
16.39,-0.306,0.461,-0.181
16.4,-0.226,1.647,0.023
16.41,-0.039,0.68,0.142
16.42,-0.234,1.134,-0.021
16.43,-0.418,0.396,-0.189
16.44,-0.186,1.676,0.061
16.45,-0.129,0.633,0.163
16.46,-0.177,0.836,0.013
16.47,-0.444,0.624,-0.203
16.48,-0.144,1.753,0.144
16.49,-0.113,1.116,0.1
16.5,-0.057,0.325,-0.048
16.51,-0.488,0.989,-0.157
16.52,-0.036,1.559,0.106
16.53,-0.098,1.282,0.087
16.54,-0.035,0.502,-0.05
16.55,-0.406,0.65,-0.179
16.56,-0.1,1.783,0.181
16.57,-0.089,0.969,0.029
16.58,-0.143,0.914,-0.044
16.59,-0.326,0.171,-0.168
16.6,-0.223,1.758,0.197
16.61,-0.104,0.87,0.02
16.62,-0.125,0.962,-0.088
16.63,-0.32,0.426,-0.118
16.64,-0.218,1.172,0.219
16.65,-0.271,1.223,0.058
16.66,-0.054,0.552,-0.131
16.67,-0.501,1.007,-0.038
16.68,-0.021,0.833,0.174
16.69,-0.361,1.358,0.03
16.7,-0.144,0.436,-0.144
16.71,-0.358,0.958,-0.042
16.72,-0.073,1.075,0.108
16.73,-0.218,0.829,0.005
16.74,-0.332,0.844,-0.174
16.75,-0.177,0.814,-0.075
16.76,-0.128,1.202,0.099
16.77,-0.172,0.732,0.01
16.78,-0.428,0.896,-0.187
16.79,-0.144,1.263,0.063
16.8,-0.2,0.918,0.143
16.81,-0.168,0.974,0.008
16.82,-0.429,0.5,-0.219
16.83,-0.245,1.875,0.083
16.84,-0.058,0.641,0.142
16.85,-0.18,1.006,0.011
16.86,-0.43,0.424,-0.165
16.87,-0.199,1.932,0.104
16.88,-0.075,0.824,0.136
16.89,-0.056,0.558,-0.071
16.9,-0.462,0.897,-0.191
16.91,-0.074,1.627,0.122
16.92,-0.123,1.257,0.102
16.93,0.091,0.318,-0.04
16.94,-0.503,0.925,-0.217
16.95,-0.037,1.607,0.112
16.96,-0.055,1.133,0.053
16.97,-0.047,0.718,-0.112
16.98,-0.273,0.393,-0.17
16.99,-0.27,1.811,0.172
17.0,-0.017,0.823,0.083
17.01,-0.235,1.011,-0.073
17.02,-0.344,0.22,-0.135
17.03,-0.202,1.542,0.18
17.04,-0.11,1.041,0.008
17.05,-0.102,0.719,-0.064
17.06,-0.43,0.75,-0.127
17.07,-0.101,0.994,0.223
17.08,-0.179,1.345,0.049
17.09,-0.174,0.425,-0.102
17.1,-0.376,0.971,-0.067
17.11,-0.191,0.905,0.156
17.12,-0.211,1.146,0.007
17.13,-0.204,0.638,-0.142
17.14,-0.215,0.754,-0.081
17.15,-0.077,1.214,0.115
17.16,-0.174,0.672,0.012
17.17,-0.34,1.093,-0.201
17.18,-0.269,0.703,-0.053
17.19,-0.14,1.128,0.114
17.2,-0.245,0.937,-0.041
17.21,-0.249,0.635,-0.208
17.22,-0.315,1.458,-0.029
17.23,-0.013,0.758,0.151
17.24,-0.34,1.152,-0.007
17.25,-0.171,0.396,-0.218
17.26,-0.313,2.0,0.072
17.27,0.022,0.695,0.112
17.28,-0.195,0.926,0.027
17.29,-0.336,0.418,-0.218
17.3,-0.187,1.999,0.099
17.31,-0.034,0.801,0.056
17.32,-0.06,0.565,-0.02
17.33,-0.465,0.832,-0.257
17.34,0.003,1.631,0.132
17.35,-0.237,1.26,0.114
17.36,0.034,0.264,0.004
17.37,-0.499,0.917,-0.158
17.38,-0.086,1.559,0.176
17.39,-0.18,1.094,0.114
17.4,-0.054,0.826,-0.087
17.41,-0.413,0.367,-0.117
17.42,-0.108,1.974,0.202
17.43,-0.053,0.886,0.065
17.44,-0.119,0.872,-0.1
17.45,-0.346,0.27,-0.209
17.46,-0.15,1.536,0.165
17.47,-0.169,0.965,0.042
17.48,-0.035,0.752,-0.137
17.49,-0.441,0.752,-0.151
17.5,-0.043,0.969,0.192
17.51,-0.314,1.376,-0.041
17.52,-0.086,0.385,-0.106
17.53,-0.455,0.98,-0.081
17.54,-0.074,0.888,0.179
17.55,-0.293,1.172,-0.004
17.56,-0.186,0.678,-0.103
17.57,-0.395,0.646,-0.039
17.58,-0.077,1.224,0.145
17.59,-0.176,0.755,0.016
17.6,-0.394,1.01,-0.122
17.61,-0.226,0.752,-0.015
17.62,-0.23,1.125,0.171
17.63,-0.216,0.926,0.002
17.64,-0.292,0.602,-0.21
17.65,-0.19,1.548,0.007
17.66,-0.064,0.721,0.143
17.67,-0.223,1.137,-0.04
17.68,-0.296,0.409,-0.148
17.69,-0.296,1.848,0.059
17.7,-0.077,0.709,0.14
17.71,-0.123,0.849,-0.016
17.72,-0.463,0.684,-0.186
17.73,-0.174,1.595,0.093
17.74,-0.21,1.055,0.157
17.75,-0.024,0.414,0.002
17.76,-0.529,1.036,-0.161
17.77,-0.112,1.565,0.125
17.78,-0.126,1.158,0.081
17.79,0.034,0.454,-0.013
17.8,-0.476,0.715,-0.199
17.81,-0.032,1.927,0.144
17.82,-0.08,0.75,0.1
17.83,-0.056,0.913,-0.063
17.84,-0.307,0.24,-0.287
17.85,-0.136,2.0,0.146
17.86,-0.093,0.797,0.104
17.87,-0.158,0.768,-0.06
17.88,-0.377,0.487,-0.195
17.89,-0.099,1.552,0.117
17.9,-0.178,1.263,0.083
17.91,0.02,0.506,-0.067
17.92,-0.497,0.893,-0.178
17.93,-0.071,1.189,0.215
17.94,-0.285,1.45,0.115
17.95,-0.125,0.512,-0.074
17.96,-0.428,0.706,-0.111
17.97,-0.103,1.355,0.171
17.98,-0.023,1.019,-0.042
17.99,-0.183,1.052,-0.116
18.0,-0.364,0.219,-0.086
18.01,-0.28,1.373,0.206
18.02,-0.153,0.842,-0.006
18.03,-0.265,0.931,-0.063
18.04,-0.322,0.579,-0.08
18.05,-0.101,0.984,0.142
18.06,-0.22,0.982,-0.014
18.07,-0.299,0.614,-0.225
18.08,-0.209,1.322,-0.042
18.09,-0.061,0.733,0.078
18.1,-0.282,1.295,-0.017
18.11,-0.237,0.278,-0.237
18.12,-0.189,1.717,0.041
18.13,-0.029,0.756,0.123
18.14,-0.248,0.908,0.037
18.15,-0.433,0.598,-0.209
18.16,-0.107,1.542,0.044
18.17,-0.159,1.067,0.137
18.18,-0.027,0.417,-0.015
18.19,-0.522,1.08,-0.198
18.2,-0.062,1.587,0.105
18.21,-0.226,1.14,0.204
18.22,-0.029,0.487,0.011
18.23,-0.49,0.719,-0.15
18.24,-0.094,1.892,0.121
18.25,-0.124,0.809,0.191
18.26,-0.078,0.858,-0.032
18.27,-0.434,0.208,-0.119
18.28,-0.186,2.0,0.143
18.29,-0.011,0.788,0.105
18.3,-0.124,0.864,-0.054
18.31,-0.398,0.449,-0.174
18.32,-0.139,1.561,0.158
18.33,-0.154,1.316,0.034
18.34,0.003,0.489,-0.062
18.35,-0.469,0.951,-0.173
18.36,-0.014,1.087,0.21
18.37,-0.323,1.393,0.052
18.38,-0.038,0.607,-0.085
18.39,-0.446,0.701,-0.149
18.4,-0.064,1.206,0.159
18.41,-0.192,0.916,0.056
18.42,-0.266,0.997,-0.07
18.43,-0.404,0.333,-0.037
18.44,-0.215,1.301,0.213
18.45,-0.138,0.831,0.007
18.46,-0.331,0.825,-0.111
18.47,-0.295,0.866,-0.067
18.48,-0.037,1.044,0.115
18.49,-0.268,1.134,-0.024
18.5,-0.21,0.461,-0.188
18.51,-0.325,1.494,-0.059
18.52,-0.036,0.7,0.118
18.53,-0.283,1.232,0.009
18.54,-0.277,0.376,-0.203
18.55,-0.215,1.562,0.017
18.56,-0.144,0.929,0.152
18.57,-0.118,0.693,0.03
18.58,-0.454,0.884,-0.157
18.59,-0.127,1.348,0.049
18.6,-0.113,1.257,0.161
18.61,-0.086,0.438,0.07
18.62,-0.536,0.99,-0.18
18.63,-0.145,1.591,0.062
18.64,-0.064,0.91,0.084
18.65,-0.122,0.758,-0.018
18.66,-0.357,0.533,-0.168
18.67,-0.207,2.0,0.091
18.68,0.042,0.637,0.137
18.69,-0.216,0.895,-0.023
18.7,-0.362,0.316,-0.12
18.71,-0.164,2.0,0.103
18.72,-0.048,0.895,0.09
18.73,-0.022,0.567,-0.081
18.74,-0.407,0.769,-0.222
18.75,-0.045,1.492,0.189
18.76,-0.12,1.362,0.086
18.77,-0.017,0.312,-0.051
18.78,-0.512,0.916,-0.179
18.79,-0.087,1.413,0.179
18.8,-0.247,1.124,0.15
18.81,-0.098,0.778,-0.047
18.82,-0.398,0.342,-0.149
18.83,-0.17,1.629,0.218
18.84,-0.224,0.809,0.088
18.85,-0.181,1.073,-0.086
18.86,-0.363,0.194,-0.148
18.87,-0.155,1.393,0.172
18.88,-0.135,0.816,0.02
18.89,-0.25,0.943,-0.147
18.9,-0.451,0.555,-0.091
18.91,-0.02,1.107,0.179
18.92,-0.271,1.217,-0.026
18.93,-0.163,0.372,-0.159
18.94,-0.469,1.149,-0.037
18.95,0.017,0.765,0.174
18.96,-0.339,1.38,-0.016
18.97,-0.067,0.868,0.095
18.98,-0.136,0.79,-0.075
18.99,-0.396,0.521,-0.172
19.0,-0.106,1.405,0.235
19.01,-0.223,1.342,0.05
19.02,-0.0,0.489,-0.085
19.03,-0.46,0.908,-0.166
19.04,0.005,1.21,0.184
19.05,-0.186,1.368,0.003
19.06,-0.106,0.567,-0.135
19.07,-0.388,0.63,-0.135
19.08,-0.129,1.416,0.14
19.09,-0.132,0.866,0.047
19.1,-0.206,1.053,-0.123
19.11,-0.39,0.214,-0.124
19.12,-0.158,1.387,0.197
19.13,-0.214,0.865,0.01
19.14,-0.22,0.839,-0.135
19.15,-0.457,0.613,-0.157
19.16,-0.006,1.009,0.191
19.17,-0.314,1.281,0.008
19.18,-0.207,0.312,-0.122
19.19,-0.449,1.168,-0.026
19.2,-0.024,0.842,0.178
19.21,-0.348,1.258,0.091
19.22,-0.221,0.475,-0.152
19.23,-0.368,0.966,-0.054
19.24,-0.105,1.105,0.154
19.25,-0.215,0.799,0.036
19.26,-0.354,0.9,-0.118
19.27,-0.225,0.876,-0.025
19.28,-0.197,1.224,0.193
19.29,-0.19,0.717,0.033
19.3,-0.427,0.893,-0.088
19.31,-0.209,1.31,-0.058
19.32,-0.125,0.935,0.168
19.33,-0.191,1.053,0.003
19.34,-0.362,0.486,-0.21
19.35,-0.243,1.716,0.009
19.36,-0.077,0.684,0.118
19.37,-0.257,1.122,0.029
19.38,-0.356,0.478,-0.187
19.39,-0.238,1.586,0.035
19.4,-0.121,0.981,0.157
19.41,-0.119,0.648,0.026
19.42,-0.459,0.968,-0.178
19.43,-0.19,1.309,0.061
19.44,-0.219,1.198,0.226
19.45,-0.058,0.484,0.071
19.46,-0.548,0.986,-0.185
19.47,-0.183,1.573,0.072
19.48,-0.174,0.87,0.164
19.49,-0.089,0.835,0.022
19.5,-0.392,0.473,-0.214
19.51,-0.206,2.0,0.092
19.52,-0.082,0.658,0.122
19.53,-0.119,0.917,0.032
19.54,-0.408,0.384,-0.177
19.55,-0.167,1.978,0.12
19.56,-0.161,0.834,0.13
19.57,-0.017,0.779,-0.012
19.58,-0.442,0.598,-0.246
19.59,-0.011,1.806,0.111
19.6,-0.142,1.213,0.084
19.61,0.043,0.322,-0.053
19.62,-0.454,1.014,-0.245
19.63,-0.049,1.464,0.126
19.64,-0.214,1.282,0.141
19.65,-0.035,0.505,-0.025
19.66,-0.485,0.716,-0.191
19.67,-0.164,1.621,0.199
19.68,-0.115,0.885,0.1
19.69,-0.142,0.988,-0.052
19.7,-0.391,0.172,-0.208
19.71,-0.233,1.787,0.185
19.72,-0.136,0.821,0.119
19.73,-0.104,0.917,-0.084
19.74,-0.431,0.442,-0.188
19.75,-0.123,1.45,0.214
19.76,-0.241,1.262,0.075
19.77,-0.037,0.481,-0.06
19.78,-0.558,0.975,-0.121
19.79,-0.082,1.075,0.227
19.8,-0.301,1.316,0.088
19.81,-0.097,0.552,-0.107
19.82,-0.456,0.726,-0.131
19.83,-0.163,1.276,0.209
19.84,-0.118,0.982,0.046
19.85,-0.167,0.993,-0.154
19.86,-0.446,0.281,-0.063
19.87,-0.178,1.428,0.185
19.88,-0.155,0.865,0.021
19.89,-0.203,0.909,-0.134
19.9,-0.414,0.554,-0.148
19.91,-0.097,1.102,0.198
19.92,-0.302,1.133,0.019
19.93,-0.159,0.415,-0.105
19.94,-0.528,1.047,-0.105
19.95,-0.014,0.855,0.184
19.96,-0.36,1.302,0.051
19.97,-0.222,0.404,-0.106
19.98,-0.38,0.889,-0.026
19.99,-0.101,0.987,0.166
20.0,-0.139,0.962,0.0
20.01,-0.287,0.78,-0.169
20.02,-0.248,0.654,-0.091
20.03,-0.11,1.317,0.129
20.04,-0.095,0.684,0.018
20.05,-0.38,0.929,-0.152
20.06,-0.198,1.041,-0.108
20.07,-0.099,1.077,0.152
20.08,-0.187,1.032,0.025
20.09,-0.293,0.525,-0.144
20.1,-0.274,1.56,-0.069
20.11,-0.093,0.751,0.192
20.12,-0.242,1.213,0.044
20.13,-0.251,0.402,-0.193
20.14,-0.254,1.548,-0.077
20.15,-0.018,0.902,0.151
20.16,-0.174,0.849,-0.026
20.17,-0.341,0.855,-0.154
20.18,-0.173,1.233,-0.043
20.19,-0.162,1.203,0.14
20.2,-0.041,0.533,0.008
20.21,-0.514,1.046,-0.119
20.22,-0.213,1.376,0.0
20.23,-0.175,1.002,0.166
20.24,-0.078,0.824,-0.014
20.25,-0.491,0.632,-0.168
20.26,-0.262,1.9,0.111
20.27,-0.134,0.655,0.146
20.28,-0.198,1.047,0.057
20.29,-0.354,0.394,-0.174
20.3,-0.36,1.922,0.097
20.31,-0.094,0.813,0.177
20.32,-0.075,0.734,0.02
20.33,-0.484,0.81,-0.173
20.34,-0.164,1.484,0.074
20.35,-0.227,1.132,0.157
20.36,0.015,0.407,0.026
20.37,-0.413,1.043,-0.229
20.38,0.0,1.615,0.078
20.39,-0.184,1.193,0.134
20.4,0.091,0.421,0.022
20.41,-0.598,0.875,-0.192
20.42,0.019,1.834,0.05
20.43,-0.122,0.905,0.115
20.44,0.039,0.814,-0.03
20.45,-0.351,0.382,-0.235
20.46,-0.205,1.934,0.078
20.47,0.01,0.71,0.122
20.48,-0.118,0.881,-0.056
20.49,-0.415,0.411,-0.202
20.5,-0.092,1.848,0.111
20.51,-0.157,1.108,0.083
20.52,0.028,0.432,-0.026
20.53,-0.54,0.991,-0.207
20.54,-0.056,1.361,0.208
20.55,-0.25,1.333,0.137
20.56,-0.025,0.434,-0.057
20.57,-0.481,0.872,-0.198
20.58,-0.13,1.569,0.17
20.59,-0.213,0.977,0.087
20.6,-0.072,0.875,-0.048
20.61,-0.459,0.289,-0.122
20.62,-0.245,1.83,0.227
20.63,-0.145,0.785,0.107
20.64,-0.15,0.955,-0.048
20.65,-0.481,0.312,-0.215
20.66,-0.094,1.596,0.169
20.67,-0.228,1.146,0.129
20.68,-0.099,0.488,-0.072
20.69,-0.491,0.927,-0.163
20.7,-0.044,1.195,0.197
20.71,-0.347,1.335,0.111
20.72,0.014,0.467,-0.067
20.73,-0.56,0.801,-0.184
20.74,0.004,1.301,0.171
20.75,-0.255,1.157,0.075
20.76,-0.135,0.811,-0.109
20.77,-0.436,0.308,-0.17
20.78,-0.176,1.579,0.197
20.79,-0.121,0.872,0.083
20.8,-0.185,1.012,-0.073
20.81,-0.462,0.265,-0.15
20.82,-0.168,1.356,0.232
20.83,-0.182,1.144,0.027
20.84,-0.141,0.558,-0.09
20.85,-0.442,0.901,-0.16
20.86,-0.06,1.016,0.166
20.87,-0.197,1.331,0.047
20.88,-0.072,0.373,-0.166
20.89,-0.471,0.96,-0.2
20.9,-0.057,1.027,0.14
20.91,-0.154,1.118,0.02
20.92,-0.245,0.748,-0.128
20.93,-0.388,0.401,-0.117
20.94,-0.16,1.342,0.147
20.95,-0.142,0.808,0.019
20.96,-0.332,0.939,-0.127
20.97,-0.432,0.357,-0.099
20.98,-0.159,1.212,0.164
20.99,-0.194,1.045,-0.011
21.0,-0.167,0.55,-0.101
21.01,-0.507,0.951,-0.097
21.02,-0.038,0.894,0.209
21.03,-0.322,1.317,0.03
21.04,-0.162,0.385,-0.137
21.05,-0.511,1.007,-0.082
21.06,-0.015,0.899,0.139
21.07,-0.263,1.177,0.027
21.08,-0.253,0.565,-0.154
21.09,-0.333,0.73,-0.083
21.1,-0.109,1.22,0.133
21.11,-0.153,0.787,0.005
21.12,-0.317,0.937,-0.141
21.13,-0.3,0.805,-0.06
21.14,-0.101,1.195,0.13
21.15,-0.181,0.92,0.021
21.16,-0.325,0.712,-0.185
21.17,-0.206,1.247,-0.026
21.18,-0.17,0.902,0.122
21.19,-0.198,1.047,-0.005
21.2,-0.312,0.457,-0.238
21.21,-0.271,1.869,0.033
21.22,-0.002,0.669,0.148
21.23,-0.165,1.045,0.042
21.24,-0.349,0.482,-0.23
21.25,-0.278,1.701,0.024
21.26,-0.057,0.906,0.14
21.27,-0.05,0.655,0.014
21.28,-0.451,0.947,-0.226
21.29,-0.169,1.36,0.039
21.3,-0.205,1.107,0.145
21.31,0.048,0.478,0.015
21.32,-0.535,0.946,-0.2
21.33,-0.099,1.56,0.07
21.34,-0.211,0.923,0.146
21.35,-0.017,0.771,-0.009
21.36,-0.474,0.531,-0.195
21.37,-0.186,2.0,0.123
21.38,-0.166,0.665,0.208
21.39,-0.171,0.934,0.053
21.4,-0.348,0.416,-0.195
21.41,-0.174,1.995,0.109
21.42,-0.065,0.888,0.163
21.43,-0.036,0.527,-0.02
21.44,-0.557,0.901,-0.234
21.45,-0.0,1.601,0.108
21.46,-0.252,1.132,0.176
21.47,0.107,0.372,0.007
21.48,-0.538,1.035,-0.165
21.49,-0.029,1.6,0.13
21.5,-0.197,1.091,0.234
21.51,-0.028,0.575,-0.044
21.52,-0.506,0.564,-0.13
21.53,-0.132,2.0,0.097
21.54,-0.085,0.702,0.12
21.55,-0.064,0.899,-0.038
21.56,-0.471,0.336,-0.175
21.57,-0.133,1.942,0.122
21.58,-0.169,0.897,0.105
21.59,-0.016,0.652,-0.024
21.6,-0.564,0.735,-0.21
21.61,0.029,1.434,0.165
21.62,-0.236,1.315,0.119
21.63,0.112,0.403,-0.076
21.64,-0.51,0.969,-0.229
21.65,0.004,1.354,0.168
21.66,-0.208,1.241,0.075
21.67,-0.022,0.673,-0.064
21.68,-0.447,0.497,-0.211
21.69,-0.162,1.673,0.208
21.7,-0.141,0.854,0.164
21.71,-0.195,1.002,-0.076
21.72,-0.42,0.192,-0.166
21.73,-0.164,1.604,0.221
21.74,-0.215,0.97,0.103
21.75,-0.108,0.783,-0.092
21.76,-0.548,0.663,-0.2
21.77,-0.047,1.128,0.239
21.78,-0.274,1.348,0.043
21.79,0.014,0.425,-0.072
21.8,-0.557,0.981,-0.177
21.81,0.048,0.986,0.167
21.82,-0.246,1.247,0.031
21.83,-0.126,0.607,-0.134
21.84,-0.506,0.558,-0.125
21.85,-0.128,1.265,0.155
21.86,-0.156,0.899,0.049
21.87,-0.198,0.929,-0.149
21.88,-0.456,0.282,-0.154
21.89,-0.094,1.34,0.178
21.9,-0.155,0.885,-0.019
21.91,-0.284,0.685,-0.126
21.92,-0.43,0.778,-0.121
21.93,-0.003,1.025,0.164
21.94,-0.292,1.213,0.015
21.95,-0.126,0.342,-0.139
21.96,-0.438,1.199,-0.072
21.97,-0.042,0.811,0.178
21.98,-0.359,1.286,0.051
21.99,-0.249,0.303,-0.168
22.0,-0.329,1.46,-0.063
22.01,0.015,0.888,0.116
22.02,-0.23,0.881,0.018
22.03,-0.326,0.906,-0.259
22.04,-0.243,1.021,-0.026
22.05,-0.13,1.2,0.156
22.06,-0.074,0.683,0.032
22.07,-0.482,0.967,-0.189
22.08,-0.176,1.272,0.032
22.09,-0.168,1.015,0.158
22.1,-0.07,0.786,0.026
22.11,-0.399,0.684,-0.171
22.12,-0.31,1.823,0.05
22.13,-0.067,0.677,0.135
22.14,-0.184,1.047,0.061
22.15,-0.337,0.391,-0.241
22.16,-0.291,1.854,0.059
22.17,-0.108,0.761,0.096
22.18,-0.121,0.754,0.052
22.19,-0.397,0.728,-0.219
22.2,-0.177,1.52,0.081
22.21,-0.227,1.154,0.154
22.22,0.086,0.389,0.028
22.23,-0.526,1.072,-0.192
22.24,-0.067,1.603,0.091
22.25,-0.24,0.986,0.118
22.26,0.033,0.64,0.033
22.27,-0.436,0.675,-0.202
22.28,-0.108,1.929,0.092
22.29,0.006,0.802,0.165
22.3,-0.152,0.825,-0.003
22.31,-0.373,0.299,-0.194
22.32,-0.089,2.0,0.056
22.33,-0.083,0.733,0.129
22.34,-0.056,0.73,-0.083
22.35,-0.414,0.641,-0.257
22.36,-0.034,1.719,0.131
22.37,-0.139,1.209,0.087
22.38,0.064,0.217,-0.007
22.39,-0.461,1.099,-0.271
22.4,-0.053,1.496,0.136
22.41,-0.16,1.219,0.109
22.42,-0.041,0.54,-0.029
22.43,-0.372,0.625,-0.203
22.44,-0.189,1.706,0.135
22.45,-0.072,0.77,0.049
22.46,-0.108,0.982,-0.086
22.47,-0.477,0.217,-0.197
22.48,-0.149,1.786,0.205
22.49,-0.121,0.881,0.113
22.5,-0.152,0.751,-0.033
22.51,-0.392,0.556,-0.202
22.52,-0.109,1.497,0.169
22.53,-0.202,1.258,0.096
22.54,-0.018,0.444,-0.067
22.55,-0.562,0.93,-0.193
22.56,-0.022,1.275,0.213
22.57,-0.252,1.318,0.093
22.58,-0.029,0.554,-0.014
22.59,-0.48,0.658,-0.204
22.6,-0.097,1.435,0.193
22.61,-0.139,0.941,0.097
22.62,-0.195,0.987,-0.112
22.63,-0.464,0.155,-0.176
22.64,-0.211,1.672,0.193
22.65,-0.132,0.939,0.088
22.66,-0.159,0.878,-0.047
22.67,-0.435,0.453,-0.218
22.68,-0.144,1.253,0.2
22.69,-0.202,1.346,0.048
22.7,-0.081,0.441,-0.053
22.71,-0.519,0.952,-0.186
22.72,-0.045,1.053,0.144
22.73,-0.178,1.303,0.052
22.74,-0.097,0.543,-0.091
22.75,-0.469,0.73,-0.146
22.76,-0.128,1.205,0.146
22.77,-0.148,1.008,0.125
22.78,-0.202,0.638,-0.147
22.79,-0.38,0.591,-0.085
22.8,-0.128,1.287,0.152
22.81,-0.073,0.677,-0.009
22.82,-0.312,1.053,-0.102
22.83,-0.459,0.462,-0.087
22.84,-0.099,1.26,0.161
22.85,-0.268,0.968,0.032
22.86,-0.221,0.594,-0.114
22.87,-0.425,1.07,-0.059
22.88,-0.036,0.905,0.161
22.89,-0.351,1.224,0.057
22.9,-0.109,0.446,-0.132
22.91,-0.502,1.303,-0.035
22.92,-0.03,0.824,0.159
22.93,-0.216,1.13,0.05
22.94,-0.302,0.567,-0.182
22.95,-0.33,0.901,-0.024
22.96,-0.067,1.22,0.109
22.97,-0.205,0.686,0.025
22.98,-0.263,0.986,-0.146
22.99,-0.277,0.944,-0.113
23.0,-0.089,1.245,0.165
23.01,-0.144,0.813,0.027
23.02,-0.332,0.757,-0.168
23.03,-0.315,1.285,-0.071
23.04,-0.024,0.844,0.114
23.05,-0.26,1.229,-0.023
23.06,-0.215,0.378,-0.183
23.07,-0.339,1.573,-0.082
23.08,0.008,0.74,0.162
23.09,-0.189,1.129,-0.01
23.1,-0.242,0.564,-0.195
23.11,-0.164,1.343,-0.132
23.12,-0.016,1.155,0.105
23.13,-0.005,0.589,0.015
23.14,-0.424,1.102,-0.229
23.15,-0.23,1.023,-0.044
23.16,-0.175,1.094,0.069
23.17,-0.094,0.797,-0.004
23.18,-0.36,0.846,-0.21
23.19,-0.261,1.471,-0.017
23.2,-0.062,0.78,0.139
23.21,-0.198,1.09,0.017
23.22,-0.219,0.455,-0.205
23.23,-0.373,1.94,0.069
23.24,-0.062,0.717,0.201
23.25,-0.231,0.954,0.12
23.26,-0.304,0.608,-0.177
23.27,-0.344,1.573,0.106
23.28,-0.139,0.977,0.144
23.29,-0.104,0.565,0.061
23.3,-0.494,1.063,-0.145
23.31,-0.248,1.324,0.087
23.32,-0.204,1.123,0.22
23.33,-0.05,0.521,0.099
23.34,-0.454,0.927,-0.163
23.35,-0.201,1.659,0.072
23.36,-0.161,0.856,0.162
23.37,-0.072,0.855,0.011
23.38,-0.35,0.422,-0.199
23.39,-0.245,2.0,0.093
23.4,-0.102,0.644,0.171
23.41,-0.082,0.865,0.011
23.42,-0.388,0.56,-0.147
23.43,-0.167,1.84,0.109
23.44,-0.226,0.959,0.207
23.45,0.025,0.451,0.002
23.46,-0.471,0.947,-0.204
23.47,0.014,1.542,0.131
23.48,-0.273,1.155,0.176
23.49,0.092,0.42,0.03
23.5,-0.462,0.977,-0.19
23.51,-0.045,1.728,0.037
23.52,-0.098,0.887,0.135
23.53,0.004,0.786,-0.027
23.54,-0.439,0.386,-0.169
23.55,-0.121,2.0,0.076
23.56,-0.065,0.689,0.146
23.57,-0.068,0.847,-0.025
23.58,-0.375,0.286,-0.217
23.59,-0.121,1.99,0.083
23.6,-0.112,0.882,0.128
23.61,-0.087,0.641,-0.047
23.62,-0.38,0.675,-0.237
23.63,-0.108,1.618,0.176
23.64,-0.161,1.221,0.048
23.65,0.042,0.37,-0.064
23.66,-0.554,1.033,-0.181
23.67,-0.036,1.346,0.173
23.68,-0.285,1.28,0.127
23.69,-0.039,0.546,-0.04
23.7,-0.5,0.616,-0.153
23.71,-0.127,1.645,0.219
23.72,-0.124,0.867,0.119
23.73,-0.187,0.964,-0.086
23.74,-0.43,0.187,-0.151
23.75,-0.198,1.838,0.179
23.76,-0.155,0.879,0.133
23.77,-0.16,0.755,-0.088
23.78,-0.452,0.567,-0.24
23.79,-0.043,1.374,0.126
23.8,-0.242,1.255,0.06
23.81,-0.038,0.439,-0.055
23.82,-0.523,0.931,-0.182
23.83,-0.031,1.254,0.205
23.84,-0.293,1.179,0.117
23.85,-0.04,0.611,-0.094
23.86,-0.468,0.674,-0.198
23.87,-0.095,1.372,0.189
23.88,-0.117,1.004,0.063
23.89,-0.202,0.868,-0.069
23.9,-0.407,0.241,-0.177
23.91,-0.189,1.686,0.142
23.92,-0.171,0.808,0.115
23.93,-0.232,0.946,-0.101
23.94,-0.433,0.41,-0.193
23.95,-0.085,1.344,0.201
23.96,-0.27,1.349,0.103
23.97,-0.04,0.423,-0.072
23.98,-0.476,0.957,-0.229
23.99,0.0,1.083,0.157
24.0,-0.201,1.334,0.023
24.01,-0.146,0.541,-0.064
24.02,-0.464,0.71,-0.187
24.03,-0.173,1.275,0.171
24.04,-0.04,0.956,0.045
24.05,-0.233,0.923,-0.155
24.06,-0.388,0.281,-0.146
24.07,-0.173,1.502,0.186
24.08,-0.091,0.86,0.037
24.09,-0.172,0.882,-0.107
24.1,-0.434,0.464,-0.197
24.11,-0.119,1.146,0.173
24.12,-0.249,1.121,0.022
24.13,-0.155,0.377,-0.112
24.14,-0.517,0.991,-0.112
24.15,-0.115,0.833,0.225
24.16,-0.229,1.391,0.031
24.17,-0.098,0.386,-0.116
24.18,-0.466,0.833,-0.156
24.19,-0.012,1.091,0.139
24.2,-0.083,0.959,0.022
24.21,-0.334,0.774,-0.082
24.22,-0.407,0.406,-0.044
24.23,-0.2,1.359,0.174
24.24,-0.178,0.74,0.082
24.25,-0.271,0.87,-0.117
24.26,-0.418,0.628,-0.104
24.27,-0.082,1.108,0.151
24.28,-0.247,1.107,0.033
24.29,-0.19,0.506,-0.152
24.3,-0.456,1.066,-0.1
24.31,0.002,0.804,0.126
24.32,-0.288,1.343,0.009
24.33,-0.104,0.303,-0.154
24.34,-0.466,1.059,-0.099
24.35,0.041,0.97,0.105
24.36,-0.278,1.043,0.021
24.37,-0.313,0.764,-0.102
24.38,-0.264,0.731,-0.026
24.39,-0.066,1.099,0.132
24.4,-0.073,0.673,-0.015
24.41,-0.432,0.991,-0.184
24.42,-0.193,1.004,-0.019
24.43,-0.144,1.166,0.158
24.44,-0.13,0.736,0.016
24.45,-0.378,0.819,-0.212
24.46,-0.178,1.446,-0.013
24.47,-0.09,0.807,0.143
24.48,-0.2,1.064,0.012
24.49,-0.321,0.457,-0.238
24.5,-0.282,1.81,0.046
24.51,-0.044,0.679,0.134
24.52,-0.17,1.03,0.043
24.53,-0.33,0.629,-0.202
24.54,-0.344,1.504,0.042
24.55,-0.017,1.009,0.134
24.56,-0.12,0.594,0.015
24.57,-0.43,1.037,-0.158
24.58,-0.221,1.343,0.052
24.59,-0.169,1.158,0.242
24.6,-0.044,0.499,0.095
24.61,-0.511,0.994,-0.184
24.62,-0.112,1.627,0.028
24.63,-0.128,0.826,0.168
24.64,-0.084,0.864,0.014
24.65,-0.406,0.421,-0.197
24.66,-0.277,2.0,0.137
24.67,-0.107,0.594,0.13
24.68,-0.065,0.925,0.037
24.69,-0.402,0.494,-0.263
24.7,-0.166,1.784,0.061
24.71,-0.145,0.936,0.118
24.72,0.014,0.464,-0.007
24.73,-0.479,0.985,-0.188
24.74,-0.061,1.503,0.089
24.75,-0.26,1.161,0.155
24.76,0.013,0.459,0.045
24.77,-0.494,0.911,-0.231
24.78,0.002,1.791,0.082
24.79,-0.089,1.019,0.155
24.8,-0.087,0.65,-0.016
24.81,-0.35,0.477,-0.19
24.82,-0.149,2.0,0.063
24.83,-0.002,0.719,0.099
24.84,-0.155,0.894,-0.012
24.85,-0.403,0.371,-0.165
24.86,-0.122,1.956,0.141
24.87,-0.117,0.998,0.081
24.88,-0.033,0.463,-0.055
24.89,-0.52,0.929,-0.177
24.9,-0.014,1.472,0.172
24.91,-0.194,1.287,0.095
24.92,0.079,0.4,-0.031
24.93,-0.569,0.877,-0.197
24.94,0.011,1.525,0.163
24.95,-0.186,1.093,0.093
24.96,-0.054,0.818,-0.042
24.97,-0.429,0.356,-0.162
24.98,-0.194,1.796,0.177
24.99,-0.116,0.845,0.136
25.0,-0.088,0.962,-0.078
25.01,-0.436,0.295,-0.215
25.02,-0.102,1.62,0.119
25.03,-0.25,1.045,0.066
25.04,-0.022,0.668,-0.058
25.05,-0.536,0.843,-0.184
25.06,0.004,1.096,0.21
25.07,-0.361,1.389,0.083
25.08,0.004,0.483,-0.047
25.09,-0.581,0.874,-0.126
25.1,-0.024,1.152,0.173
25.11,-0.169,1.159,-0.006
25.12,-0.115,0.819,-0.077
25.13,-0.493,0.417,-0.111
25.14,-0.117,1.395,0.172
25.15,-0.154,0.806,0.064
25.16,-0.149,1.073,-0.14
25.17,-0.44,0.332,-0.112
25.18,-0.074,1.266,0.187
25.19,-0.188,0.768,0.007
25.2,-0.297,0.804,-0.122
25.21,-0.381,0.807,-0.098
25.22,-0.032,1.021,0.119
25.23,-0.255,1.192,-0.033
25.24,-0.217,0.378,-0.128
25.25,-0.355,1.29,-0.012
25.26,-0.055,0.733,0.193
25.27,-0.231,1.291,-0.029
25.28,-0.259,0.375,-0.159
25.29,-0.201,1.252,-0.055
25.3,-0.052,1.016,0.115
25.31,-0.166,0.76,-0.02
25.32,-0.36,0.911,-0.187
25.33,-0.197,1.035,-0.034
25.34,-0.13,1.191,0.168
25.35,-0.116,0.633,0.05
25.36,-0.479,0.952,-0.166
25.37,-0.22,1.275,-0.024
25.38,-0.11,0.934,0.109
25.39,-0.187,0.966,-0.004
25.4,-0.374,0.504,-0.186
25.41,-0.306,1.839,0.055
25.42,-0.088,0.696,0.158
25.43,-0.239,1.038,0.066
25.44,-0.294,0.505,-0.187
25.45,-0.321,1.792,0.048
25.46,-0.088,0.867,0.149
25.47,-0.06,0.654,0.019
25.48,-0.477,0.899,-0.227
25.49,-0.182,1.385,0.077
25.5,-0.201,1.098,0.145
25.51,-0.018,0.469,0.01
25.52,-0.48,1.04,-0.212
25.53,-0.09,1.558,0.019
25.54,-0.148,1.007,0.132
25.55,-0.044,0.669,0.017
25.56,-0.427,0.554,-0.117
25.57,-0.188,2.0,0.134
25.58,-0.091,0.619,0.126
25.59,-0.139,0.971,0.034
25.6,-0.421,0.345,-0.23
25.61,-0.108,2.0,0.095
25.62,-0.171,0.792,0.109
25.63,-0.012,0.568,-0.018
25.64,-0.51,0.801,-0.195
25.65,-0.043,1.582,0.11
25.66,-0.173,1.202,0.161
25.67,0.061,0.379,-0.001
25.68,-0.524,0.948,-0.216
25.69,0.003,1.699,0.079
25.7,-0.193,1.143,0.114
25.71,0.044,0.603,-0.044
25.72,-0.502,0.583,-0.186
25.73,-0.162,1.886,0.168
25.74,-0.072,0.708,0.118
25.75,-0.125,0.914,-0.045
25.76,-0.369,0.247,-0.153
25.77,-0.265,1.781,0.178
25.78,-0.228,0.879,0.116
25.79,-0.115,0.74,-0.027
25.8,-0.452,0.686,-0.195
25.81,-0.036,1.401,0.161
25.82,-0.262,1.37,0.079
25.83,0.022,0.385,-0.047
25.84,-0.518,0.965,-0.195
25.85,-0.032,1.274,0.197
25.86,-0.302,1.15,0.11
25.87,-0.11,0.72,-0.082
25.88,-0.457,0.468,-0.13
25.89,-0.131,1.621,0.172
25.9,-0.144,0.881,0.058
25.91,-0.136,1.0,-0.056
25.92,-0.444,0.193,-0.175
25.93,-0.126,1.559,0.169
25.94,-0.183,0.95,0.033
25.95,-0.181,0.785,-0.116
25.96,-0.372,0.608,-0.187
25.97,-0.082,1.116,0.182
25.98,-0.293,1.306,0.143
25.99,-0.22,0.465,-0.117
26.0,-0.475,0.993,-0.089
26.01,0.011,0.866,0.211
26.02,-0.323,1.34,0.054
26.03,-0.15,0.352,-0.134
26.04,-0.432,1.068,-0.077
26.05,-0.103,0.997,0.148
26.06,-0.198,0.951,0.055
26.07,-0.305,0.799,-0.164
26.08,-0.33,0.602,0.004
26.09,-0.197,1.244,0.136
26.1,-0.222,0.713,0.053
26.11,-0.237,0.914,-0.144
26.12,-0.349,0.927,-0.09
26.13,-0.054,1.145,0.157
26.14,-0.227,1.016,0.029
26.15,-0.324,0.506,-0.147
26.16,-0.298,1.411,-0.031
26.17,-0.111,0.755,0.162
26.18,-0.31,1.243,0.025
26.19,-0.218,0.427,-0.191
26.2,-0.301,1.5,-0.031
26.21,-0.055,0.854,0.169
26.22,-0.22,0.92,-0.021
26.23,-0.355,0.772,-0.201
26.24,-0.159,1.281,-0.003
26.25,-0.163,1.211,0.179
26.26,-0.009,0.532,0.065
26.27,-0.531,1.066,-0.177
26.28,-0.193,1.274,0.039
26.29,-0.14,1.083,0.11
26.3,-0.16,0.717,-0.024
26.31,-0.386,0.675,-0.182
26.32,-0.203,1.868,-0.037
26.33,-0.095,0.708,0.249
26.34,-0.134,0.99,0.026
26.35,-0.358,0.42,-0.208
26.36,-0.239,1.983,0.033
26.37,-0.091,0.721,0.093
26.38,-0.051,0.821,0.014
26.39,-0.427,0.721,-0.239
26.4,-0.088,1.585,0.04
26.41,-0.274,1.089,0.15
26.42,0.073,0.387,0.003
26.43,-0.6,1.078,-0.171
26.44,-0.109,1.553,0.139
26.45,-0.139,1.049,0.164
26.46,-0.019,0.609,0.031
26.47,-0.464,0.689,-0.182
26.48,-0.07,1.908,0.087
26.49,-0.135,0.738,0.144
26.5,-0.072,0.886,0.001
26.51,-0.35,0.312,-0.212
26.52,-0.101,2.0,0.068
26.53,-0.103,0.762,0.118
26.54,-0.073,0.731,-0.039
26.55,-0.458,0.56,-0.238
26.56,0.015,1.775,0.083
26.57,-0.185,1.195,0.082
26.58,0.082,0.275,-0.049
26.59,-0.549,1.036,-0.219
26.6,0.048,1.586,0.155
26.61,-0.226,1.22,0.055
26.62,0.021,0.456,-0.07
26.63,-0.41,0.692,-0.223
26.64,-0.124,1.735,0.152
26.65,-0.169,0.858,0.106
26.66,-0.142,0.868,-0.097
26.67,-0.413,0.243,-0.123
26.68,-0.19,1.859,0.197
26.69,-0.206,0.833,0.115
26.7,-0.118,0.883,-0.071
26.71,-0.414,0.463,-0.16
26.72,-0.032,1.58,0.181
26.73,-0.193,1.311,0.125
26.74,-0.008,0.402,-0.093
26.75,-0.493,0.988,-0.189
26.76,0.001,1.179,0.174
26.77,-0.355,1.276,0.096
26.78,-0.021,0.586,-0.079
26.79,-0.468,0.651,-0.185
26.8,0.004,1.025,0.135
26.81,-0.172,1.118,0.035
26.82,-0.26,0.739,-0.186
26.83,-0.433,0.401,-0.104
26.84,-0.216,1.339,0.191
26.85,-0.128,0.827,0.041
26.86,-0.319,0.897,-0.101
26.87,-0.392,0.406,-0.091
26.88,-0.192,1.306,0.185
26.89,-0.238,0.923,0.055
26.9,-0.306,0.632,-0.105
26.91,-0.429,0.965,-0.075
26.92,-0.043,0.913,0.159
26.93,-0.27,1.303,0.057
26.94,-0.291,0.336,-0.106
26.95,-0.478,1.068,-0.04
26.96,-0.091,0.874,0.168
26.97,-0.24,1.151,0.055
26.98,-0.197,0.616,-0.153
26.99,-0.305,0.853,-0.064
27.0,-0.15,1.216,0.189
27.01,-0.135,0.716,0.048
27.02,-0.373,0.908,-0.149
27.03,-0.173,0.941,-0.065
27.04,-0.101,1.198,0.122
27.05,-0.144,0.79,-0.005
27.06,-0.304,0.845,-0.177
27.07,-0.245,1.336,-0.105
27.08,-0.023,0.791,0.13
27.09,-0.22,1.232,0.001
27.1,-0.232,0.378,-0.219
27.11,-0.253,1.74,-0.062
27.12,0.006,0.77,0.119
27.13,-0.223,0.986,0.031
27.14,-0.315,0.694,-0.183
27.15,-0.315,1.483,0.022
27.16,-0.091,1.111,0.114
27.17,-0.06,0.55,-0.025
27.18,-0.506,1.071,-0.214
27.19,-0.231,1.264,0.098
27.2,-0.276,1.044,0.198
27.21,-0.064,0.658,0.076
27.22,-0.507,0.817,-0.145
27.23,-0.198,1.715,0.075
27.24,-0.102,0.797,0.147
27.25,-0.106,0.877,0.031
27.26,-0.322,0.316,-0.252
27.27,-0.25,2.0,0.128
27.28,-0.134,0.662,0.165
27.29,-0.184,0.842,0.028
27.3,-0.448,0.552,-0.197
27.31,0.0,1.25,0.154
27.32,-0.322,1.35,0.073
27.33,0.027,0.471,-0.101
27.34,-0.553,0.854,-0.149
27.35,-0.021,1.164,0.159
27.36,-0.214,1.26,0.069
27.37,-0.14,0.708,-0.098
27.38,-0.433,0.443,-0.135
27.39,-0.152,1.412,0.143
27.4,-0.076,0.894,-0.02
27.41,-0.25,0.952,-0.122
27.42,-0.292,0.244,-0.159
27.43,-0.184,1.343,0.156
27.44,-0.185,0.908,-0.018
27.45,-0.219,0.706,-0.135
27.46,-0.386,0.724,-0.137
27.47,-0.004,0.955,0.185
27.48,-0.296,1.328,-0.022
27.49,-0.18,0.319,-0.153
27.5,-0.43,1.09,-0.053
27.51,-0.012,0.878,0.155
27.52,-0.287,1.268,0.01
27.53,-0.259,0.423,-0.175
27.54,-0.256,1.446,-0.057
27.55,0.026,0.953,0.146
27.56,-0.184,0.83,-0.008
27.57,-0.366,0.926,-0.167
27.58,-0.198,1.187,-0.034
27.59,-0.125,1.236,0.168
27.6,-0.002,0.568,-0.025
27.61,-0.476,1.014,-0.234
27.62,-0.131,1.372,-0.003
27.63,-0.136,0.986,0.121
27.64,-0.059,0.853,0.022
27.65,-0.437,0.619,-0.254
27.66,-0.244,1.922,0.08
27.67,-0.102,0.659,0.129
27.68,-0.208,1.036,0.079
27.69,-0.336,0.436,-0.212
27.7,-0.308,1.861,0.051
27.71,-0.011,0.827,0.15
27.72,-0.079,0.714,0.057
27.73,-0.484,0.854,-0.179
27.74,-0.104,1.458,0.048
27.75,-0.25,1.183,0.17
27.76,0.137,0.383,0.068
27.77,-0.447,1.044,-0.216
27.78,-0.042,1.585,0.088
27.79,-0.13,0.992,0.108
27.8,0.015,0.678,-0.008
27.81,-0.388,0.549,-0.219
27.82,-0.06,2.0,0.039
27.83,-0.012,0.684,0.113
27.84,-0.077,0.879,-0.029
27.85,-0.343,0.336,-0.241
27.86,-0.128,2.0,0.052
27.87,-0.027,0.796,0.108
27.88,-0.082,0.597,-0.046
27.89,-0.37,0.719,-0.256
27.9,-0.026,1.699,0.09
27.91,-0.099,1.215,0.061
27.92,0.037,0.278,-0.054
27.93,-0.468,1.073,-0.25
27.94,-0.032,1.465,0.094
27.95,-0.14,1.139,0.069
27.96,0.042,0.6,-0.054
27.97,-0.449,0.617,-0.181
27.98,-0.147,1.789,0.14
27.99,-0.093,0.796,0.124
28.0,-0.137,0.95,-0.059
28.01,-0.448,0.208,-0.131
28.02,-0.167,1.897,0.199
28.03,-0.134,0.892,0.121
28.04,-0.116,0.721,-0.018
28.05,-0.507,0.61,-0.179
28.06,-0.069,1.398,0.231
28.07,-0.256,1.321,0.161
28.08,-0.051,0.397,-0.032
28.09,-0.598,0.934,-0.159
28.1,-0.029,1.283,0.162
28.11,-0.356,1.266,0.139
28.12,-0.03,0.658,-0.047
28.13,-0.502,0.541,-0.182
28.14,-0.118,1.491,0.207
28.15,-0.122,0.924,0.085
28.16,-0.258,0.955,-0.095
28.17,-0.419,0.157,-0.167
28.18,-0.167,1.608,0.185
28.19,-0.145,0.889,0.096
28.2,-0.184,0.833,-0.093
28.21,-0.382,0.543,-0.236
28.22,-0.08,1.127,0.168
28.23,-0.245,1.316,0.061
28.24,-0.056,0.427,-0.137
28.25,-0.498,0.86,-0.177
28.26,0.041,1.028,0.14
28.27,-0.209,1.261,0.042
28.28,-0.149,0.546,-0.12
28.29,-0.532,0.614,-0.154
28.3,-0.125,1.25,0.186
28.31,-0.143,1.003,0.057
28.32,-0.257,0.69,-0.103
28.33,-0.476,0.519,-0.042
28.34,-0.123,1.315,0.19
28.35,-0.237,0.744,0.075
28.36,-0.287,1.015,-0.102
28.37,-0.407,0.583,-0.112
28.38,-0.082,1.281,0.171
28.39,-0.249,0.935,0.033
28.4,-0.233,0.621,-0.158
28.41,-0.385,1.084,-0.068
28.42,-0.028,0.82,0.163
28.43,-0.282,1.349,0.077
28.44,-0.169,0.249,-0.136
28.45,-0.259,1.375,-0.132
28.46,-0.006,0.827,0.136
28.47,-0.144,1.072,0.052
28.48,-0.367,0.69,-0.162
28.49,-0.285,0.914,-0.06
28.5,-0.171,1.231,0.148
28.51,-0.143,0.718,0.074
28.52,-0.38,0.99,-0.173
28.53,-0.251,0.849,-0.069
28.54,-0.184,1.137,0.2
28.55,-0.225,0.949,0.001
28.56,-0.314,0.653,-0.136
28.57,-0.202,1.515,-0.056
28.58,-0.027,0.806,0.13
28.59,-0.211,1.172,0.04
28.6,-0.301,0.438,-0.187
28.61,-0.323,1.643,0.002
28.62,-0.085,0.701,0.146
28.63,-0.24,1.018,0.071
28.64,-0.354,0.751,-0.181
28.65,-0.278,1.327,-0.003
28.66,-0.125,1.095,0.15
28.67,-0.016,0.6,0.005
28.68,-0.375,1.041,-0.224
28.69,-0.2,1.298,0.023
28.7,-0.089,1.139,0.121
28.71,-0.093,0.644,0.084
28.72,-0.455,0.806,-0.15
28.73,-0.298,1.727,0.096
28.74,-0.159,0.752,0.168
28.75,-0.196,0.939,0.029
28.76,-0.346,0.39,-0.227
28.77,-0.326,1.95,0.07
28.78,-0.072,0.717,0.218
28.79,-0.19,0.842,0.034
28.8,-0.367,0.623,-0.211
28.81,-0.243,1.627,0.033
28.82,-0.166,1.064,0.135
28.83,0.003,0.43,0.035
28.84,-0.512,1.024,-0.187
28.85,-0.106,1.436,0.093
28.86,-0.229,1.109,0.161
28.87,-0.015,0.509,0.031
28.88,-0.474,0.863,-0.181
28.89,-0.079,1.873,0.068
28.9,-0.173,0.765,0.164
28.91,-0.055,0.873,-0.006
28.92,-0.441,0.325,-0.202
28.93,-0.139,2.0,0.149
28.94,-0.13,0.651,0.143
28.95,-0.052,0.855,0.009
28.96,-0.331,0.514,-0.264
28.97,-0.079,1.755,0.098
28.98,-0.034,1.088,0.103
28.99,-0.008,0.345,-0.051
29.0,-0.48,1.008,-0.201
29.01,0.028,1.63,0.078
29.02,-0.172,1.253,0.116
29.03,0.073,0.37,-0.029
29.04,-0.538,0.886,-0.2
29.05,-0.02,1.864,0.015
29.06,-0.099,0.899,0.086
29.07,-0.031,0.771,-0.041
29.08,-0.388,0.36,-0.215
29.09,-0.209,2.0,0.087
29.1,-0.077,0.702,0.113
29.11,-0.162,0.874,-0.021
29.12,-0.44,0.23,-0.135
29.13,-0.19,1.784,0.197
29.14,-0.197,0.976,0.13
29.15,-0.13,0.672,-0.051
29.16,-0.474,0.645,-0.181
29.17,-0.053,1.403,0.163
29.18,-0.27,1.338,0.112
29.19,-0.049,0.379,-0.026
29.2,-0.557,0.967,-0.183
29.21,-0.054,1.27,0.184
29.22,-0.253,1.245,0.124
29.23,-0.134,0.598,-0.054
29.24,-0.407,0.558,-0.19
29.25,-0.109,1.558,0.132
29.26,-0.101,0.889,0.117
29.27,-0.157,0.945,-0.091
29.28,-0.424,0.21,-0.18
29.29,-0.15,1.58,0.158
29.3,-0.136,0.879,0.037
29.31,-0.183,0.796,-0.058
29.32,-0.448,0.599,-0.191
29.33,-0.104,1.185,0.185
29.34,-0.153,1.285,0.049
29.35,-0.06,0.421,-0.134
29.36,-0.46,0.926,-0.198
29.37,-0.009,1.016,0.153
29.38,-0.235,1.322,0.051
29.39,-0.089,0.573,-0.034
29.4,-0.484,0.588,-0.158
29.41,-0.119,1.264,0.218
29.42,-0.07,0.859,0.025
29.43,-0.323,0.982,-0.116
29.44,-0.374,0.21,-0.186
29.45,-0.203,1.405,0.201
29.46,-0.127,0.931,0.004
29.47,-0.22,0.73,-0.12
29.48,-0.454,0.612,-0.165
29.49,-0.049,1.043,0.202
29.5,-0.262,1.196,-0.022
29.51,-0.106,0.432,-0.139
29.52,-0.538,0.983,-0.105
29.53,-0.069,0.842,0.203
29.54,-0.272,1.28,0.063
29.55,-0.213,0.446,-0.084
29.56,-0.502,0.733,-0.051
29.57,-0.069,1.149,0.176
29.58,-0.228,0.879,0.079
29.59,-0.28,0.888,-0.082
29.6,-0.451,0.455,-0.034
29.61,-0.195,1.334,0.253
29.62,-0.181,0.792,0.084
29.63,-0.339,0.85,-0.128
29.64,-0.369,0.758,-0.075
29.65,-0.062,1.029,0.156
29.66,-0.263,1.217,0.047
29.67,-0.172,0.423,-0.164
29.68,-0.429,1.261,-0.065
29.69,0.029,0.795,0.156
29.7,-0.308,1.299,0.097
29.71,-0.229,0.409,-0.176
29.72,-0.344,1.24,-0.04
29.73,-0.054,1.038,0.162
29.74,-0.199,0.804,0.051
29.75,-0.38,0.91,-0.158
29.76,-0.235,0.984,-0.055
29.77,-0.184,1.26,0.189
29.78,-0.135,0.665,0.051
29.79,-0.412,1.027,-0.165
29.8,-0.275,1.274,-0.066
29.81,-0.107,0.985,0.161
29.82,-0.118,1.029,-0.003
29.83,-0.298,0.545,-0.224
29.84,-0.245,1.791,-0.082
29.85,0.038,0.7,0.092
29.86,-0.158,1.129,0.019
29.87,-0.286,0.453,-0.212
29.88,-0.263,1.684,-0.048
29.89,-0.093,0.872,0.102
29.9,0.01,0.794,0.002
29.91,-0.416,0.921,-0.216
29.92,-0.171,1.28,0.02
29.93,-0.168,1.13,0.218
29.94,0.033,0.441,0.072
29.95,-0.492,1.062,-0.122
29.96,-0.17,1.423,0.104
29.97,-0.249,1.114,0.287
29.98,0.0,0.575,0.045
29.99,-0.492,0.839,-0.154
30.0,-0.2,1.811,0.097
30.01,-0.167,0.698,0.146
30.02,-0.064,0.969,0.045
30.03,-0.459,0.347,-0.2
30.04,-0.186,2.0,0.113
30.05,-0.044,0.763,0.169
30.06,-0.139,0.77,0.024
30.07,-0.296,0.542,-0.212
30.08,-0.146,1.758,0.092
30.09,-0.099,1.043,0.154
30.1,0.017,0.416,-0.017
30.11,-0.524,1.0,-0.189
30.12,0.009,1.675,0.104
30.13,-0.265,1.216,0.109
30.14,0.069,0.387,-0.002
30.15,-0.383,0.915,-0.217
30.16,-0.162,1.747,0.057
30.17,0.057,0.882,0.053
30.18,-0.111,0.77,-0.082
30.19,-0.225,0.287,-0.249
30.2,-0.116,2.0,0.004
30.21,-0.065,0.687,0.104
30.22,-0.135,0.827,-0.02
30.23,-0.405,0.508,-0.23
30.24,-0.072,1.928,0.098
30.25,-0.109,1.037,0.066
30.26,-0.023,0.277,-0.034
30.27,-0.413,1.072,-0.236
30.28,-0.147,1.44,0.059
30.29,-0.161,1.208,0.099
30.3,-0.003,0.455,-0.016
30.31,-0.439,0.832,-0.183
30.32,-0.136,1.652,0.129
30.33,-0.145,0.893,0.11
30.34,-0.095,0.835,-0.074
30.35,-0.451,0.39,-0.18
30.36,-0.211,2.0,0.184
30.37,-0.114,0.741,0.115
30.38,-0.162,0.751,-0.01
30.39,-0.478,0.437,-0.181
30.4,-0.167,1.702,0.147
30.41,-0.152,1.01,0.119
30.42,-0.109,0.438,-0.016
30.43,-0.506,0.978,-0.187
30.44,-0.1,1.398,0.176
30.45,-0.303,1.312,0.117
30.46,-0.058,0.397,-0.004
30.47,-0.44,0.899,-0.228
30.48,-0.102,1.561,0.105
30.49,-0.136,1.028,0.078
30.5,-0.123,0.773,-0.082
30.51,-0.423,0.374,-0.197
30.52,-0.203,1.943,0.131
30.53,-0.058,0.742,0.067
30.54,-0.175,0.888,-0.059
30.55,-0.412,0.359,-0.19
30.56,-0.169,1.789,0.145
30.57,-0.117,1.041,0.074
30.58,-0.034,0.503,-0.052
30.59,-0.573,0.902,-0.129
30.6,-0.013,1.379,0.207
30.61,-0.257,1.374,0.094
30.62,0.028,0.369,-0.022
30.63,-0.507,0.931,-0.176
30.64,-0.074,1.418,0.215
30.65,-0.207,1.052,0.09
30.66,0.005,0.802,-0.033
30.67,-0.495,0.346,-0.184
30.68,-0.17,1.853,0.183
30.69,-0.115,0.812,0.137
30.7,-0.227,0.894,-0.048
30.71,-0.31,0.284,-0.226
30.72,-0.172,1.61,0.123
30.73,-0.101,0.874,0.052
30.74,-0.204,0.822,-0.117
30.75,-0.425,0.466,-0.249
30.76,-0.018,1.27,0.162
30.77,-0.197,1.287,0.031
30.78,-0.05,0.393,-0.093
30.79,-0.471,0.913,-0.213
30.8,-0.032,1.078,0.168
30.81,-0.187,1.334,0.048
30.82,-0.096,0.542,-0.076
30.83,-0.545,0.623,-0.187
30.84,-0.06,1.355,0.159
30.85,-0.099,0.996,0.053
30.86,-0.186,0.869,-0.148
30.87,-0.462,0.216,-0.176
30.88,-0.137,1.594,0.157
30.89,-0.189,0.798,0.072
30.9,-0.153,0.937,-0.101
30.91,-0.433,0.44,-0.225
30.92,-0.079,1.178,0.204
30.93,-0.103,1.343,-0.006
30.94,-0.07,0.392,-0.129
30.95,-0.486,0.947,-0.209
30.96,0.059,0.985,0.148
30.97,-0.168,1.283,0.001
30.98,-0.018,0.496,-0.179
30.99,-0.449,0.723,-0.192
31.0,-0.033,1.227,0.148
31.01,-0.083,1.02,0.043
31.02,-0.248,0.829,-0.088
31.03,-0.385,0.246,-0.139
31.04,-0.196,1.409,0.205
31.05,-0.055,0.809,0.067
31.06,-0.304,0.865,-0.11
31.07,-0.358,0.42,-0.181
31.08,-0.111,1.158,0.179
31.09,-0.163,1.191,0.034
31.1,-0.121,0.446,-0.113
31.11,-0.485,0.938,-0.177
31.12,-0.044,0.871,0.261
31.13,-0.29,1.344,0.099
31.14,-0.187,0.365,-0.082
31.15,-0.486,0.832,-0.141
31.16,-0.124,1.072,0.165
31.17,-0.142,0.997,-0.026
31.18,-0.228,0.87,-0.102
31.19,-0.45,0.329,-0.123
31.2,-0.152,1.347,0.202
31.21,-0.125,0.741,0.052
31.22,-0.38,0.86,-0.102
31.23,-0.411,0.499,-0.08
31.24,-0.154,1.2,0.184
31.25,-0.251,1.015,0.032
31.26,-0.175,0.542,-0.121
31.27,-0.51,0.998,-0.151
31.28,0.044,0.884,0.198
31.29,-0.229,1.341,0.059
31.3,-0.203,0.299,-0.116
31.31,-0.514,0.949,-0.097
31.32,-0.002,1.062,0.13
31.33,-0.207,0.994,0.049
31.34,-0.224,0.78,-0.147
31.35,-0.441,0.442,-0.139
31.36,-0.101,1.35,0.151
31.37,-0.095,0.758,0.037
31.38,-0.256,0.91,-0.134
31.39,-0.399,0.526,-0.155
31.4,-0.101,1.214,0.172
31.41,-0.187,0.992,0.019
31.42,-0.176,0.499,-0.132
31.43,-0.447,1.027,-0.154
31.44,-0.037,0.831,0.178
31.45,-0.21,1.326,-0.001
31.46,-0.181,0.306,-0.175
31.47,-0.481,0.966,-0.087
31.48,0.005,0.93,0.122
31.49,-0.162,1.113,0.041
31.5,-0.26,0.655,-0.122
31.51,-0.406,0.565,-0.08
31.52,-0.102,1.343,0.172
31.53,-0.197,0.706,0.088
31.54,-0.314,1.042,-0.121
31.55,-0.301,0.787,-0.073
31.56,-0.107,1.231,0.174
31.57,-0.144,0.769,0.027
31.58,-0.311,0.846,-0.162
31.59,-0.337,0.989,-0.086
31.6,-0.059,0.971,0.176
31.61,-0.162,1.183,0.042
31.62,-0.26,0.355,-0.159
31.63,-0.347,1.416,-0.042
31.64,-0.042,0.787,0.19
31.65,-0.293,1.25,0.086
31.66,-0.248,0.456,-0.108
31.67,-0.354,1.261,-0.019
31.68,-0.099,1.041,0.207
31.69,-0.13,0.797,0.034
31.7,-0.386,0.973,-0.194
31.71,-0.237,0.927,-0.07
31.72,-0.121,1.238,0.157
31.73,-0.102,0.684,0.063
31.74,-0.348,0.944,-0.165
31.75,-0.216,1.251,-0.103
31.76,-0.051,1.006,0.185
31.77,-0.205,0.995,0.024
31.78,-0.264,0.587,-0.153
31.79,-0.365,1.718,-0.036
31.8,-0.003,0.699,0.193
31.81,-0.263,1.134,0.045
31.82,-0.263,0.531,-0.199
31.83,-0.328,1.482,-0.051
31.84,-0.033,0.955,0.158
31.85,-0.108,0.747,0.027
31.86,-0.289,1.007,-0.17
31.87,-0.304,1.133,-0.057
31.88,-0.174,1.199,0.195
31.89,-0.093,0.581,0.054
31.9,-0.427,0.963,-0.145
31.91,-0.18,1.271,-0.062
31.92,-0.142,0.945,0.132
31.93,-0.128,0.93,0.005
31.94,-0.246,0.583,-0.201
31.95,-0.367,1.744,-0.029
31.96,-0.013,0.671,0.103
31.97,-0.176,1.157,0.05
31.98,-0.258,0.456,-0.182
31.99,-0.325,1.541,0.02
32.0,-0.167,0.809,0.157
32.01,-0.128,0.784,0.021
32.02,-0.338,0.878,-0.167
32.03,-0.256,1.256,0.032
32.04,-0.119,1.191,0.21
32.05,-0.009,0.532,0.053
32.06,-0.429,1.088,-0.166
32.07,-0.233,1.437,0.096
32.08,-0.169,1.009,0.211
32.09,-0.132,0.777,0.048
32.1,-0.379,0.588,-0.21
32.11,-0.243,1.885,0.069
32.12,-0.005,0.671,0.075
32.13,-0.152,1.01,0.046
32.14,-0.27,0.398,-0.212
32.15,-0.318,1.928,0.125
32.16,-0.146,0.83,0.16
32.17,-0.023,0.635,0.051
32.18,-0.396,0.778,-0.226
32.19,-0.068,1.515,0.104
32.2,-0.18,1.133,0.111
32.21,0.04,0.381,-0.002
32.22,-0.449,1.065,-0.213
32.23,-0.04,1.57,0.075
32.24,-0.121,1.019,0.104
32.25,0.011,0.606,-0.024
32.26,-0.425,0.594,-0.16
32.27,-0.05,2.0,0.056
32.28,-0.048,0.717,0.123
32.29,-0.108,0.886,-0.021
32.3,-0.404,0.29,-0.205
32.31,-0.037,2.0,0.098
32.32,-0.094,0.801,0.1
32.33,-0.033,0.587,-0.039
32.34,-0.443,0.448,-0.193
32.35,-0.023,1.896,0.12
32.36,-0.129,1.05,0.074
32.37,0.046,0.457,-0.094
32.38,-0.496,0.967,-0.21
32.39,-0.059,1.35,0.193
32.4,-0.209,1.374,0.079
32.41,0.008,0.398,-0.045
32.42,-0.472,0.856,-0.179
32.43,-0.106,1.397,0.197
32.44,-0.189,0.975,0.123
32.45,-0.123,0.938,-0.077
32.46,-0.446,0.245,-0.144
32.47,-0.188,1.68,0.182
32.48,-0.173,0.821,0.151
32.49,-0.157,0.915,-0.089
32.5,-0.44,0.346,-0.188
32.51,-0.142,1.382,0.193
32.52,-0.181,1.067,0.069
32.53,-0.141,0.562,-0.125
32.54,-0.452,0.855,-0.155
32.55,-0.111,0.933,0.211
32.56,-0.269,1.408,0.05
32.57,-0.062,0.423,-0.108
32.58,-0.425,0.829,-0.162
32.59,-0.036,1.082,0.166
32.6,-0.174,1.139,0.079
32.61,-0.201,0.81,-0.116
32.62,-0.505,0.34,-0.075
32.63,-0.165,1.402,0.201
32.64,-0.283,0.846,0.101
32.65,-0.259,0.897,-0.072
32.66,-0.513,0.401,-0.095
32.67,-0.12,1.252,0.206
32.68,-0.244,1.015,0.057
32.69,-0.229,0.616,-0.107
32.7,-0.438,0.911,-0.12
32.71,0.001,0.854,0.209
32.72,-0.23,1.397,0.023
32.73,-0.229,0.294,-0.108
32.74,-0.483,1.056,-0.054
32.75,-0.0,0.915,0.179
32.76,-0.254,1.148,0.077
32.77,-0.245,0.641,-0.128
32.78,-0.321,0.891,-0.049
32.79,-0.098,1.245,0.177
32.8,-0.153,0.672,0.054
32.81,-0.353,1.073,-0.165
32.82,-0.32,0.861,-0.074
32.83,-0.113,1.144,0.148
32.84,-0.207,0.948,0.019
32.85,-0.27,0.682,-0.214
32.86,-0.301,1.485,-0.087
32.87,0.062,0.792,0.149
32.88,-0.275,1.226,0.047
32.89,-0.172,0.411,-0.219
32.9,-0.359,1.779,-0.074
32.91,0.04,0.81,0.125
32.92,-0.164,0.919,0.034
32.93,-0.271,0.796,-0.221
32.94,-0.266,1.345,-0.003
32.95,-0.134,1.086,0.126
32.96,-0.045,0.556,0.051
32.97,-0.435,1.078,-0.233
32.98,-0.155,1.249,-0.006
32.99,-0.171,1.08,0.101
33.0,-0.044,0.69,0.05
33.01,-0.442,0.821,-0.203
33.02,-0.221,1.74,0.04
33.03,-0.167,0.703,0.179
33.04,-0.104,0.997,0.07
33.05,-0.368,0.353,-0.204
33.06,-0.222,1.938,0.091
33.07,-0.078,0.71,0.067
33.08,-0.125,0.858,0.049
33.09,-0.342,0.692,-0.223
33.1,-0.236,1.539,0.107
33.11,-0.042,1.159,0.103
33.12,-0.01,0.407,0.071
33.13,-0.461,1.066,-0.169
33.14,0.013,1.549,0.052
33.15,-0.141,1.192,0.118
33.16,0.131,0.395,-0.039
33.17,-0.496,0.994,-0.252
33.18,0.013,1.739,0.051
33.19,-0.127,1.033,0.108
33.2,0.07,0.634,-0.03
33.21,-0.457,0.573,-0.209
33.22,-0.106,2.0,0.029
33.23,-0.042,0.687,0.091
33.24,-0.079,0.871,-0.032
33.25,-0.441,0.35,-0.181
33.26,-0.179,1.946,0.136
33.27,-0.158,0.849,0.128
33.28,-0.035,0.618,-0.026
33.29,-0.491,0.837,-0.218
33.3,-0.008,1.462,0.137
33.31,-0.212,1.301,0.057
33.32,0.094,0.315,-0.022
33.33,-0.483,1.008,-0.214
33.34,-0.024,1.394,0.166
33.35,-0.22,1.116,0.084
33.36,-0.067,0.674,-0.081
33.37,-0.422,0.506,-0.153
33.38,-0.164,1.928,0.191
33.39,-0.086,0.824,0.164
33.4,-0.163,0.894,-0.052
33.41,-0.411,0.299,-0.174
33.42,-0.153,1.874,0.16
33.43,-0.14,0.941,0.109
33.44,-0.104,0.626,-0.049
33.45,-0.406,0.687,-0.232
33.46,-0.102,1.38,0.165
33.47,-0.273,1.32,0.115
33.48,-0.077,0.38,-0.05
33.49,-0.47,1.001,-0.174
33.5,-0.092,1.304,0.149
33.51,-0.24,1.232,0.161
33.52,-0.087,0.622,-0.09
33.53,-0.508,0.532,-0.123
33.54,-0.097,1.646,0.209
33.55,-0.191,0.913,0.169
33.56,-0.134,0.984,-0.066
33.57,-0.481,0.229,-0.184
33.58,-0.12,1.645,0.186
33.59,-0.263,0.955,0.174
33.6,-0.142,0.772,-0.048
33.61,-0.444,0.563,-0.227
33.62,-0.087,1.263,0.187
33.63,-0.222,1.302,0.07
33.64,-0.04,0.414,-0.099
33.65,-0.534,0.962,-0.161
33.66,-0.043,1.076,0.132
33.67,-0.243,1.336,0.111
33.68,-0.076,0.538,-0.115
33.69,-0.501,0.626,-0.153
33.7,-0.133,1.375,0.162
33.71,-0.093,0.832,0.051
33.72,-0.195,1.0,-0.071
33.73,-0.44,0.215,-0.147
33.74,-0.191,1.454,0.166
33.75,-0.153,0.79,0.078
33.76,-0.234,0.79,-0.137
33.77,-0.484,0.574,-0.167
33.78,-0.135,1.015,0.221
33.79,-0.224,1.311,0.032
33.8,-0.053,0.357,-0.13
33.81,-0.512,0.997,-0.149
33.82,0.093,0.913,0.151
33.83,-0.26,1.261,0.008
33.84,-0.137,0.498,-0.164
33.85,-0.477,0.687,-0.095
33.86,-0.14,1.154,0.209
33.87,-0.142,0.879,0.036
33.88,-0.326,0.878,-0.125
33.89,-0.412,0.42,-0.129
33.9,-0.118,1.393,0.186
33.91,-0.259,0.75,0.086
33.92,-0.281,0.894,-0.09
33.93,-0.479,0.758,-0.112
33.94,-0.07,1.201,0.166
33.95,-0.251,0.91,0.086
33.96,-0.289,0.639,-0.16
33.97,-0.419,1.205,-0.081
33.98,-0.052,0.78,0.15
33.99,-0.281,1.315,0.028
34.0,-0.124,0.31,-0.185
34.01,-0.32,1.546,-0.124
34.02,0.037,0.841,0.157
34.03,-0.183,0.994,0.041
34.04,-0.257,0.727,-0.21
34.05,-0.29,1.207,-0.079
34.06,-0.118,1.165,0.168
34.07,-0.152,0.604,0.044
34.08,-0.406,1.077,-0.144
34.09,-0.321,1.167,-0.012
34.1,-0.067,1.123,0.185
34.11,-0.185,0.778,0.024
34.12,-0.296,0.825,-0.21
34.13,-0.326,1.649,-0.002
34.14,-0.02,0.771,0.141
34.15,-0.234,1.062,0.076
34.16,-0.273,0.502,-0.145
34.17,-0.428,1.875,0.035
34.18,-0.031,0.725,0.117
34.19,-0.194,0.935,0.071
34.2,-0.336,0.733,-0.204
34.21,-0.284,1.499,0.019
34.22,-0.088,1.025,0.119
34.23,0.044,0.589,-0.004
34.24,-0.444,1.09,-0.216
34.25,-0.145,1.317,0.015
34.26,-0.198,1.051,0.114
34.27,-0.009,0.666,0.085
34.28,-0.434,0.802,-0.215
34.29,-0.231,1.694,0.068
34.3,-0.124,0.767,0.12
34.31,-0.131,0.931,0.062
34.32,-0.3,0.416,-0.195
34.33,-0.369,1.968,0.125
34.34,-0.081,0.714,0.171
34.35,-0.172,0.866,0.083
34.36,-0.41,0.622,-0.163
34.37,-0.24,1.631,0.12
34.38,-0.166,1.031,0.152
34.39,-0.019,0.455,0.049
34.4,-0.502,1.028,-0.192
34.41,-0.09,1.394,0.099
34.42,-0.253,1.131,0.132
34.43,0.013,0.478,0.052
34.44,-0.474,0.876,-0.189
34.45,-0.117,1.82,0.095
34.46,-0.133,0.79,0.143
34.47,-0.036,0.876,0.021
34.48,-0.474,0.399,-0.148
34.49,-0.165,2.0,0.162
34.5,-0.105,0.678,0.14
34.51,-0.052,0.822,0.032
34.52,-0.333,0.564,-0.231
34.53,-0.097,1.827,0.101
34.54,-0.11,0.974,0.128
34.55,0.013,0.428,-0.053
34.56,-0.455,0.994,-0.237
34.57,0.013,1.438,0.076
34.58,-0.195,1.301,0.176
34.59,0.029,0.359,0.004
34.6,-0.492,0.89,-0.196
34.61,0.001,1.827,0.117
34.62,-0.088,0.91,0.084
34.63,-0.063,0.774,-0.036
34.64,-0.335,0.457,-0.195
34.65,-0.162,2.0,0.078
34.66,-0.015,0.727,0.077
34.67,-0.113,0.79,-0.051
34.68,-0.409,0.424,-0.206
34.69,-0.109,1.765,0.095
34.7,-0.082,1.013,0.061
34.71,-0.042,0.436,-0.062
34.72,-0.483,0.946,-0.235
34.73,0.003,1.474,0.162
34.74,-0.28,1.27,0.1
34.75,-0.027,0.385,-0.042
34.76,-0.565,1.023,-0.136
34.77,-0.138,1.213,0.223
34.78,-0.265,1.239,0.17
34.79,-0.109,0.57,-0.019
34.8,-0.429,0.613,-0.124
34.81,-0.197,1.523,0.159
34.82,-0.063,0.788,0.053
34.83,-0.232,1.015,-0.122
34.84,-0.321,0.191,-0.176
34.85,-0.215,1.551,0.161
34.86,-0.126,0.916,0.114
34.87,-0.133,0.768,-0.093
34.88,-0.375,0.557,-0.198
34.89,-0.075,1.206,0.171
34.9,-0.198,1.202,-0.007
34.91,-0.026,0.457,-0.168
34.92,-0.525,0.968,-0.212
34.93,0.041,1.025,0.158
34.94,-0.286,1.258,0.11
34.95,-0.143,0.57,-0.059
34.96,-0.471,0.62,-0.19
34.97,-0.068,1.31,0.184
34.98,-0.125,0.902,0.022
34.99,-0.231,0.945,-0.07
35.0,-0.451,0.196,-0.168
35.01,-0.162,1.49,0.218
35.02,-0.044,0.857,0.027
35.03,-0.199,0.849,-0.147
35.04,-0.392,0.468,-0.22
35.05,-0.057,1.149,0.156
35.06,-0.132,1.259,-0.012
35.07,-0.102,0.378,-0.145
35.08,-0.556,0.949,-0.211
35.09,-0.045,0.927,0.199
35.1,-0.206,1.381,0.056
35.11,-0.231,0.379,-0.113
35.12,-0.514,0.724,-0.091
35.13,-0.168,1.224,0.209
35.14,-0.08,0.919,0.106
35.15,-0.357,0.889,-0.127
35.16,-0.348,0.254,-0.14
35.17,-0.27,1.37,0.232
35.18,-0.168,0.832,0.094
35.19,-0.345,0.842,-0.071
35.2,-0.511,0.487,-0.108
35.21,-0.162,1.092,0.217
35.22,-0.17,1.156,0.029
35.23,-0.178,0.422,-0.133
35.24,-0.535,0.995,-0.086
35.25,-0.036,0.875,0.222
35.26,-0.253,1.323,0.057
35.27,-0.211,0.376,-0.179
35.28,-0.529,0.829,-0.063
35.29,-0.07,1.113,0.18
35.3,-0.141,0.919,0.034
35.31,-0.361,0.849,-0.129
35.32,-0.429,0.374,-0.085
35.33,-0.17,1.372,0.215
35.34,-0.203,0.793,0.093
35.35,-0.278,0.837,-0.079
35.36,-0.472,0.736,-0.079
35.37,-0.073,1.191,0.245
35.38,-0.228,1.063,0.017
35.39,-0.255,0.5,-0.089
35.4,-0.499,1.157,-0.03
35.41,0.033,0.871,0.164
35.42,-0.357,1.325,0.08
35.43,-0.168,0.405,-0.183
35.44,-0.52,0.971,-0.082
35.45,0.017,1.015,0.166
35.46,-0.223,1.004,0.03
35.47,-0.25,0.794,-0.176
35.48,-0.359,0.646,-0.107
35.49,-0.057,1.327,0.181
35.5,-0.142,0.753,0.066
35.51,-0.266,0.905,-0.169
35.52,-0.241,1.055,-0.126
35.53,-0.003,1.181,0.162
35.54,-0.199,0.906,-0.029
35.55,-0.379,0.935,-0.155
35.56,-0.257,1.487,-0.104
35.57,-0.102,0.789,0.114
35.58,-0.152,1.126,0.022
35.59,-0.314,0.48,-0.222
35.6,-0.383,1.805,-0.009
35.61,-0.06,0.699,0.19
35.62,-0.257,1.027,0.083
35.63,-0.312,0.608,-0.194
35.64,-0.295,1.526,0.026
35.65,-0.434,0.705,-0.14
35.66,-0.081,0.89,0.17
35.67,-0.303,1.079,0.023
35.68,-0.178,0.751,-0.151
35.69,-0.449,0.691,-0.035
35.7,-0.075,1.267,0.183
35.71,-0.149,0.744,0.02
35.72,-0.355,0.967,-0.119
35.73,-0.246,0.818,-0.066
35.74,-0.093,1.213,0.147
35.75,-0.207,0.844,0.068
35.76,-0.319,0.708,-0.146
35.77,-0.336,1.446,-0.082
35.78,-0.009,0.826,0.163
35.79,-0.248,1.211,0.053
35.8,-0.214,0.399,-0.234
35.81,-0.298,1.514,-0.08
35.82,0.008,0.805,0.172
35.83,-0.226,1.047,0.068
35.84,-0.247,0.693,-0.198
35.85,-0.296,1.157,-0.066
35.86,-0.081,1.194,0.169
35.87,-0.087,0.647,0.013
35.88,-0.381,1.061,-0.191
35.89,-0.189,1.074,-0.132
35.9,-0.04,1.185,0.104
35.91,-0.093,0.786,0.017
35.92,-0.335,0.84,-0.2
35.93,-0.279,1.524,-0.07
35.94,-0.007,0.828,0.167
35.95,-0.232,1.153,0.033
35.96,-0.254,0.415,-0.195
35.97,-0.354,1.824,-0.034
35.98,0.014,0.775,0.151
35.99,-0.187,0.981,0.076
36.0,-0.302,0.757,-0.204
36.01,-0.317,1.407,-0.004
36.02,-0.086,1.113,0.136
36.03,-0.073,0.556,0.063
36.04,-0.462,1.101,-0.179
36.05,-0.241,1.23,-0.0
36.06,-0.157,1.158,0.178
36.07,-0.127,0.609,0.041
36.08,-0.427,0.919,-0.149
36.09,-0.275,1.647,-0.004
36.1,-0.037,0.791,0.108
36.11,-0.123,1.033,0.075
36.12,-0.352,0.473,-0.216
36.13,-0.354,1.901,0.037
36.14,-0.078,0.715,0.168
36.15,-0.187,0.969,0.085
36.16,-0.325,0.572,-0.2
36.17,-0.288,1.624,0.044
36.18,-0.094,1.068,0.157
36.19,0.007,0.496,0.081
36.2,-0.444,1.071,-0.165
36.21,-0.218,1.327,0.068
36.22,-0.194,1.175,0.184
36.23,-0.012,0.534,0.083
36.24,-0.483,0.952,-0.206
36.25,-0.277,1.607,0.102
36.26,-0.13,0.765,0.15
36.27,-0.135,0.959,0.096
36.28,-0.296,0.441,-0.203
36.29,-0.119,1.916,0.096
36.3,-0.054,0.726,0.184
36.31,-0.104,0.938,0.043
36.32,-0.36,0.345,-0.212
36.33,-0.092,1.934,0.079
36.34,-0.097,0.776,0.136
36.35,-0.028,0.688,-0.016
36.36,-0.388,0.793,-0.241
36.37,-0.056,1.556,0.063
36.38,-0.245,1.083,0.156
36.39,0.189,0.417,0.027
36.4,-0.511,1.091,-0.219
36.41,-0.042,1.499,0.058
36.42,-0.105,1.133,0.153
36.43,0.052,0.548,-0.015
36.44,-0.354,0.7,-0.179
36.45,-0.142,1.974,0.057
36.46,0.0,0.71,0.08
36.47,-0.129,0.901,0.02
36.48,-0.309,0.351,-0.199
36.49,-0.177,2.0,0.127
36.5,-0.094,0.707,0.145
36.51,-0.032,0.713,0.011
36.52,-0.426,0.731,-0.271
36.53,-0.041,1.649,0.117
36.54,-0.149,1.206,0.153
36.55,0.084,0.292,0.006
36.56,-0.493,1.094,-0.193
36.57,-0.032,1.558,0.087
36.58,-0.16,1.121,0.151
36.59,0.022,0.552,0.048
36.6,-0.505,0.729,-0.161
36.61,-0.074,2.0,0.104
36.62,-0.156,0.736,0.164
36.63,-0.047,0.837,0.038
36.64,-0.393,0.401,-0.218
36.65,-0.149,2.0,0.093
36.66,-0.087,0.751,0.13
36.67,-0.084,0.69,-0.015
36.68,-0.427,0.613,-0.205
36.69,-0.093,1.728,0.102
36.7,-0.128,1.092,0.148
36.71,0.014,0.302,-0.038
36.72,-0.509,1.083,-0.192
36.73,0.011,1.625,0.102
36.74,-0.204,1.202,0.148
36.75,0.058,0.464,-0.002
36.76,-0.459,0.853,-0.225
36.77,-0.042,1.961,0.046
36.78,-0.04,0.811,0.104
36.79,-0.066,0.821,-0.03
36.8,-0.329,0.354,-0.224
36.81,-0.253,2.0,0.075
36.82,0.009,0.725,0.097
36.83,-0.153,0.767,-0.039
36.84,-0.349,0.561,-0.255
36.85,-0.111,1.68,0.046
36.86,-0.115,1.129,0.09
36.87,0.036,0.342,-0.069
36.88,-0.547,1.062,-0.244
36.89,0.031,1.575,0.124
36.9,-0.258,1.256,0.114
36.91,0.03,0.436,0.006
36.92,-0.403,0.849,-0.249
36.93,-0.093,1.785,0.104
36.94,-0.071,0.921,0.051
36.95,-0.067,0.757,-0.044
36.96,-0.375,0.381,-0.217
36.97,-0.23,2.0,0.125
36.98,-0.138,0.68,0.092
36.99,-0.098,0.84,0.015
37.0,-0.354,0.486,-0.255
37.01,-0.068,1.666,0.067
37.02,-0.158,1.093,0.076
37.03,0.015,0.378,-0.106
37.04,-0.427,1.002,-0.165
37.05,0.051,1.578,0.135
37.06,-0.236,1.241,0.118
37.07,0.088,0.401,-0.023
37.08,-0.545,0.924,-0.2
37.09,-0.027,1.411,0.216
37.1,-0.187,1.281,0.092
37.11,-0.066,0.533,-0.053
37.12,-0.446,0.563,-0.159
37.13,-0.219,1.662,0.192
37.14,-0.168,0.776,0.184
37.15,-0.242,0.988,-0.036
37.16,-0.443,0.2,-0.162
37.17,-0.237,1.801,0.206
37.18,-0.135,0.967,0.154
37.19,-0.144,0.698,-0.046
37.2,-0.538,0.672,-0.218
37.21,-0.056,1.388,0.148
37.22,-0.268,1.362,0.131
37.23,-0.072,0.341,-0.05
37.24,-0.579,0.96,-0.157
37.25,-0.03,1.303,0.169
37.26,-0.256,1.177,0.122
37.27,-0.019,0.723,-0.027
37.28,-0.565,0.523,-0.183
37.29,-0.036,1.733,0.234
37.3,-0.173,0.998,0.15
37.31,-0.177,0.84,-0.07
37.32,-0.449,0.268,-0.19
37.33,-0.167,1.838,0.163
37.34,-0.16,0.905,0.12
37.35,-0.164,0.757,-0.073
37.36,-0.491,0.542,-0.183
37.37,-0.08,1.385,0.205
37.38,-0.249,1.217,0.142
37.39,-0.022,0.428,-0.058
37.4,-0.597,0.98,-0.186
37.41,-0.018,1.306,0.247
37.42,-0.305,1.304,0.096
37.43,-0.027,0.531,-0.045
37.44,-0.495,0.719,-0.134
37.45,-0.122,1.524,0.181
37.46,-0.153,0.866,0.181
37.47,-0.214,0.951,-0.063
37.48,-0.411,0.195,-0.185
37.49,-0.236,1.722,0.163
37.5,-0.168,0.877,0.139
37.51,-0.229,0.843,-0.022
37.52,-0.531,0.5,-0.153
37.53,-0.069,1.542,0.175
37.54,-0.173,1.343,0.084
37.55,-0.046,0.389,-0.049
37.56,-0.558,1.004,-0.152
37.57,-0.036,1.3,0.173
37.58,-0.305,1.315,0.151
37.59,-0.021,0.484,-0.01
37.6,-0.546,0.71,-0.176
37.61,-0.059,1.535,0.124
37.62,-0.279,0.918,0.136
37.63,-0.133,0.963,-0.057
37.64,-0.444,0.177,-0.183
37.65,-0.13,1.849,0.156
37.66,-0.111,0.915,0.085
37.67,-0.154,0.806,-0.131
37.68,-0.386,0.414,-0.219
37.69,-0.075,1.553,0.113
37.7,-0.216,1.167,0.089
37.71,-0.003,0.472,-0.094
37.72,-0.545,0.947,-0.179
37.73,-0.021,1.224,0.178
37.74,-0.271,1.323,0.084
37.75,-0.124,0.489,-0.057
37.76,-0.444,0.724,-0.206
37.77,-0.117,1.448,0.194
37.78,-0.147,1.005,0.121
37.79,-0.204,0.919,-0.048
37.8,-0.521,0.255,-0.126
37.81,-0.142,1.759,0.225
37.82,-0.142,0.886,0.15
37.83,-0.172,0.907,-0.107
37.84,-0.463,0.382,-0.187
37.85,-0.108,1.434,0.183
37.86,-0.217,1.198,0.061
37.87,-0.106,0.493,-0.046
37.88,-0.544,0.91,-0.182
37.89,-0.017,1.055,0.156
37.9,-0.209,1.373,0.086
37.91,-0.002,0.418,-0.141
37.92,-0.601,1.031,-0.169
37.93,0.025,1.009,0.158
37.94,-0.33,1.269,0.151
37.95,-0.114,0.645,-0.136
37.96,-0.539,0.566,-0.127
37.97,-0.087,1.378,0.166
37.98,-0.081,0.862,0.046
37.99,-0.258,0.99,-0.166
38.0,-0.355,0.25,-0.152
38.01,-0.223,1.331,0.189
38.02,-0.117,0.98,0.085
38.03,-0.288,0.709,-0.115
38.04,-0.439,0.663,-0.156
38.05,-0.04,1.067,0.174
38.06,-0.228,1.23,0.079
38.07,-0.082,0.432,-0.115
38.08,-0.589,1.028,-0.1
38.09,-0.037,0.882,0.191
38.1,-0.273,1.319,0.057
38.11,-0.147,0.463,-0.103
38.12,-0.491,0.71,-0.162
38.13,-0.054,1.289,0.211
38.14,-0.135,0.864,-0.02
38.15,-0.292,0.902,-0.182
38.16,-0.312,0.301,-0.159
38.17,-0.242,1.337,0.178
38.18,-0.066,0.878,0.074
38.19,-0.236,0.72,-0.095
38.2,-0.422,0.707,-0.165
38.21,-0.104,1.022,0.194
38.22,-0.195,1.269,-0.049
38.23,-0.15,0.31,-0.109
38.24,-0.463,1.113,-0.073
38.25,-0.1,0.84,0.187
38.26,-0.161,1.23,0.019
38.27,-0.31,0.49,-0.092
38.28,-0.467,0.677,-0.146
38.29,-0.09,1.139,0.14
38.3,-0.033,0.875,0.001
38.31,-0.333,0.836,-0.123
38.32,-0.405,0.396,-0.106
38.33,-0.178,1.355,0.219
38.34,-0.091,0.794,0.031
38.35,-0.384,0.774,-0.107
38.36,-0.363,0.783,-0.098
38.37,-0.145,1.084,0.194
38.38,-0.303,1.141,0.04
38.39,-0.226,0.442,-0.116
38.4,-0.518,1.211,-0.075
38.41,-0.038,0.833,0.19
38.42,-0.284,1.278,0.051
38.43,-0.232,0.362,-0.125
38.44,-0.357,1.069,-0.094
38.45,-0.1,1.104,0.17
38.46,-0.177,0.844,0.05
38.47,-0.399,0.907,-0.138
38.48,-0.327,0.572,-0.052
38.49,-0.209,1.313,0.156
38.5,-0.129,0.749,0.048
38.51,-0.355,0.892,-0.125
38.52,-0.278,0.832,-0.103
38.53,-0.103,1.049,0.166
38.54,-0.203,1.11,0.019
38.55,-0.209,0.471,-0.164
38.56,-0.318,1.445,-0.118
38.57,-0.007,0.778,0.194
38.58,-0.315,1.26,0.101
38.59,-0.236,0.385,-0.163
38.6,-0.325,1.282,-0.068
38.61,-0.061,0.968,0.156
38.62,-0.149,0.87,0.014
38.63,-0.363,0.864,-0.219
38.64,-0.162,0.927,-0.076
38.65,-0.131,1.262,0.142
38.66,-0.094,0.634,0.042
38.67,-0.392,1.011,-0.134
38.68,-0.308,1.081,-0.079
38.69,-0.121,1.09,0.178
38.7,-0.189,0.683,0.008
38.71,-0.366,0.835,-0.158
38.72,-0.32,1.531,-0.002
38.73,0.003,0.781,0.178
38.74,-0.237,1.077,0.06
38.75,-0.29,0.429,-0.246
38.76,-0.406,1.813,0.029
38.77,-0.039,0.719,0.201
38.78,-0.278,0.999,0.076
38.79,-0.442,0.585,-0.184
38.8,-0.349,1.535,0.061
38.81,-0.101,1.035,0.157
38.82,-0.057,0.566,0.039
38.83,-0.44,1.069,-0.216
38.84,-0.254,1.328,0.027
38.85,-0.135,1.116,0.162
38.86,-0.029,0.565,0.056
38.87,-0.498,0.857,-0.212
38.88,-0.24,1.622,0.023
38.89,-0.108,0.827,0.155
38.9,-0.095,0.918,0.031
38.91,-0.354,0.428,-0.216
38.92,-0.313,1.995,0.069
38.93,-0.109,0.682,0.187
38.94,-0.134,0.9,0.048
38.95,-0.438,0.5,-0.202
38.96,-0.227,1.69,0.093
38.97,-0.135,1.006,0.1
38.98,-0.022,0.464,0.021
38.99,-0.443,1.032,-0.222
39.0,-0.166,1.435,0.093
39.01,-0.24,1.06,0.114
39.02,0.045,0.506,0.059
39.03,-0.459,0.934,-0.214
39.04,-0.035,1.756,0.068
39.05,-0.122,0.936,0.158
39.06,-0.038,0.73,-0.007
39.07,-0.275,0.43,-0.235
39.08,-0.135,2.0,0.049
39.09,0.022,0.658,0.106
39.1,-0.125,0.872,-0.017
39.11,-0.385,0.43,-0.231
39.12,-0.101,1.912,0.072
39.13,-0.047,0.908,0.062
39.14,0.061,0.43,-0.075
39.15,-0.427,0.996,-0.243
39.16,0.001,1.572,0.037
39.17,-0.262,1.281,0.126
39.18,0.087,0.339,-0.04
39.19,-0.506,0.95,-0.216
39.2,0.009,1.687,0.081
39.21,-0.144,0.931,0.064
39.22,0.022,0.758,-0.041
39.23,-0.455,0.425,-0.158
39.24,-0.19,1.997,0.111
39.25,-0.137,0.712,0.091
39.26,-0.114,0.904,-0.03
39.27,-0.478,0.36,-0.168
39.28,-0.125,1.898,0.13
39.29,-0.223,0.957,0.101
39.3,-0.032,0.465,-0.026
39.31,-0.578,0.896,-0.196
39.32,-0.068,1.399,0.179
39.33,-0.368,1.312,0.148
39.34,0.048,0.375,-0.057
39.35,-0.543,0.934,-0.169
39.36,-0.069,1.487,0.16
39.37,-0.214,1.036,0.083
39.38,-0.024,0.773,-0.112
39.39,-0.558,0.406,-0.111
39.4,-0.142,1.837,0.165
39.41,-0.161,0.813,0.116
39.42,-0.129,0.927,-0.08
39.43,-0.398,0.28,-0.168
39.44,-0.101,1.642,0.183
39.45,-0.166,1.03,0.072
39.46,-0.062,0.608,-0.12
39.47,-0.487,0.781,-0.151
39.48,-0.081,1.277,0.176
39.49,-0.292,1.325,0.119
39.5,-0.08,0.458,-0.146
39.51,-0.471,0.953,-0.19
39.52,-0.024,0.955,0.179
39.53,-0.23,1.404,0.025
39.54,-0.059,0.458,-0.122
39.55,-0.439,0.752,-0.178
39.56,-0.051,1.223,0.157
39.57,-0.085,0.922,-0.029
39.58,-0.243,0.925,-0.143
39.59,-0.379,0.279,-0.146
39.6,-0.218,1.41,0.202
39.61,-0.148,0.789,0.064
39.62,-0.265,0.786,-0.128
39.63,-0.421,0.527,-0.175
39.64,-0.125,1.137,0.173
39.65,-0.241,1.175,-0.054
39.66,-0.085,0.423,-0.11
39.67,-0.527,0.989,-0.139
39.68,0.039,0.917,0.164
39.69,-0.262,1.234,-0.03
39.7,-0.217,0.46,-0.135
39.71,-0.373,0.817,-0.097
39.72,-0.158,1.036,0.178
39.73,-0.102,0.943,0.039
39.74,-0.359,0.783,-0.118
39.75,-0.413,0.483,-0.025
39.76,-0.172,1.395,0.226
39.77,-0.19,0.705,0.064
39.78,-0.355,0.838,-0.106
39.79,-0.375,0.799,-0.07
39.8,-0.073,1.163,0.138
39.81,-0.268,1.076,0.011
39.82,-0.248,0.436,-0.168
39.83,-0.394,1.302,-0.018
39.84,-0.042,0.813,0.194
39.85,-0.316,1.295,0.064
39.86,-0.24,0.344,-0.218
39.87,-0.392,1.161,-0.009
39.88,-0.112,0.986,0.141
39.89,-0.19,0.932,0.063
39.9,-0.326,0.793,-0.171
39.91,-0.26,0.882,-0.081
39.92,-0.104,1.313,0.146
39.93,-0.153,0.692,0.105
39.94,-0.419,0.947,-0.132
39.95,-0.275,1.058,-0.025
39.96,-0.144,1.099,0.122
39.97,-0.215,0.959,0.069
39.98,-0.309,0.493,-0.168
39.99,-0.309,1.515,-0.04
40.0,-0.079,0.718,0.147
40.01,-0.265,1.251,0.028
40.02,-0.275,0.291,-0.196
40.03,-0.224,1.52,-0.05
40.04,-0.052,0.867,0.149
40.05,-0.143,0.875,0.034
40.06,-0.371,0.835,-0.183
40.07,-0.215,1.11,0.001
40.08,-0.177,1.223,0.165
40.09,-0.088,0.563,0.033
40.1,-0.46,1.025,-0.177
40.11,-0.217,1.146,-0.011
40.12,-0.151,1.027,0.109
40.13,-0.129,0.875,-0.006
40.14,-0.351,0.617,-0.217
40.15,-0.219,1.735,0.013
40.16,-0.09,0.72,0.184
40.17,-0.146,1.154,0.07
40.18,-0.276,0.324,-0.232
40.19,-0.214,1.795,-0.007
40.2,-0.045,0.838,0.136
40.21,-0.149,0.778,0.045
40.22,-0.395,0.834,-0.172
40.23,-0.267,1.424,0.014
40.24,-0.128,1.123,0.167
40.25,0.027,0.536,0.035
40.26,-0.538,1.079,-0.189
40.27,-0.212,1.308,0.017
40.28,-0.155,1.005,0.122
40.29,-0.063,0.748,0.039
40.3,-0.493,0.976,-0.2
40.31,-0.047,1.771,0.039
40.32,-0.146,0.869,0.163
40.33,-0.052,0.814,0.008
40.34,-0.41,0.443,-0.181
40.35,-0.174,2.0,0.1
40.36,-0.087,0.634,0.146
40.37,-0.112,0.899,0.035
40.38,-0.411,0.433,-0.267
40.39,-0.101,1.865,0.085
40.4,-0.174,0.865,0.109
40.41,0.074,0.554,-0.004
40.42,-0.481,0.989,-0.226
40.43,-0.1,1.497,0.143
40.44,-0.186,1.185,0.13
40.45,0.103,0.416,0.025
40.46,-0.579,0.938,-0.197
40.47,0.045,1.793,0.085
40.48,-0.248,0.951,0.104
40.49,0.026,0.767,-0.017
40.5,-0.447,0.444,-0.188
40.51,-0.118,2.0,0.11
40.52,-0.189,0.638,0.133
40.53,0.008,0.89,-0.017
40.54,-0.5,0.341,-0.192
40.55,0.001,1.921,0.113
40.56,-0.219,0.968,0.073
40.57,0.018,0.407,-0.064
40.58,-0.49,0.912,-0.194
40.59,-0.032,1.604,0.142
40.6,-0.235,1.269,0.088
40.61,0.092,0.319,-0.018
40.62,-0.519,0.958,-0.217
40.63,-0.041,1.513,0.131
40.64,-0.16,1.097,0.095
40.65,-0.041,0.767,-0.035
40.66,-0.418,0.408,-0.12
40.67,-0.221,2.0,0.175
40.68,-0.11,0.76,0.139
40.69,-0.097,0.959,-0.069
40.7,-0.466,0.281,-0.134
40.71,-0.091,1.885,0.143
40.72,-0.154,0.974,0.096
40.73,-0.02,0.512,-0.074
40.74,-0.453,0.816,-0.22
40.75,-0.022,1.391,0.121
40.76,-0.321,1.346,0.084
40.77,0.024,0.401,-0.051
40.78,-0.452,0.969,-0.211
40.79,-0.057,1.371,0.148
40.8,-0.172,1.124,0.109
40.81,-0.121,0.721,-0.064
40.82,-0.454,0.407,-0.161
40.83,-0.203,1.735,0.18
40.84,-0.126,0.842,0.106
40.85,-0.316,0.973,-0.069
40.86,-0.317,0.217,-0.164
40.87,-0.223,1.702,0.177
40.88,-0.131,1.042,0.086
40.89,-0.183,0.679,-0.073
40.9,-0.362,0.709,-0.182
40.91,-0.082,1.226,0.206
40.92,-0.276,1.351,0.08
40.93,0.05,0.444,-0.119
40.94,-0.441,0.961,-0.197
40.95,0.003,1.108,0.158
40.96,-0.284,1.211,0.118
40.97,-0.094,0.725,-0.121
40.98,-0.436,0.465,-0.135
40.99,-0.093,1.421,0.172
41.0,-0.098,0.879,0.01
41.01,-0.267,0.984,-0.143
41.02,-0.352,0.258,-0.139
41.03,-0.114,1.394,0.15
41.04,-0.175,0.918,0.021
41.05,-0.122,0.736,-0.147
41.06,-0.428,0.703,-0.224
41.07,-0.034,0.999,0.185
41.08,-0.319,1.387,0.024
41.09,-0.152,0.293,-0.107
41.1,-0.533,0.967,-0.122
41.11,-0.043,0.86,0.224
41.12,-0.297,1.323,0.138
41.13,-0.247,0.369,-0.083
41.14,-0.359,0.978,-0.089
41.15,-0.017,1.004,0.117
41.16,-0.193,0.976,0.024
41.17,-0.289,0.734,-0.171
41.18,-0.277,0.728,-0.035
41.19,-0.122,1.319,0.187
41.2,-0.171,0.7,0.048
41.21,-0.316,0.921,-0.149
41.22,-0.314,1.043,-0.091
41.23,-0.082,1.13,0.153
41.24,-0.231,0.994,0.042
41.25,-0.293,0.513,-0.176
41.26,-0.284,1.447,-0.093
41.27,0.028,0.8,0.132
41.28,-0.247,1.231,-0.003
41.29,-0.207,0.408,-0.249
41.3,-0.193,1.527,-0.137
41.31,-0.021,0.864,0.124
41.32,-0.111,0.861,0.018
41.33,-0.365,0.812,-0.227
41.34,-0.252,1.146,-0.04
41.35,-0.087,1.215,0.143
41.36,-0.066,0.577,0.045
41.37,-0.375,1.091,-0.222
41.38,-0.217,1.206,-0.04
41.39,-0.103,1.098,0.138
41.4,-0.065,0.856,0.043
41.41,-0.302,0.717,-0.226
41.42,-0.323,1.719,-0.022
41.43,-0.006,0.731,0.142
41.44,-0.187,1.111,0.054
41.45,-0.285,0.436,-0.223
41.46,-0.31,1.753,-0.002
41.47,-0.013,0.847,0.12
41.48,-0.128,0.858,0.095
41.49,-0.376,0.856,-0.198
41.5,-0.282,1.34,0.026
41.51,-0.146,1.137,0.159
41.52,-0.044,0.562,0.075
41.53,-0.479,1.098,-0.209
41.54,-0.254,1.302,0.057
41.55,-0.134,1.032,0.108
41.56,-0.076,0.71,0.058
41.57,-0.414,0.727,-0.208
41.58,-0.247,1.814,0.03
41.59,-0.002,0.798,0.124
41.6,-0.135,0.969,0.076
41.61,-0.322,0.414,-0.227
41.62,-0.369,1.887,0.067
41.63,-0.011,0.786,0.141
41.64,-0.155,0.817,0.066
41.65,-0.382,0.778,-0.227
41.66,-0.209,1.512,0.017
41.67,-0.208,1.095,0.142
41.68,0.047,0.502,0.05
41.69,-0.479,1.074,-0.214
41.7,-0.182,1.354,0.067
41.71,-0.136,1.08,0.156
41.72,-0.098,0.64,0.042
41.73,-0.431,0.809,-0.129
41.74,-0.231,1.905,0.034
41.75,-0.014,0.756,0.172
41.76,-0.137,0.931,0.044
41.77,-0.304,0.399,-0.261
41.78,-0.29,1.961,0.105
41.79,-0.024,0.729,0.114
41.8,-0.115,0.842,0.077
41.81,-0.395,0.764,-0.244
41.82,-0.232,1.533,0.105
41.83,-0.208,1.088,0.18
41.84,0.029,0.421,0.07
41.85,-0.452,1.091,-0.224
41.86,-0.12,1.405,0.058
41.87,-0.126,1.209,0.148
41.88,-0.021,0.495,0.038
41.89,-0.457,0.798,-0.18
41.9,-0.169,1.807,0.12
41.91,-0.152,0.977,0.147
41.92,-0.042,0.701,0.013
41.93,-0.375,0.523,-0.204
41.94,-0.169,2.0,0.138
41.95,-0.014,0.701,0.133
41.96,-0.165,0.87,0.026
41.97,-0.383,0.416,-0.192
41.98,-0.153,1.994,0.108
41.99,-0.14,0.823,0.125
42.0,0.009,0.589,0.001
42.01,-0.457,0.901,-0.235
42.02,-0.062,1.521,0.111
42.03,-0.204,1.174,0.141
42.04,0.061,0.332,-0.029
42.05,-0.55,1.014,-0.155
42.06,-0.007,1.657,0.081
42.07,-0.239,0.997,0.157
42.08,0.032,0.698,0.012
42.09,-0.464,0.521,-0.199
42.1,-0.097,2.0,0.128
42.11,-0.039,0.681,0.032
42.12,-0.056,0.844,-0.02
42.13,-0.305,0.386,-0.251
42.14,-0.092,2.0,0.058
42.15,-0.069,0.856,0.157
42.16,-0.021,0.553,0.003
42.17,-0.425,0.805,-0.258
42.18,-0.032,1.619,0.127
42.19,-0.162,1.237,0.115
42.2,0.084,0.312,0.019
42.21,-0.516,1.084,-0.207
42.22,0.018,1.661,0.134
42.23,-0.242,1.034,0.093
42.24,0.093,0.677,-0.02
42.25,-0.436,0.559,-0.178
42.26,-0.035,1.989,0.083
42.27,-0.014,0.738,0.087
42.28,-0.049,0.846,-0.034
42.29,-0.323,0.322,-0.256
42.3,-0.042,2.0,0.068
42.31,-0.106,0.81,0.128
42.32,-0.063,0.655,-0.004
42.33,-0.417,0.797,-0.227
42.34,-0.041,1.69,0.135
42.35,-0.226,1.217,0.141
42.36,0.083,0.258,0.019
42.37,-0.463,1.087,-0.187
42.38,-0.063,1.484,0.13
42.39,-0.154,1.172,0.128
42.4,0.008,0.584,-0.069
42.41,-0.416,0.633,-0.186
42.42,-0.131,1.955,0.109
42.43,-0.127,0.768,0.084
42.44,-0.069,0.898,-0.043
42.45,-0.348,0.319,-0.209
42.46,-0.151,1.997,0.118
42.47,-0.079,0.879,0.074
42.48,-0.096,0.664,-0.043
42.49,-0.385,0.655,-0.244
42.5,-0.025,1.638,0.115
42.51,-0.148,1.251,0.05
42.52,0.068,0.396,-0.059
42.53,-0.454,0.999,-0.204
42.54,-0.007,1.572,0.187
42.55,-0.23,1.255,0.092
42.56,-0.009,0.537,-0.04
42.57,-0.417,0.707,-0.199
42.58,-0.048,1.847,0.114
42.59,-0.107,0.774,0.097
42.6,-0.093,0.919,-0.089
42.61,-0.389,0.219,-0.18
42.62,-0.118,1.839,0.133
42.63,-0.181,0.856,0.191
42.64,-0.12,0.808,-0.044
42.65,-0.42,0.529,-0.175
42.66,-0.081,1.535,0.192
42.67,-0.23,1.327,0.111
42.68,0.016,0.386,-0.052
42.69,-0.509,1.004,-0.21
42.7,-0.042,1.267,0.184
42.71,-0.246,1.375,0.032
42.72,-0.024,0.457,-0.092
42.73,-0.44,0.902,-0.177
42.74,-0.085,1.173,0.12
42.75,-0.228,1.088,0.095
42.76,-0.137,0.86,-0.084
42.77,-0.435,0.364,-0.146
42.78,-0.145,1.479,0.179
42.79,-0.126,0.845,0.037
42.8,-0.213,1.039,-0.087
42.81,-0.385,0.318,-0.14
42.82,-0.127,1.341,0.206
42.83,-0.126,1.036,-0.001
42.84,-0.161,0.612,-0.142
42.85,-0.305,0.85,-0.182
42.86,-0.057,0.959,0.163
42.87,-0.192,1.329,-0.017
42.88,-0.106,0.348,-0.141
42.89,-0.444,0.96,-0.123
42.9,0.004,0.982,0.187
42.91,-0.181,1.186,-0.0
42.92,-0.184,0.722,-0.15
42.93,-0.367,0.501,-0.103
42.94,-0.114,1.316,0.14
42.95,-0.129,0.802,-0.006
42.96,-0.323,0.87,-0.141
42.97,-0.421,0.418,-0.079
42.98,-0.191,1.212,0.184
42.99,-0.199,0.941,-0.018
43.0,-0.235,0.669,-0.147
43.01,-0.403,0.901,-0.108
43.02,-0.035,0.857,0.184
43.03,-0.204,1.32,0.007
43.04,-0.176,0.309,-0.134
43.05,-0.448,1.241,-0.041
43.06,0.015,0.888,0.156
43.07,-0.262,1.117,0.034
43.08,-0.249,0.591,-0.142
43.09,-0.27,1.006,-0.057
43.1,-0.162,1.21,0.224
43.11,-0.159,0.706,0.059
43.12,-0.381,1.052,-0.104
43.13,-0.303,0.948,-0.036
43.14,-0.065,1.174,0.161
43.15,-0.12,0.866,0.013
43.16,-0.332,0.789,-0.176
43.17,-0.312,1.459,-0.043
43.18,-0.064,0.82,0.201
43.19,-0.225,1.166,0.005
43.2,-0.167,0.376,-0.198
43.21,-0.364,1.797,-0.021
43.22,0.093,0.771,0.129
43.23,-0.158,0.976,0.002
43.24,-0.307,0.666,-0.2
43.25,-0.327,1.401,0.011
43.26,-0.107,1.042,0.094
43.27,-0.053,0.579,0.038
43.28,-0.498,1.01,-0.171
43.29,-0.193,1.161,0.061
43.3,-0.254,1.061,0.145
43.31,-0.136,0.638,0.056
43.32,-0.454,0.786,-0.15
43.33,-0.259,1.708,0.067
43.34,-0.109,0.739,0.183
43.35,-0.112,0.959,0.059
43.36,-0.367,0.394,-0.194
43.37,-0.281,2.0,0.13
43.38,-0.198,0.58,0.154
43.39,-0.09,0.94,0.042
43.4,-0.419,0.54,-0.203
43.41,-0.129,1.738,0.093
43.42,-0.206,0.999,0.11
43.43,0.052,0.437,0.025
43.44,-0.477,0.997,-0.193
43.45,-0.003,1.534,0.116
43.46,-0.129,1.19,0.102
43.47,0.052,0.44,0.019
43.48,-0.538,0.859,-0.189
43.49,-0.019,1.872,0.05
43.5,-0.21,0.82,0.122
43.51,-0.035,0.802,-0.007
43.52,-0.423,0.546,-0.126
43.53,-0.263,1.733,0.186
43.54,-0.039,0.698,0.02
43.55,-0.131,0.979,-0.105
43.56,-0.402,0.211,-0.106
43.57,-0.104,1.725,0.152
43.58,-0.177,0.97,0.112
43.59,-0.11,0.709,-0.127
43.6,-0.493,0.652,-0.137
43.61,-0.046,1.335,0.238
43.62,-0.312,1.376,0.114
43.63,0.05,0.382,-0.091
43.64,-0.48,0.914,-0.189
43.65,0.068,1.201,0.108
43.66,-0.326,1.199,0.027
43.67,-0.004,0.704,-0.118
43.68,-0.447,0.436,-0.168
43.69,-0.051,1.484,0.168
43.7,-0.08,0.866,0.011
43.71,-0.24,0.974,-0.135
43.72,-0.371,0.187,-0.143
43.73,-0.135,1.463,0.155
43.74,-0.213,0.95,0.005
43.75,-0.114,0.735,-0.144
43.76,-0.424,0.693,-0.217
43.77,0.005,1.005,0.203
43.78,-0.249,1.336,-0.015
43.79,-0.138,0.321,-0.168
43.8,-0.476,1.037,-0.099
43.81,-0.002,0.861,0.154
43.82,-0.328,1.239,0.008
43.83,-0.152,0.535,-0.122
43.84,-0.437,0.769,-0.089
43.85,-0.084,1.183,0.143
43.86,-0.142,0.764,0.007
43.87,-0.33,0.973,-0.134
43.88,-0.313,0.667,-0.029
43.89,-0.124,1.284,0.142
43.9,-0.194,0.812,0.019
43.91,-0.288,0.769,-0.156
43.92,-0.255,1.292,-0.101
43.93,-0.051,0.859,0.19
43.94,-0.266,1.181,0.025
43.95,-0.263,0.415,-0.198
43.96,-0.301,1.771,-0.061
43.97,-0.019,0.75,0.15
43.98,-0.179,1.064,0.019
43.99,-0.034,0.696,0.116
44.0,-0.205,1.018,0.062
44.01,-0.36,0.407,-0.206
44.02,-0.301,1.874,0.028
44.03,-0.057,0.748,0.131
44.04,-0.094,0.825,0.042
44.05,-0.444,0.819,-0.219
44.06,-0.174,1.468,0.087
44.07,-0.242,1.161,0.191
44.08,-0.008,0.384,0.077
44.09,-0.461,1.041,-0.156
44.1,-0.101,1.494,0.089
44.11,-0.174,1.093,0.145
44.12,-0.021,0.589,0.039
44.13,-0.449,0.662,-0.135
44.14,-0.136,1.985,0.109
44.15,-0.086,0.67,0.208
44.16,-0.091,0.923,0.049
44.17,-0.437,0.379,-0.152
44.18,-0.18,2.0,0.12
44.19,-0.077,0.779,0.138
44.2,-0.09,0.649,-0.018
44.21,-0.344,0.684,-0.251
44.22,-0.109,1.736,0.077
44.23,-0.072,1.046,0.038
44.24,-0.037,0.568,-0.092
44.25,-0.511,0.826,-0.181
44.26,-0.0,1.365,0.229
44.27,-0.278,1.419,0.131
44.28,-0.005,0.417,-0.045
44.29,-0.507,0.881,-0.17
44.3,-0.054,1.46,0.161
44.31,-0.271,1.082,0.122
44.32,-0.048,0.881,-0.052
44.33,-0.476,0.265,-0.122
44.34,-0.166,1.643,0.233
44.35,-0.145,0.814,0.128
44.36,-0.193,1.046,-0.071
44.37,-0.485,0.227,-0.15
44.38,-0.119,1.454,0.171
44.39,-0.33,1.123,0.067
44.4,-0.037,0.605,-0.041
44.41,-0.585,0.868,-0.131
44.42,0.016,0.948,0.202
44.43,-0.292,1.357,0.045
44.44,-0.114,0.389,-0.147
44.45,-0.506,0.923,-0.063
44.46,-0.062,0.992,0.183
44.47,-0.292,1.086,-0.014
44.48,-0.176,0.769,-0.105
44.49,-0.42,0.437,-0.122
44.5,-0.18,1.322,0.216
44.51,-0.206,0.764,0.031
44.52,-0.276,0.895,-0.105
44.53,-0.4,0.541,-0.082
44.54,-0.116,1.233,0.176
44.55,-0.256,0.993,0.064
44.56,-0.225,0.605,-0.181
44.57,-0.403,1.107,-0.041
44.58,-0.043,0.855,0.18
44.59,-0.306,1.281,0.064
44.6,-0.216,0.332,-0.147
44.61,-0.35,1.319,-0.066
44.62,-0.05,0.876,0.157
44.63,-0.267,1.082,0.047
44.64,-0.295,0.625,-0.154
44.65,-0.247,1.05,-0.085
44.66,-0.021,1.251,0.173
44.67,-0.117,0.639,0.02
44.68,-0.435,1.079,-0.177
44.69,-0.302,0.916,-0.052
44.7,-0.165,1.114,0.131
44.71,-0.221,0.904,-0.039
44.72,-0.31,0.679,-0.181
44.73,-0.23,1.559,-0.069
44.74,0.055,0.775,0.155
44.75,-0.239,1.117,0.012
44.76,-0.273,0.46,-0.19
44.77,-0.31,1.838,-0.011
44.78,-0.028,0.746,0.16
44.79,-0.177,0.891,0.058
44.8,-0.434,0.739,-0.231
44.81,-0.307,1.373,0.097
44.82,-0.167,1.04,0.165
44.83,-0.073,0.552,0.038
44.84,-0.464,1.055,-0.204
44.85,-0.139,1.356,0.071
44.86,-0.118,1.231,0.209
44.87,-0.001,0.477,0.044
44.88,-0.448,0.74,-0.197
44.89,-0.092,1.876,0.097
44.9,-0.168,0.721,0.133
44.91,-0.066,0.948,0.041
44.92,-0.426,0.379,-0.221
44.93,-0.191,2.0,0.118
44.94,-0.105,0.629,0.091
44.95,-0.047,0.805,0.018
44.96,-0.36,0.658,-0.245
44.97,-0.09,1.661,0.067
44.98,-0.077,1.07,0.067
44.99,0.062,0.378,-0.078
45.0,-0.452,1.0,-0.217
45.01,-0.063,1.515,0.127
45.02,-0.274,1.283,0.185
45.03,0.012,0.4,-0.017
45.04,-0.54,0.956,-0.192
45.05,-0.068,1.407,0.187
45.06,-0.212,1.164,0.111
45.07,-0.085,0.685,-0.103
45.08,-0.476,0.379,-0.125
45.09,-0.148,1.777,0.177
45.1,-0.173,0.803,0.124
45.11,-0.222,0.991,-0.053
45.12,-0.372,0.215,-0.189
45.13,-0.144,1.722,0.13
45.14,-0.146,1.015,0.054
45.15,-0.072,0.682,-0.084
45.16,-0.469,0.681,-0.201
45.17,0.013,1.213,0.182
45.18,-0.276,1.419,0.08
45.19,-0.05,0.399,-0.071
45.2,-0.456,0.889,-0.178
45.21,-0.009,1.155,0.153
45.22,-0.18,1.221,0.076
45.23,-0.116,0.748,-0.107
45.24,-0.391,0.456,-0.156
45.25,-0.152,1.392,0.152
45.26,-0.036,0.876,0.006
45.27,-0.221,0.959,-0.139
45.28,-0.328,0.304,-0.176
45.29,-0.174,1.322,0.185
45.3,-0.153,0.968,-0.012
45.31,-0.211,0.654,-0.129
45.32,-0.443,0.78,-0.181
45.33,-0.064,0.951,0.213
45.34,-0.289,1.272,-0.023
45.35,-0.141,0.341,-0.149
45.36,-0.51,1.022,-0.101
45.37,-0.049,0.901,0.219
45.38,-0.3,1.251,0.015
45.39,-0.195,0.542,-0.155
45.4,-0.412,0.685,-0.05
45.41,-0.115,1.238,0.16
45.42,-0.099,0.755,0.027
45.43,-0.385,0.91,-0.135
45.44,-0.339,0.641,-0.028
45.45,-0.15,1.293,0.161
45.46,-0.243,0.819,0.091
45.47,-0.3,0.705,-0.142
45.48,-0.365,1.165,-0.065
45.49,-0.046,0.875,0.185
45.5,-0.323,1.282,0.041
45.51,-0.202,0.309,-0.14
45.52,-0.326,1.604,-0.091
45.53,0.033,0.771,0.139
45.54,-0.216,1.124,0.018
45.55,-0.28,0.572,-0.217
45.56,-0.247,1.26,-0.065
45.57,-0.021,1.064,0.097
45.58,-0.101,0.702,-0.028
45.59,-0.354,1.051,-0.261
45.6,-0.187,1.085,0.012
45.61,-0.114,1.156,0.127
45.62,-0.088,0.647,0.037
45.63,-0.378,0.867,-0.224
45.64,-0.228,1.538,0.024
45.65,-0.168,0.758,0.16
45.66,-0.213,0.974,0.069
45.67,-0.337,0.356,-0.224
45.68,-0.322,1.971,0.067
45.69,-0.052,0.698,0.166
45.7,-0.149,0.941,0.032
45.71,-0.427,0.542,-0.19
45.72,-0.278,1.678,0.095
45.73,-0.201,0.947,0.152
45.74,-0.005,0.544,0.072
45.75,-0.569,1.046,-0.165
45.76,-0.188,1.362,0.075
45.77,-0.186,1.149,0.139
45.78,0.057,0.486,0.053
45.79,-0.478,0.901,-0.193
45.8,-0.05,1.718,0.051
45.81,-0.076,0.897,0.159
45.82,-0.079,0.801,-0.006
45.83,-0.431,0.565,-0.156
45.84,-0.061,2.0,0.075
45.85,-0.073,0.712,0.073
45.86,-0.103,0.931,-0.037
45.87,-0.321,0.332,-0.22
45.88,-0.136,2.0,0.096
45.89,-0.036,0.831,0.077
45.9,-0.073,0.554,-0.055
45.91,-0.383,0.672,-0.243
45.92,-0.063,1.581,0.129
45.93,-0.191,1.195,0.069
45.94,0.076,0.44,-0.083
45.95,-0.497,1.007,-0.204
45.96,0.046,1.509,0.196
45.97,-0.201,1.275,0.09
45.98,-0.056,0.541,-0.051
45.99,-0.438,0.633,-0.139
46.0,-0.143,1.713,0.113
46.01,-0.037,0.851,0.074
46.02,-0.17,0.954,-0.116
46.03,-0.318,0.168,-0.186
46.04,-0.18,1.722,0.166
46.05,-0.179,0.876,0.131
46.06,-0.153,0.864,-0.042
46.07,-0.447,0.546,-0.171
46.08,-0.031,1.438,0.18
46.09,-0.265,1.424,0.148
46.1,0.015,0.395,-0.088
46.11,-0.529,0.952,-0.182
46.12,-0.005,1.157,0.148
46.13,-0.251,1.257,0.037
46.14,-0.051,0.62,-0.097
46.15,-0.46,0.611,-0.146
46.16,-0.128,1.344,0.142
46.17,-0.078,0.892,-0.035
46.18,-0.247,0.956,-0.127
46.19,-0.381,0.228,-0.12
46.2,-0.198,1.401,0.162
46.21,-0.131,0.879,0.015
46.22,-0.214,0.81,-0.132
46.23,-0.495,0.613,-0.138
46.24,-0.069,1.048,0.238
46.25,-0.239,1.189,0.0
46.26,-0.156,0.384,-0.164
46.27,-0.439,1.032,-0.127
46.28,-0.004,0.863,0.157
46.29,-0.208,1.259,0.007
46.3,-0.187,0.462,-0.148
46.31,-0.416,0.866,-0.049
46.32,-0.073,1.127,0.147
46.33,-0.213,0.83,0.085
46.34,-0.28,0.937,-0.123
46.35,-0.344,0.732,-0.064
46.36,-0.11,1.296,0.172
46.37,-0.265,0.776,0.099
46.38,-0.349,0.861,-0.159
46.39,-0.337,1.048,-0.057
46.4,-0.0,0.989,0.119
46.41,-0.274,1.202,0.085
46.42,-0.239,0.363,-0.154
46.43,-0.374,1.557,-0.037
46.44,0.003,0.744,0.183
46.45,-0.27,1.213,0.023
46.46,-0.281,0.462,-0.206
46.47,-0.213,1.344,-0.086
46.48,-0.115,0.974,0.139
46.49,-0.031,0.813,-0.016
46.5,-0.415,0.912,-0.172
46.51,-0.099,1.086,-0.028
46.52,-0.168,1.254,0.138
46.53,-0.161,0.597,0.05
46.54,-0.409,0.964,-0.146
46.55,-0.332,1.459,0.065
46.56,-0.161,0.899,0.197
46.57,-0.134,0.902,0.025
46.58,-0.306,0.576,-0.177
46.59,-0.323,1.93,0.057
46.6,-0.045,0.645,0.129
46.61,-0.224,0.952,0.055
46.62,-0.343,0.472,-0.164
46.63,-0.229,2.0,0.145
46.64,-0.136,0.613,0.178
46.65,-0.09,0.81,0.03
46.66,-0.406,0.64,-0.217
46.67,-0.062,1.719,0.152
46.68,-0.192,1.06,0.128
46.69,0.036,0.343,0.014
46.7,-0.515,1.011,-0.205
46.71,-0.009,1.474,0.111
46.72,-0.095,1.261,0.062
46.73,0.042,0.421,-0.033
46.74,-0.566,0.704,-0.164
46.75,-0.039,1.904,0.167
46.76,-0.282,0.798,0.121
46.77,-0.052,0.939,-0.031
46.78,-0.404,0.276,-0.174
46.79,-0.218,1.993,0.197
46.8,-0.088,0.809,0.089
46.81,-0.122,0.757,-0.03
46.82,-0.411,0.533,-0.206
46.83,-0.123,1.444,0.183
46.84,-0.215,1.193,0.078
46.85,-0.036,0.467,-0.075
46.86,-0.537,0.879,-0.176
46.87,-0.025,1.292,0.174
46.88,-0.269,1.416,0.09
46.89,-0.102,0.495,-0.02
46.9,-0.506,0.686,-0.129
46.91,-0.035,1.513,0.191
46.92,-0.138,1.008,0.059
46.93,-0.093,0.976,-0.114
46.94,-0.383,0.147,-0.17
46.95,-0.141,1.62,0.181
46.96,-0.132,0.875,0.076
46.97,-0.197,0.942,-0.126
46.98,-0.377,0.399,-0.191
46.99,-0.14,1.218,0.185
47.0,-0.179,1.266,0.035
47.01,-0.077,0.462,-0.133
47.02,-0.481,0.975,-0.133
47.03,-0.007,0.881,0.178
47.04,-0.297,1.382,0.03
47.05,-0.138,0.428,-0.119
47.06,-0.459,0.796,-0.098
47.07,-0.069,1.093,0.154
47.08,-0.159,0.948,0.043
47.09,-0.357,0.838,-0.11
47.1,-0.334,0.487,-0.074
47.11,-0.201,1.301,0.186
47.12,-0.165,0.74,0.095
47.13,-0.388,0.856,-0.111
47.14,-0.294,0.891,-0.043
47.15,-0.067,1.107,0.174
47.16,-0.224,1.051,0.021
47.17,-0.227,0.527,-0.152
47.18,-0.292,1.43,-0.096
47.19,-0.034,0.759,0.165
47.2,-0.247,1.247,-0.004
47.21,-0.29,0.39,-0.204
47.22,-0.231,1.502,-0.126
47.23,0.004,0.936,0.192
47.24,-0.145,0.755,0.003
47.25,-0.382,0.94,-0.162
47.26,-0.222,1.158,-0.027
47.27,-0.226,1.241,0.215
47.28,-0.049,0.539,0.041
47.29,-0.496,1.031,-0.216
47.3,-0.217,1.25,0.014
47.31,-0.178,0.934,0.12
47.32,-0.189,0.924,0.006
47.33,-0.307,0.564,-0.169
47.34,-0.287,1.883,0.067
47.35,-0.05,0.696,0.208
47.36,-0.222,1.023,0.023
47.37,-0.255,0.418,-0.214
47.38,-0.344,1.859,0.06
47.39,-0.002,0.781,0.1
47.4,-0.142,0.701,0.001
47.41,-0.377,0.864,-0.189
47.42,-0.203,1.485,0.076
47.43,-0.061,1.038,0.101
47.44,-0.001,0.379,-0.031
47.45,-0.437,1.014,-0.245
47.46,-0.004,1.582,0.094
47.47,-0.22,1.251,0.118
47.48,0.076,0.422,-0.0
47.49,-0.439,0.848,-0.2
47.5,-0.027,1.78,0.108
47.51,-0.094,0.865,0.091
47.52,-0.037,0.831,-0.064
47.53,-0.36,0.282,-0.207
47.54,-0.168,1.942,0.085
47.55,-0.033,0.719,0.083
47.56,-0.121,0.907,-0.057
47.57,-0.387,0.389,-0.186
47.58,-0.168,1.743,0.182
47.59,-0.141,1.17,0.108
47.6,-0.038,0.408,-0.089
47.61,-0.438,0.976,-0.183
47.62,-0.082,1.251,0.158
47.63,-0.258,1.326,0.113
47.64,0.004,0.474,-0.064
47.65,-0.475,0.772,-0.148
47.66,-0.068,1.378,0.122
47.67,-0.188,0.982,0.092
47.68,-0.14,0.916,-0.107
47.69,-0.425,0.22,-0.122
47.7,-0.213,1.563,0.183
47.71,-0.149,0.805,0.131
47.72,-0.155,0.946,-0.112
47.73,-0.426,0.367,-0.182
47.74,-0.086,1.277,0.128
47.75,-0.207,1.159,0.01
47.76,-0.092,0.502,-0.15
47.77,-0.525,0.938,-0.116
47.78,-0.014,0.888,0.253
47.79,-0.281,1.308,0.045
47.8,-0.101,0.424,-0.122
47.81,-0.444,0.853,-0.124
47.82,-0.057,1.017,0.184
47.83,-0.181,1.07,0.002
47.84,-0.261,0.699,-0.138
47.85,-0.343,0.488,-0.08
47.86,-0.156,1.347,0.158
47.87,-0.163,0.727,0.033
47.88,-0.319,0.971,-0.106
47.89,-0.346,0.558,-0.063
47.9,-0.099,1.18,0.138
47.91,-0.234,1.017,0.011
47.92,-0.231,0.517,-0.143
47.93,-0.357,1.279,-0.043
47.94,-0.001,0.791,0.193
47.95,-0.322,1.267,0.03
47.96,-0.181,0.359,-0.111
47.97,-0.3,1.491,-0.057
47.98,-0.009,0.936,0.183
47.99,-0.163,0.871,0.03
48.0,-0.422,0.803,-0.164
48.01,-0.215,0.99,-0.087
48.02,-0.198,1.183,0.172
48.03,-0.065,0.63,0.02
48.04,-0.395,1.042,-0.194
48.05,-0.18,1.219,-0.04
48.06,-0.144,1.116,0.177
48.07,-0.154,0.735,0.051
48.08,-0.356,0.711,-0.172
48.09,-0.331,1.764,0.016
48.1,0.042,0.739,0.137
48.11,-0.229,1.049,0.042
48.12,-0.268,0.42,-0.209
48.13,-0.351,1.789,0.003
48.14,-0.087,0.731,0.163
48.15,-0.194,0.833,0.026
48.16,-0.455,0.803,-0.168
48.17,-0.227,1.462,0.053
48.18,-0.184,1.113,0.153
48.19,0.04,0.497,0.059
48.2,-0.48,1.102,-0.193
48.21,-0.177,1.429,0.057
48.22,-0.196,1.082,0.17
48.23,-0.034,0.639,0.017
48.24,-0.521,0.929,-0.152
48.25,-0.059,1.74,0.095
48.26,-0.076,0.978,0.12
48.27,-0.031,0.711,-0.011
48.28,-0.428,0.41,-0.207
48.29,-0.125,1.998,0.079
48.3,-0.017,0.739,0.097
48.31,-0.157,0.865,0.007
48.32,-0.311,0.405,-0.219
48.33,-0.159,1.932,0.141
48.34,-0.073,0.95,0.098
48.35,-0.042,0.497,-0.03
48.36,-0.459,0.948,-0.221
48.37,-0.042,1.428,0.199
48.38,-0.181,1.338,0.107
48.39,0.06,0.419,0.014
48.4,-0.542,0.895,-0.178
48.41,-0.049,1.542,0.196
48.42,-0.172,1.041,0.143
48.43,-0.022,0.833,-0.106
48.44,-0.46,0.408,-0.193
48.45,-0.159,1.764,0.149
48.46,-0.121,0.757,0.133
