t,ax,ay,az
0.0,-0.023,0.474,-0.016
0.01,-0.558,0.948,-0.221
0.02,-0.034,1.361,0.21
0.03,-0.239,1.362,0.039
0.04,-0.002,0.461,-0.037
0.05,-0.439,0.901,-0.189
0.06,-0.117,1.626,0.138
0.07,-0.194,0.953,0.115
0.08,-0.117,0.835,-0.068
0.09,-0.366,0.354,-0.175
0.1,-0.185,1.928,0.142
0.11,-0.148,0.854,0.098
0.12,-0.195,0.854,-0.048
0.13,-0.415,0.395,-0.156
0.14,-0.212,1.612,0.236
0.15,-0.23,1.127,0.091
0.16,-0.115,0.501,-0.053
0.17,-0.531,0.908,-0.152
0.18,-0.036,1.146,0.194
0.19,-0.281,1.362,0.079
0.2,-0.037,0.464,-0.082
0.21,-0.493,0.825,-0.198
0.22,-0.045,1.265,0.162
0.23,-0.169,1.005,0.035
0.24,-0.168,0.888,-0.1
0.25,-0.425,0.306,-0.143
0.26,-0.22,1.519,0.2
0.27,-0.116,0.804,0.101
0.28,-0.24,0.954,-0.108
0.29,-0.389,0.338,-0.198
0.3,-0.123,1.304,0.168
0.31,-0.233,1.16,0.028
0.32,-0.152,0.441,-0.12
0.33,-0.476,0.965,-0.148
0.34,-0.001,0.983,0.161
0.35,-0.232,1.251,0.056
0.36,-0.125,0.429,-0.133
0.37,-0.494,0.881,-0.155
0.38,0.006,1.115,0.115
0.39,-0.174,1.054,0.063
0.4,-0.289,0.781,-0.13
0.41,-0.414,0.392,-0.114
0.42,-0.171,1.388,0.192
0.43,-0.128,0.823,0.089
0.44,-0.277,0.876,-0.142
0.45,-0.403,0.512,-0.169
0.46,-0.051,1.287,0.141
0.47,-0.234,1.033,0.008
0.48,-0.195,0.532,-0.146
0.49,-0.464,1.076,-0.075
0.5,-0.013,0.897,0.163
0.51,-0.299,1.303,0.066
0.52,-0.14,0.336,-0.091
0.53,-0.468,1.164,-0.057
0.54,-0.015,1.028,0.148
0.55,-0.265,1.0,0.042
0.56,-0.267,0.727,-0.13
0.57,-0.301,0.899,-0.026
0.58,-0.141,1.318,0.211
0.59,-0.137,0.626,0.067
0.6,-0.377,0.985,-0.127
0.61,-0.292,0.955,-0.067
0.62,-0.115,1.195,0.189
0.63,-0.233,0.909,0.055
0.64,-0.338,0.65,-0.145
0.65,-0.323,1.513,-0.065
0.66,-0.027,0.787,0.197
0.67,-0.163,1.041,0.048
0.68,-0.31,0.463,-0.209
0.69,-0.4,1.847,0.062
0.7,-0.008,0.704,0.123
0.71,-0.188,1.034,0.056
0.72,-0.365,0.607,-0.222
0.73,-0.311,1.546,0.063
0.74,-0.151,1.028,0.178
0.75,-0.015,0.566,0.044
0.76,-0.468,1.021,-0.22
0.77,-0.218,1.259,0.081
0.78,-0.219,1.174,0.157
0.79,-0.016,0.507,0.071
0.8,-0.507,0.924,-0.19
0.81,-0.192,1.6,0.051
0.82,-0.151,0.773,0.09
0.83,-0.038,0.888,-0.004
0.84,-0.41,0.463,-0.238
0.85,-0.187,1.923,0.094
0.86,-0.071,0.631,0.095
0.87,-0.109,0.891,0.054
0.88,-0.36,0.502,-0.171
0.89,-0.141,1.806,0.125
0.9,-0.204,0.982,0.166
0.91,-0.023,0.458,-0.032
0.92,-0.495,1.021,-0.211
0.93,-0.062,1.502,0.133
0.94,-0.239,1.222,0.18
0.95,0.017,0.349,-0.006
0.96,-0.447,0.935,-0.222
0.97,0.004,1.778,0.029
0.98,-0.079,0.955,0.112
0.99,-0.108,0.777,-0.034
1.0,-0.396,0.4,-0.169
1.01,-0.172,2.0,0.059
1.02,-0.09,0.769,0.126
1.03,-0.142,0.824,-0.036
1.04,-0.414,0.43,-0.217
1.05,-0.081,1.881,0.146
1.06,-0.066,1.0,0.065
1.07,-0.009,0.46,-0.029
1.08,-0.485,0.934,-0.257
1.09,-0.052,1.463,0.13
1.1,-0.247,1.348,0.093
1.11,-0.028,0.4,-0.05
1.12,-0.476,0.969,-0.175
1.13,-0.084,1.461,0.148
1.14,-0.262,1.023,0.189
1.15,-0.119,0.832,-0.066
1.16,-0.464,0.364,-0.131
1.17,-0.197,1.706,0.179
1.18,-0.152,0.794,0.096
1.19,-0.168,1.039,-0.115
1.2,-0.408,0.294,-0.16
1.21,-0.128,1.501,0.188
1.22,-0.164,1.121,0.06
1.23,-0.086,0.611,-0.1
1.24,-0.511,0.857,-0.171
1.25,0.03,1.048,0.137
1.26,-0.271,1.398,0.047
1.27,-0.04,0.361,-0.095
1.28,-0.534,0.954,-0.2
1.29,0.0,1.122,0.117
1.3,-0.191,0.991,-0.005
1.31,-0.151,0.817,-0.116
1.32,-0.385,0.41,-0.134
1.33,-0.151,1.356,0.176
1.34,-0.017,0.841,0.007
1.35,-0.264,0.939,-0.16
1.36,-0.359,0.361,-0.181
1.37,-0.099,1.312,0.15
1.38,-0.097,0.998,-0.024
1.39,-0.221,0.49,-0.171
1.4,-0.421,0.942,-0.141
1.41,0.012,0.939,0.14
1.42,-0.24,1.303,-0.018
1.43,-0.137,0.317,-0.132
1.44,-0.472,0.998,-0.119
1.45,-0.037,1.0,0.156
1.46,-0.203,1.055,0.016
1.47,-0.321,0.706,-0.096
1.48,-0.353,1.023,-0.005
1.49,-0.122,1.081,0.203
1.5,-0.16,0.781,0.047
1.51,-0.383,0.874,-0.132
1.52,-0.174,0.965,-0.073
1.53,-0.098,1.318,0.154
1.54,-0.135,0.685,0.049
1.55,-0.39,0.877,-0.155
1.56,-0.275,1.32,-0.062
1.57,-0.105,0.89,0.126
1.58,-0.217,1.077,0.006
1.59,-0.25,0.442,-0.232
1.6,-0.327,1.702,-0.014
1.61,0.001,0.71,0.108
1.62,-0.181,1.119,0.023
1.63,-0.29,0.568,-0.218
1.64,-0.273,1.556,0.007
1.65,-0.125,0.945,0.189
1.66,-0.034,0.643,0.037
1.67,-0.435,1.075,-0.242
1.68,-0.196,1.196,0.04
1.69,-0.149,1.144,0.157
1.7,-0.025,0.581,0.062
1.71,-0.521,0.992,-0.219
1.72,-0.142,1.552,0.085
1.73,-0.094,0.93,0.132
1.74,-0.072,0.821,0.034
1.75,-0.353,0.542,-0.187
1.76,-0.31,1.904,0.101
1.77,-0.06,0.708,0.153
1.78,-0.214,0.916,0.055
1.79,-0.427,0.388,-0.217
1.8,-0.182,1.743,0.085
1.81,-0.169,0.965,0.097
1.82,0.021,0.513,0.012
1.83,-0.493,1.001,-0.22
1.84,-0.089,1.405,0.053
1.85,-0.2,1.093,0.15
1.86,0.098,0.409,0.049
1.87,-0.548,0.952,-0.201
1.88,-0.013,1.657,0.092
1.89,-0.251,0.877,0.166
1.9,-0.029,0.801,0.014
1.91,-0.508,0.471,-0.223
1.92,-0.116,2.0,0.092
1.93,-0.05,0.668,0.156
1.94,-0.073,0.91,0.033
1.95,-0.364,0.42,-0.247
1.96,-0.112,1.789,0.069
1.97,-0.037,0.976,0.028
1.98,-0.037,0.551,-0.036
1.99,-0.456,0.981,-0.245
2.0,-0.056,1.566,0.093
2.01,-0.16,1.318,0.081
2.02,0.032,0.268,-0.009
2.03,-0.516,0.999,-0.207
2.04,-0.078,1.544,0.069
2.05,-0.137,0.989,0.1
2.06,-0.007,0.83,-0.067
2.07,-0.44,0.394,-0.159
2.08,-0.125,1.992,0.184
2.09,-0.112,0.811,0.075
2.1,-0.139,0.897,-0.057
2.11,-0.417,0.409,-0.196
2.12,-0.1,1.747,0.149
2.13,-0.081,1.029,0.076
2.14,-0.057,0.475,-0.097
2.15,-0.425,0.836,-0.189
2.16,-0.083,1.291,0.115
2.17,-0.312,1.321,0.146
2.18,-0.081,0.463,-0.046
2.19,-0.581,0.886,-0.162
2.2,-0.027,1.314,0.227
2.21,-0.145,1.208,0.075
2.22,-0.11,0.75,-0.076
2.23,-0.512,0.397,-0.146
2.24,-0.197,1.663,0.193
2.25,-0.13,0.821,0.119
2.26,-0.168,1.047,-0.051
2.27,-0.439,0.268,-0.157
2.28,-0.159,1.454,0.188
2.29,-0.115,0.839,0.054
2.3,-0.229,0.759,-0.114
2.31,-0.403,0.632,-0.146
2.32,-0.039,1.134,0.138
2.33,-0.224,1.202,0.023
2.34,-0.059,0.432,-0.119
2.35,-0.595,1.095,-0.114
2.36,0.046,0.941,0.158
2.37,-0.297,1.226,0.053
2.38,-0.204,0.448,-0.1
2.39,-0.525,0.837,-0.039
2.4,-0.104,1.167,0.146
2.41,-0.193,0.828,0.055
2.42,-0.268,0.857,-0.126
2.43,-0.386,0.563,-0.085
2.44,-0.106,1.34,0.14
2.45,-0.161,0.741,0.062
2.46,-0.308,0.821,-0.104
2.47,-0.436,1.015,-0.072
2.48,-0.063,1.067,0.225
2.49,-0.21,1.097,0.038
2.5,-0.222,0.399,-0.173
2.51,-0.297,1.53,-0.069
2.52,-0.085,0.778,0.172
2.53,-0.215,1.163,0.051
2.54,-0.311,0.469,-0.172
2.55,-0.234,1.326,-0.06
2.56,-0.089,1.013,0.115
2.57,-0.11,0.733,0.045
2.58,-0.395,0.976,-0.141
2.59,-0.207,0.975,-0.035
2.6,-0.235,1.213,0.156
2.61,-0.081,0.651,0.012
2.62,-0.381,0.959,-0.173
2.63,-0.19,1.369,-0.027
2.64,-0.087,0.959,0.115
2.65,-0.091,0.903,-0.023
2.66,-0.337,0.556,-0.218
2.67,-0.26,1.844,0.065
2.68,-0.129,0.622,0.1
2.69,-0.168,1.031,0.046
2.7,-0.322,0.446,-0.183
2.71,-0.339,1.642,0.071
2.72,-0.056,0.879,0.104
2.73,-0.038,1.598,0.104
2.74,-0.192,1.32,0.087
2.75,0.042,0.343,-0.049
2.76,-0.491,0.978,-0.202
2.77,-0.04,1.642,0.115
2.78,-0.116,1.094,0.098
2.79,-0.036,0.676,-0.051
2.8,-0.291,0.396,-0.212
2.81,-0.194,1.902,0.109
2.82,0.008,0.755,0.106
2.83,-0.211,0.991,-0.075
2.84,-0.379,0.336,-0.175
2.85,-0.182,1.738,0.155
2.86,-0.118,1.094,0.071
2.87,-0.064,0.564,-0.058
2.88,-0.473,0.842,-0.197
2.89,-0.046,1.187,0.187
2.9,-0.276,1.37,0.11
2.91,-0.024,0.441,-0.053
2.92,-0.521,0.897,-0.174
2.93,-0.077,1.233,0.161
2.94,-0.194,1.045,0.059
2.95,-0.194,0.795,-0.083
2.96,-0.407,0.409,-0.128
2.97,-0.24,1.489,0.238
2.98,-0.062,0.828,0.061
2.99,-0.185,1.019,-0.066
3.0,-0.368,0.296,-0.152
3.01,-0.158,1.339,0.156
3.02,-0.147,0.769,-0.035
3.03,-0.228,0.836,-0.118
3.04,-0.438,0.659,-0.126
3.05,-0.075,1.084,0.178
3.06,-0.384,1.176,0.061
3.07,-0.069,0.383,-0.164
3.08,-0.43,1.188,-0.063
3.09,0.034,0.819,0.144
3.1,-0.296,1.259,-0.004
3.11,-0.197,0.375,-0.159
3.12,-0.322,1.184,-0.012
3.13,-0.034,1.075,0.13
3.14,-0.217,0.737,0.037
3.15,-0.384,0.939,-0.172
3.16,-0.278,0.827,-0.01
3.17,-0.189,1.218,0.147
3.18,-0.192,0.701,0.038
3.19,-0.437,0.847,-0.157
3.2,-0.208,1.251,0.021
3.21,-0.091,0.947,0.117
3.22,-0.165,1.008,0.004
3.23,-0.298,0.479,-0.244
3.24,-0.229,1.83,0.055
3.25,-0.081,0.718,0.145
3.26,-0.18,1.015,0.071
3.27,-0.355,0.469,-0.229
3.28,-0.271,1.606,0.061
3.29,-0.031,0.915,0.078
3.3,-0.114,0.617,0.043
3.31,-0.47,0.941,-0.166
3.32,-0.175,1.408,0.082
3.33,-0.221,1.064,0.214
3.34,0.035,0.478,0.007
3.35,-0.583,0.986,-0.188
3.36,-0.027,1.645,0.074
3.37,-0.186,0.909,0.153
3.38,-0.097,0.719,0.012
3.39,-0.414,0.482,-0.138
3.4,-0.179,2.0,0.119
3.41,-0.047,0.685,0.13
3.42,-0.124,0.898,0.01
3.43,-0.444,0.375,-0.178
3.44,-0.148,1.875,0.141
3.45,-0.077,1.015,0.105
3.46,-0.081,0.514,-0.029
3.47,-0.446,0.945,-0.168
3.48,-0.135,1.518,0.15
3.49,-0.206,1.386,0.107
3.5,-0.004,0.375,-0.037
3.51,-0.427,0.919,-0.197
3.52,-0.086,1.294,0.143
3.53,-0.202,1.074,0.066
3.54,-0.136,0.87,-0.102
3.55,-0.411,0.361,-0.114
3.56,-0.17,1.612,0.212
3.57,-0.132,0.867,0.063
3.58,-0.154,0.981,-0.104
3.59,-0.416,0.258,-0.144
3.6,-0.101,1.363,0.148
3.61,-0.217,1.055,-0.07
3.62,-0.125,0.619,-0.107
3.63,-0.426,0.888,-0.126
3.64,-0.047,0.936,0.199
3.65,-0.279,1.34,0.033
3.66,-0.166,0.376,-0.144
3.67,-0.389,1.014,-0.039
3.68,0.0,0.985,0.125
3.69,-0.267,1.057,0.013
3.7,-0.237,0.751,-0.116
3.71,-0.271,0.842,-0.037
3.72,-0.141,1.309,0.194
3.73,-0.163,0.626,0.053
3.74,-0.4,1.083,-0.164
3.75,-0.21,0.871,-0.042
3.76,-0.15,1.15,0.13
3.77,-0.207,0.87,0.017
3.78,-0.344,0.618,-0.192
3.79,-0.172,1.585,-0.06
3.8,0.005,0.787,0.118
3.81,-0.225,1.095,0.029
3.82,-0.375,0.52,-0.185
3.83,-0.231,1.938,0.095
3.84,-0.01,0.709,0.161
3.85,-0.151,0.934,0.027
3.86,-0.442,0.497,-0.211
3.87,-0.186,1.735,0.106
3.88,-0.155,0.905,0.116
3.89,-0.011,0.539,-0.002
3.9,-0.469,1.041,-0.182
3.91,-0.089,1.47,0.124
3.92,-0.191,1.128,0.217
3.93,0.019,0.384,0.049
3.94,-0.538,0.976,-0.118
3.95,-0.019,1.78,0.026
3.96,-0.115,0.984,0.121
3.97,-0.086,0.769,-0.043
3.98,-0.433,0.423,-0.139
3.99,-0.131,2.0,0.113
4.0,-0.013,0.747,0.034
4.01,-0.101,0.805,-0.033
4.02,-0.382,0.424,-0.237
4.03,-0.114,1.782,0.07
4.04,-0.124,1.039,0.046
4.05,0.02,0.594,-0.106
4.06,-0.433,0.858,-0.209
4.07,-0.022,1.289,0.174
4.08,-0.216,1.404,0.105
4.09,-0.099,0.396,-0.053
4.1,-0.503,0.936,-0.169
4.11,-0.1,1.319,0.195
4.12,-0.209,1.12,0.098
4.13,-0.136,0.793,-0.082
4.14,-0.363,0.346,-0.175
4.15,-0.219,1.496,0.126
4.16,-0.062,0.743,0.038
4.17,-0.269,1.015,-0.117
4.18,-0.379,0.343,-0.128
4.19,-0.174,1.341,0.136
4.2,-0.206,1.058,0.023
4.21,-0.129,0.568,-0.14
4.22,-0.466,0.948,-0.105
4.23,0.011,0.953,0.151
4.24,-0.271,1.274,-0.011
4.25,-0.052,0.45,-0.122
4.26,-0.516,1.062,-0.062
4.27,-0.04,1.059,0.14
4.28,-0.326,0.997,0.095
4.29,-0.296,0.718,-0.135
4.3,-0.38,0.639,0.001
4.31,-0.167,1.291,0.166
4.32,-0.277,0.69,0.052
4.33,-0.299,0.936,-0.141
4.34,-0.277,0.833,-0.067
4.35,-0.113,1.2,0.161
4.36,-0.186,0.874,0.004
4.37,-0.353,0.646,-0.133
4.38,-0.267,1.42,-0.015
4.39,-0.079,0.784,0.132
4.4,-0.35,1.206,0.029
4.41,-0.276,0.299,-0.145
4.42,-0.316,1.575,0.036
4.43,-0.106,0.786,0.151
4.44,-0.177,0.946,0.027
4.45,-0.433,0.755,-0.205
4.46,-0.192,1.248,0.053
4.47,-0.145,1.119,0.163
4.48,0.033,0.589,0.04
4.49,-0.502,1.014,-0.232
4.5,-0.133,1.279,0.081
4.51,-0.124,1.129,0.134
4.52,-0.109,0.593,0.012
4.53,-0.387,0.758,-0.177
4.54,-0.223,1.864,0.056
4.55,-0.134,0.648,0.224
4.56,-0.113,0.926,-0.023
4.57,-0.536,0.304,-0.228
4.58,-0.116,2.0,0.114
4.59,-0.155,0.758,0.109
4.6,-0.122,0.696,0.003
4.61,-0.485,0.717,-0.177
4.62,-0.126,1.827,0.133
4.63,-0.062,1.058,0.052
4.64,-0.021,0.472,-0.065
4.65,-0.449,0.914,-0.196
4.66,-0.062,1.276,0.166
4.67,-0.261,1.355,0.063
4.68,0.029,0.513,-0.053
4.69,-0.543,0.851,-0.153
4.7,-0.021,1.314,0.237
4.71,-0.217,1.119,0.049
4.72,-0.094,0.868,-0.061
4.73,-0.429,0.334,-0.156
4.74,-0.202,1.534,0.219
4.75,-0.172,0.823,0.056
4.76,-0.172,1.05,-0.098
4.77,-0.448,0.359,-0.117
4.78,-0.102,1.282,0.161
4.79,-0.266,1.051,0.023
4.8,-0.15,0.577,-0.09
4.81,-0.461,0.947,-0.12
4.82,-0.068,0.885,0.208
4.83,-0.318,1.306,-0.01
4.84,-0.167,0.31,-0.149
4.85,-0.362,1.142,-0.075
4.86,0.019,0.969,0.129
4.87,-0.265,0.993,0.053
4.88,-0.293,0.767,-0.179
4.89,-0.225,0.941,-0.034
4.9,-0.104,1.295,0.153
4.91,-0.109,0.619,0.033
4.92,-0.414,1.057,-0.172
4.93,-0.206,1.101,-0.023
4.94,-0.093,1.165,0.132
4.95,-0.172,0.812,-0.018
4.96,-0.315,0.716,-0.209
4.97,-0.224,1.705,0.009
4.98,-0.001,0.684,0.122
4.99,-0.158,1.098,0.019
5.0,-0.36,0.432,-0.228
5.01,-0.249,1.767,0.051
5.02,-0.086,0.747,0.104
5.03,-0.086,0.816,0.027
5.04,-0.502,0.778,-0.181
5.05,-0.184,1.472,0.115
5.06,-0.21,1.152,0.207
5.07,0.075,0.38,0.019
5.08,-0.59,1.038,-0.184
5.09,0.007,1.524,0.115
5.1,-0.186,1.121,0.122
5.11,-0.055,0.565,0.014
5.12,-0.515,0.673,-0.166
5.13,-0.105,2.0,0.094
5.14,-0.081,0.699,0.123
5.15,-0.059,0.89,-0.026
5.16,-0.398,0.33,-0.256
5.17,-0.136,1.98,0.047
5.18,-0.039,0.811,0.062
5.19,-0.125,0.728,-0.039
5.2,-0.409,0.685,-0.185
5.21,-0.121,1.55,0.135
5.22,-0.211,1.309,0.112
5.23,0.011,0.37,-0.049
5.24,-0.465,1.004,-0.182
5.25,-0.053,1.291,0.242
5.26,-0.213,1.25,0.048
5.27,-0.082,0.611,-0.066
5.28,-0.382,0.606,-0.158
5.29,-0.205,1.525,0.229
5.3,-0.19,0.887,0.103
5.31,-0.249,0.98,-0.078
5.32,-0.36,0.26,-0.142
5.33,-0.191,1.566,0.204
5.34,-0.153,0.878,0.068
5.35,-0.208,0.851,-0.111
5.36,-0.361,0.583,-0.192
5.37,-0.074,1.108,0.188
5.38,-0.198,1.257,-0.002
5.39,-0.099,0.378,-0.158
5.4,-0.456,1.048,-0.123
5.41,0.048,0.929,0.138
5.42,-0.266,1.225,-0.002
5.43,-0.172,0.306,-0.161
5.44,-0.285,1.31,-0.06
5.45,-0.052,0.912,0.142
5.46,-0.189,0.935,0.024
5.47,-0.41,0.753,-0.147
5.48,-0.17,1.013,-0.019
5.49,-0.183,1.21,0.117
5.5,-0.034,0.619,0.021
5.51,-0.424,1.081,-0.177
5.52,-0.163,1.148,0.029
5.53,-0.132,1.055,0.107
5.54,-0.088,0.827,-0.011
5.55,-0.424,0.66,-0.227
5.56,-0.201,1.771,0.059
5.57,-0.069,0.662,0.135
5.58,-0.159,1.028,0.032
5.59,-0.402,0.398,-0.23
5.6,-0.213,1.872,0.059
5.61,-0.106,0.796,0.089
5.62,-0.077,0.712,0.012
5.63,-0.46,0.727,-0.182
5.64,-0.19,1.443,0.108
5.65,-0.191,1.189,0.17
5.66,-0.023,0.398,-0.002
5.67,-0.57,1.029,-0.155
5.68,-0.043,1.551,0.105
5.69,-0.214,1.083,0.153
5.7,0.006,0.565,-0.035
5.71,-0.495,0.697,-0.181
5.72,-0.082,2.0,0.097
5.73,-0.066,0.706,0.17
5.74,-0.121,0.963,-0.012
5.75,-0.401,0.272,-0.18
5.76,-0.143,2.0,0.092
5.77,-0.035,0.86,0.115
5.78,-0.115,0.658,-0.024
5.79,-0.448,0.681,-0.205
5.8,-0.129,1.418,0.145
5.81,-0.188,1.353,0.094
5.82,-0.016,0.393,-0.092
5.83,-0.479,0.979,-0.173
5.84,-0.049,1.171,0.149
5.85,-0.332,1.233,0.125
5.86,-0.078,0.721,-0.083
5.87,-0.49,0.559,-0.103
5.88,-0.086,1.374,0.239
5.89,-0.118,0.944,0.083
5.9,-0.241,1.032,-0.103
5.91,-0.346,0.246,-0.104
5.92,-0.206,1.411,0.184
5.93,-0.202,0.922,0.097
5.94,-0.286,0.762,-0.126
5.95,-0.377,0.71,-0.096
5.96,-0.053,0.996,0.178
5.97,-0.302,1.298,0.003
5.98,-0.082,0.386,-0.137
5.99,-0.465,1.165,-0.048
6.0,0.004,0.813,0.17
6.01,-0.29,1.237,0.01
6.02,-0.307,0.475,-0.136
6.03,-0.333,0.984,-0.005
6.04,-0.155,1.105,0.166
6.05,-0.121,0.735,-0.01
6.06,-0.356,0.948,-0.163
6.07,-0.175,1.046,-0.045
6.08,-0.126,1.251,0.136
6.09,-0.135,0.666,0.022
6.1,-0.395,0.891,-0.158
6.11,-0.185,1.522,0.053
6.12,-0.15,0.859,0.194
6.13,-0.112,0.929,0.028
6.14,-0.421,0.396,-0.221
6.15,-0.333,1.903,0.103
6.16,-0.082,0.641,0.13
6.17,-0.165,0.95,0.02
6.18,-0.422,0.5,-0.203
6.19,-0.198,1.747,0.076
6.2,-0.084,0.973,0.132
6.21,0.068,0.475,-0.045
6.22,-0.49,0.965,-0.244
6.23,-0.065,1.562,0.11
6.24,-0.263,1.33,0.119
6.25,0.019,0.39,-0.065
6.26,-0.537,1.014,-0.134
6.27,-0.023,1.458,0.186
6.28,-0.219,1.293,0.087
6.29,-0.005,0.573,-0.108
6.3,-0.453,0.547,-0.162
6.31,-0.142,1.706,0.195
6.32,-0.179,0.812,0.067
6.33,-0.207,1.05,-0.061
6.34,-0.351,0.204,-0.152
6.35,-0.169,1.588,0.155
6.36,-0.155,1.038,0.09
6.37,-0.184,0.73,-0.073
6.38,-0.381,0.668,-0.169
6.39,-0.052,1.056,0.189
6.4,-0.236,1.339,-0.054
6.41,-0.081,0.418,-0.138
6.42,-0.485,0.951,-0.129
6.43,0.033,0.994,0.15
6.44,-0.267,1.257,-0.014
6.45,-0.225,0.547,-0.134
6.46,-0.424,0.691,-0.037
6.47,-0.124,1.188,0.148
6.48,-0.142,0.785,0.042
6.49,-0.36,0.878,-0.118
6.5,-0.19,0.836,-0.048
6.51,-0.192,1.305,0.164
6.52,-0.099,0.722,0.007
6.53,-0.402,0.803,-0.135
6.54,-0.217,1.391,-0.046
6.55,-0.091,0.866,0.16
6.56,-0.213,1.061,0.022
6.57,-0.283,0.489,-0.199
6.58,-0.347,1.688,0.035
6.59,-0.068,0.656,0.174
6.6,-0.216,1.07,0.032
6.61,-0.205,0.604,-0.285
6.62,-0.219,1.43,0.0
6.63,-0.086,1.126,0.14
6.64,-0.049,0.487,0.018
6.65,-0.493,1.083,-0.19
6.66,-0.195,1.26,0.05
6.67,-0.207,1.117,0.19
6.68,-0.006,0.546,0.032
6.69,-0.53,0.886,-0.187
6.7,-0.09,1.692,0.074
6.71,-0.212,0.788,0.163
6.72,-0.083,0.841,-0.002
6.73,-0.425,0.388,-0.162
6.74,-0.124,2.0,0.121
6.75,-0.082,0.667,0.108
6.76,-0.168,0.831,-0.017
6.77,-0.322,0.51,-0.226
6.78,-0.105,1.891,0.116
6.79,-0.151,0.991,0.094
6.8,-0.007,0.404,-0.026
6.81,-0.512,1.02,-0.199
6.82,-0.039,1.464,0.129
6.83,-0.17,1.355,0.026
6.84,0.006,0.361,-0.029
6.85,-0.462,0.906,-0.178
6.86,-0.064,1.63,0.108
6.87,-0.167,0.958,0.106
6.88,-0.074,0.861,-0.094
6.89,-0.435,0.341,-0.144
6.9,-0.153,1.983,0.215
6.91,-0.153,0.858,0.067
6.92,-0.159,0.817,-0.05
6.93,-0.342,0.414,-0.168
6.94,-0.189,1.513,0.168
6.95,-0.255,1.105,0.091
6.96,-0.07,0.544,-0.087
6.97,-0.435,0.909,-0.185
6.98,0.005,1.031,0.158
6.99,-0.322,1.382,0.068
7.0,-0.055,0.447,-0.105
7.01,-0.532,0.812,-0.164
7.02,0.02,1.17,0.125
7.03,-0.261,1.21,0.04
7.04,-0.195,0.559,-0.145
7.05,-0.432,0.81,-0.02
7.06,-0.1,1.225,0.186
7.07,-0.22,0.729,0.087
7.08,-0.32,0.962,-0.124
7.09,-0.313,0.7,-0.03
7.1,-0.199,1.233,0.205
7.11,-0.208,0.858,0.039
7.12,-0.39,0.745,-0.133
7.13,-0.284,1.184,-0.032
7.14,-0.091,0.888,0.162
7.15,-0.215,1.21,-0.004
7.16,-0.219,0.355,-0.198
7.17,-0.25,1.771,-0.053
7.18,-0.012,0.737,0.123
7.19,-0.181,1.002,0.02
7.2,-0.387,0.617,-0.192
7.21,-0.329,1.422,0.05
7.22,-0.131,1.079,0.13
7.23,-0.052,0.529,0.007
7.24,-0.497,1.051,-0.206
7.25,-0.146,1.302,0.03
7.26,-0.207,1.12,0.165
7.27,0.015,0.577,0.024
7.28,-0.487,0.878,-0.213
7.29,-0.086,1.707,0.07
7.3,-0.146,0.794,0.13
7.31,-0.059,0.868,-0.002
7.32,-0.428,0.396,-0.205
7.33,-0.166,2.0,0.074
7.34,-0.062,0.752,0.101
7.35,-0.162,0.774,-0.005
7.36,-0.36,0.499,-0.222
7.37,-0.136,1.771,0.091
7.38,-0.008,1.025,0.083
7.39,-0.024,0.396,-0.007
7.4,-0.542,0.98,-0.182
7.41,-0.049,1.561,0.164
7.42,-0.324,1.284,0.096
7.43,0.125,0.451,-0.003
7.44,-0.48,0.906,-0.23
7.45,-0.019,1.529,0.17
7.46,-0.146,0.995,0.081
7.47,-0.156,0.815,-0.096
7.48,-0.359,0.369,-0.124
7.49,-0.179,1.934,0.126
7.5,-0.113,0.795,0.114
7.51,-0.189,0.913,-0.087
7.52,-0.453,0.362,-0.171
7.53,-0.08,1.529,0.235
7.54,-0.222,1.213,0.101
7.55,-0.022,0.491,-0.1
7.56,-0.529,0.98,-0.182
7.57,0.043,1.054,0.195
7.58,-0.303,1.386,0.072
7.59,-0.112,0.522,-0.065
7.6,-0.495,0.752,-0.123
7.61,-0.153,1.199,0.19
7.62,-0.112,1.09,0.089
7.63,-0.195,0.832,-0.102
7.64,-0.38,0.347,-0.163
7.65,-0.129,1.429,0.167
7.66,-0.07,0.762,-0.038
7.67,-0.251,0.916,-0.133
7.68,-0.361,0.48,-0.164
7.69,-0.125,1.177,0.181
7.7,-0.212,1.078,0.018
7.71,-0.211,0.477,-0.084
7.72,-0.456,1.083,-0.077
7.73,-0.061,0.868,0.201
7.74,-0.288,1.283,0.085
7.75,-0.197,0.366,-0.166
7.76,-0.419,1.168,-0.0
7.77,-0.11,1.004,0.192
7.78,-0.18,0.919,0.099
7.79,-0.313,0.762,-0.141
7.8,-0.267,0.906,-0.056
7.81,-0.102,1.313,0.174
7.82,-0.101,0.686,0.081
7.83,-0.415,1.041,-0.219
7.84,-0.221,1.021,-0.013
7.85,-0.208,1.152,0.097
7.86,-0.031,0.719,-0.031
7.87,-0.35,0.837,-0.234
7.88,-0.194,1.486,-0.019
7.89,-0.122,0.796,0.08
7.9,-0.091,1.029,0.02
7.91,-0.334,0.384,-0.2
7.92,-0.332,1.881,0.057
7.93,-0.12,0.673,0.153
7.94,-0.144,0.945,0.035
7.95,-0.385,0.588,-0.194
7.96,-0.235,1.612,0.095
7.97,-0.226,1.011,0.121
7.98,0.07,0.466,0.015
7.99,-0.509,1.053,-0.173
8.0,-0.106,1.427,0.105
8.01,-0.276,1.028,0.137
8.02,0.022,0.531,0.02
8.03,-0.458,0.845,-0.205
8.04,-0.094,1.785,0.088
8.05,-0.122,0.818,0.121
8.06,-0.099,0.75,-0.003
8.07,-0.302,0.42,-0.195
8.08,-0.169,2.0,0.036
8.09,0.059,0.761,0.082
8.1,-0.205,0.8,-0.023
8.11,-0.371,0.49,-0.158
8.12,-0.135,1.902,0.163
8.13,-0.226,1.033,0.096
8.14,0.005,0.39,-0.031
8.15,-0.553,0.98,-0.182
8.16,0.006,1.449,0.181
8.17,-0.218,1.365,0.077
8.18,-0.014,0.419,-0.021
8.19,-0.449,0.819,-0.166
8.2,-0.081,1.534,0.191
8.21,-0.134,1.047,0.093
8.22,-0.237,0.859,-0.115
8.23,-0.387,0.302,-0.137
8.24,-0.183,1.797,0.156
8.25,-0.102,0.846,0.109
8.26,-0.163,0.958,-0.046
8.27,-0.442,0.366,-0.165
8.28,-0.145,1.418,0.208
8.29,-0.178,1.195,0.099
8.3,-0.054,0.544,-0.138
8.31,-0.553,0.94,-0.119
8.32,-0.026,1.032,0.155
8.33,-0.259,1.403,0.03
8.34,-0.04,0.437,-0.08
8.35,-0.469,0.875,-0.142
8.36,-0.055,1.131,0.208
8.37,-0.192,1.013,0.026
8.38,-0.297,0.81,-0.107
8.39,-0.393,0.375,-0.092
8.4,-0.221,1.38,0.162
8.41,-0.048,0.786,0.009
8.42,-0.393,0.866,-0.109
8.43,-0.283,0.57,-0.107
8.44,-0.169,1.143,0.154
8.45,-0.167,1.123,-0.005
8.46,-0.165,0.43,-0.156
8.47,-0.372,1.299,-0.11
8.48,-0.035,0.785,0.141
8.49,-0.295,1.315,0.027
8.5,-0.167,0.281,-0.179
8.51,-0.295,1.366,-0.083
8.52,-0.125,0.89,0.139
8.53,-0.22,0.913,0.027
8.54,-0.374,0.84,-0.173
8.55,-0.201,0.986,-0.067
8.56,-0.087,1.198,0.157
8.57,-0.053,0.649,-0.01
8.58,-0.448,1.066,-0.2
8.59,-0.138,1.274,-0.03
8.6,-0.152,0.974,0.108
8.61,-0.079,0.814,-0.022
8.62,-0.409,0.592,-0.21
8.63,-0.255,1.713,0.122
8.64,-0.063,0.789,0.152
8.65,-0.104,0.846,0.002
8.66,-0.495,0.35,-0.137
8.67,-0.17,2.0,0.104
8.68,-0.013,0.662,0.079
8.69,-0.062,0.838,-0.027
8.7,-0.347,0.518,-0.252
8.71,-0.101,1.74,0.108
8.72,-0.154,1.104,0.07
8.73,0.015,0.365,-0.043
8.74,-0.45,1.006,-0.203
8.75,-0.028,1.392,0.117
8.76,-0.222,1.312,0.104
8.77,-0.049,0.435,-0.043
8.78,-0.53,0.786,-0.122
8.79,-0.062,1.627,0.151
8.8,-0.162,0.983,0.109
8.81,-0.138,0.907,-0.079
8.82,-0.384,0.286,-0.151
8.83,-0.158,1.836,0.194
8.84,-0.149,0.896,0.06
8.85,-0.156,0.958,-0.07
8.86,-0.408,0.337,-0.193
8.87,-0.052,1.396,0.201
8.88,-0.254,1.256,0.02
8.89,-0.023,0.51,-0.135
8.9,-0.48,0.942,-0.154
8.91,0.016,0.979,0.204
8.92,-0.36,1.393,0.041
8.93,0.003,0.509,-0.097
8.94,-0.497,0.825,-0.145
8.95,0.02,1.123,0.16
8.96,-0.184,0.982,-0.03
8.97,-0.213,0.815,-0.184
8.98,-0.39,0.43,-0.074
8.99,-0.221,1.308,0.171
9.0,-0.16,0.736,0.078
9.01,-0.321,0.855,-0.136
9.02,-0.293,0.795,-0.067
9.03,-0.144,1.081,0.16
9.04,-0.251,1.093,0.062
9.05,-0.187,0.462,-0.142
9.06,-0.312,1.552,-0.056
9.07,0.003,0.761,0.196
9.08,-0.235,1.238,0.012
9.09,-0.32,0.411,-0.194
9.1,-0.196,1.49,-0.011
9.11,-0.182,0.862,0.11
9.12,-0.09,0.805,0.026
9.13,-0.371,0.88,-0.202
9.14,-0.219,1.156,0.069
9.15,-0.194,1.062,0.111
9.16,0.069,0.446,0.033
9.17,-0.496,1.022,-0.181
9.18,-0.053,1.429,0.105
9.19,-0.244,1.154,0.15
9.2,0.039,0.491,0.006
9.21,-0.567,0.768,-0.183
9.22,-0.045,1.9,0.089
9.23,-0.142,0.758,0.148
9.24,-0.04,0.844,0.002
9.25,-0.35,0.372,-0.233
9.26,-0.145,2.0,0.103
9.27,-0.057,0.74,0.1
9.28,-0.085,0.779,-0.021
9.29,-0.395,0.547,-0.208
9.3,-0.046,1.66,0.128
9.31,-0.203,1.203,0.066
9.32,0.046,0.408,-0.103
9.33,-0.461,0.982,-0.175
9.34,-0.035,1.3,0.228
9.35,-0.243,1.384,0.085
9.36,-0.067,0.456,-0.07
9.37,-0.434,0.77,-0.166
9.38,-0.129,1.452,0.177
9.39,-0.148,0.933,0.064
9.4,-0.173,0.896,-0.145
9.41,-0.287,0.245,-0.158
9.42,-0.219,1.545,0.192
9.43,-0.109,0.744,0.124
9.44,-0.399,0.987,-0.145
9.45,-0.368,0.33,-0.087
9.46,-0.186,1.271,0.16
9.47,-0.251,0.995,-0.03
9.48,-0.175,0.582,-0.118
9.49,-0.413,1.036,-0.081
9.5,-0.01,0.88,0.191
9.51,-0.287,1.295,0.051
9.52,-0.219,0.319,-0.151
9.53,-0.342,1.308,-0.067
9.54,-0.022,0.842,0.098
9.55,-0.248,1.063,0.021
9.56,-0.252,0.661,-0.18
9.57,-0.274,1.091,-0.031
9.58,-0.056,1.206,0.148
9.59,-0.127,0.653,0.025
9.6,-0.427,1.057,-0.15
9.61,-0.171,1.109,-0.005
9.62,-0.213,1.143,0.16
9.63,-0.094,0.76,0.006
9.64,-0.365,0.754,-0.2
9.65,-0.227,1.673,0.049
9.66,-0.027,0.779,0.136
9.67,-0.152,1.009,0.032
9.68,-0.321,0.385,-0.248
9.69,-0.232,1.871,0.061
9.7,-0.062,0.766,0.124
9.71,-0.13,0.819,0.047
9.72,-0.454,0.703,-0.19
9.73,-0.215,1.5,0.119
9.74,-0.175,1.076,0.154
9.75,-0.02,0.462,0.034
9.76,-0.547,1.108,-0.179
9.77,-0.07,1.494,0.088
9.78,-0.234,1.074,0.163
9.79,0.054,0.551,0.052
9.8,-0.542,0.82,-0.146
9.81,-0.081,1.837,0.031
9.82,-0.11,0.837,0.152
9.83,-0.056,0.889,-0.022
9.84,-0.394,0.304,-0.19
9.85,-0.08,2.0,0.04
9.86,-0.066,0.792,0.106
9.87,-0.163,0.741,-0.052
9.88,-0.396,0.6,-0.165
9.89,-0.135,1.708,0.117
9.9,-0.17,1.216,0.143
9.91,0.059,0.377,-0.079
9.92,-0.513,0.996,-0.214
9.93,-0.071,1.306,0.163
9.94,-0.203,1.294,0.075
9.95,-0.045,0.54,-0.084
9.96,-0.515,0.673,-0.122
9.97,-0.145,1.54,0.158
9.98,-0.155,0.9,0.078
9.99,-0.156,0.979,-0.089
10.0,-0.456,0.204,-0.106
10.01,-0.241,1.657,0.264
10.02,-0.176,0.861,0.137
10.03,-0.202,0.834,-0.066
10.04,-0.354,0.512,-0.197
10.05,-0.131,1.208,0.113
10.06,-0.239,1.211,0.043
10.07,-0.118,0.441,-0.091
10.08,-0.492,0.953,-0.087
10.09,-0.035,1.01,0.2
10.1,-0.287,1.339,0.07
10.11,-0.104,0.494,-0.15
10.12,-0.458,0.729,-0.113
10.13,-0.106,1.145,0.219
10.14,-0.131,0.865,-0.055
10.15,-0.205,0.926,-0.125
10.16,-0.437,0.416,-0.067
10.17,-0.103,1.359,0.171
10.18,-0.285,0.735,0.035
10.19,-0.229,0.923,-0.107
10.2,-0.435,0.726,-0.062
10.21,-0.066,0.992,0.171
10.22,-0.306,1.188,0.029
10.23,-0.166,0.432,-0.221
10.24,-0.261,1.296,-0.021
10.25,-0.044,0.776,0.105
10.26,-0.238,1.225,0.039
10.27,-0.315,0.357,-0.182
10.28,-0.243,1.652,0.005
10.29,-0.076,0.736,0.15
10.3,-0.138,0.958,-0.04
10.31,-0.37,0.652,-0.194
10.32,-0.235,1.312,0.067
10.33,-0.155,1.168,0.15
10.34,-0.007,0.461,-0.003
10.35,-0.547,1.056,-0.162
10.36,-0.145,1.329,0.067
10.37,-0.156,1.066,0.16
10.38,-0.025,0.643,0.004
10.39,-0.517,0.737,-0.201
10.4,-0.157,1.826,0.093
10.41,-0.075,0.739,0.128
10.42,-0.167,0.886,0.026
10.43,-0.418,0.421,-0.196
10.44,-0.205,1.997,0.107
10.45,-0.087,0.738,0.188
10.46,-0.103,0.754,0.023
10.47,-0.503,0.681,-0.186
10.48,-0.115,1.65,0.136
10.49,-0.131,1.224,0.12
10.5,0.039,0.335,-0.027
10.51,-0.539,1.079,-0.205
10.52,-0.059,1.448,0.099
10.53,-0.18,1.281,0.126
10.54,0.009,0.548,-0.051
10.55,-0.536,0.702,-0.188
10.56,-0.187,1.61,0.201
10.57,-0.198,0.882,0.173
10.58,-0.153,0.972,-0.051
10.59,-0.383,0.237,-0.173
10.6,-0.214,1.798,0.166
10.61,-0.133,0.898,0.107
10.62,-0.199,0.872,-0.038
10.63,-0.383,0.509,-0.186
10.64,-0.152,1.315,0.237
10.65,-0.173,1.319,0.084
10.66,-0.077,0.43,-0.109
10.67,-0.494,0.999,-0.145
10.68,-0.028,1.112,0.15
10.69,-0.294,1.297,0.044
10.7,-0.039,0.598,-0.057
10.71,-0.48,0.702,-0.112
10.72,-0.112,1.222,0.188
10.73,-0.165,0.876,0.035
10.74,-0.217,0.986,-0.116
10.75,-0.41,0.268,-0.121
10.76,-0.153,1.408,0.194
10.77,-0.169,0.827,0.019
10.78,-0.262,0.787,-0.093
10.79,-0.425,0.69,-0.09
10.8,-0.043,1.017,0.182
10.81,-0.298,1.232,-0.036
10.82,-0.05,0.295,-0.162
10.83,-0.368,1.418,-0.082
10.84,0.04,0.877,0.118
10.85,-0.29,1.138,0.028
10.86,-0.23,0.626,-0.193
10.87,-0.305,1.117,-0.005
10.88,-0.171,1.054,0.13
10.89,-0.122,0.732,0.016
10.9,-0.467,0.927,-0.221
10.91,-0.193,0.803,-0.024
10.92,-0.145,1.24,0.119
10.93,-0.079,0.697,-0.028
10.94,-0.354,0.929,-0.216
10.95,-0.168,1.384,-0.044
10.96,-0.035,0.944,0.115
10.97,-0.184,1.001,0.013
10.98,-0.289,0.503,-0.208
10.99,-0.39,1.836,0.051
11.0,-0.038,0.706,0.152
11.01,-0.215,0.971,0.019
11.02,-0.335,0.513,-0.246
11.03,-0.292,1.632,0.067
11.04,0.018,0.801,0.106
11.05,-0.138,0.715,0.002
11.06,-0.434,0.765,-0.21
11.07,-0.358,0.618,-0.104
11.08,-0.157,1.252,0.147
11.09,-0.162,0.834,0.052
11.1,-0.368,0.689,-0.139
11.11,-0.283,1.254,-0.035
11.12,-0.128,0.8,0.186
11.13,-0.272,1.207,-0.05
11.14,-0.216,0.341,-0.159
11.15,-0.293,1.62,-0.018
11.16,-0.006,0.776,0.135
11.17,-0.199,1.031,0.054
11.18,-0.342,0.681,-0.18
11.19,-0.176,1.341,0.01
11.2,-0.119,1.102,0.159
11.21,-0.043,0.561,0.032
11.22,-0.418,1.106,-0.236
11.23,-0.211,1.222,0.053
11.24,-0.114,1.157,0.147
11.25,-0.108,0.624,0.013
11.26,-0.491,0.783,-0.172
11.27,-0.188,1.703,0.051
11.28,-0.126,0.711,0.159
11.29,-0.142,0.955,0.055
11.3,-0.457,0.331,-0.22
11.31,-0.206,1.93,0.119
11.32,-0.109,0.682,0.115
11.33,-0.128,0.814,0.002
11.34,-0.47,0.628,-0.191
11.35,-0.122,1.661,0.149
11.36,-0.147,1.084,0.116
11.37,0.084,0.359,-0.003
11.38,-0.556,1.08,-0.196
11.39,-0.007,1.555,0.072
11.4,-0.224,1.17,0.135
11.41,0.076,0.53,-0.0
11.42,-0.448,0.787,-0.203
11.43,-0.107,1.759,0.098
11.44,-0.05,0.971,0.072
11.45,-0.117,0.885,-0.114
11.46,-0.289,0.293,-0.205
11.47,-0.249,1.953,0.116
11.48,-0.011,0.86,0.05
11.49,-0.187,0.85,-0.089
11.5,-0.404,0.479,-0.182
11.51,-0.147,1.575,0.211
11.52,-0.229,1.285,0.082
11.53,0.045,0.483,-0.054
11.54,-0.494,1.003,-0.172
11.55,-0.037,1.034,0.193
11.56,-0.353,1.35,0.128
11.57,-0.066,0.543,-0.031
11.58,-0.546,0.723,-0.072
11.59,-0.082,1.214,0.231
11.6,-0.149,0.919,0.0
11.61,-0.251,0.912,-0.107
11.62,-0.375,0.278,-0.092
11.63,-0.223,1.298,0.235
11.64,-0.166,0.808,-0.006
11.65,-0.21,0.831,-0.159
11.66,-0.339,0.745,-0.12
11.67,-0.057,1.017,0.134
11.68,-0.335,1.146,0.018
11.69,-0.184,0.43,-0.159
11.7,-0.384,1.332,-0.025
11.71,-0.017,0.764,0.179
11.72,-0.364,1.235,0.05
11.73,-0.251,0.482,-0.183
11.74,-0.363,1.247,0.055
11.75,-0.07,1.035,0.144
11.76,-0.193,0.804,0.023
11.77,-0.38,0.715,-0.203
11.78,-0.195,1.416,0.097
11.79,-0.126,1.159,0.129
11.8,0.05,0.39,0.021
11.81,-0.57,1.03,-0.176
11.82,-0.048,1.442,0.077
11.83,-0.2,1.086,0.15
11.84,0.053,0.594,-0.002
11.85,-0.578,0.754,-0.19
11.86,-0.048,1.999,0.091
11.87,-0.121,0.704,0.119
11.88,-0.057,0.856,-0.034
11.89,-0.432,0.327,-0.223
11.9,-0.109,1.978,0.042
11.91,-0.058,0.811,0.086
11.92,-0.084,0.73,-0.017
11.93,-0.445,0.592,-0.206
11.94,-0.079,1.626,0.17
11.95,-0.153,1.261,0.068
11.96,0.045,0.391,-0.092
11.97,-0.46,1.042,-0.21
11.98,-0.094,1.257,0.151
11.99,-0.24,1.276,0.079
12.0,-0.127,0.583,-0.022
12.01,-0.449,0.588,-0.092
12.02,-0.167,1.417,0.199
12.03,-0.127,0.818,0.077
12.04,-0.238,1.069,-0.122
12.05,-0.34,0.194,-0.152
12.06,-0.131,1.46,0.17
12.07,-0.103,0.93,-0.016
12.08,-0.198,0.766,-0.129
12.09,-0.385,0.629,-0.176
12.1,-0.005,1.028,0.178
12.11,-0.323,1.23,-0.018
12.12,-0.156,0.403,-0.133
12.13,-0.489,1.075,-0.035
12.14,-0.01,0.885,0.142
12.15,-0.331,1.249,0.046
12.16,-0.246,0.475,-0.18
12.17,-0.376,0.899,-0.0
12.18,-0.055,1.113,0.117
12.19,-0.189,0.784,0.059
12.2,-0.341,0.854,-0.146
12.21,-0.202,1.01,-0.007
12.22,-0.074,1.256,0.146
12.23,-0.162,0.673,0.033
12.24,-0.403,0.902,-0.161
12.25,-0.28,1.345,0.001
12.26,-0.121,0.837,0.095
12.27,-0.185,1.032,-0.001
12.28,-0.34,0.419,-0.235
12.29,-0.25,1.856,0.07
12.3,-0.027,0.665,0.135
12.31,-0.157,0.994,0.036
12.32,-0.391,0.555,-0.248
12.33,-0.208,1.689,0.121
12.34,-0.121,1.006,0.176
12.35,-0.031,0.455,0.009
12.36,-0.529,0.938,-0.192
12.37,0.006,1.476,0.09
12.38,-0.179,1.207,0.114
12.39,0.046,0.398,0.029
12.4,-0.526,0.911,-0.203
12.41,-0.044,1.696,0.098
12.42,0.008,0.921,0.11
12.43,-0.074,0.785,-0.07
12.44,-0.391,0.321,-0.235
12.45,-0.2,2.0,0.04
12.46,-0.046,0.755,0.1
12.47,-0.153,0.927,-0.059
12.48,-0.453,0.391,-0.159
12.49,-0.226,1.64,0.117
12.5,-0.192,1.18,0.16
12.51,-0.042,0.492,-0.047
12.52,-0.534,0.942,-0.141
12.53,-0.037,1.166,0.214
12.54,-0.261,1.307,0.115
12.55,-0.005,0.52,-0.098
12.56,-0.51,0.792,-0.146
12.57,-0.036,1.037,0.132
12.58,-0.224,1.217,0.008
12.59,-0.082,0.588,-0.09
12.6,-0.547,0.56,-0.107
12.61,-0.121,1.289,0.182
12.62,-0.161,0.798,-0.022
12.63,-0.365,0.914,-0.111
12.64,-0.311,0.379,-0.067
12.65,-0.222,1.277,0.187
12.66,-0.192,0.782,0.028
12.67,-0.281,0.766,-0.144
12.68,-0.348,0.936,-0.082
12.69,-0.098,0.877,0.199
12.7,-0.325,1.249,0.025
12.71,-0.154,0.267,-0.148
12.72,-0.25,1.536,-0.063
12.73,-0.025,0.856,0.2
12.74,-0.249,1.043,0.016
12.75,-0.282,0.681,-0.127
12.76,-0.301,1.285,0.003
12.77,-0.137,1.105,0.2
12.78,-0.145,0.642,0.02
12.79,-0.473,1.018,-0.216
12.8,-0.155,1.029,0.032
12.81,-0.161,1.155,0.126
12.82,-0.171,0.688,0.015
12.83,-0.407,0.782,-0.125
12.84,-0.222,1.587,0.049
12.85,-0.129,0.78,0.197
12.86,-0.166,1.023,0.039
12.87,-0.409,0.365,-0.246
12.88,-0.225,1.917,0.115
12.89,-0.04,0.696,0.123
12.9,-0.138,0.901,0.03
12.91,-0.405,0.597,-0.171
12.92,-0.215,1.668,0.109
12.93,-0.045,1.025,0.12
12.94,0.009,0.447,-0.04
12.95,-0.477,1.018,-0.194
12.96,0.054,1.48,0.058
12.97,-0.183,1.199,0.12
12.98,0.049,0.392,-0.017
12.99,-0.522,0.875,-0.182
13.0,-0.083,1.863,0.092
13.01,-0.118,0.845,0.133
13.02,-0.088,0.793,-0.057
13.03,-0.348,0.322,-0.199
13.04,-0.242,1.855,0.074
13.05,-0.07,0.808,0.086
13.06,-0.206,0.831,-0.067
13.07,-0.375,0.422,-0.158
13.08,-0.145,1.543,0.15
13.09,-0.152,1.212,0.061
13.1,-0.026,0.486,-0.076
13.11,-0.523,0.932,-0.162
13.12,-0.02,1.186,0.243
13.13,-0.256,1.365,0.039
13.14,-0.054,0.5,-0.055
13.15,-0.468,0.738,-0.177
13.16,-0.103,1.306,0.198
13.17,-0.236,0.938,0.071
13.18,-0.13,0.963,-0.077
13.19,-0.457,0.27,-0.139
13.2,-0.231,1.457,0.202
13.21,-0.156,0.841,0.023
13.22,-0.26,0.872,-0.089
13.23,-0.37,0.463,-0.202
13.24,-0.09,1.178,0.142
13.25,-0.195,1.204,-0.049
13.26,-0.211,0.425,-0.092
13.27,-0.443,0.992,-0.098
13.28,-0.012,0.922,0.181
13.29,-0.271,1.272,0.077
13.3,-0.219,0.441,-0.172
13.31,-0.451,0.899,-0.036
13.32,-0.115,1.034,0.15
13.33,-0.266,0.875,0.051
13.34,-0.247,0.774,-0.151
13.35,-0.247,0.956,-0.041
13.36,-0.128,1.289,0.23
13.37,-0.045,0.532,-0.013
13.38,-0.458,1.061,-0.214
13.39,-0.123,1.153,-0.031
13.4,-0.216,1.107,0.057
13.41,-0.12,0.724,0.013
13.42,-0.433,0.833,-0.151
13.43,-0.261,1.621,0.078
13.44,-0.078,0.761,0.206
13.45,-0.171,0.976,0.016
13.46,-0.35,0.43,-0.245
13.47,-0.2,1.932,0.043
13.48,-0.081,0.751,0.17
13.49,-0.114,0.826,-0.005
13.5,-0.433,0.639,-0.221
13.51,-0.124,1.605,0.118
13.52,-0.132,1.069,0.125
13.53,0.012,0.378,0.007
13.54,-0.534,1.092,-0.158
13.55,-0.071,1.478,0.089
13.56,-0.129,1.131,0.124
13.57,0.003,0.491,-0.016
13.58,-0.408,0.693,-0.21
13.59,-0.102,1.887,0.047
13.6,-0.065,0.844,0.128
13.61,-0.121,0.865,-0.009
13.62,-0.434,0.352,-0.169
13.63,-0.205,2.0,0.177
13.64,-0.152,0.811,0.128
13.65,-0.121,0.724,-0.019
13.66,-0.487,0.546,-0.201
13.67,-0.122,1.439,0.163
13.68,-0.252,1.261,0.11
13.69,-0.061,0.424,-0.098
13.7,-0.47,0.949,-0.147
13.71,-0.027,1.207,0.117
13.72,-0.279,1.305,0.025
13.73,-0.067,0.642,-0.083
13.74,-0.486,0.624,-0.126
13.75,-0.028,1.365,0.197
13.76,-0.143,1.013,0.059
13.77,-0.124,0.93,-0.111
13.78,-0.42,0.281,-0.187
13.79,-0.17,1.412,0.17
13.8,-0.176,0.853,-0.019
13.81,-0.304,0.785,-0.111
13.82,-0.385,0.579,-0.145
13.83,-0.111,1.071,0.207
13.84,-0.262,1.194,-0.005
13.85,-0.153,0.382,-0.115
13.86,-0.419,1.143,-0.053
13.87,-0.066,0.82,0.184
13.88,-0.334,1.298,0.064
13.89,-0.165,0.435,-0.171
13.9,-0.278,1.102,-0.066
13.91,-0.003,1.089,0.093
13.92,-0.168,0.74,0.0
13.93,-0.343,0.991,-0.229
13.94,-0.195,0.994,-0.048
13.95,-0.14,1.203,0.169
13.96,-0.094,0.676,0.052
13.97,-0.426,0.876,-0.174
13.98,-0.218,1.38,-0.047
13.99,-0.065,0.907,0.114
14.0,-0.144,0.985,0.008
14.01,-0.366,0.47,-0.212
14.02,-0.27,1.823,0.088
14.03,-0.092,0.674,0.12
14.04,-0.223,1.028,0.041
14.05,-0.327,0.552,-0.195
14.06,-0.345,1.709,0.069
14.07,-0.113,0.907,0.177
14.08,-0.019,0.572,0.031
14.09,-0.492,0.943,-0.172
14.1,-0.054,1.459,0.092
14.11,-0.197,1.224,0.15
14.12,0.034,0.373,0.037
14.13,-0.512,0.957,-0.188
14.14,-0.01,1.729,0.089
14.15,-0.116,0.976,0.13
14.16,-0.074,0.686,-0.025
14.17,-0.394,0.458,-0.186
14.18,-0.145,1.854,0.131
14.19,-0.102,0.806,0.091
14.2,-0.139,0.907,-0.079
14.21,-0.346,0.279,-0.175
14.22,-0.197,1.795,0.127
14.23,-0.113,0.922,0.111
14.24,-0.172,0.763,-0.081
14.25,-0.436,0.596,-0.177
14.26,-0.058,1.288,0.207
14.27,-0.274,1.333,0.098
14.28,0.051,0.479,-0.083
14.29,-0.557,0.971,-0.162
14.3,0.047,1.102,0.158
14.31,-0.27,1.308,0.09
14.32,-0.124,0.583,-0.077
14.33,-0.49,0.635,-0.122
14.34,-0.083,1.28,0.162
14.35,-0.108,0.865,-0.043
14.36,-0.167,0.964,-0.158
14.37,-0.371,0.272,-0.161
14.38,-0.121,1.36,0.199
14.39,-0.13,0.848,-0.011
14.4,-0.321,0.807,-0.107
14.41,-0.405,0.651,-0.078
14.42,-0.08,1.004,0.221
14.43,-0.233,1.255,0.002
14.44,-0.13,0.318,-0.177
14.45,-0.4,1.341,-0.073
14.46,0.046,0.852,0.182
14.47,-0.349,1.212,0.061
14.48,-0.24,0.495,-0.156
14.49,-0.303,1.183,-0.038
14.5,-0.088,1.141,0.149
14.51,-0.135,0.682,0.009
14.52,-0.41,1.01,-0.18
14.53,-0.166,0.978,-0.051
14.54,-0.156,1.194,0.159
14.55,-0.105,0.721,-0.007
14.56,-0.432,0.87,-0.158
14.57,-0.123,1.432,-0.014
14.58,-0.124,0.862,0.117
14.59,-0.142,1.043,-0.013
14.6,-0.408,0.458,-0.225
14.61,-0.262,1.821,0.048
14.62,-0.131,0.643,0.136
14.63,-0.144,0.997,0.068
14.64,-0.402,0.571,-0.228
14.65,-0.278,1.653,0.091
14.66,-0.14,0.951,0.187
14.67,0.052,0.517,0.015
14.68,-0.543,0.987,-0.186
14.69,-0.093,1.408,0.109
14.7,-0.162,1.176,0.102
14.71,0.059,0.447,-0.006
14.72,-0.478,0.905,-0.182
14.73,-0.068,1.77,0.052
14.74,-0.067,0.91,0.219
14.75,-0.082,0.718,-0.042
14.76,-0.393,0.379,-0.209
14.77,-0.161,2.0,0.034
14.78,-0.046,0.709,0.076
14.79,-0.144,0.823,-0.038
14.8,-0.32,0.525,-0.219
14.81,-0.143,1.867,0.145
14.82,-0.115,1.041,0.093
14.83,-0.094,0.326,-0.044
14.84,-0.443,1.0,-0.196
14.85,-0.112,1.423,0.132
14.86,-0.246,1.348,0.136
14.87,-0.052,0.386,-0.052
14.88,-0.454,0.903,-0.108
14.89,-0.092,1.515,0.161
14.9,-0.095,0.92,0.067
14.91,-0.118,0.885,-0.129
14.92,-0.347,0.277,-0.192
14.93,-0.139,1.686,0.181
14.94,-0.056,0.804,0.087
14.95,-0.184,0.958,-0.122
14.96,-0.371,0.341,-0.205
14.97,-0.086,1.319,0.168
14.98,-0.156,0.906,-0.014
14.99,-0.238,0.695,-0.138
15.0,-0.462,0.703,-0.133
15.01,-0.007,1.028,0.215
15.02,-0.332,1.243,0.036
15.03,-0.099,0.407,-0.123
15.04,-0.574,1.058,-0.046
15.05,0.006,0.902,0.185
15.06,-0.304,1.224,0.052
15.07,-0.237,0.525,-0.119
15.08,-0.387,0.918,-0.023
15.09,-0.069,1.205,0.183
15.1,-0.12,0.735,0.062
15.11,-0.404,0.958,-0.141
15.12,-0.268,0.852,-0.049
15.13,-0.14,1.289,0.169
15.14,-0.176,0.802,0.047
15.15,-0.352,0.795,-0.158
15.16,-0.283,1.336,-0.058
15.17,-0.088,0.845,0.167
15.18,-0.127,1.172,-0.011
15.19,-0.272,0.406,-0.19
15.2,-0.31,1.799,0.006
15.21,-0.001,0.763,0.166
15.22,-0.171,1.041,0.113
15.23,-0.338,0.657,-0.212
15.24,-0.276,1.413,0.026
15.25,-0.116,1.056,0.107
15.26,-0.068,0.552,0.007
15.27,-0.448,1.071,-0.202
15.28,-0.166,1.294,0.054
15.29,-0.222,1.119,0.173
15.3,-0.001,0.57,0.069
15.31,-0.418,0.906,-0.22
15.32,-0.199,1.661,0.037
15.33,-0.117,0.734,0.149
15.34,-0.108,0.948,0.02
15.35,-0.438,0.378,-0.187
15.36,-0.231,1.984,0.148
15.37,-0.082,0.709,0.15
15.38,-0.095,0.832,0.034
15.39,-0.465,0.585,-0.191
15.4,-0.131,1.688,0.143
15.41,-0.142,1.004,0.143
15.42,0.043,0.416,-0.035
15.43,-0.417,1.052,-0.231
15.44,-0.027,1.533,0.084
15.45,-0.195,1.202,0.142
15.46,0.031,0.41,0.008
15.47,-0.468,0.849,-0.187
15.48,-0.068,1.806,0.113
15.49,-0.116,0.866,0.095
15.5,-0.078,0.814,-0.052
15.51,-0.406,0.321,-0.189
15.52,-0.191,2.0,0.089
15.53,-0.071,0.746,0.091
15.54,-0.148,0.789,-0.005
15.55,-0.514,0.471,-0.15
15.56,-0.192,1.684,0.232
15.57,-0.265,1.22,0.162
15.58,-0.012,0.405,-0.026
15.59,-0.546,1.034,-0.162
15.6,-0.037,1.284,0.201
15.61,-0.265,1.328,0.068
15.62,-0.017,0.51,-0.063
15.63,-0.508,0.761,-0.189
15.64,-0.081,1.475,0.237
15.65,-0.153,1.002,0.083
15.66,-0.24,0.873,-0.064
15.67,-0.358,0.288,-0.184
15.68,-0.255,1.699,0.211
15.69,-0.122,0.805,0.12
15.7,-0.191,0.925,-0.099
15.71,-0.352,0.396,-0.185
15.72,-0.108,1.335,0.159
15.73,-0.18,1.198,0.028
15.74,-0.144,0.463,-0.082
15.75,-0.502,0.943,-0.109
15.76,-0.027,1.033,0.134
15.77,-0.292,1.42,0.073
15.78,-0.106,0.332,-0.139
15.79,-0.536,1.04,-0.109
15.8,0.016,0.962,0.15
15.81,-0.26,1.123,0.044
15.82,-0.222,0.669,-0.143
15.83,-0.475,0.678,-0.065
15.84,-0.191,1.227,0.198
15.85,-0.181,0.717,0.074
15.86,-0.379,0.944,-0.111
15.87,-0.396,0.561,-0.013
15.88,-0.17,1.237,0.169
15.89,-0.144,0.901,0.054
15.9,-0.291,0.654,-0.146
15.91,-0.197,1.304,-0.117
15.92,-0.04,0.872,0.171
15.93,-0.221,1.152,0.059
15.94,-0.209,0.403,-0.179
15.95,-0.344,1.559,-0.071
15.96,-0.035,0.791,0.191
15.97,-0.271,1.035,0.028
15.98,-0.322,0.593,-0.159
15.99,-0.286,1.121,-0.024
16.0,-0.073,1.157,0.126
16.01,-0.087,0.629,0.006
16.02,-0.349,1.077,-0.176
16.03,-0.13,1.135,-0.061
16.04,-0.145,1.167,0.16
16.05,-0.096,0.717,0.033
16.06,-0.432,0.823,-0.18
16.07,-0.269,1.534,0.059
16.08,-0.093,0.75,0.092
16.09,-0.107,1.06,0.054
16.1,-0.322,0.421,-0.235
16.11,-0.323,1.821,0.059
16.12,-0.063,0.673,0.126
16.13,-0.062,0.931,0.06
16.14,-0.396,0.63,-0.243
16.15,-0.27,1.494,0.038
16.16,-0.152,1.087,0.183
16.17,0.015,0.507,0.062
16.18,-0.488,1.061,-0.19
16.19,-0.136,1.305,0.092
16.2,-0.208,1.094,0.169
16.21,0.066,0.578,0.056
16.22,-0.535,0.772,-0.177
16.23,-0.077,1.808,0.092
16.24,-0.124,0.752,0.109
16.25,-0.028,0.898,0.016
16.26,-0.35,0.376,-0.239
16.27,-0.227,1.98,0.135
16.28,-0.085,0.705,0.115
16.29,-0.07,0.827,0.002
16.3,-0.43,0.604,-0.253
16.31,-0.117,1.665,0.096
16.32,-0.146,0.945,0.102
16.33,0.15,0.437,-0.035
16.34,-0.489,1.097,-0.221
16.35,0.02,1.435,0.058
16.36,-0.156,1.197,0.061
16.37,0.058,0.403,-0.026
16.38,-0.389,0.858,-0.224
16.39,-0.061,1.898,0.026
16.4,-0.103,0.803,0.136
16.41,-0.064,0.868,-0.074
16.42,-0.381,0.35,-0.231
16.43,-0.096,2.0,0.101
16.44,-0.028,0.756,0.03
16.45,-0.146,0.73,-0.029
16.46,-0.345,0.586,-0.24
16.47,-0.138,1.685,0.138
16.48,-0.106,1.166,0.06
16.49,-0.018,0.359,-0.078
16.5,-0.507,1.022,-0.181
16.51,-0.089,1.431,0.132
16.52,-0.196,1.293,0.095
16.53,-0.025,0.537,-0.073
16.54,-0.507,0.773,-0.154
16.55,-0.167,1.592,0.214
16.56,-0.124,0.997,0.069
16.57,-0.109,0.811,-0.076
16.58,-0.424,0.455,-0.173
16.59,-0.157,1.513,0.192
16.6,-0.106,0.746,0.06
16.61,-0.238,1.013,-0.098
16.62,-0.431,0.251,-0.13
16.63,-0.202,1.459,0.183
16.64,-0.196,0.964,0.039
16.65,-0.136,0.664,-0.089
16.66,-0.471,0.784,-0.174
16.67,0.02,1.003,0.153
16.68,-0.27,1.377,0.04
16.69,-0.05,0.384,-0.109
16.7,-0.578,0.939,-0.136
16.71,0.009,1.029,0.189
16.72,-0.307,1.104,0.05
16.73,-0.2,0.686,-0.149
16.74,-0.485,0.485,-0.101
16.75,-0.182,1.34,0.179
16.76,-0.134,0.785,0.064
16.77,-0.279,0.912,-0.088
16.78,-0.389,0.498,-0.077
16.79,-0.159,1.276,0.174
16.8,-0.243,0.891,0.064
16.81,-0.24,0.668,-0.128
16.82,-0.413,0.995,-0.157
16.83,-0.01,0.908,0.145
16.84,-0.325,1.282,0.033
16.85,-0.168,0.331,-0.139
16.86,-0.451,1.121,-0.06
16.87,-0.051,0.881,0.163
16.88,-0.29,1.148,0.079
16.89,-0.208,0.634,-0.112
16.9,-0.321,0.973,-0.071
16.91,-0.07,1.248,0.209
16.92,-0.136,0.652,0.055
16.93,-0.396,1.021,-0.156
16.94,-0.241,0.834,-0.066
16.95,-0.183,1.242,0.154
16.96,-0.219,0.82,0.054
16.97,-0.379,0.689,-0.154
16.98,-0.201,1.455,-0.075
16.99,-0.012,0.885,0.197
17.0,-0.235,1.153,0.041
17.01,-0.246,0.391,-0.176
17.02,-0.33,1.783,-0.029
17.03,-0.012,0.813,0.157
17.04,-0.191,0.917,0.053
17.05,-0.396,0.752,-0.201
17.06,-0.286,1.244,0.019
17.07,-0.218,1.074,0.156
17.08,0.031,0.64,0.08
17.09,-0.498,1.062,-0.188
17.1,-0.178,1.147,0.046
17.11,-0.15,1.189,0.168
17.12,-0.079,0.636,0.079
17.13,-0.419,0.872,-0.173
17.14,-0.278,1.624,0.019
17.15,-0.095,0.716,0.173
17.16,-0.147,1.054,0.038
17.17,-0.383,0.394,-0.215
17.18,-0.316,1.848,0.064
17.19,-0.096,0.687,0.152
17.2,-0.094,0.935,0.044
17.21,-0.366,0.715,-0.255
17.22,-0.162,1.485,0.033
17.23,-0.109,1.089,0.136
17.24,-0.026,0.449,0.152
17.25,-0.513,1.101,-0.197
17.26,-0.121,1.338,0.059
17.27,-0.197,1.051,0.095
17.28,-0.025,0.651,0.036
17.29,-0.494,0.82,-0.158
17.3,-0.207,1.74,0.07
17.31,-0.041,0.791,0.152
17.32,-0.105,0.917,0.021
17.33,-0.331,0.371,-0.246
17.34,-0.218,1.938,0.076
17.35,-0.014,0.794,0.123
17.36,-0.133,0.83,0.0
17.37,-0.363,0.614,-0.277
17.38,-0.153,1.621,0.099
17.39,-0.068,0.917,0.064
17.4,-0.076,0.463,0.001
17.41,-0.417,0.983,-0.262
17.42,-0.102,1.496,0.111
17.43,-0.145,1.166,0.137
17.44,0.049,0.378,-0.013
17.45,-0.528,1.005,-0.165
17.46,-0.074,1.625,0.065
17.47,-0.199,1.071,0.089
17.48,0.008,0.741,-0.046
17.49,-0.439,0.546,-0.209
17.5,-0.115,2.0,0.081
17.51,-0.052,0.75,0.102
17.52,-0.073,0.858,-0.033
17.53,-0.447,0.349,-0.221
17.54,-0.119,1.901,0.094
17.55,-0.083,0.954,0.057
17.56,-0.07,0.602,-0.05
17.57,-0.376,0.875,-0.243
17.58,-0.134,1.413,0.182
17.59,-0.166,1.357,0.095
17.6,-0.042,0.367,-0.009
17.61,-0.453,0.987,-0.214
17.62,-0.112,1.393,0.161
17.63,-0.158,1.174,0.116
17.64,-0.064,0.716,-0.076
17.65,-0.481,0.448,-0.15
17.66,-0.181,1.859,0.173
17.67,-0.146,0.82,0.156
17.68,-0.181,0.975,-0.045
17.69,-0.443,0.284,-0.151
17.7,-0.181,1.81,0.18
17.71,-0.158,1.074,0.109
17.72,-0.114,0.587,-0.058
17.73,-0.437,0.824,-0.187
17.74,-0.067,1.237,0.154
17.75,-0.288,1.28,0.118
17.76,-0.018,0.471,-0.069
17.77,-0.59,0.904,-0.145
17.78,0.003,1.323,0.159
17.79,-0.24,1.237,0.103
17.8,-0.09,0.676,-0.114
17.81,-0.412,0.5,-0.187
17.82,-0.169,1.591,0.176
17.83,-0.061,0.794,0.097
17.84,-0.21,0.994,-0.079
17.85,-0.37,0.296,-0.223
17.86,-0.202,1.427,0.151
17.87,-0.175,0.981,0.052
17.88,-0.17,0.658,-0.098
17.89,-0.46,0.757,-0.158
17.9,-0.058,1.114,0.176
17.91,-0.228,1.391,0.05
17.92,-0.066,0.365,-0.093
17.93,-0.526,0.97,-0.203
17.94,0.016,1.081,0.183
17.95,-0.176,1.191,0.042
17.96,-0.143,0.731,-0.134
17.97,-0.422,0.486,-0.164
17.98,-0.139,1.346,0.183
17.99,-0.085,0.853,0.075
18.0,-0.302,0.919,-0.108
18.01,-0.412,0.292,-0.182
18.02,-0.16,1.298,0.156
18.03,-0.135,0.905,-0.035
18.04,-0.219,0.638,-0.121
18.05,-0.477,0.792,-0.177
18.06,0.013,0.975,0.213
18.07,-0.269,1.295,0.047
18.08,-0.171,0.296,-0.126
18.09,-0.498,1.025,-0.129
18.1,0.004,0.991,0.15
18.11,-0.272,1.146,0.02
18.12,-0.203,0.424,-0.1
18.13,-0.462,1.106,-0.009
18.14,-0.09,1.049,0.146
18.15,-0.229,0.86,0.141
18.16,-0.362,0.863,-0.156
18.17,-0.387,0.706,-0.042
18.18,-0.144,1.302,0.193
18.19,-0.016,0.712,0.057
18.2,-0.397,1.017,-0.219
18.21,-0.171,1.05,-0.05
18.22,-0.167,1.128,0.166
18.23,-0.082,0.798,0.012
18.24,-0.345,0.75,-0.225
18.25,-0.194,1.621,-0.076
18.26,-0.036,0.799,0.092
18.27,-0.142,1.058,0.062
18.28,-0.331,0.417,-0.228
18.29,-0.415,1.704,0.034
18.3,-0.135,0.689,0.15
18.31,-0.199,0.987,0.116
18.32,-0.349,0.747,-0.174
18.33,-0.363,1.329,0.035
18.34,-0.176,1.079,0.113
18.35,0.065,0.552,-0.028
18.36,-0.47,1.04,-0.141
18.37,-0.17,1.243,0.002
18.38,-0.24,1.107,0.129
18.39,0.016,0.651,0.051
18.4,-0.498,0.797,-0.152
18.41,-0.164,1.675,0.053
18.42,-0.226,0.667,0.115
18.43,-0.111,0.978,0.037
18.44,-0.302,0.392,-0.148
18.45,-0.344,1.927,0.136
18.46,-0.134,0.655,0.165
18.47,-0.012,0.874,0.026
18.48,-0.41,0.683,-0.213
18.49,-0.186,1.586,0.137
18.5,-0.229,1.098,0.13
18.51,0.06,0.414,0.038
18.52,-0.416,1.033,-0.219
18.53,-0.036,1.5,0.081
18.54,-0.164,1.183,0.092
18.55,-0.03,0.453,0.022
18.56,-0.462,0.796,-0.197
18.57,-0.046,1.953,0.029
18.58,-0.097,0.76,0.125
18.59,-0.043,0.859,0.032
18.6,-0.405,0.376,-0.216
18.61,-0.139,2.0,0.065
18.62,-0.092,0.741,0.084
18.63,-0.112,0.735,-0.01
18.64,-0.363,0.6,-0.245
18.65,-0.085,1.756,0.124
18.66,-0.178,1.118,0.077
18.67,0.08,0.334,-0.022
18.68,-0.522,1.092,-0.186
18.69,-0.021,1.614,0.125
18.7,-0.247,1.237,0.083
18.71,0.043,0.495,-0.036
18.72,-0.419,0.807,-0.171
18.73,-0.107,1.74,0.117
18.74,-0.171,0.896,0.096
18.75,-0.103,0.909,-0.082
18.76,-0.424,0.237,-0.142
18.77,-0.257,1.875,0.172
18.78,-0.151,0.814,0.118
18.79,-0.189,0.877,-0.067
18.8,-0.462,0.477,-0.149
18.81,-0.067,1.425,0.155
18.82,-0.308,1.261,0.103
18.83,0.044,0.484,-0.116
18.84,-0.517,0.997,-0.193
18.85,0.074,1.165,0.189
18.86,-0.255,1.345,0.093
18.87,-0.143,0.513,-0.068
18.88,-0.403,0.673,-0.164
18.89,-0.045,1.333,0.201
18.9,-0.147,1.015,0.109
18.91,-0.273,0.891,-0.116
18.92,-0.397,0.3,-0.118
18.93,-0.197,1.492,0.152
18.94,-0.132,0.874,0.092
18.95,-0.243,0.89,-0.118
18.96,-0.411,0.523,-0.15
18.97,-0.103,1.154,0.2
18.98,-0.176,1.226,-0.011
18.99,-0.222,0.597,-0.112
19.0,-0.386,1.083,-0.117
19.01,-0.16,0.871,0.237
19.02,-0.216,1.307,0.078
19.03,-0.269,0.248,-0.133
19.04,-0.26,1.444,-0.09
19.05,-0.035,0.899,0.154
19.06,-0.259,1.044,0.075
19.07,-0.234,0.775,-0.178
19.08,-0.356,1.01,-0.066
19.09,-0.088,1.187,0.114
19.1,-0.102,0.709,0.062
19.11,-0.402,1.066,-0.224
19.12,-0.277,0.829,-0.041
19.13,-0.149,1.121,0.104
19.14,-0.189,0.852,0.019
19.15,-0.227,0.689,-0.208
19.16,-0.34,1.722,0.031
19.17,0.058,0.739,0.179
19.18,-0.263,1.052,0.087
19.19,-0.313,0.399,-0.185
19.2,-0.433,1.817,0.09
19.21,-0.107,0.764,0.176
19.22,-0.142,0.854,0.036
19.23,-0.347,0.713,-0.217
19.24,-0.238,1.41,0.016
19.25,-0.136,1.045,0.095
19.26,-0.029,0.51,0.042
19.27,-0.423,1.042,-0.194
19.28,-0.198,1.408,0.065
19.29,-0.142,1.061,0.123
19.3,-0.022,0.558,0.008
19.31,-0.446,0.703,-0.17
19.32,-0.098,1.92,0.074
19.33,-0.154,0.722,0.134
19.34,-0.148,0.852,0.008
19.35,-0.426,0.381,-0.17
19.36,-0.146,2.0,0.12
19.37,-0.172,0.705,0.183
19.38,-0.152,0.691,-0.01
19.39,-0.495,0.633,-0.22
19.4,-0.046,1.732,0.113
19.41,-0.018,1.494,0.165
19.42,-0.258,1.291,0.079
19.43,0.06,0.418,-0.086
19.44,-0.526,0.958,-0.196
19.45,0.068,1.179,0.148
19.46,-0.336,1.303,0.07
19.47,-0.066,0.601,-0.076
19.48,-0.469,0.639,-0.156
19.49,-0.098,1.373,0.166
19.5,-0.106,1.013,0.084
19.51,-0.208,0.918,-0.162
19.52,-0.376,0.253,-0.168
19.53,-0.132,1.359,0.179
19.54,-0.177,0.734,0.052
19.55,-0.365,0.918,-0.14
19.56,-0.38,0.487,-0.099
19.57,-0.11,1.272,0.141
19.58,-0.239,0.993,0.027
19.59,-0.189,0.542,-0.154
19.6,-0.353,1.131,-0.122
19.61,-0.026,0.858,0.171
19.62,-0.262,1.347,0.016
19.63,-0.224,0.294,-0.157
19.64,-0.339,1.273,-0.015
19.65,-0.037,0.851,0.156
19.66,-0.219,1.026,0.053
19.67,-0.327,0.758,-0.154
19.68,-0.268,0.949,-0.018
19.69,-0.235,1.216,0.149
19.7,-0.087,0.632,0.029
19.71,-0.45,0.969,-0.142
19.72,-0.159,1.186,-0.043
19.73,-0.094,1.155,0.117
19.74,-0.148,0.736,0.034
19.75,-0.407,0.806,-0.148
19.76,-0.296,1.7,0.032
19.77,-0.099,0.674,0.172
19.78,-0.24,1.06,0.04
19.79,-0.402,0.392,-0.192
19.8,-0.379,1.837,0.083
19.81,-0.056,0.784,0.19
19.82,-0.16,0.823,0.075
19.83,-0.41,0.771,-0.161
19.84,-0.267,1.478,0.02
19.85,-0.131,1.117,0.203
19.86,0.036,0.415,0.024
19.87,-0.488,1.056,-0.177
19.88,-0.049,1.45,0.056
19.89,-0.203,1.107,0.131
19.9,-0.011,0.568,0.021
19.91,-0.468,0.702,-0.188
19.92,-0.098,1.892,0.095
19.93,-0.08,0.7,0.122
19.94,-0.139,0.894,0.021
19.95,-0.341,0.397,-0.213
19.96,-0.172,2.0,0.079
19.97,-0.053,0.704,0.125
19.98,-0.071,0.733,-0.019
19.99,-0.466,0.668,-0.242
20.0,-0.014,1.66,0.138
20.01,-0.182,1.251,0.084
20.02,0.022,0.28,-0.002
20.03,-0.495,1.089,-0.203
20.04,-0.046,1.472,0.142
20.05,-0.187,1.199,0.073
20.06,0.043,0.59,-0.06
20.07,-0.51,0.594,-0.157
20.08,-0.178,1.711,0.147
20.09,-0.184,0.795,0.115
20.1,-0.117,1.012,-0.019
20.11,-0.482,0.212,-0.15
20.12,-0.181,1.726,0.174
20.13,-0.172,0.917,0.078
20.14,-0.131,0.768,-0.082
20.15,-0.434,0.607,-0.149
20.16,-0.059,1.29,0.166
20.17,-0.254,1.238,0.04
20.18,-0.021,0.438,-0.096
20.19,-0.482,0.96,-0.184
20.2,-0.003,1.085,0.153
20.21,-0.316,1.296,0.057
20.22,-0.109,0.582,-0.088
20.23,-0.417,0.572,-0.16
20.24,-0.114,1.314,0.137
20.25,-0.106,0.868,0.027
20.26,-0.27,0.935,-0.148
20.27,-0.393,0.254,-0.131
20.28,-0.173,1.354,0.185
20.29,-0.208,0.833,0.009
20.3,-0.182,0.752,-0.16
20.31,-0.518,0.682,-0.171
20.32,0.018,1.067,0.189
20.33,-0.246,0.994,0.071
20.34,-0.16,0.563,-0.204
20.35,-0.437,1.278,-0.089
20.36,-0.024,0.791,0.206
20.37,-0.317,1.282,0.097
20.38,-0.21,0.318,-0.172
20.39,-0.326,1.384,-0.062
20.4,-0.093,0.868,0.175
20.41,-0.185,0.938,0.02
20.42,-0.394,0.755,-0.155
20.43,-0.169,1.027,-0.039
20.44,-0.216,1.243,0.161
20.45,-0.092,0.649,0.088
20.46,-0.44,1.05,-0.173
20.47,-0.17,1.104,-0.024
20.48,-0.14,1.045,0.103
20.49,-0.168,0.883,-0.016
20.5,-0.316,0.624,-0.171
20.51,-0.274,1.718,0.017
20.52,-0.051,0.696,0.125
20.53,-0.18,1.069,0.022
20.54,-0.305,0.405,-0.214
20.55,-0.276,1.747,0.017
20.56,-0.04,0.807,0.139
20.57,-0.079,0.777,0.041
20.58,-0.403,0.879,-0.223
20.59,-0.205,1.393,0.041
20.6,-0.167,1.18,0.174
20.61,0.055,0.404,0.038
20.62,-0.561,1.088,-0.204
20.63,-0.019,1.469,0.02
20.64,-0.232,0.969,0.167
20.65,0.041,0.665,0.033
20.66,-0.5,0.66,-0.171
20.67,-0.106,1.913,0.095
20.68,-0.112,0.687,0.111
20.69,-0.051,0.951,0.011
20.7,-0.448,0.372,-0.219
20.71,-0.103,2.0,0.111
20.72,-0.12,0.77,0.104
20.73,0.069,0.687,-0.005
20.74,-0.447,0.831,-0.28
20.75,-0.009,1.55,0.085
20.76,-0.189,1.212,0.153
20.77,0.094,0.291,-0.015
20.78,-0.531,1.094,-0.198
20.79,0.019,1.554,0.052
20.8,-0.169,1.146,0.095
20.81,0.007,0.571,-0.005
20.82,-0.476,0.612,-0.178
20.83,-0.064,1.981,0.06
20.84,-0.054,0.77,0.097
20.85,-0.107,0.88,-0.041
20.86,-0.41,0.362,-0.208
20.87,-0.091,2.0,0.094
20.88,-0.114,0.821,0.042
20.89,-0.08,0.644,-0.03
20.9,-0.395,0.741,-0.242
20.91,-0.102,1.562,0.094
20.92,-0.134,1.282,0.09
20.93,-0.007,0.436,-0.044
20.94,-0.513,0.999,-0.211
20.95,-0.024,1.405,0.132
20.96,-0.172,1.246,0.056
20.97,-0.027,0.605,-0.076
20.98,-0.489,0.565,-0.152
20.99,-0.129,1.649,0.166
21.0,-0.051,0.848,0.075
21.01,-0.197,1.005,-0.094
21.02,-0.367,0.21,-0.159
21.03,-0.204,1.801,0.156
21.04,-0.112,0.937,0.105
21.05,-0.142,0.791,-0.063
21.06,-0.477,0.663,-0.164
21.07,-0.088,1.384,0.155
21.08,-0.245,1.372,0.079
21.09,-0.031,0.401,-0.04
21.1,-0.488,1.028,-0.141
21.11,-0.087,1.154,0.169
21.12,-0.209,1.205,0.102
21.13,-0.143,0.433,-0.127
21.14,-0.405,0.814,-0.141
21.15,-0.084,1.15,0.166
21.16,-0.21,1.048,0.038
21.17,-0.189,0.744,-0.157
21.18,-0.402,0.391,-0.163
21.19,-0.057,1.404,0.152
21.2,-0.194,0.793,0.016
21.21,-0.255,0.903,-0.094
21.22,-0.394,0.556,-0.136
21.23,-0.087,1.183,0.192
21.24,-0.122,1.104,-0.016
21.25,-0.245,0.34,-0.186
21.26,-0.349,1.251,-0.091
21.27,-0.011,0.889,0.144
21.28,-0.353,1.219,0.063
21.29,-0.133,0.437,-0.087
21.3,-0.438,1.191,-0.057
21.31,-0.053,0.947,0.172
21.32,-0.233,0.941,0.047
21.33,-0.322,0.797,-0.174
21.34,-0.313,0.812,-0.032
21.35,-0.14,1.27,0.192
21.36,-0.124,0.708,0.058
21.37,-0.392,0.929,-0.182
21.38,-0.197,1.096,-0.038
21.39,-0.111,1.054,0.124
21.4,-0.163,0.982,0.022
21.41,-0.329,0.565,-0.197
21.42,-0.232,1.646,-0.043
21.43,-0.061,0.699,0.141
21.44,-0.24,1.153,0.025
21.45,-0.266,0.414,-0.193
21.46,-0.269,1.683,-0.036
21.47,-0.017,0.884,0.113
21.48,-0.132,0.752,0.061
21.49,-0.437,0.958,-0.157
21.5,-0.273,1.256,0.049
21.51,-0.242,1.124,0.159
21.52,-0.049,0.568,0.072
21.53,-0.482,1.009,-0.206
21.54,-0.237,1.305,0.058
21.55,-0.134,0.992,0.14
21.56,-0.039,0.787,0.033
21.57,-0.385,0.644,-0.192
21.58,-0.337,1.826,0.088
21.59,-0.045,0.647,0.175
21.6,-0.169,1.042,0.06
21.61,-0.302,0.415,-0.196
21.62,-0.339,1.827,0.054
21.63,-0.094,0.791,0.157
21.64,-0.081,0.71,0.049
21.65,-0.414,0.835,-0.183
21.66,-0.138,1.463,0.103
21.67,-0.226,1.107,0.17
21.68,0.07,0.431,0.064
21.69,-0.458,1.115,-0.203
21.7,-0.038,1.506,0.1
21.71,-0.221,0.973,0.148
21.72,-0.038,0.661,0.004
21.73,-0.417,0.632,-0.222
21.74,-0.119,1.951,0.061
21.75,-0.001,0.654,0.063
21.76,-0.075,0.891,-0.006
21.77,-0.293,0.41,-0.261
21.78,-0.181,1.904,0.06
21.79,-0.03,0.856,0.163
21.8,-0.146,0.601,-0.024
21.81,-0.455,0.821,-0.224
21.82,-0.027,1.672,0.125
21.83,-0.186,1.236,0.138
21.84,0.048,0.287,-0.02
21.85,-0.516,1.1,-0.255
21.86,-0.001,1.588,0.123
21.87,-0.179,1.109,0.091
21.88,-0.012,0.591,-0.031
21.89,-0.417,0.616,-0.186
21.9,-0.242,1.782,0.142
21.91,-0.151,0.751,0.144
21.92,-0.22,1.006,-0.009
21.93,-0.393,0.186,-0.151
21.94,-0.113,1.752,0.187
21.95,-0.147,0.921,0.173
21.96,-0.167,0.878,-0.057
21.97,-0.434,0.43,-0.208
21.98,-0.074,1.438,0.245
21.99,-0.184,1.26,0.064
22.0,-0.066,0.466,-0.101
22.01,-0.47,0.962,-0.204
22.02,0.061,1.094,0.147
22.03,-0.25,1.364,0.075
22.04,-0.108,0.478,-0.071
22.05,-0.457,0.794,-0.157
22.06,-0.067,1.271,0.149
22.07,-0.144,1.097,0.069
22.08,-0.201,0.875,-0.115
22.09,-0.395,0.33,-0.124
22.1,-0.17,1.42,0.185
22.11,-0.16,0.74,0.032
22.12,-0.265,1.008,-0.098
22.13,-0.451,0.493,-0.121
22.14,-0.138,1.112,0.218
22.15,-0.256,1.143,-0.013
22.16,-0.106,0.389,-0.133
22.17,-0.542,1.073,-0.088
22.18,0.037,0.878,0.138
22.19,-0.3,1.319,0.011
22.2,-0.131,0.401,-0.133
22.21,-0.549,0.978,-0.024
22.22,-0.011,1.024,0.146
22.23,-0.282,0.921,0.033
22.24,-0.214,0.809,-0.16
22.25,-0.373,0.678,-0.043
22.26,-0.136,1.338,0.126
22.27,-0.161,0.746,0.009
22.28,-0.369,0.914,-0.163
22.29,-0.218,1.006,-0.045
22.3,-0.096,1.05,0.153
22.31,-0.185,1.075,-0.006
22.32,-0.273,0.507,-0.142
22.33,-0.28,1.661,-0.054
22.34,-0.02,0.715,0.132
22.35,-0.277,1.181,0.038
22.36,-0.299,0.403,-0.199
22.37,-0.26,1.579,-0.012
22.38,-0.053,0.856,0.087
22.39,-0.112,0.744,0.056
22.4,-0.358,0.962,-0.18
22.41,-0.278,1.226,0.059
22.42,-0.099,1.171,0.173
22.43,-0.08,0.527,0.047
22.44,-0.454,1.018,-0.149
22.45,-0.267,1.418,0.064
22.46,-0.176,0.906,0.153
22.47,-0.081,0.828,-0.016
22.48,-0.385,0.523,-0.211
22.49,-0.168,1.948,0.072
22.5,-0.017,0.671,0.14
22.51,-0.101,0.996,-0.002
22.52,-0.381,0.466,-0.179
22.53,-0.177,1.945,0.105
22.54,-0.147,0.818,0.116
22.55,0.016,0.623,0.002
22.56,-0.5,0.835,-0.309
22.57,0.066,1.55,0.042
22.58,-0.263,1.2,0.103
22.59,0.134,0.339,-0.008
22.6,-0.523,1.053,-0.217
22.61,-0.06,1.564,0.058
22.62,-0.132,1.059,0.034
22.63,0.038,0.692,-0.019
22.64,-0.408,0.532,-0.173
22.65,-0.119,1.969,0.086
22.66,-0.065,0.71,0.028
22.67,-0.107,0.943,-0.044
22.68,-0.403,0.369,-0.192
22.69,-0.132,1.894,0.075
22.7,-0.101,0.904,0.089
22.71,-0.056,0.572,-0.045
22.72,-0.489,0.83,-0.201
22.73,-0.049,1.414,0.187
22.74,-0.178,1.235,0.031
22.75,-0.076,0.395,-0.132
22.76,-0.46,0.964,-0.197
22.77,0.019,1.107,0.102
22.78,-0.249,1.341,0.023
22.79,-0.108,0.487,-0.077
22.8,-0.449,0.712,-0.164
22.81,-0.094,1.256,0.193
22.82,-0.146,0.918,0.056
22.83,-0.27,0.901,-0.122
22.84,-0.346,0.226,-0.176
22.85,-0.17,1.482,0.159
22.86,-0.174,0.869,0.032
22.87,-0.253,0.794,-0.085
22.88,-0.449,0.531,-0.168
22.89,0.006,1.169,0.167
22.9,-0.238,1.205,0.01
22.91,-0.137,0.428,-0.143
22.92,-0.506,1.035,-0.119
22.93,0.055,0.957,0.148
22.94,-0.234,1.263,0.025
22.95,-0.179,0.41,-0.127
22.96,-0.486,0.874,-0.045
22.97,-0.1,1.1,0.165
22.98,-0.205,0.885,0.06
22.99,-0.324,0.792,-0.139
23.0,-0.293,0.703,-0.06
23.01,-0.149,1.311,0.197
23.02,-0.161,0.727,0.099
23.03,-0.318,0.959,-0.153
23.04,-0.302,0.954,-0.087
23.05,-0.113,1.038,0.202
23.06,-0.254,1.121,0.06
23.07,-0.258,0.4,-0.162
23.08,-0.316,1.476,-0.071
23.09,-0.022,0.756,0.174
23.1,-0.284,1.217,0.054
23.11,-0.231,0.398,-0.144
23.12,-0.284,1.461,-0.072
23.13,-0.075,0.991,0.122
23.14,-0.074,0.736,0.032
23.15,-0.43,0.959,-0.185
23.16,-0.136,1.094,-0.012
23.17,-0.188,1.152,0.16
23.18,-0.058,0.598,0.053
23.19,-0.441,1.004,-0.181
23.2,-0.303,1.246,0.02
23.21,-0.098,0.922,0.12
23.22,-0.102,1.003,0.032
23.23,-0.397,0.484,-0.224
23.24,-0.24,1.874,0.023
23.25,-0.07,0.685,0.073
23.26,-0.152,1.032,0.075
23.27,-0.295,0.431,-0.175
23.28,-0.351,1.701,0.07
23.29,-0.072,0.846,0.125
23.3,-0.061,0.655,0.052
23.31,-0.446,0.926,-0.184
23.32,-0.14,1.307,0.09
23.33,-0.257,1.112,0.185
23.34,0.058,0.489,0.047
23.35,-0.53,0.979,-0.153
23.36,-0.097,1.555,0.059
23.37,-0.054,0.952,0.075
23.38,0.002,0.745,-0.006
23.39,-0.42,0.472,-0.146
23.4,-0.162,2.0,0.098
23.41,-0.035,0.625,0.116
23.42,-0.13,0.906,-0.005
23.43,-0.378,0.403,-0.216
23.44,-0.044,1.943,0.071
23.45,-0.099,0.934,0.058
23.46,-0.04,0.403,-0.016
23.47,-0.448,0.978,-0.205
23.48,-0.051,1.521,0.14
23.49,-0.343,1.231,0.166
23.5,0.013,0.38,0.013
23.51,-0.631,0.978,-0.129
23.52,-0.066,1.577,0.22
23.53,-0.294,1.151,0.123
23.54,0.005,0.544,-0.083
23.55,-0.498,0.655,-0.166
23.56,-0.045,1.532,0.226
23.57,-0.125,0.945,0.082
23.58,-0.226,0.96,-0.088
23.59,-0.426,0.237,-0.147
23.6,-0.205,1.643,0.203
23.61,-0.137,0.882,0.077
23.62,-0.172,0.858,-0.117
23.63,-0.377,0.497,-0.185
23.64,-0.053,1.136,0.206
23.65,-0.254,1.352,0.066
23.66,-0.088,0.424,-0.096
23.67,-0.496,0.954,-0.174
23.68,0.025,0.966,0.17
23.69,-0.207,1.313,0.016
23.7,-0.192,0.473,-0.162
23.71,-0.431,0.709,-0.096
23.72,-0.102,1.288,0.189
23.73,-0.171,0.854,0.082
23.74,-0.287,0.883,-0.128
23.75,-0.372,0.416,-0.04
23.76,-0.23,1.361,0.205
23.77,-0.169,0.758,0.089
23.78,-0.349,0.834,-0.104
23.79,-0.401,0.874,-0.07
23.8,-0.089,1.018,0.164
23.81,-0.299,1.178,0.053
23.82,-0.152,0.407,-0.151
23.83,-0.431,1.308,-0.043
23.84,0.035,0.803,0.183
23.85,-0.333,1.234,0.022
23.86,-0.235,0.403,-0.142
23.87,-0.247,1.397,-0.04
23.88,-0.095,1.035,0.187
23.89,-0.122,0.712,0.037
23.9,-0.456,0.986,-0.162
23.91,-0.23,1.111,0.014
23.92,-0.184,1.176,0.157
23.93,-0.111,0.677,0.023
23.94,-0.417,0.931,-0.197
23.95,-0.192,1.472,-0.026
23.96,-0.14,0.844,0.167
23.97,-0.128,0.983,0.036
23.98,-0.43,0.449,-0.199
23.99,-0.261,1.871,0.071
24.0,-0.145,0.635,0.164
24.01,-0.161,1.013,0.077
24.02,-0.37,0.516,-0.175
24.03,-0.271,1.669,0.092
24.04,-0.06,1.018,0.101
24.05,-0.009,0.535,0.012
24.06,-0.397,1.005,-0.172
24.07,-0.135,1.403,0.111
24.08,-0.145,1.14,0.169
24.09,0.014,0.414,0.035
24.1,-0.408,0.974,-0.201
24.11,-0.082,1.666,0.1
24.12,-0.02,0.856,0.104
24.13,-0.031,0.824,-0.027
24.14,-0.355,0.446,-0.256
24.15,-0.111,2.0,0.063
24.16,-0.083,0.692,0.114
24.17,-0.129,0.843,-0.04
24.18,-0.366,0.449,-0.239
24.19,-0.114,1.827,0.082
24.2,-0.152,0.973,0.071
24.21,-0.017,0.5,-0.019
24.22,-0.529,0.914,-0.179
24.23,-0.063,1.349,0.179
24.24,-0.32,1.39,0.173
24.25,-0.066,0.44,-0.035
24.26,-0.541,0.894,-0.136
24.27,-0.029,1.457,0.209
24.28,-0.149,1.038,0.1
24.29,-0.141,0.83,-0.12
24.3,-0.382,0.321,-0.176
24.31,-0.163,1.657,0.201
24.32,-0.167,0.813,0.103
24.33,-0.163,0.942,-0.091
24.34,-0.404,0.265,-0.183
24.35,-0.095,1.446,0.134
24.36,-0.131,0.79,0.025
24.37,-0.289,0.782,-0.183
24.38,-0.419,0.689,-0.135
24.39,-0.032,1.029,0.175
24.4,-0.306,1.269,-0.008
24.41,-0.086,0.358,-0.118
24.42,-0.566,1.137,-0.126
24.43,0.081,0.965,0.145
24.44,-0.257,1.247,0.048
24.45,-0.294,0.443,-0.136
24.46,-0.349,0.852,-0.055
24.47,-0.158,1.219,0.167
24.48,-0.105,0.742,0.084
24.49,-0.32,0.921,-0.13
24.5,-0.379,0.764,-0.03
24.51,-0.097,1.284,0.144
24.52,-0.224,0.829,0.049
24.53,-0.252,0.797,-0.152
24.54,-0.3,1.234,-0.103
24.55,-0.048,0.933,0.165
24.56,-0.227,1.162,0.01
24.57,-0.227,0.404,-0.185
24.58,-0.296,1.674,-0.05
24.59,-0.063,0.747,0.127
24.6,-0.292,1.101,0.057
24.61,-0.348,0.505,-0.196
24.62,-0.259,1.383,-0.021
24.63,-0.108,1.01,0.13
24.64,-0.076,0.608,0.028
24.65,-0.458,1.069,-0.216
24.66,-0.16,1.225,-0.003
24.67,-0.236,1.118,0.164
24.68,-0.068,0.643,0.096
24.69,-0.502,0.845,-0.168
24.7,-0.321,1.525,0.13
24.71,-0.166,0.854,0.205
24.72,-0.213,0.943,0.091
24.73,-0.35,0.454,-0.158
24.74,-0.369,2.0,0.116
24.75,-0.013,0.643,0.165
24.76,-0.151,0.964,0.049
24.77,-0.352,0.536,-0.171
24.78,-0.126,1.674,0.099
24.79,-0.105,1.0,0.044
24.8,0.058,0.471,-0.023
24.81,-0.416,1.033,-0.211
24.82,-0.002,1.494,0.072
24.83,-0.171,1.111,0.042
24.84,0.124,0.491,-0.04
24.85,-0.496,0.908,-0.22
24.86,-0.047,1.686,0.095
24.87,-0.146,0.835,0.088
24.88,-0.028,0.775,-0.044
24.89,-0.402,0.41,-0.206
24.9,-0.154,2.0,0.09
24.91,-0.107,0.708,0.072
24.92,-0.164,0.845,-0.014
24.93,-0.367,0.48,-0.205
24.94,-0.156,1.697,0.136
24.95,-0.19,1.062,0.061
24.96,-0.014,0.472,-0.081
24.97,-0.548,0.941,-0.188
24.98,0.036,1.33,0.123
24.99,-0.281,1.356,0.066
25.0,-0.044,0.402,-0.067
25.01,-0.519,0.788,-0.132
25.02,-0.095,1.392,0.176
25.03,-0.21,1.01,0.086
25.04,-0.191,0.88,-0.09
25.05,-0.414,0.23,-0.13
25.06,-0.204,1.612,0.197
25.07,-0.117,0.854,0.107
25.08,-0.282,0.917,-0.082
25.09,-0.347,0.399,-0.173
25.1,-0.147,1.29,0.121
25.11,-0.154,1.204,0.002
25.12,-0.084,0.472,-0.148
25.13,-0.51,0.953,-0.15
25.14,0.095,0.973,0.142
25.15,-0.28,1.269,0.006
25.16,-0.136,0.32,-0.159
25.17,-0.537,1.183,-0.047
25.18,-0.064,0.891,0.187
25.19,-0.288,1.167,0.065
25.2,-0.281,0.493,-0.125
25.21,-0.348,0.908,-0.046
25.22,-0.079,1.198,0.172
25.23,-0.142,0.726,0.033
25.24,-0.313,0.948,-0.155
25.25,-0.198,0.955,-0.082
25.26,-0.101,1.284,0.187
25.27,-0.113,0.801,0.058
25.28,-0.427,0.816,-0.171
25.29,-0.267,1.258,-0.059
25.3,-0.06,0.811,0.109
25.31,-0.245,1.222,-0.045
25.32,-0.176,0.328,-0.258
25.33,-0.266,1.711,-0.036
25.34,0.02,0.752,0.171
25.35,-0.149,1.027,0.037
25.36,-0.303,0.73,-0.248
25.37,-0.305,1.363,-0.01
25.38,-0.122,1.034,0.204
25.39,-0.05,0.618,0.064
25.4,-0.488,1.012,-0.199
25.41,-0.218,1.254,0.065
25.42,-0.216,1.106,0.215
25.43,-0.017,0.609,0.074
25.44,-0.44,0.868,-0.154
25.45,-0.194,1.702,0.089
25.46,-0.09,0.775,0.154
25.47,-0.141,0.925,0.022
25.48,-0.379,0.388,-0.184
25.49,-0.282,1.946,0.136
25.5,-0.137,0.626,0.136
25.51,-0.157,0.882,0.045
25.52,-0.402,0.579,-0.188
25.53,-0.173,1.697,0.102
25.54,-0.097,1.054,0.089
25.55,0.103,0.396,-0.056
25.56,-0.404,1.085,-0.245
25.57,-0.015,1.486,0.024
25.58,-0.104,1.116,0.101
25.59,0.065,0.47,-0.02
25.6,-0.467,0.843,-0.206
25.61,-0.024,1.893,0.068
25.62,-0.169,0.851,0.122
25.63,-0.073,0.857,-0.021
25.64,-0.405,0.363,-0.155
25.65,-0.154,2.0,0.076
25.66,-0.107,0.72,0.075
25.67,-0.113,0.815,-0.024
25.68,-0.395,0.466,-0.169
25.69,-0.066,1.778,0.144
25.7,-0.187,1.15,0.077
25.71,0.039,0.385,-0.07
25.72,-0.64,1.036,-0.16
25.73,0.035,1.334,0.212
25.74,-0.332,1.322,0.124
25.75,-0.057,0.482,-0.033
25.76,-0.482,0.717,-0.148
25.77,-0.1,1.43,0.183
25.78,-0.232,0.923,0.121
25.79,-0.185,0.947,-0.103
25.8,-0.353,0.207,-0.188
25.81,-0.139,1.645,0.163
25.82,-0.117,0.827,0.108
25.83,-0.242,0.899,-0.101
25.84,-0.471,0.478,-0.147
25.85,-0.099,1.269,0.196
25.86,-0.215,1.198,0.04
25.87,-0.008,0.526,-0.137
25.88,-0.554,0.988,-0.165
25.89,0.07,0.923,0.176
25.9,-0.34,1.32,0.075
25.91,-0.102,0.453,-0.143
25.92,-0.539,0.803,-0.144
25.93,-0.0,1.182,0.123
25.94,-0.148,1.02,0.03
25.95,-0.226,0.609,-0.138
25.96,-0.392,0.744,-0.03
25.97,-0.111,1.219,0.113
25.98,-0.126,0.727,0.012
25.99,-0.313,0.924,-0.147
26.0,-0.282,0.771,-0.065
26.01,-0.23,1.208,0.157
26.02,-0.188,0.863,0.048
26.03,-0.321,0.714,-0.143
26.04,-0.228,1.435,-0.107
26.05,0.005,0.873,0.153
26.06,-0.283,1.15,0.005
26.07,-0.235,0.44,-0.15
26.08,-0.351,1.716,-0.02
26.09,0.028,0.781,0.147
26.1,-0.211,1.007,0.024
26.11,-0.405,0.753,-0.194
26.12,-0.247,1.274,0.034
26.13,-0.163,1.039,0.178
26.14,-0.024,0.67,0.049
26.15,-0.471,1.003,-0.181
26.16,-0.204,1.223,0.069
26.17,-0.156,1.209,0.21
26.18,-0.09,0.595,0.04
26.19,-0.408,0.84,-0.172
26.2,-0.27,1.786,0.057
26.21,-0.092,0.709,0.182
26.22,-0.138,0.99,0.049
26.23,-0.381,0.349,-0.22
26.24,-0.229,1.889,0.107
26.25,-0.091,0.741,0.095
26.26,-0.073,0.805,0.017
26.27,-0.373,0.7,-0.231
26.28,-0.139,1.592,0.126
26.29,-0.079,1.097,0.13
26.3,0.059,0.383,-0.031
26.31,-0.455,1.043,-0.208
26.32,-0.02,1.568,0.057
26.33,-0.107,1.21,0.096
26.34,0.003,0.453,-0.012
26.35,-0.435,0.838,-0.196
26.36,-0.078,1.907,0.007
26.37,0.004,0.79,0.079
26.38,-0.121,0.826,-0.035
26.39,-0.359,0.306,-0.239
26.4,-0.149,2.0,0.077
26.41,-0.087,0.736,0.118
26.42,-0.102,0.751,-0.035
26.43,-0.46,0.586,-0.208
26.44,-0.049,1.652,0.128
26.45,-0.162,1.225,0.057
26.46,0.041,0.417,-0.06
26.47,-0.494,1.003,-0.188
26.48,0.012,1.404,0.138
26.49,-0.208,1.284,0.082
26.5,-0.009,0.606,-0.062
26.51,-0.487,0.686,-0.204
26.52,0.003,1.608,0.191
26.53,-0.108,1.008,0.06
26.54,-0.167,0.91,-0.083
26.55,-0.34,0.26,-0.242
26.56,-0.187,1.704,0.124
26.57,-0.06,0.89,0.081
26.58,-0.221,0.935,-0.08
26.59,-0.446,0.438,-0.16
26.6,-0.116,1.341,0.213
26.61,-0.258,1.315,0.067
26.62,-0.031,0.484,-0.068
26.63,-0.524,0.991,-0.154
26.64,-0.04,1.052,0.178
26.65,-0.216,1.375,0.073
26.66,-0.141,0.462,-0.064
26.67,-0.45,0.757,-0.095
26.68,-0.104,1.248,0.159
26.69,-0.151,0.909,0.011
26.7,-0.248,0.948,-0.11
26.71,-0.411,0.279,-0.098
26.72,-0.159,1.444,0.208
26.73,-0.14,0.824,-0.011
26.74,-0.29,0.8,-0.105
26.75,-0.323,0.668,-0.056
26.76,-0.078,1.244,0.165
26.77,-0.247,0.946,0.028
26.78,-0.278,0.568,-0.129
26.79,-0.341,1.327,-0.089
26.8,-0.0,0.835,0.183
26.81,-0.334,1.249,0.085
26.82,-0.246,0.38,-0.2
26.83,-0.338,1.577,-0.016
26.84,0.022,0.814,0.138
26.85,-0.269,1.002,0.021
26.86,-0.323,0.691,-0.153
26.87,-0.216,1.291,0.005
26.88,-0.107,1.118,0.181
26.89,0.005,0.573,0.048
26.9,-0.526,1.096,-0.213
26.91,-0.176,1.157,0.088
26.92,-0.229,0.972,0.092
26.93,-0.091,0.808,0.071
26.94,-0.431,0.673,-0.178
26.95,-0.243,1.716,0.055
26.96,-0.067,0.791,0.156
26.97,-0.136,0.946,0.069
26.98,-0.373,0.387,-0.164
26.99,-0.321,1.922,0.121
27.0,-0.028,0.722,0.158
27.01,-0.103,0.815,-0.001
27.02,-0.43,0.732,-0.226
27.03,-0.156,1.588,0.155
27.04,-0.195,1.067,0.134
27.05,0.032,0.398,0.025
27.06,-0.525,1.077,-0.175
27.07,-0.011,1.544,0.127
27.08,-0.135,1.144,0.166
27.09,0.022,0.498,-0.0
27.1,-0.493,0.71,-0.198
27.11,-0.079,1.985,0.079
27.12,-0.099,0.722,0.092
27.13,-0.119,0.917,-0.053
27.14,-0.355,0.288,-0.22
27.15,-0.154,2.0,0.112
27.16,-0.094,0.831,0.127
27.17,-0.142,0.69,-0.053
27.18,-0.378,0.624,-0.221
27.19,-0.102,1.601,0.13
27.2,-0.221,1.261,0.084
27.21,0.056,0.461,-0.06
27.22,-0.544,0.963,-0.168
27.23,-0.052,1.331,0.246
27.24,-0.226,1.337,0.078
27.25,-0.091,0.523,-0.104
27.26,-0.414,0.644,-0.149
27.27,-0.166,1.555,0.205
27.28,-0.117,0.902,0.077
27.29,-0.183,0.987,-0.088
27.3,-0.343,0.162,-0.155
27.31,-0.216,1.536,0.188
27.32,-0.145,0.879,0.101
27.33,-0.222,0.819,-0.115
27.34,-0.319,0.54,-0.193
27.35,-0.115,1.103,0.153
27.36,-0.288,1.311,0.056
27.37,-0.003,0.448,-0.146
27.38,-0.541,1.0,-0.144
27.39,0.071,0.922,0.194
27.4,-0.24,1.31,-0.062
27.41,-0.094,0.486,-0.12
27.42,-0.517,0.729,-0.088
27.43,-0.071,1.169,0.14
27.44,-0.136,0.841,0.015
27.45,-0.382,0.845,-0.11
27.46,-0.403,0.386,-0.025
27.47,-0.208,1.343,0.162
27.48,-0.21,0.803,0.042
27.49,-0.278,0.819,-0.101
27.5,-0.396,0.875,-0.022
27.51,-0.1,1.026,0.185
27.52,-0.247,1.194,0.079
27.53,-0.239,0.321,-0.144
27.54,-0.34,1.375,-0.02
27.55,-0.068,0.753,0.102
27.56,-0.251,1.195,0.048
27.57,-0.305,0.305,-0.169
27.58,-0.363,1.679,0.021
27.59,-0.066,0.841,0.149
27.6,-0.21,0.909,0.061
27.61,-0.309,0.821,-0.196
27.62,-0.349,1.291,0.009
27.63,-0.066,1.137,0.14
27.64,-0.036,0.593,0.058
27.65,-0.511,1.016,-0.224
27.66,-0.198,1.348,0.048
27.67,-0.182,1.018,0.133
27.68,-0.028,0.637,0.053
27.69,-0.479,0.672,-0.191
27.7,-0.223,1.868,0.13
27.71,-0.099,0.64,0.107
27.72,-0.133,0.962,0.012
27.73,-0.443,0.388,-0.169
27.74,-0.179,2.0,0.13
27.75,-0.034,0.723,0.161
27.76,-0.202,0.905,0.012
27.77,-0.41,0.382,-0.163
27.78,-0.161,1.858,0.13
27.79,-0.115,1.104,0.067
27.8,-0.079,0.449,-0.076
27.81,-0.472,0.904,-0.177
27.82,-0.096,1.311,0.179
27.83,-0.312,1.364,0.154
27.84,-0.021,0.438,-0.082
27.85,-0.51,0.881,-0.171
27.86,-0.038,1.343,0.174
27.87,-0.227,1.031,0.126
27.88,-0.189,0.868,-0.084
27.89,-0.42,0.354,-0.125
27.9,-0.248,1.561,0.174
27.91,-0.121,0.829,0.133
27.92,-0.198,0.953,-0.099
27.93,-0.405,0.367,-0.162
27.94,-0.059,1.282,0.147
27.95,-0.208,1.014,-0.031
27.96,-0.135,0.624,-0.133
27.97,-0.523,0.915,-0.143
27.98,-0.073,0.875,0.2
27.99,-0.292,1.343,0.008
28.0,-0.116,0.296,-0.165
28.01,-0.437,1.037,-0.054
28.02,-0.02,1.017,0.118
28.03,-0.232,0.991,0.057
28.04,-0.248,0.707,-0.098
28.05,-0.332,0.776,-0.055
28.06,-0.144,1.319,0.152
28.07,-0.116,0.66,0.048
28.08,-0.416,0.979,-0.17
28.09,-0.2,0.76,-0.063
28.1,-0.188,1.163,0.13
28.11,-0.219,0.952,0.017
28.12,-0.254,0.582,-0.122
28.13,-0.281,1.613,-0.039
28.14,-0.006,0.781,0.172
28.15,-0.269,1.164,0.029
28.16,-0.296,0.404,-0.212
28.17,-0.255,1.658,0.022
28.18,-0.091,0.782,0.136
28.19,-0.157,0.864,0.022
28.2,-0.414,0.805,-0.215
28.21,-0.214,1.272,0.063
28.22,-0.156,1.102,0.134
28.23,0.023,0.565,0.03
28.24,-0.564,1.024,-0.195
28.25,-0.039,1.458,0.093
28.26,-0.255,1.191,0.181
28.27,0.042,0.435,0.034
28.28,-0.455,0.893,-0.172
28.29,-0.092,1.776,0.066
28.3,-0.103,0.91,0.152
28.31,-0.082,0.766,-0.035
28.32,-0.395,0.363,-0.178
28.33,-0.136,2.0,0.102
28.34,-0.073,0.693,0.12
28.35,-0.133,0.844,-0.013
28.36,-0.354,0.484,-0.252
28.37,-0.084,1.88,0.109
28.38,-0.111,1.066,0.064
28.39,-0.008,0.398,-0.065
28.4,-0.541,0.961,-0.174
28.41,-0.064,1.355,0.142
28.42,-0.269,1.347,0.14
28.43,0.006,0.474,-0.048
28.44,-0.531,0.822,-0.191
28.45,-0.031,1.4,0.175
28.46,-0.136,1.023,-0.026
28.47,-0.135,0.872,-0.098
28.48,-0.419,0.284,-0.178
28.49,-0.204,1.617,0.194
28.5,-0.068,0.819,0.066
28.51,-0.231,0.941,-0.115
28.52,-0.413,0.381,-0.165
28.53,-0.141,1.319,0.134
28.54,-0.198,1.114,0.027
28.55,-0.153,0.466,-0.128
28.56,-0.44,0.93,-0.181
28.57,-0.075,0.968,0.2
28.58,-0.289,1.3,0.031
28.59,-0.137,0.425,-0.112
28.6,-0.447,0.868,-0.083
28.61,-0.127,1.052,0.188
28.62,-0.183,1.002,0.046
28.63,-0.313,0.79,-0.105
28.64,-0.41,0.447,-0.074
28.65,-0.185,1.401,0.186
28.66,-0.171,0.671,0.1
28.67,-0.405,0.918,-0.117
28.68,-0.371,0.615,-0.02
28.69,-0.096,1.184,0.173
28.7,-0.166,1.061,0.024
28.71,-0.344,0.382,-0.142
28.72,-0.347,1.239,-0.027
28.73,-0.012,0.848,0.148
28.74,-0.214,1.286,0.017
28.75,-0.212,0.29,-0.181
28.76,-0.185,1.513,-0.144
28.77,0.028,0.945,0.131
28.78,-0.094,0.823,0.014
28.79,-0.394,0.9,-0.196
28.8,-0.124,1.091,-0.061
28.81,-0.146,1.198,0.131
28.82,-0.087,0.597,0.0
28.83,-0.444,1.019,-0.177
28.84,-0.227,1.186,0.019
28.85,-0.122,0.987,0.12
28.86,-0.16,0.922,0.013
28.87,-0.36,0.655,-0.165
28.88,-0.333,1.853,0.097
28.89,-0.072,0.709,0.199
28.9,-0.17,1.021,0.077
28.91,-0.332,0.4,-0.221
28.92,-0.343,1.8,0.096
28.93,-0.073,0.801,0.143
28.94,-0.127,0.748,0.081
28.95,-0.447,0.868,-0.175
28.96,-0.319,1.373,0.103
28.97,-0.244,1.133,0.218
28.98,0.026,0.458,0.08
28.99,-0.461,1.068,-0.177
29.0,-0.089,1.508,0.072
29.01,-0.111,1.011,0.075
29.02,-0.03,0.7,-0.028
29.03,-0.411,0.583,-0.164
29.04,-0.021,1.844,0.097
29.05,-0.106,0.904,0.095
29.06,-0.057,0.756,-0.086
29.07,-0.401,0.339,-0.23
29.08,-0.167,2.0,0.105
29.09,-0.081,0.699,0.093
29.1,-0.183,0.804,-0.038
29.11,-0.377,0.458,-0.156
29.12,-0.195,1.746,0.178
29.13,-0.228,1.136,0.117
29.14,-0.038,0.45,-0.034
29.15,-0.528,0.99,-0.149
29.16,0.019,1.286,0.212
29.17,-0.368,1.372,0.143
29.18,-0.033,0.436,-0.028
29.19,-0.525,0.789,-0.16
29.2,-0.036,1.429,0.219
29.21,-0.274,0.985,0.084
29.22,-0.146,0.939,-0.066
29.23,-0.455,0.208,-0.167
29.24,-0.202,1.656,0.223
29.25,-0.116,0.888,0.093
29.26,-0.275,0.891,-0.094
29.27,-0.441,0.427,-0.134
29.28,-0.162,1.266,0.22
29.29,-0.215,1.205,0.055
29.3,-0.086,0.471,-0.148
29.31,-0.516,0.986,-0.155
29.32,0.013,0.954,0.153
29.33,-0.31,1.286,0.042
29.34,-0.062,0.46,-0.088
29.35,-0.495,0.784,-0.145
29.36,-0.139,1.1,0.223
29.37,-0.173,1.016,0.012
29.38,-0.297,0.823,-0.147
29.39,-0.426,0.355,-0.116
29.4,-0.165,1.369,0.205
29.41,-0.13,0.731,0.017
29.42,-0.316,0.841,-0.146
29.43,-0.378,0.635,-0.102
29.44,-0.132,1.148,0.156
29.45,-0.233,1.026,0.012
29.46,-0.205,0.459,-0.206
29.47,-0.321,1.255,-0.087
29.48,0.007,0.811,0.161
29.49,-0.26,1.282,0.015
29.5,-0.179,0.324,-0.144
29.51,-0.254,1.472,-0.09
29.52,-0.024,0.984,0.152
29.53,-0.135,0.77,0.006
29.54,-0.442,0.885,-0.179
29.55,-0.13,1.046,-0.047
29.56,-0.246,1.281,0.157
29.57,-0.096,0.583,0.048
29.58,-0.491,1.045,-0.171
29.59,-0.282,1.134,0.032
29.6,-0.142,1.012,0.117
29.61,-0.181,0.96,-0.037
29.62,-0.293,0.556,-0.214
29.63,-0.316,1.823,-0.004
29.64,0.024,0.67,0.136
29.65,-0.194,1.127,0.114
29.66,-0.366,0.469,-0.202
29.67,-0.348,1.7,0.071
29.68,-0.085,0.875,0.124
29.69,-0.079,0.672,0.04
29.7,-0.421,0.893,-0.221
29.71,-0.199,1.364,0.088
29.72,-0.243,1.171,0.178
29.73,0.045,0.421,0.061
29.74,-0.499,1.047,-0.179
29.75,-0.09,1.5,0.039
29.76,-0.167,0.954,0.142
29.77,0.042,0.712,0.007
29.78,-0.457,0.585,-0.178
29.79,-0.132,1.994,0.09
29.8,-0.107,0.657,0.145
29.81,-0.148,0.9,0.003
29.82,-0.358,0.359,-0.267
29.83,-0.099,1.909,0.084
29.84,-0.005,0.74,0.061
29.85,-0.133,0.851,-0.038
29.86,-0.381,0.5,-0.194
29.87,-0.146,1.859,0.172
29.88,-0.125,1.11,0.088
29.89,-0.103,0.457,-0.087
29.9,-0.494,1.036,-0.185
29.91,-0.047,1.408,0.151
29.92,-0.203,1.381,0.111
29.93,0.024,0.287,-0.007
29.94,-0.528,0.822,-0.179
29.95,-0.082,1.385,0.137
29.96,-0.26,0.827,0.087
29.97,-0.207,1.055,-0.092
29.98,-0.459,0.22,-0.113
29.99,-0.199,1.694,0.213
30.0,-0.1,0.915,0.098
30.01,-0.158,0.874,-0.088
30.02,-0.437,0.458,-0.197
30.03,-0.058,1.305,0.186
30.04,-0.162,1.2,0.003
30.05,-0.045,0.481,-0.135
30.06,-0.461,0.94,-0.168
30.07,-0.014,0.986,0.159
30.08,-0.25,1.324,0.036
30.09,-0.125,0.455,-0.097
30.1,-0.502,0.79,-0.144
30.11,-0.06,1.2,0.149
30.12,-0.125,1.014,0.057
30.13,-0.27,0.811,-0.147
30.14,-0.389,0.341,-0.088
30.15,-0.11,1.426,0.137
30.16,-0.156,0.728,0.064
30.17,-0.341,0.869,-0.136
30.18,-0.429,0.552,-0.11
30.19,-0.146,1.164,0.175
30.2,-0.16,1.12,0.002
30.21,-0.192,0.426,-0.13
30.22,-0.496,1.087,-0.06
30.23,0.078,0.91,0.131
30.24,-0.324,1.323,0.061
30.25,-0.213,0.383,-0.135
30.26,-0.448,1.042,-0.023
30.27,-0.095,1.031,0.147
30.28,-0.185,0.889,0.061
30.29,-0.294,0.901,-0.22
30.3,-0.303,0.7,-0.021
30.31,-0.107,1.3,0.137
30.32,-0.148,0.687,0.056
30.33,-0.343,0.916,-0.109
30.34,-0.257,1.199,-0.12
30.35,-0.095,1.104,0.219
30.36,-0.182,0.982,0.061
30.37,-0.354,0.549,-0.199
30.38,-0.21,1.692,-0.037
30.39,-0.092,0.723,0.108
30.4,-0.271,1.139,0.08
30.41,-0.272,0.426,-0.215
30.42,-0.302,1.59,-0.036
30.43,-0.057,0.878,0.138
30.44,-0.045,0.78,0.049
30.45,-0.351,0.976,-0.241
30.46,-0.197,1.304,-0.004
30.47,-0.175,1.186,0.181
30.48,0.021,0.515,0.08
30.49,-0.519,1.021,-0.184
30.5,-0.17,1.421,0.063
30.51,-0.252,0.936,0.133
30.52,-0.118,0.789,0.039
30.53,-0.367,0.565,-0.188
30.54,-0.272,1.937,0.045
30.55,-0.038,0.663,0.145
30.56,-0.115,0.982,0.034
30.57,-0.343,0.449,-0.203
30.58,-0.226,1.854,0.097
30.59,-0.117,0.818,0.144
30.6,-0.04,0.645,0.009
30.61,-0.459,0.84,-0.255
30.62,-0.051,1.452,0.038
30.63,-0.256,1.208,0.102
30.64,0.019,0.285,0.015
30.65,-0.585,1.052,-0.198
30.66,-0.057,1.37,0.144
30.67,-0.285,1.244,0.176
30.68,0.023,0.484,-0.005
30.69,-0.47,0.823,-0.201
30.7,-0.08,1.664,0.174
30.71,-0.162,0.918,0.064
30.72,-0.117,0.92,-0.075
30.73,-0.442,0.303,-0.186
30.74,-0.199,1.889,0.151
30.75,-0.1,0.87,0.133
30.76,-0.199,0.742,-0.074
30.77,-0.419,0.513,-0.203
30.78,-0.174,1.558,0.144
30.79,-0.246,1.174,0.109
30.8,-0.096,0.503,-0.06
30.81,-0.543,0.905,-0.163
30.82,-0.032,1.139,0.161
30.83,-0.232,1.404,0.033
30.84,-0.049,0.492,-0.037
30.85,-0.471,0.745,-0.192
30.86,-0.043,1.289,0.191
30.87,-0.112,0.916,0.076
30.88,-0.235,0.926,-0.084
30.89,-0.478,0.26,-0.143
30.9,-0.189,1.509,0.175
30.91,-0.161,0.856,0.058
30.92,-0.13,0.872,-0.123
30.93,-0.444,0.52,-0.189
30.94,-0.029,1.207,0.128
30.95,-0.237,1.17,0.019
30.96,-0.05,0.477,-0.127
30.97,-0.479,0.965,-0.174
30.98,-0.021,0.864,0.223
30.99,-0.326,1.355,0.08
31.0,-0.166,0.333,-0.117
31.01,-0.51,0.836,-0.067
31.02,-0.057,1.109,0.138
31.03,-0.211,0.942,0.018
31.04,-0.25,0.861,-0.12
31.05,-0.361,0.363,-0.064
31.06,-0.134,1.375,0.199
31.07,-0.133,0.788,0.092
31.08,-0.328,0.814,-0.097
31.09,-0.416,0.697,-0.079
31.1,-0.111,1.146,0.17
31.11,-0.193,1.119,-0.015
31.12,-0.207,0.347,-0.184
31.13,-0.396,1.316,-0.064
31.14,-0.021,0.819,0.145
31.15,-0.387,1.284,0.09
31.16,-0.205,0.315,-0.136
31.17,-0.306,1.322,-0.038
31.18,-0.113,0.959,0.133
31.19,-0.154,0.82,0.021
31.2,-0.319,0.856,-0.203
31.21,-0.22,0.901,-0.043
31.22,-0.16,1.24,0.148
31.23,-0.073,0.664,0.025
31.24,-0.387,0.979,-0.214
31.25,-0.166,1.162,-0.01
31.26,-0.101,1.046,0.133
31.27,-0.196,0.932,0.002
31.28,-0.301,0.573,-0.184
31.29,-0.258,1.763,-0.025
31.3,0.033,0.719,0.102
31.31,-0.219,1.102,0.036
31.32,-0.342,0.451,-0.237
31.33,-0.302,1.697,0.044
31.34,-0.071,0.788,0.114
31.35,-0.088,0.762,0.047
31.36,-0.471,0.91,-0.226
31.37,-0.246,1.264,0.049
31.38,-0.209,1.179,0.171
31.39,-0.079,0.503,0.081
31.4,-0.505,1.009,-0.129
31.41,-0.226,1.523,0.064
31.42,-0.197,0.945,0.214
31.43,-0.077,0.754,0.043
31.44,-0.548,0.575,-0.164
31.45,-0.073,1.796,0.067
31.46,-0.066,0.776,0.079
31.47,-0.048,0.865,-0.028
31.48,-0.365,0.364,-0.243
31.49,-0.164,2.0,0.055
31.5,-0.005,0.738,0.081
31.51,-0.1,0.811,-0.011
31.52,-0.381,0.521,-0.25
31.53,-0.103,1.734,0.103
31.54,-0.086,1.155,0.088
31.55,0.015,0.372,-0.045
31.56,-0.502,1.022,-0.227
31.57,-0.023,1.554,0.107
31.58,-0.241,1.263,0.099
31.59,-0.011,0.472,-0.042
31.6,-0.497,0.812,-0.2
31.61,-0.091,1.687,0.107
31.62,-0.18,0.878,0.093
31.63,-0.096,0.956,-0.079
31.64,-0.431,0.236,-0.124
31.65,-0.205,1.956,0.193
31.66,-0.106,0.913,0.116
31.67,-0.239,0.804,-0.074
31.68,-0.422,0.514,-0.159
31.69,-0.156,1.574,0.197
31.7,-0.265,1.231,0.137
31.71,-0.058,0.474,-0.073
31.72,-0.497,0.97,-0.142
31.73,-0.053,1.191,0.211
31.74,-0.298,1.362,0.097
31.75,-0.067,0.477,-0.069
31.76,-0.501,0.75,-0.191
31.77,-0.061,1.328,0.207
31.78,-0.116,0.971,0.018
31.79,-0.154,0.912,-0.145
31.8,-0.338,0.306,-0.181
31.81,-0.119,1.403,0.13
31.82,-0.122,0.856,0.007
31.83,-0.28,0.88,-0.138
31.84,-0.352,0.498,-0.216
31.85,-0.081,1.209,0.173
31.86,-0.208,1.184,0.056
31.87,-0.198,0.368,-0.142
31.88,-0.522,1.046,-0.091
31.89,0.007,0.93,0.221
31.9,-0.347,1.297,0.058
31.91,-0.167,0.374,-0.113
31.92,-0.483,0.995,-0.088
31.93,-0.082,1.111,0.242
31.94,-0.12,0.873,0.065
31.95,-0.345,0.773,-0.134
31.96,-0.318,0.638,0.003
31.97,-0.17,1.361,0.193
31.98,-0.16,0.717,0.062
31.99,-0.36,0.886,-0.115
32.0,-0.264,1.017,-0.085
32.01,-0.073,1.087,0.179
32.02,-0.196,1.063,0.059
32.03,-0.281,0.489,-0.215
32.04,-0.256,1.503,-0.098
32.05,-0.014,0.762,0.122
32.06,-0.276,1.204,0.04
32.07,-0.244,0.439,-0.174
32.08,-0.285,1.595,-0.055
32.09,-0.024,0.923,0.124
32.1,-0.086,0.706,0.027
32.11,-0.421,0.944,-0.171
32.12,-0.183,1.21,-0.019
32.13,-0.175,1.177,0.122
32.14,-0.022,0.572,0.031
32.15,-0.443,1.052,-0.21
32.16,-0.164,1.306,0.021
32.17,-0.147,0.931,0.104
32.18,-0.062,0.879,-0.013
32.19,-0.429,0.546,-0.221
32.2,-0.246,1.841,0.075
32.21,-0.021,0.701,0.129
32.22,-0.154,1.002,0.044
32.23,-0.46,0.458,-0.257
32.24,-0.157,1.803,0.052
32.25,-0.096,0.639,0.08
32.26,-0.092,0.84,-0.012
32.27,-0.391,0.654,-0.223
32.28,-0.132,1.627,0.092
32.29,-0.114,1.113,0.165
32.3,0.008,0.34,-0.038
32.31,-0.485,1.065,-0.194
32.32,0.046,1.524,0.029
32.33,-0.16,1.227,0.097
32.34,0.064,0.465,-0.021
32.35,-0.491,0.85,-0.198
32.36,-0.004,1.853,0.029
32.37,-0.089,0.854,0.111
32.38,-0.013,0.874,-0.08
32.39,-0.468,0.295,-0.206
32.4,-0.1,2.0,0.1
32.41,-0.15,0.76,0.107
32.42,-0.126,0.845,-0.034
32.43,-0.497,0.512,-0.183
32.44,-0.116,1.728,0.202
32.45,-0.247,1.192,0.119
32.46,-0.024,0.387,-0.021
32.47,-0.622,1.063,-0.164
32.48,-0.085,1.322,0.206
32.49,-0.312,1.34,0.155
32.5,-0.021,0.485,-0.041
32.51,-0.527,0.812,-0.147
32.52,-0.103,1.437,0.218
32.53,-0.181,0.938,0.112
32.54,-0.183,0.914,-0.08
32.55,-0.429,0.281,-0.158
32.56,-0.185,1.691,0.204
32.57,-0.195,0.89,0.164
32.58,-0.225,0.892,-0.065
32.59,-0.461,0.402,-0.182
32.6,-0.071,1.35,0.159
32.61,-0.233,1.221,0.021
32.62,-0.023,0.478,-0.105
32.63,-0.562,0.992,-0.188
32.64,-0.035,1.055,0.162
32.65,-0.274,1.39,0.014
32.66,-0.057,0.433,-0.108
32.67,-0.487,0.8,-0.16
32.68,-0.047,1.167,0.18
32.69,-0.084,1.053,0.03
32.7,-0.202,0.871,-0.121
32.71,-0.385,0.289,-0.167
32.72,-0.119,1.385,0.18
32.73,-0.116,0.817,0.029
32.74,-0.295,0.841,-0.167
32.75,-0.457,0.5,-0.147
32.76,-0.145,1.145,0.206
32.77,-0.221,1.168,0.016
32.78,-0.141,0.35,-0.107
32.79,-0.576,1.112,-0.066
32.8,0.007,0.917,0.214
32.81,-0.296,1.292,0.082
32.82,-0.21,0.388,-0.091
32.83,-0.493,1.01,-0.028
32.84,-0.103,1.066,0.214
32.85,-0.246,0.934,0.106
32.86,-0.291,0.803,-0.116
32.87,-0.336,0.725,-0.054
32.88,-0.138,1.328,0.161
32.89,-0.149,0.754,0.044
32.9,-0.393,0.91,-0.124
32.91,-0.246,1.001,-0.063
32.92,-0.112,1.105,0.177
32.93,-0.154,1.041,0.047
32.94,-0.316,0.521,-0.182
32.95,-0.26,1.584,-0.073
32.96,-0.013,0.729,0.064
32.97,-0.232,1.212,0.016
32.98,-0.244,0.376,-0.233
32.99,-0.261,1.594,-0.076
33.0,-0.064,0.871,0.142
33.01,-0.081,0.791,0.063
33.02,-0.418,0.925,-0.199
33.03,-0.269,1.255,0.032
33.04,-0.16,1.156,0.157
33.05,0.024,0.489,0.049
33.06,-0.413,1.075,-0.184
33.07,-0.128,1.314,0.059
33.08,-0.195,1.126,0.181
33.09,-0.009,0.493,0.074
33.1,-0.509,0.891,-0.146
33.11,-0.186,1.772,0.152
33.12,-0.181,0.698,0.168
33.13,-0.084,0.9,0.02
33.14,-0.381,0.384,-0.172
33.15,-0.157,2.0,0.107
33.16,-0.116,0.651,0.136
33.17,-0.106,0.821,0.03
33.18,-0.444,0.53,-0.204
33.19,-0.05,1.808,0.109
33.2,-0.139,1.06,0.078
33.21,0.034,0.333,-0.069
33.22,-0.454,1.032,-0.222
33.23,-0.011,1.601,0.089
33.24,-0.2,1.151,0.07
33.25,0.1,0.448,-0.006
33.26,-0.437,0.857,-0.239
33.27,-0.086,1.709,0.132
33.28,-0.161,0.931,0.086
33.29,-0.078,0.818,-0.075
33.3,-0.409,0.315,-0.146
33.31,-0.218,1.972,0.15
33.32,-0.157,0.777,0.109
33.33,-0.121,0.91,-0.077
33.34,-0.442,0.39,-0.183
33.35,-0.11,1.527,0.17
33.36,-0.174,1.242,0.077
33.37,-0.102,0.496,-0.047
33.38,-0.471,0.937,-0.133
33.39,-0.024,1.239,0.172
33.4,-0.273,1.361,0.04
33.41,-0.043,0.505,-0.089
33.42,-0.483,0.769,-0.118
33.43,-0.103,1.304,0.204
33.44,-0.179,0.972,0.072
33.45,-0.194,0.899,-0.132
33.46,-0.401,0.322,-0.162
33.47,-0.074,1.481,0.149
33.48,-0.139,0.824,-0.029
33.49,-0.248,0.88,-0.144
33.5,-0.418,0.466,-0.192
33.51,-0.032,1.259,0.166
33.52,-0.179,1.114,-0.029
33.53,-0.174,0.436,-0.162
33.54,-0.487,1.053,-0.102
33.55,0.028,0.859,0.177
33.56,-0.339,1.372,0.053
33.57,-0.094,0.318,-0.085
33.58,-0.49,1.149,-0.049
33.59,0.003,1.022,0.14
33.6,-0.21,0.903,0.024
33.61,-0.314,0.829,-0.25
33.62,-0.218,0.71,-0.016
33.63,-0.225,1.265,0.149
33.64,-0.101,0.699,0.041
33.65,-0.344,0.925,-0.166
33.66,-0.237,1.11,-0.067
33.67,0.007,1.069,0.07
33.68,-0.206,0.949,-0.021
33.69,-0.225,0.626,-0.225
33.7,-0.259,1.786,-0.013
33.71,-0.027,0.683,0.153
33.72,-0.231,1.113,0.047
33.73,-0.298,0.396,-0.233
33.74,-0.304,1.693,-0.006
33.75,-0.047,0.823,0.14
33.76,-0.078,0.72,0.013
33.77,-0.425,0.911,-0.209
33.78,-0.201,1.382,0.029
33.79,-0.176,1.074,0.155
33.8,0.035,0.524,0.072
33.81,-0.501,1.054,-0.164
33.82,-0.146,1.437,0.102
33.83,-0.235,0.95,0.162
33.84,-0.05,0.727,0.025
33.85,-0.423,0.824,-0.151
33.86,-0.059,1.881,0.025
33.87,-0.047,0.843,0.075
33.88,-0.047,0.817,-0.072
33.89,-0.354,0.334,-0.178
33.9,-0.195,2.0,0.103
33.91,-0.014,0.711,0.084
33.92,-0.17,0.826,-0.033
33.93,-0.369,0.555,-0.213
33.94,-0.115,1.84,0.165
33.95,-0.202,1.153,0.041
33.96,0.046,0.365,-0.038
33.97,-0.498,1.055,-0.204
33.98,-0.043,1.348,0.156
33.99,-0.24,1.271,0.113
34.0,-0.031,0.486,-0.031
34.01,-0.501,0.708,-0.15
34.02,-0.06,1.481,0.196
34.03,-0.254,0.971,0.112
34.04,-0.217,0.935,-0.014
34.05,-0.357,0.353,-0.136
34.06,-0.169,1.753,0.209
34.07,-0.062,0.876,0.075
34.08,-0.178,0.899,-0.084
34.09,-0.356,0.35,-0.197
34.1,-0.042,1.34,0.124
34.11,-0.21,1.17,0.019
34.12,-0.075,0.478,-0.121
34.13,-0.409,0.967,-0.201
34.14,-0.043,0.937,0.16
34.15,-0.333,1.356,0.023
34.16,-0.163,0.42,-0.077
34.17,-0.515,0.793,-0.099
34.18,-0.071,1.159,0.205
34.19,-0.173,1.012,0.073
34.2,-0.395,0.785,-0.122
34.21,-0.366,0.438,0.01
34.22,-0.178,1.396,0.187
34.23,-0.213,0.646,0.077
34.24,-0.294,0.918,-0.108
34.25,-0.359,0.809,-0.074
34.26,-0.086,1.132,0.151
34.27,-0.179,1.064,0.025
34.28,-0.319,0.475,-0.151
34.29,-0.312,1.429,-0.063
34.3,-0.027,0.78,0.214
34.31,-0.291,1.273,0.072
34.32,-0.239,0.318,-0.163
34.33,-0.318,1.447,-0.019
34.34,-0.083,0.944,0.177
34.35,-0.18,0.83,0.026
34.36,-0.407,0.877,-0.164
34.37,-0.226,1.016,0.011
34.38,-0.169,1.161,0.122
34.39,-0.026,0.618,0.015
34.4,-0.453,0.963,-0.176
34.41,-0.139,1.384,0.014
34.42,-0.148,0.988,0.146
34.43,-0.028,0.867,0.06
34.44,-0.501,0.603,-0.172
34.45,-0.259,1.857,0.082
34.46,-0.101,0.61,0.168
34.47,-0.161,1.076,0.068
34.48,-0.393,0.43,-0.194
34.49,-0.333,1.818,0.128
34.5,-0.094,0.832,0.154
34.51,-0.072,0.664,0.053
34.52,-0.427,0.883,-0.161
34.53,-0.133,1.437,0.111
34.54,-0.152,1.182,0.137
34.55,0.01,0.395,0.021
34.56,-0.458,1.043,-0.199
34.57,-0.044,1.641,0.065
34.58,-0.158,1.059,0.097
34.59,0.006,0.611,-0.01
34.6,-0.424,0.623,-0.198
34.61,-0.135,1.968,0.099
34.62,-0.003,0.703,0.114
34.63,-0.18,0.888,-0.016
34.64,-0.427,0.307,-0.202
34.65,-0.191,1.881,0.146
34.66,-0.16,0.797,0.126
34.67,-0.099,0.938,-0.067
34.68,-0.425,0.452,-0.183
34.69,-0.146,1.546,0.215
34.7,-0.269,1.202,0.137
34.71,-0.032,0.468,-0.089
34.72,-0.56,0.95,-0.154
34.73,0.003,1.155,0.18
34.74,-0.328,1.369,0.068
34.75,-0.019,0.508,-0.046
34.76,-0.471,0.788,-0.156
34.77,-0.095,1.246,0.186
34.78,-0.217,0.978,0.043
34.79,-0.163,0.93,-0.087
34.8,-0.469,0.264,-0.136
34.81,-0.188,1.433,0.219
34.82,-0.189,0.825,0.048
34.83,-0.287,0.857,-0.1
34.84,-0.426,0.49,-0.119
34.85,-0.147,1.127,0.214
34.86,-0.219,1.093,-0.034
34.87,-0.142,0.425,-0.139
34.88,-0.52,1.072,-0.068
34.89,0.03,0.918,0.158
34.9,-0.328,1.257,0.05
34.91,-0.158,0.419,-0.148
34.92,-0.451,1.005,-0.023
34.93,-0.089,1.048,0.138
34.94,-0.192,0.867,0.065
34.95,-0.296,0.848,-0.157
34.96,-0.258,0.792,-0.063
34.97,-0.1,1.159,0.108
34.98,-0.07,0.613,0.021
34.99,-0.388,1.088,-0.175
35.0,-0.201,1.143,-0.02
35.01,-0.135,1.161,0.109
35.02,-0.077,0.675,0.042
35.03,-0.417,0.813,-0.157
35.04,-0.307,1.609,0.026
35.05,-0.104,0.781,0.18
35.06,-0.18,1.014,0.046
35.07,-0.366,0.39,-0.166
35.08,-0.371,1.865,0.103
35.09,-0.069,0.701,0.172
35.1,-0.16,0.896,0.065
35.11,-0.433,0.645,-0.191
35.12,-0.276,1.503,0.085
35.13,-0.193,1.047,0.134
35.14,0.002,0.487,0.012
35.15,-0.496,1.035,-0.198
35.16,-0.074,1.445,0.081
35.17,-0.217,1.116,0.146
35.18,-0.013,0.469,0.049
35.19,-0.509,0.881,-0.168
35.2,-0.089,1.758,0.099
35.21,-0.125,0.792,0.157
35.22,-0.105,0.869,-0.021
35.23,-0.365,0.393,-0.226
35.24,-0.118,2.0,0.056
35.25,-0.056,0.714,0.1
35.26,-0.129,0.779,-0.015
35.27,-0.423,0.513,-0.219
35.28,-0.059,1.699,0.102
35.29,-0.091,1.136,0.066
35.3,0.053,0.406,-0.082
35.31,-0.522,1.038,-0.217
35.32,0.038,1.575,0.091
35.33,-0.226,1.319,0.066
35.34,0.044,0.511,-0.043
35.35,-0.537,0.807,-0.172
35.36,-0.038,1.641,0.109
35.37,-0.036,1.029,0.009
35.38,-0.126,0.787,-0.061
35.39,-0.384,0.293,-0.154
35.4,-0.288,1.836,0.12
35.41,-0.161,0.762,0.133
35.42,-0.26,0.938,-0.064
35.43,-0.437,0.461,-0.18
35.44,-0.159,1.404,0.179
35.45,-0.139,1.0,0.03
35.46,-0.105,0.655,-0.1
35.47,-0.449,0.784,-0.201
35.48,0.048,1.025,0.118
35.49,-0.313,1.309,-0.031
35.5,-0.038,0.398,-0.137
35.51,-0.563,0.985,-0.14
35.52,-0.001,0.993,0.131
35.53,-0.235,1.183,0.018
35.54,-0.26,0.615,-0.137
35.55,-0.415,0.55,-0.043
35.56,-0.172,1.32,0.171
35.57,-0.135,0.734,0.062
35.58,-0.346,0.942,-0.125
35.59,-0.359,0.541,-0.049
35.6,-0.147,1.298,0.215
35.61,-0.171,0.837,0.065
35.62,-0.376,0.703,-0.131
35.63,-0.309,1.074,-0.035
35.64,-0.099,0.892,0.182
35.65,-0.257,1.248,0.065
35.66,-0.212,0.288,-0.142
35.67,-0.287,1.577,-0.08
35.68,0.002,0.817,0.156
35.69,-0.206,1.046,0.042
35.7,-0.287,0.647,-0.158
35.71,-0.293,1.268,-0.033
35.72,-0.117,1.162,0.129
35.73,-0.08,0.596,0.044
35.74,-0.473,1.062,-0.197
35.75,-0.249,1.027,0.005
35.76,-0.178,1.173,0.143
35.77,-0.161,0.676,0.034
35.78,-0.395,0.86,-0.151
35.79,-0.246,1.609,0.01
35.8,-0.057,0.766,0.111
35.81,-0.121,1.028,0.044
35.82,-0.339,0.395,-0.239
35.83,-0.28,1.827,0.049
35.84,-0.126,0.699,0.169
35.85,-0.13,0.888,0.052
35.86,-0.387,0.583,-0.217
35.87,-0.21,1.574,0.031
35.88,-0.172,1.053,0.12
35.89,0.035,0.487,0.03
35.9,-0.472,1.057,-0.227
35.91,-0.146,1.349,0.093
35.92,-0.239,1.123,0.172
35.93,0.034,0.49,0.052
35.94,-0.559,0.824,-0.19
35.95,-0.092,1.748,0.094
35.96,-0.165,0.781,0.138
35.97,-0.109,0.874,0.01
35.98,-0.465,0.388,-0.19
35.99,-0.199,2.0,0.155
36.0,-0.124,0.696,0.143
36.01,-0.1,0.828,0.044
36.02,-0.448,0.573,-0.211
36.03,-0.091,1.714,0.142
36.04,-0.183,1.05,0.113
36.05,0.104,0.469,-0.059
36.06,-0.55,1.021,-0.237
36.07,0.035,1.523,0.119
36.08,-0.253,1.298,0.121
36.09,-0.196,1.19,-0.042
36.1,-0.078,1.169,0.066
36.11,-0.043,0.563,0.04
36.12,-0.476,0.978,-0.16
36.13,-0.239,1.306,0.085
36.14,-0.287,1.169,0.186
36.15,0.022,0.503,0.05
36.16,-0.466,0.953,-0.198
36.17,-0.095,1.549,0.062
36.18,-0.138,0.909,0.115
36.19,-0.015,0.786,0.015
36.2,-0.387,0.486,-0.221
36.21,-0.186,1.938,0.097
36.22,-0.024,0.635,0.072
36.23,-0.121,0.911,-0.024
36.24,-0.361,0.433,-0.26
36.25,-0.086,1.847,0.061
36.26,-0.084,0.918,0.043
36.27,-0.037,0.425,-0.03
36.28,-0.444,0.969,-0.272
36.29,-0.041,1.418,0.152
36.3,-0.145,1.251,0.098
36.31,0.041,0.335,-0.037
36.32,-0.454,0.965,-0.247
36.33,-0.028,1.58,0.081
36.34,-0.197,1.062,0.101
36.35,-0.004,0.773,-0.115
36.36,-0.429,0.418,-0.188
36.37,-0.156,1.88,0.115
36.38,-0.071,0.768,0.029
36.39,-0.183,0.943,-0.051
36.4,-0.369,0.301,-0.144
36.41,-0.232,1.711,0.178
36.42,-0.21,1.052,0.129
36.43,-0.066,0.645,-0.074
36.44,-0.519,0.811,-0.155
36.45,0.029,1.226,0.215
36.46,-0.312,1.365,0.046
36.47,0.009,0.434,-0.081
36.48,-0.498,0.908,-0.203
36.49,-0.041,1.203,0.148
36.5,-0.208,1.171,0.043
36.51,-0.144,0.724,-0.072
36.52,-0.45,0.423,-0.118
36.53,-0.216,1.423,0.147
36.54,-0.104,0.786,0.036
36.55,-0.31,0.991,-0.097
36.56,-0.481,0.319,-0.044
36.57,-0.242,1.303,0.232
36.58,-0.209,0.981,0.072
36.59,-0.274,0.575,-0.093
36.6,-0.389,0.969,-0.09
36.61,-0.079,0.955,0.213
36.62,-0.266,1.241,0.042
36.63,-0.251,0.32,-0.12
36.64,-0.394,1.169,-0.039
36.65,-0.077,0.979,0.177
36.66,-0.232,1.031,0.104
36.67,-0.321,0.704,-0.116
36.68,-0.34,0.827,-0.012
36.69,-0.131,1.279,0.135
36.7,-0.123,0.701,0.052
36.71,-0.411,0.906,-0.164
36.72,-0.157,0.927,-0.063
36.73,-0.109,1.229,0.179
36.74,-0.07,0.845,-0.025
36.75,-0.372,0.735,-0.183
36.76,-0.198,1.499,-0.099
36.77,-0.047,0.792,0.142
36.78,-0.164,1.193,0.048
36.79,-0.297,0.366,-0.243
36.8,-0.257,1.688,-0.039
36.81,-0.02,0.762,0.099
36.82,-0.114,0.958,0.041
36.83,-0.341,0.732,-0.227
36.84,-0.212,1.43,-0.008
36.85,-0.159,1.12,0.208
36.86,-0.005,0.502,0.092
36.87,-0.505,1.139,-0.161
36.88,-0.202,1.316,0.115
36.89,-0.236,1.107,0.231
36.9,-0.079,0.613,0.064
36.91,-0.5,0.808,-0.169
36.92,-0.085,1.609,0.07
36.93,-0.135,0.881,0.129
36.94,-0.047,0.769,-0.02
36.95,-0.455,0.478,-0.202
36.96,-0.167,2.0,-0.001
36.97,-0.017,0.669,0.108
36.98,-0.107,0.899,-0.017
36.99,-0.334,0.372,-0.272
37.0,-0.097,1.911,0.063
37.01,-0.072,0.928,0.088
37.02,-0.126,0.474,-0.017
37.03,-0.538,0.928,-0.174
37.04,-0.106,1.531,0.162
37.05,-0.235,1.332,0.098
37.06,-0.014,0.282,-0.02
37.07,-0.493,0.98,-0.2
37.08,-0.08,1.5,0.146
37.09,-0.192,1.094,0.08
37.1,-0.103,0.681,-0.057
37.11,-0.461,0.47,-0.129
37.12,-0.241,1.809,0.187
37.13,-0.098,0.757,0.077
37.14,-0.181,0.956,-0.077
37.15,-0.447,0.304,-0.193
37.16,-0.112,1.602,0.171
37.17,-0.142,1.065,0.055
37.18,-0.118,0.625,-0.071
37.19,-0.44,0.773,-0.208
37.2,-0.063,1.176,0.181
37.21,-0.227,1.423,0.103
37.22,-0.075,0.427,-0.034
37.23,-0.48,0.923,-0.187
37.24,-0.021,1.192,0.144
37.25,-0.141,1.194,0.053
37.26,-0.157,0.736,-0.086
37.27,-0.403,0.47,-0.164
37.28,-0.216,1.404,0.151
37.29,-0.062,0.822,0.023
37.3,-0.327,0.931,-0.132
37.31,-0.372,0.322,-0.163
37.32,-0.158,1.282,0.152
37.33,-0.15,0.96,-0.055
37.34,-0.223,0.614,-0.156
37.35,-0.398,0.834,-0.166
37.36,-0.029,0.927,0.155
37.37,-0.277,1.335,0.014
37.38,-0.196,0.298,-0.115
37.39,-0.403,1.094,-0.064
37.4,-0.036,0.905,0.173
37.41,-0.221,1.141,0.019
37.42,-0.291,0.582,-0.158
37.43,-0.31,0.794,-0.042
37.44,-0.126,1.304,0.164
37.45,-0.09,0.657,0.051
37.46,-0.429,0.989,-0.127
37.47,-0.164,0.914,-0.028
37.48,-0.172,1.26,0.135
37.49,-0.12,0.792,0.023
37.5,-0.352,0.757,-0.159
37.51,-0.171,1.447,-0.101
37.52,-0.049,0.808,0.116
37.53,-0.195,1.144,-0.026
37.54,-0.262,0.443,-0.238
37.55,-0.354,1.646,0.047
37.56,-0.123,0.772,0.124
37.57,-0.154,0.991,0.065
37.58,-0.336,0.624,-0.204
37.59,-0.203,1.391,0.023
37.6,-0.144,1.198,0.137
37.61,0.047,0.464,0.032
37.62,-0.508,1.108,-0.135
37.63,-0.229,1.292,0.134
37.64,-0.27,1.052,0.176
37.65,-0.027,0.615,0.031
37.66,-0.57,0.834,-0.143
37.67,-0.155,1.698,0.105
37.68,-0.189,0.697,0.118
37.69,-0.065,0.96,0.025
37.7,-0.34,0.404,-0.244
37.71,-0.201,1.969,0.067
37.72,-0.011,0.722,0.113
37.73,-0.143,0.834,-0.038
37.74,-0.3,0.305,-0.234
37.75,-0.125,1.933,0.106
37.76,-0.149,0.907,0.097
37.77,-0.086,0.571,-0.049
37.78,-0.486,0.887,-0.24
37.79,-0.029,1.543,0.205
37.8,-0.285,1.381,0.088
37.81,0.074,0.335,-0.042
37.82,-0.557,0.976,-0.206
37.83,0.012,1.386,0.21
37.84,-0.358,1.095,0.115
37.85,0.004,0.748,-0.109
37.86,-0.523,0.382,-0.171
37.87,-0.118,1.778,0.214
37.88,-0.212,0.833,0.123
37.89,-0.221,0.967,-0.076
37.9,-0.408,0.233,-0.184
37.91,-0.125,1.558,0.186
37.92,-0.119,1.057,0.053
37.93,-0.17,0.643,-0.09
37.94,-0.404,0.747,-0.237
37.95,-0.004,1.121,0.133
37.96,-0.268,1.284,0.077
37.97,-0.071,0.413,-0.114
37.98,-0.549,0.983,-0.16
37.99,0.001,1.054,0.162
38.0,-0.192,1.256,0.01
38.01,-0.218,0.608,-0.148
38.02,-0.414,0.52,-0.144
38.03,-0.089,1.396,0.176
38.04,-0.123,0.801,0.034
38.05,-0.367,0.932,-0.137
38.06,-0.405,0.366,-0.085
38.07,-0.161,1.327,0.232
38.08,-0.189,0.906,0.03
38.09,-0.346,0.612,-0.095
38.1,-0.373,0.961,-0.063
38.11,-0.051,0.935,0.18
38.12,-0.217,1.284,-0.013
38.13,-0.203,0.309,-0.168
38.14,-0.334,1.237,-0.116
38.15,0.026,0.878,0.117
38.16,-0.148,1.165,0.002
38.17,-0.297,0.539,-0.217
38.18,-0.21,0.994,-0.096
38.19,-0.083,1.209,0.091
38.2,-0.04,0.677,0.025
38.21,-0.317,1.01,-0.199
38.22,-0.194,1.035,-0.123
38.23,-0.065,1.233,0.126
38.24,-0.114,0.75,0.021
38.25,-0.396,0.839,-0.148
38.26,-0.229,1.514,-0.079
38.27,-0.056,0.773,0.164
38.28,-0.154,1.116,-0.002
38.29,-0.324,0.438,-0.227
38.3,-0.267,1.772,-0.011
38.31,-0.046,0.671,0.079
38.32,-0.124,1.037,0.058
38.33,-0.318,0.664,-0.225
38.34,-0.288,1.421,0.024
38.35,-0.085,1.075,0.182
38.36,-0.061,0.488,0.076
38.37,-0.47,1.086,-0.172
38.38,-0.238,1.296,0.102
38.39,-0.223,1.143,0.208
38.4,-0.036,0.558,0.082
38.41,-0.514,0.935,-0.167
38.42,-0.216,1.652,0.124
38.43,-0.187,0.727,0.168
38.44,-0.079,0.912,0.081
38.45,-0.438,0.397,-0.175
38.46,-0.27,1.958,0.173
38.47,-0.055,0.72,0.175
38.48,-0.155,0.853,0.04
38.49,-0.334,0.579,-0.201
38.5,-0.059,1.72,0.032
38.51,-0.082,1.048,0.082
38.52,-0.08,0.599,-0.031
38.53,-0.443,0.834,-0.216
38.54,-0.059,1.586,0.145
38.55,-0.165,1.321,0.075
38.56,0.012,0.258,-0.042
38.57,-0.571,1.057,-0.166
38.58,-0.128,1.476,0.171
38.59,-0.244,1.154,0.138
38.6,0.001,0.708,-0.064
38.61,-0.553,0.462,-0.138
38.62,-0.101,1.753,0.22
38.63,-0.204,0.825,0.127
38.64,-0.187,1.002,-0.053
38.65,-0.416,0.217,-0.168
38.66,-0.18,1.712,0.214
38.67,-0.178,1.014,0.097
38.68,-0.186,0.706,-0.065
38.69,-0.463,0.692,-0.172
38.7,-0.028,1.223,0.194
38.71,-0.275,1.385,0.088
38.72,-0.006,0.396,-0.071
38.73,-0.505,1.014,-0.189
38.74,0.038,1.086,0.11
38.75,-0.206,1.262,0.072
38.76,-0.178,0.666,-0.113
38.77,-0.366,0.516,-0.14
38.78,-0.13,1.384,0.12
38.79,-0.002,0.857,0.031
38.8,-0.259,0.926,-0.159
38.81,-0.388,0.328,-0.137
38.82,-0.135,1.336,0.208
38.83,-0.213,0.913,0.023
38.84,-0.219,0.654,-0.125
38.85,-0.421,0.857,-0.133
38.86,-0.073,1.03,0.185
38.87,-0.244,1.25,0.034
38.88,-0.227,0.329,-0.144
38.89,-0.491,1.179,0.019
38.9,-0.057,0.855,0.176
38.91,-0.278,1.199,0.035
38.92,-0.138,0.499,-0.153
38.93,-0.277,1.035,-0.081
38.94,-0.008,1.201,0.076
38.95,-0.063,0.689,-0.062
38.96,-0.377,0.982,-0.212
38.97,-0.068,0.926,-0.078
38.98,-0.197,1.2,0.166
38.99,-0.064,0.743,0.056
39.0,-0.435,0.849,-0.217
39.01,-0.228,1.324,-0.034
39.02,-0.117,0.844,0.092
39.03,-0.171,1.151,-0.001
39.04,-0.304,0.376,-0.245
39.05,-0.249,1.766,0.014
39.06,-0.049,0.7,0.151
39.07,-0.148,1.021,0.052
39.08,-0.306,0.647,-0.203
39.09,-0.228,1.533,0.045
39.1,-0.07,1.037,0.131
39.11,0.007,0.494,0.009
39.12,-0.517,1.048,-0.192
39.13,-0.14,1.263,0.052
39.14,-0.221,1.037,0.144
39.15,0.049,0.6,0.033
39.16,-0.515,0.926,-0.221
39.17,-0.108,1.665,0.076
39.18,-0.113,0.811,0.143
39.19,-0.026,0.873,0.013
39.2,-0.421,0.405,-0.196
39.21,-0.186,2.0,0.109
39.22,-0.042,0.668,0.124
39.23,-0.143,0.873,0.021
39.24,-0.353,0.527,-0.228
39.25,-0.112,1.814,0.08
39.26,-0.091,0.984,0.114
39.27,0.046,0.431,-0.011
39.28,-0.463,1.016,-0.21
39.29,-0.014,1.542,0.125
39.3,-0.137,1.29,0.089
39.31,0.025,0.345,-0.01
39.32,-0.534,1.023,-0.2
39.33,-0.013,1.345,0.195
39.34,-0.233,1.215,0.087
39.35,-0.022,0.606,-0.073
39.36,-0.499,0.58,-0.123
39.37,-0.135,1.583,0.217
39.38,-0.218,0.824,0.106
39.39,-0.18,1.031,-0.063
39.4,-0.448,0.193,-0.14
39.41,-0.159,1.599,0.228
39.42,-0.137,0.975,0.092
39.43,-0.201,0.776,-0.039
39.44,-0.424,0.66,-0.181
39.45,-0.045,1.204,0.228
39.46,-0.157,1.357,0.031
39.47,-0.075,0.381,-0.118
39.48,-0.455,0.996,-0.195
39.49,0.009,1.02,0.141
39.5,-0.195,1.263,-0.008
39.51,-0.168,0.57,-0.133
39.52,-0.476,0.601,-0.096
39.53,-0.15,1.302,0.162
39.54,-0.097,0.876,0.047
39.55,-0.346,0.937,-0.096
39.56,-0.373,0.302,-0.093
39.57,-0.188,1.331,0.23
39.58,-0.127,0.859,0.003
39.59,-0.303,0.721,-0.078
39.6,-0.376,0.921,-0.112
39.61,-0.078,1.013,0.211
39.62,-0.265,1.215,0.054
39.63,-0.262,0.325,-0.162
39.64,-0.412,1.235,-0.03
39.65,-0.031,0.831,0.156
39.66,-0.328,1.226,0.088
39.67,-0.275,0.501,-0.159
39.68,-0.358,1.072,-0.026
39.69,-0.094,1.121,0.16
39.7,-0.104,0.731,-0.011
39.71,-0.369,0.965,-0.153
39.72,-0.128,1.023,-0.094
39.73,-0.105,1.256,0.13
39.74,-0.054,0.662,0.018
39.75,-0.414,0.951,-0.178
39.76,-0.269,1.351,-0.015
39.77,-0.116,0.857,0.098
39.78,-0.197,1.099,0.021
39.79,-0.275,0.431,-0.247
39.8,-0.271,1.825,0.035
39.81,0.015,0.711,0.09
39.82,-0.161,0.976,0.044
39.83,-0.257,0.569,-0.174
39.84,-0.366,1.562,0.03
39.85,-0.122,0.953,0.168
39.86,-0.024,0.646,0.048
39.87,-0.478,0.93,-0.183
39.88,-0.136,1.263,0.077
39.89,-0.21,1.129,0.143
39.9,0.046,0.524,0.032
39.91,-0.505,0.945,-0.147
39.92,-0.133,1.623,0.076
39.93,-0.071,0.885,0.129
39.94,-0.058,0.796,-0.005
39.95,-0.355,0.4,-0.189
39.96,-0.197,2.0,0.097
39.97,-0.088,0.59,0.157
39.98,-0.09,0.889,0.007
39.99,-0.378,0.486,-0.231
40.0,-0.114,1.821,0.106
40.01,-0.116,0.955,0.089
40.02,-0.006,0.393,-0.038
40.03,-0.449,1.037,-0.226
40.04,-0.051,1.456,0.121
40.05,-0.184,1.246,0.067
40.06,0.063,0.423,0.007
40.07,-0.521,0.904,-0.173
40.08,-0.082,1.58,0.143
40.09,-0.192,1.023,0.108
40.1,-0.053,0.799,-0.055
40.11,-0.45,0.384,-0.189
40.12,-0.235,1.905,0.148
40.13,-0.159,0.885,0.101
40.14,-0.203,0.927,-0.075
40.15,-0.368,0.259,-0.205
40.16,-0.136,1.539,0.155
40.17,-0.141,0.922,0.033
40.18,-0.226,0.778,-0.104
40.19,-0.4,0.618,-0.175
40.2,-0.042,1.167,0.155
40.21,-0.229,1.266,0.056
40.22,-0.1,0.358,-0.131
40.23,-0.48,1.02,-0.151
40.24,-0.005,0.961,0.187
40.25,-0.253,1.29,0.051
40.26,-0.237,0.488,-0.068
40.27,-0.461,0.724,-0.048
40.28,-0.092,1.249,0.171
40.29,-0.166,0.819,0.027
40.3,-0.311,0.917,-0.104
40.31,-0.408,0.458,-0.017
40.32,-0.216,1.334,0.237
40.33,-0.22,0.794,0.089
40.34,-0.283,0.786,-0.122
40.35,-0.42,0.968,-0.0
40.36,-0.044,0.984,0.21
40.37,-0.267,1.186,0.047
40.38,-0.112,0.314,-0.209
40.39,-0.347,1.571,-0.068
40.4,0.011,0.777,0.183
40.41,-0.242,1.158,0.024
40.42,-0.258,0.495,-0.231
40.43,-0.218,1.349,-0.088
40.44,-0.11,1.021,0.144
40.45,-0.107,0.692,0.023
40.46,-0.413,0.987,-0.185
40.47,-0.163,1.036,0.013
40.48,-0.195,1.159,0.148
40.49,-0.042,0.638,0.056
40.5,-0.47,1.003,-0.21
40.51,-0.193,1.394,0.009
40.52,-0.122,0.879,0.14
40.53,-0.094,0.948,0.014
40.54,-0.372,0.497,-0.231
40.55,-0.262,1.931,0.075
40.56,-0.076,0.708,0.156
40.57,-0.199,0.887,0.057
40.58,-0.392,0.516,-0.204
40.59,-0.272,1.723,0.127
40.6,-0.095,0.969,0.085
40.61,-0.044,0.529,0.006
40.62,-0.51,1.006,-0.185
40.63,-0.134,1.408,0.106
40.64,-0.231,1.135,0.159
40.65,0.026,0.442,0.032
40.66,-0.493,0.995,-0.199
40.67,-0.019,1.665,0.071
40.68,-0.08,0.945,0.069
40.69,0.024,0.762,-0.037
40.7,-0.408,0.466,-0.266
40.71,-0.058,2.0,0.021
40.72,0.002,0.704,0.007
40.73,-0.104,0.872,0.005
40.74,-0.456,0.369,-0.202
40.75,-0.111,1.868,0.144
40.76,-0.136,0.94,0.085
40.77,-0.053,0.509,-0.04
40.78,-0.546,0.913,-0.199
40.79,-0.078,1.459,0.156
40.8,-0.252,1.385,0.111
40.81,-0.015,0.369,-0.062
40.82,-0.49,0.94,-0.167
40.83,-0.073,1.413,0.167
40.84,-0.209,1.084,0.107
40.85,-0.091,0.807,-0.083
40.86,-0.45,0.348,-0.124
40.87,-0.111,1.75,0.136
40.88,-0.089,0.853,0.087
40.89,-0.187,0.943,-0.127
40.9,-0.344,0.236,-0.201
40.91,-0.09,1.517,0.157
40.92,-0.16,1.068,0.048
40.93,-0.287,0.764,-0.133
40.94,-0.417,0.572,-0.151
40.95,-0.075,1.129,0.193
40.96,-0.233,1.173,-0.008
40.97,-0.114,0.381,-0.155
40.98,-0.5,1.038,-0.172
40.99,0.088,0.939,0.163
41.0,-0.285,1.276,0.014
41.01,-0.188,0.39,-0.139
41.02,-0.563,0.779,-0.066
41.03,-0.06,1.178,0.157
41.04,-0.18,0.859,0.017
41.05,-0.247,0.805,-0.126
41.06,-0.231,0.619,-0.085
41.07,-0.176,1.283,0.179
41.08,-0.122,0.73,0.057
41.09,-0.363,0.863,-0.13
41.1,-0.296,0.998,-0.015
41.11,-0.047,1.038,0.16
41.12,-0.192,1.086,0.088
41.13,-0.176,0.492,-0.237
41.14,-0.351,1.4,-0.112
41.15,0.064,0.775,0.096
41.16,-0.357,1.23,0.005
41.17,-0.197,0.404,-0.191
41.18,-0.353,1.45,-0.071
41.19,-0.044,1.035,0.205
41.2,-0.203,0.706,0.064
41.21,-0.381,1.061,-0.136
41.22,-0.281,1.115,-0.021
41.23,-0.206,1.137,0.169
41.24,-0.045,0.655,0.062
41.25,-0.483,0.991,-0.186
41.26,-0.281,1.198,0.032
41.27,-0.127,0.904,0.134
41.28,-0.135,0.988,-0.01
41.29,-0.242,0.556,-0.201
41.3,-0.313,1.888,0.02
41.31,-0.018,0.715,0.142
41.32,-0.148,1.016,0.075
41.33,-0.329,0.483,-0.175
41.34,-0.328,1.702,0.111
41.35,-0.169,0.938,0.136
41.36,-0.073,0.58,0.002
41.37,-0.443,0.945,-0.177
41.38,-0.152,1.356,0.093
41.39,-0.228,1.124,0.169
41.4,0.055,0.473,0.005
41.41,-0.534,1.054,-0.171
41.42,-0.042,1.555,0.12
41.43,-0.137,0.999,0.144
41.44,0.042,0.701,0.001
41.45,-0.405,0.554,-0.208
41.46,-0.119,2.0,0.095
41.47,-0.066,0.653,0.118
41.48,-0.162,0.894,-0.007
41.49,-0.431,0.345,-0.197
41.5,-0.089,1.957,0.085
41.51,-0.091,0.8,0.072
41.52,0.057,0.575,-0.053
41.53,-0.518,0.844,-0.264
41.54,0.046,1.559,0.152
41.55,-0.264,1.334,0.087
41.56,0.09,0.335,-0.015
41.57,-0.551,1.019,-0.241
41.58,-0.059,1.389,0.165
41.59,-0.245,1.139,0.095
41.6,-0.027,0.732,-0.044
41.61,-0.483,0.436,-0.166
41.62,-0.12,1.866,0.175
41.63,-0.21,0.861,0.152
41.64,-0.169,1.037,-0.059
41.65,-0.449,0.28,-0.132
41.66,-0.085,1.776,0.168
41.67,-0.128,1.058,0.07
41.68,-0.116,0.67,-0.083
41.69,-0.489,0.687,-0.173
41.7,-0.055,1.272,0.18
41.71,-0.315,1.402,0.124
41.72,-0.043,0.409,-0.055
41.73,-0.456,1.036,-0.137
41.74,0.026,0.903,0.104
41.75,-0.257,1.36,-0.01
41.76,-0.12,0.419,-0.132
41.77,-0.467,0.88,-0.058
41.78,-0.026,1.064,0.157
41.79,-0.149,0.935,0.012
41.8,-0.321,0.806,-0.114
41.81,-0.317,0.493,-0.002
41.82,-0.198,1.31,0.166
41.83,-0.146,0.706,0.059
41.84,-0.356,0.9,-0.117
41.85,-0.223,0.941,-0.06
41.86,-0.102,1.074,0.188
41.87,-0.161,1.064,0.014
41.88,-0.318,0.399,-0.165
41.89,-0.225,1.565,-0.037
41.9,-0.083,0.737,0.161
41.91,-0.263,1.198,0.06
41.92,-0.261,0.479,-0.217
41.93,-0.235,1.521,-0.002
41.94,-0.093,0.891,0.154
41.95,-0.132,0.797,0.012
41.96,-0.402,0.883,-0.206
41.97,-0.146,1.229,0.049
41.98,-0.175,1.189,0.136
41.99,0.033,0.541,0.075
42.0,-0.498,1.069,-0.168
42.01,-0.207,1.412,0.064
42.02,-0.156,0.938,0.121
42.03,-0.092,0.75,0.039
42.04,-0.402,0.613,-0.139
42.05,-0.273,1.896,0.1
42.06,-0.04,0.703,0.187
42.07,-0.177,0.929,0.056
42.08,-0.308,0.402,-0.224
42.09,-0.186,1.887,0.114
42.1,-0.024,0.81,0.063
42.11,-0.073,0.611,-0.051
42.12,-0.367,0.888,-0.249
42.13,-0.059,1.529,0.082
42.14,-0.169,1.126,0.112
42.15,0.074,0.321,0.016
42.16,-0.53,1.07,-0.22
42.17,-0.008,1.603,0.101
42.18,-0.255,1.094,0.103
42.19,-0.006,0.662,-0.027
42.2,-0.461,0.527,-0.161
42.21,-0.149,1.958,0.194
42.22,-0.073,0.801,0.087
42.23,-0.173,0.904,-0.059
42.24,-0.434,0.305,-0.144
42.25,-0.185,1.953,0.154
42.26,-0.212,0.905,0.098
42.27,-0.063,0.681,-0.065
42.28,-0.533,0.699,-0.191
42.29,0.004,1.301,0.157
42.3,-0.32,1.395,0.061
42.31,0.002,0.433,-0.077
42.32,-0.487,0.91,-0.133
42.33,0.033,1.149,0.102
42.34,-0.21,1.282,0.028
42.35,-0.14,0.628,-0.096
42.36,-0.476,0.523,-0.104
42.37,-0.163,1.405,0.151
42.38,-0.121,0.839,0.043
42.39,-0.292,1.027,-0.112
42.4,-0.388,0.262,-0.102
42.41,-0.198,1.314,0.221
42.42,-0.23,0.894,0.089
42.43,-0.357,0.882,-0.11
42.44,-0.27,0.877,-0.085
42.45,-0.048,1.083,0.124
42.46,-0.125,1.068,-0.027
42.47,-0.287,0.499,-0.196
42.48,-0.285,1.472,-0.1
42.49,-0.031,0.786,0.147
42.5,-0.234,1.236,0.043
42.51,-0.184,0.456,-0.236
42.52,-0.352,1.599,-0.043
42.53,-0.09,0.691,0.168
42.54,-0.234,0.962,0.07
42.55,-0.369,0.619,-0.154
42.56,-0.294,1.591,0.077
42.57,-0.168,1.005,0.185
42.58,0.015,0.491,0.037
42.59,-0.521,1.081,-0.163
42.6,-0.066,1.369,0.113
42.61,-0.217,1.178,0.15
42.62,-0.003,0.446,0.043
42.63,-0.493,0.872,-0.153
42.64,-0.047,1.897,0.055
42.65,-0.112,0.796,0.149
42.66,-0.081,0.815,-0.03
42.67,-0.389,0.378,-0.204
42.68,-0.098,2.0,0.054
42.69,-0.062,0.694,0.084
42.7,-0.131,0.801,-0.015
42.71,-0.47,0.519,-0.203
42.72,-0.11,1.743,0.105
42.73,-0.19,1.171,0.086
42.74,-0.11,0.333,-0.036
42.75,-0.456,0.976,-0.152
42.76,-0.089,1.287,0.205
42.77,-0.272,1.319,0.153
42.78,-0.06,0.484,-0.053
42.79,-0.506,0.757,-0.095
42.8,0.029,1.382,0.177
42.81,-0.229,1.004,0.044
42.82,-0.076,0.934,-0.135
42.83,-0.434,0.218,-0.189
42.84,-0.067,1.615,0.179
42.85,-0.12,0.844,-0.008
42.86,-0.174,0.96,-0.167
42.87,-0.505,0.362,-0.176
42.88,-0.171,1.181,0.244
42.89,-0.317,1.193,0.082
42.9,-0.162,0.365,-0.109
42.91,-0.412,1.052,-0.073
42.92,-0.046,0.896,0.192
42.93,-0.279,1.313,0.065
42.94,-0.273,0.408,-0.122
42.95,-0.452,0.989,-0.041
42.96,-0.085,1.08,0.141
42.97,-0.182,0.965,0.104
42.98,-0.301,0.803,-0.171
42.99,-0.299,0.77,-0.038
43.0,-0.115,1.354,0.18
43.01,-0.186,0.687,0.035
43.02,-0.338,0.91,-0.156
43.03,-0.161,1.187,-0.109
43.04,-0.015,1.12,0.13
43.05,-0.131,0.885,-0.033
43.06,-0.358,0.682,-0.222
43.07,-0.214,1.677,-0.04
43.08,-0.12,0.663,0.098
43.09,-0.231,1.148,0.035
43.1,-0.301,0.48,-0.2
43.11,-0.368,1.674,0.059
43.12,-0.076,0.826,0.178
43.13,-0.109,0.777,0.049
43.14,-0.391,0.913,-0.2
43.15,-0.302,1.359,0.085
43.16,-0.162,1.098,0.236
43.17,0.094,0.519,0.038
43.18,-0.58,1.104,-0.14
43.19,-0.082,1.443,0.087
43.2,-0.198,1.022,0.174
43.21,-0.083,0.632,0.037
43.22,-0.462,0.637,-0.157
43.23,-0.141,1.961,0.068
43.24,-0.004,0.683,0.161
43.25,-0.135,0.923,0.008
43.26,-0.341,0.33,-0.23
43.27,-0.135,2.0,0.079
43.28,-0.01,0.81,0.101
43.29,-0.107,0.617,-0.007
43.3,-0.36,0.815,-0.253
43.31,-0.057,1.654,0.119
43.32,-0.113,1.191,0.082
43.33,-0.023,0.445,-0.033
43.34,-0.51,1.002,-0.188
43.35,-0.021,1.216,0.187
43.36,-0.261,1.312,0.019
43.37,0.013,0.476,-0.051
43.38,-0.467,0.837,-0.215
43.39,-0.011,1.359,0.097
43.4,-0.189,0.985,0.101
43.41,-0.185,0.891,-0.132
43.42,-0.329,0.283,-0.162
43.43,-0.123,1.551,0.152
43.44,-0.057,0.844,0.039
43.45,-0.208,0.907,-0.125
43.46,-0.399,0.388,-0.171
43.47,-0.101,1.193,0.135
43.48,-0.15,1.087,0.005
43.49,-0.123,0.443,-0.207
43.5,-0.5,0.987,-0.141
43.51,0.004,0.883,0.178
43.52,-0.299,1.36,0.038
43.53,-0.068,0.335,-0.173
43.54,-0.565,0.931,-0.073
43.55,0.018,1.036,0.143
43.56,-0.16,1.035,0.036
43.57,-0.233,0.721,-0.185
43.58,-0.402,0.719,-0.081
43.59,-0.089,1.318,0.206
43.6,-0.202,0.732,0.07
43.61,-0.344,0.867,-0.145
43.62,-0.231,0.939,-0.055
43.63,-0.133,1.103,0.165
43.64,-0.271,0.974,-0.032
43.65,-0.263,0.558,-0.133
43.66,-0.305,1.646,-0.056
43.67,0.002,0.748,0.126
43.68,-0.261,1.153,0.001
43.69,-0.349,0.431,-0.162
43.7,-0.307,1.666,0.067
43.71,-0.182,0.757,0.209
43.72,-0.145,0.841,0.049
43.73,-0.447,0.765,-0.226
43.74,-0.213,1.342,0.056
43.75,-0.217,1.176,0.156
43.76,0.083,0.516,0.059
43.77,-0.424,1.009,-0.215
43.78,-0.062,1.414,0.056
43.79,-0.061,1.104,0.092
43.8,-0.003,0.623,-0.032
43.81,-0.376,0.655,-0.205
43.82,-0.128,2.0,0.008
43.83,-0.013,0.648,0.085
43.84,-0.074,0.924,-0.048
43.85,-0.369,0.365,-0.26
43.86,-0.094,2.0,0.02
43.87,-0.077,0.774,0.069
43.88,-0.03,0.631,-0.017
43.89,-0.451,0.731,-0.209
43.9,-0.095,1.608,0.126
43.91,-0.249,1.263,0.109
43.92,-0.007,0.364,-0.019
43.93,-0.506,1.013,-0.187
43.94,-0.045,1.428,0.151
43.95,-0.283,1.216,0.115
43.96,-0.035,0.606,-0.062
43.97,-0.552,0.545,-0.115
43.98,-0.104,1.669,0.242
43.99,-0.158,0.802,0.102
44.0,-0.231,0.949,-0.091
44.01,-0.373,0.223,-0.181
44.02,-0.193,1.558,0.161
44.03,-0.158,0.93,0.025
44.04,-0.135,0.782,-0.095
44.05,-0.42,0.631,-0.187
44.06,-0.007,1.172,0.105
44.07,-0.244,1.304,0.027
44.08,-0.053,0.424,-0.141
44.09,-0.5,0.977,-0.147
44.1,0.011,0.963,0.186
44.11,-0.217,1.294,0.01
44.12,-0.171,0.559,-0.139
44.13,-0.422,1.128,-0.053
44.14,-0.062,0.991,0.187
44.15,-0.223,0.974,0.025
44.16,-0.282,0.666,-0.142
44.17,-0.236,1.018,-0.072
44.18,-0.107,1.315,0.192
44.19,-0.178,0.595,0.102
44.2,-0.475,1.06,-0.15
44.21,-0.247,1.062,-0.032
44.22,-0.103,1.064,0.117
44.23,-0.109,0.893,-0.006
44.24,-0.419,0.667,-0.232
44.25,-0.243,1.688,0.011
44.26,-0.019,0.679,0.106
44.27,-0.128,1.072,0.046
44.28,-0.273,0.508,-0.22
44.29,-0.328,1.818,0.062
44.3,-0.128,0.802,0.155
44.31,-0.079,0.731,0.041
44.32,-0.32,0.772,-0.181
44.33,-0.139,1.47,0.061
44.34,-0.187,1.169,0.156
44.35,0.064,0.374,0.006
44.36,-0.44,1.069,-0.21
44.37,-0.067,1.51,0.116
44.38,-0.119,1.061,0.11
44.39,-0.062,0.555,-0.024
44.4,-0.316,0.724,-0.186
44.41,-0.174,1.959,0.065
44.42,-0.007,0.683,0.099
44.43,-0.244,1.08,0.026
44.44,-0.346,0.464,-0.185
44.45,-0.322,1.612,0.04
44.46,-0.104,0.812,0.112
44.47,-0.122,0.728,0.013
44.48,-0.458,0.908,-0.205
44.49,-0.152,1.306,0.026
44.5,-0.188,1.187,0.175
44.51,0.051,0.446,0.072
44.52,-0.56,1.049,-0.163
44.53,-0.12,1.522,0.14
44.54,-0.232,0.925,0.158
44.55,-0.053,0.765,0.038
44.56,-0.459,0.544,-0.16
44.57,-0.227,2.0,0.138
44.58,-0.083,0.681,0.121
44.59,-0.129,0.892,0.034
44.6,-0.394,0.404,-0.198
44.61,-0.143,1.883,0.093
44.62,-0.012,0.825,0.054
44.63,-0.032,0.577,0.01
44.64,-0.479,0.83,-0.178
44.65,-0.053,1.623,0.176
44.66,-0.293,1.251,0.121
44.67,0.058,0.356,-0.011
44.68,-0.556,1.055,-0.226
44.69,-0.042,1.428,0.167
44.7,-0.199,1.154,0.067
44.71,-0.011,0.626,-0.059
44.72,-0.451,0.424,-0.134
44.73,-0.176,1.64,0.157
44.74,-0.189,0.785,0.107
44.75,-0.243,1.033,-0.09
44.76,-0.4,0.2,-0.157
44.77,-0.142,1.593,0.205
44.78,-0.143,1.118,0.096
44.79,-0.237,0.597,-0.096
44.8,-0.36,0.744,-0.143
44.81,-0.06,1.13,0.138
44.82,-0.226,1.338,0.046
44.83,-0.031,0.423,-0.121
44.84,-0.508,0.958,-0.175
44.85,0.0,0.907,0.182
44.86,-0.298,1.299,0.067
44.87,-0.269,0.34,-0.146
44.88,-0.481,0.953,-0.012
44.89,-0.108,1.056,0.154
44.9,-0.244,0.935,0.042
44.91,-0.251,0.766,-0.123
44.92,-0.286,0.874,-0.044
44.93,-0.072,1.29,0.131
44.94,-0.178,0.722,0.033
44.95,-0.35,0.988,-0.146
44.96,-0.384,0.954,-0.024
44.97,-0.136,1.006,0.11
44.98,-0.17,1.111,-0.034
44.99,-0.293,0.474,-0.241
45.0,-0.313,1.488,-0.042
45.01,-0.055,0.701,0.076
45.02,-0.266,1.195,0.011
45.03,-0.232,0.432,-0.185
45.04,-0.265,1.703,0.024
45.05,-0.01,0.96,0.181
45.06,-0.161,0.649,0.039
45.07,-0.483,0.906,-0.172
45.08,-0.226,1.327,0.079
45.09,-0.289,1.056,0.133
45.1,0.04,0.53,0.019
45.11,-0.545,1.083,-0.165
45.12,-0.152,1.474,0.074
45.13,-0.255,0.951,0.137
45.14,0.001,0.701,0.04
45.15,-0.376,0.584,-0.16
45.16,-0.185,1.944,0.067
45.17,0.022,0.766,0.114
45.18,-0.167,0.875,-0.01
45.19,-0.324,0.276,-0.165
45.2,-0.082,2.0,0.095
45.21,-0.095,0.789,0.044
45.22,-0.053,0.631,-0.033
45.23,-0.472,0.849,-0.24
45.24,-0.02,1.595,0.177
45.25,-0.221,1.307,0.068
45.26,0.07,0.233,-0.025
45.27,-0.577,0.956,-0.136
45.28,-0.036,1.337,0.179
45.29,-0.26,1.151,0.172
45.3,-0.167,0.744,-0.054
45.31,-0.453,0.426,-0.107
45.32,-0.092,1.754,0.239
45.33,-0.055,0.936,0.109
45.34,-0.143,0.921,-0.109
45.35,-0.411,0.276,-0.155
45.36,-0.1,1.58,0.176
45.37,-0.168,0.982,0.075
45.38,-0.077,0.693,-0.141
45.39,-0.49,0.685,-0.184
45.4,0.031,1.086,0.123
45.41,-0.289,1.293,0.041
45.42,-0.125,0.371,-0.139
45.43,-0.536,0.977,-0.112
45.44,-0.022,0.989,0.154
45.45,-0.26,1.305,0.033
45.46,-0.215,0.534,-0.09
45.47,-0.526,0.636,-0.052
45.48,-0.099,1.292,0.179
45.49,-0.206,0.777,0.147
45.5,-0.311,0.901,-0.098
45.51,-0.422,0.625,-0.003
45.52,-0.067,1.366,0.155
45.53,-0.15,0.847,-0.004
45.54,-0.346,0.761,-0.137
45.55,-0.283,1.084,-0.082
45.56,-0.059,0.903,0.088
45.57,-0.175,1.232,-0.019
45.58,-0.243,0.33,-0.203
45.59,-0.197,1.679,-0.127
45.6,0.027,0.781,0.049
45.61,-0.147,1.09,0.013
45.62,-0.318,0.606,-0.238
45.63,-0.254,1.423,0.006
45.64,-0.171,1.0,0.117
45.65,-0.082,0.751,0.051
45.66,-0.427,0.877,-0.188
45.67,-0.153,1.423,0.094
45.68,-0.178,1.162,0.153
45.69,0.122,0.385,0.001
45.7,-0.459,1.107,-0.177
45.71,-0.053,1.511,0.079
45.72,-0.099,1.059,0.101
45.73,0.005,0.625,-0.042
45.74,-0.366,0.623,-0.208
45.75,-0.093,2.0,0.017
45.76,-0.038,0.743,0.066
45.77,-0.1,0.856,-0.038
45.78,-0.339,0.352,-0.256
45.79,-0.102,1.994,0.078
45.8,-0.024,0.846,0.054
45.81,-0.143,0.6,-0.069
45.82,-0.415,0.771,-0.184
45.83,-0.111,1.591,0.169
45.84,-0.246,1.325,0.11
45.85,0.029,0.336,-0.047
45.86,-0.58,1.029,-0.107
45.87,-0.005,1.334,0.229
45.88,-0.27,1.201,0.137
45.89,-0.021,0.594,-0.065
45.9,-0.514,0.516,-0.177
45.91,-0.038,1.553,0.175
45.92,-0.173,0.835,0.026
45.93,-0.157,1.018,-0.134
45.94,-0.421,0.177,-0.209
45.95,-0.127,1.536,0.179
45.96,-0.164,0.989,0.048
45.97,-0.268,0.716,-0.121
45.98,-0.465,0.655,-0.127
45.99,-0.058,1.082,0.157
46.0,-0.283,1.302,0.052
46.01,-0.07,0.383,-0.128
46.02,-0.6,1.061,-0.095
46.03,0.015,0.954,0.164
46.04,-0.279,1.247,0.059
46.05,-0.268,0.478,-0.106
46.06,-0.458,0.766,0.021
46.07,-0.087,1.22,0.157
46.08,-0.202,0.804,0.086
46.09,-0.308,0.928,-0.082
46.1,-0.305,0.731,-0.024
46.11,-0.112,1.337,0.174
46.12,-0.236,0.768,0.085
46.13,-0.409,0.795,-0.109
46.14,-0.261,1.171,-0.035
46.15,-0.108,0.931,0.181
46.16,-0.223,1.159,0.015
46.17,-0.248,0.402,-0.188
46.18,-0.284,1.711,-0.005
46.19,0.047,0.715,0.131
46.2,-0.24,1.1,0.034
46.21,-0.237,0.555,-0.218
46.22,-0.279,1.526,-0.027
46.23,-0.092,0.976,0.157
46.24,0.009,0.627,0.026
46.25,-0.532,0.989,-0.183
46.26,-0.182,1.266,0.095
46.27,-0.221,1.22,0.182
46.28,-0.071,0.482,0.081
46.29,-0.453,0.934,-0.145
46.3,-0.203,1.631,0.1
46.31,-0.131,0.873,0.241
46.32,-0.083,0.804,0.015
46.33,-0.398,0.463,-0.188
46.34,-0.247,2.0,0.116
46.35,-0.081,0.606,0.1
46.36,-0.163,0.894,0.027
46.37,-0.312,0.553,-0.196
46.38,-0.194,1.795,0.133
46.39,-0.125,0.899,0.104
46.4,-0.014,0.468,-0.003
46.41,-0.402,0.961,-0.21
46.42,-0.034,1.509,0.095
46.43,-0.209,1.318,0.092
46.44,0.042,0.361,-0.003
46.45,-0.533,0.897,-0.197
46.46,-0.039,1.305,0.202
46.47,-0.336,1.255,0.108
46.48,-0.034,0.636,-0.089
46.49,-0.529,0.552,-0.137
46.5,-0.098,1.568,0.228
46.51,-0.213,0.907,0.087
46.52,-0.181,0.982,-0.071
46.53,-0.44,0.26,-0.16
46.54,-0.103,1.495,0.144
46.55,-0.109,0.911,0.017
46.56,-0.18,0.772,-0.159
46.57,-0.37,0.628,-0.208
46.58,-0.082,1.043,0.186
46.59,-0.302,1.234,0.018
46.6,-0.164,0.322,-0.119
46.61,-0.504,1.022,-0.1
46.62,-0.049,0.906,0.193
46.63,-0.283,1.25,0.054
46.64,-0.272,0.425,-0.133
46.65,-0.375,0.788,-0.054
46.66,-0.103,1.184,0.135
46.67,-0.173,0.821,0.065
46.68,-0.335,0.853,-0.112
46.69,-0.339,0.654,-0.022
46.7,-0.157,1.329,0.193
46.71,-0.194,0.786,0.063
46.72,-0.374,0.834,-0.145
46.73,-0.279,1.127,-0.038
46.74,-0.062,1.007,0.143
46.75,-0.205,1.134,0.006
46.76,-0.234,0.428,-0.202
46.77,-0.258,1.697,-0.069
46.78,0.002,0.729,0.141
46.79,-0.258,1.136,0.043
46.8,-0.337,0.552,-0.19
46.81,-0.278,1.505,0.036
46.82,-0.131,0.961,0.147
46.83,-0.159,0.686,0.05
46.84,-0.478,1.017,-0.172
46.85,-0.178,1.276,0.074
46.86,-0.171,1.203,0.198
46.87,0.009,0.526,0.062
46.88,-0.505,1.019,-0.176
46.89,-0.126,1.511,0.069
46.9,-0.096,0.898,0.033
46.91,-0.024,0.825,-0.01
46.92,-0.321,0.516,-0.221
46.93,-0.242,1.974,0.089
46.94,0.027,0.652,0.119
46.95,-0.099,0.904,0.011
46.96,-0.357,0.428,-0.219
46.97,-0.067,1.888,0.051
46.98,-0.098,0.911,0.161
46.99,-0.069,0.463,0.008
47.0,-0.432,0.968,-0.229
47.01,0.002,1.605,0.127
47.02,-0.195,1.226,-0.003
47.03,0.036,0.323,-0.056
47.04,-0.469,1.021,-0.241
47.05,-0.004,1.611,0.077
47.06,-0.084,1.008,-0.0
47.07,-0.059,0.682,-0.062
47.08,-0.441,0.406,-0.176
47.09,-0.141,1.974,0.108
47.1,-0.088,0.778,0.097
47.11,-0.189,0.937,-0.09
47.12,-0.413,0.268,-0.152
47.13,-0.179,1.816,0.131
47.14,-0.193,1.087,0.103
47.15,-0.103,0.544,-0.074
47.16,-0.479,0.803,-0.16
47.17,0.005,1.128,0.207
47.18,-0.299,1.359,0.066
47.19,-0.021,0.421,-0.089
47.2,-0.534,0.958,-0.153
47.21,-0.009,1.113,0.177
47.22,-0.232,1.079,0.094
47.23,-0.15,0.765,-0.118
47.24,-0.469,0.46,-0.117
47.25,-0.153,1.392,0.186
47.26,-0.195,0.854,-0.004
47.27,-0.243,0.821,-0.102
47.28,-0.42,0.49,-0.08
47.29,-0.201,1.395,0.19
47.3,-0.174,0.669,0.052
47.31,-0.358,0.96,-0.116
47.32,-0.368,0.768,-0.028
47.33,-0.118,1.058,0.198
47.34,-0.263,1.134,0.059
47.35,-0.245,0.368,-0.129
47.36,-0.397,1.354,-0.034
47.37,-0.021,0.809,0.174
47.38,-0.344,1.244,0.09
47.39,-0.182,0.38,-0.116
47.4,-0.344,1.4,-0.071
47.41,0.028,1.043,0.145
47.42,-0.137,0.781,-0.003
47.43,-0.379,0.88,-0.221
47.44,-0.152,0.927,-0.086
47.45,-0.164,1.229,0.123
47.46,-0.098,0.692,0.046
47.47,-0.375,0.984,-0.203
47.48,-0.265,1.146,-0.04
47.49,-0.085,1.034,0.119
47.5,-0.116,1.007,-0.032
47.51,-0.306,0.5,-0.244
47.52,-0.229,1.815,-0.052
47.53,0.005,0.684,0.103
47.54,-0.16,1.068,0.056
47.55,-0.299,0.441,-0.211
47.56,-0.279,1.756,0.016
47.57,-0.113,0.844,0.127
47.58,-0.001,0.7,0.026
47.59,-0.446,0.91,-0.199
47.6,-0.164,1.323,0.03
47.61,-0.222,1.151,0.122
47.62,0.068,0.483,0.036
47.63,-0.477,1.018,-0.205
47.64,-0.2,1.469,0.084
47.65,-0.211,0.917,0.161
47.66,-0.007,0.72,-0.023
47.67,-0.517,0.597,-0.136
47.68,-0.173,1.954,0.122
47.69,-0.11,0.643,0.098
47.7,-0.133,0.884,0.029
47.71,-0.372,0.405,-0.184
47.72,-0.225,1.944,0.116
47.73,-0.096,0.756,0.11
47.74,-0.02,0.629,-0.022
47.75,-0.442,0.87,-0.248
47.76,-0.034,1.54,0.12
47.77,-0.233,1.238,0.129
47.78,0.022,0.273,0.048
47.79,-0.547,1.097,-0.183
47.8,-0.027,1.634,0.139
47.81,-0.182,1.132,0.068
47.82,-0.058,0.557,-0.007
47.83,-0.393,0.582,-0.163
47.84,-0.18,1.897,0.1
47.85,-0.072,0.771,0.123
47.86,-0.124,0.96,-0.044
47.87,-0.419,0.255,-0.174
47.88,-0.156,1.852,0.072
47.89,-0.235,0.921,0.114
47.9,-0.036,0.777,-0.082
47.91,-0.529,0.625,-0.197
47.92,-0.001,1.36,0.161
47.93,-0.27,1.366,0.053
47.94,0.023,0.421,-0.034
47.95,-0.582,0.951,-0.172
47.96,0.027,1.099,0.214
47.97,-0.272,1.245,0.075
47.98,-0.123,0.678,-0.079
47.99,-0.45,0.573,-0.103
48.0,-0.104,1.425,0.199
48.01,-0.102,0.915,0.06
48.02,-0.198,0.953,-0.098
48.03,-0.302,0.296,-0.155
48.04,-0.209,1.394,0.163
48.05,-0.109,0.87,-0.003
48.06,-0.343,0.937,-0.12
48.07,-0.345,0.594,-0.092
48.08,-0.101,1.225,0.16
48.09,-0.249,0.988,0.088
48.1,-0.24,0.473,-0.168
48.11,-0.325,1.309,-0.105
48.12,0.027,0.838,0.161
48.13,-0.301,1.298,0.056
48.14,-0.226,0.257,-0.128
48.15,-0.324,1.47,-0.036
48.16,-0.027,0.939,0.138
48.17,-0.163,0.866,0.019
48.18,-0.394,0.892,-0.195
48.19,-0.2,1.049,-0.022
48.2,-0.193,1.173,0.136
48.21,-0.036,0.632,0.035
48.22,-0.463,1.049,-0.228
48.23,-0.191,1.107,0.007
48.24,-0.081,1.089,0.088
48.25,-0.132,0.848,0.034
48.26,-0.29,0.659,-0.226
48.27,-0.304,1.709,-0.003
48.28,0.007,0.663,0.125
48.29,-0.186,1.134,0.059
48.3,-0.301,0.4,-0.229
48.31,-0.373,1.806,0.031
48.32,-0.084,0.759,0.116
48.33,-0.116,0.823,0.065
48.34,-0.38,0.78,-0.23
48.35,-0.208,1.462,0.053
48.36,-0.163,1.073,0.134
48.37,0.042,0.433,0.033
48.38,-0.404,1.07,-0.168
48.39,-0.128,1.537,0.136
48.4,-0.174,1.084,0.143
48.41,0.006,0.583,-0.012
48.42,-0.456,0.705,-0.176
48.43,-0.063,1.954,0.09
48.44,-0.082,0.654,0.093
48.45,-0.082,0.907,-0.022
48.46,-0.385,0.341,-0.239
48.47,-0.11,2.0,0.061
48.48,-0.092,0.796,0.1
48.49,-0.092,0.714,-0.009
