t,ax,ay,az
0.0,-0.183,1.72,0.09
0.01,-0.115,0.894,0.125
0.02,-0.022,0.504,-0.029
0.03,-0.438,0.839,-0.212
0.04,0.013,1.685,0.1
0.05,-0.248,1.179,0.174
0.06,0.097,0.349,0.027
0.07,-0.531,0.982,-0.216
0.08,0.034,1.656,0.117
0.09,-0.198,1.091,0.126
0.1,0.079,0.612,-0.059
0.11,-0.451,0.523,-0.172
0.12,-0.12,1.945,0.149
0.13,-0.087,0.702,0.163
0.14,-0.057,0.945,-0.003
0.15,-0.402,0.292,-0.165
0.16,-0.136,2.0,0.147
0.17,-0.133,0.891,0.107
0.18,-0.004,0.604,-0.013
0.19,-0.438,0.776,-0.237
0.2,0.021,1.654,0.146
0.21,-0.258,1.213,0.095
0.22,0.196,0.341,-0.091
0.23,-0.549,0.967,-0.205
0.24,0.049,1.461,0.176
0.25,-0.231,1.096,0.067
0.26,0.042,0.683,-0.08
0.27,-0.485,0.51,-0.2
0.28,-0.103,1.742,0.174
0.29,-0.09,0.841,0.098
0.3,-0.118,1.0,-0.09
0.31,-0.459,0.206,-0.198
0.32,-0.083,1.878,0.167
0.33,-0.138,0.963,0.089
0.34,-0.092,0.712,-0.058
0.35,-0.387,0.648,-0.235
0.36,-0.044,1.373,0.161
0.37,-0.173,1.306,0.07
0.38,-0.014,0.456,-0.061
0.39,-0.475,0.932,-0.208
0.4,-0.092,1.276,0.185
0.41,-0.207,1.317,0.101
0.42,-0.056,0.664,-0.025
0.43,-0.469,0.537,-0.151
0.44,-0.196,1.561,0.158
0.45,-0.093,0.857,0.078
0.46,-0.166,1.068,-0.058
0.47,-0.359,0.205,-0.168
0.48,-0.205,1.543,0.136
0.49,-0.108,0.936,0.054
0.5,-0.164,0.901,-0.095
0.51,-0.34,0.517,-0.165
0.52,-0.121,1.187,0.163
0.53,-0.246,1.375,0.076
0.54,-0.014,0.516,-0.071
0.55,-0.534,0.942,-0.115
0.56,0.022,1.043,0.205
0.57,-0.24,1.38,0.074
0.58,-0.129,0.549,-0.121
0.59,-0.391,0.698,-0.091
0.6,-0.112,1.294,0.123
0.61,-0.114,0.91,0.003
0.62,-0.128,0.977,-0.123
0.63,-0.453,0.382,-0.094
0.64,-0.108,1.401,0.196
0.65,-0.221,0.791,0.02
0.66,-0.339,0.865,-0.089
0.67,-0.406,0.586,-0.072
0.68,-0.139,0.979,0.18
0.69,-0.206,1.332,-0.035
0.7,-0.15,0.387,-0.116
0.71,-0.453,1.131,-0.056
0.72,-0.021,0.807,0.188
0.73,-0.283,1.308,0.019
0.74,-0.229,0.416,-0.116
0.75,-0.396,0.958,-0.066
0.76,-0.095,1.04,0.144
0.77,-0.243,0.882,0.003
0.78,-0.343,0.843,-0.127
0.79,-0.316,0.672,-0.024
0.8,-0.158,1.261,0.178
0.81,-0.148,0.71,0.047
0.82,-0.412,0.957,-0.183
0.83,-0.22,1.104,0.042
0.84,-0.143,1.125,0.154
0.85,-0.161,0.82,0.017
0.86,-0.35,0.728,-0.181
0.87,-0.318,1.631,0.023
0.88,-0.022,0.697,0.11
0.89,-0.262,1.107,0.025
0.9,-0.22,0.332,-0.208
0.91,-0.329,1.952,-0.025
0.92,0.008,0.783,0.108
0.93,-0.175,0.826,0.058
0.94,-0.37,0.649,-0.129
0.95,-0.359,1.608,0.072
0.96,-0.114,1.078,0.16
0.97,-0.05,0.435,0.034
0.98,-0.48,1.078,-0.224
0.99,-0.203,1.423,0.058
1.0,-0.212,0.993,0.106
1.01,-0.022,0.66,0.013
1.02,-0.414,0.801,-0.177
1.03,-0.227,1.854,0.0
1.04,-0.072,0.701,0.138
1.05,-0.088,0.909,-0.004
1.06,-0.295,0.283,-0.162
1.07,-0.173,2.0,0.096
1.08,-0.03,0.733,0.106
1.09,-0.133,0.732,-0.017
1.1,-0.316,0.591,-0.236
1.11,-0.147,1.865,0.142
1.12,-0.099,1.017,0.073
1.13,0.014,0.333,-0.07
1.14,-0.437,0.99,-0.221
1.15,-0.002,1.553,0.066
1.16,-0.121,1.244,0.087
1.17,0.06,0.393,-0.034
1.18,-0.434,0.793,-0.227
1.19,-0.066,1.728,0.111
1.2,-0.064,0.878,0.102
1.21,-0.094,0.908,-0.085
1.22,-0.375,0.245,-0.148
1.23,-0.141,2.0,0.16
1.24,-0.026,0.817,0.124
1.25,-0.211,0.728,-0.05
1.26,-0.345,0.386,-0.162
1.27,-0.167,1.592,0.155
1.28,-0.172,1.205,0.095
1.29,-0.017,0.485,-0.05
1.3,-0.58,0.896,-0.137
1.31,-0.022,1.375,0.199
1.32,-0.359,1.379,0.137
1.33,0.027,0.521,-0.013
1.34,-0.575,0.742,-0.168
1.35,-0.017,1.535,0.181
1.36,-0.248,1.068,0.147
1.37,-0.033,0.9,-0.076
1.38,-0.537,0.247,-0.155
1.39,-0.143,1.632,0.206
1.4,-0.133,0.791,0.077
1.41,-0.164,1.011,-0.099
1.42,-0.421,0.349,-0.224
1.43,-0.075,1.242,0.138
1.44,-0.199,1.211,-0.008
1.45,-0.004,0.569,-0.166
1.46,-0.536,0.904,-0.167
1.47,0.0,0.9,0.206
1.48,-0.257,1.384,-0.029
1.49,-0.083,0.405,-0.112
1.5,-0.479,0.811,-0.15
1.51,-0.069,1.023,0.172
1.52,-0.165,1.112,-0.002
1.53,-0.165,0.825,-0.167
1.54,-0.386,0.342,-0.115
1.55,-0.116,1.32,0.204
1.56,-0.164,0.806,0.02
1.57,-0.26,0.91,-0.083
1.58,-0.484,0.461,-0.037
1.59,-0.143,1.187,0.178
1.6,-0.297,1.075,-0.025
1.61,-0.309,0.746,-0.144
1.62,-0.307,1.073,-0.054
1.63,-0.013,0.884,0.14
1.64,-0.281,1.29,-0.051
1.65,-0.157,0.319,-0.161
1.66,-0.339,1.541,-0.054
1.67,-0.014,0.755,0.151
1.68,-0.248,1.226,-0.018
1.69,-0.35,0.488,-0.182
1.7,-0.323,1.302,-0.028
1.71,-0.121,1.018,0.094
1.72,-0.146,0.759,0.01
1.73,-0.409,0.976,-0.227
1.74,-0.225,1.112,0.03
1.75,-0.231,1.171,0.186
1.76,-0.109,0.689,0.076
1.77,-0.45,0.929,-0.13
1.78,-0.236,1.504,0.028
1.79,-0.103,0.833,0.129
1.8,-0.088,1.01,0.03
1.81,-0.374,0.457,-0.203
1.82,-0.282,2.0,0.063
1.83,-0.203,0.619,0.204
1.84,-0.114,1.011,0.047
1.85,-0.308,0.465,-0.199
1.86,-0.246,1.841,0.044
1.87,-0.092,0.87,0.114
1.88,-0.026,0.558,0.019
1.89,-0.478,0.941,-0.175
1.9,-0.138,1.51,0.083
1.91,-0.25,1.109,0.182
1.92,0.051,0.476,0.029
1.93,-0.593,0.961,-0.165
1.94,-0.04,1.682,0.127
1.95,-0.263,0.891,0.148
1.96,-0.043,0.721,-0.0
1.97,-0.449,0.476,-0.164
1.98,-0.093,2.0,0.099
1.99,-0.043,0.655,0.1
2.0,-0.058,0.891,-0.05
2.01,-0.378,0.296,-0.252
2.02,-0.067,2.0,0.057
2.03,-0.11,0.907,0.127
2.04,0.003,0.46,-0.055
2.05,-0.47,0.882,-0.24
2.06,-0.095,1.576,0.16
2.07,-0.264,1.266,0.164
2.08,0.034,0.327,0.026
2.09,-0.513,0.953,-0.182
2.1,-0.129,1.557,0.197
2.11,-0.203,1.071,0.145
2.12,-0.046,0.685,-0.018
2.13,-0.466,0.418,-0.159
2.14,-0.131,1.865,0.211
2.15,-0.086,0.704,0.058
2.16,-0.115,0.881,-0.019
2.17,-0.394,0.247,-0.165
2.18,-0.177,1.775,0.163
2.19,-0.221,0.959,0.102
2.2,-0.046,0.661,-0.07
2.21,0.0,0.614,0.025
2.22,-0.514,0.972,-0.214
2.23,-0.167,1.444,0.084
2.24,-0.23,1.132,0.133
2.25,0.051,0.494,0.038
2.26,-0.457,0.928,-0.19
2.27,0.011,1.625,0.085
2.28,-0.109,1.158,0.112
2.29,-0.011,0.492,-0.01
2.3,-0.352,0.657,-0.219
2.31,-0.131,2.0,0.059
2.32,-0.062,0.737,0.115
2.33,-0.116,0.916,-0.027
2.34,-0.302,0.317,-0.239
2.35,-0.172,1.937,0.145
2.36,-0.014,0.812,0.157
2.37,-0.186,0.813,-0.022
2.38,-0.397,0.311,-0.153
2.39,-0.156,1.748,0.199
2.4,-0.168,1.072,0.074
2.41,-0.015,0.583,-0.068
2.42,-0.534,0.8,-0.185
2.43,0.008,1.455,0.27
2.44,-0.201,1.411,0.127
2.45,-0.037,0.34,-0.054
2.46,-0.398,0.87,-0.218
2.47,-0.042,1.36,0.106
2.48,-0.185,1.08,0.053
2.49,-0.024,0.858,-0.122
2.5,-0.382,0.274,-0.213
2.51,-0.094,1.649,0.114
2.52,-0.124,0.812,0.027
2.53,-0.154,1.045,-0.07
2.54,-0.454,0.187,-0.185
2.55,-0.078,1.477,0.203
2.56,-0.172,1.081,0.036
2.57,-0.045,0.67,-0.111
2.58,-0.474,0.761,-0.161
2.59,0.028,1.091,0.21
2.6,-0.282,1.446,0.039
2.61,0.02,0.439,-0.121
2.62,-0.498,0.895,-0.165
2.63,-0.007,1.098,0.165
2.64,-0.23,1.162,0.01
2.65,-0.086,0.809,-0.141
2.66,-0.465,0.429,-0.107
2.67,-0.161,1.336,0.209
2.68,-0.197,0.884,0.02
2.69,-0.207,1.017,-0.075
2.7,-0.522,0.323,-0.12
2.71,-0.063,1.287,0.221
2.72,-0.282,1.0,-0.024
2.73,-0.215,0.666,-0.096
2.74,-0.488,0.883,-0.053
2.75,-0.088,0.906,0.233
2.76,-0.297,1.302,0.028
2.77,-0.184,0.312,-0.138
2.78,-0.42,1.201,-0.056
2.79,0.043,0.867,0.13
2.8,-0.338,1.183,0.035
2.81,-0.205,0.669,-0.159
2.82,-0.332,0.909,-0.025
2.83,0.016,1.143,0.105
2.84,-0.15,0.744,0.011
2.85,-0.325,1.075,-0.201
2.86,-0.307,0.835,-0.068
2.87,-0.141,1.136,0.159
2.88,-0.181,0.897,0.005
2.89,-0.327,0.746,-0.223
2.9,-0.272,1.426,-0.106
2.91,-0.077,0.817,0.168
2.92,-0.152,1.196,0.018
2.93,-0.293,0.401,-0.236
2.94,-0.298,1.76,-0.04
2.95,-0.074,0.734,0.156
2.96,-0.156,1.024,0.058
2.97,-0.378,0.664,-0.166
2.98,-0.33,1.37,0.04
2.99,-0.195,0.958,0.1
3.0,-0.009,0.703,0.03
3.01,-0.476,1.001,-0.186
3.02,-0.143,1.063,0.033
3.03,-0.282,1.028,0.096
3.04,-0.075,0.711,0.044
3.05,-0.373,0.776,-0.196
3.06,-0.221,1.614,0.042
3.07,-0.145,0.814,0.161
3.08,-0.229,0.927,0.01
3.09,-0.348,0.461,-0.174
3.1,-0.29,1.921,0.056
3.11,-0.146,0.574,0.103
3.12,-0.199,1.042,0.008
3.13,-0.376,0.496,-0.219
3.14,-0.242,1.703,0.083
3.15,-0.116,0.715,0.149
3.16,-0.093,0.639,-0.053
3.17,-0.409,0.75,-0.181
3.18,-0.045,1.742,0.103
3.19,-0.185,1.178,0.162
3.2,0.057,0.272,-0.019
3.21,-0.577,1.012,-0.171
3.22,0.051,1.641,0.182
3.23,-0.213,1.098,0.137
3.24,0.025,0.532,-0.061
3.25,-0.479,0.573,-0.192
3.26,-0.097,2.0,0.124
3.27,-0.102,0.686,0.06
3.28,-0.107,0.917,-0.019
3.29,-0.423,0.228,-0.217
3.3,-0.183,1.937,0.159
3.31,-0.127,0.917,0.087
3.32,-0.144,0.686,-0.051
3.33,-0.364,0.605,-0.216
3.34,-0.058,1.579,0.155
3.35,-0.259,1.281,0.135
3.36,0.089,0.402,-0.063
3.37,-0.494,0.949,-0.235
3.38,0.011,1.243,0.191
3.39,-0.246,1.284,0.063
3.4,-0.021,0.68,-0.047
3.41,-0.445,0.532,-0.158
3.42,-0.099,1.558,0.175
3.43,-0.131,0.95,0.111
3.44,-0.148,1.074,-0.138
3.45,-0.383,0.177,-0.1
3.46,-0.215,1.546,0.247
3.47,-0.141,0.934,0.084
3.48,-0.121,0.871,-0.117
3.49,-0.391,0.541,-0.167
3.5,-0.087,1.09,0.164
3.51,-0.262,1.23,-0.025
3.52,-0.031,0.445,-0.132
3.53,-0.586,0.972,-0.101
3.54,-0.009,0.859,0.188
3.55,-0.309,1.35,-0.003
3.56,-0.106,0.497,-0.119
3.57,-0.489,0.737,-0.064
3.58,-0.088,1.09,0.182
3.59,-0.181,0.912,0.016
3.6,-0.314,0.868,-0.12
3.61,-0.354,0.512,-0.041
3.62,-0.156,1.295,0.184
3.63,-0.264,0.766,0.079
3.64,-0.308,0.849,-0.14
3.65,-0.347,0.886,-0.064
3.66,-0.064,0.986,0.149
3.67,-0.333,1.234,0.007
3.68,-0.154,0.35,-0.194
3.69,-0.355,1.412,-0.057
3.7,0.056,0.732,0.098
3.71,-0.239,1.312,-0.032
3.72,-0.283,0.402,-0.197
3.73,-0.256,1.294,-0.083
3.74,-0.107,0.928,0.123
3.75,-0.119,0.877,0.015
3.76,-0.392,0.85,-0.182
3.77,-0.208,1.03,-0.004
3.78,-0.204,1.203,0.157
3.79,-0.071,0.67,0.061
3.8,-0.419,1.005,-0.181
3.81,-0.253,1.212,-0.028
3.82,-0.161,0.908,0.118
3.83,-0.142,1.026,-0.032
3.84,-0.324,0.45,-0.207
3.85,-0.226,1.95,0.046
3.86,-0.038,0.701,0.147
3.87,-0.194,0.977,0.068
3.88,-0.281,0.461,-0.165
3.89,-0.371,1.883,0.029
3.9,-0.097,0.752,0.159
3.91,-0.063,0.704,0.031
3.92,-0.493,0.851,-0.18
3.93,-0.177,1.478,0.08
3.94,-0.23,1.134,0.132
3.95,0.052,0.333,-0.025
3.96,-0.426,1.08,-0.166
3.97,-0.016,1.636,0.093
3.98,-0.154,1.169,0.13
3.99,-0.003,0.466,-0.03
4.0,-0.439,0.759,-0.161
4.01,-0.043,1.875,0.124
4.02,-0.074,0.795,0.105
4.03,-0.043,0.827,-0.052
4.04,-0.316,0.274,-0.225
4.05,-0.16,2.0,0.099
4.06,0.004,0.746,0.089
4.07,-0.169,0.758,-0.02
4.08,-0.381,0.41,-0.121
4.09,-0.139,1.713,0.211
4.1,-0.177,1.119,0.086
4.11,0.008,0.452,-0.058
4.12,-0.564,0.925,-0.195
4.13,0.022,1.344,0.223
4.14,-0.338,1.385,0.1
4.15,-0.049,0.459,-0.012
4.16,-0.465,0.772,-0.173
4.17,-0.063,1.526,0.147
4.18,-0.102,1.01,0.01
4.19,-0.113,0.943,-0.091
4.2,-0.375,0.225,-0.18
4.21,-0.18,1.719,0.182
4.22,-0.103,0.81,0.097
4.23,-0.155,1.004,-0.086
4.24,-0.374,0.358,-0.199
4.25,-0.162,1.34,0.159
4.26,-0.16,1.142,0.046
4.27,-0.079,0.547,-0.123
4.28,-0.506,0.888,-0.13
4.29,-0.101,0.962,0.202
4.3,-0.323,1.336,0.046
4.31,-0.097,0.473,-0.067
4.32,-0.513,0.768,-0.099
4.33,-0.05,1.048,0.187
4.34,-0.171,1.148,0.002
4.35,-0.234,0.819,-0.115
4.36,-0.391,0.31,-0.1
4.37,-0.179,1.37,0.19
4.38,-0.135,0.827,0.013
4.39,-0.26,0.934,-0.142
4.4,-0.424,0.434,-0.124
4.41,-0.056,1.208,0.172
4.42,-0.299,1.138,-0.036
4.43,-0.214,0.498,-0.149
4.44,-0.41,0.989,-0.094
4.45,-0.005,0.848,0.203
4.46,-0.304,1.381,-0.005
4.47,-0.213,0.288,-0.132
4.48,-0.353,1.183,-0.049
4.49,-0.103,0.873,0.163
4.5,-0.308,1.07,0.017
4.51,-0.281,0.64,-0.155
4.52,-0.198,0.944,-0.092
4.53,-0.166,1.163,0.145
4.54,-0.159,0.681,0.028
4.55,-0.445,0.988,-0.17
4.56,-0.292,0.955,-0.015
4.57,-0.223,1.07,0.175
4.58,-0.229,0.939,0.043
4.59,-0.366,0.638,-0.181
4.6,-0.34,1.562,0.066
4.61,-0.01,0.704,0.173
4.62,-0.313,1.187,0.051
4.63,-0.202,0.372,-0.16
4.64,-0.323,1.842,0.002
4.65,0.018,0.778,0.14
4.66,-0.137,0.863,0.001
4.67,-0.381,0.729,-0.218
4.68,-0.244,1.457,0.004
4.69,-0.116,1.028,0.123
4.7,0.054,0.565,0.005
4.71,-0.56,1.039,-0.216
4.72,-0.077,1.392,0.035
4.73,-0.304,1.03,0.192
4.74,0.03,0.62,0.007
4.75,-0.521,0.962,-0.197
4.76,0.008,1.691,0.154
4.77,-0.137,0.946,0.114
4.78,-0.042,0.701,-0.017
4.79,-0.399,0.42,-0.204
4.8,-0.131,2.0,0.126
4.81,-0.022,0.693,0.137
4.82,-0.097,0.887,-0.074
4.83,-0.444,0.27,-0.191
4.84,-0.117,2.0,0.15
4.85,-0.222,1.0,0.176
4.86,-0.01,0.465,-0.012
4.87,-0.511,0.808,-0.181
4.88,-0.065,1.426,0.165
4.89,-0.214,1.312,0.072
4.9,0.071,0.367,-0.053
4.91,-0.493,0.896,-0.192
4.92,0.013,1.433,0.139
4.93,-0.198,1.124,0.074
4.94,-0.029,0.779,-0.043
4.95,-0.41,0.393,-0.192
4.96,-0.171,1.665,0.189
4.97,-0.1,0.784,0.075
4.98,-0.174,1.036,-0.089
4.99,-0.427,0.201,-0.193
5.0,-0.194,1.504,0.218
5.01,-0.184,0.983,0.121
5.02,-0.147,0.674,-0.082
5.03,-0.465,0.761,-0.171
5.04,-0.044,1.082,0.166
5.05,-0.318,1.324,0.021
5.06,-0.009,0.477,-0.076
5.07,-0.521,0.924,-0.145
5.08,-0.092,0.998,0.196
5.09,-0.296,1.208,0.136
5.1,-0.136,0.708,-0.085
5.11,-0.49,0.467,-0.117
5.12,-0.117,1.333,0.162
5.13,-0.151,0.915,0.029
5.14,-0.153,1.017,-0.115
5.15,-0.496,0.308,-0.129
5.16,-0.111,1.325,0.21
5.17,-0.222,0.998,-0.069
5.18,-0.124,0.754,-0.083
5.19,-0.494,0.767,-0.132
5.2,0.037,0.928,0.193
5.21,-0.347,1.331,-0.041
5.22,-0.065,0.361,-0.121
5.23,-0.44,1.124,-0.088
5.24,0.019,0.829,0.122
5.25,-0.277,1.249,-0.013
5.26,-0.158,0.533,-0.148
5.27,-0.266,0.966,-0.074
5.28,-0.149,1.096,0.173
5.29,-0.115,0.731,0.006
5.3,-0.389,0.91,-0.146
5.31,-0.171,0.846,-0.051
5.32,-0.177,1.2,0.169
5.33,-0.138,0.785,0.035
5.34,-0.442,0.804,-0.171
5.35,-0.24,1.245,-0.045
5.36,-0.113,0.886,0.123
5.37,-0.232,1.211,0.016
5.38,-0.206,0.39,-0.238
5.39,-0.371,1.662,-0.043
5.4,-0.038,0.681,0.101
5.41,-0.335,1.188,0.089
5.42,-0.273,0.479,-0.194
5.43,-0.333,1.474,0.032
5.44,-0.023,1.022,0.109
5.45,-0.163,0.618,0.03
5.46,-0.406,1.02,-0.173
5.47,-0.23,1.23,0.021
5.48,-0.214,1.128,0.191
5.49,-0.114,0.616,0.067
5.5,-0.525,0.916,-0.17
5.51,-0.344,1.349,0.058
5.52,-0.136,0.805,0.068
5.53,-0.195,1.073,0.036
5.54,-0.312,0.347,-0.216
5.55,-0.173,2.0,0.039
5.56,-0.105,0.677,0.169
5.57,-0.124,0.985,0.093
5.58,-0.394,0.271,-0.21
5.59,-0.14,2.0,0.098
5.6,-0.031,0.762,0.083
5.61,-0.168,0.696,0.011
5.62,-0.326,0.647,-0.202
5.63,-0.126,1.746,0.086
5.64,-0.131,1.064,0.106
5.65,0.045,0.356,-0.012
5.66,-0.463,0.993,-0.217
5.67,-0.05,1.594,0.092
5.68,-0.112,1.151,0.095
5.69,0.022,0.532,-0.032
5.7,-0.473,0.625,-0.161
5.71,-0.076,1.972,0.157
5.72,-0.084,0.794,0.103
5.73,-0.088,0.88,-0.003
5.74,-0.379,0.222,-0.189
5.75,-0.152,2.0,0.13
5.76,-0.075,0.809,0.09
5.77,-0.101,0.647,-0.042
5.78,-0.334,0.548,-0.239
5.79,-0.149,1.696,0.175
5.8,-0.187,1.181,0.083
5.81,0.03,0.419,-0.062
5.82,-0.466,0.992,-0.194
5.83,0.046,1.509,0.149
5.84,-0.201,1.368,0.107
5.85,-0.021,0.423,-0.063
5.86,-0.351,0.731,-0.188
5.87,-0.104,1.654,0.146
5.88,-0.088,0.887,0.162
5.89,-0.155,0.978,-0.065
5.9,-0.385,0.232,-0.155
5.91,-0.215,1.832,0.226
5.92,-0.085,0.895,0.137
5.93,-0.161,0.901,-0.036
5.94,-0.398,0.422,-0.156
5.95,-0.107,1.47,0.211
5.96,-0.176,1.324,0.037
5.97,0.008,0.493,-0.079
5.98,-0.449,0.902,-0.13
5.99,-0.062,1.123,0.237
6.0,-0.267,1.381,0.101
6.01,-0.043,0.581,-0.069
6.02,-0.487,0.743,-0.154
6.03,-0.073,1.301,0.15
6.04,-0.153,1.066,0.023
6.05,-0.132,0.955,-0.098
6.06,-0.399,0.248,-0.091
6.07,-0.203,1.439,0.158
6.08,-0.158,0.857,0.042
6.09,-0.234,0.948,-0.094
6.1,-0.409,0.427,-0.114
6.11,-0.143,1.139,0.242
6.12,-0.19,1.189,-0.024
6.13,-0.15,0.499,-0.124
6.14,-0.472,0.963,-0.102
6.15,-0.062,0.854,0.216
6.16,-0.334,1.372,-0.006
6.17,-0.104,0.437,-0.086
6.18,-0.417,0.948,-0.028
6.19,-0.096,1.015,0.222
6.2,-0.183,0.973,0.025
6.21,-0.342,0.828,-0.112
6.22,-0.337,0.483,-0.01
6.23,-0.206,1.289,0.154
6.24,-0.2,0.763,0.029
6.25,-0.346,0.882,-0.108
6.26,-0.317,0.836,-0.053
6.27,-0.106,1.097,0.164
6.28,-0.294,1.034,0.02
6.29,-0.302,0.476,-0.145
6.3,-0.366,1.373,-0.045
6.31,0.003,0.791,0.141
6.32,-0.392,1.284,0.044
6.33,-0.228,0.368,-0.192
6.34,-0.382,1.397,-0.032
6.35,-0.03,0.837,0.138
6.36,-0.2,1.115,0.051
6.37,-0.299,0.562,-0.201
6.38,-0.321,1.551,0.016
6.39,-0.064,1.032,0.154
6.4,-0.049,0.583,0.006
6.41,-0.492,1.005,-0.201
6.42,-0.179,1.335,0.07
6.43,-0.2,1.107,0.107
6.44,-0.065,0.58,0.051
6.45,-0.512,0.893,-0.183
6.46,-0.195,1.609,0.024
6.47,-0.093,0.777,0.125
6.48,-0.113,0.978,-0.013
6.49,-0.384,0.388,-0.216
6.5,-0.275,2.0,0.053
6.51,-0.071,0.697,0.148
6.52,-0.12,0.928,0.024
6.53,-0.421,0.468,-0.186
6.54,-0.194,1.927,0.11
6.55,-0.164,0.909,0.136
6.56,-0.038,0.533,0.027
6.57,-0.474,0.937,-0.168
6.58,-0.07,1.557,0.11
6.59,-0.237,1.108,0.141
6.6,0.076,0.462,0.041
6.61,-0.464,0.943,-0.193
6.62,-0.067,1.712,0.123
6.63,-0.17,0.904,0.166
6.64,-0.026,0.749,-0.01
6.65,-0.408,0.37,-0.17
6.66,-0.15,2.0,0.146
6.67,-0.075,0.65,0.133
6.68,-0.1,0.872,-0.029
6.69,-0.331,0.366,-0.185
6.7,-0.091,2.0,0.11
6.71,-0.097,0.902,0.087
6.72,-0.054,0.499,-0.029
6.73,-0.455,0.828,-0.215
6.74,0.018,1.601,0.132
6.75,-0.182,1.303,0.084
6.76,0.077,0.293,-0.052
6.77,-0.5,0.918,-0.184
6.78,-0.043,1.648,0.148
6.79,-0.169,1.073,0.108
6.8,-0.005,0.699,-0.049
6.81,-0.428,0.38,-0.17
6.82,-0.166,1.837,0.209
6.83,-0.078,0.787,0.134
6.84,-0.12,0.949,-0.048
6.85,-0.392,0.245,-0.164
6.86,-0.137,1.767,0.19
6.87,-0.122,0.956,0.071
6.88,-0.076,0.653,-0.056
6.89,-0.518,0.724,-0.207
6.9,-0.007,1.309,0.198
6.91,-0.341,1.427,0.121
6.92,0.025,0.387,-0.074
6.93,-0.488,0.891,-0.203
6.94,0.008,1.299,0.161
6.95,-0.235,1.177,0.042
6.96,-0.088,0.792,-0.108
6.97,-0.446,0.414,-0.146
6.98,-0.16,1.584,0.131
6.99,-0.109,0.862,0.077
7.0,-0.14,1.074,-0.093
7.01,-0.411,0.221,-0.172
7.02,-0.159,1.455,0.172
7.03,-0.174,0.994,0.041
7.04,-0.098,0.799,-0.099
7.05,-0.459,0.68,-0.188
7.06,-0.052,1.017,0.212
7.07,-0.268,1.322,-0.015
7.08,-0.05,0.417,-0.139
7.09,-0.493,0.984,-0.163
7.1,-0.043,0.918,0.188
7.11,-0.215,1.299,0.001
7.12,-0.249,0.559,-0.118
7.13,-0.383,0.591,-0.107
7.14,-0.223,1.204,0.215
7.15,-0.158,0.791,0.053
7.16,-0.302,0.764,-0.171
7.17,-0.283,0.797,-0.072
7.18,-0.135,1.233,0.117
7.19,-0.173,0.698,0.045
7.2,-0.358,0.948,-0.161
7.21,-0.332,0.914,-0.054
7.22,-0.11,1.041,0.136
7.23,-0.249,1.061,-0.0
7.24,-0.263,0.533,-0.183
7.25,-0.32,1.426,-0.078
7.26,-0.046,0.7,0.126
7.27,-0.304,1.285,0.012
7.28,-0.155,0.325,-0.227
7.29,-0.299,1.572,-0.067
7.3,0.013,0.859,0.107
7.31,-0.183,0.863,-0.005
7.32,-0.355,0.835,-0.172
7.33,-0.225,1.173,-0.02
7.34,-0.2,1.138,0.133
7.35,-0.104,0.603,0.041
7.36,-0.422,1.011,-0.177
7.37,-0.237,1.186,0.022
7.38,-0.169,0.968,0.1
7.39,-0.13,0.857,-0.006
7.4,-0.376,0.598,-0.208
7.41,-0.277,1.787,0.046
7.42,-0.106,0.656,0.142
7.43,-0.215,1.119,0.041
7.44,-0.325,0.363,-0.228
7.45,-0.32,1.935,0.043
7.46,-0.122,0.717,0.124
7.47,-0.139,0.804,0.035
7.48,-0.456,0.756,-0.181
7.49,-0.26,1.517,0.088
7.5,-0.248,1.054,0.203
7.51,-0.019,0.459,0.064
7.52,-0.536,1.064,-0.18
7.53,-0.162,1.518,0.072
7.54,-0.217,1.069,0.179
7.55,-0.075,0.572,0.026
7.56,-0.38,0.756,-0.193
7.57,-0.149,1.956,0.085
7.58,-0.118,0.573,0.097
7.59,-0.093,1.013,-0.027
7.6,-0.376,0.304,-0.235
7.61,-0.135,2.0,0.096
7.62,-0.092,0.712,0.075
7.63,-0.131,0.662,-0.013
7.64,-0.344,0.597,-0.195
7.65,-0.104,1.802,0.127
7.66,-0.099,1.151,0.143
7.67,0.056,0.259,-0.105
7.68,-0.465,1.022,-0.226
7.69,0.038,1.607,0.143
7.7,-0.156,1.165,0.061
7.71,0.012,0.458,-0.026
7.72,-0.388,0.733,-0.232
7.73,-0.062,1.8,0.107
7.74,-0.073,0.815,0.106
7.75,-0.103,0.837,-0.071
7.76,-0.359,0.199,-0.189
7.77,-0.116,1.946,0.069
7.78,-0.09,0.837,0.146
7.79,-0.155,0.831,-0.058
7.8,-0.466,0.458,-0.16
7.81,-0.06,1.631,0.187
7.82,-0.15,1.268,0.078
7.83,-0.007,0.392,-0.063
7.84,-0.487,0.966,-0.169
7.85,-0.052,1.309,0.166
7.86,-0.241,1.347,0.142
7.87,-0.054,0.514,-0.019
7.88,-0.469,0.698,-0.139
7.89,-0.122,1.426,0.157
7.9,-0.161,0.944,0.101
7.91,-0.178,0.997,-0.065
7.92,-0.404,0.193,-0.177
7.93,-0.223,1.621,0.195
7.94,-0.147,0.877,0.058
7.95,-0.152,0.952,-0.09
7.96,-0.391,0.303,-0.143
7.97,-0.107,1.312,0.194
7.98,-0.209,0.988,0.015
7.99,-0.222,0.689,-0.136
8.0,-0.481,0.769,-0.139
8.01,0.042,0.949,0.19
8.02,-0.288,1.347,-0.03
8.03,-0.038,0.341,-0.122
8.04,-0.505,1.138,-0.088
8.05,-0.002,0.872,0.168
8.06,-0.325,1.205,0.016
8.07,-0.183,0.639,-0.132
8.08,-0.523,0.676,-0.011
8.09,-0.125,1.172,0.173
8.1,-0.252,0.827,0.065
8.11,-0.278,0.914,-0.166
8.12,-0.348,0.584,-0.039
8.13,-0.101,1.221,0.134
8.14,-0.263,0.961,-0.012
8.15,-0.287,0.605,-0.127
8.16,-0.279,1.232,-0.044
8.17,-0.07,0.843,0.117
8.18,-0.294,1.253,0.005
8.19,-0.236,0.329,-0.212
8.2,-0.306,1.502,-0.048
8.21,0.02,0.738,0.116
8.22,-0.275,1.182,0.018
8.23,-0.293,0.523,-0.207
8.24,-0.247,1.258,0.001
8.25,-0.115,1.029,0.135
8.26,-0.056,0.729,-0.01
8.27,-0.415,0.999,-0.218
8.28,-0.156,1.116,0.04
8.29,-0.162,1.145,0.17
8.3,-0.102,0.694,-0.002
8.31,-0.428,0.81,-0.202
8.32,-0.165,1.641,0.037
8.33,-0.084,0.781,0.144
8.34,-0.125,0.953,0.007
8.35,-0.365,0.437,-0.201
8.36,-0.306,1.96,0.029
8.37,-0.084,0.645,0.161
8.38,-0.137,0.974,0.039
8.39,-0.385,0.524,-0.269
8.4,-0.199,1.764,0.069
8.41,-0.177,0.921,0.092
8.42,0.033,0.55,0.028
8.43,-0.524,0.969,-0.219
8.44,-0.081,1.509,0.079
8.45,-0.142,1.136,0.077
8.46,0.035,0.46,0.016
8.47,-0.469,0.966,-0.2
8.48,-0.069,1.845,0.061
8.49,-0.112,0.856,0.126
8.5,-0.023,0.807,-0.031
8.51,-0.491,0.378,-0.154
8.52,-0.09,2.0,0.147
8.53,-0.176,0.631,0.202
8.54,-0.098,0.868,0.001
8.55,-0.436,0.358,-0.209
8.56,-0.087,1.996,0.14
8.57,-0.098,0.966,0.113
8.58,0.006,0.411,-0.041
8.59,-0.476,0.924,-0.207
8.6,-0.082,1.573,0.14
8.61,-0.145,1.248,0.144
8.62,-0.027,0.349,-0.006
8.63,-0.443,0.915,-0.169
8.64,-0.092,1.635,0.15
8.65,-0.087,1.021,0.097
8.66,-0.089,0.735,-0.083
8.67,-0.422,0.335,-0.175
8.68,-0.173,1.88,0.204
8.69,-0.075,0.759,0.112
8.7,-0.096,0.932,-0.069
8.71,-0.447,0.25,-0.164
8.72,-0.135,1.701,0.162
8.73,-0.105,1.074,0.066
8.74,-0.098,0.657,-0.079
8.75,-0.385,0.755,-0.162
8.76,-0.091,1.206,0.161
8.77,-0.187,1.352,0.093
8.78,0.013,0.499,-0.078
8.79,-0.615,0.978,-0.16
8.8,0.029,0.99,0.241
8.81,-0.319,1.33,0.085
8.82,-0.091,0.552,-0.109
8.83,-0.415,0.721,-0.146
8.84,-0.125,1.221,0.147
8.85,-0.156,0.989,0.057
8.86,-0.228,0.9,-0.087
8.87,-0.448,0.348,-0.096
8.88,-0.147,1.39,0.233
8.89,-0.179,0.776,-0.01
8.9,-0.313,0.918,-0.093
8.91,-0.39,0.573,-0.125
8.92,-0.114,1.048,0.194
8.93,-0.242,1.22,-0.014
8.94,-0.098,0.431,-0.135
8.95,-0.421,1.198,-0.095
8.96,0.036,0.811,0.175
8.97,-0.349,1.321,0.058
8.98,-0.191,0.356,-0.094
8.99,-0.439,1.166,0.0
9.0,-0.098,1.03,0.144
9.01,-0.306,0.834,0.045
9.02,-0.319,0.887,-0.173
9.03,-0.341,0.733,-0.043
9.04,-0.173,1.224,0.144
9.05,-0.154,0.797,0.023
9.06,-0.379,0.828,-0.136
9.07,-0.246,1.062,-0.078
9.08,-0.143,1.021,0.155
9.09,-0.274,1.028,0.026
9.1,-0.308,0.478,-0.207
9.11,-0.322,1.559,-0.014
9.12,-0.052,0.695,0.153
9.13,-0.303,1.251,0.048
9.14,-0.261,0.383,-0.243
9.15,-0.259,1.521,0.014
9.16,-0.068,0.902,0.1
9.17,-0.148,0.855,0.035
9.18,-0.327,0.868,-0.223
9.19,-0.265,1.205,-0.023
9.2,-0.078,1.157,0.151
9.21,-0.008,0.629,-0.007
9.22,-0.44,1.019,-0.238
9.23,-0.216,1.279,0.043
9.24,-0.174,0.953,0.139
9.25,-0.085,0.882,0.041
9.26,-0.416,0.569,-0.195
9.27,-0.211,1.938,0.035
9.28,-0.043,0.693,0.049
9.29,-0.096,1.007,0.008
9.3,-0.341,0.408,-0.192
9.31,-0.281,1.914,0.074
9.32,-0.188,0.73,0.179
9.33,-0.095,0.75,0.07
9.34,-0.446,0.786,-0.178
9.35,-0.191,1.488,0.095
9.36,-0.174,1.074,0.12
9.37,-0.051,0.411,0.019
9.38,-0.435,1.04,-0.162
9.39,-0.138,1.609,0.088
9.4,-0.082,1.095,0.148
9.41,-0.048,0.54,0.015
9.42,-0.427,0.615,-0.122
9.43,-0.11,2.0,0.071
9.44,-0.153,0.609,0.163
9.45,-0.139,0.987,0.003
9.46,-0.402,0.344,-0.175
9.47,-0.177,2.0,0.088
9.48,-0.136,0.704,0.09
9.49,-0.061,0.675,-0.021
9.5,-0.401,0.656,-0.245
9.51,-0.114,1.6,0.076
9.52,-0.084,1.201,0.116
9.53,0.052,0.365,-0.028
9.54,-0.475,0.938,-0.188
9.55,0.01,1.601,0.182
9.56,-0.24,1.377,0.158
9.57,-0.006,0.376,-0.02
9.58,-0.47,0.878,-0.215
9.59,-0.061,1.595,0.157
9.6,-0.169,1.071,0.083
9.61,-0.056,0.774,-0.065
9.62,-0.363,0.305,-0.174
9.63,-0.204,1.764,0.184
9.64,-0.081,0.84,0.131
9.65,-0.212,1.005,-0.044
9.66,-0.366,0.251,-0.167
9.67,-0.195,1.662,0.202
9.68,-0.153,1.146,0.092
9.69,-0.086,0.542,-0.054
9.7,-0.419,0.855,-0.221
9.71,-0.065,1.156,0.191
9.72,-0.274,1.336,0.071
9.73,-0.001,0.535,-0.078
9.74,-0.49,0.794,-0.116
9.75,-0.019,1.222,0.136
9.76,-0.225,1.194,0.059
9.77,-0.034,0.874,-0.087
9.78,-0.466,0.353,-0.16
9.79,-0.072,1.478,0.177
9.8,-0.134,0.851,0.013
9.81,-0.13,1.063,-0.078
9.82,-0.408,0.305,-0.155
9.83,-0.13,1.277,0.243
9.84,-0.193,1.047,-0.008
9.85,-0.152,0.702,-0.1
9.86,-0.468,0.812,-0.163
9.87,0.026,0.97,0.209
9.88,-0.281,1.362,-0.008
9.89,-0.029,0.402,-0.119
9.9,-0.583,1.009,-0.128
9.91,0.027,0.965,0.162
9.92,-0.341,1.17,0.038
9.93,-0.211,0.671,-0.135
9.94,-0.448,0.588,-0.055
9.95,-0.127,1.285,0.148
9.96,-0.164,0.71,0.048
9.97,-0.339,0.959,-0.127
9.98,-0.391,0.511,-0.071
9.99,-0.103,1.195,0.107
10.0,-0.295,0.951,-0.004
10.01,-0.164,0.615,-0.124
10.02,-0.408,1.147,-0.067
10.03,0.009,0.84,0.173
10.04,-0.344,1.311,0.015
10.05,-0.236,0.246,-0.159
10.06,-0.395,1.372,-0.031
10.07,-0.015,0.812,0.117
10.08,-0.243,1.159,0.013
10.09,-0.28,0.611,-0.168
10.1,-0.312,1.049,-0.044
10.11,-0.068,1.121,0.138
10.12,-0.148,0.756,-0.002
10.13,-0.349,0.944,-0.205
10.14,-0.273,0.913,-0.052
10.15,-0.12,1.157,0.189
10.16,-0.211,0.867,0.003
10.17,-0.356,0.715,-0.205
10.18,-0.206,1.417,-0.045
10.19,-0.115,0.794,0.148
10.2,-0.181,1.179,-0.017
10.21,-0.342,0.354,-0.234
10.22,-0.185,1.764,0.001
10.23,-0.068,0.691,0.091
10.24,-0.208,1.063,0.055
10.25,-0.396,0.581,-0.195
10.26,-0.327,1.51,0.084
10.27,-0.171,1.008,0.145
10.28,-0.077,0.602,0.019
10.29,-0.489,1.034,-0.184
10.3,-0.157,1.32,0.06
10.31,-0.275,1.095,0.171
10.32,-0.005,0.578,0.036
10.33,-0.478,0.866,-0.219
10.34,-0.193,1.688,0.009
10.35,-0.067,0.794,0.092
10.36,-0.09,0.942,0.029
10.37,-0.467,0.573,-0.127
10.38,-0.114,2.0,0.098
10.39,-0.116,0.675,0.166
10.4,-0.098,0.933,0.01
10.41,-0.39,0.267,-0.175
10.42,-0.088,2.0,0.091
10.43,-0.146,0.737,0.154
10.44,-0.088,0.654,-0.014
10.45,-0.424,0.691,-0.175
10.46,-0.074,1.696,0.126
10.47,-0.124,1.158,0.115
10.48,0.039,0.289,-0.044
10.49,-0.508,0.985,-0.176
10.5,-0.07,1.611,0.153
10.51,-0.204,1.135,0.116
10.52,0.004,0.539,-0.032
10.53,-0.407,0.614,-0.186
10.54,-0.13,1.801,0.151
10.55,-0.281,0.354,-0.212
10.56,-0.261,1.783,0.018
10.57,-0.03,0.658,0.118
10.58,-0.177,1.099,0.009
10.59,-0.284,0.437,-0.247
10.6,-0.254,1.795,-0.017
10.61,-0.03,0.867,0.119
10.62,-0.038,0.686,0.007
10.63,-0.492,0.911,-0.233
10.64,-0.125,1.397,0.005
10.65,-0.17,1.127,0.116
10.66,-0.014,0.504,0.025
10.67,-0.479,1.023,-0.18
10.68,-0.149,1.532,0.015
10.69,-0.163,0.968,0.129
10.7,-0.035,0.74,0.007
10.71,-0.466,0.595,-0.177
10.72,-0.179,2.0,0.075
10.73,-0.21,0.609,0.141
10.74,-0.099,0.964,0.05
10.75,-0.425,0.399,-0.247
10.76,-0.136,1.986,0.062
10.77,-0.143,0.825,0.106
10.78,-0.079,0.6,0.02
10.79,-0.455,0.787,-0.189
10.8,-0.137,1.654,0.13
10.81,-0.255,1.073,0.158
10.82,0.02,0.389,0.033
10.83,-0.542,1.023,-0.181
10.84,-0.027,1.635,0.071
10.85,-0.178,1.104,0.138
10.86,-0.008,0.595,0.008
10.87,-0.406,0.552,-0.188
10.88,-0.059,2.0,0.062
10.89,-0.056,0.758,0.128
10.9,-0.07,0.884,-0.019
10.91,-0.321,0.254,-0.247
10.92,-0.061,2.0,0.126
10.93,-0.022,0.794,0.026
10.94,-0.097,0.618,0.015
10.95,-0.434,0.684,-0.215
10.96,-0.067,1.693,0.14
10.97,-0.123,1.152,0.087
10.98,0.057,0.294,-0.045
10.99,-0.482,0.961,-0.2
11.0,-0.098,1.494,0.092
11.01,-0.128,1.202,0.111
11.02,-0.029,0.571,-0.019
11.03,-0.475,0.594,-0.13
11.04,-0.099,1.877,0.158
11.05,-0.09,0.79,0.129
11.06,-0.096,0.904,-0.05
11.07,-0.418,0.26,-0.214
11.08,-0.12,1.978,0.128
11.09,-0.057,0.837,0.053
11.1,-0.056,0.729,-0.029
11.11,-0.418,0.315,-0.208
11.12,-0.12,1.583,0.111
11.13,-0.191,1.086,0.097
11.14,-0.043,0.613,-0.031
11.15,-0.514,0.827,-0.168
11.16,-0.02,1.16,0.184
11.17,-0.256,1.421,0.113
11.18,-0.004,0.442,-0.038
11.19,-0.546,0.873,-0.133
11.2,-0.072,1.281,0.184
11.21,-0.239,1.126,0.092
11.22,-0.073,0.865,-0.044
11.23,-0.515,0.338,-0.128
11.24,-0.168,1.525,0.228
11.25,-0.117,0.835,0.051
11.26,-0.115,1.037,-0.066
11.27,-0.45,0.25,-0.172
11.28,-0.13,1.422,0.16
11.29,-0.157,1.007,-0.003
11.3,-0.118,0.678,-0.095
11.31,-0.435,0.804,-0.174
11.32,-0.083,0.997,0.191
11.33,-0.239,1.392,0.026
11.34,0.01,0.468,-0.098
11.35,-0.452,0.952,-0.122
11.36,-0.044,1.031,0.176
11.37,-0.177,1.145,0.071
11.38,-0.157,0.78,-0.131
11.39,-0.42,0.498,-0.112
11.4,-0.181,1.334,0.186
11.41,-0.11,0.783,0.026
11.42,-0.255,0.994,-0.113
11.43,-0.387,0.303,-0.18
11.44,-0.104,1.259,0.18
11.45,-0.158,1.013,-0.012
11.46,-0.197,0.628,-0.12
11.47,-0.459,0.811,-0.173
11.48,-0.029,0.915,0.193
11.49,-0.255,1.352,0.001
11.5,-0.098,0.35,-0.151
11.51,-0.515,1.002,-0.127
11.52,0.079,0.95,0.143
11.53,-0.243,1.226,-0.032
11.54,-0.129,0.636,-0.143
11.55,-0.466,0.613,-0.114
11.56,-0.062,1.263,0.15
11.57,-0.206,0.846,0.009
11.58,-0.352,0.858,-0.074
11.59,-0.396,0.489,-0.058
11.6,-0.131,1.281,0.19
11.61,-0.255,0.882,0.05
11.62,-0.241,0.737,-0.069
11.63,-0.476,0.826,-0.059
11.64,-0.087,0.926,0.222
11.65,-0.247,1.334,-0.025
11.66,-0.124,0.253,-0.101
11.67,-0.428,1.236,-0.059
11.68,-0.03,0.823,0.151
11.69,-0.272,1.269,0.067
11.7,-0.272,0.465,-0.121
11.71,-0.382,0.896,-0.012
11.72,-0.033,1.182,0.138
11.73,-0.186,0.804,0.069
11.74,-0.299,0.941,-0.13
11.75,-0.397,0.661,0.025
11.76,-0.169,1.211,0.208
11.77,-0.225,0.885,0.047
11.78,-0.344,0.668,-0.114
11.79,-0.3,1.137,-0.045
11.8,-0.073,0.883,0.139
11.81,-0.229,1.223,0.003
11.82,-0.182,0.37,-0.161
11.83,-0.323,1.564,-0.094
11.84,-0.001,0.745,0.143
11.85,-0.258,1.177,0.009
11.86,-0.251,0.485,-0.187
11.87,-0.315,1.264,-0.057
11.88,-0.111,0.984,0.121
11.89,-0.111,0.755,-0.013
11.9,-0.367,0.924,-0.191
11.91,-0.228,1.358,0.021
11.92,-0.164,1.133,0.124
11.93,-0.015,0.537,0.058
11.94,-0.441,1.053,-0.179
11.95,-0.139,1.382,0.008
11.96,-0.215,1.065,0.17
11.97,-0.104,0.682,0.048
11.98,-0.385,0.689,-0.183
11.99,-0.309,1.821,0.068
12.0,-0.094,0.619,0.148
12.01,-0.196,1.07,0.053
12.02,-0.418,0.353,-0.197
12.03,-0.292,2.0,0.07
12.04,-0.137,0.699,0.167
12.05,-0.124,0.844,0.062
12.06,-0.4,0.697,-0.183
12.07,-0.253,1.583,0.075
12.08,-0.168,1.12,0.161
12.09,0.011,0.411,0.062
12.1,-0.509,0.996,-0.219
12.11,-0.064,1.527,0.083
12.12,-0.293,1.044,0.137
12.13,0.0,0.618,0.051
12.14,-0.457,0.751,-0.201
12.15,-0.168,1.867,0.083
12.16,-0.167,0.676,0.145
12.17,-0.117,0.971,0.041
12.18,-0.379,0.368,-0.183
12.19,-0.21,2.0,0.091
12.2,-0.126,0.724,0.203
12.21,-0.13,0.782,0.02
12.22,-0.327,0.552,-0.212
12.23,-0.085,1.813,0.105
12.24,-0.165,1.048,0.104
12.25,-0.019,0.384,0.023
12.26,-0.485,0.989,-0.205
12.27,-0.038,1.574,0.095
12.28,-0.149,1.122,0.094
12.29,0.005,0.502,0.018
12.3,-0.414,0.773,-0.187
12.31,-0.088,1.892,0.061
12.32,-0.062,0.794,0.116
12.33,-0.099,0.854,-0.024
12.34,-0.319,0.304,-0.2
12.35,-0.123,2.0,0.091
12.36,-0.074,0.683,0.148
12.37,-0.107,0.79,0.009
12.38,-0.443,0.494,-0.188
12.39,-0.061,1.901,0.124
12.4,-0.119,1.045,0.109
12.41,0.056,0.355,-0.058
12.42,-0.452,0.934,-0.226
12.43,0.031,1.581,0.081
12.44,-0.136,1.285,0.099
12.45,0.02,0.367,0.002
12.46,-0.413,0.8,-0.212
12.47,0.004,1.804,0.13
12.48,-0.083,0.861,0.078
12.49,-0.035,0.781,-0.075
12.5,-0.373,0.319,-0.184
12.51,-0.155,2.0,0.124
12.52,-0.04,0.771,0.099
12.53,-0.135,0.808,-0.031
12.54,-0.314,0.4,-0.219
12.55,-0.09,1.856,0.119
12.56,-0.133,1.096,0.088
12.57,-0.021,0.431,-0.069
12.58,-0.474,0.934,-0.193
12.59,-0.021,1.477,0.192
12.6,-0.201,1.385,0.112
12.61,0.061,0.417,-0.062
12.62,-0.483,0.856,-0.215
12.63,-0.016,1.561,0.147
12.64,-0.209,1.07,0.145
12.65,-0.05,0.838,-0.1
12.66,-0.427,0.289,-0.184
12.67,-0.115,1.914,0.159
12.68,-0.134,0.782,0.106
12.69,-0.101,0.95,-0.086
12.7,-0.488,0.266,-0.2
12.71,-0.092,1.633,0.186
12.72,-0.201,0.927,0.078
12.73,-0.114,0.868,-0.03
12.74,-0.528,0.584,-0.164
12.75,-0.099,1.187,0.22
12.76,-0.277,1.342,0.061
12.77,0.012,0.452,-0.076
12.78,-0.576,1.003,-0.118
12.79,-0.059,0.992,0.236
12.8,-0.295,1.342,0.096
12.81,-0.065,0.605,-0.11
12.82,-0.527,0.677,-0.12
12.83,-0.132,1.348,0.237
12.84,-0.22,0.91,0.115
12.85,-0.135,1.0,-0.08
12.86,-0.496,0.31,-0.129
12.87,-0.129,1.425,0.226
12.88,-0.196,0.881,0.01
12.89,-0.16,0.844,-0.12
12.9,-0.357,0.597,-0.221
12.91,-0.038,1.08,0.193
12.92,-0.282,1.227,0.062
12.93,-0.076,0.436,-0.144
12.94,-0.574,0.979,-0.117
12.95,-0.047,0.866,0.229
12.96,-0.282,1.428,0.071
12.97,-0.144,0.448,-0.107
12.98,-0.491,0.751,-0.08
12.99,-0.052,1.136,0.174
13.0,-0.164,0.947,0.027
13.01,-0.206,0.926,-0.092
13.02,-0.46,0.427,-0.061
13.03,-0.184,1.357,0.207
13.04,-0.228,0.791,0.052
13.05,-0.345,0.881,-0.056
13.06,-0.41,0.573,-0.102
13.07,-0.131,1.084,0.18
13.08,-0.259,1.21,-0.008
13.09,-0.156,0.412,-0.16
13.1,-0.462,1.123,-0.073
13.11,-0.037,0.824,0.207
13.12,-0.324,1.362,0.057
13.13,-0.178,0.36,-0.073
13.14,-0.436,1.119,-0.082
13.15,-0.011,1.017,0.14
13.16,-0.182,0.943,-0.007
13.17,-0.376,0.821,-0.138
13.18,-0.372,0.583,0.0
13.19,-0.217,1.28,0.156
13.2,-0.15,0.783,0.012
13.21,-0.381,0.773,-0.136
13.22,-0.289,0.933,-0.066
13.23,-0.099,1.067,0.136
13.24,-0.27,1.08,0.029
13.25,-0.287,0.482,-0.114
13.26,-0.348,1.398,-0.063
13.27,-0.068,0.724,0.171
13.28,-0.303,1.31,0.024
13.29,-0.325,0.343,-0.169
13.3,-0.331,1.296,-0.025
13.31,-0.146,0.891,0.138
13.32,-0.198,0.959,-0.004
13.33,-0.331,0.693,-0.184
13.34,-0.147,1.047,-0.088
13.35,-0.148,1.22,0.149
13.36,0.001,0.636,-0.021
13.37,-0.469,1.015,-0.181
13.38,-0.26,1.11,0.009
13.39,-0.163,1.009,0.111
13.4,-0.231,0.957,-0.002
13.41,-0.309,0.579,-0.24
13.42,-0.312,1.671,0.015
13.43,-0.082,0.676,0.146
13.44,-0.252,1.146,0.038
13.45,-0.341,0.343,-0.162
13.46,-0.259,1.852,0.037
13.47,-0.11,0.815,0.186
13.48,-0.113,0.781,0.043
13.49,-0.491,0.808,-0.222
13.5,-0.202,1.407,0.017
13.51,-0.246,1.058,0.139
13.52,-0.03,0.555,0.0
13.53,-0.471,0.935,-0.211
13.54,-0.103,1.525,0.108
13.55,-0.215,1.177,0.145
13.56,0.003,0.419,0.053
13.57,-0.394,0.969,-0.159
13.58,-0.153,1.741,0.066
13.59,-0.059,0.869,0.126
13.6,-0.072,0.811,-0.035
13.61,-0.363,0.334,-0.166
13.62,-0.126,2.0,0.133
13.63,-0.064,0.716,0.11
13.64,-0.109,0.799,-0.04
13.65,-0.315,0.412,-0.238
13.66,-0.076,2.0,0.14
13.67,-0.148,0.844,0.084
13.68,0.048,0.475,-0.037
13.69,-0.434,0.882,-0.201
13.7,-0.042,1.525,0.106
13.71,-0.209,1.25,0.168
13.72,0.037,0.362,0.008
13.73,-0.48,0.891,-0.159
13.74,-0.019,1.724,0.162
13.75,-0.229,1.079,0.127
13.76,0.012,0.722,-0.041
13.77,-0.469,0.401,-0.168
13.78,-0.197,2.0,0.212
13.79,-0.197,0.68,0.164
13.8,-0.082,0.927,-0.054
13.81,-0.482,0.207,-0.16
13.82,-0.083,1.762,0.18
13.83,-0.239,1.012,0.052
13.84,-0.039,0.561,-0.08
13.85,-0.422,0.786,-0.194
13.86,0.007,1.433,0.174
13.87,-0.235,1.346,0.11
13.88,0.001,0.427,-0.078
13.89,-0.515,0.902,-0.169
13.9,0.0,1.423,0.158
13.91,-0.197,1.202,0.107
13.92,-0.062,0.747,-0.075
13.93,-0.382,0.405,-0.198
13.94,-0.183,1.61,0.118
13.95,-0.111,0.829,0.054
13.96,-0.203,1.089,-0.064
13.97,-0.382,0.16,-0.117
13.98,-0.268,1.47,0.19
13.99,-0.081,1.023,0.028
14.0,-0.151,0.719,-0.091
14.01,-0.489,0.754,-0.141
14.02,-0.181,1.034,0.233
14.03,-0.318,1.361,0.074
14.04,-0.088,0.421,-0.074
14.05,-0.489,0.992,-0.16
14.06,-0.061,0.961,0.187
14.07,-0.257,1.175,0.023
14.08,-0.155,0.707,-0.185
14.09,-0.435,0.503,-0.082
14.1,-0.176,1.264,0.215
14.11,-0.126,0.85,0.003
14.12,-0.331,0.937,-0.126
14.13,-0.339,0.32,-0.117
14.14,-0.099,1.331,0.192
14.15,-0.134,0.943,-0.07
14.16,-0.227,0.668,-0.144
14.17,-0.351,0.86,-0.186
14.18,-0.007,1.002,0.202
14.19,-0.317,1.287,0.016
14.2,-0.168,0.327,-0.137
14.21,-0.406,1.137,-0.143
14.22,0.013,0.848,0.094
14.23,-0.234,1.3,-0.018
14.24,-0.231,0.512,-0.138
14.25,-0.422,0.776,-0.093
14.26,0.02,1.203,0.118
14.27,-0.142,0.887,-0.022
14.28,-0.313,0.87,-0.139
14.29,-0.311,0.619,-0.034
14.3,-0.192,1.279,0.153
14.31,-0.288,0.894,0.043
14.32,-0.425,0.915,-0.128
14.33,-0.253,1.03,-0.071
14.34,-0.193,0.996,0.165
14.35,-0.158,1.023,-0.038
14.36,-0.33,0.58,-0.178
14.37,-0.304,1.589,0.012
14.38,-0.066,0.681,0.142
14.39,-0.253,1.238,0.062
14.4,-0.317,0.303,-0.18
14.41,-0.28,1.677,0.026
14.42,-0.099,0.781,0.127
14.43,-0.14,0.889,-0.01
14.44,-0.379,0.731,-0.238
14.45,-0.167,1.388,-0.004
14.46,-0.09,1.152,0.135
14.47,0.039,0.498,0.003
14.48,-0.496,1.042,-0.246
14.49,-0.07,1.428,0.009
14.5,-0.184,1.008,0.141
14.51,-0.057,0.729,0.028
14.52,-0.46,0.646,-0.178
14.53,-0.262,1.97,0.071
14.54,-0.105,0.662,0.101
14.55,-0.065,0.994,-0.012
14.56,-0.401,0.365,-0.22
14.57,-0.152,2.0,0.059
14.58,-0.147,0.702,0.083
14.59,-0.013,0.755,-0.005
14.6,-0.43,0.72,-0.192
14.61,-0.065,1.657,0.088
14.62,-0.273,1.041,0.167
14.63,0.069,0.437,-0.008
14.64,-0.477,1.03,-0.185
14.65,0.009,1.628,0.091
14.66,-0.262,1.123,0.134
14.67,0.053,0.482,-0.008
14.68,-0.376,0.705,-0.141
14.69,-0.083,1.967,0.111
14.7,-0.034,0.714,0.066
14.71,-0.068,0.856,-0.097
14.72,-0.294,0.244,-0.205
14.73,-0.109,2.0,0.072
14.74,-0.193,0.693,0.132
14.75,-0.074,0.731,-0.023
14.76,-0.423,0.51,-0.204
14.77,-0.076,1.659,0.152
14.78,-0.156,1.267,0.032
14.79,-0.008,0.262,-0.063
14.8,-0.437,0.977,-0.148
14.81,-0.118,1.362,0.201
14.82,-0.209,1.323,0.134
14.83,-0.096,0.526,-0.069
14.84,-0.388,0.694,-0.156
14.85,-0.148,1.639,0.177
14.86,-0.063,1.011,0.12
14.87,-0.161,0.938,-0.093
14.88,-0.292,0.134,-0.174
14.89,-0.233,1.756,0.176
14.9,-0.061,0.852,0.069
14.91,-0.131,0.933,-0.096
14.92,-0.399,0.39,-0.192
14.93,-0.129,1.3,0.242
14.94,-0.249,1.259,0.068
14.95,-0.012,0.508,-0.115
14.96,-0.518,0.935,-0.174
14.97,-0.03,0.958,0.202
14.98,-0.338,1.419,0.04
14.99,-0.091,0.469,-0.093
15.0,-0.489,0.751,-0.1
15.01,-0.037,1.171,0.175
15.02,-0.193,1.047,0.015
15.03,-0.272,0.871,-0.141
15.04,-0.428,0.346,-0.066
15.05,-0.183,1.358,0.198
15.06,-0.127,0.838,0.005
15.07,-0.34,0.789,-0.111
15.08,-0.354,0.696,-0.108
15.09,-0.091,1.096,0.154
15.1,-0.246,1.141,-0.005
15.11,-0.128,0.444,-0.141
15.12,-0.283,1.391,-0.087
15.13,-0.071,0.823,0.155
15.14,-0.298,1.171,0.047
15.15,-0.254,0.416,-0.235
15.16,-0.338,1.747,-0.031
15.17,-0.006,0.709,0.159
15.18,-0.255,1.043,0.014
15.19,-0.353,0.627,-0.203
15.2,-0.222,1.47,0.002
15.21,-0.119,1.063,0.171
15.22,-0.055,0.597,0.029
15.23,-0.512,1.044,-0.17
15.24,-0.211,1.262,0.073
15.25,-0.293,1.053,0.233
15.26,-0.044,0.638,0.044
15.27,-0.457,0.883,-0.157
15.28,-0.198,1.693,0.023
15.29,-0.119,0.817,0.187
15.3,-0.106,0.873,0.035
15.31,-0.397,0.408,-0.194
15.32,-0.237,2.0,0.085
15.33,-0.083,0.75,0.185
15.34,-0.177,0.831,0.013
15.35,-0.372,0.529,-0.16
15.36,-0.197,1.884,0.136
15.37,-0.126,0.922,0.111
15.38,-0.004,0.477,-0.023
15.39,-0.408,1.052,-0.24
15.4,-0.074,1.527,0.061
15.41,-0.167,1.178,0.1
15.42,0.059,0.394,-0.021
15.43,-0.382,0.895,-0.233
15.44,-0.044,1.826,0.015
15.45,-0.035,0.913,0.131
15.46,-0.046,0.747,-0.073
15.47,-0.406,0.342,-0.203
15.48,-0.181,2.0,0.052
15.49,-0.116,0.653,0.133
15.5,-0.081,0.82,-0.003
15.51,-0.394,0.427,-0.218
15.52,-0.119,1.878,0.091
15.53,-0.022,0.984,0.071
15.54,-0.059,0.358,-0.073
15.55,-0.315,0.949,-0.248
15.56,-0.051,1.578,0.057
15.57,-0.144,1.219,0.126
15.58,0.024,0.363,-0.075
15.59,-0.431,0.939,-0.214
15.6,0.007,1.588,0.111
15.61,-0.1,0.999,0.046
15.62,0.014,0.702,-0.103
15.63,-0.396,0.427,-0.207
15.64,-0.115,1.968,0.132
15.65,-0.091,0.706,0.059
15.66,-0.09,0.888,-0.046
15.67,-0.416,0.31,-0.194
15.68,-0.162,1.862,0.179
15.69,-0.145,0.996,0.096
15.7,-0.052,0.494,-0.019
15.71,-0.424,0.876,-0.231
15.72,-0.036,1.442,0.212
15.73,-0.221,1.289,0.107
15.74,0.008,0.362,-0.038
15.75,-0.5,0.943,-0.147
15.76,-0.085,1.519,0.168
15.77,-0.223,1.145,0.144
15.78,-0.039,0.695,-0.04
15.79,-0.409,0.425,-0.129
15.8,-0.171,1.73,0.237
15.81,-0.079,0.834,0.138
15.82,-0.157,0.908,-0.065
15.83,-0.38,0.226,-0.146
15.84,-0.121,1.916,0.177
15.85,-0.133,0.92,0.122
15.86,-0.116,0.618,-0.035
15.87,-0.515,0.746,-0.151
15.88,-0.007,1.462,0.25
15.89,-0.324,1.423,0.152
15.9,0.014,0.281,-0.028
15.91,-0.447,1.0,-0.219
15.92,0.066,1.223,0.171
15.93,-0.264,1.349,0.076
15.94,-0.032,0.485,-0.071
15.95,-0.583,0.753,-0.175
15.96,-0.04,1.306,0.204
15.97,-0.191,0.977,0.107
15.98,-0.141,1.0,-0.059
15.99,-0.458,0.27,-0.193
16.0,-0.166,1.627,0.174
16.01,-0.157,0.867,0.079
16.02,-0.091,0.977,-0.088
16.03,-0.496,0.383,-0.219
16.04,-0.071,1.305,0.19
16.05,-0.266,1.15,0.154
16.06,-0.066,0.58,-0.079
16.07,-0.504,0.867,-0.182
16.08,-0.04,1.066,0.253
16.09,-0.213,1.44,0.094
16.1,-0.001,0.438,-0.082
16.11,-0.509,0.87,-0.201
16.12,0.022,1.3,0.119
16.13,-0.121,1.08,0.045
16.14,-0.062,0.877,-0.095
16.15,-0.409,0.296,-0.179
16.16,-0.125,1.51,0.129
16.17,-0.129,0.798,0.11
16.18,-0.23,1.035,-0.125
16.19,-0.372,0.301,-0.212
16.2,-0.104,1.357,0.191
16.21,-0.184,1.17,0.042
16.22,0.031,0.553,-0.108
16.23,-0.453,0.893,-0.221
16.24,0.029,0.992,0.187
16.25,-0.291,1.417,0.116
16.26,-0.046,0.408,-0.186
16.27,-0.464,0.866,-0.227
16.28,0.005,1.199,0.082
16.29,-0.199,1.095,0.079
16.3,-0.14,0.827,-0.117
16.31,-0.517,0.364,-0.148
16.32,-0.182,1.478,0.144
16.33,-0.083,0.844,0.046
16.34,-0.194,1.0,-0.097
16.35,-0.422,0.282,-0.215
16.36,-0.116,1.375,0.131
16.37,-0.16,1.056,0.026
16.38,-0.182,0.565,-0.105
16.39,-0.504,0.811,-0.163
16.4,-0.081,0.981,0.165
16.41,-0.235,1.378,0.077
16.42,0.018,0.424,-0.112
16.43,-0.525,0.951,-0.199
16.44,0.0,1.099,0.165
16.45,-0.243,1.151,0.063
16.46,-0.102,0.767,-0.12
16.47,-0.578,0.416,-0.126
16.48,-0.152,1.448,0.196
16.49,-0.115,0.833,0.111
16.5,-0.188,1.017,-0.062
16.51,-0.512,0.305,-0.119
16.52,-0.227,1.413,0.26
16.53,-0.172,1.016,0.068
16.54,-0.106,0.663,-0.093
16.55,-0.448,0.787,-0.196
16.56,-0.054,1.009,0.174
16.57,-0.229,1.283,0.076
16.58,-0.154,0.406,-0.083
16.59,-0.489,0.932,-0.177
16.6,-0.058,1.077,0.176
16.61,-0.19,1.26,0.098
16.62,-0.023,0.716,-0.087
16.63,-0.502,0.544,-0.132
16.64,-0.12,1.435,0.216
16.65,-0.143,0.924,0.122
16.66,-0.159,0.955,-0.063
16.67,-0.503,0.311,-0.125
16.68,-0.161,1.459,0.205
16.69,-0.215,0.918,0.061
16.7,-0.103,0.836,-0.08
16.71,-0.444,0.656,-0.216
16.72,-0.073,1.184,0.152
16.73,-0.211,1.179,0.005
16.74,0.015,0.548,-0.117
16.75,-0.505,0.933,-0.182
16.76,0.043,0.852,0.206
16.77,-0.242,1.391,0.095
16.78,-0.04,0.442,-0.146
16.79,-0.493,0.944,-0.132
16.8,-0.033,1.116,0.175
16.81,-0.172,1.021,0.032
16.82,-0.154,0.856,-0.165
16.83,-0.383,0.401,-0.185
16.84,-0.2,1.368,0.186
16.85,-0.137,0.816,0.08
16.86,-0.228,0.956,-0.107
16.87,-0.397,0.456,-0.199
16.88,-0.107,1.242,0.155
16.89,-0.157,1.051,-0.068
16.9,-0.065,0.551,-0.152
16.91,-0.497,0.922,-0.179
16.92,0.001,0.89,0.235
16.93,-0.281,1.32,0.139
16.94,-0.081,0.408,-0.091
16.95,-0.493,0.982,-0.12
16.96,-0.063,1.021,0.198
16.97,-0.163,1.098,0.056
16.98,-0.256,0.764,-0.103
16.99,-0.446,0.466,-0.079
17.0,-0.167,1.362,0.165
17.01,-0.172,0.828,0.046
17.02,-0.261,0.905,-0.133
17.03,-0.448,0.384,-0.172
17.04,-0.142,1.245,0.22
17.05,-0.141,1.045,0.05
17.06,-0.116,0.614,-0.18
17.07,-0.502,0.851,-0.207
17.08,-0.009,0.944,0.212
17.09,-0.259,1.382,0.075
17.1,-0.014,0.349,-0.129
17.11,-0.49,1.033,-0.168
17.12,-0.023,0.979,0.191
17.13,-0.192,1.152,0.067
17.14,-0.258,0.647,-0.091
17.15,-0.472,0.496,-0.1
17.16,-0.197,1.366,0.212
17.17,-0.088,0.796,0.048
17.18,-0.233,0.947,-0.139
17.19,-0.414,0.355,-0.138
17.2,-0.116,1.3,0.161
17.21,-0.191,0.985,0.035
17.22,-0.176,0.671,-0.069
17.23,-0.478,0.813,-0.171
17.24,-0.071,0.909,0.209
17.25,-0.216,1.302,0.037
17.26,-0.175,0.386,-0.134
17.27,-0.532,0.972,-0.112
17.28,-0.067,0.985,0.197
17.29,-0.164,1.311,0.068
17.3,-0.137,0.576,-0.088
17.31,-0.509,0.627,-0.107
17.32,-0.094,1.337,0.174
17.33,-0.142,0.803,0.021
17.34,-0.224,0.981,-0.123
17.35,-0.475,0.312,-0.164
17.36,-0.169,1.363,0.216
17.37,-0.1,0.905,0.098
17.38,-0.296,0.665,-0.124
17.39,-0.406,0.742,-0.208
17.4,-0.041,1.036,0.19
17.41,-0.236,1.347,0.022
17.42,0.01,0.385,-0.107
17.43,-0.486,1.032,-0.18
17.44,-0.044,0.958,0.202
17.45,-0.16,1.221,0.012
17.46,-0.294,0.58,-0.099
17.47,-0.4,0.595,-0.144
17.48,-0.22,1.27,0.16
17.49,0.01,0.901,0.057
17.5,-0.306,0.968,-0.091
17.51,-0.377,0.273,-0.109
17.52,-0.264,1.385,0.193
17.53,-0.041,0.779,0.091
17.54,-0.335,0.851,-0.099
17.55,-0.405,0.589,-0.072
17.56,-0.199,1.241,0.24
17.57,-0.198,0.963,0.085
17.58,-0.245,0.502,-0.086
17.59,-0.503,0.975,-0.102
17.6,-0.033,0.876,0.197
17.61,-0.258,1.401,0.067
17.62,-0.156,0.286,-0.099
17.63,-0.568,0.963,-0.133
17.64,-0.046,0.986,0.205
17.65,-0.152,1.195,0.072
17.66,-0.244,0.675,-0.132
17.67,-0.479,0.503,-0.077
17.68,-0.157,1.371,0.237
17.69,-0.102,0.798,0.096
17.7,-0.333,0.927,-0.144
17.71,-0.398,0.463,-0.062
17.72,-0.199,1.26,0.197
17.73,-0.205,0.956,0.079
17.74,-0.253,0.595,-0.118
17.75,-0.513,0.877,-0.123
17.76,-0.116,0.921,0.206
17.77,-0.189,1.369,0.095
17.78,-0.176,0.264,-0.137
17.79,-0.5,1.053,-0.146
17.8,-0.0,1.0,0.196
17.81,-0.272,1.137,0.135
17.82,-0.174,0.651,-0.154
17.83,-0.49,0.525,-0.112
17.84,-0.15,1.377,0.125
17.85,-0.118,0.81,0.065
17.86,-0.262,0.954,-0.142
17.87,-0.488,0.286,-0.131
17.88,-0.174,1.325,0.208
17.89,-0.196,0.946,0.056
17.9,-0.1,0.693,-0.137
17.91,-0.484,0.764,-0.193
17.92,0.016,1.019,0.156
17.93,-0.291,1.331,0.054
17.94,-0.024,0.394,-0.101
17.95,-0.514,0.978,-0.195
17.96,0.022,1.041,0.172
17.97,-0.258,1.188,0.153
17.98,-0.073,0.74,-0.103
17.99,-0.517,0.536,-0.163
18.0,-0.114,1.395,0.262
18.01,-0.053,0.913,0.091
18.02,-0.17,0.965,-0.079
18.03,-0.461,0.329,-0.155
18.04,-0.16,1.454,0.184
18.05,-0.089,0.935,0.052
18.06,-0.135,0.755,-0.063
18.07,-0.466,0.678,-0.194
18.08,-0.01,1.159,0.142
18.09,-0.207,1.203,0.113
18.1,-0.048,0.452,-0.08
18.11,-0.579,0.967,-0.165
18.12,0.021,1.099,0.214
18.13,-0.227,1.364,0.135
18.14,-0.037,0.565,-0.049
18.15,-0.525,0.697,-0.147
18.16,-0.093,1.399,0.176
18.17,-0.128,0.886,0.094
18.18,-0.15,0.999,-0.04
18.19,-0.46,0.195,-0.193
18.2,-0.119,1.578,0.175
18.21,-0.169,0.864,0.084
18.22,-0.161,0.848,-0.094
18.23,-0.459,0.562,-0.229
18.24,-0.03,1.405,0.215
18.25,-0.249,1.377,0.092
18.26,0.069,0.387,-0.052
18.27,-0.561,0.98,-0.241
18.28,0.083,1.186,0.155
18.29,-0.268,1.301,0.094
18.3,-0.028,0.618,0.008
18.31,-0.514,0.639,-0.191
18.32,-0.143,1.63,0.197
18.33,-0.168,1.26,0.086
18.34,-0.135,0.722,-0.057
18.35,-0.5,0.425,-0.149
18.36,-0.114,1.63,0.185
18.37,-0.079,0.863,0.115
18.38,-0.167,0.963,-0.04
18.39,-0.441,0.24,-0.186
18.4,-0.164,1.574,0.164
18.41,-0.182,1.028,0.073
18.42,-0.09,0.686,-0.038
18.43,-0.507,0.755,-0.209
18.44,-0.012,1.309,0.18
18.45,-0.252,1.402,0.117
18.46,0.016,0.404,-0.038
18.47,-0.528,0.954,-0.234
18.48,-0.041,1.336,0.171
18.49,-0.219,1.234,0.113
18.5,-0.127,0.639,-0.01
18.51,-0.45,0.521,-0.168
18.52,-0.215,1.751,0.182
18.53,-0.054,0.804,0.16
18.54,-0.198,0.969,-0.002
18.55,-0.541,0.275,-0.126
18.56,-0.199,1.832,0.203
18.57,-0.203,0.991,0.16
18.58,-0.093,0.618,-0.005
18.59,-0.536,0.711,-0.192
18.6,-0.109,1.373,0.201
18.61,-0.324,1.273,0.201
18.62,0.002,0.398,-0.004
18.63,-0.555,0.995,-0.192
18.64,-0.06,1.434,0.206
18.65,-0.208,1.218,0.095
18.66,-0.058,0.57,-0.035
18.67,-0.506,0.671,-0.137
18.68,-0.168,1.831,0.182
18.69,-0.226,0.817,0.218
18.7,-0.191,0.797,0.022
18.71,-0.43,0.296,-0.221
18.72,-0.21,1.876,0.129
18.73,-0.215,0.772,0.179
18.74,-0.147,0.756,-0.021
18.75,-0.47,0.608,-0.243
18.76,-0.054,1.75,0.146
18.77,-0.285,1.186,0.079
18.78,0.15,0.301,-0.034
18.79,-0.535,1.08,-0.263
18.8,0.024,1.468,0.091
18.81,-0.21,1.196,0.082
18.82,0.063,0.466,-0.031
18.83,-0.423,0.7,-0.225
18.84,-0.063,1.883,0.053
18.85,-0.126,0.801,0.13
18.86,-0.096,0.858,-0.032
18.87,-0.417,0.311,-0.195
18.88,-0.114,2.0,0.11
18.89,-0.393,1.348,-0.103
18.9,-0.112,0.938,0.129
18.91,-0.21,0.967,0.082
18.92,-0.326,0.701,-0.165
18.93,-0.343,0.758,-0.081
18.94,-0.161,1.236,0.138
18.95,-0.195,0.732,0.051
18.96,-0.329,0.911,-0.068
18.97,-0.431,0.709,-0.086
18.98,-0.119,1.176,0.176
18.99,-0.208,0.997,0.026
19.0,-0.301,0.561,-0.123
19.01,-0.422,0.986,-0.103
19.02,-0.116,0.826,0.216
19.03,-0.285,1.355,0.071
19.04,-0.132,0.235,-0.06
19.05,-0.463,1.228,-0.099
19.06,0.111,0.838,0.121
19.07,-0.192,1.234,0.033
19.08,-0.291,0.507,-0.178
19.09,-0.348,1.11,-0.051
19.1,-0.172,1.056,0.159
19.11,-0.11,0.84,0.07
19.12,-0.371,0.791,-0.14
19.13,-0.314,0.612,-0.039
19.14,-0.183,1.299,0.139
19.15,-0.195,0.809,0.06
19.16,-0.257,0.788,-0.086
19.17,-0.331,0.961,-0.115
19.18,-0.038,1.006,0.103
19.19,-0.223,1.176,0.017
19.2,-0.256,0.375,-0.172
19.21,-0.415,1.273,-0.091
19.22,-0.069,0.771,0.129
19.23,-0.272,1.313,0.032
19.24,-0.194,0.347,-0.136
19.25,-0.33,1.095,-0.098
19.26,-0.089,1.003,0.127
19.27,-0.181,0.89,-0.0
19.28,-0.248,0.794,-0.211
19.29,-0.31,0.719,-0.097
19.3,-0.066,1.256,0.075
19.31,-0.144,0.725,0.026
19.32,-0.394,0.914,-0.114
19.33,-0.372,0.731,-0.049
19.34,-0.133,1.039,0.156
19.35,-0.155,1.175,-0.003
19.36,-0.275,0.32,-0.162
19.37,-0.364,1.446,-0.089
19.38,0.061,0.775,0.101
19.39,-0.352,1.222,0.109
19.4,-0.147,0.436,-0.162
19.41,-0.437,1.302,-0.077
19.42,-0.024,0.933,0.13
19.43,-0.251,0.935,-0.037
19.44,-0.297,0.772,-0.185
19.45,-0.399,0.747,-0.063
19.46,-0.086,1.26,0.138
19.47,-0.231,0.741,0.062
19.48,-0.246,0.901,-0.124
19.49,-0.445,0.903,-0.099
19.5,-0.054,1.111,0.181
19.51,-0.322,1.064,-0.017
19.52,-0.19,0.484,-0.174
19.53,-0.407,1.365,-0.081
19.54,-0.005,0.762,0.138
19.55,-0.328,1.359,0.059
19.56,-0.248,0.274,-0.162
19.57,-0.372,1.338,-0.039
19.58,-0.019,0.839,0.151
19.59,-0.154,1.038,0.046
19.6,-0.354,0.759,-0.196
19.61,-0.353,0.876,-0.037
19.62,-0.168,1.272,0.159
19.63,-0.127,0.731,0.059
19.64,-0.376,0.894,-0.154
19.65,-0.368,0.976,-0.044
19.66,-0.11,1.114,0.121
19.67,-0.302,0.945,0.028
19.68,-0.188,0.587,-0.175
19.69,-0.337,1.547,-0.156
19.7,0.05,0.754,0.133
19.71,-0.215,1.198,-0.008
19.72,-0.221,0.406,-0.207
19.73,-0.363,1.567,-0.093
19.74,-0.088,0.79,0.087
19.75,-0.235,1.025,0.024
19.76,-0.333,0.598,-0.183
19.77,-0.255,1.15,-0.049
19.78,-0.116,1.116,0.117
19.79,-0.091,0.646,-0.007
19.8,-0.431,1.0,-0.214
19.81,-0.249,1.032,-0.027
19.82,-0.168,1.092,0.093
19.83,-0.189,0.846,0.057
19.84,-0.402,0.696,-0.229
19.85,-0.329,1.489,0.007
19.86,-0.018,0.708,0.056
19.87,-0.108,0.948,0.039
19.88,-0.419,0.437,-0.139
19.89,-0.274,2.0,0.069
19.9,-0.08,0.676,0.1
19.91,-0.097,0.989,0.063
19.92,-0.423,0.412,-0.203
19.93,-0.223,1.856,0.07
19.94,-0.157,0.904,0.144
19.95,-0.015,0.551,0.035
19.96,-0.473,0.945,-0.218
19.97,-0.115,1.447,0.061
19.98,-0.294,1.066,0.176
19.99,0.087,0.513,0.048
20.0,-0.549,0.978,-0.167
20.01,-0.095,1.639,0.069
20.02,-0.219,0.915,0.137
20.03,0.031,0.793,0.029
20.04,-0.42,0.509,-0.165
20.05,-0.146,2.0,0.122
20.06,-0.069,0.638,0.156
20.07,-0.122,0.942,0.053
20.08,-0.35,0.404,-0.211
20.09,-0.153,2.0,0.111
20.1,-0.105,0.811,0.136
20.11,-0.018,0.601,-0.007
20.12,-0.344,0.867,-0.22
20.13,-0.065,1.575,0.108
20.14,-0.152,1.159,0.163
20.15,0.079,0.378,0.001
20.16,-0.509,0.973,-0.186
20.17,0.018,1.75,0.11
20.18,-0.169,1.07,0.088
20.19,0.049,0.622,-0.023
20.2,-0.402,0.519,-0.225
20.21,-0.041,2.0,0.087
20.22,-0.071,0.646,0.123
20.23,-0.035,0.906,-0.007
20.24,-0.426,0.273,-0.216
20.25,-0.114,2.0,0.168
20.26,-0.118,0.804,0.102
20.27,-0.004,0.594,-0.006
20.28,-0.388,0.773,-0.283
20.29,-0.021,1.629,0.123
20.3,-0.146,1.121,0.092
20.31,0.07,0.38,-0.022
20.32,-0.491,0.973,-0.201
20.33,0.049,1.588,0.133
20.34,-0.201,1.173,0.083
20.35,0.076,0.54,-0.036
20.36,-0.428,0.584,-0.215
20.37,-0.038,1.936,0.109
20.38,-0.072,0.77,0.069
20.39,-0.037,0.898,-0.047
20.4,-0.413,0.264,-0.169
20.41,-0.147,2.0,0.114
20.42,-0.164,0.765,0.071
20.43,-0.043,0.722,-0.052
20.44,-0.469,0.608,-0.212
20.45,-0.095,1.555,0.151
20.46,-0.224,1.288,0.107
20.47,0.026,0.33,0.007
20.48,-0.539,0.981,-0.195
20.49,0.018,1.406,0.188
20.5,-0.28,1.235,0.113
20.51,-0.011,0.626,-0.051
20.52,-0.566,0.635,-0.135
20.53,-0.028,1.854,0.18
20.54,-0.164,0.856,0.117
20.55,-0.063,0.884,-0.046
20.56,-0.401,0.216,-0.206
20.57,-0.161,1.816,0.172
20.58,-0.093,0.878,0.089
20.59,-0.098,0.802,-0.072
20.6,-0.419,0.468,-0.188
20.61,-0.084,1.546,0.173
20.62,-0.201,1.274,0.109
20.63,-0.011,0.436,-0.055
20.64,-0.512,0.994,-0.177
20.65,0.005,1.31,0.163
20.66,-0.333,1.365,0.148
20.67,0.048,0.436,-0.078
20.68,-0.562,0.897,-0.148
20.69,0.028,1.16,0.122
20.7,-0.19,1.116,-0.001
20.71,-0.11,0.81,-0.152
20.72,-0.396,0.375,-0.169
20.73,-0.197,1.421,0.154
20.74,-0.078,0.876,0.029
20.75,-0.186,1.009,-0.113
20.76,-0.384,0.257,-0.156
20.77,-0.202,1.335,0.189
20.78,-0.169,0.969,0.055
20.79,-0.158,0.696,-0.142
20.8,-0.383,0.822,-0.169
20.81,-0.073,0.966,0.199
20.82,-0.264,1.363,0.058
20.83,-0.085,0.328,-0.127
20.84,-0.499,1.038,-0.132
20.85,-0.025,0.914,0.2
20.86,-0.239,1.192,-0.016
20.87,-0.209,0.644,-0.131
20.88,-0.439,0.545,-0.065
20.89,-0.174,1.279,0.215
20.9,-0.158,0.745,0.047
20.91,-0.265,0.984,-0.068
20.92,-0.488,0.397,-0.095
20.93,-0.145,1.354,0.241
20.94,-0.199,0.921,0.059
20.95,-0.312,0.635,-0.079
20.96,-0.484,0.877,-0.071
20.97,-0.044,1.009,0.271
20.98,-0.341,1.274,0.022
20.99,-0.152,0.365,-0.083
21.0,-0.461,1.097,-0.025
21.01,-0.09,0.846,0.214
21.02,-0.207,1.283,0.048
21.03,-0.302,0.524,-0.12
21.04,-0.408,0.763,-0.067
21.05,-0.056,1.208,0.158
21.06,-0.171,0.792,0.089
21.07,-0.276,0.886,-0.122
21.08,-0.355,0.637,-0.12
21.09,-0.128,1.289,0.142
21.1,-0.308,0.884,0.054
21.11,-0.285,0.733,-0.119
21.12,-0.372,0.958,-0.13
21.13,-0.006,0.905,0.118
21.14,-0.235,1.349,0.012
21.15,-0.225,0.259,-0.157
21.16,-0.382,1.287,-0.041
21.17,-0.033,0.798,0.142
21.18,-0.319,1.247,0.08
21.19,-0.163,0.497,-0.14
21.2,-0.392,1.091,-0.053
21.21,-0.009,1.107,0.157
21.22,-0.165,0.818,0.012
21.23,-0.364,0.924,-0.17
21.24,-0.252,0.854,-0.067
21.25,-0.185,1.219,0.192
21.26,-0.166,0.775,0.081
21.27,-0.369,0.835,-0.157
21.28,-0.26,1.231,-0.131
21.29,-0.082,0.974,0.146
21.3,-0.202,1.135,0.017
21.31,-0.214,0.405,-0.196
21.32,-0.362,1.622,-0.049
21.33,-0.008,0.726,0.173
21.34,-0.272,1.195,0.048
21.35,-0.33,0.478,-0.182
21.36,-0.304,1.344,-0.045
21.37,-0.114,0.951,0.129
21.38,-0.166,0.817,0.119
21.39,-0.412,0.895,-0.176
21.4,-0.205,0.985,-0.028
21.41,-0.195,1.214,0.167
21.42,-0.063,0.71,0.026
21.43,-0.415,0.923,-0.165
21.44,-0.263,1.233,-0.028
21.45,-0.148,0.896,0.147
21.46,-0.135,1.057,-0.005
21.47,-0.378,0.735,-0.233
21.48,-0.29,1.779,0.025
21.49,-0.074,0.693,0.134
21.5,-0.136,1.04,0.024
21.51,-0.319,0.384,-0.172
21.52,-0.277,2.0,0.023
21.53,-0.099,0.702,0.159
21.54,-0.084,0.852,0.03
21.55,-0.405,0.705,-0.219
21.56,-0.281,1.545,0.064
21.57,-0.207,1.007,0.115
21.58,0.056,0.548,0.005
21.59,-0.485,1.026,-0.177
21.6,-0.143,1.4,0.021
21.61,-0.181,1.11,0.149
21.62,0.023,0.533,0.048
21.63,-0.46,0.814,-0.152
21.64,-0.174,1.875,0.081
21.65,-0.159,0.712,0.176
21.66,-0.091,0.946,0.046
21.67,-0.408,0.38,-0.207
21.68,-0.286,2.0,0.101
21.69,-0.169,0.621,0.159
21.7,-0.09,0.913,0.093
21.71,-0.426,0.549,-0.178
21.72,-0.18,1.709,0.15
21.73,-0.211,1.039,0.157
21.74,0.104,0.445,0.033
21.75,-0.443,1.023,-0.221
21.76,-0.054,1.509,0.075
21.77,-0.265,1.146,0.152
21.78,0.062,0.492,0.055
21.79,-0.442,0.837,-0.204
21.8,-0.105,1.869,0.109
21.81,-0.104,0.76,0.066
21.82,0.0,0.882,0.002
21.83,-0.374,0.341,-0.225
21.84,-0.172,2.0,0.122
21.85,-0.116,0.665,0.131
21.86,-0.104,0.812,0.007
21.87,-0.335,0.467,-0.239
21.88,-0.098,1.917,0.073
21.89,-0.113,0.979,0.133
21.9,-0.032,0.362,-0.043
21.91,-0.442,0.971,-0.207
21.92,-0.0,1.676,0.095
21.93,-0.212,1.176,0.124
21.94,0.066,0.403,0.003
21.95,-0.513,0.857,-0.199
21.96,-0.006,1.845,0.118
21.97,-0.157,0.845,0.098
21.98,-0.054,0.744,0.0
21.99,-0.387,0.347,-0.198
22.0,-0.171,2.0,0.15
22.01,-0.111,0.684,0.132
22.02,-0.105,0.787,-0.04
22.03,-0.362,0.379,-0.221
22.04,-0.038,1.927,0.13
22.05,-0.185,0.953,0.096
22.06,0.043,0.474,-0.051
22.07,-0.525,0.876,-0.265
22.08,0.044,1.414,0.154
22.09,-0.194,1.377,0.03
22.1,0.06,0.311,-0.051
22.11,-0.464,0.926,-0.258
22.12,-0.005,1.539,0.151
22.13,-0.143,1.016,0.061
22.14,-0.097,0.772,-0.102
22.15,-0.409,0.371,-0.181
22.16,-0.18,1.926,0.11
22.17,-0.087,0.779,0.096
22.18,-0.141,0.887,-0.043
22.19,-0.438,0.275,-0.204
22.2,-0.155,1.739,0.176
22.21,-0.158,1.023,0.058
22.22,-0.011,0.585,-0.099
22.23,-0.513,0.788,-0.213
22.24,0.031,1.418,0.193
22.25,-0.262,1.318,0.056
22.26,0.054,0.456,-0.024
22.27,-0.641,0.931,-0.131
22.28,0.113,1.125,0.192
22.29,-0.305,1.385,0.054
22.3,0.014,0.53,-0.115
22.31,-0.472,0.709,-0.201
22.32,-0.005,1.383,0.083
22.33,-0.086,0.921,-0.004
22.34,-0.109,0.981,-0.159
22.35,-0.406,0.205,-0.177
22.36,-0.1,1.55,0.144
22.37,-0.149,0.837,0.051
22.38,-0.114,0.962,-0.143
22.39,-0.465,0.431,-0.192
22.4,-0.041,1.162,0.184
22.41,-0.247,1.298,0.091
22.42,0.016,0.437,-0.182
22.43,-0.558,0.969,-0.194
22.44,0.061,0.948,0.194
22.45,-0.341,1.335,0.136
22.46,-0.133,0.483,-0.134
22.47,-0.522,0.758,-0.099
22.48,-0.065,1.172,0.211
22.49,-0.154,1.025,0.007
22.5,-0.182,0.842,-0.144
22.51,-0.407,0.32,-0.121
22.52,-0.147,1.408,0.138
22.53,-0.171,0.82,0.077
22.54,-0.361,0.824,-0.109
22.55,-0.428,0.489,-0.11
22.56,-0.209,1.173,0.224
22.57,-0.174,1.165,0.012
22.58,-0.227,0.387,-0.126
22.59,-0.489,0.998,-0.114
22.6,-0.005,0.87,0.165
22.61,-0.203,1.329,0.058
22.62,-0.144,0.452,-0.121
22.63,-0.488,0.882,-0.105
22.64,-0.04,1.022,0.158
22.65,-0.186,1.011,0.055
22.66,-0.315,0.707,-0.106
22.67,-0.372,0.465,-0.08
22.68,-0.201,1.369,0.17
22.69,-0.176,0.739,0.066
22.7,-0.329,0.914,-0.1
22.71,-0.426,0.597,-0.09
22.72,-0.11,1.191,0.188
22.73,-0.224,1.053,0.048
22.74,-0.202,0.481,-0.11
22.75,-0.41,1.215,-0.123
22.76,-0.022,0.832,0.138
22.77,-0.264,1.32,0.052
22.78,-0.204,0.291,-0.129
22.79,-0.411,1.236,-0.037
22.8,-0.1,0.916,0.148
22.81,-0.184,0.997,0.073
22.82,-0.398,0.771,-0.121
22.83,-0.391,0.632,-0.009
22.84,-0.158,1.269,0.146
22.85,-0.123,0.774,0.038
22.86,-0.348,0.811,-0.112
22.87,-0.263,0.782,-0.054
22.88,-0.147,1.187,0.132
22.89,-0.229,0.964,0.044
22.9,-0.254,0.567,-0.146
22.91,-0.267,1.384,-0.087
22.92,-0.03,0.793,0.113
22.93,-0.302,1.238,0.072
22.94,-0.207,0.38,-0.183
22.95,-0.382,1.356,-0.086
22.96,-0.052,0.8,0.116
22.97,-0.225,1.101,0.022
22.98,-0.322,0.563,-0.194
22.99,-0.232,0.953,-0.033
23.0,-0.149,1.167,0.135
23.01,-0.161,0.666,0.051
23.02,-0.298,0.981,-0.139
23.03,-0.238,0.996,-0.098
23.04,-0.079,1.13,0.132
23.05,-0.16,0.88,0.01
23.06,-0.468,0.965,-0.159
23.07,-0.302,1.398,0.06
23.08,-0.149,0.817,0.127
23.09,-0.118,1.009,0.02
23.1,-0.325,0.479,-0.239
23.11,-0.336,1.847,0.066
23.12,-0.041,0.643,0.123
23.13,-0.178,1.106,0.053
23.14,-0.28,0.419,-0.222
23.15,-0.262,1.813,0.006
23.16,-0.056,0.915,0.127
23.17,-0.061,0.629,0.016
23.18,-0.451,0.93,-0.216
23.19,-0.164,1.399,0.037
23.2,-0.249,1.072,0.173
23.21,0.008,0.54,0.021
23.22,-0.514,0.974,-0.197
23.23,-0.102,1.503,-0.022
23.24,-0.176,0.922,0.145
23.25,-0.051,0.797,0.018
23.26,-0.426,0.545,-0.197
23.27,-0.199,2.0,0.08
23.28,-0.095,0.703,0.135
23.29,-0.173,0.957,0.024
23.3,-0.37,0.395,-0.193
23.31,-0.212,1.974,0.091
23.32,-0.107,0.782,0.129
23.33,-0.063,0.649,-0.004
23.34,-0.449,0.841,-0.182
23.35,-0.137,1.551,0.105
23.36,-0.175,1.125,0.161
23.37,0.076,0.423,0.048
23.38,-0.558,1.036,-0.138
23.39,-0.086,1.636,0.116
23.4,-0.222,1.044,0.167
23.41,-0.01,0.629,0.014
23.42,-0.465,0.546,-0.158
23.43,-0.092,2.0,0.154
23.44,-0.154,0.6,0.12
23.45,-0.098,0.957,0.035
23.46,-0.335,0.299,-0.239
23.47,-0.166,2.0,0.122
23.48,-0.041,0.79,0.116
23.49,-0.078,0.585,-0.036
23.5,-0.416,0.722,-0.222
23.51,-0.033,1.699,0.109
23.52,-0.165,1.083,0.061
23.53,0.172,0.406,-0.016
23.54,-0.535,1.005,-0.232
23.55,0.089,1.623,0.125
23.56,-0.217,1.183,0.096
23.57,0.054,0.508,-0.02
23.58,-0.456,0.565,-0.191
23.59,-0.087,1.861,0.16
23.6,-0.072,0.698,0.115
23.61,-0.089,0.923,-0.058
23.62,-0.41,0.213,-0.181
23.63,-0.134,1.975,0.101
23.64,-0.127,0.878,0.148
23.65,-0.104,0.698,-0.038
23.66,-0.479,0.588,-0.186
23.67,0.026,1.56,0.191
23.68,-0.206,1.221,0.087
23.69,0.073,0.374,-0.078
23.7,-0.538,0.99,-0.199
23.71,-0.037,1.385,0.179
23.72,-0.297,1.28,0.131
23.73,-0.079,0.582,-0.04
23.74,-0.443,0.616,-0.142
23.75,-0.157,1.561,0.197
23.76,-0.15,0.885,0.128
23.77,-0.141,1.003,-0.088
23.78,-0.424,0.189,-0.148
23.79,-0.146,1.708,0.148
23.8,-0.148,0.846,0.004
23.81,-0.079,0.971,-0.074
23.82,-0.496,0.435,-0.173
23.83,-0.037,1.347,0.163
23.84,-0.227,1.351,0.063
23.85,0.067,0.483,-0.074
23.86,-0.591,0.913,-0.136
23.87,0.016,0.947,0.214
23.88,-0.296,1.349,0.006
23.89,-0.069,0.38,-0.12
23.9,-0.536,0.917,-0.116
23.91,-0.045,0.988,0.201
23.92,-0.237,1.131,-0.002
23.93,-0.287,0.665,-0.126
23.94,-0.377,0.552,-0.012
23.95,-0.113,1.302,0.162
23.96,-0.215,0.7,0.054
23.97,-0.246,0.997,-0.132
23.98,-0.379,0.525,-0.103
23.99,-0.069,1.292,0.084
24.0,-0.177,0.893,-0.028
24.01,-0.299,0.647,-0.158
24.02,-0.305,1.006,-0.075
24.03,-0.011,0.846,0.173
24.04,-0.242,1.325,0.011
24.05,-0.164,0.271,-0.138
24.06,-0.259,1.44,-0.141
24.07,0.063,0.862,0.121
24.08,-0.202,1.057,0.012
24.09,-0.291,0.602,-0.187
24.1,-0.218,1.055,-0.089
24.11,-0.113,1.162,0.146
24.12,-0.096,0.68,0.033
24.13,-0.457,0.98,-0.153
24.14,-0.251,0.878,-0.039
24.15,-0.223,1.15,0.177
24.16,-0.131,0.888,0.072
24.17,-0.362,0.729,-0.191
24.18,-0.256,1.409,-0.034
24.19,-0.057,0.848,0.178
24.2,-0.216,1.205,0.032
24.21,-0.244,0.36,-0.176
24.22,-0.31,1.767,0.003
24.23,0.027,0.78,0.123
24.24,-0.225,1.04,-0.01
24.25,-0.365,0.651,-0.188
24.26,-0.317,1.348,0.028
24.27,-0.106,1.038,0.122
24.28,-0.105,0.702,0.02
24.29,-0.401,1.048,-0.178
24.3,-0.184,1.26,0.018
24.31,-0.195,1.176,0.167
24.32,-0.061,0.594,0.022
24.33,-0.438,0.853,-0.184
24.34,-0.281,1.691,0.057
24.35,-0.131,0.76,0.189
24.36,-0.164,0.965,0.01
24.37,-0.392,0.461,-0.171
24.38,-0.317,2.0,0.102
24.39,-0.121,0.59,0.157
24.4,-0.188,1.001,0.08
24.41,-0.357,0.515,-0.204
24.42,-0.247,1.785,0.072
24.43,-0.096,0.963,0.114
24.44,-0.015,0.491,0.03
24.45,-0.427,1.017,-0.194
24.46,-0.135,1.527,0.121
24.47,-0.157,1.159,0.157
24.48,-0.012,0.453,0.051
24.49,-0.506,0.867,-0.167
24.5,-0.073,1.862,0.103
24.51,-0.102,0.899,0.133
24.52,-0.035,0.768,-0.008
24.53,-0.385,0.376,-0.201
24.54,-0.1,2.0,0.068
24.55,-0.014,0.668,0.076
24.56,-0.115,0.835,-0.021
24.57,-0.364,0.358,-0.187
24.58,-0.168,1.898,0.12
24.59,-0.122,0.924,0.076
24.6,0.018,0.468,-0.022
24.61,-0.55,0.913,-0.233
24.62,0.015,1.461,0.206
24.63,-0.216,1.323,0.084
24.64,0.073,0.3,-0.01
24.65,-0.463,0.937,-0.227
24.66,-0.074,1.459,0.146
24.67,-0.241,1.213,0.097
24.68,-0.045,0.629,-0.056
24.69,-0.55,0.565,-0.111
24.7,-0.081,1.536,0.204
24.71,-0.161,0.898,0.101
24.72,-0.103,1.0,-0.103
24.73,-0.47,0.207,-0.174
24.74,-0.183,1.621,0.201
24.75,-0.189,0.901,0.087
24.76,-0.175,0.789,-0.046
24.77,-0.4,0.541,-0.219
24.78,-0.076,1.24,0.149
24.79,-0.212,1.199,0.032
24.8,-0.039,0.533,-0.123
24.81,-0.461,0.905,-0.146
24.82,-0.005,1.013,0.145
24.83,-0.215,1.421,0.075
24.84,-0.01,0.534,-0.088
24.85,-0.493,0.74,-0.163
24.86,-0.072,1.291,0.159
24.87,-0.194,0.92,0.08
24.88,-0.211,0.992,-0.118
24.89,-0.376,0.265,-0.148
24.9,-0.171,1.401,0.17
24.91,-0.091,0.856,0.008
24.92,-0.267,0.839,-0.15
24.93,-0.388,0.532,-0.146
24.94,-0.119,1.113,0.175
24.95,-0.112,1.238,-0.039
24.96,-0.086,0.44,-0.145
24.97,-0.487,1.045,-0.148
24.98,0.07,0.817,0.161
24.99,-0.28,1.311,0.006
25.0,-0.112,0.465,-0.126
25.01,-0.567,0.821,-0.074
25.02,-0.115,1.079,0.213
25.03,-0.21,0.982,0.033
25.04,-0.346,0.793,-0.098
25.05,-0.411,0.427,-0.044
25.06,-0.161,1.3,0.224
25.07,-0.102,0.826,0.034
25.08,-0.363,0.81,-0.095
25.09,-0.3,0.81,-0.073
25.1,-0.081,1.135,0.139
25.11,-0.277,1.061,0.016
25.12,-0.167,0.517,-0.143
25.13,-0.409,1.28,-0.096
25.14,-0.057,0.766,0.161
25.15,-0.311,1.346,0.081
25.16,-0.258,0.312,-0.118
25.17,-0.332,1.262,-0.066
25.18,-0.028,0.924,0.121
25.19,-0.196,0.949,0.015
25.2,-0.327,0.773,-0.152
25.21,-0.246,0.979,-0.075
25.22,-0.125,1.291,0.135
25.23,-0.124,0.585,0.031
25.24,-0.382,1.0,-0.162
25.25,-0.254,1.095,-0.11
25.26,-0.186,0.933,0.114
25.27,-0.089,0.979,-0.028
25.28,-0.325,0.55,-0.195
25.29,-0.297,1.619,-0.007
25.3,-0.091,0.653,0.119
25.31,-0.208,1.182,0.053
25.32,-0.275,0.345,-0.215
25.33,-0.262,1.727,-0.04
25.34,-0.055,0.845,0.111
25.35,-0.165,0.792,0.022
25.36,-0.367,0.832,-0.183
25.37,-0.312,1.342,0.069
25.38,-0.194,1.089,0.136
25.39,-0.032,0.599,0.035
25.4,-0.469,1.023,-0.214
25.41,-0.219,1.307,0.058
25.42,-0.263,0.948,0.194
25.43,-0.078,0.8,0.038
25.44,-0.41,0.615,-0.171
25.45,-0.254,1.972,0.068
25.46,-0.106,0.722,0.163
25.47,-0.17,0.953,0.063
25.48,-0.369,0.366,-0.159
25.49,-0.178,2.0,0.127
25.5,-0.099,0.644,0.17
25.51,-0.124,0.861,0.025
25.52,-0.375,0.451,-0.209
25.53,-0.1,1.998,0.149
25.54,-0.068,0.932,0.052
25.55,-0.021,0.405,-0.028
25.56,-0.401,0.908,-0.212
25.57,-0.015,1.593,0.045
25.58,-0.096,1.255,0.1
25.59,0.056,0.369,-0.022
25.6,-0.527,0.879,-0.21
25.61,0.024,1.786,0.176
25.62,-0.246,0.963,0.109
25.63,0.043,0.735,-0.048
25.64,-0.47,0.402,-0.224
25.65,-0.194,1.851,0.134
25.66,-0.114,0.742,0.096
25.67,-0.107,0.965,-0.022
25.68,-0.449,0.238,-0.145
25.69,-0.112,1.763,0.173
25.7,-0.26,1.022,0.169
25.71,-0.05,0.583,-0.073
25.72,-0.529,0.829,-0.159
25.73,0.0,1.512,0.26
25.74,-0.239,1.393,0.083
25.75,0.042,0.298,-0.049
25.76,-0.455,0.959,-0.166
25.77,-0.008,1.352,0.14
25.78,-0.182,1.123,0.089
25.79,-0.083,0.784,-0.077
25.8,-0.289,0.325,-0.182
25.81,-0.157,1.597,0.149
25.82,-0.101,0.805,0.134
25.83,-0.188,1.049,-0.1
25.84,-0.395,0.207,-0.19
25.85,-0.153,1.446,0.202
25.86,-0.095,1.079,-0.061
25.87,-0.119,0.621,-0.133
25.88,-0.485,0.817,-0.146
25.89,-0.062,1.017,0.222
25.9,-0.342,1.316,0.031
25.91,-0.077,0.418,-0.077
25.92,-0.53,0.886,-0.145
25.93,-0.053,0.987,0.193
25.94,-0.164,1.229,0.016
25.95,-0.203,0.699,-0.141
25.96,-0.449,0.463,-0.054
25.97,-0.142,1.29,0.183
25.98,-0.144,0.88,0.018
25.99,-0.172,0.956,-0.117
26.0,-0.449,0.374,-0.131
26.01,-0.101,1.277,0.155
26.02,-0.235,0.95,-0.009
26.03,-0.23,0.645,-0.094
26.04,-0.465,0.911,-0.067
26.05,-0.064,0.868,0.201
26.06,-0.352,1.31,0.042
26.07,-0.193,0.272,-0.075
26.08,-0.435,1.279,-0.014
26.09,-0.077,0.818,0.176
26.1,-0.287,1.153,0.018
26.11,-0.223,0.623,-0.16
26.12,-0.265,0.973,-0.07
26.13,-0.098,1.111,0.164
26.14,-0.033,0.737,0.006
26.15,-0.514,0.973,-0.216
26.16,-0.094,0.853,-0.061
26.17,-0.238,1.161,0.127
26.18,-0.082,0.848,0.023
26.19,-0.406,0.783,-0.234
26.2,-0.178,1.424,-0.035
26.21,-0.054,0.819,0.137
26.22,-0.21,1.119,0.006
26.23,-0.233,0.413,-0.181
26.24,-0.309,1.911,0.007
26.25,-0.077,0.708,0.133
26.26,-0.219,0.979,0.053
26.27,-0.313,0.6,-0.204
26.28,-0.29,1.962,0.049
26.29,-0.142,0.738,0.103
26.3,-0.071,0.738,0.015
26.31,-0.363,0.785,-0.193
26.32,-0.154,1.577,0.086
26.33,-0.18,1.165,0.169
26.34,0.033,0.341,0.025
26.35,-0.397,1.006,-0.217
26.36,-0.004,1.701,0.085
26.37,-0.121,1.013,0.081
26.38,0.01,0.656,-0.039
26.39,-0.392,0.547,-0.18
26.4,-0.07,2.0,0.163
26.41,-0.065,0.738,0.112
26.42,-0.15,0.808,0.013
26.43,-0.324,0.258,-0.204
26.44,-0.175,2.0,0.129
26.45,-0.047,0.829,0.101
26.46,-0.153,0.6,-0.03
26.47,-0.423,0.646,-0.219
26.48,-0.095,1.592,0.21
26.49,-0.209,1.24,0.114
26.5,0.042,0.349,-0.025
26.51,-0.542,0.971,-0.159
26.52,-0.027,1.394,0.163
26.53,-0.217,1.327,0.125
26.54,-0.069,0.523,-0.05
26.55,-0.45,0.568,-0.155
26.56,-0.166,1.639,0.194
26.57,-0.136,0.846,0.105
26.58,-0.146,1.063,-0.105
26.59,-0.355,0.114,-0.194
26.6,-0.042,1.763,0.147
26.61,-0.148,0.979,0.113
26.62,-0.102,0.786,-0.106
26.63,-0.442,0.539,-0.229
26.64,0.033,1.329,0.144
26.65,-0.253,1.327,0.045
26.66,0.04,0.449,-0.108
26.67,-0.595,0.959,-0.164
26.68,-0.013,0.99,0.223
26.69,-0.281,1.29,0.0
26.7,-0.095,0.615,-0.113
26.71,-0.458,0.556,-0.115
26.72,-0.137,1.26,0.191
26.73,-0.147,1.003,0.028
26.74,-0.16,0.994,-0.094
26.75,-0.449,0.22,-0.123
26.76,-0.141,1.381,0.216
26.77,-0.174,0.884,0.005
26.78,-0.276,0.791,-0.092
26.79,-0.423,0.671,-0.111
26.8,-0.102,1.004,0.206
26.81,-0.314,1.251,-0.017
26.82,-0.204,0.387,-0.103
26.83,-0.426,1.159,-0.024
26.84,-0.053,0.774,0.192
26.85,-0.248,1.34,0.054
26.86,-0.284,0.365,-0.124
26.87,-0.335,1.078,-0.0
26.88,-0.103,1.023,0.133
26.89,-0.234,0.852,0.045
26.9,-0.296,0.935,-0.13
26.91,-0.35,0.892,-0.024
26.92,-0.141,1.195,0.186
26.93,-0.161,0.768,0.044
26.94,-0.397,0.885,-0.212
26.95,-0.221,1.184,-0.079
26.96,-0.068,0.974,0.098
26.97,-0.196,1.063,0.009
26.98,-0.212,0.517,-0.231
26.99,-0.333,1.799,0.003
27.0,-0.017,0.687,0.168
27.01,-0.193,1.102,0.024
27.02,-0.326,0.433,-0.175
27.03,-0.295,1.647,0.022
27.04,-0.13,0.841,0.125
27.05,-0.086,0.729,-0.017
27.06,-0.435,0.874,-0.218
27.07,-0.13,1.338,0.015
27.08,-0.193,1.038,0.12
27.09,-0.01,0.397,0.046
27.1,-0.539,1.021,-0.144
27.11,-0.043,1.586,0.141
27.12,-0.209,1.182,0.147
27.13,0.041,0.486,0.013
27.14,-0.509,0.765,-0.177
27.15,-0.039,1.91,0.135
27.16,-0.139,0.823,0.152
27.17,-0.098,0.811,-0.018
27.18,-0.43,0.252,-0.19
27.19,-0.084,2.0,0.135
27.2,-0.077,0.717,0.04
27.21,-0.06,0.775,-0.048
27.22,-0.391,0.451,-0.199
27.23,-0.093,1.789,0.148
27.24,-0.145,0.9,0.076
27.25,-0.104,0.972,-0.117
27.26,-0.368,0.341,-0.223
27.27,-0.063,1.28,0.162
27.28,-0.229,1.255,-0.008
27.29,0.04,0.552,-0.116
27.3,-0.53,0.913,-0.162
27.31,-0.06,0.906,0.228
27.32,-0.324,1.403,0.053
27.33,-0.164,0.426,-0.07
27.34,-0.378,0.82,-0.098
27.35,-0.116,1.027,0.176
27.36,-0.22,1.047,0.012
27.37,-0.271,0.805,-0.072
27.38,-0.361,0.475,-0.006
27.39,-0.195,1.288,0.189
27.4,-0.181,0.8,0.03
27.41,-0.324,0.914,-0.112
27.42,-0.293,0.849,-0.042
27.43,0.006,1.066,0.145
27.44,-0.258,1.096,-0.046
27.45,-0.22,0.544,-0.208
27.46,-0.286,1.542,-0.066
27.47,0.016,0.727,0.15
27.48,-0.291,1.264,0.008
27.49,-0.232,0.387,-0.251
27.5,-0.24,1.736,-0.035
27.51,-0.007,0.894,0.165
27.52,-0.222,0.757,0.087
27.53,-0.427,0.846,-0.204
27.54,-0.216,1.429,0.022
27.55,-0.23,1.138,0.184
27.56,-0.024,0.497,0.037
27.57,-0.584,1.036,-0.162
27.58,-0.136,1.47,0.051
27.59,-0.173,0.944,0.148
27.6,-0.083,0.735,-0.027
27.61,-0.363,0.63,-0.176
27.62,-0.19,2.0,0.11
27.63,-0.061,0.686,0.166
27.64,-0.12,0.907,0.026
27.65,-0.343,0.302,-0.177
27.66,-0.182,2.0,0.155
27.67,-0.093,0.729,0.158
27.68,-0.049,0.681,-0.027
27.69,-0.48,0.696,-0.208
27.7,-0.031,1.673,0.165
27.71,-0.221,1.261,0.133
27.72,0.011,0.21,-0.032
27.73,-0.447,1.007,-0.191
27.74,-0.09,1.54,0.084
27.75,-0.107,1.142,0.084
27.76,-0.088,0.434,-0.032
27.77,-0.443,0.802,-0.175
27.78,-0.115,1.457,0.155
27.79,-0.178,1.046,0.122
27.8,-0.055,0.852,-0.079
27.81,-0.505,0.299,-0.173
27.82,-0.183,1.686,0.173
27.83,-0.11,0.78,0.018
27.84,-0.158,1.007,-0.059
27.85,-0.376,0.294,-0.19
27.86,-0.166,1.409,0.124
27.87,-0.146,1.043,0.004
27.88,-0.066,0.641,-0.117
27.89,-0.431,0.829,-0.18
27.9,-0.076,0.969,0.227
27.91,-0.257,1.394,0.084
27.92,-0.07,0.435,-0.097
27.93,-0.535,0.903,-0.123
27.94,-0.025,1.104,0.181
27.95,-0.264,1.128,0.008
27.96,-0.186,0.808,-0.113
27.97,-0.463,0.366,-0.087
27.98,-0.124,1.402,0.172
27.99,-0.173,0.752,0.0
28.0,-0.294,0.977,-0.106
28.01,-0.527,0.408,-0.112
28.02,-0.098,1.236,0.224
28.03,-0.208,1.059,-0.003
28.04,-0.17,0.517,-0.1
28.05,-0.466,1.017,-0.094
28.06,0.051,0.865,0.162
28.07,-0.303,1.366,0.012
28.08,-0.096,0.328,-0.138
28.09,-0.432,1.145,-0.071
28.1,-0.037,0.903,0.125
28.11,-0.24,1.119,0.018
28.12,-0.275,0.705,-0.144
28.13,-0.307,0.685,-0.035
28.14,-0.153,1.198,0.161
28.15,-0.136,0.788,0.053
28.16,-0.382,0.916,-0.091
28.17,-0.219,0.897,-0.026
28.18,-0.139,1.161,0.165
28.19,-0.17,0.873,0.02
28.2,-0.298,0.729,-0.136
28.21,-0.324,1.411,-0.076
28.22,-0.062,0.788,0.176
28.23,-0.255,1.238,0.026
28.24,-0.269,0.391,-0.208
28.25,-0.284,1.572,-0.067
28.26,-0.075,0.804,0.138
28.27,-0.225,1.062,0.03
28.28,-0.376,0.623,-0.172
28.29,-0.165,1.28,-0.074
28.3,-0.116,1.171,0.138
28.31,-0.041,0.611,-0.005
28.32,-0.445,1.085,-0.213
28.33,-0.235,1.183,0.006
28.34,-0.091,1.107,0.122
28.35,-0.128,0.736,0.053
28.36,-0.424,0.784,-0.206
28.37,-0.304,1.736,0.051
28.38,-0.068,0.761,0.163
28.39,-0.178,1.036,0.053
28.4,-0.298,0.423,-0.171
28.41,-0.346,2.0,0.06
28.42,-0.075,0.73,0.155
28.43,-0.153,0.878,0.042
28.44,-0.377,0.635,-0.227
28.45,-0.256,1.579,0.038
28.46,-0.11,0.965,0.109
28.47,0.018,0.563,0.019
28.48,-0.478,1.061,-0.179
28.49,-0.211,1.402,0.08
28.5,-0.205,1.125,0.116
28.51,-0.059,0.533,0.063
28.52,-0.371,0.848,-0.156
28.53,-0.209,1.827,0.072
28.54,-0.094,0.758,0.149
28.55,-0.14,0.876,0.018
28.56,-0.353,0.48,-0.183
28.57,-0.07,2.0,0.074
28.58,-0.108,0.671,0.131
28.59,-0.128,0.893,-0.004
28.6,-0.376,0.302,-0.209
28.61,-0.115,2.0,0.142
28.62,-0.102,0.857,0.092
28.63,-0.059,0.512,-0.034
28.64,-0.385,0.76,-0.233
28.65,-0.075,1.6,0.095
28.66,-0.194,1.24,0.12
28.67,0.018,0.383,-0.045
28.68,-0.448,0.943,-0.213
28.69,-0.009,1.488,0.161
28.7,-0.108,1.208,0.075
28.71,-0.064,0.601,-0.084
28.72,-0.377,0.5,-0.164
28.73,-0.168,1.803,0.2
28.74,-0.106,0.807,0.132
28.75,-0.168,0.915,-0.05
28.76,-0.32,0.219,-0.141
28.77,-0.225,1.735,0.186
28.78,-0.149,0.89,0.157
28.79,-0.122,0.698,-0.052
28.8,-0.413,0.663,-0.196
28.81,-0.042,1.324,0.151
28.82,-0.291,1.347,0.095
28.83,-0.007,0.357,-0.064
28.84,-0.513,0.949,-0.151
28.85,-0.045,1.197,0.163
28.86,-0.266,1.218,0.069
28.87,-0.088,0.703,-0.064
28.88,-0.509,0.51,-0.163
28.89,-0.098,1.489,0.217
28.9,-0.126,0.894,0.093
28.91,-0.154,0.959,-0.087
28.92,-0.419,0.267,-0.163
28.93,-0.104,1.515,0.148
28.94,-0.12,0.886,0.023
28.95,-0.082,0.829,-0.096
28.96,-0.464,0.571,-0.169
28.97,-0.048,1.118,0.25
28.98,-0.277,1.246,0.088
28.99,-0.056,0.475,-0.116
29.0,-0.579,0.939,-0.148
29.01,0.021,1.008,0.196
29.02,-0.246,1.382,0.057
29.03,-0.069,0.586,-0.057
29.04,-0.53,0.667,-0.139
29.05,-0.06,1.312,0.194
29.06,-0.113,0.86,0.038
29.07,-0.2,1.021,-0.182
29.08,-0.422,0.284,-0.172
29.09,-0.17,1.433,0.197
29.1,-0.097,0.859,0.077
29.11,-0.191,0.833,-0.123
29.12,-0.426,0.662,-0.179
29.13,-0.091,1.062,0.185
29.14,-0.25,1.263,-0.01
29.15,-0.075,0.335,-0.119
29.16,-0.581,1.035,-0.134
29.17,0.062,0.942,0.184
29.18,-0.253,1.26,0.05
29.19,-0.254,0.497,-0.103
29.2,-0.409,0.681,-0.081
29.21,-0.176,1.164,0.17
29.22,-0.099,1.016,0.037
29.23,-0.264,0.853,-0.106
29.24,-0.405,0.364,-0.111
29.25,-0.164,1.377,0.183
29.26,-0.128,0.796,0.047
29.27,-0.339,0.824,-0.155
29.28,-0.462,0.585,-0.142
29.29,-0.039,1.106,0.162
29.3,-0.243,1.266,0.017
29.31,-0.122,0.387,-0.115
29.32,-0.533,1.08,-0.1
29.33,0.02,0.849,0.197
29.34,-0.288,1.389,0.027
29.35,-0.187,0.384,-0.104
29.36,-0.449,0.928,-0.043
29.37,-0.005,0.839,0.16
29.38,-0.218,1.096,0.068
29.39,-0.31,0.694,-0.208
29.4,-0.287,0.883,-0.056
29.41,-0.165,1.162,0.144
29.42,-0.119,0.711,0.031
29.43,-0.345,0.979,-0.178
29.44,-0.238,0.937,-0.092
29.45,-0.045,1.165,0.152
29.46,-0.175,0.87,0.031
29.47,-0.3,0.748,-0.174
29.48,-0.303,1.4,-0.084
29.49,-0.016,0.809,0.172
29.5,-0.282,1.231,0.038
29.51,-0.173,0.406,-0.177
29.52,-0.392,1.617,-0.063
29.53,-0.003,0.763,0.16
29.54,-0.269,1.104,0.081
29.55,-0.324,0.584,-0.206
29.56,-0.208,1.217,-0.041
29.57,-0.163,1.131,0.154
29.58,-0.135,0.596,0.041
29.59,-0.378,1.073,-0.178
29.6,-0.274,1.064,-0.062
29.61,-0.099,1.103,0.12
29.62,-0.156,0.817,0.054
29.63,-0.389,0.875,-0.199
29.64,-0.304,1.466,0.008
29.65,-0.069,0.768,0.171
29.66,-0.148,1.172,0.038
29.67,-0.284,0.385,-0.243
29.68,-0.26,1.904,-0.005
29.69,-0.085,0.752,0.139
29.7,-0.132,0.964,0.069
29.71,-0.335,0.579,-0.205
29.72,-0.206,1.584,0.009
29.73,-0.108,1.082,0.123
29.74,-0.017,0.516,0.029
29.75,-0.449,1.095,-0.251
29.76,-0.238,1.239,0.066
29.77,-0.252,1.065,0.128
29.78,-0.119,0.698,0.06
29.79,-0.462,0.833,-0.181
29.8,-0.288,1.612,0.062
29.81,-0.086,0.802,0.17
29.82,-0.16,0.931,0.035
29.83,-0.29,0.423,-0.142
29.84,-0.287,2.0,0.027
29.85,-0.081,0.724,0.203
29.86,-0.173,0.901,0.026
29.87,-0.44,0.522,-0.223
29.88,-0.224,1.677,0.081
29.89,-0.238,0.881,0.12
29.9,-0.018,0.566,0.021
29.91,-0.475,1.024,-0.185
29.92,-0.195,1.346,0.032
29.93,-0.096,1.184,0.171
29.94,-0.005,0.482,0.059
29.95,-0.414,0.891,-0.192
29.96,-0.203,1.711,0.06
29.97,-0.008,0.946,0.171
29.98,-0.142,0.814,-0.007
29.99,-0.335,0.328,-0.205
30.0,-0.175,2.0,0.061
30.01,-0.033,0.656,0.075
30.02,-0.192,0.89,0.025
30.03,-0.313,0.517,-0.171
30.04,-0.293,1.838,0.102
30.05,0.001,0.968,0.116
30.06,-0.015,0.521,0.016
30.07,-0.395,0.958,-0.256
30.08,-0.083,1.479,0.085
30.09,-0.15,1.225,0.128
30.1,0.054,0.425,0.075
30.11,-0.483,0.927,-0.229
30.12,-0.021,1.775,0.077
30.13,-0.09,0.891,0.073
30.14,0.006,0.778,0.007
30.15,-0.315,0.424,-0.271
30.16,-0.148,2.0,0.105
30.17,-0.092,0.748,0.093
30.18,-0.033,0.931,-0.026
30.19,-0.343,0.267,-0.216
30.2,-0.12,2.0,0.105
30.21,-0.109,0.771,0.078
30.22,-0.044,0.653,-0.055
30.23,-0.378,0.642,-0.24
30.24,-0.013,1.674,0.084
30.25,-0.137,1.125,0.081
30.26,0.066,0.272,-0.051
30.27,-0.464,1.042,-0.232
30.28,0.091,1.62,0.079
30.29,-0.207,1.205,0.099
30.3,0.059,0.52,-0.04
30.31,-0.472,0.741,-0.195
30.32,-0.018,1.908,0.122
30.33,-0.108,0.792,0.12
30.34,-0.075,0.82,-0.019
30.35,-0.415,0.302,-0.23
30.36,-0.172,1.904,0.109
30.37,-0.044,0.845,0.095
30.38,-0.137,0.731,-0.033
30.39,-0.342,0.514,-0.232
30.4,-0.077,1.819,0.149
30.41,-0.151,1.16,0.188
30.42,0.008,0.367,-0.066
30.43,-0.516,1.038,-0.238
30.44,0.042,1.532,0.184
30.45,-0.144,1.34,0.101
30.46,0.017,0.354,-0.026
30.47,-0.436,0.772,-0.19
30.48,-0.085,1.785,0.114
30.49,-0.037,0.865,0.11
30.5,-0.139,0.923,-0.078
30.51,-0.346,0.253,-0.176
30.52,-0.12,2.0,0.172
30.53,-0.122,0.833,0.133
30.54,-0.165,0.737,-0.004
30.55,-0.401,0.502,-0.202
30.56,-0.138,1.838,0.168
30.57,-0.181,1.129,0.081
30.58,0.053,0.35,-0.049
30.59,-0.554,0.957,-0.212
30.6,0.001,1.5,0.165
30.61,-0.302,1.251,0.111
30.62,0.001,0.485,-0.024
30.63,-0.496,0.789,-0.182
30.64,-0.032,1.693,0.139
30.65,-0.137,1.017,0.107
30.66,-0.082,0.833,-0.071
30.67,-0.375,0.268,-0.178
30.68,-0.155,1.816,0.176
30.69,-0.114,0.822,0.186
30.7,-0.113,0.89,-0.104
30.71,-0.456,0.354,-0.145
30.72,-0.076,1.638,0.146
30.73,-0.19,1.182,0.086
30.74,-0.037,0.473,-0.064
30.75,-0.495,0.946,-0.134
30.76,-0.068,1.268,0.191
30.77,-0.302,1.379,0.138
30.78,-0.035,0.436,-0.005
30.79,-0.495,0.796,-0.136
30.8,-0.104,1.383,0.123
30.81,-0.129,1.006,0.082
30.82,-0.161,0.912,-0.113
30.83,-0.338,0.243,-0.192
30.84,-0.165,1.714,0.146
30.85,-0.073,0.83,0.1
30.86,-0.108,1.009,-0.078
30.87,-0.406,0.33,-0.194
30.88,-0.107,1.388,0.219
30.89,-0.207,1.157,0.046
30.9,0.021,0.609,-0.099
30.91,-0.452,0.87,-0.165
30.92,-0.028,1.007,0.196
30.93,-0.213,1.364,0.048
30.94,-0.055,0.507,-0.084
30.95,-0.483,0.816,-0.187
30.96,-0.034,1.209,0.155
30.97,-0.263,1.292,0.032
30.98,-0.088,0.596,-0.14
30.99,-0.467,0.68,-0.099
31.0,-0.029,1.228,0.132
31.01,-0.247,0.84,0.052
31.02,-0.284,0.986,-0.105
31.03,-0.348,0.323,-0.119
31.04,-0.185,1.338,0.174
31.05,-0.174,0.834,-0.001
31.06,-0.253,0.808,-0.139
31.07,-0.412,0.726,-0.156
31.08,0.036,1.026,0.235
31.09,-0.27,1.276,-0.003
31.1,-0.118,0.325,-0.166
31.11,-0.398,1.308,-0.086
31.12,-0.006,0.839,0.182
31.13,-0.388,1.317,0.006
31.14,-0.221,0.494,-0.088
31.15,-0.333,1.007,-0.098
31.16,-0.073,1.093,0.169
31.17,-0.083,0.817,0.039
31.18,-0.416,0.912,-0.131
31.19,-0.33,0.618,-0.01
31.2,-0.2,1.242,0.172
31.21,-0.144,0.803,0.01
31.22,-0.29,0.785,-0.13
31.23,-0.38,1.182,-0.048
31.24,-0.008,0.986,0.189
31.25,-0.353,1.149,0.065
31.26,-0.203,0.408,-0.134
31.27,-0.397,1.603,-0.06
31.28,-0.042,0.774,0.229
31.29,-0.161,1.17,0.092
31.3,-0.309,0.553,-0.232
31.31,-0.319,1.182,-0.07
31.32,-0.148,0.992,0.125
31.33,-0.143,0.875,-0.008
31.34,-0.381,0.806,-0.221
31.35,-0.194,0.927,-0.048
31.36,-0.192,1.206,0.148
31.37,-0.118,0.714,0.035
31.38,-0.361,0.888,-0.175
31.39,-0.24,1.349,-0.054
31.4,-0.096,0.935,0.128
31.41,-0.143,0.989,0.025
31.42,-0.332,0.526,-0.197
31.43,-0.355,1.729,0.031
31.44,-0.116,0.617,0.075
31.45,-0.219,1.177,0.029
31.46,-0.252,0.411,-0.227
31.47,-0.376,1.57,0.045
31.48,-0.119,0.858,0.14
31.49,-0.131,0.821,0.045
31.5,-0.408,0.896,-0.181
31.51,-0.282,1.26,0.094
31.52,-0.241,1.135,0.21
31.53,-0.037,0.575,0.056
31.54,-0.525,0.956,-0.165
31.55,-0.175,1.577,0.053
31.56,-0.099,0.959,0.182
31.57,-0.106,0.823,0.025
31.58,-0.356,0.576,-0.164
31.59,-0.308,2.0,0.07
31.6,-0.066,0.632,0.139
31.61,-0.143,1.034,0.073
31.62,-0.405,0.39,-0.213
31.63,-0.186,1.973,0.079
31.64,-0.176,0.856,0.143
31.65,-0.042,0.599,0.052
31.66,-0.33,0.818,-0.195
31.67,-0.106,1.553,0.099
31.68,-0.175,1.202,0.157
31.69,0.095,0.376,0.014
31.7,-0.606,0.982,-0.179
31.71,0.019,1.757,0.104
31.72,-0.187,0.931,0.097
31.73,0.041,0.715,-0.018
31.74,-0.388,0.537,-0.219
31.75,-0.076,2.0,0.101
31.76,0.001,0.772,0.092
31.77,-0.049,0.847,-0.065
31.78,-0.423,0.224,-0.176
31.79,-0.165,1.877,0.165
31.8,-0.138,0.788,0.114
31.81,-0.127,0.949,-0.043
31.82,-0.43,0.42,-0.18
31.83,-0.063,1.789,0.221
31.84,-0.21,1.153,0.155
31.85,0.018,0.362,-0.012
31.86,-0.537,1.0,-0.201
31.87,-0.066,1.26,0.199
31.88,-0.274,1.294,0.099
31.89,-0.003,0.474,-0.002
31.9,-0.478,0.751,-0.119
31.91,-0.142,1.486,0.167
31.92,-0.183,0.921,0.074
31.93,-0.078,0.995,-0.077
31.94,-0.46,0.19,-0.168
31.95,-0.139,1.749,0.184
31.96,-0.125,0.859,0.117
31.97,-0.203,0.85,-0.075
31.98,-0.378,0.398,-0.196
31.99,-0.141,1.362,0.192
32.0,-0.2,1.131,0.043
32.01,-0.035,0.588,-0.093
32.02,-0.438,0.877,-0.149
32.03,0.011,1.017,0.183
32.04,-0.239,1.325,0.057
32.05,-0.096,0.521,-0.087
32.06,-0.47,0.781,-0.11
32.07,-0.148,1.248,0.231
32.08,-0.151,1.105,0.021
32.09,-0.167,0.892,-0.095
32.1,-0.302,0.315,-0.13
32.11,-0.235,1.454,0.184
32.12,-0.127,0.806,0.015
32.13,-0.283,0.978,-0.095
32.14,-0.376,0.393,-0.15
32.15,-0.189,1.198,0.207
32.16,-0.234,1.117,0.044
32.17,-0.197,0.52,-0.129
32.18,-0.461,0.989,-0.152
32.19,0.042,0.882,0.205
32.2,-0.267,1.297,-0.043
32.21,-0.174,0.411,-0.131
32.22,-0.448,0.946,-0.11
32.23,-0.099,1.027,0.177
32.24,-0.207,1.011,0.037
32.25,-0.34,0.734,-0.121
32.26,-0.297,0.53,-0.074
32.27,-0.192,1.322,0.191
32.28,-0.186,0.71,0.065
32.29,-0.337,0.888,-0.064
32.3,-0.337,0.804,-0.065
32.31,-0.129,1.151,0.149
32.32,-0.264,0.992,0.014
32.33,-0.236,0.568,-0.175
32.34,-0.457,1.188,-0.021
32.35,-0.001,0.807,0.179
32.36,-0.395,1.326,0.093
32.37,-0.178,0.334,-0.109
32.38,-0.441,1.27,-0.032
32.39,-0.065,0.863,0.161
32.4,-0.262,1.049,-0.02
32.41,-0.215,0.692,-0.185
32.42,-0.253,0.972,-0.09
32.43,-0.019,1.252,0.157
32.44,-0.184,0.698,0.018
32.45,-0.404,0.99,-0.196
32.46,-0.239,0.967,-0.05
32.47,-0.148,1.126,0.136
32.48,-0.218,0.948,-0.0
32.49,-0.27,0.629,-0.207
32.5,-0.294,1.55,-0.032
32.51,0.024,0.74,0.156
32.52,-0.277,1.22,0.039
32.53,-0.219,0.401,-0.187
32.54,-0.355,1.681,-0.015
32.55,0.048,0.802,0.165
32.56,-0.224,0.957,0.042
32.57,-0.37,0.512,-0.232
32.58,-0.288,1.709,0.035
32.59,-0.131,0.862,0.101
32.6,-0.03,0.627,-0.006
32.61,-0.514,0.966,-0.252
32.62,-0.099,1.384,0.046
32.63,-0.235,1.122,0.157
32.64,0.045,0.498,0.03
32.65,-0.499,0.969,-0.207
32.66,-0.125,1.691,0.06
32.67,-0.181,0.826,0.064
32.68,0.036,0.847,0.01
32.69,-0.486,0.433,-0.206
32.7,-0.219,2.0,0.169
32.71,-0.167,0.634,0.168
32.72,-0.139,0.932,0.064
32.73,-0.475,0.39,-0.163
32.74,-0.167,1.968,0.142
32.75,-0.144,0.911,0.202
32.76,-0.031,0.49,-0.017
32.77,-0.485,0.889,-0.191
32.78,-0.018,1.653,0.093
32.79,-0.222,1.209,0.167
32.8,0.051,0.366,-0.004
32.81,-0.53,0.955,-0.207
32.82,-0.07,1.681,0.137
32.83,-0.129,1.077,0.136
32.84,-0.047,0.619,-0.037
32.85,-0.4,0.39,-0.185
32.86,-0.177,1.946,0.121
32.87,0.001,0.731,0.07
32.88,-0.128,0.917,-0.021
32.89,-0.342,0.235,-0.201
32.9,-0.12,1.994,0.099
32.91,-0.114,0.984,0.069
32.92,-0.069,0.495,-0.042
32.93,-0.435,0.842,-0.207
32.94,-0.082,1.437,0.168
32.95,-0.156,1.343,0.063
32.96,0.064,0.322,-0.103
32.97,-0.48,0.95,-0.171
32.98,-0.073,1.366,0.193
32.99,-0.234,1.062,0.111
33.0,-0.042,0.752,-0.112
33.01,-0.421,0.409,-0.156
33.02,-0.164,1.688,0.18
33.03,-0.106,0.855,0.061
33.04,-0.196,0.982,-0.008
33.05,-0.383,0.207,-0.161
33.06,-0.219,1.583,0.205
33.07,-0.158,0.983,0.051
33.08,-0.127,0.708,-0.091
33.09,-0.428,0.692,-0.16
33.1,-0.026,1.214,0.164
33.11,-0.264,1.303,0.037
33.12,-0.035,0.475,-0.035
33.13,-0.476,0.929,-0.156
33.14,-0.1,1.115,0.198
33.15,-0.251,1.218,0.051
33.16,-0.101,0.737,-0.072
33.17,-0.422,0.459,-0.115
33.18,-0.15,1.443,0.197
33.19,-0.132,0.841,0.025
33.2,-0.207,1.031,-0.113
33.21,-0.402,0.27,-0.103
33.22,-0.153,1.382,0.185
33.23,-0.219,0.925,-0.027
33.24,-0.131,0.774,-0.107
33.25,-0.474,0.76,-0.135
33.26,-0.026,0.966,0.212
33.27,-0.301,1.343,-0.012
33.28,-0.108,0.363,-0.146
33.29,-0.518,1.062,-0.076
33.3,0.003,0.89,0.158
33.31,-0.312,1.238,0.015
33.32,-0.188,0.579,-0.15
33.33,-0.372,0.735,-0.019
33.34,-0.069,1.211,0.126
33.35,-0.194,0.761,-0.036
33.36,-0.309,0.914,-0.12
33.37,-0.354,0.667,-0.009
33.38,-0.196,1.191,0.166
33.39,-0.137,0.694,0.055
33.4,-0.511,0.954,-0.183
33.41,-0.21,1.146,0.018
33.42,-0.184,0.973,0.097
33.43,-0.164,0.975,0.016
33.44,-0.288,0.594,-0.198
33.45,-0.292,1.678,0.025
33.46,-0.049,0.639,0.178
33.47,-0.214,1.161,0.063
33.48,-0.394,0.335,-0.22
33.49,-0.264,1.615,0.064
33.5,-0.141,0.771,0.095
33.51,-0.112,0.841,-0.008
33.52,-0.414,0.77,-0.238
33.53,-0.095,1.365,0.007
33.54,-0.183,1.19,0.146
33.55,-0.024,0.408,0.027
33.56,-0.493,1.069,-0.219
33.57,-0.106,1.487,0.053
33.58,-0.138,1.0,0.094
33.59,-0.17,0.721,0.032
33.6,-0.42,0.597,-0.162
33.61,-0.259,2.0,0.089
33.62,-0.065,0.642,0.132
33.63,-0.202,0.95,0.024
33.64,-0.363,0.36,-0.181
33.65,-0.244,2.0,0.136
33.66,-0.106,0.78,0.156
33.67,-0.087,0.662,-0.006
33.68,-0.395,0.728,-0.189
33.69,-0.11,1.636,0.125
33.7,-0.142,1.251,0.156
33.71,0.021,0.269,-0.016
33.72,-0.547,1.03,-0.171
33.73,-0.033,1.715,0.117
33.74,-0.223,1.038,0.099
33.75,0.079,0.632,-0.03
33.76,-0.455,0.521,-0.187
33.77,-0.147,1.744,0.138
33.78,-0.017,0.811,0.04
33.79,-0.094,0.965,-0.103
33.8,-0.299,0.208,-0.181
33.81,-0.126,1.914,0.171
33.82,-0.116,0.902,0.078
33.83,-0.102,0.736,-0.096
33.84,-0.428,0.607,-0.222
33.85,-0.017,1.436,0.204
33.86,-0.227,1.321,-0.013
33.87,0.139,0.422,-0.082
33.88,-0.571,0.961,-0.208
33.89,0.031,1.129,0.221
33.9,-0.355,1.273,0.102
33.91,-0.023,0.729,-0.088
33.92,-0.523,0.549,-0.079
33.93,-0.104,1.347,0.166
33.94,-0.211,0.915,0.071
33.95,-0.168,1.08,-0.106
33.96,-0.37,0.229,-0.115
33.97,-0.179,1.376,0.217
33.98,-0.181,0.909,0.002
33.99,-0.195,0.784,-0.105
34.0,-0.439,0.786,-0.085
34.01,-0.049,1.013,0.187
34.02,-0.305,1.213,-0.009
34.03,-0.163,0.424,-0.133
34.04,-0.465,1.11,-0.029
34.05,-0.033,0.78,0.157
34.06,-0.362,1.321,0.058
34.07,-0.241,0.409,-0.156
34.08,-0.249,1.03,-0.086
34.09,-0.049,1.124,0.147
34.1,-0.203,0.775,-0.024
34.11,-0.331,0.982,-0.181
34.12,-0.176,0.977,-0.009
34.13,-0.163,1.227,0.143
34.14,-0.214,0.709,0.078
34.15,-0.449,0.876,-0.179
34.16,-0.219,1.332,0.019
34.17,-0.127,0.826,0.104
34.18,-0.104,0.793,0.028
34.19,-0.517,0.678,-0.153
34.2,-0.198,1.987,0.084
34.21,-0.1,0.655,0.143
34.22,-0.121,0.983,0.014
34.23,-0.385,0.368,-0.204
34.24,-0.194,2.0,0.098
34.25,-0.074,0.813,0.17
34.26,-0.139,0.652,-0.034
34.27,-0.534,0.684,-0.168
34.28,-0.023,1.758,0.164
34.29,-0.231,1.158,0.156
34.3,0.058,0.279,0.004
34.31,-0.499,1.021,-0.203
34.32,-0.092,1.527,0.115
34.33,-0.092,1.122,0.053
34.34,0.034,0.581,-0.037
34.35,-0.438,0.544,-0.166
34.36,-0.108,1.781,0.176
34.37,-0.01,0.841,0.065
34.38,-0.144,0.962,-0.098
34.39,-0.266,0.226,-0.221
34.4,-0.17,1.941,0.173
34.41,-0.081,0.878,0.107
34.42,-0.158,0.761,-0.087
34.43,-0.359,0.564,-0.202
34.44,-0.115,1.383,0.165
34.45,-0.218,1.331,0.058
34.46,-0.002,0.463,-0.036
34.47,-0.495,0.951,-0.157
34.48,-0.07,1.069,0.233
34.49,-0.221,1.314,0.009
34.5,-0.073,0.726,-0.062
34.51,-0.426,0.582,-0.085
34.52,-0.176,1.28,0.163
34.53,-0.063,0.867,-0.027
34.54,-0.199,1.079,-0.13
34.55,-0.361,0.296,-0.069
34.56,-0.189,1.32,0.173
34.57,-0.27,0.812,0.002
34.58,-0.224,0.835,-0.114
34.59,-0.353,0.814,-0.127
34.6,-0.081,0.957,0.154
34.61,-0.314,1.24,-0.014
34.62,-0.25,0.363,-0.133
34.63,-0.341,1.386,0.014
34.64,-0.038,0.733,0.12
34.65,-0.301,1.247,0.003
34.66,-0.273,0.47,-0.206
34.67,-0.222,1.313,-0.008
34.68,-0.101,1.074,0.119
34.69,-0.193,0.738,0.008
34.7,-0.433,1.039,-0.203
34.71,-0.242,1.053,0.042
34.72,-0.223,1.147,0.176
34.73,-0.052,0.706,-0.006
34.74,-0.516,0.847,-0.194
34.75,-0.098,1.621,0.041
34.76,-0.127,0.877,0.082
34.77,-0.026,0.851,-0.019
34.78,-0.439,0.395,-0.202
34.79,-0.123,2.0,0.065
34.8,-0.128,0.622,0.14
34.81,-0.085,0.934,-0.004
34.82,-0.494,0.384,-0.181
34.83,-0.128,1.985,0.15
34.84,-0.138,0.895,0.081
34.85,-0.012,0.443,-0.022
34.86,-0.45,0.888,-0.207
34.87,-0.062,1.505,0.127
34.88,-0.068,1.31,0.088
34.89,0.007,0.387,-0.015
34.9,-0.465,0.831,-0.172
34.91,-0.077,1.706,0.163
34.92,-0.205,1.006,0.174
34.93,-0.106,0.73,-0.079
34.94,-0.3,0.391,-0.187
34.95,-0.267,1.695,0.166
34.96,-0.024,0.8,0.105
34.97,-0.153,1.016,-0.078
34.98,-0.34,0.206,-0.113
34.99,-0.234,1.429,0.193
35.0,-0.16,0.848,-0.041
35.01,-0.211,0.882,-0.099
35.02,-0.323,0.611,-0.152
35.03,-0.066,1.001,0.19
35.04,-0.349,1.303,-0.086
35.05,-0.11,0.375,-0.154
35.06,-0.404,1.144,-0.042
35.07,-0.036,0.783,0.199
35.08,-0.372,1.253,0.005
35.09,-0.197,0.529,-0.129
35.1,-0.336,1.059,-0.02
35.11,-0.098,1.074,0.163
35.12,-0.226,0.815,0.006
35.13,-0.386,0.894,-0.18
35.14,-0.243,0.971,0.032
35.15,-0.176,1.241,0.178
35.16,-0.16,0.723,0.038
35.17,-0.443,0.89,-0.209
35.18,-0.128,1.458,0.001
35.19,-0.046,0.882,0.114
35.2,-0.185,0.982,-0.036
35.21,-0.402,0.41,-0.248
35.22,-0.276,1.933,0.065
35.23,-0.113,0.598,0.12
35.24,-0.137,1.046,0.033
35.25,-0.41,0.485,-0.185
35.26,-0.182,1.849,0.037
35.27,-0.153,0.913,0.131
35.28,0.01,0.512,-0.046
35.29,-0.581,0.895,-0.19
35.3,-0.008,1.663,0.123
35.31,-0.14,1.234,0.119
35.32,0.022,0.31,0.009
35.33,-0.491,0.864,-0.2
35.34,-0.022,1.715,0.189
35.35,-0.105,1.006,0.094
35.36,-0.04,0.688,-0.064
35.37,-0.355,0.362,-0.19
35.38,-0.212,1.956,0.122
35.39,0.002,0.723,0.068
35.4,-0.154,0.943,-0.08
35.41,-0.379,0.244,-0.151
35.42,-0.208,1.646,0.142
35.43,-0.184,1.058,0.098
35.44,-0.08,0.666,-0.031
35.45,-0.38,0.758,-0.151
35.46,-0.01,1.184,0.194
35.47,-0.304,1.458,0.026
35.48,-0.003,0.489,-0.076
35.49,-0.448,0.872,-0.122
35.5,-0.043,1.111,0.152
35.51,-0.214,1.183,0.004
35.52,-0.186,0.863,-0.109
35.53,-0.325,0.382,-0.105
35.54,-0.177,1.332,0.16
35.55,-0.146,0.773,0.018
35.56,-0.288,0.998,-0.127
35.57,-0.35,0.708,-0.211
35.58,-0.161,1.404,-0.008
35.59,-0.143,1.166,0.207
35.6,-0.044,0.469,0.018
35.61,-0.524,1.078,-0.218
35.62,-0.132,1.457,0.042
35.63,-0.138,1.078,0.137
35.64,-0.027,0.644,0.019
35.65,-0.548,0.659,-0.17
35.66,-0.124,1.997,0.11
35.67,-0.155,0.967,0.128
35.68,-0.02,0.693,-0.04
35.69,-0.335,0.33,-0.19
35.7,-0.169,2.0,0.106
35.71,0.031,0.675,0.085
35.72,-0.126,0.873,-0.053
35.73,-0.382,0.266,-0.153
35.74,-0.193,1.821,0.187
35.75,-0.09,1.042,0.084
35.76,-0.061,0.562,-0.068
35.77,-0.42,0.783,-0.18
35.78,-0.005,1.276,0.186
35.79,-0.269,1.467,0.042
35.8,0.017,0.489,-0.06
35.81,-0.427,0.784,-0.145
35.82,-0.095,1.207,0.198
35.83,-0.174,1.125,0.037
35.84,-0.171,0.976,-0.085
35.85,-0.402,0.296,-0.061
35.86,-0.235,1.407,0.217
35.87,-0.166,0.813,0.018
35.88,-0.134,1.082,-0.104
35.89,-0.425,0.434,-0.057
35.9,-0.124,1.174,0.186
35.91,-0.337,1.015,-0.054
35.92,-0.181,0.612,-0.11
35.93,-0.415,1.146,-0.027
35.94,-0.027,0.804,0.182
35.95,-0.414,1.333,0.027
35.96,-0.285,0.288,-0.195
35.97,-0.299,1.292,-0.011
35.98,-0.161,0.82,0.155
35.99,-0.229,1.122,0.029
36.0,-0.366,0.663,-0.163
36.01,-0.184,1.199,0.018
36.02,-0.132,1.176,0.181
36.03,-0.07,0.582,0.02
36.04,-0.456,1.066,-0.216
36.05,-0.143,1.232,0.075
36.06,-0.28,1.029,0.113
36.07,-0.112,0.71,-0.002
36.08,-0.495,0.679,-0.152
36.09,-0.156,1.907,0.086
36.1,-0.147,0.627,0.107
36.11,-0.149,0.966,0.05
36.12,-0.379,0.31,-0.171
36.13,-0.222,2.0,0.142
36.14,0.038,0.809,0.113
36.15,-0.209,0.707,0.024
36.16,-0.401,0.538,-0.194
36.17,-0.073,1.847,0.159
36.18,-0.146,1.183,0.075
36.19,-0.015,0.28,-0.036
36.2,-0.508,0.947,-0.191
36.21,-0.057,1.448,0.161
36.22,-0.18,1.268,0.158
36.23,-0.011,0.515,-0.027
36.24,-0.442,0.568,-0.137
36.25,-0.101,1.642,0.17
36.26,-0.156,0.856,0.077
36.27,-0.117,1.067,-0.093
36.28,-0.425,0.122,-0.177
36.29,-0.148,1.691,0.206
36.3,-0.161,0.896,0.04
36.31,-0.142,0.841,-0.095
36.32,-0.426,0.571,-0.128
36.33,-0.088,1.122,0.216
36.34,-0.336,1.222,-0.023
36.35,-0.082,0.494,-0.098
36.36,-0.437,1.005,-0.105
36.37,-0.062,0.831,0.185
36.38,-0.285,1.314,-0.022
36.39,-0.187,0.537,-0.142
36.4,-0.385,0.839,-0.036
36.41,-0.07,1.08,0.16
36.42,-0.168,0.893,-0.003
36.43,-0.295,0.897,-0.155
36.44,-0.21,0.74,-0.076
36.45,-0.155,1.262,0.186
36.46,-0.232,0.757,0.03
36.47,-0.405,0.914,-0.173
36.48,-0.203,1.254,0.079
36.49,-0.302,1.031,0.188
36.5,-0.1,0.773,0.049
36.51,-0.375,0.716,-0.174
36.52,-0.24,1.864,0.066
36.53,-0.001,0.695,0.13
36.54,-0.196,1.019,-0.013
36.55,-0.272,0.365,-0.185
36.56,-0.302,2.0,0.031
36.57,-0.006,0.72,0.143
36.58,-0.175,0.704,-0.013
36.59,-0.37,0.605,-0.186
36.6,-0.086,1.774,0.088
36.61,-0.061,1.081,-0.024
36.62,-0.004,0.298,-0.053
36.63,-0.467,1.04,-0.191
36.64,-0.042,1.521,0.133
36.65,-0.145,1.252,0.084
36.66,0.0,0.462,-0.063
36.67,-0.38,0.657,-0.165
36.68,-0.109,1.766,0.128
36.69,0.026,0.839,0.029
36.7,-0.168,0.94,-0.074
36.71,-0.318,0.165,-0.171
36.72,-0.215,1.878,0.192
36.73,-0.008,0.907,0.091
36.74,-0.169,0.802,-0.06
36.75,-0.387,0.467,-0.169
36.76,-0.156,1.324,0.225
36.77,-0.201,1.284,0.023
36.78,-0.031,0.53,-0.11
36.79,-0.445,0.885,-0.133
36.8,-0.047,0.973,0.139
36.81,-0.31,1.326,0.054
36.82,-0.051,0.6,-0.093
36.83,-0.475,0.634,-0.1
36.84,-0.129,1.146,0.18
36.85,-0.182,0.958,-0.044
36.86,-0.198,0.949,-0.137
36.87,-0.34,0.322,-0.102
36.88,-0.162,1.312,0.151
36.89,-0.244,0.818,-0.002
36.9,-0.353,0.887,-0.114
36.91,-0.296,0.783,-0.042
36.92,-0.096,0.983,0.138
36.93,-0.313,1.162,-0.001
36.94,-0.192,0.418,-0.145
36.95,-0.367,1.437,-0.038
36.96,0.001,0.774,0.162
36.97,-0.35,1.268,0.006
36.98,-0.27,0.443,-0.171
36.99,-0.298,1.423,-0.002
37.0,-0.021,0.958,0.144
37.01,-0.216,0.745,0.013
37.02,-0.411,1.013,-0.176
37.03,-0.256,1.128,0.018
37.04,-0.205,1.175,0.166
37.05,-0.091,0.601,-0.002
37.06,-0.505,0.976,-0.192
37.07,-0.113,1.523,0.046
37.08,-0.063,0.899,0.135
37.09,-0.091,0.844,0.004
37.1,-0.381,0.58,-0.207
37.11,-0.221,2.0,0.092
37.12,-0.02,0.6,0.073
37.13,-0.167,0.96,0.022
37.14,-0.381,0.392,-0.221
37.15,-0.163,2.0,0.123
37.16,-0.128,0.793,0.125
37.17,0.048,0.599,-0.03
37.18,-0.536,0.808,-0.231
37.19,-0.023,1.534,0.066
37.2,-0.083,1.34,0.107
37.21,0.064,0.309,-0.057
37.22,-0.479,0.921,-0.21
37.23,0.005,1.625,0.172
37.24,-0.09,1.038,0.084
37.25,-0.026,0.669,-0.061
37.26,-0.447,0.422,-0.184
37.27,-0.198,1.848,0.209
37.28,-0.152,0.944,0.097
37.29,-0.09,0.976,-0.08
37.3,-0.436,0.136,-0.146
37.31,-0.119,1.668,0.183
37.32,-0.138,0.831,0.057
37.33,-0.075,1.008,-0.123
37.34,-0.498,0.397,-0.164
37.35,-0.046,1.258,0.185
37.36,-0.188,1.29,0.004
37.37,-0.033,0.471,-0.078
37.38,-0.436,0.972,-0.113
37.39,-0.056,0.9,0.21
37.4,-0.313,1.392,0.006
37.41,-0.116,0.449,-0.109
37.42,-0.45,0.741,-0.124
37.43,-0.055,1.119,0.156
37.44,-0.192,0.91,0.043
37.45,-0.219,0.914,-0.139
37.46,-0.403,0.408,-0.038
37.47,-0.131,1.267,0.15
37.48,-0.303,0.823,0.008
37.49,-0.202,0.824,-0.077
37.5,-0.416,0.859,-0.079
37.51,-0.078,1.007,0.158
37.52,-0.34,1.15,0.044
37.53,-0.312,0.435,-0.175
37.54,-0.28,1.334,0.025
37.55,-0.096,0.726,0.105
37.56,-0.304,1.295,0.026
37.57,-0.269,0.354,-0.195
37.58,-0.242,1.41,-0.021
37.59,-0.074,0.921,0.143
37.6,-0.164,0.849,0.001
37.61,-0.477,0.901,-0.204
37.62,-0.133,1.05,-0.021
37.63,-0.256,1.139,0.122
37.64,-0.09,0.673,0.024
37.65,-0.533,0.944,-0.179
37.66,-0.131,1.339,0.088
37.67,-0.217,0.927,0.177
37.68,-0.124,0.878,0.036
37.69,-0.469,0.529,-0.199
37.7,-0.216,2.0,0.078
37.71,-0.155,0.607,0.11
37.72,-0.102,1.023,0.033
37.73,-0.432,0.33,-0.25
37.74,-0.147,1.993,0.07
37.75,-0.18,0.768,0.107
37.76,0.002,0.604,-0.006
37.77,-0.556,0.825,-0.19
37.78,0.006,1.664,0.094
37.79,-0.246,1.154,0.133
37.8,0.073,0.358,-0.007
37.81,-0.617,0.968,-0.142
37.82,0.017,1.678,0.138
37.83,-0.205,1.077,0.101
37.84,0.072,0.605,-0.052
37.85,-0.465,0.412,-0.166
37.86,-0.029,1.92,0.137
37.87,-0.067,0.746,0.12
37.88,-0.069,0.955,-0.105
37.89,-0.359,0.203,-0.202
37.9,-0.143,1.894,0.141
37.91,-0.072,0.966,0.047
37.92,-0.091,0.716,-0.073
37.93,-0.36,0.634,-0.196
37.94,-0.083,1.379,0.206
37.95,-0.153,1.373,0.054
37.96,0.022,0.447,-0.076
37.97,-0.439,0.918,-0.169
37.98,-0.086,1.207,0.172
37.99,-0.244,1.218,0.13
38.0,-0.005,0.755,-0.117
38.01,-0.434,0.541,-0.121
38.02,-0.09,1.391,0.142
38.03,-0.135,0.899,0.011
38.04,-0.141,1.022,-0.112
38.05,-0.369,0.303,-0.165
38.06,-0.145,1.337,0.218
38.07,-0.182,0.922,-0.008
38.08,-0.436,0.874,-0.093
38.09,-0.257,0.639,-0.033
38.1,-0.245,1.03,0.177
38.11,-0.22,1.157,-0.025
38.12,-0.24,0.456,-0.109
38.13,-0.253,1.453,-0.071
38.14,0.004,0.777,0.167
38.15,-0.367,1.318,-0.001
38.16,-0.284,0.371,-0.192
38.17,-0.221,1.533,-0.004
38.18,-0.203,0.831,0.147
38.19,-0.153,0.839,-0.018
38.2,-0.461,0.875,-0.168
38.21,-0.159,1.197,-0.01
38.22,-0.137,1.151,0.156
38.23,-0.083,0.527,-0.004
38.24,-0.469,1.026,-0.192
38.25,-0.054,1.486,0.033
38.26,-0.154,1.053,0.131
38.27,-0.057,0.682,-0.018
38.28,-0.426,0.606,-0.166
38.29,-0.182,2.0,-0.022
38.3,-0.051,0.625,0.135
38.31,-0.194,0.974,0.014
38.32,-0.435,0.339,-0.165
38.33,-0.19,2.0,0.102
38.34,-0.086,0.738,0.154
38.35,-0.076,0.632,0.025
38.36,-0.429,0.701,-0.143
38.37,-0.048,1.673,0.13
38.38,-0.148,1.283,0.118
38.39,0.025,0.308,-0.026
38.4,-0.488,0.977,-0.146
38.41,-0.043,1.608,0.198
38.42,-0.097,1.238,0.105
38.43,-0.008,0.581,-0.057
38.44,-0.345,0.496,-0.171
38.45,-0.166,1.742,0.134
38.46,0.0,0.787,0.062
38.47,-0.125,1.044,-0.093
38.48,-0.368,0.158,-0.146
38.49,-0.222,1.656,0.151
38.5,-0.2,0.913,0.086
38.51,-0.024,0.889,-0.052
38.52,-0.444,0.549,-0.188
38.53,-0.058,1.172,0.145
38.54,-0.277,1.375,-0.005
38.55,0.023,0.419,-0.108
38.56,-0.476,0.979,-0.17
38.57,-0.012,0.963,0.147
38.58,-0.293,1.247,-0.055
38.59,-0.135,0.647,-0.075
38.6,-0.491,0.569,-0.067
38.61,-0.092,1.217,0.192
38.62,-0.267,0.842,-0.001
38.63,-0.306,0.933,-0.098
38.64,-0.369,0.376,-0.044
38.65,-0.114,1.264,0.158
38.66,-0.243,0.859,0.016
38.67,-0.3,0.723,-0.146
38.68,-0.235,1.126,-0.071
38.69,-0.014,0.887,0.152
38.7,-0.329,1.198,0.05
38.71,-0.242,0.43,-0.203
38.72,-0.345,1.485,-0.006
38.73,0.02,0.733,0.12
38.74,-0.299,1.234,0.038
38.75,-0.305,0.476,-0.232
38.76,-0.242,1.312,-0.008
38.77,-0.08,0.98,0.136
38.78,-0.104,0.708,0.017
38.79,-0.435,0.987,-0.185
38.8,-0.114,1.246,0.061
38.81,-0.205,1.141,0.169
38.82,-0.096,0.571,0.044
38.83,-0.446,0.903,-0.233
38.84,-0.156,1.52,0.035
38.85,-0.138,0.764,0.092
38.86,-0.141,0.972,-0.01
38.87,-0.331,0.463,-0.207
38.88,-0.145,2.0,0.09
38.89,-0.075,0.685,0.185
38.9,-0.178,0.898,0.023
38.91,-0.427,0.305,-0.147
38.92,-0.157,2.0,0.122
38.93,-0.083,0.83,0.177
38.94,-0.13,0.628,-0.023
38.95,-0.444,0.681,-0.174
38.96,-0.082,1.791,0.138
38.97,-0.057,1.253,0.096
38.98,0.018,0.266,-0.038
38.99,-0.427,0.953,-0.178
39.0,-0.115,1.399,0.14
39.01,-0.095,1.211,0.039
39.02,-0.033,0.698,-0.057
39.03,-0.355,0.521,-0.16
39.04,-0.149,1.713,0.164
39.05,0.044,0.918,0.011
39.06,-0.171,0.927,-0.08
39.07,-0.329,0.177,-0.172
39.08,-0.242,1.694,0.224
39.09,-0.159,0.859,0.119
39.1,-0.103,0.893,-0.05
39.11,-0.406,0.552,-0.18
39.12,-0.161,1.138,0.216
39.13,-0.228,1.294,-0.016
39.14,-0.033,0.461,-0.111
39.15,-0.463,0.969,-0.109
39.16,-0.081,0.923,0.162
39.17,-0.281,1.359,-0.006
39.18,-0.09,0.598,-0.071
39.19,-0.426,0.606,-0.154
39.2,-0.101,1.216,0.207
39.21,-0.164,0.865,-0.018
39.22,-0.304,0.996,-0.137
39.23,-0.362,0.315,-0.061
39.24,-0.164,1.331,0.177
39.25,-0.221,0.863,-0.051
39.26,-0.248,0.779,-0.112
39.27,-0.312,0.874,-0.081
39.28,-0.064,0.953,0.167
39.29,-0.301,1.222,-0.002
39.3,-0.213,0.375,-0.196
39.31,-0.269,1.396,-0.067
39.32,-0.072,0.708,0.112
39.33,-0.344,1.239,0.019
39.34,-0.286,0.439,-0.155
39.35,-0.305,1.327,-0.006
39.36,-0.099,0.965,0.221
39.37,-0.161,0.753,0.011
39.38,-0.377,0.991,-0.23
39.39,-0.194,1.089,0.024
39.4,-0.14,1.199,0.171
39.41,-0.183,0.639,0.008
39.42,-0.386,0.966,-0.217
39.43,-0.235,1.479,0.015
39.44,-0.056,0.83,0.193
39.45,-0.162,0.938,-0.027
39.46,-0.367,0.453,-0.205
39.47,-0.277,2.0,0.082
39.48,-0.0,0.685,0.15
39.49,-0.224,0.952,0.007
39.5,-0.363,0.462,-0.156
39.51,-0.294,1.911,0.118
39.52,0.011,0.88,0.114
39.53,-0.142,0.527,-0.037
39.54,-0.419,0.922,-0.195
39.55,-0.114,1.632,0.119
39.56,-0.146,1.228,0.157
39.57,0.031,0.348,-0.02
39.58,-0.409,0.984,-0.193
39.59,-0.085,1.706,0.097
39.6,-0.07,0.999,0.062
39.61,-0.066,0.683,-0.081
39.62,-0.327,0.349,-0.187
39.63,-0.176,1.977,0.145
39.64,-0.021,0.774,0.131
39.65,-0.144,0.897,-0.074
39.66,-0.367,0.242,-0.157
39.67,-0.126,1.853,0.204
39.68,-0.114,1.042,0.035
39.69,-0.09,0.92,-0.098
39.7,-0.389,0.472,-0.208
39.71,-0.116,1.273,0.231
39.72,-0.206,1.292,0.046
39.73,-0.022,0.498,-0.099
39.74,-0.472,0.988,-0.137
39.75,-0.022,0.93,0.174
39.76,-0.312,1.338,-0.022
39.77,-0.09,0.583,-0.092
39.78,-0.429,0.686,-0.082
39.79,-0.115,1.128,0.165
39.8,-0.162,0.882,-0.019
39.81,-0.29,0.971,-0.101
39.82,-0.356,0.366,-0.024
39.83,-0.19,1.266,0.194
39.84,-0.206,0.835,-0.005
39.85,-0.326,0.835,-0.149
39.86,-0.204,1.016,-0.08
39.87,-0.067,0.97,0.094
39.88,-0.242,1.136,-0.048
39.89,-0.3,0.451,-0.178
39.9,-0.287,1.558,0.013
39.91,-0.052,0.719,0.133
39.92,-0.312,1.189,0.012
39.93,-0.336,0.455,-0.186
39.94,-0.242,1.483,-0.013
39.95,-0.075,0.912,0.135
39.96,-0.167,0.749,0.0
39.97,-0.464,0.929,-0.208
39.98,-0.125,1.29,0.026
39.99,-0.189,1.131,0.166
40.0,0.029,0.549,0.047
40.01,-0.581,0.974,-0.173
40.02,-0.108,1.603,0.08
40.03,-0.213,0.873,0.173
40.04,-0.072,0.84,0.031
40.05,-0.454,0.492,-0.144
40.06,-0.18,2.0,0.071
40.07,-0.062,0.631,0.168
40.08,-0.163,0.912,-0.012
40.09,-0.423,0.348,-0.185
40.1,-0.085,2.0,0.135
40.11,-0.037,0.894,0.096
40.12,-0.058,0.479,-0.046
40.13,-0.442,0.836,-0.233
40.14,-0.057,1.649,0.139
40.15,-0.183,1.253,0.093
40.16,0.049,0.318,-0.01
40.17,-0.458,0.931,-0.205
40.18,-0.129,1.496,0.167
40.19,-0.19,1.121,0.189
40.2,-0.077,0.756,-0.033
40.21,-0.445,0.403,-0.112
40.22,-0.204,1.756,0.24
40.23,-0.128,0.854,0.123
40.24,-0.162,1.053,-0.066
40.25,-0.415,0.14,-0.113
40.26,-0.134,1.707,0.197
40.27,-0.176,1.074,0.077
40.28,-0.078,0.69,-0.09
40.29,-0.403,0.689,-0.167
40.3,-0.081,1.139,0.233
40.31,-0.276,1.428,0.086
40.32,-0.069,0.396,-0.09
40.33,-0.422,0.95,-0.132
40.34,-0.023,1.0,0.143
40.35,-0.268,1.22,-0.003
40.36,-0.202,0.744,-0.118
40.37,-0.404,0.391,-0.076
40.38,-0.148,1.301,0.144
40.39,-0.199,0.847,0.03
40.4,-0.335,0.927,-0.129
40.41,-0.406,0.413,-0.023
40.42,-0.187,1.248,0.182
40.43,-0.277,0.972,0.009
40.44,-0.281,0.611,-0.102
40.45,-0.277,1.121,-0.03
40.46,-0.026,0.852,0.134
40.47,-0.305,1.289,-0.031
40.48,-0.22,0.336,-0.177
40.49,-0.263,1.761,0.027
40.5,-0.061,0.658,0.135
40.51,-0.28,1.165,0.041
40.52,-0.302,0.444,-0.195
40.53,-0.345,1.804,0.084
40.54,-0.077,0.887,0.203
40.55,-0.16,0.645,0.064
40.56,-0.491,0.873,-0.2
40.57,-0.115,1.534,0.074
40.58,-0.166,1.161,0.134
40.59,0.0,0.421,0.014
40.6,-0.517,1.027,-0.134
40.61,-0.162,1.682,0.099
40.62,-0.199,0.95,0.198
40.63,-0.091,0.708,-0.009
40.64,-0.476,0.499,-0.108
40.65,-0.15,2.0,0.086
40.66,-0.04,0.71,0.109
40.67,-0.106,0.882,-0.032
40.68,-0.38,0.252,-0.143
40.69,-0.168,1.963,0.068
40.7,-0.095,0.892,0.111
40.71,-0.074,0.623,-0.018
40.72,-0.503,0.697,-0.159
40.73,-0.077,1.447,0.192
40.74,-0.202,1.365,0.108
40.75,0.029,0.318,-0.012
40.76,-0.534,0.931,-0.171
40.77,-0.03,1.329,0.183
40.78,-0.312,1.125,0.063
40.79,0.011,0.768,-0.094
40.8,-0.433,0.406,-0.18
40.81,-0.122,1.557,0.2
40.82,-0.163,0.833,0.078
40.83,-0.178,1.084,-0.076
40.84,-0.46,0.163,-0.153
40.85,-0.151,1.424,0.195
40.86,-0.215,1.046,0.014
40.87,-0.165,0.693,-0.126
40.88,-0.445,0.697,-0.163
40.89,-0.04,1.014,0.186
40.9,-0.333,1.292,0.022
40.91,-0.107,0.425,-0.132
40.92,-0.58,0.98,-0.009
40.93,-0.021,0.892,0.184
40.94,-0.361,1.305,0.022
40.95,-0.135,0.62,-0.079
40.96,-0.414,0.744,-0.045
40.97,-0.104,1.188,0.153
40.98,-0.189,0.814,0.008
40.99,-0.344,0.963,-0.152
41.0,-0.237,0.704,0.0
41.01,-0.126,1.216,0.151
41.02,-0.193,0.841,-0.02
41.03,-0.359,0.788,-0.171
41.04,-0.232,1.207,-0.092
41.05,-0.093,0.801,0.092
41.06,-0.224,1.271,-0.041
41.07,-0.259,0.302,-0.205
41.08,-0.235,1.73,-0.021
41.09,-0.021,0.749,0.119
41.1,-0.234,1.047,0.036
41.11,-0.366,0.586,-0.197
41.12,-0.248,1.467,0.005
41.13,-0.193,0.996,0.138
41.14,-0.052,0.624,-0.007
41.15,-0.48,1.009,-0.201
41.16,-0.131,1.297,0.059
41.17,-0.261,1.072,0.14
41.18,0.027,0.585,0.028
41.19,-0.464,0.855,-0.204
41.2,-0.114,1.822,0.046
41.21,-0.156,0.754,0.161
41.22,-0.065,0.917,-0.014
41.23,-0.465,0.343,-0.139
41.24,-0.097,2.0,0.066
41.25,-0.12,0.639,0.111
41.26,-0.143,0.83,-0.012
41.27,-0.391,0.443,-0.175
41.28,-0.057,1.921,0.096
41.29,-0.031,0.915,0.08
41.3,-0.113,0.577,-0.063
41.31,-0.411,0.68,-0.163
41.32,-0.048,1.559,0.217
41.33,-0.203,1.326,0.132
41.34,0.013,0.37,-0.058
41.35,-0.495,0.943,-0.183
41.36,-0.0,1.435,0.176
41.37,-0.155,1.291,-0.037
41.38,-0.037,0.639,-0.081
41.39,-0.354,0.459,-0.189
41.4,-0.174,1.609,0.188
41.41,-0.156,0.849,0.149
41.42,-0.142,1.111,-0.1
41.43,-0.46,0.151,-0.091
41.44,-0.18,1.494,0.221
41.45,-0.212,1.01,0.116
41.46,-0.132,0.816,-0.089
41.47,-0.451,0.664,-0.131
41.48,-0.077,1.01,0.221
41.49,-0.282,1.33,0.036
41.5,-0.083,0.406,-0.1
41.51,-0.509,1.052,-0.042
41.52,-0.096,0.806,0.171
41.53,-0.274,1.307,-0.026
41.54,-0.224,0.57,-0.129
41.55,-0.388,0.714,-0.043
41.56,-0.146,1.11,0.145
41.57,-0.182,0.821,0.008
41.58,-0.34,0.919,-0.123
41.59,-0.232,0.618,-0.057
41.6,-0.183,1.187,0.168
41.61,-0.237,0.865,0.001
41.62,-0.363,0.741,-0.17
41.63,-0.208,1.239,-0.064
41.64,-0.045,0.835,0.144
41.65,-0.196,1.186,-0.023
41.66,-0.357,0.383,-0.237
41.67,-0.228,1.731,0.014
41.68,-0.06,0.673,0.121
41.69,-0.227,1.074,0.017
41.7,-0.363,0.549,-0.265
41.71,-0.215,1.61,0.027
41.72,-0.078,0.977,0.129
41.73,-0.037,0.558,0.013
41.74,-0.579,1.013,-0.168
41.75,-0.148,1.376,0.087
41.76,-0.224,1.071,0.142
41.77,0.019,0.569,-0.001
41.78,-0.502,0.929,-0.205
41.79,-0.081,1.777,0.053
41.8,-0.119,0.869,0.154
41.81,-0.054,0.769,-0.012
41.82,-0.356,0.411,-0.149
41.83,-0.196,2.0,0.083
41.84,-0.036,0.661,0.116
41.85,-0.143,0.891,-0.027
41.86,-0.349,0.355,-0.227
41.87,-0.097,1.969,0.147
41.88,-0.103,1.001,0.032
41.89,0.028,0.386,-0.079
41.9,-0.487,0.871,-0.184
41.91,-0.036,1.464,0.139
41.92,-0.149,1.379,0.081
41.93,-0.006,0.371,-0.052
41.94,-0.452,0.821,-0.212
41.95,-0.082,1.507,0.182
41.96,-0.164,1.087,0.096
41.97,-0.081,0.906,-0.078
41.98,-0.365,0.232,-0.14
41.99,-0.155,1.676,0.15
42.0,-0.108,0.861,0.091
42.01,-0.134,1.014,-0.121
42.02,-0.44,0.291,-0.201
42.03,-0.085,1.321,0.171
42.04,-0.246,1.13,-0.009
42.05,-0.14,0.616,-0.105
42.06,-0.487,0.867,-0.089
42.07,-0.011,0.887,0.257
42.08,-0.358,1.434,0.04
42.09,-0.149,0.309,-0.084
42.1,-0.309,1.335,-0.056
42.11,-0.052,0.724,0.106
42.12,-0.245,1.258,-0.015
42.13,-0.3,0.502,-0.23
42.14,-0.193,1.142,-0.057
42.15,-0.105,1.005,0.101
42.16,-0.108,0.768,0.009
42.17,-0.408,1.02,-0.181
42.18,-0.21,0.967,-0.034
42.19,-0.241,1.158,0.166
42.2,-0.083,0.763,-0.001
42.21,-0.419,0.831,-0.196
42.22,-0.122,1.516,0.018
42.23,-0.084,0.863,0.147
42.24,-0.203,0.926,0.023
42.25,-0.367,0.462,-0.194
42.26,-0.327,1.924,0.104
42.27,-0.082,0.626,0.171
42.28,-0.272,1.024,0.018
42.29,-0.407,0.461,-0.211
42.3,-0.2,1.894,0.067
42.31,-0.089,0.877,0.092
42.32,-0.011,0.52,-0.004
42.33,-0.442,0.956,-0.185
42.34,-0.063,1.543,0.141
42.35,-0.098,1.251,0.146
42.36,-0.015,0.373,-0.022
42.37,-0.508,0.862,-0.199
42.38,0.029,1.868,0.08
42.39,-0.147,0.929,0.082
42.4,0.031,0.717,-0.06
42.41,-0.457,0.36,-0.202
42.42,-0.166,1.933,0.153
42.43,-0.042,0.674,0.087
42.44,-0.103,0.922,-0.027
42.45,-0.464,0.27,-0.184
42.46,-0.158,1.704,0.207
42.47,-0.174,1.058,0.074
42.48,-0.058,0.541,-0.088
42.49,-0.453,0.798,-0.165
42.5,-0.053,1.222,0.216
42.51,-0.302,1.403,0.111
42.52,0.037,0.5,-0.043
42.53,-0.562,0.801,-0.146
42.54,0.024,1.261,0.164
42.55,-0.272,1.143,0.075
42.56,-0.121,0.884,-0.122
42.57,-0.476,0.307,-0.116
42.58,-0.171,1.495,0.179
42.59,-0.118,0.901,0.048
42.6,-0.193,1.017,-0.094
42.61,-0.438,0.304,-0.126
42.62,-0.195,1.295,0.199
42.63,-0.234,1.028,0.006
42.64,-0.243,0.662,-0.119
42.65,-0.455,0.812,-0.089
42.66,-0.14,0.894,0.245
42.67,-0.295,1.383,0.074
42.68,-0.192,0.336,-0.106
42.69,-0.512,1.019,-0.035
42.7,-0.118,0.865,0.217
42.71,-0.278,1.21,0.081
42.72,-0.29,0.652,-0.099
42.73,-0.364,0.753,-0.041
42.74,-0.171,1.211,0.145
42.75,-0.111,0.739,0.031
42.76,-0.401,0.984,-0.148
42.77,-0.294,0.766,-0.013
42.78,-0.185,1.126,0.141
42.79,-0.235,0.96,-0.013
42.8,-0.302,0.623,-0.167
42.81,-0.248,1.53,-0.044
42.82,-0.024,0.748,0.137
42.83,-0.229,1.198,-0.006
42.84,-0.277,0.357,-0.184
42.85,-0.295,1.768,-0.003
42.86,-0.0,0.729,0.109
42.87,-0.157,0.995,-0.002
42.88,-0.391,0.648,-0.214
42.89,-0.266,1.4,0.052
42.9,-0.164,0.845,0.12
42.91,-0.08,0.615,-0.006
42.92,-0.452,0.897,-0.19
42.93,-0.123,1.561,0.086
42.94,-0.16,1.206,0.169
42.95,-0.001,0.342,0.019
42.96,-0.513,0.928,-0.162
42.97,-0.04,1.778,0.073
42.98,-0.181,0.981,0.117
42.99,-0.028,0.685,-0.031
43.0,-0.433,0.448,-0.154
43.01,-0.113,2.0,0.135
43.02,-0.064,0.665,0.141
43.03,-0.1,0.87,-0.038
43.04,-0.403,0.248,-0.188
43.05,-0.167,1.911,0.13
43.06,-0.131,0.908,0.126
43.07,-0.025,0.547,-0.057
43.08,-0.43,0.808,-0.165
43.09,-0.051,1.493,0.163
43.1,-0.246,1.396,0.114
43.11,0.067,0.375,-0.059
43.12,-0.55,0.884,-0.164
43.13,0.083,1.405,0.147
43.14,-0.245,1.203,0.095
43.15,-0.06,0.723,-0.078
43.16,-0.487,0.363,-0.127
43.17,-0.137,1.679,0.231
43.18,-0.07,0.842,0.022
43.19,-0.214,0.997,-0.125
43.2,-0.402,0.18,-0.14
43.21,-0.18,1.551,0.173
43.22,-0.147,1.077,0.013
43.23,-0.087,0.669,-0.114
43.24,-0.401,0.714,-0.214
43.25,-0.058,1.006,0.179
43.26,-0.28,1.342,0.067
43.27,-0.122,0.414,-0.115
43.28,-0.553,0.919,-0.092
43.29,-0.109,0.941,0.241
43.3,-0.237,1.307,0.03
43.31,-0.277,0.616,-0.081
43.32,-0.427,0.537,-0.012
43.33,-0.177,1.254,0.174
43.34,-0.171,0.785,0.013
43.35,-0.336,0.985,-0.122
43.36,-0.303,0.578,-0.02
43.37,-0.194,1.217,0.187
43.38,-0.265,0.873,0.057
43.39,-0.278,0.76,-0.16
43.4,-0.329,1.137,-0.1
43.41,-0.003,0.826,0.115
43.42,-0.275,1.29,-0.03
43.43,-0.165,0.364,-0.219
43.44,-0.275,1.615,-0.122
43.45,0.035,0.746,0.081
43.46,-0.139,1.101,-0.039
43.47,-0.298,0.606,-0.259
43.48,-0.178,1.327,-0.09
43.49,-0.081,1.077,0.103
43.5,-0.107,0.621,0.046
43.51,-0.406,1.034,-0.185
43.52,-0.243,1.227,0.029
43.53,-0.244,1.077,0.157
43.54,-0.111,0.726,0.068
43.55,-0.498,0.848,-0.141
43.56,-0.244,1.696,0.082
43.57,-0.172,0.744,0.17
43.58,-0.116,1.032,0.04
43.59,-0.419,0.423,-0.15
43.6,-0.319,2.0,0.112
43.61,-0.166,0.654,0.198
43.62,-0.112,0.937,0.045
43.63,-0.351,0.543,-0.195
43.64,-0.165,1.821,0.072
43.65,-0.15,1.012,0.118
43.66,0.042,0.427,-0.006
43.67,-0.497,0.978,-0.187
43.68,-0.031,1.609,0.073
43.69,-0.166,1.159,0.122
43.7,0.112,0.264,-0.063
43.71,-0.419,1.007,-0.301
43.72,-0.007,1.539,0.071
43.73,-0.157,1.085,0.041
43.74,0.03,0.668,-0.068
43.75,-0.425,0.513,-0.161
43.76,-0.106,1.792,0.164
43.77,-0.129,0.785,0.051
43.78,-0.134,0.949,-0.098
43.79,-0.416,0.171,-0.13
43.8,-0.109,1.867,0.202
43.81,-0.157,0.89,0.071
43.82,-0.078,0.702,-0.036
43.83,-0.474,0.593,-0.214
43.84,-0.021,1.449,0.197
43.85,-0.279,1.377,0.071
43.86,-0.04,0.362,-0.025
43.87,-0.494,0.939,-0.148
43.88,-0.027,1.216,0.212
43.89,-0.271,1.247,0.104
43.9,-0.085,0.728,-0.064
43.91,-0.369,0.551,-0.214
43.92,-0.053,1.835,0.057
43.93,-0.203,1.031,0.1
43.94,0.097,0.385,-0.017
43.95,-0.461,1.093,-0.243
43.96,0.011,1.589,0.067
43.97,-0.19,1.128,0.139
43.98,0.099,0.469,-0.007
43.99,-0.466,0.763,-0.187
44.0,-0.073,1.884,0.049
44.01,-0.099,0.77,0.096
44.02,0.013,0.884,-0.05
44.03,-0.352,0.307,-0.22
44.04,-0.071,2.0,0.111
44.05,-0.052,0.739,0.047
44.06,-0.137,0.702,-0.019
44.07,-0.346,0.537,-0.231
44.08,-0.07,1.858,0.147
44.09,-0.131,1.09,0.059
44.1,-0.022,0.318,-0.011
44.11,-0.525,0.985,-0.229
44.12,-0.04,1.495,0.182
44.13,-0.208,1.23,0.064
44.14,0.017,0.455,-0.034
44.15,-0.456,0.812,-0.199
44.16,-0.054,1.607,0.133
44.17,-0.146,0.957,0.101
44.18,-0.051,0.806,-0.051
44.19,-0.465,0.257,-0.101
44.2,-0.21,1.862,0.228
44.21,-0.119,0.754,0.145
44.22,-0.167,0.916,-0.064
44.23,-0.474,0.351,-0.168
44.24,-0.142,1.659,0.185
44.25,-0.238,1.204,0.181
44.26,-0.042,0.423,-0.055
44.27,-0.526,0.939,-0.149
44.28,0.013,1.243,0.185
44.29,-0.335,1.323,0.127
44.3,0.015,0.456,-0.055
44.31,-0.498,0.764,-0.179
44.32,-0.092,1.373,0.148
44.33,-0.208,0.95,0.152
44.34,-0.147,0.931,-0.097
44.35,-0.497,0.236,-0.125
44.36,-0.137,1.705,0.177
44.37,-0.152,0.842,0.145
44.38,-0.156,0.932,-0.106
44.39,-0.373,0.249,-0.171
44.4,-0.17,1.386,0.14
44.41,-0.171,0.978,0.001
44.42,-0.263,0.649,-0.119
44.43,-0.452,0.682,-0.219
44.44,-0.062,0.991,0.177
44.45,-0.182,1.314,-0.003
44.46,-0.156,0.275,-0.137
44.47,-0.522,0.984,-0.152
44.48,-0.06,0.907,0.186
44.49,-0.21,1.374,0.039
44.5,-0.233,0.481,-0.086
44.51,-0.396,0.65,-0.073
44.52,-0.215,1.271,0.233
44.53,-0.196,0.834,0.073
44.54,-0.384,0.93,-0.076
44.55,-0.435,0.335,-0.064
44.56,-0.236,1.338,0.214
44.57,-0.161,0.914,0.077
44.58,-0.376,0.723,-0.071
44.59,-0.444,0.817,-0.073
44.6,-0.074,0.945,0.201
44.61,-0.205,1.356,0.014
44.62,-0.198,0.273,-0.095
44.63,-0.383,1.392,-0.06
44.64,-0.025,0.809,0.141
44.65,-0.237,1.244,0.084
44.66,-0.328,0.45,-0.181
44.67,-0.334,0.977,-0.014
44.68,-0.086,1.093,0.114
44.69,-0.181,0.804,-0.006
44.7,-0.35,0.968,-0.168
44.71,-0.23,0.854,-0.084
44.72,-0.123,1.184,0.179
44.73,-0.095,0.812,0.002
44.74,-0.376,0.84,-0.154
44.75,-0.214,1.37,-0.112
44.76,-0.063,0.926,0.155
44.77,-0.205,1.098,0.036
44.78,-0.308,0.483,-0.156
44.79,-0.432,1.517,-0.032
44.8,-0.108,0.685,0.155
44.81,-0.365,1.258,0.042
44.82,-0.241,0.405,-0.238
44.83,-0.251,1.405,-0.035
44.84,0.025,1.057,0.138
44.85,-0.125,0.683,0.012
44.86,-0.351,1.081,-0.168
44.87,-0.318,1.095,0.016
44.88,-0.092,1.215,0.183
44.89,-0.183,0.628,0.053
44.9,-0.411,0.996,-0.217
44.91,-0.261,1.422,0.008
44.92,-0.042,0.826,0.133
44.93,-0.159,0.984,-0.015
44.94,-0.243,0.492,-0.236
44.95,-0.277,1.967,-0.023
44.96,0.074,0.732,0.135
44.97,-0.115,1.003,0.029
44.98,-0.317,0.457,-0.282
44.99,-0.227,1.707,0.016
45.0,-0.131,0.884,0.073
45.01,-0.043,0.572,-0.008
45.02,-0.434,0.996,-0.229
45.03,-0.18,1.39,0.008
45.04,-0.177,1.061,0.137
45.05,0.071,0.531,0.043
45.06,-0.497,0.966,-0.197
45.07,-0.07,1.618,-0.008
45.08,-0.171,0.964,0.114
45.09,-0.042,0.799,0.047
45.1,-0.378,0.473,-0.162
45.11,-0.235,2.0,0.083
45.12,-0.085,0.587,0.142
45.13,-0.223,0.951,0.041
45.14,-0.327,0.454,-0.171
45.15,-0.302,1.916,0.082
45.16,-0.102,0.841,0.147
45.17,-0.072,0.588,0.039
45.18,-0.431,0.908,-0.166
45.19,-0.023,1.85,0.09
45.2,-0.181,1.069,0.08
45.21,0.087,0.328,-0.026
45.22,-0.544,0.973,-0.189
45.23,0.049,1.637,0.127
45.24,-0.158,1.154,0.025
45.25,0.076,0.414,-0.043
45.26,-0.476,0.746,-0.186
45.27,-0.099,1.732,0.124
45.28,-0.064,0.787,-0.005
45.29,-0.063,0.898,-0.017
45.3,-0.436,0.223,-0.171
45.31,-0.168,1.973,0.232
45.32,-0.125,0.765,0.118
45.33,-0.143,0.698,-0.049
45.34,-0.413,0.534,-0.204
45.35,-0.151,1.493,0.17
45.36,-0.259,1.158,0.135
45.37,-0.026,0.42,-0.051
45.38,-0.54,0.964,-0.121
45.39,-0.063,1.208,0.224
45.4,-0.226,1.339,0.075
45.41,-0.074,0.519,-0.053
45.42,-0.545,0.663,-0.129
45.43,-0.077,1.569,0.156
45.44,-0.141,1.0,0.104
45.45,-0.131,0.961,-0.107
45.46,-0.441,0.206,-0.185
45.47,-0.137,1.735,0.2
45.48,-0.092,0.895,0.075
45.49,-0.168,0.905,-0.084
45.5,-0.365,0.377,-0.22
45.51,-0.139,1.319,0.223
45.52,-0.103,1.253,-0.007
45.53,-0.07,0.502,-0.147
45.54,-0.448,0.893,-0.169
45.55,-0.055,1.015,0.163
45.56,-0.262,1.437,0.04
45.57,-0.047,0.502,-0.098
45.58,-0.494,0.736,-0.166
45.59,-0.065,1.173,0.119
45.6,-0.122,1.079,-0.0
45.61,-0.246,0.875,-0.137
45.62,-0.445,0.271,-0.096
45.63,-0.212,1.403,0.202
45.64,-0.161,0.781,0.059
45.65,-0.313,0.892,-0.129
45.66,-0.43,0.522,-0.1
45.67,-0.11,1.114,0.218
45.68,-0.229,1.103,0.01
45.69,-0.232,0.447,-0.114
45.7,-0.346,1.266,-0.098
45.71,-0.021,0.824,0.161
45.72,-0.322,1.304,0.087
45.73,-0.234,0.415,-0.121
45.74,-0.399,1.135,-0.025
45.75,-0.109,0.919,0.149
45.76,-0.2,0.981,0.064
45.77,-0.328,0.798,-0.193
45.78,-0.315,0.733,-0.089
45.79,-0.145,1.262,0.179
45.8,-0.132,0.765,0.05
45.81,-0.289,0.913,-0.165
45.82,-0.251,1.118,-0.095
45.83,-0.113,1.081,0.191
45.84,-0.167,0.989,0.025
45.85,-0.281,0.56,-0.186
45.86,-0.258,1.559,-0.104
45.87,0.026,0.72,0.087
45.88,-0.255,1.25,0.016
45.89,-0.223,0.405,-0.246
45.9,-0.279,1.625,-0.044
45.91,-0.021,0.854,0.083
45.92,-0.175,0.886,0.022
45.93,-0.263,0.866,-0.19
45.94,-0.377,1.259,0.031
45.95,-0.152,1.152,0.119
45.96,-0.099,0.621,0.039
45.97,-0.433,1.03,-0.151
45.98,-0.303,1.295,0.049
45.99,-0.215,0.941,0.131
46.0,0.003,0.506,0.052
46.01,-0.396,0.883,-0.19
46.02,-0.154,1.747,0.097
46.03,-0.091,0.859,0.189
46.04,-0.125,0.783,-0.004
46.05,-0.357,0.354,-0.115
46.06,-0.213,2.0,0.129
46.07,-0.094,0.604,0.188
46.08,-0.069,0.887,-0.013
46.09,-0.356,0.475,-0.245
46.1,-0.029,1.935,0.088
46.11,-0.103,0.989,0.086
46.12,0.079,0.352,-0.094
46.13,-0.322,1.022,-0.269
46.14,-0.024,1.478,0.067
46.15,-0.149,1.193,0.08
46.16,0.039,0.399,-0.065
46.17,-0.436,0.852,-0.233
46.18,0.003,1.74,0.088
46.19,-0.131,0.943,0.048
46.2,-0.113,0.707,-0.059
46.21,-0.399,0.354,-0.166
46.22,-0.272,1.975,0.196
46.23,-0.107,0.753,0.142
46.24,-0.202,0.813,-0.029
46.25,-0.367,0.364,-0.151
46.26,-0.178,1.645,0.219
46.27,-0.168,1.051,0.074
46.28,-0.085,0.515,-0.032
46.29,-0.437,0.896,-0.137
46.3,-0.098,1.268,0.241
46.31,-0.265,1.424,0.159
46.32,-0.075,0.39,-0.065
46.33,-0.539,0.804,-0.124
46.34,-0.016,1.445,0.139
46.35,-0.155,0.989,0.059
46.36,-0.123,0.9,-0.11
46.37,-0.379,0.263,-0.155
46.38,-0.162,1.61,0.12
46.39,-0.178,0.816,0.075
46.4,-0.123,0.986,-0.098
46.41,-0.398,0.236,-0.211
46.42,-0.097,1.349,0.201
46.43,-0.192,1.101,-0.023
46.44,-0.126,0.637,-0.17
46.45,-0.474,0.808,-0.125
46.46,-0.132,0.917,0.214
46.47,-0.284,1.438,0.099
46.48,-0.103,0.378,-0.105
46.49,-0.566,0.909,-0.084
46.5,-0.078,1.018,0.178
46.51,-0.29,1.114,0.061
46.52,-0.281,0.769,-0.102
46.53,-0.484,0.434,-0.028
46.54,-0.201,1.353,0.19
46.55,-0.189,0.719,0.129
46.56,-0.359,1.018,-0.08
46.57,-0.441,0.414,-0.071
46.58,-0.082,1.203,0.155
46.59,-0.203,1.083,0.002
46.6,-0.227,0.483,-0.131
46.61,-0.372,1.061,-0.072
46.62,-0.021,0.851,0.175
46.63,-0.321,1.353,0.052
46.64,-0.175,0.35,-0.132
46.65,-0.46,1.206,-0.023
46.66,-0.038,0.887,0.14
46.67,-0.262,1.102,0.088
46.68,-0.285,0.712,-0.159
46.69,-0.369,0.775,-0.031
46.7,-0.123,1.198,0.123
46.71,-0.128,0.767,0.05
46.72,-0.338,0.969,-0.172
46.73,-0.285,0.931,-0.012
46.74,-0.144,1.117,0.166
46.75,-0.181,0.909,0.03
46.76,-0.303,0.651,-0.169
46.77,-0.298,1.463,-0.084
46.78,0.041,0.776,0.086
46.79,-0.258,1.249,0.012
46.8,-0.345,0.477,-0.223
46.81,-0.334,1.875,0.058
46.82,-0.108,0.621,0.113
46.83,-0.198,1.053,0.029
46.84,-0.362,0.429,-0.138
46.85,-0.277,1.797,0.073
46.86,-0.104,0.891,0.167
46.87,-0.039,0.64,0.045
46.88,-0.512,0.984,-0.188
46.89,-0.211,1.354,0.118
46.9,-0.287,1.115,0.239
46.91,-0.075,0.518,0.073
46.92,-0.507,1.011,-0.168
46.93,-0.164,1.606,0.04
46.94,-0.165,0.908,0.092
46.95,-0.042,0.761,0.036
46.96,-0.383,0.524,-0.165
46.97,-0.23,2.0,0.105
46.98,-0.083,0.65,0.143
46.99,-0.114,0.959,0.021
47.0,-0.41,0.355,-0.21
47.01,-0.114,2.0,0.139
47.02,-0.254,0.74,0.077
47.03,0.036,0.621,-0.008
47.04,-0.407,0.86,-0.199
47.05,-0.042,1.542,0.114
47.06,-0.162,1.23,0.109
47.07,0.047,0.292,0.014
47.08,-0.48,0.969,-0.188
47.09,-0.001,1.721,0.07
47.1,-0.17,1.02,0.13
47.11,0.002,0.646,-0.046
47.12,-0.441,0.528,-0.178
47.13,-0.073,2.0,0.126
47.14,-0.057,0.652,0.084
47.15,-0.056,0.88,-0.028
47.16,-0.371,0.272,-0.218
47.17,-0.064,2.0,0.089
47.18,-0.107,0.902,0.139
47.19,-0.021,0.552,-0.036
47.2,-0.489,0.739,-0.225
47.21,0.043,1.718,0.137
47.22,-0.269,1.208,0.084
47.23,0.13,0.255,-0.038
47.24,-0.489,1.033,-0.265
47.25,0.018,1.5,0.106
47.26,-0.192,1.095,0.042
47.27,0.052,0.617,-0.057
47.28,-0.401,0.529,-0.172
47.29,-0.1,1.826,0.169
47.3,-0.179,0.713,0.126
47.31,-0.09,1.007,-0.104
47.32,-0.394,0.236,-0.213
47.33,-0.073,1.883,0.138
47.34,-0.088,0.916,-0.038
47.35,-0.07,0.585,-0.065
47.36,-0.414,0.715,-0.239
47.37,-0.011,1.347,0.137
47.38,-0.243,1.302,0.073
47.39,0.109,0.429,-0.092
47.4,-0.52,0.964,-0.24
47.41,0.012,1.294,0.176
47.42,-0.249,1.252,0.071
47.43,-0.008,0.704,-0.106
47.44,-0.512,0.482,-0.187
47.45,-0.114,1.552,0.174
47.46,-0.161,0.886,0.062
47.47,-0.135,1.037,-0.054
47.48,-0.441,0.169,-0.15
47.49,-0.196,1.477,0.186
47.5,-0.19,0.92,0.072
47.51,-0.137,0.899,-0.108
47.52,-0.479,0.609,-0.147
47.53,-0.034,1.068,0.171
47.54,-0.219,1.393,0.027
47.55,0.019,0.425,-0.091
47.56,-0.588,1.027,-0.119
47.57,0.03,0.89,0.217
47.58,-0.407,1.28,0.105
47.59,-0.102,0.607,-0.114
47.6,-0.445,1.007,-0.06
47.61,-0.024,0.935,0.087
47.62,-0.258,1.026,0.034
47.63,-0.274,0.753,-0.158
47.64,-0.33,0.611,0.012
47.65,-0.135,1.269,0.102
47.66,-0.21,0.8,0.046
47.67,-0.279,0.865,-0.142
47.68,-0.249,0.943,-0.11
47.69,-0.101,1.073,0.119
47.7,-0.262,1.044,0.014
47.71,-0.282,0.536,-0.221
47.72,-0.327,1.314,-0.046
47.73,-0.059,0.701,0.132
47.74,-0.237,1.377,-0.043
47.75,-0.213,0.284,-0.185
47.76,-0.231,1.565,-0.085
47.77,0.062,0.861,0.077
47.78,-0.23,0.92,0.014
47.79,-0.368,0.806,-0.202
47.8,-0.267,1.298,-0.008
47.81,-0.16,1.206,0.162
47.82,-0.119,0.58,0.048
47.83,-0.466,1.017,-0.184
47.84,-0.375,1.292,0.117
47.85,-0.198,0.987,0.185
47.86,-0.173,0.841,0.023
47.87,-0.277,0.647,-0.136
47.88,-0.382,1.942,0.065
47.89,-0.048,0.667,0.165
47.9,-0.093,1.086,0.034
47.91,-0.376,0.333,-0.202
47.92,-0.221,2.0,0.073
47.93,-0.115,0.749,0.09
47.94,-0.071,0.728,0.004
47.95,-0.429,0.722,-0.178
47.96,-0.126,1.656,0.09
47.97,-0.196,1.065,0.122
47.98,-0.002,0.397,-0.005
47.99,-0.492,1.032,-0.172
48.0,-0.079,1.616,0.093
48.01,-0.167,1.082,0.098
48.02,-0.04,0.546,0.021
48.03,-0.409,0.679,-0.118
48.04,-0.167,2.0,0.115
48.05,0.001,0.72,0.159
48.06,-0.218,0.877,0.027
48.07,-0.324,0.279,-0.171
48.08,-0.222,2.0,0.119
48.09,-0.044,0.722,0.11
48.1,-0.117,0.688,-0.029
48.11,-0.389,0.619,-0.194
48.12,-0.095,1.653,0.137
48.13,-0.206,1.288,0.111
48.14,0.062,0.302,-0.06
48.15,-0.546,0.996,-0.141
48.16,0.064,1.498,0.137
48.17,-0.244,1.199,0.052
48.18,0.008,0.603,-0.036
48.19,-0.54,0.618,-0.131
48.2,-0.072,1.726,0.187
48.21,-0.161,0.896,0.152
48.22,-0.077,0.908,-0.079
48.23,-0.378,0.198,-0.21
48.24,-0.076,1.717,0.175
48.25,-0.148,0.883,0.07
48.26,-0.083,0.882,-0.074
48.27,-0.43,0.448,-0.236
48.28,0.001,1.312,0.182
48.29,-0.243,1.256,0.055
48.3,0.013,0.482,-0.184
48.31,-0.551,0.945,-0.146
48.32,0.0,1.037,0.173
48.33,-0.372,1.41,0.094
48.34,0.014,0.566,-0.12
48.35,-0.476,0.681,-0.146
48.36,-0.035,1.254,0.189
48.37,-0.266,0.898,0.17
48.38,-0.33,0.969,-0.157
48.39,-0.42,0.221,-0.083
48.4,-0.185,1.381,0.155
48.41,-0.084,0.757,0.009
48.42,-0.292,0.948,-0.113
48.43,-0.418,0.624,-0.051
48.44,-0.067,1.177,0.153
48.45,-0.285,1.058,0.026
48.46,-0.221,0.566,-0.138
48.47,-0.349,1.257,-0.086
