t,ax,ay,az
0.0,-0.104,0.369,-0.065
0.01,-0.584,0.908,-0.099
0.02,0.01,0.932,0.178
0.03,-0.358,1.264,0.06
0.04,-0.248,0.589,-0.094
0.05,-0.539,0.52,-0.033
0.06,-0.134,1.169,0.193
0.07,-0.181,0.896,0.037
0.08,-0.329,0.889,-0.121
0.09,-0.372,0.266,-0.055
0.1,-0.125,1.284,0.147
0.11,-0.134,0.904,0.004
0.12,-0.291,0.749,-0.148
0.13,-0.377,0.892,-0.068
0.14,0.018,0.905,0.133
0.15,-0.25,1.269,0.044
0.16,-0.185,0.339,-0.149
0.17,-0.402,1.478,-0.014
0.18,0.009,0.687,0.152
0.19,-0.196,1.244,-0.0
0.2,-0.227,0.547,-0.209
0.21,-0.253,1.389,-0.049
0.22,-0.108,0.941,0.131
0.23,-0.031,0.768,-0.003
0.24,-0.415,1.029,-0.254
0.25,-0.14,1.191,-0.006
0.26,-0.188,1.131,0.136
0.27,-0.039,0.593,0.047
0.28,-0.469,0.96,-0.192
0.29,-0.187,1.573,0.038
0.3,-0.159,0.802,0.129
0.31,-0.123,0.935,-0.006
0.32,-0.392,0.432,-0.219
0.33,-0.233,2.0,0.058
0.34,-0.127,0.617,0.121
0.35,-0.186,1.008,0.026
0.36,-0.365,0.451,-0.139
0.37,-0.273,1.709,0.086
0.38,-0.174,0.996,0.182
0.39,-0.075,0.526,-0.033
0.4,-0.424,0.926,-0.175
0.41,-0.105,1.37,0.046
0.42,-0.24,1.152,0.17
0.43,0.006,0.469,0.009
0.44,-0.508,0.956,-0.231
0.45,-0.054,1.665,0.095
0.46,-0.193,0.871,0.061
0.47,-0.093,0.813,-0.004
0.48,-0.325,0.411,-0.188
0.49,-0.184,1.864,0.086
0.5,0.066,0.761,0.155
0.51,-0.269,0.859,-0.018
0.52,-0.219,0.377,-0.229
0.53,-0.134,1.812,0.041
0.54,-0.031,0.89,0.135
0.55,-0.117,0.589,-0.09
0.56,-0.487,0.936,-0.235
0.57,-0.025,1.535,0.11
0.58,-0.258,1.22,0.15
0.59,0.033,0.377,-0.006
0.6,-0.397,1.008,-0.221
0.61,-0.064,1.503,0.009
0.62,0.003,1.011,0.078
0.63,-0.079,0.731,-0.054
0.64,-0.399,0.411,-0.181
0.65,-0.111,1.756,0.183
0.66,-0.072,0.786,0.103
0.67,-0.121,1.093,-0.07
0.68,-0.365,0.257,-0.182
0.69,-0.095,1.964,0.188
0.7,-0.061,0.758,0.104
0.71,-0.128,0.744,-0.037
0.72,-0.513,0.606,-0.176
0.73,-0.147,1.354,0.143
0.74,-0.297,1.295,0.055
0.75,0.024,0.416,-0.073
0.76,-0.495,0.927,-0.132
0.77,-0.135,1.292,0.19
0.78,-0.288,1.207,0.086
0.79,-0.074,0.625,-0.062
0.8,-0.431,0.683,-0.168
0.81,-0.073,1.581,0.138
0.82,-0.155,0.975,0.064
0.83,-0.081,0.919,-0.062
0.84,-0.424,0.219,-0.187
0.85,-0.174,1.672,0.167
0.86,-0.21,0.823,0.031
0.87,-0.149,0.901,-0.131
0.88,-0.415,0.383,-0.196
0.89,-0.105,1.275,0.184
0.9,-0.333,1.211,0.032
0.91,-0.074,0.364,-0.127
0.92,-0.526,0.924,-0.138
0.93,-0.008,1.011,0.209
0.94,-0.411,1.432,0.046
0.95,-0.067,0.33,-0.097
0.96,-0.558,0.7,-0.087
0.97,-0.01,1.261,0.124
0.98,-0.246,0.957,0.008
0.99,-0.226,0.919,-0.089
1.0,-0.428,0.217,-0.049
1.01,-0.172,1.403,0.237
1.02,-0.193,0.845,0.042
1.03,-0.233,0.794,-0.108
1.04,-0.459,0.562,-0.101
1.05,-0.014,1.006,0.124
1.06,-0.25,1.226,-0.025
1.07,-0.067,0.365,-0.174
1.08,-0.497,1.169,-0.035
1.09,0.046,0.694,0.155
1.1,-0.352,1.355,0.095
1.11,-0.187,0.428,-0.166
1.12,-0.496,0.906,-0.042
1.13,-0.074,0.934,0.089
1.14,-0.173,0.995,-0.008
1.15,-0.267,0.716,-0.202
1.16,-0.216,0.751,-0.025
1.17,-0.172,1.186,0.16
1.18,-0.1,0.69,0.029
1.19,-0.335,0.952,-0.14
1.2,-0.233,0.991,-0.049
1.21,-0.15,0.935,0.135
1.22,-0.115,1.097,-0.041
1.23,-0.24,0.5,-0.224
1.24,-0.309,1.303,-0.083
1.25,-0.043,0.639,0.081
1.26,-0.281,1.345,0.03
1.27,-0.232,0.377,-0.139
1.28,-0.246,1.787,-0.048
1.29,-0.075,0.832,0.153
1.3,-0.111,0.765,-0.003
1.31,-0.447,0.903,-0.182
1.32,-0.093,1.401,-0.067
1.33,-0.303,1.102,0.167
1.34,0.007,0.576,0.082
1.35,-0.604,0.995,-0.176
1.36,-0.109,1.451,0.067
1.37,-0.302,0.919,0.189
1.38,-0.165,0.906,0.047
1.39,-0.354,0.503,-0.113
1.4,-0.296,1.914,0.115
1.41,-0.068,0.658,0.19
1.42,-0.183,1.032,0.021
1.43,-0.362,0.386,-0.19
1.44,-0.264,1.863,0.077
1.45,-0.073,0.807,0.118
1.46,-0.183,0.92,-0.01
1.47,-0.345,0.569,-0.231
1.48,-0.17,1.625,0.127
1.49,-0.106,1.151,0.185
1.5,-0.121,0.359,-0.002
1.51,-0.439,1.045,-0.186
1.52,-0.159,1.354,0.141
1.53,-0.075,1.226,0.11
1.54,-0.035,0.517,0.024
1.55,-0.393,0.83,-0.198
1.56,-0.07,1.631,0.149
1.57,-0.127,1.207,0.167
1.58,0.037,0.382,-0.067
1.59,-0.516,1.063,-0.227
1.6,-0.008,1.461,0.13
1.61,-0.141,1.072,0.081
1.62,-0.063,0.701,-0.043
1.63,-0.397,0.624,-0.175
1.64,-0.119,1.804,0.081
1.65,-0.027,0.781,0.057
1.66,-0.091,0.998,-0.069
1.67,-0.271,0.262,-0.149
1.68,-0.21,1.93,0.124
1.69,-0.019,0.793,0.075
1.7,-0.046,0.836,-0.116
1.71,-0.44,0.655,-0.178
1.72,-0.046,1.516,0.172
1.73,-0.207,1.32,0.027
1.74,0.103,0.407,-0.036
1.75,-0.535,1.011,-0.197
1.76,-0.039,1.349,0.217
1.77,-0.35,1.236,0.077
1.78,-0.025,0.718,-0.064
1.79,-0.457,0.463,-0.162
1.8,-0.171,1.675,0.2
1.81,-0.163,0.883,0.079
1.82,-0.168,0.982,-0.024
1.83,-0.391,0.233,-0.151
1.84,-0.291,1.659,0.237
1.85,-0.189,0.922,0.067
1.86,-0.153,0.778,-0.125
1.87,-0.376,0.52,-0.207
1.88,-0.113,1.241,0.18
1.89,-0.299,1.304,0.028
1.9,-0.059,0.322,-0.106
1.91,-0.537,0.941,-0.138
1.92,-0.109,1.006,0.273
1.93,-0.257,1.356,0.011
1.94,-0.18,0.52,-0.091
1.95,-0.437,0.528,-0.098
1.96,-0.133,1.301,0.235
1.97,-0.148,0.919,0.034
1.98,-0.372,0.876,-0.145
1.99,-0.319,0.25,-0.094
2.0,-0.14,1.403,0.18
2.01,-0.212,0.909,0.015
2.02,-0.215,0.684,-0.098
2.03,-0.435,0.731,-0.106
2.04,0.053,1.007,0.161
2.05,-0.314,1.225,0.011
2.06,-0.162,0.427,-0.168
2.07,-0.512,1.075,-0.042
2.08,0.05,0.766,0.151
2.09,-0.267,1.309,0.035
2.1,-0.253,0.44,-0.163
2.11,-0.425,0.92,-0.032
2.12,-0.043,1.059,0.162
2.13,-0.132,0.835,0.031
2.14,-0.375,0.894,-0.18
2.15,-0.304,0.849,0.015
2.16,-0.199,1.217,0.194
2.17,-0.177,0.78,0.048
2.18,-0.402,1.024,-0.229
2.19,-0.162,1.335,-0.017
2.2,-0.209,0.982,0.124
2.21,-0.123,0.865,0.027
2.22,-0.408,0.615,-0.168
2.23,-0.334,1.844,0.018
2.24,-0.099,0.633,0.171
2.25,-0.233,1.107,0.026
2.26,-0.352,0.338,-0.157
2.27,-0.303,1.905,0.052
2.28,-0.125,0.732,0.178
2.29,-0.151,0.797,-0.001
2.3,-0.467,0.718,-0.18
2.31,-0.163,1.579,0.092
2.32,-0.232,1.069,0.135
2.33,0.03,0.515,0.031
2.34,-0.57,1.047,-0.185
2.35,-0.025,1.373,0.046
2.36,-0.216,1.097,0.115
2.37,0.024,0.635,-0.047
2.38,-0.432,0.623,-0.196
2.39,-0.014,1.756,0.05
2.4,-0.008,0.739,0.15
2.41,-0.115,0.99,-0.039
2.42,-0.33,0.271,-0.22
2.43,-0.08,1.981,0.084
2.44,-0.066,0.775,0.125
2.45,-0.171,0.689,-0.057
2.46,-0.356,0.711,-0.211
2.47,-0.089,1.566,0.112
2.48,-0.165,1.134,0.166
2.49,-0.045,0.355,-0.006
2.5,-0.523,1.067,-0.126
2.51,-0.053,1.378,0.16
2.52,-0.166,1.245,0.094
2.53,-0.024,0.649,-0.007
2.54,-0.437,0.685,-0.132
2.55,-0.129,1.786,0.192
2.56,-0.031,0.739,0.117
2.57,-0.136,1.034,-0.053
2.58,-0.361,0.289,-0.175
2.59,-0.207,1.898,0.154
2.6,-0.045,0.822,0.059
2.61,-0.135,0.815,-0.071
2.62,-0.309,0.605,-0.196
2.63,-0.193,1.515,0.148
2.64,-0.195,1.209,0.01
2.65,-0.051,0.492,-0.125
2.66,-0.407,0.863,-0.174
2.67,-0.056,1.279,0.169
2.68,-0.213,1.379,0.012
2.69,-0.087,0.534,-0.1
2.7,-0.427,0.656,-0.152
2.71,-0.203,1.51,0.193
2.72,-0.257,0.931,0.071
2.73,-0.262,0.915,-0.063
2.74,-0.385,0.185,-0.111
2.75,-0.182,1.574,0.148
2.76,-0.253,0.859,0.03
2.77,-0.359,0.899,-0.043
2.78,-0.406,0.426,-0.098
2.79,-0.059,1.076,0.251
2.8,-0.284,1.322,0.021
2.81,-0.199,0.334,-0.188
2.82,-0.496,0.96,-0.07
2.83,0.048,0.854,0.171
2.84,-0.382,1.354,0.058
2.85,-0.11,0.393,-0.107
2.86,-0.509,0.937,-0.017
2.87,-0.009,0.953,0.193
2.88,-0.215,0.924,0.041
2.89,-0.315,0.902,-0.185
2.9,-0.316,0.624,-0.055
2.91,-0.143,1.211,0.143
2.92,-0.129,0.807,0.079
2.93,-0.387,0.918,-0.168
2.94,-0.268,1.028,-0.056
2.95,-0.069,0.907,0.101
2.96,-0.235,1.147,0.0
2.97,-0.162,0.522,-0.202
2.98,-0.294,1.832,0.058
2.99,-0.064,0.687,0.142
3.0,-0.234,1.005,0.033
3.01,-0.292,0.383,-0.193
3.02,-0.336,2.0,0.059
3.03,-0.097,0.667,0.102
3.04,-0.164,0.923,0.043
3.05,-0.385,0.605,-0.217
3.06,-0.167,1.59,0.152
3.07,-0.184,1.145,0.097
3.08,-0.033,0.412,-0.013
3.09,-0.392,0.993,-0.189
3.1,-0.047,1.408,0.088
3.11,-0.128,1.157,0.142
3.12,-0.07,0.575,-0.029
3.13,-0.462,0.74,-0.142
3.14,-0.07,1.751,0.106
3.15,-0.122,0.708,0.139
3.16,-0.064,0.953,-0.069
3.17,-0.353,0.327,-0.219
3.18,-0.197,1.855,0.079
3.19,0.013,0.764,0.098
3.2,-0.207,0.837,-0.02
3.21,-0.355,0.565,-0.16
3.22,-0.2,1.672,0.189
3.23,-0.058,1.177,0.117
3.24,-0.032,0.518,-0.037
3.25,-0.43,1.034,-0.155
3.26,-0.011,1.434,0.176
3.27,-0.129,1.32,0.033
3.28,0.071,0.518,-0.095
3.29,-0.385,0.748,-0.188
3.3,-0.106,1.651,0.093
3.31,-0.124,0.891,0.01
3.32,-0.093,0.982,-0.117
3.33,-0.272,0.161,-0.19
3.34,-0.205,1.776,0.178
3.35,-0.154,0.785,0.032
3.36,-0.158,0.883,-0.175
3.37,-0.411,0.406,-0.171
3.38,-0.046,1.39,0.201
3.39,-0.321,1.312,-0.002
3.4,0.02,0.396,-0.129
3.41,-0.604,0.901,-0.139
3.42,0.089,0.984,0.253
3.43,-0.369,1.317,0.016
3.44,-0.182,0.475,-0.113
3.45,-0.542,0.694,-0.089
3.46,-0.049,1.135,0.215
3.47,-0.23,1.03,0.037
3.48,-0.283,0.805,-0.104
3.49,-0.361,0.33,-0.08
3.5,-0.053,1.271,0.104
3.51,-0.132,0.786,0.007
3.52,-0.197,0.921,-0.22
3.53,-0.302,0.722,-0.136
3.54,0.045,0.955,0.08
3.55,-0.206,1.221,-0.046
3.56,-0.185,0.407,-0.195
3.57,-0.303,1.498,-0.065
3.58,-0.088,0.603,0.2
3.59,-0.218,1.353,0.043
3.6,-0.322,0.369,-0.227
3.61,-0.196,1.645,-0.07
3.62,-0.166,0.866,0.077
3.63,-0.063,0.769,0.058
3.64,-0.465,0.942,-0.168
3.65,-0.153,1.324,-0.026
3.66,-0.219,1.146,0.14
3.67,-0.023,0.608,0.061
3.68,-0.565,0.975,-0.174
3.69,-0.125,1.546,0.007
3.7,-0.273,0.868,0.129
3.71,-0.06,0.952,0.019
3.72,-0.342,0.47,-0.206
3.73,-0.248,1.907,0.083
3.74,-0.045,0.647,0.154
3.75,-0.181,1.046,0.028
3.76,-0.397,0.346,-0.17
3.77,-0.293,1.799,0.118
3.78,-0.021,0.711,0.18
3.79,-0.126,0.87,-0.04
3.8,-0.326,0.586,-0.247
3.81,-0.035,1.654,0.07
3.82,-0.148,1.091,0.16
3.83,0.02,0.435,-0.031
3.84,-0.487,1.055,-0.187
3.85,0.016,1.394,0.138
3.86,-0.163,1.233,0.095
3.87,0.064,0.542,-0.034
3.88,-0.406,0.812,-0.178
3.89,-0.03,1.68,0.072
3.9,-0.1,0.764,0.088
3.91,-0.113,0.994,0.003
3.92,-0.442,0.286,-0.138
3.93,-0.221,1.953,0.264
3.94,-0.075,0.671,0.175
3.95,-0.127,0.901,0.028
3.96,-0.453,0.501,-0.121
3.97,-0.089,1.62,0.205
3.98,-0.155,1.152,0.07
3.99,0.035,0.481,-0.078
4.0,-0.521,0.955,-0.173
4.01,-0.06,1.332,0.185
4.02,-0.382,1.308,0.084
4.03,-0.013,0.569,-0.012
4.04,-0.518,0.703,-0.17
4.05,-0.043,1.572,0.164
4.06,-0.202,0.979,0.045
4.07,-0.152,0.939,-0.067
4.08,-0.324,0.219,-0.179
4.09,-0.242,1.732,0.198
4.1,-0.203,0.891,0.093
4.11,-0.192,0.84,-0.109
4.12,-0.396,0.322,-0.201
4.13,-0.111,1.402,0.214
4.14,-0.222,1.121,-0.003
4.15,-0.102,0.412,-0.128
4.16,-0.531,0.897,-0.131
4.17,-0.088,0.96,0.251
4.18,-0.354,1.396,0.026
4.19,-0.146,0.35,-0.063
4.2,-0.53,0.696,-0.113
4.21,-0.065,1.164,0.169
4.22,-0.198,1.052,-0.035
4.23,-0.271,0.816,-0.108
4.24,-0.41,0.248,-0.096
4.25,-0.133,1.353,0.183
4.26,-0.192,0.762,0.012
4.27,-0.357,0.925,-0.087
4.28,-0.415,0.377,-0.088
4.29,-0.084,1.127,0.218
4.3,-0.228,1.253,-0.031
4.31,-0.224,0.404,-0.147
4.32,-0.399,1.094,-0.089
4.33,0.002,0.741,0.181
4.34,-0.324,1.323,0.016
4.35,-0.057,0.378,-0.154
4.36,-0.355,1.411,-0.075
4.37,0.005,0.872,0.144
4.38,-0.135,0.906,-0.007
4.39,-0.375,0.902,-0.235
4.4,-0.246,0.652,-0.075
4.41,-0.158,1.207,0.085
4.42,-0.07,0.76,0.014
4.43,-0.413,0.891,-0.17
4.44,-0.157,1.107,-0.013
4.45,-0.163,0.975,0.121
4.46,-0.121,1.04,-0.022
4.47,-0.26,0.533,-0.244
4.48,-0.183,1.887,-0.021
4.49,-0.054,0.583,0.103
4.5,-0.183,1.209,0.046
4.51,-0.299,0.44,-0.239
4.52,-0.242,1.808,-0.006
4.53,-0.152,0.802,0.096
4.54,-0.133,0.846,0.038
4.55,-0.401,0.717,-0.209
4.56,-0.169,1.369,0.111
4.57,-0.22,1.215,0.194
4.58,0.013,0.468,-0.02
4.59,-0.502,0.995,-0.183
4.6,0.025,1.426,0.096
4.61,-0.206,1.137,0.185
4.62,0.098,0.59,0.004
4.63,-0.492,0.855,-0.206
4.64,-0.009,1.668,0.102
4.65,-0.096,0.839,0.14
4.66,-0.092,0.917,-0.071
4.67,-0.348,0.331,-0.155
4.68,-0.168,1.966,0.176
4.69,-0.011,0.633,0.134
4.7,-0.09,0.921,-0.02
4.71,-0.412,0.469,-0.145
4.72,-0.131,1.714,0.158
4.73,-0.066,1.008,0.069
4.74,-0.022,0.594,-0.075
4.75,-0.488,0.986,-0.18
4.76,-0.018,1.412,0.188
4.77,-0.246,1.327,0.073
4.78,0.083,0.506,-0.045
4.79,-0.484,0.803,-0.185
4.8,-0.076,1.482,0.15
4.81,-0.205,1.014,0.041
4.82,-0.109,0.942,-0.111
4.83,-0.335,0.146,-0.134
4.84,-0.292,1.671,0.171
4.85,-0.119,0.833,0.088
4.86,-0.271,0.879,-0.117
4.87,-0.424,0.331,-0.079
4.88,-0.227,1.322,0.251
4.89,-0.313,1.132,-0.003
4.9,-0.086,0.442,-0.111
4.91,-0.554,0.871,-0.098
4.92,0.027,0.868,0.209
4.93,-0.38,1.393,-0.018
4.94,-0.174,0.366,-0.136
4.95,-0.471,0.807,-0.058
4.96,-0.022,0.981,0.143
4.97,-0.261,1.06,0.011
4.98,-0.289,0.771,-0.15
4.99,-0.401,0.459,0.005
5.0,-0.154,1.267,0.175
5.01,-0.19,0.776,0.031
5.02,-0.305,0.905,-0.112
5.03,-0.298,1.016,-0.005
5.04,-0.06,1.021,0.205
5.05,-0.213,0.995,0.009
5.06,-0.332,0.668,-0.189
5.07,-0.315,1.637,0.008
5.08,-0.029,0.677,0.18
5.09,-0.395,1.201,0.052
5.1,-0.262,0.417,-0.169
5.11,-0.33,1.913,0.004
5.12,-0.028,0.829,0.156
5.13,-0.114,0.795,0.033
5.14,-0.422,0.807,-0.247
5.15,-0.157,1.367,0.083
5.16,-0.271,1.195,0.168
5.17,0.002,0.482,0.07
5.18,-0.506,0.98,-0.161
5.19,-0.128,1.438,0.157
5.2,-0.281,1.047,0.114
5.21,-0.057,0.724,-0.003
5.22,-0.392,0.531,-0.232
5.23,-0.089,1.842,0.114
5.24,-0.122,0.662,0.195
5.25,-0.151,0.978,-0.025
5.26,-0.37,0.295,-0.204
5.27,-0.081,1.962,0.088
5.28,-0.133,0.72,0.162
5.29,-0.075,0.813,-0.039
5.3,-0.481,0.681,-0.195
5.31,0.063,1.589,0.123
5.32,-0.19,1.217,0.12
5.33,0.079,0.322,-0.06
5.34,-0.502,1.057,-0.241
5.35,0.042,1.425,0.076
5.36,-0.162,1.131,0.072
5.37,-0.008,0.781,-0.048
5.38,-0.504,0.526,-0.103
5.39,-0.147,1.489,0.168
5.4,-0.176,1.059,0.038
5.41,-0.172,0.908,-0.079
5.42,-0.339,0.272,-0.106
5.43,-0.344,1.662,0.236
5.44,-0.195,0.855,0.072
5.45,-0.206,0.883,-0.066
5.46,-0.351,0.298,-0.122
5.47,-0.145,1.278,0.176
5.48,-0.225,1.062,-0.082
5.49,-0.181,0.525,-0.111
5.5,-0.366,0.809,-0.087
5.51,-0.006,0.934,0.199
5.52,-0.422,1.414,0.026
5.53,-0.173,0.334,-0.119
5.54,-0.498,0.91,-0.013
5.55,0.025,0.904,0.154
5.56,-0.291,1.085,0.015
5.57,-0.312,0.747,-0.149
5.58,-0.226,0.863,0.027
5.59,-0.121,1.236,0.152
5.6,-0.105,0.674,0.05
5.61,-0.455,1.036,-0.182
5.62,-0.097,1.131,-0.009
5.63,-0.225,0.961,0.17
5.64,-0.154,0.983,0.039
5.65,-0.364,0.589,-0.216
5.66,-0.223,1.89,0.019
5.67,-0.072,0.647,0.133
5.68,-0.193,1.171,0.025
5.69,-0.302,0.414,-0.234
5.7,-0.285,1.88,0.079
5.71,-0.02,0.815,0.114
5.72,-0.224,0.716,0.033
5.73,-0.437,0.735,-0.174
5.74,-0.167,1.507,0.13
5.75,-0.207,1.16,0.131
5.76,0.036,0.434,-0.028
5.77,-0.44,1.042,-0.226
5.78,-0.075,1.454,0.117
5.79,-0.186,1.081,0.122
5.8,-0.056,0.655,-0.008
5.81,-0.427,0.61,-0.141
5.82,-0.07,1.771,0.102
5.83,-0.016,0.716,0.169
5.84,-0.152,0.967,-0.032
5.85,-0.38,0.342,-0.185
5.86,-0.161,1.939,0.103
5.87,-0.067,0.716,0.182
5.88,-0.103,0.834,0.005
5.89,-0.502,0.673,-0.218
5.9,-0.023,1.534,0.158
5.91,-0.096,1.317,0.084
5.92,0.052,0.399,-0.051
5.93,-0.5,1.053,-0.16
5.94,-0.097,1.455,0.104
5.95,-0.134,1.16,0.048
5.96,-0.005,0.701,-0.079
5.97,-0.349,0.583,-0.178
5.98,-0.207,1.694,0.125
5.99,-0.158,0.824,0.082
6.0,-0.147,1.019,-0.064
6.01,-0.39,0.169,-0.132
6.02,-0.208,1.702,0.199
6.03,-0.228,0.905,0.064
6.04,-0.101,0.873,-0.13
6.05,-0.32,0.492,-0.242
6.06,-0.073,1.263,0.196
6.07,-0.286,1.34,0.019
6.08,-0.099,0.358,-0.156
6.09,-0.434,0.923,-0.179
6.1,-0.068,1.046,0.233
6.11,-0.33,1.298,0.033
6.12,-0.153,0.513,-0.095
6.13,-0.41,0.614,-0.136
6.14,-0.067,1.223,0.135
6.15,-0.161,0.846,-0.027
6.16,-0.361,0.931,-0.163
6.17,-0.413,0.277,-0.036
6.18,-0.135,1.31,0.153
6.19,-0.096,0.734,0.076
6.2,-0.379,0.924,-0.179
6.21,-0.263,0.988,-0.017
6.22,-0.102,1.076,0.142
6.23,-0.228,0.987,-0.001
6.24,-0.234,0.639,-0.177
6.25,-0.283,1.638,-0.085
6.26,0.011,0.654,0.12
6.27,-0.302,1.289,0.025
6.28,-0.269,0.396,-0.2
6.29,-0.297,1.883,-0.009
6.3,-0.077,0.787,0.14
6.31,-0.155,0.821,0.031
6.32,-0.432,0.782,-0.206
6.33,-0.19,1.472,0.011
6.34,-0.22,1.085,0.142
6.35,0.007,0.581,0.014
6.36,-0.485,0.978,-0.182
6.37,-0.09,1.439,0.043
6.38,-0.219,1.021,0.108
6.39,-0.048,0.694,-0.003
6.4,-0.349,0.603,-0.176
6.41,-0.164,1.779,0.09
6.42,-0.05,0.747,0.198
6.43,-0.203,0.961,-0.013
6.44,-0.382,0.271,-0.194
6.45,-0.107,2.0,0.099
6.46,-0.134,0.733,0.128
6.47,-0.109,0.779,-0.03
6.48,-0.404,0.698,-0.217
6.49,-0.049,1.618,0.149
6.5,-0.186,1.202,0.128
6.51,0.007,0.326,-0.053
6.52,-0.462,1.001,-0.196
6.53,-0.027,1.401,0.115
6.54,-0.057,1.154,0.081
6.55,0.027,0.696,-0.05
6.56,-0.412,0.609,-0.138
6.57,-0.141,1.807,0.175
6.58,0.042,0.764,0.07
6.59,-0.163,0.98,-0.083
6.6,-0.259,0.302,-0.19
6.61,-0.27,1.84,0.098
6.62,-0.081,0.865,0.052
6.63,-0.068,0.854,-0.071
6.64,-0.384,0.51,-0.137
6.65,-0.136,1.431,0.205
6.66,-0.352,1.282,0.046
6.67,-0.008,0.489,-0.104
6.68,-0.56,0.901,-0.142
6.69,-0.074,1.242,0.246
6.7,-0.383,1.298,0.107
6.71,-0.101,0.623,-0.093
6.72,-0.481,0.589,-0.093
6.73,-0.168,1.4,0.222
6.74,-0.303,0.95,0.044
6.75,-0.27,0.924,-0.059
6.76,-0.431,0.171,-0.05
6.77,-0.158,1.358,0.222
6.78,-0.196,0.802,0.026
6.79,-0.344,0.804,-0.119
6.8,-0.465,0.645,-0.05
6.81,-0.076,0.902,0.166
6.82,-0.286,1.334,0.007
6.83,-0.135,0.281,-0.134
6.84,-0.516,1.223,-0.057
6.85,0.058,0.687,0.152
6.86,-0.255,1.313,-0.035
6.87,-0.219,0.43,-0.239
6.88,-0.186,1.239,-0.086
6.89,-0.121,0.989,0.09
6.9,-0.123,0.79,0.015
6.91,-0.369,0.996,-0.213
6.92,-0.15,1.174,-0.055
6.93,-0.221,1.126,0.136
6.94,-0.059,0.7,0.043
6.95,-0.406,0.977,-0.204
6.96,-0.215,1.587,0.005
6.97,-0.174,0.798,0.138
6.98,-0.094,1.04,0.015
6.99,-0.495,0.594,-0.164
7.0,-0.15,1.833,0.139
7.01,-0.168,0.678,0.139
7.02,-0.102,0.968,0.003
7.03,-0.343,0.292,-0.212
7.04,-0.094,1.927,0.077
7.05,-0.092,0.766,0.151
7.06,-0.102,0.71,-0.065
7.07,-0.37,0.661,-0.213
7.08,-0.045,1.556,0.14
7.09,-0.211,1.16,0.163
7.1,-0.015,0.378,-0.032
7.11,-0.519,1.058,-0.148
7.12,-0.043,1.444,0.194
7.13,-0.141,1.138,0.093
7.14,-0.043,0.632,-0.017
7.15,-0.406,0.639,-0.164
7.16,-0.169,1.775,0.119
7.17,-0.082,0.778,0.065
7.18,-0.134,1.059,-0.069
7.19,-0.305,0.212,-0.14
7.2,-0.18,1.854,0.162
7.21,-0.107,0.847,0.045
7.22,-0.115,0.81,-0.108
7.23,-0.386,0.583,-0.197
7.24,-0.152,1.37,0.181
7.25,-0.294,1.296,0.02
7.26,-0.006,0.426,-0.109
7.27,-0.477,0.892,-0.171
7.28,-0.022,1.102,0.199
7.29,-0.304,1.288,0.031
7.3,-0.112,0.558,-0.15
7.31,-0.431,0.545,-0.087
7.32,-0.115,1.316,0.211
7.33,-0.227,0.987,-0.001
7.34,-0.237,0.848,-0.092
7.35,-0.475,0.211,-0.127
7.36,-0.083,1.408,0.199
7.37,-0.203,0.866,-0.011
7.38,-0.307,0.754,-0.1
7.39,-0.495,0.597,-0.043
7.4,-0.035,1.022,0.196
7.41,-0.306,1.332,0.034
7.42,-0.128,0.285,-0.127
7.43,-0.501,1.221,-0.017
7.44,0.024,0.706,0.176
7.45,-0.294,1.323,0.057
7.46,-0.217,0.492,-0.179
7.47,-0.387,0.974,-0.024
7.48,-0.084,1.002,0.117
7.49,-0.148,0.844,0.017
7.5,-0.354,0.969,-0.211
7.51,-0.193,0.84,-0.034
7.52,-0.162,1.161,0.143
7.53,-0.089,0.781,0.008
7.54,-0.363,0.915,-0.219
7.55,-0.099,1.455,-0.082
7.56,-0.161,0.791,0.114
7.57,-0.15,1.116,-0.02
7.58,-0.343,0.406,-0.228
7.59,-0.217,2.0,-0.025
7.6,-0.127,0.623,0.144
7.61,-0.197,1.069,0.054
7.62,-0.399,0.456,-0.202
7.63,-0.295,1.726,0.077
7.64,-0.169,0.911,0.131
7.65,-0.049,0.612,0.05
7.66,-0.562,0.986,-0.142
7.67,-0.153,1.359,0.137
7.68,-0.336,1.164,0.194
7.69,0.07,0.543,0.043
7.7,-0.477,0.851,-0.201
7.71,0.031,1.558,0.036
7.72,-0.139,1.016,0.158
7.73,-0.058,0.767,-0.051
7.74,-0.295,0.435,-0.183
7.75,-0.088,2.0,0.076
7.76,-0.093,0.579,0.145
7.77,-0.162,0.977,-0.041
7.78,-0.448,0.336,-0.195
7.79,-0.249,1.952,0.176
7.8,-0.034,0.743,0.108
7.81,-0.087,0.843,-0.025
7.82,-0.32,0.636,-0.169
7.83,-0.174,1.564,0.188
7.84,-0.211,1.278,0.055
7.85,0.005,0.537,-0.07
7.86,-0.418,0.958,-0.141
7.87,-0.01,1.444,0.186
7.88,-0.092,1.311,0.026
7.89,-0.043,0.65,-0.068
7.9,-0.4,0.608,-0.169
7.91,-0.111,1.687,0.13
7.92,-0.128,0.912,0.061
7.93,-0.132,0.959,-0.085
7.94,-0.37,0.14,-0.131
7.95,-0.186,1.658,0.203
7.96,-0.19,0.86,0.002
7.97,-0.213,0.801,-0.125
7.98,-0.362,0.462,-0.207
7.99,-0.101,1.21,0.225
8.0,-0.373,1.377,0.021
8.01,-0.117,0.351,-0.106
8.02,-0.524,0.908,-0.098
8.03,0.043,0.961,0.229
8.04,-0.342,1.336,-0.002
8.05,-0.119,0.46,-0.157
8.06,-0.433,0.737,-0.053
8.07,0.027,1.085,0.096
8.08,-0.201,0.882,0.028
8.09,-0.339,0.951,-0.185
8.1,-0.371,0.463,-0.025
8.11,-0.042,1.194,0.109
8.12,-0.134,0.843,-0.01
8.13,-0.304,0.875,-0.224
8.14,-0.336,1.023,-0.042
8.15,-0.047,0.878,0.095
8.16,-0.225,1.203,0.007
8.17,-0.196,0.435,-0.208
8.18,-0.305,1.871,-0.04
8.19,-0.03,0.623,0.142
8.2,-0.243,1.222,0.078
8.21,-0.271,0.543,-0.182
8.22,-0.394,1.731,0.053
8.23,-0.128,0.964,0.193
8.24,-0.094,0.629,0.023
8.25,-0.492,0.963,-0.161
8.26,-0.213,1.334,0.119
8.27,-0.282,1.15,0.197
8.28,-0.052,0.519,0.1
8.29,-0.51,0.954,-0.152
8.3,-0.192,1.469,0.2
8.31,-0.208,0.927,0.174
8.32,-0.062,0.833,-0.045
8.33,-0.299,0.398,-0.17
8.34,-0.154,1.908,0.084
8.35,-0.004,0.609,0.131
8.36,-0.125,1.012,-0.017
8.37,-0.486,0.356,-0.206
8.38,-0.022,1.817,0.111
8.39,-0.123,0.941,0.153
8.4,-0.019,0.516,-0.026
8.41,-0.469,0.986,-0.207
8.42,-0.082,1.418,0.192
8.43,-0.173,1.276,0.131
8.44,0.075,0.466,-0.002
8.45,-0.527,0.953,-0.202
8.46,-0.048,1.6,0.129
8.47,-0.113,1.02,0.086
8.48,-0.049,0.917,-0.038
8.49,-0.379,0.401,-0.133
8.5,-0.244,1.865,0.234
8.51,-0.054,0.766,0.142
8.52,-0.156,0.969,-0.067
8.53,-0.356,0.324,-0.198
8.54,-0.157,1.662,0.129
8.55,-0.223,1.009,0.018
8.56,-0.008,0.639,-0.107
8.57,-0.396,0.759,-0.191
8.58,-0.059,1.227,0.199
8.59,-0.294,1.229,-0.036
8.6,-0.116,0.368,-0.167
8.61,-0.497,0.883,-0.098
8.62,-0.075,0.937,0.243
8.63,-0.379,1.386,0.039
8.64,-0.177,0.442,-0.079
8.65,-0.549,0.663,-0.023
8.66,-0.02,1.098,0.16
8.67,-0.18,0.921,0.021
8.68,-0.298,0.867,-0.179
8.69,-0.264,0.678,-0.032
8.7,-0.087,1.268,0.143
8.71,-0.096,0.774,0.041
8.72,-0.392,0.875,-0.17
8.73,-0.26,0.995,-0.038
8.74,-0.139,0.861,0.155
8.75,-0.304,1.156,0.01
8.76,-0.229,0.449,-0.208
8.77,-0.301,1.926,-0.008
8.78,-0.038,0.648,0.151
8.79,-0.284,1.098,0.067
8.8,-0.313,0.556,-0.151
8.81,-0.342,1.773,0.034
8.82,-0.126,1.028,0.166
8.83,-0.151,0.59,0.062
8.84,-0.472,0.922,-0.18
8.85,-0.254,1.403,0.059
8.86,-0.302,1.165,0.186
8.87,-0.113,0.57,0.038
8.88,-0.431,0.909,-0.148
8.89,-0.273,1.58,0.071
8.9,-0.147,0.831,0.164
8.91,-0.143,0.87,-0.012
8.92,-0.379,0.425,-0.18
8.93,-0.233,1.966,0.131
8.94,-0.143,0.681,0.137
8.95,-0.168,0.978,0.021
8.96,-0.371,0.337,-0.211
8.97,-0.119,1.843,0.095
8.98,-0.138,0.942,0.088
8.99,-0.117,0.488,-0.024
9.0,-0.436,0.896,-0.23
9.01,-0.008,1.429,0.067
9.02,-0.136,1.229,0.153
9.03,0.048,0.411,-0.017
9.04,-0.408,0.964,-0.219
9.05,-0.029,1.589,0.065
9.06,-0.077,0.935,0.069
9.07,-0.015,0.896,-0.056
9.08,-0.392,0.411,-0.16
9.09,-0.165,1.861,0.194
9.1,0.011,0.707,0.072
9.11,-0.136,0.994,-0.037
9.12,-0.349,0.346,-0.171
9.13,-0.153,1.777,0.15
9.14,-0.078,0.949,0.036
9.15,-0.01,0.674,-0.059
9.16,-0.448,0.824,-0.205
9.17,-0.042,1.313,0.149
9.18,-0.26,1.363,0.029
9.19,0.023,0.385,-0.135
9.2,-0.426,0.893,-0.209
9.21,-0.064,1.34,0.131
9.22,-0.235,1.125,-0.007
9.23,-0.081,0.809,-0.142
9.24,-0.404,0.307,-0.167
9.25,-0.124,1.594,0.153
9.26,-0.254,0.828,0.078
9.27,-0.268,0.94,-0.071
9.28,-0.432,0.249,-0.13
9.29,-0.101,1.367,0.185
9.3,-0.303,1.042,-0.004
9.31,-0.212,0.55,-0.082
9.32,-0.553,0.74,-0.125
9.33,0.027,0.985,0.225
9.34,-0.329,1.408,0.019
9.35,-0.229,0.297,-0.094
9.36,-0.472,0.902,-0.039
9.37,-0.031,0.905,0.19
9.38,-0.234,1.241,0.014
9.39,-0.346,0.58,-0.123
9.4,-0.293,1.144,-0.014
9.41,-0.133,0.983,0.17
9.42,-0.138,0.859,0.076
9.43,-0.396,0.975,-0.182
9.44,-0.214,1.032,-0.006
9.45,-0.184,1.192,0.141
9.46,-0.112,0.717,0.041
9.47,-0.373,0.928,-0.21
9.48,-0.129,1.459,-0.063
9.49,-0.217,0.816,0.104
9.5,-0.106,1.029,-0.004
9.51,-0.313,0.471,-0.205
9.52,-0.329,1.941,0.047
9.53,-0.076,0.563,0.099
9.54,-0.248,1.048,0.051
9.55,-0.37,0.454,-0.142
9.56,-0.365,1.767,0.132
9.57,-0.211,0.902,0.203
9.58,-0.096,0.623,0.046
9.59,-0.449,0.884,-0.187
9.6,-0.163,1.364,0.145
9.61,-0.333,1.279,0.156
9.62,-0.095,0.443,0.096
9.63,-0.373,0.923,-0.179
9.64,-0.168,1.695,0.098
9.65,-0.19,0.891,0.064
9.66,-0.047,0.805,0.01
9.67,-0.363,0.378,-0.183
9.68,-0.096,1.902,0.079
9.69,-0.011,0.698,0.111
9.7,-0.142,0.94,-0.039
9.71,-0.379,0.32,-0.23
9.72,-0.059,1.918,0.085
9.73,-0.264,0.755,0.142
9.74,0.035,0.621,-0.027
9.75,-0.598,0.867,-0.162
9.76,-0.001,1.369,0.19
9.77,-0.239,1.343,0.126
9.78,0.099,0.391,0.003
9.79,-0.438,0.973,-0.175
9.8,0.036,1.571,0.139
9.81,-0.116,0.964,0.069
9.82,-0.049,0.888,-0.082
9.83,-0.446,0.44,-0.126
9.84,-0.1,1.913,0.201
9.85,-0.022,0.716,0.083
9.86,-0.111,0.975,-0.073
9.87,-0.393,0.317,-0.17
9.88,-0.163,1.771,0.144
9.89,-0.183,1.009,0.049
9.9,-0.042,0.653,-0.058
9.91,-0.049,0.632,-0.053
9.92,-0.37,0.569,-0.183
9.93,-0.154,1.871,0.112
9.94,-0.043,0.663,0.158
9.95,-0.156,1.0,-0.045
9.96,-0.348,0.294,-0.183
9.97,-0.137,1.995,0.123
9.98,-0.195,0.753,0.15
9.99,-0.107,0.684,-0.046
10.0,-0.368,0.736,-0.231
10.01,-0.027,1.47,0.117
10.02,-0.112,1.215,0.144
10.03,0.061,0.378,-0.062
10.04,-0.441,1.079,-0.207
10.05,0.011,1.459,0.126
10.06,-0.084,1.133,0.06
10.07,-0.009,0.78,-0.103
10.08,-0.412,0.594,-0.15
10.09,-0.097,1.57,0.116
10.1,-0.117,1.022,0.076
10.11,-0.097,0.948,-0.04
10.12,-0.363,0.245,-0.142
10.13,-0.26,1.757,0.165
10.14,-0.099,0.827,0.026
10.15,-0.157,0.948,-0.112
10.16,-0.32,0.276,-0.181
10.17,-0.157,1.483,0.182
10.18,-0.181,1.083,0.002
10.19,-0.098,0.515,-0.132
10.2,-0.39,0.802,-0.193
10.21,-0.054,1.024,0.215
10.22,-0.324,1.368,0.0
10.23,-0.182,0.323,-0.095
10.24,-0.457,0.762,-0.124
10.25,-0.054,1.137,0.224
10.26,-0.315,1.06,-0.005
10.27,-0.193,0.786,-0.115
10.28,-0.394,0.287,-0.097
10.29,-0.091,1.388,0.182
10.3,-0.188,0.806,0.033
10.31,-0.396,0.895,-0.113
10.32,-0.34,0.365,-0.075
10.33,-0.099,1.177,0.197
10.34,-0.216,1.199,-0.052
10.35,-0.201,0.42,-0.153
10.36,-0.431,1.133,-0.074
10.37,0.04,0.74,0.177
10.38,-0.301,1.347,0.048
10.39,-0.271,0.333,-0.154
10.4,-0.346,1.243,-0.088
10.41,-0.071,0.852,0.115
10.42,-0.162,1.042,0.022
10.43,-0.362,0.815,-0.21
10.44,-0.195,1.072,-0.038
10.45,-0.134,1.186,0.132
10.46,-0.065,0.632,-0.013
10.47,-0.34,1.078,-0.219
10.48,-0.21,1.356,-0.035
10.49,-0.114,0.969,0.156
10.5,-0.163,0.875,0.039
10.51,-0.397,0.633,-0.191
10.52,-0.303,1.935,0.039
10.53,-0.149,0.627,0.149
10.54,-0.173,1.13,0.031
10.55,-0.338,0.332,-0.205
10.56,-0.333,1.847,0.084
10.57,-0.128,0.82,0.168
10.58,-0.152,0.776,0.03
10.59,-0.41,0.714,-0.166
10.6,-0.124,1.489,0.109
10.61,-0.254,1.156,0.145
10.62,0.071,0.466,0.013
10.63,-0.479,0.96,-0.247
10.64,0.02,1.48,0.093
10.65,-0.25,1.086,0.073
10.66,-0.049,0.689,0.005
10.67,-0.364,0.584,-0.201
10.68,-0.025,1.859,0.058
10.69,-0.043,0.655,0.12
10.7,-0.156,0.993,-0.02
10.71,-0.347,0.265,-0.201
10.72,-0.117,1.927,0.085
10.73,-0.115,0.81,0.137
10.74,-0.124,0.767,-0.035
10.75,-0.439,0.709,-0.178
10.76,-0.063,1.569,0.146
10.77,-0.113,1.224,0.079
10.78,0.007,0.422,-0.009
10.79,-0.457,1.034,-0.176
10.8,-0.105,1.429,0.166
10.81,-0.172,1.223,0.055
10.82,0.001,0.663,-0.044
10.83,-0.417,0.576,-0.136
10.84,-0.22,1.714,0.21
10.85,-0.218,0.804,0.13
10.86,-0.162,1.09,-0.05
10.87,-0.366,0.173,-0.174
10.88,-0.153,1.769,0.224
10.89,-0.174,0.91,0.078
10.9,-0.245,0.935,-0.118
10.91,-0.44,0.332,-0.098
10.92,-0.117,1.314,0.207
10.93,-0.299,1.214,-0.036
10.94,-0.061,0.45,-0.131
10.95,-0.447,0.904,-0.145
10.96,0.087,0.878,0.171
10.97,-0.286,1.359,0.046
10.98,-0.268,0.362,-0.182
10.99,-0.344,0.865,-0.087
11.0,-0.037,0.992,0.108
11.01,-0.196,1.084,-0.021
11.02,-0.207,0.716,-0.22
11.03,-0.219,0.833,-0.057
11.04,-0.125,1.219,0.174
11.05,-0.061,0.707,-0.03
11.06,-0.42,1.006,-0.181
11.07,-0.137,1.211,-0.076
11.08,-0.145,0.993,0.126
11.09,-0.136,0.929,0.015
11.1,-0.368,0.679,-0.222
11.11,-0.352,1.567,0.045
11.12,-0.074,0.661,0.153
11.13,-0.263,1.3,0.055
11.14,-0.225,0.368,-0.212
11.15,-0.257,1.891,0.006
11.16,-0.051,0.784,0.101
11.17,-0.118,0.792,0.027
11.18,-0.441,0.798,-0.156
11.19,-0.261,1.486,0.05
11.2,-0.222,1.134,0.172
11.21,-0.067,0.559,0.029
11.22,-0.58,0.995,-0.129
11.23,-0.17,1.502,0.108
11.24,-0.266,1.021,0.203
11.25,-0.083,0.684,0.053
11.26,-0.466,0.637,-0.118
11.27,-0.174,1.909,0.115
11.28,-0.078,0.676,0.099
11.29,-0.179,1.013,0.01
11.3,-0.292,0.311,-0.176
11.31,-0.225,1.899,0.057
11.32,0.012,0.787,0.158
11.33,-0.122,0.758,-0.046
11.34,-0.386,0.695,-0.236
11.35,-0.024,1.549,0.098
11.36,-0.138,1.227,0.133
11.37,0.002,0.375,-0.034
11.38,-0.409,1.026,-0.217
11.39,0.019,1.486,0.134
11.4,-0.082,1.103,0.082
11.41,-0.057,0.578,-0.067
11.42,-0.308,0.625,-0.162
11.43,-0.203,1.757,0.116
11.44,-0.007,0.727,0.093
11.45,-0.183,1.082,-0.02
11.46,-0.371,0.192,-0.129
11.47,-0.226,1.887,0.178
11.48,-0.055,0.872,0.115
11.49,-0.066,0.852,-0.085
11.5,-0.463,0.577,-0.135
11.51,-0.096,1.453,0.212
11.52,-0.28,1.323,0.051
11.53,0.022,0.415,-0.096
11.54,-0.521,0.969,-0.157
11.55,-0.053,1.207,0.22
11.56,-0.438,1.215,0.094
11.57,-0.099,0.615,-0.043
11.58,-0.48,0.499,-0.112
11.59,-0.168,1.46,0.195
11.6,-0.219,0.95,0.052
11.61,-0.333,0.927,-0.084
11.62,-0.426,0.109,-0.063
11.63,-0.234,1.479,0.257
11.64,-0.207,0.896,0.044
11.65,-0.261,0.725,-0.098
11.66,-0.457,0.598,-0.13
11.67,0.0,1.043,0.206
11.68,-0.398,1.298,-0.005
11.69,-0.146,0.302,-0.101
11.7,-0.328,1.423,-0.028
11.71,0.025,0.663,0.15
11.72,-0.208,1.347,-0.017
11.73,-0.263,0.371,-0.21
11.74,-0.184,1.685,-0.11
11.75,-0.105,0.825,0.135
11.76,-0.141,0.877,0.031
11.77,-0.494,0.838,-0.195
11.78,-0.198,1.336,0.041
11.79,-0.307,1.137,0.202
11.8,-0.1,0.581,0.082
11.81,-0.49,1.014,-0.147
11.82,-0.182,1.375,0.077
11.83,-0.143,1.019,0.153
11.84,-0.091,0.706,0.014
11.85,-0.416,0.593,-0.163
11.86,-0.219,1.958,0.133
11.87,-0.199,0.7,0.19
11.88,-0.164,1.011,0.042
11.89,-0.386,0.316,-0.213
11.9,-0.239,1.992,0.1
11.91,-0.186,0.728,0.079
11.92,0.023,0.764,-0.038
11.93,-0.362,0.69,-0.268
11.94,0.034,1.487,0.026
11.95,-0.168,1.272,0.171
11.96,0.074,0.375,-0.038
11.97,-0.523,0.979,-0.189
11.98,0.063,1.556,0.086
11.99,-0.277,1.061,0.152
12.0,-0.019,0.675,-0.017
12.01,-0.445,0.611,-0.175
12.02,-0.038,1.821,0.075
12.03,-0.033,0.674,0.089
12.04,-0.128,0.981,-0.038
12.05,-0.344,0.279,-0.169
12.06,-0.184,1.869,0.07
12.07,0.027,0.864,0.059
12.08,-0.138,0.732,-0.038
12.09,-0.344,0.731,-0.181
12.1,-0.086,1.575,0.145
12.11,-0.107,1.154,0.055
12.12,0.012,0.502,-0.055
12.13,-0.464,1.033,-0.149
12.14,-0.056,1.419,0.18
12.15,-0.194,1.247,0.064
12.16,0.017,0.702,-0.034
12.17,-0.367,0.531,-0.183
12.18,-0.197,1.71,0.164
12.19,-0.07,0.866,0.019
12.2,-0.205,0.978,-0.149
12.21,-0.246,0.161,-0.189
12.22,-0.215,1.741,0.154
12.23,-0.16,0.853,0.062
12.24,-0.102,0.816,-0.105
12.25,-0.433,0.596,-0.15
12.26,-0.066,1.233,0.233
12.27,-0.4,1.407,0.038
12.28,-0.075,0.274,-0.093
12.29,-0.462,0.917,-0.192
12.3,-0.033,1.037,0.202
12.31,-0.298,1.228,0.002
12.32,-0.176,0.574,-0.122
12.33,-0.484,0.508,-0.047
12.34,-0.147,1.274,0.229
12.35,-0.271,0.904,-0.002
12.36,-0.298,0.925,-0.043
12.37,-0.505,0.23,-0.053
12.38,-0.143,1.284,0.204
12.39,-0.235,0.908,0.033
12.4,-0.299,0.701,-0.118
12.41,-0.413,0.729,-0.051
12.42,-0.051,0.876,0.147
12.43,-0.249,1.329,0.007
12.44,-0.226,0.296,-0.194
12.45,-0.454,1.188,-0.01
12.46,0.025,0.713,0.062
12.47,-0.281,1.273,0.002
12.48,-0.193,0.539,-0.19
12.49,-0.292,1.341,-0.07
12.5,-0.091,0.794,0.106
12.51,-0.19,0.826,0.059
12.52,-0.423,0.838,-0.187
12.53,-0.229,1.462,0.057
12.54,-0.219,1.094,0.165
12.55,0.031,0.586,0.04
12.56,-0.56,0.992,-0.197
12.57,-0.085,1.465,0.075
12.58,-0.243,1.028,0.091
12.59,-0.048,0.718,-0.03
12.6,-0.423,0.563,-0.185
12.61,-0.154,1.889,0.138
12.62,-0.112,0.602,0.16
12.63,-0.2,1.018,0.008
12.64,-0.332,0.298,-0.206
12.65,-0.112,1.905,0.091
12.66,-0.15,0.815,0.158
12.67,-0.151,0.737,-0.019
12.68,-0.384,0.753,-0.218
12.69,-0.03,1.535,0.127
12.7,-0.106,1.297,0.159
12.71,-0.006,0.306,-0.05
12.72,-0.432,1.015,-0.175
12.73,0.001,1.472,0.157
12.74,-0.111,1.117,0.064
12.75,-0.048,0.68,-0.072
12.76,-0.326,0.598,-0.208
12.77,-0.176,1.854,0.124
12.78,0.048,0.798,0.039
12.79,-0.107,1.028,-0.093
12.8,-0.307,0.236,-0.15
12.81,-0.167,1.891,0.161
12.82,-0.051,0.831,0.045
12.83,-0.093,0.784,-0.031
12.84,-0.392,0.679,-0.173
12.85,-0.105,1.477,0.19
12.86,-0.293,1.298,0.035
12.87,0.108,0.449,-0.092
12.88,-0.41,0.947,-0.176
12.89,-0.043,1.248,0.182
12.9,-0.271,1.294,0.006
12.91,-0.089,0.672,-0.082
12.92,-0.389,0.432,-0.111
12.93,-0.281,1.457,0.2
12.94,-0.204,0.905,0.057
12.95,-0.355,0.896,-0.072
12.96,-0.343,0.151,-0.06
12.97,-0.245,1.484,0.243
12.98,-0.257,0.93,0.004
12.99,-0.26,0.747,-0.092
13.0,-0.419,0.582,-0.119
13.01,0.062,1.023,0.172
13.02,-0.307,1.325,-0.046
13.03,-0.102,0.315,-0.149
13.04,-0.448,1.088,-0.07
13.05,0.013,0.779,0.152
13.06,-0.222,1.318,0.024
13.07,-0.311,0.486,-0.176
13.08,-0.314,0.845,-0.028
13.09,-0.112,1.055,0.117
13.1,-0.109,0.813,0.008
13.11,-0.38,0.971,-0.198
13.12,-0.171,0.907,-0.058
13.13,-0.136,1.189,0.174
13.14,-0.119,0.798,0.034
13.15,-0.39,0.846,-0.152
13.16,-0.239,1.511,-0.021
13.17,-0.11,0.771,0.154
13.18,-0.207,1.12,0.026
13.19,-0.318,0.361,-0.219
13.2,-0.259,2.0,0.008
13.21,-0.103,0.646,0.125
13.22,-0.153,1.014,0.039
13.23,-0.414,0.55,-0.203
13.24,-0.244,1.726,0.054
13.25,-0.162,0.982,0.109
13.26,-0.026,0.587,0.013
13.27,-0.548,0.975,-0.201
13.28,-0.17,1.372,0.159
13.29,-0.188,1.222,0.147
13.3,-0.001,0.344,-0.029
13.31,-0.405,0.987,-0.21
13.32,-0.025,1.53,0.037
13.33,-0.088,1.033,0.166
13.34,-0.037,0.722,-0.065
13.35,-0.459,0.546,-0.154
13.36,-0.137,1.86,0.153
13.37,-0.027,0.741,0.13
13.38,-0.161,0.995,0.006
13.39,-0.358,0.305,-0.134
13.4,-0.208,1.919,0.202
13.41,-0.066,0.798,0.11
13.42,-0.139,0.722,-0.038
13.43,-0.39,0.75,-0.134
13.44,-0.158,1.505,0.246
13.45,-0.096,1.257,0.067
13.46,0.066,0.45,-0.103
13.47,-0.489,1.013,-0.161
13.48,0.01,1.398,0.156
13.49,-0.226,1.253,0.028
13.5,-0.005,0.676,-0.128
13.51,-0.402,0.488,-0.163
13.52,-0.196,1.639,0.157
13.53,-0.179,0.827,0.024
13.54,-0.202,0.972,-0.117
13.55,-0.375,0.133,-0.157
13.56,-0.216,1.529,0.22
13.57,-0.211,0.879,0.036
13.58,-0.272,0.68,-0.11
13.59,-0.375,0.61,-0.15
13.6,-0.076,1.091,0.208
13.61,-0.348,1.328,0.003
13.62,-0.063,0.311,-0.104
13.63,-0.548,0.947,-0.102
13.64,0.06,0.907,0.15
13.65,-0.269,1.296,-0.0
13.66,-0.257,0.542,-0.157
13.67,-0.427,0.6,-0.024
13.68,-0.065,1.206,0.139
13.69,-0.144,0.879,0.047
13.7,-0.316,0.923,-0.183
13.71,-0.321,0.501,-0.034
13.72,-0.153,1.2,0.144
13.73,-0.12,0.857,-0.016
13.74,-0.279,0.751,-0.179
13.75,-0.121,1.477,-0.108
13.76,-0.059,0.775,0.159
13.77,-0.181,1.136,0.013
13.78,-0.3,0.477,-0.225
13.79,-0.235,1.74,-0.027
13.8,-0.148,0.667,0.146
13.81,-0.238,1.15,0.042
13.82,-0.36,0.52,-0.216
13.83,-0.212,1.623,0.046
13.84,-0.129,1.061,0.131
13.85,-0.073,0.517,0.021
13.86,-0.528,1.029,-0.159
13.87,-0.173,1.367,0.084
13.88,-0.291,1.162,0.201
13.89,-0.034,0.578,0.046
13.9,-0.495,0.845,-0.169
13.91,-0.2,1.699,0.098
13.92,-0.129,0.828,0.125
13.93,-0.202,0.885,-0.01
13.94,-0.229,0.354,-0.183
13.95,-0.191,1.9,0.082
13.96,0.053,0.677,0.185
13.97,-0.204,0.89,-0.036
13.98,-0.323,0.489,-0.239
13.99,-0.09,1.794,0.074
14.0,-0.16,0.947,0.122
14.01,0.024,0.511,-0.071
14.02,-0.448,1.003,-0.229
14.03,0.082,1.438,0.171
14.04,-0.155,1.32,0.115
14.05,-0.008,0.417,-0.014
14.06,-0.39,0.856,-0.149
14.07,-0.096,1.636,0.125
14.08,-0.003,0.889,0.081
14.09,-0.149,0.919,-0.072
14.1,-0.277,0.435,-0.173
14.11,-0.264,1.768,0.159
14.12,-0.041,0.827,0.1
14.13,-0.181,1.036,-0.11
14.14,-0.4,0.2,-0.126
14.15,-0.248,1.62,0.23
14.16,-0.249,0.986,0.064
14.17,-0.121,0.704,-0.064
14.18,-0.408,0.632,-0.144
14.19,-0.084,1.093,0.247
14.2,-0.327,1.322,-0.003
14.21,-0.117,0.375,-0.091
14.22,-0.482,0.874,-0.121
14.23,-0.046,0.986,0.254
14.24,-0.343,1.274,0.016
14.25,-0.177,0.582,-0.119
14.26,-0.432,0.56,-0.035
14.27,-0.024,1.205,0.09
14.28,-0.189,0.813,-0.015
14.29,-0.294,1.001,-0.139
14.3,-0.364,0.557,-0.035
14.31,-0.028,1.216,0.173
14.32,-0.156,0.881,-0.019
14.33,-0.308,0.819,-0.21
14.34,-0.389,0.936,-0.122
14.35,-0.065,0.82,0.122
14.36,-0.244,1.352,-0.021
14.37,-0.194,0.312,-0.188
14.38,-0.264,1.891,-0.078
14.39,-0.003,0.655,0.144
14.4,-0.163,1.054,0.023
14.41,-0.375,0.688,-0.215
14.42,-0.239,1.587,-0.018
14.43,-0.143,1.034,0.124
14.44,-0.07,0.635,0.009
14.45,-0.48,1.045,-0.233
14.46,-0.153,1.211,0.053
14.47,-0.368,1.013,0.129
14.48,-0.075,0.764,0.03
14.49,-0.284,0.732,-0.211
14.5,-0.179,1.659,0.044
14.51,-0.059,0.813,0.108
14.52,-0.166,0.913,-0.021
14.53,-0.33,0.261,-0.19
14.54,-0.147,2.0,0.133
14.55,-0.104,0.744,0.103
14.56,-0.226,0.843,0.002
14.57,-0.43,0.528,-0.185
14.58,-0.121,1.817,0.192
14.59,-0.281,0.93,0.118
14.6,-0.066,0.425,-0.022
14.61,-0.449,0.983,-0.149
14.62,-0.006,1.352,0.109
14.63,-0.063,1.242,0.098
14.64,0.029,0.514,-0.013
14.65,-0.443,0.807,-0.113
14.66,-0.133,1.719,0.123
14.67,-0.078,0.807,0.077
14.68,-0.085,1.126,-0.021
14.69,-0.381,0.226,-0.155
14.7,-0.118,1.908,0.237
14.71,0.019,0.852,0.045
14.72,-0.125,0.861,-0.074
14.73,-0.403,0.47,-0.143
14.74,-0.244,1.525,0.239
14.75,-0.272,1.146,0.067
14.76,-0.007,0.505,-0.121
14.77,-0.434,0.847,-0.167
14.78,-0.069,1.117,0.19
14.79,-0.334,1.363,0.014
14.8,-0.106,0.384,-0.153
14.81,-0.44,0.688,-0.149
14.82,-0.094,1.296,0.176
14.83,-0.24,1.049,0.009
14.84,-0.189,0.855,-0.114
14.85,-0.448,0.197,-0.116
14.86,-0.09,1.418,0.217
14.87,-0.238,0.763,0.01
14.88,-0.338,0.844,-0.104
14.89,-0.463,0.443,-0.1
14.9,-0.144,1.207,0.174
14.91,-0.315,0.947,0.041
14.92,-0.269,0.68,-0.143
14.93,-0.35,1.191,-0.025
14.94,0.007,0.733,0.136
14.95,-0.221,1.319,-0.025
14.96,-0.24,0.365,-0.21
14.97,-0.223,1.862,-0.044
14.98,-0.07,0.723,0.118
14.99,-0.223,1.073,0.063
15.0,-0.397,0.656,-0.222
15.01,-0.193,1.563,-0.028
15.02,-0.158,1.056,0.097
15.03,-0.017,0.56,0.035
15.04,-0.508,1.04,-0.161
15.05,-0.198,1.398,0.094
15.06,-0.287,1.048,0.156
15.07,-0.009,0.708,0.043
15.08,-0.473,0.711,-0.16
15.09,-0.1,1.77,0.121
15.1,-0.185,0.765,0.075
15.11,-0.12,0.971,-0.001
15.12,-0.303,0.294,-0.241
15.13,-0.098,2.0,0.087
15.14,-0.061,0.738,0.1
15.15,-0.079,0.784,-0.047
15.16,-0.397,0.505,-0.21
15.17,0.015,1.711,0.107
15.18,-0.239,1.038,0.093
15.19,0.018,0.442,-0.06
15.2,-0.459,1.015,-0.193
15.21,-0.01,1.443,0.144
15.22,-0.188,1.217,0.12
15.23,0.007,0.544,-0.032
15.24,-0.463,0.775,-0.134
15.25,-0.077,1.705,0.132
15.26,-0.046,0.869,0.075
15.27,-0.13,0.957,-0.062
15.28,-0.302,0.307,-0.152
15.29,-0.205,1.901,0.173
15.3,-0.012,0.792,0.062
15.31,-0.214,0.909,-0.107
15.32,-0.359,0.488,-0.176
15.33,-0.153,1.515,0.173
15.34,-0.265,1.221,0.089
15.35,-0.081,0.458,-0.072
15.36,-0.558,0.862,-0.095
15.37,-0.057,1.089,0.209
15.38,-0.4,1.341,0.061
15.39,-0.173,0.44,-0.082
15.4,-0.419,0.589,-0.139
15.41,-0.135,1.303,0.198
15.42,-0.266,1.013,0.039
15.43,-0.266,0.836,-0.108
15.44,-0.458,0.219,-0.045
15.45,-0.11,1.402,0.196
15.46,-0.199,0.828,0.031
15.47,-0.26,0.818,-0.118
15.48,-0.468,0.759,-0.031
15.49,0.014,1.055,0.156
15.5,-0.302,1.142,0.02
15.51,-0.207,0.411,-0.203
15.52,-0.416,1.1,-0.079
15.53,0.029,0.659,0.067
15.54,-0.264,1.4,-0.088
15.55,-0.218,0.36,-0.2
15.56,-0.272,1.307,-0.057
15.57,-0.125,0.915,0.137
15.58,-0.116,0.85,-0.005
15.59,-0.395,0.954,-0.214
15.6,-0.119,1.301,-0.007
15.61,-0.252,1.193,0.173
15.62,0.002,0.528,-0.01
15.63,-0.567,0.988,-0.203
15.64,-0.073,1.536,0.009
15.65,-0.302,0.814,0.128
15.66,-0.077,1.012,0.023
15.67,-0.395,0.479,-0.192
15.68,-0.272,1.912,0.138
15.69,0.021,0.666,0.118
15.7,-0.209,1.034,0.023
15.71,-0.263,0.288,-0.219
15.72,-0.14,1.925,0.055
15.73,0.06,0.773,0.112
15.74,-0.123,0.86,-0.088
15.75,-0.442,0.553,-0.208
15.76,-0.048,1.748,0.161
15.77,-0.227,1.038,0.119
15.78,0.01,0.414,-0.007
15.79,-0.549,1.015,-0.157
15.8,-0.017,1.424,0.206
15.81,-0.146,1.264,0.069
15.82,0.001,0.544,-0.046
15.83,-0.371,0.715,-0.104
15.84,-0.135,1.723,0.141
15.85,-0.08,0.833,0.095
15.86,-0.126,1.088,-0.072
15.87,-0.376,0.18,-0.107
15.88,-0.206,1.907,0.147
15.89,-0.082,0.784,0.059
15.9,-0.126,0.902,-0.118
15.91,-0.356,0.491,-0.166
15.92,-0.148,1.379,0.176
15.93,-0.281,1.261,0.045
15.94,-0.009,0.421,-0.146
15.95,-0.53,0.923,-0.108
15.96,-0.036,1.049,0.254
15.97,-0.333,1.289,0.037
15.98,-0.149,0.497,-0.082
15.99,-0.453,0.64,-0.086
16.0,-0.158,1.204,0.247
16.01,-0.168,0.951,0.023
16.02,-0.282,0.917,-0.113
16.03,-0.375,0.232,-0.042
16.04,-0.162,1.347,0.203
16.05,-0.198,0.874,0.011
16.06,-0.319,0.713,-0.104
16.07,-0.323,0.724,-0.031
16.08,-0.161,0.931,0.171
16.09,-0.309,1.199,-0.019
16.1,-0.213,0.446,-0.166
16.11,-0.295,1.268,-0.079
16.12,-0.012,0.66,0.092
16.13,-0.254,1.315,-0.045
16.14,-0.308,0.445,-0.207
16.15,-0.215,1.415,-0.023
16.16,-0.078,0.954,0.093
16.17,-0.136,0.791,-0.005
16.18,-0.414,1.003,-0.182
16.19,-0.245,1.375,0.034
16.2,-0.157,1.166,0.161
16.21,-0.157,0.628,0.037
16.22,-0.502,0.905,-0.14
16.23,-0.253,1.624,0.067
16.24,-0.269,0.845,0.157
16.25,-0.121,0.954,0.021
16.26,-0.401,0.414,-0.161
16.27,-0.168,1.988,0.151
16.28,-0.116,0.639,0.115
16.29,-0.123,0.931,-0.01
16.3,-0.368,0.355,-0.165
16.31,-0.056,1.835,0.103
16.32,-0.119,0.905,0.122
16.33,-0.02,0.552,-0.096
16.34,-0.41,0.875,-0.225
16.35,0.072,1.442,0.096
16.36,-0.129,1.269,0.1
16.37,0.051,0.433,-0.053
16.38,-0.413,0.944,-0.132
16.39,-0.048,1.569,0.153
16.4,-0.081,0.952,0.095
16.41,-0.065,0.913,-0.057
16.42,-0.372,0.365,-0.08
16.43,-0.219,1.865,0.198
16.44,-0.067,0.719,0.091
16.45,-0.167,1.069,-0.029
16.46,-0.371,0.277,-0.113
16.47,-0.19,1.696,0.175
16.48,-0.159,1.082,-0.009
16.49,-0.075,0.62,-0.133
16.5,-0.379,0.798,-0.123
16.51,-0.141,1.058,0.246
16.52,-0.313,1.29,0.002
16.53,-0.191,0.355,-0.156
16.54,-0.443,0.988,-0.031
16.55,-0.022,0.743,0.171
16.56,-0.383,1.345,0.021
16.57,-0.235,0.482,-0.133
16.58,-0.423,0.729,-0.043
16.59,-0.11,0.994,0.133
16.6,-0.191,0.882,-0.018
16.61,-0.417,0.863,-0.222
16.62,-0.142,0.829,0.016
16.63,-0.152,1.196,0.135
16.64,-0.203,0.799,0.112
16.65,-0.333,0.844,-0.202
16.66,-0.192,1.469,0.019
16.67,-0.077,0.808,0.153
16.68,-0.21,1.12,-0.034
16.69,-0.263,0.316,-0.268
16.7,-0.262,1.928,0.058
16.71,-0.044,0.627,0.116
16.72,-0.206,0.989,-0.03
16.73,-0.349,0.452,-0.194
16.74,-0.169,1.745,0.041
16.75,-0.101,0.953,0.115
16.76,0.021,0.521,-0.042
16.77,-0.552,0.937,-0.219
16.78,0.048,1.399,0.097
16.79,-0.239,1.216,0.162
16.8,0.015,0.508,0.017
16.81,-0.497,0.844,-0.199
16.82,-0.0,1.715,0.095
16.83,-0.025,0.887,0.108
16.84,-0.018,0.884,-0.033
16.85,-0.414,0.349,-0.198
16.86,-0.121,1.877,0.188
16.87,0.008,0.713,0.1
16.88,-0.099,1.027,-0.078
16.89,-0.346,0.366,-0.137
16.9,-0.275,1.667,0.123
16.91,-0.154,1.101,0.063
16.92,-0.002,0.626,-0.083
16.93,-0.496,0.861,-0.123
16.94,-0.023,1.235,0.194
16.95,-0.419,1.368,0.046
16.96,0.004,0.52,-0.024
16.97,-0.511,0.774,-0.091
16.98,-0.183,1.209,0.232
16.99,-0.297,1.109,-0.002
17.0,-0.173,0.857,-0.107
17.01,-0.33,0.227,-0.084
17.02,-0.135,1.438,0.156
17.03,-0.24,0.768,-0.051
17.04,-0.303,0.94,-0.124
17.05,-0.331,0.411,-0.032
17.06,-0.087,1.103,0.162
17.07,-0.314,1.127,-0.057
17.08,-0.211,0.466,-0.179
17.09,-0.355,1.305,-0.003
17.1,0.051,0.701,0.146
17.11,-0.358,1.334,0.004
17.12,-0.238,0.395,-0.204
17.13,-0.22,1.792,-0.032
17.14,-0.014,0.792,0.129
17.15,-0.109,0.782,0.005
17.16,-0.503,0.853,-0.265
17.17,-0.113,1.455,0.055
17.18,-0.246,1.163,0.191
17.19,-0.03,0.514,0.038
17.2,-0.516,0.995,-0.164
17.21,-0.103,1.493,0.11
17.22,-0.203,0.988,0.154
17.23,-0.041,0.707,-0.037
17.24,-0.481,0.54,-0.146
17.25,-0.101,1.854,0.091
17.26,-0.045,0.673,0.164
17.27,-0.154,1.023,-0.049
17.28,-0.369,0.318,-0.207
17.29,-0.106,1.91,0.09
17.3,-0.032,0.859,0.125
17.31,-0.073,0.941,-0.064
17.32,-0.417,0.442,-0.15
17.33,-0.152,1.644,0.152
17.34,-0.172,1.17,-0.006
17.35,0.059,0.599,-0.069
17.36,-0.543,0.859,-0.142
17.37,-0.067,1.264,0.209
17.38,-0.35,1.353,0.015
17.39,-0.091,0.526,-0.09
17.4,-0.369,0.669,-0.162
17.41,-0.195,1.329,0.172
17.42,-0.227,1.03,-0.021
17.43,-0.178,0.874,-0.129
17.44,-0.403,0.205,-0.067
17.45,-0.11,1.41,0.17
17.46,-0.242,0.765,-0.014
17.47,-0.253,0.879,-0.111
17.48,-0.367,0.546,-0.053
17.49,-0.046,1.0,0.114
17.5,-0.257,1.208,-0.065
17.51,-0.218,0.4,-0.221
17.52,-0.336,1.113,-0.057
17.53,0.096,0.709,0.094
17.54,-0.286,1.367,-0.057
17.55,-0.256,0.383,-0.175
17.56,-0.258,1.452,0.007
17.57,-0.081,0.911,0.165
17.58,-0.19,0.87,0.022
17.59,-0.36,0.908,-0.213
17.6,-0.187,1.368,0.013
17.61,-0.225,1.137,0.153
17.62,-0.063,0.57,0.018
17.63,-0.546,0.963,-0.15
17.64,-0.114,1.579,0.056
17.65,-0.153,0.931,0.118
17.66,-0.102,0.838,-0.006
17.67,-0.408,0.458,-0.168
17.68,-0.188,1.953,0.132
17.69,-0.045,0.637,0.1
17.7,-0.203,0.987,0.002
17.71,-0.337,0.294,-0.191
17.72,-0.127,1.839,0.08
17.73,-0.062,0.894,0.115
17.74,-0.05,0.621,-0.058
17.75,-0.411,0.828,-0.188
17.76,-0.02,1.496,0.144
17.77,-0.098,1.204,0.079
17.78,0.019,0.438,-0.079
17.79,-0.4,0.989,-0.181
17.8,-0.075,1.547,0.179
17.81,-0.115,1.11,0.051
17.82,-0.01,0.799,-0.075
17.83,-0.359,0.426,-0.138
17.84,-0.295,1.744,0.195
17.85,-0.134,0.772,0.133
17.86,-0.213,1.057,-0.042
17.87,-0.379,0.144,-0.111
17.88,-0.209,1.57,0.175
17.89,-0.258,0.973,0.009
17.9,-0.117,0.674,-0.099
17.91,-0.412,0.721,-0.147
17.92,-0.092,1.0,0.253
17.93,-0.327,1.451,-0.03
17.94,-0.13,0.301,-0.077
17.95,-0.483,0.906,-0.069
17.96,0.013,0.929,0.129
17.97,-0.278,1.106,-0.014
17.98,-0.219,0.748,-0.192
17.99,-0.314,0.61,-0.023
18.0,-0.063,1.193,0.098
18.01,-0.165,0.783,0.005
18.02,-0.335,1.01,-0.186
18.03,-0.258,0.905,0.01
18.04,-0.175,1.092,0.195
18.05,-0.194,0.91,0.034
18.06,-0.386,0.725,-0.191
18.07,-0.166,1.628,-0.036
18.08,-0.117,0.664,0.112
18.09,-0.199,1.241,0.021
18.1,-0.357,0.38,-0.207
18.11,-0.265,1.957,0.124
18.12,-0.121,0.674,0.138
18.13,-0.18,1.014,0.029
18.14,-0.352,0.407,-0.211
18.15,-0.157,1.762,0.061
18.16,-0.078,0.972,0.126
18.17,-0.122,0.569,-0.012
18.18,-0.405,0.885,-0.207
18.19,0.034,1.455,0.111
18.2,-0.265,1.265,0.168
18.21,0.092,0.387,0.011
18.22,-0.484,0.955,-0.183
18.23,0.015,1.598,0.097
18.24,-0.122,0.868,0.115
18.25,-0.013,0.608,-0.054
18.26,-0.502,0.545,-0.148
18.27,-0.134,1.251,0.246
18.28,-0.368,1.276,0.046
18.29,-0.074,0.37,-0.067
18.3,-0.557,0.871,-0.087
18.31,0.048,0.948,0.189
18.32,-0.341,1.296,0.025
18.33,-0.199,0.551,-0.121
18.34,-0.459,0.541,-0.069
18.35,-0.064,1.21,0.23
18.36,-0.197,0.922,0.014
18.37,-0.362,0.854,-0.145
18.38,-0.323,0.357,-0.013
18.39,-0.166,1.244,0.145
18.4,-0.178,0.879,-0.033
18.41,-0.297,0.727,-0.158
18.42,-0.26,1.089,-0.099
18.43,-0.01,0.824,0.155
18.44,-0.228,1.236,-0.004
18.45,-0.29,0.452,-0.192
18.46,-0.296,1.521,0.01
18.47,-0.117,0.673,0.136
18.48,-0.206,1.233,0.032
18.49,-0.366,0.542,-0.191
18.5,-0.252,1.626,0.013
18.51,-0.168,0.985,0.142
18.52,-0.057,0.641,0.018
18.53,-0.492,1.004,-0.19
18.54,-0.16,1.349,0.122
18.55,-0.241,1.223,0.212
18.56,-0.032,0.515,0.079
18.57,-0.502,0.87,-0.173
18.58,-0.158,1.68,0.127
18.59,-0.23,0.825,0.115
18.6,-0.144,0.927,0.009
18.61,-0.459,0.34,-0.168
18.62,-0.186,1.988,0.157
18.63,-0.112,0.643,0.148
18.64,-0.124,0.921,0.007
18.65,-0.424,0.409,-0.192
18.66,-0.037,1.778,0.04
18.67,-0.11,0.972,0.148
18.68,0.024,0.557,-0.066
18.69,-0.469,0.969,-0.222
18.7,0.018,1.495,0.137
18.71,-0.187,1.228,0.096
18.72,0.02,0.434,-0.022
18.73,-0.423,0.908,-0.167
18.74,-0.09,1.597,0.141
18.75,-0.079,0.956,0.073
18.76,-0.045,0.951,-0.045
18.77,-0.35,0.311,-0.102
18.78,-0.252,1.871,0.177
18.79,-0.063,0.76,0.055
18.8,-0.145,1.018,-0.109
18.81,-0.386,0.338,-0.149
18.82,-0.112,1.616,0.19
18.83,-0.23,1.015,0.035
18.84,-0.188,0.706,-0.1
18.85,-0.364,0.691,-0.139
18.86,-0.046,1.053,0.151
18.87,-0.313,1.271,-0.038
18.88,-0.095,0.353,-0.134
18.89,-0.368,1.11,-0.054
18.9,0.008,0.798,0.163
18.91,-0.251,1.204,0.008
18.92,-0.296,0.64,-0.188
18.93,-0.369,0.622,-0.022
18.94,-0.162,1.103,0.129
18.95,-0.156,0.835,-0.031
18.96,-0.363,0.903,-0.152
18.97,-0.181,0.866,-0.057
18.98,-0.115,1.131,0.127
18.99,-0.085,0.873,0.001
19.0,-0.32,0.807,-0.212
19.01,-0.155,1.635,-0.026
19.02,-0.081,0.712,0.136
19.03,-0.221,1.075,0.036
19.04,-0.383,0.388,-0.194
19.05,-0.298,1.948,0.067
19.06,-0.174,0.618,0.144
19.07,-0.186,1.062,0.036
19.08,-0.406,0.488,-0.194
19.09,-0.126,1.656,0.141
19.1,-0.158,1.051,0.154
19.11,0.029,0.427,-0.034
19.12,-0.488,0.993,-0.164
19.13,0.009,1.453,0.095
19.14,-0.23,1.125,0.158
19.15,-0.021,0.552,-0.031
19.16,-0.37,0.794,-0.195
19.17,0.027,1.696,0.05
19.18,-0.016,0.85,0.032
19.19,-0.097,0.842,-0.04
19.2,-0.33,0.321,-0.145
19.21,-0.182,1.904,0.127
19.22,-0.001,0.67,0.095
19.23,-0.167,0.958,-0.042
19.24,-0.398,0.435,-0.144
19.25,-0.187,1.667,0.195
19.26,-0.077,1.124,-0.004
19.27,0.0,0.448,-0.056
19.28,-0.444,0.991,-0.135
19.29,-0.069,1.324,0.177
19.3,-0.325,1.392,0.062
19.31,-0.03,0.54,-0.056
19.32,-0.422,0.619,-0.145
19.33,-0.095,1.477,0.175
19.34,-0.174,0.982,0.023
19.35,-0.221,0.914,-0.126
19.36,-0.411,0.145,-0.133
19.37,-0.192,1.569,0.224
19.38,-0.263,0.839,0.038
19.39,-0.242,0.872,-0.107
19.4,-0.483,0.464,-0.098
19.41,-0.032,1.125,0.175
19.42,-0.309,1.228,-0.009
19.43,-0.138,0.383,-0.102
19.44,-0.509,1.078,-0.03
19.45,0.05,0.773,0.192
19.46,-0.221,1.372,0.014
19.47,-0.252,0.402,-0.15
19.48,-0.398,0.849,-0.064
19.49,0.0,0.976,0.049
19.5,-0.119,0.979,-0.041
19.51,-0.296,0.815,-0.213
19.52,-0.08,1.064,-0.125
19.53,-0.127,1.233,0.121
19.54,-0.062,0.627,-0.018
19.55,-0.364,0.984,-0.196
19.56,-0.135,1.542,-0.075
19.57,-0.087,0.9,0.085
19.58,-0.156,0.956,0.016
19.59,-0.336,0.548,-0.201
19.6,-0.379,1.874,0.053
19.61,-0.077,0.616,0.159
19.62,-0.255,1.185,0.07
19.63,-0.23,0.285,-0.159
19.64,-0.302,1.937,0.132
19.65,-0.054,0.732,0.174
19.66,-0.16,0.811,0.001
19.67,-0.341,0.617,-0.199
19.68,-0.033,1.672,0.09
19.69,-0.218,1.056,0.059
19.7,0.081,0.472,-0.047
19.71,-0.468,1.023,-0.231
19.72,0.083,1.471,0.083
19.73,-0.234,1.183,0.147
19.74,0.001,0.511,-0.02
19.75,-0.438,0.743,-0.183
19.76,-0.086,1.695,0.096
19.77,-0.019,0.809,0.075
19.78,-0.137,0.962,-0.057
19.79,-0.329,0.285,-0.202
19.8,-0.18,1.982,0.187
19.81,-0.046,0.716,0.118
19.82,-0.159,0.957,0.004
19.83,-0.4,0.5,-0.164
19.84,-0.089,1.633,0.228
19.85,-0.102,1.248,0.051
19.86,0.009,0.433,-0.053
19.87,-0.492,0.989,-0.149
19.88,-0.089,1.339,0.217
19.89,-0.272,1.288,0.063
19.9,-0.028,0.631,-0.053
19.91,-0.408,0.549,-0.154
19.92,-0.11,1.579,0.169
19.93,-0.146,0.987,0.008
19.94,-0.192,0.969,-0.127
19.95,-0.277,0.151,-0.173
19.96,-0.237,1.693,0.193
19.97,-0.198,0.877,0.035
19.98,-0.093,0.841,-0.125
19.99,-0.413,0.466,-0.217
20.0,0.012,1.218,0.166
20.01,-0.271,1.184,-0.058
20.02,-0.134,0.435,-0.121
20.03,-0.512,0.893,-0.114
20.04,0.012,0.929,0.221
20.05,-0.339,1.435,0.018
20.06,-0.255,0.395,-0.083
20.07,-0.503,0.665,-0.032
20.08,-0.054,1.141,0.138
20.09,-0.182,0.939,0.039
20.1,-0.323,0.867,-0.13
20.11,-0.292,0.573,-0.003
20.12,-0.137,1.362,0.2
20.13,-0.125,0.73,0.099
20.14,-0.358,0.923,-0.15
20.15,-0.306,0.843,-0.058
20.16,-0.094,0.892,0.137
20.17,-0.176,1.26,0.011
20.18,-0.324,0.335,-0.185
20.19,-0.258,1.579,-0.015
20.2,-0.058,0.738,0.116
20.21,-0.17,1.205,0.01
20.22,-0.267,0.538,-0.179
20.23,-0.249,1.702,-0.069
20.24,-0.085,0.942,0.164
20.25,-0.023,0.7,-0.001
20.26,-0.468,1.033,-0.198
20.27,-0.146,1.18,0.023
20.28,-0.323,1.143,0.128
20.29,-0.084,0.748,0.096
20.3,-0.426,0.832,-0.202
20.31,-0.186,1.477,0.063
20.32,-0.206,0.865,0.214
20.33,-0.073,0.89,0.011
20.34,-0.38,0.464,-0.148
20.35,-0.234,2.0,0.086
20.36,-0.081,0.687,0.179
20.37,-0.13,1.012,0.016
20.38,-0.417,0.382,-0.258
20.39,-0.196,1.885,0.095
20.4,-0.286,0.895,0.106
20.41,0.024,0.648,-0.0
20.42,-0.455,0.888,-0.195
20.43,-0.016,1.405,0.115
20.44,-0.102,1.224,0.133
20.45,0.029,0.339,-0.07
20.46,-0.45,1.016,-0.174
20.47,0.035,1.424,0.11
20.48,-0.179,1.126,0.113
20.49,0.103,0.652,-0.123
20.5,-0.537,0.692,-0.161
20.51,0.006,1.855,0.117
20.52,-0.175,0.655,0.131
20.53,-0.074,0.952,-0.038
20.54,-0.421,0.327,-0.19
20.55,-0.186,1.849,0.169
20.56,-0.06,0.889,0.062
20.57,-0.184,0.769,-0.117
20.58,-0.354,0.561,-0.122
20.59,-0.174,1.618,0.131
20.6,-0.159,1.129,0.066
20.61,0.036,0.517,-0.104
20.62,-0.499,1.01,-0.131
20.63,0.079,1.346,0.197
20.64,-0.251,1.285,0.026
20.65,0.051,0.589,-0.058
20.66,-0.449,0.667,-0.154
20.67,-0.06,1.619,0.155
20.68,-0.292,0.87,0.094
20.69,-0.128,0.965,-0.096
20.7,-0.309,0.171,-0.129
20.71,-0.245,1.698,0.188
20.72,-0.174,0.822,0.034
20.73,-0.188,0.851,-0.109
20.74,-0.333,0.479,-0.184
20.75,-0.133,1.24,0.24
20.76,-0.324,1.374,-0.001
20.77,-0.092,0.323,-0.108
20.78,-0.446,0.899,-0.158
20.79,-0.03,0.952,0.202
20.8,-0.326,1.383,-0.038
20.81,-0.174,0.491,-0.085
20.82,-0.473,0.601,-0.065
20.83,-0.07,1.17,0.189
20.84,-0.15,0.864,-0.018
20.85,-0.397,0.86,-0.09
20.86,-0.339,0.315,-0.047
20.87,-0.125,1.271,0.152
20.88,-0.139,0.928,0.022
20.89,-0.314,0.691,-0.141
20.9,-0.383,0.85,-0.009
20.91,-0.066,0.92,0.145
20.92,-0.298,1.246,0.047
20.93,-0.176,0.403,-0.157
20.94,-0.4,1.389,-0.07
20.95,0.015,0.713,0.153
20.96,-0.275,1.306,-0.014
20.97,-0.235,0.471,-0.205
20.98,-0.206,1.574,-0.079
20.99,-0.103,0.97,0.158
21.0,-0.13,0.662,0.019
21.01,-0.432,1.036,-0.184
21.02,-0.127,1.269,-0.056
21.03,-0.169,1.132,0.123
21.04,-0.021,0.741,0.052
21.05,-0.525,0.926,-0.223
21.06,-0.116,1.533,0.023
21.07,-0.224,0.78,0.115
21.08,-0.13,1.082,0.024
21.09,-0.311,0.341,-0.173
21.1,-0.249,1.911,0.103
21.11,-0.04,0.699,0.161
21.12,-0.171,0.998,0.033
21.13,-0.313,0.407,-0.215
21.14,-0.233,1.71,0.076
21.15,-0.069,1.065,0.156
21.16,-0.106,0.505,0.028
21.17,-0.398,0.908,-0.172
21.18,-0.181,1.48,0.149
21.19,-0.268,1.191,0.111
21.2,-0.044,0.476,0.042
21.21,-0.402,0.89,-0.189
21.22,-0.105,1.584,0.071
21.23,-0.045,0.937,0.136
21.24,0.052,0.664,-0.059
21.25,-0.365,0.672,-0.17
21.26,-0.016,1.76,0.087
21.27,-0.021,0.752,0.054
21.28,-0.121,1.087,-0.033
21.29,-0.354,0.312,-0.192
21.3,-0.143,2.0,0.216
21.31,-0.098,0.723,0.127
21.32,-0.088,0.719,-0.048
21.33,-0.426,0.677,-0.196
21.34,-0.073,1.485,0.161
21.35,-0.165,1.303,0.082
21.36,-0.027,0.392,-0.05
21.37,-0.393,1.006,-0.148
21.38,-0.123,1.462,0.166
21.39,-0.191,1.197,0.08
21.4,-0.058,0.75,-0.032
21.41,-0.349,0.605,-0.122
21.42,-0.045,1.784,0.199
21.43,-0.014,0.899,0.041
21.44,-0.095,0.977,-0.11
21.45,-0.331,0.259,-0.18
21.46,-0.236,1.757,0.19
21.47,-0.199,0.887,0.062
21.48,-0.124,0.804,-0.091
21.49,-0.406,0.539,-0.181
21.5,-0.107,1.272,0.193
21.51,-0.329,1.312,0.015
21.52,-0.046,0.389,-0.103
21.53,-0.481,0.922,-0.187
21.54,-0.059,1.09,0.282
21.55,-0.35,1.363,0.063
21.56,-0.126,0.545,-0.096
21.57,-0.439,0.528,-0.115
21.58,-0.177,1.396,0.221
21.59,-0.197,0.921,0.008
21.6,-0.308,0.896,-0.087
21.61,-0.373,0.182,-0.074
21.62,-0.247,1.405,0.261
21.63,-0.251,0.992,0.041
21.64,-0.301,0.741,-0.072
21.65,-0.469,0.599,-0.05
21.66,0.016,1.002,0.194
21.67,-0.293,1.361,-0.028
21.68,-0.065,0.291,-0.168
21.69,-0.483,1.111,-0.044
21.7,0.098,0.769,0.138
21.71,-0.305,1.303,0.021
21.72,-0.2,0.523,-0.171
21.73,-0.372,0.835,-0.071
21.74,-0.075,1.024,0.116
21.75,-0.125,0.845,0.008
21.76,-0.37,0.94,-0.241
21.77,-0.125,1.146,-0.118
21.78,-0.109,1.153,0.098
21.79,-0.106,0.705,0.067
21.8,-0.369,0.867,-0.176
21.81,-0.264,1.657,-0.036
21.82,-0.076,0.772,0.13
21.83,-0.183,1.066,0.001
21.84,-0.352,0.412,-0.205
21.85,-0.374,1.962,0.03
21.86,-0.133,0.667,0.182
21.87,-0.215,1.064,0.062
21.88,-0.363,0.462,-0.19
21.89,-0.325,1.635,0.07
21.9,-0.212,1.03,0.149
21.91,-0.04,0.576,0.056
21.92,-0.423,0.979,-0.168
21.93,-0.193,1.396,0.158
21.94,-0.28,1.173,0.169
21.95,-0.017,0.547,0.067
21.96,-0.446,0.802,-0.209
21.97,-0.114,1.677,0.114
21.98,-0.182,0.846,0.16
21.99,-0.121,0.918,0.042
22.0,-0.391,0.341,-0.188
22.01,-0.133,1.966,0.158
22.02,-0.008,0.758,0.168
22.03,-0.266,0.863,-0.014
22.04,-0.292,0.287,-0.179
22.05,-0.168,1.928,0.144
22.06,0.073,0.855,0.076
22.07,-0.091,0.757,-0.053
22.08,-0.411,0.74,-0.211
22.09,-0.103,1.473,0.168
22.1,-0.095,1.267,0.05
22.11,0.02,0.472,0.011
22.12,-0.47,0.963,-0.151
22.13,-0.132,1.381,0.183
22.14,-0.221,1.231,0.059
22.15,-0.078,0.726,-0.081
22.16,-0.306,0.454,-0.177
22.17,-0.139,1.758,0.12
22.18,-0.077,0.842,0.008
22.19,-0.14,1.078,-0.114
22.2,-0.294,0.182,-0.189
22.21,-0.219,1.63,0.191
22.22,-0.215,0.936,0.015
22.23,-0.131,0.727,-0.12
22.24,-0.365,0.642,-0.184
22.25,-0.056,1.143,0.189
22.26,-0.326,1.429,-0.02
22.27,-0.157,0.264,-0.109
22.28,-0.397,0.874,-0.118
22.29,-0.016,1.01,0.17
22.3,-0.322,1.279,0.02
22.31,-0.215,0.587,-0.095
22.32,-0.536,0.472,-0.032
22.33,-0.087,1.221,0.193
22.34,-0.202,0.885,0.033
22.35,-0.344,0.862,-0.087
22.36,-0.416,0.385,-0.034
22.37,-0.169,1.219,0.159
22.38,-0.199,0.962,0.04
22.39,-0.288,0.625,-0.114
22.4,-0.305,1.097,-0.057
22.41,-0.084,0.79,0.142
22.42,-0.179,1.293,0.007
22.43,-0.297,0.362,-0.217
22.44,-0.33,1.446,-0.047
22.45,-0.094,0.699,0.103
22.46,-0.239,1.213,0.002
22.47,-0.331,0.558,-0.132
22.48,-0.187,1.571,-0.005
22.49,-0.123,1.031,0.126
22.5,0.015,0.55,-0.004
22.51,-0.508,1.057,-0.201
22.52,-0.113,1.38,0.03
22.53,-0.308,1.078,0.147
22.54,-0.087,0.716,0.007
22.55,-0.482,0.74,-0.175
22.56,-0.208,1.721,0.116
22.57,-0.162,0.701,0.143
22.58,-0.18,0.956,0.057
22.59,-0.469,0.292,-0.125
22.6,-0.214,1.877,0.146
22.61,-0.012,0.761,0.177
22.62,-0.241,0.832,-0.046
22.63,-0.423,0.474,-0.187
22.64,-0.131,1.756,0.122
22.65,-0.134,0.993,0.103
22.66,-0.009,0.412,-0.012
22.67,-0.416,1.029,-0.214
22.68,-0.003,1.435,0.171
22.69,-0.129,1.232,0.131
22.7,-0.032,0.487,0.024
22.71,-0.352,0.844,-0.18
22.72,-0.204,1.676,0.097
22.73,-0.105,0.849,0.089
22.74,-0.122,1.078,-0.068
22.75,-0.329,0.26,-0.119
22.76,-0.084,1.98,0.19
22.77,-0.021,0.784,0.067
22.78,-0.103,0.904,-0.052
22.79,-0.372,0.496,-0.161
22.8,-0.128,1.537,0.175
22.81,-0.184,1.292,0.013
22.82,-0.013,0.484,-0.109
22.83,-0.428,0.863,-0.171
22.84,-0.017,0.987,0.235
22.85,-0.344,1.372,0.008
22.86,-0.192,0.303,-0.089
22.87,-0.443,0.877,-0.025
22.88,-0.133,0.956,0.233
22.89,-0.296,1.284,0.035
22.9,-0.26,0.64,-0.103
22.91,-0.361,0.545,-0.028
22.92,-0.125,1.176,0.163
22.93,-0.141,0.767,0.035
22.94,-0.31,1.003,-0.153
22.95,-0.166,0.918,-0.033
22.96,-0.135,1.155,0.175
22.97,-0.177,0.832,0.01
22.98,-0.347,0.772,-0.169
22.99,-0.271,1.223,-0.063
23.0,-0.131,0.69,0.081
23.01,-0.239,1.313,0.009
23.02,-0.203,0.327,-0.185
23.03,-0.28,1.948,-0.031
23.04,-0.065,0.732,0.144
23.05,-0.2,0.944,0.061
23.06,-0.375,0.694,-0.15
23.07,-0.284,1.568,0.092
23.08,-0.191,1.129,0.178
23.09,-0.059,0.488,0.029
23.1,-0.545,0.962,-0.159
23.11,-0.101,1.4,0.132
23.12,-0.357,1.004,0.145
23.13,-0.053,0.752,-0.015
23.14,-0.494,0.713,-0.121
23.15,-0.171,1.756,0.112
23.16,-0.122,0.734,0.18
23.17,-0.167,0.891,-0.025
23.18,-0.349,0.286,-0.162
23.19,-0.08,1.974,0.055
23.2,-0.072,0.734,0.134
23.21,-0.114,0.843,-0.067
23.22,-0.376,0.55,-0.248
23.23,-0.011,1.721,0.121
23.24,-0.151,1.149,0.1
23.25,-0.068,0.296,-0.04
23.26,-0.505,1.056,-0.183
23.27,-0.061,1.443,0.158
23.28,-0.142,1.175,0.1
23.29,0.03,0.627,-0.052
23.3,-0.438,0.683,-0.16
23.31,-0.15,1.719,0.092
23.32,-0.116,0.863,0.086
23.33,-0.172,1.043,-0.085
23.34,-0.396,0.204,-0.113
23.35,-0.138,1.934,0.216
23.36,-0.097,0.823,0.079
23.37,-0.176,0.827,-0.054
23.38,-0.353,0.552,-0.149
23.39,-0.192,1.382,0.161
23.4,-0.337,1.289,0.054
23.41,0.027,0.485,-0.092
23.42,-0.454,0.857,-0.126
23.43,-0.105,1.042,0.219
23.44,-0.414,1.343,0.068
23.45,-0.223,0.531,-0.13
23.46,-0.413,0.578,-0.103
23.47,-0.095,1.286,0.149
23.48,-0.263,0.953,-0.021
23.49,-0.262,0.864,-0.074
23.5,-0.33,0.291,-0.075
23.51,-0.151,1.289,0.129
23.52,-0.147,0.866,-0.004
23.53,-0.466,0.802,-0.211
23.54,-0.397,0.665,-0.018
23.55,-0.118,0.96,0.149
23.56,-0.209,1.278,-0.042
23.57,-0.197,0.385,-0.175
23.58,-0.345,1.557,0.017
23.59,0.006,0.694,0.171
23.6,-0.307,1.236,-0.022
23.61,-0.232,0.479,-0.189
23.62,-0.191,1.768,-0.026
23.63,-0.066,0.971,0.087
23.64,-0.138,0.6,0.036
23.65,-0.43,0.712,-0.19
23.66,-0.233,1.592,0.079
23.67,-0.311,1.026,0.076
23.68,-0.05,0.558,-0.006
23.69,-0.426,1.012,-0.163
23.7,-0.037,1.414,0.091
23.71,-0.203,1.169,0.142
23.72,-0.108,0.544,0.005
23.73,-0.408,0.578,-0.116
23.74,-0.024,1.899,0.083
23.75,-0.012,0.691,0.132
23.76,-0.134,1.001,-0.076
23.77,-0.409,0.23,-0.167
23.78,-0.153,2.0,0.219
23.79,-0.135,0.706,0.085
23.8,-0.098,0.658,-0.078
23.81,-0.413,0.659,-0.217
23.82,-0.136,1.542,0.186
23.83,-0.167,1.324,0.042
23.84,0.01,0.413,-0.066
23.85,-0.433,0.913,-0.146
23.86,-0.101,1.29,0.19
23.87,-0.233,1.25,0.039
23.88,-0.107,0.714,-0.104
23.89,-0.386,0.481,-0.127
23.9,-0.171,1.583,0.134
23.91,-0.143,0.886,0.026
23.92,-0.244,0.973,-0.149
23.93,-0.395,0.209,-0.111
23.94,-0.129,1.512,0.161
23.95,-0.261,0.951,-0.053
23.96,-0.182,0.745,-0.1
23.97,-0.398,0.658,-0.149
23.98,0.052,1.054,0.169
23.99,-0.267,1.208,0.009
24.0,-0.263,0.435,-0.131
24.01,-0.469,0.963,0.001
24.02,-0.118,0.765,0.238
24.03,-0.292,1.332,0.011
24.04,-0.234,0.393,-0.106
24.05,-0.209,1.084,-0.046
24.06,-0.083,1.032,0.17
24.07,-0.094,0.747,0.008
24.08,-0.431,1.024,-0.218
24.09,-0.148,1.098,-0.008
24.1,-0.193,1.099,0.109
24.11,-0.098,0.765,0.008
24.12,-0.408,0.878,-0.208
24.13,-0.274,1.485,0.022
24.14,-0.14,0.78,0.171
24.15,-0.211,1.17,-0.002
24.16,-0.245,0.338,-0.2
24.17,-0.273,1.874,0.072
24.18,-0.042,0.741,0.161
24.19,-0.195,0.905,-0.001
24.2,-0.363,0.501,-0.211
24.21,-0.165,1.744,0.085
24.22,-0.104,1.037,0.07
24.23,-0.014,0.518,-0.037
24.24,-0.467,0.984,-0.197
24.25,-0.051,1.485,0.112
24.26,-0.283,1.174,0.123
24.27,-0.023,0.509,-0.011
24.28,-0.465,0.831,-0.153
24.29,-0.024,1.632,0.042
24.3,0.008,0.889,0.126
24.31,-0.125,0.884,-0.053
24.32,-0.311,0.344,-0.205
24.33,-0.214,1.92,0.144
24.34,0.011,0.647,0.13
24.35,-0.196,0.946,-0.02
24.36,-0.412,0.459,-0.155
24.37,-0.194,1.69,0.211
24.38,-0.128,1.098,0.086
24.39,-0.042,0.501,-0.01
24.4,-0.419,0.984,-0.142
24.41,-0.182,1.373,0.189
24.42,-0.29,1.343,0.127
24.43,-0.036,0.525,-0.052
24.44,-0.409,0.694,-0.152
24.45,-0.023,1.178,0.145
24.46,-0.282,1.22,0.028
24.47,-0.094,0.648,-0.143
24.48,-0.417,0.431,-0.176
24.49,-0.087,1.475,0.219
24.5,-0.254,0.932,-0.027
24.51,-0.195,0.902,-0.09
24.52,-0.412,0.208,-0.161
24.53,-0.081,1.435,0.187
24.54,-0.249,0.945,0.003
24.55,-0.269,0.668,-0.147
24.56,-0.475,0.693,-0.12
24.57,0.107,0.962,0.175
24.58,-0.369,1.367,0.038
24.59,-0.109,0.253,-0.162
24.6,-0.558,1.049,-0.054
24.61,0.077,0.784,0.148
24.62,-0.341,1.3,0.015
24.63,-0.177,0.488,-0.173
24.64,-0.262,1.226,-0.057
24.65,0.003,1.138,0.142
24.66,-0.107,0.648,0.042
24.67,-0.436,1.036,-0.2
24.68,-0.141,1.09,-0.049
24.69,-0.203,1.098,0.147
24.7,-0.083,0.826,0.028
24.71,-0.409,0.788,-0.226
24.72,-0.198,1.636,-0.012
24.73,-0.098,0.687,0.115
24.74,-0.123,1.212,-0.004
24.75,-0.32,0.368,-0.243
24.76,-0.218,1.958,0.047
24.77,-0.126,0.664,0.111
24.78,-0.112,0.949,0.009
24.79,-0.427,0.605,-0.195
24.8,-0.186,1.559,0.107
24.81,-0.222,1.175,0.178
24.82,0.008,0.413,0.002
24.83,-0.514,1.01,-0.185
24.84,-0.041,1.478,0.148
24.85,-0.298,1.065,0.097
24.86,0.008,0.616,0.014
24.87,-0.391,0.754,-0.155
24.88,-0.082,1.83,0.09
24.89,-0.168,0.743,0.156
24.9,-0.115,0.926,-0.006
24.91,-0.277,0.332,-0.18
24.92,-0.129,1.98,0.078
24.93,-0.056,0.597,0.141
24.94,-0.126,0.869,-0.035
24.95,-0.383,0.533,-0.173
24.96,-0.146,1.65,0.176
24.97,-0.031,1.037,0.048
24.98,0.001,0.505,-0.056
24.99,-0.394,1.02,-0.135
25.0,-0.063,1.425,0.201
25.01,-0.07,1.323,0.046
25.02,-0.035,0.597,-0.048
25.03,-0.312,0.709,-0.191
25.04,-0.09,1.668,0.103
25.05,0.004,0.939,0.041
25.06,-0.195,1.003,-0.101
25.07,-0.272,0.212,-0.138
25.08,-0.244,1.802,0.213
25.09,-0.122,0.832,0.061
25.1,-0.154,0.908,-0.092
25.11,-0.412,0.42,-0.154
25.12,-0.116,1.383,0.227
25.13,-0.299,1.285,-0.041
25.14,-0.051,0.424,-0.118
25.15,-0.453,0.874,-0.151
25.16,-0.068,0.976,0.206
25.17,-0.313,1.332,0.012
25.18,-0.217,0.459,-0.096
25.19,-0.452,0.673,-0.039
25.2,-0.135,1.151,0.231
25.21,-0.213,1.021,0.055
25.22,-0.261,0.868,-0.067
25.23,-0.387,0.407,-0.047
25.24,-0.157,1.266,0.174
25.25,-0.128,0.641,-0.023
25.26,-0.357,1.045,-0.181
25.27,-0.124,1.202,-0.082
25.28,-0.162,1.034,0.123
25.29,-0.126,0.839,-0.035
25.3,-0.399,0.695,-0.239
25.31,-0.289,1.522,0.03
25.32,-0.23,0.701,0.128
25.33,-0.237,1.203,0.038
25.34,-0.271,0.329,-0.216
25.35,-0.289,1.906,0.063
25.36,-0.012,0.783,0.105
25.37,-0.103,0.753,-0.03
25.38,-0.398,0.652,-0.177
25.39,-0.187,1.578,0.119
25.4,-0.21,1.113,0.136
25.41,0.034,0.482,-0.029
25.42,-0.606,0.958,-0.166
25.43,0.028,1.489,0.064
25.44,-0.386,1.007,0.049
25.45,0.011,0.708,-0.048
25.46,-0.479,0.672,-0.168
25.47,-0.031,1.769,0.058
25.48,-0.037,0.719,0.141
25.49,-0.142,0.942,-0.075
25.5,-0.288,0.17,-0.186
25.51,-0.122,1.99,0.156
25.52,-0.082,0.69,0.108
25.53,-0.162,0.899,-0.034
25.54,-0.27,0.581,-0.253
25.55,-0.074,1.751,0.237
25.56,-0.106,1.172,0.05
25.57,0.0,0.275,-0.067
25.58,-0.368,1.052,-0.16
25.59,-0.104,1.382,0.102
25.6,-0.349,1.317,0.061
25.61,0.01,0.628,-0.101
25.62,-0.365,0.537,-0.13
25.63,-0.125,1.726,0.13
25.64,-0.006,0.879,0.024
25.65,-0.207,1.035,-0.162
25.66,-0.256,0.209,-0.133
25.67,-0.272,1.656,0.197
25.68,-0.135,0.927,0.028
25.69,-0.214,0.734,-0.123
25.7,-0.32,0.569,-0.156
25.71,-0.004,1.106,0.104
25.72,-0.313,1.252,-0.097
25.73,-0.101,0.473,-0.114
25.74,-0.459,0.923,-0.074
25.75,0.003,0.855,0.169
25.76,-0.334,1.409,0.028
25.77,-0.281,0.406,-0.172
25.78,-0.403,0.724,-0.009
25.79,-0.038,1.024,0.113
25.8,-0.152,0.939,-0.016
25.81,-0.301,0.804,-0.148
25.82,-0.131,1.189,-0.049
25.83,-0.088,1.173,0.151
25.84,-0.048,0.623,0.024
25.85,-0.41,0.937,-0.218
25.86,-0.125,1.431,0.017
25.87,-0.254,0.809,0.126
25.88,-0.098,1.179,-0.012
25.89,-0.382,0.358,-0.22
25.9,-0.233,1.875,0.067
25.91,-0.101,0.671,0.189
25.92,-0.173,0.967,0.013
25.93,-0.394,0.411,-0.15
25.94,-0.159,1.708,0.05
25.95,0.013,1.017,0.166
25.96,-0.108,0.532,-0.063
25.97,-0.427,0.933,-0.181
25.98,-0.085,1.563,0.201
25.99,-0.243,1.107,0.155
26.0,-0.012,0.497,0.021
26.01,-0.446,0.892,-0.188
26.02,0.067,1.669,0.077
26.03,-0.122,0.85,0.131
26.04,-0.013,0.827,-0.047
26.05,-0.464,0.615,-0.134
26.06,-0.236,1.733,0.21
26.07,-0.21,0.824,0.171
26.08,-0.155,1.061,-0.046
26.09,-0.419,0.17,-0.172
26.1,-0.116,1.73,0.152
26.11,-0.184,0.953,0.029
26.12,-0.075,0.807,-0.122
26.13,-0.46,0.569,-0.186
26.14,-0.058,1.222,0.147
26.15,-0.354,1.344,0.024
26.16,0.01,0.358,-0.137
26.17,-0.532,0.922,-0.074
26.18,-0.039,0.909,0.227
26.19,-0.333,1.289,0.007
26.2,-0.195,0.524,-0.187
26.21,-0.352,0.553,-0.043
26.22,-0.088,1.195,0.124
26.23,-0.17,0.949,0.019
26.24,-0.334,0.857,-0.184
26.25,-0.271,0.343,-0.058
26.26,-0.107,1.251,0.075
26.27,-0.207,0.893,-0.009
26.28,-0.284,0.729,-0.146
26.29,-0.212,1.309,-0.086
26.3,-0.038,0.812,0.146
26.31,-0.26,1.201,0.015
26.32,-0.303,0.375,-0.184
26.33,-0.25,1.845,0.006
26.34,-0.124,0.669,0.152
26.35,-0.243,1.07,0.034
26.36,-0.326,0.566,-0.177
26.37,-0.31,1.62,0.033
26.38,-0.142,1.024,0.176
26.39,-0.101,0.569,0.027
26.4,-0.413,0.991,-0.182
26.41,-0.186,1.32,0.165
26.42,-0.172,1.254,0.159
26.43,-0.118,0.519,0.032
26.44,-0.373,0.829,-0.189
26.45,-0.105,1.731,0.108
26.46,-0.106,0.848,0.135
26.47,-0.147,0.876,0.013
26.48,-0.286,0.332,-0.202
26.49,-0.114,2.0,0.12
26.5,-0.099,0.658,0.169
26.51,-0.124,0.922,-0.027
26.52,-0.357,0.439,-0.235
26.53,-0.062,1.702,0.133
26.54,-0.051,1.045,0.093
26.55,0.017,0.472,-0.079
26.56,-0.427,0.97,-0.148
26.57,-0.013,1.399,0.148
26.58,-0.141,1.308,0.084
26.59,-0.159,1.014,0.02
26.6,-0.4,0.286,-0.161
26.61,-0.147,2.0,0.103
26.62,-0.136,0.738,0.149
26.63,-0.068,0.717,-0.056
26.64,-0.459,0.681,-0.189
26.65,-0.043,1.528,0.107
26.66,-0.086,1.134,0.139
26.67,0.029,0.421,-0.086
26.68,-0.461,1.045,-0.206
26.69,-0.005,1.384,0.137
26.7,-0.052,1.271,0.103
26.71,-0.021,0.594,-0.041
26.72,-0.42,0.735,-0.162
26.73,-0.088,1.778,0.141
26.74,-0.128,1.013,0.041
26.75,-0.058,0.917,-0.088
26.76,-0.406,0.297,-0.188
26.77,-0.208,1.729,0.167
26.78,-0.129,0.802,0.101
26.79,-0.246,0.895,-0.088
26.8,-0.392,0.253,-0.115
26.81,-0.228,1.46,0.211
26.82,-0.306,1.063,0.064
26.83,-0.127,0.563,-0.094
26.84,-0.437,0.754,-0.159
26.85,-0.077,1.073,0.211
26.86,-0.358,1.452,0.054
26.87,-0.152,0.312,-0.072
26.88,-0.473,0.813,-0.112
26.89,-0.04,1.151,0.168
26.9,-0.3,1.092,-0.007
26.91,-0.141,0.701,-0.103
26.92,-0.489,0.393,-0.05
26.93,-0.102,1.313,0.181
26.94,-0.199,0.738,0.06
26.95,-0.348,0.988,-0.094
26.96,-0.415,0.35,-0.019
26.97,-0.065,1.175,0.185
26.98,-0.2,1.131,-0.029
26.99,-0.174,0.473,-0.194
27.0,-0.371,1.012,-0.112
27.01,0.077,0.794,0.114
27.02,-0.243,1.308,-0.008
27.03,-0.143,0.341,-0.189
27.04,-0.345,1.533,-0.059
27.05,0.006,0.799,0.152
27.06,-0.233,1.023,0.044
27.07,-0.287,0.752,-0.238
27.08,-0.305,1.013,-0.008
27.09,-0.207,1.13,0.117
27.1,-0.088,0.681,0.033
27.11,-0.356,1.069,-0.193
27.12,-0.206,1.227,-0.058
27.13,-0.167,0.988,0.129
27.14,-0.134,0.864,0.054
27.15,-0.355,0.676,-0.162
27.16,-0.326,1.847,-0.018
27.17,-0.173,0.645,0.174
27.18,-0.267,1.124,0.156
27.19,-0.318,0.397,-0.108
27.2,-0.436,1.87,0.093
27.21,-0.225,0.707,0.184
27.22,-0.149,0.88,0.051
27.23,-0.31,0.646,-0.192
27.24,-0.184,1.537,0.084
27.25,-0.087,1.106,0.107
27.26,0.019,0.468,-0.01
27.27,-0.459,0.986,-0.181
27.28,-0.078,1.465,0.108
27.29,-0.242,1.114,0.12
27.3,0.015,0.646,0.018
27.31,-0.392,0.635,-0.218
27.32,-0.059,1.857,0.117
27.33,-0.115,0.673,0.029
27.34,-0.106,0.979,-0.022
27.35,-0.303,0.297,-0.222
27.36,-0.19,1.965,0.075
27.37,-0.075,0.73,0.189
27.38,-0.091,0.812,-0.004
27.39,-0.459,0.659,-0.206
27.4,-0.085,1.519,0.139
27.41,-0.114,1.225,0.142
27.42,-0.013,0.368,-0.001
27.43,-0.512,1.074,-0.173
27.44,-0.044,1.521,0.195
27.45,-0.17,1.094,0.096
27.46,0.059,0.637,-0.037
27.47,-0.45,0.693,-0.187
27.48,-0.014,1.751,0.083
27.49,0.0,0.815,0.044
27.5,-0.047,0.998,-0.121
27.51,-0.29,0.223,-0.182
27.52,-0.167,1.941,0.18
27.53,-0.007,0.782,0.052
27.54,-0.185,0.992,-0.07
27.55,-0.377,0.258,-0.153
27.56,-0.121,1.675,0.171
27.57,-0.265,1.103,0.074
27.58,-0.031,0.619,-0.068
27.59,-0.546,0.809,-0.147
27.6,-0.055,1.103,0.276
27.61,-0.39,1.434,0.067
27.62,-0.128,0.338,-0.08
27.63,-0.466,0.866,-0.138
27.64,-0.149,1.168,0.16
27.65,-0.221,1.171,0.041
27.66,-0.259,0.737,-0.132
27.67,-0.351,0.306,-0.111
27.68,-0.138,1.334,0.109
27.69,-0.096,0.828,-0.006
27.7,-0.277,0.864,-0.093
27.71,-0.467,0.356,-0.144
27.72,-0.109,1.183,0.195
27.73,-0.211,1.09,0.008
27.74,-0.245,0.474,-0.167
27.75,-0.431,0.94,-0.065
27.76,0.022,0.792,0.183
27.77,-0.239,1.417,0.021
27.78,-0.159,0.24,-0.15
27.79,-0.253,1.345,-0.068
27.8,0.005,0.821,0.134
27.81,-0.246,1.06,0.005
27.82,-0.282,0.731,-0.215
27.83,-0.212,0.894,-0.118
27.84,-0.114,1.118,0.069
27.85,-0.025,0.76,-0.039
27.86,-0.427,1.06,-0.213
27.87,-0.201,0.865,-0.028
27.88,-0.194,0.997,0.154
27.89,-0.1,1.033,0.053
27.9,-0.371,0.625,-0.177
27.91,-0.221,1.823,-0.0
27.92,-0.125,0.633,0.157
27.93,-0.187,1.162,0.047
27.94,-0.346,0.354,-0.175
27.95,-0.35,1.919,0.129
27.96,-0.137,0.731,0.161
27.97,-0.135,0.814,0.055
27.98,-0.392,0.778,-0.178
27.99,-0.185,1.538,0.093
28.0,-0.186,1.069,0.113
28.01,0.052,0.546,0.006
28.02,-0.462,1.006,-0.204
28.03,-0.078,1.43,0.083
28.04,-0.19,1.113,0.149
28.05,-0.027,0.584,0.013
28.06,-0.394,0.674,-0.139
28.07,-0.052,1.771,0.094
28.08,-0.053,0.772,0.161
28.09,-0.129,0.962,-0.015
28.1,-0.219,0.277,-0.226
28.11,-0.07,2.0,0.081
28.12,-0.069,0.711,0.132
28.13,-0.145,0.801,-0.001
28.14,-0.414,0.643,-0.243
28.15,-0.018,1.644,0.135
28.16,-0.219,1.15,0.134
28.17,0.04,0.368,-0.031
28.18,-0.467,1.041,-0.209
28.19,0.041,1.468,0.127
28.2,-0.198,1.112,0.091
28.21,0.01,0.589,-0.055
28.22,-0.451,0.721,-0.182
28.23,-0.073,1.693,0.125
28.24,0.005,0.805,0.087
28.25,-0.194,0.97,0.014
28.26,-0.395,0.24,-0.116
28.27,-0.266,1.926,0.266
28.28,-0.059,0.807,0.13
28.29,-0.149,0.793,-0.09
28.3,-0.346,0.563,-0.197
28.31,-0.144,1.525,0.11
28.32,-0.24,1.256,0.096
28.33,0.071,0.476,-0.063
28.34,-0.58,0.873,-0.11
28.35,0.002,1.218,0.256
28.36,-0.363,1.333,0.07
28.37,-0.052,0.369,-0.093
28.38,-0.506,0.868,-0.118
28.39,-0.122,1.296,0.219
28.4,-0.25,1.177,0.075
28.41,-0.156,0.752,-0.072
28.42,-0.416,0.34,-0.105
28.43,-0.157,1.477,0.245
28.44,-0.129,0.781,0.046
28.45,-0.243,0.935,-0.138
28.46,-0.418,0.296,-0.167
28.47,-0.116,1.323,0.215
28.48,-0.213,1.1,0.002
28.49,-0.198,0.479,-0.148
28.5,-0.453,0.847,-0.131
28.51,0.016,0.894,0.161
28.52,-0.311,1.395,0.017
28.53,-0.1,0.301,-0.131
28.54,-0.507,0.951,-0.066
28.55,-0.026,0.897,0.134
28.56,-0.257,1.083,0.018
28.57,-0.294,0.74,-0.176
28.58,-0.338,0.485,-0.029
28.59,-0.219,1.215,0.145
28.6,-0.178,0.795,0.055
28.61,-0.277,0.887,-0.104
28.62,-0.324,0.768,-0.017
28.63,-0.086,1.12,0.155
28.64,-0.162,0.946,0.0
28.65,-0.326,0.632,-0.156
28.66,-0.31,1.232,-0.029
28.67,-0.068,0.757,0.146
28.68,-0.219,1.304,0.018
28.69,-0.282,0.375,-0.209
28.7,-0.276,1.42,-0.008
28.71,-0.134,0.738,0.112
28.72,-0.278,1.066,0.042
28.73,-0.364,0.654,-0.196
28.74,-0.209,1.475,-0.071
28.75,-0.165,1.103,0.126
28.76,-0.012,0.568,0.044
28.77,-0.5,1.087,-0.205
28.78,-0.202,1.342,0.004
28.79,-0.236,1.082,0.174
28.8,-0.113,0.703,0.066
28.81,-0.438,0.666,-0.202
28.82,-0.203,1.886,0.02
28.83,-0.11,0.68,0.091
28.84,-0.172,1.068,0.039
28.85,-0.264,0.354,-0.197
28.86,-0.355,1.912,0.098
28.87,-0.045,0.743,0.177
28.88,-0.1,0.857,0.015
28.89,-0.383,0.633,-0.192
28.9,-0.11,1.582,0.1
28.91,-0.199,1.087,0.091
28.92,0.049,0.496,-0.028
28.93,-0.435,1.017,-0.245
28.94,0.031,1.395,0.074
28.95,-0.157,1.191,0.121
28.96,0.032,0.54,-0.014
28.97,-0.427,0.734,-0.202
28.98,-0.034,1.688,0.092
28.99,-0.081,0.721,0.158
29.0,-0.038,1.011,-0.056
29.01,-0.328,0.312,-0.242
29.02,-0.126,1.995,0.112
29.03,-0.056,0.676,0.154
29.04,-0.128,0.766,-0.006
29.05,-0.373,0.637,-0.202
29.06,-0.116,1.609,0.14
29.07,-0.089,1.078,0.098
29.08,0.009,0.462,-0.058
29.09,-0.51,1.03,-0.157
29.1,-0.009,1.389,0.175
29.11,-0.215,1.287,0.119
29.12,-0.069,0.556,0.038
29.13,-0.506,0.756,-0.144
29.14,-0.133,1.736,0.184
29.15,-0.229,1.132,0.062
29.16,-0.05,0.8,-0.09
29.17,-0.398,0.349,-0.184
29.18,-0.144,1.757,0.161
29.19,-0.083,0.858,0.072
29.2,-0.285,0.924,-0.12
29.21,-0.338,0.197,-0.177
29.22,-0.228,1.584,0.166
29.23,-0.232,1.013,0.055
29.24,-0.279,0.552,-0.082
29.25,-0.455,0.702,-0.138
29.26,-0.12,1.119,0.216
29.27,-0.363,1.41,0.144
29.28,-0.189,0.281,-0.099
29.29,-0.492,0.867,-0.125
29.3,-0.088,1.095,0.206
29.31,-0.304,1.199,0.045
29.32,-0.206,0.658,-0.115
29.33,-0.463,0.356,-0.072
29.34,-0.145,1.403,0.227
29.35,-0.167,0.87,0.034
29.36,-0.337,0.915,-0.115
29.37,-0.502,0.259,-0.094
29.38,-0.084,1.31,0.198
29.39,-0.25,0.98,0.038
29.4,-0.282,0.595,-0.085
29.41,-0.505,0.811,-0.129
29.42,0.046,0.902,0.208
29.43,-0.328,1.365,0.012
29.44,-0.102,0.379,-0.128
29.45,-0.545,1.047,-0.07
29.46,0.095,0.849,0.149
29.47,-0.24,1.2,0.002
29.48,-0.196,0.581,-0.163
29.49,-0.327,0.928,-0.056
29.5,-0.046,1.135,0.214
29.51,-0.115,0.684,0.052
29.52,-0.326,1.017,-0.142
29.53,-0.406,0.595,-0.068
29.54,-0.092,1.172,0.147
29.55,-0.156,0.997,-0.022
29.56,-0.379,0.668,-0.184
29.57,-0.326,1.241,-0.024
29.58,-0.079,0.784,0.191
29.59,-0.149,1.256,0.106
29.6,-0.227,0.374,-0.168
29.61,-0.313,1.823,-0.075
29.62,-0.104,0.746,0.156
29.63,-0.184,1.066,0.088
29.64,-0.304,0.608,-0.187
29.65,-0.296,1.233,-0.042
29.66,-0.188,1.02,0.095
29.67,-0.068,0.773,0.023
29.68,-0.407,1.014,-0.174
29.69,-0.212,1.206,-0.011
29.7,-0.263,1.043,0.171
29.71,-0.109,0.802,0.064
29.72,-0.435,0.827,-0.171
29.73,-0.296,1.609,0.037
29.74,-0.233,0.722,0.204
29.75,-0.148,1.197,0.095
29.76,-0.336,0.307,-0.174
29.77,-0.292,1.916,0.072
29.78,-0.106,0.75,0.145
29.79,-0.14,0.925,0.016
29.8,-0.247,0.566,-0.15
29.81,-0.352,1.596,0.028
29.82,-0.104,1.042,0.168
29.83,-0.048,0.575,0.016
29.84,-0.535,0.974,-0.194
29.85,-0.116,1.391,0.063
29.86,-0.421,0.998,0.133
29.87,-0.039,0.716,0.076
29.88,-0.472,0.796,-0.167
29.89,-0.264,1.624,0.167
29.9,-0.25,0.757,0.106
29.91,-0.136,0.943,0.002
29.92,-0.3,0.281,-0.184
29.93,-0.23,2.0,0.121
29.94,-0.12,0.654,0.142
29.95,-0.078,1.015,-0.03
29.96,-0.38,0.267,-0.21
29.97,-0.037,2.0,0.134
29.98,-0.128,0.797,0.083
29.99,-0.091,0.656,-0.024
30.0,-0.46,0.742,-0.244
30.01,-0.045,1.495,0.177
30.02,-0.159,1.281,0.119
30.03,0.028,0.407,-0.004
30.04,-0.545,0.959,-0.22
30.05,0.018,1.53,0.149
30.06,-0.228,1.165,0.044
30.07,0.063,0.827,-0.032
30.08,-0.49,0.53,-0.119
30.09,-0.095,1.843,0.207
30.1,-0.04,0.849,0.074
30.11,-0.109,1.035,-0.044
30.12,-0.348,0.292,-0.171
30.13,-0.146,1.859,0.186
30.14,-0.076,0.883,0.053
30.15,-0.079,0.875,-0.034
30.16,-0.469,0.641,-0.148
30.17,-0.111,1.4,0.217
30.18,-0.301,1.325,0.034
30.19,-0.015,0.471,-0.035
30.2,-0.477,0.941,-0.107
30.21,-0.121,1.257,0.246
30.22,-0.306,1.302,0.045
30.23,-0.112,0.629,-0.11
30.24,-0.386,0.549,-0.127
30.25,-0.173,1.54,0.178
30.26,-0.242,0.867,0.046
30.27,-0.109,0.978,-0.124
30.28,-0.462,0.173,-0.131
30.29,-0.129,1.495,0.192
30.3,-0.241,0.837,-0.044
30.31,-0.228,0.744,-0.141
30.32,-0.456,0.627,-0.109
30.33,0.036,0.99,0.166
30.34,-0.329,1.361,-0.022
30.35,-0.074,0.268,-0.141
30.36,-0.525,1.178,-0.026
30.37,0.034,0.744,0.163
30.38,-0.404,1.274,0.077
30.39,-0.207,0.567,-0.236
30.4,-0.402,0.809,0.004
30.41,-0.082,1.061,0.016
30.42,-0.169,0.855,0.043
30.43,-0.371,0.93,-0.207
30.44,-0.362,0.559,-0.02
30.45,-0.129,1.171,0.141
30.46,-0.197,0.935,0.041
30.47,-0.349,0.755,-0.174
30.48,-0.25,1.309,0.037
30.49,-0.054,0.784,0.123
30.5,-0.242,1.232,-0.014
30.51,-0.29,0.383,-0.19
30.52,-0.223,1.938,-0.002
30.53,-0.121,0.602,0.114
30.54,-0.097,1.113,0.001
30.55,-0.425,0.439,-0.246
30.56,-0.158,1.697,0.055
30.57,-0.167,0.977,0.103
30.58,-0.026,0.543,-0.024
30.59,-0.472,0.919,-0.206
30.6,-0.107,1.485,0.086
30.61,-0.293,1.078,0.142
30.62,0.021,0.556,0.047
30.63,-0.538,0.905,-0.167
30.64,-0.054,1.699,0.085
30.65,-0.106,0.91,0.21
30.66,-0.094,0.86,-0.014
30.67,-0.329,0.358,-0.165
30.68,-0.169,2.0,0.148
30.69,0.045,0.608,0.145
30.7,-0.144,1.02,-0.059
30.71,-0.259,0.388,-0.239
30.72,-0.121,1.849,0.176
30.73,-0.046,0.994,0.023
30.74,0.044,0.547,-0.058
30.75,-0.445,0.917,-0.173
30.76,-0.088,1.397,0.18
30.77,-0.347,1.327,0.054
30.78,-0.042,0.501,-0.068
30.79,-0.516,0.889,-0.088
30.8,-0.141,1.143,0.244
30.81,-0.365,1.314,0.053
30.82,-0.15,0.585,-0.132
30.83,-0.464,0.497,-0.089
30.84,-0.117,1.37,0.233
30.85,-0.281,0.885,0.011
30.86,-0.242,0.898,-0.056
30.87,-0.403,0.259,-0.076
30.88,-0.046,1.313,0.124
30.89,-0.191,0.826,-0.072
30.9,-0.284,0.751,-0.138
30.91,-0.339,0.772,-0.102
30.92,-0.096,0.838,0.121
30.93,-0.24,1.262,-0.017
30.94,-0.254,0.322,-0.221
30.95,-0.254,1.4,-0.06
30.96,-0.025,0.676,0.064
30.97,-0.295,1.238,-0.013
30.98,-0.255,0.584,-0.19
30.99,-0.222,1.636,-0.077
31.0,-0.177,0.985,0.138
31.01,-0.034,0.645,0.024
31.02,-0.548,1.052,-0.185
31.03,-0.123,1.296,0.06
31.04,-0.311,1.115,0.187
31.05,-0.152,0.668,0.015
31.06,-0.406,0.867,-0.156
31.07,-0.158,1.676,0.055
31.08,-0.091,0.84,0.121
31.09,-0.205,0.843,0.019
31.1,-0.356,0.349,-0.172
31.11,-0.155,2.0,0.086
31.12,-0.04,0.659,0.117
31.13,-0.164,0.977,-0.033
31.14,-0.368,0.383,-0.207
31.15,-0.086,1.896,0.111
31.16,-0.148,0.964,0.111
31.17,-0.028,0.468,-0.043
31.18,-0.495,0.964,-0.181
31.19,-0.015,1.407,0.168
31.2,-0.088,1.259,0.105
31.21,0.069,0.563,-0.032
31.22,-0.454,0.863,-0.17
31.23,-0.051,1.573,0.146
31.24,-0.115,1.007,0.035
31.25,-0.094,0.955,-0.078
31.26,-0.313,0.292,-0.183
31.27,-0.199,1.804,0.147
31.28,-0.079,0.82,0.039
31.29,-0.162,0.987,-0.126
31.3,-0.371,0.283,-0.185
31.31,-0.117,1.449,0.119
31.32,-0.269,1.063,-0.015
31.33,-0.155,0.521,-0.115
31.34,-0.532,0.798,-0.059
31.35,-0.042,0.933,0.207
31.36,-0.425,1.485,0.05
31.37,-0.179,0.309,-0.108
31.38,-0.534,0.835,-0.005
31.39,0.032,0.956,0.192
31.4,-0.217,1.112,0.002
31.41,-0.223,0.724,-0.216
31.42,-0.226,0.659,-0.041
31.43,-0.134,1.2,0.102
31.44,-0.111,0.708,0.034
31.45,-0.437,1.006,-0.167
31.46,-0.217,0.905,0.014
31.47,-0.205,1.0,0.189
31.48,-0.193,0.977,0.028
31.49,-0.348,0.6,-0.199
31.5,-0.177,1.632,-0.01
31.51,-0.15,0.641,0.147
31.52,-0.18,1.26,0.056
31.53,-0.315,0.311,-0.199
31.54,-0.18,1.855,0.007
31.55,-0.108,0.801,0.118
31.56,-0.217,0.864,0.002
31.57,-0.428,0.473,-0.134
31.58,-0.21,1.841,0.179
31.59,-0.223,0.909,0.132
31.6,-0.042,0.511,-0.028
31.61,-0.533,1.008,-0.179
31.62,-0.054,1.416,0.119
31.63,-0.266,1.157,0.194
31.64,0.033,0.476,-0.01
31.65,-0.404,0.896,-0.189
31.66,-0.089,1.566,0.138
31.67,-0.025,1.009,0.079
31.68,-0.094,0.896,-0.079
31.69,-0.282,0.329,-0.167
31.7,-0.168,1.969,0.225
31.71,-0.016,0.694,0.131
31.72,-0.14,1.006,-0.066
31.73,-0.367,0.392,-0.16
31.74,-0.189,1.721,0.249
31.75,-0.173,1.139,0.069
31.76,-0.046,0.563,-0.056
31.77,-0.407,0.854,-0.161
31.78,-0.115,1.255,0.199
31.79,-0.354,1.423,0.056
31.8,-0.064,0.417,-0.086
31.81,-0.478,0.794,-0.138
31.82,-0.102,1.28,0.204
31.83,-0.286,1.187,0.04
31.84,-0.222,0.824,-0.129
31.85,-0.316,0.259,-0.078
31.86,-0.263,1.492,0.241
31.87,-0.2,0.866,0.039
31.88,-0.248,0.903,-0.089
31.89,-0.395,0.372,-0.09
31.9,-0.029,1.184,0.129
31.91,-0.187,1.022,-0.067
31.92,-0.247,0.542,-0.187
31.93,-0.327,0.912,-0.077
31.94,-0.023,0.71,0.094
31.95,-0.27,1.415,-0.069
31.96,-0.214,0.279,-0.188
31.97,-0.214,1.365,-0.054
31.98,0.008,0.788,0.103
31.99,-0.224,1.029,-0.018
32.0,-0.294,0.725,-0.228
32.01,-0.128,1.303,-0.077
32.02,-0.179,1.159,0.11
32.03,-0.041,0.664,0.011
32.04,-0.468,1.012,-0.236
32.05,-0.149,1.298,0.097
32.06,-0.23,1.068,0.126
32.07,-0.187,0.839,0.005
32.08,-0.349,0.63,-0.115
32.09,-0.295,1.852,0.119
32.1,-0.079,0.648,0.167
32.11,-0.196,1.066,0.063
32.12,-0.43,0.18,-0.16
32.13,-0.182,2.0,0.15
32.14,-0.215,0.692,0.085
32.15,-0.106,0.816,0.019
32.16,-0.426,0.637,-0.23
32.17,-0.007,1.561,0.059
32.18,-0.144,1.159,0.081
32.19,0.069,0.341,-0.09
32.2,-0.527,0.969,-0.184
32.21,0.035,1.44,0.123
32.22,-0.232,1.166,0.083
32.23,0.057,0.753,0.014
32.24,-0.468,0.628,-0.137
32.25,-0.086,1.841,0.269
32.26,-0.064,0.801,0.112
32.27,-0.129,0.968,-0.075
32.28,-0.381,0.279,-0.124
32.29,-0.221,1.834,0.177
32.3,-0.195,0.89,0.055
32.31,-0.103,0.841,-0.098
32.32,-0.327,0.474,-0.171
32.33,-0.208,1.377,0.192
32.34,-0.335,1.217,0.08
32.35,-0.095,0.458,-0.145
32.36,-0.482,0.78,-0.053
32.37,0.011,0.932,0.217
32.38,-0.326,1.426,0.007
32.39,-0.135,0.243,-0.142
32.4,-0.383,1.117,-0.046
32.41,-0.002,0.872,0.206
32.42,-0.248,1.077,0.066
32.43,-0.27,0.794,-0.215
32.44,-0.33,0.948,-0.0
32.45,-0.015,1.221,0.157
32.46,-0.143,0.686,0.032
32.47,-0.321,1.047,-0.229
32.48,-0.185,1.212,-0.077
32.49,-0.176,1.076,0.136
32.5,-0.133,0.901,0.017
32.51,-0.341,0.57,-0.217
32.52,-0.193,1.874,0.008
32.53,-0.072,0.632,0.107
32.54,-0.115,1.127,0.012
32.55,-0.341,0.297,-0.264
32.56,-0.26,1.956,0.081
32.57,-0.128,0.805,0.083
32.58,-0.163,0.894,0.036
32.59,-0.443,0.668,-0.222
32.6,-0.145,1.597,0.14
32.61,-0.285,1.105,0.114
32.62,-0.024,0.458,0.01
32.63,-0.423,0.988,-0.2
32.64,-0.032,1.487,0.053
32.65,-0.216,1.096,0.141
32.66,0.003,0.648,-0.017
32.67,-0.478,0.613,-0.184
32.68,0.048,1.822,0.058
32.69,-0.159,0.737,0.1
32.7,-0.078,1.016,-0.048
32.71,-0.344,0.271,-0.22
32.72,-0.024,2.0,0.092
32.73,-0.038,0.737,0.052
32.74,-0.068,0.785,-0.067
32.75,-0.415,0.625,-0.211
32.76,-0.1,1.585,0.163
32.77,-0.088,1.131,0.074
32.78,-0.001,0.492,-0.05
32.79,-0.499,1.007,-0.145
32.8,-0.043,1.349,0.178
32.81,-0.183,1.323,0.053
32.82,-0.019,0.623,-0.055
32.83,-0.359,0.621,-0.096
32.84,-0.194,1.672,0.148
32.85,-0.085,0.851,-0.003
32.86,-0.124,1.043,-0.151
32.87,-0.307,0.109,-0.169
32.88,-0.251,1.645,0.219
32.89,-0.259,0.927,0.049
32.9,-0.192,0.789,-0.118
32.91,-0.42,0.478,-0.166
32.92,-0.105,1.219,0.234
32.93,-0.336,1.25,-0.01
32.94,-0.133,0.393,-0.14
32.95,-0.497,0.907,-0.062
32.96,-0.039,0.875,0.238
32.97,-0.366,1.382,0.055
32.98,-0.238,0.459,-0.114
32.99,-0.484,0.791,0.011
33.0,-0.065,1.005,0.148
33.01,-0.236,0.889,0.033
33.02,-0.266,0.863,-0.216
33.03,-0.129,0.873,-0.05
33.04,-0.147,1.219,0.147
33.05,-0.145,0.683,0.051
33.06,-0.383,1.007,-0.167
33.07,-0.324,0.984,-0.012
33.08,-0.136,0.872,0.134
33.09,-0.286,1.206,0.04
33.1,-0.141,0.413,-0.236
33.11,-0.299,1.916,-0.034
33.12,-0.054,0.607,0.176
33.13,-0.252,1.161,-0.001
33.14,-0.292,0.405,-0.219
33.15,-0.211,1.827,0.049
33.16,-0.167,0.735,0.112
33.17,-0.052,0.84,0.002
33.18,-0.442,0.538,-0.262
33.19,-0.027,1.689,0.081
33.2,-0.287,1.071,0.096
33.21,0.063,0.413,-0.006
33.22,-0.513,0.958,-0.166
33.23,0.078,1.406,0.102
33.24,-0.091,1.258,0.133
33.25,-0.023,0.493,-0.065
33.26,-0.317,0.689,-0.128
33.27,-0.055,1.855,0.094
33.28,0.003,0.67,0.112
33.29,-0.157,1.011,-0.091
33.3,-0.322,0.336,-0.174
33.31,-0.21,1.951,0.211
33.32,-0.044,0.794,0.072
33.33,-0.105,0.801,-0.031
33.34,-0.301,0.586,-0.135
33.35,-0.184,1.456,0.156
33.36,-0.245,1.216,0.053
33.37,-0.081,0.518,-0.153
33.38,-0.415,0.858,-0.147
33.39,-0.161,1.154,0.193
33.4,-0.363,1.345,0.021
33.41,-0.106,0.487,-0.12
33.42,-0.447,0.602,-0.139
33.43,-0.101,1.294,0.199
33.44,-0.237,0.975,-0.001
33.45,-0.381,0.881,-0.08
33.46,-0.385,0.171,-0.011
33.47,-0.15,1.396,0.209
33.48,-0.203,0.798,-0.006
33.49,-0.273,0.836,-0.164
33.5,-0.349,0.736,-0.088
33.51,0.039,0.925,0.124
33.52,-0.251,1.196,-0.004
33.53,-0.178,0.435,-0.184
33.54,-0.308,1.58,-0.045
33.55,0.049,0.707,0.163
33.56,-0.299,1.22,0.027
33.57,-0.289,0.491,-0.214
33.58,-0.266,1.623,-0.052
33.59,-0.101,0.921,0.125
33.6,-0.146,0.77,0.014
33.61,-0.384,0.958,-0.184
33.62,-0.222,1.346,0.044
33.63,-0.205,1.156,0.185
33.64,-0.089,0.503,0.076
33.65,-0.522,0.989,-0.128
33.66,-0.178,1.62,0.098
33.67,-0.192,0.912,0.129
33.68,-0.097,0.891,-0.002
33.69,-0.433,0.434,-0.166
33.7,-0.196,1.906,0.165
33.71,-0.095,0.7,0.133
33.72,-0.094,0.944,-0.02
33.73,-0.264,0.339,-0.235
33.74,-0.04,1.798,0.012
33.75,-0.038,0.942,0.144
33.76,-0.068,0.596,-0.071
33.77,-0.448,0.835,-0.246
33.78,-0.017,1.425,0.104
33.79,-0.213,1.191,0.133
33.8,0.024,0.426,-0.009
33.81,-0.466,1.01,-0.195
33.82,-0.039,1.538,0.168
33.83,-0.113,1.017,0.167
33.84,-0.02,0.762,-0.059
33.85,-0.376,0.485,-0.134
33.86,-0.155,1.866,0.12
33.87,0.072,0.7,0.048
33.88,-0.116,1.069,-0.061
33.89,-0.314,0.277,-0.142
33.9,-0.198,1.775,0.17
33.91,-0.055,0.966,0.066
33.92,-0.117,0.625,-0.088
33.93,-0.4,0.776,-0.162
33.94,-0.052,1.396,0.16
33.95,-0.319,1.316,0.026
33.96,0.062,0.445,-0.089
33.97,-0.521,0.847,-0.153
33.98,0.017,0.96,0.217
33.99,-0.364,1.437,0.008
34.0,-0.195,0.362,-0.094
34.01,-0.5,0.637,-0.09
34.02,-0.116,1.179,0.228
34.03,-0.329,1.01,0.044
34.04,-0.303,0.805,-0.101
34.05,-0.406,0.254,-0.055
34.06,-0.143,1.329,0.177
34.07,-0.241,0.823,0.049
34.08,-0.296,0.848,-0.086
34.09,-0.369,0.625,-0.107
34.1,-0.037,0.975,0.121
34.11,-0.218,1.204,-0.03
34.12,-0.183,0.387,-0.255
34.13,-0.246,1.499,-0.121
34.14,0.047,0.701,0.107
34.15,-0.34,1.266,0.027
34.16,-0.232,0.445,-0.185
34.17,-0.216,1.53,-0.123
34.18,-0.043,0.871,0.108
34.19,-0.112,0.824,0.027
34.2,-0.449,0.942,-0.214
34.21,-0.154,1.159,-0.029
34.22,-0.234,1.143,0.131
34.23,0.006,0.706,0.035
34.24,-0.483,0.942,-0.201
34.25,-0.159,1.491,0.005
34.26,-0.236,0.892,0.18
34.27,-0.174,0.861,0.04
34.28,-0.41,0.531,-0.145
34.29,-0.372,1.989,0.151
34.3,-0.17,0.624,0.222
34.31,-0.209,1.056,0.07
34.32,-0.42,0.416,-0.225
34.33,-0.18,1.882,0.049
34.34,-0.143,0.826,0.092
34.35,-0.014,0.701,0.018
34.36,-0.398,0.892,-0.2
34.37,-0.156,1.327,0.091
34.38,-0.268,1.24,0.196
34.39,0.035,0.423,0.038
34.4,-0.406,0.988,-0.193
34.41,-0.092,1.476,0.032
34.42,-0.152,1.086,0.163
34.43,-0.071,0.705,-0.032
34.44,-0.307,0.521,-0.194
34.45,-0.105,1.937,0.053
34.46,0.021,0.656,0.107
34.47,-0.096,1.033,-0.006
34.48,-0.35,0.342,-0.252
34.49,-0.098,1.944,0.102
34.5,-0.112,0.819,0.106
34.51,-0.029,0.662,-0.067
34.52,-0.312,0.797,-0.255
34.53,-0.043,1.512,0.108
34.54,-0.054,1.195,0.144
34.55,-0.0,0.447,-0.019
34.56,-0.432,1.007,-0.189
34.57,-0.029,1.502,0.127
34.58,-0.068,1.126,0.127
34.59,-0.055,0.665,-0.053
34.6,-0.389,0.639,-0.177
34.61,-0.14,1.786,0.165
34.62,-0.04,0.69,0.117
34.63,-0.141,0.974,-0.02
34.64,-0.38,0.379,-0.192
34.65,-0.154,1.88,0.087
34.66,-0.052,0.798,0.059
34.67,-0.056,0.792,-0.04
34.68,-0.433,0.708,-0.183
34.69,-0.102,1.548,0.164
34.7,-0.163,1.311,0.099
34.71,-0.033,0.41,0.018
34.72,-0.522,1.068,-0.17
34.73,-0.131,1.473,0.206
34.74,-0.235,1.208,0.083
34.75,-0.041,0.619,-0.005
34.76,-0.476,0.62,-0.112
34.77,-0.067,1.473,0.201
34.78,-0.198,0.983,0.062
34.79,-0.132,0.905,-0.06
34.8,-0.383,0.191,-0.232
34.81,-0.179,1.794,0.184
34.82,-0.128,0.864,0.084
34.83,-0.196,0.952,-0.052
34.84,-0.384,0.333,-0.147
34.85,-0.208,1.546,0.216
34.86,-0.231,1.177,0.091
34.87,-0.093,0.553,-0.063
34.88,-0.432,0.836,-0.177
34.89,-0.127,1.142,0.206
34.9,-0.257,1.378,0.075
34.91,-0.136,0.41,-0.102
34.92,-0.459,0.791,-0.117
34.93,-0.152,1.839,0.117
34.94,-0.022,0.753,0.153
34.95,-0.169,0.818,0.011
34.96,-0.304,0.594,-0.252
34.97,-0.057,1.705,0.079
34.98,-0.029,1.021,0.128
34.99,0.025,0.461,-0.055
35.0,-0.436,1.057,-0.245
35.01,0.003,1.429,0.075
35.02,-0.139,1.156,0.096
35.03,0.06,0.514,-0.037
35.04,-0.499,0.905,-0.199
35.05,-0.039,1.681,0.075
35.06,-0.087,0.823,0.097
35.07,0.004,0.947,-0.059
35.08,-0.37,0.385,-0.194
35.09,-0.106,1.969,0.127
35.1,-0.073,0.639,0.122
35.11,-0.089,0.967,-0.016
35.12,-0.412,0.478,-0.231
35.13,-0.092,1.739,0.191
35.14,-0.107,1.069,0.111
35.15,0.06,0.41,-0.043
35.16,-0.485,1.06,-0.187
35.17,0.021,1.453,0.145
35.18,-0.205,1.216,0.078
35.19,0.068,0.572,-0.05
35.2,-0.461,0.881,-0.183
35.21,-0.038,1.696,0.11
35.22,-0.072,0.893,0.093
35.23,-0.028,0.957,-0.074
35.24,-0.428,0.343,-0.155
35.25,-0.124,1.927,0.198
35.26,-0.084,0.718,0.16
35.27,-0.125,0.94,-0.05
35.28,-0.441,0.396,-0.148
35.29,-0.127,1.699,0.132
35.3,-0.15,1.09,0.05
35.31,0.057,0.582,-0.044
35.32,-0.521,0.912,-0.172
35.33,-0.04,1.299,0.147
35.34,-0.244,1.309,0.113
35.35,0.027,0.517,-0.04
35.36,-0.428,0.863,-0.176
35.37,-0.082,1.462,0.116
35.38,-0.199,1.02,0.055
35.39,-0.075,0.854,-0.104
35.4,-0.37,0.343,-0.162
35.41,-0.2,1.693,0.171
35.42,-0.184,0.796,0.134
35.43,-0.139,0.926,-0.08
35.44,-0.423,0.259,-0.208
35.45,-0.16,1.537,0.22
35.46,-0.208,0.801,-0.01
35.47,-0.095,0.773,-0.149
35.48,-0.459,0.583,-0.203
35.49,0.003,1.166,0.222
35.5,-0.297,1.334,0.01
35.51,-0.004,0.34,-0.149
35.52,-0.57,0.95,-0.165
35.53,0.073,1.049,0.208
35.54,-0.269,1.345,0.035
35.55,-0.093,0.478,-0.123
35.56,-0.475,0.589,-0.076
35.57,-0.054,1.295,0.197
35.58,-0.191,0.918,0.023
35.59,-0.249,0.882,-0.127
35.6,-0.362,0.209,-0.153
35.61,-0.152,1.503,0.195
35.62,-0.254,0.907,0.013
35.63,-0.091,0.754,-0.113
35.64,-0.524,0.566,-0.2
35.65,0.06,1.161,0.205
35.66,-0.268,1.282,-0.039
35.67,-0.047,0.372,-0.108
35.68,-0.546,0.966,-0.091
35.69,-0.02,0.906,0.229
35.7,-0.407,1.434,0.054
35.71,-0.069,0.423,-0.086
35.72,-0.521,0.671,-0.08
35.73,-0.027,1.163,0.191
35.74,-0.161,0.948,-0.071
35.75,-0.194,0.841,-0.129
35.76,-0.437,0.29,-0.084
35.77,-0.072,1.375,0.201
35.78,-0.255,0.809,0.072
35.79,-0.299,0.844,-0.084
35.8,-0.457,0.57,-0.091
35.81,-0.049,0.993,0.175
35.82,-0.253,1.3,-0.016
35.83,-0.151,0.324,-0.137
35.84,-0.605,1.105,-0.041
35.85,0.042,0.829,0.132
35.86,-0.215,1.287,0.081
35.87,-0.203,0.317,-0.219
35.88,-0.375,1.439,-0.055
35.89,-0.106,0.822,0.136
35.9,-0.243,1.058,0.054
35.91,-0.337,0.664,-0.157
35.92,-0.301,1.146,-0.029
35.93,-0.096,1.089,0.113
35.94,-0.057,0.739,0.045
35.95,-0.411,1.003,-0.195
35.96,-0.181,0.987,-0.036
35.97,-0.173,1.097,0.134
35.98,-0.07,0.891,-0.018
35.99,-0.336,0.732,-0.2
36.0,-0.156,1.676,-0.105
36.01,-0.104,0.74,0.171
36.02,-0.121,1.148,0.034
36.03,-0.286,0.336,-0.213
36.04,-0.229,1.946,-0.094
36.05,-0.081,0.742,0.143
36.06,-0.15,0.997,0.059
36.07,-0.393,0.658,-0.165
36.08,-0.264,1.566,-0.005
36.09,-0.166,1.011,0.107
36.1,-0.048,0.656,0.06
36.11,-0.472,0.995,-0.172
36.12,-0.214,1.366,0.084
36.13,-0.242,1.095,0.19
36.14,-0.095,0.696,0.083
36.15,-0.383,0.816,-0.177
36.16,-0.349,1.72,0.094
36.17,-0.071,0.788,0.158
36.18,-0.188,0.992,0.031
36.19,-0.252,0.374,-0.19
36.2,-0.353,2.0,0.096
36.21,-0.1,0.682,0.135
36.22,-0.157,0.92,0.032
36.23,-0.361,0.583,-0.164
36.24,-0.25,1.687,0.088
36.25,-0.253,1.021,0.119
36.26,-0.091,0.658,0.009
36.27,-0.404,0.794,-0.22
36.28,0.048,1.489,0.064
36.29,-0.163,1.214,0.115
36.3,0.104,0.386,-0.041
36.31,-0.444,0.976,-0.227
36.32,0.033,1.486,0.067
36.33,-0.105,1.073,0.109
36.34,0.018,0.749,-0.06
36.35,-0.417,0.556,-0.201
36.36,-0.091,1.913,0.151
36.37,-0.112,0.66,0.166
36.38,-0.16,0.968,0.011
36.39,-0.422,0.347,-0.183
36.4,-0.232,1.823,0.159
36.41,0.002,0.883,0.122
36.42,-0.114,0.671,0.001
36.43,-0.365,0.82,-0.257
36.44,-0.086,1.519,0.106
36.45,-0.066,1.237,0.117
36.46,-0.005,0.465,0.001
36.47,-0.535,1.112,-0.197
36.48,-0.035,1.482,0.131
36.49,-0.105,1.119,0.105
36.5,0.05,0.688,-0.001
36.51,-0.465,0.679,-0.193
36.52,-0.145,1.766,0.206
36.53,0.004,0.714,0.069
36.54,-0.111,1.037,-0.053
36.55,-0.317,0.329,-0.213
36.56,-0.141,1.921,0.133
36.57,-0.054,0.771,0.079
36.58,-0.066,0.835,-0.03
36.59,-0.365,0.735,-0.225
36.6,-0.026,1.572,0.18
36.61,-0.088,1.211,0.054
36.62,0.059,0.412,-0.071
36.63,-0.466,1.072,-0.239
36.64,0.0,1.471,0.156
36.65,-0.123,1.194,0.042
36.66,0.007,0.694,-0.028
36.67,-0.357,0.629,-0.156
36.68,-0.143,1.769,0.18
36.69,0.042,0.786,0.091
36.7,-0.156,1.078,-0.051
36.71,-0.369,0.253,-0.137
36.72,-0.152,1.957,0.203
36.73,-0.063,0.751,0.086
36.74,-0.083,0.81,-0.053
36.75,-0.499,0.629,-0.189
36.76,-0.114,1.517,0.19
36.77,-0.223,1.255,0.096
36.78,0.084,0.467,-0.014
36.79,-0.526,0.993,-0.119
36.8,-0.054,1.391,0.202
36.81,-0.286,1.227,0.098
36.82,-0.037,0.65,-0.016
36.83,-0.477,0.688,-0.166
36.84,-0.096,1.706,0.135
36.85,-0.092,0.865,0.053
36.86,-0.049,0.974,-0.066
36.87,-0.437,0.229,-0.152
36.88,-0.157,1.816,0.174
36.89,-0.23,0.844,0.095
36.9,-0.178,0.854,-0.063
36.91,-0.404,0.531,-0.183
36.92,-0.095,1.535,0.193
36.93,-0.158,1.199,0.014
36.94,-0.035,0.47,-0.059
36.95,-0.462,1.01,-0.177
36.96,-0.032,1.308,0.216
36.97,-0.293,1.356,0.098
36.98,-0.014,0.562,-0.014
36.99,-0.501,0.655,-0.171
37.0,-0.125,1.592,0.192
37.01,-0.239,0.947,0.068
37.02,-0.164,0.968,-0.084
37.03,-0.348,0.16,-0.192
37.04,-0.154,1.866,0.154
37.05,-0.022,0.843,0.027
37.06,-0.195,0.989,-0.088
37.07,-0.44,0.208,-0.152
37.08,-0.194,1.472,0.218
37.09,-0.185,1.072,0.006
37.1,-0.108,0.58,-0.125
37.11,-0.465,0.739,-0.198
37.12,0.006,1.048,0.208
37.13,-0.326,1.34,0.07
37.14,-0.109,0.315,-0.12
37.15,-0.517,0.883,-0.134
37.16,-0.011,1.087,0.18
37.17,-0.295,1.333,0.057
37.18,-0.187,0.573,-0.108
37.19,-0.502,0.396,-0.151
37.2,-0.051,1.519,0.171
37.21,-0.193,0.844,-0.002
37.22,-0.152,0.923,-0.112
37.23,-0.396,0.25,-0.172
37.24,-0.077,1.37,0.161
37.25,-0.202,0.966,0.018
37.26,-0.214,0.598,-0.168
37.27,-0.447,0.699,-0.136
37.28,0.013,1.014,0.195
37.29,-0.356,1.408,0.026
37.3,0.016,0.288,-0.16
37.31,-0.576,0.979,-0.124
37.32,0.092,0.99,0.144
37.33,-0.294,1.216,-0.02
37.34,-0.175,0.631,-0.141
37.35,-0.505,0.481,-0.082
37.36,-0.095,1.291,0.234
37.37,-0.144,0.892,0.011
37.38,-0.322,0.866,-0.116
37.39,-0.434,0.288,-0.119
37.4,-0.091,1.321,0.181
37.41,-0.219,0.949,0.04
37.42,-0.17,0.657,-0.096
37.43,-0.518,0.741,-0.077
37.44,0.009,0.971,0.208
37.45,-0.281,1.302,0.003
37.46,-0.167,0.307,-0.153
37.47,-0.526,1.003,-0.063
37.48,0.029,0.844,0.165
37.49,-0.312,1.272,0.031
37.5,-0.2,0.495,-0.117
37.51,-0.487,0.672,-0.062
37.52,-0.061,1.171,0.103
37.53,-0.166,0.821,0.012
37.54,-0.259,0.925,-0.156
37.55,-0.389,0.51,-0.012
37.56,-0.161,1.261,0.191
37.57,-0.193,0.829,0.088
37.58,-0.366,0.784,-0.132
37.59,-0.457,0.806,-0.059
37.6,-0.06,0.841,0.137
37.61,-0.245,1.299,-0.0
37.62,-0.241,0.221,-0.156
37.63,-0.458,1.21,-0.04
37.64,-0.039,0.743,0.158
37.65,-0.342,1.312,0.059
37.66,-0.268,0.409,-0.146
37.67,-0.298,1.195,-0.015
37.68,-0.194,1.031,0.213
37.69,-0.084,0.79,0.042
37.7,-0.407,0.99,-0.185
37.71,-0.26,0.779,0.015
37.72,-0.217,1.171,0.168
37.73,-0.066,0.843,0.063
37.74,-0.393,0.781,-0.202
37.75,-0.231,1.215,-0.063
37.76,-0.135,0.864,0.161
37.77,-0.18,1.165,0.031
37.78,-0.319,0.387,-0.197
37.79,-0.19,1.929,-0.103
37.8,-0.01,0.654,0.089
37.81,-0.117,1.101,0.02
37.82,-0.312,0.579,-0.209
37.83,-0.165,1.51,-0.125
37.84,-0.084,0.957,0.085
37.85,-0.028,0.778,0.001
37.86,-0.407,0.959,-0.214
37.87,-0.284,1.421,0.017
37.88,-0.155,1.092,0.119
37.89,0.058,0.551,0.061
37.9,-0.479,1.058,-0.18
37.91,-0.272,1.403,0.034
37.92,-0.202,0.976,0.129
37.93,-0.073,0.8,0.041
37.94,-0.393,0.653,-0.205
37.95,-0.284,1.786,0.074
37.96,-0.13,0.666,0.172
37.97,-0.102,1.02,0.027
37.98,-0.389,0.334,-0.177
37.99,-0.302,1.953,0.065
38.0,-0.128,0.689,0.157
38.01,-0.125,0.812,-0.004
38.02,-0.445,0.672,-0.227
38.03,-0.208,1.624,0.055
38.04,-0.263,1.043,0.107
38.05,0.099,0.507,0.023
38.06,-0.497,1.026,-0.249
38.07,-0.083,1.357,0.079
38.08,-0.291,1.079,0.173
38.09,0.01,0.647,0.06
38.1,-0.493,0.704,-0.108
38.11,-0.208,1.703,0.131
38.12,-0.187,0.815,0.234
38.13,-0.17,0.951,0.055
38.14,-0.395,0.318,-0.129
38.15,-0.368,2.0,0.179
38.16,-0.251,0.644,0.143
38.17,-0.106,0.89,0.052
38.18,-0.371,0.632,-0.192
38.19,-0.244,1.527,0.113
38.2,-0.235,1.146,0.16
38.21,-0.025,0.394,0.043
38.22,-0.409,1.064,-0.145
38.23,-0.187,1.351,0.105
38.24,-0.221,1.11,0.18
38.25,-0.012,0.609,0.027
38.26,-0.484,0.808,-0.161
38.27,-0.155,1.76,0.124
38.28,-0.164,0.772,0.195
38.29,-0.147,0.966,0.027
38.3,-0.273,0.419,-0.21
38.31,-0.209,1.962,0.053
38.32,-0.115,0.658,0.169
38.33,-0.127,0.916,0.026
38.34,-0.376,0.548,-0.238
38.35,-0.088,1.671,0.108
38.36,-0.205,1.063,0.093
38.37,0.001,0.493,-0.003
38.38,-0.393,1.035,-0.217
38.39,-0.053,1.448,0.082
38.4,-0.269,1.146,0.113
38.41,0.021,0.569,0.023
38.42,-0.393,0.847,-0.205
38.43,-0.117,1.671,0.061
38.44,-0.067,0.821,0.16
38.45,-0.087,0.934,-0.015
38.46,-0.339,0.367,-0.2
38.47,-0.198,2.0,0.097
38.48,-0.075,0.654,0.157
38.49,-0.135,0.951,-0.019
38.5,-0.364,0.547,-0.247
38.51,-0.089,1.71,0.098
38.52,-0.234,0.976,0.172
38.53,0.06,0.492,0.002
38.54,-0.502,0.986,-0.201
38.55,0.068,1.383,0.065
38.56,-0.222,1.178,0.198
38.57,0.062,0.562,0.045
38.58,-0.491,0.876,-0.193
38.59,0.055,1.448,0.101
38.6,-0.109,1.053,0.112
38.61,0.031,0.753,-0.065
38.62,-0.485,0.632,-0.191
38.63,-0.053,1.833,0.144
38.64,-0.066,0.663,0.1
38.65,-0.069,0.981,-0.043
38.66,-0.413,0.379,-0.16
38.67,-0.242,1.863,0.144
38.68,-0.157,0.725,0.096
38.69,-0.181,0.987,-0.073
38.7,-0.431,0.342,-0.136
38.71,-0.077,1.771,0.162
38.72,-0.05,1.039,0.08
38.73,-0.1,0.523,-0.065
38.74,-0.508,1.048,-0.204
38.75,-0.064,1.41,0.187
38.76,-0.222,1.256,0.107
38.77,0.024,0.489,-0.063
38.78,-0.499,0.928,-0.17
38.79,-0.075,1.581,0.151
38.8,-0.214,1.006,0.078
38.81,-0.052,0.942,-0.057
38.82,-0.428,0.275,-0.149
38.83,-0.114,1.957,0.158
38.84,-0.053,0.712,0.113
38.85,-0.134,0.98,-0.074
38.86,-0.41,0.393,-0.153
38.87,-0.155,1.715,0.161
38.88,-0.118,1.141,0.057
38.89,-0.026,0.544,-0.082
38.9,-0.467,0.917,-0.179
38.91,-0.108,1.368,0.177
38.92,-0.267,1.279,0.133
38.93,0.017,0.481,-0.006
38.94,-0.523,0.892,-0.133
38.95,-0.098,1.472,0.14
38.96,-0.15,1.017,0.034
38.97,-0.034,0.845,-0.115
38.98,-0.452,0.364,-0.137
38.99,-0.154,1.761,0.132
39.0,-0.153,0.789,0.095
39.01,-0.188,0.875,-0.09
39.02,-0.401,0.316,-0.174
39.03,-0.174,1.658,0.156
39.04,-0.267,1.019,0.09
39.05,-0.084,0.581,-0.128
39.06,-0.474,0.842,-0.186
39.07,-0.047,1.226,0.182
39.08,-0.27,1.435,0.063
39.09,-0.051,0.294,-0.058
39.1,-0.409,0.898,-0.23
39.11,-0.038,1.305,0.144
39.12,-0.237,1.082,0.039
39.13,-0.13,0.777,-0.125
39.14,-0.372,0.301,-0.206
39.15,-0.105,1.67,0.146
39.16,-0.085,0.892,0.036
39.17,-0.26,0.958,-0.12
39.18,-0.325,0.24,-0.173
39.19,-0.167,1.613,0.165
39.2,-0.177,1.063,0.019
39.21,-0.05,0.569,-0.128
39.22,-0.385,0.738,-0.234
39.23,-0.017,1.179,0.172
39.24,-0.272,1.325,0.029
39.25,-0.066,0.364,-0.165
39.26,-0.467,0.842,-0.165
39.27,-0.065,1.199,0.192
39.28,-0.357,1.246,0.084
39.29,-0.176,0.667,-0.141
39.3,-0.418,0.373,-0.157
39.31,-0.189,1.486,0.21
39.32,-0.15,0.883,0.021
39.33,-0.303,0.839,-0.118
39.34,-0.389,0.207,-0.141
39.35,-0.174,1.406,0.212
39.36,-0.186,0.929,0.006
39.37,-0.29,0.678,-0.189
39.38,-0.427,0.74,-0.136
39.39,-0.019,0.938,0.19
39.4,-0.339,1.391,0.055
39.41,-0.14,0.259,-0.095
39.42,-0.594,0.966,-0.095
39.43,0.034,0.909,0.134
39.44,-0.309,1.211,0.021
39.45,-0.265,0.665,-0.153
39.46,-0.505,0.488,-0.038
39.47,-0.068,0.956,0.128
39.48,-0.239,0.963,0.116
39.49,-0.373,0.795,-0.165
39.5,-0.302,0.809,0.009
39.51,-0.194,1.278,0.224
39.52,-0.146,0.736,0.086
39.53,-0.337,0.965,-0.146
39.54,-0.26,1.242,-0.102
39.55,-0.012,0.958,0.094
39.56,-0.16,1.041,0.011
39.57,-0.251,0.56,-0.209
39.58,-0.272,1.649,-0.116
39.59,-0.042,0.663,0.106
39.6,-0.255,1.243,0.021
39.61,-0.208,0.462,-0.24
39.62,-0.287,1.741,-0.087
39.63,-0.16,0.869,0.166
39.64,-0.052,0.796,0.032
39.65,-0.418,0.877,-0.158
39.66,-0.258,1.327,-0.002
39.67,-0.229,1.18,0.154
39.68,-0.076,0.601,0.054
39.69,-0.46,0.978,-0.152
39.7,-0.21,1.402,0.006
39.71,-0.217,0.921,0.134
39.72,-0.173,0.924,0.05
39.73,-0.377,0.545,-0.187
39.74,-0.367,1.935,0.037
39.75,-0.103,0.649,0.159
39.76,-0.219,1.15,0.112
39.77,-0.332,0.341,-0.168
39.78,-0.406,1.84,0.089
39.79,-0.07,0.881,0.184
39.8,-0.112,0.715,0.069
39.81,-0.422,0.763,-0.152
39.82,-0.246,1.504,0.107
39.83,-0.223,1.198,0.137
39.84,-0.01,0.479,0.038
39.85,-0.502,1.018,-0.152
39.86,-0.158,1.521,0.126
39.87,-0.228,1.065,0.181
39.88,-0.124,0.7,0.018
39.89,-0.392,0.578,-0.138
39.9,-0.191,1.938,0.127
39.91,-0.12,0.69,0.221
39.92,-0.184,1.044,0.038
39.93,-0.364,0.297,-0.162
39.94,-0.208,2.0,0.143
39.95,-0.209,0.766,0.167
39.96,-0.089,0.756,0.041
39.97,-0.487,0.71,-0.188
39.98,-0.091,1.598,0.136
39.99,-0.328,1.116,0.181
40.0,0.061,0.425,0.028
40.01,-0.46,1.045,-0.173
40.02,0.066,1.536,0.039
40.03,-0.191,1.091,0.136
40.04,0.05,0.629,-0.069
40.05,-0.382,0.64,-0.192
40.06,-0.02,1.85,0.071
40.07,-0.132,0.581,0.164
40.08,-0.103,1.075,-0.0
40.09,-0.423,0.304,-0.192
40.1,-0.143,2.0,0.129
40.11,-0.093,0.777,0.088
40.12,-0.15,0.68,-0.0
40.13,-0.388,0.72,-0.187
40.14,-0.099,1.595,0.171
40.15,-0.115,1.145,0.108
40.16,0.101,0.53,-0.071
40.17,-0.574,1.045,-0.165
40.18,0.049,1.517,0.192
40.19,-0.232,1.223,0.073
40.2,0.03,0.579,-0.052
40.21,-0.439,0.735,-0.099
40.22,-0.122,1.812,0.155
40.23,-0.061,0.794,0.053
40.24,-0.025,1.041,-0.094
40.25,-0.364,0.233,-0.164
40.26,-0.153,1.869,0.147
40.27,-0.163,0.785,0.066
40.28,-0.203,0.949,-0.136
40.29,-0.405,0.253,-0.173
40.3,-0.142,1.477,0.188
40.31,-0.261,1.134,-0.004
40.32,-0.092,0.539,-0.12
40.33,-0.425,0.791,-0.203
40.34,0.047,0.992,0.184
40.35,-0.375,1.33,-0.026
40.36,-0.075,0.321,-0.115
40.37,-0.544,0.836,-0.138
40.38,0.011,1.078,0.204
40.39,-0.295,1.098,0.009
40.4,-0.203,0.724,-0.145
40.41,-0.44,0.399,-0.105
40.42,-0.065,1.316,0.158
40.43,-0.194,0.828,-0.03
40.44,-0.289,0.947,-0.1
40.45,-0.447,0.49,-0.073
40.46,-0.025,1.167,0.17
40.47,-0.217,1.0,0.018
40.48,-0.274,0.64,-0.141
40.49,-0.429,0.962,-0.097
40.5,-0.004,0.76,0.103
40.51,-0.269,1.387,0.037
40.52,-0.143,0.237,-0.171
40.53,-0.369,1.351,-0.066
40.54,-0.012,0.803,0.124
40.55,-0.222,1.046,0.011
40.56,-0.252,0.682,-0.215
40.57,-0.237,1.137,-0.05
40.58,-0.152,1.149,0.16
40.59,-0.036,0.676,0.041
40.6,-0.449,1.006,-0.179
40.61,-0.121,1.014,-0.055
40.62,-0.188,1.043,0.098
40.63,-0.105,0.92,-0.019
40.64,-0.311,0.695,-0.168
40.65,-0.219,1.726,-0.079
40.66,-0.068,0.653,0.125
40.67,-0.248,1.202,0.042
40.68,-0.298,0.351,-0.206
40.69,-0.303,1.916,0.038
40.7,-0.09,0.697,0.119
40.71,-0.191,0.937,0.002
40.72,-0.369,0.611,-0.203
40.73,-0.221,1.61,0.068
40.74,-0.087,1.126,0.087
40.75,-0.037,0.457,0.005
40.76,-0.433,1.068,-0.2
40.77,-0.13,1.422,0.133
40.78,-0.197,1.179,0.159
40.79,-0.079,0.573,0.008
40.8,-0.419,0.732,-0.173
40.81,-0.143,1.792,0.148
40.82,-0.081,0.686,0.116
40.83,-0.123,0.991,0.023
40.84,-0.354,0.34,-0.19
40.85,-0.177,2.0,0.123
40.86,-0.12,0.638,0.151
40.87,-0.12,0.874,-0.019
40.88,-0.284,0.562,-0.226
40.89,-0.073,1.727,0.085
40.9,-0.135,1.022,0.181
40.91,-0.044,0.449,-0.032
40.92,-0.433,1.011,-0.205
40.93,0.014,1.51,0.104
40.94,-0.187,1.183,0.098
40.95,-0.018,0.479,-0.021
40.96,-0.346,0.839,-0.212
40.97,-0.081,1.684,0.075
40.98,-0.011,0.798,0.093
40.99,-0.153,0.986,-0.03
41.0,-0.356,0.29,-0.132
41.01,-0.245,1.946,0.217
41.02,-0.016,0.646,0.093
41.03,-0.134,0.96,-0.043
41.04,-0.38,0.459,-0.174
41.05,-0.127,1.607,0.114
41.06,-0.124,1.135,0.046
41.07,-0.015,0.512,-0.06
41.08,-0.373,0.678,-0.186
41.09,-0.115,1.233,0.23
41.1,-0.357,1.283,0.061
41.11,-0.06,0.37,-0.108
41.12,-0.481,0.869,-0.148
41.13,-0.073,1.085,0.22
41.14,-0.306,1.276,0.033
41.15,-0.229,0.627,-0.109
41.16,-0.417,0.471,-0.098
41.17,-0.189,1.336,0.204
41.18,-0.168,0.827,0.007
41.19,-0.328,0.926,-0.086
41.2,-0.408,0.288,-0.065
41.21,-0.168,1.31,0.216
41.22,-0.224,0.863,0.022
41.23,-0.24,0.72,-0.154
41.24,-0.427,0.778,-0.133
41.25,-0.023,0.843,0.143
41.26,-0.299,1.333,-0.024
41.27,-0.137,0.271,-0.157
41.28,-0.437,1.241,-0.088
41.29,0.03,0.773,0.131
41.3,-0.296,1.203,0.032
41.31,-0.265,0.623,-0.191
41.32,-0.422,0.867,-0.003
41.33,-0.064,1.106,0.141
41.34,-0.166,0.761,0.028
41.35,-0.389,1.005,-0.179
41.36,-0.197,0.854,-0.023
41.37,-0.18,1.133,0.173
41.38,-0.122,0.823,-0.007
41.39,-0.379,0.833,-0.179
41.4,-0.199,1.651,-0.073
41.41,-0.052,0.771,0.142
41.42,-0.143,1.039,-0.004
41.43,-0.339,0.465,-0.211
41.44,-0.2,2.0,-0.024
41.45,-0.081,0.717,0.109
41.46,-0.144,0.995,0.02
41.47,-0.42,0.536,-0.18
41.48,-0.269,1.736,0.087
41.49,-0.167,0.967,0.145
41.5,-0.01,0.614,0.039
41.51,-0.562,1.048,-0.178
41.52,-0.148,1.328,0.125
41.53,-0.35,1.186,0.221
41.54,0.006,0.56,0.077
41.55,-0.517,0.854,-0.126
41.56,-0.162,1.626,0.164
41.57,-0.23,0.835,0.158
41.58,-0.125,0.887,0.011
41.59,-0.388,0.402,-0.122
41.6,-0.224,1.989,0.173
41.61,-0.069,0.673,0.204
41.62,-0.168,0.916,0.0
41.63,-0.212,0.461,-0.194
41.64,-0.138,1.85,0.083
41.65,-0.148,0.895,0.13
41.66,0.005,0.577,-0.063
41.67,-0.501,0.95,-0.219
41.68,0.054,1.47,0.1
41.69,-0.246,1.201,0.157
41.7,0.078,0.412,-0.029
41.71,-0.468,0.942,-0.215
41.72,0.01,1.648,0.059
41.73,-0.073,0.911,0.055
41.74,0.015,0.894,-0.088
41.75,-0.395,0.373,-0.192
41.76,-0.14,1.963,0.152
41.77,-0.058,0.656,0.108
41.78,-0.109,1.036,-0.024
41.79,-0.477,0.403,-0.105
41.8,-0.104,1.803,0.224
41.81,-0.107,0.979,0.071
41.82,-0.009,0.503,-0.091
41.83,-0.438,0.945,-0.213
41.84,-0.076,1.394,0.189
41.85,-0.28,1.306,0.105
41.86,0.001,0.49,-0.014
41.87,-0.463,0.948,-0.155
41.88,-0.073,1.193,0.183
41.89,-0.274,1.254,0.031
41.9,-0.177,0.558,-0.115
41.91,-0.319,0.578,-0.157
41.92,-0.233,1.463,0.131
41.93,-0.103,0.975,0.03
41.94,-0.256,0.901,-0.134
41.95,-0.294,0.19,-0.134
41.96,-0.202,1.49,0.15
41.97,-0.152,0.832,-0.002
41.98,-0.309,0.754,-0.097
41.99,-0.427,0.572,-0.092
42.0,-0.171,1.07,0.258
42.01,-0.286,1.276,-0.028
42.02,-0.193,0.343,-0.097
42.03,-0.463,1.013,-0.036
42.04,-0.082,0.773,0.181
42.05,-0.313,1.312,0.002
42.06,-0.221,0.46,-0.149
42.07,-0.39,0.815,-0.033
42.08,-0.098,1.019,0.13
42.09,-0.175,0.846,0.018
42.1,-0.407,0.876,-0.17
42.11,-0.276,0.572,-0.018
42.12,-0.217,1.24,0.149
42.13,-0.213,0.786,0.022
42.14,-0.31,0.852,-0.138
42.15,-0.235,1.058,-0.034
42.16,-0.124,0.88,0.169
42.17,-0.198,1.145,-0.021
42.18,-0.29,0.478,-0.216
42.19,-0.212,1.727,-0.037
42.2,-0.071,0.66,0.159
42.21,-0.231,1.196,0.001
42.22,-0.335,0.493,-0.231
42.23,-0.207,1.706,-0.003
42.24,-0.123,0.922,0.146
42.25,-0.134,0.779,0.015
42.26,-0.49,1.014,-0.173
42.27,-0.213,1.339,0.108
42.28,-0.215,1.215,0.16
42.29,-0.094,0.53,0.096
42.3,-0.488,0.929,-0.174
42.31,-0.26,1.612,0.099
42.32,-0.19,0.948,0.157
42.33,-0.102,0.899,0.01
42.34,-0.32,0.467,-0.202
42.35,-0.26,1.928,0.13
42.36,-0.089,0.712,0.139
42.37,-0.144,0.963,0.052
42.38,-0.352,0.375,-0.195
42.39,-0.156,1.868,0.143
42.4,-0.223,0.858,0.128
42.41,-0.002,0.664,0.017
42.42,-0.47,0.873,-0.231
42.43,-0.007,1.528,0.084
42.44,-0.267,1.171,0.189
42.45,0.02,0.437,0.058
42.46,-0.524,0.971,-0.141
42.47,0.013,1.541,0.083
42.48,-0.085,0.976,0.139
42.49,-0.015,0.802,-0.081
42.5,-0.396,0.501,-0.136
42.51,-0.128,2.0,0.151
42.52,-0.103,0.562,0.161
42.53,-0.136,0.959,-0.001
42.54,-0.438,0.34,-0.181
42.55,-0.145,1.811,0.133
42.56,-0.073,0.956,0.081
42.57,-0.079,0.604,-0.055
42.58,-0.427,0.785,-0.176
42.59,-0.092,1.482,0.107
42.6,-0.139,1.28,0.071
42.61,-0.018,0.542,-0.074
42.62,-0.482,0.968,-0.194
42.63,-0.016,1.526,0.202
42.64,-0.137,1.149,0.085
42.65,-0.012,0.693,-0.074
42.66,-0.362,0.554,-0.208
42.67,-0.215,1.624,0.157
42.68,-0.111,0.787,0.073
42.69,-0.276,0.858,-0.127
42.7,-0.358,0.159,-0.181
42.71,-0.171,1.572,0.16
42.72,-0.167,0.819,0.026
42.73,-0.23,0.85,-0.134
42.74,-0.492,0.447,-0.169
42.75,-0.142,1.183,0.236
42.76,-0.174,1.271,-0.045
42.77,-0.11,0.302,-0.111
42.78,-0.508,1.054,-0.099
42.79,0.034,0.84,0.147
42.8,-0.35,1.339,-0.003
42.81,-0.115,0.468,-0.137
42.82,-0.507,0.784,-0.067
42.83,-0.025,1.014,0.157
42.84,-0.17,0.971,-0.001
42.85,-0.301,0.821,-0.144
42.86,-0.352,0.404,-0.053
42.87,-0.166,1.268,0.13
42.88,-0.132,0.803,-0.015
42.89,-0.32,0.807,-0.172
42.9,-0.149,1.062,-0.052
42.91,-0.082,0.994,0.109
42.92,-0.205,1.033,0.006
42.93,-0.296,0.55,-0.229
42.94,-0.299,1.438,-0.013
42.95,-0.057,0.669,0.077
42.96,-0.253,1.291,-0.005
42.97,-0.197,0.367,-0.225
42.98,-0.286,1.67,0.013
42.99,-0.108,0.814,0.151
43.0,-0.159,0.86,0.025
43.01,-0.397,0.792,-0.214
43.02,-0.111,1.438,-0.023
43.03,-0.234,1.147,0.139
43.04,-0.006,0.53,0.032
43.05,-0.555,0.963,-0.203
43.06,-0.083,1.506,0.059
43.07,-0.324,0.961,0.132
43.08,-0.057,0.823,-0.014
43.09,-0.513,0.512,-0.148
43.1,-0.221,1.898,0.137
43.11,-0.11,0.653,0.165
43.12,-0.16,0.978,0.031
43.13,-0.459,0.303,-0.182
43.14,-0.08,1.933,0.072
43.15,-0.109,0.834,0.136
43.16,-0.052,0.683,-0.038
43.17,-0.4,0.703,-0.199
43.18,0.002,1.578,0.101
43.19,-0.178,1.189,0.159
43.2,0.087,0.362,-0.018
43.21,-0.49,1.052,-0.195
43.22,0.005,1.506,0.101
43.23,-0.137,1.048,0.086
43.24,0.035,0.718,-0.091
43.25,-0.345,0.593,-0.193
43.26,-0.105,1.865,0.071
43.27,-0.051,1.461,0.159
43.28,-0.202,1.292,0.099
43.29,0.052,0.49,-0.061
43.3,-0.47,0.876,-0.156
43.31,-0.02,1.521,0.112
43.32,-0.253,1.029,0.066
43.33,-0.119,0.945,-0.108
43.34,-0.316,0.226,-0.142
43.35,-0.263,1.781,0.155
43.36,-0.1,0.836,0.05
43.37,-0.288,0.938,-0.101
43.38,-0.334,0.307,-0.155
43.39,-0.17,1.534,0.196
43.4,-0.277,1.096,0.038
43.41,-0.146,0.56,-0.073
43.42,-0.342,0.648,-0.139
43.43,0.009,0.948,0.128
43.44,-0.3,1.31,-0.008
43.45,-0.176,0.351,-0.193
43.46,-0.438,1.038,-0.084
43.47,-0.036,0.729,0.106
43.48,-0.235,1.316,0.004
43.49,-0.27,0.464,-0.185
43.5,-0.28,0.9,-0.058
43.51,-0.121,1.007,0.092
43.52,-0.106,0.856,0.0
43.53,-0.395,0.923,-0.206
43.54,-0.094,1.008,-0.057
43.55,-0.245,1.165,0.147
43.56,-0.095,0.735,0.029
43.57,-0.435,0.844,-0.196
43.58,-0.169,1.513,-0.001
43.59,-0.169,0.789,0.128
43.6,-0.201,1.075,0.039
43.61,-0.33,0.413,-0.177
43.62,-0.279,2.0,0.071
43.63,-0.065,0.674,0.18
43.64,-0.241,0.954,0.047
43.65,-0.331,0.427,-0.146
43.66,-0.282,1.851,0.119
43.67,-0.127,0.923,0.132
43.68,-0.132,0.618,0.013
43.69,-0.399,0.851,-0.218
43.7,-0.103,1.507,0.081
43.71,-0.107,1.244,0.047
43.72,0.002,0.418,-0.048
43.73,-0.37,0.922,-0.202
43.74,-0.019,1.634,-0.009
43.75,-0.001,0.983,0.159
43.76,-0.089,0.765,-0.079
43.77,-0.333,0.372,-0.126
43.78,-0.229,1.969,0.131
43.79,-0.082,0.563,0.178
43.8,-0.184,0.987,-0.037
43.81,-0.372,0.424,-0.188
43.82,-0.155,1.816,0.186
43.83,-0.068,0.989,0.085
43.84,-0.073,0.619,-0.036
43.85,-0.464,0.877,-0.136
43.86,-0.039,1.449,0.206
43.87,-0.198,1.34,0.086
43.88,0.059,0.481,-0.07
43.89,-0.467,0.844,-0.206
43.9,-0.01,1.478,0.113
43.91,-0.203,1.096,-0.028
43.92,-0.091,0.802,-0.144
43.93,-0.327,0.308,-0.183
43.94,-0.207,1.685,0.153
43.95,-0.213,0.774,0.03
43.96,-0.193,1.013,-0.097
43.97,-0.42,0.188,-0.087
43.98,-0.167,1.386,0.235
43.99,-0.256,1.079,-0.005
44.0,-0.211,0.626,-0.139
44.01,-0.44,0.723,-0.096
44.02,0.006,0.922,0.233
44.03,-0.306,1.417,-0.013
44.04,-0.15,0.322,-0.152
44.05,-0.454,0.929,-0.055
44.06,-0.014,0.864,0.162
44.07,-0.285,1.175,0.045
44.08,-0.362,0.688,-0.149
44.09,-0.337,0.674,0.022
44.1,-0.207,1.124,0.155
44.11,-0.12,0.775,0.029
44.12,-0.379,0.969,-0.209
44.13,-0.171,1.024,0.022
44.14,-0.121,1.096,0.162
44.15,-0.147,0.891,0.005
44.16,-0.36,0.753,-0.23
44.17,-0.18,1.762,-0.012
44.18,-0.092,0.676,0.119
44.19,-0.193,1.118,0.036
44.2,-0.309,0.404,-0.197
44.21,-0.259,1.972,0.002
44.22,-0.119,0.712,0.099
44.23,-0.202,1.063,0.02
44.24,-0.395,0.322,-0.202
44.25,-0.088,1.831,0.058
44.26,-0.078,0.958,0.115
44.27,-0.097,0.547,-0.025
44.28,-0.362,0.906,-0.194
44.29,-0.018,1.552,0.12
44.3,-0.119,1.204,0.15
44.31,0.03,0.456,-0.03
44.32,-0.476,0.966,-0.214
44.33,0.031,1.648,0.086
44.34,-0.046,0.921,0.041
44.35,-0.068,0.771,-0.073
44.36,-0.33,0.475,-0.169
44.37,-0.241,1.851,0.144
44.38,0.07,0.637,0.076
44.39,-0.148,1.058,-0.088
44.4,-0.321,0.27,-0.136
44.41,-0.25,1.759,0.154
44.42,-0.127,0.955,0.089
44.43,-0.06,0.694,-0.038
44.44,-0.425,0.764,-0.166
44.45,-0.129,1.275,0.226
44.46,-0.296,1.334,0.063
44.47,-0.026,0.393,-0.102
44.48,-0.56,0.853,-0.031
44.49,-0.06,1.159,0.195
44.5,-0.291,1.212,0.015
44.51,-0.224,0.671,-0.116
44.52,-0.429,0.336,-0.1
44.53,-0.163,1.417,0.188
44.54,-0.177,0.826,0.004
44.55,-0.32,0.905,-0.095
44.56,-0.374,0.264,-0.089
44.57,-0.107,1.251,0.153
44.58,-0.251,1.008,-0.01
44.59,-0.228,0.624,-0.17
44.6,-0.396,0.92,-0.09
44.61,-0.044,0.748,0.157
44.62,-0.334,1.34,0.025
44.63,-0.253,0.327,-0.153
44.64,-0.385,1.219,-0.035
44.65,-0.134,0.752,0.122
44.66,-0.252,1.12,-0.006
44.67,-0.271,0.61,-0.189
44.68,-0.177,1.384,-0.032
44.69,-0.083,1.12,0.132
44.7,-0.118,0.631,0.001
44.71,-0.459,1.113,-0.16
44.72,-0.117,1.36,-0.002
44.73,-0.248,1.062,0.147
44.74,-0.076,0.734,0.036
44.75,-0.469,0.786,-0.175
44.76,-0.169,1.765,0.045
44.77,-0.173,0.734,0.145
44.78,-0.164,1.045,0.017
44.79,-0.34,0.327,-0.204
44.8,-0.22,1.939,0.109
44.81,-0.024,0.784,0.181
44.82,-0.15,0.835,0.012
44.83,-0.423,0.51,-0.218
44.84,-0.002,1.796,0.107
44.85,-0.18,1.008,0.124
44.86,0.056,0.411,-0.064
44.87,-0.489,1.022,-0.246
44.88,0.075,1.412,0.116
44.89,-0.128,1.199,0.099
44.9,0.079,0.488,-0.046
44.91,-0.388,0.84,-0.217
44.92,-0.052,1.636,0.12
44.93,-0.025,0.775,0.067
44.94,-0.147,1.051,-0.045
44.95,-0.367,0.295,-0.13
44.96,-0.247,1.911,0.192
44.97,-0.058,0.769,0.082
44.98,-0.13,0.919,-0.072
44.99,-0.374,0.422,-0.133
45.0,-0.166,1.562,0.168
45.01,-0.199,1.215,0.039
45.02,0.06,0.565,-0.102
45.03,-0.433,0.643,-0.166
45.04,-0.039,1.026,0.253
45.05,-0.318,1.368,0.012
45.06,-0.136,0.301,-0.101
45.07,-0.461,0.92,-0.061
45.08,-0.074,0.948,0.198
45.09,-0.307,1.288,-0.003
45.1,-0.14,0.562,-0.118
45.11,-0.326,0.755,0.005
45.12,-0.125,1.184,0.176
45.13,-0.194,0.706,0.039
45.14,-0.33,1.086,-0.186
45.15,-0.369,0.518,-0.022
45.16,-0.116,1.17,0.175
45.17,-0.198,0.942,0.027
45.18,-0.302,0.765,-0.204
45.19,-0.307,1.111,-0.05
45.2,-0.071,0.786,0.144
45.21,-0.318,1.286,0.007
45.22,-0.161,0.301,-0.187
45.23,-0.235,2.0,-0.034
45.24,-0.009,0.71,0.129
45.25,-0.261,0.969,0.062
45.26,-0.357,0.655,-0.193
45.27,-0.245,1.648,0.016
45.28,-0.074,1.034,0.101
45.29,-0.073,0.598,-0.015
45.3,-0.503,1.005,-0.183
45.31,-0.093,1.399,0.096
45.32,-0.198,1.136,0.113
45.33,-0.141,0.558,0.122
45.34,-0.452,0.792,-0.149
45.35,-0.134,1.724,0.087
45.36,-0.096,0.772,0.117
45.37,-0.079,0.952,-0.018
45.38,-0.377,0.326,-0.189
45.39,-0.146,2.0,0.145
45.4,-0.088,0.644,0.138
45.41,-0.067,0.918,-0.026
45.42,-0.419,0.471,-0.223
45.43,0.015,1.751,0.08
45.44,-0.056,1.067,0.096
45.45,0.024,0.433,-0.091
45.46,-0.488,1.004,-0.215
45.47,0.048,1.476,0.101
45.48,-0.172,1.173,0.077
45.49,0.043,0.648,0.003
45.5,-0.551,0.815,-0.153
45.51,-0.049,1.651,0.206
45.52,-0.108,0.929,0.077
45.53,-0.071,0.963,-0.052
45.54,-0.335,0.27,-0.13
45.55,-0.234,1.848,0.203
45.56,-0.092,0.737,0.045
45.57,-0.126,0.997,-0.095
45.58,-0.388,0.328,-0.146
45.59,-0.159,1.453,0.166
45.6,-0.276,1.139,0.029
45.61,-0.048,0.5,-0.117
45.62,-0.473,0.844,-0.146
45.63,-0.06,1.075,0.206
45.64,-0.314,1.373,0.041
45.65,-0.133,0.4,-0.115
45.66,-0.458,0.792,-0.09
45.67,-0.079,1.089,0.133
45.68,-0.2,1.088,-0.061
45.69,-0.235,0.748,-0.147
45.7,-0.479,0.345,-0.038
45.71,-0.095,1.353,0.176
45.72,-0.203,0.692,0.086
45.73,-0.372,0.981,-0.099
45.74,-0.361,0.413,-0.032
45.75,-0.154,1.105,0.158
45.76,-0.195,1.151,-0.027
45.77,-0.197,0.427,-0.158
45.78,-0.271,1.305,-0.08
45.79,-0.035,0.709,0.143
45.8,-0.293,1.298,0.002
45.81,-0.165,0.425,-0.214
45.82,-0.269,1.725,-0.078
45.83,-0.103,0.664,0.157
45.84,-0.192,1.042,0.051
45.85,-0.415,0.5,-0.2
45.86,-0.243,1.719,0.085
45.87,-0.179,0.94,0.069
45.88,-0.068,0.624,0.03
45.89,-0.442,0.907,-0.184
45.9,-0.044,1.336,0.069
45.91,-0.136,1.253,0.146
45.92,-0.055,0.443,-0.028
45.93,-0.4,0.828,-0.187
45.94,-0.028,1.686,0.045
45.95,-0.057,0.78,0.134
45.96,-0.05,0.954,-0.075
45.97,-0.329,0.371,-0.217
45.98,-0.174,2.0,0.156
45.99,-0.03,0.642,0.165
46.0,-0.17,0.89,-0.024
46.01,-0.401,0.432,-0.115
46.02,-0.081,1.752,0.119
46.03,0.002,1.02,0.028
46.04,0.008,0.559,-0.072
46.05,-0.421,0.914,-0.184
46.06,-0.045,1.33,0.16
46.07,-0.182,1.317,0.01
46.08,0.049,0.488,-0.117
46.09,-0.422,0.784,-0.178
46.1,-0.095,1.437,0.159
46.11,-0.199,1.034,-0.011
46.12,-0.151,0.875,-0.151
46.13,-0.285,0.236,-0.135
46.14,-0.223,1.557,0.184
46.15,-0.16,0.829,0.009
46.16,-0.317,0.916,-0.145
46.17,-0.357,0.304,-0.137
46.18,-0.06,1.258,0.178
46.19,-0.302,1.083,0.021
46.2,-0.167,0.488,-0.122
46.21,-0.516,0.903,-0.083
46.22,-0.014,0.789,0.207
46.23,-0.315,1.375,0.047
46.24,-0.233,0.298,-0.123
46.25,-0.372,1.16,-0.036
46.26,-0.099,0.836,0.148
46.27,-0.195,0.98,0.012
46.28,-0.295,0.767,-0.213
46.29,-0.152,1.071,-0.114
46.3,-0.149,1.167,0.088
46.31,-0.067,0.628,0.033
46.32,-0.385,1.101,-0.198
46.33,-0.211,1.275,0.002
46.34,-0.174,0.979,0.138
46.35,-0.136,0.914,0.023
46.36,-0.371,0.626,-0.21
46.37,-0.306,1.907,0.033
46.38,-0.111,0.678,0.161
46.39,-0.255,1.116,0.079
46.4,-0.257,0.376,-0.15
46.41,-0.296,1.899,0.14
46.42,-0.105,0.81,0.187
46.43,-0.145,0.796,0.036
46.44,-0.401,0.681,-0.178
46.45,-0.106,1.645,0.121
46.46,-0.248,1.039,0.143
46.47,0.034,0.524,-0.008
46.48,-0.576,0.962,-0.18
46.49,0.123,1.543,0.117
46.5,-0.184,1.097,0.105
46.51,-0.014,0.565,-0.033
46.52,-0.446,0.641,-0.145
46.53,-0.107,1.807,0.136
46.54,-0.007,0.7,0.135
46.55,-0.161,0.996,-0.04
46.56,-0.379,0.298,-0.15
46.57,-0.234,1.945,0.163
46.58,-0.007,0.769,0.122
46.59,-0.204,0.789,-0.021
46.6,-0.374,0.602,-0.172
46.61,-0.195,1.502,0.18
46.62,-0.246,1.309,0.096
46.63,-0.018,0.426,-0.05
46.64,-0.43,0.795,-0.188
46.65,0.038,1.128,0.179
46.66,-0.377,1.346,0.033
46.67,-0.049,0.443,-0.1
46.68,-0.596,0.743,-0.141
46.69,-0.038,1.062,0.192
46.7,-0.293,1.156,0.029
46.71,-0.188,0.753,-0.106
46.72,-0.46,0.37,-0.049
46.73,-0.141,1.282,0.158
46.74,-0.182,0.775,0.007
46.75,-0.333,0.966,-0.141
46.76,-0.353,0.566,-0.043
46.77,-0.115,1.111,0.116
46.78,-0.201,1.037,0.009
46.79,-0.213,0.568,-0.173
46.8,-0.299,1.301,-0.055
46.81,-0.099,0.71,0.151
46.82,-0.236,1.291,-0.01
46.83,-0.24,0.308,-0.145
46.84,-0.251,1.801,-0.019
46.85,-0.104,0.789,0.127
46.86,-0.209,0.923,0.037
46.87,-0.391,0.746,-0.143
46.88,-0.126,1.507,0.026
46.89,-0.328,1.069,0.143
46.9,-0.024,0.536,0.017
46.91,-0.578,0.963,-0.143
46.92,-0.094,1.438,0.108
46.93,-0.167,1.085,0.126
46.94,-0.066,0.648,0.011
46.95,-0.447,0.611,-0.181
46.96,-0.05,1.842,0.148
46.97,-0.043,0.744,0.145
46.98,-0.167,0.98,-0.022
46.99,-0.327,0.297,-0.167
47.0,-0.117,2.0,0.124
47.01,-0.02,0.698,0.111
47.02,-0.144,0.782,-0.059
47.03,-0.359,0.631,-0.185
47.04,-0.071,1.619,0.183
47.05,-0.049,1.198,0.083
47.06,-0.034,0.472,-0.041
47.07,-0.52,0.998,-0.152
47.08,-0.039,1.389,0.224
47.09,-0.237,1.252,0.064
47.1,-0.066,0.638,-0.044
47.11,-0.361,0.675,-0.157
47.12,-0.187,1.675,0.175
47.13,-0.121,0.897,0.088
47.14,-0.171,1.007,-0.083
47.15,-0.257,0.147,-0.127
47.16,-0.292,1.571,0.174
47.17,-0.209,0.846,0.045
47.18,-0.282,0.84,-0.092
47.19,-0.345,0.453,-0.096
47.2,-0.082,1.111,0.236
47.21,-0.322,1.288,0.01
47.22,-0.169,0.376,-0.128
47.23,-0.448,1.016,-0.072
47.24,-0.027,0.736,0.167
47.25,-0.363,1.356,0.09
47.26,-0.297,0.437,-0.127
47.27,-0.382,0.908,-0.004
47.28,-0.174,1.001,0.135
47.29,-0.187,0.844,0.017
47.3,-0.379,0.94,-0.183
47.31,-0.173,0.967,0.025
47.32,-0.257,1.156,0.17
47.33,-0.158,0.729,0.024
47.34,-0.364,0.907,-0.16
47.35,-0.176,1.558,0.084
47.36,-0.135,0.94,0.186
47.37,-0.222,0.876,-0.036
47.38,-0.362,0.459,-0.163
47.39,-0.317,1.97,0.188
47.4,-0.098,0.672,0.172
47.41,-0.287,0.92,0.001
47.42,-0.337,0.365,-0.227
47.43,-0.073,1.896,0.044
47.44,-0.004,0.721,0.154
47.45,-0.176,0.794,-0.052
47.46,-0.365,0.613,-0.202
47.47,-0.088,1.605,0.136
47.48,-0.05,1.222,0.051
47.49,0.029,0.477,-0.052
47.5,-0.471,0.98,-0.139
47.51,-0.077,1.386,0.183
47.52,-0.165,1.271,0.036
47.53,-0.019,0.661,-0.099
47.54,-0.391,0.603,-0.158
47.55,-0.211,1.566,0.147
47.56,-0.107,0.921,0.038
47.57,-0.296,0.997,-0.106
47.58,-0.313,0.147,-0.121
47.59,-0.232,1.466,0.185
47.6,-0.202,0.867,-0.044
47.61,-0.248,0.884,-0.095
47.62,-0.424,0.521,-0.118
47.63,-0.053,0.988,0.167
47.64,-0.323,1.307,-0.025
47.65,-0.204,0.29,-0.144
47.66,-0.42,1.202,-0.021
47.67,-0.095,0.663,0.173
47.68,-0.352,1.326,0.047
47.69,-0.325,0.451,-0.159
47.7,-0.218,1.322,0.027
47.71,-0.165,0.978,0.135
47.72,-0.166,0.786,0.004
47.73,-0.406,1.0,-0.157
47.74,-0.178,1.171,0.085
47.75,-0.225,1.106,0.154
47.76,-0.156,0.643,-0.005
47.77,-0.37,0.839,-0.169
47.78,-0.14,1.633,0.061
47.79,-0.113,0.908,0.094
47.8,-0.15,0.828,-0.026
47.81,-0.5,0.371,-0.156
47.82,-0.072,1.983,0.18
47.83,-0.125,0.676,0.109
47.84,-0.222,0.914,-0.024
47.85,-0.329,0.347,-0.191
47.86,-0.121,1.923,0.138
47.87,0.035,0.911,0.11
47.88,-0.091,0.601,-0.075
47.89,-0.437,0.873,-0.184
47.9,-0.026,1.467,0.159
47.91,-0.103,1.299,0.065
47.92,0.029,0.546,-0.015
47.93,-0.4,0.887,-0.177
47.94,-0.121,1.5,0.225
47.95,-0.061,1.171,-0.1
47.96,-0.127,0.852,-0.141
47.97,-0.291,0.326,-0.086
47.98,-0.271,1.607,0.183
47.99,-0.178,0.812,0.026
48.0,-0.244,1.033,-0.154
48.01,-0.324,0.224,-0.061
48.02,-0.13,1.19,0.208
48.03,-0.295,1.055,0.024
48.04,-0.285,0.497,-0.133
48.05,-0.328,0.916,-0.058
48.06,-0.107,0.753,0.147
48.07,-0.396,1.358,-0.013
48.08,-0.221,0.294,-0.161
48.09,-0.344,1.318,0.044
48.1,-0.121,0.738,0.116
48.11,-0.316,1.096,0.014
48.12,-0.28,0.661,-0.151
48.13,-0.139,1.497,0.009
48.14,-0.153,1.131,0.126
48.15,-0.121,0.533,0.033
48.16,-0.637,1.031,-0.14
48.17,-0.087,1.52,0.114
48.18,-0.223,1.013,0.118
48.19,-0.118,0.701,0.019
48.2,-0.529,0.684,-0.161
48.21,-0.082,1.873,0.14
48.22,-0.054,0.734,0.15
48.23,-0.183,0.906,-0.026
48.24,-0.448,0.226,-0.131
48.25,-0.215,1.925,0.179
48.26,-0.04,0.697,0.109
48.27,-0.061,1.113,-0.049
48.28,-0.484,0.305,-0.15
48.29,-0.098,1.631,0.214
48.3,-0.196,1.107,0.019
48.31,-0.054,0.661,-0.109
48.32,-0.42,0.757,-0.19
48.33,-0.078,1.072,0.212
48.34,-0.41,1.441,0.032
48.35,-0.12,0.386,-0.085
48.36,-0.483,0.85,-0.046
48.37,-0.062,0.912,0.245
48.38,-0.26,1.158,-0.011
48.39,-0.284,0.765,-0.175
48.4,-0.254,0.608,-0.041
48.41,-0.173,1.199,0.11
48.42,-0.205,0.649,-0.038
