t,ax,ay,az
0.0,-0.195,1.95,0.063
0.01,0.023,0.77,0.133
0.02,-0.156,0.866,0.035
0.03,-0.375,0.373,-0.185
0.04,-0.218,1.942,0.077
0.05,-0.021,0.838,0.122
0.06,-0.082,0.656,-0.027
0.07,-0.425,0.787,-0.261
0.08,-0.08,1.551,0.08
0.09,-0.095,1.239,0.132
0.1,0.025,0.255,-0.01
0.11,-0.447,1.1,-0.216
0.12,-0.117,1.506,0.087
0.13,-0.082,1.134,0.119
0.14,-0.047,0.577,-0.018
0.15,-0.365,0.672,-0.234
0.16,-0.158,1.907,0.022
0.17,0.009,0.734,0.095
0.18,-0.096,0.885,-0.008
0.19,-0.362,0.359,-0.257
0.2,-0.155,2.0,0.031
0.21,-0.051,0.835,0.111
0.22,-0.11,0.604,-0.037
0.23,-0.389,0.73,-0.249
0.24,-0.108,1.604,0.084
0.25,-0.171,1.23,0.088
0.26,0.051,0.303,-0.058
0.27,-0.479,1.102,-0.21
0.28,-0.085,1.41,0.107
0.29,-0.19,1.198,0.131
0.3,0.03,0.532,-0.014
0.31,-0.499,0.719,-0.189
0.32,-0.16,1.805,0.12
0.33,-0.132,0.822,0.074
0.34,-0.097,0.899,-0.02
0.35,-0.434,0.307,-0.171
0.36,-0.214,1.907,0.174
0.37,-0.171,0.817,0.088
0.38,-0.13,0.766,-0.014
0.39,-0.446,0.595,-0.193
0.4,-0.102,1.567,0.135
0.41,-0.225,1.208,0.085
0.42,0.066,0.405,-0.127
0.43,-0.51,1.04,-0.218
0.44,0.088,1.329,0.191
0.45,-0.21,1.264,0.026
0.46,-0.021,0.478,-0.053
0.47,-0.457,0.758,-0.203
0.48,-0.108,1.55,0.19
0.49,-0.174,0.894,0.076
0.5,-0.143,0.905,-0.083
0.51,-0.38,0.28,-0.173
0.52,-0.182,1.823,0.168
0.53,-0.117,0.795,0.105
0.54,-0.192,0.897,-0.087
0.55,-0.423,0.467,-0.183
0.56,-0.093,1.553,0.157
0.57,-0.289,1.206,0.078
0.58,0.023,0.459,-0.008
0.59,-0.594,0.981,-0.143
0.6,0.041,1.16,0.255
0.61,-0.27,1.359,0.063
0.62,-0.094,0.509,-0.038
0.63,-0.495,0.754,-0.164
0.64,-0.101,1.449,0.189
0.65,-0.122,0.987,0.05
0.66,-0.132,0.924,-0.126
0.67,-0.351,0.299,-0.227
0.68,-0.183,1.694,0.228
0.69,-0.106,0.841,0.09
0.7,-0.262,0.879,-0.057
0.71,-0.323,0.437,-0.194
0.72,-0.167,1.329,0.21
0.73,-0.13,1.171,0.055
0.74,-0.121,0.462,-0.086
0.75,-0.454,0.966,-0.143
0.76,-0.008,1.089,0.208
0.77,-0.251,1.358,0.096
0.78,-0.09,0.36,-0.139
0.79,-0.474,1.004,-0.176
0.8,0.0,0.928,0.152
0.81,-0.164,1.303,0.035
0.82,-0.242,0.573,-0.113
0.83,-0.438,0.594,-0.094
0.84,-0.084,1.309,0.212
0.85,-0.129,0.803,0.072
0.86,-0.356,0.907,-0.125
0.87,-0.358,0.44,-0.099
0.88,-0.166,1.34,0.196
0.89,-0.143,0.872,0.03
0.9,-0.273,0.708,-0.161
0.91,-0.443,0.797,-0.15
0.92,-0.067,1.004,0.225
0.93,-0.163,1.25,0.034
0.94,-0.231,0.322,-0.159
0.95,-0.479,1.135,-0.087
0.96,-0.036,0.864,0.161
0.97,-0.262,1.271,0.074
0.98,-0.254,0.484,-0.107
0.99,-0.363,1.022,-0.031
1.0,-0.118,1.148,0.204
1.01,-0.087,0.746,0.079
1.02,-0.379,0.965,-0.114
1.03,-0.29,0.766,-0.029
1.04,-0.208,1.319,0.208
1.05,-0.156,0.738,0.091
1.06,-0.431,0.838,-0.115
1.07,-0.284,1.012,-0.08
1.08,-0.075,0.928,0.173
1.09,-0.168,1.162,0.007
1.1,-0.219,0.349,-0.21
1.11,-0.191,1.69,-0.13
1.12,0.05,0.846,0.163
1.13,-0.208,1.073,0.106
1.14,-0.246,0.572,-0.182
1.15,-0.316,1.357,-0.053
1.16,-0.148,1.021,0.186
1.17,-0.119,0.715,0.035
1.18,-0.361,0.912,-0.206
1.19,-0.211,1.025,-0.052
1.2,-0.078,1.269,0.149
1.21,-0.007,0.619,0.039
1.22,-0.362,1.01,-0.177
1.23,-0.232,1.346,-0.113
1.24,-0.097,0.983,0.163
1.25,-0.123,1.012,0.059
1.26,-0.336,0.507,-0.246
1.27,-0.344,1.685,-0.074
1.28,-0.087,0.703,0.135
1.29,-0.205,1.088,0.031
1.3,-0.288,0.531,-0.168
1.31,-0.317,1.565,-0.061
1.32,-0.022,1.015,0.187
1.33,0.0,0.621,0.041
1.34,-0.425,1.076,-0.212
1.35,-0.188,1.184,-0.056
1.36,-0.238,1.191,0.153
1.37,0.011,0.56,0.066
1.38,-0.517,0.971,-0.215
1.39,-0.201,1.337,0.013
1.4,-0.124,0.929,0.086
1.41,-0.148,0.861,0.053
1.42,-0.249,0.619,-0.202
1.43,-0.354,1.838,0.018
1.44,0.006,0.708,0.154
1.45,-0.146,0.995,0.036
1.46,-0.314,0.498,-0.182
1.47,-0.279,1.691,0.002
1.48,-0.093,0.94,0.195
1.49,-0.051,0.651,0.057
1.5,-0.515,0.987,-0.188
1.51,-0.278,1.21,0.037
1.52,-0.23,1.098,0.164
1.53,-0.02,0.587,0.098
1.54,-0.5,0.998,-0.189
1.55,-0.237,1.435,0.072
1.56,-0.152,1.103,0.245
1.57,-0.084,0.693,0.081
1.58,-0.356,0.667,-0.138
1.59,-0.172,1.687,0.061
1.6,-0.054,0.867,0.211
1.61,-0.129,0.842,0.034
1.62,-0.386,0.399,-0.183
1.63,-0.268,2.0,0.097
1.64,-0.076,0.621,0.147
1.65,-0.084,0.904,0.031
1.66,-0.392,0.611,-0.236
1.67,-0.145,1.649,0.11
1.68,-0.18,1.1,0.126
1.69,0.088,0.355,0.026
1.7,-0.352,1.084,-0.171
1.71,-0.083,1.432,0.09
1.72,-0.198,1.172,0.14
1.73,0.062,0.5,0.005
1.74,-0.593,0.823,-0.163
1.75,-0.009,1.783,0.085
1.76,-0.209,0.754,0.125
1.77,0.041,0.832,0.023
1.78,-0.412,0.505,-0.226
1.79,-0.163,1.992,0.085
1.8,-0.01,0.64,0.126
1.81,-0.072,0.892,-0.022
1.82,-0.401,0.468,-0.249
1.83,-0.057,1.827,0.047
1.84,-0.147,1.015,0.113
1.85,0.042,0.431,-0.046
1.86,-0.439,1.008,-0.237
1.87,0.018,1.572,0.092
1.88,-0.15,1.277,0.159
1.89,0.088,0.326,0.001
1.9,-0.488,0.975,-0.247
1.91,-0.014,1.666,0.036
1.92,-0.088,0.946,0.096
1.93,-0.015,0.789,-0.084
1.94,-0.336,0.438,-0.256
1.95,-0.066,2.0,0.047
1.96,-0.026,0.68,0.084
1.97,-0.077,0.854,-0.041
1.98,-0.378,0.443,-0.238
1.99,-0.112,1.888,0.125
2.0,-0.128,1.027,0.068
2.01,-0.026,0.372,-0.01
2.02,-0.464,0.982,-0.224
2.03,-0.07,1.479,0.161
2.04,-0.219,1.248,0.126
2.05,0.074,0.409,0.014
2.06,-0.507,1.013,-0.177
2.07,-0.026,1.681,0.121
2.08,-0.196,1.074,0.063
2.09,0.056,0.711,-0.061
2.1,-0.418,0.514,-0.196
2.11,-0.073,1.988,0.13
2.12,-0.052,0.676,0.034
2.13,-0.103,0.914,-0.063
2.14,-0.306,0.36,-0.217
2.15,-0.104,1.978,0.114
2.16,-0.187,0.94,0.129
2.17,-0.021,0.608,-0.063
2.18,-0.473,0.89,-0.212
2.19,0.07,1.482,0.179
2.2,-0.318,1.377,0.104
2.21,0.139,0.297,-0.037
2.22,-0.555,1.018,-0.296
2.23,0.032,1.389,0.113
2.24,-0.233,1.052,0.018
2.25,-0.065,0.772,-0.07
2.26,-0.429,0.432,-0.165
2.27,-0.094,1.908,0.153
2.28,-0.096,0.895,0.074
2.29,-0.194,0.858,-0.071
2.3,-0.405,0.346,-0.162
2.31,-0.193,1.753,0.176
2.32,-0.254,1.003,0.15
2.33,-0.166,0.657,-0.047
2.34,-0.494,0.718,-0.118
2.35,-0.078,1.327,0.156
2.36,-0.332,1.383,0.125
2.37,-0.396,0.564,-0.153
2.38,-0.141,1.234,0.205
2.39,-0.231,0.832,0.12
2.4,-0.33,0.747,-0.135
2.41,-0.338,1.151,-0.063
2.42,-0.051,0.846,0.184
2.43,-0.199,1.276,0.035
2.44,-0.236,0.272,-0.183
2.45,-0.316,1.571,-0.05
2.46,0.032,0.782,0.173
2.47,-0.234,1.064,0.042
2.48,-0.286,0.614,-0.17
2.49,-0.224,1.272,-0.087
2.5,-0.088,1.144,0.157
2.51,-0.047,0.578,0.053
2.52,-0.478,1.062,-0.148
2.53,-0.19,1.07,-0.024
2.54,-0.155,1.23,0.162
2.55,-0.125,0.67,0.037
2.56,-0.405,0.896,-0.149
2.57,-0.281,1.523,-0.048
2.58,-0.026,0.838,0.136
2.59,-0.128,0.997,0.038
2.6,-0.264,0.521,-0.259
2.61,-0.39,1.804,0.015
2.62,-0.041,0.727,0.151
2.63,-0.233,0.954,0.056
2.64,-0.329,0.615,-0.264
2.65,-0.298,1.545,0.016
2.66,-0.123,0.986,0.114
2.67,-0.037,0.595,0.037
2.68,-0.45,1.138,-0.169
2.69,-0.21,1.311,0.068
2.7,-0.158,1.201,0.202
2.71,-0.06,0.495,0.12
2.72,-0.466,0.945,-0.167
2.73,-0.265,1.593,0.132
2.74,-0.198,0.794,0.188
2.75,-0.116,0.869,0.05
2.76,-0.408,0.462,-0.206
2.77,-0.34,1.896,0.161
2.78,-0.036,0.721,0.174
2.79,-0.116,0.912,0.065
2.8,-0.359,0.599,-0.178
2.81,-0.281,1.722,0.119
2.82,-0.181,0.92,0.161
2.83,0.067,0.511,0.037
2.84,-0.513,0.991,-0.178
2.85,-0.055,1.417,0.11
2.86,-0.308,1.213,0.174
2.87,0.1,0.403,0.006
2.88,-0.571,0.955,-0.204
2.89,0.008,1.752,0.089
2.9,-0.179,0.917,0.119
2.91,-0.002,0.725,0.022
2.92,-0.467,0.483,-0.184
2.93,-0.13,2.0,0.084
2.94,-0.089,0.664,0.157
2.95,-0.085,0.873,-0.009
2.96,-0.354,0.459,-0.245
2.97,-0.153,1.901,0.1
2.98,-0.073,0.965,0.113
2.99,0.002,0.439,-0.027
3.0,-0.475,0.982,-0.23
3.01,0.003,1.508,0.07
3.02,-0.127,1.283,0.111
3.03,0.081,0.391,-0.027
3.04,-0.497,1.011,-0.209
3.05,-0.028,1.704,0.074
3.06,-0.178,1.012,0.131
3.07,0.072,0.489,-0.025
3.08,-0.544,0.739,-0.17
3.09,-0.12,1.625,0.162
3.1,-0.243,0.842,0.122
3.11,-0.134,0.969,-0.08
3.12,-0.455,0.299,-0.186
3.13,-0.21,1.796,0.156
3.14,-0.148,0.817,0.135
3.15,-0.183,0.871,-0.079
3.16,-0.457,0.521,-0.199
3.17,-0.052,1.347,0.166
3.18,-0.237,1.378,0.091
3.19,-0.049,0.416,-0.057
3.2,-0.593,1.0,-0.159
3.21,0.002,1.177,0.211
3.22,-0.294,1.306,0.079
3.23,-0.049,0.545,-0.052
3.24,-0.516,0.731,-0.19
3.25,-0.136,1.341,0.197
3.26,-0.082,0.961,0.08
3.27,-0.204,0.897,-0.084
3.28,-0.393,0.28,-0.181
3.29,-0.209,1.497,0.192
3.3,-0.152,0.809,0.036
3.31,-0.214,0.879,-0.089
3.32,-0.437,0.459,-0.159
3.33,-0.099,1.201,0.144
3.34,-0.187,1.228,0.044
3.35,-0.021,0.478,-0.119
3.36,-0.576,0.996,-0.12
3.37,-0.011,0.926,0.207
3.38,-0.327,1.345,0.087
3.39,-0.119,0.438,-0.084
3.4,-0.454,0.778,-0.135
3.41,-0.108,1.205,0.133
3.42,-0.129,0.924,0.006
3.43,-0.239,0.885,-0.118
3.44,-0.424,0.356,-0.09
3.45,-0.24,1.342,0.229
3.46,-0.172,0.767,0.052
3.47,-0.345,0.828,-0.102
3.48,-0.381,0.605,-0.126
3.49,-0.132,1.135,0.16
3.5,-0.257,0.996,0.028
3.51,-0.21,0.515,-0.114
3.52,-0.472,1.095,-0.072
3.53,-0.054,0.84,0.202
3.54,-0.291,1.249,0.064
3.55,-0.2,0.381,-0.123
3.56,-0.374,1.046,-0.039
3.57,-0.028,1.021,0.154
3.58,-0.183,0.904,0.07
3.59,-0.318,0.785,-0.141
3.6,-0.329,0.752,-0.044
3.61,-0.157,1.326,0.169
3.62,-0.241,0.633,0.101
3.63,-0.356,0.966,-0.101
3.64,-0.332,0.92,-0.049
3.65,-0.111,1.114,0.195
3.66,-0.229,0.958,0.056
3.67,-0.288,0.54,-0.194
3.68,-0.295,1.425,-0.094
3.69,-0.051,0.802,0.161
3.7,-0.27,1.226,0.076
3.71,-0.227,0.325,-0.163
3.72,-0.274,1.526,-0.09
3.73,-0.029,0.924,0.155
3.74,-0.194,0.828,0.018
3.75,-0.365,0.791,-0.172
3.76,-0.264,1.121,0.002
3.77,-0.124,1.243,0.217
3.78,-0.058,0.54,0.035
3.79,-0.436,1.099,-0.197
3.8,-0.178,1.132,-0.04
3.81,-0.106,1.117,0.116
3.82,-0.152,0.804,-0.014
3.83,-0.339,0.662,-0.185
3.84,-0.223,1.743,-0.02
3.85,0.01,0.772,0.134
3.86,-0.118,1.06,0.045
3.87,-0.423,0.436,-0.227
3.88,-0.2,1.919,0.049
3.89,-0.029,0.776,0.094
3.9,-0.138,0.897,0.009
3.91,-0.369,0.528,-0.231
3.92,-0.253,1.666,0.061
3.93,-0.07,1.082,0.136
3.94,-0.058,0.445,0.005
3.95,-0.506,1.016,-0.199
3.96,-0.18,1.418,0.078
3.97,-0.224,1.141,0.234
3.98,0.055,0.485,0.049
3.99,-0.531,0.938,-0.192
4.0,-0.072,1.616,0.078
4.01,-0.111,0.991,0.138
4.02,-0.068,0.742,-0.004
4.03,-0.414,0.437,-0.22
4.04,-0.163,2.0,0.094
4.05,-0.047,0.687,0.12
4.06,-0.113,0.887,-0.018
4.07,-0.376,0.417,-0.228
4.08,-0.11,1.859,0.108
4.09,-0.116,0.948,0.111
4.1,-0.017,0.453,-0.031
4.11,-0.429,0.973,-0.256
4.12,-0.065,1.483,0.084
4.13,-0.114,1.217,0.086
4.14,0.091,0.346,-0.029
4.15,-0.435,0.971,-0.273
4.16,-0.079,1.553,0.033
4.17,-0.064,1.055,0.064
4.18,-0.027,0.742,-0.066
4.19,-0.358,0.435,-0.233
4.2,-0.144,2.0,0.092
4.21,-0.011,0.761,0.072
4.22,-0.182,0.914,-0.047
4.23,-0.381,0.387,-0.201
4.24,-0.139,1.854,0.11
4.25,-0.028,1.036,0.077
4.26,-0.026,0.506,-0.055
4.27,-0.472,0.846,-0.23
4.28,-0.077,1.351,0.164
4.29,-0.196,1.377,0.1
4.3,-0.036,0.439,-0.064
4.31,-0.524,0.957,-0.205
4.32,-0.087,1.344,0.188
4.33,-0.162,1.169,0.126
4.34,-0.082,0.723,-0.092
4.35,-0.46,0.446,-0.164
4.36,-0.171,1.679,0.163
4.37,-0.146,0.82,0.123
4.38,-0.206,1.012,-0.082
4.39,-0.435,0.272,-0.16
4.4,-0.151,1.554,0.206
4.41,-0.217,1.002,0.107
4.42,-0.166,0.722,-0.018
4.43,-0.481,0.79,-0.164
4.44,-0.014,1.174,0.146
4.45,-0.308,1.419,0.079
4.46,0.005,0.4,-0.062
4.47,-0.51,1.005,-0.172
4.48,-0.023,0.868,0.179
4.49,-0.207,1.249,-0.011
4.5,-0.237,0.452,-0.128
4.51,-0.441,0.784,-0.128
4.52,-0.034,1.097,0.116
4.53,-0.164,0.927,0.013
4.54,-0.29,0.876,-0.142
4.55,-0.384,0.422,-0.072
4.56,-0.094,1.376,0.161
4.57,-0.13,0.733,0.025
4.58,-0.333,0.82,-0.154
4.59,-0.343,0.732,-0.104
4.6,-0.046,1.128,0.122
4.61,-0.253,1.041,0.026
4.62,-0.234,0.414,-0.148
4.63,-0.346,1.361,-0.059
4.64,0.014,0.818,0.198
4.65,-0.263,1.247,0.051
4.66,-0.26,0.389,-0.18
4.67,-0.284,1.643,-0.064
4.68,-0.041,0.81,0.202
4.69,-0.158,1.034,0.029
4.7,-0.272,0.685,-0.202
4.71,-0.26,1.265,-0.035
4.72,-0.121,1.099,0.126
4.73,-0.011,0.613,0.037
4.74,-0.419,1.022,-0.208
4.75,-0.199,1.169,0.019
4.76,-0.109,1.195,0.12
4.77,-0.063,0.621,0.044
4.78,-0.366,0.886,-0.22
4.79,-0.272,1.613,0.016
4.8,-0.061,0.758,0.134
4.81,-0.192,0.978,0.047
4.82,-0.379,0.388,-0.198
4.83,-0.304,1.902,0.041
4.84,-0.089,0.706,0.194
4.85,-0.138,0.89,0.033
4.86,-0.414,0.631,-0.191
4.87,-0.332,1.534,0.106
4.88,-0.124,1.079,0.151
4.89,-0.013,0.481,0.038
4.9,-0.465,1.021,-0.169
4.91,-0.142,1.362,0.106
4.92,-0.248,1.251,0.214
4.93,0.025,0.435,0.051
4.94,-0.47,0.871,-0.181
4.95,-0.074,1.707,0.056
4.96,-0.113,0.813,0.132
4.97,-0.098,0.849,-0.01
4.98,-0.403,0.398,-0.17
4.99,-0.185,2.0,0.114
5.0,-0.115,0.624,0.128
5.01,-0.104,0.878,0.005
5.02,-0.398,0.494,-0.228
5.03,-0.087,1.809,0.038
5.04,-0.126,1.054,0.097
5.05,0.056,0.366,-0.081
5.06,-0.473,0.999,-0.232
5.07,-0.013,1.513,0.071
5.08,-0.144,1.303,0.077
5.09,0.067,0.34,-0.048
5.1,-0.401,0.929,-0.22
5.11,-0.085,1.667,0.075
5.12,-0.074,0.96,0.075
5.13,-0.063,0.812,-0.047
5.14,-0.379,0.424,-0.187
5.15,-0.192,1.93,0.135
5.16,-0.078,0.73,0.089
5.17,-0.137,0.894,-0.062
5.18,-0.376,0.403,-0.212
5.19,-0.099,1.755,0.099
5.2,-0.162,1.101,0.086
5.21,0.006,0.449,-0.077
5.22,-0.592,0.943,-0.179
5.23,-0.068,1.213,0.222
5.24,-0.322,1.345,0.146
5.25,-0.089,0.422,-0.032
5.26,-0.488,0.875,-0.139
5.27,-0.096,1.292,0.152
5.28,-0.168,1.091,0.074
5.29,-0.173,0.848,-0.097
5.3,-0.389,0.341,-0.124
5.31,-0.219,1.642,0.226
5.32,-0.103,0.79,0.124
5.33,-0.187,1.019,-0.067
5.34,-0.446,0.295,-0.154
5.35,-0.183,1.409,0.181
5.36,-0.223,1.105,0.024
5.37,-0.047,0.563,-0.116
5.38,-0.481,0.913,-0.178
5.39,0.01,0.998,0.191
5.4,-0.228,1.356,0.016
5.41,-0.126,0.362,-0.14
5.42,-0.436,0.918,-0.181
5.43,0.031,1.105,0.13
5.44,-0.163,1.093,0.028
5.45,-0.159,0.757,-0.157
5.46,-0.485,0.41,-0.131
5.47,-0.126,1.37,0.16
5.48,-0.155,0.793,0.065
5.49,-0.312,0.887,-0.156
5.5,-0.33,0.637,-0.055
5.51,-0.193,1.28,0.192
5.52,-0.196,0.761,0.086
5.53,-0.372,0.854,-0.113
5.54,-0.332,0.912,-0.07
5.55,-0.128,0.979,0.182
5.56,-0.208,1.191,0.063
5.57,-0.242,0.323,-0.132
5.58,-0.292,1.531,-0.066
5.59,-0.03,0.775,0.155
5.6,-0.224,1.147,0.04
5.61,-0.261,0.461,-0.167
5.62,-0.227,1.332,-0.091
5.63,-0.035,1.075,0.053
5.64,-0.088,0.642,0.015
5.65,-0.373,1.034,-0.187
5.66,-0.207,1.029,-0.049
5.67,-0.127,1.267,0.179
5.68,-0.173,0.592,0.048
5.69,-0.379,0.966,-0.167
5.7,-0.225,1.358,-0.039
5.71,-0.022,0.959,0.105
5.72,-0.178,0.966,0.022
5.73,-0.398,0.506,-0.213
5.74,-0.344,1.754,0.045
5.75,-0.103,0.673,0.14
5.76,-0.24,1.084,0.074
5.77,-0.277,0.483,-0.173
5.78,-0.326,1.65,0.025
5.79,-0.023,0.99,0.164
5.8,-0.029,0.594,0.031
5.81,-0.472,1.004,-0.156
5.82,-0.187,1.29,0.064
5.83,-0.214,1.188,0.21
5.84,-0.009,0.464,0.064
5.85,-0.508,0.981,-0.205
5.86,-0.141,1.455,0.074
5.87,-0.23,0.937,0.149
5.88,-0.035,0.774,0.028
5.89,-0.464,0.576,-0.16
5.9,-0.23,1.985,0.099
5.91,-0.052,0.665,0.15
5.92,-0.104,0.928,0.023
5.93,-0.385,0.359,-0.189
5.94,-0.133,1.94,0.082
5.95,-0.108,0.869,0.113
5.96,-0.046,0.591,0.009
5.97,-0.457,0.888,-0.234
5.98,-0.053,1.55,0.14
5.99,-0.139,1.245,0.132
6.0,0.021,0.275,0.016
6.01,-0.499,1.1,-0.218
6.02,-0.08,1.579,0.113
6.03,-0.154,1.019,0.14
6.04,-0.011,0.719,-0.036
6.05,-0.388,0.54,-0.178
6.06,-0.172,1.947,0.046
6.07,0.013,0.773,0.055
6.08,-0.122,0.892,-0.025
6.09,-0.312,0.354,-0.206
6.1,-0.147,1.927,0.134
6.11,-0.041,0.927,0.091
6.12,-0.11,0.578,-0.028
6.13,-0.463,0.792,-0.23
6.14,-0.133,1.555,0.124
6.15,-0.278,1.301,0.12
6.16,0.052,0.405,-0.06
6.17,-0.583,1.008,-0.17
6.18,-0.05,1.33,0.231
6.19,-0.252,1.249,0.097
6.2,-0.038,0.64,-0.046
6.21,-0.458,0.521,-0.162
6.22,-0.188,1.766,0.164
6.23,-0.18,0.72,0.119
6.24,-0.214,1.05,-0.048
6.25,-0.418,0.199,-0.18
6.26,-0.214,1.653,0.207
6.27,-0.213,0.948,0.089
6.28,-0.133,0.738,-0.05
6.29,-0.429,0.414,-0.184
6.3,-0.033,1.203,0.166
6.31,-0.202,1.253,-0.024
6.32,-0.149,0.404,-0.199
6.33,-0.451,0.927,-0.146
6.34,-0.005,0.908,0.188
6.35,-0.228,1.276,0.024
6.36,-0.109,0.449,-0.16
6.37,-0.504,0.856,-0.118
6.38,0.006,1.113,0.16
6.39,-0.17,0.96,0.033
6.4,-0.275,0.81,-0.126
6.41,-0.439,0.497,-0.076
6.42,-0.169,1.369,0.211
6.43,-0.211,0.731,0.091
6.44,-0.375,0.878,-0.059
6.45,-0.422,0.629,-0.04
6.46,-0.106,1.199,0.192
6.47,-0.262,1.027,0.068
6.48,-0.249,0.528,-0.111
6.49,-0.422,1.179,-0.043
6.5,-0.083,0.839,0.239
6.51,-0.305,1.269,0.062
6.52,-0.228,0.305,-0.154
6.53,-0.344,1.328,-0.084
6.54,0.003,0.987,0.176
6.55,-0.213,0.917,0.063
6.56,-0.298,0.806,-0.131
6.57,-0.312,0.968,-0.026
6.58,-0.146,1.274,0.155
6.59,-0.2,0.629,0.068
6.6,-0.382,0.956,-0.165
6.61,-0.313,1.015,-0.053
6.62,-0.099,1.105,0.136
6.63,-0.203,0.937,0.031
6.64,-0.263,0.593,-0.164
6.65,-0.295,1.671,-0.025
6.66,0.043,0.786,0.121
6.67,-0.213,1.125,0.014
6.68,-0.236,0.469,-0.198
6.69,-0.333,1.62,-0.035
6.7,-0.016,0.829,0.105
6.71,-0.139,0.823,-0.016
6.72,-0.337,0.799,-0.251
6.73,-0.176,1.275,-0.01
6.74,-0.06,1.168,0.108
6.75,0.006,0.49,0.014
6.76,-0.41,1.134,-0.212
6.77,-0.226,1.291,0.033
6.78,-0.162,1.052,0.152
6.79,-0.123,0.734,0.036
6.8,-0.438,0.65,-0.195
6.81,-0.328,1.75,0.034
6.82,-0.031,0.702,0.137
6.83,-0.135,1.049,-0.016
6.84,-0.306,0.445,-0.202
6.85,-0.333,1.885,0.056
6.86,-0.061,0.756,0.174
6.87,-0.072,0.819,0.044
6.88,-0.43,0.768,-0.234
6.89,-0.177,1.421,0.104
6.9,-0.14,1.19,0.116
6.91,-0.019,0.385,0.043
6.92,-0.437,1.078,-0.156
6.93,-0.205,1.417,0.108
6.94,-0.165,1.042,0.154
6.95,0.001,0.64,0.021
6.96,-0.436,0.729,-0.192
6.97,-0.163,1.905,0.088
6.98,-0.066,0.708,0.112
6.99,-0.066,0.915,0.027
7.0,-0.375,0.382,-0.185
7.01,-0.256,2.0,0.137
7.02,-0.157,0.685,0.151
7.03,-0.107,0.743,0.012
7.04,-0.356,0.702,-0.248
7.05,-0.112,1.638,0.103
7.06,-0.115,1.142,0.108
7.07,0.042,0.321,-0.036
7.08,-0.491,1.069,-0.207
7.09,-0.046,1.481,0.156
7.1,-0.214,1.31,0.089
7.11,0.016,0.375,-0.051
7.12,-0.491,1.001,-0.252
7.13,-0.028,1.579,0.174
7.14,-0.158,1.073,0.03
7.15,0.019,0.703,-0.066
7.16,-0.493,0.407,-0.144
7.17,-0.221,1.781,0.199
7.18,-0.218,0.722,0.141
7.19,-0.188,0.938,-0.079
7.2,-0.421,0.301,-0.18
7.21,-0.079,1.748,0.126
7.22,-0.201,1.062,0.087
7.23,-0.029,0.609,-0.114
7.24,-0.585,0.827,-0.17
7.25,0.079,1.237,0.219
7.26,-0.259,1.454,0.076
7.27,-0.054,0.328,-0.056
7.28,-0.542,0.939,-0.184
7.29,-0.044,1.297,0.177
7.3,-0.248,1.112,0.028
7.31,-0.13,0.803,-0.096
7.32,-0.449,0.382,-0.135
7.33,-0.175,1.639,0.199
7.34,-0.074,0.881,0.124
7.35,-0.239,0.97,-0.044
7.36,-0.457,0.286,-0.145
7.37,-0.13,1.464,0.158
7.38,-0.197,1.068,0.044
7.39,-0.152,0.573,-0.118
7.4,-0.446,0.814,-0.194
7.41,-0.038,0.991,0.143
7.42,-0.248,1.337,0.049
7.43,-0.133,0.366,-0.106
7.44,-0.419,0.901,-0.174
7.45,-0.048,1.053,0.151
7.46,-0.136,1.216,0.059
7.47,-0.273,0.647,-0.121
7.48,-0.411,0.497,-0.095
7.49,-0.195,1.365,0.206
7.5,-0.07,0.81,0.047
7.51,-0.291,0.892,-0.14
7.52,-0.316,0.449,-0.11
7.53,-0.172,1.288,0.144
7.54,-0.239,0.863,-0.037
7.55,-0.227,0.66,-0.11
7.56,-0.475,0.918,-0.131
7.57,-0.052,0.961,0.238
7.58,-0.313,1.251,0.119
7.59,-0.274,0.285,-0.164
7.6,-0.457,1.099,-0.015
7.61,-0.066,0.875,0.199
7.62,-0.255,1.175,0.05
7.63,-0.214,0.548,-0.115
7.64,-0.377,0.863,-0.03
7.65,-0.138,1.245,0.196
7.66,-0.082,0.708,0.075
7.67,-0.4,0.92,-0.132
7.68,-0.199,0.815,-0.064
7.69,-0.199,1.264,0.187
7.7,-0.127,0.805,0.061
7.71,-0.384,0.705,-0.146
7.72,-0.222,1.316,-0.116
7.73,-0.033,0.814,0.172
7.74,-0.209,1.207,0.06
7.75,-0.244,0.403,-0.17
7.76,-0.319,1.501,-0.058
7.77,0.015,0.767,0.142
7.78,-0.244,1.114,-0.029
7.79,-0.285,0.615,-0.218
7.8,-0.214,1.213,-0.083
7.81,-0.112,1.101,0.134
7.82,-0.044,0.584,0.015
7.83,-0.392,1.031,-0.183
7.84,-0.269,1.156,0.012
7.85,-0.172,1.132,0.144
7.86,-0.098,0.661,0.049
7.87,-0.507,0.819,-0.171
7.88,-0.333,1.583,0.1
7.89,-0.134,0.805,0.131
7.9,0.021,0.733,0.056
7.91,-0.463,0.595,-0.162
7.92,-0.181,1.974,0.1
7.93,0.005,0.682,0.068
7.94,-0.049,0.959,-0.027
7.95,-0.263,0.321,-0.253
7.96,-0.057,1.952,-0.004
7.97,-0.021,0.878,0.034
7.98,-0.015,0.549,-0.04
7.99,-0.356,0.844,-0.271
8.0,-0.086,1.539,0.127
8.01,-0.127,1.146,0.132
8.02,0.05,0.29,-0.016
8.03,-0.515,1.094,-0.213
8.04,-0.055,1.586,0.048
8.05,-0.146,1.107,0.064
8.06,0.026,0.605,-0.042
8.07,-0.37,0.61,-0.179
8.08,-0.132,1.957,0.078
8.09,-0.048,0.718,0.125
8.1,-0.146,0.939,-0.044
8.11,-0.489,0.315,-0.142
8.12,-0.132,1.885,0.154
8.13,-0.177,0.931,0.113
8.14,-0.044,0.614,-0.011
8.15,-0.522,0.734,-0.189
8.16,-0.053,1.523,0.142
8.17,-0.246,1.297,0.13
8.18,0.053,0.343,-0.087
8.19,-0.571,1.023,-0.183
8.2,-0.034,1.278,0.204
8.21,-0.301,1.219,0.098
8.22,-0.031,0.675,-0.075
8.23,-0.498,0.525,-0.172
8.24,-0.104,1.651,0.145
8.25,-0.102,0.886,0.109
8.26,-0.22,0.916,-0.117
8.27,-0.389,0.202,-0.191
8.28,-0.166,1.558,0.142
8.29,-0.235,0.927,0.085
8.3,-0.162,0.77,-0.081
8.31,-0.448,0.635,-0.168
8.32,-0.044,1.14,0.198
8.33,-0.283,1.373,0.12
8.34,-0.046,0.331,-0.079
8.35,-0.485,1.01,-0.169
8.36,-0.013,1.062,0.155
8.37,-0.21,1.203,0.077
8.38,-0.177,0.598,-0.163
8.39,-0.413,0.579,-0.153
8.4,-0.152,1.295,0.178
8.41,-0.06,0.833,0.007
8.42,-0.311,0.94,-0.129
8.43,-0.434,0.237,-0.141
8.44,-0.123,1.406,0.146
8.45,-0.146,0.919,0.021
8.46,-0.274,0.707,-0.152
8.47,-0.493,0.659,-0.162
8.48,0.03,1.037,0.216
8.49,-0.318,1.28,0.009
8.5,-0.138,0.333,-0.114
8.51,-0.513,1.127,-0.11
8.52,-0.005,0.893,0.19
8.53,-0.263,1.201,0.045
8.54,-0.223,0.496,-0.08
8.55,-0.417,0.882,-0.044
8.56,-0.097,1.169,0.201
8.57,-0.165,0.778,0.081
8.58,-0.336,0.957,-0.084
8.59,-0.395,0.651,-0.03
8.6,-0.179,1.267,0.207
8.61,-0.193,0.78,0.105
8.62,-0.283,0.754,-0.129
8.63,-0.35,1.072,-0.085
8.64,0.014,0.998,0.17
8.65,-0.279,1.144,0.037
8.66,-0.152,0.407,-0.177
8.67,-0.327,1.516,-0.098
8.68,0.018,0.796,0.138
8.69,-0.271,1.154,0.021
8.7,-0.273,0.382,-0.191
8.71,-0.383,1.715,-0.003
8.72,-0.041,0.836,0.188
8.73,-0.166,0.809,0.033
8.74,-0.338,0.827,-0.214
8.75,-0.263,1.334,-0.013
8.76,-0.132,1.136,0.162
8.77,-0.033,0.537,0.048
8.78,-0.484,1.072,-0.207
8.79,-0.245,1.281,0.044
8.8,-0.24,1.063,0.159
8.81,-0.124,0.684,0.035
8.82,-0.418,0.661,-0.133
8.83,-0.289,1.803,0.055
8.84,-0.034,0.814,0.159
8.85,-0.184,0.942,0.039
8.86,-0.356,0.406,-0.195
8.87,-0.303,1.905,0.128
8.88,-0.091,0.798,0.179
8.89,-0.1,0.739,0.035
8.9,-0.402,0.762,-0.195
8.91,-0.144,1.53,0.093
8.92,-0.138,1.18,0.133
8.93,0.125,0.335,-0.01
8.94,-0.517,1.101,-0.207
8.95,-0.041,1.495,0.12
8.96,-0.199,1.107,0.13
8.97,-0.007,0.529,0.015
8.98,-0.471,0.735,-0.181
8.99,-0.055,2.0,0.101
9.0,-0.139,0.65,0.095
9.01,-0.003,0.889,-0.026
9.02,-0.328,0.385,-0.215
9.03,-0.167,2.0,0.104
9.04,-0.102,0.792,0.136
9.05,-0.089,0.653,-0.016
9.06,-0.398,0.655,-0.227
9.07,-0.067,1.689,0.114
9.08,-0.156,1.223,0.035
9.09,0.068,0.336,-0.037
9.1,-0.484,1.038,-0.222
9.11,0.044,1.431,0.131
9.12,-0.14,1.31,0.028
9.13,-0.032,0.466,-0.07
9.14,-0.315,0.716,-0.192
9.15,-0.143,1.691,0.168
9.16,-0.063,0.871,0.116
9.17,-0.146,0.93,-0.116
9.18,-0.325,0.268,-0.184
9.19,-0.21,1.872,0.15
9.2,-0.104,0.904,0.09
9.21,-0.177,0.789,-0.072
9.22,-0.361,0.505,-0.185
9.23,-0.133,1.48,0.162
9.24,-0.267,1.281,0.072
9.25,-0.051,0.427,-0.077
9.26,-0.479,0.938,-0.132
9.27,-0.037,1.137,0.184
9.28,-0.344,1.349,0.094
9.29,-0.046,0.549,-0.064
9.3,-0.471,0.665,-0.182
9.31,-0.057,1.305,0.193
9.32,-0.125,0.969,0.052
9.33,-0.306,0.946,-0.113
9.34,-0.331,0.198,-0.128
9.35,-0.229,1.491,0.181
9.36,-0.172,0.862,0.057
9.37,-0.24,0.858,-0.117
9.38,-0.365,0.525,-0.179
9.39,-0.053,1.051,0.202
9.4,-0.223,1.239,-0.001
9.41,-0.209,0.348,-0.18
9.42,-0.5,1.039,-0.094
9.43,0.032,0.904,0.185
9.44,-0.303,1.271,0.051
9.45,-0.175,0.4,-0.11
9.46,-0.518,0.886,-0.058
9.47,-0.005,1.107,0.168
9.48,-0.201,0.891,0.033
9.49,-0.27,0.822,-0.131
9.5,-0.295,0.646,-0.082
9.51,-0.084,1.208,0.169
9.52,-0.088,0.644,0.048
9.53,-0.411,1.008,-0.168
9.54,-0.203,1.023,-0.067
9.55,-0.184,1.114,0.147
9.56,-0.114,0.853,0.016
9.57,-0.383,0.721,-0.219
9.58,-0.33,1.415,-0.078
9.59,-0.013,0.763,0.104
9.6,-0.221,1.215,-0.036
9.61,-0.262,0.333,-0.208
9.62,-0.261,1.794,-0.016
9.63,-0.0,0.848,0.189
9.64,-0.097,0.865,0.034
9.65,-0.397,0.777,-0.168
9.66,-0.354,1.376,0.019
9.67,-0.106,1.148,0.155
9.68,-0.075,0.515,0.022
9.69,-0.454,1.028,-0.226
9.7,-0.272,1.261,0.107
9.71,-0.193,1.115,0.167
9.72,-0.096,0.616,0.087
9.73,-0.426,0.822,-0.172
9.74,-0.278,1.694,0.075
9.75,-0.076,0.808,0.189
9.76,-0.101,0.922,0.052
9.77,-0.348,0.36,-0.24
9.78,-0.154,1.969,0.091
9.79,-0.03,0.761,0.089
9.8,-0.057,0.815,-0.012
9.81,-0.333,0.682,-0.229
9.82,-0.143,1.637,0.115
9.83,-0.113,1.033,0.102
9.84,0.053,0.424,-0.035
9.85,-0.544,1.112,-0.209
9.86,-0.019,1.48,0.019
9.87,-0.171,1.199,0.086
9.88,0.051,0.437,-0.018
9.89,-0.426,0.847,-0.252
9.9,-0.114,1.733,0.011
9.91,-0.087,0.906,0.119
9.92,-0.114,0.793,-0.01
9.93,-0.426,0.299,-0.168
9.94,-0.142,2.0,0.076
9.95,-0.128,0.702,0.07
9.96,-0.056,0.81,-0.092
9.97,-0.358,0.552,-0.284
9.98,0.01,1.818,0.112
9.99,-0.137,1.159,0.044
10.0,0.037,0.244,-0.015
10.01,-0.607,1.114,-0.209
10.02,-0.023,1.352,0.126
10.03,-0.269,1.238,0.047
10.04,0.021,0.476,-0.032
10.05,-0.511,0.793,-0.162
10.06,-0.058,1.586,0.172
10.07,-0.146,0.877,0.118
10.08,-0.18,0.894,-0.058
10.09,-0.384,0.288,-0.193
10.1,-0.153,1.948,0.143
10.11,-0.096,0.831,0.082
10.12,-0.042,0.815,-0.079
10.13,-0.449,0.431,-0.247
10.14,-0.086,1.58,0.194
10.15,-0.271,1.144,0.047
10.16,-0.018,0.476,-0.052
10.17,-0.558,0.983,-0.166
10.18,-0.0,1.249,0.137
10.19,-0.326,1.293,0.083
10.2,-0.01,0.437,-0.077
10.21,-0.541,0.795,-0.185
10.22,-0.043,1.373,0.219
10.23,-0.208,1.011,0.107
10.24,-0.128,0.882,-0.086
10.25,-0.496,0.288,-0.135
10.26,-0.145,1.621,0.211
10.27,-0.17,0.832,0.092
10.28,-0.231,0.905,-0.042
10.29,-0.49,0.38,-0.158
10.3,-0.176,1.376,0.272
10.31,-0.123,0.98,0.034
10.32,-0.224,0.638,-0.089
10.33,-0.432,0.713,-0.24
10.34,0.045,1.091,0.112
10.35,-0.137,1.33,0.057
10.36,-0.17,0.268,-0.169
10.37,-0.454,1.028,-0.187
10.38,0.051,0.962,0.127
10.39,-0.194,1.312,0.075
10.4,-0.161,0.485,-0.126
10.41,-0.493,0.63,-0.089
10.42,-0.121,1.304,0.228
10.43,-0.107,0.761,0.062
10.44,-0.367,0.959,-0.127
10.45,-0.471,0.273,-0.108
10.46,-0.152,1.344,0.209
10.47,-0.117,0.972,0.044
10.48,-0.263,0.668,-0.155
10.49,-0.433,0.71,-0.115
10.5,-0.024,1.044,0.197
10.51,-0.201,1.332,0.025
10.52,-0.148,0.274,-0.135
10.53,-0.5,1.134,-0.137
10.54,0.025,0.922,0.13
10.55,-0.269,1.221,0.036
10.56,-0.178,0.483,-0.131
10.57,-0.48,0.732,-0.071
10.58,-0.05,1.232,0.158
10.59,-0.173,0.815,0.069
10.6,-0.355,0.897,-0.107
10.61,-0.44,0.464,-0.049
10.62,-0.122,1.312,0.183
10.63,-0.179,0.837,0.061
10.64,-0.345,0.685,-0.108
10.65,-0.354,0.985,-0.109
10.66,-0.052,1.0,0.203
10.67,-0.262,1.169,0.05
10.68,-0.214,0.373,-0.117
10.69,-0.479,1.308,-0.053
10.7,-0.014,0.882,0.147
10.71,-0.144,1.25,0.227
10.72,-0.182,0.925,0.034
10.73,-0.256,0.646,-0.124
10.74,-0.477,1.041,-0.059
10.75,-0.06,0.834,0.239
10.76,-0.243,1.322,0.088
10.77,-0.262,0.207,-0.11
10.78,-0.437,1.161,-0.096
10.79,-0.018,0.974,0.152
10.8,-0.187,1.0,0.044
10.81,-0.208,0.706,-0.189
10.82,-0.341,0.818,-0.135
10.83,-0.067,1.328,0.173
10.84,-0.082,0.664,0.096
10.85,-0.391,0.961,-0.114
10.86,-0.39,0.707,-0.025
10.87,-0.112,1.203,0.178
10.88,-0.244,0.972,0.054
10.89,-0.209,0.561,-0.13
10.9,-0.422,1.266,-0.102
10.91,0.005,0.898,0.18
10.92,-0.293,1.278,0.047
10.93,-0.192,0.318,-0.191
10.94,-0.416,1.284,-0.045
10.95,-0.004,0.877,0.139
10.96,-0.28,1.06,0.059
10.97,-0.141,0.638,-0.122
10.98,-0.418,0.876,-0.06
10.99,-0.036,1.287,0.172
11.0,-0.126,0.676,0.03
11.01,-0.309,0.9,-0.175
11.02,-0.244,0.845,-0.096
11.03,-0.028,1.245,0.117
11.04,-0.213,0.838,0.044
11.05,-0.373,0.95,-0.131
11.06,-0.28,1.364,-0.065
11.07,-0.054,1.05,0.161
11.08,-0.197,0.983,0.034
11.09,-0.27,0.491,-0.187
11.1,-0.402,1.71,-0.032
11.11,0.011,0.719,0.135
11.12,-0.292,1.113,0.081
11.13,-0.247,0.555,-0.207
11.14,-0.316,1.469,-0.04
11.15,-0.038,0.966,0.112
11.16,-0.046,0.74,0.031
11.17,-0.38,0.973,-0.188
11.18,-0.278,1.082,-0.017
11.19,-0.107,1.188,0.15
11.2,-0.056,0.613,0.046
11.21,-0.443,0.95,-0.22
11.22,-0.288,1.249,0.001
11.23,-0.125,0.976,0.166
11.24,-0.177,0.928,0.029
11.25,-0.248,0.521,-0.21
11.26,-0.353,1.85,0.012
11.27,-0.029,0.724,0.16
11.28,-0.195,1.028,0.083
11.29,-0.375,0.499,-0.135
11.3,-0.416,1.698,0.051
11.31,-0.116,0.872,0.16
11.32,-0.083,0.696,0.027
11.33,-0.426,0.955,-0.204
11.34,-0.241,1.269,0.029
11.35,-0.204,1.162,0.21
11.36,0.004,0.516,0.088
11.37,-0.483,1.041,-0.189
11.38,-0.24,1.371,0.032
11.39,-0.158,0.976,0.171
11.4,-0.055,0.827,0.023
11.41,-0.413,0.506,-0.207
11.42,-0.294,1.859,0.057
11.43,-0.149,0.725,0.177
11.44,-0.209,0.958,0.084
11.45,-0.39,0.393,-0.159
11.46,-0.307,1.797,0.087
11.47,-0.166,0.834,0.151
11.48,0.01,0.684,0.057
11.49,-0.456,0.88,-0.204
11.5,-0.194,1.365,0.072
11.51,-0.227,1.188,0.179
11.52,0.027,0.41,0.062
11.53,-0.478,1.031,-0.158
11.54,-0.132,1.525,0.106
11.55,-0.172,1.003,0.205
11.56,-0.035,0.65,0.042
11.57,-0.401,0.617,-0.158
11.58,-0.185,1.962,0.117
11.59,-0.107,0.72,0.158
11.6,-0.155,0.921,0.035
11.61,-0.319,0.356,-0.204
11.62,-0.209,1.942,0.09
11.63,-0.032,0.826,0.131
11.64,-0.002,0.618,0.01
11.65,-0.381,0.826,-0.27
11.66,-0.052,1.513,0.09
11.67,-0.111,1.217,0.083
11.68,0.079,0.351,-0.007
11.69,-0.425,1.065,-0.242
11.7,-0.01,1.614,0.025
11.71,-0.113,1.061,0.035
11.72,0.065,0.591,-0.031
11.73,-0.389,0.622,-0.199
11.74,-0.122,2.0,0.044
11.75,-0.059,0.695,0.11
11.76,-0.095,0.959,-0.017
11.77,-0.318,0.331,-0.239
11.78,-0.067,2.0,0.063
11.79,-0.059,0.836,0.049
11.8,-0.026,0.578,-0.021
11.81,-0.493,0.815,-0.257
11.82,-0.008,1.595,0.1
11.83,-0.297,1.214,0.124
11.84,0.081,0.334,-0.009
11.85,-0.503,0.951,-0.173
11.86,-0.002,1.287,0.183
11.87,-0.293,1.403,0.089
11.88,-0.077,0.402,-0.035
11.89,-0.457,0.844,-0.17
11.9,-0.086,1.476,0.153
11.91,-0.262,0.954,0.15
11.92,-0.113,0.93,-0.085
11.93,-0.42,0.276,-0.16
11.94,-0.157,1.786,0.181
11.95,-0.153,0.867,0.115
11.96,-0.216,0.835,-0.051
11.97,-0.457,0.389,-0.163
11.98,-0.144,1.448,0.185
11.99,-0.25,1.113,0.09
12.0,-0.13,0.479,-0.113
12.01,-0.455,0.91,-0.137
12.02,0.01,1.114,0.163
12.03,-0.258,1.347,0.064
12.04,0.006,0.45,-0.085
12.05,-0.448,0.822,-0.202
12.06,-0.012,1.266,0.121
12.07,-0.151,1.041,0.041
12.08,-0.156,0.793,-0.133
12.09,-0.385,0.315,-0.184
12.1,-0.186,1.515,0.154
12.11,-0.057,0.732,0.06
12.12,-0.275,0.955,-0.112
12.13,-0.372,0.36,-0.184
12.14,-0.093,1.332,0.139
12.15,-0.145,1.113,-0.005
12.16,-0.106,0.519,-0.121
12.17,-0.476,0.876,-0.203
12.18,0.015,1.058,0.142
12.19,-0.239,1.326,0.004
12.2,-0.122,0.402,-0.114
12.21,-0.478,0.848,-0.167
12.22,-0.036,1.123,0.141
12.23,-0.173,1.068,0.091
12.24,-0.291,0.799,-0.128
12.25,-0.474,0.372,-0.061
12.26,-0.219,1.457,0.176
12.27,-0.143,0.828,0.076
12.28,-0.266,0.904,-0.124
12.29,-0.493,0.413,-0.097
12.3,-0.099,1.248,0.162
12.31,-0.158,1.039,0.059
12.32,-0.239,0.488,-0.147
12.33,-0.461,0.93,-0.109
12.34,-0.07,0.905,0.191
12.35,-0.235,1.299,0.078
12.36,-0.159,0.313,-0.123
12.37,-0.439,1.041,-0.102
12.38,-0.052,0.967,0.144
12.39,-0.134,1.021,0.004
12.4,-0.258,0.76,-0.143
12.41,-0.392,0.56,-0.123
12.42,-0.088,1.368,0.166
12.43,-0.142,0.693,0.104
12.44,-0.373,0.945,-0.111
12.45,-0.419,0.562,-0.074
12.46,-0.109,1.24,0.222
12.47,-0.231,0.926,0.046
12.48,-0.26,0.539,-0.121
12.49,-0.44,1.131,-0.117
12.5,-0.004,0.931,0.21
12.51,-0.271,1.204,0.081
12.52,-0.204,0.403,-0.13
12.53,-0.432,1.243,-0.041
12.54,-0.068,0.94,0.203
12.55,-0.223,0.971,0.064
12.56,-0.271,0.69,-0.096
12.57,-0.341,0.891,-0.048
12.58,-0.149,1.313,0.238
12.59,-0.064,0.595,0.084
12.6,-0.363,0.979,-0.111
12.61,-0.219,0.802,-0.096
12.62,-0.162,1.232,0.147
12.63,-0.108,0.833,0.048
12.64,-0.281,0.664,-0.174
12.65,-0.343,1.283,-0.068
12.66,-0.055,1.005,0.122
12.67,-0.19,1.008,0.018
12.68,-0.211,0.501,-0.193
12.69,-0.303,1.77,-0.031
12.7,0.026,0.79,0.159
12.71,-0.181,1.085,0.084
12.72,-0.351,0.488,-0.174
12.73,-0.222,1.498,-0.06
12.74,-0.048,0.991,0.138
12.75,-0.089,0.655,0.059
12.76,-0.448,1.016,-0.208
12.77,-0.227,1.018,-0.029
12.78,-0.155,1.228,0.14
12.79,-0.077,0.621,0.027
12.8,-0.431,0.967,-0.219
12.81,-0.226,1.342,-0.052
12.82,-0.059,0.991,0.185
12.83,-0.146,0.923,0.02
12.84,-0.309,0.495,-0.198
12.85,-0.403,1.813,0.0
12.86,0.026,0.704,0.152
12.87,-0.185,1.09,0.051
12.88,-0.274,0.517,-0.227
12.89,-0.328,1.642,0.004
12.9,-0.064,0.962,0.176
12.91,-0.137,0.643,0.059
12.92,-0.382,0.963,-0.192
12.93,-0.261,1.222,0.01
12.94,-0.158,1.166,0.141
12.95,-0.052,0.539,0.042
12.96,-0.402,1.013,-0.225
12.97,-0.249,1.426,-0.005
12.98,-0.064,0.941,0.135
12.99,-0.108,0.827,0.025
13.0,-0.418,0.571,-0.181
13.01,-0.318,1.843,0.06
13.02,-0.051,0.652,0.103
13.03,-0.212,0.967,0.046
13.04,-0.282,0.438,-0.241
13.05,-0.374,1.733,0.059
13.06,-0.003,0.872,0.071
13.07,-0.109,0.656,0.012
13.08,-0.473,0.932,-0.193
13.09,-0.281,1.334,0.114
13.1,-0.213,1.129,0.18
13.11,-0.005,0.499,0.062
13.12,-0.488,0.976,-0.165
13.13,-0.174,1.512,0.066
13.14,-0.052,1.01,0.104
13.15,-0.048,0.709,-0.003
13.16,-0.311,0.568,-0.236
13.17,-0.17,2.0,0.086
13.18,0.04,0.761,0.108
13.19,-0.1,0.887,0.007
13.2,-0.292,0.376,-0.286
13.21,-0.19,1.926,0.093
13.22,-0.08,0.809,0.076
13.23,-0.05,0.645,0.008
13.24,-0.395,0.844,-0.276
13.25,-0.079,1.509,0.099
13.26,-0.14,1.241,0.139
13.27,0.042,0.291,0.011
13.28,-0.452,1.067,-0.176
13.29,-0.1,1.594,0.08
13.3,-0.145,1.051,0.111
13.31,-0.007,0.671,-0.028
13.32,-0.375,0.599,-0.202
13.33,-0.036,2.0,0.049
13.34,-0.045,0.704,0.105
13.35,-0.093,0.86,-0.036
13.36,-0.392,0.366,-0.225
13.37,-0.054,2.0,0.029
13.38,-0.146,0.87,0.053
13.39,-0.016,0.59,-0.056
13.4,-0.451,0.797,-0.226
13.41,-0.003,1.574,0.129
13.42,-0.219,1.289,0.064
13.43,0.107,0.319,-0.058
13.44,-0.479,1.056,-0.239
13.45,-0.035,1.496,0.143
13.46,-0.274,1.338,0.083
13.47,-0.042,0.48,-0.023
13.48,-0.435,0.83,-0.194
13.49,-0.119,1.366,0.164
13.5,-0.074,0.959,0.046
13.51,-0.216,0.922,-0.092
13.52,-0.27,0.251,-0.207
13.53,-0.21,1.584,0.193
13.54,-0.052,0.847,0.076
13.55,-0.24,0.894,-0.13
13.56,-0.335,0.368,-0.165
13.57,-0.168,1.297,0.167
13.58,-0.178,1.15,-0.032
13.59,-0.016,0.556,-0.164
13.6,-0.494,0.937,-0.179
13.61,0.034,0.875,0.154
13.62,-0.225,1.376,-0.023
13.63,-0.072,0.369,-0.167
13.64,-0.447,0.836,-0.187
13.65,0.031,1.115,0.149
13.66,-0.141,1.033,0.009
13.67,-0.288,0.784,-0.162
13.68,-0.347,0.344,-0.084
13.69,-0.189,1.381,0.207
13.7,-0.081,0.78,0.044
13.71,-0.343,0.849,-0.107
13.72,-0.373,0.651,-0.066
13.73,-0.069,1.187,0.207
13.74,-0.229,1.045,0.007
13.75,-0.151,0.494,-0.178
13.76,-0.426,1.214,-0.086
13.77,-0.036,0.861,0.141
13.78,-0.288,1.326,0.084
13.79,-0.213,0.294,-0.14
13.8,-0.365,1.213,-0.029
13.81,0.005,0.937,0.109
13.82,-0.204,0.938,0.01
13.83,-0.318,0.802,-0.189
13.84,-0.182,0.953,-0.044
13.85,-0.127,1.25,0.163
13.86,-0.114,0.67,0.077
13.87,-0.395,1.038,-0.17
13.88,-0.234,1.074,-0.038
13.89,-0.084,1.024,0.147
13.9,-0.124,0.936,-0.004
13.91,-0.288,0.583,-0.213
13.92,-0.301,1.733,-0.011
13.93,-0.002,0.712,0.162
13.94,-0.197,1.05,0.08
13.95,-0.332,0.416,-0.207
13.96,-0.367,1.759,0.086
13.97,-0.024,0.88,0.119
13.98,-0.151,0.725,0.066
13.99,-0.386,0.875,-0.176
14.0,-0.276,1.338,0.118
14.01,-0.184,1.189,0.177
14.02,0.017,0.473,0.094
14.03,-0.46,1.023,-0.129
14.04,-0.194,1.408,0.148
14.05,-0.114,1.043,0.138
14.06,-0.011,0.67,0.01
14.07,-0.382,0.6,-0.177
14.08,-0.151,1.936,0.091
14.09,0.006,0.701,0.107
14.1,-0.054,0.905,-0.033
14.11,-0.334,0.377,-0.232
14.12,-0.104,2.0,0.048
14.13,-0.037,0.742,0.047
14.14,-0.04,0.651,-0.015
14.15,-0.359,0.765,-0.235
14.16,-0.083,1.645,0.083
14.17,-0.243,1.138,0.141
14.18,0.032,0.336,0.037
14.19,-0.608,1.041,-0.205
14.2,-0.026,1.369,0.204
14.21,-0.231,1.225,0.073
14.22,-0.0,0.556,-0.042
14.23,-0.521,0.639,-0.132
14.24,-0.096,1.836,0.155
14.25,-0.181,0.78,0.121
14.26,-0.144,0.998,-0.061
14.27,-0.431,0.233,-0.175
14.28,-0.133,1.694,0.193
14.29,-0.139,0.885,0.098
14.3,-0.126,0.907,-0.093
14.31,-0.462,0.341,-0.182
14.32,-0.062,1.379,0.155
14.33,-0.195,1.159,0.048
14.34,-0.071,0.511,-0.125
14.35,-0.518,0.873,-0.163
14.36,0.025,0.976,0.186
14.37,-0.237,1.35,0.044
14.38,-0.08,0.349,-0.142
14.39,-0.466,0.856,-0.136
14.4,0.008,1.117,0.175
14.41,-0.15,1.076,-0.018
14.42,-0.215,0.765,-0.142
14.43,-0.307,0.452,-0.129
14.44,-0.148,1.37,0.148
14.45,-0.14,0.747,0.02
14.46,-0.369,0.936,-0.128
14.47,-0.458,0.468,-0.101
14.48,-0.096,1.249,0.217
14.49,-0.258,1.056,0.071
14.5,-0.281,0.489,-0.124
14.51,-0.489,1.086,-0.05
14.52,-0.011,0.845,0.184
14.53,-0.317,1.342,0.069
14.54,-0.158,0.291,-0.078
14.55,-0.33,1.367,-0.095
14.56,0.02,0.959,0.184
14.57,-0.169,0.98,0.078
14.58,-0.376,0.781,-0.165
14.59,-0.267,0.918,-0.022
14.6,-0.124,1.229,0.173
14.61,-0.107,0.64,0.081
14.62,-0.386,1.0,-0.146
14.63,-0.241,1.052,-0.103
14.64,-0.079,1.15,0.157
14.65,-0.116,0.839,-0.001
14.66,-0.327,0.701,-0.17
14.67,-0.347,1.699,-0.011
14.68,-0.056,0.782,0.166
14.69,-0.19,1.096,0.098
14.7,-0.281,0.473,-0.184
14.71,-0.362,1.723,0.017
14.72,-0.059,0.793,0.164
14.73,-0.159,0.825,0.07
14.74,-0.377,0.795,-0.214
14.75,-0.243,1.365,0.009
14.76,-0.12,1.149,0.137
14.77,0.015,0.507,0.059
14.78,-0.461,1.067,-0.197
14.79,-0.254,1.301,0.052
14.8,-0.26,1.042,0.151
14.81,-0.022,0.684,0.075
14.82,-0.469,0.716,-0.136
14.83,-0.287,1.778,0.091
14.84,-0.134,0.69,0.153
14.85,-0.115,0.972,0.051
14.86,-0.293,0.397,-0.19
14.87,-0.258,1.938,0.122
14.88,-0.069,0.764,0.152
14.89,-0.141,0.751,0.036
14.9,-0.378,0.667,-0.234
14.91,-0.102,1.605,0.136
14.92,-0.162,1.13,0.108
14.93,0.049,0.378,0.014
14.94,-0.472,1.047,-0.184
14.95,-0.036,1.527,0.147
14.96,-0.163,1.148,0.123
14.97,0.083,0.494,-0.0
14.98,-0.39,0.73,-0.225
14.99,-0.07,1.873,0.073
15.0,-0.076,0.77,0.118
15.01,-0.081,0.904,-0.041
15.02,-0.337,0.347,-0.223
15.03,-0.114,2.0,0.122
15.04,-0.122,0.763,0.063
15.05,-0.083,0.699,-0.04
15.06,-0.427,0.619,-0.198
15.07,-0.139,1.692,0.188
15.08,-0.219,1.017,0.109
15.09,-0.023,0.575,-0.082
15.1,-0.551,0.857,-0.111
15.11,-0.023,1.294,0.168
15.12,-0.346,1.358,0.081
15.13,0.029,0.447,-0.067
15.14,-0.529,0.91,-0.152
15.15,0.045,1.195,0.18
15.16,-0.244,1.15,0.125
15.17,-0.169,0.712,-0.063
15.18,-0.422,0.345,-0.063
15.19,-0.188,1.461,0.229
15.2,-0.131,0.812,0.087
15.21,-0.33,0.932,-0.136
15.22,-0.388,0.34,-0.121
15.23,-0.116,1.368,0.136
15.24,-0.176,1.04,0.008
15.25,-0.102,0.576,-0.148
15.26,-0.463,0.934,-0.153
15.27,0.06,0.942,0.185
15.28,-0.31,1.332,0.013
15.29,-0.189,0.256,-0.157
15.3,-0.423,1.014,-0.136
15.31,-0.019,0.967,0.148
15.32,-0.24,1.08,0.053
15.33,-0.263,0.655,-0.14
15.34,-0.363,0.667,-0.026
15.35,-0.078,1.278,0.15
15.36,-0.079,0.716,0.049
15.37,-0.397,0.964,-0.115
15.38,-0.325,0.899,-0.067
15.39,-0.081,1.266,0.18
15.4,-0.215,0.875,0.018
15.41,-0.336,0.652,-0.126
15.42,-0.261,1.521,-0.1
15.43,0.047,0.846,0.119
15.44,-0.169,1.161,-0.018
15.45,-0.216,0.461,-0.216
15.46,-0.292,1.739,-0.076
15.47,0.077,0.836,0.126
15.48,-0.144,0.888,0.04
15.49,-0.35,0.771,-0.179
15.5,-0.309,1.328,0.019
15.51,-0.168,1.043,0.149
15.52,-0.013,0.601,0.032
15.53,-0.45,1.029,-0.194
15.54,-0.147,1.264,0.019
15.55,-0.207,1.105,0.14
15.56,0.02,0.673,0.048
15.57,-0.44,0.764,-0.189
15.58,-0.224,1.69,0.085
15.59,-0.13,0.749,0.168
15.6,-0.15,0.953,0.053
15.61,-0.403,0.367,-0.157
15.62,-0.283,2.0,0.122
15.63,-0.119,0.725,0.151
15.64,-0.058,0.843,0.054
15.65,-0.362,0.66,-0.209
15.66,-0.197,1.639,0.147
15.67,-0.143,1.107,0.173
15.68,0.098,0.419,-0.002
15.69,-0.487,1.026,-0.18
15.7,0.028,1.527,0.032
15.71,-0.113,1.288,0.101
15.72,0.037,0.444,-0.013
15.73,-0.411,0.815,-0.241
15.74,-0.064,1.862,0.051
15.75,-0.035,0.775,0.083
15.76,-0.031,0.866,-0.08
15.77,-0.409,0.351,-0.23
15.78,-0.138,2.0,0.087
15.79,-0.12,0.75,0.09
15.8,-0.146,0.802,0.002
15.81,-0.383,0.593,-0.184
15.82,-0.108,1.692,0.159
15.83,-0.175,1.167,0.089
15.84,0.047,0.399,-0.062
15.85,-0.557,1.029,-0.153
15.86,0.0,1.393,0.149
15.87,-0.236,1.303,0.116
15.88,-0.005,0.423,-0.064
15.89,-0.489,0.925,-0.151
15.9,-0.061,1.22,0.163
15.91,-0.184,1.178,0.026
15.92,-0.126,0.732,-0.145
15.93,-0.329,0.447,-0.191
15.94,-0.22,1.451,0.176
15.95,-0.081,0.856,0.095
15.96,-0.275,0.966,-0.099
15.97,-0.311,0.25,-0.165
15.98,-0.156,1.385,0.159
15.99,-0.1,0.963,-0.017
16.0,-0.308,0.594,-0.119
16.01,-0.364,0.78,-0.154
16.02,-0.093,0.95,0.148
16.03,-0.233,1.269,-0.007
16.04,-0.105,0.313,-0.155
16.05,-0.36,1.097,-0.099
16.06,-0.012,0.979,0.161
16.07,-0.181,1.142,-0.008
16.08,-0.31,0.611,-0.157
16.09,-0.335,0.614,-0.091
16.1,-0.167,1.277,0.157
16.11,-0.087,0.705,0.02
16.12,-0.304,0.916,-0.127
16.13,-0.327,0.662,-0.068
16.14,-0.052,1.309,0.173
16.15,-0.143,0.871,0.029
16.16,-0.262,0.615,-0.162
16.17,-0.255,1.353,-0.055
16.18,-0.067,0.961,0.151
16.19,-0.267,1.107,0.058
16.2,-0.245,0.339,-0.157
16.21,-0.347,1.513,-0.054
16.22,0.029,0.785,0.125
16.23,-0.268,1.088,0.029
16.24,-0.315,0.651,-0.202
16.25,-0.246,1.134,-0.059
16.26,-0.097,1.161,0.177
16.27,-0.076,0.677,0.044
16.28,-0.414,1.028,-0.193
16.29,-0.208,1.023,-0.031
16.3,-0.13,1.186,0.123
16.31,-0.114,0.725,0.004
16.32,-0.375,0.75,-0.178
16.33,-0.254,1.549,-0.004
16.34,0.003,0.836,0.139
16.35,-0.134,1.008,0.046
16.36,-0.369,0.439,-0.198
16.37,-0.33,1.875,0.064
16.38,-0.05,0.7,0.12
16.39,-0.135,0.927,0.047
16.4,-0.421,0.604,-0.174
16.41,-0.246,1.56,0.074
16.42,-0.144,0.994,0.166
16.43,0.058,0.517,0.01
16.44,-0.47,1.054,-0.155
16.45,-0.116,1.382,0.135
16.46,-0.105,1.294,0.173
16.47,0.027,0.413,0.004
16.48,-0.468,0.859,-0.161
16.49,-0.052,1.81,0.063
16.5,0.007,0.873,0.066
16.51,-0.052,0.838,-0.002
16.52,-0.395,0.379,-0.181
16.53,-0.147,2.0,0.134
16.54,-0.052,0.704,0.154
16.55,-0.068,0.803,-0.005
16.56,-0.355,0.54,-0.225
16.57,-0.081,1.814,0.11
16.58,-0.134,0.999,0.109
16.59,0.031,0.468,-0.029
16.6,-0.587,1.036,-0.168
16.61,0.042,1.476,0.2
16.62,-0.292,1.331,0.09
16.63,0.135,0.39,-0.014
16.64,-0.471,0.908,-0.215
16.65,-0.107,1.54,0.135
16.66,-0.134,0.951,0.075
16.67,-0.145,0.864,-0.065
16.68,-0.396,0.548,-0.168
16.69,-0.212,1.46,0.189
16.7,-0.077,0.817,0.099
16.71,-0.228,0.974,-0.086
16.72,-0.396,0.255,-0.154
16.73,-0.207,1.425,0.21
16.74,-0.142,0.918,0.035
16.75,-0.195,0.715,-0.157
16.76,-0.338,0.669,-0.189
16.77,0.002,1.039,0.158
16.78,-0.206,1.324,0.005
16.79,-0.071,0.376,-0.139
16.8,-0.447,1.03,-0.158
16.81,0.023,0.92,0.188
16.82,-0.253,1.262,-0.008
16.83,-0.18,0.564,-0.121
16.84,-0.37,0.638,-0.141
16.85,-0.096,1.231,0.162
16.86,-0.062,0.778,0.044
16.87,-0.369,0.928,-0.123
16.88,-0.395,0.454,-0.051
16.89,-0.126,1.34,0.202
16.9,-0.189,0.813,0.066
16.91,-0.35,0.73,-0.074
16.92,-0.32,0.999,-0.059
16.93,-0.093,0.947,0.188
16.94,-0.279,1.202,0.054
16.95,-0.194,0.329,-0.126
16.96,-0.309,1.558,-0.034
16.97,-0.028,0.807,0.198
16.98,-0.242,1.141,0.076
16.99,-0.334,0.565,-0.157
17.0,-0.223,1.209,-0.036
17.01,-0.09,1.08,0.125
17.02,-0.083,0.645,0.0
17.03,-0.325,1.032,-0.227
17.04,-0.198,0.991,-0.06
17.05,-0.116,1.197,0.136
17.06,-0.127,0.67,0.033
17.07,-0.359,0.901,-0.227
17.08,-0.349,1.353,-0.046
17.09,-0.021,0.822,0.084
17.1,-0.185,1.087,0.045
17.11,-0.298,0.405,-0.246
17.12,-0.405,1.851,0.094
17.13,-0.04,0.746,0.167
17.14,-0.172,0.99,0.077
17.15,-0.309,0.528,-0.185
17.16,-0.316,1.634,0.076
17.17,-0.093,0.995,0.132
17.18,-0.012,0.557,0.059
17.19,-0.515,0.991,-0.178
17.2,-0.145,1.319,0.133
17.21,-0.267,1.137,0.147
17.22,0.03,0.437,0.056
17.23,-0.489,1.003,-0.166
17.24,-0.112,1.672,0.076
17.25,-0.1,0.864,0.107
17.26,0.003,0.799,-0.009
17.27,-0.382,0.469,-0.198
17.28,-0.157,2.0,0.065
17.29,0.023,0.668,0.136
17.3,-0.104,0.892,-0.009
17.31,-0.319,0.409,-0.233
17.32,-0.13,1.851,0.079
17.33,-0.127,0.926,0.134
17.34,0.017,0.468,-0.051
17.35,-0.468,0.975,-0.242
17.36,-0.007,1.528,0.058
17.37,-0.244,1.23,0.111
17.38,0.107,0.369,-0.003
17.39,-0.545,1.004,-0.175
17.4,-0.113,1.594,0.194
17.41,-0.257,0.999,0.078
17.42,-0.092,0.757,-0.011
17.43,-0.413,0.429,-0.165
17.44,-0.204,1.88,0.179
17.45,-0.073,0.761,0.093
17.46,-0.163,0.845,-0.053
17.47,-0.454,0.329,-0.145
17.48,-0.205,1.658,0.181
17.49,-0.161,0.84,0.144
17.5,-0.225,0.783,-0.064
17.51,-0.342,0.522,-0.244
17.52,-0.116,1.183,0.196
17.53,-0.232,1.281,0.073
17.54,-0.062,0.426,-0.12
17.55,-0.505,0.936,-0.174
17.56,0.015,1.06,0.204
17.57,-0.304,1.338,0.112
17.58,-0.132,0.539,-0.081
17.59,-0.494,0.665,-0.131
17.6,-0.115,1.264,0.201
17.61,-0.113,0.919,0.028
17.62,-0.267,0.922,-0.123
17.63,-0.337,0.261,-0.141
17.64,-0.12,1.405,0.173
17.65,-0.161,0.85,0.023
17.66,-0.285,0.808,-0.138
17.67,-0.443,0.502,-0.157
17.68,-0.012,1.169,0.213
17.69,-0.166,1.226,-0.035
17.7,-0.146,0.402,-0.17
17.71,-0.455,1.02,-0.103
17.72,0.038,0.833,0.199
17.73,-0.235,1.349,0.021
17.74,-0.156,0.41,-0.138
17.75,-0.48,0.882,-0.108
17.76,0.029,1.173,0.149
17.77,-0.167,0.818,0.035
17.78,-0.342,0.864,-0.162
17.79,-0.361,0.464,-0.057
17.8,-0.199,1.377,0.194
17.81,-0.177,0.729,0.13
17.82,-0.404,0.785,-0.106
17.83,-0.319,0.9,-0.13
17.84,-0.04,1.095,0.123
17.85,-0.218,1.091,0.039
17.86,-0.202,0.373,-0.195
17.87,-0.496,1.391,-0.054
17.88,-0.005,0.831,0.22
17.89,-0.312,1.255,0.124
17.9,-0.311,0.379,-0.131
17.91,-0.421,1.231,0.008
17.92,-0.065,1.041,0.176
17.93,-0.22,0.863,0.057
17.94,-0.329,0.805,-0.145
17.95,-0.281,0.989,-0.019
17.96,-0.103,1.326,0.219
17.97,-0.15,0.603,0.091
17.98,-0.36,1.004,-0.145
17.99,-0.338,1.19,-0.008
18.0,-0.112,1.022,0.162
18.01,-0.179,0.976,-0.01
18.02,-0.264,0.48,-0.145
18.03,-0.293,1.717,-0.027
18.04,-0.017,0.774,0.127
18.05,-0.182,1.114,0.02
18.06,-0.297,0.392,-0.171
18.07,-0.329,1.615,-0.046
18.08,-0.096,0.832,0.1
18.09,-0.046,0.818,0.024
18.1,-0.448,0.921,-0.203
18.11,-0.214,1.251,0.045
18.12,-0.189,1.214,0.152
18.13,-0.003,0.502,0.043
18.14,-0.488,0.985,-0.182
18.15,-0.198,1.424,-0.011
18.16,-0.214,0.979,0.183
18.17,-0.04,0.782,0.051
18.18,-0.447,0.576,-0.18
18.19,-0.214,1.916,0.08
18.2,-0.006,0.787,0.074
18.21,-0.094,0.908,0.034
18.22,-0.318,0.454,-0.204
18.23,-0.256,1.961,0.058
18.24,-0.16,0.766,0.133
18.25,-0.029,0.748,0.016
18.26,-0.466,0.822,-0.196
18.27,-0.094,1.476,0.062
18.28,-0.178,1.237,0.122
18.29,0.002,0.321,-0.017
18.3,-0.421,1.05,-0.204
18.31,0.002,1.533,0.049
18.32,-0.247,1.257,0.154
18.33,0.068,0.463,-0.004
18.34,-0.5,0.868,-0.19
18.35,0.015,1.75,0.157
18.36,-0.188,0.931,0.11
18.37,-0.088,0.761,-0.018
18.38,-0.345,0.388,-0.208
18.39,-0.26,1.856,0.142
18.4,-0.021,0.733,0.104
18.41,-0.168,0.882,-0.064
18.42,-0.451,0.419,-0.17
18.43,-0.177,1.663,0.165
18.44,-0.213,1.134,0.087
18.45,-0.091,0.465,-0.055
18.46,-0.454,0.964,-0.161
18.47,-0.074,1.249,0.21
18.48,-0.24,1.355,0.122
18.49,-0.035,0.393,-0.036
18.5,-0.486,0.845,-0.167
18.51,-0.062,1.423,0.167
18.52,-0.188,0.982,0.067
18.53,-0.114,0.854,-0.142
18.54,-0.428,0.331,-0.182
18.55,-0.092,1.7,0.167
18.56,-0.091,0.854,0.075
18.57,-0.178,0.89,-0.114
18.58,-0.427,0.353,-0.21
18.59,-0.063,1.401,0.138
18.6,-0.179,1.135,0.049
18.61,-0.082,0.537,-0.115
18.62,-0.471,0.849,-0.194
18.63,0.002,1.061,0.161
18.64,-0.229,1.406,0.041
18.65,-0.035,0.458,-0.09
18.66,-0.509,0.866,-0.123
18.67,-0.032,1.17,0.206
18.68,-0.188,1.145,0.095
18.69,-0.152,0.782,-0.087
18.7,-0.47,0.37,-0.088
18.71,-0.156,1.446,0.216
18.72,-0.167,0.82,0.067
18.73,-0.291,0.925,-0.076
18.74,-0.452,0.35,-0.169
18.75,-0.15,1.266,0.191
18.76,-0.194,1.001,0.019
18.77,-0.239,0.554,-0.139
18.78,-0.439,0.941,-0.106
18.79,-0.073,0.831,0.229
18.8,-0.309,1.347,0.018
18.81,-0.119,0.316,-0.1
18.82,-0.512,1.06,-0.127
18.83,0.004,1.03,0.156
18.84,-0.256,1.009,0.074
18.85,-0.366,0.739,-0.161
18.86,-0.401,0.525,-0.086
18.87,-0.159,1.318,0.171
18.88,-0.193,0.717,0.081
18.89,-0.32,0.899,-0.086
18.9,-0.42,0.611,-0.045
18.91,-0.153,1.223,0.233
18.92,-0.23,0.924,0.051
18.93,-0.292,0.6,-0.124
18.94,-0.393,1.16,-0.076
18.95,-0.015,0.866,0.183
18.96,-0.284,1.274,0.084
18.97,-0.218,0.282,-0.149
18.98,-0.401,1.363,-0.022
18.99,-0.003,0.871,0.19
19.0,-0.265,1.053,0.089
19.01,-0.33,0.676,-0.117
19.02,-0.334,1.077,-0.004
19.03,-0.079,1.255,0.173
19.04,-0.134,0.622,0.071
19.05,-0.216,0.965,0.059
19.06,-0.35,0.498,-0.145
19.07,-0.257,2.0,0.107
19.08,-0.027,0.61,0.131
19.09,-0.03,0.945,-0.001
19.1,-0.369,0.44,-0.246
19.11,-0.067,1.827,0.047
19.12,-0.135,0.908,0.095
19.13,0.118,0.568,-0.043
19.14,-0.472,0.917,-0.276
19.15,-0.011,1.51,0.076
19.16,-0.25,1.246,0.129
19.17,0.121,0.347,0.008
19.18,-0.455,0.991,-0.257
19.19,-0.068,1.66,0.024
19.2,-0.092,1.062,0.108
19.21,-0.052,0.631,-0.003
19.22,-0.399,0.51,-0.193
19.23,-0.169,2.0,0.078
19.24,-0.139,0.63,0.104
19.25,-0.107,0.889,0.02
19.26,-0.305,0.424,-0.266
19.27,-0.12,1.931,0.047
19.28,-0.039,0.868,0.052
19.29,-0.063,0.486,0.011
19.3,-0.365,0.934,-0.235
19.31,-0.069,1.532,0.095
19.32,-0.157,1.205,0.053
19.33,0.107,0.361,-0.003
19.34,-0.488,1.07,-0.209
19.35,0.03,1.672,0.044
19.36,-0.198,1.04,0.126
19.37,0.014,0.644,-0.008
19.38,-0.444,0.556,-0.197
19.39,-0.147,1.916,0.072
19.4,-0.051,0.77,0.088
19.41,-0.107,0.839,-0.015
19.42,-0.315,0.365,-0.236
19.43,-0.122,1.92,0.074
19.44,-0.054,0.794,0.043
19.45,-0.01,0.639,-0.04
19.46,-0.434,0.85,-0.236
19.47,-0.012,1.621,0.131
19.48,-0.215,1.306,0.112
19.49,0.079,0.284,0.019
19.5,-0.483,1.106,-0.219
19.51,0.029,1.579,0.11
19.52,-0.196,1.128,0.104
19.53,0.025,0.649,-0.047
19.54,-0.503,0.602,-0.179
19.55,-0.13,1.894,0.146
19.56,-0.183,0.805,0.129
19.57,-0.116,0.863,-0.036
19.58,-0.408,0.339,-0.206
19.59,-0.085,1.95,0.12
19.6,-0.147,0.873,0.086
19.61,-0.087,0.642,-0.035
19.62,-0.438,0.765,-0.223
19.63,-0.066,1.63,0.12
19.64,-0.26,1.25,0.138
19.65,0.063,0.382,-0.051
19.66,-0.571,1.084,-0.176
19.67,-0.02,1.42,0.179
19.68,-0.281,1.249,0.108
19.69,0.041,0.548,-0.04
19.7,-0.496,0.655,-0.187
19.71,-0.112,1.775,0.124
19.72,-0.135,0.824,0.1
19.73,-0.117,0.949,-0.031
19.74,-0.424,0.278,-0.177
19.75,-0.256,1.914,0.196
19.76,-0.122,0.898,0.11
19.77,-0.194,0.749,-0.056
19.78,-0.36,0.644,-0.227
19.79,-0.188,1.421,0.169
19.8,-0.111,1.118,0.09
19.81,-0.186,0.475,-0.067
19.82,-0.469,0.898,-0.197
19.83,-0.028,1.104,0.142
19.84,-0.256,1.264,0.115
19.85,-0.115,0.417,-0.101
19.86,-0.491,0.852,-0.168
19.87,-0.073,1.163,0.155
19.88,-0.135,1.051,0.029
19.89,-0.156,0.75,-0.117
19.9,-0.353,0.368,-0.184
19.91,-0.199,1.432,0.153
19.92,-0.07,0.754,0.064
19.93,-0.248,0.968,-0.102
19.94,-0.46,0.303,-0.173
19.95,-0.094,1.396,0.203
19.96,-0.203,0.996,0.072
19.97,-0.13,0.628,-0.076
19.98,-0.546,0.799,-0.162
19.99,-0.006,1.077,0.21
20.0,-0.242,1.403,0.12
20.01,-0.038,0.343,-0.093
20.02,-0.507,0.988,-0.199
20.03,-0.016,1.076,0.131
20.04,-0.227,1.033,0.05
20.05,-0.186,0.73,-0.116
20.06,-0.452,0.45,-0.158
20.07,-0.171,1.365,0.166
20.08,-0.089,0.729,0.071
20.09,-0.296,0.949,-0.155
20.1,-0.423,0.334,-0.146
20.11,-0.101,1.33,0.203
20.12,-0.123,0.986,0.006
20.13,-0.153,0.579,-0.13
20.14,-0.456,0.831,-0.255
20.15,0.021,0.959,0.183
20.16,-0.211,1.285,-0.018
20.17,-0.059,0.281,-0.133
20.18,-0.538,1.061,-0.116
20.19,0.005,1.032,0.185
20.2,-0.244,1.12,0.063
20.21,-0.216,0.666,-0.112
20.22,-0.47,0.546,-0.095
20.23,-0.158,1.364,0.255
20.24,-0.15,0.804,0.093
20.25,-0.361,0.891,-0.075
20.26,-0.471,0.382,-0.09
20.27,-0.145,1.298,0.199
20.28,-0.163,0.899,0.049
20.29,-0.296,0.636,-0.142
20.3,-0.501,0.876,-0.093
20.31,-0.031,0.939,0.209
20.32,-0.322,1.266,0.092
20.33,-0.18,0.336,-0.081
20.34,-0.502,1.068,-0.106
20.35,0.03,0.943,0.17
20.36,-0.176,1.194,0.04
20.37,-0.251,0.5,-0.156
20.38,-0.447,0.698,-0.085
20.39,-0.049,1.252,0.115
20.4,-0.169,0.799,0.041
20.41,-0.279,0.875,-0.091
20.42,-0.368,0.628,-0.039
20.43,-0.158,1.305,0.193
20.44,-0.224,0.753,0.091
20.45,-0.316,0.816,-0.096
20.46,-0.382,0.998,-0.058
20.47,-0.088,0.893,0.196
20.48,-0.232,1.233,0.054
20.49,-0.199,0.277,-0.179
20.5,-0.363,1.317,-0.063
20.51,-0.0,0.812,0.125
20.52,-0.33,1.143,0.086
20.53,-0.163,0.552,-0.096
20.54,-0.382,1.133,-0.036
20.55,-0.104,1.126,0.206
20.56,-0.13,0.655,0.057
20.57,-0.385,0.974,-0.136
20.58,-0.264,0.76,-0.031
20.59,-0.206,1.254,0.177
20.6,-0.073,0.585,0.056
20.61,-0.481,0.979,-0.148
20.62,-0.17,1.12,-0.035
20.63,-0.156,1.097,0.157
20.64,-0.107,0.87,0.046
20.65,-0.317,0.63,-0.152
20.66,-0.289,1.671,-0.033
20.67,0.047,0.765,0.15
20.68,-0.212,1.113,0.061
20.69,-0.327,0.45,-0.194
20.7,-0.286,1.71,0.002
20.71,-0.106,0.837,0.169
20.72,-0.162,0.812,0.079
20.73,-0.428,0.9,-0.126
20.74,-0.32,1.293,0.011
20.75,-0.097,1.162,0.154
20.76,0.028,0.484,0.024
20.77,-0.514,1.091,-0.2
20.78,-0.227,1.251,-0.012
20.79,-0.163,1.083,0.151
20.8,-0.074,0.747,0.066
20.81,-0.448,0.719,-0.209
20.82,-0.337,1.692,0.082
20.83,-0.124,0.754,0.168
20.84,-0.164,1.03,0.082
20.85,-0.321,0.419,-0.197
20.86,-0.367,1.834,0.059
20.87,-0.032,0.836,0.206
20.88,-0.169,0.817,0.08
20.89,-0.317,0.786,-0.177
20.9,-0.339,1.394,0.03
20.91,-0.13,1.118,0.192
20.92,0.001,0.529,0.053
20.93,-0.522,1.056,-0.227
20.94,-0.247,1.292,0.068
20.95,-0.164,1.111,0.138
20.96,-0.075,0.628,0.076
20.97,-0.365,0.802,-0.173
20.98,-0.307,1.741,0.002
20.99,0.006,0.783,0.191
21.0,-0.105,0.979,0.014
21.01,-0.429,0.36,-0.187
21.02,-0.277,1.862,0.068
21.03,-0.097,0.734,0.117
21.04,-0.09,0.831,0.044
21.05,-0.339,0.744,-0.23
21.06,-0.211,1.471,0.056
21.07,-0.134,1.163,0.184
21.08,0.013,0.397,0.069
21.09,-0.496,1.088,-0.177
21.1,-0.176,1.361,0.126
21.11,-0.206,1.172,0.18
21.12,-0.059,0.536,0.062
21.13,-0.441,0.854,-0.198
21.14,-0.221,1.675,0.056
21.15,-0.095,0.807,0.118
21.16,-0.146,0.896,0.049
21.17,-0.322,0.454,-0.238
21.18,-0.278,1.908,0.087
21.19,-0.036,0.777,0.173
21.2,-0.099,0.835,0.046
21.21,-0.331,0.634,-0.257
21.22,-0.138,1.611,0.07
21.23,-0.068,1.173,0.086
21.24,0.026,0.375,0.007
21.25,-0.493,1.064,-0.22
21.26,-0.095,1.366,0.056
21.27,-0.101,1.234,0.175
21.28,0.036,0.439,0.051
21.29,-0.539,0.919,-0.167
21.3,-0.147,1.73,0.093
21.31,-0.114,0.878,0.167
21.32,-0.023,0.875,-0.001
21.33,-0.403,0.389,-0.241
21.34,-0.215,2.0,0.094
21.35,-0.018,0.688,0.072
21.36,-0.075,0.879,0.011
21.37,-0.371,0.599,-0.219
21.38,-0.198,1.717,0.131
21.39,-0.174,1.034,0.166
21.4,-0.011,0.607,-0.011
21.41,-0.391,0.854,-0.247
21.42,-0.026,1.632,0.06
21.43,-0.099,1.218,-0.002
21.44,0.145,0.36,-0.027
21.45,-0.545,1.084,-0.212
21.46,0.041,1.576,0.105
21.47,-0.154,1.164,0.068
21.48,0.121,0.582,-0.066
21.49,-0.462,0.644,-0.271
21.5,-0.017,1.97,0.004
21.51,-0.106,0.732,0.091
21.52,-0.058,0.933,-0.046
21.53,-0.452,0.336,-0.198
21.54,-0.104,2.0,0.066
21.55,-0.087,0.804,0.121
21.56,-0.063,0.613,0.006
21.57,-0.464,0.746,-0.246
21.58,-0.07,1.547,0.106
21.59,-0.125,1.231,0.108
21.6,0.069,0.338,-0.051
21.61,-0.495,1.113,-0.21
21.62,-0.077,1.53,0.109
21.63,-0.206,1.177,0.093
21.64,0.06,0.553,-0.04
21.65,-0.483,0.742,-0.162
21.66,-0.081,1.886,0.087
21.67,-0.216,0.733,0.139
21.68,-0.044,0.931,-0.042
21.69,-0.397,0.363,-0.196
21.7,-0.071,2.0,0.087
21.71,-0.203,0.718,0.105
21.72,-0.038,0.806,-0.043
21.73,-0.425,0.669,-0.239
21.74,0.043,1.718,0.16
21.75,-0.19,1.25,0.081
21.76,0.138,0.243,-0.052
21.77,-0.549,1.077,-0.227
21.78,0.03,1.479,0.106
21.79,-0.271,1.104,0.052
21.8,0.084,0.573,-0.016
21.81,-0.474,0.713,-0.205
21.82,-0.065,1.782,0.15
21.83,-0.264,0.853,0.123
21.84,-0.027,0.897,0.02
21.85,-0.467,0.334,-0.162
21.86,-0.163,1.896,0.153
21.87,-0.106,0.793,0.083
21.88,-0.091,0.798,-0.059
21.89,-0.39,0.478,-0.203
21.9,-0.064,1.688,0.13
21.91,-0.175,1.199,0.131
21.92,0.016,0.446,-0.1
21.93,-0.519,1.076,-0.157
21.94,0.006,1.408,0.208
21.95,-0.191,1.37,0.058
21.96,-0.005,0.441,-0.063
21.97,-0.512,0.809,-0.196
21.98,-0.03,1.695,0.143
21.99,-0.267,0.88,0.141
22.0,-0.08,0.865,-0.069
22.01,-0.438,0.25,-0.179
22.02,-0.14,1.826,0.184
22.03,-0.212,0.796,0.096
22.04,-0.193,0.904,-0.066
22.05,-0.458,0.44,-0.156
22.06,-0.043,1.654,0.155
22.07,-0.237,1.218,0.075
22.08,-0.026,0.419,-0.051
22.09,-0.587,0.964,-0.175
22.1,-0.015,1.23,0.196
22.11,-0.281,1.331,0.105
22.12,-0.033,0.481,-0.046
22.13,-0.538,0.807,-0.139
22.14,-0.09,1.394,0.182
22.15,-0.234,0.971,0.059
22.16,-0.097,0.96,-0.064
22.17,-0.462,0.321,-0.164
22.18,-0.129,1.604,0.185
22.19,-0.175,0.873,0.109
22.2,-0.137,0.93,-0.06
22.21,-0.558,0.272,-0.135
22.22,-0.066,1.375,0.18
22.23,-0.211,0.887,0.059
22.24,-0.169,0.69,-0.143
22.25,-0.467,0.754,-0.178
22.26,-0.034,0.999,0.184
22.27,-0.284,1.298,0.034
22.28,-0.049,0.321,-0.075
22.29,-0.494,1.051,-0.193
22.3,0.042,0.921,0.156
22.31,-0.213,1.167,0.023
22.32,-0.207,0.639,-0.111
22.33,-0.419,0.59,-0.128
22.34,-0.133,1.261,0.113
22.35,-0.02,0.782,0.026
22.36,-0.316,0.89,-0.16
22.37,-0.411,0.384,-0.106
22.38,-0.135,1.271,0.168
22.39,-0.221,0.875,0.057
22.4,-0.145,0.653,-0.165
22.41,-0.456,0.899,-0.112
22.42,-0.006,1.001,0.189
22.43,-0.285,1.181,0.037
22.44,-0.152,0.377,-0.156
22.45,-0.505,1.099,-0.086
22.46,0.031,0.816,0.143
22.47,-0.297,1.271,0.059
22.48,-0.158,0.358,-0.115
22.49,-0.442,0.867,-0.074
22.5,-0.023,1.179,0.141
22.51,-0.152,0.765,-0.006
22.52,-0.267,0.934,-0.135
22.53,-0.355,0.718,-0.071
22.54,-0.114,1.291,0.141
22.55,-0.196,0.748,0.14
22.56,-0.355,0.779,-0.143
22.57,-0.341,1.075,-0.044
22.58,-0.083,0.996,0.137
22.59,-0.25,1.119,0.034
22.6,-0.185,0.377,-0.19
22.61,-0.407,1.575,-0.053
22.62,0.043,0.779,0.165
22.63,-0.248,1.168,0.087
22.64,-0.246,0.461,-0.182
22.65,-0.312,1.314,-0.064
22.66,-0.018,1.087,0.099
22.67,-0.207,0.663,-0.006
22.68,-0.275,0.969,-0.168
22.69,-0.291,0.95,-0.063
22.7,-0.081,1.267,0.164
22.71,-0.123,0.676,0.087
22.72,-0.422,0.973,-0.156
22.73,-0.266,1.191,-0.009
22.74,-0.108,1.042,0.168
22.75,-0.215,1.044,-0.005
22.76,-0.243,0.434,-0.199
22.77,-0.351,1.674,-0.065
22.78,0.1,0.776,0.114
22.79,-0.243,1.127,-0.012
22.8,-0.244,0.557,-0.234
22.81,-0.38,1.491,-0.04
22.82,-0.03,0.923,0.111
22.83,-0.176,0.706,0.026
22.84,-0.408,0.939,-0.169
22.85,-0.297,1.162,-0.018
22.86,-0.074,1.236,0.119
22.87,-0.085,0.551,0.071
22.88,-0.455,1.028,-0.166
22.89,-0.271,1.445,0.064
22.9,-0.146,0.971,0.121
22.91,-0.116,0.834,0.047
22.92,-0.34,0.526,-0.211
22.93,-0.297,1.868,0.032
22.94,-0.06,0.687,0.115
22.95,-0.148,0.966,0.042
22.96,-0.378,0.45,-0.188
22.97,-0.293,1.713,0.035
22.98,-0.103,0.805,0.142
22.99,-0.069,0.684,0.024
23.0,-0.374,0.858,-0.236
23.01,-0.141,1.612,0.094
23.02,-0.078,1.084,0.122
23.03,0.028,0.382,-0.013
23.04,-0.488,1.055,-0.238
23.05,-0.051,1.411,0.052
23.06,-0.047,1.216,0.11
23.07,0.035,0.457,0.022
23.08,-0.434,0.847,-0.195
23.09,-0.114,1.744,0.078
23.1,0.007,0.89,0.119
23.11,-0.111,0.84,-0.003
23.12,-0.372,0.376,-0.231
23.13,-0.173,2.0,0.003
23.14,0.025,0.73,0.114
23.15,-0.102,0.78,-0.025
23.16,-0.491,0.505,-0.216
23.17,-0.141,1.688,0.113
23.18,-0.157,1.131,0.092
23.19,0.008,0.357,-0.032
23.2,-0.414,1.115,-0.26
23.21,-0.02,1.435,0.076
23.22,-0.164,1.276,0.087
23.23,0.07,0.471,-0.024
23.24,-0.462,0.913,-0.229
23.25,-0.108,1.586,0.108
23.26,-0.192,0.953,0.108
23.27,-0.098,0.822,-0.017
23.28,-0.493,0.367,-0.145
23.29,-0.246,1.933,0.179
23.3,-0.134,0.73,0.131
23.31,-0.18,0.888,-0.001
23.32,-0.47,0.436,-0.177
23.33,-0.174,1.769,0.158
23.34,-0.168,1.107,0.063
23.35,-0.022,0.494,-0.055
23.36,-0.478,0.98,-0.22
23.37,-0.008,1.378,0.148
23.38,-0.221,1.383,0.093
23.39,0.045,0.383,-0.071
23.4,-0.499,0.912,-0.211
23.41,-0.034,1.606,0.106
23.42,-0.227,0.979,0.107
23.43,-0.076,0.845,-0.058
23.44,-0.384,0.301,-0.184
23.45,-0.197,1.855,0.141
23.46,-0.099,0.774,0.161
23.47,-0.159,0.927,-0.033
23.48,-0.493,0.359,-0.169
23.49,-0.104,1.75,0.15
23.5,-0.262,1.102,0.103
23.51,-0.054,0.555,-0.063
23.52,-0.483,0.933,-0.165
23.53,-0.037,1.284,0.196
23.54,-0.235,1.356,0.128
23.55,-0.017,0.428,-0.011
23.56,-0.517,0.886,-0.2
23.57,-0.085,1.366,0.209
23.58,-0.167,1.096,0.099
23.59,-0.176,0.816,-0.048
23.6,-0.356,0.432,-0.154
23.61,-0.192,1.831,0.111
23.62,-0.082,0.806,0.109
23.63,-0.173,0.975,-0.052
23.64,-0.46,0.328,-0.155
23.65,-0.179,1.576,0.133
23.66,-0.218,1.039,0.095
23.67,-0.05,0.587,-0.061
23.68,-0.528,0.802,-0.174
23.69,-0.009,1.224,0.176
23.7,-0.313,1.295,0.132
23.71,-0.082,0.45,-0.058
23.72,-0.449,0.929,-0.169
23.73,-0.091,1.24,0.234
23.74,-0.217,1.171,0.118
23.75,-0.138,0.745,-0.03
23.76,-0.482,0.469,-0.121
23.77,-0.154,1.674,0.2
23.78,-0.15,0.812,0.112
23.79,-0.18,1.027,-0.042
23.8,-0.404,0.269,-0.188
23.81,-0.191,1.494,0.182
23.82,-0.083,0.821,0.021
23.83,-0.304,0.807,-0.148
23.84,-0.351,0.561,-0.167
23.85,-0.085,1.162,0.15
23.86,-0.198,1.221,0.028
23.87,-0.026,0.434,-0.121
23.88,-0.511,1.057,-0.152
23.89,0.062,0.918,0.153
23.9,-0.246,1.277,0.046
23.91,-0.128,0.429,-0.112
23.92,-0.441,0.83,-0.115
23.93,-0.095,1.128,0.142
23.94,-0.122,0.982,0.016
23.95,-0.19,0.796,-0.156
23.96,-0.417,0.407,-0.128
23.97,-0.092,1.386,0.157
23.98,-0.136,0.726,0.017
23.99,-0.292,0.923,-0.14
24.0,-0.411,0.563,-0.115
24.01,-0.099,1.138,0.198
24.02,-0.24,1.036,0.042
24.03,-0.198,0.414,-0.137
24.04,-0.457,1.077,-0.118
24.05,0.055,0.866,0.132
24.06,-0.312,1.247,0.057
24.07,-0.087,0.378,-0.131
24.08,-0.548,0.98,-0.057
24.09,0.012,1.055,0.146
24.1,-0.219,0.912,0.073
24.11,-0.305,0.787,-0.14
24.12,-0.351,0.495,-0.113
24.13,-0.142,1.356,0.182
24.14,-0.155,0.676,0.089
24.15,-0.298,0.818,-0.13
24.16,-0.44,0.647,-0.065
24.17,-0.094,1.179,0.193
24.18,-0.295,0.98,0.014
24.19,-0.101,0.585,-0.125
24.2,-0.5,1.146,-0.074
24.21,0.058,0.871,0.166
24.22,-0.296,1.27,0.039
24.23,-0.14,0.377,-0.134
24.24,-0.442,1.095,-0.123
24.25,-0.022,1.008,0.133
24.26,-0.177,0.976,0.015
24.27,-0.286,0.716,-0.146
24.28,-0.406,0.604,0.001
24.29,-0.198,1.304,0.219
24.3,-0.173,0.685,0.061
24.31,-0.333,0.926,-0.091
24.32,-0.318,0.755,-0.063
24.33,-0.135,1.173,0.211
24.34,-0.249,0.933,0.026
24.35,-0.263,0.578,-0.144
24.36,-0.387,1.242,-0.07
24.37,-0.032,0.867,0.109
24.38,-0.266,1.265,0.061
24.39,-0.246,0.337,-0.179
24.4,-0.256,1.335,-0.071
24.41,-0.101,0.925,0.17
24.42,-0.203,0.995,0.045
24.43,-0.309,0.7,-0.127
24.44,-0.251,1.038,-0.037
24.45,-0.115,1.251,0.184
24.46,-0.111,0.608,0.075
24.47,-0.437,0.967,-0.168
24.48,-0.257,0.931,0.006
24.49,-0.108,1.191,0.111
24.5,-0.222,0.818,0.037
24.51,-0.3,0.668,-0.145
24.52,-0.292,1.484,-0.058
24.53,-0.061,0.807,0.22
24.54,-0.265,1.158,0.027
24.55,-0.287,0.381,-0.127
24.56,-0.319,1.512,-0.024
24.57,-0.084,0.818,0.18
24.58,-0.251,0.96,0.03
24.59,-0.346,0.663,-0.221
24.6,-0.26,1.113,-0.004
24.61,-0.157,1.175,0.198
24.62,0.033,0.707,0.058
24.63,-0.488,0.99,-0.221
24.64,-0.17,1.156,0.025
24.65,-0.098,1.183,0.14
24.66,0.036,0.563,0.052
24.67,-0.522,0.948,-0.201
24.68,-0.181,1.399,0.024
24.69,-0.11,1.002,0.149
24.7,-0.065,0.81,0.017
24.71,-0.38,0.571,-0.171
24.72,-0.289,1.912,0.034
24.73,-0.075,0.67,0.185
24.74,-0.143,1.02,0.087
24.75,-0.32,0.434,-0.188
24.76,-0.28,1.74,0.092
24.77,-0.046,1.005,0.137
24.78,-0.127,0.533,0.036
24.79,-0.341,0.948,-0.23
24.8,-0.203,1.369,0.021
24.81,-0.206,1.152,0.161
24.82,-0.005,0.383,0.046
24.83,-0.454,1.051,-0.211
24.84,-0.174,1.517,0.121
24.85,-0.146,1.0,0.104
24.86,-0.048,0.723,-0.008
24.87,-0.406,0.578,-0.174
24.88,-0.225,1.949,0.087
24.89,0.037,0.712,0.112
24.9,-0.156,0.935,0.048
24.91,-0.309,0.427,-0.225
24.92,-0.216,1.974,0.073
24.93,-0.057,0.875,0.125
24.94,-0.084,0.549,-0.044
24.95,-0.329,0.926,-0.24
24.96,-0.141,1.533,0.095
24.97,-0.126,1.158,0.163
24.98,0.064,0.357,-0.024
24.99,-0.453,1.075,-0.244
25.0,-0.032,1.579,0.078
25.01,-0.105,1.138,0.098
25.02,-0.019,0.588,-0.018
25.03,-0.332,0.659,-0.188
25.04,-0.156,2.0,0.07
25.05,-0.064,0.723,0.156
25.06,-0.11,0.891,-0.04
25.07,-0.307,0.359,-0.234
25.08,-0.125,2.0,0.006
25.09,-0.043,0.875,0.062
25.1,-0.027,0.568,-0.064
25.11,-0.347,0.799,-0.256
25.12,-0.011,1.588,0.084
25.13,-0.125,1.231,0.075
25.14,0.045,0.328,-0.019
25.15,-0.537,1.067,-0.147
25.16,-0.076,1.554,0.189
25.17,-0.241,1.198,0.093
25.18,-0.011,0.509,-0.039
25.19,-0.406,0.694,-0.221
25.2,-0.163,1.73,0.135
25.21,-0.145,0.758,0.133
25.22,-0.146,0.939,-0.042
25.23,-0.414,0.303,-0.149
25.24,-0.174,1.986,0.135
25.25,-0.2,0.806,0.133
25.26,-0.02,0.797,-0.069
25.27,-0.531,0.691,-0.2
25.28,-0.018,1.56,0.21
25.29,-0.275,1.307,0.113
25.3,0.034,0.359,-0.042
25.31,-0.581,1.041,-0.186
25.32,-0.021,1.287,0.191
25.33,-0.295,1.238,0.109
25.34,-0.073,0.61,-0.037
25.35,-0.434,0.648,-0.159
25.36,-0.13,1.68,0.25
25.37,-0.057,0.875,0.075
25.38,-0.198,0.932,-0.076
25.39,-0.32,0.308,-0.201
25.4,-0.204,1.84,0.149
25.41,-0.129,0.92,0.129
25.42,-0.13,0.717,-0.082
25.43,-0.387,0.345,-0.191
25.44,-0.189,1.413,0.152
25.45,-0.093,0.957,-0.084
25.46,-0.182,0.608,-0.131
25.47,-0.435,0.828,-0.141
25.48,-0.071,1.058,0.182
25.49,-0.292,1.418,0.116
25.5,-0.101,0.402,-0.129
25.51,-0.417,0.926,-0.131
25.52,-0.018,1.105,0.166
25.53,-0.147,1.207,0.076
25.54,-0.181,0.746,-0.102
25.55,-0.395,0.42,-0.134
25.56,-0.185,1.333,0.247
25.57,-0.079,0.782,0.06
25.58,-0.379,0.935,-0.13
25.59,-0.396,0.375,-0.081
25.6,-0.231,1.257,0.257
25.61,-0.133,0.967,0.026
25.62,-0.236,0.528,-0.153
25.63,-0.387,0.952,-0.149
25.64,-0.043,0.875,0.189
25.65,-0.23,1.259,0.062
25.66,-0.233,0.314,-0.142
25.67,-0.429,1.051,-0.083
25.68,-0.052,0.983,0.147
25.69,-0.171,1.075,0.014
25.7,-0.315,0.616,-0.15
25.71,-0.318,0.633,-0.101
25.72,-0.141,1.302,0.148
25.73,-0.071,0.71,0.034
25.74,-0.4,0.899,-0.139
25.75,-0.339,0.618,-0.091
25.76,-0.133,1.318,0.21
25.77,-0.208,0.888,0.006
25.78,-0.33,0.672,-0.118
25.79,-0.382,1.078,-0.083
25.8,-0.001,0.939,0.191
25.81,-0.303,1.264,0.03
25.82,-0.194,0.268,-0.153
25.83,-0.345,1.445,-0.062
25.84,0.022,0.866,0.188
25.85,-0.249,1.11,0.064
25.86,-0.31,0.631,-0.18
25.87,-0.232,1.056,-0.064
25.88,-0.164,1.17,0.175
25.89,-0.037,0.669,0.072
25.9,-0.432,0.998,-0.166
25.91,-0.253,0.906,-0.067
25.92,-0.104,1.257,0.129
25.93,-0.134,0.803,0.034
25.94,-0.306,0.793,-0.183
25.95,-0.242,1.397,-0.096
25.96,-0.04,0.903,0.155
25.97,-0.215,1.121,0.052
25.98,-0.234,0.418,-0.19
25.99,-0.376,1.665,-0.086
26.0,-0.041,0.747,0.142
26.01,-0.281,1.054,0.065
26.02,-0.299,0.629,-0.173
26.03,-0.335,1.356,-0.011
26.04,-0.057,1.099,0.164
26.05,-0.021,0.587,0.017
26.06,-0.417,1.063,-0.145
26.07,-0.221,1.132,-0.008
26.08,-0.165,1.202,0.141
26.09,-0.027,0.682,0.06
26.1,-0.474,0.947,-0.188
26.11,-0.252,1.323,0.013
26.12,-0.144,0.833,0.104
26.13,-0.132,1.059,0.051
26.14,-0.288,0.448,-0.196
26.15,-0.291,1.877,0.011
26.16,-0.02,0.815,0.201
26.17,-0.088,0.95,0.054
26.18,-0.318,0.598,-0.219
26.19,-0.246,1.622,0.012
26.2,-0.185,1.044,0.141
26.21,0.026,0.554,0.076
26.22,-0.493,1.056,-0.203
26.23,-0.09,1.467,0.147
26.24,-0.246,1.249,0.205
26.25,0.07,0.338,0.06
26.26,-0.45,1.083,-0.188
26.27,-0.097,1.46,0.07
26.28,-0.095,1.11,0.156
26.29,0.001,0.6,0.011
26.3,-0.482,0.676,-0.146
26.31,-0.262,1.91,0.168
26.32,-0.127,0.678,0.152
26.33,-0.127,0.954,0.074
26.34,-0.331,0.382,-0.211
26.35,-0.252,2.0,0.103
26.36,-0.115,0.81,0.163
26.37,-0.029,0.695,0.026
26.38,-0.444,0.776,-0.215
26.39,-0.146,1.573,0.109
26.4,-0.265,1.044,0.179
26.41,0.129,0.391,0.039
26.42,-0.544,1.101,-0.2
26.43,0.043,1.5,0.09
26.44,-0.283,1.065,0.126
26.45,0.106,0.59,0.018
26.46,-0.595,0.716,-0.219
26.47,-0.037,1.939,0.086
26.48,-0.131,0.694,0.067
26.49,0.011,0.874,0.023
26.5,-0.348,0.379,-0.262
26.51,-0.127,2.0,0.047
26.52,-0.014,0.698,0.019
26.53,-0.053,0.798,-0.052
26.54,-0.374,0.618,-0.309
26.55,-0.036,1.745,0.046
26.56,-0.097,1.169,0.021
26.57,0.046,0.275,-0.046
26.58,-0.505,1.102,-0.226
26.59,-0.051,1.45,0.077
26.6,-0.244,1.184,0.13
26.61,0.042,0.476,0.034
26.62,-0.522,0.763,-0.17
26.63,-0.076,1.91,0.11
26.64,-0.178,0.781,0.166
26.65,-0.128,0.912,0.011
26.66,-0.443,0.373,-0.197
26.67,-0.164,2.0,0.078
26.68,-0.059,0.795,0.09
26.69,-0.111,0.665,0.027
26.7,-0.425,0.617,-0.219
26.71,-0.152,1.615,0.086
26.72,-0.135,1.073,0.067
26.73,-0.004,0.461,-0.041
26.74,-0.47,1.009,-0.2
26.75,-0.063,1.417,0.118
26.76,-0.188,1.31,0.042
26.77,0.037,0.39,0.004
26.78,-0.452,0.867,-0.229
26.79,-0.104,1.738,0.091
26.8,-0.162,0.842,0.128
26.81,-0.083,0.886,-0.023
26.82,-0.434,0.325,-0.18
26.83,-0.226,1.912,0.124
26.84,-0.147,0.835,0.168
26.85,-0.166,0.84,-0.037
26.86,-0.397,0.489,-0.22
26.87,-0.11,1.699,0.14
26.88,-0.121,1.141,0.081
26.89,-0.01,0.43,-0.068
26.9,-0.512,0.998,-0.236
26.91,-0.014,1.372,0.13
26.92,-0.18,1.302,0.076
26.93,0.007,0.47,-0.052
26.94,-0.512,0.863,-0.216
26.95,-0.094,1.58,0.149
26.96,-0.166,1.026,0.1
26.97,-0.111,0.823,-0.044
26.98,-0.415,0.311,-0.169
26.99,-0.217,1.91,0.19
27.0,-0.124,0.764,0.148
27.01,-0.208,0.946,-0.012
27.02,-0.42,0.417,-0.172
27.03,-0.125,1.674,0.19
27.04,-0.186,1.006,0.075
27.05,-0.061,0.745,-0.081
27.06,-0.491,0.632,-0.222
27.07,-0.003,1.197,0.217
27.08,-0.24,1.316,0.065
27.09,-0.047,0.317,-0.114
27.1,-0.584,0.971,-0.216
27.11,0.059,1.138,0.107
27.12,-0.29,1.19,0.098
27.13,-0.043,0.649,-0.082
27.14,-0.523,0.624,-0.154
27.15,-0.079,1.428,0.19
27.16,-0.144,0.903,0.068
27.17,-0.176,0.944,-0.092
27.18,-0.484,0.194,-0.184
27.19,-0.092,1.58,0.182
27.2,-0.167,0.822,0.077
27.21,-0.167,0.821,-0.079
27.22,-0.534,0.567,-0.176
27.23,-0.014,1.251,0.159
27.24,-0.29,1.347,0.104
27.25,0.027,0.367,-0.071
27.26,-0.611,1.012,-0.207
27.27,0.092,1.046,0.159
27.28,-0.209,1.177,0.056
27.29,-0.127,0.525,-0.117
27.3,-0.532,0.622,-0.193
27.31,-0.099,1.298,0.131
27.32,-0.09,0.875,0.064
27.33,-0.199,0.97,-0.087
27.34,-0.494,0.229,-0.137
27.35,-0.133,1.493,0.232
27.36,-0.149,0.9,0.112
27.37,-0.171,0.853,-0.069
27.38,-0.48,0.518,-0.199
27.39,-0.379,0.866,-0.222
27.4,-0.112,1.435,0.069
27.41,-0.215,1.189,0.147
27.42,0.068,0.386,0.044
27.43,-0.555,1.036,-0.186
27.44,-0.052,1.488,0.068
27.45,-0.239,1.015,0.114
27.46,0.033,0.67,0.03
27.47,-0.449,0.611,-0.191
27.48,-0.128,1.957,0.032
27.49,-0.117,0.756,0.159
27.5,-0.117,0.904,0.009
27.51,-0.375,0.373,-0.178
27.52,-0.155,2.0,0.062
27.53,-0.088,0.823,0.2
27.54,-0.051,0.688,0.001
27.55,-0.491,0.747,-0.222
27.56,-0.066,1.587,0.115
27.57,-0.243,1.136,0.101
27.58,0.129,0.397,0.007
27.59,-0.513,1.109,-0.207
27.6,-0.013,1.545,0.072
27.61,-0.247,1.091,0.129
27.62,0.131,0.567,0.015
27.63,-0.496,0.698,-0.198
27.64,-0.102,1.948,0.09
27.65,-0.119,0.744,0.139
27.66,-0.046,0.932,0.019
27.67,-0.448,0.327,-0.16
27.68,-0.111,2.0,0.09
27.69,-0.179,0.757,0.142
27.7,-0.011,0.647,-0.011
27.71,-0.475,0.722,-0.223
27.72,-0.011,1.694,0.123
27.73,-0.279,1.04,0.128
27.74,0.102,0.383,-0.003
27.75,-0.513,1.119,-0.195
27.76,-0.016,1.57,0.107
27.77,-0.258,1.159,0.116
27.78,0.065,0.315,-0.03
27.79,-0.492,0.997,-0.211
27.8,-0.014,1.505,0.104
27.81,-0.166,1.024,0.007
27.82,-0.035,0.749,-0.03
27.83,-0.413,0.358,-0.187
27.84,-0.239,1.906,0.132
27.85,-0.158,0.746,0.134
27.86,-0.166,0.93,-0.056
27.87,-0.436,0.381,-0.189
27.88,-0.124,1.837,0.132
27.89,-0.168,1.092,0.026
27.9,0.023,0.509,-0.088
27.91,-0.495,0.89,-0.224
27.92,0.023,1.283,0.16
27.93,-0.315,1.341,0.083
27.94,-0.031,0.427,-0.069
27.95,-0.515,0.91,-0.117
27.96,-0.007,1.444,0.224
27.97,-0.246,1.132,0.128
27.98,-0.083,0.77,-0.061
27.99,-0.524,0.465,-0.152
28.0,-0.118,1.786,0.171
28.01,-0.094,0.828,0.062
28.02,-0.126,0.956,-0.048
28.03,-0.439,0.29,-0.173
28.04,-0.161,1.619,0.142
28.05,-0.214,1.025,0.127
28.06,-0.131,0.7,-0.097
28.07,-0.445,0.764,-0.186
28.08,-0.046,1.226,0.165
28.09,-0.25,1.382,0.083
28.1,0.021,0.432,-0.083
28.11,-0.54,0.933,-0.147
28.12,0.023,1.244,0.164
28.13,-0.322,1.218,0.09
28.14,-0.057,0.735,-0.045
28.15,-0.44,0.452,-0.141
28.16,-0.119,1.597,0.181
28.17,-0.153,0.826,0.087
28.18,-0.227,1.005,-0.087
28.19,-0.444,0.27,-0.154
28.2,-0.197,1.419,0.221
28.21,-0.176,1.016,0.071
28.22,-0.108,0.724,-0.082
28.23,-0.458,0.794,-0.178
28.24,-0.002,1.119,0.163
28.25,-0.264,1.354,0.036
28.26,-0.022,0.416,-0.127
28.27,-0.519,0.982,-0.1
28.28,-0.089,1.043,0.147
28.29,-0.146,1.282,0.087
28.3,-0.192,0.657,-0.081
28.31,-0.513,0.536,-0.055
28.32,-0.172,1.285,0.236
28.33,-0.062,0.832,0.071
28.34,-0.167,1.06,-0.16
28.35,-0.401,0.297,-0.201
28.36,-0.12,1.355,0.143
28.37,-0.163,0.912,-0.038
28.38,-0.192,0.656,-0.103
28.39,-0.481,0.791,-0.139
28.4,-0.067,0.947,0.214
28.41,-0.295,1.292,0.027
28.42,-0.204,0.325,-0.09
28.43,-0.461,1.114,-0.109
28.44,0.037,0.91,0.117
28.45,-0.21,1.212,-0.0
28.46,-0.215,0.557,-0.15
28.47,-0.444,0.763,-0.09
28.48,-0.076,1.226,0.151
28.49,-0.172,0.745,0.063
28.5,-0.345,0.848,-0.119
28.51,-0.282,0.669,-0.035
28.52,-0.185,1.286,0.141
28.53,-0.261,0.719,0.094
28.54,-0.299,0.826,-0.132
28.55,-0.411,1.074,-0.065
28.56,0.006,0.943,0.172
28.57,-0.365,1.215,0.091
28.58,-0.283,0.599,-0.169
28.59,-0.365,1.549,-0.078
28.6,0.006,0.786,0.107
28.61,-0.245,1.157,0.03
28.62,-0.246,0.364,-0.253
28.63,-0.234,1.602,-0.078
28.64,0.02,0.923,0.088
28.65,-0.094,0.869,0.033
28.66,-0.297,0.839,-0.228
28.67,-0.272,1.192,0.02
28.68,-0.12,1.24,0.092
28.69,-0.057,0.509,0.055
28.7,-0.386,1.006,-0.218
28.71,-0.318,1.219,0.008
28.72,-0.085,1.025,0.108
28.73,-0.113,0.809,0.025
28.74,-0.393,0.645,-0.189
28.75,-0.325,1.675,0.043
28.76,-0.079,0.652,0.122
28.77,-0.181,1.067,0.055
28.78,-0.378,0.347,-0.178
28.79,-0.334,1.786,0.052
28.8,-0.083,0.756,0.133
28.81,-0.101,0.793,0.058
28.82,-0.377,0.721,-0.234
28.83,-0.222,1.433,0.039
28.84,-0.199,1.125,0.113
28.85,0.021,0.432,0.051
28.86,-0.501,1.055,-0.205
28.87,-0.135,1.367,0.096
28.88,-0.247,1.101,0.126
28.89,0.031,0.612,0.061
28.9,-0.408,0.686,-0.225
28.91,-0.163,1.862,0.098
28.92,-0.04,0.752,0.132
28.93,-0.144,0.909,0.041
28.94,-0.395,0.359,-0.229
28.95,-0.183,1.995,0.108
28.96,-0.107,0.767,0.144
28.97,-0.071,0.686,0.026
28.98,-0.427,0.759,-0.238
28.99,-0.116,1.598,0.17
29.0,-0.14,1.109,0.122
29.01,0.086,0.349,-0.001
29.02,-0.528,1.115,-0.229
29.03,-0.028,1.492,0.132
29.04,-0.205,1.206,0.122
29.05,0.068,0.522,0.011
29.06,-0.58,0.726,-0.158
29.07,-0.068,1.882,0.109
29.08,-0.114,0.76,0.047
29.09,-0.099,0.964,-0.032
29.1,-0.473,0.283,-0.207
29.11,-0.117,2.0,0.106
29.12,-0.175,0.761,0.055
29.13,-0.043,0.788,-0.02
29.14,-0.458,0.609,-0.256
29.15,-0.075,1.586,0.143
29.16,-0.194,1.282,0.061
29.17,0.073,0.404,-0.063
29.18,-0.548,0.993,-0.201
29.19,0.007,1.303,0.159
29.2,-0.32,1.179,0.086
29.21,0.051,0.647,-0.015
29.22,-0.62,0.695,-0.155
29.23,-0.015,1.607,0.235
29.24,-0.248,0.962,0.104
29.25,-0.05,0.907,-0.064
29.26,-0.467,0.268,-0.218
29.27,-0.138,1.804,0.156
29.28,-0.175,0.871,0.142
29.29,-0.169,0.839,-0.073
29.3,-0.555,0.489,-0.143
29.31,-0.026,1.396,0.132
29.32,-0.323,1.213,0.064
29.33,-0.019,0.457,-0.062
29.34,-0.585,0.976,-0.141
29.35,0.02,1.133,0.16
29.36,-0.275,1.336,0.142
29.37,-0.052,0.526,-0.058
29.38,-0.43,0.774,-0.205
29.39,-0.069,0.941,0.135
29.4,-0.245,1.226,0.104
29.41,-0.276,0.613,-0.116
29.42,-0.505,0.529,-0.092
29.43,-0.116,1.318,0.201
29.44,-0.217,0.707,0.166
29.45,-0.344,0.957,-0.103
29.46,-0.44,0.419,-0.041
29.47,-0.189,1.264,0.189
29.48,-0.17,0.883,0.041
29.49,-0.268,0.622,-0.1
29.5,-0.452,1.013,-0.129
29.51,0.007,0.924,0.167
29.52,-0.31,1.238,0.059
29.53,-0.207,0.346,-0.136
29.54,-0.462,1.168,-0.072
29.55,0.044,0.896,0.095
29.56,-0.234,1.106,0.02
29.57,-0.128,0.651,-0.163
29.58,-0.462,0.835,-0.05
29.59,-0.058,1.211,0.198
29.6,-0.194,0.705,0.087
29.61,-0.266,0.92,-0.131
29.62,-0.439,0.727,-0.028
29.63,-0.094,1.27,0.158
29.64,-0.244,0.837,0.073
29.65,-0.257,0.664,-0.162
29.66,-0.354,1.249,-0.08
29.67,0.003,0.907,0.167
29.68,-0.343,1.208,0.109
29.69,-0.128,0.386,-0.151
29.7,-0.484,1.437,-0.028
29.71,0.033,0.783,0.135
29.72,-0.282,1.167,0.049
29.73,-0.234,0.544,-0.175
29.74,-0.404,1.018,-0.011
29.75,-0.085,1.158,0.155
29.76,-0.178,0.719,0.011
29.77,-0.307,0.925,-0.181
29.78,-0.251,0.942,-0.071
29.79,0.008,1.264,0.145
29.8,-0.179,0.74,0.024
29.81,-0.347,0.846,-0.162
29.82,-0.305,1.302,-0.1
29.83,-0.067,0.901,0.122
29.84,-0.155,1.161,-0.005
29.85,-0.288,0.428,-0.187
29.86,-0.262,1.585,-0.03
29.87,-0.105,0.777,0.173
29.88,-0.249,1.1,0.032
29.89,-0.323,0.489,-0.141
29.9,-0.242,1.308,-0.04
29.91,-0.109,1.085,0.1
29.92,-0.008,0.651,-0.022
29.93,-0.464,1.031,-0.203
29.94,-0.065,1.119,-0.02
29.95,-0.201,1.177,0.148
29.96,-0.026,0.64,0.079
29.97,-0.525,0.854,-0.179
29.98,-0.306,1.436,0.085
29.99,-0.169,0.868,0.16
30.0,-0.249,0.943,0.08
30.01,-0.358,0.434,-0.192
30.02,-0.369,1.87,0.047
30.03,0.032,0.721,0.155
30.04,-0.126,1.011,0.072
30.05,-0.358,0.605,-0.2
30.06,-0.232,1.555,0.011
30.07,-0.115,1.027,0.132
30.08,0.06,0.578,0.019
30.09,-0.565,0.925,-0.191
30.1,-0.123,1.24,0.047
30.11,-0.278,1.166,0.161
30.12,0.056,0.548,0.063
30.13,-0.566,0.932,-0.182
30.14,-0.182,1.609,0.105
30.15,-0.156,0.896,0.186
30.16,-0.043,0.875,0.061
30.17,-0.449,0.45,-0.169
30.18,-0.09,2.0,0.057
30.19,-0.132,0.693,0.116
30.2,-0.025,0.962,0.032
30.21,-0.402,0.331,-0.203
30.22,-0.102,2.0,0.094
30.23,-0.115,0.785,0.138
30.24,-0.028,0.651,-0.023
30.25,-0.37,0.715,-0.266
30.26,-0.094,1.599,0.098
30.27,-0.105,1.163,0.109
30.28,0.116,0.355,-0.034
30.29,-0.529,1.06,-0.184
30.3,-0.018,1.613,0.121
30.31,-0.217,1.15,0.103
30.32,0.05,0.555,-0.028
30.33,-0.457,0.724,-0.197
30.34,-0.071,1.87,0.095
30.35,-0.143,0.77,0.082
30.36,-0.041,0.9,-0.033
30.37,-0.434,0.313,-0.22
30.38,-0.12,2.0,0.108
30.39,-0.133,0.808,0.071
30.4,-0.111,0.763,-0.024
30.41,-0.456,0.646,-0.218
30.42,-0.096,1.688,0.155
30.43,-0.157,1.269,0.086
30.44,0.014,0.278,-0.064
30.45,-0.568,1.086,-0.191
30.46,-0.043,1.311,0.219
30.47,-0.382,1.233,0.163
30.48,-0.088,0.576,-0.003
30.49,-0.495,0.647,-0.093
30.5,-0.091,1.615,0.203
30.51,-0.148,0.881,0.085
30.52,-0.15,1.005,-0.078
30.53,-0.435,0.248,-0.127
30.54,-0.15,1.947,0.197
30.55,-0.115,0.886,0.104
30.56,-0.196,0.804,-0.063
30.57,-0.423,0.513,-0.192
30.58,-0.127,1.403,0.203
30.59,-0.222,1.304,0.062
30.6,-0.055,0.396,-0.09
30.61,-0.48,0.991,-0.166
30.62,-0.008,1.153,0.157
30.63,-0.224,1.338,0.059
30.64,-0.073,0.585,-0.07
30.65,-0.454,0.694,-0.158
30.66,-0.112,1.356,0.201
30.67,-0.096,0.978,0.016
30.68,-0.172,0.968,-0.131
30.69,-0.354,0.255,-0.169
30.7,-0.213,1.508,0.23
30.71,-0.167,0.871,0.036
30.72,-0.207,0.804,-0.127
30.73,-0.396,0.501,-0.194
30.74,-0.16,1.129,0.198
30.75,-0.253,1.159,-0.009
30.76,-0.16,0.406,-0.145
30.77,-0.495,0.947,-0.132
30.78,-0.036,0.903,0.185
30.79,-0.268,1.268,0.052
30.8,-0.263,0.484,-0.101
30.81,-0.5,0.73,-0.09
30.82,-0.065,1.123,0.175
30.83,-0.161,0.954,0.058
30.84,-0.312,0.821,-0.136
30.85,-0.505,0.454,-0.056
30.86,-0.11,1.394,0.168
30.87,-0.346,0.693,0.104
30.88,-0.26,0.94,-0.109
30.89,-0.499,0.801,-0.062
30.9,-0.037,1.095,0.204
30.91,-0.328,1.151,0.038
30.92,-0.246,0.389,-0.154
30.93,-0.358,1.402,-0.051
30.94,0.047,0.801,0.158
30.95,-0.221,1.281,0.061
30.96,-0.277,0.393,-0.185
30.97,-0.363,1.358,-0.038
30.98,-0.008,0.972,0.134
30.99,-0.158,0.827,-0.002
31.0,-0.302,0.68,-0.206
31.01,-0.286,1.322,-0.011
31.02,-0.042,1.106,0.097
31.03,-0.077,0.584,-0.005
31.04,-0.355,1.017,-0.204
31.05,-0.251,1.208,0.012
31.06,-0.177,1.075,0.138
31.07,-0.04,0.718,0.06
31.08,-0.442,0.786,-0.222
31.09,-0.263,1.573,0.078
31.1,-0.11,0.792,0.089
31.11,-0.104,0.941,0.014
31.12,-0.412,0.409,-0.222
31.13,-0.278,1.941,0.117
31.14,-0.097,0.757,0.127
31.15,-0.162,0.854,0.046
31.16,-0.379,0.654,-0.176
31.17,-0.21,1.671,0.122
31.18,-0.211,1.074,0.156
31.19,-0.055,0.429,0.028
31.2,-0.547,0.966,-0.159
31.21,-0.015,1.541,0.1
31.22,-0.219,1.152,0.074
31.23,0.145,0.475,-0.011
31.24,-0.57,0.841,-0.231
31.25,-0.0,1.854,-0.001
31.26,-0.082,0.858,0.086
31.27,0.021,0.819,-0.051
31.28,-0.406,0.392,-0.208
31.29,-0.157,2.0,0.047
31.3,-0.024,0.731,0.059
31.31,-0.109,0.848,-0.015
31.32,-0.438,0.485,-0.165
31.33,-0.146,1.818,0.138
31.34,-0.069,1.104,0.024
31.35,0.0,0.353,-0.032
31.36,-0.514,0.988,-0.165
31.37,-0.148,1.367,0.134
31.38,-0.237,1.268,0.113
31.39,-0.088,0.51,-0.031
31.4,-0.421,0.814,-0.143
31.41,-0.128,1.475,0.187
31.42,-0.18,1.018,0.112
31.43,-0.157,0.848,-0.106
31.44,-0.369,0.35,-0.134
31.45,-0.237,1.963,0.198
31.46,-0.09,0.739,0.096
31.47,-0.216,0.948,-0.047
31.48,-0.422,0.348,-0.148
31.49,-0.196,1.437,0.18
31.5,-0.243,1.138,0.07
31.51,-0.083,0.475,-0.073
31.52,-0.465,0.95,-0.16
31.53,-0.049,1.034,0.163
31.54,-0.321,1.33,0.094
31.55,-0.095,0.444,-0.097
31.56,-0.389,0.828,-0.192
31.57,-0.06,1.177,0.123
31.58,-0.125,0.974,0.045
31.59,-0.268,0.874,-0.137
31.6,-0.359,0.306,-0.15
31.61,-0.202,1.415,0.163
31.62,-0.06,0.789,-0.002
31.63,-0.272,0.897,-0.16
31.64,-0.351,0.455,-0.171
31.65,-0.078,1.222,0.148
31.66,-0.195,1.082,-0.006
31.67,-0.236,0.463,-0.155
31.68,-0.443,0.98,-0.136
31.69,-0.019,0.91,0.171
31.7,-0.25,1.303,0.032
31.71,-0.196,0.341,-0.13
31.72,-0.515,0.968,-0.079
31.73,0.034,1.028,0.115
31.74,-0.165,1.014,0.01
31.75,-0.253,0.746,-0.173
31.76,-0.413,0.647,-0.05
31.77,-0.077,1.293,0.192
31.78,-0.199,0.748,0.096
31.79,-0.306,0.889,-0.103
31.8,-0.229,0.942,-0.074
31.81,-0.09,1.256,0.131
31.82,-0.107,0.716,0.046
31.83,-0.365,0.868,-0.204
31.84,-0.222,1.347,-0.068
31.85,-0.08,0.936,0.156
31.86,-0.162,1.104,0.051
31.87,-0.339,0.425,-0.175
31.88,-0.248,1.708,-0.013
31.89,-0.021,0.757,0.106
31.9,-0.158,1.113,0.031
31.91,-0.331,0.551,-0.215
31.92,-0.235,1.418,-0.007
31.93,-0.169,0.983,0.146
31.94,-0.048,0.667,0.063
31.95,-0.503,1.028,-0.137
31.96,-0.232,1.141,0.047
31.97,-0.189,1.195,0.183
31.98,-0.063,0.607,0.062
31.99,-0.453,0.951,-0.149
32.0,-0.199,1.554,0.002
32.01,-0.194,0.904,0.225
32.02,-0.078,0.889,0.04
32.03,-0.434,0.438,-0.167
32.04,-0.337,1.906,0.09
32.05,-0.098,0.705,0.179
32.06,-0.166,0.948,0.054
32.07,-0.347,0.534,-0.213
32.08,-0.285,1.668,0.059
32.09,-0.111,0.985,0.12
32.1,0.024,0.563,0.01
32.11,-0.506,0.972,-0.217
32.12,-0.196,1.294,0.089
32.13,-0.288,1.165,0.18
32.14,0.075,0.48,0.067
32.15,-0.568,0.999,-0.137
32.16,-0.151,1.63,0.087
32.17,-0.172,0.931,0.168
32.18,-0.025,0.815,0.051
32.19,-0.359,0.509,-0.178
32.2,-0.235,2.0,0.091
32.21,-0.092,0.678,0.183
32.22,-0.094,0.904,0.035
32.23,-0.395,0.488,-0.165
32.24,-0.215,1.894,0.113
32.25,-0.158,0.878,0.172
32.26,0.002,0.552,0.02
32.27,-0.428,0.959,-0.21
32.28,-0.071,1.525,0.103
32.29,-0.223,1.211,0.129
32.3,0.071,0.344,0.016
32.31,-0.486,1.042,-0.216
32.32,-0.07,1.672,0.059
32.33,-0.105,1.014,0.109
32.34,-0.017,0.675,-0.026
32.35,-0.352,0.504,-0.185
32.36,-0.111,2.0,0.071
32.37,-0.027,0.67,0.074
32.38,-0.063,0.872,-0.055
32.39,-0.312,0.395,-0.253
32.4,-0.097,1.909,0.053
32.41,-0.075,0.869,0.047
32.42,0.012,0.499,-0.064
32.43,-0.45,0.928,-0.22
32.44,-0.013,1.575,0.113
32.45,-0.217,1.284,0.115
32.46,0.092,0.25,-0.014
32.47,-0.492,1.041,-0.222
32.48,-0.024,1.61,0.097
32.49,-0.186,1.014,0.086
32.5,0.026,0.733,-0.057
32.51,-0.385,0.525,-0.216
32.52,-0.103,1.912,0.057
32.53,-0.081,0.78,0.121
32.54,-0.107,0.878,-0.032
32.55,-0.431,0.326,-0.204
32.56,-0.136,1.853,0.102
32.57,-0.146,0.957,0.084
32.58,-0.068,0.548,-0.054
32.59,-0.477,0.863,-0.217
32.6,-0.081,1.438,0.094
32.61,-0.239,1.175,0.117
32.62,-0.074,0.435,-0.062
32.63,-0.57,0.972,-0.177
32.64,-0.064,1.151,0.196
32.65,-0.301,1.245,0.129
32.66,-0.089,0.472,-0.07
32.67,-0.512,0.735,-0.185
32.68,-0.073,1.466,0.118
32.69,-0.147,0.944,0.09
32.7,-0.215,0.925,-0.054
32.71,-0.397,0.219,-0.178
32.72,-0.248,1.765,0.159
32.73,-0.031,0.863,0.141
32.74,-0.291,0.849,-0.09
32.75,-0.397,0.427,-0.146
32.76,-0.22,1.367,0.193
32.77,-0.14,1.195,0.08
32.78,-0.081,0.422,-0.084
32.79,-0.493,0.996,-0.204
32.8,-0.053,1.097,0.158
32.81,-0.224,1.244,0.074
32.82,-0.099,0.472,-0.077
32.83,-0.569,0.818,-0.168
32.84,-0.021,1.301,0.139
32.85,-0.215,0.938,0.087
32.86,-0.144,0.906,-0.048
32.87,-0.492,0.261,-0.181
32.88,-0.124,1.613,0.181
32.89,-0.137,0.816,0.089
32.9,-0.231,0.889,-0.078
32.91,-0.41,0.421,-0.187
32.92,-0.167,1.409,0.121
32.93,-0.196,1.145,0.109
32.94,-0.073,0.454,-0.071
32.95,-0.6,0.941,-0.165
32.96,-0.002,1.148,0.208
32.97,-0.393,1.279,0.141
32.98,-0.118,0.469,-0.004
32.99,-0.592,0.861,-0.134
33.0,-0.066,1.342,0.191
33.01,-0.304,1.098,0.124
33.02,-0.168,0.794,-0.011
33.03,-0.535,0.402,-0.129
33.04,-0.163,1.834,0.169
33.05,-0.149,0.805,0.183
33.06,-0.257,0.898,-0.073
33.07,-0.427,0.377,-0.175
33.08,-0.183,1.559,0.105
33.09,-0.23,1.084,0.126
33.1,-0.084,0.506,-0.059
33.11,-0.539,0.921,-0.182
33.12,-0.028,1.283,0.189
33.13,-0.314,1.383,0.115
33.14,-0.039,0.406,-0.053
33.15,-0.559,0.906,-0.184
33.16,-0.047,1.445,0.174
33.17,-0.195,1.035,0.123
33.18,-0.091,0.811,-0.055
33.19,-0.531,0.375,-0.134
33.2,-0.127,1.863,0.153
33.21,-0.163,0.821,0.144
33.22,-0.191,0.925,-0.088
33.23,-0.502,0.372,-0.148
33.24,-0.145,1.674,0.183
33.25,-0.211,1.12,0.115
33.26,-0.055,0.481,-0.103
33.27,-0.546,0.928,-0.21
33.28,0.018,1.215,0.146
33.29,-0.371,1.303,0.13
33.3,-0.026,0.439,-0.075
33.31,-0.595,0.885,-0.226
33.32,0.013,1.429,0.13
33.33,-0.236,1.113,0.057
33.34,-0.069,0.761,-0.095
33.35,-0.526,0.438,-0.185
33.36,-0.083,1.92,0.143
33.37,-0.147,0.847,0.144
33.38,-0.157,0.906,-0.064
33.39,-0.42,0.329,-0.226
33.4,-0.096,1.754,0.106
33.41,-0.242,1.031,0.077
33.42,-0.186,0.854,-0.062
33.43,-0.446,0.54,-0.151
33.44,-0.059,1.32,0.149
33.45,-0.276,1.277,0.129
33.46,0.0,0.438,-0.088
33.47,-0.591,1.011,-0.17
33.48,-0.049,1.172,0.121
33.49,-0.293,1.289,0.109
33.5,-0.012,0.531,-0.081
33.51,-0.528,0.774,-0.169
33.52,-0.082,1.402,0.166
33.53,-0.235,0.891,0.144
33.54,-0.188,0.987,-0.062
33.55,-0.435,0.226,-0.121
33.56,-0.246,1.582,0.228
33.57,-0.101,0.864,0.119
33.58,-0.24,0.85,-0.097
33.59,-0.46,0.522,-0.159
33.6,-0.087,1.316,0.14
33.61,-0.308,1.224,0.132
33.62,0.006,0.42,-0.051
33.63,-0.576,0.976,-0.13
33.64,0.026,1.074,0.2
33.65,-0.386,1.317,0.09
33.66,-0.01,0.546,-0.056
33.67,-0.555,0.755,-0.163
33.68,-0.024,1.448,0.196
33.69,-0.183,0.948,0.107
33.7,-0.162,0.923,-0.08
33.71,-0.485,0.287,-0.167
33.72,-0.161,1.707,0.183
33.73,-0.109,0.844,0.078
33.74,-0.199,0.892,-0.073
33.75,-0.398,0.464,-0.226
33.76,-0.087,1.345,0.113
33.77,-0.175,1.209,-0.013
33.78,-0.053,0.462,-0.133
33.79,-0.443,0.941,-0.204
33.8,0.027,1.054,0.127
33.81,-0.264,1.3,0.057
33.82,-0.083,0.498,-0.074
33.83,-0.558,0.774,-0.147
33.84,-0.07,1.247,0.192
33.85,-0.164,1.022,0.051
33.86,-0.166,0.867,-0.074
33.87,-0.438,0.287,-0.161
33.88,-0.152,1.47,0.179
33.89,-0.111,0.781,0.072
33.9,-0.293,0.907,-0.113
33.91,-0.44,0.406,-0.145
33.92,-0.139,1.253,0.209
33.93,-0.238,1.164,0.063
33.94,-0.085,0.483,-0.084
33.95,-0.516,0.987,-0.188
33.96,0.015,0.964,0.145
33.97,-0.185,1.356,0.024
33.98,-0.197,0.396,-0.134
33.99,-0.373,0.876,-0.184
34.0,-0.032,1.107,0.101
34.01,-0.044,1.009,-0.021
34.02,-0.187,0.83,-0.178
34.03,-0.347,0.358,-0.194
34.04,-0.095,1.406,0.13
34.05,-0.098,0.838,0.011
34.06,-0.248,0.86,-0.184
34.07,-0.415,0.437,-0.198
34.08,-0.011,1.264,0.145
34.09,-0.122,1.114,-0.03
34.1,-0.155,0.418,-0.169
34.11,-0.421,1.021,-0.188
34.12,0.045,0.904,0.206
34.13,-0.302,1.315,0.028
34.14,-0.17,0.308,-0.123
34.15,-0.48,0.959,-0.122
34.16,-0.03,1.026,0.162
34.17,-0.13,0.997,-0.001
34.18,-0.288,0.777,-0.164
34.19,-0.407,0.436,-0.116
34.2,-0.088,1.36,0.152
34.21,-0.119,0.729,0.039
34.22,-0.368,0.892,-0.122
34.23,-0.323,0.781,-0.027
34.24,-0.157,1.281,0.184
34.25,-0.195,0.758,0.085
34.26,-0.342,0.772,-0.132
34.27,-0.339,1.189,-0.033
34.28,-0.021,0.975,0.188
34.29,-0.179,1.165,0.05
34.3,-0.224,0.375,-0.201
34.31,-0.328,1.501,-0.05
34.32,-0.026,0.79,0.129
34.33,-0.226,1.178,0.032
34.34,-0.216,0.462,-0.193
34.35,-0.291,1.261,-0.069
34.36,-0.029,1.108,0.145
34.37,-0.111,0.699,0.02
34.38,-0.344,0.983,-0.197
34.39,-0.192,0.97,-0.043
34.4,-0.178,1.259,0.189
34.41,-0.044,0.696,0.013
34.42,-0.409,0.905,-0.183
34.43,-0.17,1.354,-0.067
34.44,-0.057,0.943,0.131
34.45,-0.184,1.049,0.008
34.46,-0.274,0.436,-0.196
34.47,-0.32,1.774,-0.053
34.48,-0.049,0.756,0.161
34.49,-0.166,1.075,0.055
34.5,-0.323,0.557,-0.202
34.51,-0.325,1.546,0.016
34.52,-0.119,0.978,0.172
34.53,-0.052,0.684,0.112
34.54,-0.497,1.029,-0.144
34.55,-0.288,1.186,0.057
34.56,-0.227,1.146,0.192
34.57,-0.065,0.55,0.078
34.58,-0.498,0.921,-0.125
34.59,-0.222,1.532,0.053
34.6,-0.182,0.925,0.191
34.61,-0.077,0.871,0.014
34.62,-0.389,0.486,-0.126
34.63,-0.34,1.927,0.112
34.64,-0.089,0.705,0.136
34.65,-0.114,0.957,0.026
34.66,-0.294,0.517,-0.176
34.67,-0.272,1.773,0.064
34.68,-0.2,0.895,0.124
34.69,0.017,0.542,0.007
34.7,-0.416,0.922,-0.21
34.71,-0.082,1.417,0.056
34.72,-0.221,1.22,0.122
34.73,0.045,0.357,-0.021
34.74,-0.426,0.969,-0.235
34.75,-0.035,1.683,0.01
34.76,-0.087,0.987,0.092
34.77,-0.064,0.693,-0.004
34.78,-0.401,0.532,-0.18
34.79,-0.24,2.0,0.12
34.8,-0.108,0.593,0.132
34.81,-0.117,0.895,0.009
34.82,-0.396,0.407,-0.178
34.83,-0.157,1.937,0.115
34.84,-0.194,0.906,0.112
34.85,-0.037,0.467,0.013
34.86,-0.45,0.914,-0.216
34.87,-0.086,1.473,0.089
34.88,-0.179,1.292,0.088
34.89,0.007,0.326,0.008
34.9,-0.51,0.995,-0.134
34.91,-0.136,1.572,0.159
34.92,-0.193,1.05,0.073
34.93,-0.056,0.738,-0.06
34.94,-0.418,0.5,-0.156
34.95,-0.21,1.891,0.176
34.96,-0.083,0.811,0.098
34.97,-0.191,0.817,-0.043
34.98,-0.398,0.339,-0.165
34.99,-0.2,1.783,0.18
35.0,-0.225,0.919,0.092
35.01,-0.099,0.662,-0.05
35.02,-0.467,0.797,-0.182
35.03,-0.043,1.363,0.144
35.04,-0.257,1.302,0.056
35.05,0.002,0.428,-0.086
35.06,-0.562,0.976,-0.183
35.07,0.05,1.067,0.163
35.08,-0.302,1.376,0.106
35.09,-0.051,0.527,-0.097
35.1,-0.562,0.679,-0.153
35.11,-0.079,1.278,0.186
35.12,-0.177,0.984,0.098
35.13,-0.304,0.838,-0.119
35.14,-0.423,0.269,-0.142
35.15,-0.172,1.459,0.2
35.16,-0.101,0.845,0.061
35.17,-0.29,0.848,-0.107
35.18,-0.431,0.498,-0.197
35.19,-0.061,1.105,0.209
35.2,-0.125,1.214,0.001
35.21,-0.222,0.331,-0.185
35.22,-0.469,1.021,-0.124
35.23,-0.036,0.903,0.22
35.24,-0.161,1.28,-0.013
35.25,-0.216,0.395,-0.11
35.26,-0.436,0.886,-0.069
35.27,-0.152,1.065,0.189
35.28,-0.19,0.934,0.096
35.29,-0.324,0.812,-0.132
35.3,-0.389,0.484,-0.108
35.31,-0.197,1.36,0.209
35.32,-0.147,0.727,0.087
35.33,-0.405,0.887,-0.089
35.34,-0.443,0.689,-0.087
35.35,-0.146,1.129,0.219
35.36,-0.177,1.128,0.069
35.37,-0.288,0.333,-0.14
35.38,-0.355,1.284,-0.129
35.39,-0.032,0.879,0.165
35.4,-0.36,1.263,0.128
35.41,-0.145,0.361,-0.115
35.42,-0.463,1.208,-0.046
35.43,-0.042,1.024,0.171
35.44,-0.185,0.833,0.063
35.45,-0.312,0.836,-0.164
35.46,-0.275,0.733,-0.062
35.47,-0.174,1.312,0.164
35.48,-0.142,0.697,0.077
35.49,-0.335,0.92,-0.141
35.5,-0.342,0.903,-0.067
35.51,-0.072,1.104,0.152
35.52,-0.232,1.045,0.051
35.53,-0.22,0.532,-0.205
35.54,-0.363,1.37,-0.099
35.55,0.017,0.779,0.168
35.56,-0.258,1.277,0.001
35.57,-0.232,0.328,-0.165
35.58,-0.245,1.416,-0.127
35.59,0.009,0.947,0.162
35.6,-0.167,0.854,0.016
35.61,-0.364,0.865,-0.194
35.62,-0.258,1.022,-0.063
35.63,-0.141,1.277,0.15
35.64,-0.023,0.621,0.063
35.65,-0.431,0.976,-0.204
35.66,-0.259,1.155,-0.057
35.67,-0.127,1.141,0.168
35.68,-0.077,0.898,0.031
35.69,-0.35,0.592,-0.119
35.7,-0.302,1.684,-0.001
35.71,-0.014,0.799,0.179
35.72,-0.214,1.122,0.094
35.73,-0.311,1.33,0.102
35.74,-0.085,0.467,-0.027
35.75,-0.525,0.766,-0.156
35.76,-0.149,1.32,0.209
35.77,-0.249,1.088,0.025
35.78,-0.224,0.707,-0.117
35.79,-0.414,0.436,-0.143
35.8,-0.152,1.415,0.162
35.81,-0.038,0.74,0.026
35.82,-0.35,0.924,-0.141
35.83,-0.343,0.375,-0.113
35.84,-0.189,1.246,0.19
35.85,-0.185,0.895,0.021
35.86,-0.145,0.609,-0.12
35.87,-0.51,0.927,-0.158
35.88,0.04,0.942,0.162
35.89,-0.25,1.258,0.001
35.9,-0.103,0.306,-0.087
35.91,-0.527,1.06,-0.133
35.92,-0.048,0.979,0.161
35.93,-0.164,1.16,0.055
35.94,-0.347,0.562,-0.125
35.95,-0.405,0.62,-0.058
35.96,-0.148,1.289,0.162
35.97,-0.103,0.696,0.03
35.98,-0.286,0.901,-0.112
35.99,-0.363,0.521,-0.094
36.0,-0.187,1.261,0.225
36.01,-0.134,0.878,0.049
36.02,-0.381,0.492,-0.12
36.03,-0.36,0.977,-0.116
36.04,-0.004,0.97,0.169
36.05,-0.243,1.222,0.007
36.06,-0.127,0.292,-0.133
36.07,-0.447,1.181,-0.087
36.08,0.012,0.941,0.122
36.09,-0.199,1.081,0.044
36.1,-0.232,0.578,-0.182
36.11,-0.288,0.798,-0.089
36.12,-0.091,1.232,0.121
36.13,-0.123,0.678,0.017
36.14,-0.293,0.906,-0.114
36.15,-0.349,0.748,-0.053
36.16,-0.165,1.262,0.198
36.17,-0.15,0.801,0.058
36.18,-0.314,0.721,-0.154
36.19,-0.359,1.132,-0.065
36.2,-0.042,0.893,0.163
36.21,-0.296,1.207,0.091
36.22,-0.156,0.298,-0.168
36.23,-0.42,1.442,-0.089
36.24,-0.02,0.864,0.166
36.25,-0.271,1.135,0.082
36.26,-0.233,0.504,-0.162
36.27,-0.279,1.158,-0.06
36.28,-0.007,1.202,0.154
36.29,-0.1,0.654,0.026
36.3,-0.413,0.992,-0.159
36.31,-0.225,0.878,-0.043
36.32,-0.129,1.272,0.125
36.33,-0.189,0.734,0.09
36.34,-0.353,0.819,-0.177
36.35,-0.38,1.268,-0.057
36.36,-0.051,0.905,0.184
36.37,-0.239,1.183,0.099
36.38,-0.203,0.337,-0.191
36.39,-0.468,1.608,-0.006
36.4,0.075,0.786,0.155
36.41,-0.306,1.113,0.041
36.42,-0.238,0.501,-0.184
36.43,-0.319,1.355,-0.058
36.44,-0.028,1.159,0.16
36.45,-0.054,0.608,0.024
36.46,-0.4,1.015,-0.17
36.47,-0.166,1.05,-0.055
36.48,-0.159,1.206,0.146
36.49,-0.04,0.666,0.001
36.5,-0.441,0.881,-0.202
36.51,-0.234,1.326,-0.094
36.52,-0.069,0.887,0.088
36.53,-0.258,1.13,0.006
36.54,-0.271,0.483,-0.199
36.55,-0.416,1.699,0.01
36.56,0.016,0.731,0.17
36.57,-0.219,1.064,0.092
36.58,-0.375,0.379,-0.181
36.59,-0.378,1.836,0.115
36.6,-0.064,0.854,0.151
36.61,-0.068,0.721,0.031
36.62,-0.373,0.839,-0.191
36.63,-0.261,1.399,0.079
36.64,-0.15,1.15,0.158
36.65,0.017,0.477,0.109
36.66,-0.491,1.031,-0.166
36.67,-0.177,1.396,0.103
36.68,-0.276,1.125,0.166
36.69,0.0,0.621,0.018
36.7,-0.453,0.662,-0.218
36.71,-0.226,1.894,0.107
36.72,-0.088,0.617,0.105
36.73,-0.01,1.027,0.047
36.74,-0.379,0.381,-0.23
36.75,-0.132,1.97,0.059
36.76,-0.081,0.806,0.092
36.77,-0.007,0.698,-0.013
36.78,-0.328,0.706,-0.29
36.79,-0.063,1.587,0.059
36.8,-0.162,1.168,0.122
36.81,0.068,0.365,-0.022
36.82,-0.523,1.062,-0.218
36.83,0.066,1.608,0.056
36.84,-0.176,1.193,0.09
36.85,0.094,0.525,-0.024
36.86,-0.444,0.732,-0.22
36.87,-0.032,1.963,-0.004
36.88,-0.064,0.742,0.093
36.89,-0.003,0.931,-0.064
36.9,-0.376,0.318,-0.272
36.91,-0.123,2.0,0.053
36.92,-0.132,0.773,0.105
36.93,0.004,0.714,-0.037
36.94,-0.483,0.667,-0.233
36.95,0.01,1.614,0.061
36.96,-0.18,1.167,0.074
36.97,0.135,0.369,-0.059
36.98,-0.53,1.073,-0.201
36.99,-0.001,1.502,0.099
37.0,-0.241,1.198,0.113
37.01,0.058,0.55,-0.045
37.02,-0.447,0.772,-0.177
37.03,-0.062,1.712,0.052
37.04,-0.081,0.814,0.061
37.05,-0.045,0.922,-0.077
37.06,-0.429,0.281,-0.163
37.07,-0.199,1.973,0.116
37.08,-0.107,0.817,0.126
37.09,-0.141,0.794,-0.055
37.1,-0.392,0.59,-0.193
37.11,-0.127,1.561,0.139
37.12,-0.192,1.258,0.032
37.13,0.0,0.425,-0.051
37.14,-0.446,1.001,-0.176
37.15,-0.119,1.204,0.219
37.16,-0.235,1.285,0.128
37.17,-0.087,0.492,-0.02
37.18,-0.489,0.721,-0.135
37.19,-0.163,1.431,0.22
37.2,-0.188,0.851,0.099
37.21,-0.25,0.972,-0.066
37.22,-0.437,0.221,-0.123
37.23,-0.228,1.624,0.202
37.24,-0.162,0.896,0.129
37.25,-0.192,0.822,-0.052
37.26,-0.412,0.517,-0.187
37.27,-0.086,1.29,0.198
37.28,-0.208,1.18,0.088
37.29,-0.034,0.505,-0.106
37.3,-0.544,0.974,-0.155
37.31,0.002,1.054,0.167
37.32,-0.242,1.359,0.06
37.33,-0.059,0.496,-0.069
37.34,-0.417,0.788,-0.203
37.35,-0.049,1.228,0.148
37.36,-0.1,0.962,0.023
37.37,-0.222,0.874,-0.147
37.38,-0.432,0.559,-0.054
37.39,-0.139,1.303,0.133
37.4,-0.08,0.715,0.031
37.41,-0.295,0.956,-0.119
37.42,-0.399,0.416,-0.1
37.43,-0.166,1.268,0.214
37.44,-0.212,0.938,0.023
37.45,-0.27,0.627,-0.054
37.46,-0.447,0.978,-0.097
37.47,-0.051,0.93,0.227
37.48,-0.283,1.282,0.052
37.49,-0.172,0.303,-0.104
37.5,-0.385,1.26,-0.068
37.51,-0.052,0.851,0.186
37.52,-0.229,1.101,0.085
37.53,-0.341,0.59,-0.106
37.54,-0.306,0.94,0.001
37.55,-0.157,1.199,0.184
37.56,-0.095,0.666,0.053
37.57,-0.378,0.971,-0.145
37.58,-0.199,0.88,-0.078
37.59,-0.132,1.275,0.157
37.6,-0.161,0.775,0.043
37.61,-0.289,0.756,-0.176
37.62,-0.25,1.396,-0.127
37.63,-0.005,0.89,0.173
37.64,-0.233,1.141,0.025
37.65,-0.264,0.394,-0.179
37.66,-0.248,1.696,-0.113
37.67,0.003,0.784,0.114
37.68,-0.223,1.022,0.061
37.69,-0.292,0.68,-0.182
37.7,-0.307,1.318,-0.018
37.71,-0.083,1.092,0.163
37.72,-0.059,0.584,0.002
37.73,-0.361,1.02,-0.189
37.74,-0.22,1.113,-0.042
37.75,-0.054,1.229,0.155
37.76,-0.161,0.654,0.029
37.77,-0.334,0.863,-0.215
37.78,-0.32,1.598,0.003
37.79,-0.037,0.798,0.135
37.8,-0.126,1.001,0.024
37.81,-0.296,0.433,-0.243
37.82,-0.374,1.738,0.037
37.83,-0.081,0.668,0.134
37.84,-0.158,1.05,0.097
37.85,-0.328,0.578,-0.243
37.86,-0.299,1.464,0.005
37.87,-0.053,1.105,0.082
37.88,0.016,0.561,0.032
37.89,-0.394,1.062,-0.214
37.9,-0.193,1.286,0.041
37.91,-0.182,1.136,0.193
37.92,0.025,0.581,0.056
37.93,-0.515,0.869,-0.171
37.94,-0.123,1.659,0.061
37.95,-0.146,0.848,0.155
37.96,-0.067,0.871,-0.005
37.97,-0.333,0.389,-0.214
37.98,-0.203,1.987,0.119
37.99,0.007,0.794,0.147
38.0,-0.208,0.85,0.068
38.01,-0.407,0.542,-0.171
38.02,-0.203,1.762,0.15
38.03,-0.151,1.001,0.091
38.04,0.041,0.477,0.003
38.05,-0.451,1.02,-0.228
38.06,-0.082,1.428,0.102
38.07,-0.122,1.262,0.124
38.08,0.014,0.384,0.011
38.09,-0.459,0.896,-0.165
38.1,-0.095,1.74,0.08
38.11,-0.075,0.861,0.136
38.12,-0.042,0.874,-0.041
38.13,-0.403,0.392,-0.195
38.14,-0.166,2.0,0.068
38.15,-0.085,0.723,0.11
38.16,-0.122,0.834,-0.004
38.17,-0.286,0.472,-0.287
38.18,-0.149,1.848,0.129
38.19,-0.099,0.932,0.093
38.2,-0.145,0.698,-0.049
38.21,-0.396,0.691,-0.158
38.22,-0.141,1.507,0.187
38.23,-0.251,1.353,0.097
38.24,-0.002,0.441,-0.054
38.25,-0.528,1.041,-0.157
38.26,-0.01,1.335,0.179
38.27,-0.219,1.315,0.086
38.28,-0.072,0.536,-0.069
38.29,-0.451,0.613,-0.171
38.3,-0.16,1.56,0.212
38.31,-0.17,0.802,0.14
38.32,-0.163,1.073,-0.078
38.33,-0.365,0.198,-0.166
38.34,-0.18,1.634,0.149
38.35,-0.097,0.959,0.069
38.36,-0.133,0.79,-0.096
38.37,-0.433,0.581,-0.173
38.38,-0.038,1.183,0.167
38.39,-0.22,1.311,0.038
38.4,-0.037,0.406,-0.078
38.41,-0.542,1.007,-0.145
38.42,0.036,1.003,0.155
38.43,-0.29,1.265,0.064
38.44,-0.099,0.602,-0.099
38.45,-0.489,0.646,-0.153
38.46,-0.077,1.307,0.146
38.47,-0.127,0.884,0.008
38.48,-0.221,0.922,-0.138
38.49,-0.333,0.287,-0.149
38.5,-0.146,1.395,0.138
38.51,-0.193,0.826,0.04
38.52,-0.253,0.779,-0.109
38.53,-0.422,0.625,-0.166
38.54,-0.107,1.029,0.198
38.55,-0.286,1.229,0.015
38.56,-0.107,0.33,-0.138
38.57,-0.488,1.116,-0.104
38.58,0.002,0.916,0.179
38.59,-0.328,1.193,0.062
38.6,-0.195,0.495,-0.115
38.61,-0.414,0.856,-0.04
38.62,-0.104,1.128,0.175
38.63,-0.193,0.768,0.051
38.64,-0.258,0.894,-0.136
38.65,-0.39,0.623,-0.011
38.66,-0.073,1.302,0.168
38.67,-0.219,0.759,0.035
38.68,-0.305,0.767,-0.146
38.69,-0.221,1.038,-0.062
38.7,-0.067,1.002,0.139
38.71,-0.187,1.092,0.037
38.72,-0.205,0.391,-0.183
38.73,-0.268,1.586,-0.075
38.74,-0.011,0.776,0.181
38.75,-0.319,1.14,0.064
38.76,-0.281,0.491,-0.158
38.77,-0.308,1.375,-0.007
38.78,-0.103,0.984,0.167
38.79,-0.124,0.678,-0.01
38.8,-0.42,0.96,-0.181
38.81,-0.167,1.067,-0.036
38.82,-0.114,1.28,0.164
38.83,-0.051,0.584,0.004
38.84,-0.503,0.977,-0.174
38.85,-0.171,1.33,-0.008
38.86,-0.05,0.983,0.055
38.87,-0.17,0.937,0.018
38.88,-0.319,0.512,-0.213
38.89,-0.302,1.813,0.044
38.9,-0.014,0.711,0.146
38.91,-0.196,1.025,0.045
38.92,-0.343,0.502,-0.187
38.93,-0.306,1.647,0.056
38.94,-0.025,0.962,0.142
38.95,-0.055,0.611,0.01
38.96,-0.492,1.005,-0.191
38.97,-0.161,1.299,0.062
38.98,-0.207,1.161,0.183
38.99,0.016,0.407,-0.002
39.0,-0.6,1.051,-0.193
39.01,-0.013,1.474,0.099
39.02,-0.223,1.143,0.124
39.03,0.025,0.506,0.011
39.04,-0.491,0.805,-0.183
39.05,-0.085,1.9,0.09
39.06,-0.137,0.769,0.168
39.07,-0.083,0.885,0.007
39.08,-0.413,0.366,-0.215
39.09,-0.119,2.0,0.054
39.1,-0.056,0.781,0.119
39.11,-0.087,0.734,-0.024
39.12,-0.445,0.6,-0.219
39.13,-0.043,1.709,0.141
39.14,-0.101,1.161,0.033
39.15,0.045,0.392,-0.031
39.16,-0.545,1.064,-0.19
39.17,-0.053,1.388,0.141
39.18,-0.102,1.378,0.061
39.19,-0.031,0.443,-0.074
39.2,-0.399,0.766,-0.196
39.21,-0.193,1.567,0.145
39.22,-0.107,0.873,0.138
39.23,-0.098,0.951,-0.077
39.24,-0.385,0.265,-0.181
39.25,-0.163,1.901,0.126
39.26,-0.108,0.849,0.123
39.27,-0.183,0.9,-0.074
39.28,-0.418,0.489,-0.163
39.29,-0.177,1.403,0.188
39.3,-0.261,1.207,0.077
39.31,-0.007,0.501,-0.065
39.32,-0.585,0.974,-0.147
39.33,0.051,1.118,0.169
39.34,-0.303,1.282,0.051
39.35,-0.089,0.553,-0.047
39.36,-0.447,0.746,-0.187
39.37,-0.106,1.244,0.226
39.38,-0.094,0.927,0.085
39.39,-0.225,0.958,-0.105
39.4,-0.34,0.309,-0.111
39.41,-0.229,1.452,0.16
39.42,-0.111,0.798,0.008
39.43,-0.252,0.836,-0.135
39.44,-0.372,0.527,-0.191
39.45,-0.072,1.142,0.143
39.46,-0.189,1.083,-0.056
39.47,-0.157,0.441,-0.127
39.48,-0.458,1.02,-0.131
39.49,0.032,0.843,0.173
39.5,-0.312,1.356,0.016
39.51,-0.179,0.35,-0.135
39.52,-0.395,0.907,-0.074
39.53,-0.074,1.037,0.151
39.54,-0.162,0.893,0.03
39.55,-0.234,0.805,-0.142
39.56,-0.346,0.588,-0.087
39.57,-0.058,1.316,0.138
39.58,-0.175,0.74,0.041
39.59,-0.334,0.839,-0.164
39.6,-0.359,0.855,-0.015
39.61,-0.077,1.093,0.15
39.62,-0.203,1.049,0.038
39.63,-0.262,0.448,-0.107
39.64,-0.329,1.563,-0.012
39.65,-0.062,0.761,0.224
39.66,-0.318,1.197,0.071
39.67,-0.283,0.406,-0.139
39.68,-0.336,1.462,0.037
39.69,-0.088,0.931,0.152
39.7,-0.215,0.793,0.056
39.71,-0.371,0.896,-0.179
39.72,-0.227,1.135,0.013
39.73,-0.16,1.254,0.177
39.74,-0.061,0.583,0.062
39.75,-0.469,0.999,-0.165
39.76,-0.16,1.299,0.021
39.77,-0.207,1.048,0.124
39.78,-0.061,0.802,0.013
39.79,-0.447,0.595,-0.184
39.8,-0.056,1.752,0.086
39.81,-0.218,0.799,0.212
39.82,-0.073,0.872,0.055
39.83,-0.391,0.424,-0.211
39.84,-0.216,1.932,0.105
39.85,-0.026,0.697,0.133
39.86,-0.127,0.83,-0.007
39.87,-0.456,0.559,-0.211
39.88,-0.156,1.678,0.075
39.89,-0.088,1.07,0.124
39.9,0.005,0.412,-0.043
39.91,-0.535,1.024,-0.211
39.92,-0.022,1.521,0.127
39.93,-0.225,1.242,0.163
39.94,0.073,0.45,0.008
39.95,-0.474,0.865,-0.252
39.96,-0.096,1.606,0.089
39.97,-0.055,0.974,0.06
39.98,-0.062,0.848,-0.075
39.99,-0.354,0.312,-0.167
40.0,-0.227,1.965,0.12
40.01,-0.074,0.768,0.135
40.02,-0.174,0.923,-0.052
40.03,-0.455,0.454,-0.219
40.04,-0.094,1.713,0.118
40.05,-0.258,1.249,0.132
40.06,-0.046,0.483,-0.056
40.07,-0.463,0.973,-0.185
40.08,-0.032,1.344,0.182
40.09,-0.256,1.377,0.111
40.1,-0.073,0.469,-0.042
40.11,-0.484,0.8,-0.145
40.12,-0.176,1.404,0.226
40.13,-0.16,1.042,0.075
40.14,-0.102,0.938,-0.109
40.15,-0.383,0.299,-0.173
40.16,-0.191,1.562,0.227
40.17,-0.068,0.847,0.06
40.18,-0.215,0.95,-0.093
40.19,-0.379,0.367,-0.162
40.2,-0.098,1.31,0.141
40.21,-0.18,1.154,-0.006
40.22,-0.061,0.558,-0.132
40.23,-0.453,0.933,-0.164
40.24,0.032,0.877,0.171
40.25,-0.237,1.381,-0.025
40.26,-0.108,0.327,-0.124
40.27,-0.47,0.922,-0.126
40.28,0.036,1.072,0.139
40.29,-0.213,1.028,-0.013
40.3,-0.166,0.727,-0.149
40.31,-0.302,0.603,-0.083
40.32,-0.13,1.301,0.151
40.33,-0.214,0.697,0.022
40.34,-0.282,0.926,-0.107
40.35,-0.318,0.803,-0.003
40.36,-0.057,1.153,0.164
40.37,-0.249,1.011,0.026
40.38,-0.225,0.544,-0.137
40.39,-0.341,1.473,-0.054
40.4,0.008,0.809,0.129
40.41,-0.298,1.272,0.042
40.42,-0.226,0.353,-0.183
40.43,-0.295,1.64,0.013
40.44,0.036,0.898,0.162
40.45,-0.243,0.817,0.054
40.46,-0.335,0.862,-0.203
40.47,-0.292,1.276,0.043
40.48,-0.06,1.248,0.153
40.49,-0.073,0.486,0.055
40.5,-0.463,1.038,-0.226
40.51,-0.132,1.356,0.065
40.52,-0.137,1.131,0.16
40.53,0.011,0.681,-0.019
40.54,-0.496,0.653,-0.223
40.55,-0.117,1.948,0.083
40.56,-0.108,0.626,0.121
40.57,-0.056,0.989,0.028
40.58,-0.403,0.372,-0.215
40.59,-0.153,2.0,0.11
40.6,-0.062,0.798,0.123
40.61,-0.062,0.865,-0.061
40.62,-0.347,0.432,-0.229
40.63,-0.16,1.757,0.097
40.64,-0.152,1.123,0.029
40.65,0.008,0.483,-0.087
40.66,-0.442,0.985,-0.149
40.67,-0.031,1.397,0.187
40.68,-0.262,1.356,0.102
40.69,0.03,0.462,-0.049
40.7,-0.544,0.849,-0.13
40.71,-0.087,1.411,0.218
40.72,-0.241,1.006,0.103
40.73,-0.047,0.931,-0.094
40.74,-0.453,0.259,-0.157
40.75,-0.188,1.658,0.164
40.76,-0.13,0.805,0.04
40.77,-0.161,0.96,-0.117
40.78,-0.335,0.37,-0.192
40.79,-0.096,1.312,0.097
40.8,-0.232,1.128,-0.036
40.81,-0.229,0.47,-0.141
40.82,-0.334,0.925,-0.122
40.83,-0.059,0.886,0.227
40.84,-0.219,1.35,0.018
40.85,-0.18,0.358,-0.126
40.86,-0.387,1.037,-0.051
40.87,-0.036,1.012,0.151
40.88,-0.173,0.957,0.018
40.89,-0.326,0.741,-0.163
40.9,-0.224,0.802,-0.013
40.91,-0.127,1.338,0.148
40.92,-0.192,0.626,0.062
40.93,-0.386,0.999,-0.164
40.94,-0.254,0.899,-0.066
40.95,-0.104,1.171,0.163
40.96,-0.208,0.943,0.014
40.97,-0.288,0.645,-0.221
40.98,-0.282,1.54,-0.002
40.99,-0.03,0.771,0.153
41.0,-0.315,1.193,0.099
41.01,-0.285,0.351,-0.171
41.02,-0.312,1.688,0.049
41.03,-0.012,0.902,0.145
41.04,-0.176,0.777,0.054
41.05,-0.472,0.817,-0.158
41.06,-0.196,1.32,0.027
41.07,-0.109,1.201,0.113
41.08,0.012,0.496,0.056
41.09,-0.552,1.094,-0.197
41.1,-0.148,1.344,0.086
41.11,-0.175,1.074,0.156
41.12,-0.039,0.684,0.047
41.13,-0.443,0.661,-0.169
41.14,-0.22,1.908,0.1
41.15,-0.054,0.715,0.184
41.16,-0.155,0.91,0.037
41.17,-0.37,0.344,-0.162
41.18,-0.204,2.0,0.073
41.19,-0.049,0.846,0.131
41.2,-0.138,0.712,-0.023
41.21,-0.423,0.679,-0.205
41.22,-0.065,1.655,0.104
41.23,-0.161,1.202,0.177
41.24,0.036,0.321,-0.072
41.25,-0.522,1.03,-0.205
41.26,-0.032,1.493,0.092
41.27,-0.179,1.227,0.069
41.28,0.008,0.601,-0.026
41.29,-0.495,0.615,-0.105
41.3,-0.128,1.708,0.165
41.31,-0.139,0.854,0.082
41.32,-0.101,1.011,-0.091
41.33,-0.395,0.213,-0.153
41.34,-0.152,1.766,0.117
41.35,-0.185,0.871,0.052
41.36,-0.101,0.879,-0.088
41.37,-0.42,0.521,-0.206
41.38,-0.044,1.24,0.158
41.39,-0.282,1.288,0.019
41.4,-0.031,0.421,-0.11
41.41,-0.436,0.971,-0.104
41.42,-0.017,0.915,0.187
41.43,-0.295,1.295,0.031
41.44,-0.225,0.319,-0.132
41.45,-0.371,1.097,-0.041
41.46,-0.028,1.045,0.147
41.47,-0.177,0.97,0.047
41.48,-0.355,0.745,-0.141
41.49,-0.176,0.914,-0.037
41.5,-0.077,1.307,0.138
41.51,-0.147,0.591,0.034
41.52,-0.399,1.04,-0.163
41.53,-0.194,0.993,-0.07
41.54,-0.128,1.124,0.151
41.55,-0.173,0.903,0.041
41.56,-0.362,0.653,-0.208
41.57,-0.247,1.569,0.038
41.58,-0.045,0.735,0.128
41.59,-0.261,1.107,0.036
41.6,-0.332,0.376,-0.17
41.61,-0.335,1.785,0.041
41.62,-0.102,0.809,0.21
41.63,-0.103,0.762,0.037
41.64,-0.467,0.782,-0.213
41.65,-0.18,1.387,0.065
41.66,-0.115,1.227,0.169
41.67,-0.016,0.411,0.017
41.68,-0.5,1.025,-0.183
41.69,-0.123,1.473,0.107
41.7,-0.123,1.083,0.088
41.71,0.064,0.605,-0.008
41.72,-0.45,0.686,-0.223
41.73,-0.082,1.965,0.027
41.74,0.001,0.695,0.058
41.75,-0.051,0.929,-0.021
41.76,-0.342,0.292,-0.225
41.77,-0.153,2.0,0.107
41.78,-0.051,0.774,0.075
41.79,-0.088,0.701,-0.04
41.8,-0.435,0.675,-0.207
41.81,-0.084,1.661,0.127
41.82,-0.271,1.225,0.119
41.83,0.039,0.43,-0.022
41.84,-0.511,0.983,-0.173
41.85,0.009,1.434,0.156
41.86,-0.208,1.345,0.053
41.87,-0.053,0.553,-0.035
41.88,-0.45,0.649,-0.149
41.89,-0.205,1.626,0.206
41.9,-0.028,0.861,-0.009
41.91,-0.223,0.959,-0.11
41.92,-0.315,0.175,-0.154
41.93,-0.227,1.569,0.21
41.94,-0.193,0.848,0.086
41.95,-0.181,0.876,-0.092
41.96,-0.382,0.563,-0.135
41.97,-0.098,1.108,0.24
41.98,-0.272,1.32,0.009
41.99,-0.089,0.407,-0.098
42.0,-0.504,1.032,-0.101
42.01,0.008,0.884,0.184
42.02,-0.202,1.252,-0.095
42.03,-0.161,0.515,-0.144
42.04,-0.433,0.808,-0.039
42.05,-0.116,1.147,0.172
42.06,-0.176,0.798,0.013
42.07,-0.335,0.886,-0.169
42.08,-0.197,0.657,-0.056
42.09,-0.159,1.291,0.117
42.1,-0.093,0.777,-0.018
42.11,-0.361,0.786,-0.153
42.12,-0.212,1.191,-0.06
42.13,-0.087,0.952,0.156
42.14,-0.235,1.101,0.048
42.15,-0.317,0.425,-0.18
42.16,-0.38,1.667,0.077
42.17,-0.092,0.673,0.131
42.18,-0.305,1.142,0.057
42.19,-0.264,0.443,-0.189
42.2,-0.323,1.556,0.09
42.21,-0.018,1.004,0.166
42.22,-0.031,0.754,-0.003
42.23,-0.375,0.74,-0.255
42.24,-0.08,1.539,0.088
42.25,-0.128,1.153,0.139
42.26,0.042,0.37,-0.029
42.27,-0.484,0.999,-0.204
42.28,0.007,1.591,0.121
42.29,-0.165,1.227,0.117
42.3,-0.002,0.499,-0.028
42.31,-0.462,0.667,-0.197
42.32,-0.116,1.958,0.113
42.33,-0.022,0.775,0.071
42.34,-0.095,0.902,-0.055
42.35,-0.301,0.267,-0.227
42.36,-0.167,2.0,0.108
42.37,-0.158,0.826,0.081
42.38,-0.051,0.848,-0.058
42.39,-0.43,0.57,-0.196
42.4,-0.134,1.345,0.184
42.41,-0.285,1.297,0.095
42.42,-0.018,0.423,-0.082
42.43,-0.54,1.004,-0.085
42.44,0.011,1.058,0.125
42.45,-0.346,1.282,0.002
42.46,-0.085,0.632,-0.06
42.47,-0.425,0.625,-0.075
42.48,-0.127,1.219,0.18
42.49,-0.165,0.888,-0.014
42.5,-0.204,0.919,-0.157
42.51,-0.387,0.357,-0.092
42.52,-0.104,1.288,0.19
42.53,-0.187,0.784,-0.036
42.54,-0.355,0.766,-0.141
42.55,-0.317,0.83,-0.046
42.56,-0.031,0.992,0.163
42.57,-0.297,1.171,0.007
42.58,-0.204,0.362,-0.178
42.59,-0.308,1.428,-0.034
42.6,0.07,0.796,0.142
42.61,-0.325,1.188,0.017
42.62,-0.223,0.511,-0.207
42.63,-0.278,1.461,-0.053
42.64,-0.002,1.045,0.163
42.65,-0.156,0.637,0.048
42.66,-0.448,1.04,-0.181
42.67,-0.293,1.2,0.081
42.68,-0.14,1.14,0.199
42.69,-0.101,0.625,0.086
42.7,-0.482,0.997,-0.172
42.71,-0.184,1.527,0.09
42.72,-0.06,0.888,0.15
42.73,-0.084,0.843,0.031
42.74,-0.376,0.526,-0.178
42.75,-0.235,1.976,0.111
42.76,-0.026,0.706,0.112
42.77,-0.2,0.916,0.029
42.78,-0.341,0.412,-0.208
42.79,-0.185,1.832,0.158
42.8,-0.066,0.963,0.119
42.81,-0.033,0.459,-0.034
42.82,-0.507,0.964,-0.227
42.83,-0.03,1.464,0.114
42.84,-0.18,1.251,0.153
42.85,0.044,0.349,0.022
42.86,-0.492,0.949,-0.206
42.87,-0.054,1.646,0.095
42.88,-0.128,1.078,0.079
42.89,-0.059,0.761,-0.049
42.9,-0.48,0.407,-0.157
42.91,-0.152,1.952,0.138
42.92,-0.068,0.786,0.093
42.93,-0.179,0.928,-0.02
42.94,-0.464,0.344,-0.062
42.95,-0.226,1.689,0.139
42.96,-0.159,1.082,0.085
42.97,-0.134,0.591,-0.075
42.98,-0.467,0.866,-0.116
42.99,-0.057,1.198,0.129
43.0,-0.301,1.358,0.076
43.01,0.0,0.468,-0.058
43.02,-0.524,1.016,-0.128
43.03,0.016,0.972,0.192
43.04,-0.338,1.176,0.03
43.05,-0.143,0.582,-0.105
43.06,-0.493,0.716,-0.046
43.07,-0.13,1.159,0.192
43.08,-0.252,0.82,0.013
43.09,-0.308,0.895,-0.133
43.1,-0.35,0.545,-0.048
43.11,-0.135,1.358,0.175
43.12,-0.254,0.716,0.097
43.13,-0.372,0.913,-0.094
43.14,-0.396,0.885,-0.001
43.15,-0.109,0.971,0.174
43.16,-0.305,1.153,0.023
43.17,-0.209,0.333,-0.167
43.18,-0.343,1.471,-0.037
43.19,0.042,0.761,0.129
43.2,-0.281,1.187,-0.02
43.21,-0.18,0.516,-0.242
43.22,-0.269,1.43,-0.062
43.23,0.005,1.014,0.1
43.24,-0.16,0.667,0.002
43.25,-0.329,1.002,-0.208
43.26,-0.205,1.171,-0.02
43.27,-0.118,1.208,0.123
43.28,-0.054,0.545,0.024
43.29,-0.46,0.888,-0.203
43.3,-0.223,1.441,0.042
43.31,-0.196,0.876,0.15
43.32,-0.133,0.896,0.039
43.33,-0.436,0.521,-0.198
43.34,-0.317,1.92,0.098
43.35,-0.104,0.614,0.158
43.36,-0.144,1.065,0.061
43.37,-0.41,0.42,-0.207
43.38,-0.24,1.806,0.115
43.39,-0.107,0.881,0.107
43.4,0.043,0.612,-0.029
43.41,-0.417,0.932,-0.227
43.42,-0.02,1.511,0.094
43.43,-0.132,1.244,0.136
43.44,0.106,0.349,-0.019
43.45,-0.437,0.994,-0.211
43.46,0.03,1.696,0.072
43.47,-0.139,0.986,0.088
43.48,0.001,0.717,-0.095
43.49,-0.463,0.462,-0.184
43.5,-0.119,2.0,0.1
43.51,-0.085,0.696,0.09
43.52,-0.143,0.835,-0.022
43.53,-0.366,0.34,-0.184
43.54,-0.235,1.816,0.148
43.55,-0.13,0.969,0.099
43.56,-0.13,0.605,-0.075
43.57,-0.416,0.864,-0.146
43.58,-0.104,1.362,0.129
43.59,-0.212,1.373,0.055
43.6,0.007,0.385,-0.045
43.61,-0.545,0.949,-0.173
43.62,-0.031,1.326,0.231
43.63,-0.188,1.134,0.102
43.64,-0.19,0.75,-0.1
43.65,-0.295,0.369,-0.181
43.66,-0.198,1.582,0.114
43.67,-0.106,0.791,0.005
43.68,-0.248,1.052,-0.133
43.69,-0.355,0.259,-0.198
43.7,-0.087,1.374,0.173
43.71,-0.278,1.03,0.029
43.72,-0.189,0.564,-0.108
43.73,-0.503,0.848,-0.147
43.74,0.042,0.949,0.175
43.75,-0.311,1.312,0.016
43.76,-0.163,0.349,-0.107
43.77,-0.521,1.034,-0.035
43.78,-0.01,0.909,0.168
43.79,-0.222,1.137,0.045
43.8,-0.261,0.598,-0.163
43.81,-0.351,0.755,-0.018
43.82,-0.142,1.217,0.174
43.83,-0.143,0.781,0.009
43.84,-0.365,0.921,-0.161
43.85,-0.168,1.097,-0.031
43.86,-0.129,1.26,0.153
43.87,-0.094,0.599,0.05
43.88,-0.422,0.957,-0.232
43.89,-0.156,1.305,-0.007
43.9,-0.118,0.957,0.104
43.91,-0.23,0.902,0.004
43.92,-0.23,0.538,-0.202
43.93,-0.359,1.862,0.039
43.94,0.082,0.713,0.111
43.95,-0.204,1.018,0.008
43.96,-0.334,0.452,-0.214
43.97,-0.278,1.717,0.037
43.98,-0.028,0.935,0.085
43.99,-0.066,0.583,0.012
44.0,-0.449,0.905,-0.202
44.01,-0.141,1.387,0.074
44.02,-0.157,1.226,0.099
44.03,0.069,0.396,-0.031
44.04,-0.509,1.063,-0.184
44.05,-0.159,1.584,0.133
44.06,-0.18,0.889,0.156
44.07,-0.113,1.993,0.084
44.08,-0.037,0.678,-0.002
44.09,-0.067,0.943,-0.046
44.1,-0.306,0.301,-0.18
44.11,-0.156,1.93,0.112
44.12,-0.166,0.847,0.074
44.13,-0.087,0.717,-0.061
44.14,-0.489,0.704,-0.138
44.15,0.021,1.583,0.18
44.16,-0.259,1.369,0.1
44.17,0.078,0.338,-0.099
44.18,-0.584,1.012,-0.186
44.19,0.07,1.344,0.149
44.2,-0.311,1.293,0.114
44.21,-0.072,0.65,-0.106
44.22,-0.392,0.535,-0.178
44.23,-0.183,1.513,0.14
44.24,-0.145,0.879,0.021
44.25,-0.203,1.012,-0.116
44.26,-0.445,0.206,-0.131
44.27,-0.13,1.402,0.2
44.28,-0.203,0.938,0.012
44.29,-0.188,0.719,-0.104
44.3,-0.478,0.708,-0.092
44.31,-0.072,0.973,0.221
44.32,-0.306,1.292,0.027
44.33,-0.193,0.285,-0.13
44.34,-0.367,1.204,-0.035
44.35,-0.021,0.86,0.131
44.36,-0.266,1.233,0.059
44.37,-0.278,0.498,-0.185
44.38,-0.18,1.538,-0.078
44.39,-0.068,0.861,0.093
44.4,-0.142,0.822,0.026
44.41,-0.326,0.929,-0.17
44.42,-0.252,1.205,0.011
44.43,-0.09,1.272,0.134
44.44,-0.05,0.502,0.006
44.45,-0.435,1.086,-0.209
44.46,-0.149,1.367,0.012
44.47,-0.159,1.041,0.196
44.48,-0.075,0.703,0.074
44.49,-0.426,0.64,-0.176
44.5,-0.269,1.856,0.111
44.51,-0.14,0.73,0.205
44.52,-0.189,0.965,0.071
44.53,-0.442,0.341,-0.15
44.54,-0.26,1.904,0.136
44.55,-0.027,0.801,0.114
44.56,-0.087,0.695,0.039
44.57,-0.431,0.847,-0.211
44.58,-0.129,1.459,0.072
44.59,-0.118,1.152,0.104
44.6,0.055,0.37,-0.031
44.61,-0.451,1.068,-0.213
44.62,-0.055,1.578,0.051
44.63,-0.064,1.23,0.063
44.64,-0.048,0.496,-0.052
44.65,-0.333,0.704,-0.209
44.66,-0.198,1.89,0.051
44.67,-0.031,0.717,0.132
44.68,-0.191,0.966,-0.03
44.69,-0.308,0.299,-0.184
44.7,-0.249,2.0,0.138
44.71,-0.025,0.884,0.084
44.72,-0.173,0.732,-0.061
44.73,-0.315,0.707,-0.182
44.74,-0.128,1.562,0.144
44.75,-0.163,1.293,0.106
44.76,0.005,0.326,-0.061
44.77,-0.502,0.986,-0.165
44.78,-0.068,1.274,0.175
44.79,-0.269,1.235,0.065
44.8,-0.102,0.647,-0.078
44.81,-0.454,0.562,-0.142
44.82,-0.18,1.561,0.261
44.83,-0.114,0.888,0.091
44.84,-0.259,0.968,-0.101
44.85,-0.43,0.265,-0.136
44.86,-0.218,1.556,0.202
44.87,-0.139,0.893,0.109
44.88,-0.149,0.819,-0.124
44.89,-0.387,0.628,-0.23
44.9,-0.048,1.092,0.175
44.91,-0.319,1.297,0.018
44.92,-0.114,0.37,-0.071
44.93,-0.473,0.981,-0.088
44.94,-0.041,0.841,0.216
44.95,-0.246,1.375,-0.012
44.96,-0.228,0.447,-0.126
44.97,-0.422,0.705,-0.059
44.98,-0.069,1.198,0.197
44.99,-0.075,0.775,0.062
45.0,-0.456,0.89,-0.159
45.01,-0.295,0.516,-0.041
45.02,-0.208,1.304,0.139
45.03,-0.241,0.809,0.064
45.04,-0.361,0.77,-0.091
45.05,-0.286,1.085,-0.041
45.06,0.001,0.972,0.169
45.07,-0.233,1.183,-0.031
45.08,-0.26,0.415,-0.193
45.09,-0.328,1.595,-0.016
45.1,-0.024,0.714,0.128
45.11,-0.352,1.159,0.073
45.12,-0.247,0.533,-0.157
45.13,-0.412,1.44,0.039
45.14,-0.08,1.009,0.16
45.15,-0.11,0.642,0.012
45.16,-0.464,0.998,-0.163
45.17,-0.199,1.256,0.084
45.18,-0.256,1.216,0.194
45.19,0.056,0.436,0.01
45.2,-0.511,1.014,-0.169
45.21,-0.007,1.534,0.068
45.22,-0.17,1.107,0.086
45.23,0.008,0.564,-0.015
45.24,-0.406,0.684,-0.184
45.25,-0.119,1.892,0.097
45.26,-0.042,0.719,0.098
45.27,-0.163,0.862,-0.019
45.28,-0.416,0.291,-0.168
45.29,-0.191,2.0,0.146
45.3,-0.152,0.759,0.174
45.31,-0.146,0.732,-0.006
45.32,-0.433,0.643,-0.187
45.33,-0.106,1.52,0.157
45.34,-0.229,1.298,0.14
45.35,-0.036,0.332,-0.05
45.36,-0.516,1.005,-0.17
45.37,-0.071,1.305,0.184
45.38,-0.292,1.245,0.07
45.39,-0.085,0.591,-0.068
45.4,-0.407,0.627,-0.14
45.41,-0.142,1.46,0.241
45.42,-0.116,0.87,0.05
45.43,-0.284,0.979,-0.09
45.44,-0.334,0.233,-0.144
45.45,-0.255,1.49,0.189
45.46,-0.174,0.862,0.08
45.47,-0.272,0.85,-0.11
45.48,-0.466,0.538,-0.142
45.49,-0.12,1.018,0.235
45.5,-0.363,1.29,0.075
45.51,-0.167,0.322,-0.098
45.52,-0.582,1.108,-0.087
45.53,-0.003,0.877,0.176
45.54,-0.28,1.302,0.054
45.55,-0.336,0.447,-0.135
45.56,-0.453,0.842,0.021
45.57,-0.087,1.116,0.159
45.58,-0.196,0.809,0.058
45.59,-0.312,0.885,-0.138
45.6,-0.276,0.763,-0.058
45.61,-0.195,1.295,0.213
45.62,-0.157,0.763,0.031
45.63,-0.353,0.838,-0.155
45.64,-0.171,1.173,-0.085
45.65,-0.034,0.989,0.164
45.66,-0.165,1.123,-0.002
45.67,-0.291,0.456,-0.189
45.68,-0.308,1.57,-0.064
45.69,-0.055,0.715,0.095
45.7,-0.302,1.184,0.027
45.71,-0.252,0.402,-0.24
45.72,-0.287,1.442,0.006
45.73,-0.065,1.009,0.096
45.74,-0.102,0.705,0.009
45.75,-0.369,0.99,-0.185
45.76,-0.239,1.249,0.081
45.77,-0.102,1.289,0.221
45.78,-0.072,0.465,0.045
45.79,-0.498,0.891,-0.173
45.8,-0.154,1.548,0.037
45.81,-0.174,0.945,0.148
45.82,-0.059,0.788,0.035
45.83,-0.436,0.503,-0.151
45.84,-0.211,1.96,0.108
45.85,-0.049,0.659,0.148
45.86,-0.136,0.964,0.042
45.87,-0.369,0.388,-0.16
45.88,-0.161,1.926,0.129
45.89,-0.162,0.898,0.149
45.9,-0.047,0.539,-0.006
45.91,-0.49,0.878,-0.176
45.92,-0.044,1.608,0.13
45.93,-0.161,1.209,0.067
45.94,0.087,0.312,-0.041
45.95,-0.498,0.974,-0.173
45.96,-0.078,1.534,0.092
45.97,-0.184,1.054,0.089
45.98,-0.027,0.749,-0.054
45.99,-0.453,0.658,-0.132
46.0,-0.13,1.59,0.234
46.01,-0.172,0.896,0.105
46.02,-0.2,0.983,-0.064
46.03,-0.453,0.243,-0.117
46.04,-0.215,1.698,0.239
46.05,-0.224,0.877,0.119
46.06,-0.173,0.876,-0.069
46.07,-0.383,0.448,-0.185
46.08,-0.086,1.244,0.133
46.09,-0.233,1.291,0.033
46.1,-0.096,0.394,-0.117
46.11,-0.429,0.971,-0.18
46.12,0.022,0.992,0.224
46.13,-0.228,1.389,-0.017
46.14,-0.098,0.52,-0.157
46.15,-0.384,0.711,-0.147
46.16,-0.008,1.157,0.133
46.17,-0.118,0.952,-0.037
46.18,-0.32,0.859,-0.157
46.19,-0.359,0.39,-0.105
46.2,-0.177,1.376,0.184
46.21,-0.224,0.755,0.08
46.22,-0.352,0.841,-0.146
46.23,-0.351,0.732,-0.058
46.24,-0.056,1.067,0.152
46.25,-0.29,1.181,0.105
46.26,-0.279,0.399,-0.132
46.27,-0.299,1.441,-0.084
46.28,0.007,0.774,0.163
46.29,-0.218,1.221,0.056
46.3,-0.256,0.435,-0.231
46.31,-0.319,1.414,-0.08
46.32,-0.059,0.998,0.146
46.33,-0.14,0.761,0.014
46.34,-0.373,0.878,-0.18
46.35,-0.243,1.121,-0.028
46.36,-0.134,1.248,0.141
46.37,-0.021,0.604,0.043
46.38,-0.427,1.025,-0.175
46.39,-0.25,1.322,-0.01
46.4,-0.124,0.919,0.116
46.41,-0.111,0.893,0.022
46.42,-0.381,0.457,-0.221
46.43,-0.332,1.881,0.052
46.44,-0.094,0.651,0.112
46.45,-0.118,1.056,0.062
46.46,-0.319,0.4,-0.195
46.47,-0.259,1.792,0.101
46.48,-0.047,0.959,0.168
46.49,-0.034,0.601,0.021
46.5,-0.404,0.897,-0.248
46.51,-0.06,1.415,0.068
46.52,-0.188,1.187,0.058
46.53,0.064,0.392,-0.004
46.54,-0.461,1.031,-0.221
46.55,-0.07,1.648,0.035
46.56,-0.127,1.006,0.149
46.57,-0.01,0.655,-0.021
46.58,-0.451,0.544,-0.166
46.59,-0.154,1.972,0.046
46.6,-0.065,0.752,0.068
46.61,-0.196,0.885,0.014
46.62,-0.385,0.34,-0.175
46.63,-0.181,1.961,0.162
46.64,-0.127,0.878,0.113
46.65,-0.016,0.631,-0.038
46.66,-0.48,0.819,-0.196
46.67,-0.07,1.483,0.142
46.68,-0.344,1.357,0.174
46.69,-0.023,0.341,-0.009
46.7,-0.531,0.948,-0.181
46.71,-0.006,1.255,0.174
46.72,-0.316,1.165,0.108
46.73,-0.072,0.711,-0.1
46.74,-0.538,0.418,-0.141
46.75,-0.084,1.629,0.211
46.76,-0.225,0.861,0.091
46.77,-0.259,0.975,-0.091
46.78,-0.386,0.213,-0.152
46.79,-0.156,1.608,0.195
46.8,-0.108,0.863,0.022
46.81,-0.267,0.856,-0.109
46.82,-0.371,0.512,-0.137
46.83,-0.12,1.096,0.201
46.84,-0.25,1.132,0.015
46.85,-0.234,0.408,-0.161
46.86,-0.408,1.05,-0.09
46.87,-0.072,0.889,0.161
46.88,-0.209,1.3,0.01
46.89,-0.25,0.35,-0.13
46.9,-0.346,1.087,-0.003
46.91,-0.047,0.991,0.175
46.92,-0.255,0.916,0.085
46.93,-0.271,0.831,-0.185
46.94,-0.226,0.874,-0.107
46.95,-0.088,1.306,0.153
46.96,-0.143,0.659,0.026
46.97,-0.422,0.992,-0.148
46.98,-0.251,1.065,-0.082
46.99,-0.08,1.08,0.12
47.0,-0.172,1.0,0.031
47.01,-0.229,0.537,-0.188
47.02,-0.359,1.726,-0.042
47.03,0.045,0.747,0.137
47.04,-0.304,1.141,0.052
47.05,-0.259,0.441,-0.165
47.06,-0.343,1.627,-0.043
47.07,-0.03,0.808,0.18
47.08,-0.098,0.816,0.061
47.09,-0.448,0.883,-0.197
47.1,-0.218,1.254,0.057
47.11,-0.157,1.189,0.094
47.12,-0.046,0.52,0.047
47.13,-0.469,1.032,-0.196
47.14,-0.24,1.384,0.049
47.15,-0.13,1.027,0.164
47.16,-0.038,0.753,0.017
47.17,-0.375,0.604,-0.215
47.18,-0.189,1.94,0.088
47.19,-0.026,0.689,0.113
47.2,-0.104,0.967,0.021
47.21,-0.34,0.32,-0.243
47.22,-0.116,2.0,0.069
47.23,-0.089,0.846,0.105
47.24,-0.104,0.653,-0.005
47.25,-0.405,0.767,-0.22
47.26,-0.052,1.606,0.078
47.27,-0.161,1.234,0.137
47.28,0.067,0.269,-0.04
47.29,-0.531,1.062,-0.196
47.3,-0.002,1.624,0.068
47.31,-0.187,1.092,0.077
47.32,0.078,0.635,-0.039
47.33,-0.451,0.618,-0.198
47.34,-0.079,1.869,0.147
47.35,-0.038,0.787,0.08
47.36,-0.152,0.855,-0.03
47.37,-0.344,0.303,-0.189
47.38,-0.194,1.858,0.113
47.39,-0.135,0.805,0.076
47.4,-0.088,0.76,-0.08
47.41,-0.484,0.63,-0.131
47.42,-0.096,1.388,0.177
47.43,-0.334,1.329,0.105
47.44,0.005,0.409,-0.053
47.45,-0.59,0.984,-0.132
47.46,0.024,1.256,0.198
47.47,-0.329,1.304,0.077
47.48,-0.064,0.666,-0.061
47.49,-0.45,0.548,-0.166
47.5,-0.151,1.462,0.232
47.51,-0.155,0.912,0.088
47.52,-0.279,0.958,-0.053
47.53,-0.354,0.243,-0.116
47.54,-0.227,1.458,0.137
47.55,-0.149,0.878,-0.075
47.56,-0.124,0.813,-0.144
47.57,-0.429,0.638,-0.219
47.58,-0.01,1.009,0.179
47.59,-0.299,1.258,0.033
47.6,-0.145,0.34,-0.144
47.61,-0.444,1.162,-0.053
47.62,-0.013,0.802,0.189
47.63,-0.276,1.321,0.033
47.64,-0.269,0.327,-0.17
47.65,-0.369,1.187,-0.032
47.66,-0.101,0.913,0.159
47.67,-0.245,0.983,0.024
47.68,-0.29,0.657,-0.139
47.69,-0.177,1.076,-0.061
47.7,-0.079,1.247,0.145
47.71,-0.061,0.586,0.049
47.72,-0.453,1.079,-0.172
47.73,-0.231,1.085,0.011
47.74,-0.142,1.001,0.092
47.75,-0.155,0.876,-0.035
47.76,-0.37,0.551,-0.215
47.77,-0.278,1.731,0.001
47.78,0.031,0.756,0.171
47.79,-0.221,1.02,0.021
47.8,-0.37,0.447,-0.219
47.81,-0.372,1.804,0.102
47.82,-0.063,0.798,0.14
47.83,-0.097,0.817,0.034
47.84,-0.511,0.764,-0.188
47.85,-0.219,1.382,0.119
47.86,-0.226,1.149,0.134
47.87,0.047,0.434,0.036
47.88,-0.547,1.031,-0.156
47.89,-0.077,1.507,0.131
47.9,-0.178,1.075,0.133
47.91,0.04,0.617,-0.006
47.92,-0.463,0.652,-0.157
47.93,-0.091,2.0,0.092
47.94,-0.161,0.705,0.13
47.95,-0.078,0.887,-0.029
47.96,-0.431,0.356,-0.178
47.97,-0.118,2.0,0.087
47.98,-0.094,0.776,0.058
47.99,-0.051,0.671,-0.037
48.0,-0.417,0.619,-0.243
48.01,-0.033,1.605,0.158
48.02,-0.181,1.234,0.017
48.03,0.032,0.408,-0.034
48.04,-0.537,1.034,-0.184
48.05,-0.037,1.412,0.165
48.06,-0.252,1.262,0.077
48.07,-0.068,0.531,-0.079
48.08,-0.404,0.632,-0.184
48.09,-0.182,1.527,0.197
48.1,-0.128,0.85,0.102
48.11,-0.189,0.996,-0.112
48.12,-0.348,0.177,-0.149
48.13,-0.178,1.619,0.206
48.14,-0.106,0.91,0.057
48.15,-0.149,0.848,-0.116
48.16,-0.468,0.536,-0.168
48.17,-0.053,1.153,0.194
48.18,-0.292,1.336,0.033
48.19,0.033,0.378,-0.104
48.2,-0.552,1.051,-0.167
48.21,0.061,0.94,0.17
48.22,-0.312,1.265,-0.041
48.23,-0.132,0.483,-0.129
48.24,-0.44,0.713,-0.103
48.25,-0.094,1.195,0.136
48.26,-0.119,0.88,-0.004
48.27,-0.335,0.865,-0.113
48.28,-0.332,0.445,-0.01
48.29,-0.167,1.297,0.185
48.3,-0.239,0.778,0.065
48.31,-0.263,0.818,-0.136
48.32,-0.432,0.863,-0.05
48.33,-0.013,1.016,0.141
48.34,-0.346,1.197,0.014
48.35,-0.204,0.282,-0.136
48.36,-0.334,1.443,-0.081
48.37,0.012,0.772,0.16
48.38,-0.313,1.221,0.044
48.39,-0.285,0.446,-0.167
48.4,-0.227,1.368,-0.045
48.41,-0.1,0.755,0.11
48.42,-0.141,0.85,0.046
48.43,-0.383,0.743,-0.202
48.44,-0.284,1.316,0.051
48.45,-0.133,1.124,0.15
48.46,-0.062,0.496,0.049
48.47,-0.558,1.002,-0.151
48.48,-0.186,1.304,0.08
48.49,-0.24,1.056,0.161
48.5,-0.057,0.672,0.001
