t,ax,ay,az
0.0,0.057,1.256,0.216
0.01,-0.359,1.367,0.113
0.02,0.049,0.471,-0.034
0.03,-0.539,0.822,-0.19
0.04,0.008,1.357,0.131
0.05,-0.232,1.057,0.091
0.06,-0.095,0.909,-0.065
0.07,-0.514,0.284,-0.155
0.08,-0.15,1.681,0.186
0.09,-0.136,0.862,0.127
0.1,-0.147,1.057,-0.035
0.11,-0.44,0.253,-0.128
0.12,-0.107,1.477,0.184
0.13,-0.151,1.137,0.051
0.14,-0.033,0.626,-0.083
0.15,-0.537,0.869,-0.137
0.16,0.031,1.1,0.188
0.17,-0.329,1.34,0.086
0.18,0.03,0.512,-0.098
0.19,-0.533,0.862,-0.135
0.2,-0.036,1.119,0.177
0.21,-0.197,1.199,0.089
0.22,-0.157,0.833,-0.127
0.23,-0.436,0.344,-0.1
0.24,-0.215,1.398,0.194
0.25,-0.099,0.859,0.072
0.26,-0.291,0.995,-0.07
0.27,-0.391,0.347,-0.126
0.28,-0.173,1.258,0.165
0.29,-0.147,1.068,-0.014
0.3,-0.085,0.606,-0.123
0.31,-0.462,0.881,-0.161
0.32,0.115,0.924,0.138
0.33,-0.266,1.405,0.015
0.34,-0.162,0.304,-0.114
0.35,-0.463,1.025,-0.111
0.36,-0.073,0.973,0.144
0.37,-0.198,1.136,0.054
0.38,-0.3,0.662,-0.162
0.39,-0.309,0.59,-0.05
0.4,-0.19,1.292,0.114
0.41,-0.102,0.746,0.033
0.42,-0.324,0.925,-0.124
0.43,-0.412,0.594,-0.038
0.44,-0.154,1.192,0.152
0.45,-0.169,0.804,0.051
0.46,-0.442,0.751,-0.146
0.47,-0.252,1.198,-0.045
0.48,-0.074,0.9,0.157
0.49,-0.246,1.14,0.024
0.5,-0.312,0.414,-0.19
0.51,-0.309,1.673,-0.043
0.52,-0.021,0.693,0.103
0.53,-0.25,1.177,0.005
0.54,-0.278,0.508,-0.186
0.55,-0.331,1.475,-0.019
0.56,-0.066,0.963,0.123
0.57,-0.107,0.752,0.032
0.58,-0.412,1.0,-0.189
0.59,-0.241,1.167,0.021
0.6,-0.18,1.163,0.188
0.61,-0.079,0.644,0.041
0.62,-0.497,0.94,-0.179
0.63,-0.259,1.377,0.034
0.64,-0.159,0.825,0.15
0.65,-0.146,1.044,0.002
0.66,-0.327,0.394,-0.235
0.67,-0.282,2.0,0.013
0.68,0.001,0.695,0.164
0.69,-0.214,0.98,0.035
0.7,-0.376,0.42,-0.222
0.71,-0.278,1.886,0.078
0.72,-0.181,0.785,0.124
0.73,-0.033,0.643,0.016
0.74,-0.45,0.682,-0.209
0.75,-0.179,1.705,0.182
0.76,-0.227,1.035,0.174
0.77,0.058,0.361,0.053
0.78,-0.488,1.048,-0.166
0.79,-0.022,1.619,0.109
0.8,-0.134,1.199,0.115
0.81,0.017,0.491,0.0
0.82,-0.473,0.733,-0.154
0.83,-0.029,2.0,0.098
0.84,-0.098,0.736,0.061
0.85,-0.03,0.891,-0.036
0.86,-0.443,0.281,-0.207
0.87,-0.067,2.0,0.151
0.88,-0.089,0.728,0.097
0.89,-0.108,0.696,-0.011
0.9,-0.405,0.513,-0.183
0.91,-0.14,1.715,0.151
0.92,-0.114,1.192,0.09
0.93,0.067,0.367,-0.074
0.94,-0.493,0.985,-0.179
0.95,0.044,1.662,0.16
0.96,-0.196,1.253,0.073
0.97,-0.031,0.457,-0.061
0.98,-0.416,0.729,-0.172
0.99,-0.044,1.74,0.096
1.0,-0.094,0.878,0.111
1.01,-0.098,0.931,-0.064
1.02,-0.261,0.188,-0.186
1.03,-0.227,1.798,0.148
1.04,-0.055,0.876,0.108
1.05,-0.212,0.945,-0.064
1.06,-0.407,0.41,-0.167
1.07,-0.105,1.504,0.237
1.08,-0.223,1.307,0.075
1.09,0.046,0.435,-0.1
1.1,-0.528,0.972,-0.143
1.11,-0.042,1.144,0.248
1.12,-0.304,1.354,0.089
1.13,-0.007,0.579,-0.03
1.14,-0.5,0.73,-0.139
1.15,-0.052,1.332,0.136
1.16,-0.073,0.906,-0.001
1.17,-0.19,1.082,-0.148
1.18,-0.312,0.223,-0.17
1.19,-0.184,1.415,0.184
1.2,-0.059,0.916,0.001
1.21,-0.177,0.921,-0.126
1.22,-0.398,0.529,-0.156
1.23,-0.091,1.082,0.217
1.24,-0.191,1.272,-0.055
1.25,-0.136,0.448,-0.121
1.26,-0.494,1.029,-0.1
1.27,0.0,0.85,0.146
1.28,-0.257,1.337,-0.007
1.29,-0.214,0.416,-0.149
1.3,-0.43,0.849,-0.087
1.31,-0.072,1.062,0.137
1.32,-0.159,0.974,0.007
1.33,-0.265,0.774,-0.139
1.34,-0.282,0.709,-0.047
1.35,-0.163,1.305,0.133
1.36,-0.224,0.69,0.034
1.37,-0.35,0.893,-0.132
1.38,-0.31,0.871,-0.039
1.39,-0.186,0.979,0.103
1.4,-0.26,1.166,-0.025
1.41,-0.254,0.439,-0.17
1.42,-0.347,1.426,-0.036
1.43,-0.028,0.706,0.131
1.44,-0.306,1.302,-0.014
1.45,-0.233,0.349,-0.153
1.46,-0.314,1.466,0.008
1.47,-0.108,0.943,0.162
1.48,-0.244,0.839,0.016
1.49,-0.443,0.82,-0.167
1.5,-0.255,1.042,0.005
1.51,-0.211,1.161,0.13
1.52,-0.126,0.742,0.011
1.53,-0.491,0.895,-0.169
1.54,-0.061,1.352,0.057
1.55,-0.274,1.02,0.1
1.56,0.013,0.612,0.049
1.57,-0.505,0.731,-0.21
1.58,-0.103,1.932,0.042
1.59,-0.134,0.687,0.133
1.6,-0.129,0.938,0.015
1.61,-0.431,0.311,-0.182
1.62,-0.149,2.0,0.12
1.63,-0.118,0.648,0.138
1.64,-0.149,0.789,0.019
1.65,-0.47,0.536,-0.16
1.66,-0.054,1.869,0.147
1.67,-0.092,1.084,0.113
1.68,-0.008,0.333,-0.043
1.69,-0.565,0.892,-0.162
1.7,0.018,1.615,0.167
1.71,-0.195,1.259,0.09
1.72,0.099,0.458,-0.032
1.73,-0.502,0.72,-0.196
1.74,0.007,1.813,0.107
1.75,-0.125,0.851,0.101
1.76,0.011,0.922,-0.089
1.77,-0.327,0.196,-0.209
1.78,-0.126,1.933,0.145
1.79,-0.035,0.836,0.084
1.8,-0.105,0.878,-0.076
1.81,-0.367,0.409,-0.181
1.82,-0.091,1.578,0.172
1.83,-0.209,1.203,0.05
1.84,0.039,0.58,-0.05
1.85,-0.495,0.893,-0.157
1.86,-0.018,1.154,0.184
1.87,-0.239,1.389,0.049
1.88,-0.009,0.593,-0.058
1.89,-0.421,0.754,-0.089
1.9,-0.147,1.249,0.172
1.91,-0.126,0.961,0.028
1.92,-0.162,1.047,-0.136
1.93,-0.432,0.31,-0.08
1.94,-0.16,1.375,0.233
1.95,-0.211,0.836,0.054
1.96,-0.19,0.986,-0.096
1.97,-0.399,0.55,-0.14
1.98,-0.057,1.101,0.172
1.99,-0.222,1.151,-0.108
2.0,-0.132,0.489,-0.158
2.01,-0.452,1.132,-0.048
2.02,-0.047,0.768,0.17
2.03,-0.392,1.346,0.025
2.04,-0.102,0.321,-0.128
2.05,-0.394,1.24,-0.053
2.06,-0.037,0.942,0.133
2.07,-0.294,0.914,-0.007
2.08,-0.362,0.737,-0.165
2.09,-0.215,0.904,-0.009
2.1,-0.221,1.226,0.17
2.11,-0.127,0.751,0.025
2.12,-0.462,0.924,-0.185
2.13,-0.155,1.187,0.05
2.14,-0.149,0.941,0.133
2.15,-0.172,0.951,-0.026
2.16,-0.284,0.507,-0.234
2.17,-0.36,0.634,-0.139
2.18,-0.201,1.381,0.165
2.19,-0.129,0.897,0.054
2.2,-0.154,1.075,-0.111
2.21,-0.445,0.226,-0.045
2.22,-0.218,1.439,0.236
2.23,-0.168,0.845,0.014
2.24,-0.22,0.934,-0.056
2.25,-0.294,0.577,-0.115
2.26,-0.109,1.039,0.207
2.27,-0.256,1.042,-0.136
2.28,-0.156,0.528,-0.133
2.29,-0.334,1.267,-0.066
2.3,0.013,0.794,0.178
2.31,-0.364,1.35,0.022
2.32,-0.291,0.26,-0.153
2.33,-0.334,1.469,0.016
2.34,-0.055,0.819,0.17
2.35,-0.314,1.019,0.027
2.36,-0.346,0.728,-0.178
2.37,-0.307,1.169,0.079
2.38,-0.165,1.146,0.141
2.39,-0.079,0.635,0.027
2.4,-0.532,0.984,-0.21
2.41,-0.116,1.305,0.091
2.42,-0.198,1.031,0.156
2.43,-0.059,0.751,-0.015
2.44,-0.528,0.642,-0.198
2.45,-0.155,1.932,0.062
2.46,-0.173,0.635,0.154
2.47,-0.114,0.998,0.037
2.48,-0.449,0.321,-0.161
2.49,-0.175,2.0,0.093
2.5,-0.118,0.645,0.086
2.51,-0.05,0.772,0.01
2.52,-0.46,0.629,-0.201
2.53,-0.055,1.669,0.141
2.54,-0.177,1.11,0.123
2.55,0.087,0.332,-0.015
2.56,-0.506,0.952,-0.214
2.57,-0.029,1.621,0.086
2.58,-0.103,1.211,0.048
2.59,-0.026,0.519,-0.022
2.6,-0.471,0.586,-0.148
2.61,-0.106,1.893,0.203
2.62,-0.056,0.723,0.126
2.63,-0.09,0.911,-0.037
2.64,-0.346,0.152,-0.174
2.65,-0.202,1.853,0.102
2.66,-0.029,0.901,0.062
2.67,-0.146,0.821,-0.073
2.68,-0.363,0.551,-0.191
2.69,-0.081,1.403,0.186
2.7,-0.218,1.324,0.108
2.71,0.028,0.506,-0.038
2.72,-0.576,0.933,-0.103
2.73,0.001,1.156,0.204
2.74,-0.32,1.287,0.067
2.75,0.01,0.679,-0.096
2.76,-0.473,0.637,-0.128
2.77,-0.039,1.29,0.125
2.78,-0.177,0.961,-0.018
2.79,-0.188,0.998,-0.103
2.8,-0.37,0.256,-0.117
2.81,-0.157,1.39,0.205
2.82,-0.175,0.847,0.04
2.83,-0.281,0.832,-0.109
2.84,-0.413,0.658,-0.119
2.85,-0.123,0.991,0.165
2.86,-0.245,1.256,-0.021
2.87,-0.165,0.345,-0.159
2.88,-0.352,1.188,-0.067
2.89,-0.041,0.759,0.129
2.9,-0.289,1.31,-0.004
2.91,-0.261,0.455,-0.193
2.92,-0.286,0.923,-0.031
2.93,-0.139,1.051,0.09
2.94,-0.136,0.816,-0.017
2.95,-0.383,0.888,-0.129
2.96,-0.198,0.883,0.036
2.97,-0.157,1.155,0.187
2.98,-0.173,0.725,0.039
2.99,-0.425,0.86,-0.183
3.0,-0.22,1.332,0.023
3.01,-0.164,0.84,0.149
3.02,-0.152,1.077,-0.019
3.03,-0.427,0.398,-0.222
3.04,-0.19,1.861,0.105
3.05,-0.12,0.593,0.145
3.06,-0.156,1.084,0.066
3.07,-0.483,0.372,-0.183
3.08,-0.168,2.0,0.081
3.09,-0.038,0.738,0.099
3.1,-0.025,0.712,-0.038
3.11,-0.375,0.681,-0.257
3.12,-0.122,1.66,0.079
3.13,-0.015,1.202,0.078
3.14,-0.037,0.277,-0.031
3.15,-0.461,1.029,-0.178
3.16,-0.149,1.601,0.168
3.17,-0.11,1.183,0.144
3.18,-0.083,0.51,-0.016
3.19,-0.422,0.594,-0.146
3.2,-0.182,1.834,0.148
3.21,-0.051,0.761,0.068
3.22,-0.108,0.92,-0.04
3.23,-0.364,0.19,-0.146
3.24,-0.17,1.927,0.152
3.25,-0.127,0.835,0.149
3.26,-0.078,0.779,-0.049
3.27,-0.436,0.538,-0.19
3.28,-0.021,1.513,0.18
3.29,-0.194,1.341,0.093
3.3,-0.013,0.409,-0.046
3.31,-0.472,0.942,-0.189
3.32,-0.02,1.251,0.198
3.33,-0.211,1.322,0.087
3.34,-0.033,0.613,-0.117
3.35,-0.501,0.593,-0.136
3.36,-0.073,1.51,0.143
3.37,-0.157,0.844,0.048
3.38,-0.138,1.066,-0.119
3.39,-0.407,0.227,-0.139
3.4,-0.205,1.449,0.142
3.41,-0.213,0.867,0.003
3.42,-0.224,0.838,-0.103
3.43,-0.512,0.613,-0.117
3.44,-0.103,1.075,0.224
3.45,-0.304,1.281,0.026
3.46,-0.135,0.448,-0.088
3.47,-0.57,0.947,-0.057
3.48,-0.062,0.877,0.262
3.49,-0.295,1.405,0.051
3.5,-0.227,0.501,-0.117
3.51,-0.422,0.73,-0.04
3.52,-0.103,1.138,0.21
3.53,-0.201,0.887,0.118
3.54,-0.396,0.892,-0.084
3.55,-0.345,0.512,-0.072
3.56,-0.198,1.283,0.139
3.57,-0.129,0.837,0.016
3.58,-0.364,0.762,-0.141
3.59,-0.268,1.038,-0.054
3.6,-0.086,0.94,0.121
3.61,-0.29,1.212,-0.007
3.62,-0.212,0.372,-0.187
3.63,-0.346,1.501,-0.079
3.64,-0.031,0.701,0.101
3.65,-0.218,1.288,-0.03
3.66,-0.271,0.454,-0.201
3.67,-0.24,1.406,-0.053
3.68,-0.086,0.999,0.148
3.69,-0.072,0.77,-0.0
3.7,-0.417,0.95,-0.23
3.71,-0.14,1.151,0.023
3.72,-0.206,1.157,0.122
3.73,-0.029,0.654,0.01
3.74,-0.403,0.918,-0.195
3.75,-0.135,1.48,0.01
3.76,-0.159,0.838,0.114
3.77,-0.128,0.923,-0.004
3.78,-0.368,0.493,-0.213
3.79,-0.226,2.0,0.076
3.8,-0.096,0.658,0.127
3.81,-0.207,0.94,0.044
3.82,-0.391,0.477,-0.185
3.83,-0.289,1.891,0.102
3.84,-0.182,0.794,0.146
3.85,-0.07,0.637,0.022
3.86,-0.504,0.865,-0.197
3.87,-0.079,1.524,0.13
3.88,-0.082,1.163,0.117
3.89,0.067,0.291,-0.086
3.9,-0.444,0.979,-0.194
3.91,-0.057,1.545,0.105
3.92,-0.098,1.211,0.113
3.93,-0.02,0.515,-0.026
3.94,-0.404,0.654,-0.157
3.95,-0.132,1.89,0.183
3.96,-0.053,0.782,0.082
3.97,-0.111,0.897,-0.033
3.98,-0.308,0.24,-0.225
3.99,-0.197,1.919,0.113
4.0,-0.046,0.848,0.105
4.01,-0.116,0.717,-0.058
4.02,-0.426,0.547,-0.177
4.03,-0.107,1.52,0.211
4.04,-0.186,1.194,0.075
4.05,0.013,0.441,-0.082
4.06,-0.537,0.966,-0.17
4.07,0.004,1.305,0.203
4.08,-0.306,1.35,0.101
4.09,0.005,0.603,-0.01
4.1,-0.457,0.591,-0.165
4.11,-0.114,1.52,0.182
4.12,-0.108,0.931,0.054
4.13,-0.133,1.028,-0.112
4.14,-0.366,0.144,-0.153
4.15,-0.182,1.57,0.182
4.16,-0.196,0.908,0.094
4.17,-0.144,0.922,-0.066
4.18,-0.497,0.439,-0.16
4.19,-0.022,1.172,0.23
4.2,-0.233,1.286,-0.029
4.21,0.016,0.456,-0.136
4.22,-0.585,0.976,-0.128
4.23,0.029,0.914,0.223
4.24,-0.386,1.358,-0.015
4.25,-0.068,0.499,-0.112
4.26,-0.547,0.697,-0.08
4.27,-0.072,1.115,0.176
4.28,-0.269,0.946,0.036
4.29,-0.299,0.891,-0.12
4.3,-0.412,0.344,-0.033
4.31,-0.164,1.315,0.21
4.32,-0.247,0.845,0.048
4.33,-0.235,0.825,-0.116
4.34,-0.474,0.836,-0.061
4.35,0.043,1.021,0.097
4.36,-0.262,1.218,-0.034
4.37,-0.199,0.377,-0.178
4.38,-0.385,1.364,-0.031
4.39,-0.021,0.731,0.114
4.4,-0.285,1.311,-0.013
4.41,-0.239,0.366,-0.163
4.42,-0.282,1.329,-0.049
4.43,-0.098,0.967,0.103
4.44,-0.08,0.81,-0.004
4.45,-0.391,0.94,-0.213
4.46,-0.201,1.019,-0.009
4.47,-0.2,1.15,0.144
4.48,-0.037,0.719,0.022
4.49,-0.447,0.907,-0.168
4.5,-0.199,1.395,-0.01
4.51,-0.12,0.944,0.164
4.52,-0.177,0.934,-0.007
4.53,-0.387,0.459,-0.186
4.54,-0.276,2.0,0.058
4.55,-0.05,0.666,0.166
4.56,-0.153,1.036,0.031
4.57,-0.337,0.501,-0.236
4.58,-0.3,1.845,0.066
4.59,-0.127,0.824,0.134
4.6,-0.076,0.691,0.047
4.61,-0.489,0.877,-0.156
4.62,-0.126,1.491,0.083
4.63,-0.26,1.18,0.169
4.64,0.028,0.402,0.049
4.65,-0.445,0.962,-0.189
4.66,-0.074,1.683,0.08
4.67,-0.138,0.971,0.141
4.68,0.022,0.512,-0.034
4.69,-0.447,0.717,-0.208
4.7,-0.05,1.912,0.1
4.71,-0.072,0.802,0.09
4.72,-0.063,0.816,-0.051
4.73,-0.325,0.324,-0.234
4.74,-0.202,1.922,0.029
4.75,-0.018,0.761,0.095
4.76,-0.098,0.801,-0.087
4.77,-0.378,0.483,-0.253
4.78,-0.097,1.598,0.175
4.79,-0.121,1.189,0.084
4.8,-0.022,0.4,-0.08
4.81,-0.474,0.97,-0.163
4.82,-0.068,1.369,0.21
4.83,-0.256,1.346,0.16
4.84,-0.024,0.496,-0.01
4.85,-0.528,0.696,-0.152
4.86,-0.117,1.611,0.173
4.87,-0.174,0.914,0.129
4.88,-0.202,0.951,-0.094
4.89,-0.35,0.223,-0.181
4.9,-0.261,1.711,0.159
4.91,-0.095,0.866,0.158
4.92,-0.187,0.915,-0.072
4.93,-0.482,0.455,-0.195
4.94,-0.124,1.282,0.208
4.95,-0.204,1.212,0.029
4.96,-0.023,0.494,-0.073
4.97,-0.527,0.92,-0.148
4.98,-0.104,1.029,0.27
4.99,-0.242,1.375,0.1
5.0,-0.135,0.496,-0.094
5.01,-0.433,0.704,-0.143
5.02,-0.09,1.246,0.172
5.03,-0.131,1.068,0.031
5.04,-0.185,0.92,-0.139
5.05,-0.433,0.294,-0.146
5.06,-0.186,1.423,0.168
5.07,-0.172,0.851,0.049
5.08,-0.238,0.936,-0.148
5.09,-0.444,0.468,-0.123
5.1,-0.094,1.16,0.196
5.11,-0.195,1.205,-0.03
5.12,-0.027,0.469,-0.129
5.13,-0.535,0.986,-0.133
5.14,-0.045,0.865,0.207
5.15,-0.359,1.402,0.104
5.16,-0.13,0.356,-0.105
5.17,-0.464,0.889,-0.037
5.18,-0.086,1.064,0.196
5.19,-0.254,0.964,0.049
5.2,-0.271,0.846,-0.112
5.21,-0.384,0.532,-0.011
5.22,-0.168,1.29,0.135
5.23,-0.173,0.824,0.031
5.24,-0.366,0.86,-0.105
5.25,-0.352,0.813,-0.031
5.26,-0.115,1.036,0.14
5.27,-0.221,1.157,-0.006
5.28,-0.187,0.389,-0.162
5.29,-0.333,1.498,-0.101
5.3,0.002,0.739,0.12
5.31,-0.389,1.285,0.102
5.32,-0.274,0.371,-0.168
5.33,-0.271,1.456,-0.061
5.34,-0.131,0.842,0.12
5.35,-0.09,0.892,0.04
5.36,-0.396,0.847,-0.199
5.37,-0.206,1.075,-0.031
5.38,-0.169,1.184,0.121
5.39,-0.103,0.659,0.03
5.4,-0.431,0.93,-0.167
5.41,-0.212,1.3,0.052
5.42,-0.205,0.955,0.148
5.43,-0.154,0.882,0.017
5.44,-0.392,0.587,-0.162
5.45,-0.295,1.952,0.046
5.46,-0.054,0.639,0.101
5.47,-0.205,1.069,0.049
5.48,-0.352,0.397,-0.216
5.49,-0.184,2.0,0.081
5.5,-0.08,0.64,0.132
5.51,-0.107,0.851,-0.019
5.52,-0.395,0.49,-0.197
5.53,-0.051,1.859,0.12
5.54,-0.083,1.011,0.032
5.55,0.044,0.32,-0.103
5.56,-0.433,1.001,-0.22
5.57,0.026,1.631,0.094
5.58,-0.199,1.154,0.12
5.59,0.107,0.425,-0.044
5.6,-0.451,0.792,-0.221
5.61,0.023,1.814,0.092
5.62,-0.091,0.771,-0.02
5.63,-0.012,0.848,-0.05
5.64,-0.393,0.29,-0.189
5.65,-0.177,1.996,0.162
5.66,-0.138,0.759,0.18
5.67,-0.194,0.752,-0.003
5.68,-0.442,0.41,-0.14
5.69,-0.17,1.662,0.263
5.7,-0.167,1.109,0.151
5.71,-0.008,0.452,-0.052
5.72,-0.528,0.899,-0.143
5.73,-0.026,1.365,0.198
5.74,-0.347,1.368,0.167
5.75,-0.022,0.43,-0.005
5.76,-0.441,0.798,-0.152
5.77,-0.085,1.477,0.187
5.78,-0.115,0.984,0.09
5.79,-0.096,0.942,-0.137
5.8,-0.344,0.262,-0.192
5.81,-0.18,1.712,0.165
5.82,-0.109,0.852,0.14
5.83,-0.183,0.927,-0.1
5.84,-0.373,0.329,-0.184
5.85,-0.123,1.383,0.161
5.86,-0.232,1.189,0.063
5.87,-0.027,0.585,-0.096
5.88,-0.465,0.872,-0.166
5.89,-0.017,1.005,0.229
5.9,-0.207,1.363,0.103
5.91,-0.122,0.472,-0.096
5.92,-0.44,0.823,-0.173
5.93,-0.073,1.157,0.182
5.94,-0.115,1.14,-0.02
5.95,-0.162,0.861,-0.096
5.96,-0.408,0.314,-0.163
5.97,-0.138,1.43,0.161
5.98,-0.112,0.807,0.004
5.99,-0.306,0.996,-0.106
6.0,-0.507,0.426,-0.082
6.01,-0.115,1.207,0.256
6.02,-0.238,1.164,0.013
6.03,-0.177,0.489,-0.09
6.04,-0.545,1.074,-0.071
6.05,0.027,0.883,0.212
6.06,-0.29,1.357,0.042
6.07,-0.27,0.376,-0.087
6.08,-0.435,1.032,-0.045
6.09,-0.072,0.999,0.159
6.1,-0.26,1.042,0.133
6.11,-0.368,0.741,-0.125
6.12,-0.361,0.543,-0.024
6.13,-0.221,1.247,0.17
6.14,-0.155,0.824,0.054
6.15,-0.34,0.816,-0.139
6.16,-0.322,0.921,-0.035
6.17,-0.002,1.156,0.091
6.18,-0.238,1.028,0.029
6.19,-0.239,0.62,-0.191
6.2,-0.323,1.396,-0.098
6.21,-0.012,0.729,0.114
6.22,-0.283,1.295,-0.038
6.23,-0.163,0.409,-0.246
6.24,-0.318,1.465,-0.129
6.25,0.05,0.848,0.08
6.26,-0.164,0.982,-0.025
6.27,-0.299,0.75,-0.223
6.28,-0.17,1.264,-0.063
6.29,-0.112,1.036,0.141
6.3,-0.033,0.533,0.003
6.31,-0.449,0.984,-0.199
6.32,-0.212,1.414,0.052
6.33,-0.237,1.039,0.126
6.34,-0.008,0.584,0.038
6.35,-0.514,0.897,-0.224
6.36,-0.129,1.732,0.018
6.37,-0.203,0.722,0.115
6.38,-0.04,0.914,0.012
6.39,-0.351,0.454,-0.233
6.4,-0.211,2.0,0.089
6.41,-0.088,0.644,0.145
6.42,-0.153,0.901,0.005
6.43,-0.398,0.457,-0.202
6.44,-0.176,1.905,0.118
6.45,-0.192,0.823,0.143
6.46,0.001,0.553,0.02
6.47,-0.566,0.954,-0.143
6.48,-0.06,1.584,0.152
6.49,-0.281,1.129,0.169
6.5,0.022,0.417,0.062
6.51,-0.525,0.947,-0.134
6.52,-0.121,1.822,0.119
6.53,-0.198,0.892,0.169
6.54,-0.009,0.758,-0.023
6.55,-0.412,0.358,-0.163
6.56,-0.032,2.0,0.132
6.57,-0.1,0.697,0.139
6.58,-0.122,0.823,-0.005
6.59,-0.392,0.33,-0.232
6.6,-0.052,1.976,0.081
6.61,-0.09,0.992,0.083
6.62,-0.026,0.407,-0.045
6.63,-0.452,0.891,-0.244
6.64,-0.026,1.592,0.197
6.65,-0.252,1.29,0.176
6.66,0.039,0.344,-0.013
6.67,-0.457,0.91,-0.256
6.68,0.005,1.638,0.117
6.69,-0.306,1.312,0.11
6.7,-0.026,0.603,-0.055
6.71,-0.453,0.591,-0.181
6.72,-0.178,1.584,0.183
6.73,-0.155,0.869,0.101
6.74,-0.196,1.049,-0.06
6.75,-0.437,0.151,-0.115
6.76,-0.177,1.654,0.19
6.77,-0.202,0.926,0.058
6.78,-0.054,0.901,-0.1
6.79,-0.45,0.503,-0.201
6.8,-0.016,1.286,0.222
6.81,-0.241,1.312,0.051
6.82,0.015,0.438,-0.133
6.83,-0.571,0.99,-0.149
6.84,-0.044,1.027,0.184
6.85,-0.282,1.267,0.054
6.86,-0.089,0.64,-0.063
6.87,-0.492,0.609,-0.125
6.88,-0.068,1.279,0.182
6.89,-0.106,0.954,0.03
6.9,-0.175,0.988,-0.112
6.91,-0.411,0.293,-0.152
6.92,-0.222,1.4,0.179
6.93,-0.174,0.882,0.023
6.94,-0.215,0.83,-0.104
6.95,-0.389,0.619,-0.169
6.96,-0.075,1.059,0.179
6.97,-0.284,1.198,-0.037
6.98,-0.143,0.404,-0.068
6.99,-0.51,1.009,-0.12
7.0,-0.031,0.909,0.187
7.01,-0.28,1.301,0.03
7.02,-0.211,0.441,-0.091
7.03,-0.418,0.802,-0.052
7.04,-0.118,1.146,0.17
7.05,-0.237,0.857,0.08
7.06,-0.285,0.865,-0.134
7.07,-0.391,0.411,-0.066
7.08,-0.17,1.361,0.158
7.09,-0.13,0.717,0.029
7.1,-0.42,1.018,-0.152
7.11,-0.316,0.755,-0.025
7.12,-0.12,1.167,0.148
7.13,-0.199,1.001,0.022
7.14,-0.276,0.562,-0.151
7.15,-0.249,1.417,-0.128
7.16,0.005,0.823,0.147
7.17,-0.277,1.259,0.002
7.18,-0.235,0.31,-0.186
7.19,-0.323,1.518,-0.099
7.2,0.023,0.791,0.081
7.21,-0.219,1.07,-0.002
7.22,-0.312,0.646,-0.251
7.23,-0.236,1.102,-0.04
7.24,-0.142,1.15,0.122
7.25,-0.085,0.665,0.016
7.26,-0.389,0.9,-0.205
7.27,-0.205,1.099,-0.03
7.28,-0.126,1.106,0.16
7.29,-0.182,0.827,0.03
7.3,-0.36,0.742,-0.205
7.31,-0.321,1.555,-0.01
7.32,-0.044,0.72,0.083
7.33,-0.245,1.181,-0.007
7.34,-0.241,0.357,-0.247
7.35,-0.345,1.788,-0.008
7.36,0.006,0.697,0.107
7.37,-0.092,1.061,0.012
7.38,-0.355,0.589,-0.227
7.39,-0.177,1.488,0.02
7.4,-0.145,1.088,0.16
7.41,0.064,0.535,0.024
7.42,-0.468,1.032,-0.234
7.43,-0.157,1.344,0.038
7.44,-0.261,1.047,0.162
7.45,-0.04,0.646,0.057
7.46,-0.405,0.839,-0.202
7.47,-0.187,1.763,0.014
7.48,-0.082,0.742,0.09
7.49,-0.088,0.942,0.013
7.5,-0.338,0.34,-0.229
7.51,-0.249,2.0,0.013
7.52,-0.037,0.689,0.119
7.53,-0.178,0.835,0.033
7.54,-0.397,0.566,-0.185
7.55,-0.219,1.752,0.098
7.56,-0.229,0.885,0.139
7.57,0.005,0.515,0.017
7.58,-0.548,1.023,-0.179
7.59,-0.126,1.525,0.089
7.6,-0.254,1.161,0.163
7.61,0.057,0.468,0.046
7.62,-0.393,0.781,-0.167
7.63,-0.099,1.902,0.086
7.64,-0.013,0.842,0.171
7.65,-0.135,0.821,0.024
7.66,-0.338,0.274,-0.175
7.67,-0.148,2.0,0.135
7.68,-0.102,0.601,0.137
7.69,-0.092,0.831,-0.005
7.7,-0.354,0.487,-0.242
7.71,-0.104,1.843,0.129
7.72,-0.092,1.098,0.091
7.73,0.005,0.265,-0.036
7.74,-0.466,0.991,-0.165
7.75,-0.092,1.555,0.109
7.76,-0.168,1.252,0.109
7.77,0.052,0.444,-0.045
7.78,-0.469,0.779,-0.234
7.79,-0.007,1.732,0.147
7.8,-0.117,0.873,0.099
7.81,-0.027,0.822,-0.049
7.82,-0.353,0.285,-0.183
7.83,-0.19,1.928,0.172
7.84,-0.143,0.764,0.116
7.85,-0.081,0.844,-0.028
7.86,-0.41,0.338,-0.195
7.87,-0.071,1.604,0.125
7.88,-0.151,1.102,0.052
7.89,-0.205,0.745,-0.031
7.9,-0.493,0.654,-0.15
7.91,-0.066,1.239,0.271
7.92,-0.327,1.37,0.107
7.93,0.014,0.409,-0.069
7.94,-0.552,1.001,-0.195
7.95,-0.026,1.12,0.203
7.96,-0.269,1.212,0.041
7.97,-0.053,0.74,-0.109
7.98,-0.464,0.487,-0.166
7.99,-0.096,1.411,0.165
8.0,-0.112,0.861,0.069
8.01,-0.236,0.992,-0.117
8.02,-0.402,0.217,-0.157
8.03,-0.092,1.419,0.155
8.04,-0.137,0.988,0.012
8.05,-0.095,0.778,-0.11
8.06,-0.449,0.693,-0.197
8.07,0.008,1.031,0.178
8.08,-0.22,1.329,-0.03
8.09,-0.129,0.398,-0.161
8.1,-0.49,0.932,-0.13
8.11,-0.005,0.947,0.144
8.12,-0.196,1.31,0.043
8.13,-0.125,0.599,-0.166
8.14,-0.438,0.592,-0.12
8.15,-0.122,1.224,0.19
8.16,-0.06,0.91,-0.042
8.17,-0.192,0.958,-0.14
8.18,-0.36,0.391,-0.116
8.19,-0.149,1.342,0.155
8.2,-0.172,0.865,-0.011
8.21,-0.376,0.739,-0.109
8.22,-0.476,0.73,-0.076
8.23,-0.114,1.0,0.21
8.24,-0.218,1.293,0.013
8.25,-0.186,0.285,-0.12
8.26,-0.433,1.305,-0.015
8.27,0.011,0.89,0.193
8.28,-0.343,1.215,0.105
8.29,-0.233,0.526,-0.109
8.3,-0.419,0.908,-0.005
8.31,-0.18,1.119,0.168
8.32,-0.075,0.811,0.051
8.33,-0.448,0.894,-0.134
8.34,-0.322,0.5,-0.03
8.35,-0.212,1.256,0.173
8.36,-0.147,0.862,0.042
8.37,-0.3,0.649,-0.101
8.38,-0.236,1.12,-0.093
8.39,-0.024,0.964,0.135
8.4,-0.236,1.161,0.037
8.41,-0.236,0.383,-0.157
8.42,-0.355,1.416,-0.055
8.43,-0.104,0.765,0.165
8.44,-0.26,1.271,0.079
8.45,-0.346,0.411,-0.14
8.46,-0.314,1.126,-0.004
8.47,-0.18,1.048,0.159
8.48,-0.125,0.823,0.067
8.49,-0.358,0.853,-0.148
8.5,-0.259,0.909,-0.011
8.51,-0.179,1.243,0.193
8.52,-0.154,0.753,0.075
8.53,-0.406,0.88,-0.174
8.54,-0.253,1.227,-0.067
8.55,-0.16,0.911,0.16
8.56,-0.257,1.164,0.009
8.57,-0.229,0.367,-0.185
8.58,-0.327,1.647,-0.048
8.59,-0.027,0.717,0.094
8.6,-0.233,1.233,0.02
8.61,-0.273,0.46,-0.237
8.62,-0.28,1.423,-0.017
8.63,-0.043,1.006,0.103
8.64,-0.138,0.741,0.024
8.65,-0.456,0.908,-0.186
8.66,-0.121,1.193,-0.026
8.67,-0.19,1.145,0.154
8.68,-0.122,0.653,0.089
8.69,-0.425,0.938,-0.212
8.7,-0.198,1.42,0.064
8.71,-0.245,0.974,0.111
8.72,-0.015,0.714,0.057
8.73,-0.491,0.703,-0.184
8.74,-0.213,1.917,0.031
8.75,-0.14,0.73,0.112
8.76,-0.132,0.947,0.07
8.77,-0.379,0.353,-0.203
8.78,-0.3,2.0,0.066
8.79,-0.163,0.64,0.13
8.8,-0.109,0.826,0.067
8.81,-0.407,0.717,-0.167
8.82,-0.252,1.673,0.097
8.83,-0.198,0.998,0.073
8.84,0.039,0.463,0.056
8.85,-0.537,1.058,-0.123
8.86,-0.097,1.521,0.161
8.87,-0.239,1.002,0.152
8.88,0.008,0.611,0.074
8.89,-0.457,0.752,-0.181
8.9,-0.117,1.826,0.164
8.91,-0.1,0.753,0.132
8.92,-0.106,0.845,0.003
8.93,-0.338,0.344,-0.169
8.94,-0.174,2.0,0.097
8.95,-0.079,0.592,0.138
8.96,-0.028,0.79,-0.019
8.97,-0.382,0.553,-0.242
8.98,-0.037,1.791,0.095
8.99,-0.157,1.077,0.099
9.0,0.022,0.303,-0.017
9.01,-0.508,1.012,-0.22
9.02,0.034,1.53,0.121
9.03,-0.167,1.232,0.099
9.04,-0.002,0.39,-0.005
9.05,-0.498,0.777,-0.163
9.06,-0.034,1.862,0.137
9.07,-0.204,0.779,0.139
9.08,-0.031,0.869,-0.033
9.09,-0.407,0.311,-0.21
9.1,-0.048,2.0,0.141
9.11,-0.085,0.778,0.113
9.12,-0.117,0.706,-0.032
9.13,-0.502,0.489,-0.197
9.14,-0.102,1.701,0.139
9.15,-0.207,1.071,0.096
9.16,-0.007,0.366,-0.036
9.17,-0.503,0.999,-0.197
9.18,-0.057,1.468,0.174
9.19,-0.271,1.248,0.129
9.2,0.011,0.506,0.014
9.21,-0.592,0.802,-0.173
9.22,-0.033,1.742,0.197
9.23,-0.247,0.943,0.162
9.24,-0.091,0.807,-0.013
9.25,-0.409,0.263,-0.164
9.26,-0.199,1.931,0.168
9.27,-0.11,0.745,0.122
9.28,-0.172,0.882,-0.027
9.29,-0.48,0.41,-0.154
9.3,-0.124,1.653,0.242
9.31,-0.208,1.198,0.137
9.32,-0.049,0.421,-0.075
9.33,-0.52,0.957,-0.126
9.34,-0.021,1.358,0.201
9.35,-0.279,1.339,0.12
9.36,0.024,0.491,-0.029
9.37,-0.531,0.779,-0.168
9.38,-0.087,1.488,0.168
9.39,-0.137,0.979,0.085
9.4,-0.139,0.885,-0.077
9.41,-0.425,0.261,-0.168
9.42,-0.139,1.742,0.151
9.43,-0.095,0.883,0.06
9.44,-0.218,0.942,-0.042
9.45,-0.461,0.319,-0.151
9.46,-0.197,1.536,0.222
9.47,-0.137,1.147,0.099
9.48,-0.093,0.522,-0.1
9.49,-0.445,0.868,-0.214
9.5,-0.127,1.068,0.161
9.51,-0.2,1.377,-0.02
9.52,-0.062,0.384,-0.124
9.53,-0.458,0.968,-0.197
9.54,-0.051,0.954,0.203
9.55,-0.227,1.236,0.048
9.56,-0.205,0.631,-0.174
9.57,-0.353,0.553,-0.14
9.58,-0.175,1.243,0.144
9.59,-0.102,0.855,-0.004
9.6,-0.177,0.981,-0.151
9.61,-0.479,0.282,-0.14
9.62,-0.093,1.315,0.198
9.63,-0.17,0.944,0.02
9.64,-0.285,0.715,-0.152
9.65,-0.461,0.733,-0.153
9.66,0.002,1.039,0.17
9.67,-0.312,1.271,0.021
9.68,-0.087,0.332,-0.102
9.69,-0.593,1.046,-0.083
9.7,0.012,0.857,0.144
9.71,-0.302,1.373,-0.035
9.72,-0.168,0.498,-0.124
9.73,-0.518,0.685,-0.122
9.74,0.01,1.182,0.137
9.75,-0.148,0.868,-0.007
9.76,-0.332,0.865,-0.123
9.77,-0.373,0.392,-0.078
9.78,-0.21,1.294,0.182
9.79,-0.203,0.844,0.028
9.8,-0.282,0.718,-0.12
9.81,-0.369,0.891,-0.099
9.82,-0.083,0.974,0.114
9.83,-0.259,1.234,0.008
9.84,-0.182,0.364,-0.168
9.85,-0.404,1.327,-0.046
9.86,-0.032,0.781,0.117
9.87,-0.252,1.249,0.074
9.88,-0.281,0.454,-0.195
9.89,-0.322,0.956,-0.082
9.9,-0.099,1.065,0.08
9.91,-0.136,0.831,-0.004
9.92,-0.294,0.81,-0.183
9.93,-0.314,0.795,-0.039
9.94,-0.179,1.279,0.127
9.95,-0.183,0.779,-0.008
9.96,-0.366,0.771,-0.129
9.97,-0.304,1.074,-0.104
9.98,-0.063,0.956,0.139
9.99,-0.28,1.223,-0.027
10.0,-0.214,0.353,-0.191
10.01,-0.337,1.455,-0.104
10.02,0.01,0.744,0.138
10.03,-0.267,1.285,0.056
10.04,-0.277,0.372,-0.207
10.05,-0.264,1.332,-0.086
10.06,-0.036,1.027,0.113
10.07,-0.089,0.763,0.007
10.08,-0.406,0.923,-0.205
10.09,-0.197,0.962,-0.073
10.1,-0.169,1.208,0.142
10.11,-0.08,0.704,-0.002
10.12,-0.369,0.959,-0.202
10.13,-0.184,1.273,-0.111
10.14,-0.087,0.908,0.112
10.15,-0.121,1.057,-0.045
10.16,-0.244,0.472,-0.223
10.17,-0.256,1.748,-0.112
10.18,0.004,0.683,0.126
10.19,-0.152,1.135,-0.008
10.2,-0.306,0.492,-0.195
10.21,-0.292,1.482,-0.052
10.22,-0.164,0.897,0.155
10.23,-0.13,0.805,0.059
10.24,-0.418,0.929,-0.172
10.25,-0.211,1.07,0.006
10.26,-0.184,1.158,0.191
10.27,-0.108,0.654,0.1
10.28,-0.4,0.961,-0.088
10.29,-0.316,1.348,0.028
10.3,-0.174,1.121,0.208
10.31,-0.059,0.664,0.001
10.32,-0.424,0.661,-0.205
10.33,-0.168,1.917,0.071
10.34,-0.148,0.698,0.113
10.35,-0.077,0.971,0.049
10.36,-0.343,0.427,-0.173
10.37,-0.322,2.0,0.134
10.38,-0.082,0.666,0.139
10.39,-0.138,0.883,0.049
10.4,-0.344,0.636,-0.173
10.41,-0.271,1.665,0.041
10.42,-0.119,1.092,0.172
10.43,0.008,0.423,0.029
10.44,-0.464,1.007,-0.175
10.45,-0.14,1.506,0.068
10.46,-0.26,1.035,0.153
10.47,0.061,0.582,0.051
10.48,-0.534,0.805,-0.147
10.49,-0.125,1.836,0.1
10.5,-0.22,0.768,0.182
10.51,-0.324,1.257,0.023
10.52,-0.252,0.553,-0.185
10.53,-0.313,1.632,-0.057
10.54,-0.032,0.699,0.178
10.55,-0.225,1.245,0.038
10.56,-0.348,0.269,-0.182
10.57,-0.262,1.673,-0.041
10.58,-0.073,0.884,0.117
10.59,-0.071,0.86,0.017
10.6,-0.43,0.847,-0.228
10.61,-0.239,1.106,-0.044
10.62,-0.225,1.154,0.074
10.63,-0.07,0.691,0.059
10.64,-0.392,0.951,-0.23
10.65,-0.177,1.2,0.018
10.66,-0.113,1.022,0.126
10.67,-0.08,0.825,0.016
10.68,-0.308,0.677,-0.15
10.69,-0.297,1.716,0.004
10.7,-0.066,0.699,0.133
10.71,-0.197,1.15,0.044
10.72,-0.329,0.376,-0.198
10.73,-0.313,1.744,0.049
10.74,-0.154,0.715,0.129
10.75,-0.196,0.951,0.04
10.76,-0.333,0.736,-0.193
10.77,-0.229,1.418,0.01
10.78,-0.08,1.172,0.161
10.79,-0.012,0.511,0.035
10.8,-0.497,1.065,-0.153
10.81,-0.261,1.36,0.06
10.82,-0.222,1.05,0.216
10.83,-0.135,0.69,0.063
10.84,-0.431,0.738,-0.149
10.85,-0.344,1.782,0.061
10.86,-0.088,0.642,0.101
10.87,-0.16,1.09,0.03
10.88,-0.289,0.339,-0.205
10.89,-0.289,1.985,0.007
10.9,-0.094,0.753,0.152
10.91,-0.079,0.814,0.031
10.92,-0.376,0.707,-0.196
10.93,-0.256,1.485,0.022
10.94,-0.195,0.972,0.17
10.95,-0.028,0.555,0.044
10.96,-0.473,1.012,-0.206
10.97,-0.259,1.343,0.064
10.98,-0.188,1.034,0.175
10.99,-0.066,0.714,0.066
11.0,-0.415,0.777,-0.187
11.01,-0.143,1.888,0.036
11.02,-0.006,0.799,0.092
11.03,0.05,0.691,-0.029
11.04,-0.374,0.423,-0.191
11.05,-0.115,2.0,0.124
11.06,-0.07,0.641,0.081
11.07,-0.075,0.913,-0.006
11.08,-0.372,0.369,-0.22
11.09,-0.119,2.0,0.138
11.1,-0.147,0.806,0.128
11.11,0.043,0.535,0.033
11.12,-0.399,0.876,-0.178
11.13,-0.052,1.539,0.11
11.14,-0.113,1.182,0.141
11.15,0.103,0.351,0.007
11.16,-0.432,1.003,-0.183
11.17,0.012,1.777,0.096
11.18,-0.124,1.023,0.141
11.19,0.059,0.662,-0.041
11.2,-0.362,0.494,-0.178
11.21,-0.073,2.0,0.097
11.22,0.032,0.669,0.127
11.23,-0.08,0.887,-0.023
11.24,-0.359,0.306,-0.191
11.25,-0.089,2.0,0.123
11.26,-0.131,0.755,0.115
11.27,0.004,0.584,-0.032
11.28,-0.437,0.831,-0.212
11.29,0.043,1.63,0.101
11.3,-0.235,1.234,0.123
11.31,0.147,0.291,-0.019
11.32,-0.466,0.988,-0.201
11.33,0.041,1.547,0.095
11.34,-0.135,1.05,0.119
11.35,0.018,0.661,-0.068
11.36,-0.459,0.471,-0.206
11.37,-0.1,2.0,0.145
11.38,-0.111,0.693,0.086
11.39,-0.129,0.861,-0.044
11.4,-0.395,0.257,-0.191
11.41,-0.226,1.787,0.124
11.42,-0.159,0.897,0.09
11.43,-0.065,0.626,-0.028
11.44,-0.417,0.705,-0.2
11.45,-0.005,1.53,0.186
11.46,-0.16,1.238,0.077
11.47,0.06,0.396,-0.094
11.48,-0.472,1.004,-0.222
11.49,-0.043,1.606,0.157
11.5,-0.221,1.133,0.131
11.51,-0.024,0.556,-0.029
11.52,-0.477,0.543,-0.178
11.53,-0.13,1.716,0.202
11.54,-0.208,0.757,0.138
11.55,-0.18,0.959,-0.049
11.56,-0.356,0.198,-0.158
11.57,-0.195,1.76,0.196
11.58,-0.087,0.977,0.085
11.59,-0.205,0.637,-0.106
11.6,-0.367,0.663,-0.179
11.61,-0.099,1.388,0.157
11.62,-0.245,1.31,0.122
11.63,0.036,0.374,-0.073
11.64,-0.563,0.964,-0.199
11.65,-0.01,1.259,0.199
11.66,-0.333,1.249,0.112
11.67,-0.093,0.67,-0.049
11.68,-0.519,0.527,-0.168
11.69,-0.126,1.567,0.175
11.7,-0.129,0.91,0.131
11.71,-0.088,1.01,-0.085
11.72,-0.493,0.181,-0.18
11.73,-0.119,1.6,0.166
11.74,-0.229,0.916,0.062
11.75,-0.112,0.817,-0.071
11.76,-0.472,0.564,-0.267
11.77,-0.004,1.206,0.218
11.78,-0.19,1.345,0.024
11.79,0.025,0.476,-0.093
11.8,-0.557,0.963,-0.171
11.81,-0.019,1.091,0.188
11.82,-0.203,1.259,0.044
11.83,-0.139,0.35,-0.094
11.84,-0.54,0.92,-0.15
11.85,-0.037,1.079,0.142
11.86,-0.245,1.082,0.047
11.87,-0.312,0.764,-0.081
11.88,-0.47,0.427,-0.084
11.89,-0.22,1.353,0.217
11.9,-0.13,0.755,0.145
11.91,-0.329,0.891,-0.092
11.92,-0.449,0.552,-0.083
11.93,-0.112,1.253,0.156
11.94,-0.302,1.002,0.047
11.95,-0.242,0.542,-0.112
11.96,-0.494,0.98,-0.075
11.97,-0.013,0.884,0.184
11.98,-0.276,1.369,0.044
11.99,-0.141,0.335,-0.128
12.0,-0.485,0.979,-0.081
12.01,-0.063,0.908,0.137
12.02,-0.204,1.145,0.052
12.03,-0.274,0.67,-0.114
12.04,-0.419,0.533,-0.024
12.05,-0.119,1.271,0.14
12.06,-0.14,0.832,0.035
12.07,-0.283,0.829,-0.133
12.08,-0.395,0.607,-0.073
12.09,-0.02,1.222,0.144
12.1,-0.193,1.042,-0.022
12.11,-0.185,0.515,-0.146
12.12,-0.39,1.092,-0.061
12.13,-0.009,0.84,0.155
12.14,-0.312,1.323,0.05
12.15,-0.085,0.333,-0.103
12.16,-0.445,1.266,-0.043
12.17,-0.059,0.857,0.125
12.18,-0.299,1.128,0.054
12.19,-0.249,0.602,-0.11
12.2,-0.312,0.887,-0.044
12.21,-0.079,1.213,0.14
12.22,-0.121,0.749,0.014
12.23,-0.406,0.971,-0.146
12.24,-0.302,0.741,-0.006
12.25,-0.202,1.149,0.179
12.26,-0.151,0.98,-0.001
12.27,-0.386,0.629,-0.14
12.28,-0.341,1.286,-0.068
12.29,-0.064,0.858,0.205
12.3,-0.287,1.304,0.038
12.31,-0.208,0.312,-0.129
12.32,-0.438,1.651,-0.019
12.33,-0.087,0.827,0.196
12.34,-0.224,1.035,0.014
12.35,-0.375,0.598,-0.127
12.36,-0.313,1.091,-0.098
12.37,-0.206,1.121,0.138
12.38,-0.048,0.755,0.016
12.39,-0.45,0.91,-0.145
12.4,-0.229,0.948,-0.029
12.41,-0.246,1.124,0.167
12.42,-0.188,0.864,0.021
12.43,-0.359,0.727,-0.171
12.44,-0.236,1.529,-0.022
12.45,-0.057,0.77,0.107
12.46,-0.23,1.125,0.035
12.47,-0.26,0.445,-0.223
12.48,-0.34,1.708,-0.015
12.49,-0.105,0.681,0.131
12.5,-0.286,1.073,0.055
12.51,-0.313,0.563,-0.157
12.52,-0.342,1.422,0.004
12.53,-0.098,1.055,0.138
12.54,-0.109,0.598,-0.005
12.55,-0.476,1.031,-0.2
12.56,-0.193,1.278,0.019
12.57,-0.187,1.087,0.155
12.58,-0.066,0.672,0.035
12.59,-0.481,0.828,-0.184
12.6,-0.191,1.656,0.027
12.61,-0.161,0.726,0.174
12.62,-0.112,0.969,0.002
12.63,-0.37,0.538,-0.196
12.64,-0.148,2.0,0.058
12.65,0.006,0.66,0.094
12.66,-0.104,0.923,0.011
12.67,-0.311,0.345,-0.223
12.68,-0.168,2.0,0.072
12.69,-0.085,0.734,0.096
12.7,-0.011,0.69,-0.025
12.71,-0.437,0.799,-0.24
12.72,-0.01,1.644,0.072
12.73,-0.183,1.153,0.073
12.74,0.114,0.341,0.003
12.75,-0.394,1.075,-0.179
12.76,-0.106,1.684,0.098
12.77,-0.161,0.984,0.164
12.78,0.068,0.679,-0.009
12.79,-0.479,0.517,-0.182
12.8,-0.05,1.978,0.1
12.81,-0.132,0.726,0.146
12.82,-0.088,0.866,0.003
12.83,-0.349,0.299,-0.23
12.84,-0.068,2.0,0.07
12.85,-0.012,0.85,0.073
12.86,-0.07,0.559,-0.024
12.87,-0.367,0.714,-0.231
12.88,-0.004,1.773,0.084
12.89,-0.123,1.246,0.097
12.9,-0.01,0.289,-0.0
12.91,-0.451,0.959,-0.175
12.92,-0.047,1.681,0.105
12.93,-0.163,1.025,0.13
12.94,0.012,0.63,-0.012
12.95,-0.414,0.54,-0.182
12.96,-0.114,1.989,0.129
12.97,0.023,0.747,0.014
12.98,-0.091,0.799,-0.024
12.99,-0.384,0.277,-0.218
13.0,-0.139,2.0,0.06
13.01,-0.062,0.787,0.088
13.02,-0.082,0.657,-0.033
13.03,-0.392,0.674,-0.238
13.04,-0.025,1.655,0.182
13.05,-0.221,1.219,0.102
13.06,0.052,0.331,-0.036
13.07,-0.508,1.014,-0.258
13.08,0.02,1.527,0.092
13.09,-0.163,1.209,0.03
13.1,-0.021,0.528,-0.032
13.11,-0.436,0.575,-0.197
13.12,-0.116,1.71,0.147
13.13,-0.062,0.802,0.073
13.14,-0.141,0.95,-0.07
13.15,-0.353,0.219,-0.2
13.16,-0.116,1.985,0.172
13.17,-0.094,0.901,0.126
13.18,-0.172,0.637,-0.024
13.19,-0.471,0.615,-0.167
13.2,-0.131,1.5,0.176
13.21,-0.252,1.23,0.134
13.22,0.051,0.427,-0.0
13.23,-0.551,0.966,-0.197
13.24,-0.008,1.323,0.183
13.25,-0.31,1.261,0.184
13.26,-0.004,0.636,-0.003
13.27,-0.544,0.593,-0.195
13.28,-0.063,1.723,0.239
13.29,-0.158,0.922,0.106
13.3,-0.104,0.958,-0.026
13.31,-0.467,0.217,-0.136
13.32,-0.14,1.84,0.206
13.33,-0.13,0.889,0.127
13.34,-0.125,0.8,-0.044
13.35,-0.45,0.542,-0.2
13.36,-0.09,1.428,0.183
13.37,-0.208,1.259,0.12
13.38,-0.036,0.455,-0.053
13.39,-0.553,0.956,-0.175
13.4,-0.013,1.243,0.154
13.41,-0.365,1.347,0.183
13.42,0.012,0.568,-0.018
13.43,-0.572,0.68,-0.164
13.44,0.003,1.137,0.141
13.45,-0.271,1.046,0.092
13.46,-0.077,0.833,-0.148
13.47,-0.486,0.415,-0.114
13.48,-0.203,1.474,0.199
13.49,-0.179,0.839,0.108
13.5,-0.216,0.885,-0.062
13.51,-0.484,0.284,-0.183
13.52,-0.079,1.417,0.198
13.53,-0.198,1.01,0.016
13.54,-0.1,0.686,-0.121
13.55,-0.447,0.761,-0.192
13.56,-0.046,1.057,0.203
13.57,-0.271,1.371,0.123
13.58,0.03,0.439,-0.136
13.59,-0.556,0.994,-0.139
13.6,0.003,1.06,0.2
13.61,-0.301,1.255,0.11
13.62,-0.07,0.738,-0.089
13.63,-0.451,0.454,-0.173
13.64,-0.111,1.384,0.182
13.65,-0.115,0.863,0.036
13.66,-0.246,0.989,-0.131
13.67,-0.404,0.243,-0.185
13.68,-0.156,1.368,0.162
13.69,-0.138,1.02,0.023
13.7,-0.125,0.667,-0.18
13.71,-0.45,0.808,-0.19
13.72,-0.054,0.939,0.185
13.73,-0.222,1.354,0.086
13.74,-0.11,0.346,-0.113
13.75,-0.539,0.984,-0.13
13.76,0.013,0.965,0.17
13.77,-0.255,1.195,0.027
13.78,-0.125,0.61,-0.135
13.79,-0.477,0.536,-0.109
13.8,-0.181,1.3,0.2
13.81,-0.115,0.881,0.011
13.82,-0.248,0.932,-0.116
13.83,-0.429,0.304,-0.129
13.84,-0.126,1.316,0.184
13.85,-0.182,0.903,0.026
13.86,-0.254,0.697,-0.091
13.87,-0.452,0.761,-0.133
13.88,-0.105,0.942,0.22
13.89,-0.233,1.319,-0.009
13.9,-0.144,0.275,-0.104
13.91,-0.508,1.052,-0.113
13.92,-0.007,0.923,0.185
13.93,-0.282,1.193,0.052
13.94,-0.165,0.592,-0.104
13.95,-0.476,0.622,-0.101
13.96,-0.11,1.248,0.175
13.97,-0.158,0.827,-0.009
13.98,-0.294,0.935,-0.14
13.99,-0.424,0.335,-0.094
14.0,-0.108,1.324,0.197
14.01,-0.168,0.91,0.03
14.02,-0.328,0.653,-0.13
14.03,-0.417,0.792,-0.132
14.04,-0.057,0.997,0.192
14.05,-0.237,1.309,0.034
14.06,-0.206,0.277,-0.128
14.07,-0.389,1.125,-0.132
14.08,-0.051,0.874,0.153
14.09,-0.262,1.272,0.024
14.1,-0.168,0.53,-0.156
14.11,-0.446,0.705,-0.087
14.12,-0.037,1.18,0.13
14.13,-0.106,0.839,0.001
14.14,-0.291,0.883,-0.099
14.15,-0.377,0.465,-0.09
14.16,-0.151,1.302,0.19
14.17,-0.206,0.847,0.035
14.18,-0.301,0.721,-0.125
14.19,-0.33,0.91,-0.075
14.2,-0.096,0.975,0.171
14.21,-0.288,1.24,0.064
14.22,-0.234,0.318,-0.161
14.23,-0.368,1.201,-0.067
14.24,-0.054,0.772,0.141
14.25,-0.263,1.296,0.07
14.26,-0.267,0.359,-0.178
14.27,-0.353,1.396,-0.08
14.28,-0.088,0.868,0.182
14.29,-0.189,1.033,0.03
14.3,-0.336,0.67,-0.153
14.31,-0.253,1.085,-0.091
14.32,-0.084,1.266,0.159
14.33,-0.086,0.655,0.046
14.34,-0.426,0.954,-0.171
14.35,-0.253,1.012,-0.105
14.36,-0.111,1.109,0.114
14.37,-0.2,0.905,-0.019
14.38,-0.223,0.693,-0.226
14.39,-0.342,1.531,-0.076
14.4,-0.022,0.745,0.227
14.41,-0.273,1.237,0.087
14.42,-0.284,0.351,-0.115
14.43,-0.391,1.587,-0.028
14.44,-0.032,0.806,0.172
14.45,-0.164,1.026,0.053
14.46,-0.295,0.755,-0.238
14.47,-0.346,1.033,-0.106
14.48,-0.168,1.167,0.171
14.49,-0.154,0.685,0.08
14.5,-0.356,0.917,-0.202
14.51,-0.195,1.135,-0.123
14.52,-0.038,1.162,0.126
14.53,-0.025,0.782,-0.018
14.54,-0.331,0.738,-0.15
14.55,-0.276,1.531,-0.066
14.56,-0.104,0.779,0.165
14.57,-0.223,1.167,0.032
14.58,-0.204,0.395,-0.174
14.59,-0.402,1.586,-0.051
14.6,-0.066,0.759,0.111
14.61,-0.225,1.122,0.03
14.62,-0.239,0.596,-0.151
14.63,-0.27,1.184,-0.057
14.64,-0.139,1.146,0.169
14.65,-0.109,0.649,0.017
14.66,-0.377,1.025,-0.152
14.67,-0.289,1.065,-0.026
14.68,-0.171,1.096,0.16
14.69,-0.158,0.817,0.025
14.7,-0.321,0.77,-0.182
14.71,-0.356,1.521,-0.038
14.72,-0.001,0.764,0.155
14.73,-0.178,1.167,0.019
14.74,-0.275,0.376,-0.154
14.75,-0.328,1.766,-0.027
14.76,-0.003,0.747,0.161
14.77,-0.158,1.021,0.033
14.78,-0.293,0.674,-0.157
14.79,-0.305,1.379,0.029
14.8,-0.152,1.067,0.195
14.81,-0.11,0.607,0.085
14.82,-0.444,1.028,-0.176
14.83,-0.311,1.02,0.046
14.84,-0.246,1.053,0.153
14.85,-0.097,0.834,0.08
14.86,-0.368,0.745,-0.203
14.87,-0.302,1.456,0.035
14.88,-0.081,0.76,0.11
14.89,-0.17,1.119,-0.017
14.9,-0.203,0.411,-0.193
14.91,-0.382,1.884,0.017
14.92,-0.026,0.687,0.171
14.93,-0.229,0.99,0.054
14.94,-0.324,0.55,-0.175
14.95,-0.333,1.572,0.044
14.96,-0.167,1.034,0.149
14.97,-0.075,0.557,-0.0
14.98,-0.416,1.04,-0.168
14.99,-0.266,1.217,0.069
15.0,-0.225,1.042,0.172
15.01,-0.102,0.694,0.035
15.02,-0.482,0.833,-0.176
15.03,-0.283,1.585,0.067
15.04,-0.12,1.043,0.154
15.05,-0.087,0.676,0.047
15.06,-0.356,0.618,-0.096
15.07,-0.305,2.0,0.048
15.08,-0.06,0.579,0.15
15.09,-0.101,1.026,0.031
15.1,-0.338,0.353,-0.203
15.11,-0.28,1.994,0.036
15.12,-0.074,0.796,0.099
15.13,-0.06,0.696,0.041
15.14,-0.345,0.821,-0.245
15.15,-0.23,1.503,0.064
15.16,-0.166,1.133,0.159
15.17,0.058,0.396,0.016
15.18,-0.46,0.963,-0.236
15.19,-0.051,1.582,0.052
15.2,-0.203,0.967,0.076
15.21,0.095,0.7,0.029
15.22,-0.419,0.636,-0.248
15.23,-0.095,1.907,0.053
15.24,-0.032,0.766,0.099
15.25,-0.181,0.855,0.026
15.26,-0.286,0.323,-0.182
15.27,-0.26,2.0,0.106
15.28,-0.085,0.707,0.113
15.29,-0.049,0.73,0.064
15.3,-0.383,0.769,-0.229
15.31,-0.104,1.59,0.077
15.32,-0.289,1.064,0.161
15.33,0.062,0.379,0.021
15.34,-0.475,1.064,-0.185
15.35,-0.073,1.543,0.053
15.36,-0.192,1.08,0.171
15.37,0.082,0.585,0.018
15.38,-0.464,0.647,-0.169
15.39,-0.075,2.0,0.122
15.4,-0.214,0.657,0.153
15.41,0.0,0.97,0.028
15.42,-0.404,0.333,-0.213
15.43,-0.171,2.0,0.078
15.44,-0.162,0.696,0.116
15.45,-0.026,0.726,0.032
15.46,-0.369,0.704,-0.216
15.47,-0.165,1.633,0.108
15.48,-0.171,1.136,0.174
15.49,0.076,0.399,0.043
15.5,-0.453,0.973,-0.222
15.51,0.01,1.531,0.064
15.52,-0.274,0.981,0.074
15.53,0.095,0.606,-0.02
15.54,-0.427,0.788,-0.212
15.55,-0.143,1.875,0.043
15.56,-0.058,0.682,0.071
15.57,0.0,0.923,0.011
15.58,-0.289,0.4,-0.224
15.59,-0.164,2.0,0.1
15.6,-0.079,0.738,0.095
15.61,-0.093,0.771,0.025
15.62,-0.342,0.644,-0.215
15.63,-0.136,1.7,0.083
15.64,-0.271,0.946,0.144
15.65,0.038,0.44,0.039
15.66,-0.508,1.024,-0.148
15.67,-0.078,1.506,0.044
15.68,-0.276,1.107,0.176
15.69,0.06,0.496,0.054
15.7,-0.535,0.787,-0.154
15.71,-0.093,1.947,0.081
15.72,-0.219,0.643,0.135
15.73,-0.026,0.984,0.032
15.74,-0.327,0.386,-0.264
15.75,-0.206,2.0,0.035
15.76,-0.093,0.678,0.093
15.77,-0.1,0.859,0.073
15.78,-0.415,0.522,-0.191
15.79,-0.183,1.746,0.128
15.8,-0.153,1.055,0.169
15.81,0.004,0.427,0.057
15.82,-0.496,1.024,-0.159
15.83,-0.155,1.488,0.097
15.84,-0.279,1.023,0.148
15.85,0.12,0.395,0.009
15.86,-0.45,1.031,-0.238
15.87,-0.045,1.604,0.103
15.88,-0.18,1.004,0.126
15.89,0.092,0.667,-0.002
15.9,-0.381,0.436,-0.235
15.91,-0.031,1.99,0.118
15.92,-0.013,0.74,0.075
15.93,-0.117,0.859,-0.007
15.94,-0.301,0.334,-0.307
15.95,-0.079,2.0,0.028
15.96,-0.064,0.743,0.011
15.97,-0.049,0.579,0.02
15.98,-0.362,0.809,-0.26
15.99,-0.065,1.622,0.101
16.0,-0.107,1.155,0.106
16.01,0.102,0.336,-0.013
16.02,-0.423,0.99,-0.247
16.03,-0.011,1.618,0.088
16.04,-0.176,1.05,0.138
16.05,0.011,0.606,-0.026
16.06,-0.298,0.606,-0.26
16.07,-0.069,2.0,0.057
16.08,-0.001,0.709,0.141
16.09,-0.103,0.889,-0.008
16.1,-0.349,0.298,-0.249
16.11,-0.063,2.0,0.087
16.12,-0.033,0.801,0.094
16.13,-0.065,0.608,-0.009
16.14,-0.405,0.75,-0.232
16.15,-0.084,1.711,0.106
16.16,-0.075,1.191,0.124
16.17,0.05,0.273,-0.004
16.18,-0.429,1.058,-0.206
16.19,-0.033,1.574,0.098
16.2,-0.137,1.128,0.127
16.21,0.021,0.585,-0.014
16.22,-0.397,0.586,-0.178
16.23,-0.095,2.0,0.118
16.24,-0.058,0.774,0.155
16.25,-0.122,0.871,-0.02
16.26,-0.394,0.255,-0.207
16.27,-0.048,2.0,0.109
16.28,-0.083,0.768,0.087
16.29,-0.037,0.612,-0.023
16.3,-0.342,0.654,-0.27
16.31,-0.035,1.717,0.14
16.32,-0.149,1.138,0.146
16.33,0.053,0.294,-0.028
16.34,-0.518,1.03,-0.182
16.35,0.054,1.645,0.147
16.36,-0.278,1.151,0.098
16.37,0.07,0.544,-0.023
16.38,-0.439,0.615,-0.178
16.39,0.019,2.0,0.124
16.4,-0.092,0.742,0.108
16.41,-0.024,0.833,-0.054
16.42,-0.449,0.237,-0.205
16.43,-0.059,2.0,0.144
16.44,-0.098,0.803,0.106
16.45,-0.111,0.625,-0.034
16.46,-0.387,0.577,-0.27
16.47,-0.077,1.708,0.127
16.48,-0.081,1.178,0.091
16.49,0.019,0.329,0.009
16.5,-0.478,0.977,-0.245
16.51,-0.02,1.399,0.212
16.52,-0.099,1.305,0.072
16.53,-0.025,0.492,-0.065
16.54,-0.37,0.673,-0.2
16.55,-0.141,1.692,0.155
16.56,-0.035,0.847,0.036
16.57,-0.114,0.961,-0.101
16.58,-0.432,0.194,-0.176
16.59,-0.201,1.789,0.19
16.6,-0.119,0.903,0.103
16.61,-0.1,0.812,0.015
16.62,-0.471,0.506,-0.152
16.63,-0.156,1.639,0.27
16.64,-0.256,1.228,0.125
16.65,-0.053,0.627,-0.083
16.66,-0.383,0.818,-0.21
16.67,-0.025,1.194,0.196
16.68,-0.24,1.412,0.068
16.69,0.118,0.429,-0.071
16.7,-0.584,0.866,-0.137
16.71,-0.019,1.247,0.214
16.72,-0.272,1.136,0.132
16.73,-0.185,0.818,-0.037
16.74,-0.441,0.348,-0.16
16.75,-0.217,1.649,0.208
16.76,-0.05,0.902,0.082
16.77,-0.212,0.969,-0.048
16.78,-0.405,0.262,-0.14
16.79,-0.175,1.476,0.201
16.8,-0.193,1.01,0.013
16.81,-0.017,0.729,-0.081
16.82,-0.468,0.758,-0.178
16.83,-0.052,0.997,0.178
16.84,-0.245,1.353,0.034
16.85,-0.047,0.449,-0.103
16.86,-0.465,0.915,-0.155
16.87,0.011,1.122,0.17
16.88,-0.254,1.241,0.085
16.89,0.038,0.787,-0.145
16.9,-0.471,0.458,-0.173
16.91,-0.088,1.435,0.167
16.92,-0.106,0.852,0.008
16.93,-0.206,0.969,-0.143
16.94,-0.383,0.271,-0.178
16.95,-0.157,1.351,0.176
16.96,-0.136,0.993,0.029
16.97,-0.184,0.735,-0.102
16.98,-0.445,0.752,-0.189
16.99,-0.082,0.929,0.234
17.0,-0.251,1.38,0.065
17.01,-0.039,0.414,-0.103
17.02,-0.561,0.991,-0.118
17.03,-0.04,0.95,0.189
17.04,-0.24,1.221,-0.0
17.05,-0.195,0.632,-0.123
17.06,-0.488,0.566,-0.075
17.07,-0.184,1.273,0.238
17.08,-0.182,0.841,0.058
17.09,-0.403,0.978,-0.095
17.1,-0.44,0.284,-0.083
17.11,-0.116,1.343,0.176
17.12,-0.209,0.954,0.035
17.13,-0.261,0.727,-0.104
17.14,-0.505,0.753,-0.096
17.15,-0.034,0.947,0.226
17.16,-0.3,1.364,0.056
17.17,-0.157,0.294,-0.094
17.18,-0.561,1.078,-0.041
17.19,-0.045,0.874,0.211
17.2,-0.33,1.253,0.047
17.21,-0.25,0.571,-0.107
17.22,-0.458,0.671,-0.043
17.23,-0.071,1.192,0.162
17.24,-0.188,0.829,0.051
17.25,-0.297,0.874,-0.115
17.26,-0.368,0.59,-0.085
17.27,-0.13,1.269,0.169
17.28,-0.261,0.847,0.08
17.29,-0.292,0.735,-0.123
17.3,-0.326,0.999,-0.072
17.31,-0.033,0.882,0.151
17.32,-0.259,1.279,0.033
17.33,-0.223,0.311,-0.141
17.34,-0.374,1.36,-0.047
17.35,0.026,0.81,0.099
17.36,-0.283,1.228,0.023
17.37,-0.173,0.521,-0.208
17.38,-0.312,1.104,-0.111
17.39,-0.021,1.104,0.099
17.4,-0.158,0.749,-0.012
17.41,-0.365,1.031,-0.202
17.42,-0.288,1.036,-0.108
17.43,-0.093,1.238,0.139
17.44,-0.102,0.753,0.01
17.45,-0.497,1.028,-0.164
17.46,-0.236,1.361,0.01
17.47,-0.235,0.934,0.132
17.48,-0.07,0.853,-0.021
17.49,-0.323,0.656,-0.173
17.5,-0.38,1.852,0.044
17.51,-0.029,0.722,0.179
17.52,-0.172,1.082,0.121
17.53,-0.309,0.465,-0.222
17.54,-0.339,1.89,0.04
17.55,-0.091,0.801,0.143
17.56,-0.107,0.75,0.033
17.57,-0.409,0.784,-0.223
17.58,-0.234,1.407,0.027
17.59,-0.235,1.047,0.146
17.6,0.005,0.559,0.038
17.61,-0.505,1.051,-0.201
17.62,-0.212,1.429,0.062
17.63,-0.164,1.041,0.15
17.64,-0.057,0.695,0.014
17.65,-0.374,0.667,-0.191
17.66,-0.242,1.928,0.036
17.67,-0.074,0.633,0.172
17.68,-0.102,1.034,0.059
17.69,-0.352,0.356,-0.266
17.7,-0.252,1.993,0.086
17.71,-0.082,0.74,0.074
17.72,-0.113,0.759,0.038
17.73,-0.362,0.744,-0.237
17.74,-0.213,1.488,0.091
17.75,-0.187,1.178,0.252
17.76,-0.034,0.396,0.049
17.77,-0.491,1.045,-0.144
17.78,-0.218,1.538,0.105
17.79,-0.178,1.044,0.134
17.8,-0.032,0.648,0.082
17.81,-0.45,0.725,-0.182
17.82,-0.139,1.933,0.097
17.83,-0.042,0.772,0.126
17.84,-0.115,0.874,0.06
17.85,-0.361,0.365,-0.146
17.86,-0.203,2.0,0.094
17.87,-0.114,0.696,0.122
17.88,-0.077,0.771,0.022
17.89,-0.422,0.689,-0.227
17.9,-0.096,1.699,0.121
17.91,-0.261,1.026,0.188
17.92,0.067,0.404,0.016
17.93,-0.503,1.039,-0.196
17.94,-0.066,1.607,0.119
17.95,-0.215,1.138,0.187
17.96,-0.013,0.517,0.018
17.97,-0.498,0.714,-0.141
17.98,-0.078,2.0,0.092
17.99,-0.106,0.741,0.148
18.0,-0.1,0.874,0.001
18.01,-0.406,0.283,-0.218
18.02,-0.06,2.0,0.1
18.03,-0.042,0.725,0.106
18.04,-0.047,0.697,-0.015
18.05,-0.416,0.605,-0.223
18.06,-0.082,1.769,0.09
18.07,-0.163,1.093,0.116
18.08,0.047,0.355,-0.037
18.09,-0.5,1.043,-0.207
18.1,0.023,1.591,0.089
18.11,-0.232,1.242,0.089
18.12,0.037,0.428,-0.006
18.13,-0.527,0.734,-0.177
18.14,0.042,1.904,0.072
18.15,-0.158,0.78,0.062
18.16,-0.09,0.824,-0.063
18.17,-0.454,0.271,-0.157
18.18,-0.17,2.0,0.159
18.19,-0.194,0.75,0.067
18.2,-0.076,0.759,-0.012
18.21,-0.433,0.512,-0.18
18.22,-0.059,1.661,0.18
18.23,-0.212,1.143,0.089
18.24,-0.024,0.398,-0.021
18.25,-0.471,0.701,-0.15
18.26,0.039,1.394,0.144
18.27,-0.283,1.455,0.149
18.28,0.053,0.355,-0.104
18.29,-0.427,0.909,-0.249
18.3,0.04,1.303,0.072
18.31,-0.243,1.162,0.079
18.32,-0.054,0.779,-0.138
18.33,-0.378,0.348,-0.185
18.34,-0.115,1.567,0.127
18.35,-0.069,0.835,0.007
18.36,-0.173,1.027,-0.142
18.37,-0.385,0.176,-0.234
18.38,-0.138,1.474,0.173
18.39,-0.114,1.06,0.024
18.4,-0.083,0.69,-0.107
18.41,-0.49,0.725,-0.216
18.42,0.057,1.092,0.174
18.43,-0.233,1.372,0.008
18.44,-0.065,0.397,-0.132
18.45,-0.466,0.909,-0.171
18.46,0.012,1.081,0.147
18.47,-0.238,1.256,0.026
18.48,-0.113,0.683,-0.114
18.49,-0.479,0.475,-0.13
18.5,-0.123,1.335,0.196
18.51,-0.13,0.897,0.005
18.52,-0.212,0.963,-0.156
18.53,-0.445,0.27,-0.108
18.54,-0.152,1.299,0.218
18.55,-0.2,0.925,0.031
18.56,-0.293,0.647,-0.087
18.57,-0.49,0.75,-0.113
18.58,-0.105,0.952,0.217
18.59,-0.25,1.319,0.006
18.6,-0.162,0.281,-0.091
18.61,-0.469,1.115,-0.088
18.62,-0.018,0.899,0.131
18.63,-0.25,1.223,0.018
18.64,-0.298,0.596,-0.109
18.65,-0.461,0.628,-0.026
18.66,-0.127,1.266,0.154
18.67,-0.165,0.732,0.085
18.68,-0.337,0.961,-0.114
18.69,-0.449,0.434,-0.034
18.7,-0.19,1.271,0.206
18.71,-0.246,0.917,0.036
18.72,-0.259,0.727,-0.075
18.73,-0.394,0.959,-0.087
18.74,-0.054,0.914,0.207
18.75,-0.241,1.32,0.035
18.76,-0.259,0.254,-0.157
18.77,-0.33,1.298,-0.095
18.78,0.032,0.851,0.116
18.79,-0.27,1.214,0.065
18.8,-0.3,0.499,-0.131
18.81,-0.317,0.992,-0.015
18.82,-0.148,1.093,0.158
18.83,-0.162,0.784,0.038
18.84,-0.354,0.926,-0.122
18.85,-0.096,1.589,0.184
18.86,-0.188,0.984,0.079
18.87,-0.087,0.958,-0.075
18.88,-0.347,0.21,-0.188
18.89,-0.177,1.488,0.154
18.9,-0.092,0.822,0.056
18.91,-0.159,1.07,-0.098
18.92,-0.435,0.227,-0.185
18.93,-0.113,1.384,0.205
18.94,-0.218,0.992,0.005
18.95,-0.099,0.684,-0.159
18.96,-0.432,0.748,-0.164
18.97,0.004,0.972,0.189
18.98,-0.292,1.362,0.006
18.99,0.007,0.419,-0.099
19.0,-0.552,0.963,-0.127
19.01,0.1,1.013,0.158
19.02,-0.297,1.16,0.029
19.03,-0.161,0.692,-0.124
19.04,-0.483,0.486,-0.134
19.05,-0.107,1.297,0.182
19.06,-0.158,0.853,-0.019
19.07,-0.311,0.908,-0.121
19.08,-0.417,0.368,-0.118
19.09,-0.072,1.303,0.164
19.1,-0.281,0.92,0.026
19.11,-0.207,0.682,-0.094
19.12,-0.533,0.896,-0.076
19.13,-0.022,0.927,0.216
19.14,-0.343,1.321,0.039
19.15,-0.189,0.305,-0.129
19.16,-0.499,1.125,-0.051
19.17,-0.034,0.85,0.139
19.18,-0.278,1.238,0.05
19.19,-0.23,0.518,-0.114
19.2,-0.375,0.845,-0.015
19.21,-0.079,1.206,0.152
19.22,-0.187,0.75,0.018
19.23,-0.29,0.99,-0.134
19.24,-0.299,0.715,-0.068
19.25,-0.143,1.217,0.133
19.26,-0.134,0.911,0.033
19.27,-0.386,0.728,-0.169
19.28,-0.25,1.114,-0.079
19.29,-0.088,0.832,0.098
19.3,-0.255,1.297,0.067
19.31,-0.213,0.29,-0.18
19.32,-0.288,1.565,-0.082
19.33,0.018,0.741,0.062
19.34,-0.226,1.146,-0.013
19.35,-0.309,0.593,-0.228
19.36,-0.291,1.241,-0.013
19.37,-0.169,1.075,0.136
19.38,-0.133,0.68,0.034
19.39,-0.417,0.993,-0.194
19.4,-0.276,1.07,0.006
19.41,-0.198,1.134,0.127
19.42,-0.118,0.727,0.033
19.43,-0.425,0.841,-0.151
19.44,-0.271,1.536,0.029
19.45,-0.141,0.745,0.169
19.46,-0.194,1.099,0.029
19.47,-0.37,0.359,-0.179
19.48,-0.323,2.0,0.078
19.49,-0.046,0.692,0.155
19.5,-0.196,0.969,0.042
19.51,-0.404,0.554,-0.204
19.52,-0.26,1.701,0.095
19.53,-0.135,0.998,0.105
19.54,-0.033,0.547,0.056
19.55,-0.481,0.984,-0.177
19.56,-0.134,1.435,0.098
19.57,-0.203,1.153,0.17
19.58,-0.016,0.506,0.054
19.59,-0.48,0.888,-0.17
19.6,-0.135,1.852,0.049
19.61,-0.153,0.792,0.105
19.62,-0.0,0.855,0.011
19.63,-0.337,0.413,-0.158
19.64,-0.201,2.0,0.093
19.65,-0.081,0.651,0.119
19.66,-0.114,0.842,-0.001
19.67,-0.346,0.426,-0.196
19.68,-0.051,1.936,0.101
19.69,-0.124,0.985,0.067
19.7,-0.069,0.603,-0.045
19.71,-0.432,0.683,-0.195
19.72,0.012,1.699,0.207
19.73,-0.299,1.277,0.151
19.74,0.001,0.272,-0.014
19.75,-0.515,1.015,-0.221
19.76,-0.031,1.507,0.185
19.77,-0.289,1.218,0.164
19.78,-0.082,0.589,0.005
19.79,-0.458,0.536,-0.092
19.8,-0.134,1.794,0.181
19.81,-0.088,0.838,0.065
19.82,-0.12,0.996,-0.104
19.83,-0.389,0.174,-0.187
19.84,-0.09,1.722,0.151
19.85,-0.128,0.98,0.078
19.86,-0.102,0.754,-0.106
19.87,-0.372,0.559,-0.219
19.88,-0.034,1.317,0.162
19.89,-0.232,1.33,0.058
19.9,0.023,0.457,-0.123
19.91,-0.495,0.896,-0.162
19.92,-0.001,1.129,0.18
19.93,-0.279,1.333,0.05
19.94,-0.071,0.636,-0.096
19.95,-0.433,0.558,-0.18
19.96,-0.066,1.356,0.1
19.97,-0.133,0.907,0.002
19.98,-0.224,1.017,-0.146
19.99,-0.456,0.23,-0.148
20.0,-0.192,1.375,0.187
20.01,-0.208,0.938,0.034
20.02,-0.317,0.777,-0.115
20.03,-0.478,0.635,-0.124
20.04,-0.069,1.003,0.226
20.05,-0.275,1.35,-0.028
20.06,-0.124,0.361,-0.148
20.07,-0.444,1.127,-0.085
20.08,-0.063,0.848,0.22
20.09,-0.268,1.292,0.068
20.1,-0.267,0.457,-0.125
20.11,-0.375,0.894,-0.025
20.12,-0.145,1.085,0.149
20.13,-0.17,0.882,0.034
20.14,-0.418,0.872,-0.114
20.15,-0.281,0.623,-0.01
20.16,-0.183,1.243,0.131
20.17,-0.202,0.864,0.059
20.18,-0.264,0.849,-0.155
20.19,-0.313,1.153,-0.098
20.2,-0.046,0.896,0.128
20.21,-0.259,1.211,-0.029
20.22,-0.235,0.399,-0.208
20.23,-0.288,1.593,-0.064
20.24,-0.04,0.696,0.116
20.25,-0.185,1.235,-0.012
20.26,-0.287,0.534,-0.201
20.27,-0.301,1.462,-0.008
20.28,-0.127,0.945,0.108
20.29,-0.135,0.722,0.023
20.3,-0.416,0.971,-0.202
20.31,-0.213,1.241,0.035
20.32,-0.208,1.147,0.212
20.33,-0.086,0.602,0.065
20.34,-0.482,0.948,-0.173
20.35,-0.238,1.583,0.084
20.36,-0.118,0.818,0.153
20.37,-0.14,0.914,0.049
20.38,-0.392,0.479,-0.135
20.39,-0.313,2.0,0.153
20.4,-0.049,0.676,0.206
20.41,-0.175,0.897,0.023
20.42,-0.281,0.493,-0.194
20.43,-0.183,1.963,0.109
20.44,-0.088,0.82,0.119
20.45,-0.007,0.56,-0.018
20.46,-0.436,0.983,-0.191
20.47,-0.024,1.595,0.09
20.48,-0.194,1.157,0.127
20.49,0.101,0.359,0.002
20.5,-0.451,1.045,-0.245
20.51,0.016,1.54,0.103
20.52,-0.17,1.216,0.045
20.53,0.011,0.492,-0.081
20.54,-0.462,0.67,-0.186
20.55,-0.166,1.719,0.196
20.56,-0.12,0.833,0.107
20.57,-0.181,0.934,-0.061
20.58,-0.354,0.213,-0.151
20.59,-0.219,1.805,0.19
20.6,-0.107,0.852,0.11
20.61,-0.099,0.884,-0.101
20.62,-0.387,0.439,-0.222
20.63,-0.042,1.419,0.193
20.64,-0.185,1.366,0.054
20.65,0.033,0.415,-0.149
20.66,-0.402,0.93,-0.215
20.67,-0.01,1.105,0.149
20.68,-0.201,1.344,0.029
20.69,-0.076,0.606,-0.136
20.7,-0.464,0.598,-0.125
20.71,-0.105,1.318,0.163
20.72,-0.117,1.021,0.073
20.73,-0.251,0.982,-0.109
20.74,-0.447,0.26,-0.081
20.75,-0.18,1.429,0.225
20.76,-0.238,0.811,0.056
20.77,-0.282,0.898,-0.075
20.78,-0.453,0.583,-0.062
20.79,-0.087,1.047,0.173
20.8,-0.285,1.219,-0.022
20.81,-0.177,0.372,-0.148
20.82,-0.413,1.228,-0.015
20.83,-0.049,0.773,0.151
20.84,-0.388,1.292,0.049
20.85,-0.127,0.502,-0.18
20.86,-0.341,1.13,-0.103
20.87,-0.036,0.994,0.138
20.88,-0.185,0.86,-0.003
20.89,-0.384,0.857,-0.214
20.9,-0.207,0.938,-0.055
20.91,-0.124,1.199,0.132
20.92,-0.096,0.715,0.021
20.93,-0.407,0.977,-0.169
20.94,-0.281,1.307,-0.029
20.95,-0.109,0.86,0.119
20.96,-0.198,1.083,0.011
20.97,-0.376,0.412,-0.197
20.98,-0.26,1.842,0.022
20.99,-0.029,0.604,0.019
21.0,-0.218,1.079,0.035
21.01,-0.304,0.437,-0.219
21.02,-0.282,1.837,0.04
21.03,-0.12,0.891,0.175
21.04,-0.119,0.631,0.03
21.05,-0.453,0.906,-0.163
21.06,-0.124,1.517,0.097
21.07,-0.232,1.123,0.127
21.08,0.041,0.407,-0.004
21.09,-0.473,0.984,-0.167
21.1,0.024,1.72,0.092
21.11,-0.151,0.968,0.094
21.12,-0.026,0.659,-0.018
21.13,-0.378,0.48,-0.188
21.14,-0.164,2.0,0.148
21.15,-0.061,0.624,0.11
21.16,-0.125,0.895,-0.041
21.17,-0.393,0.293,-0.219
21.18,-0.125,1.973,0.11
21.19,-0.003,1.014,0.004
21.2,-0.066,0.528,-0.056
21.21,-0.379,0.793,-0.184
21.22,-0.022,1.495,0.196
21.23,-0.209,1.325,0.146
21.24,-0.016,0.366,-0.027
21.25,-0.482,0.922,-0.2
21.26,-0.06,1.498,0.181
21.27,-0.225,1.151,0.095
21.28,-0.095,0.724,-0.092
21.29,-0.348,0.412,-0.151
21.3,-0.076,1.264,0.147
21.31,-0.08,0.987,-0.027
21.32,-0.235,0.97,-0.124
21.33,-0.438,0.221,-0.1
21.34,-0.135,1.379,0.204
21.35,-0.262,0.849,0.031
21.36,-0.215,0.882,-0.135
21.37,-0.456,0.515,-0.118
21.38,-0.031,1.035,0.168
21.39,-0.294,1.278,-0.004
21.4,-0.206,0.4,-0.146
21.41,-0.436,1.134,-0.027
21.42,-0.032,0.806,0.187
21.43,-0.283,1.318,0.031
21.44,-0.198,0.385,-0.161
21.45,-0.284,1.205,-0.097
21.46,-0.005,0.982,0.143
21.47,-0.232,0.802,-0.023
21.48,-0.304,0.894,-0.203
21.49,-0.29,0.994,-0.025
21.5,-0.16,1.226,0.176
21.51,-0.193,0.701,0.016
21.52,-0.396,0.993,-0.176
21.53,-0.237,1.33,-0.004
21.54,-0.123,0.904,0.18
21.55,-0.148,1.016,0.005
21.56,-0.328,0.53,-0.211
21.57,-0.295,1.946,0.049
21.58,-0.091,0.703,0.213
21.59,-0.178,1.003,0.005
21.6,-0.394,0.415,-0.195
21.61,-0.259,1.977,0.054
21.62,-0.192,0.802,0.159
21.63,-0.033,0.645,0.016
21.64,-0.518,0.836,-0.154
21.65,-0.096,1.553,0.098
21.66,-0.302,1.086,0.199
21.67,0.051,0.427,0.042
21.68,-0.482,1.0,-0.214
21.69,0.002,1.654,0.085
21.7,-0.086,1.129,0.105
21.71,-0.047,0.573,-0.049
21.72,-0.311,0.461,-0.176
21.73,-0.089,2.0,0.039
21.74,-0.008,0.71,0.125
21.75,-0.103,0.885,-0.046
21.76,-0.458,0.293,-0.185
21.77,-0.145,2.0,0.149
21.78,-0.124,0.833,0.092
21.79,-0.062,0.531,-0.023
21.8,-0.502,0.782,-0.193
21.81,-0.094,1.353,0.195
21.82,-0.26,1.347,0.152
21.83,-0.005,0.467,-0.032
21.84,-0.543,0.87,-0.106
21.85,-0.004,1.441,0.134
21.86,-0.21,1.228,0.101
21.87,-0.067,0.769,-0.073
21.88,-0.475,0.401,-0.163
21.89,-0.188,1.739,0.207
21.9,-0.097,0.854,0.084
21.91,-0.151,0.997,-0.041
21.92,-0.406,0.192,-0.166
21.93,-0.189,1.586,0.16
21.94,-0.161,1.002,0.04
21.95,-0.065,0.813,-0.109
21.96,-0.446,0.665,-0.167
21.97,-0.002,1.091,0.172
21.98,-0.239,1.364,0.027
21.99,0.001,0.445,-0.095
22.0,-0.494,0.953,-0.134
22.01,-0.06,0.986,0.164
22.02,-0.206,1.216,-0.02
22.03,-0.168,0.682,-0.146
22.04,-0.423,0.503,-0.114
22.05,-0.157,1.279,0.197
22.06,-0.182,0.842,0.035
22.07,-0.275,0.963,-0.098
22.08,-0.326,0.386,-0.096
22.09,-0.119,1.247,0.153
22.1,-0.221,0.756,0.056
22.11,-0.33,0.927,-0.151
22.12,-0.326,0.904,-0.039
22.13,-0.168,1.027,0.132
22.14,-0.25,1.065,0.025
22.15,-0.342,0.504,-0.15
22.16,-0.329,1.509,-0.045
22.17,-0.045,0.726,0.137
22.18,-0.28,1.288,0.036
22.19,-0.231,0.312,-0.158
22.2,-0.287,1.611,-0.076
22.21,0.014,0.972,0.152
22.22,-0.12,0.726,-0.031
22.23,-0.459,0.929,-0.208
22.24,-0.2,1.164,-0.024
22.25,-0.17,1.163,0.129
22.26,-0.125,0.675,0.037
22.27,-0.386,1.021,-0.2
22.28,-0.266,1.228,0.01
22.29,-0.142,0.948,0.153
22.3,-0.174,0.915,-0.001
22.31,-0.345,0.542,-0.184
22.32,-0.257,1.951,0.067
22.33,-0.035,0.745,0.141
22.34,-0.124,0.96,0.047
22.35,-0.358,0.411,-0.254
22.36,-0.248,1.903,0.042
22.37,-0.188,0.678,0.119
22.38,-0.048,0.806,0.014
22.39,-0.525,0.77,-0.162
22.4,-0.182,1.469,0.064
22.41,-0.258,1.091,0.17
22.42,0.048,0.469,0.056
22.43,-0.552,0.983,-0.137
22.44,-0.088,1.626,0.098
22.45,-0.175,1.085,0.163
22.46,-0.022,0.611,0.016
22.47,-0.428,0.556,-0.162
22.48,-0.103,2.0,0.102
22.49,-0.109,0.716,0.112
22.5,-0.157,0.906,0.019
22.51,-0.308,0.334,-0.252
22.52,-0.174,2.0,0.112
22.53,-0.052,0.792,0.18
22.54,-0.143,0.659,0.018
22.55,-0.421,0.702,-0.179
22.56,-0.183,1.649,0.103
22.57,-0.18,1.177,0.181
22.58,0.082,0.38,-0.007
22.59,-0.4,1.057,-0.188
22.6,-0.075,1.609,0.185
22.61,-0.149,1.086,0.133
22.62,-0.024,0.604,-0.045
22.63,-0.354,0.613,-0.214
22.64,-0.079,1.869,0.106
22.65,-0.049,0.739,0.071
22.66,-0.093,0.864,-0.04
22.67,-0.323,0.186,-0.2
22.68,-0.204,1.999,0.139
22.69,-0.109,0.845,0.132
22.7,-0.142,0.666,-0.022
22.71,-0.455,0.62,-0.171
22.72,-0.094,1.565,0.202
22.73,-0.258,1.236,0.137
22.74,0.063,0.346,-0.043
22.75,-0.473,0.983,-0.173
22.76,-0.03,1.333,0.167
22.77,-0.298,1.24,0.103
22.78,0.003,0.701,-0.031
22.79,-0.513,0.555,-0.113
22.8,-0.011,1.748,0.199
22.81,-0.078,0.936,0.05
22.82,-0.154,0.937,-0.102
22.83,-0.335,0.216,-0.22
22.84,-0.213,1.747,0.213
22.85,-0.113,0.918,0.095
22.86,-0.141,0.82,-0.093
22.87,-0.416,0.484,-0.181
22.88,-0.064,1.342,0.163
22.89,-0.319,1.287,0.124
22.9,0.009,0.523,-0.1
22.91,-0.415,0.797,-0.214
22.92,-0.004,0.922,0.173
22.93,-0.271,1.405,-0.01
22.94,-0.025,0.391,-0.123
22.95,-0.431,0.907,-0.146
22.96,0.004,0.972,0.161
22.97,-0.196,1.213,-0.037
22.98,-0.247,0.699,-0.155
22.99,-0.357,0.445,-0.117
23.0,-0.185,1.373,0.15
23.01,-0.057,0.72,0.008
23.02,-0.399,0.906,-0.1
23.03,-0.429,0.495,-0.077
23.04,-0.141,1.192,0.141
23.05,-0.249,1.053,-0.01
23.06,-0.147,0.512,-0.145
23.07,-0.394,1.146,-0.053
23.08,0.044,0.858,0.119
23.09,-0.409,1.333,0.072
23.1,-0.255,0.351,-0.087
23.11,-0.428,1.081,-0.056
23.12,-0.147,0.838,0.162
23.13,-0.19,1.138,0.011
23.14,-0.281,0.617,-0.151
23.15,-0.281,0.921,-0.059
23.16,-0.116,1.223,0.168
23.17,-0.157,0.76,-0.011
23.18,-0.42,0.906,-0.109
23.19,-0.295,0.983,-0.039
23.2,-0.183,1.101,0.2
23.21,-0.178,0.917,0.013
23.22,-0.431,0.699,-0.182
23.23,-0.319,1.434,0.022
23.24,-0.078,0.702,0.129
23.25,-0.274,1.258,0.013
23.26,-0.226,0.316,-0.179
23.27,-0.315,1.776,0.005
23.28,-0.077,0.743,0.151
23.29,-0.134,0.971,0.037
23.3,-0.454,0.665,-0.211
23.31,-0.251,1.364,0.059
23.32,-0.19,1.081,0.171
23.33,-0.095,0.553,0.01
23.34,-0.474,1.028,-0.16
23.35,-0.194,1.357,0.055
23.36,-0.164,1.117,0.215
23.37,-0.057,0.617,0.002
23.38,-0.455,0.798,-0.188
23.39,-0.196,1.875,0.018
23.4,-0.105,0.708,0.117
23.41,-0.088,0.982,0.018
23.42,-0.436,0.281,-0.193
23.43,-0.152,2.0,0.042
23.44,-0.184,0.6,0.115
23.45,-0.031,0.889,0.047
23.46,-0.477,0.5,-0.215
23.47,-0.082,1.774,0.105
23.48,-0.19,1.061,0.132
23.49,0.025,0.4,0.002
23.5,-0.538,0.973,-0.134
23.51,-0.066,1.633,0.159
23.52,-0.193,1.143,0.129
23.53,0.07,0.477,-0.002
23.54,-0.541,0.805,-0.148
23.55,-0.078,1.87,0.086
23.56,-0.078,0.845,0.107
23.57,-0.121,0.81,-0.025
23.58,-0.287,0.275,-0.188
23.59,-0.206,2.0,0.061
23.6,0.013,0.734,0.121
23.61,-0.13,0.801,-0.022
23.62,-0.404,0.441,-0.175
23.63,-0.105,1.83,0.161
23.64,-0.133,1.128,0.082
23.65,-0.027,0.388,-0.05
23.66,-0.406,0.969,-0.192
23.67,-0.027,1.448,0.117
23.68,-0.216,1.343,0.101
23.69,0.027,0.45,-0.027
23.7,-0.437,0.772,-0.179
23.71,-0.084,1.233,0.165
23.72,-0.193,1.162,0.029
23.73,-0.104,0.803,-0.066
23.74,-0.425,0.422,-0.13
23.75,-0.19,1.499,0.193
23.76,-0.102,0.914,0.062
23.77,-0.172,0.995,-0.056
23.78,-0.436,0.3,-0.104
23.79,-0.213,1.406,0.181
23.8,-0.177,0.932,-0.017
23.81,-0.108,0.774,-0.138
23.82,-0.383,0.75,-0.159
23.83,-0.03,0.983,0.172
23.84,-0.325,1.323,0.004
23.85,-0.034,0.38,-0.098
23.86,-0.488,0.963,-0.143
23.87,-0.002,0.943,0.21
23.88,-0.23,1.218,-0.021
23.89,-0.071,0.664,-0.152
23.9,-0.435,0.631,-0.089
23.91,-0.074,1.234,0.175
23.92,-0.226,0.839,-0.01
23.93,-0.247,0.905,-0.064
23.94,-0.398,0.461,-0.028
23.95,-0.108,1.242,0.14
23.96,-0.224,0.882,-0.001
23.97,-0.254,0.733,-0.165
23.98,-0.377,0.927,-0.039
23.99,-0.086,0.949,0.171
24.0,-0.281,1.261,0.074
24.01,-0.149,0.262,-0.156
24.02,-0.324,1.487,-0.052
24.03,0.036,0.806,0.146
24.04,-0.283,1.166,0.027
24.05,-0.297,0.544,-0.167
24.06,-0.297,1.124,-0.078
24.07,-0.164,1.055,0.131
24.08,-0.18,0.76,0.033
24.09,-0.4,0.933,-0.161
24.1,-0.274,0.939,0.002
24.11,-0.18,1.205,0.189
24.12,-0.175,0.791,0.033
24.13,-0.422,0.761,-0.151
24.14,-0.251,1.355,-0.003
24.15,-0.104,0.807,0.107
24.16,-0.226,1.125,0.028
24.17,-0.287,0.46,-0.198
24.18,-0.384,1.737,0.041
24.19,-0.044,0.631,0.181
24.2,-0.285,1.14,0.048
24.21,-0.361,0.464,-0.21
24.22,-0.213,1.534,0.033
24.23,-0.124,0.939,0.105
24.24,0.052,0.636,-0.052
24.25,-0.492,0.981,-0.203
24.26,-0.08,1.336,0.032
24.27,-0.272,1.088,0.12
24.28,0.0,0.565,0.046
24.29,-0.472,0.825,-0.202
24.3,-0.085,1.604,0.082
24.31,-0.189,0.811,0.146
24.32,-0.104,0.848,0.007
24.33,-0.488,0.412,-0.197
24.34,-0.195,2.0,0.083
24.35,-0.141,0.57,0.118
24.36,-0.212,0.948,0.012
24.37,-0.409,0.409,-0.148
24.38,-0.167,1.97,0.105
24.39,-0.194,0.863,0.131
24.4,-0.091,0.471,-0.014
24.41,-0.495,0.871,-0.141
24.42,-0.001,1.689,0.132
24.43,-0.22,1.206,0.119
24.44,0.033,0.335,-0.026
24.45,-0.511,0.865,-0.157
24.46,-0.021,1.738,0.094
24.47,-0.091,0.995,0.063
24.48,-0.048,0.692,-0.063
24.49,-0.367,0.317,-0.157
24.5,-0.192,1.971,0.129
24.51,-0.024,0.866,-0.003
24.52,-0.082,1.094,-0.117
24.53,-0.381,0.134,-0.18
24.54,-0.122,1.721,0.203
24.55,-0.177,0.917,0.057
24.56,-0.084,0.843,-0.074
24.57,-0.344,0.574,-0.215
24.58,-0.118,1.125,0.159
24.59,-0.24,1.275,0.006
24.6,-0.004,0.554,-0.069
24.61,-0.46,0.979,-0.11
24.62,0.0,0.925,0.167
24.63,-0.246,1.275,-0.013
24.64,-0.101,0.627,-0.138
24.65,-0.479,0.677,-0.061
24.66,-0.098,1.141,0.192
24.67,-0.283,0.849,0.001
24.68,-0.179,0.933,-0.062
24.69,-0.391,0.514,-0.025
24.7,-0.113,1.25,0.18
24.71,-0.32,0.795,0.038
24.72,-0.279,0.893,-0.146
24.73,-0.345,0.86,-0.038
24.74,-0.127,1.02,0.196
24.75,-0.297,1.174,0.045
24.76,-0.313,0.323,-0.152
24.77,-0.291,1.47,-0.033
24.78,-0.01,0.736,0.125
24.79,-0.333,1.231,0.026
24.8,-0.31,0.373,-0.156
24.81,-0.222,1.457,0.009
24.82,-0.027,1.013,0.151
24.83,-0.143,0.706,0.013
24.84,-0.466,1.004,-0.221
24.85,-0.179,1.138,-0.001
24.86,-0.193,1.165,0.147
24.87,-0.054,0.699,0.051
24.88,-0.523,0.897,-0.231
24.89,-0.114,1.423,0.031
24.9,-0.165,0.904,0.151
24.91,-0.095,0.935,0.003
24.92,-0.385,0.437,-0.238
24.93,-0.205,2.0,0.042
24.94,-0.114,0.635,0.154
24.95,-0.137,1.02,0.022
24.96,-0.476,0.427,-0.22
24.97,-0.189,1.962,0.114
24.98,-0.169,0.795,0.108
24.99,0.041,0.644,-0.018
25.0,-0.471,0.914,-0.211
25.01,-0.067,1.53,0.07
25.02,-0.166,1.174,0.178
25.03,0.036,0.408,-0.007
25.04,-0.502,0.944,-0.196
25.05,-0.008,1.763,0.036
25.06,-0.1,1.029,0.11
25.07,-0.024,0.692,-0.066
25.08,-0.426,0.423,-0.213
25.09,-0.078,2.0,0.074
25.1,-0.044,0.682,0.101
25.11,-0.131,0.83,-0.026
25.12,-0.315,0.32,-0.167
25.13,-0.174,1.895,0.096
25.14,-0.005,0.873,0.062
25.15,-0.077,0.634,-0.085
25.16,-0.393,0.769,-0.231
25.17,-0.035,1.459,0.161
25.18,-0.138,1.374,0.115
25.19,0.028,0.397,-0.062
25.2,-0.48,0.93,-0.151
25.21,-0.021,1.483,0.176
25.22,-0.142,1.168,0.111
25.23,-0.096,0.724,-0.065
25.24,-0.377,0.398,-0.152
25.25,-0.2,1.559,0.156
25.26,-0.135,0.799,0.134
25.27,-0.147,1.108,-0.086
25.28,-0.411,0.133,-0.122
25.29,-0.207,1.549,0.193
25.3,-0.2,0.977,0.059
25.31,-0.08,0.825,-0.098
25.32,-0.421,0.455,-0.138
25.33,-0.055,1.147,0.227
25.34,-0.258,1.189,-0.056
25.35,-0.033,0.48,-0.137
25.36,-0.441,1.07,-0.121
25.37,-0.021,0.831,0.199
25.38,-0.268,1.319,-0.081
25.39,-0.209,0.421,-0.146
25.4,-0.371,0.981,-0.063
25.41,-0.098,1.036,0.16
25.42,-0.173,0.923,0.039
25.43,-0.318,0.81,-0.156
25.44,-0.262,0.698,-0.041
25.45,-0.178,1.252,0.135
25.46,-0.188,0.71,0.057
25.47,-0.321,0.924,-0.128
25.48,-0.24,0.958,-0.079
25.49,-0.102,1.006,0.146
25.5,-0.23,1.092,-0.007
25.51,-0.297,0.467,-0.172
25.52,-0.245,1.573,-0.048
25.53,-0.055,0.756,0.17
25.54,-0.271,1.236,0.042
25.55,-0.303,0.354,-0.186
25.56,-0.277,1.526,0.005
25.57,-0.108,0.852,0.151
25.58,-0.154,0.847,-0.009
25.59,-0.412,0.844,-0.229
25.6,-0.138,1.234,0.034
25.61,-0.199,1.132,0.138
25.62,-0.074,0.553,0.024
25.63,-0.516,0.935,-0.193
25.64,-0.088,1.376,0.033
25.65,-0.184,0.99,0.155
25.66,-0.141,0.815,0.012
25.67,-0.474,0.562,-0.188
25.68,-0.251,1.946,0.055
25.69,-0.156,0.605,0.149
25.7,-0.14,1.065,0.024
25.71,-0.371,0.388,-0.192
25.72,-0.29,1.923,0.079
25.73,-0.019,0.799,0.118
25.74,-0.153,0.683,0.01
25.75,-0.437,0.804,-0.164
25.76,-0.186,1.69,0.13
25.77,-0.234,1.07,0.216
25.78,0.093,0.425,0.027
25.79,-0.576,1.001,-0.163
25.8,-0.033,1.597,0.149
25.81,-0.163,1.016,0.103
25.82,-0.005,0.626,0.005
25.83,-0.491,0.576,-0.121
25.84,-0.108,1.976,0.101
25.85,-0.019,0.699,0.11
25.86,-0.103,0.914,-0.053
25.87,-0.366,0.181,-0.163
25.88,-0.139,2.0,0.133
25.89,-0.011,0.849,0.036
25.9,-0.114,0.655,-0.06
25.91,-0.409,0.621,-0.214
25.92,-0.111,1.574,0.181
25.93,-0.098,1.224,0.065
25.94,0.005,0.32,-0.087
25.95,-0.446,0.956,-0.2
25.96,-0.071,1.279,0.163
25.97,-0.21,1.267,0.094
25.98,-0.083,0.678,-0.047
25.99,-0.384,0.532,-0.137
26.0,-0.246,1.532,0.172
26.01,-0.142,0.871,0.1
26.02,-0.137,1.155,-0.076
26.03,-0.4,0.138,-0.094
26.04,-0.183,1.553,0.185
26.05,-0.084,0.939,0.03
26.06,-0.094,0.905,-0.083
26.07,-0.396,0.612,-0.176
26.08,-0.094,1.094,0.214
26.09,-0.278,1.292,0.01
26.1,-0.038,0.441,-0.122
26.11,-0.497,0.996,-0.085
26.12,0.008,0.814,0.174
26.13,-0.384,1.396,0.027
26.14,-0.198,0.331,-0.098
26.15,-0.416,1.123,-0.026
26.16,-0.081,0.877,0.169
26.17,-0.261,1.063,-0.016
26.18,-0.338,0.699,-0.179
26.19,-0.212,0.877,-0.013
26.2,-0.19,1.251,0.158
26.21,-0.095,0.656,0.018
26.22,-0.404,0.986,-0.184
26.23,-0.12,1.119,0.002
26.24,-0.128,1.09,0.128
26.25,-0.13,0.867,-0.023
26.26,-0.426,0.623,-0.184
26.27,-0.141,1.689,0.033
26.28,-0.081,0.68,0.114
26.29,-0.191,1.098,0.001
26.3,-0.361,0.333,-0.253
26.31,-0.22,1.924,0.051
26.32,-0.116,0.748,0.126
26.33,-0.087,0.758,-0.004
26.34,-0.45,0.748,-0.232
26.35,-0.181,1.604,0.096
26.36,-0.142,1.11,0.166
26.37,0.004,0.416,0.049
26.38,-0.637,1.024,-0.125
26.39,-0.032,1.682,0.099
26.4,-0.221,1.123,0.162
26.41,0.037,0.552,0.021
26.42,-0.512,0.685,-0.152
26.43,-0.102,2.0,0.081
26.44,-0.042,0.722,0.141
26.45,-0.095,0.9,-0.022
26.46,-0.349,0.227,-0.169
26.47,-0.153,2.0,0.093
26.48,-0.115,0.853,0.111
26.49,-0.04,0.743,-0.027
26.5,-0.413,0.554,-0.199
26.51,0.003,1.721,0.14
26.52,-0.187,1.159,0.069
26.53,0.072,0.325,-0.114
26.54,-0.456,0.974,-0.174
26.55,-0.023,1.431,0.136
26.56,-0.265,1.283,0.121
26.57,-0.022,0.551,-0.064
26.58,-0.37,0.605,-0.167
26.59,-0.139,1.597,0.154
26.6,-0.073,0.903,0.017
26.61,-0.121,1.108,-0.052
26.62,-0.381,0.094,-0.144
26.63,-0.196,1.639,0.215
26.64,-0.121,0.886,0.078
26.65,-0.128,0.977,-0.108
26.66,-0.348,0.45,-0.138
26.67,-0.141,1.183,0.2
26.68,-0.245,1.299,-0.018
26.69,0.025,0.538,-0.105
26.7,-0.513,0.98,-0.102
26.71,-0.022,0.855,0.195
26.72,-0.421,1.344,0.113
26.73,-0.078,0.56,-0.077
26.74,-0.454,0.786,-0.075
26.75,-0.062,1.035,0.163
26.76,-0.202,0.919,-0.011
26.77,-0.298,0.891,-0.108
26.78,-0.291,0.492,-0.051
26.79,-0.175,1.278,0.172
26.8,-0.241,0.797,0.024
26.81,-0.298,0.852,-0.097
26.82,-0.309,0.942,-0.028
26.83,-0.104,0.965,0.166
26.84,-0.274,1.135,-0.057
26.85,-0.297,0.413,-0.131
26.86,-0.322,1.53,0.025
26.87,-0.105,0.714,0.182
26.88,-0.274,1.284,-0.011
26.89,-0.261,0.369,-0.248
26.9,-0.24,1.57,0.028
26.91,-0.023,0.918,0.103
26.92,-0.13,0.841,-0.02
26.93,-0.355,0.615,-0.209
26.94,-0.227,1.726,0.081
26.95,-0.234,0.985,0.163
26.96,-0.006,0.458,-0.014
26.97,-0.518,1.045,-0.192
26.98,-0.078,1.549,0.09
26.99,-0.167,1.154,0.109
27.0,0.027,0.465,0.012
27.01,-0.495,0.714,-0.137
27.02,-0.084,1.885,0.146
27.03,-0.059,0.682,0.134
27.04,-0.055,0.929,-0.03
27.05,-0.391,0.218,-0.212
27.06,-0.14,2.0,0.121
27.07,-0.039,0.807,0.047
27.08,-0.116,0.767,-0.044
27.09,-0.375,0.443,-0.156
27.1,-0.135,1.592,0.14
27.11,-0.125,1.197,0.123
27.12,0.001,0.483,-0.102
27.13,-0.461,0.881,-0.151
27.14,-0.015,1.269,0.14
27.15,-0.287,1.362,0.069
27.16,0.02,0.635,-0.027
27.17,-0.534,0.667,-0.151
27.18,-0.066,1.398,0.184
27.19,-0.405,0.715,-0.133
27.2,-0.052,1.022,0.195
27.21,-0.271,1.317,0.008
27.22,-0.035,0.522,-0.084
27.23,-0.51,0.969,-0.097
27.24,-0.07,0.866,0.169
27.25,-0.322,1.292,-0.029
27.26,-0.201,0.613,-0.128
27.27,-0.327,0.686,-0.044
27.28,-0.164,1.186,0.102
27.29,-0.136,0.74,0.02
27.3,-0.381,0.991,-0.091
27.31,-0.35,0.617,0.025
27.32,-0.176,1.209,0.179
27.33,-0.238,0.901,-0.011
27.34,-0.328,0.739,-0.123
27.35,-0.249,1.25,-0.052
27.36,0.005,0.839,0.123
27.37,-0.246,1.189,-0.028
27.38,-0.28,0.393,-0.216
27.39,-0.242,1.716,-0.038
27.4,-0.032,0.73,0.112
27.41,-0.201,1.051,0.032
27.42,-0.401,0.546,-0.23
27.43,-0.174,1.512,0.035
27.44,-0.129,1.027,0.152
27.45,-0.071,0.532,0.023
27.46,-0.485,1.021,-0.17
27.47,-0.122,1.389,0.045
27.48,-0.181,1.164,0.138
27.49,-0.05,0.506,0.039
27.5,-0.509,0.862,-0.196
27.51,-0.138,1.828,0.056
27.52,-0.165,0.769,0.154
27.53,-0.123,0.864,-0.016
27.54,-0.451,0.387,-0.172
27.55,-0.239,2.0,0.116
27.56,-0.066,0.638,0.147
27.57,-0.095,0.88,0.023
27.58,-0.391,0.444,-0.195
27.59,-0.127,1.879,0.148
27.6,-0.034,1.062,0.081
27.61,-0.045,0.365,-0.045
27.62,-0.462,0.912,-0.177
27.63,-0.048,1.595,0.159
27.64,-0.102,1.235,0.059
27.65,0.016,0.387,-0.035
27.66,-0.496,0.812,-0.262
27.67,-0.02,1.342,0.215
27.68,-0.231,1.238,0.087
27.69,0.036,0.69,-0.058
27.7,-0.494,0.49,-0.161
27.71,-0.117,1.553,0.203
27.72,-0.136,0.854,0.061
27.73,-0.118,1.069,-0.057
27.74,-0.375,0.148,-0.143
27.75,-0.192,1.602,0.134
27.76,-0.174,0.905,0.087
27.77,-0.112,0.853,-0.081
27.78,-0.371,0.613,-0.183
27.79,-0.149,1.016,0.191
27.8,-0.234,1.374,-0.017
27.81,-0.025,0.396,-0.115
27.82,-0.412,0.971,-0.139
27.83,-0.062,0.917,0.171
27.84,-0.371,1.219,0.057
27.85,-0.111,0.634,-0.103
27.86,-0.462,0.598,-0.069
27.87,-0.17,1.2,0.199
27.88,-0.235,0.823,0.063
27.89,-0.371,0.954,-0.131
27.9,-0.365,0.348,-0.054
27.91,-0.162,1.281,0.17
27.92,-0.229,0.85,0.023
27.93,-0.279,0.796,-0.127
27.94,-0.354,0.943,-0.037
27.95,-0.002,0.952,0.144
27.96,-0.302,1.241,-0.018
27.97,-0.118,0.374,-0.14
27.98,-0.326,1.428,-0.078
27.99,0.032,0.767,0.153
28.0,-0.288,1.25,-0.038
28.01,-0.236,0.48,-0.283
28.02,-0.212,1.213,-0.083
28.03,-0.09,1.026,0.076
28.04,-0.155,0.783,-0.004
28.05,-0.396,0.93,-0.188
28.06,-0.273,1.044,-0.002
28.07,-0.152,1.175,0.148
28.08,-0.126,0.673,0.013
28.09,-0.382,0.947,-0.181
28.1,-0.191,1.462,-0.008
28.11,-0.082,0.843,0.121
28.12,-0.153,0.988,-0.012
28.13,-0.363,0.378,-0.216
28.14,-0.286,1.908,0.073
28.15,-0.11,0.593,0.146
28.16,-0.198,1.067,0.024
28.17,-0.397,0.46,-0.212
28.18,-0.23,1.826,0.059
28.19,-0.123,0.893,0.073
28.2,-0.059,0.554,0.011
28.21,-0.466,0.979,-0.167
28.22,-0.087,1.547,0.099
28.23,-0.181,1.135,0.126
28.24,0.033,0.439,-0.007
28.25,-0.452,0.943,-0.206
28.26,-0.008,1.728,0.075
28.27,-0.133,0.932,0.17
28.28,-0.054,0.733,0.003
28.29,-0.423,0.442,-0.167
28.3,-0.113,2.0,0.075
28.31,-0.038,0.753,0.142
28.32,-0.133,0.875,-0.012
28.33,-0.4,0.327,-0.187
28.34,-0.125,1.989,0.136
28.35,-0.067,0.97,0.124
28.36,-0.046,0.49,-0.02
28.37,-0.496,0.837,-0.175
28.38,-0.003,1.589,0.18
28.39,-0.121,1.241,0.035
28.4,0.079,0.368,-0.072
28.41,-0.456,0.914,-0.24
28.42,-0.029,1.446,0.075
28.43,-0.112,1.121,0.025
28.44,0.02,0.814,-0.059
28.45,-0.453,0.374,-0.161
28.46,-0.113,1.731,0.191
28.47,-0.152,0.931,0.12
28.48,-0.208,1.082,-0.062
28.49,-0.404,0.204,-0.096
28.5,-0.229,1.509,0.262
28.51,-0.177,0.899,0.039
28.52,-0.041,1.013,-0.096
28.53,-0.432,0.542,-0.173
28.54,-0.029,1.086,0.165
28.55,-0.212,1.281,-0.082
28.56,-0.064,0.526,-0.103
28.57,-0.498,0.953,-0.122
28.58,-0.025,0.847,0.208
28.59,-0.317,1.344,0.038
28.6,-0.133,0.508,-0.139
28.61,-0.49,0.792,-0.057
28.62,-0.004,1.07,0.182
28.63,-0.32,0.948,0.012
28.64,-0.134,0.919,-0.107
28.65,-0.437,0.615,-0.031
28.66,-0.083,1.263,0.18
28.67,-0.296,0.764,0.064
28.68,-0.288,0.847,-0.087
28.69,-0.341,0.974,-0.052
28.7,-0.085,0.978,0.162
28.71,-0.305,1.137,-0.028
28.72,-0.224,0.408,-0.171
28.73,-0.31,1.525,-0.007
28.74,-0.079,0.66,0.129
28.75,-0.197,1.257,-0.076
28.76,-0.335,0.372,-0.209
28.77,-0.224,1.481,-0.015
28.78,-0.067,0.88,0.096
28.79,-0.1,0.816,-0.015
28.8,-0.48,0.873,-0.236
28.81,-0.135,1.102,0.019
28.82,-0.247,1.155,0.126
28.83,-0.059,0.639,0.041
28.84,-0.372,0.958,-0.231
28.85,-0.203,1.433,0.005
28.86,-0.118,0.998,0.158
28.87,-0.128,0.811,-0.005
28.88,-0.409,0.511,-0.194
28.89,-0.184,2.0,0.046
28.9,-0.186,0.608,0.178
28.91,-0.097,1.044,0.043
28.92,-0.443,0.418,-0.206
28.93,-0.167,2.0,0.061
28.94,-0.168,0.784,0.127
28.95,-0.096,0.63,0.025
28.96,-0.45,0.834,-0.182
28.97,-0.092,1.652,0.115
28.98,-0.132,1.219,0.167
28.99,0.034,0.302,0.016
29.0,-0.634,0.968,-0.112
29.01,-0.045,1.743,0.163
29.02,-0.31,1.038,0.199
29.03,0.012,0.665,0.029
29.04,-0.465,0.521,-0.158
29.05,-0.182,2.0,0.225
29.06,-0.073,0.688,0.163
29.07,-0.173,0.877,0.02
29.08,-0.331,0.186,-0.176
29.09,-0.125,2.0,0.147
29.1,-0.059,0.814,0.087
29.11,-0.044,0.661,-0.107
29.12,-0.429,0.656,-0.229
29.13,-0.075,1.621,0.14
29.14,-0.229,1.289,0.096
29.15,0.057,0.311,-0.062
29.16,-0.522,0.978,-0.178
29.17,-0.029,1.376,0.173
29.18,-0.241,1.171,0.115
29.19,-0.032,0.712,-0.051
29.2,-0.469,0.483,-0.128
29.21,-0.184,1.554,0.21
29.22,-0.157,0.872,0.067
29.23,-0.208,1.091,-0.063
29.24,-0.415,0.189,-0.12
29.25,-0.21,1.482,0.228
29.26,-0.167,0.997,0.022
29.27,-0.199,1.019,-0.087
29.28,-0.411,0.448,-0.075
29.29,-0.09,1.171,0.179
29.3,-0.249,1.111,-0.063
29.31,-0.149,0.525,-0.181
29.32,-0.434,1.088,-0.079
29.33,-0.062,0.781,0.201
29.34,-0.33,1.355,0.004
29.35,-0.217,0.3,-0.129
29.36,-0.331,1.21,-0.054
29.37,-0.071,0.903,0.098
29.38,-0.281,0.948,-0.014
29.39,-0.333,0.72,-0.164
29.4,-0.219,0.968,-0.029
29.41,-0.14,1.21,0.14
29.42,-0.138,0.656,0.012
29.43,-0.444,0.971,-0.164
29.44,-0.196,1.081,-0.022
29.45,-0.204,1.013,0.171
29.46,-0.182,0.978,-0.006
29.47,-0.38,0.525,-0.193
29.48,-0.232,1.673,0.027
29.49,-0.046,0.655,0.092
29.5,-0.282,1.151,0.047
29.51,-0.325,0.365,-0.179
29.52,-0.276,1.923,0.039
29.53,-0.04,0.826,0.164
29.54,-0.131,0.732,0.022
29.55,-0.454,0.83,-0.18
29.56,-0.195,1.518,0.037
29.57,-0.182,1.121,0.157
29.58,-0.029,0.443,0.017
29.59,-0.561,1.021,-0.189
29.6,-0.135,1.56,0.06
29.61,-0.112,1.065,0.117
29.62,-0.072,0.6,0.035
29.63,-0.453,0.633,-0.132
29.64,-0.185,2.0,0.1
29.65,-0.127,0.703,0.169
29.66,-0.168,0.941,0.007
29.67,-0.348,0.302,-0.162
29.68,-0.201,2.0,0.121
29.69,-0.094,0.759,0.161
29.7,-0.13,0.641,-0.015
29.71,-0.433,0.641,-0.185
29.72,-0.065,1.788,0.119
29.73,-0.163,1.17,0.119
29.74,0.018,0.297,-0.033
29.75,-0.496,0.968,-0.228
29.76,0.012,1.537,0.144
29.77,-0.076,1.206,0.021
29.78,-0.036,0.473,-0.022
29.79,-0.389,0.632,-0.168
29.8,-0.205,1.745,0.177
29.81,-0.112,0.782,0.147
29.82,-0.096,0.906,-0.046
29.83,-0.377,0.239,-0.23
29.84,-0.195,1.897,0.151
29.85,-0.054,0.828,0.091
29.86,-0.14,0.795,-0.05
29.87,-0.391,0.557,-0.194
29.88,-0.103,1.562,0.177
29.89,-0.229,1.304,0.118
29.9,0.052,0.375,-0.062
29.91,-0.567,0.943,-0.197
29.92,0.034,1.339,0.18
29.93,-0.275,1.27,0.085
29.94,-0.036,0.616,-0.024
29.95,-0.444,0.61,-0.154
29.96,-0.077,1.521,0.167
29.97,-0.174,0.972,0.11
29.98,-0.117,0.992,-0.059
29.99,-0.476,0.206,-0.169
30.0,-0.155,1.668,0.188
30.01,-0.134,0.922,0.126
30.02,-0.077,0.901,-0.096
30.03,-0.452,0.463,-0.229
30.04,0.006,1.291,0.14
30.05,-0.203,1.255,-0.017
30.06,-0.001,0.515,-0.114
30.07,-0.494,0.819,-0.192
30.08,-0.087,0.9,0.195
30.09,-0.325,1.407,0.037
30.1,-0.125,0.365,-0.085
30.11,-0.502,0.928,-0.076
30.12,-0.044,0.916,0.168
30.13,-0.272,1.219,0.011
30.14,-0.216,0.743,-0.118
30.15,-0.497,0.472,-0.033
30.16,-0.164,1.29,0.219
30.17,-0.234,0.792,0.081
30.18,-0.308,0.955,-0.084
30.19,-0.505,0.386,-0.04
30.2,-0.164,1.24,0.214
30.21,-0.281,1.019,0.018
30.22,-0.217,0.579,-0.154
30.23,-0.408,0.958,-0.094
30.24,0.009,0.867,0.129
30.25,-0.313,1.349,0.0
30.26,-0.118,0.279,-0.138
30.27,-0.425,1.347,-0.043
30.28,0.005,0.837,0.16
30.29,-0.248,1.165,-0.027
30.3,-0.294,0.612,-0.198
30.31,-0.29,0.874,-0.027
30.32,-0.182,1.158,0.135
30.33,-0.179,0.76,0.046
30.34,-0.378,0.996,-0.159
30.35,-0.301,0.828,-0.058
30.36,-0.139,1.2,0.184
30.37,-0.201,0.903,0.036
30.38,-0.31,0.718,-0.162
30.39,-0.27,1.448,-0.071
30.4,-0.023,0.852,0.151
30.41,-0.194,1.163,-0.008
30.42,-0.311,0.398,-0.226
30.43,-0.325,1.664,-0.037
30.44,-0.09,0.72,0.134
30.45,-0.169,1.092,0.012
30.46,-0.308,0.637,-0.259
30.47,-0.178,1.34,-0.063
30.48,-0.082,1.059,0.136
30.49,-0.021,0.627,0.019
30.5,-0.391,1.058,-0.198
30.51,-0.266,1.152,0.016
30.52,-0.164,1.126,0.129
30.53,-0.158,0.726,0.014
30.54,-0.368,0.807,-0.213
30.55,-0.241,1.606,0.001
30.56,-0.064,0.764,0.127
30.57,-0.174,1.002,0.022
30.58,-0.24,0.389,-0.276
30.59,-0.337,1.965,0.029
30.6,-0.014,0.71,0.156
30.61,-0.228,0.95,0.05
30.62,-0.317,0.582,-0.301
30.63,-0.371,1.585,0.074
30.64,-0.159,0.945,0.102
30.65,-0.018,0.608,0.009
30.66,-0.526,0.981,-0.172
30.67,-0.239,1.277,0.068
30.68,-0.285,1.135,0.207
30.69,-0.075,0.579,0.083
30.7,-0.433,0.802,-0.149
30.71,-0.229,1.746,0.041
30.72,-0.149,0.848,0.147
30.73,-0.116,0.87,0.05
30.74,-0.424,0.405,-0.151
30.75,-0.269,2.0,0.104
30.76,-0.123,0.548,0.115
30.77,-0.128,0.984,0.024
30.78,-0.435,0.483,-0.179
30.79,-0.203,1.815,0.08
30.8,-0.256,0.897,0.186
30.81,0.026,0.532,0.065
30.82,-0.452,0.939,-0.179
30.83,-0.092,1.474,0.079
30.84,-0.241,1.156,0.178
30.85,0.057,0.456,0.04
30.86,-0.508,0.854,-0.184
30.87,-0.033,1.747,0.066
30.88,-0.238,1.144,0.135
30.89,-0.008,0.54,0.008
30.9,-0.453,0.627,-0.167
30.91,-0.073,1.955,0.158
30.92,-0.017,0.759,0.121
30.93,-0.062,0.837,-0.048
30.94,-0.389,0.315,-0.218
30.95,-0.093,2.0,0.066
30.96,-0.044,0.773,0.043
30.97,-0.043,0.707,-0.057
30.98,-0.408,0.616,-0.268
30.99,-0.009,1.702,0.113
31.0,-0.157,1.258,0.083
31.01,0.088,0.337,-0.051
31.02,-0.501,1.035,-0.22
31.03,0.021,1.559,0.103
31.04,-0.214,1.24,0.066
31.05,-0.004,0.491,-0.058
31.06,-0.385,0.655,-0.157
31.07,-0.101,1.825,0.14
31.08,-0.093,0.784,0.098
31.09,-0.065,0.918,-0.055
31.1,-0.436,0.24,-0.185
31.11,-0.17,1.994,0.173
31.12,-0.14,0.808,0.126
31.13,-0.117,0.7,-0.043
31.14,-0.439,0.568,-0.228
31.15,-0.073,1.494,0.145
31.16,-0.175,1.247,0.061
31.17,0.083,0.415,-0.069
31.18,-0.513,0.99,-0.161
31.19,0.036,1.421,0.124
31.2,-0.189,1.297,0.104
31.21,-0.042,0.571,-0.048
31.22,-0.432,0.7,-0.193
31.23,-0.109,1.749,0.171
31.24,-0.119,0.893,0.152
31.25,-0.106,0.874,-0.069
31.26,-0.433,0.246,-0.142
31.27,-0.214,1.784,0.154
31.28,-0.128,0.817,0.126
31.29,-0.144,0.89,-0.039
31.3,-0.486,0.467,-0.165
31.31,-0.125,1.457,0.192
31.32,-0.234,1.273,0.105
31.33,-0.064,0.477,-0.043
31.34,-0.474,0.955,-0.166
31.35,-0.09,1.345,0.183
31.36,-0.271,1.325,0.135
31.37,0.013,0.524,-0.041
31.38,-0.562,0.764,-0.154
31.39,-0.094,1.521,0.187
31.4,-0.155,0.991,0.111
31.41,-0.169,0.91,-0.055
31.42,-0.447,0.256,-0.188
31.43,-0.189,1.776,0.166
31.44,-0.13,0.859,0.089
31.45,-0.175,0.893,-0.034
31.46,-0.395,0.398,-0.209
31.47,-0.108,1.506,0.155
31.48,-0.151,1.204,0.113
31.49,-0.076,0.503,-0.047
31.5,-0.542,0.924,-0.176
31.51,-0.069,1.235,0.242
31.52,-0.247,1.336,0.139
31.53,-0.058,0.469,-0.043
31.54,-0.509,0.795,-0.207
31.55,-0.114,1.437,0.143
31.56,-0.104,1.063,0.066
31.57,-0.105,0.907,-0.067
31.58,-0.396,0.292,-0.202
31.59,-0.2,1.615,0.152
31.6,-0.08,0.82,0.138
31.61,-0.196,0.98,-0.066
31.62,-0.412,0.357,-0.179
31.63,-0.12,1.443,0.168
31.64,-0.173,1.183,0.035
31.65,-0.015,0.559,-0.074
31.66,-0.476,0.913,-0.19
31.67,-0.01,1.113,0.142
31.68,-0.183,1.3,0.05
31.69,-0.086,0.469,-0.11
31.7,-0.441,0.998,-0.139
31.71,-0.014,0.978,0.159
31.72,-0.219,1.3,0.031
31.73,-0.084,0.634,-0.098
31.74,-0.46,0.608,-0.163
31.75,-0.098,1.286,0.157
31.76,-0.082,0.875,-0.045
31.77,-0.227,1.01,-0.118
31.78,-0.393,0.245,-0.156
31.79,-0.171,1.362,0.19
31.8,-0.149,0.92,0.007
31.81,-0.162,0.789,-0.096
31.82,-0.458,0.65,-0.19
31.83,-0.063,1.045,0.199
31.84,-0.269,1.276,0.002
31.85,-0.063,0.394,-0.105
31.86,-0.491,1.006,-0.107
31.87,-0.09,0.832,0.164
31.88,-0.233,1.338,0.036
31.89,-0.137,0.494,-0.095
31.9,-0.434,0.65,-0.147
31.91,-0.076,1.182,0.163
31.92,-0.18,0.952,0.042
31.93,-0.193,0.904,-0.152
31.94,-0.359,0.365,-0.126
31.95,-0.171,1.319,0.202
31.96,-0.165,0.83,-0.008
31.97,-0.299,0.814,-0.087
31.98,-0.377,0.672,-0.098
31.99,-0.137,1.038,0.223
32.0,-0.271,1.234,0.035
32.01,-0.163,0.38,-0.15
32.02,-0.459,1.111,-0.061
32.03,-0.028,0.828,0.173
32.04,-0.257,1.3,0.072
32.05,-0.238,0.399,-0.172
32.06,-0.412,0.877,-0.033
32.07,-0.084,1.086,0.137
32.08,-0.258,0.87,0.05
32.09,-0.25,0.846,-0.082
32.1,-0.402,0.567,-0.051
32.11,-0.136,1.304,0.144
32.12,-0.236,0.775,0.035
32.13,-0.298,0.826,-0.134
32.14,-0.369,0.926,-0.061
32.15,-0.041,1.01,0.16
32.16,-0.355,1.122,0.027
32.17,-0.21,0.422,-0.121
32.18,-0.448,1.396,-0.054
32.19,0.008,0.768,0.16
32.2,-0.356,1.309,0.019
32.21,-0.203,0.386,-0.195
32.22,-0.404,1.217,-0.041
32.23,-0.017,0.998,0.154
32.24,-0.292,0.906,0.058
32.25,-0.269,0.87,-0.205
32.26,-0.304,0.934,-0.057
32.27,-0.046,1.264,0.127
32.28,-0.158,0.712,-0.003
32.29,-0.335,0.961,-0.216
32.3,-0.243,1.19,-0.104
32.31,-0.07,0.977,0.132
32.32,-0.161,1.03,-0.036
32.33,-0.202,0.544,-0.233
32.34,-0.31,1.711,-0.071
32.35,0.066,0.669,0.117
32.36,-0.277,1.179,0.038
32.37,-0.266,0.432,-0.225
32.38,-0.293,1.609,-0.059
32.39,0.016,0.869,0.075
32.4,-0.103,0.876,0.044
32.41,-0.362,0.9,-0.207
32.42,-0.247,1.195,0.032
32.43,-0.219,1.155,0.187
32.44,-0.035,0.597,0.065
32.45,-0.461,0.956,-0.15
32.46,-0.22,1.37,0.042
32.47,-0.143,0.927,0.126
32.48,0.025,0.582,0.03
32.49,-0.484,0.834,-0.182
32.5,-0.124,1.838,0.037
32.51,-0.213,0.74,0.178
32.52,-0.128,0.88,0.075
32.53,-0.385,0.433,-0.171
32.54,-0.271,2.0,0.1
32.55,-0.169,0.574,0.108
32.56,-0.084,0.958,0.026
32.57,-0.354,0.546,-0.227
32.58,-0.176,1.765,0.072
32.59,-0.125,1.067,0.114
32.6,0.012,0.426,0.02
32.61,-0.425,0.973,-0.178
32.62,-0.028,1.605,0.08
32.63,-0.132,1.147,0.068
32.64,0.046,0.45,0.008
32.65,-0.515,0.931,-0.177
32.66,-0.039,1.902,0.042
32.67,-0.214,0.735,0.139
32.68,-0.03,0.843,0.002
32.69,-0.419,0.354,-0.152
32.7,-0.097,2.0,0.116
32.71,-0.121,0.64,0.159
32.72,-0.056,0.879,-0.014
32.73,-0.366,0.36,-0.234
32.74,-0.057,1.963,0.097
32.75,-0.178,0.954,0.116
32.76,0.015,0.391,-0.033
32.77,-0.557,0.914,-0.203
32.78,0.037,1.605,0.121
32.79,-0.195,1.264,0.048
32.8,0.115,0.316,-0.032
32.81,-0.426,0.885,-0.232
32.82,-0.024,1.64,0.094
32.83,-0.079,0.936,0.117
32.84,-0.015,0.799,-0.038
32.85,-0.351,0.382,-0.188
32.86,-0.183,2.0,0.181
32.87,-0.134,0.666,0.079
32.88,-0.056,0.838,-0.055
32.89,-0.385,0.363,-0.231
32.9,-0.085,1.822,0.088
32.91,-0.187,0.974,0.134
32.92,0.003,0.461,-0.046
32.93,-0.449,0.901,-0.217
32.94,0.005,1.55,0.147
32.95,-0.157,1.32,0.073
32.96,0.046,0.404,-0.069
32.97,-0.512,0.931,-0.189
32.98,0.005,1.646,0.167
32.99,-0.135,1.102,0.077
33.0,-0.027,0.645,-0.088
33.01,-0.427,0.379,-0.186
33.02,-0.191,1.812,0.161
33.03,-0.097,0.783,0.138
33.04,-0.138,0.969,-0.075
33.05,-0.399,0.249,-0.176
33.06,-0.119,1.746,0.182
33.07,-0.229,1.047,0.079
33.08,0.032,0.604,-0.08
33.09,-0.536,0.8,-0.18
33.1,0.039,1.407,0.197
33.11,-0.259,1.394,0.115
33.12,0.094,0.358,-0.049
33.13,-0.57,0.945,-0.197
33.14,0.017,1.387,0.125
33.15,-0.236,1.101,0.067
33.16,-0.023,0.778,-0.061
33.17,-0.483,0.402,-0.188
33.18,-0.117,1.664,0.179
33.19,-0.129,0.816,0.072
33.2,-0.17,0.99,-0.033
33.21,-0.405,0.236,-0.192
33.22,-0.137,1.622,0.204
33.23,-0.196,1.045,0.113
33.24,-0.129,0.628,-0.052
33.25,-0.499,0.719,-0.18
33.26,0.033,1.308,0.138
33.27,-0.225,1.395,0.101
33.28,-0.002,0.376,-0.077
33.29,-0.408,0.908,-0.21
33.3,0.005,1.014,0.143
33.31,-0.196,1.402,0.035
33.32,-0.101,0.484,-0.103
33.33,-0.45,0.706,-0.184
33.34,-0.076,1.245,0.125
33.35,-0.12,1.054,0.012
33.36,-0.072,0.924,-0.132
33.37,-0.448,0.254,-0.178
33.38,-0.123,1.514,0.191
33.39,-0.072,0.881,0.005
33.4,-0.218,0.873,-0.124
33.41,-0.402,0.421,-0.227
33.42,-0.199,1.254,0.195
33.43,-0.15,1.182,0.051
33.44,-0.101,0.513,-0.103
33.45,-0.515,0.95,-0.138
33.46,0.025,0.963,0.2
33.47,-0.267,1.38,0.055
33.48,-0.004,0.461,-0.086
33.49,-0.595,0.84,-0.128
33.5,-0.09,1.139,0.211
33.51,-0.234,1.059,0.031
33.52,-0.248,0.835,-0.12
33.53,-0.423,0.309,-0.13
33.54,-0.168,1.38,0.2
33.55,-0.093,0.832,0.061
33.56,-0.178,0.938,-0.103
33.57,-0.462,0.414,-0.163
33.58,-0.15,1.187,0.22
33.59,-0.204,1.101,0.008
33.6,-0.155,0.498,-0.118
33.61,-0.464,0.918,-0.169
33.62,-0.034,0.894,0.226
33.63,-0.331,1.42,0.077
33.64,-0.059,0.362,-0.098
33.65,-0.542,0.902,-0.143
33.66,0.005,1.104,0.158
33.67,-0.194,1.084,0.006
33.68,-0.168,0.814,-0.132
33.69,-0.427,0.417,-0.152
33.7,-0.158,1.388,0.2
33.71,-0.09,0.781,0.054
33.72,-0.301,0.916,-0.099
33.73,-0.425,0.423,-0.131
33.74,-0.123,1.241,0.201
33.75,-0.286,1.017,0.006
33.76,-0.188,0.539,-0.114
33.77,-0.498,0.937,-0.146
33.78,0.058,0.911,0.214
33.79,-0.321,1.295,0.041
33.8,-0.058,0.436,-0.121
33.81,-0.587,0.975,-0.121
33.82,0.07,0.982,0.222
33.83,-0.245,1.149,0.053
33.84,-0.232,0.672,-0.118
33.85,-0.521,0.5,-0.074
33.86,-0.174,1.31,0.218
33.87,-0.131,0.833,0.052
33.88,-0.281,0.889,-0.084
33.89,-0.446,0.518,-0.078
33.9,-0.149,1.274,0.201
33.91,-0.249,0.93,0.021
33.92,-0.321,0.646,-0.093
33.93,-0.488,0.817,-0.104
33.94,-0.074,0.925,0.255
33.95,-0.221,1.348,0.014
33.96,-0.155,0.268,-0.127
33.97,-0.489,1.04,-0.134
33.98,0.006,0.922,0.174
33.99,-0.232,1.215,-0.029
34.0,-0.245,0.591,-0.079
34.01,-0.41,0.636,-0.102
34.02,-0.123,1.256,0.185
34.03,-0.177,0.771,0.056
34.04,-0.335,0.98,-0.07
34.05,-0.463,0.376,-0.049
34.06,-0.151,1.263,0.242
34.07,-0.18,0.934,-0.014
34.08,-0.265,0.677,-0.097
34.09,-0.252,0.96,-0.129
34.1,0.046,1.064,0.097
34.11,-0.245,1.073,-0.011
34.12,-0.16,0.486,-0.177
34.13,-0.38,1.497,-0.153
34.14,0.09,0.799,0.159
34.15,-0.348,1.279,0.044
34.16,-0.223,0.363,-0.146
34.17,-0.393,1.378,-0.057
34.18,-0.034,0.971,0.178
34.19,-0.226,0.902,0.055
34.2,-0.352,0.855,-0.163
34.21,-0.334,0.892,-0.047
34.22,-0.142,1.247,0.167
34.23,-0.166,0.725,0.066
34.24,-0.369,0.992,-0.168
34.25,-0.34,0.997,-0.088
34.26,-0.11,1.087,0.127
34.27,-0.133,1.028,0.038
34.28,-0.296,0.476,-0.17
34.29,-0.255,1.657,-0.117
34.3,0.048,0.793,0.155
34.31,-0.237,1.166,0.025
34.32,-0.283,0.447,-0.18
34.33,-0.349,1.447,-0.051
34.34,-0.133,0.771,0.17
34.35,-0.188,0.961,0.029
34.36,-0.367,0.801,-0.199
34.37,-0.294,0.955,-0.06
34.38,-0.207,1.205,0.206
34.39,-0.106,0.707,0.102
34.4,-0.408,0.945,-0.156
34.41,-0.287,1.14,-0.057
34.42,-0.073,1.1,0.174
34.43,-0.16,0.89,0.016
34.44,-0.295,0.637,-0.195
34.45,-0.325,1.583,-0.078
34.46,-0.085,0.74,0.152
34.47,-0.303,1.209,0.106
34.48,-0.289,0.416,-0.188
34.49,-0.386,1.708,-0.045
34.5,-0.073,0.807,0.174
34.51,-0.189,0.903,0.031
34.52,-0.409,0.793,-0.165
34.53,-0.273,1.308,-0.049
34.54,-0.161,1.175,0.15
34.55,-0.029,0.571,0.06
34.56,-0.556,1.057,-0.178
34.57,-0.236,1.146,0.014
34.58,-0.211,1.033,0.12
34.59,-0.113,0.838,0.032
34.6,-0.39,0.741,-0.19
34.61,-0.366,1.634,0.005
34.62,-0.063,0.713,0.151
34.63,-0.254,1.16,0.067
34.64,-0.242,0.444,-0.218
34.65,-0.372,1.846,-0.013
34.66,-0.021,0.733,0.112
34.67,-0.14,0.966,0.049
34.68,-0.396,0.768,-0.154
34.69,-0.332,1.432,0.048
34.7,-0.182,1.095,0.141
34.71,-0.027,0.535,0.085
34.72,-0.525,1.055,-0.109
34.73,-0.29,1.306,0.126
34.74,-0.254,1.084,0.213
34.75,-0.117,0.606,0.073
34.76,-0.424,0.845,-0.147
34.77,-0.324,1.779,0.052
34.78,-0.126,0.727,0.177
34.79,-0.169,0.981,0.066
34.8,-0.341,0.45,-0.161
34.81,-0.379,1.994,0.06
34.82,-0.125,0.667,0.161
34.83,-0.121,0.891,0.06
34.84,-0.382,0.664,-0.196
34.85,-0.23,1.626,0.014
34.86,-0.175,1.019,0.168
34.87,0.041,0.524,0.038
34.88,-0.445,1.039,-0.214
34.89,-0.03,1.594,0.051
34.9,-0.242,1.206,0.126
34.91,0.078,0.317,0.03
34.92,-0.414,1.044,-0.175
34.93,-0.15,1.638,0.106
34.94,-0.175,1.006,0.163
34.95,-0.033,0.657,0.006
34.96,-0.475,0.568,-0.216
34.97,-0.122,2.0,0.054
34.98,0.011,0.713,0.141
34.99,-0.141,0.878,0.016
35.0,-0.287,0.377,-0.182
35.01,-0.202,2.0,0.066
35.02,-0.085,0.806,0.128
35.03,-0.018,0.601,-0.008
35.04,-0.336,0.835,-0.248
35.05,-0.066,1.585,0.083
35.06,-0.168,1.098,0.14
35.07,0.108,0.371,0.016
35.08,-0.495,1.081,-0.125
35.09,-0.109,1.616,0.14
35.1,-0.226,1.028,0.148
35.11,0.028,0.609,0.012
35.12,-0.375,0.609,-0.229
35.13,-0.109,1.965,0.131
35.14,0.006,0.717,0.099
35.15,-0.112,0.843,0.002
35.16,-0.306,0.343,-0.195
35.17,-0.209,2.0,0.148
35.18,-0.135,0.629,0.122
35.19,-0.029,0.76,0.038
35.2,-0.345,0.74,-0.246
35.21,-0.138,1.594,0.135
35.22,-0.188,1.202,0.158
35.23,0.011,0.24,0.022
35.24,-0.372,1.075,-0.163
35.25,-0.145,1.544,0.084
35.26,-0.145,1.109,0.216
35.27,-0.055,0.554,-0.003
35.28,-0.403,0.697,-0.19
35.29,-0.155,2.0,0.054
35.3,-0.132,0.663,0.146
35.31,-0.057,0.923,0.01
35.32,-0.313,0.328,-0.27
35.33,-0.188,2.0,0.076
35.34,0.056,0.85,0.134
35.35,-0.114,0.637,-0.004
35.36,-0.311,0.651,-0.264
35.37,-0.067,1.729,0.081
35.38,-0.115,1.068,0.082
35.39,0.05,0.388,-0.015
35.4,-0.434,1.103,-0.233
35.41,-0.094,1.57,0.064
35.42,-0.218,1.054,0.121
35.43,0.002,0.518,0.038
35.44,-0.407,0.794,-0.171
35.45,-0.17,1.864,0.029
35.46,-0.022,0.793,0.126
35.47,-0.091,0.868,-0.018
35.48,-0.333,0.301,-0.23
35.49,-0.145,2.0,0.079
35.5,-0.134,0.717,0.128
35.51,-0.051,0.76,-0.016
35.52,-0.364,0.639,-0.253
35.53,-0.125,0.864,-0.084
35.54,-0.478,0.493,-0.204
35.55,-0.073,1.325,0.17
35.56,-0.194,1.34,0.08
35.57,0.048,0.369,-0.059
35.58,-0.546,0.991,-0.175
35.59,-0.026,1.171,0.215
35.6,-0.269,1.242,0.141
35.61,-0.037,0.606,-0.088
35.62,-0.532,0.683,-0.155
35.63,0.024,1.136,0.133
35.64,-0.199,1.236,0.08
35.65,-0.037,0.754,-0.15
35.66,-0.402,0.471,-0.191
35.67,-0.155,1.455,0.153
35.68,-0.102,0.804,0.094
35.69,-0.216,1.023,-0.108
35.7,-0.411,0.208,-0.208
35.71,-0.147,1.39,0.18
35.72,-0.107,1.041,0.008
35.73,-0.049,0.697,-0.097
35.74,-0.419,0.723,-0.221
35.75,0.013,1.112,0.156
35.76,-0.181,1.358,0.023
35.77,-0.019,0.356,-0.106
35.78,-0.482,0.964,-0.201
35.79,-0.001,1.083,0.182
35.8,-0.269,1.189,0.12
35.81,-0.104,0.729,-0.063
35.82,-0.508,0.453,-0.166
35.83,-0.094,1.522,0.204
35.84,-0.155,0.863,0.151
35.85,-0.177,1.026,-0.09
35.86,-0.487,0.247,-0.168
35.87,-0.143,1.588,0.138
35.88,-0.192,0.986,0.108
35.89,-0.072,0.732,-0.053
35.9,-0.499,0.675,-0.199
35.91,-0.003,1.174,0.133
35.92,-0.33,1.323,0.114
35.93,0.063,0.454,-0.118
35.94,-0.652,0.959,-0.159
35.95,0.074,1.184,0.197
35.96,-0.327,1.297,0.159
35.97,0.019,0.68,-0.064
35.98,-0.549,0.562,-0.163
35.99,-0.052,1.529,0.159
36.0,-0.102,0.923,0.11
36.01,-0.113,0.97,-0.071
36.02,-0.483,0.211,-0.172
36.03,-0.113,1.599,0.181
36.04,-0.213,0.937,0.122
36.05,-0.133,0.865,-0.027
36.06,-0.562,0.53,-0.178
36.07,-0.032,1.39,0.196
36.08,-0.282,1.361,0.116
36.09,-0.046,0.396,-0.029
36.1,-0.574,0.999,-0.165
36.11,-0.001,1.218,0.205
36.12,-0.33,1.309,0.147
36.13,-0.008,0.592,-0.025
36.14,-0.541,0.643,-0.159
36.15,-0.105,1.564,0.213
36.16,-0.189,0.901,0.13
36.17,-0.099,1.0,-0.08
36.18,-0.464,0.224,-0.212
36.19,-0.117,1.726,0.169
36.2,-0.149,0.949,0.121
36.21,-0.127,0.769,-0.049
36.22,-0.427,0.494,-0.223
36.23,-0.054,1.474,0.159
36.24,-0.214,1.232,0.08
36.25,0.006,0.48,-0.072
36.26,-0.561,0.941,-0.187
36.27,0.035,1.342,0.164
36.28,-0.209,1.384,0.073
36.29,0.05,0.516,-0.059
36.3,-0.469,0.716,-0.211
36.31,-0.03,1.569,0.119
36.32,-0.159,0.928,0.086
36.33,-0.137,0.947,-0.066
36.34,-0.44,0.179,-0.207
36.35,-0.149,1.916,0.197
36.36,-0.173,0.872,0.156
36.37,-0.194,0.837,-0.044
36.38,-0.498,0.424,-0.157
36.39,-0.079,1.523,0.206
36.4,-0.197,1.29,0.056
36.41,-0.013,0.39,-0.092
36.42,-0.536,0.952,-0.164
36.43,0.035,1.2,0.152
36.44,-0.355,1.42,0.148
36.45,0.004,0.472,-0.048
36.46,-0.571,0.864,-0.151
36.47,0.023,1.298,0.259
36.48,-0.226,1.243,0.107
36.49,-0.012,0.65,-0.089
36.5,-0.473,0.561,-0.202
36.51,-0.175,1.538,0.208
36.52,-0.108,0.822,0.08
36.53,-0.213,1.067,-0.067
36.54,-0.358,0.197,-0.175
36.55,-0.065,1.591,0.109
36.56,-0.131,1.028,0.069
36.57,-0.123,0.75,-0.051
36.58,-0.448,0.595,-0.174
36.59,-0.098,1.323,0.238
36.6,-0.208,1.389,0.104
36.61,-0.024,0.412,-0.062
36.62,-0.527,0.935,-0.17
36.63,-0.06,1.308,0.227
36.64,-0.236,1.284,0.097
36.65,-0.077,0.582,-0.06
36.66,-0.457,0.63,-0.185
36.67,-0.175,1.531,0.158
36.68,-0.167,0.827,0.101
36.69,-0.23,1.046,-0.039
36.7,-0.423,0.179,-0.134
36.71,-0.208,1.606,0.171
36.72,-0.101,0.94,0.071
36.73,-0.18,0.801,-0.087
36.74,-0.368,0.596,-0.157
36.75,-0.151,1.29,0.219
36.76,-0.183,1.278,0.096
36.77,-0.038,0.401,-0.124
36.78,-0.488,0.988,-0.169
36.79,-0.094,1.114,0.169
36.8,-0.236,1.259,0.058
36.81,-0.141,0.607,0.006
36.82,-0.589,0.613,-0.117
36.83,-0.109,1.424,0.233
36.84,-0.147,0.931,0.052
36.85,-0.242,1.0,-0.092
36.86,-0.448,0.227,-0.13
36.87,-0.252,1.707,0.202
36.88,-0.105,0.93,0.129
36.89,-0.136,0.817,-0.104
36.9,-0.486,0.54,-0.202
36.91,-0.006,1.321,0.161
36.92,-0.216,1.292,0.067
36.93,-0.011,0.487,-0.115
36.94,-0.493,0.971,-0.181
36.95,-0.036,1.081,0.171
36.96,-0.254,1.352,0.064
36.97,-0.042,0.576,-0.114
36.98,-0.424,0.676,-0.261
36.99,-0.007,1.379,0.067
37.0,-0.055,1.084,0.039
37.01,-0.107,0.957,-0.13
37.02,-0.426,0.189,-0.142
37.03,-0.14,1.567,0.175
37.04,-0.143,0.885,0.081
37.05,-0.083,0.99,-0.098
37.06,-0.484,0.409,-0.206
37.07,-0.057,1.292,0.161
37.08,-0.245,1.265,0.054
37.09,-0.009,0.481,-0.142
37.1,-0.537,0.957,-0.194
37.11,-0.007,0.983,0.156
37.12,-0.322,1.438,0.033
37.13,-0.017,0.496,-0.055
37.14,-0.563,0.755,-0.152
37.15,-0.035,1.228,0.194
37.16,-0.181,1.029,0.046
37.17,-0.18,0.939,-0.13
37.18,-0.348,0.313,-0.113
37.19,-0.268,1.429,0.191
37.2,-0.142,0.857,0.065
37.21,-0.216,0.968,-0.117
37.22,-0.444,0.441,-0.147
37.23,-0.094,1.198,0.179
37.24,-0.24,0.88,0.004
37.25,-0.261,0.721,-0.068
37.26,-0.437,0.903,-0.085
37.27,-0.096,0.975,0.19
37.28,-0.26,1.321,-0.006
37.29,-0.218,0.26,-0.124
37.3,-0.4,1.23,-0.039
37.31,-0.01,0.811,0.185
37.32,-0.327,1.301,0.056
37.33,-0.276,0.558,-0.116
37.34,-0.366,0.823,-0.041
37.35,-0.09,1.128,0.11
37.36,-0.091,0.819,-0.023
37.37,-0.411,0.884,-0.173
37.38,-0.281,0.706,-0.027
37.39,-0.161,1.221,0.124
37.4,-0.196,0.874,0.055
37.41,-0.327,0.752,-0.155
37.42,-0.301,1.183,-0.086
37.43,-0.035,0.884,0.145
37.44,-0.272,1.229,-0.019
37.45,-0.193,0.371,-0.218
37.46,-0.291,1.626,-0.071
37.47,-0.009,0.716,0.127
37.48,-0.244,1.135,0.045
37.49,-0.306,0.551,-0.202
37.5,-0.3,1.301,-0.084
37.51,-0.136,0.959,0.106
37.52,-0.126,0.75,-0.012
37.53,-0.411,0.972,-0.229
37.54,-0.191,1.066,-0.038
37.55,-0.215,1.182,0.163
37.56,-0.053,0.659,0.02
37.57,-0.446,0.959,-0.19
37.58,-0.222,1.425,0.003
37.59,-0.127,0.834,0.112
37.6,-0.134,1.032,0.016
37.61,-0.333,0.488,-0.199
37.62,-0.298,1.814,0.013
37.63,-0.086,0.648,0.113
37.64,-0.165,1.092,0.043
37.65,-0.36,0.504,-0.195
37.66,-0.185,1.694,-0.007
37.67,-0.075,0.937,0.121
37.68,-0.012,0.587,0.04
37.69,-0.469,1.006,-0.206
37.7,-0.22,1.373,0.043
37.71,-0.217,1.103,0.175
37.72,-0.071,0.501,0.027
37.73,-0.484,0.994,-0.202
37.74,-0.222,1.615,0.059
37.75,-0.187,0.859,0.158
37.76,-0.143,0.827,0.04
37.77,-0.351,0.516,-0.197
37.78,-0.318,1.982,0.079
37.79,-0.094,0.649,0.134
37.8,-0.136,1.015,0.048
37.81,-0.385,0.399,-0.199
37.82,-0.187,1.888,0.061
37.83,-0.172,0.856,0.123
37.84,-0.044,0.566,0.021
37.85,-0.422,0.935,-0.2
37.86,-0.117,1.507,0.115
37.87,-0.24,1.094,0.143
37.88,0.079,0.434,0.046
37.89,-0.501,1.042,-0.181
37.9,-0.093,1.678,0.082
37.91,-0.253,0.909,0.185
37.92,-0.022,0.722,0.039
37.93,-0.415,0.475,-0.162
37.94,-0.121,2.0,0.127
37.95,-0.006,0.736,0.114
37.96,-0.192,0.833,-0.002
37.97,-0.374,0.353,-0.19
37.98,-0.196,2.0,0.153
37.99,-0.13,0.803,0.13
38.0,-0.043,0.555,-0.027
38.01,-0.38,0.814,-0.231
38.02,-0.093,1.625,0.124
38.03,-0.097,1.273,0.145
38.04,0.056,0.355,-0.059
38.05,-0.358,0.999,-0.219
38.06,-0.004,1.406,0.157
38.07,-0.117,1.331,0.06
38.08,-0.059,0.531,-0.072
38.09,-0.4,0.75,-0.192
38.1,-0.071,1.772,0.199
38.11,-0.118,1.003,0.091
38.12,-0.123,0.83,-0.099
38.13,-0.346,0.28,-0.179
38.14,-0.21,1.902,0.134
38.15,-0.079,0.847,0.084
38.16,-0.082,0.895,-0.073
38.17,-0.439,0.35,-0.167
38.18,-0.027,1.605,0.151
38.19,-0.169,1.149,0.045
38.2,0.005,0.553,-0.067
38.21,-0.503,0.878,-0.202
38.22,-0.013,1.208,0.222
38.23,-0.222,1.434,0.057
38.24,0.007,0.463,-0.069
38.25,-0.476,0.787,-0.19
38.26,-0.058,1.354,0.117
38.27,-0.206,1.017,0.063
38.28,-0.119,0.98,-0.093
38.29,-0.39,0.195,-0.145
38.3,-0.172,1.577,0.155
38.31,-0.106,0.824,0.021
38.32,-0.153,1.022,-0.112
38.33,-0.426,0.325,-0.212
38.34,-0.058,1.245,0.188
38.35,-0.271,1.192,0.01
38.36,-0.014,0.566,-0.133
38.37,-0.517,0.939,-0.166
38.38,-0.031,0.906,0.208
38.39,-0.257,1.341,0.018
38.4,-0.098,0.464,-0.125
38.41,-0.466,0.875,-0.106
38.42,-0.106,0.979,0.162
38.43,-0.249,1.096,0.014
38.44,-0.195,0.769,-0.116
38.45,-0.46,0.373,-0.1
38.46,-0.076,1.348,0.19
38.47,-0.215,0.801,-0.025
38.48,-0.299,0.933,-0.121
38.49,-0.449,0.44,-0.107
38.5,-0.076,1.175,0.177
38.51,-0.197,1.111,-0.05
38.52,-0.178,0.457,-0.141
38.53,-0.468,1.095,-0.098
38.54,0.015,0.846,0.182
38.55,-0.268,1.361,0.016
38.56,-0.181,0.289,-0.158
38.57,-0.362,1.228,-0.035
38.58,-0.033,0.85,0.104
38.59,-0.249,1.067,0.027
38.6,-0.306,0.747,-0.147
38.61,-0.379,0.736,-0.025
38.62,-0.214,1.141,0.161
38.63,-0.142,0.773,0.015
38.64,-0.375,0.872,-0.174
38.65,-0.262,0.875,-0.025
38.66,-0.229,1.105,0.17
38.67,-0.22,0.962,0.054
38.68,-0.322,0.573,-0.131
38.69,-0.316,1.482,-0.045
38.7,-0.093,0.76,0.149
38.71,-0.247,1.25,0.003
38.72,-0.31,0.346,-0.181
38.73,-0.366,1.55,-0.002
38.74,-0.114,0.758,0.13
38.75,-0.266,1.125,0.026
38.76,-0.38,0.623,-0.174
38.77,-0.31,1.174,0.027
38.78,-0.126,1.135,0.155
38.79,-0.126,0.709,-0.009
38.8,-0.421,0.925,-0.187
38.81,-0.149,1.228,0.052
38.82,-0.096,1.087,0.147
38.83,-0.151,0.713,0.07
38.84,-0.478,0.967,-0.162
38.85,-0.138,1.725,0.052
38.86,-0.196,0.853,0.093
38.87,-0.07,0.779,-0.024
38.88,-0.438,0.474,-0.135
38.89,-0.204,2.0,0.093
38.9,-0.153,0.554,0.158
38.91,-0.086,0.967,-0.018
38.92,-0.475,0.29,-0.183
38.93,-0.052,1.966,0.136
38.94,-0.12,0.953,0.085
38.95,-0.005,0.438,-0.038
38.96,-0.458,0.789,-0.206
38.97,0.021,1.67,0.181
38.98,-0.178,1.242,0.093
38.99,0.099,0.304,-0.044
39.0,-0.535,0.916,-0.231
39.01,-0.056,1.633,0.054
39.02,-0.09,1.04,0.04
39.03,0.044,0.711,-0.072
39.04,-0.374,0.354,-0.206
39.05,-0.027,1.868,0.168
39.06,0.009,0.866,-0.009
39.07,-0.082,0.936,-0.069
39.08,-0.316,0.255,-0.2
39.09,-0.151,1.861,0.179
39.1,-0.1,0.921,0.045
39.11,-0.163,0.644,-0.051
39.12,-0.36,0.737,-0.23
39.13,-0.116,1.244,0.192
39.14,-0.285,1.44,0.114
39.15,-0.003,0.45,-0.017
39.16,-0.454,0.899,-0.154
39.17,-0.041,1.123,0.22
39.18,-0.212,1.228,0.05
39.19,-0.133,0.822,-0.079
39.2,-0.442,0.443,-0.07
39.21,-0.206,1.382,0.237
39.22,-0.122,0.859,0.01
39.23,-0.178,1.039,-0.122
39.24,-0.396,0.321,-0.108
39.25,-0.114,1.263,0.201
39.26,-0.28,0.904,-0.006
39.27,-0.162,0.782,-0.122
39.28,-0.415,0.837,-0.126
39.29,-0.013,0.9,0.158
39.3,-0.318,1.329,0.001
39.31,-0.166,0.316,-0.16
39.32,-0.407,1.154,-0.041
39.33,-0.04,0.772,0.165
39.34,-0.323,1.254,0.023
39.35,-0.182,0.508,-0.159
39.36,-0.295,1.021,-0.082
39.37,-0.078,1.128,0.133
39.38,-0.218,0.74,0.041
39.39,-0.387,0.935,-0.143
39.4,-0.249,0.877,-0.038
39.41,-0.146,1.16,0.143
39.42,-0.184,0.84,0.02
39.43,-0.42,0.725,-0.18
39.44,-0.217,1.39,-0.008
39.45,-0.062,0.81,0.14
39.46,-0.243,1.142,-0.004
39.47,-0.211,0.396,-0.186
39.48,-0.362,1.876,0.003
39.49,0.015,0.742,0.145
39.5,-0.226,0.979,-0.004
39.51,-0.39,0.581,-0.207
39.52,-0.247,1.59,0.024
39.53,-0.155,0.943,0.162
39.54,0.05,0.559,-0.04
39.55,-0.545,1.015,-0.242
39.56,-0.085,1.329,0.039
39.57,-0.289,1.042,0.151
39.58,0.022,0.607,0.033
39.59,-0.548,0.838,-0.192
39.6,-0.054,1.788,0.015
39.61,-0.18,0.808,0.171
39.62,-0.117,0.824,0.041
39.63,-0.449,0.386,-0.118
39.64,-0.265,2.0,0.139
39.65,-0.039,0.698,0.139
39.66,-0.164,0.877,0.003
39.67,-0.377,0.264,-0.212
39.68,-0.149,2.0,0.181
39.69,-0.092,0.801,0.107
39.7,-0.09,0.629,-0.058
39.71,-0.353,0.651,-0.203
39.72,-0.068,1.679,0.148
39.73,-0.122,1.288,0.065
39.74,-0.002,0.261,-0.058
39.75,-0.41,0.964,-0.182
39.76,-0.05,1.482,0.126
39.77,-0.165,1.235,0.138
39.78,-0.011,0.707,-0.061
39.79,-0.476,0.482,-0.146
39.8,-0.072,1.81,0.175
39.81,-0.092,0.892,0.086
39.82,-0.096,0.994,-0.067
39.83,-0.376,0.175,-0.176
39.84,-0.198,1.618,0.154
39.85,-0.138,0.909,0.058
39.86,-0.152,0.872,-0.072
39.87,-0.362,0.585,-0.186
39.88,-0.16,1.085,0.187
39.89,-0.26,1.305,0.056
39.9,-0.056,0.534,-0.072
39.91,-0.482,0.953,-0.095
39.92,-0.037,0.904,0.191
39.93,-0.308,1.327,0.014
39.94,-0.065,0.633,-0.092
39.95,-0.435,0.69,-0.117
39.96,-0.085,1.186,0.176
39.97,-0.2,0.845,0.023
39.98,-0.302,0.949,-0.145
39.99,-0.342,0.374,-0.036
40.0,-0.217,1.275,0.162
40.01,-0.266,0.876,0.004
40.02,-0.263,0.735,-0.161
40.03,-0.299,0.884,-0.08
40.04,-0.061,0.93,0.14
40.05,-0.322,1.247,-0.019
40.06,-0.17,0.377,-0.128
40.07,-0.345,1.448,-0.018
40.08,0.006,0.689,0.121
40.09,-0.237,1.262,-0.034
40.1,-0.26,0.416,-0.244
40.11,-0.213,1.337,-0.076
40.12,-0.081,1.026,0.101
40.13,-0.194,0.738,-0.015
40.14,-0.354,0.961,-0.216
40.15,-0.2,1.176,0.02
40.16,-0.165,1.21,0.209
40.17,-0.105,0.553,0.019
40.18,-0.512,0.904,-0.177
40.19,-0.126,1.625,0.034
40.2,-0.191,0.884,0.158
40.21,-0.174,0.849,0.025
40.22,-0.459,0.456,-0.156
40.23,-0.226,2.0,0.107
40.24,-0.079,0.623,0.132
40.25,-0.149,0.929,0.008
40.26,-0.465,0.453,-0.156
40.27,-0.19,1.987,0.116
40.28,-0.162,0.852,0.142
40.29,-0.06,0.529,-0.016
40.3,-0.478,0.918,-0.161
40.31,-0.053,1.626,0.137
40.32,-0.155,1.229,0.175
40.33,-0.019,0.329,0.034
40.34,-0.456,0.932,-0.146
40.35,-0.054,1.825,0.061
40.36,-0.114,1.035,0.148
40.37,-0.024,0.74,-0.082
40.38,-0.383,0.333,-0.17
40.39,-0.131,2.0,0.136
40.4,0.005,0.718,0.109
40.41,-0.156,0.885,-0.042
40.42,-0.409,0.255,-0.191
40.43,-0.148,1.93,0.144
40.44,-0.125,0.96,0.033
40.45,-0.106,0.907,-0.058
40.46,-0.437,0.467,-0.154
40.47,-0.058,1.227,0.182
40.48,-0.239,1.316,0.019
40.49,0.064,0.569,-0.107
40.5,-0.515,0.906,-0.124
40.51,0.025,0.961,0.199
40.52,-0.289,1.327,0.044
40.53,-0.029,0.622,-0.083
40.54,-0.468,0.666,-0.143
40.55,-0.052,1.199,0.153
40.56,-0.206,0.99,-0.049
40.57,-0.161,0.973,-0.135
40.58,-0.401,0.309,-0.103
40.59,-0.137,1.33,0.189
40.6,-0.205,0.8,-0.028
40.61,-0.284,0.976,-0.116
40.62,-0.39,0.565,-0.088
40.63,-0.068,1.053,0.176
40.64,-0.262,1.237,-0.023
40.65,-0.154,0.405,-0.163
40.66,-0.434,1.275,-0.045
40.67,0.009,0.763,0.192
40.68,-0.397,1.307,0.036
40.69,-0.208,0.371,-0.129
40.7,-0.326,1.289,-0.025
40.71,-0.057,0.927,0.148
40.72,-0.27,0.804,0.025
40.73,-0.429,0.905,-0.14
40.74,-0.268,0.889,0.012
40.75,-0.263,1.209,0.178
40.76,-0.161,0.755,0.034
40.77,-0.408,0.864,-0.186
40.78,-0.175,1.246,0.038
40.79,-0.09,0.917,0.119
40.8,-0.167,0.975,-0.025
40.81,-0.36,0.525,-0.187
40.82,-0.216,1.801,0.022
40.83,-0.054,0.662,0.112
40.84,-0.215,1.106,-0.001
40.85,-0.394,0.389,-0.219
40.86,-0.267,1.831,0.069
40.87,-0.146,0.797,0.176
40.88,-0.102,0.687,0.005
40.89,-0.543,0.813,-0.221
40.9,-0.081,1.516,0.076
40.91,-0.108,1.231,0.127
40.92,-0.059,0.356,0.027
40.93,-0.46,1.013,-0.156
40.94,-0.145,1.734,0.1
40.95,-0.077,0.976,0.113
40.96,-0.052,0.687,-0.026
40.97,-0.411,0.53,-0.163
40.98,-0.155,2.0,0.089
40.99,-0.014,0.662,0.115
41.0,-0.108,0.952,-0.015
41.01,-0.325,0.236,-0.196
41.02,-0.159,2.0,0.096
41.03,0.002,0.929,0.061
41.04,-0.095,0.619,-0.041
41.05,-0.305,0.721,-0.204
41.06,-0.071,1.627,0.137
41.07,-0.162,1.334,0.188
41.08,-0.029,0.3,-0.05
41.09,-0.476,0.914,-0.175
41.1,-0.063,1.492,0.216
41.11,-0.163,1.215,0.048
41.12,-0.002,0.712,-0.05
41.13,-0.355,0.43,-0.168
41.14,-0.163,1.609,0.183
41.15,-0.026,0.859,0.065
41.16,-0.16,1.149,-0.118
41.17,-0.342,0.142,-0.122
41.18,-0.172,1.539,0.19
41.19,-0.204,1.038,0.09
41.2,-0.014,0.83,-0.072
41.21,-0.48,0.679,-0.138
41.22,-0.032,1.043,0.245
41.23,-0.321,1.35,0.057
41.24,-0.059,0.423,-0.094
41.25,-0.345,1.162,-0.089
41.26,-0.032,0.758,0.169
41.27,-0.277,1.33,-0.032
41.28,-0.251,0.433,-0.144
41.29,-0.368,1.026,0.006
41.3,-0.173,0.86,0.144
41.31,-0.266,1.006,0.029
41.32,-0.317,0.726,-0.131
41.33,-0.238,0.897,-0.011
41.34,-0.139,1.177,0.14
41.35,-0.181,0.707,0.013
41.36,-0.465,0.929,-0.184
41.37,-0.176,1.055,0.036
41.38,-0.179,0.976,0.121
41.39,-0.212,0.963,-0.041
41.4,-0.377,0.531,-0.19
41.41,-0.24,1.657,0.042
41.42,-0.081,0.658,0.104
41.43,-0.207,1.154,-0.017
41.44,-0.328,0.304,-0.205
41.45,-0.18,1.899,0.046
41.46,-0.054,0.806,0.15
41.47,-0.155,0.694,0.054
41.48,-0.533,0.761,-0.211
41.49,-0.119,1.614,0.086
41.5,-0.236,1.052,0.137
41.51,-0.005,0.433,0.032
41.52,-0.606,1.021,-0.141
41.53,-0.089,1.657,0.114
41.54,-0.194,1.025,0.15
41.55,-0.039,0.621,0.001
41.56,-0.445,0.578,-0.14
41.57,-0.141,1.981,0.157
41.58,0.074,0.748,0.073
41.59,-0.115,0.919,-0.052
41.6,-0.308,0.21,-0.203
41.61,-0.194,2.0,0.095
41.62,-0.033,0.853,0.105
41.63,-0.109,0.671,-0.065
41.64,-0.424,0.607,-0.199
41.65,-0.081,1.536,0.172
41.66,-0.179,1.346,0.097
41.67,0.072,0.415,-0.038
41.68,-0.503,0.931,-0.14
41.69,-0.039,1.231,0.158
41.7,-0.247,1.233,0.051
41.71,-0.023,0.76,-0.067
41.72,-0.491,0.512,-0.097
41.73,-0.191,1.423,0.182
41.74,-0.084,0.905,-0.006
41.75,-0.208,1.04,-0.084
41.76,-0.334,0.218,-0.087
41.77,-0.192,1.389,0.21
41.78,-0.176,0.927,-0.065
41.79,-0.138,0.881,-0.106
41.8,-0.358,0.648,-0.149
41.81,0.013,0.986,0.188
41.82,-0.373,1.348,-0.023
41.83,-0.091,0.378,-0.107
41.84,-0.486,1.146,-0.001
41.85,-0.013,0.783,0.16
41.86,-0.415,1.281,-0.018
41.87,-0.207,0.538,-0.156
41.88,-0.344,1.059,0.003
41.89,-0.065,1.068,0.169
41.9,-0.188,0.759,-0.044
41.91,-0.378,0.962,-0.148
41.92,-0.219,1.008,-0.006
41.93,-0.158,1.221,0.167
41.94,-0.138,0.724,0.013
41.95,-0.507,0.812,-0.152
41.96,-0.192,1.491,0.093
41.97,-0.104,0.883,0.198
41.98,-0.266,0.933,0.001
41.99,-0.365,0.482,-0.189
42.0,-0.255,2.0,0.034
42.01,-0.075,0.676,0.164
42.02,-0.152,0.981,-0.006
42.03,-0.46,0.467,-0.195
42.04,-0.222,1.881,0.113
42.05,-0.072,0.674,0.092
42.06,-0.074,0.714,0.002
42.07,-0.456,0.658,-0.22
42.08,-0.06,1.743,0.123
42.09,-0.19,1.182,0.111
42.1,0.134,0.319,-0.044
42.11,-0.502,0.937,-0.193
42.12,-0.095,1.527,0.146
42.13,-0.154,1.178,0.134
42.14,-0.109,0.573,-0.042
42.15,-0.419,0.531,-0.125
42.16,-0.152,1.767,0.193
42.17,-0.107,0.861,0.114
42.18,-0.1,1.008,-0.07
42.19,-0.373,0.173,-0.122
42.2,-0.181,1.722,0.226
42.21,-0.106,0.905,0.088
42.22,-0.159,0.872,-0.103
42.23,-0.328,0.519,-0.15
42.24,-0.121,1.203,0.149
42.25,-0.31,1.314,0.036
42.26,0.007,0.46,-0.082
42.27,-0.556,0.975,-0.107
42.28,-0.012,0.912,0.203
42.29,-0.327,1.313,-0.001
42.3,-0.139,0.628,-0.087
42.31,-0.542,0.593,-0.029
42.32,-0.093,1.152,0.212
42.33,-0.208,0.936,0.002
42.34,-0.226,0.967,-0.124
42.35,-0.382,0.36,-0.053
42.36,-0.116,1.307,0.199
42.37,-0.23,0.834,0.031
42.38,-0.294,0.814,-0.101
42.39,-0.315,0.92,-0.069
42.4,-0.046,0.976,0.141
42.41,-0.313,1.232,-0.022
42.42,-0.187,0.393,-0.177
42.43,-0.33,1.394,-0.084
42.44,-0.032,0.74,0.126
42.45,-0.324,1.285,-0.006
42.46,-0.2,0.458,-0.239
42.47,-0.266,1.306,-0.069
42.48,-0.104,0.948,0.091
42.49,-0.232,0.835,0.093
42.5,-0.406,0.896,-0.183
42.51,-0.235,1.116,0.017
42.52,-0.201,1.146,0.155
42.53,-0.128,0.669,0.08
42.54,-0.527,0.942,-0.145
42.55,-0.171,1.506,0.06
42.56,-0.166,0.846,0.15
42.57,-0.088,1.001,-0.007
42.58,-0.376,0.416,-0.195
42.59,-0.226,2.0,0.072
42.6,-0.039,0.604,0.065
42.61,-0.083,0.959,-0.017
42.62,-0.366,0.353,-0.244
42.63,-0.129,1.939,0.06
42.64,-0.081,0.924,0.099
42.65,-0.043,0.465,-0.058
42.66,-0.479,0.846,-0.19
42.67,-0.033,1.673,0.141
42.68,-0.3,1.258,0.191
42.69,0.002,0.296,0.011
42.7,-0.51,0.944,-0.196
42.71,-0.004,1.705,0.141
42.72,-0.125,1.011,0.056
42.73,-0.048,0.624,-0.063
42.74,-0.369,0.365,-0.177
42.75,-0.129,1.936,0.173
42.76,-0.135,0.698,0.115
42.77,-0.163,0.928,-0.068
42.78,-0.336,0.239,-0.152
42.79,-0.114,1.894,0.168
42.8,-0.121,1.028,0.091
42.81,-0.119,0.526,-0.093
42.82,-0.417,0.734,-0.211
42.83,-0.051,1.359,0.228
42.84,-0.213,1.335,0.041
42.85,-0.04,0.425,-0.071
42.86,-0.47,0.949,-0.159
42.87,-0.085,0.916,0.188
42.88,-0.277,1.337,0.013
42.89,-0.228,0.542,-0.098
42.9,-0.441,0.641,-0.1
42.91,-0.132,1.138,0.152
42.92,-0.176,0.975,0.047
42.93,-0.286,0.905,-0.138
42.94,-0.437,0.336,-0.057
42.95,-0.164,1.29,0.175
42.96,-0.214,0.838,0.038
42.97,-0.338,0.85,-0.116
42.98,-0.362,0.861,-0.038
42.99,-0.078,1.015,0.151
43.0,-0.291,1.166,0.017
43.01,-0.177,0.43,-0.182
43.02,-0.364,1.451,-0.043
43.03,0.007,0.718,0.166
43.04,-0.405,1.247,0.053
43.05,-0.21,0.43,-0.219
43.06,-0.27,1.47,-0.096
43.07,0.024,0.967,0.122
43.08,-0.142,0.77,-0.009
43.09,-0.371,0.941,-0.173
43.1,-0.167,1.201,-0.041
43.11,-0.181,1.178,0.159
43.12,-0.108,0.614,0.027
43.13,-0.428,0.963,-0.176
43.14,-0.287,1.4,0.057
43.15,-0.138,0.874,0.116
43.16,-0.222,0.911,0.038
43.17,-0.354,0.57,-0.149
43.18,-0.358,1.897,0.084
43.19,-0.064,0.615,0.177
43.2,-0.22,1.07,0.024
43.21,-0.387,0.337,-0.19
43.22,-0.26,1.957,0.052
43.23,-0.122,0.778,0.09
43.24,-0.023,0.67,-0.002
43.25,-0.451,0.833,-0.213
43.26,-0.042,1.596,0.09
43.27,-0.284,1.173,0.152
43.28,0.104,0.383,0.034
43.29,-0.448,0.999,-0.18
43.3,0.036,1.683,0.092
43.31,-0.139,0.982,0.06
43.32,0.016,0.668,-0.037
43.33,-0.458,0.495,-0.157
43.34,-0.08,2.0,0.133
43.35,-0.06,0.679,0.072
43.36,-0.107,0.846,-0.051
43.37,-0.374,0.28,-0.173
43.38,-0.107,2.0,0.109
43.39,-0.154,0.789,0.093
43.4,-0.058,0.595,-0.041
43.41,-0.531,0.715,-0.187
43.42,-0.073,1.557,0.179
43.43,-0.277,1.337,0.133
43.44,0.041,0.296,-0.013
43.45,-0.582,0.982,-0.173
43.46,-0.004,1.386,0.216
43.47,-0.26,1.187,0.092
43.48,-0.029,0.723,-0.095
43.49,-0.387,0.433,-0.141
43.5,-0.157,1.674,0.173
43.51,-0.1,0.854,0.076
43.52,-0.155,1.032,-0.114
43.53,-0.402,0.144,-0.179
43.54,-0.09,1.647,0.143
43.55,-0.103,1.013,0.045
43.56,-0.074,0.74,-0.116
43.57,-0.407,0.605,-0.251
43.58,-0.038,1.137,0.173
43.59,-0.222,1.302,0.035
43.6,-0.112,0.392,-0.165
43.61,-0.499,0.907,-0.149
43.62,0.031,1.016,0.134
43.63,-0.262,1.354,-0.022
43.64,-0.146,0.555,-0.111
43.65,-0.474,0.514,-0.096
43.66,-0.019,1.013,0.132
43.67,-0.258,1.044,0.085
43.68,-0.268,0.833,-0.182
43.69,-0.301,0.611,-0.077
43.7,-0.16,1.261,0.123
43.71,-0.173,0.765,0.076
43.72,-0.33,0.924,-0.146
43.73,-0.268,0.936,-0.078
43.74,-0.119,1.102,0.154
43.75,-0.225,1.066,-0.037
43.76,-0.257,0.514,-0.211
43.77,-0.237,1.596,-0.071
43.78,-0.037,0.71,0.147
43.79,-0.267,1.212,0.051
43.8,-0.341,0.416,-0.204
43.81,-0.304,1.62,-0.01
43.82,-0.122,0.811,0.123
43.83,-0.125,0.906,0.044
43.84,-0.391,0.781,-0.25
43.85,-0.149,1.316,0.03
43.86,-0.196,1.176,0.163
43.87,-0.129,0.614,0.168
43.88,-0.086,0.836,-0.016
43.89,-0.368,0.359,-0.139
43.9,-0.156,2.0,0.131
43.91,-0.021,0.672,0.063
43.92,-0.085,0.862,-0.031
43.93,-0.391,0.382,-0.175
43.94,-0.088,1.901,0.121
43.95,-0.109,1.078,0.082
43.96,-0.006,0.412,-0.07
43.97,-0.465,0.885,-0.191
43.98,-0.027,1.597,0.199
43.99,-0.258,1.291,0.155
44.0,0.029,0.381,0.012
44.01,-0.53,0.854,-0.202
44.02,-0.044,1.509,0.154
44.03,-0.196,1.065,0.11
44.04,-0.064,0.825,-0.094
44.05,-0.349,0.233,-0.124
44.06,-0.214,1.707,0.178
44.07,-0.101,0.801,0.132
44.08,-0.189,1.033,-0.073
44.09,-0.4,0.223,-0.165
44.1,-0.097,1.537,0.207
44.11,-0.187,1.202,0.072
44.12,0.004,0.542,-0.141
44.13,-0.436,0.876,-0.177
44.14,-0.004,1.032,0.19
44.15,-0.259,1.408,0.007
44.16,-0.133,0.426,-0.087
44.17,-0.389,0.798,-0.165
44.18,-0.145,1.047,0.188
44.19,-0.207,1.114,0.026
44.2,-0.271,0.803,-0.11
44.21,-0.476,0.369,-0.028
44.22,-0.209,1.321,0.215
44.23,-0.16,0.821,0.047
44.24,-0.37,0.896,-0.077
44.25,-0.298,0.58,-0.045
44.26,-0.097,1.17,0.149
44.27,-0.225,1.062,-0.03
44.28,-0.278,0.546,-0.162
44.29,-0.344,1.162,-0.067
44.3,0.005,0.8,0.127
44.31,-0.293,1.323,0.014
44.32,-0.21,0.354,-0.184
44.33,-0.287,1.449,-0.075
44.34,-0.069,0.831,0.108
44.35,-0.21,1.028,-0.016
44.36,-0.339,0.711,-0.195
44.37,-0.161,1.214,-0.047
44.38,-0.106,1.117,0.086
44.39,0.057,0.6,-0.004
44.4,-0.512,0.944,-0.189
44.41,-0.161,1.361,0.137
44.42,-0.318,1.095,0.169
44.43,-0.093,0.526,0.07
44.44,-0.432,0.884,-0.143
44.45,-0.184,1.694,0.081
44.46,-0.161,0.867,0.175
44.47,-0.122,0.747,0.0
44.48,-0.302,0.411,-0.157
44.49,-0.146,2.0,0.102
44.5,-0.086,0.612,0.103
44.51,-0.145,0.911,-0.023
44.52,-0.423,0.365,-0.21
44.53,-0.087,2.0,0.187
44.54,-0.192,0.951,0.114
44.55,-0.003,0.357,-0.03
44.56,-0.51,0.91,-0.157
44.57,-0.057,1.432,0.132
44.58,-0.183,1.296,0.062
44.59,0.008,0.384,-0.058
44.6,-0.433,0.845,-0.169
44.61,-0.014,1.615,0.18
44.62,-0.24,1.053,0.12
44.63,-0.109,0.793,-0.041
44.64,-0.461,0.365,-0.134
44.65,-0.133,1.817,0.226
44.66,-0.184,0.844,0.119
44.67,-0.206,0.894,-0.076
44.68,-0.387,0.241,-0.134
44.69,-0.166,1.526,0.191
44.7,-0.214,1.072,0.093
44.71,-0.099,0.725,-0.113
44.72,-0.436,0.732,-0.179
44.73,0.029,1.087,0.199
44.74,-0.287,1.45,0.075
44.75,-0.056,0.461,-0.065
44.76,-0.527,0.869,-0.14
44.77,-0.001,1.071,0.152
44.78,-0.206,1.212,-0.027
44.79,-0.168,0.737,-0.126
44.8,-0.425,0.419,-0.117
44.81,-0.143,1.338,0.137
44.82,-0.169,0.766,-0.051
44.83,-0.388,0.987,-0.096
44.84,-0.551,0.389,0.009
44.85,-0.17,1.227,0.233
44.86,-0.238,1.056,0.037
44.87,-0.304,0.521,-0.062
44.88,-0.392,1.132,0.0
44.89,-0.055,0.844,0.158
44.9,-0.32,1.285,0.031
44.91,-0.177,0.35,-0.131
44.92,-0.327,1.454,-0.055
44.93,0.0,0.822,0.147
44.94,-0.185,1.059,0.035
44.95,-0.39,0.727,-0.175
44.96,-0.244,1.013,-0.028
44.97,-0.242,1.113,0.151
44.98,-0.179,0.703,0.017
44.99,-0.42,0.955,-0.205
45.0,-0.152,1.097,-0.008
45.01,-0.16,1.053,0.112
45.02,-0.073,0.783,0.012
45.03,-0.38,0.789,-0.192
45.04,-0.168,1.668,-0.004
45.05,-0.132,0.722,0.146
45.06,-0.145,1.064,-0.011
45.07,-0.38,0.322,-0.256
45.08,-0.205,2.0,0.054
45.09,-0.098,0.676,0.132
45.1,-0.13,0.86,0.013
45.11,-0.42,0.641,-0.217
45.12,-0.188,1.669,0.042
45.13,-0.121,1.034,0.115
45.14,0.014,0.444,0.013
45.15,-0.555,1.049,-0.204
45.16,-0.09,1.555,0.108
45.17,-0.265,1.134,0.162
45.18,0.07,0.52,0.046
45.19,-0.6,0.967,-0.192
45.2,0.009,1.689,0.151
45.21,-0.165,1.096,0.125
45.22,-0.041,0.614,-0.051
45.23,-0.385,0.463,-0.202
45.24,-0.171,1.891,0.149
45.25,-0.025,0.715,0.087
45.26,-0.145,0.87,-0.042
45.27,-0.335,0.244,-0.203
45.28,-0.212,1.763,0.123
45.29,-0.043,0.969,0.084
45.3,-0.092,0.601,-0.061
45.31,-0.421,0.743,-0.227
45.32,-0.023,1.382,0.094
45.33,-0.248,1.31,0.082
45.34,0.02,0.447,-0.07
45.35,-0.495,0.879,-0.212
45.36,-0.04,1.301,0.146
45.37,-0.171,1.219,0.051
45.38,-0.134,0.697,-0.061
45.39,-0.386,0.42,-0.164
45.4,-0.269,1.613,0.174
45.41,-0.099,0.853,0.065
45.42,-0.175,1.026,-0.081
45.43,-0.4,0.209,-0.125
45.44,-0.223,1.474,0.199
45.45,-0.174,0.952,0.119
45.46,-0.16,0.748,-0.121
45.47,-0.453,0.721,-0.199
45.48,-0.026,1.021,0.141
45.49,-0.253,1.39,0.001
45.5,-0.008,0.435,-0.117
45.51,-0.508,0.899,-0.165
45.52,0.046,0.989,0.184
45.53,-0.252,1.332,0.047
45.54,-0.202,0.676,-0.124
45.55,-0.432,0.546,-0.104
45.56,-0.194,1.3,0.226
45.57,-0.097,0.812,0.002
45.58,-0.262,0.984,-0.092
45.59,-0.406,0.441,-0.045
45.6,-0.125,1.275,0.17
45.61,-0.296,0.911,0.088
45.62,-0.313,0.758,-0.091
45.63,-0.424,0.849,-0.074
45.64,-0.08,0.922,0.193
45.65,-0.231,1.297,0.02
45.66,-0.219,0.314,-0.133
45.67,-0.4,1.268,-0.068
45.68,-0.044,0.798,0.168
45.69,-0.304,1.27,0.017
45.7,-0.16,0.476,-0.154
45.71,-0.206,1.196,-0.085
45.72,-0.073,1.095,0.176
45.73,-0.086,0.676,0.002
45.74,-0.412,1.033,-0.183
45.75,-0.227,0.856,-0.048
45.76,-0.276,1.172,0.165
45.77,-0.173,0.833,0.041
45.78,-0.35,0.827,-0.163
45.79,-0.25,1.365,-0.035
45.8,-0.01,0.831,0.12
45.81,-0.141,1.096,-0.039
45.82,-0.24,0.448,-0.211
45.83,-0.344,1.867,-0.014
45.84,0.007,0.702,0.134
45.85,-0.241,1.069,0.07
45.86,-0.374,0.551,-0.233
45.87,-0.289,1.528,0.01
45.88,-0.142,0.944,0.134
45.89,-0.062,0.603,0.014
45.9,-0.446,0.964,-0.2
45.91,-0.212,1.382,0.058
45.92,-0.17,1.185,0.196
45.93,-0.049,0.505,0.093
45.94,-0.508,0.939,-0.113
45.95,-0.238,1.702,0.066
45.96,-0.135,0.819,0.166
45.97,-0.061,0.877,-0.005
45.98,-0.447,0.435,-0.176
45.99,-0.147,2.0,0.147
46.0,-0.13,0.739,0.184
46.01,-0.157,0.826,0.004
46.02,-0.316,0.314,-0.167
46.03,-0.092,2.0,0.058
46.04,-0.119,0.725,0.106
46.05,-0.043,0.634,-0.017
46.06,-0.419,0.677,-0.209
46.07,-0.024,1.705,0.188
46.08,-0.178,1.202,0.102
46.09,0.03,0.255,-0.033
46.1,-0.471,1.051,-0.206
46.11,0.011,1.633,0.099
46.12,-0.219,1.143,0.088
46.13,0.031,0.546,-0.058
46.14,-0.428,0.608,-0.191
46.15,-0.101,1.787,0.117
46.16,-0.069,0.832,0.094
46.17,-0.149,0.897,-0.068
46.18,-0.416,0.223,-0.151
46.19,-0.193,1.962,0.173
46.2,-0.148,0.891,0.134
46.21,-0.144,0.739,-0.069
46.22,-0.473,0.546,-0.198
46.23,-0.076,1.421,0.128
46.24,-0.18,1.337,0.104
46.25,-0.0,0.365,-0.064
46.26,-0.544,0.988,-0.162
46.27,-0.038,1.286,0.187
46.28,-0.318,1.214,0.086
46.29,-0.061,0.642,-0.05
46.3,-0.457,0.634,-0.166
46.31,-0.163,1.486,0.191
46.32,-0.101,0.986,0.131
46.33,-0.129,0.921,-0.112
46.34,-0.384,0.227,-0.179
46.35,-0.181,1.555,0.193
46.36,-0.091,0.825,0.002
46.37,-0.222,0.937,-0.1
46.38,-0.334,0.428,-0.202
46.39,-0.156,1.219,0.208
46.4,-0.201,1.312,0.028
46.41,-0.043,0.423,-0.12
46.42,-0.433,0.997,-0.157
46.43,-0.039,0.982,0.181
46.44,-0.281,1.329,0.053
46.45,-0.101,0.577,-0.097
46.46,-0.463,0.684,-0.15
46.47,-0.125,1.247,0.154
46.48,-0.18,0.864,0.052
46.49,-0.323,0.957,-0.115
46.5,-0.454,0.271,-0.072
46.51,-0.253,1.389,0.201
46.52,-0.169,0.885,0.055
46.53,-0.289,0.812,-0.115
46.54,-0.458,0.583,-0.136
46.55,-0.014,1.134,0.189
46.56,-0.347,1.277,-0.004
46.57,-0.114,0.385,-0.125
46.58,-0.517,1.045,-0.09
46.59,-0.035,0.83,0.215
46.6,-0.252,1.348,0.014
46.61,-0.252,0.4,-0.134
46.62,-0.424,0.828,-0.069
46.63,-0.107,1.047,0.186
46.64,-0.206,0.968,0.046
46.65,-0.275,0.794,-0.105
46.66,-0.373,0.606,-0.027
46.67,-0.098,1.293,0.125
46.68,-0.245,0.727,0.051
46.69,-0.29,0.925,-0.131
46.7,-0.353,0.865,-0.063
46.71,-0.086,1.031,0.133
46.72,-0.24,1.138,-0.021
46.73,-0.23,0.434,-0.142
46.74,-0.32,1.427,-0.099
46.75,0.012,0.759,0.176
46.76,-0.275,1.299,0.019
46.77,-0.255,0.388,-0.157
46.78,-0.346,1.381,-0.087
46.79,-0.058,0.94,0.119
46.8,-0.224,1.004,0.04
46.81,-0.318,0.588,-0.176
46.82,-0.33,1.488,0.028
46.83,-0.141,1.087,0.133
46.84,-0.031,0.557,0.044
46.85,-0.427,1.073,-0.199
46.86,-0.231,1.29,0.03
46.87,-0.203,1.104,0.185
46.88,-0.104,0.709,0.063
46.89,-0.393,0.843,-0.169
46.9,-0.356,1.573,0.086
46.91,-0.07,0.716,0.13
46.92,-0.266,1.068,0.07
46.93,-0.266,0.39,-0.181
46.94,-0.418,2.0,0.054
46.95,-0.007,0.689,0.17
46.96,-0.158,0.946,0.042
46.97,-0.454,0.563,-0.143
46.98,-0.272,1.733,0.11
46.99,-0.204,1.003,0.137
47.0,0.079,0.514,0.007
47.01,-0.39,1.032,-0.265
47.02,-0.099,1.386,0.022
47.03,-0.173,1.104,0.108
47.04,0.004,0.507,0.014
47.05,-0.43,0.842,-0.225
47.06,-0.097,1.755,0.065
47.07,-0.085,0.861,0.142
47.08,-0.083,0.847,0.037
47.09,-0.36,0.366,-0.215
47.1,-0.216,2.0,0.087
47.11,-0.098,0.633,0.089
47.12,-0.109,0.905,0.047
47.13,-0.351,0.5,-0.26
47.14,-0.091,1.876,0.1
47.15,-0.102,1.01,0.085
47.16,0.045,0.396,-0.018
47.17,-0.395,0.992,-0.227
47.18,0.008,1.55,0.067
47.19,-0.15,1.195,0.112
47.2,0.082,0.429,-0.028
47.21,-0.481,0.914,-0.229
47.22,-0.008,1.927,0.066
47.23,-0.16,0.849,0.115
47.24,-0.003,0.757,-0.003
47.25,-0.369,0.379,-0.224
47.26,-0.14,2.0,0.122
47.27,-0.063,0.776,0.216
47.28,-0.143,0.801,0.007
47.29,-0.379,0.365,-0.212
47.3,-0.053,2.0,0.065
47.31,-0.124,0.942,0.115
47.32,0.038,0.455,-0.042
47.33,-0.511,0.906,-0.279
47.34,0.038,1.619,0.14
47.35,-0.204,1.182,0.111
47.36,0.12,0.365,0.048
47.37,-0.517,0.943,-0.189
47.38,-0.062,1.608,0.089
47.39,-0.095,0.999,0.11
47.4,0.003,0.767,-0.08
47.41,-0.346,0.373,-0.208
47.42,-0.09,2.0,0.075
47.43,-0.063,0.703,0.104
47.44,-0.018,0.862,-0.037
47.45,-0.469,0.357,-0.212
47.46,-0.019,2.0,0.125
47.47,-0.187,0.891,0.104
47.48,0.038,0.479,-0.033
47.49,-0.519,0.839,-0.238
47.5,0.039,1.613,0.098
47.51,-0.159,1.292,0.104
47.52,0.078,0.323,-0.028
47.53,-0.5,0.938,-0.237
47.54,-0.013,1.657,0.185
47.55,-0.269,1.065,0.167
47.56,0.065,0.691,-0.037
47.57,-0.575,0.43,-0.21
47.58,-0.134,1.933,0.195
47.59,-0.127,0.684,0.08
47.6,-0.155,0.999,-0.025
47.61,-0.469,0.187,-0.146
47.62,-0.124,1.791,0.162
47.63,-0.187,0.847,0.145
47.64,-0.055,0.863,-0.07
47.65,-0.484,0.483,-0.227
47.66,0.01,1.486,0.175
47.67,-0.303,1.251,0.122
47.68,-0.054,0.425,-0.046
47.69,-0.553,0.931,-0.161
47.7,-0.016,1.223,0.15
47.71,-0.296,1.326,0.163
47.72,-0.044,0.539,-0.028
47.73,-0.561,0.713,-0.179
47.74,0.001,1.523,0.157
47.75,-0.185,1.048,0.077
47.76,-0.139,0.97,-0.041
47.77,-0.45,0.207,-0.16
47.78,-0.168,1.687,0.184
47.79,-0.095,0.905,0.092
47.8,-0.159,0.919,-0.063
47.81,-0.43,0.393,-0.207
47.82,-0.108,1.438,0.147
47.83,-0.187,1.247,0.104
47.84,-0.116,0.479,-0.057
47.85,-0.458,0.92,-0.15
47.86,-0.108,1.147,0.202
47.87,-0.32,1.381,0.121
47.88,-0.01,0.56,-0.059
47.89,-0.49,0.743,-0.164
47.9,-0.116,1.317,0.134
47.91,-0.089,0.95,0.083
47.92,-0.155,0.955,-0.162
47.93,-0.399,0.316,-0.116
47.94,-0.257,1.507,0.223
47.95,-0.112,0.821,0.087
47.96,-0.137,0.991,-0.108
47.97,-0.449,0.409,-0.153
47.98,-0.104,1.192,0.179
47.99,-0.195,1.241,-0.007
48.0,-0.041,0.529,-0.134
48.01,-0.501,0.93,-0.134
48.02,-0.041,0.916,0.195
48.03,-0.254,1.345,0.027
48.04,-0.059,0.489,-0.112
48.05,-0.442,0.812,-0.153
48.06,-0.041,1.074,0.142
48.07,-0.22,1.111,0.068
48.08,-0.177,0.817,-0.13
48.09,-0.472,0.364,-0.12
48.1,-0.226,1.347,0.217
48.11,-0.141,0.752,0.037
48.12,-0.279,0.914,-0.131
48.13,-0.48,0.473,-0.146
48.14,-0.095,1.218,0.193
48.15,-0.242,1.044,0.004
48.16,-0.161,0.513,-0.111
48.17,-0.453,1.034,-0.118
48.18,0.0,0.908,0.189
48.19,-0.225,1.324,0.021
48.2,-0.124,0.344,-0.14
48.21,-0.376,1.066,-0.146
48.22,-0.099,0.928,0.151
48.23,-0.178,1.027,0.038
48.24,-0.308,0.748,-0.12
48.25,-0.394,0.588,-0.04
48.26,-0.154,1.273,0.155
48.27,-0.121,0.759,0.054
48.28,-0.323,0.886,-0.091
48.29,-0.358,0.659,-0.029
48.3,-0.149,1.163,0.151
48.31,-0.238,1.009,0.019
48.32,-0.197,0.534,-0.156
48.33,-0.388,1.196,-0.083
48.34,-0.008,0.785,0.153
48.35,-0.291,1.331,0.027
48.36,-0.225,0.282,-0.114
48.37,-0.302,1.338,-0.103
48.38,-0.057,0.862,0.146
48.39,-0.22,1.034,0.012
48.4,-0.177,0.557,-0.224
48.41,-0.261,1.469,-0.096
48.42,0.0,1.019,0.134
48.43,-0.179,0.674,0.012
48.44,-0.378,1.022,-0.181
48.45,-0.267,1.205,0.02
48.46,-0.198,1.186,0.172
48.47,-0.096,0.601,0.049
48.48,-0.446,0.971,-0.189
48.49,-0.316,1.467,0.035
48.5,-0.15,0.824,0.128
48.51,-0.16,0.973,0.028
48.52,-0.397,0.455,-0.212
