t,ax,ay,az
0.0,-0.463,0.675,-0.068
0.01,-0.118,1.244,0.14
0.02,-0.145,0.808,0.011
0.03,-0.294,0.862,-0.123
0.04,-0.317,0.486,-0.013
0.05,-0.173,1.323,0.121
0.06,-0.216,0.722,0.019
0.07,-0.311,0.8,-0.11
0.08,-0.247,1.173,-0.021
0.09,-0.123,0.932,0.168
0.1,-0.194,0.852,0.019
0.11,-0.405,0.596,-0.176
0.12,-0.21,1.75,0.07
0.13,-0.125,0.65,0.115
0.14,-0.175,1.15,0.006
0.15,-0.393,0.339,-0.277
0.16,-0.222,1.857,0.071
0.17,-0.109,0.729,0.081
0.18,-0.104,0.822,0.013
0.19,-0.501,0.787,-0.206
0.2,-0.114,1.582,0.129
0.21,-0.198,1.134,0.183
0.22,0.033,0.39,0.033
0.23,-0.481,1.037,-0.191
0.24,-0.072,1.536,0.151
0.25,-0.187,1.06,0.11
0.26,0.01,0.615,-0.046
0.27,-0.426,0.575,-0.187
0.28,-0.122,1.752,0.153
0.29,-0.064,0.757,0.061
0.3,-0.037,1.071,-0.037
0.31,-0.345,0.216,-0.213
0.32,-0.197,1.74,0.155
0.33,-0.169,0.906,0.093
0.34,-0.227,0.892,-0.058
0.35,-0.369,0.597,-0.14
0.36,-0.144,1.287,0.237
0.37,-0.214,1.307,0.053
0.38,0.004,0.451,-0.102
0.39,-0.383,1.037,-0.125
0.4,0.023,0.969,0.144
0.41,-0.306,1.163,-0.02
0.42,-0.15,0.634,-0.131
0.43,-0.479,0.657,-0.06
0.44,-0.121,1.231,0.177
0.45,-0.138,0.771,0.028
0.46,-0.458,0.91,-0.137
0.47,-0.292,0.424,0.0
0.48,-0.199,1.281,0.141
0.49,-0.183,0.841,0.025
0.5,-0.363,0.682,-0.141
0.51,-0.188,1.259,-0.013
0.52,-0.086,0.973,0.155
0.53,-0.213,1.146,0.003
0.54,-0.314,0.36,-0.214
0.55,-0.238,1.718,0.058
0.56,-0.078,0.694,0.12
0.57,-0.229,1.13,0.031
0.58,-0.317,0.547,-0.253
0.59,-0.245,1.612,0.042
0.6,-0.129,0.974,0.123
0.61,-0.031,0.607,0.016
0.62,-0.535,0.956,-0.199
0.63,-0.054,1.441,0.116
0.64,-0.314,1.114,0.166
0.65,0.017,0.508,0.075
0.66,-0.537,0.887,-0.184
0.67,-0.027,1.742,0.114
0.68,-0.165,0.881,0.132
0.69,-0.097,0.8,-0.03
0.7,-0.353,0.4,-0.165
0.71,-0.21,1.966,0.106
0.72,-0.022,0.638,0.125
0.73,-0.152,0.965,-0.02
0.74,-0.377,0.334,-0.165
0.75,-0.07,1.776,0.146
0.76,-0.189,1.084,0.123
0.77,0.016,0.5,-0.076
0.78,-0.529,0.926,-0.188
0.79,0.034,1.273,0.166
0.8,-0.279,1.359,0.046
0.81,0.058,0.502,-0.023
0.82,-0.545,0.826,-0.171
0.83,-0.005,1.332,0.175
0.84,-0.197,1.049,0.037
0.85,-0.131,0.953,-0.09
0.86,-0.406,0.356,-0.134
0.87,-0.195,1.487,0.179
0.88,-0.17,0.747,0.086
0.89,-0.274,1.073,-0.069
0.9,-0.405,0.417,-0.087
0.91,-0.177,1.323,0.157
0.92,-0.197,0.794,0.001
0.93,-0.327,0.7,-0.104
0.94,-0.252,1.021,-0.065
0.95,-0.086,0.984,0.113
0.96,-0.204,1.206,-0.012
0.97,-0.274,0.373,-0.199
0.98,-0.293,1.484,-0.008
0.99,-0.135,0.799,0.159
1.0,-0.248,1.197,0.031
1.01,-0.339,0.441,-0.229
1.02,-0.184,1.4,0.003
1.03,-0.114,1.128,0.102
1.04,-0.078,0.714,-0.001
1.05,-0.378,0.984,-0.201
1.06,-0.186,1.178,0.081
1.07,-0.188,1.123,0.137
1.08,-0.085,0.678,0.025
1.09,-0.486,0.883,-0.177
1.1,-0.163,1.673,0.062
1.11,-0.126,0.8,0.146
1.12,-0.134,0.987,0.014
1.13,-0.434,0.367,-0.152
1.14,-0.22,2.0,0.122
1.15,-0.069,0.592,0.14
1.16,-0.109,0.983,0.017
1.17,-0.388,0.453,-0.228
1.18,-0.105,1.799,0.121
1.19,-0.115,1.052,0.105
1.2,-0.059,0.399,-0.015
1.21,-0.496,0.948,-0.225
1.22,-0.025,1.522,0.147
1.23,-0.208,1.256,0.091
1.24,0.049,0.469,-0.032
1.25,-0.447,0.835,-0.213
1.26,-0.01,1.534,0.089
1.27,-0.078,1.029,0.038
1.28,-0.098,0.885,-0.127
1.29,-0.338,0.364,-0.185
1.3,-0.126,1.774,0.147
1.31,-0.065,0.869,0.067
1.32,-0.215,0.976,-0.071
1.33,-0.334,0.351,-0.173
1.34,-0.118,1.424,0.141
1.35,-0.213,1.05,0.041
1.36,0.036,0.725,-0.122
1.37,-0.474,0.928,-0.143
1.38,-0.003,0.946,0.205
1.39,-0.352,1.289,0.032
1.4,-0.133,0.434,-0.094
1.41,-0.474,0.913,-0.146
1.42,-0.048,1.005,0.151
1.43,-0.18,1.048,0.007
1.44,-0.206,0.8,-0.146
1.45,-0.333,0.549,-0.049
1.46,-0.128,1.352,0.168
1.47,-0.187,0.643,-0.0
1.48,-0.346,0.884,-0.132
1.49,-0.265,0.758,-0.056
1.5,-0.19,1.185,0.104
1.51,-0.264,1.001,0.023
1.52,-0.303,0.516,-0.173
1.53,-0.265,1.37,-0.058
1.54,-0.054,0.798,0.104
1.55,-0.325,1.275,0.013
1.56,-0.246,0.28,-0.17
1.57,-0.279,1.658,0.033
1.58,-0.08,0.83,0.138
1.59,-0.145,1.011,-0.027
1.6,-0.392,0.648,-0.222
1.61,-0.152,1.332,0.047
1.62,-0.162,1.135,0.132
1.63,0.026,0.614,-0.014
1.64,-0.579,0.975,-0.199
1.65,-0.052,1.406,0.079
1.66,-0.238,1.046,0.117
1.67,-0.016,0.729,-0.007
1.68,-0.48,0.665,-0.16
1.69,-0.2,1.99,0.05
1.7,-0.091,0.64,0.119
1.71,-0.066,0.824,-0.01
1.72,-0.359,0.349,-0.19
1.73,-0.196,1.977,0.171
1.74,0.001,0.676,0.062
1.75,-0.156,0.915,-0.047
1.76,-0.352,0.331,-0.18
1.77,-0.158,1.633,0.154
1.78,-0.113,1.065,0.062
1.79,-0.071,0.592,-0.043
1.8,-0.428,0.823,-0.137
1.81,-0.083,1.208,0.229
1.82,-0.311,1.295,0.077
1.83,-0.005,0.549,-0.032
1.84,-0.429,0.896,-0.154
1.85,-0.348,1.39,0.093
1.86,-0.067,0.418,-0.128
1.87,-0.468,1.069,-0.063
1.88,-0.01,0.9,0.18
1.89,-0.29,1.219,-0.019
1.9,-0.185,0.486,-0.148
1.91,-0.313,0.96,-0.011
1.92,-0.135,1.151,0.117
1.93,-0.226,0.752,-0.009
1.94,-0.379,0.872,-0.145
1.95,-0.241,0.87,-0.007
1.96,-0.164,1.251,0.113
1.97,-0.107,0.754,-0.046
1.98,-0.409,0.82,-0.199
1.99,-0.102,1.371,-0.009
2.0,-0.134,0.938,0.116
2.01,-0.139,1.054,-0.008
2.02,-0.414,0.434,-0.177
2.03,-0.216,1.893,0.076
2.04,-0.105,0.649,0.123
2.05,-0.182,1.126,0.045
2.06,-0.445,0.403,-0.209
2.07,-0.188,1.842,0.057
2.08,-0.163,0.946,0.131
2.09,-0.016,0.594,0.01
2.1,-0.544,0.953,-0.166
2.11,-0.058,1.536,0.148
2.12,-0.198,1.164,0.101
2.13,0.049,0.44,0.003
2.14,-0.481,0.9,-0.183
2.15,-0.083,1.651,0.142
2.16,-0.049,0.861,0.015
2.17,-0.031,0.839,-0.039
2.18,-0.357,0.352,-0.185
2.19,-0.167,1.816,0.153
2.2,-0.118,0.761,0.075
2.21,-0.131,1.02,-0.056
2.22,-0.363,0.282,-0.164
2.23,-0.131,1.627,0.188
2.24,-0.194,1.072,0.089
2.25,-0.091,0.695,-0.038
2.26,-0.4,0.838,-0.115
2.27,-0.087,1.138,0.197
2.28,-0.26,1.359,0.054
2.29,0.022,0.51,-0.078
2.3,-0.464,0.93,-0.104
2.31,-0.032,1.056,0.173
2.32,-0.304,1.086,0.003
2.33,-0.131,0.845,-0.085
2.34,-0.409,0.467,-0.079
2.35,-0.087,1.357,0.201
2.36,-0.132,0.74,0.011
2.37,-0.367,0.984,-0.161
2.38,-0.324,0.51,-0.016
2.39,-0.118,1.257,0.171
2.4,-0.268,0.974,-0.018
2.41,-0.205,0.543,-0.13
2.42,-0.308,1.287,0.013
2.43,-0.04,0.989,0.133
2.44,-0.269,1.123,-0.001
2.45,-0.251,0.389,-0.196
2.46,-0.209,1.901,0.027
2.47,-0.089,0.67,0.151
2.48,-0.129,1.092,-0.014
2.49,-0.423,0.469,-0.228
2.5,-0.218,1.772,0.081
2.51,-0.213,0.888,0.106
2.52,-0.023,0.651,0.023
2.53,-0.521,0.925,-0.121
2.54,-0.081,1.543,0.088
2.55,-0.217,1.138,0.149
2.56,-0.015,0.464,0.037
2.57,-0.452,0.937,-0.156
2.58,-0.067,1.667,0.103
2.59,-0.115,0.847,0.145
2.6,-0.038,0.839,-0.075
2.61,-0.371,0.346,-0.205
2.62,-0.085,1.972,0.144
2.63,-0.083,0.686,0.073
2.64,-0.082,0.922,-0.079
2.65,-0.361,0.324,-0.211
2.66,-0.147,1.703,0.171
2.67,-0.149,1.049,0.086
2.68,-0.039,0.557,-0.093
2.69,-0.412,0.869,-0.167
2.7,-0.049,1.153,0.22
2.71,-0.311,1.314,0.099
2.72,-0.084,0.489,-0.066
2.73,-0.444,0.859,-0.098
2.74,-0.11,1.137,0.198
2.75,-0.265,1.134,0.039
2.76,-0.208,0.857,-0.113
2.77,-0.36,0.377,-0.086
2.78,-0.208,1.391,0.191
2.79,-0.087,0.741,-0.016
2.8,-0.324,1.063,-0.123
2.81,-0.287,0.506,-0.088
2.82,-0.105,1.269,0.159
2.83,-0.195,0.953,-0.041
2.84,-0.261,0.477,-0.168
2.85,-0.257,1.272,-0.072
2.86,-0.06,0.834,0.139
2.87,-0.259,1.285,0.02
2.88,-0.279,0.301,-0.207
2.89,-0.218,1.586,-0.029
2.9,-0.072,0.862,0.134
2.91,-0.192,1.007,0.03
2.92,-0.293,0.721,-0.241
2.93,-0.216,1.249,0.009
2.94,-0.159,1.182,0.14
2.95,-0.069,0.619,0.024
2.96,-0.489,0.996,-0.192
2.97,-0.204,1.369,0.062
2.98,-0.172,1.015,0.118
2.99,-0.07,0.768,0.022
3.0,-0.517,0.694,-0.136
3.01,-0.251,1.898,0.122
3.02,-0.201,0.605,0.203
3.03,-0.14,1.021,0.038
3.04,-0.391,0.341,-0.167
3.05,-0.199,2.0,0.164
3.06,-0.082,0.772,0.11
3.07,-0.111,0.712,-0.013
3.08,-0.393,0.587,-0.215
3.09,-0.018,1.66,0.123
3.1,-0.162,1.176,0.081
3.11,0.102,0.377,-0.061
3.12,-0.54,0.965,-0.212
3.13,-0.008,1.396,0.213
3.14,-0.243,1.248,0.067
3.15,-0.032,0.641,-0.04
3.16,-0.458,0.601,-0.15
3.17,-0.122,1.521,0.194
3.18,-0.155,0.899,0.049
3.19,-0.1,1.14,-0.069
3.2,-0.406,0.259,-0.077
3.21,-0.158,1.443,0.206
3.22,-0.179,0.87,0.003
3.23,-0.299,0.929,-0.122
3.24,-0.343,0.567,-0.041
3.25,-0.16,1.255,0.16
3.26,-0.362,0.941,0.042
3.27,-0.198,0.514,-0.119
3.28,-0.304,1.392,-0.07
3.29,0.005,0.807,0.123
3.3,-0.258,1.276,-0.049
3.31,-0.284,0.291,-0.23
3.32,-0.183,1.615,-0.019
3.33,-0.039,0.868,0.11
3.34,-0.194,0.923,-0.009
3.35,-0.392,0.738,-0.233
3.36,-0.139,1.387,0.04
3.37,-0.213,1.151,0.164
3.38,0.021,0.559,0.021
3.39,-0.513,0.999,-0.189
3.4,-0.057,1.559,0.066
3.41,-0.2,1.029,0.126
3.42,0.03,0.711,0.002
3.43,-0.495,0.652,-0.125
3.44,-0.151,1.918,0.146
3.45,-0.15,0.656,0.137
3.46,-0.158,0.983,0.003
3.47,-0.343,0.272,-0.161
3.48,-0.208,2.0,0.129
3.49,-0.015,0.765,0.108
3.5,-0.17,0.674,-0.081
3.51,-0.362,0.584,-0.217
3.52,-0.106,1.504,0.144
3.53,-0.18,1.274,0.128
3.54,-0.01,0.438,-0.046
3.55,-0.436,0.962,-0.166
3.56,-0.022,1.246,0.211
3.57,-0.234,1.282,0.078
3.58,-0.087,0.682,-0.096
3.59,-0.424,0.609,-0.125
3.6,-0.108,1.417,0.141
3.61,-0.131,0.857,0.005
3.62,-0.16,1.084,-0.162
3.63,-0.383,0.302,-0.095
3.64,-0.098,1.381,0.196
3.65,-0.316,0.837,0.056
3.66,-0.19,0.852,-0.079
3.67,-0.436,0.698,-0.125
3.68,-0.054,0.979,0.159
3.69,-0.28,1.301,-0.044
3.7,-0.161,0.221,-0.157
3.71,-0.359,1.278,-0.047
3.72,0.01,0.867,0.14
3.73,-0.356,1.197,-0.011
3.74,-0.27,0.421,-0.161
3.75,-0.396,1.193,0.02
3.76,-0.074,1.116,0.122
3.77,-0.246,0.803,0.004
3.78,-0.362,0.875,-0.204
3.79,-0.174,1.01,0.037
3.8,-0.214,1.223,0.115
3.81,-0.169,0.722,0.073
3.82,-0.413,0.821,-0.193
3.83,-0.181,1.494,0.065
3.84,-0.132,0.792,0.136
3.85,-0.095,1.091,0.036
3.86,-0.408,0.387,-0.185
3.87,-0.227,2.0,0.117
3.88,-0.066,0.651,0.093
3.89,-0.087,0.979,0.02
3.9,-0.382,0.433,-0.185
3.91,-0.177,1.846,0.12
3.92,0.005,0.972,0.075
3.93,-0.031,0.442,-0.085
3.94,-0.414,0.844,-0.233
3.95,0.001,1.5,0.081
3.96,-0.158,1.213,0.086
3.97,-0.01,0.45,-0.02
3.98,-0.429,0.88,-0.191
3.99,-0.031,1.582,0.141
4.0,-0.137,1.079,0.042
4.01,-0.124,0.752,-0.103
4.02,-0.254,0.366,-0.157
4.03,-0.22,1.488,0.165
4.04,-0.122,0.803,0.031
4.05,-0.225,1.123,-0.131
4.06,-0.393,0.282,-0.067
4.07,-0.134,1.468,0.238
4.08,-0.239,0.849,0.068
4.09,-0.297,0.811,-0.11
4.1,-0.395,0.745,-0.096
4.11,-0.034,1.033,0.161
4.12,-0.22,1.215,-0.081
4.13,-0.149,0.365,-0.104
4.14,-0.425,1.39,-0.029
4.15,0.054,0.857,0.174
4.16,-0.395,1.197,0.077
4.17,-0.302,0.48,-0.187
4.18,-0.347,1.139,0.004
4.19,-0.095,1.154,0.133
4.2,-0.166,0.788,0.028
4.21,-0.432,0.949,-0.207
4.22,-0.17,1.022,0.001
4.23,-0.16,1.226,0.155
4.24,-0.077,0.749,0.004
4.25,-0.417,0.903,-0.205
4.26,-0.09,1.609,-0.0
4.27,-0.174,0.957,0.157
4.28,-0.041,0.916,0.03
4.29,-0.481,0.381,-0.181
4.3,-0.232,2.0,0.092
4.31,-0.145,0.598,0.079
4.32,-0.049,1.02,0.014
4.33,-0.51,0.538,-0.169
4.34,-0.146,1.781,0.149
4.35,-0.243,0.883,0.122
4.36,0.104,0.57,-0.027
4.37,-0.578,0.974,-0.214
4.38,0.025,1.496,0.112
4.39,-0.257,1.247,0.098
4.4,0.104,0.41,-0.021
4.41,-0.49,0.843,-0.165
4.42,0.063,1.718,0.063
4.43,-0.1,1.011,0.103
4.44,-0.107,0.8,-0.06
4.45,-0.332,0.31,-0.164
4.46,-0.126,1.957,0.153
4.47,-0.038,0.723,0.112
4.48,-0.149,0.958,-0.085
4.49,-0.337,0.333,-0.182
4.5,-0.087,1.645,0.153
4.51,-0.206,1.091,0.076
4.52,0.025,0.624,-0.075
4.53,-0.478,0.879,-0.208
4.54,0.078,1.125,0.178
4.55,-0.402,1.324,0.1
4.56,0.041,0.544,-0.077
4.57,-0.555,0.875,-0.165
4.58,0.004,1.166,0.197
4.59,-0.323,1.074,0.1
4.6,-0.154,0.901,-0.098
4.61,-0.493,0.374,-0.054
4.62,-0.192,1.388,0.233
4.63,-0.104,0.811,-0.041
4.64,-0.343,0.984,-0.117
4.65,-0.384,0.448,-0.065
4.66,-0.116,1.247,0.159
4.67,-0.227,1.019,-0.031
4.68,-0.202,0.556,-0.152
4.69,-0.436,1.038,-0.048
4.7,0.063,0.832,0.145
4.71,-0.332,1.352,-0.061
4.72,-0.108,0.281,-0.195
4.73,-0.353,1.248,-0.075
4.74,0.026,0.953,0.111
4.75,-0.297,1.036,0.006
4.76,-0.333,0.636,-0.154
4.77,-0.27,1.002,-0.027
4.78,-0.159,1.272,0.129
4.79,-0.123,0.703,0.001
4.8,-0.429,0.9,-0.199
4.81,-0.135,1.159,0.049
4.82,-0.162,1.111,0.151
4.83,-0.013,0.63,0.033
4.84,-0.531,0.838,-0.166
4.85,-0.16,1.709,0.049
4.86,-0.214,0.781,0.163
4.87,-0.032,0.951,0.006
4.88,-0.377,0.363,-0.174
4.89,-0.144,2.0,0.057
4.9,-0.135,0.574,0.086
4.91,-0.157,0.943,0.007
4.92,-0.394,0.39,-0.186
4.93,-0.143,1.949,0.145
4.94,-0.129,0.83,0.04
4.95,0.05,0.538,-0.013
4.96,-0.504,0.86,-0.184
4.97,0.002,1.446,0.144
4.98,-0.265,1.31,0.083
4.99,0.014,0.416,0.0
5.0,-0.407,0.867,-0.208
5.01,-0.023,1.478,0.108
5.02,-0.156,1.032,0.057
5.03,-0.153,0.904,-0.055
5.04,-0.35,0.315,-0.114
5.05,-0.232,1.72,0.225
5.06,-0.03,0.772,0.07
5.07,-0.156,1.042,-0.126
5.08,-0.341,0.306,-0.129
5.09,-0.157,1.375,0.179
5.1,-0.22,1.011,-0.001
5.11,-0.07,0.687,-0.111
5.12,-0.47,0.9,-0.125
5.13,-0.081,0.91,0.218
5.14,-0.263,1.321,-0.021
5.15,-0.165,0.447,-0.143
5.16,-0.406,0.928,-0.112
5.17,-0.082,1.036,0.195
5.18,-0.181,1.044,0.041
5.19,-0.312,0.776,-0.145
5.2,-0.409,0.53,-0.02
5.21,-0.138,1.365,0.205
5.22,-0.229,0.681,0.069
5.23,-0.302,0.907,-0.109
5.24,-0.283,0.897,-0.069
5.25,-0.091,1.25,0.165
5.26,-0.227,0.925,0.013
5.27,-0.348,0.567,-0.218
5.28,-0.219,1.411,-0.075
5.29,-0.023,0.781,0.089
5.3,-0.28,1.242,0.019
5.31,-0.251,0.404,-0.164
5.32,-0.328,1.668,-0.028
5.33,-0.038,0.818,0.115
5.34,-0.251,1.017,0.03
5.35,-0.424,0.721,-0.174
5.36,-0.171,1.383,0.036
5.37,-0.229,1.177,0.154
5.38,0.004,0.574,0.092
5.39,-0.502,1.047,-0.163
5.4,-0.202,1.347,0.13
5.41,-0.247,1.037,0.158
5.42,-0.05,0.761,0.049
5.43,-0.508,0.628,-0.151
5.44,-0.193,1.877,0.112
5.45,-0.119,0.667,0.101
5.46,-0.106,1.069,0.068
5.47,-0.346,0.344,-0.206
5.48,-0.196,2.0,0.103
5.49,-0.03,0.685,0.102
5.5,-0.037,0.792,-0.028
5.51,-0.386,0.614,-0.237
5.52,-0.038,1.637,0.067
5.53,-0.158,1.117,0.07
5.54,0.12,0.374,-0.076
5.55,-0.52,1.004,-0.193
5.56,-0.003,1.483,0.121
5.57,-0.267,1.157,0.109
5.58,-0.015,0.567,-0.004
5.59,-0.438,0.704,-0.136
5.6,-0.145,1.76,0.163
5.61,-0.188,0.811,0.152
5.62,-0.155,0.93,-0.073
5.63,-0.411,0.261,-0.106
5.64,-0.196,1.654,0.217
5.65,-0.156,0.772,0.103
5.66,-0.255,1.017,-0.117
5.67,-0.385,0.273,-0.171
5.68,-0.168,1.408,0.243
5.69,-0.174,1.024,0.026
5.7,-0.191,0.589,-0.141
5.71,-0.471,0.835,-0.129
5.72,-0.074,0.956,0.247
5.73,-0.297,1.388,0.057
5.74,-0.135,0.324,-0.085
5.75,-0.506,0.971,-0.109
5.76,-0.007,1.047,0.134
5.77,-0.223,1.026,0.02
5.78,-0.285,0.789,-0.124
5.79,-0.418,0.519,-0.032
5.8,-0.156,1.364,0.124
5.81,-0.128,0.751,0.068
5.82,-0.364,0.926,-0.133
5.83,-0.347,0.605,-0.061
5.84,-0.16,1.185,0.12
5.85,-0.16,1.003,0.024
5.86,-0.238,0.579,-0.163
5.87,-0.23,1.448,-0.107
5.88,0.043,0.846,0.13
5.89,-0.261,1.237,0.003
5.9,-0.193,0.369,-0.262
5.91,-0.277,1.671,-0.078
5.92,-0.07,0.782,0.083
5.93,-0.207,1.042,0.008
5.94,-0.346,0.697,-0.239
5.95,-0.205,1.279,-0.03
5.96,-0.16,1.138,0.105
5.97,-0.054,0.621,0.056
5.98,-0.394,1.115,-0.157
5.99,-0.234,1.335,0.064
6.0,-0.12,1.161,0.189
6.01,-0.032,0.692,0.053
6.02,-0.529,0.68,-0.192
6.03,-0.192,1.863,0.104
6.04,-0.157,0.661,0.119
6.05,-0.159,1.019,0.055
6.06,-0.377,0.363,-0.197
6.07,-0.152,2.0,0.069
6.08,-0.14,0.673,0.142
6.09,-0.042,0.836,0.024
6.1,-0.341,0.61,-0.211
6.11,-0.032,1.705,0.088
6.12,-0.156,0.99,0.096
6.13,0.086,0.498,-0.005
6.14,-0.421,0.978,-0.245
6.15,0.046,1.535,0.117
6.16,-0.153,1.205,0.095
6.17,0.013,0.458,-0.018
6.18,-0.392,0.731,-0.179
6.19,-0.011,1.838,0.073
6.2,-0.067,0.698,0.06
6.21,-0.038,0.937,-0.106
6.22,-0.376,0.272,-0.238
6.23,-0.072,1.965,0.122
6.24,-0.067,0.745,0.056
6.25,-0.095,0.754,-0.042
6.26,-0.463,0.558,-0.192
6.27,-0.103,1.539,0.17
6.28,-0.194,1.091,0.102
6.29,0.04,0.478,-0.055
6.3,-0.568,0.995,-0.156
6.31,-0.014,1.237,0.233
6.32,-0.296,1.326,0.086
6.33,-0.08,0.554,-0.045
6.34,-0.454,0.698,-0.147
6.35,-0.044,1.509,0.163
6.36,-0.104,0.953,0.067
6.37,-0.172,0.99,-0.15
6.38,-0.353,0.208,-0.165
6.39,-0.119,1.584,0.151
6.4,-0.137,0.821,-0.005
6.41,-0.2,0.908,-0.145
6.42,-0.372,0.436,-0.233
6.43,-0.115,1.214,0.166
6.44,-0.246,0.932,0.062
6.45,-0.323,0.62,-0.093
6.46,-0.468,0.933,-0.047
6.47,-0.017,1.002,0.203
6.48,-0.281,1.283,0.074
6.49,-0.205,0.331,-0.118
6.5,-0.458,1.144,-0.049
6.51,-0.021,0.982,0.139
6.52,-0.239,1.144,0.075
6.53,-0.307,0.632,-0.168
6.54,-0.385,0.658,-0.007
6.55,-0.14,1.256,0.131
6.56,-0.122,0.777,0.022
6.57,-0.328,0.882,-0.188
6.58,-0.235,0.831,-0.091
6.59,-0.137,1.27,0.184
6.6,-0.147,0.891,0.033
6.61,-0.317,0.699,-0.153
6.62,-0.21,1.501,-0.084
6.63,-0.018,0.881,0.149
6.64,-0.244,1.156,0.041
6.65,-0.267,0.43,-0.222
6.66,-0.294,1.661,-0.039
6.67,-0.081,0.747,0.083
6.68,-0.273,1.099,0.038
6.69,-0.31,0.641,-0.151
6.7,-0.312,1.423,0.043
6.71,-0.098,1.121,0.115
6.72,0.029,0.584,0.033
6.73,-0.48,1.045,-0.199
6.74,-0.168,1.332,0.063
6.75,-0.226,1.07,0.18
6.76,-0.038,0.696,0.099
6.77,-0.546,0.767,-0.183
6.78,-0.209,1.753,0.082
6.79,-0.178,0.713,0.134
6.8,-0.092,1.026,0.056
6.81,-0.397,0.341,-0.222
6.82,-0.205,2.0,0.104
6.83,-0.148,0.641,0.147
6.84,-0.073,0.963,0.056
6.85,-0.483,0.534,-0.214
6.86,-0.153,1.687,0.17
6.87,-0.24,0.991,0.153
6.88,0.129,0.501,0.045
6.89,-0.512,1.048,-0.16
6.9,0.017,1.492,0.128
6.91,-0.224,1.156,0.126
6.92,0.101,0.496,-0.012
6.93,-0.418,0.845,-0.22
6.94,-0.023,1.807,0.049
6.95,-0.115,0.766,0.099
6.96,-0.024,0.902,-0.045
6.97,-0.322,0.35,-0.24
6.98,-0.136,1.995,0.091
6.99,-0.037,0.711,0.137
7.0,-0.119,0.814,-0.004
7.01,-0.415,0.531,-0.191
7.02,-0.048,1.833,0.148
7.03,-0.166,1.018,0.126
7.04,-0.067,0.354,-0.025
7.05,-0.502,1.045,-0.204
7.06,-0.128,1.334,0.162
7.07,-0.204,1.266,0.118
7.08,-0.026,0.449,-0.001
7.09,-0.478,0.812,-0.196
7.1,-0.104,1.593,0.174
7.11,-0.121,0.941,0.084
7.12,-0.156,0.917,-0.082
7.13,-0.376,0.304,-0.138
7.14,-0.206,1.893,0.207
7.15,-0.1,0.746,0.074
7.16,-0.2,0.934,-0.059
7.17,-0.405,0.427,-0.156
7.18,-0.176,1.559,0.227
7.19,-0.182,1.149,0.087
7.2,-0.048,0.49,-0.067
7.21,-0.526,0.945,-0.146
7.22,-0.081,1.204,0.241
7.23,-0.414,1.249,0.137
7.24,0.026,0.45,-0.099
7.25,-0.6,0.958,-0.156
7.26,0.022,0.982,0.191
7.27,-0.34,1.215,0.063
7.28,-0.199,0.62,-0.073
7.29,-0.516,0.569,-0.096
7.3,-0.124,1.279,0.201
7.31,-0.166,0.827,0.063
7.32,-0.298,0.943,-0.145
7.33,-0.445,0.314,-0.065
7.34,-0.108,1.402,0.152
7.35,-0.262,0.837,0.021
7.36,-0.182,0.754,-0.124
7.37,-0.508,0.774,-0.145
7.38,0.032,1.058,0.164
7.39,-0.281,1.247,0.007
7.4,-0.09,0.386,-0.151
7.41,-0.503,1.087,-0.031
7.42,0.014,0.909,0.166
7.43,-0.22,1.233,-0.013
7.44,-0.155,0.505,-0.149
7.45,-0.299,0.915,-0.121
7.46,0.015,1.205,0.104
7.47,-0.095,0.759,0.004
7.48,-0.329,0.915,-0.199
7.49,-0.177,0.901,-0.022
7.5,-0.141,1.288,0.145
7.51,-0.129,0.703,0.044
7.52,-0.323,0.844,-0.214
7.53,-0.247,1.289,-0.087
7.54,-0.062,0.921,0.159
7.55,-0.195,1.199,0.019
7.56,-0.265,0.387,-0.211
7.57,-0.231,1.755,-0.04
7.58,0.007,0.812,0.103
7.59,-0.228,1.146,0.089
7.6,-0.219,0.511,-0.173
7.61,-0.325,1.565,-0.004
7.62,-0.072,1.092,0.118
7.63,-0.022,0.675,0.039
7.64,-0.423,0.989,-0.224
7.65,-0.193,1.232,0.047
7.66,-0.205,1.123,0.137
7.67,-0.091,0.73,0.082
7.68,-0.46,0.88,-0.244
7.69,-0.203,1.525,0.045
7.7,-0.142,0.884,0.147
7.71,-0.105,0.963,0.033
7.72,-0.321,0.42,-0.198
7.73,-0.247,2.0,0.102
7.74,-0.062,0.692,0.134
7.75,-0.124,1.0,0.041
7.76,-0.375,0.4,-0.158
7.77,-0.223,1.826,0.16
7.78,-0.178,0.939,0.112
7.79,0.052,0.524,-0.0
7.8,-0.503,0.971,-0.212
7.81,-0.031,1.453,0.115
7.82,-0.237,1.132,0.142
7.83,0.111,0.476,0.042
7.84,-0.478,0.953,-0.185
7.85,0.021,1.687,0.053
7.86,-0.143,0.863,0.151
7.87,-0.026,0.826,-0.043
7.88,-0.39,0.418,-0.184
7.89,-0.05,2.0,0.117
7.9,-0.087,0.688,0.154
7.91,-0.094,0.836,-0.045
7.92,-0.337,0.44,-0.222
7.93,-0.079,1.962,0.11
7.94,-0.063,0.908,0.074
7.95,0.041,0.493,-0.083
7.96,-0.507,0.93,-0.216
7.97,0.056,1.433,0.108
7.98,-0.227,1.267,0.1
7.99,0.075,0.395,-0.011
8.0,-0.424,0.971,-0.231
8.01,-0.056,1.479,0.128
8.02,-0.19,1.02,0.129
8.03,-0.072,0.81,-0.076
8.04,-0.46,0.404,-0.163
8.05,-0.137,1.553,0.152
8.06,-0.193,0.798,0.063
8.07,-0.159,1.062,-0.043
8.08,-0.394,0.202,-0.159
8.09,-0.244,1.551,0.229
8.1,-0.135,0.839,0.093
8.11,-0.252,0.827,-0.103
8.12,-0.385,0.591,-0.138
8.13,-0.161,1.151,0.222
8.14,-0.231,1.202,0.052
8.15,-0.059,0.482,-0.111
8.16,-0.543,1.018,-0.102
8.17,-0.034,0.92,0.23
8.18,-0.334,1.196,0.085
8.19,-0.144,0.526,-0.082
8.2,-0.511,0.735,-0.09
8.21,-0.155,1.161,0.127
8.22,-0.177,0.784,0.049
8.23,-0.333,0.907,-0.121
8.24,-0.424,0.317,-0.102
8.25,-0.167,1.404,0.2
8.26,-0.156,0.772,0.043
8.27,-0.305,0.823,-0.125
8.28,-0.426,0.63,-0.131
8.29,-0.135,1.15,0.161
8.3,-0.177,1.129,-0.023
8.31,-0.12,0.411,-0.155
8.32,-0.44,1.131,-0.107
8.33,-0.016,0.931,0.154
8.34,-0.3,1.187,0.021
8.35,-0.23,0.507,-0.068
8.36,-0.43,0.842,-0.014
8.37,-0.153,1.078,0.124
8.38,-0.182,0.842,0.052
8.39,-0.388,0.829,-0.137
8.4,-0.302,0.696,-0.003
8.41,-0.152,1.366,0.175
8.42,-0.117,0.683,0.054
8.43,-0.408,0.9,-0.145
8.44,-0.239,1.037,-0.081
8.45,-0.091,1.114,0.12
8.46,-0.178,1.078,-0.005
8.47,-0.307,0.397,-0.194
8.48,-0.311,1.434,-0.069
8.49,-0.034,0.795,0.112
8.5,-0.189,1.288,0.038
8.51,-0.276,0.357,-0.213
8.52,-0.223,1.401,-0.083
8.53,-0.098,1.0,0.164
8.54,-0.104,0.823,-0.003
8.55,-0.4,0.857,-0.203
8.56,-0.096,1.119,-0.102
8.57,-0.251,1.286,0.194
8.58,0.045,0.643,0.047
8.59,-0.524,0.923,-0.172
8.6,-0.078,1.381,-0.037
8.61,-0.157,0.984,0.073
8.62,-0.062,0.954,0.004
8.63,-0.337,0.533,-0.218
8.64,-0.25,1.766,0.013
8.65,-0.114,0.622,0.107
8.66,-0.196,1.206,0.071
8.67,-0.301,0.434,-0.25
8.68,-0.272,1.739,0.003
8.69,-0.113,0.911,0.117
8.7,-0.04,0.77,0.019
8.71,-0.463,0.925,-0.195
8.72,-0.171,1.334,0.029
8.73,-0.171,1.212,0.171
8.74,0.063,0.529,0.089
8.75,-0.614,1.039,-0.154
8.76,-0.204,1.481,0.112
8.77,-0.238,0.905,0.136
8.78,-0.045,0.883,0.059
8.79,-0.476,0.53,-0.153
8.8,-0.304,1.857,0.112
8.81,-0.122,0.713,0.179
8.82,-0.099,1.033,0.029
8.83,-0.428,0.363,-0.186
8.84,-0.234,1.941,0.094
8.85,-0.137,0.61,0.137
8.86,-0.119,0.891,0.02
8.87,-0.35,0.546,-0.238
8.88,-0.062,1.756,0.051
8.89,-0.133,1.066,0.067
8.9,0.049,0.364,-0.056
8.91,-0.431,1.03,-0.211
8.92,-0.014,1.505,0.068
8.93,-0.115,1.148,0.09
8.94,0.052,0.447,-0.046
8.95,-0.464,0.842,-0.205
8.96,-0.009,1.826,0.109
8.97,-0.252,0.789,0.156
8.98,-0.023,0.813,-0.059
8.99,-0.416,0.419,-0.216
9.0,-0.102,1.969,0.105
9.01,-0.04,0.726,0.071
9.02,-0.053,0.788,-0.034
9.03,-0.352,0.479,-0.222
9.04,-0.07,1.775,0.104
9.05,-0.239,0.975,0.116
9.06,-0.014,0.544,-0.052
9.07,-0.562,0.991,-0.227
9.08,0.076,1.575,0.139
9.09,-0.271,1.31,0.121
9.1,0.077,0.346,0.004
9.11,-0.501,0.897,-0.204
9.12,-0.098,1.522,0.129
9.13,-0.115,0.897,0.074
9.14,-0.133,0.87,-0.059
9.15,-0.384,0.288,-0.179
9.16,-0.227,1.887,0.124
9.17,-0.061,0.722,0.121
9.18,-0.231,0.953,-0.085
9.19,-0.458,0.429,-0.141
9.2,-0.163,1.568,0.165
9.21,-0.196,1.157,0.101
9.22,-0.005,0.445,-0.058
9.23,-0.498,0.928,-0.194
9.24,0.007,1.154,0.15
9.25,-0.371,1.205,0.111
9.26,-0.008,0.561,-0.08
9.27,-0.568,0.782,-0.133
9.28,-0.04,1.313,0.18
9.29,-0.228,1.04,0.083
9.3,-0.098,0.888,-0.121
9.31,-0.381,0.36,-0.194
9.32,-0.097,1.554,0.16
9.33,-0.128,0.815,0.093
9.34,-0.189,0.977,-0.102
9.35,-0.484,0.364,-0.175
9.36,-0.119,1.373,0.202
9.37,-0.2,1.026,0.052
9.38,-0.201,0.535,-0.156
9.39,-0.382,0.884,-0.135
9.4,-0.109,0.984,0.199
9.41,-0.233,1.354,0.035
9.42,-0.085,0.397,-0.101
9.43,-0.437,0.912,-0.162
9.44,-0.053,1.077,0.184
9.45,-0.123,1.023,0.082
9.46,-0.297,0.766,-0.142
9.47,-0.358,0.419,-0.084
9.48,-0.15,1.385,0.172
9.49,-0.127,0.77,0.043
9.5,-0.288,0.901,-0.12
9.51,-0.414,0.398,-0.155
9.52,-0.072,1.261,0.158
9.53,-0.184,1.047,-0.009
9.54,-0.213,0.595,-0.15
9.55,-0.517,0.91,-0.144
9.56,0.031,0.964,0.221
9.57,-0.214,1.334,0.039
9.58,-0.272,0.208,-0.149
9.59,-0.429,1.008,-0.098
9.6,-0.034,0.984,0.116
9.61,-0.183,1.05,-0.01
9.62,-0.262,0.67,-0.145
9.63,-0.315,0.775,-0.07
9.64,-0.104,1.311,0.159
9.65,-0.096,0.781,0.023
9.66,-0.405,0.91,-0.176
9.67,-0.247,0.945,-0.006
9.68,-0.237,1.229,0.211
9.69,-0.129,0.793,0.046
9.7,-0.456,0.849,-0.158
9.71,-0.187,1.299,-0.036
9.72,-0.146,0.945,0.16
9.73,-0.123,1.102,0.008
9.74,-0.293,0.429,-0.205
9.75,-0.246,1.909,0.0
9.76,-0.023,0.734,0.189
9.77,-0.187,1.081,0.107
9.78,-0.39,0.433,-0.207
9.79,-0.282,1.643,0.048
9.8,-0.178,0.918,0.126
9.81,0.005,0.684,0.047
9.82,-0.514,0.963,-0.199
9.83,-0.142,1.318,0.068
9.84,-0.291,1.165,0.149
9.85,0.014,0.482,0.078
9.86,-0.43,0.965,-0.126
9.87,-0.217,1.57,0.109
9.88,-0.157,0.903,0.192
9.89,-0.06,0.82,0.018
9.9,-0.546,0.431,-0.201
9.91,-0.157,2.0,0.105
9.92,-0.15,0.564,0.072
9.93,-0.083,0.992,0.018
9.94,-0.412,0.443,-0.19
9.95,-0.187,1.899,0.14
9.96,-0.118,0.865,0.098
9.97,0.013,0.542,-0.008
9.98,-0.45,0.887,-0.213
9.99,0.025,1.521,0.117
10.0,-0.245,1.233,0.184
10.01,0.021,0.349,-0.003
10.02,-0.554,0.973,-0.152
10.03,0.003,1.64,0.128
10.04,-0.149,0.987,0.147
10.05,-0.031,0.688,-0.043
10.06,-0.377,0.466,-0.189
10.07,-0.18,1.912,0.147
10.08,-0.014,0.68,0.134
10.09,-0.126,0.976,-0.015
10.1,-0.41,0.296,-0.199
10.11,-0.065,1.801,0.169
10.12,-0.046,0.98,0.039
10.13,-0.053,0.588,-0.078
10.14,-0.355,0.821,-0.245
10.15,-0.006,1.336,0.11
10.16,-0.262,1.322,0.151
10.17,0.016,0.503,-0.07
10.18,-0.421,0.974,-0.221
10.19,-0.27,1.205,0.065
10.2,-0.227,0.403,-0.165
10.21,-0.403,0.926,-0.082
10.22,-0.055,1.003,0.119
10.23,-0.154,1.014,0.021
10.24,-0.297,0.658,-0.182
10.25,-0.24,0.776,-0.075
10.26,-0.03,1.406,0.077
10.27,-0.135,0.675,0.004
10.28,-0.309,0.918,-0.224
10.29,-0.229,0.964,-0.096
10.3,-0.073,1.161,0.136
10.31,-0.189,0.991,0.034
10.32,-0.385,0.589,-0.171
10.33,-0.256,1.443,-0.006
10.34,-0.142,0.758,0.137
10.35,-0.208,1.278,0.03
10.36,-0.27,0.358,-0.202
10.37,-0.239,1.684,-0.02
10.38,-0.016,0.93,0.125
10.39,-0.14,0.898,0.034
10.4,-0.383,0.829,-0.192
10.41,-0.191,1.36,0.015
10.42,-0.161,1.208,0.139
10.43,-0.037,0.574,0.016
10.44,-0.45,1.074,-0.212
10.45,-0.207,1.371,0.075
10.46,-0.122,0.997,0.15
10.47,-0.122,0.85,0.04
10.48,-0.451,0.631,-0.192
10.49,-0.174,1.898,0.008
10.5,-0.119,0.654,0.109
10.51,-0.142,1.06,0.021
10.52,-0.408,0.331,-0.181
10.53,-0.258,1.962,0.112
10.54,-0.159,0.744,0.127
10.55,-0.073,0.79,0.018
10.56,-0.337,0.656,-0.256
10.57,-0.031,1.594,0.116
10.58,-0.188,1.171,0.159
10.59,0.067,0.342,-0.018
10.6,-0.532,1.031,-0.157
10.61,-0.023,1.566,0.132
10.62,-0.21,0.985,0.118
10.63,0.034,0.616,0.009
10.64,-0.389,0.722,-0.161
10.65,-0.132,1.828,0.128
10.66,-0.072,0.703,0.075
10.67,-0.082,0.93,-0.041
10.68,-0.37,0.247,-0.159
10.69,-0.195,1.97,0.129
10.7,-0.099,0.76,0.087
10.71,-0.155,0.753,-0.007
10.72,-0.434,0.554,-0.162
10.73,-0.1,1.495,0.154
10.74,-0.166,1.242,0.109
10.75,-0.066,0.409,-0.02
10.76,-0.477,1.0,-0.142
10.77,-0.1,1.313,0.245
10.78,-0.238,1.237,0.094
10.79,-0.086,0.608,-0.056
10.8,-0.356,0.648,-0.141
10.81,-0.073,1.531,0.149
10.82,-0.163,0.82,0.075
10.83,-0.133,1.092,-0.082
10.84,-0.341,0.209,-0.172
10.85,-0.075,1.436,0.162
10.86,-0.134,0.764,-0.019
10.87,-0.263,0.961,-0.132
10.88,-0.373,0.404,-0.122
10.89,-0.138,1.264,0.202
10.9,-0.231,1.0,0.016
10.91,-0.242,0.537,-0.137
10.92,-0.482,0.962,-0.076
10.93,0.003,0.972,0.188
10.94,-0.239,1.291,0.014
10.95,-0.227,0.342,-0.135
10.96,-0.482,1.059,-0.03
10.97,-0.092,0.936,0.162
10.98,-0.246,1.071,0.034
10.99,-0.241,0.623,-0.144
11.0,-0.209,1.085,-0.087
11.01,-0.082,1.31,0.163
11.02,-0.129,0.644,0.048
11.03,-0.411,1.062,-0.144
11.04,-0.197,1.063,-0.026
11.05,-0.192,1.079,0.148
11.06,-0.161,0.945,0.029
11.07,-0.338,0.683,-0.229
11.08,-0.222,1.525,0.002
11.09,-0.036,0.718,0.086
11.1,-0.265,1.229,0.042
11.11,-0.273,0.35,-0.196
11.12,-0.305,1.942,0.053
11.13,-0.075,0.77,0.111
11.14,-0.084,0.903,0.042
11.15,-0.439,0.705,-0.187
11.16,-0.264,1.469,0.098
11.17,-0.285,1.039,0.164
11.18,0.028,0.567,0.072
11.19,-0.542,0.99,-0.187
11.2,-0.058,1.443,0.088
11.21,-0.185,1.059,0.095
11.22,0.02,0.678,0.015
11.23,-0.472,0.724,-0.156
11.24,-0.141,1.848,0.152
11.25,-0.112,0.683,0.22
11.26,-0.081,0.97,0.003
11.27,-0.415,0.294,-0.154
11.28,-0.091,2.0,0.091
11.29,-0.086,0.655,0.026
11.3,-0.042,0.764,-0.026
11.31,-0.439,0.65,-0.213
11.32,-0.068,1.655,0.142
11.33,-0.153,1.118,0.089
11.34,0.088,0.363,-0.057
11.35,-0.565,0.968,-0.196
11.36,0.034,1.412,0.118
11.37,-0.239,1.22,0.098
11.38,-0.019,0.605,-0.065
11.39,-0.479,0.701,-0.178
11.4,-0.067,1.778,0.174
11.41,-0.1,0.906,0.093
11.42,-0.092,0.912,-0.075
11.43,-0.426,0.275,-0.163
11.44,-0.16,1.704,0.185
11.45,-0.117,0.808,0.104
11.46,-0.2,0.965,-0.07
11.47,-0.379,0.456,-0.187
11.48,-0.151,1.338,0.235
11.49,-0.224,1.297,0.062
11.5,-0.083,0.481,-0.099
11.51,-0.48,0.983,-0.124
11.52,-0.07,1.049,0.239
11.53,-0.277,1.299,0.074
11.54,-0.111,0.577,-0.1
11.55,-0.479,0.748,-0.102
11.56,-0.077,1.233,0.13
11.57,-0.139,0.828,0.003
11.58,-0.259,0.989,-0.136
11.59,-0.418,0.295,-0.099
11.6,-0.196,1.394,0.186
11.61,-0.21,0.803,0.014
11.62,-0.209,0.815,-0.086
11.63,-0.35,0.688,-0.091
11.64,-0.046,1.077,0.146
11.65,-0.156,0.926,-0.019
11.66,-0.351,0.606,-0.171
11.67,-0.22,1.384,-0.095
11.68,-0.084,0.832,0.14
11.69,-0.235,1.242,0.031
11.7,-0.303,0.398,-0.198
11.71,-0.239,1.603,-0.032
11.72,-0.019,0.802,0.131
11.73,-0.207,1.093,0.024
11.74,-0.374,0.627,-0.197
11.75,-0.153,1.325,0.014
11.76,-0.164,1.157,0.111
11.77,0.114,0.665,-0.004
11.78,-0.424,1.043,-0.231
11.79,-0.094,1.271,0.035
11.8,-0.246,1.06,0.109
11.81,-0.002,0.784,0.002
11.82,-0.414,0.71,-0.197
11.83,-0.188,1.718,0.019
11.84,-0.105,0.682,0.101
11.85,-0.079,1.058,0.001
11.86,-0.375,0.351,-0.246
11.87,-0.233,2.0,0.119
11.88,-0.082,0.656,0.094
11.89,-0.088,0.883,0.011
11.9,-0.452,0.615,-0.196
11.91,-0.121,1.758,0.095
11.92,-0.283,0.988,0.154
11.93,0.041,0.427,0.046
11.94,-0.505,1.043,-0.172
11.95,0.022,1.456,0.136
11.96,-0.131,1.19,0.092
11.97,0.063,0.464,-0.029
11.98,-0.467,0.748,-0.166
11.99,0.014,1.887,0.139
12.0,-0.152,0.716,0.138
12.01,-0.051,0.925,-0.013
12.02,-0.423,0.292,-0.213
12.03,-0.104,2.0,0.147
12.04,-0.105,0.832,0.127
12.05,-0.194,0.763,-0.041
12.06,-0.338,0.514,-0.189
12.07,-0.177,1.517,0.127
12.08,-0.133,1.191,0.082
12.09,-0.065,0.476,-0.084
12.1,-0.417,0.933,-0.156
12.11,-0.054,1.211,0.171
12.12,-0.244,1.247,0.097
12.13,-0.081,0.644,-0.082
12.14,-0.464,0.733,-0.155
12.15,-0.133,1.366,0.157
12.16,-0.157,0.986,0.045
12.17,-0.146,1.049,-0.103
12.18,-0.404,0.279,-0.121
12.19,-0.133,1.437,0.181
12.2,-0.073,0.853,0.028
12.21,-0.295,0.868,-0.148
12.22,-0.349,0.535,-0.142
12.23,-0.113,1.161,0.153
12.24,-0.18,1.085,-0.038
12.25,-0.137,0.485,-0.125
12.26,-0.491,1.026,-0.089
12.27,0.033,0.891,0.185
12.28,-0.179,1.309,-0.014
12.29,-0.306,0.353,-0.143
12.3,-0.315,1.038,-0.024
12.31,-0.102,1.078,0.122
12.32,-0.195,0.857,0.063
12.33,-0.375,0.839,-0.117
12.34,-0.288,0.694,-0.061
12.35,-0.167,1.308,0.155
12.36,-0.102,0.782,0.009
12.37,-0.388,0.849,-0.202
12.38,-0.196,1.009,-0.072
12.39,-0.128,1.036,0.114
12.4,-0.076,1.106,-0.025
12.41,-0.314,0.441,-0.181
12.42,-0.158,1.77,-0.024
12.43,-0.026,0.705,0.113
12.44,-0.111,1.227,0.05
12.45,-0.396,0.323,-0.191
12.46,-0.273,2.0,0.114
12.47,-0.147,0.708,0.165
12.48,-0.156,0.908,0.081
12.49,-0.407,0.574,-0.134
12.5,-0.217,1.708,0.128
12.51,-0.108,0.988,0.125
12.52,0.059,0.503,0.004
12.53,-0.509,0.966,-0.193
12.54,0.021,1.525,0.093
12.55,-0.238,1.138,0.089
12.56,0.073,0.545,0.009
12.57,-0.504,0.737,-0.217
12.58,-0.015,1.866,0.118
12.59,-0.158,0.677,0.056
12.6,0.032,0.936,-0.018
12.61,-0.416,0.325,-0.221
12.62,-0.128,2.0,0.148
12.63,-0.148,0.692,0.139
12.64,-0.123,0.806,0.041
12.65,-0.472,0.453,-0.177
12.66,-0.122,1.67,0.198
12.67,-0.197,1.137,0.08
12.68,-0.028,0.433,-0.023
12.69,-0.465,0.937,-0.14
12.7,0.004,1.441,0.167
12.71,-0.272,1.219,0.084
12.72,0.017,0.451,-0.023
12.73,-0.548,0.786,-0.152
12.74,0.01,1.498,0.133
12.75,-0.228,0.895,0.11
12.76,-0.134,0.969,-0.083
12.77,-0.365,0.27,-0.149
12.78,-0.131,1.68,0.171
12.79,-0.203,0.795,0.08
12.8,-0.138,1.013,-0.121
12.81,-0.404,0.41,-0.19
12.82,-0.012,1.321,0.173
12.83,-0.205,1.169,-0.016
12.84,-0.044,0.512,-0.163
12.85,-0.421,0.965,-0.212
12.86,0.012,0.975,0.214
12.87,-0.292,1.291,0.027
12.88,-0.138,0.424,-0.121
12.89,-0.478,0.833,-0.116
12.9,-0.096,1.101,0.2
12.91,-0.142,0.937,0.004
12.92,-0.313,0.832,-0.131
12.93,-0.429,0.34,-0.065
12.94,-0.181,1.363,0.183
12.95,-0.214,0.732,0.057
12.96,-0.32,0.906,-0.105
12.97,-0.459,0.571,-0.074
12.98,-0.115,1.155,0.138
12.99,-0.205,1.12,0.027
13.0,-0.229,0.376,-0.196
13.01,-0.304,1.307,-0.05
13.02,0.055,0.823,0.142
13.03,-0.299,1.282,0.037
13.04,-0.235,0.295,-0.188
13.05,-0.351,1.226,-0.06
13.06,-0.095,0.967,0.128
13.07,-0.143,0.96,0.007
13.08,-0.398,0.739,-0.2
13.09,-0.175,0.977,-0.014
13.1,-0.147,1.297,0.186
13.11,-0.074,0.681,0.055
13.12,-0.387,0.935,-0.178
13.13,-0.229,1.362,-0.0
13.14,-0.129,1.031,0.118
13.15,-0.151,0.935,0.04
13.16,-0.402,0.57,-0.176
13.17,-0.261,1.881,0.064
13.18,-0.114,0.624,0.148
13.19,-0.195,1.161,0.05
13.2,-0.309,0.411,-0.198
13.21,-0.308,1.92,0.066
13.22,-0.11,0.777,0.122
13.23,-0.106,0.78,0.053
13.24,-0.417,0.732,-0.169
13.25,-0.083,1.86,0.118
13.26,-0.119,1.004,0.087
13.27,-0.009,0.4,-0.019
13.28,-0.455,0.983,-0.229
13.29,0.059,1.564,0.098
13.3,-0.211,1.24,0.114
13.31,0.066,0.4,-0.015
13.32,-0.462,0.797,-0.19
13.33,0.014,1.726,0.085
13.34,-0.092,0.828,0.018
13.35,-0.047,0.939,-0.061
13.36,-0.396,0.266,-0.155
13.37,-0.09,1.944,0.207
13.38,-0.098,0.8,0.105
13.39,-0.168,0.84,-0.035
13.4,-0.379,0.384,-0.171
13.41,-0.194,1.505,0.208
13.42,-0.241,1.094,0.092
13.43,-0.04,0.614,-0.095
13.44,-0.494,0.886,-0.104
13.45,-0.005,1.183,0.246
13.46,-0.388,1.323,0.095
13.47,-0.021,0.552,-0.062
13.48,-0.525,0.802,-0.138
13.49,0.013,1.274,0.164
13.5,-0.258,1.047,0.049
13.51,-0.163,0.915,-0.116
13.52,-0.456,0.317,-0.097
13.53,-0.109,1.502,0.196
13.54,-0.275,0.778,0.041
13.55,-0.208,0.957,-0.128
13.56,-0.455,0.413,-0.131
13.57,-0.1,1.225,0.202
13.58,-0.203,1.089,-0.027
13.59,-0.229,0.467,-0.141
13.6,-0.421,0.983,-0.063
13.61,-0.055,0.874,0.203
13.62,-0.329,1.302,0.029
13.63,-0.216,0.279,-0.102
13.64,-0.42,1.034,-0.004
13.65,-0.052,1.034,0.137
13.66,-0.196,0.973,0.024
13.67,-0.346,0.71,-0.176
13.68,-0.222,0.824,-0.039
13.69,-0.177,1.315,0.179
13.7,-0.144,0.728,0.062
13.71,-0.451,0.871,-0.135
13.72,-0.131,1.114,-0.004
13.73,-0.169,1.103,0.123
13.74,-0.137,0.949,-0.037
13.75,-0.295,0.643,-0.268
13.76,-0.217,1.719,-0.011
13.77,-0.056,0.723,0.116
13.78,-0.198,1.23,0.032
13.79,-0.296,0.379,-0.211
13.8,-0.245,1.89,0.007
13.81,-0.114,0.82,0.136
13.82,-0.064,0.837,0.057
13.83,-0.483,0.815,-0.167
13.84,-0.215,1.471,0.071
13.85,-0.269,1.048,0.163
13.86,0.005,0.587,0.077
13.87,-0.563,0.985,-0.199
13.88,-0.146,1.526,0.119
13.89,-0.239,0.992,0.097
13.9,-0.015,0.712,0.059
13.91,-0.439,0.648,-0.136
13.92,-0.176,1.949,0.076
13.93,-0.119,0.604,0.15
13.94,-0.092,1.033,0.022
13.95,-0.357,0.33,-0.198
13.96,-0.105,2.0,0.125
13.97,-0.173,0.731,0.144
13.98,-0.013,0.696,0.036
13.99,-0.472,0.712,-0.243
14.0,-0.015,1.661,0.159
14.01,-0.222,1.163,0.111
14.02,0.079,0.306,-0.016
14.03,-0.484,1.038,-0.209
14.04,-0.03,1.512,0.064
14.05,-0.167,1.068,0.105
14.06,0.006,0.49,-0.043
14.07,-0.506,0.85,-0.168
14.08,-0.028,1.526,0.167
14.09,-0.218,1.056,0.142
14.1,-0.06,0.942,-0.074
14.11,-0.458,0.279,-0.17
14.12,-0.126,1.774,0.197
14.13,-0.18,0.787,0.123
14.14,-0.122,1.024,-0.075
14.15,-0.437,0.353,-0.192
14.16,-0.13,1.476,0.209
14.17,-0.287,1.111,0.072
14.18,-0.019,0.662,-0.099
14.19,-0.539,0.814,-0.123
14.2,0.056,1.114,0.215
14.21,-0.312,1.392,0.039
14.22,0.028,0.503,-0.103
14.23,-0.457,0.864,-0.191
14.24,-0.024,1.172,0.125
14.25,-0.227,1.056,0.076
14.26,-0.187,0.882,-0.147
14.27,-0.412,0.374,-0.121
14.28,-0.21,1.392,0.192
14.29,-0.171,0.832,0.026
14.3,-0.29,0.943,-0.108
14.31,-0.429,0.449,-0.077
14.32,-0.136,1.263,0.227
14.33,-0.219,1.008,-0.015
14.34,-0.229,0.584,-0.138
14.35,-0.474,0.973,-0.053
14.36,-0.061,0.893,0.186
14.37,-0.254,1.307,0.044
14.38,-0.281,0.312,-0.147
14.39,-0.433,1.093,-0.03
14.4,-0.075,0.952,0.133
14.41,-0.208,1.046,0.049
14.42,-0.33,0.626,-0.154
14.43,-0.316,0.845,-0.053
14.44,-0.084,1.277,0.158
14.45,-0.167,0.709,0.054
14.46,-0.417,0.848,-0.149
14.47,-0.145,0.948,-0.088
14.48,-0.194,1.165,0.138
14.49,-0.171,0.945,0.022
14.5,-0.319,0.626,-0.235
14.51,-0.169,1.566,-0.071
14.52,-0.077,0.759,0.122
14.53,-0.193,1.208,-0.01
14.54,-0.302,0.335,-0.163
14.55,-0.2,1.714,-0.041
14.56,-0.114,0.815,0.127
14.57,-0.142,1.01,0.034
14.58,-0.426,0.714,-0.245
14.59,-0.162,1.211,0.033
14.6,-0.265,1.123,0.097
14.61,-0.021,0.693,0.04
14.62,-0.428,0.947,-0.195
14.63,-0.188,1.309,0.101
14.64,-0.112,1.167,0.188
14.65,-0.146,0.758,0.039
14.66,-0.395,0.726,-0.137
14.67,-0.288,1.875,0.044
14.68,-0.172,0.606,0.188
14.69,-0.131,1.158,0.056
14.7,-0.457,0.269,-0.221
14.71,-0.29,1.919,0.12
14.72,-0.125,0.703,0.099
14.73,-0.124,0.844,0.063
14.74,-0.536,0.684,-0.169
14.75,-0.195,1.677,0.113
14.76,-0.29,0.953,0.15
14.77,0.168,0.534,0.01
14.78,-0.512,0.987,-0.179
14.79,-0.032,1.488,0.135
14.8,-0.29,1.074,0.156
14.81,0.104,0.566,0.031
14.82,-0.51,0.711,-0.166
14.83,0.047,1.9,0.058
14.84,-0.094,0.675,0.111
14.85,-0.056,0.902,-0.047
14.86,-0.419,0.381,-0.151
14.87,-0.127,1.888,0.18
14.88,-0.059,0.687,0.096
14.89,-0.139,0.976,-0.052
14.9,-0.412,0.292,-0.149
14.91,-0.132,1.742,0.171
14.92,-0.159,1.047,0.057
14.93,-0.014,0.545,-0.053
14.94,-0.482,0.87,-0.199
14.95,-0.035,1.175,0.205
14.96,-0.346,1.28,0.06
14.97,-0.007,0.483,-0.055
14.98,-0.508,0.922,-0.154
14.99,-0.055,1.268,0.201
15.0,-0.231,1.04,0.126
15.01,-0.173,0.858,-0.088
15.02,-0.433,0.427,-0.137
15.03,-0.167,1.539,0.16
15.04,-0.129,0.795,0.078
15.05,-0.172,1.05,-0.084
15.06,-0.439,0.306,-0.163
15.07,-0.141,1.365,0.193
15.08,-0.192,0.949,0.0
15.09,-0.222,0.626,-0.131
15.1,-0.409,0.798,-0.192
15.11,-0.083,0.991,0.177
15.12,-0.222,1.337,0.029
15.13,-0.087,0.356,-0.152
15.14,-0.479,0.99,-0.138
15.15,0.001,0.971,0.158
15.16,-0.271,1.117,0.031
15.17,-0.211,0.704,-0.174
15.18,-0.432,0.496,-0.066
15.19,-0.17,1.375,0.153
15.2,-0.174,0.686,0.061
15.21,-0.427,0.878,-0.107
15.22,-0.336,0.429,-0.063
15.23,-0.131,1.29,0.134
15.24,-0.179,0.964,0.005
15.25,-0.308,0.574,-0.128
15.26,-0.413,1.039,-0.026
15.27,-0.05,0.914,0.166
15.28,-0.25,1.279,0.065
15.29,-0.219,0.257,-0.136
15.3,-0.377,1.366,-0.066
15.31,0.004,0.882,0.091
15.32,-0.278,1.05,-0.022
15.33,-0.231,0.534,-0.198
15.34,-0.25,1.165,-0.099
15.35,-0.113,1.194,0.123
15.36,-0.149,0.688,0.043
15.37,-0.437,0.995,-0.186
15.38,-0.23,1.016,-0.023
15.39,-0.193,1.179,0.142
15.4,-0.16,0.858,0.007
15.41,-0.374,0.749,-0.205
15.42,-0.277,1.554,-0.006
15.43,-0.105,0.737,0.147
15.44,-0.241,1.201,0.047
15.45,-0.294,0.35,-0.164
15.46,-0.36,1.913,0.04
15.47,-0.084,0.713,0.14
15.48,-0.183,1.013,0.068
15.49,-0.409,0.63,-0.146
15.5,-0.263,1.596,0.066
15.51,-0.267,0.976,0.161
15.52,0.039,0.643,0.022
15.53,-0.616,1.019,-0.153
15.54,-0.099,1.413,0.119
15.55,-0.372,1.069,0.167
15.56,-0.003,0.63,0.06
15.57,-0.495,0.795,-0.196
15.58,-0.138,1.738,0.108
15.59,-0.118,0.847,0.166
15.6,-0.077,0.916,0.016
15.61,-0.405,0.346,-0.157
15.62,-0.212,2.0,0.138
15.63,-0.184,0.571,0.136
15.64,-0.091,0.9,0.005
15.65,-0.408,0.519,-0.241
15.66,-0.135,1.967,0.116
15.67,-0.124,0.888,0.097
15.68,-0.104,0.508,-0.026
15.69,-0.412,0.786,-0.192
15.7,-0.134,1.476,0.18
15.71,-0.279,1.215,0.172
15.72,-0.041,0.478,0.002
15.73,-0.502,0.94,-0.157
15.74,0.02,1.62,0.21
15.75,-0.296,1.211,0.122
15.76,-0.013,0.664,-0.031
15.77,-0.403,0.526,-0.134
15.78,-0.128,1.757,0.221
15.79,-0.133,0.778,0.108
15.8,-0.156,1.008,-0.047
15.81,-0.376,0.224,-0.167
15.82,-0.097,1.715,0.163
15.83,-0.205,0.943,0.116
15.84,-0.117,0.733,-0.115
15.85,-0.417,0.712,-0.157
15.86,-0.02,1.282,0.21
15.87,-0.252,1.37,0.035
15.88,-0.004,0.398,-0.133
15.89,-0.463,0.984,-0.219
15.9,0.019,1.125,0.145
15.91,-0.266,1.168,0.008
15.92,-0.233,0.728,-0.144
15.93,-0.45,0.519,-0.142
15.94,-0.16,1.375,0.203
15.95,-0.142,0.806,0.063
15.96,-0.35,0.988,-0.132
15.97,-0.437,0.338,-0.108
15.98,-0.156,1.369,0.175
15.99,-0.224,0.905,0.021
16.0,-0.287,0.674,-0.096
16.01,-0.461,0.825,-0.106
16.02,-0.078,0.999,0.219
16.03,-0.246,1.278,0.051
16.04,-0.309,0.314,-0.152
16.05,-0.435,1.11,-0.049
16.06,-0.057,0.916,0.142
16.07,-0.321,1.175,0.064
16.08,-0.22,0.519,-0.163
16.09,-0.457,0.88,-0.018
16.1,-0.068,1.219,0.128
16.11,-0.162,0.847,0.029
16.12,-0.41,0.866,-0.137
16.13,-0.243,0.828,-0.03
16.14,-0.222,1.224,0.134
16.15,-0.099,0.867,-0.001
16.16,-0.395,0.749,-0.186
16.17,-0.308,1.323,-0.028
16.18,-0.098,0.818,0.095
16.19,-0.285,1.224,0.013
16.2,-0.249,0.336,-0.225
16.21,-0.306,1.864,-0.019
16.22,-0.04,0.686,0.094
16.23,-0.171,1.114,0.054
16.24,-0.404,0.51,-0.205
16.25,-0.25,1.631,0.029
16.26,-0.203,1.006,0.117
16.27,0.013,0.622,0.053
16.28,-0.47,1.009,-0.207
16.29,-0.201,1.333,0.104
16.3,-0.246,1.145,0.174
16.31,0.002,0.552,0.085
16.32,-0.468,0.829,-0.126
16.33,-0.153,1.753,0.157
16.34,-0.173,0.794,0.152
16.35,-0.061,0.871,-0.025
16.36,-0.346,0.303,-0.206
16.37,-0.157,2.0,0.128
16.38,-0.086,0.578,0.092
16.39,-0.09,0.865,-0.044
16.4,-0.385,0.448,-0.255
16.41,-0.078,1.846,0.109
16.42,-0.19,0.969,0.113
16.43,-0.016,0.421,-0.026
16.44,-0.49,0.915,-0.194
16.45,0.057,1.497,0.147
16.46,-0.296,1.35,0.119
16.47,0.037,0.444,-0.037
16.48,-0.543,0.961,-0.132
16.49,0.009,1.299,0.216
16.5,-0.291,1.207,0.07
16.51,-0.063,0.796,-0.092
16.52,-0.498,0.503,-0.127
16.53,-0.101,1.55,0.181
16.54,-0.234,0.894,0.053
16.55,-0.164,1.073,-0.109
16.56,-0.447,0.267,-0.172
16.57,-0.167,1.421,0.183
16.58,-0.164,0.915,-0.034
16.59,-0.203,0.747,-0.153
16.6,-0.453,0.752,-0.15
16.61,-0.008,0.99,0.155
16.62,-0.332,1.261,-0.037
16.63,-0.118,0.334,-0.104
16.64,-0.574,1.048,-0.074
16.65,0.02,0.906,0.158
16.66,-0.328,1.219,0.011
16.67,-0.243,0.496,-0.181
16.68,-0.414,0.77,-0.04
16.69,-0.067,1.222,0.129
16.7,-0.108,0.774,0.027
16.71,-0.451,0.818,-0.196
16.72,-0.162,0.737,-0.036
16.73,-0.255,1.3,0.147
16.74,-0.149,0.788,0.057
16.75,-0.367,0.737,-0.161
16.76,-0.214,1.347,-0.059
16.77,-0.076,0.91,0.113
16.78,-0.221,1.185,0.009
16.79,-0.275,0.421,-0.183
16.8,-0.282,1.805,0.03
16.81,-0.086,0.723,0.128
16.82,-0.188,1.104,0.039
16.83,-0.378,0.539,-0.223
16.84,-0.25,1.593,0.038
16.85,-0.203,0.985,0.109
16.86,-0.036,0.67,0.028
16.87,-0.576,1.026,-0.209
16.88,-0.17,1.337,0.118
16.89,-0.285,1.105,0.224
16.9,-0.042,0.648,0.094
16.91,-0.508,0.957,-0.134
16.92,-0.177,1.739,0.074
16.93,-0.136,0.804,0.166
16.94,-0.06,0.936,0.009
16.95,-0.407,0.399,-0.157
16.96,-0.221,2.0,0.084
16.97,0.014,0.604,0.069
16.98,-0.15,0.915,-0.013
16.99,-0.367,0.383,-0.185
17.0,-0.075,1.916,0.125
17.01,-0.153,0.92,0.074
17.02,0.017,0.45,-0.065
17.03,-0.549,0.942,-0.245
17.04,0.034,1.538,0.155
17.05,-0.262,1.189,0.057
17.06,0.125,0.39,-0.013
17.07,-0.531,0.828,-0.199
17.08,-0.041,1.582,0.113
17.09,-0.214,0.951,0.131
17.1,-0.12,0.88,-0.064
17.11,-0.44,0.303,-0.14
17.12,-0.106,1.927,0.169
17.13,-0.177,0.736,0.145
17.14,-0.142,0.949,-0.053
17.15,-0.412,0.382,-0.173
17.16,-0.161,1.635,0.173
17.17,-0.194,1.104,0.057
17.18,-0.009,0.591,-0.083
17.19,-0.516,0.913,-0.126
17.2,-0.02,1.129,0.226
17.21,-0.37,1.31,0.06
17.22,-0.053,0.55,-0.063
17.23,-0.508,0.833,-0.182
17.24,0.002,1.248,0.182
17.25,-0.192,1.085,0.038
17.26,-0.17,0.555,-0.131
17.27,-0.472,0.647,-0.051
17.28,-0.164,1.24,0.212
17.29,-0.206,0.789,0.028
17.3,-0.315,0.919,-0.096
17.31,-0.28,0.487,-0.107
17.32,-0.134,1.343,0.097
17.33,-0.111,0.831,-0.009
17.34,-0.392,0.714,-0.169
17.35,-0.275,0.944,-0.071
17.36,-0.093,0.909,0.114
17.37,-0.23,1.24,-0.022
17.38,-0.205,0.282,-0.203
17.39,-0.248,1.633,-0.058
17.4,-0.001,0.79,0.118
17.41,-0.22,1.139,-0.011
17.42,-0.316,0.523,-0.202
17.43,-0.213,1.469,-0.027
17.44,-0.137,1.038,0.084
17.45,0.022,0.723,-0.003
17.46,-0.469,0.964,-0.267
17.47,-0.098,1.241,0.043
17.48,-0.277,1.16,0.112
17.49,0.007,0.662,0.024
17.5,-0.487,0.872,-0.223
17.51,-0.146,1.712,0.075
17.52,-0.131,0.868,0.137
17.53,-0.092,0.911,0.016
17.54,-0.448,0.365,-0.196
17.55,-0.178,2.0,0.089
17.56,-0.147,0.545,0.087
17.57,-0.073,1.024,-0.002
17.58,-0.383,0.478,-0.256
17.59,-0.154,1.829,0.074
17.6,-0.17,0.954,0.129
17.61,0.06,0.454,-0.025
17.62,-0.547,0.929,-0.168
17.63,-0.017,1.481,0.148
17.64,-0.259,1.198,0.095
17.65,0.071,0.456,0.012
17.66,-0.528,0.886,-0.222
17.67,-0.03,1.688,0.161
17.68,-0.21,0.881,0.049
17.69,-0.049,0.749,-0.043
17.7,-0.418,0.382,-0.187
17.71,-0.161,1.797,0.153
17.72,-0.084,0.727,0.027
17.73,-0.15,0.938,-0.025
17.74,-0.334,0.342,-0.164
17.75,-0.118,1.698,0.159
17.76,-0.14,1.053,0.082
17.77,-0.075,0.601,-0.104
17.78,-0.478,0.898,-0.174
17.79,-0.021,1.342,0.236
17.8,-0.293,1.385,0.105
17.81,-0.026,0.437,-0.06
17.82,-0.49,0.878,-0.163
17.83,-0.039,1.293,0.151
17.84,-0.228,1.07,0.104
17.85,-0.135,0.916,-0.118
17.86,-0.353,0.372,-0.147
17.87,-0.208,1.532,0.146
17.88,-0.138,0.804,0.012
17.89,-0.242,1.051,-0.122
17.9,-0.343,0.295,-0.17
17.91,-0.205,1.267,0.166
17.92,-0.176,1.059,0.011
17.93,-0.204,0.588,-0.11
17.94,-0.404,0.949,-0.09
17.95,-0.015,0.92,0.199
17.96,-0.304,1.263,0.008
17.97,-0.15,0.345,-0.113
17.98,-0.46,1.067,-0.07
17.99,-0.093,1.011,0.154
18.0,-0.24,0.979,0.017
18.01,-0.322,0.7,-0.163
18.02,-0.295,0.639,-0.057
18.03,-0.155,1.291,0.112
18.04,-0.132,0.744,0.036
18.05,-0.451,0.887,-0.124
18.06,-0.208,0.925,-0.074
18.07,-0.184,1.227,0.181
18.08,-0.116,0.731,0.036
18.09,-0.435,0.886,-0.207
18.1,-0.201,1.589,0.004
18.11,-0.068,0.894,0.121
18.12,-0.164,0.998,0.01
18.13,-0.337,0.41,-0.207
18.14,-0.22,2.0,0.017
18.15,-0.123,0.656,0.18
18.16,-0.159,1.042,0.032
18.17,-0.415,0.468,-0.234
18.18,-0.21,1.823,0.023
18.19,-0.16,0.885,0.115
18.2,0.001,0.643,0.029
18.21,-0.455,0.969,-0.235
18.22,-0.109,1.428,0.075
18.23,-0.151,1.208,0.162
18.24,0.038,0.442,0.032
18.25,-0.516,0.913,-0.176
18.26,-0.017,1.794,0.067
18.27,-0.109,0.845,0.113
18.28,-0.029,0.841,-0.026
18.29,-0.419,0.377,-0.214
18.3,-0.103,2.0,0.113
18.31,-0.117,0.598,0.146
18.32,-0.088,0.902,0.023
18.33,-0.397,0.42,-0.216
18.34,-0.095,1.815,0.104
18.35,-0.121,0.974,0.084
18.36,0.041,0.539,-0.067
18.37,-0.45,0.895,-0.161
18.38,0.079,1.557,0.11
18.39,-0.233,1.239,0.072
18.4,0.072,0.47,-0.057
18.41,-0.442,0.918,-0.199
18.42,-0.031,1.586,0.135
18.43,-0.18,1.013,0.105
18.44,-0.04,0.761,-0.038
18.45,-0.483,0.356,-0.164
18.46,-0.159,1.772,0.214
18.47,-0.167,0.761,0.128
18.48,-0.219,1.047,-0.066
18.49,-0.357,0.299,-0.169
18.5,-0.114,1.586,0.163
18.51,-0.183,1.061,0.064
18.52,-0.051,0.708,-0.095
18.53,-0.506,0.98,-0.175
18.54,-0.079,1.303,0.176
18.55,-0.25,1.171,0.114
18.56,-0.095,0.597,-0.068
18.57,-0.393,0.776,-0.203
18.58,-0.117,1.474,0.15
18.59,-0.166,0.953,0.078
18.6,-0.147,0.972,-0.102
18.61,-0.313,0.311,-0.203
18.62,-0.229,1.614,0.196
18.63,-0.082,0.781,0.055
18.64,-0.154,1.014,-0.138
18.65,-0.381,0.428,-0.213
18.66,-0.104,1.288,0.186
18.67,-0.248,1.129,0.053
18.68,-0.066,0.523,-0.152
18.69,-0.488,0.923,-0.175
18.7,-0.072,0.979,0.208
18.71,-0.272,1.333,0.089
18.72,-0.087,0.491,-0.128
18.73,-0.489,0.799,-0.136
18.74,-0.03,1.182,0.147
18.75,-0.331,1.126,0.094
18.76,-0.234,0.635,-0.129
18.77,-0.435,0.647,-0.047
18.78,-0.12,1.309,0.142
18.79,-0.184,0.712,0.055
18.8,-0.302,0.928,-0.124
18.81,-0.432,0.635,0.005
18.82,-0.133,1.273,0.139
18.83,-0.243,0.919,0.049
18.84,-0.291,0.586,-0.17
18.85,-0.298,1.246,-0.109
18.86,-0.028,0.879,0.14
18.87,-0.235,1.235,0.007
18.88,-0.232,0.313,-0.197
18.89,-0.305,1.48,-0.041
18.9,-0.089,0.787,0.138
18.91,-0.232,1.131,0.002
18.92,-0.317,0.519,-0.198
18.93,-0.141,1.339,-0.023
18.94,-0.136,1.148,0.162
18.95,-0.023,0.64,0.023
18.96,-0.47,1.012,-0.184
18.97,-0.14,1.115,0.04
18.98,-0.304,1.083,0.165
18.99,-0.034,0.811,0.044
19.0,-0.499,0.808,-0.176
19.01,-0.221,1.485,0.086
19.02,-0.194,0.776,0.166
19.03,-0.143,1.131,0.004
19.04,-0.335,0.363,-0.24
19.05,-0.213,2.0,0.03
19.06,-0.05,0.689,0.119
19.07,-0.075,0.988,0.009
19.08,-0.464,0.52,-0.216
19.09,-0.149,1.73,0.052
19.1,-0.241,0.985,0.094
19.11,0.08,0.529,0.063
19.12,-0.596,1.022,-0.207
19.13,-0.024,1.432,0.117
19.14,-0.283,1.117,0.121
19.15,0.042,0.525,0.054
19.16,-0.57,0.84,-0.142
19.17,-0.054,1.856,0.086
19.18,-0.187,0.716,0.098
19.19,-0.017,0.951,-0.015
19.2,-0.429,0.311,-0.147
19.21,-0.142,2.0,0.154
19.22,-0.157,0.661,0.15
19.23,-0.12,0.837,0.013
19.24,-0.372,0.424,-0.177
19.25,-0.088,1.855,0.139
19.26,-0.077,0.992,0.108
19.27,-0.048,0.437,-0.085
19.28,-0.48,0.898,-0.143
19.29,-0.042,1.519,0.176
19.3,-0.268,1.233,0.145
19.31,0.026,0.437,-0.007
19.32,-0.417,0.871,-0.201
19.33,-0.119,1.595,0.149
19.34,-0.094,0.929,0.076
19.35,-0.155,0.944,-0.062
19.36,-0.315,0.304,-0.157
19.37,-0.253,1.734,0.183
19.38,-0.112,0.781,0.123
19.39,-0.205,1.062,-0.051
19.4,-0.379,0.365,-0.158
19.41,-0.094,1.496,0.2
19.42,-0.22,1.161,0.068
19.43,-0.018,0.654,-0.102
19.44,-0.443,0.936,-0.164
19.45,-0.061,1.115,0.218
19.46,-0.246,1.309,0.057
19.47,-0.037,0.534,-0.06
19.48,-0.461,0.881,-0.153
19.49,-0.083,1.155,0.173
19.5,-0.186,0.937,0.018
19.51,-0.207,0.883,-0.155
19.52,-0.406,0.373,-0.098
19.53,-0.19,1.408,0.153
19.54,-0.186,0.742,0.024
19.55,-0.294,0.835,-0.149
19.56,-0.349,0.567,-0.042
19.57,-0.098,1.324,0.139
19.58,-0.231,0.845,0.054
19.59,-0.315,0.689,-0.151
19.6,-0.336,1.111,-0.051
19.61,-0.093,0.942,0.16
19.62,-0.27,1.217,0.059
19.63,-0.282,0.284,-0.206
19.64,-0.37,1.543,-0.041
19.65,-0.019,0.801,0.139
19.66,-0.26,1.206,-0.039
19.67,-0.308,0.449,-0.21
19.68,-0.244,1.349,0.022
19.69,-0.104,1.092,0.139
19.7,-0.004,0.753,0.038
19.71,-0.465,1.048,-0.249
19.72,-0.247,1.06,0.067
19.73,-0.246,1.132,0.099
19.74,-0.077,0.823,0.048
19.75,-0.405,0.776,-0.217
19.76,-0.16,1.604,0.03
19.77,-0.116,0.875,0.156
19.78,-0.122,1.025,0.009
19.79,-0.43,0.35,-0.216
19.8,-0.228,2.0,0.05
19.81,-0.104,0.589,0.092
19.82,-0.128,1.017,0.031
19.83,-0.493,0.448,-0.188
19.84,-0.144,1.83,0.104
19.85,-0.196,0.937,0.118
19.86,-0.008,0.5,0.041
19.87,-0.573,0.972,-0.166
19.88,-0.011,1.517,0.153
19.89,-0.25,1.135,0.137
19.9,0.132,0.475,0.04
19.91,-0.512,0.831,-0.199
19.92,0.006,1.731,0.16
19.93,-0.167,0.849,0.123
19.94,-0.004,0.842,-0.03
19.95,-0.454,0.345,-0.209
19.96,-0.09,2.0,0.148
19.97,-0.089,0.658,0.104
19.98,-0.084,0.877,-0.04
19.99,-0.366,0.359,-0.206
20.0,-0.071,1.804,0.149
20.01,-0.077,1.022,-0.033
20.02,-0.002,0.505,-0.06
20.03,-0.48,0.908,-0.153
20.04,0.011,1.341,0.156
20.05,-0.202,1.354,0.093
20.06,0.005,0.509,-0.054
20.07,-0.441,0.833,-0.146
20.08,-0.054,1.399,0.157
20.09,-0.206,0.979,0.047
20.1,-0.082,1.037,-0.118
20.11,-0.412,0.329,-0.123
20.12,-0.185,1.532,0.209
20.13,-0.112,0.834,0.077
20.14,-0.19,1.065,-0.136
20.15,-0.341,0.438,-0.127
20.16,-0.163,1.235,0.216
20.17,-0.195,1.065,-0.05
20.18,-0.124,0.559,-0.105
20.19,-0.446,0.959,-0.125
20.2,-0.018,0.921,0.185
20.21,-0.31,1.273,-0.005
20.22,-0.181,0.362,-0.124
20.23,-0.39,0.938,-0.077
20.24,-0.117,0.954,0.152
20.25,-0.199,1.005,-0.035
20.26,-0.252,0.703,-0.154
20.27,-0.284,0.653,-0.071
20.28,-0.097,1.324,0.101
20.29,-0.191,0.71,-0.009
20.3,-0.304,0.861,-0.149
20.31,-0.316,0.934,-0.063
20.32,-0.081,1.151,0.157
20.33,-0.291,0.992,0.001
20.34,-0.294,0.522,-0.206
20.35,-0.161,1.575,0.058
20.36,-0.054,0.836,0.115
20.37,-0.124,1.041,-0.007
20.38,-0.399,0.414,-0.22
20.39,-0.287,2.0,0.06
20.4,-0.063,0.547,0.13
20.41,-0.233,1.069,0.033
20.42,-0.431,0.499,-0.139
20.43,-0.271,1.774,0.085
20.44,-0.106,0.926,0.103
20.45,0.069,0.498,-0.008
20.46,-0.542,0.944,-0.209
20.47,0.017,1.461,0.121
20.48,-0.216,1.231,0.157
20.49,0.008,0.393,-0.016
20.5,-0.424,0.824,-0.228
20.51,-0.043,1.713,0.107
20.52,-0.067,0.858,0.096
20.53,-0.095,0.845,-0.049
20.54,-0.315,0.35,-0.187
20.55,-0.159,1.987,0.152
20.56,-0.031,0.734,0.073
20.57,-0.144,0.912,-0.044
20.58,-0.302,0.392,-0.208
20.59,-0.171,1.573,0.157
20.6,-0.157,1.116,0.073
20.61,-0.026,0.601,-0.071
20.62,-0.483,0.856,-0.132
20.63,-0.03,1.194,0.21
20.64,-0.344,1.292,0.093
20.65,-0.079,0.567,-0.023
20.66,-0.488,0.838,-0.123
20.67,-0.038,1.309,0.201
20.68,-0.216,1.165,0.05
20.69,-0.118,0.915,-0.131
20.7,-0.339,0.361,-0.095
20.71,-0.219,1.428,0.179
20.72,-0.148,0.773,0.041
20.73,-0.311,1.031,-0.096
20.74,-0.403,0.412,-0.094
20.75,-0.168,1.271,0.179
20.76,-0.286,1.004,-0.018
20.77,-0.199,0.514,-0.153
20.78,-0.425,0.998,-0.044
20.79,0.0,0.873,0.182
20.8,-0.28,1.345,-0.01
20.81,-0.211,0.234,-0.166
20.82,-0.27,1.264,-0.09
20.83,-0.016,0.971,0.094
20.84,-0.19,0.968,-0.014
20.85,-0.419,0.663,-0.193
20.86,-0.218,0.852,-0.03
20.87,-0.276,1.292,0.167
20.88,-0.112,0.73,0.054
20.89,-0.426,0.864,-0.169
20.9,-0.171,1.085,-0.004
20.91,-0.171,1.099,0.152
20.92,-0.116,0.97,0.0
20.93,-0.418,0.588,-0.188
20.94,-0.185,1.817,0.046
20.95,-0.137,0.717,0.185
20.96,-0.174,1.138,0.054
20.97,-0.325,0.332,-0.232
20.98,-0.258,1.958,0.054
20.99,-0.158,0.744,0.134
21.0,-0.125,0.828,0.063
21.01,-0.499,0.705,-0.193
21.02,-0.169,1.603,0.084
21.03,-0.249,1.012,0.114
21.04,0.081,0.52,0.035
21.05,-0.543,1.034,-0.16
21.06,-0.112,1.579,0.097
21.07,-0.297,1.032,0.145
21.08,0.066,0.604,0.007
21.09,-0.466,0.638,-0.184
21.1,-0.044,1.848,0.091
21.11,0.038,0.682,0.068
21.12,-0.078,0.946,-0.068
21.13,-0.371,0.281,-0.204
21.14,-0.067,2.0,0.129
21.15,-0.092,0.724,0.097
21.16,-0.187,0.927,-0.077
21.17,-0.35,0.405,-0.191
21.18,-0.146,1.641,0.153
21.19,-0.094,1.094,0.038
21.2,-0.059,0.59,-0.063
21.21,-0.44,0.866,-0.169
21.22,-0.065,1.211,0.197
21.23,-0.309,1.306,0.126
21.24,-0.051,0.56,-0.05
21.25,-0.502,0.888,-0.107
21.26,-0.109,1.241,0.215
21.27,-0.222,1.097,0.112
21.28,-0.1,0.902,-0.111
21.29,-0.419,0.424,-0.138
21.3,-0.206,1.476,0.216
21.31,-0.17,0.738,0.008
21.32,-0.226,1.05,-0.107
21.33,-0.386,0.406,-0.109
21.34,-0.154,1.236,0.171
21.35,-0.273,0.993,-0.01
21.36,-0.211,0.559,-0.138
21.37,-0.445,0.901,-0.102
21.38,-0.027,0.937,0.178
21.39,-0.311,1.34,0.02
21.4,-0.19,0.293,-0.127
21.41,-0.369,1.123,-0.041
21.42,-0.016,0.986,0.143
21.43,-0.294,1.031,-0.005
21.44,-0.285,0.65,-0.161
21.45,-0.236,0.783,-0.03
21.46,-0.175,1.3,0.138
21.47,-0.113,0.696,0.04
21.48,-0.473,0.935,-0.171
21.49,-0.117,0.953,-0.062
21.5,-0.15,1.168,0.108
21.51,-0.136,0.892,-0.016
21.52,-0.352,0.633,-0.192
21.53,-0.201,1.683,0.003
21.54,-0.056,0.749,0.123
21.55,-0.181,1.204,0.01
21.56,-0.298,0.353,-0.234
21.57,-0.229,1.787,0.021
21.58,-0.134,0.763,0.089
21.59,-0.133,0.94,0.034
21.6,-0.391,0.737,-0.206
21.61,-0.226,1.515,0.056
21.62,-0.165,1.112,0.123
21.63,-0.002,0.563,0.027
21.64,-0.529,1.012,-0.183
21.65,-0.094,1.479,0.071
21.66,-0.159,1.06,0.11
21.67,-0.041,0.649,0.004
21.68,-0.476,0.764,-0.153
21.69,-0.134,1.958,0.08
21.7,-0.112,0.641,0.163
21.71,-0.056,1.04,0.004
21.72,-0.422,0.305,-0.202
21.73,-0.151,2.0,0.13
21.74,-0.213,0.678,0.128
21.75,0.02,0.811,0.011
21.76,-0.519,0.572,-0.238
21.77,0.005,1.628,0.116
21.78,-0.125,1.16,0.078
21.79,0.055,0.323,-0.06
21.8,-0.531,0.953,-0.187
21.81,0.026,1.516,0.069
21.82,-0.152,1.124,0.076
21.83,0.058,0.582,-0.015
21.84,-0.454,0.739,-0.196
21.85,-0.028,1.836,0.173
21.86,-0.115,0.742,0.087
21.87,-0.066,0.924,-0.022
21.88,-0.426,0.269,-0.181
21.89,-0.146,1.789,0.141
21.9,-0.106,0.78,0.083
21.91,-0.143,0.819,-0.065
21.92,-0.419,0.532,-0.168
21.93,-0.158,1.432,0.174
21.94,-0.226,1.179,0.131
21.95,-0.002,0.551,-0.119
21.96,-0.417,0.85,-0.134
21.97,-0.059,1.084,0.191
21.98,-0.276,1.31,0.058
21.99,-0.032,0.472,-0.144
22.0,-0.54,0.946,-0.14
22.01,0.015,1.069,0.159
22.02,-0.213,1.096,0.051
22.03,-0.29,0.757,-0.137
22.04,-0.451,0.467,-0.083
22.05,-0.147,1.401,0.159
22.06,-0.173,0.702,0.033
22.07,-0.282,0.967,-0.166
22.08,-0.429,0.392,-0.133
22.09,-0.038,1.311,0.171
22.1,-0.226,0.985,-0.0
22.11,-0.231,0.597,-0.123
22.12,-0.437,0.953,-0.097
22.13,-0.002,0.958,0.202
22.14,-0.228,1.336,0.002
22.15,-0.211,0.229,-0.172
22.16,-0.441,1.148,-0.039
22.17,-0.056,0.946,0.122
22.18,-0.215,1.093,0.031
22.19,-0.253,0.564,-0.146
22.2,-0.27,0.951,-0.065
22.21,-0.114,1.287,0.151
22.22,-0.069,0.727,0.052
22.23,-0.447,0.947,-0.146
22.24,-0.143,0.957,-0.044
22.25,-0.247,1.172,0.17
22.26,-0.11,0.92,0.029
22.27,-0.385,0.625,-0.158
22.28,-0.213,1.501,-0.023
22.29,-0.104,0.787,0.121
22.3,-0.139,1.255,0.03
22.31,-0.272,0.307,-0.196
22.32,-0.212,1.753,-0.006
22.33,-0.059,0.743,0.102
22.34,-0.172,1.05,0.031
22.35,-0.352,0.632,-0.198
22.36,-0.277,1.349,0.052
22.37,-0.245,1.077,0.124
22.38,-0.084,0.663,0.049
22.39,-0.477,0.998,-0.174
22.4,-0.185,1.343,0.092
22.41,-0.227,1.111,0.209
22.42,-0.071,0.729,0.034
22.43,-0.483,0.729,-0.137
22.44,-0.274,1.808,0.099
22.45,-0.182,0.748,0.155
22.46,-0.176,1.034,0.057
22.47,-0.375,0.373,-0.187
22.48,-0.302,2.0,0.098
22.49,-0.156,0.661,0.122
22.5,-0.094,0.922,0.036
22.51,-0.453,0.59,-0.188
22.52,-0.136,1.705,0.11
22.53,-0.225,0.997,0.083
22.54,0.045,0.471,0.034
22.55,-0.456,1.018,-0.18
22.56,-0.065,1.511,0.126
22.57,-0.212,1.153,0.143
22.58,0.01,0.482,0.012
22.59,-0.405,0.768,-0.182
22.6,-0.043,1.825,0.072
22.61,-0.077,0.759,0.061
22.62,-0.031,0.931,-0.045
22.63,-0.29,0.235,-0.25
22.64,-0.049,2.0,0.123
22.65,-0.068,0.729,0.101
22.66,-0.162,0.721,-0.021
22.67,-0.344,0.511,-0.221
22.68,-0.104,1.698,0.14
22.69,-0.1,1.102,0.021
22.7,0.047,0.396,-0.055
22.71,-0.518,0.967,-0.213
22.72,0.091,1.282,0.122
22.73,-0.253,1.248,0.021
22.74,0.036,0.587,-0.063
22.75,-0.502,0.748,-0.191
22.76,-0.03,1.116,0.198
22.77,-0.286,1.197,0.063
22.78,-0.166,0.719,-0.07
22.79,-0.432,0.534,-0.088
22.8,-0.154,1.419,0.149
22.81,-0.151,0.809,0.09
22.82,-0.192,1.074,-0.131
22.83,-0.489,0.303,-0.12
22.84,-0.15,1.376,0.206
22.85,-0.129,0.948,0.01
22.86,-0.257,0.636,-0.122
22.87,-0.397,0.796,-0.101
22.88,-0.053,0.984,0.166
22.89,-0.312,1.234,-0.013
22.9,-0.135,0.333,-0.122
22.91,-0.562,1.046,-0.026
22.92,-0.04,0.962,0.152
22.93,-0.25,1.138,0.036
22.94,-0.296,0.604,-0.15
22.95,-0.402,0.652,-0.026
22.96,-0.146,1.25,0.158
22.97,-0.147,0.721,0.066
22.98,-0.364,0.889,-0.149
22.99,-0.275,0.667,-0.015
23.0,-0.164,1.289,0.153
23.01,-0.167,0.825,0.012
23.02,-0.311,0.662,-0.202
23.03,-0.22,1.275,-0.098
23.04,-0.029,0.909,0.132
23.05,-0.22,1.205,0.016
23.06,-0.266,0.313,-0.187
23.07,-0.235,1.601,-0.069
23.08,-0.037,0.81,0.117
23.09,-0.209,1.119,0.021
23.1,-0.354,0.528,-0.165
23.11,-0.272,1.321,0.003
23.12,-0.128,1.123,0.134
23.13,-0.042,0.699,0.035
23.14,-0.424,1.003,-0.213
23.15,-0.138,1.235,0.044
23.16,-0.208,1.153,0.129
23.17,-0.02,0.727,0.024
23.18,-0.521,0.759,-0.202
23.19,-0.137,1.769,0.067
23.2,-0.211,0.765,0.148
23.21,-0.076,1.029,0.066
23.22,-0.424,0.362,-0.189
23.23,-0.264,2.0,0.147
23.24,-0.054,0.709,0.122
23.25,-0.139,0.962,0.046
23.26,-0.421,0.571,-0.216
23.27,-0.143,1.743,0.097
23.28,-0.206,1.008,0.095
23.29,0.049,0.48,0.012
23.3,-0.449,0.977,-0.22
23.31,-0.047,1.478,0.097
23.32,-0.189,1.109,0.137
23.33,0.044,0.5,0.026
23.34,-0.454,0.862,-0.17
23.35,-0.08,1.841,0.103
23.36,-0.187,0.767,0.132
23.37,0.006,0.906,-0.021
23.38,-0.351,0.298,-0.235
23.39,-0.069,2.0,0.119
23.4,-0.034,0.726,0.013
23.41,-0.12,0.778,-0.062
23.42,-0.26,0.451,-0.243
23.43,-0.065,1.904,0.13
23.44,-0.034,0.964,0.028
23.45,-0.028,0.407,-0.07
23.46,-0.441,0.927,-0.225
23.47,0.022,1.528,0.118
23.48,-0.2,1.286,0.07
23.49,-0.003,0.413,-0.007
23.5,-0.396,0.848,-0.194
23.51,-0.121,1.55,0.117
23.52,-0.182,0.95,0.168
23.53,-0.122,0.949,-0.051
23.54,-0.383,0.261,-0.14
23.55,-0.163,1.76,0.229
23.56,-0.116,0.802,0.069
23.57,-0.15,1.132,-0.115
23.58,-0.402,0.256,-0.158
23.59,-0.148,1.495,0.173
23.6,-0.157,0.927,0.08
23.61,-0.16,0.79,-0.146
23.62,-0.403,0.752,-0.179
23.63,-0.038,1.016,0.165
23.64,-0.175,1.288,-0.007
23.65,-0.116,0.337,-0.173
23.66,-0.456,1.009,-0.073
23.67,-0.065,0.952,0.155
23.68,-0.305,1.135,0.011
23.69,-0.279,0.595,-0.097
23.7,-0.448,0.62,-0.019
23.71,-0.127,1.258,0.183
23.72,-0.139,0.761,0.007
23.73,-0.329,0.935,-0.144
23.74,-0.35,0.563,0.002
23.75,-0.181,1.384,0.179
23.76,-0.241,0.776,0.064
23.77,-0.317,0.661,-0.095
23.78,-0.29,1.16,-0.059
23.79,-0.07,0.962,0.146
23.8,-0.23,1.21,0.002
23.81,-0.253,0.329,-0.184
23.82,-0.307,1.487,-0.033
23.83,-0.05,0.783,0.118
23.84,-0.335,1.13,0.002
23.85,-0.251,0.531,-0.18
23.86,-0.284,1.463,-0.042
23.87,-0.096,1.097,0.125
23.88,-0.031,0.729,0.006
23.89,-0.476,1.024,-0.227
23.9,-0.128,1.173,0.017
23.91,-0.245,1.185,0.139
23.92,-0.083,0.702,0.075
23.93,-0.481,0.804,-0.186
23.94,-0.21,1.604,0.039
23.95,-0.18,0.824,0.144
23.96,-0.101,1.016,0.036
23.97,-0.4,0.403,-0.169
23.98,-0.227,2.0,0.106
23.99,-0.108,0.659,0.191
24.0,-0.119,1.006,0.03
24.01,-0.395,0.464,-0.183
24.02,-0.146,1.807,0.143
24.03,-0.159,0.897,0.086
24.04,-0.006,0.543,0.003
24.05,-0.468,1.002,-0.199
24.06,-0.039,1.513,0.124
24.07,-0.201,1.162,0.161
24.08,0.058,0.447,-0.005
24.09,-0.468,0.916,-0.137
24.1,-0.011,1.706,0.108
24.11,-0.195,0.836,0.164
24.12,-0.012,0.841,-0.046
24.13,-0.427,0.387,-0.199
24.14,-0.041,2.0,0.13
24.15,-0.118,0.654,0.097
24.16,-0.108,0.845,-0.043
24.17,-0.349,0.449,-0.218
24.18,-0.065,1.804,0.135
24.19,-0.11,1.029,0.105
24.2,-0.103,0.412,-0.028
24.21,-0.418,0.998,-0.178
24.22,-0.028,1.435,0.17
24.23,-0.254,1.305,0.14
24.24,-0.006,0.431,-0.038
24.25,-0.47,0.888,-0.167
24.26,-0.062,1.476,0.157
24.27,-0.238,1.006,0.112
24.28,-0.118,0.951,-0.044
24.29,-0.372,0.283,-0.133
24.3,-0.198,1.767,0.244
24.31,-0.086,0.812,0.11
24.32,-0.205,1.042,-0.113
24.33,-0.414,0.308,-0.14
24.34,-0.146,1.507,0.247
24.35,-0.174,1.148,0.032
24.36,-0.169,0.791,-0.104
24.37,-0.431,0.652,-0.192
24.38,-0.054,1.052,0.224
24.39,-0.267,1.255,-0.001
24.4,-0.145,0.352,-0.138
24.41,-0.502,1.067,-0.081
24.42,-0.047,0.937,0.155
24.43,-0.246,1.211,0.006
24.44,-0.214,0.528,-0.138
24.45,-0.399,0.837,-0.055
24.46,-0.056,1.201,0.142
24.47,-0.201,0.771,0.058
24.48,-0.28,0.929,-0.125
24.49,-0.319,0.715,-0.031
24.5,-0.172,1.352,0.15
24.51,-0.2,0.787,0.031
24.52,-0.397,0.791,-0.169
24.53,-0.27,1.028,-0.042
24.54,-0.145,0.959,0.108
24.55,-0.182,1.214,0.024
24.56,-0.237,0.401,-0.188
24.57,-0.232,1.754,-0.025
24.58,0.006,0.817,0.127
24.59,-0.237,1.061,0.029
24.6,-0.312,0.474,-0.193
24.61,-0.227,1.617,-0.025
24.62,-0.103,1.001,0.115
24.63,-0.144,0.69,-0.002
24.64,-0.428,1.051,-0.225
24.65,-0.224,1.205,0.06
24.66,-0.156,1.141,0.126
24.67,-0.048,0.659,0.041
24.68,-0.424,0.972,-0.202
24.69,-0.215,1.629,0.022
24.7,-0.14,0.841,0.147
24.71,-0.078,0.937,0.02
24.72,-0.372,0.314,-0.219
24.73,-0.185,2.0,0.119
24.74,-0.131,0.71,0.12
24.75,-0.101,0.888,0.038
24.76,-0.457,0.445,-0.15
24.77,-0.095,1.901,0.175
24.78,-0.199,0.835,0.157
24.79,0.015,0.519,-0.002
24.8,-0.458,0.96,-0.222
24.81,-0.012,1.552,0.111
24.82,-0.229,1.205,0.154
24.83,0.063,0.391,-0.006
24.84,-0.476,0.918,-0.212
24.85,0.009,1.707,0.124
24.86,-0.173,0.911,0.113
24.87,0.006,0.787,-0.041
24.88,-0.474,0.372,-0.195
24.89,-0.144,1.942,0.163
24.9,-0.048,0.703,0.134
24.91,-0.198,0.885,-0.041
24.92,-0.47,0.352,-0.199
24.93,-0.189,1.7,0.199
24.94,-0.136,1.012,0.037
24.95,0.029,0.631,-0.056
24.96,-0.57,0.884,-0.18
24.97,-0.004,1.222,0.171
24.98,-0.301,1.35,0.097
24.99,-0.006,0.506,-0.068
25.0,-0.532,0.85,-0.176
25.01,-0.035,1.328,0.195
25.02,-0.183,1.104,0.068
25.03,-0.141,0.863,-0.088
25.04,-0.392,0.388,-0.152
25.05,-0.201,1.602,0.167
25.06,-0.125,0.744,0.096
25.07,-0.198,1.083,-0.112
25.08,-0.414,0.363,-0.137
25.09,-0.183,1.324,0.194
25.1,-0.182,1.031,-0.007
25.11,-0.224,0.579,-0.117
25.12,-0.485,0.86,-0.139
25.13,-0.076,0.963,0.217
25.14,-0.334,1.288,0.036
25.15,-0.116,0.406,-0.06
25.16,-0.384,1.195,-0.062
25.17,0.009,0.866,0.175
25.18,-0.234,1.256,0.031
25.19,-0.341,0.42,-0.126
25.2,-0.309,1.007,-0.011
25.21,-0.163,1.119,0.14
25.22,-0.11,0.798,0.03
25.23,-0.455,0.916,-0.176
25.24,-0.156,0.986,-0.007
25.25,-0.184,1.293,0.182
25.26,-0.129,0.755,0.065
25.27,-0.446,0.87,-0.17
25.28,-0.161,1.418,-0.047
25.29,-0.152,0.861,0.128
25.3,-0.152,1.119,0.002
25.31,-0.325,0.404,-0.227
25.32,-0.215,1.951,0.036
25.33,-0.099,0.665,0.108
25.34,-0.149,1.05,0.043
25.35,-0.338,0.531,-0.201
25.36,-0.283,1.724,0.071
25.37,-0.08,0.981,0.093
25.38,-0.031,0.611,-0.003
25.39,-0.501,0.931,-0.18
25.4,-0.191,1.386,0.123
25.41,-0.277,1.13,0.197
25.42,-0.065,0.503,0.093
25.43,-0.516,0.931,-0.186
25.44,-0.078,1.724,0.078
25.45,-0.095,0.895,0.165
25.46,-0.055,0.805,-0.018
25.47,-0.374,0.396,-0.195
25.48,-0.147,2.0,0.086
25.49,-0.048,0.603,0.137
25.5,-0.152,0.938,-0.003
25.51,-0.353,0.396,-0.188
25.52,-0.088,1.931,0.127
25.53,-0.114,0.923,0.077
25.54,-0.021,0.435,-0.023
25.55,-0.473,0.945,-0.256
25.56,0.071,1.467,0.064
25.57,-0.218,1.235,0.06
25.58,0.065,0.334,-0.055
25.59,-0.481,0.89,-0.235
25.6,0.018,1.607,0.121
25.61,-0.217,0.98,0.1
25.62,-0.085,0.791,-0.026
25.63,-0.423,0.386,-0.156
25.64,-0.181,1.812,0.199
25.65,-0.109,0.775,0.035
25.66,-0.162,0.993,-0.079
25.67,-0.369,0.271,-0.178
25.68,-0.142,1.592,0.171
25.69,-0.174,1.039,0.083
25.7,-0.115,0.655,-0.059
25.71,-0.497,0.824,-0.147
25.72,-0.077,1.144,0.231
25.73,-0.352,1.325,0.122
25.74,-0.052,0.473,-0.078
25.75,-0.545,0.881,-0.166
25.76,-0.012,1.212,0.168
25.77,-0.273,1.096,0.038
25.78,-0.042,0.857,-0.108
25.79,-0.528,0.393,-0.158
25.8,-0.109,1.459,0.178
25.81,-0.195,0.733,0.016
25.82,-0.277,1.029,-0.1
25.83,-0.45,0.345,-0.154
25.84,-0.148,1.29,0.176
25.85,-0.228,0.997,-0.009
25.86,-0.269,0.558,-0.101
25.87,-0.344,0.908,-0.091
25.88,-0.056,0.899,0.157
25.89,-0.311,1.325,0.035
25.9,-0.164,0.297,-0.123
25.91,-0.411,1.195,-0.042
25.92,-0.069,0.968,0.128
25.93,-0.187,0.995,0.023
25.94,-0.304,0.711,-0.256
25.95,-0.226,0.81,-0.059
25.96,-0.183,1.216,0.134
25.97,-0.085,0.73,-0.026
25.98,-0.469,0.982,-0.196
25.99,-0.091,1.226,0.004
26.0,-0.166,1.212,0.182
26.01,-0.041,0.649,0.041
26.02,-0.492,0.948,-0.24
26.03,-0.167,1.501,0.004
26.04,-0.117,0.847,0.168
26.05,-0.108,1.06,0.026
26.06,-0.398,0.451,-0.251
26.07,-0.229,1.962,0.047
26.08,-0.101,0.683,0.12
26.09,-0.115,1.008,0.02
26.1,-0.399,0.433,-0.212
26.11,-0.283,1.81,0.129
26.12,-0.111,0.913,0.143
26.13,-0.047,0.58,0.03
26.14,-0.509,0.96,-0.195
26.15,-0.077,1.441,0.145
26.16,-0.221,1.177,0.171
26.17,0.05,0.423,0.056
26.18,-0.461,0.986,-0.234
26.19,-0.033,1.698,0.043
26.2,-0.145,0.898,0.181
26.21,-0.021,0.79,-0.064
26.22,-0.446,0.393,-0.17
26.23,-0.114,2.0,0.105
26.24,-0.041,0.649,0.142
26.25,-0.084,0.934,-0.006
26.26,-0.381,0.392,-0.223
26.27,-0.062,1.883,0.101
26.28,-0.062,0.981,0.056
26.29,0.005,0.481,-0.041
26.3,-0.485,0.874,-0.215
26.31,-0.063,1.417,0.128
26.32,-0.123,1.272,0.044
26.33,0.11,0.469,-0.072
26.34,-0.525,0.865,-0.218
26.35,0.045,1.577,0.131
26.36,-0.158,1.012,0.058
26.37,-0.022,0.89,-0.095
26.38,-0.391,0.392,-0.211
26.39,-0.217,1.782,0.256
26.4,-0.059,0.823,0.056
26.41,-0.127,0.979,-0.063
26.42,-0.409,0.338,-0.178
26.43,-0.154,1.52,0.167
26.44,-0.146,0.94,0.061
26.45,-0.099,0.776,-0.075
26.46,-0.467,0.803,-0.148
26.47,-0.083,1.146,0.182
26.48,-0.243,1.345,0.117
26.49,-0.104,0.415,-0.04
26.5,-0.389,0.981,-0.175
26.51,-0.128,1.109,0.164
26.52,-0.243,1.085,0.101
26.53,-0.111,0.866,-0.087
26.54,-0.48,0.409,-0.099
26.55,-0.177,1.427,0.204
26.56,-0.052,0.733,0.015
26.57,-0.354,0.981,-0.136
26.58,-0.37,0.407,-0.099
26.59,-0.193,1.291,0.168
26.6,-0.226,0.881,-0.01
26.61,-0.098,0.597,-0.11
26.62,-0.461,0.966,-0.094
26.63,0.022,0.937,0.144
26.64,-0.387,1.241,0.003
26.65,-0.082,0.379,-0.148
26.66,-0.458,1.064,-0.052
26.67,-0.066,0.956,0.114
26.68,-0.279,1.011,0.063
26.69,-0.316,0.678,-0.145
26.7,-0.308,0.688,-0.009
26.71,-0.193,1.264,0.098
26.72,-0.16,0.669,-0.006
26.73,-0.329,0.926,-0.123
26.74,-0.216,0.998,-0.055
26.75,-0.08,1.216,0.164
26.76,-0.191,0.883,-0.015
26.77,-0.504,0.946,-0.228
26.78,-0.145,1.43,0.013
26.79,-0.157,0.831,0.1
26.8,-0.089,1.026,0.0
26.81,-0.399,0.455,-0.245
26.82,-0.244,1.917,0.07
26.83,-0.057,0.67,0.137
26.84,-0.17,1.015,0.044
26.85,-0.435,0.452,-0.203
26.86,-0.199,1.81,0.11
26.87,-0.466,0.831,-0.172
26.88,-0.072,1.647,0.079
26.89,-0.123,0.896,0.204
26.9,-0.091,0.789,-0.007
26.91,-0.413,0.404,-0.173
26.92,-0.154,1.965,0.079
26.93,-0.03,0.671,0.139
26.94,-0.156,0.974,-0.009
26.95,-0.415,0.315,-0.201
26.96,-0.121,1.891,0.164
26.97,-0.105,0.954,0.09
26.98,-0.024,0.509,-0.018
26.99,-0.48,0.869,-0.236
27.0,-0.012,1.418,0.143
27.01,-0.192,1.226,0.07
27.02,0.057,0.452,-0.019
27.03,-0.521,0.931,-0.229
27.04,-0.025,1.393,0.152
27.05,-0.283,1.013,0.102
27.06,-0.093,0.871,-0.044
27.07,-0.421,0.385,-0.115
27.08,-0.199,1.704,0.223
27.09,-0.129,0.769,0.116
27.1,-0.151,1.073,-0.048
27.11,-0.451,0.245,-0.164
27.12,-0.111,1.481,0.237
27.13,-0.2,1.029,0.043
27.14,-0.073,0.691,-0.11
27.15,-0.48,0.851,-0.16
27.16,-0.02,1.057,0.195
27.17,-0.333,1.311,0.107
27.18,-0.083,0.381,-0.101
27.19,-0.455,0.941,-0.14
27.2,-0.062,1.074,0.16
27.21,-0.211,1.033,-0.021
27.22,-0.139,0.817,-0.147
27.23,-0.474,0.405,-0.087
27.24,-0.139,1.405,0.189
27.25,-0.195,0.692,0.005
27.26,-0.35,1.001,-0.099
27.27,-0.425,0.375,-0.078
27.28,-0.154,1.308,0.197
27.29,-0.179,0.971,-0.007
27.3,-0.253,0.547,-0.15
27.31,-0.385,1.091,-0.049
27.32,-0.008,0.966,0.164
27.33,-0.326,1.218,0.09
27.34,-0.201,0.374,-0.156
27.35,-0.441,1.207,-0.022
27.36,-0.108,0.917,0.12
27.37,-0.21,1.07,0.047
27.38,-0.367,0.607,-0.177
27.39,-0.186,1.037,-0.026
27.4,-0.164,1.291,0.161
27.41,-0.089,0.653,0.034
27.42,-0.437,0.972,-0.16
27.43,-0.1,1.163,-0.033
27.44,-0.197,1.155,0.182
27.45,-0.14,0.849,0.047
27.46,-0.419,0.696,-0.19
27.47,-0.203,1.68,-0.003
27.48,-0.077,0.751,0.09
27.49,-0.155,1.188,0.028
27.5,-0.268,0.354,-0.241
27.51,-0.265,2.0,0.092
27.52,-0.102,0.608,0.118
27.53,-0.114,1.019,0.038
27.54,-0.435,0.446,-0.206
27.55,-0.144,1.861,0.102
27.56,-0.166,0.894,0.137
27.57,-0.004,0.559,-0.005
27.58,-0.534,0.885,-0.165
27.59,-0.013,1.513,0.142
27.6,-0.246,1.104,0.123
27.61,0.058,0.429,-0.004
27.62,-0.455,1.041,-0.207
27.63,-0.056,1.576,0.095
27.64,-0.139,0.919,0.131
27.65,-0.045,0.771,-0.034
27.66,-0.327,0.437,-0.173
27.67,-0.209,1.983,0.088
27.68,-0.024,0.622,0.135
27.69,-0.081,0.98,-0.043
27.7,-0.429,0.329,-0.225
27.71,-0.121,1.831,0.156
27.72,-0.069,0.991,0.054
27.73,-0.111,0.441,-0.026
27.74,-0.434,0.892,-0.228
27.75,-0.043,1.384,0.119
27.76,-0.198,1.236,0.104
27.77,0.05,0.467,-0.068
27.78,-0.509,0.934,-0.198
27.79,0.055,1.425,0.087
27.8,-0.175,0.989,0.057
27.81,-0.083,0.818,-0.084
27.82,-0.428,0.418,-0.163
27.83,-0.212,1.592,0.21
27.84,-0.156,0.785,0.087
27.85,-0.19,1.024,-0.05
27.86,-0.411,0.256,-0.187
27.87,-0.147,1.445,0.192
27.88,-0.193,0.972,0.034
27.89,-0.089,0.647,-0.164
27.9,-0.407,0.836,-0.192
27.91,-0.011,1.036,0.187
27.92,-0.234,1.306,0.029
27.93,0.0,0.411,-0.139
27.94,-0.554,0.948,-0.149
27.95,0.036,1.109,0.146
27.96,-0.251,1.025,0.015
27.97,-0.204,0.783,-0.173
27.98,-0.472,0.449,-0.098
27.99,-0.163,1.424,0.181
28.0,-0.157,0.712,0.055
28.01,-0.355,0.967,-0.086
28.02,-0.42,0.399,-0.074
28.03,-0.154,1.286,0.157
28.04,-0.22,0.952,0.02
28.05,-0.252,0.583,-0.067
28.06,-0.42,1.06,-0.087
28.07,-0.01,0.929,0.16
28.08,-0.219,1.231,0.059
28.09,-0.255,0.372,-0.163
28.1,-0.368,1.151,-0.039
28.11,-0.126,0.863,0.146
28.12,-0.197,1.059,0.05
28.13,-0.335,0.625,-0.193
28.14,-0.16,1.105,-0.063
28.15,-0.084,1.239,0.151
28.16,-0.057,0.562,-0.013
28.17,-0.434,1.065,-0.166
28.18,-0.2,1.107,-0.024
28.19,-0.218,1.178,0.19
28.2,-0.137,0.792,0.037
28.21,-0.409,0.733,-0.217
28.22,-0.158,1.635,-0.01
28.23,-0.089,0.78,0.111
28.24,-0.218,1.148,0.04
28.25,-0.267,0.371,-0.19
28.26,-0.27,1.851,-0.013
28.27,-0.025,0.751,0.13
28.28,-0.122,0.974,0.073
28.29,-0.415,0.773,-0.233
28.3,-0.184,1.448,-0.001
28.31,-0.15,0.851,0.062
28.32,-0.008,0.617,0.052
28.33,-0.532,0.917,-0.198
28.34,-0.075,1.434,0.087
28.35,-0.27,1.086,0.106
28.36,0.08,0.541,0.07
28.37,-0.532,0.948,-0.191
28.38,-0.077,1.571,0.085
28.39,-0.13,0.936,0.141
28.4,0.037,0.806,-0.013
28.41,-0.467,0.423,-0.186
28.42,-0.108,2.0,0.128
28.43,-0.079,0.578,0.112
28.44,-0.09,0.941,0.001
28.45,-0.399,0.455,-0.23
28.46,-0.107,1.83,0.045
28.47,-0.063,0.898,0.063
28.48,0.07,0.516,-0.068
28.49,-0.431,0.915,-0.276
28.5,0.009,1.444,0.112
28.51,-0.184,1.22,0.116
28.52,0.066,0.463,-0.028
28.53,-0.486,0.97,-0.241
28.54,0.021,1.566,0.169
28.55,-0.187,1.04,0.121
28.56,-0.045,0.688,-0.051
28.57,-0.448,0.468,-0.176
28.58,-0.127,1.753,0.165
28.59,-0.023,0.677,0.084
28.6,-0.106,1.015,-0.07
28.61,-0.455,0.288,-0.182
28.62,-0.161,1.709,0.204
28.63,-0.18,0.946,0.148
28.64,-0.087,0.686,-0.054
28.65,-0.514,0.806,-0.189
28.66,-0.007,1.205,0.174
28.67,-0.252,1.393,0.022
28.68,0.011,0.469,-0.045
28.69,-0.509,0.863,-0.203
28.7,-0.005,1.27,0.149
28.71,-0.218,1.054,0.039
28.72,-0.123,0.927,-0.088
28.73,-0.475,0.354,-0.135
28.74,-0.185,1.63,0.208
28.75,-0.124,0.902,0.099
28.76,-0.174,1.037,-0.091
28.77,-0.423,0.343,-0.12
28.78,-0.189,1.359,0.179
28.79,-0.16,0.919,0.016
28.8,-0.113,0.678,-0.125
28.81,-0.433,0.814,-0.114
28.82,-0.107,0.979,0.213
28.83,-0.237,1.298,-0.001
28.84,-0.118,0.316,-0.135
28.85,-0.506,0.957,-0.093
28.86,-0.089,0.966,0.153
28.87,-0.17,1.152,0.023
28.88,-0.214,0.673,-0.123
28.89,-0.359,0.596,-0.052
28.9,-0.163,1.271,0.167
28.91,-0.218,0.696,0.04
28.92,-0.333,0.934,-0.139
28.93,-0.355,0.491,-0.032
28.94,-0.187,1.198,0.125
28.95,-0.206,0.937,-0.027
28.96,-0.277,0.55,-0.185
28.97,-0.287,1.131,-0.056
28.98,0.026,0.861,0.126
28.99,-0.347,1.274,0.027
29.0,-0.173,0.335,-0.14
29.01,-0.325,1.584,-0.009
29.02,-0.027,0.86,0.146
29.03,-0.229,1.065,0.02
29.04,-0.393,0.645,-0.25
29.05,-0.19,1.215,0.095
29.06,-0.208,1.159,0.103
29.07,-0.018,0.672,0.023
29.08,-0.457,0.939,-0.214
29.09,-0.086,1.296,0.066
29.1,-0.228,1.159,0.179
29.11,0.073,0.458,0.047
29.12,-0.639,0.905,-0.189
29.13,-0.045,1.689,0.127
29.14,-0.238,0.875,0.134
29.15,-0.068,0.819,0.03
29.16,-0.409,0.448,-0.161
29.17,-0.141,2.0,0.123
29.18,-0.125,0.63,0.138
29.19,-0.084,0.957,0.006
29.2,-0.452,0.292,-0.165
29.21,-0.066,1.986,0.124
29.22,-0.171,0.861,0.117
29.23,0.023,0.535,-0.043
29.24,-0.494,0.802,-0.224
29.25,0.026,1.491,0.194
29.26,-0.213,1.292,0.076
29.27,0.022,0.381,-0.004
29.28,-0.402,0.919,-0.217
29.29,-0.017,1.526,0.119
29.3,-0.13,1.082,0.083
29.31,-0.087,0.862,-0.129
29.32,-0.365,0.374,-0.19
29.33,-0.133,1.771,0.155
29.34,-0.165,0.805,0.076
29.35,-0.177,1.081,-0.038
29.36,-0.414,0.31,-0.134
29.37,-0.184,1.473,0.2
29.38,-0.25,0.991,0.121
29.39,-0.089,0.775,-0.073
29.4,-0.451,0.882,-0.097
29.41,-0.031,0.976,0.223
29.42,-0.357,1.352,0.069
29.43,-0.067,0.392,-0.097
29.44,-0.432,1.011,-0.137
29.45,-0.016,0.97,0.156
29.46,-0.26,1.124,0.07
29.47,-0.218,0.788,-0.13
29.48,-0.253,0.545,-0.118
29.49,-0.175,1.27,0.151
29.5,-0.146,0.708,-0.036
29.51,-0.341,0.89,-0.103
29.52,-0.298,0.679,-0.04
29.53,-0.138,1.258,0.159
29.54,-0.199,0.952,-0.023
29.55,-0.348,0.598,-0.126
29.56,-0.23,1.396,-0.077
29.57,-0.064,0.814,0.129
29.58,-0.243,1.269,-0.019
29.59,-0.287,0.32,-0.222
29.6,-0.263,1.674,0.053
29.61,-0.112,0.794,0.118
29.62,-0.197,0.974,0.01
29.63,-0.386,0.661,-0.237
29.64,-0.121,1.466,0.039
29.65,-0.25,1.091,0.145
29.66,0.021,0.505,0.039
29.67,-0.498,0.942,-0.201
29.68,-0.132,1.494,0.114
29.69,-0.203,1.042,0.141
29.7,-0.02,0.655,-0.001
29.71,-0.528,0.694,-0.14
29.72,-0.143,1.964,0.129
29.73,-0.115,0.658,0.133
29.74,-0.058,0.951,0.021
29.75,-0.413,0.281,-0.173
29.76,-0.165,2.0,0.145
29.77,-0.05,0.727,0.013
29.78,-0.095,0.757,-0.063
29.79,-0.338,0.515,-0.222
29.8,-0.09,1.613,0.167
29.81,-0.231,1.219,0.154
29.82,0.069,0.435,-0.052
29.83,-0.569,0.927,-0.145
29.84,0.083,1.394,0.199
29.85,-0.317,1.313,0.047
29.86,0.025,0.666,-0.062
29.87,-0.458,0.624,-0.129
29.88,-0.086,1.577,0.183
29.89,-0.187,0.89,0.095
29.9,-0.085,1.089,-0.102
29.91,-0.406,0.389,-0.07
29.92,-0.202,1.391,0.173
29.93,-0.205,0.753,0.006
29.94,-0.278,0.959,-0.098
29.95,-0.361,0.449,-0.079
29.96,-0.118,1.206,0.16
29.97,-0.162,1.051,-0.02
29.98,-0.294,0.484,-0.141
29.99,-0.279,1.214,-0.035
30.0,-0.02,0.861,0.139
30.01,-0.241,1.29,-0.001
30.02,-0.211,0.316,-0.204
30.03,-0.239,1.531,-0.066
30.04,-0.051,0.892,0.102
30.05,-0.125,0.993,-0.026
30.06,-0.396,0.688,-0.226
30.07,-0.124,1.231,0.002
30.08,-0.176,1.18,0.126
30.09,-0.022,0.613,-0.009
30.1,-0.508,1.065,-0.171
30.11,-0.127,1.382,0.063
30.12,-0.242,0.995,0.143
30.13,0.009,0.833,0.001
30.14,-0.52,0.617,-0.207
30.15,-0.107,1.961,0.045
30.16,-0.153,0.658,0.078
30.17,-0.018,1.049,0.004
30.18,-0.475,0.285,-0.193
30.19,-0.123,1.999,0.128
30.2,-0.098,0.727,0.093
30.21,0.001,0.729,0.026
30.22,-0.405,0.752,-0.262
30.23,-0.058,1.647,0.109
30.24,-0.188,1.05,0.095
30.25,0.074,0.372,-0.02
30.26,-0.42,1.052,-0.236
30.27,-0.091,1.442,0.131
30.28,-0.151,1.149,0.098
30.29,-0.013,0.567,-0.039
30.3,-0.461,0.604,-0.169
30.31,-0.108,1.707,0.156
30.32,-0.087,0.742,0.09
30.33,-0.163,1.059,-0.053
30.34,-0.381,0.244,-0.177
30.35,-0.166,1.81,0.209
30.36,-0.102,0.94,0.108
30.37,-0.172,0.777,-0.049
30.38,-0.399,0.55,-0.179
30.39,-0.041,1.343,0.186
30.4,-0.257,1.31,0.005
30.41,0.102,0.516,-0.082
30.42,-0.48,0.913,-0.152
30.43,0.01,1.13,0.226
30.44,-0.241,1.242,0.071
30.45,-0.111,0.627,-0.112
30.46,-0.422,0.606,-0.139
30.47,-0.125,1.331,0.181
30.48,-0.187,0.854,0.011
30.49,-0.21,1.032,-0.11
30.5,-0.376,0.278,-0.093
30.51,-0.134,1.365,0.203
30.52,-0.215,0.824,-0.055
30.53,-0.225,0.884,-0.114
30.54,-0.465,0.756,-0.094
30.55,-0.023,1.016,0.144
30.56,-0.259,1.208,0.042
30.57,-0.193,0.423,-0.181
30.58,-0.49,1.141,-0.021
30.59,-0.058,0.833,0.128
30.6,-0.352,1.22,0.084
30.61,-0.236,0.419,-0.134
30.62,-0.279,1.267,-0.035
30.63,-0.089,1.128,0.167
30.64,-0.087,0.717,0.028
30.65,-0.474,0.956,-0.197
30.66,-0.107,0.931,-0.042
30.67,-0.276,1.18,0.159
30.68,-0.074,0.831,0.057
30.69,-0.415,0.797,-0.234
30.7,-0.101,1.442,-0.019
30.71,-0.213,1.094,0.105
30.72,-0.032,0.742,0.032
30.73,-0.462,0.601,-0.144
30.74,-0.223,1.983,0.097
30.75,-0.18,0.629,0.181
30.76,-0.083,1.062,0.036
30.77,-0.478,0.329,-0.17
30.78,-0.155,1.986,0.119
30.79,-0.191,0.755,0.158
30.8,-0.086,0.723,0.044
30.81,-0.475,0.757,-0.188
30.82,-0.095,1.603,0.159
30.83,-0.194,1.142,0.182
30.84,-0.034,0.329,0.029
30.85,-0.515,1.07,-0.164
30.86,-0.056,1.532,0.087
30.87,-0.133,1.076,0.159
30.88,-0.039,0.577,-0.058
30.89,-0.435,0.606,-0.16
30.9,-0.136,1.815,0.136
30.91,-0.049,0.694,0.115
30.92,-0.118,1.021,-0.049
30.93,-0.42,0.202,-0.178
30.94,-0.105,1.918,0.138
30.95,-0.077,0.932,0.09
30.96,-0.127,0.653,-0.072
30.97,-0.423,0.645,-0.248
30.98,-0.023,1.364,0.127
30.99,-0.23,1.26,0.048
31.0,0.096,0.442,-0.072
31.01,-0.548,0.945,-0.171
31.02,0.052,1.216,0.165
31.03,-0.287,1.157,0.07
31.04,-0.059,0.701,-0.062
31.05,-0.536,0.58,-0.124
31.06,-0.113,1.483,0.18
31.07,-0.148,0.869,0.095
31.08,-0.106,1.049,-0.08
31.09,-0.459,0.269,-0.143
31.1,-0.183,1.44,0.219
31.11,-0.147,0.83,0.016
31.12,-0.19,0.836,-0.103
31.13,-0.388,0.678,-0.147
31.14,-0.116,1.034,0.239
31.15,-0.186,1.271,0.023
31.16,-0.092,0.333,-0.134
31.17,-0.402,1.064,-0.123
31.18,-0.026,0.924,0.141
31.19,-0.327,1.206,0.007
31.2,-0.142,0.587,-0.117
31.21,-0.461,0.807,-0.064
31.22,-0.063,1.203,0.142
31.23,-0.171,0.781,0.031
31.24,-0.383,0.924,-0.227
31.25,-0.26,0.591,-0.063
31.26,-0.185,1.271,0.137
31.27,-0.178,0.839,0.079
31.28,-0.434,0.68,-0.132
31.29,-0.206,1.303,-0.046
31.3,-0.104,0.962,0.117
31.31,-0.185,1.138,0.023
31.32,-0.236,0.389,-0.217
31.33,-0.252,1.856,0.014
31.34,0.014,0.793,0.144
31.35,-0.197,1.007,0.051
31.36,-0.307,0.583,-0.245
31.37,-0.293,1.539,0.041
31.38,-0.112,0.944,0.094
31.39,-0.022,0.687,0.024
31.4,-0.453,1.003,-0.259
31.41,-0.134,1.277,0.051
31.42,-0.232,1.159,0.124
31.43,0.081,0.538,0.021
31.44,-0.553,0.887,-0.194
31.45,-0.123,1.741,0.09
31.46,-0.141,0.809,0.126
31.47,-0.055,0.883,0.016
31.48,-0.509,0.336,-0.174
31.49,-0.094,2.0,0.114
31.5,-0.129,0.628,0.099
31.51,-0.076,0.909,0.011
31.52,-0.46,0.276,-0.208
31.53,-0.095,1.962,0.105
31.54,-0.116,0.833,0.096
31.55,-0.027,0.692,-0.036
31.56,-0.537,0.658,-0.238
31.57,0.014,1.512,0.165
31.58,-0.236,1.304,0.111
31.59,0.097,0.445,-0.03
31.6,-0.582,0.978,-0.159
31.61,0.043,1.341,0.157
31.62,-0.26,1.233,0.051
31.63,0.003,0.75,-0.063
31.64,-0.375,0.473,-0.174
31.65,-0.134,1.61,0.166
31.66,-0.131,0.827,0.041
31.67,-0.188,1.078,-0.079
31.68,-0.372,0.204,-0.129
31.69,-0.181,1.465,0.215
31.7,-0.147,0.979,-0.004
31.71,-0.186,0.779,-0.108
31.72,-0.349,0.653,-0.152
31.73,-0.054,1.047,0.24
31.74,-0.236,1.314,-0.003
31.75,-0.115,0.37,-0.112
31.76,-0.49,1.013,-0.066
31.77,-0.047,0.958,0.159
31.78,-0.284,1.136,0.03
31.79,-0.253,0.586,-0.166
31.8,-0.408,0.732,-0.04
31.81,-0.104,1.2,0.131
31.82,-0.172,0.771,0.029
31.83,-0.362,0.89,-0.179
31.84,-0.171,0.723,-0.072
31.85,-0.19,1.296,0.151
31.86,-0.153,0.779,0.049
31.87,-0.352,0.754,-0.18
31.88,-0.187,1.32,-0.055
31.89,-0.141,0.881,0.138
31.9,-0.196,1.187,0.029
31.91,-0.307,0.352,-0.202
31.92,-0.23,1.741,0.035
31.93,-0.042,0.69,0.108
31.94,-0.207,1.136,0.035
31.95,-0.325,0.555,-0.219
31.96,-0.24,1.53,0.052
31.97,-0.112,1.027,0.133
31.98,-0.05,0.58,0.03
31.99,-0.458,1.024,-0.193
32.0,-0.168,1.318,0.071
32.01,-0.239,1.079,0.168
32.02,0.015,0.603,0.014
32.03,-0.568,0.76,-0.135
32.04,-0.129,1.831,0.106
32.05,-0.201,0.759,0.134
32.06,0.001,0.894,0.016
32.07,-0.462,0.43,-0.161
32.08,-0.158,2.0,0.137
32.09,-0.109,0.654,0.174
32.1,-0.081,0.902,0.038
32.11,-0.426,0.461,-0.198
32.12,-0.103,1.844,0.155
32.13,-0.094,1.049,0.078
32.14,-0.022,0.483,-0.075
32.15,-0.46,0.933,-0.186
32.16,0.016,1.495,0.184
32.17,-0.213,1.339,0.125
32.18,-0.001,0.458,-0.035
32.19,-0.448,0.782,-0.18
32.2,0.007,1.554,0.133
32.21,-0.14,1.0,0.028
32.22,-0.061,1.026,-0.12
32.23,-0.393,0.271,-0.186
32.24,-0.133,1.721,0.172
32.25,-0.114,0.834,0.101
32.26,-0.192,1.08,-0.101
32.27,-0.372,0.36,-0.108
32.28,-0.214,1.284,0.2
32.29,-0.178,1.201,0.019
32.3,-0.033,0.543,-0.102
32.31,-0.479,1.032,-0.138
32.32,-0.017,0.984,0.169
32.33,-0.326,1.263,0.007
32.34,-0.183,0.229,-0.125
32.35,-0.335,1.364,-0.009
32.36,-0.044,0.878,0.145
32.37,-0.366,1.092,0.024
32.38,-0.241,0.541,-0.16
32.39,-0.218,1.247,-0.063
32.4,-0.148,1.151,0.135
32.41,-0.118,0.724,0.008
32.42,-0.43,0.981,-0.204
32.43,-0.102,1.186,0.051
32.44,-0.238,1.151,0.128
32.45,-0.092,0.71,0.046
32.46,-0.547,0.803,-0.191
32.47,-0.104,1.778,0.046
32.48,-0.153,0.763,0.16
32.49,-0.056,0.959,0.016
32.5,-0.519,0.336,-0.163
32.51,-0.16,2.0,0.107
32.52,-0.097,0.669,0.127
32.53,-0.134,0.854,0.022
32.54,-0.404,0.541,-0.239
32.55,-0.101,1.807,0.173
32.56,-0.139,1.061,0.081
32.57,0.04,0.393,-0.013
32.58,-0.444,0.925,-0.17
32.59,-0.099,1.437,0.175
32.6,-0.166,1.245,0.121
32.61,-0.062,0.457,-0.026
32.62,-0.42,0.719,-0.167
32.63,-0.142,1.588,0.136
32.64,-0.073,0.888,0.074
32.65,-0.172,1.042,-0.07
32.66,-0.348,0.215,-0.108
32.67,-0.219,1.681,0.212
32.68,-0.182,0.813,0.08
32.69,-0.104,1.079,-0.117
32.7,-0.396,0.446,-0.15
32.71,-0.081,1.197,0.22
32.72,-0.294,1.236,-0.048
32.73,-0.028,0.508,-0.116
32.74,-0.468,0.985,-0.111
32.75,-0.022,0.928,0.192
32.76,-0.346,1.236,0.001
32.77,-0.185,0.458,-0.105
32.78,-0.412,0.89,-0.02
32.79,-0.093,1.041,0.15
32.8,-0.242,0.855,-0.046
32.81,-0.274,0.847,-0.156
32.82,-0.194,0.788,-0.073
32.83,-0.134,1.295,0.149
32.84,-0.066,0.683,-0.107
32.85,-0.435,0.919,-0.175
32.86,-0.201,1.165,-0.013
32.87,-0.164,0.985,0.119
32.88,-0.25,1.056,0.018
32.89,-0.36,0.429,-0.21
32.9,-0.211,1.879,0.057
32.91,-0.007,0.725,0.088
32.92,-0.165,1.099,0.022
32.93,-0.385,0.439,-0.242
32.94,-0.214,1.924,0.043
32.95,-0.116,0.813,0.107
32.96,0.0,0.677,-0.011
32.97,-0.599,0.895,-0.185
32.98,-0.007,1.533,0.129
32.99,-0.239,1.136,0.142
33.0,0.022,0.414,0.076
33.01,-0.537,0.979,-0.172
33.02,-0.033,1.677,0.129
33.03,-0.098,0.922,0.076
33.04,-0.008,0.71,-0.052
33.05,-0.421,0.367,-0.174
33.06,-0.081,1.917,0.113
33.07,-0.037,0.714,0.079
33.08,-0.136,0.973,-0.092
33.09,-0.345,0.303,-0.156
33.1,-0.14,1.783,0.133
33.11,-0.188,1.026,0.068
33.12,-0.157,1.005,-0.065
33.13,-0.438,0.484,-0.142
33.14,-0.093,1.141,0.221
33.15,-0.244,1.249,0.006
33.16,-0.11,0.412,-0.106
33.17,-0.484,1.016,-0.061
33.18,-0.081,0.889,0.219
33.19,-0.351,1.294,0.095
33.2,-0.178,0.477,-0.134
33.21,-0.407,0.855,-0.031
33.22,-0.064,1.13,0.133
33.23,-0.206,0.805,0.015
33.24,-0.275,0.862,-0.149
33.25,-0.251,0.791,-0.046
33.26,-0.188,1.307,0.152
33.27,-0.192,0.699,0.024
33.28,-0.418,0.895,-0.165
33.29,-0.198,1.121,-0.055
33.3,-0.111,0.943,0.073
33.31,-0.218,1.162,-0.034
33.32,-0.262,0.398,-0.22
33.33,-0.212,1.791,0.044
33.34,-0.014,0.714,0.094
33.35,-0.261,1.113,-0.017
33.36,-0.334,0.434,-0.218
33.37,-0.26,1.813,0.041
33.38,-0.095,0.881,0.106
33.39,-0.051,0.615,0.026
33.4,-0.64,0.943,-0.145
33.41,-0.106,1.554,0.169
33.42,-0.313,1.048,0.168
33.43,0.041,0.489,0.034
33.44,-0.526,1.008,-0.185
33.45,-0.036,1.644,0.123
33.46,-0.092,0.905,0.048
33.47,0.037,0.751,-0.073
33.48,-0.47,0.31,-0.184
33.49,-0.107,1.883,0.186
33.5,-0.074,0.738,0.13
33.51,-0.069,1.003,-0.072
33.52,-0.392,0.309,-0.168
33.53,-0.039,1.725,0.161
33.54,-0.137,1.075,0.085
33.55,0.019,0.615,-0.088
33.56,-0.505,0.777,-0.196
33.57,0.054,1.151,0.198
33.58,-0.282,1.363,0.022
33.59,-0.012,0.429,-0.09
33.6,-0.527,0.866,-0.133
33.61,-0.054,1.12,0.196
33.62,-0.355,1.019,0.069
33.63,-0.232,0.836,-0.107
33.64,-0.489,0.396,0.007
33.65,-0.197,1.365,0.209
33.66,-0.144,0.733,0.007
33.67,-0.337,1.018,-0.12
33.68,-0.351,0.552,-0.041
33.69,-0.125,1.243,0.174
33.7,-0.257,0.956,0.051
33.71,-0.294,0.583,-0.185
33.72,-0.335,1.134,-0.044
33.73,-0.033,0.833,0.115
33.74,-0.306,1.317,0.034
33.75,-0.281,0.337,-0.168
33.76,-0.171,1.603,-0.031
33.77,-0.056,0.864,0.114
33.78,-0.139,0.982,0.02
33.79,-0.363,0.75,-0.204
33.8,-0.137,1.325,0.012
33.81,-0.125,1.174,0.138
33.82,0.018,0.548,0.048
33.83,-0.571,1.014,-0.232
33.84,-0.125,1.403,0.073
33.85,-0.259,0.984,0.125
33.86,-0.049,0.712,0.019
33.87,-0.497,0.718,-0.159
33.88,-0.138,1.951,0.129
33.89,-0.115,0.611,0.188
33.9,-0.146,0.999,0.021
33.91,-0.37,0.301,-0.169
33.92,-0.137,2.0,0.092
33.93,0.005,0.706,0.127
33.94,-0.188,0.872,-0.068
33.95,-0.405,0.411,-0.135
33.96,-0.177,1.807,0.183
33.97,-0.117,1.053,0.103
33.98,-0.017,0.476,-0.048
33.99,-0.412,0.901,-0.194
34.0,-0.097,1.216,0.217
34.01,-0.302,1.342,0.141
34.02,0.0,0.562,-0.048
34.03,-0.462,0.784,-0.191
34.04,-0.021,1.401,0.168
34.05,-0.217,1.081,0.058
34.06,-0.146,1.004,-0.101
34.07,-0.406,0.291,-0.093
34.08,-0.218,1.531,0.206
34.09,-0.148,0.831,0.023
34.1,-0.196,0.958,-0.11
34.11,-0.394,0.416,-0.166
34.12,-0.089,1.243,0.143
34.13,-0.278,0.958,-0.047
34.14,-0.145,0.584,-0.149
34.15,-0.439,0.937,-0.058
34.16,-0.059,0.856,0.145
34.17,-0.329,1.3,0.049
34.18,-0.229,0.326,-0.144
34.19,-0.339,1.077,-0.061
34.2,-0.057,0.981,0.119
34.21,-0.192,0.97,-0.037
34.22,-0.383,0.765,-0.105
34.23,-0.152,1.043,-0.051
34.24,-0.221,1.32,0.182
34.25,-0.087,0.608,0.038
34.26,-0.511,1.01,-0.193
34.27,-0.153,1.241,0.03
34.28,-0.199,1.042,0.109
34.29,-0.07,0.923,-0.015
34.3,-0.379,0.619,-0.242
34.31,-0.209,1.894,0.059
34.32,-0.076,0.712,0.097
34.33,-0.094,1.12,0.066
34.34,-0.362,0.307,-0.183
34.35,-0.263,1.965,0.117
34.36,-0.204,0.722,0.155
34.37,-0.086,0.814,0.051
34.38,-0.503,0.746,-0.212
34.39,-0.083,1.604,0.119
34.4,-0.213,1.09,0.138
34.41,0.102,0.383,-0.01
34.42,-0.478,1.049,-0.179
34.43,-0.009,1.481,0.101
34.44,-0.112,1.069,0.131
34.45,-0.043,0.595,-0.046
34.46,-0.432,0.573,-0.198
34.47,-0.043,1.961,0.17
34.48,-0.065,0.708,0.093
34.49,-0.147,0.872,-0.047
34.5,-0.347,0.283,-0.218
34.51,-0.128,1.87,0.121
34.52,-0.024,0.882,0.071
34.53,-0.186,0.657,-0.041
34.54,-0.402,0.589,-0.188
34.55,-0.097,1.398,0.203
34.56,-0.271,1.262,0.121
34.57,0.039,0.58,-0.062
34.58,-0.514,0.9,-0.178
34.59,0.037,1.213,0.194
34.6,-0.216,1.304,0.042
34.61,-0.065,0.66,-0.119
34.62,-0.422,0.577,-0.154
34.63,-0.189,1.447,0.163
34.64,-0.149,0.874,-0.045
34.65,-0.162,1.066,-0.118
34.66,-0.339,0.199,-0.133
34.67,-0.216,1.365,0.182
34.68,-0.152,0.849,0.002
34.69,-0.309,0.827,-0.135
34.7,-0.448,0.661,-0.078
34.71,-0.044,1.018,0.198
34.72,-0.21,1.112,-0.009
34.73,-0.272,0.46,-0.174
34.74,-0.238,1.451,-0.041
34.75,-0.041,0.793,0.173
34.76,-0.198,1.256,0.03
34.77,-0.298,0.328,-0.177
34.78,-0.224,1.649,-0.015
34.79,-0.122,0.934,0.15
34.8,-0.146,0.886,0.061
34.81,-0.363,0.887,-0.288
34.82,-0.198,1.28,0.025
34.83,-0.21,1.174,0.126
34.84,-0.048,0.574,0.037
34.85,-0.532,1.002,-0.154
34.86,-0.167,1.46,0.096
34.87,-0.227,0.989,0.182
34.88,-0.043,0.772,0.035
34.89,-0.51,0.594,-0.158
34.9,-0.166,1.978,0.151
34.91,-0.137,0.558,0.118
34.92,-0.128,1.057,0.045
34.93,-0.372,0.331,-0.179
34.94,-0.178,1.994,0.156
34.95,-0.134,0.744,0.154
34.96,-0.052,0.653,-0.027
34.97,-0.352,0.726,-0.26
34.98,-0.01,1.6,0.099
34.99,-0.135,1.127,0.071
35.0,0.068,0.343,-0.037
35.01,-0.512,0.978,-0.207
35.02,0.031,1.602,0.157
35.03,-0.167,1.109,0.094
35.04,-0.041,0.589,-0.063
35.05,-0.44,0.57,-0.143
35.06,-0.123,1.782,0.139
35.07,-0.095,0.796,0.075
35.08,-0.099,1.019,-0.06
35.09,-0.422,0.164,-0.145
35.1,-0.169,1.765,0.213
35.11,-0.11,0.936,0.088
35.12,-0.139,0.765,-0.063
35.13,-0.382,0.593,-0.18
35.14,-0.076,1.256,0.195
35.15,-0.259,1.256,0.036
35.16,0.011,0.468,-0.133
35.17,-0.521,0.935,-0.139
35.18,0.009,0.99,0.167
35.19,-0.297,1.225,0.033
35.2,-0.161,0.67,-0.107
35.21,-0.425,0.41,-0.169
35.22,-0.249,1.79,0.203
35.23,-0.044,0.71,0.1
35.24,-0.174,0.97,-0.072
35.25,-0.391,0.288,-0.183
35.26,-0.154,1.661,0.153
35.27,-0.203,1.007,0.106
35.28,-0.058,0.649,-0.034
35.29,-0.43,0.774,-0.159
35.3,0.015,1.209,0.169
35.31,-0.264,1.282,0.053
35.32,0.031,0.474,-0.112
35.33,-0.511,0.866,-0.181
35.34,0.022,1.21,0.158
35.35,-0.247,1.137,0.019
35.36,-0.104,0.824,-0.101
35.37,-0.383,0.337,-0.157
35.38,-0.132,1.474,0.156
35.39,-0.062,0.805,0.001
35.4,-0.292,0.974,-0.118
35.41,-0.367,0.287,-0.147
35.42,-0.158,1.326,0.172
35.43,-0.164,0.969,-0.069
35.44,-0.237,0.6,-0.112
35.45,-0.344,0.847,-0.066
35.46,-0.107,1.01,0.149
35.47,-0.249,1.23,0.008
35.48,-0.243,0.348,-0.126
35.49,-0.235,1.542,-0.096
35.5,0.013,0.768,0.141
35.51,-0.223,1.197,0.006
35.52,-0.301,0.466,-0.183
35.53,-0.266,1.437,-0.034
35.54,-0.106,1.001,0.117
35.55,-0.119,0.777,0.003
35.56,-0.39,0.961,-0.194
35.57,-0.175,1.237,0.022
35.58,-0.188,1.251,0.181
35.59,-0.077,0.578,0.047
35.6,-0.473,0.969,-0.187
35.61,-0.168,1.615,0.05
35.62,-0.202,0.919,0.156
35.63,-0.059,0.877,-0.008
35.64,-0.429,0.455,-0.195
35.65,-0.213,2.0,0.154
35.66,-0.089,0.633,0.126
35.67,-0.199,0.999,0.053
35.68,-0.392,0.435,-0.182
35.69,-0.202,1.939,0.105
35.7,-0.109,0.812,0.149
35.71,-0.004,0.632,0.007
35.72,-0.461,0.918,-0.226
35.73,0.019,1.511,0.109
35.74,-0.161,1.239,0.11
35.75,0.018,0.313,0.019
35.76,-0.49,0.974,-0.174
35.77,-0.062,1.591,0.096
35.78,-0.078,0.91,0.092
35.79,-0.078,0.778,-0.067
35.8,-0.422,0.38,-0.188
35.81,-0.191,1.911,0.177
35.82,-0.042,0.689,0.086
35.83,-0.12,0.94,-0.029
35.84,-0.43,0.308,-0.15
35.85,-0.144,1.688,0.158
35.86,-0.142,0.985,0.062
35.87,-0.025,0.613,-0.078
35.88,-0.507,0.786,-0.19
35.89,0.024,1.289,0.117
35.9,-0.293,1.268,0.088
35.91,-0.031,0.515,-0.033
35.92,-0.549,0.824,-0.204
35.93,0.015,1.311,0.164
35.94,-0.267,1.164,0.06
35.95,-0.103,0.809,-0.054
35.96,-0.479,0.363,-0.13
35.97,-0.203,1.563,0.206
35.98,-0.124,0.787,0.066
35.99,-0.185,1.016,-0.11
36.0,-0.439,0.288,-0.164
36.01,-0.15,1.375,0.206
36.02,-0.235,0.949,0.03
36.03,-0.171,0.659,-0.092
36.04,-0.464,0.787,-0.207
36.05,-0.087,0.984,0.241
36.06,-0.262,1.336,0.003
36.07,-0.176,0.317,-0.075
36.08,-0.563,0.956,-0.068
36.09,-0.015,0.955,0.139
36.1,-0.187,1.144,0.025
36.11,-0.266,0.635,-0.145
36.12,-0.4,0.639,-0.014
36.13,-0.13,1.319,0.113
36.14,-0.17,0.708,0.045
36.15,-0.369,0.92,-0.137
36.16,-0.344,0.611,-0.087
36.17,-0.137,1.193,0.092
36.18,-0.165,0.999,0.008
36.19,-0.314,0.51,-0.192
36.2,-0.245,1.262,-0.051
36.21,-0.047,0.852,0.141
36.22,-0.268,1.266,0.013
36.23,-0.214,0.338,-0.148
36.24,-0.294,1.609,-0.068
36.25,-0.112,0.629,0.101
36.26,-0.163,1.157,0.058
36.27,-0.44,0.402,-0.248
36.28,-0.204,1.657,0.07
36.29,-0.187,0.812,0.086
36.3,0.03,0.753,-0.009
36.31,-0.529,0.919,-0.194
36.32,-0.101,1.357,0.089
36.33,-0.267,1.158,0.168
36.34,0.018,0.485,0.108
36.35,-0.575,0.961,-0.137
36.36,-0.095,1.646,0.166
36.37,-0.234,0.863,0.124
36.38,-0.006,0.812,0.015
36.39,-0.469,0.446,-0.145
36.4,-0.109,2.0,0.181
36.41,-0.022,0.64,0.109
36.42,-0.117,0.925,0.003
36.43,-0.275,0.3,-0.22
36.44,-0.066,2.0,0.101
36.45,0.055,0.871,0.028
36.46,-0.07,0.544,-0.084
36.47,-0.427,0.817,-0.257
36.48,-0.018,1.592,0.135
36.49,-0.209,1.244,0.084
36.5,0.083,0.282,-0.035
36.51,-0.453,0.983,-0.222
36.52,-0.042,1.456,0.099
36.53,-0.185,1.017,0.084
36.54,-0.01,0.793,-0.066
36.55,-0.505,0.402,-0.127
36.56,-0.122,1.823,0.135
36.57,-0.158,0.77,0.105
36.58,-0.118,1.06,-0.106
36.59,-0.448,0.258,-0.178
36.6,-0.137,1.597,0.201
36.61,-0.187,1.0,0.035
36.62,-0.1,0.739,-0.079
36.63,-0.42,0.687,-0.141
36.64,-0.111,1.185,0.243
36.65,-0.262,1.306,0.072
36.66,-0.044,0.486,-0.096
36.67,-0.488,0.944,-0.182
36.68,-0.031,1.072,0.174
36.69,-0.278,1.268,0.054
36.7,-0.119,0.734,-0.112
36.71,-0.438,0.467,-0.126
36.72,-0.08,1.367,0.207
36.73,-0.178,0.757,0.013
36.74,-0.272,1.025,-0.127
36.75,-0.458,0.368,-0.073
36.76,-0.125,1.3,0.172
36.77,-0.162,0.934,0.016
36.78,-0.283,0.615,-0.133
36.79,-0.413,0.969,-0.058
36.8,-0.014,0.927,0.149
36.81,-0.3,1.274,0.029
36.82,-0.146,0.296,-0.144
36.83,-0.418,1.319,-0.087
36.84,-0.037,0.873,0.162
36.85,-0.259,1.144,0.034
36.86,-0.313,0.614,-0.163
36.87,-0.26,0.917,-0.073
36.88,-0.138,1.202,0.151
36.89,-0.089,0.71,0.003
36.9,-0.372,0.955,-0.203
36.91,-0.199,1.0,-0.106
36.92,-0.092,1.229,0.141
36.93,-0.095,0.834,0.053
36.94,-0.422,0.765,-0.171
36.95,-0.238,1.566,-0.049
36.96,-0.063,0.83,0.112
36.97,-0.209,1.179,0.02
36.98,-0.223,0.375,-0.213
36.99,-0.321,1.845,-0.018
37.0,-0.067,0.665,0.114
37.01,-0.138,1.116,0.038
37.02,-0.319,0.621,-0.242
37.03,-0.26,1.47,0.042
37.04,-0.176,1.03,0.121
37.05,-0.005,0.713,0.034
37.06,-0.486,0.836,-0.16
37.07,-0.106,1.469,0.111
37.08,-0.217,1.164,0.142
37.09,0.045,0.366,0.041
37.1,-0.47,0.982,-0.178
37.11,0.037,1.716,0.097
37.12,-0.179,0.924,0.141
37.13,0.066,0.738,-0.04
37.14,-0.46,0.532,-0.227
37.15,-0.013,2.0,0.102
37.16,-0.12,0.578,0.112
37.17,-0.065,0.944,-0.01
37.18,-0.377,0.36,-0.231
37.19,-0.061,2.0,0.1
37.2,-0.05,0.863,0.07
37.21,-0.082,0.538,-0.047
37.22,-0.442,0.764,-0.215
37.23,-0.067,1.465,0.141
37.24,-0.216,1.213,0.158
37.25,0.023,0.377,-0.036
37.26,-0.494,0.954,-0.195
37.27,-0.045,1.467,0.229
37.28,-0.201,1.146,0.156
37.29,-0.108,0.635,-0.035
37.3,-0.459,0.533,-0.165
37.31,-0.161,1.751,0.154
37.32,-0.091,0.727,0.093
37.33,-0.12,0.93,-0.071
37.34,-0.412,0.292,-0.163
37.35,-0.149,1.653,0.178
37.36,-0.173,0.838,0.136
37.37,-0.135,0.755,-0.1
37.38,-0.483,0.677,-0.199
37.39,-0.03,1.259,0.204
37.4,-0.311,1.346,0.135
37.41,-0.019,0.412,-0.082
37.42,-0.487,0.931,-0.166
37.43,-0.029,1.17,0.165
37.44,-0.273,1.204,0.044
37.45,-0.04,0.768,-0.024
37.46,-0.541,0.489,-0.12
37.47,-0.125,1.433,0.214
37.48,-0.111,0.835,0.072
37.49,-0.251,1.031,-0.12
37.5,-0.374,0.255,-0.141
37.51,-0.232,1.438,0.198
37.52,-0.099,0.89,0.018
37.53,-0.194,0.78,-0.132
37.54,-0.381,0.704,-0.19
37.55,-0.038,0.992,0.166
37.56,-0.205,1.296,-0.026
37.57,-0.164,0.383,-0.139
37.58,-0.509,0.974,-0.087
37.59,-0.039,0.963,0.175
37.6,-0.302,1.191,0.021
37.61,-0.258,0.604,-0.088
37.62,-0.414,0.682,-0.009
37.63,-0.204,1.253,0.207
37.64,-0.185,0.699,0.076
37.65,-0.354,0.987,-0.081
37.66,-0.355,0.593,-0.054
37.67,-0.116,1.322,0.193
37.68,-0.165,0.825,0.054
37.69,-0.412,0.725,-0.149
37.7,-0.315,0.932,-0.073
37.71,-0.1,0.965,0.117
37.72,-0.236,1.228,0.074
37.73,-0.212,0.333,-0.16
37.74,-0.313,1.552,-0.093
37.75,0.007,0.857,0.17
37.76,-0.202,1.116,0.022
37.77,-0.323,0.512,-0.156
37.78,-0.24,1.377,-0.085
37.79,-0.041,1.144,0.126
37.8,-0.078,0.655,-0.006
37.81,-0.471,0.955,-0.178
37.82,-0.15,1.137,-0.032
37.83,-0.228,1.207,0.192
37.84,-0.067,0.71,0.042
37.85,-0.457,1.088,-0.233
37.86,-0.186,1.407,0.049
37.87,-0.163,0.976,0.087
37.88,-0.058,0.801,0.067
37.89,-0.384,0.658,-0.176
37.9,-0.272,1.898,0.072
37.91,-0.096,0.712,0.188
37.92,-0.161,1.001,0.057
37.93,-0.375,0.359,-0.228
37.94,-0.224,2.0,0.067
37.95,-0.141,0.673,0.129
37.96,-0.073,0.81,0.034
37.97,-0.447,0.794,-0.184
37.98,-0.201,1.501,0.127
37.99,-0.202,1.074,0.181
38.0,0.077,0.476,0.063
38.01,-0.511,1.032,-0.207
38.02,-0.002,1.473,0.082
38.03,-0.194,0.987,0.147
38.04,0.093,0.677,0.015
38.05,-0.503,0.701,-0.188
38.06,-0.088,1.935,0.081
38.07,-0.133,0.663,0.145
38.08,-0.051,0.959,0.031
38.09,-0.469,0.348,-0.208
38.1,-0.039,2.0,0.067
38.11,-0.136,0.646,0.131
38.12,-0.012,0.77,0.008
38.13,-0.476,0.723,-0.265
38.14,-0.021,1.604,0.07
38.15,-0.127,1.099,0.095
38.16,0.154,0.391,-0.058
38.17,-0.57,1.051,-0.204
38.18,-0.003,1.424,0.167
38.19,-0.173,1.16,0.087
38.2,0.031,0.536,-0.032
38.21,-0.437,0.706,-0.215
38.22,-0.088,1.78,0.083
38.23,0.018,0.687,0.038
38.24,-0.129,0.953,-0.052
38.25,-0.412,0.305,-0.218
38.26,-0.097,1.985,0.11
38.27,-0.055,0.751,0.095
38.28,-0.095,0.682,-0.033
38.29,-0.423,0.694,-0.254
38.3,-0.063,1.551,0.107
38.31,-0.093,1.2,0.045
38.32,0.031,0.376,-0.074
38.33,-0.461,1.027,-0.225
38.34,0.021,1.394,0.163
38.35,-0.14,1.188,0.051
38.36,-0.029,0.556,-0.032
38.37,-0.443,0.731,-0.192
38.38,-0.134,1.739,0.15
38.39,-0.084,0.764,0.105
38.4,-0.11,0.981,-0.051
38.41,-0.442,0.248,-0.176
38.42,-0.184,1.844,0.158
38.43,-0.08,0.803,0.122
38.44,-0.127,0.82,-0.034
38.45,-0.412,0.518,-0.229
38.46,-0.082,1.409,0.195
38.47,-0.213,1.24,0.095
38.48,-0.097,0.465,-0.061
38.49,-0.494,0.949,-0.171
38.5,-0.046,1.277,0.183
38.51,-0.22,1.345,0.126
38.52,-0.073,0.561,-0.012
38.53,-0.51,0.708,-0.155
38.54,-0.114,1.512,0.146
38.55,-0.176,0.878,0.085
38.56,-0.131,0.963,-0.075
38.57,-0.442,0.26,-0.196
38.58,-0.196,1.618,0.187
38.59,-0.166,0.776,0.085
38.6,-0.2,0.928,-0.045
38.61,-0.467,0.456,-0.165
38.62,-0.136,1.304,0.239
38.63,-0.21,1.182,0.067
38.64,-0.062,0.486,-0.071
38.65,-0.403,0.797,-0.205
38.66,-0.06,1.016,0.204
38.67,-0.218,1.286,0.002
38.68,-0.107,0.395,-0.155
38.69,-0.48,0.958,-0.11
38.7,-0.015,1.015,0.154
38.71,-0.189,1.141,0.006
38.72,-0.212,0.681,-0.149
38.73,-0.466,0.496,-0.075
38.74,-0.119,1.367,0.167
38.75,-0.161,0.719,0.013
38.76,-0.24,0.999,-0.119
38.77,-0.394,0.414,-0.115
38.78,-0.137,1.302,0.157
38.79,-0.215,0.869,0.031
38.8,-0.23,0.691,-0.139
38.81,-0.489,0.836,-0.097
38.82,-0.048,0.946,0.175
38.83,-0.261,1.31,-0.007
38.84,-0.172,0.311,-0.128
38.85,-0.53,1.084,-0.03
38.86,-0.017,0.957,0.156
38.87,-0.298,1.151,0.06
38.88,-0.24,0.628,-0.114
38.89,-0.411,0.805,-0.023
38.9,-0.136,1.266,0.223
38.91,-0.166,0.693,0.105
38.92,-0.406,0.981,-0.146
38.93,-0.405,0.637,-0.018
38.94,-0.078,1.254,0.135
38.95,-0.216,0.88,0.012
38.96,-0.33,0.671,-0.143
38.97,-0.157,1.457,-0.105
38.98,0.076,0.931,0.136
38.99,-0.19,1.088,0.005
39.0,-0.213,0.402,-0.218
39.01,-0.261,1.688,-0.08
39.02,-0.022,0.813,0.149
39.03,-0.219,1.092,0.039
39.04,-0.33,0.604,-0.186
39.05,-0.29,1.23,-0.025
39.06,-0.072,1.137,0.146
39.07,-0.064,0.729,0.011
39.08,-0.379,0.966,-0.188
39.09,-0.089,1.202,-0.08
39.1,-0.104,1.248,0.143
39.11,-0.004,0.678,0.06
39.12,-0.431,0.921,-0.213
39.13,-0.211,1.504,-0.079
39.14,-0.11,0.742,0.084
39.15,-0.201,1.192,0.011
39.16,-0.292,0.403,-0.298
39.17,-0.276,1.879,0.043
39.18,-0.042,0.702,0.125
39.19,-0.147,1.067,0.092
39.2,-0.282,0.63,-0.245
39.21,-0.311,1.499,0.063
39.22,-0.101,1.099,0.19
39.23,-0.065,0.583,0.095
39.24,-0.44,0.988,-0.187
39.25,-0.269,1.321,0.098
39.26,-0.232,1.165,0.154
39.27,0.008,0.581,0.073
39.28,-0.498,0.905,-0.184
39.29,-0.24,1.691,0.058
39.3,-0.183,0.711,0.156
39.31,-0.024,1.004,0.081
39.32,-0.396,0.382,-0.231
39.33,-0.278,1.954,0.133
39.34,-0.234,0.57,0.171
39.35,-0.143,1.047,0.077
39.36,-0.411,0.47,-0.148
39.37,-0.195,1.749,0.099
39.38,-0.181,0.981,0.163
39.39,0.049,0.5,0.053
39.4,-0.539,1.048,-0.167
39.41,-0.075,1.389,0.099
39.42,-0.247,1.104,0.238
39.43,0.019,0.511,0.066
39.44,-0.615,0.932,-0.12
39.45,-0.093,1.813,0.142
39.46,-0.193,1.03,0.132
39.47,0.076,0.612,-0.037
39.48,-0.439,0.696,-0.194
39.49,-0.103,1.751,0.08
39.5,-0.036,0.722,0.082
39.51,-0.065,0.943,-0.026
39.52,-0.331,0.327,-0.252
39.53,-0.057,2.0,0.09
39.54,-0.039,0.725,0.12
39.55,-0.11,0.709,-0.043
39.56,-0.474,0.73,-0.237
39.57,-0.002,1.553,0.135
39.58,-0.115,1.178,0.085
39.59,0.084,0.308,-0.033
39.6,-0.546,1.086,-0.217
39.61,-0.026,1.356,0.16
39.62,-0.162,1.1,0.104
39.63,0.013,0.61,-0.06
39.64,-0.48,0.651,-0.208
39.65,-0.081,1.751,0.162
39.66,-0.086,0.771,0.127
39.67,-0.157,0.925,-0.035
39.68,-0.417,0.303,-0.203
39.69,-0.24,1.829,0.203
39.7,-0.154,0.765,0.108
39.71,-0.131,0.775,-0.01
39.72,-0.427,0.613,-0.239
39.73,-0.062,1.458,0.175
39.74,-0.239,1.159,0.156
39.75,-0.004,0.439,-0.064
39.76,-0.561,1.005,-0.18
39.77,-0.01,1.317,0.184
39.78,-0.358,1.235,0.123
39.79,0.031,0.563,-0.058
39.8,-0.485,0.665,-0.172
39.81,-0.1,1.636,0.141
39.82,-0.176,0.822,0.151
39.83,-0.201,0.971,-0.047
39.84,-0.494,0.175,-0.131
39.85,-0.113,1.821,0.2
39.86,-0.148,0.796,0.114
39.87,-0.151,0.854,-0.063
39.88,-0.446,0.542,-0.188
39.89,-0.099,1.373,0.215
39.9,-0.303,1.277,0.069
39.91,-0.037,0.397,-0.073
39.92,-0.535,0.961,-0.16
39.93,-0.064,1.098,0.181
39.94,-0.249,1.206,0.072
39.95,-0.144,0.573,-0.136
39.96,-0.417,0.64,-0.166
39.97,-0.126,1.391,0.126
39.98,-0.142,0.909,0.082
39.99,-0.209,0.955,-0.109
40.0,-0.434,0.233,-0.18
40.01,-0.235,1.542,0.212
40.02,-0.179,0.816,0.075
40.03,-0.096,0.929,-0.113
40.04,-0.479,0.479,-0.252
40.05,-0.031,1.243,0.157
40.06,-0.155,1.145,-0.013
40.07,-0.097,0.484,-0.18
40.08,-0.453,0.947,-0.223
40.09,-0.014,0.979,0.183
40.1,-0.198,1.336,0.064
40.11,-0.102,0.458,-0.152
40.12,-0.495,0.775,-0.147
40.13,-0.019,1.235,0.15
40.14,-0.099,0.934,0.042
40.15,-0.157,0.948,-0.152
40.16,-0.432,0.291,-0.164
40.17,-0.125,1.448,0.169
40.18,-0.13,0.8,0.064
40.19,-0.285,0.879,-0.128
40.2,-0.406,0.459,-0.146
40.21,-0.078,1.203,0.188
40.22,-0.199,1.155,0.007
40.23,-0.096,0.424,-0.144
40.24,-0.503,0.943,-0.15
40.25,0.033,0.904,0.181
40.26,-0.282,1.325,0.035
40.27,-0.138,0.307,-0.124
40.28,-0.494,1.125,-0.102
40.29,0.017,0.951,0.156
40.3,-0.245,1.188,0.033
40.31,-0.286,0.573,-0.148
40.32,-0.414,0.776,-0.038
40.33,-0.107,1.263,0.153
40.34,-0.148,0.73,0.075
40.35,-0.335,1.007,-0.129
40.36,-0.325,0.717,-0.049
40.37,-0.144,1.28,0.176
40.38,-0.167,0.894,0.08
40.39,-0.394,0.741,-0.115
40.4,-0.349,1.276,-0.026
40.41,-0.053,0.872,0.217
40.42,-0.201,1.218,0.066
40.43,-0.339,0.396,-0.194
40.44,-0.341,1.506,-0.041
40.45,-0.063,0.818,0.138
40.46,-0.324,1.14,0.09
40.47,-0.331,0.517,-0.171
40.48,-0.378,1.2,-0.018
40.49,-0.083,1.14,0.167
40.5,-0.217,0.754,0.038
40.51,-0.325,0.94,-0.167
40.52,-0.2,1.088,-0.054
40.53,-0.135,1.229,0.143
40.54,-0.067,0.781,0.081
40.55,-0.417,0.849,-0.179
40.56,-0.225,1.5,-0.03
40.57,-0.13,0.862,0.16
40.58,-0.223,1.077,0.048
40.59,-0.27,0.446,-0.201
40.6,-0.334,1.925,0.015
40.61,-0.07,0.689,0.119
40.62,-0.141,1.091,0.101
40.63,-0.329,0.553,-0.245
40.64,-0.328,1.574,0.058
40.65,-0.183,0.929,0.112
40.66,-0.024,0.704,0.089
40.67,-0.38,1.017,-0.245
40.68,-0.29,1.276,0.086
40.69,-0.237,1.148,0.171
40.7,-0.068,0.64,0.1
40.71,-0.462,0.871,-0.164
40.72,-0.274,1.708,0.084
40.73,-0.173,0.817,0.17
40.74,-0.073,0.924,0.023
40.75,-0.348,0.425,-0.229
40.76,-0.256,2.0,0.088
40.77,-0.185,0.55,0.129
40.78,-0.087,1.026,0.056
40.79,-0.454,0.472,-0.203
40.8,-0.139,1.789,0.125
40.81,-0.222,0.882,0.122
40.82,-0.012,0.522,0.025
40.83,-0.521,1.024,-0.213
40.84,-0.073,1.468,0.156
40.85,-0.211,1.136,0.168
40.86,0.017,0.484,0.065
40.87,-0.479,0.92,-0.171
40.88,-0.007,1.745,0.052
40.89,-0.148,0.84,0.117
40.9,-0.059,0.804,-0.036
40.91,-0.347,0.427,-0.198
40.92,-0.118,2.0,0.064
40.93,-0.021,0.635,0.137
40.94,-0.155,0.849,-0.018
40.95,-0.417,0.456,-0.202
40.96,-0.154,1.871,0.122
40.97,-0.141,0.873,0.121
40.98,-0.056,0.485,-0.023
40.99,-0.46,0.944,-0.172
41.0,-0.06,1.336,0.139
41.01,-0.156,1.265,0.08
41.02,-0.008,0.384,0.002
41.03,-0.478,0.874,-0.216
41.04,-0.032,1.574,0.194
41.05,-0.063,0.985,0.069
41.06,-0.049,0.555,-0.051
41.07,-0.456,0.63,-0.225
41.08,-0.119,1.529,0.223
41.09,-0.14,0.853,0.098
41.1,-0.178,0.91,-0.069
41.11,-0.416,0.222,-0.179
41.12,-0.217,1.606,0.227
41.13,-0.209,0.835,0.133
41.14,-0.258,0.877,-0.077
41.15,-0.442,0.463,-0.204
41.16,-0.121,1.266,0.228
41.17,-0.269,1.311,0.073
41.18,-0.036,0.424,-0.119
41.19,-0.545,0.914,-0.162
41.2,0.041,1.032,0.214
41.21,-0.285,1.322,0.038
41.22,-0.101,0.563,-0.086
41.23,-0.519,0.647,-0.17
41.24,-0.099,1.333,0.216
41.25,-0.084,0.883,0.037
41.26,-0.271,0.996,-0.127
41.27,-0.368,0.228,-0.159
41.28,-0.212,1.435,0.199
41.29,-0.062,0.847,-0.01
41.3,-0.299,0.809,-0.119
41.31,-0.391,0.556,-0.207
41.32,-0.046,1.171,0.142
41.33,-0.238,1.167,-0.036
41.34,-0.07,0.471,-0.134
41.35,-0.541,0.956,-0.203
41.36,-0.008,0.918,0.169
41.37,-0.239,1.291,0.016
41.38,-0.231,0.456,-0.103
41.39,-0.476,0.731,-0.115
41.4,-0.146,1.136,0.179
41.41,-0.167,0.892,0.045
41.42,-0.285,0.894,-0.152
41.43,-0.411,0.363,-0.107
41.44,-0.157,1.398,0.155
41.45,-0.158,0.748,0.039
41.46,-0.301,0.882,-0.123
41.47,-0.48,0.61,-0.099
41.48,-0.04,1.181,0.132
41.49,-0.207,1.146,0.031
41.5,-0.204,0.382,-0.124
41.51,-0.569,1.081,-0.035
41.52,-0.017,0.872,0.149
41.53,-0.268,1.275,0.027
41.54,-0.19,0.425,-0.132
41.55,-0.414,0.932,-0.059
41.56,-0.024,1.09,0.122
41.57,-0.207,0.874,0.074
41.58,-0.298,0.872,-0.146
41.59,-0.483,0.466,-0.043
41.6,-0.108,1.349,0.168
41.61,-0.246,0.754,0.084
41.62,-0.316,0.838,-0.117
41.63,-0.395,0.949,-0.059
41.64,-0.043,1.134,0.148
41.65,-0.288,1.019,0.042
41.66,-0.163,0.517,-0.17
41.67,-0.361,1.534,-0.07
41.68,0.013,0.816,0.181
41.69,-0.285,1.191,0.061
41.7,-0.313,0.372,-0.147
41.71,-0.309,1.344,-0.052
41.72,-0.09,0.904,0.151
41.73,-0.18,0.866,0.02
41.74,-0.334,0.821,-0.191
41.75,-0.222,1.148,-0.1
41.76,-0.089,1.251,0.179
41.77,-0.051,0.63,0.063
41.78,-0.469,1.02,-0.189
41.79,-0.223,1.173,-0.025
41.8,-0.199,1.02,0.134
41.81,-0.179,1.007,0.026
41.82,-0.319,0.575,-0.209
41.83,-0.26,1.713,-0.014
41.84,-0.143,0.707,0.233
41.85,-0.213,1.249,0.087
41.86,-0.3,0.408,-0.237
41.87,-0.28,1.949,0.021
41.88,0.007,0.68,0.092
41.89,-0.129,0.998,0.067
41.9,-0.397,0.574,-0.227
41.91,-0.253,1.611,0.086
41.92,-0.11,0.919,0.091
41.93,0.01,0.566,0.003
41.94,-0.45,1.068,-0.204
41.95,-0.141,1.366,0.083
41.96,-0.215,1.158,0.181
41.97,-0.044,0.531,0.106
41.98,-0.399,0.875,-0.208
41.99,-0.142,1.731,0.086
42.0,-0.124,0.869,0.17
42.01,-0.084,0.855,0.014
42.02,-0.374,0.421,-0.223
42.03,-0.125,2.0,0.073
42.04,-0.032,0.628,0.099
42.05,-0.062,0.907,0.008
42.06,-0.37,0.541,-0.232
42.07,-0.138,1.83,0.076
42.08,-0.158,0.888,0.149
42.09,0.106,0.534,-0.016
42.1,-0.566,0.92,-0.227
42.11,0.085,1.475,0.042
42.12,-0.229,1.151,0.098
42.13,0.131,0.451,-0.011
42.14,-0.505,0.939,-0.236
42.15,-0.026,1.775,0.066
42.16,-0.1,0.822,0.128
42.17,-0.001,0.806,-0.017
42.18,-0.419,0.476,-0.192
42.19,-0.187,1.965,0.065
42.2,-0.002,0.619,0.087
42.21,-0.126,0.917,-0.018
42.22,-0.316,0.433,-0.242
42.23,-0.184,1.751,0.096
42.24,-0.042,0.95,0.113
42.25,-0.015,0.454,-0.034
42.26,-0.53,0.997,-0.193
42.27,-0.084,1.416,0.21
42.28,-0.246,1.277,0.126
42.29,0.04,0.367,-0.008
42.3,-0.551,0.928,-0.203
42.31,-0.039,1.448,0.146
42.32,-0.198,0.932,0.128
42.33,-0.131,0.742,-0.039
42.34,-0.395,0.377,-0.173
42.35,-0.245,1.891,0.149
42.36,-0.059,0.697,0.106
42.37,-0.2,0.973,-0.062
42.38,-0.292,0.345,-0.199
42.39,-0.199,1.703,0.192
42.4,-0.089,1.081,0.092
42.41,-0.066,0.441,-0.08
42.42,-0.49,0.939,-0.208
42.43,-0.004,1.301,0.108
42.44,-0.219,1.205,0.094
42.45,-0.094,0.42,-0.016
42.46,-0.514,0.931,-0.176
42.47,-0.104,1.384,0.235
42.48,-0.16,1.067,0.063
42.49,-0.034,0.748,-0.121
42.5,-0.384,0.485,-0.167
42.51,-0.126,1.677,0.176
42.52,-0.174,0.707,0.117
42.53,-0.178,0.999,-0.069
42.54,-0.429,0.244,-0.174
42.55,-0.18,1.551,0.207
42.56,-0.281,0.983,0.17
42.57,-0.161,0.623,-0.034
42.58,-0.499,0.819,-0.171
42.59,-0.046,1.219,0.236
42.6,-0.302,1.393,0.164
42.61,-0.077,0.423,-0.053
42.62,-0.482,0.903,-0.161
42.63,-0.035,1.272,0.122
42.64,-0.225,1.09,0.054
42.65,-0.095,0.805,-0.101
42.66,-0.465,0.736,-0.171
42.67,-0.165,1.244,0.207
42.68,-0.133,0.882,0.036
42.69,-0.244,0.94,-0.163
42.7,-0.395,0.254,-0.129
42.71,-0.205,1.464,0.156
42.72,-0.11,0.808,0.007
42.73,-0.196,0.884,-0.132
42.74,-0.428,0.505,-0.195
42.75,-0.087,1.145,0.204
42.76,-0.221,1.145,-0.019
42.77,-0.156,0.392,-0.126
42.78,-0.463,1.026,-0.125
42.79,0.007,0.891,0.165
42.8,-0.319,1.254,0.024
42.81,-0.068,0.523,-0.11
42.82,-0.539,0.765,-0.127
42.83,0.018,1.194,0.186
42.84,-0.163,0.927,-0.02
42.85,-0.308,0.849,-0.136
42.86,-0.389,0.355,-0.119
42.87,-0.135,1.395,0.19
42.88,-0.166,0.798,-0.016
42.89,-0.241,0.859,-0.106
42.9,-0.42,0.704,-0.127
42.91,-0.026,1.2,0.199
42.92,-0.205,1.096,0.016
42.93,-0.246,0.392,-0.112
42.94,-0.399,1.151,-0.087
42.95,-0.098,0.898,0.183
42.96,-0.297,1.258,0.067
42.97,-0.197,0.321,-0.103
42.98,-0.424,1.137,-0.033
42.99,-0.04,1.064,0.169
43.0,-0.223,0.859,0.042
43.01,-0.269,0.83,-0.104
43.02,-0.376,0.673,0.002
43.03,-0.142,1.347,0.153
43.04,-0.16,0.719,0.079
43.05,-0.399,0.885,-0.148
43.06,-0.32,0.766,-0.051
43.07,-0.094,1.122,0.122
43.08,-0.226,1.058,0.031
43.09,-0.227,0.441,-0.141
43.1,-0.404,1.416,-0.052
43.11,0.047,0.863,0.138
43.12,-0.272,1.267,0.043
43.13,-0.229,0.319,-0.168
43.14,-0.357,1.357,-0.079
43.15,-0.001,1.024,0.103
43.16,-0.257,0.919,0.056
43.17,-0.342,0.784,-0.116
43.18,-0.313,0.884,-0.052
43.19,-0.231,1.309,0.17
43.2,-0.083,0.739,0.064
43.21,-0.407,0.846,-0.189
43.22,-0.289,1.011,-0.061
43.23,-0.125,1.172,0.136
43.24,-0.176,0.976,0.027
43.25,-0.262,0.515,-0.202
43.26,-0.243,1.567,-0.097
43.27,-0.066,0.824,0.104
43.28,-0.259,1.176,0.044
43.29,-0.204,0.368,-0.17
43.3,-0.388,1.497,-0.047
43.31,-0.113,0.892,0.14
43.32,-0.22,1.0,0.041
43.33,-0.372,0.697,-0.228
43.34,-0.234,0.994,-0.044
43.35,-0.195,1.269,0.128
43.36,-0.126,0.696,0.075
43.37,-0.41,0.916,-0.159
43.38,-0.281,1.095,-0.046
43.39,-0.082,1.186,0.15
43.4,-0.178,0.933,0.001
43.41,-0.289,0.593,-0.221
43.42,-0.308,1.635,-0.048
43.43,-0.053,0.796,0.118
43.44,-0.267,1.21,0.073
43.45,-0.242,0.373,-0.217
43.46,-0.349,1.914,0.032
43.47,-0.082,0.618,0.1
43.48,-0.109,1.145,0.037
43.49,-0.378,0.441,-0.28
43.5,-0.199,1.684,-0.032
43.51,-0.072,0.953,-0.036
43.52,0.039,0.687,0.011
43.53,-0.481,0.903,-0.268
43.54,-0.147,1.29,0.033
43.55,-0.333,1.857,-0.009
43.56,-0.039,0.669,0.087
43.57,-0.124,1.024,0.065
43.58,-0.287,0.464,-0.245
43.59,-0.293,1.764,0.045
43.6,-0.168,0.867,0.149
43.61,-0.02,0.634,0.041
43.62,-0.491,0.892,-0.19
43.63,-0.12,1.473,0.068
43.64,-0.267,1.056,0.158
43.65,0.072,0.54,0.118
43.66,-0.577,0.923,-0.165
43.67,-0.098,1.597,0.097
43.68,-0.228,0.948,0.12
43.69,0.006,0.824,0.021
43.7,-0.4,0.429,-0.192
43.71,-0.191,2.0,0.11
43.72,-0.126,0.592,0.129
43.73,-0.081,1.009,0.042
43.74,-0.392,0.383,-0.225
43.75,-0.167,1.922,0.09
43.76,-0.254,0.731,0.116
43.77,0.084,0.689,0.035
43.78,-0.516,0.881,-0.199
43.79,-0.091,1.429,0.068
43.8,-0.202,1.254,0.16
43.81,0.055,0.351,0.032
43.82,-0.464,1.003,-0.177
43.83,-0.017,1.748,0.067
43.84,-0.166,0.86,0.14
43.85,0.067,0.807,-0.041
43.86,-0.46,0.437,-0.206
43.87,-0.051,2.0,0.145
43.88,-0.193,0.601,0.129
43.89,-0.069,0.934,0.05
43.9,-0.406,0.395,-0.168
43.91,-0.145,1.926,0.141
43.92,-0.198,0.797,0.163
43.93,0.069,0.611,-0.019
43.94,-0.443,0.805,-0.216
43.95,0.07,1.6,0.066
43.96,-0.237,1.181,0.153
43.97,0.127,0.367,-0.002
43.98,-0.579,0.945,-0.219
43.99,0.135,1.688,0.08
44.0,-0.217,1.027,0.078
44.01,0.076,0.614,-0.046
44.02,-0.374,0.548,-0.198
44.03,-0.111,1.943,0.122
44.04,-0.123,0.613,0.152
44.05,-0.056,0.927,-0.02
44.06,-0.375,0.292,-0.19
44.07,-0.075,2.0,0.134
44.08,-0.121,0.833,0.097
44.09,-0.063,0.555,-0.036
44.1,-0.456,0.753,-0.236
44.11,-0.023,1.583,0.1
44.12,-0.194,1.202,0.068
44.13,0.111,0.326,-0.022
44.14,-0.499,0.979,-0.225
44.15,0.025,1.507,0.152
44.16,-0.172,1.04,0.095
44.17,-0.025,0.663,-0.022
44.18,-0.406,0.617,-0.182
44.19,-0.031,1.618,0.128
44.2,-0.217,0.977,0.088
44.21,-0.055,0.861,-0.105
44.22,-0.367,0.339,-0.204
44.23,-0.162,1.686,0.169
44.24,-0.111,0.781,0.109
44.25,-0.142,1.024,-0.088
44.26,-0.413,0.35,-0.194
44.27,-0.121,1.587,0.209
44.28,-0.234,1.114,0.124
44.29,-0.122,0.536,-0.056
44.3,-0.542,0.962,-0.172
44.31,-0.014,1.281,0.255
44.32,-0.336,1.426,0.098
44.33,0.061,0.381,-0.026
44.34,-0.503,0.885,-0.202
44.35,-0.052,1.338,0.159
44.36,-0.184,0.968,0.025
44.37,-0.169,1.021,-0.064
44.38,-0.389,0.292,-0.173
44.39,-0.198,1.762,0.21
44.4,-0.06,0.88,0.085
44.41,-0.25,0.945,-0.064
44.42,-0.35,0.393,-0.193
44.43,-0.155,1.453,0.199
44.44,-0.157,1.121,0.052
44.45,-0.082,0.631,-0.092
44.46,-0.482,0.93,-0.14
44.47,-0.067,1.06,0.199
44.48,-0.299,1.308,0.17
44.49,-0.107,0.545,-0.085
44.5,-0.521,0.844,-0.143
44.51,-0.112,1.245,0.209
44.52,-0.248,1.099,0.106
44.53,-0.104,0.929,-0.068
44.54,-0.5,0.396,-0.154
44.55,-0.186,1.465,0.214
44.56,-0.218,0.787,0.042
44.57,-0.268,1.026,-0.054
44.58,-0.368,0.37,-0.149
44.59,-0.174,1.35,0.228
44.6,-0.208,1.024,0.077
44.61,-0.166,0.673,-0.117
44.62,-0.411,0.889,-0.107
44.63,-0.04,0.954,0.255
44.64,-0.198,1.356,-0.047
44.65,-0.082,0.345,-0.186
44.66,-0.427,1.136,-0.113
44.67,0.099,0.912,0.111
44.68,-0.305,1.243,0.025
44.69,-0.205,0.448,-0.136
44.7,-0.466,0.795,-0.094
44.71,-0.077,1.2,0.17
44.72,-0.101,0.858,-0.036
44.73,-0.356,0.809,-0.168
44.74,-0.387,0.551,-0.065
44.75,-0.091,1.335,0.103
44.76,-0.234,0.822,0.058
44.77,-0.294,0.758,-0.109
44.78,-0.413,1.063,-0.057
44.79,-0.065,1.03,0.127
44.8,-0.257,1.214,0.021
44.81,-0.273,0.318,-0.211
44.82,-0.363,1.426,-0.003
44.83,-0.085,0.739,0.135
44.84,-0.289,1.262,0.048
44.85,-0.228,0.316,-0.178
44.86,-0.302,1.364,-0.081
44.87,-0.033,1.048,0.074
44.88,-0.076,0.835,-0.03
44.89,-0.354,0.843,-0.247
44.9,-0.183,1.006,-0.059
44.91,-0.174,1.26,0.135
44.92,-0.018,0.694,0.044
44.93,-0.44,0.92,-0.202
44.94,-0.225,1.226,-0.021
44.95,-0.137,0.896,0.062
44.96,-0.147,1.112,-0.008
44.97,-0.231,0.397,-0.228
44.98,-0.253,1.847,0.009
44.99,-0.169,0.724,0.142
45.0,-0.111,1.039,0.078
45.01,-0.346,0.344,-0.175
45.02,-0.332,1.985,0.143
45.03,-0.171,0.693,0.151
45.04,-0.131,0.863,0.061
45.05,-0.406,0.629,-0.174
45.06,-0.172,1.666,0.101
45.07,-0.33,0.978,0.122
45.08,0.102,0.491,0.022
45.09,-0.503,1.003,-0.202
45.1,-0.052,1.527,0.101
45.11,-0.25,1.066,0.134
45.12,0.08,0.581,0.022
45.13,-0.463,0.692,-0.187
45.14,0.003,1.913,0.049
45.15,-0.103,0.711,0.107
45.16,0.009,0.907,-0.051
45.17,-0.422,0.254,-0.203
45.18,-0.133,2.0,0.142
45.19,-0.125,0.694,0.114
45.2,-0.107,0.724,-0.033
45.21,-0.404,0.542,-0.245
45.22,-0.064,1.697,0.085
45.23,-0.166,1.099,0.079
45.24,0.082,0.364,-0.034
45.25,-0.525,1.014,-0.237
45.26,0.087,1.541,0.134
45.27,-0.264,1.21,0.081
45.28,0.066,0.45,-0.037
45.29,-0.429,0.769,-0.236
45.3,-0.022,1.711,0.093
45.31,-0.11,0.831,0.082
45.32,-0.135,0.847,-0.047
45.33,-0.345,0.292,-0.157
45.34,-0.175,1.959,0.151
45.35,-0.077,0.73,0.132
45.36,-0.114,0.868,-0.037
45.37,-0.425,0.438,-0.19
45.38,-0.063,1.608,0.19
45.39,-0.216,1.219,0.103
45.4,0.026,0.394,-0.029
45.41,-0.512,0.99,-0.199
45.42,0.002,1.243,0.219
45.43,-0.261,1.292,0.105
45.44,0.0,0.549,-0.037
45.45,-0.5,0.78,-0.189
45.46,0.003,1.53,0.157
45.47,-0.177,0.962,0.051
45.48,-0.094,0.946,-0.091
45.49,-0.335,0.278,-0.174
45.5,-0.195,1.663,0.138
45.51,-0.146,0.803,0.109
45.52,-0.199,0.95,-0.058
45.53,-0.359,0.417,-0.191
45.54,-0.222,1.331,0.218
45.55,-0.212,1.114,0.076
45.56,-0.121,0.527,-0.142
45.57,-0.425,0.937,-0.147
45.58,-0.014,1.044,0.189
45.59,-0.321,1.385,0.103
45.6,-0.044,0.532,-0.118
45.61,-0.492,0.786,-0.124
45.62,-0.039,1.238,0.186
45.63,-0.174,1.034,0.041
45.64,-0.167,0.951,-0.131
45.65,-0.355,0.296,-0.177
45.66,-0.152,1.45,0.153
45.67,-0.145,0.849,0.034
45.68,-0.253,0.973,-0.122
45.69,-0.458,0.437,-0.141
45.7,-0.088,1.237,0.169
45.71,-0.197,1.137,0.006
45.72,-0.229,0.511,-0.104
45.73,-0.545,0.96,-0.08
45.74,-0.076,0.917,0.227
45.75,-0.333,1.344,0.06
45.76,-0.15,0.357,-0.075
45.77,-0.545,0.989,-0.067
45.78,0.006,1.097,0.156
45.79,-0.283,1.178,0.054
45.8,-0.277,0.526,-0.144
45.81,-0.33,0.901,-0.066
45.82,-0.145,1.178,0.142
45.83,-0.129,0.792,0.031
45.84,-0.344,0.866,-0.2
45.85,-0.235,0.759,-0.052
45.86,-0.172,1.25,0.127
45.87,-0.165,0.858,0.004
45.88,-0.316,0.684,-0.166
45.89,-0.208,1.348,-0.116
45.9,-0.052,0.927,0.102
45.91,-0.236,1.169,-0.024
45.92,-0.248,0.369,-0.215
45.93,-0.298,1.714,-0.025
45.94,-0.131,0.745,0.136
45.95,-0.196,1.155,0.059
45.96,-0.337,0.47,-0.205
45.97,-0.261,1.454,-0.006
45.98,-0.071,1.082,0.107
45.99,-0.059,0.673,0.025
46.0,-0.456,1.018,-0.164
46.01,-0.249,1.2,0.098
46.02,-0.26,1.17,0.2
46.03,-0.088,0.663,0.069
46.04,-0.448,0.922,-0.157
46.05,-0.253,1.627,0.076
46.06,-0.131,0.848,0.152
46.07,-0.095,0.984,-0.004
46.08,-0.315,0.373,-0.169
46.09,-0.334,2.0,0.073
46.1,-0.114,0.653,0.126
46.11,-0.137,1.027,0.051
46.12,-0.4,0.418,-0.169
46.13,-0.189,1.809,0.07
46.14,-0.176,0.872,0.121
46.15,0.018,0.612,0.022
46.16,-0.495,0.938,-0.182
46.17,-0.144,1.414,0.117
46.18,-0.239,1.146,0.152
46.19,0.102,0.5,0.04
46.2,-0.482,0.9,-0.218
46.21,0.01,1.751,0.053
46.22,-0.163,0.876,0.122
46.23,0.002,0.787,-0.0
46.24,-0.369,0.371,-0.227
46.25,-0.103,2.0,0.128
46.26,-0.103,0.611,0.148
46.27,-0.088,0.889,0.017
46.28,-0.352,0.376,-0.217
46.29,-0.088,1.979,0.132
46.3,-0.175,0.866,0.087
46.31,0.089,0.498,-0.022
46.32,-0.515,0.844,-0.219
46.33,0.048,1.449,0.098
46.34,-0.219,1.263,0.096
46.35,0.061,0.359,-0.003
46.36,-0.436,0.863,-0.222
46.37,0.023,1.67,0.163
46.38,-0.143,0.913,0.112
46.39,-0.053,0.84,-0.071
46.4,-0.394,0.437,-0.219
46.41,-0.154,2.0,0.187
46.42,-0.129,0.716,0.064
46.43,-0.093,0.904,-0.022
46.44,-0.373,0.289,-0.177
46.45,-0.138,1.687,0.154
46.46,-0.121,1.064,0.06
46.47,-0.005,0.578,-0.039
46.48,-0.487,0.826,-0.158
46.49,-0.05,1.285,0.229
46.5,-0.337,1.267,0.128
46.51,0.001,0.564,-0.041
46.52,-0.537,0.911,-0.133
46.53,-0.0,1.344,0.196
46.54,-0.213,1.215,0.052
46.55,-0.025,0.788,-0.047
46.56,-0.457,0.422,-0.161
46.57,-0.107,1.56,0.227
46.58,-0.105,0.759,0.029
46.59,-0.172,1.168,-0.096
46.6,-0.389,0.288,-0.141
46.61,-0.112,1.419,0.138
46.62,-0.146,0.85,0.016
46.63,-0.253,0.877,-0.09
46.64,-0.391,0.635,-0.14
46.65,-0.095,1.115,0.205
46.66,-0.121,1.229,-0.137
46.67,-0.116,0.393,-0.168
46.68,-0.344,1.213,-0.11
46.69,-0.077,0.866,0.164
46.7,-0.212,1.253,0.055
46.71,-0.287,0.438,-0.154
46.72,-0.37,0.903,-0.013
46.73,-0.091,1.105,0.082
46.74,-0.188,0.861,-0.015
46.75,-0.29,0.737,-0.132
46.76,-0.185,0.783,-0.063
46.77,-0.189,1.333,0.143
46.78,-0.08,0.71,0.054
46.79,-0.396,0.813,-0.141
46.8,-0.152,1.04,-0.065
46.81,-0.178,1.021,0.094
46.82,-0.205,1.085,-0.02
46.83,-0.321,0.406,-0.167
46.84,-0.255,1.491,-0.08
46.85,-0.05,0.752,0.085
46.86,-0.224,1.285,-0.035
46.87,-0.285,0.334,-0.159
46.88,-0.264,1.44,-0.026
46.89,-0.073,1.021,0.106
46.9,-0.187,0.833,0.031
46.91,-0.395,0.866,-0.22
46.92,-0.244,1.084,0.028
46.93,-0.191,1.235,0.112
46.94,-0.094,0.631,0.05
46.95,-0.453,0.95,-0.135
46.96,-0.282,1.404,0.052
46.97,-0.099,0.973,0.113
46.98,-0.13,0.908,-0.002
46.99,-0.315,0.539,-0.222
47.0,-0.255,1.95,0.044
47.01,-0.145,0.672,0.128
47.02,-0.217,1.092,0.067
47.03,-0.412,0.333,-0.186
47.04,-0.259,1.879,0.053
47.05,-0.158,0.762,0.108
47.06,0.015,0.723,-0.048
47.07,-0.462,0.767,-0.215
47.08,0.02,1.589,0.031
47.09,-0.263,1.113,0.136
47.1,0.089,0.467,0.033
47.11,-0.574,0.968,-0.197
47.12,-0.082,1.603,0.157
47.13,-0.189,0.904,0.051
47.14,-0.017,0.766,-0.022
47.15,-0.424,0.54,-0.157
47.16,-0.172,1.938,0.181
47.17,-0.027,0.688,0.145
47.18,-0.15,0.906,-0.033
47.19,-0.313,0.28,-0.16
47.2,-0.138,2.0,0.068
47.21,-0.099,0.788,0.118
47.22,-0.026,0.668,-0.044
47.23,-0.483,0.75,-0.193
47.24,0.002,1.579,0.156
47.25,-0.234,1.248,0.108
47.26,0.086,0.321,-0.019
47.27,-0.473,0.963,-0.234
47.28,0.018,1.407,0.155
47.29,-0.19,1.153,0.077
47.3,-0.081,0.702,-0.096
47.31,-0.346,0.535,-0.166
47.32,-0.144,1.828,0.152
47.33,-0.049,0.856,0.133
47.34,-0.189,1.012,-0.097
47.35,-0.373,0.236,-0.176
47.36,-0.176,1.675,0.215
47.37,-0.139,0.964,0.131
47.38,-0.102,0.805,-0.065
47.39,-0.334,0.649,-0.208
47.4,-0.187,1.229,0.209
47.41,-0.195,1.097,-0.076
47.42,-0.041,0.585,-0.124
47.43,-0.454,0.939,-0.098
47.44,-0.057,0.856,0.228
47.45,-0.297,1.357,-0.002
47.46,-0.201,0.412,-0.107
47.47,-0.319,0.937,-0.048
47.48,-0.066,1.033,0.11
47.49,-0.247,0.925,0.025
47.5,-0.223,0.91,-0.152
47.51,-0.371,0.553,-0.022
47.52,-0.149,1.336,0.203
47.53,-0.342,0.734,0.062
47.54,-0.3,0.831,-0.133
47.55,-0.265,0.935,-0.047
47.56,-0.136,1.108,0.151
47.57,-0.36,1.059,0.094
47.58,-0.225,0.422,-0.155
47.59,-0.3,1.547,-0.049
47.6,0.007,0.792,0.147
47.61,-0.311,1.281,0.098
47.62,-0.306,0.319,-0.204
47.63,-0.298,1.579,0.019
47.64,-0.143,0.876,0.12
47.65,-0.138,0.991,0.007
47.66,-0.389,0.684,-0.273
47.67,-0.141,1.161,0.043
47.68,-0.2,1.19,0.102
47.69,0.045,0.64,0.016
47.7,-0.56,0.94,-0.199
47.71,-0.075,1.396,0.046
47.72,-0.183,0.916,0.044
47.73,0.047,0.869,0.003
47.74,-0.456,0.576,-0.218
47.75,-0.241,1.814,0.135
47.76,-0.175,0.575,0.084
47.77,-0.125,1.134,0.045
47.78,-0.394,0.318,-0.174
47.79,-0.233,1.956,0.121
47.8,-0.039,0.727,0.112
47.81,-0.121,0.728,0.009
47.82,-0.368,0.644,-0.18
47.83,-0.062,1.667,0.145
47.84,-0.219,1.117,0.172
47.85,-0.005,0.345,-0.009
47.86,-0.518,0.952,-0.181
47.87,-0.024,1.61,0.159
47.88,-0.216,1.019,0.08
47.89,0.064,0.597,-0.019
47.9,-0.499,0.529,-0.152
47.91,-0.084,1.798,0.147
47.92,-0.144,0.8,0.082
47.93,-0.122,0.936,-0.033
47.94,-0.339,0.229,-0.146
47.95,-0.148,1.856,0.201
47.96,-0.116,0.84,0.079
47.97,-0.094,0.804,-0.073
47.98,-0.418,0.56,-0.208
47.99,-0.114,1.423,0.283
48.0,-0.279,1.294,0.065
48.01,0.081,0.498,-0.059
48.02,-0.541,1.004,-0.17
48.03,0.032,1.149,0.214
48.04,-0.394,1.261,0.119
48.05,-0.065,0.656,-0.047
48.06,-0.446,0.643,-0.121
48.07,-0.14,1.376,0.161
48.08,-0.147,0.877,0.037
48.09,-0.237,1.051,-0.112
48.1,-0.427,0.297,-0.091
48.11,-0.151,1.38,0.203
48.12,-0.171,0.872,-0.004
48.13,-0.23,0.828,-0.117
48.14,-0.374,0.686,-0.148
48.15,-0.044,1.048,0.178
48.16,-0.276,1.274,-0.058
48.17,-0.135,0.341,-0.107
48.18,-0.457,1.121,-0.05
48.19,0.003,0.862,0.164
48.2,-0.296,1.328,0.009
48.21,-0.227,0.302,-0.163
48.22,-0.314,1.37,-0.002
48.23,-0.094,0.937,0.121
48.24,-0.265,1.043,0.024
48.25,-0.31,0.659,-0.195
48.26,-0.216,1.133,0.022
48.27,-0.135,1.238,0.126
48.28,-0.186,0.674,0.106
48.29,-0.452,0.981,-0.213
48.3,-0.207,1.268,0.088
48.31,-0.173,1.076,0.167
48.32,-0.129,0.852,0.048
48.33,-0.49,0.615,-0.175
48.34,-0.252,1.93,0.089
48.35,-0.147,0.685,0.159
48.36,-0.11,1.083,0.025
48.37,-0.44,0.375,-0.184
48.38,-0.219,1.974,0.085
48.39,-0.19,0.691,0.136
48.4,-0.036,0.83,0.004
48.41,-0.574,0.629,-0.211
48.42,-0.085,1.697,0.154
48.43,-0.28,0.981,0.103
48.44,0.094,0.481,0.025
48.45,-0.529,0.996,-0.198
48.46,0.023,1.481,0.173
48.47,-0.198,1.185,0.104
48.48,0.062,0.481,-0.013
