t,ax,ay,az
0.0,-0.245,0.931,0.062
0.01,-0.211,0.969,-0.063
0.02,-0.384,0.437,-0.057
0.03,-0.026,1.175,0.214
0.04,-0.254,1.114,0.019
0.05,-0.218,0.6,-0.107
0.06,-0.335,1.025,-0.064
0.07,0.061,0.795,0.145
0.08,-0.294,1.383,-0.068
0.09,-0.182,0.325,-0.126
0.1,-0.365,1.109,-0.027
0.11,0.026,0.847,0.136
0.12,-0.263,1.051,-0.022
0.13,-0.209,0.721,-0.12
0.14,-0.258,1.369,-0.051
0.15,-0.128,1.067,0.12
0.16,-0.157,0.587,0.036
0.17,-0.418,0.966,-0.196
0.18,-0.286,1.409,0.112
0.19,-0.213,0.978,0.186
0.2,-0.195,0.745,0.06
0.21,-0.42,0.508,-0.136
0.22,-0.384,1.887,0.106
0.23,-0.046,0.491,0.065
0.24,-0.208,1.07,-0.007
0.25,-0.287,0.227,-0.256
0.26,-0.175,2.0,0.024
0.27,0.041,0.741,0.073
0.28,-0.055,0.727,-0.021
0.29,-0.453,0.568,-0.243
0.3,-0.043,1.665,0.064
0.31,-0.246,1.031,0.036
0.32,0.027,0.529,-0.018
0.33,-0.571,0.877,-0.165
0.34,0.066,1.548,0.252
0.35,-0.275,1.25,0.097
0.36,0.115,0.411,-0.004
0.37,-0.49,0.796,-0.153
0.38,-0.049,1.602,0.121
0.39,-0.212,1.019,0.063
0.4,-0.08,0.89,-0.104
0.41,-0.272,0.317,-0.158
0.42,-0.173,1.956,0.103
0.43,-0.12,0.731,0.09
0.44,-0.128,1.068,-0.083
0.45,-0.389,0.354,-0.1
0.46,-0.157,1.625,0.163
0.47,-0.302,1.186,0.095
0.48,-0.067,0.518,-0.098
0.49,-0.468,0.866,-0.088
0.5,-0.035,0.951,0.18
0.51,-0.327,1.389,-0.003
0.52,-0.109,0.501,-0.135
0.53,-0.409,0.859,-0.059
0.54,-0.02,1.02,0.202
0.55,-0.286,1.191,0.018
0.56,-0.296,0.815,-0.115
0.57,-0.278,0.434,-0.027
0.58,-0.079,1.291,0.218
0.59,-0.175,0.919,0.002
0.6,-0.363,0.924,-0.132
0.61,-0.107,1.173,-0.096
0.62,-0.114,0.999,0.108
0.63,-0.177,0.883,-0.018
0.64,-0.339,0.573,-0.216
0.65,-0.3,1.763,-0.019
0.66,-0.099,0.574,0.126
0.67,-0.258,1.169,-0.017
0.68,-0.283,0.261,-0.223
0.69,-0.407,1.885,0.075
0.7,-0.143,0.581,0.141
0.71,-0.168,0.887,0.021
0.72,-0.364,0.632,-0.23
0.73,-0.12,1.553,0.071
0.74,-0.038,1.18,0.152
0.75,0.037,0.358,-0.002
0.76,-0.452,0.888,-0.228
0.77,-0.019,1.563,0.069
0.78,-0.182,1.008,0.084
0.79,-0.004,0.656,-0.018
0.8,-0.561,0.477,-0.165
0.81,-0.037,1.941,0.172
0.82,-0.228,0.611,0.094
0.83,-0.114,0.908,0.015
0.84,-0.425,0.229,-0.141
0.85,-0.163,1.947,0.112
0.86,-0.064,0.745,0.073
0.87,0.031,0.798,-0.064
0.88,-0.472,0.63,-0.137
0.89,-0.007,0.649,-0.089
0.9,-0.494,0.501,-0.111
0.91,-0.052,1.397,0.175
0.92,-0.146,0.912,-0.061
0.93,-0.228,1.06,-0.093
0.94,-0.37,0.272,-0.013
0.95,-0.084,1.381,0.21
0.96,-0.185,0.82,0.006
0.97,-0.282,0.862,-0.104
0.98,-0.306,0.61,-0.072
0.99,-0.054,0.98,0.202
1.0,-0.287,1.42,0.001
1.01,-0.163,0.306,-0.094
1.02,-0.266,1.494,-0.078
1.03,0.021,0.722,0.189
1.04,-0.283,1.218,-0.025
1.05,-0.265,0.552,-0.156
1.06,-0.292,1.886,-0.002
1.07,-0.109,0.717,0.102
1.08,-0.156,0.799,-0.001
1.09,-0.425,0.721,-0.24
1.1,-0.219,1.511,0.061
1.11,-0.205,0.982,0.091
1.12,-0.086,0.483,0.019
1.13,-0.49,0.88,-0.199
1.14,-0.101,1.577,0.071
1.15,-0.149,0.93,0.126
1.16,-0.096,0.648,-0.011
1.17,-0.471,0.473,-0.156
1.18,-0.07,1.93,0.131
1.19,-0.018,0.682,0.198
1.2,-0.139,0.959,-0.046
1.21,-0.51,0.217,-0.177
1.22,-0.139,2.0,0.135
1.23,-0.121,0.745,0.114
1.24,-0.032,0.734,-0.017
1.25,-0.541,0.659,-0.17
1.26,-0.059,1.636,0.235
1.27,-0.151,1.15,0.059
1.28,0.076,0.363,-0.031
1.29,-0.555,0.96,-0.151
1.3,-0.081,1.345,0.153
1.31,-0.253,1.173,0.075
1.32,0.028,0.682,-0.113
1.33,-0.411,0.551,-0.185
1.34,-0.059,1.654,0.112
1.35,-0.098,0.834,0.023
1.36,-0.132,1.044,-0.128
1.37,-0.353,0.219,-0.127
1.38,-0.195,1.67,0.18
1.39,-0.175,0.958,0.045
1.4,-0.135,0.793,-0.118
1.41,-0.397,0.599,-0.144
1.42,-0.041,1.114,0.193
1.43,-0.306,1.402,-0.011
1.44,-0.09,0.475,-0.099
1.45,-0.445,0.952,-0.062
1.46,-0.068,0.956,0.258
1.47,-0.282,1.374,0.041
1.48,-0.143,0.575,-0.102
1.49,-0.35,0.648,-0.074
1.5,-0.029,1.176,0.136
1.51,-0.175,0.955,-0.014
1.52,-0.298,0.944,-0.094
1.53,-0.278,0.938,-0.009
1.54,-0.119,1.163,0.183
1.55,-0.145,0.71,0.012
1.56,-0.354,0.893,-0.162
1.57,-0.243,1.45,-0.056
1.58,-0.1,0.707,0.139
1.59,-0.204,1.149,0.017
1.6,-0.263,0.334,-0.218
1.61,-0.438,1.949,0.083
1.62,-0.065,0.57,0.171
1.63,-0.262,1.037,0.068
1.64,-0.271,0.426,-0.23
1.65,-0.208,1.737,0.054
1.66,-0.029,1.028,0.156
1.67,-0.132,0.443,0.031
1.68,-0.471,0.854,-0.195
1.69,-0.288,1.524,0.107
1.7,-0.292,0.962,0.115
1.71,-0.026,0.572,0.04
1.72,-0.509,0.797,-0.233
1.73,-0.037,1.773,0.059
1.74,-0.067,0.751,0.119
1.75,-0.055,0.847,-0.027
1.76,-0.434,0.275,-0.187
1.77,-0.135,2.0,0.083
1.78,-0.032,0.661,0.116
1.79,-0.119,0.927,-0.032
1.8,-0.478,0.351,-0.22
1.81,-0.067,1.883,0.151
1.82,-0.21,0.861,0.103
1.83,0.021,0.488,-0.014
1.84,-0.605,0.907,-0.18
1.85,-0.032,1.482,0.171
1.86,-0.286,1.338,0.057
1.87,0.042,0.442,-0.046
1.88,-0.507,0.937,-0.132
1.89,-0.124,1.202,0.207
1.9,-0.29,1.223,0.061
1.91,-0.115,0.721,-0.126
1.92,-0.412,0.469,-0.078
1.93,-0.252,1.42,0.22
1.94,-0.174,0.95,0.062
1.95,-0.247,1.007,-0.056
1.96,-0.364,0.264,-0.045
1.97,-0.197,1.447,0.248
1.98,-0.222,0.904,0.066
1.99,-0.24,0.84,-0.122
2.0,-0.33,0.729,-0.057
2.01,-0.071,0.898,0.161
2.02,-0.284,1.339,0.028
2.03,-0.133,0.34,-0.102
2.04,-0.429,1.156,-0.019
2.05,0.074,0.828,0.153
2.06,-0.252,1.275,0.006
2.07,-0.26,0.535,-0.142
2.08,-0.285,0.929,-0.086
2.09,-0.111,1.067,0.159
2.1,-0.125,0.793,0.003
2.11,-0.39,0.934,-0.129
2.12,-0.082,1.189,-0.038
2.13,-0.202,1.077,0.191
2.14,-0.089,0.687,-0.045
2.15,-0.467,0.777,-0.167
2.16,-0.209,1.594,-0.032
2.17,-0.109,0.753,0.088
2.18,-0.306,1.089,0.012
2.19,-0.292,0.347,-0.213
2.2,-0.391,1.892,0.114
2.21,-0.135,0.5,0.16
2.22,-0.233,1.057,0.033
2.23,-0.353,0.389,-0.193
2.24,-0.254,1.752,0.084
2.25,-0.104,0.932,0.133
2.26,-0.07,0.487,-0.034
2.27,-0.561,0.867,-0.182
2.28,-0.08,1.538,0.109
2.29,-0.274,1.005,0.111
2.3,0.073,0.507,-0.028
2.31,-0.504,0.754,-0.253
2.32,0.035,1.71,0.104
2.33,-0.16,0.81,0.133
2.34,-0.071,0.855,0.002
2.35,-0.509,0.273,-0.104
2.36,-0.148,2.0,0.138
2.37,0.003,0.629,0.083
2.38,-0.046,1.001,-0.077
2.39,-0.317,0.368,-0.228
2.4,0.03,1.818,0.102
2.41,-0.159,1.031,0.044
2.42,0.029,0.59,-0.078
2.43,-0.381,0.889,-0.251
2.44,0.045,1.489,0.078
2.45,-0.258,1.312,0.015
2.46,0.012,0.489,-0.067
2.47,-0.454,0.767,-0.155
2.48,-0.087,1.399,0.175
2.49,-0.267,1.096,0.102
2.5,-0.092,0.92,-0.118
2.51,-0.423,0.281,-0.072
2.52,-0.232,1.557,0.202
2.53,-0.152,0.83,0.029
2.54,-0.222,1.046,-0.077
2.55,-0.323,0.372,-0.128
2.56,-0.104,1.247,0.203
2.57,-0.228,1.214,-0.038
2.58,-0.109,0.577,-0.13
2.59,-0.337,1.151,-0.047
2.6,-0.006,0.742,0.242
2.61,-0.265,1.327,-0.014
2.62,-0.215,0.462,-0.14
2.63,-0.269,1.394,-0.047
2.64,-0.052,0.846,0.186
2.65,-0.225,0.886,-0.038
2.66,-0.373,0.808,-0.142
2.67,-0.319,1.611,0.004
2.68,-0.1,0.949,0.146
2.69,-0.097,0.586,0.027
2.7,-0.408,0.923,-0.22
2.71,-0.164,1.379,0.048
2.72,-0.193,1.052,0.111
2.73,-0.014,0.538,0.009
2.74,-0.445,0.692,-0.226
2.75,-0.12,1.781,0.071
2.76,-0.078,0.683,0.09
2.77,-0.075,0.941,0.005
2.78,-0.479,0.229,-0.228
2.79,-0.163,2.0,0.137
2.8,-0.137,0.613,0.105
2.81,-0.115,0.891,0.01
2.82,-0.519,0.409,-0.176
2.83,-0.127,1.811,0.132
2.84,-0.106,1.0,0.14
2.85,0.063,0.558,-0.034
2.86,-0.541,0.846,-0.179
2.87,0.088,1.547,0.173
2.88,-0.222,1.233,0.046
2.89,0.045,0.515,-0.022
2.9,-0.507,0.8,-0.185
2.91,-0.026,1.729,0.178
2.92,-0.052,0.862,0.042
2.93,-0.07,0.845,-0.131
2.94,-0.258,0.242,-0.198
2.95,-0.262,1.77,0.076
2.96,-0.154,0.78,0.075
2.97,-0.208,1.0,-0.079
2.98,-0.298,0.386,-0.095
2.99,-0.19,1.489,0.196
3.0,-0.188,1.127,0.08
3.01,-0.085,0.688,-0.138
3.02,-0.477,0.874,-0.08
3.03,-0.103,1.115,0.249
3.04,-0.424,1.512,0.069
3.05,-0.027,0.435,-0.064
3.06,-0.482,0.907,-0.023
3.07,-0.017,1.03,0.151
3.08,-0.257,1.044,-0.02
3.09,-0.235,0.933,-0.154
3.1,-0.184,0.794,-0.063
3.11,-0.096,1.237,0.157
3.12,-0.104,0.635,-0.005
3.13,-0.369,0.992,-0.157
3.14,-0.297,0.759,-0.05
3.15,-0.064,1.017,0.157
3.16,-0.308,1.071,-0.03
3.17,-0.19,0.505,-0.156
3.18,-0.316,1.875,-0.033
3.19,0.01,0.554,0.122
3.2,-0.275,1.173,-0.006
3.21,-0.278,0.356,-0.191
3.22,-0.383,1.901,0.045
3.23,-0.057,0.793,0.12
3.24,-0.194,0.75,0.036
3.25,-0.533,0.788,-0.237
3.26,-0.169,1.531,0.093
3.27,-0.262,0.984,0.106
3.28,0.008,0.507,0.039
3.29,-0.542,0.852,-0.188
3.3,0.027,1.551,0.024
3.31,-0.1,0.999,0.102
3.32,0.025,0.692,0.02
3.33,-0.463,0.401,-0.185
3.34,-0.022,1.971,0.118
3.35,0.019,0.637,0.08
3.36,-0.008,0.986,-0.015
3.37,-0.496,0.257,-0.175
3.38,-0.098,2.0,0.172
3.39,-0.137,0.735,0.063
3.4,-0.08,0.646,-0.103
3.41,-0.387,0.7,-0.149
3.42,-0.025,1.551,0.155
3.43,-0.18,1.241,0.071
3.44,0.126,0.362,-0.075
3.45,-0.494,0.929,-0.155
3.46,-0.056,1.317,0.131
3.47,-0.347,1.362,0.056
3.48,-0.099,0.535,-0.074
3.49,-0.389,0.713,-0.056
3.5,-0.146,1.231,0.193
3.51,-0.191,1.035,0.015
3.52,-0.191,0.982,-0.102
3.53,-0.281,0.265,-0.084
3.54,-0.148,1.403,0.191
3.55,-0.177,0.849,0.005
3.56,-0.296,0.945,-0.082
3.57,-0.309,0.886,-0.031
3.58,-0.076,0.982,0.173
3.59,-0.24,1.032,-0.015
3.6,-0.319,0.568,-0.147
3.61,-0.284,1.413,-0.035
3.62,0.051,0.687,0.154
3.63,-0.278,1.27,-0.011
3.64,-0.29,0.399,-0.127
3.65,-0.301,1.709,-0.003
3.66,-0.138,0.83,0.152
3.67,-0.155,0.808,0.028
3.68,-0.342,0.852,-0.177
3.69,-0.2,1.449,0.036
3.7,-0.119,1.115,0.182
3.71,-0.061,0.492,0.052
3.72,-0.59,0.926,-0.198
3.73,-0.238,1.587,0.1
3.74,-0.243,0.755,0.147
3.75,-0.096,0.87,0.009
3.76,-0.392,0.459,-0.22
3.77,-0.19,2.0,0.076
3.78,-0.081,0.519,0.087
3.79,-0.188,0.987,-0.0
3.8,-0.375,0.224,-0.234
3.81,-0.109,1.984,0.078
3.82,-0.06,0.773,0.127
3.83,-0.032,0.601,-0.043
3.84,-0.599,0.733,-0.182
3.85,-0.011,1.599,0.153
3.86,-0.213,1.183,0.108
3.87,0.123,0.412,-0.036
3.88,-0.572,0.914,-0.184
3.89,0.04,1.59,0.171
3.9,-0.149,1.036,0.082
3.91,0.069,0.76,-0.051
3.92,-0.44,0.457,-0.164
3.93,-0.058,1.9,0.152
3.94,-0.1,0.728,0.083
3.95,-0.124,1.046,-0.032
3.96,-0.344,0.276,-0.166
3.97,-0.151,1.792,0.116
3.98,-0.123,0.926,0.028
3.99,-0.068,0.759,-0.092
4.0,-0.4,0.675,-0.18
4.01,-0.083,1.24,0.15
4.02,-0.351,1.43,0.072
4.03,-0.014,0.428,-0.083
4.04,-0.506,0.902,-0.129
4.05,-0.056,1.002,0.2
4.06,-0.284,1.279,-0.005
4.07,-0.117,0.755,-0.117
4.08,-0.335,0.445,-0.099
4.09,-0.113,1.335,0.178
4.1,-0.157,0.799,-0.024
4.11,-0.312,1.086,-0.109
4.12,-0.312,0.278,-0.033
4.13,-0.088,1.259,0.167
4.14,-0.208,1.009,0.01
4.15,-0.245,0.72,-0.122
4.16,-0.322,0.981,-0.053
4.17,0.004,0.818,0.175
4.18,-0.302,1.333,-0.044
4.19,-0.162,0.34,-0.156
4.2,-0.333,1.59,-0.095
4.21,0.024,0.738,0.15
4.22,-0.245,1.128,-0.048
4.23,-0.325,0.616,-0.195
4.24,-0.244,1.491,0.009
4.25,-0.125,1.006,0.121
4.26,-0.085,0.628,-0.044
4.27,-0.416,0.83,-0.209
4.28,-0.09,1.525,0.061
4.29,-0.151,1.055,0.129
4.3,-0.026,0.462,0.022
4.31,-0.55,0.885,-0.217
4.32,-0.055,1.628,0.091
4.33,-0.142,0.856,0.109
4.34,-0.052,0.777,-0.017
4.35,-0.45,0.381,-0.194
4.36,-0.088,2.0,0.117
4.37,0.006,0.62,0.09
4.38,-0.135,0.908,-0.039
4.39,-0.432,0.239,-0.185
4.4,-0.106,1.945,0.15
4.41,-0.085,0.802,0.072
4.42,0.032,0.699,-0.081
4.43,-0.494,0.778,-0.193
4.44,0.037,1.551,0.171
4.45,-0.218,1.263,0.055
4.46,0.085,0.474,-0.028
4.47,-0.438,0.953,-0.186
4.48,0.052,1.526,0.127
4.49,-0.21,1.112,0.041
4.5,0.03,0.849,-0.076
4.51,-0.41,0.383,-0.14
4.52,-0.133,1.817,0.133
4.53,-0.104,0.786,0.054
4.54,-0.195,1.032,-0.12
4.55,-0.294,0.255,-0.12
4.56,-0.261,1.498,0.161
4.57,-0.215,1.094,0.008
4.58,-0.142,0.686,-0.084
4.59,-0.324,0.717,-0.048
4.6,-0.041,0.993,0.259
4.61,-0.284,1.404,0.026
4.62,-0.142,0.52,-0.115
4.63,-0.335,1.015,-0.061
4.64,0.03,0.881,0.199
4.65,-0.227,1.186,0.01
4.66,-0.222,0.679,-0.133
4.67,-0.274,0.813,-0.031
4.68,-0.081,1.182,0.173
4.69,-0.179,0.694,0.012
4.7,-0.343,0.949,-0.122
4.71,-0.254,1.028,-0.054
4.72,-0.158,1.022,0.165
4.73,-0.229,0.852,0.001
4.74,-0.281,0.673,-0.125
4.75,-0.354,1.759,0.004
4.76,-0.031,0.635,0.216
4.77,-0.329,1.126,0.022
4.78,-0.323,0.314,-0.196
4.79,-0.384,1.976,0.065
4.8,-0.114,0.593,0.155
4.81,-0.158,0.941,0.017
4.82,-0.473,0.497,-0.24
4.83,-0.085,1.729,0.021
4.84,-0.17,0.961,0.076
4.85,-0.028,0.425,-0.014
4.86,-0.529,0.931,-0.186
4.87,-0.011,1.518,0.076
4.88,-0.079,1.093,0.177
4.89,0.027,0.52,-0.037
4.9,-0.533,0.628,-0.175
4.91,-0.08,1.829,0.123
4.92,-0.042,0.69,0.099
4.93,-0.094,0.994,-0.027
4.94,-0.414,0.226,-0.141
4.95,-0.206,2.0,0.232
4.96,-0.067,0.683,0.153
4.97,-0.109,0.874,-0.04
4.98,-0.292,0.522,-0.218
4.99,-0.135,1.564,0.071
5.0,-0.162,1.185,0.036
5.01,0.061,0.546,-0.095
5.02,-0.464,0.93,-0.137
5.03,-0.032,1.24,0.161
5.04,-0.332,1.295,0.051
5.05,-0.022,0.652,-0.066
5.06,-0.509,0.648,-0.061
5.07,-0.172,1.443,0.196
5.08,-0.327,1.28,0.015
5.09,-0.171,0.733,-0.085
5.1,-0.361,0.529,0.024
5.11,-0.092,1.243,0.176
5.12,-0.154,0.772,0.032
5.13,-0.321,1.021,-0.142
5.14,-0.202,0.803,-0.021
5.15,-0.034,1.106,0.157
5.16,-0.183,0.93,0.012
5.17,-0.329,0.651,-0.14
5.18,-0.34,1.157,-0.012
5.19,-0.018,0.753,0.118
5.2,-0.279,1.348,-0.049
5.21,-0.157,0.287,-0.208
5.22,-0.301,1.872,0.026
5.23,0.051,0.663,0.118
5.24,-0.217,0.912,-0.023
5.25,-0.409,0.678,-0.231
5.26,-0.179,1.547,0.064
5.27,-0.139,1.041,0.148
5.28,0.05,0.502,0.027
5.29,-0.552,0.941,-0.249
5.3,-0.073,1.522,0.084
5.31,-0.249,0.974,0.084
5.32,-0.031,0.624,0.035
5.33,-0.549,0.558,-0.218
5.34,0.011,1.881,0.069
5.35,-0.012,0.715,0.074
5.36,-0.013,0.941,-0.038
5.37,-0.441,0.215,-0.182
5.38,-0.159,2.0,0.152
5.39,-0.093,0.662,0.106
5.4,-0.052,0.867,-0.048
5.41,-0.433,0.596,-0.213
5.42,-0.067,1.623,0.196
5.43,-0.214,1.158,0.033
5.44,0.059,0.407,-0.057
5.45,-0.474,0.937,-0.185
5.46,-0.095,1.412,0.124
5.47,-0.213,1.287,0.04
5.48,-0.059,0.651,-0.06
5.49,-0.356,0.562,-0.091
5.5,-0.195,1.621,0.143
5.51,-0.028,0.902,0.044
5.52,-0.211,1.115,-0.134
5.53,-0.286,0.211,-0.085
5.54,-0.259,1.666,0.217
5.55,-0.161,0.932,0.044
5.56,-0.195,0.872,-0.088
5.57,-0.32,0.636,-0.055
5.58,-0.121,1.049,0.204
5.59,-0.284,1.279,-0.031
5.6,-0.096,0.43,-0.119
5.61,-0.31,1.216,-0.056
5.62,0.029,0.722,0.14
5.63,-0.299,1.26,-0.044
5.64,-0.242,0.512,-0.165
5.65,-0.38,0.792,-0.026
5.66,-0.063,1.083,0.131
5.67,-0.148,0.873,-0.011
5.68,-0.275,0.893,-0.163
5.69,-0.182,1.259,0.002
5.7,-0.172,1.065,0.17
5.71,-0.191,0.649,0.057
5.72,-0.427,0.807,-0.132
5.73,-0.226,1.676,0.032
5.74,-0.121,0.797,0.146
5.75,-0.151,0.892,-0.001
5.76,-0.422,0.326,-0.211
5.77,-0.325,2.0,0.068
5.78,-0.158,0.418,0.07
5.79,-0.168,1.112,0.017
5.8,-0.432,0.279,-0.201
5.81,0.003,1.881,0.063
5.82,-0.036,0.931,0.088
5.83,0.057,0.446,-0.081
5.84,-0.514,0.762,-0.178
5.85,0.062,1.589,0.087
5.86,-0.226,1.171,0.09
5.87,0.084,0.472,-0.052
5.88,-0.526,0.956,-0.211
5.89,0.055,1.488,0.204
5.9,-0.22,1.189,0.026
5.91,-0.023,0.599,-0.037
5.92,-0.33,0.562,-0.146
5.93,-0.228,1.573,0.136
5.94,-0.165,0.833,0.016
5.95,-0.222,1.072,-0.125
5.96,-0.268,0.199,-0.067
5.97,-0.148,1.508,0.222
5.98,-0.165,0.885,0.0
5.99,-0.262,0.905,-0.111
6.0,-0.372,0.616,-0.095
6.01,-0.079,1.018,0.225
6.02,-0.297,1.324,0.01
6.03,-0.13,0.376,-0.133
6.04,-0.272,1.464,-0.094
6.05,0.056,0.727,0.159
6.06,-0.35,1.202,-0.018
6.07,-0.304,0.589,-0.135
6.08,-0.277,1.141,-0.034
6.09,-0.071,1.013,0.195
6.1,-0.135,0.739,0.04
6.11,-0.387,1.017,-0.176
6.12,-0.231,1.134,0.067
6.13,-0.243,1.055,0.182
6.14,-0.236,0.741,0.016
6.15,-0.333,0.697,-0.117
6.16,-0.196,1.672,0.078
6.17,-0.012,0.734,0.131
6.18,-0.085,0.936,-0.04
6.19,-0.385,0.327,-0.208
6.2,-0.209,2.0,0.044
6.21,-0.024,0.597,0.089
6.22,-0.152,0.983,-0.032
6.23,-0.494,0.353,-0.201
6.24,-0.081,1.865,0.101
6.25,-0.239,0.884,0.091
6.26,0.009,0.421,-0.072
6.27,-0.526,0.86,-0.194
6.28,0.021,1.548,0.155
6.29,-0.151,1.182,0.088
6.3,0.036,0.443,0.012
6.31,-0.526,0.799,-0.134
6.32,-0.028,1.692,0.126
6.33,-0.128,0.857,0.074
6.34,-0.048,0.991,-0.066
6.35,-0.347,0.285,-0.195
6.36,-0.165,1.897,0.134
6.37,-0.099,0.769,0.076
6.38,-0.177,0.934,-0.06
6.39,-0.414,0.353,-0.113
6.4,-0.113,1.437,0.148
6.41,-0.314,1.14,0.018
6.42,-0.042,0.628,-0.129
6.43,-0.477,0.845,-0.073
6.44,-0.06,1.011,0.264
6.45,-0.354,1.491,0.038
6.46,-0.082,0.465,-0.104
6.47,-0.411,0.8,-0.042
6.48,-0.033,1.071,0.229
6.49,-0.262,1.157,0.05
6.5,-0.202,0.818,-0.084
6.51,-0.262,0.647,0.005
6.52,-0.049,1.243,0.165
6.53,-0.166,0.709,0.006
6.54,-0.35,0.99,-0.122
6.55,-0.217,0.826,-0.054
6.56,-0.096,0.965,0.145
6.57,-0.164,1.076,-0.05
6.58,-0.262,0.516,-0.225
6.59,-0.281,1.854,0.029
6.6,-0.082,0.547,0.15
6.61,-0.289,1.198,0.017
6.62,-0.304,0.346,-0.212
6.63,-0.311,1.906,0.066
6.64,-0.108,0.743,0.168
6.65,-0.076,0.756,0.06
6.66,-0.489,0.661,-0.252
6.67,-0.071,1.589,0.059
6.68,-0.261,0.913,0.063
6.69,0.014,0.423,-0.013
6.7,-0.556,0.905,-0.166
6.71,-0.051,1.492,0.181
6.72,-0.23,1.084,0.112
6.73,0.111,0.498,-0.049
6.74,-0.566,0.72,-0.157
6.75,0.041,1.743,0.091
6.76,-0.187,0.865,0.076
6.77,-0.042,0.953,-0.051
6.78,-0.304,0.267,-0.161
6.79,-0.134,1.981,0.169
6.8,-0.094,0.71,0.084
6.81,-0.137,0.999,-0.06
6.82,-0.384,0.379,-0.153
6.83,-0.127,1.545,0.154
6.84,-0.277,1.212,0.026
6.85,0.002,0.492,-0.097
6.86,-0.513,0.842,-0.091
6.87,-0.049,0.971,0.223
6.88,-0.35,1.426,0.007
6.89,-0.131,0.573,-0.067
6.9,-0.421,0.708,-0.01
6.91,-0.098,1.127,0.277
6.92,-0.261,1.059,0.069
6.93,-0.227,0.912,-0.138
6.94,-0.33,0.425,-0.026
6.95,-0.105,1.317,0.183
6.96,-0.217,0.784,0.008
6.97,-0.329,0.882,-0.106
6.98,-0.288,0.957,-0.044
6.99,-0.021,0.975,0.155
7.0,-0.31,1.082,-0.007
7.01,-0.206,0.475,-0.187
7.02,-0.292,1.625,0.003
7.03,0.022,0.624,0.163
7.04,-0.239,1.255,-0.009
7.05,-0.231,0.4,-0.196
7.06,-0.344,1.741,0.079
7.07,-0.109,0.756,0.171
7.08,-0.122,0.733,0.004
7.09,-0.405,0.765,-0.248
7.1,0.026,1.52,0.024
7.11,-0.085,1.161,0.099
7.12,0.011,0.363,-0.016
7.13,-0.533,0.851,-0.251
7.14,-0.042,1.639,0.085
7.15,-0.135,0.925,0.114
7.16,-0.062,0.717,-0.036
7.17,-0.439,0.399,-0.201
7.18,-0.144,1.985,0.159
7.19,-0.062,0.608,0.097
7.2,-0.079,0.967,-0.032
7.21,-0.411,0.241,-0.179
7.22,-0.124,1.941,0.119
7.23,-0.075,0.865,0.073
7.24,-0.083,0.717,-0.048
7.25,-0.385,0.718,-0.184
7.26,-0.064,1.534,0.225
7.27,-0.194,1.251,0.086
7.28,-0.005,0.469,-0.023
7.29,-0.466,0.913,-0.174
7.3,-0.059,1.416,0.135
7.31,-0.268,1.231,0.048
7.32,-0.056,0.769,-0.087
7.33,-0.311,0.401,-0.101
7.34,-0.188,1.536,0.142
7.35,-0.115,0.87,0.003
7.36,-0.239,1.078,-0.127
7.37,-0.38,0.217,-0.1
7.38,-0.145,1.395,0.204
7.39,-0.255,0.963,0.009
7.4,-0.203,0.758,-0.104
7.41,-0.393,0.83,-0.053
7.42,0.032,0.828,0.193
7.43,-0.36,1.42,-0.006
7.44,-0.133,0.314,-0.114
7.45,-0.259,1.398,-0.06
7.46,0.066,0.76,0.107
7.47,-0.302,1.097,-0.052
7.48,-0.299,0.669,-0.131
7.49,-0.359,1.775,0.079
7.5,-0.035,0.833,0.171
7.51,-0.201,0.661,0.012
7.52,-0.432,0.799,-0.222
7.53,-0.238,1.447,0.06
7.54,-0.221,1.009,0.104
7.55,-0.069,0.522,0.016
7.56,-0.478,0.823,-0.221
7.57,-0.039,1.679,0.014
7.58,-0.096,0.817,0.099
7.59,-0.021,0.782,-0.001
7.6,-0.497,0.346,-0.191
7.61,-0.127,1.968,0.15
7.62,-0.026,0.619,0.121
7.63,-0.127,0.99,-0.007
7.64,-0.41,0.279,-0.174
7.65,-0.129,1.915,0.169
7.66,-0.124,0.84,0.085
7.67,-0.023,0.62,-0.048
7.68,-0.445,0.808,-0.194
7.69,-0.03,1.513,0.147
7.7,-0.187,1.262,0.051
7.71,0.081,0.51,0.006
7.72,-0.408,0.848,-0.171
7.73,-0.097,1.414,0.134
7.74,-0.18,1.177,0.06
7.75,-0.089,0.851,-0.12
7.76,-0.343,0.381,-0.114
7.77,-0.211,1.673,0.136
7.78,-0.023,0.856,0.017
7.79,-0.177,1.06,-0.115
7.8,-0.322,0.298,-0.096
7.81,-0.182,1.448,0.202
7.82,-0.287,1.099,-0.015
7.83,-0.148,0.675,-0.089
7.84,-0.39,0.851,-0.032
7.85,0.041,0.844,0.172
7.86,-0.366,1.36,0.005
7.87,-0.171,0.414,-0.138
7.88,-0.317,1.192,-0.031
7.89,-0.033,0.828,0.179
7.9,-0.239,1.065,-0.043
7.91,-0.303,0.726,-0.159
7.92,-0.176,1.104,-0.058
7.93,-0.12,1.088,0.162
7.94,-0.132,0.648,-0.017
7.95,-0.499,0.978,-0.165
7.96,-0.173,1.269,0.012
7.97,-0.151,1.029,0.17
7.98,-0.24,0.775,0.02
7.99,-0.419,0.675,-0.172
8.0,-0.287,1.79,0.058
8.01,-0.118,0.593,0.139
8.02,-0.247,1.088,0.042
8.03,-0.405,0.216,-0.206
8.04,-0.292,2.0,0.093
8.05,-0.111,0.623,0.084
8.06,-0.163,0.847,0.05
8.07,-0.503,0.597,-0.229
8.08,-0.118,1.693,0.09
8.09,-0.094,1.046,0.135
8.1,-0.026,0.403,-0.009
8.11,-0.576,0.926,-0.184
8.12,-0.007,1.51,0.08
8.13,-0.162,1.062,0.101
8.14,0.049,0.603,-0.025
8.15,-0.532,0.612,-0.203
8.16,-0.037,1.838,0.135
8.17,-0.095,0.734,0.103
8.18,-0.073,0.93,0.001
8.19,-0.409,0.269,-0.149
8.2,-0.152,1.979,0.153
8.21,-0.098,0.654,0.071
8.22,-0.046,0.913,-0.048
8.23,-0.374,0.539,-0.19
8.24,-0.188,1.56,0.161
8.25,-0.26,1.227,0.04
8.26,-0.015,0.452,-0.017
8.27,-0.429,0.922,-0.189
8.28,-0.157,1.206,0.217
8.29,-0.384,1.392,0.059
8.3,-0.141,0.481,-0.069
8.31,-0.333,0.844,-0.083
8.32,-0.109,1.036,0.193
8.33,-0.24,1.238,-0.015
8.34,-0.265,0.782,-0.104
8.35,-0.317,0.38,-0.05
8.36,-0.114,1.428,0.236
8.37,-0.118,0.858,-0.018
8.38,-0.307,0.987,-0.151
8.39,-0.15,0.822,-0.073
8.4,-0.111,1.134,0.126
8.41,-0.193,0.899,-0.057
8.42,-0.281,0.625,-0.105
8.43,-0.285,1.582,-0.113
8.44,0.016,0.704,0.162
8.45,-0.258,1.172,-0.046
8.46,-0.314,0.356,-0.225
8.47,-0.319,1.514,0.004
8.48,-0.098,0.731,0.168
8.49,-0.271,1.044,-0.004
8.5,-0.305,0.657,-0.18
8.51,-0.259,1.479,0.042
8.52,-0.119,1.029,0.193
8.53,-0.081,0.472,0.02
8.54,-0.523,0.948,-0.17
8.55,-0.071,1.434,0.059
8.56,-0.149,1.07,0.17
8.57,-0.008,0.619,-0.002
8.58,-0.608,0.576,-0.186
8.59,-0.203,1.907,0.175
8.6,-0.257,0.551,0.082
8.61,-0.188,0.982,0.05
8.62,-0.463,0.187,-0.198
8.63,-0.095,2.0,0.089
8.64,-0.003,0.681,0.114
8.65,-0.096,0.743,-0.032
8.66,-0.445,0.498,-0.232
8.67,-0.059,1.709,0.109
8.68,-0.088,1.113,0.08
8.69,0.068,0.503,0.005
8.7,-0.546,0.931,-0.183
8.71,-0.038,1.558,0.222
8.72,-0.224,1.125,0.074
8.73,0.003,0.631,-0.04
8.74,-0.449,0.637,-0.161
8.75,-0.087,1.76,0.075
8.76,-0.036,0.814,0.028
8.77,-0.056,1.029,-0.058
8.78,-0.289,0.216,-0.148
8.79,-0.285,1.733,0.196
8.8,-0.13,0.83,0.073
8.81,-0.185,0.942,-0.079
8.82,-0.37,0.528,-0.098
8.83,-0.121,1.425,0.169
8.84,-0.312,1.316,0.016
8.85,0.091,0.482,-0.083
8.86,-0.531,0.928,-0.103
8.87,0.053,0.925,0.149
8.88,-0.358,1.406,-0.026
8.89,-0.127,0.662,-0.082
8.9,-0.357,0.669,-0.028
8.91,-0.108,1.167,0.204
8.92,-0.19,0.857,0.012
8.93,-0.302,1.009,-0.121
8.94,-0.259,0.365,-0.003
8.95,-0.105,1.336,0.162
8.96,-0.153,0.78,-0.131
8.97,-0.268,0.814,-0.104
8.98,-0.258,1.296,-0.052
8.99,-0.005,0.86,0.159
9.0,-0.318,1.107,-0.067
9.01,-0.214,0.398,-0.214
9.02,-0.295,1.535,-0.004
9.03,-0.003,0.616,0.108
9.04,-0.229,1.278,0.014
9.05,-0.262,0.45,-0.266
9.06,-0.258,1.659,0.018
9.07,-0.124,0.825,0.14
9.08,-0.098,0.728,0.007
9.09,-0.446,0.531,-0.257
9.1,0.005,1.64,0.054
9.11,-0.062,1.151,0.129
9.12,0.003,0.332,-0.025
9.13,-0.54,0.92,-0.22
9.14,-0.016,1.523,0.082
9.15,-0.185,1.037,0.123
9.16,0.031,0.632,-0.035
9.17,-0.515,0.573,-0.186
9.18,-0.117,1.907,0.159
9.19,-0.102,0.676,0.107
9.2,-0.098,0.95,-0.012
9.21,-0.398,0.247,-0.133
9.22,-0.167,1.943,0.16
9.23,-0.325,1.33,0.028
9.24,-0.039,0.432,-0.08
9.25,-0.374,0.883,-0.037
9.26,-0.021,0.977,0.201
9.27,-0.277,1.183,-0.01
9.28,-0.305,0.881,-0.136
9.29,-0.219,0.573,-0.002
9.3,-0.122,1.263,0.188
9.31,-0.123,0.707,0.012
9.32,-0.429,1.016,-0.108
9.33,-0.192,0.796,0.015
9.34,-0.245,1.047,0.178
9.35,-0.224,0.937,-0.016
9.36,-0.265,0.548,-0.112
9.37,-0.248,1.776,-0.02
9.38,-0.055,0.591,0.148
9.39,-0.252,1.22,-0.026
9.4,-0.375,0.297,-0.193
9.41,-0.266,1.954,0.049
9.42,-0.133,0.652,0.136
9.43,-0.145,0.917,0.019
9.44,-0.453,0.631,-0.231
9.45,-0.121,1.536,0.078
9.46,-0.183,1.014,0.066
9.47,-0.035,0.45,-0.026
9.48,-0.488,0.861,-0.228
9.49,0.049,1.558,0.053
9.5,-0.119,1.091,0.059
9.51,0.048,0.559,-0.045
9.52,-0.463,0.513,-0.176
9.53,-0.048,1.962,0.066
9.54,-0.056,0.608,0.084
9.55,-0.098,1.021,-0.053
9.56,-0.379,0.187,-0.206
9.57,-0.102,2.0,0.172
9.58,-0.154,0.713,0.097
9.59,-0.064,0.798,-0.041
9.6,-0.39,0.584,-0.157
9.61,-0.031,1.634,0.096
9.62,-0.2,1.251,0.056
9.63,0.072,0.491,-0.092
9.64,-0.485,0.911,-0.153
9.65,0.005,1.318,0.142
9.66,-0.308,1.265,-0.038
9.67,0.015,0.684,-0.141
9.68,-0.499,0.537,-0.047
9.69,-0.225,1.491,0.239
9.7,-0.224,0.975,0.001
9.71,-0.195,1.016,-0.085
9.72,-0.248,0.238,-0.043
9.73,-0.188,1.406,0.189
9.74,-0.254,0.943,-0.003
9.75,-0.253,0.88,-0.117
9.76,-0.244,0.797,-0.058
9.77,0.005,0.894,0.151
9.78,-0.248,1.28,-0.018
9.79,-0.236,0.45,-0.141
9.8,-0.305,1.446,-0.031
9.81,-0.021,0.65,0.133
9.82,-0.242,1.232,0.018
9.83,-0.363,0.24,-0.19
9.84,-0.3,1.949,0.104
9.85,-0.095,0.674,0.141
9.86,-0.154,0.761,0.004
9.87,-0.499,0.632,-0.252
9.88,-0.054,1.583,0.034
9.89,-0.172,1.066,0.093
9.9,-0.04,0.352,-0.002
9.91,-0.524,0.923,-0.199
9.92,-0.031,1.6,0.074
9.93,-0.188,0.936,0.122
9.94,-0.018,0.66,-0.008
9.95,-0.537,0.45,-0.119
9.96,-0.079,1.916,0.158
9.97,-0.008,0.682,0.099
9.98,-0.154,0.984,-0.019
9.99,-0.306,0.198,-0.116
10.0,-0.237,1.921,0.131
10.01,0.028,0.874,0.07
10.02,-0.125,0.788,-0.077
10.03,-0.325,0.617,-0.154
10.04,-0.104,1.493,0.163
10.05,-0.252,1.302,0.037
10.06,0.01,0.488,-0.05
10.07,-0.513,0.895,-0.068
10.08,-0.055,1.058,0.245
10.09,-0.44,1.428,0.064
10.1,-0.132,0.623,-0.055
10.11,-0.356,0.562,-0.022
10.12,-0.154,1.265,0.205
10.13,-0.263,0.869,0.01
10.14,-0.249,1.003,-0.108
10.15,-0.408,0.317,-0.024
10.16,-0.032,1.264,0.168
10.17,-0.228,0.973,-0.021
10.18,-0.254,0.746,-0.161
10.19,-0.218,1.373,-0.053
10.2,-0.043,0.768,0.147
10.21,-0.224,1.257,-0.024
10.22,-0.26,0.322,-0.17
10.23,-0.301,1.961,0.035
10.24,-0.038,0.575,0.148
10.25,-0.154,1.019,-0.011
10.26,-0.39,0.389,-0.268
10.27,-0.186,1.824,0.059
10.28,-0.207,0.875,0.068
10.29,-0.013,0.516,-0.04
10.3,-0.531,0.885,-0.199
10.31,0.041,1.53,0.033
10.32,-0.135,1.084,0.085
10.33,0.077,0.48,-0.039
10.34,-0.497,0.722,-0.178
10.35,-0.011,1.75,0.098
10.36,-0.119,0.821,0.09
10.37,-0.024,0.899,-0.025
10.38,-0.337,0.251,-0.124
10.39,-0.077,2.0,0.167
10.4,0.01,0.614,0.053
10.41,-0.116,0.925,-0.071
10.42,-0.386,0.335,-0.207
10.43,-0.106,1.726,0.13
10.44,-0.176,1.131,0.045
10.45,-0.054,0.472,-0.075
10.46,-0.403,0.848,-0.105
10.47,-0.114,1.074,0.17
10.48,-0.321,1.359,0.037
10.49,-0.15,0.587,-0.103
10.5,-0.432,0.689,-0.059
10.51,-0.119,1.167,0.273
10.52,-0.224,1.073,0.052
10.53,-0.265,0.946,-0.142
10.54,-0.284,0.341,-0.025
10.55,-0.141,1.364,0.19
10.56,-0.207,0.911,0.012
10.57,-0.286,0.861,-0.096
10.58,-0.194,1.072,-0.055
10.59,-0.049,0.967,0.164
10.6,-0.233,1.007,-0.017
10.61,-0.326,0.521,-0.134
10.62,-0.218,1.695,0.044
10.63,-0.147,0.635,0.098
10.64,-0.176,1.147,-0.035
10.65,-0.337,0.284,-0.214
10.66,-0.236,2.0,0.1
10.67,-0.129,0.536,0.126
10.68,-0.197,0.885,0.006
10.69,-0.411,0.486,-0.188
10.7,-0.095,1.705,0.074
10.71,-0.02,1.022,0.125
10.72,0.013,0.408,-0.062
10.73,-0.586,0.873,-0.177
10.74,0.021,1.512,0.125
10.75,-0.198,1.156,0.102
10.76,0.049,0.529,-0.032
10.77,-0.458,0.737,-0.164
10.78,-0.024,1.729,0.139
10.79,-0.04,0.899,0.071
10.8,-0.025,0.931,-0.084
10.81,-0.341,0.222,-0.182
10.82,-0.198,1.802,0.155
10.83,-0.12,0.801,0.044
10.84,-0.149,0.974,-0.112
10.85,-0.339,0.392,-0.133
10.86,-0.168,1.386,0.223
10.87,-0.317,1.247,0.059
10.88,-0.105,0.561,-0.082
10.89,-0.504,0.874,-0.076
10.9,-0.055,0.979,0.318
10.91,-0.382,1.539,0.038
10.92,-0.137,0.45,-0.091
10.93,-0.336,0.895,-0.027
10.94,0.004,1.038,0.155
10.95,-0.209,0.956,-0.027
10.96,-0.287,0.924,-0.196
10.97,-0.126,0.948,-0.033
10.98,-0.128,1.169,0.164
10.99,-0.092,0.671,-0.001
11.0,-0.445,0.929,-0.189
11.01,-0.104,1.281,-0.039
11.02,-0.163,0.846,0.14
11.03,-0.177,1.046,0.009
11.04,-0.323,0.429,-0.198
11.05,-0.285,1.897,0.134
11.06,-0.089,0.511,0.147
11.07,-0.274,1.147,0.031
11.08,-0.288,0.25,-0.206
11.09,-0.231,1.958,0.06
11.1,-0.082,0.754,0.063
11.11,-0.053,0.619,-0.023
11.12,-0.568,0.774,-0.257
11.13,0.011,1.563,0.091
11.14,-0.229,1.085,0.134
11.15,0.098,0.411,0.003
11.16,-0.553,0.885,-0.207
11.17,0.016,1.617,0.118
11.18,-0.103,1.031,0.071
11.19,0.015,0.739,-0.071
11.2,-0.353,0.426,-0.147
11.21,-0.114,1.984,0.17
11.22,-0.033,0.671,0.096
11.23,-0.146,1.043,-0.083
11.24,-0.266,0.232,-0.197
11.25,-0.137,1.865,0.115
11.26,-0.155,0.913,0.032
11.27,-0.049,0.736,-0.1
11.28,-0.456,0.719,-0.127
11.29,-0.041,1.175,0.171
11.3,-0.415,1.444,0.06
11.31,-0.036,0.435,-0.09
11.32,-0.522,0.85,-0.063
11.33,-0.006,0.992,0.187
11.34,-0.275,1.271,0.013
11.35,-0.197,0.795,-0.131
11.36,-0.36,0.45,-0.041
11.37,-0.039,1.317,0.185
11.38,-0.185,0.848,0.019
11.39,-0.35,0.955,-0.125
11.4,-0.194,0.697,-0.032
11.41,-0.108,1.124,0.134
11.42,-0.111,0.656,0.023
11.43,-0.503,0.925,-0.135
11.44,-0.126,1.556,0.06
11.45,-0.122,0.852,0.2
11.46,-0.139,0.848,0.016
11.47,-0.412,0.437,-0.188
11.48,-0.339,1.973,0.128
11.49,-0.119,0.526,0.128
11.5,-0.183,1.051,-0.003
11.51,-0.46,0.264,-0.269
11.52,-0.04,1.951,0.039
11.53,-0.042,0.836,0.073
11.54,-0.006,0.497,-0.049
11.55,-0.569,0.803,-0.202
11.56,-0.025,1.532,0.126
11.57,-0.111,1.223,0.092
11.58,0.078,0.436,-0.042
11.59,-0.461,0.884,-0.202
11.6,0.014,1.643,0.145
11.61,-0.17,0.989,0.061
11.62,0.013,0.788,-0.055
11.63,-0.394,0.396,-0.139
11.64,-0.1,1.954,0.138
11.65,-0.08,0.711,0.061
11.66,-0.07,0.971,-0.06
11.67,-0.281,0.246,-0.164
11.68,-0.229,1.595,0.161
11.69,-0.21,1.006,0.035
11.7,-0.167,0.727,-0.125
11.71,-0.394,0.746,-0.105
11.72,-0.144,1.167,0.256
11.73,-0.322,1.428,0.052
11.74,-0.081,0.464,-0.039
11.75,-0.463,0.902,-0.075
11.76,0.016,0.975,0.179
11.77,-0.312,1.273,-0.002
11.78,-0.144,0.698,-0.129
11.79,-0.28,0.806,-0.049
11.8,-0.062,1.188,0.148
11.81,-0.197,0.673,-0.009
11.82,-0.305,1.05,-0.109
11.83,-0.318,0.596,-0.004
11.84,-0.095,1.066,0.153
11.85,-0.159,0.973,-0.031
11.86,-0.263,0.658,-0.196
11.87,-0.237,1.682,0.002
11.88,-0.059,0.653,0.141
11.89,-0.321,1.153,0.008
11.9,-0.22,0.291,-0.171
11.91,-0.328,1.958,0.066
11.92,0.042,0.749,0.163
11.93,-0.292,0.78,0.02
11.94,-0.415,0.536,-0.217
11.95,-0.301,1.762,0.104
11.96,-0.25,0.841,0.077
11.97,-0.079,0.547,0.028
11.98,-0.544,0.941,-0.234
11.99,0.014,1.49,0.105
12.0,-0.132,1.06,0.071
12.01,0.035,0.526,-0.015
12.02,-0.467,0.586,-0.183
12.03,-0.047,1.852,0.069
12.04,-0.033,0.707,0.088
12.05,-0.099,1.032,-0.057
12.06,-0.435,0.18,-0.146
12.07,-0.156,2.0,0.191
12.08,-0.126,0.665,0.106
12.09,-0.116,0.853,-0.011
12.1,-0.423,0.482,-0.135
12.11,-0.085,1.654,0.144
12.12,-0.197,1.189,0.012
12.13,0.072,0.519,-0.101
12.14,-0.429,0.905,-0.152
12.15,-0.011,1.13,0.132
12.16,-0.333,1.38,0.012
12.17,-0.067,0.588,-0.089
12.18,-0.476,0.644,-0.074
12.19,-0.102,1.317,0.231
12.2,-0.267,1.006,0.02
12.21,-0.167,0.996,-0.112
12.22,-0.352,0.275,-0.045
12.23,-0.067,1.189,0.164
12.24,-0.184,0.753,-0.01
12.25,-0.327,1.012,-0.148
12.26,-0.195,1.105,-0.052
12.27,-0.081,1.007,0.168
12.28,-0.218,0.824,0.01
12.29,-0.348,0.702,-0.208
12.3,-0.258,1.715,0.017
12.31,-0.132,0.606,0.169
12.32,-0.252,1.161,0.017
12.33,-0.321,0.242,-0.198
12.34,-0.318,1.955,0.073
12.35,-0.104,0.638,0.125
12.36,-0.181,0.825,0.013
12.37,-0.468,0.535,-0.224
12.38,-0.058,1.735,0.058
12.39,-0.128,1.001,0.094
12.4,0.063,0.432,-0.011
12.41,-0.619,0.963,-0.248
12.42,0.023,1.504,0.102
12.43,-0.168,1.105,0.101
12.44,0.05,0.584,-0.04
12.45,-0.498,0.579,-0.173
12.46,-0.02,1.932,0.114
12.47,-0.033,0.722,0.089
12.48,-0.01,0.985,-0.061
12.49,-0.377,0.215,-0.147
12.5,-0.075,1.99,0.163
12.51,-0.081,0.658,0.085
12.52,-0.08,0.889,-0.049
12.53,-0.417,0.547,-0.181
12.54,-0.051,1.592,0.13
12.55,-0.235,1.185,-0.003
12.56,0.043,0.485,-0.107
12.57,-0.436,0.92,-0.16
12.58,-0.096,1.141,0.183
12.59,-0.325,1.389,0.047
12.6,-0.095,0.582,-0.096
12.61,-0.392,0.623,-0.07
12.62,-0.151,1.292,0.244
12.63,-0.203,1.02,0.021
12.64,-0.298,1.025,-0.118
12.65,-0.377,0.221,-0.006
12.66,-0.141,1.398,0.213
12.67,-0.249,0.91,0.044
12.68,-0.243,0.866,-0.105
12.69,-0.254,0.993,-0.082
12.7,0.01,0.939,0.137
12.71,-0.327,1.099,-0.036
12.72,-0.216,0.464,-0.129
12.73,-0.368,1.673,-0.039
12.74,-0.002,0.644,0.172
12.75,-0.232,1.238,-0.078
12.76,-0.323,0.442,-0.164
12.77,-0.29,1.745,0.036
12.78,-0.15,0.839,0.194
12.79,-0.144,0.709,0.022
12.8,-0.389,0.904,-0.197
12.81,-0.178,1.359,0.06
12.82,-0.157,1.067,0.133
12.83,-0.12,0.489,0.041
12.84,-0.544,0.805,-0.197
12.85,-0.136,1.706,0.117
12.86,-0.214,0.775,0.136
12.87,-0.082,0.823,0.017
12.88,-0.463,0.36,-0.199
12.89,-0.122,1.995,0.136
12.9,-0.017,0.598,0.103
12.91,-0.103,0.948,-0.029
12.92,-0.413,0.255,-0.203
12.93,-0.085,1.964,0.105
12.94,-0.064,0.858,0.089
12.95,-0.021,0.595,-0.03
12.96,-0.456,0.787,-0.213
12.97,-0.023,1.537,0.149
12.98,-0.169,1.325,0.066
12.99,0.005,0.396,-0.038
13.0,-0.406,0.895,-0.175
13.01,-0.119,1.509,0.085
13.02,-0.142,1.009,0.017
13.03,-0.094,0.627,-0.08
13.04,-0.459,0.584,-0.075
13.05,-0.094,1.38,0.145
13.06,-0.268,0.982,0.128
13.07,-0.162,1.047,-0.099
13.08,-0.469,0.215,-0.033
13.09,-0.131,1.448,0.254
13.1,-0.27,0.861,0.008
13.11,-0.155,0.863,-0.106
13.12,-0.28,0.832,-0.083
13.13,0.037,0.958,0.12
13.14,-0.243,1.191,-0.052
13.15,-0.205,0.486,-0.167
13.16,-0.259,1.262,-0.022
13.17,0.03,0.711,0.158
13.18,-0.25,1.284,-0.014
13.19,-0.278,0.48,-0.183
13.2,-0.218,1.511,-0.055
13.21,-0.117,0.873,0.107
13.22,-0.076,0.77,-0.015
13.23,-0.415,0.867,-0.17
13.24,-0.164,1.397,0.077
13.25,-0.186,1.094,0.183
13.26,-0.085,0.511,0.064
13.27,-0.536,0.875,-0.208
13.28,-0.17,1.634,0.056
13.29,-0.19,0.751,0.098
13.3,-0.083,0.882,-0.001
13.31,-0.447,0.36,-0.19
13.32,-0.09,2.0,0.068
13.33,0.012,0.61,0.131
13.34,-0.141,0.936,-0.016
13.35,-0.417,0.237,-0.202
13.36,-0.08,1.973,0.097
13.37,-0.082,0.865,0.099
13.38,-0.068,0.536,-0.037
13.39,-0.499,0.754,-0.199
13.4,-0.017,1.578,0.157
13.41,-0.185,1.167,0.082
13.42,0.016,0.398,-0.037
13.43,-0.486,0.893,-0.159
13.44,-0.098,1.547,0.129
13.45,-0.097,1.052,0.06
13.46,-0.057,0.851,-0.027
13.47,-0.357,0.342,-0.12
13.48,-0.184,1.879,0.156
13.49,-0.022,0.794,0.037
13.5,-0.137,1.087,-0.096
13.51,-0.3,0.241,-0.152
13.52,-0.188,1.679,0.174
13.53,-0.234,1.013,0.031
13.54,-0.056,0.759,-0.114
13.55,-0.486,0.736,-0.051
13.56,-0.026,1.004,0.255
13.57,-0.393,1.499,-0.007
13.58,-0.118,0.416,-0.078
13.59,-0.439,0.99,-0.015
13.6,-0.014,0.925,0.212
13.61,-0.298,1.17,0.028
13.62,-0.251,0.757,-0.155
13.63,-0.31,0.812,-0.02
13.64,-0.065,1.2,0.159
13.65,-0.115,0.667,-0.001
13.66,-0.337,1.007,-0.165
13.67,-0.211,1.198,-0.089
13.68,-0.073,1.014,0.093
13.69,-0.163,0.814,-0.031
13.7,-0.345,0.647,-0.194
13.71,-0.294,1.755,-0.024
13.72,-0.152,0.579,0.122
13.73,-0.23,1.185,0.025
13.74,-0.318,0.27,-0.227
13.75,-0.323,1.938,0.073
13.76,-0.164,0.558,0.152
13.77,-0.211,0.947,0.041
13.78,-0.375,0.485,-0.211
13.79,-0.194,1.682,0.105
13.8,-0.246,0.915,0.102
13.81,-0.004,0.47,0.006
13.82,-0.573,0.933,-0.152
13.83,-0.019,1.512,0.158
13.84,-0.15,1.184,0.063
13.85,0.003,0.339,-0.077
13.86,-0.49,0.853,-0.124
13.87,-0.05,1.629,0.161
13.88,-0.063,0.976,0.059
13.89,0.003,0.832,-0.077
13.9,-0.353,0.357,-0.183
13.91,-0.143,1.812,0.13
13.92,-0.161,0.759,0.074
13.93,-0.153,1.064,-0.1
13.94,-0.371,0.253,-0.091
13.95,-0.233,1.549,0.192
13.96,-0.308,1.111,0.055
13.97,-0.093,0.692,-0.091
13.98,-0.412,0.756,-0.102
13.99,-0.046,0.993,0.2
14.0,-0.353,1.515,0.006
14.01,-0.143,0.439,-0.104
14.02,-0.405,0.898,-0.034
14.03,-0.005,0.95,0.215
14.04,-0.296,1.304,0.02
14.05,-0.181,0.687,-0.148
14.06,-0.338,0.635,-0.034
14.07,-0.058,1.201,0.159
14.08,-0.168,0.852,-0.011
14.09,-0.386,0.939,-0.133
14.1,-0.136,1.011,-0.046
14.11,-0.13,1.014,0.128
14.12,-0.117,0.903,-0.036
14.13,-0.366,0.67,-0.2
14.14,-0.187,1.745,-0.027
14.15,-0.102,0.597,0.135
14.16,-0.264,1.134,0.033
14.17,-0.338,0.27,-0.202
14.18,-0.367,1.957,0.14
14.19,-0.063,0.594,0.079
14.2,-0.22,0.905,0.016
14.21,-0.432,0.542,-0.221
14.22,-0.212,1.654,0.126
14.23,-0.13,0.98,0.125
14.24,0.009,0.457,-0.021
14.25,-0.588,0.846,-0.173
14.26,0.077,1.532,0.125
14.27,-0.21,1.146,0.036
14.28,0.037,0.513,-0.037
14.29,-0.426,0.599,-0.205
14.3,0.0,1.865,0.158
14.31,-0.064,0.706,0.083
14.32,-0.105,0.915,-0.075
14.33,-0.385,0.208,-0.133
14.34,-0.138,1.983,0.129
14.35,-0.105,0.742,0.066
14.36,-0.095,0.975,-0.041
14.37,-0.379,0.494,-0.159
14.38,-0.068,1.558,0.126
14.39,-0.237,1.259,0.04
14.4,-0.016,0.464,-0.098
14.41,-0.47,0.893,-0.101
14.42,-0.063,1.066,0.182
14.43,-0.337,1.456,-0.004
14.44,-0.103,0.562,-0.08
14.45,-0.404,0.656,-0.026
14.46,-0.065,1.187,0.225
14.47,-0.218,1.009,-0.018
14.48,-0.26,0.981,-0.11
14.49,-0.293,0.4,-0.02
14.5,-0.109,1.291,0.187
14.51,-0.24,0.847,0.032
14.52,-0.262,0.871,-0.143
14.53,-0.173,1.217,-0.066
14.54,0.018,0.878,0.108
14.55,-0.281,1.078,-0.08
14.56,-0.267,0.461,-0.163
14.57,-0.317,1.861,-0.025
14.58,-0.048,0.599,0.191
14.59,-0.29,1.163,0.033
14.6,-0.267,0.411,-0.234
14.61,-0.309,1.816,0.055
14.62,-0.159,0.743,0.108
14.63,-0.142,0.869,-0.008
14.64,-0.49,0.486,-0.198
14.65,-0.039,1.684,0.063
14.66,-0.107,1.046,0.116
14.67,-0.025,0.358,-0.051
14.68,-0.512,0.94,-0.17
14.69,-0.063,1.517,0.125
14.7,-0.171,1.138,0.135
14.71,-0.014,0.562,0.016
14.72,-0.5,0.674,-0.16
14.73,-0.056,1.837,0.189
14.74,-0.108,0.754,0.073
14.75,-0.083,0.959,-0.064
14.76,-0.305,0.258,-0.169
14.77,-0.165,1.867,0.095
14.78,-0.191,0.769,0.078
14.79,-0.067,0.999,-0.048
14.8,-0.386,0.488,-0.139
14.81,-0.043,1.607,0.176
14.82,-0.243,1.173,0.031
14.83,0.016,0.576,-0.113
14.84,-0.49,0.885,-0.129
14.85,-0.055,1.259,0.215
14.86,-0.37,1.45,0.043
14.87,-0.019,0.537,-0.067
14.88,-0.394,0.663,-0.038
14.89,-0.097,1.21,0.181
14.9,-0.242,1.043,-0.001
14.91,-0.295,1.036,-0.099
14.92,-0.224,0.321,-0.028
14.93,-0.133,1.341,0.164
14.94,-0.167,0.787,0.001
14.95,-0.347,0.919,-0.12
14.96,-0.275,0.75,-0.019
14.97,-0.077,0.956,0.17
14.98,-0.233,1.188,-0.059
14.99,-0.168,0.408,-0.197
15.0,-0.216,1.945,-0.092
15.01,0.058,0.629,0.177
15.02,-0.308,1.067,0.009
15.03,-0.292,0.421,-0.185
15.04,-0.358,1.817,-0.004
15.05,-0.125,0.772,0.152
15.06,-0.147,0.725,0.043
15.07,-0.519,0.788,-0.248
15.08,-0.177,1.452,0.09
15.09,-0.28,0.972,0.088
15.1,0.001,0.532,0.014
15.11,-0.477,0.849,-0.191
15.12,0.045,1.632,-0.005
15.13,0.016,0.953,0.038
15.14,-0.002,0.7,-0.06
15.15,-0.484,0.322,-0.211
15.16,-0.078,2.0,0.099
15.17,-0.076,0.607,0.124
15.18,-0.115,1.009,-0.02
15.19,-0.445,0.233,-0.192
15.2,-0.119,1.977,0.163
15.21,-0.167,0.762,0.067
15.22,-0.01,0.585,-0.05
15.23,-0.493,0.761,-0.159
15.24,-0.042,1.535,0.113
15.25,-0.196,1.267,0.106
15.26,0.083,0.454,-0.011
15.27,-0.522,0.911,-0.159
15.28,-0.024,1.486,0.12
15.29,-0.151,1.08,0.067
15.3,-0.045,0.854,-0.094
15.31,-0.352,0.432,-0.119
15.32,-0.192,1.77,0.134
15.33,-0.063,0.806,0.062
15.34,-0.162,1.004,-0.072
15.35,-0.33,0.257,-0.111
15.36,-0.249,1.484,0.176
15.37,-0.263,1.026,0.028
15.38,-0.118,0.774,-0.107
15.39,-0.349,0.724,-0.091
15.4,-0.04,0.941,0.21
15.41,-0.31,1.41,-0.016
15.42,-0.173,0.413,-0.114
15.43,-0.412,0.95,-0.028
15.44,0.08,0.802,0.124
15.45,-0.276,1.382,-0.059
15.46,-0.177,0.405,-0.174
15.47,-0.194,1.647,-0.066
15.48,-0.021,0.872,0.147
15.49,-0.148,0.807,0.019
15.5,-0.4,0.868,-0.226
15.51,-0.14,1.349,0.016
15.52,-0.261,1.09,0.135
15.53,-0.111,0.573,0.055
15.54,-0.537,0.884,-0.192
15.55,-0.171,1.532,0.05
15.56,-0.297,0.774,0.147
15.57,-0.113,0.914,0.017
15.58,-0.449,0.4,-0.172
15.59,-0.094,2.0,0.09
15.6,-0.035,0.623,0.154
15.61,-0.123,0.978,0.005
15.62,-0.458,0.245,-0.181
15.63,-0.115,1.983,0.073
15.64,-0.066,0.797,0.133
15.65,-0.043,0.636,-0.052
15.66,-0.537,0.718,-0.191
15.67,-0.004,1.556,0.12
15.68,-0.197,1.171,0.107
15.69,0.099,0.368,-0.032
15.7,-0.513,0.921,-0.137
15.71,-0.035,1.566,0.097
15.72,-0.154,1.007,0.063
15.73,0.107,0.827,-0.058
15.74,-0.405,0.45,-0.148
15.75,-0.077,1.893,0.166
15.76,-0.109,0.711,0.088
15.77,-0.124,1.079,-0.044
15.78,-0.309,0.244,-0.134
15.79,-0.138,1.883,0.14
15.8,-0.157,0.845,0.054
15.81,-0.028,0.784,-0.089
15.82,-0.473,0.648,-0.156
15.83,-0.048,1.122,0.171
15.84,-0.361,1.427,-0.019
15.85,0.027,0.409,-0.152
15.86,-0.505,0.924,-0.088
15.87,-0.009,0.965,0.205
15.88,-0.325,1.238,0.068
15.89,-0.223,0.769,-0.132
15.9,-0.429,0.475,0.006
15.91,-0.124,1.307,0.241
15.92,-0.236,0.875,0.062
15.93,-0.271,0.943,-0.088
15.94,-0.287,0.756,0.024
15.95,-0.119,1.176,0.172
15.96,-0.203,0.809,0.025
15.97,-0.32,0.851,-0.14
15.98,-0.247,1.226,-0.066
15.99,-0.034,0.789,0.118
16.0,-0.194,1.184,-0.006
16.01,-0.247,0.47,-0.178
16.02,-0.441,1.361,0.006
16.03,-0.036,0.674,0.131
16.04,-0.287,1.231,-0.013
16.05,-0.159,0.483,-0.194
16.06,-0.249,1.619,0.028
16.07,-0.076,0.94,0.181
16.08,-0.04,0.533,0.001
16.09,-0.5,0.915,-0.185
16.1,-0.196,1.387,0.067
16.11,-0.174,1.103,0.186
16.12,-0.025,0.557,0.014
16.13,-0.528,0.747,-0.202
16.14,-0.199,1.754,0.067
16.15,-0.254,0.566,0.111
16.16,-0.186,0.991,0.03
16.17,-0.357,0.213,-0.164
16.18,-0.133,2.0,0.092
16.19,0.08,0.65,0.113
16.2,-0.174,0.85,-0.011
16.21,-0.415,0.354,-0.195
16.22,-0.154,1.802,0.058
16.23,-0.078,1.009,0.074
16.24,-0.127,0.776,-0.031
16.25,-0.429,0.699,-0.147
16.26,-0.054,1.575,0.264
16.27,-0.166,1.238,-0.037
16.28,0.049,0.448,-0.003
16.29,-0.508,0.926,-0.174
16.3,-0.033,1.428,0.163
16.31,-0.207,1.23,0.025
16.32,-0.06,0.678,-0.062
16.33,-0.368,0.447,-0.125
16.34,-0.161,1.469,0.144
16.35,-0.149,0.926,-0.01
16.36,-0.234,1.085,-0.118
16.37,-0.342,0.216,-0.07
16.38,-0.179,1.549,0.243
16.39,-0.274,0.972,0.016
16.4,-0.095,0.863,-0.071
16.41,-0.447,0.659,-0.068
16.42,0.022,0.985,0.241
16.43,-0.365,1.403,-0.005
16.44,-0.155,0.408,-0.127
16.45,-0.347,1.319,0.005
16.46,0.047,0.762,0.177
16.47,-0.338,1.226,0.053
16.48,-0.292,0.533,-0.171
16.49,-0.314,0.864,-0.045
16.5,-0.125,1.072,0.136
16.51,-0.116,0.855,-0.01
16.52,-0.386,0.91,-0.155
16.53,-0.135,1.32,-0.038
16.54,-0.187,1.014,0.131
16.55,-0.091,0.664,0.019
16.56,-0.406,0.799,-0.196
16.57,-0.237,1.676,0.123
16.58,-0.022,0.78,0.158
16.59,-0.175,0.91,-0.028
16.6,-0.355,0.371,-0.194
16.61,-0.384,2.0,0.061
16.62,-0.163,0.434,0.098
16.63,-0.213,1.148,0.01
16.64,-0.364,0.327,-0.215
16.65,-0.143,1.826,0.083
16.66,-0.078,0.911,0.052
16.67,-0.062,0.435,-0.034
16.68,-0.451,0.806,-0.219
16.69,0.037,1.517,0.026
16.7,-0.089,1.183,0.119
16.71,0.069,0.443,-0.031
16.72,-0.571,0.756,-0.202
16.73,-0.024,1.732,0.186
16.74,-0.308,0.817,0.088
16.75,-0.077,0.786,-0.042
16.76,-0.522,0.321,-0.167
16.77,-0.138,2.0,0.152
16.78,0.008,0.674,0.095
16.79,-0.105,0.979,-0.022
16.8,-0.341,0.302,-0.101
16.81,-0.23,1.643,0.132
16.82,-0.156,0.994,0.11
16.83,-0.066,0.679,-0.095
16.84,-0.481,0.852,-0.131
16.85,-0.006,1.335,0.158
16.86,-0.274,1.363,0.065
16.87,0.013,0.503,-0.052
16.88,-0.437,0.893,-0.101
16.89,-0.187,1.257,0.222
16.9,-0.266,1.25,0.036
16.91,-0.181,0.749,-0.088
16.92,-0.336,0.425,-0.016
16.93,-0.186,1.363,0.181
16.94,-0.17,0.722,0.034
16.95,-0.359,1.096,-0.12
16.96,-0.348,0.337,-0.068
16.97,-0.101,1.255,0.19
16.98,-0.275,1.021,0.008
16.99,-0.207,0.657,-0.103
17.0,-0.376,1.046,-0.073
17.01,0.001,0.743,0.18
17.02,-0.325,1.433,-0.069
17.03,-0.183,0.271,-0.106
17.04,-0.355,1.933,0.021
17.05,-0.016,0.609,0.211
17.06,-0.241,1.043,0.029
17.07,-0.446,0.411,-0.235
17.08,-0.344,1.821,0.088
17.09,-0.219,0.785,0.107
17.1,-0.136,0.702,-0.002
17.11,-0.429,0.799,-0.232
17.12,-0.07,1.435,0.075
17.13,-0.191,1.053,0.105
17.14,-0.098,0.445,0.027
17.15,-0.527,0.75,-0.169
17.16,-0.062,1.699,0.07
17.17,-0.083,0.863,0.118
17.18,-0.04,0.784,-0.05
17.19,-0.542,0.302,-0.171
17.2,-0.127,2.0,0.174
17.21,-0.125,0.549,0.138
17.22,-0.178,0.931,-0.017
17.23,-0.38,0.292,-0.164
17.24,-0.115,1.856,0.095
17.25,-0.051,0.975,0.071
17.26,0.016,0.602,-0.075
17.27,-0.449,0.789,-0.142
17.28,-0.113,1.326,0.167
17.29,-0.281,1.295,0.089
17.3,-0.024,0.498,-0.051
17.31,-0.456,0.869,-0.15
17.32,-0.059,1.384,0.152
17.33,-0.231,1.196,0.05
17.34,-0.068,0.816,-0.143
17.35,-0.383,0.351,-0.106
17.36,-0.193,1.543,0.166
17.37,-0.158,0.915,-0.012
17.38,-0.215,1.008,-0.086
17.39,-0.349,0.313,-0.058
17.4,-0.164,1.335,0.242
17.41,-0.202,0.961,-0.042
17.42,-0.229,0.73,-0.152
17.43,-0.308,0.817,-0.06
17.44,-0.005,0.864,0.192
17.45,-0.299,1.47,-0.017
17.46,-0.142,0.342,-0.124
17.47,-0.348,1.308,-0.072
17.48,0.085,0.777,0.152
17.49,-0.28,1.142,-0.029
17.5,-0.3,0.693,-0.149
17.51,-0.222,1.235,-0.052
17.52,-0.165,1.025,0.092
17.53,-0.128,0.669,0.012
17.54,-0.405,1.018,-0.173
17.55,-0.262,1.323,0.084
17.56,-0.24,0.988,0.205
17.57,0.0,0.474,-0.048
17.58,-0.493,0.925,-0.111
17.59,-0.109,1.074,0.247
17.6,-0.317,1.352,0.02
17.61,-0.09,0.636,-0.124
17.62,-0.37,0.622,-0.066
17.63,-0.123,1.236,0.226
17.64,-0.227,1.078,0.022
17.65,-0.195,0.91,-0.121
17.66,-0.226,0.646,-0.019
17.67,-0.106,1.251,0.155
17.68,-0.17,0.715,-0.025
17.69,-0.442,1.021,-0.206
17.7,-0.169,1.269,-0.017
17.71,-0.131,0.97,0.079
17.72,-0.186,0.823,0.032
17.73,-0.364,0.68,-0.184
17.74,-0.349,1.734,0.098
17.75,-0.084,0.569,0.159
17.76,-0.257,1.125,0.0
17.77,-0.231,0.227,-0.225
17.78,-0.266,2.0,0.063
17.79,0.023,0.724,0.121
17.8,-0.091,0.794,-0.006
17.81,-0.488,0.526,-0.244
17.82,-0.057,1.729,0.102
17.83,-0.188,1.001,0.12
17.84,0.065,0.447,-0.013
17.85,-0.599,0.921,-0.208
17.86,0.044,1.52,0.128
17.87,-0.225,1.099,0.077
17.88,0.035,0.497,-0.032
17.89,-0.457,0.614,-0.198
17.9,-0.047,1.855,0.09
17.91,-0.019,0.672,0.09
17.92,-0.072,0.959,-0.039
17.93,-0.386,0.233,-0.153
17.94,-0.154,1.951,0.118
17.95,-0.134,0.741,0.096
17.96,-0.067,0.913,-0.051
17.97,-0.353,0.573,-0.141
17.98,-0.033,1.685,0.149
17.99,-0.207,1.142,0.05
18.0,0.016,0.563,-0.094
18.01,-0.38,0.897,-0.19
18.02,-0.075,1.191,0.158
18.03,-0.299,1.401,0.004
18.04,-0.011,0.498,-0.125
18.05,-0.399,0.67,-0.134
18.06,-0.095,1.268,0.216
18.07,-0.242,0.98,-0.027
18.08,-0.271,1.045,-0.129
18.09,-0.277,0.239,-0.069
18.1,-0.21,1.458,0.283
18.11,-0.207,0.855,0.013
18.12,-0.239,0.916,-0.121
18.13,-0.296,0.837,-0.046
18.14,-0.057,0.994,0.162
18.15,-0.314,1.117,-0.0
18.16,-0.122,0.47,-0.178
18.17,-0.333,1.655,-0.129
18.18,0.153,0.675,0.12
18.19,-0.245,1.228,-0.013
18.2,-0.305,0.419,-0.186
18.21,-0.282,1.427,-0.041
18.22,-0.097,0.887,0.152
18.23,-0.159,0.874,-0.0
18.24,-0.285,0.835,-0.177
18.25,-0.213,1.342,0.005
18.26,-0.096,1.078,0.131
18.27,-0.069,0.549,0.017
18.28,-0.502,0.869,-0.167
18.29,-0.14,1.569,0.029
18.3,-0.232,0.843,0.103
18.31,-0.104,0.861,0.022
18.32,-0.389,0.481,-0.221
18.33,-0.335,1.934,0.102
18.34,-0.111,0.414,0.077
18.35,-0.192,1.175,0.027
18.36,-0.356,0.203,-0.22
18.37,-0.087,1.888,0.027
18.38,0.069,0.879,0.1
18.39,-0.01,0.591,-0.057
18.4,-0.454,0.71,-0.219
18.41,0.003,1.608,0.048
18.42,-0.166,1.187,0.066
18.43,0.104,0.416,-0.03
18.44,-0.634,0.9,-0.201
18.45,0.026,1.589,0.18
18.46,-0.269,0.95,0.095
18.47,0.003,0.652,-0.065
18.48,-0.41,0.482,-0.177
18.49,-0.078,1.556,0.109
18.5,-0.175,0.944,0.049
18.51,-0.081,0.942,-0.105
18.52,-0.331,0.222,-0.147
18.53,-0.163,1.724,0.164
18.54,-0.115,0.796,0.086
18.55,-0.176,1.02,-0.123
18.56,-0.414,0.451,-0.116
18.57,-0.097,1.583,0.207
18.58,-0.275,1.183,0.033
18.59,-0.014,0.521,-0.088
18.6,-0.461,0.873,-0.142
18.61,0.025,0.961,0.177
18.62,-0.305,1.459,-0.016
18.63,-0.092,0.469,-0.059
18.64,-0.378,0.826,-0.035
18.65,-0.056,1.091,0.234
18.66,-0.21,0.933,0.027
18.67,-0.314,0.974,-0.121
18.68,-0.333,0.3,-0.07
18.69,-0.154,1.423,0.278
18.7,-0.186,0.819,0.01
18.71,-0.198,0.922,-0.088
18.72,-0.302,0.912,-0.092
18.73,0.018,1.054,0.199
18.74,-0.259,1.045,-0.065
18.75,-0.25,0.559,-0.097
18.76,-0.281,1.42,-0.074
18.77,0.043,0.743,0.18
18.78,-0.273,1.25,-0.012
18.79,-0.225,0.467,-0.184
18.8,-0.364,1.455,-0.032
18.81,-0.081,0.833,0.229
18.82,-0.232,0.958,0.01
18.83,-0.324,0.721,-0.12
18.84,-0.219,1.45,-0.016
18.85,-0.087,1.129,0.143
18.86,-0.088,0.487,0.024
18.87,-0.514,0.955,-0.167
18.88,-0.213,1.46,0.036
18.89,-0.204,0.939,0.15
18.9,-0.164,0.835,0.024
18.91,-0.434,0.561,-0.211
18.92,-0.29,1.878,0.042
18.93,-0.08,0.533,0.101
18.94,-0.211,1.094,0.019
18.95,-0.315,0.208,-0.195
18.96,-0.28,1.962,0.067
18.97,-0.026,0.793,0.141
18.98,-0.12,0.708,0.021
18.99,-0.485,0.635,-0.207
19.0,-0.125,1.629,0.117
19.01,-0.092,1.058,0.132
19.02,-0.033,0.396,0.007
19.03,-0.551,0.927,-0.215
19.04,-0.011,1.526,0.087
19.05,-0.215,1.007,0.108
19.06,-0.04,0.605,0.007
19.07,-0.426,0.526,-0.231
19.08,-0.053,1.955,0.084
19.09,-0.031,0.66,0.106
19.1,-0.082,0.926,-0.039
19.11,-0.382,0.228,-0.216
19.12,-0.121,2.0,0.113
19.13,-0.066,0.686,0.073
19.14,-0.05,0.835,-0.03
19.15,-0.46,0.615,-0.214
19.16,-0.078,1.693,0.148
19.17,-0.23,1.172,0.113
19.18,0.062,0.475,-0.022
19.19,-0.534,0.986,-0.171
19.2,0.023,1.493,0.168
19.21,-0.167,1.173,0.057
19.22,0.059,0.65,-0.024
19.23,-0.518,0.64,-0.134
19.24,-0.084,1.761,0.128
19.25,-0.121,0.833,0.064
19.26,-0.133,1.004,-0.041
19.27,-0.357,0.23,-0.15
19.28,-0.163,1.839,0.131
19.29,-0.138,0.862,0.033
19.3,-0.174,1.046,-0.106
19.31,-0.311,0.33,-0.101
19.32,-0.196,1.371,0.211
19.33,-0.25,1.14,0.004
19.34,-0.142,0.645,-0.113
19.35,-0.386,0.791,-0.096
19.36,-0.034,0.99,0.254
19.37,-0.269,1.502,0.008
19.38,-0.039,0.376,-0.101
19.39,-0.422,1.007,-0.06
19.4,0.056,0.916,0.172
19.41,-0.221,1.227,-0.012
19.42,-0.242,0.721,-0.142
19.43,-0.273,0.616,-0.003
19.44,-0.053,1.257,0.141
19.45,-0.101,0.729,-0.035
19.46,-0.303,1.023,-0.158
19.47,-0.286,0.606,-0.052
19.48,-0.044,1.15,0.151
19.49,-0.212,0.962,-0.024
19.5,-0.25,0.671,-0.123
19.51,-0.275,1.605,-0.107
19.52,0.017,0.709,0.152
19.53,-0.259,1.209,-0.009
19.54,-0.323,0.36,-0.17
19.55,-0.254,1.839,-0.065
19.56,-0.041,0.703,0.11
19.57,-0.211,0.998,-0.017
19.58,-0.343,0.64,-0.179
19.59,-0.28,1.458,0.035
19.6,-0.168,0.976,0.123
19.61,-0.094,0.679,0.031
19.62,-0.389,0.963,-0.217
19.63,-0.197,1.3,0.077
19.64,-0.185,0.988,0.169
19.65,-0.111,0.674,0.061
19.66,-0.399,0.647,-0.139
19.67,-0.242,1.787,0.073
19.68,-0.101,0.725,0.149
19.69,-0.2,0.962,0.051
19.7,-0.415,0.217,-0.198
19.71,-0.322,2.0,0.106
19.72,-0.156,0.5,0.063
19.73,-0.126,0.941,-0.018
19.74,-0.48,0.455,-0.248
19.75,-0.056,1.765,0.062
19.76,-0.15,0.97,0.114
19.77,0.051,0.453,-0.0
19.78,-0.472,0.938,-0.201
19.79,-0.046,1.497,0.11
19.8,-0.103,1.137,0.128
19.81,0.027,0.561,0.021
19.82,-0.503,0.653,-0.211
19.83,-0.014,1.839,0.111
19.84,-0.163,0.684,0.084
19.85,0.003,0.888,-0.02
19.86,-0.417,0.276,-0.204
19.87,-0.147,2.0,0.196
19.88,-0.116,0.619,0.117
19.89,-0.103,0.877,-0.019
19.9,-0.329,0.461,-0.157
19.91,-0.112,1.796,0.129
19.92,-0.193,1.031,0.086
19.93,0.042,0.576,-0.027
19.94,-0.498,0.896,-0.156
19.95,0.078,1.498,0.194
19.96,-0.238,1.262,0.08
19.97,0.045,0.483,-0.036
19.98,-0.437,0.796,-0.182
19.99,-0.064,1.649,0.123
20.0,-0.186,0.947,0.077
20.01,-0.016,0.942,-0.085
20.02,-0.398,0.226,-0.098
20.03,-0.1,1.848,0.178
20.04,-0.193,0.821,0.082
20.05,-0.142,1.042,-0.079
20.06,-0.368,0.367,-0.174
20.07,-0.057,1.715,0.142
20.08,-0.162,1.103,0.022
20.09,-0.017,0.547,-0.109
20.1,-0.413,0.713,-0.135
20.11,-0.024,0.998,0.244
20.12,-0.314,1.363,0.011
20.13,-0.122,0.404,-0.093
20.14,-0.384,1.091,-0.051
20.15,0.073,0.904,0.19
20.16,-0.271,1.233,-0.011
20.17,-0.246,0.614,-0.109
20.18,-0.374,0.602,-0.033
20.19,-0.076,1.283,0.219
20.2,-0.159,0.956,0.01
20.21,-0.191,0.935,-0.149
20.22,-0.285,0.663,-0.055
20.23,0.02,1.214,0.129
20.24,-0.202,0.87,-0.057
20.25,-0.226,0.825,-0.151
20.26,-0.212,1.487,-0.163
20.27,-0.006,0.795,0.128
20.28,-0.144,1.095,0.0
20.29,-0.306,0.48,-0.187
20.3,-0.424,1.559,0.038
20.31,-0.09,0.626,0.172
20.32,-0.315,1.225,0.025
20.33,-0.166,0.426,-0.178
20.34,-0.405,1.677,-0.002
20.35,-0.085,0.847,0.147
20.36,-0.046,0.672,0.051
20.37,-0.408,0.906,-0.196
20.38,-0.144,1.404,0.072
20.39,-0.103,1.184,0.146
20.4,-0.08,0.478,0.059
20.41,-0.498,0.798,-0.158
20.42,-0.327,1.625,0.049
20.43,-0.269,0.652,0.099
20.44,-0.248,1.02,0.009
20.45,-0.276,0.275,-0.194
20.46,-0.31,2.0,0.099
20.47,-0.103,0.479,0.1
20.48,-0.218,0.908,0.018
20.49,-0.344,0.261,-0.163
20.5,-0.147,1.86,0.065
20.51,-0.043,0.9,0.094
20.52,0.02,0.559,-0.074
20.53,-0.556,0.817,-0.228
20.54,-0.006,1.534,0.121
20.55,-0.295,1.12,0.085
20.56,-0.014,0.386,0.004
20.57,-0.558,0.828,-0.159
20.58,-0.037,1.634,0.126
20.59,-0.078,0.892,0.085
20.6,0.029,0.791,-0.035
20.61,-0.444,0.337,-0.152
20.62,-0.157,1.869,0.164
20.63,-0.071,0.723,0.082
20.64,-0.124,1.009,-0.059
20.65,-0.343,0.396,-0.165
20.66,-0.068,1.87,0.204
20.67,-0.11,0.922,0.049
20.68,-0.044,0.627,-0.055
20.69,-0.395,0.829,-0.175
20.7,-0.065,1.396,0.136
20.71,-0.28,1.35,0.054
20.72,0.008,0.413,-0.091
20.73,-0.394,0.883,-0.132
20.74,-0.108,1.231,0.203
20.75,-0.328,1.225,0.096
20.76,-0.2,0.892,-0.106
20.77,-0.327,0.385,-0.072
20.78,-0.17,1.746,0.192
20.79,-0.029,0.865,0.037
20.8,-0.222,1.049,-0.119
20.81,-0.405,0.284,-0.059
20.82,-0.205,1.412,0.218
20.83,-0.297,1.122,0.041
20.84,-0.194,0.671,-0.07
20.85,-0.344,1.059,-0.022
20.86,-0.011,0.8,0.171
20.87,-0.29,1.255,0.039
20.88,-0.265,0.437,-0.126
20.89,-0.416,1.016,-0.004
20.9,0.057,0.683,0.12
20.91,-0.282,1.336,-0.036
20.92,-0.252,0.379,-0.187
20.93,-0.267,1.629,-0.015
20.94,-0.065,0.821,0.087
20.95,-0.149,0.811,-0.006
20.96,-0.286,0.887,-0.184
20.97,-0.209,1.405,0.033
20.98,-0.073,1.14,0.138
20.99,-0.027,0.482,0.049
21.0,-0.626,0.878,-0.197
21.01,-0.164,1.626,0.054
21.02,-0.345,0.747,0.141
21.03,-0.122,0.951,0.01
21.04,-0.38,0.36,-0.221
21.05,-0.18,2.0,0.054
21.06,-0.115,0.491,0.112
21.07,-0.169,0.963,0.037
21.08,-0.391,0.25,-0.182
21.09,-0.163,1.877,0.117
21.1,-0.03,0.847,0.116
21.11,-0.031,0.605,-0.072
21.12,-0.497,0.748,-0.21
21.13,-0.057,1.613,0.141
21.14,-0.266,1.038,0.153
21.15,0.094,0.467,-0.021
21.16,-0.621,0.946,-0.189
21.17,0.003,1.562,0.195
21.18,-0.243,1.038,0.094
21.19,0.041,0.717,0.001
21.2,-0.501,0.447,-0.103
21.21,-0.189,1.873,0.148
21.22,-0.14,0.686,0.146
21.23,-0.135,1.074,-0.064
21.24,-0.402,0.252,-0.14
21.25,-0.12,1.903,0.189
21.26,-0.126,0.875,0.105
21.27,-0.117,0.701,-0.101
21.28,-0.395,0.743,-0.163
21.29,-0.026,1.457,0.173
21.3,-0.318,1.439,0.047
21.31,0.078,0.402,-0.068
21.32,-0.469,0.91,-0.14
21.33,-0.122,1.279,0.189
21.34,-0.275,1.198,0.042
21.35,-0.19,0.799,-0.124
21.36,-0.437,0.453,-0.083
21.37,-0.218,1.564,0.229
21.38,-0.069,1.014,0.106
21.39,-0.332,0.845,-0.068
21.4,-0.331,0.315,-0.006
21.41,-0.232,1.422,0.13
21.42,-0.261,0.956,-0.003
21.43,-0.16,0.833,-0.101
21.44,-0.407,0.731,-0.043
21.45,0.024,0.953,0.144
21.46,-0.215,1.316,0.032
21.47,-0.158,0.432,-0.16
21.48,-0.344,1.06,-0.076
21.49,-0.004,0.781,0.193
21.5,-0.273,1.383,-0.035
21.51,-0.156,0.455,-0.142
21.52,-0.225,1.281,-0.084
21.53,-0.034,1.046,0.149
21.54,-0.104,0.709,-0.059
21.55,-0.402,1.001,-0.188
21.56,-0.102,1.001,-0.071
21.57,-0.18,1.088,0.102
21.58,-0.159,0.765,-0.029
21.59,-0.357,0.794,-0.174
21.6,-0.244,1.502,-0.027
21.61,-0.229,0.657,0.222
21.62,-0.303,1.191,0.014
21.63,-0.299,0.259,-0.151
21.64,-0.291,1.978,0.051
21.65,-0.018,0.574,0.08
21.66,-0.135,0.995,-0.016
21.67,-0.393,0.436,-0.248
21.68,-0.132,1.818,0.048
21.69,-0.144,0.882,0.107
21.7,-0.068,0.687,-0.008
21.71,-0.529,0.673,-0.19
21.72,-0.037,1.633,0.127
21.73,-0.233,1.058,0.113
21.74,0.178,0.41,-0.035
21.75,-0.584,0.933,-0.207
21.76,0.1,1.539,0.14
21.77,-0.172,1.081,0.017
21.78,0.108,0.635,-0.075
21.79,-0.404,0.578,-0.202
21.8,-0.044,1.946,0.151
21.81,-0.136,0.643,0.07
21.82,-0.101,1.029,-0.034
21.83,-0.32,0.264,-0.127
21.84,-0.094,2.0,0.108
21.85,-0.085,0.749,0.066
21.86,-0.08,0.779,-0.093
21.87,-0.418,0.621,-0.191
21.88,-0.073,1.451,0.144
21.89,-0.247,1.258,0.066
21.9,0.02,0.479,-0.073
21.91,-0.502,0.933,-0.177
21.92,-0.018,1.319,0.224
21.93,-0.362,1.341,0.056
21.94,-0.068,0.617,-0.086
21.95,-0.42,0.56,-0.129
21.96,-0.095,1.44,0.157
21.97,-0.131,1.006,0.008
21.98,-0.266,0.986,-0.096
21.99,-0.371,0.188,-0.089
22.0,-0.141,1.486,0.211
22.01,-0.243,0.894,0.013
22.02,-0.276,0.894,-0.128
22.03,-0.429,0.572,-0.078
22.04,-0.032,1.087,0.251
22.05,-0.359,1.388,0.027
22.06,-0.072,0.374,-0.1
22.07,-0.428,1.155,-0.052
22.08,0.138,0.802,0.168
22.09,-0.317,1.348,0.02
22.1,-0.185,0.568,-0.127
22.11,-0.29,1.117,-0.044
22.12,0.001,1.05,0.134
22.13,-0.08,0.797,0.027
22.14,-0.411,0.912,-0.198
22.15,-0.212,0.866,-0.025
22.16,-0.173,1.187,0.129
22.17,-0.204,0.703,0.053
22.18,-0.305,0.803,-0.093
22.19,-0.369,1.411,-0.069
22.2,-0.065,0.812,0.144
22.21,-0.215,1.134,0.012
22.22,-0.313,0.41,-0.186
22.23,-0.342,1.86,0.026
22.24,-0.105,0.597,0.189
22.25,-0.259,1.178,0.07
22.26,-0.283,0.448,-0.199
22.27,-0.379,1.697,0.004
22.28,-0.156,0.767,0.114
22.29,-0.115,0.735,-0.004
22.3,-0.432,0.802,-0.192
22.31,-0.172,1.398,0.01
22.32,-0.231,1.054,0.152
22.33,-0.011,0.544,0.056
22.34,-0.437,0.889,-0.217
22.35,-0.129,1.604,0.032
22.36,-0.123,0.917,0.106
22.37,-0.133,0.777,0.003
22.38,-0.381,0.339,-0.213
22.39,-0.302,2.0,0.064
22.4,-0.201,0.45,0.076
22.41,-0.178,1.125,0.025
22.42,-0.37,0.297,-0.2
22.43,-0.264,1.858,0.087
22.44,-0.027,0.813,0.146
22.45,-0.161,0.562,-0.004
22.46,-0.491,0.74,-0.163
22.47,-0.047,1.579,0.07
22.48,-0.24,1.11,0.148
22.49,0.024,0.386,-0.026
22.5,-0.478,0.903,-0.219
22.51,-0.057,1.552,0.208
22.52,-0.203,1.188,0.1
22.53,0.068,0.426,-0.0
22.54,-0.539,0.907,-0.197
22.55,-0.037,1.395,0.181
22.56,-0.254,1.176,0.048
22.57,-0.026,0.754,-0.04
22.58,-0.422,0.462,-0.136
22.59,-0.154,1.73,0.18
22.6,-0.091,0.819,0.09
22.61,-0.169,1.083,-0.121
22.62,-0.376,0.281,-0.172
22.63,-0.064,1.738,0.155
22.64,-0.155,0.971,0.05
22.65,-0.112,0.701,-0.111
22.66,-0.395,0.761,-0.155
22.67,-0.095,1.201,0.183
22.68,-0.279,1.507,0.003
22.69,-0.002,0.394,-0.074
22.7,-0.359,0.924,-0.194
22.71,-0.046,1.172,0.185
22.72,-0.224,1.277,0.038
22.73,-0.201,0.752,-0.127
22.74,-0.302,0.463,-0.081
22.75,-0.18,1.598,0.187
22.76,-0.075,0.957,0.024
22.77,-0.117,0.984,-0.118
22.78,-0.413,0.297,-0.13
22.79,-0.088,1.432,0.155
22.8,-0.217,0.974,-0.013
22.81,-0.187,0.798,-0.122
22.82,-0.345,0.713,-0.084
22.83,-0.043,0.972,0.247
22.84,-0.21,1.341,0.004
22.85,-0.153,0.444,-0.134
22.86,-0.406,0.983,-0.061
22.87,0.004,0.885,0.22
22.88,-0.233,1.415,0.023
22.89,-0.218,0.552,-0.129
22.9,-0.235,0.823,-0.069
22.91,-0.04,1.138,0.15
22.92,-0.055,0.768,-0.032
22.93,-0.288,1.07,-0.197
22.94,-0.244,0.61,-0.114
22.95,-0.06,1.265,0.15
22.96,-0.127,0.794,0.039
22.97,-0.369,0.813,-0.137
22.98,-0.324,1.128,-0.058
22.99,-0.109,0.791,0.187
23.0,-0.277,1.339,-0.002
23.01,-0.185,0.232,-0.115
23.02,-0.323,1.731,-0.102
23.03,0.044,0.689,0.15
23.04,-0.199,1.17,-0.02
23.05,-0.258,0.617,-0.195
23.06,-0.264,1.417,-0.048
23.07,-0.142,0.954,0.155
23.08,-0.117,0.706,0.023
23.09,-0.404,0.883,-0.146
23.1,-0.252,1.221,-0.037
23.11,-0.254,1.062,0.145
23.12,-0.123,0.681,-0.007
23.13,-0.348,0.779,-0.142
23.14,-0.269,1.638,-0.023
23.15,-0.119,0.707,0.168
23.16,-0.188,1.026,0.02
23.17,-0.35,0.355,-0.186
23.18,-0.28,1.998,0.045
23.19,-0.102,0.541,0.119
23.2,-0.19,1.062,0.03
23.21,-0.366,0.354,-0.235
23.22,-0.286,1.806,0.047
23.23,-0.19,0.787,0.119
23.24,-0.073,0.61,0.009
23.25,-0.479,0.831,-0.224
23.26,-0.032,1.463,0.087
23.27,-0.113,1.16,0.14
23.28,0.019,0.429,0.037
23.29,-0.5,0.82,-0.216
23.3,-0.031,1.678,0.056
23.31,-0.203,1.04,0.098
23.32,0.074,0.603,-0.046
23.33,-0.527,0.621,-0.213
23.34,-0.056,1.888,0.161
23.35,-0.032,0.653,0.079
23.36,-0.074,0.913,-0.045
23.37,-0.416,0.301,-0.163
23.38,-0.247,1.991,0.146
23.39,-0.07,0.717,0.14
23.4,-0.085,0.792,-0.026
23.41,-0.543,0.608,-0.136
23.42,-0.061,1.615,0.179
23.43,-0.201,1.129,0.13
23.44,-0.001,0.438,-0.029
23.45,-0.501,1.028,-0.181
23.46,-0.032,1.455,0.151
23.47,-0.244,1.233,0.092
23.48,0.034,0.599,-0.057
23.49,-0.421,0.67,-0.153
23.5,-0.072,1.666,0.079
23.51,-0.079,0.882,0.086
23.52,-0.048,0.974,-0.117
23.53,-0.363,0.266,-0.145
23.54,-0.113,1.823,0.106
23.55,-0.125,0.79,0.096
23.56,-0.09,0.956,-0.103
23.57,-0.383,0.562,-0.179
23.58,-0.021,1.622,0.118
23.59,-0.281,1.274,0.078
23.6,-0.052,0.375,-0.043
23.61,-0.465,0.943,-0.148
23.62,-0.07,1.172,0.198
23.63,-0.297,1.335,0.045
23.64,0.001,0.593,-0.111
23.65,-0.403,0.684,-0.178
23.66,-0.079,1.437,0.153
23.67,-0.135,1.011,0.051
23.68,-0.197,1.006,-0.125
23.69,-0.281,0.277,-0.095
23.7,-0.196,1.803,0.196
23.71,-0.128,0.896,0.075
23.72,-0.11,0.921,-0.102
23.73,-0.415,0.47,-0.151
23.74,-0.037,1.271,0.195
23.75,-0.302,1.29,-0.019
23.76,0.013,0.578,-0.088
23.77,-0.452,0.888,-0.107
23.78,-0.027,0.891,0.262
23.79,-0.259,1.503,0.029
23.8,-0.207,0.422,-0.047
23.81,-0.333,0.745,-0.115
23.82,-0.159,1.197,0.244
23.83,-0.246,1.2,0.007
23.84,-0.2,0.842,-0.079
23.85,-0.341,0.385,-0.003
23.86,-0.123,1.347,0.153
23.87,-0.164,0.827,0.026
23.88,-0.254,0.967,-0.11
23.89,-0.3,0.832,-0.074
23.9,-0.06,1.034,0.173
23.91,-0.284,1.002,0.031
23.92,-0.27,0.555,-0.147
23.93,-0.409,1.061,-0.017
23.94,0.006,0.762,0.196
23.95,-0.316,1.387,0.02
23.96,-0.215,0.365,-0.081
23.97,-0.292,1.562,-0.076
23.98,0.065,0.823,0.142
23.99,-0.208,0.94,-0.019
24.0,-0.347,0.765,-0.191
24.01,-0.126,1.236,-0.043
24.02,-0.224,1.18,0.182
24.03,-0.12,0.523,0.038
24.04,-0.447,0.975,-0.153
24.05,-0.247,1.047,-0.026
24.06,-0.201,0.928,0.113
24.07,-0.187,0.985,-0.001
24.08,-0.269,0.481,-0.176
24.09,-0.342,1.846,0.035
24.1,-0.062,0.607,0.185
24.11,-0.147,0.887,0.009
24.12,-0.326,0.289,-0.206
24.13,-0.238,1.996,0.059
24.14,-0.105,0.559,0.161
24.15,-0.203,0.929,0.009
24.16,-0.404,0.349,-0.212
24.17,-0.288,1.854,0.057
24.18,-0.272,0.752,0.073
24.19,0.014,0.577,-0.045
24.2,-0.548,0.826,-0.228
24.21,0.113,1.489,0.036
24.22,-0.134,1.194,0.072
24.23,0.108,0.406,-0.024
24.24,-0.54,0.759,-0.169
24.25,0.033,1.751,0.089
24.26,-0.18,0.798,0.13
24.27,-0.017,0.893,-0.029
24.28,-0.545,0.31,-0.172
24.29,-0.071,2.0,0.185
24.3,-0.145,0.63,0.102
24.31,-0.135,0.878,-0.031
24.32,-0.375,0.36,-0.158
24.33,-0.232,1.85,0.12
24.34,-0.081,0.913,0.09
24.35,-0.004,0.635,-0.041
24.36,-0.451,0.833,-0.159
24.37,-0.013,1.437,0.137
24.38,-0.233,1.315,0.104
24.39,0.002,0.478,-0.023
24.4,-0.559,0.895,-0.143
24.41,0.094,1.583,0.126
24.42,-0.24,1.024,0.061
24.43,0.006,0.861,-0.085
24.44,-0.327,0.374,-0.203
24.45,-0.081,1.795,0.082
24.46,-0.184,0.798,0.062
24.47,-0.148,1.022,-0.055
24.48,-0.386,0.311,-0.142
24.49,-0.183,1.544,0.171
24.5,-0.182,1.036,0.028
24.51,-0.057,0.734,-0.149
24.52,-0.419,0.769,-0.117
24.53,-0.066,1.114,0.25
24.54,-0.317,1.493,0.042
24.55,-0.101,0.363,-0.07
24.56,-0.415,0.892,-0.073
24.57,-0.065,1.014,0.205
24.58,-0.3,1.277,0.007
24.59,-0.245,0.767,-0.081
24.6,-0.402,0.485,-0.012
24.61,-0.069,1.306,0.209
24.62,-0.169,0.793,0.046
24.63,-0.32,0.999,-0.107
24.64,-0.304,0.384,-0.042
24.65,-0.042,1.239,0.153
24.66,-0.193,1.067,-0.034
24.67,-0.218,0.63,-0.141
24.68,-0.307,1.406,-0.089
24.69,0.11,0.762,0.12
24.7,-0.234,1.268,-0.068
24.71,-0.178,0.363,-0.195
24.72,-0.246,1.753,-0.074
24.73,-0.028,0.714,0.157
24.74,-0.196,1.048,0.031
24.75,-0.315,0.575,-0.22
24.76,-0.304,1.234,-0.064
24.77,-0.128,0.987,0.088
24.78,-0.117,0.769,0.027
24.79,-0.377,0.896,-0.161
24.8,-0.314,1.303,0.105
24.81,-0.217,0.995,0.194
24.82,-0.146,0.659,0.076
24.83,-0.421,0.682,-0.15
24.84,-0.158,1.82,0.046
24.85,-0.039,0.803,0.128
24.86,-0.126,0.956,0.042
24.87,-0.48,0.218,-0.241
24.88,-0.227,2.0,0.131
24.89,-0.253,0.544,0.085
24.9,-0.219,0.907,0.054
24.91,-0.423,0.415,-0.194
24.92,-0.077,2.0,0.118
24.93,-0.101,0.709,0.109
24.94,0.021,0.623,-0.072
24.95,-0.545,0.729,-0.198
24.96,0.028,1.592,0.152
24.97,-0.273,1.209,0.105
24.98,0.122,0.393,-0.031
24.99,-0.505,0.991,-0.201
25.0,0.011,1.57,0.175
25.01,-0.155,1.068,0.101
25.02,-0.045,0.705,-0.078
25.03,-0.353,0.502,-0.167
25.04,-0.135,1.839,0.033
25.05,-0.091,0.739,0.047
25.06,-0.107,1.098,-0.105
25.07,-0.313,0.23,-0.174
25.08,-0.125,1.799,0.105
25.09,-0.091,0.923,0.06
25.1,-0.141,0.78,-0.081
25.11,-0.431,0.659,-0.154
25.12,-0.088,1.338,0.191
25.13,-0.344,1.364,0.09
25.14,0.023,0.446,-0.105
25.15,-0.534,0.917,-0.146
25.16,-0.004,1.071,0.207
25.17,-0.402,1.369,0.08
25.18,-0.108,0.688,-0.137
25.19,-0.396,0.466,-0.088
25.2,-0.094,1.424,0.252
25.21,-0.25,0.989,0.009
25.22,-0.218,0.99,-0.075
25.23,-0.369,0.241,-0.052
25.24,-0.147,1.378,0.207
25.25,-0.262,0.981,-0.002
25.26,-0.169,0.765,-0.093
25.27,-0.42,0.82,-0.043
25.28,0.055,0.91,0.151
25.29,-0.3,1.302,0.028
25.3,-0.177,0.395,-0.143
25.31,-0.445,1.188,-0.035
25.32,0.09,0.783,0.146
25.33,-0.285,1.306,-0.013
25.34,-0.307,0.492,-0.117
25.35,-0.221,1.3,-0.05
25.36,-0.14,0.981,0.171
25.37,-0.119,0.727,-0.009
25.38,-0.415,0.946,-0.143
25.39,-0.178,1.24,-0.008
25.4,-0.227,1.094,0.155
25.41,-0.09,0.623,0.041
25.42,-0.43,0.787,-0.191
25.43,-0.315,1.62,0.015
25.44,-0.197,0.703,0.121
25.45,-0.236,1.031,0.033
25.46,-0.263,0.284,-0.194
25.47,-0.467,1.977,0.092
25.48,-0.074,0.487,0.131
25.49,-0.224,1.016,0.049
25.5,-0.365,0.351,-0.16
25.51,-0.331,1.858,0.063
25.52,-0.182,0.789,0.115
25.53,-0.091,0.595,0.017
25.54,-0.573,0.865,-0.186
25.55,-0.107,1.497,0.073
25.56,-0.228,1.099,0.146
25.57,-0.015,0.431,0.027
25.58,-0.54,0.81,-0.152
25.59,-0.035,1.658,0.079
25.6,-0.053,0.867,0.06
25.61,-0.046,0.802,-0.021
25.62,-0.45,0.322,-0.148
25.63,-0.172,1.997,0.247
25.64,-0.065,0.605,0.119
25.65,-0.074,0.985,0.014
25.66,-0.384,0.343,-0.191
25.67,-0.153,1.839,0.171
25.68,-0.128,0.926,0.046
25.69,0.007,0.644,-0.083
25.7,-0.36,0.833,-0.208
25.71,-0.037,1.492,0.141
25.72,-0.284,1.269,0.052
25.73,-0.021,0.471,-0.11
25.74,-0.481,0.926,-0.157
25.75,-0.062,1.094,0.254
25.76,-0.287,1.417,-0.01
25.77,-0.086,0.545,-0.111
25.78,-0.451,0.617,-0.11
25.79,-0.031,1.271,0.187
25.8,-0.246,0.979,0.017
25.81,-0.195,1.003,-0.124
25.82,-0.421,0.244,-0.076
25.83,-0.057,1.392,0.232
25.84,-0.196,0.957,0.02
25.85,-0.321,0.875,-0.106
25.86,-0.348,0.626,-0.054
25.87,-0.057,0.991,0.189
25.88,-0.216,1.3,-0.003
25.89,-0.166,0.398,-0.136
25.9,-0.296,1.387,-0.093
25.91,-0.426,0.877,-0.121
25.92,-0.028,1.082,0.279
25.93,-0.316,1.454,0.061
25.94,-0.094,0.451,-0.154
25.95,-0.425,0.986,-0.053
25.96,0.102,0.928,0.139
25.97,-0.381,1.357,0.027
25.98,-0.104,0.512,-0.062
25.99,-0.362,0.974,-0.056
26.0,0.03,1.086,0.122
26.01,-0.116,0.768,-0.042
26.02,-0.407,0.991,-0.159
26.03,-0.215,0.705,-0.039
26.04,-0.199,1.094,0.168
26.05,-0.127,0.839,0.018
26.06,-0.307,0.761,-0.153
26.07,-0.257,1.613,0.004
26.08,-0.068,0.673,0.162
26.09,-0.257,1.073,-0.004
26.1,-0.279,0.336,-0.209
26.11,-0.32,1.99,0.011
26.12,-0.005,0.579,0.105
26.13,-0.187,0.942,0.0
26.14,-0.441,0.492,-0.209
26.15,-0.265,1.771,0.032
26.16,-0.177,0.789,0.079
26.17,-0.037,0.594,-0.001
26.18,-0.482,0.869,-0.227
26.19,-0.037,1.447,0.108
26.2,-0.15,1.156,0.142
26.21,0.011,0.453,0.038
26.22,-0.62,0.742,-0.14
26.23,-0.045,1.779,0.091
26.24,-0.119,0.755,0.106
26.25,0.02,0.913,-0.013
26.26,-0.522,0.315,-0.22
26.27,-0.054,2.0,0.122
26.28,-0.141,0.585,0.094
26.29,-0.068,0.902,-0.01
26.3,-0.404,0.349,-0.219
26.31,-0.041,1.891,0.108
26.32,-0.089,0.865,0.114
26.33,0.078,0.536,-0.047
26.34,-0.539,0.871,-0.197
26.35,0.005,1.506,0.146
26.36,-0.207,1.138,0.08
26.37,0.105,0.49,-0.032
26.38,-0.5,0.891,-0.207
26.39,0.032,1.64,0.104
26.4,-0.118,0.963,0.04
26.41,-0.01,0.89,-0.034
26.42,-0.364,0.339,-0.135
26.43,-0.121,1.918,0.108
26.44,-0.124,0.742,0.074
26.45,-0.11,1.046,-0.084
26.46,-0.273,0.227,-0.103
26.47,-0.109,1.784,0.163
26.48,-0.099,0.908,0.026
26.49,-0.117,0.836,-0.098
26.5,-0.317,0.601,-0.104
26.51,-0.143,1.291,0.179
26.52,-0.266,1.394,-0.07
26.53,0.022,0.466,-0.109
26.54,-0.428,0.972,-0.09
26.55,0.033,0.901,0.211
26.56,-0.274,1.418,0.023
26.57,-0.187,0.604,-0.147
26.58,-0.354,0.714,-0.011
26.59,-0.052,1.126,0.163
26.6,-0.18,0.938,-0.002
26.61,-0.262,0.915,-0.148
26.62,-0.282,0.554,-0.004
26.63,-0.042,1.22,0.187
26.64,-0.198,0.808,0.009
26.65,-0.32,0.828,-0.093
26.66,-0.219,1.215,-0.026
26.67,-0.099,0.849,0.146
26.68,-0.2,1.135,-0.039
26.69,-0.253,0.397,-0.16
26.7,-0.26,1.863,-0.005
26.71,-0.113,0.578,0.167
26.72,-0.274,1.172,0.033
26.73,-0.327,0.383,-0.233
26.74,-0.225,1.731,0.003
26.75,-0.171,0.823,0.102
26.76,-0.09,0.706,0.007
26.77,-0.439,0.819,-0.247
26.78,-0.094,1.401,0.034
26.79,-0.192,1.131,0.129
26.8,-0.11,0.438,0.064
26.81,-0.52,0.818,-0.168
26.82,-0.266,1.692,0.121
26.83,-0.23,0.717,0.115
26.84,-0.185,0.86,0.037
26.85,-0.448,0.344,-0.198
26.86,-0.228,2.0,0.076
26.87,-0.086,0.583,0.115
26.88,-0.192,0.948,0.013
26.89,-0.458,0.225,-0.175
26.9,-0.1,1.92,0.085
26.91,-0.076,0.851,0.088
26.92,0.019,0.64,-0.05
26.93,-0.472,0.746,-0.187
26.94,0.007,1.537,0.153
26.95,-0.167,1.22,0.051
26.96,0.035,0.457,-0.014
26.97,-0.468,0.934,-0.206
26.98,-0.004,1.616,0.175
26.99,-0.25,1.03,0.084
27.0,-0.006,0.819,-0.011
27.01,-0.376,0.406,-0.143
27.02,-0.225,1.778,0.133
27.03,-0.115,0.761,0.073
27.04,-0.185,1.028,-0.098
27.05,-0.313,0.249,-0.106
27.06,-0.191,1.524,0.171
27.07,-0.22,0.986,0.025
27.08,-0.07,0.788,-0.113
27.09,-0.382,0.757,-0.076
27.1,-0.152,1.112,0.251
27.11,-0.43,1.413,0.055
27.12,-0.043,0.437,-0.065
27.13,-0.446,0.968,-0.07
27.14,-0.015,0.923,0.213
27.15,-0.288,1.366,0.004
27.16,-0.195,0.674,-0.148
27.17,-0.296,0.571,-0.053
27.18,0.0,1.26,0.164
27.19,-0.145,0.887,0.002
27.2,-0.392,0.934,-0.126
27.21,-0.213,0.689,0.013
27.22,-0.188,1.134,0.163
27.23,-0.197,0.843,-0.005
27.24,-0.338,0.74,-0.125
27.25,-0.228,1.666,0.001
27.26,-0.082,0.898,0.151
27.27,-0.143,0.788,-0.025
27.28,-0.434,0.413,-0.206
27.29,-0.277,1.973,0.093
27.3,-0.131,0.494,0.114
27.31,-0.177,1.077,0.007
27.32,-0.417,0.221,-0.221
27.33,-0.188,1.996,0.084
27.34,-0.055,0.796,0.106
27.35,-0.154,0.573,-0.014
27.36,-0.493,0.656,-0.203
27.37,-0.071,1.638,0.182
27.38,-0.089,1.166,0.125
27.39,0.089,0.395,-0.021
27.4,-0.543,0.901,-0.213
27.41,0.057,1.589,0.137
27.42,-0.173,1.014,0.063
27.43,0.094,0.836,-0.059
27.44,-0.45,0.491,-0.161
27.45,-0.029,1.948,0.132
27.46,-0.067,0.703,0.031
27.47,-0.067,1.094,-0.054
27.48,-0.375,0.244,-0.116
27.49,-0.179,1.75,0.132
27.5,-0.193,0.891,0.032
27.51,-0.012,0.872,-0.105
27.52,-0.362,0.633,-0.123
27.53,-0.145,1.167,0.203
27.54,-0.369,1.405,0.013
27.55,0.008,0.516,-0.077
27.56,-0.438,0.901,-0.059
27.57,-0.053,0.94,0.207
27.58,-0.334,1.308,-0.006
27.59,-0.127,0.679,-0.101
27.6,-0.258,0.869,-0.033
27.61,-0.058,1.14,0.14
27.62,-0.146,0.69,-0.035
27.63,-0.344,1.018,-0.142
27.64,-0.118,0.96,-0.041
27.65,-0.151,1.127,0.192
27.66,-0.16,0.741,-0.035
27.67,-0.428,0.733,-0.177
27.68,-0.186,1.371,-0.047
27.69,-0.121,0.755,0.147
27.7,-0.227,1.195,-0.058
27.71,-0.312,0.323,-0.167
27.72,-0.249,1.958,0.025
27.73,-0.038,0.558,0.102
27.74,-0.199,1.07,0.014
27.75,-0.4,0.441,-0.203
27.76,-0.22,1.757,0.106
27.77,-0.125,0.927,0.088
27.78,-0.088,0.525,-0.012
27.79,-0.552,0.884,-0.215
27.8,-0.079,1.514,0.088
27.81,-0.158,1.128,0.107
27.82,-0.05,0.459,0.005
27.83,-0.497,0.709,-0.14
27.84,-0.042,1.742,0.113
27.85,-0.045,0.813,0.105
27.86,-0.085,0.824,-0.077
27.87,-0.475,0.256,-0.123
27.88,-0.157,1.952,0.155
27.89,-0.062,0.616,0.092
27.9,-0.045,0.998,-0.058
27.91,-0.364,0.401,-0.169
27.92,-0.13,1.739,0.185
27.93,-0.227,1.059,0.038
27.94,0.018,0.663,-0.057
27.95,-0.437,0.866,-0.121
27.96,-0.055,1.323,0.157
27.97,-0.384,1.379,0.041
27.98,0.02,0.455,-0.063
27.99,-0.47,0.779,-0.074
28.0,-0.129,1.168,0.189
28.01,-0.318,1.132,0.019
28.02,-0.223,0.902,-0.064
28.03,-0.305,0.272,-0.007
28.04,-0.194,1.387,0.226
28.05,-0.223,0.876,0.009
28.06,-0.318,1.008,-0.08
28.07,-0.235,0.415,-0.05
28.08,-0.076,1.198,0.115
28.09,-0.128,0.932,-0.022
28.1,-0.313,0.747,-0.138
28.11,-0.207,1.553,0.023
28.12,-0.128,0.763,0.151
28.13,-0.303,1.006,0.02
28.14,-0.269,0.314,-0.159
28.15,-0.432,1.958,0.065
28.16,-0.13,0.447,0.139
28.17,-0.204,1.117,-0.022
28.18,-0.482,0.3,-0.209
28.19,-0.205,1.823,0.076
28.2,-0.212,0.76,0.033
28.21,-0.016,0.596,-0.051
28.22,-0.477,0.824,-0.211
28.23,0.024,1.473,0.021
28.24,-0.08,1.172,0.079
28.25,0.056,0.428,-0.03
28.26,-0.51,0.737,-0.164
28.27,0.003,1.721,0.117
28.28,-0.183,0.841,0.129
28.29,-0.006,0.899,-0.066
28.3,-0.441,0.34,-0.143
28.31,-0.061,2.0,0.15
28.32,-0.07,0.641,0.077
28.33,-0.078,0.988,-0.1
28.34,-0.331,0.312,-0.186
28.35,-0.162,1.603,0.109
28.36,-0.214,1.116,-0.019
28.37,-0.043,0.635,-0.148
28.38,-0.346,0.801,-0.132
28.39,-0.113,1.144,0.211
28.4,-0.315,1.443,0.025
28.41,-0.056,0.538,-0.088
28.42,-0.386,0.825,-0.058
28.43,-0.175,1.121,0.259
28.44,-0.279,1.297,0.028
28.45,-0.098,0.771,-0.112
28.46,-0.243,0.788,-0.031
28.47,-0.055,1.196,0.111
28.48,-0.193,0.673,-0.044
28.49,-0.409,1.022,-0.146
28.5,-0.17,1.112,-0.01
28.51,-0.102,0.941,0.122
28.52,-0.222,0.854,-0.012
28.53,-0.345,0.677,-0.146
28.54,-0.318,1.735,0.07
28.55,-0.062,0.571,0.156
28.56,-0.264,1.192,-0.015
28.57,-0.257,0.255,-0.194
28.58,-0.185,1.974,0.098
28.59,0.008,0.7,0.099
28.6,-0.135,0.729,-0.03
28.61,-0.436,0.565,-0.219
28.62,-0.039,1.637,0.067
28.63,-0.176,1.034,0.074
28.64,0.058,0.434,-0.036
28.65,-0.691,0.881,-0.162
28.66,0.029,1.555,0.192
28.67,-0.244,1.085,0.061
28.68,0.03,0.552,-0.018
28.69,-0.42,0.594,-0.121
28.7,-0.045,1.822,0.104
28.71,0.005,0.832,0.022
28.72,-0.105,0.995,-0.112
28.73,-0.251,0.182,-0.146
28.74,-0.186,1.809,0.096
28.75,-0.1,0.839,0.057
28.76,-0.173,0.9,-0.13
28.77,-0.441,0.508,-0.112
28.78,-0.144,1.283,0.256
28.79,-0.353,1.318,0.011
28.8,-0.046,0.487,-0.122
28.81,-0.453,0.981,-0.032
28.82,-0.036,0.838,0.181
28.83,-0.343,1.382,-0.018
28.84,-0.18,0.557,-0.119
28.85,-0.292,1.067,-0.047
28.86,0.021,1.01,0.152
28.87,-0.257,0.95,0.024
28.88,-0.387,0.724,-0.223
28.89,-0.267,1.319,0.062
28.9,-0.219,1.004,0.18
28.91,-0.168,0.624,0.025
28.92,-0.442,0.88,-0.172
28.93,-0.183,1.407,0.078
28.94,-0.198,0.897,0.09
28.95,-0.12,0.675,0.017
28.96,-0.468,0.526,-0.144
28.97,-0.036,1.925,0.035
28.98,-0.005,0.717,0.145
28.99,-0.107,0.967,0.003
29.0,-0.441,0.189,-0.194
29.01,-0.181,2.0,0.172
29.02,-0.183,0.62,0.112
29.03,-0.092,0.813,-0.03
29.04,-0.507,0.527,-0.148
29.05,-0.038,1.7,0.157
29.06,-0.116,1.187,0.05
29.07,0.045,0.363,-0.039
29.08,-0.446,0.937,-0.136
29.09,-0.094,1.309,0.139
29.1,-0.282,1.254,0.018
29.11,-0.023,0.699,-0.084
29.12,-0.38,0.61,-0.096
29.13,-0.126,1.635,0.151
29.14,-0.063,0.967,-0.016
29.15,-0.202,1.09,-0.143
29.16,-0.361,0.186,-0.038
29.17,-0.281,1.568,0.306
29.18,-0.223,0.985,0.048
29.19,-0.252,0.842,-0.107
29.2,-0.216,1.013,-0.049
29.21,-0.053,0.981,0.199
29.22,-0.307,1.083,-0.004
29.23,-0.24,0.511,-0.152
29.24,-0.402,1.248,0.029
29.25,0.055,0.7,0.109
29.26,-0.327,1.316,0.032
29.27,-0.204,0.436,-0.179
29.28,-0.376,1.648,0.097
29.29,-0.092,0.805,0.169
29.3,-0.176,0.752,0.02
29.31,-0.341,0.815,-0.223
29.32,-0.009,1.463,0.023
29.33,-0.094,1.199,0.104
29.34,0.058,0.424,0.003
29.35,-0.657,0.765,-0.219
29.36,-0.025,1.737,0.096
29.37,-0.347,0.79,0.112
29.38,-0.083,0.81,0.016
29.39,-0.562,0.3,-0.151
29.4,-0.085,2.0,0.206
29.41,-0.103,0.654,0.157
29.42,-0.059,0.821,-0.077
29.43,-0.347,0.241,-0.174
29.44,-0.139,1.87,0.056
29.45,-0.111,0.894,0.058
29.46,0.032,0.762,-0.074
29.47,-0.419,0.76,-0.166
29.48,0.062,1.523,0.148
29.49,-0.232,1.325,0.029
29.5,-0.023,0.453,-0.083
29.51,-0.483,0.883,-0.111
29.52,-0.151,1.356,0.199
29.53,-0.28,1.285,-0.013
29.54,-0.086,0.756,-0.132
29.55,-0.349,0.35,-0.06
29.56,-0.124,1.427,0.158
29.57,-0.161,0.849,-0.032
29.58,-0.261,1.106,-0.171
29.59,-0.281,0.336,-0.06
29.6,-0.023,1.287,0.184
29.61,-0.26,1.015,-0.013
29.62,-0.239,0.67,-0.149
29.63,-0.229,1.349,-0.026
29.64,-0.036,0.682,0.112
29.65,-0.318,1.289,-0.029
29.66,-0.247,0.308,-0.159
29.67,-0.268,1.99,0.105
29.68,-0.064,0.572,0.132
29.69,-0.153,1.014,0.003
29.7,-0.465,0.312,-0.236
29.71,-0.134,1.966,0.084
29.72,-0.146,0.735,0.042
29.73,-0.047,0.621,-0.061
29.74,-0.566,0.755,-0.213
29.75,0.07,1.562,0.064
29.76,-0.199,1.137,0.08
29.77,0.045,0.392,-0.01
29.78,-0.617,0.825,-0.114
29.79,-0.058,1.595,0.22
29.8,-0.16,0.972,0.119
29.81,-0.016,0.752,-0.037
29.82,-0.438,0.396,-0.107
29.83,-0.154,1.848,0.098
29.84,-0.102,0.702,0.043
29.85,-0.105,1.068,-0.083
29.86,-0.338,0.257,-0.106
29.87,-0.204,1.659,0.148
29.88,-0.248,0.992,0.025
29.89,-0.031,0.774,-0.135
29.9,-0.406,0.727,-0.118
29.91,-0.148,1.099,0.27
29.92,-0.301,1.474,0.033
29.93,-0.1,0.41,-0.137
29.94,-0.331,0.969,-0.069
29.95,-0.007,0.951,0.204
29.96,-0.189,1.228,-0.025
29.97,-0.248,0.674,-0.161
29.98,-0.205,0.621,-0.06
29.99,-0.122,1.233,0.211
30.0,-0.124,0.768,-0.003
30.01,-0.366,1.01,-0.135
30.02,-0.177,0.762,-0.002
30.03,-0.124,1.1,0.135
30.04,-0.174,0.875,-0.031
30.05,-0.291,0.705,-0.147
30.06,-0.314,1.697,-0.009
30.07,-0.07,0.662,0.186
30.08,-0.258,1.108,-0.063
30.09,-0.306,0.295,-0.168
30.1,-0.398,1.965,0.13
30.11,-0.03,0.589,0.118
30.12,-0.282,0.934,0.022
30.13,-0.401,0.505,-0.191
30.14,-0.166,1.735,0.058
30.15,-0.136,0.914,0.074
30.16,0.002,0.488,-0.024
30.17,-0.612,0.887,-0.159
30.18,0.03,1.527,0.143
30.19,-0.271,1.136,0.125
30.2,0.154,0.532,0.004
30.21,-0.593,0.726,-0.187
30.22,0.051,1.792,0.142
30.23,-0.167,0.751,0.058
30.24,-0.058,0.979,-0.046
30.25,-0.305,0.287,-0.184
30.26,-0.118,2.0,0.115
30.27,-0.079,0.698,0.106
30.28,-0.109,0.967,-0.059
30.29,-0.373,0.369,-0.129
30.3,-0.166,1.45,0.139
30.31,-0.234,1.245,0.025
30.32,-0.043,0.54,-0.128
30.33,-0.439,0.872,-0.115
30.34,-0.025,1.099,0.238
30.35,-0.381,1.401,0.04
30.36,-0.082,0.521,-0.074
30.37,-0.455,0.722,-0.037
30.38,-0.106,1.116,0.234
30.39,-0.252,1.134,0.015
30.4,-0.236,0.857,-0.076
30.41,-0.283,0.553,-0.005
30.42,-0.035,1.263,0.139
30.43,-0.218,0.717,0.005
30.44,-0.402,1.054,-0.138
30.45,-0.323,1.057,-0.016
30.46,-0.133,0.937,0.193
30.47,-0.263,1.049,-0.022
30.48,-0.415,0.709,-0.154
30.49,-0.245,1.698,0.078
30.5,-0.1,0.667,0.16
30.51,-0.203,0.965,0.025
30.52,-0.4,0.212,-0.147
30.53,-0.222,2.0,0.049
30.54,-0.002,0.649,0.074
30.55,-0.142,0.84,-0.041
30.56,-0.432,0.41,-0.219
30.57,-0.073,1.851,0.132
30.58,-0.173,0.907,0.064
30.59,0.017,0.415,-0.057
30.6,-0.498,0.885,-0.2
30.61,0.051,1.524,0.143
30.62,-0.132,1.2,0.036
30.63,0.092,0.501,-0.061
30.64,-0.414,0.747,-0.205
30.65,0.028,1.765,0.122
30.66,-0.113,0.87,0.083
30.67,-0.059,0.919,-0.09
30.68,-0.376,0.27,-0.16
30.69,-0.142,1.885,0.134
30.7,-0.153,0.755,0.054
30.71,-0.07,1.024,-0.074
30.72,-0.405,0.362,-0.135
30.73,-0.097,1.504,0.191
30.74,-0.325,1.214,0.042
30.75,-0.065,0.537,-0.106
30.76,-0.495,0.84,-0.085
30.77,-0.058,1.01,0.212
30.78,-0.38,1.522,-0.004
30.79,-0.081,0.452,-0.111
30.8,-0.334,0.802,-0.11
30.81,0.035,1.058,0.223
30.82,-0.249,1.119,-0.007
30.83,-0.259,0.907,-0.135
30.84,-0.227,0.527,-0.034
30.85,-0.139,1.295,0.156
30.86,-0.168,0.736,-0.029
30.87,-0.3,0.874,-0.117
30.88,-0.223,0.901,-0.094
30.89,-0.051,1.005,0.122
30.9,-0.209,1.01,-0.052
30.91,-0.295,0.585,-0.176
30.92,-0.329,1.764,0.011
30.93,-0.069,0.636,0.181
30.94,-0.283,1.19,0.051
30.95,-0.25,0.407,-0.188
30.96,-0.446,1.787,0.021
30.97,-0.057,0.66,0.126
30.98,-0.215,0.89,-0.039
30.99,-0.395,0.658,-0.241
31.0,-0.208,1.496,0.086
31.01,-0.165,1.053,0.16
31.02,0.033,0.399,0.059
31.03,-0.434,0.923,-0.188
31.04,-0.123,1.563,0.081
31.05,-0.151,0.972,0.088
31.06,-0.058,0.689,-0.004
31.07,-0.453,0.448,-0.196
31.08,-0.109,2.0,0.087
31.09,-0.146,0.542,0.089
31.1,-0.18,0.989,0.008
31.11,-0.421,0.157,-0.19
31.12,-0.062,2.0,0.139
31.13,-0.031,0.75,0.084
31.14,-0.079,0.66,-0.073
31.15,-0.387,0.587,-0.168
31.16,-0.107,1.633,0.125
31.17,-0.152,1.102,0.098
31.18,0.051,0.477,-0.048
31.19,-0.504,0.963,-0.155
31.2,0.039,1.476,0.16
31.21,-0.238,1.261,0.04
31.22,0.083,0.641,-0.035
31.23,-0.467,0.547,-0.104
31.24,-0.153,1.602,0.148
31.25,-0.21,0.898,0.093
31.26,-0.179,1.005,-0.102
31.27,-0.424,0.221,-0.079
31.28,-0.167,1.441,0.276
31.29,-0.151,0.833,0.075
31.3,-0.316,1.062,-0.113
31.31,-0.305,0.391,-0.012
31.32,-0.102,1.174,0.177
31.33,-0.27,1.108,-0.008
31.34,-0.181,0.568,-0.127
31.35,-0.313,1.443,-0.116
31.36,0.051,0.708,0.148
31.37,-0.313,1.255,-0.012
31.38,-0.22,0.426,-0.077
31.39,-0.334,1.551,-0.081
31.4,0.0,0.773,0.09
31.41,-0.233,0.963,-0.036
31.42,-0.344,0.686,-0.185
31.43,-0.24,1.305,-0.045
31.44,-0.224,1.077,0.087
31.45,-0.1,0.687,0.034
31.46,-0.345,0.903,-0.144
31.47,-0.228,1.377,0.073
31.48,-0.157,1.01,0.182
31.49,-0.072,0.721,0.067
31.5,-0.421,0.598,-0.177
31.51,-0.318,1.851,0.083
31.52,-0.168,0.485,0.093
31.53,-0.198,1.135,0.008
31.54,-0.365,0.205,-0.221
31.55,-0.28,2.0,0.092
31.56,-0.152,0.57,0.14
31.57,-0.183,0.773,-0.022
31.58,-0.393,0.525,-0.176
31.59,-0.072,1.715,0.054
31.6,-0.131,1.035,0.137
31.61,0.05,0.377,-0.073
31.62,-0.573,0.928,-0.173
31.63,0.016,1.536,0.104
31.64,-0.187,1.098,0.082
31.65,-0.016,0.512,-0.034
31.66,-0.494,0.624,-0.165
31.67,-0.067,1.864,0.145
31.68,-0.053,0.737,0.074
31.69,-0.084,0.986,-0.025
31.7,-0.354,0.237,-0.144
31.71,-0.23,1.868,0.137
31.72,-0.085,0.795,0.074
31.73,-0.119,0.89,-0.048
31.74,-0.389,0.528,-0.164
31.75,-0.212,1.505,0.22
31.76,-0.245,1.243,0.105
31.77,-0.035,0.52,-0.095
31.78,-0.502,0.926,-0.124
31.79,-0.099,1.138,0.206
31.8,-0.291,1.432,0.041
31.81,-0.032,0.546,-0.097
31.82,-0.396,0.637,-0.102
31.83,-0.064,1.256,0.187
31.84,-0.208,0.988,-0.009
31.85,-0.197,0.974,-0.111
31.86,-0.305,0.241,-0.062
31.87,-0.227,1.47,0.222
31.88,-0.19,0.877,0.005
31.89,-0.243,0.853,-0.065
31.9,-0.365,0.692,-0.047
31.91,-0.038,1.021,0.222
31.92,-0.221,1.174,-0.077
31.93,-0.155,0.471,-0.171
31.94,-0.146,1.699,-0.134
31.95,0.048,0.709,0.097
31.96,-0.284,1.175,-0.039
31.97,-0.301,0.351,-0.156
31.98,-0.476,1.093,-0.011
31.99,-0.092,0.933,0.113
32.0,-0.275,0.959,0.015
32.01,-0.304,0.779,-0.148
32.02,-0.196,1.329,0.02
32.03,-0.234,1.066,0.151
32.04,-0.151,0.599,0.026
32.05,-0.432,0.858,-0.164
32.06,-0.142,1.578,0.025
32.07,-0.115,0.879,0.152
32.08,-0.042,0.537,-0.015
32.09,-0.584,0.632,-0.173
32.1,-0.157,1.849,0.138
32.11,-0.233,0.622,0.093
32.12,-0.103,0.951,-0.017
32.13,-0.513,0.244,-0.157
32.14,-0.156,2.0,0.168
32.15,0.012,0.709,0.096
32.16,-0.101,0.881,-0.051
32.17,-0.404,0.494,-0.145
32.18,-0.098,1.614,0.11
32.19,-0.153,1.162,0.027
32.2,0.049,0.551,-0.115
32.21,-0.495,0.975,-0.179
32.22,0.065,1.412,0.145
32.23,-0.217,1.291,0.057
32.24,0.012,0.539,-0.082
32.25,-0.436,0.691,-0.128
32.26,-0.128,1.372,0.17
32.27,-0.247,1.035,0.056
32.28,-0.197,0.936,-0.114
32.29,-0.292,0.252,-0.046
32.3,-0.199,1.547,0.191
32.31,-0.125,0.767,-0.003
32.32,-0.3,1.097,-0.136
32.33,-0.307,0.444,-0.062
32.34,-0.113,1.141,0.262
32.35,-0.297,1.326,-0.052
32.36,-0.064,0.393,-0.11
32.37,-0.355,1.237,-0.072
32.38,0.056,0.741,0.146
32.39,-0.428,1.339,0.058
32.4,-0.243,0.416,-0.137
32.41,-0.241,1.36,-0.03
32.42,-0.047,0.885,0.131
32.43,-0.174,0.877,0.008
32.44,-0.361,0.894,-0.175
32.45,-0.273,1.081,0.047
32.46,-0.192,1.096,0.183
32.47,-0.168,0.689,0.017
32.48,-0.375,0.872,-0.145
32.49,-0.222,1.459,0.082
32.5,-0.142,0.911,0.233
32.51,-0.122,0.773,0.019
32.52,-0.492,0.418,-0.214
32.53,-0.203,2.0,0.092
32.54,-0.045,0.607,0.118
32.55,-0.178,1.041,0.032
32.56,-0.46,0.216,-0.238
32.57,-0.131,2.0,0.059
32.58,-0.23,0.682,0.063
32.59,-0.07,0.67,-0.008
32.6,-0.544,0.681,-0.174
32.61,-0.027,1.542,0.143
32.62,-0.106,1.242,0.125
32.63,0.082,0.357,-0.037
32.64,-0.51,0.912,-0.173
32.65,0.007,1.572,0.091
32.66,-0.128,1.064,0.067
32.67,-0.007,0.843,-0.037
32.68,-0.391,0.494,-0.145
32.69,-0.098,1.918,0.21
32.7,-0.084,0.742,0.08
32.71,-0.106,1.038,-0.032
32.72,-0.316,0.202,-0.149
32.73,-0.21,1.706,0.137
32.74,-0.176,0.963,0.016
32.75,-0.158,0.79,-0.093
32.76,-0.382,0.638,-0.13
32.77,-0.121,1.187,0.218
32.78,-0.315,1.374,0.071
32.79,-0.017,0.476,-0.094
32.8,-0.458,0.9,-0.064
32.81,0.073,0.92,0.223
32.82,-0.305,1.45,-0.055
32.83,-0.237,0.56,-0.107
32.84,-0.249,0.717,-0.052
32.85,-0.103,1.233,0.178
32.86,-0.098,0.76,-0.004
32.87,-0.352,1.044,-0.176
32.88,-0.212,0.757,-0.033
32.89,-0.231,1.072,0.162
32.9,-0.113,0.652,0.019
32.91,-0.423,0.911,-0.126
32.92,-0.226,1.496,0.003
32.93,-0.184,0.861,0.155
32.94,-0.165,0.89,-0.021
32.95,-0.375,0.448,-0.204
32.96,-0.218,1.962,0.084
32.97,-0.081,0.562,0.116
32.98,-0.217,1.016,0.01
32.99,-0.431,0.243,-0.177
33.0,-0.207,2.0,0.058
33.01,-0.154,0.656,0.126
33.02,-0.14,0.697,-0.027
33.03,-0.622,0.624,-0.144
33.04,0.009,1.65,0.133
33.05,-0.222,1.117,0.134
33.06,0.101,0.366,-0.038
33.07,-0.583,0.891,-0.181
33.08,-0.019,1.548,0.147
33.09,-0.079,1.114,0.09
33.1,-0.04,0.643,-0.017
33.11,-0.379,0.514,-0.138
33.12,-0.161,1.8,0.124
33.13,-0.028,0.731,0.06
33.14,-0.072,1.096,-0.095
33.15,-0.315,0.189,-0.163
33.16,-0.196,1.778,0.16
33.17,-0.119,0.957,0.056
33.18,-0.129,0.747,-0.093
33.19,-0.366,0.622,-0.175
33.2,-0.12,1.301,0.17
33.21,-0.325,1.38,0.068
33.22,0.014,0.402,-0.088
33.23,-0.486,0.94,-0.088
33.24,-0.042,0.979,0.206
33.25,-0.287,1.328,0.022
33.26,-0.201,0.683,-0.08
33.27,-0.368,0.511,-0.017
33.28,-0.137,1.302,0.244
33.29,-0.187,0.869,0.022
33.3,-0.26,1.035,-0.121
33.31,-0.352,0.259,-0.009
33.32,-0.011,1.332,0.17
33.33,-0.208,0.99,-0.039
33.34,-0.226,0.715,-0.119
33.35,-0.211,1.259,-0.116
33.36,0.001,0.879,0.151
33.37,-0.263,1.161,-0.059
33.38,-0.225,0.46,-0.179
33.39,-0.334,1.738,-0.029
33.4,-0.023,0.631,0.18
33.41,-0.271,1.149,-0.02
33.42,-0.268,0.549,-0.208
33.43,-0.305,1.524,0.01
33.44,-0.119,0.909,0.135
33.45,-0.117,0.709,-0.02
33.46,-0.388,0.876,-0.195
33.47,-0.146,1.366,0.059
33.48,-0.217,1.02,0.136
33.49,-0.046,0.551,0.026
33.5,-0.563,0.753,-0.163
33.51,-0.038,1.735,0.08
33.52,-0.137,0.762,0.115
33.53,-0.025,0.877,-0.047
33.54,-0.506,0.291,-0.228
33.55,-0.171,2.0,0.132
33.56,-0.186,0.512,0.104
33.57,-0.141,0.967,-0.015
33.58,-0.516,0.337,-0.182
33.59,-0.149,1.868,0.166
33.6,-0.057,0.964,0.098
33.61,-0.026,0.533,-0.06
33.62,-0.451,0.813,-0.16
33.63,-0.048,1.519,0.189
33.64,-0.192,1.264,0.086
33.65,0.007,0.487,-0.0
33.66,-0.459,0.886,-0.185
33.67,-0.02,1.698,0.217
33.68,-0.155,0.935,0.081
33.69,-0.018,0.601,-0.101
33.7,-0.378,0.555,-0.132
33.71,-0.131,1.477,0.139
33.72,-0.195,0.948,0.034
33.73,-0.265,0.997,-0.119
33.74,-0.3,0.193,-0.067
33.75,-0.216,1.549,0.242
33.76,-0.217,0.909,0.066
33.77,-0.206,0.958,-0.114
33.78,-0.383,0.562,-0.088
33.79,-0.035,1.144,0.26
33.8,-0.292,1.452,-0.037
33.81,-0.061,0.35,-0.133
33.82,-0.285,1.577,-0.102
33.83,0.03,0.741,0.137
33.84,-0.417,1.169,0.031
33.85,-0.233,0.581,-0.195
33.86,-0.32,1.286,0.017
33.87,-0.01,1.018,0.087
33.88,-0.174,0.72,-0.022
33.89,-0.372,0.993,-0.198
33.9,-0.248,1.017,0.018
33.91,-0.218,1.083,0.151
33.92,-0.152,0.74,-0.034
33.93,-0.295,0.825,-0.172
33.94,-0.258,1.572,-0.018
33.95,0.02,0.8,0.141
33.96,-0.236,0.902,0.011
33.97,-0.374,0.345,-0.184
33.98,-0.29,2.0,0.064
33.99,-0.075,0.554,0.141
34.0,-0.251,1.061,0.047
34.01,-0.447,0.345,-0.217
34.02,-0.195,1.964,0.055
34.03,-0.176,0.765,0.019
34.04,-0.063,0.57,-0.041
34.05,-0.489,0.824,-0.251
34.06,0.02,1.487,0.025
34.07,-0.007,1.229,0.109
34.08,0.1,0.359,-0.019
34.09,-0.565,0.857,-0.217
34.1,-0.037,1.627,0.099
34.11,-0.17,0.898,0.097
34.12,-0.04,0.853,-0.057
34.13,-0.444,0.406,-0.223
34.14,-0.131,2.0,0.183
34.15,-0.075,0.614,0.12
34.16,-0.109,0.979,-0.013
34.17,-0.411,0.327,-0.15
34.18,-0.157,1.767,0.155
34.19,-0.18,0.994,0.088
34.2,-0.004,0.649,-0.089
34.21,-0.436,0.812,-0.147
34.22,-0.032,1.438,0.144
34.23,-0.239,1.29,0.096
34.24,0.019,0.534,-0.066
34.25,-0.132,1.396,0.196
34.26,-0.236,1.242,0.048
34.27,-0.037,0.566,-0.112
34.28,-0.562,0.942,-0.123
34.29,-0.067,1.103,0.266
34.3,-0.339,1.445,0.1
34.31,-0.123,0.447,-0.088
34.32,-0.438,0.721,-0.069
34.33,-0.107,1.152,0.164
34.34,-0.162,1.039,0.001
34.35,-0.277,0.942,-0.106
34.36,-0.265,0.371,0.014
34.37,-0.131,1.367,0.212
34.38,-0.128,0.758,0.042
34.39,-0.305,0.982,-0.121
34.4,-0.281,0.521,-0.094
34.41,-0.124,1.137,0.141
34.42,-0.153,0.951,-0.052
34.43,-0.31,0.623,-0.148
34.44,-0.219,1.501,-0.079
34.45,-0.049,0.727,0.164
34.46,-0.257,1.265,0.001
34.47,-0.277,0.367,-0.169
34.48,-0.339,1.866,-0.014
34.49,-0.042,0.64,0.132
34.5,-0.225,1.024,0.019
34.51,-0.373,0.577,-0.218
34.52,-0.295,1.609,0.021
34.53,-0.142,0.953,0.106
34.54,-0.047,0.63,-0.0
34.55,-0.519,0.938,-0.207
34.56,-0.198,1.377,0.075
34.57,-0.257,1.008,0.166
34.58,-0.109,0.615,0.042
34.59,-0.504,0.663,-0.18
34.6,-0.157,1.804,0.059
34.61,-0.152,0.688,0.106
34.62,-0.114,0.917,-0.014
34.63,-0.386,0.295,-0.219
34.64,-0.244,2.0,0.077
34.65,-0.101,0.53,0.117
34.66,-0.142,0.954,-0.013
34.67,-0.523,0.408,-0.201
34.68,0.041,1.78,0.027
34.69,-0.169,0.985,0.081
34.7,0.07,0.371,-0.096
34.71,-0.51,0.888,-0.214
34.72,0.064,1.53,0.036
34.73,-0.194,1.081,0.097
34.74,0.05,0.507,-0.02
34.75,-0.551,0.703,-0.169
34.76,-0.023,1.779,0.134
34.77,-0.151,0.78,0.078
34.78,-0.027,0.917,-0.043
34.79,-0.371,0.28,-0.133
34.8,-0.111,2.0,0.143
34.81,0.005,0.602,0.035
34.82,-0.073,0.985,-0.092
34.83,-0.321,0.435,-0.182
34.84,-0.099,1.775,0.133
34.85,-0.141,1.039,0.068
34.86,0.032,0.558,-0.063
34.87,-0.442,0.92,-0.183
34.88,0.001,1.347,0.112
34.89,-0.239,1.312,0.066
34.9,0.009,0.563,-0.064
34.91,-0.468,0.757,-0.157
34.92,-0.102,1.443,0.182
34.93,-0.203,1.076,0.028
34.94,-0.146,0.952,-0.108
34.95,-0.314,0.286,-0.106
34.96,-0.238,1.623,0.224
34.97,-0.144,0.857,0.033
34.98,-0.209,1.026,-0.122
34.99,-0.352,0.391,-0.086
35.0,-0.096,1.279,0.213
35.01,-0.272,1.15,-0.008
35.02,-0.114,0.627,-0.111
35.03,-0.385,1.005,-0.06
35.04,0.106,0.866,0.183
35.05,-0.318,1.301,-0.012
35.06,-0.11,0.465,-0.172
35.07,-0.392,1.095,-0.074
35.08,0.097,0.938,0.149
35.09,-0.246,1.013,0.001
35.1,-0.253,0.769,-0.148
35.11,-0.306,0.852,-0.041
35.12,-0.081,1.186,0.119
35.13,-0.145,0.696,-0.029
35.14,-0.294,0.897,-0.183
35.15,-0.19,1.154,-0.087
35.16,-0.088,0.969,0.122
35.17,-0.157,0.998,-0.012
35.18,-0.21,0.549,-0.214
35.19,-0.341,1.76,-0.024
35.2,-0.052,0.608,0.105
35.21,-0.255,1.02,0.044
35.22,-0.29,0.245,-0.163
35.23,-0.355,2.0,0.1
35.24,-0.15,0.506,0.108
35.25,-0.146,1.024,0.02
35.26,-0.403,0.369,-0.213
35.27,-0.151,1.848,0.093
35.28,-0.148,0.846,0.078
35.29,0.034,0.538,-0.03
35.3,-0.59,0.836,-0.179
35.31,0.107,1.501,0.093
35.32,-0.249,1.127,0.097
35.33,0.146,0.454,-0.019
35.34,-0.595,0.766,-0.152
35.35,0.023,1.728,0.107
35.36,-0.131,0.729,0.071
35.37,0.046,0.867,-0.077
35.38,-0.431,0.328,-0.196
35.39,-0.157,1.978,0.211
35.4,-0.085,0.569,0.114
35.41,-0.106,0.984,-0.049
35.42,-0.388,0.416,-0.156
35.43,-0.097,1.834,0.152
35.44,-0.19,0.987,0.081
35.45,-0.018,0.621,-0.051
35.46,-0.451,0.88,-0.149
35.47,-0.008,1.514,0.195
35.48,-0.282,1.275,0.071
35.49,0.014,0.53,-0.064
35.5,-0.424,0.833,-0.134
35.51,-0.1,1.491,0.105
35.52,-0.182,1.092,0.069
35.53,-0.083,0.899,-0.11
35.54,-0.374,0.315,-0.076
35.55,-0.189,1.629,0.19
35.56,-0.172,0.869,0.055
35.57,-0.251,1.104,-0.114
35.58,-0.275,0.318,-0.087
35.59,-0.247,1.46,0.267
35.6,-0.265,1.168,0.018
35.61,-0.093,0.639,-0.117
35.62,-0.44,0.859,-0.061
35.63,0.042,0.839,0.179
35.64,-0.339,1.48,-0.012
35.65,-0.112,0.362,-0.13
35.66,-0.266,1.369,-0.035
35.67,0.019,0.863,0.16
35.68,-0.188,0.989,-0.017
35.69,-0.31,0.804,-0.179
35.7,-0.273,0.644,-0.038
35.71,-0.049,1.224,0.119
35.72,-0.111,0.751,-0.038
35.73,-0.315,0.94,-0.164
35.74,-0.192,1.306,-0.041
35.75,-0.167,0.952,0.147
35.76,-0.128,0.86,0.019
35.77,-0.461,0.598,-0.124
35.78,-0.202,1.868,0.048
35.79,-0.094,0.66,0.205
35.8,-0.206,0.994,0.051
35.81,-0.466,0.27,-0.195
35.82,-0.348,2.0,0.058
35.83,-0.214,0.54,0.154
35.84,-0.153,1.044,0.041
35.85,-0.476,0.584,-0.23
35.86,-0.095,1.587,0.117
35.87,-0.192,0.997,0.127
35.88,0.0,0.419,-0.007
35.89,-0.444,0.904,-0.175
35.9,-0.031,1.55,0.034
35.91,-0.081,1.047,0.147
35.92,0.095,0.601,-0.032
35.93,-0.498,0.59,-0.215
35.94,0.006,1.854,0.125
35.95,-0.145,0.645,0.094
35.96,-0.049,1.021,-0.026
35.97,-0.477,0.227,-0.184
35.98,-0.065,2.0,0.169
35.99,-0.126,0.663,0.09
36.0,-0.083,0.819,-0.04
36.01,-0.455,0.524,-0.169
36.02,-0.18,1.75,0.153
36.03,-0.171,1.014,0.048
36.04,-0.073,0.687,-0.064
36.05,-0.396,0.799,-0.117
36.06,-0.086,1.218,0.195
36.07,-0.318,1.44,0.032
36.08,0.046,0.484,-0.069
36.09,-0.445,0.877,-0.094
36.1,-0.151,1.121,0.261
36.11,-0.287,1.273,0.009
36.12,-0.163,0.713,-0.098
36.13,-0.318,0.447,-0.044
36.14,-0.138,1.331,0.178
36.15,-0.17,0.753,0.009
36.16,-0.354,1.079,-0.099
36.17,-0.243,0.488,-0.023
36.18,-0.086,1.157,0.181
36.19,-0.174,1.015,-0.038
36.2,-0.31,0.691,-0.134
36.21,-0.245,1.335,-0.06
36.22,0.009,0.728,0.143
36.23,-0.316,1.302,-0.035
36.24,-0.21,0.287,-0.184
36.25,-0.245,1.895,-0.064
36.26,-0.037,0.681,0.129
36.27,-0.203,0.965,0.01
36.28,-0.408,0.646,-0.237
36.29,-0.205,1.532,0.01
36.3,-0.183,0.983,0.093
36.31,-0.042,0.5,0.033
36.32,-0.557,0.956,-0.206
36.33,-0.101,1.469,0.116
36.34,-0.203,0.991,0.119
36.35,-0.079,0.602,0.042
36.36,-0.45,0.552,-0.213
36.37,-0.075,1.967,0.057
36.38,-0.016,0.666,0.121
36.39,-0.088,0.948,-0.049
36.4,-0.438,0.189,-0.19
36.41,-0.089,2.0,0.077
36.42,-0.124,0.606,0.085
36.43,-0.02,0.874,-0.041
36.44,-0.543,0.516,-0.198
36.45,0.002,1.73,0.156
36.46,-0.213,1.109,0.089
36.47,0.05,0.397,-0.023
36.48,-0.578,0.954,-0.128
36.49,-0.048,1.427,0.155
36.5,-0.186,1.22,0.085
36.51,0.0,0.604,-0.067
36.52,-0.341,0.647,-0.193
36.53,-0.129,1.571,0.124
36.54,-0.078,0.908,0.05
36.55,-0.125,1.02,-0.143
36.56,-0.344,0.219,-0.094
36.57,-0.213,1.673,0.231
36.58,-0.217,0.868,0.096
36.59,-0.174,0.924,-0.119
36.6,-0.303,0.499,-0.078
36.61,-0.237,1.223,0.197
36.62,-0.288,1.312,0.025
36.63,-0.045,0.431,-0.117
36.64,-0.419,0.904,-0.072
36.65,0.14,0.884,0.198
36.66,-0.365,1.551,0.034
36.67,-0.158,0.398,-0.085
36.68,-0.361,0.773,-0.035
36.69,-0.004,1.131,0.216
36.7,-0.183,1.001,-0.014
36.71,-0.325,0.885,-0.182
36.72,-0.171,0.857,-0.088
36.73,-0.132,1.145,0.117
36.74,-0.194,0.692,0.001
36.75,-0.334,0.811,-0.121
36.76,-0.312,1.367,0.009
36.77,-0.161,0.832,0.136
36.78,-0.242,1.064,-0.052
36.79,-0.235,0.406,-0.163
36.8,-0.421,1.808,0.07
36.81,-0.126,0.514,0.149
36.82,-0.222,1.091,0.028
36.83,-0.389,0.185,-0.146
36.84,-0.092,1.992,0.07
36.85,-0.01,0.687,0.101
36.86,-0.137,0.742,-0.073
36.87,-0.443,0.438,-0.225
36.88,-0.086,1.772,0.131
36.89,-0.114,1.071,0.049
36.9,0.007,0.387,-0.073
36.91,-0.5,0.923,-0.215
36.92,-0.015,1.497,0.18
36.93,-0.186,1.138,0.072
36.94,-0.011,0.551,-0.045
36.95,-0.384,0.685,-0.179
36.96,-0.054,1.746,0.089
36.97,-0.096,0.865,0.036
36.98,-0.058,1.014,-0.121
36.99,-0.304,0.18,-0.138
37.0,-0.213,1.781,0.157
37.01,-0.117,0.847,0.081
37.02,-0.135,1.007,-0.131
37.03,-0.484,0.466,-0.105
37.04,-0.193,1.305,0.278
37.05,-0.41,1.334,0.061
37.06,-0.091,0.488,-0.063
37.07,-0.482,0.946,-0.034
37.08,0.029,0.911,0.223
37.09,-0.378,1.506,0.022
37.1,-0.178,0.449,-0.063
37.11,-0.348,0.895,-0.003
37.12,-0.018,1.031,0.178
37.13,-0.146,0.885,-0.028
37.14,-0.316,0.907,-0.172
37.15,-0.233,0.588,-0.027
37.16,-0.129,1.205,0.15
37.17,-0.125,0.79,-0.052
37.18,-0.395,0.83,-0.16
37.19,-0.143,1.343,-0.079
37.2,-0.138,0.836,0.123
37.21,-0.201,1.067,-0.037
37.22,-0.245,0.425,-0.17
37.23,-0.286,1.921,0.081
37.24,-0.016,0.583,0.183
37.25,-0.27,1.048,0.019
37.26,-0.432,0.333,-0.203
37.27,-0.313,1.926,0.076
37.28,-0.191,0.695,0.072
37.29,-0.13,0.659,-0.005
37.3,-0.552,0.765,-0.193
37.31,0.066,1.538,0.064
37.32,-0.154,1.132,0.122
37.33,0.048,0.374,-0.017
37.34,-0.534,0.822,-0.2
37.35,0.018,1.624,0.07
37.36,-0.135,0.936,0.092
37.37,0.012,0.797,-0.041
37.38,-0.484,0.393,-0.187
37.39,-0.138,1.952,0.224
37.4,-0.083,0.607,0.109
37.41,-0.113,1.01,-0.055
37.42,-0.362,0.307,-0.176
37.43,-0.127,1.881,0.116
37.44,-0.143,0.922,0.066
37.45,-0.023,0.712,-0.038
37.46,-0.402,0.737,-0.143
37.47,-0.075,1.374,0.169
37.48,-0.325,1.385,0.054
37.49,0.038,0.524,-0.077
37.5,-0.437,0.898,-0.102
37.51,-0.098,1.306,0.202
37.52,-0.271,1.255,-0.002
37.53,-0.109,0.802,-0.107
37.54,-0.399,0.388,-0.068
37.55,-0.157,1.403,0.195
37.56,-0.269,0.886,0.033
37.57,-0.273,1.059,-0.08
37.58,-0.275,0.441,-0.013
37.59,-0.127,1.225,0.191
37.6,-0.158,0.932,-0.012
37.61,-0.363,0.691,-0.151
37.62,-0.159,1.262,-0.057
37.63,-0.22,0.865,0.173
37.64,-0.215,1.082,-0.014
37.65,-0.275,0.352,-0.204
37.66,-0.295,1.991,0.056
37.67,-0.027,0.58,0.172
37.68,-0.254,1.018,0.008
37.69,-0.377,0.353,-0.219
37.7,-0.288,1.92,0.018
37.71,-0.055,0.732,0.08
37.72,-0.092,0.71,-0.005
37.73,-0.442,0.834,-0.261
37.74,-0.243,1.501,0.094
37.75,-0.199,1.009,0.126
37.76,-0.119,0.521,0.023
37.77,-0.463,0.808,-0.187
37.78,-0.031,1.597,0.037
37.79,0.004,0.99,0.14
37.8,-0.018,0.695,-0.05
37.81,-0.443,0.361,-0.182
37.82,-0.126,2.0,0.15
37.83,0.005,0.613,0.105
37.84,-0.115,1.066,-0.064
37.85,-0.356,0.268,-0.21
37.86,-0.09,1.937,0.138
37.87,-0.095,0.834,0.051
37.88,-0.04,0.62,-0.061
37.89,-0.435,0.768,-0.227
37.9,-0.09,1.476,0.093
37.91,-0.23,1.305,0.064
37.92,0.041,0.457,-0.048
37.93,-0.453,0.867,-0.126
37.94,-0.108,1.321,0.137
37.95,-0.302,1.209,0.1
37.96,-0.111,0.788,-0.074
37.97,-0.356,0.447,-0.117
37.98,-0.223,1.615,0.161
37.99,-0.1,0.858,0.037
38.0,-0.252,1.043,-0.106
38.01,-0.34,0.252,-0.022
38.02,-0.199,1.391,0.232
38.03,-0.236,1.049,-0.024
38.04,-0.196,0.728,-0.107
38.05,-0.298,0.918,-0.035
38.06,-0.031,0.878,0.187
38.07,-0.245,1.27,-0.031
38.08,-0.215,0.399,-0.201
38.09,-0.293,1.101,-0.055
38.1,0.023,0.865,0.118
38.11,-0.236,1.137,-0.023
38.12,-0.212,0.647,-0.189
38.13,-0.261,1.24,-0.048
38.14,-0.131,1.042,0.191
38.15,-0.142,0.652,0.006
38.16,-0.481,1.003,-0.147
38.17,-0.194,1.31,0.018
38.18,-0.271,1.015,0.14
38.19,-0.106,0.697,0.041
38.2,-0.467,0.665,-0.159
38.21,-0.354,1.727,0.111
38.22,-0.2,0.564,0.158
38.23,-0.181,1.143,0.011
38.24,-0.266,0.195,-0.25
38.25,-0.23,2.0,0.069
38.26,-0.035,0.599,0.082
38.27,-0.154,0.824,-0.022
38.28,-0.447,0.442,-0.244
38.29,-0.047,1.79,0.053
38.3,-0.083,0.995,0.08
38.31,0.033,0.396,-0.064
38.32,-0.552,0.887,-0.201
38.33,0.067,1.556,0.103
38.34,-0.235,1.12,0.108
38.35,0.027,0.484,-0.018
38.36,-0.517,0.68,-0.145
38.37,-0.047,1.847,0.19
38.38,-0.128,0.757,0.127
38.39,-0.066,0.948,-0.05
38.4,-0.358,0.232,-0.116
38.41,-0.17,1.927,0.096
38.42,-0.054,0.764,0.053
38.43,-0.241,0.984,-0.121
38.44,-0.219,0.245,-0.125
38.45,-0.229,1.589,0.163
38.46,-0.177,1.002,-0.015
38.47,-0.122,0.786,-0.13
38.48,-0.412,0.7,-0.087
38.49,-0.094,1.046,0.244
38.5,-0.426,1.536,0.046
38.51,-0.11,0.36,-0.074
38.52,-0.434,1.074,-0.029
38.53,-0.025,0.856,0.224
38.54,-0.236,1.226,-0.011
38.55,-0.267,0.666,-0.113
38.56,-0.297,0.691,-0.028
38.57,-0.107,1.186,0.185
38.58,-0.096,0.798,-0.016
38.59,-0.348,0.97,-0.166
38.6,-0.151,0.891,-0.025
38.61,-0.226,1.042,0.129
38.62,-0.213,0.876,0.003
38.63,-0.318,0.598,-0.102
38.64,-0.387,1.758,0.095
38.65,-0.084,0.647,0.188
38.66,-0.252,1.109,0.005
38.67,-0.336,0.274,-0.208
38.68,-0.407,1.993,0.112
38.69,-0.161,0.507,0.122
38.7,-0.134,0.996,0.023
38.71,-0.464,0.434,-0.231
38.72,-0.072,1.701,0.035
38.73,-0.179,0.999,0.05
38.74,-0.022,0.379,-0.042
38.75,-0.552,0.874,-0.191
38.76,0.014,1.543,0.126
38.77,-0.2,1.108,0.063
38.78,0.051,0.464,-0.083
38.79,-0.434,0.662,-0.229
38.8,-0.015,1.793,0.106
38.81,-0.139,0.715,0.097
38.82,-0.075,0.929,-0.047
38.83,-0.359,0.294,-0.144
38.84,-0.143,2.0,0.182
38.85,-0.109,0.708,0.082
38.86,-0.183,0.971,-0.048
38.87,-0.29,0.415,-0.159
38.88,-0.172,1.591,0.122
38.89,-0.204,1.227,0.04
38.9,-0.005,0.568,-0.1
38.91,-0.516,0.873,-0.106
38.92,-0.056,1.094,0.233
38.93,-0.361,1.422,0.027
38.94,-0.049,0.54,-0.091
38.95,-0.4,0.772,-0.051
38.96,-0.03,1.103,0.168
38.97,-0.232,1.046,-0.052
38.98,-0.185,0.909,-0.109
38.99,-0.197,0.695,-0.014
39.0,-0.112,1.234,0.145
39.01,-0.102,0.673,-0.045
39.02,-0.373,0.921,-0.137
39.03,-0.185,0.885,-0.066
39.04,-0.103,0.923,0.117
39.05,-0.172,1.093,-0.052
39.06,-0.242,0.455,-0.186
39.07,-0.27,1.728,0.023
39.08,-0.12,0.567,0.146
39.09,-0.259,1.26,0.002
39.1,-0.311,0.271,-0.157
39.11,-0.283,1.869,0.045
39.12,-0.121,0.748,0.095
39.13,-0.189,0.724,-0.015
39.14,-0.499,0.761,-0.193
39.15,-0.156,1.534,0.119
39.16,-0.243,1.04,0.156
39.17,0.006,0.461,0.014
39.18,-0.61,0.863,-0.187
39.19,0.069,1.606,0.112
39.2,-0.089,1.012,0.099
39.21,-0.05,0.637,-0.062
39.22,-0.451,0.372,-0.166
39.23,0.016,1.782,0.133
39.24,-0.039,0.845,0.064
39.25,-0.07,1.063,-0.048
39.26,-0.386,0.208,-0.127
39.27,-0.213,1.828,0.148
39.28,-0.093,0.798,0.077
39.29,-0.118,0.955,-0.094
39.3,-0.394,0.451,-0.11
39.31,-0.141,1.302,0.204
39.32,-0.29,1.294,-0.022
39.33,-0.062,0.561,-0.098
39.34,-0.401,0.924,-0.067
39.35,-0.053,0.925,0.262
39.36,-0.373,1.458,0.021
39.37,-0.164,0.498,-0.085
39.38,-0.384,0.857,0.025
39.39,-0.004,1.02,0.158
39.4,-0.218,0.963,-0.041
39.41,-0.311,0.864,-0.135
39.42,-0.187,0.784,0.003
39.43,-0.137,1.188,0.151
39.44,-0.16,0.644,0.005
39.45,-0.398,0.989,-0.161
39.46,-0.186,1.337,-0.009
39.47,-0.13,0.837,0.137
39.48,-0.225,1.021,0.012
39.49,-0.368,0.432,-0.173
39.5,-0.246,1.895,0.118
39.51,-0.091,0.567,0.189
39.52,-0.184,1.038,0.032
39.53,-0.436,0.237,-0.247
39.54,-0.102,1.941,0.075
39.55,-0.043,0.838,0.055
39.56,-0.054,0.613,-0.042
39.57,-0.555,0.681,-0.227
39.58,-0.057,1.593,0.141
39.59,-0.287,1.091,0.118
39.6,0.031,0.41,-0.013
39.61,-0.623,0.865,-0.136
39.62,0.033,1.595,0.193
39.63,-0.222,1.028,0.147
39.64,0.044,0.714,-0.043
39.65,-0.422,0.417,-0.129
39.66,-0.115,1.852,0.143
39.67,-0.11,0.739,0.074
39.68,-0.131,1.068,-0.086
39.69,-0.348,0.206,-0.133
39.7,-0.112,1.791,0.181
39.71,-0.19,0.958,0.027
39.72,0.003,0.795,-0.129
39.73,-0.419,0.729,-0.153
39.74,-0.151,1.165,0.254
39.75,-0.382,1.404,0.006
39.76,-0.052,0.451,-0.07
39.77,-0.448,0.987,-0.052
39.78,0.007,0.926,0.161
39.79,-0.326,1.216,-0.013
39.8,-0.13,0.713,-0.167
39.81,-0.35,0.644,0.006
39.82,-0.055,1.205,0.149
39.83,-0.182,0.756,-0.056
39.84,-0.365,0.978,-0.142
39.85,-0.223,0.88,-0.034
39.86,-0.165,1.08,0.168
39.87,-0.161,0.848,-0.039
39.88,-0.31,0.745,-0.158
39.89,-0.258,1.716,0.012
39.9,0.0,0.63,0.14
39.91,-0.25,1.033,-0.012
39.92,-0.295,0.271,-0.256
39.93,-0.335,2.0,0.065
39.94,-0.031,0.619,0.109
39.95,-0.22,0.91,0.012
39.96,-0.443,0.426,-0.19
39.97,-0.207,1.768,0.095
39.98,-0.201,0.925,0.087
39.99,-0.089,0.415,-0.023
40.0,-0.568,0.887,-0.153
40.01,0.028,1.523,0.066
40.02,-0.247,1.029,0.142
40.03,0.034,0.513,0.005
40.04,-0.477,0.899,-0.127
40.05,-0.041,1.567,0.11
40.06,-0.145,1.059,0.043
40.07,0.042,0.885,-0.103
40.08,-0.344,0.415,-0.158
40.09,-0.086,1.925,0.161
40.1,-0.05,0.763,0.01
40.11,-0.169,1.059,-0.072
40.12,-0.342,0.224,-0.111
40.13,-0.278,1.558,0.214
40.14,-0.206,1.051,0.011
40.15,-0.222,0.725,-0.099
40.16,-0.404,0.688,-0.02
40.17,0.008,1.046,0.2
40.18,-0.34,1.35,0.043
40.19,-0.106,0.422,-0.147
40.2,-0.378,0.997,-0.07
40.21,0.06,0.846,0.171
40.22,-0.325,1.229,-0.013
40.23,-0.189,0.629,-0.132
40.24,-0.311,0.857,-0.041
40.25,-0.054,1.109,0.155
40.26,-0.098,0.781,-0.038
40.27,-0.415,0.981,-0.152
40.28,-0.138,1.155,0.041
40.29,-0.183,1.035,0.14
40.3,-0.144,0.8,-0.012
40.31,-0.403,0.686,-0.175
40.32,-0.233,1.752,0.037
40.33,-0.121,0.629,0.114
40.34,-0.191,1.042,-0.003
40.35,-0.446,0.212,-0.212
40.36,-0.259,2.0,0.108
40.37,-0.176,0.589,0.127
40.38,-0.208,0.873,0.023
40.39,-0.504,0.469,-0.185
40.4,-0.068,1.721,0.083
40.41,-0.111,1.017,0.114
40.42,0.025,0.389,-0.052
40.43,-0.588,0.882,-0.198
40.44,0.047,1.549,0.138
40.45,-0.206,1.162,0.098
40.46,0.087,0.585,-0.029
40.47,-0.588,0.683,-0.18
40.48,0.027,1.802,0.142
40.49,-0.073,0.827,0.065
40.5,-0.04,0.957,-0.071
40.51,-0.374,0.254,-0.144
40.52,-0.194,1.866,0.162
40.53,-0.126,0.763,0.088
40.54,-0.111,0.926,-0.105
40.55,-0.276,0.474,-0.157
40.56,-0.172,1.36,0.146
40.57,-0.272,1.245,-0.024
40.58,-0.069,0.555,-0.101
40.59,-0.46,0.912,-0.063
40.6,-0.035,0.994,0.281
40.61,-0.33,1.451,0.025
40.62,-0.129,0.517,-0.097
40.63,-0.371,0.831,-0.02
40.64,0.001,1.097,0.192
40.65,-0.204,1.018,-0.031
40.66,-0.242,0.793,-0.17
40.67,-0.135,0.755,-0.053
40.68,-0.073,1.227,0.127
40.69,-0.128,0.727,-0.036
40.7,-0.346,0.934,-0.144
40.71,-0.314,0.963,-0.022
40.72,-0.044,0.881,0.122
40.73,-0.174,1.14,0.04
40.74,-0.264,0.477,-0.171
40.75,-0.314,1.846,0.01
40.76,-0.113,0.529,0.121
40.77,-0.251,1.21,0.028
40.78,-0.286,0.3,-0.214
40.79,-0.323,1.863,0.102
40.8,-0.065,0.746,0.123
40.81,-0.123,0.681,-0.01
40.82,-0.521,0.764,-0.215
40.83,-0.062,1.588,0.059
40.84,-0.209,0.999,0.101
40.85,0.02,0.432,-0.032
40.86,-0.575,0.899,-0.183
40.87,0.01,1.521,0.166
40.88,-0.218,1.213,0.086
40.89,-0.013,0.523,-0.004
40.9,-0.49,0.699,-0.147
40.91,-0.015,1.783,0.15
40.92,-0.071,0.851,0.069
40.93,-0.096,1.021,-0.076
40.94,-0.313,0.23,-0.131
40.95,-0.164,1.863,0.134
40.96,-0.115,0.779,0.053
40.97,-0.148,0.952,-0.127
40.98,-0.371,0.41,-0.156
40.99,-0.095,1.339,0.207
41.0,-0.259,1.293,-0.048
41.01,-0.04,0.523,-0.142
41.02,-0.44,0.885,-0.119
41.03,0.029,0.966,0.261
41.04,-0.4,1.422,0.026
41.05,-0.096,0.483,-0.111
41.06,-0.428,0.747,-0.021
41.07,-0.064,1.099,0.23
41.08,-0.248,1.118,0.026
41.09,-0.286,0.828,-0.114
41.1,-0.208,0.753,-0.008
41.11,-0.1,1.201,0.174
41.12,-0.112,0.713,-0.045
41.13,-0.344,0.972,-0.162
41.14,-0.194,1.331,-0.05
41.15,-0.131,0.836,0.117
41.16,-0.242,1.018,-0.004
41.17,-0.385,0.366,-0.186
41.18,-0.35,1.884,0.079
41.19,-0.133,0.489,0.123
41.2,-0.256,1.171,0.013
41.21,-0.314,0.285,-0.198
41.22,-0.152,1.882,0.044
41.23,0.01,0.807,0.034
41.24,-0.046,0.581,-0.088
41.25,-0.493,0.747,-0.255
41.26,0.012,1.551,0.049
41.27,-0.272,1.119,0.139
41.28,0.037,0.417,-0.016
41.29,-0.524,0.82,-0.151
41.3,0.036,1.621,0.16
41.31,-0.174,0.943,0.064
41.32,0.046,0.68,-0.108
41.33,-0.359,0.416,-0.192
41.34,-0.08,1.943,0.053
41.35,0.063,0.718,0.028
41.36,-0.141,1.023,-0.068
41.37,-0.261,0.22,-0.149
41.38,-0.201,1.755,0.075
41.39,-0.104,0.964,0.009
41.4,-0.098,0.788,-0.145
41.41,-0.336,0.689,-0.151
41.42,-0.087,1.29,0.2
41.43,-0.355,1.394,0.059
41.44,0.022,0.464,-0.101
41.45,-0.506,0.859,-0.105
41.46,0.035,1.024,0.166
41.47,-0.358,1.347,-0.012
41.48,-0.166,0.674,-0.076
41.49,-0.456,0.539,0.035
41.5,0.004,1.261,0.182
41.51,-0.147,0.814,-0.012
41.52,-0.397,1.031,-0.161
41.53,-0.145,0.781,-0.026
41.54,-0.131,1.153,0.158
41.55,-0.181,0.802,-0.009
41.56,-0.359,0.75,-0.146
41.57,-0.219,1.7,-0.038
41.58,-0.027,0.663,0.132
41.59,-0.265,1.112,-0.023
41.6,-0.337,0.292,-0.189
41.61,-0.344,1.988,0.04
41.62,-0.097,0.541,0.141
41.63,-0.24,0.989,0.027
41.64,-0.43,0.278,-0.169
41.65,-0.213,1.966,0.09
41.66,-0.15,0.737,0.071
41.67,-0.076,0.601,-0.034
41.68,-0.556,0.725,-0.158
41.69,0.016,1.561,0.143
41.7,-0.134,1.231,0.095
41.71,0.059,0.382,-0.038
41.72,-0.459,0.891,-0.149
41.73,-0.074,1.568,0.163
41.74,-0.069,1.018,0.055
41.75,-0.024,0.831,-0.125
41.76,-0.272,0.414,-0.185
41.77,-0.165,1.835,0.122
41.78,-0.06,0.771,0.054
41.79,-0.165,1.05,-0.077
41.8,-0.286,0.231,-0.09
41.81,-0.274,1.539,0.203
41.82,-0.211,1.013,0.014
41.83,-0.118,0.735,-0.129
41.84,-0.358,0.689,-0.071
41.85,-0.018,1.028,0.193
41.86,-0.367,1.439,-0.002
41.87,-0.081,0.401,-0.095
41.88,-0.385,0.956,-0.073
41.89,0.049,0.835,0.197
41.9,-0.293,1.362,-0.038
41.91,-0.262,0.57,-0.117
41.92,-0.163,1.123,-0.035
41.93,-0.152,1.104,0.169
41.94,-0.134,0.634,-0.039
41.95,-0.414,1.09,-0.128
41.96,-0.199,1.231,0.046
41.97,-0.203,1.007,0.187
41.98,-0.125,0.742,0.002
41.99,-0.456,0.641,-0.156
42.0,-0.216,1.759,0.077
42.01,-0.123,0.606,0.096
42.02,-0.282,1.048,-0.025
42.03,-0.326,0.2,-0.174
42.04,-0.225,2.0,0.07
42.05,-0.011,0.635,0.123
42.06,-0.192,0.78,-0.032
42.07,-0.495,0.412,-0.157
42.08,-0.049,1.746,0.114
42.09,-0.154,0.971,0.132
42.1,0.034,0.464,-0.023
42.11,-0.623,0.871,-0.141
42.12,-0.024,1.567,0.199
42.13,-0.19,1.147,0.12
42.14,-0.007,0.528,-0.044
42.15,-0.443,0.715,-0.201
42.16,-0.04,1.656,0.094
42.17,-0.113,0.941,0.041
42.18,-0.043,0.981,-0.096
42.19,-0.281,0.208,-0.129
42.2,-0.247,1.725,0.16
42.21,-0.115,0.821,0.067
42.22,-0.207,0.974,-0.125
42.23,-0.276,0.461,-0.143
42.24,-0.207,1.357,0.215
42.25,-0.287,1.274,-0.017
42.26,0.006,0.523,-0.093
42.27,-0.462,0.933,-0.056
42.28,0.063,0.856,0.214
42.29,-0.354,1.451,-0.007
42.3,-0.128,0.462,-0.142
42.31,-0.304,1.021,-0.055
42.32,0.04,0.998,0.145
42.33,-0.199,0.926,-0.044
42.34,-0.362,0.86,-0.138
42.35,-0.271,0.668,0.023
42.36,-0.16,1.151,0.172
42.37,-0.176,0.772,0.02
42.38,-0.339,0.88,-0.161
42.39,-0.254,1.476,0.075
42.4,-0.215,0.859,0.218
42.41,-0.19,0.94,0.033
42.42,-0.36,0.408,-0.199
42.43,-0.191,2.0,0.078
42.44,-0.035,0.564,0.055
42.45,-0.127,0.955,0.027
42.46,-0.59,0.12,-0.148
42.47,-0.105,2.0,0.172
42.48,-0.234,0.607,0.086
42.49,-0.077,0.813,0.021
42.5,-0.497,0.469,-0.149
42.51,-0.072,1.745,0.225
42.52,-0.187,1.03,0.088
42.53,0.073,0.391,-0.045
42.54,-0.55,0.902,-0.123
42.55,-0.013,1.455,0.136
42.56,-0.299,1.3,0.08
42.57,0.021,0.605,-0.036
42.58,-0.411,0.646,-0.134
42.59,0.068,0.44,-0.037
42.6,-0.437,0.893,-0.171
42.61,-0.084,1.214,0.156
42.62,-0.331,1.366,0.033
42.63,-0.119,0.581,-0.059
42.64,-0.391,0.677,-0.099
42.65,-0.159,1.305,0.182
42.66,-0.185,1.108,0.004
42.67,-0.234,0.95,-0.131
42.68,-0.325,0.482,-0.004
42.69,-0.11,1.32,0.188
42.7,-0.223,0.91,-0.017
42.71,-0.27,0.952,-0.155
42.72,-0.21,0.828,-0.02
42.73,-0.099,1.126,0.174
42.74,-0.215,0.868,-0.033
42.75,-0.306,0.742,-0.168
42.76,-0.236,1.688,-0.011
42.77,-0.112,0.61,0.148
42.78,-0.253,1.097,-0.008
42.79,-0.403,0.264,-0.224
42.8,-0.332,1.958,0.102
42.81,-0.172,0.559,0.146
42.82,-0.241,0.983,0.051
42.83,-0.394,0.515,-0.216
42.84,-0.125,1.762,0.035
42.85,-0.09,1.008,0.1
42.86,0.024,0.422,-0.013
42.87,-0.549,0.85,-0.214
42.88,0.108,1.569,0.05
42.89,-0.248,1.064,0.092
42.9,0.14,0.581,-0.011
42.91,-0.505,0.654,-0.191
42.92,-0.038,1.806,0.164
42.93,-0.178,0.686,0.102
42.94,-0.062,0.93,-0.032
42.95,-0.37,0.278,-0.124
42.96,-0.125,2.0,0.135
42.97,-0.031,0.631,0.077
42.98,-0.04,0.938,-0.104
42.99,-0.287,0.433,-0.2
43.0,-0.144,1.446,0.117
43.01,-0.23,1.221,0.002
43.02,-0.062,0.58,-0.123
43.03,-0.419,0.854,-0.094
43.04,-0.089,1.147,0.221
43.05,-0.318,1.552,0.019
43.06,-0.108,0.539,-0.08
43.07,-0.447,0.649,0.002
43.08,-0.186,1.28,0.306
43.09,-0.241,1.182,0.05
43.1,-0.193,0.914,-0.112
43.11,-0.295,0.495,-0.044
43.12,-0.082,1.282,0.172
43.13,-0.165,0.814,-0.077
43.14,-0.317,0.925,-0.136
43.15,-0.28,0.93,-0.036
43.16,-0.1,0.912,0.105
43.17,-0.181,1.132,-0.045
43.18,-0.244,0.442,-0.207
43.19,-0.187,1.776,0.145
43.2,-0.136,0.599,0.095
43.21,-0.219,0.975,0.023
43.22,-0.348,0.194,-0.18
43.23,-0.119,2.0,0.087
43.24,-0.017,0.652,0.071
43.25,-0.169,0.804,-0.036
43.26,-0.51,0.447,-0.17
43.27,-0.074,1.742,0.19
43.28,-0.227,1.071,0.128
43.29,-0.042,0.442,-0.022
43.3,-0.505,0.912,-0.124
43.31,-0.003,1.518,0.175
43.32,-0.161,1.231,0.06
43.33,0.102,0.545,-0.162
43.34,-0.372,0.616,-0.171
43.35,-0.094,1.44,0.124
43.36,-0.206,0.923,0.019
43.37,-0.175,1.1,-0.09
43.38,-0.347,0.231,-0.054
43.39,-0.251,1.505,0.287
43.4,-0.218,0.848,-0.005
43.41,-0.258,0.915,-0.091
43.42,-0.268,0.5,-0.089
43.43,0.048,1.067,0.132
43.44,-0.266,1.33,-0.072
43.45,-0.162,0.42,-0.124
43.46,-0.29,1.656,-0.027
43.47,0.016,0.711,0.205
43.48,-0.292,1.206,-0.003
43.49,-0.317,0.484,-0.179
43.5,-0.302,1.581,0.02
43.51,-0.157,0.848,0.14
43.52,-0.13,0.793,-0.024
43.53,-0.379,0.816,-0.212
43.54,-0.149,1.41,0.07
43.55,-0.246,1.009,0.128
43.56,-0.108,0.498,0.005
43.57,-0.409,0.794,-0.199
43.58,-0.024,1.624,0.04
43.59,-0.026,0.987,0.158
43.6,-0.052,0.698,-0.048
43.61,-0.485,0.316,-0.178
43.62,-0.164,2.0,0.141
43.63,-0.188,0.541,0.09
43.64,-0.207,0.96,-0.026
43.65,-0.449,0.228,-0.089
43.66,-0.134,1.948,0.187
43.67,-0.086,0.862,0.093
43.68,-0.011,0.628,-0.063
43.69,-0.401,0.678,-0.15
43.7,-0.084,1.281,0.139
43.71,-0.254,1.385,0.015
43.72,-0.044,0.494,-0.093
43.73,-0.41,0.835,-0.115
43.74,-0.152,1.279,0.203
43.75,-0.323,1.237,0.057
43.76,-0.12,0.852,-0.075
43.77,-0.403,0.367,-0.053
43.78,-0.106,1.409,0.214
43.79,-0.29,0.919,0.068
43.8,-0.301,0.992,-0.075
43.81,-0.255,0.602,0.025
43.82,-0.028,1.175,0.143
43.83,-0.19,0.89,-0.05
43.84,-0.244,0.766,-0.196
43.85,-0.36,1.161,-0.031
43.86,0.014,0.738,0.141
43.87,-0.262,1.381,0.005
43.88,-0.172,0.31,-0.156
43.89,-0.37,1.869,0.081
43.9,-0.019,0.612,0.148
43.91,-0.139,0.938,-0.015
43.92,-0.304,0.587,-0.277
43.93,-0.117,1.673,0.056
43.94,-0.058,1.029,0.066
43.95,-0.015,0.456,-0.021
43.96,-0.509,0.898,-0.209
43.97,-0.04,1.558,0.076
43.98,-0.227,0.957,0.073
43.99,-0.054,0.622,-0.012
44.0,-0.515,0.79,-0.186
44.01,0.031,1.67,0.157
44.02,-0.202,0.979,0.073
44.03,0.039,0.793,-0.044
44.04,-0.412,0.337,-0.155
44.05,-0.117,1.85,0.118
44.06,-0.094,0.755,0.064
44.07,-0.161,1.095,-0.109
44.08,-0.257,0.239,-0.103
44.09,-0.206,1.663,0.144
44.1,-0.208,1.021,0.009
44.11,-0.062,0.797,-0.09
44.12,-0.365,0.748,-0.103
44.13,-0.066,1.007,0.213
44.14,-0.384,1.523,-0.013
44.15,-0.07,0.366,-0.077
44.16,-0.296,1.104,-0.039
44.17,0.055,0.892,0.177
44.18,-0.229,1.073,-0.041
44.19,-0.334,0.801,-0.167
44.2,-0.259,0.676,-0.016
44.21,-0.083,1.18,0.117
44.22,-0.167,0.734,-0.02
44.23,-0.394,0.99,-0.132
44.24,-0.193,1.244,0.038
44.25,-0.226,0.971,0.191
44.26,-0.2,0.846,-0.0
44.27,-0.415,0.589,-0.153
44.28,-0.19,1.841,0.103
44.29,-0.05,0.697,0.139
44.3,-0.132,1.007,0.028
44.31,-0.494,0.243,-0.202
44.32,-0.182,2.0,0.095
44.33,-0.172,0.575,0.081
44.34,-0.151,0.857,-0.002
44.35,-0.59,0.539,-0.187
44.36,-0.117,1.654,0.162
44.37,-0.183,1.088,0.135
44.38,-0.005,0.363,-0.036
44.39,-0.517,0.924,-0.128
44.4,-0.026,1.496,0.14
44.41,-0.174,1.193,0.047
44.42,0.079,0.645,-0.028
44.43,-0.51,0.647,-0.126
44.44,-0.067,1.71,0.185
44.45,-0.167,0.874,0.095
44.46,-0.156,0.971,-0.018
44.47,-0.34,0.194,-0.122
44.48,-0.283,1.751,0.202
44.49,-0.205,0.872,0.062
44.5,-0.15,0.996,-0.103
44.51,-0.302,0.469,-0.093
44.52,-0.165,1.243,0.25
44.53,-0.254,1.313,0.005
44.54,-0.028,0.488,-0.125
44.55,-0.41,1.044,-0.057
44.56,0.034,0.848,0.155
44.57,-0.347,1.382,0.043
44.58,-0.135,0.496,-0.147
44.59,-0.249,1.085,-0.084
44.6,-0.014,0.959,0.119
44.61,-0.197,0.875,-0.011
44.62,-0.383,0.848,-0.169
44.63,-0.301,0.704,0.017
44.64,-0.137,1.14,0.142
44.65,-0.121,0.818,0.008
44.66,-0.367,0.848,-0.154
44.67,-0.192,1.501,0.031
44.68,-0.191,0.765,0.153
44.69,-0.126,0.988,-0.015
44.7,-0.371,0.324,-0.233
44.71,-0.191,2.0,0.069
44.72,-0.093,0.53,0.081
44.73,-0.191,0.998,0.01
44.74,-0.501,0.276,-0.229
44.75,-0.101,1.903,0.089
44.76,-0.114,0.798,0.044
44.77,-0.067,0.517,-0.059
44.78,-0.473,0.814,-0.19
44.79,-0.09,1.535,0.154
44.8,-0.095,1.139,0.076
44.81,-0.014,0.435,-0.025
44.82,-0.481,0.945,-0.151
44.83,-0.081,1.344,0.143
44.84,-0.237,1.247,0.009
44.85,-0.063,0.647,-0.073
44.86,-0.362,0.551,-0.102
44.87,-0.187,1.446,0.182
44.88,-0.178,0.927,0.045
44.89,-0.308,1.053,-0.087
44.9,-0.341,0.196,-0.065
44.91,-0.245,1.483,0.262
44.92,-0.232,0.895,0.056
44.93,-0.289,0.919,-0.022
44.94,-0.372,0.64,-0.037
44.95,0.036,1.006,0.186
44.96,-0.283,1.205,-0.035
44.97,-0.115,0.441,-0.215
44.98,-0.304,1.499,-0.132
44.99,0.149,0.703,0.087
45.0,-0.33,1.229,-0.053
45.01,-0.185,0.423,-0.191
45.02,-0.271,1.362,-0.131
45.03,-0.081,0.94,0.1
45.04,-0.179,0.796,0.032
45.05,-0.369,0.969,-0.144
45.06,-0.262,1.284,0.043
45.07,-0.271,1.032,0.173
45.08,-0.203,0.679,0.068
45.09,-0.378,0.799,-0.113
45.1,-0.292,1.586,0.079
45.11,-0.081,0.719,0.099
45.12,-0.173,0.945,-0.04
45.13,-0.356,0.271,-0.211
45.14,-0.237,2.0,0.071
45.15,-0.082,0.521,0.039
45.16,-0.166,0.958,0.002
45.17,-0.467,0.271,-0.199
45.18,-0.113,1.947,0.057
45.19,-0.178,0.814,0.083
45.2,0.023,0.539,-0.041
45.21,-0.538,0.791,-0.182
45.22,0.048,1.533,0.121
45.23,-0.226,1.167,0.074
45.24,0.062,0.458,-0.02
45.25,-0.45,0.837,-0.179
45.26,-0.032,1.653,0.161
45.27,-0.122,0.946,0.084
45.28,-0.074,0.796,-0.09
45.29,-0.328,0.329,-0.155
45.3,-0.207,1.897,0.1
45.31,-0.034,0.742,0.124
45.32,-0.233,0.971,-0.049
45.33,-0.275,0.243,-0.093
45.34,-0.308,1.616,0.193
45.35,-0.181,1.018,0.07
45.36,-0.125,0.666,-0.14
45.37,-0.386,0.78,-0.122
45.38,-0.155,1.101,0.27
45.39,-0.346,1.451,0.013
45.4,-0.046,0.4,-0.084
45.41,-0.386,0.892,-0.097
45.42,-0.016,1.015,0.232
45.43,-0.237,1.252,0.001
45.44,-0.251,0.777,-0.138
45.45,-0.208,0.523,-0.058
45.46,-0.14,1.314,0.197
45.47,-0.096,0.72,0.015
45.48,-0.348,0.987,-0.092
45.49,-0.239,0.914,-0.085
45.5,-0.092,1.066,0.207
45.51,-0.198,0.897,-0.039
45.52,-0.342,0.635,-0.148
45.53,-0.216,1.48,-0.102
45.54,-0.075,0.682,0.132
45.55,-0.25,1.249,-0.022
45.56,-0.276,0.357,-0.16
45.57,-0.368,1.683,-0.003
45.58,-0.188,0.659,0.183
45.59,-0.143,1.128,-0.019
45.6,-0.377,0.541,-0.212
45.61,-0.23,1.904,0.07
45.62,-0.203,0.816,0.108
45.63,-0.063,0.569,-0.007
45.64,-0.532,0.867,-0.195
45.65,-0.062,1.494,0.037
45.66,-0.144,1.066,0.1
45.67,0.07,0.479,-0.027
45.68,-0.487,0.874,-0.232
45.69,-0.026,1.578,0.1
45.7,-0.088,0.941,0.115
45.71,-0.078,0.75,-0.054
45.72,-0.421,0.353,-0.186
45.73,-0.199,2.0,0.204
45.74,-0.066,0.581,0.133
45.75,-0.144,0.98,0.003
45.76,-0.381,0.313,-0.156
45.77,-0.209,1.896,0.174
45.78,-0.136,0.904,0.09
45.79,-0.075,0.618,-0.016
45.8,-0.363,0.824,-0.176
45.81,-0.149,1.464,0.18
45.82,-0.199,1.36,0.051
45.83,0.002,0.466,-0.078
45.84,-0.368,0.855,-0.157
45.85,-0.102,1.484,0.16
45.86,-0.168,1.147,0.051
45.87,-0.151,0.837,-0.106
45.88,-0.302,0.372,-0.086
45.89,-0.244,1.665,0.164
45.9,-0.142,0.85,0.026
45.91,-0.194,1.053,-0.111
45.92,-0.388,0.282,-0.098
45.93,-0.135,1.383,0.22
45.94,-0.284,1.036,0.0
45.95,-0.189,0.665,-0.137
45.96,-0.379,0.913,-0.061
45.97,0.011,0.865,0.186
45.98,-0.393,1.358,0.084
45.99,-0.145,0.365,-0.111
46.0,-0.459,1.071,-0.031
46.01,0.084,0.835,0.177
46.02,-0.264,1.212,-0.009
46.03,-0.242,0.626,-0.143
46.04,-0.292,0.782,-0.054
46.05,-0.016,1.152,0.123
46.06,-0.238,0.735,0.058
46.07,-0.332,1.017,-0.111
46.08,-0.312,1.088,-0.026
46.09,-0.1,1.037,0.15
46.1,-0.22,0.854,-0.013
46.11,-0.363,0.67,-0.148
46.12,-0.283,1.683,0.01
46.13,-0.136,0.607,0.172
46.14,-0.26,1.174,0.017
46.15,-0.297,0.281,-0.199
46.16,-0.383,1.917,0.076
46.17,-0.091,0.572,0.14
46.18,-0.194,0.922,0.004
46.19,-0.392,0.54,-0.256
46.2,-0.09,1.711,0.017
46.21,-0.112,1.049,0.098
46.22,-0.007,0.413,-0.002
46.23,-0.549,0.899,-0.23
46.24,-0.05,1.543,0.076
46.25,-0.214,1.053,0.101
46.26,-0.024,0.547,-0.006
46.27,-0.577,0.623,-0.218
46.28,0.006,1.874,0.089
46.29,-0.077,0.683,0.077
46.3,0.021,0.94,-0.032
46.31,-0.404,0.195,-0.179
46.32,-0.065,2.0,0.148
46.33,-0.062,0.622,0.079
46.34,-0.041,0.916,-0.041
46.35,-0.41,0.503,-0.218
46.36,-0.09,1.712,0.195
46.37,-0.173,1.056,0.091
46.38,0.004,0.459,-0.071
46.39,-0.412,0.939,-0.187
46.4,-0.023,1.424,0.116
46.41,-0.336,1.403,0.062
46.42,-0.03,0.469,-0.059
46.43,-0.453,0.854,-0.081
46.44,-0.168,1.095,0.23
46.45,-0.243,1.279,0.041
46.46,-0.21,0.776,-0.087
46.47,-0.371,0.389,0.008
46.48,-0.27,1.452,0.266
46.49,-0.209,0.883,0.044
46.5,-0.246,0.983,-0.102
46.51,-0.35,0.332,-0.023
46.52,-0.099,1.316,0.171
46.53,-0.24,0.968,-0.01
46.54,-0.169,0.672,-0.084
46.55,-0.372,1.139,-0.035
46.56,0.015,0.812,0.19
46.57,-0.309,1.297,-0.003
46.58,-0.194,0.366,-0.139
46.59,-0.43,1.179,-0.068
46.6,0.073,0.812,0.117
46.61,-0.226,1.215,-0.062
46.62,-0.265,0.629,-0.171
46.63,-0.265,1.334,-0.069
46.64,-0.079,1.006,0.108
46.65,-0.116,0.667,-0.024
46.66,-0.336,0.948,-0.177
46.67,-0.276,1.356,0.045
46.68,-0.168,0.996,0.126
46.69,-0.162,0.708,0.025
46.7,-0.477,0.628,-0.199
46.71,-0.351,1.733,0.114
46.72,-0.228,0.537,0.097
46.73,-0.189,1.144,0.044
46.74,-0.351,0.218,-0.199
46.75,-0.122,2.0,0.079
46.76,-0.037,0.634,0.108
46.77,-0.116,0.828,-0.03
46.78,-0.436,0.431,-0.205
46.79,-0.115,1.77,0.08
46.8,-0.182,0.966,0.123
46.81,0.095,0.514,-0.036
46.82,-0.634,0.878,-0.176
46.83,0.133,1.497,0.137
46.84,-0.331,1.107,0.011
46.85,0.012,0.466,-0.048
46.86,-0.406,0.663,-0.207
46.87,0.012,1.772,0.116
46.88,-0.05,0.78,0.04
46.89,-0.143,0.922,-0.059
46.9,-0.246,0.215,-0.149
46.91,-0.243,1.963,0.151
46.92,-0.047,0.784,0.082
46.93,-0.206,0.87,-0.104
46.94,-0.271,0.443,-0.19
46.95,-0.174,1.526,0.094
46.96,-0.106,1.248,-0.022
46.97,-0.033,0.487,-0.137
46.98,-0.409,0.909,-0.112
46.99,-0.044,1.031,0.173
47.0,-0.281,1.439,-0.026
47.01,-0.073,0.489,-0.08
47.02,-0.36,0.682,-0.107
47.03,-0.145,1.23,0.23
47.04,-0.288,1.048,-0.006
47.05,-0.171,0.931,-0.096
47.06,-0.363,0.274,-0.029
47.07,-0.063,1.331,0.199
47.08,-0.227,0.956,-0.006
47.09,-0.345,0.873,-0.1
47.1,-0.262,0.876,-0.035
47.11,-0.066,0.987,0.165
47.12,-0.223,1.098,-0.066
47.13,-0.265,0.509,-0.172
47.14,-0.28,1.713,-0.03
47.15,-0.03,0.595,0.142
47.16,-0.3,1.215,0.025
47.17,-0.301,0.399,-0.16
47.18,-0.345,1.779,0.027
47.19,-0.076,0.755,0.12
47.2,-0.125,0.791,-0.034
47.21,-0.489,0.513,-0.249
47.22,-0.105,1.747,0.042
47.23,-0.12,0.96,0.126
47.24,0.086,0.461,-0.024
47.25,-0.655,0.878,-0.185
47.26,0.132,1.496,0.105
47.27,-0.221,1.207,0.095
47.28,0.129,0.482,-0.021
47.29,-0.526,0.669,-0.215
47.3,0.066,1.833,0.089
47.31,-0.152,0.694,0.066
47.32,0.0,0.922,-0.037
47.33,-0.441,0.221,-0.164
47.34,-0.139,2.0,0.15
47.35,-0.158,0.708,0.1
47.36,-0.067,0.919,-0.036
47.37,-0.306,0.524,-0.171
47.38,-0.105,1.732,0.109
47.39,-0.133,1.113,0.007
47.4,0.008,0.552,-0.117
47.41,-0.428,0.907,-0.144
47.42,-0.041,1.306,0.182
47.43,-0.284,1.389,0.043
47.44,-0.051,0.51,-0.101
47.45,-0.444,0.681,-0.111
47.46,-0.112,1.386,0.206
47.47,-0.241,1.063,0.021
47.48,-0.212,0.975,-0.117
47.49,-0.359,0.2,-0.037
47.5,-0.153,1.489,0.242
47.51,-0.199,0.947,0.019
47.52,-0.302,0.906,-0.091
47.53,-0.373,0.589,-0.006
47.54,-0.014,1.081,0.195
47.55,-0.315,1.167,0.015
47.56,-0.186,0.526,-0.144
47.57,-0.347,1.295,-0.08
47.58,0.108,0.716,0.124
47.59,-0.257,1.363,-0.054
47.6,-0.212,0.415,-0.179
47.61,-0.298,1.491,-0.025
47.62,-0.059,0.823,0.155
47.63,-0.16,0.903,0.009
47.64,-0.342,0.869,-0.173
47.65,-0.138,1.364,0.008
47.66,-0.236,1.052,0.181
47.67,-0.025,0.52,0.033
47.68,-0.534,0.887,-0.15
47.69,-0.167,1.605,0.07
47.7,-0.235,0.839,0.099
47.71,-0.083,0.809,0.014
47.72,-0.48,0.446,-0.185
47.73,-0.133,2.0,0.048
47.74,-0.17,0.437,0.077
47.75,-0.131,1.051,-0.008
47.76,-0.447,0.233,-0.187
47.77,-0.127,1.925,0.109
47.78,-0.081,0.813,0.103
47.79,-0.052,0.586,-0.049
47.8,-0.499,0.696,-0.173
47.81,-0.118,1.639,0.203
47.82,-0.293,1.139,0.15
47.83,0.073,0.51,0.001
47.84,-0.5,0.928,-0.152
47.85,0.014,1.618,0.209
47.86,-0.254,1.102,0.094
47.87,0.037,0.789,-0.054
47.88,-0.364,0.461,-0.16
47.89,-0.017,1.961,0.14
47.9,-0.061,0.689,0.023
47.91,-0.153,1.021,-0.074
47.92,-0.377,0.207,-0.115
47.93,-0.247,1.626,0.187
47.94,-0.23,1.005,0.046
47.95,-0.14,0.799,-0.099
47.96,-0.335,0.694,-0.091
47.97,-0.049,1.079,0.224
47.98,-0.358,1.501,0.024
47.99,-0.093,0.437,-0.102
48.0,-0.404,0.903,-0.08
48.01,0.005,0.885,0.192
48.02,-0.3,1.416,0.003
48.03,-0.285,0.404,-0.122
48.04,-0.263,1.376,-0.019
48.05,-0.034,0.866,0.168
48.06,-0.177,0.879,-0.018
48.07,-0.324,0.834,-0.164
48.08,-0.251,1.197,0.051
48.09,-0.235,1.082,0.131
48.1,-0.128,0.664,-0.024
48.11,-0.4,0.853,-0.168
48.12,-0.191,1.532,0.071
48.13,-0.084,0.841,0.166
48.14,-0.154,0.836,0.017
48.15,-0.493,0.374,-0.2
48.16,-0.147,1.975,0.076
48.17,-0.096,0.581,0.058
48.18,-0.094,1.027,-0.003
48.19,-0.43,0.244,-0.24
48.2,-0.171,1.964,0.088
48.21,-0.163,0.732,0.084
48.22,-0.091,0.588,0.008
48.23,-0.607,0.72,-0.142
48.24,-0.115,1.57,0.177
48.25,-0.24,1.236,0.164
48.26,0.073,0.403,-0.022
48.27,-0.508,0.914,-0.145
48.28,0.018,1.55,0.148
48.29,-0.21,1.105,0.097
48.3,-0.031,0.847,-0.048
48.31,-0.382,0.442,-0.174
48.32,-0.044,1.926,0.168
48.33,-0.041,0.742,0.049
48.34,-0.12,1.01,-0.088
48.35,-0.358,0.226,-0.124
48.36,-0.192,1.644,0.163
48.37,-0.239,1.006,0.028
48.38,-0.124,0.7,-0.085
48.39,-0.341,0.685,-0.1
48.4,-0.082,1.044,0.172
48.41,-0.341,1.4,0.019
48.42,-0.161,0.474,-0.126
48.43,-0.436,0.862,-0.056
48.44,-0.166,1.063,0.297
48.45,-0.313,1.418,0.04
48.46,-0.178,0.559,-0.117
48.47,-0.263,0.683,-0.033
