t,ax,ay,az
0.0,-0.235,0.253,-0.018
0.01,-0.278,0.079,-0.013
0.02,-0.209,-0.14,-0.049
0.03,-0.147,0.025,0.024
0.04,-0.248,-0.097,0.161
0.05,-0.133,0.158,0.1
0.06,-0.109,0.178,0.073
0.07,-0.208,-0.068,0.059
0.08,-0.282,-0.132,0.08
0.09,-0.409,-0.256,0.124
0.1,-0.285,-0.223,0.071
0.11,-0.0,-0.0,-0.827
0.12,-0.218,0.0,0.036
0.13,-0.141,-0.177,0.08
0.14,-0.223,-0.199,0.124
0.15,-0.356,-0.119,0.126
0.16,-0.26,-0.081,0.13
0.17,-0.343,0.127,0.093
0.18,-0.246,0.063,-0.027
0.19,-0.122,-0.102,-0.066
0.2,-0.25,0.027,-0.017
0.21,-0.266,0.125,-0.839
0.22,-0.271,0.168,0.078
0.23,-0.255,0.377,0.006
0.24,-0.16,0.184,-0.05
0.25,-0.12,-0.113,-0.04
0.26,-0.195,-0.291,0.009
0.27,-0.218,-0.425,0.233
0.28,-0.316,-0.121,0.314
0.29,-0.17,0.092,0.196
0.3,-0.222,0.135,0.012
0.31,-0.216,0.265,-0.142
0.32,-0.235,0.036,-0.144
0.33,-0.339,-0.092,-0.024
0.34,-0.337,0.078,0.048
0.35,-0.322,0.079,0.101
0.36,-0.199,0.195,0.068
0.37,-0.063,0.186,-0.009
0.38,-0.202,-0.081,0.122
0.39,-0.205,-0.236,0.132
0.4,-0.298,-0.31,0.15
0.41,-0.285,-0.208,0.107
0.42,-0.171,0.014,-0.015
0.43,-0.289,0.297,0.0
0.44,-0.258,0.25,-0.004
0.45,-0.32,0.211,0.001
0.46,-0.355,0.032,-0.01
0.47,-0.238,-0.113,-0.087
0.48,-0.21,0.012,0.014
0.49,-0.0,-0.0,-0.826
0.5,-0.3,-0.146,0.034
0.51,-0.325,0.013,0.025
0.52,-0.4,0.039,0.037
0.53,-0.339,0.175,-0.007
0.54,-0.189,0.219,-0.07
0.55,-0.294,0.173,-0.017
0.56,-0.268,0.016,0.04
0.57,-0.105,-0.072,0.023
0.58,-0.101,-0.273,0.065
0.59,-0.1,-0.134,0.121
0.6,-0.089,0.041,0.181
0.61,-0.283,0.069,0.181
0.62,-0.312,0.201,0.04
0.63,-0.242,0.003,-0.083
0.64,-0.345,-0.128,-0.077
0.65,-0.375,0.0,0.04
0.66,-0.374,0.05,0.106
0.67,-0.336,0.26,0.044
0.68,-0.219,0.278,-0.055
0.69,0.004,0.028,-0.08
0.7,-0.033,-0.156,-0.026
0.71,-0.077,-0.348,0.127
0.72,-0.146,-0.35,0.25
0.73,-0.259,0.076,0.263
0.74,-0.322,0.162,0.144
0.75,-0.349,0.23,-0.004
0.76,-0.338,0.136,-0.133
0.77,-0.361,-0.108,-0.132
0.78,-0.415,-0.113,-0.013
0.79,-0.295,0.072,0.038
0.8,-0.199,0.145,0.072
0.81,-0.06,0.111,-0.01
0.82,-0.03,0.211,0.006
0.83,-0.104,-0.147,0.116
0.84,-0.189,-0.18,0.123
0.85,-0.323,-0.169,0.141
0.86,-0.274,-0.129,0.077
0.87,-0.365,0.185,0.026
0.88,-0.352,0.224,0.008
0.89,-0.327,0.121,-0.069
0.9,-0.354,0.092,-0.058
0.91,-0.267,-0.132,-0.032
0.92,-0.165,-0.048,0.0
0.93,-0.157,0.064,0.065
0.94,-0.066,0.092,0.09
0.95,-0.089,0.126,0.065
0.96,-0.143,-0.021,0.047
0.97,-0.219,-0.193,0.119
0.98,-0.287,-0.064,0.116
0.99,-0.329,-0.096,0.061
1.0,-0.477,-0.059,-0.014
1.01,-0.326,0.244,-0.06
1.02,-0.259,0.145,-0.014
1.03,-0.237,0.047,0.027
1.04,-0.157,-0.047,-0.028
1.05,-0.141,-0.073,0.007
1.06,-0.069,-0.034,0.029
1.07,-0.151,0.071,0.094
1.08,-0.193,0.119,0.114
1.09,-0.179,0.113,0.062
1.1,-0.383,-0.077,0.052
1.11,-0.418,-0.155,0.0
1.12,-0.367,-0.104,-0.004
1.13,-0.365,0.002,0.034
1.14,-0.252,0.123,-0.02
1.15,-0.169,0.212,-0.074
1.16,-0.203,0.255,-0.016
1.17,-0.192,0.11,-0.004
1.18,-0.056,-0.028,-0.016
1.19,-0.047,-0.138,0.046
1.2,-0.225,-0.123,0.123
1.21,-0.299,0.02,0.202
1.22,-0.311,-0.024,0.087
1.23,-0.294,0.047,-0.051
1.24,-0.288,-0.095,-0.125
1.25,-0.281,-0.173,0.002
1.26,-0.309,0.137,0.099
1.27,-0.266,0.22,0.106
1.28,-0.262,0.276,0.009
1.29,-0.115,0.257,-0.137
1.3,-0.065,-0.099,-0.117
1.31,-0.131,-0.294,0.002
1.32,-0.198,-0.227,0.126
1.33,-0.314,-0.218,0.296
1.34,-0.288,0.135,0.174
1.35,-0.269,0.237,-0.002
1.36,-0.219,0.072,-0.123
1.37,-0.181,0.032,-0.172
1.38,-0.379,-0.125,-0.861
1.39,-0.318,-0.038,0.009
1.4,-0.227,0.146,0.06
1.41,-0.226,0.206,0.057
1.42,-0.125,0.212,-0.007
1.43,-0.15,0.096,0.036
1.44,-0.178,-0.234,0.132
1.45,-0.315,-0.252,0.106
1.46,-0.358,-0.168,0.107
1.47,-0.189,-0.177,0.024
1.48,-0.256,0.283,-0.027
1.49,-0.226,0.213,-0.047
1.5,-0.3,0.07,-0.002
1.51,-0.322,0.083,0.034
1.52,-0.221,-0.014,0.006
1.53,-0.271,-0.022,0.036
1.54,-0.197,0.161,0.008
1.55,-0.164,0.094,-0.857
1.56,-0.16,0.027,0.044
1.57,-0.189,-0.091,0.033
1.58,-0.329,-0.355,0.126
1.59,-0.172,-0.183,0.07
1.6,-0.233,-0.014,0.04
1.61,-0.0,-0.0,-0.837
1.62,-0.234,-0.114,0.036
1.63,-0.227,-0.199,0.072
1.64,-0.197,-0.12,0.114
1.65,-0.158,0.037,0.146
1.66,-0.0,-0.0,-0.832
1.67,-0.356,-0.046,0.033
1.68,-0.34,0.186,0.022
1.69,-0.196,0.153,0.06
1.7,-0.083,0.048,0.032
1.71,-0.089,0.009,0.115
1.72,-0.11,-0.237,0.148
1.73,-0.244,-0.194,0.182
1.74,-0.29,-0.073,0.117
1.75,-0.226,0.023,-0.026
1.76,-0.316,0.238,-0.039
1.77,-0.343,0.229,-0.048
1.78,-0.385,0.014,0.012
1.79,-0.309,0.027,-0.085
1.8,-0.256,-0.061,-0.011
1.81,-0.263,-0.076,0.08
1.82,-0.059,0.184,0.045
1.83,-0.116,0.01,0.097
1.84,-0.069,0.028,0.063
1.85,-0.085,-0.114,0.059
1.86,-0.304,-0.241,0.191
1.87,-0.279,-0.02,0.099
1.88,-0.341,0.016,0.052
1.89,-0.457,0.075,0.036
1.9,-0.296,0.268,-0.135
1.91,-0.304,0.074,-0.072
1.92,-0.253,0.028,-0.032
1.93,-0.118,-0.061,-0.011
1.94,-0.114,-0.041,0.062
1.95,-0.043,-0.106,0.089
1.96,-0.091,0.161,0.149
1.97,-0.197,0.022,0.195
1.98,-0.291,-0.022,0.092
1.99,-0.372,-0.001,-0.026
2.0,-0.415,-0.135,-0.035
2.01,-0.424,0.059,-0.061
2.02,-0.346,0.151,-0.028
2.03,-0.226,0.131,-0.066
2.04,-0.224,0.129,-0.007
2.05,-0.187,0.102,0.038
2.06,-0.062,-0.125,-0.853
2.07,-0.069,-0.054,0.064
2.08,-0.09,-0.111,0.163
2.09,-0.22,0.034,0.159
2.1,-0.303,0.08,0.121
2.11,-0.339,0.073,0.045
2.12,-0.244,-0.027,-0.121
2.13,-0.368,-0.078,-0.113
2.14,-0.425,-0.183,0.048
2.15,-0.242,0.17,0.065
2.16,-0.248,0.287,0.072
2.17,-0.232,0.211,0.041
2.18,-0.057,0.255,-0.128
2.19,0.011,-0.057,-0.092
2.2,-0.084,-0.5,0.063
2.21,-0.209,-0.248,0.207
2.22,-0.311,-0.167,0.358
2.23,-0.351,0.164,0.261
2.24,-0.388,0.276,-0.039
2.25,-0.362,0.044,-0.16
2.26,-0.318,-0.004,-0.181
2.27,-0.319,-0.106,-0.083
2.28,-0.275,-0.053,0.02
2.29,-0.134,0.133,-0.014
2.3,-0.11,0.293,-0.01
2.31,-0.051,0.2,0.055
2.32,-0.098,0.104,0.131
2.33,-0.203,-0.216,0.12
2.34,-0.321,-0.376,0.11
2.35,-0.388,-0.14,0.038
2.36,-0.385,-0.056,0.038
2.37,-0.349,0.205,0.013
2.38,-0.261,0.308,-0.04
2.39,-0.268,0.048,-0.045
2.4,-0.146,0.001,-0.076
2.41,-0.194,-0.034,-0.041
2.42,-0.183,-0.048,0.066
2.43,-0.142,0.202,0.073
2.44,-0.178,0.236,0.103
2.45,-0.131,-0.004,0.007
2.46,-0.191,-0.081,-0.037
2.47,-0.374,-0.407,0.093
2.48,-0.326,-0.226,0.142
2.49,-0.344,0.008,0.138
2.5,-0.292,0.114,0.023
2.51,-0.238,0.315,-0.09
2.52,-0.207,0.237,-0.101
2.53,-0.169,0.013,-0.043
2.54,-0.184,-0.103,-0.034
2.55,-0.172,-0.043,-0.004
2.56,-0.188,-0.12,0.066
2.57,-0.155,0.148,0.107
2.58,-0.249,0.175,0.138
2.59,-0.344,-0.086,0.101
2.6,-0.264,-0.056,-0.024
2.61,-0.292,-0.144,-0.064
2.62,-0.367,-0.042,0.0
2.63,-0.274,0.216,0.0
2.64,-0.176,0.189,-0.056
2.65,-0.211,0.242,-0.079
2.66,-0.249,0.138,0.001
2.67,-0.158,-0.134,0.057
2.68,-0.154,-0.103,0.079
2.69,-0.222,-0.156,0.109
2.7,-0.193,-0.101,0.096
2.71,-0.208,0.041,0.037
2.72,-0.275,0.083,0.048
2.73,-0.192,0.009,-0.008
2.74,-0.304,-0.027,-0.02
2.75,-0.354,-0.089,0.012
2.76,-0.28,0.054,0.004
2.77,-0.318,0.344,0.012
2.78,-0.285,0.269,0.009
2.79,-0.176,0.154,-0.1
2.8,-0.113,-0.052,-0.175
2.81,-0.067,-0.487,0.015
2.82,-0.164,-0.322,0.207
2.83,-0.271,-0.094,0.352
2.84,-0.189,0.068,0.183
2.85,-0.173,0.346,-0.049
2.86,-0.31,0.191,-0.115
2.87,-0.353,0.002,-0.175
2.88,-0.366,-0.124,-0.092
2.89,-0.294,-0.008,-0.015
2.9,-0.0,-0.0,-0.849
2.91,-0.144,-0.129,0.067
2.92,-0.238,-0.226,0.2
2.93,-0.212,-0.063,0.163
2.94,-0.341,0.179,0.066
2.95,-0.334,0.148,-0.078
2.96,-0.279,0.262,-0.158
2.97,-0.321,0.145,-0.109
2.98,-0.334,-0.167,-0.006
2.99,-0.187,-0.1,-0.018
3.0,-0.153,-0.132,0.061
3.01,-0.104,-0.004,0.128
3.02,-0.098,0.176,0.157
3.03,-0.184,0.131,0.135
3.04,-0.194,0.024,-0.002
3.05,-0.312,-0.062,-0.043
3.06,-0.445,-0.098,0.01
3.07,-0.375,0.081,-0.036
3.08,-0.319,0.102,-0.017
3.09,-0.254,0.065,-0.026
3.1,-0.265,0.202,-0.014
3.11,-0.196,-0.018,0.033
3.12,-0.086,-0.118,0.049
3.13,-0.073,-0.109,0.035
3.14,-0.18,-0.025,0.083
3.15,-0.162,0.009,0.094
3.16,-0.258,0.194,0.077
3.17,-0.299,0.027,0.002
3.18,-0.27,-0.119,-0.077
3.19,-0.375,-0.078,0.003
3.2,-0.382,-0.034,0.03
3.21,-0.365,0.208,0.078
3.22,-0.285,0.359,-0.036
3.23,-0.14,0.193,-0.134
3.24,0.007,-0.0,-0.863
3.25,0.017,-0.32,-0.06
3.26,-0.145,-0.433,0.163
3.27,-0.277,-0.148,0.369
3.28,-0.299,0.094,-0.86
3.29,-0.326,0.299,0.053
3.3,-0.269,0.241,-0.171
3.31,-0.333,0.005,-0.203
3.32,-0.39,-0.142,-0.085
3.33,-0.397,-0.122,0.01
3.34,-0.217,0.046,0.08
3.35,-0.156,0.127,0.016
3.36,-0.091,0.256,0.031
3.37,-0.046,0.01,0.098
3.38,-0.097,-0.032,0.101
3.39,-0.406,-0.229,0.169
3.4,-0.344,-0.25,-0.852
3.41,-0.19,0.052,-0.05
3.42,-0.288,0.121,0.042
3.43,-0.34,0.225,0.028
3.44,-0.377,0.162,0.02
3.45,-0.27,-0.105,-0.026
3.46,-0.182,-0.094,-0.056
3.47,-0.236,-0.023,0.028
3.48,-0.14,0.112,0.045
3.49,-0.094,0.237,0.05
3.5,-0.068,0.199,0.019
3.51,-0.188,-0.107,0.052
3.52,-0.349,-0.234,0.174
3.53,-0.25,-0.186,0.156
3.54,-0.352,-0.107,0.041
3.55,-0.455,0.048,-0.018
3.56,-0.331,0.215,-0.048
3.57,-0.194,0.234,-0.034
3.58,-0.188,0.083,0.007
3.59,-0.119,-0.148,0.022
3.6,-0.037,-0.125,-0.03
3.61,-0.145,0.042,0.087
3.62,-0.21,0.029,0.19
3.63,-0.23,0.192,0.138
3.64,-0.353,0.01,0.055
3.65,-0.382,-0.159,-0.053
3.66,-0.383,-0.109,-0.07
3.67,-0.423,-0.032,0.028
3.68,-0.202,0.123,-0.006
3.69,-0.12,0.236,-0.028
3.7,-0.203,0.215,0.005
3.71,-0.129,0.132,-0.02
3.72,-0.111,0.006,0.054
3.73,-0.17,-0.154,0.098
3.74,-0.245,-0.09,0.09
3.75,-0.269,-0.071,0.091
3.76,-0.299,-0.066,0.024
3.77,-0.308,0.08,0.026
3.78,-0.255,0.021,0.004
3.79,-0.219,-0.146,-0.031
3.8,-0.256,0.123,-0.021
3.81,-0.237,0.077,0.053
3.82,-0.294,0.299,0.08
3.83,-0.254,0.31,0.01
3.84,-0.149,0.062,-0.075
3.85,-0.121,-0.2,-0.12
3.86,-0.178,-0.378,0.039
3.87,-0.208,-0.344,0.235
3.88,-0.304,-0.018,0.32
3.89,-0.248,0.16,0.155
3.9,-0.181,0.184,-0.106
3.91,-0.221,0.17,-0.178
3.92,-0.284,-0.039,-0.087
3.93,-0.383,-0.04,-0.02
3.94,-0.29,0.017,0.002
3.95,-0.29,0.048,0.065
3.96,-0.197,0.219,-0.858
3.97,-0.119,0.21,0.047
3.98,-0.152,-0.105,0.121
3.99,-0.206,-0.168,0.065
4.0,-0.292,-0.225,0.075
4.01,-0.231,-0.248,0.076
4.02,-0.161,0.11,-0.049
4.03,-0.329,0.202,0.045
4.04,-0.302,0.232,-0.009
4.05,-0.322,0.216,-0.009
4.06,-0.281,0.012,-0.05
4.07,-0.237,-0.05,-0.049
4.08,-0.258,0.018,0.053
4.09,-0.138,-0.006,0.11
4.1,-0.176,0.141,0.06
4.11,-0.151,-0.092,0.036
4.12,-0.153,-0.268,0.061
4.13,-0.263,-0.219,0.119
4.14,-0.211,-0.134,0.118
4.15,-0.327,0.071,0.064
4.16,-0.399,0.254,-0.011
4.17,-0.249,0.295,-0.118
4.18,-0.225,0.145,-0.088
4.19,-0.161,0.077,-0.071
4.2,-0.232,-0.121,0.059
4.21,-0.223,-0.144,0.048
4.22,-0.164,0.002,0.077
4.23,-0.24,-0.023,0.167
4.24,-0.099,0.041,0.107
4.25,-0.23,0.037,0.034
4.26,-0.344,-0.123,-0.03
4.27,-0.292,0.011,-0.073
4.28,-0.397,0.075,0.037
4.29,-0.279,0.174,-0.032
4.3,-0.186,0.211,-0.064
4.31,-0.302,0.144,-0.004
4.32,-0.261,0.091,-0.015
4.33,-0.223,-0.078,0.079
4.34,-0.133,-0.122,0.079
4.35,-0.134,-0.177,0.063
4.36,-0.116,-0.089,0.084
4.37,-0.198,0.079,0.1
4.38,-0.358,0.106,0.08
4.39,-0.277,0.01,-0.053
4.4,-0.327,-0.067,-0.054
4.41,-0.355,0.108,-0.041
4.42,-0.328,0.141,0.063
4.43,-0.362,0.252,0.0
4.44,-0.206,0.277,-0.105
4.45,-0.066,-0.12,-0.117
4.46,0.084,-0.237,-0.069
4.47,-0.09,-0.369,0.121
4.48,-0.233,-0.263,0.344
4.49,-0.216,0.124,0.309
4.5,-0.296,0.245,0.052
4.51,-0.0,-0.0,-0.852
4.52,-0.191,-0.079,-0.002
4.53,-0.126,0.126,0.069
4.54,-0.081,0.074,0.068
4.55,-0.078,0.174,0.063
4.56,-0.131,-0.156,-0.861
4.57,-0.236,-0.198,0.166
4.58,-0.297,-0.078,0.128
4.59,-0.389,-0.142,0.054
4.6,-0.413,0.168,-0.074
4.61,-0.315,0.227,-0.15
4.62,-0.271,0.116,-0.067
4.63,-0.204,0.083,-0.032
4.64,-0.163,-0.071,0.001
4.65,-0.085,-0.157,0.042
4.66,-0.087,0.018,0.066
4.67,-0.103,0.089,0.155
4.68,-0.181,0.154,0.152
4.69,-0.279,0.019,0.074
4.7,-0.342,-0.029,0.0
4.71,-0.399,-0.182,-0.069
4.72,-0.441,-0.045,-0.032
4.73,-0.324,0.072,0.004
4.74,-0.196,0.151,-0.025
4.75,-0.198,0.26,-0.046
4.76,-0.191,0.077,0.014
4.77,-0.122,0.074,0.026
4.78,-0.093,-0.097,0.03
4.79,-0.148,-0.239,0.088
4.8,-0.146,-0.016,0.118
4.81,-0.319,0.055,0.133
4.82,-0.359,0.046,0.089
4.83,-0.296,0.102,-0.081
4.84,-0.317,-0.127,-0.079
4.85,-0.334,-0.067,-0.023
4.86,-0.284,0.11,0.03
4.87,-0.268,0.118,0.075
4.88,-0.144,0.353,-0.069
4.89,-0.107,0.198,-0.115
4.9,-0.024,-0.183,-0.103
4.91,-0.118,-0.238,0.05
4.92,-0.274,-0.227,0.29
4.93,-0.337,-0.175,0.343
4.94,-0.325,0.179,0.106
4.95,-0.272,0.127,-0.086
4.96,-0.303,0.121,-0.154
4.97,-0.278,-0.045,-0.098
4.98,-0.332,-0.058,-0.02
4.99,-0.221,-0.054,-0.007
5.0,-0.224,0.189,-0.015
5.01,-0.17,0.208,0.033
5.02,-0.103,0.23,0.026
5.03,-0.198,0.084,0.081
5.04,-0.285,-0.262,0.076
5.05,-0.289,-0.281,0.016
5.06,-0.241,-0.187,0.067
5.07,-0.257,0.006,0.06
5.08,-0.267,0.192,0.038
5.09,-0.25,0.217,-0.024
5.1,-0.259,0.139,-0.071
5.11,-0.226,0.088,-0.085
5.12,-0.288,-0.189,-0.031
5.13,-0.23,0.004,-0.014
5.14,-0.178,0.18,0.089
5.15,-0.182,0.113,0.099
5.16,-0.092,0.117,-0.032
5.17,-0.186,-0.173,0.006
5.18,-0.234,-0.292,0.064
5.19,-0.287,-0.086,0.112
5.2,-0.302,-0.123,0.093
5.21,-0.365,0.19,0.006
5.22,-0.262,0.298,-0.053
5.23,-0.208,0.122,-0.022
5.24,-0.198,-0.004,-0.037
5.25,-0.198,-0.071,-0.024
5.26,-0.164,-0.138,0.032
5.27,-0.197,-0.022,0.042
5.28,-0.25,0.115,0.039
5.29,-0.226,0.045,0.093
5.3,-0.243,0.071,0.038
5.31,-0.331,-0.106,-0.015
5.32,-0.333,-0.115,-0.043
5.33,-0.27,0.053,-0.023
5.34,-0.24,0.133,0.036
5.35,-0.184,0.187,-0.037
5.36,-0.218,0.226,-0.036
5.37,-0.218,0.125,-0.028
5.38,-0.161,-0.04,0.017
5.39,-0.253,-0.14,0.062
5.4,-0.22,-0.215,0.091
5.41,-0.218,-0.086,0.06
5.42,-0.243,0.035,0.063
5.43,-0.2,0.012,0.015
5.44,-0.159,0.235,-0.041
5.45,-0.272,-0.07,-0.028
5.46,-0.31,-0.053,-0.035
5.47,-0.261,0.155,-0.008
5.48,-0.268,0.157,0.103
5.49,-0.307,0.29,0.033
5.5,-0.258,0.103,-0.091
5.51,-0.113,-0.25,-0.87
5.52,-0.076,-0.354,-0.068
5.53,-0.248,-0.279,0.2
5.54,-0.245,-0.162,0.288
5.55,-0.14,0.315,0.106
5.56,-0.23,0.319,-0.046
5.57,-0.226,0.144,-0.172
5.58,-0.321,0.017,-0.105
5.59,-0.374,-0.129,0.009
5.6,-0.329,-0.044,0.051
5.61,-0.346,0.071,0.049
5.62,-0.239,0.077,0.002
5.63,-0.128,0.221,-0.006
5.64,-0.11,-0.057,0.072
5.65,-0.132,-0.239,0.049
5.66,-0.247,-0.232,0.046
5.67,-0.219,-0.106,0.06
5.68,-0.0,-0.0,-0.851
5.69,-0.182,-0.106,-0.008
5.7,-0.144,-0.131,0.013
5.71,-0.095,-0.19,0.044
5.72,-0.121,0.084,0.109
5.73,-0.175,0.164,0.13
5.74,-0.252,0.125,0.102
5.75,-0.321,0.081,0.004
5.76,-0.351,-0.121,-0.069
5.77,-0.386,-0.017,-0.051
5.78,-0.306,0.039,0.007
5.79,-0.291,0.118,-0.017
5.8,-0.248,0.173,-0.039
5.81,-0.18,0.15,0.016
5.82,-0.12,-0.078,0.046
5.83,-0.131,-0.067,0.049
5.84,-0.132,-0.259,0.09
5.85,-0.143,-0.133,0.101
5.86,-0.236,0.12,0.073
5.87,-0.366,0.165,0.09
5.88,-0.308,0.148,-0.031
5.89,-0.292,-0.004,-0.116
5.9,-0.387,-0.145,-0.074
5.91,-0.288,-0.069,-0.004
5.92,-0.308,0.145,0.069
5.93,-0.237,0.188,0.094
5.94,-0.082,0.232,-0.077
5.95,-0.001,0.044,-0.142
5.96,-0.066,-0.41,-0.022
5.97,-0.135,-0.242,0.125
5.98,-0.33,-0.063,0.361
5.99,-0.304,0.067,0.244
6.0,-0.342,0.306,-0.04
6.01,-0.322,0.129,-0.218
6.02,-0.3,-0.039,-0.195
6.03,-0.417,-0.066,-0.03
6.04,-0.318,-0.119,0.034
6.05,-0.152,0.063,0.03
6.06,-0.121,0.208,0.02
6.07,0.025,0.2,0.033
6.08,-0.098,0.122,0.084
6.09,-0.211,-0.267,0.119
6.1,-0.317,-0.198,0.113
6.11,-0.406,-0.207,0.041
6.12,-0.357,-0.038,-0.013
6.13,-0.355,0.168,-0.013
6.14,-0.279,0.302,-0.061
6.15,-0.342,0.087,-0.026
6.16,-0.16,-0.069,-0.097
6.17,-0.063,0.015,-0.1
6.18,-0.0,-0.0,-0.85
6.19,-0.328,0.042,0.014
6.2,-0.393,-0.054,-0.073
6.21,-0.372,-0.129,-0.029
6.22,-0.313,0.008,0.005
6.23,-0.205,0.199,-0.014
6.24,-0.136,0.159,-0.029
6.25,-0.18,0.172,-0.022
6.26,-0.182,0.152,0.008
6.27,-0.118,-0.184,0.068
6.28,-0.187,-0.125,0.083
6.29,-0.228,-0.081,0.097
6.3,-0.252,-0.118,0.077
6.31,-0.347,0.162,0.041
6.32,-0.366,0.094,0.032
6.33,-0.166,0.029,-0.045
6.34,-0.225,-0.022,-0.11
6.35,-0.27,-0.108,-0.04
6.36,-0.224,0.056,0.046
6.37,-0.255,0.271,0.119
6.38,-0.203,0.323,0.08
6.39,-0.145,0.128,-0.068
6.4,-0.155,-0.125,-0.86
6.41,-0.151,-0.407,-0.051
6.42,-0.3,-0.312,0.223
6.43,-0.348,-0.11,0.348
6.44,-0.261,0.087,0.156
6.45,-0.215,0.287,-0.058
6.46,-0.192,0.13,-0.179
6.47,-0.312,0.063,-0.06
6.48,-0.3,-0.059,-0.012
6.49,-0.269,-0.054,0.049
6.5,-0.257,0.094,0.022
6.51,-0.147,0.214,-0.018
6.52,-0.194,0.129,0.043
6.53,-0.171,0.002,0.038
6.54,-0.22,-0.168,0.079
6.55,-0.281,-0.33,0.1
6.56,-0.2,-0.082,0.034
6.57,-0.285,0.076,0.067
6.58,-0.26,0.219,0.022
6.59,-0.252,0.333,-0.027
6.6,-0.317,0.08,-0.01
6.61,-0.206,-0.077,-0.095
6.62,-0.317,-0.125,-0.028
6.63,-0.225,-0.16,0.07
6.64,-0.225,0.164,0.078
6.65,-0.187,0.173,0.082
6.66,-0.022,0.07,-0.009
6.67,-0.138,-0.113,-0.029
6.68,-0.276,-0.223,0.111
6.69,-0.232,-0.328,0.115
6.7,-0.409,0.137,0.165
6.71,-0.338,0.142,0.055
6.72,-0.302,0.248,-0.087
6.73,-0.264,0.327,-0.137
6.74,-0.179,-0.12,-0.061
6.75,-0.272,-0.112,-0.031
6.76,-0.219,-0.229,0.038
6.77,-0.104,-0.133,0.088
6.78,-0.099,0.137,0.136
6.79,-0.163,0.223,0.132
6.8,-0.267,0.077,0.056
6.81,-0.326,-0.004,-0.06
6.82,-0.374,-0.043,-0.063
6.83,-0.385,-0.028,-0.026
6.84,-0.297,0.12,-0.045
6.85,-0.235,0.156,-0.023
6.86,-0.214,0.157,-0.012
6.87,-0.195,0.103,0.036
6.88,-0.175,-0.146,0.077
6.89,-0.102,-0.203,0.075
6.9,-0.13,-0.099,0.082
6.91,-0.207,-0.049,0.079
6.92,-0.257,0.175,0.029
6.93,-0.284,0.2,-0.036
6.94,-0.285,-0.007,-0.087
6.95,-0.297,-0.035,-0.019
6.96,-0.33,-0.111,0.074
6.97,-0.357,0.012,0.106
6.98,-0.321,0.192,0.09
6.99,-0.193,0.202,-0.046
7.0,-0.103,0.11,-0.131
7.01,-0.069,-0.128,-0.126
7.02,-0.13,-0.349,0.024
7.03,-0.22,-0.221,0.175
7.04,-0.218,0.048,0.272
7.05,-0.263,0.198,0.077
7.06,-0.286,0.275,-0.121
7.07,-0.32,-0.022,-0.125
7.08,-0.336,-0.099,-0.101
7.09,-0.345,0.007,-0.049
7.1,-0.353,-0.071,0.063
7.11,-0.112,0.135,-0.013
7.12,-0.098,0.252,-0.015
7.13,-0.093,-0.025,0.06
7.14,-0.0,-0.0,-0.852
7.15,-0.318,0.155,-0.078
7.16,-0.284,0.086,-0.078
7.17,-0.221,0.136,-0.044
7.18,-0.174,-0.014,0.01
7.19,-0.179,-0.119,0.026
7.2,-0.11,-0.063,0.042
7.21,-0.15,0.008,0.108
7.22,-0.15,0.126,0.119
7.23,-0.17,0.175,0.083
7.24,-0.353,0.033,0.032
7.25,-0.377,-0.086,-0.064
7.26,-0.445,-0.075,-0.04
7.27,-0.382,-0.085,-0.011
7.28,-0.208,0.131,-0.031
7.29,-0.171,0.082,-0.001
7.3,-0.132,0.161,0.026
7.31,-0.147,0.121,0.049
7.32,-0.115,-0.089,0.058
7.33,-0.138,-0.125,0.036
7.34,-0.262,-0.059,0.075
7.35,-0.266,0.024,0.101
7.36,-0.38,0.107,0.06
7.37,-0.37,0.106,-0.049
7.38,-0.269,-0.151,-0.094
7.39,-0.222,-0.132,-0.056
7.4,-0.253,0.056,0.058
7.41,-0.248,0.058,0.119
7.42,-0.171,0.351,0.017
7.43,-0.137,0.335,-0.086
7.44,-0.108,-0.081,-0.143
7.45,-0.091,-0.209,-0.06
7.46,-0.162,-0.376,0.098
7.47,-0.355,-0.196,0.328
7.48,-0.4,0.116,0.286
7.49,-0.336,0.151,0.024
7.5,-0.257,0.228,-0.194
7.51,-0.176,0.08,-0.218
7.52,-0.332,-0.134,-0.041
7.53,-0.26,-0.089,-0.001
7.54,-0.244,0.115,0.051
7.55,-0.12,0.062,0.033
7.56,-0.059,0.29,0.005
7.57,-0.159,0.095,0.095
7.58,-0.24,-0.14,0.143
7.59,-0.374,-0.168,0.078
7.6,-0.376,-0.298,0.031
7.61,-0.291,-0.087,-0.059
7.62,-0.29,0.151,0.011
7.63,-0.281,0.217,0.001
7.64,-0.197,0.15,-0.022
7.65,-0.178,0.099,-0.085
7.66,-0.162,-0.092,-0.024
7.67,-0.169,-0.007,0.028
7.68,-0.22,0.13,0.06
7.69,-0.231,0.163,0.041
7.7,-0.136,0.171,-0.058
7.71,-0.233,-0.106,-0.02
7.72,-0.34,-0.333,0.067
7.73,-0.27,-0.191,0.119
7.74,-0.268,-0.153,0.086
7.75,-0.326,0.088,0.039
7.76,-0.0,-0.0,-0.854
7.77,-0.42,-0.13,-0.001
7.78,-0.319,-0.057,0.038
7.79,-0.284,0.21,0.041
7.8,-0.184,0.112,0.018
7.81,-0.134,0.21,-0.005
7.82,-0.179,-0.053,0.092
7.83,-0.254,-0.333,0.11
7.84,-0.285,-0.237,0.049
7.85,-0.114,-0.051,-0.045
7.86,-0.24,0.025,0.042
7.87,-0.308,0.335,0.003
7.88,-0.264,0.275,-0.029
7.89,-0.321,0.031,0.019
7.9,-0.271,0.022,-0.096
7.91,-0.317,-0.054,-0.038
7.92,-0.226,-0.11,-0.005
7.93,-0.156,0.257,0.024
7.94,-0.178,0.051,0.065
7.95,-0.074,-0.107,0.026
7.96,-0.172,-0.214,0.067
7.97,-0.223,-0.31,0.154
7.98,-0.231,0.008,0.112
7.99,-0.394,0.137,0.027
8.0,-0.346,0.182,-0.053
8.01,-0.278,0.352,-0.137
8.02,-0.291,0.018,-0.065
8.03,-0.156,-0.084,-0.089
8.04,-0.188,-0.093,-0.003
8.05,-0.271,-0.112,0.112
8.06,-0.141,-0.069,0.14
8.07,-0.117,0.18,0.099
8.08,-0.155,0.04,0.088
8.09,-0.268,-0.02,0.002
8.1,-0.381,-0.002,-0.047
8.11,-0.326,-0.09,-0.049
8.12,-0.338,0.141,-0.017
8.13,-0.317,0.164,-0.033
8.14,-0.236,0.09,-0.066
8.15,-0.263,0.123,-0.026
8.16,-0.24,0.039,0.028
8.17,-0.099,-0.127,0.072
8.18,-0.097,-0.088,0.058
8.19,-0.135,-0.075,0.072
8.2,-0.142,-0.014,0.076
8.21,-0.207,0.144,0.068
8.22,-0.0,-0.0,-0.855
8.23,-0.154,0.063,0.065
8.24,-0.114,0.259,0.05
8.25,-0.03,0.168,0.043
8.26,-0.054,0.071,0.083
8.27,-0.159,-0.118,0.09
8.28,-0.267,-0.303,0.084
8.29,-0.277,-0.146,-0.004
8.3,-0.389,-0.049,-0.011
8.31,-0.382,0.174,0.065
8.32,-0.311,0.345,-0.067
8.33,-0.369,0.029,-0.049
8.34,-0.163,-0.04,-0.109
8.35,-0.096,-0.056,-0.047
8.36,-0.148,-0.133,0.083
8.37,-0.093,0.078,0.073
8.38,-0.117,0.211,0.064
8.39,-0.133,-0.091,0.025
8.4,-0.3,0.008,0.056
8.41,-0.359,-0.167,0.14
8.42,-0.343,-0.151,0.077
8.43,-0.457,0.055,-0.045
8.44,-0.362,0.051,-0.071
8.45,-0.167,0.178,-0.111
8.46,-0.143,0.167,-0.047
8.47,-0.163,-0.024,0.033
8.48,-0.141,-0.109,0.017
8.49,-0.102,0.042,0.008
8.5,-0.179,-0.073,0.101
8.51,-0.196,0.134,0.105
8.52,-0.204,0.103,0.069
8.53,-0.332,-0.039,0.049
8.54,-0.4,-0.06,-0.094
8.55,-0.44,-0.111,-0.037
8.56,-0.282,-0.034,-0.031
8.57,-0.186,0.217,-0.038
8.58,-0.243,0.173,-0.012
8.59,-0.162,0.19,-0.025
8.6,-0.181,0.163,0.03
8.61,-0.089,-0.089,0.03
8.62,-0.133,-0.157,0.051
8.63,-0.183,-0.187,0.081
8.64,-0.206,-0.056,0.122
8.65,-0.365,0.059,0.063
8.66,-0.379,0.127,0.005
8.67,-0.241,-0.053,-0.124
8.68,-0.286,0.019,-0.089
8.69,-0.302,-0.008,0.018
8.7,-0.268,0.072,0.074
8.71,-0.243,0.331,0.023
8.72,-0.141,0.173,-0.048
8.73,-0.067,-0.011,-0.111
8.74,-0.116,-0.17,-0.042
8.75,-0.161,-0.424,0.124
8.76,-0.276,-0.116,0.229
8.77,-0.354,0.034,0.25
8.78,-0.292,0.108,0.034
8.79,-0.264,0.281,-0.153
8.8,-0.167,0.019,-0.204
8.81,-0.298,-0.09,-0.115
8.82,-0.32,-0.045,0.024
8.83,-0.258,0.057,0.055
8.84,-0.236,0.161,0.039
8.85,-0.138,0.344,0.005
8.86,-0.154,0.075,0.078
8.87,-0.197,-0.093,0.097
8.88,-0.286,-0.316,0.023
8.89,-0.358,-0.378,0.065
8.9,-0.235,-0.125,-0.874
8.91,-0.188,0.187,-0.0
8.92,-0.268,0.233,0.02
8.93,-0.245,0.342,-0.015
8.94,-0.297,0.114,-0.02
8.95,-0.273,-0.116,-0.074
8.96,-0.27,-0.086,-0.022
8.97,-0.217,-0.075,0.079
8.98,-0.214,0.152,0.115
8.99,-0.201,0.125,-0.866
9.0,-0.12,-0.055,0.033
9.01,-0.143,-0.205,-0.026
9.02,-0.266,-0.238,0.089
9.03,-0.243,-0.127,0.086
9.04,-0.309,0.197,0.029
9.05,-0.339,0.27,0.023
9.06,-0.217,0.218,-0.069
9.07,-0.238,0.179,-0.057
9.08,-0.274,-0.119,0.013
9.09,-0.206,-0.191,0.009
9.1,-0.208,0.0,0.012
9.11,-0.191,-0.136,0.111
9.12,-0.144,0.21,0.104
9.13,-0.195,0.117,0.105
9.14,-0.268,-0.108,0.048
9.15,-0.299,-0.072,-0.043
9.16,-0.362,-0.12,-0.025
9.17,-0.348,0.04,0.005
9.18,-0.0,-0.0,-0.846
9.19,-0.134,-0.274,0.014
9.2,-0.153,-0.427,0.189
9.21,-0.259,-0.099,0.296
9.22,-0.223,0.109,0.183
9.23,-0.26,0.156,0.033
9.24,-0.249,0.228,-0.121
9.25,-0.247,0.068,-0.131
9.26,-0.454,-0.123,0.006
9.27,-0.313,-0.033,-0.007
9.28,-0.371,0.016,0.024
9.29,-0.254,0.125,-0.858
9.3,-0.119,0.155,0.022
9.31,-0.151,-0.006,0.106
9.32,-0.085,-0.178,0.017
9.33,-0.205,-0.183,0.072
9.34,-0.202,-0.125,0.088
9.35,-0.211,0.094,0.067
9.36,-0.389,0.243,0.104
9.37,-0.294,0.209,-0.05
9.38,-0.393,0.136,-0.043
9.39,-0.424,-0.076,-0.072
9.4,-0.26,-0.137,-0.088
9.41,-0.225,-0.07,0.064
9.42,-0.118,0.085,0.073
9.43,-0.006,0.118,0.031
9.44,-0.116,0.12,0.043
9.45,-0.057,-0.147,0.061
9.46,-0.223,-0.063,0.119
9.47,-0.357,-0.147,0.158
9.48,-0.37,-0.035,0.044
9.49,-0.475,0.113,-0.02
9.5,-0.369,0.11,-0.074
9.51,-0.258,0.111,-0.043
9.52,-0.196,0.065,-0.009
9.53,-0.15,-0.109,0.049
9.54,-0.091,-0.103,0.019
9.55,-0.064,0.023,0.016
9.56,-0.129,0.033,0.135
9.57,-0.155,0.199,0.11
9.58,-0.338,0.051,0.071
9.59,-0.417,-0.076,-0.037
9.6,-0.318,-0.075,-0.084
9.61,-0.432,-0.027,-0.012
9.62,-0.339,0.056,0.03
9.63,-0.22,0.176,-0.027
9.64,-0.151,0.151,-0.019
9.65,-0.178,0.107,-0.01
9.66,-0.122,0.023,0.03
9.67,-0.033,-0.126,0.044
9.68,-0.187,-0.098,0.072
9.69,-0.254,-0.065,0.081
9.7,-0.219,0.031,0.114
9.71,-0.361,0.166,0.065
9.72,-0.29,0.105,-0.065
9.73,-0.29,-0.173,-0.118
9.74,-0.34,-0.065,-0.036
9.75,-0.259,0.068,0.095
9.76,-0.268,0.106,0.152
9.77,-0.255,0.34,0.012
9.78,-0.106,0.062,-0.101
9.79,0.018,-0.122,-0.13
9.8,-0.105,-0.265,-0.009
9.81,-0.296,-0.294,0.27
9.82,-0.318,-0.01,0.285
9.83,-0.225,0.171,0.103
9.84,-0.317,0.163,-0.09
9.85,-0.3,0.15,-0.216
9.86,-0.333,-0.023,-0.099
9.87,-0.277,-0.135,0.007
9.88,-0.265,0.01,0.014
9.89,-0.252,0.066,0.061
9.9,-0.101,0.187,0.055
9.91,-0.049,0.346,-0.003
9.92,-0.174,-0.029,0.082
9.93,-0.197,-0.182,0.026
9.94,-0.334,-0.224,0.041
9.95,-0.364,-0.209,0.07
9.96,-0.322,0.022,0.025
9.97,-0.319,0.216,-0.023
9.98,-0.22,0.142,-0.026
9.99,-0.27,0.098,-0.012
10.0,-0.204,-0.018,0.007
10.01,-0.12,-0.138,-0.014
10.02,-0.22,0.068,0.067
10.03,-0.176,0.084,0.107
10.04,-0.192,0.258,0.043
10.05,-0.271,0.03,-0.029
10.06,-0.26,-0.268,-0.03
10.07,-0.337,-0.26,0.048
10.08,-0.333,-0.096,0.054
10.09,-0.296,-0.079,0.092
10.1,-0.186,0.26,-0.023
10.11,-0.094,0.34,-0.079
10.12,-0.201,0.055,-0.02
10.13,-0.156,0.053,-0.076
10.14,-0.234,-0.129,0.01
10.15,-0.224,-0.14,0.035
10.16,-0.229,0.073,0.063
10.17,-0.299,0.058,0.076
10.18,-0.275,0.128,0.076
10.19,-0.276,0.021,0.013
10.2,-0.24,-0.203,-0.025
10.21,-0.288,-0.105,-0.052
10.22,-0.28,0.063,-0.019
10.23,-0.169,0.118,-0.012
10.24,-0.173,0.32,-0.047
10.25,-0.262,0.213,0.013
10.26,-0.254,0.009,0.075
10.27,-0.184,-0.117,0.029
10.28,-0.167,-0.258,0.016
10.29,-0.224,-0.177,0.056
10.3,-0.276,0.067,0.081
10.31,-0.237,0.077,0.061
10.32,-0.225,0.2,-0.051
10.33,-0.181,0.068,-0.134
10.34,-0.273,-0.181,-0.053
10.35,-0.297,-0.026,0.011
10.36,-0.302,0.076,0.113
10.37,-0.324,0.221,0.116
10.38,-0.222,0.361,-0.076
10.39,-0.093,0.007,-0.141
10.4,-0.171,-0.192,-0.097
10.41,-0.115,-0.286,0.027
10.42,-0.301,-0.297,0.287
10.43,-0.241,-0.008,0.251
10.44,-0.209,0.207,0.019
10.45,-0.316,0.149,-0.087
10.46,-0.216,0.116,-0.193
10.47,-0.324,0.024,-0.124
10.48,-0.398,-0.04,0.004
10.49,-0.241,0.037,0.005
10.5,-0.245,0.224,0.046
10.51,-0.097,0.094,-0.872
10.52,-0.139,0.14,0.077
10.53,-0.223,-0.212,0.155
10.54,-0.244,-0.28,0.119
10.55,-0.365,-0.2,0.083
10.56,-0.209,-0.194,-0.017
10.57,-0.287,0.231,-0.049
10.58,-0.262,0.346,-0.026
10.59,-0.2,0.224,-0.048
10.6,-0.29,0.149,-0.055
10.61,-0.212,-0.045,-0.063
10.62,-0.23,-0.201,0.017
10.63,-0.229,0.032,0.061
10.64,-0.23,0.088,0.1
10.65,-0.206,0.052,0.04
10.66,-0.123,-0.009,-0.059
10.67,-0.216,-0.244,0.043
10.68,-0.211,-0.151,0.115
10.69,-0.191,0.017,0.051
10.7,-0.363,-0.018,0.099
10.71,-0.273,0.287,-0.082
10.72,-0.209,0.28,-0.105
10.73,-0.302,-0.002,-0.042
10.74,-0.273,-0.004,-0.06
10.75,-0.271,-0.122,-0.021
10.76,-0.195,-0.222,0.071
10.77,-0.136,0.086,0.071
10.78,-0.12,0.051,0.144
10.79,-0.18,0.097,0.132
10.8,-0.232,0.04,-0.006
10.81,-0.323,-0.047,-0.019
10.82,-0.38,-0.064,-0.053
10.83,-0.365,0.149,-0.036
10.84,-0.287,0.09,-0.041
10.85,-0.318,0.16,-0.081
10.86,-0.29,0.135,-0.052
10.87,-0.1,-0.087,0.011
10.88,-0.059,-0.038,0.041
10.89,-0.105,-0.179,0.097
10.9,-0.128,-0.089,0.128
10.91,-0.198,0.113,0.122
10.92,-0.304,0.087,0.082
10.93,-0.29,0.146,-0.069
10.94,-0.319,-0.016,-0.154
10.95,-0.327,-0.187,-0.067
10.96,-0.38,-0.011,-0.012
10.97,-0.334,0.165,0.08
10.98,-0.226,0.244,0.054
10.99,-0.121,0.289,-0.087
11.0,-0.001,0.05,-0.147
11.01,-0.02,-0.29,-0.054
11.02,-0.159,-0.346,0.139
11.03,-0.319,-0.276,0.319
11.04,-0.352,-0.006,0.308
11.05,-0.248,0.261,0.02
11.06,-0.0,-0.0,-0.86
11.07,-0.18,0.016,0.061
11.08,-0.175,0.186,0.075
11.09,-0.104,0.166,0.085
11.1,-0.117,0.059,0.051
11.11,-0.14,-0.015,0.007
11.12,-0.0,-0.0,-0.854
11.13,-0.163,0.249,-0.065
11.14,-0.121,0.187,-0.028
11.15,-0.096,-0.004,0.025
11.16,-0.091,-0.04,0.04
11.17,-0.194,-0.12,0.089
11.18,-0.275,-0.127,0.153
11.19,-0.302,0.011,0.043
11.2,-0.377,0.041,0.082
11.21,-0.286,-0.054,-0.033
11.22,-0.179,-0.06,-0.083
11.23,-0.265,-0.088,0.007
11.24,-0.283,0.03,0.058
11.25,-0.273,0.312,0.061
11.26,-0.211,0.288,-0.024
11.27,-0.156,0.27,-0.141
11.28,-0.114,-0.043,-0.171
11.29,-0.167,-0.388,0.004
11.3,-0.0,-0.0,-0.846
11.31,-0.239,0.331,-0.004
11.32,-0.301,0.0,0.02
11.33,-0.263,0.029,-0.06
11.34,-0.253,0.016,-0.034
11.35,-0.231,-0.031,0.035
11.36,-0.221,0.258,0.028
11.37,-0.245,0.076,0.011
11.38,-0.14,-0.091,-0.021
11.39,-0.209,-0.243,0.081
11.4,-0.263,-0.277,0.189
11.41,-0.168,-0.125,-0.855
11.42,-0.26,0.066,0.066
11.43,-0.285,0.165,0.02
11.44,-0.21,0.317,-0.091
11.45,-0.298,0.168,-0.067
11.46,-0.257,-0.002,-0.047
11.47,-0.205,-0.109,-0.051
11.48,-0.286,-0.024,0.022
11.49,-0.214,-0.094,0.117
11.5,-0.13,0.076,0.154
11.51,-0.226,0.06,0.142
11.52,-0.219,-0.115,0.065
11.53,-0.243,-0.004,-0.023
11.54,-0.325,-0.046,0.035
11.55,-0.307,0.127,0.026
11.56,-0.23,0.165,-0.042
11.57,-0.219,0.172,-0.047
11.58,-0.252,0.071,-0.008
11.59,-0.339,0.011,0.028
11.6,-0.185,-0.163,0.046
11.61,-0.143,-0.077,0.018
11.62,-0.227,-0.058,0.118
11.63,-0.165,-0.034,0.126
11.64,-0.148,0.222,0.091
11.65,-0.225,0.034,0.062
11.66,-0.151,-0.092,-0.085
11.67,-0.315,-0.05,-0.018
11.68,-0.369,-0.035,0.103
11.69,-0.334,0.218,0.104
11.7,-0.402,0.333,-0.031
11.71,-0.258,0.132,-0.16
11.72,-0.108,0.033,-0.196
11.73,-0.021,-0.265,-0.029
11.74,-0.051,-0.383,0.147
11.75,-0.19,-0.193,0.341
11.76,-0.231,0.065,0.342
11.77,-0.193,0.216,0.092
11.78,-0.289,0.261,-0.108
11.79,-0.333,-0.039,-0.137
11.8,-0.404,-0.075,-0.105
11.81,-0.434,-0.07,-0.033
11.82,-0.36,0.001,0.028
11.83,-0.207,0.207,-0.024
11.84,-0.056,0.166,-0.015
11.85,-0.027,0.034,0.088
11.86,-0.092,-0.066,0.141
11.87,-0.221,-0.198,0.147
11.88,-0.304,-0.197,0.071
11.89,-0.229,0.009,-0.028
11.9,-0.353,0.131,0.033
11.91,-0.318,0.236,-0.032
11.92,-0.294,0.134,-0.045
11.93,-0.0,-0.0,-0.845
11.94,-0.138,0.014,0.149
11.95,-0.144,0.166,0.154
11.96,-0.305,0.004,0.099
11.97,-0.413,-0.039,-0.012
11.98,-0.311,-0.07,-0.098
11.99,-0.363,-0.01,-0.038
12.0,-0.336,0.148,-0.014
12.01,-0.237,0.116,-0.002
12.02,-0.22,0.106,-0.049
12.03,-0.144,0.129,-0.028
12.04,-0.082,-0.005,0.081
12.05,-0.127,-0.076,0.1
12.06,-0.176,-0.083,0.104
12.07,-0.214,-0.046,0.157
12.08,-0.273,0.037,0.067
12.09,-0.343,0.022,0.031
12.1,-0.305,-0.087,-0.045
12.11,-0.276,-0.08,-0.087
12.12,-0.375,0.05,0.014
12.13,-0.235,0.049,0.069
12.14,-0.249,0.333,-0.007
12.15,-0.23,0.351,-0.048
12.16,-0.083,-0.015,-0.115
12.17,-0.032,-0.076,-0.112
12.18,-0.179,-0.431,0.101
12.19,-0.256,-0.257,0.311
12.2,-0.36,-0.039,0.37
12.21,-0.303,0.12,0.125
12.22,-0.281,0.173,-0.126
12.23,-0.275,0.107,-0.216
12.24,-0.0,-0.0,-0.846
12.25,-0.134,0.1,0.064
12.26,-0.203,0.071,0.09
12.27,-0.208,-0.25,0.078
12.28,-0.26,-0.252,0.088
12.29,-0.348,-0.174,0.166
12.3,-0.226,-0.127,0.12
12.31,-0.331,0.102,-0.02
12.32,-0.272,0.261,-0.07
12.33,-0.209,0.198,-0.124
12.34,-0.219,0.178,-0.081
12.35,-0.176,0.051,-0.034
12.36,-0.176,-0.101,-0.007
12.37,-0.164,0.065,0.064
12.38,-0.207,-0.022,0.128
12.39,-0.239,-0.048,0.155
12.4,-0.25,0.053,0.082
12.41,-0.266,-0.21,0.064
12.42,-0.322,-0.09,-0.018
12.43,-0.344,0.012,-0.037
12.44,-0.288,0.114,-0.008
12.45,-0.208,0.276,-0.066
12.46,-0.223,0.219,-0.859
12.47,-0.219,0.138,0.014
12.48,-0.203,0.063,0.04
12.49,-0.173,-0.07,0.077
12.5,-0.18,-0.201,0.081
12.51,-0.197,-0.133,0.092
12.52,-0.238,-0.078,0.132
12.53,-0.242,0.017,0.101
12.54,-0.292,0.105,0.054
12.55,-0.223,-0.051,-0.062
12.56,-0.29,-0.014,-0.059
12.57,-0.376,0.083,0.031
12.58,-0.29,0.112,0.057
12.59,-0.284,0.355,0.003
12.6,-0.238,0.226,-0.084
12.61,-0.107,-0.069,-0.169
12.62,-0.079,-0.213,-0.051
12.63,-0.123,-0.349,0.156
12.64,-0.194,-0.259,0.344
12.65,-0.276,0.071,0.302
12.66,-0.226,0.153,0.087
12.67,-0.267,0.21,-0.122
12.68,-0.258,0.124,-0.203
12.69,-0.358,-0.141,-0.08
12.7,-0.391,-0.043,-0.03
12.71,-0.284,0.114,0.002
12.72,-0.246,0.157,0.016
12.73,-0.127,0.296,-0.024
12.74,-0.1,0.096,0.045
12.75,-0.119,-0.156,-0.858
12.76,-0.165,-0.295,0.118
12.77,-0.271,-0.27,0.123
12.78,-0.214,-0.187,0.056
12.79,-0.242,0.225,0.023
12.8,-0.342,0.188,0.069
12.81,-0.346,0.255,-0.007
12.82,-0.409,0.17,-0.04
12.83,-0.268,-0.125,-0.114
12.84,-0.288,-0.057,-0.1
12.85,-0.268,0.03,0.015
12.86,-0.069,0.05,0.071
12.87,-0.038,0.161,0.066
12.88,-0.088,-0.059,0.114
12.89,-0.156,-0.245,0.111
12.9,-0.206,-0.073,0.164
12.91,-0.271,-0.086,0.145
12.92,-0.449,0.114,0.031
12.93,-0.412,0.235,-0.118
12.94,-0.293,0.105,-0.15
12.95,-0.332,0.094,-0.079
12.96,-0.0,-0.0,-0.839
12.97,-0.24,0.012,0.075
12.98,-0.364,0.107,0.079
12.99,-0.333,0.134,0.022
13.0,-0.321,-0.197,-0.01
13.01,-0.385,-0.059,-0.061
13.02,-0.288,0.027,0.016
13.03,-0.283,0.103,0.135
13.04,-0.179,0.374,0.009
13.05,-0.061,0.237,-0.104
13.06,-0.024,-0.123,-0.129
13.07,-0.08,-0.279,-0.001
13.08,-0.265,-0.348,0.286
13.09,-0.292,-0.152,0.402
13.1,-0.286,0.239,0.192
13.11,-0.287,0.063,-0.053
13.12,-0.305,0.182,-0.233
13.13,-0.335,-0.008,-0.104
13.14,-0.359,-0.072,0.016
13.15,-0.282,-0.022,-0.012
13.16,-0.219,0.054,-0.008
13.17,-0.11,0.18,-0.0
13.18,-0.102,0.301,0.096
13.19,-0.171,0.063,0.159
13.2,-0.199,-0.273,0.087
13.21,-0.218,-0.21,0.017
13.22,-0.247,-0.214,0.044
13.23,-0.34,0.057,0.078
13.24,-0.385,0.237,0.066
13.25,-0.321,0.186,-0.017
13.26,-0.254,0.112,-0.099
13.27,-0.307,-0.036,-0.099
13.28,-0.198,-0.202,-0.021
13.29,-0.196,0.071,0.041
13.3,-0.148,0.11,0.128
13.31,-0.108,0.184,0.067
13.32,-0.102,0.138,0.007
13.33,-0.212,-0.145,0.078
13.34,-0.24,-0.167,0.089
13.35,-0.349,-0.226,0.113
13.36,-0.391,-0.089,0.046
13.37,-0.354,0.089,-0.052
13.38,-0.245,0.193,-0.075
13.39,-0.186,0.209,-0.049
13.4,-0.158,-0.021,-0.006
13.41,-0.21,0.014,0.044
13.42,-0.146,-0.156,-0.859
13.43,-0.105,0.06,0.073
13.44,-0.172,0.141,0.12
13.45,-0.235,0.066,0.152
13.46,-0.324,0.038,0.021
13.47,-0.377,-0.173,-0.073
13.48,-0.368,-0.148,-0.059
13.49,-0.32,0.001,0.043
13.5,-0.288,0.162,0.06
13.51,-0.159,0.159,-0.027
13.52,-0.164,0.266,-0.036
13.53,-0.147,0.094,0.039
13.54,-0.176,-0.075,0.06
13.55,-0.148,-0.209,0.059
13.56,-0.213,-0.063,0.032
13.57,-0.258,-0.03,0.059
13.58,-0.414,0.042,0.133
13.59,-0.277,0.044,0.016
13.6,-0.146,0.031,-0.101
13.61,-0.259,-0.219,-0.019
13.62,-0.264,0.113,0.029
13.63,-0.272,0.179,0.136
13.64,-0.273,0.287,0.091
13.65,-0.162,0.263,-0.1
13.66,-0.128,-0.028,-0.155
13.67,-0.168,-0.369,-0.015
13.68,-0.225,-0.234,0.109
13.69,-0.38,-0.25,0.346
13.7,-0.228,0.006,0.199
13.71,-0.239,0.284,-0.003
13.72,-0.175,0.085,-0.121
13.73,-0.204,0.116,-0.175
13.74,-0.31,-0.082,-0.035
13.75,-0.287,-0.01,-0.017
13.76,-0.316,0.111,0.05
13.77,-0.248,0.146,0.056
13.78,-0.109,0.195,-0.017
13.79,-0.226,0.085,0.047
13.8,-0.245,-0.231,0.14
13.81,-0.254,-0.253,0.091
13.82,-0.276,-0.171,0.046
13.83,-0.233,-0.123,0.015
13.84,-0.229,0.178,0.008
13.85,-0.218,0.394,-0.041
13.86,-0.288,0.098,-0.006
13.87,-0.291,0.157,-0.06
13.88,-0.243,-0.045,-0.062
13.89,-0.278,-0.104,0.027
13.9,-0.222,0.115,0.036
13.91,-0.0,-0.0,-0.846
13.92,-0.315,-0.096,-0.034
13.93,-0.37,0.141,-0.017
13.94,-0.359,0.16,0.005
13.95,-0.307,0.16,-0.023
13.96,-0.231,0.205,-0.063
13.97,-0.0,-0.0,-0.837
13.98,-0.293,-0.013,0.234
13.99,-0.253,0.263,0.062
14.0,-0.344,0.185,-0.055
14.01,-0.312,-0.021,-0.143
14.02,-0.332,-0.078,-0.094
14.03,-0.368,0.01,-0.015
14.04,-0.275,0.04,0.036
14.05,-0.249,0.196,0.057
14.06,-0.06,0.131,0.035
14.07,-0.072,0.032,0.053
14.08,-0.194,-0.129,0.13
14.09,-0.162,-0.267,0.093
14.1,-0.259,-0.155,0.106
14.11,-0.265,0.03,0.061
14.12,-0.312,0.161,0.05
14.13,-0.357,0.281,-0.008
14.14,-0.401,0.065,-0.061
14.15,-0.397,-0.03,-0.034
14.16,-0.256,-0.05,-0.064
14.17,-0.229,-0.1,0.025
14.18,-0.097,0.091,0.031
14.19,-0.007,0.169,0.03
14.2,-0.102,-0.017,0.105
14.21,-0.019,-0.006,0.047
14.22,-0.234,-0.13,0.15
14.23,-0.365,-0.136,0.14
14.24,-0.329,-0.007,0.027
14.25,-0.474,0.048,-0.017
14.26,-0.383,0.098,-0.073
14.27,-0.318,0.172,-0.06
14.28,-0.182,0.008,-0.008
14.29,-0.111,0.017,-0.003
14.3,-0.089,0.082,0.026
14.31,-0.023,-0.083,0.055
14.32,-0.069,0.087,0.083
14.33,-0.197,0.104,0.131
14.34,-0.273,-0.14,0.141
14.35,-0.438,-0.012,0.08
14.36,-0.467,-0.156,-0.039
14.37,-0.391,-0.096,-0.024
14.38,-0.346,0.168,-0.036
14.39,-0.205,0.192,-0.052
14.4,-0.187,0.206,-0.039
14.41,-0.146,0.184,-0.025
14.42,-0.042,0.067,-0.012
14.43,-0.06,-0.103,0.022
14.44,-0.153,-0.143,0.098
14.45,-0.242,-0.141,0.174
14.46,-0.312,0.043,0.176
14.47,-0.374,0.069,0.073
14.48,-0.313,-0.066,-0.054
14.49,-0.26,-0.029,-0.172
14.5,-0.283,-0.093,-0.009
14.51,-0.27,0.046,0.057
14.52,-0.234,0.332,0.05
14.53,-0.227,0.282,-0.018
14.54,-0.129,0.158,-0.1
14.55,-0.083,-0.058,-0.091
14.56,-0.158,-0.36,0.098
14.57,-0.216,-0.252,0.204
14.58,-0.334,-0.135,0.289
14.59,-0.232,0.001,0.165
14.6,-0.26,0.243,-0.053
14.61,-0.312,0.016,-0.118
14.62,-0.199,0.01,-0.128
14.63,-0.393,-0.041,-0.054
14.64,-0.323,0.082,0.007
14.65,-0.236,0.127,0.042
14.66,-0.161,0.252,0.005
14.67,-0.104,0.144,0.033
14.68,-0.126,-0.035,0.079
14.69,-0.182,-0.155,0.063
14.7,-0.286,-0.312,0.081
14.71,-0.311,-0.148,0.109
14.72,-0.292,-0.005,0.03
14.73,-0.358,0.138,0.035
14.74,-0.21,0.234,-0.11
14.75,-0.291,0.162,-0.061
14.76,-0.333,-0.02,-0.013
14.77,-0.16,0.002,-0.043
14.78,-0.233,0.021,0.066
14.79,-0.129,0.118,0.02
14.8,-0.189,0.144,0.087
14.81,-0.136,0.015,0.05
14.82,-0.142,-0.166,0.004
14.83,-0.353,-0.229,0.075
14.84,-0.214,-0.327,0.078
14.85,-0.334,-0.029,0.058
14.86,-0.382,0.12,0.08
14.87,-0.232,0.215,-0.046
14.88,-0.203,0.322,-0.078
14.89,-0.219,0.108,-0.064
14.9,-0.195,-0.047,-0.028
14.91,-0.189,0.009,-0.022
14.92,-0.188,-0.116,0.019
14.93,-0.215,0.004,0.085
14.94,-0.218,0.066,0.072
14.95,-0.266,-0.121,0.129
14.96,-0.264,-0.053,0.015
14.97,-0.246,-0.087,-0.018
14.98,-0.0,-0.0,-0.854
14.99,-0.09,0.002,-0.163
15.0,-0.12,-0.128,-0.061
15.01,-0.107,-0.463,0.141
15.02,-0.086,-0.157,0.186
15.03,-0.144,0.052,0.233
15.04,-0.229,0.137,0.096
15.05,-0.294,0.28,-0.051
15.06,-0.308,0.097,-0.084
15.07,-0.424,-0.068,-0.082
15.08,-0.411,-0.067,-0.046
15.09,-0.359,-0.03,0.001
15.1,-0.291,0.123,0.033
15.11,-0.085,0.272,-0.005
15.12,-0.079,0.032,0.039
15.13,-0.111,-0.099,0.047
15.14,-0.13,-0.166,0.069
15.15,-0.243,-0.248,0.13
15.16,-0.251,-0.011,0.03
15.17,-0.326,0.111,0.017
15.18,-0.335,0.233,-0.029
15.19,-0.308,0.204,-0.06
15.2,-0.409,0.019,0.019
15.21,-0.252,-0.06,-0.084
15.22,-0.219,0.006,0.009
15.23,-0.229,-0.025,0.05
15.24,-0.1,0.069,0.036
15.25,-0.1,0.08,0.043
15.26,-0.071,-0.178,0.033
15.27,-0.237,-0.156,-0.866
15.28,-0.311,-0.096,0.104
15.29,-0.259,-0.043,0.086
15.3,-0.322,0.193,0.013
15.31,-0.318,0.182,-0.037
15.32,-0.259,0.121,-0.096
15.33,-0.259,0.072,-0.078
15.34,-0.29,-0.083,0.026
15.35,-0.2,-0.073,0.041
15.36,-0.155,-0.029,0.025
15.37,-0.127,0.01,0.095
15.38,-0.092,0.069,0.097
15.39,-0.197,0.037,0.136
15.4,-0.268,-0.077,0.07
15.41,-0.261,-0.02,-0.03
15.42,-0.404,-0.008,-0.019
15.43,-0.413,0.054,-0.029
15.44,-0.284,0.22,-0.064
15.45,-0.326,0.129,-0.028
15.46,-0.257,0.059,0.004
15.47,-0.104,0.021,-0.017
15.48,-0.068,-0.109,0.021
15.49,-0.114,-0.135,0.101
15.5,-0.14,-0.016,0.136
15.51,-0.156,-0.019,0.108
15.52,-0.3,0.161,0.071
15.53,-0.36,0.067,-0.035
15.54,-0.311,-0.107,-0.094
15.55,-0.38,-0.069,-0.104
15.56,-0.36,-0.01,0.032
15.57,-0.304,0.134,0.084
15.58,-0.193,0.32,0.033
15.59,-0.139,0.202,-0.064
15.6,-0.025,-0.026,-0.13
15.61,0.011,-0.208,-0.045
15.62,-0.115,-0.4,0.169
15.63,-0.26,-0.141,0.29
15.64,-0.357,0.132,0.278
15.65,-0.385,0.117,0.074
15.66,-0.278,0.25,-0.87
15.67,-0.309,-0.032,-0.2
15.68,-0.343,-0.094,-0.11
15.69,-0.285,0.008,0.003
15.7,-0.286,0.121,0.074
15.71,-0.15,0.221,0.027
15.72,-0.049,0.105,0.053
15.73,-0.088,0.152,0.112
15.74,-0.168,-0.233,0.146
15.75,-0.296,-0.164,0.08
15.76,-0.373,-0.306,0.065
15.77,-0.305,-0.009,-0.054
15.78,-0.342,0.168,-0.022
15.79,-0.302,0.179,-0.042
15.8,-0.264,0.129,-0.081
15.81,-0.252,0.028,-0.01
15.82,-0.172,-0.097,-0.005
15.83,-0.168,0.01,0.083
15.84,-0.181,0.187,0.064
15.85,-0.14,0.062,0.019
15.86,-0.144,0.145,0.012
15.87,-0.149,-0.07,-0.001
15.88,-0.32,-0.28,0.086
15.89,-0.357,-0.171,0.11
15.9,-0.311,-0.143,0.035
15.91,-0.358,0.057,0.02
15.92,-0.26,0.248,-0.013
15.93,-0.161,0.194,-0.069
15.94,-0.206,0.181,-0.066
15.95,-0.166,-0.034,-0.029
15.96,-0.129,-0.06,0.001
15.97,-0.145,0.042,0.031
15.98,-0.166,-0.042,0.123
15.99,-0.212,0.088,0.106
16.0,-0.348,-0.023,0.06
16.01,-0.439,-0.21,0.058
16.02,-0.316,-0.079,-0.015
16.03,-0.29,-0.005,-0.043
16.04,-0.275,0.103,-0.01
16.05,-0.151,0.264,-0.055
16.06,-0.155,0.28,-0.075
16.07,-0.233,0.09,0.003
16.08,-0.128,0.004,0.038
16.09,-0.2,-0.098,0.055
16.1,-0.246,-0.221,0.077
16.11,-0.269,-0.073,0.098
16.12,-0.27,0.034,0.125
16.13,-0.281,0.078,0.038
16.14,-0.19,0.03,-0.096
16.15,-0.135,-0.177,-0.116
16.16,-0.245,0.017,-0.014
16.17,-0.333,0.116,0.118
16.18,-0.307,0.24,0.084
16.19,-0.323,0.35,-0.021
16.2,-0.164,0.249,-0.162
16.21,-0.133,-0.156,-0.868
16.22,-0.232,-0.336,0.036
16.23,-0.206,-0.397,0.257
16.24,-0.168,-0.111,0.291
16.25,-0.165,0.203,0.124
16.26,-0.209,0.217,-0.031
16.27,-0.233,0.174,-0.175
16.28,-0.336,-0.001,-0.105
16.29,-0.418,-0.153,-0.032
16.3,-0.383,0.057,0.006
16.31,-0.323,0.17,0.017
16.32,-0.156,0.105,0.007
16.33,-0.131,0.226,-0.03
16.34,-0.143,-0.112,0.123
16.35,-0.139,-0.223,0.135
16.36,-0.248,-0.179,0.112
16.37,-0.172,-0.22,0.017
16.38,-0.209,0.096,-0.063
16.39,-0.326,0.254,-0.018
16.4,-0.267,0.215,-0.066
16.41,-0.402,0.122,0.013
16.42,-0.365,0.052,-0.038
16.43,-0.248,-0.041,-0.034
16.44,-0.255,0.039,-0.001
16.45,-0.089,0.067,0.024
16.46,-0.092,0.086,0.028
16.47,-0.082,-0.117,0.038
16.48,-0.174,-0.264,0.095
16.49,-0.246,-0.268,0.156
16.5,-0.265,-0.042,0.142
16.51,-0.41,0.0,0.077
16.52,-0.355,0.263,-0.082
16.53,-0.271,0.331,-0.136
16.54,-0.265,0.078,-0.097
16.55,-0.227,0.067,-0.105
16.56,-0.213,-0.112,-0.048
16.57,-0.111,-0.088,-0.016
16.58,-0.099,0.001,0.083
16.59,-0.2,0.042,0.182
16.6,-0.18,0.031,0.148
16.61,-0.258,-0.059,0.109
16.62,-0.313,-0.125,0.008
16.63,-0.347,-0.011,-0.081
16.64,-0.398,0.09,-0.014
16.65,-0.285,0.199,-0.053
16.66,-0.241,0.249,-0.081
16.67,-0.346,0.122,-0.05
16.68,-0.198,0.053,-0.07
16.69,-0.146,-0.053,0.011
16.7,-0.115,-0.158,0.11
16.71,-0.099,-0.073,0.126
16.72,-0.145,0.019,0.153
16.73,-0.179,-0.004,0.09
16.74,-0.272,0.09,-0.026
16.75,-0.272,-0.12,-0.075
16.76,-0.341,-0.107,-0.027
16.77,-0.435,0.058,0.032
16.78,-0.427,0.2,0.015
16.79,-0.356,0.243,-0.038
16.8,-0.198,0.281,-0.136
16.81,-0.048,0.031,-0.124
16.82,-0.018,-0.291,-0.022
16.83,0.015,-0.299,0.08
16.84,-0.123,-0.282,0.238
16.85,-0.25,0.062,0.294
16.86,-0.289,0.247,0.152
16.87,-0.346,0.177,-0.031
16.88,-0.315,0.026,-0.233
16.89,-0.415,-0.072,-0.206
16.9,-0.438,-0.125,-0.062
16.91,-0.313,0.13,-0.02
16.92,-0.182,0.167,0.033
16.93,-0.0,-0.0,-0.855
16.94,-0.254,-0.041,0.094
16.95,-0.294,-0.026,0.002
16.96,-0.395,-0.023,0.003
16.97,-0.277,0.274,-0.112
16.98,-0.259,0.135,-0.049
16.99,-0.207,0.039,-0.067
17.0,-0.195,0.043,-0.042
17.01,-0.155,-0.048,0.05
17.02,-0.078,-0.007,0.09
17.03,-0.189,0.114,0.115
17.04,-0.187,-0.0,-0.863
17.05,-0.248,-0.052,0.116
17.06,-0.353,-0.006,0.016
17.07,-0.324,-0.244,-0.029
17.08,-0.379,0.042,-0.03
17.09,-0.33,0.076,-0.016
17.1,-0.222,0.193,-0.017
17.11,-0.286,0.239,-0.009
17.12,-0.204,0.069,0.043
17.13,-0.12,0.104,0.023
17.14,-0.115,-0.095,0.003
17.15,-0.208,-0.161,0.108
17.16,-0.19,-0.031,-0.857
17.17,-0.206,0.052,0.091
17.18,-0.302,-0.084,0.072
17.19,-0.296,0.053,-0.076
17.2,-0.295,-0.094,-0.061
17.21,-0.29,-0.123,0.035
17.22,-0.27,0.191,0.088
17.23,-0.296,0.275,0.1
17.24,-0.266,0.295,-0.005
17.25,-0.086,0.201,-0.165
17.26,0.0,-0.129,-0.159
17.27,-0.098,-0.349,0.036
17.28,-0.274,-0.265,0.255
17.29,-0.372,-0.157,0.359
17.3,-0.272,0.106,0.188
17.31,-0.27,0.208,-0.064
17.32,-0.252,0.006,-0.146
17.33,-0.241,0.022,-0.15
17.34,-0.323,-0.044,0.001
17.35,-0.268,0.003,0.037
17.36,-0.187,0.199,0.006
17.37,-0.0,-0.0,-0.837
17.38,-0.179,-0.301,0.146
17.39,-0.193,-0.074,0.138
17.4,-0.303,0.179,0.119
17.41,-0.316,0.209,0.004
17.42,-0.269,0.305,-0.053
17.43,-0.299,0.112,-0.014
17.44,-0.0,-0.0,-0.832
17.45,-0.136,0.065,0.099
17.46,-0.256,0.136,0.144
17.47,-0.24,0.05,0.038
17.48,-0.275,0.006,-0.05
17.49,-0.356,-0.131,-0.034
17.5,-0.346,0.061,0.05
17.51,-0.35,0.264,0.083
17.52,-0.337,0.214,0.034
17.53,-0.137,0.173,-0.113
17.54,-0.074,0.009,-0.121
17.55,-0.081,-0.44,0.062
17.56,-0.099,-0.304,0.18
17.57,-0.226,-0.19,0.325
17.58,-0.19,0.062,0.236
17.59,-0.28,0.281,0.04
17.6,-0.363,0.19,-0.078
17.61,-0.288,0.063,-0.142
17.62,-0.406,-0.059,-0.079
17.63,-0.382,-0.104,-0.01
17.64,-0.307,-0.019,0.02
17.65,-0.204,0.237,0.027
17.66,-0.078,0.149,0.062
17.67,-0.063,0.117,0.065
17.68,-0.123,-0.126,0.085
17.69,-0.197,-0.244,0.075
17.7,-0.215,-0.156,0.057
17.71,-0.24,0.003,0.05
17.72,-0.368,0.123,0.056
17.73,-0.341,0.324,0.014
17.74,-0.391,0.114,0.009
17.75,-0.401,0.018,-0.087
17.76,-0.281,-0.069,-0.065
17.77,-0.216,-0.165,0.061
17.78,-0.071,0.113,0.022
17.79,-0.075,0.137,0.038
17.8,-0.059,-0.048,0.081
17.81,-0.065,0.032,0.056
17.82,-0.3,-0.229,0.216
17.83,-0.0,-0.0,-0.839
17.84,-0.136,0.187,-0.009
17.85,-0.143,0.079,0.05
17.86,-0.126,-0.033,0.061
17.87,-0.105,-0.07,0.056
17.88,-0.144,-0.143,0.107
17.89,-0.235,-0.031,0.126
17.9,-0.274,0.051,0.133
17.91,-0.388,0.031,0.097
17.92,-0.329,0.009,-0.081
17.93,-0.323,-0.062,-0.081
17.94,-0.355,-0.06,0.027
17.95,-0.256,0.155,0.038
17.96,-0.248,0.304,0.027
17.97,-0.206,0.194,-0.058
17.98,-0.017,0.088,-0.181
17.99,-0.039,-0.147,-0.051
18.0,-0.133,-0.427,0.159
18.01,-0.219,-0.111,0.343
18.02,-0.343,-0.025,0.35
18.03,-0.281,0.121,0.061
18.04,-0.291,0.241,-0.136
18.05,-0.32,-0.007,-0.163
18.06,-0.345,-0.123,-0.117
18.07,-0.356,-0.047,-0.03
18.08,-0.243,0.007,0.007
18.09,-0.0,-0.0,-0.838
18.1,-0.258,-0.246,0.078
18.11,-0.348,-0.27,0.14
18.12,-0.312,-0.096,0.087
18.13,-0.366,0.159,0.001
18.14,-0.273,0.184,-0.053
18.15,-0.15,0.255,-0.095
18.16,-0.178,0.173,-0.035
18.17,-0.174,-0.112,-0.005
18.18,-0.186,-0.03,0.043
18.19,-0.19,-0.031,0.112
18.2,-0.162,0.027,0.137
18.21,-0.215,0.099,0.113
18.22,-0.315,-0.0,0.1
18.23,-0.323,-0.116,-0.001
18.24,-0.308,-0.133,-0.011
18.25,-0.308,-0.076,0.028
18.26,-0.268,0.146,-0.002
18.27,-0.225,0.237,-0.017
18.28,-0.175,0.16,-0.046
18.29,-0.244,0.212,-0.007
18.3,-0.258,0.012,0.059
18.31,-0.161,-0.181,0.063
18.32,-0.201,-0.09,-0.007
18.33,-0.24,-0.149,0.112
18.34,-0.189,0.008,0.119
18.35,-0.248,0.142,0.114
18.36,-0.229,-0.01,0.026
18.37,-0.21,-0.055,-0.085
18.38,-0.31,-0.045,-0.08
18.39,-0.321,0.017,0.052
18.4,-0.344,0.278,0.086
18.41,-0.306,0.36,-0.019
18.42,-0.148,0.166,-0.109
18.43,-0.063,-0.03,-0.17
18.44,-0.167,-0.328,0.054
18.45,-0.126,-0.378,0.192
18.46,-0.192,-0.143,0.32
18.47,-0.255,0.036,0.209
18.48,-0.246,0.248,-0.003
18.49,-0.29,0.214,-0.118
18.5,-0.311,0.009,-0.101
18.51,-0.403,-0.096,-0.054
18.52,-0.364,-0.045,-0.012
18.53,-0.233,0.083,0.016
18.54,-0.155,0.28,-0.013
18.55,-0.195,0.17,0.03
18.56,-0.0,-0.0,-0.842
18.57,-0.412,0.18,0.032
18.58,-0.428,0.108,-0.024
18.59,-0.248,0.246,-0.095
18.6,-0.312,0.052,-0.015
18.61,-0.331,-0.107,0.031
18.62,-0.217,-0.171,0.013
18.63,-0.078,-0.03,0.026
18.64,-0.103,-0.071,0.087
18.65,-0.102,0.143,0.145
18.66,-0.136,0.12,0.099
18.67,-0.245,-0.025,0.011
18.68,-0.338,0.015,-0.027
18.69,-0.387,-0.039,0.016
18.7,-0.408,0.057,0.022
18.71,-0.316,0.136,-0.037
18.72,-0.317,0.108,-0.018
18.73,-0.3,0.124,-0.029
18.74,-0.176,0.075,0.012
18.75,-0.044,-0.07,0.027
18.76,-0.045,-0.09,0.064
18.77,-0.098,-0.035,0.123
18.78,-0.166,-0.047,0.146
18.79,-0.299,0.108,0.084
18.8,-0.282,0.039,-0.02
18.81,-0.308,-0.103,-0.092
18.82,-0.408,-0.013,-0.04
18.83,-0.442,0.026,0.068
18.84,-0.346,0.156,0.075
18.85,-0.239,0.278,0.015
18.86,-0.111,0.176,-0.059
18.87,0.008,-0.112,-0.096
18.88,-0.065,-0.197,0.001
18.89,-0.159,-0.396,0.174
18.9,-0.243,-0.133,0.235
18.91,-0.318,0.163,0.233
18.92,-0.312,0.198,0.061
18.93,-0.265,0.273,-0.154
18.94,-0.341,0.003,-0.203
18.95,-0.359,-0.156,-0.07
18.96,-0.297,-0.033,0.003
18.97,-0.21,0.087,0.066
18.98,-0.142,0.134,0.023
18.99,-0.101,0.252,0.002
19.0,-0.103,0.042,0.077
19.01,-0.0,-0.0,-0.843
19.02,-0.291,0.226,-0.023
19.03,-0.211,0.147,0.007
19.04,-0.229,0.016,-0.006
19.05,-0.094,0.075,-0.024
19.06,-0.157,-0.101,0.056
19.07,-0.115,0.036,0.035
19.08,-0.182,0.042,0.047
19.09,-0.218,0.106,0.108
19.1,-0.238,0.064,0.072
19.11,-0.428,-0.067,0.071
19.12,-0.359,-0.213,0.015
19.13,-0.325,-0.078,-0.033
19.14,-0.347,0.01,0.031
19.15,-0.198,0.17,-0.031
19.16,-0.162,0.311,-0.019
19.17,-0.168,0.252,0.001
19.18,-0.166,0.146,0.01
19.19,-0.083,-0.132,0.02
19.2,-0.133,-0.178,0.03
19.21,-0.273,-0.209,0.12
19.22,-0.267,-0.05,0.136
19.23,-0.333,0.015,0.136
19.24,-0.389,0.151,-0.011
19.25,-0.263,0.01,-0.086
19.26,-0.243,-0.148,-0.075
19.27,-0.249,0.109,0.017
19.28,-0.22,0.138,0.099
19.29,-0.223,0.219,-0.858
19.3,-0.166,0.301,-0.084
19.31,-0.109,-0.069,-0.103
19.32,-0.104,-0.183,-0.006
19.33,-0.167,-0.271,0.103
19.34,-0.335,-0.315,0.291
19.35,-0.323,0.067,0.204
19.36,-0.242,0.138,0.061
19.37,-0.203,0.18,-0.059
19.38,-0.232,0.046,-0.129
19.39,-0.0,-0.0,-0.836
19.4,-0.149,0.018,0.06
19.41,-0.145,0.032,0.022
19.42,-0.139,-0.137,0.048
19.43,-0.185,-0.224,0.11
19.44,-0.259,-0.118,0.127
19.45,-0.296,0.008,0.087
19.46,-0.399,0.133,0.049
19.47,-0.3,0.277,-0.029
19.48,-0.252,0.126,-0.031
19.49,-0.228,0.06,-0.017
19.5,-0.242,-0.079,-0.011
19.51,-0.184,-0.089,0.004
19.52,-0.067,-0.052,0.029
19.53,-0.19,0.122,0.111
19.54,-0.187,-0.08,0.168
19.55,-0.211,0.018,0.083
19.56,-0.346,-0.116,0.065
19.57,-0.327,-0.136,0.002
19.58,-0.364,0.176,-0.011
19.59,-0.345,0.15,0.039
19.6,-0.263,0.281,-0.057
19.61,-0.248,0.189,-0.079
19.62,-0.194,0.002,-0.045
19.63,-0.132,-0.083,0.028
19.64,-0.166,-0.121,0.06
19.65,-0.153,-0.262,0.095
19.66,-0.201,-0.024,0.161
19.67,-0.155,0.127,0.152
19.68,-0.0,-0.0,-0.84
19.69,-0.369,0.089,-0.032
19.7,-0.33,0.241,0.027
19.71,-0.148,0.078,0.033
19.72,0.012,0.136,0.0
19.73,-0.001,-0.036,0.079
19.74,-0.091,-0.273,0.175
19.75,-0.252,-0.134,0.184
19.76,-0.259,-0.029,0.095
19.77,-0.347,0.081,0.046
19.78,-0.385,0.236,-0.045
19.79,-0.385,0.067,-0.066
19.8,-0.462,-0.004,-0.055
19.81,-0.32,-0.086,-0.044
19.82,-0.18,-0.0,-0.851
19.83,-0.088,0.057,0.016
19.84,-0.059,0.192,0.066
19.85,-0.017,0.059,0.069
19.86,-0.031,0.057,0.061
19.87,-0.209,-0.202,0.169
19.88,-0.388,-0.209,0.165
19.89,-0.354,0.026,0.083
19.9,-0.458,-0.116,0.078
19.91,-0.417,0.163,-0.04
19.92,-0.263,0.249,-0.097
19.93,-0.296,-0.044,-0.021
19.94,-0.119,-0.004,-0.05
19.95,-0.1,0.031,-0.028
19.96,-0.067,-0.104,0.048
19.97,-0.072,0.134,0.072
19.98,-0.173,0.133,0.135
19.99,-0.195,0.063,0.152
20.0,-0.338,-0.033,0.085
20.01,-0.421,-0.166,0.037
20.02,-0.405,-0.134,-0.049
20.03,-0.367,0.035,-0.011
20.04,-0.286,0.148,-0.03
20.05,-0.234,0.232,-0.019
20.06,-0.194,0.198,-0.03
20.07,-0.102,0.07,-0.027
20.08,-0.126,-0.031,0.022
20.09,-0.073,-0.148,0.026
20.1,-0.134,-0.056,0.139
20.11,-0.229,0.027,0.185
20.12,-0.331,0.105,0.124
20.13,-0.308,-0.031,-0.856
20.14,-0.272,-0.033,-0.065
20.15,-0.356,-0.21,0.025
20.16,-0.397,0.012,0.12
20.17,-0.282,0.128,0.089
20.18,-0.216,0.266,0.019
20.19,-0.19,0.304,-0.13
20.2,-0.059,0.098,-0.163
20.21,-0.091,-0.239,-0.011
20.22,-0.083,-0.315,0.084
20.23,-0.224,-0.121,0.259
20.24,-0.278,-0.094,0.277
20.25,-0.326,0.24,0.114
20.26,-0.334,0.173,-0.033
20.27,-0.255,-0.038,-0.112
20.28,-0.291,-0.074,-0.118
20.29,-0.393,-0.046,-0.014
20.3,-0.21,0.035,0.018
20.31,-0.204,0.323,-0.004
20.32,-0.098,0.129,-0.001
20.33,-0.064,0.13,0.017
20.34,-0.166,-0.0,-0.851
20.35,-0.256,-0.286,0.183
20.36,-0.363,-0.162,0.098
20.37,-0.334,-0.14,0.045
20.38,-0.288,0.072,-0.011
20.39,-0.227,0.225,-0.029
20.4,-0.279,0.047,0.007
20.41,-0.253,0.059,0.012
20.42,-0.213,0.044,0.035
20.43,-0.193,0.049,0.062
20.44,-0.192,0.123,-0.004
20.45,-0.207,0.159,0.026
20.46,-0.2,-0.041,0.032
20.47,-0.21,-0.04,0.017
20.48,-0.348,-0.246,0.113
20.49,-0.314,-0.236,0.091
20.5,-0.147,-0.01,0.064
20.51,-0.241,0.04,0.077
20.52,-0.263,0.22,0.051
20.53,-0.156,0.187,-0.056
20.54,-0.232,0.086,-0.02
20.55,-0.256,0.048,-0.041
20.56,-0.0,-0.0,-0.835
20.57,-0.201,0.058,0.067
20.58,-0.176,-0.027,-0.068
20.59,-0.202,-0.027,-0.085
20.6,-0.318,-0.066,0.066
20.61,-0.349,0.172,0.122
20.62,-0.315,0.348,0.08
20.63,-0.308,0.136,-0.025
20.64,-0.0,-0.0,-0.828
20.65,-0.196,0.084,0.027
20.66,-0.203,0.092,0.011
20.67,-0.225,0.289,-0.074
20.68,-0.313,0.198,-0.011
20.69,-0.411,0.056,0.077
20.7,-0.314,-0.036,-0.039
20.71,-0.37,-0.006,-0.007
20.72,-0.209,-0.05,0.026
20.73,-0.103,0.193,0.017
20.74,-0.088,0.063,0.09
20.75,-0.036,-0.051,0.066
20.76,-0.13,-0.173,0.117
20.77,-0.285,-0.232,0.226
20.78,-0.202,-0.095,0.127
20.79,-0.378,0.164,0.06
20.8,-0.339,0.173,-0.05
20.81,-0.322,0.252,-0.127
20.82,-0.408,0.014,-0.041
20.83,-0.215,-0.06,-0.028
20.84,-0.125,-0.085,0.054
20.85,-0.257,0.238,0.018
20.86,-0.145,0.214,-0.063
20.87,-0.104,0.202,-0.069
20.88,-0.214,0.106,0.062
20.89,-0.155,-0.095,0.102
20.9,-0.195,-0.128,0.1
20.91,-0.257,-0.09,0.118
20.92,-0.22,-0.178,0.113
20.93,-0.3,0.124,0.098
20.94,-0.254,-0.072,0.068
20.95,-0.19,-0.086,-0.041
20.96,-0.296,0.018,-0.02
20.97,-0.296,-0.008,0.045
20.98,-0.283,0.292,0.079
20.99,-0.285,0.406,-0.019
21.0,-0.254,0.203,-0.091
21.01,-0.116,-0.07,-0.14
21.02,-0.101,-0.249,-0.014
21.03,-0.187,-0.469,0.184
21.04,-0.281,-0.173,0.355
21.05,-0.246,0.037,0.288
21.06,-0.158,0.151,0.016
21.07,-0.199,0.269,-0.106
21.08,-0.269,0.029,-0.146
21.09,-0.341,-0.083,-0.102
21.1,-0.376,0.032,-0.025
21.11,-0.319,0.055,0.054
21.12,-0.209,0.287,0.025
21.13,-0.167,0.196,0.02
21.14,-0.155,0.023,0.059
21.15,-0.133,-0.142,0.081
21.16,-0.312,-0.309,0.157
21.17,-0.25,-0.283,0.109
21.18,-0.172,-0.017,0.002
21.19,-0.261,0.101,0.033
21.2,-0.185,0.28,-0.03
21.21,-0.303,-0.016,-0.853
21.22,-0.398,0.066,0.057
21.23,-0.275,-0.027,-0.031
21.24,-0.305,0.006,-0.022
21.25,-0.246,-0.016,0.011
21.26,-0.16,0.062,0.057
21.27,-0.17,0.132,0.028
21.28,-0.094,-0.312,0.08
21.29,-0.115,-0.17,0.1
21.3,-0.16,-0.152,0.156
21.31,-0.272,-0.038,0.138
21.32,-0.37,0.246,0.059
21.33,-0.298,0.273,-0.082
21.34,-0.27,0.239,-0.125
21.35,-0.35,0.065,-0.057
21.36,-0.233,-0.11,-0.028
21.37,-0.219,-0.147,0.029
21.38,-0.222,-0.083,0.072
21.39,-0.108,-0.081,0.124
21.4,-0.115,0.09,0.113
21.41,-0.152,0.111,0.081
21.42,-0.224,-0.065,0.061
21.43,-0.337,-0.013,0.008
21.44,-0.402,-0.078,0.026
21.45,-0.314,0.151,0.01
21.46,-0.29,0.179,-0.054
21.47,-0.294,0.109,-0.047
21.48,-0.28,0.144,-0.036
21.49,-0.244,0.036,0.01
21.5,-0.163,-0.133,0.066
21.51,-0.071,-0.152,0.015
21.52,-0.089,0.0,0.092
21.53,-0.159,-0.065,0.154
21.54,-0.259,0.137,0.092
21.55,-0.237,0.007,0.008
21.56,-0.297,-0.135,-0.022
21.57,-0.37,0.027,0.014
21.58,-0.365,0.072,0.071
21.59,-0.411,0.234,0.01
21.6,-0.297,0.331,-0.092
21.61,-0.143,0.153,-0.141
21.62,-0.023,-0.142,-0.123
21.63,-0.085,-0.284,0.031
21.64,-0.067,-0.343,0.239
21.65,-0.207,-0.155,0.33
21.66,-0.282,0.231,0.236
21.67,-0.243,0.146,0.028
21.68,-0.283,0.267,-0.156
21.69,-0.371,-0.037,-0.145
21.7,-0.436,-0.173,-0.093
21.71,-0.362,0.02,-0.024
21.72,-0.321,0.061,0.046
21.73,-0.0,-0.0,-0.843
21.74,-0.308,-0.132,0.179
21.75,-0.339,-0.102,0.129
21.76,-0.4,-0.053,-0.03
21.77,-0.437,0.063,-0.06
21.78,-0.351,0.167,-0.052
21.79,-0.253,0.048,-0.006
21.8,-0.192,0.083,-0.02
21.81,-0.1,-0.105,-0.008
21.82,-0.03,0.09,-0.005
21.83,-0.076,0.098,0.096
21.84,-0.193,0.044,0.198
21.85,-0.214,0.021,0.094
21.86,-0.379,-0.111,0.034
21.87,-0.383,-0.145,-0.046
21.88,-0.391,-0.043,-0.025
21.89,-0.437,0.08,0.029
21.9,-0.177,0.134,-0.054
21.91,-0.151,0.245,-0.076
21.92,-0.194,0.109,-0.006
21.93,-0.128,0.147,0.006
21.94,-0.14,-0.001,0.059
21.95,-0.0,-0.0,-0.839
21.96,-0.246,0.094,-0.093
21.97,-0.184,0.027,-0.174
21.98,-0.386,-0.165,-0.035
21.99,-0.324,0.01,0.008
22.0,-0.172,0.177,0.048
22.01,-0.2,0.214,0.087
22.02,-0.116,0.225,0.007
22.03,-0.138,0.047,0.081
22.04,-0.154,-0.205,0.116
22.05,-0.319,-0.241,0.078
22.06,-0.37,-0.24,0.111
22.07,-0.225,-0.105,0.024
22.08,-0.31,0.227,0.035
22.09,-0.243,0.177,0.005
22.1,-0.269,0.163,-0.008
22.11,-0.304,0.122,-0.066
22.12,-0.156,-0.042,-0.058
22.13,-0.194,0.046,0.01
22.14,-0.185,0.18,0.017
22.15,-0.174,0.024,0.095
22.16,-0.15,0.102,0.05
22.17,-0.236,-0.222,0.078
22.18,-0.359,-0.295,0.146
22.19,-0.229,-0.211,0.118
22.2,-0.275,-0.081,0.075
22.21,-0.322,0.169,0.017
22.22,-0.258,0.303,-0.08
22.23,-0.186,0.219,-0.853
22.24,-0.165,0.151,-0.075
22.25,-0.226,-0.041,0.023
22.26,-0.231,-0.125,0.074
22.27,-0.179,-0.067,0.02
22.28,-0.232,0.011,0.112
22.29,-0.249,-0.03,0.116
22.3,-0.23,0.021,0.103
22.31,-0.331,-0.075,0.051
22.32,-0.259,-0.074,-0.029
22.33,-0.236,0.065,-0.022
22.34,-0.249,0.203,-0.002
22.35,-0.193,0.203,-0.032
22.36,-0.291,0.203,-0.011
22.37,-0.224,0.102,-0.008
22.38,-0.219,-0.033,0.001
22.39,-0.239,-0.116,0.085
22.4,-0.216,-0.246,0.109
22.41,-0.181,-0.105,0.138
22.42,-0.139,-0.006,0.116
22.43,-0.251,0.002,0.096
22.44,-0.202,0.145,-0.008
22.45,-0.2,-0.074,-0.034
22.46,-0.367,0.021,0.009
22.47,-0.353,0.177,0.018
22.48,-0.389,0.186,0.032
22.49,-0.278,0.228,-0.041
22.5,-0.177,0.163,-0.148
22.51,-0.132,-0.228,-0.047
22.52,-0.07,-0.281,0.059
22.53,-0.045,-0.275,0.227
22.54,-0.178,-0.153,0.304
22.55,-0.183,0.182,0.161
22.56,-0.282,0.188,0.044
22.57,-0.317,0.142,-0.093
22.58,-0.365,0.005,-0.168
22.59,-0.434,-0.121,-0.037
22.6,-0.393,0.023,-0.014
22.61,-0.354,0.163,-0.014
22.62,-0.177,0.093,0.033
22.63,0.013,0.257,-0.033
22.64,-0.111,-0.032,0.095
22.65,-0.121,-0.265,0.138
22.66,-0.154,-0.189,0.108
22.67,-0.272,-0.156,-0.859
22.68,-0.287,-0.025,0.057
22.69,-0.346,0.218,0.056
22.7,-0.342,0.279,-0.006
22.71,-0.388,0.035,-0.039
22.72,-0.353,0.073,-0.113
22.73,-0.277,-0.118,-0.093
22.74,-0.179,0.017,-0.024
22.75,-0.098,0.133,0.057
22.76,-0.073,-0.034,0.111
22.77,-0.063,0.038,0.072
22.78,-0.107,-0.156,0.111
22.79,-0.223,-0.205,0.16
22.8,-0.341,0.009,0.145
22.81,-0.332,-0.028,0.029
22.82,-0.403,0.133,-0.014
22.83,-0.307,0.296,-0.142
22.84,-0.359,0.018,-0.085
22.85,-0.29,0.034,-0.058
22.86,-0.115,-0.014,-0.001
22.87,-0.147,-0.116,0.084
22.88,-0.055,0.025,0.094
22.89,-0.082,0.046,0.123
22.9,-0.199,-0.02,0.149
22.91,-0.218,-0.018,0.092
22.92,-0.354,-0.067,0.018
22.93,-0.407,-0.095,-0.027
22.94,-0.367,0.098,-0.062
22.95,-0.383,0.133,-0.031
22.96,-0.28,0.187,-0.084
22.97,-0.278,0.149,-0.018
22.98,-0.137,-0.018,0.026
22.99,-0.027,-0.01,0.002
23.0,-0.102,-0.129,0.053
23.01,-0.105,-0.156,-0.857
23.02,-0.149,0.089,0.163
23.03,-0.291,0.063,0.186
23.04,-0.351,0.048,0.022
23.05,-0.271,-0.011,-0.158
23.06,-0.0,-0.0,-0.835
23.07,-0.038,0.161,0.033
23.08,-0.11,0.115,0.083
23.09,-0.205,-0.206,0.14
23.1,-0.312,-0.289,0.108
23.11,-0.34,-0.187,0.099
23.12,-0.309,-0.114,0.052
23.13,-0.349,0.181,0.041
23.14,-0.235,0.279,-0.057
23.15,-0.221,0.108,-0.041
23.16,-0.255,0.066,-0.096
23.17,-0.17,-0.018,-0.04
23.18,-0.225,-0.099,0.072
23.19,-0.197,0.142,0.075
23.2,-0.2,0.136,0.129
23.21,-0.188,0.054,0.072
23.22,-0.194,-0.115,0.065
23.23,-0.294,-0.23,0.099
23.24,-0.268,-0.27,0.111
23.25,-0.332,0.003,0.053
23.26,-0.3,-0.067,0.047
23.27,-0.207,0.396,-0.055
23.28,-0.205,0.216,-0.052
23.29,-0.229,-0.0,-0.852
23.3,-0.222,-0.023,-0.016
23.31,-0.195,-0.057,0.018
23.32,-0.178,-0.057,0.091
23.33,-0.233,0.082,0.137
23.34,-0.235,0.142,0.088
23.35,-0.209,-0.018,0.072
23.36,-0.286,-0.051,0.023
23.37,-0.324,-0.175,0.023
23.38,-0.284,-0.045,0.003
23.39,-0.267,0.131,-0.002
23.4,-0.278,0.181,-0.02
23.41,-0.214,0.265,-0.052
23.42,-0.237,0.197,-0.016
23.43,-0.168,-0.048,0.036
23.44,-0.109,-0.09,0.024
23.45,-0.189,-0.178,0.073
23.46,-0.248,-0.156,-0.848
23.47,-0.242,0.072,0.152
23.48,-0.268,0.052,0.121
23.49,-0.213,0.017,-0.039
23.5,-0.253,-0.021,-0.081
23.51,-0.341,-0.11,0.036
23.52,-0.285,0.082,0.054
23.53,-0.306,0.219,0.081
23.54,-0.243,0.259,0.033
23.55,-0.118,0.272,-0.102
23.56,-0.102,-0.077,-0.106
23.57,-0.194,-0.409,0.028
23.58,-0.216,-0.287,0.192
23.59,-0.299,-0.226,0.344
23.6,-0.21,0.051,0.197
23.61,-0.212,0.325,0.008
23.62,-0.239,0.135,-0.089
23.63,-0.298,0.09,-0.111
23.64,-0.347,-0.051,-0.064
23.65,-0.27,-0.041,-0.02
23.66,-0.263,0.132,0.005
23.67,-0.187,0.19,0.054
23.68,-0.15,0.142,-0.003
23.69,-0.186,0.019,0.058
23.7,-0.178,-0.197,0.097
23.71,-0.265,-0.318,0.126
23.72,-0.271,-0.132,0.143
23.73,-0.257,-0.053,0.087
23.74,-0.279,0.25,-0.851
23.75,-0.239,0.298,-0.051
23.76,-0.309,0.06,-0.001
23.77,-0.233,0.083,-0.05
23.78,-0.261,-0.035,0.004
23.79,-0.309,-0.156,-0.842
23.8,-0.173,0.126,0.03
23.81,-0.179,0.116,0.074
23.82,-0.086,-0.075,0.084
23.83,-0.163,-0.073,0.082
23.84,-0.311,-0.214,0.185
23.85,-0.171,-0.125,0.121
23.86,-0.271,0.103,0.085
23.87,-0.379,0.139,0.049
23.88,-0.256,0.207,-0.065
23.89,-0.27,0.219,-0.095
23.9,-0.238,-0.082,-0.048
23.91,-0.276,-0.084,0.033
23.92,-0.225,-0.045,0.044
23.93,-0.091,-0.097,0.093
23.94,-0.117,0.091,0.127
23.95,-0.169,0.077,0.149
23.96,-0.0,-0.0,-0.827
23.97,-0.313,0.175,0.091
23.98,-0.316,0.344,0.066
23.99,-0.139,0.222,-0.04
24.0,0.03,0.059,-0.13
24.01,-0.068,-0.218,0.03
24.02,-0.114,-0.446,0.15
24.03,-0.236,-0.263,0.312
24.04,-0.272,0.016,0.335
24.05,-0.284,0.204,0.118
24.06,-0.393,0.302,-0.062
24.07,-0.279,-0.03,-0.192
24.08,-0.328,-0.004,-0.184
24.09,-0.428,-0.05,0.007
24.1,-0.296,0.013,0.077
24.11,-0.122,0.154,0.044
24.12,-0.048,0.195,0.049
24.13,-0.041,0.022,0.071
24.14,-0.099,-0.057,0.173
24.15,-0.274,-0.212,0.185
24.16,-0.386,-0.228,0.153
24.17,-0.287,0.05,0.002
24.18,-0.373,0.022,0.0
24.19,-0.367,0.275,-0.076
24.2,-0.336,0.114,-0.055
24.21,-0.323,-0.099,-0.011
24.22,-0.12,-0.037,-0.073
24.23,-0.202,-0.016,0.041
24.24,-0.132,0.076,0.104
24.25,-0.035,0.217,0.065
24.26,-0.114,0.139,0.105
24.27,-0.137,-0.094,0.019
24.28,-0.287,-0.168,0.105
24.29,-0.384,-0.222,0.143
24.3,-0.346,-0.168,0.015
24.31,-0.492,0.083,0.031
24.32,-0.327,0.126,-0.046
24.33,-0.215,0.314,-0.051
24.34,-0.159,0.111,-0.03
24.35,-0.094,-0.065,-0.028
24.36,-0.095,-0.061,-0.019
24.37,-0.047,-0.047,0.058
24.38,-0.147,0.015,0.167
24.39,-0.219,0.183,0.156
24.4,-0.365,0.009,0.122
24.41,-0.441,-0.14,-0.004
24.42,-0.377,-0.059,-0.056
24.43,-0.41,-0.137,0.008
24.44,-0.32,0.118,0.019
24.45,-0.157,0.173,-0.047
24.46,-0.124,0.228,-0.062
24.47,-0.112,0.155,-0.015
24.48,-0.137,0.076,-0.004
24.49,-0.131,-0.141,0.032
24.5,-0.192,-0.14,0.089
24.51,-0.262,-0.018,0.164
24.52,-0.304,-0.044,0.13
24.53,-0.352,0.098,0.051
24.54,-0.26,-0.017,-0.059
24.55,-0.172,-0.122,-0.117
24.56,-0.27,-0.062,-0.019
24.57,-0.292,0.009,0.092
24.58,-0.241,0.283,0.045
24.59,-0.293,0.365,0.011
24.6,-0.161,0.189,-0.094
24.61,-0.091,0.008,-0.138
24.62,-0.166,-0.288,0.012
24.63,-0.169,-0.418,0.182
24.64,-0.299,-0.194,0.294
24.65,-0.28,0.084,0.247
24.66,-0.245,0.153,0.049
24.67,-0.272,0.265,-0.114
24.68,-0.234,-0.031,-0.862
24.69,-0.342,-0.055,-0.064
24.7,-0.349,0.018,-0.04
24.71,-0.294,0.05,0.031
24.72,-0.207,0.215,0.034
24.73,-0.06,0.275,-0.032
24.74,-0.147,0.008,0.111
24.75,-0.179,-0.189,0.079
24.76,-0.245,-0.24,0.105
24.77,-0.341,-0.254,0.133
24.78,-0.205,-0.009,0.033
24.79,-0.272,0.145,0.005
24.8,-0.27,0.283,-0.056
24.81,-0.302,0.128,-0.035
24.82,-0.308,0.049,0.001
24.83,-0.169,-0.001,-0.079
24.84,-0.296,0.035,0.044
24.85,-0.215,0.019,0.074
24.86,-0.103,0.245,-0.001
24.87,-0.179,0.078,0.067
24.88,-0.155,-0.217,0.021
24.89,-0.251,-0.287,0.068
24.9,-0.228,-0.281,0.137
24.91,-0.261,-0.101,0.145
24.92,-0.391,0.265,0.108
24.93,-0.274,0.222,-0.028
24.94,-0.24,0.265,-0.121
24.95,-0.229,0.123,-0.123
24.96,-0.233,-0.176,-0.032
24.97,-0.237,-0.104,0.008
24.98,-0.185,-0.062,0.0
24.99,-0.206,0.0,0.119
25.0,-0.132,0.082,0.117
25.01,-0.198,0.101,0.103
25.02,-0.248,-0.125,-0.862
25.03,-0.28,-0.071,-0.019
25.04,-0.357,-0.017,-0.013
25.05,-0.316,0.126,-0.018
25.06,-0.254,0.296,-0.044
25.07,-0.243,0.229,-0.038
25.08,-0.24,0.125,-0.852
25.09,-0.282,-0.04,0.037
25.1,-0.19,-0.261,0.067
25.11,-0.085,-0.182,0.092
25.12,-0.156,-0.016,0.132
25.13,-0.136,-0.01,0.105
25.14,-0.245,0.231,0.057
25.15,-0.194,0.064,-0.019
25.16,-0.237,-0.152,-0.039
25.17,-0.419,-0.058,0.024
25.18,-0.361,0.033,0.093
25.19,-0.368,0.219,0.096
25.2,-0.391,0.375,-0.034
25.21,-0.216,0.119,-0.111
25.22,-0.061,-0.115,-0.13
25.23,0.037,-0.297,-0.036
25.24,-0.075,-0.403,0.171
25.25,-0.205,-0.106,0.29
25.26,-0.221,0.195,0.257
25.27,-0.246,0.242,0.053
25.28,-0.301,0.235,-0.096
25.29,-0.408,-0.02,-0.154
25.3,-0.401,-0.212,-0.059
25.31,-0.353,0.084,-0.021
25.32,-0.312,0.03,0.06
25.33,-0.224,0.161,0.016
25.34,-0.003,0.199,-0.035
25.35,-0.049,-0.009,0.063
25.36,-0.143,-0.125,-0.853
25.37,-0.302,-0.202,0.196
25.38,-0.264,-0.193,0.097
25.39,-0.248,0.081,0.001
25.4,-0.354,0.135,0.024
25.41,-0.251,0.176,-0.043
25.42,-0.319,0.187,-0.015
25.43,-0.374,-0.05,0.03
25.44,-0.274,-0.008,-0.044
25.45,-0.233,-0.033,-0.014
25.46,-0.086,0.091,0.023
25.47,-0.098,0.063,0.061
25.48,-0.156,0.009,0.071
25.49,-0.158,-0.213,0.111
25.5,-0.223,-0.146,0.118
25.51,-0.239,-0.007,0.154
25.52,-0.337,-0.054,0.076
25.53,-0.362,0.226,-0.048
25.54,-0.305,0.201,-0.112
25.55,-0.321,0.043,-0.051
25.56,-0.259,0.07,-0.046
25.57,-0.179,-0.09,0.014
25.58,-0.137,-0.107,0.06
25.59,-0.054,0.073,0.068
25.6,-0.117,0.004,0.157
25.61,-0.216,0.106,0.146
25.62,-0.266,-0.0,-0.854
25.63,-0.297,-0.037,0.007
25.64,-0.372,-0.072,-0.038
25.65,-0.487,0.0,-0.013
25.66,-0.334,0.082,-0.023
25.67,-0.206,0.202,-0.001
25.68,-0.198,0.089,0.008
25.69,-0.17,0.155,0.021
25.7,-0.144,-0.025,0.049
25.71,-0.074,-0.092,0.076
25.72,-0.156,-0.099,0.09
25.73,-0.268,-0.031,-0.848
25.74,-0.257,0.002,0.108
25.75,-0.312,0.066,0.007
25.76,-0.333,0.014,-0.089
25.77,-0.316,-0.231,-0.016
25.78,-0.293,0.075,0.07
25.79,-0.257,0.137,0.127
25.8,-0.232,0.225,0.066
25.81,-0.171,0.38,-0.086
25.82,-0.046,-0.085,-0.102
25.83,-0.05,-0.219,-0.06
25.84,-0.173,-0.337,0.183
25.85,-0.352,-0.267,0.37
25.86,-0.322,0.122,0.328
25.87,-0.292,0.17,0.041
25.88,-0.288,0.15,-0.163
25.89,-0.253,0.099,-0.175
25.9,-0.254,-0.107,-0.037
25.91,-0.374,-0.065,0.027
25.92,-0.204,0.105,0.033
25.93,-0.142,0.152,0.067
25.94,-0.139,0.2,0.04
25.95,-0.177,0.093,0.081
25.96,-0.168,-0.194,0.137
25.97,-0.361,-0.202,0.091
25.98,-0.404,-0.184,0.062
25.99,-0.0,-0.0,-0.835
26.0,-0.162,0.128,-0.067
26.01,-0.209,-0.052,-0.005
26.02,-0.162,-0.172,0.06
26.03,-0.189,0.048,0.093
26.04,-0.239,0.009,0.146
26.05,-0.214,-0.005,0.134
26.06,-0.326,0.018,0.06
26.07,-0.291,-0.092,0.01
26.08,-0.288,-0.095,-0.036
26.09,-0.343,0.117,0.023
26.1,-0.226,0.137,-0.021
26.11,-0.156,0.207,-0.073
26.12,-0.237,0.198,-0.016
26.13,-0.234,0.021,0.051
26.14,-0.2,0.009,0.04
26.15,-0.157,-0.116,0.046
26.16,-0.208,-0.19,0.125
26.17,-0.283,0.023,0.083
26.18,-0.0,-0.0,-0.833
26.19,-0.426,-0.059,0.039
26.2,-0.265,0.096,-0.01
26.21,-0.227,0.15,0.028
26.22,-0.15,0.083,0.025
26.23,-0.084,0.11,0.09
26.24,-0.152,-0.156,0.227
26.25,-0.17,-0.244,0.116
26.26,-0.256,-0.153,0.069
26.27,-0.199,-0.153,0.026
26.28,-0.257,0.146,-0.002
26.29,-0.377,0.259,0.003
26.3,-0.321,0.107,0.012
26.31,-0.342,0.21,-0.067
26.32,-0.29,0.058,-0.035
26.33,-0.254,-0.087,-0.01
26.34,-0.165,0.12,0.023
26.35,-0.122,0.03,0.052
26.36,-0.0,-0.0,-0.83
26.37,-0.382,0.073,-0.015
26.38,-0.374,0.088,0.014
26.39,-0.274,0.133,-0.064
26.4,-0.276,0.17,-0.026
26.41,-0.248,0.035,0.044
26.42,-0.116,0.027,0.042
26.43,-0.039,-0.033,0.085
26.44,-0.072,-0.104,0.143
26.45,-0.198,-0.055,0.158
26.46,-0.131,-0.043,0.107
26.47,-0.276,0.027,0.113
26.48,-0.374,-0.054,-0.033
26.49,-0.308,-0.008,-0.067
26.5,-0.43,-0.072,-0.007
26.51,-0.392,0.214,0.013
26.52,-0.33,0.273,0.03
26.53,-0.231,0.18,-0.02
26.54,-0.015,0.19,-0.13
26.55,0.046,-0.183,-0.062
26.56,-0.016,-0.403,0.096
26.57,-0.126,-0.262,0.263
26.58,-0.337,-0.085,0.436
26.59,-0.27,0.219,-0.849
26.6,-0.362,0.25,-0.039
26.61,-0.37,0.066,-0.204
26.62,-0.396,-0.05,-0.213
26.63,-0.435,-0.066,-0.03
26.64,-0.253,0.021,0.026
26.65,-0.111,0.15,0.011
26.66,-0.129,0.289,0.081
26.67,0.037,0.135,0.017
26.68,-0.102,0.073,0.193
26.69,-0.222,-0.303,0.223
26.7,-0.348,-0.297,0.143
26.71,-0.376,-0.123,0.047
26.72,-0.285,-0.147,0.021
26.73,-0.387,0.275,0.005
26.74,-0.347,0.263,-0.01
26.75,-0.288,-0.002,-0.007
26.76,-0.213,0.067,-0.078
26.77,-0.135,-0.024,-0.042
26.78,-0.198,-0.019,0.075
26.79,-0.134,0.194,0.089
26.8,-0.136,0.119,0.065
26.81,-0.2,-0.06,0.086
26.82,-0.156,-0.108,0.095
26.83,-0.301,-0.272,0.196
26.84,-0.349,-0.117,0.099
26.85,-0.349,-0.01,-0.005
26.86,-0.362,0.071,-0.034
26.87,-0.177,0.287,-0.11
26.88,-0.266,0.184,-0.038
26.89,-0.184,-0.047,-0.016
26.9,-0.135,0.02,-0.025
26.91,-0.0,-0.0,-0.831
26.92,-0.321,-0.088,0.031
26.93,-0.183,-0.007,-0.074
26.94,-0.314,-0.046,0.008
26.95,-0.346,0.033,0.067
26.96,-0.279,0.263,0.076
26.97,-0.219,0.345,-0.005
26.98,-0.187,0.214,-0.098
26.99,-0.082,0.004,-0.11
27.0,-0.123,-0.326,0.058
27.01,-0.134,-0.343,0.177
27.02,-0.273,-0.162,0.306
27.03,-0.314,-0.078,0.247
27.04,-0.222,0.254,0.003
27.05,-0.238,0.197,-0.105
27.06,-0.288,-0.013,-0.072
27.07,-0.0,-0.0,-0.828
27.08,-0.127,0.146,-0.006
27.09,-0.158,-0.089,0.076
27.1,-0.083,-0.18,0.088
27.11,-0.203,-0.155,0.182
27.12,-0.177,-0.244,0.149
27.13,-0.257,0.145,0.025
27.14,-0.391,0.149,0.025
27.15,-0.307,0.248,-0.022
27.16,-0.299,0.247,-0.032
27.17,-0.281,-0.094,-0.009
27.18,-0.207,-0.118,-0.02
27.19,-0.242,-0.051,0.034
27.2,-0.173,-0.113,0.111
27.21,-0.09,0.046,0.109
27.22,-0.144,0.104,0.075
27.23,-0.205,-0.061,0.078
27.24,-0.27,0.034,0.029
27.25,-0.382,-0.056,0.034
27.26,-0.363,0.045,0.017
27.27,-0.254,0.174,-0.011
27.28,-0.288,0.111,-0.024
27.29,-0.27,0.144,-0.024
27.3,-0.272,0.089,-0.009
27.31,-0.204,-0.061,0.041
27.32,-0.1,-0.063,0.018
27.33,-0.054,-0.095,0.094
27.34,-0.156,-0.115,0.127
27.35,-0.24,0.034,0.137
27.36,-0.278,0.054,0.114
27.37,-0.194,0.006,-0.041
27.38,-0.324,-0.032,-0.08
27.39,-0.413,0.03,0.039
27.4,-0.336,0.079,0.045
27.41,-0.334,0.298,0.031
27.42,-0.262,0.17,0.011
27.43,-0.161,0.057,-0.061
27.44,-0.019,-0.153,-0.067
27.45,-0.018,-0.346,0.058
27.46,-0.137,-0.258,0.176
27.47,-0.287,-0.0,-0.85
27.48,-0.26,0.145,0.173
27.49,-0.225,0.292,-0.042
27.5,-0.329,0.198,-0.119
27.51,-0.358,-0.104,-0.108
27.52,-0.366,-0.042,-0.07
27.53,-0.359,-0.028,0.055
27.54,-0.257,0.035,0.085
27.55,-0.121,0.219,0.036
27.56,-0.094,0.106,0.051
27.57,-0.067,-0.052,0.099
27.58,-0.152,-0.096,0.11
27.59,-0.23,-0.32,0.108
27.6,-0.291,-0.107,0.075
27.61,-0.295,0.124,0.059
27.62,-0.333,0.17,0.028
27.63,-0.345,0.296,-0.039
27.64,-0.397,0.062,-0.069
27.65,-0.304,-0.086,-0.077
27.66,-0.194,-0.037,0.001
27.67,-0.16,-0.036,0.111
27.68,-0.08,0.076,0.092
27.69,-0.085,0.139,0.089
27.7,-0.065,-0.048,0.107
27.71,-0.185,-0.111,0.057
27.72,-0.398,-0.157,0.119
27.73,-0.315,-0.121,0.061
27.74,-0.403,0.103,-0.014
27.75,-0.493,0.171,-0.043
27.76,-0.238,0.139,-0.099
27.77,-0.149,0.126,-0.04
27.78,-0.136,-0.082,0.033
27.79,-0.115,-0.146,0.048
27.8,-0.044,0.01,0.069
27.81,-0.132,0.022,0.115
27.82,-0.222,0.152,0.12
27.83,-0.24,0.125,0.095
27.84,-0.361,-0.029,0.018
27.85,-0.356,-0.115,-0.003
27.86,-0.439,-0.129,-0.033
27.87,-0.341,-0.094,-0.023
27.88,-0.225,0.214,-0.033
27.89,-0.157,0.193,0.008
27.9,-0.173,0.246,0.004
27.91,-0.168,0.158,0.032
27.92,-0.123,-0.073,0.066
27.93,-0.089,-0.143,0.037
27.94,-0.213,-0.197,0.11
27.95,-0.224,-0.069,0.166
27.96,-0.362,0.091,0.136
27.97,-0.378,0.125,0.017
27.98,-0.226,-0.088,-0.114
27.99,-0.312,-0.065,-0.119
28.0,-0.282,0.038,0.021
28.01,-0.231,0.085,0.043
28.02,-0.246,0.305,0.036
28.03,-0.157,0.292,-0.05
28.04,-0.094,0.011,-0.097
28.05,-0.05,-0.2,-0.005
28.06,-0.144,-0.397,0.149
28.07,-0.296,-0.228,0.28
28.08,-0.283,0.085,0.187
28.09,-0.339,0.078,0.097
28.1,-0.328,0.303,-0.122
28.11,-0.267,0.047,-0.192
28.12,-0.282,-0.149,-0.124
28.13,-0.307,-0.037,-0.066
28.14,-0.268,0.105,0.059
28.15,-0.194,0.114,0.096
28.16,-0.1,0.32,0.044
28.17,-0.134,0.052,0.06
28.18,-0.15,-0.195,0.096
28.19,-0.298,-0.158,0.084
28.2,-0.419,-0.331,0.126
28.21,-0.28,0.004,-0.011
28.22,-0.286,0.182,-0.036
28.23,-0.207,0.23,-0.074
28.24,-0.25,0.178,-0.024
28.25,-0.35,0.011,0.004
28.26,-0.0,-0.0,-0.847
28.27,-0.261,0.098,0.094
28.28,-0.281,-0.149,0.094
28.29,-0.306,-0.077,0.034
28.3,-0.325,-0.079,0.01
28.31,-0.0,-0.0,-0.841
28.32,-0.139,-0.128,-0.106
28.33,-0.065,-0.182,-0.067
28.34,-0.145,-0.321,0.157
28.35,-0.234,-0.291,0.319
28.36,-0.228,0.11,0.241
28.37,-0.234,0.125,-0.854
28.38,-0.247,0.21,-0.061
28.39,-0.296,0.051,-0.163
28.4,-0.35,-0.085,-0.055
28.41,-0.382,0.023,-0.012
28.42,-0.348,0.147,0.058
28.43,-0.265,0.083,0.002
28.44,-0.089,0.179,-0.046
28.45,-0.127,0.102,0.076
28.46,-0.09,-0.215,0.126
28.47,-0.186,-0.19,0.132
28.48,-0.257,-0.205,0.125
28.49,-0.168,-0.045,0.066
28.5,-0.303,0.217,0.071
28.51,-0.358,0.16,0.015
28.52,-0.327,0.197,-0.052
28.53,-0.397,0.017,-0.029
28.54,-0.284,-0.116,-0.08
28.55,-0.25,-0.021,-0.024
28.56,-0.209,0.1,0.044
28.57,-0.075,0.066,0.06
28.58,-0.062,0.129,0.035
28.59,-0.065,-0.131,0.1
28.6,-0.163,-0.122,0.125
28.61,-0.285,-0.177,0.179
28.62,-0.334,-0.065,0.136
28.63,-0.406,0.095,0.029
28.64,-0.352,0.226,-0.067
28.65,-0.34,0.091,-0.079
28.66,-0.294,0.007,-0.084
28.67,-0.187,0.026,-0.083
28.68,-0.145,-0.181,0.051
28.69,-0.119,-0.009,0.079
28.7,-0.05,0.053,0.113
28.71,-0.089,0.07,0.132
28.72,-0.183,0.112,0.118
28.73,-0.351,-0.053,0.089
28.74,-0.387,-0.076,-0.024
28.75,-0.393,0.034,-0.059
28.76,-0.389,0.038,-0.015
28.77,-0.328,0.169,-0.043
28.78,-0.267,0.164,-0.051
28.79,-0.154,0.059,0.008
28.8,-0.115,0.063,0.003
28.81,-0.058,-0.067,0.046
28.82,-0.067,-0.177,0.066
28.83,-0.156,0.002,0.097
28.84,-0.25,0.023,0.171
28.85,-0.33,0.021,0.108
28.86,-0.36,0.183,-0.029
28.87,-0.313,-0.162,-0.089
28.88,-0.373,-0.085,-0.074
28.89,-0.335,-0.008,0.049
28.9,-0.25,0.072,0.118
28.91,-0.263,0.338,0.018
28.92,-0.108,0.268,-0.104
28.93,-0.032,-0.027,-0.139
28.94,-0.084,-0.186,-0.062
28.95,-0.175,-0.327,0.144
28.96,-0.303,-0.267,0.346
28.97,-0.269,0.16,0.251
28.98,-0.296,0.14,0.062
28.99,-0.358,0.213,-0.106
29.0,-0.294,0.044,-0.187
29.01,-0.348,-0.144,-0.082
29.02,-0.249,-0.079,-0.045
29.03,-0.288,0.075,-0.013
29.04,-0.16,0.129,0.062
29.05,-0.048,0.312,-0.009
29.06,-0.095,0.111,0.064
29.07,-0.188,-0.159,0.127
29.08,-0.237,-0.193,0.083
29.09,-0.404,-0.24,0.13
29.1,-0.272,-0.042,-0.003
29.11,-0.364,0.159,-0.019
29.12,-0.348,0.151,-0.042
29.13,-0.216,0.118,-0.075
29.14,-0.231,0.028,-0.013
29.15,-0.187,-0.091,0.025
29.16,-0.19,-0.018,0.003
29.17,-0.161,0.2,0.024
29.18,-0.105,0.078,0.067
29.19,-0.187,0.219,-0.003
29.2,-0.263,-0.101,-0.003
29.21,-0.285,-0.29,0.065
29.22,-0.343,-0.126,0.08
29.23,-0.304,-0.151,0.06
29.24,-0.356,0.033,0.047
29.25,-0.173,0.258,-0.073
29.26,-0.128,0.191,-0.03
29.27,-0.213,0.094,-0.026
29.28,-0.185,-0.028,-0.066
29.29,-0.181,-0.081,-0.018
29.3,-0.176,0.0,0.018
29.31,-0.233,0.125,0.114
29.32,-0.252,-0.024,0.138
29.33,-0.289,0.074,0.03
29.34,-0.335,-0.126,-0.009
29.35,-0.307,-0.223,-0.0
29.36,-0.31,0.061,-0.015
29.37,-0.278,0.139,0.012
29.38,-0.218,0.189,-0.047
29.39,-0.165,0.327,-0.064
29.4,-0.163,0.107,0.025
29.41,-0.25,-0.014,0.053
29.42,-0.188,-0.161,0.03
29.43,-0.155,-0.315,0.058
29.44,-0.292,-0.016,0.083
29.45,-0.272,0.09,0.09
29.46,-0.283,0.051,0.064
29.47,-0.205,0.115,-0.12
29.48,-0.16,-0.108,-0.118
29.49,-0.337,-0.141,0.01
29.5,-0.323,0.163,0.106
29.51,-0.305,0.21,0.143
29.52,-0.269,0.331,0.002
29.53,-0.152,0.221,-0.193
29.54,-0.097,-0.271,-0.12
29.55,-0.106,-0.296,-0.049
29.56,-0.19,-0.299,0.134
29.57,-0.276,-0.183,0.333
29.58,-0.2,0.197,0.151
29.59,-0.293,0.23,-0.002
29.6,-0.189,0.082,-0.16
29.61,-0.277,0.033,-0.148
29.62,-0.407,-0.121,-0.0
29.63,-0.359,-0.072,0.014
29.64,-0.29,0.205,0.049
29.65,-0.152,0.21,0.024
29.66,-0.068,0.165,-0.026
29.67,-0.128,0.029,0.054
29.68,-0.188,-0.289,0.093
29.69,-0.285,-0.278,0.108
29.7,-0.271,-0.151,-0.004
29.71,-0.264,-0.031,-0.873
29.72,-0.268,0.305,-0.036
29.73,-0.291,0.288,-0.017
29.74,-0.321,0.052,0.005
29.75,-0.265,0.069,-0.035
29.76,-0.289,-0.136,0.022
29.77,-0.2,-0.032,0.054
29.78,-0.178,0.138,0.018
29.79,-0.21,0.04,0.043
29.8,-0.079,0.049,-0.021
29.81,-0.17,-0.149,0.011
29.82,-0.254,-0.365,0.104
29.83,-0.22,-0.073,0.069
29.84,-0.32,0.054,0.11
29.85,-0.375,0.166,0.039
29.86,-0.258,0.356,-0.049
29.87,-0.25,0.201,-0.088
29.88,-0.204,-0.061,-0.094
29.89,-0.261,-0.078,-0.026
29.9,-0.196,-0.189,0.035
29.91,-0.177,-0.038,0.067
29.92,-0.147,0.016,0.105
29.93,-0.126,0.002,0.114
29.94,-0.27,0.105,0.069
29.95,-0.316,-0.04,0.006
29.96,-0.325,-0.082,-0.006
29.97,-0.374,0.082,-0.059
29.98,-0.286,0.168,-0.063
29.99,-0.257,0.104,-0.048
30.0,-0.296,0.218,-0.058
30.01,-0.259,0.036,0.007
30.02,-0.156,-0.105,0.021
30.03,-0.086,-0.088,0.04
30.04,-0.13,-0.134,0.094
30.05,-0.158,-0.003,0.132
30.06,-0.25,0.151,0.084
30.07,-0.247,0.007,-0.041
30.08,-0.252,0.041,-0.107
30.09,-0.29,-0.094,-0.07
30.1,-0.369,-0.048,0.055
30.11,-0.357,0.161,0.038
30.12,-0.326,0.153,0.036
30.13,-0.24,0.287,-0.063
30.14,-0.073,0.177,-0.133
30.15,-0.049,-0.195,-0.074
30.16,-0.045,-0.348,0.032
30.17,-0.166,-0.24,0.195
30.18,-0.291,-0.162,0.328
30.19,-0.272,0.215,0.166
30.2,-0.298,0.297,-0.041
30.21,-0.284,0.049,-0.195
30.22,-0.343,0.007,-0.238
30.23,-0.486,-0.054,-0.033
30.24,-0.295,-0.033,0.017
30.25,-0.165,0.169,0.008
30.26,-0.081,0.146,-0.039
30.27,-0.04,0.071,-0.005
30.28,-0.102,0.058,0.117
30.29,-0.184,-0.218,0.205
30.3,-0.319,-0.227,0.137
30.31,-0.317,-0.099,-0.011
30.32,-0.299,-0.056,-0.033
30.33,-0.343,0.222,-0.047
30.34,-0.382,0.234,-0.053
30.35,-0.35,0.03,-0.018
30.36,-0.23,0.061,-0.093
30.37,-0.179,-0.029,-0.056
30.38,-0.11,-0.04,-0.0
30.39,-0.108,0.208,0.059
30.4,-0.151,0.087,0.105
30.41,-0.115,-0.03,0.021
30.42,-0.241,-0.1,0.059
30.43,-0.309,-0.29,0.137
30.44,-0.302,-0.077,0.133
30.45,-0.406,0.019,-0.005
30.46,-0.371,0.037,-0.085
30.47,-0.285,0.258,-0.163
30.48,-0.19,0.159,-0.082
30.49,-0.187,-0.031,-0.036
30.5,-0.168,0.002,-0.016
30.51,-0.088,-0.028,0.004
30.52,-0.059,-0.032,0.053
30.53,-0.185,0.18,0.148
30.54,-0.221,0.075,0.179
30.55,-0.323,-0.07,0.064
30.56,-0.393,-0.099,-0.083
30.57,-0.398,-0.247,-0.074
30.58,-0.408,0.059,-0.018
30.59,-0.291,0.173,-0.023
30.6,-0.198,0.183,-0.061
30.61,-0.188,0.249,-0.073
30.62,-0.157,0.105,-0.045
30.63,-0.083,-0.025,0.054
30.64,-0.08,-0.087,0.078
30.65,-0.168,-0.125,-0.874
30.66,-0.25,-0.057,0.113
30.67,-0.269,0.041,0.054
30.68,-0.367,-0.011,0.059
30.69,-0.321,0.007,-0.076
30.7,-0.0,-0.0,-0.851
30.71,-0.07,0.217,0.022
30.72,-0.127,0.163,0.052
30.73,-0.164,-0.135,0.054
30.74,-0.274,-0.379,0.085
30.75,-0.347,-0.212,0.069
30.76,-0.283,-0.156,-0.861
30.77,-0.276,0.043,0.032
30.78,-0.215,0.343,-0.033
30.79,-0.241,0.131,0.05
30.8,-0.342,0.086,0.053
30.81,-0.234,-0.054,-0.065
30.82,-0.213,-0.033,-0.012
30.83,-0.199,0.064,0.01
30.84,-0.264,0.225,0.072
30.85,-0.217,0.021,0.03
30.86,-0.146,-0.118,-0.009
30.87,-0.258,-0.275,0.144
30.88,-0.204,-0.25,-0.855
30.89,-0.214,0.1,0.123
30.9,-0.354,0.117,0.107
30.91,-0.226,0.261,-0.078
30.92,-0.219,0.302,-0.151
30.93,-0.316,-0.064,-0.05
30.94,-0.228,0.001,0.011
30.95,-0.214,-0.104,0.028
30.96,-0.267,-0.142,0.094
30.97,-0.145,0.052,0.118
30.98,-0.124,0.094,-0.849
30.99,-0.219,-0.053,0.127
31.0,-0.213,-0.036,0.035
31.01,-0.318,-0.102,-0.015
31.02,-0.366,0.024,-0.004
31.03,-0.288,0.208,0.003
31.04,-0.263,0.134,0.005
31.05,-0.308,0.262,-0.007
31.06,-0.273,0.018,0.052
31.07,-0.196,-0.098,0.045
31.08,-0.175,-0.124,0.06
31.09,-0.183,-0.132,0.088
31.1,-0.084,-0.117,0.096
31.11,-0.135,0.162,0.045
31.12,-0.276,0.129,0.067
31.13,-0.177,-0.037,-0.019
31.14,-0.261,0.003,-0.02
31.15,-0.41,-0.113,0.098
31.16,-0.336,0.094,-0.847
31.17,-0.356,0.279,0.07
31.18,-0.307,0.241,-0.035
31.19,-0.14,0.132,-0.122
31.2,-0.108,-0.134,-0.122
31.21,-0.056,-0.389,0.069
31.22,-0.0,-0.0,-0.822
31.23,-0.328,0.218,0.025
31.24,-0.4,-0.059,0.038
31.25,-0.26,-0.098,-0.084
31.26,-0.284,-0.038,-0.018
31.27,-0.172,-0.08,0.111
31.28,-0.046,0.219,-0.83
31.29,-0.081,0.111,0.066
31.3,-0.11,-0.14,0.051
31.31,-0.148,-0.125,0.12
31.32,-0.287,-0.129,0.247
31.33,-0.304,-0.001,0.157
31.34,-0.397,0.116,0.015
31.35,-0.372,0.176,-0.078
31.36,-0.312,0.164,-0.11
31.37,-0.311,-0.007,0.02
31.38,-0.149,-0.101,0.039
31.39,-0.109,-0.149,0.036
31.4,-0.177,0.006,0.106
31.41,-0.094,-0.073,0.122
31.42,-0.111,0.251,0.197
31.43,-0.201,0.052,0.14
31.44,-0.341,-0.037,0.029
31.45,-0.4,-0.007,-0.081
31.46,-0.368,-0.09,-0.036
31.47,-0.344,0.149,0.012
31.48,-0.309,0.105,0.043
31.49,-0.272,0.122,0.05
31.5,-0.164,0.074,-0.04
31.51,-0.15,0.016,0.057
31.52,-0.075,-0.102,0.138
31.53,-0.119,-0.062,0.09
31.54,-0.177,-0.026,0.09
31.55,-0.197,-0.031,0.096
31.56,-0.293,0.167,0.078
31.57,-0.389,0.069,0.082
31.58,-0.313,-0.182,-0.055
31.59,-0.281,0.034,-0.078
31.6,-0.351,-0.109,0.055
31.61,-0.293,0.201,0.121
31.62,-0.267,0.346,0.07
31.63,-0.102,0.236,-0.039
31.64,0.028,-0.048,-0.157
31.65,-0.095,-0.276,-0.016
31.66,-0.145,-0.435,0.219
31.67,-0.298,-0.099,0.386
31.68,-0.345,0.102,0.317
31.69,-0.272,0.159,-0.072
31.7,-0.341,0.276,-0.174
31.71,-0.304,0.021,-0.162
31.72,-0.343,-0.087,-0.048
31.73,-0.25,-0.049,-0.007
31.74,-0.218,0.012,0.052
31.75,-0.149,0.173,0.081
31.76,-0.051,0.258,0.064
31.77,-0.125,0.065,0.134
31.78,-0.15,-0.148,0.093
31.79,-0.309,-0.253,0.097
31.8,-0.413,-0.248,0.057
31.81,-0.29,-0.027,-0.036
31.82,-0.382,0.18,0.048
31.83,-0.25,0.236,-0.035
31.84,-0.195,0.268,-0.02
31.85,-0.265,0.005,0.006
31.86,-0.149,-0.034,-0.062
31.87,-0.171,-0.08,0.032
31.88,-0.185,0.024,0.109
31.89,-0.195,0.157,0.116
31.9,-0.176,0.163,0.067
31.91,-0.209,-0.212,0.024
31.92,-0.36,-0.185,0.03
31.93,-0.321,-0.185,0.087
31.94,-0.255,-0.14,0.087
31.95,-0.329,0.219,0.053
31.96,-0.213,0.2,-0.072
31.97,-0.128,0.231,-0.106
31.98,-0.171,0.093,-0.022
31.99,-0.189,-0.093,0.065
32.0,-0.19,-0.065,0.066
32.01,-0.221,-0.032,0.034
32.02,-0.252,-0.043,0.153
32.03,-0.25,0.109,0.084
32.04,-0.279,0.021,0.061
32.05,-0.309,-0.132,0.004
32.06,-0.283,-0.089,-0.047
32.07,-0.32,0.011,0.004
32.08,-0.212,0.135,-0.018
32.09,-0.201,0.219,-0.021
32.1,-0.207,0.239,-0.039
32.11,-0.184,0.173,-0.013
32.12,-0.247,0.019,0.09
32.13,-0.173,-0.156,0.09
32.14,-0.24,-0.191,0.062
32.15,-0.195,-0.184,0.1
32.16,-0.209,-0.061,0.065
32.17,-0.308,0.067,0.057
32.18,-0.221,0.128,0.003
32.19,-0.217,-0.024,-0.046
32.2,-0.297,0.082,-0.046
32.21,-0.254,0.059,-0.011
32.22,-0.322,0.151,0.071
32.23,-0.263,0.348,0.006
32.24,-0.217,0.107,-0.049
32.25,-0.144,-0.131,-0.106
32.26,-0.109,-0.313,-0.012
32.27,-0.19,-0.367,0.214
32.28,-0.238,-0.16,0.312
32.29,-0.202,0.141,0.163
32.3,-0.277,0.149,-0.015
32.31,-0.209,0.234,-0.187
32.32,-0.243,0.09,-0.167
32.33,-0.37,-0.156,-0.86
32.34,-0.334,0.051,0.016
32.35,-0.317,0.08,0.096
32.36,-0.209,0.185,0.058
32.37,-0.18,0.176,0.037
32.38,-0.151,-0.06,0.081
32.39,-0.157,-0.25,0.098
32.4,-0.281,-0.225,0.109
32.41,-0.209,-0.252,0.052
32.42,-0.208,0.051,-0.043
32.43,-0.302,0.279,0.035
32.44,-0.258,0.219,0.009
32.45,-0.346,0.269,-0.02
32.46,-0.336,-0.001,-0.047
32.47,-0.29,-0.138,-0.06
32.48,-0.265,-0.048,-0.034
32.49,-0.198,0.003,0.099
32.5,-0.107,0.039,0.106
32.51,-0.047,0.092,0.013
32.52,-0.11,-0.211,0.053
32.53,-0.207,-0.196,0.106
32.54,-0.262,-0.01,0.141
32.55,-0.306,-0.054,0.069
32.56,-0.416,0.215,-0.044
32.57,-0.31,0.293,-0.133
32.58,-0.262,0.083,-0.09
32.59,-0.297,0.109,-0.065
32.6,-0.184,-0.125,-0.858
32.61,-0.176,-0.111,0.04
32.62,-0.098,-0.056,0.085
32.63,-0.09,0.062,0.149
32.64,-0.118,0.128,0.128
32.65,-0.299,0.083,0.124
32.66,-0.293,-0.152,-0.01
32.67,-0.393,-0.011,-0.059
32.68,-0.458,-0.053,-0.009
32.69,-0.289,0.118,-0.011
32.7,-0.255,0.251,-0.056
32.71,-0.265,0.157,-0.007
32.72,-0.219,0.096,0.021
32.73,-0.078,-0.049,0.02
32.74,-0.116,-0.168,0.071
32.75,-0.125,-0.184,0.08
32.76,-0.133,0.023,0.107
32.77,-0.27,0.009,0.142
32.78,-0.391,0.208,0.082
32.79,-0.257,0.074,-0.053
32.8,-0.3,-0.166,-0.088
32.81,-0.0,-0.0,-0.842
32.82,-0.106,0.202,0.073
32.83,-0.152,-0.166,0.158
32.84,-0.19,-0.198,0.048
32.85,-0.305,-0.179,0.079
32.86,-0.255,-0.15,0.087
32.87,-0.315,0.209,0.027
32.88,-0.381,0.276,-0.008
32.89,-0.331,0.136,-0.053
32.9,-0.304,0.091,-0.048
32.91,-0.219,-0.072,-0.07
32.92,-0.195,-0.164,-0.006
32.93,-0.175,0.092,0.072
32.94,-0.066,0.135,0.096
32.95,-0.121,0.099,0.109
32.96,-0.197,0.026,0.057
32.97,-0.196,-0.193,0.093
32.98,-0.274,-0.173,0.092
32.99,-0.375,-0.104,0.027
33.0,-0.445,-0.065,0.015
33.01,-0.318,0.22,-0.053
33.02,-0.222,0.161,-0.021
33.03,-0.158,0.065,-0.028
33.04,-0.146,0.013,-0.008
33.05,-0.173,-0.062,0.075
33.06,-0.091,-0.022,0.028
33.07,-0.181,0.115,0.078
33.08,-0.215,0.048,0.125
33.09,-0.221,0.065,0.07
33.1,-0.391,-0.046,0.004
33.11,-0.374,-0.25,-0.033
33.12,-0.338,-0.028,-0.041
33.13,-0.282,0.074,0.045
33.14,-0.207,0.129,0.009
33.15,-0.211,0.288,-0.047
33.16,-0.181,0.14,-0.018
33.17,-0.13,0.117,0.009
33.18,-0.183,-0.035,0.038
33.19,-0.181,-0.188,0.078
33.2,-0.254,-0.071,0.097
33.21,-0.301,-0.045,0.093
33.22,-0.282,-0.032,0.117
33.23,-0.289,0.106,-0.038
33.24,-0.207,-0.073,-0.088
33.25,-0.217,-0.076,-0.048
33.26,-0.285,0.099,0.009
33.27,-0.287,0.242,0.093
33.28,-0.307,0.264,0.06
33.29,-0.194,0.238,-0.096
33.3,-0.101,-0.127,-0.104
33.31,-0.151,-0.331,0.002
33.32,-0.2,-0.25,-0.861
33.33,-0.352,-0.29,0.345
33.34,-0.181,0.113,0.145
33.35,-0.223,0.215,-0.019
33.36,-0.248,0.123,-0.107
33.37,-0.219,0.089,-0.188
33.38,-0.359,-0.022,-0.028
33.39,-0.289,-0.056,0.008
33.4,-0.3,0.105,0.017
33.41,-0.258,0.155,0.068
33.42,-0.069,0.17,0.041
33.43,-0.135,0.121,0.082
33.44,-0.262,-0.206,0.072
33.45,-0.266,-0.287,0.085
33.46,-0.281,-0.14,0.09
33.47,-0.204,-0.112,0.061
33.48,-0.297,0.152,-0.012
33.49,-0.256,0.291,-0.09
33.5,-0.248,0.108,-0.055
33.51,-0.31,0.117,-0.019
33.52,-0.238,-0.008,-0.01
33.53,-0.215,-0.065,0.035
33.54,-0.182,0.156,0.055
33.55,-0.252,0.034,0.084
33.56,-0.227,-0.036,0.068
33.57,-0.183,-0.212,0.019
33.58,-0.247,-0.252,0.079
33.59,-0.0,-0.0,-0.845
33.6,-0.321,0.098,0.023
33.61,-0.238,-0.06,0.034
33.62,-0.199,-0.16,0.011
33.63,-0.14,-0.234,0.044
33.64,-0.145,-0.152,0.122
33.65,-0.146,0.076,0.139
33.66,-0.192,0.179,0.106
33.67,-0.251,0.051,-0.001
33.68,-0.241,0.041,-0.12
33.69,-0.318,-0.101,-0.035
33.7,-0.366,0.053,0.008
33.71,-0.357,0.198,0.08
33.72,-0.376,0.21,0.035
33.73,-0.191,0.258,-0.087
33.74,-0.098,-0.047,-0.131
33.75,-0.023,-0.378,-0.004
33.76,-0.013,-0.318,0.086
33.77,-0.241,-0.229,0.332
33.78,-0.251,0.079,0.274
33.79,-0.241,0.309,0.04
33.8,-0.331,0.235,-0.093
33.81,-0.279,0.029,-0.188
33.82,-0.416,-0.112,-0.09
33.83,-0.4,-0.021,-0.016
33.84,-0.312,-0.014,0.023
33.85,-0.263,0.273,0.024
33.86,-0.019,0.084,0.009
33.87,-0.096,0.021,0.063
33.88,-0.096,-0.079,0.141
33.89,-0.203,-0.351,0.118
33.9,-0.287,-0.086,0.079
33.91,-0.222,-0.05,0.01
33.92,-0.347,0.222,0.022
33.93,-0.283,0.37,-0.057
33.94,-0.355,0.11,-0.04
33.95,-0.391,-0.047,-0.079
33.96,-0.267,-0.064,-0.085
33.97,-0.276,-0.228,0.092
33.98,-0.083,0.076,0.053
33.99,-0.113,0.191,0.058
34.0,-0.101,0.001,0.066
34.01,-0.064,-0.01,-0.004
34.02,-0.245,-0.142,0.137
34.03,-0.245,-0.147,0.122
34.04,-0.376,0.024,0.005
34.05,-0.477,0.031,0.008
34.06,-0.312,0.204,-0.129
34.07,-0.302,0.195,-0.056
34.08,-0.286,-0.039,-0.004
34.09,-0.12,-0.011,-0.036
34.1,-0.129,-0.124,0.008
34.11,-0.039,-0.052,0.043
34.12,-0.084,0.127,0.104
34.13,-0.18,0.089,0.157
34.14,-0.28,0.008,0.108
34.15,-0.388,-0.039,0.016
34.16,-0.437,-0.157,-0.042
34.17,-0.43,-0.075,-0.068
34.18,-0.334,0.184,-0.046
34.19,-0.222,0.128,-0.032
34.2,-0.213,0.226,-0.05
34.21,-0.145,0.145,-0.068
34.22,-0.057,0.017,-0.007
34.23,-0.079,-0.104,0.031
34.24,-0.174,-0.154,0.115
34.25,-0.221,-0.115,0.197
34.26,-0.287,0.071,0.117
34.27,-0.33,0.077,0.049
34.28,-0.32,-0.031,-0.87
34.29,-0.262,-0.071,-0.133
34.3,-0.311,-0.027,-0.041
34.31,-0.264,-0.015,0.088
34.32,-0.229,0.335,0.077
34.33,-0.231,0.252,-0.008
34.34,-0.131,0.171,-0.112
34.35,0.0,-0.034,-0.171
34.36,-0.164,-0.367,0.07
34.37,-0.24,-0.274,0.209
34.38,-0.335,-0.091,0.342
34.39,-0.27,-0.002,0.196
34.4,-0.21,0.26,-0.093
34.41,-0.33,0.086,-0.147
34.42,-0.284,-0.046,-0.109
34.43,-0.32,-0.003,-0.063
34.44,-0.328,-0.007,0.038
34.45,-0.26,0.122,-0.022
34.46,-0.141,0.255,-0.043
34.47,-0.078,0.151,0.032
34.48,-0.135,0.024,0.072
34.49,-0.24,-0.114,0.136
34.5,-0.272,-0.383,0.129
34.51,-0.331,-0.168,0.077
34.52,-0.281,0.016,0.015
34.53,-0.272,0.056,0.004
34.54,-0.253,0.291,-0.086
34.55,-0.286,0.125,-0.866
34.56,-0.234,-0.033,-0.04
34.57,-0.226,0.066,-0.038
34.58,-0.221,0.036,0.036
34.59,-0.166,0.143,0.067
34.6,-0.214,0.266,0.075
34.61,-0.137,-0.101,0.086
34.62,-0.187,-0.118,0.016
34.63,-0.31,-0.374,0.073
34.64,-0.31,-0.312,0.123
34.65,-0.238,0.012,0.056
34.66,-0.36,0.116,0.052
34.67,-0.235,0.308,-0.068
34.68,-0.153,0.26,-0.113
34.69,-0.221,0.13,-0.04
34.7,-0.235,-0.121,-0.021
34.71,-0.182,0.001,0.007
34.72,-0.207,-0.099,0.075
34.73,-0.222,0.034,0.075
34.74,-0.22,0.028,0.13
34.75,-0.268,-0.11,0.099
34.76,-0.272,-0.083,0.014
34.77,-0.262,-0.097,-0.045
34.78,-0.297,0.005,0.01
34.79,-0.0,-0.0,-0.848
34.8,-0.167,-0.17,-0.065
34.81,-0.1,-0.462,0.096
34.82,-0.109,-0.3,0.257
34.83,-0.182,-0.017,0.283
34.84,-0.183,0.132,0.14
34.85,-0.253,0.321,-0.014
34.86,-0.259,0.074,-0.12
34.87,-0.399,-0.09,-0.119
34.88,-0.403,-0.04,-0.052
34.89,-0.357,0.083,0.018
34.9,-0.298,0.164,0.021
34.91,-0.282,0.144,0.038
34.92,-0.187,0.3,0.011
34.93,-0.201,0.237,-0.057
34.94,-0.268,0.172,-0.027
34.95,-0.254,-0.046,0.003
34.96,-0.222,-0.2,0.025
34.97,-0.227,0.013,0.071
34.98,-0.256,0.044,0.129
34.99,-0.219,0.195,0.006
35.0,-0.167,0.055,-0.043
35.01,-0.18,-0.183,-0.023
35.02,-0.175,-0.245,0.018
35.03,-0.256,-0.142,0.108
35.04,-0.32,-0.012,0.097
35.05,-0.296,0.3,0.032
35.06,-0.26,0.307,0.001
35.07,-0.232,0.179,-0.06
35.08,-0.231,-0.031,-0.036
35.09,-0.242,-0.187,-0.028
35.1,-0.219,-0.217,-0.013
35.11,-0.198,-0.021,0.117
35.12,-0.142,0.024,0.141
35.13,-0.181,0.249,0.114
35.14,-0.258,-0.002,0.023
35.15,-0.298,-0.166,-0.044
35.16,-0.346,0.03,-0.051
35.17,-0.342,-0.013,-0.017
35.18,-0.327,0.171,0.008
35.19,-0.208,0.248,-0.077
35.2,-0.2,0.181,-0.047
35.21,-0.211,0.028,0.027
35.22,-0.153,-0.129,0.08
35.23,-0.187,-0.254,0.099
35.24,-0.197,-0.164,0.067
35.25,-0.179,-0.012,0.044
35.26,-0.217,0.145,0.068
35.27,-0.278,0.213,-0.019
35.28,-0.257,0.093,-0.109
35.29,-0.239,-0.175,-0.09
35.3,-0.291,0.008,0.001
35.31,-0.327,0.085,0.12
35.32,-0.321,0.181,0.086
35.33,-0.241,0.284,-0.045
35.34,-0.183,0.076,-0.095
35.35,-0.095,-0.236,-0.062
35.36,-0.097,-0.316,-0.002
35.37,-0.219,-0.381,0.242
35.38,-0.177,0.014,0.239
35.39,-0.212,0.297,0.092
35.4,-0.264,0.229,-0.049
35.41,-0.257,0.219,-0.194
35.42,-0.376,0.005,-0.122
35.43,-0.399,-0.206,-0.027
35.44,-0.377,0.006,-0.035
35.45,-0.311,0.094,0.058
35.46,-0.129,0.042,0.022
35.47,-0.055,0.226,0.041
35.48,-0.066,-0.11,0.102
35.49,-0.126,-0.196,0.113
35.5,-0.279,-0.135,0.106
35.51,-0.167,-0.144,-0.026
35.52,-0.31,0.179,-0.018
35.53,-0.365,0.298,-0.009
35.54,-0.314,0.184,-0.061
35.55,-0.426,0.085,-0.087
35.56,-0.272,-0.126,-0.112
35.57,-0.225,-0.128,-0.045
35.58,-0.193,0.035,0.114
35.59,-0.072,0.031,0.132
35.6,-0.079,0.257,0.071
35.61,-0.055,-0.087,-0.015
35.62,-0.205,-0.229,0.082
35.63,-0.282,-0.123,0.121
35.64,-0.339,-0.112,0.104
35.65,-0.507,0.014,0.057
35.66,-0.32,0.16,-0.189
35.67,-0.292,0.304,-0.159
35.68,-0.265,0.009,-0.062
35.69,-0.156,-0.014,-0.001
35.7,-0.099,-0.118,0.012
35.71,-0.035,-0.112,0.02
35.72,-0.102,0.065,0.121
35.73,-0.175,0.125,0.197
35.74,-0.233,0.181,0.098
35.75,-0.323,0.01,-0.009
35.76,-0.433,-0.173,-0.078
35.77,-0.461,-0.1,-0.084
35.78,-0.374,0.002,-0.029
35.79,-0.231,0.115,-0.035
35.8,-0.23,0.194,-0.035
35.81,-0.157,0.141,-0.036
35.82,-0.044,0.081,-0.003
35.83,-0.085,-0.019,0.058
35.84,-0.15,-0.14,0.088
35.85,-0.202,-0.092,0.098
35.86,-0.26,0.085,0.098
35.87,-0.351,0.029,0.082
35.88,-0.338,0.057,-0.029
35.89,-0.296,-0.185,-0.134
35.9,-0.335,-0.158,-0.015
35.91,-0.281,-0.006,0.057
35.92,-0.278,0.223,0.078
35.93,-0.251,0.326,-0.01
35.94,-0.057,0.344,-0.193
35.95,-0.094,-0.018,-0.122
35.96,-0.069,-0.401,-0.033
35.97,-0.161,-0.297,0.132
35.98,-0.352,-0.238,0.38
35.99,-0.317,0.119,0.294
36.0,-0.335,0.21,-0.015
36.01,-0.29,0.107,-0.166
36.02,-0.21,0.054,-0.238
36.03,-0.348,-0.037,-0.1
36.04,-0.287,-0.124,-0.039
36.05,-0.181,0.132,-0.05
36.06,-0.145,0.198,0.015
36.07,-0.089,0.207,0.004
36.08,-0.132,0.135,0.111
36.09,-0.217,-0.108,0.127
36.1,-0.337,-0.26,0.088
36.11,-0.375,-0.169,0.036
36.12,-0.262,-0.176,-0.013
36.13,-0.31,0.154,-0.039
36.14,-0.219,0.167,-0.064
36.15,-0.236,0.026,-0.014
36.16,-0.239,0.095,-0.036
36.17,-0.255,0.027,-0.01
36.18,-0.238,-0.022,0.03
36.19,-0.184,0.204,-0.04
36.2,-0.26,0.094,-0.876
36.21,-0.117,0.014,-0.016
36.22,-0.135,-0.044,0.005
36.23,-0.334,-0.318,0.135
36.24,-0.253,-0.15,0.074
36.25,-0.223,-0.044,0.065
36.26,-0.339,0.084,0.065
36.27,-0.275,0.241,-0.056
36.28,-0.22,0.221,-0.09
36.29,-0.244,0.033,-0.082
36.3,-0.187,-0.03,-0.08
36.31,-0.146,-0.005,0.034
36.32,-0.207,-0.074,0.064
36.33,-0.171,0.1,0.075
36.34,-0.202,0.057,0.057
36.35,-0.304,-0.022,0.073
36.36,-0.29,-0.016,0.009
36.37,-0.356,-0.142,0.021
36.38,-0.33,-0.021,-0.022
36.39,-0.248,0.193,-0.023
36.4,-0.214,0.082,-0.029
36.41,-0.206,0.226,-0.053
36.42,-0.227,0.086,0.023
36.43,-0.145,-0.0,-0.869
36.44,-0.18,-0.091,0.009
36.45,-0.33,-0.126,0.083
36.46,-0.199,-0.093,0.081
36.47,-0.19,0.057,0.07
36.48,-0.304,0.0,0.067
36.49,-0.198,0.021,-0.071
36.5,-0.207,0.031,-0.077
36.51,-0.274,-0.088,0.029
36.52,-0.262,0.114,0.077
36.53,-0.323,0.252,0.079
36.54,-0.307,0.198,-0.006
36.55,-0.16,0.172,-0.147
36.56,-0.11,-0.04,-0.18
36.57,-0.15,-0.425,0.012
36.58,-0.226,-0.252,0.214
36.59,-0.258,-0.117,0.334
36.6,-0.185,0.096,0.161
36.61,-0.2,0.306,-0.058
36.62,-0.277,0.143,-0.113
36.63,-0.26,-0.019,-0.156
36.64,-0.384,-0.021,-0.051
36.65,-0.304,-0.135,0.031
36.66,-0.252,0.135,0.026
36.67,-0.208,0.198,0.03
36.68,-0.15,0.106,0.036
36.69,-0.188,0.118,0.009
36.7,-0.202,-0.269,0.056
36.71,-0.271,-0.249,0.066
36.72,-0.227,-0.066,0.038
36.73,-0.253,0.015,0.051
36.74,-0.224,0.155,0.017
36.75,-0.204,0.3,-0.022
36.76,-0.367,0.048,0.069
36.77,-0.267,0.004,-0.034
36.78,-0.223,-0.044,-0.108
36.79,-0.318,-0.105,-0.021
36.8,-0.205,0.195,-0.021
36.81,-0.179,0.135,0.05
36.82,-0.095,-0.021,0.01
36.83,-0.075,-0.079,-0.038
36.84,-0.216,-0.313,0.113
36.85,-0.251,-0.145,0.19
36.86,-0.301,0.139,0.129
36.87,-0.372,0.114,0.024
36.88,-0.273,0.283,-0.18
36.89,-0.313,0.133,-0.115
36.9,-0.269,-0.055,-0.042
36.91,-0.234,-0.139,0.013
36.92,-0.232,-0.142,0.019
36.93,-0.045,-0.166,0.05
36.94,-0.136,0.152,0.11
36.95,-0.168,0.169,0.139
36.96,-0.235,0.057,0.09
36.97,-0.285,0.017,-0.078
36.98,-0.377,-0.075,-0.096
36.99,-0.405,0.008,-0.025
37.0,-0.284,0.173,-0.033
37.01,-0.292,0.129,-0.034
37.02,-0.245,0.102,-0.038
37.03,-0.203,0.076,0.024
37.04,-0.127,-0.176,0.085
37.05,-0.092,-0.07,0.044
37.06,-0.152,-0.067,0.044
37.07,-0.13,-0.053,0.068
37.08,-0.217,0.207,0.022
37.09,-0.374,0.119,0.052
37.1,-0.265,-0.016,-0.04
37.11,-0.269,-0.035,-0.107
37.12,-0.402,-0.158,-0.025
37.13,-0.297,0.038,0.044
37.14,-0.311,0.294,0.092
37.15,-0.245,0.257,0.051
37.16,-0.042,0.116,-0.145
37.17,-0.041,-0.049,-0.158
37.18,-0.065,-0.529,0.0
37.19,-0.225,-0.224,0.182
37.2,-0.321,-0.056,0.335
37.21,-0.24,0.125,0.175
37.22,-0.371,0.359,-0.064
37.23,-0.335,0.125,-0.186
37.24,-0.327,-0.079,-0.163
37.25,-0.35,-0.109,-0.057
37.26,-0.328,-0.083,-0.003
37.27,-0.183,-0.028,0.028
37.28,-0.07,0.273,-0.005
37.29,-0.08,0.233,0.061
37.3,-0.099,0.064,0.061
37.31,-0.203,-0.156,-0.873
37.32,-0.318,-0.321,0.064
37.33,-0.266,-0.083,0.017
37.34,-0.363,0.026,0.051
37.35,-0.408,0.165,-0.009
37.36,-0.284,0.319,-0.049
37.37,-0.321,0.051,0.003
37.38,-0.175,-0.031,-0.865
37.39,-0.186,-0.098,-0.056
37.4,-0.143,-0.098,0.049
37.41,-0.079,0.164,0.067
37.42,-0.186,0.114,0.118
37.43,-0.128,-0.094,0.019
37.44,-0.295,-0.086,0.087
37.45,-0.35,-0.264,0.168
37.46,-0.385,-0.148,0.052
37.47,-0.462,0.096,0.001
37.48,-0.284,0.117,-0.075
37.49,-0.165,0.269,-0.102
37.5,-0.182,0.122,-0.072
37.51,-0.088,-0.107,-0.023
37.52,-0.056,-0.063,0.012
37.53,-0.18,-0.005,0.098
37.54,-0.237,-0.01,0.167
37.55,-0.183,0.183,0.115
37.56,-0.288,0.07,0.081
37.57,-0.367,-0.099,-0.031
37.58,-0.356,-0.123,-0.089
37.59,-0.423,-0.07,-0.024
37.6,-0.269,0.043,-0.017
37.61,-0.211,0.231,-0.014
37.62,-0.17,0.167,-0.046
37.63,-0.152,0.241,-0.017
37.64,-0.134,0.078,0.065
37.65,-0.144,-0.135,0.065
37.66,-0.203,-0.135,0.08
37.67,-0.238,-0.135,0.101
37.68,-0.275,-0.092,0.056
37.69,-0.334,0.098,0.065
37.7,-0.305,0.026,0.006
37.71,-0.271,-0.037,-0.074
37.72,-0.266,-0.013,-0.01
37.73,-0.279,0.004,0.041
37.74,-0.249,0.195,0.033
37.75,-0.212,0.316,-0.046
37.76,-0.171,0.191,-0.087
37.77,-0.073,0.01,-0.167
37.78,-0.117,-0.2,-0.033
37.79,-0.228,-0.367,0.171
37.8,-0.29,-0.156,0.328
37.81,-0.293,0.064,0.248
37.82,-0.0,-0.0,-0.854
37.83,-0.238,-0.013,-0.07
37.84,-0.305,0.002,0.019
37.85,-0.145,0.04,0.042
37.86,-0.157,0.114,0.043
37.87,-0.0,-0.0,-0.846
37.88,-0.321,0.078,0.018
37.89,-0.285,0.209,-0.024
37.9,-0.301,0.209,-0.04
37.91,-0.254,0.114,-0.036
37.92,-0.27,0.059,0.012
37.93,-0.211,-0.127,0.04
37.94,-0.087,-0.193,0.037
37.95,-0.089,-0.066,0.076
37.96,-0.11,-0.018,0.124
37.97,-0.199,0.131,0.12
37.98,-0.249,0.115,0.03
37.99,-0.273,-0.148,-0.049
38.0,-0.298,-0.045,-0.048
38.01,-0.382,0.091,0.015
38.02,-0.398,0.145,0.092
38.03,-0.366,0.341,-0.033
38.04,-0.195,0.196,-0.14
38.05,-0.089,-0.101,-0.129
38.06,0.011,-0.214,0.01
38.07,-0.064,-0.384,0.184
38.08,-0.204,-0.151,0.318
38.09,-0.223,0.163,0.218
38.1,-0.236,0.175,0.061
38.11,-0.277,0.211,-0.135
38.12,-0.313,0.029,-0.159
38.13,-0.455,-0.173,-0.064
38.14,-0.394,-0.034,-0.053
38.15,-0.312,0.12,0.029
38.16,-0.232,0.133,0.048
38.17,-0.064,0.239,0.025
38.18,-0.087,0.001,0.061
38.19,-0.082,-0.204,0.118
38.2,-0.221,-0.197,0.124
38.21,-0.324,-0.239,0.127
38.22,-0.212,0.014,0.013
38.23,-0.319,0.232,0.021
38.24,-0.303,0.209,-0.021
38.25,-0.299,0.193,-0.122
38.26,-0.376,0.019,-0.077
38.27,-0.257,-0.099,-0.081
38.28,-0.21,-0.029,0.001
38.29,-0.158,0.077,0.05
38.3,-0.048,0.037,0.048
38.31,-0.093,0.112,0.1
38.32,-0.133,-0.126,0.124
38.33,-0.238,-0.169,0.128
38.34,-0.285,-0.075,0.087
38.35,-0.311,-0.012,0.012
38.36,-0.384,0.063,-0.075
38.37,-0.394,0.243,-0.109
38.38,-0.282,0.009,-0.07
38.39,-0.199,0.054,-0.023
38.4,-0.207,-0.062,0.05
38.41,-0.107,-0.167,0.044
38.42,-0.077,0.09,0.027
38.43,-0.108,0.058,0.128
38.44,-0.169,0.126,0.126
38.45,-0.315,0.073,0.053
38.46,-0.332,-0.038,-0.03
38.47,-0.344,-0.106,-0.08
38.48,-0.445,0.009,-0.019
38.49,-0.365,0.026,0.006
38.5,-0.192,0.124,-0.042
38.51,-0.199,0.148,-0.042
38.52,-0.182,0.06,-0.008
38.53,-0.078,0.138,-0.005
38.54,-0.077,-0.081,0.02
38.55,-0.117,-0.136,0.058
38.56,-0.16,0.007,0.106
38.57,-0.345,-0.038,0.137
38.58,-0.343,0.031,0.08
38.59,-0.279,0.075,-0.096
38.6,-0.316,-0.158,-0.066
38.61,-0.347,-0.01,-0.017
38.62,-0.27,0.107,0.042
38.63,-0.226,0.166,0.04
38.64,-0.199,0.264,-0.056
38.65,-0.089,0.16,-0.115
38.66,-0.026,-0.134,-0.096
38.67,-0.182,-0.252,0.086
38.68,-0.243,-0.26,0.231
38.69,-0.351,-0.169,0.274
38.7,-0.301,0.165,0.109
38.71,-0.304,0.125,-0.872
38.72,-0.299,0.105,-0.15
38.73,-0.231,0.049,-0.164
38.74,-0.34,-0.159,-0.05
38.75,-0.22,0.077,0.002
38.76,-0.224,0.127,0.025
38.77,-0.158,0.147,0.058
38.78,-0.061,0.215,0.037
38.79,-0.216,0.004,0.086
38.8,-0.249,-0.187,0.067
38.81,-0.256,-0.179,0.025
38.82,-0.39,-0.172,0.096
38.83,-0.298,0.038,0.005
38.84,-0.288,0.157,0.036
38.85,-0.23,0.202,-0.029
38.86,-0.232,0.094,-0.094
38.87,-0.266,0.019,-0.037
38.88,-0.161,-0.063,-0.001
38.89,-0.226,0.042,0.026
38.9,-0.206,0.124,0.073
38.91,-0.193,0.009,0.066
38.92,-0.193,0.081,0.035
38.93,-0.186,-0.179,0.029
38.94,-0.336,-0.261,0.088
38.95,-0.328,-0.105,0.089
38.96,-0.195,-0.063,0.036
38.97,-0.365,0.145,0.012
38.98,-0.227,0.304,-0.092
38.99,-0.174,0.089,-0.067
39.0,-0.151,0.078,-0.065
39.01,-0.206,0.053,-0.018
39.02,-0.223,-0.062,0.077
39.03,-0.142,-0.074,0.038
39.04,-0.214,0.119,0.04
39.05,-0.268,-0.075,0.091
39.06,-0.254,-0.039,0.071
39.07,-0.308,-0.056,0.017
39.08,-0.286,-0.078,-0.036
39.09,-0.342,0.049,-0.007
39.1,-0.28,0.18,-0.022
39.11,-0.156,0.276,-0.101
39.12,-0.241,0.219,0.007
39.13,-0.236,0.055,0.01
39.14,-0.112,-0.053,0.015
39.15,-0.186,-0.164,0.024
39.16,-0.21,-0.293,0.089
39.17,-0.241,-0.009,0.105
39.18,-0.196,-0.025,0.117
39.19,-0.292,0.137,0.066
39.2,-0.242,0.15,-0.068
39.21,-0.253,-0.091,-0.11
39.22,-0.328,-0.007,-0.038
39.23,-0.303,0.125,0.035
39.24,-0.292,0.143,0.08
39.25,-0.25,0.247,-0.036
39.26,-0.145,0.178,-0.164
39.27,-0.089,-0.233,-0.071
39.28,-0.093,-0.289,0.011
39.29,-0.156,-0.251,0.231
39.3,-0.289,-0.151,0.26
39.31,-0.212,0.151,0.131
39.32,-0.297,0.277,-0.005
39.33,-0.272,0.093,-0.13
39.34,-0.339,0.09,-0.133
39.35,-0.378,-0.165,-0.051
39.36,-0.293,0.075,-0.043
39.37,-0.296,0.136,0.032
39.38,-0.195,0.127,0.041
39.39,-0.069,0.199,-0.017
39.4,-0.173,-0.054,0.094
39.41,-0.105,-0.325,0.077
39.42,-0.231,-0.158,0.062
39.43,-0.264,-0.174,0.096
39.44,-0.302,0.046,0.047
39.45,-0.341,0.318,-0.005
39.46,-0.283,0.209,-0.067
39.47,-0.401,0.11,-0.035
39.48,-0.306,-0.021,-0.075
39.49,-0.259,-0.145,-0.074
39.5,-0.226,-0.068,0.016
39.51,-0.136,0.173,0.029
39.52,-0.058,0.034,0.088
39.53,-0.09,0.015,0.011
39.54,-0.111,-0.077,0.015
39.55,-0.25,-0.25,-0.873
39.56,-0.253,0.01,0.07
39.57,-0.422,0.04,0.055
39.58,-0.422,0.142,0.005
39.59,-0.277,0.33,-0.115
39.6,-0.313,0.029,-0.078
39.61,-0.232,-0.044,-0.069
39.62,-0.178,-0.123,-0.005
39.63,-0.085,-0.165,0.044
39.64,-0.093,0.024,0.071
39.65,-0.141,0.127,0.149
39.66,-0.166,0.116,0.135
39.67,-0.293,0.02,0.05
39.68,-0.359,-0.124,-0.008
39.69,-0.37,-0.168,-0.077
39.7,-0.37,0.158,-0.04
39.71,-0.361,0.126,-0.018
39.72,-0.292,0.219,-0.029
39.73,-0.21,0.225,-0.096
39.74,-0.147,-0.033,0.009
39.75,-0.083,-0.067,0.013
39.76,-0.073,-0.151,0.061
39.77,-0.162,-0.197,0.118
39.78,-0.114,0.058,0.075
39.79,-0.244,0.172,0.111
39.8,-0.383,0.078,0.066
39.81,-0.292,0.099,-0.128
39.82,-0.28,-0.103,-0.142
39.83,-0.375,-0.125,-0.867
39.84,-0.339,0.113,0.067
39.85,-0.302,0.135,0.129
39.86,-0.185,0.278,-0.013
39.87,-0.054,0.25,-0.86
39.88,-0.021,-0.214,-0.094
39.89,-0.088,-0.277,0.033
39.9,-0.208,-0.238,0.238
39.91,-0.298,-0.146,0.333
39.92,-0.249,0.186,0.13
39.93,-0.337,0.227,-0.022
39.94,-0.33,0.037,-0.149
39.95,-0.395,0.045,-0.121
39.96,-0.383,-0.158,-0.027
39.97,-0.196,-0.055,-0.046
39.98,-0.24,0.192,0.033
39.99,-0.122,0.14,0.07
40.0,-0.05,0.213,0.064
40.01,-0.078,0.03,0.065
40.02,-0.213,-0.292,0.146
40.03,-0.332,-0.228,0.106
40.04,-0.269,-0.081,0.055
40.05,-0.348,-0.025,0.028
40.06,-0.345,0.304,-0.038
40.07,-0.318,0.264,-0.083
40.08,-0.28,0.053,-0.064
40.09,-0.2,-0.025,-0.098
40.1,-0.173,-0.052,0.029
40.11,-0.178,-0.02,0.098
40.12,-0.124,0.172,0.088
40.13,-0.135,0.146,0.101
40.14,-0.113,-0.019,-0.002
40.15,-0.287,-0.142,0.038
40.16,-0.34,-0.347,0.079
40.17,-0.283,-0.111,0.049
40.18,-0.395,-0.056,0.077
40.19,-0.264,0.128,-0.012
40.2,-0.19,0.315,-0.09
40.21,-0.233,0.116,0.004
40.22,-0.16,-0.024,-0.03
40.23,-0.175,0.007,-0.007
40.24,-0.207,-0.092,0.065
40.25,-0.199,0.044,0.063
40.26,-0.201,0.145,0.101
40.27,-0.265,-0.034,0.054
40.28,-0.31,-0.052,0.01
40.29,-0.348,-0.183,-0.005
40.3,-0.303,-0.092,0.003
40.31,-0.275,0.152,-0.004
40.32,-0.228,0.207,-0.054
40.33,-0.22,0.268,-0.033
40.34,-0.154,0.234,-0.048
40.35,-0.161,0.055,0.022
40.36,-0.178,-0.158,0.034
40.37,-0.177,-0.265,0.057
40.38,-0.198,-0.08,0.094
40.39,-0.287,-0.014,0.13
40.4,-0.38,0.14,0.093
40.41,-0.224,0.031,-0.049
40.42,-0.182,-0.054,-0.108
40.43,-0.305,-0.092,0.022
40.44,-0.288,-0.018,0.074
40.45,-0.256,0.296,0.08
40.46,-0.24,0.221,0.016
40.47,-0.168,0.284,-0.158
40.48,-0.177,-0.042,-0.157
40.49,-0.135,-0.406,-0.864
40.5,-0.172,-0.305,0.116
40.51,-0.344,-0.15,0.292
40.52,-0.267,-0.019,0.239
40.53,-0.21,0.303,0.015
40.54,-0.197,0.259,-0.101
40.55,-0.185,-0.053,-0.133
40.56,-0.34,0.012,-0.098
40.57,-0.325,-0.072,-0.023
40.58,-0.287,0.1,0.076
40.59,-0.223,0.294,0.022
40.6,-0.128,0.083,-0.007
40.61,-0.186,-0.034,0.04
40.62,-0.219,-0.243,0.112
40.63,-0.338,-0.304,0.151
40.64,-0.24,-0.107,0.069
40.65,-0.204,0.062,0.003
40.66,-0.194,0.266,-0.028
40.67,-0.262,0.36,-0.029
40.68,-0.318,-0.07,0.011
40.69,-0.253,0.049,-0.046
40.7,-0.289,-0.077,-0.008
40.71,-0.287,-0.084,0.033
40.72,-0.276,0.193,-0.03
40.73,-0.2,0.134,0.018
40.74,-0.051,-0.062,0.022
40.75,-0.184,-0.129,0.061
40.76,-0.242,-0.302,0.145
40.77,-0.133,-0.148,0.087
40.78,-0.279,0.136,0.084
40.79,-0.38,0.097,0.074
40.8,-0.264,0.279,-0.086
40.81,-0.283,0.232,-0.124
40.82,-0.294,-0.112,-0.04
40.83,-0.28,-0.08,-0.079
40.84,-0.18,-0.06,0.005
40.85,-0.093,-0.108,0.095
40.86,-0.064,0.139,0.122
40.87,-0.176,0.076,0.121
40.88,-0.253,-0.024,0.094
40.89,-0.268,-0.0,-0.868
40.9,-0.348,-0.043,-0.001
40.91,-0.412,0.044,0.002
40.92,-0.311,0.173,-0.05
40.93,-0.245,0.15,-0.049
40.94,-0.265,0.148,-0.017
40.95,-0.194,0.035,0.036
40.96,-0.109,-0.14,0.02
40.97,-0.094,-0.14,0.064
40.98,-0.165,-0.123,0.08
40.99,-0.0,-0.0,-0.845
41.0,-0.379,-0.052,-0.114
41.01,-0.402,-0.008,-0.028
41.02,-0.313,0.031,0.021
41.03,-0.148,0.112,0.023
41.04,-0.033,0.206,0.059
41.05,-0.076,-0.04,0.134
41.06,-0.098,-0.117,0.132
41.07,-0.236,-0.22,0.13
41.08,-0.347,-0.195,0.097
41.09,-0.253,0.11,0.007
41.1,-0.368,0.115,0.015
41.11,-0.295,0.244,-0.063
41.12,-0.386,0.106,-0.061
41.13,-0.379,-0.141,-0.026
41.14,-0.126,-0.071,-0.063
41.15,-0.173,0.027,0.074
41.16,-0.143,0.106,0.06
41.17,-0.054,0.215,-0.003
41.18,-0.099,0.113,0.058
41.19,-0.096,-0.117,0.03
41.2,-0.346,-0.132,0.144
41.21,-0.391,-0.199,0.147
41.22,-0.283,-0.064,0.024
41.23,-0.487,0.094,0.006
41.24,-0.321,0.066,-0.052
41.25,-0.216,0.204,-0.087
41.26,-0.226,0.057,-0.049
41.27,-0.071,-0.095,-0.042
41.28,-0.097,0.045,0.003
41.29,-0.105,-0.018,0.086
41.3,-0.095,0.089,0.148
41.31,-0.214,0.128,0.143
41.32,-0.348,-0.031,-0.861
41.33,-0.441,-0.208,0.029
41.34,-0.385,-0.028,-0.084
41.35,-0.388,-0.073,-0.007
41.36,-0.343,0.143,-0.007
41.37,-0.135,0.236,-0.076
41.38,-0.136,0.159,-0.057
41.39,-0.17,0.159,0.006
41.4,-0.129,0.017,0.059
41.41,-0.098,-0.198,0.081
41.42,-0.206,-0.11,0.088
41.43,-0.244,-0.013,0.148
41.44,-0.296,0.036,0.127
41.45,-0.388,0.116,-0.005
41.46,-0.271,-0.094,-0.061
41.47,-0.173,-0.07,-0.099
41.48,-0.333,-0.054,0.043
41.49,-0.28,0.072,0.106
41.5,-0.243,0.287,0.019
41.51,-0.257,0.391,-0.05
41.52,-0.114,0.108,-0.125
41.53,-0.099,-0.096,-0.097
41.54,-0.176,-0.341,0.087
41.55,-0.206,-0.383,0.244
41.56,-0.274,-0.025,0.329
41.57,-0.252,0.097,0.169
41.58,-0.298,0.176,-0.048
41.59,-0.242,0.142,-0.183
41.6,-0.255,-0.123,-0.124
41.61,-0.393,-0.068,-0.037
41.62,-0.395,0.103,0.006
41.63,-0.226,0.086,0.024
41.64,-0.117,0.255,-0.053
41.65,-0.085,0.219,-0.857
41.66,-0.118,-0.09,0.167
41.67,-0.171,-0.175,0.144
41.68,-0.325,-0.235,0.115
41.69,-0.309,-0.212,0.029
41.7,-0.284,0.005,0.01
41.71,-0.249,0.198,0.007
41.72,-0.255,0.234,-0.039
41.73,-0.393,0.13,-0.009
41.74,-0.249,-0.034,-0.03
41.75,-0.16,0.044,-0.033
41.76,-0.218,0.099,0.063
41.77,-0.153,0.086,0.07
41.78,-0.082,0.142,-0.008
41.79,-0.192,0.002,-0.006
41.8,-0.254,-0.335,0.125
41.81,-0.316,-0.209,0.168
41.82,-0.264,-0.256,0.168
41.83,-0.255,-0.07,0.058
41.84,-0.288,0.214,-0.043
41.85,-0.279,0.313,-0.031
41.86,-0.211,0.197,-0.049
41.87,-0.233,0.161,-0.051
41.88,-0.18,-0.114,-0.051
41.89,-0.133,-0.097,-0.047
41.9,-0.206,0.028,0.034
41.91,-0.226,-0.071,0.157
41.92,-0.241,0.087,0.151
41.93,-0.255,-0.077,0.121
41.94,-0.268,-0.18,0.015
41.95,-0.268,-0.003,-0.049
41.96,-0.283,0.065,0.024
41.97,-0.252,0.206,-0.008
41.98,-0.295,0.328,-0.072
41.99,-0.224,0.126,-0.078
42.0,-0.238,0.145,-0.049
42.01,-0.272,-0.052,0.023
42.02,-0.158,-0.244,0.071
42.03,-0.195,-0.097,0.101
42.04,-0.0,-0.0,-0.845
42.05,-0.478,-0.152,-0.073
42.06,-0.458,-0.011,0.002
42.07,-0.26,0.162,-0.026
42.08,-0.251,0.166,-0.012
42.09,-0.121,0.179,-0.055
42.1,-0.002,0.102,0.065
42.11,-0.075,-0.145,0.125
42.12,-0.199,-0.242,0.186
42.13,-0.285,-0.197,0.164
42.14,-0.197,-0.097,0.013
42.15,-0.315,0.114,0.034
42.16,-0.356,0.145,0.039
42.17,-0.361,0.128,0.005
42.18,-0.449,0.107,0.013
42.19,-0.301,-0.06,-0.089
42.2,-0.196,0.098,-0.11
42.21,-0.186,0.093,-0.035
42.22,-0.094,0.048,0.053
42.23,-0.049,0.037,0.037
42.24,-0.091,-0.16,0.11
42.25,-0.211,-0.235,0.161
42.26,-0.205,-0.057,0.161
42.27,-0.345,-0.002,0.146
42.28,-0.414,0.083,0.009
42.29,-0.319,0.278,-0.135
42.3,-0.336,0.073,-0.145
42.31,-0.323,0.022,-0.076
42.32,-0.242,0.024,-0.04
42.33,-0.127,-0.151,0.035
42.34,-0.117,-0.027,0.05
42.35,-0.049,0.062,0.085
42.36,-0.083,0.079,0.161
42.37,-0.206,0.046,0.121
42.38,-0.319,-0.019,0.057
42.39,-0.297,-0.107,-0.039
42.4,-0.434,0.03,-0.022
42.41,-0.445,0.0,-0.028
42.42,-0.308,0.184,-0.04
42.43,-0.296,0.116,-0.03
42.44,-0.18,0.083,-0.043
42.45,-0.144,0.094,-0.025
42.46,-0.106,-0.062,0.065
42.47,-0.069,-0.109,0.063
42.48,-0.112,-0.011,0.094
42.49,-0.187,-0.012,0.126
42.5,-0.306,-0.0,-0.864
42.51,-0.315,0.077,0.012
42.52,-0.336,-0.145,-0.042
42.53,-0.397,-0.081,0.009
42.54,-0.353,0.117,0.032
42.55,-0.306,0.198,0.052
42.56,-0.224,0.299,-0.039
42.57,-0.084,0.298,-0.173
42.58,-0.013,-0.155,-0.129
42.59,-0.045,-0.293,-0.006
42.6,-0.127,-0.295,0.243
42.61,-0.293,-0.176,0.403
42.62,-0.324,0.24,0.247
42.63,-0.35,0.085,0.005
42.64,-0.338,0.145,-0.177
42.65,-0.306,-0.03,-0.173
42.66,-0.398,-0.176,-0.044
42.67,-0.256,-0.009,-0.029
42.68,-0.182,0.118,0.013
42.69,-0.191,0.235,0.064
42.7,-0.071,0.182,0.038
42.71,-0.159,0.13,0.079
42.72,-0.174,-0.281,-0.859
42.73,-0.288,-0.136,0.091
42.74,-0.378,-0.182,0.085
42.75,-0.292,-0.136,-0.022
42.76,-0.256,0.246,0.01
42.77,-0.247,0.176,0.002
42.78,-0.33,0.074,0.002
42.79,-0.242,0.026,-0.033
42.8,-0.178,0.024,0.002
42.81,-0.219,0.024,0.052
42.82,-0.188,0.154,-0.023
42.83,-0.131,0.099,0.03
42.84,-0.08,0.066,0.002
42.85,-0.21,-0.084,0.092
42.86,-0.316,-0.315,0.154
42.87,-0.322,-0.135,0.12
42.88,-0.333,-0.067,0.053
42.89,-0.304,0.008,-0.025
42.9,-0.282,0.29,-0.065
42.91,-0.234,0.153,0.016
42.92,-0.215,0.106,-0.014
42.93,-0.109,-0.02,-0.053
42.94,-0.158,-0.045,0.001
42.95,-0.148,-0.034,0.081
42.96,-0.241,0.145,0.17
42.97,-0.278,-0.083,0.123
42.98,-0.312,-0.013,0.046
42.99,-0.376,-0.16,-0.029
43.0,-0.352,-0.196,-0.005
43.01,-0.297,0.113,-0.002
43.02,-0.224,0.151,-0.0
43.03,-0.157,0.28,-0.064
43.04,-0.147,0.25,-0.858
43.05,-0.214,0.115,0.045
43.06,-0.227,0.034,0.05
43.07,-0.187,-0.111,0.042
43.08,-0.196,-0.228,0.075
43.09,-0.258,-0.08,0.141
43.1,-0.263,0.005,0.096
43.11,-0.31,-0.068,0.079
43.12,-0.131,-0.006,-0.084
43.13,-0.2,-0.004,-0.053
43.14,-0.359,0.007,0.064
43.15,-0.288,0.287,0.041
43.16,-0.0,-0.0,-0.839
43.17,-0.199,-0.272,0.112
43.18,-0.258,-0.183,0.064
43.19,-0.213,-0.124,0.033
43.2,-0.262,0.142,0.049
43.21,-0.291,0.299,0.043
43.22,-0.323,0.145,0.062
43.23,-0.361,0.146,-0.057
43.24,-0.297,-0.023,-0.128
43.25,-0.222,-0.114,-0.049
43.26,-0.169,0.12,0.03
43.27,-0.175,0.146,0.108
43.28,-0.101,-0.1,0.073
43.29,-0.081,-0.026,0.031
43.3,-0.192,-0.369,0.137
43.31,-0.324,-0.214,0.223
43.32,-0.315,0.06,0.124
43.33,-0.33,0.06,0.013
43.34,-0.361,0.315,-0.112
43.35,-0.263,0.282,-0.124
43.36,-0.213,0.027,-0.055
43.37,-0.172,-0.033,-0.069
43.38,-0.212,-0.096,0.056
43.39,-0.123,-0.206,0.074
43.4,-0.101,0.094,-0.853
43.41,-0.183,0.076,0.202
43.42,-0.259,0.11,0.147
43.43,-0.289,0.031,0.009
43.44,-0.315,-0.099,-0.052
43.45,-0.322,0.01,-0.052
43.46,-0.351,0.105,0.026
43.47,-0.293,0.062,0.024
43.48,-0.274,0.173,-0.078
43.49,-0.231,0.133,-0.015
43.5,-0.202,-0.031,-0.846
43.51,-0.111,-0.093,0.111
43.52,-0.115,-0.134,0.103
43.53,-0.128,-0.078,0.108
43.54,-0.166,0.026,0.115
43.55,-0.325,0.097,0.125
43.56,-0.285,0.125,-0.843
43.57,-0.303,-0.029,-0.056
43.58,-0.436,-0.164,0.01
43.59,-0.418,0.099,-0.002
43.6,-0.347,0.205,0.087
43.61,-0.252,0.229,0.007
43.62,-0.022,0.229,-0.097
43.63,0.003,-0.103,-0.051
43.64,0.053,-0.366,0.065
43.65,-0.06,-0.235,0.231
43.66,-0.294,-0.14,0.392
43.67,-0.26,0.206,0.164
43.68,-0.414,0.269,0.016
43.69,-0.389,0.053,-0.148
43.7,-0.347,0.008,-0.233
43.71,-0.473,-0.151,-0.035
43.72,-0.293,-0.015,0.006
43.73,-0.188,0.155,0.077
43.74,-0.059,0.212,0.075
43.75,0.056,0.244,0.036
43.76,-0.094,0.0,0.162
43.77,-0.143,-0.257,0.182
43.78,-0.339,-0.318,0.147
43.79,-0.388,-0.148,0.086
43.8,-0.379,-0.089,0.049
43.81,-0.371,0.195,-0.035
43.82,-0.329,0.323,-0.076
43.83,-0.344,0.02,-0.07
43.84,-0.23,0.061,-0.085
43.85,-0.127,-0.004,-0.041
43.86,-0.118,-0.033,0.059
43.87,-0.094,0.167,0.095
43.88,-0.121,0.068,0.136
43.89,-0.154,-0.0,0.074
43.9,-0.254,-0.074,0.117
43.91,-0.37,-0.273,0.161
43.92,-0.292,-0.111,0.054
43.93,-0.379,-0.029,-0.026
43.94,-0.392,0.04,-0.044
43.95,-0.201,0.298,-0.095
43.96,-0.162,0.155,-0.024
43.97,-0.158,0.026,0.005
43.98,-0.115,-0.007,-0.004
43.99,-0.161,-0.076,0.092
44.0,-0.154,0.028,0.096
44.01,-0.154,0.049,0.118
44.02,-0.253,0.126,0.153
44.03,-0.305,-0.068,0.053
44.04,-0.418,-0.074,-0.002
44.05,-0.392,-0.188,-0.015
44.06,-0.289,-0.007,-0.034
44.07,-0.3,0.167,0.02
44.08,-0.172,0.071,-0.025
44.09,-0.183,0.375,-0.028
44.1,-0.163,0.106,-0.005
44.11,-0.104,-0.044,0.003
44.12,-0.187,-0.082,0.039
44.13,-0.189,-0.154,0.117
44.14,-0.213,-0.079,0.174
44.15,-0.326,0.104,0.126
44.16,-0.342,-0.066,0.033
44.17,-0.263,-0.063,-0.108
44.18,-0.202,-0.044,-0.066
44.19,-0.308,-0.064,0.038
44.2,-0.318,0.264,0.027
44.21,-0.214,0.342,-0.002
44.22,-0.191,0.248,-0.066
44.23,-0.048,0.152,-0.154
44.24,-0.117,-0.269,0.007
44.25,-0.184,-0.417,0.148
44.26,-0.282,-0.122,0.26
44.27,-0.35,-0.197,0.318
44.28,-0.276,0.146,0.063
44.29,-0.299,0.21,-0.11
44.3,-0.214,-0.021,-0.138
44.31,-0.268,-0.03,-0.124
44.32,-0.349,0.042,-0.007
44.33,-0.223,0.057,0.043
44.34,-0.241,0.25,0.022
44.35,-0.165,0.214,-0.017
44.36,-0.176,0.015,0.041
44.37,-0.185,-0.066,0.098
44.38,-0.28,-0.234,0.111
44.39,-0.362,-0.264,0.104
44.4,-0.198,-0.085,0.013
44.41,-0.216,0.081,0.047
44.42,-0.2,0.253,0.004
44.43,-0.274,0.198,-0.035
44.44,-0.308,-0.002,-0.041
44.45,-0.218,0.042,-0.147
44.46,-0.334,0.044,-0.013
44.47,-0.281,0.049,0.07
44.48,-0.168,0.179,0.037
44.49,-0.218,0.061,0.031
44.5,-0.097,-0.218,0.026
44.51,-0.15,-0.227,0.108
44.52,-0.201,-0.203,0.169
44.53,-0.187,-0.119,0.074
44.54,-0.385,0.157,0.047
44.55,-0.307,0.167,-0.019
44.56,-0.247,0.236,-0.081
44.57,-0.367,0.147,-0.046
44.58,-0.279,-0.144,-0.029
44.59,-0.193,-0.009,-0.021
44.6,-0.18,0.028,-0.024
44.61,-0.201,-0.066,0.094
44.62,-0.139,0.067,0.078
44.63,-0.098,0.002,0.064
44.64,-0.212,-0.106,0.071
44.65,-0.275,-0.005,0.009
44.66,-0.412,-0.001,0.045
44.67,-0.3,0.125,-0.028
44.68,-0.295,0.24,-0.048
44.69,-0.33,0.068,-0.051
44.7,-0.25,0.152,-0.06
44.71,-0.24,0.048,-0.005
44.72,-0.15,-0.111,0.018
44.73,-0.118,-0.077,0.009
44.74,-0.117,-0.166,0.136
44.75,-0.113,0.015,0.119
44.76,-0.23,0.115,0.096
44.77,-0.247,-0.057,0.017
44.78,-0.219,0.006,-0.116
44.79,-0.412,0.001,-0.0
44.8,-0.394,0.012,0.071
44.81,-0.314,0.18,0.009
44.82,-0.281,0.3,-0.085
44.83,-0.211,0.073,-0.106
44.84,-0.158,-0.007,-0.096
44.85,-0.068,-0.214,0.018
44.86,-0.039,-0.377,0.117
44.87,-0.194,-0.175,0.229
44.88,-0.231,0.022,0.213
44.89,-0.211,0.179,0.097
44.9,-0.28,0.306,-0.072
44.91,-0.345,0.016,-0.133
44.92,-0.421,-0.102,-0.119
44.93,-0.314,0.058,-0.087
44.94,-0.348,0.035,0.033
44.95,-0.253,0.154,0.034
44.96,-0.146,0.179,-0.046
44.97,-0.057,-0.064,0.008
44.98,-0.068,-0.073,0.05
44.99,-0.209,-0.199,0.133
45.0,-0.0,-0.0,-0.856
45.01,-0.254,0.083,-0.092
45.02,-0.208,0.081,-0.053
45.03,-0.245,-0.079,0.066
45.04,-0.124,-0.027,0.024
45.05,-0.049,0.061,0.048
45.06,-0.159,0.007,0.122
45.07,-0.174,0.086,0.101
45.08,-0.283,-0.06,0.133
45.09,-0.375,-0.056,0.005
45.1,-0.32,-0.077,-0.058
45.11,-0.0,-0.0,-0.85
45.12,-0.06,-0.119,-0.062
45.13,-0.069,-0.22,0.051
45.14,-0.114,-0.304,0.194
45.15,-0.273,-0.236,0.283
45.16,-0.279,0.197,0.2
45.17,-0.297,0.074,0.002
45.18,-0.357,0.196,-0.144
45.19,-0.307,0.034,-0.208
45.2,-0.283,-0.127,-0.108
45.21,-0.384,0.052,0.0
45.22,-0.243,0.125,-0.859
45.23,-0.105,0.163,0.024
45.24,-0.027,0.246,0.019
45.25,-0.161,0.04,0.147
45.26,-0.142,-0.236,0.143
45.27,-0.277,-0.083,0.121
45.28,-0.376,-0.352,0.121
45.29,-0.338,-0.046,0.009
45.3,-0.391,0.129,-0.043
45.31,-0.247,0.137,-0.067
45.32,-0.252,0.157,-0.091
45.33,-0.303,0.076,-0.005
45.34,-0.195,-0.021,-0.038
45.35,-0.103,0.079,0.017
45.36,-0.175,0.16,0.109
45.37,-0.155,-0.003,0.063
45.38,-0.152,0.115,0.064
45.39,-0.206,-0.201,0.104
45.4,-0.312,-0.229,0.059
45.41,-0.342,-0.138,0.04
45.42,-0.241,-0.186,0.001
45.43,-0.348,0.173,0.006
45.44,-0.313,0.287,-0.015
45.45,-0.122,0.146,-0.027
45.46,-0.219,0.18,-0.039
45.47,-0.184,-0.029,-0.02
45.48,-0.128,-0.093,0.028
45.49,-0.204,0.008,0.065
45.5,-0.211,0.025,0.118
45.51,-0.263,-0.063,0.106
45.52,-0.318,0.001,0.048
45.53,-0.31,-0.177,0.038
45.54,-0.292,-0.002,0.022
45.55,-0.302,-0.004,0.0
45.56,-0.273,0.134,-0.01
45.57,-0.183,0.257,-0.078
45.58,-0.223,0.173,-0.054
45.59,-0.274,0.096,-0.006
45.6,-0.18,0.036,-0.036
45.61,-0.225,-0.103,0.044
45.62,-0.238,-0.146,0.066
45.63,-0.188,-0.041,0.154
45.64,-0.248,-0.035,0.2
45.65,-0.224,0.011,0.048
45.66,-0.177,0.012,-0.101
45.67,-0.179,-0.125,-0.07
45.68,-0.0,-0.0,-0.848
45.69,-0.131,0.075,0.002
45.7,-0.154,-0.243,0.145
45.71,-0.137,-0.23,0.118
45.72,-0.271,-0.193,0.138
45.73,-0.0,-0.0,-0.844
45.74,-0.276,0.086,-0.118
45.75,-0.232,-0.082,-0.049
45.76,-0.21,-0.124,0.075
45.77,0.0,-0.021,0.054
45.78,-0.135,0.079,0.124
45.79,-0.104,0.04,0.141
45.8,-0.118,0.037,0.125
45.81,-0.354,-0.071,0.103
45.82,-0.374,-0.056,-0.041
45.83,-0.372,0.048,-0.058
45.84,-0.422,0.139,-0.043
45.85,-0.332,0.209,-0.064
45.86,-0.282,0.154,0.001
45.87,-0.182,0.068,-0.043
45.88,-0.104,-0.037,-0.012
45.89,-0.076,-0.167,0.046
45.9,-0.021,-0.133,0.111
45.91,-0.146,0.045,0.172
45.92,-0.242,0.042,0.162
45.93,-0.288,0.104,0.065
45.94,-0.287,0.063,-0.074
45.95,-0.366,-0.156,-0.857
45.96,-0.417,-0.108,0.004
45.97,-0.354,0.074,0.056
45.98,-0.303,0.188,0.069
45.99,-0.226,0.304,-0.019
46.0,-0.123,0.242,-0.116
46.01,-0.022,-0.157,-0.085
46.02,0.03,-0.31,-0.022
46.03,-0.186,-0.31,0.18
46.04,-0.312,-0.275,0.342
46.05,-0.257,0.262,0.252
46.06,-0.325,0.25,0.087
46.07,-0.282,0.139,-0.123
46.08,-0.379,0.001,-0.187
46.09,-0.403,-0.207,-0.085
46.1,-0.304,0.011,-0.016
46.11,-0.23,0.126,0.033
46.12,-0.135,0.145,0.032
46.13,-0.048,0.239,-0.031
46.14,-0.043,0.064,0.087
46.15,-0.135,-0.223,0.13
46.16,-0.362,-0.191,0.147
46.17,-0.323,-0.147,0.101
46.18,-0.296,0.02,0.011
46.19,-0.338,0.236,-0.045
46.2,-0.323,0.178,-0.034
46.21,-0.292,-0.06,-0.013
46.22,-0.25,0.063,-0.018
46.23,-0.239,-0.183,0.03
46.24,-0.202,0.027,0.005
46.25,-0.154,0.212,-0.011
46.26,-0.109,0.07,0.06
46.27,-0.102,0.165,0.01
46.28,-0.254,-0.116,0.052
46.29,-0.281,-0.294,0.115
46.3,-0.202,-0.106,0.014
46.31,-0.373,-0.071,0.108
46.32,-0.377,0.091,0.032
46.33,-0.235,0.337,-0.063
46.34,-0.255,0.09,-0.021
46.35,-0.193,0.054,-0.079
46.36,-0.194,0.014,-0.068
46.37,-0.087,-0.175,0.03
46.38,-0.075,0.069,0.052
46.39,-0.201,0.149,0.112
46.4,-0.27,-0.041,0.136
46.41,-0.313,0.042,0.066
46.42,-0.327,-0.098,0.021
46.43,-0.39,-0.211,-0.007
46.44,-0.367,-0.022,-0.009
46.45,-0.241,0.171,-0.056
46.46,-0.163,0.238,-0.031
46.47,-0.187,0.25,-0.01
46.48,-0.142,0.11,-0.013
46.49,-0.116,0.002,0.007
46.5,-0.19,-0.193,0.06
46.51,-0.241,-0.186,0.107
46.52,-0.277,-0.019,0.089
46.53,-0.337,0.002,0.106
46.54,-0.348,0.065,0.003
46.55,-0.208,0.025,-0.097
46.56,-0.215,-0.113,-0.057
46.57,-0.241,-0.009,0.037
46.58,-0.204,0.23,0.091
46.59,-0.301,0.18,0.09
46.6,-0.214,0.297,-0.09
46.61,-0.112,0.148,-0.172
46.62,-0.18,-0.25,-0.863
46.63,-0.199,-0.343,0.069
46.64,-0.281,-0.263,0.225
46.65,-0.339,-0.131,0.314
46.66,-0.205,0.227,0.09
46.67,-0.176,0.232,-0.058
46.68,-0.217,0.074,-0.157
46.69,-0.211,0.103,-0.14
46.7,-0.351,-0.086,0.011
46.71,-0.319,0.004,0.035
46.72,-0.288,0.185,0.033
46.73,-0.201,0.116,0.058
46.74,-0.165,0.081,0.058
46.75,-0.207,-0.013,0.043
46.76,-0.222,-0.307,0.12
46.77,-0.303,-0.178,0.075
46.78,-0.231,-0.078,0.016
46.79,-0.128,0.0,-0.048
46.8,-0.236,0.3,-0.04
46.81,-0.31,0.177,0.033
46.82,-0.325,0.027,0.023
46.83,-0.281,0.04,-0.022
46.84,-0.251,-0.052,0.006
46.85,-0.0,-0.0,-0.846
46.86,-0.282,0.041,0.029
46.87,-0.304,-0.079,-0.015
46.88,-0.381,-0.019,0.0
46.89,-0.278,0.247,-0.024
46.9,-0.158,0.24,-0.07
46.91,-0.256,0.166,-0.066
46.92,-0.306,0.106,-0.015
46.93,-0.216,-0.091,0.047
46.94,-0.19,-0.133,0.054
46.95,-0.159,-0.186,0.088
46.96,-0.166,-0.119,0.12
46.97,-0.156,0.131,0.079
46.98,-0.226,0.071,0.094
46.99,-0.181,0.088,-0.013
47.0,-0.195,-0.041,-0.072
47.01,-0.371,-0.084,0.038
47.02,-0.36,0.015,0.032
47.03,-0.356,0.274,0.034
47.04,-0.411,0.182,0.044
47.05,-0.228,0.194,-0.097
47.06,-0.126,0.028,-0.13
47.07,0.004,-0.416,-0.0
47.08,-0.02,-0.341,0.105
47.09,-0.205,-0.158,0.303
47.1,-0.206,0.059,0.29
47.11,-0.21,0.311,0.071
47.12,-0.357,0.229,-0.119
47.13,-0.34,-0.029,-0.182
47.14,-0.492,-0.083,-0.084
47.15,-0.473,-0.047,-0.011
47.16,-0.342,-0.031,0.044
47.17,-0.204,0.211,0.032
47.18,-0.003,0.151,0.014
47.19,0.01,0.101,0.051
47.2,-0.058,-0.078,0.101
47.21,-0.154,-0.283,0.09
47.22,-0.273,-0.095,0.057
47.23,-0.288,-0.022,0.021
47.24,-0.361,0.114,-0.012
47.25,-0.39,0.288,0.004
47.26,-0.365,0.134,-0.031
47.27,-0.374,-0.015,-0.015
47.28,-0.264,-0.091,-0.053
47.29,-0.145,-0.098,0.017
47.3,-0.037,0.034,0.006
47.31,-0.095,0.203,0.053
47.32,-0.088,-0.052,0.1
47.33,-0.083,0.067,0.017
47.34,-0.333,-0.216,0.149
47.35,-0.387,-0.237,0.169
47.36,-0.318,0.025,0.025
47.37,-0.404,0.072,-0.037
47.38,-0.347,0.15,-0.122
47.39,-0.263,0.285,-0.119
47.4,-0.187,0.037,-0.035
47.41,-0.13,-0.111,-0.035
47.42,-0.107,0.005,0.011
47.43,-0.086,-0.174,0.063
47.44,-0.137,0.11,0.137
47.45,-0.181,0.153,0.171
47.46,-0.28,-0.024,0.105
47.47,-0.36,0.001,-0.032
47.48,-0.352,-0.129,-0.111
47.49,-0.375,-0.105,-0.045
47.5,-0.395,0.169,-0.024
47.51,-0.245,0.1,-0.016
47.52,-0.182,0.219,-0.077
47.53,-0.181,0.167,-0.036
47.54,-0.106,-0.008,0.039
47.55,-0.087,-0.011,0.064
47.56,-0.133,-0.162,0.109
47.57,-0.107,-0.1,0.117
47.58,-0.243,0.011,0.072
47.59,-0.385,0.009,0.091
47.6,-0.337,-0.013,-0.025
47.61,-0.335,-0.036,-0.092
47.62,-0.393,-0.121,-0.013
47.63,-0.272,0.022,0.014
47.64,-0.272,0.272,0.031
47.65,-0.226,0.291,-0.014
47.66,-0.061,0.256,-0.126
47.67,0.031,-0.007,-0.16
47.68,-0.096,-0.401,0.028
