t,ax,ay,az
0.0,-0.456,0.011,-0.108
0.01,-0.374,0.097,-0.035
0.02,-0.234,0.201,-0.063
0.03,-0.168,0.218,-0.044
0.04,-0.161,0.133,-0.043
0.05,-0.092,-0.014,-0.016
0.06,-0.055,-0.074,0.033
0.07,-0.103,-0.146,0.076
0.08,-0.22,-0.018,0.1
0.09,-0.294,0.042,0.108
0.1,-0.377,0.023,0.069
0.11,-0.306,0.01,-0.094
0.12,-0.236,-0.158,-0.102
0.13,-0.355,-0.14,-0.005
0.14,-0.304,0.143,0.078
0.15,-0.289,0.263,0.052
0.16,-0.273,0.32,-0.083
0.17,-0.107,0.264,-0.198
0.18,-0.047,-0.215,-0.161
0.19,-0.097,-0.342,-0.047
0.2,-0.213,-0.274,0.23
0.21,-0.302,-0.114,0.377
0.22,-0.201,0.256,0.146
0.23,-0.28,0.196,-0.063
0.24,-0.252,0.028,-0.233
0.25,-0.279,0.004,-0.194
0.26,-0.376,-0.149,-0.031
0.27,-0.373,-0.03,-0.025
0.28,-0.31,0.154,-0.007
0.29,-0.15,0.214,0.006
0.3,-0.03,0.27,-0.025
0.31,-0.161,0.034,0.103
0.32,-0.152,-0.184,0.123
0.33,-0.264,-0.315,0.063
0.34,-0.316,-0.137,0.009
0.35,-0.234,-0.137,-0.023
0.36,-0.326,0.234,-0.025
0.37,-0.227,0.182,-0.039
0.38,-0.344,0.106,-0.034
0.39,-0.305,0.043,-0.014
0.4,-0.236,-0.074,-0.031
0.41,-0.215,0.058,0.005
0.42,-0.152,0.166,-0.017
0.43,-0.161,0.147,0.002
0.44,-0.126,0.04,-0.037
0.45,-0.225,-0.149,-0.011
0.46,-0.285,-0.367,0.161
0.47,-0.216,-0.101,0.074
0.48,-0.308,-0.042,0.052
0.49,-0.308,0.026,-0.019
0.5,-0.208,0.35,-0.106
0.51,-0.26,0.213,-0.06
0.52,-0.232,0.016,-0.087
0.53,-0.236,0.071,-0.056
0.54,-0.147,-0.107,0.002
0.55,-0.194,0.042,0.066
0.56,-0.236,0.045,0.1
0.57,-0.179,-0.05,0.092
0.58,-0.27,-0.023,0.03
0.59,-0.274,-0.136,-0.018
0.6,-0.29,-0.153,-0.042
0.61,-0.325,0.111,-0.02
0.62,-0.219,0.17,-0.041
0.63,-0.222,0.183,-0.059
0.64,-0.304,0.217,-0.055
0.65,-0.218,0.065,0.018
0.66,-0.166,-0.056,0.006
0.67,-0.228,-0.115,0.002
0.68,-0.246,-0.185,0.072
0.69,-0.165,-0.009,0.037
0.7,-0.2,0.082,0.047
0.71,-0.246,-0.068,0.006
0.72,-0.139,0.042,-0.122
0.73,-0.225,-0.089,-0.024
0.74,-0.372,-0.046,0.07
0.75,-0.318,0.239,0.059
0.76,-0.336,0.276,0.036
0.77,-0.28,0.265,-0.115
0.78,-0.134,0.081,-0.231
0.79,-0.105,-0.308,-0.109
0.8,-0.155,-0.365,0.046
0.81,-0.288,-0.2,0.3
0.82,-0.165,-0.046,0.328
0.83,-0.15,0.197,-0.001
0.84,-0.277,0.245,-0.141
0.85,-0.181,-0.016,-0.199
0.86,-0.352,0.056,-0.112
0.87,-0.478,-0.073,0.033
0.88,-0.299,0.0,0.002
0.89,-0.318,0.207,0.004
0.9,-0.179,0.119,-0.02
0.91,-0.133,0.171,0.066
0.92,-0.184,-0.101,0.091
0.93,-0.214,-0.315,0.055
0.94,-0.254,-0.219,0.012
0.95,-0.121,-0.049,-0.083
0.96,-0.261,0.084,-0.006
0.97,-0.284,0.326,-0.012
0.98,-0.272,0.24,0.006
0.99,-0.382,0.042,0.007
1.0,-0.268,0.017,-0.098
1.01,-0.305,-0.139,-0.056
1.02,-0.251,-0.0,-0.005
1.03,-0.154,0.162,-0.013
1.04,-0.133,0.023,0.025
1.05,-0.057,-0.105,-0.018
1.06,-0.155,-0.161,0.065
1.07,-0.219,-0.249,0.174
1.08,-0.189,0.008,0.058
1.09,-0.392,0.145,0.042
1.1,-0.331,0.159,-0.089
1.11,-0.313,0.314,-0.164
1.12,-0.34,0.014,-0.083
1.13,-0.205,-0.105,-0.088
1.14,-0.222,-0.023,-0.024
1.15,-0.21,-0.151,0.103
1.16,-0.137,-0.005,0.096
1.17,-0.076,0.141,0.122
1.18,-0.119,0.014,0.092
1.19,-0.254,-0.016,-0.016
1.2,-0.356,-0.059,-0.074
1.21,-0.353,-0.049,-0.032
1.22,-0.34,0.187,-0.032
1.23,-0.315,0.142,-0.078
1.24,-0.323,0.061,-0.091
1.25,-0.257,0.135,-0.071
1.26,-0.188,-0.0,0.048
1.27,-0.112,-0.104,0.043
1.28,-0.112,-0.066,0.056
1.29,-0.1,-0.055,0.103
1.3,-0.088,0.062,0.041
1.31,-0.267,0.115,0.056
1.32,-0.321,-0.032,0.017
1.33,-0.263,-0.056,-0.118
1.34,-0.409,-0.075,-0.045
1.35,-0.398,0.054,-0.004
1.36,-0.392,0.282,0.035
1.37,-0.31,0.259,0.011
1.38,-0.042,0.191,-0.15
1.39,0.021,-0.138,-0.163
1.4,-0.006,-0.437,0.015
1.41,-0.096,-0.292,0.185
1.42,-0.292,-0.008,0.346
1.43,-0.254,0.114,0.166
1.44,-0.304,0.322,-0.131
1.45,-0.394,0.12,-0.206
1.46,-0.408,-0.127,-0.186
1.47,-0.443,-0.048,-0.059
1.48,-0.341,-0.04,-0.002
1.49,-0.187,0.027,0.004
1.5,-0.088,0.227,-0.012
1.51,0.005,0.167,0.013
1.52,-0.065,0.057,0.129
1.53,-0.174,-0.173,0.14
1.54,-0.301,-0.292,0.056
1.55,-0.321,-0.12,-0.043
1.56,-0.327,-0.028,-0.018
1.57,-0.394,0.158,-0.021
1.58,-0.337,0.295,-0.042
1.59,-0.339,0.102,-0.034
1.6,-0.211,-0.005,-0.116
1.61,-0.119,0.031,-0.086
1.62,-0.215,-0.099,0.074
1.63,-0.127,0.143,0.058
1.64,-0.105,0.141,0.012
1.65,-0.147,-0.139,0.05
1.66,-0.202,-0.072,0.044
1.67,-0.348,-0.155,0.14
1.68,-0.305,-0.199,0.068
1.69,-0.341,0.056,-0.073
1.7,-0.392,0.07,-0.091
1.71,-0.186,0.16,-0.106
1.72,-0.246,0.228,-0.055
1.73,-0.213,0.023,0.0
1.74,-0.126,-0.068,-0.048
1.75,-0.101,0.001,-0.009
1.76,-0.18,0.049,0.107
1.77,-0.17,0.038,0.129
1.78,-0.232,0.1,0.091
1.79,-0.297,-0.1,-0.025
1.8,-0.354,-0.126,-0.053
1.81,-0.388,-0.089,-0.028
1.82,-0.321,-0.01,-0.0
1.83,-0.256,0.184,-0.044
1.84,-0.242,0.183,-0.057
1.85,-0.213,0.179,-0.072
1.86,-0.182,0.178,0.013
1.87,-0.115,-0.021,0.068
1.88,-0.139,-0.076,0.028
1.89,-0.183,-0.141,0.034
1.9,-0.149,-0.151,0.058
1.91,-0.293,0.014,0.089
1.92,-0.398,0.041,0.059
1.93,-0.242,-0.118,-0.055
1.94,-0.24,0.034,-0.131
1.95,-0.37,0.021,-0.024
1.96,-0.281,0.115,0.021
1.97,-0.269,0.331,0.013
1.98,-0.23,0.249,-0.07
1.99,-0.098,0.036,-0.158
2.0,-0.054,-0.154,-0.117
2.01,-0.131,-0.42,0.104
2.02,-0.304,-0.187,0.287
2.03,-0.341,-0.039,0.298
2.04,-0.22,0.061,0.046
2.05,-0.209,0.267,-0.197
2.06,-0.238,0.068,-0.21
2.07,-0.316,-0.048,-0.118
2.08,-0.374,-0.026,-0.004
2.09,-0.249,0.072,-0.019
2.1,-0.227,0.13,0.001
2.11,-0.201,0.312,0.007
2.12,-0.112,0.117,0.054
2.13,-0.238,-0.039,0.078
2.14,-0.26,-0.278,0.061
2.15,-0.281,-0.37,0.047
2.16,-0.195,-0.183,0.016
2.17,-0.15,0.099,-0.015
2.18,-0.3,0.161,0.024
2.19,-0.279,0.327,-0.042
2.2,-0.328,0.158,-0.06
2.21,-0.284,-0.077,-0.108
2.22,-0.253,0.02,-0.093
2.23,-0.313,-0.059,0.016
2.24,-0.207,0.087,0.039
2.25,-0.148,0.204,0.042
2.26,-0.147,-0.124,0.028
2.27,-0.061,-0.242,0.031
2.28,-0.226,-0.224,0.089
2.29,-0.207,-0.176,0.114
2.3,-0.263,0.156,-0.005
2.31,-0.383,0.26,-0.051
2.32,-0.319,0.248,-0.128
2.33,-0.307,0.165,-0.097
2.34,-0.247,-0.055,-0.048
2.35,-0.173,-0.069,-0.06
2.36,-0.236,-0.161,0.05
2.37,-0.189,0.016,0.095
2.38,-0.038,0.071,0.056
2.39,-0.177,0.121,0.093
2.4,-0.223,-0.06,0.036
2.41,-0.301,-0.072,-0.043
2.42,-0.393,-0.073,-0.009
2.43,-0.321,-0.062,-0.006
2.44,-0.284,0.244,-0.059
2.45,-0.266,0.174,-0.082
2.46,-0.249,0.162,-0.026
2.47,-0.261,0.09,-0.001
2.48,-0.197,-0.058,-0.017
2.49,-0.126,-0.206,0.015
2.5,-0.103,-0.073,0.029
2.51,-0.149,-0.057,0.071
2.52,-0.268,0.056,0.103
2.53,-0.253,0.138,0.045
2.54,-0.204,-0.039,-0.07
2.55,-0.334,-0.082,-0.075
2.56,-0.335,0.032,-0.038
2.57,-0.301,0.071,0.024
2.58,-0.406,0.322,0.004
2.59,-0.218,0.249,-0.109
2.6,-0.092,0.039,-0.147
2.61,-0.047,-0.151,-0.104
2.62,-0.095,-0.426,0.086
2.63,-0.24,-0.153,0.273
2.64,-0.254,-0.039,0.267
2.65,-0.201,0.233,0.09
2.66,-0.242,0.211,-0.145
2.67,-0.29,0.11,-0.164
2.68,-0.357,-0.067,-0.073
2.69,-0.411,-0.069,-0.072
2.7,-0.363,0.011,-0.014
2.71,-0.255,-0.001,-0.017
2.72,-0.143,0.364,-0.016
2.73,-0.122,0.107,0.057
2.74,-0.14,-0.107,0.078
2.75,-0.128,-0.195,0.03
2.76,-0.201,-0.309,0.057
2.77,-0.231,-0.073,0.051
2.78,-0.301,0.147,0.062
2.79,-0.305,0.208,0.031
2.8,-0.315,0.272,-0.121
2.81,-0.388,0.049,-0.131
2.82,-0.32,-0.091,-0.151
2.83,-0.246,-0.175,-0.048
2.84,-0.184,0.094,0.048
2.85,-0.06,0.093,0.047
2.86,-0.097,0.202,0.061
2.87,-0.051,-0.02,0.054
2.88,-0.171,-0.09,0.047
2.89,-0.285,-0.242,0.121
2.9,-0.305,-0.093,0.054
2.91,-0.405,-0.032,-0.072
2.92,-0.455,0.192,-0.114
2.93,-0.301,0.064,-0.096
2.94,-0.194,0.186,-0.046
2.95,-0.194,-0.033,0.012
2.96,-0.133,-0.211,0.009
2.97,-0.061,0.094,-0.029
2.98,-0.116,-0.017,0.099
2.99,-0.179,0.191,0.127
3.0,-0.247,0.154,0.074
3.01,-0.366,-0.005,-0.019
3.02,-0.335,-0.128,-0.129
3.03,-0.425,-0.099,-0.07
3.04,-0.388,-0.078,0.023
3.05,-0.231,0.119,-0.008
3.06,-0.19,0.167,-0.043
3.07,-0.172,0.139,-0.072
3.08,-0.123,0.191,-0.003
3.09,-0.087,0.01,0.029
3.1,-0.151,-0.164,0.034
3.11,-0.246,-0.087,0.075
3.12,-0.19,-0.044,0.065
3.13,-0.353,0.041,0.075
3.14,-0.432,0.085,0.008
3.15,-0.211,-0.062,-0.112
3.16,-0.258,0.003,-0.085
3.17,-0.272,-0.009,-0.018
3.18,-0.269,0.059,0.038
3.19,-0.27,0.281,0.013
3.2,-0.115,0.192,-0.063
3.21,-0.081,-0.035,-0.092
3.22,-0.132,-0.186,-0.069
3.23,-0.237,-0.324,0.138
3.24,-0.374,-0.188,0.296
3.25,-0.257,0.104,0.157
3.26,-0.279,0.061,0.007
3.27,-0.277,0.191,-0.196
3.28,-0.244,0.138,-0.209
3.29,-0.297,-0.162,-0.044
3.3,-0.216,0.014,-0.068
3.31,-0.295,0.034,0.016
3.32,-0.236,0.045,0.049
3.33,-0.08,0.335,0.007
3.34,-0.146,0.173,0.068
3.35,-0.213,-0.117,0.049
3.36,-0.258,-0.237,0.003
3.37,-0.339,-0.246,0.048
3.38,-0.284,-0.051,0.014
3.39,-0.291,0.075,0.014
3.4,-0.26,0.249,-0.028
3.41,-0.236,0.171,-0.063
3.42,-0.309,0.1,-0.064
3.43,-0.147,-0.205,-0.081
3.44,-0.191,-0.011,-0.019
3.45,-0.247,0.043,0.122
3.46,-0.165,0.141,0.1
3.47,-0.184,0.257,-0.019
3.48,-0.247,-0.215,-0.056
3.49,-0.252,-0.167,-0.022
3.5,-0.322,-0.19,0.089
3.51,-0.285,-0.171,0.104
3.52,-0.3,0.107,-0.008
3.53,-0.152,0.304,-0.138
3.54,-0.145,0.156,-0.073
3.55,-0.191,0.101,-0.06
3.56,-0.205,0.009,-0.017
3.57,-0.247,-0.159,0.006
3.58,-0.218,-0.037,-0.001
3.59,-0.232,0.067,0.027
3.6,-0.259,0.066,0.101
3.61,-0.23,0.117,0.037
3.62,-0.275,-0.082,-0.022
3.63,-0.278,-0.099,-0.084
3.64,-0.259,0.04,-0.03
3.65,-0.249,0.09,0.01
3.66,-0.245,0.204,-0.03
3.67,-0.26,0.16,-0.042
3.68,-0.24,0.109,0.002
3.69,-0.156,-0.073,0.023
3.7,-0.225,-0.15,0.055
3.71,-0.203,-0.261,0.046
3.72,-0.23,0.0,0.037
3.73,-0.173,0.008,0.024
3.74,-0.308,0.157,0.022
3.75,-0.239,0.176,-0.037
3.76,-0.201,-0.064,-0.084
3.77,-0.297,-0.097,-0.048
3.78,-0.307,0.052,-0.016
3.79,-0.29,0.112,0.094
3.8,-0.301,0.28,0.037
3.81,-0.193,0.224,-0.118
3.82,-0.129,-0.178,-0.109
3.83,-0.068,-0.304,-0.101
3.84,-0.169,-0.266,0.168
3.85,-0.281,-0.146,0.294
3.86,-0.209,0.184,0.109
3.87,-0.292,0.22,-0.003
3.88,-0.18,0.157,-0.2
3.89,-0.281,0.123,-0.179
3.9,-0.394,-0.189,-0.002
3.91,-0.273,0.015,-0.031
3.92,-0.331,0.149,0.01
3.93,-0.217,0.009,0.015
3.94,-0.069,0.282,-0.055
3.95,-0.161,-0.037,0.083
3.96,-0.147,-0.294,0.109
3.97,-0.283,-0.154,0.07
3.98,-0.23,-0.177,0.014
3.99,-0.263,-0.005,0.029
4.0,-0.346,0.332,0.024
4.01,-0.257,0.211,-0.041
4.02,-0.357,0.186,-0.047
4.03,-0.307,-0.035,-0.12
4.04,-0.249,-0.164,-0.127
4.05,-0.231,-0.071,-0.017
4.06,-0.178,0.102,0.083
4.07,-0.131,0.111,0.085
4.08,-0.092,0.066,-0.012
4.09,-0.109,-0.099,-0.013
4.1,-0.237,-0.197,0.107
4.11,-0.223,-0.048,0.113
4.12,-0.409,-0.041,0.077
4.13,-0.391,0.143,-0.092
4.14,-0.299,0.275,-0.132
4.15,-0.365,0.067,-0.068
4.16,-0.24,0.026,-0.049
4.17,-0.2,-0.112,-0.017
4.18,-0.112,-0.234,0.024
4.19,-0.063,0.014,0.025
4.2,-0.113,0.141,0.128
4.21,-0.156,0.059,0.129
4.22,-0.244,0.177,0.027
4.23,-0.359,-0.072,-0.039
4.24,-0.416,-0.162,-0.081
4.25,-0.366,0.131,-0.067
4.26,-0.33,0.022,-0.059
4.27,-0.287,0.099,-0.028
4.28,-0.229,0.196,-0.065
4.29,-0.09,0.035,-0.046
4.3,-0.118,-0.04,-0.002
4.31,-0.15,-0.081,0.051
4.32,-0.103,-0.149,0.101
4.33,-0.172,0.026,0.089
4.34,-0.321,0.11,0.075
4.35,-0.279,0.053,-0.017
4.36,-0.244,0.062,-0.136
4.37,-0.365,-0.109,-0.076
4.38,-0.348,-0.084,0.012
4.39,-0.329,0.164,0.052
4.4,-0.304,0.148,0.061
4.41,-0.146,0.287,-0.089
4.42,-0.063,0.168,-0.192
4.43,-0.042,-0.21,-0.101
4.44,-0.083,-0.286,0.026
4.45,-0.294,-0.25,0.269
4.46,-0.29,-0.154,0.316
4.47,-0.277,0.219,0.131
4.48,-0.323,0.148,-0.065
4.49,-0.318,0.053,-0.168
4.5,-0.375,0.039,-0.141
4.51,-0.416,-0.127,-0.043
4.52,-0.226,0.001,-0.046
4.53,-0.194,0.187,-0.061
4.54,-0.126,0.135,-0.019
4.55,-0.047,0.17,0.006
4.56,-0.126,-0.012,0.064
4.57,-0.285,-0.287,0.139
4.58,-0.321,-0.143,0.098
4.59,-0.288,-0.094,0.007
4.6,-0.36,0.057,-0.033
4.61,-0.327,0.281,-0.055
4.62,-0.275,0.103,-0.087
4.63,-0.256,0.026,-0.16
4.64,-0.193,-0.021,-0.084
4.65,-0.203,-0.075,-0.014
4.66,-0.158,0.212,0.047
4.67,-0.137,0.144,0.118
4.68,-0.125,0.094,0.003
4.69,-0.169,0.015,-0.033
4.7,-0.269,-0.338,0.099
4.71,-0.315,-0.162,0.088
4.72,-0.4,-0.068,0.087
4.73,-0.403,-0.11,0.045
4.74,-0.196,0.22,-0.14
4.75,-0.197,0.252,-0.145
4.76,-0.208,0.006,-0.04
4.77,-0.189,0.038,-0.043
4.78,-0.161,0.024,-0.038
4.79,-0.148,-0.093,0.029
4.8,-0.177,0.144,0.064
4.81,-0.177,0.083,0.109
4.82,-0.284,-0.006,0.082
4.83,-0.333,-0.076,-0.025
4.84,-0.382,-0.168,-0.057
4.85,-0.35,-0.073,-0.006
4.86,-0.307,0.105,0.0
4.87,-0.189,0.175,-0.075
4.88,-0.179,0.281,-0.103
4.89,-0.169,0.17,-0.015
4.9,-0.114,0.046,0.006
4.91,-0.166,-0.061,0.037
4.92,-0.209,-0.235,0.055
4.93,-0.211,-0.096,0.029
4.94,-0.267,-0.009,0.071
4.95,-0.37,0.125,0.095
4.96,-0.304,-0.015,-0.034
4.97,-0.209,-0.003,-0.103
4.98,-0.257,-0.131,-0.029
4.99,-0.241,0.029,0.006
5.0,-0.299,0.294,0.074
5.01,-0.269,0.185,0.025
5.02,-0.14,0.371,-0.184
5.03,-0.125,-0.072,-0.193
5.04,-0.175,-0.382,-0.057
5.05,-0.221,-0.291,0.115
5.06,-0.296,-0.148,0.314
5.07,-0.225,0.053,0.232
5.08,-0.24,0.235,-0.018
5.09,-0.168,0.156,-0.156
5.1,-0.22,-0.01,-0.169
5.11,-0.363,-0.032,-0.087
5.12,-0.304,-0.109,-0.034
5.13,-0.314,0.109,0.002
5.14,-0.232,0.317,0.024
5.15,-0.096,0.174,-0.04
5.16,-0.186,0.021,-0.007
5.17,-0.219,-0.129,0.043
5.18,-0.213,-0.385,0.11
5.19,-0.267,-0.145,0.096
5.2,-0.234,-0.037,0.031
5.21,-0.281,0.18,-0.009
5.22,-0.262,0.322,-0.051
5.23,-0.3,0.13,-0.004
5.24,-0.277,-0.008,-0.076
5.25,-0.264,-0.013,-0.084
5.26,-0.248,-0.161,0.007
5.27,-0.246,0.168,-0.013
5.28,-0.249,0.158,0.017
5.29,-0.101,-0.058,-0.021
5.3,-0.124,-0.045,-0.029
5.31,-0.237,-0.295,0.117
5.32,-0.183,-0.182,0.128
5.33,-0.267,0.062,0.101
5.34,-0.336,0.076,0.049
5.35,-0.245,0.268,-0.092
5.36,-0.298,0.225,-0.149
5.37,-0.276,-0.032,-0.076
5.38,-0.284,-0.02,-0.061
5.39,-0.24,-0.115,-0.015
5.4,-0.198,-0.125,0.04
5.41,-0.062,0.058,0.071
5.42,-0.1,0.096,0.088
5.43,-0.22,0.043,0.055
5.44,-0.239,-0.007,-0.006
5.45,-0.297,-0.021,-0.044
5.46,-0.396,0.045,-0.044
5.47,-0.31,0.135,-0.037
5.48,-0.304,0.127,-0.025
5.49,-0.332,0.126,-0.056
5.5,-0.279,0.01,0.033
5.51,-0.128,-0.154,0.007
5.52,-0.109,-0.097,-0.002
5.53,-0.173,-0.103,0.066
5.54,-0.099,-0.019,0.085
5.55,-0.226,0.234,0.057
5.56,-0.314,0.071,0.022
5.57,-0.185,-0.031,-0.129
5.58,-0.299,-0.039,-0.12
5.59,-0.417,-0.102,0.054
5.6,-0.318,0.115,0.072
5.61,-0.361,0.303,0.055
5.62,-0.272,0.161,-0.066
5.63,-0.063,0.058,-0.19
5.64,-0.036,-0.082,-0.157
5.65,-0.053,-0.474,0.034
5.66,-0.23,-0.218,0.251
5.67,-0.249,-0.028,0.322
5.68,-0.219,0.115,0.125
5.69,-0.29,0.314,-0.097
5.7,-0.267,0.05,-0.179
5.71,-0.34,0.036,-0.166
5.72,-0.451,-0.104,-0.051
5.73,-0.354,0.057,0.012
5.74,-0.231,0.056,-0.004
5.75,-0.101,0.193,-0.051
5.76,-0.048,0.046,0.052
5.77,-0.133,-0.04,0.099
5.78,-0.24,-0.166,0.119
5.79,-0.299,-0.312,0.081
5.8,-0.226,0.049,-0.04
5.81,-0.28,0.089,-0.017
5.82,-0.311,0.215,-0.039
5.83,-0.281,0.218,-0.099
5.84,-0.401,0.031,-0.014
5.85,-0.307,-0.171,-0.051
5.86,-0.202,-0.012,-0.05
5.87,-0.165,-0.033,0.048
5.88,-0.127,0.157,0.023
5.89,-0.155,0.136,0.025
5.9,-0.05,-0.052,-0.028
5.91,-0.128,-0.104,0.03
5.92,-0.355,-0.126,0.123
5.93,-0.244,-0.147,0.05
5.94,-0.417,0.159,-0.042
5.95,-0.456,0.094,-0.044
5.96,-0.254,0.198,-0.13
5.97,-0.212,0.162,-0.055
5.98,-0.209,-0.179,-0.025
5.99,-0.101,-0.037,-0.031
6.0,-0.088,-0.051,-0.002
6.01,-0.073,-0.018,0.087
6.02,-0.176,0.214,0.146
6.03,-0.271,0.084,0.117
6.04,-0.363,-0.14,0.007
6.05,-0.433,-0.071,-0.076
6.06,-0.418,-0.147,-0.051
6.07,-0.401,0.036,-0.027
6.08,-0.234,0.177,-0.058
6.09,-0.129,0.199,-0.117
6.1,-0.14,0.219,-0.063
6.11,-0.136,0.124,-0.007
6.12,-0.076,-0.061,0.051
6.13,-0.142,-0.154,0.079
6.14,-0.255,-0.095,0.109
6.15,-0.24,-0.107,0.109
6.16,-0.305,0.088,0.018
6.17,-0.388,-0.004,-0.032
6.18,-0.274,-0.097,-0.143
6.19,-0.267,-0.046,-0.075
6.2,-0.285,0.03,0.047
6.21,-0.21,0.26,0.015
6.22,-0.293,0.36,0.023
6.23,-0.156,0.206,-0.101
6.24,-0.038,0.047,-0.184
6.25,-0.119,-0.348,-0.042
6.26,-0.205,-0.419,0.172
6.27,-0.304,-0.228,0.295
6.28,-0.3,0.082,0.245
6.29,-0.285,0.105,-0.011
6.3,-0.281,0.3,-0.158
6.31,-0.194,0.095,-0.209
6.32,-0.333,-0.14,-0.094
6.33,-0.341,0.058,-0.052
6.34,-0.248,0.01,-0.006
6.35,-0.208,0.154,0.02
6.36,-0.128,0.258,-0.028
6.37,-0.124,0.112,0.084
6.38,-0.179,-0.164,0.1
6.39,-0.305,-0.232,0.068
6.4,-0.276,-0.288,0.082
6.41,-0.219,-0.075,-0.037
6.42,-0.33,0.086,-0.011
6.43,-0.181,0.217,-0.067
6.44,-0.265,0.266,-0.041
6.45,-0.37,0.068,0.001
6.46,-0.197,0.005,-0.117
6.47,-0.275,0.023,-0.008
6.48,-0.258,0.085,0.026
6.49,-0.121,0.116,0.048
6.5,-0.147,0.133,-0.009
6.51,-0.085,-0.32,-0.029
6.52,-0.247,-0.142,0.074
6.53,-0.24,-0.284,0.15
6.54,-0.276,-0.116,0.109
6.55,-0.374,0.159,-0.003
6.56,-0.271,0.182,-0.079
6.57,-0.259,0.238,-0.134
6.58,-0.274,0.192,-0.1
6.59,-0.231,-0.011,-0.027
6.6,-0.188,-0.053,-0.026
6.61,-0.119,-0.015,-0.039
6.62,-0.169,-0.053,0.11
6.63,-0.201,0.066,0.109
6.64,-0.221,-0.041,0.1
6.65,-0.265,-0.157,0.018
6.66,-0.281,-0.052,-0.051
6.67,-0.413,0.027,-0.006
6.68,-0.323,0.113,-0.021
6.69,-0.194,0.273,-0.092
6.7,-0.258,0.154,-0.077
6.71,-0.264,0.163,-0.05
6.72,-0.178,0.04,-0.014
6.73,-0.194,-0.105,0.044
6.74,-0.218,-0.115,0.048
6.75,-0.162,-0.176,0.091
6.76,-0.121,-0.073,0.079
6.77,-0.229,0.062,0.046
6.78,-0.229,0.039,-0.03
6.79,-0.235,-0.125,-0.069
6.8,-0.365,0.058,-0.032
6.81,-0.352,0.154,0.039
6.82,-0.4,0.196,0.025
6.83,-0.348,0.343,-0.088
6.84,-0.245,0.13,-0.168
6.85,-0.1,-0.176,-0.152
6.86,-0.066,-0.258,-0.029
6.87,-0.067,-0.417,0.206
6.88,-0.149,-0.072,0.321
6.89,-0.174,0.172,0.184
6.9,-0.201,0.12,-0.001
6.91,-0.206,0.218,-0.2
6.92,-0.363,0.005,-0.181
6.93,-0.436,-0.11,-0.081
6.94,-0.477,0.066,-0.034
6.95,-0.419,0.113,0.008
6.96,-0.22,0.141,-0.026
6.97,-0.073,0.203,-0.032
6.98,-0.063,-0.046,0.087
6.99,-0.044,-0.162,0.117
7.0,-0.215,-0.167,0.108
7.01,-0.206,-0.222,0.042
7.02,-0.187,-0.015,-0.039
7.03,-0.318,0.227,0.002
7.04,-0.326,0.087,-0.022
7.05,-0.415,0.204,-0.042
7.06,-0.383,0.034,-0.099
7.07,-0.297,-0.066,-0.107
7.08,-0.298,0.082,-0.06
7.09,-0.146,0.031,0.002
7.1,-0.073,0.062,0.019
7.11,-0.027,-0.004,0.028
7.12,-0.104,-0.186,0.113
7.13,-0.181,-0.204,0.146
7.14,-0.262,-0.004,0.135
7.15,-0.338,-0.068,0.055
7.16,-0.393,0.199,-0.099
7.17,-0.311,0.206,-0.181
7.18,-0.312,0.051,-0.148
7.19,-0.315,0.127,-0.115
7.2,-0.194,-0.096,0.01
7.21,-0.109,-0.054,0.026
7.22,-0.054,0.057,0.062
7.23,-0.105,0.03,0.125
7.24,-0.145,0.127,0.111
7.25,-0.23,-0.069,0.067
7.26,-0.335,-0.08,0.007
7.27,-0.363,-0.086,-0.061
7.28,-0.366,-0.044,-0.052
7.29,-0.369,0.118,-0.06
7.3,-0.301,0.15,-0.068
7.31,-0.292,0.186,-0.016
7.32,-0.196,0.039,-0.033
7.33,-0.142,0.091,-0.014
7.34,-0.107,-0.135,0.034
7.35,-0.128,-0.072,0.057
7.36,-0.128,0.018,0.083
7.37,-0.225,-0.002,0.11
7.38,-0.313,0.043,0.042
7.39,-0.253,-0.022,-0.064
7.4,-0.335,-0.2,-0.08
7.41,-0.402,-0.029,-0.047
7.42,-0.361,0.158,0.048
7.43,-0.238,0.264,0.019
7.44,-0.254,0.397,-0.123
7.45,-0.108,0.131,-0.186
7.46,0.04,-0.239,-0.157
7.47,-0.063,-0.362,0.09
7.48,-0.243,-0.275,0.348
7.49,-0.281,-0.045,0.37
7.5,-0.293,0.221,0.112
7.51,-0.279,0.161,-0.165
7.52,-0.289,0.031,-0.241
7.53,-0.396,-0.022,-0.144
7.54,-0.402,-0.131,-0.012
7.55,-0.249,0.09,-0.058
7.56,-0.193,0.196,-0.041
7.57,-0.094,0.208,-0.012
7.58,-0.088,0.235,0.063
7.59,-0.182,-0.097,0.139
7.6,-0.241,-0.274,0.094
7.61,-0.312,-0.21,0.04
7.62,-0.267,-0.217,-0.007
7.63,-0.297,0.026,-0.026
7.64,-0.311,0.249,-0.029
7.65,-0.256,0.113,-0.027
7.66,-0.281,0.105,-0.095
7.67,-0.256,0.04,-0.092
7.68,-0.18,-0.083,-0.047
7.69,-0.155,0.2,-0.006
7.7,-0.185,0.186,0.031
7.71,-0.167,0.035,0.019
7.72,-0.164,0.029,0.015
7.73,-0.224,-0.271,0.095
7.74,-0.303,-0.24,0.123
7.75,-0.32,-0.109,0.06
7.76,-0.286,-0.051,-0.009
7.77,-0.302,0.218,-0.089
7.78,-0.244,0.201,-0.113
7.79,-0.215,0.114,-0.046
7.8,-0.197,0.0,-0.039
7.81,-0.17,-0.069,-0.011
7.82,-0.203,-0.051,0.026
7.83,-0.242,0.118,0.108
7.84,-0.198,-0.014,0.114
7.85,-0.248,-0.034,0.048
7.86,-0.35,-0.095,-0.055
7.87,-0.308,-0.232,-0.054
7.88,-0.305,0.086,-0.019
7.89,-0.303,0.119,0.008
7.9,-0.177,0.221,-0.031
7.91,-0.184,0.251,-0.11
7.92,-0.264,0.114,-0.029
7.93,-0.208,0.03,0.015
7.94,-0.185,-0.075,0.039
7.95,-0.211,-0.19,0.057
7.96,-0.212,-0.079,0.038
7.97,-0.223,-0.047,0.047
7.98,-0.275,-0.008,0.098
7.99,-0.193,0.08,-0.048
8.0,-0.207,-0.024,-0.085
8.01,-0.28,-0.102,-0.074
8.02,-0.293,0.209,-0.023
8.03,-0.338,0.235,0.082
8.04,-0.343,0.193,0.005
8.05,-0.148,0.292,-0.112
8.06,-0.125,-0.187,-0.095
8.07,-0.181,-0.311,-0.046
8.08,-0.212,-0.322,0.138
8.09,-0.218,-0.299,0.306
8.1,-0.193,0.135,0.159
8.11,-0.201,0.183,-0.05
8.12,-0.266,0.158,-0.154
8.13,-0.236,0.169,-0.205
8.14,-0.339,-0.054,-0.089
8.15,-0.369,-0.087,-0.017
8.16,-0.312,0.104,0.009
8.17,-0.247,0.209,0.052
8.18,-0.176,0.191,-0.002
8.19,-0.169,0.1,0.048
8.2,-0.176,-0.216,0.051
8.21,-0.141,-0.296,0.019
8.22,-0.263,-0.207,0.032
8.23,-0.203,-0.158,0.036
8.24,-0.21,0.248,-0.01
8.25,-0.303,0.291,-0.017
8.26,-0.352,0.157,-0.025
8.27,-0.274,0.185,-0.112
8.28,-0.318,-0.071,-0.095
8.29,-0.283,-0.149,-0.044
8.3,-0.212,0.076,0.027
8.31,-0.205,0.082,0.097
8.32,-0.042,-0.011,0.052
8.33,-0.099,-0.102,0.014
8.34,-0.193,-0.302,0.106
8.35,-0.232,-0.138,0.078
8.36,-0.321,0.054,0.068
8.37,-0.381,0.102,-0.009
8.38,-0.313,0.338,-0.179
8.39,-0.32,0.264,-0.176
8.4,-0.2,-0.007,-0.105
8.41,-0.219,-0.035,-0.025
8.42,-0.246,-0.157,0.075
8.43,-0.097,-0.159,0.063
8.44,-0.117,0.057,0.08
8.45,-0.118,0.098,0.108
8.46,-0.182,0.127,0.087
8.47,-0.358,0.021,0.011
8.48,-0.339,-0.128,-0.087
8.49,-0.383,0.003,-0.078
8.5,-0.393,0.044,-0.054
8.51,-0.26,0.156,-0.062
8.52,-0.246,0.19,-0.016
8.53,-0.226,0.155,-0.003
8.54,-0.158,-0.004,-0.008
8.55,-0.071,-0.111,0.032
8.56,-0.057,-0.181,0.088
8.57,-0.172,-0.094,0.081
8.58,-0.175,0.042,0.051
8.59,-0.324,0.021,0.076
8.6,-0.363,0.2,-0.039
8.61,-0.274,-0.027,-0.113
8.62,-0.411,-0.152,-0.022
8.63,-0.333,0.067,-0.086
8.64,-0.331,0.15,0.024
8.65,-0.288,0.221,0.01
8.66,-0.091,0.284,-0.117
8.67,-0.03,-0.023,-0.114
8.68,0.018,-0.378,-0.02
8.69,-0.124,-0.298,0.152
8.7,-0.305,-0.13,0.324
8.71,-0.184,0.042,0.198
8.72,-0.355,0.368,-0.035
8.73,-0.322,0.083,-0.191
8.74,-0.311,0.06,-0.271
8.75,-0.435,-0.078,-0.1
8.76,-0.307,-0.048,-0.031
8.77,-0.253,0.081,0.025
8.78,-0.206,0.174,0.047
8.79,0.038,0.151,-0.026
8.8,-0.069,0.147,0.094
8.81,-0.139,-0.263,0.134
8.82,-0.255,-0.285,0.091
8.83,-0.313,-0.131,0.062
8.84,-0.296,-0.127,0.026
8.85,-0.391,0.284,-0.023
8.86,-0.373,0.194,-0.056
8.87,-0.354,0.129,-0.115
8.88,-0.257,0.015,-0.137
8.89,-0.209,-0.052,-0.103
8.9,-0.157,-0.09,-0.004
8.91,-0.1,0.148,0.062
8.92,-0.096,0.141,0.106
8.93,-0.063,0.033,0.052
8.94,-0.173,0.008,0.019
8.95,-0.322,-0.229,0.12
8.96,-0.326,-0.144,0.083
8.97,-0.419,-0.095,-0.04
8.98,-0.442,-0.046,-0.051
8.99,-0.248,0.254,-0.145
9.0,-0.224,0.202,-0.093
9.01,-0.146,0.038,-0.045
9.02,-0.09,0.048,-0.004
9.03,-0.178,-0.062,0.013
9.04,-0.115,-0.104,0.048
9.05,-0.108,0.139,0.098
9.06,-0.253,0.091,0.124
9.07,-0.351,-0.002,0.045
9.08,-0.386,-0.08,-0.054
9.09,-0.377,-0.174,-0.078
9.1,-0.386,-0.009,-0.043
9.11,-0.243,0.076,-0.035
9.12,-0.187,0.139,-0.068
9.13,-0.201,0.271,-0.073
9.14,-0.192,0.22,-0.008
9.15,-0.107,-0.086,0.005
9.16,-0.15,-0.049,0.003
9.17,-0.187,-0.191,0.081
9.18,-0.217,-0.126,0.128
9.19,-0.299,0.13,0.077
9.2,-0.376,-0.033,0.074
9.21,-0.239,0.033,-0.103
9.22,-0.232,-0.061,-0.154
9.23,-0.292,-0.137,-0.028
9.24,-0.292,0.21,0.014
9.25,-0.294,0.303,0.018
9.26,-0.237,0.27,-0.038
9.27,-0.07,0.183,-0.153
9.28,-0.066,-0.182,-0.102
9.29,-0.166,-0.367,0.085
9.3,-0.271,-0.25,0.251
9.31,-0.335,-0.076,0.318
9.32,-0.263,0.001,0.053
9.33,-0.288,0.297,-0.106
9.34,-0.191,-0.041,-0.15
9.35,-0.276,0.091,-0.131
9.36,-0.427,-0.061,-0.04
9.37,-0.18,-0.104,-0.063
9.38,-0.241,0.274,-0.008
9.39,-0.193,0.272,0.021
9.4,-0.148,0.185,0.012
9.41,-0.163,-0.017,0.023
9.42,-0.224,-0.247,0.037
9.43,-0.376,-0.365,0.087
9.44,-0.221,-0.151,0.069
9.45,-0.228,-0.022,0.03
9.46,-0.223,0.289,-0.021
9.47,-0.185,0.313,-0.116
9.48,-0.339,0.121,-0.041
9.49,-0.215,-0.004,-0.133
9.5,-0.252,0.0,-0.095
9.51,-0.318,-0.141,0.047
9.52,-0.238,0.153,0.062
9.53,-0.201,0.129,0.052
9.54,-0.147,-0.078,-0.001
9.55,-0.127,-0.163,0.017
9.56,-0.216,-0.272,0.127
9.57,-0.177,-0.158,0.072
9.58,-0.332,0.144,0.075
9.59,-0.353,0.038,0.014
9.6,-0.164,0.372,-0.165
9.61,-0.311,0.174,-0.082
9.62,-0.308,-0.083,-0.03
9.63,-0.235,-0.039,-0.053
9.64,-0.237,-0.106,-0.038
9.65,-0.223,-0.078,0.049
9.66,-0.18,0.105,0.089
9.67,-0.114,0.125,0.105
9.68,-0.157,-0.047,0.011
9.69,-0.256,0.028,-0.048
9.7,-0.309,-0.109,-0.008
9.71,-0.323,0.089,-0.013
9.72,-0.351,0.146,-0.047
9.73,-0.278,0.114,-0.065
9.74,-0.296,0.184,-0.067
9.75,-0.282,0.076,-0.038
9.76,-0.199,-0.092,0.049
9.77,-0.144,-0.132,0.026
9.78,-0.087,-0.152,0.067
9.79,-0.097,-0.056,0.075
9.8,-0.232,0.097,0.081
9.81,-0.26,0.07,0.034
9.82,-0.199,0.059,-0.105
9.83,-0.317,-0.009,-0.052
9.84,-0.399,-0.051,0.013
9.85,-0.346,0.096,0.019
9.86,-0.355,0.257,-0.002
9.87,-0.206,0.125,-0.065
9.88,-0.129,0.142,-0.169
9.89,-0.115,-0.202,-0.061
9.9,-0.082,-0.414,0.069
9.91,-0.125,-0.167,0.209
9.92,-0.222,-0.031,0.244
9.93,-0.205,0.146,0.068
9.94,-0.259,0.322,-0.108
9.95,-0.307,0.107,-0.133
9.96,-0.384,-0.048,-0.089
9.97,-0.356,-0.025,-0.084
9.98,-0.403,-0.063,-0.007
9.99,-0.279,0.123,-0.01
10.0,-0.127,0.193,-0.012
10.01,-0.077,0.036,0.014
10.02,-0.062,-0.064,0.02
10.03,-0.18,-0.193,0.097
10.04,-0.222,-0.2,0.08
10.05,-0.241,0.01,0.061
10.06,-0.321,0.075,0.061
10.07,-0.294,0.337,-0.058
10.08,-0.393,0.107,-0.049
10.09,-0.392,-0.063,-0.096
10.1,-0.267,-0.073,-0.097
10.11,-0.294,-0.11,0.018
10.12,-0.199,0.002,0.058
10.13,-0.106,0.106,0.015
10.14,-0.029,0.183,-0.014
10.15,-0.083,-0.108,0.0
10.16,-0.236,-0.027,0.089
10.17,-0.29,-0.142,0.147
10.18,-0.295,-0.06,0.007
10.19,-0.373,0.109,-0.03
10.2,-0.363,0.108,-0.112
10.21,-0.357,0.118,-0.087
10.22,-0.251,0.071,-0.065
10.23,-0.155,-0.121,0.017
10.24,-0.154,-0.049,-0.007
10.25,-0.097,0.007,-0.007
10.26,-0.116,-0.036,0.1
10.27,-0.043,0.213,0.062
10.28,-0.269,0.113,0.067
10.29,-0.363,-0.114,0.008
10.3,-0.371,-0.03,-0.083
10.31,-0.434,-0.011,-0.055
10.32,-0.329,0.018,-0.035
10.33,-0.327,0.181,-0.038
10.34,-0.229,0.147,-0.021
10.35,-0.117,0.125,-0.032
10.36,-0.144,0.028,0.048
10.37,-0.025,-0.18,-0.023
10.38,-0.135,-0.117,0.023
10.39,-0.169,-0.065,0.108
10.4,-0.216,0.021,0.095
10.41,-0.476,0.228,0.079
10.42,-0.355,0.019,-0.075
10.43,-0.261,-0.103,-0.154
10.44,-0.368,-0.056,-0.088
10.45,-0.252,-0.081,0.033
10.46,-0.246,0.185,0.082
10.47,-0.225,0.37,-0.01
10.48,-0.074,0.17,-0.1
10.49,0.022,-0.062,-0.155
10.5,-0.07,-0.236,-0.054
10.51,-0.24,-0.396,0.189
10.52,-0.401,-0.074,0.338
10.53,-0.29,0.153,0.155
10.54,-0.35,0.11,-0.07
10.55,-0.323,0.168,-0.19
10.56,-0.212,-0.04,-0.186
10.57,-0.282,-0.096,-0.067
10.58,-0.273,0.013,-0.006
10.59,-0.255,0.041,0.038
10.6,-0.111,0.244,0.02
10.61,-0.061,0.231,0.008
10.62,-0.197,-0.03,0.102
10.63,-0.203,-0.108,0.036
10.64,-0.323,-0.283,0.028
10.65,-0.431,-0.22,0.051
10.66,-0.293,0.011,0.009
10.67,-0.298,0.153,-0.013
10.68,-0.185,0.229,-0.104
10.69,-0.191,0.17,-0.084
10.7,-0.284,0.001,-0.02
10.71,-0.182,-0.082,-0.07
10.72,-0.156,-0.006,-0.022
10.73,-0.24,0.098,0.115
10.74,-0.192,0.184,0.031
10.75,-0.201,0.138,0.013
10.76,-0.166,-0.197,-0.059
10.77,-0.257,-0.234,-0.002
10.78,-0.357,-0.237,0.117
10.79,-0.224,-0.133,0.039
10.8,-0.391,0.23,0.019
10.81,-0.245,0.243,-0.039
10.82,-0.189,0.256,-0.086
10.83,-0.215,0.207,-0.058
10.84,-0.158,-0.196,-0.032
10.85,-0.183,-0.119,-0.021
10.86,-0.186,-0.119,0.028
10.87,-0.189,-0.019,0.106
10.88,-0.226,0.172,0.119
10.89,-0.326,0.056,0.05
10.9,-0.328,-0.144,-0.025
10.91,-0.305,-0.064,-0.108
10.92,-0.308,-0.019,-0.037
10.93,-0.29,0.1,-0.003
10.94,-0.224,0.301,-0.054
10.95,-0.193,0.185,-0.052
10.96,-0.211,0.122,-0.038
10.97,-0.183,-0.037,0.025
10.98,-0.178,-0.198,0.068
10.99,-0.223,-0.128,0.081
11.0,-0.231,-0.082,0.051
11.01,-0.232,-0.042,0.049
11.02,-0.211,0.119,-0.048
11.03,-0.177,0.01,-0.067
11.04,-0.262,-0.029,-0.057
11.05,-0.287,0.01,-0.055
11.06,-0.295,0.039,0.048
11.07,-0.292,0.266,0.051
11.08,-0.287,0.336,0.011
11.09,-0.187,0.026,-0.108
11.1,-0.16,-0.118,-0.152
11.11,-0.169,-0.334,-0.016
11.12,-0.172,-0.407,0.201
11.13,-0.18,-0.047,0.293
11.14,-0.187,0.162,0.164
11.15,-0.276,0.172,-0.05
11.16,-0.218,0.263,-0.244
11.17,-0.305,-0.02,-0.144
11.18,-0.401,-0.097,-0.052
11.19,-0.362,0.078,-0.024
11.2,-0.291,-0.061,0.021
11.21,-0.197,0.219,-0.024
11.22,-0.168,0.185,0.008
11.23,-0.106,-0.144,0.112
11.24,-0.079,-0.177,0.035
11.25,-0.225,-0.214,0.063
11.26,-0.177,-0.157,-0.003
11.27,-0.294,0.145,0.033
11.28,-0.317,0.263,0.011
11.29,-0.337,0.283,-0.061
11.3,-0.407,0.157,-0.07
11.31,-0.269,-0.156,-0.104
11.32,-0.246,-0.061,-0.122
11.33,-0.301,-0.112,0.061
11.34,-0.169,0.039,0.126
11.35,0.016,0.249,-0.018
11.36,-0.024,0.018,-0.04
11.37,-0.123,-0.188,0.004
11.38,-0.258,-0.12,0.14
11.39,-0.32,-0.154,0.184
11.4,-0.418,-0.055,0.082
11.41,-0.388,0.286,-0.099
11.42,-0.327,0.119,-0.158
11.43,-0.362,0.185,-0.096
11.44,-0.221,-0.04,-0.065
11.45,-0.159,-0.184,-0.049
11.46,-0.078,-0.163,-0.022
11.47,-0.075,0.017,0.051
11.48,-0.11,0.115,0.164
11.49,-0.104,0.209,0.146
11.5,-0.278,0.076,0.049
11.51,-0.385,-0.135,-0.083
11.52,-0.426,-0.063,-0.112
11.53,-0.417,-0.015,-0.074
11.54,-0.365,0.143,-0.072
11.55,-0.275,0.219,-0.021
11.56,-0.174,0.116,-0.048
11.57,-0.111,0.131,-0.031
11.58,-0.112,-0.134,0.047
11.59,-0.062,-0.221,0.081
11.6,-0.119,-0.035,0.075
11.61,-0.173,0.005,0.063
11.62,-0.302,0.035,0.025
11.63,-0.34,0.208,-0.019
11.64,-0.318,-0.025,-0.023
11.65,-0.349,-0.114,-0.081
11.66,-0.357,-0.061,-0.051
11.67,-0.277,-0.044,0.011
11.68,-0.282,0.262,0.059
11.69,-0.174,0.316,-0.03
11.7,-0.078,0.091,-0.088
11.71,-0.024,-0.157,-0.163
11.72,-0.04,-0.321,-0.056
11.73,-0.292,-0.382,0.272
11.74,-0.291,0.081,0.319
11.75,-0.297,0.225,0.14
11.76,-0.347,0.129,-0.09
11.77,-0.304,0.2,-0.279
11.78,-0.409,-0.072,-0.126
11.79,-0.306,-0.149,-0.055
11.8,-0.217,0.031,-0.017
11.81,-0.222,0.05,0.026
11.82,-0.039,0.233,-0.011
11.83,-0.099,0.259,0.051
11.84,-0.051,-0.018,0.045
11.85,-0.191,-0.184,0.055
11.86,-0.409,-0.246,0.071
11.87,-0.335,-0.169,0.01
11.88,-0.392,0.135,-0.01
11.89,-0.341,0.138,-0.0
11.9,-0.26,0.187,-0.06
11.91,-0.216,0.126,-0.029
11.92,-0.171,-0.151,-0.044
11.93,-0.177,-0.091,-0.033
11.94,-0.217,0.045,0.018
11.95,-0.164,0.087,0.086
11.96,-0.168,0.284,0.002
11.97,-0.187,0.072,-0.056
11.98,-0.307,-0.26,0.019
11.99,-0.277,-0.152,0.011
12.0,-0.27,-0.174,0.099
12.01,-0.366,-0.055,0.072
12.02,-0.226,0.304,-0.064
12.03,-0.214,0.203,-0.088
12.04,-0.229,0.139,-0.046
12.05,-0.172,0.05,-0.065
12.06,-0.202,-0.223,-0.002
12.07,-0.16,-0.121,0.011
12.08,-0.19,0.063,0.084
12.09,-0.208,0.089,0.14
12.1,-0.25,0.132,0.048
12.11,-0.28,0.043,-0.045
12.12,-0.314,-0.183,-0.107
12.13,-0.398,-0.017,-0.003
12.14,-0.326,0.038,0.007
12.15,-0.222,0.155,-0.048
12.16,-0.207,0.194,-0.028
12.17,-0.143,0.128,-0.007
12.18,-0.14,0.05,0.012
12.19,-0.188,-0.116,0.085
12.2,-0.21,-0.215,0.063
12.21,-0.181,-0.037,-0.003
12.22,-0.243,0.044,-0.008
12.23,-0.364,0.035,0.024
12.24,-0.304,0.171,-0.036
12.25,-0.208,-0.084,-0.079
12.26,-0.284,-0.149,-0.003
12.27,-0.175,0.076,0.0
12.28,-0.238,0.111,0.074
12.29,-0.293,0.265,0.042
12.3,-0.147,0.329,-0.117
12.31,-0.116,-0.012,-0.134
12.32,-0.16,-0.306,-0.074
12.33,-0.269,-0.275,0.062
12.34,-0.311,-0.248,0.294
12.35,-0.229,0.066,0.164
12.36,-0.274,0.221,0.003
12.37,-0.23,0.141,-0.03
12.38,-0.403,-0.101,-0.053
12.39,-0.417,0.006,-0.069
12.4,-0.336,0.134,-0.046
12.41,-0.242,0.066,-0.098
12.42,-0.212,0.194,-0.054
12.43,-0.218,0.077,0.007
12.44,-0.166,-0.02,0.054
12.45,-0.167,-0.05,0.026
12.46,-0.095,-0.205,0.066
12.47,-0.148,-0.069,0.073
12.48,-0.222,0.069,0.061
12.49,-0.297,0.082,0.034
12.5,-0.221,0.079,-0.091
12.51,-0.323,-0.014,-0.093
12.52,-0.323,-0.009,-0.003
12.53,-0.271,-0.012,-0.005
12.54,-0.35,0.238,0.024
12.55,-0.233,0.145,-0.021
12.56,-0.178,0.214,-0.115
12.57,-0.102,-0.038,-0.06
12.58,-0.072,-0.37,-0.012
12.59,-0.172,-0.283,0.144
12.6,-0.249,-0.211,0.233
12.61,-0.253,0.158,0.193
12.62,-0.262,0.28,0.013
12.63,-0.279,0.187,-0.151
12.64,-0.33,0.012,-0.204
12.65,-0.358,-0.073,-0.141
12.66,-0.373,-0.084,-0.033
12.67,-0.299,0.099,-0.014
12.68,-0.187,0.127,0.035
12.69,-0.074,0.117,0.029
12.7,-0.062,0.125,0.033
12.71,-0.142,-0.19,0.105
12.72,-0.219,-0.255,0.106
12.73,-0.258,-0.095,0.021
12.74,-0.353,-0.074,0.044
12.75,-0.324,0.188,-0.018
12.76,-0.324,0.278,-0.034
12.77,-0.424,0.105,-0.042
12.78,-0.278,0.05,-0.143
12.79,-0.23,-0.058,-0.126
12.8,-0.107,-0.124,-0.016
12.81,-0.106,0.141,0.015
12.82,-0.152,0.097,0.102
12.83,-0.074,-0.011,0.039
12.84,-0.125,-0.033,0.043
12.85,-0.304,-0.191,0.155
12.86,-0.355,-0.114,0.125
12.87,-0.452,-0.05,0.034
12.88,-0.416,0.084,-0.115
12.89,-0.263,0.162,-0.172
12.9,-0.263,0.185,-0.118
12.91,-0.159,-0.064,-0.066
12.92,-0.081,0.014,-0.041
12.93,-0.147,-0.022,0.068
12.94,-0.197,-0.107,0.097
12.95,-0.108,0.138,0.083
12.96,-0.172,0.077,0.126
12.97,-0.311,0.034,0.021
12.98,-0.357,-0.004,-0.051
12.99,-0.402,-0.117,-0.094
13.0,-0.337,0.02,-0.083
13.01,-0.311,0.123,-0.039
13.02,-0.196,0.087,-0.071
13.03,-0.228,0.177,-0.061
13.04,-0.195,0.186,0.003
13.05,-0.12,-0.042,0.053
13.06,-0.104,-0.056,0.037
13.07,-0.152,-0.104,0.063
13.08,-0.141,-0.122,0.084
13.09,-0.264,0.073,0.064
13.1,-0.367,-0.004,0.014
13.11,-0.305,-0.051,-0.086
13.12,-0.349,0.015,-0.079
13.13,-0.34,-0.014,0.001
13.14,-0.309,0.12,0.001
13.15,-0.277,0.292,-0.014
13.16,-0.169,0.208,-0.123
13.17,-0.066,0.104,-0.179
13.18,-0.041,-0.157,-0.079
13.19,-0.092,-0.365,0.079
13.2,-0.269,-0.13,0.299
13.21,-0.298,-0.041,0.347
13.22,-0.321,0.069,0.082
13.23,-0.348,0.195,-0.141
13.24,-0.286,-0.025,-0.187
13.25,-0.271,-0.042,-0.172
13.26,-0.342,0.004,-0.095
13.27,-0.266,0.046,-0.028
13.28,-0.145,0.208,-0.01
13.29,-0.133,0.282,0.021
13.3,-0.126,0.097,0.087
13.31,-0.167,0.014,0.053
13.32,-0.259,-0.276,0.105
13.33,-0.356,-0.319,0.095
13.34,-0.306,-0.156,-0.006
13.35,-0.322,-0.016,0.011
13.36,-0.18,0.19,-0.059
13.37,-0.216,0.23,-0.106
13.38,-0.321,0.148,-0.041
13.39,-0.224,0.045,-0.055
13.4,-0.254,0.068,-0.045
13.41,-0.238,-0.041,0.006
13.42,-0.16,0.099,0.012
13.43,-0.217,0.039,0.049
13.44,-0.172,-0.149,0.015
13.45,-0.205,-0.156,0.058
13.46,-0.246,-0.165,0.104
13.47,-0.233,-0.116,0.059
13.48,-0.284,0.141,0.021
13.49,-0.276,0.17,-0.074
13.5,-0.23,0.229,-0.135
13.51,-0.26,0.143,-0.091
13.52,-0.227,-0.026,-0.032
13.53,-0.183,0.001,-0.02
13.54,-0.236,-0.075,0.076
13.55,-0.208,-0.02,0.038
13.56,-0.154,-0.015,0.064
13.57,-0.273,0.048,0.071
13.58,-0.214,-0.16,0.03
13.59,-0.291,0.038,0.002
13.6,-0.304,-0.115,-0.012
13.61,-0.29,0.15,-0.031
13.62,-0.234,0.241,-0.077
13.63,-0.238,0.125,-0.062
13.64,-0.295,0.217,-0.027
13.65,-0.269,0.031,-0.002
13.66,-0.209,-0.146,-0.005
13.67,-0.151,-0.155,-0.033
13.68,-0.196,-0.064,0.036
13.69,-0.124,-0.161,0.133
13.7,-0.219,0.135,0.077
13.71,-0.251,0.018,0.036
13.72,-0.192,-0.084,-0.096
13.73,-0.307,0.033,-0.042
13.74,-0.349,0.051,0.041
13.75,-0.36,0.197,0.032
13.76,-0.373,0.342,-0.015
13.77,-0.134,0.146,-0.15
13.78,-0.088,0.049,-0.226
13.79,-0.19,-0.312,-0.049
13.8,-0.09,-0.376,0.135
13.81,-0.158,-0.136,0.231
13.82,-0.273,0.004,0.279
13.83,-0.212,0.178,0.059
13.84,-0.288,0.231,-0.081
13.85,-0.308,0.069,-0.156
13.86,-0.365,-0.116,-0.111
13.87,-0.377,0.028,-0.066
13.88,-0.246,-0.008,-0.004
13.89,-0.304,0.197,-0.0
13.9,-0.186,0.239,-0.017
13.91,-0.169,-0.065,0.047
13.92,-0.095,-0.135,0.059
13.93,-0.248,-0.278,0.099
13.94,-0.265,-0.211,0.052
13.95,-0.126,0.018,-0.02
13.96,-0.252,0.204,0.057
13.97,-0.316,0.314,0.002
13.98,-0.354,0.201,-0.039
13.99,-0.371,-0.043,-0.108
14.0,-0.228,-0.034,-0.214
14.01,-0.323,-0.086,-0.028
14.02,-0.151,-0.001,0.038
14.03,-0.115,0.128,0.053
14.04,-0.098,0.055,0.052
14.05,0.015,-0.122,-0.004
14.06,-0.224,-0.118,0.138
14.07,-0.251,-0.164,0.145
14.08,-0.302,0.083,0.025
14.09,-0.493,0.072,-0.039
14.1,-0.361,0.11,-0.101
14.11,-0.307,0.194,-0.14
14.12,-0.252,-0.027,-0.055
14.13,-0.202,-0.134,-0.021
14.14,-0.051,-0.114,-0.039
14.15,-0.088,0.064,0.032
14.16,-0.101,-0.003,0.135
14.17,-0.132,0.27,0.12
14.18,-0.237,0.012,0.023
14.19,-0.344,-0.013,-0.072
14.2,-0.385,-0.046,-0.081
14.21,-0.463,-0.04,0.009
14.22,-0.389,0.096,-0.046
14.23,-0.252,0.075,-0.056
14.24,-0.236,0.092,-0.064
14.25,-0.155,0.114,-0.023
14.26,-0.078,0.05,0.02
14.27,-0.072,-0.079,0.05
14.28,-0.115,-0.067,0.047
14.29,-0.146,-0.062,0.074
14.3,-0.257,-0.027,0.068
14.31,-0.385,0.089,0.029
14.32,-0.315,0.011,-0.063
14.33,-0.298,-0.003,-0.126
14.34,-0.393,0.008,-0.033
14.35,-0.339,0.029,0.017
14.36,-0.193,0.124,0.022
14.37,-0.171,0.28,0.006
14.38,-0.115,0.037,-0.053
14.39,-0.06,-0.071,-0.111
14.4,-0.131,-0.289,-0.011
14.41,-0.218,-0.315,0.142
14.42,-0.274,-0.002,0.27
14.43,-0.352,0.13,0.181
14.44,-0.303,0.203,-0.073
14.45,-0.281,0.172,-0.206
14.46,-0.32,-0.033,-0.128
14.47,-0.355,-0.132,-0.064
14.48,-0.166,0.004,-0.048
14.49,-0.227,-0.015,0.029
14.5,-0.194,0.247,-0.001
14.51,-0.104,0.264,0.004
14.52,-0.144,-0.06,0.069
14.53,-0.209,-0.059,0.021
14.54,-0.232,-0.273,0.024
14.55,-0.317,-0.228,0.047
14.56,-0.34,0.133,0.015
14.57,-0.328,0.13,0.05
14.58,-0.274,0.197,-0.041
14.59,-0.298,0.141,-0.096
14.6,-0.2,-0.099,-0.112
14.61,-0.19,-0.086,-0.064
14.62,-0.266,-0.024,0.047
14.63,-0.135,0.064,0.089
14.64,-0.128,0.205,0.047
14.65,-0.155,0.12,-0.005
14.66,-0.182,-0.165,-0.011
14.67,-0.33,-0.131,0.016
14.68,-0.345,-0.227,0.093
14.69,-0.349,-0.029,0.025
14.7,-0.325,0.182,-0.038
14.71,-0.236,0.158,-0.069
14.72,-0.12,0.18,-0.099
14.73,-0.132,0.047,-0.05
14.74,-0.189,-0.132,0.025
14.75,-0.17,-0.054,0.023
14.76,-0.195,0.03,0.041
14.77,-0.229,0.022,0.079
14.78,-0.241,0.135,0.047
14.79,-0.295,0.032,0.022
14.8,-0.395,-0.132,-0.058
14.81,-0.315,-0.072,-0.081
14.82,-0.289,-0.026,-0.045
14.83,-0.2,0.156,-0.028
14.84,-0.165,0.241,-0.032
14.85,-0.191,0.182,-0.019
14.86,-0.177,0.183,-0.014
14.87,-0.181,-0.12,0.047
14.88,-0.186,-0.226,0.06
14.89,-0.224,-0.138,0.039
14.9,-0.237,-0.125,0.051
14.91,-0.31,-0.016,0.046
14.92,-0.346,0.235,0.026
14.93,-0.207,0.025,-0.075
14.94,-0.214,-0.016,-0.119
14.95,-0.233,-0.015,-0.046
14.96,-0.283,0.065,0.032
14.97,-0.337,0.192,0.061
14.98,-0.21,0.295,-0.011
14.99,-0.164,0.096,-0.096
15.0,-0.114,-0.171,-0.125
15.01,-0.138,-0.359,-0.016
15.02,-0.279,-0.306,0.212
15.03,-0.274,-0.033,0.259
15.04,-0.145,0.183,0.108
15.05,-0.277,0.169,-0.099
15.06,-0.212,0.202,-0.215
15.07,-0.297,-0.015,-0.108
15.08,-0.342,-0.115,-0.03
15.09,-0.351,0.065,-0.024
15.1,-0.307,0.081,0.067
15.11,-0.139,0.148,0.012
15.12,-0.159,0.284,-0.014
15.13,-0.19,-0.218,0.114
15.14,-0.135,-0.219,0.044
15.15,-0.277,-0.232,0.065
15.16,-0.187,-0.317,0.002
15.17,-0.289,0.214,-0.004
15.18,-0.32,0.229,0.014
15.19,-0.267,0.338,-0.072
15.2,-0.343,0.218,-0.063
15.21,-0.26,-0.053,-0.115
15.22,-0.241,-0.149,-0.075
15.23,-0.232,-0.064,0.016
15.24,-0.168,-0.005,0.118
15.25,-0.138,0.12,0.053
15.26,-0.113,0.004,0.0
15.27,-0.116,-0.231,0.014
15.28,-0.27,-0.102,0.036
15.29,-0.258,-0.112,0.067
15.3,-0.336,-0.009,0.018
15.31,-0.354,0.312,-0.045
15.32,-0.253,0.243,-0.095
15.33,-0.29,0.172,-0.074
15.34,-0.21,-0.0,-0.071
15.35,-0.197,-0.174,-0.025
15.36,-0.208,-0.214,0.038
15.37,-0.142,-0.014,0.106
15.38,-0.163,0.03,0.117
15.39,-0.185,0.139,0.085
15.4,-0.234,0.033,-0.013
15.41,-0.311,-0.107,-0.088
15.42,-0.37,0.035,-0.04
15.43,-0.35,0.062,-0.015
15.44,-0.295,0.146,-0.055
15.45,-0.253,0.171,-0.106
15.46,-0.248,0.138,-0.047
15.47,-0.234,0.048,-0.015
15.48,-0.114,-0.076,0.018
15.49,-0.134,-0.25,0.045
15.5,-0.127,-0.082,0.054
15.51,-0.1,0.032,0.093
15.52,-0.306,0.043,0.125
15.53,-0.303,0.216,-0.059
15.54,-0.213,-0.009,-0.128
15.55,-0.349,-0.113,-0.078
15.56,-0.355,0.037,-0.012
15.57,-0.39,0.065,0.055
15.58,-0.337,0.184,0.029
15.59,-0.152,0.293,-0.117
15.6,-0.004,0.064,-0.121
15.61,-0.062,-0.213,-0.071
15.62,-0.123,-0.256,0.076
15.63,-0.198,-0.361,0.269
15.64,-0.218,0.076,0.202
15.65,-0.331,0.116,0.095
15.66,-0.298,0.187,-0.074
15.67,-0.381,0.177,-0.159
15.68,-0.437,-0.106,-0.117
15.69,-0.333,-0.057,-0.107
15.7,-0.307,0.028,-0.019
15.71,-0.187,0.154,0.034
15.72,-0.041,0.157,-0.021
15.73,-0.054,0.171,0.026
15.74,-0.095,-0.175,0.067
15.75,-0.202,-0.195,0.06
15.76,-0.309,-0.154,0.098
15.77,-0.313,-0.112,0.075
15.78,-0.377,0.206,-0.012
15.79,-0.327,0.276,-0.108
15.8,-0.35,0.045,-0.096
15.81,-0.272,0.119,-0.143
15.82,-0.171,-0.116,-0.086
15.83,-0.217,-0.145,0.025
15.84,-0.141,0.122,0.055
15.85,-0.087,0.096,0.108
15.86,-0.099,0.127,0.05
15.87,-0.148,-0.003,-0.008
15.88,-0.277,-0.267,0.069
15.89,-0.316,-0.055,0.051
15.9,-0.378,-0.074,0.03
15.91,-0.431,-0.108,0.005
15.92,-0.261,0.36,-0.136
15.93,-0.226,0.076,-0.071
15.94,-0.175,0.066,-0.047
15.95,-0.128,-0.013,-0.031
15.96,-0.156,-0.074,0.033
15.97,-0.117,-0.052,0.023
15.98,-0.198,0.068,0.094
15.99,-0.187,0.13,0.09
16.0,-0.215,0.097,0.037
16.01,-0.382,-0.064,0.004
16.02,-0.387,-0.198,-0.063
16.03,-0.369,-0.039,-0.053
16.04,-0.322,-0.002,0.001
16.05,-0.2,0.167,-0.054
16.06,-0.164,0.271,-0.072
16.07,-0.176,0.186,0.014
16.08,-0.131,0.073,-0.004
16.09,-0.115,-0.096,-0.028
16.1,-0.125,-0.213,0.067
16.11,-0.247,-0.031,0.108
16.12,-0.299,-0.007,0.114
16.13,-0.385,0.01,0.032
16.14,-0.298,0.083,-0.091
16.15,-0.265,-0.067,-0.125
16.16,-0.244,-0.162,-0.023
16.17,-0.248,0.084,0.025
16.18,-0.222,0.203,0.081
16.19,-0.255,0.289,0.033
16.2,-0.136,0.264,-0.118
16.21,-0.141,-0.069,-0.109
16.22,-0.134,-0.364,-0.031
16.23,-0.238,-0.245,0.111
16.24,-0.374,-0.203,0.26
16.25,-0.266,0.084,0.147
16.26,-0.323,0.273,-0.028
16.27,-0.149,0.105,-0.147
16.28,-0.145,0.088,-0.209
16.29,-0.34,-0.082,-0.055
16.3,-0.249,-0.052,-0.046
16.31,-0.254,0.1,0.053
16.32,-0.227,0.223,0.07
16.33,-0.104,0.193,-0.039
16.34,-0.219,0.052,0.01
16.35,-0.24,-0.21,0.044
16.36,-0.352,-0.254,0.079
16.37,-0.355,-0.237,0.088
16.38,-0.209,-0.069,0.032
16.39,-0.232,0.163,-0.023
16.4,-0.184,0.284,-0.076
16.41,-0.204,0.09,-0.046
16.42,-0.227,0.118,-0.056
16.43,-0.201,-0.025,-0.041
16.44,-0.315,-0.142,0.002
16.45,-0.297,0.236,0.018
16.46,-0.239,0.058,0.068
16.47,-0.21,0.062,-0.009
16.48,-0.199,-0.126,-0.044
16.49,-0.27,-0.375,0.087
16.5,-0.128,-0.14,0.048
16.51,-0.227,0.013,0.048
16.52,-0.332,0.079,0.068
16.53,-0.14,0.365,-0.134
16.54,-0.217,0.255,-0.109
16.55,-0.343,-0.016,-0.058
16.56,-0.243,-0.004,-0.073
16.57,-0.245,-0.158,0.026
16.58,-0.197,-0.058,0.031
16.59,-0.194,0.07,0.073
16.6,-0.22,0.022,0.131
16.61,-0.178,0.051,-0.004
16.62,-0.229,-0.018,-0.033
16.63,-0.263,-0.127,-0.042
16.64,-0.335,0.081,-0.051
16.65,-0.357,0.125,-0.028
16.66,-0.184,0.142,-0.063
16.67,-0.272,0.204,-0.035
16.68,-0.227,0.041,0.039
16.69,-0.199,-0.125,-0.001
16.7,-0.22,-0.09,0.044
16.71,-0.146,-0.169,0.054
16.72,-0.137,-0.019,0.059
16.73,-0.254,0.142,0.053
16.74,-0.266,0.059,-0.004
16.75,-0.203,0.095,-0.135
16.76,-0.264,-0.059,-0.125
16.77,-0.344,-0.125,0.016
16.78,-0.267,0.135,0.081
16.79,-0.331,0.22,0.098
16.8,-0.291,0.221,-0.046
16.81,-0.085,0.207,-0.194
16.82,-0.095,-0.173,-0.124
16.83,-0.135,-0.389,0.014
16.84,-0.19,-0.247,0.138
16.85,-0.231,-0.162,0.295
16.86,-0.237,0.241,0.14
16.87,-0.319,0.252,-0.037
16.88,-0.284,0.077,-0.119
16.89,-0.25,0.048,-0.192
16.9,-0.393,-0.046,-0.076
16.91,-0.292,-0.105,-0.045
16.92,-0.278,0.121,-0.028
16.93,-0.18,0.22,0.012
16.94,-0.069,0.076,0.049
16.95,-0.123,0.04,0.09
16.96,-0.165,-0.225,0.057
16.97,-0.289,-0.266,0.097
16.98,-0.27,-0.082,0.049
16.99,-0.287,0.002,0.006
17.0,-0.313,0.308,-0.023
17.01,-0.311,0.274,-0.082
17.02,-0.332,0.036,-0.06
17.03,-0.238,-0.055,-0.17
17.04,-0.242,-0.098,-0.048
17.05,-0.239,-0.067,0.063
17.06,-0.076,0.151,0.048
17.07,-0.15,0.14,0.074
17.08,-0.063,-0.015,-0.016
17.09,-0.128,-0.062,0.012
17.1,-0.291,-0.278,0.171
17.11,-0.289,-0.063,0.068
17.12,-0.437,0.085,0.04
17.13,-0.312,0.118,-0.124
17.14,-0.276,0.279,-0.159
17.15,-0.286,0.101,-0.065
17.16,-0.155,-0.134,-0.04
17.17,-0.142,-0.097,-0.006
17.18,-0.099,-0.14,0.086
17.19,-0.092,0.09,0.141
17.2,-0.174,0.162,0.15
17.21,-0.228,0.018,0.06
17.22,-0.299,0.022,-0.066
17.23,-0.424,-0.077,-0.111
17.24,-0.426,-0.125,-0.046
17.25,-0.402,0.142,-0.052
17.26,-0.277,0.126,-0.098
17.27,-0.195,0.171,-0.086
17.28,-0.173,0.167,0.008
17.29,-0.124,-0.01,0.079
17.3,-0.076,-0.072,0.067
17.31,-0.105,-0.181,0.083
17.32,-0.153,-0.073,0.058
17.33,-0.263,0.111,0.038
17.34,-0.329,0.108,0.031
17.35,-0.315,0.026,-0.064
17.36,-0.333,-0.026,-0.163
17.37,-0.348,-0.145,-0.049
17.38,-0.287,-0.047,0.033
17.39,-0.25,0.233,0.063
17.4,-0.264,0.267,0.053
17.41,-0.122,0.258,-0.082
17.42,-0.019,0.119,-0.175
17.43,-0.087,-0.364,-0.034
17.44,-0.172,-0.349,0.103
17.45,-0.295,-0.227,0.278
17.46,-0.323,0.063,0.285
17.47,-0.318,0.193,-0.006
17.48,-0.334,0.206,-0.159
17.49,-0.277,-0.015,-0.226
17.5,-0.31,-0.066,-0.145
17.51,-0.281,-0.007,-0.042
17.52,-0.24,-0.015,-0.027
17.53,-0.185,0.255,0.034
17.54,-0.105,0.174,0.064
17.55,-0.135,0.119,0.117
17.56,-0.144,-0.129,0.084
17.57,-0.272,-0.36,0.089
17.58,-0.358,-0.218,0.022
17.59,-0.329,-0.048,-0.022
17.6,-0.293,0.118,-0.04
17.61,-0.265,0.342,-0.107
17.62,-0.266,0.167,-0.069
17.63,-0.182,0.027,-0.09
17.64,-0.217,0.014,-0.055
17.65,-0.278,-0.089,0.067
17.66,-0.179,0.02,0.044
17.67,-0.16,0.211,0.061
17.68,-0.101,0.075,0.035
17.69,-0.179,-0.059,-0.015
17.7,-0.304,-0.254,0.026
17.71,-0.253,-0.292,0.103
17.72,-0.304,-0.104,0.074
17.73,-0.365,0.117,0.02
17.74,-0.294,0.169,-0.082
17.75,-0.239,0.31,-0.146
17.76,-0.198,0.142,-0.1
17.77,-0.198,-0.137,-0.036
17.78,-0.156,0.002,-0.037
17.79,-0.157,-0.047,0.044
17.8,-0.105,0.019,0.129
17.81,-0.171,0.192,0.088
17.82,-0.311,-0.015,0.091
17.83,-0.302,-0.117,-0.028
17.84,-0.333,-0.097,-0.076
17.85,-0.392,-0.11,-0.03
17.86,-0.336,0.121,-0.028
17.87,-0.252,0.214,-0.077
17.88,-0.183,0.173,-0.08
17.89,-0.196,0.224,-0.02
17.9,-0.14,0.019,0.006
17.91,-0.092,-0.137,0.062
17.92,-0.189,-0.085,0.071
17.93,-0.194,-0.131,0.086
17.94,-0.28,-0.032,0.061
17.95,-0.305,0.021,0.024
17.96,-0.226,0.001,-0.063
17.97,-0.299,-0.052,-0.076
17.98,-0.329,-0.003,-0.045
17.99,-0.256,0.1,0.015
18.0,-0.27,0.307,0.015
18.01,-0.286,0.323,-0.014
18.02,-0.2,0.058,-0.108
18.03,-0.063,-0.048,-0.194
18.04,-0.126,-0.412,-0.022
18.05,-0.26,-0.375,0.216
18.06,-0.264,-0.078,0.32
18.07,-0.196,0.07,0.195
18.08,-0.174,0.232,-0.066
18.09,-0.227,0.226,-0.191
18.1,-0.311,-0.031,-0.181
18.11,-0.363,-0.047,-0.111
18.12,-0.314,0.113,-0.031
18.13,-0.306,0.054,0.021
18.14,-0.267,0.216,0.035
18.15,-0.136,0.174,-0.01
18.16,-0.108,-0.03,0.011
18.17,-0.186,-0.247,0.106
18.18,-0.248,-0.266,0.117
18.19,-0.214,-0.201,0.029
18.2,-0.237,0.045,-0.012
18.21,-0.223,0.168,-0.018
18.22,-0.213,0.303,-0.049
18.23,-0.437,0.199,0.026
18.24,-0.326,-0.097,-0.029
18.25,-0.281,0.022,-0.141
18.26,-0.332,-0.1,-0.066
18.27,-0.218,0.005,0.026
18.28,-0.11,0.181,0.038
18.29,-0.071,-0.021,0.031
18.3,-0.109,-0.146,0.017
18.31,-0.144,-0.178,0.119
18.32,-0.198,-0.136,0.172
18.33,-0.341,0.045,0.084
18.34,-0.341,0.21,-0.077
18.35,-0.318,0.184,-0.139
18.36,-0.315,0.175,-0.164
18.37,-0.316,0.06,-0.138
18.38,-0.261,-0.179,0.0
18.39,-0.161,-0.054,0.001
18.4,-0.114,-0.02,0.105
18.41,-0.065,-0.047,0.119
18.42,-0.094,0.206,0.073
18.43,-0.184,-0.008,0.053
18.44,-0.246,0.017,-0.062
18.45,-0.44,-0.035,-0.011
18.46,-0.426,-0.001,-0.032
18.47,-0.309,0.069,-0.073
18.48,-0.317,0.125,-0.052
18.49,-0.217,0.064,-0.039
18.5,-0.222,0.153,0.009
18.51,-0.155,-0.087,0.053
18.52,-0.082,-0.136,0.002
18.53,-0.128,-0.028,0.043
18.54,-0.141,-0.073,0.093
18.55,-0.25,0.114,0.049
18.56,-0.338,0.115,0.001
18.57,-0.254,-0.065,-0.04
18.58,-0.314,-0.041,-0.043
18.59,-0.341,-0.022,-0.013
18.6,-0.32,0.039,0.067
18.61,-0.31,0.292,-0.04
18.62,-0.215,0.279,-0.117
18.63,-0.072,0.027,-0.17
18.64,-0.059,-0.107,-0.129
18.65,-0.061,-0.337,0.089
18.66,-0.24,-0.301,0.299
18.67,-0.288,0.053,0.308
18.68,-0.279,0.18,0.152
18.69,-0.274,0.199,-0.11
18.7,-0.287,0.124,-0.237
18.71,-0.383,-0.149,-0.164
18.72,-0.39,-0.052,-0.087
18.73,-0.328,0.042,-0.016
18.74,-0.131,0.06,0.031
18.75,-0.133,0.234,-0.032
18.76,-0.089,0.08,0.049
18.77,-0.057,-0.081,0.078
18.78,-0.277,-0.144,0.123
18.79,-0.38,-0.195,0.113
18.8,-0.21,-0.083,-0.037
18.81,-0.325,0.117,-0.011
18.82,-0.379,0.173,-0.012
18.83,-0.343,0.077,-0.021
18.84,-0.338,0.034,-0.071
18.85,-0.156,-0.13,-0.069
18.86,-0.191,0.007,-0.063
18.87,-0.186,0.185,-0.025
18.88,-0.108,0.045,0.022
18.89,-0.084,0.256,-0.022
18.9,-0.12,-0.004,0.023
18.91,-0.307,-0.26,0.135
18.92,-0.296,-0.095,0.141
18.93,-0.321,-0.172,0.052
18.94,-0.388,-0.016,-0.023
18.95,-0.378,0.146,-0.098
18.96,-0.271,0.085,-0.073
18.97,-0.17,0.171,-0.062
18.98,-0.184,-0.002,-0.042
18.99,-0.119,-0.118,-0.02
19.0,-0.058,0.092,-0.031
19.01,-0.178,0.074,0.119
19.02,-0.197,0.035,0.111
19.03,-0.272,0.054,0.05
19.04,-0.381,-0.114,-0.034
19.05,-0.384,-0.161,-0.089
19.06,-0.423,0.042,-0.037
19.07,-0.28,0.042,-0.014
19.08,-0.16,0.213,-0.065
19.09,-0.194,0.214,-0.035
19.1,-0.18,0.088,-0.02
19.11,-0.134,0.073,-0.017
19.12,-0.163,-0.067,0.017
19.13,-0.164,-0.145,0.062
19.14,-0.256,-0.004,0.073
19.15,-0.255,0.026,0.046
19.16,-0.283,0.011,0.031
19.17,-0.284,0.002,-0.037
19.18,-0.184,-0.092,-0.084
19.19,-0.231,-0.096,-0.06
19.2,-0.3,0.156,0.027
19.21,-0.242,0.282,0.05
19.22,-0.31,0.279,-0.007
19.23,-0.257,0.258,-0.137
19.24,-0.093,-0.231,-0.131
19.25,-0.136,-0.308,-0.045
19.26,-0.189,-0.324,0.172
19.27,-0.292,-0.174,0.313
19.28,-0.268,0.152,0.201
19.29,-0.216,0.184,-0.049
19.3,-0.169,0.098,-0.192
19.31,-0.235,0.05,-0.217
19.32,-0.416,-0.116,-0.026
19.33,-0.351,-0.031,0.007
19.34,-0.291,0.157,-0.023
19.35,-0.252,0.142,0.037
19.36,-0.07,0.28,-0.012
19.37,-0.126,0.086,0.059
19.38,-0.229,-0.233,0.072
19.39,-0.232,-0.23,0.029
19.4,-0.281,-0.26,0.048
19.41,-0.152,-0.084,-0.005
19.42,-0.246,0.205,-0.001
19.43,-0.318,0.244,0.0
19.44,-0.298,0.193,-0.047
19.45,-0.336,0.091,-0.073
19.46,-0.222,-0.041,-0.087
19.47,-0.229,-0.032,-0.027
19.48,-0.229,0.11,0.027
19.49,-0.182,0.067,0.021
19.5,-0.126,-0.007,0.027
19.51,-0.15,-0.104,0.025
19.52,-0.256,-0.356,0.135
19.53,-0.234,-0.211,0.106
19.54,-0.255,-0.017,0.031
19.55,-0.392,0.105,-0.009
19.56,-0.267,0.381,-0.095
19.57,-0.241,0.234,-0.114
19.58,-0.197,0.116,-0.143
19.59,-0.223,-0.012,-0.055
19.6,-0.26,-0.217,0.06
19.61,-0.118,-0.029,0.036
19.62,-0.239,0.015,0.102
19.63,-0.221,-0.083,0.145
19.64,-0.181,0.098,0.011
19.65,-0.281,-0.111,0.007
19.66,-0.25,-0.073,-0.057
19.67,-0.311,0.127,-0.056
19.68,-0.379,0.126,-0.038
19.69,-0.215,0.163,-0.093
19.7,-0.263,0.29,-0.074
19.71,-0.237,0.044,-0.043
19.72,-0.254,-0.046,0.022
19.73,-0.2,-0.09,0.069
19.74,-0.084,-0.238,0.057
19.75,-0.124,-0.099,0.055
19.76,-0.148,-0.019,0.07
19.77,-0.225,0.062,0.065
19.78,-0.266,0.091,-0.003
19.79,-0.294,-0.033,-0.064
19.8,-0.397,-0.05,-0.04
19.81,-0.386,0.168,-0.039
19.82,-0.347,0.195,0.001
19.83,-0.348,0.262,-0.066
19.84,-0.174,0.175,-0.159
19.85,-0.073,-0.201,-0.097
19.86,0.049,-0.307,0.023
19.87,-0.047,-0.308,0.191
19.88,-0.218,-0.183,0.315
19.89,-0.197,0.205,0.165
19.9,-0.33,0.246,-0.034
19.91,-0.348,0.121,-0.181
19.92,-0.327,0.072,-0.191
19.93,-0.503,-0.08,-0.044
19.94,-0.406,0.002,-0.044
19.95,-0.247,0.155,-0.015
19.96,-0.145,0.17,-0.003
19.97,0.033,0.14,-0.019
19.98,-0.122,-0.024,0.078
19.99,-0.111,-0.316,0.113
20.0,-0.206,-0.172,0.076
20.01,-0.328,-0.175,0.078
20.02,-0.294,-0.027,0.025
20.03,-0.322,0.243,-0.005
20.04,-0.331,0.311,-0.046
20.05,-0.377,0.032,-0.081
20.06,-0.344,0.037,-0.122
20.07,-0.264,-0.056,-0.108
20.08,-0.182,-0.063,-0.012
20.09,-0.142,0.13,0.027
20.1,-0.097,0.015,0.044
20.11,-0.058,0.071,0.023
20.12,-0.14,-0.126,0.107
20.13,-0.233,-0.211,0.165
20.14,-0.244,-0.002,0.069
20.15,-0.368,-0.044,-0.021
20.16,-0.399,0.118,-0.106
20.17,-0.337,0.281,-0.169
20.18,-0.326,0.067,-0.066
20.19,-0.261,-0.013,-0.03
20.2,-0.159,-0.018,-0.022
20.21,-0.111,-0.089,0.019
20.22,-0.1,-0.001,0.053
20.23,-0.054,0.124,0.097
20.24,-0.153,0.067,0.108
20.25,-0.25,-0.023,0.038
20.26,-0.349,-0.064,-0.021
20.27,-0.39,-0.203,-0.041
20.28,-0.451,0.063,-0.035
20.29,-0.367,0.072,-0.023
20.3,-0.244,0.192,-0.064
20.31,-0.202,0.264,-0.106
20.32,-0.181,0.094,-0.011
20.33,-0.07,0.028,-0.032
20.34,-0.061,-0.081,-0.022
20.35,-0.153,-0.148,0.133
20.36,-0.212,0.027,0.119
20.37,-0.37,0.039,0.132
20.38,-0.302,-0.02,-0.035
20.39,-0.308,-0.052,-0.116
20.4,-0.38,-0.098,-0.058
20.41,-0.328,0.035,0.012
20.42,-0.25,0.265,-0.022
20.43,-0.235,0.286,-0.06
20.44,-0.126,0.254,-0.166
20.45,-0.08,0.018,-0.153
20.46,-0.073,-0.354,-0.004
20.47,-0.187,-0.271,0.168
20.48,-0.322,-0.163,0.351
20.49,-0.302,-0.046,0.253
20.5,-0.313,0.209,-0.02
20.51,-0.268,0.087,-0.15
20.52,-0.24,-0.073,-0.184
20.53,-0.281,0.023,-0.082
20.54,-0.302,-0.067,-0.039
20.55,-0.238,0.169,-0.045
20.56,-0.191,0.251,-0.053
20.57,-0.148,0.146,0.005
20.58,-0.175,0.176,0.049
20.59,-0.172,-0.129,0.079
20.6,-0.317,-0.317,0.074
20.61,-0.337,-0.239,-0.0
20.62,-0.213,-0.101,0.039
20.63,-0.25,0.105,0.069
20.64,-0.203,0.315,-0.025
20.65,-0.217,0.141,-0.061
20.66,-0.299,0.048,-0.128
20.67,-0.265,0.024,-0.113
20.68,-0.255,-0.082,-0.014
20.69,-0.238,0.133,0.018
20.7,-0.195,0.169,0.042
20.71,-0.164,0.025,0.05
20.72,-0.138,-0.053,-0.012
20.73,-0.231,-0.212,0.094
20.74,-0.248,-0.287,0.098
20.75,-0.268,-0.058,0.027
20.76,-0.338,-0.028,0.012
20.77,-0.25,0.268,-0.05
20.78,-0.26,0.306,-0.064
20.79,-0.253,0.067,-0.048
20.8,-0.237,-0.026,-0.08
20.81,-0.215,-0.025,-0.036
20.82,-0.18,-0.106,0.036
20.83,-0.168,0.039,0.057
20.84,-0.236,0.038,0.054
20.85,-0.262,-0.064,0.053
20.86,-0.233,-0.029,0.011
20.87,-0.31,-0.099,-0.021
20.88,-0.299,0.013,0.007
20.89,-0.255,0.158,-0.02
20.9,-0.27,0.156,-0.013
20.91,-0.239,0.222,-0.08
20.92,-0.243,0.156,-0.092
20.93,-0.213,0.024,-0.02
20.94,-0.155,-0.04,0.006
20.95,-0.223,-0.196,0.064
20.96,-0.193,-0.17,0.086
20.97,-0.188,-0.0,0.07
20.98,-0.248,0.02,0.068
20.99,-0.144,0.013,-0.038
21.0,-0.221,0.092,-0.054
21.01,-0.364,-0.004,0.016
21.02,-0.337,-0.056,-0.004
21.03,-0.346,0.283,0.008
21.04,-0.268,0.196,-0.033
21.05,-0.27,0.163,-0.088
21.06,-0.228,-0.059,-0.136
21.07,-0.074,-0.37,-0.028
21.08,-0.086,-0.232,0.095
21.09,-0.194,-0.164,0.25
21.1,-0.157,0.046,0.163
21.11,-0.174,0.316,-0.036
21.12,-0.241,0.211,-0.116
21.13,-0.343,-0.063,-0.128
21.14,-0.405,0.01,-0.082
21.15,-0.384,-0.022,0.016
21.16,-0.371,0.094,0.021
21.17,-0.269,0.197,-0.06
21.18,-0.175,0.037,-0.005
21.19,-0.065,0.1,0.002
21.2,-0.07,-0.173,0.064
21.21,-0.168,-0.322,0.09
21.22,-0.162,-0.122,0.027
21.23,-0.276,0.004,0.063
21.24,-0.289,0.122,0.036
21.25,-0.304,0.302,-0.061
21.26,-0.403,0.118,-0.066
21.27,-0.369,-0.002,-0.109
21.28,-0.303,0.06,-0.083
21.29,-0.263,-0.079,0.006
21.3,-0.183,0.084,0.017
21.31,-0.123,0.069,0.035
21.32,-0.002,-0.095,0.025
21.33,-0.069,-0.102,0.027
21.34,-0.277,-0.141,0.138
21.35,-0.266,-0.14,0.094
21.36,-0.343,0.078,-0.013
21.37,-0.448,0.154,-0.05
21.38,-0.248,0.154,-0.158
21.39,-0.266,0.19,-0.115
21.4,-0.298,-0.004,-0.047
21.41,-0.18,-0.022,-0.004
21.42,-0.118,-0.054,0.02
21.43,-0.125,-0.066,0.056
21.44,-0.115,0.066,0.095
21.45,-0.157,0.042,0.078
21.46,-0.267,-0.055,0.074
21.47,-0.332,-0.004,-0.004
21.48,-0.389,-0.099,-0.057
21.49,-0.346,0.064,-0.066
21.5,-0.25,0.151,-0.064
21.51,-0.318,0.197,-0.057
21.52,-0.282,0.141,-0.061
21.53,-0.204,0.142,-0.012
21.54,-0.135,-0.071,0.028
21.55,-0.108,-0.126,0.011
21.56,-0.117,-0.144,0.065
21.57,-0.125,-0.136,0.13
21.58,-0.278,0.111,0.116
21.59,-0.366,0.073,0.047
21.6,-0.236,-0.019,-0.106
21.61,-0.312,-0.033,-0.135
21.62,-0.413,0.005,-0.035
21.63,-0.334,0.077,0.032
21.64,-0.329,0.302,0.025
21.65,-0.184,0.283,-0.039
21.66,-0.079,0.081,-0.138
21.67,0.001,-0.109,-0.111
21.68,-0.025,-0.451,0.028
21.69,-0.161,-0.275,0.198
21.7,-0.318,0.013,0.318
21.71,-0.293,0.131,0.193
21.72,-0.345,0.317,-0.089
21.73,-0.306,0.084,-0.238
21.74,-0.337,-0.133,-0.176
21.75,-0.385,-0.052,-0.095
21.76,-0.281,-0.011,0.003
21.77,-0.122,0.097,-0.002
21.78,-0.049,0.316,-0.021
21.79,-0.086,0.102,0.048
21.8,-0.096,-0.031,0.105
21.81,-0.167,-0.178,0.104
21.82,-0.364,-0.311,0.146
21.83,-0.395,-0.121,0.025
21.84,-0.398,-0.058,-0.032
21.85,-0.301,0.249,-0.091
21.86,-0.238,0.27,-0.134
21.87,-0.364,0.095,-0.05
21.88,-0.147,-0.063,-0.117
21.89,-0.133,0.066,-0.078
21.9,-0.225,0.008,0.089
21.91,-0.104,0.065,0.081
21.92,-0.142,0.182,0.066
21.93,-0.183,-0.098,0.064
21.94,-0.236,-0.138,0.036
21.95,-0.359,-0.2,0.074
21.96,-0.271,-0.231,-0.021
21.97,-0.355,0.089,-0.043
21.98,-0.363,0.165,-0.04
21.99,-0.171,0.201,-0.086
22.0,-0.221,0.227,-0.076
22.01,-0.175,0.036,-0.04
22.02,-0.129,-0.127,-0.015
22.03,-0.157,0.0,0.019
22.04,-0.17,0.0,0.104
22.05,-0.218,0.081,0.136
22.06,-0.233,0.001,0.096
22.07,-0.31,-0.102,-0.008
22.08,-0.357,-0.133,-0.035
22.09,-0.352,-0.092,-0.039
22.1,-0.364,-0.017,-0.023
22.11,-0.256,0.236,-0.057
22.12,-0.183,0.274,-0.072
22.13,-0.239,0.126,-0.059
22.14,-0.155,0.188,-0.08
22.15,-0.139,-0.125,0.025
22.16,-0.157,-0.124,0.084
22.17,-0.146,-0.07,0.123
22.18,-0.224,-0.159,0.156
22.19,-0.303,0.082,0.047
22.2,-0.33,-0.002,-0.074
22.21,-0.175,-0.101,-0.101
22.22,-0.325,-0.017,-0.109
22.23,-0.361,0.067,0.01
22.24,-0.256,0.099,0.055
22.25,-0.239,0.354,-0.004
22.26,-0.173,0.404,-0.094
22.27,-0.103,-0.076,-0.093
22.28,-0.16,-0.151,-0.043
22.29,-0.129,-0.401,0.078
22.3,-0.267,-0.345,0.267
22.31,-0.326,-0.057,0.23
22.32,-0.24,0.12,0.083
22.33,-0.24,0.219,-0.126
22.34,-0.223,0.086,-0.213
22.35,-0.336,-0.008,-0.139
22.36,-0.305,-0.02,-0.084
22.37,-0.296,0.149,0.009
22.38,-0.234,0.148,0.032
22.39,-0.152,0.267,-0.033
22.4,-0.194,0.044,0.046
22.41,-0.167,-0.178,0.043
22.42,-0.22,-0.225,0.075
22.43,-0.353,-0.341,0.143
22.44,-0.182,-0.104,0.001
22.45,-0.271,0.17,-0.02
22.46,-0.226,0.203,-0.055
22.47,-0.226,0.278,-0.087
22.48,-0.348,0.117,-0.048
22.49,-0.26,-0.08,-0.084
22.5,-0.299,0.001,-0.024
22.51,-0.272,0.051,0.067
22.52,-0.223,0.098,-0.001
22.53,-0.159,0.083,0.027
22.54,-0.065,-0.09,-0.007
22.55,-0.105,-0.269,0.028
22.56,-0.26,-0.136,0.141
22.57,-0.177,-0.299,0.105
22.58,-0.335,0.244,0.061
22.59,-0.372,0.195,-0.049
22.6,-0.328,0.19,-0.126
22.61,-0.34,0.216,-0.139
22.62,-0.245,-0.048,-0.089
22.63,-0.294,-0.063,-0.027
22.64,-0.171,-0.101,-0.013
22.65,-0.078,0.013,0.027
22.66,-0.034,0.049,0.081
22.67,-0.073,0.088,0.101
22.68,-0.266,-0.068,0.111
22.69,-0.343,-0.07,-0.007
22.7,-0.356,-0.032,-0.067
22.71,-0.405,0.054,-0.027
22.72,-0.318,0.177,-0.098
22.73,-0.331,0.204,-0.071
22.74,-0.273,0.095,-0.052
22.75,-0.193,0.119,-0.057
22.76,-0.14,-0.122,-0.013
22.77,-0.033,-0.21,0.043
22.78,-0.1,-0.02,0.124
22.79,-0.167,0.04,0.177
22.8,-0.214,0.102,0.085
22.81,-0.273,0.085,-0.071
22.82,-0.297,-0.173,-0.105
22.83,-0.354,-0.101,-0.036
22.84,-0.406,0.042,0.04
22.85,-0.384,0.179,0.052
22.86,-0.34,0.323,-0.077
22.87,-0.204,0.274,-0.178
22.88,-0.064,-0.089,-0.132
22.89,-0.005,-0.215,-0.041
22.9,-0.07,-0.309,0.114
22.91,-0.163,-0.271,0.232
22.92,-0.195,0.156,0.223
22.93,-0.23,0.184,0.115
22.94,-0.293,0.23,-0.07
22.95,-0.376,-0.032,-0.197
22.96,-0.42,-0.19,-0.129
22.97,-0.424,-0.018,-0.089
22.98,-0.449,0.096,0.036
22.99,-0.218,0.139,-0.004
23.0,0.011,0.236,-0.126
23.01,-0.036,0.065,0.008
23.02,-0.039,-0.153,0.113
23.03,-0.189,-0.103,0.185
23.04,-0.269,-0.231,0.137
23.05,-0.275,0.012,0.007
23.06,-0.331,0.101,-0.051
23.07,-0.37,0.124,-0.025
23.08,-0.417,0.125,-0.065
23.09,-0.389,0.04,-0.053
23.1,-0.313,-0.12,-0.086
23.11,-0.132,0.027,-0.094
23.12,-0.109,0.2,-0.01
23.13,-0.07,0.057,0.04
23.14,-0.045,0.162,0.033
23.15,-0.156,-0.146,0.098
23.16,-0.284,-0.24,0.111
23.17,-0.295,-0.102,0.081
23.18,-0.337,-0.117,0.034
23.19,-0.418,0.086,-0.047
23.2,-0.333,0.216,-0.107
23.21,-0.261,0.058,-0.099
23.22,-0.181,0.128,-0.105
23.23,-0.151,0.006,-0.052
23.24,-0.123,-0.085,0.002
23.25,-0.075,0.047,-0.009
23.26,-0.121,0.062,0.077
23.27,-0.202,0.054,0.116
23.28,-0.284,0.06,0.083
23.29,-0.353,-0.098,0.039
23.3,-0.367,-0.09,-0.069
23.31,-0.377,-0.037,-0.077
23.32,-0.334,0.068,-0.065
23.33,-0.196,0.151,-0.045
23.34,-0.203,0.199,-0.031
23.35,-0.21,0.098,-0.03
23.36,-0.135,0.067,-0.012
23.37,-0.086,-0.08,-0.012
23.38,-0.185,-0.169,0.084
23.39,-0.254,-0.025,0.121
23.4,-0.265,-0.003,0.11
23.41,-0.305,0.044,-0.027
23.42,-0.272,0.002,-0.119
23.43,-0.267,-0.125,-0.061
23.44,-0.298,-0.061,0.042
23.45,-0.296,0.172,0.04
23.46,-0.275,0.169,-0.001
23.47,-0.166,0.294,-0.149
23.48,-0.125,0.241,-0.175
23.49,-0.121,-0.189,-0.075
23.5,-0.099,-0.263,0.044
23.51,-0.217,-0.209,0.21
23.52,-0.312,-0.213,0.345
23.53,-0.317,0.154,0.151
23.54,-0.314,0.062,-0.049
23.55,-0.244,0.083,-0.199
23.56,-0.239,-0.023,-0.174
23.57,-0.381,-0.039,-0.049
23.58,-0.251,0.175,-0.027
23.59,-0.191,0.183,0.032
23.6,-0.097,0.151,-0.032
23.61,-0.111,0.057,0.061
23.62,-0.229,-0.076,0.182
23.63,-0.304,-0.292,0.135
23.64,-0.408,-0.184,0.037
23.65,-0.26,-0.221,-0.043
23.66,-0.239,0.112,-0.076
23.67,-0.25,0.227,-0.056
23.68,-0.243,0.042,-0.037
23.69,-0.264,0.18,-0.086
23.7,-0.171,0.081,-0.05
23.71,-0.219,0.001,0.009
23.72,-0.215,0.182,-0.012
23.73,-0.231,0.131,0.032
23.74,-0.234,-0.043,0.026
23.75,-0.191,-0.1,-0.018
23.76,-0.283,-0.31,0.117
23.77,-0.243,-0.257,0.1
23.78,-0.25,0.023,0.02
23.79,-0.258,-0.037,0.012
23.8,-0.247,0.308,-0.072
23.81,-0.281,0.276,-0.095
23.82,-0.214,0.046,-0.107
23.83,-0.214,0.054,-0.092
23.84,-0.237,-0.036,-0.008
23.85,-0.158,-0.066,0.065
23.86,-0.235,0.014,0.071
23.87,-0.238,-0.045,0.092
23.88,-0.205,-0.106,0.032
23.89,-0.264,-0.024,0.028
23.9,-0.297,-0.136,0.01
23.91,-0.306,0.119,-0.043
23.92,-0.305,0.168,-0.04
23.93,-0.164,0.204,-0.115
23.94,-0.255,0.206,-0.102
23.95,-0.313,0.068,-0.026
23.96,-0.223,-0.037,0.007
23.97,-0.21,-0.049,0.023
23.98,-0.161,-0.151,0.042
23.99,-0.224,-0.063,0.068
24.0,-0.135,0.037,0.083
24.01,-0.168,0.003,0.043
24.02,-0.228,0.042,-0.012
24.03,-0.189,-0.03,-0.117
24.04,-0.293,-0.137,-0.023
24.05,-0.365,0.126,0.009
24.06,-0.343,0.295,0.013
24.07,-0.358,0.235,-0.006
24.08,-0.233,0.302,-0.172
24.09,-0.163,-0.067,-0.141
24.1,-0.094,-0.366,-0.032
24.11,-0.048,-0.369,0.128
24.12,-0.185,-0.187,0.332
24.13,-0.215,-0.016,0.284
24.14,-0.237,0.277,0.003
24.15,-0.234,0.169,-0.149
24.16,-0.26,-0.007,-0.221
24.17,-0.509,0.015,-0.095
24.18,-0.445,-0.077,-0.009
24.19,-0.278,0.14,-0.041
24.2,-0.281,0.198,-0.045
24.21,-0.112,0.048,-0.013
24.22,-0.067,0.082,0.068
24.23,-0.075,-0.17,0.126
24.24,-0.181,-0.281,0.124
24.25,-0.281,-0.094,0.06
24.26,-0.217,-0.037,-0.027
24.27,-0.268,0.171,-0.026
24.28,-0.29,0.227,-0.071
24.29,-0.339,0.135,-0.032
24.3,-0.417,0.021,-0.058
24.31,-0.344,0.027,-0.098
24.32,-0.236,-0.1,-0.053
24.33,-0.16,0.129,-0.053
24.34,-0.121,0.095,0.064
24.35,-0.026,-0.02,0.044
24.36,-0.064,-0.071,0.08
24.37,-0.227,-0.297,0.164
24.38,-0.2,-0.162,0.138
24.39,-0.306,0.012,0.049
24.4,-0.444,0.077,-0.032
24.41,-0.394,0.287,-0.148
24.42,-0.371,0.19,-0.184
24.43,-0.297,-0.008,-0.091
24.44,-0.186,-0.02,-0.082
24.45,-0.11,-0.065,0.006
24.46,-0.056,-0.137,0.044
24.47,-0.022,0.098,0.084
24.48,-0.106,0.09,0.189
24.49,-0.229,0.022,0.096
24.5,-0.352,0.013,-0.012
24.51,-0.392,-0.093,-0.07
24.52,-0.432,0.012,-0.068
24.53,-0.398,0.126,-0.059
24.54,-0.282,0.087,-0.057
24.55,-0.274,0.151,-0.098
24.56,-0.18,0.085,-0.067
24.57,-0.08,-0.006,-0.02
24.58,-0.061,-0.009,0.066
24.59,-0.116,-0.026,0.088
24.6,-0.143,-0.093,0.091
24.61,-0.197,-0.003,0.08
24.62,-0.352,0.02,0.076
24.63,-0.37,-0.068,-0.027
24.64,-0.303,-0.108,-0.069
24.65,-0.381,-0.087,-0.022
24.66,-0.375,0.106,-0.001
24.67,-0.3,0.303,-0.01
24.68,-0.217,0.224,-0.062
24.69,-0.07,0.264,-0.198
24.7,-0.015,-0.05,-0.154
24.71,-0.087,-0.437,0.012
24.72,-0.149,-0.31,0.169
24.73,-0.32,-0.115,0.417
24.74,-0.291,0.129,0.251
24.75,-0.28,0.187,-0.029
24.76,-0.347,0.117,-0.197
24.77,-0.294,-0.055,-0.222
24.78,-0.399,-0.019,-0.095
24.79,-0.265,-0.015,-0.02
24.8,-0.224,0.115,-0.072
24.81,-0.124,0.257,-0.047
24.82,-0.03,0.136,-0.024
24.83,-0.134,0.092,0.085
24.84,-0.275,-0.176,0.184
24.85,-0.302,-0.257,0.135
24.86,-0.304,-0.136,0.023
24.87,-0.33,-0.082,-0.015
24.88,-0.29,0.061,-0.021
24.89,-0.253,0.285,-0.039
24.9,-0.302,-0.03,-0.013
24.91,-0.251,0.051,-0.088
24.92,-0.244,0.042,-0.103
24.93,-0.183,0.005,-0.042
24.94,-0.152,0.225,-0.031
24.95,-0.241,0.094,0.051
24.96,-0.144,-0.035,0.02
24.97,-0.162,-0.145,0.044
24.98,-0.288,-0.213,0.147
24.99,-0.266,-0.211,0.129
25.0,-0.258,0.049,0.005
25.01,-0.354,0.057,-0.02
25.02,-0.249,0.181,-0.098
25.03,-0.214,0.265,-0.151
25.04,-0.248,-0.029,-0.094
25.05,-0.163,-0.024,-0.047
25.06,-0.188,0.098,0.007
25.07,-0.199,-0.105,0.089
25.08,-0.153,0.157,0.106
25.09,-0.216,0.044,0.07
25.1,-0.277,-0.168,0.051
25.11,-0.329,-0.081,-0.001
25.12,-0.337,-0.173,-0.002
25.13,-0.321,0.041,-0.037
25.14,-0.237,0.189,-0.047
25.15,-0.19,0.228,-0.069
25.16,-0.199,0.247,-0.074
25.17,-0.248,0.12,0.015
25.18,-0.177,-0.101,-0.002
25.19,-0.198,-0.048,-0.023
25.2,-0.191,-0.189,0.039
25.21,-0.246,-0.115,0.096
25.22,-0.283,0.112,0.066
25.23,-0.3,-0.01,0.075
25.24,-0.149,-0.032,-0.064
25.25,-0.111,-0.0,-0.11
25.26,-0.34,-0.125,0.049
25.27,-0.298,0.152,0.038
25.28,-0.274,0.381,-0.004
25.29,-0.322,0.279,-0.053
25.3,-0.206,0.185,-0.2
25.31,-0.109,-0.152,-0.151
25.32,-0.177,-0.458,0.034
25.33,-0.201,-0.256,0.195
25.34,-0.289,-0.109,0.335
25.35,-0.123,0.07,0.132
25.36,-0.161,0.335,-0.072
25.37,-0.255,0.059,-0.121
25.38,-0.281,0.022,-0.153
25.39,-0.417,-0.143,-0.031
25.4,-0.35,0.005,0.01
25.41,-0.299,0.099,0.028
25.42,-0.3,0.224,0.007
25.43,-0.107,0.15,-0.027
25.44,-0.106,0.008,0.003
25.45,-0.213,-0.188,0.02
25.46,-0.245,-0.381,0.058
25.47,-0.152,-0.097,0.017
25.48,-0.186,0.042,0.043
25.49,-0.324,0.21,0.05
25.5,-0.253,0.26,-0.007
25.51,-0.371,0.147,0.01
25.52,-0.347,-0.016,-0.079
25.53,-0.296,-0.051,-0.129
25.54,-0.269,-0.152,-0.033
25.55,-0.151,0.169,-0.047
25.56,-0.169,0.215,0.01
25.57,-0.123,-0.085,0.054
25.58,-0.068,-0.077,0.001
25.59,-0.193,-0.258,0.146
25.6,-0.205,-0.243,0.134
25.61,-0.334,0.069,0.045
25.62,-0.415,0.135,-0.009
25.63,-0.306,0.227,-0.123
25.64,-0.326,0.298,-0.112
25.65,-0.232,-0.105,-0.086
25.66,-0.228,-0.053,-0.051
25.67,-0.264,-0.129,0.02
25.68,-0.119,-0.19,0.076
25.69,-0.107,0.117,0.075
25.7,-0.132,0.111,0.088
25.71,-0.263,0.012,0.043
25.72,-0.286,0.025,-0.051
25.73,-0.278,-0.03,-0.088
25.74,-0.394,0.028,-0.038
25.75,-0.328,0.187,-0.04
25.76,-0.278,0.074,-0.024
25.77,-0.355,0.107,-0.051
25.78,-0.266,0.105,-0.031
25.79,-0.092,-0.102,0.031
25.8,-0.107,-0.062,0.037
25.81,-0.164,-0.042,0.037
25.82,-0.054,-0.153,0.062
25.83,-0.093,0.143,0.01
25.84,-0.301,0.08,0.033
25.85,-0.3,0.01,-0.013
25.86,-0.316,-0.01,-0.102
25.87,-0.434,-0.007,-0.005
25.88,-0.379,0.019,-0.015
25.89,-0.386,0.165,0.046
25.9,-0.294,0.202,0.0
25.91,0.014,0.153,-0.11
25.92,-0.049,-0.077,-0.122
25.93,-0.041,-0.406,0.002
25.94,-0.146,-0.26,0.17
25.95,-0.244,-0.065,0.315
25.96,-0.23,0.099,0.117
25.97,-0.372,0.26,-0.08
25.98,-0.381,0.207,-0.189
25.99,-0.373,-0.026,-0.185
26.0,-0.424,-0.047,-0.061
26.01,-0.28,-0.038,-0.023
26.02,-0.238,-0.004,0.063
26.03,-0.096,0.212,0.008
26.04,0.021,0.179,0.02
26.05,-0.078,0.03,0.063
26.06,-0.187,-0.129,0.048
26.07,-0.276,-0.292,0.059
26.08,-0.287,-0.114,-0.012
26.09,-0.397,0.051,0.021
26.1,-0.357,0.17,-0.021
26.11,-0.361,0.304,-0.071
26.12,-0.351,0.094,-0.045
26.13,-0.176,-0.047,-0.121
26.14,-0.127,-0.138,-0.063
26.15,-0.174,-0.112,0.063
26.16,-0.094,0.083,0.093
26.17,-0.142,0.169,0.099
26.18,-0.159,-0.036,-0.002
26.19,-0.25,-0.083,-0.033
26.2,-0.314,-0.113,0.075
26.21,-0.316,-0.155,0.063
26.22,-0.468,0.073,-0.019
26.23,-0.359,0.081,-0.094
26.24,-0.152,0.181,-0.151
26.25,-0.128,0.184,-0.093
26.26,-0.197,-0.037,0.048
26.27,-0.161,-0.079,0.036
26.28,-0.11,0.017,-0.001
26.29,-0.212,-0.088,0.085
26.3,-0.21,0.106,0.071
26.31,-0.195,0.155,0.077
26.32,-0.289,-0.049,0.034
26.33,-0.391,-0.105,-0.107
26.34,-0.458,-0.109,-0.064
26.35,-0.274,-0.036,-0.042
26.36,-0.226,0.199,-0.037
26.37,-0.228,0.2,-0.016
26.38,-0.139,0.182,-0.042
26.39,-0.201,0.213,0.022
26.4,-0.086,-0.159,0.046
26.41,-0.146,-0.142,0.052
26.42,-0.201,-0.237,0.065
26.43,-0.158,-0.067,0.073
26.44,-0.408,0.097,0.072
26.45,-0.398,0.108,-0.008
26.46,-0.243,-0.032,-0.124
26.47,-0.286,-0.032,-0.106
26.48,-0.264,-0.014,-0.051
26.49,-0.256,0.071,0.047
26.5,-0.246,0.363,0.06
26.51,-0.133,0.244,-0.037
26.52,-0.091,0.029,-0.126
26.53,-0.059,-0.198,-0.076
26.54,-0.177,-0.414,0.126
26.55,-0.335,-0.16,0.272
26.56,-0.321,0.035,0.219
26.57,-0.342,0.086,0.008
26.58,-0.258,0.282,-0.212
26.59,-0.181,0.059,-0.226
26.6,-0.315,-0.052,-0.073
26.61,-0.267,-0.001,-0.039
26.62,-0.26,0.11,0.045
26.63,-0.195,0.09,0.034
26.64,-0.126,0.288,0.003
26.65,-0.204,0.089,0.066
26.66,-0.177,-0.203,0.08
26.67,-0.359,-0.253,0.076
26.68,-0.366,-0.346,0.059
26.69,-0.229,0.002,-0.015
26.7,-0.281,0.163,0.016
26.71,-0.192,0.299,-0.049
26.72,-0.233,0.272,-0.06
26.73,-0.294,0.05,-0.063
26.74,-0.232,-0.095,-0.094
26.75,-0.258,-0.086,-0.028
26.76,-0.213,-0.007,0.056
26.77,-0.2,0.126,0.068
26.78,-0.223,0.094,0.033
26.79,-0.18,-0.215,-0.011
26.8,-0.213,-0.2,0.093
26.81,-0.179,-0.188,0.071
26.82,-0.3,0.071,0.03
26.83,-0.328,0.239,-0.048
26.84,-0.23,0.213,-0.087
26.85,-0.263,0.227,-0.098
26.86,-0.246,0.01,-0.068
26.87,-0.259,-0.187,-0.004
26.88,-0.183,-0.033,-0.024
26.89,-0.171,-0.082,0.043
26.9,-0.145,0.092,0.074
26.91,-0.171,0.088,0.112
26.92,-0.222,-0.034,0.051
26.93,-0.243,-0.035,-0.054
26.94,-0.335,-0.104,-0.032
26.95,-0.369,0.112,0.014
26.96,-0.279,0.13,-0.053
26.97,-0.291,0.244,-0.067
26.98,-0.279,0.084,-0.045
26.99,-0.254,0.109,-0.052
27.0,-0.186,-0.138,-0.022
27.01,-0.161,-0.202,0.064
27.02,-0.161,-0.068,0.08
27.03,-0.125,-0.078,0.077
27.04,-0.182,0.072,0.067
27.05,-0.234,0.153,0.016
27.06,-0.238,0.091,-0.06
27.07,-0.289,-0.09,-0.079
27.08,-0.363,0.03,-0.04
27.09,-0.313,0.084,0.021
27.1,-0.367,0.185,0.022
27.11,-0.284,0.272,-0.093
27.12,-0.093,0.013,-0.134
27.13,-0.083,-0.122,-0.077
27.14,-0.114,-0.285,0.062
27.15,-0.183,-0.362,0.237
27.16,-0.197,0.091,0.254
27.17,-0.199,0.086,0.091
27.18,-0.3,0.179,-0.062
27.19,-0.241,0.214,-0.195
27.2,-0.358,-0.041,-0.11
27.21,-0.438,-0.045,-0.037
27.22,-0.389,0.004,-0.08
27.23,-0.271,0.037,0.003
27.24,-0.106,0.195,-0.049
27.25,-0.13,0.136,0.056
27.26,-0.091,-0.202,0.071
27.27,-0.068,-0.13,0.023
27.28,-0.222,-0.197,0.13
27.29,-0.228,-0.073,0.037
27.3,-0.333,0.196,0.044
27.31,-0.333,0.218,-0.002
27.32,-0.343,0.161,-0.068
27.33,-0.424,0.114,-0.127
27.34,-0.295,-0.191,-0.159
27.35,-0.236,-0.048,-0.06
27.36,-0.157,0.068,0.05
27.37,-0.071,0.052,0.065
27.38,-0.048,0.152,0.03
27.39,-0.051,-0.043,-0.001
27.4,-0.158,-0.146,0.069
27.41,-0.344,-0.144,0.167
27.42,-0.354,-0.052,0.112
27.43,-0.445,0.023,-0.022
27.44,-0.367,0.134,-0.118
27.45,-0.265,0.087,-0.153
27.46,-0.273,0.113,-0.068
27.47,-0.177,-0.029,0.015
27.48,-0.108,-0.102,0.014
27.49,-0.091,-0.026,-0.015
27.5,-0.119,0.074,0.05
27.51,-0.176,0.033,0.134
27.52,-0.223,0.112,0.056
27.53,-0.347,0.014,0.008
27.54,-0.376,-0.11,-0.095
27.55,-0.394,0.009,-0.086
27.56,-0.389,-0.016,0.004
27.57,-0.231,0.146,-0.048
27.58,-0.223,0.177,-0.069
27.59,-0.175,0.101,-0.027
27.6,-0.115,0.12,-0.013
27.61,-0.084,-0.017,0.024
27.62,-0.135,-0.2,0.053
27.63,-0.205,-0.063,0.04
27.64,-0.226,-0.035,0.083
27.65,-0.321,0.07,0.107
27.66,-0.366,0.188,0.005
27.67,-0.338,-0.096,-0.125
27.68,-0.351,-0.139,-0.099
27.69,-0.255,0.021,0.005
27.7,-0.232,0.09,0.108
27.71,-0.302,0.301,0.067
27.72,-0.12,0.267,-0.164
27.73,0.002,-0.039,-0.199
27.74,-0.063,-0.262,-0.099
27.75,-0.201,-0.264,0.141
27.76,-0.38,-0.243,0.345
27.77,-0.29,0.134,0.236
27.78,-0.359,0.18,-0.002
27.79,-0.318,0.088,-0.166
27.8,-0.214,0.083,-0.206
27.81,-0.331,-0.132,-0.051
27.82,-0.285,-0.026,-0.034
27.83,-0.201,0.09,-0.045
27.84,-0.169,0.172,0.045
27.85,-0.023,0.324,-0.046
27.86,-0.163,0.143,0.057
27.87,-0.184,-0.228,0.08
27.88,-0.28,-0.177,0.028
27.89,-0.417,-0.244,0.106
27.9,-0.295,-0.139,0.021
27.91,-0.329,0.229,-0.044
27.92,-0.291,0.177,-0.058
27.93,-0.223,0.102,-0.067
27.94,-0.222,0.128,-0.025
27.95,-0.177,-0.131,-0.031
27.96,-0.175,-0.052,0.027
27.97,-0.191,0.104,0.049
27.98,-0.208,0.123,0.064
27.99,-0.218,0.114,-0.008
28.0,-0.199,-0.08,-0.051
28.01,-0.338,-0.27,0.037
28.02,-0.3,-0.132,0.039
28.03,-0.258,-0.064,0.036
28.04,-0.292,0.041,0.002
28.05,-0.16,0.334,-0.082
28.06,-0.193,0.192,-0.009
28.07,-0.216,0.037,-0.054
28.08,-0.197,-0.005,-0.05
28.09,-0.197,-0.148,0.046
28.1,-0.192,0.003,0.017
28.11,-0.253,0.054,0.076
28.12,-0.23,-0.007,0.052
28.13,-0.245,0.096,0.006
28.14,-0.343,-0.095,-0.025
28.15,-0.253,-0.138,-0.062
28.16,-0.322,0.091,-0.022
28.17,-0.287,0.135,0.018
28.18,-0.219,0.177,-0.049
28.19,-0.221,0.195,-0.037
28.2,-0.197,0.033,0.04
28.21,-0.174,-0.046,0.028
28.22,-0.166,-0.165,0.02
28.23,-0.202,-0.193,0.008
28.24,-0.264,0.022,0.066
28.25,-0.23,0.056,0.039
28.26,-0.282,0.081,0.001
28.27,-0.237,0.032,-0.12
28.28,-0.231,-0.068,-0.09
28.29,-0.321,-0.103,0.022
28.3,-0.282,0.113,0.079
28.31,-0.283,0.245,0.125
28.32,-0.255,0.299,-0.005
28.33,-0.122,0.17,-0.187
28.34,-0.133,-0.216,-0.15
28.35,-0.094,-0.354,-0.059
28.36,-0.248,-0.218,0.156
28.37,-0.288,-0.172,0.338
28.38,-0.174,0.232,0.085
28.39,-0.277,0.219,-0.082
28.4,-0.223,0.046,-0.154
28.41,-0.247,0.039,-0.154
28.42,-0.413,-0.038,-0.006
28.43,-0.296,-0.021,-0.011
28.44,-0.254,0.24,0.018
28.45,-0.164,0.134,0.0
28.46,-0.118,0.13,-0.013
28.47,-0.222,-0.086,0.069
28.48,-0.212,-0.344,0.119
28.49,-0.33,-0.243,0.092
28.5,-0.222,-0.149,-0.002
28.51,-0.228,0.047,-0.044
28.52,-0.238,0.368,-0.051
28.53,-0.216,0.295,-0.042
28.54,-0.307,0.073,-0.049
28.55,-0.274,0.062,-0.101
28.56,-0.3,-0.174,-0.011
28.57,-0.314,-0.055,0.021
28.58,-0.218,0.198,0.035
28.59,-0.19,0.0,0.055
28.6,-0.099,-0.003,-0.038
28.61,-0.137,-0.154,-0.007
28.62,-0.149,-0.303,0.096
28.63,-0.181,0.03,0.045
28.64,-0.368,0.063,0.067
28.65,-0.372,0.148,-0.019
28.66,-0.241,0.37,-0.161
28.67,-0.326,0.07,-0.053
28.68,-0.302,-0.073,-0.077
28.69,-0.23,-0.084,-0.06
28.7,-0.211,-0.124,0.045
28.71,-0.076,0.005,0.084
28.72,-0.089,0.1,0.11
28.73,-0.099,0.061,0.116
28.74,-0.217,-0.014,0.025
28.75,-0.37,-0.034,-0.033
28.76,-0.405,-0.155,-0.033
28.77,-0.394,0.107,-0.044
28.78,-0.379,0.156,-0.072
28.79,-0.294,0.135,-0.126
28.8,-0.239,0.197,-0.081
28.81,-0.183,0.089,-0.008
28.82,-0.045,-0.055,0.022
28.83,-0.041,-0.157,0.054
28.84,-0.122,-0.143,0.092
28.85,-0.144,-0.001,0.091
28.86,-0.295,0.124,0.096
28.87,-0.35,0.084,0.011
28.88,-0.322,-0.012,-0.136
28.89,-0.313,-0.092,-0.134
28.9,-0.311,-0.118,-0.04
28.91,-0.329,0.196,0.073
28.92,-0.301,0.272,0.048
28.93,-0.187,0.269,-0.075
28.94,-0.01,0.175,-0.19
28.95,-0.028,-0.2,-0.106
28.96,-0.105,-0.407,0.083
28.97,-0.266,-0.298,0.229
28.98,-0.334,-0.12,0.342
28.99,-0.242,0.193,0.114
29.0,-0.321,0.296,-0.086
29.01,-0.267,0.062,-0.195
29.02,-0.336,0.016,-0.18
29.03,-0.421,-0.074,-0.065
29.04,-0.202,-0.164,0.276
29.05,-0.258,0.123,0.243
29.06,-0.257,0.187,-0.007
29.07,-0.345,0.195,-0.168
29.08,-0.308,-0.044,-0.16
29.09,-0.474,-0.103,-0.087
29.1,-0.38,-0.019,-0.062
29.11,-0.236,0.081,-0.002
29.12,-0.146,0.201,-0.023
29.13,-0.032,0.195,0.02
29.14,-0.083,-0.028,0.082
29.15,-0.127,-0.144,0.098
29.16,-0.297,-0.26,0.11
29.17,-0.313,-0.215,0.018
29.18,-0.263,0.089,-0.014
29.19,-0.391,0.154,0.018
29.2,-0.279,0.237,-0.05
29.21,-0.315,0.149,-0.085
29.22,-0.326,-0.108,-0.032
29.23,-0.169,-0.044,-0.119
29.24,-0.2,-0.011,-0.009
29.25,-0.115,0.084,0.003
29.26,-0.052,0.241,-0.036
29.27,-0.135,0.047,0.03
29.28,-0.139,-0.146,0.037
29.29,-0.284,-0.184,0.152
29.3,-0.32,-0.168,0.16
29.31,-0.308,-0.063,-0.002
29.32,-0.452,0.143,-0.041
29.33,-0.312,0.133,-0.128
29.34,-0.279,0.234,-0.103
29.35,-0.226,0.007,-0.039
29.36,-0.097,-0.12,-0.036
29.37,-0.104,-0.056,-0.028
29.38,-0.107,0.002,0.024
29.39,-0.114,-0.006,0.142
29.4,-0.214,0.196,0.148
29.41,-0.308,0.007,0.048
29.42,-0.385,-0.089,-0.075
29.43,-0.353,-0.042,-0.127
29.44,-0.412,-0.024,-0.017
29.45,-0.36,0.15,-0.006
29.46,-0.184,0.114,-0.059
29.47,-0.154,0.141,-0.091
29.48,-0.135,0.137,-0.044
29.49,-0.095,0.013,0.03
29.5,-0.107,-0.092,0.049
29.51,-0.192,-0.061,0.056
29.52,-0.171,-0.001,0.085
29.53,-0.309,-0.007,0.063
29.54,-0.363,0.033,0.04
29.55,-0.288,-0.06,-0.053
29.56,-0.28,-0.106,-0.108
29.57,-0.336,-0.009,-0.023
29.58,-0.24,0.132,0.046
29.59,-0.266,0.312,0.021
29.6,-0.229,0.369,-0.083
29.61,-0.082,-0.001,-0.177
29.62,0.023,-0.12,-0.187
29.63,-0.158,-0.396,0.095
29.64,-0.322,-0.305,0.356
29.65,-0.352,-0.007,0.354
29.66,-0.288,0.082,0.086
29.67,-0.264,0.137,-0.168
29.68,-0.295,0.102,-0.196
29.69,-0.3,-0.026,-0.102
29.7,-0.333,-0.021,-0.061
29.71,-0.257,0.102,-0.074
29.72,-0.21,0.06,-0.05
29.73,-0.126,0.266,-0.037
29.74,-0.052,0.222,0.064
29.75,-0.181,-0.094,0.149
29.76,-0.275,-0.201,0.077
29.77,-0.299,-0.247,0.015
29.78,-0.272,-0.203,0.044
29.79,-0.315,0.115,-0.011
29.8,-0.32,0.104,0.009
29.81,-0.237,0.191,-0.064
29.82,-0.292,0.135,-0.07
29.83,-0.229,-0.008,-0.081
29.84,-0.181,0.007,-0.075
29.85,-0.265,0.098,0.015
29.86,-0.139,0.082,0.055
29.87,-0.122,0.206,0.032
29.88,-0.178,-0.107,0.039
29.89,-0.219,-0.298,0.051
29.9,-0.303,-0.22,0.103
29.91,-0.307,-0.174,0.114
29.92,-0.301,-0.006,0.017
29.93,-0.336,0.284,-0.071
29.94,-0.262,0.254,-0.115
29.95,-0.166,0.15,-0.128
29.96,-0.184,0.086,-0.11
29.97,-0.18,-0.148,-0.025
29.98,-0.109,0.036,0.046
29.99,-0.187,0.04,0.091
30.0,-0.26,-0.077,0.115
30.01,-0.225,0.052,0.052
30.02,-0.261,-0.143,0.033
30.03,-0.311,-0.162,-0.014
30.04,-0.341,0.009,-0.056
30.05,-0.353,0.066,-0.013
30.06,-0.255,0.199,-0.056
30.07,-0.151,0.291,-0.127
30.08,-0.157,0.187,-0.036
30.09,-0.26,0.14,0.013
30.1,-0.217,-0.065,0.024
30.11,-0.151,-0.203,0.016
30.12,-0.218,-0.12,0.069
30.13,-0.21,-0.143,0.082
30.14,-0.175,-0.032,0.065
30.15,-0.266,0.043,0.012
30.16,-0.208,-0.021,-0.048
30.17,-0.27,-0.026,-0.05
30.18,-0.344,0.082,-0.006
30.19,-0.334,0.206,0.052
30.2,-0.319,0.297,-0.016
30.21,-0.313,0.296,-0.141
30.22,-0.151,-0.075,-0.183
30.23,-0.103,-0.247,-0.087
30.24,-0.117,-0.326,0.074
30.25,-0.129,-0.322,0.299
30.26,-0.177,0.025,0.252
30.27,-0.202,0.214,0.06
30.28,-0.25,0.198,-0.099
30.29,-0.247,0.131,-0.176
30.3,-0.395,-0.067,-0.097
30.31,-0.431,-0.083,-0.039
30.32,-0.351,0.125,-0.043
30.33,-0.308,0.131,-0.001
30.34,-0.197,0.19,-0.034
30.35,-0.102,0.11,-0.027
30.36,-0.069,-0.123,0.095
30.37,-0.12,-0.25,0.063
30.38,-0.274,-0.194,0.098
30.39,-0.14,-0.276,0.026
30.4,-0.259,0.188,0.029
30.41,-0.334,0.195,0.033
30.42,-0.337,0.13,-0.018
30.43,-0.448,0.262,-0.059
30.44,-0.301,-0.074,-0.121
30.45,-0.324,0.01,-0.117
30.46,-0.268,0.048,-0.064
30.47,-0.102,-0.013,0.011
30.48,-0.023,0.07,0.003
30.49,-0.062,-0.093,0.043
30.5,-0.181,-0.244,0.154
30.51,-0.183,-0.052,0.161
30.52,-0.23,-0.055,0.108
30.53,-0.429,0.027,0.001
30.54,-0.362,0.236,-0.152
30.55,-0.354,0.182,-0.15
30.56,-0.352,0.091,-0.125
30.57,-0.243,0.046,-0.059
30.58,-0.206,-0.12,0.018
30.59,-0.128,-0.079,0.035
30.6,-0.06,0.037,0.071
30.61,-0.055,0.017,0.124
30.62,-0.153,0.074,0.097
30.63,-0.314,-0.03,0.043
30.64,-0.322,-0.141,-0.023
30.65,-0.379,0.016,-0.061
30.66,-0.385,0.07,-0.017
30.67,-0.338,0.128,-0.086
30.68,-0.314,0.221,-0.069
30.69,-0.272,0.102,-0.029
30.7,-0.147,0.077,-0.031
30.71,-0.091,-0.063,-0.009
30.72,-0.065,-0.181,0.027
30.73,-0.108,-0.026,0.069
30.74,-0.165,0.008,0.097
30.75,-0.274,0.053,0.131
30.76,-0.228,0.086,-0.022
30.77,-0.324,-0.105,-0.097
30.78,-0.416,-0.144,-0.066
30.79,-0.342,0.055,-0.027
30.8,-0.396,0.212,0.068
30.81,-0.297,0.303,-0.019
30.82,-0.117,0.293,-0.191
30.83,-0.01,-0.07,-0.148
30.84,0.031,-0.28,-0.101
30.85,-0.152,-0.256,0.149
30.86,-0.257,-0.283,0.409
30.87,-0.261,0.184,0.237
30.88,-0.28,0.216,-0.024
30.89,-0.282,0.051,-0.193
30.9,-0.352,0.023,-0.196
30.91,-0.431,-0.095,-0.063
30.92,-0.36,-0.121,-0.023
30.93,-0.211,0.061,-0.055
30.94,-0.161,0.296,-0.033
30.95,-0.081,0.209,0.047
30.96,-0.145,0.17,0.095
30.97,-0.131,-0.209,0.081
30.98,-0.223,-0.266,0.034
30.99,-0.34,-0.211,0.012
31.0,-0.231,-0.141,0.027
31.01,-0.315,0.22,-0.006
31.02,-0.329,0.288,-0.036
31.03,-0.304,0.104,-0.074
31.04,-0.232,0.082,-0.113
31.05,-0.271,-0.094,-0.06
31.06,-0.203,-0.046,-0.008
31.07,-0.125,0.17,0.012
31.08,-0.152,0.064,0.063
31.09,-0.151,0.08,0.028
31.1,-0.19,-0.045,0.061
31.11,-0.289,-0.266,0.129
31.12,-0.27,-0.203,0.035
31.13,-0.309,0.007,0.002
31.14,-0.368,-0.082,-0.04
31.15,-0.271,0.272,-0.071
31.16,-0.175,0.28,-0.084
31.17,-0.152,-0.055,-0.048
31.18,-0.248,0.069,-0.013
31.19,-0.198,-0.151,0.001
31.2,-0.167,0.022,0.049
31.21,-0.22,0.107,0.078
31.22,-0.229,0.032,0.103
31.23,-0.298,-0.008,0.016
31.24,-0.285,-0.121,-0.058
31.25,-0.242,-0.156,-0.075
31.26,-0.287,0.01,-0.005
31.27,-0.316,0.139,0.032
31.28,-0.199,0.14,-0.047
31.29,-0.22,0.273,-0.084
31.3,-0.231,0.153,-0.043
31.31,-0.233,-0.018,0.034
31.32,-0.168,0.028,0.021
31.33,-0.203,-0.262,0.072
31.34,-0.187,-0.036,0.044
31.35,-0.186,-0.029,0.045
31.36,-0.367,-0.042,0.074
31.37,-0.195,0.063,-0.062
31.38,-0.163,-0.003,-0.1
31.39,-0.307,-0.108,-0.03
31.4,-0.315,0.147,-0.015
31.41,-0.326,0.202,0.078
31.42,-0.222,0.248,-0.012
31.43,-0.18,0.175,-0.125
31.44,-0.15,-0.146,-0.094
31.45,-0.125,-0.333,-0.017
31.46,-0.236,-0.247,0.166
31.47,-0.3,-0.151,0.295
31.48,-0.191,0.068,0.121
31.49,-0.259,0.259,-0.073
31.5,-0.209,0.052,-0.169
31.51,-0.213,0.074,-0.161
31.52,-0.393,-0.019,-0.083
31.53,-0.33,-0.072,-0.031
31.54,-0.246,0.194,0.022
31.55,-0.235,0.231,0.021
31.56,-0.115,0.156,0.002
31.57,-0.199,0.02,0.065
31.58,-0.205,-0.254,0.075
31.59,-0.25,-0.315,0.051
31.6,-0.252,-0.222,0.056
31.61,-0.249,-0.079,0.016
31.62,-0.296,0.269,-0.0
31.63,-0.285,0.307,-0.023
31.64,-0.276,0.126,-0.075
31.65,-0.261,0.052,-0.143
31.66,-0.193,0.023,-0.065
31.67,-0.231,-0.136,0.037
31.68,-0.254,0.213,0.037
31.69,-0.203,0.001,0.052
31.7,-0.142,-0.089,-0.008
31.71,-0.157,-0.071,0.029
31.72,-0.289,-0.301,0.147
31.73,-0.284,-0.07,0.137
31.74,-0.255,0.042,-0.028
31.75,-0.313,0.092,-0.044
31.76,-0.196,0.276,-0.154
31.77,-0.244,0.149,-0.114
31.78,-0.253,-0.007,-0.044
31.79,-0.202,0.067,-0.079
31.8,-0.237,-0.06,0.005
31.81,-0.214,-0.036,0.022
31.82,-0.1,0.046,0.075
31.83,-0.167,0.049,0.131
31.84,-0.224,-0.08,0.045
31.85,-0.332,-0.088,0.004
31.86,-0.271,-0.088,-0.056
31.87,-0.34,0.116,-0.024
31.88,-0.335,0.153,-0.034
31.89,-0.273,0.167,-0.078
31.9,-0.268,0.237,-0.074
31.91,-0.242,0.035,-0.004
31.92,-0.174,-0.048,-0.005
31.93,-0.09,-0.142,0.007
31.94,-0.134,-0.159,0.063
31.95,-0.159,-0.05,0.112
31.96,-0.233,0.085,0.134
31.97,-0.325,0.084,0.077
31.98,-0.269,0.05,-0.101
31.99,-0.305,-0.052,-0.146
32.0,-0.379,-0.096,-0.029
32.01,-0.3,0.124,-0.004
32.02,-0.346,0.257,0.015
32.03,-0.256,0.163,-0.058
32.04,-0.041,0.194,-0.189
32.05,-0.021,-0.143,-0.098
32.06,-0.037,-0.399,0.059
32.07,-0.187,-0.122,0.245
32.08,-0.317,-0.131,0.314
32.09,-0.21,0.146,0.114
32.1,-0.303,0.261,-0.083
32.11,-0.318,-0.076,-0.188
32.12,-0.409,-0.004,-0.134
32.13,-0.409,-0.004,-0.083
32.14,-0.301,0.032,-0.034
32.15,-0.262,0.235,0.048
32.16,-0.012,0.186,-0.024
32.17,-0.068,0.101,0.05
32.18,-0.13,-0.146,0.101
32.19,-0.126,-0.289,0.066
32.2,-0.295,-0.25,0.081
32.21,-0.29,-0.019,0.03
32.22,-0.355,0.106,0.039
32.23,-0.357,0.359,-0.065
32.24,-0.373,0.13,-0.132
32.25,-0.407,-0.05,-0.074
32.26,-0.219,-0.025,-0.119
32.27,-0.187,-0.117,0.002
32.28,-0.161,0.033,0.079
32.29,-0.057,0.22,0.072
32.3,-0.095,0.052,0.088
32.31,-0.067,-0.042,0.007
32.32,-0.186,-0.11,0.041
32.33,-0.344,-0.226,0.111
32.34,-0.28,-0.053,-0.026
32.35,-0.453,0.073,-0.051
32.36,-0.391,0.113,-0.063
32.37,-0.271,0.234,-0.117
32.38,-0.25,0.09,-0.05
32.39,-0.12,-0.054,-0.029
32.4,-0.125,-0.03,0.018
32.41,-0.099,-0.029,0.074
32.42,-0.079,0.052,0.049
32.43,-0.195,0.068,0.127
32.44,-0.195,0.087,0.094
32.45,-0.361,-0.116,0.016
32.46,-0.486,-0.11,-0.062
32.47,-0.368,-0.156,-0.079
32.48,-0.345,0.143,-0.033
32.49,-0.264,0.12,-0.019
32.5,-0.196,0.208,-0.063
32.51,-0.161,0.225,-0.059
32.52,-0.115,0.043,-0.016
32.53,-0.1,-0.074,0.006
32.54,-0.143,-0.156,0.046
32.55,-0.234,-0.111,0.163
32.56,-0.268,0.047,0.113
32.57,-0.348,0.064,0.016
32.58,-0.292,-0.02,-0.09
32.59,-0.237,-0.059,-0.151
32.6,-0.255,-0.045,-0.044
32.61,-0.278,-0.065,0.044
32.62,-0.278,0.284,0.027
32.63,-0.213,0.334,-0.001
32.64,-0.154,0.18,-0.104
32.65,-0.114,0.044,-0.141
32.66,-0.155,-0.327,0.009
32.67,-0.241,-0.334,0.166
32.68,-0.309,-0.125,0.28
32.69,-0.233,-0.041,0.182
32.7,-0.247,0.214,-0.038
32.71,-0.261,0.147,-0.158
32.72,-0.179,-0.021,-0.133
32.73,-0.366,-0.068,-0.116
32.74,-0.319,0.062,-0.057
32.75,-0.245,0.045,-0.018
32.76,-0.222,0.299,-0.011
32.77,-0.168,0.195,0.006
32.78,-0.148,0.035,0.046
32.79,-0.185,-0.125,0.066
32.8,-0.322,-0.414,0.122
32.81,-0.257,-0.201,0.113
32.82,-0.262,-0.09,0.02
32.83,-0.318,0.089,0.03
32.84,-0.191,0.336,-0.126
32.85,-0.287,0.228,-0.099
32.86,-0.313,0.014,-0.106
32.87,-0.185,0.021,-0.136
32.88,-0.252,0.003,0.023
32.89,-0.183,0.091,0.039
32.9,-0.222,0.188,0.105
32.91,-0.166,0.003,0.022
32.92,-0.119,-0.142,-0.01
32.93,-0.28,-0.281,0.096
32.94,-0.253,-0.293,0.119
32.95,-0.293,-0.118,0.066
32.96,-0.361,0.145,-0.012
32.97,-0.23,0.197,-0.065
32.98,-0.209,0.331,-0.139
32.99,-0.281,0.165,-0.08
33.0,-0.207,-0.137,-0.059
33.01,-0.176,0.018,-0.042
33.02,-0.215,-0.099,0.015
33.03,-0.198,0.007,0.117
33.04,-0.17,0.116,0.074
33.05,-0.221,-0.047,0.093
33.06,-0.262,-0.099,-0.013
33.07,-0.32,-0.115,-0.029
33.08,-0.35,0.009,0.016
33.09,-0.257,0.169,-0.057
33.1,-0.274,0.221,-0.079
33.11,-0.273,0.161,-0.064
33.12,-0.224,0.155,-0.042
33.13,-0.178,-0.009,-0.013
33.14,-0.152,-0.156,-0.005
33.15,-0.218,-0.077,0.021
33.16,-0.136,-0.153,0.123
33.17,-0.19,0.059,0.106
33.18,-0.297,0.127,0.067
33.19,-0.184,-0.031,-0.054
33.2,-0.235,-0.124,-0.135
33.21,-0.376,0.009,-0.01
33.22,-0.308,-0.016,0.089
33.23,-0.365,0.312,0.039
33.24,-0.31,0.352,-0.07
33.25,-0.183,0.107,-0.181
33.26,-0.126,-0.044,-0.162
33.27,-0.132,-0.384,-0.008
33.28,-0.1,-0.39,0.155
33.29,-0.181,-0.083,0.251
33.3,-0.216,0.093,0.208
33.31,-0.24,0.205,0.027
33.32,-0.236,0.22,-0.133
33.33,-0.34,-0.055,-0.147
33.34,-0.414,-0.061,-0.128
33.35,-0.375,0.007,-0.071
33.36,-0.327,0.049,0.019
33.37,-0.165,0.281,-0.011
33.38,-0.132,0.234,-0.017
33.39,-0.057,-0.1,0.045
33.4,-0.054,-0.118,0.049
33.41,-0.259,-0.313,0.157
33.42,-0.25,-0.184,0.08
33.43,-0.293,0.074,0.031
33.44,-0.335,0.213,0.004
33.45,-0.305,0.228,-0.066
33.46,-0.364,0.15,-0.064
33.47,-0.234,-0.146,-0.123
33.48,-0.242,-0.047,-0.068
33.49,-0.315,-0.037,0.015
33.5,-0.164,0.033,0.039
33.51,-0.116,0.208,0.043
33.52,-0.033,0.044,-0.011
33.53,-0.174,-0.129,0.056
33.54,-0.27,-0.225,0.101
33.55,-0.238,-0.107,0.102
33.56,-0.305,-0.012,0.045
33.57,-0.416,0.168,-0.011
33.58,-0.29,0.15,-0.105
33.59,-0.295,0.165,-0.149
33.6,-0.292,0.04,-0.096
33.61,-0.211,-0.156,-0.012
33.62,-0.145,-0.072,-0.038
33.63,-0.11,0.033,0.048
33.64,-0.048,0.06,0.107
33.65,-0.115,0.225,0.114
33.66,-0.298,-0.027,0.078
33.67,-0.312,-0.069,-0.039
33.68,-0.336,-0.068,-0.073
33.69,-0.403,-0.015,-0.056
33.7,-0.398,0.093,-0.047
33.71,-0.35,0.151,-0.042
33.72,-0.203,0.1,-0.017
33.73,-0.138,0.115,-0.011
33.74,-0.086,-0.087,-0.007
33.75,-0.083,-0.131,0.018
33.76,-0.15,-0.072,0.087
33.77,-0.107,0.01,0.085
33.78,-0.308,0.104,0.084
33.79,-0.393,0.125,-0.018
33.8,-0.288,-0.027,-0.095
33.81,-0.376,-0.156,-0.099
33.82,-0.354,-0.05,-0.011
33.83,-0.261,0.0,0.083
33.84,-0.201,0.279,0.038
33.85,-0.176,0.358,-0.087
33.86,-0.098,0.074,-0.166
33.87,-0.006,-0.08,-0.167
33.88,-0.114,-0.351,0.067
33.89,-0.291,-0.315,0.292
33.9,-0.276,0.023,0.306
33.91,-0.375,0.109,0.141
33.92,-0.322,0.212,-0.152
33.93,-0.247,0.113,-0.231
33.94,-0.311,-0.04,-0.149
33.95,-0.28,-0.065,-0.055
33.96,-0.32,0.056,-0.047
33.97,-0.199,0.082,0.025
33.98,-0.056,0.239,-0.024
33.99,-0.124,0.229,0.095
34.0,-0.163,-0.183,0.136
34.01,-0.24,-0.171,0.047
34.02,-0.368,-0.275,0.037
34.03,-0.301,-0.169,-0.015
34.04,-0.322,0.117,0.003
34.05,-0.317,0.257,-0.038
34.06,-0.209,0.191,-0.076
34.07,-0.286,0.115,-0.043
34.08,-0.247,-0.175,-0.037
34.09,-0.141,-0.094,-0.038
34.1,-0.248,0.057,0.071
34.11,-0.196,0.079,0.042
34.12,-0.129,0.275,-0.026
34.13,-0.158,0.094,-0.057
34.14,-0.197,-0.208,-0.015
34.15,-0.32,-0.191,0.099
34.16,-0.303,-0.251,0.106
34.17,-0.333,-0.044,0.044
34.18,-0.267,0.192,-0.031
34.19,-0.218,0.196,-0.064
34.2,-0.25,0.192,-0.067
34.21,-0.23,0.057,-0.065
34.22,-0.176,-0.162,-0.046
34.23,-0.166,-0.058,-0.021
34.24,-0.109,0.037,0.068
34.25,-0.16,0.069,0.134
34.26,-0.284,0.128,0.065
34.27,-0.345,-0.088,0.001
34.28,-0.298,-0.107,-0.072
34.29,-0.331,-0.075,-0.068
34.3,-0.38,0.066,0.017
34.31,-0.223,0.185,-0.044
34.32,-0.161,0.26,-0.104
34.33,-0.173,0.157,-0.055
34.34,-0.163,0.072,0.024
34.35,-0.172,-0.099,0.073
34.36,-0.168,-0.25,0.077
34.37,-0.245,-0.062,0.011
34.38,-0.28,0.004,0.053
34.39,-0.297,0.062,0.048
34.4,-0.27,0.159,-0.013
34.41,-0.17,-0.068,-0.099
34.42,-0.241,-0.141,-0.058
34.43,-0.241,0.053,0.003
34.44,-0.231,0.149,0.064
34.45,-0.38,0.315,0.073
34.46,-0.217,0.334,-0.097
34.47,-0.146,0.022,-0.156
34.48,-0.175,-0.266,-0.125
34.49,-0.188,-0.445,0.073
34.5,-0.291,-0.362,0.294
34.51,-0.151,0.001,0.276
34.52,-0.203,0.227,0.081
34.53,-0.227,0.196,-0.118
34.54,-0.177,0.214,-0.221
34.55,-0.373,-0.105,-0.071
34.56,-0.363,-0.088,-0.055
34.57,-0.369,0.045,-0.03
34.58,-0.319,0.05,0.031
34.59,-0.09,0.236,-0.055
34.6,-0.171,0.186,0.068
34.61,-0.145,-0.158,0.083
34.62,-0.134,-0.252,0.046
34.63,-0.238,-0.212,0.065
34.64,-0.176,-0.116,-0.025
34.65,-0.294,0.156,0.028
34.66,-0.28,0.287,-0.03
34.67,-0.324,0.238,-0.061
34.68,-0.402,0.113,-0.035
34.69,-0.294,-0.073,-0.113
34.7,-0.293,-0.101,-0.05
34.71,-0.277,-0.018,0.02
34.72,-0.12,0.04,0.086
34.73,-0.047,0.191,-0.0
34.74,-0.034,-0.027,-0.015
34.75,-0.198,-0.382,0.092
34.76,-0.225,-0.101,0.117
34.77,-0.32,-0.132,0.145
34.78,-0.431,0.026,0.059
34.79,-0.367,0.344,-0.134
34.8,-0.304,0.242,-0.162
34.81,-0.343,0.155,-0.096
34.82,-0.206,-0.042,-0.08
34.83,-0.163,-0.187,-0.012
34.84,-0.066,-0.207,0.015
34.85,-0.103,0.048,0.104
34.86,-0.148,0.045,0.154
34.87,-0.178,0.154,0.094
34.88,-0.282,0.031,0.006
34.89,-0.361,-0.115,-0.091
34.9,-0.403,-0.016,-0.089
34.91,-0.364,0.094,-0.041
34.92,-0.25,0.127,-0.043
34.93,-0.316,0.203,-0.086
34.94,-0.197,0.085,-0.052
34.95,-0.126,0.076,-0.002
34.96,-0.146,-0.083,0.092
34.97,-0.129,-0.204,0.076
34.98,-0.092,-0.055,0.05
34.99,-0.177,-0.014,0.057
35.0,-0.275,0.038,0.036
35.01,-0.277,0.111,-0.004
35.02,-0.286,0.015,-0.04
35.03,-0.398,-0.129,-0.025
35.04,-0.354,0.062,-0.052
35.05,-0.343,0.069,0.021
35.06,-0.386,0.288,0.015
35.07,-0.17,0.282,-0.11
35.08,-0.065,-0.063,-0.145
35.09,0.009,-0.259,-0.117
35.1,-0.079,-0.377,0.058
35.11,-0.229,-0.238,0.367
35.12,-0.217,0.134,0.288
35.13,-0.289,0.246,0.058
35.14,-0.296,0.19,-0.177
35.15,-0.301,0.118,-0.256
35.16,-0.461,-0.085,-0.116
35.17,-0.415,-0.102,-0.063
35.18,-0.283,0.012,-0.002
35.19,-0.19,0.123,0.027
35.2,-0.03,0.266,-0.015
35.21,-0.046,0.162,0.054
35.22,-0.118,-0.13,0.102
35.23,-0.216,-0.226,0.066
35.24,-0.3,-0.236,0.099
35.25,-0.285,-0.129,0.02
35.26,-0.344,0.153,-0.023
35.27,-0.359,0.191,-0.032
35.28,-0.327,0.094,-0.075
35.29,-0.332,0.128,-0.085
35.3,-0.193,-0.149,-0.043
35.31,-0.242,-0.011,-0.026
35.32,-0.186,0.095,0.03
35.33,-0.105,0.07,0.076
35.34,-0.076,0.169,-0.041
35.35,-0.232,-0.189,0.058
35.36,-0.266,-0.201,0.147
35.37,-0.254,-0.059,0.094
35.38,-0.415,-0.103,0.028
35.39,-0.391,0.074,-0.097
35.4,-0.232,0.238,-0.149
35.41,-0.253,0.127,-0.05
35.42,-0.228,0.06,-0.041
35.43,-0.147,-0.038,-0.06
35.44,-0.116,-0.156,0.007
35.45,-0.137,0.034,0.055
35.46,-0.156,0.142,0.121
35.47,-0.202,0.074,0.121
35.48,-0.24,0.051,0.004
35.49,-0.357,-0.116,-0.093
35.5,-0.442,-0.145,-0.077
35.51,-0.358,-0.007,-0.022
35.52,-0.268,0.185,-0.013
35.53,-0.216,0.145,-0.065
35.54,-0.198,0.2,-0.002
35.55,-0.165,0.121,0.015
35.56,-0.098,-0.073,-0.031
35.57,-0.187,-0.148,0.037
35.58,-0.192,-0.175,0.059
35.59,-0.159,0.041,0.031
35.6,-0.357,0.073,0.073
35.61,-0.329,0.044,0.012
35.62,-0.229,0.043,-0.124
35.63,-0.268,-0.158,-0.069
35.64,-0.283,-0.085,-0.017
35.65,-0.231,0.258,0.049
35.66,-0.324,0.288,0.083
35.67,-0.201,0.335,-0.105
35.68,-0.072,0.1,-0.206
35.69,-0.041,-0.309,-0.11
35.7,-0.184,-0.365,0.068
35.71,-0.37,-0.243,0.318
35.72,-0.294,-0.066,0.3
35.73,-0.282,0.213,0.013
35.74,-0.262,0.172,-0.166
35.75,-0.16,0.064,-0.193
35.76,-0.306,0.01,-0.064
35.77,-0.309,-0.048,0.024
35.78,-0.22,-0.026,0.0
35.79,-0.241,0.152,-0.011
35.8,-0.134,0.199,0.027
35.81,-0.182,0.218,0.028
35.82,-0.254,-0.062,0.018
35.83,-0.349,-0.352,0.023
35.84,-0.325,-0.169,-0.008
35.85,-0.244,-0.162,0.014
35.86,-0.19,0.019,0.037
35.87,-0.105,0.381,-0.027
35.88,-0.212,0.235,0.014
35.89,-0.271,0.068,-0.019
35.9,-0.214,0.02,-0.123
35.91,-0.333,-0.193,-0.041
35.92,-0.278,0.03,-0.023
35.93,-0.279,0.158,0.043
35.94,-0.252,0.046,0.02
35.95,-0.135,0.067,-0.048
35.96,-0.177,-0.254,0.06
35.97,-0.125,-0.306,0.094
35.98,-0.201,-0.028,0.101
35.99,-0.31,0.066,0.077
36.0,-0.266,0.245,-0.07
36.01,-0.267,0.322,-0.096
36.02,-0.292,0.13,-0.063
36.03,-0.283,-0.033,-0.056
36.04,-0.292,-0.191,-0.011
36.05,-0.228,-0.25,-0.001
36.06,-0.172,0.018,0.097
36.07,-0.169,0.065,0.116
36.08,-0.194,0.019,0.099
36.09,-0.169,0.104,-0.052
36.1,-0.227,-0.017,-0.095
36.11,-0.366,-0.025,-0.035
36.12,-0.333,0.155,-0.041
36.13,-0.314,0.139,-0.026
36.14,-0.272,0.088,-0.082
36.15,-0.223,0.114,-0.053
36.16,-0.246,-0.022,0.038
36.17,-0.212,-0.089,0.086
36.18,-0.18,-0.073,0.049
36.19,-0.059,-0.163,0.035
36.2,-0.127,-0.002,-0.0
36.21,-0.256,0.095,0.028
36.22,-0.243,0.039,0.013
36.23,-0.267,0.108,-0.057
36.24,-0.324,-0.027,-0.069
36.25,-0.319,0.022,-0.023
36.26,-0.384,0.098,0.026
36.27,-0.354,0.119,0.051
36.28,-0.143,0.194,-0.049
36.29,-0.094,0.099,-0.106
36.3,-0.089,-0.284,-0.044
36.31,-0.103,-0.311,0.013
36.32,-0.187,-0.168,0.208
36.33,-0.202,-0.057,0.219
36.34,-0.263,0.272,0.041
36.35,-0.367,0.234,-0.089
36.36,-0.272,0.127,-0.164
36.37,-0.389,0.05,-0.103
36.38,-0.363,-0.101,-0.032
36.39,-0.292,-0.132,-0.025
36.4,-0.217,0.099,0.009
36.41,-0.148,0.134,0.069
36.42,-0.1,0.14,0.06
36.43,-0.124,-0.004,0.025
36.44,-0.181,-0.227,0.022
36.45,-0.199,-0.214,-0.009
36.46,-0.267,-0.069,0.031
36.47,-0.365,0.018,0.091
36.48,-0.363,0.328,0.021
36.49,-0.389,0.215,-0.022
36.5,-0.313,0.122,-0.175
36.51,-0.233,-0.013,-0.152
36.52,-0.251,-0.208,-0.011
36.53,-0.138,-0.079,0.051
36.54,-0.132,0.095,0.106
36.55,-0.042,0.018,0.053
36.56,-0.041,0.061,-0.016
36.57,-0.26,-0.065,0.06
36.58,-0.323,-0.187,0.123
36.59,-0.383,0.046,0.04
36.6,-0.432,0.019,-0.036
36.61,-0.354,0.12,-0.189
36.62,-0.302,0.204,-0.155
36.63,-0.19,0.049,-0.061
36.64,-0.114,-0.056,0.031
36.65,-0.098,-0.087,0.061
36.66,-0.057,-0.13,0.032
36.67,-0.155,0.021,0.092
36.68,-0.144,0.212,0.116
36.69,-0.241,0.126,0.092
36.7,-0.358,0.039,-0.05
36.71,-0.397,-0.103,-0.14
36.72,-0.446,-0.144,-0.112
36.73,-0.373,0.115,-0.074
36.74,-0.292,0.089,-0.036
36.75,-0.2,0.177,0.016
36.76,-0.163,0.194,0.001
36.77,-0.115,0.05,0.064
36.78,-0.043,-0.104,0.07
36.79,-0.095,-0.173,0.076
36.8,-0.169,-0.136,0.064
36.81,-0.222,-0.007,0.013
36.82,-0.404,0.124,0.026
36.83,-0.39,0.1,-0.049
36.84,-0.33,0.024,-0.155
36.85,-0.397,-0.011,-0.072
36.86,-0.265,-0.081,-0.018
36.87,-0.19,0.162,0.047
36.88,-0.242,0.219,0.059
36.89,-0.036,0.129,-0.057
36.9,0.005,0.053,-0.093
36.91,-0.063,-0.302,0.005
36.92,-0.167,-0.24,0.136
36.93,-0.413,-0.094,0.266
36.94,-0.311,0.007,0.143
36.95,-0.356,0.188,-0.11
36.96,-0.367,0.133,-0.183
36.97,-0.256,-0.008,-0.198
36.98,-0.279,-0.027,-0.072
36.99,-0.234,0.001,-0.015
37.0,-0.187,0.037,0.052
37.01,-0.164,0.176,0.097
37.02,-0.075,0.246,0.047
37.03,-0.158,0.038,0.074
37.04,-0.2,-0.077,0.049
37.05,-0.351,-0.337,0.052
37.06,-0.388,-0.272,-0.01
37.07,-0.333,0.0,-0.016
37.08,-0.306,0.052,0.005
37.09,-0.193,0.367,-0.067
37.1,-0.274,0.236,-0.055
37.11,-0.203,0.035,-0.073
37.12,-0.151,-0.017,-0.082
37.13,-0.23,-0.181,0.013
37.14,-0.185,-0.007,0.075
37.15,-0.228,0.196,0.115
37.16,-0.225,0.043,0.077
37.17,-0.195,-0.037,-0.055
37.18,-0.288,-0.193,0.024
37.19,-0.247,-0.247,0.045
37.2,-0.29,-0.002,-0.01
37.21,-0.299,0.096,-0.043
37.22,-0.21,0.167,-0.104
37.23,-0.198,0.327,-0.068
37.24,-0.19,0.118,-0.028
37.25,-0.229,-0.106,0.013
37.26,-0.184,-0.062,-0.004
37.27,-0.213,-0.141,0.084
37.28,-0.233,-0.015,0.093
37.29,-0.214,0.115,0.071
37.3,-0.29,0.04,0.013
37.31,-0.234,-0.025,-0.061
37.32,-0.309,-0.055,-0.068
37.33,-0.32,-0.008,-0.023
37.34,-0.252,0.14,-0.052
37.35,-0.257,0.123,-0.031
37.36,-0.269,0.145,-0.033
37.37,-0.236,0.148,-0.014
37.38,-0.183,-0.06,0.052
37.39,-0.18,-0.131,0.019
37.4,-0.207,-0.102,0.04
37.41,-0.148,-0.122,0.065
37.42,-0.18,0.039,0.054
37.43,-0.263,0.119,0.003
37.44,-0.222,-0.016,-0.078
37.45,-0.248,0.015,-0.108
37.46,-0.338,0.061,-0.011
37.47,-0.328,0.011,0.035
37.48,-0.326,0.187,0.017
37.49,-0.249,0.261,-0.044
37.5,-0.091,0.025,-0.1
37.51,-0.183,-0.068,-0.066
37.52,-0.115,-0.331,0.05
37.53,-0.181,-0.218,0.184
37.54,-0.238,-0.09,0.223
37.55,-0.221,0.074,0.1
37.56,-0.285,0.191,-0.088
37.57,-0.298,0.207,-0.149
37.58,-0.304,-0.016,-0.123
37.59,-0.353,0.005,-0.106
37.6,-0.262,0.093,-0.042
37.61,-0.227,0.052,0.056
37.62,-0.234,0.191,0.009
37.63,-0.17,0.027,0.023
37.64,-0.147,-0.133,0.034
37.65,-0.153,-0.156,0.037
37.66,-0.281,-0.213,0.1
37.67,-0.236,-0.101,0.031
37.68,-0.241,0.139,0.003
37.69,-0.272,0.192,0.039
37.7,-0.285,0.25,-0.059
37.71,-0.342,0.141,-0.075
37.72,-0.246,-0.056,-0.124
37.73,-0.243,-0.009,-0.123
37.74,-0.299,-0.023,0.039
37.75,-0.198,0.002,0.085
37.76,-0.113,0.117,0.077
37.77,-0.09,-0.108,0.02
37.78,-0.118,-0.141,-0.003
37.79,-0.215,-0.105,0.105
37.8,-0.222,-0.03,0.105
37.81,-0.397,0.135,0.031
37.82,-0.397,0.1,-0.087
37.83,-0.25,0.142,-0.139
37.84,-0.278,0.094,-0.1
37.85,-0.327,-0.069,0.01
37.86,-0.247,-0.16,0.004
37.87,-0.125,-0.023,-0.008
37.88,-0.102,0.006,0.055
37.89,-0.09,0.07,0.122
37.9,-0.113,0.161,0.063
37.91,-0.216,0.028,-0.002
37.92,-0.358,-0.011,-0.053
37.93,-0.433,-0.035,-0.035
37.94,-0.406,0.009,-0.008
37.95,-0.288,0.114,-0.076
37.96,-0.33,0.111,-0.077
37.97,-0.257,0.065,-0.03
37.98,-0.119,0.124,-0.002
37.99,-0.068,-0.044,0.012
38.0,-0.041,-0.175,0.043
38.01,-0.073,-0.011,0.052
38.02,-0.193,-0.029,0.119
38.03,-0.316,0.088,0.082
38.04,-0.376,0.155,-0.002
38.05,-0.32,-0.072,-0.101
38.06,-0.354,-0.082,-0.092
38.07,-0.405,-0.014,-0.043
38.08,-0.28,0.042,0.059
38.09,-0.218,0.267,0.022
38.1,-0.132,0.291,-0.062
38.11,-0.015,-0.051,-0.128
38.12,-0.061,-0.141,-0.057
38.13,-0.116,-0.327,0.069
38.14,-0.261,-0.267,0.195
38.15,-0.361,0.121,0.221
38.16,-0.326,0.177,0.094
38.17,-0.318,0.241,-0.084
38.18,-0.283,0.077,-0.261
38.19,-0.351,-0.162,-0.094
38.2,-0.305,-0.073,-0.041
38.21,-0.208,0.091,-0.001
38.22,-0.19,0.03,0.056
38.23,-0.074,0.245,-0.023
38.24,-0.079,0.147,0.019
38.25,-0.157,-0.161,0.059
38.26,-0.245,-0.168,0.044
38.27,-0.379,-0.23,0.099
38.28,-0.342,0.007,0.031
38.29,-0.308,0.133,-0.009
38.3,-0.302,0.288,-0.052
38.31,-0.267,0.095,-0.104
38.32,-0.271,0.054,-0.061
38.33,-0.129,-0.196,-0.053
38.34,-0.211,-0.036,-0.006
38.35,-0.193,0.037,0.065
38.36,-0.164,0.052,0.054
38.37,-0.197,0.239,0.033
38.38,-0.14,-0.061,0.03
38.39,-0.316,-0.114,0.057
38.4,-0.36,-0.117,0.034
38.41,-0.274,-0.213,-0.028
38.42,-0.34,0.075,-0.021
38.43,-0.259,0.23,-0.063
38.44,-0.19,0.048,-0.035
38.45,-0.143,0.148,-0.075
38.46,-0.136,0.019,-0.038
38.47,-0.259,-0.146,0.065
38.48,-0.168,-0.047,0.001
38.49,-0.193,0.105,0.071
38.5,-0.208,0.06,0.078
38.51,-0.353,0.028,0.003
38.52,-0.395,-0.093,-0.024
38.53,-0.308,-0.054,-0.095
38.54,-0.313,-0.018,-0.013
38.55,-0.245,0.064,-0.026
38.56,-0.162,0.165,-0.076
38.57,-0.222,0.161,-0.001
38.58,-0.188,0.143,0.034
38.59,-0.108,-0.064,0.015
38.6,-0.18,-0.125,0.032
38.61,-0.283,-0.172,0.079
38.62,-0.228,-0.043,0.071
38.63,-0.33,-0.0,0.089
38.64,-0.422,0.097,-0.019
38.65,-0.208,0.083,-0.142
38.66,-0.21,-0.152,-0.104
38.67,-0.252,0.065,-0.038
38.68,-0.133,0.132,0.046
38.69,-0.275,0.122,0.082
38.7,-0.204,0.268,-0.034
38.71,-0.103,0.122,-0.115
38.72,-0.161,-0.179,-0.085
38.73,-0.208,-0.262,0.047
38.74,-0.392,-0.264,0.203
38.75,-0.344,-0.088,0.241
38.76,-0.204,0.173,0.029
38.77,-0.228,0.143,-0.052
38.78,-0.196,0.102,-0.187
38.79,-0.26,0.059,-0.132
38.8,-0.208,-0.088,-0.098
38.81,-0.223,0.049,-0.063
38.82,-0.367,0.159,0.087
38.83,-0.135,0.173,0.043
38.84,-0.204,0.251,0.058
38.85,-0.319,-0.189,0.104
38.86,-0.217,-0.266,0.027
38.87,-0.304,-0.243,0.056
38.88,-0.262,-0.238,0.056
38.89,-0.222,0.094,-0.006
38.9,-0.27,0.303,-0.068
38.91,-0.235,0.212,-0.065
38.92,-0.313,0.184,-0.075
38.93,-0.239,0.025,-0.085
38.94,-0.212,-0.177,-0.055
38.95,-0.259,0.021,0.032
38.96,-0.175,0.143,0.076
38.97,-0.196,0.035,0.076
38.98,-0.116,0.103,-0.045
38.99,-0.139,-0.223,-0.029
39.0,-0.31,-0.279,0.077
39.01,-0.241,-0.036,0.043
39.02,-0.34,-0.054,0.086
39.03,-0.358,0.198,0.011
39.04,-0.236,0.287,-0.113
39.05,-0.253,0.085,-0.059
39.06,-0.17,0.025,-0.101
39.07,-0.17,-0.01,-0.075
39.08,-0.163,-0.242,-0.011
39.09,-0.192,0.084,0.068
39.1,-0.184,0.095,0.178
39.11,-0.185,0.069,0.076
39.12,-0.254,0.038,0.006
39.13,-0.321,-0.182,-0.037
39.14,-0.373,-0.017,-0.059
39.15,-0.416,0.035,0.015
39.16,-0.271,0.135,-0.046
39.17,-0.17,0.265,-0.14
39.18,-0.176,0.152,-0.068
39.19,-0.233,-0.017,0.017
39.2,-0.172,-0.013,0.02
39.21,-0.149,-0.239,0.033
39.22,-0.142,-0.184,0.072
39.23,-0.14,0.088,0.073
39.24,-0.287,0.105,0.12
39.25,-0.353,0.152,0.004
39.26,-0.227,0.077,-0.163
39.27,-0.26,-0.182,-0.102
39.28,-0.329,-0.056,-0.004
39.29,-0.258,0.146,0.056
39.3,-0.315,0.183,0.048
39.31,-0.261,0.328,-0.097
39.32,-0.145,0.061,-0.156
39.33,-0.06,-0.193,-0.068
39.34,-0.085,-0.352,0.063
39.35,-0.23,-0.29,0.251
39.36,-0.209,-0.062,0.251
39.37,-0.253,0.208,0.095
39.38,-0.303,0.208,-0.028
39.39,-0.268,0.072,-0.164
39.4,-0.387,-0.021,-0.152
39.41,-0.342,-0.117,-0.119
39.42,-0.349,0.044,-0.059
39.43,-0.342,0.206,0.043
39.44,-0.141,0.066,0.03
39.45,-0.01,0.17,-0.01
39.46,-0.067,-0.069,0.088
39.47,-0.169,-0.281,0.103
39.48,-0.225,-0.14,0.09
39.49,-0.239,-0.08,0.035
39.5,-0.362,0.166,0.005
39.51,-0.344,0.281,-0.08
39.52,-0.371,0.129,-0.086
39.53,-0.355,0.013,-0.1
39.54,-0.279,-0.007,-0.108
39.55,-0.251,-0.212,0.023
39.56,-0.185,0.049,0.033
39.57,-0.067,0.136,0.023
39.58,-0.047,0.096,0.013
39.59,-0.066,0.034,0.023
39.6,-0.229,-0.133,0.105
39.61,-0.346,-0.209,0.129
39.62,-0.32,-0.052,0.047
39.63,-0.411,-0.072,0.012
39.64,-0.383,0.163,-0.125
39.65,-0.308,0.22,-0.142
39.66,-0.218,0.01,-0.067
39.67,-0.148,-0.004,-0.081
39.68,-0.199,-0.01,0.003
39.69,-0.11,-0.101,0.021
39.7,-0.035,0.097,0.051
39.71,-0.118,0.139,0.12
39.72,-0.233,0.019,0.088
39.73,-0.353,0.043,0.035
39.74,-0.379,-0.165,-0.024
39.75,-0.417,-0.071,-0.112
39.76,-0.388,0.06,-0.076
39.77,-0.253,0.103,-0.056
39.78,-0.216,0.218,-0.075
39.79,-0.173,0.175,-0.037
39.8,-0.096,0.045,0.004
39.81,-0.108,-0.04,-0.005
39.82,-0.116,-0.132,0.068
39.83,-0.176,-0.107,0.157
39.84,-0.273,0.088,0.1
39.85,-0.345,-0.011,0.062
39.86,-0.341,-0.028,-0.094
39.87,-0.272,-0.047,-0.125
39.88,-0.325,-0.096,-0.021
39.89,-0.288,0.03,0.073
39.9,-0.292,0.262,0.048
39.91,-0.264,0.255,-0.012
39.92,-0.127,0.216,-0.165
39.93,-0.091,0.003,-0.149
39.94,-0.12,-0.351,-0.029
39.95,-0.141,-0.304,0.108
39.96,-0.337,-0.144,0.319
39.97,-0.29,0.058,0.22
39.98,-0.269,0.216,0.006
39.99,-0.298,0.186,-0.121
40.0,-0.229,-0.036,-0.195
40.01,-0.328,0.004,-0.119
40.02,-0.335,-0.12,-0.029
40.03,-0.226,0.161,-0.028
40.04,-0.179,0.239,-0.012
40.05,-0.1,0.115,0.031
40.06,-0.1,0.151,0.018
40.07,-0.206,-0.165,0.079
40.08,-0.29,-0.292,0.085
40.09,-0.361,-0.16,0.049
40.1,-0.307,-0.042,0.007
40.11,-0.271,0.06,-0.023
40.12,-0.219,0.298,-0.047
40.13,-0.24,-0.035,-0.02
40.14,-0.255,0.076,0.005
40.15,-0.234,-0.05,-0.008
40.16,-0.207,-0.019,-0.017
40.17,-0.252,0.198,-0.058
40.18,-0.211,0.197,-0.012
40.19,-0.163,0.014,0.015
40.2,-0.258,-0.117,-0.039
40.21,-0.302,-0.273,0.06
40.22,-0.191,-0.271,0.092
40.23,-0.171,0.084,0.101
40.24,-0.324,0.083,0.096
40.25,-0.226,0.211,-0.088
40.26,-0.162,0.282,-0.144
40.27,-0.274,0.01,-0.081
40.28,-0.292,0.002,-0.076
40.29,-0.252,-0.063,-0.013
40.3,-0.198,-0.085,0.043
40.31,-0.179,0.077,0.039
40.32,-0.251,0.012,0.099
40.33,-0.205,-0.076,0.08
40.34,-0.208,-0.027,-0.004
40.35,-0.281,-0.142,0.003
40.36,-0.299,0.093,-0.033
40.37,-0.328,0.194,-0.044
40.38,-0.229,0.23,-0.063
40.39,-0.26,0.182,-0.042
40.4,-0.285,0.035,-0.024
40.41,-0.17,-0.11,0.0
40.42,-0.203,-0.127,0.037
40.43,-0.187,-0.146,0.038
40.44,-0.199,-0.105,0.076
40.45,-0.155,0.128,0.054
40.46,-0.253,0.111,0.032
40.47,-0.225,0.055,-0.042
40.48,-0.203,-0.048,-0.105
40.49,-0.34,-0.08,0.021
40.5,-0.341,0.082,0.065
40.51,-0.331,0.242,0.066
40.52,-0.374,0.246,-0.009
40.53,-0.121,0.173,-0.246
40.54,-0.104,-0.105,-0.161
40.55,-0.122,-0.376,0.03
40.56,-0.094,-0.224,0.129
40.57,-0.264,-0.138,0.313
40.58,-0.139,0.073,0.159
40.59,-0.229,0.343,-0.035
40.6,-0.347,0.109,-0.124
40.61,-0.298,-0.048,-0.184
40.62,-0.416,0.008,-0.072
40.63,-0.408,-0.045,-0.017
40.64,-0.277,0.012,0.043
40.65,-0.228,0.242,0.012
40.66,-0.119,0.024,0.031
40.67,-0.117,0.022,0.066
40.68,-0.108,-0.233,0.028
40.69,-0.246,-0.24,0.064
40.7,-0.252,-0.041,0.014
40.71,-0.241,0.059,-0.02
40.72,-0.304,0.231,-0.022
40.73,-0.285,0.257,-0.053
40.74,-0.416,0.124,0.032
40.75,-0.29,-0.112,-0.057
40.76,-0.245,-0.025,-0.077
40.77,-0.314,-0.122,0.032
40.78,-0.147,0.128,-0.019
40.79,-0.082,0.158,-0.003
40.8,-0.074,-0.019,-0.0
40.81,-0.095,-0.058,-0.031
40.82,-0.295,-0.244,0.169
40.83,-0.203,-0.171,0.108
40.84,-0.325,0.125,0.011
40.85,-0.425,0.083,-0.007
40.86,-0.269,0.241,-0.142
40.87,-0.363,0.19,-0.101
40.88,-0.267,-0.002,-0.064
40.89,-0.173,-0.124,-0.051
40.9,-0.118,-0.169,0.034
40.91,-0.067,-0.062,0.097
40.92,-0.146,0.064,0.15
40.93,-0.219,0.197,0.085
40.94,-0.243,-0.091,0.028
40.95,-0.332,0.068,-0.062
40.96,-0.41,-0.071,-0.093
40.97,-0.4,-0.022,-0.019
40.98,-0.305,0.229,-0.105
40.99,-0.219,0.098,-0.082
41.0,-0.222,0.115,-0.031
41.01,-0.176,0.081,0.041
41.02,-0.155,-0.129,0.039
41.03,-0.083,-0.055,-0.0
41.04,-0.147,-0.111,0.098
41.05,-0.175,0.005,0.09
41.06,-0.308,0.151,0.037
41.07,-0.285,0.019,0.006
41.08,-0.18,-0.027,-0.133
41.09,-0.308,-0.056,-0.108
41.1,-0.382,-0.1,0.022
41.11,-0.327,0.11,0.029
41.12,-0.309,0.388,0.053
41.13,-0.205,0.185,-0.026
41.14,-0.137,0.106,-0.133
41.15,-0.022,-0.192,-0.149
41.16,-0.07,-0.481,0.065
41.17,-0.235,-0.253,0.263
41.18,-0.271,0.05,0.302
41.19,-0.291,0.131,0.148
41.2,-0.258,0.317,-0.167
41.21,-0.314,0.084,-0.252
41.22,-0.427,-0.133,-0.126
41.23,-0.392,-0.035,-0.062
41.24,-0.302,0.027,-0.015
41.25,-0.206,0.06,-0.013
41.26,-0.035,0.248,-0.015
41.27,-0.077,0.213,0.083
41.28,-0.082,-0.069,0.11
41.29,-0.22,-0.167,0.11
41.3,-0.277,-0.286,0.063
41.31,-0.271,-0.147,-0.014
41.32,-0.374,0.062,-0.051
41.33,-0.3,0.167,-0.052
41.34,-0.379,0.277,-0.062
41.35,-0.337,0.075,-0.023
41.36,-0.198,-0.09,-0.119
41.37,-0.218,0.056,-0.005
41.38,-0.137,-0.039,0.077
41.39,-0.096,0.128,0.061
41.4,-0.108,0.196,0.038
41.41,-0.069,-0.186,0.049
41.42,-0.267,-0.074,0.062
41.43,-0.384,-0.268,0.079
41.44,-0.326,-0.229,0.072
41.45,-0.403,0.094,-0.061
41.46,-0.33,0.187,-0.072
41.47,-0.237,0.178,-0.092
41.48,-0.175,0.21,-0.094
41.49,-0.108,0.033,-0.058
41.5,-0.095,-0.135,-0.007
41.51,-0.137,0.032,0.027
41.52,-0.184,0.015,0.101
41.53,-0.251,0.09,0.127
41.54,-0.293,0.063,0.051
41.55,-0.348,-0.137,0.017
41.56,-0.367,-0.18,-0.055
41.57,-0.321,-0.12,-0.049
41.58,-0.285,0.021,-0.011
41.59,-0.234,0.228,-0.06
41.6,-0.142,0.259,-0.101
41.61,-0.146,0.239,-0.072
41.62,-0.22,0.163,-0.006
41.63,-0.183,-0.058,0.059
41.64,-0.176,-0.168,0.028
41.65,-0.256,-0.12,0.077
41.66,-0.233,-0.18,0.109
41.67,-0.256,-0.005,0.053
41.68,-0.259,0.041,-0.018
41.69,-0.198,-0.184,-0.066
41.7,-0.292,0.055,-0.068
41.71,-0.329,0.089,0.01
41.72,-0.289,0.231,0.039
41.73,-0.273,0.397,-0.066
41.74,-0.277,0.237,-0.139
41.75,-0.129,-0.093,-0.157
41.76,-0.121,-0.272,-0.008
41.77,-0.18,-0.388,0.158
41.78,-0.25,-0.214,0.307
41.79,-0.218,0.094,0.2
41.8,-0.201,0.134,-0.063
41.81,-0.243,0.224,-0.156
41.82,-0.303,-0.032,-0.142
41.83,-0.419,-0.136,-0.072
41.84,-0.316,0.018,-0.067
41.85,-0.262,0.179,0.01
41.86,-0.244,0.172,0.05
41.87,-0.125,0.254,0.003
41.88,-0.097,-0.069,0.003
41.89,-0.172,-0.201,0.031
41.9,-0.301,-0.246,0.096
41.91,-0.211,-0.306,0.077
41.92,-0.244,0.024,-0.027
41.93,-0.294,0.186,-0.013
41.94,-0.214,0.18,-0.043
41.95,-0.341,0.232,0.011
41.96,-0.374,0.063,-0.008
41.97,-0.206,0.008,-0.103
41.98,-0.32,0.043,-0.075
41.99,-0.266,0.008,-0.036
42.0,-0.151,0.037,-0.007
42.01,-0.138,-0.054,-0.004
42.02,-0.145,-0.251,0.114
42.03,-0.153,-0.176,0.126
42.04,-0.199,-0.027,0.152
42.05,-0.281,-0.068,0.049
42.06,-0.3,0.237,-0.071
42.07,-0.27,0.258,-0.113
42.08,-0.316,0.115,-0.128
42.09,-0.311,0.135,-0.094
42.1,-0.276,-0.062,-0.057
42.11,-0.263,-0.072,0.022
42.12,-0.186,-0.025,0.054
42.13,-0.067,-0.077,0.109
42.14,-0.09,0.011,0.084
42.15,-0.213,0.042,0.071
42.16,-0.26,-0.181,0.033
42.17,-0.268,0.086,-0.024
42.18,-0.35,0.081,-0.011
42.19,-0.323,0.1,-0.059
42.2,-0.342,0.17,-0.073
42.21,-0.339,0.139,-0.087
42.22,-0.263,0.078,-0.05
42.23,-0.259,-0.004,-0.015
42.24,-0.116,-0.138,-0.025
42.25,-0.062,-0.06,-0.005
42.26,-0.098,-0.056,0.113
42.27,-0.139,-0.003,0.154
42.28,-0.234,0.089,0.06
42.29,-0.204,-0.065,-0.048
42.3,-0.304,-0.132,-0.072
42.31,-0.411,0.054,-0.005
42.32,-0.396,0.167,0.017
42.33,-0.432,0.234,0.0
42.34,-0.297,0.384,-0.155
42.35,-0.11,0.038,-0.178
42.36,-0.031,-0.185,-0.107
42.37,-0.018,-0.321,0.036
42.38,-0.1,-0.339,0.288
42.39,-0.255,-0.004,0.33
42.4,-0.256,0.166,0.15
42.41,-0.263,0.183,-0.067
42.42,-0.308,0.131,-0.227
42.43,-0.392,0.013,-0.14
42.44,-0.459,-0.201,-0.085
42.45,-0.32,0.123,-0.048
42.46,-0.274,0.115,0.013
42.47,-0.138,0.182,0.017
42.48,-0.085,0.215,-0.018
42.49,-0.062,-0.101,0.053
42.5,-0.124,-0.195,0.073
42.51,-0.32,-0.23,0.072
42.52,-0.251,-0.223,0.034
42.53,-0.21,0.129,-0.006
42.54,-0.353,0.25,0.048
42.55,-0.367,0.112,-0.04
42.56,-0.339,0.085,-0.109
42.57,-0.297,-0.082,-0.095
42.58,-0.208,-0.042,-0.092
42.59,-0.19,0.075,-0.014
42.6,-0.159,0.16,0.06
42.61,-0.073,0.163,0.02
42.62,-0.059,0.036,0.013
42.63,-0.147,-0.247,0.13
42.64,-0.261,-0.147,0.104
42.65,-0.344,-0.125,0.078
42.66,-0.372,-0.039,-0.039
42.67,-0.387,0.129,-0.122
42.68,-0.344,0.275,-0.09
42.69,-0.246,0.009,-0.042
42.7,-0.16,0.055,-0.048
42.71,-0.127,-0.111,-0.017
42.72,-0.1,-0.053,0.018
42.73,-0.086,0.107,0.084
42.74,-0.188,0.103,0.134
42.75,-0.26,0.114,0.066
42.76,-0.36,-0.048,-0.001
42.77,-0.363,-0.184,-0.091
42.78,-0.392,-0.125,-0.079
42.79,-0.413,0.024,0.002
42.8,-0.179,0.062,-0.033
42.81,-0.14,0.266,-0.073
42.82,-0.192,0.195,-0.037
42.83,-0.16,0.12,0.003
42.84,-0.119,0.036,0.006
42.85,-0.146,-0.156,0.063
42.86,-0.232,-0.106,0.068
42.87,-0.268,-0.068,0.069
42.88,-0.26,-0.053,0.046
42.89,-0.32,0.101,-0.01
42.9,-0.268,0.013,-0.084
42.91,-0.208,-0.112,-0.056
42.92,-0.308,0.072,-0.032
42.93,-0.252,0.091,0.029
42.94,-0.237,0.271,0.013
42.95,-0.229,0.282,-0.042
42.96,-0.141,0.082,-0.1
42.97,-0.184,-0.311,-0.03
42.98,-0.187,-0.264,0.053
42.99,-0.192,-0.271,0.257
43.0,-0.292,-0.017,0.23
43.01,-0.265,0.202,-0.005
43.02,-0.255,0.148,-0.141
43.03,-0.157,0.129,-0.222
43.04,-0.371,-0.008,-0.105
43.05,-0.352,-0.129,-0.0
43.06,-0.207,0.071,-0.032
43.07,-0.277,0.199,0.035
43.08,-0.19,0.137,0.03
43.09,-0.079,0.229,0.017
43.1,-0.225,-0.101,0.106
43.11,-0.245,-0.245,0.047
43.12,-0.259,-0.242,0.025
43.13,-0.29,-0.23,0.022
43.14,-0.223,0.065,0.004
43.15,-0.287,0.251,-0.007
43.16,-0.293,0.156,-0.038
43.17,-0.273,0.204,-0.135
43.18,-0.255,0.042,-0.105
43.19,-0.192,-0.066,-0.027
43.2,-0.237,0.101,0.058
43.21,-0.214,0.054,0.095
43.22,-0.085,0.093,0.004
43.23,-0.209,-0.136,0.015
43.24,-0.295,-0.292,0.072
43.25,-0.248,-0.283,0.108
43.26,-0.259,-0.084,0.058
43.27,-0.326,0.007,-0.024
43.28,-0.333,0.276,-0.109
43.29,-0.168,0.26,-0.119
43.3,-0.196,0.113,-0.054
43.31,-0.199,0.0,-0.011
43.32,-0.191,-0.159,0.019
43.33,-0.211,-0.095,0.014
43.34,-0.177,0.003,0.087
43.35,-0.217,0.03,0.087
43.36,-0.244,-0.003,0.021
43.37,-0.346,-0.029,-0.052
43.38,-0.32,-0.137,-0.05
43.39,-0.279,0.141,-0.03
43.4,-0.281,0.101,-0.015
43.41,-0.246,0.191,-0.049
43.42,-0.195,0.198,-0.066
43.43,-0.186,0.119,-0.017
43.44,-0.247,0.013,0.025
43.45,-0.213,-0.165,0.038
43.46,-0.193,-0.211,0.029
43.47,-0.143,-0.135,0.045
43.48,-0.203,0.04,0.07
43.49,-0.316,0.039,0.082
43.5,-0.199,0.132,-0.062
43.51,-0.218,-0.044,-0.095
43.52,-0.374,-0.089,-0.029
43.53,-0.314,0.141,0.024
43.54,-0.352,0.236,0.045
43.55,-0.323,0.236,-0.033
43.56,-0.158,0.195,-0.149
43.57,-0.101,-0.158,-0.088
43.58,-0.075,-0.351,0.003
43.59,-0.119,-0.287,0.153
43.6,-0.213,-0.193,0.281
43.61,-0.169,0.219,0.102
43.62,-0.309,0.269,-0.017
43.63,-0.26,0.168,-0.171
43.64,-0.321,0.034,-0.2
43.65,-0.425,-0.065,-0.03
43.66,-0.359,-0.069,-0.023
43.67,-0.336,0.147,0.01
43.68,-0.19,0.125,0.022
43.69,-0.05,0.163,-0.015
43.7,-0.125,0.027,0.047
43.71,-0.106,-0.395,0.085
43.72,-0.248,-0.145,0.098
43.73,-0.258,-0.223,0.043
43.74,-0.254,-0.005,0.036
43.75,-0.321,0.316,-0.035
43.76,-0.305,0.315,-0.063
43.77,-0.389,0.091,-0.052
43.78,-0.336,0.037,-0.157
43.79,-0.22,-0.051,-0.114
43.8,-0.245,-0.146,-0.009
43.81,-0.138,0.16,0.056
43.82,-0.084,0.041,0.089
43.83,-0.056,0.012,0.047
43.84,-0.116,-0.073,0.043
43.85,-0.231,-0.268,0.12
43.86,-0.25,-0.01,0.053
43.87,-0.362,0.054,0.004
43.88,-0.433,0.114,-0.054
43.89,-0.292,0.287,-0.197
43.9,-0.334,0.054,-0.091
43.91,-0.212,-0.021,-0.079
43.92,-0.131,-0.053,-0.009
43.93,-0.193,-0.115,0.072
43.94,-0.068,-0.02,0.051
43.95,-0.099,0.201,0.114
43.96,-0.152,-0.006,0.113
43.97,-0.27,0.105,0.058
43.98,-0.335,-0.16,-0.002
43.99,-0.365,-0.145,-0.066
44.0,-0.398,0.026,-0.082
44.01,-0.357,0.075,-0.054
44.02,-0.289,0.177,-0.083
44.03,-0.228,0.228,-0.061
44.04,-0.176,0.138,-0.028
44.05,-0.101,-0.072,-0.015
44.06,-0.059,-0.038,0.015
44.07,-0.102,-0.177,0.14
44.08,-0.17,-0.005,0.138
44.09,-0.267,0.083,0.123
44.1,-0.339,-0.008,-0.007
44.11,-0.248,0.017,-0.151
44.12,-0.346,-0.079,-0.107
44.13,-0.398,-0.106,-0.007
44.14,-0.352,0.197,0.009
44.15,-0.228,0.228,0.008
44.16,-0.16,0.281,-0.082
44.17,-0.019,0.191,-0.144
44.18,-0.076,-0.184,-0.048
44.19,-0.099,-0.382,0.077
44.2,-0.226,-0.174,0.245
44.21,-0.308,-0.118,0.324
44.22,-0.329,0.117,0.108
44.23,-0.359,0.189,-0.131
44.24,-0.245,-0.005,-0.205
44.25,-0.353,0.002,-0.162
44.26,-0.317,0.004,-0.034
44.27,-0.237,-0.007,-0.049
44.28,-0.205,0.242,0.006
44.29,-0.13,0.194,0.007
44.3,-0.125,0.078,0.048
44.31,-0.157,0.039,0.114
44.32,-0.2,-0.302,0.103
44.33,-0.352,-0.276,0.112
44.34,-0.242,-0.079,-0.046
44.35,-0.315,-0.049,0.034
44.36,-0.298,0.303,-0.055
44.37,-0.271,0.241,-0.109
44.38,-0.302,-0.021,-0.073
44.39,-0.201,0.073,-0.165
44.4,-0.212,-0.046,-0.006
44.41,-0.193,-0.006,0.052
44.42,-0.15,0.236,0.033
44.43,-0.162,0.043,0.063
44.44,-0.156,0.007,0.014
44.45,-0.217,-0.19,0.046
44.46,-0.313,-0.248,0.135
44.47,-0.277,-0.189,0.03
44.48,-0.436,-0.048,0.021
44.49,-0.261,0.105,-0.026
44.5,-0.193,0.265,-0.117
44.51,-0.266,0.236,-0.067
44.52,-0.118,-0.07,-0.086
44.53,-0.178,0.114,-0.062
44.54,-0.208,-0.021,-0.004
44.55,-0.187,-0.0,0.078
44.56,-0.156,0.095,0.064
44.57,-0.254,0.016,0.058
44.58,-0.376,-0.163,0.058
44.59,-0.325,-0.14,0.01
44.6,-0.331,-0.117,-0.012
44.61,-0.251,0.076,-0.034
44.62,-0.175,0.235,-0.067
44.63,-0.209,0.208,-0.08
44.64,-0.245,0.287,-0.093
44.65,-0.183,0.096,-0.018
44.66,-0.128,-0.062,-0.036
44.67,-0.199,-0.156,0.028
44.68,-0.26,-0.171,0.092
44.69,-0.23,-0.047,0.121
44.7,-0.319,0.118,0.14
44.71,-0.201,-0.063,-0.004
44.72,-0.196,-0.025,-0.14
44.73,-0.274,-0.098,-0.065
44.74,-0.293,-0.028,0.037
44.75,-0.305,0.267,0.053
44.76,-0.318,0.321,-0.007
44.77,-0.213,0.244,-0.117
44.78,-0.163,-0.008,-0.163
44.79,-0.148,-0.253,-0.069
44.8,-0.179,-0.406,0.116
44.81,-0.299,-0.212,0.257
44.82,-0.196,0.013,0.239
44.83,-0.155,0.155,0.034
44.84,-0.219,0.319,-0.122
44.85,-0.223,0.004,-0.162
44.86,-0.323,-0.093,-0.12
44.87,-0.366,0.047,-0.066
44.88,-0.332,0.001,0.036
44.89,-0.251,0.281,-0.025
44.9,-0.184,0.24,-0.076
44.91,-0.156,0.084,0.001
44.92,-0.122,-0.097,0.043
44.93,-0.232,-0.322,0.148
44.94,-0.226,-0.297,0.112
44.95,-0.182,-0.072,0.017
44.96,-0.261,0.077,0.014
44.97,-0.232,0.288,-0.05
44.98,-0.353,0.199,-0.003
44.99,-0.336,0.015,-0.016
45.0,-0.312,0.026,-0.118
45.01,-0.305,-0.078,-0.063
45.02,-0.225,-0.007,-0.017
45.03,-0.166,0.16,0.044
45.04,-0.057,-0.068,0.042
45.05,-0.098,-0.197,-0.009
45.06,-0.243,-0.208,0.075
45.07,-0.174,-0.217,0.099
45.08,-0.298,0.1,0.037
45.09,-0.426,0.21,0.003
45.1,-0.265,0.172,-0.106
45.11,-0.272,0.286,-0.127
45.12,-0.28,0.011,-0.08
45.13,-0.255,-0.158,-0.025
45.14,-0.158,-0.023,-0.023
45.15,-0.095,-0.079,0.046
45.16,-0.131,0.048,0.081
45.17,-0.162,0.12,0.11
45.18,-0.239,-0.011,0.063
45.19,-0.285,-0.018,-0.006
45.2,-0.33,-0.146,-0.043
45.21,-0.366,0.055,-0.024
45.22,-0.325,0.129,-0.053
45.23,-0.245,0.156,-0.069
45.24,-0.272,0.168,-0.061
45.25,-0.246,0.112,-0.026
45.26,-0.188,-0.056,0.022
45.27,-0.138,-0.154,0.018
45.28,-0.155,-0.08,0.071
45.29,-0.123,-0.083,0.115
45.3,-0.212,0.125,0.091
45.31,-0.3,0.119,-0.017
45.32,-0.248,-0.085,-0.094
45.33,-0.244,-0.023,-0.116
45.34,-0.348,-0.021,0.008
45.35,-0.385,0.045,0.052
45.36,-0.353,0.308,0.008
45.37,-0.261,0.282,-0.052
45.38,-0.072,0.053,-0.139
45.39,-0.049,-0.131,-0.1
45.4,-0.077,-0.361,0.03
45.41,-0.091,-0.39,0.194
45.42,-0.215,0.062,0.26
45.43,-0.245,0.122,0.166
45.44,-0.305,0.338,-0.04
45.45,-0.332,0.113,-0.18
45.46,-0.35,-0.086,-0.206
45.47,-0.429,-0.089,-0.109
45.48,-0.393,0.008,-0.018
45.49,-0.229,0.059,0.028
45.5,-0.085,0.295,0.008
45.51,-0.039,0.065,0.022
45.52,-0.043,0.022,0.097
45.53,-0.117,-0.144,0.133
45.54,-0.32,-0.274,0.142
45.55,-0.291,-0.104,-0.001
45.56,-0.331,0.033,-0.054
45.57,-0.378,0.167,-0.064
45.58,-0.356,0.186,-0.112
45.59,-0.404,0.098,-0.068
45.6,-0.237,-0.137,-0.077
45.61,-0.15,0.052,-0.037
45.62,-0.144,0.037,0.074
45.63,-0.085,0.059,0.051
45.64,-0.069,0.193,0.036
45.65,-0.084,-0.063,0.014
45.66,-0.269,-0.11,0.086
45.67,-0.376,-0.109,0.13
45.68,-0.27,-0.216,0.03
45.69,-0.425,-0.001,-0.054
45.7,-0.433,0.081,-0.076
45.71,-0.197,0.162,-0.018
45.72,-0.047,0.245,-0.059
45.73,-0.12,0.238,-0.017
45.74,-0.153,-0.18,0.113
45.75,-0.213,-0.196,0.072
45.76,-0.398,-0.263,0.108
45.77,-0.318,-0.215,0.017
45.78,-0.209,0.086,-0.042
45.79,-0.287,0.217,-0.026
45.8,-0.222,0.169,-0.061
45.81,-0.304,0.168,-0.031
45.82,-0.26,-0.02,-0.029
45.83,-0.25,0.062,-0.073
45.84,-0.221,0.08,-0.011
45.85,-0.191,0.089,0.016
45.86,-0.159,0.085,-0.039
45.87,-0.172,-0.046,0.02
45.88,-0.221,-0.352,0.081
45.89,-0.233,-0.199,0.115
45.9,-0.183,-0.212,0.101
45.91,-0.307,0.016,0.058
45.92,-0.37,0.308,0.007
45.93,-0.289,0.232,-0.083
45.94,-0.304,0.234,-0.126
45.95,-0.236,0.031,-0.14
45.96,-0.242,-0.1,-0.043
45.97,-0.154,-0.084,-0.054
45.98,-0.181,0.033,0.048
45.99,-0.183,-0.052,0.108
46.0,-0.107,0.036,0.106
46.01,-0.229,-0.066,0.057
46.02,-0.258,-0.125,-0.003
46.03,-0.301,-0.005,-0.023
46.04,-0.401,0.119,-0.011
46.05,-0.285,0.208,-0.071
46.06,-0.275,0.209,-0.106
46.07,-0.297,0.158,-0.077
46.08,-0.204,0.119,-0.067
46.09,-0.189,-0.15,0.018
46.1,-0.158,-0.125,0.043
46.11,-0.091,-0.096,0.07
46.12,-0.155,-0.083,0.082
46.13,-0.163,0.051,0.08
46.14,-0.242,0.067,0.005
46.15,-0.238,-0.062,-0.046
46.16,-0.313,-0.117,-0.02
46.17,-0.393,0.056,0.036
46.18,-0.376,0.173,0.035
46.19,-0.351,0.257,-0.043
46.2,-0.288,0.323,-0.175
46.21,-0.159,-0.021,-0.18
46.22,-0.042,-0.19,-0.085
46.23,-0.085,-0.272,0.075
46.24,-0.165,-0.365,0.247
46.25,-0.125,0.048,0.23
46.26,-0.175,0.189,0.107
46.27,-0.264,0.18,-0.064
46.28,-0.316,0.156,-0.159
46.29,-0.445,-0.06,-0.124
46.3,-0.375,-0.009,-0.071
46.31,-0.406,0.067,-0.049
46.32,-0.291,0.096,-0.027
46.33,-0.119,0.142,-0.068
46.34,-0.037,0.135,-0.019
46.35,-0.11,-0.177,0.109
46.36,-0.197,-0.13,0.136
46.37,-0.238,-0.171,0.129
46.38,-0.133,-0.104,0.014
46.39,-0.31,0.107,-0.027
46.4,-0.309,0.111,0.0
46.41,-0.317,0.105,-0.024
46.42,-0.419,0.084,-0.044
46.43,-0.338,0.001,-0.092
46.44,-0.294,-0.036,-0.104
46.45,-0.177,0.208,-0.069
46.46,-0.152,0.019,0.013
46.47,-0.099,0.043,0.037
46.48,-0.034,-0.025,-0.024
46.49,-0.169,-0.273,0.131
46.5,-0.22,-0.04,0.161
46.51,-0.258,-0.037,0.098
46.52,-0.362,0.048,0.005
46.53,-0.325,0.189,-0.176
46.54,-0.395,0.106,-0.116
46.55,-0.31,0.037,-0.123
46.56,-0.239,0.048,-0.072
46.57,-0.195,-0.095,0.027
46.58,-0.06,0.038,0.002
46.59,-0.073,0.08,0.061
46.6,-0.132,0.052,0.153
46.61,-0.157,0.015,0.105
46.62,-0.304,-0.031,0.052
46.63,-0.318,-0.18,-0.041
46.64,-0.431,-0.027,-0.048
46.65,-0.429,0.019,-0.057
46.66,-0.286,0.139,-0.072
46.67,-0.272,0.167,-0.026
46.68,-0.198,0.146,-0.049
46.69,-0.138,0.101,-0.023
46.7,-0.112,-0.048,0.015
46.71,-0.048,-0.056,0.005
46.72,-0.201,-0.064,0.105
46.73,-0.218,-0.021,0.106
46.74,-0.259,0.002,0.062
46.75,-0.311,-0.013,-0.059
46.76,-0.288,-0.096,-0.127
46.77,-0.347,-0.165,-0.013
46.78,-0.287,0.12,0.045
46.79,-0.271,0.275,0.04
46.8,-0.288,0.252,-0.045
46.81,-0.096,0.37,-0.179
46.82,-0.066,-0.062,-0.159
46.83,-0.078,-0.376,-0.029
46.84,-0.122,-0.26,0.138
46.85,-0.339,-0.233,0.358
46.86,-0.308,0.136,0.265
46.87,-0.276,0.15,-0.047
46.88,-0.27,0.132,-0.2
46.89,-0.234,-0.001,-0.23
46.9,-0.322,-0.046,-0.041
46.91,-0.34,-0.077,-0.006
46.92,-0.227,0.191,0.025
46.93,-0.212,0.138,0.014
46.94,-0.11,0.196,-0.011
46.95,-0.131,0.123,0.05
46.96,-0.182,-0.165,0.149
46.97,-0.367,-0.237,0.101
46.98,-0.354,-0.217,-0.023
46.99,-0.136,-0.168,-0.066
47.0,-0.261,0.185,-0.051
47.01,-0.278,0.283,-0.005
47.02,-0.301,0.028,-0.033
47.03,-0.236,0.168,-0.074
47.04,-0.221,-0.008,-0.054
47.05,-0.268,-0.006,-0.004
47.06,-0.138,0.144,-0.004
47.07,-0.209,0.174,0.035
47.08,-0.193,-0.005,0.003
47.09,-0.181,-0.118,0.006
47.1,-0.307,-0.397,0.151
47.11,-0.267,-0.145,0.089
47.12,-0.284,-0.11,0.059
47.13,-0.305,0.046,-0.013
47.14,-0.236,0.364,-0.123
47.15,-0.211,0.27,-0.082
47.16,-0.159,0.002,-0.085
47.17,-0.188,0.069,-0.091
47.18,-0.215,-0.163,0.019
47.19,-0.208,0.044,0.064
47.2,-0.239,0.044,0.1
47.21,-0.295,0.048,0.134
47.22,-0.334,-0.106,0.044
47.23,-0.329,-0.129,-0.032
47.24,-0.234,-0.196,-0.041
47.25,-0.237,0.022,-0.032
47.26,-0.234,0.257,-0.023
47.27,-0.133,0.164,-0.08
47.28,-0.241,0.313,-0.092
47.29,-0.281,0.099,-0.042
47.3,-0.194,0.012,-0.021
47.31,-0.226,-0.092,0.057
47.32,-0.274,-0.203,0.078
47.33,-0.257,0.017,0.052
47.34,-0.177,-0.144,0.071
47.35,-0.177,0.037,0.028
