t,ax,ay,az
0.0,-0.109,-0.12,0.074
0.01,-0.211,-0.135,0.032
0.02,-0.317,-0.197,0.063
0.03,-0.333,-0.107,0.02
0.04,-0.429,0.152,-0.003
0.05,-0.347,0.165,-0.058
0.06,-0.302,0.184,-0.095
0.07,-0.225,0.097,-0.104
0.08,-0.171,-0.172,-0.058
0.09,-0.198,-0.042,-0.036
0.1,-0.134,0.031,0.063
0.11,-0.117,0.135,0.123
0.12,-0.116,0.192,0.033
0.13,-0.136,0.116,-0.034
0.14,-0.277,-0.276,0.02
0.15,-0.339,-0.168,0.036
0.16,-0.385,-0.133,0.067
0.17,-0.429,-0.131,0.045
0.18,-0.267,0.28,-0.075
0.19,-0.197,0.137,-0.091
0.2,-0.188,0.207,-0.084
0.21,-0.204,0.027,-0.059
0.22,-0.088,-0.135,-0.04
0.23,-0.065,-0.051,0.003
0.24,-0.187,0.022,0.132
0.25,-0.215,0.038,0.154
0.26,-0.329,0.096,0.025
0.27,-0.404,-0.024,-0.032
0.28,-0.347,-0.114,-0.129
0.29,-0.345,0.057,-0.068
0.3,-0.325,0.048,0.004
0.31,-0.183,0.21,-0.072
0.32,-0.179,0.226,-0.05
0.33,-0.11,0.073,-0.023
0.34,-0.107,0.089,0.022
0.35,-0.181,-0.128,0.104
0.36,-0.252,-0.178,0.086
0.37,-0.323,-0.07,0.046
0.38,-0.297,-0.004,0.038
0.39,-0.294,0.034,-0.018
0.4,-0.232,0.091,-0.052
0.41,-0.174,-0.123,-0.038
0.42,-0.246,0.051,-0.004
0.43,-0.251,0.113,0.02
0.44,-0.245,0.129,0.041
0.45,-0.28,0.302,-0.022
0.46,-0.187,0.129,-0.114
0.47,-0.227,-0.078,-0.083
0.48,-0.19,-0.287,-0.05
0.49,-0.244,-0.232,0.078
0.5,-0.235,-0.237,0.216
0.51,-0.162,0.089,0.159
0.52,-0.202,0.16,0.052
0.53,-0.18,0.13,-0.109
0.54,-0.264,0.15,-0.144
0.55,-0.341,-0.038,-0.09
0.56,-0.29,-0.011,-0.127
0.57,-0.388,0.05,0.023
0.58,-0.25,0.089,0.106
0.59,-0.112,0.175,0.035
0.6,-0.217,0.001,0.043
0.61,-0.129,-0.184,-0.002
0.62,-0.244,-0.152,0.026
0.63,-0.264,-0.168,0.062
0.64,-0.248,-0.009,0.024
0.65,-0.257,0.233,-0.007
0.66,-0.265,0.177,-0.012
0.67,-0.334,0.155,-0.034
0.68,-0.25,0.082,-0.105
0.69,-0.269,-0.086,-0.027
0.7,-0.314,-0.083,0.017
0.71,-0.25,0.084,-0.014
0.72,-0.222,-0.076,0.091
0.73,-0.076,0.116,-0.021
0.74,-0.14,-0.075,0.002
0.75,-0.2,-0.273,0.049
0.76,-0.135,0.003,0.019
0.77,-0.337,-0.028,0.135
0.78,-0.298,0.184,0.015
0.79,-0.296,0.288,-0.093
0.8,-0.375,0.118,-0.115
0.81,-0.257,0.062,-0.134
0.82,-0.239,-0.093,-0.057
0.83,-0.189,-0.202,0.057
0.84,-0.165,-0.09,0.082
0.85,-0.144,-0.016,0.137
0.86,-0.122,0.041,0.071
0.87,-0.128,0.1,-0.012
0.88,-0.259,0.072,0.005
0.89,-0.346,-0.071,-0.083
0.9,-0.449,0.135,-0.063
0.91,-0.319,0.077,-0.058
0.92,-0.285,0.152,-0.06
0.93,-0.319,0.093,0.008
0.94,-0.138,-0.074,0.031
0.95,-0.1,-0.042,0.022
0.96,-0.104,-0.178,0.013
0.97,-0.18,-0.105,0.067
0.98,-0.121,0.102,0.061
0.99,-0.264,0.108,0.059
1.0,-0.33,0.042,-0.036
1.01,-0.289,0.033,-0.093
1.02,-0.352,-0.061,-0.025
1.03,-0.353,-0.002,-0.0
1.04,-0.288,0.147,-0.004
1.05,-0.268,0.104,0.012
1.06,-0.184,0.256,-0.121
1.07,-0.068,0.027,-0.098
1.08,-0.047,-0.222,-0.03
1.09,-0.008,-0.202,-0.004
1.1,-0.259,-0.269,0.23
1.11,-0.262,0.015,0.211
1.12,-0.287,0.221,0.099
1.13,-0.376,0.192,-0.033
1.14,-0.333,0.106,-0.173
1.15,-0.387,-0.002,-0.176
1.16,-0.307,-0.114,-0.119
1.17,-0.274,0.011,-0.025
1.18,-0.163,0.052,0.061
1.19,-0.038,0.08,0.088
1.2,-0.128,0.118,0.1
1.21,-0.126,-0.034,0.06
1.22,-0.222,-0.21,0.026
1.23,-0.297,-0.12,0.004
1.24,-0.392,-0.054,0.006
1.25,-0.424,0.106,0.041
1.26,-0.265,0.271,-0.065
1.27,-0.362,0.138,-0.043
1.28,-0.256,0.065,-0.073
1.29,-0.142,-0.081,-0.1
1.3,-0.226,-0.209,0.032
1.31,-0.081,0.052,-0.0
1.32,-0.127,0.126,0.079
1.33,-0.202,0.045,0.051
1.34,-0.076,0.135,-0.058
1.35,-0.304,-0.136,0.078
1.36,-0.312,-0.133,0.024
1.37,-0.316,-0.081,0.053
1.38,-0.498,0.011,0.064
1.39,-0.278,0.146,-0.101
1.4,-0.309,0.198,-0.078
1.41,-0.107,0.02,-0.074
1.42,-0.114,-0.01,-0.072
1.43,-0.188,-0.105,0.033
1.44,-0.065,-0.227,0.059
1.45,-0.151,0.148,0.114
1.46,-0.229,0.111,0.137
1.47,-0.289,0.074,0.04
1.48,-0.408,0.075,-0.065
1.49,-0.402,-0.101,-0.13
1.5,-0.388,-0.061,-0.067
1.51,-0.334,0.13,-0.051
1.52,-0.177,0.077,-0.066
1.53,-0.121,0.177,-0.08
1.54,-0.101,0.148,-0.001
1.55,-0.101,-0.013,0.085
1.56,-0.126,-0.032,0.061
1.57,-0.181,-0.157,0.07
1.58,-0.268,-0.117,0.077
1.59,-0.324,0.083,0.016
1.6,-0.339,0.036,-0.004
1.61,-0.293,0.011,-0.069
1.62,-0.311,0.01,-0.099
1.63,-0.256,-0.069,-0.006
1.64,-0.186,0.083,0.018
1.65,-0.214,0.268,-0.003
1.66,-0.219,0.168,0.03
1.67,-0.11,0.116,-0.084
1.68,-0.11,-0.016,-0.11
1.69,-0.173,-0.404,0.033
1.7,-0.275,-0.189,0.124
1.71,-0.356,-0.123,0.231
1.72,-0.308,-0.003,0.165
1.73,-0.267,0.238,-0.037
1.74,-0.302,0.111,-0.095
1.75,-0.238,-0.007,-0.144
1.76,-0.226,0.043,-0.148
1.77,-0.278,-0.02,-0.076
1.78,-0.2,0.027,-0.026
1.79,-0.191,0.199,0.053
1.8,-0.156,0.098,0.117
1.81,-0.128,0.145,0.063
1.82,-0.27,-0.165,0.035
1.83,-0.311,-0.276,-0.019
1.84,-0.275,-0.099,-0.004
1.85,-0.298,-0.048,0.06
1.86,-0.254,0.106,-0.027
1.87,-0.219,0.248,-0.052
1.88,-0.284,0.146,-0.0
1.89,-0.222,0.089,-0.06
1.9,-0.227,0.048,-0.077
1.91,-0.251,-0.146,0.008
1.92,-0.167,0.055,-0.005
1.93,-0.188,0.104,0.094
1.94,-0.151,-0.12,0.036
1.95,-0.216,0.047,-0.025
1.96,-0.268,-0.234,0.042
1.97,-0.195,-0.169,0.059
1.98,-0.375,0.062,0.089
1.99,-0.337,0.045,0.048
2.0,-0.262,0.242,-0.096
2.01,-0.219,0.214,-0.16
2.02,-0.201,0.03,-0.109
2.03,-0.162,-0.004,-0.05
2.04,-0.168,-0.042,0.036
2.05,-0.224,-0.14,0.117
2.06,-0.178,-0.037,0.113
2.07,-0.233,0.064,0.058
2.08,-0.274,-0.085,0.08
2.09,-0.272,-0.008,-0.034
2.1,-0.337,0.019,-0.051
2.11,-0.344,0.041,-0.074
2.12,-0.284,0.169,-0.075
2.13,-0.178,0.202,-0.075
2.14,-0.169,0.208,-0.061
2.15,-0.268,0.139,0.055
2.16,-0.182,-0.081,0.057
2.17,-0.137,-0.122,0.027
2.18,-0.241,-0.179,0.049
2.19,-0.192,-0.269,0.082
2.2,-0.215,0.024,0.037
2.21,-0.227,0.097,-0.007
2.22,-0.252,-0.044,-0.039
2.23,-0.336,0.189,-0.024
2.24,-0.326,0.016,-0.004
2.25,-0.288,0.074,-0.011
2.26,-0.326,0.211,-0.029
2.27,-0.271,0.098,-0.028
2.28,-0.194,0.024,-0.098
2.29,-0.151,-0.05,-0.09
2.3,-0.061,-0.307,0.022
2.31,-0.084,-0.212,0.103
2.32,-0.164,0.014,0.202
2.33,-0.229,0.018,0.133
2.34,-0.302,0.261,-0.002
2.35,-0.319,0.141,-0.102
2.36,-0.39,-0.029,-0.141
2.37,-0.334,0.036,-0.126
2.38,-0.346,-0.059,-0.06
2.39,-0.305,0.037,0.019
2.4,-0.208,0.184,0.068
2.41,-0.098,0.108,0.081
2.42,-0.033,-0.008,0.025
2.43,-0.114,-0.114,0.008
2.44,-0.222,-0.328,0.043
2.45,-0.245,-0.107,-0.006
2.46,-0.361,0.03,0.086
2.47,-0.341,0.129,0.051
2.48,-0.371,0.309,-0.036
2.49,-0.39,0.118,-0.038
2.5,-0.192,0.075,-0.176
2.51,-0.275,-0.042,-0.09
2.52,-0.288,-0.143,-0.007
2.53,-0.041,-0.016,0.032
2.54,-0.109,0.058,0.066
2.55,-0.093,-0.044,0.064
2.56,-0.123,-0.012,0.017
2.57,-0.221,-0.057,0.058
2.58,-0.264,-0.113,0.073
2.59,-0.424,0.085,0.028
2.6,-0.402,0.111,-0.062
2.61,-0.265,0.121,-0.197
2.62,-0.293,0.168,-0.134
2.63,-0.238,0.002,-0.057
2.64,-0.193,-0.136,0.075
2.65,-0.146,-0.077,0.055
2.66,-0.039,-0.113,0.084
2.67,-0.128,0.068,0.103
2.68,-0.192,0.111,0.08
2.69,-0.213,0.054,0.022
2.7,-0.341,0.044,-0.072
2.71,-0.44,-0.003,-0.095
2.72,-0.342,-0.049,-0.08
2.73,-0.346,0.15,-0.051
2.74,-0.328,0.068,-0.023
2.75,-0.222,0.016,0.012
2.76,-0.168,0.139,0.012
2.77,-0.106,-0.086,0.027
2.78,-0.058,-0.046,0.026
2.79,-0.134,-0.043,0.032
2.8,-0.192,-0.061,0.059
2.81,-0.25,0.142,0.033
2.82,-0.317,0.068,-0.006
2.83,-0.331,-0.101,-0.035
2.84,-0.392,-0.003,-0.086
2.85,-0.357,-0.019,-0.018
2.86,-0.31,0.124,0.028
2.87,-0.208,0.261,-0.015
2.88,-0.164,0.176,-0.044
2.89,0.01,-0.02,-0.116
2.9,-0.026,-0.068,-0.09
2.91,-0.117,-0.356,0.087
2.92,-0.257,-0.122,0.21
2.93,-0.313,0.072,0.233
2.94,-0.377,0.063,0.099
2.95,-0.343,0.175,-0.145
2.96,-0.354,0.048,-0.148
2.97,-0.342,-0.106,-0.114
2.98,-0.271,-0.029,-0.09
2.99,-0.206,0.008,-0.041
3.0,-0.091,0.056,0.017
3.01,-0.184,0.265,0.122
3.02,-0.141,0.077,0.121
3.03,-0.19,-0.042,0.058
3.04,-0.287,-0.168,-0.012
3.05,-0.275,-0.236,-0.002
3.06,-0.307,-0.076,-0.041
3.07,-0.368,0.109,0.022
3.08,-0.241,0.152,-0.01
3.09,-0.183,0.215,-0.072
3.1,-0.267,0.083,-0.051
3.11,-0.18,-0.087,-0.092
3.12,-0.212,0.012,-0.016
3.13,-0.222,-0.024,0.077
3.14,-0.185,0.055,0.077
3.15,-0.213,0.124,0.079
3.16,-0.158,-0.045,0.022
3.17,-0.198,-0.07,-0.05
3.18,-0.293,-0.231,0.009
3.19,-0.293,-0.028,0.012
3.2,-0.333,0.042,0.029
3.21,-0.287,0.166,-0.027
3.22,-0.2,0.125,-0.103
3.23,-0.195,0.127,-0.068
3.24,-0.229,-0.039,0.054
3.25,-0.213,-0.148,0.046
3.26,-0.182,0.029,0.011
3.27,-0.163,-0.04,0.079
3.28,-0.169,0.137,0.073
3.29,-0.328,0.077,0.055
3.3,-0.32,-0.056,-0.052
3.31,-0.23,-0.083,-0.119
3.32,-0.366,-0.019,-0.052
3.33,-0.342,0.013,-0.013
3.34,-0.198,0.152,-0.038
3.35,-0.244,0.2,-0.036
3.36,-0.159,0.123,0.001
3.37,-0.156,0.121,0.051
3.38,-0.209,-0.038,0.062
3.39,-0.158,-0.211,0.041
3.4,-0.235,-0.055,0.06
3.41,-0.246,-0.163,0.022
3.42,-0.336,0.064,-0.011
3.43,-0.218,0.073,-0.053
3.44,-0.258,-0.011,-0.037
3.45,-0.334,0.117,-0.023
3.46,-0.233,0.087,-0.024
3.47,-0.229,0.053,0.006
3.48,-0.249,0.203,-0.012
3.49,-0.136,0.066,0.006
3.5,-0.159,-0.055,-0.022
3.51,-0.284,-0.178,0.012
3.52,-0.245,-0.283,0.083
3.53,-0.236,-0.144,0.124
3.54,-0.257,0.054,0.095
3.55,-0.244,0.086,0.051
3.56,-0.245,0.224,-0.125
3.57,-0.236,0.194,-0.161
3.58,-0.235,-0.04,-0.091
3.59,-0.238,0.037,-0.064
3.6,-0.301,0.017,0.025
3.61,-0.25,0.046,0.059
3.62,-0.215,0.177,0.066
3.63,-0.261,0.0,0.084
3.64,-0.188,-0.128,0.011
3.65,-0.203,-0.168,-0.009
3.66,-0.204,-0.225,-0.016
3.67,-0.189,-0.043,-0.014
3.68,-0.302,0.18,0.064
3.69,-0.259,0.185,0.036
3.7,-0.325,0.3,-0.066
3.71,-0.28,0.104,-0.109
3.72,-0.205,-0.06,-0.122
3.73,-0.291,-0.107,-0.026
3.74,-0.292,-0.013,0.077
3.75,-0.199,-0.082,0.106
3.76,-0.104,0.062,0.078
3.77,-0.081,-0.044,-0.007
3.78,-0.177,-0.137,0.04
3.79,-0.241,0.029,0.03
3.8,-0.282,-0.098,0.032
3.81,-0.36,0.153,-0.028
3.82,-0.345,0.219,-0.11
3.83,-0.32,0.077,-0.096
3.84,-0.206,0.147,-0.105
3.85,-0.274,-0.047,-0.002
3.86,-0.212,-0.197,0.052
3.87,-0.077,-0.075,0.032
3.88,-0.094,-0.05,0.114
3.89,-0.11,0.07,0.115
3.9,-0.224,0.153,0.059
3.91,-0.346,0.051,-0.022
3.92,-0.327,0.009,-0.131
3.93,-0.433,0.056,-0.072
3.94,-0.361,0.043,-0.081
3.95,-0.28,0.123,-0.046
3.96,-0.277,0.118,-0.005
3.97,-0.154,0.076,-0.017
3.98,-0.129,-0.004,0.057
3.99,-0.006,-0.142,0.082
4.0,-0.128,-0.16,0.086
4.01,-0.236,-0.111,0.089
4.02,-0.195,0.015,0.036
4.03,-0.318,0.129,0.021
4.04,-0.379,0.148,-0.079
4.05,-0.342,-0.004,-0.081
4.06,-0.42,0.078,-0.068
4.07,-0.263,0.063,-0.083
4.08,-0.229,-0.022,0.003
4.09,-0.195,0.198,-0.014
4.1,-0.097,0.095,0.029
4.11,-0.043,-0.117,-0.012
4.12,-0.024,-0.128,-0.017
4.13,-0.204,-0.257,0.121
4.14,-0.298,-0.108,0.185
4.15,-0.248,0.148,0.106
4.16,-0.366,0.182,0.022
4.17,-0.314,0.19,-0.19
4.18,-0.409,-0.016,-0.148
4.19,-0.29,-0.079,-0.082
4.2,-0.23,0.059,-0.044
4.21,-0.225,0.004,0.077
4.22,-0.089,0.064,0.052
4.23,-0.074,0.194,0.079
4.24,-0.104,-0.134,0.099
4.25,-0.134,-0.081,0.001
4.26,-0.304,-0.165,-0.001
4.27,-0.31,-0.11,0.028
4.28,-0.414,0.147,0.032
4.29,-0.344,0.237,-0.055
4.3,-0.337,0.078,-0.066
4.31,-0.375,0.146,-0.112
4.32,-0.175,-0.094,-0.106
4.33,-0.162,-0.197,-0.058
4.34,-0.113,0.045,0.082
4.35,-0.104,0.033,0.145
4.36,-0.125,0.138,0.135
4.37,-0.125,0.092,0.033
4.38,-0.208,-0.151,-0.014
4.39,-0.307,-0.05,-0.021
4.4,-0.306,-0.112,-0.059
4.41,-0.482,-0.077,-0.007
4.42,-0.359,0.253,-0.099
4.43,-0.239,0.14,-0.08
4.44,-0.193,0.052,-0.018
4.45,-0.075,0.106,-0.053
4.46,-0.133,-0.146,0.087
4.47,-0.112,-0.117,0.031
4.48,-0.134,0.02,0.067
4.49,-0.198,0.044,0.162
4.5,-0.292,0.178,0.086
4.51,-0.375,0.023,-0.014
4.52,-0.381,-0.164,-0.104
4.53,-0.388,-0.06,-0.117
4.54,-0.407,0.05,-0.043
4.55,-0.178,0.043,-0.018
4.56,-0.177,0.275,-0.052
4.57,-0.136,0.155,-0.031
4.58,-0.108,0.058,0.02
4.59,-0.133,-0.044,0.056
4.6,-0.16,-0.175,0.111
4.61,-0.23,-0.107,0.102
4.62,-0.308,-0.024,0.062
4.63,-0.36,0.039,-0.001
4.64,-0.333,0.109,-0.052
4.65,-0.258,0.025,-0.095
4.66,-0.278,-0.089,-0.055
4.67,-0.237,0.063,-0.08
4.68,-0.154,0.135,-0.017
4.69,-0.24,0.134,0.031
4.7,-0.188,0.276,0.014
4.71,-0.116,-0.004,0.001
4.72,-0.193,-0.202,-0.009
4.73,-0.189,-0.211,0.048
4.74,-0.303,-0.205,0.158
4.75,-0.277,-0.046,0.133
4.76,-0.302,0.146,0.019
4.77,-0.214,0.109,-0.074
4.78,-0.213,0.101,-0.163
4.79,-0.352,0.085,-0.106
4.8,-0.239,-0.096,-0.075
4.81,-0.184,0.089,-0.042
4.82,-0.271,0.135,0.071
4.83,-0.217,0.047,0.102
4.84,-0.171,0.151,0.058
4.85,-0.162,-0.126,0.004
4.86,-0.249,-0.254,0.011
4.87,-0.29,-0.119,0.039
4.88,-0.27,-0.181,0.049
4.89,-0.318,0.144,0.003
4.9,-0.227,0.226,-0.057
4.91,-0.283,0.14,-0.073
4.92,-0.26,0.258,-0.102
4.93,-0.158,-0.027,-0.09
4.94,-0.204,-0.072,-0.033
4.95,-0.276,0.058,0.042
4.96,-0.243,-0.019,0.163
4.97,-0.195,0.021,0.07
4.98,-0.163,0.038,-0.039
4.99,-0.196,-0.284,0.027
5.0,-0.24,-0.126,0.008
5.01,-0.28,-0.007,0.019
5.02,-0.338,-0.093,0.092
5.03,-0.251,0.308,-0.054
5.04,-0.258,0.227,-0.091
5.05,-0.256,0.087,-0.06
5.06,-0.228,0.053,-0.076
5.07,-0.226,-0.067,-0.021
5.08,-0.227,-0.233,0.035
5.09,-0.178,-0.035,0.07
5.1,-0.205,0.056,0.133
5.11,-0.154,0.051,0.064
5.12,-0.209,0.096,-0.022
5.13,-0.295,-0.02,-0.062
5.14,-0.345,0.046,-0.069
5.15,-0.322,0.091,-0.052
5.16,-0.286,0.073,-0.059
5.17,-0.259,0.188,-0.049
5.18,-0.263,0.062,0.009
5.19,-0.2,-0.015,0.013
5.2,-0.155,-0.051,0.02
5.21,-0.119,-0.207,0.056
5.22,-0.119,-0.093,0.088
5.23,-0.207,0.06,0.096
5.24,-0.288,0.068,0.051
5.25,-0.188,0.054,-0.139
5.26,-0.304,0.075,-0.117
5.27,-0.333,-0.04,0.009
5.28,-0.334,0.121,0.02
5.29,-0.339,0.129,0.019
5.3,-0.267,0.062,-0.029
5.31,-0.168,0.125,-0.058
5.32,-0.129,-0.048,-0.044
5.33,-0.097,-0.289,0.002
5.34,-0.087,-0.161,0.034
5.35,-0.173,-0.137,0.124
5.36,-0.275,0.062,0.157
5.37,-0.263,0.265,0.036
5.38,-0.283,0.079,-0.04
5.39,-0.341,0.077,-0.152
5.4,-0.363,0.022,-0.15
5.41,-0.342,-0.123,-0.039
5.42,-0.291,0.072,-0.007
5.43,-0.191,0.201,0.024
5.44,-0.135,-0.004,0.071
5.45,-0.092,0.049,0.004
5.46,-0.092,-0.117,0.042
5.47,-0.204,-0.195,0.063
5.48,-0.254,-0.01,0.034
5.49,-0.369,-0.01,0.056
5.5,-0.302,0.192,-0.039
5.51,-0.318,0.243,-0.044
5.52,-0.362,0.01,-0.022
5.53,-0.218,-0.012,-0.174
5.54,-0.292,-0.054,-0.077
5.55,-0.232,-0.212,0.053
5.56,-0.18,0.142,0.082
5.57,-0.15,0.015,0.121
5.58,-0.043,-0.001,0.011
5.59,-0.174,0.031,-0.019
5.6,-0.285,-0.147,0.034
5.61,-0.234,-0.018,0.02
5.62,-0.388,0.097,0.042
5.63,-0.333,0.053,0.029
5.64,-0.274,0.162,-0.133
5.65,-0.309,0.058,-0.114
5.66,-0.21,-0.08,-0.051
5.67,-0.132,-0.039,0.012
5.68,-0.185,-0.08,0.025
5.69,-0.147,-0.131,0.052
5.7,-0.108,0.164,0.095
5.71,-0.168,0.159,0.104
5.72,-0.305,0.03,0.034
5.73,-0.292,0.04,-0.066
5.74,-0.335,-0.066,-0.111
5.75,-0.415,0.028,-0.083
5.76,-0.388,0.06,-0.021
5.77,-0.259,0.077,-0.052
5.78,-0.169,0.174,-0.031
5.79,-0.131,0.048,0.018
5.8,-0.095,-0.082,0.05
5.81,-0.118,-0.076,0.036
5.82,-0.196,-0.171,0.109
5.83,-0.196,-0.026,0.081
5.84,-0.303,0.136,0.015
5.85,-0.37,0.073,-0.026
5.86,-0.338,0.045,-0.123
5.87,-0.339,0.008,-0.081
5.88,-0.297,-0.067,-0.035
5.89,-0.194,0.042,-0.004
5.9,-0.195,0.195,0.031
5.91,-0.157,0.14,0.026
5.92,-0.084,0.105,-0.084
5.93,-0.085,-0.104,-0.063
5.94,-0.173,-0.314,0.044
5.95,-0.216,-0.159,0.136
5.96,-0.365,-0.057,0.214
5.97,-0.367,0.145,0.099
5.98,-0.3,0.25,-0.076
5.99,-0.328,0.095,-0.144
6.0,-0.247,0.013,-0.172
6.01,-0.226,-0.012,-0.132
6.02,-0.24,-0.157,-0.01
6.03,-0.167,0.176,0.013
6.04,-0.099,0.086,0.098
6.05,-0.157,0.102,0.139
6.06,-0.243,0.028,0.055
6.07,-0.252,-0.177,0.007
6.08,-0.304,-0.184,-0.025
6.09,-0.377,-0.058,-0.029
6.1,-0.417,0.028,0.047
6.11,-0.223,0.142,-0.068
6.12,-0.228,0.203,-0.091
6.13,-0.262,-0.014,-0.025
6.14,-0.101,0.029,-0.072
6.15,-0.223,-0.043,-0.007
6.16,-0.167,-0.054,0.062
6.17,-0.141,0.171,0.032
6.18,-0.275,0.119,0.048
6.19,-0.146,-0.025,-0.005
6.2,-0.206,0.025,-0.093
6.21,-0.385,-0.212,0.045
6.22,-0.302,-0.172,-0.0
6.23,-0.304,0.076,0.061
6.24,-0.281,0.104,0.033
6.25,-0.181,0.189,-0.052
6.26,-0.207,0.199,-0.082
6.27,-0.071,-0.037,-0.109
6.28,-0.208,-0.021,-0.004
6.29,-0.157,-0.096,0.037
6.3,-0.216,-0.139,0.108
6.31,-0.286,0.097,0.108
6.32,-0.25,0.021,0.056
6.33,-0.385,-0.035,-0.008
6.34,-0.326,-0.002,-0.052
6.35,-0.299,-0.008,-0.07
6.36,-0.25,0.097,-0.054
6.37,-0.177,0.221,-0.097
6.38,-0.181,0.14,-0.061
6.39,-0.121,0.183,-0.043
6.4,-0.213,0.025,0.058
6.41,-0.275,-0.188,0.118
6.42,-0.218,-0.137,0.003
6.43,-0.292,-0.129,0.082
6.44,-0.289,-0.07,0.089
6.45,-0.25,0.155,0.025
6.46,-0.216,0.079,-0.059
6.47,-0.154,-0.069,-0.14
6.48,-0.189,0.104,-0.068
6.49,-0.273,0.032,0.03
6.5,-0.273,0.146,0.007
6.51,-0.327,0.249,0.018
6.52,-0.274,0.097,-0.006
6.53,-0.173,-0.04,-0.081
6.54,-0.216,-0.199,-0.043
6.55,-0.146,-0.355,0.025
6.56,-0.191,-0.213,0.144
6.57,-0.148,0.094,0.175
6.58,-0.171,0.132,0.083
6.59,-0.288,0.302,-0.022
6.6,-0.266,0.093,-0.134
6.61,-0.311,-0.08,-0.16
6.62,-0.414,-0.028,-0.115
6.63,-0.388,-0.061,0.028
6.64,-0.287,0.053,0.062
6.65,-0.182,0.174,0.023
6.66,-0.126,0.045,0.061
6.67,-0.03,-0.005,0.003
6.68,-0.146,-0.185,0.05
6.69,-0.196,-0.205,0.008
6.7,-0.236,-0.028,-0.005
6.71,-0.36,0.115,0.042
6.72,-0.302,0.233,-0.065
6.73,-0.397,0.213,-0.008
6.74,-0.371,0.1,-0.024
6.75,-0.217,-0.006,-0.099
6.76,-0.278,-0.112,-0.068
6.77,-0.158,-0.136,0.028
6.78,-0.114,0.128,0.063
6.79,-0.091,0.037,0.1
6.8,-0.08,-0.062,0.027
6.81,-0.195,-0.121,-0.003
6.82,-0.282,-0.155,0.08
6.83,-0.328,-0.123,0.057
6.84,-0.441,0.201,0.065
6.85,-0.299,0.184,-0.072
6.86,-0.33,0.233,-0.108
6.87,-0.232,0.154,-0.149
6.88,-0.172,-0.138,-0.085
6.89,-0.128,-0.144,-0.011
6.9,-0.084,-0.15,0.066
6.91,-0.25,-0.096,0.168
6.92,-0.128,0.117,0.12
6.93,-0.175,0.166,0.059
6.94,-0.32,-0.003,-0.012
6.95,-0.292,0.013,-0.107
6.96,-0.369,-0.02,-0.075
6.97,-0.33,0.097,-0.1
6.98,-0.274,0.179,-0.102
6.99,-0.3,0.083,-0.024
7.0,-0.205,0.158,-0.055
7.01,-0.188,0.014,0.06
7.02,-0.132,-0.196,0.092
7.03,-0.091,-0.085,0.035
7.04,-0.187,-0.132,0.119
7.05,-0.153,-0.038,0.071
7.06,-0.246,0.187,-0.036
7.07,-0.289,0.009,-0.033
7.08,-0.323,0.015,-0.059
7.09,-0.367,0.065,-0.042
7.1,-0.388,-0.032,0.005
7.11,-0.349,0.009,-0.009
7.12,-0.281,0.277,-0.039
7.13,-0.1,0.076,-0.03
7.14,-0.108,-0.008,-0.044
7.15,-0.031,-0.106,-0.06
7.16,-0.015,-0.345,0.068
7.17,-0.162,-0.132,0.125
7.18,-0.297,0.095,0.191
7.19,-0.328,0.157,0.118
7.2,-0.393,0.239,-0.068
7.21,-0.446,0.07,-0.151
7.22,-0.417,-0.095,-0.166
7.23,-0.28,-0.013,-0.111
7.24,-0.185,-0.058,0.009
7.25,-0.087,0.125,0.053
7.26,-0.061,0.149,0.069
7.27,-0.046,0.081,0.077
7.28,-0.048,0.068,-0.005
7.29,-0.304,-0.188,0.074
7.3,-0.36,-0.227,0.017
7.31,-0.412,0.005,-0.026
7.32,-0.409,0.05,-0.002
7.33,-0.334,0.104,-0.015
7.34,-0.284,0.194,-0.038
7.35,-0.13,0.029,-0.047
7.36,-0.118,-0.065,-0.066
7.37,-0.141,-0.001,-0.025
7.38,-0.17,-0.019,0.064
7.39,-0.187,0.07,0.074
7.4,-0.221,0.048,0.009
7.41,-0.259,-0.104,-0.013
7.42,-0.311,-0.033,0.013
7.43,-0.331,-0.147,0.071
7.44,-0.343,-0.019,0.098
7.45,-0.247,0.117,-0.015
7.46,-0.166,0.108,-0.096
7.47,-0.177,0.097,-0.133
7.48,-0.206,0.123,-0.065
7.49,-0.212,-0.095,0.017
7.5,-0.181,-0.081,0.009
7.51,-0.251,0.021,0.107
7.52,-0.189,-0.066,0.097
7.53,-0.22,0.131,0.071
7.54,-0.305,0.057,-0.006
7.55,-0.221,-0.066,-0.086
7.56,-0.371,0.076,-0.061
7.57,-0.322,-0.046,-0.021
7.58,-0.18,0.16,-0.079
7.59,-0.282,0.107,-0.03
7.6,-0.208,0.066,0.006
7.61,-0.183,0.138,0.029
7.62,-0.227,-0.055,0.051
7.63,-0.156,-0.173,0.027
7.64,-0.233,-0.066,0.037
7.65,-0.188,-0.003,-0.001
7.66,-0.247,0.028,0.033
7.67,-0.299,0.126,-0.048
7.68,-0.281,-0.07,-0.045
7.69,-0.272,-0.06,-0.012
7.7,-0.211,0.113,-0.007
7.71,-0.269,0.111,0.031
7.72,-0.298,0.169,-0.001
7.73,-0.173,0.233,-0.105
7.74,-0.081,-0.028,-0.093
7.75,-0.087,-0.139,-0.068
7.76,-0.178,-0.222,0.061
7.77,-0.278,-0.267,0.163
7.78,-0.313,0.072,0.195
7.79,-0.322,0.079,0.125
7.8,-0.218,0.108,-0.071
7.81,-0.262,0.14,-0.167
7.82,-0.307,-0.026,-0.115
7.83,-0.244,-0.067,-0.102
7.84,-0.266,0.042,-0.003
7.85,-0.143,0.079,0.108
7.86,-0.163,0.204,0.099
7.87,-0.227,0.129,0.092
7.88,-0.224,-0.179,-0.005
7.89,-0.26,-0.112,-0.036
7.9,-0.347,-0.19,-0.019
7.91,-0.304,-0.176,-0.001
7.92,-0.216,0.168,-0.023
7.93,-0.173,0.254,-0.035
7.94,-0.281,0.155,0.026
7.95,-0.174,0.207,-0.043
7.96,-0.226,-0.015,-0.004
7.97,-0.288,-0.069,-0.009
7.98,-0.282,-0.027,-0.029
7.99,-0.261,-0.107,0.026
8.0,-0.191,0.039,0.015
8.01,-0.173,0.005,-0.008
8.02,-0.168,-0.196,0.056
8.03,-0.182,-0.033,0.03
8.04,-0.23,-0.015,0.078
8.05,-0.297,0.047,0.025
8.06,-0.302,0.215,-0.017
8.07,-0.301,0.167,-0.073
8.08,-0.261,0.09,-0.121
8.09,-0.269,0.013,-0.066
8.1,-0.171,-0.216,0.001
8.11,-0.156,-0.086,0.079
8.12,-0.204,-0.022,0.13
8.13,-0.132,-0.07,0.103
8.14,-0.157,0.109,0.009
8.15,-0.274,0.022,-0.044
8.16,-0.335,-0.036,-0.047
8.17,-0.365,0.083,-0.047
8.18,-0.395,0.162,-0.054
8.19,-0.239,0.126,-0.114
8.2,-0.205,0.162,-0.068
8.21,-0.21,0.053,0.037
8.22,-0.154,0.043,0.034
8.23,-0.189,-0.066,0.05
8.24,-0.168,-0.247,0.046
8.25,-0.186,-0.027,0.057
8.26,-0.18,-0.012,0.053
8.27,-0.257,-0.023,0.012
8.28,-0.331,0.122,-0.062
8.29,-0.29,-0.017,-0.045
8.3,-0.298,0.032,0.013
8.31,-0.275,0.215,0.017
8.32,-0.304,0.094,0.007
8.33,-0.266,0.084,-0.106
8.34,-0.147,0.13,-0.104
8.35,-0.129,-0.136,0.012
8.36,-0.188,-0.208,0.073
8.37,-0.174,-0.201,0.094
8.38,-0.169,-0.237,0.143
8.39,-0.212,0.146,0.109
8.4,-0.292,0.204,0.06
8.41,-0.321,0.111,-0.062
8.42,-0.297,0.154,-0.17
8.43,-0.341,0.006,-0.148
8.44,-0.351,-0.052,-0.12
8.45,-0.28,0.059,-0.008
8.46,-0.238,0.067,0.091
8.47,-0.09,0.082,0.085
8.48,-0.121,0.023,0.037
8.49,-0.118,-0.176,0.046
8.5,-0.14,-0.09,0.015
8.51,-0.184,-0.063,-0.023
8.52,-0.296,-0.081,0.023
8.53,-0.35,0.174,-0.004
8.54,-0.373,0.191,0.017
8.55,-0.391,0.099,-0.034
8.56,-0.321,0.103,-0.109
8.57,-0.319,-0.053,-0.078
8.58,-0.186,-0.102,-0.036
8.59,-0.098,0.062,0.044
8.6,-0.119,-0.101,0.141
8.61,-0.035,0.034,0.035
8.62,-0.059,0.054,0.009
8.63,-0.232,-0.172,0.076
8.64,-0.346,0.098,0.022
8.65,-0.426,-0.01,0.024
8.66,-0.394,0.031,-0.089
8.67,-0.393,0.182,-0.147
8.68,-0.371,0.013,-0.083
8.69,-0.119,-0.01,-0.081
8.7,-0.053,0.039,0.022
8.71,-0.114,-0.058,0.119
8.72,-0.027,-0.074,0.083
8.73,-0.146,0.042,0.103
8.74,-0.176,0.014,0.075
8.75,-0.278,0.084,0.016
8.76,-0.444,0.042,-0.051
8.77,-0.383,-0.074,-0.115
8.78,-0.448,0.049,-0.063
8.79,-0.352,0.101,-0.042
8.8,-0.184,0.022,-0.073
8.81,-0.175,0.182,-0.012
8.82,-0.1,0.086,0.021
8.83,-0.113,0.082,0.069
8.84,-0.11,-0.02,0.045
8.85,-0.129,-0.147,0.021
8.86,-0.262,-0.047,0.088
8.87,-0.226,-0.037,0.049
8.88,-0.362,-0.071,0.036
8.89,-0.387,0.038,-0.085
8.9,-0.279,-0.024,-0.079
8.91,-0.298,0.021,-0.018
8.92,-0.221,0.177,-0.022
8.93,-0.274,0.195,-0.01
8.94,-0.229,0.183,-0.056
8.95,-0.064,0.11,-0.108
8.96,-0.146,-0.147,-0.005
8.97,-0.138,-0.257,0.058
8.98,-0.168,-0.177,0.138
8.99,-0.3,-0.143,0.266
9.0,-0.294,0.174,0.068
9.01,-0.276,0.141,-0.027
9.02,-0.292,0.037,-0.147
9.03,-0.259,0.109,-0.24
9.04,-0.338,-0.058,-0.111
9.05,-0.283,-0.009,-0.079
9.06,-0.251,0.131,0.068
9.07,-0.218,0.07,0.156
9.08,-0.11,0.151,0.082
9.09,-0.147,0.006,0.075
9.1,-0.162,-0.201,0.059
9.11,-0.241,-0.149,0.003
9.12,-0.329,-0.173,0.015
9.13,-0.324,-0.042,-0.016
9.14,-0.274,0.183,-0.079
9.15,-0.226,0.229,-0.084
9.16,-0.311,0.072,-0.04
9.17,-0.279,0.154,-0.025
9.18,-0.207,-0.031,-0.039
9.19,-0.201,-0.085,-0.017
9.2,-0.152,0.099,0.015
9.21,-0.162,0.016,0.124
9.22,-0.147,0.006,0.06
9.23,-0.213,-0.063,-0.013
9.24,-0.246,-0.225,0.02
9.25,-0.219,-0.108,-0.009
9.26,-0.356,0.015,0.05
9.27,-0.343,0.048,0.015
9.28,-0.211,0.286,-0.123
9.29,-0.242,0.167,-0.12
9.3,-0.157,0.012,-0.087
9.31,-0.166,0.084,0.02
9.32,-0.199,-0.099,0.085
9.33,-0.18,-0.033,0.076
9.34,-0.219,-0.023,0.05
9.35,-0.277,0.013,0.062
9.36,-0.284,-0.064,0.036
9.37,-0.315,0.012,0.001
9.38,-0.306,-0.16,-0.047
9.39,-0.244,0.123,-0.083
9.4,-0.263,0.201,-0.049
9.41,-0.23,0.11,-0.04
9.42,-0.232,0.299,-0.031
9.43,-0.223,0.042,-0.013
9.44,-0.24,-0.099,0.031
9.45,-0.228,-0.122,-0.015
9.46,-0.236,-0.202,0.089
9.47,-0.223,-0.11,0.104
9.48,-0.172,0.082,0.054
9.49,-0.232,-0.04,-0.018
9.5,-0.186,0.053,-0.115
9.51,-0.191,0.131,-0.05
9.52,-0.298,0.039,0.024
9.53,-0.307,0.236,-0.058
9.54,-0.335,0.153,-0.024
9.55,-0.198,0.06,-0.074
9.56,-0.179,0.101,-0.081
9.57,-0.242,-0.323,0.072
9.58,-0.136,-0.226,0.053
9.59,-0.135,-0.144,0.109
9.6,-0.176,-0.104,0.188
9.61,-0.185,0.262,0.066
9.62,-0.306,0.165,-0.0
9.63,-0.262,0.048,-0.12
9.64,-0.304,0.023,-0.182
9.65,-0.328,-0.016,-0.101
9.66,-0.334,-0.049,-0.009
9.67,-0.309,0.187,0.063
9.68,-0.187,0.114,0.034
9.69,-0.183,0.056,0.007
9.7,-0.116,-0.016,0.012
9.71,-0.117,-0.174,0.038
9.72,-0.263,-0.166,0.073
9.73,-0.235,-0.076,0.021
9.74,-0.243,0.038,0.048
9.75,-0.253,0.212,-0.011
9.76,-0.397,0.152,0.002
9.77,-0.354,0.068,-0.035
9.78,-0.265,0.082,-0.163
9.79,-0.31,-0.032,-0.125
9.8,-0.197,-0.071,-0.042
9.81,-0.138,0.054,0.072
9.82,-0.159,0.004,0.154
9.83,-0.043,-0.067,0.028
9.84,-0.151,-0.052,0.06
9.85,-0.25,-0.159,0.108
9.86,-0.26,0.077,0.038
9.87,-0.431,0.063,0.022
9.88,-0.354,0.025,-0.105
9.89,-0.242,0.222,-0.168
9.9,-0.302,0.06,-0.111
9.91,-0.258,-0.077,-0.001
9.92,-0.179,0.004,-0.002
9.93,-0.033,-0.062,0.043
9.94,-0.142,-0.109,0.097
9.95,-0.123,0.091,0.12
9.96,-0.148,0.041,0.091
9.97,-0.278,0.051,-0.022
9.98,-0.362,0.072,-0.077
9.99,-0.377,-0.02,-0.068
10.0,-0.375,0.057,-0.084
10.01,-0.329,0.152,-0.074
10.02,-0.274,0.001,-0.036
10.03,-0.217,0.124,-0.031
10.04,-0.136,0.05,0.018
10.05,-0.069,-0.069,0.064
10.06,-0.088,-0.004,0.05
10.07,-0.134,-0.12,0.091
10.08,-0.198,-0.034,0.085
10.09,-0.31,0.067,0.056
10.1,-0.35,0.005,0.005
10.11,-0.295,0.044,-0.118
10.12,-0.395,0.043,-0.094
10.13,-0.36,-0.042,0.005
10.14,-0.24,0.19,-0.036
10.15,-0.217,0.131,0.035
10.16,-0.118,0.107,-0.013
10.17,-0.093,0.03,-0.049
10.18,-0.112,-0.183,0.032
10.19,-0.054,-0.238,0.019
10.2,-0.272,-0.099,0.139
10.21,-0.34,-0.006,0.185
10.22,-0.38,0.164,0.083
10.23,-0.353,0.209,-0.097
10.24,-0.3,-0.032,-0.174
10.25,-0.348,-0.037,-0.128
10.26,-0.264,-0.008,-0.087
10.27,-0.106,-0.024,-0.005
10.28,-0.165,0.148,0.023
10.29,-0.111,0.171,0.039
10.3,-0.097,0.063,0.064
10.31,-0.172,-0.005,0.072
10.32,-0.228,-0.205,0.029
10.33,-0.366,-0.185,0.031
10.34,-0.373,-0.115,0.048
10.35,-0.401,0.103,0.04
10.36,-0.291,0.18,-0.046
10.37,-0.293,0.178,-0.086
10.38,-0.198,-0.025,-0.062
10.39,-0.096,0.09,-0.151
10.4,-0.198,-0.086,0.022
10.41,-0.18,-0.033,0.039
10.42,-0.137,0.196,0.064
10.43,-0.215,-0.023,0.136
10.44,-0.195,0.048,0.029
10.45,-0.308,-0.069,0.006
10.46,-0.375,-0.245,0.001
10.47,-0.32,-0.098,-0.008
10.48,-0.362,0.117,0.009
10.49,-0.265,0.094,-0.031
10.5,-0.176,0.172,-0.085
10.51,-0.102,0.183,-0.112
10.52,-0.171,-0.041,-0.005
10.53,-0.149,-0.058,-0.007
10.54,-0.156,0.003,0.052
10.55,-0.172,-0.076,0.094
10.56,-0.276,0.108,0.067
10.57,-0.327,0.044,0.036
10.58,-0.347,-0.043,-0.032
10.59,-0.397,0.021,-0.049
10.6,-0.303,-0.082,-0.041
10.61,-0.224,0.096,-0.084
10.62,-0.212,0.194,-0.051
10.63,-0.147,0.166,-0.024
10.64,-0.123,0.225,0.007
10.65,-0.169,-0.054,0.06
10.66,-0.16,-0.118,0.054
10.67,-0.217,-0.201,0.063
10.68,-0.328,-0.15,0.094
10.69,-0.302,0.002,0.067
10.7,-0.339,0.093,-0.016
10.71,-0.289,-0.031,-0.098
10.72,-0.248,0.026,-0.1
10.73,-0.217,0.113,-0.05
10.74,-0.232,0.08,-0.02
10.75,-0.237,0.199,-0.023
10.76,-0.188,0.187,-0.013
10.77,-0.108,0.044,-0.028
10.78,-0.165,-0.043,0.012
10.79,-0.191,-0.347,0.053
10.8,-0.265,-0.228,0.117
10.81,-0.297,-0.05,0.142
10.82,-0.25,0.01,0.112
10.83,-0.25,0.212,-0.034
10.84,-0.28,0.152,-0.163
10.85,-0.28,-0.025,-0.171
10.86,-0.243,0.064,-0.138
10.87,-0.297,0.126,-0.035
10.88,-0.304,0.028,0.082
10.89,-0.172,0.221,0.082
10.9,-0.138,0.049,0.067
10.91,-0.268,-0.132,0.063
10.92,-0.165,-0.183,-0.016
10.93,-0.244,-0.225,0.067
10.94,-0.265,-0.127,0.019
10.95,-0.264,0.076,-0.027
10.96,-0.258,0.18,-0.045
10.97,-0.268,0.223,-0.09
10.98,-0.385,0.202,-0.008
10.99,-0.25,-0.039,-0.08
11.0,-0.223,0.02,-0.101
11.01,-0.286,-0.058,0.053
11.02,-0.207,-0.021,0.046
11.03,-0.136,0.096,0.08
11.04,-0.102,-0.069,0.041
11.05,-0.07,-0.122,-0.029
11.06,-0.231,-0.075,0.042
11.07,-0.253,-0.114,0.049
11.08,-0.336,0.097,0.032
11.09,-0.382,0.185,-0.045
11.1,-0.296,0.159,-0.078
11.11,-0.287,0.133,-0.093
11.12,-0.238,0.057,-0.061
11.13,-0.176,-0.106,-0.056
11.14,-0.139,-0.12,0.01
11.15,-0.148,-0.038,0.074
11.16,-0.083,-0.016,0.136
11.17,-0.208,0.096,0.118
11.18,-0.262,-0.011,0.034
11.19,-0.275,0.004,-0.058
11.2,-0.4,0.025,-0.051
11.21,-0.414,0.073,-0.065
11.22,-0.279,0.176,-0.09
11.23,-0.269,0.141,-0.081
11.24,-0.261,0.06,-0.053
11.25,-0.173,0.059,0.015
11.26,-0.135,-0.048,0.031
11.27,-0.114,-0.222,0.05
11.28,-0.122,-0.093,0.079
11.29,-0.149,-0.031,0.13
11.3,-0.3,0.115,0.121
11.31,-0.302,0.162,-0.009
11.32,-0.253,0.016,-0.149
11.33,-0.345,-0.026,-0.145
11.34,-0.319,0.056,-0.035
11.35,-0.272,0.003,0.026
11.36,-0.348,0.207,-0.016
11.37,-0.22,0.169,-0.031
11.38,-0.114,0.016,-0.038
11.39,-0.046,-0.101,-0.015
11.4,-0.106,-0.222,0.072
11.41,-0.15,-0.313,0.125
11.42,-0.196,0.069,0.127
11.43,-0.279,0.071,0.137
11.44,-0.338,0.216,0.019
11.45,-0.363,0.202,-0.123
11.46,-0.405,-0.15,-0.152
11.47,-0.302,0.0,-0.21
11.48,-0.335,-0.023,-0.055
11.49,-0.295,-0.004,0.09
11.5,-0.066,0.157,0.044
11.51,-0.05,0.169,0.061
11.52,-0.07,-0.069,0.037
11.53,-0.144,-0.126,0.068
11.54,-0.226,-0.193,0.082
11.55,-0.321,-0.066,0.029
11.56,-0.457,0.11,0.043
11.57,-0.341,0.158,-0.045
11.58,-0.371,0.201,-0.128
11.59,-0.353,0.107,-0.061
11.6,-0.11,-0.114,-0.134
11.61,-0.188,-0.088,-0.069
11.62,-0.159,0.006,0.042
11.63,-0.032,0.036,0.076
11.64,-0.18,0.241,0.132
11.65,-0.132,-0.026,0.013
11.66,-0.244,-0.052,0.017
11.67,-0.307,-0.129,0.005
11.68,-0.378,-0.155,0.058
11.69,-0.438,-0.046,0.058
11.7,-0.271,0.187,-0.049
11.71,-0.269,0.099,-0.082
11.72,-0.157,0.12,-0.118
11.73,-0.139,0.046,-0.084
11.74,-0.18,-0.146,0.025
11.75,-0.129,-0.035,-0.004
11.76,-0.189,-0.029,0.112
11.77,-0.198,0.125,0.096
11.78,-0.23,0.178,0.06
11.79,-0.348,-0.016,0.023
11.8,-0.349,-0.078,-0.077
11.81,-0.344,-0.026,-0.067
11.82,-0.343,-0.047,-0.044
11.83,-0.235,0.121,-0.082
11.84,-0.171,0.172,-0.077
11.85,-0.151,0.179,-0.023
11.86,-0.188,0.138,0.009
11.87,-0.158,-0.078,0.03
11.88,-0.105,-0.205,0.03
11.89,-0.229,-0.056,0.106
11.9,-0.311,-0.004,0.15
11.91,-0.271,0.068,0.02
11.92,-0.271,0.113,-0.096
11.93,-0.312,-0.101,-0.091
11.94,-0.364,-0.067,-0.002
11.95,-0.232,0.055,0.014
11.96,-0.217,0.059,0.021
11.97,-0.265,0.249,-0.028
11.98,-0.167,0.212,-0.073
11.99,-0.108,-0.065,-0.067
12.0,-0.158,-0.129,-0.03
12.01,-0.154,-0.259,0.061
12.02,-0.257,-0.246,0.173
12.03,-0.307,0.064,0.135
12.04,-0.316,0.16,0.097
12.05,-0.272,0.107,-0.047
12.06,-0.227,0.157,-0.155
12.07,-0.335,-0.123,-0.135
12.08,-0.206,-0.062,-0.122
12.09,-0.223,0.114,-0.029
12.1,-0.218,0.055,0.098
12.11,-0.112,0.229,0.036
12.12,-0.144,0.14,0.051
12.13,-0.179,-0.123,0.034
12.14,-0.29,-0.105,-0.021
12.15,-0.353,-0.224,0.051
12.16,-0.298,-0.052,0.006
12.17,-0.326,0.115,0.008
12.18,-0.214,0.133,-0.033
12.19,-0.24,0.071,-0.061
12.2,-0.233,0.141,-0.01
12.21,-0.132,-0.094,-0.005
12.22,-0.281,0.021,-0.013
12.23,-0.242,0.078,-0.0
12.24,-0.165,-0.016,0.061
12.25,-0.2,0.18,-0.007
12.26,-0.24,-0.099,-0.041
12.27,-0.273,-0.247,-0.024
12.28,-0.177,-0.068,0.005
12.29,-0.271,-0.096,0.12
12.3,-0.342,0.112,0.12
12.31,-0.188,0.258,-0.031
12.32,-0.213,0.12,-0.063
12.33,-0.224,0.133,-0.138
12.34,-0.223,-0.032,-0.09
12.35,-0.202,-0.132,0.032
12.36,-0.31,-0.127,0.052
12.37,-0.27,-0.079,0.018
12.38,-0.3,0.212,-0.058
12.39,-0.29,0.261,-0.041
12.4,-0.343,0.103,-0.023
12.41,-0.22,0.133,-0.096
12.42,-0.249,-0.062,-0.047
12.43,-0.28,-0.137,0.003
12.44,-0.183,0.083,0.007
12.45,-0.138,-0.05,0.095
12.46,-0.123,0.072,0.042
12.47,-0.106,0.015,-0.015
12.48,-0.283,-0.212,0.097
12.49,-0.179,-0.049,0.023
12.5,-0.294,0.046,0.045
12.51,-0.396,0.051,0.051
12.52,-0.304,0.267,-0.129
12.53,-0.321,0.177,-0.147
12.54,-0.197,0.034,-0.102
12.55,-0.21,-0.03,-0.028
12.56,-0.163,-0.252,0.067
12.57,-0.078,-0.107,0.067
12.58,-0.13,0.015,0.138
12.59,-0.194,0.078,0.152
12.6,-0.257,0.082,0.065
12.61,-0.312,0.114,-0.027
12.62,-0.346,-0.093,-0.091
12.63,-0.406,0.027,-0.074
12.64,-0.409,0.076,-0.073
12.65,-0.225,0.09,-0.102
12.66,-0.219,0.17,-0.045
12.67,-0.175,0.011,0.032
12.68,-0.101,0.01,0.013
12.69,-0.078,-0.039,0.023
12.7,-0.129,-0.175,0.131
12.71,-0.216,0.075,0.105
12.72,-0.269,0.113,0.095
12.73,-0.279,-0.061,0.004
12.74,-0.253,0.097,-0.147
12.75,-0.318,-0.131,-0.145
12.76,-0.398,-0.108,0.039
12.77,-0.327,0.158,-0.006
12.78,-0.236,0.222,0.029
12.79,-0.223,0.144,-0.008
12.8,-0.096,0.223,-0.074
12.81,-0.07,-0.047,-0.043
12.82,-0.1,-0.388,0.043
12.83,-0.14,-0.217,0.113
12.84,-0.243,-0.181,0.228
12.85,-0.314,0.152,0.19
12.86,-0.3,0.248,0.003
12.87,-0.332,0.077,-0.153
12.88,-0.364,0.084,-0.231
12.89,-0.352,-0.052,-0.158
12.9,-0.264,-0.085,-0.06
12.91,-0.208,0.093,-0.019
12.92,-0.089,0.14,0.08
12.93,-0.112,0.083,0.126
12.94,-0.099,0.13,0.104
12.95,-0.16,-0.149,0.109
12.96,-0.291,-0.238,0.034
12.97,-0.306,-0.125,-0.01
12.98,-0.37,-0.105,0.009
12.99,-0.337,0.18,-0.072
13.0,-0.378,0.242,-0.076
13.01,-0.266,-0.008,-0.01
13.02,-0.178,0.133,-0.126
13.03,-0.193,-0.028,-0.021
13.04,-0.173,-0.055,0.03
13.05,-0.074,0.135,0.027
13.06,-0.22,0.102,0.124
13.07,-0.116,-0.035,0.06
13.08,-0.248,0.053,0.018
13.09,-0.351,-0.355,0.021
13.1,-0.3,-0.146,0.023
13.11,-0.411,-0.045,0.053
13.12,-0.308,0.053,0.027
13.13,-0.276,0.267,-0.08
13.14,-0.22,0.185,-0.084
13.15,-0.092,0.019,-0.14
13.16,-0.151,-0.022,-0.058
13.17,-0.173,-0.003,0.065
13.18,-0.158,-0.111,0.101
13.19,-0.234,0.14,0.111
13.2,-0.25,0.05,0.059
13.21,-0.3,-0.057,0.02
13.22,-0.309,-0.031,-0.049
13.23,-0.292,-0.122,-0.084
13.24,-0.358,0.007,-0.013
13.25,-0.313,0.201,-0.048
13.26,-0.161,0.156,-0.08
13.27,-0.143,0.255,-0.08
13.28,-0.221,0.107,0.014
13.29,-0.2,-0.063,0.071
13.3,-0.158,-0.129,0.061
13.31,-0.24,-0.093,0.054
13.32,-0.21,-0.147,0.06
13.33,-0.216,0.096,0.023
13.34,-0.26,-0.077,0.04
13.35,-0.243,0.049,-0.038
13.36,-0.295,-0.011,-0.046
13.37,-0.3,-0.057,-0.0
13.38,-0.253,0.224,-0.029
13.39,-0.26,0.232,-0.048
13.4,-0.311,0.211,-0.042
13.41,-0.197,0.089,-0.088
13.42,-0.139,-0.111,-0.06
13.43,-0.109,-0.396,-0.012
13.44,-0.156,-0.241,0.11
13.45,-0.241,-0.115,0.244
13.46,-0.25,0.231,0.11
13.47,-0.269,0.257,-0.026
13.48,-0.281,0.05,-0.167
13.49,-0.285,0.007,-0.244
13.5,-0.278,-0.084,-0.13
13.51,-0.278,0.051,-0.008
13.52,-0.313,0.241,0.093
13.53,-0.26,0.096,0.129
13.54,-0.14,0.155,0.013
13.55,-0.131,-0.085,-0.009
13.56,-0.248,-0.338,0.101
13.57,-0.207,-0.186,0.051
13.58,-0.272,-0.08,0.042
13.59,-0.257,-0.039,0.036
13.6,-0.176,0.318,-0.085
13.61,-0.287,0.182,-0.013
13.62,-0.323,0.086,-0.025
13.63,-0.263,0.141,-0.091
13.64,-0.358,-0.066,-0.059
13.65,-0.295,-0.048,-0.056
13.66,-0.212,0.05,0.057
13.67,-0.153,-0.018,0.1
13.68,-0.05,-0.106,0.023
13.69,-0.123,-0.134,0.019
13.7,-0.125,-0.15,0.08
13.71,-0.212,0.017,0.075
13.72,-0.408,0.179,0.047
13.73,-0.319,0.159,-0.102
13.74,-0.302,0.26,-0.18
13.75,-0.312,0.071,-0.116
13.76,-0.293,-0.105,-0.079
13.77,-0.25,-0.074,0.031
13.78,-0.133,-0.149,0.097
13.79,-0.046,0.05,0.111
13.8,-0.103,0.07,0.103
13.81,-0.169,0.104,0.075
13.82,-0.238,0.01,-0.013
13.83,-0.363,-0.019,-0.049
13.84,-0.418,-0.076,-0.039
13.85,-0.376,0.115,-0.079
13.86,-0.295,0.089,-0.077
13.87,-0.249,0.124,-0.049
13.88,-0.238,0.161,-0.013
13.89,-0.215,0.004,0.031
13.9,-0.067,-0.103,0.028
13.91,-0.096,-0.113,0.007
13.92,-0.187,-0.044,0.106
13.93,-0.177,0.014,0.09
13.94,-0.261,0.14,0.023
13.95,-0.318,-0.065,-0.031
13.96,-0.294,-0.065,-0.101
13.97,-0.333,0.031,-0.059
13.98,-0.313,-0.013,0.012
13.99,-0.293,0.229,-0.006
14.0,-0.271,0.296,-0.041
14.01,-0.115,0.102,-0.078
14.02,-0.018,0.015,-0.103
14.03,-0.099,-0.266,-0.002
14.04,-0.097,-0.331,0.089
14.05,-0.263,-0.137,0.203
14.06,-0.342,0.07,0.229
14.07,-0.26,0.226,0.044
14.08,-0.347,0.262,-0.097
14.09,-0.272,-0.058,-0.169
14.1,-0.334,-0.01,-0.177
14.11,-0.354,-0.112,-0.051
14.12,-0.233,-0.019,0.011
14.13,-0.195,0.154,0.055
14.14,-0.16,0.07,0.075
14.15,-0.083,0.102,0.043
14.16,-0.118,-0.054,0.046
14.17,-0.299,-0.172,0.081
14.18,-0.309,-0.195,0.015
14.19,-0.203,0.068,-0.012
14.2,-0.301,0.067,0.055
14.21,-0.341,0.237,-0.046
14.22,-0.378,0.129,-0.053
14.23,-0.288,-0.107,-0.088
14.24,-0.178,0.053,-0.089
14.25,-0.285,-0.054,-0.013
14.26,-0.121,0.009,0.001
14.27,-0.049,0.181,0.06
14.28,-0.106,0.046,0.091
14.29,-0.113,-0.012,0.037
14.3,-0.27,-0.154,0.074
14.31,-0.267,-0.125,0.044
14.32,-0.361,-0.049,-0.02
14.33,-0.51,0.027,0.026
14.34,-0.311,0.076,-0.088
14.35,-0.271,0.213,-0.099
14.36,-0.158,-0.044,-0.055
14.37,-0.115,-0.067,-0.046
14.38,-0.105,-0.026,0.035
14.39,-0.066,0.018,0.074
14.4,-0.201,0.085,0.115
14.41,-0.199,0.16,0.058
14.42,-0.304,0.058,0.027
14.43,-0.375,-0.059,-0.068
14.44,-0.388,-0.064,-0.096
14.45,-0.468,-0.106,-0.014
14.46,-0.233,0.064,-0.064
14.47,-0.166,0.128,-0.065
14.48,-0.201,0.146,-0.004
14.49,-0.114,0.183,-0.022
14.5,-0.124,0.085,0.023
14.51,-0.133,-0.063,0.054
14.52,-0.179,-0.115,0.062
14.53,-0.262,-0.102,0.105
14.54,-0.243,-0.025,-0.011
14.55,-0.321,-0.003,-0.013
14.56,-0.307,0.011,-0.031
14.57,-0.248,0.023,-0.056
14.58,-0.336,0.075,-0.022
14.59,-0.226,-0.008,-0.022
14.6,-0.187,0.29,-0.051
14.61,-0.253,0.128,0.022
14.62,-0.166,0.085,-0.044
14.63,-0.104,-0.069,-0.05
14.64,-0.181,-0.252,0.017
14.65,-0.195,-0.345,0.102
14.66,-0.332,-0.021,0.217
14.67,-0.307,0.012,0.155
14.68,-0.302,0.172,-0.003
14.69,-0.241,0.152,-0.154
14.7,-0.29,-0.052,-0.167
14.71,-0.286,0.023,-0.154
14.72,-0.246,0.029,-0.062
14.73,-0.241,0.048,0.065
14.74,-0.187,0.226,0.04
14.75,-0.117,0.184,0.049
14.76,-0.154,-0.029,0.058
14.77,-0.207,-0.057,0.012
14.78,-0.309,-0.27,0.075
14.79,-0.275,-0.26,0.026
14.8,-0.261,0.021,0.008
14.81,-0.279,0.064,0.009
14.82,-0.279,0.243,-0.012
14.83,-0.33,0.265,-0.066
14.84,-0.227,-0.001,-0.085
14.85,-0.193,0.073,-0.094
14.86,-0.23,-0.042,0.006
14.87,-0.152,-0.019,0.053
14.88,-0.146,0.078,0.038
14.89,-0.176,-0.002,0.083
14.9,-0.247,-0.149,0.036
14.91,-0.285,-0.142,0.082
14.92,-0.196,-0.163,0.036
14.93,-0.323,-0.027,-0.008
14.94,-0.4,0.221,0.003
14.95,-0.239,0.137,-0.065
14.96,-0.191,0.276,-0.124
14.97,-0.168,0.093,-0.115
14.98,-0.229,-0.146,0.011
14.99,-0.175,-0.073,-0.022
15.0,-0.191,-0.04,0.081
15.01,-0.225,-0.064,0.136
15.02,-0.187,0.072,0.079
15.03,-0.271,0.026,0.013
15.04,-0.231,-0.087,-0.054
15.05,-0.298,0.055,-0.041
15.06,-0.361,0.048,-0.003
15.07,-0.295,0.166,-0.065
15.08,-0.231,0.162,-0.092
15.09,-0.21,0.158,-0.062
15.1,-0.246,0.099,0.005
15.11,-0.228,-0.097,0.033
15.12,-0.155,-0.163,0.046
15.13,-0.151,-0.141,0.071
15.14,-0.099,-0.12,0.049
15.15,-0.212,-0.005,0.082
15.16,-0.301,0.162,0.071
15.17,-0.259,0.015,-0.033
15.18,-0.358,0.009,-0.08
15.19,-0.35,0.1,-0.081
15.2,-0.314,0.052,-0.047
15.21,-0.308,0.189,-0.045
15.22,-0.281,0.19,-0.075
15.23,-0.153,0.01,-0.019
15.24,-0.04,-0.015,-0.051
15.25,-0.026,-0.286,0.051
15.26,-0.154,-0.37,0.135
15.27,-0.164,0.025,0.197
15.28,-0.273,0.088,0.161
15.29,-0.329,0.208,-0.019
15.3,-0.323,0.244,-0.171
15.31,-0.358,0.035,-0.142
15.32,-0.388,-0.016,-0.091
15.33,-0.308,-0.043,-0.079
15.34,-0.25,-0.012,0.036
15.35,-0.158,0.132,0.031
15.36,-0.072,0.159,0.096
15.37,-0.095,-0.04,0.078
15.38,-0.147,-0.177,0.007
15.39,-0.218,-0.191,0.036
15.4,-0.263,-0.233,0.013
15.41,-0.328,0.104,0.062
15.42,-0.335,0.229,0.054
15.43,-0.345,0.261,-0.014
15.44,-0.387,0.238,-0.107
15.45,-0.272,-0.11,-0.16
15.46,-0.207,-0.107,-0.157
15.47,-0.231,-0.112,0.004
15.48,-0.164,-0.052,0.136
15.49,-0.077,0.153,0.079
15.5,-0.098,0.087,0.052
15.51,-0.097,-0.119,-0.007
15.52,-0.212,-0.004,0.029
15.53,-0.298,-0.137,0.068
15.54,-0.411,-0.031,0.021
15.55,-0.425,0.16,-0.084
15.56,-0.33,0.133,-0.133
15.57,-0.313,0.128,-0.072
15.58,-0.234,0.059,-0.021
15.59,-0.131,-0.143,0.052
15.6,-0.127,-0.129,0.001
15.61,-0.089,-0.051,0.034
15.62,-0.063,0.043,0.116
15.63,-0.203,0.2,0.124
15.64,-0.297,0.1,0.046
15.65,-0.313,-0.047,-0.086
15.66,-0.4,-0.012,-0.098
15.67,-0.468,-0.042,-0.053
15.68,-0.378,0.019,-0.054
15.69,-0.231,0.203,-0.067
15.7,-0.137,0.109,-0.069
15.71,-0.149,0.144,0.02
15.72,-0.066,0.01,0.019
15.73,-0.065,-0.181,0.062
15.74,-0.144,-0.119,0.07
15.75,-0.179,-0.048,0.059
15.76,-0.36,0.007,0.075
15.77,-0.346,0.174,0.021
15.78,-0.371,0.063,-0.073
15.79,-0.406,-0.077,-0.079
15.8,-0.281,0.031,-0.103
15.81,-0.212,0.018,-0.049
15.82,-0.2,0.131,-0.0
15.83,-0.114,0.307,-0.0
15.84,-0.077,0.042,-0.002
15.85,-0.089,-0.057,-0.066
15.86,-0.186,-0.265,0.055
15.87,-0.24,-0.293,0.182
15.88,-0.318,-0.048,0.172
15.89,-0.398,0.068,0.08
15.9,-0.307,0.084,-0.065
15.91,-0.28,0.224,-0.132
15.92,-0.289,0.026,-0.057
15.93,-0.25,-0.083,-0.084
15.94,-0.187,0.006,-0.064
15.95,-0.201,-0.04,-0.003
15.96,-0.127,0.197,0.033
15.97,-0.188,0.213,0.098
15.98,-0.173,-0.054,0.074
15.99,-0.203,-0.104,-0.042
16.0,-0.27,-0.217,-0.04
16.01,-0.295,-0.183,0.061
16.02,-0.363,0.089,0.077
16.03,-0.275,0.182,0.002
16.04,-0.22,0.151,-0.09
16.05,-0.254,0.211,-0.119
16.06,-0.159,0.025,-0.094
16.07,-0.206,-0.167,-0.023
16.08,-0.293,0.02,0.048
16.09,-0.15,-0.006,0.111
16.1,-0.183,0.127,0.081
16.11,-0.192,0.1,0.014
16.12,-0.166,-0.183,-0.048
16.13,-0.284,-0.109,-0.0
16.14,-0.285,-0.12,0.015
16.15,-0.318,-0.131,0.064
16.16,-0.326,0.278,0.008
16.17,-0.246,0.119,-0.036
16.18,-0.223,0.21,-0.057
16.19,-0.141,0.036,-0.081
16.2,-0.202,-0.101,-0.003
16.21,-0.158,-0.063,0.003
16.22,-0.22,-0.057,0.063
16.23,-0.248,-0.019,0.096
16.24,-0.192,0.138,0.03
16.25,-0.314,0.031,0.014
16.26,-0.334,-0.178,-0.03
16.27,-0.295,0.043,-0.08
16.28,-0.3,0.017,-0.045
16.29,-0.234,0.121,-0.029
16.3,-0.209,0.269,-0.049
16.31,-0.179,0.174,-0.01
16.32,-0.164,0.132,-0.015
16.33,-0.162,-0.074,0.052
16.34,-0.226,-0.269,0.035
16.35,-0.256,-0.121,0.089
16.36,-0.249,-0.091,0.072
16.37,-0.249,-0.023,0.042
16.38,-0.187,0.183,-0.071
16.39,-0.254,0.027,-0.053
16.4,-0.337,-0.055,0.011
16.41,-0.23,0.164,-0.035
16.42,-0.253,0.025,0.023
16.43,-0.286,0.175,0.03
16.44,-0.24,0.187,-0.011
16.45,-0.176,-0.072,-0.035
16.46,-0.149,-0.168,-0.065
16.47,-0.271,-0.203,-0.006
16.48,-0.226,-0.318,0.171
16.49,-0.17,0.066,0.096
16.5,-0.216,0.187,0.075
16.51,-0.221,0.104,-0.088
16.52,-0.283,0.228,-0.112
16.53,-0.309,0.016,-0.086
16.54,-0.25,-0.032,-0.086
16.55,-0.314,0.061,-0.01
16.56,-0.273,0.018,0.025
16.57,-0.261,0.081,0.071
16.58,-0.169,0.099,0.054
16.59,-0.111,-0.187,0.034
16.6,-0.219,-0.214,0.019
16.61,-0.218,-0.13,0.018
16.62,-0.225,-0.097,0.045
16.63,-0.265,0.269,-0.017
16.64,-0.284,0.244,-0.009
16.65,-0.321,0.173,-0.016
16.66,-0.307,0.168,-0.102
16.67,-0.277,-0.115,-0.08
16.68,-0.307,-0.197,-0.043
16.69,-0.222,0.015,0.102
16.7,-0.202,0.005,0.175
16.71,-0.073,0.089,-0.003
16.72,-0.124,-0.047,-0.033
16.73,-0.202,-0.198,-0.008
16.74,-0.17,0.034,-0.005
16.75,-0.445,-0.007,0.104
16.76,-0.357,0.112,0.012
16.77,-0.257,0.323,-0.113
16.78,-0.332,0.039,-0.058
16.79,-0.234,-0.015,-0.105
16.8,-0.25,-0.073,-0.02
16.81,-0.099,-0.242,0.037
16.82,-0.129,-0.047,0.068
16.83,-0.184,0.06,0.149
16.84,-0.16,0.059,0.07
16.85,-0.254,0.137,-0.002
16.86,-0.244,0.025,-0.095
16.87,-0.339,-0.022,-0.084
16.88,-0.466,0.106,-0.024
16.89,-0.309,0.065,-0.042
16.9,-0.257,0.16,-0.103
16.91,-0.237,0.123,-0.042
16.92,-0.135,-0.003,0.037
16.93,-0.166,-0.023,0.095
16.94,-0.152,-0.229,0.063
16.95,-0.104,-0.171,0.061
16.96,-0.173,-0.015,0.032
16.97,-0.294,0.114,0.049
16.98,-0.352,0.154,0.01
16.99,-0.263,0.131,-0.107
17.0,-0.388,-0.043,-0.034
17.01,-0.35,-0.071,-0.092
17.02,-0.212,0.045,-0.066
17.03,-0.317,0.064,0.073
17.04,-0.163,0.253,0.036
17.05,-0.075,0.13,-0.052
17.06,-0.115,-0.156,-0.048
17.07,0.002,-0.274,-0.056
17.08,-0.168,-0.229,0.139
17.09,-0.292,-0.095,0.201
17.1,-0.39,0.194,0.144
17.11,-0.373,0.259,-0.005
17.12,-0.308,0.128,-0.18
17.13,-0.413,0.043,-0.135
17.14,-0.318,-0.103,-0.124
17.15,-0.215,-0.107,-0.032
17.16,-0.163,0.151,0.055
17.17,-0.069,0.044,0.097
17.18,-0.057,0.169,0.068
17.19,-0.062,0.024,0.025
17.2,-0.209,-0.191,0.074
17.21,-0.362,-0.082,0.013
17.22,-0.438,-0.173,0.01
17.23,-0.417,0.057,-0.018
17.24,-0.314,0.242,-0.096
17.25,-0.395,0.102,-0.024
17.26,-0.25,0.043,-0.097
17.27,-0.003,0.061,-0.118
17.28,-0.197,-0.182,0.052
17.29,-0.162,0.01,0.084
17.3,-0.106,0.102,0.108
17.31,-0.181,0.009,0.088
17.32,-0.176,0.13,-0.045
17.33,-0.266,-0.07,-0.039
17.34,-0.303,-0.21,0.0
17.35,-0.349,-0.011,-0.049
17.36,-0.435,-0.009,0.037
17.37,-0.267,0.073,-0.03
17.38,-0.186,0.269,-0.067
17.39,-0.164,0.118,-0.051
17.4,-0.15,0.031,-0.02
17.41,-0.149,-0.053,0.033
17.42,-0.11,-0.183,0.058
17.43,-0.195,-0.038,0.103
17.44,-0.258,0.014,0.125
17.45,-0.244,0.002,0.059
17.46,-0.361,0.118,-0.075
17.47,-0.434,-0.029,-0.064
17.48,-0.361,-0.065,-0.077
17.49,-0.297,0.127,-0.076
17.5,-0.226,0.094,-0.035
17.51,-0.137,0.142,-0.023
17.52,-0.143,0.212,-0.015
17.53,-0.106,0.004,0.026
17.54,-0.15,-0.047,0.05
17.55,-0.163,-0.169,0.061
17.56,-0.25,-0.161,0.111
17.57,-0.351,0.051,0.066
17.58,-0.362,0.041,-0.011
17.59,-0.312,-0.052,-0.101
17.6,-0.207,0.048,-0.129
17.61,-0.238,0.002,-0.039
17.62,-0.272,0.024,0.036
17.63,-0.207,0.231,0.04
17.64,-0.18,0.221,0.016
17.65,-0.197,0.245,-0.054
17.66,-0.143,-0.054,-0.072
17.67,-0.178,-0.251,-0.012
17.68,-0.175,-0.298,0.014
17.69,-0.345,-0.209,0.195
17.7,-0.332,-0.061,0.214
17.71,-0.22,0.231,0.033
17.72,-0.226,0.185,-0.116
17.73,-0.238,0.038,-0.19
17.74,-0.242,0.153,-0.147
17.75,-0.306,-0.046,-0.037
17.76,-0.279,0.04,0.026
17.77,-0.149,0.123,0.013
17.78,-0.223,0.019,0.103
17.79,-0.193,-0.013,0.074
17.8,-0.198,-0.101,0.027
17.81,-0.301,-0.236,0.074
17.82,-0.276,-0.121,-0.007
17.83,-0.26,0.001,0.001
17.84,-0.242,0.133,-0.035
17.85,-0.216,0.29,-0.102
17.86,-0.296,0.187,-0.014
17.87,-0.21,0.037,-0.081
17.88,-0.296,0.03,-0.04
17.89,-0.311,-0.091,0.055
17.9,-0.201,0.023,0.054
17.91,-0.237,0.1,0.041
17.92,-0.135,-0.128,0.047
17.93,-0.078,0.013,-0.036
17.94,-0.239,-0.224,0.02
17.95,-0.196,-0.259,0.049
17.96,-0.277,0.162,0.049
17.97,-0.381,0.044,0.099
17.98,-0.349,0.232,-0.03
17.99,-0.319,0.206,-0.124
18.0,-0.212,0.062,-0.128
18.01,-0.194,-0.114,-0.06
18.02,-0.228,-0.028,-0.007
18.03,-0.144,-0.139,0.06
18.04,-0.127,-0.002,0.088
18.05,-0.113,0.135,0.081
18.06,-0.209,-0.071,0.077
18.07,-0.321,0.065,0.01
18.08,-0.383,-0.067,-0.051
18.09,-0.348,0.016,-0.062
18.1,-0.32,0.184,-0.073
18.11,-0.281,0.092,-0.079
18.12,-0.212,0.203,-0.056
18.13,-0.139,0.106,-0.081
18.14,-0.205,-0.043,0.046
18.15,-0.158,-0.075,0.03
18.16,-0.115,-0.135,0.072
18.17,-0.228,-0.137,0.138
18.18,-0.178,0.116,0.046
18.19,-0.252,0.025,0.003
18.2,-0.303,-0.042,-0.056
18.21,-0.315,0.007,-0.086
18.22,-0.299,0.073,0.008
18.23,-0.316,0.051,-0.002
18.24,-0.321,0.247,-0.018
18.25,-0.271,0.197,-0.038
18.26,-0.197,-0.017,-0.097
18.27,-0.116,-0.051,-0.05
18.28,-0.05,-0.318,0.013
18.29,-0.095,-0.24,0.072
18.3,-0.215,-0.039,0.144
18.31,-0.204,0.105,0.208
18.32,-0.254,0.32,0.046
18.33,-0.374,0.151,-0.075
18.34,-0.375,-0.092,-0.172
18.35,-0.29,-0.039,-0.202
18.36,-0.4,-0.043,-0.034
18.37,-0.336,0.003,0.058
18.38,-0.132,0.169,0.012
18.39,-0.112,0.119,0.034
18.4,-0.049,0.035,0.018
18.41,-0.093,-0.061,0.074
18.42,-0.238,-0.155,0.136
18.43,-0.198,-0.114,-0.009
18.44,-0.367,0.065,0.0
18.45,-0.32,0.007,-0.012
18.46,-0.356,0.216,-0.04
18.47,-0.398,0.11,-0.04
18.48,-0.279,-0.073,-0.083
18.49,-0.33,0.065,-0.062
18.5,-0.115,-0.082,-0.005
18.51,-0.084,0.052,0.054
18.52,-0.146,0.081,0.108
18.53,-0.028,-0.053,0.031
18.54,-0.145,-0.062,0.004
18.55,-0.279,-0.07,0.033
18.56,-0.314,-0.156,0.093
18.57,-0.39,0.097,0.038
18.58,-0.396,0.143,-0.084
18.59,-0.352,0.032,-0.103
18.6,-0.246,0.177,-0.169
18.61,-0.17,0.026,-0.055
18.62,-0.132,-0.132,0.048
18.63,-0.042,0.066,0.032
18.64,-0.114,-0.092,0.087
18.65,-0.14,0.068,0.082
18.66,-0.206,0.116,0.077
18.67,-0.346,0.01,0.062
18.68,-0.376,-0.027,-0.043
18.69,-0.474,-0.055,-0.084
18.7,-0.369,-0.06,-0.067
18.71,-0.229,0.139,-0.084
18.72,-0.213,0.102,0.001
18.73,-0.148,0.067,-0.032
18.74,-0.153,0.2,-0.014
18.75,-0.152,-0.075,0.058
18.76,-0.093,-0.07,0.019
18.77,-0.271,-0.054,0.071
18.78,-0.268,-0.069,0.115
18.79,-0.269,0.11,0.017
18.8,-0.348,0.017,-0.074
18.81,-0.276,-0.132,-0.094
18.82,-0.241,-0.034,-0.056
18.83,-0.242,0.065,0.02
18.84,-0.219,0.073,0.017
18.85,-0.25,0.297,-0.031
18.86,-0.149,0.284,-0.066
18.87,-0.161,-0.026,-0.08
18.88,-0.166,-0.198,-0.036
18.89,-0.099,-0.283,0.024
18.9,-0.282,-0.247,0.166
18.91,-0.34,0.075,0.277
18.92,-0.266,0.131,0.102
18.93,-0.307,0.241,-0.097
18.94,-0.273,0.072,-0.215
18.95,-0.211,-0.126,-0.17
18.96,-0.277,-0.019,-0.128
18.97,-0.295,0.018,0.033
18.98,-0.215,0.05,0.087
18.99,-0.115,0.2,0.017
19.0,-0.174,0.121,0.093
19.01,-0.135,0.039,0.078
19.02,-0.283,-0.146,0.045
19.03,-0.417,-0.256,0.015
19.04,-0.285,-0.159,-0.046
19.05,-0.322,0.056,-0.004
19.06,-0.263,0.128,0.004
19.07,-0.214,0.129,-0.082
19.08,-0.197,0.163,-0.05
19.09,-0.167,-0.033,-0.046
19.1,-0.234,0.095,-0.035
19.11,-0.184,0.072,0.012
19.12,-0.178,0.048,0.027
19.13,-0.223,0.135,0.034
19.14,-0.183,-0.071,0.002
19.15,-0.273,-0.202,0.036
19.16,-0.323,-0.137,0.044
19.17,-0.263,-0.186,0.087
19.18,-0.312,0.026,0.035
19.19,-0.305,0.251,-0.05
19.2,-0.162,0.136,-0.11
19.21,-0.158,0.219,-0.118
19.22,-0.232,0.031,-0.067
19.23,-0.163,-0.132,0.025
19.24,-0.141,0.02,0.052
19.25,-0.265,-0.079,0.103
19.26,-0.297,-0.016,0.102
19.27,-0.272,-0.015,0.019
19.28,-0.314,-0.02,0.012
19.29,-0.261,-0.055,-0.058
19.3,-0.283,0.086,-0.059
19.31,-0.265,0.111,-0.049
19.32,-0.143,0.224,-0.097
19.33,-0.26,0.158,-0.031
19.34,-0.251,0.013,0.006
19.35,-0.187,0.108,-0.004
19.36,-0.204,-0.109,0.036
19.37,-0.216,-0.172,0.027
19.38,-0.295,0.042,0.063
19.39,-0.18,-0.137,0.086
19.4,-0.13,0.075,-0.004
19.41,-0.194,0.031,-0.051
19.42,-0.23,-0.067,-0.063
19.43,-0.278,0.054,-0.014
19.44,-0.332,0.166,0.031
19.45,-0.333,0.139,0.034
19.46,-0.331,0.202,-0.078
19.47,-0.245,0.172,-0.1
19.48,-0.15,-0.156,-0.08
19.49,-0.156,-0.185,-0.002
19.5,-0.087,-0.294,0.087
19.51,-0.139,-0.229,0.196
19.52,-0.209,0.111,0.196
19.53,-0.234,0.162,0.083
19.54,-0.331,0.171,-0.058
19.55,-0.322,0.115,-0.226
19.56,-0.383,-0.068,-0.136
19.57,-0.327,-0.025,-0.085
19.58,-0.309,0.088,-0.001
19.59,-0.229,0.01,0.047
19.6,-0.077,0.197,0.028
19.61,-0.119,0.082,0.069
19.62,-0.099,-0.157,0.073
19.63,-0.181,-0.149,0.046
19.64,-0.283,-0.137,0.058
19.65,-0.24,-0.073,-0.046
19.66,-0.331,0.144,0.001
19.67,-0.298,0.169,0.001
19.68,-0.329,0.256,-0.031
19.69,-0.347,0.098,-0.027
19.7,-0.192,-0.032,-0.137
19.71,-0.226,-0.055,-0.113
19.72,-0.231,0.005,0.028
19.73,-0.115,-0.06,0.125
19.74,-0.104,0.092,0.04
19.75,-0.105,-0.107,0.021
19.76,-0.213,-0.233,0.06
19.77,-0.256,-0.021,0.116
19.78,-0.316,-0.02,0.096
19.79,-0.423,0.14,0.021
19.8,-0.336,0.223,-0.142
19.81,-0.285,0.088,-0.16
19.82,-0.247,0.039,-0.135
19.83,-0.252,-0.017,-0.047
19.84,-0.2,-0.209,0.057
19.85,-0.041,-0.058,0.032
19.86,-0.102,0.056,0.13
19.87,-0.134,0.027,0.14
19.88,-0.187,0.14,0.087
19.89,-0.31,0.008,-0.02
19.9,-0.339,-0.051,-0.11
19.91,-0.488,0.048,-0.033
19.92,-0.31,0.084,-0.097
19.93,-0.257,0.145,-0.098
19.94,-0.306,0.12,-0.059
19.95,-0.125,0.053,-0.01
19.96,-0.12,0.013,0.076
19.97,-0.091,-0.092,0.13
19.98,-0.086,-0.138,0.048
19.99,-0.16,-0.061,0.089
20.0,-0.205,0.015,0.1
20.01,-0.366,0.116,0.022
20.02,-0.375,0.039,-0.071
20.03,-0.309,-0.159,-0.117
20.04,-0.391,0.079,-0.091
20.05,-0.329,0.114,-0.039
20.06,-0.273,0.082,0.032
20.07,-0.186,0.312,-0.046
20.08,-0.025,0.094,-0.076
20.09,-0.024,-0.186,-0.032
20.1,-0.062,-0.224,0.019
20.11,-0.178,-0.267,0.19
20.12,-0.33,-0.027,0.288
20.13,-0.338,0.236,0.115
20.14,-0.372,0.099,0.004
20.15,-0.333,0.107,-0.227
20.16,-0.326,-0.029,-0.229
20.17,-0.336,-0.145,-0.109
20.18,-0.203,0.027,-0.069
20.19,-0.238,0.143,0.04
20.2,-0.076,0.157,0.061
20.21,-0.072,0.251,0.077
20.22,-0.147,-0.015,0.112
20.23,-0.207,-0.218,0.052
20.24,-0.309,-0.174,0.055
20.25,-0.387,-0.234,0.049
20.26,-0.381,-0.084,0.007
20.27,-0.304,0.24,-0.023
20.28,-0.293,0.084,-0.06
20.29,-0.306,0.226,-0.08
20.3,-0.203,0.026,-0.126
20.31,-0.159,-0.05,-0.079
20.32,-0.146,0.08,-0.037
20.33,-0.162,0.069,0.064
20.34,-0.162,0.042,0.092
20.35,-0.116,0.113,0.033
20.36,-0.285,-0.174,0.108
20.37,-0.283,-0.226,0.038
20.38,-0.299,-0.131,0.017
20.39,-0.416,-0.1,0.013
20.4,-0.335,0.149,-0.036
20.41,-0.262,0.248,-0.092
20.42,-0.203,0.125,-0.114
20.43,-0.137,0.053,-0.114
20.44,-0.114,0.002,0.009
20.45,-0.098,-0.102,0.04
20.46,-0.202,-0.018,0.119
20.47,-0.197,0.096,0.112
20.48,-0.215,0.02,0.023
20.49,-0.365,-0.02,0.011
20.5,-0.358,-0.085,-0.053
20.51,-0.38,-0.105,-0.028
20.52,-0.358,0.055,-0.036
20.53,-0.178,0.079,-0.058
20.54,-0.178,0.279,-0.077
20.55,-0.193,0.145,-0.028
20.56,-0.161,0.091,0.039
20.57,-0.141,-0.031,-0.006
20.58,-0.178,-0.117,-0.005
20.59,-0.221,-0.176,0.055
20.6,-0.252,0.004,0.048
20.61,-0.364,0.019,0.082
20.62,-0.312,-0.029,0.0
20.63,-0.169,0.056,-0.098
20.64,-0.236,-0.113,-0.021
20.65,-0.247,0.087,0.007
20.66,-0.237,0.258,-0.015
20.67,-0.258,0.148,-0.011
20.68,-0.213,0.283,-0.093
20.69,-0.116,0.044,-0.137
20.7,-0.177,-0.26,0.004
20.71,-0.234,-0.215,0.048
20.72,-0.297,-0.263,0.212
20.73,-0.254,-0.101,0.215
20.74,-0.164,0.221,0.053
20.75,-0.291,0.096,-0.018
20.76,-0.243,0.097,-0.135
20.77,-0.293,0.056,-0.126
20.78,-0.277,-0.108,-0.058
20.79,-0.307,0.079,-0.053
20.8,-0.302,0.125,0.036
20.81,-0.177,0.116,0.044
20.82,-0.16,0.239,0.013
20.83,-0.241,-0.079,0.043
20.84,-0.225,-0.327,-0.009
20.85,-0.172,-0.135,0.013
20.86,-0.171,-0.15,0.059
20.87,-0.301,0.075,0.085
20.88,-0.291,0.279,0.004
20.89,-0.281,0.124,-0.008
20.9,-0.323,0.171,-0.057
20.91,-0.274,0.041,-0.131
20.92,-0.303,-0.16,-0.084
20.93,-0.205,0.001,-0.046
20.94,-0.147,0.114,0.067
20.95,-0.174,0.006,0.098
20.96,-0.14,-0.047,0.03
20.97,-0.123,-0.167,0.045
20.98,-0.164,-0.155,0.073
20.99,-0.309,-0.032,0.088
21.0,-0.442,0.049,0.09
21.01,-0.339,0.204,-0.072
21.02,-0.317,0.228,-0.121
21.03,-0.226,0.028,-0.085
21.04,-0.115,0.013,-0.094
21.05,-0.251,-0.055,0.01
21.06,-0.184,-0.212,0.052
21.07,-0.107,0.018,0.068
21.08,-0.191,0.05,0.087
21.09,-0.198,0.014,0.073
21.1,-0.302,0.114,-0.012
21.11,-0.351,-0.018,-0.059
21.12,-0.337,-0.005,-0.07
21.13,-0.334,0.116,-0.042
21.14,-0.238,0.125,-0.029
21.15,-0.219,0.104,-0.055
21.16,-0.262,0.12,-0.05
21.17,-0.199,0.018,0.007
21.18,-0.147,-0.065,0.048
21.19,-0.137,-0.126,0.043
21.2,-0.167,-0.149,0.04
21.21,-0.163,-0.048,0.056
21.22,-0.261,0.103,0.091
21.23,-0.258,0.076,-0.001
21.24,-0.299,0.083,-0.074
21.25,-0.354,-0.084,-0.064
21.26,-0.274,0.104,-0.037
21.27,-0.326,0.111,-0.001
21.28,-0.365,0.101,0.042
21.29,-0.189,0.158,-0.072
21.3,-0.036,0.009,-0.083
21.31,-0.1,-0.301,-0.027
21.32,-0.075,-0.195,0.034
21.33,-0.22,-0.192,0.199
21.34,-0.232,0.014,0.181
21.35,-0.288,0.281,0.067
21.36,-0.352,0.187,-0.042
21.37,-0.33,0.089,-0.149
21.38,-0.347,-0.014,-0.165
21.39,-0.329,-0.091,-0.085
21.4,-0.288,-0.015,-0.016
21.41,-0.204,0.112,0.027
21.42,-0.078,0.101,0.025
21.43,-0.067,0.162,0.02
21.44,-0.108,-0.038,0.039
21.45,-0.164,-0.236,0.059
21.46,-0.232,-0.14,0.042
21.47,-0.356,-0.09,0.072
21.48,-0.402,0.079,0.047
21.49,-0.357,0.274,-0.045
21.5,-0.396,0.081,-0.07
21.51,-0.278,0.124,-0.13
21.52,-0.224,-0.046,-0.105
21.53,-0.193,-0.152,-0.001
21.54,-0.104,0.018,0.022
21.55,-0.084,0.093,0.114
21.56,-0.145,-0.022,0.135
21.57,-0.167,0.066,0.008
21.58,-0.254,-0.121,0.032
21.59,-0.271,-0.131,-0.008
21.6,-0.418,0.08,-0.013
21.61,-0.496,-0.01,-0.004
21.62,-0.277,0.181,-0.111
21.63,-0.171,0.171,-0.12
21.64,-0.151,-0.019,-0.051
21.65,-0.158,-0.096,0.017
21.66,-0.11,0.014,0.053
21.67,-0.086,-0.086,0.098
21.68,-0.192,0.057,0.072
21.69,-0.213,0.131,0.034
21.7,-0.225,0.043,0.044
21.71,-0.356,0.031,0.002
21.72,-0.501,-0.104,-0.091
21.73,-0.39,-0.111,-0.098
21.74,-0.24,0.139,-0.07
21.75,-0.255,0.119,-0.01
21.76,-0.189,0.217,-0.011
21.77,-0.087,0.183,-0.029
21.78,-0.106,0.089,0.018
21.79,-0.07,-0.116,0.017
21.8,-0.187,-0.208,0.083
21.81,-0.261,-0.222,0.1
21.82,-0.306,0.025,0.087
21.83,-0.403,0.056,-0.009
21.84,-0.353,-0.02,-0.117
21.85,-0.33,0.09,-0.108
21.86,-0.246,0.007,-0.011
21.87,-0.245,0.087,-0.005
21.88,-0.18,0.213,-0.015
21.89,-0.136,0.207,-0.018
21.9,-0.082,0.094,-0.064
21.91,-0.148,-0.008,-0.047
21.92,-0.172,-0.337,0.05
21.93,-0.244,-0.212,0.098
21.94,-0.325,-0.104,0.202
21.95,-0.317,-0.007,0.137
21.96,-0.305,0.233,-0.055
21.97,-0.263,0.131,-0.136
21.98,-0.182,-0.005,-0.195
21.99,-0.245,0.081,-0.107
22.0,-0.254,-0.032,-0.003
22.01,-0.246,0.097,0.084
22.02,-0.191,0.173,0.065
22.03,-0.175,0.059,0.074
22.04,-0.201,-0.021,0.036
22.05,-0.211,-0.174,0.026
22.06,-0.363,-0.333,0.046
22.07,-0.292,-0.088,-0.006
22.08,-0.244,0.036,-0.014
22.09,-0.24,0.163,-0.003
22.1,-0.223,0.371,-0.056
22.11,-0.284,0.087,-0.04
22.12,-0.218,0.054,-0.067
22.13,-0.233,-0.036,-0.081
22.14,-0.305,-0.139,0.041
22.15,-0.173,0.092,0.03
22.16,-0.244,0.114,0.088
22.17,-0.188,-0.076,0.024
22.18,-0.109,-0.021,-0.072
22.19,-0.288,-0.219,0.044
22.2,-0.21,-0.164,0.059
22.21,-0.283,0.069,0.033
22.22,-0.339,0.142,0.042
22.23,-0.167,0.2,-0.112
22.24,-0.295,0.197,-0.071
22.25,-0.269,0.036,-0.059
22.26,-0.22,-0.015,-0.021
22.27,-0.231,-0.096,0.039
22.28,-0.187,-0.061,0.024
22.29,-0.163,-0.038,0.098
22.3,-0.187,0.057,0.129
22.31,-0.226,-0.114,0.073
22.32,-0.245,0.004,-0.038
22.33,-0.321,-0.094,-0.061
22.34,-0.407,0.042,-0.03
22.35,-0.283,0.276,-0.089
22.36,-0.252,0.178,-0.079
22.37,-0.296,0.199,-0.051
22.38,-0.171,0.122,-0.034
22.39,-0.144,-0.107,0.002
22.4,-0.156,-0.198,0.052
22.41,-0.194,-0.134,0.109
22.42,-0.162,-0.211,0.122
22.43,-0.246,0.056,0.045
22.44,-0.261,0.188,0.013
22.45,-0.217,0.037,-0.059
22.46,-0.32,0.079,-0.127
22.47,-0.332,-0.032,-0.075
22.48,-0.199,0.051,-0.044
22.49,-0.29,0.212,0.029
22.5,-0.327,0.195,0.022
22.51,-0.163,0.057,-0.085
22.52,-0.182,-0.028,-0.048
22.53,-0.084,-0.352,0.05
22.54,-0.162,-0.311,0.135
22.55,-0.256,-0.09,0.235
22.56,-0.166,0.025,0.095
22.57,-0.253,0.264,-0.035
22.58,-0.26,0.191,-0.123
22.59,-0.311,0.051,-0.144
22.6,-0.401,0.04,-0.097
22.61,-0.34,-0.051,-0.069
22.62,-0.408,0.005,-0.018
22.63,-0.202,0.166,0.042
22.64,-0.152,0.098,0.11
22.65,-0.104,-0.031,0.072
22.66,-0.029,-0.141,-0.022
22.67,-0.165,-0.324,0.042
22.68,-0.184,-0.053,0.028
22.69,-0.34,0.07,0.062
22.7,-0.365,0.186,0.031
22.71,-0.337,0.344,-0.113
22.72,-0.445,0.141,-0.063
22.73,-0.311,-0.066,-0.168
22.74,-0.228,-0.117,-0.079
22.75,-0.245,-0.105,0.069
22.76,-0.042,0.063,0.063
22.77,-0.092,0.064,0.102
22.78,-0.033,0.087,0.023
22.79,-0.072,0.003,-0.023
22.8,-0.332,-0.154,0.104
22.81,-0.308,-0.19,0.054
22.82,-0.469,0.06,0.039
22.83,-0.443,0.065,-0.029
22.84,-0.319,0.137,-0.118
22.85,-0.234,0.227,-0.121
22.86,-0.136,0.03,-0.081
22.87,-0.189,-0.1,0.014
22.88,-0.066,-0.11,0.001
22.89,-0.08,-0.069,0.095
22.9,-0.167,0.072,0.142
22.91,-0.21,0.159,0.119
22.92,-0.336,-0.022,0.044
22.93,-0.361,0.017,-0.105
22.94,-0.409,-0.082,-0.076
22.95,-0.385,-0.089,-0.055
22.96,-0.259,0.17,-0.079
22.97,-0.216,0.16,-0.093
22.98,-0.184,0.14,-0.049
22.99,-0.157,0.195,-0.014
23.0,-0.071,-0.026,0.068
23.01,-0.122,-0.133,0.109
23.02,-0.195,-0.158,0.081
23.03,-0.228,-0.127,0.073
23.04,-0.281,0.007,0.057
23.05,-0.312,0.236,-0.034
23.06,-0.274,-0.086,-0.119
23.07,-0.351,0.026,-0.123
23.08,-0.291,0.016,-0.056
23.09,-0.213,0.014,0.052
23.1,-0.307,0.244,0.069
23.11,-0.2,0.1,0.023
23.12,-0.05,0.118,-0.097
23.13,-0.09,-0.149,-0.099
23.14,-0.192,-0.368,0.109
23.15,-0.247,-0.037,0.193
23.16,-0.27,0.079,0.198
23.17,-0.298,0.141,0.036
23.18,-0.34,0.168,-0.124
23.19,-0.322,0.063,-0.144
23.2,-0.295,-0.146,-0.083
23.21,-0.253,0.014,-0.072
23.22,-0.291,-0.03,-0.014
23.23,-0.141,0.129,0.017
23.24,-0.059,0.263,0.038
23.25,-0.133,0.059,0.082
23.26,-0.152,-0.068,0.016
23.27,-0.293,-0.134,0.025
23.28,-0.302,-0.257,0.058
23.29,-0.369,-0.03,0.032
23.3,-0.38,0.093,-0.016
23.31,-0.286,0.152,-0.083
23.32,-0.247,0.155,-0.043
23.33,-0.222,0.056,-0.059
23.34,-0.132,-0.068,-0.067
23.35,-0.2,0.041,0.03
23.36,-0.122,0.004,0.096
23.37,-0.194,0.144,0.067
23.38,-0.234,0.073,0.021
23.39,-0.232,-0.202,-0.036
23.4,-0.3,-0.12,-0.05
23.41,-0.343,-0.143,0.048
23.42,-0.337,-0.136,0.069
23.43,-0.28,0.21,0.029
23.44,-0.128,0.234,-0.037
23.45,-0.174,0.123,-0.067
23.46,-0.178,0.132,-0.093
23.47,-0.189,-0.081,-0.006
23.48,-0.223,-0.059,0.034
23.49,-0.236,0.011,0.016
23.5,-0.25,-0.039,0.099
23.51,-0.261,0.102,0.038
23.52,-0.257,-0.014,0.014
23.53,-0.298,-0.093,-0.007
23.54,-0.219,-0.082,-0.074
23.55,-0.334,0.068,0.011
23.56,-0.232,0.096,-0.054
23.57,-0.19,0.281,-0.062
23.58,-0.268,0.171,-0.003
23.59,-0.256,0.113,0.019
23.6,-0.198,-0.086,0.036
23.61,-0.154,-0.213,0.017
23.62,-0.214,-0.174,0.032
23.63,-0.255,-0.016,0.106
23.64,-0.217,0.015,0.054
23.65,-0.229,0.229,-0.012
23.66,-0.22,-0.005,-0.098
23.67,-0.26,-0.119,-0.088
23.68,-0.31,0.026,-0.057
23.69,-0.301,0.038,0.055
23.7,-0.326,0.198,0.12
23.71,-0.251,0.359,-0.023
23.72,-0.16,0.019,-0.112
23.73,-0.089,-0.088,-0.126
23.74,-0.088,-0.291,-0.065
23.75,-0.21,-0.302,0.169
23.76,-0.251,-0.088,0.242
23.77,-0.27,0.171,0.14
23.78,-0.278,0.139,-0.019
23.79,-0.246,0.166,-0.168
23.8,-0.322,0.087,-0.158
23.81,-0.324,-0.092,-0.114
23.82,-0.292,-0.016,-0.022
23.83,-0.289,0.227,0.068
23.84,-0.129,0.057,0.052
23.85,-0.131,0.174,0.047
23.86,-0.169,-0.081,0.091
23.87,-0.239,-0.281,0.061
23.88,-0.313,-0.204,0.046
23.89,-0.274,-0.286,-0.022
23.9,-0.281,0.128,-0.049
23.91,-0.29,0.281,-0.01
23.92,-0.233,0.204,-0.048
23.93,-0.268,0.258,-0.086
23.94,-0.201,0.028,-0.076
23.95,-0.292,-0.141,-0.012
23.96,-0.267,-0.061,0.008
23.97,-0.241,0.029,0.101
23.98,-0.225,0.093,0.063
23.99,-0.12,0.039,-0.043
24.0,-0.112,-0.19,-0.016
24.01,-0.187,-0.144,0.033
24.02,-0.221,-0.058,0.015
24.03,-0.366,-0.018,0.111
24.04,-0.322,0.245,-0.015
24.05,-0.28,0.342,-0.087
24.06,-0.286,0.075,-0.079
24.07,-0.257,0.056,-0.117
24.08,-0.274,-0.197,0.009
24.09,-0.178,-0.205,0.021
24.1,-0.102,-0.051,0.096
24.11,-0.135,0.026,0.142
24.12,-0.146,0.162,0.094
24.13,-0.254,0.11,0.031
24.14,-0.28,-0.055,-0.092
24.15,-0.394,-0.054,-0.071
24.16,-0.428,0.072,-0.032
24.17,-0.324,0.077,-0.041
24.18,-0.264,0.203,-0.107
24.19,-0.231,0.116,-0.087
24.2,-0.198,0.056,-0.011
24.21,-0.063,-0.031,0.055
24.22,-0.083,-0.179,0.096
24.23,-0.116,-0.117,0.083
24.24,-0.188,0.011,0.08
24.25,-0.239,0.035,0.058
24.26,-0.292,0.162,-0.042
24.27,-0.348,-0.01,-0.121
24.28,-0.337,-0.12,-0.092
24.29,-0.294,0.046,-0.053
24.3,-0.302,0.13,0.048
24.31,-0.275,0.189,0.024
24.32,-0.222,0.285,-0.019
24.33,-0.049,0.072,-0.109
24.34,-0.052,-0.147,-0.076
24.35,-0.095,-0.335,0.037
24.36,-0.244,-0.323,0.219
24.37,-0.345,-0.11,0.256
24.38,-0.248,0.198,0.117
24.39,-0.322,0.21,-0.036
24.4,-0.303,0.181,-0.161
24.41,-0.371,0.06,-0.185
24.42,-0.298,-0.128,-0.133
24.43,-0.281,0.027,-0.086
24.44,-0.188,0.065,0.008
24.45,-0.162,0.054,0.039
24.46,-0.116,0.174,0.097
24.47,-0.118,0.009,0.132
24.48,-0.17,-0.197,0.082
24.49,-0.307,-0.185,0.05
24.5,-0.237,-0.122,0.025
24.51,-0.337,0.059,-0.001
24.52,-0.312,0.247,-0.098
24.53,-0.302,0.093,-0.078
24.54,-0.305,0.177,-0.132
24.55,-0.24,-0.01,-0.094
24.56,-0.231,-0.104,-0.032
24.57,-0.179,0.039,0.06
24.58,-0.208,0.094,0.11
24.59,-0.059,-0.043,0.073
24.6,-0.034,0.15,0.003
24.61,-0.194,-0.227,0.046
24.62,-0.318,-0.066,0.084
24.63,-0.342,-0.121,0.059
24.64,-0.468,-0.081,0.072
24.65,-0.364,0.139,-0.108
24.66,-0.281,0.105,-0.144
24.67,-0.213,0.068,-0.11
24.68,-0.18,0.064,-0.07
24.69,-0.163,0.05,0.036
24.7,-0.021,-0.102,0.025
24.71,-0.078,0.104,0.07
24.72,-0.178,0.05,0.134
24.73,-0.202,0.053,0.067
24.74,-0.37,0.011,0.004
24.75,-0.408,-0.126,-0.06
24.76,-0.432,-0.08,-0.089
24.77,-0.425,-0.014,-0.023
24.78,-0.184,0.095,-0.083
24.79,-0.178,0.204,-0.078
24.8,-0.179,0.175,-0.028
24.81,-0.099,0.101,0.012
24.82,-0.101,0.008,0.037
24.83,-0.129,-0.107,0.047
24.84,-0.226,-0.066,0.076
24.85,-0.232,-0.068,0.068
24.86,-0.354,0.014,0.042
24.87,-0.389,-0.055,-0.03
24.88,-0.231,-0.05,-0.081
24.89,-0.271,-0.112,-0.029
24.9,-0.274,0.065,0.02
24.91,-0.228,0.284,0.024
24.92,-0.295,0.226,-0.023
24.93,-0.152,0.276,-0.154
24.94,-0.135,-0.004,-0.114
24.95,-0.182,-0.329,-0.046
24.96,-0.144,-0.295,0.09
24.97,-0.31,-0.2,0.27
24.98,-0.287,0.035,0.266
24.99,-0.29,0.198,0.079
25.0,-0.185,0.114,-0.099
25.01,-0.185,0.046,-0.243
25.02,-0.29,-0.017,-0.172
25.03,-0.323,-0.045,-0.072
25.04,-0.282,0.14,-0.038
25.05,-0.281,0.255,0.043
25.06,-0.15,0.112,0.042
25.07,-0.191,0.128,0.049
25.08,-0.182,-0.109,0.054
25.09,-0.224,-0.331,0.075
25.1,-0.28,-0.116,0.059
25.11,-0.232,-0.16,0.029
25.12,-0.229,0.047,0.004
25.13,-0.218,0.312,-0.054
25.14,-0.282,0.013,-0.025
25.15,-0.307,0.158,-0.049
25.16,-0.308,0.009,-0.048
25.17,-0.308,-0.048,0.008
25.18,-0.222,0.159,-0.044
25.19,-0.222,0.056,0.028
25.2,-0.164,-0.035,-0.011
25.21,-0.11,-0.024,-0.009
25.22,-0.243,-0.232,0.131
25.23,-0.17,-0.165,0.08
25.24,-0.237,0.022,0.072
25.25,-0.34,-0.019,0.064
25.26,-0.281,0.261,-0.073
25.27,-0.273,0.181,-0.156
25.28,-0.259,0.014,-0.131
25.29,-0.224,0.111,-0.097
25.3,-0.214,-0.018,0.011
25.31,-0.212,-0.102,0.047
25.32,-0.185,0.038,0.049
25.33,-0.166,0.004,0.096
25.34,-0.202,-0.057,0.079
25.35,-0.228,0.024,0.026
25.36,-0.318,-0.083,-0.011
25.37,-0.343,0.047,-0.028
25.38,-0.246,0.151,-0.041
25.39,-0.236,0.11,-0.091
25.4,-0.279,0.192,-0.079
25.41,-0.231,0.047,-0.016
25.42,-0.234,0.004,-0.008
25.43,-0.215,-0.047,0.008
25.44,-0.218,-0.165,0.055
25.45,-0.188,-0.102,0.092
25.46,-0.099,0.05,0.064
25.47,-0.25,0.003,0.08
25.48,-0.22,0.039,-0.052
25.49,-0.222,-0.001,-0.087
25.5,-0.331,-0.039,0.043
25.51,-0.32,0.152,-0.01
25.52,-0.34,0.247,0.008
25.53,-0.333,0.173,-0.052
25.54,-0.202,0.182,-0.185
25.55,-0.14,-0.075,-0.129
25.56,-0.047,-0.391,0.005
25.57,-0.115,-0.255,0.148
25.58,-0.246,-0.111,0.321
25.59,-0.17,0.097,0.197
25.6,-0.216,0.344,-0.018
25.61,-0.345,0.108,-0.085
25.62,-0.31,0.023,-0.172
25.63,-0.414,-0.099,-0.116
25.64,-0.309,-0.094,-0.095
25.65,-0.311,0.034,-0.022
25.66,-0.275,0.158,0.063
25.67,-0.08,0.15,0.082
25.68,-0.092,0.099,0.02
25.69,-0.136,-0.145,0.019
25.7,-0.226,-0.306,0.035
25.71,-0.23,-0.094,0.05
25.72,-0.261,-0.031,0.076
25.73,-0.314,0.164,0.019
25.74,-0.294,0.289,-0.078
25.75,-0.372,0.065,-0.022
25.76,-0.325,0.05,-0.104
25.77,-0.291,-0.047,-0.092
25.78,-0.274,-0.144,0.004
25.79,-0.108,0.158,-0.047
25.8,-0.112,0.119,0.043
25.81,-0.051,-0.024,0.028
25.82,-0.094,-0.011,0.033
25.83,-0.256,-0.235,0.125
25.84,-0.283,-0.095,0.1
25.85,-0.372,0.067,0.062
25.86,-0.425,0.115,0.0
25.87,-0.329,0.16,-0.176
25.88,-0.316,0.112,-0.128
25.89,-0.21,-0.139,-0.048
25.9,-0.121,-0.025,-0.002
25.91,-0.154,-0.067,0.038
25.92,-0.099,-0.125,0.048
25.93,-0.073,0.235,0.059
25.94,-0.149,0.103,0.099
25.95,-0.338,-0.007,0.05
25.96,-0.369,0.0,-0.053
25.97,-0.36,-0.128,-0.093
25.98,-0.412,0.016,-0.091
25.99,-0.357,0.164,-0.034
26.0,-0.255,0.098,-0.023
26.01,-0.206,0.161,-0.058
26.02,-0.147,0.106,0.007
26.03,-0.079,-0.077,0.041
26.04,-0.113,-0.043,0.017
26.05,-0.163,-0.081,0.048
26.06,-0.119,-0.085,0.081
26.07,-0.305,0.114,0.027
26.08,-0.384,-0.006,0.049
26.09,-0.278,-0.007,-0.098
26.1,-0.303,-0.023,-0.089
26.11,-0.359,-0.055,-0.006
26.12,-0.222,0.163,0.007
26.13,-0.294,0.286,0.025
26.14,-0.198,0.166,-0.021
26.15,-0.069,0.147,-0.148
26.16,-0.061,-0.177,-0.117
26.17,-0.169,-0.422,0.073
26.18,-0.256,-0.189,0.223
26.19,-0.318,-0.036,0.289
26.2,-0.26,0.127,0.092
26.21,-0.31,0.229,-0.11
26.22,-0.312,0.104,-0.181
26.23,-0.259,-0.08,-0.141
26.24,-0.281,-0.034,-0.115
26.25,-0.274,-0.024,-0.035
26.26,-0.257,0.089,0.011
26.27,-0.167,0.253,0.061
26.28,-0.087,0.148,0.082
26.29,-0.132,0.058,0.046
26.3,-0.229,-0.198,0.028
26.31,-0.256,-0.332,0.007
26.32,-0.292,-0.079,-0.026
26.33,-0.365,0.001,0.036
26.34,-0.298,0.181,-0.02
26.35,-0.253,0.274,-0.062
26.36,-0.302,0.044,-0.062
26.37,-0.213,0.019,-0.046
26.38,-0.204,-0.121,0.039
26.39,-0.141,0.076,0.035
26.4,-0.162,0.175,0.057
26.41,-0.156,-0.046,0.055
26.42,-0.219,-0.018,-0.005
26.43,-0.328,-0.213,0.062
26.44,-0.297,-0.294,0.074
26.45,-0.286,-0.01,-0.009
26.46,-0.365,0.046,-0.004
26.47,-0.233,0.19,-0.069
26.48,-0.202,0.29,-0.143
26.49,-0.161,0.096,-0.089
26.5,-0.139,-0.052,-0.042
26.51,-0.13,0.033,0.019
26.52,-0.192,-0.028,0.087
26.53,-0.225,-0.009,0.108
26.54,-0.236,0.075,0.058
26.55,-0.316,-0.085,0.029
26.56,-0.324,-0.138,0.001
26.57,-0.315,-0.064,-0.057
26.58,-0.345,-0.008,-0.036
26.59,-0.276,0.205,-0.047
26.6,-0.198,0.22,-0.077
26.61,-0.167,0.2,-0.068
26.62,-0.193,0.162,0.012
26.63,-0.176,-0.019,0.058
26.64,-0.133,-0.121,0.015
26.65,-0.241,-0.188,0.055
26.66,-0.248,-0.144,0.1
26.67,-0.256,0.006,0.069
26.68,-0.3,0.044,0.038
26.69,-0.208,-0.015,-0.073
26.7,-0.257,0.025,-0.117
26.71,-0.343,0.074,-0.009
26.72,-0.254,0.049,0.012
26.73,-0.283,0.303,-0.003
26.74,-0.249,0.228,-0.049
26.75,-0.176,0.001,-0.119
26.76,-0.173,-0.061,-0.115
26.77,-0.136,-0.367,0.055
26.78,-0.19,-0.272,0.225
26.79,-0.236,-0.033,0.239
26.8,-0.196,0.063,0.137
26.81,-0.2,0.216,-0.088
26.82,-0.246,0.174,-0.175
26.83,-0.303,-0.074,-0.159
26.84,-0.403,-0.015,-0.12
26.85,-0.325,0.095,-0.042
26.86,-0.272,0.087,0.035
26.87,-0.296,0.292,0.03
26.88,-0.124,0.102,0.036
26.89,-0.08,-0.033,0.04
26.9,-0.142,-0.243,0.059
26.91,-0.242,-0.31,0.083
26.92,-0.188,-0.205,0.032
26.93,-0.273,0.118,0.034
26.94,-0.295,0.164,0.009
26.95,-0.305,0.271,-0.054
26.96,-0.388,0.226,-0.06
26.97,-0.306,-0.075,-0.118
26.98,-0.293,0.037,-0.139
26.99,-0.27,-0.108,-0.029
27.0,-0.161,0.071,0.006
27.01,-0.053,0.137,0.108
27.02,-0.089,-0.06,0.081
27.03,-0.078,-0.142,0.05
27.04,-0.216,-0.235,0.103
27.05,-0.257,-0.146,0.106
27.06,-0.377,0.104,0.025
27.07,-0.439,0.204,-0.074
27.08,-0.301,0.22,-0.152
27.09,-0.255,0.18,-0.184
27.1,-0.281,0.046,-0.081
27.11,-0.187,-0.168,-0.004
27.12,-0.114,-0.026,0.055
27.13,-0.078,-0.036,0.092
27.14,-0.091,0.018,0.127
27.15,-0.158,0.169,0.12
27.16,-0.274,-0.014,0.059
27.17,-0.375,-0.073,-0.044
27.18,-0.407,-0.064,-0.088
27.19,-0.388,-0.013,-0.069
27.2,-0.29,0.169,-0.054
27.21,-0.314,0.155,-0.054
27.22,-0.236,0.1,-0.049
27.23,-0.188,0.134,-0.009
27.24,-0.114,-0.081,0.035
27.25,-0.061,-0.144,0.04
27.26,-0.137,-0.065,0.058
27.27,-0.194,-0.086,0.122
27.28,-0.241,0.101,0.064
27.29,-0.337,0.137,0.027
27.3,-0.266,-0.009,-0.041
27.31,-0.3,-0.079,-0.095
27.32,-0.368,-0.052,-0.102
27.33,-0.309,-0.025,0.012
27.34,-0.307,0.282,0.018
27.35,-0.198,0.287,-0.036
27.36,-0.114,0.104,-0.122
27.37,-0.029,-0.051,-0.094
27.38,-0.051,-0.386,0.038
27.39,-0.208,-0.236,0.222
27.4,-0.235,-0.082,0.263
27.41,-0.28,0.195,0.148
27.42,-0.347,0.179,-0.057
27.43,-0.324,0.137,-0.201
27.44,-0.384,-0.032,-0.109
27.45,-0.399,-0.122,-0.094
27.46,-0.282,0.035,-0.083
27.47,-0.132,-0.067,-0.032
27.48,-0.145,0.321,0.015
27.49,-0.116,0.197,0.102
27.5,-0.03,-0.02,0.037
27.51,-0.135,-0.123,0.013
27.52,-0.324,-0.274,0.088
27.53,-0.323,-0.184,0.067
27.54,-0.415,0.072,0.071
27.55,-0.364,0.121,0.019
27.56,-0.261,0.225,-0.108
27.57,-0.338,0.122,-0.121
27.58,-0.21,-0.098,-0.115
27.59,-0.119,-0.026,-0.094
27.6,-0.199,0.061,0.028
27.61,-0.078,0.042,0.05
27.62,-0.146,0.219,0.075
27.63,-0.174,0.027,0.055
27.64,-0.205,-0.06,0.023
27.65,-0.302,-0.237,0.079
27.66,-0.362,-0.169,0.042
27.67,-0.427,-0.072,-0.01
27.68,-0.335,0.09,-0.024
27.69,-0.132,0.187,-0.088
27.7,-0.206,0.161,-0.072
27.71,-0.195,0.069,-0.018
27.72,-0.13,-0.15,-0.009
27.73,-0.177,0.021,-0.033
27.74,-0.166,-0.019,0.055
27.75,-0.249,0.068,0.109
27.76,-0.219,0.196,0.062
27.77,-0.323,-0.013,-0.03
27.78,-0.355,-0.105,-0.075
27.79,-0.298,-0.032,-0.07
27.8,-0.306,-0.056,0.023
27.81,-0.228,0.1,-0.015
27.82,-0.194,0.211,-0.062
27.83,-0.224,0.117,-0.031
27.84,-0.194,0.197,0.002
27.85,-0.19,0.016,0.0
27.86,-0.163,-0.227,0.033
27.87,-0.198,-0.076,0.038
27.88,-0.22,-0.061,0.063
27.89,-0.333,0.018,0.085
27.9,-0.303,0.118,-0.006
27.91,-0.15,0.033,-0.098
27.92,-0.302,-0.064,-0.06
27.93,-0.304,0.038,-0.001
27.94,-0.233,0.029,0.024
27.95,-0.276,0.267,0.008
27.96,-0.202,0.195,-0.041
27.97,-0.099,0.012,-0.077
27.98,-0.119,-0.116,-0.082
27.99,-0.223,-0.262,0.045
28.0,-0.318,-0.307,0.227
28.01,-0.243,0.041,0.173
28.02,-0.265,0.08,0.079
28.03,-0.235,0.137,-0.101
28.04,-0.202,0.205,-0.197
28.05,-0.319,-0.103,-0.039
28.06,-0.248,0.001,-0.089
28.07,-0.284,0.038,-0.021
28.08,-0.261,0.032,0.076
28.09,-0.11,0.324,-0.005
28.1,-0.196,0.155,0.019
28.11,-0.22,-0.209,0.021
28.12,-0.229,-0.169,-0.032
28.13,-0.323,-0.267,0.102
28.14,-0.22,-0.083,0.048
28.15,-0.271,0.115,0.023
28.16,-0.255,0.332,-0.012
28.17,-0.239,0.164,-0.037
28.18,-0.304,0.147,-0.063
28.19,-0.166,-0.148,-0.122
28.2,-0.255,-0.114,-0.028
28.21,-0.305,0.053,0.079
28.22,-0.246,0.004,0.073
28.23,-0.212,0.22,0.028
28.24,-0.078,-0.099,-0.04
28.25,-0.175,-0.214,-0.023
28.26,-0.272,-0.177,0.083
28.27,-0.219,-0.122,0.089
28.28,-0.359,0.159,0.078
28.29,-0.225,0.288,-0.069
28.3,-0.274,0.208,-0.071
28.31,-0.284,0.117,-0.106
28.32,-0.22,-0.084,-0.058
28.33,-0.289,-0.214,0.007
28.34,-0.182,-0.142,0.013
28.35,-0.161,0.046,0.067
28.36,-0.109,0.087,0.116
28.37,-0.121,0.183,0.042
28.38,-0.275,0.056,0.005
28.39,-0.302,-0.138,-0.057
28.4,-0.344,0.046,-0.06
28.41,-0.403,0.066,0.005
28.42,-0.31,0.126,-0.046
28.43,-0.253,0.2,-0.044
28.44,-0.2,0.093,-0.024
28.45,-0.162,-0.042,0.049
28.46,-0.155,-0.099,0.05
28.47,-0.056,-0.319,0.024
28.48,-0.196,-0.039,0.051
28.49,-0.187,0.052,0.062
28.5,-0.281,0.134,0.064
28.51,-0.333,0.242,-0.035
28.52,-0.304,-0.037,-0.099
28.53,-0.347,-0.133,-0.068
28.54,-0.295,0.003,-0.032
28.55,-0.283,0.026,0.055
28.56,-0.287,0.222,0.091
28.57,-0.151,0.311,-0.086
28.58,-0.051,-0.052,-0.118
28.59,-0.019,-0.218,-0.113
28.6,-0.12,-0.27,0.084
28.61,-0.296,-0.27,0.262
28.62,-0.273,0.064,0.161
28.63,-0.354,0.223,0.053
28.64,-0.31,0.177,-0.104
28.65,-0.286,0.185,-0.184
28.66,-0.373,-0.088,-0.087
28.67,-0.292,-0.043,-0.102
28.68,-0.312,0.042,-0.023
28.69,-0.211,0.025,0.068
28.7,-0.009,0.179,0.013
28.71,-0.128,0.089,0.086
28.72,-0.133,-0.247,0.06
28.73,-0.231,-0.146,0.015
28.74,-0.316,-0.171,0.066
28.75,-0.342,-0.069,0.052
28.76,-0.36,0.318,0.014
28.77,-0.302,0.211,-0.061
28.78,-0.357,0.144,-0.137
28.79,-0.278,0.021,-0.102
28.8,-0.212,-0.185,-0.052
28.81,-0.187,-0.144,0.022
28.82,-0.162,0.097,0.083
28.83,-0.1,0.14,0.08
28.84,-0.083,0.101,-0.005
28.85,-0.125,0.045,-0.026
28.86,-0.227,-0.202,0.052
28.87,-0.302,-0.075,0.041
28.88,-0.364,-0.054,0.036
28.89,-0.435,0.014,-0.053
28.9,-0.338,0.282,-0.081
28.91,-0.295,0.113,-0.043
28.92,-0.164,0.06,-0.047
28.93,-0.128,-0.065,-0.024
28.94,-0.111,-0.193,0.022
28.95,-0.076,-0.04,0.044
28.96,-0.117,0.111,0.096
28.97,-0.197,0.075,0.142
28.98,-0.25,0.155,0.028
28.99,-0.421,-0.052,-0.063
29.0,-0.467,-0.225,-0.099
29.01,-0.386,0.088,-0.084
29.02,-0.342,0.055,-0.023
29.03,-0.174,0.098,0.025
29.04,-0.247,0.193,0.119
29.05,-0.105,0.022,0.042
29.06,-0.144,0.099,-0.096
29.07,-0.279,-0.321,0.077
29.08,-0.227,-0.255,0.088
29.09,-0.296,-0.095,0.077
29.1,-0.346,-0.026,0.08
29.11,-0.251,0.234,-0.062
29.12,-0.253,0.364,-0.115
29.13,-0.217,0.099,-0.098
29.14,-0.231,-0.003,-0.045
29.15,-0.204,-0.014,-0.051
29.16,-0.171,-0.207,0.028
29.17,-0.202,0.051,0.063
29.18,-0.198,0.062,0.08
29.19,-0.282,-0.003,0.1
29.2,-0.207,-0.028,-0.027
29.21,-0.261,-0.112,-0.055
29.22,-0.354,0.031,-0.028
29.23,-0.303,0.133,-0.057
29.24,-0.209,0.192,-0.086
29.25,-0.245,0.233,-0.081
29.26,-0.204,0.139,-0.018
29.27,-0.168,-0.026,0.015
29.28,-0.215,-0.094,-0.004
29.29,-0.229,-0.168,0.069
29.3,-0.133,-0.162,0.095
29.31,-0.22,0.083,0.105
29.32,-0.284,0.009,0.04
29.33,-0.178,0.066,-0.096
29.34,-0.278,-0.014,-0.091
29.35,-0.32,-0.065,0.011
29.36,-0.303,0.137,0.042
29.37,-0.329,0.252,0.006
29.38,-0.264,0.23,-0.057
29.39,-0.123,0.164,-0.206
29.4,-0.204,-0.031,-0.103
29.41,-0.146,-0.468,0.007
29.42,-0.064,-0.212,0.15
29.43,-0.263,-0.143,0.294
29.44,-0.242,0.074,0.188
29.45,-0.258,0.307,0.003
29.46,-0.2,0.069,-0.115
29.47,-0.298,0.036,-0.194
29.48,-0.42,-0.055,-0.142
29.49,-0.323,-0.086,-0.048
29.5,-0.242,0.246,-0.037
29.51,-0.202,0.199,0.016
29.52,-0.175,0.113,0.011
29.53,-0.104,-0.011,0.048
29.54,-0.119,-0.179,0.081
29.55,-0.254,-0.323,0.148
29.56,-0.276,-0.126,0.079
29.57,-0.294,-0.02,0.013
29.58,-0.282,0.245,-0.031
29.59,-0.3,0.286,-0.071
29.6,-0.336,0.098,-0.048
29.61,-0.234,-0.001,-0.096
29.62,-0.278,-0.062,-0.077
29.63,-0.278,-0.083,-0.012
29.64,-0.179,0.041,0.016
29.65,-0.159,0.153,0.062
29.66,-0.061,-0.055,0.012
29.67,-0.168,-0.074,0.058
29.68,-0.291,-0.242,0.154
29.69,-0.182,-0.091,0.055
29.7,-0.367,0.069,0.08
29.71,-0.395,0.101,0.007
29.72,-0.252,0.233,-0.14
29.73,-0.318,0.167,-0.175
29.74,-0.244,-0.086,-0.081
29.75,-0.191,0.006,-0.05
29.76,-0.154,-0.044,0.024
29.77,-0.13,-0.13,0.098
29.78,-0.078,0.132,0.089
29.79,-0.139,0.125,0.098
29.8,-0.262,-0.083,0.051
29.81,-0.341,0.023,-0.04
29.82,-0.363,-0.07,-0.053
29.83,-0.425,0.003,-0.04
29.84,-0.379,0.187,-0.081
29.85,-0.241,0.102,-0.053
29.86,-0.235,0.152,-0.015
29.87,-0.166,0.017,-0.005
29.88,-0.05,-0.102,-0.026
29.89,-0.114,-0.119,0.047
29.9,-0.177,-0.091,0.096
29.91,-0.141,-0.002,0.07
29.92,-0.294,0.17,0.072
29.93,-0.351,0.073,-0.021
29.94,-0.287,-0.023,-0.114
29.95,-0.379,-0.096,-0.103
29.96,-0.376,-0.124,0.037
29.97,-0.253,0.132,0.058
29.98,-0.205,0.277,0.016
29.99,-0.192,0.246,-0.064
30.0,-0.032,0.137,-0.199
30.01,-0.037,-0.145,-0.109
30.02,-0.103,-0.436,0.045
30.03,-0.27,-0.24,0.236
30.04,-0.336,-0.017,0.332
30.05,-0.325,0.198,0.113
30.06,-0.296,0.295,-0.138
30.07,-0.319,0.022,-0.211
30.08,-0.339,-0.044,-0.156
30.09,-0.324,-0.079,-0.067
30.1,-0.269,-0.031,-0.016
30.11,-0.15,0.084,0.004
30.12,-0.075,0.312,-0.01
30.13,-0.117,0.12,0.113
30.14,-0.157,-0.036,0.105
30.15,-0.253,-0.222,0.006
30.16,-0.323,-0.271,0.005
30.17,-0.303,-0.074,0.019
30.18,-0.433,0.055,0.045
30.19,-0.292,0.277,-0.051
30.2,-0.218,0.187,-0.07
30.21,-0.321,-0.01,-0.042
30.22,-0.163,-0.093,-0.115
30.23,-0.207,-0.073,0.027
30.24,-0.243,0.013,0.084
30.25,-0.09,0.222,-0.019
30.26,-0.126,0.222,-0.009
30.27,-0.089,0.007,-0.065
30.28,-0.198,-0.125,0.021
30.29,-0.357,-0.275,0.133
30.3,-0.319,-0.207,0.05
30.31,-0.463,0.034,0.057
30.32,-0.286,0.163,-0.023
30.33,-0.241,0.224,-0.121
30.34,-0.247,0.196,-0.041
30.35,-0.119,-0.104,-0.05
30.36,-0.096,-0.066,-0.068
30.37,-0.132,-0.1,0.014
30.38,-0.1,-0.025,0.123
30.39,-0.214,0.2,0.151
30.4,-0.335,0.091,0.022
30.41,-0.37,-0.138,-0.017
30.42,-0.381,-0.071,-0.086
30.43,-0.428,-0.125,-0.042
30.44,-0.339,0.047,-0.03
30.45,-0.154,0.251,-0.078
30.46,-0.136,0.2,-0.081
30.47,-0.112,0.24,-0.057
30.48,-0.13,0.039,0.071
30.49,-0.168,-0.143,0.071
30.5,-0.233,-0.165,0.042
30.51,-0.29,-0.16,0.053
30.52,-0.229,-0.031,0.076
30.53,-0.34,0.153,0.02
30.54,-0.292,0.057,-0.056
30.55,-0.184,-0.059,-0.102
30.56,-0.222,-0.04,-0.052
30.57,-0.25,0.053,0.036
30.58,-0.244,0.133,0.051
30.59,-0.34,0.353,0.038
30.6,-0.18,0.204,-0.089
30.61,-0.129,0.05,-0.148
30.62,-0.159,-0.306,-0.073
30.63,-0.214,-0.459,0.101
30.64,-0.289,-0.174,0.218
30.65,-0.214,-0.023,0.223
30.66,-0.205,0.212,0.042
30.67,-0.211,0.309,-0.14
30.68,-0.294,0.126,-0.151
30.69,-0.317,-0.107,-0.115
30.7,-0.271,0.01,-0.106
30.71,-0.365,-0.055,0.029
30.72,-0.271,0.133,0.056
30.73,-0.168,0.222,0.038
30.74,-0.17,0.06,0.04
30.75,-0.126,-0.046,0.029
30.76,-0.229,-0.284,0.081
30.77,-0.229,-0.285,0.056
30.78,-0.183,-0.011,-0.027
30.79,-0.316,0.081,0.012
30.8,-0.261,0.273,-0.058
30.81,-0.322,0.31,-0.016
30.82,-0.339,0.08,-0.034
30.83,-0.261,0.032,-0.126
30.84,-0.298,-0.114,-0.044
30.85,-0.198,-0.02,0.016
30.86,-0.154,0.053,0.091
30.87,-0.123,0.11,0.043
30.88,-0.037,-0.221,-0.009
30.89,-0.237,-0.21,0.054
30.9,-0.248,-0.146,0.153
30.91,-0.292,-0.12,0.119
30.92,-0.404,0.193,0.011
30.93,-0.325,0.244,-0.145
30.94,-0.268,0.234,-0.173
30.95,-0.277,0.151,-0.111
30.96,-0.252,-0.097,-0.034
30.97,-0.151,-0.144,-0.013
30.98,-0.115,-0.086,0.03
30.99,-0.147,-0.122,0.168
31.0,-0.12,0.1,0.104
31.01,-0.201,0.078,0.087
31.02,-0.289,-0.064,0.002
31.03,-0.32,0.026,-0.106
31.04,-0.398,0.018,-0.054
31.05,-0.331,0.091,-0.057
31.06,-0.253,0.223,-0.078
31.07,-0.28,0.16,-0.054
31.08,-0.199,0.067,-0.022
31.09,-0.21,0.067,0.001
31.1,-0.156,-0.17,0.073
31.11,-0.119,-0.155,0.071
31.12,-0.118,-0.098,0.065
31.13,-0.161,-0.046,0.077
31.14,-0.237,0.146,0.029
31.15,-0.279,0.05,-0.04
31.16,-0.304,-0.073,-0.069
31.17,-0.378,0.028,-0.034
31.18,-0.379,0.039,0.037
31.19,-0.414,0.151,0.003
31.2,-0.333,0.317,-0.077
31.21,-0.148,0.142,-0.132
31.22,0.012,-0.095,-0.146
31.23,-0.022,-0.252,-0.036
31.24,-0.069,-0.404,0.164
31.25,-0.176,-0.078,0.299
31.26,-0.247,0.147,0.264
31.27,-0.33,0.154,0.013
31.28,-0.297,0.24,-0.184
31.29,-0.386,-0.009,-0.195
31.3,-0.469,-0.141,-0.146
31.31,-0.428,0.035,-0.055
31.32,-0.305,0.068,0.032
31.33,-0.123,0.176,0.004
31.34,-0.005,0.275,-0.007
31.35,-0.008,-0.038,0.087
31.36,-0.115,-0.074,0.086
31.37,-0.227,-0.239,0.069
31.38,-0.272,-0.257,0.081
31.39,-0.354,0.047,0.003
31.4,-0.363,0.131,-0.002
31.41,-0.347,0.189,-0.068
31.42,-0.356,0.158,-0.107
31.43,-0.324,0.043,-0.078
31.44,-0.187,-0.103,-0.066
31.45,-0.205,0.052,-0.002
31.46,-0.14,0.017,0.041
31.47,-0.06,0.086,0.015
31.48,-0.082,0.076,0.017
31.49,-0.186,-0.185,0.109
31.5,-0.251,-0.097,0.123
31.51,-0.308,-0.057,0.081
31.52,-0.363,-0.122,-0.033
31.53,-0.396,0.155,-0.105
31.54,-0.308,0.203,-0.142
31.55,-0.248,0.116,-0.098
31.56,-0.184,0.119,-0.063
31.57,-0.181,-0.092,0.043
31.58,-0.104,-0.058,0.022
31.59,-0.115,-0.019,0.083
31.6,-0.15,0.028,0.129
31.61,-0.163,0.133,0.068
31.62,-0.32,0.032,0.042
31.63,-0.324,-0.117,-0.045
31.64,-0.415,-0.059,-0.05
31.65,-0.444,-0.146,-0.026
31.66,-0.249,0.141,-0.051
31.67,-0.203,0.126,-0.044
31.68,-0.249,0.211,-0.006
31.69,-0.184,0.157,0.005
31.7,-0.116,0.03,0.005
31.71,-0.116,-0.117,0.022
31.72,-0.182,-0.141,0.035
31.73,-0.197,-0.021,0.059
31.74,-0.225,-0.038,0.074
31.75,-0.359,0.072,0.029
31.76,-0.312,-0.042,-0.068
31.77,-0.292,-0.18,-0.043
31.78,-0.276,0.034,-0.012
31.79,-0.271,0.188,0.05
31.8,-0.328,0.241,0.006
31.81,-0.198,0.33,-0.126
31.82,-0.036,0.055,-0.189
31.83,-0.078,-0.124,-0.13
31.84,-0.136,-0.349,0.108
31.85,-0.289,-0.237,0.363
31.86,-0.288,0.037,0.239
31.87,-0.322,0.097,0.074
31.88,-0.275,0.073,-0.141
31.89,-0.212,0.081,-0.236
31.9,-0.325,-0.023,-0.106
31.91,-0.319,-0.114,-0.025
31.92,-0.269,0.197,-0.033
31.93,-0.171,0.089,0.005
31.94,-0.133,0.237,0.052
31.95,-0.138,0.202,0.026
31.96,-0.252,-0.177,0.082
31.97,-0.283,-0.257,0.034
31.98,-0.327,-0.197,0.025
31.99,-0.295,-0.192,0.026
32.0,-0.213,0.058,-0.025
32.01,-0.204,0.26,-0.028
32.02,-0.202,0.151,-0.016
32.03,-0.322,0.151,-0.048
32.04,-0.236,0.02,-0.101
32.05,-0.24,-0.033,-0.076
32.06,-0.268,0.113,0.018
32.07,-0.254,0.137,0.05
32.08,-0.135,0.082,-0.023
32.09,-0.173,-0.037,-0.007
32.1,-0.202,-0.323,0.084
32.11,-0.163,-0.193,0.134
32.12,-0.256,-0.177,0.078
32.13,-0.285,0.052,0.016
32.14,-0.291,0.236,-0.116
32.15,-0.311,0.281,-0.098
32.16,-0.232,0.097,-0.054
32.17,-0.242,0.05,-0.062
32.18,-0.286,-0.093,-0.006
32.19,-0.144,-0.218,-0.003
32.2,-0.17,0.104,0.056
32.21,-0.186,0.044,0.111
32.22,-0.186,0.035,0.09
32.23,-0.24,0.007,-0.023
32.24,-0.274,-0.128,-0.064
32.25,-0.349,-0.032,-0.026
32.26,-0.386,0.13,0.009
32.27,-0.264,0.096,-0.054
32.28,-0.224,0.206,-0.076
32.29,-0.298,0.147,-0.038
32.3,-0.202,0.001,0.011
32.31,-0.159,-0.015,0.004
32.32,-0.165,-0.134,0.029
32.33,-0.189,-0.112,0.041
32.34,-0.107,-0.015,0.071
32.35,-0.212,0.022,0.087
32.36,-0.26,0.068,-0.038
32.37,-0.236,0.04,-0.105
32.38,-0.262,-0.158,-0.067
32.39,-0.361,0.163,-0.024
32.4,-0.357,0.187,0.091
32.41,-0.359,0.224,0.035
32.42,-0.214,0.194,-0.159
32.43,-0.09,-0.182,-0.108
32.44,-0.128,-0.323,0.039
32.45,-0.181,-0.267,0.16
32.46,-0.186,-0.171,0.246
32.47,-0.114,0.152,0.065
32.48,-0.304,0.275,-0.015
32.49,-0.275,0.09,-0.132
32.5,-0.285,0.146,-0.154
32.51,-0.405,-0.037,-0.07
32.52,-0.366,-0.086,-0.01
32.53,-0.32,0.096,-0.005
32.54,-0.209,0.148,0.017
32.55,-0.171,0.146,0.023
32.56,-0.113,0.029,0.038
32.57,-0.126,-0.224,0.04
32.58,-0.166,-0.201,0.024
32.59,-0.174,-0.148,0.013
32.6,-0.244,0.009,0.039
32.61,-0.312,0.241,0.036
32.62,-0.314,0.28,-0.007
32.63,-0.35,0.089,-0.052
32.64,-0.342,0.036,-0.14
32.65,-0.304,-0.122,-0.081
32.66,-0.27,-0.078,-0.018
32.67,-0.172,0.096,0.07
32.68,-0.116,0.009,0.078
32.69,-0.016,-0.004,0.017
32.7,-0.097,-0.051,0.028
32.71,-0.233,-0.26,0.131
32.72,-0.232,0.027,0.058
32.73,-0.373,0.076,0.008
32.74,-0.408,0.108,-0.066
32.75,-0.305,0.337,-0.196
32.76,-0.361,0.048,-0.099
32.77,-0.246,-0.104,-0.092
32.78,-0.153,-0.071,0.018
32.79,-0.142,-0.125,0.097
32.8,-0.106,-0.054,0.087
32.81,-0.099,0.146,0.077
32.82,-0.107,0.084,0.08
32.83,-0.243,0.102,0.028
32.84,-0.344,0.009,-0.011
32.85,-0.4,-0.159,-0.084
32.86,-0.393,0.01,-0.089
32.87,-0.327,0.04,-0.069
32.88,-0.264,0.124,-0.05
32.89,-0.285,0.216,0.008
32.9,-0.167,0.072,0.025
32.91,-0.084,0.041,0.004
32.92,-0.109,-0.085,0.032
32.93,-0.095,-0.145,0.084
32.94,-0.146,-0.088,0.093
32.95,-0.271,0.035,0.1
32.96,-0.32,0.026,0.057
32.97,-0.347,0.096,-0.085
32.98,-0.359,-0.033,-0.153
32.99,-0.358,-0.095,-0.037
33.0,-0.254,0.105,-0.014
33.01,-0.289,0.203,0.031
33.02,-0.247,0.203,-0.062
33.03,-0.038,0.193,-0.132
33.04,-0.071,-0.107,-0.07
33.05,-0.106,-0.361,0.087
33.06,-0.172,-0.163,0.213
33.07,-0.299,-0.103,0.299
33.08,-0.24,0.157,0.106
33.09,-0.307,0.225,-0.16
33.1,-0.338,0.0,-0.207
33.11,-0.306,0.002,-0.219
33.12,-0.336,-0.02,-0.064
33.13,-0.259,-0.048,-0.016
33.14,-0.218,0.182,0.039
33.15,-0.171,0.205,0.065
33.16,-0.009,0.156,0.007
33.17,-0.162,0.042,0.123
33.18,-0.195,-0.256,0.102
33.19,-0.291,-0.286,0.074
33.2,-0.321,-0.083,0.029
33.21,-0.289,-0.105,0.003
33.22,-0.398,0.277,-0.057
33.23,-0.274,0.188,-0.082
33.24,-0.303,0.058,-0.104
33.25,-0.218,0.07,-0.089
33.26,-0.192,-0.042,-0.08
33.27,-0.164,-0.012,0.028
33.28,-0.086,0.203,0.085
33.29,-0.2,0.123,0.101
33.3,-0.159,-0.024,0.011
33.31,-0.165,-0.123,-0.024
33.32,-0.377,-0.327,0.099
33.33,-0.366,-0.107,0.052
33.34,-0.361,-0.033,0.013
33.35,-0.322,0.053,-0.037
33.36,-0.186,0.338,-0.151
33.37,-0.146,0.142,-0.048
33.38,-0.169,0.024,-0.022
33.39,-0.168,0.052,-0.031
33.4,-0.155,-0.092,0.025
33.41,-0.207,-0.027,0.054
33.42,-0.218,0.115,0.104
33.43,-0.295,0.005,0.101
33.44,-0.383,-0.074,0.037
33.45,-0.348,-0.111,-0.057
33.46,-0.244,-0.132,-0.061
33.47,-0.307,0.096,-0.028
33.48,-0.202,0.169,-0.016
33.49,-0.183,0.198,-0.059
33.5,-0.202,0.221,-0.068
33.51,-0.247,0.135,-0.0
33.52,-0.152,-0.127,0.023
33.53,-0.18,-0.111,-0.01
33.54,-0.307,-0.139,0.06
33.55,-0.233,-0.103,0.079
33.56,-0.245,0.13,0.113
33.57,-0.282,-0.011,0.041
33.58,-0.119,0.029,-0.144
33.59,-0.187,-0.046,-0.123
33.6,-0.285,-0.037,-0.013
33.61,-0.292,0.242,0.041
33.62,-0.333,0.3,0.049
33.63,-0.256,0.213,-0.102
33.64,-0.167,0.056,-0.179
33.65,-0.189,-0.235,-0.087
33.66,-0.152,-0.393,0.096
33.67,-0.283,-0.159,0.272
33.68,-0.192,-0.13,0.255
33.69,-0.158,0.16,0.041
33.7,-0.219,0.21,-0.101
33.71,-0.188,0.038,-0.139
33.72,-0.34,0.024,-0.113
33.73,-0.383,0.0,-0.063
33.74,-0.31,0.005,-0.013
33.75,-0.312,0.244,-0.003
33.76,-0.217,0.198,-0.04
33.77,-0.186,-0.038,0.029
33.78,-0.107,-0.028,0.01
33.79,-0.148,-0.292,0.104
33.8,-0.254,-0.263,0.091
33.81,-0.141,-0.019,-0.004
33.82,-0.292,0.096,0.063
33.83,-0.25,0.286,-0.019
33.84,-0.336,0.244,-0.074
33.85,-0.387,0.005,-0.062
33.86,-0.214,0.028,-0.161
33.87,-0.282,-0.076,-0.06
33.88,-0.294,-0.084,0.041
33.89,-0.2,0.161,0.019
33.9,-0.091,0.066,0.052
33.91,-0.013,-0.072,-0.025
33.92,-0.165,-0.125,0.051
33.93,-0.243,-0.244,0.19
33.94,-0.253,-0.027,0.092
33.95,-0.423,0.174,0.03
33.96,-0.28,0.033,-0.076
33.97,-0.267,0.334,-0.177
33.98,-0.296,0.065,-0.07
33.99,-0.316,-0.144,-0.022
34.0,-0.236,-0.014,-0.042
34.01,-0.14,-0.061,-0.048
34.02,-0.082,-0.059,0.053
34.03,-0.106,0.146,0.125
34.04,-0.153,0.104,0.12
34.05,-0.23,-0.03,0.04
34.06,-0.285,-0.015,-0.049
34.07,-0.4,-0.085,-0.024
34.08,-0.365,0.062,-0.019
34.09,-0.348,0.141,-0.047
34.1,-0.348,0.111,-0.085
34.11,-0.267,0.167,-0.064
34.12,-0.174,0.039,-0.022
34.13,-0.075,-0.121,-0.002
34.14,-0.048,-0.077,0.021
34.15,-0.086,-0.116,0.116
34.16,-0.133,0.051,0.117
34.17,-0.303,0.128,0.073
34.18,-0.297,0.061,-0.015
34.19,-0.279,-0.022,-0.121
34.2,-0.419,-0.092,-0.045
34.21,-0.395,-0.103,0.013
34.22,-0.31,0.114,0.018
34.23,-0.3,0.283,-0.002
34.24,-0.123,0.177,-0.058
34.25,-0.033,0.087,-0.122
34.26,-0.051,-0.173,-0.082
34.27,-0.1,-0.427,0.064
34.28,-0.207,-0.149,0.239
34.29,-0.277,0.086,0.253
34.3,-0.315,0.18,0.091
34.31,-0.3,0.356,-0.15
34.32,-0.285,-0.019,-0.197
34.33,-0.382,-0.129,-0.113
34.34,-0.377,-0.038,-0.059
34.35,-0.281,-0.046,0.038
34.36,-0.164,0.171,-0.008
34.37,-0.099,0.237,-0.044
34.38,-0.101,0.069,0.007
34.39,-0.087,-0.049,0.063
34.4,-0.228,-0.224,0.124
34.41,-0.326,-0.19,0.072
34.42,-0.266,0.002,0.021
34.43,-0.344,0.066,0.018
34.44,-0.319,0.274,-0.104
34.45,-0.376,0.133,-0.064
34.46,-0.266,-0.173,-0.045
34.47,-0.208,0.07,-0.079
34.48,-0.244,-0.14,0.032
34.49,-0.152,0.074,0.058
34.5,-0.164,0.175,0.007
34.51,-0.086,0.129,-0.012
34.52,-0.097,-0.073,0.012
34.53,-0.363,-0.049,0.072
34.54,-0.332,-0.145,0.101
34.55,-0.297,-0.12,-0.024
34.56,-0.385,0.102,-0.026
34.57,-0.317,0.064,-0.044
34.58,-0.186,0.133,-0.061
34.59,-0.151,0.07,-0.061
34.6,-0.194,-0.098,0.042
34.61,-0.188,0.055,-0.026
34.62,-0.101,0.008,-0.05
34.63,-0.164,0.066,0.089
34.64,-0.125,0.165,0.05
34.65,-0.38,0.018,0.083
34.66,-0.392,-0.176,-0.023
34.67,-0.303,-0.094,-0.086
34.68,-0.409,-0.038,0.004
34.69,-0.254,0.061,-0.022
34.7,-0.23,0.213,-0.059
34.71,-0.184,0.219,-0.043
34.72,-0.134,0.166,-0.039
34.73,-0.165,0.014,0.02
34.74,-0.091,-0.18,-0.003
34.75,-0.209,-0.19,0.054
34.76,-0.264,-0.042,0.095
34.77,-0.271,-0.008,0.081
34.78,-0.416,0.167,0.064
34.79,-0.304,0.01,-0.086
34.8,-0.196,-0.135,-0.146
34.81,-0.27,-0.004,-0.058
34.82,-0.235,0.03,0.044
34.83,-0.241,0.281,0.07
34.84,-0.214,0.349,-0.058
34.85,-0.112,0.129,-0.152
34.86,-0.07,-0.116,-0.151
34.87,-0.146,-0.294,0.036
34.88,-0.31,-0.347,0.225
34.89,-0.375,-0.109,0.285
34.9,-0.281,0.108,0.12
34.91,-0.272,0.166,-0.08
34.92,-0.155,0.158,-0.181
34.93,-0.256,-0.001,-0.131
34.94,-0.313,-0.113,-0.057
34.95,-0.235,0.093,-0.03
34.96,-0.252,0.073,0.067
34.97,-0.193,0.239,-0.001
34.98,-0.127,0.265,0.018
34.99,-0.241,-0.175,0.12
35.0,-0.257,-0.134,0.018
35.01,-0.328,-0.26,0.044
35.02,-0.287,-0.304,0.059
35.03,-0.238,0.105,-0.021
35.04,-0.236,0.219,-0.042
35.05,-0.194,0.236,-0.073
35.06,-0.279,0.207,-0.026
35.07,-0.27,-0.04,-0.033
35.08,-0.147,-0.067,-0.062
35.09,-0.277,-0.013,0.013
35.1,-0.227,0.083,0.069
35.11,-0.172,0.156,-0.006
35.12,-0.208,0.017,-0.019
35.13,-0.167,-0.209,-0.036
35.14,-0.214,-0.205,0.077
35.15,-0.265,-0.193,0.127
35.16,-0.231,-0.044,0.028
35.17,-0.355,0.255,0.025
35.18,-0.219,0.258,-0.046
35.19,-0.269,0.24,-0.085
35.2,-0.228,0.064,-0.078
35.21,-0.216,-0.131,-0.05
35.22,-0.201,-0.122,-0.037
35.23,-0.205,-0.013,0.061
35.24,-0.222,-0.078,0.11
35.25,-0.173,0.145,0.11
35.26,-0.239,-0.076,0.027
35.27,-0.296,-0.136,-0.02
35.28,-0.263,0.028,-0.068
35.29,-0.344,0.065,-0.005
35.3,-0.312,0.179,-0.013
35.31,-0.197,0.261,-0.107
35.32,-0.275,0.156,-0.084
35.33,-0.252,0.038,-0.035
35.34,-0.204,-0.057,0.041
35.35,-0.186,-0.23,0.029
35.36,-0.183,-0.12,0.065
35.37,-0.147,-0.062,0.086
35.38,-0.179,0.07,0.073
35.39,-0.22,0.147,0.012
35.4,-0.185,0.045,-0.066
35.41,-0.23,-0.12,-0.114
35.42,-0.385,0.02,-0.002
35.43,-0.368,0.044,0.069
35.44,-0.347,0.23,0.031
35.45,-0.309,0.307,-0.079
35.46,-0.173,0.081,-0.142
35.47,-0.112,-0.094,-0.132
35.48,-0.068,-0.297,0.008
35.49,-0.125,-0.42,0.212
35.5,-0.167,-0.103,0.253
35.51,-0.157,0.188,0.151
35.52,-0.261,0.148,-0.014
35.53,-0.329,0.295,-0.163
35.54,-0.352,0.043,-0.163
35.55,-0.51,-0.124,-0.089
35.56,-0.382,0.042,-0.078
35.57,-0.357,0.023,0.031
35.58,-0.173,0.115,0.024
35.59,-0.049,0.161,-0.033
35.6,-0.05,-0.089,0.084
35.61,-0.013,-0.172,0.061
35.62,-0.223,-0.154,0.066
35.63,-0.218,-0.121,0.045
35.64,-0.278,0.124,0.012
35.65,-0.4,0.227,-0.02
35.66,-0.369,0.14,-0.075
35.67,-0.441,0.025,-0.077
35.68,-0.264,-0.089,-0.125
35.69,-0.252,-0.105,-0.05
35.7,-0.15,0.112,0.049
35.71,-0.002,0.089,0.017
35.72,-0.026,0.235,0.015
35.73,-0.059,-0.078,0.039
35.74,-0.18,-0.195,0.079
35.75,-0.361,-0.127,0.182
35.76,-0.333,-0.188,0.14
35.77,-0.441,0.04,-0.003
35.78,-0.411,0.174,-0.137
35.79,-0.327,0.116,-0.136
35.8,-0.277,0.12,-0.101
35.81,-0.149,0.021,-0.063
35.82,-0.137,-0.154,0.004
35.83,-0.06,0.051,-0.017
35.84,-0.083,0.031,0.043
35.85,-0.109,0.079,0.149
35.86,-0.16,0.16,0.109
35.87,-0.373,-0.052,0.054
35.88,-0.396,-0.159,-0.089
35.89,-0.424,-0.038,-0.119
35.9,-0.404,0.029,-0.01
35.91,-0.326,0.15,-0.035
35.92,-0.211,0.187,-0.063
35.93,-0.104,0.13,-0.083
35.94,-0.154,0.113,-0.024
35.95,-0.113,-0.098,0.028
35.96,-0.07,-0.148,0.051
35.97,-0.159,0.006,0.08
35.98,-0.203,0.031,0.078
35.99,-0.321,0.04,0.052
36.0,-0.388,0.105,-0.026
36.01,-0.307,-0.201,-0.066
36.02,-0.375,-0.126,-0.029
36.03,-0.346,-0.069,0.056
36.04,-0.26,0.22,0.054
36.05,-0.224,0.365,-0.053
36.06,-0.139,0.344,-0.181
36.07,-0.034,-0.073,-0.178
36.08,-0.011,-0.275,-0.109
36.09,-0.181,-0.339,0.154
36.1,-0.332,-0.242,0.382
36.11,-0.271,0.193,0.239
36.12,-0.344,0.141,0.014
36.13,-0.303,0.149,-0.182
36.14,-0.254,0.036,-0.198
36.15,-0.363,-0.114,-0.061
36.16,-0.294,-0.094,-0.056
36.17,-0.213,0.169,-0.032
36.18,-0.158,0.158,0.002
36.19,-0.071,0.28,-0.044
36.2,-0.11,0.145,0.062
36.21,-0.198,-0.22,0.119
36.22,-0.318,-0.213,0.11
36.23,-0.364,-0.229,0.044
36.24,-0.289,-0.091,-0.009
36.25,-0.302,0.161,-0.027
36.26,-0.2,0.181,-0.044
36.27,-0.209,0.089,-0.056
36.28,-0.25,0.058,-0.014
36.29,-0.231,-0.009,-0.011
36.3,-0.215,-0.033,-0.038
36.31,-0.274,0.183,0.008
36.32,-0.19,0.034,0.034
36.33,-0.166,0.142,-0.041
36.34,-0.232,-0.129,-0.017
36.35,-0.249,-0.329,0.082
36.36,-0.242,-0.096,0.087
36.37,-0.182,-0.147,0.098
36.38,-0.301,0.104,0.002
36.39,-0.217,0.273,-0.06
36.4,-0.244,0.214,-0.057
36.41,-0.26,0.117,-0.106
36.42,-0.233,-0.027,-0.067
36.43,-0.231,-0.08,0.004
36.44,-0.173,-0.02,0.005
36.45,-0.193,0.062,0.069
36.46,-0.196,-0.077,0.108
36.47,-0.265,0.061,0.044
36.48,-0.262,-0.096,0.018
36.49,-0.278,-0.176,-0.008
36.5,-0.356,0.097,0.003
36.51,-0.285,0.148,-0.004
36.52,-0.206,0.158,-0.07
36.53,-0.232,0.248,-0.062
36.54,-0.19,0.096,-0.021
36.55,-0.222,0.016,0.004
36.56,-0.217,-0.114,0.007
36.57,-0.213,-0.201,0.054
36.58,-0.242,-0.062,0.076
36.59,-0.224,0.001,0.067
36.6,-0.226,0.004,0.029
36.61,-0.19,0.074,-0.104
36.62,-0.215,-0.092,-0.065
36.63,-0.262,-0.021,0.034
36.64,-0.257,0.257,0.078
36.65,-0.362,0.229,0.066
36.66,-0.291,0.245,-0.104
36.67,-0.174,0.167,-0.243
36.68,-0.175,-0.275,-0.117
36.69,-0.14,-0.35,0.042
36.7,-0.222,-0.181,0.248
36.71,-0.261,-0.182,0.307
36.72,-0.102,0.222,0.036
36.73,-0.198,0.272,-0.111
36.74,-0.199,0.047,-0.148
36.75,-0.295,0.048,-0.119
36.76,-0.44,-0.091,-0.029
36.77,-0.333,0.042,-0.041
36.78,-0.31,0.141,0.029
36.79,-0.256,0.137,0.027
36.8,-0.171,0.094,0.03
36.81,-0.184,-0.122,0.041
36.82,-0.092,-0.244,0.031
36.83,-0.256,-0.182,0.052
36.84,-0.202,-0.04,0.009
36.85,-0.172,0.018,-0.032
36.86,-0.236,0.324,-0.081
36.87,-0.292,0.165,-0.011
36.88,-0.385,0.028,0.034
36.89,-0.324,0.072,-0.047
36.9,-0.331,-0.078,-0.016
36.91,-0.276,-0.004,-0.042
36.92,-0.194,0.211,-0.083
36.93,-0.087,-0.052,0.013
36.94,-0.007,-0.041,-0.024
36.95,-0.12,-0.097,0.061
36.96,-0.246,-0.33,0.19
36.97,-0.191,0.071,0.088
36.98,-0.33,0.082,0.039
36.99,-0.384,0.091,-0.047
37.0,-0.309,0.289,-0.14
37.01,-0.35,0.069,-0.092
37.02,-0.291,-0.088,-0.085
37.03,-0.204,0.002,-0.044
37.04,-0.108,-0.163,0.054
37.05,-0.078,0.067,0.088
37.06,-0.149,0.078,0.109
37.07,-0.127,-0.047,0.105
37.08,-0.235,0.025,0.02
37.09,-0.388,-0.089,-0.034
37.1,-0.364,-0.047,-0.034
37.11,-0.404,0.156,-0.04
37.12,-0.303,0.171,-0.103
37.13,-0.236,0.11,-0.098
37.14,-0.265,0.145,-0.03
37.15,-0.237,0.004,0.037
37.16,-0.086,-0.091,0.0
37.17,-0.072,-0.095,0.025
37.18,-0.134,-0.064,0.07
37.19,-0.179,0.069,0.075
37.2,-0.263,0.097,0.073
37.21,-0.289,-0.02,0.011
37.22,-0.245,-0.015,-0.122
37.23,-0.303,-0.132,-0.08
37.24,-0.377,-0.067,-0.014
37.25,-0.348,0.283,0.031
37.26,-0.325,0.256,0.034
37.27,-0.206,0.241,-0.103
37.28,-0.047,0.094,-0.188
37.29,-0.068,-0.259,-0.031
37.3,-0.079,-0.456,0.118
37.31,-0.197,-0.172,0.244
37.32,-0.255,-0.021,0.324
37.33,-0.266,0.249,0.073
37.34,-0.312,0.283,-0.148
37.35,-0.293,-0.032,-0.26
37.36,-0.363,-0.023,-0.166
37.37,-0.44,-0.047,-0.038
37.38,-0.279,0.0,-0.031
37.39,-0.171,0.139,-0.002
37.4,-0.073,0.225,0.015
37.41,-0.041,0.182,0.063
37.42,-0.14,-0.074,0.131
37.43,-0.21,-0.247,0.137
37.44,-0.26,-0.164,0.026
37.45,-0.327,-0.139,-0.017
37.46,-0.315,0.017,-0.025
37.47,-0.314,0.269,-0.086
37.48,-0.396,0.221,-0.054
37.49,-0.316,-0.009,-0.053
37.5,-0.199,0.02,-0.113
37.51,-0.17,-0.007,-0.008
37.52,-0.134,0.0,0.045
37.53,-0.102,0.209,0.055
37.54,-0.135,0.05,0.064
37.55,-0.156,-0.183,0.055
37.56,-0.288,-0.052,0.112
37.57,-0.35,-0.355,0.143
37.58,-0.376,-0.084,-0.014
37.59,-0.397,0.042,-0.101
37.6,-0.271,0.093,-0.107
37.61,-0.204,0.342,-0.104
37.62,-0.183,0.123,-0.065
37.63,-0.085,0.012,-0.071
37.64,-0.124,-0.042,-0.041
37.65,-0.173,-0.03,0.069
37.66,-0.16,0.029,0.134
37.67,-0.257,0.125,0.12
37.68,-0.291,-0.003,0.089
37.69,-0.339,-0.115,-0.043
37.7,-0.384,-0.167,-0.064
37.71,-0.302,-0.123,-0.014
37.72,-0.221,0.088,-0.025
37.73,-0.26,0.195,-0.047
37.74,-0.193,0.179,-0.088
37.75,-0.204,0.228,-0.064
37.76,-0.204,0.152,0.02
37.77,-0.179,-0.058,0.053
37.78,-0.177,-0.132,0.041
37.79,-0.209,-0.125,0.078
37.8,-0.24,-0.094,0.082
37.81,-0.256,-0.015,0.088
37.82,-0.237,-0.04,0.007
37.83,-0.205,-0.082,-0.122
37.84,-0.334,0.006,-0.046
37.85,-0.348,0.019,0.038
37.86,-0.327,0.313,0.011
37.87,-0.349,0.329,-0.039
37.88,-0.171,0.125,-0.153
37.89,-0.044,0.022,-0.185
37.9,-0.14,-0.319,0.018
37.91,-0.153,-0.353,0.188
37.92,-0.218,-0.113,0.344
37.93,-0.225,0.02,0.2
37.94,-0.194,0.166,-0.064
37.95,-0.28,0.199,-0.13
37.96,-0.29,-0.045,-0.192
37.97,-0.401,-0.046,-0.098
37.98,-0.359,0.003,-0.06
37.99,-0.24,0.137,-0.046
38.0,-0.208,0.292,0.018
38.01,-0.142,0.256,0.037
38.02,-0.104,0.096,0.033
38.03,-0.174,-0.174,0.088
38.04,-0.285,-0.37,0.114
38.05,-0.311,-0.323,0.098
38.06,-0.203,-0.094,-0.005
38.07,-0.246,0.056,-0.006
38.08,-0.268,0.274,-0.052
38.09,-0.324,0.28,-0.046
38.1,-0.352,0.025,-0.023
38.11,-0.229,0.07,-0.129
38.12,-0.265,0.035,-0.048
38.13,-0.215,0.012,-0.004
38.14,-0.21,0.155,0.001
38.15,-0.192,0.015,0.032
38.16,-0.096,-0.226,0.027
38.17,-0.13,-0.24,0.071
38.18,-0.232,-0.189,0.148
38.19,-0.218,-0.001,0.079
38.2,-0.357,0.209,-0.025
38.21,-0.276,0.218,-0.106
38.22,-0.266,0.25,-0.137
38.23,-0.34,0.081,-0.074
38.24,-0.228,-0.122,-0.049
38.25,-0.272,-0.009,-0.053
38.26,-0.215,-0.085,0.042
38.27,-0.128,0.036,0.081
38.28,-0.031,0.098,0.085
38.29,-0.135,0.035,0.071
38.3,-0.214,-0.063,-0.014
38.31,-0.293,-0.127,-0.017
38.32,-0.399,0.024,0.03
38.33,-0.39,0.064,0.005
38.34,-0.328,0.22,-0.028
38.35,-0.316,0.087,-0.075
38.36,-0.304,0.145,-0.076
38.37,-0.218,-0.021,0.002
38.38,-0.108,-0.113,-0.025
38.39,-0.057,-0.067,-0.029
38.4,-0.062,-0.087,0.055
38.41,-0.123,0.062,0.093
38.42,-0.276,0.135,0.122
38.43,-0.316,-0.023,0.071
38.44,-0.282,-0.078,-0.077
38.45,-0.384,-0.072,-0.067
38.46,-0.359,-0.07,-0.004
38.47,-0.352,0.252,-0.032
38.48,-0.291,0.305,-0.028
38.49,-0.131,0.272,-0.166
38.5,-0.03,-0.009,-0.175
38.51,-0.05,-0.261,-0.037
38.52,-0.06,-0.402,0.142
38.53,-0.25,-0.131,0.357
38.54,-0.274,0.011,0.279
38.55,-0.281,0.201,0.006
38.56,-0.303,0.175,-0.167
38.57,-0.322,0.002,-0.169
38.58,-0.377,-0.105,-0.091
38.59,-0.376,0.005,-0.049
38.6,-0.295,0.03,-0.029
38.61,-0.203,0.166,-0.033
38.62,-0.088,0.216,-0.038
38.63,-0.111,0.007,0.045
38.64,-0.126,-0.095,0.101
38.65,-0.225,-0.22,0.099
38.66,-0.24,-0.219,0.044
38.67,-0.19,0.068,-0.004
38.68,-0.314,0.183,0.114
38.69,-0.312,0.225,0.001
38.7,-0.406,0.158,-0.132
38.71,-0.364,-0.176,-0.131
38.72,-0.234,-0.021,-0.171
38.73,-0.307,-0.064,-0.006
38.74,-0.194,0.052,0.029
38.75,-0.022,0.286,0.009
38.76,-0.047,0.073,0.05
38.77,-0.043,-0.028,0.044
38.78,-0.175,-0.202,0.159
38.79,-0.302,-0.139,0.143
38.8,-0.332,-0.113,-0.005
38.81,-0.538,0.047,-0.064
38.82,-0.41,0.08,-0.103
38.83,-0.307,0.231,-0.092
38.84,-0.228,-0.003,-0.023
38.85,-0.103,-0.101,-0.043
38.86,-0.069,0.011,-0.038
38.87,-0.042,0.035,0.042
38.88,-0.082,0.133,0.114
38.89,-0.207,0.118,0.065
38.9,-0.304,-0.046,-0.011
38.91,-0.438,-0.111,-0.056
38.92,-0.499,-0.151,-0.057
38.93,-0.423,-0.077,-0.0
38.94,-0.243,0.102,-0.031
38.95,-0.158,0.164,-0.05
38.96,-0.161,0.153,-0.023
38.97,-0.134,0.205,-0.012
38.98,-0.043,0.048,0.003
38.99,-0.105,-0.086,0.025
39.0,-0.189,-0.051,0.06
39.01,-0.252,-0.092,0.12
39.02,-0.374,-0.002,0.08
39.03,-0.405,0.012,-0.039
39.04,-0.261,-0.12,-0.073
39.05,-0.257,-0.027,-0.081
39.06,-0.335,0.069,0.02
39.07,-0.203,-0.013,0.039
39.08,-0.181,0.397,-0.019
39.09,-0.194,0.22,-0.03
39.1,-0.08,0.016,-0.118
39.11,-0.149,-0.16,-0.061
39.12,-0.146,-0.383,0.046
39.13,-0.284,-0.177,0.241
39.14,-0.397,0.036,0.256
39.15,-0.276,0.102,0.061
39.16,-0.23,0.228,-0.178
39.17,-0.231,0.1,-0.227
39.18,-0.282,-0.186,-0.097
39.19,-0.254,0.031,-0.027
39.2,-0.213,0.076,-0.001
39.21,-0.228,0.115,0.021
39.22,-0.18,0.283,-0.012
39.23,-0.16,0.146,0.024
39.24,-0.201,-0.075,0.084
39.25,-0.23,-0.239,0.046
39.26,-0.374,-0.343,0.058
39.27,-0.267,-0.119,0.019
39.28,-0.237,0.086,0.023
39.29,-0.238,0.186,0.014
39.3,-0.235,0.279,-0.085
39.31,-0.271,0.087,-0.101
39.32,-0.25,-0.068,-0.113
39.33,-0.26,-0.022,-0.029
39.34,-0.279,0.039,0.077
39.35,-0.193,0.125,0.063
39.36,-0.125,0.226,0.044
39.37,-0.197,-0.12,-0.022
39.38,-0.269,-0.222,0.034
39.39,-0.268,-0.23,0.087
39.4,-0.25,-0.17,0.08
39.41,-0.317,0.076,0.001
39.42,-0.307,0.24,-0.068
39.43,-0.185,0.206,-0.087
39.44,-0.134,0.206,-0.107
39.45,-0.259,-0.022,0.008
39.46,-0.198,-0.13,0.009
39.47,-0.182,-0.033,-0.018
39.48,-0.239,0.037,0.044
39.49,-0.204,0.072,0.064
39.5,-0.273,0.103,0.07
39.51,-0.269,-0.046,0.014
39.52,-0.271,-0.159,-0.069
39.53,-0.35,-0.009,-0.035
39.54,-0.218,0.028,-0.019
39.55,-0.2,0.23,-0.015
39.56,-0.259,0.23,-0.049
39.57,-0.194,0.143,-0.046
39.58,-0.268,0.063,0.012
39.59,-0.242,-0.11,-0.01
39.6,-0.194,-0.247,0.047
39.61,-0.231,-0.112,0.061
39.62,-0.163,-0.091,0.078
39.63,-0.263,0.116,0.08
39.64,-0.222,0.14,-0.02
39.65,-0.167,-0.008,-0.097
39.66,-0.271,-0.079,-0.11
39.67,-0.306,0.056,-0.019
39.68,-0.298,0.121,0.045
39.69,-0.347,0.328,0.013
39.7,-0.257,0.29,-0.11
39.71,-0.156,-0.093,-0.143
39.72,-0.098,-0.209,-0.063
39.73,-0.105,-0.408,0.128
39.74,-0.239,-0.295,0.287
39.75,-0.155,0.136,0.219
39.76,-0.237,0.147,0.045
39.77,-0.253,0.263,-0.145
39.78,-0.239,0.117,-0.216
39.79,-0.423,-0.14,-0.063
39.8,-0.339,0.056,-0.065
39.81,-0.368,0.029,-0.018
39.82,-0.301,0.072,0.012
39.83,-0.064,0.304,-0.041
39.84,-0.129,0.076,0.079
39.85,-0.101,-0.236,0.095
39.86,-0.148,-0.142,0.072
39.87,-0.259,-0.315,0.091
39.88,-0.262,-0.05,0.031
39.89,-0.329,0.151,0.034
39.9,-0.307,0.299,-0.048
39.91,-0.335,0.212,-0.084
39.92,-0.398,0.074,-0.095
39.93,-0.269,-0.133,-0.153
39.94,-0.191,-0.085,-0.044
39.95,-0.213,0.073,0.062
39.96,-0.059,0.044,0.062
39.97,-0.048,0.17,0.032
39.98,-0.066,-0.075,0.048
39.99,-0.232,-0.192,0.097
40.0,-0.316,-0.162,0.097
40.01,-0.304,-0.12,0.048
40.02,-0.436,0.108,-0.017
40.03,-0.375,0.253,-0.094
40.04,-0.27,0.113,-0.123
40.05,-0.22,0.191,-0.101
40.06,-0.188,-0.049,-0.066
40.07,-0.12,-0.217,0.022
40.08,-0.079,-0.035,0.017
40.09,-0.127,0.061,0.113
40.1,-0.153,0.049,0.156
40.11,-0.239,0.124,0.063
40.12,-0.349,-0.03,-0.015
40.13,-0.373,-0.116,-0.049
40.14,-0.409,0.022,-0.042
40.15,-0.384,0.049,-0.042
40.16,-0.277,0.101,-0.062
40.17,-0.228,0.237,-0.097
40.18,-0.186,0.086,-0.027
40.19,-0.101,0.025,-0.027
40.2,-0.071,-0.058,-0.01
40.21,-0.112,-0.202,0.086
40.22,-0.143,-0.035,0.136
40.23,-0.25,0.027,0.122
40.24,-0.39,0.072,0.053
40.25,-0.286,0.118,-0.072
40.26,-0.29,-0.073,-0.101
40.27,-0.379,-0.09,-0.068
40.28,-0.342,0.043,-0.021
40.29,-0.282,0.07,0.034
40.3,-0.154,0.345,-0.033
40.31,-0.057,0.243,-0.108
40.32,-0.049,-0.146,-0.119
40.33,-0.093,-0.295,0.015
40.34,-0.238,-0.317,0.237
40.35,-0.326,-0.107,0.36
40.36,-0.33,0.134,0.156
40.37,-0.305,0.125,-0.098
40.38,-0.278,0.115,-0.215
40.39,-0.345,0.019,-0.168
40.4,-0.347,-0.148,-0.036
40.41,-0.221,0.035,-0.09
40.42,-0.204,0.179,-0.013
40.43,-0.15,0.168,0.003
40.44,-0.076,0.26,0.027
40.45,-0.147,-0.045,0.126
40.46,-0.202,-0.262,0.079
40.47,-0.334,-0.248,0.095
40.48,-0.273,-0.202,0.076
40.49,-0.345,0.012,0.008
40.5,-0.372,0.295,-0.037
40.51,-0.205,0.138,-0.104
40.52,-0.267,0.182,-0.136
40.53,-0.225,-0.055,-0.141
40.54,-0.211,-0.131,-0.029
40.55,-0.219,0.042,0.092
40.56,-0.184,0.184,0.102
40.57,-0.179,0.146,0.048
40.58,-0.124,0.075,-0.044
40.59,-0.163,-0.165,-0.001
40.6,-0.307,-0.278,0.068
40.61,-0.373,-0.135,0.109
40.62,-0.385,-0.215,0.068
40.63,-0.248,0.22,-0.05
40.64,-0.266,0.218,-0.106
40.65,-0.247,0.121,-0.047
40.66,-0.167,0.074,-0.071
40.67,-0.151,-0.039,-0.061
40.68,-0.175,-0.097,-0.019
40.69,-0.174,0.061,0.055
40.7,-0.184,0.157,0.119
40.71,-0.211,0.1,0.075
40.72,-0.279,-0.018,0.042
40.73,-0.377,-0.208,-0.013
40.74,-0.376,-0.167,-0.067
40.75,-0.341,0.005,-0.006
40.76,-0.217,0.124,-0.01
40.77,-0.182,0.297,-0.111
40.78,-0.22,0.243,-0.061
40.79,-0.162,0.112,-0.0
40.8,-0.119,-0.039,-0.021
40.81,-0.191,-0.208,0.084
40.82,-0.215,-0.15,0.058
40.83,-0.218,-0.059,0.056
40.84,-0.331,0.081,0.072
40.85,-0.288,0.052,0.011
40.86,-0.22,0.043,-0.081
40.87,-0.255,-0.178,-0.075
40.88,-0.264,-0.025,-0.008
40.89,-0.228,0.181,0.029
40.9,-0.336,0.247,0.082
40.91,-0.25,0.344,-0.052
40.92,-0.123,0.118,-0.179
40.93,-0.148,-0.291,-0.14
40.94,-0.182,-0.387,-0.011
40.95,-0.299,-0.243,0.245
40.96,-0.229,-0.111,0.306
40.97,-0.186,0.22,0.063
40.98,-0.205,0.244,-0.088
40.99,-0.166,0.129,-0.184
41.0,-0.336,-0.017,-0.111
41.01,-0.309,-0.111,-0.033
41.02,-0.279,0.034,-0.048
41.03,-0.379,0.2,0.037
41.04,-0.131,0.15,-0.027
41.05,-0.154,0.222,-0.047
41.06,-0.231,-0.062,0.068
41.07,-0.149,-0.311,0.058
41.08,-0.271,-0.176,0.095
41.09,-0.165,-0.153,0.038
41.1,-0.232,0.103,0.023
41.11,-0.3,0.315,-0.024
41.12,-0.252,0.12,-0.05
41.13,-0.336,0.14,-0.029
41.14,-0.294,-0.064,-0.087
41.15,-0.312,-0.183,-0.021
41.16,-0.283,0.031,-0.028
41.17,-0.186,0.162,0.038
41.18,-0.141,0.119,0.012
41.19,-0.044,-0.007,-0.058
41.2,-0.18,-0.251,0.04
41.21,-0.223,-0.212,0.12
41.22,-0.203,-0.034,0.091
41.23,-0.381,-0.011,0.108
41.24,-0.319,0.286,-0.062
41.25,-0.264,0.322,-0.145
41.26,-0.35,0.025,-0.072
41.27,-0.24,-0.017,-0.113
41.28,-0.202,-0.129,-0.055
41.29,-0.174,-0.185,0.037
41.3,-0.116,-0.002,0.093
41.31,-0.136,0.14,0.12
41.32,-0.137,0.099,0.084
41.33,-0.266,0.079,0.011
41.34,-0.338,-0.104,-0.044
41.35,-0.366,-0.01,-0.066
41.36,-0.392,0.086,-0.053
41.37,-0.275,0.079,-0.037
41.38,-0.243,0.209,-0.061
41.39,-0.214,0.069,-0.007
41.4,-0.148,-0.014,0.003
41.41,-0.137,-0.093,0.028
41.42,-0.167,-0.197,0.063
41.43,-0.134,-0.109,0.072
41.44,-0.206,0.085,0.059
41.45,-0.304,0.105,0.048
41.46,-0.271,0.123,-0.074
41.47,-0.28,0.015,-0.117
41.48,-0.346,-0.129,-0.022
41.49,-0.281,-0.004,0.015
41.5,-0.33,0.137,0.053
41.51,-0.365,0.203,0.037
41.52,-0.129,0.266,-0.112
41.53,-0.01,0.035,-0.168
41.54,-0.093,-0.29,-0.089
41.55,-0.091,-0.317,0.035
41.56,-0.249,-0.213,0.315
41.57,-0.239,0.075,0.281
41.58,-0.284,0.273,0.048
41.59,-0.345,0.203,-0.129
41.6,-0.283,0.091,-0.215
41.61,-0.441,-0.108,-0.105
41.62,-0.415,-0.073,0.007
41.63,-0.26,-0.061,-0.013
41.64,-0.22,0.2,0.003
41.65,0.006,0.054,-0.014
41.66,-0.02,0.174,0.05
41.67,-0.175,-0.092,0.125
41.68,-0.252,-0.273,0.091
41.69,-0.315,-0.09,0.03
41.7,-0.304,-0.107,-0.028
41.71,-0.368,0.178,0.03
41.72,-0.328,0.289,-0.046
41.73,-0.358,0.072,-0.047
41.74,-0.275,-0.076,-0.124
41.75,-0.109,-0.031,-0.114
41.76,-0.21,-0.141,0.03
41.77,-0.145,0.148,0.064
41.78,-0.149,0.243,0.04
41.79,-0.101,0.045,-0.027
41.8,-0.122,0.034,-0.042
41.81,-0.31,-0.241,0.123
41.82,-0.318,-0.232,0.114
41.83,-0.364,0.011,0.014
41.84,-0.389,-0.079,-0.011
41.85,-0.272,0.295,-0.117
41.86,-0.206,0.202,-0.093
41.87,-0.179,0.049,-0.037
41.88,-0.138,-0.084,-0.054
41.89,-0.167,-0.046,-0.009
41.9,-0.089,-0.119,0.089
41.91,-0.166,0.163,0.144
41.92,-0.242,0.093,0.109
41.93,-0.298,-0.047,0.022
41.94,-0.341,0.013,-0.098
41.95,-0.417,-0.152,-0.055
41.96,-0.421,-0.028,-0.027
41.97,-0.249,0.124,-0.073
41.98,-0.163,0.17,-0.085
41.99,-0.181,0.187,-0.059
42.0,-0.193,0.206,0.021
42.01,-0.109,-0.075,0.037
42.02,-0.134,-0.092,0.036
42.03,-0.2,-0.162,0.078
42.04,-0.202,-0.032,0.094
42.05,-0.256,0.099,0.028
42.06,-0.345,0.072,-0.022
42.07,-0.267,-0.034,-0.094
42.08,-0.251,-0.082,-0.059
42.09,-0.282,-0.125,0.013
42.1,-0.274,0.11,0.046
42.11,-0.302,0.296,0.018
42.12,-0.208,0.27,-0.043
42.13,-0.057,0.202,-0.163
42.14,-0.095,-0.229,-0.104
42.15,-0.144,-0.404,0.067
42.16,-0.207,-0.338,0.235
42.17,-0.358,0.003,0.327
42.18,-0.33,0.098,0.107
42.19,-0.313,0.254,-0.12
42.2,-0.2,0.053,-0.242
42.21,-0.296,-0.036,-0.168
42.22,-0.395,-0.005,-0.036
42.23,-0.257,-0.038,0.006
42.24,-0.184,0.232,-0.042
42.25,-0.1,0.241,-0.0
42.26,-0.102,0.145,0.034
42.27,-0.136,-0.048,0.087
42.28,-0.301,-0.275,0.107
42.29,-0.369,-0.333,0.068
42.3,-0.302,-0.121,-0.009
42.31,-0.248,0.042,-0.001
42.32,-0.291,0.266,-0.057
42.33,-0.252,0.269,-0.052
42.34,-0.256,0.122,-0.023
42.35,-0.201,-0.009,-0.096
42.36,-0.302,-0.025,-0.031
42.37,-0.169,-0.098,0.023
42.38,-0.2,0.231,0.023
42.39,-0.206,0.133,0.016
42.4,-0.16,-0.114,-0.011
42.41,-0.271,-0.177,0.04
42.42,-0.196,-0.31,0.148
42.43,-0.192,-0.151,0.113
42.44,-0.307,0.103,0.049
42.45,-0.308,0.178,-0.046
42.46,-0.254,0.299,-0.123
42.47,-0.248,0.239,-0.127
42.48,-0.278,-0.138,-0.054
42.49,-0.251,-0.031,-0.052
42.5,-0.182,-0.077,-0.042
42.51,-0.191,-0.069,0.12
42.52,-0.122,0.121,0.093
42.53,-0.136,0.026,0.118
42.54,-0.186,-0.079,0.016
42.55,-0.224,-0.01,-0.08
42.56,-0.399,-0.033,-0.008
42.57,-0.364,0.102,-0.044
42.58,-0.321,0.216,-0.055
42.59,-0.271,0.128,-0.058
42.6,-0.245,0.176,-0.064
42.61,-0.254,0.007,-0.012
42.62,-0.124,-0.138,0.034
42.63,-0.102,-0.087,0.02
42.64,-0.131,-0.055,0.089
42.65,-0.135,-0.078,0.058
42.66,-0.225,0.087,0.058
42.67,-0.234,0.058,0.001
42.68,-0.281,-0.135,-0.044
42.69,-0.422,-0.007,0.018
42.7,-0.366,0.027,0.03
42.71,-0.336,0.204,0.002
42.72,-0.357,0.339,-0.066
42.73,-0.224,0.131,-0.164
42.74,-0.053,0.046,-0.216
42.75,0.017,-0.228,-0.108
42.76,-0.077,-0.411,0.137
42.77,-0.242,-0.146,0.335
42.78,-0.188,0.051,0.277
42.79,-0.215,0.145,0.055
42.8,-0.273,0.236,-0.133
42.81,-0.342,0.01,-0.183
42.82,-0.484,-0.13,-0.108
42.83,-0.393,0.068,-0.058
42.84,-0.328,-0.001,-0.027
42.85,-0.245,0.195,-0.023
42.86,-0.119,0.188,-0.037
42.87,0.002,0.004,0.037
42.88,-0.104,-0.073,0.091
42.89,-0.24,-0.275,0.142
42.9,-0.244,-0.209,0.082
42.91,-0.228,0.006,-0.026
42.92,-0.332,0.073,0.039
42.93,-0.244,0.31,-0.026
42.94,-0.387,0.172,-0.012
42.95,-0.456,-0.017,-0.032
42.96,-0.246,-0.074,-0.16
42.97,-0.322,-0.025,-0.097
42.98,-0.192,-0.014,0.026
42.99,-0.086,0.14,0.0
43.0,-0.063,0.091,0.037
43.01,-0.069,-0.135,0.034
43.02,-0.161,-0.129,0.105
43.03,-0.209,-0.073,0.168
43.04,-0.324,-0.101,0.07
43.05,-0.414,0.135,-0.044
43.06,-0.347,0.143,-0.143
43.07,-0.398,0.11,-0.112
43.08,-0.332,0.13,-0.091
43.09,-0.198,-0.087,-0.029
43.1,-0.135,-0.124,0.014
43.11,-0.048,0.068,0.028
43.12,-0.014,-0.024,0.106
43.13,-0.103,0.155,0.11
43.14,-0.22,0.054,0.035
43.15,-0.318,-0.048,-0.003
43.16,-0.431,-0.032,-0.02
43.17,-0.509,-0.047,-0.007
43.18,-0.375,-0.014,-0.079
43.19,-0.271,0.103,-0.079
43.2,-0.212,0.132,-0.031
43.21,-0.115,0.16,-0.037
43.22,-0.125,0.108,0.034
43.23,-0.059,-0.075,-0.022
43.24,-0.106,-0.044,-0.028
43.25,-0.177,-0.094,0.078
43.26,-0.268,-0.029,0.098
43.27,-0.394,0.115,0.064
43.28,-0.316,-0.057,-0.031
43.29,-0.305,-0.153,-0.081
43.3,-0.322,-0.003,-0.006
43.31,-0.268,0.056,0.061
43.32,-0.267,0.235,0.005
43.33,-0.198,0.423,-0.128
43.34,-0.115,0.135,-0.178
43.35,-0.049,-0.127,-0.192
43.36,-0.075,-0.333,-0.015
43.37,-0.2,-0.346,0.31
43.38,-0.339,-0.017,0.35
43.39,-0.323,0.115,0.216
43.4,-0.259,0.156,-0.135
43.41,-0.254,0.16,-0.235
43.42,-0.33,-0.031,-0.135
43.43,-0.344,-0.135,-0.045
43.44,-0.321,0.095,-0.002
43.45,-0.219,0.076,0.036
43.46,-0.165,0.216,0.001
43.47,-0.119,0.203,-0.001
43.48,-0.081,-0.073,0.076
43.49,-0.197,-0.115,0.072
43.5,-0.393,-0.198,0.06
43.51,-0.252,-0.233,-0.034
43.52,-0.187,0.079,-0.065
43.53,-0.339,0.198,0.007
43.54,-0.3,0.08,0.008
43.55,-0.29,0.139,-0.065
43.56,-0.234,-0.038,-0.059
43.57,-0.246,-0.031,-0.023
43.58,-0.262,0.122,0.016
43.59,-0.153,0.047,0.051
43.6,-0.1,0.219,-0.017
43.61,-0.149,0.038,-0.019
43.62,-0.23,-0.315,0.069
43.63,-0.272,-0.161,0.1
43.64,-0.275,-0.128,0.107
43.65,-0.299,-0.089,0.016
43.66,-0.331,0.169,-0.109
43.67,-0.27,0.232,-0.092
43.68,-0.196,0.194,-0.042
43.69,-0.22,0.105,-0.003
43.7,-0.182,-0.12,-0.007
43.71,-0.141,0.028,0.006
43.72,-0.206,0.051,0.099
43.73,-0.219,-0.019,0.099
43.74,-0.261,0.042,0.031
43.75,-0.365,-0.128,-0.037
43.76,-0.298,-0.164,-0.07
43.77,-0.333,0.061,-0.026
43.78,-0.256,0.146,-0.0
43.79,-0.164,0.233,-0.043
43.8,-0.19,0.221,-0.061
43.81,-0.251,0.07,-0.019
43.82,-0.217,0.055,0.013
43.83,-0.164,-0.093,0.016
43.84,-0.198,-0.178,0.016
43.85,-0.257,-0.027,0.027
43.86,-0.24,-0.007,0.034
43.87,-0.221,-0.014,0.082
43.88,-0.18,0.094,-0.005
43.89,-0.191,-0.084,-0.047
43.9,-0.271,-0.046,-0.048
43.91,-0.28,0.101,-0.008
43.92,-0.332,0.258,0.082
43.93,-0.334,0.267,0.015
43.94,-0.274,0.269,-0.152
43.95,-0.097,-0.176,-0.19
43.96,-0.102,-0.306,-0.096
43.97,-0.209,-0.337,0.154
43.98,-0.276,-0.205,0.339
43.99,-0.152,0.091,0.244
44.0,-0.192,0.198,-0.04
44.01,-0.217,0.17,-0.201
44.02,-0.24,0.107,-0.174
44.03,-0.393,-0.055,-0.033
44.04,-0.377,-0.029,-0.034
44.05,-0.325,0.098,-0.005
44.06,-0.275,0.086,0.014
44.07,-0.142,0.205,-0.04
44.08,-0.145,0.113,0.073
44.09,-0.132,-0.25,0.074
44.1,-0.18,-0.209,0.04
44.11,-0.231,-0.214,0.035
44.12,-0.138,-0.07,-0.031
44.13,-0.284,0.237,0.024
44.14,-0.323,0.263,0.009
44.15,-0.362,0.235,-0.043
44.16,-0.369,0.141,-0.084
44.17,-0.288,-0.177,-0.091
44.18,-0.241,-0.052,-0.066
44.19,-0.207,-0.006,0.017
44.2,-0.146,-0.011,0.085
44.21,-0.049,0.152,0.017
44.22,-0.077,-0.162,0.027
44.23,-0.227,-0.218,0.126
44.24,-0.258,-0.179,0.106
44.25,-0.29,0.003,0.059
44.26,-0.436,0.115,-0.012
44.27,-0.354,0.312,-0.106
44.28,-0.304,0.25,-0.135
44.29,-0.219,0.018,-0.125
44.3,-0.222,-0.073,-0.038
44.31,-0.204,-0.221,0.044
44.32,-0.057,-0.075,0.027
44.33,-0.158,0.048,0.116
44.34,-0.13,0.082,0.136
44.35,-0.162,0.146,0.046
44.36,-0.323,-0.097,-0.024
44.37,-0.323,-0.073,-0.08
44.38,-0.38,0.021,-0.057
44.39,-0.41,0.085,-0.002
44.4,-0.231,0.132,-0.101
44.41,-0.258,0.242,-0.084
44.42,-0.275,0.09,-0.017
44.43,-0.152,-0.01,0.04
44.44,-0.092,-0.046,0.052
44.45,-0.051,-0.222,0.051
44.46,-0.105,-0.106,0.071
44.47,-0.162,0.013,0.101
44.48,-0.303,0.029,0.057
44.49,-0.322,0.134,-0.02
44.5,-0.323,-0.015,-0.093
44.51,-0.424,-0.069,-0.054
44.52,-0.417,0.078,-0.019
44.53,-0.35,0.135,0.02
44.54,-0.285,0.285,-0.031
44.55,-0.065,0.216,-0.129
44.56,0.006,-0.141,-0.115
44.57,0.014,-0.284,-0.004
44.58,-0.126,-0.36,0.201
44.59,-0.272,-0.168,0.334
44.6,-0.233,0.211,0.162
44.61,-0.366,0.255,-0.028
44.62,-0.355,0.138,-0.195
44.63,-0.334,0.07,-0.251
44.64,-0.415,-0.128,-0.092
44.65,-0.369,-0.028,-0.017
44.66,-0.15,0.101,0.003
44.67,-0.172,0.214,0.029
44.68,0.011,0.206,-0.0
44.69,-0.073,0.057,0.039
44.7,-0.159,-0.253,0.125
44.71,-0.259,-0.265,0.081
44.72,-0.357,-0.187,0.063
44.73,-0.288,-0.072,-0.015
44.74,-0.301,0.272,-0.062
44.75,-0.363,0.253,-0.027
44.76,-0.359,0.113,-0.093
44.77,-0.282,-0.022,-0.09
44.78,-0.175,-0.075,-0.067
44.79,-0.201,-0.079,0.008
44.8,-0.152,0.141,0.055
44.81,-0.081,0.067,0.054
44.82,-0.108,0.096,-0.007
44.83,-0.181,-0.087,0.057
44.84,-0.275,-0.247,0.131
44.85,-0.268,-0.013,0.032
44.86,-0.363,-0.085,-0.024
44.87,-0.415,0.05,-0.077
44.88,-0.292,0.297,-0.126
44.89,-0.199,0.093,-0.025
44.9,-0.21,0.053,-0.037
44.91,-0.169,-0.025,-0.022
44.92,-0.124,-0.138,0.016
44.93,-0.119,0.069,0.057
44.94,-0.146,0.079,0.111
44.95,-0.189,0.102,0.123
44.96,-0.288,-0.055,0.016
44.97,-0.395,-0.108,-0.055
44.98,-0.4,-0.237,-0.054
44.99,-0.361,0.015,0.005
45.0,-0.273,0.145,-0.011
45.01,-0.185,0.159,-0.075
45.02,-0.187,0.319,-0.082
45.03,-0.185,0.121,-0.006
45.04,-0.127,0.011,-0.028
45.05,-0.113,-0.094,0.003
45.06,-0.184,-0.193,0.043
45.07,-0.208,-0.043,0.123
45.08,-0.349,0.04,0.099
45.09,-0.373,-0.047,0.078
45.1,-0.188,0.076,-0.129
45.11,-0.213,-0.098,-0.116
45.12,-0.286,-0.09,-0.033
45.13,-0.262,0.246,0.023
45.14,-0.291,0.274,0.038
45.15,-0.205,0.292,-0.092
45.16,-0.127,0.174,-0.19
45.17,-0.093,-0.231,-0.081
45.18,-0.131,-0.335,0.075
45.19,-0.326,-0.155,0.24
45.2,-0.308,-0.239,0.321
45.21,-0.267,0.189,0.048
45.22,-0.22,0.157,-0.138
45.23,-0.18,-0.019,-0.191
45.24,-0.291,0.118,-0.103
45.25,-0.339,-0.065,-0.004
45.26,-0.263,0.045,-0.027
45.27,-0.277,0.115,-0.008
45.28,-0.178,0.198,-0.007
45.29,-0.177,0.151,0.04
45.3,-0.187,-0.029,0.052
45.31,-0.275,-0.26,0.063
45.32,-0.305,-0.287,0.036
45.33,-0.172,-0.086,0.03
45.34,-0.229,0.079,0.074
45.35,-0.183,0.341,-0.043
45.36,-0.295,0.175,-0.006
45.37,-0.298,0.052,-0.106
45.38,-0.243,0.0,-0.141
45.39,-0.336,-0.112,-0.006
45.4,-0.246,0.088,0.031
45.41,-0.229,0.179,0.045
45.42,-0.149,0.037,0.004
45.43,-0.09,-0.098,-0.039
45.44,-0.184,-0.183,0.093
45.45,-0.164,-0.341,0.109
45.46,-0.251,0.023,0.082
45.47,-0.349,0.048,0.036
45.48,-0.31,0.19,-0.055
45.49,-0.309,0.342,-0.087
45.5,-0.261,0.028,-0.061
45.51,-0.269,-0.002,-0.042
45.52,-0.214,-0.061,-0.047
45.53,-0.186,-0.164,0.005
45.54,-0.194,0.021,0.053
45.55,-0.123,0.072,0.071
45.56,-0.185,-0.052,0.059
45.57,-0.256,0.031,0.016
45.58,-0.32,-0.079,-0.037
45.59,-0.326,-0.047,-0.008
45.6,-0.29,0.181,-0.017
45.61,-0.275,0.129,-0.038
45.62,-0.28,0.237,-0.082
45.63,-0.216,0.132,-0.062
45.64,-0.259,-0.019,0.008
45.65,-0.216,-0.037,0.014
45.66,-0.132,-0.218,0.011
45.67,-0.118,-0.171,0.089
45.68,-0.199,0.028,0.057
45.69,-0.243,0.044,0.089
45.7,-0.334,0.061,-0.158
45.71,-0.217,0.194,-0.126
45.72,-0.274,0.082,-0.018
45.73,-0.174,-0.047,0.019
45.74,-0.107,0.015,-0.007
45.75,-0.062,0.024,0.011
45.76,-0.097,0.022,0.061
45.77,-0.169,0.048,0.1
45.78,-0.274,0.029,0.116
45.79,-0.388,-0.063,0.009
45.8,-0.429,-0.097,-0.045
45.81,-0.381,-0.035,-0.085
45.82,-0.297,0.093,-0.054
45.83,-0.269,0.188,-0.015
45.84,-0.16,0.137,-0.044
45.85,-0.126,0.171,-0.075
45.86,-0.131,0.032,-0.012
45.87,-0.125,-0.124,0.046
45.88,-0.133,-0.105,0.014
45.89,-0.238,-0.082,0.148
45.9,-0.304,-0.014,0.148
45.91,-0.382,0.105,0.08
45.92,-0.315,-0.042,-0.086
45.93,-0.262,-0.117,-0.148
45.94,-0.332,0.015,-0.088
45.95,-0.26,-0.005,0.029
45.96,-0.232,0.252,-0.008
45.97,-0.19,0.398,-0.051
45.98,-0.108,0.115,-0.129
45.99,-0.039,-0.04,-0.119
46.0,-0.134,-0.338,0.041
46.01,-0.176,-0.329,0.194
46.02,-0.353,-0.04,0.326
46.03,-0.333,0.047,0.209
46.04,-0.324,0.239,-0.085
46.05,-0.3,0.151,-0.218
46.06,-0.236,-0.072,-0.187
46.07,-0.308,-0.056,-0.104
46.08,-0.325,0.033,-0.047
46.09,-0.152,0.059,0.015
46.1,-0.112,0.319,0.015
46.11,-0.088,0.192,0.023
46.12,-0.127,-0.046,0.091
46.13,-0.183,-0.12,0.072
46.14,-0.325,-0.322,0.119
46.15,-0.499,-0.226,0.093
46.16,-0.324,-0.089,-0.022
46.17,-0.314,0.202,-0.024
46.18,-0.193,0.218,-0.08
46.19,-0.312,0.126,-0.074
46.2,-0.24,-0.049,-0.049
46.21,-0.058,0.049,-0.121
46.22,-0.185,0.06,0.002
46.23,-0.168,0.115,0.038
46.24,-0.141,0.249,0.043
46.25,-0.265,0.054,0.062
46.26,-0.24,-0.225,-0.007
46.27,-0.298,-0.275,0.056
46.28,-0.331,-0.261,0.062
46.29,-0.274,-0.098,0.049
46.3,-0.394,0.177,0.031
46.31,-0.215,0.208,-0.046
46.32,-0.127,0.281,-0.129
46.33,-0.189,0.127,-0.1
46.34,-0.123,-0.078,-0.056
46.35,-0.162,-0.055,-0.02
46.36,-0.195,0.014,0.046
46.37,-0.237,-0.018,0.092
46.38,-0.252,0.056,0.105
46.39,-0.313,-0.059,0.052
46.4,-0.334,-0.14,0.011
46.41,-0.335,-0.06,-0.008
46.42,-0.302,-0.019,-0.024
46.43,-0.239,0.236,-0.041
46.44,-0.2,0.251,-0.102
46.45,-0.2,0.172,-0.092
46.46,-0.185,0.14,-0.07
46.47,-0.166,-0.04,-0.033
46.48,-0.194,-0.167,0.047
46.49,-0.192,-0.116,0.076
46.5,-0.26,-0.053,0.128
46.51,-0.253,-0.022,0.115
46.52,-0.251,0.062,0.013
46.53,-0.15,0.037,-0.053
46.54,-0.23,-0.078,-0.104
46.55,-0.303,0.032,-0.08
46.56,-0.266,0.019,0.02
46.57,-0.305,0.272,0.036
46.58,-0.275,0.418,-0.052
46.59,-0.195,0.036,-0.126
46.6,-0.144,-0.012,-0.178
46.61,-0.125,-0.31,-0.011
46.62,-0.194,-0.424,0.244
46.63,-0.219,-0.135,0.299
46.64,-0.207,0.007,0.188
46.65,-0.215,0.16,-0.006
46.66,-0.25,0.196,-0.164
46.67,-0.317,0.053,-0.131
46.68,-0.386,-0.047,-0.075
46.69,-0.394,0.1,-0.05
46.7,-0.283,0.03,-0.002
46.71,-0.197,0.199,-0.084
46.72,-0.183,0.166,-0.011
46.73,-0.113,-0.069,0.056
46.74,-0.054,-0.117,0.082
46.75,-0.227,-0.265,0.117
46.76,-0.23,-0.175,0.052
46.77,-0.224,0.062,0.025
46.78,-0.305,0.164,0.008
46.79,-0.314,0.268,-0.063
46.8,-0.364,0.164,-0.05
46.81,-0.331,-0.037,-0.086
46.82,-0.267,-0.005,-0.122
46.83,-0.271,-0.07,-0.001
46.84,-0.178,0.038,0.042
46.85,-0.061,0.165,0.014
46.86,-0.042,-0.038,0.009
46.87,-0.085,-0.139,0.02
46.88,-0.272,-0.199,0.122
46.89,-0.309,-0.146,0.191
46.9,-0.329,0.03,0.083
46.91,-0.387,0.167,-0.013
46.92,-0.355,0.23,-0.114
46.93,-0.296,0.063,-0.166
46.94,-0.259,0.097,-0.11
46.95,-0.198,-0.123,-0.069
46.96,-0.145,-0.105,-0.019
46.97,-0.09,0.026,0.019
46.98,-0.07,0.04,0.111
46.99,-0.098,0.126,0.149
47.0,-0.25,-0.001,0.094
47.01,-0.338,-0.096,-0.031
47.02,-0.348,-0.073,-0.07
47.03,-0.442,0.05,0.009
47.04,-0.369,0.141,-0.077
47.05,-0.293,0.183,-0.084
47.06,-0.286,0.119,-0.062
47.07,-0.178,0.115,-0.062
47.08,-0.116,-0.069,0.004
47.09,-0.069,-0.186,0.066
47.1,-0.059,-0.025,0.06
47.11,-0.126,0.01,0.117
47.12,-0.231,-0.0,0.096
47.13,-0.336,0.186,-0.001
47.14,-0.305,-0.065,-0.084
47.15,-0.35,-0.192,-0.075
47.16,-0.418,-0.04,-0.004
47.17,-0.37,0.046,0.087
47.18,-0.323,0.24,0.054
47.19,-0.223,0.331,-0.097
47.2,-0.097,0.088,-0.172
47.21,0.035,-0.123,-0.173
47.22,-0.067,-0.299,-0.031
47.23,-0.183,-0.361,0.193
47.24,-0.235,0.071,0.329
47.25,-0.282,0.25,0.19
47.26,-0.288,0.184,-0.024
47.27,-0.294,0.105,-0.18
47.28,-0.35,-0.139,-0.153
47.29,-0.398,-0.174,-0.068
47.3,-0.349,0.055,-0.005
47.31,-0.28,0.068,0.003
47.32,-0.066,0.32,-0.085
47.33,-0.033,0.251,-0.061
47.34,-0.069,-0.063,0.068
47.35,-0.172,-0.081,0.105
47.36,-0.285,-0.318,0.14
47.37,-0.293,-0.145,0.051
47.38,-0.315,0.027,-0.035
47.39,-0.323,0.148,-0.011
47.4,-0.326,0.119,-0.065
47.41,-0.317,0.131,-0.023
