t,ax,ay,az
0.0,-0.236,0.017,0.006
0.01,-0.227,0.02,0.001
0.02,-0.232,0.016,-0.004
0.03,-0.233,0.015,-0.002
0.04,-0.232,0.019,0.003
0.05,-0.227,0.021,0.003
0.06,-0.224,0.018,-0.005
0.07,-0.231,0.016,0.004
0.08,-0.231,0.014,-0.0
0.09,-0.231,0.02,-0.001
0.1,-0.232,0.018,-0.0
0.11,-0.228,0.018,0.006
0.12,-0.229,0.02,0.004
0.13,-0.234,0.018,0.001
0.14,-0.228,0.017,-0.002
0.15,-0.225,0.021,-0.005
0.16,-0.233,0.014,-0.002
0.17,-0.228,0.017,-0.004
0.18,-0.229,0.016,0.004
0.19,-0.238,0.017,0.001
0.2,-0.232,0.016,0.002
0.21,-0.234,0.02,-0.002
0.22,-0.23,0.019,-0.002
0.23,-0.232,0.017,-0.001
0.24,-0.222,0.017,0.001
0.25,-0.235,0.016,0.002
0.26,-0.227,0.024,-0.0
0.27,-0.23,0.022,-0.003
0.28,-0.231,0.018,0.007
0.29,-0.231,0.019,-0.012
0.3,-0.23,0.015,0.004
0.31,-0.231,0.017,-0.004
0.32,-0.224,0.022,0.0
0.33,-0.228,0.02,0.006
0.34,-0.229,0.011,-0.004
0.35,-0.237,0.021,-0.003
0.36,-0.233,0.021,0.008
0.37,-0.227,0.019,0.001
0.38,-0.23,0.013,0.006
0.39,-0.231,0.021,0.001
0.4,-0.223,0.016,-0.009
0.41,-0.227,0.016,-0.005
0.42,-0.225,0.016,0.004
0.43,-0.228,0.019,0.006
0.44,-0.223,0.018,-0.001
0.45,-0.225,0.024,-0.001
0.46,-0.235,0.021,-0.011
0.47,-0.231,0.021,0.003
0.48,-0.234,0.021,-0.008
0.49,-0.228,0.02,0.007
0.5,-0.226,0.016,-0.0
0.51,-0.229,0.021,0.005
0.52,-0.231,0.012,0.004
0.53,-0.234,0.02,0.003
0.54,-0.233,0.017,0.002
0.55,-0.232,0.021,0.005
0.56,-0.228,0.023,-0.004
0.57,-0.231,0.017,-0.002
0.58,-0.225,0.015,0.003
0.59,-0.226,0.015,0.009
0.6,-0.228,0.02,-0.004
0.61,-0.231,0.017,0.004
0.62,-0.23,0.022,0.005
0.63,-0.23,0.018,0.0
0.64,-0.233,0.028,-0.005
0.65,-0.236,0.02,-0.003
0.66,-0.233,0.015,0.0
0.67,-0.235,0.02,0.008
0.68,-0.232,0.017,0.003
0.69,-0.232,0.014,-0.001
0.7,-0.23,0.015,-0.0
0.71,-0.237,0.022,-0.005
0.72,-0.227,0.019,0.008
0.73,-0.228,0.016,0.009
0.74,-0.226,0.016,-0.003
0.75,-0.23,0.016,0.002
0.76,-0.228,0.018,-0.0
0.77,-0.233,0.018,-0.0
0.78,-0.226,0.023,0.004
0.79,-0.233,0.017,-0.0
0.8,-0.229,0.015,-0.005
0.81,-0.234,0.016,0.005
0.82,-0.229,0.016,0.009
0.83,-0.231,0.021,0.005
0.84,-0.227,0.016,-0.006
0.85,-0.233,0.017,-0.003
0.86,-0.227,0.016,-0.005
0.87,-0.228,0.02,-0.005
0.88,-0.227,0.02,0.005
0.89,-0.23,0.015,0.001
0.9,-0.227,0.013,0.006
0.91,-0.228,0.015,-0.007
0.92,-0.233,0.019,-0.008
0.93,-0.227,0.021,0.007
0.94,-0.23,0.017,-0.001
0.95,-0.233,0.015,0.004
0.96,-0.229,0.017,-0.006
0.97,-0.229,0.022,0.002
0.98,-0.233,0.014,-0.002
0.99,-0.227,0.018,0.002
1.0,-0.231,0.011,-0.005
1.01,-0.229,0.022,-0.004
1.02,-0.233,0.014,0.008
1.03,-0.228,0.018,0.003
1.04,-0.23,0.016,0.003
1.05,-0.232,0.016,0.003
1.06,-0.234,0.018,-0.009
1.07,-0.228,0.023,0.004
1.08,-0.223,0.015,-0.003
1.09,-0.229,0.02,0.0
1.1,-0.229,0.019,-0.004
1.11,-0.229,0.023,-0.0
1.12,-0.228,0.014,-0.009
1.13,-0.227,0.012,-0.007
1.14,-0.222,0.013,0.006
1.15,-0.232,0.02,-0.002
1.16,-0.23,0.021,0.003
1.17,-0.236,0.021,-0.005
1.18,-0.229,0.02,-0.006
1.19,-0.231,0.018,0.002
1.2,-0.229,0.021,-0.005
1.21,-0.229,0.02,0.005
1.22,-0.228,0.019,-0.009
1.23,-0.227,0.017,0.001
1.24,-0.228,0.02,0.007
1.25,-0.236,0.017,0.003
1.26,-0.229,0.015,-0.003
1.27,-0.23,0.02,0.006
1.28,-0.238,0.017,-0.007
1.29,-0.232,0.018,0.005
1.3,-0.223,0.02,0.003
1.31,-0.231,0.02,-0.003
1.32,-0.233,0.016,-0.0
1.33,-0.235,0.019,0.001
1.34,-0.229,0.018,0.001
1.35,-0.223,0.017,0.006
1.36,-0.232,0.02,0.004
1.37,-0.232,0.019,0.0
1.38,-0.231,0.017,-0.003
1.39,-0.23,0.016,-0.005
1.4,-0.228,0.016,-0.005
1.41,-0.231,0.019,0.004
1.42,-0.234,0.015,-0.003
1.43,-0.23,0.021,-0.003
1.44,-0.231,0.015,0.004
1.45,-0.233,0.017,-0.004
1.46,-0.23,0.022,0.005
1.47,-0.235,0.023,0.008
1.48,-0.23,0.016,-0.001
1.49,-0.23,0.016,-0.003
1.5,-0.232,0.019,-0.007
1.51,-0.231,0.016,-0.004
1.52,-0.231,0.022,0.002
1.53,-0.23,0.022,0.009
1.54,-0.228,0.012,0.009
1.55,-0.228,0.021,-0.004
1.56,-0.229,0.012,-0.003
1.57,-0.232,0.016,0.001
1.58,-0.228,0.02,-0.006
1.59,-0.225,0.017,0.007
1.6,-0.229,0.016,-0.002
1.61,-0.229,0.019,0.003
1.62,-0.228,0.015,0.007
1.63,-0.229,0.022,-0.0
1.64,-0.236,0.018,-0.0
1.65,-0.233,0.019,0.011
1.66,-0.229,0.012,0.005
1.67,-0.236,0.009,0.003
1.68,-0.227,0.018,0.008
1.69,-0.228,0.012,-0.0
1.7,-0.229,0.02,0.003
1.71,-0.228,0.024,-0.008
1.72,-0.235,0.01,0.004
1.73,-0.23,0.02,0.001
1.74,-0.233,0.016,-0.01
1.75,-0.225,0.015,0.0
1.76,-0.226,0.019,0.005
1.77,-0.227,0.018,-0.003
1.78,-0.225,0.017,0.008
1.79,-0.232,0.021,-0.0
1.8,-0.228,0.016,0.0
1.81,-0.23,0.016,-0.003
1.82,-0.234,0.015,0.003
1.83,-0.228,0.021,0.001
1.84,-0.23,0.018,-0.0
1.85,-0.23,0.019,0.005
1.86,-0.231,0.018,-0.002
1.87,-0.227,0.012,0.004
1.88,-0.228,0.02,-0.001
1.89,-0.233,0.017,-0.0
1.9,-0.229,0.019,-0.002
1.91,-0.23,0.017,0.002
1.92,-0.228,0.015,-0.002
1.93,-0.228,0.019,-0.0
1.94,-0.231,0.012,-0.003
1.95,-0.226,0.018,-0.0
1.96,-0.233,0.023,0.003
1.97,-0.23,0.021,-0.004
1.98,-0.235,0.014,0.005
1.99,-0.231,0.021,0.005
2.0,-0.233,0.02,-0.002
2.01,-0.234,0.016,0.001
2.02,-0.232,0.017,0.002
2.03,-0.235,0.013,0.001
2.04,-0.229,0.019,0.002
2.05,-0.228,0.016,-0.006
2.06,-0.228,0.021,-0.0
2.07,-0.23,0.022,0.002
2.08,-0.23,0.015,0.002
2.09,-0.232,0.015,-0.006
2.1,-0.229,0.012,0.0
2.11,-0.228,0.022,-0.01
2.12,-0.233,0.017,-0.004
2.13,-0.227,0.019,-0.004
2.14,-0.226,0.015,-0.008
2.15,-0.232,0.016,0.001
2.16,-0.237,0.023,0.0
2.17,-0.231,0.012,-0.003
2.18,-0.227,0.01,-0.002
2.19,-0.229,0.013,-0.003
2.2,-0.226,0.018,0.0
2.21,-0.23,0.021,-0.005
2.22,-0.231,0.017,-0.003
2.23,-0.227,0.018,-0.005
2.24,-0.228,0.022,0.007
2.25,-0.229,0.015,0.006
2.26,-0.228,0.016,-0.006
2.27,-0.234,0.013,0.001
2.28,-0.23,0.015,0.004
2.29,-0.232,0.021,0.001
2.3,-0.237,0.021,0.006
2.31,-0.227,0.016,0.001
2.32,-0.23,0.016,0.002
2.33,-0.233,0.015,-0.005
2.34,-0.236,0.023,-0.0
2.35,-0.228,0.016,0.005
2.36,-0.227,0.019,-0.013
2.37,-0.231,0.015,0.002
2.38,-0.231,0.019,0.001
2.39,-0.23,0.015,0.0
2.4,-0.225,0.016,-0.004
2.41,-0.228,0.021,0.002
2.42,-0.233,0.019,0.001
2.43,-0.23,0.018,-0.001
2.44,-0.229,0.018,-0.002
2.45,-0.229,0.015,0.009
2.46,-0.228,0.018,0.0
2.47,-0.228,0.022,0.001
2.48,-0.231,0.013,0.002
2.49,-0.227,0.02,0.0
2.5,-0.226,0.015,-0.002
2.51,-0.229,0.019,-0.007
2.52,-0.225,0.019,-0.007
2.53,-0.236,0.014,0.009
2.54,-0.23,0.023,0.004
2.55,-0.234,0.018,0.0
2.56,-0.227,0.014,-0.013
2.57,-0.234,0.018,-0.002
2.58,-0.233,0.016,-0.004
2.59,-0.225,0.017,0.006
2.6,-0.231,0.022,0.006
2.61,-0.24,0.024,-0.003
2.62,-0.233,0.01,-0.008
2.63,-0.23,0.014,-0.0
2.64,-0.228,0.024,-0.008
2.65,-0.224,0.017,-0.002
2.66,-0.231,0.013,-0.001
2.67,-0.226,0.016,-0.002
2.68,-0.226,0.013,-0.008
2.69,-0.223,0.017,-0.001
2.7,-0.227,0.017,-0.006
2.71,-0.229,0.018,-0.001
2.72,-0.232,0.016,-0.001
2.73,-0.235,0.014,0.002
2.74,-0.23,0.019,-0.012
2.75,-0.231,0.021,0.007
2.76,-0.231,0.021,0.003
2.77,-0.229,0.018,-0.004
2.78,-0.231,0.012,0.001
2.79,-0.235,0.022,0.005
2.8,-0.238,0.023,0.004
2.81,-0.232,0.02,0.001
2.82,-0.233,0.01,-0.004
2.83,-0.229,0.022,0.0
2.84,-0.23,0.015,0.009
2.85,-0.236,0.019,-0.003
2.86,-0.234,0.023,-0.01
2.87,-0.236,0.015,0.0
2.88,-0.227,0.015,0.008
2.89,-0.227,0.019,0.003
2.9,-0.229,0.021,0.003
2.91,-0.229,0.013,0.002
2.92,-0.226,0.018,0.009
2.93,-0.232,0.015,-0.002
2.94,-0.233,0.022,-0.004
2.95,-0.23,0.018,0.002
2.96,-0.229,0.02,0.001
2.97,-0.234,0.012,0.007
2.98,-0.228,0.017,0.004
2.99,-0.229,0.018,0.004
3.0,-0.237,0.02,0.003
3.01,-0.226,0.019,-0.006
3.02,-0.233,0.014,-0.001
3.03,-0.229,0.017,0.0
3.04,-0.235,0.02,-0.003
3.05,-0.229,0.014,0.001
3.06,-0.227,0.018,-0.004
3.07,-0.227,0.017,0.001
3.08,-0.228,0.02,0.003
3.09,-0.233,0.018,0.0
3.1,-0.225,0.019,-0.004
3.11,-0.233,0.017,0.006
3.12,-0.219,0.019,-0.002
3.13,-0.229,0.015,-0.0
3.14,-0.236,0.02,0.001
3.15,-0.226,0.021,0.002
3.16,-0.229,0.019,0.007
3.17,-0.227,0.018,0.001
3.18,-0.232,0.016,-0.0
3.19,-0.239,0.022,-0.005
3.2,-0.226,0.02,0.004
3.21,-0.233,0.019,-0.001
3.22,-0.23,0.02,-0.002
3.23,-0.23,0.015,0.0
3.24,-0.234,0.021,-0.006
3.25,-0.231,0.021,-0.002
3.26,-0.232,0.02,-0.001
3.27,-0.227,0.02,-0.007
3.28,-0.231,0.02,-0.003
3.29,-0.226,0.015,0.005
3.3,-0.225,0.02,-0.004
3.31,-0.229,0.019,0.006
3.32,-0.232,0.019,-0.003
3.33,-0.23,0.022,0.006
3.34,-0.23,0.015,-0.005
3.35,-0.234,0.021,0.002
3.36,-0.228,0.017,-0.002
3.37,-0.235,0.019,-0.001
3.38,-0.228,0.016,-0.0
3.39,-0.224,0.016,0.005
3.4,-0.231,0.021,-0.002
3.41,-0.233,0.014,-0.006
3.42,-0.234,0.016,-0.005
3.43,-0.23,0.018,-0.003
3.44,-0.239,0.018,0.001
3.45,-0.233,0.02,-0.001
3.46,-0.233,0.019,0.001
3.47,-0.225,0.017,-0.008
3.48,-0.229,0.019,-0.0
3.49,-0.232,0.012,-0.004
3.5,-0.229,0.02,-0.003
3.51,-0.23,0.019,-0.0
3.52,-0.228,0.014,-0.003
3.53,-0.232,0.016,-0.006
3.54,-0.224,0.015,-0.007
3.55,-0.226,0.022,0.002
3.56,-0.232,0.018,0.007
3.57,-0.234,0.019,0.003
3.58,-0.233,0.013,0.0
3.59,-0.231,0.019,0.006
3.6,-0.227,0.021,-0.012
3.61,-0.229,0.019,0.001
3.62,-0.232,0.019,0.004
3.63,-0.229,0.021,0.004
3.64,-0.233,0.013,0.004
3.65,-0.227,0.017,0.001
3.66,-0.228,0.017,0.002
3.67,-0.231,0.02,-0.002
3.68,-0.228,0.018,0.0
3.69,-0.227,0.015,0.005
3.7,-0.228,0.019,0.009
3.71,-0.23,0.021,0.003
3.72,-0.231,0.018,-0.002
3.73,-0.233,0.014,0.0
3.74,-0.23,0.015,-0.001
3.75,-0.233,0.018,0.01
3.76,-0.23,0.019,0.001
3.77,-0.23,0.016,0.004
3.78,-0.232,0.018,0.001
3.79,-0.236,0.018,-0.004
3.8,-0.229,0.019,-0.007
3.81,-0.23,0.017,0.007
3.82,-0.235,0.012,0.008
3.83,-0.234,0.017,-0.002
3.84,-0.234,0.021,-0.005
3.85,-0.231,0.018,-0.006
3.86,-0.224,0.015,-0.007
3.87,-0.231,0.022,0.005
3.88,-0.23,0.018,0.009
3.89,-0.23,0.02,-0.006
3.9,-0.224,0.018,-0.004
3.91,-0.229,0.015,0.001
3.92,-0.226,0.016,0.007
3.93,-0.235,0.015,-0.006
3.94,-0.226,0.017,-0.007
3.95,-0.231,0.015,-0.006
3.96,-0.233,0.021,0.001
3.97,-0.224,0.016,-0.001
3.98,-0.227,0.018,0.008
3.99,-0.233,0.017,-0.001
4.0,-0.233,0.012,-0.002
4.01,-0.228,0.017,0.004
4.02,-0.232,0.018,-0.004
4.03,-0.232,0.014,-0.002
4.04,-0.233,0.019,-0.007
4.05,-0.229,0.015,0.003
4.06,-0.234,0.016,0.006
4.07,-0.231,0.022,-0.01
4.08,-0.228,0.023,0.005
4.09,-0.228,0.02,0.001
4.1,-0.23,0.018,0.001
4.11,-0.23,0.018,0.0
4.12,-0.233,0.022,0.005
4.13,-0.233,0.016,0.0
4.14,-0.231,0.015,-0.002
4.15,-0.229,0.013,-0.008
4.16,-0.231,0.019,-0.002
4.17,-0.226,0.02,0.002
4.18,-0.23,0.016,-0.004
4.19,-0.23,0.021,-0.005
4.2,-0.233,0.018,0.003
4.21,-0.233,0.017,0.003
4.22,-0.23,0.019,0.001
4.23,-0.227,0.015,0.0
4.24,-0.23,0.016,0.002
4.25,-0.237,0.017,-0.002
4.26,-0.232,0.012,0.005
4.27,-0.229,0.023,-0.001
4.28,-0.239,0.018,-0.002
4.29,-0.235,0.013,0.001
4.3,-0.234,0.018,0.002
4.31,-0.235,0.016,-0.005
4.32,-0.233,0.023,-0.005
4.33,-0.232,0.021,-0.002
4.34,-0.232,0.018,0.001
4.35,-0.224,0.022,0.007
4.36,-0.224,0.02,-0.001
4.37,-0.231,0.019,0.006
4.38,-0.226,0.021,0.001
4.39,-0.235,0.021,-0.006
4.4,-0.234,0.015,0.0
4.41,-0.231,0.015,0.005
4.42,-0.228,0.017,0.002
4.43,-0.23,0.022,-0.009
4.44,-0.237,0.017,0.003
4.45,-0.231,0.016,0.003
4.46,-0.233,0.018,0.006
4.47,-0.23,0.018,0.004
4.48,-0.233,0.019,-0.003
4.49,-0.229,0.016,-0.005
4.5,-0.233,0.018,0.0
4.51,-0.23,0.018,0.003
4.52,-0.23,0.017,-0.003
4.53,-0.236,0.019,0.002
4.54,-0.228,0.018,-0.001
4.55,-0.226,0.015,0.001
4.56,-0.231,0.02,0.001
4.57,-0.227,0.015,-0.016
4.58,-0.236,0.018,0.001
4.59,-0.232,0.015,0.006
4.6,-0.232,0.019,0.001
4.61,-0.224,0.021,-0.004
4.62,-0.23,0.024,0.004
4.63,-0.232,0.019,-0.0
4.64,-0.23,0.021,0.007
4.65,-0.226,0.016,-0.001
4.66,-0.232,0.013,-0.009
4.67,-0.229,0.017,0.002
4.68,-0.232,0.024,0.003
4.69,-0.231,0.018,0.002
4.7,-0.224,0.016,-0.005
4.71,-0.228,0.018,-0.001
4.72,-0.237,0.019,-0.0
4.73,-0.23,0.01,0.007
4.74,-0.229,0.016,-0.001
4.75,-0.231,0.022,0.0
4.76,-0.231,0.018,-0.004
4.77,-0.223,0.018,0.003
4.78,-0.23,0.016,-0.003
4.79,-0.232,0.026,0.004
4.8,-0.233,0.017,-0.005
4.81,-0.231,0.021,0.004
4.82,-0.231,0.019,0.0
4.83,-0.23,0.015,-0.005
4.84,-0.232,0.022,-0.008
4.85,-0.229,0.017,-0.004
4.86,-0.229,0.019,0.003
4.87,-0.229,0.017,0.004
4.88,-0.229,0.016,0.007
4.89,-0.239,0.02,0.006
4.9,-0.231,0.019,-0.006
4.91,-0.236,0.014,0.008
4.92,-0.234,0.02,0.001
4.93,-0.234,0.019,0.005
4.94,-0.234,0.021,0.004
4.95,-0.225,0.022,-0.005
4.96,-0.232,0.016,0.004
4.97,-0.233,0.016,-0.002
4.98,-0.226,0.018,0.004
4.99,-0.232,0.02,-0.003
5.0,-0.229,0.02,-0.002
5.01,-0.226,0.022,-0.009
5.02,-0.227,0.019,0.003
5.03,-0.229,0.014,0.004
5.04,-0.233,0.018,0.008
5.05,-0.231,0.021,-0.011
5.06,-0.232,0.02,0.001
5.07,-0.236,0.019,-0.0
5.08,-0.233,0.013,-0.001
5.09,-0.231,0.015,0.006
5.1,-0.23,0.013,-0.003
5.11,-0.231,0.014,-0.004
5.12,-0.227,0.015,0.001
5.13,-0.233,0.015,0.001
5.14,-0.232,0.018,0.001
5.15,-0.228,0.017,0.01
5.16,-0.236,0.022,0.006
5.17,-0.229,0.019,0.006
5.18,-0.232,0.017,-0.002
5.19,-0.23,0.019,-0.001
5.2,-0.233,0.013,0.007
5.21,-0.227,0.013,-0.005
5.22,-0.23,0.025,0.005
5.23,-0.234,0.019,0.005
5.24,-0.233,0.018,0.006
5.25,-0.228,0.016,0.004
5.26,-0.233,0.018,-0.003
5.27,-0.232,0.018,0.001
5.28,-0.233,0.016,-0.013
5.29,-0.231,0.013,-0.009
5.3,-0.23,0.021,-0.012
5.31,-0.223,0.015,-0.004
5.32,-0.231,0.017,-0.005
5.33,-0.229,0.021,0.002
5.34,-0.232,0.025,-0.0
5.35,-0.233,0.017,-0.001
5.36,-0.231,0.021,-0.002
5.37,-0.234,0.016,-0.007
5.38,-0.228,0.017,0.004
5.39,-0.227,0.019,0.002
5.4,-0.23,0.022,0.003
5.41,-0.228,0.021,0.001
5.42,-0.226,0.02,0.001
5.43,-0.228,0.019,-0.006
5.44,-0.23,0.021,0.005
5.45,-0.232,0.014,0.001
5.46,-0.229,0.017,0.0
5.47,-0.238,0.017,0.005
5.48,-0.231,0.016,0.003
5.49,-0.233,0.025,0.01
5.5,-0.228,0.013,-0.003
5.51,-0.228,0.013,0.009
5.52,-0.226,0.022,0.001
5.53,-0.224,0.022,-0.006
5.54,-0.229,0.018,-0.007
5.55,-0.229,0.018,0.001
5.56,-0.233,0.019,-0.006
5.57,-0.235,0.02,0.0
5.58,-0.226,0.022,-0.004
5.59,-0.224,0.019,-0.003
5.6,-0.23,0.016,0.003
5.61,-0.23,0.018,0.002
5.62,-0.23,0.022,-0.005
5.63,-0.236,0.018,0.006
5.64,-0.228,0.018,0.001
5.65,-0.231,0.019,-0.004
5.66,-0.225,0.02,0.0
5.67,-0.232,0.014,-0.001
5.68,-0.226,0.018,-0.001
5.69,-0.228,0.017,0.01
5.7,-0.233,0.019,-0.002
5.71,-0.231,0.018,-0.001
5.72,-0.229,0.02,-0.004
5.73,-0.232,0.016,-0.001
5.74,-0.232,0.022,-0.003
5.75,-0.228,0.016,-0.011
5.76,-0.232,0.025,-0.001
5.77,-0.236,0.023,-0.008
5.78,-0.226,0.016,0.001
5.79,-0.232,0.014,-0.005
5.8,-0.232,0.017,-0.006
5.81,-0.23,0.014,-0.004
5.82,-0.233,0.019,-0.0
5.83,-0.226,0.02,-0.007
5.84,-0.23,0.018,-0.001
5.85,-0.23,0.016,0.006
5.86,-0.23,0.011,0.001
5.87,-0.231,0.021,0.006
5.88,-0.227,0.008,-0.001
5.89,-0.231,0.02,-0.006
5.9,-0.232,0.013,0.002
5.91,-0.23,0.021,0.005
5.92,-0.233,0.017,0.012
5.93,-0.231,0.016,0.001
5.94,-0.232,0.015,0.0
5.95,-0.232,0.026,0.0
5.96,-0.233,0.015,-0.001
5.97,-0.232,0.017,-0.003
5.98,-0.231,0.022,-0.005
5.99,-0.232,0.023,0.005
6.0,-0.233,0.021,-0.006
6.01,-0.23,0.017,0.004
6.02,-0.234,0.014,0.008
6.03,-0.228,0.019,-0.001
6.04,-0.232,0.021,0.005
6.05,-0.226,0.016,0.002
6.06,-0.233,0.018,-0.004
6.07,-0.231,0.016,0.001
6.08,-0.234,0.017,-0.003
6.09,-0.229,0.013,0.01
6.1,-0.234,0.014,-0.002
6.11,-0.225,0.014,-0.001
6.12,-0.225,0.015,-0.001
6.13,-0.233,0.015,0.003
6.14,-0.233,0.019,-0.005
6.15,-0.23,0.02,-0.007
6.16,-0.228,0.019,-0.004
6.17,-0.231,0.015,-0.012
6.18,-0.239,0.016,0.003
6.19,-0.233,0.015,-0.006
6.2,-0.232,0.021,-0.002
6.21,-0.23,0.023,-0.001
6.22,-0.232,0.018,-0.002
6.23,-0.23,0.02,0.003
6.24,-0.233,0.02,-0.008
6.25,-0.233,0.017,0.0
6.26,-0.224,0.016,0.005
6.27,-0.23,0.018,-0.0
6.28,-0.227,0.018,0.001
6.29,-0.228,0.02,-0.007
6.3,-0.231,0.016,0.003
6.31,-0.232,0.02,-0.001
6.32,-0.23,0.018,0.013
6.33,-0.23,0.019,0.003
6.34,-0.232,0.019,0.006
6.35,-0.235,0.021,-0.001
6.36,-0.226,0.01,0.01
6.37,-0.225,0.017,-0.002
6.38,-0.234,0.016,0.0
6.39,-0.229,0.016,-0.002
6.4,-0.232,0.018,-0.003
6.41,-0.229,0.02,0.003
6.42,-0.234,0.018,0.001
6.43,-0.23,0.016,-0.0
6.44,-0.237,0.024,-0.003
6.45,-0.231,0.019,0.006
6.46,-0.235,0.018,-0.003
6.47,-0.236,0.019,0.002
6.48,-0.232,0.021,-0.003
6.49,-0.232,0.016,-0.009
6.5,-0.229,0.014,0.0
6.51,-0.237,0.021,0.001
6.52,-0.234,0.014,0.0
6.53,-0.227,0.017,0.008
6.54,-0.226,0.017,-0.01
6.55,-0.232,0.016,-0.002
6.56,-0.235,0.019,0.007
6.57,-0.236,0.015,-0.005
6.58,-0.229,0.023,-0.004
6.59,-0.229,0.016,-0.0
6.6,-0.232,0.018,-0.003
6.61,-0.229,0.019,0.006
6.62,-0.236,0.014,-0.002
6.63,-0.238,0.016,0.01
6.64,-0.225,0.018,0.009
6.65,-0.231,0.014,0.006
6.66,-0.232,0.021,-0.004
6.67,-0.231,0.021,-0.006
6.68,-0.226,0.018,-0.004
6.69,-0.239,0.017,0.003
6.7,-0.225,0.011,-0.008
6.71,-0.229,0.015,0.005
6.72,-0.23,0.018,0.003
6.73,-0.233,0.016,-0.009
6.74,-0.227,0.015,-0.006
6.75,-0.227,0.021,0.003
6.76,-0.223,0.017,0.008
6.77,-0.231,0.017,-0.003
6.78,-0.229,0.01,0.004
6.79,-0.233,0.013,-0.012
6.8,-0.225,0.027,-0.0
6.81,-0.23,0.018,-0.003
6.82,-0.236,0.015,-0.006
6.83,-0.237,0.024,0.0
6.84,-0.226,0.017,0.008
6.85,-0.234,0.019,-0.002
6.86,-0.23,0.018,0.002
6.87,-0.225,0.021,0.0
6.88,-0.234,0.02,-0.0
6.89,-0.229,0.018,0.001
6.9,-0.229,0.02,-0.012
6.91,-0.229,0.02,-0.002
6.92,-0.234,0.019,0.003
6.93,-0.229,0.026,-0.003
6.94,-0.23,0.017,0.003
6.95,-0.227,0.021,0.001
6.96,-0.226,0.016,-0.004
6.97,-0.23,0.019,0.005
6.98,-0.227,0.019,0.001
6.99,-0.232,0.019,-0.001
7.0,-0.23,0.019,-0.004
7.01,-0.23,0.016,-0.005
7.02,-0.231,0.017,-0.003
7.03,-0.233,0.013,-0.008
7.04,-0.228,0.016,-0.002
7.05,-0.231,0.02,0.006
7.06,-0.239,0.019,0.005
7.07,-0.232,0.018,0.002
7.08,-0.226,0.016,-0.003
7.09,-0.231,0.014,0.007
7.1,-0.232,0.013,0.0
7.11,-0.232,0.019,0.001
7.12,-0.231,0.017,0.003
7.13,-0.234,0.022,0.003
7.14,-0.229,0.017,0.007
7.15,-0.232,0.018,-0.004
7.16,-0.232,0.016,0.001
7.17,-0.23,0.018,-0.007
7.18,-0.237,0.019,-0.001
7.19,-0.225,0.022,0.007
7.2,-0.227,0.016,0.003
7.21,-0.228,0.015,0.005
7.22,-0.23,0.019,-0.002
7.23,-0.229,0.02,0.003
7.24,-0.228,0.02,0.003
7.25,-0.234,0.013,-0.005
7.26,-0.231,0.018,0.001
7.27,-0.231,0.017,0.005
7.28,-0.228,0.018,-0.005
7.29,-0.229,0.016,-0.007
7.3,-0.233,0.015,-0.009
7.31,-0.227,0.018,0.005
7.32,-0.231,0.015,-0.003
7.33,-0.229,0.018,0.003
7.34,-0.229,0.019,-0.003
7.35,-0.231,0.02,0.004
7.36,-0.232,0.022,0.001
7.37,-0.23,0.017,0.0
7.38,-0.228,0.017,-0.004
7.39,-0.234,0.015,0.001
7.4,-0.231,0.019,0.009
7.41,-0.233,0.018,-0.006
7.42,-0.23,0.017,0.003
7.43,-0.234,0.017,0.011
7.44,-0.23,0.014,0.006
7.45,-0.229,0.013,-0.003
7.46,-0.23,0.016,-0.005
7.47,-0.231,0.017,-0.001
7.48,-0.227,0.022,0.003
7.49,-0.231,0.019,0.002
7.5,-0.228,0.019,-0.0
7.51,-0.234,0.019,-0.001
7.52,-0.233,0.022,0.001
7.53,-0.231,0.015,-0.001
7.54,-0.236,0.013,0.006
7.55,-0.23,0.014,-0.009
7.56,-0.231,0.021,0.001
7.57,-0.229,0.02,0.003
7.58,-0.229,0.014,0.004
7.59,-0.227,0.015,-0.001
7.6,-0.229,0.013,0.004
7.61,-0.229,0.015,0.01
7.62,-0.229,0.02,0.005
7.63,-0.228,0.014,0.001
7.64,-0.233,0.016,0.001
7.65,-0.23,0.017,0.006
7.66,-0.229,0.021,-0.006
7.67,-0.229,0.021,-0.002
7.68,-0.226,0.016,0.006
7.69,-0.234,0.017,0.002
7.7,-0.221,0.016,-0.007
7.71,-0.226,0.021,-0.004
7.72,-0.228,0.014,0.001
7.73,-0.231,0.018,0.007
7.74,-0.227,0.023,0.007
7.75,-0.226,0.013,0.001
7.76,-0.228,0.014,-0.008
7.77,-0.239,0.017,-0.004
7.78,-0.233,0.018,0.006
7.79,-0.231,0.017,0.0
7.8,-0.235,0.013,0.001
7.81,-0.231,0.021,-0.005
7.82,-0.23,0.022,0.002
7.83,-0.229,0.021,-0.001
7.84,-0.234,0.023,0.003
7.85,-0.231,0.014,0.007
7.86,-0.235,0.024,0.007
7.87,-0.23,0.016,-0.006
7.88,-0.23,0.019,-0.005
7.89,-0.228,0.016,-0.012
7.9,-0.225,0.019,0.006
7.91,-0.235,0.019,0.006
7.92,-0.231,0.022,0.004
7.93,-0.23,0.02,0.004
7.94,-0.235,0.01,0.009
7.95,-0.229,0.018,-0.003
7.96,-0.228,0.021,-0.004
7.97,-0.229,0.02,-0.005
7.98,-0.229,0.012,-0.002
7.99,-0.227,0.019,0.007
8.0,-0.234,0.023,-0.004
8.01,-0.231,0.012,0.003
8.02,-0.231,0.016,-0.002
8.03,-0.23,0.017,0.005
8.04,-0.227,0.016,-0.002
8.05,-0.23,0.024,0.0
8.06,-0.228,0.021,0.0
8.07,-0.233,0.021,0.003
8.08,-0.232,0.022,-0.003
8.09,-0.235,0.022,-0.011
8.1,-0.233,0.022,-0.001
8.11,-0.229,0.011,0.002
8.12,-0.232,0.019,-0.007
8.13,-0.229,0.017,-0.005
8.14,-0.228,0.018,0.003
8.15,-0.232,0.014,-0.005
8.16,-0.234,0.015,-0.001
8.17,-0.236,0.017,-0.001
8.18,-0.231,0.013,-0.006
8.19,-0.231,0.016,0.002
8.2,-0.233,0.017,0.004
8.21,-0.235,0.02,-0.001
8.22,-0.23,0.024,0.003
8.23,-0.231,0.019,-0.009
8.24,-0.228,0.014,0.001
8.25,-0.226,0.017,-0.002
8.26,-0.229,0.02,0.005
8.27,-0.223,0.015,-0.007
8.28,-0.229,0.023,0.004
8.29,-0.227,0.019,-0.0
8.3,-0.23,0.016,-0.007
8.31,-0.232,0.019,0.009
8.32,-0.235,0.021,-0.002
8.33,-0.227,0.02,0.005
8.34,-0.228,0.014,-0.0
8.35,-0.235,0.021,0.004
8.36,-0.227,0.018,-0.007
8.37,-0.232,0.02,-0.005
8.38,-0.231,0.015,-0.004
8.39,-0.236,0.019,0.002
8.4,-0.232,0.017,0.008
8.41,-0.23,0.02,-0.007
8.42,-0.226,0.021,0.0
8.43,-0.228,0.017,0.003
8.44,-0.23,0.018,-0.004
8.45,-0.232,0.017,0.004
8.46,-0.228,0.013,-0.001
8.47,-0.227,0.019,0.005
8.48,-0.233,0.02,0.006
8.49,-0.231,0.019,-0.006
8.5,-0.229,0.023,0.005
8.51,-0.228,0.018,0.0
8.52,-0.228,0.007,0.005
8.53,-0.224,0.021,-0.005
8.54,-0.233,0.021,-0.009
8.55,-0.234,0.015,0.006
8.56,-0.23,0.016,-0.003
8.57,-0.231,0.019,-0.007
8.58,-0.231,0.014,-0.005
8.59,-0.228,0.017,0.001
8.6,-0.23,0.023,0.013
8.61,-0.223,0.018,-0.004
8.62,-0.231,0.02,0.006
8.63,-0.23,0.022,0.003
8.64,-0.228,0.016,0.005
8.65,-0.232,0.025,-0.003
8.66,-0.235,0.016,-0.001
8.67,-0.234,0.026,0.008
8.68,-0.229,0.018,0.006
8.69,-0.231,0.012,-0.008
8.7,-0.23,0.018,-0.0
8.71,-0.234,0.021,0.006
8.72,-0.235,0.017,0.002
8.73,-0.23,0.017,-0.001
8.74,-0.23,0.019,-0.007
8.75,-0.233,0.013,-0.001
8.76,-0.229,0.02,-0.001
8.77,-0.23,0.02,-0.0
8.78,-0.233,0.019,0.002
8.79,-0.235,0.016,-0.001
8.8,-0.232,0.017,0.002
8.81,-0.228,0.017,-0.012
8.82,-0.225,0.019,-0.002
8.83,-0.226,0.015,-0.002
8.84,-0.229,0.017,-0.002
8.85,-0.239,0.022,-0.005
8.86,-0.23,0.014,0.002
8.87,-0.228,0.021,0.001
8.88,-0.228,0.019,0.003
8.89,-0.234,0.023,-0.0
8.9,-0.227,0.017,-0.006
8.91,-0.23,0.021,-0.005
8.92,-0.233,0.019,0.001
8.93,-0.23,0.017,0.002
8.94,-0.233,0.021,0.001
8.95,-0.228,0.013,-0.003
8.96,-0.233,0.018,-0.007
8.97,-0.23,0.021,-0.001
8.98,-0.231,0.017,0.005
8.99,-0.231,0.015,-0.002
9.0,-0.234,0.017,0.006
9.01,-0.232,0.018,0.0
9.02,-0.231,0.021,-0.001
9.03,-0.232,0.017,-0.002
9.04,-0.232,0.014,-0.004
9.05,-0.233,0.017,-0.0
9.06,-0.232,0.018,-0.001
9.07,-0.229,0.016,0.006
9.08,-0.23,0.015,0.001
9.09,-0.228,0.016,-0.008
9.1,-0.228,0.02,-0.002
9.11,-0.229,0.021,-0.006
9.12,-0.225,0.017,0.001
9.13,-0.235,0.016,0.001
9.14,-0.233,0.017,-0.004
9.15,-0.231,0.014,-0.003
9.16,-0.227,0.017,-0.007
9.17,-0.231,0.018,0.003
9.18,-0.227,0.02,0.009
9.19,-0.23,0.019,0.005
9.2,-0.23,0.025,-0.004
9.21,-0.236,0.015,-0.003
9.22,-0.234,0.015,0.007
9.23,-0.231,0.02,0.001
9.24,-0.229,0.014,0.005
9.25,-0.232,0.015,0.001
9.26,-0.226,0.019,0.003
9.27,-0.234,0.016,-0.003
9.28,-0.227,0.018,-0.001
9.29,-0.231,0.017,-0.002
9.3,-0.239,0.012,0.005
9.31,-0.228,0.018,-0.005
9.32,-0.232,0.019,-0.005
9.33,-0.232,0.017,-0.004
9.34,-0.227,0.022,0.002
9.35,-0.232,0.018,-0.004
9.36,-0.229,0.015,0.0
9.37,-0.227,0.021,-0.006
9.38,-0.227,0.016,-0.002
9.39,-0.236,0.012,-0.005
9.4,-0.231,0.02,0.001
9.41,-0.226,0.014,-0.001
9.42,-0.231,0.02,0.003
9.43,-0.23,0.009,0.012
9.44,-0.222,0.021,-0.003
9.45,-0.229,0.017,0.0
9.46,-0.231,0.018,0.004
9.47,-0.23,0.016,0.003
9.48,-0.23,0.019,0.002
9.49,-0.227,0.017,-0.001
9.5,-0.234,0.018,-0.002
9.51,-0.226,0.018,-0.006
9.52,-0.229,0.019,0.005
9.53,-0.235,0.019,0.0
9.54,-0.23,0.013,-0.009
9.55,-0.226,0.018,-0.002
9.56,-0.226,0.016,-0.003
9.57,-0.227,0.017,0.002
9.58,-0.232,0.021,-0.002
9.59,-0.23,0.02,0.0
9.6,-0.228,0.015,0.004
9.61,-0.234,0.023,-0.006
9.62,-0.229,0.015,0.007
9.63,-0.236,0.021,0.003
9.64,-0.231,0.018,0.003
9.65,-0.228,0.021,-0.002
9.66,-0.232,0.017,0.003
9.67,-0.235,0.017,0.005
9.68,-0.23,0.014,-0.002
9.69,-0.228,0.019,-0.002
9.7,-0.234,0.023,0.005
9.71,-0.229,0.016,-0.002
9.72,-0.236,0.021,0.0
9.73,-0.229,0.023,-0.0
9.74,-0.23,0.018,-0.004
9.75,-0.225,0.013,-0.007
9.76,-0.23,0.02,0.002
9.77,-0.231,0.013,0.005
9.78,-0.231,0.017,-0.002
9.79,-0.229,0.019,0.002
9.8,-0.23,0.017,-0.004
9.81,-0.229,0.015,-0.003
9.82,-0.229,0.018,0.0
9.83,-0.233,0.018,0.002
9.84,-0.232,0.017,-0.007
9.85,-0.233,0.016,-0.008
9.86,-0.225,0.015,0.005
9.87,-0.233,0.016,0.002
9.88,-0.231,0.015,0.003
9.89,-0.228,0.02,0.003
9.9,-0.235,0.021,0.002
9.91,-0.234,0.014,-0.004
9.92,-0.233,0.018,0.013
9.93,-0.226,0.019,0.004
9.94,-0.231,0.019,0.009
9.95,-0.228,0.015,0.001
9.96,-0.23,0.017,0.003
9.97,-0.228,0.016,-0.005
9.98,-0.226,0.021,-0.004
9.99,-0.233,0.017,0.0
10.0,-0.235,0.018,0.001
10.01,-0.227,0.02,-0.008
10.02,-0.231,0.018,0.004
10.03,-0.232,0.016,0.002
10.04,-0.229,0.01,-0.003
10.05,-0.223,0.013,0.005
10.06,-0.224,0.013,0.001
10.07,-0.228,0.023,-0.008
10.08,-0.228,0.011,-0.006
10.09,-0.231,0.023,-0.004
10.1,-0.233,0.018,-0.006
10.11,-0.229,0.015,-0.002
10.12,-0.23,0.022,-0.002
10.13,-0.237,0.02,-0.003
10.14,-0.231,0.023,0.001
10.15,-0.23,0.014,-0.004
10.16,-0.232,0.023,-0.004
10.17,-0.232,0.017,-0.0
10.18,-0.226,0.016,-0.003
10.19,-0.232,0.016,0.001
10.2,-0.231,0.02,-0.001
10.21,-0.232,0.016,0.001
10.22,-0.235,0.016,-0.004
10.23,-0.229,0.019,-0.007
10.24,-0.233,0.02,-0.002
10.25,-0.235,0.012,0.002
10.26,-0.231,0.016,-0.005
10.27,-0.228,0.02,0.002
10.28,-0.229,0.019,0.008
10.29,-0.232,0.018,-0.005
10.3,-0.235,0.017,0.001
10.31,-0.225,0.021,-0.005
10.32,-0.23,0.017,0.005
10.33,-0.231,0.021,0.002
10.34,-0.232,0.017,0.006
10.35,-0.233,0.017,0.002
10.36,-0.229,0.014,0.001
10.37,-0.232,0.012,0.003
10.38,-0.236,0.017,-0.005
10.39,-0.229,0.017,-0.001
10.4,-0.232,0.02,0.008
10.41,-0.238,0.02,-0.009
10.42,-0.23,0.015,-0.004
10.43,-0.232,0.019,0.01
10.44,-0.231,0.024,0.003
10.45,-0.235,0.021,0.008
10.46,-0.23,0.018,0.009
10.47,-0.23,0.021,-0.006
10.48,-0.222,0.021,0.0
10.49,-0.228,0.016,-0.003
10.5,-0.231,0.012,0.011
10.51,-0.232,0.018,0.002
10.52,-0.232,0.014,0.002
10.53,-0.231,0.013,-0.005
10.54,-0.226,0.019,-0.005
10.55,-0.232,0.017,-0.001
10.56,-0.228,0.016,-0.003
10.57,-0.235,0.015,-0.007
10.58,-0.229,0.022,-0.001
10.59,-0.23,0.023,-0.003
10.6,-0.232,0.021,-0.001
10.61,-0.229,0.015,-0.003
10.62,-0.227,0.013,0.01
10.63,-0.228,0.016,0.003
10.64,-0.233,0.02,0.005
10.65,-0.221,0.019,0.004
10.66,-0.232,0.011,0.007
10.67,-0.229,0.02,-0.003
10.68,-0.23,0.016,-0.002
10.69,-0.229,0.016,-0.006
10.7,-0.232,0.021,0.004
10.71,-0.231,0.018,0.006
10.72,-0.229,0.015,0.0
10.73,-0.232,0.017,-0.004
10.74,-0.229,0.02,0.002
10.75,-0.231,0.018,-0.003
10.76,-0.229,0.014,-0.009
10.77,-0.234,0.019,-0.008
10.78,-0.231,0.016,0.001
10.79,-0.232,0.019,-0.003
10.8,-0.231,0.016,0.004
10.81,-0.236,0.012,-0.005
10.82,-0.237,0.015,-0.002
10.83,-0.227,0.017,0.011
10.84,-0.239,0.021,0.007
10.85,-0.224,0.015,0.001
10.86,-0.232,0.025,-0.001
10.87,-0.231,0.02,-0.0
10.88,-0.228,0.018,0.003
10.89,-0.229,0.026,-0.006
10.9,-0.233,0.015,0.001
10.91,-0.229,0.014,0.004
10.92,-0.229,0.021,-0.004
10.93,-0.23,0.023,0.006
10.94,-0.228,0.017,0.001
10.95,-0.229,0.016,0.007
10.96,-0.23,0.022,0.001
10.97,-0.227,0.019,-0.004
10.98,-0.23,0.013,-0.0
10.99,-0.23,0.016,0.012
11.0,-0.231,0.018,0.005
11.01,-0.232,0.016,-0.001
11.02,-0.225,0.02,0.003
11.03,-0.232,0.016,0.0
11.04,-0.234,0.017,0.001
11.05,-0.231,0.02,0.009
11.06,-0.238,0.013,-0.006
11.07,-0.225,0.017,-0.001
11.08,-0.23,0.013,0.003
11.09,-0.233,0.017,0.003
11.1,-0.227,0.015,-0.007
11.11,-0.23,0.018,-0.005
11.12,-0.226,0.015,0.008
11.13,-0.228,0.017,0.004
11.14,-0.234,0.019,-0.001
11.15,-0.233,0.016,0.003
11.16,-0.229,0.018,0.006
11.17,-0.231,0.02,-0.006
11.18,-0.225,0.017,-0.002
11.19,-0.233,0.023,0.002
11.2,-0.232,0.018,-0.004
11.21,-0.236,0.017,0.0
11.22,-0.232,0.017,-0.0
11.23,-0.225,0.015,-0.001
11.24,-0.234,0.018,0.002
11.25,-0.229,0.019,0.002
11.26,-0.229,0.019,-0.003
11.27,-0.231,0.017,0.001
11.28,-0.232,0.021,0.006
11.29,-0.226,0.014,0.005
11.3,-0.233,0.014,0.004
11.31,-0.228,0.013,-0.004
11.32,-0.233,0.012,-0.002
11.33,-0.23,0.023,-0.006
11.34,-0.226,0.021,-0.01
11.35,-0.231,0.016,0.002
11.36,-0.231,0.02,-0.001
11.37,-0.23,0.016,-0.002
11.38,-0.23,0.013,-0.003
11.39,-0.233,0.019,-0.014
11.4,-0.233,0.018,-0.001
11.41,-0.232,0.02,0.002
11.42,-0.232,0.018,0.002
11.43,-0.233,0.015,-0.003
11.44,-0.225,0.014,0.001
11.45,-0.232,0.017,0.011
11.46,-0.231,0.019,0.003
11.47,-0.227,0.02,-0.001
11.48,-0.229,0.023,0.008
11.49,-0.229,0.018,-0.003
11.5,-0.228,0.012,0.001
11.51,-0.231,0.017,-0.007
11.52,-0.233,0.018,-0.003
11.53,-0.226,0.016,-0.003
11.54,-0.229,0.017,-0.002
11.55,-0.233,0.015,0.01
11.56,-0.23,0.021,-0.005
11.57,-0.229,0.013,0.0
11.58,-0.232,0.018,0.004
11.59,-0.23,0.017,0.0
11.6,-0.229,0.019,0.001
11.61,-0.232,0.015,0.0
11.62,-0.234,0.017,-0.002
11.63,-0.232,0.02,0.001
11.64,-0.231,0.018,0.002
11.65,-0.23,0.017,0.003
11.66,-0.233,0.016,0.0
11.67,-0.232,0.017,-0.008
11.68,-0.23,0.017,0.005
11.69,-0.229,0.016,0.0
11.7,-0.224,0.012,-0.004
11.71,-0.235,0.021,0.008
11.72,-0.23,0.018,-0.002
11.73,-0.237,0.015,0.0
11.74,-0.227,0.015,-0.001
11.75,-0.231,0.016,0.0
11.76,-0.231,0.011,-0.004
11.77,-0.229,0.02,-0.006
11.78,-0.227,0.02,0.005
11.79,-0.231,0.018,0.002
11.8,-0.23,0.02,-0.003
11.81,-0.228,0.016,0.009
11.82,-0.228,0.018,0.003
11.83,-0.231,0.017,0.002
11.84,-0.229,0.017,0.004
11.85,-0.229,0.015,-0.003
11.86,-0.234,0.019,0.005
11.87,-0.229,0.012,-0.003
11.88,-0.232,0.017,0.008
11.89,-0.23,0.013,-0.002
11.9,-0.232,0.018,-0.001
11.91,-0.23,0.02,0.006
11.92,-0.233,0.024,-0.002
11.93,-0.229,0.019,-0.001
11.94,-0.23,0.017,-0.009
11.95,-0.235,0.019,0.001
11.96,-0.227,0.02,-0.005
11.97,-0.233,0.021,-0.004
11.98,-0.225,0.021,0.002
11.99,-0.229,0.019,-0.001
12.0,-0.233,0.013,0.003
12.01,-0.23,0.022,-0.001
12.02,-0.22,0.016,0.003
12.03,-0.228,0.018,-0.002
12.04,-0.231,0.014,-0.001
12.05,-0.23,0.016,0.0
12.06,-0.229,0.015,-0.011
12.07,-0.23,0.018,0.0
12.08,-0.23,0.021,-0.009
12.09,-0.235,0.022,0.003
12.1,-0.226,0.014,0.004
12.11,-0.23,0.022,0.001
12.12,-0.229,0.017,0.007
12.13,-0.23,0.02,0.001
12.14,-0.234,0.017,-0.001
12.15,-0.238,0.015,0.002
12.16,-0.231,0.016,-0.002
12.17,-0.227,0.015,0.001
12.18,-0.232,0.011,0.001
12.19,-0.229,0.022,-0.006
12.2,-0.227,0.016,-0.004
12.21,-0.231,0.018,-0.006
12.22,-0.23,0.025,-0.001
12.23,-0.231,0.024,0.001
12.24,-0.229,0.015,0.013
12.25,-0.229,0.015,-0.004
12.26,-0.228,0.02,-0.002
12.27,-0.227,0.018,-0.008
12.28,-0.235,0.021,0.009
12.29,-0.231,0.021,-0.007
12.3,-0.231,0.024,-0.003
12.31,-0.237,0.016,-0.0
12.32,-0.231,0.017,-0.0
12.33,-0.231,0.021,0.007
12.34,-0.234,0.026,0.003
12.35,-0.229,0.017,-0.001
12.36,-0.239,0.013,-0.0
12.37,-0.225,0.017,0.008
12.38,-0.238,0.015,-0.001
12.39,-0.23,0.019,-0.001
12.4,-0.231,0.013,0.001
12.41,-0.224,0.017,0.005
12.42,-0.23,0.02,0.001
12.43,-0.227,0.016,0.003
12.44,-0.236,0.018,-0.001
12.45,-0.229,0.028,0.003
12.46,-0.232,0.021,0.001
12.47,-0.236,0.015,-0.0
12.48,-0.226,0.024,0.003
12.49,-0.237,0.019,0.001
12.5,-0.228,0.017,-0.001
12.51,-0.228,0.019,0.001
12.52,-0.231,0.023,-0.002
12.53,-0.237,0.02,0.008
12.54,-0.232,0.022,-0.002
12.55,-0.234,0.02,0.009
12.56,-0.23,0.02,-0.009
12.57,-0.228,0.023,-0.003
12.58,-0.227,0.018,0.004
12.59,-0.232,0.02,0.008
12.6,-0.23,0.019,0.005
12.61,-0.224,0.022,0.0
12.62,-0.231,0.015,-0.0
12.63,-0.232,0.013,0.002
12.64,-0.235,0.018,0.0
12.65,-0.227,0.019,-0.001
12.66,-0.232,0.018,-0.004
12.67,-0.232,0.013,-0.003
12.68,-0.233,0.018,0.006
12.69,-0.231,0.022,-0.0
12.7,-0.23,0.016,0.001
12.71,-0.23,0.015,0.002
12.72,-0.228,0.017,-0.001
12.73,-0.232,0.014,-0.0
12.74,-0.224,0.021,-0.001
12.75,-0.229,0.02,0.003
12.76,-0.237,0.018,-0.002
12.77,-0.232,0.013,-0.001
12.78,-0.234,0.018,0.004
12.79,-0.225,0.013,0.002
12.8,-0.227,0.018,-0.005
12.81,-0.232,0.016,0.007
12.82,-0.226,0.017,0.006
12.83,-0.234,0.022,0.006
12.84,-0.232,0.024,-0.005
12.85,-0.235,0.018,0.002
12.86,-0.227,0.013,-0.0
12.87,-0.236,0.019,-0.006
12.88,-0.228,0.017,-0.0
12.89,-0.228,0.019,0.004
12.9,-0.229,0.018,-0.001
12.91,-0.231,0.019,0.007
12.92,-0.231,0.018,0.004
12.93,-0.228,0.018,-0.001
12.94,-0.23,0.019,-0.002
12.95,-0.233,0.023,-0.002
12.96,-0.233,0.026,-0.003
12.97,-0.232,0.017,0.001
12.98,-0.232,0.024,-0.007
12.99,-0.232,0.017,-0.003
13.0,-0.232,0.019,-0.003
13.01,-0.227,0.012,-0.002
13.02,-0.231,0.018,0.006
13.03,-0.232,0.02,-0.005
13.04,-0.229,0.018,-0.006
13.05,-0.232,0.02,0.002
13.06,-0.237,0.017,-0.01
13.07,-0.236,0.019,0.011
13.08,-0.229,0.02,-0.004
13.09,-0.231,0.018,0.004
13.1,-0.233,0.018,-0.001
13.11,-0.231,0.017,0.003
13.12,-0.227,0.021,0.006
13.13,-0.225,0.018,0.002
13.14,-0.226,0.015,0.002
13.15,-0.235,0.019,0.006
13.16,-0.226,0.018,0.008
13.17,-0.233,0.018,-0.003
13.18,-0.231,0.024,0.004
13.19,-0.233,0.016,0.006
13.2,-0.236,0.021,0.002
13.21,-0.227,0.02,-0.003
13.22,-0.227,0.019,-0.001
13.23,-0.23,0.016,0.002
13.24,-0.227,0.016,-0.006
13.25,-0.228,0.018,-0.01
13.26,-0.226,0.021,-0.003
13.27,-0.232,0.017,0.0
13.28,-0.228,0.021,-0.004
13.29,-0.233,0.011,0.009
13.3,-0.234,0.017,0.009
13.31,-0.227,0.02,0.005
13.32,-0.235,0.021,0.0
13.33,-0.234,0.019,0.005
13.34,-0.227,0.019,0.006
13.35,-0.227,0.018,0.003
13.36,-0.229,0.017,0.004
13.37,-0.234,0.014,0.006
13.38,-0.229,0.011,0.004
13.39,-0.233,0.016,0.002
13.4,-0.233,0.019,-0.015
13.41,-0.228,0.016,0.003
13.42,-0.229,0.017,0.012
13.43,-0.229,0.013,-0.004
13.44,-0.232,0.021,-0.002
13.45,-0.226,0.015,-0.002
13.46,-0.235,0.02,-0.007
13.47,-0.235,0.02,-0.001
13.48,-0.233,0.017,0.005
13.49,-0.229,0.013,-0.007
13.5,-0.227,0.018,-0.001
13.51,-0.231,0.011,-0.003
13.52,-0.23,0.012,-0.001
13.53,-0.232,0.019,0.003
13.54,-0.232,0.018,0.002
13.55,-0.23,0.015,-0.0
13.56,-0.232,0.019,-0.004
13.57,-0.233,0.022,-0.003
13.58,-0.228,0.019,-0.009
13.59,-0.229,0.019,0.003
13.6,-0.23,0.017,-0.002
13.61,-0.231,0.013,-0.007
13.62,-0.224,0.017,0.001
13.63,-0.231,0.02,0.002
13.64,-0.239,0.023,-0.003
13.65,-0.23,0.017,-0.001
13.66,-0.238,0.018,-0.004
13.67,-0.231,0.019,-0.001
13.68,-0.239,0.016,-0.003
13.69,-0.227,0.021,-0.002
13.7,-0.234,0.018,-0.003
13.71,-0.23,0.019,0.0
13.72,-0.226,0.011,0.002
13.73,-0.233,0.022,-0.002
13.74,-0.235,0.02,-0.002
13.75,-0.236,0.024,-0.003
13.76,-0.236,0.016,0.007
13.77,-0.236,0.017,-0.015
13.78,-0.232,0.014,0.006
13.79,-0.228,0.023,-0.004
13.8,-0.233,0.015,-0.006
13.81,-0.235,0.024,-0.01
13.82,-0.233,0.017,0.004
13.83,-0.236,0.018,-0.006
13.84,-0.233,0.019,0.002
13.85,-0.23,0.013,-0.006
13.86,-0.234,0.012,-0.004
13.87,-0.232,0.021,-0.001
13.88,-0.229,0.021,-0.005
13.89,-0.228,0.015,0.006
13.9,-0.234,0.018,-0.007
13.91,-0.234,0.024,-0.001
13.92,-0.229,0.017,-0.003
13.93,-0.23,0.017,-0.0
13.94,-0.237,0.02,-0.012
13.95,-0.226,0.019,-0.001
13.96,-0.232,0.021,0.0
13.97,-0.229,0.02,0.003
13.98,-0.236,0.02,-0.002
13.99,-0.232,0.018,-0.001
14.0,-0.238,0.014,0.008
14.01,-0.234,0.016,0.003
14.02,-0.23,0.02,0.001
14.03,-0.228,0.018,-0.002
14.04,-0.235,0.02,-0.002
14.05,-0.233,0.018,-0.004
14.06,-0.233,0.018,-0.005
14.07,-0.232,0.016,-0.0
14.08,-0.23,0.018,0.006
14.09,-0.231,0.01,-0.005
14.1,-0.231,0.023,0.001
14.11,-0.23,0.021,0.003
14.12,-0.232,0.017,0.0
14.13,-0.229,0.017,0.006
14.14,-0.231,0.014,0.001
14.15,-0.233,0.013,-0.001
14.16,-0.233,0.02,-0.002
14.17,-0.232,0.014,0.012
14.18,-0.233,0.017,0.004
14.19,-0.228,0.018,0.01
14.2,-0.23,0.018,-0.005
14.21,-0.226,0.015,-0.008
14.22,-0.229,0.015,-0.004
14.23,-0.235,0.019,-0.007
14.24,-0.229,0.013,0.005
14.25,-0.234,0.016,-0.003
14.26,-0.233,0.018,0.005
14.27,-0.231,0.02,0.0
14.28,-0.231,0.02,-0.0
14.29,-0.23,0.022,-0.005
14.3,-0.227,0.017,-0.004
14.31,-0.228,0.02,0.007
14.32,-0.228,0.012,-0.005
14.33,-0.231,0.018,-0.002
14.34,-0.233,0.015,-0.004
14.35,-0.23,0.019,-0.004
14.36,-0.227,0.016,-0.001
14.37,-0.232,0.017,0.008
14.38,-0.229,0.019,0.008
14.39,-0.227,0.02,-0.005
14.4,-0.23,0.018,0.006
14.41,-0.228,0.019,-0.002
14.42,-0.234,0.018,0.005
14.43,-0.229,0.019,0.001
14.44,-0.231,0.02,0.001
14.45,-0.23,0.019,-0.002
14.46,-0.234,0.022,0.007
14.47,-0.236,0.02,-0.005
14.48,-0.229,0.013,0.005
14.49,-0.237,0.017,0.005
14.5,-0.226,0.014,-0.003
14.51,-0.23,0.021,-0.005
14.52,-0.229,0.019,-0.0
14.53,-0.226,0.022,-0.002
14.54,-0.235,0.017,-0.007
14.55,-0.233,0.019,-0.001
14.56,-0.23,0.016,-0.004
14.57,-0.223,0.017,0.0
14.58,-0.225,0.018,-0.001
14.59,-0.227,0.016,0.001
14.6,-0.231,0.02,-0.001
14.61,-0.233,0.015,0.001
14.62,-0.229,0.017,0.001
14.63,-0.233,0.02,-0.005
14.64,-0.226,0.016,0.001
14.65,-0.236,0.019,0.007
14.66,-0.234,0.02,-0.007
14.67,-0.234,0.019,0.002
14.68,-0.233,0.018,0.013
14.69,-0.231,0.013,-0.002
14.7,-0.237,0.016,0.008
14.71,-0.234,0.02,0.001
14.72,-0.229,0.021,-0.001
14.73,-0.231,0.021,0.006
14.74,-0.23,0.022,-0.004
14.75,-0.231,0.02,-0.007
14.76,-0.228,0.018,0.0
14.77,-0.232,0.022,-0.001
14.78,-0.225,0.018,0.004
14.79,-0.235,0.022,0.002
14.8,-0.229,0.019,-0.005
14.81,-0.238,0.013,0.004
14.82,-0.229,0.021,0.003
14.83,-0.23,0.017,-0.002
14.84,-0.235,0.018,0.001
14.85,-0.23,0.019,0.003
14.86,-0.229,0.012,0.005
14.87,-0.23,0.013,-0.007
14.88,-0.234,0.018,0.003
14.89,-0.233,0.019,-0.0
14.9,-0.233,0.02,0.007
14.91,-0.235,0.015,0.001
14.92,-0.229,0.022,-0.003
14.93,-0.231,0.021,0.006
14.94,-0.232,0.015,0.0
14.95,-0.227,0.014,0.002
14.96,-0.233,0.022,-0.0
14.97,-0.226,0.019,-0.002
14.98,-0.229,0.018,0.005
14.99,-0.229,0.016,-0.006
15.0,-0.23,0.015,0.006
15.01,-0.238,0.02,-0.003
15.02,-0.234,0.016,-0.002
15.03,-0.233,0.017,-0.002
15.04,-0.231,0.018,0.005
15.05,-0.231,0.017,-0.0
15.06,-0.226,0.01,0.002
15.07,-0.231,0.012,0.002
15.08,-0.232,0.013,-0.003
15.09,-0.233,0.019,-0.004
15.1,-0.226,0.018,0.0
15.11,-0.229,0.02,0.0
15.12,-0.228,0.021,0.002
15.13,-0.23,0.023,-0.0
15.14,-0.23,0.022,0.006
15.15,-0.231,0.021,0.004
15.16,-0.228,0.016,-0.005
15.17,-0.233,0.016,-0.001
15.18,-0.229,0.025,0.003
15.19,-0.231,0.016,-0.004
15.2,-0.235,0.018,-0.004
15.21,-0.228,0.022,0.004
15.22,-0.226,0.019,-0.003
15.23,-0.237,0.016,-0.007
15.24,-0.231,0.011,-0.003
15.25,-0.226,0.018,-0.005
15.26,-0.228,0.012,-0.0
15.27,-0.234,0.013,-0.001
15.28,-0.225,0.021,-0.007
15.29,-0.228,0.017,-0.001
15.3,-0.227,0.018,-0.005
15.31,-0.227,0.018,-0.002
15.32,-0.235,0.018,0.006
15.33,-0.232,0.016,0.004
15.34,-0.227,0.019,-0.002
15.35,-0.228,0.02,0.001
15.36,-0.236,0.014,-0.002
15.37,-0.231,0.017,-0.001
15.38,-0.229,0.017,0.008
15.39,-0.226,0.02,-0.002
15.4,-0.23,0.018,-0.004
15.41,-0.23,0.019,-0.002
15.42,-0.233,0.02,-0.002
15.43,-0.227,0.019,0.012
15.44,-0.233,0.02,0.0
15.45,-0.234,0.018,-0.005
15.46,-0.233,0.018,0.0
15.47,-0.236,0.015,0.003
15.48,-0.226,0.023,0.004
15.49,-0.228,0.019,0.008
15.5,-0.229,0.017,-0.002
15.51,-0.226,0.014,0.002
15.52,-0.229,0.019,0.002
15.53,-0.232,0.016,-0.001
15.54,-0.229,0.021,0.007
15.55,-0.232,0.016,0.004
15.56,-0.233,0.016,-0.0
15.57,-0.23,0.016,0.007
15.58,-0.229,0.019,0.001
15.59,-0.226,0.019,-0.003
15.6,-0.233,0.019,0.004
15.61,-0.227,0.014,0.002
15.62,-0.23,0.016,-0.006
15.63,-0.226,0.02,-0.001
15.64,-0.235,0.017,-0.003
15.65,-0.238,0.02,0.0
15.66,-0.228,0.021,-0.008
15.67,-0.23,0.015,0.004
15.68,-0.232,0.012,0.001
15.69,-0.231,0.016,-0.003
15.7,-0.229,0.017,0.006
15.71,-0.228,0.012,-0.005
15.72,-0.229,0.023,-0.001
15.73,-0.232,0.02,-0.003
15.74,-0.225,0.021,0.002
15.75,-0.233,0.021,0.002
15.76,-0.229,0.016,-0.007
15.77,-0.231,0.021,0.0
15.78,-0.229,0.024,-0.007
15.79,-0.227,0.02,0.003
15.8,-0.229,0.017,-0.007
15.81,-0.232,0.017,-0.006
15.82,-0.233,0.025,-0.006
15.83,-0.234,0.017,0.0
15.84,-0.233,0.017,0.006
15.85,-0.234,0.012,0.001
15.86,-0.233,0.014,0.001
15.87,-0.234,0.022,0.003
15.88,-0.235,0.015,-0.002
15.89,-0.237,0.017,-0.003
15.9,-0.231,0.015,0.004
15.91,-0.23,0.015,0.004
15.92,-0.232,0.021,-0.003
15.93,-0.237,0.013,0.002
15.94,-0.231,0.018,0.002
15.95,-0.228,0.016,0.01
15.96,-0.227,0.016,0.004
15.97,-0.234,0.016,-0.004
15.98,-0.228,0.015,0.007
15.99,-0.232,0.015,-0.005
16.0,-0.23,0.016,0.001
16.01,-0.229,0.023,0.007
16.02,-0.237,0.019,0.001
16.03,-0.228,0.02,0.004
16.04,-0.231,0.022,-0.003
16.05,-0.233,0.014,-0.006
16.06,-0.226,0.02,-0.01
16.07,-0.23,0.016,0.002
16.08,-0.226,0.017,-0.005
16.09,-0.235,0.019,0.008
16.1,-0.23,0.016,-0.007
16.11,-0.229,0.019,-0.004
16.12,-0.234,0.017,-0.002
16.13,-0.236,0.023,0.003
16.14,-0.232,0.023,0.001
16.15,-0.237,0.014,-0.001
16.16,-0.229,0.015,0.005
16.17,-0.239,0.015,-0.001
16.18,-0.231,0.02,-0.008
16.19,-0.227,0.019,0.008
16.2,-0.226,0.019,-0.002
16.21,-0.237,0.018,0.002
16.22,-0.234,0.023,0.003
16.23,-0.231,0.017,0.004
16.24,-0.231,0.023,0.002
16.25,-0.227,0.017,-0.005
16.26,-0.226,0.016,-0.005
16.27,-0.227,0.019,-0.0
16.28,-0.228,0.017,0.003
16.29,-0.23,0.02,0.011
16.3,-0.233,0.022,0.003
16.31,-0.23,0.021,-0.004
16.32,-0.233,0.019,-0.003
16.33,-0.232,0.015,0.003
16.34,-0.23,0.022,-0.004
16.35,-0.236,0.017,0.003
16.36,-0.224,0.014,0.002
16.37,-0.232,0.018,-0.002
16.38,-0.226,0.016,0.007
16.39,-0.233,0.015,-0.007
16.4,-0.228,0.015,-0.005
16.41,-0.239,0.02,0.001
16.42,-0.229,0.019,-0.009
16.43,-0.231,0.022,0.005
16.44,-0.235,0.018,-0.005
16.45,-0.238,0.017,-0.003
16.46,-0.23,0.013,0.005
16.47,-0.229,0.014,-0.003
16.48,-0.231,0.02,-0.002
16.49,-0.229,0.019,-0.007
16.5,-0.223,0.015,-0.001
16.51,-0.231,0.019,-0.002
16.52,-0.235,0.012,-0.003
16.53,-0.229,0.02,-0.001
16.54,-0.23,0.011,0.004
16.55,-0.229,0.014,0.002
16.56,-0.237,0.02,0.002
16.57,-0.229,0.017,-0.0
16.58,-0.23,0.013,0.001
16.59,-0.232,0.015,0.008
16.6,-0.228,0.019,0.006
16.61,-0.232,0.013,-0.004
16.62,-0.23,0.016,-0.003
16.63,-0.226,0.018,0.002
16.64,-0.233,0.023,-0.001
16.65,-0.236,0.018,-0.002
16.66,-0.227,0.011,0.005
16.67,-0.23,0.02,-0.002
16.68,-0.225,0.017,-0.003
16.69,-0.231,0.023,-0.003
16.7,-0.228,0.014,-0.003
16.71,-0.227,0.019,0.003
16.72,-0.234,0.023,-0.009
16.73,-0.228,0.018,0.004
16.74,-0.23,0.021,-0.007
16.75,-0.226,0.021,-0.002
16.76,-0.226,0.025,0.003
16.77,-0.228,0.021,-0.005
16.78,-0.236,0.018,-0.003
16.79,-0.228,0.02,-0.004
16.8,-0.223,0.019,-0.002
16.81,-0.232,0.021,-0.007
16.82,-0.231,0.015,-0.004
16.83,-0.232,0.018,0.0
16.84,-0.228,0.019,-0.013
16.85,-0.233,0.012,0.006
16.86,-0.234,0.017,0.001
16.87,-0.232,0.018,0.0
16.88,-0.229,0.016,-0.003
16.89,-0.23,0.013,-0.001
16.9,-0.235,0.017,0.001
16.91,-0.234,0.014,0.001
16.92,-0.229,0.015,0.006
16.93,-0.237,0.016,-0.004
16.94,-0.228,0.013,-0.001
16.95,-0.234,0.014,0.0
16.96,-0.227,0.019,-0.006
16.97,-0.23,0.016,-0.001
16.98,-0.229,0.02,-0.001
16.99,-0.233,0.016,-0.002
17.0,-0.23,0.016,0.002
17.01,-0.229,0.021,-0.007
17.02,-0.231,0.015,-0.001
17.03,-0.229,0.019,-0.004
17.04,-0.231,0.016,0.001
17.05,-0.231,0.021,-0.001
17.06,-0.232,0.02,-0.003
17.07,-0.236,0.017,0.006
17.08,-0.236,0.015,0.003
17.09,-0.233,0.019,0.002
17.1,-0.228,0.017,-0.004
17.11,-0.234,0.021,0.001
17.12,-0.227,0.016,-0.002
17.13,-0.228,0.013,0.001
17.14,-0.234,0.019,-0.003
17.15,-0.229,0.019,-0.0
17.16,-0.233,0.023,-0.005
17.17,-0.229,0.021,-0.009
17.18,-0.235,0.02,0.008
17.19,-0.229,0.019,0.004
17.2,-0.233,0.013,0.002
17.21,-0.232,0.016,0.002
17.22,-0.228,0.014,0.003
17.23,-0.234,0.013,-0.001
17.24,-0.24,0.012,-0.006
17.25,-0.23,0.016,0.0
17.26,-0.224,0.021,-0.007
17.27,-0.234,0.018,0.008
17.28,-0.226,0.024,-0.002
17.29,-0.224,0.021,0.002
17.3,-0.235,0.019,0.009
17.31,-0.23,0.021,-0.008
17.32,-0.231,0.017,-0.005
17.33,-0.228,0.013,-0.005
17.34,-0.236,0.016,-0.002
17.35,-0.225,0.022,-0.004
17.36,-0.23,0.015,0.0
17.37,-0.228,0.014,0.003
17.38,-0.232,0.016,-0.005
17.39,-0.228,0.016,0.004
17.4,-0.237,0.021,-0.003
17.41,-0.236,0.018,0.008
17.42,-0.23,0.016,0.009
17.43,-0.238,0.025,0.004
17.44,-0.238,0.015,0.003
17.45,-0.23,0.023,0.006
17.46,-0.229,0.015,-0.007
17.47,-0.234,0.021,0.002
17.48,-0.235,0.013,-0.002
17.49,-0.228,0.017,-0.002
17.5,-0.224,0.016,0.0
17.51,-0.224,0.013,-0.004
17.52,-0.228,0.014,-0.002
17.53,-0.227,0.015,-0.002
17.54,-0.222,0.022,0.002
17.55,-0.226,0.018,0.005
17.56,-0.232,0.018,0.002
17.57,-0.229,0.019,-0.0
17.58,-0.229,0.016,0.003
17.59,-0.23,0.014,0.004
17.6,-0.234,0.015,0.001
17.61,-0.231,0.019,-0.002
17.62,-0.23,0.019,0.003
17.63,-0.226,0.018,-0.004
17.64,-0.229,0.012,-0.0
17.65,-0.224,0.014,-0.001
17.66,-0.229,0.019,-0.0
17.67,-0.225,0.021,-0.001
17.68,-0.229,0.02,0.006
17.69,-0.228,0.02,0.003
17.7,-0.231,0.019,0.001
17.71,-0.231,0.023,0.003
17.72,-0.233,0.014,-0.002
17.73,-0.224,0.018,0.002
17.74,-0.233,0.025,0.003
17.75,-0.228,0.02,0.007
17.76,-0.227,0.02,0.008
17.77,-0.232,0.018,-0.01
17.78,-0.23,0.022,0.001
17.79,-0.227,0.012,-0.002
17.8,-0.234,0.024,0.001
17.81,-0.234,0.017,0.004
17.82,-0.227,0.017,0.006
17.83,-0.229,0.017,-0.007
17.84,-0.232,0.018,0.001
17.85,-0.231,0.017,0.006
17.86,-0.232,0.017,-0.004
17.87,-0.235,0.016,0.006
17.88,-0.233,0.021,-0.001
17.89,-0.227,0.021,0.011
17.9,-0.228,0.015,0.003
17.91,-0.23,0.02,-0.005
17.92,-0.233,0.021,-0.003
17.93,-0.23,0.019,0.0
17.94,-0.234,0.018,0.0
17.95,-0.231,0.017,0.001
17.96,-0.229,0.011,0.005
17.97,-0.232,0.018,-0.003
17.98,-0.231,0.019,-0.003
17.99,-0.231,0.017,0.001
18.0,-0.23,0.022,-0.002
18.01,-0.23,0.014,-0.008
18.02,-0.23,0.019,-0.002
18.03,-0.235,0.015,-0.002
18.04,-0.235,0.017,0.002
18.05,-0.229,0.021,-0.002
18.06,-0.233,0.017,0.011
18.07,-0.231,0.015,-0.006
18.08,-0.233,0.022,-0.002
18.09,-0.232,0.02,-0.003
18.1,-0.232,0.027,0.002
18.11,-0.227,0.016,-0.003
18.12,-0.226,0.02,-0.004
18.13,-0.235,0.02,0.007
18.14,-0.232,0.018,-0.001
18.15,-0.228,0.016,-0.002
18.16,-0.232,0.014,0.001
18.17,-0.235,0.021,-0.005
18.18,-0.228,0.018,0.001
18.19,-0.235,0.019,0.003
18.2,-0.236,0.019,-0.003
18.21,-0.23,0.014,0.0
18.22,-0.222,0.019,0.002
18.23,-0.236,0.017,0.006
18.24,-0.235,0.019,-0.002
18.25,-0.231,0.019,0.005
18.26,-0.228,0.02,0.004
18.27,-0.232,0.013,0.004
18.28,-0.236,0.022,-0.002
18.29,-0.235,0.014,-0.001
18.3,-0.229,0.024,-0.0
18.31,-0.23,0.02,0.0
18.32,-0.231,0.016,0.001
18.33,-0.227,0.015,-0.004
18.34,-0.231,0.017,0.004
18.35,-0.231,0.022,0.005
18.36,-0.23,0.017,0.007
18.37,-0.232,0.023,-0.001
18.38,-0.232,0.017,0.001
18.39,-0.229,0.014,0.007
18.4,-0.229,0.023,-0.003
18.41,-0.23,0.017,-0.001
18.42,-0.23,0.017,-0.007
18.43,-0.228,0.015,-0.006
18.44,-0.235,0.017,-0.002
18.45,-0.229,0.018,0.003
18.46,-0.228,0.019,-0.008
18.47,-0.234,0.017,0.008
18.48,-0.229,0.018,-0.005
18.49,-0.23,0.017,-0.003
18.5,-0.227,0.017,-0.003
18.51,-0.232,0.021,0.0
18.52,-0.232,0.017,-0.003
18.53,-0.233,0.019,0.002
18.54,-0.229,0.015,-0.002
18.55,-0.227,0.02,0.003
18.56,-0.229,0.021,0.003
18.57,-0.225,0.02,-0.005
18.58,-0.23,0.022,0.003
18.59,-0.23,0.019,0.005
18.6,-0.23,0.018,0.0
18.61,-0.229,0.017,0.005
18.62,-0.236,0.013,-0.004
18.63,-0.235,0.017,-0.004
18.64,-0.223,0.014,-0.004
18.65,-0.23,0.014,-0.007
18.66,-0.23,0.016,0.009
18.67,-0.23,0.021,-0.003
18.68,-0.23,0.02,-0.006
18.69,-0.23,0.019,0.0
18.7,-0.238,0.02,0.005
18.71,-0.235,0.019,0.002
18.72,-0.227,0.016,-0.011
18.73,-0.223,0.023,-0.007
18.74,-0.234,0.022,-0.006
18.75,-0.234,0.018,-0.004
18.76,-0.232,0.015,0.003
18.77,-0.229,0.017,-0.001
18.78,-0.229,0.022,-0.004
18.79,-0.238,0.013,-0.0
18.8,-0.229,0.023,0.006
18.81,-0.227,0.022,0.007
18.82,-0.23,0.018,-0.003
18.83,-0.229,0.019,0.005
18.84,-0.234,0.014,-0.006
18.85,-0.231,0.019,-0.0
18.86,-0.235,0.013,0.004
18.87,-0.23,0.015,-0.005
18.88,-0.231,0.018,0.002
18.89,-0.23,0.018,-0.002
18.9,-0.234,0.009,0.002
18.91,-0.229,0.016,-0.01
18.92,-0.23,0.022,0.0
18.93,-0.229,0.014,-0.008
18.94,-0.232,0.019,-0.004
18.95,-0.226,0.019,0.003
18.96,-0.229,0.017,0.0
18.97,-0.23,0.019,0.009
18.98,-0.229,0.019,-0.006
18.99,-0.227,0.017,-0.008
19.0,-0.229,0.018,-0.004
19.01,-0.233,0.017,-0.005
19.02,-0.234,0.02,0.002
19.03,-0.233,0.019,0.003
19.04,-0.227,0.018,-0.004
19.05,-0.231,0.019,-0.002
19.06,-0.226,0.02,0.001
19.07,-0.233,0.021,0.005
19.08,-0.23,0.02,0.003
19.09,-0.229,0.018,-0.002
19.1,-0.233,0.021,0.0
19.11,-0.23,0.023,-0.003
19.12,-0.23,0.017,0.01
19.13,-0.235,0.014,0.007
19.14,-0.229,0.019,0.002
19.15,-0.234,0.017,-0.005
19.16,-0.233,0.019,0.003
19.17,-0.229,0.022,-0.001
19.18,-0.221,0.016,0.01
19.19,-0.231,0.019,0.005
19.2,-0.228,0.021,0.006
19.21,-0.231,0.017,-0.003
19.22,-0.231,0.019,0.003
19.23,-0.231,0.018,-0.001
19.24,-0.228,0.02,-0.0
19.25,-0.231,0.017,0.002
19.26,-0.236,0.012,0.001
19.27,-0.226,0.019,-0.004
19.28,-0.227,0.017,-0.001
19.29,-0.225,0.01,0.0
19.3,-0.232,0.019,0.004
19.31,-0.23,0.018,0.001
19.32,-0.23,0.013,0.001
19.33,-0.233,0.019,-0.005
19.34,-0.228,0.017,0.008
19.35,-0.232,0.016,-0.002
19.36,-0.231,0.023,-0.007
19.37,-0.233,0.016,-0.002
19.38,-0.234,0.016,0.005
19.39,-0.23,0.015,0.01
19.4,-0.227,0.014,-0.001
19.41,-0.231,0.016,-0.004
19.42,-0.232,0.013,-0.007
19.43,-0.233,0.018,-0.003
19.44,-0.226,0.015,0.001
19.45,-0.233,0.016,0.008
19.46,-0.225,0.023,0.002
19.47,-0.231,0.013,-0.008
19.48,-0.225,0.021,0.005
19.49,-0.227,0.023,-0.003
19.5,-0.234,0.015,0.004
19.51,-0.228,0.022,-0.004
19.52,-0.231,0.014,0.004
19.53,-0.232,0.02,0.0
19.54,-0.23,0.019,-0.006
19.55,-0.227,0.019,-0.005
19.56,-0.228,0.023,-0.002
19.57,-0.232,0.02,-0.007
19.58,-0.233,0.018,0.001
19.59,-0.233,0.021,0.001
19.6,-0.229,0.013,-0.006
19.61,-0.229,0.025,0.001
19.62,-0.23,0.023,0.002
19.63,-0.233,0.017,0.008
19.64,-0.227,0.022,0.001
19.65,-0.228,0.016,-0.0
19.66,-0.228,0.015,-0.01
19.67,-0.232,0.014,0.005
19.68,-0.229,0.014,0.008
19.69,-0.231,0.016,-0.011
19.7,-0.236,0.013,-0.001
19.71,-0.226,0.017,-0.002
19.72,-0.227,0.022,-0.002
19.73,-0.232,0.014,-0.002
19.74,-0.239,0.019,-0.002
19.75,-0.234,0.017,-0.001
19.76,-0.232,0.018,0.004
19.77,-0.235,0.017,0.005
19.78,-0.238,0.019,-0.001
19.79,-0.226,0.018,0.005
19.8,-0.234,0.021,0.008
19.81,-0.229,0.015,-0.003
19.82,-0.224,0.019,0.003
19.83,-0.231,0.015,0.001
19.84,-0.231,0.012,-0.0
19.85,-0.232,0.014,-0.003
19.86,-0.23,0.02,0.008
19.87,-0.23,0.013,0.007
19.88,-0.233,0.019,0.001
19.89,-0.229,0.02,0.002
19.9,-0.231,0.012,-0.008
19.91,-0.232,0.018,0.003
19.92,-0.23,0.021,0.011
19.93,-0.232,0.018,0.003
19.94,-0.228,0.019,-0.003
19.95,-0.231,0.014,-0.008
19.96,-0.229,0.02,0.002
19.97,-0.228,0.014,0.001
19.98,-0.232,0.018,0.001
19.99,-0.233,0.019,0.002
20.0,-0.228,0.019,-0.003
20.01,-0.234,0.012,0.006
20.02,-0.23,0.018,-0.001
20.03,-0.232,0.014,0.004
20.04,-0.229,0.02,-0.002
20.05,-0.232,0.015,-0.004
20.06,-0.235,0.019,0.002
20.07,-0.23,0.021,-0.008
20.08,-0.236,0.018,-0.003
20.09,-0.229,0.019,0.001
20.1,-0.228,0.014,0.006
20.11,-0.23,0.016,0.002
20.12,-0.233,0.012,0.005
20.13,-0.231,0.013,-0.004
20.14,-0.234,0.014,0.001
20.15,-0.23,0.024,0.001
20.16,-0.235,0.02,0.001
20.17,-0.231,0.019,0.003
20.18,-0.23,0.019,0.005
20.19,-0.226,0.017,0.007
20.2,-0.226,0.015,0.001
20.21,-0.235,0.016,0.003
20.22,-0.229,0.018,0.003
20.23,-0.232,0.019,0.003
20.24,-0.229,0.021,0.001
20.25,-0.231,0.017,-0.002
20.26,-0.232,0.016,-0.003
20.27,-0.228,0.016,0.002
20.28,-0.233,0.016,-0.001
20.29,-0.233,0.023,0.006
20.3,-0.224,0.015,-0.0
20.31,-0.23,0.019,-0.007
20.32,-0.238,0.016,-0.004
20.33,-0.228,0.021,0.002
20.34,-0.232,0.022,0.005
20.35,-0.232,0.02,0.004
20.36,-0.23,0.013,-0.002
20.37,-0.223,0.021,0.003
20.38,-0.234,0.013,-0.001
20.39,-0.228,0.02,-0.005
20.4,-0.231,0.02,-0.007
20.41,-0.234,0.014,0.004
20.42,-0.237,0.014,-0.004
20.43,-0.228,0.024,-0.001
20.44,-0.23,0.015,-0.009
20.45,-0.224,0.014,-0.002
20.46,-0.23,0.018,0.004
20.47,-0.227,0.013,0.001
20.48,-0.229,0.014,0.005
20.49,-0.23,0.019,-0.002
20.5,-0.223,0.022,0.001
20.51,-0.229,0.02,0.001
20.52,-0.233,0.016,0.005
20.53,-0.227,0.017,0.003
20.54,-0.234,0.014,0.002
20.55,-0.239,0.011,-0.001
20.56,-0.227,0.018,0.007
20.57,-0.232,0.019,0.005
20.58,-0.233,0.015,0.006
20.59,-0.234,0.017,-0.003
20.6,-0.227,0.017,0.002
20.61,-0.233,0.02,-0.008
20.62,-0.229,0.015,0.004
20.63,-0.228,0.021,-0.008
20.64,-0.23,0.015,-0.004
20.65,-0.227,0.017,0.005
20.66,-0.232,0.022,-0.003
20.67,-0.233,0.019,-0.004
20.68,-0.23,0.016,-0.005
20.69,-0.232,0.016,-0.0
20.7,-0.228,0.017,0.005
20.71,-0.229,0.012,-0.004
20.72,-0.227,0.013,-0.002
20.73,-0.229,0.013,0.006
20.74,-0.237,0.022,-0.004
20.75,-0.231,0.012,-0.002
20.76,-0.229,0.018,-0.001
20.77,-0.233,0.02,0.0
20.78,-0.231,0.018,-0.002
20.79,-0.228,0.015,-0.001
20.8,-0.23,0.011,-0.001
20.81,-0.235,0.016,-0.002
20.82,-0.24,0.014,0.003
20.83,-0.233,0.019,-0.004
20.84,-0.228,0.014,0.003
20.85,-0.232,0.017,-0.001
20.86,-0.232,0.019,-0.002
20.87,-0.241,0.015,-0.004
20.88,-0.229,0.015,0.001
20.89,-0.231,0.022,0.014
20.9,-0.236,0.017,-0.005
20.91,-0.226,0.014,-0.004
20.92,-0.231,0.017,0.004
20.93,-0.229,0.016,0.001
20.94,-0.228,0.018,-0.002
20.95,-0.229,0.016,-0.001
20.96,-0.229,0.016,0.004
20.97,-0.229,0.018,0.007
20.98,-0.234,0.015,-0.003
20.99,-0.227,0.011,0.001
21.0,-0.231,0.017,0.003
21.01,-0.223,0.02,0.005
21.02,-0.234,0.019,0.006
21.03,-0.232,0.017,-0.004
21.04,-0.233,0.02,0.005
21.05,-0.228,0.016,0.001
21.06,-0.223,0.016,0.001
21.07,-0.23,0.022,0.0
21.08,-0.226,0.012,-0.007
21.09,-0.227,0.017,-0.002
21.1,-0.231,0.019,-0.001
21.11,-0.227,0.017,0.006
21.12,-0.232,0.015,0.005
21.13,-0.235,0.017,-0.004
21.14,-0.234,0.018,0.001
21.15,-0.233,0.015,0.008
21.16,-0.234,0.015,0.008
21.17,-0.228,0.018,-0.013
21.18,-0.238,0.021,0.002
21.19,-0.229,0.017,-0.006
21.2,-0.229,0.017,-0.001
21.21,-0.228,0.022,-0.003
21.22,-0.229,0.014,0.0
21.23,-0.232,0.015,0.004
21.24,-0.229,0.022,0.001
21.25,-0.228,0.016,0.008
21.26,-0.231,0.02,-0.004
21.27,-0.226,0.019,0.001
21.28,-0.232,0.02,-0.004
21.29,-0.231,0.018,0.0
21.3,-0.23,0.021,-0.0
21.31,-0.226,0.014,0.008
21.32,-0.237,0.016,0.004
21.33,-0.229,0.014,-0.001
21.34,-0.229,0.017,0.002
21.35,-0.23,0.012,-0.005
21.36,-0.233,0.019,-0.005
21.37,-0.23,0.018,0.002
21.38,-0.231,0.021,-0.002
21.39,-0.226,0.017,-0.001
21.4,-0.227,0.022,-0.004
21.41,-0.228,0.018,0.0
21.42,-0.233,0.022,0.005
21.43,-0.227,0.02,-0.003
21.44,-0.237,0.016,-0.0
21.45,-0.233,0.018,-0.004
21.46,-0.227,0.014,-0.002
21.47,-0.231,0.018,-0.003
21.48,-0.231,0.017,-0.0
21.49,-0.235,0.017,-0.003
21.5,-0.231,0.012,-0.002
21.51,-0.229,0.01,-0.003
21.52,-0.231,0.018,0.003
21.53,-0.232,0.015,-0.005
21.54,-0.229,0.018,-0.002
21.55,-0.234,0.019,-0.004
21.56,-0.229,0.016,0.002
21.57,-0.233,0.02,-0.001
21.58,-0.231,0.018,0.0
21.59,-0.232,0.019,-0.005
21.6,-0.234,0.016,0.0
21.61,-0.228,0.015,-0.007
21.62,-0.228,0.021,-0.008
21.63,-0.236,0.019,-0.005
21.64,-0.228,0.021,0.001
21.65,-0.233,0.016,-0.006
21.66,-0.235,0.02,-0.002
21.67,-0.232,0.016,-0.004
21.68,-0.229,0.016,-0.003
21.69,-0.232,0.021,-0.003
21.7,-0.23,0.019,0.003
21.71,-0.239,0.018,-0.001
21.72,-0.231,0.016,0.002
21.73,-0.23,0.019,0.005
21.74,-0.227,0.015,0.002
21.75,-0.224,0.014,-0.003
21.76,-0.225,0.02,-0.003
21.77,-0.224,0.021,0.003
21.78,-0.229,0.011,-0.006
21.79,-0.229,0.02,-0.004
21.8,-0.234,0.014,-0.008
21.81,-0.227,0.022,-0.014
21.82,-0.222,0.016,0.003
21.83,-0.229,0.018,-0.004
21.84,-0.232,0.02,0.002
21.85,-0.233,0.019,-0.003
21.86,-0.238,0.024,0.006
21.87,-0.232,0.023,0.011
21.88,-0.232,0.02,0.005
21.89,-0.227,0.018,0.004
21.9,-0.229,0.014,0.003
21.91,-0.231,0.019,-0.009
21.92,-0.226,0.019,0.003
21.93,-0.231,0.017,-0.003
21.94,-0.229,0.017,-0.004
21.95,-0.228,0.017,0.002
21.96,-0.227,0.011,0.001
21.97,-0.23,0.025,0.001
21.98,-0.234,0.021,0.006
21.99,-0.227,0.015,-0.004
22.0,-0.231,0.022,-0.007
22.01,-0.232,0.022,-0.0
22.02,-0.223,0.02,-0.004
22.03,-0.226,0.017,0.004
22.04,-0.235,0.019,0.0
22.05,-0.23,0.017,-0.006
22.06,-0.228,0.015,-0.0
22.07,-0.231,0.024,-0.004
22.08,-0.23,0.02,-0.0
22.09,-0.228,0.019,0.003
22.1,-0.227,0.018,0.003
22.11,-0.229,0.019,0.004
22.12,-0.226,0.02,-0.004
22.13,-0.231,0.023,0.007
22.14,-0.234,0.02,0.004
22.15,-0.231,0.018,0.002
22.16,-0.232,0.015,0.007
22.17,-0.232,0.022,0.001
22.18,-0.233,0.018,0.001
22.19,-0.231,0.016,0.008
22.2,-0.231,0.016,0.0
22.21,-0.23,0.019,0.004
22.22,-0.224,0.022,-0.005
22.23,-0.235,0.018,-0.004
22.24,-0.23,0.016,-0.002
22.25,-0.233,0.019,0.003
22.26,-0.232,0.02,0.0
22.27,-0.231,0.018,-0.006
22.28,-0.233,0.015,-0.002
22.29,-0.231,0.02,-0.004
22.3,-0.229,0.021,0.003
22.31,-0.234,0.016,0.006
22.32,-0.225,0.017,-0.003
22.33,-0.227,0.022,-0.001
22.34,-0.233,0.017,0.001
22.35,-0.237,0.02,0.013
22.36,-0.226,0.012,-0.003
22.37,-0.231,0.017,-0.0
22.38,-0.233,0.022,0.006
22.39,-0.223,0.016,-0.002
22.4,-0.224,0.019,0.001
22.41,-0.232,0.016,0.002
22.42,-0.225,0.018,-0.004
22.43,-0.226,0.021,0.003
22.44,-0.234,0.018,0.001
22.45,-0.233,0.01,0.001
22.46,-0.23,0.019,0.003
22.47,-0.229,0.018,0.005
22.48,-0.232,0.015,0.002
22.49,-0.233,0.019,-0.001
22.5,-0.232,0.011,0.002
22.51,-0.227,0.022,0.001
22.52,-0.233,0.015,-0.001
22.53,-0.226,0.02,0.002
22.54,-0.231,0.02,0.002
22.55,-0.225,0.022,0.001
22.56,-0.228,0.017,-0.003
22.57,-0.234,0.021,-0.002
22.58,-0.229,0.019,-0.002
22.59,-0.234,0.016,0.002
22.6,-0.234,0.018,-0.01
22.61,-0.232,0.015,-0.002
22.62,-0.226,0.023,0.004
22.63,-0.227,0.013,0.005
22.64,-0.236,0.014,0.006
22.65,-0.23,0.015,-0.008
22.66,-0.235,0.015,0.001
22.67,-0.232,0.016,-0.005
22.68,-0.231,0.017,-0.001
22.69,-0.23,0.012,-0.003
22.7,-0.232,0.016,0.005
22.71,-0.226,0.018,0.004
22.72,-0.231,0.02,-0.001
22.73,-0.228,0.016,0.002
22.74,-0.231,0.019,-0.003
22.75,-0.227,0.023,0.003
22.76,-0.228,0.02,0.001
22.77,-0.225,0.019,-0.009
22.78,-0.224,0.018,-0.002
22.79,-0.226,0.016,0.006
22.8,-0.23,0.016,-0.002
22.81,-0.227,0.015,-0.003
22.82,-0.223,0.02,0.006
22.83,-0.227,0.015,0.002
22.84,-0.231,0.019,0.003
22.85,-0.229,0.013,0.005
22.86,-0.231,0.022,-0.003
22.87,-0.228,0.021,-0.004
22.88,-0.233,0.017,-0.004
22.89,-0.228,0.016,0.003
22.9,-0.229,0.017,0.001
22.91,-0.232,0.017,-0.001
22.92,-0.232,0.011,0.004
22.93,-0.235,0.018,0.0
22.94,-0.23,0.017,-0.001
22.95,-0.231,0.025,0.002
22.96,-0.226,0.014,0.001
22.97,-0.232,0.014,0.004
22.98,-0.228,0.021,-0.001
22.99,-0.223,0.016,0.003
23.0,-0.23,0.023,-0.002
23.01,-0.232,0.018,0.005
23.02,-0.234,0.021,-0.005
23.03,-0.227,0.015,0.003
23.04,-0.232,0.023,0.0
23.05,-0.234,0.019,-0.008
23.06,-0.231,0.016,0.009
23.07,-0.229,0.016,0.002
23.08,-0.229,0.018,0.005
23.09,-0.23,0.019,-0.002
23.1,-0.229,0.019,0.001
23.11,-0.227,0.015,-0.001
23.12,-0.228,0.018,0.001
23.13,-0.23,0.018,-0.003
23.14,-0.231,0.016,0.003
23.15,-0.232,0.019,-0.007
23.16,-0.234,0.02,0.004
23.17,-0.235,0.02,-0.001
23.18,-0.23,0.018,-0.007
23.19,-0.23,0.014,0.009
23.2,-0.227,0.018,-0.006
23.21,-0.232,0.021,0.001
23.22,-0.232,0.013,-0.002
23.23,-0.227,0.018,-0.004
23.24,-0.237,0.02,0.008
23.25,-0.229,0.017,-0.0
23.26,-0.235,0.022,0.002
23.27,-0.235,0.016,0.002
23.28,-0.226,0.02,-0.0
23.29,-0.23,0.017,0.007
23.3,-0.233,0.021,0.002
23.31,-0.234,0.015,0.002
23.32,-0.225,0.02,-0.002
23.33,-0.229,0.019,0.005
23.34,-0.233,0.018,-0.005
23.35,-0.228,0.021,-0.006
23.36,-0.226,0.023,-0.002
23.37,-0.236,0.016,0.011
23.38,-0.23,0.018,-0.002
23.39,-0.225,0.017,0.001
23.4,-0.237,0.019,0.003
23.41,-0.231,0.017,-0.006
23.42,-0.239,0.021,0.002
23.43,-0.226,0.024,-0.001
23.44,-0.23,0.018,-0.001
23.45,-0.232,0.014,0.005
23.46,-0.229,0.019,0.002
23.47,-0.237,0.014,-0.002
23.48,-0.23,0.015,-0.009
23.49,-0.229,0.015,-0.003
23.5,-0.232,0.017,-0.003
23.51,-0.233,0.017,-0.002
23.52,-0.231,0.023,0.001
23.53,-0.226,0.016,-0.002
23.54,-0.235,0.02,0.002
23.55,-0.228,0.016,0.0
23.56,-0.225,0.019,-0.002
23.57,-0.232,0.02,0.005
23.58,-0.235,0.024,0.002
23.59,-0.232,0.016,0.004
23.6,-0.228,0.015,0.004
23.61,-0.229,0.019,-0.004
23.62,-0.225,0.02,-0.008
23.63,-0.229,0.018,-0.004
23.64,-0.238,0.016,0.003
23.65,-0.235,0.015,0.0
23.66,-0.236,0.019,-0.005
23.67,-0.226,0.015,0.002
23.68,-0.229,0.016,-0.008
23.69,-0.233,0.016,0.007
23.7,-0.234,0.016,-0.003
23.71,-0.23,0.015,0.004
23.72,-0.232,0.021,-0.008
23.73,-0.235,0.017,-0.005
23.74,-0.232,0.018,0.004
23.75,-0.227,0.015,0.007
23.76,-0.228,0.018,-0.002
23.77,-0.232,0.024,0.007
23.78,-0.231,0.021,-0.003
23.79,-0.231,0.02,-0.0
23.8,-0.232,0.021,0.0
23.81,-0.23,0.017,-0.004
23.82,-0.231,0.017,-0.006
23.83,-0.228,0.017,0.003
23.84,-0.23,0.018,0.0
23.85,-0.236,0.019,0.006
23.86,-0.229,0.016,0.008
23.87,-0.227,0.019,-0.007
23.88,-0.235,0.017,-0.0
23.89,-0.227,0.017,0.003
23.9,-0.23,0.019,0.003
23.91,-0.229,0.018,0.0
23.92,-0.228,0.016,0.002
23.93,-0.233,0.016,-0.0
23.94,-0.228,0.014,-0.006
23.95,-0.235,0.016,-0.009
23.96,-0.232,0.018,-0.011
23.97,-0.235,0.017,0.004
23.98,-0.23,0.014,-0.002
23.99,-0.229,0.017,-0.0
24.0,-0.23,0.017,0.004
24.01,-0.234,0.021,-0.002
24.02,-0.229,0.025,0.011
24.03,-0.229,0.015,-0.004
24.04,-0.231,0.02,0.003
24.05,-0.232,0.022,-0.004
24.06,-0.233,0.02,-0.0
24.07,-0.233,0.02,0.002
24.08,-0.23,0.024,-0.001
24.09,-0.237,0.014,0.002
24.1,-0.229,0.018,-0.01
24.11,-0.235,0.019,-0.003
24.12,-0.23,0.013,-0.003
24.13,-0.232,0.014,0.003
24.14,-0.23,0.019,0.005
24.15,-0.232,0.023,-0.002
24.16,-0.227,0.015,0.002
24.17,-0.236,0.019,-0.001
24.18,-0.228,0.019,0.011
24.19,-0.233,0.018,-0.002
24.2,-0.238,0.016,-0.001
24.21,-0.232,0.018,0.002
24.22,-0.233,0.014,0.0
24.23,-0.229,0.02,-0.001
24.24,-0.233,0.017,-0.003
24.25,-0.228,0.018,0.004
24.26,-0.23,0.015,0.004
24.27,-0.233,0.02,0.004
24.28,-0.229,0.025,0.0
24.29,-0.233,0.015,-0.002
24.3,-0.227,0.02,0.007
24.31,-0.236,0.024,-0.007
24.32,-0.237,0.021,0.003
24.33,-0.233,0.017,0.0
24.34,-0.227,0.015,-0.002
24.35,-0.233,0.019,-0.006
24.36,-0.232,0.019,-0.001
24.37,-0.232,0.017,-0.005
24.38,-0.235,0.018,0.011
24.39,-0.228,0.015,0.005
24.4,-0.23,0.023,0.004
24.41,-0.222,0.021,0.008
24.42,-0.226,0.021,0.004
24.43,-0.231,0.016,0.001
24.44,-0.23,0.02,-0.006
24.45,-0.226,0.016,-0.001
24.46,-0.237,0.018,-0.001
24.47,-0.227,0.014,0.003
24.48,-0.234,0.021,0.002
24.49,-0.233,0.016,-0.006
24.5,-0.232,0.019,0.001
24.51,-0.233,0.017,0.0
24.52,-0.23,0.022,0.012
24.53,-0.231,0.021,0.001
24.54,-0.228,0.014,0.002
24.55,-0.24,0.012,-0.002
24.56,-0.231,0.018,-0.003
24.57,-0.23,0.018,0.001
24.58,-0.229,0.013,0.003
24.59,-0.228,0.015,0.003
24.6,-0.226,0.017,-0.007
24.61,-0.232,0.016,0.002
24.62,-0.235,0.018,0.0
24.63,-0.228,0.017,0.0
24.64,-0.232,0.017,-0.003
24.65,-0.231,0.016,0.003
24.66,-0.225,0.018,-0.006
24.67,-0.231,0.019,0.003
24.68,-0.229,0.017,0.001
24.69,-0.231,0.023,0.005
24.7,-0.237,0.018,0.001
24.71,-0.222,0.02,-0.005
24.72,-0.229,0.018,-0.003
24.73,-0.231,0.018,-0.0
24.74,-0.229,0.022,-0.01
24.75,-0.23,0.013,-0.001
24.76,-0.23,0.015,0.003
24.77,-0.234,0.02,0.001
24.78,-0.226,0.023,-0.008
24.79,-0.229,0.016,-0.003
24.8,-0.228,0.02,0.003
24.81,-0.228,0.016,0.0
24.82,-0.23,0.019,0.0
24.83,-0.233,0.016,0.001
24.84,-0.227,0.018,0.001
24.85,-0.231,0.017,0.009
24.86,-0.237,0.012,0.007
24.87,-0.234,0.019,0.004
24.88,-0.235,0.023,-0.002
24.89,-0.23,0.015,-0.002
24.9,-0.227,0.017,-0.005
24.91,-0.231,0.016,-0.009
24.92,-0.225,0.013,-0.003
24.93,-0.231,0.019,0.005
24.94,-0.227,0.014,-0.001
24.95,-0.233,0.021,0.002
24.96,-0.231,0.015,0.006
24.97,-0.232,0.02,0.002
24.98,-0.231,0.016,-0.01
24.99,-0.23,0.017,-0.007
25.0,-0.225,0.016,0.01
25.01,-0.231,0.015,-0.005
25.02,-0.227,0.014,-0.002
25.03,-0.227,0.019,-0.004
25.04,-0.235,0.018,-0.007
25.05,-0.236,0.011,0.004
25.06,-0.228,0.015,0.002
25.07,-0.236,0.012,-0.004
25.08,-0.23,0.02,-0.002
25.09,-0.229,0.018,-0.011
25.1,-0.23,0.017,-0.004
25.11,-0.234,0.016,-0.001
25.12,-0.23,0.022,0.0
25.13,-0.226,0.018,0.005
25.14,-0.228,0.014,-0.006
25.15,-0.23,0.016,0.006
25.16,-0.228,0.02,0.005
25.17,-0.231,0.017,-0.001
25.18,-0.232,0.027,-0.003
25.19,-0.229,0.018,-0.005
25.2,-0.228,0.012,-0.005
25.21,-0.234,0.017,0.008
25.22,-0.23,0.017,-0.001
25.23,-0.228,0.023,0.005
25.24,-0.23,0.018,0.001
25.25,-0.234,0.018,0.005
25.26,-0.228,0.018,-0.001
25.27,-0.228,0.018,-0.0
25.28,-0.234,0.021,-0.008
25.29,-0.229,0.019,0.001
25.3,-0.23,0.014,0.001
25.31,-0.228,0.019,0.003
25.32,-0.227,0.017,-0.003
25.33,-0.231,0.017,-0.003
25.34,-0.229,0.015,0.0
25.35,-0.231,0.013,0.004
25.36,-0.238,0.017,0.002
25.37,-0.228,0.015,0.006
25.38,-0.229,0.017,0.002
25.39,-0.228,0.022,-0.004
25.4,-0.23,0.016,0.001
25.41,-0.231,0.019,-0.005
25.42,-0.232,0.015,-0.002
25.43,-0.233,0.013,0.002
25.44,-0.224,0.02,0.0
25.45,-0.227,0.017,0.004
25.46,-0.234,0.016,-0.005
25.47,-0.229,0.022,0.001
25.48,-0.229,0.017,-0.007
25.49,-0.229,0.01,-0.003
25.5,-0.231,0.02,-0.002
25.51,-0.225,0.022,-0.003
25.52,-0.231,0.021,0.004
25.53,-0.223,0.006,-0.009
25.54,-0.223,0.019,0.007
25.55,-0.227,0.02,-0.007
25.56,-0.231,0.016,0.007
25.57,-0.227,0.019,-0.004
25.58,-0.229,0.015,-0.004
25.59,-0.23,0.019,0.001
25.6,-0.224,0.015,0.002
25.61,-0.228,0.022,0.009
25.62,-0.229,0.015,0.003
25.63,-0.232,0.022,-0.002
25.64,-0.235,0.022,-0.004
25.65,-0.23,0.02,-0.0
25.66,-0.23,0.016,0.005
25.67,-0.233,0.017,0.0
25.68,-0.237,0.016,0.003
25.69,-0.233,0.014,0.004
25.7,-0.231,0.019,0.005
25.71,-0.232,0.018,-0.008
25.72,-0.235,0.017,-0.001
25.73,-0.234,0.023,-0.006
25.74,-0.226,0.017,0.005
25.75,-0.234,0.019,-0.001
25.76,-0.23,0.018,0.005
25.77,-0.235,0.021,0.002
25.78,-0.233,0.022,-0.001
25.79,-0.231,0.021,0.004
25.8,-0.232,0.023,-0.001
25.81,-0.237,0.019,-0.002
25.82,-0.23,0.022,0.011
25.83,-0.229,0.017,-0.005
25.84,-0.229,0.015,0.002
25.85,-0.232,0.019,-0.001
25.86,-0.232,0.012,0.008
25.87,-0.237,0.016,-0.003
25.88,-0.233,0.023,0.002
25.89,-0.228,0.016,0.001
25.9,-0.226,0.011,0.004
25.91,-0.234,0.018,-0.002
25.92,-0.229,0.016,0.006
25.93,-0.228,0.021,0.004
25.94,-0.233,0.022,-0.007
25.95,-0.229,0.017,-0.003
25.96,-0.232,0.02,-0.004
25.97,-0.236,0.021,-0.001
25.98,-0.225,0.018,0.006
25.99,-0.23,0.018,0.002
26.0,-0.227,0.017,-0.004
26.01,-0.234,0.021,0.001
26.02,-0.227,0.021,0.004
26.03,-0.233,0.018,0.005
26.04,-0.229,0.021,0.003
26.05,-0.229,0.018,0.0
26.06,-0.226,0.018,-0.005
26.07,-0.227,0.022,0.0
26.08,-0.23,0.017,0.003
26.09,-0.227,0.017,0.005
26.1,-0.232,0.017,0.001
26.11,-0.233,0.017,0.003
26.12,-0.232,0.018,-0.004
26.13,-0.231,0.016,-0.013
26.14,-0.235,0.017,-0.0
26.15,-0.23,0.021,0.002
26.16,-0.232,0.017,-0.004
26.17,-0.228,0.017,0.012
26.18,-0.225,0.016,0.001
26.19,-0.228,0.019,0.003
26.2,-0.225,0.018,0.001
26.21,-0.234,0.019,0.001
26.22,-0.229,0.012,0.001
26.23,-0.235,0.013,0.007
26.24,-0.237,0.02,-0.002
26.25,-0.235,0.024,0.001
26.26,-0.229,0.017,0.009
26.27,-0.231,0.016,0.007
26.28,-0.231,0.018,-0.006
26.29,-0.231,0.024,0.001
26.3,-0.228,0.022,-0.007
26.31,-0.228,0.02,0.003
26.32,-0.23,0.016,-0.006
26.33,-0.224,0.01,-0.002
26.34,-0.229,0.017,-0.004
26.35,-0.233,0.018,0.0
26.36,-0.226,0.024,-0.003
26.37,-0.233,0.019,-0.001
26.38,-0.225,0.017,0.007
26.39,-0.233,0.017,-0.001
26.4,-0.234,0.016,0.012
26.41,-0.229,0.018,0.01
26.42,-0.23,0.018,-0.006
26.43,-0.23,0.016,-0.004
26.44,-0.233,0.012,0.002
26.45,-0.233,0.022,-0.001
26.46,-0.229,0.02,0.001
26.47,-0.229,0.019,-0.002
26.48,-0.231,0.016,0.001
26.49,-0.228,0.02,0.008
26.5,-0.227,0.02,0.003
26.51,-0.233,0.018,-0.001
26.52,-0.229,0.021,0.003
26.53,-0.231,0.013,0.007
26.54,-0.229,0.02,0.002
26.55,-0.228,0.015,0.002
26.56,-0.231,0.022,-0.001
26.57,-0.23,0.017,0.0
26.58,-0.233,0.018,-0.001
26.59,-0.229,0.019,0.001
26.6,-0.228,0.014,-0.0
26.61,-0.224,0.016,0.005
26.62,-0.236,0.022,0.003
26.63,-0.23,0.019,0.006
26.64,-0.236,0.015,-0.003
26.65,-0.231,0.012,-0.001
26.66,-0.233,0.02,-0.009
26.67,-0.24,0.016,-0.006
26.68,-0.23,0.02,-0.002
26.69,-0.23,0.021,0.003
26.7,-0.234,0.019,0.003
26.71,-0.232,0.02,-0.006
26.72,-0.228,0.019,-0.003
26.73,-0.229,0.017,-0.003
26.74,-0.228,0.017,-0.004
26.75,-0.233,0.02,-0.003
26.76,-0.23,0.017,-0.003
26.77,-0.23,0.021,0.006
26.78,-0.227,0.026,0.001
26.79,-0.229,0.016,-0.0
26.8,-0.238,0.021,-0.003
26.81,-0.234,0.017,-0.005
26.82,-0.226,0.018,-0.005
26.83,-0.225,0.018,0.0
26.84,-0.226,0.011,0.006
26.85,-0.235,0.024,0.004
26.86,-0.228,0.019,-0.005
26.87,-0.226,0.017,-0.001
26.88,-0.229,0.009,0.004
26.89,-0.232,0.02,-0.003
26.9,-0.225,0.016,-0.007
26.91,-0.235,0.015,0.006
26.92,-0.233,0.012,-0.005
26.93,-0.232,0.02,0.008
26.94,-0.236,0.019,-0.002
26.95,-0.229,0.018,0.005
26.96,-0.226,0.015,0.001
26.97,-0.228,0.013,-0.005
26.98,-0.227,0.016,0.006
26.99,-0.231,0.015,0.002
27.0,-0.233,0.017,0.009
27.01,-0.229,0.022,-0.001
27.02,-0.234,0.019,-0.007
27.03,-0.231,0.023,-0.003
27.04,-0.232,0.014,0.005
27.05,-0.232,0.024,0.0
27.06,-0.23,0.022,0.001
27.07,-0.227,0.018,0.007
27.08,-0.23,0.021,0.004
27.09,-0.234,0.017,-0.003
27.1,-0.233,0.019,0.005
27.11,-0.228,0.01,-0.002
27.12,-0.233,0.013,-0.015
27.13,-0.226,0.016,0.001
27.14,-0.226,0.025,-0.0
27.15,-0.228,0.012,0.006
27.16,-0.231,0.019,0.002
27.17,-0.234,0.016,-0.009
27.18,-0.237,0.019,0.004
27.19,-0.229,0.019,-0.004
27.2,-0.229,0.013,0.002
27.21,-0.231,0.016,-0.007
27.22,-0.231,0.015,0.001
27.23,-0.229,0.013,-0.009
27.24,-0.229,0.02,-0.002
27.25,-0.231,0.016,0.004
27.26,-0.23,0.018,-0.002
27.27,-0.226,0.023,0.0
27.28,-0.233,0.017,0.003
27.29,-0.226,0.016,-0.002
27.3,-0.23,0.015,-0.0
27.31,-0.231,0.019,-0.001
27.32,-0.224,0.013,0.001
27.33,-0.224,0.017,0.001
27.34,-0.227,0.018,-0.004
27.35,-0.232,0.014,0.0
27.36,-0.233,0.02,-0.001
27.37,-0.226,0.019,0.004
27.38,-0.231,0.019,-0.0
27.39,-0.229,0.012,-0.0
27.4,-0.23,0.019,-0.008
27.41,-0.227,0.021,-0.002
27.42,-0.229,0.021,-0.004
27.43,-0.234,0.016,0.009
27.44,-0.229,0.017,0.001
27.45,-0.236,0.017,0.005
27.46,-0.23,0.02,-0.005
27.47,-0.232,0.018,0.001
27.48,-0.233,0.012,-0.002
27.49,-0.231,0.017,0.002
27.5,-0.23,0.013,0.002
27.51,-0.229,0.019,-0.008
27.52,-0.227,0.021,-0.002
27.53,-0.231,0.019,0.002
27.54,-0.229,0.014,0.004
27.55,-0.236,0.024,0.001
27.56,-0.228,0.022,0.009
27.57,-0.226,0.014,0.006
27.58,-0.231,0.027,-0.001
27.59,-0.222,0.02,0.003
27.6,-0.231,0.018,-0.001
27.61,-0.23,0.015,-0.006
27.62,-0.232,0.021,-0.006
27.63,-0.232,0.014,0.003
27.64,-0.228,0.018,-0.002
27.65,-0.232,0.02,0.006
27.66,-0.229,0.017,0.004
27.67,-0.232,0.017,-0.001
27.68,-0.231,0.019,-0.001
27.69,-0.232,0.019,0.011
27.7,-0.228,0.017,0.002
27.71,-0.226,0.018,0.002
27.72,-0.229,0.021,-0.001
27.73,-0.224,0.015,0.0
27.74,-0.231,0.019,0.003
27.75,-0.23,0.012,-0.002
27.76,-0.233,0.013,-0.007
27.77,-0.232,0.016,0.002
27.78,-0.226,0.017,0.001
27.79,-0.227,0.023,-0.002
27.8,-0.235,0.024,0.007
27.81,-0.232,0.021,0.003
27.82,-0.226,0.013,-0.009
27.83,-0.229,0.021,0.002
27.84,-0.231,0.015,0.005
27.85,-0.229,0.018,-0.001
27.86,-0.227,0.013,0.011
27.87,-0.235,0.02,0.007
27.88,-0.231,0.022,-0.008
27.89,-0.23,0.024,-0.005
27.9,-0.227,0.015,-0.0
27.91,-0.229,0.02,0.008
27.92,-0.231,0.02,-0.003
27.93,-0.229,0.016,-0.007
27.94,-0.226,0.016,-0.005
27.95,-0.235,0.016,0.005
27.96,-0.226,0.018,-0.001
27.97,-0.23,0.02,-0.001
27.98,-0.23,0.017,0.0
27.99,-0.235,0.012,-0.005
28.0,-0.229,0.016,-0.007
28.01,-0.227,0.018,0.003
28.02,-0.222,0.012,-0.003
28.03,-0.234,0.014,-0.004
28.04,-0.224,0.017,0.001
28.05,-0.226,0.023,-0.01
28.06,-0.229,0.011,0.0
28.07,-0.225,0.018,-0.003
28.08,-0.227,0.017,0.008
28.09,-0.231,0.014,0.006
28.1,-0.232,0.015,0.006
28.11,-0.23,0.019,0.0
28.12,-0.232,0.019,-0.001
28.13,-0.23,0.024,0.002
28.14,-0.231,0.017,0.003
28.15,-0.232,0.017,-0.001
28.16,-0.23,0.018,0.002
28.17,-0.238,0.017,-0.003
28.18,-0.225,0.015,-0.002
28.19,-0.229,0.017,-0.001
28.2,-0.227,0.019,-0.002
28.21,-0.226,0.017,0.005
28.22,-0.229,0.019,-0.004
28.23,-0.225,0.011,-0.004
28.24,-0.231,0.014,-0.007
28.25,-0.229,0.017,-0.012
28.26,-0.232,0.014,0.009
28.27,-0.226,0.02,-0.0
28.28,-0.232,0.012,-0.002
28.29,-0.227,0.015,-0.0
28.3,-0.236,0.022,-0.01
28.31,-0.229,0.023,0.003
28.32,-0.229,0.018,-0.006
28.33,-0.229,0.017,0.002
28.34,-0.229,0.024,-0.007
28.35,-0.234,0.02,-0.001
28.36,-0.234,0.018,-0.008
28.37,-0.232,0.013,-0.004
28.38,-0.231,0.018,0.003
28.39,-0.229,0.014,-0.003
28.4,-0.229,0.022,-0.01
28.41,-0.229,0.019,-0.007
28.42,-0.23,0.015,-0.003
28.43,-0.228,0.02,0.001
28.44,-0.233,0.019,0.005
28.45,-0.229,0.021,-0.006
28.46,-0.229,0.021,-0.008
28.47,-0.225,0.015,0.004
28.48,-0.226,0.021,-0.004
28.49,-0.228,0.016,0.011
28.5,-0.231,0.021,0.003
28.51,-0.234,0.015,0.009
28.52,-0.231,0.019,-0.004
28.53,-0.232,0.015,-0.009
28.54,-0.232,0.014,0.004
28.55,-0.232,0.014,-0.002
28.56,-0.23,0.017,0.0
28.57,-0.229,0.017,-0.003
28.58,-0.229,0.014,0.0
28.59,-0.237,0.017,0.01
28.6,-0.226,0.015,0.002
28.61,-0.23,0.014,0.003
28.62,-0.231,0.023,0.009
28.63,-0.226,0.016,-0.003
28.64,-0.227,0.018,0.002
28.65,-0.225,0.023,0.0
28.66,-0.23,0.014,0.007
28.67,-0.232,0.017,-0.001
28.68,-0.232,0.016,-0.001
28.69,-0.229,0.019,-0.001
28.7,-0.229,0.021,-0.005
28.71,-0.228,0.018,0.002
28.72,-0.229,0.021,-0.008
28.73,-0.23,0.019,-0.001
28.74,-0.23,0.02,0.001
28.75,-0.231,0.018,-0.003
28.76,-0.235,0.012,-0.002
28.77,-0.232,0.022,-0.01
28.78,-0.227,0.02,0.002
28.79,-0.23,0.015,0.003
28.8,-0.233,0.02,0.001
28.81,-0.225,0.014,-0.001
28.82,-0.224,0.022,0.004
28.83,-0.228,0.019,0.007
28.84,-0.233,0.01,0.001
28.85,-0.23,0.016,0.002
28.86,-0.229,0.016,0.002
28.87,-0.23,0.021,0.002
28.88,-0.234,0.017,0.009
28.89,-0.23,0.018,-0.002
28.9,-0.233,0.015,-0.001
28.91,-0.226,0.019,-0.002
28.92,-0.229,0.023,-0.0
28.93,-0.23,0.021,0.005
28.94,-0.23,0.017,-0.001
28.95,-0.232,0.02,-0.004
28.96,-0.229,0.016,-0.005
28.97,-0.231,0.015,0.003
28.98,-0.224,0.016,-0.003
28.99,-0.229,0.022,0.003
29.0,-0.23,0.014,0.0
29.01,-0.229,0.018,-0.009
29.02,-0.228,0.017,0.002
29.03,-0.23,0.021,0.001
29.04,-0.226,0.019,-0.002
29.05,-0.232,0.008,-0.0
29.06,-0.229,0.011,0.007
29.07,-0.225,0.017,-0.002
29.08,-0.233,0.021,0.001
29.09,-0.224,0.017,-0.004
29.1,-0.226,0.021,-0.005
29.11,-0.231,0.019,-0.002
29.12,-0.232,0.011,0.001
29.13,-0.23,0.017,0.001
29.14,-0.232,0.017,0.002
29.15,-0.232,0.012,0.0
29.16,-0.229,0.013,-0.005
29.17,-0.227,0.014,0.003
29.18,-0.233,0.011,0.001
29.19,-0.228,0.02,0.005
29.2,-0.227,0.015,-0.003
29.21,-0.235,0.014,0.011
29.22,-0.226,0.012,0.003
29.23,-0.23,0.018,-0.006
29.24,-0.228,0.018,0.004
29.25,-0.233,0.018,-0.005
29.26,-0.224,0.017,0.003
29.27,-0.233,0.014,-0.004
29.28,-0.236,0.017,-0.003
29.29,-0.231,0.02,-0.005
29.3,-0.229,0.018,-0.004
29.31,-0.23,0.017,0.004
29.32,-0.229,0.02,0.002
29.33,-0.229,0.018,0.002
29.34,-0.235,0.019,-0.004
29.35,-0.232,0.015,0.004
29.36,-0.226,0.013,-0.006
29.37,-0.233,0.017,0.001
29.38,-0.232,0.019,0.003
29.39,-0.228,0.018,0.004
29.4,-0.228,0.014,0.001
29.41,-0.233,0.015,0.002
29.42,-0.223,0.016,-0.011
29.43,-0.228,0.018,0.002
29.44,-0.222,0.017,0.001
29.45,-0.229,0.02,0.0
29.46,-0.229,0.013,0.004
29.47,-0.237,0.018,0.0
29.48,-0.225,0.014,-0.005
29.49,-0.228,0.017,-0.0
29.5,-0.232,0.017,-0.001
29.51,-0.232,0.014,-0.002
29.52,-0.228,0.018,0.006
29.53,-0.234,0.018,-0.002
29.54,-0.236,0.016,0.002
29.55,-0.23,0.014,-0.004
29.56,-0.233,0.016,0.001
29.57,-0.229,0.019,-0.002
29.58,-0.228,0.019,0.011
29.59,-0.232,0.022,-0.0
29.6,-0.235,0.016,0.004
29.61,-0.233,0.016,-0.009
29.62,-0.228,0.021,-0.002
29.63,-0.236,0.019,-0.004
29.64,-0.229,0.017,0.003
29.65,-0.228,0.017,-0.004
29.66,-0.229,0.013,-0.003
29.67,-0.231,0.016,-0.004
29.68,-0.226,0.016,-0.004
29.69,-0.238,0.016,0.005
29.7,-0.229,0.018,-0.004
29.71,-0.228,0.021,-0.003
29.72,-0.229,0.017,0.01
29.73,-0.233,0.017,-0.004
29.74,-0.232,0.017,-0.008
29.75,-0.233,0.018,-0.0
29.76,-0.227,0.022,0.008
29.77,-0.232,0.02,0.011
29.78,-0.23,0.014,0.0
29.79,-0.229,0.016,-0.004
29.8,-0.23,0.02,-0.003
29.81,-0.232,0.016,0.003
29.82,-0.224,0.017,0.003
29.83,-0.231,0.018,0.004
29.84,-0.233,0.018,-0.004
29.85,-0.225,0.018,0.002
29.86,-0.229,0.019,-0.002
29.87,-0.231,0.018,-0.003
29.88,-0.229,0.019,0.003
29.89,-0.228,0.018,0.007
29.9,-0.228,0.012,0.011
29.91,-0.228,0.017,0.002
29.92,-0.235,0.021,-0.005
29.93,-0.239,0.015,0.002
29.94,-0.229,0.021,-0.003
29.95,-0.229,0.02,-0.001
29.96,-0.231,0.015,-0.002
29.97,-0.235,0.02,-0.001
29.98,-0.232,0.018,-0.008
29.99,-0.223,0.017,0.001
30.0,-0.233,0.017,0.006
30.01,-0.23,0.015,-0.008
30.02,-0.234,0.016,-0.002
30.03,-0.23,0.022,-0.002
30.04,-0.23,0.017,0.005
30.05,-0.233,0.023,0.009
30.06,-0.226,0.017,-0.004
30.07,-0.228,0.015,0.005
30.08,-0.227,0.019,-0.0
30.09,-0.229,0.02,0.003
30.1,-0.224,0.019,0.002
30.11,-0.237,0.021,-0.003
30.12,-0.229,0.018,-0.003
30.13,-0.226,0.017,0.003
30.14,-0.226,0.02,-0.005
30.15,-0.229,0.018,0.001
30.16,-0.227,0.019,0.008
30.17,-0.229,0.014,0.004
30.18,-0.228,0.011,0.007
30.19,-0.228,0.016,-0.006
30.2,-0.232,0.02,-0.007
30.21,-0.228,0.02,0.004
30.22,-0.227,0.008,-0.002
30.23,-0.23,0.021,-0.0
30.24,-0.231,0.019,-0.002
30.25,-0.231,0.02,-0.001
30.26,-0.227,0.02,-0.005
30.27,-0.235,0.02,0.004
30.28,-0.236,0.015,-0.003
30.29,-0.234,0.017,0.001
30.3,-0.229,0.019,0.002
30.31,-0.23,0.018,-0.0
30.32,-0.232,0.016,-0.007
30.33,-0.235,0.016,0.004
30.34,-0.228,0.015,0.006
30.35,-0.228,0.015,-0.0
30.36,-0.23,0.018,-0.002
30.37,-0.227,0.021,0.0
30.38,-0.229,0.016,-0.005
30.39,-0.231,0.013,-0.002
30.4,-0.222,0.015,0.004
30.41,-0.225,0.02,-0.006
30.42,-0.231,0.019,-0.001
30.43,-0.224,0.009,0.002
30.44,-0.23,0.018,-0.008
30.45,-0.233,0.016,-0.001
30.46,-0.229,0.021,0.001
30.47,-0.228,0.016,-0.002
30.48,-0.231,0.018,0.001
30.49,-0.227,0.023,0.002
30.5,-0.231,0.021,-0.001
30.51,-0.234,0.013,-0.0
30.52,-0.231,0.016,0.005
30.53,-0.228,0.019,-0.002
30.54,-0.228,0.016,-0.002
30.55,-0.227,0.017,0.001
30.56,-0.231,0.015,0.005
30.57,-0.233,0.015,-0.002
30.58,-0.232,0.016,0.006
30.59,-0.226,0.017,-0.001
30.6,-0.229,0.023,-0.007
30.61,-0.231,0.018,-0.005
30.62,-0.226,0.015,0.002
30.63,-0.237,0.02,-0.003
30.64,-0.229,0.021,0.005
30.65,-0.231,0.021,-0.01
30.66,-0.231,0.012,0.003
30.67,-0.234,0.019,0.004
30.68,-0.229,0.008,0.004
30.69,-0.235,0.018,-0.008
30.7,-0.236,0.02,-0.008
30.71,-0.229,0.021,0.002
30.72,-0.23,0.017,-0.003
30.73,-0.223,0.018,-0.001
30.74,-0.229,0.016,0.002
30.75,-0.229,0.018,0.004
30.76,-0.235,0.018,-0.004
30.77,-0.235,0.016,-0.001
30.78,-0.233,0.02,0.0
30.79,-0.233,0.022,-0.005
30.8,-0.227,0.019,0.001
30.81,-0.231,0.012,-0.009
30.82,-0.235,0.014,-0.001
30.83,-0.224,0.016,0.001
30.84,-0.227,0.016,-0.001
30.85,-0.233,0.017,0.005
30.86,-0.23,0.019,-0.002
30.87,-0.233,0.021,0.003
30.88,-0.233,0.017,0.006
30.89,-0.235,0.02,-0.007
30.9,-0.23,0.016,-0.007
30.91,-0.231,0.017,-0.001
30.92,-0.225,0.013,0.008
30.93,-0.23,0.019,-0.001
30.94,-0.231,0.018,0.01
30.95,-0.23,0.02,0.001
30.96,-0.229,0.012,0.002
30.97,-0.227,0.021,-0.003
30.98,-0.229,0.021,-0.003
30.99,-0.228,0.019,0.012
31.0,-0.235,0.019,-0.004
31.01,-0.235,0.022,0.001
31.02,-0.226,0.014,-0.007
31.03,-0.234,0.019,-0.005
31.04,-0.229,0.015,0.006
31.05,-0.226,0.016,-0.0
31.06,-0.23,0.021,0.012
31.07,-0.23,0.018,-0.002
31.08,-0.232,0.013,-0.007
31.09,-0.227,0.015,0.003
31.1,-0.228,0.021,-0.005
31.11,-0.232,0.016,0.006
31.12,-0.227,0.014,0.002
31.13,-0.231,0.018,0.008
31.14,-0.228,0.014,-0.0
31.15,-0.232,0.024,-0.004
31.16,-0.228,0.015,-0.001
31.17,-0.235,0.015,0.002
31.18,-0.23,0.013,-0.003
31.19,-0.23,0.02,0.008
31.2,-0.23,0.008,0.011
31.21,-0.228,0.017,0.006
31.22,-0.231,0.014,-0.009
31.23,-0.227,0.018,-0.005
31.24,-0.229,0.018,0.005
31.25,-0.231,0.02,-0.005
31.26,-0.225,0.013,-0.001
31.27,-0.233,0.016,-0.006
31.28,-0.235,0.02,-0.002
31.29,-0.229,0.015,-0.005
31.3,-0.233,0.022,-0.001
31.31,-0.238,0.021,-0.002
31.32,-0.233,0.018,-0.008
31.33,-0.227,0.013,-0.003
31.34,-0.232,0.018,0.005
31.35,-0.232,0.019,0.003
31.36,-0.232,0.025,0.008
31.37,-0.23,0.015,-0.002
31.38,-0.228,0.017,-0.006
31.39,-0.232,0.021,0.004
31.4,-0.23,0.014,-0.003
31.41,-0.231,0.02,-0.001
31.42,-0.227,0.018,0.003
31.43,-0.225,0.02,-0.003
31.44,-0.231,0.017,0.003
31.45,-0.226,0.016,-0.002
31.46,-0.228,0.021,-0.0
31.47,-0.229,0.02,0.007
31.48,-0.229,0.015,0.002
31.49,-0.232,0.021,0.004
31.5,-0.232,0.02,0.004
31.51,-0.23,0.018,0.001
31.52,-0.231,0.02,0.005
31.53,-0.231,0.019,0.001
31.54,-0.237,0.019,0.005
31.55,-0.229,0.018,-0.001
31.56,-0.231,0.017,0.002
31.57,-0.227,0.018,-0.004
31.58,-0.229,0.018,0.0
31.59,-0.226,0.021,0.001
31.6,-0.228,0.018,0.003
31.61,-0.234,0.021,0.002
31.62,-0.228,0.02,0.008
31.63,-0.225,0.022,-0.001
31.64,-0.229,0.019,0.002
31.65,-0.231,0.02,-0.002
31.66,-0.235,0.021,-0.001
31.67,-0.227,0.016,0.006
31.68,-0.228,0.016,0.005
31.69,-0.23,0.02,-0.003
31.7,-0.227,0.013,0.003
31.71,-0.234,0.02,-0.004
31.72,-0.234,0.019,-0.006
31.73,-0.231,0.015,0.004
31.74,-0.236,0.023,-0.001
31.75,-0.224,0.016,-0.004
31.76,-0.231,0.022,0.002
31.77,-0.235,0.02,-0.003
31.78,-0.23,0.016,-0.008
31.79,-0.229,0.016,0.004
31.8,-0.228,0.019,-0.002
31.81,-0.226,0.02,-0.002
31.82,-0.226,0.023,0.006
31.83,-0.228,0.016,-0.007
31.84,-0.236,0.015,-0.001
31.85,-0.229,0.024,0.007
31.86,-0.231,0.021,-0.003
31.87,-0.228,0.019,0.004
31.88,-0.231,0.014,-0.0
31.89,-0.234,0.016,0.001
31.9,-0.228,0.018,-0.0
31.91,-0.23,0.015,0.001
31.92,-0.234,0.017,-0.003
31.93,-0.23,0.015,0.004
31.94,-0.235,0.019,0.0
31.95,-0.233,0.014,-0.001
31.96,-0.23,0.017,0.003
31.97,-0.226,0.013,0.002
31.98,-0.226,0.02,-0.002
31.99,-0.223,0.017,0.001
32.0,-0.232,0.013,0.002
32.01,-0.227,0.018,0.007
32.02,-0.234,0.017,-0.003
32.03,-0.234,0.017,-0.002
32.04,-0.237,0.026,0.006
32.05,-0.232,0.015,-0.003
32.06,-0.231,0.014,-0.002
32.07,-0.231,0.023,-0.001
32.08,-0.23,0.019,0.002
32.09,-0.227,0.023,-0.004
32.1,-0.236,0.018,-0.004
32.11,-0.23,0.013,0.006
32.12,-0.228,0.018,-0.005
32.13,-0.231,0.015,-0.006
32.14,-0.231,0.022,0.007
32.15,-0.225,0.018,-0.001
32.16,-0.224,0.015,0.004
32.17,-0.231,0.017,0.005
32.18,-0.227,0.02,-0.001
32.19,-0.23,0.021,0.006
32.2,-0.237,0.019,-0.001
32.21,-0.229,0.015,0.01
32.22,-0.227,0.018,0.002
32.23,-0.228,0.016,-0.001
32.24,-0.233,0.013,-0.005
32.25,-0.232,0.019,-0.005
32.26,-0.236,0.017,0.007
32.27,-0.226,0.017,0.006
32.28,-0.229,0.022,-0.005
32.29,-0.23,0.012,-0.002
32.3,-0.229,0.02,-0.006
32.31,-0.225,0.019,-0.004
32.32,-0.231,0.019,0.002
32.33,-0.232,0.016,-0.005
32.34,-0.228,0.017,-0.008
32.35,-0.233,0.024,-0.005
32.36,-0.228,0.017,-0.003
32.37,-0.226,0.017,-0.003
32.38,-0.231,0.019,0.007
32.39,-0.23,0.019,-0.002
32.4,-0.233,0.016,-0.003
32.41,-0.229,0.021,-0.003
32.42,-0.227,0.02,0.002
32.43,-0.231,0.012,-0.001
32.44,-0.231,0.018,-0.006
32.45,-0.228,0.016,-0.001
32.46,-0.232,0.019,-0.001
32.47,-0.229,0.013,-0.001
32.48,-0.229,0.015,0.005
32.49,-0.23,0.019,-0.004
32.5,-0.232,0.018,0.011
32.51,-0.235,0.015,-0.005
32.52,-0.236,0.015,0.014
32.53,-0.232,0.02,0.004
32.54,-0.229,0.021,0.001
32.55,-0.231,0.015,-0.003
32.56,-0.234,0.016,-0.002
32.57,-0.232,0.017,-0.004
32.58,-0.224,0.017,0.002
32.59,-0.235,0.018,-0.005
32.6,-0.223,0.015,-0.009
32.61,-0.235,0.018,-0.003
32.62,-0.232,0.021,0.005
32.63,-0.228,0.017,0.002
32.64,-0.237,0.021,-0.003
32.65,-0.23,0.02,-0.002
32.66,-0.229,0.018,-0.005
32.67,-0.233,0.014,-0.006
32.68,-0.233,0.018,0.005
32.69,-0.223,0.023,0.003
32.7,-0.228,0.019,-0.003
32.71,-0.226,0.014,0.002
32.72,-0.233,0.017,0.002
32.73,-0.233,0.024,0.01
32.74,-0.234,0.021,-0.008
32.75,-0.229,0.021,-0.002
32.76,-0.225,0.019,0.002
32.77,-0.226,0.015,-0.001
32.78,-0.223,0.019,-0.004
32.79,-0.229,0.018,-0.009
32.8,-0.232,0.018,-0.004
32.81,-0.236,0.022,0.001
32.82,-0.229,0.021,0.008
32.83,-0.229,0.017,-0.003
32.84,-0.231,0.018,-0.006
32.85,-0.236,0.021,-0.004
32.86,-0.228,0.018,0.006
32.87,-0.233,0.017,-0.002
32.88,-0.231,0.02,-0.004
32.89,-0.23,0.015,-0.005
32.9,-0.231,0.022,-0.01
32.91,-0.229,0.019,-0.002
32.92,-0.236,0.016,0.002
32.93,-0.232,0.021,0.003
32.94,-0.233,0.016,-0.007
32.95,-0.229,0.015,-0.001
32.96,-0.233,0.018,0.003
32.97,-0.229,0.018,0.006
32.98,-0.225,0.021,0.003
32.99,-0.226,0.019,0.0
33.0,-0.236,0.016,0.001
33.01,-0.231,0.015,0.005
33.02,-0.224,0.016,-0.001
33.03,-0.232,0.021,0.002
33.04,-0.226,0.018,0.003
33.05,-0.232,0.017,0.001
33.06,-0.23,0.018,-0.005
33.07,-0.226,0.018,-0.003
33.08,-0.223,0.018,0.002
33.09,-0.233,0.018,0.001
33.1,-0.229,0.02,-0.002
33.11,-0.225,0.022,0.003
33.12,-0.23,0.019,0.007
33.13,-0.231,0.016,-0.001
33.14,-0.229,0.017,-0.002
33.15,-0.23,0.023,0.008
33.16,-0.231,0.02,-0.001
33.17,-0.227,0.019,0.004
33.18,-0.229,0.016,0.002
33.19,-0.231,0.02,0.003
33.2,-0.227,0.019,0.006
33.21,-0.239,0.015,-0.004
33.22,-0.232,0.013,0.005
33.23,-0.235,0.019,0.003
33.24,-0.231,0.021,-0.001
33.25,-0.233,0.016,-0.005
33.26,-0.231,0.023,0.006
33.27,-0.228,0.018,0.0
33.28,-0.231,0.023,0.001
33.29,-0.232,0.021,-0.004
33.3,-0.234,0.021,-0.003
33.31,-0.234,0.017,-0.006
33.32,-0.233,0.019,-0.002
33.33,-0.231,0.022,0.0
33.34,-0.232,0.014,0.003
33.35,-0.236,0.015,0.001
33.36,-0.228,0.013,-0.0
33.37,-0.231,0.015,-0.002
33.38,-0.228,0.02,-0.005
33.39,-0.226,0.018,-0.004
33.4,-0.231,0.016,-0.004
33.41,-0.229,0.016,0.005
33.42,-0.225,0.019,-0.003
33.43,-0.231,0.021,-0.002
33.44,-0.233,0.016,0.004
33.45,-0.231,0.017,0.002
33.46,-0.23,0.018,-0.006
33.47,-0.227,0.018,0.004
33.48,-0.228,0.025,-0.005
33.49,-0.235,0.016,-0.002
33.5,-0.236,0.02,0.002
33.51,-0.223,0.019,-0.003
33.52,-0.232,0.013,-0.002
33.53,-0.23,0.023,-0.004
33.54,-0.229,0.017,0.003
33.55,-0.228,0.021,-0.003
33.56,-0.232,0.021,-0.004
33.57,-0.231,0.019,-0.001
33.58,-0.23,0.02,0.002
33.59,-0.225,0.02,-0.005
33.6,-0.231,0.018,-0.002
33.61,-0.223,0.018,-0.001
33.62,-0.23,0.016,0.001
33.63,-0.231,0.017,0.002
33.64,-0.229,0.017,0.003
33.65,-0.23,0.022,-0.002
33.66,-0.227,0.018,-0.004
33.67,-0.232,0.021,-0.003
33.68,-0.229,0.016,0.004
33.69,-0.23,0.023,-0.002
33.7,-0.229,0.016,0.0
33.71,-0.235,0.022,-0.008
33.72,-0.23,0.018,-0.003
33.73,-0.236,0.019,0.004
33.74,-0.233,0.019,-0.001
33.75,-0.233,0.016,-0.001
33.76,-0.235,0.019,0.006
33.77,-0.228,0.02,0.006
33.78,-0.23,0.019,0.013
33.79,-0.231,0.017,0.001
33.8,-0.231,0.015,0.005
33.81,-0.233,0.021,-0.002
33.82,-0.232,0.02,0.003
33.83,-0.235,0.019,-0.003
33.84,-0.23,0.016,-0.001
33.85,-0.228,0.021,0.001
33.86,-0.229,0.022,0.003
33.87,-0.222,0.013,-0.0
33.88,-0.232,0.015,0.003
33.89,-0.226,0.017,-0.0
33.9,-0.234,0.019,0.003
33.91,-0.232,0.019,-0.0
33.92,-0.236,0.019,-0.004
33.93,-0.235,0.019,-0.001
33.94,-0.231,0.02,-0.002
33.95,-0.229,0.021,-0.003
33.96,-0.231,0.011,0.006
33.97,-0.229,0.019,-0.006
33.98,-0.229,0.017,0.0
33.99,-0.233,0.011,0.008
34.0,-0.227,0.018,-0.003
34.01,-0.229,0.019,-0.002
34.02,-0.228,0.021,0.001
34.03,-0.239,0.015,0.004
34.04,-0.237,0.019,0.004
34.05,-0.234,0.019,0.002
34.06,-0.229,0.02,0.003
34.07,-0.234,0.016,0.005
34.08,-0.234,0.02,-0.004
34.09,-0.223,0.014,-0.001
34.1,-0.234,0.021,0.008
34.11,-0.23,0.024,0.003
34.12,-0.228,0.015,-0.001
34.13,-0.231,0.019,-0.002
34.14,-0.227,0.014,0.007
34.15,-0.225,0.016,0.002
34.16,-0.23,0.017,0.001
34.17,-0.226,0.018,0.001
34.18,-0.233,0.015,0.005
34.19,-0.229,0.017,-0.003
34.2,-0.234,0.022,-0.009
34.21,-0.226,0.017,0.007
34.22,-0.232,0.02,-0.001
34.23,-0.232,0.019,-0.005
34.24,-0.227,0.019,0.005
34.25,-0.232,0.018,0.002
34.26,-0.231,0.013,-0.006
34.27,-0.23,0.02,-0.008
34.28,-0.229,0.018,0.001
34.29,-0.229,0.018,-0.003
34.3,-0.23,0.014,-0.004
34.31,-0.23,0.016,-0.003
34.32,-0.229,0.022,0.005
34.33,-0.229,0.017,0.001
34.34,-0.228,0.019,-0.002
34.35,-0.229,0.023,-0.008
34.36,-0.23,0.017,-0.009
34.37,-0.231,0.021,-0.005
34.38,-0.229,0.019,0.003
34.39,-0.231,0.01,0.001
34.4,-0.231,0.017,0.003
34.41,-0.23,0.012,0.003
34.42,-0.233,0.02,0.002
34.43,-0.233,0.018,0.003
34.44,-0.23,0.017,0.001
34.45,-0.23,0.018,-0.005
34.46,-0.233,0.015,0.005
34.47,-0.23,0.015,0.006
34.48,-0.231,0.018,-0.008
34.49,-0.23,0.021,0.002
34.5,-0.229,0.02,-0.008
34.51,-0.231,0.018,-0.004
34.52,-0.222,0.021,0.001
34.53,-0.232,0.019,0.003
34.54,-0.228,0.023,0.001
34.55,-0.228,0.019,-0.009
34.56,-0.23,0.015,-0.009
34.57,-0.232,0.014,-0.006
34.58,-0.229,0.018,0.003
34.59,-0.232,0.018,0.002
34.6,-0.233,0.021,-0.004
34.61,-0.232,0.021,0.007
34.62,-0.227,0.019,-0.006
34.63,-0.228,0.012,0.008
34.64,-0.232,0.02,0.005
34.65,-0.228,0.013,0.01
34.66,-0.233,0.018,0.001
34.67,-0.23,0.021,-0.004
34.68,-0.23,0.018,-0.001
34.69,-0.233,0.02,0.0
34.7,-0.231,0.022,0.002
34.71,-0.223,0.02,0.005
34.72,-0.229,0.021,0.0
34.73,-0.229,0.017,-0.001
34.74,-0.224,0.019,0.001
34.75,-0.232,0.019,0.002
34.76,-0.236,0.017,0.001
34.77,-0.229,0.023,0.002
34.78,-0.232,0.017,-0.009
34.79,-0.225,0.023,-0.006
34.8,-0.233,0.017,-0.002
34.81,-0.234,0.02,-0.005
34.82,-0.23,0.017,-0.008
34.83,-0.231,0.014,-0.005
34.84,-0.229,0.016,0.004
34.85,-0.231,0.021,-0.005
34.86,-0.225,0.014,0.009
34.87,-0.233,0.018,0.003
34.88,-0.23,0.016,-0.004
34.89,-0.23,0.018,0.0
34.9,-0.226,0.02,-0.003
34.91,-0.234,0.018,-0.001
34.92,-0.229,0.018,0.003
34.93,-0.231,0.02,0.001
34.94,-0.23,0.016,0.002
34.95,-0.23,0.017,0.002
34.96,-0.231,0.021,-0.005
34.97,-0.232,0.017,-0.001
34.98,-0.234,0.019,0.004
34.99,-0.226,0.014,-0.001
35.0,-0.234,0.024,-0.002
35.01,-0.23,0.017,-0.005
35.02,-0.228,0.014,0.002
35.03,-0.233,0.021,-0.004
35.04,-0.229,0.021,-0.004
35.05,-0.232,0.015,-0.0
35.06,-0.23,0.024,-0.005
35.07,-0.232,0.019,0.0
35.08,-0.231,0.023,0.004
35.09,-0.23,0.019,0.002
35.1,-0.23,0.018,0.007
35.11,-0.232,0.021,-0.006
35.12,-0.237,0.017,-0.005
35.13,-0.227,0.019,0.003
35.14,-0.228,0.017,0.005
35.15,-0.228,0.02,-0.004
35.16,-0.231,0.022,0.005
35.17,-0.224,0.018,-0.003
35.18,-0.228,0.021,0.009
35.19,-0.231,0.015,0.001
35.2,-0.235,0.016,-0.001
35.21,-0.234,0.016,0.005
35.22,-0.228,0.02,-0.004
35.23,-0.231,0.013,-0.006
35.24,-0.229,0.019,-0.003
35.25,-0.226,0.016,-0.002
35.26,-0.231,0.021,-0.005
35.27,-0.231,0.021,0.004
35.28,-0.227,0.017,-0.0
35.29,-0.231,0.021,-0.007
35.3,-0.232,0.022,0.001
35.31,-0.232,0.014,-0.01
35.32,-0.233,0.018,0.007
35.33,-0.224,0.023,-0.005
35.34,-0.229,0.02,0.001
35.35,-0.231,0.023,0.002
35.36,-0.23,0.021,-0.002
35.37,-0.236,0.022,0.002
35.38,-0.23,0.018,0.003
35.39,-0.232,0.02,0.001
35.4,-0.221,0.019,0.0
35.41,-0.226,0.018,-0.0
35.42,-0.228,0.017,0.002
35.43,-0.236,0.017,-0.004
35.44,-0.231,0.017,0.009
35.45,-0.229,0.017,-0.004
35.46,-0.232,0.018,0.001
35.47,-0.232,0.02,0.002
35.48,-0.229,0.017,-0.007
35.49,-0.224,0.025,0.001
35.5,-0.233,0.021,-0.006
35.51,-0.235,0.018,0.006
35.52,-0.23,0.015,0.008
35.53,-0.237,0.015,0.002
35.54,-0.229,0.017,0.003
35.55,-0.23,0.02,-0.003
35.56,-0.224,0.021,-0.001
35.57,-0.232,0.016,0.005
35.58,-0.226,0.015,-0.007
35.59,-0.226,0.018,0.002
35.6,-0.225,0.024,-0.005
35.61,-0.229,0.02,0.008
35.62,-0.226,0.019,0.01
35.63,-0.23,0.013,0.005
35.64,-0.228,0.015,0.002
35.65,-0.231,0.021,0.006
35.66,-0.23,0.021,-0.001
35.67,-0.231,0.019,-0.004
35.68,-0.23,0.015,-0.002
35.69,-0.232,0.015,0.0
35.7,-0.233,0.022,0.005
35.71,-0.233,0.018,-0.002
35.72,-0.231,0.016,0.001
35.73,-0.236,0.022,-0.008
35.74,-0.233,0.02,0.004
35.75,-0.233,0.018,-0.0
35.76,-0.23,0.018,-0.005
35.77,-0.235,0.022,0.006
35.78,-0.228,0.018,-0.001
35.79,-0.231,0.016,-0.002
35.8,-0.238,0.013,0.008
35.81,-0.232,0.019,-0.003
35.82,-0.235,0.018,0.004
35.83,-0.235,0.02,0.007
35.84,-0.23,0.02,-0.004
35.85,-0.231,0.023,0.003
35.86,-0.234,0.012,-0.0
35.87,-0.228,0.02,0.002
35.88,-0.236,0.017,-0.005
35.89,-0.233,0.021,-0.003
35.9,-0.233,0.018,0.004
35.91,-0.236,0.017,0.001
35.92,-0.229,0.015,0.001
35.93,-0.232,0.023,-0.009
35.94,-0.232,0.016,0.007
35.95,-0.226,0.019,0.011
35.96,-0.226,0.021,0.004
35.97,-0.231,0.018,-0.001
35.98,-0.23,0.018,0.0
35.99,-0.232,0.016,-0.003
36.0,-0.225,0.018,-0.006
36.01,-0.234,0.024,-0.007
36.02,-0.229,0.023,-0.002
36.03,-0.23,0.017,-0.0
36.04,-0.229,0.012,-0.004
36.05,-0.235,0.023,-0.005
36.06,-0.225,0.017,0.002
36.07,-0.231,0.014,0.007
36.08,-0.229,0.016,-0.003
36.09,-0.229,0.02,-0.003
36.1,-0.232,0.017,-0.002
36.11,-0.229,0.02,0.001
36.12,-0.228,0.024,0.003
36.13,-0.229,0.015,0.004
36.14,-0.239,0.018,-0.002
36.15,-0.236,0.016,-0.004
36.16,-0.231,0.017,0.004
36.17,-0.229,0.023,0.003
36.18,-0.229,0.016,0.004
36.19,-0.231,0.013,0.002
36.2,-0.232,0.015,-0.01
36.21,-0.231,0.017,0.01
36.22,-0.233,0.012,0.005
36.23,-0.227,0.014,0.0
36.24,-0.229,0.012,-0.003
36.25,-0.23,0.024,0.002
36.26,-0.231,0.016,0.007
36.27,-0.235,0.014,-0.005
36.28,-0.233,0.018,0.003
36.29,-0.231,0.023,0.001
36.3,-0.229,0.02,0.011
36.31,-0.233,0.018,-0.001
36.32,-0.238,0.017,-0.008
36.33,-0.233,0.021,-0.003
36.34,-0.234,0.018,-0.001
36.35,-0.237,0.021,0.003
36.36,-0.229,0.02,0.002
36.37,-0.232,0.017,-0.005
36.38,-0.232,0.021,0.004
36.39,-0.23,0.021,-0.003
36.4,-0.231,0.019,0.004
36.41,-0.238,0.021,-0.002
36.42,-0.231,0.015,-0.001
36.43,-0.234,0.015,0.007
36.44,-0.23,0.021,0.001
36.45,-0.225,0.024,-0.009
36.46,-0.233,0.021,-0.004
36.47,-0.236,0.018,0.001
36.48,-0.235,0.018,-0.004
36.49,-0.232,0.015,-0.002
36.5,-0.228,0.018,-0.007
36.51,-0.232,0.019,0.0
36.52,-0.228,0.011,-0.003
36.53,-0.236,0.017,0.007
36.54,-0.227,0.021,-0.002
36.55,-0.228,0.018,0.0
36.56,-0.233,0.016,0.004
36.57,-0.223,0.022,0.009
36.58,-0.229,0.018,-0.001
36.59,-0.232,0.016,-0.001
36.6,-0.231,0.02,0.001
36.61,-0.228,0.01,0.001
36.62,-0.229,0.019,0.002
36.63,-0.234,0.016,-0.005
36.64,-0.228,0.012,-0.004
36.65,-0.233,0.021,0.0
36.66,-0.23,0.018,0.006
36.67,-0.232,0.018,-0.012
36.68,-0.226,0.019,-0.001
36.69,-0.227,0.023,0.003
36.7,-0.234,0.015,-0.001
36.71,-0.229,0.019,-0.0
36.72,-0.232,0.018,-0.005
36.73,-0.228,0.021,0.008
36.74,-0.23,0.015,0.014
36.75,-0.235,0.025,-0.002
36.76,-0.234,0.018,0.002
36.77,-0.233,0.019,-0.001
36.78,-0.235,0.016,-0.009
36.79,-0.234,0.018,-0.002
36.8,-0.234,0.017,-0.001
36.81,-0.226,0.016,-0.003
36.82,-0.23,0.017,-0.004
36.83,-0.226,0.017,-0.0
36.84,-0.231,0.017,-0.005
36.85,-0.23,0.016,-0.002
36.86,-0.23,0.023,-0.0
36.87,-0.231,0.017,-0.001
36.88,-0.23,0.016,0.006
36.89,-0.238,0.017,0.002
36.9,-0.231,0.023,-0.002
36.91,-0.233,0.015,0.001
36.92,-0.232,0.016,-0.002
36.93,-0.231,0.017,0.003
36.94,-0.232,0.013,-0.005
36.95,-0.227,0.016,-0.002
36.96,-0.232,0.021,0.003
36.97,-0.23,0.017,0.009
36.98,-0.232,0.019,-0.004
36.99,-0.234,0.018,0.014
37.0,-0.23,0.024,0.005
37.01,-0.231,0.019,0.006
37.02,-0.228,0.017,-0.002
37.03,-0.227,0.02,-0.002
37.04,-0.234,0.017,0.005
37.05,-0.235,0.014,-0.002
37.06,-0.227,0.022,0.006
37.07,-0.229,0.017,0.009
37.08,-0.229,0.014,0.004
37.09,-0.226,0.018,0.007
37.1,-0.235,0.018,-0.005
37.11,-0.232,0.017,-0.003
37.12,-0.229,0.022,-0.003
37.13,-0.233,0.016,0.007
37.14,-0.227,0.017,-0.007
37.15,-0.229,0.015,0.009
37.16,-0.226,0.017,-0.003
37.17,-0.233,0.017,0.015
37.18,-0.229,0.017,-0.003
37.19,-0.227,0.02,-0.003
37.2,-0.23,0.016,-0.001
37.21,-0.228,0.019,0.005
37.22,-0.229,0.016,-0.002
37.23,-0.235,0.023,-0.006
37.24,-0.231,0.021,-0.007
37.25,-0.235,0.018,0.004
37.26,-0.231,0.019,-0.007
37.27,-0.227,0.018,0.001
37.28,-0.236,0.017,-0.003
37.29,-0.23,0.016,-0.004
37.3,-0.23,0.015,0.001
37.31,-0.23,0.023,0.002
37.32,-0.232,0.017,0.0
37.33,-0.229,0.013,-0.009
37.34,-0.23,0.021,0.0
37.35,-0.23,0.013,-0.006
37.36,-0.227,0.017,0.008
37.37,-0.236,0.011,0.002
37.38,-0.234,0.018,0.002
37.39,-0.229,0.018,0.004
37.4,-0.221,0.015,-0.005
37.41,-0.228,0.02,0.002
37.42,-0.23,0.017,-0.005
37.43,-0.231,0.014,-0.008
37.44,-0.23,0.02,0.004
37.45,-0.232,0.021,-0.001
37.46,-0.232,0.012,-0.004
37.47,-0.231,0.014,0.0
37.48,-0.225,0.018,0.002
37.49,-0.231,0.017,0.002
37.5,-0.23,0.018,-0.01
37.51,-0.231,0.011,-0.002
37.52,-0.229,0.019,0.005
37.53,-0.23,0.019,-0.007
37.54,-0.228,0.023,-0.001
37.55,-0.225,0.024,0.008
37.56,-0.232,0.023,-0.011
37.57,-0.233,0.016,-0.005
37.58,-0.231,0.008,0.005
37.59,-0.23,0.017,-0.002
37.6,-0.232,0.02,-0.003
37.61,-0.228,0.021,-0.002
37.62,-0.231,0.022,-0.007
37.63,-0.231,0.015,0.006
37.64,-0.227,0.015,0.006
37.65,-0.229,0.019,-0.005
37.66,-0.231,0.011,-0.002
37.67,-0.229,0.015,0.004
37.68,-0.227,0.016,0.004
37.69,-0.232,0.017,0.001
37.7,-0.24,0.018,-0.002
37.71,-0.228,0.018,0.004
37.72,-0.227,0.019,0.002
37.73,-0.231,0.022,0.004
37.74,-0.233,0.013,0.005
37.75,-0.228,0.018,-0.009
37.76,-0.222,0.015,0.002
37.77,-0.232,0.013,0.005
37.78,-0.231,0.019,-0.011
37.79,-0.239,0.014,0.003
37.8,-0.23,0.019,0.005
37.81,-0.227,0.016,0.003
37.82,-0.23,0.014,0.005
37.83,-0.233,0.021,-0.002
37.84,-0.23,0.016,-0.003
37.85,-0.233,0.016,0.004
37.86,-0.228,0.023,-0.008
37.87,-0.232,0.014,-0.007
37.88,-0.225,0.012,-0.005
37.89,-0.229,0.018,-0.008
37.9,-0.225,0.014,-0.006
37.91,-0.229,0.021,0.001
37.92,-0.232,0.018,-0.008
37.93,-0.231,0.015,0.001
37.94,-0.231,0.011,-0.006
37.95,-0.227,0.019,-0.0
37.96,-0.229,0.026,-0.002
37.97,-0.234,0.02,0.005
37.98,-0.235,0.017,-0.005
37.99,-0.234,0.019,-0.002
38.0,-0.232,0.018,0.008
38.01,-0.23,0.019,0.002
38.02,-0.229,0.021,0.002
38.03,-0.235,0.017,-0.001
38.04,-0.233,0.019,0.009
38.05,-0.232,0.025,-0.001
38.06,-0.224,0.016,-0.008
38.07,-0.235,0.014,0.004
38.08,-0.23,0.016,-0.004
38.09,-0.234,0.014,-0.005
38.1,-0.235,0.02,0.003
38.11,-0.23,0.015,0.001
38.12,-0.235,0.022,0.0
38.13,-0.228,0.016,0.003
38.14,-0.233,0.018,0.0
38.15,-0.23,0.021,-0.001
38.16,-0.237,0.018,-0.003
38.17,-0.235,0.02,0.0
38.18,-0.229,0.01,0.004
38.19,-0.233,0.021,0.003
38.2,-0.232,0.02,-0.003
38.21,-0.227,0.02,-0.011
38.22,-0.228,0.017,-0.003
38.23,-0.227,0.015,-0.005
38.24,-0.233,0.016,-0.008
38.25,-0.226,0.017,-0.003
38.26,-0.231,0.019,0.008
38.27,-0.225,0.015,-0.001
38.28,-0.232,0.02,0.005
38.29,-0.229,0.019,0.009
38.3,-0.228,0.019,-0.003
38.31,-0.228,0.018,0.004
38.32,-0.231,0.014,0.003
38.33,-0.233,0.02,0.003
38.34,-0.237,0.018,0.0
38.35,-0.227,0.014,-0.001
38.36,-0.232,0.019,0.003
38.37,-0.235,0.013,-0.004
38.38,-0.23,0.017,0.003
38.39,-0.233,0.015,-0.002
38.4,-0.225,0.013,0.005
38.41,-0.233,0.019,-0.0
38.42,-0.231,0.014,0.005
38.43,-0.233,0.017,-0.004
38.44,-0.228,0.013,-0.003
38.45,-0.236,0.016,-0.003
38.46,-0.229,0.023,0.005
38.47,-0.237,0.018,-0.006
38.48,-0.23,0.017,-0.013
38.49,-0.233,0.022,-0.006
38.5,-0.229,0.017,0.005
38.51,-0.229,0.015,0.001
38.52,-0.23,0.02,-0.002
38.53,-0.234,0.013,0.005
38.54,-0.234,0.016,-0.004
38.55,-0.236,0.017,0.001
38.56,-0.227,0.019,0.004
38.57,-0.227,0.018,0.011
38.58,-0.234,0.017,0.008
38.59,-0.225,0.019,0.002
38.6,-0.227,0.02,-0.002
38.61,-0.233,0.014,0.003
38.62,-0.232,0.017,-0.008
38.63,-0.229,0.017,0.001
38.64,-0.238,0.017,-0.01
38.65,-0.229,0.021,0.01
38.66,-0.227,0.024,0.008
38.67,-0.23,0.019,0.001
38.68,-0.236,0.023,0.002
38.69,-0.224,0.021,0.0
38.7,-0.23,0.021,-0.001
38.71,-0.233,0.017,-0.006
38.72,-0.236,0.018,-0.006
38.73,-0.224,0.019,-0.001
38.74,-0.232,0.017,0.003
38.75,-0.226,0.015,0.007
38.76,-0.232,0.02,-0.005
38.77,-0.237,0.012,-0.001
38.78,-0.231,0.018,0.0
38.79,-0.23,0.015,-0.001
38.8,-0.23,0.014,0.0
38.81,-0.232,0.022,0.002
38.82,-0.236,0.017,-0.001
38.83,-0.224,0.017,0.006
38.84,-0.228,0.02,-0.003
38.85,-0.237,0.018,0.007
38.86,-0.228,0.021,-0.0
38.87,-0.231,0.015,0.001
38.88,-0.227,0.016,-0.003
38.89,-0.231,0.013,-0.001
38.9,-0.23,0.013,-0.001
38.91,-0.23,0.012,-0.004
38.92,-0.23,0.015,-0.002
38.93,-0.225,0.022,-0.005
38.94,-0.227,0.021,0.004
38.95,-0.228,0.022,-0.007
38.96,-0.227,0.014,-0.005
38.97,-0.233,0.016,-0.005
38.98,-0.234,0.014,0.001
38.99,-0.232,0.017,0.005
39.0,-0.24,0.022,-0.001
39.01,-0.236,0.018,0.0
39.02,-0.227,0.019,0.002
39.03,-0.229,0.017,-0.004
39.04,-0.228,0.015,-0.009
39.05,-0.231,0.015,-0.002
39.06,-0.232,0.019,-0.001
39.07,-0.232,0.01,-0.002
39.08,-0.234,0.022,-0.001
39.09,-0.233,0.014,-0.004
39.1,-0.231,0.019,-0.0
39.11,-0.236,0.012,0.004
39.12,-0.231,0.016,0.004
39.13,-0.233,0.015,-0.001
39.14,-0.232,0.014,-0.011
39.15,-0.239,0.017,0.001
39.16,-0.231,0.022,-0.003
39.17,-0.229,0.019,0.005
39.18,-0.229,0.019,-0.003
39.19,-0.232,0.011,0.004
39.2,-0.231,0.016,0.007
39.21,-0.232,0.015,-0.004
39.22,-0.228,0.013,-0.004
39.23,-0.231,0.018,-0.003
39.24,-0.233,0.024,-0.005
39.25,-0.237,0.024,0.001
39.26,-0.225,0.021,-0.007
39.27,-0.231,0.023,0.003
39.28,-0.229,0.013,-0.0
39.29,-0.233,0.018,-0.0
39.3,-0.228,0.014,0.008
39.31,-0.231,0.018,-0.003
39.32,-0.232,0.017,-0.004
39.33,-0.232,0.016,0.0
39.34,-0.231,0.017,-0.003
39.35,-0.237,0.021,0.0
39.36,-0.236,0.016,0.012
39.37,-0.228,0.016,0.002
39.38,-0.231,0.015,0.002
39.39,-0.226,0.018,-0.0
39.4,-0.232,0.017,0.005
39.41,-0.233,0.018,-0.007
39.42,-0.229,0.019,-0.007
39.43,-0.228,0.02,0.0
39.44,-0.231,0.017,0.001
39.45,-0.232,0.02,0.011
39.46,-0.234,0.021,-0.001
39.47,-0.235,0.02,0.002
39.48,-0.233,0.01,0.006
39.49,-0.231,0.016,0.002
39.5,-0.226,0.014,0.003
39.51,-0.233,0.018,-0.004
39.52,-0.229,0.015,-0.005
39.53,-0.235,0.017,-0.0
39.54,-0.228,0.018,-0.004
39.55,-0.233,0.02,0.002
39.56,-0.233,0.016,-0.006
39.57,-0.231,0.022,-0.002
39.58,-0.227,0.016,0.009
39.59,-0.226,0.013,-0.002
39.6,-0.233,0.021,-0.007
39.61,-0.234,0.026,-0.004
39.62,-0.237,0.018,0.002
39.63,-0.225,0.019,0.001
39.64,-0.232,0.017,-0.0
39.65,-0.231,0.02,0.001
39.66,-0.228,0.02,-0.005
39.67,-0.229,0.022,0.001
39.68,-0.233,0.019,0.005
39.69,-0.23,0.022,-0.0
39.7,-0.23,0.011,-0.01
39.71,-0.229,0.012,0.002
39.72,-0.237,0.019,0.002
39.73,-0.235,0.015,-0.002
39.74,-0.233,0.015,-0.006
39.75,-0.229,0.02,-0.002
39.76,-0.232,0.024,0.001
39.77,-0.235,0.018,0.006
39.78,-0.229,0.018,-0.002
39.79,-0.222,0.017,0.006
39.8,-0.231,0.022,0.005
39.81,-0.228,0.018,0.011
39.82,-0.229,0.016,0.014
39.83,-0.224,0.019,-0.003
39.84,-0.226,0.021,0.002
39.85,-0.234,0.016,-0.0
39.86,-0.23,0.019,0.004
39.87,-0.23,0.019,-0.0
39.88,-0.236,0.02,-0.009
39.89,-0.234,0.018,-0.001
39.9,-0.229,0.018,0.002
39.91,-0.227,0.017,-0.007
39.92,-0.229,0.018,-0.007
39.93,-0.227,0.019,0.003
39.94,-0.229,0.021,-0.009
39.95,-0.23,0.019,0.007
39.96,-0.236,0.015,0.008
39.97,-0.223,0.014,0.005
39.98,-0.231,0.017,0.01
39.99,-0.227,0.024,-0.005
40.0,-0.233,0.016,0.003
40.01,-0.236,0.019,-0.004
40.02,-0.23,0.009,0.001
40.03,-0.229,0.02,0.001
40.04,-0.23,0.021,0.006
40.05,-0.231,0.014,0.007
40.06,-0.233,0.016,0.003
40.07,-0.231,0.011,0.006
40.08,-0.232,0.019,0.007
40.09,-0.228,0.022,-0.001
40.1,-0.229,0.015,-0.005
40.11,-0.23,0.015,-0.001
40.12,-0.228,0.021,-0.005
40.13,-0.233,0.02,0.009
40.14,-0.233,0.016,0.003
40.15,-0.229,0.014,0.006
40.16,-0.229,0.014,0.007
40.17,-0.225,0.023,0.002
40.18,-0.23,0.023,0.004
40.19,-0.232,0.021,-0.01
40.2,-0.23,0.018,0.003
40.21,-0.234,0.015,-0.006
40.22,-0.227,0.02,-0.003
40.23,-0.23,0.017,-0.002
40.24,-0.229,0.017,-0.001
40.25,-0.23,0.024,-0.005
40.26,-0.231,0.018,-0.006
40.27,-0.232,0.017,-0.007
40.28,-0.232,0.02,-0.0
40.29,-0.23,0.018,0.002
40.3,-0.227,0.019,-0.001
40.31,-0.233,0.02,-0.0
40.32,-0.229,0.018,0.005
40.33,-0.235,0.017,0.006
40.34,-0.233,0.01,-0.008
40.35,-0.229,0.025,-0.001
40.36,-0.233,0.015,0.0
40.37,-0.23,0.014,-0.002
40.38,-0.233,0.02,0.001
40.39,-0.238,0.017,0.005
40.4,-0.235,0.018,-0.002
40.41,-0.234,0.014,-0.001
40.42,-0.231,0.016,0.006
40.43,-0.229,0.018,0.008
40.44,-0.23,0.023,0.007
40.45,-0.232,0.017,0.005
40.46,-0.227,0.019,0.003
40.47,-0.23,0.019,0.005
40.48,-0.228,0.02,0.001
40.49,-0.234,0.022,-0.0
40.5,-0.231,0.024,0.0
40.51,-0.23,0.019,0.002
40.52,-0.229,0.019,-0.0
40.53,-0.233,0.022,-0.001
40.54,-0.227,0.016,-0.003
40.55,-0.226,0.021,0.007
40.56,-0.231,0.021,0.006
40.57,-0.23,0.019,-0.005
40.58,-0.23,0.019,0.003
40.59,-0.227,0.018,0.005
40.6,-0.224,0.015,-0.001
40.61,-0.231,0.022,-0.003
40.62,-0.231,0.018,-0.002
40.63,-0.233,0.017,0.006
40.64,-0.235,0.018,-0.009
40.65,-0.229,0.02,0.002
40.66,-0.231,0.018,-0.004
40.67,-0.231,0.019,0.004
40.68,-0.227,0.016,-0.0
40.69,-0.231,0.019,-0.002
40.7,-0.23,0.013,0.003
40.71,-0.234,0.02,0.002
40.72,-0.228,0.014,0.004
40.73,-0.231,0.023,-0.005
40.74,-0.235,0.019,-0.002
40.75,-0.231,0.02,0.005
40.76,-0.231,0.018,-0.0
40.77,-0.23,0.018,-0.004
40.78,-0.229,0.013,-0.001
40.79,-0.231,0.017,-0.003
40.8,-0.232,0.025,-0.002
40.81,-0.235,0.017,-0.002
40.82,-0.229,0.016,-0.017
40.83,-0.233,0.018,-0.002
40.84,-0.222,0.021,0.003
40.85,-0.226,0.024,0.002
40.86,-0.228,0.015,-0.007
40.87,-0.232,0.013,0.006
40.88,-0.232,0.021,0.002
40.89,-0.234,0.017,-0.004
40.9,-0.231,0.016,-0.0
40.91,-0.235,0.022,0.004
40.92,-0.234,0.015,0.008
40.93,-0.229,0.018,-0.0
40.94,-0.226,0.012,0.002
40.95,-0.234,0.02,-0.001
40.96,-0.239,0.016,0.007
40.97,-0.229,0.022,-0.002
40.98,-0.226,0.024,0.005
40.99,-0.235,0.019,0.005
41.0,-0.229,0.015,-0.01
41.01,-0.232,0.018,0.006
41.02,-0.229,0.02,-0.003
41.03,-0.235,0.017,0.009
41.04,-0.228,0.019,-0.002
41.05,-0.228,0.015,-0.003
41.06,-0.229,0.019,0.011
41.07,-0.227,0.018,0.006
41.08,-0.23,0.019,0.004
41.09,-0.235,0.019,-0.002
41.1,-0.232,0.02,-0.002
41.11,-0.23,0.018,-0.002
41.12,-0.233,0.023,-0.001
41.13,-0.234,0.017,-0.014
41.14,-0.228,0.017,0.004
41.15,-0.235,0.018,0.002
41.16,-0.229,0.018,0.001
41.17,-0.236,0.019,0.001
41.18,-0.229,0.016,0.011
41.19,-0.232,0.016,-0.005
41.2,-0.229,0.018,-0.0
41.21,-0.229,0.025,0.004
41.22,-0.23,0.021,-0.003
41.23,-0.229,0.016,-0.006
41.24,-0.227,0.022,-0.006
41.25,-0.232,0.014,-0.01
41.26,-0.234,0.019,-0.005
41.27,-0.229,0.013,-0.001
41.28,-0.231,0.015,-0.003
41.29,-0.23,0.02,-0.006
41.3,-0.235,0.022,-0.004
41.31,-0.229,0.024,-0.002
41.32,-0.23,0.009,-0.0
41.33,-0.23,0.019,0.004
41.34,-0.232,0.02,-0.008
41.35,-0.234,0.021,0.0
41.36,-0.232,0.017,0.006
41.37,-0.232,0.018,-0.005
41.38,-0.226,0.015,-0.0
41.39,-0.228,0.015,0.004
41.4,-0.231,0.013,-0.005
41.41,-0.23,0.014,0.01
41.42,-0.226,0.018,-0.003
41.43,-0.239,0.018,-0.001
41.44,-0.228,0.016,0.008
41.45,-0.229,0.021,-0.009
41.46,-0.226,0.017,0.003
41.47,-0.229,0.018,-0.003
41.48,-0.234,0.014,0.002
41.49,-0.232,0.018,-0.007
41.5,-0.232,0.021,0.002
41.51,-0.23,0.016,0.001
41.52,-0.231,0.018,-0.007
41.53,-0.229,0.021,0.011
41.54,-0.228,0.023,0.001
41.55,-0.225,0.016,-0.001
41.56,-0.232,0.019,0.005
41.57,-0.232,0.019,0.0
41.58,-0.231,0.014,-0.002
41.59,-0.238,0.016,-0.0
41.6,-0.225,0.013,0.005
41.61,-0.23,0.013,0.001
41.62,-0.232,0.019,0.006
41.63,-0.232,0.018,-0.001
41.64,-0.231,0.021,0.002
41.65,-0.229,0.02,-0.0
41.66,-0.226,0.022,-0.008
41.67,-0.232,0.018,0.002
41.68,-0.233,0.019,-0.001
41.69,-0.229,0.015,0.002
41.7,-0.233,0.015,-0.008
41.71,-0.232,0.018,-0.005
41.72,-0.226,0.017,-0.006
41.73,-0.235,0.021,0.005
41.74,-0.23,0.019,-0.002
41.75,-0.23,0.014,-0.003
41.76,-0.238,0.016,-0.001
41.77,-0.23,0.016,0.002
41.78,-0.238,0.016,-0.0
41.79,-0.225,0.021,-0.008
41.8,-0.232,0.015,0.005
41.81,-0.231,0.018,-0.007
41.82,-0.23,0.021,0.004
41.83,-0.227,0.018,-0.004
41.84,-0.231,0.019,0.004
41.85,-0.235,0.017,-0.003
41.86,-0.234,0.019,0.006
41.87,-0.228,0.02,0.0
41.88,-0.227,0.016,0.006
41.89,-0.226,0.019,0.0
41.9,-0.23,0.017,0.001
41.91,-0.233,0.018,0.001
41.92,-0.231,0.018,0.003
41.93,-0.231,0.021,-0.003
41.94,-0.227,0.016,0.009
41.95,-0.225,0.016,0.008
41.96,-0.229,0.016,-0.004
41.97,-0.232,0.016,-0.001
41.98,-0.234,0.012,-0.005
41.99,-0.232,0.022,0.005
42.0,-0.228,0.017,0.002
42.01,-0.226,0.015,-0.001
42.02,-0.234,0.019,0.002
42.03,-0.232,0.018,0.002
42.04,-0.228,0.019,-0.004
42.05,-0.229,0.018,-0.006
42.06,-0.237,0.022,0.002
42.07,-0.233,0.02,0.002
42.08,-0.232,0.024,0.002
42.09,-0.236,0.015,-0.002
42.1,-0.226,0.021,0.0
42.11,-0.229,0.013,0.003
42.12,-0.233,0.02,-0.002
42.13,-0.231,0.018,-0.001
42.14,-0.232,0.021,-0.004
42.15,-0.234,0.019,-0.004
42.16,-0.231,0.017,0.007
42.17,-0.231,0.02,-0.002
42.18,-0.227,0.015,0.004
42.19,-0.226,0.017,-0.006
42.2,-0.231,0.019,0.003
42.21,-0.228,0.016,0.004
42.22,-0.229,0.018,-0.003
42.23,-0.231,0.017,0.005
42.24,-0.232,0.013,0.001
42.25,-0.235,0.023,0.003
42.26,-0.231,0.017,0.002
42.27,-0.228,0.017,-0.001
42.28,-0.232,0.018,-0.0
42.29,-0.224,0.021,-0.005
42.3,-0.228,0.016,0.008
42.31,-0.233,0.022,0.001
42.32,-0.234,0.021,-0.004
42.33,-0.234,0.019,0.007
42.34,-0.23,0.022,-0.002
42.35,-0.227,0.013,-0.002
42.36,-0.233,0.021,0.004
42.37,-0.234,0.021,-0.004
42.38,-0.231,0.024,-0.001
42.39,-0.229,0.022,-0.011
42.4,-0.232,0.018,0.005
42.41,-0.238,0.021,0.004
42.42,-0.227,0.02,0.0
42.43,-0.23,0.017,0.005
42.44,-0.224,0.021,0.003
42.45,-0.226,0.016,-0.003
42.46,-0.228,0.022,0.001
42.47,-0.228,0.022,0.002
42.48,-0.227,0.018,-0.004
42.49,-0.233,0.019,0.002
42.5,-0.227,0.013,0.006
42.51,-0.23,0.02,-0.008
42.52,-0.232,0.017,0.002
42.53,-0.237,0.016,-0.001
42.54,-0.234,0.018,-0.002
42.55,-0.23,0.015,-0.003
42.56,-0.227,0.019,0.002
42.57,-0.224,0.017,0.004
42.58,-0.238,0.017,0.003
42.59,-0.227,0.017,-0.002
42.6,-0.229,0.013,0.002
42.61,-0.233,0.021,0.0
42.62,-0.225,0.017,-0.005
42.63,-0.229,0.014,-0.003
42.64,-0.229,0.015,-0.001
42.65,-0.227,0.016,-0.004
42.66,-0.232,0.019,-0.008
42.67,-0.234,0.018,-0.007
42.68,-0.229,0.017,-0.001
42.69,-0.23,0.017,-0.001
42.7,-0.235,0.016,0.012
42.71,-0.228,0.018,-0.006
42.72,-0.241,0.014,0.002
42.73,-0.232,0.016,-0.001
42.74,-0.232,0.018,-0.003
42.75,-0.231,0.021,-0.002
42.76,-0.23,0.014,0.004
42.77,-0.234,0.016,0.005
42.78,-0.228,0.018,0.004
42.79,-0.234,0.02,-0.002
42.8,-0.234,0.013,0.0
42.81,-0.231,0.015,0.001
42.82,-0.231,0.016,0.001
42.83,-0.228,0.01,-0.0
42.84,-0.235,0.021,0.002
42.85,-0.23,0.017,0.011
42.86,-0.234,0.015,-0.006
42.87,-0.23,0.014,-0.001
42.88,-0.235,0.02,-0.0
42.89,-0.228,0.018,0.007
42.9,-0.228,0.02,-0.0
42.91,-0.236,0.019,0.001
42.92,-0.227,0.02,0.001
42.93,-0.233,0.014,-0.006
42.94,-0.232,0.021,0.005
42.95,-0.233,0.019,0.002
42.96,-0.233,0.016,0.006
42.97,-0.225,0.016,0.001
42.98,-0.229,0.017,-0.004
42.99,-0.231,0.016,0.004
43.0,-0.225,0.011,-0.004
43.01,-0.229,0.014,-0.007
43.02,-0.234,0.024,-0.002
43.03,-0.236,0.016,0.002
43.04,-0.232,0.02,0.003
43.05,-0.231,0.017,0.004
43.06,-0.228,0.018,-0.002
43.07,-0.233,0.022,0.005
43.08,-0.234,0.021,0.003
43.09,-0.229,0.023,0.008
43.1,-0.229,0.017,-0.001
43.11,-0.23,0.021,0.004
43.12,-0.226,0.02,-0.006
43.13,-0.232,0.017,-0.005
43.14,-0.23,0.013,-0.003
43.15,-0.235,0.017,0.001
43.16,-0.229,0.021,0.003
43.17,-0.236,0.014,0.006
43.18,-0.236,0.017,0.005
43.19,-0.234,0.02,0.007
43.2,-0.229,0.014,-0.006
43.21,-0.229,0.018,0.004
43.22,-0.226,0.019,-0.002
43.23,-0.229,0.02,0.0
43.24,-0.233,0.017,0.004
43.25,-0.227,0.019,-0.001
43.26,-0.232,0.019,0.001
43.27,-0.229,0.023,-0.001
43.28,-0.229,0.016,0.003
43.29,-0.225,0.018,-0.003
43.3,-0.229,0.02,0.002
43.31,-0.232,0.019,0.003
43.32,-0.228,0.017,0.006
43.33,-0.229,0.021,-0.001
43.34,-0.23,0.014,-0.005
43.35,-0.226,0.023,0.003
43.36,-0.231,0.02,-0.001
43.37,-0.236,0.016,0.004
43.38,-0.231,0.02,-0.003
43.39,-0.231,0.016,0.005
43.4,-0.234,0.012,0.005
43.41,-0.229,0.016,0.005
43.42,-0.234,0.022,-0.001
43.43,-0.229,0.015,0.004
43.44,-0.229,0.013,-0.001
43.45,-0.225,0.021,0.0
43.46,-0.23,0.019,-0.003
43.47,-0.236,0.023,0.004
43.48,-0.232,0.022,-0.001
43.49,-0.233,0.015,0.002
43.5,-0.225,0.021,0.007
43.51,-0.23,0.022,0.001
43.52,-0.229,0.014,-0.005
43.53,-0.228,0.022,-0.007
43.54,-0.23,0.019,0.002
43.55,-0.229,0.014,-0.005
43.56,-0.226,0.012,-0.009
43.57,-0.223,0.019,-0.002
43.58,-0.227,0.021,-0.001
43.59,-0.227,0.013,-0.007
43.6,-0.23,0.017,0.005
43.61,-0.233,0.012,-0.007
43.62,-0.232,0.019,0.004
43.63,-0.231,0.018,-0.0
43.64,-0.229,0.02,0.001
43.65,-0.231,0.016,-0.007
43.66,-0.225,0.016,-0.006
43.67,-0.231,0.011,-0.001
43.68,-0.237,0.018,-0.002
43.69,-0.229,0.02,-0.0
43.7,-0.232,0.014,-0.007
43.71,-0.233,0.016,-0.004
43.72,-0.228,0.021,-0.0
43.73,-0.234,0.019,0.006
43.74,-0.23,0.02,0.007
43.75,-0.229,0.018,0.003
43.76,-0.23,0.021,-0.003
43.77,-0.231,0.019,0.001
43.78,-0.23,0.019,-0.003
43.79,-0.227,0.013,-0.002
43.8,-0.227,0.015,-0.001
43.81,-0.229,0.021,-0.004
43.82,-0.235,0.018,0.0
43.83,-0.236,0.018,-0.007
43.84,-0.236,0.018,0.002
43.85,-0.23,0.017,0.0
43.86,-0.226,0.017,0.002
43.87,-0.23,0.016,0.006
43.88,-0.228,0.024,0.001
43.89,-0.23,0.022,0.0
43.9,-0.229,0.017,0.001
43.91,-0.237,0.017,0.006
43.92,-0.227,0.014,0.002
43.93,-0.225,0.018,-0.01
43.94,-0.233,0.013,0.01
43.95,-0.231,0.015,-0.0
43.96,-0.235,0.014,-0.001
43.97,-0.228,0.019,-0.01
43.98,-0.229,0.018,-0.008
43.99,-0.231,0.012,0.006
44.0,-0.231,0.018,-0.006
44.01,-0.235,0.016,-0.002
44.02,-0.23,0.02,-0.002
44.03,-0.233,0.017,0.004
44.04,-0.231,0.018,0.009
44.05,-0.228,0.014,0.001
44.06,-0.233,0.018,-0.001
44.07,-0.233,0.02,-0.005
44.08,-0.229,0.016,-0.003
44.09,-0.231,0.017,-0.003
44.1,-0.225,0.023,0.003
44.11,-0.231,0.015,-0.001
44.12,-0.236,0.023,-0.006
44.13,-0.236,0.019,-0.0
44.14,-0.23,0.018,-0.005
44.15,-0.23,0.021,-0.007
44.16,-0.225,0.019,0.003
44.17,-0.233,0.01,-0.0
44.18,-0.239,0.02,0.001
44.19,-0.23,0.016,0.008
44.2,-0.227,0.02,0.003
44.21,-0.233,0.014,0.0
44.22,-0.227,0.019,-0.003
44.23,-0.23,0.014,0.005
44.24,-0.23,0.014,-0.003
44.25,-0.23,0.017,-0.002
44.26,-0.23,0.019,-0.006
44.27,-0.232,0.02,0.003
44.28,-0.238,0.019,0.005
44.29,-0.232,0.016,0.002
44.3,-0.23,0.021,0.002
44.31,-0.226,0.012,-0.002
44.32,-0.233,0.013,0.002
44.33,-0.229,0.018,0.001
44.34,-0.231,0.017,0.0
44.35,-0.236,0.017,0.005
44.36,-0.227,0.016,-0.001
44.37,-0.228,0.015,-0.004
44.38,-0.232,0.019,0.005
44.39,-0.228,0.019,-0.0
44.4,-0.229,0.019,0.004
44.41,-0.227,0.016,0.001
44.42,-0.228,0.015,0.004
44.43,-0.231,0.017,-0.004
44.44,-0.228,0.021,-0.002
44.45,-0.236,0.021,-0.005
44.46,-0.234,0.015,-0.0
44.47,-0.226,0.018,-0.002
44.48,-0.225,0.01,-0.011
44.49,-0.227,0.021,-0.001
44.5,-0.23,0.019,0.001
44.51,-0.226,0.019,-0.004
44.52,-0.234,0.023,-0.003
44.53,-0.222,0.018,-0.002
44.54,-0.229,0.02,-0.003
44.55,-0.229,0.02,0.004
44.56,-0.228,0.016,0.013
44.57,-0.234,0.017,0.004
44.58,-0.228,0.021,-0.001
44.59,-0.224,0.018,0.012
44.6,-0.231,0.017,-0.006
44.61,-0.233,0.016,-0.002
44.62,-0.226,0.015,-0.004
44.63,-0.222,0.015,-0.005
44.64,-0.231,0.018,0.006
44.65,-0.23,0.023,-0.001
44.66,-0.23,0.014,0.002
44.67,-0.23,0.025,-0.008
44.68,-0.229,0.015,0.002
44.69,-0.231,0.021,0.001
44.7,-0.226,0.016,-0.008
44.71,-0.228,0.022,-0.0
44.72,-0.233,0.017,-0.001
44.73,-0.227,0.018,-0.002
44.74,-0.235,0.021,-0.009
44.75,-0.231,0.02,0.009
44.76,-0.224,0.016,0.0
44.77,-0.232,0.01,0.005
44.78,-0.226,0.017,0.007
44.79,-0.228,0.019,-0.0
44.8,-0.232,0.021,-0.001
44.81,-0.23,0.019,0.006
44.82,-0.233,0.018,0.008
44.83,-0.225,0.019,-0.001
44.84,-0.231,0.018,0.004
44.85,-0.233,0.018,-0.002
44.86,-0.223,0.021,0.009
44.87,-0.23,0.02,0.007
44.88,-0.232,0.019,-0.0
44.89,-0.231,0.012,-0.004
44.9,-0.232,0.018,-0.002
44.91,-0.229,0.019,0.004
44.92,-0.23,0.016,0.003
44.93,-0.227,0.021,-0.001
44.94,-0.23,0.019,0.004
44.95,-0.231,0.017,0.004
44.96,-0.23,0.02,-0.001
44.97,-0.236,0.02,-0.002
44.98,-0.231,0.018,-0.003
44.99,-0.235,0.017,-0.003
45.0,-0.228,0.019,-0.006
45.01,-0.235,0.016,0.001
45.02,-0.234,0.02,0.003
45.03,-0.23,0.017,-0.001
45.04,-0.229,0.017,0.001
45.05,-0.231,0.02,-0.001
45.06,-0.227,0.015,0.003
45.07,-0.228,0.017,0.004
45.08,-0.232,0.02,-0.008
45.09,-0.235,0.018,0.005
45.1,-0.229,0.019,0.003
45.11,-0.234,0.018,-0.005
45.12,-0.232,0.015,-0.001
45.13,-0.238,0.023,-0.002
45.14,-0.231,0.014,-0.003
45.15,-0.236,0.021,0.007
45.16,-0.232,0.013,-0.002
45.17,-0.231,0.011,-0.002
45.18,-0.231,0.017,-0.002
45.19,-0.233,0.022,-0.01
45.2,-0.233,0.019,0.006
45.21,-0.228,0.023,-0.001
45.22,-0.23,0.011,0.001
45.23,-0.232,0.018,-0.008
45.24,-0.227,0.015,-0.0
45.25,-0.231,0.018,0.001
45.26,-0.23,0.015,0.001
45.27,-0.233,0.015,-0.006
45.28,-0.236,0.017,-0.002
45.29,-0.232,0.014,-0.001
45.3,-0.23,0.015,0.003
45.31,-0.229,0.023,-0.004
45.32,-0.228,0.012,-0.002
45.33,-0.23,0.025,-0.006
45.34,-0.231,0.021,0.007
45.35,-0.234,0.016,0.001
45.36,-0.232,0.014,0.009
45.37,-0.229,0.018,-0.007
45.38,-0.231,0.018,-0.005
45.39,-0.234,0.017,0.003
45.4,-0.228,0.019,-0.001
45.41,-0.231,0.021,0.004
45.42,-0.23,0.017,-0.0
45.43,-0.229,0.013,0.009
45.44,-0.23,0.019,-0.009
45.45,-0.231,0.014,0.002
45.46,-0.237,0.018,-0.008
45.47,-0.234,0.015,0.002
45.48,-0.232,0.019,-0.003
45.49,-0.233,0.015,-0.008
45.5,-0.229,0.018,0.006
45.51,-0.23,0.018,-0.003
45.52,-0.234,0.022,-0.003
45.53,-0.231,0.018,0.002
45.54,-0.232,0.017,0.001
45.55,-0.232,0.018,0.004
45.56,-0.235,0.018,-0.009
45.57,-0.229,0.017,0.0
45.58,-0.224,0.013,0.003
45.59,-0.236,0.017,-0.001
45.6,-0.231,0.014,0.005
45.61,-0.232,0.02,-0.001
45.62,-0.227,0.021,-0.004
45.63,-0.232,0.014,0.005
45.64,-0.231,0.021,-0.002
45.65,-0.23,0.019,0.003
45.66,-0.233,0.018,0.005
45.67,-0.23,0.021,0.007
45.68,-0.221,0.016,-0.007
45.69,-0.235,0.017,0.004
45.7,-0.23,0.017,-0.004
45.71,-0.227,0.016,-0.006
45.72,-0.229,0.019,0.006
45.73,-0.235,0.015,0.001
45.74,-0.224,0.019,-0.0
45.75,-0.232,0.014,-0.006
45.76,-0.231,0.015,-0.006
45.77,-0.226,0.016,0.002
45.78,-0.232,0.013,-0.002
45.79,-0.231,0.015,-0.004
45.8,-0.232,0.019,-0.003
45.81,-0.227,0.017,0.002
45.82,-0.228,0.016,-0.003
45.83,-0.231,0.015,0.004
45.84,-0.234,0.023,-0.003
45.85,-0.227,0.016,0.004
45.86,-0.229,0.022,-0.007
45.87,-0.228,0.021,0.001
45.88,-0.231,0.015,0.003
45.89,-0.224,0.021,-0.003
45.9,-0.233,0.012,-0.007
45.91,-0.236,0.02,0.0
45.92,-0.235,0.012,-0.005
45.93,-0.232,0.019,0.004
45.94,-0.229,0.025,-0.006
45.95,-0.228,0.017,0.004
45.96,-0.228,0.018,-0.003
45.97,-0.232,0.018,0.008
45.98,-0.236,0.015,0.005
45.99,-0.237,0.02,-0.002
46.0,-0.231,0.019,0.0
46.01,-0.222,0.021,0.001
46.02,-0.232,0.013,0.005
46.03,-0.23,0.017,-0.01
46.04,-0.227,0.019,-0.003
46.05,-0.224,0.012,0.003
46.06,-0.234,0.021,0.004
46.07,-0.227,0.022,0.012
46.08,-0.231,0.019,-0.012
46.09,-0.226,0.017,-0.002
46.1,-0.232,0.013,-0.001
46.11,-0.234,0.02,0.005
46.12,-0.229,0.017,-0.002
46.13,-0.23,0.017,0.002
46.14,-0.232,0.023,-0.003
46.15,-0.233,0.015,-0.004
46.16,-0.233,0.019,-0.0
46.17,-0.23,0.019,0.0
46.18,-0.232,0.02,0.0
46.19,-0.229,0.013,0.005
46.2,-0.227,0.015,0.004
46.21,-0.227,0.016,-0.004
46.22,-0.231,0.018,0.0
46.23,-0.233,0.017,-0.012
46.24,-0.234,0.018,0.008
46.25,-0.23,0.017,-0.003
46.26,-0.235,0.021,-0.006
46.27,-0.226,0.015,-0.003
46.28,-0.229,0.018,0.006
46.29,-0.233,0.02,0.004
46.3,-0.236,0.016,-0.003
46.31,-0.231,0.012,0.004
46.32,-0.232,0.014,-0.003
46.33,-0.232,0.022,0.003
46.34,-0.226,0.02,-0.009
46.35,-0.225,0.015,-0.006
46.36,-0.229,0.016,0.002
46.37,-0.227,0.02,0.001
46.38,-0.236,0.014,0.002
46.39,-0.227,0.016,-0.003
46.4,-0.232,0.019,-0.002
46.41,-0.232,0.015,-0.001
46.42,-0.23,0.02,0.004
46.43,-0.232,0.016,0.002
46.44,-0.235,0.013,-0.003
46.45,-0.232,0.021,-0.006
46.46,-0.225,0.021,-0.005
46.47,-0.23,0.02,0.011
46.48,-0.233,0.014,0.002
46.49,-0.228,0.017,0.001
46.5,-0.227,0.017,-0.001
46.51,-0.24,0.019,-0.001
46.52,-0.227,0.024,-0.003
46.53,-0.229,0.018,-0.001
46.54,-0.232,0.017,-0.002
46.55,-0.234,0.017,0.002
46.56,-0.234,0.016,-0.004
46.57,-0.235,0.015,0.008
46.58,-0.229,0.022,-0.013
46.59,-0.232,0.019,-0.001
46.6,-0.225,0.019,-0.003
46.61,-0.23,0.02,-0.007
46.62,-0.233,0.02,-0.002
46.63,-0.228,0.017,-0.002
46.64,-0.229,0.016,-0.001
46.65,-0.23,0.016,0.009
46.66,-0.232,0.023,-0.001
46.67,-0.232,0.022,-0.002
46.68,-0.231,0.014,0.001
46.69,-0.234,0.019,0.002
46.7,-0.232,0.021,-0.006
46.71,-0.231,0.019,-0.003
46.72,-0.228,0.017,0.01
46.73,-0.236,0.016,-0.005
46.74,-0.227,0.014,0.004
46.75,-0.231,0.016,0.004
46.76,-0.228,0.018,-0.008
46.77,-0.228,0.017,-0.0
46.78,-0.225,0.018,-0.004
46.79,-0.227,0.019,0.003
46.8,-0.229,0.018,0.003
46.81,-0.235,0.015,-0.007
46.82,-0.231,0.018,-0.004
46.83,-0.228,0.021,-0.002
46.84,-0.231,0.022,0.002
46.85,-0.232,0.019,-0.005
46.86,-0.233,0.016,-0.007
46.87,-0.227,0.02,-0.002
46.88,-0.226,0.02,-0.003
46.89,-0.226,0.016,-0.005
46.9,-0.225,0.022,-0.001
46.91,-0.228,0.021,-0.001
46.92,-0.23,0.021,0.005
46.93,-0.228,0.015,0.0
46.94,-0.233,0.02,-0.002
46.95,-0.229,0.02,0.001
46.96,-0.222,0.018,0.006
46.97,-0.23,0.019,0.001
46.98,-0.232,0.02,-0.008
46.99,-0.235,0.012,0.002
47.0,-0.224,0.019,0.003
47.01,-0.227,0.021,0.008
47.02,-0.233,0.016,-0.001
47.03,-0.233,0.016,0.008
47.04,-0.235,0.018,0.002
47.05,-0.235,0.017,0.0
47.06,-0.227,0.021,-0.001
47.07,-0.238,0.016,-0.001
47.08,-0.239,0.019,0.003
47.09,-0.232,0.019,-0.002
47.1,-0.228,0.018,0.002
47.11,-0.227,0.015,0.001
47.12,-0.23,0.018,-0.0
47.13,-0.242,0.016,0.0
47.14,-0.231,0.024,-0.003
47.15,-0.23,0.021,0.004
47.16,-0.236,0.014,-0.004
47.17,-0.229,0.02,0.005
47.18,-0.234,0.016,0.004
47.19,-0.229,0.019,0.002
47.2,-0.237,0.013,0.005
47.21,-0.229,0.018,-0.006
47.22,-0.237,0.016,0.003
47.23,-0.228,0.017,-0.001
47.24,-0.236,0.022,0.001
47.25,-0.225,0.017,0.001
47.26,-0.23,0.016,-0.006
47.27,-0.228,0.022,-0.003
47.28,-0.228,0.02,-0.003
47.29,-0.23,0.015,0.0
47.3,-0.236,0.017,0.003
47.31,-0.232,0.02,-0.0
47.32,-0.235,0.013,0.0
47.33,-0.231,0.021,0.003
47.34,-0.229,0.017,0.003
47.35,-0.236,0.01,-0.005
47.36,-0.229,0.023,-0.001
47.37,-0.235,0.016,0.001
47.38,-0.236,0.014,0.002
47.39,-0.233,0.019,-0.004
47.4,-0.233,0.021,0.001
47.41,-0.232,0.017,0.007
47.42,-0.234,0.016,-0.013
47.43,-0.237,0.014,-0.001
47.44,-0.23,0.015,0.004
47.45,-0.232,0.017,-0.001
47.46,-0.232,0.012,0.0
47.47,-0.235,0.023,0.006
47.48,-0.229,0.017,0.001
47.49,-0.223,0.018,-0.007
47.5,-0.232,0.015,-0.008
47.51,-0.23,0.016,0.007
47.52,-0.237,0.017,-0.009
47.53,-0.229,0.012,0.004
47.54,-0.226,0.013,-0.004
47.55,-0.23,0.019,0.006
47.56,-0.233,0.015,-0.006
47.57,-0.232,0.021,-0.008
47.58,-0.228,0.02,-0.009
47.59,-0.228,0.02,-0.003
47.6,-0.233,0.021,0.004
47.61,-0.233,0.025,0.001
47.62,-0.221,0.017,0.002
47.63,-0.231,0.017,-0.004
47.64,-0.239,0.019,-0.001
47.65,-0.231,0.01,-0.004
47.66,-0.229,0.017,-0.009
47.67,-0.23,0.023,-0.003
47.68,-0.232,0.019,-0.001
47.69,-0.229,0.02,0.004
47.7,-0.228,0.018,0.001
47.71,-0.227,0.02,0.003
47.72,-0.229,0.02,0.003
47.73,-0.229,0.013,-0.001
47.74,-0.234,0.018,-0.001
47.75,-0.234,0.017,-0.0
47.76,-0.23,0.024,0.0
47.77,-0.235,0.019,-0.002
47.78,-0.232,0.021,0.005
47.79,-0.238,0.017,-0.001
47.8,-0.233,0.015,-0.006
47.81,-0.232,0.019,0.001
47.82,-0.23,0.023,0.002
47.83,-0.229,0.013,0.005
47.84,-0.228,0.02,-0.001
47.85,-0.231,0.017,-0.002
47.86,-0.236,0.017,0.004
47.87,-0.23,0.018,0.008
47.88,-0.224,0.012,0.001
47.89,-0.229,0.017,-0.002
47.9,-0.228,0.02,0.009
47.91,-0.231,0.021,-0.001
47.92,-0.235,0.018,-0.0
47.93,-0.231,0.015,-0.006
47.94,-0.23,0.02,0.004
47.95,-0.231,0.02,-0.007
47.96,-0.225,0.02,0.003
47.97,-0.228,0.017,-0.004
47.98,-0.232,0.023,0.005
47.99,-0.23,0.018,-0.002
48.0,-0.23,0.019,0.0
48.01,-0.231,0.016,-0.0
48.02,-0.228,0.019,-0.001
48.03,-0.238,0.022,-0.006
48.04,-0.233,0.015,0.002
48.05,-0.235,0.02,-0.008
48.06,-0.229,0.021,-0.0
48.07,-0.223,0.019,0.003
48.08,-0.233,0.017,0.002
48.09,-0.238,0.013,0.008
48.1,-0.226,0.014,0.004
48.11,-0.229,0.017,-0.005
48.12,-0.231,0.018,-0.007
48.13,-0.229,0.018,-0.007
48.14,-0.233,0.017,0.003
48.15,-0.227,0.02,-0.002
48.16,-0.237,0.016,0.002
48.17,-0.229,0.017,-0.002
48.18,-0.228,0.016,-0.003
48.19,-0.234,0.016,0.007
48.2,-0.231,0.018,0.004
48.21,-0.227,0.012,0.004
48.22,-0.232,0.016,-0.002
48.23,-0.231,0.015,0.003
48.24,-0.233,0.017,0.002
48.25,-0.229,0.016,0.006
48.26,-0.23,0.016,0.003
48.27,-0.23,0.017,0.005
48.28,-0.233,0.021,0.004
48.29,-0.233,0.021,-0.005
48.3,-0.23,0.018,0.001
48.31,-0.225,0.013,0.004
48.32,-0.232,0.021,-0.002
48.33,-0.228,0.014,-0.006
48.34,-0.229,0.018,0.001
48.35,-0.227,0.02,-0.0
48.36,-0.23,0.015,0.006
48.37,-0.227,0.017,-0.0
48.38,-0.238,0.016,0.003
48.39,-0.227,0.02,-0.001
48.4,-0.228,0.019,-0.003
48.41,-0.231,0.017,-0.001
