t,ax,ay,az
0.0,-0.157,0.065,0.152
0.01,-0.191,0.116,0.084
0.02,-0.365,-0.057,0.053
0.03,-0.264,-0.125,-0.074
0.04,-0.338,0.03,-0.025
0.05,-0.381,0.091,0.019
0.06,-0.249,0.169,-0.042
0.07,-0.269,0.195,-0.083
0.08,-0.232,0.138,-0.052
0.09,-0.222,0.019,-0.002
0.1,-0.123,-0.126,0.052
0.11,-0.085,-0.179,0.036
0.12,-0.164,-0.109,0.098
0.13,-0.145,-0.008,0.133
0.14,-0.281,0.051,0.118
0.15,-0.348,0.169,0.012
0.16,-0.253,-0.061,-0.091
0.17,-0.373,-0.109,-0.08
0.18,-0.385,0.115,-0.028
0.19,-0.294,0.089,0.013
0.2,-0.313,0.301,-0.026
0.21,-0.143,0.286,-0.112
0.22,0.006,-0.074,-0.121
0.23,-0.039,-0.21,-0.011
0.24,-0.052,-0.347,0.143
0.25,-0.261,-0.167,0.34
0.26,-0.272,0.175,0.179
0.27,-0.376,0.185,-0.003
0.28,-0.29,0.192,-0.203
0.29,-0.325,0.005,-0.258
0.3,-0.429,-0.125,-0.105
0.31,-0.309,0.028,-0.055
0.32,-0.235,0.187,0.067
0.33,-0.084,0.125,0.037
0.34,-0.004,0.295,0.0
0.35,-0.129,-0.066,0.121
0.36,-0.135,-0.209,0.119
0.37,-0.292,-0.187,0.117
0.38,-0.353,-0.22,0.093
0.39,-0.344,-0.008,0.01
0.4,-0.337,0.207,-0.066
0.41,-0.312,0.212,-0.086
0.42,-0.358,0.096,-0.079
0.43,-0.319,0.025,-0.081
0.44,-0.121,-0.098,-0.078
0.45,-0.128,0.044,-0.003
0.46,-0.153,0.146,0.086
0.47,-0.108,0.056,0.086
0.48,-0.112,0.058,0.068
0.49,-0.191,-0.125,0.077
0.5,-0.36,-0.226,0.123
0.51,-0.29,-0.098,0.055
0.52,-0.36,-0.072,-0.041
0.53,-0.0,-0.0,-0.857
0.54,-0.092,-0.079,-0.013
0.55,-0.141,-0.17,0.064
0.56,-0.183,-0.116,0.129
0.57,-0.217,-0.008,0.157
0.58,-0.348,-0.004,0.123
0.59,-0.347,0.075,-0.018
0.6,-0.168,-0.043,-0.141
0.61,-0.28,-0.17,-0.077
0.62,-0.374,0.048,-0.012
0.63,-0.225,0.232,0.031
0.64,-0.268,0.225,0.038
0.65,-0.138,0.404,-0.087
0.66,-0.074,0.048,-0.094
0.67,-0.145,-0.266,-0.036
0.68,-0.136,-0.297,0.103
0.69,-0.317,-0.301,0.286
0.7,-0.317,-0.122,0.265
0.71,-0.27,0.194,0.013
0.72,-0.251,0.143,-0.097
0.73,-0.184,0.079,-0.193
0.74,-0.348,0.046,-0.051
0.75,-0.323,-0.112,0.001
0.76,-0.235,0.126,-0.026
0.77,-0.277,0.143,0.044
0.78,-0.143,0.197,-0.011
0.79,-0.163,0.136,0.043
0.8,-0.202,-0.091,0.091
0.81,-0.226,-0.269,0.061
0.82,-0.358,-0.272,0.069
0.83,-0.167,-0.153,0.028
0.84,-0.203,0.089,0.023
0.85,-0.266,0.302,-0.001
0.86,-0.254,0.187,-0.063
0.87,-0.348,0.182,-0.082
0.88,-0.224,-0.004,-0.091
0.89,-0.257,-0.125,-0.027
0.9,-0.262,0.068,0.045
0.91,-0.158,0.16,0.071
0.92,-0.185,0.042,0.064
0.93,-0.126,-0.028,-0.025
0.94,-0.143,-0.271,0.038
0.95,-0.256,-0.306,0.109
0.96,-0.292,-0.059,0.096
0.97,-0.368,-0.014,0.09
0.98,-0.289,0.344,-0.026
0.99,-0.264,0.307,-0.089
1.0,-0.282,0.054,-0.068
1.01,-0.22,0.033,-0.094
1.02,-0.198,-0.093,-0.047
1.03,-0.228,-0.128,0.002
1.04,-0.226,-0.014,0.073
1.05,-0.159,0.091,0.123
1.06,-0.103,0.09,0.087
1.07,-0.23,0.005,0.036
1.08,-0.353,-0.115,-0.028
1.09,-0.283,-0.033,-0.07
1.1,-0.33,0.116,0.017
1.11,-0.302,0.106,-0.006
1.12,-0.223,0.249,-0.08
1.13,-0.268,0.152,-0.055
1.14,-0.231,0.011,-0.034
1.15,-0.213,-0.029,0.027
1.16,-0.175,-0.243,0.103
1.17,-0.094,-0.093,0.054
1.18,-0.136,0.001,0.056
1.19,-0.241,0.071,0.093
1.2,-0.228,0.128,-0.018
1.21,-0.26,0.053,-0.075
1.22,-0.317,-0.14,-0.014
1.23,-0.321,-0.0,-0.874
1.24,-0.338,0.181,0.07
1.25,-0.341,0.186,0.013
1.26,-0.222,0.288,-0.096
1.27,-0.111,-0.036,-0.143
1.28,-0.06,-0.319,-0.047
1.29,-0.141,-0.299,0.126
1.3,-0.219,-0.242,0.281
1.31,-0.167,0.087,0.248
1.32,-0.214,0.31,0.014
1.33,-0.299,0.21,-0.098
1.34,-0.312,0.007,-0.134
1.35,-0.345,-0.032,-0.1
1.36,-0.33,-0.104,-0.048
1.37,-0.329,0.044,-0.008
1.38,-0.276,0.218,-0.024
1.39,-0.099,0.125,-0.003
1.4,-0.07,0.138,0.033
1.41,-0.103,-0.183,0.114
1.42,-0.246,-0.259,0.142
1.43,-0.238,-0.159,0.11
1.44,-0.229,0.024,0.064
1.45,-0.332,0.158,0.005
1.46,-0.346,0.284,-0.053
1.47,-0.312,0.001,-0.073
1.48,-0.333,0.009,-0.128
1.49,-0.332,-0.082,-0.054
1.5,-0.209,-0.134,0.031
1.51,-0.141,0.22,0.047
1.52,-0.111,0.141,0.113
1.53,-0.047,0.036,0.041
1.54,-0.142,-0.047,0.02
1.55,-0.32,-0.266,0.124
1.56,-0.296,-0.129,0.115
1.57,-0.352,0.085,0.02
1.58,-0.395,0.017,-0.014
1.59,-0.265,0.222,-0.158
1.6,-0.284,0.184,-0.112
1.61,-0.243,-0.094,-0.006
1.62,-0.094,-0.049,-0.018
1.63,-0.113,-0.018,0.024
1.64,-0.131,-0.049,0.048
1.65,-0.123,0.181,0.108
1.66,-0.162,0.127,0.13
1.67,-0.312,-0.013,0.084
1.68,-0.351,-0.055,-0.032
1.69,-0.372,-0.211,-0.058
1.7,-0.417,0.052,-0.058
1.71,-0.291,0.079,-0.04
1.72,-0.207,0.217,-0.036
1.73,-0.192,0.217,-0.043
1.74,-0.184,0.099,0.024
1.75,-0.127,-0.024,0.047
1.76,-0.127,-0.214,0.031
1.77,-0.176,-0.133,0.063
1.78,-0.166,-0.088,0.113
1.79,-0.276,0.163,0.109
1.8,-0.42,0.16,0.065
1.81,-0.294,0.002,-0.144
1.82,-0.22,-0.092,-0.164
1.83,-0.309,-0.15,-0.033
1.84,-0.258,0.061,0.051
1.85,-0.314,0.276,0.096
1.86,-0.225,0.293,0.005
1.87,-0.053,0.216,-0.128
1.88,-0.046,-0.091,-0.126
1.89,-0.125,-0.414,0.009
1.9,-0.145,-0.306,0.168
1.91,-0.374,-0.059,0.313
1.92,-0.335,0.127,0.15
1.93,-0.331,0.285,-0.071
1.94,-0.28,0.114,-0.182
1.95,-0.221,-0.056,-0.162
1.96,-0.374,-0.125,-0.051
1.97,-0.252,-0.114,0.023
1.98,-0.222,0.166,0.027
1.99,-0.136,0.263,0.025
2.0,-0.036,0.163,0.008
2.01,-0.175,0.067,0.039
2.02,-0.253,-0.151,0.098
2.03,-0.374,-0.308,0.103
2.04,-0.436,-0.222,0.053
2.05,-0.295,-0.036,-0.015
2.06,-0.23,0.149,-0.031
2.07,-0.219,0.325,-0.079
2.08,-0.26,0.094,-0.875
2.09,-0.163,0.067,-0.067
2.1,-0.193,0.01,-0.071
2.11,-0.214,-0.107,0.054
2.12,-0.172,0.153,0.062
2.13,-0.26,0.197,0.07
2.14,-0.202,-0.037,0.032
2.15,-0.181,-0.098,-0.055
2.16,-0.339,-0.325,0.084
2.17,-0.276,-0.174,0.065
2.18,-0.217,-0.041,0.065
2.19,-0.353,0.169,0.043
2.2,-0.17,0.298,-0.06
2.21,-0.22,0.252,-0.056
2.22,-0.153,-0.03,-0.066
2.23,-0.208,-0.049,-0.047
2.24,-0.217,-0.133,0.026
2.25,-0.214,-0.049,0.079
2.26,-0.256,0.062,0.075
2.27,-0.228,0.077,0.098
2.28,-0.285,-0.026,0.05
2.29,-0.294,-0.03,-0.01
2.3,-0.294,-0.126,-0.024
2.31,-0.292,0.03,0.006
2.32,-0.262,0.221,-0.042
2.33,-0.22,0.125,-0.04
2.34,-0.223,0.233,-0.045
2.35,-0.205,0.107,-0.053
2.36,-0.177,-0.125,0.028
2.37,-0.156,-0.099,0.038
2.38,-0.22,-0.094,0.111
2.39,-0.241,-0.099,0.125
2.4,-0.207,0.076,0.044
2.41,-0.262,0.065,-0.02
2.42,-0.21,-0.049,-0.093
2.43,-0.257,-0.012,-0.053
2.44,-0.343,-0.0,0.054
2.45,-0.313,0.125,0.074
2.46,-0.294,0.31,0.004
2.47,-0.211,0.2,-0.077
2.48,-0.09,0.142,-0.158
2.49,-0.179,-0.198,-0.069
2.5,-0.143,-0.42,0.061
2.51,-0.183,-0.292,0.23
2.52,-0.257,-0.08,0.326
2.53,-0.219,0.147,0.147
2.54,-0.312,0.262,-0.062
2.55,-0.229,0.142,-0.2
2.56,-0.308,-0.064,-0.141
2.57,-0.298,0.102,-0.024
2.58,-0.323,0.151,-0.048
2.59,-0.315,0.102,-0.025
2.6,-0.245,-0.017,0.029
2.61,-0.25,-0.01,-0.003
2.62,-0.219,0.0,-0.012
2.63,-0.134,0.128,-0.017
2.64,-0.069,0.13,-0.03
2.65,-0.184,0.103,0.004
2.66,-0.208,-0.185,0.068
2.67,-0.266,-0.143,0.084
2.68,-0.232,-0.131,0.07
2.69,-0.292,-0.138,0.069
2.7,-0.393,0.132,-0.043
2.71,-0.29,0.18,-0.033
2.72,-0.221,0.146,-0.055
2.73,-0.169,0.158,-0.091
2.74,-0.217,-0.099,-0.064
2.75,-0.159,0.01,0.011
2.76,-0.067,-0.004,0.035
2.77,-0.211,0.083,0.11
2.78,-0.235,0.024,0.094
2.79,-0.278,0.006,0.055
2.8,-0.354,-0.146,0.046
2.81,-0.379,-0.147,-0.019
2.82,-0.372,-0.021,0.002
2.83,-0.229,0.087,-0.064
2.84,-0.174,0.263,-0.056
2.85,-0.188,0.179,-0.019
2.86,-0.196,0.138,-0.02
2.87,-0.182,0.027,0.002
2.88,-0.125,-0.114,0.042
2.89,-0.235,-0.109,0.052
2.9,-0.354,-0.036,0.12
2.91,-0.252,-0.06,0.106
2.92,-0.272,0.088,0.006
2.93,-0.282,-0.057,-0.104
2.94,-0.123,-0.186,-0.098
2.95,-0.25,0.066,0.011
2.96,-0.305,0.192,0.116
2.97,-0.28,0.277,0.04
2.98,-0.236,0.318,-0.11
2.99,-0.161,0.102,-0.178
3.0,-0.117,-0.19,-0.112
3.01,-0.199,-0.345,0.078
3.02,-0.252,-0.28,0.243
3.03,-0.298,-0.048,0.321
3.04,-0.199,0.12,0.087
3.05,-0.222,0.143,-0.113
3.06,-0.202,0.104,-0.21
3.07,-0.262,-0.004,-0.115
3.08,-0.438,-0.091,0.015
3.09,-0.307,0.078,0.025
3.1,-0.226,0.171,0.008
3.11,-0.182,0.146,-0.023
3.12,-0.127,0.112,0.013
3.13,-0.144,-0.08,0.072
3.14,-0.27,-0.206,0.106
3.15,-0.367,-0.176,0.063
3.16,-0.217,-0.176,-0.015
3.17,-0.162,0.07,-0.08
3.18,-0.252,0.248,-0.005
3.19,-0.273,0.09,0.001
3.2,-0.271,0.076,-0.043
3.21,-0.289,0.064,-0.014
3.22,-0.254,0.031,-0.027
3.23,-0.227,0.125,-0.002
3.24,-0.218,0.168,-0.015
3.25,-0.177,0.01,-0.054
3.26,-0.203,-0.045,0.001
3.27,-0.213,-0.389,0.148
3.28,-0.199,-0.266,0.119
3.29,-0.269,-0.037,0.126
3.3,-0.254,-0.022,0.032
3.31,-0.25,0.342,-0.089
3.32,-0.261,0.335,-0.076
3.33,-0.264,0.04,-0.078
3.34,-0.253,0.096,-0.098
3.35,-0.188,-0.133,-0.063
3.36,-0.24,-0.069,0.017
3.37,-0.237,0.057,0.07
3.38,-0.222,-0.062,0.133
3.39,-0.195,-0.055,0.094
3.4,-0.198,-0.021,0.033
3.41,-0.261,-0.115,0.011
3.42,-0.292,0.032,-0.025
3.43,-0.321,0.171,-0.014
3.44,-0.185,0.182,-0.057
3.45,-0.262,0.22,-0.107
3.46,-0.383,0.068,-0.038
3.47,-0.294,-0.026,-0.056
3.48,-0.241,-0.061,0.004
3.49,-0.177,-0.119,0.066
3.5,-0.096,-0.068,0.087
3.51,-0.142,0.063,0.107
3.52,-0.112,-0.01,0.059
3.53,-0.123,0.097,-0.026
3.54,-0.193,-0.089,-0.071
3.55,-0.338,-0.176,-0.034
3.56,-0.375,0.146,-0.005
3.57,-0.449,0.244,0.023
3.58,-0.459,0.231,-0.026
3.59,-0.285,0.216,-0.127
3.6,-0.113,-0.016,-0.115
3.61,-0.008,-0.339,0.028
3.62,-0.007,-0.3,0.134
3.63,-0.1,-0.252,0.242
3.64,-0.221,0.045,0.247
3.65,-0.198,0.299,0.038
3.66,-0.283,0.179,-0.089
3.67,-0.388,0.078,-0.194
3.68,-0.499,-0.061,-0.152
3.69,-0.425,-0.104,-0.034
3.7,-0.331,0.076,-0.05
3.71,-0.233,0.184,-0.003
3.72,-0.036,0.085,-0.002
3.73,-0.007,0.106,0.036
3.74,-0.093,-0.056,0.14
3.75,-0.142,-0.21,0.122
3.76,-0.261,-0.105,0.082
3.77,-0.27,-0.135,-0.013
3.78,-0.315,0.053,-0.05
3.79,-0.409,0.167,-0.005
3.8,-0.303,0.091,-0.038
3.81,-0.424,0.131,-0.07
3.82,-0.341,-0.019,-0.065
3.83,-0.145,0.087,-0.072
3.84,-0.083,0.071,-0.057
3.85,-0.071,0.107,0.028
3.86,-0.116,-0.103,0.092
3.87,-0.103,-0.043,0.132
3.88,-0.24,-0.207,0.178
3.89,-0.374,-0.194,0.13
3.9,-0.263,0.083,-0.043
3.91,-0.386,-0.01,-0.041
3.92,-0.438,0.211,-0.106
3.93,-0.311,0.212,-0.118
3.94,-0.221,-0.001,-0.078
3.95,-0.123,0.007,-0.1
3.96,-0.142,-0.003,0.037
3.97,-0.044,-0.082,0.057
3.98,-0.093,0.088,0.069
3.99,-0.221,0.03,0.141
4.0,-0.22,-0.036,0.112
4.01,-0.353,0.022,0.029
4.02,-0.343,-0.063,-0.033
4.03,-0.392,-0.018,-0.116
4.04,-0.427,0.047,-0.035
4.05,-0.248,0.136,-0.089
4.06,-0.173,0.17,-0.063
4.07,-0.266,0.077,-0.029
4.08,-0.125,0.066,-0.057
4.09,-0.046,0.068,0.0
4.1,-0.067,-0.077,0.099
4.11,-0.197,-0.005,0.112
4.12,-0.21,-0.131,0.143
4.13,-0.291,-0.029,0.084
4.14,-0.392,-0.065,-0.037
4.15,-0.325,-0.083,-0.091
4.16,-0.38,-0.064,-0.045
4.17,-0.372,0.153,-0.004
4.18,-0.267,0.284,-0.042
4.19,-0.217,0.205,-0.051
4.2,-0.08,0.259,-0.175
4.21,-0.008,-0.021,-0.121
4.22,-0.073,-0.314,0.031
4.23,-0.132,-0.256,0.167
4.24,-0.29,-0.153,0.325
4.25,-0.299,0.052,0.222
4.26,-0.341,0.174,0.011
4.27,-0.406,0.058,-0.124
4.28,-0.286,-0.042,-0.222
4.29,-0.309,-0.065,-0.155
4.3,-0.312,-0.022,-0.041
4.31,-0.198,0.155,-0.045
4.32,-0.131,0.281,0.019
4.33,-0.063,0.201,0.013
4.34,-0.126,0.112,0.062
4.35,-0.235,-0.138,0.141
4.36,-0.25,-0.336,0.073
4.37,-0.437,-0.267,0.079
4.38,-0.303,-0.164,0.007
4.39,-0.28,0.106,-0.011
4.4,-0.255,0.284,-0.031
4.41,-0.25,0.121,-0.047
4.42,-0.281,0.115,-0.082
4.43,-0.177,0.099,-0.125
4.44,-0.218,-0.026,-0.026
4.45,-0.19,0.129,-0.037
4.46,-0.153,0.153,-0.004
4.47,-0.198,-0.048,0.072
4.48,-0.181,-0.096,0.014
4.49,-0.268,-0.26,0.118
4.5,-0.264,-0.264,0.12
4.51,-0.244,0.009,0.042
4.52,-0.325,0.028,0.028
4.53,-0.285,0.239,-0.071
4.54,-0.219,0.311,-0.138
4.55,-0.242,-0.028,-0.081
4.56,-0.171,0.034,-0.067
4.57,-0.225,-0.033,0.021
4.58,-0.189,-0.052,0.108
4.59,-0.136,0.044,0.08
4.6,-0.192,0.051,0.058
4.61,-0.268,-0.108,0.068
4.62,-0.291,-0.021,0.049
4.63,-0.298,-0.203,-0.008
4.64,-0.364,0.069,-0.038
4.65,-0.351,0.12,-0.036
4.66,-0.172,0.165,-0.099
4.67,-0.266,0.329,-0.09
4.68,-0.256,0.072,-0.003
4.69,-0.181,0.03,-0.009
4.7,-0.148,-0.075,-0.04
4.71,-0.156,-0.258,0.079
4.72,-0.162,-0.115,0.117
4.73,-0.192,0.034,0.083
4.74,-0.269,-0.031,0.062
4.75,-0.194,0.1,-0.052
4.76,-0.242,0.028,-0.086
4.77,-0.393,-0.116,-0.04
4.78,-0.311,0.147,-0.029
4.79,-0.266,0.291,-0.024
4.8,-0.309,0.219,-0.009
4.81,-0.173,0.235,-0.152
4.82,-0.103,-0.139,-0.076
4.83,-0.121,-0.357,0.042
4.84,-0.077,-0.28,0.175
4.85,-0.25,-0.2,0.29
4.86,-0.199,0.109,0.145
4.87,-0.263,0.312,-0.051
4.88,-0.294,0.125,-0.883
4.89,-0.321,0.052,-0.191
4.9,-0.418,-0.043,-0.062
4.91,-0.28,-0.005,-0.005
4.92,-0.297,0.137,0.009
4.93,-0.313,0.123,0.033
4.94,-0.117,0.104,-0.015
4.95,-0.061,0.031,0.074
4.96,-0.151,-0.211,0.089
4.97,-0.172,-0.304,0.048
4.98,-0.212,-0.074,0.017
4.99,-0.221,0.019,0.041
5.0,-0.348,0.24,0.076
5.01,-0.329,0.252,-0.024
5.02,-0.344,0.072,-0.027
5.03,-0.354,0.038,-0.137
5.04,-0.287,-0.076,-0.119
5.05,-0.243,-0.092,-0.008
5.06,-0.096,0.15,0.025
5.07,-0.078,0.139,0.054
5.08,-0.075,-0.037,0.032
5.09,-0.087,-0.041,0.039
5.1,-0.238,-0.217,0.166
5.11,-0.274,-0.104,0.15
5.12,-0.344,0.04,0.01
5.13,-0.483,0.055,-0.023
5.14,-0.284,0.235,-0.135
5.15,-0.322,0.187,-0.109
5.16,-0.26,-0.136,-0.029
5.17,-0.16,0.029,-0.037
5.18,-0.101,-0.093,0.039
5.19,-0.093,-0.093,0.046
5.2,-0.116,0.172,0.085
5.21,-0.154,0.098,0.132
5.22,-0.249,0.02,0.055
5.23,-0.376,0.039,-0.039
5.24,-0.327,-0.105,-0.08
5.25,-0.388,0.008,-0.07
5.26,-0.36,0.15,-0.022
5.27,-0.226,0.073,-0.011
5.28,-0.286,0.19,-0.046
5.29,-0.225,0.067,-0.023
5.3,-0.091,-0.074,0.003
5.31,-0.083,-0.025,0.046
5.32,-0.126,-0.107,0.09
5.33,-0.15,-0.075,0.081
5.34,-0.195,0.119,0.072
5.35,-0.286,0.09,0.058
5.36,-0.306,0.065,-0.068
5.37,-0.333,-0.05,-0.151
5.38,-0.379,-0.119,-0.046
5.39,-0.32,0.088,-0.02
5.4,-0.304,0.187,0.061
5.41,-0.236,0.168,0.024
5.42,-0.054,0.224,-0.115
5.43,0.002,-0.115,-0.079
5.44,-0.061,-0.378,-0.018
5.45,-0.182,-0.208,0.168
5.46,-0.311,-0.09,0.315
5.47,-0.286,0.166,0.171
5.48,-0.33,0.25,-0.095
5.49,-0.374,0.091,-0.176
5.5,-0.332,-0.078,-0.199
5.51,-0.357,-0.093,-0.073
5.52,-0.214,-0.089,0.001
5.53,-0.217,0.101,-0.012
5.54,-0.157,0.277,0.032
5.55,0.026,0.24,0.029
5.56,-0.101,0.079,0.068
5.57,-0.243,-0.187,0.075
5.58,-0.283,-0.345,0.066
5.59,-0.344,-0.146,0.058
5.6,-0.406,0.017,0.024
5.61,-0.353,0.191,-0.022
5.62,-0.272,0.276,-0.085
5.63,-0.277,0.106,-0.093
5.64,-0.194,-0.061,-0.111
5.65,-0.171,-0.025,-0.028
5.66,-0.181,-0.108,0.064
5.67,-0.093,0.163,0.092
5.68,-0.113,0.212,0.102
5.69,-0.223,-0.01,-0.001
5.7,-0.267,-0.108,0.013
5.71,-0.331,-0.262,0.025
5.72,-0.358,-0.183,0.048
5.73,-0.421,0.008,0.042
5.74,-0.2,0.179,-0.05
5.75,-0.098,0.312,-0.128
5.76,-0.188,0.117,-0.017
5.77,-0.177,-0.106,-0.003
5.78,-0.109,-0.056,-0.012
5.79,-0.207,-0.037,0.057
5.8,-0.221,0.039,0.091
5.81,-0.238,0.161,0.062
5.82,-0.312,0.038,0.054
5.83,-0.296,-0.05,-0.031
5.84,-0.359,-0.171,-0.046
5.85,-0.358,-0.15,-0.042
5.86,-0.237,0.059,-0.042
5.87,-0.227,0.278,-0.013
5.88,-0.177,0.247,-0.022
5.89,-0.185,0.198,-0.01
5.9,-0.201,0.096,0.026
5.91,-0.112,-0.204,0.016
5.92,-0.198,-0.25,0.059
5.93,-0.294,-0.135,0.059
5.94,-0.234,-0.029,0.099
5.95,-0.345,0.184,0.062
5.96,-0.283,0.095,-0.073
5.97,-0.193,-0.09,-0.134
5.98,-0.29,-0.019,-0.08
5.99,-0.27,-0.052,0.019
6.0,-0.217,0.182,0.011
6.01,-0.267,0.388,0.03
6.02,-0.143,0.19,-0.081
6.03,-0.108,0.045,-0.125
6.04,-0.195,-0.327,-0.017
6.05,-0.171,-0.397,0.104
6.06,-0.312,-0.176,0.277
6.07,-0.258,0.02,0.223
6.08,-0.243,0.201,-0.017
6.09,-0.267,0.28,-0.168
6.1,-0.223,-0.02,-0.212
6.11,-0.29,-0.029,-0.133
6.12,-0.34,0.047,-0.015
6.13,-0.296,0.037,0.059
6.14,-0.179,0.285,0.006
6.15,-0.094,0.144,-0.045
6.16,-0.216,-0.052,0.081
6.17,-0.177,-0.146,0.107
6.18,-0.288,-0.357,0.149
6.19,-0.308,-0.267,0.062
6.2,-0.206,-0.016,-0.082
6.21,-0.273,0.195,-0.008
6.22,-0.242,0.352,-0.066
6.23,-0.304,0.27,-0.08
6.24,-0.295,0.014,-0.071
6.25,-0.255,-0.037,-0.117
6.26,-0.275,-0.042,0.044
6.27,-0.215,0.005,0.054
6.28,-0.169,0.164,0.05
6.29,-0.165,0.027,0.02
6.3,-0.073,-0.139,-0.008
6.31,-0.174,-0.231,0.09
6.32,-0.219,-0.175,0.115
6.33,-0.274,-0.031,0.036
6.34,-0.43,0.163,-0.005
6.35,-0.258,0.243,-0.089
6.36,-0.219,0.28,-0.125
6.37,-0.337,0.029,-0.039
6.38,-0.252,-0.119,-0.074
6.39,-0.161,-0.109,-0.038
6.4,-0.169,-0.029,0.037
6.41,-0.076,-0.01,0.082
6.42,-0.114,0.169,0.112
6.43,-0.246,-0.033,0.1
6.44,-0.303,-0.049,0.013
6.45,-0.365,-0.084,-0.024
6.46,-0.385,-0.007,-0.027
6.47,-0.308,0.192,-0.055
6.48,-0.275,0.171,-0.089
6.49,-0.308,0.177,-0.085
6.5,-0.199,0.101,-0.06
6.51,-0.138,-0.025,-0.051
6.52,-0.106,-0.191,0.025
6.53,-0.105,-0.119,0.083
6.54,-0.167,-0.064,0.147
6.55,-0.272,0.057,0.158
6.56,-0.253,0.148,0.03
6.57,-0.218,-0.003,-0.086
6.58,-0.332,-0.091,-0.12
6.59,-0.342,0.018,-0.039
6.6,-0.303,0.015,0.027
6.61,-0.308,0.337,0.02
6.62,-0.311,0.274,-0.085
6.63,-0.156,0.038,-0.131
6.64,0.033,-0.053,-0.159
6.65,-0.093,-0.353,0.048
6.66,-0.219,-0.36,0.232
6.67,-0.257,-0.077,0.296
6.68,-0.232,0.175,0.209
6.69,-0.244,0.185,-0.021
6.7,-0.302,0.163,-0.16
6.71,-0.314,-0.098,-0.172
6.72,-0.409,-0.067,-0.135
6.73,-0.412,0.059,-0.035
6.74,-0.274,0.044,-0.018
6.75,-0.135,0.23,-0.071
6.76,-0.087,0.161,-0.021
6.77,-0.03,-0.059,0.047
6.78,-0.134,-0.124,0.116
6.79,-0.276,-0.213,0.144
6.8,-0.239,-0.13,0.101
6.81,-0.24,0.104,-0.004
6.82,-0.313,0.178,-0.02
6.83,-0.37,0.128,-0.103
6.84,-0.404,0.133,-0.099
6.85,-0.314,-0.119,-0.108
6.86,-0.226,-0.048,-0.072
6.87,-0.238,0.047,-0.001
6.88,-0.044,0.06,0.023
6.89,-0.069,0.228,0.064
6.9,-0.052,-0.015,0.074
6.91,-0.126,-0.062,0.061
6.92,-0.285,-0.204,0.115
6.93,-0.365,-0.152,0.089
6.94,-0.459,-0.036,0.013
6.95,-0.431,0.079,-0.045
6.96,-0.336,0.134,-0.107
6.97,-0.182,0.112,-0.093
6.98,-0.183,0.114,-0.099
6.99,-0.164,-0.099,0.012
7.0,-0.039,0.043,-0.029
7.01,-0.06,0.035,0.021
7.02,-0.141,0.066,0.113
7.03,-0.193,0.084,0.106
7.04,-0.396,-0.015,0.08
7.05,-0.441,-0.12,-0.022
7.06,-0.361,-0.125,-0.078
7.07,-0.408,-0.005,-0.039
7.08,-0.264,0.094,-0.049
7.09,-0.132,0.237,-0.091
7.1,-0.192,0.215,-0.07
7.11,-0.144,0.174,-0.059
7.12,-0.1,0.028,0.006
7.13,-0.087,-0.136,0.057
7.14,-0.188,-0.123,0.1
7.15,-0.289,-0.064,0.13
7.16,-0.296,-0.093,0.077
7.17,-0.323,0.144,-0.014
7.18,-0.286,-0.097,-0.09
7.19,-0.291,-0.076,-0.071
7.2,-0.268,0.023,-0.003
7.21,-0.242,0.124,0.058
7.22,-0.283,0.296,0.012
7.23,-0.225,0.258,-0.104
7.24,-0.069,0.065,-0.162
7.25,-0.097,-0.162,-0.106
7.26,-0.175,-0.256,0.088
7.27,-0.282,-0.352,0.265
7.28,-0.296,0.029,0.218
7.29,-0.236,0.14,0.065
7.3,-0.273,0.151,-0.091
7.31,-0.222,0.105,-0.189
7.32,-0.287,-0.067,-0.102
7.33,-0.339,-0.018,-0.014
7.34,-0.316,0.109,-0.043
7.35,-0.228,0.111,-0.02
7.36,-0.061,0.245,-0.047
7.37,-0.125,0.144,-0.009
7.38,-0.176,-0.077,0.115
7.39,-0.232,-0.198,0.054
7.4,-0.361,-0.164,0.132
7.41,-0.228,-0.213,0.013
7.42,-0.279,0.094,-0.004
7.43,-0.256,0.134,-0.026
7.44,-0.238,0.136,-0.063
7.45,-0.352,0.108,0.011
7.46,-0.169,-0.008,-0.072
7.47,-0.224,0.113,-0.028
7.48,-0.199,0.085,0.027
7.49,-0.185,0.144,0.006
7.5,-0.205,0.049,-0.037
7.51,-0.191,-0.129,-0.036
7.52,-0.28,-0.308,0.061
7.53,-0.252,-0.166,0.111
7.54,-0.21,-0.119,0.078
7.55,-0.303,0.068,0.059
7.56,-0.2,0.288,-0.028
7.57,-0.185,0.2,-0.045
7.58,-0.256,0.13,-0.09
7.59,-0.215,0.019,-0.129
7.6,-0.24,-0.085,-0.026
7.61,-0.201,-0.047,0.003
7.62,-0.237,0.04,0.061
7.63,-0.234,-0.065,0.099
7.64,-0.16,0.02,0.061
7.65,-0.253,-0.06,0.033
7.66,-0.253,-0.134,-0.0
7.67,-0.244,0.084,0.0
7.68,-0.342,0.137,0.008
7.69,-0.227,0.176,-0.098
7.7,-0.246,0.247,-0.104
7.71,-0.295,0.068,-0.022
7.72,-0.302,0.025,0.025
7.73,-0.221,-0.16,0.007
7.74,-0.13,-0.197,0.006
7.75,-0.194,-0.081,0.093
7.76,-0.16,0.069,0.111
7.77,-0.16,0.03,0.052
7.78,-0.197,0.14,-0.076
7.79,-0.214,-0.055,-0.126
7.8,-0.351,-0.142,-0.046
7.81,-0.392,0.126,0.049
7.82,-0.35,0.207,0.1
7.83,-0.361,0.284,0.016
7.84,-0.225,0.224,-0.203
7.85,-0.105,-0.168,-0.133
7.86,-0.034,-0.223,-0.059
7.87,-0.068,-0.293,0.07
7.88,-0.19,-0.294,0.275
7.89,-0.214,0.17,0.196
7.9,-0.257,0.256,0.07
7.91,-0.275,0.125,-0.112
7.92,-0.311,0.083,-0.203
7.93,-0.442,-0.084,-0.124
7.94,-0.386,-0.147,-0.026
7.95,-0.304,0.195,-0.001
7.96,-0.191,0.098,0.045
7.97,-0.1,0.245,-0.009
7.98,-0.059,0.029,0.028
7.99,-0.127,-0.235,0.118
8.0,-0.231,-0.211,0.08
8.01,-0.319,-0.214,0.063
8.02,-0.209,-0.004,-0.056
8.03,-0.294,0.231,-0.046
8.04,-0.353,0.325,-0.033
8.05,-0.299,0.085,-0.061
8.06,-0.294,0.104,-0.073
8.07,-0.285,-0.13,-0.038
8.08,-0.246,-0.089,0.005
8.09,-0.122,0.128,0.009
8.1,-0.131,0.068,0.045
8.11,-0.099,0.097,0.017
8.12,-0.129,-0.085,-0.024
8.13,-0.191,-0.297,0.075
8.14,-0.289,-0.089,0.106
8.15,-0.333,-0.04,0.071
8.16,-0.365,0.143,0.01
8.17,-0.308,0.255,-0.124
8.18,-0.306,0.201,-0.133
8.19,-0.245,0.011,-0.089
8.2,-0.188,-0.071,-0.012
8.21,-0.151,-0.114,0.018
8.22,-0.108,-0.1,0.036
8.23,-0.087,0.092,0.083
8.24,-0.124,0.034,0.14
8.25,-0.282,0.15,0.117
8.26,-0.323,-0.083,0.005
8.27,-0.393,-0.146,-0.077
8.28,-0.383,-0.016,-0.067
8.29,-0.402,0.127,-0.037
8.3,-0.303,0.129,-0.048
8.31,-0.192,0.228,-0.109
8.32,-0.147,0.114,-0.062
8.33,-0.088,0.003,-0.01
8.34,-0.064,-0.041,0.058
8.35,-0.147,-0.175,0.114
8.36,-0.188,-0.01,0.121
8.37,-0.23,0.004,0.081
8.38,-0.308,0.019,0.048
8.39,-0.327,0.035,-0.084
8.4,-0.322,-0.109,-0.146
8.41,-0.375,-0.114,-0.04
8.42,-0.363,0.104,0.035
8.43,-0.259,0.225,0.019
8.44,-0.0,-0.0,-0.864
8.45,-0.359,-0.249,0.075
8.46,-0.305,-0.151,0.008
8.47,-0.317,-0.025,-0.024
8.48,-0.37,0.241,-0.038
8.49,-0.258,0.199,-0.057
8.5,-0.298,0.066,-0.058
8.51,-0.214,0.1,-0.054
8.52,-0.174,-0.043,-0.027
8.53,-0.175,0.049,0.017
8.54,-0.137,0.247,0.011
8.55,-0.09,0.025,0.046
8.56,-0.14,0.039,0.007
8.57,-0.226,-0.21,0.014
8.58,-0.372,-0.338,0.166
8.59,-0.354,-0.15,0.139
8.6,-0.332,-0.035,0.072
8.61,-0.3,0.094,-0.055
8.62,-0.233,0.323,-0.127
8.63,-0.246,0.198,-0.042
8.64,-0.164,0.029,-0.072
8.65,-0.161,0.043,-0.063
8.66,-0.113,-0.087,0.016
8.67,-0.112,-0.012,0.059
8.68,-0.204,0.056,0.117
8.69,-0.275,-0.055,0.149
8.7,-0.339,-0.09,0.045
8.71,-0.354,-0.17,-0.022
8.72,-0.311,-0.102,-0.057
8.73,-0.332,0.158,-0.048
8.74,-0.25,0.244,-0.039
8.75,-0.18,0.245,-0.068
8.76,-0.183,0.188,-0.052
8.77,-0.181,-0.016,0.022
8.78,-0.173,-0.118,0.046
8.79,-0.205,-0.144,0.038
8.8,-0.245,-0.13,0.113
8.81,-0.249,-0.043,0.081
8.82,-0.292,0.057,0.106
8.83,-0.212,-0.009,-0.023
8.84,-0.193,-0.045,-0.086
8.85,-0.288,-0.051,-0.038
8.86,-0.291,0.043,0.049
8.87,-0.322,0.315,0.055
8.88,-0.318,0.272,-0.044
8.89,-0.235,0.242,-0.177
8.9,-0.123,-0.026,-0.19
8.91,-0.133,-0.36,-0.056
8.92,-0.0,-0.0,-0.854
8.93,-0.357,0.173,0.029
8.94,-0.416,0.047,-0.002
8.95,-0.276,0.054,-0.112
8.96,-0.25,-0.068,-0.092
8.97,-0.277,0.007,-0.026
8.98,-0.215,0.175,0.025
8.99,-0.065,0.036,0.061
9.0,0.005,-0.099,0.017
9.01,-0.203,-0.192,0.116
9.02,-0.192,-0.325,0.193
9.03,-0.192,0.039,0.102
9.04,-0.427,0.1,0.092
9.05,-0.366,0.188,-0.055
9.06,-0.293,0.33,-0.2
9.07,-0.309,0.08,-0.118
9.08,-0.302,-0.02,-0.061
9.09,-0.181,-0.068,-0.009
9.1,-0.161,-0.125,0.075
9.11,-0.073,-0.006,0.12
9.12,-0.079,0.048,0.148
9.13,-0.18,0.033,0.132
9.14,-0.251,-0.024,0.042
9.15,-0.356,-0.064,-0.037
9.16,-0.419,-0.07,-0.028
9.17,-0.356,0.09,-0.033
9.18,-0.288,0.195,-0.046
9.19,-0.277,0.122,-0.075
9.2,-0.265,0.165,-0.021
9.21,-0.186,-0.001,0.03
9.22,-0.108,-0.055,0.005
9.23,-0.141,-0.147,0.042
9.24,-0.167,-0.097,0.086
9.25,-0.126,0.065,0.072
9.26,-0.272,0.12,0.091
9.27,-0.283,-0.04,0.0
9.28,-0.227,-0.034,-0.072
9.29,-0.369,-0.105,0.029
9.3,-0.406,-0.047,0.022
9.31,-0.319,0.255,0.014
9.32,-0.332,0.315,-0.028
9.33,-0.188,0.249,-0.147
9.34,0.018,0.036,-0.19
9.35,-0.051,-0.33,-0.023
9.36,-0.089,-0.36,0.175
9.37,-0.184,-0.228,0.31
9.38,-0.276,0.101,0.3
9.39,-0.253,0.232,-0.007
9.4,-0.341,0.271,-0.151
9.41,-0.316,-0.016,-0.195
9.42,-0.402,-0.082,-0.115
9.43,-0.436,-0.008,-0.002
9.44,-0.219,-0.055,-0.008
9.45,-0.128,0.282,-0.015
9.46,-0.034,0.14,0.039
9.47,-0.1,0.104,0.108
9.48,-0.18,-0.073,0.078
9.49,-0.272,-0.328,0.101
9.5,-0.289,-0.183,0.063
9.51,-0.268,0.027,-0.017
9.52,-0.33,0.026,0.009
9.53,-0.299,0.256,-0.061
9.54,-0.296,0.199,-0.042
9.55,-0.306,-0.091,-0.038
9.56,-0.211,0.034,-0.065
9.57,-0.224,-0.045,0.016
9.58,-0.109,0.115,0.008
9.59,-0.146,0.177,0.036
9.6,-0.138,0.018,0.057
9.61,-0.127,-0.083,0.081
9.62,-0.299,-0.123,0.122
9.63,-0.241,-0.307,0.134
9.64,-0.289,-0.036,-0.051
9.65,-0.444,0.107,-0.066
9.66,-0.344,0.219,-0.05
9.67,-0.218,0.183,-0.088
9.68,-0.23,0.146,-0.035
9.69,-0.14,-0.14,-0.009
9.7,-0.155,-0.017,0.043
9.71,-0.15,-0.078,0.066
9.72,-0.167,0.086,0.132
9.73,-0.146,0.104,0.09
9.74,-0.298,0.004,0.055
9.75,-0.39,-0.092,-0.056
9.76,-0.373,-0.11,-0.065
9.77,-0.381,-0.03,0.008
9.78,-0.251,0.088,-0.008
9.79,-0.224,0.21,-0.048
9.8,-0.198,0.109,-0.074
9.81,-0.142,0.184,-0.052
9.82,-0.18,0.03,0.061
9.83,-0.144,-0.058,0.038
9.84,-0.163,-0.028,0.066
9.85,-0.173,-0.148,0.118
9.86,-0.253,0.079,0.053
9.87,-0.373,-0.063,0.101
9.88,-0.267,-0.101,-0.051
9.89,-0.221,-0.113,-0.149
9.9,-0.315,0.023,-0.038
9.91,-0.324,0.116,0.041
9.92,-0.3,0.412,0.034
9.93,-0.222,0.334,-0.072
9.94,-0.063,0.08,-0.167
9.95,-0.002,-0.146,-0.106
9.96,-0.147,-0.414,0.124
9.97,-0.275,-0.262,0.275
9.98,-0.318,-0.118,0.277
9.99,-0.289,0.125,0.069
10.0,-0.302,0.156,-0.128
10.01,-0.257,0.143,-0.167
10.02,-0.293,-0.024,-0.1
10.03,-0.326,-0.05,-0.088
10.04,-0.278,0.13,-0.028
10.05,-0.225,0.074,0.013
10.06,-0.087,0.248,0.006
10.07,-0.095,0.197,0.063
10.08,-0.181,-0.158,0.101
10.09,-0.311,-0.174,0.076
10.1,-0.351,-0.31,0.07
10.11,-0.261,-0.167,0.02
10.12,-0.246,0.054,-0.016
10.13,-0.275,0.123,0.005
10.14,-0.181,0.313,-0.082
10.15,-0.326,0.146,-0.054
10.16,-0.246,0.025,-0.063
10.17,-0.162,0.083,-0.093
10.18,-0.273,0.054,0.022
10.19,-0.14,0.122,0.015
10.2,-0.253,0.082,0.043
10.21,-0.187,-0.144,0.074
10.22,-0.172,-0.341,0.076
10.23,-0.261,-0.188,0.125
10.24,-0.226,-0.23,0.093
10.25,-0.325,0.111,0.03
10.26,-0.37,0.292,-0.018
10.27,-0.171,0.235,-0.146
10.28,-0.244,0.201,-0.127
10.29,-0.186,0.026,-0.114
10.3,-0.177,-0.094,-0.002
10.31,-0.195,-0.021,0.011
10.32,-0.173,0.011,0.093
10.33,-0.217,-0.033,0.101
10.34,-0.148,0.011,0.08
10.35,-0.296,-0.041,0.074
10.36,-0.376,-0.123,0.033
10.37,-0.306,0.014,-0.025
10.38,-0.3,0.076,-0.031
10.39,-0.264,0.239,-0.092
10.4,-0.209,0.235,-0.11
10.41,-0.241,0.107,-0.067
10.42,-0.237,0.135,-0.018
10.43,-0.204,-0.076,0.024
10.44,-0.168,-0.148,0.021
10.45,-0.152,-0.177,0.078
10.46,-0.175,-0.1,0.152
10.47,-0.229,-0.007,0.131
10.48,-0.288,0.117,0.063
10.49,-0.186,-0.036,-0.062
10.5,-0.276,-0.004,-0.136
10.51,-0.406,0.095,-0.039
10.52,-0.352,0.091,0.027
10.53,-0.324,0.29,-0.026
10.54,-0.277,0.261,-0.109
10.55,-0.146,-0.021,-0.152
10.56,-0.063,-0.189,-0.083
10.57,-0.029,-0.318,0.132
10.58,-0.089,-0.286,0.306
10.59,-0.214,-0.025,0.281
10.6,-0.25,0.137,0.104
10.61,-0.255,0.163,-0.082
10.62,-0.347,0.181,-0.17
10.63,-0.38,-0.048,-0.13
10.64,-0.464,-0.09,-0.075
10.65,-0.366,0.124,-0.078
10.66,-0.21,0.083,-0.008
10.67,-0.108,0.235,-0.004
10.68,-0.028,0.152,0.028
10.69,-0.057,-0.114,0.099
10.7,-0.157,-0.153,0.116
10.71,-0.247,-0.268,0.121
10.72,-0.247,-0.184,0.063
10.73,-0.331,0.129,0.017
10.74,-0.374,0.178,0.01
10.75,-0.367,0.198,-0.054
10.76,-0.422,0.129,-0.138
10.77,-0.315,-0.106,-0.1
10.78,-0.194,0.012,-0.11
10.79,-0.161,0.048,-0.007
10.8,-0.054,0.048,0.034
10.81,-0.034,0.147,0.034
10.82,-0.09,-0.061,0.103
10.83,-0.125,-0.177,0.104
10.84,-0.267,-0.082,0.129
10.85,-0.334,-0.089,0.071
10.86,-0.407,0.039,-0.026
10.87,-0.424,0.189,-0.107
10.88,-0.348,0.147,-0.099
10.89,-0.306,0.076,-0.084
10.9,-0.155,-0.019,-0.066
10.91,-0.129,-0.094,-0.008
10.92,-0.083,-0.047,0.042
10.93,-0.057,0.106,0.099
10.94,-0.077,0.008,0.112
10.95,-0.204,0.201,0.091
10.96,-0.319,-0.056,0.053
10.97,-0.42,-0.128,-0.031
10.98,-0.447,-0.086,-0.065
10.99,-0.372,-0.046,-0.033
11.0,-0.312,0.173,-0.072
11.01,-0.258,0.16,-0.061
11.02,-0.201,0.162,-0.043
11.03,-0.146,0.144,-0.019
11.04,-0.062,-0.008,0.003
11.05,-0.03,-0.218,0.027
11.06,-0.152,-0.05,0.051
11.07,-0.209,-0.045,0.14
11.08,-0.356,0.043,0.16
11.09,-0.329,0.124,0.013
11.1,-0.319,-0.044,-0.131
11.11,-0.349,-0.164,-0.141
11.12,-0.332,0.037,-0.036
11.13,-0.284,0.109,0.084
11.14,-0.262,0.294,0.009
11.15,-0.123,0.334,-0.117
11.16,-0.026,0.037,-0.142
11.17,-0.03,-0.184,-0.093
11.18,-0.187,-0.337,0.139
11.19,-0.286,-0.203,0.31
11.2,-0.32,-0.071,0.287
11.21,-0.292,0.2,-0.012
11.22,-0.302,0.13,-0.14
11.23,-0.312,0.068,-0.135
11.24,-0.299,0.008,-0.072
11.25,-0.331,-0.15,-0.057
11.26,-0.238,0.097,-0.08
11.27,-0.173,0.083,-0.02
11.28,-0.125,0.313,0.011
11.29,-0.152,0.218,0.085
11.3,-0.153,-0.145,0.088
11.31,-0.156,-0.206,-0.017
11.32,-0.345,-0.315,0.048
11.33,-0.293,-0.186,0.092
11.34,-0.312,0.135,0.053
11.35,-0.335,0.247,-0.007
11.36,-0.192,0.189,-0.1
11.37,-0.308,0.169,-0.123
11.38,-0.274,-0.035,-0.096
11.39,-0.138,-0.137,-0.081
11.4,-0.195,0.134,0.016
11.41,-0.149,0.116,0.069
11.42,-0.148,0.163,0.054
11.43,-0.177,0.049,-0.0
11.44,-0.203,-0.284,0.006
11.45,-0.298,-0.281,0.052
11.46,-0.318,-0.192,0.093
11.47,-0.286,0.009,0.044
11.48,-0.314,0.27,0.027
11.49,-0.196,0.253,-0.08
11.5,-0.177,0.17,-0.096
11.51,-0.25,-0.007,-0.043
11.52,-0.175,-0.187,-0.007
11.53,-0.191,-0.029,-0.013
11.54,-0.247,-0.004,0.017
11.55,-0.23,0.043,0.121
11.56,-0.243,0.149,0.079
11.57,-0.243,-0.045,0.011
11.58,-0.228,-0.177,-0.087
11.59,-0.263,-0.003,-0.059
11.6,-0.324,0.075,0.045
11.61,-0.255,0.19,0.003
11.62,-0.247,0.284,-0.11
11.63,-0.23,0.156,-0.077
11.64,-0.254,0.071,-0.009
11.65,-0.223,-0.139,0.065
11.66,-0.202,-0.232,0.052
11.67,-0.195,-0.134,0.063
11.68,-0.122,-0.028,0.047
11.69,-0.184,0.105,0.051
11.7,-0.282,0.19,0.02
11.71,-0.187,0.029,-0.092
11.72,-0.301,-0.074,-0.057
11.73,-0.347,-0.005,-0.011
11.74,-0.333,0.082,0.062
11.75,-0.348,0.254,0.057
11.76,-0.253,0.232,-0.058
11.77,-0.118,0.017,-0.148
11.78,-0.121,-0.257,-0.049
11.79,-0.163,-0.384,0.151
11.8,-0.198,-0.237,0.231
11.81,-0.132,0.161,0.135
11.82,-0.31,0.22,0.046
11.83,-0.267,0.239,-0.146
11.84,-0.281,0.153,-0.154
11.85,-0.388,-0.164,-0.074
11.86,-0.34,0.007,-0.093
11.87,-0.298,0.005,0.032
11.88,-0.232,0.186,0.025
11.89,-0.115,0.241,-0.01
11.9,-0.135,0.001,0.045
11.91,-0.097,-0.229,0.016
11.92,-0.165,-0.247,0.065
11.93,-0.259,-0.203,0.105
11.94,-0.312,0.038,0.053
11.95,-0.322,0.235,-0.017
11.96,-0.287,0.327,-0.035
11.97,-0.344,0.101,-0.073
11.98,-0.305,0.021,-0.083
11.99,-0.232,-0.209,-0.1
12.0,-0.27,-0.089,0.032
12.01,-0.223,0.129,0.062
12.02,-0.127,0.026,0.074
12.03,-0.075,0.09,-0.014
12.04,-0.065,-0.09,-0.023
12.05,-0.294,-0.197,0.102
12.06,-0.281,-0.041,0.102
12.07,-0.347,0.035,0.057
12.08,-0.337,0.102,-0.047
12.09,-0.25,0.292,-0.153
12.1,-0.307,0.01,-0.095
12.11,-0.218,-0.031,-0.081
12.12,-0.271,-0.059,0.005
12.13,-0.161,-0.194,0.072
12.14,-0.09,0.017,-0.027
12.15,-0.126,0.074,0.096
12.16,-0.0,-0.0,-0.865
12.17,-0.299,0.025,0.007
12.18,-0.3,0.195,0.085
12.19,-0.184,0.297,0.028
12.2,-0.053,0.274,-0.119
12.21,-0.035,-0.11,-0.121
12.22,0.017,-0.387,-0.046
12.23,-0.182,-0.299,0.2
12.24,-0.374,-0.175,0.367
12.25,-0.314,0.177,0.166
12.26,-0.367,0.297,-0.057
12.27,-0.243,0.166,-0.259
12.28,-0.27,0.08,-0.234
12.29,-0.397,-0.143,-0.061
12.3,-0.26,-0.02,0.023
12.31,-0.192,0.072,0.038
12.32,-0.141,0.198,0.009
12.33,-0.027,0.121,0.043
12.34,-0.113,0.103,0.108
12.35,-0.239,-0.235,0.152
12.36,-0.347,-0.289,0.08
12.37,-0.351,-0.098,-0.022
12.38,-0.325,-0.107,-0.024
12.39,-0.311,0.279,-0.052
12.4,-0.243,0.288,-0.124
12.41,-0.317,0.037,-0.051
12.42,-0.218,-0.019,-0.049
12.43,-0.209,-0.046,0.014
12.44,-0.182,-0.12,0.076
12.45,-0.129,0.219,0.064
12.46,-0.171,0.16,0.056
12.47,-0.138,-0.023,0.002
12.48,-0.157,0.015,-0.003
12.49,-0.291,-0.299,0.071
12.5,-0.324,-0.177,-0.001
12.51,-0.383,-0.033,-0.01
12.52,-0.351,0.086,0.003
12.53,-0.244,0.296,-0.028
12.54,-0.218,0.191,-0.017
12.55,-0.125,0.022,-0.097
12.56,-0.166,-0.054,-0.026
12.57,-0.12,-0.121,0.033
12.58,-0.122,0.076,0.086
12.59,-0.208,0.054,0.098
12.6,-0.211,0.036,0.084
12.61,-0.379,0.006,-0.012
12.62,-0.456,-0.184,0.019
12.63,-0.375,-0.177,0.008
12.64,-0.289,0.055,-0.047
12.65,-0.238,0.155,-0.056
12.66,-0.157,0.188,-0.066
12.67,-0.136,0.311,-0.079
12.68,-0.153,0.162,-0.042
12.69,-0.152,-0.078,0.033
12.7,-0.148,-0.126,0.04
12.71,-0.28,-0.201,0.106
12.72,-0.309,-0.095,0.131
12.73,-0.29,0.085,0.1
12.74,-0.316,0.016,0.005
12.75,-0.178,0.014,-0.166
12.76,-0.153,-0.125,-0.138
12.77,-0.234,0.043,0.026
12.78,-0.283,0.212,0.082
12.79,-0.329,0.308,0.058
12.8,-0.222,0.249,-0.105
12.81,-0.109,0.131,-0.185
12.82,-0.21,-0.219,-0.046
12.83,-0.197,-0.418,0.089
12.84,-0.286,-0.223,0.257
12.85,-0.258,-0.167,0.262
12.86,-0.141,0.198,0.075
12.87,-0.197,0.21,-0.105
12.88,-0.203,0.091,-0.163
12.89,-0.287,0.029,-0.141
12.9,-0.425,-0.051,-0.054
12.91,-0.383,0.018,-0.027
12.92,-0.283,0.165,0.012
12.93,-0.214,0.187,-0.003
12.94,-0.117,0.08,0.023
12.95,-0.168,-0.07,0.071
12.96,-0.199,-0.251,0.135
12.97,-0.254,-0.258,0.145
12.98,-0.142,-0.073,0.013
12.99,-0.237,0.034,-0.034
13.0,-0.266,0.263,-0.084
13.01,-0.304,0.287,-0.107
13.02,-0.409,0.033,-0.047
13.03,-0.359,0.033,-0.059
13.04,-0.249,0.006,-0.015
13.05,-0.222,0.022,0.026
13.06,-0.156,0.162,0.014
13.07,-0.112,0.068,0.069
13.08,-0.015,-0.108,-0.02
13.09,-0.192,-0.21,0.057
13.1,-0.282,-0.428,0.138
13.11,-0.275,-0.032,0.108
13.12,-0.45,0.066,0.069
13.13,-0.374,0.166,-0.032
13.14,-0.179,0.367,-0.186
13.15,-0.228,0.198,-0.138
13.16,-0.217,-0.062,-0.049
13.17,-0.166,-0.022,-0.076
13.18,-0.143,-0.052,0.003
13.19,-0.157,-0.063,0.063
13.2,-0.147,0.1,0.123
13.21,-0.241,0.016,0.123
13.22,-0.28,-0.07,0.053
13.23,-0.326,-0.094,0.011
13.24,-0.348,-0.065,-0.051
13.25,-0.306,0.096,-0.038
13.26,-0.192,0.231,-0.092
13.27,-0.239,0.219,-0.093
13.28,-0.311,0.209,-0.076
13.29,-0.236,0.039,-0.022
13.3,-0.169,-0.105,0.014
13.31,-0.142,-0.173,0.054
13.32,-0.162,-0.17,0.106
13.33,-0.166,-0.022,0.14
13.34,-0.209,0.158,0.1
13.35,-0.228,0.053,-0.018
13.36,-0.207,-0.076,-0.126
13.37,-0.308,-0.016,-0.067
13.38,-0.378,-0.08,0.036
13.39,-0.357,0.249,0.035
13.4,-0.398,0.257,-0.016
13.41,-0.274,0.222,-0.154
13.42,-0.089,0.013,-0.16
13.43,-0.051,-0.254,-0.018
13.44,-0.024,-0.384,0.089
13.45,-0.121,-0.215,0.224
13.46,-0.243,0.035,0.293
13.47,-0.246,0.213,0.114
13.48,-0.281,0.294,-0.068
13.49,-0.335,-0.055,-0.175
13.5,-0.378,-0.064,-0.173
13.51,-0.486,-0.051,-0.094
13.52,-0.387,-0.017,0.016
13.53,-0.184,0.237,-0.049
13.54,-0.011,0.25,-0.068
13.55,-0.06,0.011,-0.0
13.56,-0.052,-0.007,0.115
13.57,-0.156,-0.189,0.164
13.58,-0.302,-0.235,0.156
13.59,-0.302,-0.015,0.023
13.6,-0.332,0.043,-0.015
13.61,-0.368,0.171,-0.048
13.62,-0.394,0.08,-0.081
13.63,-0.329,-0.071,-0.063
13.64,-0.273,0.015,-0.083
13.65,-0.211,0.029,0.003
13.66,-0.083,0.101,-0.04
13.67,-0.052,0.192,-0.031
13.68,-0.119,0.013,0.065
13.69,-0.118,-0.136,0.049
13.7,-0.278,-0.139,0.14
13.71,-0.323,-0.187,0.143
13.72,-0.289,-0.006,0.007
13.73,-0.423,0.111,-0.038
13.74,-0.342,0.084,-0.079
13.75,-0.227,0.214,-0.128
13.76,-0.214,0.054,-0.093
13.77,-0.177,-0.096,-0.06
13.78,-0.128,-0.012,-0.066
13.79,-0.07,0.012,0.035
13.8,-0.162,0.076,0.1
13.81,-0.155,0.124,0.098
13.82,-0.25,0.034,0.101
13.83,-0.354,-0.094,0.035
13.84,-0.338,-0.099,-0.067
13.85,-0.377,-0.11,-0.036
13.86,-0.365,0.082,-0.055
13.87,-0.252,0.135,-0.045
13.88,-0.232,0.207,-0.049
13.89,-0.218,0.125,-0.021
13.9,-0.133,0.085,-0.01
13.91,-0.041,-0.114,-0.018
13.92,-0.145,-0.094,0.05
13.93,-0.221,-0.067,0.159
13.94,-0.206,0.021,0.108
13.95,-0.296,0.083,0.025
13.96,-0.325,-0.068,-0.062
13.97,-0.311,-0.076,-0.131
13.98,-0.351,-0.076,-0.04
13.99,-0.303,0.03,0.077
14.0,-0.27,0.274,0.027
14.01,-0.241,0.339,-0.044
14.02,-0.113,0.14,-0.156
14.03,0.012,-0.039,-0.185
14.04,-0.03,-0.242,0.007
14.05,-0.243,-0.332,0.195
14.06,-0.369,-0.087,0.379
14.07,-0.327,0.107,0.182
14.08,-0.321,0.115,-0.077
14.09,-0.299,0.134,-0.215
14.1,-0.237,-0.073,-0.169
14.11,-0.365,-0.099,-0.045
14.12,-0.291,0.122,0.009
14.13,-0.194,0.053,0.025
14.14,-0.099,0.263,-0.049
14.15,-0.075,0.232,0.027
14.16,-0.139,-0.019,0.108
14.17,-0.304,-0.151,0.071
14.18,-0.431,-0.313,0.053
14.19,-0.326,-0.219,0.008
14.2,-0.266,0.014,-0.018
14.21,-0.268,0.135,0.024
14.22,-0.161,0.222,-0.056
14.23,-0.199,0.182,-0.054
14.24,-0.295,-0.016,-0.025
14.25,-0.176,-0.015,-0.063
14.26,-0.223,0.109,0.018
14.27,-0.25,0.105,0.01
14.28,-0.203,0.143,-0.033
14.29,-0.146,0.093,-0.059
14.3,-0.212,-0.244,0.024
14.31,-0.301,-0.283,0.096
14.32,-0.219,-0.243,0.152
14.33,-0.193,-0.089,0.066
14.34,-0.3,0.267,0.004
14.35,-0.226,0.224,-0.082
14.36,-0.233,0.254,-0.098
14.37,-0.296,0.086,-0.082
14.38,-0.252,-0.144,-0.047
14.39,-0.209,-0.058,-0.024
14.4,-0.203,-0.093,0.047
14.41,-0.181,-0.019,0.122
14.42,-0.183,0.119,0.098
14.43,-0.245,-0.043,0.088
14.44,-0.213,-0.082,-0.05
14.45,-0.243,-0.004,-0.074
14.46,-0.393,0.027,0.013
14.47,-0.317,0.181,-0.02
14.48,-0.224,0.251,-0.118
14.49,-0.266,0.118,-0.104
14.5,-0.25,0.101,-0.028
14.51,-0.18,-0.045,0.052
14.52,-0.153,-0.153,0.076
14.53,-0.174,-0.105,0.029
14.54,-0.107,-0.085,0.043
14.55,-0.115,0.015,0.038
14.56,-0.284,0.135,0.052
14.57,-0.248,0.02,-0.016
14.58,-0.281,-0.103,-0.085
14.59,-0.378,0.005,-0.044
14.6,-0.291,0.085,0.03
14.61,-0.386,0.276,0.058
14.62,-0.317,0.3,-0.022
14.63,-0.104,0.104,-0.182
14.64,-0.042,-0.175,-0.152
14.65,-0.115,-0.312,0.018
14.66,-0.115,-0.374,0.247
14.67,-0.245,-0.139,0.315
14.68,-0.201,0.217,0.148
14.69,-0.241,0.131,-0.058
14.7,-0.287,0.233,-0.201
14.71,-0.379,0.002,-0.15
14.72,-0.395,-0.086,-0.026
14.73,-0.366,0.093,-0.038
14.74,-0.337,0.052,-0.02
14.75,-0.141,0.116,-0.034
14.76,-0.098,0.202,-0.006
14.77,-0.052,-0.103,0.117
14.78,-0.122,-0.203,0.061
14.79,-0.264,-0.208,0.083
14.8,-0.177,-0.055,0.002
14.81,-0.295,0.14,-0.003
14.82,-0.34,0.16,-0.01
14.83,-0.304,0.214,-0.054
14.84,-0.437,0.081,-0.016
14.85,-0.308,-0.076,-0.112
14.86,-0.27,0.003,-0.075
14.87,-0.236,0.016,-0.009
14.88,-0.002,0.104,0.016
14.89,-0.042,0.077,0.025
14.9,-0.054,-0.098,0.028
14.91,-0.133,-0.198,0.102
14.92,-0.301,-0.123,0.218
14.93,-0.344,-0.017,0.119
14.94,-0.455,0.002,-0.032
14.95,-0.405,0.282,-0.166
14.96,-0.272,0.108,-0.189
14.97,-0.334,0.094,-0.073
14.98,-0.228,-0.008,-0.084
14.99,-0.05,-0.135,-0.004
15.0,-0.05,-0.04,0.012
15.01,-0.063,0.031,0.108
15.02,-0.12,0.044,0.171
15.03,-0.194,0.079,0.111
15.04,-0.368,-0.013,0.058
15.05,-0.404,-0.063,-0.068
15.06,-0.386,-0.017,-0.109
15.07,-0.365,0.088,-0.058
15.08,-0.274,0.15,-0.079
15.09,-0.281,0.157,-0.102
15.1,-0.187,0.041,-0.056
15.11,-0.111,0.083,-0.033
15.12,-0.105,-0.01,0.056
15.13,-0.081,-0.136,0.088
15.14,-0.175,-0.031,0.115
15.15,-0.198,-0.039,0.102
15.16,-0.248,-0.002,0.083
15.17,-0.345,0.063,-0.022
15.18,-0.28,-0.129,-0.092
15.19,-0.378,-0.046,-0.061
15.2,-0.405,0.121,0.006
15.21,-0.328,0.163,0.008
15.22,-0.291,0.301,-0.059
15.23,-0.183,0.228,-0.171
15.24,-0.01,-0.124,-0.168
15.25,-0.008,-0.271,-0.048
15.26,-0.101,-0.315,0.168
15.27,-0.268,-0.128,0.388
15.28,-0.186,0.189,0.281
15.29,-0.31,0.197,0.022
15.3,-0.35,0.125,-0.212
15.31,-0.289,-0.068,-0.246
15.32,-0.469,-0.135,-0.084
15.33,-0.34,-0.028,-0.034
15.34,-0.31,0.11,-0.036
15.35,-0.18,0.171,0.01
15.36,0.061,0.263,-0.051
15.37,-0.091,0.166,0.103
15.38,-0.109,-0.244,0.145
15.39,-0.232,-0.193,0.092
15.4,-0.356,-0.215,0.068
15.41,-0.273,-0.129,-0.03
15.42,-0.371,0.17,0.006
15.43,-0.335,0.225,-0.043
15.44,-0.3,0.05,-0.058
15.45,-0.295,0.053,-0.091
15.46,-0.222,-0.028,-0.088
15.47,-0.184,0.011,-0.02
15.48,-0.153,0.252,-0.024
15.49,-0.138,0.09,0.023
15.5,-0.136,0.077,0.01
15.51,-0.198,-0.135,0.071
15.52,-0.287,-0.299,0.126
15.53,-0.279,-0.156,0.092
15.54,-0.322,-0.116,0.047
15.55,-0.33,0.082,-0.028
15.56,-0.195,0.3,-0.11
15.57,-0.21,0.177,-0.116
15.58,-0.254,0.104,-0.078
15.59,-0.196,-0.002,-0.071
15.6,-0.179,-0.098,0.014
15.61,-0.165,-0.001,0.073
15.62,-0.184,0.104,0.091
15.63,-0.169,-0.029,0.077
15.64,-0.297,0.043,0.052
15.65,-0.34,-0.146,-0.001
15.66,-0.3,-0.141,-0.024
15.67,-0.264,0.005,-0.036
15.68,-0.249,0.162,-0.01
15.69,-0.251,0.22,-0.064
15.7,-0.222,0.23,-0.076
15.71,-0.218,0.11,-0.045
15.72,-0.186,0.007,0.004
15.73,-0.229,-0.089,-0.007
15.74,-0.167,-0.249,0.035
15.75,-0.208,0.002,0.038
15.76,-0.245,0.058,0.107
15.77,-0.257,0.015,0.089
15.78,-0.169,0.021,-0.058
15.79,-0.202,-0.14,-0.075
15.8,-0.296,-0.084,-0.019
15.81,-0.329,0.144,0.036
15.82,-0.343,0.291,0.043
15.83,-0.334,0.333,-0.062
15.84,-0.123,0.245,-0.212
15.85,-0.092,-0.194,-0.143
15.86,-0.16,-0.368,0.028
15.87,-0.157,-0.31,0.25
15.88,-0.227,-0.194,0.29
15.89,-0.221,0.127,0.132
15.9,-0.0,-0.0,-0.868
15.91,-0.233,-0.084,-0.041
15.92,-0.229,0.072,-0.059
15.93,-0.178,0.147,-0.029
15.94,-0.175,0.035,0.03
15.95,-0.13,-0.079,0.046
15.96,-0.202,-0.239,0.11
15.97,-0.244,-0.261,0.152
15.98,-0.2,-0.067,0.101
15.99,-0.283,0.125,0.035
16.0,-0.357,0.175,-0.058
16.01,-0.278,0.288,-0.123
16.02,-0.242,0.066,-0.101
16.03,-0.204,-0.022,-0.079
16.04,-0.312,-0.075,-0.007
16.05,-0.231,-0.196,0.036
16.06,-0.089,0.024,0.059
16.07,-0.152,0.084,0.122
16.08,-0.173,0.009,0.117
16.09,-0.206,0.01,0.004
16.1,-0.297,-0.042,-0.026
16.11,-0.295,-0.009,-0.047
16.12,-0.383,0.149,-0.022
16.13,-0.338,0.165,-0.058
16.14,-0.232,0.164,-0.107
16.15,-0.326,0.083,-0.03
16.16,-0.255,0.0,-0.008
16.17,-0.09,-0.104,0.008
16.18,-0.043,-0.081,0.047
16.19,-0.083,-0.144,0.064
16.2,-0.167,0.068,0.13
16.21,-0.248,0.074,0.127
16.22,-0.286,0.033,-0.0
16.23,-0.302,0.053,-0.107
16.24,-0.358,-0.116,-0.081
16.25,-0.437,0.035,0.013
16.26,-0.385,0.199,0.021
16.27,-0.29,0.164,0.01
16.28,-0.128,0.196,-0.107
16.29,-0.02,0.081,-0.146
16.3,-0.033,-0.312,-0.024
16.31,-0.086,-0.242,0.074
16.32,-0.203,-0.24,0.237
16.33,-0.312,-0.019,0.24
16.34,-0.294,0.252,0.053
16.35,-0.387,0.203,-0.053
16.36,-0.34,0.079,-0.179
16.37,-0.368,-0.05,-0.176
16.38,-0.407,-0.148,-0.013
16.39,-0.191,0.03,-0.013
16.4,-0.163,0.172,0.009
16.41,-0.091,0.13,0.023
16.42,-0.028,0.176,-0.016
16.43,-0.174,-0.062,0.071
16.44,-0.198,-0.257,0.058
16.45,-0.295,-0.158,0.057
16.46,-0.343,-0.076,0.052
16.47,-0.305,0.115,0.02
16.48,-0.322,0.302,-0.02
16.49,-0.332,0.152,-0.052
16.5,-0.313,-0.011,-0.101
16.51,-0.205,-0.109,-0.111
16.52,-0.166,-0.117,-0.015
16.53,-0.16,0.043,0.054
16.54,-0.161,0.177,0.065
16.55,-0.103,0.076,0.036
16.56,-0.121,-0.007,0.015
16.57,-0.279,-0.152,0.095
16.58,-0.328,-0.226,0.089
16.59,-0.299,-0.046,0.016
16.6,-0.436,0.041,-0.015
16.61,-0.319,0.184,-0.095
16.62,-0.234,0.261,-0.091
16.63,-0.181,-0.004,-0.063
16.64,-0.102,-0.063,-0.05
16.65,-0.154,-0.039,-0.006
16.66,-0.126,-0.118,0.064
16.67,-0.127,0.081,0.075
16.68,-0.175,0.187,0.068
16.69,-0.285,0.075,0.067
16.7,-0.346,-0.038,0.011
16.71,-0.385,-0.126,-0.07
16.72,-0.411,-0.123,-0.053
16.73,-0.323,0.01,-0.035
16.74,-0.211,0.165,-0.041
16.75,-0.183,0.238,-0.06
16.76,-0.16,0.213,-0.009
16.77,-0.168,0.084,0.02
16.78,-0.076,-0.093,-0.011
16.79,-0.142,-0.167,0.052
16.8,-0.21,-0.186,0.104
16.81,-0.259,-0.021,0.098
16.82,-0.398,0.068,0.075
16.83,-0.351,0.079,-0.046
16.84,-0.27,0.009,-0.108
16.85,-0.302,-0.087,-0.062
16.86,-0.279,-0.031,-0.016
16.87,-0.213,0.224,0.025
16.88,-0.223,0.275,0.018
16.89,-0.114,0.217,-0.108
16.9,-0.067,0.037,-0.158
16.91,-0.108,-0.303,0.023
16.92,-0.186,-0.294,0.161
16.93,-0.391,-0.141,0.281
16.94,-0.305,-0.051,0.169
16.95,-0.274,0.214,-0.05
16.96,-0.292,0.167,-0.128
16.97,-0.201,-0.018,-0.181
16.98,-0.312,-0.029,-0.092
16.99,-0.277,0.032,-0.028
17.0,-0.187,0.104,0.021
17.01,-0.235,0.311,0.025
17.02,-0.086,0.102,-0.001
17.03,-0.126,0.143,0.057
17.04,-0.233,-0.254,0.058
17.05,-0.312,-0.313,0.07
17.06,-0.361,-0.242,0.041
17.07,-0.238,-0.063,0.008
17.08,-0.26,0.16,0.008
17.09,-0.224,0.292,-0.054
17.1,-0.265,0.231,-0.067
17.11,-0.277,-0.008,-0.037
17.12,-0.224,0.022,-0.087
17.13,-0.251,-0.111,0.019
17.14,-0.19,0.137,0.039
17.15,-0.163,0.133,0.039
17.16,-0.218,0.003,0.038
17.17,-0.15,-0.12,-0.006
17.18,-0.228,-0.238,0.06
17.19,-0.26,-0.247,0.116
17.2,-0.246,0.015,-0.005
17.21,-0.348,0.156,-0.036
17.22,-0.268,0.249,-0.046
17.23,-0.186,0.299,-0.1
17.24,-0.252,0.113,-0.038
17.25,-0.23,-0.111,-0.029
17.26,-0.202,-0.053,0.01
17.27,-0.224,-0.148,0.036
17.28,-0.183,-0.014,0.102
17.29,-0.177,0.091,0.086
17.3,-0.225,-0.079,0.049
17.31,-0.305,-0.06,-0.015
17.32,-0.301,-0.101,-0.035
17.33,-0.311,0.059,-0.007
17.34,-0.285,0.187,-0.014
17.35,-0.271,0.239,-0.047
17.36,-0.232,0.177,-0.122
17.37,-0.234,0.16,-0.051
17.38,-0.228,-0.107,0.025
17.39,-0.155,-0.102,-0.009
17.4,-0.196,-0.182,0.021
17.41,-0.136,-0.165,0.11
17.42,-0.181,0.109,0.106
17.43,-0.296,0.113,0.095
17.44,-0.198,-0.006,-0.064
17.45,-0.184,-0.046,-0.175
17.46,-0.331,-0.02,-0.046
17.47,-0.348,0.08,0.082
17.48,-0.344,0.317,0.043
17.49,-0.344,0.27,-0.045
17.5,-0.203,0.121,-0.17
17.51,-0.072,-0.075,-0.16
17.52,-0.086,-0.351,0.041
17.53,-0.11,-0.338,0.178
17.54,-0.227,-0.109,0.288
17.55,-0.176,0.065,0.14
17.56,-0.234,0.226,-0.036
17.57,-0.298,0.23,-0.099
17.58,-0.335,-0.031,-0.118
17.59,-0.497,-0.024,-0.089
17.6,-0.373,-0.027,-0.078
17.61,-0.319,0.041,-0.0
17.62,-0.222,0.236,0.003
17.63,-0.112,0.038,0.024
17.64,-0.001,-0.023,0.013
17.65,-0.066,-0.143,0.045
17.66,-0.28,-0.324,0.132
17.67,-0.225,-0.058,0.053
17.68,-0.264,0.08,0.027
17.69,-0.389,0.188,0.032
17.7,-0.303,0.27,-0.098
17.71,-0.401,0.107,-0.096
17.72,-0.356,-0.075,-0.135
17.73,-0.188,0.002,-0.074
17.74,-0.22,-0.075,0.044
17.75,-0.112,0.13,0.043
17.76,-0.021,0.119,0.041
17.77,-0.06,-0.002,0.041
17.78,-0.121,-0.102,0.077
17.79,-0.34,-0.247,0.138
17.8,-0.311,-0.162,0.095
17.81,-0.37,0.086,-0.026
17.82,-0.358,0.031,-0.048
17.83,-0.25,0.326,-0.162
17.84,-0.299,0.117,-0.051
17.85,-0.198,-0.124,0.001
17.86,-0.125,-0.016,-0.019
17.87,-0.074,-0.092,-0.021
17.88,-0.084,-0.062,0.072
17.89,-0.177,0.076,0.107
17.9,-0.199,0.136,0.059
17.91,-0.327,-0.001,0.051
17.92,-0.412,0.013,-0.046
17.93,-0.415,-0.115,-0.038
17.94,-0.368,0.017,-0.043
17.95,-0.278,0.133,-0.065
17.96,-0.296,0.116,-0.024
17.97,-0.149,0.15,-0.061
17.98,-0.067,0.147,-0.057
17.99,-0.1,-0.042,-0.003
18.0,-0.078,-0.123,-0.002
18.01,-0.146,-0.068,0.095
18.02,-0.226,-0.057,0.16
18.03,-0.356,0.08,0.12
18.04,-0.382,0.035,-0.011
18.05,-0.271,-0.024,-0.155
18.06,-0.34,-0.097,-0.051
18.07,-0.388,0.01,0.062
18.08,-0.243,0.094,0.043
18.09,-0.223,0.25,-0.025
18.1,-0.131,0.265,-0.105
18.11,-0.041,0.006,-0.167
18.12,-0.096,-0.136,-0.069
18.13,-0.093,-0.379,0.115
18.14,-0.231,-0.165,0.215
18.15,-0.339,0.062,0.27
18.16,-0.307,0.136,0.041
18.17,-0.341,0.275,-0.125
18.18,-0.304,0.022,-0.194
18.19,-0.328,-0.132,-0.12
18.2,-0.31,-0.053,-0.03
18.21,-0.229,0.034,0.016
18.22,-0.177,0.156,0.044
18.23,-0.039,0.259,-0.03
18.24,-0.067,0.105,0.034
18.25,-0.152,-0.068,0.059
18.26,-0.261,-0.14,0.066
18.27,-0.357,-0.272,0.075
18.28,-0.338,-0.097,-0.009
18.29,-0.365,0.126,-0.01
18.3,-0.271,0.137,-0.058
18.31,-0.267,0.215,-0.053
18.32,-0.283,-0.09,-0.009
18.33,-0.193,0.016,-0.024
18.34,-0.175,-0.059,0.051
18.35,-0.175,0.126,0.053
18.36,-0.151,0.196,-0.034
18.37,-0.167,0.109,-0.035
18.38,-0.145,-0.114,-0.008
18.39,-0.343,-0.194,0.011
18.4,-0.387,-0.202,0.087
18.41,-0.217,-0.154,0.028
18.42,-0.301,0.173,0.003
18.43,-0.242,0.19,-0.023
18.44,-0.23,0.167,-0.037
18.45,-0.16,0.175,-0.055
18.46,-0.193,-0.034,-0.035
18.47,-0.27,-0.105,-0.003
18.48,-0.146,0.008,-0.034
18.49,-0.138,0.027,0.098
18.5,-0.229,0.094,0.086
18.51,-0.325,-0.007,0.038
18.52,-0.331,-0.165,-0.005
18.53,-0.18,-0.086,-0.076
18.54,-0.328,0.013,0.01
18.55,-0.34,0.093,-0.018
18.56,-0.213,0.254,-0.067
18.57,-0.215,0.257,-0.037
18.58,-0.238,0.262,-0.044
18.59,-0.253,0.229,-0.08
18.6,-0.347,0.128,-0.044
18.61,-0.28,-0.049,-0.05
18.62,-0.222,-0.135,-0.054
18.63,-0.303,-0.05,0.002
18.64,-0.162,0.129,0.031
18.65,-0.131,0.136,0.022
18.66,-0.128,0.021,0.003
18.67,-0.104,-0.191,-0.003
18.68,-0.217,-0.217,0.082
18.69,-0.295,-0.106,0.149
18.7,-0.311,0.037,0.057
18.71,-0.384,0.306,-0.0
18.72,-0.297,0.236,-0.116
18.73,-0.23,0.147,-0.133
18.74,-0.25,-0.023,-0.1
18.75,-0.239,-0.176,-0.04
18.76,-0.172,-0.164,0.005
18.77,-0.062,-0.052,0.084
18.78,-0.13,0.107,0.172
18.79,-0.177,0.117,0.118
18.8,-0.298,0.042,0.062
18.81,-0.326,-0.182,-0.017
18.82,-0.33,0.012,-0.104
18.83,-0.387,0.057,-0.032
18.84,-0.352,0.141,-0.05
18.85,-0.267,0.276,-0.156
18.86,-0.218,0.127,-0.067
18.87,-0.203,0.013,0.019
18.88,-0.139,-0.12,0.069
18.89,-0.078,-0.21,0.062
18.9,-0.139,-0.117,0.068
18.91,-0.13,0.039,0.122
18.92,-0.218,0.149,0.049
18.93,-0.297,0.16,-0.045
18.94,-0.269,-0.011,-0.16
18.95,-0.27,-0.118,-0.102
18.96,-0.484,-0.028,0.042
18.97,-0.402,0.038,0.093
18.98,-0.299,0.277,0.012
18.99,-0.18,0.289,-0.062
19.0,-0.046,0.068,-0.116
19.01,-0.014,-0.148,-0.112
19.02,-0.067,-0.328,0.019
19.03,-0.168,-0.394,0.206
19.04,-0.237,0.059,0.28
19.05,-0.261,0.231,0.138
19.06,-0.363,0.248,-0.067
19.07,-0.349,0.128,-0.207
19.08,-0.412,-0.099,-0.191
19.09,-0.444,-0.118,-0.071
19.1,-0.281,0.025,-0.013
19.11,-0.222,0.134,0.017
19.12,-0.033,0.185,-0.019
19.13,-0.008,0.218,-0.026
19.14,-0.088,-0.087,0.173
19.15,-0.149,-0.235,0.131
19.16,-0.335,-0.205,0.074
19.17,-0.289,-0.184,-0.019
19.18,-0.344,0.095,-0.057
19.19,-0.42,0.286,-0.056
19.2,-0.322,0.194,-0.085
19.21,-0.341,0.09,-0.038
19.22,-0.158,-0.066,-0.094
19.23,-0.153,-0.012,-0.038
19.24,-0.187,-0.042,0.12
19.25,-0.116,0.169,0.067
19.26,-0.058,0.127,-0.023
19.27,-0.155,-0.001,0.002
19.28,-0.28,-0.231,0.06
19.29,-0.316,-0.126,0.119
19.3,-0.328,-0.135,0.067
19.31,-0.412,-0.098,-0.002
19.32,-0.281,0.255,-0.124
19.33,-0.155,0.18,-0.099
19.34,-0.254,0.123,-0.022
19.35,-0.182,0.017,-0.032
19.36,-0.185,-0.053,-0.034
19.37,-0.129,-0.093,-0.013
19.38,-0.186,0.073,0.084
19.39,-0.193,0.1,0.168
19.4,-0.209,0.058,0.105
19.41,-0.338,-0.039,-0.024
19.42,-0.316,-0.231,-0.073
19.43,-0.334,-0.08,-0.072
19.44,-0.323,0.095,-0.02
19.45,-0.238,0.186,-0.045
19.46,-0.235,0.271,-0.088
19.47,-0.221,0.209,-0.063
19.48,-0.19,0.087,0.004
19.49,-0.153,-0.071,0.051
19.5,-0.139,-0.219,0.063
19.51,-0.169,-0.114,0.091
19.52,-0.222,0.019,0.081
19.53,-0.253,0.014,0.068
19.54,-0.31,0.07,-0.028
19.55,-0.248,0.011,-0.108
19.56,-0.258,-0.243,-0.067
19.57,-0.38,0.088,0.009
19.58,-0.296,0.174,0.058
19.59,-0.261,0.322,0.011
19.6,-0.211,0.367,-0.127
19.61,-0.116,-0.03,-0.12
19.62,-0.076,-0.27,-0.071
19.63,-0.08,-0.345,0.042
19.64,-0.285,-0.309,0.299
19.65,-0.292,0.018,0.266
19.66,-0.254,0.235,0.034
19.67,-0.2,0.13,-0.131
19.68,-0.277,0.109,-0.211
19.69,-0.404,-0.039,-0.137
19.7,-0.283,-0.108,-0.059
19.71,-0.224,0.126,-0.009
19.72,-0.235,0.226,0.029
19.73,-0.154,0.218,0.035
19.74,-0.112,0.138,0.031
19.75,-0.166,-0.114,0.038
19.76,-0.288,-0.329,0.102
19.77,-0.354,-0.286,0.081
19.78,-0.265,-0.161,-0.004
19.79,-0.27,0.133,-0.039
19.8,-0.198,0.294,-0.055
19.81,-0.261,0.134,-0.049
19.82,-0.292,0.176,-0.021
19.83,-0.224,-0.03,-0.034
19.84,-0.245,-0.021,-0.069
19.85,-0.278,0.08,0.006
19.86,-0.249,0.079,0.042
19.87,-0.175,0.075,-0.013
19.88,-0.164,-0.153,-0.019
19.89,-0.178,-0.311,0.09
19.9,-0.165,-0.231,0.103
19.91,-0.245,0.009,0.122
19.92,-0.36,0.076,0.089
19.93,-0.208,0.369,-0.145
19.94,-0.253,0.303,-0.167
19.95,-0.296,0.022,-0.09
19.96,-0.238,0.02,-0.094
19.97,-0.258,-0.14,-0.006
19.98,-0.2,-0.177,0.026
19.99,-0.142,0.092,0.063
20.0,-0.125,0.068,0.148
20.01,-0.159,0.049,0.094
20.02,-0.248,0.07,-0.0
20.03,-0.281,-0.182,-0.049
20.04,-0.385,-0.002,-0.035
20.05,-0.354,0.127,-0.005
20.06,-0.255,0.095,-0.036
20.07,-0.316,0.208,-0.047
20.08,-0.243,0.095,-0.061
20.09,-0.166,0.001,0.005
20.1,-0.207,-0.057,0.005
20.11,-0.139,-0.161,0.061
20.12,-0.093,-0.068,0.021
20.13,-0.146,0.069,0.036
20.14,-0.294,0.066,0.068
20.15,-0.24,0.078,-0.021
20.16,-0.282,-0.041,-0.077
20.17,-0.376,-0.162,0.019
20.18,-0.302,0.06,0.009
20.19,-0.338,0.184,0.06
20.2,-0.322,0.247,-0.014
20.21,-0.142,0.316,-0.189
20.22,-0.083,-0.036,-0.185
20.23,-0.021,-0.354,-0.081
20.24,-0.072,-0.302,0.136
20.25,-0.287,-0.219,0.358
20.26,-0.248,0.119,0.254
20.27,-0.28,0.283,0.014
20.28,-0.327,0.188,-0.153
20.29,-0.217,0.02,-0.208
20.3,-0.4,-0.017,-0.091
20.31,-0.375,-0.123,-0.039
20.32,-0.271,0.025,-0.016
20.33,-0.21,0.224,0.024
20.34,-0.093,0.135,-0.0
20.35,-0.151,0.118,0.08
20.36,-0.134,-0.213,0.088
20.37,-0.249,-0.211,0.079
20.38,-0.282,-0.132,0.021
20.39,-0.202,-0.09,-0.019
20.4,-0.258,0.235,-0.041
20.41,-0.283,0.301,0.002
20.42,-0.373,0.043,-0.017
20.43,-0.343,-0.015,-0.101
20.44,-0.274,-0.095,-0.106
20.45,-0.257,-0.133,0.012
20.46,-0.143,0.133,0.017
20.47,-0.121,0.199,0.032
20.48,-0.041,0.051,-0.027
20.49,-0.05,0.014,-0.008
20.5,-0.285,-0.218,0.158
20.51,-0.276,-0.111,0.172
20.52,-0.331,0.023,0.041
20.53,-0.386,-0.019,-0.093
20.54,-0.322,0.151,-0.172
20.55,-0.387,0.157,-0.089
20.56,-0.223,-0.023,-0.001
20.57,-0.146,-0.051,-0.058
20.58,-0.105,-0.043,-0.011
20.59,-0.044,-0.046,0.028
20.6,-0.119,0.212,0.139
20.61,-0.171,0.126,0.165
20.62,-0.279,-0.038,0.047
20.63,-0.383,-0.053,-0.084
20.64,-0.384,-0.181,-0.133
20.65,-0.459,-0.019,-0.032
20.66,-0.35,0.161,-0.044
20.67,-0.141,0.154,-0.069
20.68,-0.144,0.181,-0.041
20.69,-0.139,0.106,0.039
20.7,-0.122,-0.085,0.055
20.71,-0.098,-0.122,0.043
20.72,-0.178,-0.104,0.096
20.73,-0.252,0.021,0.066
20.74,-0.325,0.098,0.021
20.75,-0.33,-0.024,-0.044
20.76,-0.243,-0.006,-0.141
20.77,-0.304,-0.062,-0.066
20.78,-0.285,-0.077,0.04
20.79,-0.254,0.277,0.07
20.8,-0.255,0.292,0.042
20.81,-0.192,0.214,-0.09
20.82,-0.038,0.026,-0.173
20.83,-0.141,-0.303,-0.042
20.84,-0.209,-0.446,0.124
20.85,-0.263,-0.098,0.277
20.86,-0.254,0.008,0.242
20.87,-0.271,0.227,-0.002
20.88,-0.273,0.28,-0.177
20.89,-0.211,-0.106,-0.185
20.9,-0.275,-0.046,-0.139
20.91,-0.406,-0.037,-0.009
20.92,-0.255,0.009,-0.007
20.93,-0.222,0.245,0.02
20.94,-0.122,0.26,-0.007
20.95,-0.112,0.145,0.045
20.96,-0.174,-0.083,0.088
20.97,-0.216,-0.257,0.119
20.98,-0.333,-0.257,0.026
20.99,-0.296,-0.103,-0.054
21.0,-0.285,0.006,-0.008
21.01,-0.202,0.283,-0.062
21.02,-0.283,0.245,-0.035
21.03,-0.32,-0.001,-0.031
21.04,-0.239,0.045,-0.101
21.05,-0.229,0.011,-0.032
21.06,-0.156,-0.018,0.026
21.07,-0.15,0.231,0.054
21.08,-0.198,0.022,0.077
21.09,-0.162,-0.187,-0.002
21.1,-0.263,-0.133,0.091
21.11,-0.328,-0.362,0.126
21.12,-0.264,-0.112,0.034
21.13,-0.331,0.138,-0.072
21.14,-0.259,0.185,-0.082
21.15,-0.219,0.363,-0.138
21.16,-0.207,0.176,-0.085
21.17,-0.134,-0.036,-0.059
21.18,-0.171,-0.058,-0.021
21.19,-0.24,-0.079,0.081
21.2,-0.226,-0.03,0.087
21.21,-0.225,0.051,0.105
21.22,-0.288,0.019,0.068
21.23,-0.274,-0.083,0.004
21.24,-0.293,-0.095,-0.048
21.25,-0.284,-0.018,-0.029
21.26,-0.237,0.152,-0.046
21.27,-0.213,0.209,-0.052
21.28,-0.243,0.153,-0.087
21.29,-0.219,0.212,-0.06
21.3,-0.236,0.083,0.015
21.31,-0.219,-0.135,0.033
21.32,-0.212,-0.14,0.035
21.33,-0.216,-0.136,0.124
21.34,-0.176,-0.131,0.102
21.35,-0.226,0.069,0.072
21.36,-0.184,-0.015,-0.031
21.37,-0.206,-0.026,-0.104
21.38,-0.321,0.06,-0.069
21.39,-0.375,0.046,0.007
21.4,-0.344,0.264,-0.01
21.41,-0.319,0.344,-0.066
21.42,-0.214,0.119,-0.123
21.43,-0.124,-0.058,-0.185
21.44,-0.131,-0.281,0.054
21.45,-0.067,-0.367,0.222
21.46,-0.158,-0.166,0.321
21.47,-0.178,0.03,0.2
21.48,-0.185,0.176,-0.058
21.49,-0.325,0.24,-0.185
21.5,-0.323,0.016,-0.193
21.51,-0.422,-0.013,-0.141
21.52,-0.402,0.074,-0.065
21.53,-0.244,0.092,0.005
21.54,-0.248,0.265,-0.01
21.55,-0.081,0.133,0.013
21.56,-0.077,-0.005,0.053
21.57,-0.108,-0.219,0.115
21.58,-0.222,-0.278,0.132
21.59,-0.281,-0.259,0.083
21.6,-0.23,0.042,-0.013
21.61,-0.306,0.146,-0.004
21.62,-0.29,0.261,-0.047
21.63,-0.357,0.231,-0.042
21.64,-0.379,-0.017,-0.046
21.65,-0.222,-0.0,-0.18
21.66,-0.252,-0.025,-0.082
21.67,-0.212,0.089,-0.014
21.68,-0.075,0.075,0.069
21.69,-0.123,0.048,0.094
21.7,-0.073,-0.226,0.043
21.71,-0.181,-0.205,0.118
21.72,-0.288,-0.158,0.151
21.73,-0.261,0.033,0.041
21.74,-0.421,0.188,-0.043
21.75,-0.31,0.213,-0.159
21.76,-0.264,0.187,-0.2
21.77,-0.354,0.013,-0.108
21.78,-0.209,-0.1,-0.044
21.79,-0.128,-0.067,0.052
21.8,-0.138,-0.036,0.083
21.81,-0.086,0.042,0.098
21.82,-0.089,0.052,0.117
21.83,-0.202,0.085,0.082
21.84,-0.315,-0.058,-0.002
21.85,-0.347,-0.075,-0.033
21.86,-0.406,0.031,-0.046
21.87,-0.331,0.11,-0.066
21.88,-0.319,0.119,-0.056
21.89,-0.269,0.099,-0.059
21.9,-0.233,0.151,-0.04
21.91,-0.154,-0.045,-0.012
21.92,-0.073,-0.074,0.001
21.93,-0.113,-0.116,0.034
21.94,-0.149,-0.012,0.119
21.95,-0.188,0.031,0.129
21.96,-0.323,0.12,0.09
21.97,-0.257,0.032,-0.021
21.98,-0.266,-0.123,-0.096
21.99,-0.388,-0.03,-0.105
22.0,-0.368,-0.026,0.012
22.01,-0.352,0.258,0.017
22.02,-0.245,0.332,-0.071
22.03,-0.127,0.16,-0.158
22.04,0.035,-0.021,-0.163
22.05,-0.087,-0.344,0.036
22.06,-0.125,-0.39,0.188
22.07,-0.233,-0.086,0.317
22.08,-0.306,0.138,0.237
22.09,-0.321,0.187,-0.007
22.1,-0.355,0.137,-0.195
22.11,-0.366,-0.074,-0.172
22.12,-0.385,-0.15,-0.11
22.13,-0.324,0.041,-0.031
22.14,-0.167,0.023,-0.001
22.15,-0.117,0.283,-0.05
22.16,-0.083,0.227,-0.013
22.17,-0.068,-0.005,0.048
22.18,-0.17,-0.101,0.099
22.19,-0.323,-0.258,0.102
22.2,-0.344,-0.191,0.047
22.21,-0.292,0.019,-0.002
22.22,-0.353,0.142,0.045
22.23,-0.298,0.199,-0.052
22.24,-0.271,0.145,-0.114
22.25,-0.242,-0.098,-0.121
22.26,-0.15,-0.01,-0.124
22.27,-0.214,0.053,-0.037
22.28,-0.161,0.111,0.079
22.29,-0.133,0.229,0.058
22.3,-0.185,0.049,0.068
22.31,-0.184,-0.183,0.053
22.32,-0.252,-0.272,0.082
22.33,-0.336,-0.217,0.088
22.34,-0.344,-0.118,-0.024
22.35,-0.383,0.191,-0.033
22.36,-0.258,0.176,-0.069
22.37,-0.205,0.29,-0.073
22.38,-0.21,0.029,-0.039
22.39,-0.15,-0.135,-0.041
22.4,-0.138,-0.04,-0.033
22.41,-0.122,-0.001,0.053
22.42,-0.226,0.085,0.095
22.43,-0.23,0.1,0.089
22.44,-0.299,0.026,-0.031
22.45,-0.363,-0.119,-0.052
22.46,-0.372,-0.08,-0.025
22.47,-0.327,-0.022,0.016
22.48,-0.215,0.101,-0.041
22.49,-0.181,0.199,-0.048
22.5,-0.266,0.176,-0.035
22.51,-0.183,0.158,-0.041
22.52,-0.138,0.059,-0.027
22.53,-0.115,-0.136,0.013
22.54,-0.205,-0.096,0.043
22.55,-0.293,-0.081,0.099
22.56,-0.246,-0.029,0.097
22.57,-0.298,0.014,0.026
22.58,-0.221,-0.061,-0.101
22.59,-0.212,-0.106,-0.098
22.6,-0.348,0.151,0.055
22.61,-0.308,0.149,0.089
22.62,-0.266,0.28,-0.014
22.63,-0.214,0.225,-0.12
22.64,-0.07,-0.021,-0.138
22.65,-0.146,-0.186,-0.069
22.66,-0.185,-0.311,0.039
22.67,-0.262,-0.282,0.202
22.68,-0.32,-0.016,0.213
22.69,-0.204,0.175,0.092
22.7,-0.194,0.13,-0.056
22.71,-0.178,0.197,-0.195
22.72,-0.345,-0.097,-0.097
22.73,-0.352,-0.095,-0.0
22.74,-0.238,0.171,-0.022
22.75,-0.268,0.129,0.018
22.76,-0.193,0.226,-0.056
22.77,-0.161,0.144,-0.065
22.78,-0.239,-0.149,0.067
22.79,-0.186,-0.157,0.033
22.8,-0.28,-0.282,0.111
22.81,-0.179,-0.154,0.017
22.82,-0.179,0.168,0.017
22.83,-0.306,0.228,0.055
22.84,-0.241,0.203,-0.039
22.85,-0.35,0.066,-0.044
22.86,-0.333,-0.053,-0.098
22.87,-0.28,-0.024,-0.075
22.88,-0.318,0.013,0.012
22.89,-0.184,0.095,0.0
22.9,-0.12,0.104,0.016
22.91,-0.071,-0.082,0.045
22.92,-0.124,-0.275,0.073
22.93,-0.2,-0.155,0.094
22.94,-0.201,-0.099,0.088
22.95,-0.382,0.099,0.033
22.96,-0.347,0.287,-0.078
22.97,-0.276,0.18,-0.109
22.98,-0.309,0.082,-0.114
22.99,-0.249,0.015,-0.063
23.0,-0.258,-0.139,0.022
23.01,-0.142,-0.059,0.012
23.02,-0.124,0.078,0.006
23.03,-0.086,-0.047,0.117
23.04,-0.135,0.036,0.1
23.05,-0.265,-0.004,0.063
23.06,-0.342,-0.167,0.009
23.07,-0.353,0.021,-0.066
23.08,-0.391,0.102,-0.047
23.09,-0.278,0.211,-0.063
23.1,-0.301,0.24,-0.061
23.11,-0.303,0.072,-0.066
23.12,-0.192,0.093,-0.038
23.13,-0.151,-0.134,0.032
23.14,-0.07,-0.193,0.054
23.15,-0.148,-0.151,0.091
23.16,-0.154,-0.032,0.112
23.17,-0.204,0.066,0.093
23.18,-0.318,0.144,-0.031
23.19,-0.282,0.018,-0.13
23.2,-0.342,-0.098,-0.084
23.21,-0.39,0.077,-0.002
23.22,-0.374,0.134,0.044
23.23,-0.335,0.214,-0.003
23.24,-0.199,0.262,-0.118
23.25,-0.047,-0.058,-0.096
23.26,-0.024,-0.227,-0.008
23.27,-0.052,-0.273,0.054
23.28,-0.167,-0.34,0.188
23.29,-0.233,0.156,0.189
23.3,-0.268,0.235,0.074
23.31,-0.365,0.239,-0.044
23.32,-0.343,0.047,-0.197
23.33,-0.372,-0.116,-0.167
23.34,-0.436,-0.127,-0.064
23.35,-0.337,0.078,0.012
23.36,-0.22,0.092,0.059
23.37,-0.026,0.281,-0.008
23.38,-0.057,0.055,0.001
23.39,-0.077,-0.162,0.081
23.4,-0.098,-0.158,0.062
23.41,-0.335,-0.261,0.14
23.42,-0.352,-0.076,0.047
23.43,-0.349,0.11,-0.031
23.44,-0.334,0.341,-0.085
23.45,-0.39,0.101,-0.114
23.46,-0.422,0.073,-0.046
23.47,-0.212,-0.071,-0.08
23.48,-0.144,-0.075,-0.029
23.49,-0.132,0.076,0.004
23.5,-0.04,0.038,0.039
23.51,-0.111,0.104,0.075
23.52,-0.086,0.018,0.033
23.53,-0.254,-0.199,0.129
23.54,-0.365,-0.111,0.043
23.55,-0.285,-0.084,-0.018
23.56,-0.421,-0.004,-0.031
23.57,-0.34,0.209,-0.108
23.58,-0.252,0.18,-0.087
23.59,-0.202,0.045,-0.04
23.6,-0.142,0.045,-0.063
23.61,-0.137,-0.08,0.005
23.62,-0.075,-0.073,0.035
23.63,-0.132,0.115,0.073
23.64,-0.224,0.027,0.16
23.65,-0.252,0.03,0.087
23.66,-0.366,-0.115,0.026
23.67,-0.375,-0.182,-0.051
23.68,-0.334,-0.084,-0.06
23.69,-0.368,0.128,-0.048
23.7,-0.228,0.148,-0.065
23.71,-0.205,0.281,-0.102
23.72,-0.22,0.18,-0.031
23.73,-0.128,0.051,-0.046
23.74,-0.103,-0.057,-0.031
23.75,-0.123,-0.188,0.093
23.76,-0.199,-0.076,0.166
23.77,-0.286,0.022,0.162
23.78,-0.295,0.006,0.056
23.79,-0.25,0.002,-0.116
23.8,-0.275,-0.064,-0.193
23.81,-0.329,-0.156,-0.04
23.82,-0.326,0.124,0.041
23.83,-0.284,0.276,0.045
23.84,-0.247,0.268,-0.022
23.85,-0.052,0.203,-0.189
23.86,-0.073,-0.134,-0.068
23.87,-0.148,-0.372,0.09
23.88,-0.218,-0.175,0.214
23.89,-0.305,-0.254,0.221
23.9,-0.288,0.151,0.1
23.91,-0.342,0.186,-0.029
23.92,-0.307,0.047,-0.134
23.93,-0.265,0.036,-0.159
23.94,-0.279,-0.113,-0.11
23.95,-0.282,0.052,-0.04
23.96,-0.228,0.202,0.004
23.97,-0.133,0.222,0.038
23.98,-0.062,0.162,-0.027
23.99,-0.167,0.006,0.027
24.0,-0.204,-0.343,0.052
24.01,-0.368,-0.267,0.088
24.02,-0.34,-0.093,0.07
24.03,-0.269,-0.065,0.038
24.04,-0.259,0.26,-0.056
24.05,-0.222,0.25,-0.082
24.06,-0.252,0.044,-0.035
24.07,-0.219,0.071,-0.085
24.08,-0.208,-0.093,-0.045
24.09,-0.205,0.038,0.011
24.1,-0.176,0.218,0.016
24.11,-0.224,0.09,0.084
24.12,-0.206,-0.023,-0.023
24.13,-0.233,-0.142,-0.023
24.14,-0.269,-0.4,0.064
24.15,-0.22,-0.108,0.083
24.16,-0.272,-0.093,0.116
24.17,-0.295,0.251,0.043
24.18,-0.221,0.313,-0.053
24.19,-0.251,0.16,-0.097
24.2,-0.25,0.032,-0.125
24.21,-0.239,-0.071,-0.067
24.22,-0.247,-0.118,0.012
24.23,-0.235,-0.034,0.012
24.24,-0.213,0.07,0.068
24.25,-0.165,-0.008,0.094
24.26,-0.126,0.009,0.073
24.27,-0.252,-0.145,0.019
24.28,-0.322,-0.103,-0.032
24.29,-0.326,0.066,-0.017
24.3,-0.321,0.187,-0.027
24.31,-0.27,0.274,-0.116
24.32,-0.291,0.221,-0.057
24.33,-0.255,0.093,-0.037
24.34,-0.215,-0.056,-0.037
24.35,-0.151,-0.245,0.072
24.36,-0.114,-0.15,0.073
24.37,-0.148,-0.089,0.113
24.38,-0.15,0.08,0.067
24.39,-0.224,0.139,0.016
24.4,-0.259,0.005,-0.07
24.41,-0.34,-0.091,-0.059
24.42,-0.388,-0.108,0.008
24.43,-0.31,0.17,0.026
24.44,-0.384,0.229,0.073
24.45,-0.308,0.302,-0.071
24.46,-0.125,0.155,-0.204
24.47,-0.122,-0.234,-0.091
24.48,-0.001,-0.385,0.001
24.49,-0.158,-0.233,0.171
24.5,-0.219,-0.116,0.274
24.51,-0.178,0.234,0.107
24.52,-0.293,0.32,-0.023
24.53,-0.285,0.056,-0.154
24.54,-0.379,-0.089,-0.167
24.55,-0.406,-0.073,-0.048
24.56,-0.348,-0.024,-0.004
24.57,-0.355,0.141,0.019
24.58,-0.156,0.165,-0.009
24.59,-0.001,0.131,-0.024
24.6,-0.104,-0.025,0.076
24.61,-0.127,-0.287,0.093
24.62,-0.266,-0.191,0.073
24.63,-0.281,-0.102,0.024
24.64,-0.244,0.078,-0.035
24.65,-0.3,0.285,-0.043
24.66,-0.378,0.259,-0.037
24.67,-0.341,-0.049,-0.007
24.68,-0.291,0.113,-0.054
24.69,-0.323,-0.147,-0.017
24.7,-0.228,-0.051,-0.025
24.71,-0.024,0.127,-0.038
24.72,-0.078,0.025,0.032
24.73,-0.092,0.001,0.02
24.74,-0.233,-0.144,0.089
24.75,-0.223,-0.174,0.107
24.76,-0.198,-0.015,0.047
24.77,-0.391,0.056,0.032
24.78,-0.379,0.035,-0.058
24.79,-0.305,0.299,-0.157
24.8,-0.315,0.069,-0.082
24.81,-0.295,-0.02,-0.049
24.82,-0.144,0.02,-0.022
24.83,-0.077,-0.115,0.03
24.84,-0.014,0.021,0.05
24.85,-0.069,0.053,0.067
24.86,-0.197,0.001,0.106
24.87,-0.297,0.005,0.082
24.88,-0.358,-0.032,0.017
24.89,-0.412,-0.093,-0.089
24.9,-0.464,0.072,-0.104
24.91,-0.351,0.13,-0.05
24.92,-0.261,0.175,-0.045
24.93,-0.214,0.133,0.004
24.94,-0.083,0.04,-0.053
24.95,-0.047,-0.054,-0.024
24.96,-0.077,-0.14,0.07
24.97,-0.154,-0.065,0.152
24.98,-0.272,0.053,0.117
24.99,-0.3,0.08,0.038
25.0,-0.331,-0.031,-0.084
25.01,-0.311,-0.078,-0.182
25.02,-0.348,-0.11,-0.034
25.03,-0.362,-0.024,0.102
25.04,-0.288,0.285,0.069
25.05,-0.215,0.269,-0.035
25.06,-0.146,0.204,-0.152
25.07,0.015,0.004,-0.174
25.08,-0.077,-0.292,0.005
25.09,-0.15,-0.384,0.15
25.1,-0.269,-0.134,0.237
25.11,-0.325,0.049,0.297
25.12,-0.262,0.254,0.027
25.13,-0.314,0.191,-0.189
25.14,-0.301,-0.034,-0.214
25.15,-0.331,-0.085,-0.159
25.16,-0.382,-0.038,0.023
25.17,-0.248,0.063,0.018
25.18,-0.134,0.17,0.03
25.19,-0.1,0.193,0.039
25.2,-0.053,0.045,0.036
25.21,-0.14,-0.085,0.124
25.22,-0.0,-0.0,-0.865
25.23,-0.245,0.228,-0.092
25.24,-0.167,0.227,-0.093
25.25,-0.176,-0.004,-0.031
25.26,-0.151,-0.078,0.011
25.27,-0.143,0.083,-0.004
25.28,-0.125,-0.162,0.091
25.29,-0.222,0.118,0.129
25.3,-0.306,-0.02,0.08
25.31,-0.344,-0.195,0.092
25.32,-0.307,-0.029,-0.025
25.33,-0.315,-0.089,-0.058
25.34,-0.312,0.034,-0.026
25.35,-0.202,0.295,-0.074
25.36,-0.171,0.275,-0.064
25.37,-0.231,0.093,-0.049
25.38,-0.265,0.115,-0.002
25.39,-0.154,-0.093,0.022
25.4,-0.164,-0.113,0.072
25.41,-0.272,-0.102,0.097
25.42,-0.209,-0.095,0.121
25.43,-0.186,0.087,0.028
25.44,-0.241,0.005,-0.021
25.45,-0.154,-0.092,-0.087
25.46,-0.235,-0.029,-0.073
25.47,-0.396,0.025,0.067
25.48,-0.309,0.161,0.037
25.49,-0.344,0.367,0.004
25.5,-0.304,0.227,-0.031
25.51,-0.134,0.068,-0.143
25.52,-0.089,-0.171,-0.093
25.53,-0.163,-0.464,0.091
25.54,-0.135,-0.252,0.189
25.55,-0.186,-0.023,0.272
25.56,-0.205,0.128,0.115
25.57,-0.252,0.26,-0.096
25.58,-0.278,0.095,-0.215
25.59,-0.387,-0.084,-0.129
25.6,-0.422,-0.045,-0.035
25.61,-0.34,0.081,0.016
25.62,-0.268,0.161,0.016
25.63,-0.096,0.251,-0.015
25.64,-0.158,0.031,0.022
25.65,-0.121,-0.124,0.127
25.66,-0.152,-0.208,0.121
25.67,-0.253,-0.32,0.107
25.68,-0.206,-0.096,-0.023
25.69,-0.27,0.111,-0.06
25.7,-0.318,0.234,-0.041
25.71,-0.269,0.242,-0.08
25.72,-0.396,0.136,0.006
25.73,-0.261,0.085,-0.07
25.74,-0.273,-0.031,0.004
25.75,-0.256,0.022,0.013
25.76,-0.077,0.078,-0.036
25.77,-0.166,-0.02,0.062
25.78,-0.067,-0.17,0.069
25.79,-0.169,-0.235,0.078
25.8,-0.325,-0.2,0.172
25.81,-0.216,-0.151,0.097
25.82,-0.294,0.234,-0.024
25.83,-0.371,0.22,-0.055
25.84,-0.322,0.212,-0.111
25.85,-0.287,0.176,-0.137
25.86,-0.213,-0.031,-0.112
25.87,-0.224,-0.115,0.0
25.88,-0.153,0.012,0.015
25.89,-0.136,-0.093,0.104
25.9,-0.12,-0.024,0.126
25.91,-0.136,0.07,0.11
25.92,-0.279,-0.161,0.114
25.93,-0.287,-0.025,-0.006
25.94,-0.323,0.032,-0.097
25.95,-0.374,0.095,-0.051
25.96,-0.324,0.271,-0.073
25.97,-0.295,0.189,-0.085
25.98,-0.292,0.1,-0.068
25.99,-0.27,0.044,-0.05
26.0,-0.133,-0.123,0.019
26.01,-0.072,-0.113,0.083
26.02,-0.1,-0.041,0.148
26.03,-0.085,-0.072,0.121
26.04,-0.188,0.033,0.053
26.05,-0.283,0.049,0.005
26.06,-0.251,-0.134,-0.06
26.07,-0.398,0.006,-0.072
26.08,-0.463,0.016,0.019
26.09,-0.404,0.222,-0.017
26.1,-0.354,0.346,-0.064
26.11,-0.222,0.184,-0.07
26.12,0.003,-0.087,-0.134
26.13,0.083,-0.194,-0.084
26.14,-0.019,-0.384,0.109
26.15,-0.168,-0.284,0.275
26.16,-0.267,0.177,0.283
26.17,-0.271,0.178,0.137
26.18,-0.322,0.243,-0.122
26.19,-0.369,0.023,-0.204
26.2,-0.449,-0.14,-0.189
26.21,-0.429,-0.072,-0.034
26.22,-0.29,0.201,0.007
26.23,-0.138,0.095,-0.032
26.24,-0.024,0.24,-0.043
26.25,-0.01,0.129,0.033
26.26,-0.116,-0.092,0.146
26.27,-0.22,-0.2,0.138
26.28,-0.358,-0.227,0.138
26.29,-0.281,-0.141,-0.012
26.3,-0.356,0.133,-0.027
26.31,-0.322,0.076,-0.036
26.32,-0.288,0.204,-0.064
26.33,-0.408,0.057,-0.024
26.34,-0.211,-0.079,-0.069
26.35,-0.179,0.104,-0.103
26.36,-0.164,0.063,0.015
26.37,-0.143,0.083,0.007
26.38,-0.149,0.047,0.063
26.39,-0.155,-0.116,0.112
26.4,-0.203,-0.156,-0.879
26.41,-0.287,-0.097,0.125
26.42,-0.23,-0.135,0.048
26.43,-0.346,0.08,-0.03
26.44,-0.34,0.171,-0.099
26.45,-0.265,0.123,-0.093
26.46,-0.237,0.118,-0.113
26.47,-0.228,0.038,-0.083
26.48,-0.172,-0.074,0.021
26.49,-0.124,0.063,0.062
26.5,-0.135,0.046,0.112
26.51,-0.111,0.05,0.135
26.52,-0.195,0.042,0.067
26.53,-0.282,-0.112,0.024
26.54,-0.364,-0.158,-0.003
26.55,-0.44,-0.044,-0.019
26.56,-0.394,0.011,-0.02
26.57,-0.251,0.156,-0.05
26.58,-0.262,0.208,-0.06
26.59,-0.185,0.103,-0.04
26.6,-0.201,0.135,0.027
26.61,-0.093,-0.078,0.007
26.62,-0.096,-0.089,0.025
26.63,-0.181,-0.053,0.089
26.64,-0.22,-0.047,0.14
26.65,-0.336,0.075,0.077
26.66,-0.345,-0.006,-0.015
26.67,-0.246,-0.212,-0.062
26.68,-0.0,-0.0,-0.857
26.69,-0.163,0.135,-0.001
26.7,-0.132,-0.209,0.046
26.71,-0.243,-0.226,0.067
26.72,-0.386,-0.217,0.098
26.73,-0.188,-0.163,-0.0
26.74,-0.141,0.161,-0.03
26.75,-0.28,0.23,0.047
26.76,-0.318,0.13,0.021
26.77,-0.263,0.08,-0.023
26.78,-0.24,0.029,-0.036
26.79,-0.285,0.009,-0.045
26.8,-0.238,0.087,-0.005
26.81,-0.198,0.161,0.017
26.82,-0.131,0.07,-0.057
26.83,-0.195,-0.064,0.051
26.84,-0.2,-0.375,-0.866
26.85,-0.248,-0.143,0.175
26.86,-0.209,-0.116,0.14
26.87,-0.276,0.054,0.02
26.88,-0.361,0.279,-0.038
26.89,-0.242,0.219,-0.86
26.9,-0.267,0.156,-0.041
26.91,-0.226,-0.01,-0.068
26.92,-0.167,-0.128,-0.008
26.93,-0.205,-0.039,0.058
26.94,-0.234,0.003,0.13
26.95,-0.232,-0.089,0.159
26.96,-0.144,0.044,0.098
26.97,-0.272,-0.116,0.023
26.98,-0.287,-0.083,-0.002
26.99,-0.286,0.064,0.002
27.0,-0.307,0.163,-0.012
27.01,-0.24,0.278,-0.046
27.02,-0.201,0.188,-0.059
27.03,-0.305,0.097,-0.01
27.04,-0.269,0.003,-0.005
27.05,-0.171,-0.1,0.064
27.06,-0.182,-0.176,0.087
27.07,-0.186,-0.071,0.096
27.08,-0.181,-0.038,0.102
27.09,-0.119,-0.008,0.097
27.1,-0.158,0.106,0.005
27.11,-0.242,-0.04,-0.051
27.12,-0.271,-0.124,-0.038
27.13,-0.391,0.199,0.04
27.14,-0.406,0.226,0.086
27.15,-0.349,0.214,-0.012
27.16,-0.271,0.22,-0.121
27.17,-0.143,-0.094,-0.115
27.18,-0.0,-0.0,-0.841
27.19,-0.365,0.24,0.056
27.2,-0.38,0.241,0.017
27.21,-0.402,0.084,-0.059
27.22,-0.376,0.035,-0.138
27.23,-0.247,-0.107,-0.05
27.24,-0.132,-0.002,0.036
27.25,-0.144,0.118,0.094
27.26,-0.067,-0.05,0.089
27.27,0.015,0.091,0.037
27.28,-0.188,-0.197,0.172
27.29,-0.328,-0.203,0.172
27.3,-0.297,-0.075,0.099
27.31,-0.323,0.057,-0.018
27.32,-0.413,0.155,-0.025
27.33,-0.358,0.284,-0.097
27.34,-0.263,0.106,-0.071
27.35,-0.157,-0.047,-0.062
27.36,-0.156,-0.074,0.024
27.37,-0.133,-0.205,0.074
27.38,-0.072,0.034,0.112
27.39,-0.176,0.132,0.174
27.4,-0.184,0.053,0.1
27.41,-0.247,0.104,0.039
27.42,-0.271,-0.064,-0.021
27.43,-0.347,-0.095,-0.018
27.44,-0.443,0.043,-0.031
27.45,-0.342,0.039,-0.034
27.46,-0.271,0.19,-0.061
27.47,-0.23,0.206,-0.016
27.48,-0.219,0.063,0.046
27.49,-0.164,0.011,0.043
27.5,-0.052,-0.076,0.044
27.51,-0.07,-0.221,0.099
27.52,-0.0,-0.0,-0.84
27.53,-0.38,-0.104,-0.132
27.54,-0.353,-0.13,-0.019
27.55,-0.156,0.143,0.009
27.56,-0.173,0.208,0.09
27.57,-0.015,0.242,0.053
27.58,-0.071,0.165,0.057
27.59,-0.218,-0.132,0.179
27.6,-0.229,-0.291,0.151
27.61,-0.381,-0.236,0.121
27.62,-0.417,-0.231,0.051
27.63,-0.31,0.072,0.001
27.64,-0.264,0.36,-0.055
27.65,-0.224,0.124,-0.042
27.66,-0.338,0.131,-0.026
27.67,-0.167,0.046,-0.141
27.68,-0.173,-0.095,0.011
27.69,-0.189,0.069,0.051
27.7,-0.149,0.174,0.081
27.71,-0.209,0.032,0.102
27.72,-0.157,-0.062,0.083
27.73,-0.288,-0.221,0.096
27.74,-0.342,-0.264,0.112
27.75,-0.222,-0.065,0.037
27.76,-0.29,0.05,0.02
27.77,-0.315,0.235,-0.03
27.78,-0.252,0.275,-0.071
27.79,-0.221,0.049,-0.022
27.8,-0.148,0.035,-0.085
27.81,-0.239,-0.049,0.038
27.82,-0.176,-0.084,0.068
27.83,-0.14,0.034,0.094
27.84,-0.214,0.101,0.119
27.85,-0.23,-0.014,0.074
27.86,-0.312,-0.06,0.051
27.87,-0.302,-0.167,0.013
27.88,-0.309,-0.006,-0.008
27.89,-0.363,0.113,0.013
27.9,-0.238,0.165,-0.027
27.91,-0.214,0.292,-0.069
27.92,-0.265,0.132,-0.037
27.93,-0.2,0.024,0.019
27.94,-0.137,-0.127,0.012
27.95,-0.152,-0.112,-0.024
27.96,-0.206,-0.18,0.158
27.97,-0.227,0.028,0.17
27.98,-0.276,0.045,0.121
27.99,-0.229,-0.008,-0.016
28.0,-0.146,0.031,-0.112
28.01,-0.321,-0.064,-0.031
28.02,-0.36,0.071,0.018
28.03,-0.281,0.219,0.034
28.04,-0.263,0.283,0.001
28.05,-0.164,0.238,-0.111
28.06,-0.146,-0.055,-0.134
28.07,-0.131,-0.314,-0.001
28.08,-0.141,-0.276,0.136
28.09,-0.313,-0.29,0.351
28.1,-0.206,-0.016,0.228
28.11,-0.174,0.23,0.015
28.12,-0.285,0.152,-0.061
28.13,-0.212,0.111,-0.167
28.14,-0.357,-0.048,-0.086
28.15,-0.375,-0.015,0.013
28.16,-0.298,0.072,0.008
28.17,-0.246,0.195,-0.02
28.18,-0.214,0.088,-0.01
28.19,-0.149,0.134,0.038
28.2,-0.142,-0.124,0.104
28.21,-0.23,-0.362,0.085
28.22,-0.197,-0.156,0.052
28.23,-0.114,-0.058,0.02
28.24,-0.287,0.19,0.104
28.25,-0.243,0.321,-0.023
28.26,-0.345,0.203,-0.041
28.27,-0.386,0.047,-0.07
28.28,-0.298,-0.092,-0.116
28.29,-0.367,-0.175,-0.012
28.3,-0.245,0.042,0.053
28.31,-0.138,0.139,0.063
28.32,-0.056,0.075,0.055
28.33,-0.022,-0.082,0.003
28.34,-0.143,-0.118,0.118
28.35,-0.183,-0.247,0.116
28.36,-0.315,0.062,0.068
28.37,-0.473,0.039,0.059
28.38,-0.343,0.271,-0.067
28.39,-0.326,0.218,-0.094
28.4,-0.329,-0.023,-0.079
28.41,-0.194,-0.135,-0.054
28.42,-0.194,-0.064,0.009
28.43,-0.087,-0.172,0.08
28.44,-0.07,0.029,0.1
28.45,-0.105,0.236,0.073
28.46,-0.16,0.013,0.065
28.47,-0.329,0.092,0.049
28.48,-0.409,-0.069,-0.041
28.49,-0.362,-0.036,-0.037
28.5,-0.351,0.086,-0.025
28.51,-0.367,0.069,-0.065
28.52,-0.256,0.167,-0.049
28.53,-0.195,0.155,-0.027
28.54,-0.147,0.002,0.033
28.55,-0.067,-0.06,0.021
28.56,-0.093,-0.165,0.044
28.57,-0.136,-0.103,0.095
28.58,-0.21,0.059,0.1
28.59,-0.327,0.067,0.097
28.6,-0.267,0.111,-0.045
28.61,-0.25,0.031,-0.095
28.62,-0.433,-0.051,-0.03
28.63,-0.359,-0.162,0.002
28.64,-0.292,0.233,0.056
28.65,-0.291,0.149,0.072
28.66,-0.163,0.209,-0.045
28.67,-0.027,0.029,-0.159
28.68,-0.039,-0.286,-0.075
28.69,-0.0,-0.0,-0.853
28.7,-0.322,0.226,-0.085
28.71,-0.281,-0.009,-0.069
28.72,-0.24,-0.055,-0.05
28.73,-0.153,-0.078,-0.002
28.74,-0.145,-0.036,0.093
28.75,-0.127,0.179,0.084
28.76,-0.104,0.217,0.075
28.77,-0.175,0.004,0.016
28.78,-0.295,-0.088,0.021
28.79,-0.384,-0.281,-0.861
28.8,-0.337,-0.169,0.055
28.81,-0.376,0.001,0.02
28.82,-0.358,0.098,0.012
28.83,-0.104,0.267,-0.07
28.84,-0.161,0.197,-0.018
28.85,-0.187,-0.071,0.022
28.86,-0.097,-0.08,-0.04
28.87,-0.141,-0.014,0.015
28.88,-0.224,-0.014,0.103
28.89,-0.236,0.192,0.135
28.9,-0.304,0.109,0.113
28.91,-0.38,-0.043,-0.019
28.92,-0.337,-0.12,-0.049
28.93,-0.342,-0.166,0.004
28.94,-0.267,0.006,-0.002
28.95,-0.198,0.245,0.004
28.96,-0.13,0.155,-0.015
28.97,-0.193,0.295,-0.025
28.98,-0.185,0.062,0.04
28.99,-0.128,-0.158,0.071
29.0,-0.231,-0.215,0.022
29.01,-0.246,-0.16,0.068
29.02,-0.26,-0.068,0.113
29.03,-0.349,0.248,0.119
29.04,-0.324,0.096,-0.002
29.05,-0.139,-0.018,-0.153
29.06,-0.214,-0.089,-0.102
29.07,-0.272,-0.085,0.043
29.08,-0.284,0.109,0.128
29.09,-0.243,0.304,0.058
29.1,-0.212,0.278,-0.008
29.11,-0.115,0.087,-0.143
29.12,-0.13,-0.155,-0.089
29.13,-0.113,-0.403,0.049
29.14,-0.317,-0.216,0.249
29.15,-0.0,-0.0,-0.844
29.16,-0.224,-0.061,-0.036
29.17,-0.131,-0.002,-0.072
29.18,-0.269,-0.14,0.059
29.19,-0.222,0.017,0.106
29.2,-0.0,-0.0,-0.836
29.21,-0.363,0.001,0.022
29.22,-0.359,0.062,0.037
29.23,-0.278,0.173,-0.045
29.24,-0.29,0.144,-0.013
29.25,-0.284,0.156,-0.032
29.26,-0.2,0.002,0.03
29.27,-0.149,-0.139,0.062
29.28,-0.058,-0.161,0.065
29.29,-0.159,-0.107,0.137
29.3,-0.166,-0.004,0.131
29.31,-0.287,0.189,0.06
29.32,-0.252,0.093,-0.023
29.33,-0.256,-0.038,-0.071
29.34,-0.347,-0.06,-0.012
29.35,-0.396,-0.038,0.096
29.36,-0.285,0.129,0.071
29.37,-0.266,0.31,0.01
29.38,-0.203,0.197,-0.057
29.39,-0.045,0.019,-0.108
29.4,-0.073,-0.171,-0.054
29.41,-0.125,-0.427,0.129
29.42,-0.244,-0.215,0.276
29.43,-0.296,0.053,0.301
29.44,-0.274,0.156,0.128
29.45,-0.273,0.263,-0.111
29.46,-0.247,0.075,-0.187
29.47,-0.358,-0.097,-0.091
29.48,-0.443,-0.009,0.018
29.49,-0.336,0.029,0.065
29.5,-0.144,0.105,-0.007
29.51,-0.119,0.152,-0.03
29.52,-0.096,-0.0,-0.851
29.53,-0.107,-0.111,0.138
29.54,-0.257,-0.146,0.183
29.55,-0.26,-0.177,0.098
29.56,-0.246,0.023,-0.011
29.57,-0.338,0.157,-0.009
29.58,-0.0,-0.0,-0.831
29.59,-0.089,-0.02,0.033
29.6,-0.069,0.108,0.052
29.61,-0.059,0.051,0.131
29.62,-0.123,0.138,0.187
29.63,-0.375,-0.012,0.134
29.64,-0.371,-0.125,0.036
29.65,-0.449,-0.094,-0.078
29.66,-0.475,-0.04,0.012
29.67,-0.296,0.17,-0.021
29.68,-0.206,0.194,0.001
29.69,-0.196,0.172,0.001
29.7,-0.094,0.151,-0.044
29.71,-0.071,-0.044,0.044
29.72,-0.001,-0.095,0.044
29.73,-0.155,-0.054,0.104
29.74,-0.256,0.018,0.174
29.75,-0.342,0.031,0.129
29.76,-0.403,0.05,0.019
29.77,-0.306,-0.118,-0.07
29.78,-0.329,-0.207,-0.031
29.79,-0.309,-0.037,0.096
29.8,-0.268,0.184,0.128
29.81,-0.234,0.28,0.051
29.82,-0.175,0.392,-0.133
29.83,-0.053,0.03,-0.15
29.84,-0.042,-0.183,-0.104
29.85,-0.169,-0.289,0.057
29.86,-0.344,-0.298,0.318
29.87,-0.331,0.048,0.322
29.88,-0.28,0.173,0.133
29.89,-0.268,0.157,-0.085
29.9,-0.178,0.01,-0.154
29.91,-0.282,-0.066,-0.091
29.92,-0.315,-0.079,-0.017
29.93,-0.307,0.111,0.039
29.94,-0.243,0.145,0.037
29.95,-0.105,0.262,-0.053
29.96,-0.156,0.187,0.045
29.97,-0.175,-0.102,0.126
29.98,-0.243,-0.181,0.132
29.99,-0.345,-0.308,0.122
30.0,-0.228,-0.131,-0.007
30.01,-0.254,0.078,-0.041
30.02,-0.229,0.227,0.024
30.03,-0.274,0.089,0.02
30.04,-0.342,0.123,0.079
30.05,-0.267,-0.092,0.026
30.06,-0.219,-0.036,-0.017
30.07,-0.208,0.133,-0.015
30.08,-0.152,0.112,0.017
30.09,-0.208,0.174,0.007
30.1,-0.165,-0.016,-0.024
30.11,-0.217,-0.284,0.077
30.12,-0.262,-0.194,0.112
30.13,-0.249,-0.109,0.129
30.14,-0.339,-0.045,0.093
30.15,-0.267,0.251,0.0
30.16,-0.223,0.204,-0.033
30.17,-0.27,0.123,-0.068
30.18,-0.203,0.052,-0.088
30.19,-0.195,-0.098,-0.003
30.2,-0.123,-0.007,0.021
30.21,-0.227,0.07,0.072
30.22,-0.233,-0.097,0.153
30.23,-0.225,0.054,0.089
30.24,-0.279,-0.056,0.067
30.25,-0.27,-0.202,0.014
30.26,-0.302,0.02,-0.034
30.27,-0.339,0.128,0.012
30.28,-0.189,0.232,-0.049
30.29,-0.216,0.246,-0.039
30.3,-0.238,0.074,-0.006
30.31,-0.238,0.077,0.014
30.32,-0.206,-0.154,0.05
30.33,-0.188,-0.172,0.06
30.34,-0.296,-0.073,0.088
30.35,-0.214,-0.065,0.097
30.36,-0.157,0.073,0.038
30.37,-0.198,0.088,-0.04
30.38,-0.196,-0.035,-0.063
30.39,-0.26,-0.077,-0.002
30.4,-0.314,0.133,0.096
30.41,-0.354,0.156,0.099
30.42,-0.333,0.25,-0.865
30.43,-0.215,0.257,-0.129
30.44,-0.171,-0.102,-0.141
30.45,-0.168,-0.247,-0.045
30.46,-0.091,-0.319,0.105
30.47,-0.163,-0.217,0.314
30.48,-0.133,0.067,0.244
30.49,-0.203,0.227,0.06
30.5,-0.281,0.148,-0.103
30.51,-0.249,0.109,-0.182
30.52,-0.413,-0.062,-0.044
30.53,-0.449,-0.056,0.02
30.54,-0.348,0.1,0.057
30.55,-0.284,0.096,0.017
30.56,-0.116,0.125,0.005
30.57,-0.107,0.039,0.058
30.58,-0.0,-0.0,-0.843
30.59,-0.367,0.201,-0.047
30.6,-0.297,0.237,-0.11
30.61,-0.322,0.116,-0.054
30.62,-0.282,-0.038,-0.031
30.63,-0.223,-0.06,-0.008
30.64,-0.078,-0.174,0.051
30.65,-0.095,-0.037,0.092
30.66,-0.162,0.072,0.165
30.67,-0.147,-0.019,0.17
30.68,-0.206,0.106,0.043
30.69,-0.344,-0.045,-0.009
30.7,-0.367,-0.037,-0.068
30.71,-0.367,0.105,-0.024
30.72,-0.317,0.21,-0.038
30.73,-0.297,0.115,-0.027
30.74,-0.337,0.094,-0.007
30.75,-0.178,-0.04,0.008
30.76,-0.115,-0.086,0.049
30.77,-0.09,-0.103,0.113
30.78,-0.104,-0.023,0.086
30.79,-0.136,0.016,0.097
30.8,-0.17,0.169,0.073
30.81,-0.263,0.027,0.031
30.82,-0.326,0.008,-0.056
30.83,-0.35,-0.227,-0.054
30.84,-0.369,0.003,-0.011
30.85,-0.403,0.16,0.087
30.86,-0.386,0.203,0.107
30.87,-0.212,0.289,-0.048
30.88,-0.062,0.166,-0.158
30.89,0.061,-0.294,-0.064
30.9,0.011,-0.334,0.03
30.91,-0.182,-0.2,0.258
30.92,-0.291,-0.077,0.377
30.93,-0.309,0.325,0.147
30.94,-0.326,0.191,-0.114
30.95,-0.395,0.02,-0.216
30.96,-0.441,-0.061,-0.125
30.97,-0.463,-0.088,0.031
30.98,-0.234,0.014,0.033
30.99,-0.159,0.177,-0.05
31.0,-0.035,0.177,-0.023
31.01,0.039,0.099,0.03
31.02,-0.099,0.057,0.165
31.03,-0.226,-0.256,0.2
31.04,-0.0,-0.0,-0.846
31.05,-0.187,0.333,-0.082
31.06,-0.21,0.028,-0.035
31.07,-0.193,0.027,-0.041
31.08,-0.117,-0.039,-0.038
31.09,-0.118,-0.072,0.084
31.1,-0.189,0.094,0.151
31.11,-0.241,0.06,0.179
31.12,-0.277,-0.043,0.081
31.13,-0.31,-0.088,-0.018
31.14,-0.365,-0.096,-0.021
31.15,-0.306,-0.03,0.012
31.16,-0.317,0.146,-0.004
31.17,-0.251,0.199,-0.048
31.18,-0.188,0.189,-0.093
31.19,-0.19,0.145,-0.04
31.2,-0.0,-0.0,-0.838
31.21,-0.194,0.088,0.155
31.22,-0.295,0.244,-0.044
31.23,-0.261,0.058,-0.119
31.24,-0.257,-0.017,-0.151
31.25,-0.33,0.022,-0.066
31.26,-0.279,0.057,0.016
31.27,-0.231,0.151,0.046
31.28,-0.156,0.302,0.04
31.29,-0.09,0.128,0.016
31.3,-0.228,-0.119,0.1
31.31,-0.271,-0.254,0.123
31.32,-0.31,-0.32,0.163
31.33,-0.274,-0.156,0.096
31.34,-0.204,-0.052,0.051
31.35,-0.238,0.276,0.001
31.36,-0.232,0.206,-0.002
31.37,-0.309,0.094,-0.85
31.38,-0.281,0.071,-0.079
31.39,-0.252,0.038,-0.088
31.4,-0.275,-0.016,0.018
31.41,-0.249,0.197,-0.017
31.42,-0.231,0.07,0.082
31.43,-0.074,-0.117,0.064
31.44,-0.075,-0.184,0.077
31.45,-0.226,-0.317,0.23
31.46,-0.203,-0.073,0.219
31.47,-0.273,0.125,0.056
31.48,-0.374,0.111,0.01
31.49,-0.278,0.303,-0.141
31.5,-0.35,0.172,-0.142
31.51,-0.269,-0.067,-0.04
31.52,-0.211,-0.002,-0.033
31.53,-0.201,-0.065,0.053
31.54,-0.138,-0.119,0.123
31.55,-0.023,0.123,0.135
31.56,-0.115,0.086,0.145
31.57,-0.291,-0.036,0.11
31.58,-0.284,-0.031,0.033
31.59,-0.343,-0.092,0.0
31.6,-0.447,0.037,-0.001
31.61,-0.246,0.184,-0.046
31.62,-0.212,0.162,-0.081
31.63,-0.329,0.126,0.015
31.64,-0.263,0.024,0.056
31.65,-0.057,-0.1,-0.001
31.66,-0.086,-0.123,0.023
31.67,-0.146,-0.076,0.087
31.68,-0.114,0.045,0.081
31.69,-0.298,0.109,0.144
31.7,-0.278,0.002,0.062
31.71,-0.177,-0.0,-0.853
31.72,-0.373,-0.138,-0.032
31.73,-0.363,-0.058,0.057
31.74,-0.34,0.297,0.044
31.75,-0.393,0.265,0.077
31.76,-0.232,0.25,-0.846
31.77,0.026,0.036,-0.165
31.78,-0.043,-0.316,-0.011
31.79,-0.08,-0.384,0.159
31.8,-0.223,-0.208,0.324
31.81,-0.242,0.107,0.313
31.82,-0.224,0.282,0.069
31.83,-0.314,0.295,-0.091
31.84,-0.31,-0.033,-0.145
31.85,-0.408,-0.144,-0.1
31.86,-0.376,-0.018,0.022
31.87,-0.334,-0.047,0.038
31.88,-0.245,0.205,0.075
31.89,-0.08,0.161,-0.015
31.9,-0.045,0.155,0.074
31.91,-0.11,-0.078,0.135
31.92,-0.221,-0.251,0.125
31.93,-0.24,-0.182,0.086
31.94,-0.201,-0.04,0.03
31.95,-0.352,0.077,0.108
31.96,-0.299,0.235,-0.013
31.97,-0.384,0.131,-0.05
31.98,-0.359,-0.059,-0.073
31.99,-0.238,-0.028,-0.093
32.0,-0.265,-0.045,0.017
32.01,-0.153,0.011,0.049
32.02,-0.012,0.254,0.054
32.03,-0.115,0.088,0.113
32.04,-0.131,-0.124,0.103
32.05,-0.198,-0.095,0.159
32.06,-0.282,-0.217,0.162
32.07,-0.301,-0.074,0.005
32.08,-0.491,0.031,-0.051
32.09,-0.395,0.101,-0.064
32.1,-0.291,0.262,-0.054
32.11,-0.15,0.047,-0.003
32.12,-0.124,-0.104,-0.023
32.13,-0.134,-0.019,0.023
32.14,-0.05,-0.034,0.101
32.15,-0.15,0.099,0.147
32.16,-0.228,0.151,0.139
32.17,-0.236,0.039,0.073
32.18,-0.395,-0.062,-0.018
32.19,-0.424,-0.105,-0.089
32.2,-0.363,-0.123,-0.015
32.21,-0.268,0.052,0.029
32.22,-0.209,0.154,0.002
32.23,-0.193,0.134,-0.028
32.24,-0.158,0.192,-0.038
32.25,-0.117,0.128,0.004
32.26,-0.151,-0.052,0.083
32.27,-0.171,-0.108,0.093
32.28,-0.228,-0.095,0.125
32.29,-0.23,-0.031,0.12
32.3,-0.321,0.05,0.043
32.31,-0.0,-0.0,-0.842
32.32,-0.243,0.115,0.079
32.33,-0.16,0.273,0.054
32.34,-0.086,0.146,0.078
32.35,-0.206,-0.005,0.112
32.36,-0.26,-0.198,0.043
32.37,-0.297,-0.376,0.075
32.38,-0.289,-0.113,0.019
32.39,-0.261,0.033,0.012
32.4,-0.255,0.169,0.047
32.41,-0.236,0.34,-0.044
32.42,-0.268,0.156,-0.003
32.43,-0.232,-0.019,-0.062
32.44,-0.212,-0.015,-0.036
32.45,-0.228,-0.079,0.084
32.46,-0.199,0.101,0.115
32.47,-0.217,0.131,0.09
32.48,-0.244,-0.134,0.041
32.49,-0.242,-0.219,0.014
32.5,-0.262,-0.225,0.063
32.51,-0.197,-0.16,0.125
32.52,-0.295,0.12,0.066
32.53,-0.297,0.271,-0.027
32.54,-0.135,0.239,-0.117
32.55,-0.0,-0.0,-0.842
32.56,-0.152,-0.199,0.119
32.57,-0.067,-0.043,0.123
32.58,-0.268,0.128,0.122
32.59,-0.256,0.174,0.031
32.6,-0.236,-0.034,-0.079
32.61,-0.359,-0.013,-0.107
32.62,-0.387,0.032,0.015
32.63,-0.373,0.135,0.094
32.64,-0.299,0.32,0.037
32.65,-0.21,0.167,-0.065
32.66,-0.089,-0.044,-0.077
32.67,-0.051,-0.295,-0.024
32.68,-0.049,-0.411,0.152
32.69,-0.162,-0.177,0.255
32.7,-0.275,0.131,0.21
32.71,-0.293,0.193,0.04
32.72,-0.279,0.282,-0.126
32.73,-0.319,0.054,-0.176
32.74,-0.37,-0.13,-0.082
32.75,-0.343,-0.049,-0.001
32.76,-0.357,0.038,0.095
32.77,-0.209,0.173,0.075
32.78,-0.095,0.205,0.021
32.79,-0.097,-0.003,0.079
32.8,-0.107,-0.174,0.084
32.81,-0.263,-0.237,0.103
32.82,-0.324,-0.281,-0.859
32.83,-0.196,0.013,-0.009
32.84,-0.339,0.301,0.06
32.85,-0.267,0.223,-0.016
32.86,-0.31,0.268,-0.026
32.87,-0.335,-0.013,-0.065
32.88,-0.266,-0.148,-0.076
32.89,-0.293,-0.081,0.009
32.9,-0.163,-0.053,0.076
32.91,-0.082,0.167,0.081
32.92,-0.106,0.149,0.056
32.93,-0.106,-0.122,0.074
32.94,-0.203,-0.152,0.11
32.95,-0.274,-0.126,0.148
32.96,-0.3,-0.112,0.068
32.97,-0.432,0.146,-0.019
32.98,-0.29,0.241,-0.135
32.99,-0.297,0.178,-0.084
33.0,-0.345,0.128,-0.0
33.01,-0.2,-0.147,0.038
33.02,-0.124,-0.129,0.017
33.03,-0.035,-0.043,0.043
33.04,-0.078,0.048,0.115
33.05,-0.126,0.168,0.17
33.06,-0.223,0.068,0.134
33.07,-0.336,-0.057,0.028
33.08,-0.395,-0.178,-0.04
33.09,-0.409,-0.04,-0.035
33.1,-0.411,0.019,-0.005
33.11,-0.297,0.223,-0.043
33.12,-0.26,0.199,-0.017
33.13,-0.164,0.162,-0.057
33.14,-0.159,-0.116,0.041
33.15,-0.153,-0.027,0.035
33.16,-0.209,0.033,0.055
33.17,-0.192,0.007,0.094
33.18,-0.226,0.046,0.092
33.19,-0.373,-0.081,0.048
33.2,-0.314,-0.197,-0.006
33.21,-0.257,-0.041,-0.051
33.22,-0.325,0.103,0.048
33.23,-0.219,0.214,0.019
33.24,-0.174,0.272,-0.053
33.25,-0.241,0.194,-0.032
33.26,-0.181,0.065,-0.012
33.27,-0.178,-0.062,0.022
33.28,-0.198,-0.242,0.059
33.29,-0.278,-0.132,0.086
33.3,-0.238,-0.006,0.096
33.31,-0.213,-0.056,0.106
33.32,-0.201,0.208,0.002
33.33,-0.192,-0.057,-0.064
33.34,-0.288,-0.175,-0.042
33.35,-0.274,0.122,0.045
33.36,-0.255,0.117,0.1
33.37,-0.416,0.322,0.072
33.38,-0.278,0.255,-0.116
33.39,-0.156,-0.015,-0.143
33.4,-0.154,-0.251,-0.069
33.41,-0.173,-0.299,0.088
33.42,-0.198,-0.364,0.262
33.43,-0.135,0.088,0.208
33.44,-0.147,0.219,-0.866
33.45,-0.261,0.165,-0.042
33.46,-0.253,0.143,-0.135
33.47,-0.348,-0.095,-0.072
33.48,-0.402,-0.075,-0.003
33.49,-0.35,0.1,-0.005
33.5,-0.319,0.112,0.089
33.51,-0.128,0.266,-0.033
33.52,-0.114,0.093,0.013
33.53,-0.148,-0.185,0.106
33.54,-0.101,-0.251,0.08
33.55,-0.316,-0.186,0.121
33.56,-0.184,-0.098,0.072
33.57,-0.26,0.191,0.026
33.58,-0.273,0.322,-0.044
33.59,-0.323,0.139,-0.042
33.6,-0.415,0.046,0.008
33.61,-0.259,-0.058,-0.043
33.62,-0.265,-0.115,0.005
33.63,-0.208,0.074,0.032
33.64,-0.203,0.125,0.057
33.65,-0.142,0.012,0.079
33.66,-0.072,-0.05,0.017
33.67,-0.2,-0.293,0.119
33.68,-0.233,-0.155,0.072
33.69,-0.242,-0.037,0.042
33.7,-0.365,0.091,0.056
33.71,-0.274,0.321,-0.071
33.72,-0.312,0.24,-0.063
33.73,-0.265,0.006,-0.087
33.74,-0.24,-0.019,-0.095
33.75,-0.236,-0.129,0.069
33.76,-0.12,-0.109,0.089
33.77,-0.133,0.074,0.077
33.78,-0.166,-0.0,-0.862
33.79,-0.117,0.099,0.076
33.8,-0.32,0.042,0.049
33.81,-0.354,-0.152,0.016
33.82,-0.321,0.067,-0.013
33.83,-0.399,0.094,-0.03
33.84,-0.261,0.101,-0.04
33.85,-0.276,0.18,-0.018
33.86,-0.251,0.093,0.007
33.87,-0.191,-0.005,0.041
33.88,-0.071,-0.1,0.021
33.89,-0.052,-0.156,-0.855
33.9,-0.213,-0.031,0.154
33.91,-0.203,0.093,0.164
33.92,-0.215,0.017,0.088
33.93,-0.0,-0.0,-0.835
33.94,-0.107,0.197,0.052
33.95,-0.045,0.134,0.004
33.96,-0.011,0.073,0.052
33.97,-0.116,-0.028,0.203
33.98,-0.28,-0.301,0.177
33.99,-0.45,-0.126,0.132
34.0,-0.275,-0.094,-0.848
34.01,-0.325,0.139,0.002
34.02,-0.335,0.306,-0.03
34.03,-0.313,0.041,-0.031
34.04,-0.262,-0.003,-0.049
34.05,-0.194,-0.044,-0.034
34.06,-0.203,-0.105,0.086
34.07,-0.115,0.153,0.07
34.08,-0.149,0.212,0.075
34.09,-0.187,0.051,0.069
34.1,-0.105,-0.015,0.011
34.11,-0.0,-0.0,-0.826
34.12,-0.22,0.097,-0.019
34.13,-0.202,0.294,-0.056
34.14,-0.163,0.135,-0.021
34.15,-0.073,0.008,0.054
34.16,-0.12,-0.04,0.089
34.17,-0.185,-0.19,0.169
34.18,-0.252,-0.043,0.165
34.19,-0.266,0.046,0.095
34.2,-0.329,-0.049,0.101
34.21,-0.312,-0.019,-0.014
34.22,-0.24,-0.075,-0.094
34.23,-0.306,-0.157,-0.003
34.24,-0.282,0.156,0.057
34.25,-0.237,0.374,0.056
34.26,-0.268,0.312,0.033
34.27,-0.14,0.247,-0.092
34.28,-0.055,-0.119,-0.108
34.29,-0.131,-0.439,0.068
34.3,-0.196,-0.313,0.27
34.31,-0.386,-0.214,0.4
34.32,-0.311,0.118,0.197
34.33,-0.25,0.188,-0.071
34.34,-0.225,0.125,-0.166
34.35,-0.228,0.015,-0.167
34.36,-0.389,-0.028,-0.006
34.37,-0.268,0.045,0.046
34.38,-0.217,0.158,0.001
34.39,-0.241,0.189,0.03
34.4,-0.091,0.088,0.034
34.41,-0.143,0.04,0.108
34.42,-0.287,-0.247,0.177
34.43,-0.35,-0.293,0.123
34.44,-0.259,-0.119,0.082
34.45,-0.184,-0.048,0.015
34.46,-0.239,0.223,-0.005
34.47,-0.24,0.245,-0.053
34.48,-0.3,0.049,0.003
34.49,-0.301,0.083,-0.048
34.5,-0.269,0.046,-0.037
34.51,-0.283,-0.029,0.042
34.52,-0.197,0.222,0.035
34.53,-0.146,0.13,0.016
34.54,-0.09,-0.05,0.04
34.55,-0.146,-0.235,0.076
34.56,-0.24,-0.345,0.18
34.57,-0.199,-0.204,0.175
34.58,-0.333,0.049,0.114
34.59,-0.417,0.157,0.043
34.6,-0.265,0.253,-0.118
34.61,-0.287,0.29,-0.103
34.62,-0.262,-0.033,-0.068
34.63,-0.213,-0.056,-0.038
34.64,-0.128,-0.03,-0.049
34.65,-0.081,-0.111,0.061
34.66,-0.126,0.114,0.124
34.67,-0.151,0.081,0.186
34.68,-0.269,-0.062,0.131
34.69,-0.306,-0.033,0.027
34.7,-0.346,-0.138,-0.004
34.71,-0.372,0.045,-0.024
34.72,-0.312,0.193,-0.039
34.73,-0.215,0.187,-0.035
34.74,-0.0,-0.0,-0.839
34.75,-0.147,-0.142,0.314
34.76,-0.17,0.101,0.325
34.77,-0.154,0.247,0.059
34.78,-0.303,0.208,-0.109
34.79,-0.292,-0.012,-0.171
34.8,-0.41,-0.034,-0.113
34.81,-0.493,0.03,0.013
34.82,-0.371,0.005,0.017
34.83,-0.233,0.227,-0.033
34.84,-0.074,0.136,0.024
34.85,0.001,-0.005,0.067
34.86,-0.09,-0.013,0.162
34.87,-0.232,-0.303,0.176
34.88,-0.231,-0.109,0.096
34.89,-0.185,-0.029,-0.02
34.9,-0.325,0.037,0.029
34.91,-0.316,0.262,-0.015
34.92,-0.376,0.076,-0.0
34.93,-0.424,-0.064,-0.017
34.94,-0.28,0.013,-0.1
34.95,-0.249,0.029,0.019
34.96,-0.14,0.076,0.004
34.97,-0.095,0.187,0.023
34.98,-0.045,0.013,0.065
34.99,-0.113,-0.153,0.063
35.0,-0.241,-0.169,0.164
35.01,-0.222,-0.191,0.187
35.02,-0.305,0.024,0.052
35.03,-0.406,0.148,-0.013
35.04,-0.349,0.115,-0.1
35.05,-0.297,0.184,-0.094
35.06,-0.285,0.094,-0.073
35.07,-0.164,-0.13,-0.02
35.08,-0.129,-0.038,-0.002
35.09,-0.107,0.016,0.083
35.1,-0.112,0.042,0.14
35.11,-0.138,0.125,0.124
35.12,-0.262,0.013,0.124
35.13,-0.285,-0.078,0.018
35.14,-0.382,-0.081,-0.045
35.15,-0.407,-0.066,-0.018
35.16,-0.296,0.062,-0.017
35.17,-0.278,0.179,-0.002
35.18,-0.208,0.094,-0.034
35.19,-0.229,0.152,-0.022
35.2,-0.213,0.003,0.021
35.21,-0.071,-0.048,0.0
35.22,-0.176,-0.106,0.059
35.23,-0.199,-0.011,0.156
35.24,-0.213,0.05,0.088
35.25,-0.317,0.049,0.064
35.26,-0.24,-0.044,-0.037
35.27,-0.263,-0.147,-0.042
35.28,-0.368,-0.01,-0.007
35.29,-0.304,-0.044,0.057
35.3,-0.282,0.291,0.029
35.31,-0.254,0.399,-0.085
35.32,-0.189,0.161,-0.145
35.33,-0.01,-0.044,-0.169
35.34,-0.056,-0.375,0.025
35.35,-0.153,-0.336,0.272
35.36,-0.302,-0.078,0.414
35.37,-0.31,0.093,0.24
35.38,-0.282,0.25,-0.869
35.39,-0.295,0.132,-0.218
35.4,-0.343,-0.081,-0.137
35.41,-0.333,-0.156,-0.05
35.42,-0.341,0.079,0.032
35.43,-0.208,0.027,0.015
35.44,-0.052,0.284,-0.017
35.45,-0.059,0.204,0.039
35.46,-0.166,0.02,0.149
35.47,-0.225,-0.137,0.143
35.48,-0.378,-0.307,0.112
35.49,-0.372,-0.169,0.011
35.5,-0.272,-0.01,-0.012
35.51,-0.333,0.106,0.035
35.52,-0.205,0.184,-0.052
35.53,-0.23,0.165,-0.049
35.54,-0.237,-0.035,-0.013
35.55,-0.149,0.032,-0.094
35.56,-0.183,0.113,0.025
35.57,-0.156,0.149,0.046
35.58,-0.189,0.203,-0.005
35.59,-0.235,-0.045,0.057
35.6,-0.2,-0.24,0.034
35.61,-0.328,-0.227,0.149
35.62,-0.332,-0.265,0.151
35.63,-0.204,-0.027,0.032
35.64,-0.346,0.206,-0.017
35.65,-0.219,0.23,-0.062
35.66,-0.178,0.16,-0.082
35.67,-0.211,0.187,-0.053
35.68,-0.156,-0.136,0.007
35.69,-0.194,-0.001,0.019
35.7,-0.25,-0.041,0.041
35.71,-0.212,-0.032,0.092
35.72,-0.232,0.06,0.108
35.73,-0.341,-0.049,0.06
35.74,-0.298,-0.122,-0.011
35.75,-0.25,-0.023,-0.076
35.76,-0.268,0.096,0.014
35.77,-0.227,0.156,0.026
35.78,-0.238,0.246,-0.011
35.79,-0.201,0.101,-0.058
35.8,-0.216,0.08,-0.043
35.81,-0.243,-0.044,0.013
35.82,-0.2,-0.094,0.024
35.83,-0.207,-0.075,0.065
35.84,-0.225,-0.023,0.075
35.85,-0.172,-0.031,0.099
35.86,-0.242,0.035,0.072
35.87,-0.161,-0.087,-0.02
35.88,-0.203,-0.088,-0.053
35.89,-0.362,0.027,0.008
35.9,-0.335,0.161,0.054
35.91,-0.0,-0.0,-0.852
35.92,-0.163,-0.186,0.1
35.93,-0.29,-0.245,0.063
35.94,-0.173,-0.061,-0.01
35.95,-0.269,0.112,0.01
35.96,-0.286,0.25,-0.86
35.97,-0.306,0.165,0.022
35.98,-0.431,0.117,-0.008
35.99,-0.23,-0.087,-0.116
36.0,-0.282,0.073,-0.069
36.01,-0.223,0.022,0.054
36.02,-0.13,0.119,0.05
36.03,-0.051,0.041,0.078
36.04,-0.034,-0.225,0.061
36.05,-0.156,-0.211,0.146
36.06,-0.26,-0.145,0.215
36.07,-0.292,-0.041,0.111
36.08,-0.448,0.172,-0.0
36.09,-0.358,0.223,-0.125
36.1,-0.32,0.147,-0.104
36.11,-0.298,0.088,-0.102
36.12,-0.225,-0.086,-0.037
36.13,-0.167,-0.125,-0.853
36.14,-0.003,-0.003,0.056
36.15,-0.1,0.037,0.169
36.16,-0.162,0.05,0.192
36.17,-0.126,0.095,0.087
36.18,-0.381,-0.078,0.1
36.19,-0.393,-0.044,-0.059
36.2,-0.377,0.021,-0.044
36.21,-0.395,0.062,0.013
36.22,-0.307,0.188,-0.081
36.23,-0.262,0.119,-0.037
36.24,-0.189,0.09,-0.019
36.25,-0.155,0.047,0.049
36.26,-0.096,-0.049,0.08
36.27,-0.037,-0.132,0.077
36.28,-0.183,-0.072,0.139
36.29,-0.177,-0.035,0.143
36.3,-0.312,0.028,0.092
36.31,-0.343,0.08,0.029
36.32,-0.264,-0.063,-0.065
36.33,-0.406,-0.037,-0.072
36.34,-0.413,0.091,-0.007
36.35,-0.303,0.089,0.034
36.36,-0.263,0.33,-0.02
36.37,-0.093,0.229,-0.103
36.38,-0.006,-0.115,-0.097
36.39,-0.015,-0.214,-0.016
36.4,-0.061,-0.353,0.187
36.41,-0.288,-0.216,0.368
36.42,-0.28,0.185,0.248
36.43,-0.313,0.126,0.061
36.44,-0.379,0.234,-0.113
36.45,-0.333,0.02,-0.237
36.46,-0.456,-0.172,-0.072
36.47,-0.345,-0.105,-0.027
36.48,-0.167,0.132,0.007
36.49,-0.165,0.138,0.05
36.5,-0.021,0.308,-0.037
36.51,-0.042,0.089,0.087
36.52,-0.154,-0.134,0.165
36.53,-0.311,-0.267,0.11
36.54,-0.362,-0.267,0.096
36.55,-0.27,0.007,0.001
36.56,-0.383,0.173,0.004
36.57,-0.337,0.183,-0.019
36.58,-0.304,0.066,-0.104
36.59,-0.258,0.109,-0.065
36.6,-0.15,-0.105,-0.069
36.61,-0.199,0.087,0.026
36.62,-0.149,0.099,0.101
36.63,-0.074,0.071,0.045
36.64,-0.174,0.063,0.096
36.65,-0.192,-0.22,0.155
36.66,-0.266,-0.167,0.112
36.67,-0.338,-0.111,0.032
36.68,-0.352,-0.136,-0.0
36.69,-0.374,0.193,-0.064
36.7,-0.233,0.259,-0.11
36.71,-0.252,0.133,-0.056
36.72,-0.156,0.072,-0.059
36.73,-0.082,0.022,0.012
36.74,-0.175,-0.109,0.076
36.75,-0.171,0.025,0.097
36.76,-0.129,0.083,0.115
36.77,-0.25,0.004,0.12
36.78,-0.373,0.009,0.025
36.79,-0.393,-0.183,0.004
36.8,-0.384,-0.12,-0.045
36.81,-0.29,0.002,-0.001
36.82,-0.192,0.154,-0.016
36.83,-0.166,0.228,-0.046
36.84,-0.242,0.278,-0.028
36.85,-0.157,0.08,-0.019
36.86,-0.172,-0.014,0.007
36.87,-0.204,-0.148,0.034
36.88,-0.194,-0.16,0.079
36.89,-0.273,-0.022,0.116
36.9,-0.322,0.019,0.16
36.91,-0.295,0.029,0.026
36.92,-0.159,-0.034,-0.085
36.93,-0.206,-0.172,-0.073
36.94,-0.24,0.039,-0.039
36.95,-0.264,0.279,0.045
36.96,-0.316,0.325,0.026
36.97,-0.256,0.344,-0.866
36.98,-0.145,0.078,-0.108
36.99,-0.128,-0.275,-0.036
37.0,-0.178,-0.427,0.111
37.01,-0.321,-0.264,0.302
37.02,-0.281,-0.134,0.313
37.03,-0.204,0.299,0.086
37.04,-0.191,0.151,-0.115
37.05,-0.206,0.12,-0.18
37.06,-0.26,0.06,-0.134
37.07,-0.362,-0.169,0.021
37.08,-0.309,0.094,-0.86
37.09,-0.268,0.09,0.032
37.1,-0.168,0.273,0.026
37.11,-0.17,0.169,0.067
37.12,-0.283,-0.106,0.103
37.13,-0.2,-0.297,0.047
37.14,-0.265,-0.267,0.084
37.15,-0.233,-0.144,0.076
37.16,-0.238,0.047,0.067
37.17,-0.243,0.327,0.013
37.18,-0.228,0.247,0.003
37.19,-0.308,0.123,-0.073
37.2,-0.299,0.034,-0.108
37.21,-0.219,-0.17,-0.044
37.22,-0.196,0.098,0.007
37.23,-0.239,0.185,0.057
37.24,-0.191,-0.005,0.078
37.25,-0.128,0.062,0.019
37.26,-0.137,-0.265,0.105
37.27,-0.23,-0.292,0.159
37.28,-0.303,-0.081,0.129
37.29,-0.321,0.063,0.075
37.3,-0.317,0.183,0.016
37.31,-0.26,0.332,-0.089
37.32,-0.18,0.045,-0.093
37.33,-0.24,0.01,-0.054
37.34,-0.26,-0.064,-0.027
37.35,-0.205,-0.19,0.031
37.36,-0.207,0.06,0.052
37.37,-0.168,0.078,0.142
37.38,-0.185,0.042,0.136
37.39,-0.232,0.046,0.05
37.4,-0.254,-0.07,-0.007
37.41,-0.263,-0.041,-0.02
37.42,-0.366,0.085,0.031
37.43,-0.304,0.149,-0.018
37.44,-0.257,0.151,-0.094
37.45,-0.311,0.125,-0.072
37.46,-0.26,0.015,0.011
37.47,-0.185,-0.076,0.035
37.48,-0.133,-0.083,0.059
37.49,-0.104,-0.186,0.073
37.5,-0.058,0.01,0.096
37.51,-0.185,0.107,0.141
37.52,-0.285,0.084,0.039
37.53,-0.303,0.062,-0.077
37.54,-0.348,-0.093,-0.049
37.55,-0.403,0.004,-0.013
37.56,-0.386,0.141,0.045
37.57,-0.348,0.113,0.046
37.58,-0.178,0.24,-0.092
37.59,-0.03,0.056,-0.14
37.6,-0.035,-0.239,-0.039
37.61,-0.047,-0.24,0.089
37.62,-0.139,-0.198,0.226
37.63,-0.272,-0.011,0.254
37.64,-0.272,0.214,0.094
37.65,-0.404,0.214,-0.031
37.66,-0.339,0.033,-0.147
37.67,-0.377,-0.059,-0.128
37.68,-0.425,-0.142,-0.045
37.69,-0.272,-0.029,0.001
37.7,-0.197,0.241,0.029
37.71,-0.035,0.195,0.011
37.72,-0.022,0.164,0.018
37.73,-0.12,-0.072,0.099
37.74,-0.163,-0.263,0.068
37.75,-0.315,-0.198,0.078
37.76,-0.356,-0.078,0.081
37.77,-0.359,0.13,0.031
37.78,-0.378,0.3,-0.012
37.79,-0.332,0.181,-0.1
37.8,-0.283,-0.024,-0.077
37.81,-0.274,-0.064,-0.064
37.82,-0.115,-0.231,0.01
37.83,-0.111,0.086,0.047
37.84,-0.13,0.132,0.086
37.85,-0.17,0.058,0.078
37.86,-0.097,0.035,-0.009
37.87,-0.227,-0.127,0.063
37.88,-0.389,-0.188,0.116
37.89,-0.347,-0.024,0.022
37.9,-0.37,0.012,-0.025
37.91,-0.282,0.16,-0.089
37.92,-0.244,0.247,-0.059
37.93,-0.249,-0.098,0.011
37.94,-0.12,-0.017,-0.046
37.95,-0.131,0.001,0.013
37.96,-0.135,-0.1,0.032
37.97,-0.13,0.102,0.053
37.98,-0.183,0.118,0.105
37.99,-0.206,0.066,0.082
38.0,-0.402,0.004,0.01
38.01,-0.425,-0.217,-0.039
38.02,-0.327,-0.055,-0.038
38.03,-0.337,0.098,-0.015
38.04,-0.28,0.146,-0.017
38.05,-0.183,0.179,-0.071
38.06,-0.178,0.261,-0.029
38.07,-0.099,0.002,0.027
38.08,-0.067,-0.107,0.009
38.09,-0.122,-0.21,0.006
38.1,-0.208,-0.158,0.134
38.11,-0.275,0.089,0.156
38.12,-0.355,0.114,0.092
38.13,-0.399,0.071,-0.052
38.14,-0.283,-0.042,-0.184
38.15,-0.298,-0.132,-0.087
38.16,-0.282,-0.034,0.007
38.17,-0.214,0.237,0.045
38.18,-0.22,0.285,0.053
38.19,-0.093,0.245,-0.07
38.2,-0.026,-0.026,-0.135
38.21,-0.099,-0.378,0.032
38.22,-0.141,-0.289,0.125
38.23,-0.383,-0.196,0.317
38.24,-0.39,0.041,0.17
38.25,-0.28,0.299,-0.069
38.26,-0.305,0.208,-0.174
38.27,-0.234,0.033,-0.17
38.28,-0.298,-0.141,-0.056
38.29,-0.285,0.007,-0.008
38.3,-0.215,0.005,0.045
38.31,-0.186,0.236,0.032
38.32,-0.05,0.241,0.029
38.33,-0.12,0.123,0.059
38.34,-0.267,-0.15,0.088
38.35,-0.299,-0.373,0.024
38.36,-0.359,-0.226,0.011
38.37,-0.284,-0.071,0.015
38.38,-0.302,0.142,0.039
38.39,-0.235,0.343,-0.068
38.4,-0.236,0.176,-0.036
38.41,-0.274,-0.036,-0.033
38.42,-0.198,-0.006,-0.056
38.43,-0.203,-0.168,0.027
38.44,-0.201,0.115,0.046
38.45,-0.218,0.273,0.063
38.46,-0.16,0.006,0.024
38.47,-0.163,-0.045,-0.043
38.48,-0.238,-0.214,0.008
38.49,-0.27,-0.293,0.112
38.5,-0.217,-0.066,0.008
38.51,-0.361,0.142,0.04
38.52,-0.302,0.261,0.011
38.53,-0.237,0.304,-0.066
38.54,-0.238,0.076,-0.057
38.55,-0.209,-0.068,-0.051
38.56,-0.199,-0.127,-0.01
38.57,-0.161,-0.069,0.076
38.58,-0.189,-0.062,0.101
38.59,-0.228,0.133,0.094
38.6,-0.212,-0.05,0.04
38.61,-0.289,-0.041,-0.019
38.62,-0.364,-0.092,-0.013
38.63,-0.322,-0.007,-0.03
38.64,-0.321,0.195,-0.02
38.65,-0.289,0.182,-0.055
38.66,-0.212,0.213,-0.071
38.67,-0.19,0.148,-0.056
38.68,-0.176,-0.078,0.021
38.69,-0.186,-0.155,0.032
38.7,-0.171,-0.145,0.054
38.71,-0.203,-0.143,0.114
38.72,-0.174,0.065,0.057
38.73,-0.261,0.16,0.032
38.74,-0.243,0.042,-0.058
38.75,-0.179,0.004,-0.151
38.76,-0.289,-0.047,-0.021
38.77,-0.302,0.01,0.045
38.78,-0.341,0.265,0.085
38.79,-0.31,0.212,0.017
38.8,-0.191,0.187,-0.162
38.81,-0.161,-0.036,-0.116
38.82,-0.153,-0.383,0.02
38.83,-0.152,-0.328,0.15
38.84,-0.224,-0.171,0.239
38.85,-0.066,0.056,0.135
38.86,-0.202,0.293,-0.01
38.87,-0.228,0.271,-0.133
38.88,-0.303,0.036,-0.138
38.89,-0.435,-0.028,-0.09
38.9,-0.416,-0.036,-0.042
38.91,-0.405,0.013,0.031
38.92,-0.266,0.148,0.004
38.93,-0.185,0.094,0.027
38.94,-0.079,-0.064,0.059
38.95,-0.047,-0.143,0.059
38.96,-0.153,-0.281,-0.877
38.97,-0.136,-0.068,0.023
38.98,-0.225,0.11,-0.023
38.99,-0.338,0.165,0.022
39.0,-0.291,0.352,-0.074
39.01,-0.452,0.116,-0.042
39.02,-0.408,-0.108,-0.071
39.03,-0.311,-0.032,-0.073
39.04,-0.311,-0.082,0.043
39.05,-0.122,-0.011,0.066
39.06,-0.026,0.182,0.034
39.07,0.026,0.028,0.007
39.08,-0.03,-0.07,0.012
39.09,-0.293,-0.194,0.149
39.1,-0.255,-0.151,0.161
39.11,-0.384,0.032,0.06
39.12,-0.0,-0.0,-0.856
39.13,-0.024,-0.155,0.01
39.14,-0.089,-0.129,0.035
39.15,-0.146,-0.102,0.126
39.16,-0.138,-0.016,0.172
39.17,-0.316,0.196,0.097
39.18,-0.319,0.121,-0.014
39.19,-0.297,-0.096,-0.112
39.2,-0.418,-0.199,-0.073
39.21,-0.354,0.025,0.045
39.22,-0.317,0.006,0.103
39.23,-0.343,0.346,0.056
39.24,-0.126,0.257,-0.114
39.25,0.009,0.083,-0.177
39.26,-0.03,-0.169,-0.088
39.27,-0.115,-0.424,0.081
39.28,-0.236,-0.15,0.275
39.29,-0.302,0.039,0.329
39.3,-0.29,0.178,0.126
39.31,-0.289,0.248,-0.162
39.32,-0.334,0.029,-0.201
39.33,-0.381,-0.137,-0.137
39.34,-0.315,-0.008,-0.054
39.35,-0.332,-0.003,0.044
39.36,-0.135,0.147,0.059
39.37,-0.013,0.308,-0.06
39.38,-0.076,0.145,0.058
39.39,-0.144,-0.106,0.114
39.4,-0.267,-0.179,0.127
39.41,-0.374,-0.334,0.127
39.42,-0.292,-0.119,-0.049
39.43,-0.348,0.108,-0.057
39.44,-0.321,0.263,-0.055
39.45,-0.275,0.151,-0.016
39.46,-0.219,0.037,-0.014
39.47,-0.162,-0.088,-0.038
39.48,-0.215,-0.056,0.053
39.49,-0.152,0.102,0.044
39.5,-0.189,0.162,0.036
39.51,-0.239,0.182,0.006
39.52,-0.189,-0.12,-0.014
39.53,-0.266,-0.19,0.02
39.54,-0.339,-0.249,0.101
39.55,-0.289,-0.135,0.048
39.56,-0.234,0.144,0.035
39.57,-0.184,0.227,-0.004
39.58,-0.162,0.232,-0.073
39.59,-0.219,0.124,-0.078
39.6,-0.22,-0.149,-0.048
39.61,-0.177,-0.085,-0.02
39.62,-0.235,-0.01,0.061
39.63,-0.256,0.033,0.104
39.64,-0.228,0.161,0.07
39.65,-0.304,-0.035,0.044
39.66,-0.292,-0.061,-0.023
39.67,-0.222,-0.128,-0.032
39.68,-0.309,0.018,0.005
39.69,-0.212,0.153,-0.043
39.7,-0.234,0.229,-0.049
39.71,-0.26,0.157,-0.03
39.72,-0.216,0.103,0.004
39.73,-0.22,-0.068,0.028
39.74,-0.173,-0.18,0.02
39.75,-0.211,-0.143,0.057
39.76,-0.233,-0.03,0.094
39.77,-0.23,0.05,0.063
39.78,-0.228,0.111,0.004
39.79,-0.21,0.031,-0.079
39.8,-0.0,-0.0,-0.857
39.81,-0.142,0.183,0.021
39.82,-0.199,0.158,0.048
39.83,-0.169,-0.247,0.094
39.84,-0.24,-0.271,0.097
39.85,-0.335,-0.256,0.087
39.86,-0.197,-0.079,-0.0
39.87,-0.216,0.188,-0.008
39.88,-0.26,0.259,-0.022
39.89,-0.184,0.242,-0.088
39.9,-0.348,0.097,0.009
39.91,-0.327,-0.107,0.011
39.92,-0.204,-0.104,-0.026
39.93,-0.288,0.041,0.034
39.94,-0.218,0.054,0.038
39.95,-0.138,0.168,-0.016
39.96,-0.079,-0.028,-0.016
39.97,-0.1,-0.229,-0.006
39.98,-0.268,-0.175,0.131
39.99,-0.244,-0.09,0.187
40.0,-0.268,0.148,0.038
40.01,-0.367,0.246,-0.021
40.02,-0.256,0.156,-0.091
40.03,-0.279,0.095,-0.099
40.04,-0.3,-0.047,-0.065
40.05,-0.227,-0.246,-0.008
40.06,-0.189,-0.025,-0.006
40.07,-0.0,-0.0,-0.852
40.08,-0.222,-0.166,-0.136
40.09,-0.343,-0.039,-0.039
40.1,-0.357,0.035,0.057
40.11,-0.334,0.119,0.094
40.12,-0.282,0.382,-0.006
40.13,-0.138,0.198,-0.106
40.14,-0.037,-0.186,-0.08
40.15,-0.026,-0.253,0.007
40.16,-0.163,-0.424,0.211
40.17,-0.288,-0.192,0.366
40.18,-0.245,0.175,0.183
40.19,-0.295,0.221,0.006
40.2,-0.281,0.251,-0.186
40.21,-0.318,0.029,-0.195
40.22,-0.437,-0.123,-0.074
40.23,-0.302,0.005,-0.066
40.24,-0.303,0.104,0.029
40.25,-0.142,0.063,0.014
40.26,-0.016,0.244,0.026
40.27,-0.103,0.073,0.153
40.28,-0.14,-0.174,0.144
40.29,-0.281,-0.221,0.114
40.3,-0.279,-0.165,0.046
40.31,-0.258,-0.013,-0.016
40.32,-0.377,0.178,-0.009
40.33,-0.301,0.17,-0.057
40.34,-0.36,0.151,-0.045
40.35,-0.346,0.01,-0.046
40.36,-0.201,-0.113,-0.068
40.37,-0.171,-0.057,-0.008
40.38,-0.125,0.185,0.086
40.39,-0.087,0.091,0.105
40.4,-0.073,0.107,0.036
40.41,-0.198,-0.149,0.066
40.42,-0.297,-0.267,0.145
40.43,-0.316,-0.071,0.142
40.44,-0.426,-0.082,0.037
40.45,-0.418,0.03,-0.079
40.46,-0.285,0.344,-0.195
40.47,-0.193,0.094,-0.071
40.48,-0.198,0.058,-0.04
40.49,-0.153,0.0,0.013
40.5,-0.039,-0.151,0.01
40.51,-0.096,0.016,0.077
40.52,-0.226,0.069,0.186
40.53,-0.176,0.101,0.121
40.54,-0.314,0.078,0.061
40.55,-0.402,-0.109,-0.065
40.56,-0.41,-0.129,-0.103
40.57,-0.421,-0.031,-0.021
40.58,-0.239,0.098,-0.006
40.59,-0.186,0.215,-0.035
40.6,-0.2,0.177,-0.046
40.61,-0.152,0.123,-0.039
40.62,-0.095,0.047,0.064
40.63,-0.13,-0.085,0.088
40.64,-0.0,-0.0,-0.852
40.65,-0.207,0.067,-0.232
40.66,-0.357,0.012,-0.069
40.67,-0.375,-0.078,-0.012
40.68,-0.281,0.125,-0.009
40.69,-0.231,0.159,0.053
40.7,-0.12,0.194,0.029
40.71,-0.13,0.198,0.079
40.72,-0.173,-0.219,0.143
40.73,-0.284,-0.252,0.089
40.74,-0.313,-0.195,0.075
40.75,-0.205,-0.285,0.026
40.76,-0.26,0.217,-0.03
40.77,-0.225,0.217,-0.02
40.78,-0.27,0.136,0.003
40.79,-0.358,0.161,-0.03
40.8,-0.28,0.006,-0.029
40.81,-0.0,-0.0,-0.844
40.82,-0.184,0.052,0.062
40.83,-0.243,-0.088,-0.011
40.84,-0.312,-0.123,-0.013
40.85,-0.327,0.048,0.005
40.86,-0.305,0.219,-0.851
40.87,-0.215,0.165,-0.02
40.88,-0.31,0.252,-0.038
40.89,-0.263,0.043,0.066
40.9,-0.217,-0.053,0.021
40.91,-0.189,-0.129,0.052
40.92,-0.159,-0.216,0.062
40.93,-0.061,-0.039,0.058
40.94,-0.177,0.097,0.096
40.95,-0.279,0.061,0.128
40.96,-0.208,0.069,-0.017
40.97,-0.27,-0.052,-0.047
40.98,-0.361,-0.125,0.056
40.99,-0.336,0.207,0.094
41.0,-0.402,0.225,0.102
41.01,-0.299,0.271,-0.084
41.02,-0.041,0.148,-0.211
41.03,-0.0,-0.0,-0.83
41.04,-0.306,0.113,0.043
41.05,-0.225,0.378,-0.002
41.06,-0.314,0.126,0.059
41.07,-0.397,0.031,-0.004
41.08,-0.264,-0.08,-0.107
41.09,-0.288,-0.112,0.008
41.1,-0.182,0.016,0.037
41.11,-0.127,0.144,0.047
41.12,-0.113,-0.039,0.089
41.13,-0.084,-0.014,0.034
41.14,-0.165,-0.145,0.161
41.15,-0.239,-0.13,0.194
41.16,-0.235,0.01,0.088
41.17,-0.413,0.137,0.041
41.18,-0.327,0.048,-0.096
41.19,-0.354,0.25,-0.097
41.2,-0.335,-0.036,0.02
41.21,-0.17,-0.073,0.036
41.22,-0.208,-0.028,0.038
41.23,-0.093,-0.166,0.07
41.24,-0.063,0.125,0.094
41.25,-0.149,0.076,0.176
41.26,-0.205,-0.001,0.111
41.27,-0.281,-0.024,0.01
41.28,-0.362,0.0,-0.064
41.29,-0.375,-0.017,-0.011
41.3,-0.435,0.172,0.013
41.31,-0.335,0.102,-0.015
41.32,-0.219,0.097,-0.043
41.33,-0.159,0.086,-0.013
41.34,-0.136,-0.001,0.043
41.35,-0.079,-0.005,0.054
41.36,-0.077,-0.089,0.089
41.37,-0.174,-0.054,0.118
41.38,-0.234,0.056,0.109
41.39,-0.319,0.042,0.11
41.4,-0.35,-0.042,-0.001
41.41,-0.304,-0.049,-0.121
41.42,-0.321,-0.102,0.008
41.43,-0.342,0.094,0.076
41.44,-0.25,0.291,0.056
41.45,-0.219,0.2,-0.006
41.46,-0.07,0.18,-0.103
41.47,-0.012,-0.054,-0.12
41.48,-0.156,-0.372,0.087
41.49,-0.212,-0.248,0.195
41.5,-0.287,-0.104,0.314
41.51,-0.307,0.06,0.214
41.52,-0.266,0.218,-0.062
41.53,-0.335,0.213,-0.126
41.54,-0.281,-0.097,-0.183
41.55,-0.298,-0.019,-0.098
41.56,-0.278,-0.01,0.022
41.57,-0.208,0.063,0.057
41.58,-0.167,0.312,0.063
41.59,-0.051,0.126,0.038
41.6,-0.152,0.022,0.091
41.61,-0.26,-0.19,0.109
41.62,-0.272,-0.334,0.097
41.63,-0.321,-0.092,0.028
41.64,-0.301,-0.026,-0.002
41.65,-0.331,0.183,0.006
41.66,-0.266,0.249,-0.024
41.67,-0.249,0.135,-0.004
41.68,-0.232,-0.069,-0.052
41.69,-0.235,-0.016,-0.018
41.7,-0.0,-0.0,-0.842
41.71,-0.328,-0.124,0.051
41.72,-0.306,-0.098,-0.016
41.73,-0.382,-0.044,-0.001
41.74,-0.326,0.042,0.006
41.75,-0.198,0.264,-0.01
41.76,-0.142,0.225,-0.037
41.77,-0.19,0.172,0.032
41.78,-0.181,0.027,0.062
41.79,-0.132,-0.115,0.011
41.8,-0.236,-0.206,0.045
41.81,-0.264,-0.125,-0.85
41.82,-0.301,-0.037,0.139
41.83,-0.305,0.104,0.142
41.84,-0.237,0.044,0.021
41.85,-0.199,-0.022,-0.073
41.86,-0.276,-0.0,-0.06
41.87,-0.241,-0.065,0.039
41.88,-0.225,0.251,0.036
41.89,-0.331,0.328,0.013
41.9,-0.25,0.19,-0.06
41.91,-0.111,0.029,-0.121
41.92,-0.213,-0.227,0.032
41.93,-0.0,-0.0,-0.827
41.94,-0.291,0.289,-0.023
41.95,-0.393,0.238,-0.01
41.96,-0.323,-0.035,-0.028
41.97,-0.255,-0.057,-0.045
41.98,-0.298,-0.078,0.02
41.99,-0.13,0.045,0.066
42.0,-0.099,0.142,0.115
42.01,-0.101,-0.011,0.131
42.02,-0.069,-0.128,0.096
42.03,-0.213,-0.238,0.133
42.04,-0.293,-0.152,0.154
42.05,-0.295,0.005,0.003
42.06,-0.468,0.182,0.016
42.07,-0.291,0.227,-0.06
42.08,-0.25,0.256,-0.094
42.09,-0.275,0.021,-0.044
42.1,-0.164,-0.119,0.011
42.11,-0.14,-0.08,0.049
42.12,-0.073,-0.049,0.134
42.13,-0.096,0.014,0.154
42.14,-0.132,0.145,0.127
42.15,-0.255,-0.011,0.092
42.16,-0.339,-0.081,0.002
42.17,-0.37,-0.072,0.002
42.18,-0.367,-0.016,0.009
42.19,-0.329,0.182,0.004
42.2,-0.311,0.169,-0.037
42.21,-0.262,0.129,-0.029
42.22,-0.226,0.126,0.006
42.23,-0.129,-0.101,0.059
42.24,-0.088,-0.118,0.013
42.25,-0.115,-0.109,0.086
42.26,-0.0,-0.0,-0.83
42.27,-0.423,-0.2,-0.074
42.28,-0.426,-0.008,-0.011
42.29,-0.251,-0.007,-0.0
42.3,-0.11,0.222,0.028
42.31,-0.046,0.28,0.013
42.32,-0.058,0.058,0.09
42.33,-0.065,-0.116,0.109
42.34,-0.261,-0.225,0.117
42.35,-0.363,-0.279,0.178
42.36,-0.256,-0.035,0.075
42.37,-0.375,0.156,0.067
42.38,-0.354,0.17,-0.01
42.39,-0.305,0.185,-0.099
42.4,-0.315,0.022,-0.055
42.41,-0.181,-0.115,-0.074
42.42,-0.182,0.043,0.022
42.43,-0.194,0.066,0.101
42.44,-0.075,0.171,0.086
42.45,-0.111,0.151,0.09
42.46,-0.141,-0.081,0.097
42.47,-0.245,-0.208,0.105
42.48,-0.33,-0.201,0.106
42.49,-0.312,-0.184,-0.008
42.5,-0.448,0.132,0.018
42.51,-0.33,0.074,-0.002
42.52,-0.188,0.293,-0.048
42.53,-0.24,0.075,0.003
42.54,-0.195,-0.044,0.012
42.55,-0.131,-0.05,0.032
42.56,-0.089,0.01,0.019
42.57,-0.167,0.033,0.124
42.58,-0.162,0.111,0.115
42.59,-0.237,0.095,0.068
42.6,-0.36,-0.154,0.024
42.61,-0.36,-0.115,-0.013
42.62,-0.426,-0.115,0.051
42.63,-0.323,0.011,0.055
42.64,-0.21,0.167,-0.045
42.65,-0.198,0.255,-0.054
42.66,-0.17,0.178,-0.015
42.67,-0.149,0.146,0.015
42.68,-0.13,-0.031,0.04
42.69,-0.108,-0.219,0.03
42.7,-0.184,-0.052,0.107
42.71,-0.288,-0.058,0.163
42.72,-0.388,-0.001,0.134
42.73,-0.322,0.09,-0.018
42.74,-0.197,-0.167,-0.083
42.75,-0.251,-0.054,-0.044
42.76,-0.333,0.067,0.09
42.77,-0.212,0.195,0.07
42.78,-0.24,0.357,0.017
42.79,-0.203,0.23,-0.094
42.8,-0.071,-0.097,-0.123
42.81,-0.171,-0.21,0.037
42.82,-0.223,-0.394,0.177
42.83,-0.316,-0.215,0.248
42.84,-0.303,0.132,0.151
42.85,-0.27,0.096,0.048
42.86,-0.182,0.259,-0.123
42.87,-0.147,0.035,-0.172
42.88,-0.323,-0.119,-0.068
42.89,-0.311,-0.012,0.0
42.9,-0.267,0.153,0.042
42.91,-0.254,0.168,0.068
42.92,-0.152,0.218,0.003
42.93,-0.219,0.043,0.062
42.94,-0.268,-0.223,0.048
42.95,-0.256,-0.208,0.123
42.96,-0.282,-0.275,0.124
42.97,-0.199,-0.099,0.018
42.98,-0.23,0.217,-0.019
42.99,-0.175,0.216,-0.056
43.0,-0.235,0.25,-0.07
43.01,-0.346,-0.01,-0.009
43.02,-0.248,0.009,-0.028
43.03,-0.297,0.008,0.027
43.04,-0.284,0.078,0.066
43.05,-0.228,0.059,-0.01
43.06,-0.157,0.032,0.055
43.07,-0.131,-0.167,0.066
43.08,-0.238,-0.265,0.124
43.09,-0.196,-0.157,0.083
43.1,-0.176,-0.088,0.042
43.11,-0.0,-0.0,-0.849
43.12,-0.143,-0.137,0.017
43.13,-0.088,-0.166,0.043
43.14,-0.207,-0.162,0.119
43.15,-0.214,-0.013,0.173
43.16,-0.215,0.045,0.129
43.17,-0.314,0.112,-0.011
43.18,-0.191,0.028,-0.144
43.19,-0.289,-0.156,-0.07
43.2,-0.394,0.139,0.037
43.21,-0.307,0.13,0.118
43.22,-0.322,0.248,0.061
43.23,-0.233,0.263,-0.095
43.24,-0.12,-0.035,-0.147
43.25,-0.056,-0.222,-0.026
43.26,-0.113,-0.285,0.09
43.27,-0.209,-0.285,0.258
43.28,-0.239,0.002,0.226
43.29,-0.174,0.262,0.07
43.3,-0.27,0.198,-0.027
43.31,-0.293,0.088,-0.135
43.32,-0.349,0.011,-0.118
43.33,-0.37,-0.12,-0.073
43.34,-0.381,0.086,-0.007
43.35,-0.305,0.156,0.04
43.36,-0.105,0.065,0.03
43.37,-0.086,0.154,0.05
43.38,-0.078,-0.183,0.124
43.39,-0.137,-0.233,0.083
43.4,-0.293,-0.142,0.094
43.41,-0.238,-0.184,0.085
43.42,-0.297,0.229,-0.012
43.43,-0.354,0.297,-0.023
43.44,-0.351,0.088,-0.037
43.45,-0.44,0.122,-0.089
43.46,-0.31,-0.106,-0.078
43.47,-0.179,-0.158,-0.04
43.48,-0.109,0.117,0.058
43.49,-0.067,0.179,0.081
43.5,-0.079,0.05,0.077
43.51,-0.096,0.069,0.023
43.52,-0.117,-0.2,0.044
43.53,-0.344,-0.233,0.142
43.54,-0.385,-0.032,0.057
43.55,-0.412,-0.065,0.043
43.56,-0.437,0.234,-0.075
43.57,-0.27,0.203,-0.12
43.58,-0.264,0.058,-0.077
43.59,-0.064,0.043,-0.078
43.6,-0.088,-0.056,-0.012
43.61,-0.102,-0.107,0.059
43.62,-0.105,0.151,0.127
43.63,-0.166,-0.006,0.21
43.64,-0.282,0.137,0.147
43.65,-0.378,-0.137,0.04
43.66,-0.428,-0.206,-0.055
43.67,-0.404,-0.037,-0.092
43.68,-0.408,0.039,-0.015
43.69,-0.281,0.182,-0.035
43.7,-0.127,0.24,-0.118
43.71,-0.143,0.212,-0.074
43.72,-0.128,0.023,0.045
43.73,-0.089,-0.032,0.066
43.74,-0.145,-0.219,0.123
43.75,-0.216,-0.121,0.157
43.76,-0.243,0.003,0.098
43.77,-0.315,0.065,0.075
43.78,-0.297,0.096,-0.069
43.79,-0.274,0.043,-0.128
43.8,-0.321,-0.202,-0.065
43.81,-0.346,-0.03,0.007
43.82,-0.248,0.146,0.04
43.83,-0.21,0.254,0.035
43.84,-0.174,0.341,-0.025
43.85,-0.081,0.135,-0.091
43.86,-0.094,-0.248,-0.055
43.87,-0.146,-0.317,0.08
43.88,-0.23,-0.336,0.251
43.89,-0.271,-0.105,0.287
43.9,-0.305,0.257,0.058
43.91,-0.37,0.116,-0.079
43.92,-0.303,0.138,-0.185
43.93,-0.337,-0.046,-0.146
43.94,-0.336,-0.142,-0.024
43.95,-0.248,0.075,-0.051
43.96,-0.179,0.193,0.052
43.97,-0.077,0.203,0.017
43.98,-0.073,0.258,0.028
43.99,-0.146,-0.085,0.144
44.0,-0.208,-0.317,0.129
44.01,-0.369,-0.187,0.05
44.02,-0.353,-0.238,0.036
44.03,-0.371,0.025,0.016
44.04,-0.303,0.3,-0.069
44.05,-0.274,0.179,-0.086
44.06,-0.284,0.072,-0.079
44.07,-0.164,0.093,-0.115
44.08,-0.124,-0.059,-0.036
44.09,-0.205,0.066,0.099
44.1,-0.139,0.157,0.085
44.11,-0.137,0.132,0.036
44.12,-0.173,-0.1,-0.026
44.13,-0.296,-0.248,0.063
44.14,-0.382,-0.37,0.134
44.15,-0.298,-0.122,0.121
44.16,-0.347,-0.103,0.054
44.17,-0.265,0.325,-0.081
44.18,-0.23,0.344,-0.132
44.19,-0.18,0.162,-0.094
44.2,-0.158,0.107,-0.106
44.21,-0.206,-0.087,-0.034
44.22,-0.195,-0.135,0.011
44.23,-0.17,-0.02,0.051
44.24,-0.246,0.063,0.146
44.25,-0.243,-0.004,0.126
44.26,-0.239,0.002,0.039
44.27,-0.302,-0.147,-0.031
44.28,-0.288,-0.054,-0.067
44.29,-0.312,0.137,-0.053
44.3,-0.288,0.176,-0.027
44.31,-0.211,0.258,-0.059
44.32,-0.224,0.211,-0.048
44.33,-0.236,-0.0,-0.873
44.34,-0.15,-0.116,0.004
44.35,-0.164,-0.175,0.077
44.36,-0.191,-0.163,0.114
44.37,-0.157,0.064,0.109
44.38,-0.243,0.068,0.042
44.39,-0.248,0.049,-0.025
44.4,-0.249,-0.007,-0.083
44.41,-0.359,-0.159,0.028
44.42,-0.397,0.061,0.063
44.43,-0.383,0.128,0.068
44.44,-0.271,0.286,-0.048
44.45,-0.14,0.266,-0.15
44.46,-0.136,-0.178,-0.106
44.47,-0.064,-0.292,-0.063
44.48,-0.087,-0.295,0.117
44.49,-0.282,-0.194,0.328
44.5,-0.208,0.187,0.216
44.51,-0.232,0.25,0.016
44.52,-0.283,0.137,-0.12
44.53,-0.317,0.024,-0.189
44.54,-0.415,-0.084,-0.094
44.55,-0.352,-0.031,0.011
44.56,-0.235,0.134,0.014
44.57,-0.23,0.276,-0.022
44.58,-0.125,0.075,-0.01
44.59,-0.063,0.058,0.046
44.6,-0.144,-0.217,0.146
44.61,-0.276,-0.298,0.131
44.62,-0.294,-0.219,0.073
44.63,-0.284,-0.009,0.023
44.64,-0.237,0.231,-0.067
44.65,-0.26,0.321,-0.014
44.66,-0.314,0.122,-0.025
44.67,-0.288,0.058,-0.062
44.68,-0.308,-0.042,-0.084
44.69,-0.273,-0.14,-0.039
44.7,-0.208,0.155,0.035
44.71,-0.13,0.083,0.085
44.72,-0.08,-0.004,0.017
44.73,-0.152,-0.11,0.027
44.74,-0.207,-0.308,0.126
44.75,-0.157,-0.059,0.12
44.76,-0.346,0.056,0.134
44.77,-0.36,0.116,0.014
44.78,-0.0,-0.0,-0.859
44.79,-0.073,-0.141,0.073
44.8,-0.106,-0.146,0.093
44.81,-0.16,0.053,0.021
44.82,-0.359,0.111,0.069
44.83,-0.355,0.061,0.004
44.84,-0.298,0.016,-0.078
44.85,-0.379,-0.103,-0.042
44.86,-0.323,-0.149,0.035
44.87,-0.275,0.172,0.057
44.88,-0.235,0.282,0.068
44.89,-0.113,0.264,-0.093
44.9,-0.013,0.161,-0.16
44.91,-0.074,-0.304,-0.082
44.92,-0.107,-0.41,0.088
44.93,-0.379,-0.122,0.395
44.94,-0.332,0.083,0.272
44.95,-0.324,0.28,-0.031
44.96,-0.349,0.156,-0.195
44.97,-0.228,0.03,-0.214
44.98,-0.368,-0.083,-0.05
44.99,-0.331,-0.121,0.031
45.0,-0.138,0.025,-0.007
45.01,-0.142,0.223,0.015
45.02,-0.099,0.195,0.071
45.03,-0.151,0.086,0.093
45.04,-0.22,-0.159,0.097
45.05,-0.297,-0.297,0.059
45.06,-0.352,-0.127,0.02
45.07,-0.301,-0.052,-0.031
45.08,-0.298,0.182,-0.034
45.09,-0.235,0.314,-0.03
45.1,-0.325,0.072,0.02
45.11,-0.271,-0.068,-0.026
45.12,-0.123,-0.006,-0.082
45.13,-0.233,-0.094,0.063
45.14,-0.158,0.132,0.021
45.15,-0.165,0.181,0.014
45.16,-0.153,0.076,-0.008
45.17,-0.14,-0.069,-0.036
45.18,-0.337,-0.176,0.119
45.19,-0.321,-0.272,0.122
45.2,-0.306,0.061,0.04
45.21,-0.39,0.009,0.05
45.22,-0.182,0.215,-0.108
45.23,-0.209,0.215,-0.071
45.24,-0.222,-0.001,-0.025
45.25,-0.126,-0.055,-0.031
45.26,-0.151,-0.078,-0.02
45.27,-0.158,-0.035,0.087
45.28,-0.171,0.125,-0.872
45.29,-0.255,0.121,0.134
45.3,-0.366,-0.146,0.051
45.31,-0.345,-0.027,-0.051
45.32,-0.0,-0.0,-0.849
45.33,-0.208,0.272,-0.081
45.34,-0.093,-0.02,-0.15
45.35,-0.147,-0.28,-0.036
45.36,-0.24,-0.462,0.127
45.37,-0.287,-0.23,0.349
45.38,-0.278,0.036,0.317
45.39,-0.22,0.17,0.058
45.4,-0.179,0.314,-0.153
45.41,-0.215,-0.019,-0.183
45.42,-0.347,-0.033,-0.109
45.43,-0.342,0.054,-0.062
45.44,-0.328,0.014,0.067
45.45,-0.237,0.243,-0.014
45.46,-0.133,0.227,-0.017
45.47,-0.137,0.008,0.081
45.48,-0.145,-0.125,0.127
45.49,-0.257,-0.246,0.145
45.5,-0.222,-0.313,0.089
45.51,-0.19,-0.057,-0.022
45.52,-0.27,0.141,0.015
45.53,-0.272,0.222,0.001
45.54,-0.327,0.309,-0.009
45.55,-0.4,0.044,-0.009
45.56,-0.245,-0.018,-0.113
45.57,-0.278,0.029,-0.038
45.58,-0.139,-0.076,0.051
45.59,-0.127,0.211,0.067
45.6,-0.154,0.048,0.044
45.61,-0.068,-0.25,-0.862
45.62,-0.211,-0.142,0.093
45.63,-0.29,-0.281,0.215
45.64,-0.283,-0.006,0.127
45.65,-0.419,0.162,0.034
45.66,-0.303,0.218,-0.089
45.67,-0.249,0.247,-0.119
45.68,-0.281,0.09,-0.063
45.69,-0.162,-0.086,-0.035
45.7,-0.162,-0.105,-0.027
45.71,-0.188,-0.057,0.035
45.72,-0.159,-0.024,0.136
45.73,-0.164,0.12,0.146
45.74,-0.219,0.015,0.138
45.75,-0.262,-0.11,0.045
45.76,-0.322,-0.019,-0.049
45.77,-0.34,-0.062,-0.013
45.78,-0.0,-0.0,-0.843
45.79,0.019,-0.134,-0.116
45.8,-0.008,-0.328,0.073
45.81,-0.039,-0.346,0.275
45.82,-0.243,-0.061,0.397
45.83,-0.257,0.152,0.212
45.84,-0.0,-0.0,-0.843
45.85,-0.153,0.072,-0.013
45.86,-0.16,-0.009,0.064
45.87,-0.029,0.102,0.031
45.88,-0.02,0.123,0.059
45.89,-0.133,-0.135,0.113
45.9,-0.234,-0.1,0.154
45.91,-0.301,-0.158,0.151
45.92,-0.324,-0.105,0.062
45.93,-0.424,0.043,-0.049
45.94,-0.389,0.177,-0.108
45.95,-0.273,0.153,-0.106
45.96,-0.22,0.149,-0.049
45.97,-0.162,-0.012,0.003
45.98,-0.105,-0.071,0.014
45.99,-0.096,0.001,0.045
46.0,-0.156,0.048,0.158
46.01,-0.16,0.051,0.165
46.02,-0.258,0.132,0.095
46.03,-0.326,-0.157,0.039
46.04,-0.38,-0.083,-0.04
46.05,-0.398,-0.121,-0.018
46.06,-0.325,0.041,-0.024
46.07,-0.229,0.189,-0.025
46.08,-0.238,0.185,-0.029
46.09,-0.196,0.211,-0.02
46.1,-0.154,0.086,0.022
46.11,-0.135,-0.078,0.058
46.12,-0.157,-0.177,0.033
46.13,-0.175,-0.077,0.101
46.14,-0.181,-0.029,0.156
46.15,-0.338,0.125,-0.861
46.16,-0.3,0.019,-0.02
46.17,-0.227,-0.111,-0.102
46.18,-0.261,-0.079,-0.056
46.19,-0.267,0.084,0.03
46.2,-0.344,0.174,0.1
46.21,-0.253,0.36,-0.007
46.22,-0.152,0.281,-0.104
46.23,-0.06,-0.124,-0.136
46.24,-0.078,-0.238,0.009
46.25,-0.241,-0.357,0.248
46.26,-0.293,-0.165,0.393
46.27,-0.318,0.077,0.2
46.28,-0.0,-0.0,-0.842
46.29,-0.207,-0.071,-0.037
46.3,-0.294,0.037,0.044
46.31,-0.245,0.092,0.099
46.32,-0.205,0.104,0.08
46.33,-0.207,0.041,0.011
46.34,-0.207,-0.281,-0.851
46.35,-0.209,-0.25,0.109
46.36,-0.264,-0.127,0.134
46.37,-0.186,-0.071,0.038
46.38,-0.315,0.307,-0.045
46.39,-0.258,0.251,-0.037
46.4,-0.185,0.244,-0.055
46.41,-0.235,0.029,0.006
46.42,-0.279,-0.115,0.022
46.43,-0.214,-0.199,0.041
46.44,-0.216,0.031,0.088
46.45,-0.217,-0.016,0.144
46.46,-0.222,0.119,0.134
46.47,-0.159,0.021,0.015
46.48,-0.27,-0.151,-0.014
46.49,-0.314,0.017,-0.022
46.5,-0.335,0.008,0.06
46.51,-0.267,0.146,0.039
46.52,-0.237,0.212,-0.048
46.53,-0.267,0.14,-0.041
46.54,-0.243,0.1,0.0
46.55,-0.194,0.006,0.018
46.56,-0.157,-0.118,0.073
46.57,-0.193,-0.118,0.062
46.58,-0.139,-0.146,0.122
46.59,-0.158,-0.008,0.106
46.6,-0.284,0.081,0.07
46.61,-0.25,0.046,-0.026
46.62,-0.0,-0.0,-0.837
46.63,-0.215,0.153,0.131
46.64,-0.293,0.072,0.087
46.65,-0.329,-0.019,-0.015
46.66,-0.334,-0.198,-0.025
46.67,-0.32,-0.067,-0.03
46.68,-0.304,0.102,0.036
46.69,-0.223,0.14,0.012
46.7,-0.18,0.302,-0.048
46.71,-0.189,0.139,0.014
46.72,-0.163,-0.015,0.052
46.73,-0.162,-0.087,0.049
46.74,-0.235,-0.223,0.137
46.75,-0.167,-0.098,0.112
46.76,-0.271,0.057,0.059
46.77,-0.333,-0.021,0.064
46.78,-0.227,0.145,-0.047
46.79,-0.219,0.049,-0.066
46.8,-0.297,-0.084,0.003
46.81,-0.26,0.036,-0.037
46.82,-0.29,0.119,0.078
46.83,-0.253,0.192,0.104
46.84,-0.179,0.311,-0.009
46.85,-0.148,0.012,-0.056
46.86,-0.146,-0.322,-0.035
46.87,-0.169,-0.233,0.077
46.88,-0.321,-0.313,0.301
46.89,-0.201,-0.032,0.222
46.9,-0.261,0.292,0.036
46.91,-0.0,-0.0,-0.841
46.92,-0.309,-0.157,0.067
46.93,-0.222,0.089,0.151
46.94,-0.158,0.125,0.136
46.95,-0.04,0.034,0.011
46.96,-0.137,-0.021,-0.034
46.97,-0.231,-0.348,0.083
46.98,-0.281,-0.046,0.11
46.99,-0.305,-0.032,0.106
47.0,-0.365,0.143,0.046
47.01,-0.282,0.369,-0.097
47.02,-0.311,0.117,-0.041
47.03,-0.272,0.02,-0.043
47.04,-0.151,-0.125,-0.853
47.05,-0.218,-0.219,0.057
47.06,-0.129,-0.128,0.109
47.07,-0.09,0.154,0.135
47.08,-0.145,0.181,0.154
47.09,-0.197,0.133,0.056
47.1,-0.352,0.006,-0.015
47.11,-0.394,-0.154,-0.047
47.12,-0.374,-0.007,-0.011
47.13,-0.373,0.095,0.01
47.14,-0.312,0.106,-0.041
47.15,-0.213,0.234,0.006
47.16,-0.166,0.104,0.035
47.17,-0.081,-0.074,0.036
47.18,-0.058,-0.17,0.082
47.19,-0.107,-0.17,0.09
47.2,-0.199,-0.004,0.096
47.21,-0.282,0.111,0.095
47.22,-0.302,0.154,0.03
47.23,-0.282,0.099,-0.08
47.24,-0.362,-0.086,-0.062
47.25,-0.334,-0.179,0.007
47.26,-0.288,0.073,0.058
47.27,-0.341,0.176,0.139
47.28,-0.204,0.212,0.039
47.29,-0.038,0.23,-0.112
47.3,-0.058,-0.184,-0.08
47.31,-0.046,-0.377,-0.014
47.32,-0.228,-0.233,0.182
47.33,-0.287,-0.087,0.309
47.34,-0.264,0.242,0.147
47.35,-0.295,0.393,-0.046
47.36,-0.3,0.134,-0.159
47.37,-0.397,-0.079,-0.138
47.38,-0.353,-0.096,-0.046
47.39,-0.285,-0.159,0.042
47.4,-0.256,0.06,0.091
47.41,-0.072,0.215,0.019
47.42,-0.024,0.186,0.046
47.43,-0.107,0.035,0.082
47.44,-0.18,-0.232,0.102
47.45,-0.315,-0.186,0.091
47.46,-0.332,-0.07,0.025
47.47,-0.359,0.039,0.035
47.48,-0.297,0.238,-0.095
47.49,-0.359,0.237,-0.033
47.5,-0.293,-0.073,-0.008
