t,ax,ay,az
0.0,-0.135,1.009,0.16
0.01,-0.126,0.905,0.093
0.02,-0.426,0.827,-0.189
0.03,-0.161,1.247,-0.07
0.04,-0.108,0.885,0.107
0.05,-0.237,0.988,0.166
0.06,-0.123,0.735,-0.066
0.07,-0.397,1.163,-0.241
0.08,-0.113,1.012,0.085
0.09,-0.064,0.91,0.103
0.1,-0.261,0.944,0.034
0.11,-0.321,0.892,-0.119
0.12,-0.298,1.261,-0.074
0.13,-0.172,0.699,0.155
0.14,-0.097,1.067,0.142
0.15,-0.36,0.8,-0.185
0.16,-0.338,1.001,-0.073
0.17,0.009,1.194,-0.007
0.18,-0.121,0.611,0.09
0.19,-0.19,1.097,0.067
0.2,-0.398,0.926,-0.259
0.21,-0.14,1.082,-0.058
0.22,0.018,0.827,0.167
0.23,-0.246,0.927,0.113
0.24,-0.37,0.969,-0.159
0.25,-0.156,0.998,-0.065
0.26,-0.144,1.139,0.095
0.27,-0.068,0.621,0.158
0.28,-0.299,1.147,-0.035
0.29,-0.369,0.834,-0.198
0.3,-0.061,1.141,0.029
0.31,-0.17,0.909,0.143
0.32,-0.118,0.766,0.019
0.33,-0.402,1.177,-0.212
0.34,-0.142,0.917,-0.035
0.35,-0.225,1.105,0.113
0.36,-0.333,0.786,-0.17
0.37,-0.09,1.297,0.168
0.38,-0.168,0.767,0.114
0.39,-0.292,0.943,-0.015
0.4,-0.278,1.021,-0.184
0.41,-0.155,1.037,-0.029
0.42,-0.189,0.973,0.153
0.43,-0.173,0.802,0.077
0.44,-0.454,1.07,-0.178
0.45,-0.096,0.939,-0.093
0.46,-0.102,1.179,0.034
0.47,-0.06,0.672,0.204
0.48,-0.373,1.07,-0.056
0.49,-0.273,0.863,-0.24
0.5,-0.138,1.115,0.102
0.51,-0.087,0.959,0.121
0.52,-0.201,0.716,0.069
0.53,-0.39,1.31,-0.211
0.54,-0.089,0.831,-0.063
0.55,-0.116,1.164,0.118
0.56,-0.169,0.696,0.183
0.57,-0.312,1.001,-0.117
0.58,-0.241,1.079,-0.176
0.59,-0.105,0.969,0.112
0.6,-0.174,0.99,0.135
0.61,-0.268,0.663,0.031
0.62,-0.426,1.33,-0.194
0.63,-0.091,0.818,-0.014
0.64,-0.191,1.127,0.138
0.65,-0.022,0.83,0.07
0.66,-0.386,0.925,-0.182
0.67,-0.235,1.167,-0.072
0.68,-0.007,0.899,0.094
0.69,-0.176,1.017,0.106
0.7,-0.252,0.672,-0.003
0.71,-0.42,1.283,-0.21
0.72,-0.066,0.895,-0.012
0.73,-0.075,1.042,0.142
0.74,-0.144,0.84,0.019
0.75,-0.455,0.906,-0.177
0.76,-0.092,1.314,-0.038
0.77,-0.061,0.729,0.1
0.78,-0.244,1.042,0.167
0.79,-0.245,0.789,-0.153
0.8,-0.282,1.085,-0.166
0.81,-0.176,1.051,0.142
0.82,-0.159,0.792,0.148
0.83,-0.226,0.986,-0.068
0.84,-0.371,0.917,-0.089
0.85,-0.186,1.248,0.033
0.86,-0.121,0.705,0.148
0.87,-0.124,1.036,0.111
0.88,-0.395,0.918,-0.156
0.89,-0.216,1.019,-0.078
0.9,-0.038,1.15,0.079
0.91,-0.103,0.635,0.114
0.92,-0.38,1.097,0.016
0.93,-0.318,0.881,-0.183
0.94,-0.141,1.185,0.038
0.95,-0.096,0.787,0.18
0.96,-0.19,0.908,0.064
0.97,-0.406,1.081,-0.194
0.98,-0.058,0.94,-0.082
0.99,-0.131,1.064,0.159
1.0,-0.159,0.699,0.183
1.01,-0.402,1.149,-0.144
1.02,-0.253,0.837,-0.097
1.03,-0.058,1.219,0.096
1.04,-0.153,0.796,0.145
1.05,-0.28,0.813,0.028
1.06,-0.348,1.221,-0.246
1.07,-0.031,0.812,-0.003
1.08,-0.247,1.178,0.172
1.09,0.014,0.642,0.034
1.1,-0.459,1.15,-0.203
1.11,-0.11,1.047,-0.023
1.12,-0.096,1.032,0.101
1.13,-0.216,0.882,0.14
1.14,-0.233,0.765,-0.018
1.15,-0.344,1.301,-0.211
1.16,-0.123,0.858,0.068
1.17,-0.066,1.048,0.11
1.18,-0.127,0.703,-0.006
1.19,-0.481,1.21,-0.112
1.2,-0.121,1.048,-0.074
1.21,-0.155,0.802,0.185
1.22,-0.144,1.103,0.155
1.23,-0.333,0.705,-0.195
1.24,-0.345,1.244,-0.093
1.25,-0.033,0.891,0.119
1.26,-0.265,1.035,0.148
1.27,-0.237,0.711,-0.036
1.28,-0.314,1.187,-0.233
1.29,-0.153,0.983,0.031
1.3,-0.059,0.899,0.183
1.31,-0.184,0.927,0.022
1.32,-0.399,0.798,-0.181
1.33,-0.096,1.358,-0.052
1.34,-0.164,0.704,0.083
1.35,-0.168,0.986,0.177
1.36,-0.268,0.861,-0.167
1.37,-0.325,0.985,-0.138
1.38,-0.081,1.15,0.107
1.39,-0.08,0.741,0.139
1.4,-0.349,1.021,-0.01
1.41,-0.297,0.896,-0.164
1.42,-0.08,1.244,-0.082
1.43,-0.112,0.747,0.156
1.44,-0.179,0.937,0.125
1.45,-0.402,1.006,-0.211
1.46,-0.2,0.945,0.005
1.47,-0.096,1.205,0.089
1.48,-0.136,0.583,0.113
1.49,-0.356,1.131,-0.014
1.5,-0.27,0.882,-0.212
1.51,-0.104,1.138,0.022
1.52,-0.096,0.909,0.133
1.53,-0.197,0.766,0.046
1.54,-0.395,1.173,-0.182
1.55,-0.122,0.936,-0.018
1.56,-0.15,1.119,0.128
1.57,-0.152,0.713,0.171
1.58,-0.377,1.07,-0.152
1.59,-0.314,0.967,-0.094
1.6,-0.043,1.131,0.106
1.61,-0.164,0.835,0.102
1.62,-0.149,0.739,-0.006
1.63,-0.398,1.358,-0.214
1.64,-0.096,0.78,0.051
1.65,-0.2,1.145,0.18
1.66,-0.111,0.708,0.038
1.67,-0.446,1.081,-0.178
1.68,-0.136,1.132,-0.04
1.69,-0.102,0.892,0.085
1.7,-0.148,0.983,0.144
1.71,-0.195,0.741,-0.075
1.72,-0.369,1.293,-0.194
1.73,-0.037,0.9,0.101
1.74,-0.079,1.022,0.117
1.75,-0.254,0.778,0.032
1.76,-0.415,1.068,-0.171
1.77,-0.118,1.157,-0.065
1.78,-0.106,0.757,0.166
1.79,-0.176,1.083,0.145
1.8,-0.319,0.721,-0.218
1.81,-0.264,1.218,-0.125
1.82,0.074,0.99,0.099
1.83,-0.191,0.815,0.095
1.84,-0.328,0.908,0.017
1.85,-0.275,0.975,-0.214
1.86,-0.09,1.187,-0.043
1.87,-0.134,0.713,0.222
1.88,-0.216,1.027,0.029
1.89,-0.376,0.833,-0.233
1.9,-0.149,1.163,-0.037
1.91,-0.117,0.916,0.127
1.92,-0.17,0.776,0.145
1.93,-0.351,1.092,-0.128
1.94,-0.28,0.869,-0.141
1.95,-0.159,1.28,0.143
1.96,-0.124,0.653,0.13
1.97,-0.237,1.011,-0.047
1.98,-0.338,1.01,-0.183
1.99,-0.158,1.025,0.053
2.0,-0.178,0.95,0.166
2.01,-0.092,0.725,0.056
2.02,-0.452,1.222,-0.208
2.03,-0.193,0.893,0.001
2.04,-0.163,1.178,0.125
2.05,-0.163,0.723,0.106
2.06,-0.258,0.956,-0.084
2.07,-0.228,0.959,-0.181
2.08,-0.144,1.074,0.142
2.09,-0.094,0.897,0.132
2.1,-0.193,0.739,-0.059
2.11,-0.445,1.324,-0.151
2.12,-0.116,0.824,0.002
2.13,-0.223,1.101,0.147
2.14,-0.084,0.748,0.068
2.15,-0.367,1.124,-0.241
2.16,-0.28,1.063,-0.003
2.17,-0.125,0.909,0.177
2.18,-0.124,1.0,0.081
2.19,-0.327,0.709,-0.105
2.2,-0.265,1.255,-0.141
2.21,-0.029,0.912,0.067
2.22,-0.21,0.965,0.142
2.23,-0.128,0.791,0.017
2.24,-0.418,1.058,-0.194
2.25,-0.146,1.1,0.01
2.26,-0.092,0.808,0.171
2.27,-0.229,1.068,0.078
2.28,-0.277,0.723,-0.14
2.29,-0.301,1.313,-0.068
2.3,-0.137,0.871,0.132
2.31,-0.13,0.824,0.117
2.32,-0.247,0.967,-0.117
2.33,-0.373,0.891,-0.233
2.34,-0.078,1.244,0.101
2.35,-0.092,0.748,0.101
2.36,-0.199,1.017,-0.011
2.37,-0.323,0.915,-0.168
2.38,-0.209,1.183,-0.058
2.39,-0.185,0.855,0.164
2.4,-0.222,0.801,0.178
2.41,-0.358,1.121,-0.191
2.42,-0.186,0.883,-0.087
2.43,-0.207,1.256,0.136
2.44,-0.019,0.588,0.178
2.45,-0.311,1.046,0.029
2.46,-0.396,1.014,-0.263
2.47,-0.027,0.935,-0.013
2.48,-0.153,1.142,0.156
2.49,-0.092,0.657,0.075
2.5,-0.482,1.222,-0.15
2.51,-0.133,0.893,-0.104
2.52,-0.101,1.144,0.064
2.53,-0.128,0.771,0.201
2.54,-0.432,0.903,-0.081
2.55,-0.272,1.078,-0.153
2.56,-0.014,0.979,0.019
2.57,-0.185,1.011,0.078
2.58,-0.075,0.647,0.044
2.59,-0.483,1.369,-0.23
2.6,-0.091,0.786,-0.026
2.61,-0.105,1.126,0.146
2.62,-0.13,0.821,0.076
2.63,-0.362,0.899,-0.16
2.64,-0.205,1.303,-0.122
2.65,-0.067,0.767,0.094
2.66,-0.153,1.042,0.133
2.67,-0.266,0.709,-0.042
2.68,-0.36,1.195,-0.182
2.69,-0.05,0.984,0.087
2.7,-0.175,0.972,0.17
2.71,-0.192,0.892,0.032
2.72,-0.353,0.931,-0.136
2.73,-0.288,1.255,-0.038
2.74,-0.097,0.711,0.175
2.75,-0.177,1.054,0.12
2.76,-0.347,0.797,-0.158
2.77,-0.208,1.118,-0.109
2.78,-0.112,1.088,0.106
2.79,-0.11,0.67,0.144
2.8,-0.266,1.089,0.03
2.81,-0.324,0.916,-0.194
2.82,-0.16,1.178,0.017
2.83,-0.066,0.773,0.121
2.84,-0.22,0.968,0.063
2.85,-0.382,0.983,-0.195
2.86,-0.193,1.021,-0.047
2.87,-0.148,1.062,0.072
2.88,-0.169,0.797,0.177
2.89,-0.359,1.063,-0.146
2.9,-0.217,0.833,-0.173
2.91,-0.11,1.321,0.131
2.92,-0.04,0.634,0.128
2.93,-0.273,1.007,-0.01
2.94,-0.392,1.039,-0.186
2.95,-0.151,0.963,-0.056
2.96,-0.13,0.99,0.117
2.97,-0.084,0.74,0.101
2.98,-0.44,1.146,-0.225
2.99,-0.188,0.867,-0.039
3.0,-0.068,1.251,0.113
3.01,-0.175,0.713,0.099
3.02,-0.25,0.933,-0.042
3.03,-0.283,1.118,-0.215
3.04,-0.156,0.96,0.037
3.05,-0.099,1.071,0.103
3.06,-0.127,0.624,-0.026
3.07,-0.463,1.24,-0.19
3.08,-0.033,0.937,0.001
3.09,-0.151,1.095,0.143
3.1,-0.166,0.846,0.141
3.11,-0.345,0.836,-0.119
3.12,-0.308,1.186,-0.157
3.13,0.029,0.947,0.1
3.14,-0.141,1.057,0.091
3.15,-0.28,0.667,-0.023
3.16,-0.326,1.255,-0.188
3.17,-0.08,0.944,-0.03
3.18,-0.165,0.97,0.216
3.19,-0.1,0.94,0.081
3.2,-0.423,0.882,-0.217
3.21,-0.198,1.24,-0.054
3.22,-0.026,0.804,0.108
3.23,-0.146,1.032,0.145
3.24,-0.257,0.82,-0.095
3.25,-0.286,1.11,-0.159
3.26,-0.11,1.057,0.089
3.27,-0.109,0.817,0.187
3.28,-0.187,1.01,-0.025
3.29,-0.456,0.881,-0.176
3.3,-0.134,1.245,0.009
3.31,-0.112,0.802,0.121
3.32,-0.272,0.951,0.159
3.33,-0.295,0.902,-0.142
3.34,-0.278,1.033,-0.145
3.35,-0.033,1.114,0.095
3.36,-0.018,0.668,0.13
3.37,-0.428,1.064,-0.003
3.38,-0.277,0.882,-0.159
3.39,-0.09,1.236,0.001
3.4,-0.216,0.829,0.179
3.41,-0.067,0.89,0.052
3.42,-0.422,1.085,-0.21
3.43,-0.159,0.944,-0.025
3.44,-0.075,1.183,0.149
3.45,-0.257,0.642,0.123
3.46,-0.338,1.107,-0.082
3.47,-0.198,0.954,-0.218
3.48,-0.166,1.129,0.126
3.49,-0.135,0.878,0.137
3.5,-0.237,0.768,-0.05
3.51,-0.437,1.26,-0.182
3.52,-0.033,0.851,-0.016
3.53,-0.19,1.169,0.16
3.54,-0.128,0.688,0.134
3.55,-0.427,1.084,-0.196
3.56,-0.206,1.017,-0.073
3.57,-0.039,1.049,0.123
3.58,-0.19,0.912,0.075
3.59,-0.209,0.728,-0.027
3.6,-0.402,1.354,-0.167
3.61,-0.113,0.785,0.017
3.62,-0.104,1.065,0.171
3.63,-0.15,0.726,-0.005
3.64,-0.51,1.06,-0.173
3.65,-0.065,1.122,-0.061
3.66,-0.151,0.82,0.164
3.67,-0.268,1.034,0.206
3.68,-0.27,0.752,-0.179
3.69,-0.325,1.244,-0.167
3.7,0.062,0.889,0.095
3.71,-0.222,1.007,0.085
3.72,-0.243,0.73,-0.033
3.73,-0.291,1.181,-0.232
3.74,-0.119,1.016,-0.004
3.75,-0.118,0.827,0.203
3.76,-0.161,0.99,0.011
3.77,-0.479,0.845,-0.173
3.78,-0.1,1.305,-0.08
3.79,-0.097,0.723,0.129
3.8,-0.235,0.959,0.193
3.81,-0.239,0.936,-0.158
3.82,-0.387,1.061,-0.117
3.83,-0.036,1.12,0.103
3.84,-0.068,0.693,0.137
3.85,-0.377,1.07,-0.001
3.86,-0.258,0.866,-0.225
3.87,-0.14,1.209,-0.005
3.88,-0.191,0.789,0.199
3.89,-0.125,0.908,0.086
3.9,-0.392,1.09,-0.23
3.91,-0.089,0.893,-0.082
3.92,-0.094,1.159,0.099
3.93,-0.13,0.68,0.158
3.94,-0.355,1.074,-0.099
3.95,-0.253,0.893,-0.17
3.96,-0.158,1.125,0.104
3.97,-0.076,0.894,0.151
3.98,-0.247,0.745,0.001
3.99,-0.484,1.232,-0.153
4.0,0.004,0.904,-0.06
4.01,-0.204,1.129,0.141
4.02,-0.147,0.727,0.203
4.03,-0.413,1.094,-0.227
4.04,-0.283,0.951,-0.123
4.05,0.021,1.056,0.128
4.06,-0.179,0.954,0.097
4.07,-0.328,0.705,-0.009
4.08,-0.308,1.348,-0.198
4.09,-0.105,0.797,0.039
4.1,-0.182,1.064,0.217
4.11,-0.117,0.767,0.057
4.12,-0.536,1.067,-0.208
4.13,-0.161,1.095,-0.027
4.14,-0.083,0.867,0.155
4.15,-0.303,1.018,0.138
4.16,-0.289,0.742,-0.179
4.17,-0.167,1.304,-0.194
4.18,-0.096,0.882,0.134
4.19,-0.162,0.925,0.2
4.2,-0.28,0.846,-0.053
4.21,-0.331,1.027,-0.195
4.22,-0.045,1.212,-0.007
4.23,-0.18,0.726,0.17
4.24,-0.213,1.026,0.066
4.25,-0.35,0.843,-0.225
4.26,-0.196,1.201,-0.05
4.27,-0.098,0.847,0.131
4.28,-0.159,0.825,0.097
4.29,-0.336,1.007,-0.102
4.3,-0.296,0.907,-0.12
4.31,-0.133,1.276,0.133
4.32,-0.106,0.63,0.106
4.33,-0.293,1.044,-0.014
4.34,-0.366,0.968,-0.181
4.35,-0.171,1.084,0.002
4.36,-0.121,0.928,0.175
4.37,-0.121,0.782,0.087
4.38,-0.464,1.147,-0.192
4.39,-0.157,0.885,-0.031
4.4,-0.093,1.242,0.079
4.41,-0.107,0.638,0.078
4.42,-0.299,1.011,-0.072
4.43,-0.356,1.084,-0.19
4.44,-0.056,0.998,0.099
4.45,-0.131,1.022,0.109
4.46,-0.227,0.656,-0.007
4.47,-0.417,1.312,-0.152
4.48,-0.151,0.871,-0.019
4.49,-0.213,1.062,0.193
4.5,-0.061,0.811,0.089
4.51,-0.463,0.946,-0.191
4.52,-0.111,1.029,0.004
4.53,-0.146,1.018,0.16
4.54,-0.249,0.901,0.164
4.55,-0.24,0.79,-0.114
4.56,-0.289,1.294,-0.162
4.57,-0.071,0.896,0.116
4.58,-0.21,1.028,0.158
4.59,-0.171,0.736,-0.012
4.6,-0.355,1.162,-0.243
4.61,-0.15,1.041,-0.034
4.62,-0.111,0.781,0.188
4.63,-0.259,1.03,0.097
4.64,-0.344,0.752,-0.19
4.65,-0.189,1.31,-0.096
4.66,-0.146,0.81,0.144
4.67,-0.135,0.935,0.132
4.68,-0.253,0.906,-0.11
4.69,-0.349,0.93,-0.157
4.7,-0.059,1.25,0.088
4.71,-0.042,0.739,0.075
4.72,-0.27,1.035,0.026
4.73,-0.315,0.896,-0.183
4.74,-0.133,1.214,-0.073
4.75,-0.166,0.801,0.168
4.76,-0.091,0.859,0.125
4.77,-0.454,1.027,-0.172
4.78,-0.2,0.878,-0.106
4.79,-0.051,1.279,0.077
4.8,-0.128,0.597,0.125
4.81,-0.289,1.054,-0.041
4.82,-0.288,0.955,-0.258
4.83,-0.181,1.047,0.071
4.84,-0.057,1.02,0.166
4.85,-0.208,0.698,0.003
4.86,-0.424,1.2,-0.193
4.87,-0.036,0.911,-0.054
4.88,-0.179,1.117,0.089
4.89,-0.104,0.724,0.186
4.9,-0.371,1.05,-0.134
4.91,-0.335,0.986,-0.148
4.92,0.069,1.062,0.125
4.93,-0.211,0.972,0.112
4.94,-0.237,0.725,0.008
4.95,-0.364,1.365,-0.211
4.96,-0.146,0.81,0.008
4.97,-0.192,1.093,0.21
4.98,-0.115,0.749,0.055
4.99,-0.472,0.995,-0.195
5.0,-0.137,1.179,-0.065
5.01,-0.072,0.808,0.093
5.02,-0.221,1.016,0.126
5.03,-0.24,0.726,-0.135
5.04,-0.291,1.249,-0.168
5.05,-0.094,0.948,0.114
5.06,-0.138,0.908,0.122
5.07,-0.268,0.901,0.016
5.08,-0.378,1.009,-0.186
5.09,-0.082,1.166,-0.012
5.1,-0.129,0.709,0.211
5.11,-0.203,1.069,0.086
5.12,-0.346,0.797,-0.216
5.13,-0.192,1.186,-0.031
5.14,-0.094,0.946,0.109
5.15,-0.162,0.758,0.14
5.16,-0.352,1.071,-0.049
5.17,-0.306,0.894,-0.183
5.18,-0.105,1.279,0.037
5.19,-0.064,0.683,0.131
5.2,-0.248,0.994,0.024
5.21,-0.396,0.975,-0.151
5.22,-0.145,1.052,-0.033
5.23,-0.143,0.917,0.12
5.24,-0.073,0.74,0.101
5.25,-0.492,1.152,-0.197
5.26,-0.212,0.863,-0.025
5.27,-0.038,1.251,0.092
5.28,-0.175,0.687,0.129
5.29,-0.292,1.001,-0.013
5.3,-0.286,1.112,-0.205
5.31,-0.149,0.966,0.109
5.32,-0.098,1.082,0.13
5.33,-0.249,0.729,-0.059
5.34,-0.394,1.281,-0.192
5.35,-0.052,0.886,-0.026
5.36,-0.245,1.115,0.157
5.37,-0.062,0.717,0.106
5.38,-0.42,1.079,-0.215
5.39,-0.266,0.983,-0.061
5.4,-0.055,0.98,0.166
5.41,-0.171,0.985,0.092
5.42,-0.27,0.715,-0.058
5.43,-0.354,1.319,-0.153
5.44,-0.099,0.898,0.097
5.45,-0.168,1.037,0.161
5.46,-0.179,0.749,0.001
5.47,-0.482,1.064,-0.144
5.48,-0.088,1.115,-0.051
5.49,-0.066,0.77,0.13
5.5,-0.196,1.071,0.121
5.51,-0.391,0.71,-0.173
5.52,-0.249,1.259,-0.11
5.53,-0.014,0.924,0.11
5.54,-0.157,0.857,0.117
5.55,-0.271,0.917,-0.077
5.56,-0.303,1.015,-0.163
5.57,-0.11,1.211,0.045
5.58,-0.051,0.687,0.16
5.59,-0.274,1.053,0.011
5.6,-0.399,0.918,-0.18
5.61,-0.178,1.168,-0.032
5.62,-0.119,0.843,0.127
5.63,-0.128,0.827,0.109
5.64,-0.406,1.104,-0.166
5.65,-0.274,0.912,-0.058
5.66,-0.046,1.219,0.078
5.67,-0.084,0.616,0.135
5.68,-0.343,1.066,-0.0
5.69,-0.329,0.953,-0.252
5.7,-0.099,1.052,0.037
5.71,-0.115,1.015,0.165
5.72,-0.189,0.702,0.006
5.73,-0.495,1.243,-0.223
5.74,-0.004,0.867,-0.072
5.75,-0.167,1.146,0.131
5.76,-0.105,0.733,0.178
5.77,-0.405,1.022,-0.156
5.78,-0.242,1.054,-0.128
5.79,-0.06,1.001,0.129
5.8,-0.187,0.995,0.138
5.81,-0.22,0.701,-0.021
5.82,-0.386,1.34,-0.234
5.83,-0.106,0.831,0.069
5.84,-0.198,1.132,0.212
5.85,-0.184,0.753,0.006
5.86,-0.378,0.959,-0.219
5.87,-0.034,1.266,-0.056
5.88,-0.134,0.758,0.132
5.89,-0.275,1.023,0.181
5.9,-0.251,0.734,-0.118
5.91,-0.381,1.25,-0.213
5.92,0.037,0.95,0.129
5.93,-0.151,0.897,0.134
5.94,-0.404,0.915,0.022
5.95,-0.32,0.95,-0.187
5.96,-0.158,1.208,-0.014
5.97,-0.07,0.714,0.21
5.98,-0.21,1.033,0.09
5.99,-0.39,0.841,-0.178
6.0,-0.184,1.156,-0.082
6.01,-0.114,0.964,0.108
6.02,-0.169,0.786,0.157
6.03,-0.319,1.035,-0.122
6.04,-0.277,0.854,-0.172
6.05,-0.063,1.323,0.091
6.06,-0.109,0.632,0.108
6.07,-0.219,0.995,-0.015
6.08,-0.34,1.069,-0.21
6.09,-0.12,0.984,-0.021
6.1,-0.166,1.026,0.125
6.11,-0.184,0.678,0.087
6.12,-0.427,1.175,-0.2
6.13,-0.19,0.909,-0.073
6.14,-0.115,1.156,0.101
6.15,-0.133,0.66,0.161
6.16,-0.367,1.107,-0.11
6.17,-0.249,0.959,-0.164
6.18,-0.122,1.094,0.125
6.19,-0.153,0.887,0.111
6.2,-0.224,0.737,-0.035
6.21,-0.374,1.354,-0.192
6.22,-0.092,0.836,-0.028
6.23,-0.19,1.109,0.212
6.24,-0.094,0.715,0.132
6.25,-0.427,1.064,-0.193
6.26,-0.287,1.069,-0.007
6.27,-0.09,0.918,0.117
6.28,-0.145,1.004,0.073
6.29,-0.268,0.686,-0.067
6.3,-0.327,1.288,-0.221
6.31,0.008,0.923,0.077
6.32,-0.177,1.032,0.16
6.33,-0.15,0.744,0.042
6.34,-0.406,1.103,-0.227
6.35,-0.082,1.146,-0.066
6.36,-0.069,0.815,0.136
6.37,-0.172,1.048,0.086
6.38,-0.377,0.745,-0.189
6.39,-0.241,1.244,-0.114
6.4,0.007,0.923,0.094
6.41,-0.24,0.841,0.096
6.42,-0.204,0.929,-0.024
6.43,-0.286,0.963,-0.212
6.44,-0.253,1.195,0.1
6.45,-0.059,0.657,0.165
6.46,-0.194,1.052,-0.01
6.47,-0.424,0.911,-0.16
6.48,-0.143,1.143,-0.08
6.49,-0.127,0.908,0.115
6.5,-0.165,0.799,0.138
6.51,-0.312,1.043,-0.169
6.52,-0.241,0.914,-0.073
6.53,-0.113,1.321,0.147
6.54,-0.132,0.598,0.14
6.55,-0.309,1.021,-0.006
6.56,-0.293,1.039,-0.192
6.57,-0.165,1.017,-0.008
6.58,-0.153,0.996,0.163
6.59,-0.078,0.723,0.098
6.6,-0.471,1.221,-0.202
6.61,-0.189,0.85,-0.058
6.62,-0.058,1.138,0.095
6.63,-0.167,0.772,0.126
6.64,-0.384,0.916,-0.11
6.65,-0.234,1.086,-0.174
6.66,-0.056,1.004,0.077
6.67,-0.124,0.991,0.13
6.68,-0.216,0.663,0.04
6.69,-0.425,1.329,-0.204
6.7,-0.043,0.873,-0.015
6.71,-0.184,1.073,0.141
6.72,-0.164,0.816,0.1
6.73,-0.36,0.917,-0.166
6.74,-0.25,1.241,-0.096
6.75,-0.073,0.844,0.134
6.76,-0.123,1.01,0.11
6.77,-0.288,0.727,-0.082
6.78,-0.332,1.242,-0.132
6.79,-0.105,0.945,0.013
6.8,-0.077,0.913,0.127
6.81,-0.154,0.946,0.007
6.82,-0.444,0.917,-0.14
6.83,-0.125,1.266,-0.058
6.84,-0.054,0.715,0.1
6.85,-0.151,1.028,0.124
6.86,-0.28,0.811,-0.186
6.87,-0.249,1.155,-0.082
6.88,-0.026,1.05,0.068
6.89,-0.107,0.678,0.082
6.9,-0.293,1.089,-0.004
6.91,-0.31,0.883,-0.208
6.92,-0.182,1.212,0.057
6.93,-0.084,0.74,0.148
6.94,-0.134,0.962,0.013
6.95,-0.399,0.993,-0.186
6.96,-0.114,0.987,-0.05
6.97,-0.172,0.925,0.18
6.98,-0.181,0.82,0.154
6.99,-0.329,1.089,-0.236
7.0,-0.142,0.936,-0.114
7.01,-0.116,1.252,0.11
7.02,-0.096,0.63,0.122
7.03,-0.368,1.024,-0.014
7.04,-0.262,0.95,-0.175
7.05,-0.14,1.103,0.062
7.06,-0.159,0.935,0.103
7.07,0.01,0.691,0.031
7.08,-0.446,1.364,-0.194
7.09,-0.241,0.81,-0.074
7.1,-0.03,1.088,0.078
7.11,-0.157,0.767,0.169
7.12,-0.381,0.955,-0.135
7.13,-0.237,1.016,-0.181
7.14,-0.09,0.967,0.103
7.15,-0.091,1.026,0.061
7.16,-0.146,0.645,-0.023
7.17,-0.46,1.375,-0.149
7.18,-0.045,0.841,-0.015
7.19,-0.206,1.049,0.18
7.2,-0.103,0.821,0.125
7.21,-0.372,0.939,-0.236
7.22,-0.196,1.229,-0.08
7.23,-0.117,0.856,0.153
7.24,-0.23,1.003,0.201
7.25,-0.216,0.691,-0.053
7.26,-0.406,1.261,-0.169
7.27,-0.114,0.945,0.119
7.28,-0.128,0.98,0.128
7.29,-0.189,0.869,0.011
7.3,-0.337,0.964,-0.204
7.31,-0.205,1.284,-0.074
7.32,-0.107,0.663,0.101
7.33,-0.126,1.055,0.102
7.34,-0.319,0.796,-0.217
7.35,-0.242,1.137,-0.061
7.36,-0.091,1.071,0.049
7.37,-0.11,0.687,0.156
7.38,-0.245,1.054,0.027
7.39,-0.455,0.901,-0.212
7.4,-0.082,1.154,0.004
7.41,-0.054,0.873,0.131
7.42,-0.223,0.925,0.081
7.43,-0.334,0.943,-0.162
7.44,-0.226,1.084,-0.062
7.45,-0.12,0.99,0.077
7.46,-0.065,0.723,0.171
7.47,-0.416,1.152,-0.062
7.48,-0.276,0.808,-0.173
7.49,-0.077,1.259,0.145
7.5,-0.191,0.795,0.151
7.51,-0.169,0.884,0.061
7.52,-0.482,1.191,-0.222
7.53,-0.065,0.883,-0.045
7.54,-0.202,1.108,0.145
7.55,-0.11,0.675,0.112
7.56,-0.411,1.113,-0.166
7.57,-0.223,0.864,-0.094
7.58,-0.042,1.184,0.09
7.59,-0.098,0.823,0.122
7.6,-0.252,0.826,-0.008
7.61,-0.395,1.268,-0.236
7.62,-0.016,0.784,0.002
7.63,-0.141,1.222,0.151
7.64,-0.123,0.619,0.016
7.65,-0.436,1.134,-0.173
7.66,-0.038,1.084,-0.094
7.67,-0.167,0.899,0.125
7.68,-0.147,0.965,0.223
7.69,-0.281,0.75,-0.142
7.7,-0.325,1.192,-0.198
7.71,0.02,0.936,0.104
7.72,-0.225,1.034,0.12
7.73,-0.269,0.717,0.042
7.74,-0.343,1.171,-0.217
7.75,-0.134,1.074,-0.014
7.76,-0.16,0.798,0.219
7.77,-0.11,1.045,0.04
7.78,-0.372,0.848,-0.186
7.79,-0.106,1.323,-0.079
7.8,-0.087,0.756,0.111
7.81,-0.223,1.062,0.147
7.82,-0.196,0.791,-0.084
7.83,-0.365,1.11,-0.179
7.84,-0.137,1.042,0.139
7.85,-0.065,0.877,0.187
7.86,-0.27,0.968,-0.0
7.87,-0.336,0.884,-0.126
7.88,-0.241,1.278,-0.036
7.89,-0.122,0.706,0.129
7.9,-0.151,1.03,0.152
7.91,-0.375,0.858,-0.145
7.92,-0.27,1.014,-0.056
7.93,-0.058,1.219,0.102
7.94,-0.13,0.606,0.14
7.95,-0.332,1.092,0.026
7.96,-0.296,0.89,-0.252
7.97,-0.127,1.132,-0.013
7.98,-0.046,0.842,0.188
7.99,-0.142,0.87,0.053
8.0,-0.478,1.07,-0.146
8.01,-0.113,0.986,-0.059
8.02,-0.183,1.15,0.089
8.03,-0.122,0.624,0.135
8.04,-0.304,1.151,-0.1
8.05,-0.29,0.841,-0.182
8.06,-0.157,1.168,0.114
8.07,-0.075,0.909,0.123
8.08,-0.148,0.74,-0.009
8.09,-0.461,1.227,-0.141
8.1,-0.046,0.904,-0.087
8.11,-0.127,1.151,0.113
8.12,-0.181,0.698,0.183
8.13,-0.42,1.085,-0.155
8.14,-0.161,0.975,-0.147
8.15,-0.047,1.079,0.093
8.16,-0.134,0.916,0.171
8.17,-0.278,0.744,0.036
8.18,-0.375,1.278,-0.235
8.19,-0.021,0.85,0.031
8.2,-0.23,1.155,0.191
8.21,-0.187,0.692,0.062
8.22,-0.365,1.086,-0.202
8.23,-0.122,1.18,-0.091
8.24,-0.054,0.826,0.108
8.25,-0.156,1.032,0.152
8.26,-0.323,0.722,-0.106
8.27,-0.295,1.212,-0.161
8.28,0.024,0.946,0.089
8.29,-0.232,0.965,0.169
8.3,-0.194,0.825,0.043
8.31,-0.381,1.064,-0.234
8.32,-0.134,1.145,-0.028
8.33,-0.125,0.802,0.182
8.34,-0.17,1.039,0.088
8.35,-0.304,0.733,-0.202
8.36,-0.086,1.263,-0.068
8.37,-0.117,0.949,0.058
8.38,-0.127,0.776,0.196
8.39,-0.277,1.008,-0.05
8.4,-0.317,0.896,-0.256
8.41,-0.086,1.188,0.025
8.42,-0.139,0.798,0.17
8.43,-0.235,0.987,0.03
8.44,-0.352,0.878,-0.159
8.45,-0.067,1.189,-0.102
8.46,-0.112,0.897,0.058
8.47,-0.198,0.755,0.205
8.48,-0.325,1.096,-0.128
8.49,-0.253,0.784,-0.168
8.5,-0.138,1.34,0.128
8.51,-0.171,0.662,0.119
8.52,-0.235,0.959,-0.012
8.53,-0.359,1.088,-0.196
8.54,-0.153,0.939,-0.01
8.55,-0.118,1.088,0.198
8.56,-0.133,0.698,0.076
8.57,-0.496,1.105,-0.181
8.58,-0.08,0.954,-0.065
8.59,-0.1,1.261,0.066
8.6,-0.093,0.628,0.162
8.61,-0.312,1.08,-0.067
8.62,-0.333,0.945,-0.191
8.63,-0.052,1.115,0.104
8.64,-0.182,0.95,0.121
8.65,-0.114,0.687,0.035
8.66,-0.428,1.332,-0.223
8.67,-0.129,0.818,-0.06
8.68,-0.134,1.145,0.161
8.69,-0.075,0.766,0.113
8.7,-0.179,1.239,-0.099
8.71,-0.098,0.772,0.164
8.72,-0.15,1.092,0.133
8.73,-0.343,0.654,-0.231
8.74,-0.17,1.233,-0.061
8.75,-0.025,1.012,0.093
8.76,-0.224,0.809,0.116
8.77,-0.182,0.951,0.022
8.78,-0.338,1.041,-0.241
8.79,-0.195,1.14,0.058
8.8,-0.054,0.813,0.167
8.81,-0.197,1.025,0.026
8.82,-0.353,0.788,-0.208
8.83,-0.117,1.222,-0.061
8.84,-0.073,0.902,0.079
8.85,-0.209,0.768,0.213
8.86,-0.277,1.084,-0.069
8.87,-0.388,0.84,-0.155
8.88,-0.142,1.259,0.125
8.89,-0.098,0.741,0.112
8.9,-0.244,1.011,0.011
8.91,-0.317,1.027,-0.176
8.92,-0.174,1.039,-0.075
8.93,-0.164,0.965,0.154
8.94,-0.029,0.745,0.128
8.95,-0.45,1.112,-0.199
8.96,-0.292,0.832,-0.082
8.97,-0.088,1.262,0.079
8.98,-0.156,0.645,0.098
8.99,-0.245,0.975,0.01
9.0,-0.284,1.136,-0.229
9.01,-0.198,0.843,-0.017
9.02,-0.111,1.133,0.192
9.03,-0.049,0.685,0.088
9.04,-0.583,1.208,-0.164
9.05,-0.125,0.9,-0.086
9.06,-0.106,1.14,0.074
9.07,-0.211,0.809,0.248
9.08,-0.301,0.853,-0.04
9.09,-0.304,1.146,-0.223
9.1,-0.005,0.925,0.114
9.11,-0.198,1.092,0.103
9.12,-0.221,0.637,0.051
9.13,-0.379,1.295,-0.224
9.14,-0.078,0.896,-0.08
9.15,-0.187,0.979,0.182
9.16,-0.082,0.939,0.11
9.17,-0.38,0.764,-0.155
9.18,-0.323,1.207,-0.088
9.19,-0.033,0.916,0.127
9.2,-0.174,0.983,0.107
9.21,-0.201,0.749,0.033
9.22,-0.363,1.22,-0.21
9.23,-0.13,0.968,-0.038
9.24,-0.132,0.888,0.181
9.25,-0.177,1.031,0.042
9.26,-0.342,0.744,-0.178
9.27,-0.248,1.331,-0.024
9.28,-0.065,0.812,0.072
9.29,-0.187,0.926,0.173
9.3,-0.249,0.885,-0.073
9.31,-0.296,0.987,-0.221
9.32,-0.126,1.167,0.05
9.33,-0.05,0.81,0.176
9.34,-0.22,0.997,-0.002
9.35,-0.385,0.849,-0.143
9.36,-0.181,1.265,-0.025
9.37,-0.114,0.729,0.077
9.38,-0.159,1.055,0.126
9.39,-0.326,0.833,-0.172
9.4,-0.251,1.037,-0.092
9.41,-0.068,1.206,0.06
9.42,-0.102,0.638,0.116
9.43,-0.294,1.054,0.048
9.44,-0.356,0.903,-0.208
9.45,-0.042,1.171,-0.071
9.46,-0.17,0.795,0.183
9.47,-0.176,0.919,0.097
9.48,-0.372,1.003,-0.183
9.49,-0.225,0.981,-0.054
9.5,-0.157,1.14,0.104
9.51,-0.056,0.582,0.114
9.52,-0.349,1.18,-0.087
9.53,-0.261,0.841,-0.218
9.54,-0.187,1.108,0.049
9.55,-0.128,0.916,0.172
9.56,-0.121,0.824,0.041
9.57,-0.479,1.131,-0.202
9.58,-0.184,0.875,-0.009
9.59,-0.151,1.217,0.077
9.6,-0.177,0.61,0.139
9.61,-0.238,1.084,-0.147
9.62,-0.229,0.99,-0.16
9.63,-0.14,1.09,0.108
9.64,-0.02,0.958,0.074
9.65,-0.247,0.715,0.018
9.66,-0.439,1.315,-0.155
9.67,-0.108,0.872,-0.061
9.68,-0.29,1.109,0.16
9.69,0.002,0.753,0.145
9.7,-0.433,1.034,-0.221
9.71,-0.255,0.964,-0.078
9.72,0.048,1.053,0.102
9.73,-0.219,0.952,0.107
9.74,-0.239,0.709,0.041
9.75,-0.333,1.364,-0.265
9.76,-0.156,0.77,0.008
9.77,-0.143,1.122,0.218
9.78,-0.111,0.787,0.009
9.79,-0.45,0.904,-0.226
9.8,-0.084,1.235,-0.046
9.81,-0.05,0.863,0.07
9.82,-0.286,0.992,0.157
9.83,-0.133,0.721,-0.049
9.84,-0.374,1.253,-0.21
9.85,-0.18,0.906,0.105
9.86,-0.03,0.957,0.113
9.87,-0.242,0.865,-0.042
9.88,-0.342,0.969,-0.12
9.89,-0.134,1.27,-0.051
9.9,-0.163,0.702,0.143
9.91,-0.164,1.114,0.147
9.92,-0.262,0.77,-0.242
9.93,-0.347,1.118,-0.05
9.94,-0.006,1.062,0.107
9.95,-0.138,0.724,0.147
9.96,-0.363,1.035,0.034
9.97,-0.28,0.929,-0.215
9.98,-0.176,1.207,-0.006
9.99,-0.123,0.774,0.211
10.0,-0.139,0.998,0.057
10.01,-0.411,0.939,-0.17
10.02,-0.187,1.049,-0.113
10.03,-0.076,1.056,0.051
10.04,-0.188,0.662,0.202
10.05,-0.317,1.084,-0.087
10.06,-0.32,0.79,-0.207
10.07,-0.102,1.248,0.095
10.08,-0.061,0.875,0.114
10.09,-0.194,0.83,-0.01
10.1,-0.374,1.071,-0.147
10.11,-0.132,1.001,-0.079
10.12,-0.147,1.031,0.066
10.13,-0.068,0.698,0.168
10.14,-0.414,1.153,-0.154
10.15,-0.294,0.835,-0.108
10.16,-0.064,1.23,0.097
10.17,-0.108,0.659,0.112
10.18,-0.255,0.994,0.004
10.19,-0.393,1.075,-0.155
10.2,-0.205,0.908,0.014
10.21,-0.096,1.096,0.16
10.22,-0.098,0.711,0.057
10.23,-0.502,1.229,-0.172
10.24,-0.049,0.895,-0.097
10.25,-0.105,1.144,0.056
10.26,-0.231,0.742,0.229
10.27,-0.252,0.929,-0.068
10.28,-0.354,1.089,-0.21
10.29,-0.101,0.89,0.095
10.3,-0.043,1.117,0.114
10.31,-0.206,0.629,-0.001
10.32,-0.478,1.263,-0.146
10.33,-0.017,0.92,-0.112
10.34,-0.204,0.999,0.125
10.35,-0.146,0.926,0.161
10.36,-0.298,0.817,-0.184
10.37,-0.308,1.194,-0.126
10.38,0.059,0.942,0.05
10.39,-0.128,0.98,0.071
10.4,-0.223,0.715,0.073
10.41,-0.389,1.264,-0.197
10.42,-0.155,0.881,-0.067
10.43,-0.12,0.904,0.247
10.44,-0.127,1.021,0.073
10.45,-0.429,0.775,-0.211
10.46,-0.098,1.312,-0.094
10.47,-0.013,0.836,0.051
10.48,-0.265,0.953,0.203
10.49,-0.194,0.823,-0.046
10.5,-0.355,1.06,-0.208
10.51,-0.17,1.107,0.069
10.52,-0.055,0.816,0.078
10.53,-0.153,1.032,0.011
10.54,-0.42,0.887,-0.14
10.55,-0.105,1.255,-0.083
10.56,-0.124,0.763,0.103
10.57,-0.189,0.921,0.189
10.58,-0.274,0.957,-0.133
10.59,-0.269,0.899,-0.175
10.6,-0.094,1.248,0.102
10.61,-0.089,0.646,0.147
10.62,-0.302,1.08,0.013
10.63,-0.379,0.927,-0.17
10.64,-0.091,1.077,-0.064
10.65,-0.091,0.878,0.173
10.66,-0.205,0.838,0.139
10.67,-0.407,1.039,-0.196
10.68,-0.137,0.879,-0.089
10.69,-0.116,1.32,0.081
10.7,-0.127,0.557,0.139
10.71,-0.289,1.063,0.041
10.72,-0.277,1.047,-0.273
10.73,-0.101,0.989,0.02
10.74,-0.22,1.041,0.244
10.75,-0.098,0.716,0.065
10.76,-0.477,1.192,-0.212
10.77,-0.132,0.904,-0.024
10.78,-0.122,1.179,0.081
10.79,-0.196,0.705,0.179
10.8,-0.331,1.011,-0.053
10.81,-0.259,1.014,-0.242
10.82,-0.105,0.983,0.106
10.83,-0.139,1.014,0.111
10.84,-0.151,0.693,-0.0
10.85,-0.45,1.303,-0.173
10.86,-0.108,0.818,-0.071
10.87,-0.189,1.051,0.142
10.88,-0.167,0.843,0.127
10.89,-0.349,0.927,-0.236
10.9,-0.265,1.08,-0.087
10.91,-0.024,0.953,0.116
10.92,-0.16,1.036,0.101
10.93,-0.194,0.67,0.006
10.94,-0.342,1.31,-0.204
10.95,-0.123,0.903,-0.014
10.96,-0.184,1.013,0.219
10.97,-0.209,0.882,0.108
10.98,-0.434,0.857,-0.181
10.99,-0.138,1.152,-0.08
11.0,-0.024,0.84,0.062
11.01,-0.24,1.029,0.187
11.02,-0.218,0.72,-0.105
11.03,-0.351,1.247,-0.221
11.04,-0.057,0.931,0.101
11.05,-0.12,1.005,0.114
11.06,-0.203,0.832,-0.009
11.07,-0.414,1.048,-0.097
11.08,-0.069,1.178,-0.069
11.09,-0.194,0.768,0.177
11.1,-0.178,1.094,0.164
11.11,-0.259,0.741,-0.184
11.12,-0.324,1.195,-0.107
11.13,-0.008,1.003,0.094
11.14,-0.109,0.804,0.135
11.15,-0.311,0.982,0.011
11.16,-0.357,0.961,-0.211
11.17,-0.11,1.181,0.012
11.18,-0.132,0.768,0.175
11.19,-0.196,1.013,0.095
11.2,-0.352,0.887,-0.211
11.21,-0.123,1.134,-0.052
11.22,-0.146,0.978,0.138
11.23,-0.171,0.734,0.152
11.24,-0.355,1.112,-0.064
11.25,-0.249,0.82,-0.17
11.26,-0.186,1.315,0.087
11.27,-0.096,0.737,0.15
11.28,-0.139,0.934,-0.016
11.29,-0.489,0.929,-0.136
11.3,-0.078,1.097,-0.037
11.31,-0.143,0.89,0.127
11.32,-0.197,0.785,0.121
11.33,-0.382,1.117,-0.179
11.34,-0.246,0.848,-0.086
11.35,-0.056,1.281,0.081
11.36,-0.082,0.642,0.084
11.37,-0.321,1.022,-0.032
11.38,-0.278,1.014,-0.21
11.39,-0.073,1.012,-0.013
11.4,-0.198,1.021,0.181
11.41,-0.104,0.679,0.028
11.42,-0.477,1.202,-0.236
11.43,-0.117,0.874,0.0
11.44,-0.093,1.177,0.139
11.45,-0.134,0.698,0.112
11.46,-0.319,1.0,-0.107
11.47,-0.214,1.114,-0.193
11.48,-0.114,0.963,0.147
11.49,-0.16,1.038,0.16
11.5,-0.238,0.66,-0.026
11.51,-0.429,1.325,-0.19
11.52,-0.079,0.876,0.004
11.53,-0.28,1.064,0.181
11.54,-0.076,0.8,0.152
11.55,-0.36,0.937,-0.195
11.56,-0.319,1.239,-0.03
11.57,0.014,0.819,0.06
11.58,-0.157,1.038,0.122
11.59,-0.296,0.696,0.007
11.6,-0.376,1.222,-0.197
11.61,-0.052,0.999,0.036
11.62,-0.139,0.968,0.17
11.63,-0.18,0.853,0.045
11.64,-0.405,0.924,-0.175
11.65,-0.099,1.294,-0.074
11.66,-0.101,0.696,0.113
11.67,-0.221,1.039,0.177
11.68,-0.305,0.768,-0.127
11.69,-0.293,1.096,-0.173
11.7,-0.023,1.108,0.066
11.71,-0.168,0.726,0.112
11.72,-0.259,1.025,0.024
11.73,-0.31,0.927,-0.181
11.74,-0.199,1.201,-0.036
11.75,-0.078,0.764,0.173
11.76,-0.081,1.009,0.017
11.77,-0.399,0.904,-0.187
11.78,-0.257,1.016,-0.043
11.79,-0.054,1.121,0.076
11.8,-0.157,0.79,0.148
11.81,-0.372,1.037,-0.044
11.82,-0.318,0.84,-0.16
11.83,-0.103,1.303,0.111
11.84,-0.103,0.695,0.136
11.85,-0.202,0.971,0.039
11.86,-0.399,1.031,-0.17
11.87,-0.167,1.058,-0.071
11.88,-0.085,0.924,0.101
11.89,-0.107,0.803,0.129
11.9,-0.488,1.125,-0.127
11.91,-0.206,0.834,-0.089
11.92,-0.132,1.258,0.126
11.93,-0.184,0.645,0.161
11.94,-0.191,0.981,-0.024
11.95,-0.334,1.143,-0.263
11.96,-0.103,0.86,0.029
11.97,-0.113,1.144,0.133
11.98,-0.096,0.633,0.013
11.99,-0.454,1.24,-0.135
12.0,-0.159,0.955,-0.012
12.01,-0.178,1.09,0.136
12.02,-0.163,0.834,0.154
12.03,-0.268,0.897,-0.102
12.04,-0.344,1.15,-0.216
12.05,-0.002,0.935,0.107
12.06,-0.142,1.113,0.111
12.07,-0.231,0.607,0.009
12.08,-0.357,1.297,-0.16
12.09,-0.179,0.951,-0.038
12.1,-0.156,0.912,0.177
12.11,-0.027,0.947,0.094
12.12,-0.427,0.833,-0.178
12.13,-0.276,1.238,-0.11
12.14,0.011,0.873,0.028
12.15,-0.263,0.991,0.12
12.16,-0.147,0.734,0.005
12.17,-0.371,1.208,-0.254
12.18,-0.098,0.939,-0.03
12.19,0.003,0.88,0.174
12.2,-0.275,0.965,0.06
12.21,-0.414,0.817,-0.152
12.22,-0.142,1.308,-0.102
12.23,-0.099,0.744,0.102
12.24,-0.216,1.001,0.168
12.25,-0.272,0.873,-0.136
12.26,-0.29,1.011,-0.143
12.27,-0.019,1.156,0.11
12.28,-0.157,0.64,0.155
12.29,-0.286,1.049,-0.001
12.3,-0.337,0.927,-0.172
12.31,-0.212,1.197,-0.036
12.32,-0.099,0.765,0.187
12.33,-0.175,0.926,0.057
12.34,-0.486,0.987,-0.178
12.35,-0.137,0.958,-0.028
12.36,-0.141,1.198,0.111
12.37,-0.141,0.58,0.144
12.38,-0.309,1.161,-0.069
12.39,-0.255,0.893,-0.236
12.4,-0.226,1.153,0.09
12.41,-0.034,0.871,0.132
12.42,-0.191,0.809,0.034
12.43,-0.512,1.196,-0.134
12.44,-0.073,0.857,-0.079
12.45,-0.166,1.112,0.118
12.46,-0.068,0.687,0.124
12.47,-0.381,1.101,-0.202
12.48,-0.269,0.902,-0.132
12.49,-0.029,1.145,0.07
12.5,-0.109,0.904,0.139
12.51,-0.319,0.755,0.027
12.52,-0.396,1.274,-0.22
12.53,-0.038,0.833,-0.006
12.54,-0.216,1.189,0.214
12.55,-0.154,0.697,0.062
12.56,-0.382,1.121,-0.231
12.57,-0.151,1.136,-0.041
12.58,-0.062,0.858,0.078
12.59,-0.132,0.999,0.136
12.6,-0.302,0.688,-0.104
12.61,-0.311,1.275,-0.113
12.62,-0.071,0.948,0.084
12.63,-0.234,1.005,0.155
12.64,-0.111,0.763,0.034
12.65,-0.524,1.27,-0.231
12.66,-0.123,0.884,-0.028
12.67,-0.033,0.988,0.131
12.68,-0.16,0.953,0.028
12.69,-0.354,0.742,-0.141
12.7,-0.212,1.378,-0.062
12.71,-0.088,0.803,0.119
12.72,-0.162,0.993,0.2
12.73,-0.325,0.827,-0.067
12.74,-0.351,1.094,-0.149
12.75,0.016,1.139,0.068
12.76,-0.203,0.805,0.164
12.77,-0.209,1.005,0.041
12.78,-0.305,0.871,-0.236
12.79,-0.261,1.23,-0.015
12.8,-0.044,0.765,0.189
12.81,-0.236,0.944,0.087
12.82,-0.385,0.946,-0.163
12.83,-0.197,0.985,-0.123
12.84,-0.112,1.24,0.108
12.85,-0.111,0.58,0.122
12.86,-0.227,1.103,-0.037
12.87,-0.337,0.945,-0.19
12.88,-0.069,1.111,0.065
12.89,-0.05,0.859,0.154
12.9,-0.268,0.814,-0.013
12.91,-0.31,1.096,-0.246
12.92,-0.122,0.98,-0.001
12.93,-0.157,1.137,0.183
12.94,-0.179,0.656,0.213
12.95,-0.461,1.133,-0.12
12.96,-0.253,0.957,-0.187
12.97,0.015,1.122,0.056
12.98,-0.152,0.869,0.16
12.99,-0.303,0.733,0.001
13.0,-0.395,1.287,-0.202
13.01,-0.047,0.815,-0.05
13.02,-0.071,1.115,0.158
13.03,-0.217,0.703,0.09
13.04,-0.466,1.08,-0.169
13.05,-0.078,1.097,-0.099
13.06,-0.141,0.865,0.149
13.07,-0.134,0.981,0.183
13.08,-0.294,0.734,-0.141
13.09,-0.315,1.33,-0.123
13.1,0.017,0.895,0.06
13.11,-0.176,0.963,0.111
13.12,-0.156,0.817,0.018
13.13,-0.489,1.116,-0.206
13.14,-0.094,1.056,-0.023
13.15,-0.099,0.858,0.103
13.16,-0.197,1.022,0.037
13.17,-0.34,0.824,-0.15
13.18,-0.22,1.304,-0.088
13.19,-0.079,0.73,0.122
13.2,-0.155,0.921,0.157
13.21,-0.289,0.956,-0.105
13.22,-0.35,0.903,-0.161
13.23,-0.07,1.224,0.133
13.24,-0.129,0.666,0.126
13.25,-0.281,1.047,0.02
13.26,-0.305,0.932,-0.185
13.27,-0.17,1.122,-0.054
13.28,-0.156,0.859,0.141
13.29,-0.031,0.824,0.059
13.3,-0.433,1.07,-0.176
13.31,-0.209,0.869,-0.059
13.32,0.018,1.278,0.061
13.33,-0.145,0.613,0.118
13.34,-0.298,1.079,-0.026
13.35,-0.327,0.985,-0.237
13.36,-0.074,1.03,0.011
13.37,-0.012,0.996,0.146
13.38,-0.209,0.723,0.042
13.39,-0.494,1.269,-0.176
13.4,-0.056,0.867,-0.067
13.41,-0.192,1.131,0.113
13.42,-0.131,0.725,0.144
13.43,-0.416,1.001,-0.155
13.44,-0.201,0.924,-0.07
13.45,-0.091,1.127,0.106
13.46,-0.132,0.825,0.134
13.47,-0.275,0.78,-0.048
13.48,-0.333,1.233,-0.199
13.49,-0.116,0.832,0.054
13.5,-0.144,1.156,0.142
13.51,-0.082,0.648,-0.001
13.52,-0.467,1.201,-0.164
13.53,-0.11,0.992,-0.061
13.54,-0.194,0.904,0.167
13.55,-0.163,0.989,0.143
13.56,-0.357,0.723,-0.154
13.57,-0.278,1.257,-0.077
13.58,-0.058,0.893,0.1
13.59,-0.166,0.97,0.136
13.6,-0.233,0.8,0.005
13.61,-0.394,1.146,-0.21
13.62,-0.016,1.052,-0.044
13.63,-0.056,0.853,0.115
13.64,-0.202,1.004,0.056
13.65,-0.316,0.823,-0.188
13.66,-0.203,1.293,-0.121
13.67,-0.05,0.739,0.082
13.68,-0.132,0.973,0.171
13.69,-0.354,0.938,-0.087
13.7,-0.363,0.887,-0.15
13.71,-0.056,1.272,0.117
13.72,-0.134,0.69,0.12
13.73,-0.25,1.016,0.042
13.74,-0.296,0.937,-0.178
13.75,-0.203,1.179,-0.033
13.76,-0.157,0.752,0.146
13.77,-0.148,0.843,0.07
13.78,-0.442,1.057,-0.183
13.79,-0.167,0.885,-0.054
13.8,-0.094,1.27,0.077
13.81,-0.082,0.535,0.072
13.82,-0.219,1.111,-0.063
13.83,-0.351,1.026,-0.152
13.84,-0.195,1.059,0.059
13.85,-0.035,0.941,0.146
13.86,-0.229,0.708,0.033
13.87,-0.491,1.275,-0.177
13.88,-0.091,0.866,-0.047
13.89,-0.22,1.126,0.137
13.9,-0.1,0.713,0.188
13.91,-0.423,1.067,-0.173
13.92,-0.223,0.969,-0.154
13.93,-0.031,1.042,0.093
13.94,-0.134,0.979,0.131
13.95,-0.326,0.662,0.01
13.96,-0.355,1.323,-0.238
13.97,-0.083,0.897,0.017
13.98,-0.201,1.103,0.166
13.99,-0.087,0.752,0.017
14.0,-0.466,1.03,-0.152
14.01,-0.117,1.155,-0.074
14.02,-0.052,0.808,0.089
14.03,-0.219,1.057,0.17
14.04,-0.225,0.695,-0.161
14.05,-0.304,1.286,-0.144
14.06,-0.06,0.926,0.113
14.07,-0.109,0.897,0.105
14.08,-0.201,0.895,0.022
14.09,-0.365,1.061,-0.214
14.1,-0.058,1.112,-0.032
14.11,-0.125,0.732,0.219
14.12,-0.142,1.061,0.072
14.13,-0.345,0.811,-0.212
14.14,-0.218,1.171,-0.082
14.15,-0.003,0.938,0.076
14.16,-0.173,0.775,0.156
14.17,-0.424,1.064,-0.026
14.18,-0.235,0.918,-0.173
14.19,-0.185,1.229,0.084
14.2,-0.116,0.704,0.194
14.21,-0.169,0.979,-0.036
14.22,-0.449,0.934,-0.178
14.23,-0.042,1.13,-0.011
14.24,-0.175,0.913,0.064
14.25,-0.116,0.739,0.128
14.26,-0.388,1.055,-0.267
14.27,-0.21,0.888,-0.023
14.28,-0.094,1.221,0.179
14.29,-0.162,0.615,0.089
14.3,-0.323,1.084,-0.052
14.31,-0.217,0.982,-0.168
14.32,-0.143,1.132,0.09
14.33,-0.049,0.828,0.077
14.34,-0.136,0.794,-0.05
14.35,-0.47,1.254,-0.175
14.36,-0.093,0.879,-0.003
14.37,-0.12,1.156,0.123
14.38,-0.187,0.665,0.153
14.39,-0.499,1.108,-0.154
14.4,-0.166,0.966,-0.132
14.41,0.006,1.038,0.089
14.42,-0.138,0.923,0.144
14.43,-0.292,0.728,-0.037
14.44,-0.353,1.317,-0.184
14.45,-0.021,0.854,-0.007
14.46,-0.098,1.071,0.164
14.47,-0.199,0.706,0.056
14.48,-0.504,1.124,-0.168
14.49,-0.086,1.096,-0.068
14.5,-0.091,0.788,0.104
14.51,-0.107,1.049,0.13
14.52,-0.408,0.751,-0.196
14.53,-0.231,1.25,-0.085
14.54,0.002,0.888,0.125
14.55,-0.235,0.906,0.11
14.56,-0.187,0.865,-0.01
14.57,-0.318,1.073,-0.21
14.58,-0.067,1.135,0.047
14.59,-0.029,0.704,0.135
14.6,-0.276,1.062,0.067
14.61,-0.303,0.869,-0.2
14.62,-0.16,1.204,-0.081
14.63,-0.135,0.81,0.214
14.64,-0.149,0.892,0.126
14.65,-0.46,1.005,-0.179
14.66,-0.217,0.893,-0.11
14.67,-0.001,1.253,0.091
14.68,-0.202,0.604,0.14
14.69,-0.328,1.129,0.015
14.7,-0.243,0.963,-0.247
14.71,-0.185,1.065,0.033
14.72,0.017,0.933,0.186
14.73,-0.207,0.729,0.033
14.74,-0.503,1.152,-0.152
14.75,-0.013,0.883,-0.095
14.76,-0.202,1.15,0.132
14.77,-0.087,0.689,0.169
14.78,-0.431,1.067,-0.196
14.79,-0.276,0.993,-0.088
14.8,0.059,1.146,0.071
14.81,-0.199,0.907,0.11
14.82,-0.204,0.671,0.033
14.83,-0.362,1.33,-0.207
14.84,-0.129,0.836,0.026
14.85,-0.139,1.088,0.163
14.86,-0.095,0.686,0.01
14.87,-0.48,1.072,-0.17
14.88,-0.153,1.136,-0.058
14.89,-0.085,0.79,0.1
14.9,-0.194,1.062,0.186
14.91,-0.256,0.708,-0.167
14.92,-0.336,1.221,-0.129
14.93,-0.044,0.945,0.137
14.94,-0.139,0.934,0.136
14.95,-0.303,0.859,0.02
14.96,-0.367,1.073,-0.192
14.97,-0.109,1.154,-0.018
14.98,-0.132,0.748,0.19
14.99,-0.145,1.027,0.054
15.0,-0.402,0.811,-0.176
15.01,-0.119,1.25,-0.03
15.02,-0.089,0.866,0.091
15.03,-0.3,0.792,0.199
15.04,-0.206,1.056,-0.101
15.05,-0.375,0.865,-0.193
15.06,-0.052,1.244,0.159
15.07,-0.143,0.714,0.112
15.08,-0.344,1.048,0.046
15.09,-0.243,0.924,-0.224
15.1,-0.059,1.215,-0.056
15.11,-0.12,0.786,0.221
15.12,-0.12,0.888,0.055
15.13,-0.488,1.046,-0.19
15.14,-0.086,0.959,-0.002
15.15,-0.239,1.14,0.126
15.16,-0.218,0.59,0.14
15.17,-0.252,1.2,-0.15
15.18,-0.293,0.92,-0.18
15.19,-0.048,1.145,0.184
15.2,-0.105,0.868,0.127
15.21,-0.372,0.763,0.04
15.22,-0.307,1.231,-0.229
15.23,-0.153,0.887,-0.072
15.24,-0.115,1.115,0.17
15.25,-0.044,0.708,0.07
15.26,-0.632,1.136,-0.165
15.27,-0.045,0.974,-0.055
15.28,-0.081,1.033,0.074
15.29,-0.251,0.92,0.21
15.3,-0.156,0.792,-0.107
15.31,-0.399,1.27,-0.181
15.32,0.015,0.822,0.172
15.33,-0.175,1.089,0.131
15.34,-0.283,0.702,-0.061
15.35,-0.281,1.142,-0.177
15.36,-0.217,1.049,-0.029
15.37,-0.161,0.826,0.188
15.38,-0.024,1.045,0.071
15.39,-0.485,0.773,-0.134
15.4,-0.205,1.301,-0.069
15.41,-0.053,0.797,0.085
15.42,-0.207,0.943,0.166
15.43,-0.218,0.883,-0.086
15.44,-0.333,1.035,-0.201
15.45,-0.075,1.175,0.122
15.46,-0.045,0.74,0.109
15.47,-0.329,1.056,0.018
15.48,-0.312,0.936,-0.144
15.49,-0.163,1.262,-0.064
15.5,-0.179,0.728,0.141
15.51,-0.01,0.909,0.084
15.52,-0.449,1.004,-0.224
15.53,-0.25,0.924,0.005
15.54,-0.049,1.249,0.091
15.55,-0.228,0.596,0.119
15.56,-0.248,1.128,-0.004
15.57,-0.337,0.91,-0.265
15.58,-0.18,1.085,0.088
15.59,-0.022,0.937,0.143
15.6,-0.211,0.767,0.0
15.61,-0.446,1.158,-0.153
15.62,-0.033,0.919,-0.087
15.63,-0.153,1.104,0.082
15.64,-0.095,0.698,0.197
15.65,-0.466,1.093,-0.112
15.66,-0.338,0.966,-0.111
15.67,0.052,1.068,0.092
15.68,-0.146,0.921,0.097
15.69,-0.292,0.745,0.031
15.7,-0.29,1.313,-0.236
15.71,-0.121,0.824,0.016
15.72,-0.101,1.125,0.185
15.73,-0.074,0.7,0.01
15.74,-0.518,1.127,-0.164
15.75,-0.123,1.146,-0.052
15.76,-0.163,0.816,0.072
15.77,-0.167,1.011,0.181
15.78,-0.236,0.726,-0.164
15.79,-0.279,1.253,-0.161
15.8,-0.063,0.93,0.19
15.81,-0.162,0.964,0.106
15.82,-0.32,0.791,0.014
15.83,-0.306,1.101,-0.212
15.84,-0.076,1.157,-0.052
15.85,-0.218,0.754,0.245
15.86,-0.173,1.021,0.082
15.87,-0.36,0.822,-0.215
15.88,-0.144,1.254,-0.093
15.89,-0.074,0.702,0.06
15.9,-0.174,1.004,0.159
15.91,-0.281,0.84,-0.131
15.92,-0.326,1.056,-0.115
15.93,0.002,1.16,0.067
15.94,-0.027,0.697,0.091
15.95,-0.329,1.056,0.02
15.96,-0.276,0.882,-0.193
15.97,-0.098,1.271,-0.019
15.98,-0.178,0.759,0.191
15.99,-0.047,0.933,0.083
16.0,-0.439,1.018,-0.206
16.01,-0.195,0.969,-0.04
16.02,-0.056,1.095,0.05
16.03,-0.202,0.654,0.18
16.04,-0.287,1.168,-0.013
16.05,-0.331,0.865,-0.225
16.06,-0.14,1.149,0.076
16.07,-0.051,0.912,0.122
16.08,-0.237,0.791,-0.018
16.09,-0.386,1.189,-0.181
16.1,0.029,0.947,-0.093
16.11,-0.249,1.077,0.16
16.12,-0.105,0.711,0.179
16.13,-0.429,1.138,-0.192
16.14,-0.29,0.86,-0.112
16.15,0.11,1.126,0.111
16.16,-0.255,0.897,0.119
16.17,-0.283,0.734,0.067
16.18,-0.317,1.297,-0.237
16.19,-0.149,0.798,-0.025
16.2,-0.065,1.151,0.169
16.21,-0.139,0.701,0.018
16.22,-0.53,1.076,-0.148
16.23,-0.049,1.055,-0.071
16.24,-0.115,0.895,0.087
16.25,-0.205,1.029,0.179
16.26,-0.259,0.731,-0.13
16.27,-0.42,1.252,-0.156
16.28,0.09,0.895,0.085
16.29,-0.117,1.038,0.128
16.3,-0.342,0.761,0.037
16.31,-0.295,1.075,-0.208
16.32,-0.179,1.124,-0.051
16.33,-0.069,0.786,0.213
16.34,-0.089,1.047,0.048
16.35,-0.509,0.806,-0.136
16.36,-0.121,1.277,-0.134
16.37,-0.088,0.859,0.083
16.38,-0.256,0.879,0.241
16.39,-0.168,0.926,-0.113
16.4,-0.343,0.991,-0.148
16.41,-0.184,1.161,0.114
16.42,-0.033,0.727,0.134
16.43,-0.314,1.024,-0.007
16.44,-0.332,0.888,-0.164
16.45,-0.069,1.177,-0.075
16.46,-0.219,0.862,0.136
16.47,-0.06,0.837,0.16
16.48,-0.401,1.067,-0.151
16.49,-0.317,0.918,-0.026
16.5,-0.063,1.28,0.096
16.51,-0.125,0.645,0.099
16.52,-0.322,1.052,-0.009
16.53,-0.292,0.961,-0.236
16.54,-0.092,1.044,0.002
16.55,-0.148,1.003,0.217
16.56,-0.098,0.72,0.001
16.57,-0.505,1.193,-0.199
16.58,-0.008,0.905,-0.062
16.59,-0.164,1.153,0.089
16.6,-0.168,0.684,0.203
16.61,-0.316,1.026,-0.131
16.62,-0.273,0.969,-0.215
16.63,-0.01,1.052,0.13
16.64,-0.151,1.066,0.156
16.65,-0.25,0.623,-0.018
16.66,-0.358,1.363,-0.166
16.67,-0.129,0.884,0.021
16.68,-0.279,1.04,0.192
16.69,-0.017,0.788,0.101
16.7,-0.46,1.003,-0.225
16.71,-0.087,1.005,-0.068
16.72,-0.075,0.985,0.095
16.73,-0.235,0.893,0.172
16.74,-0.211,0.805,-0.09
16.75,-0.314,1.279,-0.196
16.76,-0.04,0.84,0.132
16.77,-0.157,1.067,0.141
16.78,-0.212,0.697,0.011
16.79,-0.408,1.212,-0.191
16.8,-0.095,1.043,-0.096
16.81,-0.18,0.845,0.161
16.82,-0.121,1.041,0.13
16.83,-0.296,0.716,-0.228
16.84,-0.264,1.269,-0.038
16.85,-0.05,0.906,0.117
16.86,-0.216,0.909,0.114
16.87,-0.264,0.869,-0.013
16.88,-0.309,1.021,-0.219
16.89,-0.195,1.149,0.048
16.9,-0.079,0.784,0.132
16.91,-0.198,1.041,0.068
16.92,-0.385,0.83,-0.149
16.93,-0.146,1.249,-0.081
16.94,-0.101,0.795,0.112
16.95,-0.116,0.879,0.18
16.96,-0.324,0.996,-0.124
16.97,-0.339,0.868,-0.155
16.98,-0.047,1.289,0.12
16.99,-0.142,0.622,0.129
17.0,-0.271,1.064,0.064
17.01,-0.317,0.981,-0.225
17.02,-0.095,1.043,-0.068
17.03,-0.195,0.926,0.213
17.04,-0.32,0.796,-0.219
17.05,-0.261,1.246,-0.08
17.06,0.021,0.923,0.073
17.07,-0.186,1.041,0.149
17.08,-0.229,0.714,0.01
17.09,-0.381,1.247,-0.228
17.1,-0.114,0.928,0.052
17.11,-0.173,0.982,0.185
17.12,-0.145,0.901,0.044
17.13,-0.399,0.848,-0.189
17.14,-0.204,1.301,-0.058
17.15,-0.044,0.736,0.126
17.16,-0.248,1.043,0.16
17.17,-0.232,0.78,-0.107
17.18,-0.301,1.075,-0.192
17.19,-0.08,1.115,0.164
17.2,-0.204,0.817,0.184
17.21,-0.263,0.982,-0.007
17.22,-0.317,0.898,-0.198
17.23,-0.121,1.222,-0.069
17.24,-0.139,0.782,0.19
17.25,-0.147,0.946,0.119
17.26,-0.359,0.906,-0.186
17.27,-0.179,1.059,-0.03
17.28,-0.148,1.134,0.065
17.29,-0.164,0.599,0.144
17.3,-0.282,1.152,0.001
17.31,-0.376,0.846,-0.215
17.32,-0.205,1.175,0.091
17.33,-0.053,0.884,0.113
17.34,-0.187,0.859,0.033
17.35,-0.395,1.075,-0.178
17.36,-0.115,0.947,-0.137
17.37,-0.121,1.107,0.094
17.38,-0.119,0.679,0.187
17.39,-0.427,1.112,-0.141
17.4,-0.183,0.812,-0.168
17.41,-0.114,1.231,0.121
17.42,-0.116,0.87,0.126
17.43,-0.279,0.975,0.039
17.44,-0.387,1.085,-0.249
17.45,-0.059,0.919,-0.019
17.46,-0.143,1.165,0.161
17.47,-0.089,0.645,0.066
17.48,-0.427,1.182,-0.198
17.49,-0.21,0.905,-0.062
17.5,-0.081,1.142,0.085
17.51,-0.125,0.758,0.165
17.52,-0.302,0.907,-0.039
17.53,-0.362,1.119,-0.249
17.54,-0.051,0.868,0.028
17.55,-0.154,1.207,0.094
17.56,-0.034,0.596,-0.0
17.57,-0.442,1.256,-0.157
17.58,-0.149,0.952,-0.083
17.59,-0.118,0.962,0.105
17.6,-0.164,0.914,0.205
17.61,-0.337,0.832,-0.152
17.62,-0.277,1.157,-0.196
17.63,0.052,0.922,0.026
17.64,-0.138,1.064,0.036
17.65,-0.18,0.682,0.037
17.66,-0.316,1.276,-0.212
17.67,-0.105,0.918,-0.086
17.68,-0.129,0.895,0.188
17.69,-0.114,1.005,0.106
17.7,-0.418,0.753,-0.198
17.71,-0.261,1.255,-0.029
17.72,0.035,0.87,0.101
17.73,-0.241,0.985,0.118
17.74,-0.216,0.816,-0.017
17.75,-0.367,1.077,-0.197
17.76,-0.153,1.059,0.056
17.77,-0.069,0.881,0.163
17.78,-0.149,0.997,0.015
17.79,-0.418,0.794,-0.143
17.8,-0.19,1.253,-0.075
17.81,-0.041,0.795,0.077
17.82,-0.18,0.917,0.211
17.83,-0.298,0.919,-0.125
17.84,-0.24,0.939,-0.172
17.85,-0.122,1.23,0.108
17.86,-0.072,0.677,0.174
17.87,-0.346,1.066,0.035
17.88,-0.34,0.908,-0.213
17.89,-0.101,1.156,-0.06
17.9,-0.165,0.861,0.177
17.91,-0.085,0.821,0.111
17.92,-0.343,1.093,-0.207
17.93,-0.201,0.948,-0.052
17.94,-0.184,1.195,0.049
17.95,-0.065,0.585,0.112
17.96,-0.281,1.118,-0.02
17.97,-0.386,0.917,-0.178
17.98,-0.089,1.053,0.024
17.99,-0.133,1.011,0.145
18.0,-0.135,0.728,0.101
18.01,-0.407,1.198,-0.175
18.02,-0.135,0.926,-0.067
18.03,-0.16,1.126,0.109
18.04,-0.102,0.695,0.186
18.05,-0.438,1.079,-0.066
18.06,-0.223,0.909,-0.191
18.07,-0.09,1.093,0.087
18.08,-0.194,0.996,0.128
18.09,-0.105,0.69,0.022
18.1,-0.443,1.352,-0.205
18.11,-0.119,0.799,-0.029
18.12,-0.168,1.17,0.198
18.13,-0.125,0.728,0.122
18.14,-0.442,0.962,-0.147
18.15,-0.201,1.128,-0.052
18.16,-0.161,0.998,0.062
18.17,-0.092,0.927,0.114
18.18,-0.197,0.757,0.06
18.19,-0.453,1.314,-0.226
18.2,-0.109,0.786,-0.001
18.21,-0.071,1.161,0.179
18.22,-0.195,0.831,0.083
18.23,-0.402,0.908,-0.133
18.24,-0.143,1.116,-0.051
18.25,-0.103,0.886,0.073
18.26,-0.15,0.948,0.163
18.27,-0.254,0.753,-0.119
18.28,-0.314,1.229,-0.183
18.29,-0.018,0.912,0.1
18.3,-0.198,1.02,0.144
18.31,-0.194,0.762,0.061
18.32,-0.33,1.176,-0.196
18.33,-0.209,1.106,0.011
18.34,-0.161,0.772,0.178
18.35,-0.191,1.07,0.118
18.36,-0.316,0.719,-0.182
18.37,-0.237,1.241,-0.075
18.38,-0.104,0.985,0.086
18.39,-0.143,0.845,0.103
18.4,-0.176,0.935,0.002
18.41,-0.33,1.025,-0.22
18.42,-0.17,1.099,-0.026
18.43,-0.046,0.805,0.205
18.44,-0.193,1.033,0.024
18.45,-0.393,0.755,-0.202
18.46,-0.031,1.262,-0.083
18.47,-0.147,0.91,0.078
18.48,-0.157,0.748,0.188
18.49,-0.182,1.075,-0.114
18.5,-0.362,0.84,-0.183
18.51,-0.182,1.234,0.106
18.52,0.023,0.786,0.124
18.53,-0.337,0.988,0.024
18.54,-0.346,0.903,-0.115
18.55,-0.123,1.174,-0.077
18.56,-0.236,0.863,0.112
18.57,-0.068,0.757,0.19
18.58,-0.392,1.152,-0.196
18.59,-0.328,0.734,-0.103
18.6,-0.019,1.367,0.12
18.61,-0.157,0.712,0.125
18.62,-0.321,0.943,0.021
18.63,-0.266,1.065,-0.192
18.64,-0.123,0.977,-0.068
18.65,-0.262,1.019,0.217
18.66,-0.014,0.698,0.104
18.67,-0.465,1.158,-0.219
18.68,-0.223,0.865,-0.042
18.69,-0.046,1.254,0.032
18.7,-0.176,0.662,0.108
18.71,-0.224,0.943,0.017
18.72,-0.378,1.16,-0.217
18.73,-0.115,0.861,0.052
18.74,-0.159,1.183,0.169
18.75,-0.094,0.618,0.085
18.76,-0.502,1.207,-0.143
18.77,-0.048,0.939,-0.109
18.78,-0.087,1.075,0.092
18.79,-0.193,0.857,0.216
18.8,-0.331,0.879,-0.099
18.81,-0.289,1.156,-0.221
18.82,-0.051,0.917,0.128
18.83,-0.16,1.194,0.125
18.84,-0.127,0.61,0.022
18.85,-0.433,1.267,-0.154
18.86,-0.184,0.916,-0.096
18.87,-0.114,0.93,0.126
18.88,-0.15,1.001,0.202
18.89,-0.369,0.782,-0.209
18.9,-0.256,1.147,-0.165
18.91,0.052,0.948,0.059
18.92,-0.205,1.031,0.161
18.93,-0.137,0.684,0.007
18.94,-0.341,1.223,-0.222
18.95,-0.172,0.988,-0.026
18.96,-0.118,0.876,0.201
18.97,-0.243,0.994,0.102
18.98,-0.362,0.766,-0.194
18.99,-0.172,1.334,-0.065
19.0,-0.118,0.846,0.106
19.01,-0.216,0.872,0.137
19.02,-0.113,0.883,-0.059
19.03,-0.356,1.039,-0.22
19.04,-0.182,1.053,0.056
19.05,0.026,0.821,0.114
19.06,-0.246,0.937,0.007
19.07,-0.321,0.937,-0.152
19.08,-0.216,1.273,-0.046
19.09,-0.144,0.638,0.142
19.1,-0.062,1.058,0.145
19.11,-0.314,0.823,-0.166
19.12,-0.278,0.994,-0.099
19.13,-0.081,1.141,0.087
19.14,-0.155,0.709,0.102
19.15,-0.267,1.031,0.046
19.16,-0.302,0.938,-0.211
19.17,-0.179,1.171,-0.04
19.18,-0.105,0.71,0.168
19.19,-0.166,0.999,0.125
19.2,-0.388,0.894,-0.179
19.21,-0.189,0.977,-0.109
19.22,0.018,1.218,0.053
19.23,-0.179,0.58,0.113
19.24,-0.279,1.127,0.038
19.25,-0.32,0.886,-0.223
19.26,-0.187,1.152,0.034
19.27,-0.016,0.89,0.196
19.28,-0.185,0.85,-0.014
19.29,-0.468,1.025,-0.131
19.3,-0.06,1.009,-0.105
19.31,-0.137,1.136,0.038
19.32,-0.136,0.63,0.231
19.33,-0.399,1.189,-0.078
19.34,-0.235,0.787,-0.231
19.35,-0.167,1.192,0.14
19.36,-0.043,0.903,0.137
19.37,-0.271,0.779,0.016
19.38,-0.415,1.222,-0.129
19.39,-0.159,0.885,-0.02
19.4,-0.241,1.089,0.138
19.41,-0.065,0.679,0.138
19.42,-0.39,1.112,-0.21
19.43,-0.206,0.932,-0.135
19.44,-0.029,1.104,0.068
19.45,-0.105,0.892,0.103
19.46,-0.254,0.773,0.045
19.47,-0.451,1.312,-0.22
19.48,-0.185,0.761,-0.006
19.49,-0.113,1.232,0.177
19.5,-0.091,0.689,0.103
19.51,-0.439,1.026,-0.168
19.52,-0.099,1.13,-0.107
19.53,-0.125,0.894,0.1
19.54,-0.199,0.973,0.161
19.55,-0.239,0.73,-0.099
19.56,-0.358,1.231,-0.18
19.57,-0.125,0.906,0.116
19.58,-0.188,1.124,0.157
19.59,-0.097,0.747,0.005
19.6,-0.434,1.012,-0.159
19.61,-0.139,1.149,-0.063
19.62,-0.085,0.806,0.109
19.63,-0.246,1.033,0.17
19.64,-0.225,0.732,-0.161
19.65,-0.31,1.237,-0.155
19.66,-0.052,0.963,0.083
19.67,-0.146,0.926,0.127
19.68,-0.209,0.843,0.069
19.69,-0.323,1.046,-0.216
19.7,-0.206,1.21,-0.049
19.71,-0.077,0.714,0.166
19.72,-0.197,1.1,0.146
19.73,-0.291,0.803,-0.176
19.74,-0.261,1.198,-0.143
19.75,-0.091,1.0,0.111
19.76,-0.113,0.781,0.153
19.77,-0.284,1.005,-0.034
19.78,-0.29,0.956,-0.18
19.79,-0.165,1.206,0.0
19.8,-0.115,0.705,0.131
19.81,-0.112,1.007,0.092
19.82,-0.358,0.899,-0.223
19.83,-0.179,1.074,-0.046
19.84,-0.069,1.024,0.094
19.85,-0.165,0.694,0.12
19.86,-0.313,1.119,-0.012
19.87,-0.287,0.887,-0.177
19.88,-0.149,1.189,0.096
19.89,-0.085,0.698,0.138
19.9,-0.196,1.065,-0.072
19.91,-0.401,0.907,-0.158
19.92,-0.151,1.143,-0.012
19.93,-0.126,0.903,0.095
19.94,-0.161,0.798,0.166
19.95,-0.404,1.07,-0.165
19.96,-0.18,0.883,-0.125
19.97,-0.122,1.299,0.122
19.98,-0.095,0.595,0.109
19.99,-0.335,1.042,0.054
20.0,-0.292,1.007,-0.239
20.01,-0.094,1.04,0.022
20.02,-0.223,0.981,0.179
20.03,-0.105,0.729,0.063
20.04,-0.408,1.2,-0.188
20.05,-0.131,0.901,-0.022
20.06,-0.168,1.164,0.114
20.07,-0.135,0.703,0.154
20.08,-0.292,1.031,-0.095
20.09,-0.31,1.045,-0.169
20.1,-0.124,1.007,0.108
20.11,-0.08,1.083,0.105
20.12,-0.164,0.647,0.034
20.13,-0.414,1.346,-0.181
20.14,-0.118,0.877,-0.053
20.15,-0.209,1.029,0.144
20.16,-0.086,0.812,0.126
20.17,-0.416,0.942,-0.163
20.18,-0.257,1.103,-0.081
20.19,-0.051,0.975,0.122
20.2,-0.208,0.998,0.154
20.21,-0.179,0.708,0.033
20.22,-0.418,1.361,-0.244
20.23,-0.135,0.8,-0.008
20.24,-0.111,1.047,0.195
20.25,-0.153,0.9,0.067
20.26,-0.48,0.87,-0.16
20.27,-0.18,1.25,-0.036
20.28,-0.095,0.79,0.082
20.29,-0.215,1.0,0.144
20.3,-0.196,0.796,-0.075
20.31,-0.407,1.146,-0.179
20.32,-0.079,0.99,0.088
20.33,-0.041,0.998,0.155
20.34,-0.253,0.888,-0.008
20.35,-0.373,0.882,-0.146
20.36,-0.138,1.324,-0.101
20.37,-0.088,0.661,0.123
20.38,-0.108,1.067,0.141
20.39,-0.323,0.832,-0.206
20.4,-0.375,1.054,-0.058
20.41,-0.042,1.102,0.046
20.42,-0.09,0.682,0.105
20.43,-0.332,1.085,0.072
20.44,-0.284,0.904,-0.227
20.45,-0.123,1.226,-0.045
20.46,-0.118,0.791,0.178
20.47,-0.137,0.944,0.102
20.48,-0.443,0.954,-0.162
20.49,-0.152,1.032,-0.085
20.5,-0.1,1.069,0.051
20.51,-0.163,0.647,0.182
20.52,-0.351,1.147,-0.096
20.53,-0.21,0.808,-0.201
20.54,-0.192,1.26,0.085
20.55,-0.102,0.802,0.153
20.56,-0.192,0.871,0.016
20.57,-0.408,1.101,-0.181
20.58,-0.118,0.926,-0.068
20.59,-0.129,1.067,0.089
20.6,-0.1,0.694,0.138
20.61,-0.397,1.115,-0.146
20.62,-0.245,0.82,-0.12
20.63,-0.092,1.253,0.102
20.64,-0.128,0.784,0.103
20.65,-0.21,0.798,0.05
20.66,-0.418,1.283,-0.225
20.67,-0.07,0.792,-0.049
20.68,-0.161,1.162,0.197
20.69,-0.263,0.645,0.092
20.7,-0.379,1.218,-0.201
20.71,-0.079,0.976,-0.127
20.72,-0.156,1.06,0.064
20.73,-0.067,0.751,0.201
20.74,-0.354,0.973,-0.104
20.75,-0.288,1.079,-0.189
20.76,-0.008,0.96,0.088
20.77,-0.211,1.052,0.131
20.78,-0.129,0.685,0.028
20.79,-0.405,1.36,-0.226
20.8,-0.153,0.833,-0.055
20.81,-0.2,1.051,0.195
20.82,-0.082,0.879,0.104
20.83,-0.449,0.813,-0.19
20.84,-0.205,1.213,-0.091
20.85,-0.019,0.943,0.063
20.86,-0.207,0.98,0.15
20.87,-0.126,0.7,-0.018
20.88,-0.356,1.291,-0.252
20.89,-0.129,0.925,0.048
20.9,-0.128,0.986,0.21
20.91,-0.205,0.903,0.073
20.92,-0.395,0.861,-0.156
20.93,-0.062,1.331,-0.105
20.94,-0.162,0.742,0.147
20.95,-0.172,1.008,0.176
20.96,-0.281,0.828,-0.094
20.97,-0.322,1.072,-0.16
20.98,-0.09,1.084,0.047
20.99,-0.096,0.836,0.142
21.0,-0.255,0.993,0.038
21.01,-0.378,0.877,-0.168
21.02,-0.139,1.303,-0.039
21.03,-0.151,0.688,0.121
21.04,-0.11,0.998,0.141
21.05,-0.407,0.939,-0.175
21.06,-0.256,0.991,-0.086
21.07,-0.001,1.181,0.074
21.08,-0.146,0.65,0.087
21.09,-0.309,1.095,0.037
21.1,-0.273,0.889,-0.228
21.11,-0.226,1.163,0.014
21.12,-0.08,0.777,0.24
21.13,-0.128,0.88,0.021
21.14,-0.458,1.012,-0.213
21.15,-0.006,0.97,-0.076
21.16,-0.173,1.124,0.086
21.17,-0.189,0.642,0.204
21.18,-0.302,1.164,-0.101
21.19,-0.39,0.855,-0.191
21.2,-0.061,1.167,0.168
21.21,-0.089,0.868,0.134
21.22,-0.326,0.803,0.009
21.23,-0.299,1.247,-0.194
21.24,-0.092,0.881,-0.026
21.25,-0.25,1.098,0.179
21.26,0.041,0.66,0.014
21.27,-0.47,1.125,-0.225
21.28,-0.217,0.963,-0.038
21.29,0.034,1.112,0.046
21.3,-0.216,0.853,0.127
21.31,-0.278,0.761,0.026
21.32,-0.314,1.285,-0.271
21.33,-0.154,0.793,0.034
21.34,-0.043,1.135,0.186
21.35,-0.119,0.698,0.0
21.36,-0.525,1.099,-0.139
21.37,-0.019,1.091,-0.018
21.38,-0.215,0.911,0.15
21.39,-0.226,0.955,0.156
21.4,-0.221,0.769,-0.159
21.41,-0.442,1.269,-0.107
21.42,-0.044,0.852,0.134
21.43,-0.076,1.049,0.08
21.44,-0.273,0.74,-0.031
21.45,-0.273,1.127,-0.127
21.46,-0.129,1.148,-0.015
21.47,-0.234,0.697,0.23
21.48,-0.085,1.076,0.094
21.49,-0.445,0.768,-0.284
21.5,-0.201,1.232,-0.016
21.51,-0.054,0.858,0.111
21.52,-0.316,0.962,0.173
21.53,-0.177,0.787,-0.103
21.54,-0.25,1.165,-0.223
21.55,-0.19,1.008,0.133
21.56,-0.064,0.788,0.144
21.57,-0.304,0.989,-0.068
21.58,-0.337,0.887,-0.162
21.59,-0.115,1.277,-0.001
21.6,-0.108,0.682,0.116
21.61,-0.109,1.01,0.069
21.62,-0.323,0.906,-0.248
21.63,-0.232,0.996,-0.052
21.64,-0.036,1.097,0.142
21.65,-0.127,0.687,0.074
21.66,-0.364,1.082,-0.042
21.67,-0.229,0.864,-0.225
21.68,-0.181,1.25,0.105
21.69,-0.096,0.771,0.133
21.7,-0.201,0.924,-0.033
21.71,-0.448,1.07,-0.162
21.72,-0.128,0.937,-0.061
21.73,-0.129,1.053,0.086
21.74,-0.084,0.705,0.108
21.75,-0.423,1.165,-0.199
21.76,-0.21,0.891,-0.072
21.77,-0.053,1.241,0.072
21.78,-0.128,0.725,0.107
21.79,-0.219,0.861,-0.009
21.8,-0.355,1.195,-0.243
21.81,-0.088,0.85,0.036
21.82,-0.113,1.184,0.157
21.83,-0.114,0.607,-0.01
21.84,-0.492,1.213,-0.177
21.85,-0.054,0.959,-0.09
21.86,-0.126,0.979,0.111
21.87,-0.199,0.904,0.223
21.88,-0.328,0.837,-0.122
21.89,-0.344,1.156,-0.145
21.9,-0.021,0.923,0.17
21.91,-0.209,1.085,0.146
21.92,-0.287,0.662,0.041
21.93,-0.298,1.234,-0.215
21.94,-0.187,0.981,-0.019
21.95,-0.143,0.884,0.21
21.96,-0.155,0.939,0.068
21.97,-0.417,0.821,-0.187
21.98,-0.138,1.324,-0.089
21.99,-0.028,0.774,0.101
22.0,-0.232,1.006,0.223
22.01,-0.305,0.795,-0.091
22.02,-0.348,1.061,-0.225
22.03,-0.034,1.121,0.139
22.04,-0.189,0.751,0.142
22.05,-0.319,1.027,0.068
22.06,-0.318,0.939,-0.2
22.07,-0.145,1.19,-0.071
22.08,-0.012,0.728,0.2
22.09,-0.286,0.979,0.109
22.1,-0.329,0.895,-0.214
22.11,-0.197,1.048,-0.031
22.12,-0.107,1.119,0.111
22.13,-0.159,0.608,0.102
22.14,-0.289,1.159,-0.029
22.15,-0.273,0.841,-0.239
22.16,-0.172,1.173,0.106
22.17,-0.094,0.877,0.151
22.18,-0.192,0.841,-0.022
22.19,-0.432,1.067,-0.171
22.2,-0.145,0.95,-0.042
22.21,-0.185,1.105,0.095
22.22,-0.045,0.654,0.177
22.23,-0.441,1.15,-0.148
22.24,-0.195,0.796,-0.168
22.25,-0.001,1.28,0.074
22.26,-0.189,0.754,0.129
22.27,-0.212,0.818,0.096
22.28,-0.428,1.305,-0.266
22.29,-0.152,0.771,-0.006
22.3,-0.079,1.2,0.141
22.31,-0.156,0.626,0.038
22.32,-0.492,1.153,-0.135
22.33,-0.042,0.946,-0.112
22.34,-0.197,1.054,0.139
22.35,-0.078,0.818,0.212
22.36,-0.389,0.889,-0.187
22.37,-0.297,1.045,-0.119
22.38,0.032,1.011,0.041
22.39,-0.209,1.011,0.132
22.4,-0.231,0.651,0.073
22.41,-0.333,1.366,-0.275
22.42,-0.046,0.83,-0.076
22.43,-0.127,1.052,0.222
22.44,-0.134,0.844,0.102
22.45,-0.426,0.863,-0.165
22.46,-0.124,1.261,-0.112
22.47,-0.057,0.784,0.094
22.48,-0.219,1.083,0.194
22.49,-0.23,0.713,-0.113
22.5,-0.373,1.186,-0.195
22.51,-0.127,0.997,0.103
22.52,-0.091,0.965,0.137
22.53,-0.212,0.86,0.011
22.54,-0.327,0.968,-0.122
22.55,-0.244,1.269,-0.094
22.56,-0.159,0.605,0.12
22.57,-0.004,1.11,0.106
22.58,-0.371,0.795,-0.175
22.59,-0.305,1.032,-0.114
22.6,0.009,1.151,0.034
22.61,-0.214,0.671,0.135
22.62,-0.192,1.042,0.078
22.63,-0.39,0.942,-0.23
22.64,-0.195,1.095,-0.048
22.65,0.021,0.86,0.18
22.66,-0.219,0.993,0.079
22.67,-0.391,0.829,-0.198
22.68,-0.044,1.105,-0.055
22.69,-0.237,1.049,0.075
22.7,-0.167,0.648,0.206
22.71,-0.294,1.155,-0.08
22.72,-0.436,0.797,-0.224
22.73,-0.157,1.173,0.122
22.74,0.01,0.913,0.086
22.75,-0.249,0.872,0.017
22.76,-0.329,1.03,-0.106
22.77,-0.069,0.973,-0.113
22.78,-0.209,0.981,0.12
22.79,-0.099,0.72,0.196
22.8,-0.438,1.121,-0.154
22.81,-0.273,0.771,-0.139
22.82,-0.048,1.301,0.108
22.83,-0.149,0.787,0.123
22.84,-0.266,0.823,0.057
22.85,-0.256,1.306,-0.256
22.86,-0.12,0.773,-0.075
22.87,-0.215,1.078,0.229
22.88,-0.064,0.712,0.13
22.89,-0.552,1.11,-0.219
22.9,-0.161,0.901,-0.008
22.91,-0.145,1.179,0.133
22.92,-0.261,0.821,0.131
22.93,-0.134,0.835,-0.05
22.94,-0.363,1.274,-0.219
22.95,-0.182,0.799,0.111
22.96,-0.075,1.17,0.132
22.97,-0.14,0.656,0.042
22.98,-0.421,1.16,-0.15
22.99,-0.166,1.091,-0.089
23.0,-0.166,0.869,0.043
23.01,-0.119,0.996,0.196
23.02,-0.363,0.714,-0.113
23.03,-0.324,1.232,-0.137
23.04,-0.051,0.906,0.086
23.05,-0.176,0.985,0.096
23.06,-0.115,0.73,0.028
23.07,-0.407,1.227,-0.229
23.08,-0.13,1.054,-0.049
23.09,-0.085,0.818,0.153
23.1,-0.266,1.057,0.139
23.11,-0.352,0.718,-0.167
23.12,-0.265,1.267,-0.096
23.13,0.019,0.912,0.081
23.14,-0.201,0.982,0.124
23.15,-0.201,0.785,-0.035
23.16,-0.357,1.155,-0.204
23.17,-0.137,1.005,0.08
23.18,-0.04,0.916,0.111
23.19,-0.184,0.959,0.005
23.2,-0.439,0.85,-0.125
23.21,-0.203,1.307,-0.063
23.22,-0.082,0.674,0.055
23.23,-0.167,1.045,0.201
23.24,-0.325,0.861,-0.115
23.25,-0.308,0.996,-0.153
23.26,0.029,1.161,0.067
23.27,-0.156,0.7,0.139
23.28,-0.292,1.029,0.05
23.29,-0.311,0.925,-0.199
23.3,-0.182,1.18,-0.029
23.31,-0.117,0.741,0.163
23.32,-0.106,0.948,0.094
23.33,-0.365,0.974,-0.219
23.34,-0.202,0.989,-0.057
23.35,-0.088,1.158,0.082
23.36,-0.077,0.627,0.119
23.37,-0.297,1.128,-0.025
23.38,-0.307,0.852,-0.189
23.39,-0.115,1.132,0.017
23.4,-0.111,0.903,0.139
23.41,-0.17,0.816,0.06
23.42,-0.358,1.127,-0.197
23.43,-0.127,0.982,-0.093
23.44,-0.127,1.105,0.085
23.45,-0.087,0.676,0.207
23.46,-0.386,1.113,-0.101
23.47,-0.277,0.847,-0.152
23.48,-0.086,1.202,0.126
23.49,-0.093,0.878,0.092
23.5,-0.247,0.764,0.019
23.51,-0.41,1.281,-0.182
23.52,-0.069,0.831,-0.059
23.53,-0.271,1.136,0.187
23.54,-0.046,0.747,0.12
23.55,-0.417,1.054,-0.182
23.56,-0.279,0.948,-0.124
23.57,0.055,1.078,0.027
23.58,-0.155,0.903,0.108
23.59,-0.264,0.729,0.05
23.6,-0.374,1.301,-0.232
23.61,-0.065,0.786,0.001
23.62,-0.141,1.179,0.213
23.63,-0.125,0.713,0.09
23.64,-0.485,1.082,-0.197
23.65,-0.086,1.089,-0.092
23.66,-0.129,0.897,0.097
23.67,-0.189,1.005,0.149
23.68,-0.24,0.735,-0.091
23.69,-0.349,1.234,-0.169
23.7,-0.014,0.893,0.096
23.71,-0.139,1.06,0.154
23.72,-0.21,0.74,0.043
23.73,-0.332,1.099,-0.191
23.74,-0.128,1.154,-0.043
23.75,-0.204,0.781,0.146
23.76,-0.102,1.078,0.14
23.77,-0.276,0.69,-0.185
23.78,-0.351,1.245,-0.033
23.79,0.023,0.967,0.051
23.8,-0.153,0.871,0.099
23.81,-0.241,0.914,0.048
23.82,-0.369,1.049,-0.203
23.83,-0.194,1.139,-0.021
23.84,-0.08,0.744,0.126
23.85,-0.149,1.069,0.049
23.86,-0.373,0.79,-0.163
23.87,-0.237,1.173,-0.059
23.88,-0.035,0.928,0.042
23.89,-0.148,0.748,0.167
23.9,-0.296,1.05,-0.025
23.91,-0.274,0.901,-0.237
23.92,-0.187,1.221,0.033
23.93,-0.043,0.749,0.157
23.94,-0.184,0.993,0.013
23.95,-0.446,0.917,-0.16
23.96,-0.042,1.222,-0.082
23.97,-0.192,0.775,0.113
23.98,-0.136,0.88,0.189
23.99,-0.306,1.041,-0.171
24.0,-0.281,0.851,-0.141
24.01,-0.043,1.237,0.102
24.02,-0.043,0.649,0.082
24.03,-0.27,1.042,-0.005
24.04,-0.336,0.944,-0.147
24.05,-0.141,1.098,0.002
24.06,-0.214,0.844,0.211
24.07,-0.005,0.825,0.062
24.08,-0.462,1.14,-0.251
24.09,-0.097,0.872,-0.038
24.1,-0.044,1.275,0.087
24.11,-0.215,0.636,0.178
24.12,-0.283,1.079,-0.037
24.13,-0.32,0.964,-0.181
24.14,-0.231,1.042,0.136
24.15,-0.07,0.967,0.145
24.16,-0.136,0.672,0.008
24.17,-0.458,1.26,-0.151
24.18,-0.075,0.866,-0.095
24.19,-0.215,1.092,0.085
24.2,-0.069,0.747,0.198
24.21,-0.447,0.996,-0.174
24.22,-0.366,0.942,-0.098
24.23,0.044,1.101,0.073
24.24,-0.128,0.934,0.055
24.25,-0.222,0.662,0.086
24.26,-0.299,1.442,-0.264
24.27,-0.11,0.776,-0.066
24.28,-0.243,1.083,0.237
24.29,-0.121,0.763,0.106
24.3,-0.43,0.955,-0.188
24.31,-0.241,1.162,-0.022
24.32,-0.064,0.894,0.082
24.33,-0.258,0.963,0.159
24.34,-0.187,0.75,0.002
24.35,-0.377,1.293,-0.233
24.36,-0.242,0.812,0.061
24.37,-0.031,1.141,0.134
24.38,-0.099,0.837,0.002
24.39,-0.536,0.918,-0.07
24.4,-0.09,1.263,-0.086
24.41,-0.115,0.76,0.068
24.42,-0.198,1.053,0.228
24.43,-0.278,0.705,-0.147
24.44,-0.37,1.145,-0.154
24.45,0.003,1.031,0.069
24.46,-0.13,0.833,0.103
24.47,-0.323,0.889,0.067
24.48,-0.315,0.979,-0.21
24.49,-0.147,1.222,-0.017
24.5,-0.205,0.727,0.161
24.51,-0.081,1.052,0.074
24.52,-0.358,0.788,-0.187
24.53,-0.251,1.136,-0.064
24.54,-0.055,1.026,0.031
24.55,-0.199,0.721,0.127
24.56,-0.238,1.079,0.014
24.57,-0.304,0.903,-0.23
24.58,-0.236,1.173,0.047
24.59,-0.069,0.81,0.189
24.6,-0.146,0.948,0.018
24.61,-0.418,0.925,-0.142
24.62,-0.1,1.135,-0.049
24.63,-0.146,1.006,0.083
24.64,-0.141,0.69,0.205
24.65,-0.313,1.157,-0.044
24.66,-0.424,0.798,-0.167
24.67,-0.214,1.235,0.134
24.68,-0.041,0.847,0.105
24.69,-0.307,0.888,0.008
24.7,-0.332,1.083,-0.185
24.71,-0.098,0.999,-0.123
24.72,-0.167,0.958,0.14
24.73,-0.053,0.749,0.191
24.74,-0.502,1.196,-0.175
24.75,-0.281,0.773,-0.112
24.76,0.009,1.281,0.073
24.77,-0.214,0.76,0.127
24.78,-0.224,1.041,-0.015
24.79,-0.323,1.068,-0.251
24.8,-0.148,0.896,-0.009
24.81,0.007,1.053,0.196
24.82,-0.19,0.68,0.023
24.83,-0.512,1.189,-0.196
24.84,0.013,0.921,-0.055
24.85,-0.213,1.142,0.111
24.86,-0.247,0.725,0.201
24.87,-0.249,0.952,-0.178
24.88,-0.336,1.081,-0.159
24.89,-0.044,0.978,0.16
24.9,-0.181,1.018,0.128
24.91,-0.282,0.615,0.006
24.92,-0.29,1.369,-0.204
24.93,-0.078,0.871,-0.034
24.94,-0.278,1.01,0.225
24.95,-0.026,0.856,0.065
24.96,-0.52,0.912,-0.213
24.97,-0.189,1.181,-0.079
24.98,-0.072,0.902,0.094
24.99,-0.269,1.04,0.171
25.0,-0.146,0.704,-0.065
25.01,-0.432,1.251,-0.215
25.02,-0.122,0.899,0.082
25.03,-0.017,1.037,0.106
25.04,-0.205,0.833,-0.016
25.05,-0.339,0.903,-0.167
25.06,-0.111,1.239,-0.078
25.07,-0.175,0.72,0.136
25.08,-0.112,1.074,0.137
25.09,-0.284,0.767,-0.148
25.1,-0.367,1.15,-0.08
25.11,-0.002,1.027,0.047
25.12,-0.094,0.727,0.073
25.13,-0.284,1.015,0.064
25.14,-0.293,0.958,-0.215
25.15,-0.173,1.179,-0.082
25.16,-0.043,0.723,0.2
25.17,-0.174,0.991,0.084
25.18,-0.43,0.848,-0.153
25.19,-0.13,1.136,-0.122
25.2,-0.105,1.014,0.098
25.21,-0.229,0.673,0.248
25.22,-0.28,1.143,-0.06
25.23,-0.283,0.809,-0.24
25.24,-0.142,1.213,0.098
25.25,-0.044,0.781,0.097
25.26,-0.197,0.934,0.054
25.27,-0.365,1.042,-0.159
25.28,-0.187,0.979,-0.055
25.29,-0.202,1.021,0.1
25.3,-0.057,0.718,0.177
25.31,-0.458,1.126,-0.144
25.32,-0.277,0.791,-0.095
25.33,-0.073,1.284,0.063
25.34,-0.122,0.698,0.083
25.35,-0.208,0.88,0.036
25.36,-0.383,1.168,-0.25
25.37,-0.091,0.847,-0.021
25.38,-0.287,0.987,0.039
25.39,-0.349,1.081,-0.235
25.4,-0.157,0.861,-0.003
25.41,-0.134,1.123,0.16
25.42,-0.066,0.687,0.078
25.43,-0.474,1.16,-0.164
25.44,-0.134,0.908,-0.021
25.45,-0.101,1.219,0.034
25.46,-0.122,0.722,0.124
25.47,-0.247,0.909,-0.016
25.48,-0.461,1.161,-0.193
25.49,-0.12,1.042,0.158
25.5,-0.095,1.071,0.117
25.51,-0.217,0.666,0.015
25.52,-0.418,1.312,-0.158
25.53,-0.148,0.853,-0.027
25.54,-0.195,1.076,0.173
25.55,-0.023,0.789,0.098
25.56,-0.468,0.98,-0.19
25.57,-0.305,1.125,-0.008
25.58,0.005,1.001,0.088
25.59,-0.283,0.978,0.148
25.6,-0.139,0.747,0.02
25.61,-0.412,1.343,-0.264
25.62,-0.221,0.775,0.05
25.63,-0.004,1.13,0.152
25.64,-0.18,0.818,0.069
25.65,-0.42,0.969,-0.102
25.66,-0.149,1.242,-0.094
25.67,-0.088,0.75,0.086
25.68,-0.219,1.069,0.19
25.69,-0.275,0.729,-0.102
25.7,-0.335,1.214,-0.147
25.71,-0.072,0.965,0.067
25.72,-0.126,0.906,0.099
25.73,-0.166,0.869,0.031
25.74,-0.337,1.039,-0.172
25.75,-0.164,1.184,-0.057
25.76,-0.112,0.728,0.161
25.77,-0.172,1.088,0.149
25.78,-0.394,0.784,-0.162
25.79,-0.25,1.127,-0.117
25.8,-0.064,1.022,0.067
25.81,-0.144,0.71,0.134
25.82,-0.277,1.067,-0.006
25.83,-0.341,0.934,-0.224
25.84,-0.147,1.11,-0.01
25.85,-0.024,0.794,0.197
25.86,-0.221,1.057,0.066
25.87,-0.351,0.844,-0.217
25.88,-0.172,1.077,-0.047
25.89,-0.128,0.991,0.088
25.9,-0.102,0.713,0.196
25.91,-0.311,1.137,-0.116
25.92,-0.324,0.784,-0.155
25.93,-0.146,1.238,0.143
25.94,-0.067,0.774,0.126
25.95,-0.253,0.933,0.033
25.96,-0.361,1.059,-0.173
25.97,-0.203,0.974,-0.029
25.98,-0.257,1.014,0.135
25.99,-0.014,0.714,0.138
26.0,-0.495,1.153,-0.227
26.01,-0.171,0.81,-0.047
26.02,-0.115,1.287,0.119
26.03,-0.248,0.667,0.119
26.04,-0.097,0.901,0.011
26.05,-0.393,1.161,-0.208
26.06,-0.224,0.863,0.056
26.07,-0.031,1.226,0.113
26.08,-0.208,0.624,0.082
26.09,-0.487,1.19,-0.138
26.1,-0.034,0.997,-0.077
26.11,-0.22,1.081,0.099
26.12,-0.138,0.793,0.205
26.13,-0.216,0.851,-0.13
26.14,-0.376,1.119,-0.213
26.15,0.025,0.923,0.108
26.16,-0.2,1.19,0.089
26.17,-0.175,0.591,0.034
26.18,-0.388,1.262,-0.186
26.19,-0.135,1.024,-0.053
26.2,-0.24,0.909,0.12
26.21,-0.099,0.938,0.184
26.22,-0.362,0.793,-0.152
26.23,-0.301,1.185,-0.141
26.24,0.031,0.939,0.072
26.25,-0.238,1.012,0.112
26.26,-0.184,0.694,0.061
26.27,-0.332,1.237,-0.192
26.28,-0.105,0.979,-0.055
26.29,-0.079,0.885,0.159
26.3,-0.177,0.996,0.096
26.31,-0.398,0.898,-0.164
26.32,-0.119,1.276,-0.108
26.33,-0.129,0.771,0.114
26.34,-0.219,1.057,0.161
26.35,-0.253,0.735,-0.131
26.36,-0.388,1.149,-0.17
26.37,-0.043,1.0,0.078
26.38,-0.116,0.906,0.159
26.39,-0.198,0.941,0.023
26.4,-0.346,0.918,-0.158
26.41,-0.187,1.259,-0.07
26.42,-0.098,0.701,0.136
26.43,-0.119,1.082,0.149
26.44,-0.381,0.783,-0.188
26.45,-0.177,1.231,-0.06
26.46,-0.046,0.956,0.103
26.47,-0.215,0.803,0.167
26.48,-0.16,0.962,0.006
26.49,-0.384,1.006,-0.234
26.5,-0.121,1.113,0.026
26.51,-0.077,0.841,0.198
26.52,-0.275,1.016,0.031
26.53,-0.395,0.795,-0.179
26.54,-0.089,1.268,-0.082
26.55,-0.168,0.822,0.084
26.56,-0.179,0.813,0.229
26.57,-0.32,1.087,-0.143
26.58,-0.269,0.809,-0.184
26.59,-0.061,1.316,0.111
26.6,-0.109,0.709,0.114
26.61,-0.29,0.988,0.038
26.62,-0.343,0.965,-0.172
26.63,-0.2,1.116,-0.029
26.64,-0.224,0.869,0.172
26.65,-0.012,0.76,0.111
26.66,-0.469,1.135,-0.201
26.67,-0.173,0.822,-0.009
26.68,-0.14,1.308,0.053
26.69,-0.178,0.61,0.104
26.7,-0.146,1.053,0.031
26.71,-0.364,1.056,-0.234
26.72,-0.213,0.946,0.057
26.73,-0.05,1.151,0.127
26.74,-0.22,0.666,0.064
26.75,-0.43,1.208,-0.154
26.76,-0.113,0.906,-0.139
26.77,-0.19,1.075,0.107
26.78,-0.08,0.787,0.216
26.79,-0.383,0.997,-0.123
26.8,-0.271,0.994,-0.182
26.81,0.05,0.975,0.138
26.82,-0.227,1.107,0.162
26.83,-0.222,0.685,0.053
26.84,-0.287,1.356,-0.267
26.85,-0.176,0.846,-0.066
26.86,-0.207,1.072,0.263
26.87,-0.091,0.843,0.112
26.88,-0.532,0.891,-0.138
26.89,-0.135,1.204,-0.069
26.9,-0.123,0.903,0.087
26.91,-0.224,0.948,0.126
26.92,-0.069,0.743,-0.007
26.93,-0.489,1.276,-0.224
26.94,-0.117,0.847,-0.024
26.95,-0.02,1.028,0.089
26.96,-0.204,0.865,0.086
26.97,-0.376,0.889,-0.092
26.98,-0.24,1.313,-0.073
26.99,-0.134,0.689,0.136
27.0,-0.215,1.009,0.183
27.01,-0.211,0.798,-0.118
27.02,-0.325,1.148,-0.23
27.03,-0.079,1.021,0.125
27.04,-0.143,0.899,0.11
27.05,-0.155,0.923,0.038
27.06,-0.405,0.858,-0.156
27.07,-0.103,1.315,-0.078
27.08,-0.14,0.698,0.105
27.09,-0.193,1.017,0.17
27.1,-0.256,0.848,-0.161
27.11,-0.339,1.051,-0.139
27.12,-0.006,0.999,0.074
27.13,-0.233,0.802,0.166
27.14,-0.324,0.985,0.078
27.15,-0.29,0.969,-0.266
27.16,-0.093,1.145,-0.047
27.17,-0.13,0.781,0.205
27.18,-0.229,0.998,0.068
27.19,-0.385,0.815,-0.166
27.2,-0.167,1.224,-0.1
27.21,-0.144,0.896,0.093
27.22,-0.198,0.741,0.212
27.23,-0.28,1.131,-0.077
27.24,-0.307,0.752,-0.245
27.25,-0.177,1.175,0.123
27.26,-0.023,0.814,0.109
27.27,-0.227,0.954,-0.022
27.28,-0.356,0.976,-0.168
27.29,-0.085,1.096,-0.116
27.3,-0.194,0.94,0.12
27.31,-0.09,0.743,0.199
27.32,-0.406,1.156,-0.158
27.33,-0.391,0.756,-0.108
27.34,0.038,1.31,0.024
27.35,-0.115,0.739,0.123
27.36,-0.256,0.897,0.018
27.37,-0.274,1.151,-0.229
27.38,-0.169,0.885,-0.03
27.39,-0.302,1.107,0.256
27.4,-0.03,0.644,0.065
27.41,-0.536,1.156,-0.22
27.42,-0.143,0.928,-0.008
27.43,-0.115,1.251,0.042
27.44,-0.189,0.645,0.107
27.45,-0.158,0.945,0.002
27.46,-0.357,1.211,-0.257
27.47,-0.16,0.8,0.064
27.48,-0.055,1.243,0.154
27.49,-0.217,0.588,0.068
27.5,-0.488,1.201,-0.143
27.51,-0.017,1.058,-0.073
27.52,-0.199,1.013,0.028
27.53,-0.134,0.829,0.221
27.54,-0.206,0.862,-0.139
27.55,-0.412,1.139,-0.172
27.56,-0.066,0.893,0.188
27.57,-0.196,1.164,0.097
27.58,-0.211,0.583,0.028
27.59,-0.342,1.296,-0.138
27.6,-0.161,1.009,-0.076
27.61,-0.252,0.857,0.169
27.62,0.011,1.005,0.126
27.63,-0.421,0.787,-0.199
27.64,-0.309,1.185,-0.061
27.65,0.01,0.946,0.09
27.66,-0.2,0.968,0.096
27.67,-0.16,0.752,0.077
27.68,-0.369,1.229,-0.22
27.69,-0.201,0.988,-0.033
27.7,-0.105,0.884,0.188
27.71,-0.174,0.979,0.07
27.72,-0.381,0.735,-0.183
27.73,-0.084,1.354,-0.099
27.74,-0.133,0.853,0.081
27.75,-0.177,0.885,0.14
27.76,-0.162,0.911,-0.028
27.77,-0.319,1.021,-0.222
27.78,-0.168,1.132,0.061
27.79,-0.065,0.798,0.096
27.8,-0.206,0.989,-0.005
27.81,-0.344,0.862,-0.15
27.82,-0.167,1.249,-0.104
27.83,-0.16,0.757,0.098
27.84,-0.164,0.897,0.213
27.85,-0.304,1.021,-0.143
27.86,-0.325,0.856,-0.179
27.87,-0.025,1.244,0.137
27.88,-0.113,0.728,0.143
27.89,-0.339,1.039,0.043
27.9,-0.285,0.926,-0.167
27.91,-0.192,1.135,-0.067
27.92,-0.217,0.828,0.168
27.93,0.031,0.862,0.128
27.94,-0.432,0.938,-0.222
27.95,-0.139,0.997,-0.041
27.96,-0.129,1.14,0.06
27.97,-0.17,0.61,0.125
27.98,-0.157,1.129,-0.074
27.99,-0.368,0.851,-0.205
28.0,-0.214,1.121,0.06
28.01,0.018,0.851,0.12
28.02,-0.144,0.858,0.011
28.03,-0.449,1.12,-0.176
28.04,0.025,0.936,-0.137
28.05,-0.204,1.106,0.06
28.06,-0.066,0.676,0.205
28.07,-0.371,1.174,-0.118
28.08,-0.328,0.751,-0.185
28.09,-0.09,1.237,0.134
28.1,-0.129,0.959,0.118
28.11,-0.234,0.729,0.062
28.12,-0.419,1.219,-0.142
28.13,-0.062,0.889,-0.057
28.14,-0.287,1.149,0.12
28.15,-0.01,0.699,0.152
28.16,-0.42,1.072,-0.187
28.17,-0.261,0.895,-0.113
28.18,0.009,1.181,0.081
28.19,-0.222,0.931,0.129
28.2,-0.306,0.713,0.062
28.21,-0.308,1.297,-0.276
28.22,-0.059,0.784,-0.064
28.23,-0.14,1.174,0.153
28.24,-0.078,0.737,0.092
28.25,-0.538,1.044,-0.21
28.26,-0.06,1.02,-0.082
28.27,-0.08,0.964,0.118
28.28,-0.303,0.984,0.176
28.29,-0.15,0.741,-0.086
28.3,-0.373,1.258,-0.2
28.31,-0.186,0.842,0.115
28.32,-0.084,1.108,0.164
28.33,-0.124,0.77,-0.037
28.34,-0.488,1.086,-0.127
28.35,-0.091,1.12,-0.104
28.36,-0.167,0.803,0.074
28.37,-0.139,1.069,0.181
28.38,-0.316,0.724,-0.146
28.39,-0.336,1.18,-0.148
28.4,-0.0,1.013,0.066
28.41,-0.105,0.899,0.079
28.42,-0.185,0.859,0.026
28.43,-0.389,1.125,-0.174
28.44,-0.11,1.128,-0.039
28.45,-0.114,0.75,0.136
28.46,-0.165,1.083,0.151
28.47,-0.375,0.795,-0.196
28.48,-0.331,1.173,-0.068
28.49,-0.08,0.967,0.092
28.5,-0.136,0.783,0.117
28.51,-0.332,1.009,0.015
28.52,-0.265,0.936,-0.221
28.53,-0.174,1.144,0.005
28.54,-0.021,0.796,0.164
28.55,-0.148,1.027,0.069
28.56,-0.344,0.847,-0.184
28.57,-0.134,1.15,-0.065
28.58,-0.163,0.956,0.105
28.59,-0.23,0.735,0.217
28.6,-0.315,1.111,-0.098
28.61,-0.265,0.804,-0.172
28.62,-0.16,1.298,0.118
28.63,-0.065,0.729,0.132
28.64,-0.165,0.957,0.011
28.65,-0.378,1.021,-0.175
28.66,-0.153,1.018,-0.05
28.67,-0.12,1.005,0.094
28.68,-0.21,0.721,0.161
28.69,-0.354,1.171,-0.172
28.7,-0.199,0.805,-0.149
28.71,-0.123,1.286,0.136
28.72,-0.101,0.707,0.165
28.73,-0.264,0.904,-0.019
28.74,-0.399,1.139,-0.192
28.75,-0.079,1.03,-0.016
28.76,-0.2,0.996,0.202
28.77,-0.084,0.716,0.075
28.78,-0.422,1.191,-0.193
28.79,-0.116,0.891,-0.022
28.8,-0.132,1.195,0.097
28.81,-0.177,0.681,0.183
28.82,-0.271,1.018,-0.078
28.83,-0.333,0.951,-0.185
28.84,-0.16,1.056,0.162
28.85,-0.17,1.053,0.109
28.86,-0.15,0.592,0.001
28.87,-0.38,1.332,-0.164
28.88,-0.098,0.906,-0.081
28.89,-0.143,1.073,0.079
28.9,-0.066,0.771,0.196
28.91,-0.376,0.978,-0.184
28.92,-0.3,1.021,-0.122
28.93,0.021,0.969,0.087
28.94,-0.229,1.056,0.09
28.95,-0.206,0.639,0.02
28.96,-0.384,1.416,-0.216
28.97,-0.133,0.825,-0.015
28.98,-0.26,1.04,0.198
28.99,-0.043,0.821,0.084
29.0,-0.421,0.901,-0.187
29.01,-0.22,1.161,-0.094
29.02,-0.047,0.911,0.037
29.03,-0.153,1.016,0.094
29.04,-0.21,0.723,0.023
29.05,-0.467,1.295,-0.207
29.06,-0.153,0.876,0.045
29.07,-0.025,1.019,0.116
29.08,-0.205,0.823,0.027
29.09,-0.393,0.9,-0.153
29.1,-0.051,1.301,-0.098
29.11,-0.099,0.729,0.118
29.12,-0.205,1.074,0.194
29.13,-0.288,0.768,-0.13
29.14,-0.315,1.091,-0.171
29.15,-0.061,1.071,0.105
29.16,-0.224,0.833,0.162
29.17,-0.234,0.946,0.026
29.18,-0.316,0.953,-0.16
29.19,-0.202,1.205,-0.042
29.2,-0.14,0.708,0.157
29.21,-0.081,1.049,0.077
29.22,-0.345,0.832,-0.18
29.23,-0.27,1.101,-0.038
29.24,-0.048,1.09,0.054
29.25,-0.16,0.619,0.154
29.26,-0.25,1.143,0.022
29.27,-0.369,0.873,-0.245
29.28,-0.179,1.122,0.035
29.29,-0.07,0.92,0.19
29.3,-0.177,0.923,0.044
29.31,-0.402,0.991,-0.189
29.32,-0.107,1.044,-0.036
29.33,-0.262,1.067,0.113
29.34,-0.208,0.673,0.249
29.35,-0.333,1.13,-0.145
29.36,-0.316,0.748,-0.199
29.37,-0.117,1.247,0.112
29.38,-0.137,0.844,0.078
29.39,-0.112,0.793,0.016
29.4,-0.391,1.241,-0.159
29.41,-0.142,0.907,-0.061
29.42,-0.138,1.09,0.078
29.43,-0.074,0.701,0.197
29.44,-0.494,1.13,-0.165
29.45,-0.228,0.824,-0.149
29.46,0.009,1.224,0.02
29.47,-0.108,0.833,0.1
29.48,-0.245,0.792,0.057
29.49,-0.383,1.246,-0.249
29.5,-0.073,0.765,-0.011
29.51,-0.145,1.257,0.213
29.52,-0.115,0.633,0.063
29.53,-0.458,1.101,-0.165
29.54,-0.093,1.059,-0.014
29.55,-0.141,0.991,0.082
29.56,-0.11,0.756,0.223
29.57,-0.31,0.958,-0.138
29.58,-0.328,1.038,-0.214
29.59,-0.005,0.974,0.13
29.6,-0.165,1.103,0.088
29.61,-0.162,0.589,0.017
29.62,-0.365,1.399,-0.229
29.63,-0.115,0.848,-0.061
29.64,-0.294,0.984,0.204
29.65,-0.023,0.869,0.125
29.66,-0.403,0.841,-0.186
29.67,-0.263,1.203,-0.08
29.68,-0.024,0.91,0.062
29.69,-0.178,1.018,0.092
29.7,-0.208,0.708,0.08
29.71,-0.414,1.288,-0.239
29.72,-0.112,0.887,-0.052
29.73,-0.086,1.02,0.154
29.74,-0.144,0.91,0.073
29.75,-0.396,0.801,-0.149
29.76,-0.17,1.355,-0.048
29.77,-0.058,0.776,0.058
29.78,-0.252,0.961,0.153
29.79,-0.186,0.839,-0.044
29.8,-0.367,1.065,-0.235
29.81,-0.147,1.004,0.098
29.82,-0.037,0.906,0.117
29.83,-0.157,0.963,-0.004
29.84,-0.435,0.846,-0.111
29.85,-0.108,1.309,-0.094
29.86,-0.135,0.751,0.095
29.87,-0.117,1.004,0.19
29.88,-0.335,0.9,-0.17
29.89,-0.315,0.908,-0.137
29.9,0.001,1.281,0.117
29.91,-0.213,0.676,0.126
29.92,-0.264,1.056,0.062
29.93,-0.244,0.974,-0.188
29.94,-0.242,1.147,-0.068
29.95,-0.167,0.797,0.247
29.96,-0.118,0.891,0.078
29.97,-0.44,0.926,-0.192
29.98,-0.156,0.998,-0.056
29.99,-0.06,1.213,0.055
30.0,-0.158,0.562,0.164
30.01,-0.311,1.167,0.069
30.02,-0.322,0.939,-0.261
30.03,-0.239,1.036,0.004
30.04,-0.034,0.944,0.167
30.05,-0.179,0.832,0.048
30.06,-0.428,1.087,-0.141
30.07,-0.104,0.948,-0.031
30.08,-0.143,1.162,0.075
30.09,-0.153,0.643,0.211
30.1,-0.317,1.137,-0.097
30.11,-0.292,0.83,-0.231
30.12,-0.115,1.15,0.147
30.13,-0.036,0.972,0.108
30.14,-0.248,0.698,0.016
30.15,-0.381,1.241,-0.165
30.16,-0.097,0.892,-0.02
30.17,-0.277,1.132,0.133
30.18,-0.04,0.727,0.16
30.19,-0.365,1.03,-0.174
30.2,-0.319,0.96,-0.112
30.21,-0.031,1.04,0.097
30.22,-0.151,0.954,0.095
30.23,-0.223,0.711,0.053
30.24,-0.397,1.34,-0.191
30.25,-0.091,0.781,-0.036
30.26,-0.21,1.182,0.184
30.27,-0.041,0.726,0.065
30.28,-0.441,0.989,-0.205
30.29,-0.151,1.166,-0.034
30.3,-0.124,0.91,0.095
30.31,-0.2,0.951,0.156
30.32,-0.166,0.757,-0.065
30.33,-0.393,1.264,-0.211
30.34,-0.216,0.87,0.123
30.35,-0.075,1.094,0.071
30.36,-0.122,0.765,0.026
30.37,-0.403,1.018,-0.139
30.38,-0.163,1.173,-0.073
30.39,-0.238,0.913,0.158
30.4,-0.084,1.018,0.181
30.41,-0.33,0.711,-0.198
30.42,-0.276,1.19,-0.103
30.43,0.018,0.975,0.055
30.44,-0.168,0.962,0.085
30.45,-0.207,0.733,0.049
30.46,-0.349,1.164,-0.231
30.47,-0.143,1.037,-0.054
30.48,-0.207,0.827,0.232
30.49,-0.18,1.009,0.075
30.5,-0.406,0.723,-0.221
30.51,-0.201,1.297,-0.051
30.52,-0.037,0.892,0.077
30.53,-0.205,0.82,0.124
30.54,-0.215,0.944,-0.018
30.55,-0.326,1.057,-0.258
30.56,-0.115,1.074,-0.03
30.57,-0.004,0.838,0.198
30.58,-0.306,1.016,0.054
30.59,-0.439,0.772,-0.161
30.6,-0.113,1.294,-0.072
30.61,-0.111,0.89,0.108
30.62,-0.187,0.808,0.248
30.63,-0.302,1.052,-0.131
30.64,-0.307,0.843,-0.174
30.65,-0.042,1.29,0.104
30.66,-0.113,0.723,0.15
30.67,-0.306,1.044,0.053
30.68,-0.352,0.941,-0.186
30.69,-0.16,1.111,-0.03
30.7,-0.2,0.899,0.148
30.71,-0.008,0.776,0.09
30.72,-0.394,1.096,-0.213
30.73,-0.208,0.856,-0.029
30.74,-0.065,1.308,0.003
30.75,-0.167,0.593,0.161
30.76,-0.22,1.09,0.028
30.77,-0.391,1.04,-0.231
30.78,-0.098,0.902,-0.007
30.79,-0.102,1.117,0.153
30.8,-0.206,0.69,0.132
30.81,-0.447,1.143,-0.211
30.82,-0.021,0.922,-0.039
30.83,-0.232,1.235,0.096
30.84,-0.148,0.621,0.137
30.85,-0.204,1.027,-0.079
30.86,-0.329,1.033,-0.251
30.87,-0.105,0.879,0.125
30.88,-0.138,1.144,0.14
30.89,-0.159,0.632,0.04
30.9,-0.451,1.287,-0.174
30.91,-0.105,0.832,-0.08
30.92,-0.203,1.078,0.137
30.93,-0.042,0.815,0.171
30.94,-0.415,0.922,-0.177
30.95,-0.248,1.109,-0.093
30.96,-0.037,0.989,0.111
30.97,-0.2,1.0,0.163
30.98,-0.175,0.65,-0.005
30.99,-0.352,1.326,-0.267
31.0,-0.082,0.844,-0.042
31.01,-0.151,1.053,0.172
31.02,-0.098,0.865,0.08
31.03,-0.393,0.864,-0.173
31.04,-0.164,1.283,-0.067
31.05,-0.072,0.87,0.116
31.06,-0.204,1.014,0.16
31.07,-0.234,0.729,-0.016
31.08,-0.433,1.195,-0.239
31.09,-0.122,0.952,0.025
31.1,-0.104,0.986,0.121
31.11,-0.179,0.897,0.029
31.12,-0.362,0.848,-0.133
31.13,-0.095,1.316,-0.057
31.14,-0.143,0.709,0.117
31.15,-0.151,1.047,0.179
31.16,-0.296,0.835,-0.129
31.17,-0.375,1.016,-0.175
31.18,-0.061,1.111,0.149
31.19,-0.102,0.83,0.121
31.2,-0.274,0.894,0.039
31.21,-0.286,1.028,-0.202
31.22,-0.171,1.127,-0.029
31.23,-0.106,0.75,0.241
31.24,-0.112,1.063,0.038
31.25,-0.381,0.742,-0.256
31.26,-0.198,1.253,0.015
31.27,-0.088,0.976,0.061
31.28,-0.181,0.712,0.148
31.29,-0.182,1.096,-0.033
31.3,-0.354,0.947,-0.19
31.31,-0.245,1.192,0.094
31.32,0.031,0.735,0.135
31.33,-0.257,1.003,-0.024
31.34,-0.375,0.928,-0.163
31.35,-0.112,1.11,-0.09
31.36,-0.174,0.925,0.11
31.37,-0.104,0.775,0.215
31.38,-0.38,1.11,-0.142
31.39,-0.315,0.774,-0.085
31.4,0.001,1.33,0.091
31.41,-0.17,0.701,0.129
31.42,-0.318,0.94,0.028
31.43,-0.243,1.058,-0.187
31.44,-0.188,0.958,0.029
31.45,-0.222,1.038,0.177
31.46,-0.005,0.698,0.069
31.47,-0.531,1.204,-0.188
31.48,-0.163,0.878,0.007
31.49,-0.04,1.201,0.029
31.5,-0.19,0.715,0.131
31.51,-0.203,0.954,-0.059
31.52,-0.373,1.094,-0.234
31.53,-0.173,0.947,0.154
31.54,-0.068,1.155,0.103
31.55,-0.185,0.583,-0.039
31.56,-0.429,1.258,-0.113
31.57,-0.031,0.938,-0.086
31.58,-0.193,1.007,0.126
31.59,-0.096,0.832,0.173
31.6,-0.371,0.871,-0.198
31.61,-0.316,1.144,-0.137
31.62,-0.017,0.947,0.157
31.63,-0.218,1.032,0.093
31.64,-0.203,0.658,-0.019
31.65,-0.271,1.328,-0.189
31.66,-0.203,0.911,0.005
31.67,-0.169,0.928,0.23
31.68,-0.062,0.924,0.045
31.69,-0.442,0.852,-0.252
31.7,-0.152,1.248,-0.01
31.71,-0.103,0.84,0.115
31.72,-0.273,0.981,0.135
31.73,-0.157,0.781,-0.097
31.74,-0.352,1.186,-0.239
31.75,-0.078,0.968,0.062
31.76,-0.01,0.893,0.125
31.77,-0.289,0.943,0.009
31.78,-0.419,0.88,-0.122
31.79,-0.089,1.306,-0.082
31.8,-0.165,0.693,0.118
31.81,-0.138,1.014,0.192
31.82,-0.355,0.872,-0.204
31.83,-0.252,1.03,-0.116
31.84,0.019,1.138,0.085
31.85,-0.147,0.662,0.085
31.86,-0.316,1.072,-0.01
31.87,-0.247,0.931,-0.242
31.88,-0.191,1.178,-0.019
31.89,0.016,0.753,0.166
31.9,-0.226,0.914,0.043
31.91,-0.509,0.986,-0.165
31.92,0.012,1.025,-0.061
31.93,-0.159,1.101,0.068
31.94,-0.207,0.631,0.236
31.95,-0.302,1.171,-0.162
31.96,-0.25,0.862,-0.175
31.97,-0.079,1.244,0.104
31.98,-0.071,0.744,0.095
31.99,-0.339,0.881,0.019
32.0,-0.367,1.161,-0.167
32.01,-0.099,0.855,-0.003
32.02,-0.196,0.986,0.206
32.03,-0.091,0.741,0.052
32.04,-0.464,1.204,-0.217
32.05,-0.198,0.878,-0.011
32.06,-0.087,1.156,0.079
32.07,-0.18,0.715,0.149
32.08,-0.299,1.01,-0.106
32.09,-0.24,1.046,-0.183
32.1,-0.119,0.979,0.129
32.11,-0.142,1.028,0.128
32.12,-0.161,0.664,-0.028
32.13,-0.487,1.354,-0.176
32.14,-0.071,0.8,-0.029
32.15,-0.177,1.116,0.144
32.16,-0.045,0.765,0.096
32.17,-0.456,0.948,-0.181
32.18,-0.271,1.204,-0.041
32.19,-0.043,0.884,0.1
32.2,-0.224,1.015,0.119
32.21,-0.209,0.683,-0.041
32.22,-0.37,1.336,-0.207
32.23,-0.092,0.885,0.075
32.24,-0.114,0.982,0.14
32.25,-0.191,0.796,0.021
32.26,-0.424,1.006,-0.165
32.27,-0.082,1.198,-0.067
32.28,-0.103,0.752,0.137
32.29,-0.209,1.068,0.147
32.3,-0.276,0.737,-0.234
32.31,-0.268,1.183,-0.132
32.32,-0.056,1.033,0.12
32.33,-0.109,0.781,0.098
32.34,-0.265,1.003,-0.001
32.35,-0.367,0.949,-0.162
32.36,-0.157,1.206,0.04
32.37,-0.05,0.738,0.178
32.38,-0.202,1.01,0.004
32.39,-0.406,0.847,-0.2
32.4,-0.185,1.201,0.017
32.41,-0.148,0.945,0.119
32.42,-0.146,0.678,0.145
32.43,-0.306,1.183,-0.11
32.44,-0.342,0.885,-0.112
32.45,-0.134,1.224,0.168
32.46,-0.122,0.715,0.127
32.47,-0.306,0.96,-0.056
32.48,-0.285,1.007,-0.21
32.49,-0.136,1.037,-0.013
32.5,-0.231,0.995,0.205
32.51,-0.083,0.701,0.046
32.52,-0.503,1.199,-0.254
32.53,-0.051,0.873,-0.044
32.54,-0.091,1.216,0.129
32.55,-0.207,0.7,0.163
32.56,-0.316,0.948,-0.126
32.57,-0.254,1.124,-0.189
32.58,-0.066,0.972,0.118
32.59,-0.117,1.019,0.084
32.6,-0.264,0.659,0.013
32.61,-0.422,1.348,-0.182
32.62,-0.023,0.835,-0.025
32.63,-0.149,1.132,0.159
32.64,-0.042,0.829,0.074
32.65,-0.473,0.972,-0.191
32.66,-0.161,1.204,-0.072
32.67,-0.109,0.831,0.117
32.68,-0.177,1.019,0.174
32.69,-0.335,0.666,-0.123
32.7,-0.306,1.237,-0.17
32.71,-0.0,0.965,0.123
32.72,-0.215,0.921,0.158
32.73,-0.237,0.849,0.016
32.74,-0.278,1.026,-0.2
32.75,-0.073,1.212,-0.04
32.76,-0.198,0.702,0.228
32.77,-0.099,1.039,0.064
32.78,-0.396,0.821,-0.264
32.79,-0.165,1.168,-0.031
32.8,-0.054,0.915,0.108
32.81,-0.212,0.781,0.148
32.82,-0.292,1.06,-0.084
32.83,-0.279,0.899,-0.164
32.84,-0.036,1.159,0.099
32.85,-0.133,0.649,0.145
32.86,-0.292,1.064,-0.037
32.87,-0.243,0.911,-0.222
32.88,-0.134,1.175,0.049
32.89,-0.165,0.797,0.212
32.9,-0.18,0.858,0.086
32.91,-0.454,1.059,-0.257
32.92,-0.119,0.962,-0.012
32.93,-0.151,1.139,0.124
32.94,-0.21,0.63,0.17
32.95,-0.312,1.129,-0.139
32.96,-0.252,0.924,-0.164
32.97,-0.059,1.207,0.145
32.98,-0.157,0.807,0.127
32.99,-0.26,0.83,-0.044
33.0,-0.309,1.229,-0.234
33.01,-0.081,0.869,0.011
33.02,-0.19,1.152,0.242
33.03,-0.144,0.639,0.012
33.04,-0.507,1.127,-0.218
33.05,-0.005,1.022,-0.076
33.06,-0.148,0.995,0.121
33.07,-0.204,0.894,0.218
33.08,-0.286,0.808,-0.168
33.09,-0.297,1.23,-0.225
33.1,0.068,0.886,0.148
33.11,-0.195,1.034,0.126
33.12,-0.284,0.698,-0.009
33.13,-0.228,1.254,-0.228
33.14,-0.116,1.017,-0.021
33.15,-0.156,0.82,0.227
33.16,-0.142,0.937,0.065
33.17,-0.518,0.824,-0.204
33.18,-0.001,1.298,-0.086
33.19,-0.113,0.775,0.128
33.2,-0.323,0.969,0.222
33.21,-0.25,0.82,-0.147
33.22,-0.307,1.11,-0.159
33.23,-0.051,1.112,0.113
33.24,-0.042,0.683,0.082
33.25,-0.392,1.063,-0.015
33.26,-0.298,0.903,-0.204
33.27,-0.13,1.245,0.004
33.28,-0.145,0.763,0.161
33.29,-0.08,0.917,0.023
33.3,-0.522,1.013,-0.22
33.31,-0.07,0.992,-0.07
33.32,-0.097,1.119,0.09
33.33,-0.191,0.664,0.179
33.34,-0.374,1.123,-0.133
33.35,-0.275,0.933,-0.127
33.36,-0.083,1.241,0.082
33.37,-0.068,0.706,0.105
33.38,-0.276,0.882,0.014
33.39,-0.384,1.198,-0.221
33.4,-0.037,0.85,0.025
33.41,-0.237,1.12,0.189
33.42,-0.055,0.604,0.008
33.43,-0.483,1.235,-0.203
33.44,-0.1,0.989,0.002
33.45,-0.137,1.029,0.138
33.46,-0.221,0.831,0.184
33.47,-0.27,0.885,-0.145
33.48,-0.297,1.219,-0.177
33.49,-0.07,0.877,0.19
33.5,-0.187,1.073,0.131
33.51,-0.298,0.659,-0.049
33.52,-0.307,1.261,-0.273
33.53,-0.052,0.956,-0.058
33.54,-0.085,0.919,0.186
33.55,-0.165,0.901,0.078
33.56,-0.608,0.845,-0.135
33.57,-0.088,1.264,-0.102
33.58,-0.096,0.75,0.087
33.59,-0.205,1.034,0.143
33.6,-0.233,0.811,-0.191
33.61,-0.347,1.166,-0.118
33.62,0.059,1.01,0.088
33.63,-0.123,0.723,0.177
33.64,-0.277,1.048,0.0
33.65,-0.286,0.985,-0.226
33.66,-0.186,1.162,0.093
33.67,-0.047,0.761,0.161
33.68,-0.27,1.007,-0.02
33.69,-0.35,0.876,-0.156
33.7,-0.127,1.262,-0.07
33.71,-0.141,0.775,0.151
33.72,-0.251,0.939,0.006
33.73,-0.469,0.982,-0.119
33.74,-0.104,1.258,-0.054
33.75,-0.126,0.656,0.108
33.76,-0.092,1.086,0.069
33.77,-0.305,0.793,-0.272
33.78,-0.269,1.179,-0.0
33.79,-0.116,0.949,0.197
33.8,-0.258,0.816,0.136
33.81,-0.329,1.014,-0.08
33.82,-0.237,0.924,-0.181
33.83,-0.192,1.273,0.13
33.84,-0.031,0.633,0.128
33.85,-0.258,1.048,-0.011
33.86,-0.412,0.943,-0.167
33.87,-0.098,1.064,0.006
33.88,-0.227,0.929,0.154
33.89,-0.093,0.781,0.087
33.9,-0.394,1.144,-0.25
33.91,-0.187,0.879,-0.011
33.92,-0.173,1.21,0.134
33.93,-0.165,0.639,0.142
33.94,-0.356,1.058,-0.039
33.95,-0.245,0.993,-0.236
33.96,-0.094,1.064,0.139
33.97,-0.121,0.941,0.119
33.98,-0.245,0.691,0.002
33.99,-0.393,1.347,-0.225
34.0,-0.035,0.783,-0.069
34.01,-0.2,1.172,0.217
34.02,-0.149,0.666,0.134
34.03,-0.472,1.004,-0.174
34.04,-0.119,1.144,-0.071
34.05,-0.059,0.907,0.105
34.06,-0.253,0.961,0.206
34.07,-0.222,0.704,-0.086
34.08,-0.331,1.304,-0.222
34.09,0.011,0.931,0.096
34.1,-0.145,0.955,0.122
34.11,-0.292,0.82,0.09
34.12,-0.41,1.09,-0.192
34.13,-0.1,1.05,-0.065
34.14,-0.136,0.809,0.222
34.15,-0.154,1.062,0.077
34.16,-0.338,0.715,-0.212
34.17,-0.269,1.312,-0.045
34.18,-0.042,0.866,0.111
34.19,-0.236,0.859,0.209
34.2,-0.305,0.973,-0.074
34.21,-0.241,0.941,-0.214
34.22,-0.17,1.188,0.104
34.23,-0.082,0.663,0.149
34.24,-0.254,1.036,-0.014
34.25,-0.315,0.963,-0.219
34.26,-0.114,1.109,-0.045
34.27,-0.152,0.877,0.214
34.28,-0.205,0.823,0.141
34.29,-0.356,0.881,-0.195
34.3,-0.15,1.074,-0.051
34.31,-0.102,1.061,0.086
34.32,-0.153,0.645,0.128
34.33,-0.295,1.135,-0.098
34.34,-0.284,0.861,-0.186
34.35,-0.158,1.223,0.148
34.36,-0.112,0.792,0.13
34.37,-0.239,0.866,-0.011
34.38,-0.375,1.135,-0.181
34.39,-0.108,0.961,-0.057
34.4,-0.153,1.105,0.158
34.41,-0.074,0.685,0.053
34.42,-0.439,1.143,-0.193
34.43,-0.245,0.931,-0.053
34.44,-0.035,1.141,0.06
34.45,-0.187,0.75,0.126
34.46,-0.231,0.865,-0.011
34.47,-0.383,1.188,-0.244
34.48,-0.083,0.853,0.079
34.49,-0.066,1.169,0.117
34.5,-0.166,0.603,0.017
34.51,-0.524,1.236,-0.125
34.52,-0.095,0.956,-0.104
34.53,-0.164,0.952,0.073
34.54,-0.035,0.935,0.143
34.55,-0.361,0.818,-0.23
34.56,-0.32,1.237,-0.066
34.57,0.002,0.903,0.098
34.58,-0.218,1.003,0.049
34.59,-0.175,0.76,0.01
34.6,-0.351,1.229,-0.238
34.61,-0.139,0.995,0.055
34.62,-0.067,0.913,0.167
34.63,-0.192,0.933,0.019
34.64,-0.398,0.827,-0.174
34.65,-0.154,1.326,-0.091
34.66,-0.111,0.723,0.13
34.67,-0.172,1.04,0.175
34.68,-0.35,0.782,-0.149
34.69,-0.308,1.063,-0.151
34.7,0.006,1.145,0.054
34.71,-0.193,0.694,0.137
34.72,-0.236,1.034,0.023
34.73,-0.319,0.924,-0.227
34.74,-0.167,1.19,0.034
34.75,-0.116,0.765,0.217
34.76,-0.196,0.955,0.066
34.77,-0.42,0.921,-0.22
34.78,-0.133,1.01,-0.05
34.79,-0.143,1.125,0.133
34.8,-0.185,0.668,0.128
34.81,-0.298,1.114,-0.114
34.82,-0.263,0.872,-0.183
34.83,-0.094,1.236,0.115
34.84,-0.164,0.761,0.129
34.85,-0.185,0.86,-0.018
34.86,-0.369,1.189,-0.215
34.87,-0.087,0.864,-0.022
34.88,-0.15,1.149,0.186
34.89,-0.1,0.657,0.097
34.9,-0.478,1.163,-0.188
34.91,-0.151,0.946,-0.026
34.92,-0.13,1.173,0.105
34.93,-0.104,0.774,0.076
34.94,-0.213,0.854,-0.045
34.95,-0.408,1.234,-0.162
34.96,-0.136,0.854,0.094
34.97,-0.109,1.114,0.131
34.98,-0.153,0.644,-0.01
34.99,-0.466,1.197,-0.175
35.0,-0.099,0.944,-0.074
35.01,-0.055,1.009,0.133
35.02,-0.186,0.977,0.177
35.03,-0.393,0.784,-0.14
35.04,-0.252,1.239,-0.142
35.05,0.032,0.917,0.099
35.06,-0.227,0.983,0.103
35.07,-0.219,0.758,-0.006
35.08,-0.386,1.192,-0.247
35.09,-0.104,0.992,0.006
35.1,-0.065,0.915,0.17
35.11,-0.187,0.781,0.016
35.12,-0.41,1.026,-0.143
35.13,-0.18,1.218,-0.052
35.14,-0.096,0.707,0.132
35.15,-0.203,1.086,0.183
35.16,-0.372,0.722,-0.179
35.17,-0.249,1.18,-0.145
35.18,0.025,1.034,0.108
35.19,-0.228,0.76,0.121
35.2,-0.24,0.937,0.003
35.21,-0.257,1.007,-0.244
35.22,-0.138,1.174,0.015
35.23,-0.039,0.753,0.183
35.24,-0.142,1.017,0.013
35.25,-0.463,0.849,-0.163
35.26,-0.091,1.185,-0.073
35.27,-0.084,0.918,0.095
35.28,-0.259,0.766,0.243
35.29,-0.341,1.102,-0.142
35.3,-0.243,0.867,-0.165
35.31,-0.1,1.294,0.129
35.32,-0.05,0.659,0.092
35.33,-0.341,0.988,0.018
35.34,-0.293,1.006,-0.226
35.35,-0.079,1.029,-0.011
35.36,-0.145,0.994,0.177
35.37,-0.111,0.713,0.097
35.38,-0.527,1.26,-0.17
35.39,-0.156,0.914,-0.035
35.4,-0.132,1.14,0.076
35.41,-0.126,0.731,0.131
35.42,-0.33,0.982,-0.089
35.43,-0.289,1.035,-0.172
35.44,-0.103,0.986,0.085
35.45,-0.097,1.085,0.131
35.46,-0.19,0.627,-0.04
35.47,-0.448,1.292,-0.176
35.48,-0.057,0.901,0.004
35.49,-0.224,1.074,0.139
35.5,-0.123,0.79,0.122
35.51,-0.413,0.983,-0.18
35.52,-0.217,1.173,-0.085
35.53,0.063,0.885,0.082
35.54,-0.2,1.001,0.115
35.55,-0.275,0.702,-0.003
35.56,-0.344,1.327,-0.233
35.57,-0.134,0.873,0.043
35.58,-0.055,0.986,0.178
35.59,-0.231,0.843,-0.016
35.6,-0.494,0.959,-0.137
35.61,-0.037,1.209,-0.074
35.62,-0.112,0.735,0.128
35.63,-0.201,1.065,0.216
35.64,-0.298,0.798,-0.198
35.65,-0.354,1.15,-0.121
35.66,0.079,1.009,0.101
35.67,-0.158,0.781,0.099
35.68,-0.395,0.995,0.061
35.69,-0.233,0.988,-0.235
35.7,-0.185,1.179,-0.006
35.71,-0.021,0.671,0.199
35.72,-0.226,1.021,0.028
35.73,-0.502,0.885,-0.139
35.74,-0.027,1.143,-0.063
35.75,-0.184,0.916,0.065
35.76,-0.116,0.77,0.178
35.77,-0.351,1.149,-0.159
35.78,-0.375,0.828,-0.079
35.79,0.042,1.283,0.107
35.8,-0.155,0.647,0.129
35.81,-0.341,1.013,0.05
35.82,-0.303,1.044,-0.206
35.83,-0.204,0.989,0.003
35.84,-0.08,1.075,0.154
35.85,-0.062,0.673,0.014
35.86,-0.52,1.195,-0.131
35.87,-0.034,0.941,-0.047
35.88,-0.136,1.132,0.077
35.89,-0.178,0.723,0.201
35.9,-0.332,0.992,-0.127
35.91,-0.307,1.049,-0.183
35.92,-0.053,1.169,0.115
35.93,-0.116,0.861,0.097
35.94,-0.253,0.761,0.003
35.95,-0.302,1.348,-0.198
35.96,-0.114,0.808,-0.027
35.97,-0.224,1.116,0.217
35.98,0.015,0.699,0.033
35.99,-0.515,1.125,-0.238
36.0,-0.162,1.034,0.007
36.01,-0.11,0.961,0.09
36.02,-0.269,0.949,0.143
36.03,-0.185,0.763,-0.085
36.04,-0.36,1.292,-0.184
36.05,-0.101,0.844,0.163
36.06,-0.013,1.075,0.086
36.07,-0.227,0.706,-0.063
36.08,-0.365,1.115,-0.115
36.09,-0.151,1.124,-0.021
36.1,-0.194,0.772,0.156
36.11,-0.127,1.061,0.112
36.12,-0.35,0.739,-0.227
36.13,-0.271,1.251,-0.058
36.14,0.016,0.869,0.145
36.15,-0.186,0.926,0.128
36.16,-0.265,0.887,-0.045
36.17,-0.279,1.04,-0.188
36.18,-0.156,1.155,0.023
36.19,-0.099,0.759,0.208
36.2,-0.226,1.03,0.018
36.21,-0.419,0.832,-0.188
36.22,-0.099,1.255,-0.071
36.23,-0.099,0.783,0.133
36.24,-0.187,0.915,0.219
36.25,-0.385,1.028,-0.163
36.26,-0.251,0.896,-0.151
36.27,0.034,1.252,0.071
36.28,-0.133,0.623,0.158
36.29,-0.326,1.086,0.041
36.3,-0.376,0.938,-0.228
36.31,-0.141,1.097,-0.012
36.32,-0.129,0.938,0.175
36.33,-0.131,0.776,0.062
36.34,-0.424,1.153,-0.187
36.35,-0.058,0.905,-0.095
36.36,-0.188,1.198,0.106
36.37,-0.188,0.689,0.205
36.38,-0.333,1.074,-0.129
36.39,-0.32,0.917,-0.2
36.4,-0.049,1.129,0.104
36.41,-0.147,0.905,0.11
36.42,-0.27,0.691,0.056
36.43,-0.367,1.322,-0.222
36.44,-0.03,0.807,-0.059
36.45,-0.242,1.201,0.182
36.46,-0.048,0.712,0.104
36.47,-0.5,1.028,-0.205
36.48,-0.188,1.053,-0.049
36.49,-0.036,1.044,0.071
36.5,-0.157,0.917,0.111
36.51,-0.217,0.729,-0.016
36.52,-0.366,1.277,-0.23
36.53,-0.103,0.862,0.06
36.54,-0.173,1.135,0.182
36.55,-0.162,0.674,0.029
36.56,-0.405,1.043,-0.187
36.57,-0.094,1.208,-0.068
36.58,-0.132,0.751,0.145
36.59,-0.164,1.038,0.169
36.6,-0.27,0.739,-0.141
36.61,-0.316,1.254,-0.147
36.62,-0.051,0.928,0.136
36.63,-0.181,0.92,0.085
36.64,-0.24,0.837,0.026
36.65,-0.323,1.119,-0.197
36.66,-0.092,1.103,-0.056
36.67,-0.167,0.748,0.182
36.68,-0.145,1.064,0.075
36.69,-0.362,0.768,-0.201
36.7,-0.14,1.264,-0.019
36.71,-0.103,0.898,0.11
36.72,-0.249,0.801,0.179
36.73,-0.227,0.999,-0.114
36.74,-0.38,1.035,-0.202
36.75,0.01,1.195,0.109
36.76,-0.162,0.711,0.137
36.77,-0.289,1.025,0.032
36.78,-0.275,0.912,-0.215
36.79,-0.16,1.223,-0.029
36.8,-0.141,0.71,0.181
36.81,-0.124,0.947,0.075
36.82,-0.388,0.956,-0.223
36.83,-0.235,0.981,-0.064
36.84,-0.106,1.134,0.093
36.85,-0.165,0.662,0.18
36.86,-0.385,1.134,-0.032
36.87,-0.29,0.802,-0.252
36.88,-0.097,1.179,0.059
36.89,-0.099,0.87,0.121
36.9,-0.122,0.835,0.038
36.91,-0.494,1.162,-0.183
36.92,-0.075,0.888,-0.09
36.93,-0.169,1.132,0.145
36.94,-0.166,0.655,0.139
36.95,-0.338,1.123,-0.17
36.96,-0.245,0.906,-0.134
36.97,-0.048,1.161,0.123
36.98,-0.125,0.808,0.124
36.99,-0.234,0.761,-0.019
37.0,-0.358,1.307,-0.185
37.01,-0.064,0.849,-0.008
37.02,-0.163,1.106,0.156
37.03,-0.082,0.664,0.089
37.04,-0.489,1.165,-0.177
37.05,-0.189,0.978,-0.036
37.06,-0.048,1.06,0.07
37.07,-0.183,0.918,0.14
37.08,-0.284,0.732,-0.03
37.09,-0.353,1.296,-0.17
37.1,-0.004,0.818,0.02
37.11,-0.126,1.074,0.165
37.12,-0.227,0.716,0.023
37.13,-0.486,1.096,-0.136
37.14,-0.063,1.074,-0.004
37.15,-0.115,0.822,0.138
37.16,-0.188,1.059,0.126
37.17,-0.367,0.748,-0.194
37.18,-0.285,1.24,-0.092
37.19,0.038,0.879,0.12
37.2,-0.185,0.919,0.127
37.21,-0.256,0.836,-0.001
37.22,-0.333,1.122,-0.17
37.23,-0.139,1.067,0.032
37.24,-0.12,0.785,0.189
37.25,-0.252,1.039,0.005
37.26,-0.368,0.827,-0.206
37.27,-0.198,1.281,-0.012
37.28,-0.11,0.771,0.166
37.29,-0.172,0.91,0.153
37.3,-0.361,0.969,-0.163
37.31,-0.246,0.985,-0.08
37.32,-0.097,1.223,0.141
37.33,-0.106,0.635,0.119
37.34,-0.348,1.094,-0.005
37.35,-0.271,0.933,-0.228
37.36,-0.088,1.13,0.023
37.37,-0.216,0.821,0.217
37.38,-0.06,0.828,0.05
37.39,-0.438,1.133,-0.257
37.4,-0.083,0.883,0.0
37.41,-0.189,1.2,0.113
37.42,-0.229,0.598,0.195
37.43,-0.305,1.132,-0.11
37.44,-0.284,0.973,-0.168
37.45,-0.182,1.119,0.175
37.46,-0.121,0.885,0.132
37.47,-0.297,0.76,-0.025
37.48,-0.333,1.245,-0.236
37.49,0.006,0.85,0.001
37.5,-0.267,1.205,0.195
37.51,-0.108,0.672,0.071
37.52,-0.415,1.11,-0.242
37.53,-0.164,1.082,-0.025
37.54,-0.058,0.997,0.107
37.55,-0.219,0.929,0.131
37.56,-0.285,0.897,-0.154
37.57,-0.205,1.173,-0.18
37.58,-0.093,0.946,0.175
37.59,-0.166,1.013,0.127
37.6,-0.237,0.689,-0.027
37.61,-0.431,1.312,-0.189
37.62,-0.038,0.875,0.0
37.63,-0.184,0.993,0.174
37.64,-0.138,0.88,0.084
37.65,-0.357,0.868,-0.18
37.66,-0.275,1.271,-0.017
37.67,-0.072,0.734,0.086
37.68,-0.176,1.017,0.136
37.69,-0.229,0.808,-0.109
37.7,-0.353,1.203,-0.162
37.71,-0.078,0.96,0.086
37.72,-0.134,0.835,0.126
37.73,-0.223,0.95,-0.029
37.74,-0.36,0.922,-0.156
37.75,-0.171,1.251,-0.019
37.76,-0.107,0.679,0.152
37.77,-0.173,1.029,0.06
37.78,-0.346,0.826,-0.245
37.79,-0.141,1.12,-0.065
37.8,-0.021,1.094,0.124
37.81,-0.224,0.685,0.143
37.82,-0.254,1.07,-0.046
37.83,-0.291,0.916,-0.243
37.84,-0.135,1.242,0.104
37.85,-0.09,0.71,0.172
37.86,-0.366,0.953,0.021
37.87,-0.395,1.062,-0.179
37.88,-0.086,1.011,-0.024
37.89,-0.155,1.02,0.156
37.9,-0.133,0.713,0.126
37.91,-0.48,1.125,-0.179
37.92,-0.151,0.894,-0.075
37.93,-0.103,1.171,0.121
37.94,-0.131,0.746,0.18
37.95,-0.291,0.97,-0.094
37.96,-0.323,1.103,-0.241
37.97,-0.062,0.939,0.086
37.98,-0.114,1.063,0.121
37.99,-0.147,0.665,0.012
38.0,-0.433,1.313,-0.164
38.01,-0.172,0.855,0.001
38.02,-0.209,1.054,0.201
38.03,-0.132,0.871,0.103
38.04,-0.435,0.846,-0.236
38.05,-0.152,1.234,-0.067
38.06,-0.075,0.866,0.134
38.07,-0.307,0.986,0.141
38.08,-0.151,0.702,-0.091
38.09,-0.352,1.302,-0.263
38.1,-0.133,0.921,0.108
38.11,-0.071,0.914,0.156
38.12,-0.259,0.895,-0.002
38.13,-0.384,0.999,-0.165
38.14,-0.092,1.241,-0.073
38.15,-0.18,0.727,0.171
38.16,-0.18,1.025,0.125
38.17,-0.295,0.746,-0.203
38.18,-0.291,1.206,-0.075
38.19,-0.024,0.983,0.092
38.2,-0.227,0.722,0.133
38.21,-0.232,1.044,-0.015
38.22,-0.296,0.956,-0.223
38.23,-0.194,1.223,0.057
38.24,-0.055,0.738,0.133
38.25,-0.23,0.971,0.001
38.26,-0.371,0.898,-0.165
38.27,-0.111,1.149,-0.063
38.28,-0.109,0.898,0.089
38.29,-0.186,0.796,0.177
38.3,-0.394,1.096,-0.145
38.31,-0.255,0.839,-0.131
38.32,-0.096,1.314,0.12
38.33,-0.111,0.648,0.103
38.34,-0.305,0.991,-0.038
38.35,-0.331,1.072,-0.214
38.36,-0.086,0.933,-0.016
38.37,-0.077,0.896,0.149
38.38,-0.137,0.788,0.01
38.39,-0.519,1.152,-0.174
38.4,-0.064,0.859,-0.101
38.41,-0.133,1.162,0.063
38.42,-0.026,0.693,0.13
38.43,-0.357,1.091,-0.177
38.44,-0.343,0.998,-0.036
38.45,-0.022,1.106,0.076
38.46,-0.156,0.882,0.089
38.47,-0.202,0.767,0.011
38.48,-0.389,1.302,-0.247
38.49,-0.138,0.858,0.071
38.5,-0.131,1.176,0.136
38.51,-0.13,0.661,0.024
38.52,-0.405,1.104,-0.181
38.53,-0.14,1.103,-0.11
38.54,-0.052,0.837,0.112
38.55,-0.221,1.025,0.162
38.56,-0.279,0.7,-0.176
38.57,-0.241,1.24,-0.162
38.58,-0.094,0.925,0.157
38.59,-0.189,1.007,0.107
38.6,-0.192,0.762,-0.032
38.61,-0.385,1.104,-0.158
38.62,-0.165,1.115,0.031
38.63,-0.127,0.791,0.169
38.64,-0.149,1.026,0.03
38.65,-0.344,0.749,-0.207
38.66,-0.156,1.289,-0.092
38.67,-0.094,0.817,0.1
38.68,-0.147,0.898,0.154
38.69,-0.279,0.954,-0.091
38.7,-0.274,0.964,-0.177
38.71,-0.141,1.181,0.148
38.72,-0.109,0.719,0.148
38.73,-0.35,1.048,0.005
38.74,-0.31,0.89,-0.192
38.75,-0.17,1.199,-0.017
38.76,-0.214,0.807,0.185
38.77,-0.06,0.812,0.093
38.78,-0.418,1.08,-0.241
38.79,-0.221,0.904,-0.032
38.8,-0.081,1.244,0.058
38.81,-0.241,0.569,0.128
38.82,-0.138,1.095,-0.048
38.83,-0.311,0.988,-0.243
38.84,-0.237,1.043,0.103
38.85,-0.109,0.915,0.178
38.86,-0.236,0.739,-0.018
38.87,-0.473,1.205,-0.137
38.88,0.0,0.805,-0.118
38.89,-0.144,1.178,0.124
38.9,-0.122,0.725,0.111
38.91,-0.331,1.031,-0.138
38.92,-0.34,1.029,-0.097
38.93,-0.012,1.093,0.091
38.94,-0.141,0.911,0.096
38.95,-0.252,0.736,0.015
38.96,-0.372,1.344,-0.192
38.97,-0.122,0.806,-0.012
38.98,-0.178,1.092,0.175
38.99,-0.084,0.765,0.058
39.0,-0.524,1.014,-0.222
39.01,-0.133,1.085,-0.022
39.02,-0.059,0.926,0.123
39.03,-0.317,0.994,0.228
39.04,-0.219,0.712,-0.093
39.05,-0.32,1.304,-0.213
39.06,-0.035,0.897,0.086
39.07,-0.103,0.992,0.122
39.08,-0.265,0.774,0.012
39.09,-0.396,1.101,-0.183
39.1,-0.035,1.127,-0.092
39.11,-0.12,0.791,0.2
39.12,-0.214,1.032,0.094
39.13,-0.35,0.748,-0.2
39.14,-0.238,1.279,-0.026
39.15,-0.07,0.867,0.124
39.16,-0.285,0.896,0.193
39.17,-0.273,0.933,-0.092
39.18,-0.326,0.925,-0.159
39.19,0.01,1.129,0.105
39.2,-0.127,0.722,0.12
39.21,-0.229,0.979,0.026
39.22,-0.347,0.939,-0.181
39.23,-0.126,1.219,-0.03
39.24,-0.139,0.744,0.148
39.25,-0.17,0.982,0.077
39.26,-0.339,0.904,-0.215
39.27,-0.215,1.077,-0.011
39.28,-0.108,1.119,0.125
39.29,-0.147,0.591,0.129
39.3,-0.27,1.153,-0.004
39.31,-0.356,0.87,-0.202
39.32,-0.222,1.164,0.077
39.33,-0.013,0.874,0.114
39.34,-0.196,0.859,-0.063
39.35,-0.402,1.049,-0.116
39.36,-0.164,1.023,-0.04
39.37,-0.203,1.049,0.076
39.38,-0.03,0.678,0.164
39.39,-0.41,1.167,-0.145
39.4,-0.301,0.864,-0.111
39.41,0.003,1.214,0.107
39.42,-0.163,0.779,0.111
39.43,-0.329,0.829,0.027
39.44,-0.347,1.24,-0.253
39.45,-0.092,0.855,0.003
39.46,-0.179,1.188,0.163
39.47,-0.086,0.639,0.078
39.48,-0.453,1.197,-0.198
39.49,-0.073,1.001,-0.073
39.5,-0.115,1.002,0.094
39.51,-0.198,0.887,0.207
39.52,-0.338,0.789,-0.101
39.53,-0.348,1.144,-0.221
39.54,-0.029,0.931,0.154
39.55,-0.22,1.143,0.146
39.56,-0.26,0.652,0.012
39.57,-0.362,1.256,-0.207
39.58,-0.08,1.036,-0.057
39.59,-0.2,0.904,0.177
39.6,-0.081,0.994,0.074
39.61,-0.375,0.736,-0.203
39.62,-0.282,1.29,-0.044
39.63,0.025,0.888,0.095
39.64,-0.268,0.951,0.148
39.65,-0.192,0.792,-0.032
39.66,-0.318,1.131,-0.251
39.67,-0.128,1.056,0.012
39.68,-0.012,0.826,0.132
39.69,-0.191,1.011,0.045
39.7,-0.403,0.831,-0.165
39.71,-0.16,1.329,-0.137
39.72,-0.006,0.705,0.007
39.73,-0.114,0.986,0.195
39.74,-0.363,0.914,-0.13
39.75,-0.312,0.889,-0.136
39.76,-0.042,1.278,0.116
39.77,-0.129,0.689,0.143
39.78,-0.259,1.031,0.01
39.79,-0.288,0.978,-0.222
39.8,-0.187,1.136,0.007
39.81,-0.208,0.77,0.21
39.82,-0.087,0.871,0.056
39.83,-0.439,1.042,-0.24
39.84,-0.096,0.928,-0.036
39.85,-0.13,1.252,0.079
39.86,-0.202,0.567,0.141
39.87,-0.216,1.125,-0.063
39.88,-0.258,0.914,-0.244
39.89,-0.116,1.147,0.095
39.9,-0.093,0.9,0.147
39.91,-0.192,0.781,0.025
39.92,-0.446,1.2,-0.179
39.93,-0.075,0.831,-0.055
39.94,-0.178,1.178,0.126
39.95,-0.104,0.718,0.122
39.96,-0.384,1.067,-0.212
39.97,-0.254,0.982,-0.074
39.98,-0.057,1.108,0.088
39.99,-0.124,0.839,0.106
40.0,-0.276,0.927,-0.048
40.01,-0.339,1.144,-0.178
40.02,-0.12,0.916,0.034
40.03,-0.16,1.174,0.132
40.04,-0.102,0.606,0.026
40.05,-0.444,1.244,-0.145
40.06,-0.146,1.001,-0.034
40.07,-0.166,0.994,0.102
40.08,-0.103,0.839,0.208
40.09,-0.347,0.858,-0.151
40.1,-0.26,1.114,-0.225
40.11,-0.038,0.951,0.121
40.12,-0.156,1.094,0.089
40.13,-0.262,0.646,0.03
40.14,-0.394,1.258,-0.213
40.15,-0.108,0.923,-0.033
40.16,-0.179,0.935,0.207
40.17,-0.145,0.955,0.105
40.18,-0.407,0.771,-0.227
40.19,-0.17,1.266,-0.04
40.2,-0.041,0.854,0.126
40.21,-0.269,0.988,0.165
40.22,-0.155,0.802,-0.072
40.23,-0.364,1.178,-0.236
40.24,-0.118,1.003,0.111
40.25,-0.095,0.825,0.153
40.26,-0.275,1.015,0.025
40.27,-0.308,0.868,-0.182
40.28,-0.211,1.219,-0.036
40.29,-0.156,0.76,0.214
40.3,-0.133,1.03,0.129
40.31,-0.335,0.831,-0.165
40.32,-0.295,1.049,-0.072
40.33,-0.079,1.207,0.061
40.34,-0.126,0.658,0.112
40.35,-0.34,1.083,0.019
40.36,-0.361,0.875,-0.218
40.37,-0.114,1.218,0.027
40.38,-0.146,0.802,0.181
40.39,-0.143,0.898,0.074
40.4,-0.33,0.993,-0.199
40.41,-0.238,0.998,-0.023
40.42,-0.108,1.131,0.1
40.43,-0.131,0.641,0.162
40.44,-0.347,1.144,-0.038
40.45,-0.321,0.851,-0.175
40.46,-0.13,1.196,0.061
40.47,-0.111,0.849,0.125
40.48,-0.158,0.808,0.04
40.49,-0.428,1.192,-0.193
40.5,-0.135,0.885,-0.029
40.51,-0.168,1.138,0.126
40.52,-0.081,0.671,0.14
40.53,-0.424,1.11,-0.138
40.54,-0.266,0.878,-0.117
40.55,-0.006,1.181,0.033
40.56,-0.151,0.865,0.125
40.57,-0.198,0.783,0.043
40.58,-0.399,1.282,-0.232
40.59,-0.102,0.766,-0.015
40.6,-0.087,1.191,0.184
40.61,-0.168,0.668,0.089
40.62,-0.456,1.117,-0.18
40.63,-0.098,1.076,-0.066
40.64,-0.17,0.945,0.111
40.65,-0.131,0.897,0.205
40.66,-0.272,0.81,-0.115
40.67,-0.355,1.195,-0.209
40.68,-0.018,0.873,0.127
40.69,-0.151,1.161,0.092
40.7,-0.18,0.668,0.046
40.71,-0.348,1.175,-0.161
40.72,-0.198,1.096,-0.058
40.73,-0.158,0.773,0.135
40.74,-0.085,1.033,0.107
40.75,-0.345,0.752,-0.193
40.76,-0.267,1.278,-0.078
40.77,-0.014,0.929,0.062
40.78,-0.208,0.869,0.119
40.79,-0.181,0.841,-0.022
40.8,-0.344,1.111,-0.217
40.81,-0.138,1.098,-0.004
40.82,-0.104,0.992,0.185
40.83,-0.237,0.916,0.051
40.84,-0.423,0.841,-0.115
40.85,-0.159,1.354,-0.086
40.86,-0.122,0.716,0.074
40.87,-0.171,1.009,0.171
40.88,-0.259,0.862,-0.132
40.89,-0.374,1.022,-0.181
40.9,-0.076,1.113,0.129
40.91,-0.088,0.789,0.148
40.92,-0.327,0.987,-0.014
40.93,-0.331,0.892,-0.148
40.94,-0.16,1.265,-0.05
40.95,-0.141,0.705,0.138
40.96,-0.079,0.98,0.099
40.97,-0.352,0.982,-0.164
40.98,-0.358,0.991,-0.085
40.99,0.055,1.136,0.034
41.0,-0.15,0.678,0.119
41.01,-0.29,1.103,0.004
41.02,-0.307,0.857,-0.2
41.03,-0.203,1.167,0.022
41.04,-0.054,0.868,0.155
41.05,-0.151,0.871,0.039
41.06,-0.44,1.036,-0.177
41.07,-0.05,0.93,-0.108
41.08,-0.129,1.16,0.108
41.09,-0.216,0.621,0.209
41.1,-0.32,1.136,-0.089
41.11,-0.285,0.884,-0.18
41.12,-0.129,1.186,0.099
41.13,-0.092,0.845,0.12
41.14,-0.207,0.807,0.007
41.15,-0.44,1.247,-0.167
41.16,-0.101,0.882,-0.051
41.17,-0.191,1.107,0.139
41.18,0.005,0.704,0.138
41.19,-0.466,1.126,-0.173
41.2,-0.24,0.927,-0.047
41.21,-0.071,1.164,0.1
41.22,-0.193,0.822,0.125
41.23,-0.216,0.784,0.047
41.24,-0.388,1.308,-0.257
41.25,-0.033,0.76,-0.033
41.26,-0.168,1.181,0.209
41.27,-0.115,0.675,0.05
41.28,-0.461,1.092,-0.208
41.29,-0.105,1.064,-0.074
41.3,-0.054,0.96,0.065
41.31,-0.195,0.966,0.177
41.32,-0.26,0.713,-0.069
41.33,-0.316,1.264,-0.169
41.34,-0.089,0.872,0.13
41.35,-0.135,1.066,0.144
41.36,-0.18,0.72,0.002
41.37,-0.403,1.13,-0.147
41.38,-0.129,1.08,-0.083
41.39,-0.162,0.795,0.18
41.4,-0.136,1.053,0.133
41.41,-0.385,0.701,-0.175
41.42,-0.259,1.24,-0.101
41.43,-0.001,0.963,0.063
41.44,-0.163,0.865,0.11
41.45,-0.246,0.859,0.032
41.46,-0.362,1.064,-0.21
41.47,-0.107,1.093,-0.048
41.48,-0.094,0.778,0.218
41.49,-0.169,1.021,0.08
41.5,-0.408,0.818,-0.175
41.51,-0.174,1.279,-0.056
41.52,-0.069,0.818,0.104
41.53,-0.245,0.865,0.25
41.54,-0.281,1.026,-0.106
41.55,-0.347,0.869,-0.187
41.56,-0.107,1.237,0.092
41.57,-0.056,0.732,0.13
41.58,-0.264,0.989,-0.001
41.59,-0.308,0.94,-0.161
41.6,-0.212,1.178,-0.015
41.61,-0.283,0.861,0.183
41.62,-0.081,0.826,0.118
41.63,-0.369,0.929,-0.194
41.64,-0.212,0.993,-0.022
41.65,-0.069,1.214,0.094
41.66,-0.172,0.593,0.106
41.67,-0.301,1.094,-0.001
41.68,-0.246,0.937,-0.268
41.69,-0.187,1.136,0.009
41.7,-0.073,0.864,0.185
41.71,-0.126,0.861,0.051
41.72,-0.469,1.096,-0.196
41.73,-0.018,0.903,-0.076
41.74,-0.191,1.168,0.133
41.75,-0.201,0.648,0.208
41.76,-0.259,1.156,-0.14
41.77,-0.313,0.88,-0.18
41.78,-0.119,1.139,0.119
41.79,-0.085,0.93,0.112
41.8,-0.278,0.756,-0.001
41.81,-0.358,1.239,-0.195
41.82,-0.117,0.886,0.001
41.83,-0.246,1.184,0.128
41.84,-0.003,0.679,0.111
41.85,-0.475,1.099,-0.156
41.86,-0.265,1.005,-0.048
41.87,0.005,1.081,0.086
41.88,-0.209,0.895,0.165
41.89,-0.275,0.719,0.029
41.9,-0.392,1.325,-0.206
41.91,-0.083,0.839,0.003
41.92,-0.139,1.135,0.11
41.93,-0.083,0.691,0.003
41.94,-0.443,1.122,-0.215
41.95,-0.113,1.065,-0.071
41.96,-0.087,0.86,0.098
41.97,-0.209,1.044,0.189
41.98,-0.218,0.749,-0.13
41.99,-0.313,1.207,-0.202
42.0,-0.053,0.921,0.119
42.01,-0.071,1.023,0.098
42.02,-0.247,0.771,0.012
42.03,-0.408,1.108,-0.2
42.04,-0.095,1.119,-0.069
42.05,-0.141,0.775,0.145
42.06,-0.083,1.076,-0.103
42.07,-0.172,0.933,0.117
42.08,-0.103,0.771,0.183
42.09,-0.377,1.153,-0.163
42.1,-0.308,0.814,-0.11
42.11,-0.012,1.311,0.113
42.12,-0.107,0.656,0.11
42.13,-0.368,0.96,0.035
42.14,-0.278,1.075,-0.197
42.15,-0.094,0.977,-0.047
42.16,-0.168,1.046,0.193
42.17,-0.051,0.664,0.046
42.18,-0.497,1.252,-0.179
42.19,-0.138,0.919,-0.001
42.2,-0.098,1.158,0.072
42.21,-0.232,0.752,0.195
42.22,-0.26,0.958,-0.095
42.23,-0.313,1.133,-0.191
42.24,-0.141,0.909,0.136
42.25,-0.136,1.036,0.142
42.26,-0.158,0.649,-0.005
42.27,-0.445,1.324,-0.195
42.28,-0.075,0.852,-0.094
42.29,-0.164,1.055,0.135
42.3,-0.081,0.87,0.111
42.31,-0.352,0.854,-0.203
42.32,-0.272,1.225,-0.044
42.33,-0.087,0.905,0.11
42.34,-0.144,0.986,0.117
42.35,-0.243,0.727,-0.002
42.36,-0.304,1.252,-0.27
42.37,-0.049,0.94,-0.054
42.38,-0.089,1.083,0.105
42.39,-0.102,0.722,-0.014
42.4,-0.462,1.106,-0.159
42.41,-0.054,1.139,-0.1
42.42,-0.15,0.739,0.082
42.43,-0.137,1.035,0.146
42.44,-0.271,0.766,-0.152
42.45,-0.378,1.198,-0.135
42.46,-0.032,0.973,0.107
42.47,-0.131,0.935,0.119
42.48,-0.276,0.848,0.024
42.49,-0.38,1.037,-0.151
42.5,-0.054,1.146,-0.056
42.51,-0.218,0.692,0.195
42.52,-0.094,1.072,0.091
42.53,-0.366,0.78,-0.212
42.54,-0.294,1.178,-0.048
42.55,0.07,0.953,0.05
42.56,-0.187,0.802,0.1
42.57,-0.309,1.014,0.026
42.58,-0.284,0.958,-0.185
42.59,-0.177,1.179,0.032
42.6,-0.029,0.734,0.192
42.61,-0.195,1.027,0.004
42.62,-0.456,0.846,-0.184
42.63,-0.004,1.153,-0.081
42.64,-0.177,0.937,0.105
42.65,-0.164,0.735,0.253
42.66,-0.383,1.119,-0.152
42.67,-0.319,0.811,-0.108
42.68,-0.037,1.341,0.108
42.69,-0.087,0.646,0.126
42.7,-0.308,0.99,0.026
42.71,-0.288,1.021,-0.227
42.72,-0.113,1.034,0.013
42.73,-0.192,1.01,0.134
42.74,-0.034,0.684,0.029
42.75,-0.439,1.166,-0.181
42.76,-0.159,0.903,-0.024
42.77,-0.11,1.214,0.103
42.78,-0.161,0.665,0.158
42.79,-0.26,1.026,-0.078
42.8,-0.261,1.104,-0.194
42.81,-0.165,0.943,0.111
42.82,-0.04,1.091,0.112
42.83,-0.241,0.635,0.005
42.84,-0.493,1.275,-0.117
42.85,-0.058,0.927,-0.05
42.86,-0.284,1.083,0.159
42.87,-0.061,0.795,0.199
42.88,-0.412,0.939,-0.165
42.89,-0.34,1.11,-0.119
42.9,0.089,0.937,0.038
42.91,-0.165,1.021,0.079
42.92,-0.219,0.657,-0.007
42.93,-0.345,1.337,-0.209
42.94,-0.118,0.921,0.025
42.95,-0.111,1.051,0.166
42.96,-0.099,0.849,0.079
42.97,-0.478,0.934,-0.167
42.98,-0.101,1.246,-0.109
42.99,-0.013,0.748,0.048
43.0,-0.228,1.07,0.218
43.01,-0.272,0.739,-0.101
43.02,-0.361,1.087,-0.187
43.03,0.009,1.051,0.108
43.04,-0.209,0.899,0.132
43.05,-0.257,0.895,0.04
43.06,-0.341,0.979,-0.16
43.07,-0.105,1.257,-0.053
43.08,-0.19,0.685,0.158
43.09,-0.126,1.025,0.086
43.1,-0.3,0.818,-0.225
43.11,-0.269,1.122,-0.062
43.12,0.002,1.081,0.051
43.13,-0.129,0.722,0.143
43.14,-0.352,1.048,0.028
43.15,-0.306,0.887,-0.211
43.16,-0.149,1.208,0.002
43.17,-0.026,0.782,0.148
43.18,-0.144,0.951,0.041
43.19,-0.429,0.956,-0.159
43.2,-0.202,1.205,-0.075
43.21,-0.081,0.836,0.083
43.22,-0.13,0.829,0.155
43.23,-0.329,1.057,-0.154
43.24,-0.287,0.854,-0.084
43.25,-0.061,1.291,0.05
43.26,-0.124,0.619,0.122
43.27,-0.241,1.038,0.006
43.28,-0.307,0.986,-0.209
43.29,-0.167,1.034,0.001
43.3,-0.171,0.949,0.187
43.31,-0.126,0.741,0.109
43.32,-0.474,1.156,-0.19
43.33,-0.14,0.886,-0.036
43.34,-0.143,1.233,0.093
43.35,-0.116,0.638,0.137
43.36,-0.282,1.057,-0.05
43.37,-0.305,0.989,-0.206
43.38,-0.153,1.019,0.095
43.39,-0.14,1.082,0.146
43.4,-0.203,0.642,0.022
43.41,-0.444,1.255,-0.175
43.42,-0.116,0.871,-0.073
43.43,-0.252,1.108,0.144
43.44,-0.096,0.725,0.192
43.45,-0.359,0.961,-0.161
43.46,-0.236,1.04,-0.179
43.47,-0.003,1.047,0.111
43.48,-0.216,1.03,0.108
43.49,-0.23,0.624,0.029
43.5,-0.358,1.357,-0.196
43.51,-0.153,0.854,-0.004
43.52,-0.183,1.056,0.186
43.53,-0.11,0.836,0.086
43.54,-0.378,0.891,-0.19
43.55,-0.187,1.229,-0.051
43.56,-0.079,0.861,0.087
43.57,-0.157,1.006,0.132
43.58,-0.236,0.72,-0.009
43.59,-0.388,1.251,-0.22
43.6,-0.117,0.898,0.025
43.61,-0.097,1.03,0.131
43.62,-0.165,0.876,0.002
43.63,-0.454,0.894,-0.153
43.64,-0.137,1.258,-0.09
43.65,-0.072,0.712,0.097
43.66,-0.192,1.062,0.192
43.67,-0.294,0.746,-0.114
43.68,-0.365,1.134,-0.15
43.69,0.066,1.043,0.058
43.7,-0.157,0.821,0.144
43.71,-0.308,0.95,0.015
43.72,-0.321,0.937,-0.182
43.73,-0.158,1.194,-0.019
43.74,-0.148,0.758,0.198
43.75,-0.178,0.99,0.087
43.76,-0.337,0.844,-0.199
43.77,-0.214,1.132,-0.048
43.78,-0.076,1.07,0.089
43.79,-0.181,0.672,0.149
43.8,-0.195,1.078,-0.047
43.81,-0.402,0.842,-0.188
43.82,-0.208,1.197,0.127
43.83,-0.022,0.811,0.138
43.84,-0.238,0.913,0.004
43.85,-0.418,1.005,-0.154
43.86,-0.134,1.045,-0.119
43.87,-0.146,1.024,0.047
43.88,-0.085,0.707,0.186
43.89,-0.368,1.133,-0.152
43.9,-0.286,0.768,-0.166
43.91,-0.088,1.296,0.108
43.92,-0.1,0.741,0.118
43.93,-0.2,0.859,0.033
43.94,-0.376,1.196,-0.201
43.95,-0.188,0.878,-0.012
43.96,-0.217,1.085,0.177
43.97,-0.114,0.687,0.165
43.98,-0.421,1.172,-0.197
43.99,-0.203,0.87,-0.063
44.0,-0.082,1.2,0.081
44.01,-0.127,0.631,0.136
44.02,-0.293,1.014,-0.008
44.03,-0.354,1.015,-0.229
44.04,-0.156,0.994,0.099
44.05,-0.139,1.118,0.102
44.06,-0.175,0.604,-0.014
44.07,-0.46,1.25,-0.146
44.08,-0.097,0.903,-0.029
44.09,-0.211,1.099,0.117
44.1,-0.132,0.763,0.222
44.11,-0.313,0.93,-0.179
44.12,-0.275,1.053,-0.143
44.13,-0.008,1.029,0.076
44.14,-0.152,1.05,0.08
44.15,-0.223,0.631,0.029
44.16,-0.351,1.344,-0.185
44.17,-0.156,0.854,-0.002
44.18,-0.18,1.033,0.185
44.19,-0.066,0.865,0.087
44.2,-0.475,0.881,-0.171
44.21,-0.177,1.28,-0.045
44.22,-0.083,0.874,0.067
44.23,-0.193,0.962,0.15
44.24,-0.163,0.734,-0.019
44.25,-0.442,1.237,-0.222
44.26,-0.095,0.887,0.01
44.27,-0.063,1.026,0.152
44.28,-0.187,0.861,0.019
44.29,-0.434,0.887,-0.155
44.3,-0.07,1.284,-0.061
44.31,-0.15,0.721,0.111
44.32,-0.188,1.032,0.221
44.33,-0.288,0.797,-0.143
44.34,-0.351,1.07,-0.125
44.35,-0.072,1.083,0.118
44.36,-0.119,0.812,0.102
44.37,-0.282,0.945,0.035
44.38,-0.332,0.971,-0.186
44.39,-0.131,1.219,-0.074
44.4,-0.161,0.707,0.179
44.41,-0.072,1.026,0.093
44.42,-0.414,0.853,-0.188
44.43,-0.231,1.008,-0.068
44.44,-0.059,1.16,0.059
44.45,-0.119,0.624,0.118
44.46,-0.268,1.104,0.018
44.47,-0.328,0.921,-0.223
44.48,-0.187,1.165,0.008
44.49,-0.024,0.824,0.143
44.5,-0.187,0.912,0.067
44.51,-0.396,1.001,-0.177
44.52,-0.064,1.045,-0.113
44.53,-0.159,1.055,0.058
44.54,-0.166,0.668,0.245
44.55,-0.285,1.176,-0.124
44.56,-0.369,0.808,-0.174
44.57,-0.116,1.221,0.15
44.58,-0.146,0.861,0.14
44.59,-0.203,0.843,-0.011
44.6,-0.413,1.184,-0.139
44.61,-0.095,0.908,-0.061
44.62,-0.253,1.1,0.106
44.63,0.005,0.703,0.155
44.64,-0.433,1.168,-0.2
44.65,-0.335,0.876,-0.08
44.66,0.035,1.194,0.071
44.67,-0.195,0.817,0.124
44.68,-0.363,0.825,0.066
44.69,-0.298,1.242,-0.247
44.7,-0.185,0.791,-0.019
44.71,-0.086,1.167,0.168
44.72,-0.03,0.69,0.042
44.73,-0.523,1.148,-0.152
44.74,-0.124,0.995,-0.037
44.75,-0.078,0.998,0.104
44.76,-0.249,0.949,0.187
44.77,-0.238,0.778,-0.122
44.78,-0.359,1.184,-0.214
44.79,-0.091,0.877,0.128
44.8,-0.091,1.224,0.141
44.81,-0.207,0.647,0.034
44.82,-0.474,1.14,-0.133
44.83,-0.12,0.901,-0.045
44.84,-0.259,1.003,0.173
44.85,-0.062,0.894,0.122
44.86,-0.382,0.871,-0.234
44.87,-0.23,1.174,-0.029
44.88,-0.016,0.917,0.073
44.89,-0.187,0.978,0.1
44.9,-0.149,0.756,0.001
44.91,-0.452,1.323,-0.212
44.92,-0.198,0.883,0.041
44.93,-0.074,1.046,0.196
44.94,-0.18,0.896,0.022
44.95,-0.378,0.855,-0.178
44.96,-0.121,1.341,-0.063
44.97,-0.11,0.757,0.077
44.98,-0.206,0.974,0.181
44.99,-0.22,0.785,-0.055
45.0,-0.326,1.145,-0.188
45.01,-0.122,1.017,0.076
45.02,-0.074,0.845,0.121
45.03,-0.19,0.959,0.015
45.04,-0.404,0.884,-0.167
45.05,-0.102,1.293,-0.056
45.06,-0.145,0.714,0.111
45.07,-0.167,1.018,0.153
45.08,-0.301,0.896,-0.157
45.09,-0.25,1.038,-0.143
45.1,-0.021,1.147,0.104
45.11,-0.118,0.658,0.148
45.12,-0.32,1.106,-0.008
45.13,-0.332,0.913,-0.197
45.14,-0.142,1.182,-0.034
45.15,-0.083,0.79,0.166
45.16,-0.178,0.939,0.054
45.17,-0.369,0.994,-0.197
45.18,-0.154,0.995,-0.02
45.19,-0.177,1.174,0.122
45.2,-0.116,0.579,0.162
45.21,-0.304,1.184,-0.093
45.22,-0.27,0.854,-0.197
45.23,-0.177,1.188,0.076
45.24,-0.081,0.856,0.118
45.25,-0.254,0.799,0.014
45.26,-0.423,1.128,-0.188
45.27,-0.084,0.948,-0.072
45.28,-0.225,1.093,0.131
45.29,-0.061,0.675,0.184
45.3,-0.417,1.139,-0.171
45.31,-0.262,0.802,-0.15
45.32,0.012,1.226,0.085
45.33,-0.169,0.847,0.127
45.34,-0.277,0.786,0.053
45.35,-0.345,1.296,-0.223
45.36,-0.123,0.757,-0.016
45.37,-0.234,1.178,0.249
45.38,-0.12,0.648,0.072
45.39,-0.501,1.106,-0.177
45.4,-0.074,1.021,-0.058
45.41,-0.142,1.055,0.106
45.42,-0.144,0.872,0.135
45.43,-0.18,0.775,-0.084
45.44,-0.393,1.288,-0.164
45.45,-0.067,0.849,0.098
45.46,-0.119,1.158,0.134
45.47,-0.129,0.652,-0.004
45.48,-0.446,1.114,-0.167
45.49,-0.163,1.119,-0.072
45.5,-0.111,0.794,0.1
45.51,-0.184,1.037,0.163
45.52,-0.274,0.75,-0.173
45.53,-0.292,1.224,-0.146
45.54,-0.024,0.912,0.112
45.55,-0.079,0.977,0.111
45.56,-0.237,0.804,0.006
45.57,-0.37,1.121,-0.167
45.58,-0.13,1.099,-0.053
45.59,-0.196,0.75,0.213
45.6,-0.181,1.035,0.12
45.61,-0.362,0.76,-0.238
45.62,-0.223,1.279,-0.042
45.63,-0.022,0.896,0.093
45.64,-0.248,1.009,0.173
45.65,-0.207,0.806,-0.098
45.66,-0.313,1.119,-0.145
45.67,-0.174,1.096,0.098
45.68,-0.077,0.791,0.091
45.69,-0.233,0.98,-0.005
45.7,-0.385,0.893,-0.15
45.71,-0.172,1.28,-0.018
45.72,-0.062,0.708,0.089
45.73,-0.091,1.003,0.107
45.74,-0.371,0.916,-0.178
45.75,-0.295,1.012,-0.106
45.76,-0.038,1.15,0.084
45.77,-0.212,0.646,0.169
45.78,-0.321,1.107,0.049
45.79,-0.35,0.898,-0.209
45.8,-0.205,1.162,0.025
45.81,0.003,0.831,0.163
45.82,-0.197,0.912,0.06
45.83,-0.384,1.015,-0.202
45.84,-0.006,0.993,-0.123
45.85,-0.16,1.094,0.106
45.86,-0.186,0.678,0.208
45.87,-0.367,1.153,-0.109
45.88,-0.297,0.778,-0.154
45.89,-0.112,1.229,0.14
45.9,-0.139,0.859,0.12
45.91,-0.205,0.802,0.01
45.92,-0.352,1.225,-0.188
45.93,-0.128,0.873,-0.053
45.94,-0.164,1.12,0.131
45.95,-0.043,0.721,0.092
45.96,-0.49,1.083,-0.18
45.97,-0.267,0.933,-0.017
45.98,-0.054,1.16,0.093
45.99,-0.17,0.817,0.11
46.0,-0.288,0.816,0.021
46.01,-0.338,1.286,-0.288
46.02,-0.095,0.803,-0.007
46.03,-0.095,1.197,0.205
46.04,-0.164,0.663,0.036
46.05,-0.508,1.121,-0.149
46.06,-0.099,1.108,-0.096
46.07,-0.129,0.902,0.069
46.08,-0.14,0.951,0.171
46.09,-0.291,0.748,-0.128
46.1,-0.337,1.222,-0.159
46.11,-0.031,0.943,0.107
46.12,-0.167,1.025,0.104
46.13,-0.216,0.729,0.04
46.14,-0.383,1.163,-0.174
46.15,-0.156,1.047,-0.077
46.16,-0.107,0.79,0.151
46.17,-0.125,1.067,0.093
46.18,-0.37,0.715,-0.184
46.19,-0.214,1.272,-0.069
46.2,-0.05,0.918,0.099
46.21,-0.198,0.875,0.138
46.22,-0.228,0.86,-0.017
46.23,-0.353,1.073,-0.21
46.24,-0.093,1.128,0.022
46.25,-0.115,0.799,0.182
46.26,-0.194,1.004,0.022
46.27,-0.34,0.829,-0.213
46.28,-0.092,1.281,-0.056
46.29,-0.09,0.779,0.077
46.3,-0.221,0.875,0.175
46.31,-0.263,0.982,-0.099
46.32,-0.314,0.937,-0.163
46.33,-0.142,1.237,0.113
46.34,-0.041,0.669,0.104
46.35,-0.28,1.03,0.022
46.36,-0.377,0.928,-0.169
46.37,-0.092,1.14,-0.063
46.38,-0.181,0.843,0.114
46.39,-0.125,0.837,0.151
46.4,-0.441,1.083,-0.159
46.41,-0.248,0.854,-0.092
46.42,-0.024,1.279,0.099
46.43,-0.172,0.617,0.108
46.44,-0.275,1.029,0.004
46.45,-0.309,1.021,-0.235
46.46,-0.178,1.163,0.073
46.47,0.022,0.806,0.104
46.48,-0.277,0.891,0.033
46.49,-0.462,1.139,-0.104
46.5,-0.129,0.918,-0.053
46.51,-0.197,1.088,0.132
46.52,-0.081,0.682,0.165
46.53,-0.437,1.116,-0.189
46.54,-0.251,0.897,-0.111
46.55,-0.053,1.217,0.078
46.56,-0.163,0.773,0.101
46.57,-0.212,0.844,0.058
46.58,-0.3,1.303,-0.246
46.59,-0.131,0.779,-0.018
46.6,-0.115,1.148,0.159
46.61,-0.089,0.668,0.073
46.62,-0.461,1.158,-0.187
46.63,-0.068,0.995,-0.059
46.64,-0.188,1.013,0.108
46.65,-0.151,0.881,0.146
46.66,-0.218,0.799,-0.103
46.67,-0.401,1.202,-0.173
46.68,-0.062,0.882,0.136
46.69,-0.146,1.136,0.134
46.7,-0.23,0.662,-0.008
46.71,-0.359,1.224,-0.198
46.72,-0.178,1.034,-0.031
46.73,-0.177,0.895,0.143
46.74,-0.098,0.999,0.123
46.75,-0.41,0.722,-0.151
46.76,-0.266,1.283,-0.092
46.77,0.046,0.902,0.064
46.78,-0.209,0.927,0.135
46.79,-0.161,0.817,-0.005
46.8,-0.362,1.131,-0.239
46.81,-0.162,1.048,0.014
46.82,-0.027,0.855,0.141
46.83,-0.249,1.027,0.078
46.84,-0.344,0.783,-0.189
46.85,-0.157,1.328,-0.048
46.86,-0.156,0.776,0.136
46.87,-0.174,0.911,0.202
46.88,-0.262,0.918,-0.102
46.89,-0.358,0.929,-0.147
46.9,-0.073,1.215,0.101
46.91,-0.129,0.707,0.141
46.92,-0.297,1.062,0.012
46.93,-0.34,0.913,-0.162
46.94,-0.189,1.179,-0.048
46.95,-0.115,0.807,0.113
46.96,-0.025,0.89,0.121
46.97,-0.458,1.015,-0.174
46.98,-0.301,0.9,-0.011
46.99,-0.009,1.298,0.062
47.0,-0.121,0.588,0.079
47.01,-0.27,1.082,0.019
47.02,-0.319,0.926,-0.186
47.03,-0.194,1.064,0.003
47.04,-0.021,0.98,0.126
47.05,-0.109,0.757,-0.015
47.06,-0.442,1.151,-0.191
47.07,-0.065,0.922,-0.02
47.08,-0.203,1.189,0.065
47.09,-0.091,0.649,0.178
47.1,-0.341,1.066,-0.078
47.11,-0.343,0.955,-0.161
47.12,-0.027,1.059,0.095
47.13,-0.098,0.942,0.142
47.14,-0.294,0.721,0.053
47.15,-0.491,1.363,-0.233
47.16,-0.006,0.8,-0.076
47.17,-0.213,1.183,0.148
47.18,-0.078,0.687,0.09
47.19,-0.447,1.042,-0.214
47.2,-0.221,1.084,-0.059
47.21,-0.053,0.945,0.029
47.22,-0.23,0.948,0.114
47.23,-0.156,0.704,-0.001
47.24,-0.391,1.342,-0.228
47.25,-0.104,0.829,0.064
47.26,-0.033,1.106,0.124
47.27,-0.264,0.627,0.013
47.28,-0.359,1.211,-0.17
47.29,-0.134,1.001,-0.06
47.3,-0.197,0.876,0.149
47.31,-0.072,0.996,0.114
47.32,-0.382,0.756,-0.231
47.33,-0.324,1.191,-0.045
47.34,0.146,0.968,0.053
47.35,-0.24,0.945,0.107
47.36,-0.277,0.763,0.089
47.37,-0.335,1.229,-0.257
47.38,-0.17,1.001,-0.023
47.39,-0.044,0.864,0.187
47.4,-0.183,0.97,0.042
47.41,-0.483,0.803,-0.116
47.42,-0.079,1.381,-0.059
47.43,-0.072,0.772,0.092
47.44,-0.249,0.931,0.165
47.45,-0.207,0.898,-0.134
47.46,-0.317,1.008,-0.209
47.47,-0.085,1.187,0.107
47.48,-0.043,0.682,0.067
47.49,-0.337,1.062,0.032
47.5,-0.345,0.905,-0.208
47.51,-0.101,1.157,-0.05
47.52,-0.161,0.769,0.213
47.53,-0.145,0.92,0.11
47.54,-0.392,1.015,-0.208
47.55,-0.255,0.93,-0.065
47.56,-0.047,1.179,0.082
47.57,-0.16,0.605,0.134
47.58,-0.278,1.119,-0.023
47.59,-0.3,0.903,-0.242
47.6,-0.182,1.165,0.092
47.61,-0.027,0.901,0.094
47.62,-0.195,0.748,-0.029
47.63,-0.405,1.155,-0.126
47.64,-0.001,0.955,-0.09
47.65,-0.224,1.079,0.128
47.66,-0.069,0.726,0.185
47.67,-0.395,1.11,-0.175
47.68,-0.365,0.849,-0.131
47.69,0.038,1.196,0.078
47.7,-0.1,0.896,0.107
47.71,-0.335,0.765,0.035
47.72,-0.246,1.354,-0.176
47.73,-0.179,0.78,-0.007
47.74,-0.126,1.116,0.236
47.75,-0.104,0.733,0.072
47.76,-0.563,1.081,-0.193
47.77,-0.094,1.035,-0.051
47.78,-0.119,0.979,0.099
47.79,-0.237,0.95,0.205
47.8,-0.181,0.769,-0.158
47.81,-0.38,1.25,-0.165
47.82,-0.072,0.866,0.147
47.83,-0.063,1.092,0.103
47.84,-0.225,0.699,0.001
47.85,-0.335,1.125,-0.23
47.86,-0.068,1.125,-0.064
47.87,-0.258,0.794,0.183
47.88,-0.097,1.022,0.086
47.89,-0.355,0.758,-0.175
47.9,-0.279,1.294,-0.075
47.91,-0.053,0.844,0.125
47.92,-0.195,0.875,0.12
47.93,-0.171,0.896,-0.038
47.94,-0.303,1.053,-0.252
47.95,-0.128,1.107,0.051
47.96,-0.047,0.784,0.194
47.97,-0.335,0.996,0.024
47.98,-0.339,0.837,-0.182
47.99,-0.13,1.273,-0.085
48.0,-0.171,0.737,0.128
48.01,-0.087,0.922,0.172
48.02,-0.373,1.02,-0.19
48.03,-0.293,0.83,-0.171
48.04,0.098,1.315,0.082
48.05,-0.212,0.609,0.109
48.06,-0.278,1.067,0.114
48.07,-0.347,0.966,-0.229
48.08,-0.244,1.048,-0.031
48.09,0.01,0.837,0.154
48.1,-0.225,0.869,-0.029
48.11,-0.417,0.996,-0.135
48.12,-0.023,1.037,-0.102
48.13,-0.215,1.037,0.079
48.14,-0.039,0.687,0.173
48.15,-0.359,1.125,-0.152
48.16,-0.414,0.803,-0.116
48.17,0.045,1.295,0.11
48.18,-0.182,0.751,0.073
48.19,-0.2,0.857,0.057
48.2,-0.332,1.23,-0.203
48.21,-0.173,0.821,-0.05
48.22,-0.124,1.132,0.151
48.23,0.01,0.648,0.034
48.24,-0.517,1.147,-0.135
48.25,-0.152,0.943,-0.074
48.26,-0.081,1.11,0.1
48.27,-0.233,0.787,0.138
48.28,-0.133,0.85,-0.05
48.29,-0.406,1.238,-0.26
48.3,-0.087,0.771,0.08
48.31,-0.073,1.242,0.148
48.32,-0.2,0.579,0.023
48.33,-0.437,1.18,-0.166
48.34,-0.028,1.054,-0.081
