t,ax,ay,az
0.0,-0.114,0.903,-0.063
0.01,-0.223,1.049,0.139
0.02,0.014,0.738,0.132
0.03,-0.45,1.2,-0.216
0.04,-0.228,0.793,-0.056
0.05,-0.048,1.259,0.054
0.06,-0.081,0.751,0.119
0.07,-0.341,0.874,0.037
0.08,-0.244,1.203,-0.211
0.09,-0.194,0.793,-0.035
0.1,-0.25,1.104,0.212
0.11,0.011,0.753,0.072
0.12,-0.531,1.143,-0.215
0.13,-0.172,0.836,-0.081
0.14,0.003,1.225,0.056
0.15,-0.156,0.764,0.068
0.16,-0.279,0.829,0.072
0.17,-0.38,1.118,-0.22
0.18,-0.219,0.823,0.019
0.19,-0.036,1.176,0.163
0.2,-0.112,0.66,0.055
0.21,-0.491,1.176,-0.166
0.22,0.0,0.925,-0.06
0.23,-0.152,1.154,0.045
0.24,-0.218,0.729,0.225
0.25,-0.271,0.943,-0.089
0.26,-0.273,1.089,-0.209
0.27,-0.224,0.906,0.124
0.28,-0.053,1.162,0.101
0.29,-0.111,0.621,0.036
0.3,-0.442,1.256,-0.191
0.31,-0.032,0.945,-0.088
0.32,-0.157,1.05,0.083
0.33,-0.187,0.867,0.206
0.34,-0.293,0.87,-0.156
0.35,-0.296,1.108,-0.116
0.36,-0.174,0.932,0.117
0.37,-0.157,1.14,0.108
0.38,-0.09,0.642,0.02
0.39,-0.461,1.243,-0.191
0.4,-0.145,0.955,-0.066
0.41,-0.096,0.93,0.112
0.42,-0.172,0.948,0.144
0.43,-0.334,0.82,-0.13
0.44,-0.235,1.18,-0.149
0.45,-0.118,0.926,0.091
0.46,-0.122,1.061,0.133
0.47,-0.144,0.69,0.014
0.48,-0.489,1.189,-0.145
0.49,-0.083,1.034,-0.075
0.5,-0.105,0.865,0.101
0.51,-0.212,1.027,0.176
0.52,-0.27,0.767,-0.188
0.53,-0.277,1.177,-0.127
0.54,-0.132,0.935,0.136
0.55,-0.176,1.013,0.109
0.56,-0.182,0.744,0.005
0.57,-0.441,1.17,-0.128
0.58,-0.099,1.064,-0.044
0.59,-0.198,0.803,0.152
0.6,-0.135,1.04,0.132
0.61,-0.302,0.772,-0.204
0.62,-0.278,1.247,-0.067
0.63,-0.063,0.948,0.073
0.64,-0.089,0.915,0.121
0.65,-0.25,0.861,0.018
0.66,-0.403,1.052,-0.175
0.67,-0.036,1.104,-0.078
0.68,-0.132,0.799,0.131
0.69,-0.144,1.055,0.131
0.7,-0.328,0.785,-0.248
0.71,-0.181,1.195,-0.055
0.72,-0.072,0.917,0.095
0.73,-0.194,0.851,0.174
0.74,-0.284,0.924,-0.052
0.75,-0.315,0.939,-0.178
0.76,-0.07,1.185,0.026
0.77,-0.199,0.778,0.136
0.78,-0.113,1.013,0.059
0.79,-0.288,0.871,-0.17
0.8,-0.254,1.181,-0.07
0.81,-0.066,0.932,0.089
0.82,-0.095,0.801,0.13
0.83,-0.376,1.031,-0.058
0.84,-0.297,0.883,-0.184
0.85,-0.035,1.199,-0.048
0.86,-0.14,0.736,0.166
0.87,-0.122,1.02,0.056
0.88,-0.37,0.927,-0.23
0.89,-0.105,1.09,-0.097
0.9,-0.074,0.949,0.071
0.91,-0.101,0.784,0.189
0.92,-0.435,1.132,-0.106
0.93,-0.226,0.803,-0.178
0.94,-0.136,1.272,0.104
0.95,-0.125,0.692,0.123
0.96,-0.206,0.949,0.058
0.97,-0.386,1.042,-0.152
0.98,-0.181,1.074,-0.046
0.99,-0.118,0.852,0.195
1.0,-0.12,0.887,0.13
1.01,-0.439,1.048,-0.173
1.02,-0.193,0.865,-0.059
1.03,-0.114,1.304,0.065
1.04,-0.148,0.605,0.172
1.05,-0.268,1.095,0.008
1.06,-0.387,1.003,-0.235
1.07,-0.104,0.992,-0.006
1.08,-0.136,0.944,0.156
1.09,-0.142,0.785,0.059
1.1,-0.433,1.119,-0.162
1.11,-0.122,0.898,-0.024
1.12,-0.203,1.271,0.088
1.13,-0.121,0.643,0.129
1.14,-0.283,1.071,-0.028
1.15,-0.374,0.969,-0.218
1.16,-0.094,0.945,0.003
1.17,-0.067,1.098,0.155
1.18,-0.162,0.709,0.052
1.19,-0.439,1.187,-0.18
1.2,-0.03,0.901,-0.09
1.21,-0.157,1.158,0.057
1.22,-0.104,0.732,0.208
1.23,-0.357,1.042,-0.112
1.24,-0.285,0.952,-0.219
1.25,-0.024,1.017,0.106
1.26,-0.159,1.039,0.075
1.27,-0.174,0.618,0.026
1.28,-0.344,1.401,-0.196
1.29,-0.153,0.836,-0.062
1.3,-0.159,1.071,0.14
1.31,-0.076,0.819,0.176
1.32,-0.421,0.947,-0.154
1.33,-0.286,1.052,-0.09
1.34,0.01,1.01,0.036
1.35,-0.238,1.03,0.158
1.36,-0.187,0.682,0.041
1.37,-0.364,1.353,-0.259
1.38,-0.084,0.789,-0.078
1.39,-0.18,1.066,0.184
1.4,-0.047,0.865,0.056
1.41,-0.456,0.873,-0.146
1.42,-0.184,1.168,-0.081
1.43,-0.023,0.958,0.047
1.44,-0.225,0.951,0.154
1.45,-0.176,0.743,0.026
1.46,-0.391,1.319,-0.261
1.47,-0.091,0.812,-0.009
1.48,-0.17,1.009,0.228
1.49,-0.172,0.925,0.051
1.5,-0.374,0.822,-0.185
1.51,-0.19,1.287,-0.008
1.52,-0.088,0.839,0.056
1.53,-0.178,0.949,0.146
1.54,-0.211,0.803,-0.04
1.55,-0.352,1.175,-0.186
1.56,-0.145,0.925,0.023
1.57,-0.071,0.966,0.133
1.58,-0.146,0.938,0.052
1.59,-0.424,0.878,-0.164
1.6,-0.083,1.278,-0.042
1.61,-0.125,0.79,0.068
1.62,-0.219,0.982,0.224
1.63,-0.214,0.841,-0.141
1.64,-0.329,1.072,-0.127
1.65,-0.149,1.065,0.083
1.66,-0.088,0.825,0.166
1.67,-0.25,0.97,0.034
1.68,-0.42,0.897,-0.13
1.69,-0.107,1.243,-0.103
1.7,-0.166,0.708,0.107
1.71,-0.111,1.003,0.199
1.72,-0.315,0.95,-0.171
1.73,-0.297,0.943,-0.132
1.74,-0.077,1.229,0.096
1.75,-0.104,0.695,0.13
1.76,-0.302,1.038,0.046
1.77,-0.297,0.964,-0.175
1.78,-0.143,1.143,-0.052
1.79,-0.201,0.747,0.133
1.8,-0.087,1.005,0.109
1.81,-0.396,0.884,-0.189
1.82,-0.259,1.09,-0.004
1.83,-0.141,1.068,0.052
1.84,-0.112,0.704,0.142
1.85,-0.328,1.101,0.023
1.86,-0.297,0.904,-0.235
1.87,-0.157,1.157,-0.003
1.88,-0.041,0.824,0.129
1.89,-0.158,0.974,0.079
1.9,-0.371,0.91,-0.166
1.91,-0.096,1.036,-0.061
1.92,-0.158,1.068,0.062
1.93,-0.16,0.653,0.207
1.94,-0.277,1.166,-0.103
1.95,-0.297,0.804,-0.198
1.96,-0.19,1.198,0.059
1.97,-0.067,0.835,0.133
1.98,-0.11,0.892,0.049
1.99,-0.375,1.094,-0.166
2.0,-0.084,0.985,-0.124
2.01,-0.14,1.066,0.056
2.02,-0.139,0.697,0.212
2.03,-0.345,1.173,-0.109
2.04,-0.285,0.777,-0.169
2.05,-0.128,1.183,0.101
2.06,-0.109,0.834,0.112
2.07,-0.144,0.826,0.057
2.08,-0.444,1.191,-0.184
2.09,-0.07,0.903,-0.071
2.1,-0.181,1.097,0.071
2.11,-0.121,0.673,0.19
2.12,-0.41,1.176,-0.151
2.13,-0.235,0.818,-0.155
2.14,-0.179,1.207,0.117
2.15,-0.109,0.857,0.097
2.16,-0.174,0.751,0.002
2.17,-0.39,1.266,-0.194
2.18,-0.081,0.852,-0.057
2.19,-0.2,1.13,0.119
2.2,-0.144,0.722,0.154
2.21,-0.383,1.114,-0.161
2.22,-0.214,0.895,-0.099
2.23,-0.116,1.119,0.13
2.24,-0.277,1.089,-0.092
2.25,-0.062,0.98,0.131
2.26,-0.144,1.05,0.091
2.27,-0.198,0.623,-0.022
2.28,-0.373,1.286,-0.145
2.29,-0.074,0.92,-0.021
2.3,-0.194,0.939,0.162
2.31,-0.135,0.915,0.146
2.32,-0.455,0.87,-0.186
2.33,-0.242,1.135,-0.091
2.34,0.029,0.918,0.049
2.35,-0.168,1.031,0.097
2.36,-0.277,0.718,-0.02
2.37,-0.276,1.218,-0.216
2.38,-0.078,0.958,0.006
2.39,-0.188,0.904,0.239
2.4,-0.091,0.955,0.065
2.41,-0.42,0.842,-0.2
2.42,-0.248,1.248,0.029
2.43,-0.124,0.804,0.075
2.44,-0.172,0.977,0.158
2.45,-0.222,0.842,-0.059
2.46,-0.284,1.095,-0.178
2.47,-0.16,1.024,0.066
2.48,-0.069,0.865,0.144
2.49,-0.213,0.962,-0.001
2.5,-0.323,0.908,-0.156
2.51,-0.19,1.262,-0.088
2.52,-0.123,0.734,0.075
2.53,-0.092,0.983,0.17
2.54,-0.293,0.78,-0.19
2.55,-0.253,1.101,-0.074
2.56,-0.06,1.015,0.066
2.57,-0.125,0.835,0.118
2.58,-0.279,0.976,0.053
2.59,-0.308,0.985,-0.192
2.6,-0.138,1.172,-0.048
2.61,-0.182,0.732,0.189
2.62,-0.13,1.041,0.087
2.63,-0.346,0.815,-0.179
2.64,-0.228,1.054,-0.079
2.65,-0.006,1.104,0.068
2.66,-0.178,0.734,0.139
2.67,-0.285,1.036,0.025
2.68,-0.309,0.969,-0.213
2.69,-0.133,1.161,-0.025
2.7,-0.198,0.737,0.216
2.71,-0.143,1.008,0.054
2.72,-0.359,0.872,-0.177
2.73,-0.231,1.034,-0.05
2.74,0.035,1.089,0.052
2.75,-0.157,0.655,0.112
2.76,-0.306,1.137,-0.022
2.77,-0.301,0.89,-0.214
2.78,-0.124,1.147,-0.006
2.79,-0.094,0.842,0.165
2.8,-0.125,0.913,0.034
2.81,-0.368,0.981,-0.179
2.82,-0.001,1.026,-0.09
2.83,-0.141,1.073,0.068
2.84,-0.135,0.653,0.19
2.85,-0.265,1.247,-0.134
2.86,-0.296,0.806,-0.208
2.87,-0.148,1.174,0.094
2.88,-0.124,0.88,0.155
2.89,-0.185,0.853,0.014
2.9,-0.405,1.112,-0.188
2.91,-0.024,0.889,-0.109
2.92,-0.196,1.108,0.125
2.93,-0.124,0.651,0.197
2.94,-0.416,1.157,-0.148
2.95,-0.23,0.81,-0.19
2.96,-0.069,1.213,0.109
2.97,-0.145,0.857,0.136
2.98,-0.228,0.799,0.047
2.99,-0.367,1.246,-0.153
3.0,-0.092,0.818,-0.035
3.01,-0.24,1.17,0.159
3.02,0.026,0.716,0.115
3.03,-0.459,1.109,-0.169
3.04,-0.224,0.906,-0.092
3.05,0.009,1.134,-0.023
3.06,-0.16,0.844,0.13
3.07,-0.245,0.789,0.104
3.08,-0.405,1.295,-0.251
3.09,-0.094,0.711,-0.026
3.1,-0.213,1.226,0.228
3.11,-0.007,0.754,0.065
3.12,-0.487,1.025,-0.197
3.13,-0.198,0.981,-0.039
3.14,-0.124,1.121,0.067
3.15,-0.189,0.901,0.119
3.16,-0.203,0.74,0.062
3.17,-0.447,1.343,-0.259
3.18,-0.107,0.721,-0.009
3.19,-0.136,1.225,0.156
3.2,-0.14,0.72,0.108
3.21,-0.426,0.973,-0.184
3.22,-0.082,1.142,-0.037
3.23,-0.165,0.988,0.051
3.24,-0.141,0.923,0.162
3.25,-0.205,0.746,0.022
3.26,-0.453,1.277,-0.25
3.27,-0.107,0.737,0.016
3.28,-0.03,1.226,0.13
3.29,-0.163,0.733,0.055
3.3,-0.432,0.892,-0.13
3.31,-0.078,1.253,-0.041
3.32,-0.146,0.88,0.064
3.33,-0.181,0.952,0.179
3.34,-0.162,0.766,-0.0
3.35,-0.461,1.277,-0.21
3.36,-0.087,0.862,0.085
3.37,-0.143,1.213,0.123
3.38,-0.24,0.656,0.074
3.39,-0.384,1.067,-0.115
3.4,-0.049,1.171,-0.131
3.41,-0.176,0.802,0.082
3.42,-0.123,0.977,0.198
3.43,-0.267,0.804,-0.11
3.44,-0.392,1.165,-0.198
3.45,-0.087,0.916,0.141
3.46,-0.144,1.118,0.118
3.47,-0.224,0.731,0.023
3.48,-0.34,1.082,-0.13
3.49,-0.113,1.165,-0.127
3.5,-0.244,0.755,0.107
3.51,-0.14,1.026,0.201
3.52,-0.232,0.799,-0.14
3.53,-0.443,1.136,-0.145
3.54,-0.122,0.941,0.059
3.55,-0.05,1.051,0.099
3.56,-0.218,0.819,0.022
3.57,-0.396,0.987,-0.162
3.58,-0.088,1.207,-0.081
3.59,-0.189,0.742,0.073
3.6,-0.154,0.995,0.189
3.61,-0.247,0.848,-0.117
3.62,-0.349,1.114,-0.181
3.63,-0.165,0.919,0.071
3.64,0.016,1.015,0.094
3.65,-0.189,0.865,-0.025
3.66,-0.428,0.884,-0.071
3.67,-0.056,1.306,-0.036
3.68,-0.199,0.732,0.046
3.69,-0.081,1.013,0.204
3.7,-0.269,0.844,-0.132
3.71,-0.368,1.049,-0.101
3.72,-0.135,1.066,0.098
3.73,-0.074,0.939,0.093
3.74,-0.245,0.947,0.002
3.75,-0.312,0.909,-0.115
3.76,-0.146,1.266,-0.118
3.77,-0.128,0.722,0.066
3.78,-0.09,1.008,0.198
3.79,-0.27,0.899,-0.138
3.8,-0.305,0.969,-0.142
3.81,-0.137,1.121,0.041
3.82,-0.056,0.849,0.136
3.83,-0.236,0.996,0.034
3.84,-0.359,0.857,-0.113
3.85,-0.171,1.291,-0.039
3.86,-0.13,0.725,0.026
3.87,-0.157,0.94,0.222
3.88,-0.244,0.978,-0.122
3.89,-0.351,0.91,-0.162
3.9,-0.104,1.177,0.086
3.91,-0.054,0.803,0.128
3.92,-0.262,1.017,0.019
3.93,-0.365,0.875,-0.121
3.94,-0.157,1.181,-0.086
3.95,-0.104,0.824,0.068
3.96,-0.121,0.937,0.221
3.97,-0.31,1.021,-0.144
3.98,-0.318,0.826,-0.134
3.99,-0.174,1.255,0.1
4.0,-0.074,0.734,0.128
4.01,-0.229,1.002,0.028
4.02,-0.292,0.966,-0.13
4.03,-0.23,1.187,-0.089
4.04,-0.102,0.804,0.042
4.05,-0.097,0.877,0.227
4.06,-0.359,1.095,-0.117
4.07,-0.213,0.794,-0.191
4.08,-0.166,1.257,0.031
4.09,-0.083,0.714,0.178
4.1,-0.153,1.016,0.058
4.11,-0.332,0.978,-0.177
4.12,-0.181,1.09,-0.066
4.13,-0.126,0.93,0.07
4.14,-0.158,0.768,0.169
4.15,-0.343,1.14,-0.078
4.16,-0.259,0.803,-0.155
4.17,-0.161,1.302,0.066
4.18,-0.126,0.738,0.177
4.19,-0.235,1.083,0.029
4.2,-0.366,0.9,-0.158
4.21,-0.211,1.129,-0.077
4.22,-0.154,0.854,0.106
4.23,-0.142,0.865,0.186
4.24,-0.368,1.106,-0.142
4.25,-0.206,0.79,-0.115
4.26,-0.171,1.258,0.105
4.27,-0.104,0.703,0.172
4.28,-0.2,1.033,0.036
4.29,-0.417,0.948,-0.138
4.3,-0.168,1.135,-0.067
4.31,-0.19,0.872,0.072
4.32,-0.086,0.783,0.213
4.33,-0.401,1.171,-0.134
4.34,-0.19,0.759,-0.161
4.35,-0.202,1.292,0.096
4.36,-0.061,0.71,0.166
4.37,-0.26,0.996,0.025
4.38,-0.344,0.996,-0.202
4.39,-0.176,1.027,-0.051
4.4,-0.233,0.975,0.09
4.41,-0.075,0.74,0.209
4.42,-0.414,1.153,-0.131
4.43,-0.151,0.785,-0.134
4.44,-0.222,1.281,0.064
4.45,-0.065,0.72,0.153
4.46,-0.221,0.936,0.04
4.47,-0.369,1.001,-0.217
4.48,-0.123,0.992,-0.047
4.49,-0.204,1.046,0.073
4.5,-0.088,0.676,0.163
4.51,-0.375,1.22,-0.101
4.52,-0.245,0.789,-0.146
4.53,-0.128,1.206,0.062
4.54,-0.087,0.865,0.129
4.55,-0.211,0.88,0.019
4.56,-0.387,1.07,-0.185
4.57,-0.136,0.933,-0.093
4.58,-0.197,1.1,0.093
4.59,-0.14,0.68,0.203
4.6,-0.354,1.172,-0.139
4.61,-0.249,0.826,-0.118
4.62,-0.141,1.224,0.075
4.63,-0.102,0.866,0.128
4.64,-0.221,0.781,0.037
4.65,-0.394,1.195,-0.175
4.66,-0.062,0.876,-0.075
4.67,-0.202,1.131,0.077
4.68,-0.099,0.697,0.197
4.69,-0.395,1.138,-0.117
4.7,-0.293,0.857,-0.128
4.71,-0.123,1.101,0.051
4.72,-0.089,0.96,0.13
4.73,-0.202,0.73,0.032
4.74,-0.413,1.223,-0.217
4.75,-0.115,0.823,-0.035
4.76,-0.193,1.113,0.078
4.77,-0.116,0.698,0.169
4.78,-0.347,1.09,-0.127
4.79,-0.259,0.906,-0.141
4.8,-0.121,1.047,0.057
4.81,-0.08,1.004,0.105
4.82,-0.16,0.692,0.005
4.83,-0.404,1.289,-0.178
4.84,-0.004,0.873,-0.094
4.85,-0.192,1.09,0.091
4.86,-0.041,0.731,0.193
4.87,-0.451,1.065,-0.153
4.88,-0.26,0.975,-0.158
4.89,-0.126,1.023,0.121
4.9,-0.107,0.998,0.12
4.91,-0.216,0.671,0.013
4.92,-0.384,1.32,-0.192
4.93,-0.125,0.851,-0.035
4.94,-0.154,1.061,0.107
4.95,-0.058,0.77,0.174
4.96,-0.425,0.958,-0.15
4.97,-0.228,1.05,-0.115
4.98,-0.123,1.022,0.126
4.99,-0.161,0.917,0.11
5.0,-0.219,0.748,0.022
5.01,-0.355,1.35,-0.18
5.02,-0.113,0.801,0.001
5.03,-0.177,1.107,0.17
5.04,-0.03,0.741,0.115
5.05,-0.552,1.061,-0.208
5.06,-0.135,0.966,-0.087
5.07,-0.033,1.069,0.059
5.08,-0.188,0.885,0.077
5.09,-0.24,0.733,0.071
5.1,-0.35,1.361,-0.228
5.11,-0.172,0.77,0.0
5.12,-0.061,1.132,0.168
5.13,-0.074,0.767,0.074
5.14,-0.537,0.982,-0.123
5.15,-0.094,1.144,-0.042
5.16,-0.112,0.891,0.033
5.17,-0.199,1.01,0.171
5.18,-0.246,0.761,-0.056
5.19,-0.363,1.205,-0.186
5.2,-0.163,0.895,0.09
5.21,-0.085,1.083,0.123
5.22,-0.121,0.768,0.067
5.23,-0.424,1.004,-0.154
5.24,-0.131,1.206,-0.087
5.25,-0.074,0.781,0.067
5.26,-0.206,1.074,0.2
5.27,-0.272,0.724,-0.118
5.28,-0.353,1.143,-0.152
5.29,-0.095,0.968,0.069
5.3,-0.16,0.997,0.144
5.31,-0.088,0.86,0.029
5.32,-0.395,0.989,-0.164
5.33,-0.087,1.242,-0.098
5.34,-0.116,0.733,0.076
5.35,-0.201,1.061,0.18
5.36,-0.219,0.811,-0.109
5.37,-0.357,1.11,-0.145
5.38,-0.166,0.989,0.094
5.39,-0.076,0.896,0.133
5.4,-0.207,0.92,-0.016
5.41,-0.378,0.935,-0.11
5.42,-0.152,1.28,-0.101
5.43,-0.164,0.69,0.087
5.44,-0.082,1.029,0.142
5.45,-0.371,0.855,-0.14
5.46,-0.174,0.985,-0.136
5.47,-0.119,1.14,0.114
5.48,-0.14,0.793,0.169
5.49,-0.253,1.039,0.021
5.5,-0.36,0.91,-0.188
5.51,-0.187,1.205,-0.035
5.52,-0.163,0.731,0.153
5.53,-0.063,1.017,0.136
5.54,-0.365,0.917,-0.158
5.55,-0.267,0.975,-0.088
5.56,-0.114,1.145,0.064
5.57,-0.092,0.622,0.154
5.58,-0.264,1.115,0.059
5.59,-0.364,0.951,-0.211
5.6,-0.183,1.118,-0.023
5.61,-0.156,0.827,0.151
5.62,-0.079,0.946,0.128
5.63,-0.355,0.979,-0.174
5.64,-0.207,0.92,-0.087
5.65,-0.09,1.227,0.026
5.66,-0.089,0.621,0.105
5.67,-0.266,1.101,0.017
5.68,-0.317,0.926,-0.213
5.69,-0.137,1.095,-0.027
5.7,-0.198,0.857,0.173
5.71,-0.103,0.866,0.081
5.72,-0.433,1.028,-0.157
5.73,-0.151,0.945,-0.041
5.74,-0.131,1.242,0.033
5.75,-0.111,0.592,0.12
5.76,-0.228,1.162,0.0
5.77,-0.402,0.921,-0.261
5.78,-0.128,0.981,0.015
5.79,-0.047,1.034,0.111
5.8,-0.184,0.769,0.049
5.81,-0.338,0.997,-0.122
5.82,-0.109,1.073,-0.088
5.83,-0.185,1.044,0.071
5.84,-0.052,0.621,0.16
5.85,-0.354,1.189,-0.089
5.86,-0.289,0.781,-0.215
5.87,-0.134,1.177,0.068
5.88,-0.159,0.883,0.164
5.89,-0.104,0.85,0.025
5.9,-0.377,1.068,-0.21
5.91,-0.12,0.912,-0.051
5.92,-0.205,1.173,0.096
5.93,-0.088,0.651,0.17
5.94,-0.38,1.132,-0.093
5.95,-0.229,0.859,-0.169
5.96,-0.059,1.177,0.043
5.97,-0.109,0.877,0.124
5.98,-0.146,0.792,0.049
5.99,-0.407,1.206,-0.183
6.0,-0.118,0.899,-0.048
6.01,-0.19,1.117,0.096
6.02,-0.132,0.702,0.167
6.03,-0.401,1.135,-0.131
6.04,-0.195,0.878,-0.139
6.05,-0.142,1.14,0.056
6.06,-0.087,0.891,0.093
6.07,-0.147,0.745,0.022
6.08,-0.439,1.295,-0.145
6.09,-0.13,0.81,-0.033
6.1,-0.252,1.129,0.117
6.11,-0.087,0.696,0.114
6.12,-0.41,1.092,-0.136
6.13,-0.276,0.976,-0.102
6.14,-0.003,1.097,0.048
6.15,-0.147,0.897,0.071
6.16,-0.237,0.735,0.02
6.17,-0.363,1.341,-0.218
6.18,-0.099,0.788,-0.009
6.19,-0.225,1.145,0.187
6.2,-0.03,0.753,0.102
6.21,-0.468,1.042,-0.147
6.22,-0.297,0.985,-0.074
6.23,-0.094,1.023,0.064
6.24,-0.1,0.973,0.111
6.25,-0.167,0.697,0.011
6.26,-0.421,1.329,-0.2
6.27,-0.114,0.782,0.012
6.28,-0.162,1.124,0.161
6.29,-0.049,0.787,0.088
6.3,-0.454,0.974,-0.213
6.31,-0.18,1.124,-0.01
6.32,-0.157,1.034,0.066
6.33,-0.153,0.953,0.105
6.34,-0.207,0.733,0.052
6.35,-0.334,1.326,-0.247
6.36,-0.11,0.793,-0.019
6.37,-0.158,1.068,0.189
6.38,-0.053,0.827,0.068
6.39,-0.438,0.925,-0.175
6.4,-0.189,1.211,-0.044
6.41,-0.04,0.882,0.055
6.42,-0.2,0.992,0.148
6.43,-0.192,0.773,-0.01
6.44,-0.385,1.264,-0.22
6.45,-0.079,0.884,-0.011
6.46,-0.145,1.059,0.198
6.47,-0.142,0.862,0.058
6.48,-0.427,0.84,-0.137
6.49,-0.108,1.323,-0.093
6.5,-0.167,0.756,0.076
6.51,-0.116,0.977,0.126
6.52,-0.263,0.822,-0.046
6.53,-0.375,1.117,-0.215
6.54,-0.072,0.959,0.013
6.55,-0.114,1.007,0.174
6.56,-0.177,0.912,0.064
6.57,-0.338,0.81,-0.185
6.58,-0.137,1.293,-0.082
6.59,-0.118,0.776,0.061
6.6,-0.138,1.008,0.192
6.61,-0.269,0.838,-0.092
6.62,-0.344,1.142,-0.105
6.63,-0.1,1.002,0.05
6.64,-0.087,0.947,0.103
6.65,-0.204,0.87,0.022
6.66,-0.361,1.002,-0.133
6.67,-0.154,1.223,-0.079
6.68,-0.211,0.672,0.12
6.69,-0.064,1.079,0.148
6.7,-0.364,0.811,-0.137
6.71,-0.268,1.09,-0.151
6.72,-0.088,1.081,0.091
6.73,-0.131,0.835,0.14
6.74,-0.26,0.926,0.017
6.75,-0.338,0.987,-0.134
6.76,-0.142,1.203,-0.026
6.77,-0.219,0.715,0.191
6.78,-0.073,1.072,0.143
6.79,-0.338,0.829,-0.202
6.8,-0.306,1.028,-0.062
6.81,-0.041,1.147,0.057
6.82,-0.206,0.699,0.134
6.83,-0.226,0.971,0.025
6.84,-0.319,1.004,-0.158
6.85,-0.142,1.184,-0.002
6.86,-0.244,0.699,0.204
6.87,-0.078,1.012,0.092
6.88,-0.395,0.902,-0.215
6.89,-0.198,0.995,-0.051
6.9,-0.062,1.195,0.034
6.91,-0.129,0.634,0.134
6.92,-0.28,1.079,0.026
6.93,-0.364,0.901,-0.207
6.94,-0.125,1.177,-0.014
6.95,-0.087,0.875,0.168
6.96,-0.16,0.922,0.07
6.97,-0.4,0.947,-0.174
6.98,-0.116,1.021,-0.086
6.99,-0.123,1.125,0.073
7.0,-0.152,0.645,0.191
7.01,-0.286,1.141,-0.051
7.02,-0.311,0.86,-0.223
7.03,-0.17,1.148,0.028
7.04,-0.085,0.917,0.103
7.05,-0.109,0.863,0.041
7.06,-0.373,1.108,-0.182
7.07,-0.13,0.886,-0.092
7.08,-0.156,1.167,0.071
7.09,-0.021,0.644,0.157
7.1,-0.461,1.129,-0.023
7.11,-0.358,0.798,-0.155
7.12,-0.081,1.162,0.041
7.13,-0.195,0.977,0.132
7.14,-0.14,0.749,0.047
7.15,-0.354,1.22,-0.159
7.16,-0.127,0.925,-0.102
7.17,-0.135,1.123,0.111
7.18,-0.075,0.686,0.159
7.19,-0.442,1.132,-0.093
7.2,-0.303,0.844,-0.141
7.21,-0.091,1.168,0.105
7.22,-0.164,0.993,0.105
7.23,-0.164,0.663,0.07
7.24,-0.367,1.302,-0.187
7.25,-0.13,0.882,-0.07
7.26,-0.141,1.114,0.137
7.27,-0.044,0.755,0.176
7.28,-0.495,1.068,-0.136
7.29,-0.202,0.881,-0.149
7.3,-0.034,1.077,0.054
7.31,-0.237,0.941,0.123
7.32,-0.121,0.701,0.1
7.33,-0.434,1.341,-0.212
7.34,-0.102,0.797,-0.084
7.35,-0.091,1.127,0.138
7.36,-0.15,0.776,0.172
7.37,-0.412,1.005,-0.166
7.38,-0.179,1.003,-0.178
7.39,-0.014,1.037,0.052
7.4,-0.154,1.011,0.11
7.41,-0.133,0.666,-0.007
7.42,-0.41,1.354,-0.145
7.43,-0.118,0.834,-0.034
7.44,-0.139,1.175,0.161
7.45,-0.109,0.717,0.117
7.46,-0.45,1.074,-0.196
7.47,-0.19,1.017,-0.043
7.48,-0.106,1.073,0.09
7.49,-0.185,0.875,0.123
7.5,-0.248,0.742,-0.013
7.51,-0.327,1.301,-0.205
7.52,-0.125,0.823,-0.007
7.53,-0.154,1.154,0.144
7.54,-0.056,0.708,0.071
7.55,-0.41,1.056,-0.174
7.56,-0.146,1.073,-0.071
7.57,-0.124,0.938,0.091
7.58,-0.122,0.935,0.17
7.59,-0.26,0.747,-0.039
7.6,-0.33,1.282,-0.209
7.61,-0.076,0.827,0.005
7.62,-0.175,1.157,0.14
7.63,-0.139,0.777,0.055
7.64,-0.365,0.993,-0.18
7.65,-0.205,1.174,-0.009
7.66,-0.112,0.849,0.093
7.67,-0.187,1.008,0.11
7.68,-0.251,0.745,-0.065
7.69,-0.32,1.221,-0.193
7.7,-0.13,0.926,0.097
7.71,-0.123,1.025,0.111
7.72,-0.149,0.815,0.047
7.73,-0.374,0.947,-0.175
7.74,-0.158,1.177,-0.057
7.75,-0.125,0.794,0.153
7.76,-0.131,1.04,0.137
7.77,-0.344,0.812,-0.105
7.78,-0.279,1.132,-0.159
7.79,-0.113,0.973,0.096
7.8,-0.131,0.962,0.146
7.81,-0.199,0.862,0.013
7.82,-0.338,0.982,-0.134
7.83,-0.264,1.224,-0.03
7.84,-0.068,0.687,0.098
7.85,-0.146,1.07,0.166
7.86,-0.323,0.807,-0.116
7.87,-0.287,1.073,-0.135
7.88,-0.093,1.096,0.059
7.89,-0.183,0.824,0.139
7.9,-0.128,0.943,0.017
7.91,-0.344,0.977,-0.145
7.92,-0.238,1.203,-0.05
7.93,-0.125,0.673,0.097
7.94,0.006,1.072,0.103
7.95,-0.415,0.841,-0.149
7.96,-0.316,0.99,-0.052
7.97,-0.0,1.192,0.035
7.98,-0.198,0.721,0.133
7.99,-0.25,1.031,0.095
8.0,-0.236,0.979,-0.232
8.01,-0.244,1.168,-0.029
8.02,-0.157,0.735,0.216
8.03,-0.114,1.02,0.111
8.04,-0.374,0.867,-0.203
8.05,-0.264,0.981,-0.017
8.06,-0.016,1.227,0.008
8.07,-0.141,0.635,0.124
8.08,-0.269,1.105,0.061
8.09,-0.295,0.938,-0.242
8.1,-0.212,1.127,-0.05
8.11,-0.125,0.794,0.157
8.12,-0.102,0.961,0.115
8.13,-0.391,0.958,-0.157
8.14,-0.253,0.876,-0.055
8.15,-0.096,1.299,0.034
8.16,-0.118,0.615,0.151
8.17,-0.298,1.075,0.051
8.18,-0.332,0.948,-0.207
8.19,-0.167,1.095,-0.027
8.2,-0.186,0.831,0.153
8.21,-0.122,0.875,0.12
8.22,-0.325,1.072,-0.186
8.23,-0.254,0.853,-0.044
8.24,-0.045,1.258,0.068
8.25,-0.14,0.654,0.092
8.26,-0.353,1.129,0.017
8.27,-0.26,0.889,-0.224
8.28,-0.198,1.142,0.039
8.29,-0.18,0.822,0.226
8.3,-0.065,0.92,0.021
8.31,-0.388,1.002,-0.22
8.32,-0.161,0.972,0.023
8.33,-0.042,1.159,0.051
8.34,-0.156,0.631,0.108
8.35,-0.344,1.156,0.009
8.36,-0.251,0.881,-0.199
8.37,-0.156,1.134,0.035
8.38,-0.175,0.845,0.198
8.39,-0.112,0.866,0.038
8.4,-0.439,1.123,-0.225
8.41,-0.148,0.898,-0.029
8.42,-0.111,1.129,0.054
8.43,-0.103,0.665,0.143
8.44,-0.361,1.18,-0.102
8.45,-0.248,0.817,-0.167
8.46,-0.133,1.128,0.057
8.47,-0.117,0.899,0.156
8.48,-0.146,0.777,0.038
8.49,-0.444,1.224,-0.201
8.5,-0.115,0.861,-0.055
8.51,-0.232,1.153,0.106
8.52,-0.071,0.675,0.164
8.53,-0.412,1.14,-0.118
8.54,-0.225,0.862,-0.157
8.55,-0.183,1.126,0.126
8.56,-0.048,0.948,0.11
8.57,-0.129,0.709,0.038
8.58,-0.51,1.306,-0.167
8.59,-0.017,0.846,-0.116
8.6,-0.281,1.096,0.087
8.61,-0.131,0.711,0.23
8.62,-0.334,1.104,-0.197
8.63,-0.279,0.886,-0.113
8.64,-0.15,1.082,0.102
8.65,-0.049,0.985,0.089
8.66,-0.168,0.694,0.02
8.67,-0.481,1.343,-0.126
8.68,-0.119,0.793,-0.025
8.69,-0.2,1.115,0.126
8.7,-0.118,0.781,0.166
8.71,-0.395,0.981,-0.151
8.72,-0.208,1.034,-0.132
8.73,-0.044,1.051,0.045
8.74,-0.125,0.942,0.093
8.75,-0.125,0.637,0.029
8.76,-0.427,1.393,-0.197
8.77,-0.104,0.81,-0.051
8.78,-0.277,1.095,0.174
8.79,-0.064,0.784,0.116
8.8,-0.428,0.945,-0.164
8.81,-0.188,1.131,-0.103
8.82,-0.182,0.92,0.089
8.83,-0.091,0.989,0.059
8.84,-0.147,0.742,0.024
8.85,-0.495,1.323,-0.156
8.86,-0.122,0.823,-0.013
8.87,-0.217,1.026,0.166
8.88,-0.135,0.913,0.106
8.89,-0.331,0.879,-0.2
8.9,-0.284,1.136,-0.074
8.91,-0.056,0.918,0.1
8.92,-0.189,1.047,0.148
8.93,-0.116,0.64,-0.014
8.94,-0.436,1.282,-0.183
8.95,-0.129,0.934,-0.039
8.96,-0.132,0.926,0.135
8.97,-0.176,0.956,0.13
8.98,-0.404,0.829,-0.188
8.99,-0.209,1.15,-0.106
9.0,-0.056,0.93,0.073
9.01,-0.138,0.977,0.161
9.02,-0.207,0.724,0.02
9.03,-0.398,1.248,-0.175
9.04,-0.119,0.967,-0.032
9.05,-0.175,0.852,0.161
9.06,-0.151,1.021,0.145
9.07,-0.435,0.935,-0.165
9.08,-0.264,1.179,0.011
9.09,-0.078,0.872,0.066
9.1,-0.158,0.994,0.127
9.11,-0.269,0.785,0.007
9.12,-0.348,1.236,-0.251
9.13,-0.119,0.846,-0.036
9.14,-0.035,1.05,0.146
9.15,-0.134,0.928,0.035
9.16,-0.475,0.831,-0.144
9.17,-0.166,1.254,-0.032
9.18,-0.122,0.847,0.067
9.19,-0.147,0.972,0.162
9.2,-0.225,0.803,-0.03
9.21,-0.345,1.166,-0.212
9.22,-0.114,1.0,0.021
9.23,-0.11,0.942,0.131
9.24,-0.213,0.917,0.111
9.25,-0.384,0.878,-0.116
9.26,-0.213,1.351,-0.093
9.27,-0.124,0.761,0.096
9.28,-0.071,0.993,0.17
9.29,-0.312,0.841,-0.071
9.3,-0.369,1.074,-0.162
9.31,-0.045,1.078,0.001
9.32,-0.144,0.88,0.158
9.33,-0.203,0.951,0.068
9.34,-0.299,0.855,-0.189
9.35,-0.184,1.282,-0.046
9.36,-0.166,0.773,0.085
9.37,-0.029,0.933,0.154
9.38,-0.326,0.944,-0.092
9.39,-0.347,0.923,-0.172
9.4,-0.063,1.136,0.037
9.41,-0.1,0.866,0.148
9.42,-0.253,1.014,0.062
9.43,-0.257,0.858,-0.185
9.44,-0.219,1.259,-0.067
9.45,-0.114,0.825,0.1
9.46,-0.086,0.905,0.15
9.47,-0.34,0.994,-0.095
9.48,-0.323,0.902,-0.148
9.49,-0.147,1.181,0.05
9.5,-0.108,0.803,0.121
9.51,-0.233,1.0,0.013
9.52,-0.308,0.859,-0.182
9.53,-0.088,1.215,-0.056
9.54,-0.165,0.844,0.074
9.55,-0.123,0.821,0.184
9.56,-0.271,1.094,-0.114
9.57,-0.299,0.868,-0.167
9.58,-0.097,1.205,0.008
9.59,-0.074,0.778,0.177
9.6,-0.265,1.01,0.043
9.61,-0.408,0.879,-0.184
9.62,-0.025,1.148,-0.091
9.63,-0.093,0.897,0.073
9.64,-0.183,0.77,0.222
9.65,-0.34,1.165,-0.114
9.66,-0.287,0.822,-0.135
9.67,-0.136,1.233,0.098
9.68,-0.114,0.759,0.158
9.69,-0.241,0.996,0.015
9.7,-0.424,0.955,-0.18
9.71,-0.111,1.069,-0.054
9.72,-0.177,0.953,0.101
9.73,-0.114,0.754,0.11
9.74,-0.333,1.181,-0.158
9.75,-0.304,0.762,-0.109
9.76,-0.119,1.277,0.073
9.77,-0.096,0.76,0.11
9.78,-0.292,0.924,0.024
9.79,-0.345,1.027,-0.2
9.8,-0.077,1.017,-0.094
9.81,-0.142,0.992,0.08
9.82,-0.114,0.743,0.19
9.83,-0.405,1.207,-0.204
9.84,-0.227,0.752,-0.143
9.85,-0.052,1.305,0.134
9.86,-0.159,0.773,0.128
9.87,-0.17,0.86,-0.031
9.88,-0.286,0.992,-0.225
9.89,-0.156,1.011,-0.026
9.9,-0.161,0.953,0.152
9.91,-0.095,0.776,0.089
9.92,-0.459,1.168,-0.163
9.93,-0.21,0.843,-0.028
9.94,-0.118,1.252,0.078
9.95,-0.135,0.631,0.174
9.96,-0.253,1.009,-0.015
9.97,-0.346,1.078,-0.184
9.98,-0.147,0.96,0.016
9.99,-0.14,1.036,0.126
10.0,-0.123,0.718,0.09
10.01,-0.494,1.177,-0.164
10.02,-0.146,0.832,-0.036
10.03,-0.099,1.249,0.022
10.04,-0.117,0.655,0.178
10.05,-0.256,1.0,-0.031
10.06,-0.295,1.094,-0.227
10.07,-0.11,0.905,0.069
10.08,-0.16,1.167,0.157
10.09,-0.163,0.637,0.07
10.1,-0.477,1.227,-0.162
10.11,-0.097,0.919,-0.072
10.12,-0.188,1.106,0.073
10.13,-0.064,0.742,0.183
10.14,-0.316,0.935,-0.074
10.15,-0.306,1.106,-0.191
10.16,-0.081,0.877,0.015
10.17,-0.167,1.164,0.145
10.18,-0.12,0.65,0.077
10.19,-0.456,1.224,-0.211
10.2,-0.144,0.913,-0.021
10.21,-0.184,1.092,0.116
10.22,-0.071,0.802,0.105
10.23,-0.345,0.861,-0.041
10.24,-0.298,1.176,-0.161
10.25,-0.042,0.895,-0.001
10.26,-0.119,1.143,0.143
10.27,-0.203,0.631,0.044
10.28,-0.389,1.187,-0.18
10.29,-0.136,1.011,-0.047
10.3,-0.152,0.979,0.092
10.31,-0.126,0.917,0.108
10.32,-0.305,0.817,-0.104
10.33,-0.312,1.19,-0.151
10.34,-0.054,0.863,0.039
10.35,-0.167,1.118,0.145
10.36,-0.157,0.682,0.055
10.37,-0.435,1.145,-0.177
10.38,-0.141,1.053,-0.043
10.39,-0.165,0.888,0.1
10.4,-0.123,0.991,0.194
10.41,-0.348,0.805,-0.147
10.42,-0.28,1.185,-0.14
10.43,-0.069,0.915,0.086
10.44,-0.181,1.101,0.127
10.45,-0.137,0.695,0.006
10.46,-0.422,1.204,-0.134
10.47,-0.184,1.098,-0.037
10.48,-0.179,0.768,0.126
10.49,-0.101,1.036,0.189
10.5,-0.411,0.787,-0.147
10.51,-0.276,1.167,-0.133
10.52,-0.028,0.947,0.085
10.53,-0.204,0.981,0.143
10.54,-0.221,0.808,0.027
10.55,-0.373,1.127,-0.193
10.56,-0.168,1.107,-0.05
10.57,-0.121,0.743,0.136
10.58,-0.146,1.216,-0.059
10.59,-0.208,0.781,0.102
10.6,-0.044,0.885,0.169
10.61,-0.419,1.076,-0.174
10.62,-0.318,0.767,-0.143
10.63,0.014,1.248,0.024
10.64,-0.166,0.654,0.09
10.65,-0.266,1.083,0.047
10.66,-0.247,0.942,-0.207
10.67,-0.223,1.151,-0.018
10.68,-0.138,0.751,0.176
10.69,-0.086,0.948,0.086
10.7,-0.37,0.97,-0.208
10.71,-0.203,0.938,-0.07
10.72,-0.135,1.225,0.034
10.73,-0.096,0.604,0.172
10.74,-0.313,1.129,0.032
10.75,-0.32,0.923,-0.189
10.76,-0.197,1.108,0.036
10.77,-0.17,0.809,0.19
10.78,-0.055,0.9,0.095
10.79,-0.463,1.067,-0.241
10.8,-0.192,0.834,-0.01
10.81,-0.1,1.321,0.066
10.82,-0.169,0.606,0.134
10.83,-0.295,1.091,0.01
10.84,-0.273,0.96,-0.235
10.85,-0.144,1.053,-0.005
10.86,-0.146,0.943,0.187
10.87,-0.097,0.816,0.079
10.88,-0.471,1.126,-0.206
10.89,-0.066,0.85,-0.036
10.9,-0.178,1.246,0.074
10.91,-0.168,0.61,0.133
10.92,-0.226,1.111,-0.075
10.93,-0.294,0.952,-0.174
10.94,-0.232,1.007,0.05
10.95,0.001,1.011,0.079
10.96,-0.094,0.721,-0.016
10.97,-0.47,1.206,-0.173
10.98,0.041,0.89,-0.092
10.99,-0.193,1.2,0.064
11.0,-0.127,0.663,0.211
11.01,-0.329,1.094,-0.114
11.02,-0.28,0.941,-0.157
11.03,-0.14,1.053,0.12
11.04,-0.062,1.04,0.131
11.05,-0.212,0.663,0.023
11.06,-0.427,1.282,-0.17
11.07,-0.068,0.867,-0.088
11.08,-0.166,1.109,0.075
11.09,-0.212,0.722,0.228
11.1,-0.388,1.044,-0.121
11.11,-0.24,1.028,-0.155
11.12,-0.176,0.984,0.075
11.13,-0.105,1.042,0.13
11.14,-0.139,0.668,0.012
11.15,-0.469,1.266,-0.189
11.16,-0.016,0.885,-0.05
11.17,-0.228,1.135,0.138
11.18,-0.161,0.742,0.157
11.19,-0.288,0.969,-0.136
11.2,-0.287,1.096,-0.113
11.21,-0.113,0.916,0.095
11.22,-0.061,1.081,0.134
11.23,-0.211,0.688,0.011
11.24,-0.422,1.274,-0.191
11.25,-0.065,0.907,-0.047
11.26,-0.217,0.991,0.131
11.27,-0.177,0.872,0.143
11.28,-0.362,0.93,-0.168
11.29,-0.274,1.144,-0.121
11.3,-0.043,0.929,0.119
11.31,-0.112,1.049,0.127
11.32,-0.309,0.639,-0.004
11.33,-0.343,1.265,-0.167
11.34,-0.04,0.943,-0.088
11.35,-0.233,0.873,0.176
11.36,-0.13,0.977,0.157
11.37,-0.401,0.884,-0.222
11.38,-0.282,1.153,-0.055
11.39,-0.065,0.922,0.151
11.4,-0.186,1.006,0.123
11.41,-0.26,0.691,-0.049
11.42,-0.217,1.249,-0.192
11.43,-0.145,1.024,-0.042
11.44,-0.018,0.966,0.157
11.45,-0.148,0.868,0.023
11.46,-0.516,0.932,-0.176
11.47,-0.066,1.166,-0.045
11.48,-0.113,0.856,0.094
11.49,-0.317,1.027,0.207
11.5,-0.128,0.782,-0.14
11.51,-0.325,1.176,-0.202
11.52,-0.149,0.958,0.119
11.53,-0.028,0.996,0.12
11.54,-0.282,0.859,-0.014
11.55,-0.433,0.968,-0.095
11.56,-0.102,1.229,-0.079
11.57,-0.202,0.674,0.078
11.58,-0.108,1.068,0.18
11.59,-0.342,0.819,-0.197
11.6,-0.325,1.07,-0.144
11.61,-0.0,1.073,0.058
11.62,-0.063,0.795,0.12
11.63,-0.349,0.973,0.055
11.64,-0.311,1.022,-0.195
11.65,-0.072,1.151,-0.098
11.66,-0.272,0.678,0.211
11.67,-0.055,1.051,0.129
11.68,-0.368,0.884,-0.208
11.69,-0.318,0.988,-0.039
11.7,-0.04,1.137,0.093
11.71,-0.133,0.74,0.118
11.72,-0.372,1.041,0.014
11.73,-0.177,0.965,-0.168
11.74,-0.196,1.195,-0.02
11.75,-0.223,0.703,0.219
11.76,-0.018,0.984,0.06
11.77,-0.466,0.915,-0.235
11.78,-0.224,0.981,0.029
11.79,-0.057,1.157,0.078
11.8,-0.236,0.594,0.137
11.81,-0.258,1.167,-0.007
11.82,-0.274,0.904,-0.193
11.83,-0.265,1.151,0.065
11.84,-0.006,0.838,0.177
11.85,-0.176,0.906,0.036
11.86,-0.504,1.016,-0.112
11.87,-0.046,0.997,-0.076
11.88,-0.162,1.136,0.051
11.89,-0.189,0.648,0.193
11.9,-0.24,1.168,-0.107
11.91,-0.299,0.814,-0.225
11.92,-0.149,1.202,0.101
11.93,-0.113,0.839,0.143
11.94,-0.183,0.818,0.019
11.95,-0.392,1.18,-0.164
11.96,-0.142,0.937,-0.066
11.97,-0.211,1.102,0.111
11.98,-0.146,0.723,0.159
11.99,-0.351,1.14,-0.144
12.0,-0.251,0.809,-0.174
12.01,-0.048,1.191,0.13
12.02,-0.177,0.913,0.114
12.03,-0.229,0.725,0.012
12.04,-0.379,1.249,-0.151
12.05,-0.146,0.895,-0.052
12.06,-0.18,1.073,0.101
12.07,-0.073,0.722,0.153
12.08,-0.435,1.134,-0.169
12.09,-0.237,0.83,-0.149
12.1,-0.012,1.142,0.152
12.11,-0.182,0.94,0.127
12.12,-0.244,0.703,0.02
12.13,-0.365,1.282,-0.196
12.14,-0.113,0.822,-0.053
12.15,-0.279,1.155,0.176
12.16,-0.096,0.728,0.088
12.17,-0.413,1.022,-0.208
12.18,-0.193,0.993,-0.032
12.19,-0.058,1.072,0.088
12.2,-0.204,0.888,0.151
12.21,-0.216,0.741,0.013
12.22,-0.444,1.314,-0.213
12.23,-0.115,0.773,0.037
12.24,-0.177,1.196,0.17
12.25,-0.128,0.754,0.062
12.26,-0.432,1.22,-0.184
12.27,-0.034,0.946,-0.125
12.28,-0.135,1.008,0.103
12.29,-0.15,0.871,0.151
12.3,-0.301,0.849,-0.111
12.31,-0.323,1.171,-0.139
12.32,-0.077,0.922,0.113
12.33,-0.159,1.169,0.128
12.34,-0.223,0.624,0.042
12.35,-0.436,1.185,-0.158
12.36,-0.04,1.038,-0.102
12.37,-0.196,0.87,0.123
12.38,-0.111,0.955,0.236
12.39,-0.349,0.861,-0.192
12.4,-0.325,1.11,-0.174
12.41,0.068,0.906,0.101
12.42,-0.225,1.095,0.144
12.43,-0.187,0.678,0.008
12.44,-0.336,1.233,-0.141
12.45,-0.186,1.027,-0.049
12.46,-0.176,0.838,0.19
12.47,-0.07,1.047,0.098
12.48,-0.4,0.757,-0.198
12.49,-0.167,1.259,-0.121
12.5,-0.061,0.947,0.081
12.51,-0.253,0.91,0.186
12.52,-0.183,0.783,0.051
12.53,-0.44,1.173,-0.181
12.54,-0.091,1.047,-0.045
12.55,-0.198,0.818,0.175
12.56,-0.169,1.021,0.093
12.57,-0.4,0.775,-0.176
12.58,-0.233,1.274,-0.089
12.59,0.008,0.901,0.032
12.6,-0.22,0.862,0.181
12.61,-0.267,0.903,-0.014
12.62,-0.264,1.045,-0.227
12.63,-0.099,1.092,0.025
12.64,-0.12,0.787,0.188
12.65,-0.239,1.053,0.075
12.66,-0.335,0.808,-0.205
12.67,-0.197,1.236,-0.027
12.68,-0.146,0.873,0.095
12.69,-0.162,0.812,0.179
12.7,-0.237,1.033,-0.075
12.71,-0.333,0.906,-0.191
12.72,-0.132,1.164,0.043
12.73,-0.025,0.77,0.151
12.74,-0.288,1.001,0.054
12.75,-0.391,0.891,-0.167
12.76,-0.143,1.153,-0.086
12.77,-0.183,0.87,0.097
12.78,-0.169,0.845,0.201
12.79,-0.342,1.106,-0.119
12.8,-0.345,0.763,-0.148
12.81,-0.053,1.284,0.142
12.82,-0.151,0.754,0.17
12.83,-0.314,0.962,0.022
12.84,-0.304,0.964,-0.195
12.85,-0.125,1.127,-0.076
12.86,-0.205,0.865,0.114
12.87,-0.099,0.754,0.141
12.88,-0.42,1.152,-0.135
12.89,-0.252,0.781,-0.111
12.9,-0.026,1.31,0.07
12.91,-0.098,0.683,0.116
12.92,-0.294,0.979,0.021
12.93,-0.261,1.064,-0.239
12.94,-0.138,0.996,-0.047
12.95,-0.229,0.986,0.18
12.96,-0.055,0.746,0.06
12.97,-0.459,1.14,-0.194
12.98,-0.286,0.845,0.012
12.99,-0.024,1.278,0.07
13.0,-0.121,0.645,0.115
13.01,-0.339,0.974,0.031
13.02,-0.219,1.09,-0.278
13.03,-0.167,0.895,0.009
13.04,-0.191,1.105,0.191
13.05,-0.068,0.675,0.062
13.06,-0.543,1.203,-0.171
13.07,-0.052,0.894,-0.07
13.08,-0.194,1.161,-0.003
13.09,-0.119,0.681,0.217
13.1,-0.296,1.144,-0.123
13.11,-0.313,0.868,-0.201
13.12,-0.094,1.106,0.145
13.13,-0.088,1.074,0.077
13.14,-0.17,0.619,0.007
13.15,-0.474,1.24,-0.152
13.16,0.0,0.922,-0.093
13.17,-0.223,1.143,0.054
13.18,-0.143,0.761,0.202
13.19,-0.294,1.072,-0.175
13.2,-0.302,0.944,-0.186
13.21,0.052,1.049,0.092
13.22,-0.118,1.065,0.108
13.23,-0.176,0.66,-0.011
13.24,-0.354,1.351,-0.128
13.25,-0.219,0.857,-0.034
13.26,-0.229,1.05,0.123
13.27,0.017,0.792,0.143
13.28,-0.551,0.995,-0.154
13.29,-0.212,1.02,-0.136
13.3,-0.044,1.014,0.083
13.31,-0.168,0.96,0.141
13.32,-0.133,0.657,0.016
13.33,-0.379,1.384,-0.175
13.34,-0.19,0.819,-0.008
13.35,-0.26,1.055,0.173
13.36,-0.102,0.849,0.113
13.37,-0.481,0.876,-0.223
13.38,-0.178,1.126,-0.051
13.39,-0.005,1.053,0.031
13.4,-0.186,0.924,0.096
13.41,-0.151,0.639,0.034
13.42,-0.307,1.36,-0.263
13.43,-0.151,0.866,-0.061
13.44,-0.14,1.001,0.197
13.45,-0.096,0.91,0.065
13.46,-0.52,0.856,-0.162
13.47,-0.234,1.224,-0.029
13.48,-0.029,0.897,0.047
13.49,-0.292,0.957,0.164
13.5,-0.111,0.779,-0.0
13.51,-0.363,1.26,-0.249
13.52,-0.164,0.849,-0.003
13.53,-0.057,0.99,0.153
13.54,-0.162,0.986,0.036
13.55,-0.471,0.773,-0.147
13.56,-0.187,1.303,0.008
13.57,-0.074,0.917,0.001
13.58,-0.212,0.883,0.16
13.59,-0.101,0.854,-0.009
13.6,-0.364,1.245,-0.244
13.61,-0.2,0.92,-0.009
13.62,0.0,0.937,0.217
13.63,-0.181,1.012,0.019
13.64,-0.442,0.729,-0.183
13.65,-0.124,1.307,-0.011
13.66,-0.166,0.844,0.064
13.67,-0.208,0.884,0.159
13.68,-0.159,0.941,-0.06
13.69,-0.415,1.052,-0.208
13.7,-0.147,0.989,0.036
13.71,0.038,0.924,0.137
13.72,-0.23,0.989,-0.001
13.73,-0.347,0.8,-0.133
13.74,-0.11,1.306,-0.079
13.75,-0.168,0.823,0.061
13.76,-0.163,0.929,0.202
13.77,-0.299,0.956,-0.105
13.78,-0.321,0.901,-0.157
13.79,-0.199,1.186,0.072
13.8,-0.052,0.774,0.125
13.81,-0.207,1.009,0.045
13.82,-0.299,0.916,-0.161
13.83,-0.17,1.188,-0.113
13.84,-0.139,0.811,0.096
13.85,-0.052,0.891,0.166
13.86,-0.408,1.018,-0.093
13.87,-0.343,0.818,-0.107
13.88,-0.067,1.261,0.046
13.89,-0.173,0.793,0.162
13.9,-0.184,1.027,0.055
13.91,-0.37,0.957,-0.186
13.92,-0.206,1.219,-0.029
13.93,-0.105,0.705,0.111
13.94,-0.129,1.001,0.148
13.95,-0.426,0.954,-0.147
13.96,-0.196,0.871,-0.145
13.97,-0.107,1.272,0.14
13.98,-0.18,0.69,0.147
13.99,-0.247,1.02,0.032
14.0,-0.409,0.932,-0.144
14.01,-0.179,1.169,-0.032
14.02,-0.12,0.742,0.111
14.03,-0.099,0.976,0.143
14.04,-0.338,1.038,-0.212
14.05,-0.282,0.835,-0.088
14.06,-0.071,1.267,0.055
14.07,-0.079,0.668,0.113
14.08,-0.26,1.055,0.016
14.09,-0.31,0.965,-0.199
14.1,-0.126,1.106,-0.051
14.11,-0.187,0.84,0.135
14.12,-0.07,0.868,0.107
14.13,-0.406,1.054,-0.166
14.14,-0.164,0.844,-0.073
14.15,-0.133,1.262,0.068
14.16,-0.092,0.612,0.146
14.17,-0.259,1.077,-0.035
14.18,-0.359,0.951,-0.191
14.19,-0.118,1.039,-0.025
14.2,-0.094,0.991,0.101
14.21,-0.192,0.784,0.098
14.22,-0.39,1.122,-0.195
14.23,-0.167,0.89,-0.088
14.24,-0.147,1.234,0.064
14.25,-0.134,0.626,0.194
14.26,-0.316,1.057,0.032
14.27,-0.308,1.006,-0.236
14.28,-0.146,0.938,0.005
14.29,-0.15,1.03,0.134
14.3,-0.102,0.716,0.093
14.31,-0.442,1.142,-0.164
14.32,-0.15,0.845,-0.082
14.33,-0.165,1.275,0.114
14.34,-0.159,0.665,0.155
14.35,-0.258,0.962,-0.002
14.36,-0.333,1.1,-0.186
14.37,-0.089,0.928,0.023
14.38,-0.185,1.087,0.134
14.39,-0.094,0.709,0.068
14.4,-0.424,1.169,-0.173
14.41,-0.201,0.838,-0.07
14.42,-0.101,1.216,0.072
14.43,-0.073,0.77,0.123
14.44,-0.278,0.916,-0.014
14.45,-0.389,1.15,-0.167
14.46,-0.06,0.906,0.004
14.47,-0.146,1.094,0.119
14.48,-0.113,0.704,0.092
14.49,-0.47,1.209,-0.164
14.5,-0.183,0.809,-0.077
14.51,-0.06,1.174,0.056
14.52,-0.089,0.798,0.139
14.53,-0.378,0.854,-0.004
14.54,-0.272,1.186,-0.218
14.55,-0.097,0.852,0.032
14.56,-0.25,1.168,0.211
14.57,-0.062,0.676,0.06
14.58,-0.459,1.178,-0.191
14.59,-0.164,0.957,-0.02
14.6,-0.071,1.083,0.069
14.61,-0.173,0.851,0.12
14.62,-0.285,0.805,-0.035
14.63,-0.32,1.238,-0.146
14.64,-0.125,0.847,0.049
14.65,-0.158,1.146,0.128
14.66,-0.074,0.664,0.034
14.67,-0.428,1.207,-0.199
14.68,-0.203,1.034,-0.04
14.69,-0.072,0.903,0.089
14.7,-0.145,0.861,0.131
14.71,-0.334,0.919,-0.142
14.72,-0.262,1.084,-0.149
14.73,-0.072,0.977,0.093
14.74,-0.211,1.075,0.129
14.75,-0.127,0.6,-0.01
14.76,-0.413,1.32,-0.14
14.77,-0.178,0.904,-0.039
14.78,-0.141,0.99,0.164
14.79,-0.132,0.88,0.138
14.8,-0.412,0.851,-0.14
14.81,-0.185,1.159,-0.134
14.82,-0.077,0.927,0.093
14.83,-0.172,1.048,0.194
14.84,-0.229,0.687,0.017
14.85,-0.315,1.249,-0.213
14.86,-0.128,0.94,-0.072
14.87,-0.145,0.91,0.165
14.88,-0.091,0.975,0.114
14.89,-0.37,0.784,-0.183
14.9,-0.217,1.169,-0.102
14.91,-0.043,0.915,0.079
14.92,-0.227,0.989,0.126
14.93,-0.175,0.755,0.032
14.94,-0.396,1.217,-0.206
14.95,-0.12,0.942,-0.036
14.96,-0.117,0.913,0.175
14.97,-0.158,1.036,0.08
14.98,-0.328,0.745,-0.222
14.99,-0.212,1.251,-0.063
15.0,-0.061,0.91,0.065
15.01,-0.16,0.948,0.155
15.02,-0.238,0.814,0.014
15.03,-0.312,1.125,-0.246
15.04,-0.079,0.997,-0.075
15.05,-0.08,0.855,0.207
15.06,-0.199,1.027,0.098
15.07,-0.414,0.766,-0.169
15.08,-0.231,1.257,-0.073
15.09,-0.009,0.852,0.032
15.1,-0.218,0.94,0.159
15.11,-0.264,0.879,-0.047
15.12,-0.351,0.955,-0.165
15.13,-0.117,1.154,0.026
15.14,-0.137,0.837,0.179
15.15,-0.15,1.034,0.065
15.16,-0.382,0.787,-0.189
15.17,-0.213,1.233,-0.027
15.18,-0.076,0.899,0.118
15.19,-0.072,0.852,0.119
15.2,-0.305,0.952,-0.06
15.21,-0.352,0.948,-0.206
15.22,-0.048,1.191,-0.006
15.23,-0.231,0.843,0.208
15.24,-0.172,0.981,0.081
15.25,-0.276,0.865,-0.191
15.26,-0.192,1.226,-0.015
15.27,-0.156,0.865,0.093
15.28,-0.058,0.812,0.134
15.29,-0.349,1.099,-0.059
15.3,-0.354,0.839,-0.203
15.31,-0.126,1.193,0.022
15.32,-0.111,0.787,0.143
15.33,-0.257,0.992,0.077
15.34,-0.303,0.9,-0.212
15.35,-0.103,1.102,-0.118
15.36,-0.14,0.92,0.107
15.37,-0.089,0.768,0.153
15.38,-0.288,1.164,-0.105
15.39,-0.317,0.773,-0.164
15.4,-0.199,1.281,0.131
15.41,-0.027,0.795,0.09
15.42,-0.243,0.949,-0.0
15.43,-0.34,0.992,-0.14
15.44,-0.111,1.082,-0.1
15.45,-0.162,0.968,0.079
15.46,-0.131,0.759,0.191
15.47,-0.285,1.166,-0.155
15.48,-0.342,0.764,-0.141
15.49,-0.127,1.311,0.089
15.5,-0.079,0.785,0.1
15.51,-0.271,0.89,0.043
15.52,-0.357,0.961,-0.163
15.53,-0.157,1.053,-0.074
15.54,-0.193,0.865,0.143
15.55,-0.094,0.833,0.174
15.56,-0.361,1.076,-0.19
15.57,-0.239,0.755,-0.131
15.58,-0.023,1.332,0.107
15.59,-0.136,0.673,0.131
15.6,-0.291,0.984,0.046
15.61,-0.287,1.078,-0.187
15.62,-0.177,1.005,-0.049
15.63,-0.171,0.933,0.133
15.64,-0.153,0.81,0.196
15.65,-0.43,1.104,-0.179
15.66,-0.262,0.771,-0.069
15.67,-0.068,1.322,0.106
15.68,-0.069,0.72,0.11
15.69,-0.304,0.927,0.033
15.7,-0.378,1.045,-0.154
15.71,-0.128,0.984,-0.033
15.72,-0.186,1.011,0.096
15.73,-0.136,0.73,0.182
15.74,-0.408,1.185,-0.157
15.75,-0.23,0.793,-0.148
15.76,-0.083,1.264,0.066
15.77,-0.053,0.749,0.128
15.78,-0.327,0.921,0.028
15.79,-0.349,1.138,-0.179
15.8,-0.053,0.916,-0.034
15.81,-0.208,1.095,0.128
15.82,-0.121,0.668,0.163
15.83,-0.409,1.169,-0.156
15.84,-0.213,0.845,-0.15
15.85,-0.13,1.191,0.086
15.86,-0.066,0.762,0.131
15.87,-0.324,0.869,-0.012
15.88,-0.332,1.192,-0.184
15.89,-0.022,0.856,-0.052
15.9,-0.242,1.108,0.151
15.91,-0.092,0.711,0.164
15.92,-0.403,1.152,-0.184
15.93,-0.254,0.825,-0.141
15.94,-0.094,1.206,0.085
15.95,-0.08,0.873,0.104
15.96,-0.258,0.747,0.003
15.97,-0.408,1.289,-0.15
15.98,0.004,0.871,-0.037
15.99,-0.182,1.168,0.133
16.0,-0.1,0.707,0.145
16.01,-0.399,1.14,-0.17
16.02,-0.24,0.934,-0.157
16.03,-0.136,1.07,0.116
16.04,-0.091,0.945,0.132
16.05,-0.263,0.701,-0.011
16.06,-0.415,1.277,-0.165
16.07,-0.028,0.833,-0.005
16.08,-0.187,1.099,0.104
16.09,-0.124,0.742,0.167
16.1,-0.404,1.11,-0.18
16.11,-0.273,0.988,-0.147
16.12,-0.12,0.995,0.12
16.13,-0.093,1.018,0.137
16.14,-0.25,0.672,-0.049
16.15,-0.41,1.277,-0.121
16.16,-0.12,0.869,0.04
16.17,-0.277,1.068,0.155
16.18,0.017,0.795,0.098
16.19,-0.405,1.042,-0.207
16.2,-0.252,1.053,-0.083
16.21,-0.017,0.965,0.036
16.22,-0.098,0.99,0.145
16.23,-0.221,0.687,-0.043
16.24,-0.344,1.316,-0.185
16.25,-0.106,0.835,-0.017
16.26,-0.191,1.054,0.118
16.27,-0.08,0.848,0.107
16.28,-0.432,0.979,-0.156
16.29,-0.227,1.13,-0.106
16.3,-0.049,0.937,0.044
16.31,-0.125,0.987,0.142
16.32,-0.308,0.698,-0.042
16.33,-0.201,1.274,-0.202
16.34,-0.135,0.86,0.001
16.35,-0.201,1.067,0.181
16.36,-0.027,0.736,0.059
16.37,-0.496,1.058,-0.175
16.38,-0.198,1.044,-0.054
16.39,-0.027,0.961,0.042
16.4,-0.183,0.971,0.122
16.41,-0.29,0.743,-0.009
16.42,-0.348,1.306,-0.153
16.43,-0.163,0.851,-0.003
16.44,-0.135,1.029,0.141
16.45,-0.067,0.788,0.061
16.46,-0.515,1.022,-0.181
16.47,-0.179,1.152,-0.015
16.48,-0.105,0.861,0.069
16.49,-0.232,1.005,0.169
16.5,-0.189,0.771,-0.083
16.51,-0.357,1.21,-0.184
16.52,-0.208,0.894,0.083
16.53,-0.07,1.022,0.161
16.54,-0.092,0.849,0.062
16.55,-0.465,0.921,-0.18
16.56,-0.161,1.189,-0.018
16.57,-0.092,0.834,0.094
16.58,-0.27,1.018,0.153
16.59,-0.228,0.782,-0.032
16.6,-0.372,1.161,-0.153
16.61,-0.139,0.948,0.056
16.62,-0.148,0.973,0.164
16.63,-0.087,0.895,0.045
16.64,-0.442,0.91,-0.152
16.65,-0.208,1.251,-0.049
16.66,-0.097,0.786,0.089
16.67,-0.195,0.982,0.184
16.68,-0.284,0.803,-0.052
16.69,-0.25,1.13,-0.203
16.7,-0.154,1.021,0.028
16.71,-0.15,0.899,0.182
16.72,-0.087,1.007,-0.001
16.73,-0.41,0.83,-0.232
16.74,-0.183,1.231,0.023
16.75,-0.075,0.861,0.097
16.76,-0.231,0.933,0.165
16.77,-0.287,0.888,-0.049
16.78,-0.236,1.066,-0.168
16.79,-0.201,1.071,-0.001
16.8,-0.026,0.837,0.154
16.81,-0.174,1.02,0.019
16.82,-0.401,0.822,-0.164
16.83,-0.133,1.258,-0.016
16.84,-0.095,0.818,0.041
16.85,-0.169,0.891,0.174
16.86,-0.294,0.984,-0.072
16.87,-0.24,0.96,-0.166
16.88,-0.193,1.131,0.02
16.89,-0.071,0.799,0.144
16.9,-0.2,1.01,-0.01
16.91,-0.398,0.811,-0.192
16.92,-0.139,1.206,-0.024
16.93,-0.097,0.852,0.069
16.94,-0.198,0.869,0.18
16.95,-0.264,1.034,-0.125
16.96,-0.22,0.892,-0.146
16.97,-0.218,1.218,0.081
16.98,-0.06,0.769,0.165
16.99,-0.271,1.07,0.025
17.0,-0.433,0.854,-0.132
17.01,-0.068,1.184,-0.074
17.02,-0.156,0.852,0.077
17.03,-0.157,0.811,0.197
17.04,-0.289,1.102,-0.156
17.05,-0.308,0.819,-0.133
17.06,-0.119,1.287,0.055
17.07,-0.071,0.732,0.14
17.08,-0.229,0.999,-0.008
17.09,-0.431,0.966,-0.11
17.1,-0.11,1.066,-0.063
17.11,-0.217,0.918,0.104
17.12,-0.087,0.775,0.191
17.13,-0.36,1.153,-0.17
17.14,-0.259,0.774,-0.146
17.15,-0.051,1.275,0.042
17.16,-0.05,0.641,0.084
17.17,-0.365,1.093,0.071
17.18,-0.288,0.882,-0.23
17.19,-0.123,1.093,-0.031
17.2,-0.191,0.859,0.181
17.21,-0.01,0.882,0.089
17.22,-0.427,1.082,-0.186
17.23,-0.171,0.862,-0.036
17.24,-0.133,1.285,0.063
17.25,-0.162,0.587,0.155
17.26,-0.313,1.118,0.032
17.27,-0.236,0.948,-0.3
17.28,-0.226,0.993,0.005
17.29,-0.212,0.943,0.197
17.3,-0.046,0.793,0.075
17.31,-0.431,1.094,-0.194
17.32,-0.186,0.884,0.014
17.33,-0.145,1.253,0.008
17.34,-0.126,0.55,0.216
17.35,-0.291,1.103,0.033
17.36,-0.353,0.992,-0.245
17.37,-0.137,0.927,-0.013
17.38,-0.176,1.03,0.151
17.39,-0.073,0.772,0.116
17.4,-0.464,1.121,-0.202
17.41,-0.197,0.813,-0.053
17.42,-0.08,1.343,0.028
17.43,-0.109,0.63,0.132
17.44,-0.275,0.983,0.019
17.45,-0.333,1.063,-0.242
17.46,-0.096,0.909,-0.036
17.47,-0.214,1.081,0.179
17.48,-0.093,0.662,0.082
17.49,-0.454,1.181,-0.177
17.5,-0.229,0.87,-0.087
17.51,-0.14,1.264,0.07
17.52,-0.143,0.712,0.158
17.53,-0.292,0.958,0.027
17.54,-0.413,1.111,-0.192
17.55,-0.093,0.873,-0.022
17.56,-0.131,1.144,0.13
17.57,-0.127,0.667,0.085
17.58,-0.415,1.18,-0.141
17.59,-0.226,0.928,-0.027
17.6,-0.145,1.143,0.048
17.61,-0.06,0.749,0.185
17.62,-0.316,0.928,0.029
17.63,-0.406,1.174,-0.212
17.64,-0.116,0.783,-0.014
17.65,-0.079,1.183,0.133
17.66,-0.139,0.695,0.098
17.67,-0.43,1.108,-0.164
17.68,-0.118,0.949,-0.037
17.69,-0.207,1.171,0.088
17.7,-0.16,0.809,0.161
17.71,-0.191,0.869,-0.015
17.72,-0.449,1.209,-0.18
17.73,-0.096,0.751,0.029
17.74,-0.046,1.3,0.096
17.75,-0.193,0.627,0.07
17.76,-0.441,1.06,-0.09
17.77,-0.012,1.082,-0.089
17.78,-0.268,1.023,0.086
17.79,-0.036,0.876,0.171
17.8,-0.29,0.801,-0.022
17.81,-0.422,1.214,-0.216
17.82,-0.102,0.781,0.039
17.83,-0.168,1.214,0.144
17.84,-0.149,0.732,0.088
17.85,-0.404,0.987,-0.181
17.86,-0.111,1.065,-0.072
17.87,-0.121,1.065,0.012
17.88,-0.128,0.894,0.143
17.89,-0.177,0.714,0.014
17.9,-0.379,1.347,-0.23
17.91,-0.111,0.774,0.013
17.92,-0.155,1.17,0.155
17.93,-0.161,0.772,0.1
17.94,-0.445,0.962,-0.181
17.95,-0.106,1.156,-0.054
17.96,-0.131,1.043,0.042
17.97,-0.138,0.833,0.151
17.98,-0.172,0.83,-0.058
17.99,-0.438,1.232,-0.203
18.0,-0.136,0.784,0.035
18.01,-0.083,1.232,0.073
18.02,-0.185,0.673,0.061
18.03,-0.463,1.062,-0.137
18.04,-0.042,1.094,-0.153
18.05,-0.163,0.914,0.093
18.06,-0.188,0.917,0.199
18.07,-0.159,0.771,-0.103
18.08,-0.408,1.232,-0.161
18.09,-0.17,0.852,0.073
18.1,-0.121,1.182,0.122
18.11,-0.145,0.683,0.049
18.12,-0.438,1.042,-0.108
18.13,-0.051,1.152,-0.178
18.14,-0.158,0.85,0.092
18.15,-0.12,0.965,0.186
18.16,-0.239,0.769,-0.097
18.17,-0.421,1.222,-0.184
18.18,-0.076,0.847,0.009
18.19,-0.167,1.131,0.148
18.2,-0.1,0.814,0.072
18.21,-0.418,0.935,-0.154
18.22,-0.15,1.193,-0.061
18.23,-0.118,0.885,0.076
18.24,-0.143,0.97,0.155
18.25,-0.216,0.778,-0.057
18.26,-0.34,1.311,-0.242
18.27,-0.09,0.822,-0.014
18.28,-0.116,1.047,0.187
18.29,-0.158,0.88,0.074
18.3,-0.432,0.868,-0.157
18.31,-0.075,1.225,-0.061
18.32,-0.172,0.88,0.069
18.33,-0.213,0.955,0.145
18.34,-0.179,0.824,-0.021
18.35,-0.372,1.219,-0.192
18.36,-0.208,0.902,0.061
18.37,-0.02,1.02,0.113
18.38,-0.167,0.939,0.053
18.39,-0.478,0.823,-0.121
18.4,-0.053,1.271,-0.117
18.41,-0.11,0.801,0.058
18.42,-0.201,1.018,0.188
18.43,-0.221,0.813,-0.077
18.44,-0.337,1.085,-0.216
18.45,-0.148,0.992,0.02
18.46,-0.094,0.958,0.177
18.47,-0.117,0.981,0.043
18.48,-0.444,0.818,-0.15
18.49,-0.083,1.234,-0.116
18.5,-0.167,0.885,0.091
18.51,-0.207,0.913,0.191
18.52,-0.257,0.883,-0.043
18.53,-0.328,1.07,-0.194
18.54,-0.146,1.022,-0.074
18.55,-0.048,0.832,0.18
18.56,-0.134,1.061,0.043
18.57,-0.462,0.742,-0.171
18.58,-0.143,1.269,-0.042
18.59,-0.096,0.95,0.026
18.6,-0.259,0.833,0.191
18.61,-0.192,0.939,-0.032
18.62,-0.344,1.042,-0.186
18.63,-0.15,1.111,-0.0
18.64,-0.02,0.845,0.171
18.65,-0.168,1.029,0.045
18.66,-0.414,0.785,-0.134
18.67,-0.115,1.233,-0.056
18.68,-0.131,0.906,0.023
18.69,-0.198,0.779,0.2
18.7,-0.187,1.057,-0.005
18.71,-0.382,0.955,-0.15
18.72,-0.225,1.124,-0.003
18.73,0.046,0.804,0.118
18.74,-0.143,1.064,0.028
18.75,-0.362,0.802,-0.162
18.76,-0.126,1.164,-0.07
18.77,-0.128,0.979,0.04
18.78,-0.169,0.88,0.192
18.79,-0.265,0.971,-0.066
18.8,-0.35,0.958,-0.162
18.81,-0.244,1.109,0.056
18.82,0.003,0.822,0.143
18.83,-0.174,1.04,0.035
18.84,-0.399,0.811,-0.145
18.85,-0.109,1.229,-0.053
18.86,-0.119,0.863,0.047
18.87,-0.084,0.838,0.154
18.88,-0.302,1.007,-0.073
18.89,-0.428,0.89,-0.14
18.9,-0.187,1.16,0.02
18.91,-0.016,0.829,0.144
18.92,-0.127,1.115,-0.097
18.93,-0.134,0.976,0.064
18.94,-0.149,0.891,0.177
18.95,-0.303,0.872,-0.082
18.96,-0.343,1.155,-0.16
18.97,-0.202,0.85,0.105
18.98,-0.088,1.173,0.113
18.99,-0.098,0.689,0.051
19.0,-0.403,1.107,-0.15
19.01,-0.105,1.063,-0.126
19.02,-0.16,0.948,0.028
19.03,-0.105,0.94,0.158
19.04,-0.275,0.812,-0.099
19.05,-0.373,1.215,-0.177
19.06,-0.155,0.85,0.067
19.07,-0.087,1.179,0.133
19.08,-0.21,0.693,0.1
19.09,-0.389,1.031,-0.11
19.1,-0.121,1.139,-0.113
19.11,-0.131,0.912,0.077
19.12,-0.216,0.964,0.182
19.13,-0.206,0.781,-0.084
19.14,-0.492,1.254,-0.162
19.15,-0.157,0.795,0.035
19.16,-0.066,1.174,0.151
19.17,-0.147,0.765,0.066
19.18,-0.417,0.935,-0.162
19.19,-0.084,1.185,-0.074
19.2,-0.167,0.863,0.049
19.21,-0.165,0.923,0.18
19.22,-0.197,0.791,-0.05
19.23,-0.36,1.282,-0.211
19.24,-0.271,0.796,0.033
19.25,-0.053,1.102,0.164
19.26,-0.126,0.867,0.015
19.27,-0.477,0.836,-0.109
19.28,-0.08,1.25,-0.054
19.29,-0.073,0.902,0.015
19.3,-0.182,0.91,0.159
19.31,-0.149,0.826,0.002
19.32,-0.401,1.262,-0.22
19.33,-0.179,0.834,-0.032
19.34,-0.088,0.989,0.181
19.35,-0.137,0.943,0.048
19.36,-0.493,0.805,-0.174
19.37,-0.113,1.216,-0.098
19.38,-0.015,0.959,0.043
19.39,-0.165,0.932,0.171
19.4,-0.249,0.773,0.001
19.41,-0.291,1.236,-0.177
19.42,-0.164,0.956,-0.033
19.43,-0.121,0.886,0.154
19.44,-0.122,1.04,0.092
19.45,-0.45,0.787,-0.213
19.46,-0.182,1.134,-0.072
19.47,-0.041,0.997,0.097
19.48,-0.155,0.918,0.123
19.49,-0.274,0.802,0.018
19.5,-0.262,1.146,-0.181
19.51,-0.098,1.046,-0.049
19.52,-0.208,0.807,0.192
19.53,-0.131,0.917,0.038
19.54,-0.436,0.844,-0.195
19.55,-0.201,1.208,-0.04
19.56,-0.049,0.889,0.067
19.57,-0.176,0.971,0.145
19.58,-0.259,0.778,-0.028
19.59,-0.253,1.17,-0.215
19.6,-0.121,0.956,-0.023
19.61,-0.146,0.885,0.205
19.62,-0.188,0.994,0.037
19.63,-0.45,0.82,-0.163
19.64,-0.203,1.247,-0.025
19.65,-0.166,0.817,0.108
19.66,-0.189,0.958,0.122
19.67,-0.214,0.86,-0.076
19.68,-0.309,1.064,-0.189
19.69,-0.037,1.052,-0.021
19.7,-0.106,0.862,0.158
19.71,-0.164,0.996,0.049
19.72,-0.371,0.855,-0.192
19.73,-0.195,1.298,-0.057
19.74,-0.126,0.818,0.078
19.75,-0.188,0.928,0.164
19.76,-0.205,0.952,-0.066
19.77,-0.311,1.043,-0.191
19.78,-0.108,1.098,-0.016
19.79,-0.062,0.841,0.16
19.8,-0.176,1.005,0.064
19.81,-0.377,0.823,-0.192
19.82,-0.178,1.266,-0.047
19.83,-0.094,0.823,0.056
19.84,-0.166,0.877,0.189
19.85,-0.295,0.991,-0.05
19.86,-0.346,0.911,-0.163
19.87,-0.082,1.116,0.042
19.88,-0.04,0.819,0.127
19.89,-0.218,1.057,0.021
19.9,-0.338,0.828,-0.164
19.91,-0.149,1.213,-0.061
19.92,-0.188,0.875,0.096
19.93,-0.121,0.808,0.182
19.94,-0.277,1.089,-0.106
19.95,-0.371,0.876,-0.146
19.96,-0.091,1.149,0.051
19.97,-0.07,0.76,0.135
19.98,-0.229,1.023,0.038
19.99,-0.38,0.88,-0.164
20.0,-0.13,1.145,-0.098
20.01,-0.143,0.9,0.08
20.02,-0.142,0.794,0.207
20.03,-0.273,1.126,-0.122
20.04,-0.399,0.826,-0.103
20.05,-0.171,1.22,0.104
20.06,-0.065,0.8,0.123
20.07,-0.231,0.977,-0.015
20.08,-0.36,0.955,-0.163
20.09,-0.095,1.065,-0.112
20.1,-0.185,0.979,0.084
20.11,-0.124,0.728,0.183
20.12,-0.422,1.181,-0.099
20.13,-0.249,0.793,-0.174
20.14,-0.08,1.29,0.048
20.15,-0.074,0.707,0.158
20.16,-0.284,0.957,0.052
20.17,-0.365,1.057,-0.205
20.18,-0.085,0.931,-0.08
20.19,-0.127,1.039,0.105
20.2,-0.129,0.703,0.198
20.21,-0.404,1.157,-0.149
20.22,-0.193,0.797,-0.16
20.23,-0.094,1.3,0.08
20.24,-0.069,0.775,0.148
20.25,-0.227,0.893,0.033
20.26,-0.407,1.153,-0.183
20.27,-0.162,0.898,0.007
20.28,-0.188,1.09,0.133
20.29,-0.105,0.705,0.154
20.3,-0.418,1.177,-0.168
20.31,-0.239,0.844,-0.12
20.32,-0.131,1.228,0.101
20.33,-0.146,0.807,0.127
20.34,-0.251,1.023,0.033
20.35,-0.284,1.079,-0.24
20.36,-0.153,0.901,-0.038
20.37,-0.157,1.029,0.188
20.38,-0.077,0.772,0.085
20.39,-0.486,1.16,-0.172
20.4,-0.185,0.829,-0.017
20.41,-0.177,1.314,0.05
20.42,-0.07,0.636,0.107
20.43,-0.284,0.983,0.074
20.44,-0.281,1.135,-0.266
20.45,-0.168,0.857,-0.014
20.46,-0.171,1.123,0.176
20.47,-0.122,0.668,0.077
20.48,-0.449,1.175,-0.164
20.49,-0.174,0.933,-0.027
20.5,-0.235,1.167,0.06
20.51,-0.114,0.729,0.167
20.52,-0.193,0.969,-0.046
20.53,-0.382,1.081,-0.209
20.54,-0.043,0.799,0.011
20.55,-0.135,1.229,0.162
20.56,-0.176,0.682,0.102
20.57,-0.421,1.129,-0.155
20.58,-0.209,0.993,-0.044
20.59,-0.165,1.123,0.033
20.6,-0.114,0.792,0.163
20.61,-0.3,0.861,-0.04
20.62,-0.405,1.213,-0.187
20.63,-0.04,0.827,0.02
20.64,-0.178,1.199,0.132
20.65,-0.145,0.636,0.121
20.66,-0.413,1.145,-0.18
20.67,-0.185,0.978,-0.053
20.68,-0.144,1.053,0.059
20.69,-0.096,0.88,0.123
20.7,-0.337,0.766,-0.033
20.71,-0.331,1.246,-0.211
20.72,0.009,0.863,-0.017
20.73,-0.299,1.141,0.185
20.74,-0.064,0.669,0.098
20.75,-0.384,1.135,-0.2
20.76,-0.281,0.983,-0.017
20.77,-0.087,0.957,0.101
20.78,-0.042,0.991,0.075
20.79,-0.292,0.755,-0.013
20.8,-0.407,1.241,-0.145
20.81,-0.104,0.857,0.009
20.82,-0.182,1.127,0.203
20.83,-0.16,0.723,0.087
20.84,-0.417,1.062,-0.175
20.85,-0.156,1.136,-0.056
20.86,-0.095,0.856,0.053
20.87,-0.137,1.007,0.15
20.88,-0.231,0.764,-0.075
20.89,-0.403,1.191,-0.15
20.9,-0.098,0.887,0.058
20.91,-0.103,1.091,0.149
20.92,-0.17,0.79,0.058
20.93,-0.421,1.042,-0.177
20.94,-0.131,1.153,-0.086
20.95,-0.109,0.803,0.073
20.96,-0.158,1.041,0.132
20.97,-0.231,0.753,-0.048
20.98,-0.412,1.189,-0.13
20.99,-0.122,0.91,0.018
21.0,-0.105,1.008,0.186
21.01,-0.174,0.876,0.078
21.02,-0.411,0.952,-0.193
21.03,-0.146,1.234,-0.048
21.04,-0.084,0.79,0.048
21.05,-0.209,1.048,0.178
21.06,-0.25,0.807,-0.093
21.07,-0.326,1.121,-0.161
21.08,-0.132,0.989,0.047
21.09,-0.077,0.918,0.14
21.1,-0.18,0.921,0.071
21.11,-0.337,0.905,-0.214
21.12,-0.202,1.208,-0.029
21.13,-0.134,0.779,0.125
21.14,-0.181,1.002,0.163
21.15,-0.283,0.798,-0.13
21.16,-0.307,1.192,-0.128
21.17,-0.161,0.893,0.086
21.18,-0.077,0.986,0.136
21.19,-0.165,0.882,0.016
21.2,-0.415,0.955,-0.164
21.21,-0.137,1.208,-0.064
21.22,-0.138,0.768,0.1
21.23,-0.221,1.017,0.138
21.24,-0.245,0.803,-0.118
21.25,-0.28,1.188,-0.125
21.26,-0.182,0.959,0.065
21.27,-0.086,0.871,0.158
21.28,-0.144,0.967,0.032
21.29,-0.469,0.951,-0.208
21.3,-0.13,1.146,-0.059
21.31,-0.074,0.798,0.091
21.32,-0.215,1.024,0.148
21.33,-0.289,0.8,-0.066
21.34,-0.246,1.116,-0.176
21.35,-0.179,0.982,0.022
21.36,-0.054,0.843,0.168
21.37,-0.168,1.008,0.009
21.38,-0.45,0.879,-0.187
21.39,-0.136,1.25,-0.022
21.4,-0.128,0.81,0.085
21.41,-0.154,0.956,0.134
21.42,-0.267,0.896,-0.12
21.43,-0.244,1.031,-0.127
21.44,-0.114,1.109,0.042
21.45,-0.056,0.787,0.162
21.46,-0.2,1.031,0.013
21.47,-0.404,0.877,-0.16
21.48,-0.173,1.228,-0.076
21.49,-0.105,0.789,0.104
21.5,-0.211,0.956,0.183
21.51,-0.302,0.94,-0.12
21.52,-0.22,0.94,-0.146
21.53,-0.175,1.185,0.115
21.54,-0.02,0.732,0.153
21.55,-0.217,1.064,-0.023
21.56,-0.394,0.881,-0.166
21.57,-0.192,1.178,-0.034
21.58,-0.135,0.852,0.07
21.59,-0.15,0.882,0.178
21.6,-0.313,1.03,-0.14
21.61,-0.222,0.894,-0.128
21.62,-0.2,1.258,0.069
21.63,-0.077,0.7,0.174
21.64,-0.179,1.065,0.03
21.65,-0.381,0.916,-0.201
21.66,-0.183,1.112,-0.037
21.67,-0.12,0.849,0.104
21.68,-0.193,0.866,0.185
21.69,-0.369,1.114,-0.091
21.7,-0.212,0.817,-0.179
21.71,-0.136,1.269,0.009
21.72,-0.077,0.672,0.154
21.73,-0.145,1.066,0.052
21.74,-0.401,0.9,-0.267
21.75,-0.105,1.019,-0.043
21.76,-0.095,0.999,0.107
21.77,-0.196,0.733,0.122
21.78,-0.343,1.162,-0.07
21.79,-0.218,0.848,-0.183
21.8,-0.208,1.19,0.032
21.81,-0.036,0.726,0.162
21.82,-0.23,1.008,0.028
21.83,-0.401,0.935,-0.236
21.84,-0.022,1.027,-0.033
21.85,-0.195,1.089,0.095
21.86,-0.117,0.658,0.134
21.87,-0.333,1.198,-0.09
21.88,-0.252,0.85,-0.133
21.89,-0.17,1.219,0.049
21.9,-0.099,0.796,0.151
21.91,-0.218,0.911,-0.013
21.92,-0.433,1.02,-0.161
21.93,-0.075,0.985,-0.038
21.94,-0.174,1.086,0.083
21.95,-0.092,0.645,0.191
21.96,-0.394,1.238,-0.063
21.97,-0.26,0.793,-0.129
21.98,-0.192,1.245,0.099
21.99,-0.051,0.754,0.137
22.0,-0.291,0.981,-0.037
22.01,-0.417,0.93,-0.118
22.02,-0.119,1.086,-0.056
22.03,-0.155,0.937,0.063
22.04,-0.068,0.716,0.148
22.05,-0.347,1.211,-0.174
22.06,-0.273,0.75,-0.109
22.07,-0.082,1.269,0.059
22.08,0.011,0.738,0.106
22.09,-0.346,0.983,0.035
22.1,-0.396,1.048,-0.172
22.11,-0.102,0.962,-0.05
22.12,-0.238,1.083,0.132
22.13,-0.024,0.691,0.151
22.14,-0.443,1.182,-0.167
22.15,-0.27,0.788,-0.077
22.16,-0.083,1.297,0.037
22.17,-0.096,0.797,0.163
22.18,-0.293,0.867,0.022
22.19,-0.412,1.121,-0.187
22.2,-0.042,0.931,-0.016
22.21,-0.248,1.092,0.117
22.22,-0.131,0.663,0.204
22.23,-0.405,1.184,-0.15
22.24,-0.208,0.786,-0.137
22.25,-0.11,1.218,0.104
22.26,-0.035,0.844,0.103
22.27,-0.269,0.787,-0.015
22.28,-0.391,1.187,-0.152
22.29,-0.081,0.866,-0.025
22.3,-0.284,1.174,0.129
22.31,-0.086,0.662,0.14
22.32,-0.419,1.133,-0.154
22.33,-0.211,0.881,-0.119
22.34,-0.114,1.138,0.041
22.35,-0.059,0.881,0.111
22.36,-0.278,0.74,-0.009
22.37,-0.405,1.229,-0.141
22.38,-0.082,0.85,-0.061
22.39,-0.219,1.102,0.151
22.4,-0.138,0.705,0.158
22.41,-0.378,1.095,-0.167
22.42,-0.276,0.929,-0.149
22.43,-0.117,1.099,0.081
22.44,-0.053,1.027,0.098
22.45,-0.296,0.683,0.04
22.46,-0.411,1.257,-0.155
22.47,0.001,0.908,-0.072
22.48,-0.207,1.086,0.093
22.49,-0.126,0.744,0.197
22.5,-0.346,1.092,-0.158
22.51,-0.31,0.975,-0.151
22.52,-0.078,0.962,0.172
22.53,-0.156,1.067,0.103
22.54,-0.285,0.636,-0.012
22.55,-0.302,1.303,-0.149
22.56,-0.14,0.913,0.006
22.57,-0.198,1.024,0.091
22.58,0.01,0.854,0.162
22.59,-0.419,1.021,-0.186
22.6,-0.305,1.027,-0.107
22.61,0.004,1.007,0.098
22.62,-0.173,1.035,0.109
22.63,-0.267,0.635,0.008
22.64,-0.291,1.353,-0.195
22.65,-0.153,0.866,0.005
22.66,-0.156,0.994,0.137
22.67,-0.001,0.903,0.12
22.68,-0.492,0.901,-0.178
22.69,-0.248,1.117,-0.039
22.7,-0.027,0.952,0.079
22.71,-0.275,1.014,0.133
22.72,-0.217,0.676,-0.02
22.73,-0.296,1.274,-0.188
22.74,-0.117,0.915,0.0
22.75,-0.206,0.949,0.158
22.76,-0.083,0.953,0.076
22.77,-0.447,0.815,-0.149
22.78,-0.212,1.129,-0.052
22.79,-0.029,0.902,0.061
22.8,-0.217,1.006,0.149
22.81,-0.223,0.743,-0.044
22.82,-0.377,1.25,-0.206
22.83,-0.209,0.833,0.074
22.84,-0.02,1.095,0.151
22.85,-0.181,0.809,0.034
22.86,-0.408,0.926,-0.123
22.87,-0.061,1.242,-0.091
22.88,-0.089,0.779,0.082
22.89,-0.156,1.024,0.176
22.9,-0.234,0.801,-0.09
22.91,-0.432,1.144,-0.186
22.92,-0.081,0.904,0.087
22.93,-0.077,1.079,0.111
22.94,-0.171,0.828,0.054
22.95,-0.447,0.913,-0.101
22.96,-0.15,1.293,-0.078
22.97,-0.155,0.758,0.079
22.98,-0.121,1.013,0.182
22.99,-0.209,0.794,-0.127
23.0,-0.319,1.102,-0.174
23.01,-0.207,0.986,0.096
23.02,-0.074,0.95,0.134
23.03,-0.199,0.914,0.038
23.04,-0.419,0.842,-0.143
23.05,-0.12,1.24,-0.084
23.06,-0.066,0.769,0.034
23.07,-0.204,1.01,0.178
23.08,-0.234,0.841,-0.097
23.09,-0.359,1.071,-0.164
23.1,-0.191,1.044,0.103
23.11,-0.012,0.871,0.127
23.12,-0.249,0.959,0.018
23.13,-0.377,0.869,-0.152
23.14,-0.185,1.268,-0.061
23.15,-0.089,0.71,0.049
23.16,-0.193,0.979,0.216
23.17,-0.268,0.947,-0.152
23.18,-0.305,0.917,-0.14
23.19,-0.158,1.154,0.102
23.2,-0.034,0.812,0.12
23.21,-0.264,1.027,0.026
23.22,-0.353,0.918,-0.121
23.23,-0.203,1.26,-0.046
23.24,-0.185,0.743,0.098
23.25,-0.1,0.948,0.166
23.26,-0.356,0.981,-0.156
23.27,-0.248,0.864,-0.17
23.28,-0.048,1.263,0.063
23.29,-0.068,0.721,0.102
23.3,-0.304,1.062,0.077
23.31,-0.285,0.893,-0.19
23.32,-0.164,1.167,-0.04
23.33,-0.218,0.816,0.124
23.34,-0.04,0.887,0.148
23.35,-0.35,1.026,-0.177
23.36,-0.311,0.833,-0.07
23.37,0.047,1.27,0.032
23.38,-0.12,0.695,0.103
23.39,-0.303,1.064,0.033
23.4,-0.277,0.942,-0.219
23.41,-0.156,1.096,-0.043
23.42,-0.213,0.894,0.129
23.43,-0.047,0.831,0.131
23.44,-0.416,1.066,-0.184
23.45,-0.294,0.76,-0.05
23.46,-0.011,1.387,0.026
23.47,-0.107,0.644,0.128
23.48,-0.298,1.022,0.068
23.49,-0.25,1.011,-0.216
23.5,-0.187,0.981,-0.05
23.51,-0.199,0.937,0.146
23.52,-0.036,0.785,0.122
23.53,-0.412,1.17,-0.198
23.54,-0.248,0.781,-0.051
23.55,-0.088,1.365,0.053
23.56,-0.143,0.625,0.167
23.57,-0.298,0.984,0.045
23.58,-0.273,1.108,-0.227
23.59,-0.11,0.92,-0.06
23.6,-0.076,0.956,0.15
23.61,-0.104,0.824,0.105
23.62,-0.435,1.09,-0.162
23.63,-0.227,0.853,-0.011
23.64,-0.122,1.29,0.062
23.65,-0.121,0.63,0.15
23.66,-0.34,1.105,-0.013
23.67,-0.336,0.968,-0.233
23.68,-0.095,0.999,-0.02
23.69,-0.198,0.996,0.18
23.7,-0.052,0.733,0.072
23.71,-0.443,1.179,-0.196
23.72,-0.156,0.824,-0.022
23.73,-0.164,1.245,0.084
23.74,-0.135,0.651,0.166
23.75,-0.251,1.055,-0.03
23.76,-0.391,0.963,-0.202
23.77,-0.098,0.955,-0.004
23.78,-0.109,1.141,0.146
23.79,-0.141,0.693,0.104
23.8,-0.438,1.169,-0.164
23.81,-0.162,0.872,-0.01
23.82,-0.218,1.187,0.057
23.83,-0.098,0.678,0.153
23.84,-0.274,1.031,-0.085
23.85,-0.372,1.026,-0.176
23.86,-0.103,0.896,0.016
23.87,-0.096,1.154,0.142
23.88,-0.129,0.644,0.071
23.89,-0.414,1.167,-0.176
23.9,-0.104,0.915,-0.065
23.91,-0.213,1.146,0.093
23.92,-0.062,0.735,0.177
23.93,-0.321,0.961,-0.048
23.94,-0.302,1.111,-0.193
23.95,-0.073,0.879,-0.007
23.96,-0.165,1.156,0.165
23.97,-0.102,0.627,0.075
23.98,-0.493,1.209,-0.138
23.99,-0.084,0.954,-0.066
24.0,-0.23,1.112,0.089
24.01,-0.148,0.779,0.167
24.02,-0.251,0.886,-0.073
24.03,-0.438,1.167,-0.194
24.04,-0.113,0.826,0.06
24.05,-0.14,1.246,0.125
24.06,-0.106,0.602,0.074
24.07,-0.441,1.155,-0.13
24.08,-0.077,1.034,-0.094
24.09,-0.183,1.039,0.079
24.1,-0.126,0.862,0.16
24.11,-0.28,0.865,-0.072
24.12,-0.418,1.191,-0.185
24.13,-0.107,0.814,0.024
24.14,-0.148,1.201,0.147
24.15,-0.092,0.704,0.031
24.16,-0.385,1.089,-0.166
24.17,-0.122,1.038,-0.096
24.18,-0.125,0.93,0.096
24.19,-0.142,0.933,0.14
24.2,-0.303,0.8,-0.081
24.21,-0.367,1.262,-0.169
24.22,-0.115,0.844,0.04
24.23,-0.195,1.125,0.194
24.24,-0.087,0.765,0.066
24.25,-0.402,1.006,-0.179
24.26,-0.222,1.129,-0.021
24.27,-0.033,0.92,0.047
24.28,-0.164,0.974,0.12
24.29,-0.273,0.766,-0.03
24.3,-0.37,1.279,-0.203
24.31,-0.132,0.874,0.055
24.32,-0.117,1.123,0.153
24.33,-0.079,0.787,0.027
24.34,-0.436,0.992,-0.141
24.35,-0.128,1.172,-0.065
24.36,-0.116,0.793,0.064
24.37,-0.148,1.038,0.121
24.38,-0.247,0.786,-0.074
24.39,-0.362,1.174,-0.168
24.4,-0.155,0.937,0.072
24.41,-0.124,1.128,0.138
24.42,-0.129,0.676,0.007
24.43,-0.422,1.128,-0.126
24.44,-0.072,1.09,-0.114
24.45,-0.171,0.782,0.083
24.46,-0.108,1.052,0.161
24.47,-0.34,0.833,-0.161
24.48,-0.315,1.138,-0.157
24.49,-0.06,0.917,0.098
24.5,-0.123,1.03,0.129
24.51,-0.176,0.785,0.035
24.52,-0.387,1.092,-0.162
24.53,-0.105,1.107,-0.1
24.54,-0.165,0.773,0.082
24.55,-0.113,1.063,0.185
24.56,-0.343,0.786,-0.148
24.57,-0.259,1.132,-0.133
24.58,-0.148,0.997,0.081
24.59,-0.127,0.952,0.174
24.6,-0.202,0.83,0.061
24.61,-0.406,1.002,-0.158
24.62,-0.124,1.206,-0.085
24.63,-0.134,0.722,0.055
24.64,-0.205,1.061,0.183
24.65,-0.327,0.823,-0.157
24.66,-0.269,1.074,-0.147
24.67,-0.121,1.077,0.061
24.68,-0.117,0.878,0.138
24.69,-0.171,0.889,0.036
24.7,-0.444,0.957,-0.112
24.71,-0.128,1.207,-0.1
24.72,-0.059,0.736,0.058
24.73,-0.173,1.045,0.192
24.74,-0.278,0.84,-0.159
24.75,-0.338,1.053,-0.094
24.76,-0.127,1.062,0.069
24.77,-0.057,0.841,0.154
24.78,-0.281,0.99,0.006
24.79,-0.359,0.904,-0.137
24.8,-0.116,1.254,-0.09
24.81,-0.105,0.753,0.087
24.82,-0.123,0.992,0.181
24.83,-0.258,0.963,-0.141
24.84,-0.32,0.974,-0.133
24.85,-0.2,1.134,0.092
24.86,-0.031,0.798,0.144
24.87,-0.256,1.0,0.01
24.88,-0.386,0.883,-0.145
24.89,-0.119,1.228,-0.08
24.9,-0.166,0.738,0.063
24.91,-0.162,0.916,0.246
24.92,-0.266,1.021,-0.154
24.93,-0.285,0.889,-0.138
24.94,-0.208,1.203,0.1
24.95,-0.069,0.767,0.128
24.96,-0.245,0.993,0.009
24.97,-0.382,0.917,-0.112
24.98,-0.148,1.226,-0.093
24.99,-0.205,0.782,0.038
25.0,-0.107,0.874,0.239
25.01,-0.312,1.083,-0.156
25.02,-0.242,0.766,-0.187
25.03,-0.18,1.238,0.066
25.04,-0.058,0.749,0.123
25.05,-0.206,0.996,0.003
25.06,-0.388,0.981,-0.131
25.07,-0.184,1.094,-0.075
25.08,-0.093,0.881,0.026
25.09,-0.183,0.801,0.254
25.1,-0.305,1.097,-0.15
25.11,-0.245,0.798,-0.144
25.12,-0.233,1.256,0.042
25.13,-0.028,0.739,0.155
25.14,-0.152,1.019,0.009
25.15,-0.392,0.948,-0.179
25.16,-0.122,1.02,-0.08
25.17,-0.152,0.984,0.057
25.18,-0.143,0.728,0.198
25.19,-0.348,1.197,-0.12
25.2,-0.249,0.769,-0.151
25.21,-0.253,1.222,0.029
25.22,-0.031,0.794,0.143
25.23,-0.277,1.012,0.006
25.24,-0.371,0.875,-0.149
25.25,-0.115,1.154,-0.097
25.26,-0.173,0.876,0.037
25.27,-0.13,0.804,0.223
25.28,-0.256,1.153,-0.149
25.29,-0.287,0.787,-0.152
25.3,-0.282,1.215,0.063
25.31,0.073,0.782,0.11
25.32,-0.24,1.033,0.023
25.33,-0.345,0.869,-0.156
25.34,-0.104,1.13,-0.035
25.35,-0.156,0.949,0.067
25.36,-0.202,0.697,0.222
25.37,-0.24,1.21,-0.086
25.38,-0.34,0.804,-0.17
25.39,-0.183,1.142,0.044
25.4,-0.008,0.867,0.164
25.41,-0.232,0.947,0.033
25.42,-0.429,0.906,-0.178
25.43,-0.037,1.06,-0.054
25.44,-0.13,1.088,0.03
25.45,-0.176,0.64,0.183
25.46,-0.269,1.206,-0.056
25.47,-0.304,0.825,-0.154
25.48,-0.277,1.167,0.046
25.49,-0.009,0.853,0.133
25.5,-0.105,0.939,0.067
25.51,-0.522,1.028,-0.16
25.52,-0.098,0.899,-0.088
25.53,-0.121,1.157,0.021
25.54,-0.115,0.62,0.179
25.55,-0.337,1.2,-0.026
25.56,-0.303,0.856,-0.216
25.57,-0.175,1.049,-0.005
25.58,-0.067,0.923,0.163
25.59,-0.149,0.877,0.049
25.6,-0.428,1.029,-0.178
25.61,-0.171,0.875,-0.0
25.62,-0.118,1.299,0.018
25.63,-0.103,0.572,0.178
25.64,-0.331,1.156,-0.007
25.65,-0.293,0.942,-0.223
25.66,-0.153,1.035,-0.018
25.67,-0.174,0.886,0.158
25.68,-0.066,0.825,0.102
25.69,-0.471,1.154,-0.182
25.7,-0.232,0.798,-0.009
25.71,-0.105,1.315,0.063
25.72,-0.082,0.632,0.14
25.73,-0.32,1.026,-0.009
25.74,-0.281,1.04,-0.168
25.75,-0.19,1.028,-0.036
25.76,-0.198,0.906,0.126
25.77,-0.035,0.774,0.122
25.78,-0.543,1.187,-0.151
25.79,-0.251,0.709,-0.094
25.8,-0.045,1.386,0.045
25.81,-0.067,0.686,0.131
25.82,-0.352,0.948,-0.002
25.83,-0.245,1.046,-0.184
25.84,-0.095,0.96,-0.066
25.85,-0.246,1.023,0.151
25.86,0.017,0.726,0.182
25.87,-0.459,1.234,-0.201
25.88,-0.263,0.713,-0.099
25.89,-0.071,1.338,0.053
25.9,-0.073,0.748,0.125
25.91,-0.423,0.882,0.059
25.92,-0.198,1.142,-0.208
25.93,-0.112,0.893,-0.111
25.94,-0.295,1.021,0.18
25.95,0.064,0.68,0.181
25.96,-0.495,1.191,-0.143
25.97,-0.325,0.735,-0.138
25.98,-0.045,1.26,0.046
25.99,-0.09,0.873,0.08
26.0,-0.294,0.783,0.046
26.01,-0.316,1.222,-0.12
26.02,-0.121,0.876,-0.06
26.03,-0.22,1.075,0.114
26.04,0.031,0.736,0.143
26.05,-0.429,1.211,-0.197
26.06,-0.181,0.716,-0.146
26.07,-0.129,1.303,0.058
26.08,-0.031,0.76,0.108
26.09,-0.301,0.931,0.031
26.1,-0.3,1.099,-0.202
26.11,-0.104,0.877,-0.004
26.12,-0.189,1.114,0.137
26.13,-0.093,0.664,0.176
26.14,-0.394,1.181,-0.175
26.15,-0.242,0.788,-0.139
26.16,-0.147,1.266,0.084
26.17,-0.055,0.878,0.117
26.18,-0.231,0.802,0.023
26.19,-0.448,1.177,-0.116
26.2,-0.029,0.887,-0.057
26.21,-0.226,1.138,0.107
26.22,-0.148,0.662,0.208
26.23,-0.328,1.216,-0.137
26.24,-0.284,0.83,-0.159
26.25,-0.155,1.103,0.064
26.26,-0.049,0.988,0.128
26.27,-0.217,0.739,0.022
26.28,-0.482,1.183,-0.146
26.29,-0.03,0.882,-0.062
26.3,-0.18,1.16,0.072
26.31,-0.157,0.667,0.188
26.32,-0.331,1.171,-0.127
26.33,-0.248,0.865,-0.194
26.34,-0.184,1.045,0.112
26.35,-0.038,1.067,0.139
26.36,-0.19,0.685,0.028
26.37,-0.437,1.21,-0.191
26.38,-0.035,0.894,-0.024
26.39,-0.174,1.162,0.08
26.4,-0.148,0.684,0.193
26.41,-0.337,1.1,-0.087
26.42,-0.333,0.949,-0.172
26.43,-0.081,0.941,0.052
26.44,-0.058,1.152,0.104
26.45,-0.068,0.638,0.012
26.46,-0.477,1.234,-0.153
26.47,-0.029,0.915,-0.075
26.48,-0.174,1.116,0.079
26.49,-0.161,0.752,0.214
26.5,-0.298,1.023,-0.103
26.51,-0.271,1.041,-0.193
26.52,-0.215,0.899,0.096
26.53,-0.057,1.164,0.149
26.54,-0.12,0.659,0.014
26.55,-0.483,1.202,-0.158
26.56,-0.06,0.93,-0.022
26.57,-0.191,1.07,0.051
26.58,-0.138,0.796,0.184
26.59,-0.339,0.93,-0.093
26.6,-0.286,1.114,-0.166
26.61,-0.167,0.856,0.049
26.62,-0.109,1.155,0.155
26.63,-0.065,0.655,0.036
26.64,-0.471,1.229,-0.18
26.65,-0.102,0.972,-0.073
26.66,-0.128,1.015,0.036
26.67,-0.118,0.825,0.16
26.68,-0.323,0.877,-0.066
26.69,-0.322,1.176,-0.184
26.7,-0.161,0.865,0.021
26.71,-0.112,1.222,0.142
26.72,-0.072,0.673,0.074
26.73,-0.425,1.095,-0.151
26.74,-0.148,1.086,-0.036
26.75,-0.141,0.959,0.07
26.76,-0.125,0.894,0.143
26.77,-0.343,0.814,-0.055
26.78,-0.361,1.21,-0.17
26.79,-0.103,0.862,-0.002
26.8,-0.185,1.142,0.219
26.81,-0.039,0.699,0.071
26.82,-0.513,1.035,-0.177
26.83,-0.043,1.101,-0.069
26.84,-0.158,0.946,0.068
26.85,-0.196,0.92,0.163
26.86,-0.253,0.888,-0.109
26.87,-0.285,1.166,-0.17
26.88,-0.228,0.869,0.12
26.89,-0.114,1.139,0.159
26.9,-0.07,0.676,0.008
26.91,-0.517,1.178,-0.138
26.92,-0.054,1.005,-0.091
26.93,-0.117,0.941,0.049
26.94,-0.187,0.945,0.199
26.95,-0.288,0.805,-0.099
26.96,-0.313,1.188,-0.157
26.97,-0.206,0.881,0.083
26.98,-0.099,1.142,0.143
26.99,-0.093,0.71,0.037
27.0,-0.467,1.064,-0.13
27.01,-0.114,1.111,-0.083
27.02,-0.105,0.904,0.064
27.03,-0.177,0.945,0.16
27.04,-0.25,0.786,-0.067
27.05,-0.3,1.257,-0.174
27.06,-0.183,0.868,0.028
27.07,-0.131,1.079,0.158
27.08,-0.15,0.803,0.093
27.09,-0.417,0.955,-0.161
27.1,-0.204,1.16,-0.022
27.11,-0.072,0.937,0.049
27.12,-0.263,0.927,0.144
27.13,-0.164,0.795,-0.016
27.14,-0.342,1.311,-0.186
27.15,-0.181,0.792,-0.029
27.16,-0.097,1.027,0.196
27.17,-0.103,0.927,0.04
27.18,-0.438,0.847,-0.191
27.19,-0.185,1.214,-0.028
27.2,-0.014,0.934,0.027
27.21,-0.18,0.944,0.176
27.22,-0.261,0.781,0.002
27.23,-0.315,1.256,-0.236
27.24,-0.149,0.883,-0.06
27.25,-0.202,0.964,0.208
27.26,-0.146,0.778,0.213
27.27,-0.357,0.993,-0.197
27.28,-0.204,0.925,-0.135
27.29,-0.171,1.101,0.099
27.3,-0.152,1.071,0.112
27.31,-0.104,0.604,-0.0
27.32,-0.461,1.311,-0.158
27.33,-0.056,0.906,-0.089
27.34,-0.154,1.026,0.075
27.35,-0.183,0.771,0.199
27.36,-0.372,0.991,-0.109
27.37,-0.237,1.062,-0.168
27.38,-0.176,0.931,0.115
27.39,-0.151,1.16,0.166
27.4,-0.139,0.612,0.028
27.41,-0.5,1.206,-0.173
27.42,-0.063,0.946,-0.041
27.43,-0.136,1.036,0.045
27.44,-0.152,0.836,0.181
27.45,-0.344,0.916,-0.104
27.46,-0.256,1.137,-0.136
27.47,-0.18,0.881,0.079
27.48,-0.14,1.16,0.108
27.49,-0.046,0.661,-0.025
27.5,-0.537,1.179,-0.129
27.51,-0.072,0.994,-0.054
27.52,-0.137,0.978,0.079
27.53,-0.161,0.934,0.202
27.54,-0.416,0.944,-0.13
27.55,-0.185,1.052,-0.172
27.56,-0.112,0.999,0.071
27.57,-0.129,1.047,0.112
27.58,-0.154,0.63,0.013
27.59,-0.435,1.281,-0.188
27.6,-0.125,0.902,-0.067
27.61,-0.152,1.015,0.089
27.62,-0.11,0.868,0.142
27.63,-0.384,0.907,-0.08
27.64,-0.281,1.144,-0.095
27.65,-0.08,0.918,0.055
27.66,-0.146,1.127,0.158
27.67,-0.099,0.656,0.01
27.68,-0.452,1.241,-0.16
27.69,-0.104,0.933,-0.075
27.7,-0.153,0.936,0.12
27.71,-0.153,0.894,0.17
27.72,-0.317,0.903,-0.125
27.73,-0.287,1.182,-0.135
27.74,-0.156,0.873,0.082
27.75,-0.065,1.126,0.135
27.76,-0.11,0.674,0.008
27.77,-0.386,1.17,-0.196
27.78,-0.07,1.063,-0.091
27.79,-0.155,0.866,0.08
27.8,-0.158,0.989,0.211
27.81,-0.339,0.818,-0.107
27.82,-0.314,1.141,-0.155
27.83,-0.154,0.945,0.143
27.84,-0.137,1.077,0.115
27.85,-0.145,0.708,0.042
27.86,-0.409,1.148,-0.142
27.87,-0.115,1.111,-0.109
27.88,-0.164,0.773,0.08
27.89,-0.22,1.009,0.225
27.9,-0.27,0.806,-0.106
27.91,-0.337,1.193,-0.145
27.92,-0.167,0.889,0.063
27.93,-0.078,1.035,0.143
27.94,-0.208,0.791,0.036
27.95,-0.376,1.0,-0.189
27.96,-0.082,1.193,-0.067
27.97,-0.083,0.772,0.044
27.98,-0.186,1.042,0.196
27.99,-0.239,0.822,-0.126
28.0,-0.322,1.102,-0.145
28.01,-0.146,0.974,0.1
28.02,-0.12,1.035,0.123
28.03,-0.165,0.843,0.03
28.04,-0.373,0.934,-0.175
28.05,-0.161,1.28,-0.073
28.06,-0.086,0.728,0.048
28.07,-0.137,1.022,0.182
28.08,-0.285,0.831,-0.126
28.09,-0.332,1.065,-0.164
28.1,-0.049,0.979,0.057
28.11,-0.092,0.967,0.126
28.12,-0.183,0.908,-0.021
28.13,-0.434,0.9,-0.148
28.14,-0.109,1.247,-0.088
28.15,-0.147,0.759,0.055
28.16,-0.167,0.976,0.153
28.17,-0.201,0.937,-0.129
28.18,-0.31,1.019,-0.151
28.19,-0.197,1.037,0.097
28.2,-0.021,0.867,0.142
28.21,-0.269,0.968,-0.009
28.22,-0.442,0.862,-0.123
28.23,-0.102,1.256,-0.103
28.24,-0.168,0.748,0.07
28.25,-0.159,0.943,0.219
28.26,-0.269,1.002,-0.165
28.27,-0.25,0.903,-0.116
28.28,-0.187,1.137,0.065
28.29,-0.009,0.8,0.171
28.3,-0.25,1.043,-0.007
28.31,-0.395,0.822,-0.153
28.32,-0.128,1.236,-0.077
28.33,-0.175,0.792,0.074
28.34,-0.122,0.894,0.189
28.35,-0.303,0.909,-0.189
28.36,-0.25,0.982,-0.084
28.37,-0.138,1.146,0.096
28.38,-0.022,0.81,0.128
28.39,-0.284,1.012,-0.009
28.4,-0.337,0.927,-0.098
28.41,-0.147,1.267,-0.052
28.42,-0.181,0.682,0.108
28.43,-0.14,0.973,0.217
28.44,-0.404,0.969,-0.167
28.45,-0.22,0.912,-0.137
28.46,-0.063,1.216,0.072
28.47,-0.112,0.681,0.127
28.48,-0.292,1.032,0.0
28.49,-0.285,0.962,-0.159
28.5,-0.141,1.158,-0.026
28.51,-0.292,0.72,0.209
28.52,-0.039,0.949,0.09
28.53,-0.431,1.03,-0.214
28.54,-0.198,0.829,-0.114
28.55,-0.041,1.296,0.071
28.56,-0.094,0.616,0.145
28.57,-0.333,1.083,0.057
28.58,-0.262,0.938,-0.195
28.59,-0.154,1.066,-0.065
28.6,-0.206,0.76,0.183
28.61,-0.085,0.912,0.147
28.62,-0.405,1.064,-0.211
28.63,-0.22,0.781,-0.081
28.64,-0.105,1.343,0.044
28.65,-0.071,0.608,0.113
28.66,-0.324,1.057,0.018
28.67,-0.201,0.976,-0.227
28.68,-0.079,1.049,-0.035
28.69,-0.191,0.888,0.139
28.7,-0.059,0.817,0.158
28.71,-0.436,1.129,-0.195
28.72,-0.219,0.787,-0.085
28.73,-0.123,1.332,0.037
28.74,-0.089,0.637,0.154
28.75,-0.322,1.003,0.003
28.76,-0.284,1.021,-0.2
28.77,-0.098,0.973,-0.042
28.78,-0.223,0.963,0.147
28.79,-0.01,0.803,0.13
28.8,-0.465,1.16,-0.2
28.81,-0.23,0.742,-0.054
28.82,-0.029,1.365,0.034
28.83,-0.114,0.658,0.13
28.84,-0.359,0.961,0.055
28.85,-0.195,1.058,-0.26
28.86,-0.141,0.901,-0.023
28.87,-0.231,1.062,0.178
28.88,0.023,0.711,0.076
28.89,-0.489,1.134,-0.179
28.9,-0.192,0.807,-0.011
28.91,-0.071,1.284,0.009
28.92,-0.088,0.693,0.154
28.93,-0.297,0.934,0.031
28.94,-0.255,1.14,-0.227
28.95,-0.182,0.861,-0.0
28.96,-0.15,1.118,0.172
28.97,-0.047,0.733,0.095
28.98,-0.48,1.157,-0.2
28.99,-0.236,0.833,-0.025
29.0,-0.053,1.242,0.024
29.01,-0.129,0.725,0.129
29.02,-0.28,0.841,0.049
29.03,-0.299,1.244,-0.24
29.04,-0.135,0.817,-0.011
29.05,-0.236,1.13,0.206
29.06,-0.032,0.673,0.069
29.07,-0.522,1.152,-0.176
29.08,-0.184,0.892,-0.054
29.09,-0.085,1.183,0.042
29.1,-0.168,0.818,0.122
29.11,-0.252,0.811,0.037
29.12,-0.349,1.251,-0.253
29.13,-0.098,0.76,0.003
29.14,-0.192,1.181,0.148
29.15,-0.108,0.711,0.068
29.16,-0.431,1.028,-0.172
29.17,-0.098,0.943,-0.073
29.18,-0.191,1.117,0.088
29.19,-0.144,0.73,0.196
29.2,-0.274,0.948,-0.046
29.21,-0.345,1.113,-0.197
29.22,-0.058,0.861,0.014
29.23,-0.17,1.191,0.165
29.24,-0.12,0.628,0.107
29.25,-0.496,1.228,-0.165
29.26,-0.109,0.957,-0.089
29.27,-0.178,1.04,0.076
29.28,-0.129,0.824,0.167
29.29,-0.253,0.866,-0.075
29.3,-0.354,1.157,-0.168
29.31,-0.15,0.857,0.053
29.32,-0.158,1.216,0.15
29.33,-0.105,0.642,0.053
29.34,-0.436,1.109,-0.148
29.35,-0.122,1.069,-0.02
29.36,-0.173,0.99,0.067
29.37,-0.153,0.871,0.143
29.38,-0.238,0.82,-0.059
29.39,-0.387,1.221,-0.167
29.4,-0.196,0.828,0.085
29.41,-0.081,1.206,0.155
29.42,-0.105,0.679,0.038
29.43,-0.501,1.06,-0.134
29.44,-0.06,1.115,-0.095
29.45,-0.125,0.882,0.045
29.46,-0.164,0.949,0.165
29.47,-0.247,0.781,-0.119
29.48,-0.316,1.166,-0.169
29.49,-0.174,0.903,0.12
29.5,-0.109,1.098,0.137
29.51,-0.12,0.746,0.045
29.52,-0.445,1.059,-0.142
29.53,-0.102,1.179,-0.079
29.54,-0.106,0.818,0.097
29.55,-0.17,1.017,0.142
29.56,-0.255,0.812,-0.085
29.57,-0.371,1.197,-0.183
29.58,-0.141,0.867,0.092
29.59,-0.073,1.055,0.15
29.6,-0.205,0.873,0.041
29.61,-0.383,0.943,-0.185
29.62,-0.173,1.216,-0.065
29.63,-0.137,0.792,0.117
29.64,-0.115,1.022,0.136
29.65,-0.248,0.791,-0.097
29.66,-0.406,1.127,-0.111
29.67,-0.152,0.934,0.073
29.68,-0.073,0.996,0.14
29.69,-0.194,0.89,0.012
29.7,-0.422,0.899,-0.114
29.71,-0.147,1.265,-0.056
29.72,-0.191,0.733,0.056
29.73,-0.127,1.034,0.244
29.74,-0.273,0.864,-0.137
29.75,-0.345,1.034,-0.155
29.76,-0.031,1.105,0.074
29.77,-0.087,0.851,0.114
29.78,-0.301,0.984,0.047
29.79,-0.257,0.901,-0.209
29.8,-0.215,1.257,-0.072
29.81,-0.129,0.721,0.122
29.82,-0.152,1.029,0.159
29.83,-0.31,0.832,-0.137
29.84,-0.238,1.0,-0.134
29.85,-0.137,1.185,0.099
29.86,-0.095,0.739,0.117
29.87,-0.22,1.033,0.047
29.88,-0.357,0.905,-0.2
29.89,-0.208,1.234,-0.044
29.9,-0.145,0.726,0.119
29.91,-0.182,0.959,0.163
29.92,-0.323,0.997,-0.153
29.93,-0.29,0.891,-0.124
29.94,-0.071,1.201,0.068
29.95,-0.065,0.767,0.113
29.96,-0.274,1.016,0.024
29.97,-0.354,0.895,-0.149
29.98,-0.108,1.23,-0.039
29.99,-0.139,0.714,0.116
30.0,-0.138,1.05,0.135
30.01,-0.363,0.899,-0.204
30.02,-0.277,0.967,-0.084
30.03,-0.058,1.174,0.097
30.04,-0.134,0.704,0.137
30.05,-0.312,1.052,-0.026
30.06,-0.327,0.922,-0.137
30.07,-0.154,1.17,-0.022
30.08,-0.117,0.729,0.12
30.09,-0.157,1.005,0.132
30.1,-0.366,0.972,-0.168
30.11,-0.243,0.909,-0.104
30.12,-0.12,1.216,0.097
30.13,-0.049,0.656,0.128
30.14,-0.371,1.101,-0.029
30.15,-0.257,0.897,-0.155
30.16,-0.118,1.18,0.018
30.17,-0.188,0.776,0.147
30.18,-0.028,0.909,0.06
30.19,-0.398,1.078,-0.222
30.2,-0.267,0.865,-0.042
30.21,-0.053,1.255,0.046
30.22,-0.104,0.658,0.139
30.23,-0.351,1.109,-0.003
30.24,-0.259,0.904,-0.201
30.25,-0.179,1.123,-0.004
30.26,-0.147,0.907,0.144
30.27,-0.105,0.832,0.071
30.28,-0.433,1.128,-0.183
30.29,-0.135,0.877,-0.027
30.3,-0.164,1.231,0.063
30.31,-0.085,0.621,0.138
30.32,-0.329,1.101,-0.059
30.33,-0.288,0.972,-0.174
30.34,-0.185,1.059,0.03
30.35,-0.128,0.978,0.132
30.36,-0.083,0.737,0.079
30.37,-0.461,1.197,-0.154
30.38,-0.163,0.85,-0.023
30.39,-0.139,1.189,0.025
30.4,-0.11,0.693,0.174
30.41,-0.341,1.064,-0.077
30.42,-0.315,0.959,-0.18
30.43,-0.146,1.012,0.057
30.44,-0.085,1.065,0.125
30.45,-0.106,0.655,0.02
30.46,-0.426,1.239,-0.173
30.47,-0.166,0.871,-0.024
30.48,-0.121,1.149,0.069
30.49,-0.084,0.738,0.174
30.5,-0.401,1.025,-0.087
30.51,-0.27,0.978,-0.202
30.52,-0.095,0.963,0.098
30.53,-0.152,1.146,0.153
30.54,-0.123,0.617,0.02
30.55,-0.433,1.232,-0.186
30.56,-0.085,0.89,-0.038
30.57,-0.127,1.078,0.08
30.58,-0.158,0.803,0.158
30.59,-0.329,0.983,-0.157
30.6,-0.208,1.099,-0.177
30.61,-0.194,0.926,0.127
30.62,-0.111,1.083,0.159
30.63,-0.139,0.639,-0.013
30.64,-0.534,1.289,-0.141
30.65,-0.108,0.913,-0.07
30.66,-0.132,0.968,0.092
30.67,-0.119,0.9,0.166
30.68,-0.36,0.913,-0.161
30.69,-0.27,1.13,-0.16
30.7,-0.021,0.913,0.081
30.71,-0.158,1.07,0.134
30.72,-0.211,0.657,-0.008
30.73,-0.367,1.321,-0.224
30.74,-0.108,0.799,-0.03
30.75,-0.177,1.118,0.19
30.76,-0.07,0.79,0.103
30.77,-0.443,0.941,-0.209
30.78,-0.147,1.1,-0.051
30.79,-0.028,0.927,0.069
30.8,-0.177,0.955,0.17
30.81,-0.281,0.774,-0.034
30.82,-0.386,1.207,-0.197
30.83,-0.124,0.834,0.076
30.84,-0.142,1.225,0.105
30.85,-0.167,0.659,0.008
30.86,-0.425,1.05,-0.123
30.87,-0.062,1.111,-0.088
30.88,-0.083,0.866,0.094
30.89,-0.167,0.978,0.192
30.9,-0.277,0.75,-0.105
30.91,-0.28,1.192,-0.181
30.92,-0.154,0.924,0.161
30.93,-0.17,1.102,0.126
30.94,-0.115,0.72,0.023
30.95,-0.44,1.12,-0.149
30.96,-0.104,1.153,-0.066
30.97,-0.172,0.762,0.106
30.98,-0.216,1.033,0.209
30.99,-0.268,0.802,-0.148
31.0,-0.337,1.151,-0.173
31.01,-0.068,0.97,0.112
31.02,-0.206,1.035,0.129
31.03,-0.16,0.807,-0.014
31.04,-0.358,1.018,-0.129
31.05,-0.189,1.227,-0.089
31.06,-0.106,0.715,0.091
31.07,-0.121,1.092,0.144
31.08,-0.341,0.763,-0.107
31.09,-0.278,1.154,-0.135
31.1,-0.044,1.062,0.058
31.11,-0.135,0.849,0.154
31.12,-0.381,0.945,0.13
31.13,-0.323,0.987,-0.218
31.14,-0.162,1.146,-0.052
31.15,-0.164,0.759,0.209
31.16,-0.11,1.078,0.093
31.17,-0.335,0.768,-0.196
31.18,-0.206,1.125,-0.056
31.19,-0.076,1.066,-0.005
31.2,-0.113,0.684,0.155
31.21,-0.257,1.06,0.017
31.22,-0.359,0.958,-0.214
31.23,-0.193,1.081,0.014
31.24,-0.174,0.791,0.199
31.25,-0.136,1.034,0.099
31.26,-0.352,0.839,-0.175
31.27,-0.17,1.054,-0.065
31.28,-0.117,1.16,-0.001
31.29,-0.047,0.646,0.136
31.3,-0.29,1.086,0.019
31.31,-0.366,0.927,-0.189
31.32,-0.122,1.138,-0.029
31.33,-0.075,0.843,0.163
31.34,-0.187,0.948,0.085
31.35,-0.303,0.937,-0.206
31.36,-0.195,1.034,-0.017
31.37,-0.155,1.171,0.03
31.38,-0.118,0.602,0.178
31.39,-0.294,1.145,0.006
31.4,-0.337,0.92,-0.218
31.41,-0.103,1.102,0.012
31.42,-0.134,0.881,0.192
31.43,-0.206,0.869,0.055
31.44,-0.369,1.025,-0.17
31.45,-0.158,0.976,-0.024
31.46,-0.193,1.216,0.069
31.47,-0.158,0.583,0.144
31.48,-0.246,1.173,-0.045
31.49,-0.312,0.914,-0.194
31.5,-0.175,1.092,0.055
31.51,-0.147,0.948,0.181
31.52,-0.185,0.773,0.045
31.53,-0.483,1.12,-0.146
31.54,-0.026,0.892,-0.109
31.55,-0.12,1.184,0.049
31.56,-0.191,0.634,0.203
31.57,-0.315,1.108,-0.111
31.58,-0.21,0.873,-0.181
31.59,-0.196,1.097,0.102
31.6,-0.065,0.971,0.156
31.61,-0.258,0.843,0.022
31.62,-0.435,1.106,-0.136
31.63,-0.077,0.939,-0.088
31.64,-0.152,1.05,0.105
31.65,-0.114,0.698,0.226
31.66,-0.355,1.209,-0.181
31.67,-0.251,0.809,-0.117
31.68,-0.22,1.225,0.111
31.69,-0.01,0.842,0.1
31.7,-0.241,0.774,0.03
31.71,-0.341,1.273,-0.178
31.72,-0.127,0.892,-0.044
31.73,-0.283,1.12,0.126
31.74,-0.046,0.665,0.161
31.75,-0.367,1.136,-0.179
31.76,-0.258,0.849,-0.134
31.77,-0.062,1.173,0.07
31.78,-0.099,0.925,0.096
31.79,-0.228,0.713,0.066
31.8,-0.382,1.308,-0.146
31.81,-0.138,0.866,-0.03
31.82,-0.242,1.105,0.141
31.83,-0.106,0.744,0.182
31.84,-0.428,1.092,-0.181
31.85,-0.222,0.849,-0.154
31.86,-0.01,1.106,0.131
31.87,-0.193,1.007,0.13
31.88,-0.269,0.683,-0.048
31.89,-0.373,1.294,-0.169
31.9,-0.082,0.844,-0.042
31.91,-0.239,1.08,0.155
31.92,-0.048,0.792,0.152
31.93,-0.454,1.04,-0.151
31.94,-0.242,0.98,-0.118
31.95,0.004,1.052,0.067
31.96,-0.108,0.98,0.115
31.97,-0.258,0.677,-0.007
31.98,-0.368,1.341,-0.211
31.99,-0.148,0.794,-0.056
32.0,-0.157,1.051,0.155
32.01,-0.015,0.854,0.081
32.02,-0.471,0.987,-0.174
32.03,-0.15,1.074,-0.111
32.04,-0.061,0.977,0.067
32.05,-0.153,1.008,0.162
32.06,-0.244,0.697,-0.04
32.07,-0.389,1.326,-0.2
32.08,-0.07,0.846,-0.017
32.09,-0.21,1.046,0.172
32.1,-0.089,0.87,0.101
32.11,-0.46,0.889,-0.198
32.12,-0.112,1.158,-0.092
32.13,-0.035,0.911,0.073
32.14,-0.176,0.991,0.129
32.15,-0.237,0.73,-0.047
32.16,-0.37,1.275,-0.202
32.17,-0.092,0.906,-0.007
32.18,-0.22,0.962,0.18
32.19,-0.096,0.907,0.085
32.2,-0.421,0.868,-0.164
32.21,-0.168,1.184,-0.055
32.22,-0.012,0.86,0.098
32.23,-0.218,1.012,0.131
32.24,-0.253,0.773,-0.049
32.25,-0.358,1.171,-0.204
32.26,-0.103,0.985,-0.001
32.27,-0.122,0.901,0.179
32.28,-0.128,0.989,-0.005
32.29,-0.379,0.812,-0.187
32.3,-0.204,1.265,0.035
32.31,-0.065,0.824,0.094
32.32,-0.238,0.959,0.15
32.33,-0.263,0.858,-0.045
32.34,-0.312,1.112,-0.191
32.35,-0.144,1.025,0.008
32.36,-0.025,0.808,0.187
32.37,-0.214,1.041,0.029
32.38,-0.449,0.788,-0.174
32.39,-0.102,1.259,-0.031
32.4,-0.123,0.813,0.058
32.41,-0.149,0.906,0.162
32.42,-0.278,0.984,-0.076
32.43,-0.381,1.093,-0.14
32.44,-0.059,1.044,0.107
32.45,-0.126,0.834,0.125
32.46,-0.344,0.959,0.013
32.47,-0.33,0.92,-0.158
32.48,-0.087,1.248,-0.045
32.49,-0.216,0.708,0.167
32.5,-0.135,1.031,0.134
32.51,-0.289,0.896,-0.2
32.52,-0.272,1.016,-0.072
32.53,-0.049,1.157,0.077
32.54,-0.097,0.742,0.105
32.55,-0.271,1.04,0.014
32.56,-0.382,0.92,-0.149
32.57,-0.106,1.19,-0.04
32.58,-0.183,0.73,0.152
32.59,-0.158,0.969,0.11
32.6,-0.353,0.963,-0.189
32.61,-0.23,0.93,-0.082
32.62,-0.038,1.2,0.089
32.63,-0.129,0.673,0.078
32.64,-0.296,1.078,-0.01
32.65,-0.3,0.911,-0.17
32.66,-0.16,1.196,0.017
32.67,-0.142,0.723,0.125
32.68,-0.061,0.937,0.087
32.69,-0.46,1.073,-0.187
32.7,-0.199,0.824,-0.057
32.71,0.033,1.225,0.036
32.72,-0.169,0.659,0.138
32.73,-0.36,1.101,-0.007
32.74,-0.207,0.916,-0.209
32.75,-0.164,1.1,0.029
32.76,-0.199,0.852,0.186
32.77,-0.078,0.841,0.044
32.78,-0.458,1.139,-0.196
32.79,-0.194,0.846,-0.005
32.8,-0.092,1.167,0.091
32.81,-0.206,0.651,0.18
32.82,-0.323,1.145,-0.075
32.83,-0.282,0.927,-0.164
32.84,-0.164,1.052,0.063
32.85,-0.077,0.976,0.168
32.86,-0.198,0.734,-0.002
32.87,-0.476,1.185,-0.183
32.88,-0.008,0.924,-0.056
32.89,-0.165,1.144,0.104
32.9,-0.149,0.651,0.176
32.91,-0.345,1.127,-0.128
32.92,-0.24,0.936,-0.174
32.93,-0.143,1.085,0.121
32.94,-0.136,1.014,0.097
32.95,-0.166,0.676,-0.006
32.96,-0.44,1.304,-0.143
32.97,-0.115,0.855,-0.042
32.98,-0.229,1.104,0.133
32.99,-0.018,0.778,0.159
33.0,-0.466,1.001,-0.133
33.01,-0.252,0.988,-0.157
33.02,-0.019,1.073,0.07
33.03,-0.171,0.996,0.084
33.04,-0.247,0.684,0.061
33.05,-0.375,1.337,-0.24
33.06,-0.152,0.825,-0.044
33.07,-0.168,1.067,0.145
33.08,-0.084,0.832,0.112
33.09,-0.467,0.904,-0.174
33.1,-0.174,1.128,-0.082
33.11,-0.029,0.98,0.044
33.12,-0.204,0.978,0.156
33.13,-0.152,0.678,0.001
33.14,-0.42,1.333,-0.24
33.15,-0.101,0.821,0.003
33.16,-0.186,1.079,0.169
33.17,-0.141,0.824,0.071
33.18,-0.457,0.875,-0.153
33.19,-0.091,1.283,-0.094
33.2,-0.095,0.851,0.05
33.21,-0.142,0.985,0.152
33.22,-0.171,0.785,-0.043
33.23,-0.42,1.222,-0.21
33.24,-0.104,0.88,0.111
33.25,-0.146,1.135,0.101
33.26,-0.17,0.743,0.08
33.27,-0.405,1.031,-0.181
33.28,-0.11,1.175,-0.117
33.29,-0.117,0.791,0.07
33.3,-0.128,1.074,0.187
33.31,-0.324,0.744,-0.11
33.32,-0.318,1.154,-0.161
33.33,0.005,0.96,0.1
33.34,-0.208,1.009,0.154
33.35,-0.162,0.789,0.05
33.36,-0.38,1.067,-0.151
33.37,-0.165,1.175,-0.074
33.38,-0.195,0.719,0.089
33.39,-0.064,1.068,0.157
33.4,-0.376,0.797,-0.126
33.41,-0.323,1.087,-0.119
33.42,0.082,1.047,0.05
33.43,-0.233,0.917,0.146
33.44,-0.206,0.88,0.039
33.45,-0.38,1.012,-0.164
33.46,-0.21,1.217,-0.058
33.47,-0.149,0.74,0.119
33.48,-0.051,1.071,0.094
33.49,-0.367,0.807,-0.154
33.5,-0.278,1.077,-0.094
33.51,0.088,1.098,-0.014
33.52,-0.21,0.761,0.111
33.53,-0.191,1.022,0.076
33.54,-0.329,0.967,-0.22
33.55,-0.26,1.12,0.004
33.56,-0.121,0.762,0.177
33.57,-0.102,1.041,0.118
33.58,-0.458,0.827,-0.168
33.59,-0.171,1.028,-0.064
33.6,-0.038,1.213,-0.0
33.61,-0.153,0.64,0.133
33.62,-0.245,1.054,0.079
33.63,-0.319,0.97,-0.182
33.64,-0.163,1.129,-0.066
33.65,-0.128,0.797,0.162
33.66,-0.137,1.001,0.085
33.67,-0.397,0.923,-0.188
33.68,-0.225,1.006,-0.037
33.69,-0.064,1.226,-0.006
33.7,-0.176,0.57,0.112
33.71,-0.142,1.127,0.063
33.72,-0.297,0.956,-0.257
33.73,-0.219,1.032,-0.018
33.74,-0.135,0.866,0.193
33.75,-0.079,0.921,0.068
33.76,-0.447,1.011,-0.121
33.77,-0.186,0.953,-0.044
33.78,-0.134,1.303,0.011
33.79,-0.139,0.561,0.156
33.8,-0.197,1.125,0.055
33.81,-0.346,0.991,-0.234
33.82,-0.186,0.988,-0.023
33.83,-0.101,0.864,0.135
33.84,-0.156,0.913,0.098
33.85,-0.438,1.064,-0.169
33.86,-0.263,0.847,-0.041
33.87,-0.062,1.293,0.051
33.88,-0.197,0.634,0.175
33.89,-0.272,1.086,0.038
33.9,-0.315,0.985,-0.232
33.91,-0.148,0.982,-0.035
33.92,-0.176,1.001,0.176
33.93,-0.111,0.764,0.086
33.94,-0.395,1.108,-0.197
33.95,-0.198,0.905,-0.033
33.96,-0.117,1.286,0.03
33.97,-0.185,0.635,0.192
33.98,-0.277,0.999,0.014
33.99,-0.281,1.037,-0.214
34.0,-0.127,0.93,0.021
34.01,-0.163,1.077,0.133
34.02,-0.104,0.738,0.097
34.03,-0.442,1.167,-0.163
34.04,-0.227,0.85,-0.036
34.05,-0.201,1.196,0.1
34.06,-0.124,0.633,0.132
34.07,-0.304,1.097,-0.016
34.08,-0.343,0.927,-0.202
34.09,-0.093,1.02,0.017
34.1,-0.135,1.034,0.179
34.11,-0.13,0.756,0.056
34.12,-0.427,1.101,-0.185
34.13,-0.134,0.925,0.006
34.14,-0.172,1.285,0.056
34.15,-0.167,0.606,0.15
34.16,-0.306,1.073,-0.024
34.17,-0.309,1.05,-0.25
34.18,-0.109,0.898,0.012
34.19,-0.099,1.065,0.154
34.2,-0.094,0.692,0.016
34.21,-0.536,1.208,-0.125
34.22,-0.103,0.856,-0.047
34.23,-0.12,1.22,0.036
34.24,-0.116,0.648,0.131
34.25,-0.334,1.028,-0.055
34.26,-0.239,1.106,-0.166
34.27,-0.183,0.924,0.011
34.28,-0.1,1.109,0.211
34.29,-0.111,0.683,0.026
34.3,-0.534,1.231,-0.204
34.31,-0.021,0.935,-0.106
34.32,-0.142,1.105,0.057
34.33,-0.202,0.738,0.204
34.34,-0.283,0.946,-0.096
34.35,-0.286,1.085,-0.178
34.36,-0.157,0.893,0.115
34.37,-0.058,1.15,0.098
34.38,-0.181,0.611,0.016
34.39,-0.416,1.26,-0.167
34.4,-0.069,0.987,-0.088
34.41,-0.195,1.002,0.065
34.42,-0.134,0.82,0.214
34.43,-0.28,0.903,-0.104
34.44,-0.269,1.128,-0.175
34.45,-0.13,0.89,0.085
34.46,-0.086,1.124,0.116
34.47,-0.102,0.652,0.094
34.48,-0.453,1.273,-0.176
34.49,-0.132,0.996,-0.094
34.5,-0.192,0.931,0.121
34.51,-0.132,0.934,0.185
34.52,-0.343,0.828,-0.098
34.53,-0.297,1.163,-0.165
34.54,-0.091,0.872,0.072
34.55,-0.144,1.11,0.11
34.56,-0.144,0.685,0.077
34.57,-0.416,1.154,-0.216
34.58,-0.078,1.046,-0.06
34.59,-0.122,0.937,0.081
34.6,-0.188,0.974,0.133
34.61,-0.249,0.768,-0.091
34.62,-0.306,1.241,-0.156
34.63,-0.082,0.846,0.04
34.64,-0.106,1.118,0.152
34.65,-0.17,0.735,0.032
34.66,-0.447,1.029,-0.181
34.67,-0.073,1.159,-0.029
34.68,-0.167,0.865,0.088
34.69,-0.22,1.0,0.177
34.7,-0.228,0.794,-0.093
34.71,-0.303,1.242,-0.164
34.72,-0.134,0.856,0.089
34.73,-0.063,1.025,0.152
34.74,-0.194,0.826,0.024
34.75,-0.42,0.974,-0.163
34.76,-0.11,1.199,-0.033
34.77,-0.19,0.768,0.102
34.78,-0.15,1.034,0.157
34.79,-0.252,0.808,-0.099
34.8,-0.362,1.153,-0.148
34.81,-0.102,0.96,0.072
34.82,-0.134,0.995,0.155
34.83,-0.265,0.863,0.024
34.84,-0.353,0.93,-0.172
34.85,-0.215,1.239,-0.044
34.86,-0.12,0.668,0.127
34.87,-0.207,1.052,0.137
34.88,-0.327,0.788,-0.168
34.89,-0.285,1.191,-0.14
34.9,-0.114,0.906,0.098
34.91,-0.105,0.972,0.113
34.92,-0.286,0.83,-0.001
34.93,-0.337,1.007,-0.149
34.94,-0.069,1.241,-0.063
34.95,-0.11,0.722,0.104
34.96,-0.169,1.064,0.145
34.97,-0.32,0.821,-0.181
34.98,-0.251,1.146,-0.133
34.99,-0.008,0.999,0.135
35.0,-0.219,0.884,0.146
35.01,-0.308,0.93,0.016
35.02,-0.265,1.016,-0.168
35.03,-0.126,1.181,-0.055
35.04,-0.189,0.656,0.195
35.05,-0.11,1.074,0.073
35.06,-0.376,0.827,-0.218
35.07,-0.183,1.104,-0.09
35.08,-0.049,1.062,0.105
35.09,-0.212,0.743,0.16
35.1,-0.322,1.016,0.023
35.11,-0.257,0.933,-0.175
35.12,-0.131,1.21,0.014
35.13,-0.174,0.702,0.151
35.14,-0.075,1.033,0.064
35.15,-0.341,0.911,-0.227
35.16,-0.225,1.053,-0.045
35.17,-0.098,1.073,0.048
35.18,-0.131,0.7,0.129
35.19,-0.327,1.114,-0.001
35.2,-0.283,0.86,-0.19
35.21,-0.216,1.212,0.068
35.22,-0.068,0.786,0.114
35.23,-0.172,0.956,0.056
35.24,-0.349,1.008,-0.201
35.25,-0.14,1.012,-0.042
35.26,-0.153,1.055,0.049
35.27,-0.142,0.699,0.201
35.28,-0.354,1.183,-0.103
35.29,-0.289,0.79,-0.126
35.3,-0.225,1.2,0.101
35.31,-0.061,0.81,0.135
35.32,-0.172,0.879,0.029
35.33,-0.432,1.038,-0.206
35.34,-0.039,0.951,-0.071
35.35,-0.139,1.149,0.067
35.36,-0.142,0.644,0.187
35.37,-0.339,1.198,-0.094
35.38,-0.259,0.854,-0.158
35.39,-0.191,1.162,0.084
35.4,-0.093,0.882,0.135
35.41,-0.154,0.822,0.021
35.42,-0.423,1.133,-0.209
35.43,-0.061,0.904,-0.063
35.44,-0.179,1.144,0.094
35.45,-0.09,0.691,0.191
35.46,-0.359,1.154,-0.121
35.47,-0.296,0.867,-0.156
35.48,-0.146,1.133,0.085
35.49,-0.105,0.94,0.121
35.5,-0.165,0.727,-0.008
35.51,-0.477,1.234,-0.19
35.52,-0.015,0.874,-0.058
35.53,-0.151,1.166,0.076
35.54,-0.151,0.647,0.202
35.55,-0.315,1.108,-0.153
35.56,-0.244,0.931,-0.148
35.57,-0.173,1.057,0.114
35.58,-0.132,1.01,0.13
35.59,-0.189,0.684,-0.006
35.6,-0.153,1.083,0.112
35.61,-0.063,0.702,0.077
35.62,-0.395,1.106,-0.187
35.63,-0.208,0.987,-0.075
35.64,-0.111,1.024,0.06
35.65,-0.131,0.916,0.129
35.66,-0.263,0.787,0.006
35.67,-0.387,1.245,-0.178
35.68,-0.086,0.771,-0.029
35.69,-0.104,1.191,0.155
35.7,-0.122,0.696,0.074
35.71,-0.43,1.093,-0.155
35.72,-0.149,1.047,-0.078
35.73,-0.104,0.96,0.082
35.74,-0.161,0.992,0.155
35.75,-0.308,0.778,-0.046
35.76,-0.389,1.238,-0.156
35.77,-0.189,0.854,0.05
35.78,-0.116,1.114,0.15
35.79,-0.108,0.74,0.056
35.8,-0.422,1.01,-0.175
35.81,-0.128,1.165,-0.1
35.82,-0.152,0.831,0.111
35.83,-0.141,0.999,0.127
35.84,-0.275,0.76,-0.077
35.85,-0.35,1.215,-0.18
35.86,-0.145,0.879,0.023
35.87,-0.155,1.068,0.227
35.88,-0.132,0.822,0.051
35.89,-0.467,0.922,-0.182
35.9,-0.108,1.245,-0.067
35.91,-0.136,0.806,0.073
35.92,-0.217,0.995,0.153
35.93,-0.255,0.775,-0.082
35.94,-0.265,1.181,-0.194
35.95,-0.208,0.919,0.104
35.96,-0.104,0.959,0.163
35.97,-0.15,0.877,0.051
35.98,-0.398,0.91,-0.155
35.99,-0.156,1.233,-0.078
36.0,-0.109,0.708,0.07
36.01,-0.173,1.04,0.173
36.02,-0.277,0.823,-0.128
36.03,-0.331,1.077,-0.107
36.04,-0.2,1.042,0.083
36.05,-0.022,0.894,0.135
36.06,-0.231,0.933,0.003
36.07,-0.395,0.858,-0.136
36.08,-0.074,1.318,-0.064
36.09,-0.123,0.719,0.057
36.1,-0.192,0.993,0.209
36.11,-0.3,0.924,-0.141
36.12,-0.317,1.01,-0.159
36.13,-0.07,1.121,0.087
36.14,-0.101,0.797,0.155
36.15,-0.273,0.974,-0.027
36.16,-0.337,0.897,-0.116
36.17,-0.197,1.25,-0.02
36.18,-0.124,0.709,0.091
36.19,-0.124,0.994,0.182
36.2,-0.36,0.981,-0.149
36.21,-0.31,0.896,-0.145
36.22,-0.111,1.213,0.062
36.23,-0.037,0.708,0.129
36.24,-0.283,1.037,-0.018
36.25,-0.356,0.915,-0.127
36.26,-0.145,1.203,-0.026
36.27,-0.166,0.766,0.085
36.28,-0.1,0.908,0.179
36.29,-0.326,1.039,-0.189
36.3,-0.29,0.82,-0.128
36.31,-0.13,1.292,0.073
36.32,-0.143,0.704,0.139
36.33,-0.269,1.037,0.045
36.34,-0.348,0.975,-0.201
36.35,-0.121,1.156,-0.047
36.36,-0.171,0.825,0.103
36.37,-0.097,0.838,0.184
36.38,-0.351,1.096,-0.217
36.39,-0.218,0.943,-0.094
36.4,-0.056,1.229,0.042
36.41,-0.153,0.641,0.131
36.42,-0.277,1.109,0.023
36.43,-0.323,0.923,-0.22
36.44,-0.131,1.076,0.005
36.45,-0.203,0.829,0.208
36.46,-0.154,0.917,0.099
36.47,-0.438,1.009,-0.235
36.48,-0.114,0.889,-0.103
36.49,-0.135,1.217,0.076
36.5,-0.182,0.683,0.17
36.51,-0.269,1.124,-0.01
36.52,-0.327,0.876,-0.199
36.53,-0.252,1.118,0.066
36.54,-0.149,0.905,0.144
36.55,-0.093,0.846,0.098
36.56,-0.404,1.099,-0.2
36.57,-0.186,0.827,-0.029
36.58,-0.062,1.23,0.048
36.59,-0.197,0.678,0.14
36.6,-0.292,1.084,-0.014
36.61,-0.365,0.933,-0.219
36.62,-0.198,1.046,0.07
36.63,-0.055,1.004,0.114
36.64,-0.14,0.716,0.056
36.65,-0.383,1.147,-0.165
36.66,-0.085,0.875,-0.077
36.67,-0.108,1.2,0.045
36.68,-0.099,0.612,0.174
36.69,-0.342,1.064,-0.023
36.7,-0.358,1.031,-0.18
36.71,-0.107,0.941,-0.011
36.72,-0.082,1.083,0.181
36.73,-0.168,0.718,0.061
36.74,-0.409,1.208,-0.192
36.75,-0.098,0.875,-0.025
36.76,-0.174,1.21,0.073
36.77,-0.058,0.67,0.121
36.78,-0.335,1.005,-0.026
36.79,-0.365,0.993,-0.189
36.8,-0.113,0.947,0.004
36.81,-0.108,1.162,0.137
36.82,-0.195,0.618,0.056
36.83,-0.419,1.258,-0.141
36.84,0.006,0.965,-0.082
36.85,-0.188,1.091,0.046
36.86,-0.141,0.749,0.212
36.87,-0.267,0.962,-0.117
36.88,-0.344,1.078,-0.161
36.89,-0.122,0.913,0.088
36.9,-0.128,1.141,0.129
36.91,-0.203,0.633,0.05
36.92,-0.395,1.262,-0.188
36.93,-0.143,0.958,-0.078
36.94,-0.071,0.983,0.079
36.95,-0.14,0.874,0.211
36.96,-0.33,0.901,-0.109
36.97,-0.343,1.112,-0.136
36.98,-0.134,0.866,0.089
36.99,-0.153,1.181,0.103
37.0,-0.153,0.641,0.049
37.01,-0.396,1.194,-0.2
37.02,-0.139,0.975,-0.086
37.03,-0.11,0.904,0.129
37.04,-0.096,0.928,0.138
37.05,-0.329,0.857,-0.13
37.06,-0.264,1.132,-0.171
37.07,-0.117,0.852,0.076
37.08,-0.083,1.157,0.121
37.09,-0.146,0.68,0.024
37.1,-0.463,1.116,-0.164
37.11,-0.049,1.092,-0.062
37.12,-0.186,0.871,0.092
37.13,-0.164,0.933,0.211
37.14,-0.308,0.808,-0.108
37.15,-0.337,1.209,-0.141
37.16,-0.089,0.891,0.045
37.17,-0.107,1.076,0.143
37.18,-0.167,0.737,0.032
37.19,-0.416,1.249,-0.173
37.2,-0.103,0.943,-0.007
37.21,-0.206,0.937,0.126
37.22,-0.1,0.965,0.133
37.23,-0.372,0.829,-0.161
37.24,-0.28,1.132,-0.123
37.25,-0.046,0.938,0.09
37.26,-0.151,1.024,0.141
37.27,-0.214,0.704,0.001
37.28,-0.39,1.225,-0.186
37.29,-0.079,0.975,-0.051
37.3,-0.137,0.868,0.15
37.31,-0.08,1.047,0.098
37.32,-0.382,0.831,-0.154
37.33,-0.354,1.183,-0.107
37.34,-0.111,0.926,0.085
37.35,-0.055,1.012,0.092
37.36,-0.248,0.787,-0.033
37.37,-0.367,1.086,-0.139
37.38,-0.126,1.076,-0.034
37.39,-0.115,0.773,0.126
37.4,-0.169,1.079,0.116
37.41,-0.319,0.765,-0.156
37.42,-0.277,1.201,-0.123
37.43,-0.089,0.955,0.087
37.44,-0.139,0.918,0.124
37.45,-0.238,0.842,0.014
37.46,-0.301,1.072,-0.197
37.47,-0.149,1.083,-0.037
37.48,-0.129,0.739,0.163
37.49,-0.119,1.107,0.076
37.5,-0.415,0.758,-0.143
37.51,-0.224,1.137,-0.103
37.52,-0.087,1.026,0.058
37.53,-0.173,0.831,0.14
37.54,-0.206,0.981,0.004
37.55,-0.282,1.019,-0.18
37.56,-0.226,1.124,-0.017
37.57,-0.135,0.726,0.188
37.58,-0.098,1.097,0.059
37.59,-0.397,0.813,-0.184
37.6,-0.252,1.07,-0.062
37.61,-0.022,1.081,0.075
37.62,-0.18,0.762,0.16
37.63,-0.309,1.008,0.017
37.64,-0.253,0.937,-0.18
37.65,-0.181,1.198,-0.028
37.66,-0.132,0.71,0.152
37.67,-0.087,1.049,0.131
37.68,-0.421,0.878,-0.162
37.69,-0.234,0.992,-0.101
37.7,-0.037,1.109,0.069
37.71,-0.14,0.739,0.133
37.72,-0.329,1.062,-0.004
37.73,-0.233,0.895,-0.179
37.74,-0.096,1.225,-0.036
37.75,-0.234,0.782,0.21
37.76,-0.082,0.978,0.076
37.77,-0.387,0.97,-0.182
37.78,-0.28,0.947,-0.06
37.79,-0.077,1.209,0.068
37.8,-0.106,0.668,0.146
37.81,-0.329,1.105,-0.034
37.82,-0.278,0.922,-0.174
37.83,-0.131,1.153,-0.017
37.84,-0.2,0.775,0.149
37.85,-0.147,0.927,0.147
37.86,-0.381,1.042,-0.209
37.87,-0.235,0.895,-0.064
37.88,-0.103,1.21,0.078
37.89,-0.07,0.632,0.15
37.9,-0.338,1.126,-0.051
37.91,-0.238,0.904,-0.187
37.92,-0.159,1.077,-0.004
37.93,-0.233,0.86,0.182
37.94,-0.108,0.866,0.081
37.95,-0.358,1.11,-0.222
37.96,-0.247,0.874,-0.031
37.97,-0.076,1.239,0.046
37.98,-0.064,0.603,0.167
37.99,-0.317,1.111,0.006
38.0,-0.257,0.948,-0.243
38.01,-0.125,1.118,-0.012
38.02,-0.165,0.852,0.169
38.03,-0.116,0.942,0.049
38.04,-0.371,1.036,-0.203
38.05,-0.212,0.905,-0.003
38.06,-0.117,1.237,0.08
38.07,-0.097,0.61,0.138
38.08,-0.347,1.109,-0.027
38.09,-0.247,0.873,-0.216
38.1,-0.179,1.155,0.035
38.11,-0.104,0.905,0.119
38.12,-0.142,0.808,0.068
38.13,-0.411,1.11,-0.167
38.14,-0.097,0.903,-0.043
38.15,-0.166,1.194,0.064
38.16,-0.144,0.644,0.189
38.17,-0.327,1.13,-0.11
38.18,-0.272,0.874,-0.145
38.19,-0.141,1.1,0.065
38.2,-0.113,0.959,0.128
38.21,-0.138,0.739,0.038
38.22,-0.476,1.19,-0.154
38.23,-0.121,0.89,-0.057
38.24,-0.154,1.227,0.06
38.25,-0.12,0.602,0.179
38.26,-0.331,1.105,-0.061
38.27,-0.304,0.969,-0.173
38.28,-0.114,0.986,0.025
38.29,-0.11,1.025,0.138
38.3,-0.171,0.713,0.044
38.31,-0.413,1.224,-0.197
38.32,-0.072,0.89,-0.063
38.33,-0.162,1.171,0.076
38.34,-0.16,0.686,0.206
38.35,-0.288,1.061,-0.087
38.36,-0.344,0.999,-0.204
38.37,-0.143,0.912,0.086
38.38,-0.067,1.136,0.122
38.39,-0.166,0.656,-0.004
38.4,-0.452,1.228,-0.175
38.41,-0.042,0.904,-0.07
38.42,-0.178,1.139,0.097
38.43,-0.121,0.782,0.178
38.44,-0.306,0.974,-0.102
38.45,-0.383,1.043,-0.18
38.46,-0.118,0.899,0.092
38.47,-0.136,1.167,0.134
38.48,-0.139,0.588,0.033
38.49,-0.431,1.263,-0.141
38.5,-0.12,0.987,-0.095
38.51,-0.157,1.012,0.103
38.52,-0.141,0.867,0.152
38.53,-0.316,0.909,-0.122
38.54,-0.314,1.089,-0.178
38.55,-0.111,0.914,0.111
38.56,-0.146,1.162,0.135
38.57,-0.112,0.603,0.017
38.58,-0.401,1.258,-0.179
38.59,-0.062,0.982,-0.1
38.6,-0.204,0.927,0.115
38.61,-0.174,0.946,0.199
38.62,-0.288,0.83,-0.142
38.63,-0.306,1.12,-0.15
38.64,-0.067,0.941,0.11
38.65,-0.202,1.11,0.143
38.66,-0.149,0.664,0.042
38.67,-0.41,1.197,-0.147
38.68,-0.134,1.042,-0.086
38.69,-0.192,0.879,0.064
38.7,-0.067,1.039,0.158
38.71,-0.285,0.788,-0.153
38.72,-0.381,1.156,-0.109
38.73,0.004,0.93,0.056
38.74,-0.18,1.071,0.098
38.75,-0.153,0.712,0.057
38.76,-0.462,1.159,-0.168
38.77,-0.078,1.097,-0.114
38.78,-0.175,0.805,0.078
38.79,-0.185,1.019,0.19
38.8,-0.313,0.774,-0.131
38.81,-0.345,1.144,-0.157
38.82,0.015,0.964,0.058
38.83,-0.108,1.096,0.112
38.84,-0.215,0.674,0.06
38.85,-0.391,1.202,-0.154
38.86,-0.179,1.023,-0.08
38.87,-0.193,0.827,0.134
38.88,-0.064,1.039,0.136
38.89,-0.404,0.794,-0.171
38.9,-0.307,1.096,-0.13
38.91,0.041,0.979,0.117
38.92,-0.188,1.002,0.116
38.93,-0.3,0.738,0.071
38.94,-0.28,1.169,-0.178
38.95,-0.174,1.043,-0.106
38.96,-0.184,0.742,0.184
38.97,-0.074,1.102,0.155
38.98,-0.381,0.736,-0.19
38.99,-0.323,1.178,-0.074
39.0,0.029,0.96,0.035
39.01,-0.152,0.942,0.106
39.02,-0.224,0.813,-0.005
39.03,-0.348,1.11,-0.155
39.04,-0.085,1.107,-0.074
39.05,-0.206,0.767,0.165
39.06,-0.129,1.076,0.146
39.07,-0.313,0.788,-0.168
39.08,-0.279,1.185,-0.102
39.09,-0.079,0.98,0.06
39.1,-0.092,0.877,0.125
39.11,-0.317,0.888,0.008
39.12,-0.329,1.034,-0.128
39.13,-0.083,1.17,-0.016
39.14,-0.238,0.717,0.154
39.15,-0.098,1.08,0.159
39.16,-0.322,0.823,-0.159
39.17,-0.304,1.096,-0.098
39.18,-0.015,1.052,0.045
39.19,-0.087,0.817,0.135
39.2,-0.342,0.991,0.035
39.21,-0.281,0.966,-0.148
39.22,-0.124,1.268,-0.04
39.23,-0.187,0.697,0.144
39.24,-0.071,1.042,0.171
39.25,-0.396,0.89,-0.168
39.26,-0.275,1.039,-0.103
39.27,-0.012,1.104,0.054
39.28,-0.095,0.714,0.109
39.29,-0.356,1.047,0.01
39.3,-0.237,0.928,-0.186
39.31,-0.139,1.207,-0.016
39.32,-0.155,0.754,0.147
39.33,-0.108,1.028,0.105
39.34,-0.387,0.919,-0.171
39.35,-0.27,0.978,-0.095
39.36,-0.049,1.166,0.049
39.37,-0.117,0.658,0.141
39.38,-0.404,1.094,-0.004
39.39,-0.214,0.893,-0.21
39.4,-0.13,1.189,0.022
39.41,-0.172,0.769,0.145
39.42,-0.03,0.927,0.048
39.43,-0.429,1.052,-0.204
39.44,-0.194,0.884,-0.07
39.45,-0.055,1.202,0.036
39.46,-0.17,0.635,0.131
39.47,-0.352,1.123,-0.038
39.48,-0.277,0.915,-0.191
39.49,-0.194,1.076,0.03
39.5,-0.187,0.863,0.178
39.51,-0.039,0.89,0.084
39.52,-0.418,1.114,-0.214
39.53,-0.218,0.808,-0.046
39.54,-0.018,1.261,0.035
39.55,-0.152,0.63,0.155
39.56,-0.403,1.099,0.006
39.57,-0.245,0.943,-0.234
39.58,-0.177,1.019,-0.007
39.59,-0.146,0.935,0.201
39.6,-0.089,0.838,0.038
39.61,-0.429,1.137,-0.261
39.62,-0.13,0.821,0.004
39.63,-0.108,1.259,0.066
39.64,-0.109,0.643,0.169
39.65,-0.315,1.202,-0.111
39.66,-0.279,0.832,-0.148
39.67,-0.125,1.199,0.082
39.68,-0.081,0.874,0.151
39.69,-0.239,0.831,0.022
39.7,-0.451,1.103,-0.171
39.71,-0.049,0.9,-0.06
39.72,-0.2,1.103,0.077
39.73,-0.129,0.686,0.204
39.74,-0.374,1.176,-0.168
39.75,-0.203,0.826,-0.167
39.76,-0.155,1.186,0.136
39.77,-0.136,0.875,0.11
39.78,-0.209,0.759,0.025
39.79,-0.444,1.262,-0.183
39.8,-0.137,0.818,-0.018
39.81,-0.196,1.136,0.16
39.82,-0.035,0.759,0.148
39.83,-0.44,1.092,-0.168
39.84,-0.234,0.908,-0.059
39.85,-0.075,1.149,0.094
39.86,-0.147,0.899,0.105
39.87,-0.231,0.745,0.018
39.88,-0.395,1.289,-0.233
39.89,-0.105,0.762,-0.003
39.9,-0.201,1.185,0.144
39.91,-0.065,0.741,0.106
39.92,-0.452,1.072,-0.161
39.93,-0.202,1.061,-0.076
39.94,-0.097,0.952,0.066
39.95,-0.161,0.937,0.154
39.96,-0.319,0.755,-0.044
39.97,-0.301,1.274,-0.212
39.98,-0.149,0.827,0.003
39.99,-0.131,1.105,0.119
40.0,-0.072,0.758,0.092
40.01,-0.447,1.026,-0.172
40.02,-0.202,1.1,-0.082
40.03,-0.022,0.909,0.036
40.04,-0.149,0.987,0.146
40.05,-0.269,0.732,-0.057
40.06,-0.304,1.26,-0.238
40.07,-0.169,0.886,0.023
40.08,-0.114,1.074,0.184
40.09,-0.085,0.798,0.025
40.1,-0.502,0.978,-0.123
40.11,-0.088,1.191,-0.045
40.12,-0.108,0.778,0.072
40.13,-0.172,1.018,0.148
40.14,-0.224,0.75,-0.056
40.15,-0.362,1.189,-0.252
40.16,-0.137,0.929,0.049
40.17,-0.053,1.041,0.128
40.18,-0.203,0.83,0.008
40.19,-0.384,0.912,-0.133
40.2,-0.067,1.276,-0.056
40.21,-0.122,0.753,0.075
40.22,-0.181,1.039,0.202
40.23,-0.183,0.812,-0.145
40.24,-0.394,1.095,-0.149
40.25,-0.085,1.029,0.127
40.26,-0.134,0.944,0.132
40.27,-0.246,0.907,-0.013
40.28,-0.406,0.92,-0.132
40.29,-0.067,1.252,-0.087
40.3,-0.154,0.72,0.099
40.31,-0.116,1.026,0.19
40.32,-0.257,0.893,-0.138
40.33,-0.383,0.976,-0.136
40.34,-0.083,1.111,0.115
40.35,-0.056,0.851,0.081
40.36,-0.315,0.97,0.023
40.37,-0.355,0.869,-0.116
40.38,-0.135,1.313,-0.072
40.39,-0.224,0.689,0.09
40.4,-0.077,0.978,0.142
40.41,-0.258,0.959,-0.185
40.42,-0.358,0.926,-0.142
40.43,0.037,1.186,0.043
40.44,-0.073,0.746,0.096
40.45,-0.337,1.034,0.033
40.46,-0.252,0.95,-0.195
40.47,-0.249,1.165,-0.049
40.48,-0.194,0.717,0.229
40.49,-0.022,1.052,0.102
40.5,-0.379,0.84,-0.162
40.51,-0.237,1.009,-0.029
40.52,-0.069,1.109,0.022
40.53,-0.161,0.706,0.141
40.54,-0.291,1.066,0.038
40.55,-0.264,0.955,-0.212
40.56,-0.15,1.158,-0.026
40.57,-0.194,0.771,0.176
40.58,-0.104,0.982,0.115
40.59,-0.403,0.945,-0.176
40.6,-0.201,0.988,-0.058
40.61,-0.137,1.164,0.062
40.62,-0.097,0.65,0.125
40.63,-0.263,1.075,-0.036
40.64,-0.304,0.916,-0.136
40.65,-0.2,1.147,-0.055
40.66,-0.162,0.762,0.17
40.67,-0.141,0.987,0.143
40.68,-0.423,0.973,-0.196
40.69,-0.217,0.877,-0.055
40.7,-0.087,1.311,0.028
40.71,-0.081,0.61,0.112
40.72,-0.314,1.104,0.037
40.73,-0.242,0.942,-0.205
40.74,-0.174,1.085,-0.055
40.75,-0.203,0.821,0.177
40.76,-0.104,0.905,0.128
40.77,-0.452,1.055,-0.207
40.78,-0.2,0.799,-0.044
40.79,-0.078,1.328,0.06
40.8,-0.097,0.611,0.091
40.81,-0.255,1.062,0.017
40.82,-0.257,0.992,-0.209
40.83,-0.174,1.059,-0.047
40.84,-0.209,0.903,0.155
40.85,-0.054,0.824,0.097
40.86,-0.512,1.116,-0.186
40.87,-0.253,0.779,-0.035
40.88,-0.083,1.329,0.041
40.89,-0.124,0.611,0.121
40.9,-0.259,1.047,0.042
40.91,-0.292,1.041,-0.209
40.92,-0.215,0.957,-0.079
40.93,-0.126,0.947,0.131
40.94,-0.044,0.794,0.123
40.95,-0.507,1.148,-0.167
40.96,-0.235,0.736,-0.05
40.97,-0.088,1.32,0.066
40.98,-0.126,0.715,0.158
40.99,-0.229,0.95,0.008
41.0,-0.365,1.078,-0.156
41.01,-0.124,0.953,-0.049
41.02,-0.164,1.007,0.105
41.03,-0.08,0.761,0.191
41.04,-0.445,1.181,-0.17
41.05,-0.256,0.738,-0.131
41.06,-0.064,1.3,0.098
41.07,-0.147,0.782,0.119
41.08,-0.347,0.885,0.035
41.09,-0.247,1.179,-0.201
41.1,-0.099,0.894,-0.105
41.11,-0.3,1.037,0.198
41.12,0.063,0.703,0.113
41.13,-0.486,1.159,-0.186
41.14,-0.237,0.761,-0.072
41.15,0.002,1.24,0.033
41.16,-0.166,0.836,0.157
41.17,-0.299,0.845,0.054
41.18,-0.367,1.197,-0.192
41.19,-0.148,0.805,-0.024
41.2,-0.217,1.202,0.146
41.21,-0.045,0.688,0.131
41.22,-0.435,1.08,-0.174
41.23,-0.13,0.857,-0.125
41.24,-0.155,1.163,0.091
41.25,-0.043,0.87,0.118
41.26,-0.285,0.784,0.038
41.27,-0.381,1.129,-0.141
41.28,-0.164,0.895,-0.019
41.29,-0.19,1.097,0.169
41.3,-0.096,0.703,0.116
41.31,-0.401,1.196,-0.171
41.32,-0.201,0.801,-0.082
41.33,-0.125,1.216,0.092
41.34,-0.051,0.804,0.087
41.35,-0.243,0.822,-0.005
41.36,-0.358,1.238,-0.151
41.37,-0.15,0.879,-0.015
41.38,-0.164,1.071,0.147
41.39,-0.039,0.724,0.14
41.4,-0.475,1.192,-0.2
41.41,-0.216,0.782,-0.12
41.42,-0.074,1.194,0.067
41.43,-0.167,0.892,0.181
41.44,-0.256,0.727,-0.018
41.45,-0.286,1.317,-0.196
41.46,-0.16,0.823,-0.067
41.47,-0.189,1.095,0.124
41.48,-0.022,0.704,0.134
41.49,-0.468,1.051,-0.138
41.5,-0.296,0.957,-0.095
41.51,0.008,1.086,0.006
41.52,-0.24,0.966,0.164
41.53,-0.227,0.725,0.03
41.54,-0.358,1.33,-0.193
41.55,-0.102,0.808,-0.056
41.56,-0.18,1.134,0.153
41.57,-0.123,0.779,0.152
41.58,-0.392,0.962,-0.154
41.59,-0.182,0.99,-0.131
41.6,-0.074,1.032,0.08
41.61,-0.173,1.016,0.123
41.62,-0.185,0.654,-0.001
41.63,-0.437,1.292,-0.167
41.64,-0.06,0.866,-0.092
41.65,-0.159,1.028,0.096
41.66,-0.119,0.827,0.167
41.67,-0.354,0.946,-0.143
41.68,-0.274,1.069,-0.107
41.69,-0.141,0.958,0.107
41.7,-0.09,1.091,0.11
41.71,-0.222,0.647,0.027
41.72,-0.39,1.284,-0.163
41.73,-0.084,0.938,-0.055
41.74,-0.227,0.98,0.091
41.75,-0.128,0.878,0.171
41.76,-0.267,0.948,-0.176
41.77,-0.312,1.078,-0.136
41.78,-0.087,0.924,0.093
41.79,-0.086,1.139,0.095
41.8,-0.176,0.638,0.011
41.81,-0.392,1.263,-0.183
41.82,-0.065,0.995,-0.1
41.83,-0.176,0.882,0.074
41.84,-0.141,0.956,0.218
41.85,-0.338,0.839,-0.152
41.86,-0.302,1.121,-0.135
41.87,-0.103,0.926,0.11
41.88,-0.126,1.074,0.12
41.89,-0.218,0.667,0.029
41.9,-0.375,1.161,-0.136
41.91,-0.13,1.073,-0.056
41.92,-0.157,0.85,0.086
41.93,-0.143,0.997,0.179
41.94,-0.311,0.781,-0.126
41.95,-0.286,1.196,-0.114
41.96,-0.138,0.911,0.067
41.97,-0.123,1.027,0.135
41.98,-0.165,0.775,0.035
41.99,-0.424,1.116,-0.192
42.0,-0.065,1.097,-0.128
42.01,-0.135,0.815,0.104
42.02,-0.142,1.008,0.173
42.03,-0.331,0.786,-0.117
42.04,-0.337,1.143,-0.124
42.05,-0.186,0.899,0.116
42.06,-0.111,0.997,0.139
42.07,-0.164,0.854,0.06
42.08,-0.402,0.996,-0.18
42.09,-0.135,0.987,-0.07
42.1,-0.126,0.848,0.087
42.11,-0.184,0.994,0.189
42.12,-0.271,0.815,-0.125
42.13,-0.336,1.166,-0.121
42.14,-0.135,0.885,0.097
42.15,-0.11,1.104,0.141
42.16,-0.213,0.752,0.022
42.17,-0.377,1.068,-0.144
42.18,-0.076,1.181,-0.111
42.19,-0.168,0.767,0.022
42.2,-0.077,1.043,0.179
42.21,-0.315,0.833,-0.155
42.22,-0.313,1.11,-0.172
42.23,-0.1,0.907,0.074
42.24,-0.035,1.039,0.119
42.25,-0.244,0.804,0.05
42.26,-0.427,0.938,-0.124
42.27,-0.093,1.222,-0.072
42.28,-0.171,0.761,0.089
42.29,-0.181,1.02,0.193
42.3,-0.203,0.823,-0.134
42.31,-0.339,1.167,-0.177
42.32,-0.145,0.901,0.046
42.33,-0.018,1.004,0.153
42.34,-0.267,0.943,0.057
42.35,-0.414,0.88,-0.169
42.36,-0.126,1.269,-0.057
42.37,-0.125,0.772,0.054
42.38,-0.199,1.024,0.168
42.39,-0.188,0.847,-0.112
42.4,-0.321,1.088,-0.134
42.41,-0.185,0.984,0.055
42.42,-0.073,0.938,0.156
42.43,-0.213,0.954,0.015
42.44,-0.367,0.817,-0.134
42.45,-0.156,1.309,-0.043
42.46,-0.183,0.815,0.061
42.47,-0.152,0.917,0.138
42.48,-0.224,0.907,-0.022
42.49,-0.329,1.103,-0.218
42.5,-0.186,0.999,0.006
42.51,-0.033,0.865,0.2
42.52,-0.168,1.035,0.022
42.53,-0.372,0.761,-0.182
42.54,-0.178,1.243,-0.046
42.55,-0.111,0.873,0.054
42.56,-0.197,0.919,0.177
42.57,-0.218,0.951,-0.06
42.58,-0.314,0.981,-0.199
42.59,-0.195,1.065,0.037
42.6,-0.026,0.822,0.174
42.61,-0.177,1.068,0.059
42.62,-0.334,0.748,-0.19
42.63,-0.187,1.21,-0.056
42.64,-0.035,0.93,0.041
42.65,-0.168,0.845,0.138
42.66,-0.298,0.972,0.004
42.67,-0.266,0.976,-0.196
42.68,-0.175,1.115,-0.008
42.69,-0.137,0.757,0.213
42.7,-0.147,1.068,0.025
42.71,-0.311,0.752,-0.195
42.72,-0.195,1.164,-0.052
42.73,-0.051,1.008,0.055
42.74,-0.12,0.776,0.142
42.75,-0.319,1.04,0.032
42.76,-0.301,0.911,-0.183
42.77,-0.171,1.14,-0.037
42.78,-0.133,0.75,0.211
42.79,-0.097,1.069,0.039
42.8,-0.371,0.84,-0.134
42.81,-0.219,1.069,-0.071
42.82,-0.1,1.069,0.074
42.83,-0.126,0.708,0.168
42.84,-0.295,1.113,0.003
42.85,-0.295,0.891,-0.182
42.86,-0.186,1.192,-0.011
42.87,-0.167,0.774,0.145
42.88,-0.096,1.01,0.106
42.89,-0.378,0.924,-0.166
42.9,-0.244,1.094,-0.057
42.91,-0.026,0.969,0.052
42.92,-0.101,0.811,0.169
42.93,-0.337,1.026,-0.005
42.94,-0.269,0.906,-0.18
42.95,-0.165,1.205,-0.052
42.96,-0.128,0.743,0.139
42.97,-0.124,1.048,0.093
42.98,-0.387,0.829,-0.19
42.99,-0.146,1.05,-0.075
43.0,-0.086,1.066,0.067
43.01,-0.089,0.739,0.125
43.02,-0.242,1.098,0.01
43.03,-0.284,0.885,-0.176
43.04,-0.158,1.164,-0.033
43.05,-0.115,0.784,0.134
43.06,-0.128,1.031,0.113
43.07,-0.352,0.891,-0.177
43.08,-0.224,0.978,-0.047
43.09,-0.105,1.146,0.039
43.1,-0.082,0.698,0.139
43.11,-0.282,1.114,0.002
43.12,-0.327,0.888,-0.162
43.13,-0.136,1.16,-0.035
43.14,-0.184,0.827,0.139
43.15,-0.121,0.952,0.154
43.16,-0.317,0.984,-0.169
43.17,-0.315,0.896,-0.082
43.18,-0.075,1.17,0.017
43.19,-0.028,0.717,0.132
43.2,-0.273,1.073,0.014
43.21,-0.349,0.887,-0.154
43.22,-0.171,1.158,-0.059
43.23,-0.136,0.858,0.09
43.24,-0.12,0.891,0.159
43.25,-0.338,1.08,-0.155
43.26,-0.26,0.791,-0.131
43.27,-0.192,1.253,0.068
43.28,-0.02,0.772,0.173
43.29,-0.233,1.046,-0.041
43.3,-0.36,0.831,-0.156
43.31,-0.098,1.144,-0.082
43.32,-0.116,0.942,0.05
43.33,-0.165,0.771,0.219
43.34,-0.282,1.135,-0.098
43.35,-0.259,0.767,-0.138
43.36,-0.256,1.248,0.098
43.37,-0.026,0.799,0.11
43.38,-0.187,0.988,0.03
43.39,-0.404,0.944,-0.162
43.4,-0.096,1.081,-0.079
43.41,-0.169,1.027,0.04
43.42,-0.076,0.652,0.172
43.43,-0.275,1.17,-0.049
43.44,-0.319,0.812,-0.181
43.45,-0.192,1.183,0.025
43.46,-0.051,0.854,0.139
43.47,-0.128,0.959,0.039
43.48,-0.377,0.946,-0.177
43.49,-0.118,0.977,-0.049
43.5,-0.148,1.15,0.03
43.51,-0.077,0.621,0.206
43.52,-0.296,1.173,-0.033
43.53,-0.303,0.853,-0.195
43.54,-0.127,1.106,-0.015
43.55,-0.057,0.88,0.161
43.56,-0.241,0.887,0.063
43.57,-0.335,1.008,-0.159
43.58,-0.23,0.937,-0.016
43.59,-0.097,1.232,0.017
43.6,-0.125,0.598,0.158
43.61,-0.279,1.118,0.008
43.62,-0.291,0.918,-0.206
43.63,-0.193,1.053,0.012
43.64,-0.157,0.914,0.142
43.65,-0.058,0.876,0.101
43.66,-0.402,1.062,-0.162
43.67,-0.216,0.817,-0.063
43.68,-0.117,1.335,0.021
43.69,-0.117,0.66,0.149
43.7,-0.296,1.062,0.017
43.71,-0.272,0.878,-0.21
43.72,-0.18,1.113,-0.006
43.73,-0.158,0.829,0.165
43.74,-0.052,0.933,0.127
43.75,-0.383,1.007,-0.17
43.76,-0.229,0.845,-0.107
43.77,-0.024,1.278,0.003
43.78,-0.069,0.66,0.137
43.79,-0.399,1.083,0.064
43.8,-0.23,0.94,-0.216
43.81,-0.149,1.111,-0.026
43.82,-0.251,0.827,0.162
43.83,0.008,0.852,0.141
43.84,-0.399,1.159,-0.154
43.85,-0.255,0.799,-0.141
43.86,-0.165,1.28,0.037
43.87,-0.01,0.721,0.119
43.88,-0.27,1.067,-0.01
43.89,-0.357,0.885,-0.134
43.9,-0.085,1.12,-0.072
43.91,-0.207,0.954,0.096
43.92,-0.161,0.748,0.245
43.93,-0.312,1.172,-0.116
43.94,-0.29,0.833,0.104
43.95,-0.052,1.082,0.119
43.96,-0.242,0.68,0.025
43.97,-0.375,1.256,-0.171
43.98,-0.034,0.959,-0.086
43.99,-0.232,0.988,0.081
44.0,-0.148,0.849,0.216
44.01,-0.261,0.851,-0.088
44.02,-0.306,1.165,-0.115
44.03,-0.174,0.874,0.064
44.04,-0.082,1.136,0.136
44.05,-0.08,0.689,0.016
44.06,-0.486,1.141,-0.183
44.07,-0.085,1.025,-0.077
44.08,-0.085,0.959,0.074
44.09,-0.161,0.941,0.163
44.1,-0.292,0.837,-0.043
44.11,-0.267,1.214,-0.187
44.12,-0.176,0.825,0.004
44.13,-0.202,1.116,0.184
44.14,-0.053,0.771,0.065
44.15,-0.483,1.002,-0.158
44.16,-0.208,1.041,-0.052
44.17,0.023,0.998,0.046
44.18,-0.133,0.961,0.163
44.19,-0.334,0.719,-0.017
44.2,-0.221,1.331,-0.204
44.21,-0.131,0.859,-0.066
44.22,-0.273,0.991,0.191
44.23,-0.006,0.875,0.093
44.24,-0.413,0.969,-0.215
44.25,-0.303,1.082,-0.029
44.26,-0.041,0.988,0.04
44.27,-0.114,0.988,0.126
44.28,-0.314,0.685,-0.019
44.29,-0.297,1.289,-0.184
44.3,-0.104,0.882,-0.079
44.31,-0.263,0.964,0.18
44.32,-0.026,0.898,0.13
44.33,-0.418,0.924,-0.158
44.34,-0.311,1.116,-0.09
44.35,-0.05,0.938,0.034
44.36,-0.052,1.056,0.152
44.37,-0.249,0.704,0.001
44.38,-0.372,1.247,-0.159
44.39,-0.115,0.971,-0.075
44.4,-0.218,0.889,0.132
44.41,-0.116,0.988,0.178
44.42,-0.3,0.873,-0.177
44.43,-0.215,1.138,-0.138
44.44,-0.211,0.925,0.102
44.45,-0.098,1.036,0.137
44.46,-0.146,0.713,0.03
44.47,-0.453,1.269,-0.131
44.48,-0.083,0.91,-0.077
44.49,-0.161,0.948,0.103
44.5,-0.207,0.888,0.224
44.51,-0.319,0.896,-0.168
44.52,-0.204,1.075,-0.133
44.53,-0.175,0.954,0.137
44.54,-0.045,1.15,0.116
44.55,-0.205,0.657,-0.006
44.56,-0.449,1.172,-0.118
44.57,-0.079,1.034,-0.096
44.58,-0.17,0.914,0.042
44.59,-0.199,0.902,0.212
44.6,-0.302,0.854,-0.119
44.61,-0.29,1.156,-0.153
44.62,-0.162,0.902,0.113
44.63,-0.051,1.144,0.096
44.64,-0.167,0.683,0.039
44.65,-0.453,1.141,-0.113
44.66,-0.074,1.102,-0.093
44.67,-0.122,0.86,0.072
44.68,-0.182,0.978,0.174
44.69,-0.288,0.809,-0.114
44.7,-0.318,1.181,-0.141
44.71,-0.24,0.873,0.102
44.72,-0.086,1.102,0.128
44.73,-0.13,0.749,0.059
44.74,-0.433,1.072,-0.164
44.75,-0.101,1.128,-0.124
44.76,-0.152,0.833,0.097
44.77,-0.151,1.006,0.158
44.78,-0.271,0.792,-0.13
44.79,-0.32,1.154,-0.157
44.8,-0.147,0.902,0.031
44.81,-0.161,1.088,0.148
44.82,-0.07,0.83,0.055
44.83,-0.396,0.96,-0.165
44.84,-0.157,1.219,-0.054
44.85,-0.114,0.804,0.042
44.86,-0.068,0.984,0.154
44.87,-0.304,0.79,-0.046
44.88,-0.3,1.207,-0.198
44.89,-0.142,0.915,-0.008
44.9,-0.135,0.979,0.14
44.91,-0.129,0.952,0.094
44.92,-0.353,0.844,-0.18
44.93,-0.24,1.24,-0.042
44.94,-0.099,0.884,0.045
44.95,-0.169,0.965,0.144
44.96,-0.235,0.767,0.011
44.97,-0.308,1.212,-0.245
44.98,-0.092,0.943,-0.026
44.99,-0.15,0.894,0.18
45.0,-0.084,1.028,0.084
45.01,-0.391,0.824,-0.19
45.02,-0.271,1.201,-0.039
45.03,-0.048,0.979,0.041
45.04,-0.097,0.957,0.131
45.05,-0.252,0.808,0.05
45.06,-0.317,1.148,-0.189
45.07,-0.142,0.998,-0.069
45.08,-0.191,0.788,0.166
45.09,-0.125,1.033,0.138
45.1,-0.334,0.745,-0.22
45.11,-0.246,1.158,-0.085
45.12,-0.096,0.985,0.078
45.13,-0.118,0.908,0.14
45.14,-0.285,0.811,0.021
45.15,-0.319,1.094,-0.128
45.16,-0.17,1.143,-0.029
45.17,-0.14,0.726,0.124
45.18,-0.175,1.11,0.154
45.19,-0.293,0.796,-0.176
45.2,-0.304,1.1,-0.077
45.21,-0.14,1.015,0.099
45.22,-0.071,0.959,0.12
45.23,-0.224,0.877,-0.028
45.24,-0.351,0.966,-0.111
45.25,-0.153,1.244,-0.066
45.26,-0.182,0.702,0.12
45.27,-0.169,1.03,0.166
45.28,-0.261,0.879,-0.133
45.29,-0.312,1.149,-0.124
45.3,-0.107,0.942,0.13
45.31,-0.082,1.005,0.125
45.32,-0.273,0.81,0.02
45.33,-0.414,1.029,-0.12
45.34,-0.041,1.185,-0.093
45.35,-0.226,0.727,0.103
45.36,-0.174,1.019,0.204
45.37,-0.259,0.836,-0.198
45.38,-0.279,1.117,-0.158
45.39,-0.118,0.962,0.11
45.4,-0.036,0.956,0.11
45.41,-0.315,0.888,-0.005
45.42,-0.362,0.958,-0.114
45.43,-0.105,1.205,-0.052
45.44,-0.24,0.712,0.138
45.45,-0.085,1.049,0.129
45.46,-0.383,0.861,-0.14
45.47,-0.277,1.077,-0.156
45.48,-0.125,1.044,0.083
45.49,-0.072,0.844,0.121
45.5,-0.234,0.963,0.023
45.51,-0.346,0.933,-0.143
45.52,-0.198,1.217,-0.068
45.53,-0.122,0.721,0.081
45.54,-0.122,1.052,0.162
45.55,-0.324,0.892,-0.182
45.56,-0.271,0.992,-0.12
45.57,-0.138,1.09,0.087
45.58,-0.028,0.852,0.103
45.59,-0.202,1.018,0.006
45.6,-0.394,0.872,-0.14
45.61,-0.192,1.263,-0.071
45.62,-0.112,0.749,0.106
45.63,-0.186,0.965,0.168
45.64,-0.284,0.939,-0.135
45.65,-0.257,0.951,-0.146
45.66,-0.178,1.109,0.06
45.67,-0.089,0.767,0.15
45.68,-0.239,1.043,0.007
45.69,-0.333,0.826,-0.194
45.7,-0.167,1.23,-0.029
45.71,-0.193,0.822,0.077
45.72,-0.144,0.894,0.171
45.73,-0.286,1.047,-0.111
45.74,-0.301,0.889,-0.147
45.75,-0.16,1.165,0.035
45.76,-0.006,0.761,0.132
45.77,-0.228,1.038,0.026
45.78,-0.414,0.86,-0.161
45.79,-0.151,1.179,-0.047
45.8,-0.136,0.858,0.039
45.81,-0.099,0.835,0.181
45.82,-0.367,1.091,-0.071
45.83,-0.323,0.8,-0.148
45.84,-0.15,1.209,0.041
45.85,-0.061,0.794,0.159
45.86,-0.223,0.98,0.003
45.87,-0.376,0.878,-0.162
45.88,-0.123,1.133,-0.063
45.89,-0.148,0.927,0.087
45.9,-0.119,0.749,0.173
45.91,-0.34,1.179,-0.092
45.92,-0.323,0.783,-0.155
45.93,-0.158,1.216,0.058
45.94,-0.04,0.832,0.177
45.95,-0.252,0.967,0.049
45.96,-0.387,0.93,-0.208
45.97,-0.118,1.073,-0.071
45.98,-0.172,1.002,0.081
45.99,-0.14,0.692,0.189
46.0,-0.358,1.232,-0.094
46.01,-0.233,0.75,-0.173
46.02,-0.188,1.192,0.077
46.03,-0.154,0.817,0.182
46.04,-0.126,0.923,0.038
46.05,-0.412,1.016,-0.194
46.06,-0.123,0.955,-0.07
46.07,-0.179,1.103,0.076
46.08,-0.116,0.662,0.161
46.09,-0.372,1.183,-0.07
46.1,-0.26,0.809,-0.131
46.11,-0.175,1.244,0.058
46.12,-0.02,0.765,0.122
46.13,-0.195,0.997,-0.004
46.14,-0.405,0.939,-0.171
46.15,-0.06,1.03,-0.082
46.16,-0.212,0.996,0.094
46.17,-0.169,0.727,0.207
46.18,-0.323,1.207,-0.115
46.19,-0.248,0.75,-0.162
46.2,-0.201,1.254,0.121
46.21,0.031,0.807,0.132
46.22,-0.208,0.943,-0.022
46.23,-0.396,0.976,-0.166
46.24,-0.048,1.003,-0.103
46.25,-0.197,1.025,0.047
46.26,-0.158,0.716,0.217
46.27,-0.339,1.22,-0.14
46.28,-0.295,0.788,-0.139
46.29,-0.186,1.186,0.091
46.3,0.039,0.821,0.103
46.31,-0.277,0.899,0.016
46.32,-0.362,1.07,-0.195
46.33,-0.055,0.937,-0.056
46.34,-0.219,1.102,0.062
46.35,-0.103,0.686,0.197
46.36,-0.341,1.18,-0.124
46.37,-0.305,0.8,-0.148
46.38,-0.095,1.161,0.056
46.39,-0.071,0.934,0.171
46.4,-0.238,0.779,-0.018
46.41,-0.385,1.107,-0.173
46.42,-0.065,0.938,-0.058
46.43,-0.16,1.125,0.096
46.44,-0.132,0.674,0.16
46.45,-0.368,1.144,-0.102
46.46,-0.244,0.892,-0.147
46.47,-0.166,1.088,0.057
46.48,-0.067,0.946,0.162
46.49,-0.152,0.756,0.013
46.5,-0.427,1.206,-0.219
46.51,-0.08,0.844,-0.015
46.52,-0.132,1.182,0.117
46.53,-0.201,0.711,0.179
46.54,-0.297,1.109,-0.118
46.55,-0.285,0.937,-0.158
46.56,-0.191,1.011,0.094
46.57,-0.023,1.031,0.106
46.58,-0.22,0.684,-0.003
46.59,-0.471,1.244,-0.146
46.6,-0.07,0.859,-0.048
46.61,-0.192,1.115,0.073
46.62,-0.142,0.74,0.196
46.63,-0.311,1.061,-0.163
46.64,-0.265,0.98,-0.169
46.65,-0.074,1.032,0.078
46.66,-0.101,1.043,0.105
46.67,-0.224,0.627,0.015
46.68,-0.414,1.336,-0.159
46.69,-0.104,0.875,-0.071
46.7,-0.132,1.052,0.109
46.71,-0.092,0.827,0.21
46.72,-0.362,0.978,-0.181
46.73,-0.194,1.046,-0.166
46.74,-0.134,0.986,0.111
46.75,-0.193,1.075,0.14
46.76,-0.114,0.619,0.021
46.77,-0.47,1.355,-0.154
46.78,-0.119,0.904,-0.041
46.79,-0.208,0.991,0.113
46.8,-0.083,0.838,0.181
46.81,-0.38,0.902,-0.168
46.82,-0.239,1.117,-0.096
46.83,-0.076,0.926,0.06
46.84,-0.121,1.079,0.132
46.85,-0.167,0.671,0.026
46.86,-0.456,1.269,-0.166
46.87,-0.122,0.94,-0.059
46.88,-0.145,0.934,0.124
46.89,-0.144,0.94,0.16
46.9,-0.321,0.837,-0.159
46.91,-0.342,1.141,-0.124
46.92,-0.043,1.005,0.1
46.93,-0.149,1.074,0.159
46.94,-0.277,0.638,0.015
46.95,-0.36,1.313,-0.173
46.96,-0.073,0.876,-0.044
46.97,-0.255,0.955,0.131
46.98,-0.015,0.898,0.111
46.99,-0.404,0.953,-0.187
47.0,-0.352,1.093,-0.096
47.01,0.086,0.957,0.086
47.02,-0.163,1.073,0.135
47.03,-0.272,0.643,0.013
47.04,-0.287,1.275,-0.143
47.05,-0.146,0.937,-0.072
47.06,-0.187,0.881,0.155
47.07,-0.042,0.982,0.131
47.08,-0.428,0.872,-0.181
47.09,-0.292,1.147,-0.104
47.1,-0.017,0.896,0.07
47.11,-0.129,1.03,0.116
47.12,-0.245,0.71,0.012
47.13,-0.309,1.21,-0.189
47.14,-0.062,1.022,-0.057
47.15,-0.191,0.84,0.13
47.16,-0.101,0.977,0.134
47.17,-0.37,0.84,-0.209
47.18,-0.296,1.151,-0.088
47.19,-0.059,0.949,0.108
47.2,-0.085,1.001,0.114
47.21,-0.306,0.763,0.013
47.22,-0.278,1.129,-0.145
47.23,-0.118,1.082,-0.096
47.24,-0.158,0.734,0.154
47.25,-0.118,1.082,0.134
47.26,-0.359,0.771,-0.203
47.27,-0.315,1.131,-0.057
47.28,-0.013,0.978,0.042
47.29,-0.082,0.921,0.078
47.3,-0.326,0.858,0.019
47.31,-0.282,1.065,-0.165
47.32,-0.133,1.1,-0.074
47.33,-0.17,0.766,0.162
47.34,-0.081,1.081,0.104
47.35,-0.337,0.796,-0.18
47.36,-0.285,1.144,-0.029
47.37,-0.095,0.979,0.107
47.38,-0.103,0.864,0.1
47.39,-0.33,0.967,0.026
47.4,-0.321,0.97,-0.209
47.41,-0.158,1.106,-0.001
47.42,-0.141,0.777,0.169
47.43,-0.129,1.061,0.101
47.44,-0.308,0.825,-0.178
47.45,-0.259,1.119,-0.077
47.46,-0.078,1.02,0.064
47.47,-0.058,0.797,0.126
47.48,-0.356,1.032,-0.036
47.49,-0.324,0.941,-0.141
47.5,-0.131,1.165,-0.039
47.51,-0.198,0.715,0.167
47.52,-0.157,1.063,0.158
47.53,-0.29,0.892,-0.227
47.54,-0.313,1.031,-0.053
47.55,-0.068,1.104,0.072
47.56,-0.032,0.74,0.121
47.57,-0.363,1.036,-0.0
47.58,-0.309,0.941,-0.166
47.59,-0.101,1.192,-0.042
47.6,-0.234,0.727,0.156
47.61,-0.054,1.008,0.152
47.62,-0.364,0.951,-0.206
47.63,-0.265,0.908,-0.109
47.64,-0.043,1.199,0.036
47.65,-0.02,0.69,0.116
47.66,-0.401,1.083,0.046
47.67,-0.291,0.927,-0.163
47.68,-0.099,1.159,-0.03
47.69,-0.207,0.772,0.16
47.7,-0.093,0.941,0.121
47.71,-0.357,1.022,-0.169
47.72,-0.325,0.894,-0.072
47.73,-0.059,1.06,0.031
47.74,-0.044,0.742,0.14
47.75,-0.419,1.09,0.013
47.76,-0.31,0.843,-0.188
47.77,-0.111,1.159,-0.036
47.78,-0.131,0.785,0.181
47.79,-0.153,0.991,0.083
47.8,-0.253,0.932,-0.238
47.81,-0.238,1.028,-0.079
47.82,-0.149,1.096,0.054
47.83,-0.015,0.649,0.158
47.84,-0.379,1.132,-0.014
47.85,-0.311,0.805,-0.201
47.86,-0.076,1.153,-0.005
47.87,-0.189,0.862,0.177
47.88,-0.084,0.901,0.104
47.89,-0.308,1.022,-0.184
47.9,-0.221,0.952,-0.062
47.91,-0.165,1.191,0.071
47.92,-0.055,0.645,0.143
47.93,-0.367,1.114,-0.013
47.94,-0.308,0.876,-0.201
47.95,-0.12,1.112,0.004
47.96,-0.215,0.86,0.151
47.97,-0.06,0.851,0.083
47.98,-0.361,1.093,-0.191
47.99,-0.229,0.88,-0.02
48.0,-0.093,1.235,0.05
48.01,-0.037,0.635,0.145
48.02,-0.381,1.102,0.041
48.03,-0.3,0.906,-0.22
48.04,-0.09,1.096,-0.067
48.05,-0.199,0.946,0.164
48.06,-0.159,0.758,0.108
48.07,-0.368,1.151,-0.171
48.08,-0.234,0.878,-0.04
48.09,-0.084,1.223,0.053
48.1,-0.064,0.595,0.168
48.11,-0.336,1.048,0.004
48.12,-0.347,0.99,-0.197
48.13,-0.059,0.989,-0.084
48.14,-0.208,0.985,0.134
48.15,-0.05,0.741,0.105
48.16,-0.377,1.192,-0.169
48.17,-0.23,0.791,-0.088
48.18,-0.074,1.269,0.068
48.19,-0.025,0.686,0.107
48.2,-0.411,1.026,0.034
48.21,-0.247,1.051,-0.234
48.22,-0.081,0.911,-0.035
48.23,-0.278,1.058,0.175
48.24,-0.034,0.724,0.124
48.25,-0.414,1.162,-0.174
48.26,-0.326,0.799,-0.055
48.27,-0.001,1.296,0.055
48.28,-0.068,0.762,0.112
48.29,-0.339,0.905,0.013
48.3,-0.285,1.151,-0.197
48.31,-0.106,0.86,-0.051
48.32,-0.255,1.098,0.138
48.33,-0.01,0.74,0.124
48.34,-0.405,1.189,-0.226
48.35,-0.318,0.799,-0.074
