t,ax,ay,az
0.0,-0.176,0.608,0.094
0.01,-0.315,1.096,-0.005
0.02,-0.263,0.957,-0.214
0.03,-0.178,1.085,0.022
0.04,-0.062,0.904,0.17
0.05,-0.175,0.771,-0.022
0.06,-0.478,1.169,-0.181
0.07,-0.026,0.92,-0.057
0.08,-0.237,1.128,0.095
0.09,-0.05,0.651,0.204
0.1,-0.431,1.126,-0.17
0.11,-0.311,0.929,-0.09
0.12,0.018,1.153,0.077
0.13,-0.169,0.854,0.08
0.14,-0.202,0.757,0.051
0.15,-0.409,1.341,-0.215
0.16,-0.113,0.808,-0.015
0.17,-0.142,1.213,0.146
0.18,-0.054,0.66,0.027
0.19,-0.472,1.159,-0.169
0.2,-0.1,1.11,-0.112
0.21,-0.081,0.899,0.054
0.22,-0.203,0.983,0.217
0.23,-0.241,0.745,-0.127
0.24,-0.364,1.248,-0.202
0.25,-0.038,0.876,0.135
0.26,-0.145,1.068,0.112
0.27,-0.186,0.709,0.015
0.28,-0.374,1.175,-0.195
0.29,-0.122,1.073,-0.032
0.3,-0.15,0.809,0.108
0.31,-0.101,1.037,0.098
0.32,-0.39,0.755,-0.187
0.33,-0.281,1.276,-0.086
0.34,-0.007,0.883,0.095
0.35,-0.161,0.906,0.104
0.36,-0.228,0.851,0.004
0.37,-0.359,1.073,-0.194
0.38,-0.117,1.124,0.048
0.39,-0.051,0.769,0.128
0.4,-0.213,1.019,0.013
0.41,-0.382,0.867,-0.16
0.42,-0.153,1.263,-0.041
0.43,-0.203,0.733,0.165
0.44,-0.161,0.972,-0.062
0.45,-0.181,0.965,0.192
0.46,-0.05,0.715,0.111
0.47,-0.466,1.165,-0.211
0.48,-0.187,0.834,-0.036
0.49,-0.074,1.249,0.124
0.5,-0.187,0.677,0.128
0.51,-0.294,0.951,0.002
0.52,-0.345,1.059,-0.259
0.53,-0.074,0.937,0.101
0.54,-0.161,1.123,0.114
0.55,-0.129,0.563,0.014
0.56,-0.458,1.352,-0.122
0.57,-0.066,0.937,-0.061
0.58,-0.247,1.05,0.118
0.59,-0.045,0.823,0.152
0.6,-0.413,0.949,-0.147
0.61,-0.324,1.066,-0.148
0.62,0.031,1.071,0.085
0.63,-0.195,0.927,0.105
0.64,-0.277,0.735,0.011
0.65,-0.332,1.293,-0.248
0.66,-0.083,0.826,0.026
0.67,-0.103,1.171,0.17
0.68,-0.119,0.661,0.002
0.69,-0.499,1.089,-0.142
0.7,-0.041,1.096,-0.068
0.71,-0.156,0.886,0.113
0.72,-0.244,0.984,0.164
0.73,-0.177,0.747,-0.174
0.74,-0.348,1.269,-0.173
0.75,-0.062,0.888,0.204
0.76,-0.186,1.0,0.124
0.77,-0.29,0.712,-0.037
0.78,-0.263,1.162,-0.165
0.79,-0.132,1.081,-0.023
0.8,-0.237,0.727,0.187
0.81,-0.029,1.083,0.028
0.82,-0.373,0.801,-0.254
0.83,-0.284,1.269,-0.016
0.84,0.01,0.819,0.07
0.85,-0.25,0.94,0.143
0.86,-0.188,0.913,-0.057
0.87,-0.32,1.003,-0.213
0.88,-0.192,1.137,0.12
0.89,-0.044,0.731,0.115
0.9,-0.268,1.019,-0.037
0.91,-0.362,0.891,-0.128
0.92,-0.1,1.239,-0.077
0.93,-0.229,0.79,0.172
0.94,-0.052,0.933,0.158
0.95,-0.43,1.014,-0.186
0.96,-0.291,0.938,-0.025
0.97,-0.073,1.26,0.114
0.98,-0.153,0.598,0.101
0.99,-0.29,1.071,-0.024
1.0,-0.278,0.929,-0.248
1.01,-0.165,1.125,0.025
1.02,-0.101,0.889,0.142
1.03,-0.126,0.805,0.062
1.04,-0.486,1.161,-0.184
1.05,-0.093,0.869,-0.073
1.06,-0.105,1.148,0.108
1.07,-0.135,0.697,0.15
1.08,-0.424,1.036,-0.117
1.09,-0.253,0.93,-0.165
1.1,-0.051,1.15,0.115
1.11,-0.115,0.841,0.118
1.12,-0.217,0.76,0.02
1.13,-0.393,1.302,-0.181
1.14,-0.102,0.812,0.033
1.15,-0.236,1.153,0.175
1.16,-0.047,0.712,0.064
1.17,-0.461,1.117,-0.183
1.18,-0.241,0.998,-0.019
1.19,-0.05,1.019,0.089
1.2,-0.196,0.913,0.099
1.21,-0.177,0.752,-0.045
1.22,-0.412,1.308,-0.168
1.23,-0.134,0.826,0.119
1.24,-0.075,1.115,0.155
1.25,-0.229,0.692,-0.022
1.26,-0.454,1.147,-0.148
1.27,-0.045,1.115,-0.062
1.28,-0.194,0.824,0.122
1.29,-0.119,1.015,0.122
1.3,-0.293,0.762,-0.211
1.31,-0.326,1.288,-0.119
1.32,0.053,0.82,0.106
1.33,-0.221,1.001,0.132
1.34,-0.326,0.803,0.008
1.35,-0.25,1.051,-0.262
1.36,-0.071,1.138,-0.02
1.37,-0.157,0.765,0.195
1.38,-0.133,0.987,0.017
1.39,-0.468,0.826,-0.162
1.4,-0.106,1.291,-0.011
1.41,-0.053,0.812,0.113
1.42,-0.235,0.891,0.162
1.43,-0.25,0.845,-0.159
1.44,-0.353,1.147,-0.116
1.45,-0.037,1.022,0.147
1.46,-0.111,0.748,0.096
1.47,-0.38,1.031,-0.001
1.48,-0.254,0.894,-0.234
1.49,-0.125,1.223,0.023
1.5,-0.18,0.713,0.205
1.51,-0.121,0.962,0.01
1.52,-0.434,0.943,-0.228
1.53,-0.052,1.075,-0.091
1.54,-0.109,1.02,0.094
1.55,-0.219,0.68,0.239
1.56,-0.348,1.146,-0.081
1.57,-0.272,0.853,-0.163
1.58,-0.159,1.248,0.166
1.59,-0.041,0.721,0.133
1.6,-0.267,0.904,-0.05
1.61,-0.398,1.085,-0.175
1.62,-0.095,1.0,0.019
1.63,-0.227,1.018,0.158
1.64,-0.118,0.702,0.146
1.65,-0.514,1.233,-0.218
1.66,-0.124,0.804,-0.105
1.67,-0.047,1.238,0.119
1.68,-0.222,0.752,0.157
1.69,-0.309,0.919,-0.021
1.7,-0.326,1.191,-0.219
1.71,-0.116,0.883,0.052
1.72,-0.103,1.088,0.12
1.73,-0.21,0.625,0.01
1.74,-0.501,1.281,-0.134
1.75,-0.047,0.964,-0.028
1.76,-0.213,0.977,0.098
1.77,-0.064,0.844,0.137
1.78,-0.375,0.904,-0.24
1.79,-0.242,1.191,-0.081
1.8,-0.005,0.873,0.121
1.81,-0.245,1.007,0.129
1.82,-0.273,0.703,0.007
1.83,-0.321,1.329,-0.177
1.84,-0.241,0.87,0.121
1.85,-0.056,0.951,0.168
1.86,-0.184,0.9,-0.002
1.87,-0.506,0.891,-0.144
1.88,-0.077,1.245,-0.051
1.89,-0.153,0.742,0.134
1.9,-0.146,1.03,0.111
1.91,-0.257,0.767,-0.166
1.92,-0.318,1.224,-0.128
1.93,-0.001,1.008,0.078
1.94,-0.056,0.75,0.117
1.95,-0.318,1.008,0.03
1.96,-0.314,0.953,-0.201
1.97,-0.163,1.219,0.025
1.98,-0.11,0.693,0.169
1.99,-0.183,1.011,0.058
2.0,-0.422,0.915,-0.197
2.01,-0.098,1.121,-0.064
2.02,-0.117,0.926,0.123
2.03,-0.151,0.764,0.195
2.04,-0.386,1.103,-0.144
2.05,-0.24,0.854,-0.131
2.06,-0.104,1.314,0.1
2.07,-0.097,0.619,0.08
2.08,-0.256,1.009,-0.016
2.09,-0.379,1.039,-0.221
2.1,-0.152,0.974,0.009
2.11,-0.099,1.075,0.157
2.12,-0.112,0.66,0.019
2.13,-0.485,1.183,-0.182
2.14,-0.041,0.897,-0.07
2.15,-0.196,1.162,0.133
2.16,-0.146,0.721,0.181
2.17,-0.305,0.968,-0.102
2.18,-0.361,1.027,-0.198
2.19,-0.007,0.976,0.097
2.2,-0.2,1.033,0.151
2.21,-0.209,0.657,0.046
2.22,-0.495,1.365,-0.2
2.23,-0.112,0.832,-0.041
2.24,-0.136,1.069,0.176
2.25,-0.079,0.702,0.045
2.26,-0.486,1.13,-0.214
2.27,-0.187,1.052,-0.047
2.28,-0.122,0.999,0.107
2.29,-0.171,0.865,0.123
2.3,-0.291,0.801,-0.095
2.31,-0.293,1.259,-0.233
2.32,-0.116,0.9,0.101
2.33,-0.086,1.076,0.121
2.34,-0.177,0.658,-0.014
2.35,-0.412,1.207,-0.135
2.36,-0.074,1.043,-0.023
2.37,-0.263,0.824,0.217
2.38,-0.105,1.022,0.097
2.39,-0.344,0.765,-0.224
2.4,-0.331,1.278,0.007
2.41,-0.021,0.853,0.14
2.42,-0.233,0.958,0.076
2.43,-0.219,0.842,-0.052
2.44,-0.337,1.134,-0.176
2.45,-0.255,1.043,0.108
2.46,0.014,0.793,0.156
2.47,-0.234,1.017,-0.026
2.48,-0.383,0.851,-0.164
2.49,-0.113,1.272,-0.055
2.5,-0.171,0.763,0.147
2.51,-0.162,0.961,0.15
2.52,-0.299,0.922,-0.217
2.53,-0.256,1.0,-0.135
2.54,-0.032,1.163,0.064
2.55,-0.125,0.593,0.099
2.56,-0.296,1.12,0.008
2.57,-0.306,0.948,-0.23
2.58,-0.146,1.127,0.006
2.59,-0.068,0.835,0.133
2.6,-0.158,0.843,0.035
2.61,-0.454,1.052,-0.182
2.62,-0.126,0.924,-0.059
2.63,-0.129,1.109,0.082
2.64,-0.115,0.671,0.184
2.65,-0.403,1.127,-0.123
2.66,-0.293,0.839,-0.154
2.67,-0.017,1.223,0.076
2.68,-0.13,0.83,0.169
2.69,-0.3,0.807,0.063
2.7,-0.309,1.226,-0.262
2.71,-0.086,0.837,0.027
2.72,-0.166,1.216,0.207
2.73,-0.106,0.628,0.057
2.74,-0.504,1.159,-0.173
2.75,-0.049,1.015,-0.112
2.76,-0.165,1.015,0.095
2.77,-0.172,0.871,0.21
2.78,-0.274,0.83,-0.12
2.79,-0.354,1.155,-0.236
2.8,-0.023,0.907,0.147
2.81,-0.184,1.173,0.097
2.82,-0.203,0.614,-0.024
2.83,-0.393,1.24,-0.175
2.84,-0.101,0.986,-0.051
2.85,-0.157,0.932,0.165
2.86,-0.146,0.971,0.122
2.87,-0.354,0.788,-0.199
2.88,-0.233,1.312,-0.076
2.89,-0.026,0.88,0.102
2.9,-0.187,0.951,0.114
2.91,-0.194,0.769,-0.024
2.92,-0.422,1.17,-0.228
2.93,-0.163,1.011,0.067
2.94,-0.03,0.903,0.126
2.95,-0.258,0.935,0.063
2.96,-0.379,0.82,-0.142
2.97,-0.181,1.354,-0.089
2.98,-0.037,0.644,0.095
2.99,-0.084,1.027,0.14
3.0,-0.386,0.834,-0.129
3.01,-0.273,0.961,-0.127
3.02,0.008,1.206,0.087
3.03,-0.18,0.645,0.127
3.04,-0.236,1.057,0.045
3.05,-0.342,0.951,-0.211
3.06,-0.157,1.161,-0.006
3.07,-0.044,0.795,0.172
3.08,-0.256,0.998,0.046
3.09,-0.404,0.836,-0.156
3.1,-0.092,1.227,-0.083
3.11,-0.174,0.869,0.113
3.12,-0.175,0.776,0.201
3.13,-0.342,1.097,-0.123
3.14,-0.325,0.838,-0.188
3.15,-0.049,1.323,0.134
3.16,-0.105,0.628,0.127
3.17,-0.337,1.002,0.043
3.18,-0.258,1.04,-0.301
3.19,-0.075,0.971,-0.075
3.2,-0.153,1.002,0.239
3.21,-0.144,0.702,0.09
3.22,-0.5,1.173,-0.185
3.23,-0.07,0.93,-0.057
3.24,-0.201,1.201,0.094
3.25,-0.138,0.674,0.138
3.26,-0.246,1.021,-0.077
3.27,-0.352,1.017,-0.212
3.28,-0.048,1.002,0.138
3.29,-0.118,1.099,0.095
3.3,-0.237,0.612,0.019
3.31,-0.389,1.316,-0.132
3.32,-0.141,0.876,-0.082
3.33,-0.199,1.052,0.173
3.34,-0.073,0.83,0.146
3.35,-0.43,0.935,-0.235
3.36,-0.244,1.041,-0.068
3.37,0.044,1.016,0.074
3.38,-0.253,0.965,0.124
3.39,-0.194,0.707,0.002
3.4,-0.315,1.356,-0.229
3.41,-0.125,0.824,0.019
3.42,-0.166,1.099,0.231
3.43,-0.171,0.771,0.041
3.44,-0.477,0.962,-0.191
3.45,-0.105,1.227,-0.046
3.46,-0.075,0.803,0.069
3.47,-0.198,1.016,0.158
3.48,-0.19,0.735,-0.112
3.49,-0.423,1.201,-0.171
3.5,-0.074,0.91,0.119
3.51,-0.028,0.964,0.094
3.52,-0.299,0.885,-0.014
3.53,-0.375,0.99,-0.133
3.54,-0.205,1.201,-0.014
3.55,-0.106,0.673,0.167
3.56,-0.12,1.094,0.081
3.57,-0.375,0.777,-0.245
3.58,-0.183,1.152,-0.003
3.59,-0.036,0.991,0.139
3.6,-0.252,0.766,0.134
3.61,-0.196,1.062,-0.062
3.62,-0.341,0.952,-0.212
3.63,-0.193,1.202,0.082
3.64,-0.024,0.717,0.177
3.65,-0.301,1.009,0.03
3.66,-0.436,0.937,-0.119
3.67,-0.148,1.113,-0.068
3.68,-0.13,0.858,0.105
3.69,-0.036,0.829,0.139
3.7,-0.417,1.092,-0.2
3.71,-0.295,0.826,-0.067
3.72,-0.02,1.331,0.091
3.73,-0.176,0.637,0.099
3.74,-0.282,1.014,0.011
3.75,-0.331,0.997,-0.223
3.76,-0.186,0.976,0.054
3.77,-0.054,1.054,0.158
3.78,-0.17,0.673,-0.012
3.79,-0.418,1.209,-0.192
3.8,0.0,0.855,-0.102
3.81,-0.2,1.151,0.136
3.82,-0.144,0.722,0.184
3.83,-0.333,1.024,-0.175
3.84,-0.293,0.992,-0.181
3.85,-0.102,1.01,0.164
3.86,-0.139,1.017,0.116
3.87,-0.283,0.672,0.012
3.88,-0.331,1.264,-0.207
3.89,-0.094,0.846,-0.006
3.9,-0.135,1.207,0.198
3.91,-0.129,0.64,0.024
3.92,-0.461,1.138,-0.214
3.93,-0.073,1.037,-0.039
3.94,-0.136,0.972,0.112
3.95,-0.207,0.917,0.19
3.96,-0.25,0.799,-0.145
3.97,-0.348,1.248,-0.146
3.98,-0.026,0.883,0.175
3.99,-0.157,1.074,0.131
4.0,-0.274,0.662,-0.015
4.01,-0.312,1.243,-0.193
4.02,-0.095,1.009,-0.064
4.03,-0.257,0.855,0.245
4.04,-0.122,0.98,0.075
4.05,-0.415,0.815,-0.234
4.06,-0.143,1.292,-0.064
4.07,-0.091,0.818,0.105
4.08,-0.274,0.994,0.199
4.09,-0.255,0.817,-0.082
4.1,-0.335,1.09,-0.189
4.11,-0.102,1.105,0.115
4.12,-0.08,0.771,0.13
4.13,-0.306,1.003,0.021
4.14,-0.4,0.889,-0.138
4.15,-0.089,1.225,-0.025
4.16,-0.153,0.788,0.143
4.17,-0.125,0.95,0.101
4.18,-0.329,0.903,-0.188
4.19,-0.249,1.043,-0.039
4.2,-0.073,1.142,0.086
4.21,-0.163,0.608,0.126
4.22,-0.336,1.124,0.019
4.23,-0.303,0.863,-0.212
4.24,-0.216,1.169,0.071
4.25,-0.091,0.833,0.156
4.26,-0.156,0.856,-0.038
4.27,-0.459,1.084,-0.152
4.28,-0.104,0.973,-0.044
4.29,-0.216,1.104,0.083
4.3,-0.09,0.662,0.165
4.31,-0.36,1.145,-0.18
4.32,-0.272,0.893,-0.13
4.33,-0.033,1.186,0.106
4.34,-0.079,0.763,0.104
4.35,-0.345,0.846,0.057
4.36,-0.337,1.173,-0.247
4.37,0.007,0.855,-0.024
4.38,-0.236,1.224,0.215
4.39,-0.125,0.605,0.107
4.4,-0.479,1.226,-0.196
4.41,-0.059,0.969,-0.058
4.42,-0.169,1.025,0.077
4.43,-0.192,0.872,0.214
4.44,-0.3,0.84,-0.17
4.45,-0.318,1.175,-0.148
4.46,-0.07,0.94,0.125
4.47,-0.207,1.061,0.114
4.48,-0.23,0.662,0.037
4.49,-0.395,1.311,-0.206
4.5,-0.096,0.893,-0.085
4.51,-0.15,0.929,0.165
4.52,-0.111,0.959,0.134
4.53,-0.393,0.758,-0.205
4.54,-0.264,1.227,-0.06
4.55,-0.003,0.875,0.082
4.56,-0.194,0.995,0.084
4.57,-0.207,0.78,0.001
4.58,-0.379,1.196,-0.197
4.59,-0.227,0.996,0.102
4.6,-0.051,0.876,0.121
4.61,-0.2,0.947,-0.009
4.62,-0.439,0.838,-0.153
4.63,-0.076,1.27,-0.136
4.64,-0.098,0.698,0.092
4.65,-0.16,1.033,0.19
4.66,-0.305,0.835,-0.183
4.67,-0.31,1.02,-0.11
4.68,-0.066,1.171,0.15
4.69,-0.159,0.677,0.13
4.7,-0.235,0.969,-0.01
4.71,-0.246,1.016,-0.248
4.72,-0.149,1.167,0.025
4.73,-0.075,0.727,0.181
4.74,-0.187,1.022,-0.016
4.75,-0.379,0.829,-0.249
4.76,-0.088,1.184,-0.008
4.77,-0.168,0.904,0.129
4.78,-0.233,0.798,0.176
4.79,-0.301,1.094,-0.126
4.8,-0.308,0.877,-0.14
4.81,-0.115,1.271,0.126
4.82,-0.023,0.66,0.096
4.83,-0.373,1.0,-0.012
4.84,-0.266,0.986,-0.169
4.85,-0.102,1.069,-0.016
4.86,-0.246,0.882,0.24
4.87,-0.093,0.759,0.078
4.88,-0.467,1.149,-0.294
4.89,-0.041,0.848,-0.05
4.9,-0.085,1.281,0.112
4.91,-0.183,0.647,0.143
4.92,-0.282,1.032,-0.132
4.93,-0.303,1.031,-0.262
4.94,-0.036,1.034,0.132
4.95,-0.094,0.974,0.144
4.96,-0.285,0.667,-0.009
4.97,-0.368,1.329,-0.181
4.98,-0.098,0.833,-0.035
4.99,-0.215,1.128,0.168
5.0,-0.081,0.759,0.113
5.01,-0.421,1.0,-0.23
5.02,-0.145,1.081,-0.101
5.03,-0.043,0.954,0.079
5.04,-0.189,0.966,0.116
5.05,-0.219,0.658,-0.073
5.06,-0.305,1.323,-0.196
5.07,-0.098,0.854,0.054
5.08,-0.196,1.067,0.187
5.09,-0.099,0.773,-0.018
5.1,-0.464,1.016,-0.179
5.11,-0.078,1.173,-0.051
5.12,-0.026,0.779,0.111
5.13,-0.284,1.05,0.173
5.14,-0.259,0.746,-0.16
5.15,-0.288,1.269,-0.16
5.16,0.003,0.93,0.084
5.17,-0.124,0.853,0.137
5.18,-0.295,0.898,-0.013
5.19,-0.343,1.013,-0.216
5.2,-0.068,1.153,0.025
5.21,-0.068,0.772,0.197
5.22,-0.251,1.025,0.03
5.23,-0.382,0.802,-0.186
5.24,-0.135,1.266,-0.058
5.25,-0.088,0.821,0.121
5.26,-0.255,0.873,0.208
5.27,-0.31,1.007,-0.159
5.28,-0.261,0.874,-0.164
5.29,-0.063,1.267,0.11
5.3,-0.079,0.624,0.111
5.31,-0.333,1.071,-0.022
5.32,-0.268,0.93,-0.19
5.33,-0.073,1.101,-0.002
5.34,-0.129,0.894,0.212
5.35,-0.137,0.793,0.035
5.36,-0.478,1.098,-0.256
5.37,0.003,0.881,-0.041
5.38,-0.113,1.225,0.103
5.39,-0.228,0.659,0.201
5.4,-0.378,1.088,-0.097
5.41,-0.319,0.957,-0.209
5.42,0.061,1.122,0.092
5.43,-0.209,0.906,0.14
5.44,-0.294,0.726,0.009
5.45,-0.322,1.31,-0.223
5.46,-0.119,0.828,0.008
5.47,-0.13,1.153,0.189
5.48,-0.121,0.67,0.034
5.49,-0.44,1.09,-0.172
5.5,-0.114,1.121,-0.066
5.51,-0.112,0.899,0.123
5.52,-0.167,0.838,0.167
5.53,-0.34,0.873,-0.172
5.54,-0.263,1.192,-0.151
5.55,-0.037,0.933,0.135
5.56,-0.153,1.02,0.115
5.57,-0.258,0.697,0.002
5.58,-0.34,1.307,-0.258
5.59,-0.083,0.885,-0.015
5.6,-0.147,1.028,0.205
5.61,-0.174,0.852,0.063
5.62,-0.403,0.875,-0.188
5.63,-0.077,1.319,-0.088
5.64,-0.118,0.711,0.101
5.65,-0.188,1.032,0.206
5.66,-0.275,0.761,-0.151
5.67,-0.25,1.148,-0.214
5.68,0.017,1.043,0.108
5.69,-0.156,0.82,0.15
5.7,-0.288,0.957,0.026
5.71,-0.366,0.934,-0.177
5.72,-0.14,1.235,-0.062
5.73,-0.116,0.723,0.183
5.74,-0.153,1.01,0.08
5.75,-0.407,0.891,-0.184
5.76,-0.11,1.165,-0.063
5.77,-0.151,0.961,0.105
5.78,-0.154,0.718,0.179
5.79,-0.362,1.117,-0.08
5.8,-0.249,0.844,-0.204
5.81,-0.149,1.3,0.161
5.82,-0.149,0.694,0.151
5.83,-0.259,0.965,0.041
5.84,-0.362,1.072,-0.197
5.85,-0.122,0.966,-0.014
5.86,-0.239,1.035,0.19
5.87,-0.111,0.692,0.108
5.88,-0.482,1.148,-0.177
5.89,-0.097,0.942,-0.022
5.9,-0.208,1.184,0.121
5.91,-0.213,0.628,0.185
5.92,-0.3,0.998,-0.041
5.93,-0.349,1.041,-0.279
5.94,-0.054,0.955,0.116
5.95,-0.161,1.09,0.077
5.96,-0.128,0.648,-0.006
5.97,-0.372,1.312,-0.215
5.98,-0.083,0.861,-0.037
5.99,-0.181,1.112,0.185
6.0,-0.135,0.793,0.165
6.01,-0.35,0.922,-0.174
6.02,-0.281,1.179,-0.065
6.03,-0.152,0.95,0.129
6.04,-0.133,0.943,0.079
6.05,-0.237,0.721,-0.015
6.06,-0.433,1.313,-0.202
6.07,-0.139,0.878,0.062
6.08,-0.079,1.075,0.144
6.09,-0.131,0.792,0.032
6.1,-0.405,0.976,-0.187
6.11,-0.096,1.224,-0.106
6.12,-0.063,0.725,0.066
6.13,-0.169,1.086,0.157
6.14,-0.267,0.728,-0.147
6.15,-0.366,1.249,-0.088
6.16,-0.022,0.929,0.066
6.17,-0.138,0.84,0.126
6.18,-0.227,0.96,0.072
6.19,-0.346,1.006,-0.248
6.2,-0.169,1.13,-0.005
6.21,-0.151,0.741,0.195
6.22,-0.139,1.052,0.095
6.23,-0.359,0.795,-0.224
6.24,-0.193,1.172,-0.077
6.25,-0.02,0.902,0.107
6.26,-0.223,0.819,0.182
6.27,-0.262,1.02,-0.081
6.28,-0.305,0.908,-0.208
6.29,-0.118,1.267,0.104
6.3,-0.14,0.719,0.111
6.31,-0.229,0.978,0.012
6.32,-0.393,0.99,-0.154
6.33,-0.051,1.147,-0.041
6.34,-0.181,0.778,0.246
6.35,-0.136,0.907,0.107
6.36,-0.438,1.016,-0.212
6.37,-0.156,0.957,-0.042
6.38,-0.117,1.146,0.074
6.39,-0.231,0.626,0.161
6.4,-0.263,1.128,-0.095
6.41,-0.302,0.839,-0.249
6.42,-0.087,1.184,0.132
6.43,-0.137,0.838,0.164
6.44,-0.211,0.808,0.02
6.45,-0.338,1.204,-0.196
6.46,-0.14,0.87,-0.038
6.47,-0.209,1.16,0.186
6.48,-0.072,0.695,0.144
6.49,-0.425,1.102,-0.215
6.5,-0.271,0.924,-0.034
6.51,-0.031,1.196,0.092
6.52,-0.214,0.81,0.151
6.53,-0.217,0.804,0.059
6.54,-0.372,1.308,-0.252
6.55,-0.102,0.832,0.017
6.56,-0.131,1.216,0.154
6.57,-0.113,0.617,0.016
6.58,-0.437,1.177,-0.164
6.59,-0.064,1.033,-0.076
6.6,-0.211,0.927,0.13
6.61,-0.175,0.93,0.22
6.62,-0.276,0.758,-0.144
6.63,-0.336,1.214,-0.159
6.64,-0.018,0.919,0.111
6.65,-0.168,1.044,0.084
6.66,-0.238,0.682,0.05
6.67,-0.307,1.208,-0.266
6.68,-0.042,0.96,-0.115
6.69,-0.112,0.9,0.223
6.7,-0.212,0.988,0.153
6.71,-0.47,0.719,-0.196
6.72,-0.092,1.297,-0.119
6.73,-0.042,0.832,0.082
6.74,-0.22,0.973,0.153
6.75,-0.162,0.795,-0.058
6.76,-0.421,1.062,-0.224
6.77,-0.1,1.093,0.101
6.78,-0.116,0.843,0.13
6.79,-0.247,0.967,0.021
6.8,-0.307,0.901,-0.168
6.81,-0.171,1.274,-0.034
6.82,-0.183,0.698,0.155
6.83,-0.109,0.994,0.15
6.84,-0.409,0.844,-0.186
6.85,-0.25,1.007,-0.036
6.86,-0.052,1.228,0.081
6.87,-0.155,0.59,0.123
6.88,-0.263,1.105,0.055
6.89,-0.341,0.939,-0.266
6.9,-0.106,1.105,-0.005
6.91,-0.086,0.88,0.171
6.92,-0.161,0.901,0.062
6.93,-0.384,1.028,-0.191
6.94,-0.145,0.995,-0.088
6.95,-0.132,1.079,0.076
6.96,-0.117,0.658,0.123
6.97,-0.337,1.171,-0.098
6.98,-0.238,0.81,-0.186
6.99,-0.107,1.202,0.124
7.0,-0.104,0.823,0.119
7.01,-0.244,0.821,0.006
7.02,-0.394,1.191,-0.153
7.03,-0.173,0.862,-0.018
7.04,-0.218,1.134,0.179
7.05,-0.039,0.695,0.13
7.06,-0.502,1.124,-0.189
7.07,-0.181,0.919,-0.055
7.08,-0.026,1.16,0.074
7.09,-0.158,0.825,0.114
7.1,-0.244,0.827,0.038
7.11,-0.315,1.284,-0.263
7.12,-0.196,0.824,0.07
7.13,-0.101,1.181,0.156
7.14,-0.13,0.612,-0.012
7.15,-0.38,1.327,-0.155
7.16,-0.069,0.905,-0.077
7.17,-0.185,1.068,0.126
7.18,-0.068,0.837,0.14
7.19,-0.348,0.88,-0.2
7.2,-0.302,1.125,-0.091
7.21,-0.013,0.948,0.07
7.22,-0.226,0.978,0.132
7.23,-0.168,0.718,0.037
7.24,-0.433,1.325,-0.271
7.25,-0.041,0.788,-0.016
7.26,-0.083,1.143,0.194
7.27,-0.17,0.802,0.07
7.28,-0.424,0.903,-0.145
7.29,-0.192,1.307,-0.043
7.3,-0.103,0.729,0.106
7.31,-0.223,1.063,0.21
7.32,-0.268,0.756,-0.088
7.33,-0.404,1.162,-0.204
7.34,-0.095,0.959,0.151
7.35,-0.128,0.959,0.13
7.36,-0.22,0.842,-0.023
7.37,-0.301,1.004,-0.148
7.38,-0.158,1.259,-0.019
7.39,-0.212,0.686,0.181
7.4,-0.069,1.061,0.104
7.41,-0.357,0.793,-0.243
7.42,-0.313,1.148,0.013
7.43,-0.018,1.032,0.087
7.44,-0.215,0.73,0.097
7.45,-0.247,1.021,0.009
7.46,-0.313,0.926,-0.234
7.47,-0.166,1.223,0.025
7.48,-0.006,0.74,0.139
7.49,-0.153,0.942,-0.025
7.5,-0.43,0.951,-0.158
7.51,-0.027,1.115,-0.111
7.52,-0.179,0.926,0.128
7.53,-0.16,0.744,0.192
7.54,-0.367,1.159,-0.166
7.55,-0.35,0.8,-0.162
7.56,-0.048,1.299,0.132
7.57,-0.118,0.672,0.117
7.58,-0.314,0.978,0.035
7.59,-0.282,1.062,-0.236
7.6,-0.115,0.992,-0.012
7.61,-0.244,1.022,0.182
7.62,-0.033,0.709,0.075
7.63,-0.455,1.222,-0.235
7.64,-0.183,0.859,-0.012
7.65,-0.081,1.184,0.076
7.66,-0.158,0.698,0.127
7.67,-0.24,0.996,-0.033
7.68,-0.344,1.072,-0.227
7.69,-0.177,0.956,0.119
7.7,-0.097,1.104,0.109
7.71,-0.147,0.626,-0.02
7.72,-0.444,1.303,-0.194
7.73,-0.071,0.864,-0.065
7.74,-0.193,1.08,0.108
7.75,-0.082,0.808,0.138
7.76,-0.376,0.942,-0.191
7.77,-0.306,1.109,-0.114
7.78,0.075,0.953,0.047
7.79,-0.183,1.015,0.115
7.8,-0.243,0.707,0.017
7.81,-0.354,1.309,-0.242
7.82,-0.094,0.86,-0.008
7.83,-0.136,1.035,0.209
7.84,-0.101,0.826,0.02
7.85,-0.428,0.908,-0.158
7.86,-0.109,1.255,0.01
7.87,-0.181,0.771,0.12
7.88,-0.311,1.044,0.194
7.89,-0.189,0.769,-0.117
7.9,-0.367,1.198,-0.164
7.91,-0.078,0.979,0.151
7.92,-0.132,0.867,0.139
7.93,-0.275,0.898,0.013
7.94,-0.249,1.002,-0.227
7.95,-0.073,1.168,-0.082
7.96,-0.081,0.802,0.216
7.97,-0.191,1.024,0.071
7.98,-0.466,0.783,-0.185
7.99,-0.123,1.287,-0.095
8.0,-0.095,0.816,0.089
8.01,-0.232,0.92,0.183
8.02,-0.189,0.92,-0.12
8.03,-0.362,0.985,-0.201
8.04,-0.055,1.177,0.1
8.05,-0.087,0.734,0.147
8.06,-0.301,1.041,0.037
8.07,-0.311,0.92,-0.193
8.08,-0.164,1.199,-0.057
8.09,-0.209,0.794,0.199
8.1,-0.135,0.93,0.169
8.11,-0.387,0.973,-0.173
8.12,-0.24,0.922,-0.082
8.13,-0.071,1.219,0.096
8.14,-0.15,0.609,0.135
8.15,-0.27,1.067,0.017
8.16,-0.294,0.922,-0.235
8.17,-0.113,1.123,-0.019
8.18,-0.109,0.918,0.174
8.19,-0.187,0.798,0.093
8.2,-0.409,1.123,-0.2
8.21,-0.095,0.981,-0.042
8.22,-0.162,1.1,0.114
8.23,-0.131,0.648,0.196
8.24,-0.334,1.158,-0.108
8.25,-0.328,0.873,-0.187
8.26,-0.062,1.143,0.131
8.27,-0.092,0.957,0.111
8.28,-0.304,0.746,0.016
8.29,-0.447,1.237,-0.148
8.3,-0.081,0.9,-0.063
8.31,-0.188,1.112,0.114
8.32,-0.048,0.754,0.139
8.33,-0.455,1.08,-0.202
8.34,-0.254,0.929,-0.06
8.35,0.039,1.103,0.075
8.36,-0.201,0.878,0.088
8.37,-0.185,0.775,-0.01
8.38,-0.379,1.33,-0.212
8.39,-0.138,0.859,0.14
8.4,-0.067,1.128,0.16
8.41,-0.259,0.625,0.005
8.42,-0.361,1.306,-0.174
8.43,-0.1,0.898,-0.082
8.44,-0.261,1.023,0.186
8.45,-0.052,0.886,0.148
8.46,-0.372,0.889,-0.209
8.47,-0.279,1.165,-0.095
8.48,0.015,0.935,0.093
8.49,-0.226,0.984,0.091
8.5,-0.099,0.735,-0.018
8.51,-0.423,1.32,-0.251
8.52,-0.164,0.875,0.048
8.53,-0.04,1.066,0.201
8.54,-0.187,0.849,0.042
8.55,-0.448,0.882,-0.125
8.56,-0.044,1.328,-0.09
8.57,-0.155,0.693,0.056
8.58,-0.117,1.042,0.158
8.59,-0.265,0.796,-0.126
8.6,-0.392,1.128,-0.152
8.61,-0.118,1.043,0.129
8.62,-0.061,0.83,0.097
8.63,-0.279,0.972,0.002
8.64,-0.311,0.969,-0.185
8.65,-0.118,1.201,-0.094
8.66,-0.132,0.699,0.197
8.67,-0.111,1.037,0.072
8.68,-0.363,0.805,-0.218
8.69,-0.231,1.133,-0.035
8.7,-0.07,1.083,0.094
8.71,-0.261,0.624,0.105
8.72,-0.182,1.101,-0.035
8.73,-0.324,0.941,-0.228
8.74,-0.173,1.186,0.055
8.75,-0.008,0.771,0.154
8.76,-0.241,0.953,0.025
8.77,-0.459,0.964,-0.136
8.78,-0.266,0.808,0.22
8.79,-0.26,0.881,-0.123
8.8,-0.348,1.005,-0.134
8.81,-0.062,1.187,0.072
8.82,-0.108,0.689,0.13
8.83,-0.324,1.053,0.038
8.84,-0.233,0.94,-0.24
8.85,-0.141,1.129,-0.05
8.86,-0.155,0.76,0.247
8.87,-0.115,0.933,0.121
8.88,-0.424,0.963,-0.221
8.89,-0.061,0.971,-0.108
8.9,-0.122,1.172,0.076
8.91,-0.261,0.608,0.215
8.92,-0.293,1.165,-0.012
8.93,-0.367,0.843,-0.256
8.94,-0.148,1.12,0.07
8.95,-0.017,0.877,0.13
8.96,-0.22,0.835,0.034
8.97,-0.432,1.135,-0.15
8.98,-0.061,0.944,-0.083
8.99,-0.153,1.116,0.089
9.0,-0.113,0.684,0.177
9.01,-0.408,1.103,-0.166
9.02,-0.328,0.889,-0.099
9.03,-0.105,1.21,0.098
9.04,-0.139,0.795,0.079
9.05,-0.22,0.786,0.058
9.06,-0.437,1.26,-0.193
9.07,-0.062,0.844,-0.019
9.08,-0.138,1.231,0.139
9.09,-0.08,0.618,0.058
9.1,-0.478,1.162,-0.151
9.11,-0.139,1.002,-0.084
9.12,-0.125,1.009,0.104
9.13,-0.21,0.931,0.172
9.14,-0.27,0.795,-0.066
9.15,-0.375,1.15,-0.179
9.16,0.007,0.871,0.09
9.17,-0.144,1.176,0.129
9.18,-0.164,0.628,-0.042
9.19,-0.419,1.214,-0.173
9.2,-0.109,1.037,-0.109
9.21,-0.163,0.882,0.123
9.22,-0.138,0.98,0.142
9.23,-0.381,0.737,-0.168
9.24,-0.305,1.256,-0.085
9.25,0.007,0.905,0.069
9.26,-0.122,0.943,0.111
9.27,-0.24,0.783,0.044
9.28,-0.382,1.2,-0.239
9.29,-0.137,0.995,-0.021
9.3,-0.057,0.886,0.16
9.31,-0.265,0.97,0.042
9.32,-0.392,0.824,-0.142
9.33,-0.107,1.324,-0.088
9.34,-0.111,0.78,0.092
9.35,-0.127,0.959,0.15
9.36,-0.318,0.86,-0.118
9.37,-0.282,1.009,-0.179
9.38,0.031,1.199,0.054
9.39,-0.144,0.676,0.119
9.4,-0.249,1.079,0.049
9.41,-0.463,0.915,-0.213
9.42,-0.138,1.128,-0.03
9.43,-0.087,0.84,0.16
9.44,-0.181,0.937,0.091
9.45,-0.284,0.962,-0.193
9.46,-0.266,0.995,-0.081
9.47,-0.05,1.149,0.081
9.48,-0.037,0.638,0.133
9.49,-0.402,1.102,-0.033
9.5,-0.299,0.83,-0.192
9.51,-0.084,1.182,0.0
9.52,-0.218,0.88,0.162
9.53,-0.163,0.974,0.041
9.54,-0.445,0.994,-0.227
9.55,-0.089,1.054,-0.042
9.56,-0.126,0.973,0.109
9.57,-0.181,0.737,0.17
9.58,-0.378,1.156,-0.143
9.59,-0.285,0.858,-0.088
9.6,-0.101,1.261,0.068
9.61,-0.091,0.654,0.109
9.62,-0.307,0.983,-0.024
9.63,-0.31,1.063,-0.192
9.64,-0.104,0.936,-0.005
9.65,-0.19,1.061,0.173
9.66,-0.053,0.685,0.058
9.67,-0.483,1.224,-0.19
9.68,-0.131,0.916,-0.037
9.69,-0.094,1.129,0.092
9.7,-0.137,0.756,0.145
9.71,-0.317,0.969,-0.111
9.72,-0.268,1.074,-0.208
9.73,-0.084,0.976,0.138
9.74,-0.18,1.063,0.128
9.75,-0.189,0.631,0.003
9.76,-0.405,1.329,-0.176
9.77,-0.079,0.879,-0.03
9.78,-0.265,1.062,0.165
9.79,-0.081,0.823,0.13
9.8,-0.417,0.897,-0.252
9.81,-0.215,1.176,-0.02
9.82,-0.057,0.909,0.088
9.83,-0.262,0.978,0.136
9.84,-0.198,0.697,-0.017
9.85,-0.344,1.33,-0.231
9.86,-0.116,0.849,0.043
9.87,-0.052,1.049,0.176
9.88,-0.173,0.841,0.005
9.89,-0.458,0.922,-0.178
9.9,-0.048,1.245,-0.102
9.91,-0.083,0.758,0.084
9.92,-0.22,1.04,0.174
9.93,-0.252,0.729,-0.166
9.94,-0.31,1.211,-0.164
9.95,-0.044,0.985,0.082
9.96,-0.069,0.805,0.109
9.97,-0.323,0.941,0.037
9.98,-0.356,0.956,-0.185
9.99,-0.047,1.243,-0.028
10.0,-0.201,0.752,0.194
10.01,-0.148,1.043,0.095
10.02,-0.316,0.836,-0.184
10.03,-0.238,1.193,-0.052
10.04,-0.087,0.948,0.09
10.05,-0.179,0.756,0.131
10.06,-0.304,1.056,-0.073
10.07,-0.262,0.853,-0.194
10.08,-0.108,1.293,0.11
10.09,-0.152,0.723,0.158
10.1,-0.265,1.003,0.015
10.11,-0.386,0.993,-0.179
10.12,-0.175,1.009,-0.052
10.13,-0.123,0.96,0.106
10.14,-0.093,0.767,0.091
10.15,-0.406,1.126,-0.194
10.16,-0.205,0.886,-0.027
10.17,-0.132,1.251,0.107
10.18,-0.141,0.641,0.128
10.19,-0.219,1.002,-0.01
10.2,-0.42,1.016,-0.218
10.21,-0.108,0.993,0.094
10.22,-0.092,1.079,0.087
10.23,-0.127,0.648,0.065
10.24,-0.399,1.293,-0.163
10.25,-0.179,0.886,-0.064
10.26,-0.204,1.055,0.146
10.27,-0.052,0.804,0.153
10.28,-0.437,0.922,-0.118
10.29,-0.277,1.015,-0.155
10.3,0.042,1.079,0.103
10.31,-0.242,1.001,0.111
10.32,-0.13,0.613,0.022
10.33,-0.382,1.382,-0.23
10.34,-0.108,0.841,0.008
10.35,-0.122,1.234,0.158
10.36,-0.134,0.639,0.053
10.37,-0.415,1.137,-0.154
10.38,-0.119,1.123,-0.064
10.39,-0.147,0.882,0.115
10.4,-0.187,0.975,0.179
10.41,-0.246,0.771,-0.122
10.42,-0.381,1.239,-0.136
10.43,-0.078,0.923,0.167
10.44,-0.172,1.079,0.106
10.45,-0.215,0.667,0.019
10.46,-0.232,1.244,-0.241
10.47,-0.246,1.041,-0.044
10.48,-0.219,0.758,0.228
10.49,-0.036,1.036,0.069
10.5,-0.416,0.734,-0.245
10.51,-0.149,1.294,-0.066
10.52,-0.037,0.844,0.034
10.53,-0.27,0.906,0.23
10.54,-0.075,0.894,-0.086
10.55,-0.383,1.069,-0.272
10.56,-0.139,1.039,0.13
10.57,-0.021,0.894,0.156
10.58,-0.263,0.975,-0.005
10.59,-0.304,0.85,-0.147
10.6,-0.201,1.312,-0.061
10.61,-0.192,0.743,0.114
10.62,-0.045,0.952,0.177
10.63,-0.331,0.895,-0.143
10.64,-0.32,0.948,-0.111
10.65,0.023,1.215,0.012
10.66,-0.117,0.597,0.09
10.67,-0.282,1.108,0.126
10.68,-0.29,0.959,-0.297
10.69,-0.164,1.064,-0.071
10.7,-0.124,0.848,0.219
10.71,-0.179,0.904,0.103
10.72,-0.389,1.008,-0.223
10.73,-0.102,1.01,-0.045
10.74,-0.187,1.145,0.063
10.75,-0.127,0.576,0.16
10.76,-0.284,1.154,-0.042
10.77,-0.312,0.829,-0.24
10.78,-0.108,1.075,0.039
10.79,-0.083,0.958,0.118
10.8,-0.156,0.785,0.029
10.81,-0.46,1.164,-0.154
10.82,-0.1,0.934,-0.095
10.83,-0.137,1.079,0.083
10.84,-0.092,0.71,0.167
10.85,-0.421,1.109,-0.143
10.86,-0.274,0.797,-0.203
10.87,0.069,1.21,0.106
10.88,-0.188,0.852,0.122
10.89,-0.256,0.731,0.059
10.9,-0.391,1.323,-0.211
10.91,-0.105,0.821,-0.055
10.92,-0.21,1.182,0.202
10.93,-0.075,0.648,0.037
10.94,-0.519,1.095,-0.18
10.95,-0.107,1.071,-0.059
10.96,-0.144,0.983,0.087
10.97,-0.191,0.845,0.199
10.98,-0.195,0.796,-0.045
10.99,-0.399,1.242,-0.222
11.0,-0.07,0.838,0.143
11.01,-0.199,1.168,0.193
11.02,-0.183,0.653,0.04
11.03,-0.437,1.184,-0.158
11.04,-0.103,1.079,-0.095
11.05,-0.125,0.837,0.128
11.06,-0.161,1.023,0.203
11.07,-0.337,0.745,-0.175
11.08,-0.3,1.206,-0.148
11.09,0.0,0.907,0.054
11.1,-0.161,0.988,0.105
11.11,-0.12,0.759,0.036
11.12,-0.422,1.168,-0.206
11.13,-0.121,1.024,-0.028
11.14,-0.128,0.853,0.142
11.15,-0.147,1.01,0.124
11.16,-0.43,0.719,-0.175
11.17,-0.203,1.3,-0.004
11.18,-0.053,0.807,0.075
11.19,-0.208,0.985,0.148
11.2,-0.197,0.822,-0.066
11.21,-0.353,1.188,-0.202
11.22,-0.153,0.954,0.08
11.23,-0.088,0.904,0.117
11.24,-0.203,0.909,-0.004
11.25,-0.406,0.891,-0.092
11.26,-0.151,1.261,-0.048
11.27,-0.161,0.678,0.128
11.28,-0.165,1.068,0.166
11.29,-0.291,0.83,-0.174
11.3,-0.393,1.074,-0.064
11.31,0.034,1.136,0.056
11.32,-0.125,0.729,0.093
11.33,-0.345,1.052,0.035
11.34,-0.283,0.907,-0.214
11.35,-0.174,1.226,-0.026
11.36,-0.056,0.735,0.176
11.37,-0.13,0.978,0.08
11.38,-0.429,0.91,-0.159
11.39,-0.141,1.084,-0.032
11.4,-0.154,1.045,0.106
11.41,-0.179,0.667,0.18
11.42,-0.358,1.136,-0.072
11.43,-0.231,0.832,-0.154
11.44,-0.243,1.28,0.12
11.45,-0.119,0.769,0.16
11.46,-0.186,0.932,0.009
11.47,-0.481,1.11,-0.116
11.48,-0.144,0.971,-0.048
11.49,-0.172,1.028,0.122
11.5,-0.115,0.7,0.153
11.51,-0.408,1.179,-0.16
11.52,-0.216,0.88,-0.093
11.53,-0.097,1.245,0.063
11.54,-0.035,0.688,0.111
11.55,-0.339,0.922,0.034
11.56,-0.423,1.153,-0.18
11.57,-0.091,0.868,-0.014
11.58,-0.115,1.13,0.129
11.59,-0.045,0.659,0.114
11.6,-0.455,1.232,-0.202
11.61,-0.182,0.928,-0.046
11.62,-0.094,1.08,0.114
11.63,-0.178,0.854,0.195
11.64,-0.341,0.845,-0.096
11.65,-0.272,1.135,-0.219
11.66,-0.073,0.941,0.09
11.67,-0.188,1.099,0.138
11.68,-0.108,0.634,-0.013
11.69,-0.453,1.316,-0.207
11.7,-0.08,0.922,-0.05
11.71,-0.202,0.997,0.171
11.72,-0.124,0.913,0.079
11.73,-0.39,0.814,-0.206
11.74,-0.233,1.288,-0.082
11.75,-0.06,0.87,0.1
11.76,-0.198,0.953,0.117
11.77,-0.155,0.72,-0.023
11.78,-0.448,1.257,-0.199
11.79,-0.065,0.97,0.018
11.8,-0.13,0.984,0.122
11.81,-0.128,0.912,0.046
11.82,-0.365,0.878,-0.196
11.83,-0.143,1.313,-0.087
11.84,-0.11,0.717,0.115
11.85,-0.159,1.016,0.168
11.86,-0.309,0.768,-0.105
11.87,-0.311,1.081,-0.183
11.88,-0.039,1.077,0.05
11.89,-0.127,0.758,0.149
11.9,-0.254,0.981,0.03
11.91,-0.316,0.945,-0.204
11.92,-0.121,1.191,-0.043
11.93,-0.153,0.728,0.19
11.94,-0.195,0.999,0.114
11.95,-0.341,0.891,-0.205
11.96,-0.271,1.073,-0.079
11.97,-0.039,1.07,0.101
11.98,-0.248,0.856,0.195
11.99,-0.28,1.016,-0.079
12.0,-0.248,0.879,-0.23
12.01,-0.176,1.276,0.116
12.02,-0.12,0.668,0.182
12.03,-0.239,1.02,-0.016
12.04,-0.322,0.917,-0.18
12.05,-0.156,1.13,-0.055
12.06,-0.139,0.867,0.132
12.07,-0.126,0.816,0.161
12.08,-0.369,1.06,-0.126
12.09,-0.252,0.859,-0.092
12.1,-0.055,1.341,0.051
12.11,-0.146,0.602,0.105
12.12,-0.336,1.022,0.08
12.13,-0.312,0.994,-0.232
12.14,-0.11,1.015,0.002
12.15,-0.177,1.008,0.201
12.16,-0.146,0.714,0.072
12.17,-0.446,1.163,-0.178
12.18,-0.063,0.92,-0.077
12.19,-0.146,1.191,0.106
12.2,-0.154,0.639,0.172
12.21,-0.247,1.023,-0.1
12.22,-0.334,0.975,-0.178
12.23,-0.13,1.008,0.141
12.24,-0.086,1.081,0.114
12.25,-0.261,0.645,0.003
12.26,-0.387,1.273,-0.185
12.27,-0.111,0.888,-0.03
12.28,-0.228,1.105,0.158
12.29,-0.094,0.763,0.146
12.3,-0.36,0.973,-0.167
12.31,-0.289,1.085,-0.09
12.32,-0.097,0.986,0.116
12.33,-0.136,0.958,0.113
12.34,-0.201,0.734,0.009
12.35,-0.406,1.363,-0.221
12.36,-0.096,0.782,-0.034
12.37,-0.108,1.128,0.181
12.38,-0.134,0.783,0.072
12.39,-0.427,0.963,-0.179
12.4,-0.079,1.205,-0.122
12.41,-0.128,0.852,0.124
12.42,-0.221,0.965,0.192
12.43,-0.323,0.719,-0.095
12.44,-0.325,1.25,-0.188
12.45,-0.09,0.948,0.102
12.46,-0.134,0.992,0.135
12.47,-0.19,0.807,0.026
12.48,-0.341,1.031,-0.151
12.49,-0.169,1.189,-0.086
12.5,-0.162,0.682,0.144
12.51,-0.131,1.095,0.101
12.52,-0.341,0.728,-0.196
12.53,-0.262,1.161,-0.105
12.54,0.035,1.053,0.078
12.55,-0.18,0.792,0.111
12.56,-0.217,0.915,-0.028
12.57,-0.33,1.022,-0.172
12.58,-0.135,1.172,-0.001
12.59,-0.181,0.729,0.245
12.6,-0.216,1.03,0.082
12.61,-0.334,0.816,-0.261
12.62,-0.129,1.222,-0.053
12.63,-0.108,0.909,0.119
12.64,-0.223,0.758,0.182
12.65,-0.218,1.104,-0.076
12.66,-0.309,0.872,-0.189
12.67,-0.203,1.222,0.162
12.68,-0.087,0.719,0.113
12.69,-0.257,1.003,-0.016
12.7,-0.381,0.959,-0.159
12.71,-0.16,1.076,-0.011
12.72,-0.2,0.963,0.177
12.73,-0.118,0.775,0.147
12.74,-0.394,1.106,-0.2
12.75,-0.245,0.886,-0.047
12.76,0.009,1.27,0.038
12.77,-0.13,0.629,0.128
12.78,-0.28,0.998,0.02
12.79,-0.284,1.025,-0.239
12.8,-0.165,1.159,0.085
12.81,-0.112,0.914,0.168
12.82,-0.162,0.803,0.024
12.83,-0.48,1.167,-0.18
12.84,-0.091,0.934,-0.083
12.85,-0.121,1.096,0.038
12.86,-0.086,0.68,0.178
12.87,-0.428,1.126,-0.139
12.88,-0.28,0.819,-0.197
12.89,0.03,1.216,0.099
12.9,-0.163,0.884,0.172
12.91,-0.29,0.757,0.033
12.92,-0.342,1.269,-0.233
12.93,-0.093,0.787,-0.053
12.94,-0.139,1.201,0.125
12.95,-0.069,0.682,0.078
12.96,-0.479,1.09,-0.17
12.97,-0.189,1.015,-0.042
12.98,-0.084,0.984,0.086
12.99,-0.2,0.908,0.148
13.0,-0.257,0.803,-0.04
13.01,-0.385,1.234,-0.193
13.02,-0.098,0.831,0.102
13.03,-0.093,1.186,0.129
13.04,-0.175,0.657,0.01
13.05,-0.476,1.131,-0.15
13.06,-0.118,1.076,-0.099
13.07,-0.112,0.847,0.116
13.08,-0.157,1.008,0.175
13.09,-0.327,0.748,-0.152
13.1,-0.3,1.241,-0.136
13.11,0.029,0.936,0.099
13.12,-0.209,0.953,0.124
13.13,-0.219,0.76,0.055
13.14,-0.371,1.22,-0.232
13.15,-0.115,1.022,-0.022
13.16,-0.173,0.835,0.231
13.17,-0.108,1.015,0.06
13.18,-0.393,0.783,-0.196
13.19,-0.136,1.322,-0.068
13.2,-0.117,0.798,0.103
13.21,-0.273,0.959,0.214
13.22,-0.231,0.866,-0.108
13.23,-0.321,0.986,-0.213
13.24,-0.038,1.187,0.116
13.25,-0.13,0.757,0.157
13.26,-0.289,0.978,0.028
13.27,-0.26,0.92,-0.204
13.28,-0.128,1.206,-0.055
13.29,-0.201,0.79,0.208
13.3,-0.132,0.948,0.135
13.31,-0.337,0.967,-0.219
13.32,-0.316,0.993,-0.009
13.33,-0.121,1.22,0.083
13.34,-0.142,0.567,0.125
13.35,-0.252,1.142,0.012
13.36,-0.331,0.902,-0.236
13.37,-0.146,1.096,0.02
13.38,-0.128,0.947,0.197
13.39,-0.17,0.806,0.107
13.4,-0.428,1.088,-0.187
13.41,-0.054,0.986,-0.14
13.42,-0.112,1.135,0.075
13.43,-0.162,0.675,0.224
13.44,-0.322,1.112,-0.116
13.45,-0.266,0.825,-0.246
13.46,-0.068,1.184,0.1
13.47,-0.096,0.917,0.094
13.48,-0.237,0.74,0.032
13.49,-0.394,1.246,-0.179
13.5,-0.049,0.918,-0.074
13.51,-0.178,1.1,0.093
13.52,-0.057,0.738,0.141
13.53,-0.389,1.1,-0.177
13.54,-0.312,0.931,-0.053
13.55,-0.067,1.135,0.115
13.56,-0.188,0.857,0.087
13.57,-0.255,0.809,0.061
13.58,-0.438,1.317,-0.177
13.59,-0.159,0.778,0.021
13.6,-0.126,1.167,0.171
13.61,-0.128,0.613,0.015
13.62,-0.54,1.253,-0.137
13.63,-0.137,0.934,-0.063
13.64,-0.131,1.021,0.086
13.65,-0.023,0.842,0.134
13.66,-0.385,0.886,-0.159
13.67,-0.325,1.157,-0.077
13.68,0.023,0.983,0.071
13.69,-0.177,1.006,0.121
13.7,-0.192,0.692,0.09
13.71,-0.383,1.364,-0.265
13.72,-0.119,0.83,-0.05
13.73,-0.091,1.052,0.165
13.74,-0.216,0.86,0.112
13.75,-0.413,0.86,-0.14
13.76,-0.139,1.303,-0.081
13.77,-0.184,0.759,0.137
13.78,-0.122,1.006,0.175
13.79,-0.262,0.792,-0.091
13.8,-0.422,1.125,-0.175
13.81,-0.091,0.994,0.089
13.82,-0.154,1.009,0.119
13.83,-0.181,0.864,0.008
13.84,-0.387,0.955,-0.126
13.85,-0.237,1.265,-0.034
13.86,-0.132,0.668,0.121
13.87,-0.084,1.046,0.128
13.88,-0.341,0.771,-0.159
13.89,-0.266,1.095,-0.083
13.9,0.026,1.114,0.003
13.91,-0.173,0.703,0.124
13.92,-0.211,1.038,0.062
13.93,-0.352,0.958,-0.232
13.94,-0.164,1.134,-0.005
13.95,-0.103,0.759,0.206
13.96,-0.206,0.991,0.056
13.97,-0.36,0.868,-0.223
13.98,-0.02,1.152,-0.073
13.99,-0.235,1.044,0.101
14.0,-0.201,0.633,0.205
14.01,-0.225,1.153,-0.077
14.02,-0.392,0.846,-0.181
14.03,-0.122,1.231,0.119
14.04,-0.079,0.808,0.061
14.05,-0.216,0.913,-0.006
14.06,-0.281,1.098,-0.19
14.07,-0.15,1.025,-0.105
14.08,-0.132,1.004,0.135
14.09,-0.086,0.721,0.174
14.1,-0.471,1.116,-0.156
14.11,-0.243,0.837,-0.101
14.12,-0.052,1.256,0.104
14.13,-0.156,0.707,0.084
14.14,-0.204,0.891,0.007
14.15,-0.332,1.179,-0.214
14.16,-0.105,0.907,0.034
14.17,-0.149,1.112,0.176
14.18,-0.115,0.656,0.068
14.19,-0.449,1.224,-0.206
14.2,-0.086,0.965,-0.04
14.21,-0.114,1.081,0.121
14.22,-0.258,0.817,0.202
14.23,-0.25,0.879,-0.1
14.24,-0.339,1.138,-0.167
14.25,-0.038,0.939,0.109
14.26,-0.135,1.083,0.121
14.27,-0.21,0.644,0.053
14.28,-0.397,1.303,-0.22
14.29,-0.097,0.892,-0.094
14.3,-0.184,0.998,0.204
14.31,-0.211,0.86,0.144
14.32,-0.355,0.817,-0.213
14.33,-0.22,1.3,-0.071
14.34,-0.066,0.844,0.042
14.35,-0.132,0.988,0.099
14.36,-0.154,0.742,-0.005
14.37,-0.491,1.224,-0.217
14.38,-0.1,0.951,0.05
14.39,-0.125,1.022,0.098
14.4,-0.22,0.841,0.055
14.41,-0.354,0.854,-0.139
14.42,-0.134,1.349,-0.103
14.43,-0.099,0.749,0.114
14.44,-0.141,1.071,0.164
14.45,-0.337,0.707,-0.192
14.46,-0.301,1.184,-0.126
14.47,-0.015,1.001,0.119
14.48,-0.188,0.859,0.111
14.49,-0.212,0.866,0.038
14.5,-0.34,1.047,-0.25
14.51,-0.119,1.138,-0.066
14.52,-0.083,0.816,0.194
14.53,-0.181,1.061,0.026
14.54,-0.315,0.725,-0.19
14.55,-0.158,1.313,-0.08
14.56,-0.12,0.877,0.097
14.57,-0.143,0.793,0.163
14.58,-0.189,1.022,-0.054
14.59,-0.406,0.908,-0.202
14.6,-0.093,1.181,0.07
14.61,-0.062,0.824,0.148
14.62,-0.259,1.003,-0.033
14.63,-0.332,0.852,-0.148
14.64,-0.086,1.265,-0.036
14.65,-0.188,0.814,0.098
14.66,-0.164,0.818,0.226
14.67,-0.421,1.077,-0.138
14.68,-0.297,0.816,-0.134
14.69,-0.038,1.376,0.167
14.7,-0.153,0.619,0.096
14.71,-0.339,1.028,0.047
14.72,-0.257,0.984,-0.203
14.73,-0.144,1.045,-0.062
14.74,-0.19,0.912,0.193
14.75,0.002,0.764,0.026
14.76,-0.51,1.156,-0.184
14.77,-0.08,0.846,-0.061
14.78,-0.19,1.234,0.126
14.79,-0.173,0.641,0.18
14.8,-0.278,1.083,-0.071
14.81,-0.311,0.974,-0.205
14.82,-0.146,1.026,0.128
14.83,-0.172,1.036,0.128
14.84,-0.094,0.65,-0.035
14.85,-0.448,1.336,-0.14
14.86,-0.135,0.896,-0.032
14.87,-0.155,1.092,0.095
14.88,-0.089,0.761,0.129
14.89,-0.399,1.012,-0.165
14.9,-0.285,1.057,-0.11
14.91,-0.065,0.976,0.085
14.92,-0.145,0.963,0.089
14.93,-0.243,0.718,0.055
14.94,-0.38,1.335,-0.234
14.95,-0.132,0.858,0.014
14.96,-0.136,1.136,0.139
14.97,-0.12,0.731,0.028
14.98,-0.484,1.011,-0.12
14.99,-0.124,1.182,-0.091
15.0,-0.071,0.786,0.069
15.01,-0.131,1.071,0.148
15.02,-0.248,0.719,-0.11
15.03,-0.345,1.224,-0.187
15.04,-0.002,0.964,0.092
15.05,-0.121,0.981,0.115
15.06,-0.251,0.808,0.053
15.07,-0.353,1.056,-0.227
15.08,-0.144,1.102,-0.043
15.09,-0.163,0.78,0.171
15.1,-0.115,1.067,0.085
15.11,-0.339,0.76,-0.218
15.12,-0.187,1.267,-0.062
15.13,-0.146,0.904,0.09
15.14,-0.128,0.827,0.153
15.15,-0.191,1.0,-0.029
15.16,-0.375,0.962,-0.212
15.17,-0.1,1.165,0.05
15.18,-0.101,0.789,0.149
15.19,-0.198,0.984,0.031
15.2,-0.341,0.866,-0.185
15.21,-0.122,1.248,-0.088
15.22,-0.122,0.829,0.058
15.23,-0.203,0.791,0.15
15.24,-0.243,1.078,-0.114
15.25,-0.305,0.957,-0.156
15.26,0.021,1.199,0.124
15.27,-0.124,0.652,0.129
15.28,-0.393,1.079,0.037
15.29,-0.287,0.916,-0.197
15.3,-0.157,1.157,-0.081
15.31,-0.067,0.79,0.188
15.32,-0.168,0.903,0.11
15.33,-0.451,1.003,-0.182
15.34,-0.167,0.99,-0.049
15.35,-0.064,1.168,0.073
15.36,-0.212,0.637,0.179
15.37,-0.315,1.136,-0.059
15.38,-0.27,0.864,-0.2
15.39,-0.172,1.211,0.104
15.4,-0.101,0.793,0.134
15.41,-0.223,0.839,0.028
15.42,-0.4,1.181,-0.202
15.43,-0.111,0.873,-0.019
15.44,-0.204,1.172,0.158
15.45,-0.114,0.667,0.116
15.46,-0.42,1.07,-0.155
15.47,-0.218,0.935,-0.128
15.48,-0.073,1.187,0.073
15.49,-0.193,0.794,0.11
15.5,-0.215,0.791,0.021
15.51,-0.384,1.299,-0.206
15.52,-0.06,0.818,0.006
15.53,-0.188,1.192,0.176
15.54,-0.128,0.69,0.065
15.55,-0.419,1.134,-0.147
15.56,-0.175,1.031,-0.059
15.57,-0.093,0.961,0.083
15.58,-0.164,0.921,0.131
15.59,-0.336,0.799,-0.056
15.6,-0.316,1.202,-0.179
15.61,-0.036,0.916,0.092
15.62,-0.218,1.112,0.123
15.63,-0.069,0.658,0.01
15.64,-0.449,1.242,-0.172
15.65,-0.163,1.043,-0.039
15.66,-0.089,0.865,0.154
15.67,-0.197,0.989,0.14
15.68,-0.345,0.778,-0.164
15.69,-0.231,1.241,-0.146
15.7,-0.051,0.873,0.108
15.71,-0.128,0.968,0.135
15.72,-0.215,0.772,-0.014
15.73,-0.431,1.155,-0.211
15.74,0.0,1.049,-0.033
15.75,-0.127,0.86,0.157
15.76,-0.212,1.01,0.085
15.77,-0.355,0.789,-0.191
15.78,-0.156,1.332,-0.046
15.79,-0.143,0.798,0.136
15.8,-0.145,0.917,0.128
15.81,-0.263,0.885,-0.086
15.82,-0.357,1.052,-0.13
15.83,-0.156,1.119,0.065
15.84,-0.06,0.765,0.164
15.85,-0.297,1.047,-0.001
15.86,-0.312,0.87,-0.172
15.87,-0.169,1.231,-0.018
15.88,-0.11,0.764,0.168
15.89,-0.12,0.949,0.117
15.9,-0.308,0.983,-0.186
15.91,-0.273,0.954,-0.11
15.92,-0.06,1.235,0.098
15.93,-0.137,0.594,0.102
15.94,-0.307,1.106,-0.032
15.95,-0.278,0.933,-0.22
15.96,-0.183,1.092,0.001
15.97,-0.071,0.872,0.209
15.98,-0.153,0.834,0.048
15.99,-0.502,1.053,-0.184
16.0,-0.084,0.977,-0.06
16.01,-0.162,1.123,0.074
16.02,-0.195,0.64,0.174
16.03,-0.299,1.133,-0.099
16.04,-0.285,0.892,-0.173
16.05,-0.083,1.15,0.118
16.06,-0.087,0.685,0.126
16.07,-0.22,0.956,0.01
16.08,-0.376,1.091,-0.198
16.09,-0.139,0.939,0.018
16.1,-0.121,1.058,0.118
16.11,-0.157,0.691,0.081
16.12,-0.398,1.219,-0.178
16.13,-0.202,0.906,-0.056
16.14,-0.086,1.161,0.118
16.15,-0.167,0.768,0.182
16.16,-0.339,0.903,-0.055
16.17,-0.308,1.096,-0.194
16.18,-0.08,0.955,0.112
16.19,-0.204,1.101,0.15
16.2,-0.179,0.651,0.015
16.21,-0.511,1.312,-0.179
16.22,-0.109,0.901,-0.055
16.23,-0.098,1.015,0.107
16.24,-0.147,0.868,0.149
16.25,-0.419,0.887,-0.172
16.26,-0.26,1.16,-0.133
16.27,0.016,0.929,0.065
16.28,-0.197,1.002,0.116
16.29,-0.213,0.713,-0.006
16.3,-0.411,1.318,-0.184
16.31,-0.09,0.91,0.025
16.32,-0.058,1.026,0.154
16.33,-0.145,0.823,0.039
16.34,-0.474,0.919,-0.114
16.35,-0.118,1.25,-0.111
16.36,-0.09,0.723,0.057
16.37,-0.13,1.058,0.162
16.38,-0.316,0.741,-0.145
16.39,-0.341,1.162,-0.162
16.4,0.034,1.025,0.067
16.41,-0.122,0.795,0.12
16.42,-0.256,0.958,0.104
16.43,-0.34,0.972,-0.228
16.44,-0.125,1.163,-0.068
16.45,-0.126,0.774,0.192
16.46,-0.187,1.003,0.051
16.47,-0.31,0.782,-0.197
16.48,-0.188,1.215,-0.017
16.49,-0.145,0.969,0.089
16.5,-0.223,0.69,0.166
16.51,-0.204,1.121,-0.072
16.52,-0.307,0.843,-0.262
16.53,-0.124,1.211,0.133
16.54,-0.094,0.763,0.15
16.55,-0.284,0.944,0.017
16.56,-0.404,1.002,-0.156
16.57,-0.165,1.088,-0.057
16.58,-0.213,0.938,0.14
16.59,-0.105,0.779,0.134
16.6,-0.413,1.125,-0.182
16.61,-0.247,0.791,-0.094
16.62,0.006,1.311,0.111
16.63,-0.141,0.662,0.116
16.64,-0.293,0.948,0.037
16.65,-0.353,1.085,-0.185
16.66,-0.172,0.943,0.003
16.67,-0.041,1.085,0.14
16.68,-0.151,0.651,0.079
16.69,-0.472,1.258,-0.16
16.7,-0.066,0.947,-0.073
16.71,-0.131,1.098,0.114
16.72,-0.113,0.774,0.19
16.73,-0.343,0.977,-0.122
16.74,-0.362,1.042,-0.175
16.75,-0.094,1.0,0.1
16.76,-0.183,1.085,0.131
16.77,-0.205,0.621,-0.015
16.78,-0.457,1.355,-0.17
16.79,-0.047,0.895,-0.062
16.8,-0.181,1.044,0.148
16.81,-0.109,0.811,0.135
16.82,-0.414,0.896,-0.222
16.83,-0.155,1.184,-0.152
16.84,0.05,0.936,0.076
16.85,-0.234,1.019,0.114
16.86,-0.194,0.669,0.041
16.87,-0.485,1.307,-0.198
16.88,-0.094,0.833,0.139
16.89,-0.151,1.088,0.152
16.9,-0.185,0.704,0.019
16.91,-0.366,1.145,-0.184
16.92,-0.153,1.073,-0.028
16.93,-0.137,0.798,0.157
16.94,-0.157,1.044,0.053
16.95,-0.343,0.751,-0.179
16.96,-0.23,1.324,-0.071
16.97,-0.068,0.873,0.112
16.98,-0.138,0.873,0.084
16.99,-0.199,0.858,-0.035
17.0,-0.341,1.081,-0.241
17.01,-0.118,1.154,0.065
17.02,-0.141,0.797,0.145
17.03,-0.16,1.008,-0.022
17.04,-0.365,0.853,-0.18
17.05,-0.189,1.291,-0.073
17.06,-0.099,0.767,0.137
17.07,-0.199,0.917,0.143
17.08,-0.305,0.96,-0.136
17.09,-0.254,0.961,-0.164
17.1,-0.055,1.203,0.078
17.11,-0.011,0.658,0.112
17.12,-0.17,0.898,-0.11
17.13,-0.025,1.213,0.1
17.14,-0.129,0.757,0.145
17.15,-0.266,0.827,0.011
17.16,-0.336,1.202,-0.251
17.17,-0.079,0.843,0.004
17.18,-0.186,1.224,0.172
17.19,-0.112,0.602,-0.009
17.2,-0.463,1.181,-0.165
17.21,-0.043,1.063,-0.094
17.22,-0.065,0.957,0.078
17.23,-0.209,0.885,0.197
17.24,-0.223,0.832,-0.15
17.25,-0.334,1.228,-0.155
17.26,0.007,0.884,0.112
17.27,-0.176,1.058,0.1
17.28,-0.217,0.689,0.034
17.29,-0.416,1.232,-0.202
17.3,-0.075,0.951,-0.056
17.31,-0.077,0.954,0.142
17.32,-0.203,0.906,0.114
17.33,-0.364,0.831,-0.165
17.34,-0.189,1.37,-0.107
17.35,-0.09,0.746,0.147
17.36,-0.106,1.036,0.14
17.37,-0.262,0.784,-0.071
17.38,-0.296,1.16,-0.163
17.39,-0.072,1.1,0.037
17.4,-0.204,0.762,0.197
17.41,-0.178,1.013,0.071
17.42,-0.323,0.956,-0.272
17.43,-0.193,1.182,-0.022
17.44,-0.033,0.768,0.211
17.45,-0.286,0.978,0.128
17.46,-0.326,0.871,-0.077
17.47,-0.293,1.111,-0.072
17.48,-0.092,1.037,0.052
17.49,-0.048,0.665,0.13
17.5,-0.305,1.119,0.011
17.51,-0.376,0.85,-0.187
17.52,-0.112,1.204,-0.004
17.53,-0.083,0.83,0.166
17.54,-0.144,0.932,0.09
17.55,-0.392,1.036,-0.199
17.56,-0.203,0.981,-0.085
17.57,-0.067,1.049,0.108
17.58,-0.182,0.708,0.143
17.59,-0.448,1.114,-0.112
17.6,-0.161,0.845,-0.18
17.61,-0.089,1.278,0.089
17.62,-0.126,0.695,0.149
17.63,-0.207,0.86,-0.011
17.64,-0.347,0.988,-0.261
17.65,-0.025,1.019,-0.011
17.66,-0.199,1.052,0.199
17.67,-0.21,0.691,0.086
17.68,-0.393,1.176,-0.205
17.69,-0.094,0.943,-0.096
17.7,-0.108,1.103,0.104
17.71,-0.118,0.725,0.188
17.72,-0.399,1.016,-0.11
17.73,-0.319,0.929,-0.158
17.74,0.022,1.058,0.114
17.75,-0.233,1.01,0.162
17.76,-0.207,0.682,0.001
17.77,-0.39,1.332,-0.208
17.78,-0.135,0.844,-0.025
17.79,-0.141,1.108,0.144
17.8,-0.056,0.751,0.076
17.81,-0.415,0.993,-0.185
17.82,-0.202,1.133,-0.066
17.83,-0.109,0.918,0.087
17.84,-0.203,0.965,0.154
17.85,-0.18,0.726,-0.057
17.86,-0.424,1.273,-0.219
17.87,-0.06,0.921,0.158
17.88,-0.155,1.082,0.135
17.89,-0.223,0.726,0.025
17.9,-0.279,1.061,-0.178
17.91,-0.216,1.191,-0.026
17.92,-0.104,0.737,0.136
17.93,-0.163,1.065,0.14
17.94,-0.326,0.695,-0.137
17.95,-0.335,1.241,-0.119
17.96,0.007,0.904,0.066
17.97,-0.215,0.877,0.126
17.98,-0.209,0.924,0.03
17.99,-0.337,1.045,-0.252
18.0,-0.236,1.124,0.003
18.01,0.011,0.797,0.164
18.02,-0.234,1.027,0.064
18.03,-0.359,0.788,-0.152
18.04,-0.141,1.27,-0.102
18.05,-0.13,0.778,0.056
18.06,-0.129,0.891,0.208
18.07,-0.352,1.03,-0.067
18.08,-0.338,0.831,-0.159
18.09,-0.099,1.264,0.121
18.1,-0.07,0.695,0.117
18.11,-0.276,1.021,0.034
18.12,-0.309,1.013,-0.166
18.13,-0.182,1.108,-0.047
18.14,-0.211,0.889,0.178
18.15,-0.107,0.808,0.133
18.16,-0.49,1.045,-0.182
18.17,-0.186,0.864,-0.077
18.18,-0.035,1.318,0.068
18.19,-0.133,0.563,0.103
18.2,-0.246,1.069,0.059
18.21,-0.408,0.994,-0.239
18.22,-0.145,0.992,0.003
18.23,-0.11,1.088,0.149
18.24,-0.163,0.667,0.058
18.25,-0.49,1.222,-0.132
18.26,-0.031,0.954,-0.12
18.27,-0.16,1.124,0.033
18.28,-0.074,0.723,0.222
18.29,-0.342,1.047,-0.11
18.3,-0.302,0.921,-0.223
18.31,0.002,1.073,0.108
18.32,-0.124,0.97,0.084
18.33,-0.247,0.697,0.094
18.34,-0.449,1.332,-0.239
18.35,-0.074,0.82,-0.092
18.36,-0.183,1.175,0.209
18.37,-0.073,0.736,0.12
18.38,-0.435,0.98,-0.155
18.39,-0.206,1.168,-0.129
18.4,-0.084,0.951,0.055
18.41,-0.227,0.945,0.125
18.42,-0.188,0.722,-0.012
18.43,-0.458,1.353,-0.186
18.44,-0.098,0.805,0.023
18.45,-0.153,1.176,0.141
18.46,-0.063,0.645,-0.004
18.47,-0.434,1.175,-0.186
18.48,-0.118,1.024,-0.107
18.49,-0.084,0.912,0.111
18.5,-0.233,0.964,0.171
18.51,-0.262,0.775,-0.183
18.52,-0.297,1.208,-0.159
18.53,-0.081,0.938,0.134
18.54,-0.147,1.034,0.144
18.55,-0.236,0.72,0.056
18.56,-0.377,1.186,-0.239
18.57,-0.056,0.992,-0.126
18.58,-0.133,0.875,0.178
18.59,-0.197,1.005,0.122
18.6,-0.362,0.77,-0.195
18.61,-0.165,1.303,-0.092
18.62,-0.137,0.825,0.1
18.63,-0.141,0.949,0.187
18.64,-0.232,0.869,-0.051
18.65,-0.372,0.974,-0.234
18.66,-0.019,1.116,0.026
18.67,-0.119,0.897,0.141
18.68,-0.228,0.986,0.045
18.69,-0.312,0.822,-0.138
18.7,-0.272,1.298,-0.084
18.71,-0.087,0.745,0.095
18.72,-0.149,1.0,0.19
18.73,-0.378,0.877,-0.09
18.74,-0.252,0.919,-0.189
18.75,-0.069,1.264,0.072
18.76,-0.159,0.663,0.118
18.77,-0.143,1.024,0.033
18.78,-0.324,0.976,-0.153
18.79,-0.18,1.208,-0.044
18.8,-0.113,0.745,0.123
18.81,-0.195,0.917,0.18
18.82,-0.391,0.999,-0.193
18.83,-0.203,0.879,-0.099
18.84,-0.039,1.328,0.077
18.85,-0.1,0.56,0.121
18.86,-0.3,1.101,0.049
18.87,-0.271,0.94,-0.24
18.88,-0.145,1.047,-0.055
18.89,-0.08,0.905,0.207
18.9,-0.17,0.836,0.053
18.91,-0.519,1.068,-0.153
18.92,-0.114,0.954,-0.058
18.93,-0.114,1.188,0.046
18.94,-0.133,0.615,0.22
18.95,-0.336,1.095,-0.053
18.96,-0.247,0.864,-0.248
18.97,-0.121,1.131,0.143
18.98,-0.174,0.914,0.101
18.99,-0.102,0.717,-0.013
19.0,-0.402,1.31,-0.166
19.01,-0.162,0.83,-0.112
19.02,-0.156,1.105,0.129
19.03,-0.106,0.724,0.163
19.04,-0.417,1.043,-0.155
19.05,-0.292,0.928,-0.13
19.06,-0.092,1.11,0.12
19.07,-0.173,0.918,0.137
19.08,-0.163,0.676,-0.009
19.09,-0.385,1.365,-0.198
19.1,-0.054,0.824,-0.074
19.11,-0.178,1.15,0.155
19.12,-0.118,0.729,0.12
19.13,-0.427,1.017,-0.199
19.14,-0.242,1.077,-0.036
19.15,-0.057,0.979,0.078
19.16,-0.198,0.911,0.14
19.17,-0.196,0.731,0.019
19.18,-0.425,1.335,-0.239
19.19,-0.178,0.762,0.057
19.2,-0.093,1.187,0.156
19.21,-0.16,0.741,0.024
19.22,-0.49,1.01,-0.106
19.23,-0.098,1.192,-0.051
19.24,-0.129,0.813,0.078
19.25,-0.166,1.033,0.198
19.26,-0.226,0.749,-0.123
19.27,-0.321,1.158,-0.15
19.28,0.012,1.014,0.093
19.29,-0.18,1.06,0.097
19.3,-0.219,0.647,0.026
19.31,-0.34,1.224,-0.157
19.32,-0.109,1.071,-0.058
19.33,-0.271,0.799,0.182
19.34,-0.063,1.002,0.171
19.35,-0.381,0.824,-0.19
19.36,-0.332,1.161,-0.131
19.37,0.089,0.948,0.106
19.38,-0.206,0.981,0.132
19.39,-0.299,0.764,0.033
19.4,-0.26,1.166,-0.21
19.41,-0.146,1.014,-0.037
19.42,-0.156,0.841,0.292
19.43,-0.165,1.016,0.06
19.44,-0.46,0.714,-0.229
19.45,-0.109,1.302,-0.074
19.46,-0.03,0.849,0.059
19.47,-0.26,0.914,0.192
19.48,-0.21,0.919,-0.054
19.49,-0.308,0.966,-0.225
19.5,-0.167,1.166,0.164
19.51,-0.083,0.792,0.123
19.52,-0.291,1.007,-0.003
19.53,-0.351,0.86,-0.162
19.54,-0.144,1.26,-0.124
19.55,-0.135,0.798,0.133
19.56,-0.16,0.899,0.212
19.57,-0.306,0.997,-0.158
19.58,-0.293,0.901,-0.104
19.59,-0.143,1.232,0.139
19.6,-0.101,0.641,0.139
19.61,-0.26,1.073,0.005
19.62,-0.357,0.941,-0.192
19.63,-0.109,1.094,-0.006
19.64,-0.22,0.899,0.135
19.65,-0.079,0.803,0.096
19.66,-0.407,1.062,-0.205
19.67,-0.182,0.899,-0.062
19.68,-0.022,1.271,0.051
19.69,-0.138,0.615,0.133
19.7,-0.31,1.108,-0.001
19.71,-0.277,0.951,-0.294
19.72,-0.153,1.049,0.023
19.73,-0.126,0.971,0.151
19.74,-0.148,0.721,0.044
19.75,-0.452,1.169,-0.174
19.76,-0.006,0.916,-0.058
19.77,-0.22,1.223,0.094
19.78,-0.11,0.648,0.135
19.79,-0.264,1.098,-0.083
19.8,-0.359,0.928,-0.177
19.81,-0.128,1.043,0.134
19.82,-0.155,1.029,0.157
19.83,-0.263,0.655,0.027
19.84,-0.504,1.271,-0.164
19.85,-0.015,0.871,-0.074
19.86,-0.209,1.149,0.129
19.87,-0.094,0.729,0.174
19.88,-0.378,1.073,-0.173
19.89,-0.309,0.967,-0.139
19.9,-0.111,1.043,0.142
19.91,-0.085,1.0,0.11
19.92,-0.337,0.686,-0.013
19.93,-0.391,1.328,-0.168
19.94,-0.024,0.843,-0.01
19.95,-0.272,1.11,0.198
19.96,0.0,0.761,0.076
19.97,-0.414,1.002,-0.23
19.98,-0.246,1.092,-0.026
19.99,-0.01,0.954,0.078
20.0,-0.222,0.976,0.093
20.01,-0.192,0.75,-0.039
20.02,-0.295,1.354,-0.187
20.03,-0.26,0.823,0.119
20.04,-0.054,1.017,0.147
20.05,-0.129,0.826,-0.023
20.06,-0.489,0.972,-0.149
20.07,-0.019,1.192,-0.049
20.08,-0.181,0.867,0.115
20.09,-0.101,0.995,0.131
20.1,-0.327,0.823,-0.199
20.11,-0.212,1.263,-0.12
20.12,-0.073,0.859,0.079
20.13,-0.157,0.941,0.116
20.14,-0.308,0.814,-0.021
20.15,-0.274,1.115,-0.21
20.16,-0.14,1.046,0.016
20.17,-0.139,0.787,0.183
20.18,-0.087,1.025,0.001
20.19,-0.366,0.833,-0.204
20.2,-0.257,1.243,-0.004
20.21,-0.018,0.797,0.067
20.22,-0.198,0.953,0.143
20.23,-0.349,0.858,-0.111
20.24,-0.318,1.01,-0.144
20.25,-0.069,1.166,0.079
20.26,-0.076,0.637,0.095
20.27,-0.247,1.081,0.052
20.28,-0.386,0.917,-0.188
20.29,-0.12,1.124,-0.028
20.3,-0.127,0.831,0.161
20.31,-0.226,0.912,0.087
20.32,-0.323,0.986,-0.201
20.33,-0.163,1.013,-0.075
20.34,-0.213,1.163,0.15
20.35,-0.125,0.578,0.163
20.36,-0.257,1.111,-0.057
20.37,-0.336,0.877,-0.181
20.38,-0.11,1.164,0.065
20.39,-0.178,0.89,0.131
20.4,-0.12,0.81,-0.022
20.41,-0.424,1.144,-0.178
20.42,-0.185,0.954,-0.005
20.43,-0.169,1.126,0.128
20.44,-0.134,0.649,0.148
20.45,-0.308,1.135,-0.109
20.46,-0.301,0.915,-0.156
20.47,-0.13,1.102,0.13
20.48,-0.087,0.858,0.119
20.49,-0.305,0.779,-0.007
20.5,-0.426,1.251,-0.181
20.51,-0.035,0.87,-0.0
20.52,-0.205,1.138,0.134
20.53,-0.008,0.704,0.079
20.54,-0.417,1.146,-0.216
20.55,-0.287,0.971,0.002
20.56,-0.023,1.064,0.148
20.57,-0.215,0.897,0.083
20.58,-0.232,0.749,-0.078
20.59,-0.256,1.319,-0.195
20.6,-0.16,0.868,0.124
20.61,-0.162,1.028,0.139
20.62,-0.15,0.7,-0.016
20.63,-0.34,1.2,-0.211
20.64,-0.125,1.041,-0.012
20.65,-0.168,0.86,0.136
20.66,-0.124,0.96,0.128
20.67,-0.29,0.793,-0.205
20.68,-0.266,1.286,-0.088
20.69,-0.052,0.823,0.124
20.7,-0.117,1.003,0.132
20.71,-0.357,0.783,-0.005
20.72,-0.284,1.065,-0.221
20.73,-0.082,1.11,-0.012
20.74,-0.177,0.797,0.159
20.75,-0.109,1.007,0.012
20.76,-0.354,0.859,-0.181
20.77,-0.232,1.285,-0.015
20.78,-0.083,0.745,0.136
20.79,-0.142,0.977,0.128
20.8,-0.335,0.889,-0.163
20.81,-0.249,0.984,-0.128
20.82,-0.102,1.19,0.066
20.83,-0.068,0.633,0.093
20.84,-0.236,1.072,0.011
20.85,-0.321,0.937,-0.19
20.86,-0.142,1.169,-0.009
20.87,-0.104,0.801,0.149
20.88,-0.147,0.913,0.088
20.89,-0.359,1.016,-0.193
20.9,-0.209,1.144,-0.012
20.91,-0.097,0.965,0.131
20.92,-0.145,0.747,0.188
20.93,-0.39,1.125,-0.083
20.94,-0.258,0.824,-0.204
20.95,-0.06,1.274,0.11
20.96,-0.103,0.751,0.149
20.97,-0.243,0.957,-0.012
20.98,-0.388,1.043,-0.164
20.99,-0.134,1.031,-0.043
21.0,-0.2,0.972,0.104
21.01,-0.033,0.7,0.066
21.02,-0.427,1.173,-0.223
21.03,-0.201,0.875,-0.021
21.04,-0.069,1.228,0.111
21.05,-0.159,0.709,0.131
21.06,-0.205,0.943,-0.064
21.07,-0.336,1.104,-0.194
21.08,-0.082,0.957,0.085
21.09,-0.138,1.08,0.124
21.1,-0.143,0.62,0.056
21.11,-0.449,1.298,-0.199
21.12,-0.143,0.854,-0.033
21.13,-0.129,1.115,0.148
21.14,-0.141,0.802,0.104
21.15,-0.346,0.914,-0.132
21.16,-0.192,1.173,-0.146
21.17,-0.074,0.923,0.146
21.18,-0.179,1.025,0.119
21.19,-0.128,0.675,-0.03
21.2,-0.42,1.312,-0.186
21.21,-0.1,0.855,0.003
21.22,-0.111,1.034,0.155
21.23,-0.162,0.849,0.073
21.24,-0.405,0.917,-0.162
21.25,-0.21,1.256,-0.067
21.26,-0.101,0.793,0.132
21.27,-0.187,1.059,0.126
21.28,-0.197,0.722,-0.112
21.29,-0.392,1.227,-0.137
21.3,-0.073,0.983,0.086
21.31,-0.131,0.911,0.108
21.32,-0.231,0.88,-0.008
21.33,-0.342,0.949,-0.161
21.34,-0.146,1.253,-0.059
21.35,-0.148,0.708,0.143
21.36,-0.143,1.098,0.122
21.37,-0.356,0.802,-0.174
21.38,-0.258,1.123,-0.119
21.39,0.003,1.022,0.089
21.4,-0.174,0.742,0.082
21.41,-0.288,1.036,0.001
21.42,-0.262,0.908,-0.245
21.43,-0.127,1.202,-0.007
21.44,-0.086,0.767,0.182
21.45,-0.15,0.966,-0.004
21.46,-0.435,0.909,-0.189
21.47,-0.103,1.115,-0.039
21.48,-0.124,0.975,0.113
21.49,-0.182,0.71,0.183
21.5,-0.309,1.11,-0.139
21.51,-0.277,0.833,-0.148
21.52,-0.103,1.3,0.145
21.53,-0.097,0.666,0.108
21.54,-0.307,0.946,-0.017
21.55,-0.293,1.059,-0.199
21.56,-0.073,0.985,0.017
21.57,-0.168,1.084,0.157
21.58,-0.081,0.686,0.118
21.59,-0.49,1.178,-0.171
21.6,-0.183,0.888,-0.06
21.61,-0.074,1.2,0.095
21.62,-0.199,0.71,0.113
21.63,-0.295,0.955,-0.026
21.64,-0.323,1.121,-0.227
21.65,-0.129,0.898,0.111
21.66,-0.107,1.146,0.165
21.67,-0.188,0.603,-0.013
21.68,-0.49,1.255,-0.154
21.69,-0.034,0.961,-0.044
21.7,-0.169,1.0,0.1
21.71,-0.114,0.855,0.166
21.72,-0.464,1.079,-0.197
21.73,-0.267,1.008,-0.014
21.74,-0.06,1.043,0.146
21.75,-0.21,0.893,0.057
21.76,-0.135,0.768,-0.029
21.77,-0.374,1.373,-0.179
21.78,-0.169,0.8,0.094
21.79,-0.08,1.101,0.16
21.8,-0.19,0.706,-0.016
21.81,-0.496,1.084,-0.147
21.82,-0.115,1.087,-0.088
21.83,-0.114,0.842,0.13
21.84,-0.137,1.055,0.13
21.85,-0.285,0.708,-0.198
21.86,-0.333,1.303,-0.067
21.87,0.005,0.918,0.072
21.88,-0.115,0.892,0.099
21.89,-0.287,0.843,0.037
21.9,-0.353,1.086,-0.256
21.91,-0.049,1.059,-0.035
21.92,-0.122,0.829,0.187
21.93,-0.253,1.013,0.022
21.94,-0.354,0.763,-0.19
21.95,-0.174,1.315,-0.044
21.96,-0.118,0.779,0.109
21.97,-0.196,0.885,0.178
21.98,-0.248,0.936,-0.104
21.99,-0.294,0.972,-0.151
22.0,-0.085,1.209,0.115
22.01,-0.071,0.658,0.132
22.02,-0.339,1.081,0.024
22.03,-0.323,0.894,-0.198
22.04,-0.183,1.137,-0.001
22.05,-0.181,0.804,0.198
22.06,-0.117,0.889,0.103
22.07,-0.435,1.051,-0.205
22.08,-0.237,0.929,-0.022
22.09,-0.069,1.221,0.085
22.1,-0.174,0.596,0.117
22.11,-0.249,1.139,-0.04
22.12,-0.322,0.934,-0.216
22.13,-0.219,1.101,0.079
22.14,-0.095,0.925,0.149
22.15,-0.178,0.738,0.002
22.16,-0.454,1.217,-0.179
22.17,-0.045,0.905,-0.071
22.18,-0.225,1.127,0.11
22.19,-0.071,0.711,0.192
22.2,-0.425,1.102,-0.182
22.21,-0.329,0.956,-0.092
22.22,-0.075,1.145,0.141
22.23,-0.099,0.862,0.044
22.24,-0.237,0.755,0.062
22.25,-0.379,1.374,-0.205
22.26,-0.072,0.773,-0.067
22.27,-0.109,1.121,0.154
22.28,-0.064,0.718,0.034
22.29,-0.542,1.101,-0.127
22.3,-0.146,1.042,-0.068
22.31,-0.119,0.929,0.082
22.32,-0.132,1.012,0.159
22.33,-0.364,0.68,-0.08
22.34,-0.289,1.268,-0.16
22.35,0.022,0.948,0.036
22.36,-0.195,0.948,0.139
22.37,-0.153,0.751,0.033
22.38,-0.421,1.207,-0.234
22.39,-0.039,1.0,-0.091
22.4,-0.071,0.854,0.188
22.41,-0.254,1.057,0.084
22.42,-0.312,0.707,-0.209
22.43,-0.147,1.333,-0.088
22.44,-0.125,0.839,0.131
22.45,-0.204,0.936,0.163
22.46,-0.263,0.843,-0.08
22.47,-0.318,1.038,-0.222
22.48,-0.005,1.178,0.012
22.49,-0.138,0.782,0.132
22.5,-0.183,0.98,0.029
22.51,-0.371,0.898,-0.148
22.52,-0.186,1.282,-0.066
22.53,-0.091,0.662,0.159
22.54,-0.21,1.022,0.099
22.55,-0.377,0.831,-0.191
22.56,-0.233,1.098,-0.092
22.57,-0.048,1.059,0.072
22.58,-0.115,0.658,0.08
22.59,-0.276,1.103,0.014
22.6,-0.357,0.892,-0.225
22.61,-0.132,1.168,0.012
22.62,-0.067,0.82,0.149
22.63,-0.206,0.926,-0.025
22.64,-0.374,0.957,-0.147
22.65,-0.185,1.079,-0.045
22.66,-0.14,0.949,0.118
22.67,-0.107,0.719,0.179
22.68,-0.431,1.131,-0.113
22.69,-0.274,0.811,-0.082
22.7,-0.101,1.302,0.061
22.71,-0.135,0.685,0.158
22.72,-0.228,0.925,0.036
22.73,-0.386,1.107,-0.239
22.74,-0.038,0.906,-0.031
22.75,-0.094,1.126,0.135
22.76,-0.109,0.643,0.115
22.77,-0.458,1.225,-0.161
22.78,-0.104,0.929,-0.114
22.79,-0.108,1.119,0.088
22.8,-0.151,0.815,0.188
22.81,-0.391,0.919,-0.058
22.82,-0.349,1.095,-0.186
22.83,-0.061,0.922,0.069
22.84,-0.198,1.15,0.137
22.85,-0.124,0.619,-0.011
22.86,-0.449,1.298,-0.171
22.87,-0.116,0.918,-0.025
22.88,-0.18,1.003,0.163
22.89,-0.139,0.876,0.142
22.9,-0.361,0.815,-0.213
22.91,-0.234,1.181,-0.146
22.92,0.02,0.951,0.115
22.93,-0.17,0.987,0.094
22.94,-0.237,0.708,0.018
22.95,-0.365,1.286,-0.222
22.96,-0.1,0.89,0.003
22.97,-0.142,0.962,0.206
22.98,-0.183,0.905,0.056
22.99,-0.413,0.822,-0.189
23.0,-0.146,1.329,-0.082
23.01,-0.005,0.716,0.075
23.02,-0.216,1.039,0.175
23.03,-0.302,0.806,-0.081
23.04,-0.319,1.114,-0.162
23.05,-0.105,1.057,0.107
23.06,-0.128,0.803,0.177
23.07,-0.247,0.994,-0.007
23.08,-0.343,0.907,-0.216
23.09,-0.114,1.211,-0.049
23.1,-0.124,0.723,0.198
23.11,-0.222,0.979,0.097
23.12,-0.351,0.883,-0.208
23.13,-0.193,1.115,-0.054
23.14,-0.125,1.054,0.099
23.15,-0.088,0.631,0.154
23.16,-0.31,1.131,-0.068
23.17,-0.334,0.854,-0.196
23.18,-0.136,1.266,0.083
23.19,-0.097,0.751,0.153
23.2,-0.225,0.947,0.029
23.21,-0.379,1.015,-0.192
23.22,-0.176,1.024,-0.042
23.23,-0.128,1.012,0.106
23.24,-0.107,0.716,0.144
23.25,-0.444,1.138,-0.168
23.26,-0.155,0.829,-0.158
23.27,-0.064,1.272,0.11
23.28,-0.138,0.716,0.113
23.29,-0.254,0.904,-0.017
23.3,-0.339,1.187,-0.192
23.31,-0.076,0.927,0.01
23.32,-0.298,1.098,0.244
23.33,-0.034,0.673,0.016
23.34,-0.481,1.223,-0.228
23.35,-0.06,0.861,-0.029
23.36,-0.099,1.119,0.124
23.37,-0.143,0.72,0.169
23.38,-0.355,1.037,-0.132
23.39,-0.329,1.01,-0.147
23.4,-0.062,1.054,0.104
23.41,-0.129,0.994,0.098
23.42,-0.191,0.694,0.004
23.43,-0.502,1.356,-0.177
23.44,-0.037,0.843,-0.04
23.45,-0.1,1.091,0.14
23.46,-0.096,0.763,0.045
23.47,-0.449,1.024,-0.18
23.48,-0.21,1.137,-0.036
23.49,-0.113,0.901,0.135
23.5,-0.234,0.967,0.136
23.51,-0.219,0.731,-0.117
23.52,-0.284,1.337,-0.181
23.53,-0.107,0.875,0.18
23.54,-0.164,0.953,0.16
23.55,-0.25,0.801,-0.016
23.56,-0.355,1.092,-0.199
23.57,-0.16,1.091,-0.033
23.58,-0.124,0.764,0.184
23.59,-0.181,1.088,0.13
23.6,-0.365,0.741,-0.204
23.61,-0.219,1.284,-0.015
23.62,-0.069,0.869,0.114
23.63,-0.219,0.852,0.177
23.64,-0.22,0.962,-0.072
23.65,-0.366,1.0,-0.226
23.66,-0.138,1.226,0.101
23.67,-0.088,0.734,0.121
23.68,-0.237,1.035,0.008
23.69,-0.302,0.937,-0.179
23.7,-0.239,1.152,-0.036
23.71,-0.084,0.796,0.145
23.72,-0.14,0.888,0.135
23.73,-0.469,1.001,-0.174
23.74,-0.122,0.91,-0.096
23.75,-0.166,1.292,0.083
23.76,-0.132,0.587,0.117
23.77,-0.182,1.08,-0.061
23.78,-0.425,0.924,-0.223
23.79,-0.101,1.056,0.079
23.8,-0.06,1.012,0.133
23.81,-0.212,0.72,0.016
23.82,-0.356,1.188,-0.219
23.83,-0.064,0.875,-0.072
23.84,-0.153,1.132,0.158
23.85,-0.084,0.726,0.141
23.86,-0.43,1.066,-0.206
23.87,-0.206,0.955,-0.116
23.88,0.003,1.184,0.134
23.89,-0.221,0.893,0.142
23.9,-0.193,0.738,0.046
23.91,-0.363,1.328,-0.22
23.92,-0.12,0.788,0.013
23.93,-0.178,1.125,0.271
23.94,-0.147,0.726,0.053
23.95,-0.492,1.052,-0.209
23.96,-0.053,1.162,-0.068
23.97,-0.096,0.88,0.107
23.98,-0.156,0.959,0.169
23.99,-0.254,0.781,-0.124
24.0,-0.313,1.281,-0.178
24.01,-0.022,0.866,0.135
24.02,-0.137,0.993,0.146
24.03,-0.275,0.788,0.022
24.04,-0.379,1.149,-0.204
24.05,-0.135,1.083,-0.031
24.06,-0.115,0.803,0.192
24.07,-0.143,1.016,0.091
24.08,-0.378,0.758,-0.19
24.09,-0.198,1.293,-0.054
24.1,-0.058,0.812,0.11
24.11,-0.098,0.922,0.127
24.12,-0.303,0.897,-0.064
24.13,-0.353,0.98,-0.165
24.14,-0.077,1.229,0.071
24.15,-0.188,0.757,0.151
24.16,-0.213,1.004,0.069
24.17,-0.387,0.956,-0.167
24.18,-0.109,1.228,0.012
24.19,-0.06,0.687,0.132
24.2,-0.173,1.037,0.057
24.21,-0.374,0.882,-0.21
24.22,-0.221,1.047,-0.063
24.23,-0.03,1.079,0.117
24.24,-0.172,0.714,0.14
24.25,-0.365,1.101,-0.041
24.26,-0.279,0.878,-0.215
24.27,-0.122,1.237,0.065
24.28,-0.021,0.734,0.119
24.29,-0.179,0.94,-0.027
24.3,-0.472,1.036,-0.154
24.31,-0.083,1.032,-0.061
24.32,-0.146,1.001,0.082
24.33,-0.076,0.703,0.111
24.34,-0.423,1.199,-0.166
24.35,-0.274,0.891,-0.041
24.36,-0.042,1.199,0.093
24.37,-0.085,0.696,0.098
24.38,-0.279,0.913,-0.038
24.39,-0.274,1.15,-0.201
24.4,-0.095,0.94,0.086
24.41,-0.125,1.106,0.14
24.42,-0.204,0.61,0.039
24.43,-0.47,1.255,-0.155
24.44,-0.145,0.935,-0.061
24.45,-0.126,1.033,0.109
24.46,-0.174,0.851,0.172
24.47,-0.324,0.887,-0.143
24.48,-0.287,1.195,-0.129
24.49,-0.043,0.918,0.173
24.5,-0.227,0.991,0.13
24.51,-0.21,0.674,-0.014
24.52,-0.367,1.349,-0.214
24.53,-0.072,0.942,-0.009
24.54,-0.163,0.983,0.174
24.55,-0.126,0.857,0.022
24.56,-0.46,0.873,-0.189
24.57,-0.158,1.277,0.014
24.58,-0.08,0.767,0.134
24.59,-0.24,1.043,0.146
24.6,-0.2,0.763,-0.116
24.61,-0.365,1.189,-0.148
24.62,-0.099,1.01,0.187
24.63,-0.131,0.822,0.138
24.64,-0.374,0.955,-0.0
24.65,-0.259,0.966,-0.21
24.66,-0.071,1.278,-0.044
24.67,-0.27,0.699,0.224
24.68,-0.043,1.014,0.057
24.69,-0.438,0.926,-0.233
24.7,-0.118,1.129,-0.081
24.71,-0.11,0.953,0.095
24.72,-0.234,0.72,0.173
24.73,-0.31,1.089,-0.112
24.74,-0.277,0.842,-0.192
24.75,-0.135,1.264,0.115
24.76,-0.145,0.679,0.121
24.77,-0.238,0.961,0.048
24.78,-0.387,1.062,-0.243
24.79,-0.021,0.99,-0.069
24.8,-0.172,1.08,0.154
24.81,-0.115,0.696,0.081
24.82,-0.434,1.145,-0.168
24.83,-0.188,0.914,-0.047
24.84,-0.1,1.221,0.072
24.85,-0.174,0.71,0.154
24.86,-0.217,0.975,-0.052
24.87,-0.332,1.064,-0.212
24.88,-0.131,0.961,0.127
24.89,-0.172,1.088,0.129
24.9,-0.132,0.641,0.019
24.91,-0.473,1.315,-0.186
24.92,-0.126,0.836,-0.064
24.93,-0.158,1.094,0.103
24.94,-0.14,0.829,0.093
24.95,-0.334,0.91,-0.193
24.96,-0.271,1.188,-0.108
24.97,-0.101,0.931,0.08
24.98,-0.191,0.868,0.15
24.99,-0.232,0.772,-0.042
25.0,-0.358,1.284,-0.201
25.01,-0.116,0.852,0.119
25.02,-0.201,1.164,0.172
25.03,-0.136,0.678,0.039
25.04,-0.508,1.147,-0.214
25.05,-0.101,1.07,-0.114
25.06,-0.13,0.831,0.086
25.07,-0.163,1.016,0.168
25.08,-0.326,0.732,-0.165
25.09,-0.311,1.239,-0.127
25.1,-0.02,0.905,0.087
25.11,-0.117,0.956,0.102
25.12,-0.188,0.797,0.004
25.13,-0.396,1.117,-0.206
25.14,-0.079,1.075,-0.031
25.15,-0.127,0.856,0.251
25.16,-0.21,1.01,0.067
25.17,-0.34,0.802,-0.205
25.18,-0.165,1.286,-0.039
25.19,-0.117,0.779,0.131
25.2,-0.2,0.903,0.148
25.21,-0.239,0.956,-0.107
25.22,-0.329,0.954,-0.202
25.23,-0.165,1.187,0.147
25.24,-0.085,0.704,0.102
25.25,-0.251,1.043,0.014
25.26,-0.425,0.912,-0.147
25.27,-0.13,1.176,0.006
25.28,-0.196,0.87,0.151
25.29,-0.173,0.876,0.14
25.3,-0.311,1.009,-0.231
25.31,-0.187,0.941,-0.053
25.32,-0.11,1.253,0.11
25.33,-0.133,0.6,0.146
25.34,-0.306,1.093,-0.016
25.35,-0.353,0.901,-0.228
25.36,-0.203,1.112,0.076
25.37,-0.118,0.979,0.152
25.38,-0.141,0.759,0.014
25.39,-0.431,1.155,-0.162
25.4,-0.126,0.908,-0.07
25.41,-0.125,1.117,0.084
25.42,-0.098,0.706,0.181
25.43,-0.384,1.069,-0.129
25.44,-0.256,0.919,-0.167
25.45,-0.054,1.152,0.069
25.46,-0.175,0.986,-0.054
25.47,-0.132,1.013,0.115
25.48,-0.145,0.821,0.138
25.49,-0.306,0.866,-0.116
25.5,-0.282,1.187,-0.2
25.51,-0.076,0.905,0.139
25.52,-0.155,1.126,0.112
25.53,-0.15,0.658,0.004
25.54,-0.428,1.268,-0.156
25.55,-0.09,0.94,-0.06
25.56,-0.188,0.964,0.156
25.57,-0.147,0.938,0.107
25.58,-0.326,0.793,-0.199
25.59,-0.243,1.288,-0.039
25.6,-0.076,0.883,0.145
25.61,-0.187,0.988,0.135
25.62,-0.167,0.715,-0.009
25.63,-0.451,1.178,-0.187
25.64,-0.101,1.002,0.053
25.65,-0.127,0.959,0.122
25.66,-0.198,0.936,0.022
25.67,-0.4,0.881,-0.181
25.68,-0.153,1.28,-0.109
25.69,-0.051,0.709,0.094
25.7,-0.173,1.034,0.12
25.71,-0.274,0.803,-0.135
25.72,-0.332,1.041,-0.151
25.73,-0.016,0.969,0.091
25.74,-0.135,0.856,0.09
25.75,-0.316,0.921,0.005
25.76,-0.326,0.949,-0.251
25.77,-0.098,1.226,-0.032
25.78,-0.153,0.763,0.196
25.79,-0.201,1.033,0.087
25.8,-0.346,0.818,-0.185
25.81,-0.144,1.239,-0.09
25.82,-0.087,0.852,0.083
25.83,-0.129,0.779,0.176
25.84,-0.304,1.061,-0.097
25.85,-0.279,0.872,-0.167
25.86,-0.174,1.303,0.11
25.87,-0.122,0.681,0.147
25.88,-0.292,1.028,-0.006
25.89,-0.324,0.979,-0.138
25.9,-0.16,1.062,-0.016
25.91,-0.169,0.916,0.188
25.92,-0.083,0.775,0.082
25.93,-0.432,1.135,-0.195
25.94,-0.181,0.88,-0.045
25.95,-0.075,1.309,0.052
25.96,-0.164,0.633,0.135
25.97,-0.277,1.026,-0.036
25.98,-0.376,1.042,-0.194
25.99,-0.213,0.971,0.049
26.0,-0.042,1.07,0.132
26.01,-0.143,0.65,0.006
26.02,-0.404,1.273,-0.194
26.03,-0.113,0.885,-0.086
26.04,-0.16,1.103,0.083
26.05,0.0,0.753,0.184
26.06,-0.441,0.953,-0.16
26.07,-0.261,0.986,-0.162
26.08,-0.011,1.057,0.071
26.09,-0.2,1.004,0.139
26.1,-0.209,0.636,0.045
26.11,-0.35,1.377,-0.222
26.12,-0.129,0.813,0.015
26.13,-0.182,1.105,0.174
26.14,-0.064,0.772,0.1
26.15,-0.421,0.943,-0.195
26.16,-0.211,1.222,-0.028
26.17,-0.1,0.842,0.088
26.18,-0.232,1.005,0.151
26.19,-0.232,0.715,-0.018
26.2,-0.401,1.262,-0.214
26.21,-0.084,0.895,0.059
26.22,-0.083,1.044,0.127
26.23,-0.174,0.772,0.014
26.24,-0.419,0.993,-0.123
26.25,-0.149,1.24,-0.065
26.26,-0.133,0.67,0.083
26.27,-0.128,1.06,0.16
26.28,-0.351,0.744,-0.163
26.29,-0.274,1.158,-0.095
26.3,0.016,1.048,0.022
26.31,-0.1,0.792,0.102
26.32,-0.26,0.989,0.048
26.33,-0.323,0.968,-0.233
26.34,-0.122,1.155,-0.024
26.35,-0.081,0.773,0.193
26.36,-0.16,1.025,0.061
26.37,-0.391,0.839,-0.198
26.38,-0.115,1.185,-0.038
26.39,-0.174,0.931,0.105
26.4,-0.142,0.731,0.175
26.41,-0.317,1.115,-0.081
26.42,-0.325,0.799,-0.197
26.43,-0.187,1.267,0.154
26.44,-0.095,0.752,0.144
26.45,-0.269,0.97,-0.008
26.46,-0.323,0.985,-0.186
26.47,-0.146,1.01,-0.041
26.48,-0.243,0.988,0.188
26.49,-0.026,0.766,0.102
26.5,-0.411,1.129,-0.203
26.51,-0.189,0.886,-0.046
26.52,-0.096,1.34,0.072
26.53,-0.044,0.609,0.106
26.54,-0.262,1.134,-0.051
26.55,-0.32,0.901,-0.217
26.56,-0.119,1.076,0.071
26.57,-0.052,0.962,0.137
26.58,-0.18,0.731,0.011
26.59,-0.448,1.185,-0.147
26.6,-0.067,0.937,-0.068
26.61,-0.172,1.15,0.065
26.62,-0.054,0.664,0.148
26.63,-0.369,1.083,-0.171
26.64,-0.256,0.9,-0.153
26.65,-0.022,1.145,0.094
26.66,-0.17,0.855,0.146
26.67,-0.22,0.74,0.05
26.68,-0.405,1.389,-0.21
26.69,-0.119,0.712,-0.04
26.7,-0.188,1.191,0.249
26.71,-0.149,0.72,0.093
26.72,-0.45,1.046,-0.218
26.73,-0.1,1.061,-0.057
26.74,-0.118,0.994,0.089
26.75,-0.161,0.94,0.174
26.76,-0.208,0.688,-0.083
26.77,-0.38,1.299,-0.204
26.78,-0.111,0.843,0.109
26.79,-0.107,1.112,0.1
26.8,-0.154,0.668,0.033
26.81,-0.402,1.074,-0.147
26.82,-0.088,1.178,-0.073
26.83,-0.131,0.784,0.137
26.84,-0.222,1.054,0.208
26.85,-0.319,0.736,-0.156
26.86,-0.281,1.237,-0.163
26.87,0.022,0.951,0.081
26.88,-0.152,0.916,0.111
26.89,-0.288,0.82,0.038
26.9,-0.317,1.07,-0.178
26.91,-0.092,1.145,-0.031
26.92,-0.206,0.748,0.184
26.93,-0.154,1.055,0.083
26.94,-0.328,0.762,-0.253
26.95,-0.176,1.243,-0.07
26.96,-0.049,0.914,0.096
26.97,-0.245,0.836,0.182
26.98,-0.328,0.968,0.007
26.99,-0.244,0.949,-0.205
27.0,-0.176,1.187,0.022
27.01,-0.078,0.736,0.131
27.02,-0.178,1.031,-0.001
27.03,-0.425,0.885,-0.151
27.04,-0.14,1.144,-0.037
27.05,-0.104,0.882,0.116
27.06,-0.113,0.806,0.145
27.07,-0.335,1.083,-0.169
27.08,-0.178,0.872,-0.15
27.09,-0.127,1.305,0.059
27.1,-0.021,0.574,0.069
27.11,-0.273,1.08,0.024
27.12,-0.399,0.963,-0.187
27.13,-0.104,1.045,-0.009
27.14,-0.133,1.014,0.158
27.15,-0.139,0.682,0.099
27.16,-0.399,1.186,-0.156
27.17,-0.15,0.931,-0.057
27.18,-0.139,1.202,0.081
27.19,-0.049,0.645,0.169
27.2,-0.323,1.04,-0.07
27.21,-0.346,0.929,-0.199
27.22,-0.094,1.057,0.115
27.23,-0.158,1.146,0.16
27.24,-0.164,0.613,-0.011
27.25,-0.433,1.236,-0.181
27.26,0.031,0.923,-0.042
27.27,-0.224,1.081,0.144
27.28,-0.129,0.764,0.168
27.29,-0.372,1.024,-0.193
27.3,-0.298,0.982,-0.131
27.31,-0.046,1.034,0.141
27.32,-0.174,1.012,0.111
27.33,-0.288,0.683,0.032
27.34,-0.392,1.358,-0.23
27.35,-0.082,0.81,-0.032
27.36,-0.116,1.177,0.17
27.37,-0.097,0.648,0.039
27.38,-0.553,1.122,-0.148
27.39,-0.041,1.023,-0.069
27.4,-0.104,0.912,0.065
27.41,-0.171,0.982,0.182
27.42,-0.235,0.755,-0.168
27.43,-0.342,1.228,-0.147
27.44,-0.071,0.926,0.167
27.45,-0.16,1.047,0.113
27.46,-0.211,0.673,0.065
27.47,-0.348,1.246,-0.214
27.48,-0.093,1.006,-0.09
27.49,-0.18,0.82,0.16
27.5,-0.134,1.011,0.094
27.51,-0.377,0.778,-0.201
27.52,-0.277,1.266,-0.09
27.53,-0.022,0.837,0.102
27.54,-0.185,0.946,0.117
27.55,-0.235,0.846,0.0
27.56,-0.363,1.066,-0.211
27.57,-0.106,1.11,0.044
27.58,-0.111,0.81,0.165
27.59,-0.202,0.997,0.004
27.6,-0.352,0.84,-0.19
27.61,-0.15,1.312,-0.083
27.62,-0.069,0.718,0.116
27.63,-0.211,0.959,0.198
27.64,-0.328,0.948,-0.14
27.65,-0.253,0.912,-0.156
27.66,0.017,1.266,0.081
27.67,-0.159,0.604,0.148
27.68,-0.297,1.052,0.008
27.69,-0.281,0.937,-0.221
27.7,-0.154,1.116,-0.013
27.71,-0.181,0.823,0.247
27.72,-0.181,0.831,0.044
27.73,-0.384,1.031,-0.2
27.74,-0.138,0.96,-0.002
27.75,-0.133,1.219,0.065
27.76,-0.163,0.617,0.129
27.77,-0.244,1.159,-0.043
27.78,-0.373,0.886,-0.187
27.79,-0.162,1.121,0.082
27.8,-0.011,0.964,0.089
27.81,-0.293,0.721,0.016
27.82,-0.397,1.21,-0.161
27.83,-0.067,0.923,-0.043
27.84,-0.231,1.102,0.082
27.85,-0.042,0.703,0.177
27.86,-0.416,1.067,-0.179
27.87,-0.33,0.933,-0.1
27.88,0.058,1.146,0.074
27.89,-0.168,0.832,0.09
27.9,-0.257,0.766,0.087
27.91,-0.337,1.363,-0.236
27.92,-0.153,0.731,-0.031
27.93,-0.13,1.178,0.209
27.94,-0.065,0.706,0.09
27.95,-0.487,1.056,-0.19
27.96,-0.122,1.107,-0.028
27.97,-0.07,0.963,0.084
27.98,-0.282,0.926,0.166
27.99,-0.128,0.771,-0.066
28.0,-0.46,1.314,-0.189
28.01,-0.16,0.815,0.165
28.02,-0.07,1.175,0.115
28.03,-0.175,0.67,-0.046
28.04,-0.379,1.084,-0.108
28.05,-0.124,1.176,-0.061
28.06,-0.205,0.731,0.124
28.07,-0.064,1.066,0.132
28.08,-0.3,0.762,-0.218
28.09,-0.374,1.223,-0.067
28.1,0.025,0.932,0.121
28.11,-0.259,0.911,0.13
28.12,-0.187,0.848,0.026
28.13,-0.373,1.067,-0.233
28.14,-0.114,1.134,-0.04
28.15,-0.147,0.809,0.173
28.16,-0.149,1.01,0.049
28.17,-0.406,0.899,-0.125
28.18,-0.141,1.306,-0.096
28.19,-0.096,0.636,0.147
28.2,-0.129,1.019,0.13
28.21,-0.375,0.846,-0.114
28.22,-0.281,1.03,-0.158
28.23,-0.056,1.169,0.087
28.24,-0.154,0.69,0.136
28.25,-0.262,1.026,-0.003
28.26,-0.322,0.931,-0.203
28.27,-0.141,1.227,-0.025
28.28,-0.118,0.729,0.17
28.29,-0.182,0.988,0.064
28.3,-0.354,0.924,-0.196
28.31,-0.241,1.045,0.013
28.32,-0.096,1.128,0.101
28.33,-0.166,0.608,0.123
28.34,-0.308,1.132,0.003
28.35,-0.365,0.838,-0.166
28.36,-0.128,1.172,0.034
28.37,0.016,0.851,0.13
28.38,-0.218,0.879,0.053
28.39,-0.481,1.027,-0.148
28.4,-0.088,0.99,-0.074
28.41,-0.115,1.089,0.099
28.42,-0.164,0.664,0.19
28.43,-0.422,1.17,-0.124
28.44,-0.281,0.906,-0.127
28.45,-0.05,1.177,0.059
28.46,-0.104,0.745,0.093
28.47,-0.234,0.846,0.043
28.48,-0.398,1.232,-0.23
28.49,-0.1,0.843,-0.008
28.5,-0.23,1.168,0.2
28.51,-0.086,0.64,0.076
28.52,-0.427,1.187,-0.205
28.53,-0.206,0.936,-0.018
28.54,-0.088,1.06,0.104
28.55,-0.167,0.886,0.175
28.56,-0.249,0.804,-0.095
28.57,-0.296,1.219,-0.169
28.58,-0.049,0.883,0.051
28.59,-0.125,1.104,0.101
28.6,-0.14,0.654,-0.014
28.61,-0.417,1.273,-0.201
28.62,-0.104,0.985,-0.056
28.63,-0.2,0.903,0.165
28.64,-0.132,0.959,0.152
28.65,-0.368,0.787,-0.175
28.66,-0.26,1.249,-0.109
28.67,-0.049,0.864,0.093
28.68,-0.166,0.962,0.116
28.69,-0.213,0.767,0.007
28.7,-0.43,1.179,-0.262
28.71,-0.103,1.015,-0.013
28.72,-0.104,0.939,0.167
28.73,-0.129,0.961,0.061
28.74,-0.381,0.843,-0.15
28.75,-0.242,1.365,-0.044
28.76,-0.04,0.72,0.092
28.77,-0.21,0.991,0.185
28.78,-0.288,0.898,-0.102
28.79,-0.291,0.996,-0.184
28.8,-0.148,1.166,0.146
28.81,-0.122,0.719,0.139
28.82,-0.228,1.042,0.012
28.83,-0.369,0.933,-0.153
28.84,-0.194,1.195,-0.028
28.85,-0.103,0.763,0.145
28.86,-0.19,0.939,0.127
28.87,-0.339,0.942,-0.197
28.88,-0.248,0.952,-0.064
28.89,-0.063,1.222,0.106
28.9,-0.11,0.607,0.096
28.91,-0.31,1.117,0.02
28.92,-0.318,0.918,-0.212
28.93,-0.17,1.132,0.039
28.94,-0.107,0.876,0.157
28.95,-0.123,0.871,0.021
28.96,-0.396,1.11,-0.216
28.97,-0.075,0.919,-0.105
28.98,-0.11,1.142,0.127
28.99,-0.198,0.75,0.194
29.0,-0.422,1.143,-0.105
29.01,-0.227,0.849,-0.183
29.02,-0.069,1.253,0.105
29.03,-0.052,0.613,0.095
29.04,-0.319,1.076,0.025
29.05,-0.38,0.931,-0.202
29.06,-0.084,1.104,-0.037
29.07,-0.162,0.957,0.18
29.08,-0.154,0.741,0.071
29.09,-0.392,1.199,-0.204
29.1,-0.168,0.909,-0.088
29.11,-0.06,1.149,0.039
29.12,-0.075,0.704,0.143
29.13,-0.391,1.04,-0.116
29.14,-0.202,0.963,-0.203
29.15,-0.094,1.123,0.064
29.16,-0.164,0.891,0.144
29.17,-0.187,0.745,0.041
29.18,-0.462,1.329,-0.19
29.19,-0.073,0.805,0.016
29.2,-0.182,1.147,0.157
29.21,-0.132,0.755,0.124
29.22,-0.401,1.024,-0.207
29.23,-0.267,1.042,-0.08
29.24,-0.051,0.982,0.102
29.25,-0.137,0.985,0.114
29.26,-0.303,0.725,-0.001
29.27,-0.445,1.309,-0.189
29.28,-0.055,0.805,-0.007
29.29,-0.161,1.13,0.152
29.3,-0.057,0.781,0.03
29.31,-0.425,0.997,-0.224
29.32,-0.158,1.156,-0.054
29.33,-0.028,0.799,0.06
29.34,-0.203,1.006,0.134
29.35,-0.311,0.757,-0.129
29.36,-0.232,1.283,-0.168
29.37,-0.08,0.898,0.12
29.38,-0.194,0.914,0.194
29.39,-0.163,0.85,0.003
29.4,-0.372,1.054,-0.199
29.41,-0.12,1.129,-0.062
29.42,-0.083,0.733,0.085
29.43,-0.194,1.052,0.127
29.44,-0.338,0.803,-0.195
29.45,-0.26,1.219,-0.085
29.46,-0.13,0.925,0.132
29.47,-0.125,0.794,0.137
29.48,-0.308,0.971,-0.042
29.49,-0.288,0.925,-0.174
29.5,-0.079,1.246,0.039
29.51,-0.16,0.75,0.147
29.52,-0.187,1.019,0.028
29.53,-0.36,0.847,-0.226
29.54,-0.104,1.203,-0.039
29.55,-0.127,0.873,0.153
29.56,-0.25,0.777,0.222
29.57,-0.361,1.111,-0.124
29.58,-0.272,0.853,-0.183
29.59,-0.004,1.262,0.1
29.6,-0.057,0.663,0.107
29.61,-0.37,1.021,0.029
29.62,-0.292,0.955,-0.21
29.63,-0.117,1.084,-0.044
29.64,-0.154,0.975,0.166
29.65,-0.092,0.703,0.087
29.66,-0.471,1.227,-0.181
29.67,-0.113,0.881,-0.071
29.68,-0.115,1.169,0.1
29.69,-0.142,0.716,0.152
29.7,-0.339,1.036,-0.109
29.71,-0.209,0.967,-0.196
29.72,-0.117,1.068,0.102
29.73,-0.182,1.006,0.149
29.74,-0.148,0.635,-0.033
29.75,-0.467,1.349,-0.181
29.76,-0.037,0.877,-0.055
29.77,-0.279,1.098,0.168
29.78,-0.068,0.757,0.108
29.79,-0.364,1.003,-0.193
29.8,-0.272,1.083,-0.088
29.81,-0.068,1.045,0.115
29.82,-0.157,0.865,0.097
29.83,-0.271,0.804,-0.077
29.84,-0.316,1.264,-0.194
29.85,-0.174,0.832,0.107
29.86,-0.063,1.139,0.114
29.87,-0.148,0.657,0.001
29.88,-0.547,1.171,-0.111
29.89,-0.006,1.026,-0.089
29.9,-0.157,0.924,0.091
29.91,-0.089,0.954,0.165
29.92,-0.259,0.761,-0.214
29.93,-0.4,1.264,-0.072
29.94,0.041,0.885,0.091
29.95,-0.123,1.004,0.083
29.96,-0.353,0.786,0.052
29.97,-0.284,1.144,-0.2
29.98,-0.075,1.062,-0.031
29.99,-0.257,0.849,0.257
30.0,-0.083,1.003,0.091
30.01,-0.333,0.849,-0.26
30.02,-0.188,1.281,-0.053
30.03,-0.033,0.775,0.108
30.04,-0.242,0.949,0.155
30.05,-0.308,0.886,-0.07
30.06,-0.273,1.056,-0.141
30.07,-0.201,1.14,0.12
30.08,-0.108,0.738,0.189
30.09,-0.145,1.076,-0.012
30.1,-0.461,0.847,-0.205
30.11,-0.146,1.16,0.036
30.12,-0.086,0.808,0.092
30.13,-0.284,0.918,0.138
30.14,-0.239,0.986,-0.197
30.15,-0.236,0.999,-0.117
30.16,-0.123,1.176,0.098
30.17,-0.057,0.613,0.098
30.18,-0.335,1.105,-0.016
30.19,-0.268,0.919,-0.221
30.2,-0.068,1.145,-0.015
30.21,-0.179,0.837,0.18
30.22,-0.113,0.83,0.066
30.23,-0.417,1.131,-0.226
30.24,-0.11,0.883,-0.078
30.25,-0.068,1.124,0.078
30.26,-0.201,0.67,0.184
30.27,-0.372,1.094,-0.082
30.28,-0.228,0.916,-0.188
30.29,-0.145,1.123,0.154
30.3,-0.145,0.821,0.158
30.31,-0.17,0.794,-0.019
30.32,-0.432,1.292,-0.175
30.33,-0.044,0.806,-0.002
30.34,-0.232,1.165,0.147
30.35,-0.121,0.691,0.111
30.36,-0.419,1.11,-0.216
30.37,-0.264,1.0,-0.046
30.38,-0.033,1.02,0.097
30.39,-0.165,0.938,0.115
30.4,-0.306,0.735,-0.003
30.41,-0.31,1.273,-0.193
30.42,-0.05,0.886,0.079
30.43,-0.208,1.06,0.172
30.44,-0.105,0.696,0.017
30.45,-0.447,1.202,-0.225
30.46,-0.159,1.024,-0.082
30.47,-0.084,0.849,0.141
30.48,-0.155,1.02,0.113
30.49,-0.351,0.754,-0.142
30.5,-0.227,1.254,-0.115
30.51,-0.069,0.889,0.1
30.52,-0.173,0.95,0.149
30.53,-0.183,0.816,-0.025
30.54,-0.387,1.162,-0.182
30.55,-0.147,1.026,0.0
30.56,-0.131,0.818,0.199
30.57,-0.162,1.015,0.067
30.58,-0.418,0.787,-0.208
30.59,-0.166,1.313,-0.051
30.6,-0.065,0.835,0.116
30.61,-0.196,0.878,0.122
30.62,-0.195,0.775,-0.135
30.63,-0.31,1.131,-0.194
30.64,0.004,1.043,0.14
30.65,-0.123,0.816,0.138
30.66,-0.374,0.974,-0.002
30.67,-0.243,0.905,-0.198
30.68,-0.123,1.279,0.002
30.69,-0.148,0.701,0.198
30.7,-0.081,1.0,0.074
30.71,-0.416,0.886,-0.196
30.72,-0.196,1.071,-0.052
30.73,-0.105,1.065,0.092
30.74,-0.212,0.724,0.128
30.75,-0.282,1.116,-0.05
30.76,-0.348,0.871,-0.163
30.77,-0.137,1.241,0.114
30.78,-0.062,0.756,0.169
30.79,-0.275,0.925,0.033
30.8,-0.42,1.02,-0.168
30.81,-0.03,1.045,-0.074
30.82,-0.167,1.022,0.129
30.83,-0.206,0.75,0.178
30.84,-0.42,1.166,-0.191
30.85,-0.273,0.845,-0.144
30.86,0.004,1.266,0.14
30.87,-0.155,0.705,0.091
30.88,-0.304,0.887,-0.037
30.89,-0.237,1.178,-0.243
30.9,-0.014,0.859,-0.064
30.91,-0.131,1.066,0.186
30.92,-0.121,0.68,0.053
30.93,-0.58,1.203,-0.237
30.94,-0.024,0.86,-0.044
30.95,-0.062,1.114,0.126
30.96,-0.263,0.819,0.197
30.97,-0.304,0.868,-0.127
30.98,-0.257,1.227,-0.215
30.99,-0.007,0.899,0.126
31.0,-0.174,1.056,0.151
31.01,-0.2,0.634,-0.046
31.02,-0.35,1.31,-0.233
31.03,-0.048,0.878,-0.014
31.04,-0.195,0.981,0.214
31.05,-0.147,0.901,0.09
31.06,-0.44,0.897,-0.221
31.07,-0.18,1.247,-0.056
31.08,-0.05,0.755,0.099
31.09,-0.221,1.06,0.157
31.1,-0.245,0.719,-0.127
31.11,-0.24,1.153,-0.163
31.12,-0.107,1.078,0.178
31.13,-0.192,0.802,0.177
31.14,-0.284,0.973,0.007
31.15,-0.398,0.934,-0.173
31.16,-0.115,1.211,-0.061
31.17,-0.109,0.73,0.18
31.18,-0.151,1.037,0.084
31.19,-0.366,0.879,-0.171
31.2,-0.285,1.076,-0.051
31.21,-0.068,1.017,0.1
31.22,-0.157,0.728,0.168
31.23,-0.385,1.059,-0.024
31.24,-0.316,0.844,-0.147
31.25,-0.204,1.278,0.104
31.26,-0.056,0.706,0.138
31.27,-0.229,0.938,-0.013
31.28,-0.458,1.045,-0.175
31.29,-0.129,0.998,-0.053
31.3,-0.195,0.982,0.137
31.31,-0.095,0.723,0.153
31.32,-0.37,1.185,-0.219
31.33,-0.269,0.893,-0.087
31.34,-0.116,1.186,0.117
31.35,-0.123,0.718,0.163
31.36,-0.251,0.909,-0.017
31.37,-0.36,1.141,-0.222
31.38,-0.054,0.905,0.003
31.39,-0.189,1.095,0.142
31.4,-0.084,0.63,0.008
31.41,-0.41,1.285,-0.198
31.42,-0.146,0.909,-0.033
31.43,-0.139,1.086,0.149
31.44,-0.107,0.677,0.113
31.45,-0.405,1.038,-0.178
31.46,-0.192,1.092,-0.122
31.47,-0.07,1.057,0.057
31.48,-0.147,0.916,0.125
31.49,-0.152,0.717,-0.021
31.5,-0.416,1.33,-0.216
31.51,-0.014,0.84,0.013
31.52,-0.152,1.183,0.184
31.53,-0.175,0.644,0.018
31.54,-0.4,1.065,-0.198
31.55,-0.095,1.178,-0.081
31.56,-0.152,0.771,0.125
31.57,-0.16,1.051,0.175
31.58,-0.323,0.739,-0.128
31.59,-0.319,1.211,-0.161
31.6,0.063,0.95,0.104
31.61,-0.209,0.978,0.159
31.62,-0.236,0.794,0.024
31.63,-0.321,1.107,-0.227
31.64,-0.172,1.115,0.001
31.65,-0.162,0.794,0.235
31.66,-0.218,1.041,0.089
31.67,-0.354,0.744,-0.201
31.68,-0.194,1.33,-0.031
31.69,-0.083,0.808,0.099
31.7,-0.192,0.9,0.162
31.71,-0.278,0.951,-0.056
31.72,-0.363,0.916,-0.17
31.73,-0.146,1.226,0.126
31.74,-0.107,0.724,0.131
31.75,-0.295,1.007,-0.003
31.76,-0.318,0.899,-0.151
31.77,-0.118,1.197,-0.058
31.78,-0.122,0.838,0.168
31.79,-0.156,0.858,0.09
31.8,-0.388,1.043,-0.209
31.81,-0.156,0.964,-0.088
31.82,-0.101,1.208,0.081
31.83,-0.135,0.592,0.174
31.84,-0.281,1.11,-0.075
31.85,-0.305,0.859,-0.201
31.86,-0.17,1.121,0.13
31.87,-0.065,0.973,0.089
31.88,-0.239,0.747,0.018
31.89,-0.313,1.208,-0.219
31.9,-0.173,0.877,-0.066
31.91,-0.112,1.161,0.136
31.92,-0.115,0.697,0.152
31.93,-0.356,1.028,-0.168
31.94,-0.254,0.949,-0.129
31.95,-0.068,1.181,0.109
31.96,-0.207,0.845,0.117
31.97,-0.187,0.735,0.038
31.98,-0.415,1.368,-0.226
31.99,-0.046,0.732,-0.026
32.0,-0.178,1.207,0.197
32.01,-0.133,0.713,0.087
32.02,-0.472,1.028,-0.162
32.03,-0.145,1.104,-0.037
32.04,-0.057,0.912,0.11
32.05,-0.21,0.975,0.155
32.06,-0.24,0.74,-0.048
32.07,-0.451,1.264,-0.143
32.08,-0.1,0.855,0.117
32.09,-0.159,1.099,0.115
32.1,-0.119,0.725,-0.029
32.11,-0.441,1.143,-0.12
32.12,-0.152,1.084,-0.03
32.13,-0.12,0.805,0.186
32.14,-0.121,1.062,0.118
32.15,-0.318,0.698,-0.227
32.16,-0.252,1.313,-0.06
32.17,-0.057,0.905,0.07
32.18,-0.2,0.893,0.114
32.19,-0.187,0.881,-0.053
32.2,-0.365,1.049,-0.173
32.21,-0.167,1.135,0.053
32.22,-0.061,0.774,0.152
32.23,-0.146,1.047,0.032
32.24,-0.403,0.818,-0.177
32.25,-0.194,1.203,-0.066
32.26,-0.081,0.711,0.131
32.27,-0.183,1.057,0.101
32.28,-0.307,0.794,-0.137
32.29,-0.277,1.136,-0.102
32.3,-0.073,1.124,0.102
32.31,-0.12,0.636,0.124
32.32,-0.224,1.071,0.044
32.33,-0.424,0.951,-0.224
32.34,-0.188,1.127,0.015
32.35,-0.042,0.83,0.161
32.36,-0.261,0.961,0.084
32.37,-0.274,0.895,-0.191
32.38,-0.189,1.119,-0.086
32.39,-0.121,1.015,0.109
32.4,-0.102,0.688,0.143
32.41,-0.352,1.107,-0.087
32.42,-0.297,0.838,-0.2
32.43,-0.055,1.282,0.112
32.44,-0.219,0.798,0.126
32.45,-0.156,0.834,-0.006
32.46,-0.37,1.173,-0.159
32.47,-0.114,0.926,-0.048
32.48,-0.198,1.049,0.153
32.49,-0.118,0.681,0.119
32.5,-0.481,1.139,-0.19
32.51,-0.168,0.832,-0.112
32.52,-0.028,1.264,0.102
32.53,-0.147,0.763,0.101
32.54,-0.259,0.863,-0.002
32.55,-0.288,1.233,-0.252
32.56,-0.1,0.813,-0.015
32.57,-0.09,1.133,0.159
32.58,-0.1,0.669,0.019
32.59,-0.46,1.159,-0.214
32.6,-0.07,0.958,-0.049
32.61,-0.109,1.007,0.135
32.62,-0.176,0.885,0.144
32.63,-0.297,0.819,-0.101
32.64,-0.294,1.219,-0.157
32.65,-0.103,0.896,0.14
32.66,-0.156,1.083,0.158
32.67,-0.183,0.689,-0.009
32.68,-0.357,1.247,-0.189
32.69,-0.133,0.965,-0.016
32.7,-0.188,0.887,0.204
32.71,-0.178,0.961,0.064
32.72,-0.33,0.827,-0.192
32.73,-0.265,1.284,-0.074
32.74,-0.073,0.801,0.127
32.75,-0.207,1.02,0.141
32.76,-0.251,0.768,-0.093
32.77,-0.306,1.12,-0.179
32.78,-0.114,1.084,0.079
32.79,-0.129,0.848,0.161
32.8,-0.206,0.953,0.02
32.81,-0.377,0.881,-0.182
32.82,-0.124,1.254,-0.088
32.83,-0.093,0.744,0.162
32.84,-0.208,1.028,0.15
32.85,-0.32,0.898,-0.172
32.86,-0.275,1.035,-0.13
32.87,-0.071,1.16,0.137
32.88,-0.177,0.666,0.134
32.89,-0.278,1.037,-0.029
32.9,-0.266,0.953,-0.208
32.91,-0.164,1.182,0.015
32.92,-0.108,0.764,0.223
32.93,-0.207,0.93,0.058
32.94,-0.401,0.958,-0.254
32.95,-0.01,1.026,-0.047
32.96,-0.182,1.138,0.113
32.97,-0.213,0.629,0.185
32.98,-0.199,1.146,-0.122
32.99,-0.333,0.874,-0.203
33.0,-0.095,1.178,0.176
33.01,-0.116,0.837,0.114
33.02,-0.302,0.838,-0.003
33.03,-0.404,1.181,-0.163
33.04,-0.075,0.896,-0.064
33.05,-0.263,1.11,0.116
33.06,-0.002,0.67,0.073
33.07,-0.446,1.191,-0.237
33.08,-0.103,0.881,-0.025
33.09,-0.086,1.198,0.128
33.1,-0.26,0.7,0.171
33.11,-0.263,1.002,-0.07
33.12,-0.298,1.056,-0.243
33.13,-0.087,0.967,0.138
33.14,-0.174,1.032,0.136
33.15,-0.201,0.652,0.012
33.16,-0.41,1.333,-0.195
33.17,-0.083,0.869,-0.052
33.18,-0.185,1.126,0.184
33.19,-0.106,0.783,0.14
33.2,-0.366,0.912,-0.237
33.21,-0.243,1.18,-0.06
33.22,-0.068,0.949,0.1
33.23,-0.222,0.962,0.142
33.24,-0.186,0.681,0.009
33.25,-0.45,1.332,-0.228
33.26,-0.022,0.862,0.042
33.27,-0.214,1.109,0.153
33.28,-0.112,0.775,0.035
33.29,-0.44,0.945,-0.133
33.3,-0.122,1.229,-0.065
33.31,-0.092,0.759,0.117
33.32,-0.235,1.081,0.155
33.33,-0.263,0.673,-0.102
33.34,-0.343,1.22,-0.164
33.35,-0.043,1.023,0.143
33.36,-0.12,0.841,0.086
33.37,-0.265,0.911,0.042
33.38,-0.324,0.966,-0.217
33.39,-0.115,1.191,-0.058
33.4,-0.129,0.705,0.188
33.41,-0.109,1.068,0.062
33.42,-0.331,0.797,-0.21
33.43,-0.275,1.198,-0.0
33.44,-0.078,0.966,0.094
33.45,-0.199,0.733,0.135
33.46,-0.268,1.086,-0.043
33.47,-0.29,0.893,-0.247
33.48,-0.142,1.213,0.063
33.49,-0.064,0.709,0.128
33.5,-0.158,0.981,-0.02
33.51,-0.446,1.02,-0.124
33.52,-0.118,1.075,-0.034
33.53,-0.214,0.936,0.079
33.54,-0.091,0.749,0.159
33.55,-0.368,1.117,-0.213
33.56,-0.266,0.846,-0.023
33.57,-0.079,1.297,0.091
33.58,-0.113,0.632,0.118
33.59,-0.304,0.996,0.027
33.6,-0.279,1.062,-0.248
33.61,-0.067,0.947,-0.029
33.62,-0.2,1.068,0.193
33.63,-0.151,0.645,0.11
33.64,-0.508,1.206,-0.164
33.65,-0.053,0.901,-0.099
33.66,-0.128,1.129,0.058
33.67,-0.185,0.76,0.202
33.68,-0.331,0.955,-0.059
33.69,-0.325,1.073,-0.244
33.7,0.104,0.996,0.072
33.71,-0.222,1.076,0.117
33.72,-0.203,0.623,0.061
33.73,-0.427,1.367,-0.22
33.74,-0.14,0.836,-0.019
33.75,-0.217,1.12,0.212
33.76,-0.129,0.849,0.162
33.77,-0.442,0.86,-0.191
33.78,-0.222,1.192,-0.112
33.79,0.011,0.919,0.111
33.8,-0.312,0.736,-0.185
33.81,-0.226,1.238,-0.121
33.82,-0.016,0.908,0.087
33.83,-0.202,0.961,0.111
33.84,-0.253,0.756,0.021
33.85,-0.312,1.238,-0.227
33.86,-0.136,0.944,0.025
33.87,-0.114,0.909,0.214
33.88,-0.127,0.977,0.011
33.89,-0.358,0.808,-0.194
33.9,-0.211,1.342,-0.008
33.91,-0.081,0.808,0.102
33.92,-0.233,0.967,0.139
33.93,-0.195,0.841,-0.062
33.94,-0.402,1.114,-0.199
33.95,-0.081,1.014,0.13
33.96,-0.032,0.84,0.192
33.97,-0.354,0.994,-0.018
33.98,-0.266,0.857,-0.142
33.99,-0.139,1.323,-0.005
34.0,-0.216,0.686,0.157
34.01,-0.131,0.973,0.134
34.02,-0.361,0.944,-0.23
34.03,-0.246,0.991,-0.078
34.04,-0.089,1.148,0.09
34.05,-0.119,0.621,0.116
34.06,-0.323,1.094,-0.041
34.07,-0.192,0.853,-0.265
34.08,-0.176,1.205,0.036
34.09,-0.078,0.793,0.165
34.1,-0.13,0.888,0.069
34.11,-0.408,1.096,-0.218
34.12,-0.126,0.941,-0.083
34.13,-0.096,1.095,0.081
34.14,-0.127,0.724,0.18
34.15,-0.401,1.12,-0.114
34.16,-0.258,0.844,-0.187
34.17,-0.056,1.24,0.023
34.18,-0.105,0.808,0.1
34.19,-0.19,0.813,0.005
34.2,-0.463,1.208,-0.19
34.21,-0.061,0.892,-0.01
34.22,-0.255,1.15,0.148
34.23,-0.055,0.673,0.12
34.24,-0.466,1.133,-0.196
34.25,-0.291,0.901,-0.066
34.26,0.027,1.124,0.071
34.27,-0.196,0.848,0.117
34.28,-0.229,0.793,-0.002
34.29,-0.283,1.274,-0.29
34.3,-0.162,0.76,0.045
34.31,-0.081,1.18,0.19
34.32,-0.116,0.634,0.004
34.33,-0.525,1.164,-0.113
34.34,-0.011,1.093,-0.044
34.35,-0.185,0.931,0.051
34.36,-0.143,0.937,0.203
34.37,-0.248,0.752,-0.126
34.38,-0.392,1.229,-0.127
34.39,0.011,0.93,0.136
34.4,-0.135,1.033,0.067
34.41,-0.3,0.699,0.053
34.42,-0.22,1.194,-0.22
34.43,-0.154,1.017,-0.049
34.44,-0.18,0.825,0.205
34.45,-0.065,1.024,0.091
34.46,-0.467,0.766,-0.161
34.47,-0.271,1.301,-0.034
34.48,0.031,0.858,0.057
34.49,-0.291,0.917,0.131
34.5,-0.178,0.812,0.018
34.51,-0.365,1.094,-0.2
34.52,-0.169,1.103,0.046
34.53,-0.035,0.844,0.147
34.54,-0.236,0.962,-0.01
34.55,-0.35,0.866,-0.114
34.56,-0.091,1.339,-0.072
34.57,-0.186,0.691,0.154
34.58,-0.165,0.937,0.209
34.59,-0.292,0.976,-0.157
34.6,-0.368,1.058,-0.09
34.61,0.005,1.128,0.06
34.62,-0.129,0.741,0.112
34.63,-0.328,1.016,0.037
34.64,-0.257,0.943,-0.269
34.65,-0.13,1.125,-0.077
34.66,-0.094,0.765,0.217
34.67,-0.153,1.019,0.069
34.68,-0.428,0.866,-0.233
34.69,-0.129,1.113,-0.042
34.7,-0.086,1.056,0.066
34.71,-0.202,0.644,0.146
34.72,-0.256,1.154,-0.054
34.73,-0.295,0.841,-0.219
34.74,-0.227,1.235,0.136
34.75,-0.075,0.788,0.128
34.76,-0.125,0.893,-0.036
34.77,-0.469,1.111,-0.149
34.78,-0.082,1.0,-0.088
34.79,-0.138,0.986,0.062
34.8,-0.082,0.743,0.206
34.81,-0.442,1.149,-0.143
34.82,-0.359,0.774,-0.079
34.83,0.039,1.325,0.069
34.84,-0.119,0.746,0.07
34.85,-0.29,0.885,0.097
34.86,-0.315,1.176,-0.241
34.87,-0.135,0.796,-0.022
34.88,-0.103,1.151,0.2
34.89,-0.07,0.682,0.059
34.9,-0.547,1.163,-0.19
34.91,-0.082,0.94,-0.065
34.92,-0.106,1.124,0.048
34.93,-0.219,0.78,0.22
34.94,-0.187,0.876,-0.065
34.95,-0.392,1.179,-0.193
34.96,-0.103,0.83,0.065
34.97,-0.053,1.174,0.098
34.98,-0.149,0.604,0.049
34.99,-0.46,1.286,-0.134
35.0,-0.099,0.939,-0.097
35.01,-0.148,0.917,0.115
35.02,-0.182,0.96,0.244
35.03,-0.38,0.789,-0.153
35.04,-0.352,1.134,-0.202
35.05,0.086,0.941,0.123
35.06,-0.169,1.087,0.105
35.07,-0.25,0.663,0.037
35.08,-0.324,1.277,-0.23
35.09,-0.091,0.947,-0.043
35.1,-0.21,0.891,0.227
35.11,-0.131,0.985,0.086
35.12,-0.4,0.784,-0.217
35.13,-0.193,1.299,-0.029
35.14,-0.113,0.849,0.133
35.15,-0.224,0.938,0.099
35.16,-0.143,0.836,-0.013
35.17,-0.382,1.158,-0.22
35.18,-0.186,1.023,0.086
35.19,-0.062,0.823,0.129
35.2,-0.196,0.988,0.028
35.21,-0.433,0.861,-0.129
35.22,-0.172,1.285,-0.056
35.23,-0.109,0.735,0.056
35.24,-0.115,0.983,0.153
35.25,-0.276,0.885,-0.124
35.26,-0.336,1.009,-0.14
35.27,-0.025,1.183,0.095
35.28,-0.178,0.662,0.103
35.29,-0.318,1.023,0.039
35.3,-0.215,0.927,-0.255
35.31,-0.092,1.176,-0.062
35.32,-0.158,0.793,0.19
35.33,-0.078,0.922,0.054
35.34,-0.424,0.994,-0.193
35.35,-0.259,0.96,-0.063
35.36,0.016,1.189,0.041
35.37,-0.196,0.601,0.112
35.38,-0.233,1.12,-0.009
35.39,-0.263,0.91,-0.278
35.4,-0.163,1.094,0.036
35.41,-0.015,0.921,0.16
35.42,-0.297,0.908,0.001
35.43,-0.362,1.005,-0.164
35.44,-0.057,1.088,-0.091
35.45,-0.239,0.954,0.118
35.46,-0.122,0.742,0.179
35.47,-0.339,1.154,-0.191
35.48,-0.3,0.785,-0.126
35.49,-0.022,1.324,0.137
35.5,-0.087,0.713,0.094
35.51,-0.39,0.926,0.049
35.52,-0.26,1.114,-0.197
35.53,-0.062,0.938,-0.036
35.54,-0.198,1.079,0.192
35.55,-0.081,0.668,0.103
35.56,-0.451,1.227,-0.199
35.57,-0.196,0.857,-0.027
35.58,-0.071,1.094,0.132
35.59,-0.144,0.795,0.142
35.6,-0.317,0.917,-0.053
35.61,-0.308,1.109,-0.167
35.62,-0.134,0.94,0.146
35.63,-0.179,1.154,0.149
35.64,-0.108,0.578,0.002
35.65,-0.512,1.316,-0.164
35.66,-0.092,0.903,-0.074
35.67,-0.169,1.012,0.119
35.68,-0.104,0.885,0.155
35.69,-0.359,0.831,-0.169
35.7,-0.331,1.155,-0.138
35.71,-0.01,0.908,0.11
35.72,-0.132,1.056,0.106
35.73,-0.223,0.667,0.051
35.74,-0.405,1.298,-0.205
35.75,-0.107,0.889,-0.067
35.76,-0.123,0.95,0.154
35.77,-0.092,0.958,0.115
35.78,-0.463,0.831,-0.181
35.79,-0.192,1.272,-0.063
35.8,-0.065,0.785,0.12
35.81,-0.271,1.032,0.175
35.82,-0.21,0.762,-0.019
35.83,-0.382,1.153,-0.206
35.84,-0.116,1.006,0.043
35.85,-0.108,0.871,0.133
35.86,-0.184,0.94,0.007
35.87,-0.446,0.916,-0.098
35.88,-0.226,1.283,-0.003
35.89,-0.134,0.709,0.117
35.9,-0.175,1.025,0.178
35.91,-0.287,0.856,-0.166
35.92,-0.271,1.022,-0.163
35.93,-0.007,1.162,0.1
35.94,-0.169,0.728,0.165
35.95,-0.354,1.023,0.031
35.96,-0.273,0.88,-0.227
35.97,-0.131,1.19,-0.044
35.98,-0.16,0.744,0.23
35.99,-0.095,0.95,0.094
36.0,-0.386,0.97,-0.204
36.01,-0.175,1.011,-0.018
36.02,-0.146,1.135,0.088
36.03,-0.126,0.652,0.151
36.04,-0.305,1.144,-0.072
36.05,-0.316,0.834,-0.191
36.06,-0.201,1.252,0.107
36.07,-0.025,0.876,0.112
36.08,-0.215,0.82,0.019
36.09,-0.403,1.098,-0.154
36.1,-0.151,0.943,-0.086
36.11,-0.18,1.12,0.11
36.12,-0.154,0.667,0.186
36.13,-0.362,1.115,-0.144
36.14,-0.314,0.881,-0.134
36.15,-0.107,1.225,0.127
36.16,-0.135,0.763,0.112
36.17,-0.219,0.794,-0.005
36.18,-0.355,1.285,-0.2
36.19,-0.078,0.809,-0.075
36.2,-0.154,1.178,0.148
36.21,-0.071,0.663,0.118
36.22,-0.505,1.143,-0.158
36.23,-0.151,0.919,-0.07
36.24,-0.135,1.154,0.042
36.25,-0.146,0.743,0.183
36.26,-0.306,0.943,-0.089
36.27,-0.306,1.067,-0.231
36.28,-0.066,0.948,0.106
36.29,-0.072,1.099,0.082
36.3,-0.196,0.583,-0.003
36.31,-0.478,1.262,-0.125
36.32,-0.107,0.945,-0.047
36.33,-0.255,0.994,0.117
36.34,-0.064,0.86,0.146
36.35,-0.275,0.937,-0.219
36.36,-0.367,1.161,-0.069
36.37,0.045,0.907,0.116
36.38,-0.19,1.064,0.086
36.39,-0.238,0.676,0.024
36.4,-0.348,1.319,-0.234
36.41,-0.142,0.876,-0.029
36.42,-0.16,0.996,0.241
36.43,-0.101,0.884,0.041
36.44,-0.393,0.879,-0.201
36.45,-0.207,1.277,0.008
36.46,-0.052,0.794,0.111
36.47,-0.244,1.042,0.154
36.48,-0.228,0.74,-0.063
36.49,-0.348,1.204,-0.19
36.5,-0.119,1.022,0.057
36.51,-0.067,0.864,0.136
36.52,-0.201,0.923,-0.007
36.53,-0.404,0.916,-0.111
36.54,-0.134,1.262,-0.026
36.55,-0.068,0.668,0.119
36.56,-0.163,1.049,0.119
36.57,-0.304,0.827,-0.179
36.58,-0.251,1.11,-0.09
36.59,-0.033,1.095,0.065
36.6,-0.154,0.672,0.139
36.61,-0.349,1.07,0.053
36.62,-0.321,0.89,-0.249
36.63,-0.114,1.17,-0.025
36.64,-0.054,0.794,0.205
36.65,-0.155,0.969,0.044
36.66,-0.404,0.909,-0.214
36.67,-0.054,1.045,-0.087
36.68,-0.18,1.069,0.131
36.69,-0.188,0.696,0.151
36.7,-0.302,1.126,-0.125
36.71,-0.297,0.814,-0.124
36.72,-0.074,1.276,0.103
36.73,-0.118,0.734,0.127
36.74,-0.214,0.917,0.02
36.75,-0.357,1.132,-0.178
36.76,-0.203,0.887,0.001
36.77,-0.16,1.095,0.164
36.78,-0.1,0.695,0.117
36.79,-0.487,1.162,-0.175
36.8,-0.22,0.872,-0.095
36.81,-0.038,1.193,0.095
36.82,-0.158,0.755,0.132
36.83,-0.21,0.87,-0.031
36.84,-0.377,1.209,-0.209
36.85,-0.029,0.855,0.037
36.86,-0.115,1.165,0.168
36.87,-0.189,0.601,0.051
36.88,-0.461,1.232,-0.142
36.89,-0.121,0.959,-0.069
36.9,-0.17,0.99,0.119
36.91,-0.112,0.912,0.166
36.92,-0.395,0.819,-0.143
36.93,-0.28,1.144,-0.145
36.94,0.075,0.951,0.091
36.95,-0.225,1.018,0.134
36.96,-0.232,0.704,0.033
36.97,-0.394,1.266,-0.21
36.98,-0.136,0.898,-0.023
36.99,-0.108,0.974,0.203
37.0,-0.175,0.934,0.038
37.01,-0.419,0.823,-0.205
37.02,-0.099,1.304,-0.055
37.03,-0.075,0.773,0.068
37.04,-0.156,1.026,0.166
37.05,-0.327,0.748,-0.144
37.06,-0.404,1.225,-0.134
37.07,0.059,0.936,0.079
37.08,-0.155,0.865,0.112
37.09,-0.293,0.87,0.065
37.1,-0.344,1.086,-0.226
37.11,-0.191,1.081,-0.047
37.12,-0.083,0.781,0.213
37.13,-0.14,1.072,0.06
37.14,-0.393,0.785,-0.228
37.15,-0.085,1.233,-0.073
37.16,-0.081,0.886,0.093
37.17,-0.222,0.836,0.215
37.18,-0.274,0.981,-0.075
37.19,-0.353,0.938,-0.153
37.2,-0.168,1.211,0.135
37.21,-0.048,0.69,0.116
37.22,-0.288,1.036,0.028
37.23,-0.37,0.946,-0.194
37.24,-0.176,1.119,-0.034
37.25,-0.173,0.845,0.141
37.26,-0.095,0.824,0.128
37.27,-0.389,1.108,-0.209
37.28,-0.284,0.824,-0.101
37.29,-0.002,1.309,0.06
37.3,-0.124,0.644,0.104
37.31,-0.325,1.029,-0.011
37.32,-0.288,1.0,-0.231
37.33,-0.124,1.055,-0.019
37.34,-0.101,0.978,0.198
37.35,-0.168,0.689,0.049
37.36,-0.523,1.196,-0.174
37.37,-0.059,0.908,-0.091
37.38,-0.111,1.13,0.088
37.39,-0.152,0.707,0.208
37.4,-0.334,1.043,-0.123
37.41,-0.311,1.019,-0.173
37.42,0.038,1.039,0.071
37.43,-0.149,0.98,0.123
37.44,-0.302,0.709,0.055
37.45,-0.428,1.301,-0.191
37.46,-0.069,0.799,-0.047
37.47,-0.207,1.135,0.227
37.48,-0.061,0.733,0.078
37.49,-0.481,1.029,-0.154
37.5,-0.195,1.143,-0.079
37.51,-0.023,0.876,0.08
37.52,-0.215,1.019,0.133
37.53,-0.214,0.701,-0.044
37.54,-0.366,1.286,-0.235
37.55,-0.051,0.871,0.061
37.56,-0.099,1.061,0.149
37.57,-0.162,0.741,0.019
37.58,-0.513,1.014,-0.096
37.59,-0.106,1.185,-0.08
37.6,-0.113,0.718,0.082
37.61,-0.183,1.07,0.153
37.62,-0.259,0.729,-0.185
37.63,-0.359,1.214,-0.164
37.64,0.039,0.935,0.084
37.65,-0.115,0.885,0.128
37.66,-0.303,0.898,0.037
37.67,-0.301,1.012,-0.203
37.68,-0.151,1.226,-0.003
37.69,-0.15,0.787,0.165
37.7,-0.157,1.005,0.071
37.71,-0.425,0.836,-0.133
37.72,-0.221,1.256,-0.073
37.73,-0.069,0.851,0.074
37.74,-0.233,0.837,0.253
37.75,-0.343,1.003,-0.099
37.76,-0.274,0.859,-0.167
37.77,-0.134,1.316,0.097
37.78,-0.161,0.643,0.136
37.79,-0.202,1.036,0.037
37.8,-0.367,1.025,-0.186
37.81,-0.125,1.061,-0.029
37.82,-0.187,0.92,0.163
37.83,-0.14,0.762,0.129
37.84,-0.423,1.13,-0.19
37.85,-0.232,0.9,-0.082
37.86,-0.091,1.264,0.056
37.87,-0.129,0.637,0.144
37.88,-0.291,1.14,-0.062
37.89,-0.367,0.821,-0.186
37.9,-0.169,1.167,0.133
37.91,-0.114,0.906,0.121
37.92,-0.224,0.811,0.022
37.93,-0.383,1.172,-0.142
37.94,-0.191,0.89,-0.052
37.95,-0.141,1.099,0.091
37.96,-0.016,0.714,0.126
37.97,-0.454,1.099,-0.158
37.98,-0.272,0.887,-0.092
37.99,-0.012,1.207,0.068
38.0,-0.203,0.821,0.11
38.01,-0.176,0.776,0.072
38.02,-0.362,1.287,-0.261
38.03,-0.121,0.806,0.02
38.04,-0.152,1.19,0.183
38.05,-0.147,0.679,0.073
38.06,-0.455,1.118,-0.161
38.07,-0.178,1.082,-0.055
38.08,-0.079,0.923,0.07
38.09,-0.202,0.947,0.191
38.1,-0.236,0.749,-0.078
38.11,-0.363,1.211,-0.189
38.12,-0.069,0.916,0.129
38.13,-0.174,1.117,0.114
38.14,-0.189,0.656,-0.005
38.15,-0.364,1.203,-0.125
38.16,-0.217,1.066,-0.055
38.17,-0.139,0.769,0.169
38.18,-0.092,1.072,0.131
38.19,-0.342,0.739,-0.199
38.2,-0.353,1.25,-0.06
38.21,0.026,0.912,0.041
38.22,-0.189,0.91,0.106
38.23,-0.153,0.839,0.063
38.24,-0.446,1.156,-0.207
38.25,-0.206,1.02,-0.009
38.26,-0.019,0.875,0.187
38.27,-0.281,1.004,0.076
38.28,-0.411,0.777,-0.129
38.29,-0.153,1.346,-0.055
38.3,-0.074,0.788,0.069
38.31,-0.234,0.919,0.268
38.32,-0.253,0.941,-0.109
38.33,-0.332,0.969,-0.183
38.34,-0.083,1.222,0.099
38.35,-0.116,0.707,0.147
38.36,-0.349,1.061,0.064
38.37,-0.26,0.933,-0.213
38.38,-0.157,1.149,-0.107
38.39,-0.128,0.799,0.171
38.4,-0.129,0.9,0.143
38.41,-0.344,0.983,-0.156
38.42,-0.313,0.948,-0.056
38.43,-0.051,1.239,0.058
38.44,-0.18,0.625,0.129
38.45,-0.294,1.091,0.056
38.46,-0.41,0.945,-0.243
38.47,-0.119,1.011,0.001
38.48,-0.032,0.997,0.148
38.49,-0.159,0.753,0.05
38.5,-0.477,1.124,-0.154
38.51,-0.006,0.968,-0.089
38.52,-0.135,1.175,0.043
38.53,-0.166,0.634,0.143
38.54,-0.288,1.071,-0.045
38.55,-0.339,0.962,-0.204
38.56,-0.105,1.072,0.093
38.57,-0.099,0.973,0.105
38.58,-0.25,0.701,-0.016
38.59,-0.397,1.26,-0.138
38.6,-0.075,0.886,-0.057
38.61,-0.274,1.106,0.171
38.62,-0.027,0.757,0.124
38.63,-0.425,1.076,-0.197
38.64,-0.332,1.008,-0.056
38.65,0.005,1.009,0.103
38.66,-0.218,0.959,0.116
38.67,-0.269,0.738,0.005
38.68,-0.333,1.201,-0.248
38.69,-0.154,0.856,0.078
38.7,-0.102,1.181,0.163
38.71,-0.122,0.6,0.005
38.72,-0.471,1.17,-0.16
38.73,-0.077,1.02,-0.054
38.74,-0.178,0.952,0.098
38.75,-0.169,0.914,0.216
38.76,-0.28,0.798,-0.164
38.77,-0.316,1.233,-0.207
38.78,-0.046,0.901,0.149
38.79,-0.15,1.072,0.107
38.8,-0.243,0.655,0.001
38.81,-0.314,1.259,-0.217
38.82,-0.061,0.992,-0.095
38.83,-0.221,0.856,0.193
38.84,-0.081,0.969,0.075
38.85,-0.364,0.784,-0.261
38.86,-0.205,1.264,-0.039
38.87,-0.032,0.875,0.103
38.88,-0.237,0.953,0.12
38.89,-0.181,0.814,-0.04
38.9,-0.339,1.131,-0.2
38.91,-0.187,1.051,0.098
38.92,-0.039,0.86,0.086
38.93,-0.194,0.968,-0.02
38.94,-0.322,0.872,-0.146
38.95,-0.229,1.279,-0.098
38.96,-0.17,0.679,0.101
38.97,-0.088,1.015,0.14
38.98,-0.344,0.881,-0.136
38.99,-0.296,0.931,-0.127
39.0,-0.033,1.215,0.096
39.01,-0.142,0.661,0.102
39.02,-0.251,1.009,0.01
39.03,-0.244,0.934,-0.214
39.04,-0.156,1.203,-0.034
39.05,-0.221,0.772,0.216
39.06,-0.131,0.922,0.08
39.07,-0.416,1.021,-0.201
39.08,-0.187,0.968,-0.061
39.09,-0.124,1.19,0.063
39.1,-0.108,0.562,0.12
39.11,-0.219,1.163,-0.05
39.12,-0.327,0.876,-0.227
39.13,-0.194,1.094,0.092
39.14,-0.023,0.908,0.128
39.15,-0.229,0.795,0.025
39.16,-0.402,1.16,-0.105
39.17,-0.181,0.975,-0.036
39.18,-0.22,1.082,0.086
39.19,-0.083,0.717,0.212
39.2,-0.363,1.133,-0.184
39.21,-0.307,0.851,-0.164
39.22,0.006,1.188,0.08
39.23,-0.143,0.844,0.11
39.24,-0.253,0.742,0.036
39.25,-0.331,1.304,-0.248
39.26,-0.074,0.753,-0.089
39.27,-0.128,1.161,0.202
39.28,-0.19,0.733,0.092
39.29,-0.398,1.021,-0.213
39.3,-0.202,1.041,-0.019
39.31,-0.062,1.112,0.087
39.32,-0.183,0.842,0.093
39.33,-0.195,0.738,-0.014
39.34,-0.391,1.308,-0.195
39.35,-0.148,0.839,0.065
39.36,-0.07,1.173,0.128
39.37,-0.157,0.655,0.032
39.38,-0.425,1.086,-0.164
39.39,-0.021,1.163,-0.115
39.4,-0.11,0.848,0.043
39.41,-0.155,0.966,0.192
39.42,-0.216,0.781,-0.178
39.43,-0.387,1.203,-0.15
39.44,0.007,0.936,0.144
39.45,-0.219,1.066,0.169
39.46,-0.234,0.75,0.021
39.47,-0.34,1.136,-0.174
39.48,-0.146,1.115,-0.112
39.49,-0.165,0.772,0.165
39.5,-0.073,0.949,0.087
39.51,-0.444,0.808,-0.162
39.52,-0.245,1.294,-0.062
39.53,-0.033,0.854,0.054
39.54,-0.157,0.963,0.111
39.55,-0.229,0.798,-0.009
39.56,-0.365,1.166,-0.225
39.57,-0.153,0.968,0.013
39.58,-0.05,0.927,0.161
39.59,-0.183,0.926,0.021
39.6,-0.429,0.841,-0.126
39.61,-0.172,1.314,-0.051
39.62,-0.074,0.685,0.059
39.63,-0.118,0.995,0.163
39.64,-0.278,0.878,-0.125
39.65,-0.355,0.994,-0.142
39.66,-0.034,1.146,0.098
39.67,-0.156,0.72,0.13
39.68,-0.205,1.031,0.005
39.69,-0.301,0.95,-0.186
39.7,-0.176,1.179,-0.049
39.71,-0.119,0.757,0.207
39.72,-0.218,0.964,0.14
39.73,-0.337,0.968,-0.217
39.74,-0.201,0.96,-0.131
39.75,-0.056,1.156,0.051
39.76,-0.138,0.623,0.158
39.77,-0.282,1.087,-0.004
39.78,-0.316,0.895,-0.277
39.79,-0.138,1.15,0.021
39.8,-0.094,0.918,0.191
39.81,-0.163,0.839,0.065
39.82,-0.437,1.053,-0.163
39.83,-0.13,1.012,-0.019
39.84,-0.157,1.133,0.086
39.85,-0.143,0.626,0.187
39.86,-0.288,1.156,-0.089
39.87,-0.31,0.835,-0.18
39.88,-0.132,1.191,0.151
39.89,-0.173,0.902,0.113
39.9,-0.199,0.751,0.021
39.91,-0.392,1.267,-0.132
39.92,-0.158,0.883,-0.031
39.93,-0.207,1.069,0.119
39.94,0.011,0.708,0.11
39.95,-0.476,1.127,-0.139
39.96,-0.312,0.865,-0.089
39.97,0.001,1.169,0.043
39.98,-0.17,0.858,0.102
39.99,-0.245,0.771,0.078
40.0,-0.352,1.31,-0.277
40.01,-0.06,0.769,-0.017
40.02,-0.169,1.249,0.19
40.03,-0.13,0.687,0.115
40.04,-0.519,1.069,-0.192
40.05,-0.043,1.055,-0.075
40.06,-0.171,1.019,0.103
40.07,-0.214,0.893,0.164
40.08,-0.184,0.773,-0.075
40.09,-0.406,1.258,-0.211
40.1,-0.207,0.809,0.091
40.11,-0.084,1.182,0.118
40.12,-0.097,0.655,-0.013
40.13,-0.431,1.078,-0.161
40.14,-0.04,1.149,-0.095
40.15,-0.151,0.822,0.091
40.16,-0.109,1.0,0.2
40.17,-0.303,0.782,-0.12
40.18,-0.356,1.217,-0.175
40.19,-0.05,0.942,0.124
40.2,-0.133,1.013,0.102
40.21,-0.285,0.742,0.032
40.22,-0.296,1.094,-0.182
40.23,-0.104,1.177,-0.072
40.24,-0.255,0.703,0.132
40.25,0.008,1.073,0.129
40.26,-0.345,0.767,-0.278
40.27,-0.31,1.138,-0.073
40.28,0.091,0.958,0.052
40.29,-0.203,0.883,0.123
40.3,-0.243,0.909,0.042
40.31,-0.337,1.127,-0.21
40.32,-0.211,1.037,0.09
40.33,0.025,0.886,0.139
40.34,-0.222,0.979,-0.015
40.35,-0.413,0.843,-0.089
40.36,-0.133,1.308,-0.088
40.37,-0.161,0.694,0.061
40.38,-0.127,0.987,0.166
40.39,-0.302,0.918,-0.115
40.4,-0.405,0.947,-0.095
40.41,-0.037,1.198,0.098
40.42,-0.114,0.723,0.135
40.43,-0.309,1.044,0.022
40.44,-0.3,0.943,-0.186
40.45,-0.15,1.197,-0.055
40.46,-0.154,0.758,0.167
40.47,-0.097,0.93,0.13
40.48,-0.415,0.994,-0.193
40.49,-0.247,0.939,-0.066
40.5,-0.054,1.231,0.089
40.51,-0.153,0.591,0.117
40.52,-0.297,1.118,0.006
40.53,-0.259,0.941,-0.243
40.54,-0.14,1.101,-0.001
40.55,-0.128,0.901,0.23
40.56,-0.152,0.81,0.056
40.57,-0.427,1.083,-0.188
40.58,-0.086,0.969,-0.046
40.59,-0.161,1.188,0.077
40.6,-0.14,0.641,0.167
40.61,-0.38,1.141,-0.061
40.62,-0.302,0.86,-0.218
40.63,-0.119,1.13,0.069
40.64,-0.046,0.981,0.133
40.65,-0.208,0.733,0.032
40.66,-0.457,1.215,-0.142
40.67,-0.053,0.908,-0.043
40.68,-0.227,1.112,0.103
40.69,-0.13,0.708,0.169
40.7,-0.425,1.107,-0.142
40.71,-0.36,0.956,-0.084
40.72,-0.007,1.092,0.132
40.73,-0.194,0.903,0.125
40.74,-0.277,0.668,0.059
40.75,-0.327,1.364,-0.225
40.76,-0.096,0.819,-0.029
40.77,-0.218,1.152,0.176
40.78,-0.062,0.704,0.09
40.79,-0.518,1.101,-0.163
40.8,-0.13,1.073,-0.061
40.81,-0.103,0.949,0.118
40.82,-0.224,0.992,0.157
40.83,-0.184,0.746,-0.101
40.84,-0.319,1.253,-0.273
40.85,-0.018,0.905,0.136
40.86,-0.139,1.073,0.164
40.87,-0.212,0.694,0.003
40.88,-0.459,1.121,-0.137
40.89,-0.068,1.114,-0.067
40.9,-0.204,0.828,0.135
40.91,-0.123,1.06,0.117
40.92,-0.286,0.72,-0.196
40.93,-0.315,1.218,-0.043
40.94,-0.048,0.983,0.076
40.95,-0.182,0.859,0.105
40.96,-0.241,0.889,0.05
40.97,-0.386,1.085,-0.212
40.98,-0.129,1.075,-0.048
40.99,-0.148,0.791,0.221
41.0,-0.207,1.058,0.077
41.01,-0.34,0.755,-0.203
41.02,-0.158,1.284,-0.073
41.03,-0.055,0.858,0.093
41.04,-0.25,0.834,0.194
41.05,-0.266,0.98,-0.089
41.06,-0.273,0.915,-0.211
41.07,-0.189,1.244,0.097
41.08,-0.067,0.739,0.125
41.09,-0.195,0.999,-0.015
41.1,-0.38,0.891,-0.161
41.11,-0.143,1.202,-0.096
41.12,-0.088,0.808,0.09
41.13,-0.079,0.969,0.094
41.14,-0.359,0.944,-0.199
41.15,-0.295,0.974,-0.068
41.16,0.014,1.178,0.084
41.17,-0.092,0.659,0.097
41.18,-0.333,1.094,0.015
41.19,-0.304,0.9,-0.224
41.2,-0.144,1.148,-0.027
41.21,-0.095,0.842,0.189
41.22,-0.096,0.866,0.06
41.23,-0.446,1.052,-0.202
41.24,-0.117,0.96,-0.028
41.25,-0.106,1.149,0.109
41.26,-0.259,0.645,0.201
41.27,-0.292,1.143,-0.103
41.28,-0.338,0.903,-0.182
41.29,-0.159,1.15,0.121
41.3,-0.074,0.831,0.092
41.31,-0.206,0.807,0.002
41.32,-0.404,1.24,-0.18
41.33,-0.078,0.835,-0.027
41.34,-0.187,1.14,0.148
41.35,-0.069,0.711,0.103
41.36,-0.461,1.102,-0.198
41.37,-0.245,0.941,-0.089
41.38,-0.037,1.131,0.067
41.39,-0.129,0.843,0.114
41.4,-0.287,0.774,0.034
41.41,-0.38,1.277,-0.225
41.42,-0.022,0.777,-0.014
41.43,-0.158,1.189,0.178
41.44,-0.142,0.681,0.052
41.45,-0.484,1.109,-0.182
41.46,-0.094,1.029,-0.113
41.47,-0.066,0.917,0.117
41.48,-0.252,0.992,0.204
41.49,-0.28,0.751,-0.139
41.5,-0.262,1.232,-0.21
41.51,-0.028,0.918,0.146
41.52,-0.187,0.998,0.137
41.53,-0.17,0.72,-0.011
41.54,-0.395,1.178,-0.192
41.55,-0.079,1.04,-0.021
41.56,-0.136,0.811,0.122
41.57,-0.225,1.037,0.13
41.58,-0.343,0.779,-0.167
41.59,-0.258,1.246,-0.133
41.6,0.006,0.876,0.142
41.61,-0.177,0.952,0.103
41.62,-0.307,0.789,-0.056
41.63,-0.273,1.118,-0.152
41.64,-0.086,1.104,-0.022
41.65,-0.188,0.716,0.222
41.66,-0.16,1.033,0.028
41.67,-0.453,0.818,-0.237
41.68,-0.18,1.249,0.009
41.69,-0.044,0.846,0.152
41.7,-0.2,0.883,0.155
41.71,-0.329,0.966,-0.107
41.72,-0.267,0.977,-0.175
41.73,-0.083,1.173,0.108
41.74,-0.099,0.656,0.165
41.75,-0.275,1.065,-0.049
41.76,-0.374,0.926,-0.154
41.77,-0.156,1.161,0.035
41.78,-0.173,0.749,0.153
41.79,-0.146,0.885,0.117
41.8,-0.382,1.106,-0.224
41.81,-0.225,0.877,-0.059
41.82,-0.024,1.199,0.077
41.83,-0.15,0.618,0.077
41.84,-0.262,1.128,-0.085
41.85,-0.24,0.981,-0.227
41.86,-0.164,1.083,0.149
41.87,-0.156,0.878,0.159
41.88,-0.245,0.73,-0.042
41.89,-0.398,1.244,-0.168
41.9,-0.02,0.903,-0.033
41.91,-0.295,1.11,0.178
41.92,-0.029,0.708,0.107
41.93,-0.407,1.112,-0.241
41.94,-0.336,0.966,-0.009
41.95,-0.112,1.171,0.16
41.96,-0.237,0.745,0.132
41.97,-0.251,0.933,-0.085
41.98,-0.316,1.174,-0.226
41.99,-0.102,0.904,0.109
42.0,-0.134,1.042,0.12
42.01,-0.209,0.657,-0.016
42.02,-0.438,1.284,-0.199
42.03,0.0,0.891,-0.053
42.04,-0.214,1.031,0.206
42.05,-0.147,0.836,0.147
42.06,-0.399,0.899,-0.175
42.07,-0.184,1.261,-0.111
42.08,-0.123,0.779,0.117
42.09,-0.14,1.044,0.165
42.1,-0.268,0.731,-0.104
42.11,-0.321,1.212,-0.201
42.12,-0.048,0.967,0.101
42.13,-0.212,0.927,0.156
42.14,-0.388,0.998,-0.164
42.15,-0.125,1.099,-0.07
42.16,-0.136,0.858,0.137
42.17,-0.147,0.761,0.109
42.18,-0.42,1.172,-0.224
42.19,-0.214,0.783,-0.1
42.2,-0.015,1.291,0.085
42.21,-0.142,0.635,0.141
42.22,-0.353,1.005,0.027
42.23,-0.269,1.082,-0.208
42.24,-0.172,0.987,0.011
42.25,-0.082,1.017,0.151
42.26,-0.16,0.683,0.055
42.27,-0.6,1.247,-0.133
42.28,-0.025,0.879,-0.063
42.29,-0.161,1.117,0.05
42.3,-0.094,0.761,0.153
42.31,-0.375,1.002,-0.143
42.32,-0.319,1.139,-0.061
42.33,-0.106,0.957,0.137
42.34,-0.184,0.973,0.123
42.35,-0.142,0.718,-0.062
42.36,-0.46,1.289,-0.203
42.37,-0.149,0.853,0.055
42.38,-0.05,1.102,0.104
42.39,-0.226,0.768,0.051
42.4,-0.359,1.013,-0.161
42.41,-0.098,1.163,-0.113
42.42,-0.098,0.734,0.145
42.43,-0.157,1.112,0.169
42.44,-0.264,0.695,-0.198
42.45,-0.282,1.202,-0.157
42.46,-0.018,0.999,0.119
42.47,-0.192,0.871,0.123
42.48,-0.203,0.89,0.011
42.49,-0.349,1.06,-0.254
42.5,-0.066,1.116,-0.031
42.51,-0.074,0.786,0.213
42.52,-0.219,1.033,0.07
42.53,-0.312,0.792,-0.229
42.54,-0.088,1.281,-0.086
42.55,-0.116,0.835,0.107
42.56,-0.187,0.834,0.201
42.57,-0.31,1.047,-0.099
42.58,-0.362,0.848,-0.169
42.59,0.008,1.333,0.156
42.6,-0.185,0.731,0.112
42.61,-0.324,0.976,0.029
42.62,-0.295,0.981,-0.13
42.63,-0.233,1.144,-0.047
42.64,-0.145,0.856,0.152
42.65,-0.025,0.804,0.062
42.66,-0.391,0.993,-0.216
42.67,-0.162,1.051,0.012
42.68,-0.146,1.09,0.08
42.69,-0.198,0.637,0.181
42.7,-0.26,1.171,-0.086
42.71,-0.341,0.861,-0.194
42.72,-0.158,1.184,0.171
42.73,-0.114,0.869,0.124
42.74,-0.213,0.791,-0.043
42.75,-0.357,1.18,-0.135
42.76,-0.119,0.963,-0.06
42.77,-0.229,1.075,0.178
42.78,-0.068,0.671,0.117
42.79,-0.505,1.161,-0.189
42.8,-0.23,0.961,-0.038
42.81,-0.047,1.132,0.062
42.82,-0.152,0.8,0.076
42.83,-0.24,0.816,-0.038
42.84,-0.363,1.234,-0.23
42.85,-0.08,0.835,0.077
42.86,-0.1,1.203,0.134
42.87,-0.157,0.578,0.016
42.88,-0.409,1.194,-0.177
42.89,-0.081,1.04,-0.103
42.9,-0.121,0.963,0.131
42.91,-0.115,0.939,0.162
42.92,-0.398,0.761,-0.14
42.93,-0.29,1.27,-0.101
42.94,-0.015,0.897,0.072
42.95,-0.2,0.937,0.108
42.96,-0.211,0.726,0.055
42.97,-0.319,1.273,-0.26
42.98,-0.131,0.968,-0.008
42.99,-0.15,0.882,0.271
43.0,-0.228,0.982,0.054
43.01,-0.367,0.817,-0.222
43.02,-0.124,1.353,-0.054
43.03,-0.101,0.763,0.095
43.04,-0.165,0.968,0.176
43.05,-0.306,0.848,-0.114
43.06,-0.292,1.065,-0.183
43.07,-0.005,1.16,0.093
43.08,-0.122,0.716,0.102
43.09,-0.311,1.041,0.028
43.1,-0.259,0.912,-0.228
43.11,-0.16,1.189,-0.043
43.12,-0.18,0.744,0.218
43.13,-0.127,0.939,0.071
43.14,-0.395,0.936,-0.206
43.15,-0.163,1.034,-0.039
43.16,-0.132,1.109,0.112
43.17,-0.186,0.606,0.148
43.18,-0.252,1.145,-0.113
43.19,-0.271,0.806,-0.255
43.2,-0.147,1.24,0.124
43.21,-0.13,0.837,0.151
43.22,-0.257,0.842,0.025
43.23,-0.365,1.121,-0.143
43.24,-0.132,0.955,-0.053
43.25,-0.237,1.124,0.188
43.26,-0.079,0.673,0.146
43.27,-0.449,1.113,-0.218
43.28,-0.114,0.933,-0.053
43.29,-0.098,1.193,0.09
43.3,-0.175,0.741,0.137
43.31,-0.256,0.896,0.052
43.32,-0.389,1.224,-0.226
43.33,-0.171,0.816,0.087
43.34,-0.136,1.271,0.168
43.35,-0.143,0.582,-0.012
43.36,-0.491,1.2,-0.145
43.37,-0.021,1.055,-0.09
43.38,-0.192,0.952,0.072
43.39,-0.107,0.88,0.214
43.4,-0.266,0.83,-0.19
43.41,-0.343,1.195,-0.165
43.42,-0.019,0.912,0.125
43.43,-0.169,1.069,0.118
43.44,-0.255,0.686,0.032
43.45,-0.397,1.236,-0.183
43.46,-0.113,0.972,-0.044
43.47,-0.192,0.946,0.182
43.48,-0.082,0.772,0.024
43.49,-0.518,0.936,-0.135
43.5,-0.054,1.258,-0.069
43.51,-0.075,0.804,0.059
43.52,-0.201,1.015,0.188
43.53,-0.211,0.73,-0.102
43.54,-0.368,1.245,-0.191
43.55,0.012,0.981,0.089
43.56,-0.144,0.936,0.141
43.57,-0.232,0.871,0.019
43.58,-0.39,1.002,-0.188
43.59,-0.112,1.167,-0.044
43.6,-0.16,0.731,0.151
43.61,-0.144,1.087,0.089
43.62,-0.275,0.773,-0.202
43.63,-0.215,1.232,-0.082
43.64,-0.082,0.945,0.052
43.65,-0.114,0.747,0.126
43.66,-0.224,1.02,0.03
43.67,-0.417,0.957,-0.244
43.68,-0.035,1.129,-0.001
43.69,-0.026,0.801,0.131
43.7,-0.293,0.984,0.055
43.71,-0.262,0.901,-0.163
43.72,-0.153,1.183,-0.109
43.73,-0.176,0.862,0.125
43.74,-0.107,0.812,0.166
43.75,-0.45,1.109,-0.133
43.76,-0.246,0.803,-0.139
43.77,-0.024,1.316,0.039
43.78,-0.141,0.62,0.15
43.79,-0.273,1.019,0.087
43.8,-0.362,1.024,-0.217
43.81,-0.132,0.949,-0.033
43.82,-0.125,1.052,0.163
43.83,-0.183,0.653,0.106
43.84,-0.423,1.212,-0.191
43.85,-0.131,0.937,-0.079
43.86,-0.169,1.122,0.105
43.87,-0.147,0.716,0.221
43.88,-0.313,1.011,-0.095
43.89,-0.371,0.969,-0.196
43.9,-0.055,1.011,0.139
43.91,-0.242,1.065,0.119
43.92,-0.132,0.589,0.024
43.93,-0.435,1.357,-0.179
43.94,-0.16,0.842,-0.038
43.95,-0.167,1.082,0.132
43.96,-0.032,0.819,0.136
43.97,-0.425,0.93,-0.151
43.98,-0.322,1.123,-0.104
43.99,-0.022,0.962,0.114
44.0,-0.199,1.014,0.1
44.01,-0.201,0.663,0.034
44.02,-0.359,1.366,-0.247
44.03,-0.084,0.84,-0.056
44.04,-0.098,1.061,0.199
44.05,-0.212,0.834,0.082
44.06,-0.414,0.916,-0.14
44.07,-0.103,1.274,-0.083
44.08,-0.06,0.754,0.1
44.09,-0.224,1.063,0.193
44.1,-0.267,0.721,-0.098
44.11,-0.408,1.215,-0.187
44.12,0.038,0.955,0.047
44.13,-0.13,0.933,0.148
44.14,-0.216,0.888,0.035
44.15,-0.369,0.974,-0.19
44.16,-0.135,1.241,-0.015
44.17,-0.074,0.756,0.127
44.18,-0.202,1.012,0.112
44.19,-0.284,0.765,-0.144
44.2,-0.216,1.233,-0.079
44.21,-0.132,0.994,0.106
44.22,-0.092,0.731,0.119
44.23,-0.22,1.048,-0.045
44.24,-0.42,0.9,-0.147
44.25,-0.104,1.205,0.024
44.26,-0.106,0.799,0.17
44.27,-0.195,0.974,0.058
44.28,-0.291,0.889,-0.204
44.29,-0.169,1.144,-0.05
44.3,-0.134,0.753,0.116
44.31,-0.135,0.87,0.137
44.32,-0.361,1.01,-0.153
44.33,-0.283,0.887,-0.116
44.34,-0.034,1.265,0.102
44.35,-0.161,0.628,0.163
44.36,-0.285,1.073,0.056
44.37,-0.368,0.974,-0.223
44.38,-0.137,1.067,0.001
44.39,-0.141,0.906,0.191
44.4,-0.185,0.79,0.112
44.41,-0.382,1.076,-0.196
44.42,-0.132,0.945,-0.055
44.43,-0.126,1.197,0.065
44.44,-0.147,0.618,0.135
44.45,-0.314,1.096,-0.042
44.46,-0.347,0.924,-0.24
44.47,-0.164,1.058,0.088
44.48,-0.045,1.0,0.131
44.49,-0.152,0.712,0.027
44.5,-0.42,1.276,-0.205
44.51,-0.095,0.82,-0.054
44.52,-0.191,1.167,0.112
44.53,-0.063,0.723,0.142
44.54,-0.435,1.011,-0.146
44.55,-0.294,0.993,-0.134
44.56,-0.007,1.11,0.064
44.57,-0.149,0.93,0.097
44.58,-0.241,0.672,0.054
44.59,-0.396,1.361,-0.23
44.6,-0.066,0.779,-0.033
44.61,-0.159,1.153,0.186
44.62,-0.157,0.76,0.113
44.63,-0.431,1.003,-0.164
44.64,-0.208,1.17,-0.068
44.65,-0.09,0.847,0.107
44.66,-0.22,1.01,0.202
44.67,-0.207,0.721,-0.075
44.68,-0.446,1.233,-0.201
44.69,-0.052,0.843,0.063
44.7,-0.092,1.116,0.143
44.71,-0.198,0.734,0.026
44.72,-0.371,1.037,-0.145
44.73,-0.108,1.225,-0.108
44.74,-0.171,0.714,0.119
44.75,-0.154,1.081,0.165
44.76,-0.338,0.768,-0.173
44.77,-0.3,1.168,-0.114
44.78,-0.063,0.959,0.129
44.79,-0.118,0.878,0.103
44.8,-0.213,0.876,-0.009
44.81,-0.243,1.049,-0.21
44.82,-0.143,1.171,-0.083
44.83,-0.155,0.699,0.185
44.84,-0.153,1.043,0.066
44.85,-0.416,0.79,-0.178
44.86,-0.204,1.263,-0.053
44.87,-0.099,0.93,0.093
44.88,-0.232,0.764,0.171
44.89,-0.242,1.037,-0.053
44.9,-0.326,0.892,-0.204
44.91,-0.132,1.237,0.075
44.92,-0.019,0.719,0.127
44.93,-0.25,1.028,0.046
44.94,-0.382,0.894,-0.213
44.95,-0.112,1.129,-0.112
44.96,-0.158,0.892,0.116
44.97,-0.103,0.795,0.157
44.98,-0.375,1.113,-0.161
44.99,-0.208,0.798,-0.13
45.0,-0.12,1.285,0.129
45.01,-0.096,0.647,0.128
45.02,-0.255,1.005,-0.001
45.03,-0.427,1.016,-0.181
45.04,-0.123,1.015,0.007
45.05,-0.137,1.018,0.129
45.06,-0.15,0.69,0.13
45.07,-0.417,1.193,-0.193
45.08,-0.203,0.857,-0.077
45.09,-0.025,1.209,0.065
45.1,-0.039,0.677,0.111
45.11,-0.361,1.144,-0.06
45.12,-0.299,0.915,-0.202
45.13,-0.12,1.09,0.071
45.14,-0.115,0.956,0.145
45.15,-0.187,0.719,0.012
45.16,-0.534,1.242,-0.181
45.17,-0.033,0.913,-0.043
45.18,-0.145,1.138,0.073
45.19,-0.019,0.692,0.15
45.2,-0.449,1.14,-0.139
45.21,-0.325,0.986,-0.105
45.22,0.055,1.091,0.074
45.23,-0.17,0.931,0.087
45.24,-0.205,0.707,-0.006
45.25,-0.412,1.312,-0.219
45.26,-0.073,0.822,0.004
45.27,-0.174,1.154,0.177
45.28,-0.109,0.659,0.053
45.29,-0.417,1.141,-0.179
45.3,-0.097,1.063,-0.112
45.31,-0.072,0.877,0.149
45.32,-0.191,1.036,0.146
45.33,-0.314,0.729,-0.128
45.34,-0.35,1.247,-0.152
45.35,-0.007,0.89,0.077
45.36,-0.119,0.975,0.107
45.37,-0.167,0.804,0.023
45.38,-0.395,1.167,-0.215
45.39,-0.133,1.023,-0.007
45.4,-0.13,0.844,0.196
45.41,-0.167,1.053,0.065
45.42,-0.351,0.725,-0.199
45.43,-0.184,1.336,-0.085
45.44,-0.093,0.848,0.119
45.45,-0.24,0.887,0.185
45.46,-0.192,0.892,-0.029
45.47,-0.375,0.999,-0.233
45.48,-0.134,1.167,0.1
45.49,-0.06,0.755,0.113
45.5,-0.325,0.976,0.0
45.51,-0.268,0.868,-0.149
45.52,-0.223,1.292,-0.046
45.53,-0.141,0.719,0.115
45.54,-0.088,0.941,0.156
45.55,-0.32,0.977,-0.144
45.56,-0.356,0.919,-0.051
45.57,0.027,1.257,0.079
45.58,-0.229,0.595,0.099
45.59,-0.262,1.109,0.077
45.6,-0.399,0.949,-0.194
45.61,-0.23,1.076,-0.027
45.62,-0.057,0.89,0.141
45.63,-0.125,0.804,0.081
45.64,-0.462,1.104,-0.145
45.65,-0.079,0.9,-0.155
45.66,-0.087,1.155,0.092
45.67,-0.123,0.68,0.183
45.68,-0.368,1.083,-0.08
45.69,-0.339,0.902,-0.184
45.7,-0.04,1.15,0.076
45.71,-0.175,0.88,0.143
45.72,-0.189,0.734,0.059
45.73,-0.33,1.376,-0.234
45.74,-0.123,0.795,-0.069
45.75,-0.218,1.132,0.21
45.76,0.002,0.745,0.097
45.77,-0.519,1.047,-0.163
45.78,-0.23,1.01,-0.063
45.79,-0.059,1.112,0.06
45.8,-0.17,0.889,0.125
45.81,-0.175,0.72,0.055
45.82,-0.436,1.374,-0.248
45.83,-0.029,0.762,-0.024
45.84,-0.118,1.161,0.133
45.85,-0.117,0.708,0.044
45.86,-0.427,1.075,-0.185
45.87,-0.107,1.17,-0.081
45.88,-0.092,0.777,0.111
45.89,-0.187,1.037,0.229
45.9,-0.297,0.772,-0.06
45.91,-0.446,1.166,-0.172
45.92,-0.103,0.861,0.179
45.93,-0.156,1.135,0.096
45.94,-0.309,0.62,0.003
45.95,-0.324,1.262,-0.149
45.96,-0.144,0.987,-0.057
45.97,-0.222,0.837,0.175
45.98,-0.088,1.005,0.142
45.99,-0.514,0.757,-0.173
46.0,-0.315,1.225,-0.003
46.01,0.019,0.898,0.077
46.02,-0.204,0.918,0.055
46.03,-0.156,0.764,-0.057
46.04,-0.304,1.23,-0.188
46.05,-0.259,1.027,0.107
46.06,-0.044,0.78,0.186
46.07,-0.257,1.003,0.004
46.08,-0.438,0.851,-0.145
46.09,-0.161,1.266,-0.035
46.1,-0.226,0.759,0.176
46.11,-0.141,0.975,0.108
46.12,-0.248,0.843,-0.189
46.13,-0.272,1.062,-0.113
46.14,0.008,1.153,0.068
46.15,-0.125,0.653,0.101
46.16,-0.327,1.08,0.054
46.17,-0.272,0.885,-0.227
46.18,-0.143,1.176,-0.04
46.19,-0.146,0.775,0.21
46.2,-0.158,0.921,0.111
46.21,-0.37,1.016,-0.226
46.22,-0.144,0.935,-0.127
46.23,-0.102,1.113,0.1
46.24,-0.06,0.648,0.139
46.25,-0.406,1.145,-0.035
46.26,-0.365,0.756,-0.225
46.27,-0.068,1.221,0.092
46.28,-0.157,0.89,0.116
46.29,-0.213,0.818,0.028
46.3,-0.32,1.143,-0.18
46.31,-0.14,0.965,-0.061
46.32,-0.186,1.041,0.132
46.33,-0.029,0.723,0.163
46.34,-0.474,1.14,-0.143
46.35,-0.288,0.838,-0.097
46.36,-0.105,1.259,0.14
46.37,-0.208,0.823,0.088
46.38,-0.147,0.791,0.006
46.39,-0.403,1.292,-0.198
46.4,-0.173,0.788,0.036
46.41,-0.193,1.159,0.177
46.42,-0.028,0.702,0.042
46.43,-0.513,1.148,-0.187
46.44,-0.146,1.04,0.004
46.45,-0.17,1.042,0.127
46.46,-0.184,0.874,0.122
46.47,-0.196,0.81,-0.062
46.48,-0.377,1.246,-0.226
46.49,-0.062,0.842,0.153
46.5,-0.129,1.145,0.126
46.51,-0.275,0.631,0.016
46.52,-0.368,1.18,-0.183
46.53,-0.089,1.059,-0.093
46.54,-0.236,0.861,0.164
46.55,-0.058,0.988,0.16
46.56,-0.359,0.795,-0.21
46.57,-0.272,1.288,-0.061
46.58,-0.01,0.858,0.072
46.59,-0.219,0.98,0.142
46.6,-0.173,0.809,-0.014
46.61,-0.338,1.169,-0.241
46.62,-0.174,1.043,0.014
46.63,-0.009,0.86,0.144
46.64,-0.23,0.966,-0.003
46.65,-0.374,0.817,-0.092
46.66,-0.187,1.33,-0.053
46.67,-0.099,0.726,0.119
46.68,-0.195,0.948,0.194
46.69,-0.268,0.927,-0.12
46.7,-0.283,0.974,-0.188
46.71,-0.069,1.178,0.07
46.72,-0.128,0.679,0.15
46.73,-0.269,1.075,0.029
46.74,-0.408,0.936,-0.188
46.75,-0.148,1.171,0.002
46.76,-0.035,0.776,0.131
46.77,-0.2,1.018,0.069
46.78,-0.331,0.842,-0.154
46.79,-0.246,1.155,-0.045
46.8,-0.041,0.975,0.072
46.81,-0.164,0.731,0.148
46.82,-0.329,1.106,-0.005
46.83,-0.369,0.838,-0.207
46.84,-0.17,1.24,0.071
46.85,0.008,0.787,0.119
46.86,-0.244,0.94,0.017
46.87,-0.438,1.003,-0.153
46.88,-0.089,1.031,-0.079
46.89,-0.189,1.007,0.1
46.9,-0.056,0.719,0.163
46.91,-0.45,1.164,-0.156
46.92,-0.278,0.82,-0.136
46.93,-0.012,1.302,0.092
46.94,-0.19,0.682,0.11
46.95,-0.264,0.927,0.034
46.96,-0.331,1.15,-0.213
46.97,-0.19,0.899,0.038
46.98,-0.105,1.1,0.143
46.99,-0.099,0.665,0.089
47.0,-0.474,1.211,-0.193
47.01,-0.134,0.927,-0.045
47.02,-0.158,1.108,0.105
47.03,-0.181,0.824,0.165
47.04,-0.243,0.885,-0.111
47.05,-0.33,1.097,-0.218
47.06,-0.109,0.96,0.177
47.07,-0.128,1.132,0.108
47.08,-0.157,0.591,-0.008
47.09,-0.437,1.33,-0.15
47.1,-0.109,0.904,-0.088
47.11,-0.255,0.989,0.156
47.12,-0.083,0.903,0.172
47.13,-0.392,0.834,-0.181
47.14,-0.336,1.208,-0.09
47.15,-0.008,0.905,0.078
47.16,-0.212,1.008,0.118
47.17,-0.198,0.693,0.032
47.18,-0.344,1.283,-0.246
47.19,-0.093,0.898,-0.008
47.2,-0.142,1.001,0.206
47.21,-0.162,0.903,0.05
47.22,-0.436,0.827,-0.124
47.23,-0.164,1.342,-0.09
47.24,-0.063,0.756,0.09
47.25,-0.233,1.028,0.214
47.26,-0.215,0.759,-0.117
47.27,-0.348,1.124,-0.147
47.28,-0.081,1.1,0.126
47.29,-0.156,0.82,0.142
47.3,-0.273,0.98,0.033
47.31,-0.369,0.923,-0.162
47.32,-0.138,1.245,-0.044
47.33,-0.141,0.749,0.177
47.34,-0.103,0.994,0.115
47.35,-0.392,0.877,-0.167
47.36,-0.248,1.057,-0.133
47.37,0.025,1.132,0.064
47.38,-0.159,0.647,0.136
47.39,-0.29,1.079,0.059
47.4,-0.385,0.939,-0.193
47.41,-0.127,1.177,-0.018
47.42,-0.089,0.82,0.179
47.43,-0.227,0.906,0.074
47.44,-0.402,0.995,-0.181
47.45,-0.099,1.055,-0.103
47.46,-0.125,1.034,0.057
47.47,-0.112,0.69,0.223
47.48,-0.342,1.154,-0.095
47.49,-0.333,0.828,-0.231
47.5,0.015,1.244,0.112
47.51,-0.101,0.771,0.1
47.52,-0.276,0.86,0.04
47.53,-0.396,1.22,-0.183
47.54,-0.112,0.9,-0.108
47.55,-0.21,1.082,0.146
47.56,-0.044,0.737,0.057
47.57,-0.429,1.147,-0.204
47.58,-0.146,0.869,-0.038
47.59,-0.109,1.19,0.107
47.6,-0.21,0.695,0.19
47.61,-0.246,1.013,-0.086
47.62,-0.256,0.974,-0.271
47.63,-0.156,0.972,0.136
47.64,-0.075,1.107,0.136
47.65,-0.16,0.626,-0.022
47.66,-0.417,1.283,-0.163
47.67,-0.134,0.915,-0.102
47.68,-0.169,1.062,0.074
47.69,-0.094,0.781,0.165
47.7,-0.329,0.942,-0.188
47.71,-0.273,1.05,-0.12
47.72,-0.036,1.018,0.065
47.73,-0.156,0.991,0.114
47.74,-0.225,0.646,0.045
47.75,-0.39,1.306,-0.201
47.76,-0.083,0.839,-0.044
47.77,-0.136,1.115,0.197
47.78,-0.132,0.824,0.091
47.79,-0.397,0.906,-0.185
47.8,-0.235,1.246,-0.043
47.81,-0.063,0.851,0.078
47.82,-0.206,1.014,0.161
47.83,-0.194,0.745,-0.008
47.84,-0.44,1.202,-0.249
47.85,-0.092,0.901,0.047
47.86,-0.05,1.082,0.175
47.87,-0.207,0.831,-0.005
47.88,-0.413,0.91,-0.135
47.89,-0.108,1.33,-0.074
47.9,-0.197,0.673,0.09
47.91,-0.188,1.033,0.19
47.92,-0.213,0.799,-0.17
47.93,-0.376,1.116,-0.143
47.94,-0.09,1.041,0.161
47.95,-0.089,0.861,0.076
47.96,-0.248,0.917,0.009
47.97,-0.312,0.99,-0.138
47.98,-0.172,1.262,-0.048
47.99,-0.17,0.676,0.115
48.0,-0.058,1.046,0.125
48.01,-0.412,0.839,-0.185
48.02,-0.283,1.069,-0.069
48.03,0.052,1.126,0.061
48.04,-0.188,0.659,0.044
48.05,-0.255,1.059,0.013
48.06,-0.253,0.94,-0.234
48.07,-0.166,1.217,-0.005
48.08,-0.055,0.776,0.172
48.09,-0.19,0.924,0.02
48.1,-0.438,0.946,-0.143
48.11,-0.127,1.104,-0.082
48.12,-0.089,0.969,0.027
48.13,-0.139,0.719,0.221
48.14,-0.283,1.174,-0.114
48.15,-0.405,0.812,-0.172
48.16,-0.037,1.267,0.116
48.17,-0.113,0.766,0.108
48.18,-0.268,0.873,0.046
48.19,-0.366,1.131,-0.173
48.2,-0.094,0.93,-0.051
48.21,-0.296,1.081,0.174
48.22,-0.048,0.703,0.137
48.23,-0.402,1.111,-0.192
48.24,-0.285,0.884,-0.079
48.25,-0.003,1.248,0.072
48.26,-0.157,0.752,0.086
48.27,-0.27,0.887,0.079
48.28,-0.388,1.198,-0.254
48.29,-0.12,0.8,0.017
48.3,-0.214,1.263,0.182
48.31,0.028,0.637,0.039
48.32,-0.506,1.166,-0.222
48.33,-0.121,0.924,-0.022
48.34,-0.025,1.119,0.052
48.35,-0.233,0.856,0.116
48.36,-0.202,0.856,-0.047
48.37,-0.341,1.231,-0.218
