t,ax,ay,az
0.0,-0.267,1.123,-0.002
0.01,0.03,0.848,0.136
0.02,-0.125,0.957,0.063
0.03,-0.499,0.998,-0.14
0.04,-0.051,0.949,-0.022
0.05,-0.183,1.206,0.013
0.06,-0.12,0.56,0.155
0.07,-0.269,1.221,-0.017
0.08,-0.316,0.874,-0.225
0.09,-0.226,1.037,0.026
0.1,-0.031,0.95,0.167
0.11,-0.159,0.846,0.062
0.12,-0.418,1.066,-0.158
0.13,-0.096,0.93,-0.03
0.14,-0.143,1.23,0.02
0.15,-0.12,0.563,0.176
0.16,-0.303,1.173,0.002
0.17,-0.333,0.948,-0.226
0.18,-0.181,0.996,0.033
0.19,-0.106,0.999,0.203
0.2,-0.176,0.782,0.057
0.21,-0.405,1.112,-0.165
0.22,-0.072,0.91,0.014
0.23,-0.238,1.256,0.058
0.24,-0.118,0.584,0.179
0.25,-0.219,1.116,-0.021
0.26,-0.334,0.935,-0.205
0.27,-0.194,0.961,0.03
0.28,-0.041,1.08,0.141
0.29,-0.122,0.713,0.086
0.3,-0.492,1.149,-0.154
0.31,-0.109,0.849,-0.052
0.32,-0.092,1.249,0.023
0.33,-0.139,0.682,0.152
0.34,-0.278,1.057,-0.03
0.35,-0.318,1.055,-0.203
0.36,-0.18,0.896,0.036
0.37,-0.085,1.087,0.164
0.38,-0.1,0.685,0.058
0.39,-0.479,1.171,-0.171
0.4,-0.182,0.832,-0.025
0.41,-0.051,1.261,0.032
0.42,-0.153,0.694,0.115
0.43,-0.297,0.975,0.0
0.44,-0.255,1.185,-0.221
0.45,-0.202,0.864,-0.009
0.46,-0.136,1.106,0.21
0.47,-0.034,0.699,0.052
0.48,-0.489,1.174,-0.207
0.49,-0.123,0.918,-0.01
0.5,-0.189,1.202,0.042
0.51,-0.129,0.718,0.125
0.52,-0.232,0.918,0.002
0.53,-0.336,1.22,-0.21
0.54,-0.165,0.789,0.014
0.55,-0.123,1.193,0.173
0.56,-0.094,0.66,0.098
0.57,-0.457,1.149,-0.178
0.58,-0.093,0.954,-0.063
0.59,-0.214,1.115,0.061
0.6,-0.096,0.813,0.137
0.61,-0.228,0.865,-0.052
0.62,-0.442,1.227,-0.194
0.63,-0.04,0.75,0.013
0.64,-0.145,1.225,0.152
0.65,-0.163,0.694,0.136
0.66,-0.406,1.216,-0.187
0.67,-0.187,0.873,-0.033
0.68,-0.196,1.124,0.098
0.69,-0.081,0.81,0.161
0.7,-0.325,0.924,-0.077
0.71,-0.321,1.082,-0.161
0.72,-0.133,0.892,0.088
0.73,-0.169,1.213,0.167
0.74,-0.138,0.637,0.083
0.75,-0.461,1.202,-0.176
0.76,-0.149,0.946,-0.069
0.77,-0.112,1.06,0.028
0.78,-0.14,0.834,0.17
0.79,-0.288,0.849,-0.048
0.8,-0.303,1.171,-0.187
0.81,-0.166,0.835,0.052
0.82,-0.104,1.182,0.171
0.83,-0.112,0.646,0.004
0.84,-0.506,1.138,-0.135
0.85,-0.116,0.99,-0.012
0.86,-0.119,1.044,0.046
0.87,-0.195,0.843,0.143
0.88,-0.256,0.813,-0.056
0.89,-0.301,1.279,-0.201
0.9,-0.158,0.807,0.038
0.91,-0.112,1.125,0.208
0.92,-0.086,0.729,0.027
0.93,-0.521,1.087,-0.183
0.94,-0.095,1.046,-0.009
0.95,-0.122,0.986,0.114
0.96,-0.214,0.93,0.157
0.97,-0.256,0.788,-0.062
0.98,-0.35,1.287,-0.13
0.99,-0.183,0.826,0.048
1.0,-0.079,1.107,0.153
1.01,-0.068,0.78,0.032
1.02,-0.481,1.076,-0.173
1.03,-0.111,1.132,-0.043
1.04,-0.105,0.872,0.099
1.05,-0.229,0.98,0.195
1.06,-0.25,0.789,-0.157
1.07,-0.307,1.214,-0.122
1.08,-0.232,0.89,0.091
1.09,-0.075,1.01,0.143
1.1,-0.185,0.802,0.039
1.11,-0.425,0.984,-0.204
1.12,-0.121,1.182,-0.058
1.13,-0.118,0.791,0.073
1.14,-0.217,1.027,0.179
1.15,-0.233,0.771,-0.145
1.16,-0.317,1.175,-0.153
1.17,-0.056,0.931,0.072
1.18,-0.106,0.972,0.147
1.19,-0.235,0.857,0.039
1.2,-0.371,0.952,-0.198
1.21,-0.141,1.243,-0.058
1.22,-0.133,0.691,0.083
1.23,-0.185,1.048,0.13
1.24,-0.265,0.827,-0.145
1.25,-0.367,1.083,-0.127
1.26,-0.044,0.994,0.049
1.27,-0.025,0.902,0.133
1.28,-0.316,0.919,0.02
1.29,-0.401,0.902,-0.163
1.3,-0.032,1.314,-0.094
1.31,-0.172,0.694,0.131
1.32,-0.17,1.023,0.187
1.33,-0.339,0.89,-0.154
1.34,-0.301,1.012,-0.135
1.35,-0.044,1.107,0.094
1.36,-0.106,0.763,0.117
1.37,-0.314,0.978,-0.047
1.38,-0.275,0.942,-0.142
1.39,-0.129,1.239,-0.034
1.4,-0.268,0.728,0.139
1.41,-0.05,0.98,0.098
1.42,-0.376,0.928,-0.222
1.43,-0.292,0.972,-0.021
1.44,-0.054,1.153,0.096
1.45,-0.095,0.649,0.118
1.46,-0.384,1.112,-0.002
1.47,-0.263,0.932,-0.178
1.48,-0.226,1.19,0.016
1.49,-0.079,0.762,0.186
1.5,-0.118,1.031,0.044
1.51,-0.48,0.869,-0.169
1.52,-0.067,1.101,-0.08
1.53,-0.113,1.039,0.082
1.54,-0.224,0.701,0.194
1.55,-0.226,1.11,-0.113
1.56,-0.285,0.874,-0.143
1.57,-0.17,1.239,0.072
1.58,-0.093,0.764,0.131
1.59,-0.17,0.939,0.026
1.6,-0.41,0.996,-0.189
1.61,-0.094,1.062,-0.091
1.62,-0.176,0.965,0.091
1.63,-0.184,0.722,0.189
1.64,-0.292,1.185,-0.148
1.65,-0.298,0.768,-0.17
1.66,-0.2,1.232,0.129
1.67,-0.04,0.814,0.126
1.68,-0.227,0.906,-0.013
1.69,-0.376,1.053,-0.124
1.7,-0.152,0.989,-0.014
1.71,-0.256,1.053,0.128
1.72,-0.074,0.72,0.109
1.73,-0.386,1.186,-0.183
1.74,-0.268,0.815,-0.116
1.75,-0.034,1.25,0.022
1.76,-0.131,0.764,0.175
1.77,-0.302,0.902,0.055
1.78,-0.351,1.179,-0.174
1.79,-0.176,0.829,-0.064
1.8,-0.189,1.1,0.147
1.81,-0.044,0.724,0.129
1.82,-0.441,1.149,-0.208
1.83,-0.235,0.82,-0.089
1.84,-0.106,1.225,0.075
1.85,-0.059,0.738,0.103
1.86,-0.282,0.861,0.057
1.87,-0.295,1.261,-0.275
1.88,-0.157,0.979,0.133
1.89,-0.196,0.633,0.021
1.9,-0.387,1.377,-0.175
1.91,-0.108,0.812,-0.042
1.92,-0.192,1.03,0.179
1.93,-0.079,0.851,0.14
1.94,-0.445,0.925,-0.187
1.95,-0.273,1.098,-0.052
1.96,-0.003,1.013,0.092
1.97,-0.238,0.955,0.107
1.98,-0.234,0.669,0.009
1.99,-0.283,1.368,-0.184
2.0,-0.113,0.86,-0.019
2.01,-0.239,0.96,0.214
2.02,-0.095,0.894,0.066
2.03,-0.408,0.868,-0.233
2.04,-0.233,1.175,-0.001
2.05,-0.044,0.894,0.054
2.06,-0.186,1.01,0.137
2.07,-0.262,0.78,-0.021
2.08,-0.357,1.189,-0.168
2.09,-0.176,0.951,0.05
2.1,-0.16,0.976,0.154
2.11,-0.085,0.876,0.063
2.12,-0.508,0.911,-0.137
2.13,-0.191,1.267,-0.085
2.14,-0.109,0.782,0.066
2.15,-0.154,0.98,0.133
2.16,-0.212,0.812,-0.105
2.17,-0.358,1.126,-0.113
2.18,-0.156,0.993,0.041
2.19,-0.048,0.891,0.093
2.2,-0.146,0.944,0.04
2.21,-0.394,0.877,-0.15
2.22,-0.106,1.275,-0.129
2.23,-0.151,0.72,0.067
2.24,-0.097,1.1,0.216
2.25,-0.355,0.772,-0.141
2.26,-0.289,1.096,-0.138
2.27,-0.071,1.054,0.091
2.28,-0.101,0.884,0.113
2.29,-0.302,0.921,0.043
2.3,-0.328,1.019,-0.165
2.31,-0.204,1.171,-0.074
2.32,-0.125,0.673,0.125
2.33,-0.139,1.115,0.181
2.34,-0.327,0.8,-0.186
2.35,-0.285,1.045,-0.125
2.36,-0.094,1.069,0.108
2.37,-0.157,0.762,0.126
2.38,-0.26,0.961,0.034
2.39,-0.262,1.017,-0.179
2.4,-0.175,1.172,-0.037
2.41,-0.214,0.679,0.168
2.42,-0.043,1.02,0.111
2.43,-0.423,0.844,-0.196
2.44,-0.202,1.039,-0.046
2.45,-0.021,1.163,0.017
2.46,-0.176,0.619,0.154
2.47,-0.274,1.057,0.016
2.48,-0.255,0.99,-0.251
2.49,-0.1,1.142,-0.036
2.5,-0.198,0.816,0.196
2.51,-0.089,0.966,0.077
2.52,-0.412,0.925,-0.22
2.53,-0.208,1.025,0.01
2.54,-0.035,1.174,0.029
2.55,-0.173,0.622,0.138
2.56,-0.327,1.135,0.032
2.57,-0.319,0.93,-0.214
2.58,-0.166,1.087,-0.004
2.59,-0.046,0.881,0.174
2.6,-0.142,0.944,0.054
2.61,-0.431,0.981,-0.151
2.62,-0.128,0.994,-0.013
2.63,-0.115,1.197,0.047
2.64,-0.155,0.586,0.139
2.65,-0.283,1.196,-0.05
2.66,-0.293,0.873,-0.225
2.67,-0.189,1.136,0.081
2.68,-0.046,0.886,0.121
2.69,-0.177,0.799,0.023
2.7,-0.411,1.135,-0.185
2.71,-0.023,0.935,-0.046
2.72,-0.19,1.079,0.081
2.73,-0.135,0.7,0.199
2.74,-0.304,1.16,-0.151
2.75,-0.318,0.815,-0.145
2.76,-0.168,1.136,0.154
2.77,-0.073,0.947,0.135
2.78,-0.262,0.727,-0.003
2.79,-0.421,1.201,-0.138
2.8,-0.057,0.867,-0.032
2.81,-0.276,1.111,0.112
2.82,0.008,0.697,0.155
2.83,-0.322,1.139,-0.232
2.84,-0.288,0.901,-0.15
2.85,-0.041,1.137,0.089
2.86,-0.062,0.921,0.097
2.87,-0.353,0.738,0.076
2.88,-0.327,1.337,-0.227
2.89,-0.079,0.825,-0.032
2.9,-0.219,1.14,0.161
2.91,0.003,0.744,0.115
2.92,-0.452,1.081,-0.196
2.93,-0.228,0.972,-0.1
2.94,-0.056,1.079,0.065
2.95,-0.177,0.909,0.136
2.96,-0.291,0.704,0.031
2.97,-0.33,1.366,-0.237
2.98,-0.095,0.769,-0.026
2.99,-0.236,1.162,0.177
3.0,-0.012,0.754,0.098
3.01,-0.441,0.997,-0.209
3.02,-0.201,1.11,-0.048
3.03,-0.058,0.957,0.027
3.04,-0.232,0.857,0.181
3.05,-0.249,0.825,-0.074
3.06,-0.341,1.217,-0.22
3.07,-0.176,0.853,0.13
3.08,-0.119,1.201,0.121
3.09,-0.107,0.65,0.031
3.1,-0.491,1.15,-0.161
3.11,-0.033,1.026,-0.061
3.12,-0.117,0.959,0.071
3.13,-0.233,0.92,0.199
3.14,-0.205,0.776,-0.133
3.15,-0.355,1.223,-0.159
3.16,-0.134,0.851,0.117
3.17,-0.057,1.133,0.122
3.18,-0.247,0.652,-0.02
3.19,-0.462,1.111,-0.095
3.2,-0.057,1.075,-0.07
3.21,-0.222,0.829,0.117
3.22,-0.102,1.029,0.2
3.23,-0.285,0.792,-0.148
3.24,-0.387,1.152,-0.152
3.25,-0.019,0.933,0.064
3.26,-0.074,1.005,0.128
3.27,-0.286,0.782,0.023
3.28,-0.333,1.141,-0.164
3.29,-0.035,1.058,-0.107
3.3,-0.235,0.767,0.208
3.31,-0.024,1.101,0.136
3.32,-0.331,0.784,-0.217
3.33,-0.386,1.187,-0.05
3.34,0.016,0.992,0.016
3.35,-0.094,0.875,0.115
3.36,-0.352,0.859,0.081
3.37,-0.231,1.067,-0.184
3.38,-0.144,1.127,-0.036
3.39,-0.248,0.733,0.238
3.4,-0.019,1.061,0.083
3.41,-0.37,0.787,-0.227
3.42,-0.298,1.168,0.021
3.43,-0.085,1.016,0.058
3.44,-0.166,0.806,0.168
3.45,-0.324,1.004,0.021
3.46,-0.28,0.959,-0.205
3.47,-0.165,1.15,-0.013
3.48,-0.136,0.739,0.197
3.49,-0.065,1.056,0.073
3.5,-0.421,0.829,-0.21
3.51,-0.219,1.075,-0.075
3.52,0.001,1.052,0.028
3.53,-0.194,0.73,0.14
3.54,-0.299,1.063,-0.007
3.55,-0.209,1.003,-0.196
3.56,-0.209,1.14,0.0
3.57,-0.13,0.741,0.186
3.58,-0.086,1.034,0.036
3.59,-0.394,0.844,-0.222
3.6,-0.164,1.061,-0.009
3.61,-0.134,1.087,0.069
3.62,-0.188,0.631,0.164
3.63,-0.248,1.145,-0.017
3.64,-0.325,0.9,-0.211
3.65,-0.247,1.145,0.086
3.66,0.005,0.798,0.113
3.67,-0.209,0.932,0.045
3.68,-0.397,0.979,-0.195
3.69,-0.092,1.038,-0.079
3.7,-0.1,1.011,0.056
3.71,-0.134,0.687,0.191
3.72,-0.297,1.193,-0.12
3.73,-0.242,0.772,-0.195
3.74,-0.221,1.203,0.088
3.75,-0.004,0.811,0.123
3.76,-0.21,0.881,-0.01
3.77,-0.423,1.087,-0.176
3.78,-0.023,0.99,-0.093
3.79,-0.194,1.054,0.055
3.8,-0.133,0.674,0.208
3.81,-0.317,1.197,-0.156
3.82,-0.325,0.8,-0.133
3.83,-0.098,1.157,0.092
3.84,-0.062,0.883,0.112
3.85,-0.276,0.792,-0.019
3.86,-0.245,1.062,-0.165
3.87,-0.177,1.022,-0.005
3.88,-0.251,0.957,0.158
3.89,0.028,0.75,0.147
3.9,-0.452,1.231,-0.169
3.91,-0.297,0.788,-0.042
3.92,0.007,1.28,0.057
3.93,-0.089,0.688,0.104
3.94,-0.341,0.956,0.029
3.95,-0.307,1.128,-0.242
3.96,-0.11,0.901,-0.017
3.97,-0.257,1.074,0.173
3.98,0.02,0.67,0.058
3.99,-0.46,1.203,-0.224
4.0,-0.228,0.819,-0.003
4.01,-0.075,1.202,0.061
4.02,-0.136,0.727,0.13
4.03,-0.342,0.935,0.027
4.04,-0.297,1.153,-0.222
4.05,-0.138,0.827,-0.02
4.06,-0.094,1.162,0.184
4.07,-0.089,0.653,0.093
4.08,-0.485,1.178,-0.209
4.09,-0.037,0.888,-0.031
4.1,-0.146,1.16,0.113
4.11,-0.144,0.812,0.104
4.12,-0.265,0.916,-0.036
4.13,-0.302,1.205,-0.216
4.14,-0.127,0.846,0.054
4.15,-0.15,1.168,0.168
4.16,-0.077,0.612,0.02
4.17,-0.5,1.214,-0.191
4.18,-0.04,0.968,-0.026
4.19,-0.168,1.021,0.1
4.2,-0.195,0.862,0.163
4.21,-0.275,0.848,-0.131
4.22,-0.322,1.195,-0.125
4.23,-0.151,0.905,0.086
4.24,-0.145,1.105,0.118
4.25,-0.146,0.629,0.012
4.26,-0.471,1.243,-0.167
4.27,-0.068,0.968,-0.098
4.28,-0.157,0.89,0.116
4.29,-0.146,1.008,0.168
4.3,-0.315,0.797,-0.185
4.31,-0.286,1.182,-0.107
4.32,-0.126,0.895,0.103
4.33,-0.103,1.053,0.09
4.34,-0.194,0.711,0.019
4.35,-0.445,1.145,-0.141
4.36,-0.047,1.082,-0.062
4.37,-0.187,0.809,0.151
4.38,-0.191,1.033,0.157
4.39,-0.295,0.774,-0.212
4.4,-0.314,1.197,-0.094
4.41,0.035,0.931,0.108
4.42,-0.177,0.975,0.126
4.43,-0.296,0.779,-0.018
4.44,-0.26,1.142,-0.162
4.45,-0.082,1.13,-0.027
4.46,-0.282,0.713,0.234
4.47,-0.069,1.047,0.069
4.48,-0.394,0.818,-0.234
4.49,-0.213,1.184,-0.01
4.5,-0.018,0.885,0.095
4.51,-0.219,0.867,0.107
4.52,-0.252,0.955,-0.044
4.53,-0.209,1.023,-0.184
4.54,-0.211,1.162,0.001
4.55,-0.076,0.725,0.162
4.56,-0.134,1.02,0.053
4.57,-0.473,0.876,-0.17
4.58,-0.081,1.201,-0.094
4.59,-0.107,0.836,0.08
4.6,-0.209,0.853,0.199
4.61,-0.248,1.062,-0.132
4.62,-0.275,0.914,-0.149
4.63,-0.166,1.219,0.107
4.64,-0.087,0.704,0.13
4.65,-0.242,1.005,-0.015
4.66,-0.415,0.966,-0.173
4.67,-0.093,1.176,0.006
4.68,-0.262,0.759,0.176
4.69,-0.082,0.951,0.149
4.7,-0.343,0.973,-0.216
4.71,-0.233,0.952,-0.093
4.72,-0.042,1.187,0.057
4.73,-0.103,0.646,0.135
4.74,-0.393,1.067,0.036
4.75,-0.246,0.932,-0.219
4.76,-0.156,1.208,0.01
4.77,-0.209,0.786,0.177
4.78,-0.035,0.896,0.121
4.79,-0.488,1.125,-0.17
4.8,-0.106,0.888,-0.047
4.81,-0.129,1.154,0.073
4.82,-0.158,0.667,0.145
4.83,-0.327,1.122,-0.092
4.84,-0.287,0.813,-0.208
4.85,-0.123,1.146,0.064
4.86,-0.135,0.909,0.108
4.87,-0.108,0.778,0.015
4.88,-0.434,1.2,-0.155
4.89,-0.073,0.877,-0.074
4.9,-0.175,1.157,0.1
4.91,-0.135,0.689,0.15
4.92,-0.343,1.158,-0.105
4.93,-0.233,0.854,-0.183
4.94,-0.156,1.154,0.132
4.95,-0.173,0.932,0.151
4.96,-0.208,0.716,0.013
4.97,-0.427,1.289,-0.162
4.98,-0.139,0.802,-0.044
4.99,-0.16,1.131,0.107
5.0,-0.191,0.713,0.172
5.01,-0.318,1.05,-0.162
5.02,-0.295,0.929,-0.167
5.03,-0.068,1.043,0.117
5.04,-0.05,0.976,0.121
5.05,-0.272,0.658,-0.018
5.06,-0.398,1.247,-0.151
5.07,-0.003,0.932,-0.06
5.08,-0.253,1.08,0.078
5.09,-0.058,0.753,0.189
5.1,-0.377,1.07,-0.19
5.11,-0.283,0.945,-0.135
5.12,0.077,1.014,0.082
5.13,-0.166,1.013,0.109
5.14,-0.287,0.672,0.003
5.15,-0.307,1.32,-0.169
5.16,-0.158,0.799,0.029
5.17,-0.28,1.092,0.188
5.18,-0.055,0.812,0.101
5.19,-0.469,0.977,-0.202
5.2,-0.253,1.105,-0.041
5.21,-0.017,0.964,0.074
5.22,-0.217,0.971,0.14
5.23,-0.239,0.702,-0.006
5.24,-0.328,1.311,-0.226
5.25,-0.127,0.863,0.009
5.26,-0.121,1.052,0.153
5.27,-0.117,0.822,0.062
5.28,-0.494,0.984,-0.183
5.29,-0.13,1.217,-0.061
5.3,-0.062,0.801,0.058
5.31,-0.235,1.031,0.165
5.32,-0.173,0.761,-0.086
5.33,-0.339,1.214,-0.174
5.34,-0.162,0.931,0.108
5.35,-0.116,1.009,0.093
5.36,-0.127,0.829,0.017
5.37,-0.441,0.933,-0.143
5.38,-0.085,1.257,-0.069
5.39,-0.106,0.681,0.052
5.4,-0.146,1.068,0.183
5.41,-0.31,0.795,-0.101
5.42,-0.27,1.087,-0.199
5.43,-0.032,1.083,0.099
5.44,-0.15,0.826,0.127
5.45,-0.273,0.952,0.015
5.46,-0.305,0.944,-0.207
5.47,-0.154,1.204,-0.028
5.48,-0.18,0.729,0.171
5.49,-0.181,1.075,0.108
5.5,-0.316,0.768,-0.184
5.51,-0.224,1.198,-0.057
5.52,-0.102,0.927,0.074
5.53,-0.125,0.853,0.164
5.54,-0.3,0.964,-0.026
5.55,-0.347,0.997,-0.176
5.56,-0.128,1.135,-0.001
5.57,-0.144,0.74,0.198
5.58,-0.206,1.084,0.123
5.59,-0.368,0.809,-0.226
5.6,-0.187,1.134,-0.068
5.61,-0.144,0.935,0.129
5.62,-0.132,0.783,0.156
5.63,-0.297,1.032,-0.116
5.64,-0.315,0.859,-0.175
5.65,-0.105,1.203,0.023
5.66,-0.129,0.728,0.153
5.67,-0.173,1.014,0.076
5.68,-0.422,0.945,-0.198
5.69,-0.129,1.103,-0.053
5.7,-0.131,0.96,0.079
5.71,-0.191,0.756,0.164
5.72,-0.34,1.132,-0.125
5.73,-0.169,0.812,-0.228
5.74,-0.146,1.286,0.11
5.75,-0.058,0.762,0.135
5.76,-0.209,0.959,0.005
5.77,-0.432,0.971,-0.13
5.78,-0.107,1.061,-0.041
5.79,-0.16,0.969,0.102
5.8,-0.134,0.74,0.203
5.81,-0.432,1.2,-0.168
5.82,-0.229,0.768,-0.16
5.83,-0.072,1.25,0.087
5.84,-0.09,0.725,0.153
5.85,-0.248,0.96,0.022
5.86,-0.319,1.077,-0.211
5.87,-0.162,0.909,-0.004
5.88,-0.208,1.049,0.164
5.89,-0.072,0.732,0.093
5.9,-0.456,1.138,-0.216
5.91,-0.226,0.835,-0.074
5.92,-0.05,1.275,0.038
5.93,-0.096,0.657,0.116
5.94,-0.242,0.963,0.017
5.95,-0.296,1.166,-0.26
5.96,-0.107,0.823,0.013
5.97,-0.179,1.135,0.189
5.98,-0.077,0.661,0.065
5.99,-0.498,1.17,-0.194
6.0,-0.139,0.893,-0.065
6.01,-0.059,1.193,0.062
6.02,-0.162,0.753,0.163
6.03,-0.274,0.845,-0.009
6.04,-0.257,1.229,-0.228
6.05,-0.113,0.881,0.023
6.06,-0.185,1.125,0.173
6.07,0.011,0.676,0.032
6.08,-0.5,1.196,-0.219
6.09,-0.085,0.914,-0.026
6.1,-0.104,1.145,0.099
6.11,-0.201,0.837,0.163
6.12,-0.252,0.842,-0.067
6.13,-0.34,1.222,-0.13
6.14,-0.119,0.822,0.08
6.15,-0.103,1.168,0.144
6.16,-0.193,0.625,0.046
6.17,-0.492,1.159,-0.178
6.18,-0.095,1.004,-0.087
6.19,-0.121,0.915,0.111
6.2,-0.16,0.966,0.162
6.21,-0.267,0.819,-0.132
6.22,-0.307,1.202,-0.134
6.23,-0.114,0.86,0.141
6.24,-0.115,1.115,0.126
6.25,-0.223,0.686,-0.024
6.26,-0.418,1.173,-0.149
6.27,-0.133,1.034,-0.005
6.28,-0.186,0.869,0.13
6.29,-0.132,1.006,0.153
6.3,-0.452,0.928,-0.163
6.31,-0.204,1.17,-0.063
6.32,-0.104,0.894,0.131
6.33,-0.236,0.982,0.159
6.34,-0.194,0.703,-0.074
6.35,-0.347,1.24,-0.208
6.36,-0.045,0.973,0.02
6.37,-0.217,0.928,0.15
6.38,-0.094,0.917,0.074
6.39,-0.393,0.902,-0.222
6.4,-0.217,1.242,-0.008
6.41,-0.075,0.805,0.102
6.42,-0.184,1.028,0.142
6.43,-0.282,0.804,-0.088
6.44,-0.271,1.159,-0.207
6.45,-0.215,1.002,0.08
6.46,-0.079,0.872,0.119
6.47,-0.159,0.955,0.007
6.48,-0.414,0.903,-0.161
6.49,-0.122,1.269,-0.066
6.5,-0.045,0.72,0.065
6.51,-0.182,1.007,0.177
6.52,-0.294,0.857,-0.163
6.53,-0.26,1.073,-0.105
6.54,-0.09,1.106,0.075
6.55,-0.119,0.72,0.13
6.56,-0.289,1.032,0.058
6.57,-0.334,0.966,-0.215
6.58,-0.139,1.143,-0.038
6.59,-0.157,0.742,0.148
6.6,-0.075,0.964,0.093
6.61,-0.414,0.945,-0.161
6.62,-0.291,0.965,-0.057
6.63,-0.078,1.181,0.065
6.64,-0.052,0.646,0.129
6.65,-0.334,1.103,-0.006
6.66,-0.318,0.905,-0.234
6.67,-0.063,1.162,-0.034
6.68,-0.159,0.821,0.187
6.69,-0.141,0.873,0.098
6.7,-0.384,1.042,-0.193
6.71,-0.205,0.961,0.047
6.72,-0.214,1.115,0.096
6.73,-0.113,0.648,0.177
6.74,-0.301,1.198,-0.079
6.75,-0.349,0.839,-0.179
6.76,-0.135,1.106,0.078
6.77,-0.071,0.926,0.147
6.78,-0.14,0.787,-0.002
6.79,-0.393,1.136,-0.183
6.8,-0.091,0.932,-0.081
6.81,-0.182,1.094,0.066
6.82,-0.075,0.67,0.188
6.83,-0.395,1.184,-0.157
6.84,-0.214,0.812,-0.176
6.85,-0.159,1.161,0.097
6.86,-0.107,0.939,0.109
6.87,-0.178,0.737,0.006
6.88,-0.4,1.257,-0.2
6.89,-0.072,0.867,-0.04
6.9,-0.181,1.137,0.111
6.91,-0.152,0.707,0.188
6.92,-0.418,1.074,-0.157
6.93,-0.258,0.875,-0.13
6.94,-0.049,1.141,0.117
6.95,-0.204,0.916,0.095
6.96,-0.198,0.697,0.01
6.97,-0.374,1.31,-0.188
6.98,-0.117,0.784,-0.032
6.99,-0.196,1.117,0.148
7.0,-0.096,0.763,0.122
7.01,-0.445,1.011,-0.213
7.02,-0.206,1.029,-0.05
7.03,0.016,1.08,0.079
7.04,-0.182,0.912,0.104
7.05,-0.265,0.718,0.017
7.06,-0.353,1.335,-0.215
7.07,-0.078,0.784,-0.02
7.08,-0.172,1.111,0.186
7.09,-0.046,0.763,0.031
7.1,-0.478,1.007,-0.183
7.11,-0.074,0.985,-0.029
7.12,-0.166,0.976,0.094
7.13,-0.181,0.899,0.176
7.14,-0.289,0.865,-0.107
7.15,-0.371,1.163,-0.133
7.16,-0.102,0.873,0.114
7.17,-0.106,1.158,0.108
7.18,-0.219,0.631,-0.017
7.19,-0.392,1.217,-0.173
7.2,-0.06,1.012,-0.099
7.21,-0.202,0.855,0.162
7.22,-0.107,1.006,0.18
7.23,-0.389,0.796,-0.177
7.24,-0.358,1.141,-0.146
7.25,0.033,0.922,0.102
7.26,-0.127,1.047,0.102
7.27,-0.265,0.709,0.006
7.28,-0.288,1.212,-0.159
7.29,-0.107,1.026,-0.043
7.3,-0.213,0.821,0.181
7.31,-0.082,1.065,0.102
7.32,-0.39,0.752,-0.226
7.33,-0.258,1.199,-0.043
7.34,0.047,0.931,0.088
7.35,-0.22,0.894,0.101
7.36,-0.29,0.84,0.01
7.37,-0.249,1.139,-0.22
7.38,-0.16,1.052,0.009
7.39,-0.083,0.806,0.238
7.4,-0.136,1.055,0.069
7.41,-0.488,0.796,-0.194
7.42,-0.09,1.226,-0.098
7.43,-0.012,0.89,0.059
7.44,-0.306,0.906,0.187
7.45,-0.218,0.948,-0.103
7.46,-0.193,1.001,-0.168
7.47,-0.245,1.19,0.107
7.48,-0.04,0.663,0.171
7.49,-0.176,1.065,-0.008
7.5,-0.446,0.922,-0.184
7.51,-0.067,1.151,-0.118
7.52,-0.104,0.859,0.125
7.53,-0.225,0.908,0.205
7.54,-0.262,1.048,-0.161
7.55,-0.26,0.883,-0.114
7.56,-0.224,1.243,0.104
7.57,0.016,0.661,0.122
7.58,-0.368,1.065,0.004
7.59,-0.358,0.908,-0.17
7.6,-0.108,1.116,-0.026
7.61,-0.162,0.873,0.126
7.62,-0.133,0.823,0.141
7.63,-0.344,1.125,-0.209
7.64,-0.228,0.799,-0.114
7.65,-0.055,1.287,0.102
7.66,-0.096,0.673,0.159
7.67,-0.379,1.035,0.009
7.68,-0.226,0.967,-0.22
7.69,-0.105,1.056,-0.024
7.7,-0.197,0.98,0.16
7.71,-0.047,0.733,0.054
7.72,-0.458,1.186,-0.185
7.73,-0.079,0.88,-0.022
7.74,-0.162,1.212,0.095
7.75,-0.128,0.653,0.149
7.76,-0.313,1.072,-0.061
7.77,-0.342,0.98,-0.184
7.78,-0.117,0.997,0.081
7.79,-0.092,1.047,0.09
7.8,-0.163,0.657,0.008
7.81,-0.474,1.26,-0.165
7.82,-0.037,0.86,-0.041
7.83,-0.165,1.126,0.11
7.84,-0.146,0.73,0.175
7.85,-0.366,1.026,-0.114
7.86,-0.262,1.031,-0.18
7.87,-0.083,0.983,0.106
7.88,-0.139,1.06,0.102
7.89,-0.177,0.637,0.034
7.9,-0.453,1.316,-0.186
7.91,-0.026,0.871,-0.076
7.92,-0.161,1.065,0.141
7.93,-0.094,0.719,0.121
7.94,-0.51,1.096,-0.161
7.95,-0.228,0.947,-0.089
7.96,0.021,1.047,0.069
7.97,-0.142,0.929,0.105
7.98,-0.334,0.734,0.0
7.99,-0.271,1.285,-0.229
8.0,-0.035,0.822,0.023
8.01,-0.212,1.108,0.206
8.02,-0.062,0.731,0.04
8.03,-0.487,1.1,-0.252
8.04,-0.125,1.029,-0.019
8.05,-0.081,0.932,0.112
8.06,-0.274,0.97,0.156
8.07,-0.233,0.763,-0.092
8.08,-0.288,1.308,-0.161
8.09,-0.2,0.839,0.119
8.1,-0.071,1.046,0.122
8.11,-0.282,0.749,0.008
8.12,-0.418,1.09,-0.149
8.13,-0.088,1.141,-0.061
8.14,-0.208,0.76,0.123
8.15,-0.12,1.009,0.125
8.16,-0.326,0.809,-0.206
8.17,-0.244,1.204,-0.089
8.18,-0.023,0.941,0.103
8.19,-0.145,0.907,0.1
8.2,-0.289,0.859,-0.016
8.21,-0.303,1.095,-0.22
8.22,-0.12,1.096,-0.01
8.23,-0.112,0.778,0.175
8.24,-0.122,1.085,0.063
8.25,-0.49,0.789,-0.197
8.26,-0.114,1.166,-0.016
8.27,-0.139,0.902,0.135
8.28,-0.287,0.843,0.181
8.29,-0.203,1.017,-0.083
8.3,-0.326,0.945,-0.172
8.31,-0.236,1.139,0.126
8.32,0.031,0.792,0.132
8.33,-0.264,1.015,-0.061
8.34,-0.424,0.859,-0.078
8.35,-0.156,1.205,-0.023
8.36,-0.204,0.802,0.063
8.37,-0.079,0.845,0.204
8.38,-0.371,1.094,-0.178
8.39,-0.37,0.839,-0.069
8.4,0.007,1.293,0.035
8.41,-0.087,0.64,0.107
8.42,-0.38,1.031,0.082
8.43,-0.214,0.989,-0.246
8.44,-0.145,1.042,-0.051
8.45,-0.238,0.908,0.204
8.46,-0.042,0.781,0.099
8.47,-0.49,1.136,-0.244
8.48,-0.102,0.813,-0.052
8.49,-0.147,1.267,0.068
8.5,-0.144,0.617,0.155
8.51,-0.325,1.064,-0.017
8.52,-0.294,0.987,-0.219
8.53,-0.141,1.051,0.041
8.54,-0.121,1.08,0.134
8.55,-0.117,0.652,0.059
8.56,-0.465,1.251,-0.175
8.57,-0.034,0.914,-0.091
8.58,-0.19,1.131,0.131
8.59,-0.174,0.7,0.239
8.6,-0.29,1.032,-0.119
8.61,-0.32,0.969,-0.184
8.62,-0.109,1.027,0.11
8.63,-0.103,1.068,0.079
8.64,-0.179,0.646,0.024
8.65,-0.466,1.34,-0.143
8.66,-0.06,0.866,-0.059
8.67,-0.241,1.095,0.148
8.68,-0.126,0.773,0.182
8.69,-0.381,0.953,-0.136
8.7,-0.343,1.083,-0.075
8.71,-0.036,0.986,0.081
8.72,-0.162,0.997,0.097
8.73,-0.273,0.666,0.041
8.74,-0.331,1.339,-0.228
8.75,-0.046,0.832,-0.003
8.76,-0.18,1.191,0.166
8.77,-0.112,0.715,0.152
8.78,-0.509,1.089,-0.174
8.79,-0.153,0.997,-0.09
8.8,-0.053,0.974,0.056
8.81,-0.201,0.991,0.157
8.82,-0.285,0.722,-0.037
8.83,-0.35,1.249,-0.194
8.84,-0.077,0.825,0.035
8.85,-0.143,1.155,0.132
8.86,-0.082,0.717,0.035
8.87,-0.483,1.062,-0.167
8.88,-0.117,1.083,-0.08
8.89,-0.136,0.834,0.123
8.9,-0.237,1.041,0.166
8.91,-0.28,0.782,-0.119
8.92,-0.325,1.201,-0.169
8.93,-0.108,0.909,0.103
8.94,-0.134,1.032,0.176
8.95,-0.202,0.767,-0.001
8.96,-0.396,1.079,-0.157
8.97,-0.122,1.1,-0.068
8.98,-0.1,0.736,0.095
8.99,-0.149,1.085,0.139
9.0,-0.309,0.79,-0.166
9.01,-0.245,1.192,-0.127
9.02,-0.054,0.972,0.067
9.03,-0.114,0.893,0.151
9.04,-0.239,0.879,-0.014
9.05,-0.378,1.047,-0.162
9.06,-0.1,1.176,-0.021
9.07,-0.181,0.748,0.144
9.08,-0.216,1.035,0.106
9.09,-0.284,0.823,-0.205
9.1,-0.286,1.156,-0.071
9.11,-0.04,0.939,0.058
9.12,-0.094,0.781,0.13
9.13,-0.323,1.016,-0.013
9.14,-0.343,0.951,-0.177
9.15,-0.111,1.174,0.025
9.16,-0.145,0.807,0.151
9.17,-0.159,1.028,0.049
9.18,-0.348,0.878,-0.19
9.19,-0.204,1.135,-0.063
9.2,-0.063,0.948,0.075
9.21,-0.137,0.754,0.152
9.22,-0.36,1.129,-0.078
9.23,-0.277,0.859,-0.202
9.24,-0.18,1.189,0.026
9.25,-0.052,0.765,0.155
9.26,-0.173,0.991,-0.015
9.27,-0.422,0.9,-0.178
9.28,-0.116,1.088,-0.039
9.29,-0.098,0.994,0.085
9.3,-0.222,0.691,0.191
9.31,-0.318,1.199,-0.119
9.32,-0.27,0.779,-0.18
9.33,-0.167,1.247,0.12
9.34,-0.065,0.766,0.126
9.35,-0.286,0.925,-0.006
9.36,-0.408,1.066,-0.137
9.37,-0.109,1.013,-0.023
9.38,-0.21,1.018,0.089
9.39,-0.046,0.741,0.163
9.4,-0.434,1.216,-0.149
9.41,-0.329,0.814,-0.092
9.42,-0.01,1.243,0.093
9.43,-0.121,0.732,0.093
9.44,-0.32,0.904,0.009
9.45,-0.278,1.107,-0.22
9.46,-0.151,0.871,0.028
9.47,-0.159,1.126,0.142
9.48,-0.064,0.663,0.071
9.49,-0.481,1.144,-0.186
9.5,-0.139,0.89,-0.029
9.51,-0.068,1.189,0.064
9.52,-0.129,0.758,0.146
9.53,-0.277,0.903,-0.037
9.54,-0.325,1.192,-0.205
9.55,-0.092,0.853,0.071
9.56,-0.08,1.094,0.129
9.57,-0.187,0.661,-0.004
9.58,-0.358,1.168,-0.198
9.59,-0.094,0.903,-0.036
9.6,-0.15,1.09,0.131
9.61,-0.119,0.73,0.18
9.62,-0.439,1.173,-0.173
9.63,-0.302,0.848,-0.144
9.64,0.047,1.184,0.085
9.65,-0.122,0.895,0.096
9.66,-0.283,0.743,0.038
9.67,-0.327,1.292,-0.216
9.68,-0.097,0.797,-0.034
9.69,-0.205,1.093,0.219
9.7,-0.084,0.702,0.095
9.71,-0.479,1.124,-0.208
9.72,-0.14,0.989,-0.027
9.73,-0.166,1.04,0.099
9.74,-0.191,0.872,0.158
9.75,-0.22,0.796,-0.103
9.76,-0.308,1.269,-0.193
9.77,-0.137,0.863,0.054
9.78,-0.124,1.169,0.065
9.79,-0.059,0.659,0.049
9.8,-0.471,1.152,-0.177
9.81,-0.1,1.049,-0.053
9.82,-0.22,0.864,0.139
9.83,-0.204,0.967,0.191
9.84,-0.31,0.78,-0.108
9.85,-0.365,1.178,-0.17
9.86,-0.07,0.909,0.154
9.87,-0.154,1.125,0.106
9.88,-0.174,0.694,0.032
9.89,-0.413,1.122,-0.156
9.9,-0.108,1.163,-0.087
9.91,-0.129,0.753,0.141
9.92,-0.183,1.055,0.153
9.93,-0.276,0.786,-0.156
9.94,-0.35,1.205,-0.128
9.95,-0.06,0.941,0.127
9.96,-0.11,0.973,0.105
9.97,-0.271,0.759,-0.019
9.98,-0.335,1.075,-0.123
9.99,-0.11,1.165,-0.069
10.0,-0.256,0.703,0.17
10.01,-0.047,1.127,0.116
10.02,-0.399,0.778,-0.233
10.03,-0.272,1.121,-0.046
10.04,0.026,1.042,0.047
10.05,-0.195,0.796,0.113
10.06,-0.246,0.942,0.041
10.07,-0.348,1.041,-0.205
10.08,-0.166,1.11,-0.045
10.09,-0.027,0.798,0.188
10.1,-0.214,1.045,0.071
10.11,-0.436,0.794,-0.172
10.12,-0.146,1.219,-0.059
10.13,-0.095,0.911,0.03
10.14,-0.125,0.743,0.178
10.15,-0.329,1.103,-0.058
10.16,-0.312,0.872,-0.195
10.17,-0.164,1.2,0.043
10.18,-0.066,0.762,0.185
10.19,-0.218,1.021,0.032
10.2,-0.34,0.86,-0.193
10.21,-0.157,1.102,-0.056
10.22,-0.377,0.885,-0.163
10.23,-0.115,1.157,-0.021
10.24,-0.173,0.836,0.139
10.25,-0.119,0.866,0.154
10.26,-0.376,1.089,-0.206
10.27,-0.186,0.852,-0.08
10.28,-0.095,1.317,0.145
10.29,-0.153,0.632,0.135
10.3,-0.29,1.09,-0.021
10.31,-0.252,0.9,-0.22
10.32,-0.089,1.174,-0.005
10.33,-0.12,0.801,0.204
10.34,-0.128,0.918,0.051
10.35,-0.423,1.038,-0.205
10.36,-0.009,0.954,-0.085
10.37,-0.185,1.068,0.095
10.38,-0.124,0.68,0.209
10.39,-0.291,1.146,-0.136
10.4,-0.343,0.786,-0.154
10.41,-0.112,1.224,0.107
10.42,-0.09,0.894,0.106
10.43,-0.229,0.817,0.019
10.44,-0.352,1.153,-0.19
10.45,-0.027,0.988,-0.052
10.46,-0.198,1.094,0.085
10.47,-0.065,0.679,0.184
10.48,-0.368,1.173,-0.149
10.49,-0.318,0.823,-0.097
10.5,-0.139,1.191,0.136
10.51,-0.165,0.85,0.084
10.52,-0.26,0.764,0.031
10.53,-0.374,1.273,-0.171
10.54,-0.078,0.842,-0.006
10.55,-0.201,1.084,0.117
10.56,0.0,0.73,0.113
10.57,-0.472,1.14,-0.185
10.58,-0.272,0.856,-0.056
10.59,0.039,1.154,0.064
10.6,-0.215,0.878,0.068
10.61,-0.249,0.783,0.034
10.62,-0.312,1.293,-0.224
10.63,-0.202,0.8,0.015
10.64,-0.018,1.158,0.152
10.65,-0.045,0.695,0.012
10.66,-0.581,1.125,-0.158
10.67,0.031,0.998,-0.067
10.68,-0.154,0.959,0.07
10.69,-0.24,0.97,0.221
10.7,-0.277,0.794,-0.069
10.71,-0.351,1.214,-0.157
10.72,-0.145,0.844,0.141
10.73,-0.081,1.114,0.092
10.74,-0.168,0.683,-0.006
10.75,-0.406,1.155,-0.154
10.76,-0.074,1.04,-0.077
10.77,-0.236,0.838,0.131
10.78,-0.098,1.032,0.158
10.79,-0.33,0.756,-0.17
10.8,-0.424,1.234,-0.057
10.81,0.041,0.906,0.057
10.82,-0.178,0.947,0.124
10.83,-0.348,0.776,0.072
10.84,-0.281,1.142,-0.22
10.85,-0.075,1.052,-0.075
10.86,-0.187,0.807,0.176
10.87,-0.021,1.024,0.032
10.88,-0.374,0.788,-0.196
10.89,-0.263,1.263,-0.035
10.9,-0.015,0.941,0.065
10.91,-0.211,0.859,0.11
10.92,-0.219,0.932,-0.023
10.93,-0.333,1.037,-0.211
10.94,-0.132,1.072,-0.019
10.95,-0.073,0.822,0.227
10.96,-0.178,1.008,0.039
10.97,-0.434,0.773,-0.17
10.98,-0.064,1.25,-0.084
10.99,-0.13,0.898,0.097
11.0,-0.214,0.833,0.188
11.01,-0.219,1.054,-0.067
11.02,-0.333,0.91,-0.179
11.03,-0.236,1.169,0.091
11.04,-0.013,0.761,0.127
11.05,-0.2,0.985,-0.027
11.06,-0.396,0.903,-0.15
11.07,-0.062,1.155,-0.055
11.08,-0.213,0.851,0.063
11.09,-0.078,0.805,0.203
11.1,-0.355,1.141,-0.143
11.11,-0.366,0.809,-0.136
11.12,0.042,1.267,0.067
11.13,-0.146,0.663,0.123
11.14,-0.341,1.024,0.071
11.15,-0.212,0.955,-0.2
11.16,-0.171,1.122,-0.065
11.17,-0.134,0.817,0.157
11.18,-0.02,0.94,0.078
11.19,-0.432,1.009,-0.192
11.2,-0.26,0.902,-0.046
11.21,-0.023,1.271,0.077
11.22,-0.211,0.571,0.141
11.23,-0.335,1.098,0.048
11.24,-0.233,0.972,-0.23
11.25,-0.204,1.069,-0.013
11.26,-0.128,0.884,0.199
11.27,-0.07,0.856,0.026
11.28,-0.5,1.081,-0.218
11.29,-0.042,0.908,-0.052
11.3,-0.166,1.223,0.078
11.31,-0.229,0.587,0.198
11.32,-0.222,1.128,-0.056
11.33,-0.296,0.889,-0.208
11.34,-0.237,1.052,0.138
11.35,-0.034,1.022,0.113
11.36,-0.143,0.736,0.039
11.37,-0.491,1.174,-0.167
11.38,-0.019,0.885,-0.103
11.39,-0.161,1.166,0.082
11.4,-0.168,0.702,0.206
11.41,-0.332,1.099,-0.135
11.42,-0.278,0.891,-0.158
11.43,-0.138,1.118,0.156
11.44,-0.11,1.007,0.088
11.45,-0.179,0.678,0.013
11.46,-0.503,1.287,-0.144
11.47,-0.064,0.85,-0.096
11.48,-0.185,1.095,0.072
11.49,-0.057,0.757,0.2
11.5,-0.415,1.076,-0.156
11.51,-0.251,0.913,-0.175
11.52,-0.021,1.105,0.098
11.53,-0.117,0.969,0.111
11.54,-0.269,0.677,0.003
11.55,-0.332,1.323,-0.221
11.56,-0.089,0.805,-0.051
11.57,-0.237,1.084,0.166
11.58,-0.059,0.796,0.107
11.59,-0.413,0.995,-0.198
11.6,-0.216,1.096,-0.031
11.61,-0.061,0.97,0.038
11.62,-0.146,0.946,0.152
11.63,-0.246,0.71,0.043
11.64,-0.385,1.356,-0.231
11.65,-0.119,0.788,-0.023
11.66,-0.135,1.12,0.189
11.67,-0.15,0.779,0.094
11.68,-0.378,0.939,-0.197
11.69,-0.155,1.211,-0.042
11.7,-0.112,0.839,0.093
11.71,-0.193,1.004,0.146
11.72,-0.244,0.758,-0.052
11.73,-0.354,1.224,-0.197
11.74,-0.082,0.924,0.008
11.75,-0.168,1.064,0.164
11.76,-0.115,0.818,0.05
11.77,-0.409,0.91,-0.121
11.78,-0.145,1.27,-0.064
11.79,-0.099,0.755,0.103
11.8,-0.224,1.028,0.184
11.81,-0.206,0.777,-0.11
11.82,-0.283,1.15,-0.164
11.83,-0.168,1.038,0.08
11.84,-0.092,0.939,0.132
11.85,-0.141,0.893,0.003
11.86,-0.393,0.933,-0.091
11.87,-0.111,1.272,-0.094
11.88,-0.132,0.689,0.053
11.89,-0.118,1.062,0.191
11.9,-0.332,0.852,-0.189
11.91,-0.31,1.012,-0.13
11.92,-0.069,1.137,0.122
11.93,-0.198,0.88,0.167
11.94,-0.273,0.854,0.032
11.95,-0.257,1.06,-0.169
11.96,-0.195,1.112,-0.034
11.97,-0.149,0.73,0.181
11.98,-0.117,1.111,0.113
11.99,-0.337,0.758,-0.222
12.0,-0.292,1.176,-0.034
12.01,-0.09,0.996,0.05
12.02,-0.161,0.785,0.12
12.03,-0.243,0.99,0.05
12.04,-0.32,0.997,-0.215
12.05,-0.143,1.099,-0.04
12.06,-0.101,0.754,0.197
12.07,-0.099,1.09,0.07
12.08,-0.404,0.812,-0.188
12.09,-0.291,1.092,-0.033
12.1,-0.069,1.052,0.047
12.11,-0.198,0.741,0.143
12.12,-0.257,1.079,0.019
12.13,-0.302,0.956,-0.194
12.14,-0.218,1.162,-0.008
12.15,-0.069,0.796,0.148
12.16,-0.077,0.983,0.04
12.17,-0.398,0.874,-0.162
12.18,-0.112,1.115,-0.043
12.19,-0.153,0.995,0.08
12.2,-0.166,0.652,0.175
12.21,-0.28,1.172,-0.054
12.22,-0.291,0.852,-0.158
12.23,-0.23,1.193,0.047
12.24,-0.029,0.822,0.159
12.25,-0.116,0.914,-0.005
12.26,-0.449,0.973,-0.161
12.27,-0.012,1.05,-0.088
12.28,-0.156,1.069,0.037
12.29,-0.188,0.641,0.272
12.3,-0.264,1.211,-0.08
12.31,-0.309,0.78,-0.206
12.32,-0.217,1.186,0.094
12.33,-0.05,0.85,0.11
12.34,-0.19,0.885,-0.009
12.35,-0.387,1.06,-0.144
12.36,-0.012,0.938,-0.127
12.37,-0.159,1.087,0.068
12.38,-0.098,0.683,0.229
12.39,-0.393,1.22,-0.125
12.4,-0.242,0.738,-0.191
12.41,-0.246,1.214,0.114
12.42,-0.0,0.891,0.126
12.43,-0.19,0.799,-0.022
12.44,-0.446,1.169,-0.134
12.45,-0.085,0.937,-0.068
12.46,-0.258,1.11,0.068
12.47,-0.05,0.666,0.219
12.48,-0.428,1.192,-0.135
12.49,-0.244,0.809,-0.17
12.5,-0.213,1.207,0.129
12.51,-0.081,0.905,0.081
12.52,-0.187,0.73,0.01
12.53,-0.424,1.281,-0.143
12.54,-0.141,0.86,-0.025
12.55,-0.297,1.088,0.084
12.56,-0.083,0.69,0.206
12.57,-0.371,1.133,-0.195
12.58,-0.287,0.829,-0.111
12.59,-0.133,1.185,0.1
12.6,-0.101,0.973,0.105
12.61,-0.219,0.686,-0.028
12.62,-0.427,1.305,-0.156
12.63,-0.032,0.872,-0.065
12.64,-0.264,1.125,0.146
12.65,-0.078,0.708,0.186
12.66,-0.339,1.101,-0.181
12.67,-0.272,0.919,-0.166
12.68,-0.106,1.068,0.13
12.69,-0.112,1.036,0.109
12.7,-0.247,0.645,-0.025
12.71,-0.366,1.312,-0.155
12.72,-0.09,0.862,-0.032
12.73,-0.292,1.081,0.171
12.74,-0.021,0.765,0.138
12.75,-0.486,1.133,-0.192
12.76,-0.197,0.923,-0.037
12.77,-0.082,1.117,0.052
12.78,-0.128,0.878,0.127
12.79,-0.301,0.8,0.004
12.8,-0.378,1.244,-0.212
12.81,-0.07,0.754,0.003
12.82,-0.136,1.242,0.159
12.83,-0.083,0.667,0.092
12.84,-0.458,1.063,-0.165
12.85,-0.145,1.009,-0.064
12.86,-0.069,0.982,0.061
12.87,-0.161,0.959,0.151
12.88,-0.282,0.778,-0.061
12.89,-0.375,1.208,-0.194
12.9,-0.063,0.844,0.029
12.91,-0.169,1.197,0.204
12.92,-0.081,0.689,0.045
12.93,-0.45,1.053,-0.178
12.94,-0.079,1.108,-0.056
12.95,-0.119,0.882,0.06
12.96,-0.162,0.952,0.205
12.97,-0.24,0.792,-0.118
12.98,-0.342,1.167,-0.186
12.99,-0.166,0.858,0.118
13.0,-0.13,1.135,0.12
13.01,-0.134,0.675,0.038
13.02,-0.376,1.059,-0.124
13.03,-0.099,1.216,-0.105
13.04,-0.155,0.785,0.074
13.05,-0.184,1.011,0.225
13.06,-0.342,0.768,-0.144
13.07,-0.297,1.158,-0.182
13.08,-0.144,0.94,0.1
13.09,-0.116,1.006,0.081
13.1,-0.142,0.792,0.045
13.11,-0.395,1.061,-0.144
13.12,-0.207,1.223,-0.067
13.13,-0.139,0.721,0.077
13.14,-0.15,1.051,0.189
13.15,-0.283,0.796,-0.102
13.16,-0.292,1.133,-0.147
13.17,-0.168,0.967,0.096
13.18,-0.098,0.916,0.135
13.19,-0.139,0.885,-0.006
13.2,-0.435,0.943,-0.113
13.21,-0.14,1.241,-0.069
13.22,-0.073,0.702,0.091
13.23,-0.198,1.044,0.182
13.24,-0.291,0.845,-0.168
13.25,-0.234,1.077,-0.147
13.26,-0.128,1.084,0.09
13.27,-0.056,0.845,0.118
13.28,-0.252,0.974,-0.003
13.29,-0.353,0.921,-0.123
13.3,-0.159,1.26,-0.027
13.31,-0.151,0.66,0.077
13.32,-0.018,1.004,0.133
13.33,-0.381,0.888,-0.163
13.34,-0.358,1.042,-0.047
13.35,-0.027,1.17,0.011
13.36,-0.077,0.69,0.138
13.37,-0.317,1.072,0.046
13.38,-0.306,0.92,-0.234
13.39,-0.185,1.172,-0.01
13.4,-0.158,0.735,0.195
13.41,-0.114,1.015,0.109
13.42,-0.333,0.917,-0.203
13.43,-0.263,0.931,-0.044
13.44,-0.063,1.224,0.022
13.45,-0.092,0.69,0.122
13.46,-0.276,1.085,-0.011
13.47,-0.323,0.917,-0.166
13.48,-0.135,1.171,-0.009
13.49,-0.225,0.793,0.19
13.5,-0.159,0.909,0.151
13.51,-0.318,1.018,-0.175
13.52,-0.267,0.963,-0.071
13.53,-0.122,1.229,-0.007
13.54,-0.071,0.571,0.183
13.55,-0.295,1.123,0.02
13.56,-0.322,0.859,-0.218
13.57,-0.09,1.154,-0.013
13.58,-0.106,0.79,0.201
13.59,-0.181,0.968,0.092
13.6,-0.304,0.887,-0.204
13.61,-0.202,1.04,-0.038
13.62,-0.1,1.111,0.06
13.63,-0.115,0.691,0.109
13.64,-0.374,1.134,-0.036
13.65,-0.236,0.853,-0.189
13.66,-0.152,1.204,0.036
13.67,-0.131,0.799,0.154
13.68,-0.109,0.939,0.058
13.69,-0.362,1.004,-0.193
13.7,-0.145,0.947,-0.059
13.71,-0.131,1.103,0.027
13.72,-0.13,0.631,0.157
13.73,-0.368,1.209,-0.031
13.74,-0.335,0.821,-0.18
13.75,-0.141,1.13,0.062
13.76,-0.112,0.929,0.15
13.77,-0.135,0.845,0.041
13.78,-0.43,1.061,-0.166
13.79,-0.043,0.971,-0.072
13.8,-0.107,1.165,0.032
13.81,-0.153,0.588,0.171
13.82,-0.259,1.185,-0.086
13.83,-0.277,0.875,-0.168
13.84,-0.244,1.105,0.062
13.85,-0.039,0.965,0.143
13.86,-0.129,0.777,0.028
13.87,-0.438,1.179,-0.175
13.88,-0.106,0.921,-0.023
13.89,-0.187,1.146,0.08
13.9,-0.184,0.664,0.203
13.91,-0.26,1.131,-0.13
13.92,-0.292,0.86,-0.186
13.93,-0.182,1.091,0.127
13.94,-0.045,1.056,0.097
13.95,-0.191,0.695,0.038
13.96,-0.397,1.204,-0.19
13.97,-0.065,0.926,-0.084
13.98,-0.175,1.132,0.038
13.99,-0.09,0.665,0.174
14.0,-0.314,1.091,-0.136
14.01,-0.302,0.924,-0.181
14.02,-0.113,1.053,0.138
14.03,-0.09,1.053,0.117
14.04,-0.219,0.651,0.014
14.05,-0.457,1.308,-0.142
14.06,-0.029,0.861,-0.071
14.07,-0.239,1.133,0.124
14.08,-0.105,0.767,0.206
14.09,-0.364,1.018,-0.156
14.1,-0.26,0.942,-0.14
14.11,-0.084,1.035,0.088
14.12,-0.137,1.059,0.128
14.13,-0.195,0.632,0.044
14.14,-0.412,1.305,-0.194
14.15,-0.104,0.859,-0.058
14.16,-0.229,1.077,0.141
14.17,-0.099,0.775,0.159
14.18,-0.325,0.983,-0.182
14.19,-0.283,1.009,-0.167
14.2,-0.048,1.005,0.094
14.21,-0.143,1.14,0.15
14.22,-0.234,0.609,0.052
14.23,-0.406,1.255,-0.176
14.24,-0.097,0.946,-0.066
14.25,-0.267,0.976,0.095
14.26,-0.122,0.829,0.177
14.27,-0.363,0.9,-0.16
14.28,-0.254,1.109,-0.123
14.29,-0.087,0.91,0.089
14.3,-0.124,1.061,0.124
14.31,-0.17,0.643,0.001
14.32,-0.391,1.269,-0.117
14.33,-0.085,0.98,-0.048
14.34,-0.234,0.942,0.103
14.35,-0.13,0.946,0.166
14.36,-0.341,0.844,-0.162
14.37,-0.229,1.053,-0.067
14.38,0.007,0.968,0.072
14.39,-0.156,0.986,0.11
14.4,-0.299,0.68,0.008
14.41,-0.274,1.299,-0.202
14.42,-0.11,0.863,0.017
14.43,-0.278,1.025,0.201
14.44,-0.007,0.892,0.086
14.45,-0.512,0.939,-0.207
14.46,-0.126,1.118,-0.047
14.47,-0.112,0.935,0.086
14.48,-0.15,0.975,0.138
14.49,-0.208,0.772,-0.059
14.5,-0.383,1.24,-0.192
14.51,-0.085,0.881,-0.03
14.52,-0.132,1.007,0.144
14.53,-0.15,0.898,0.04
14.54,-0.396,0.893,-0.175
14.55,-0.26,1.232,0.023
14.56,-0.093,0.78,0.089
14.57,-0.141,1.016,0.159
14.58,-0.266,0.828,-0.056
14.59,-0.367,1.144,-0.16
14.6,-0.127,0.939,0.023
14.61,-0.089,0.974,0.148
14.62,-0.151,0.942,0.036
14.63,-0.399,0.871,-0.178
14.64,-0.123,1.286,-0.037
14.65,-0.154,0.756,0.102
14.66,-0.119,0.966,0.156
14.67,-0.345,0.864,-0.087
14.68,-0.286,1.045,-0.193
14.69,-0.108,1.07,0.037
14.7,-0.076,0.854,0.161
14.71,-0.243,1.004,0.02
14.72,-0.427,0.831,-0.157
14.73,-0.095,1.27,-0.063
14.74,-0.101,0.728,0.118
14.75,-0.207,0.974,0.179
14.76,-0.272,0.933,-0.133
14.77,-0.298,0.995,-0.125
14.78,-0.129,1.11,0.12
14.79,-0.043,0.7,0.142
14.8,-0.333,1.083,-0.001
14.81,-0.305,0.881,-0.174
14.82,-0.15,1.191,-0.007
14.83,-0.155,0.766,0.144
14.84,-0.169,0.977,0.153
14.85,-0.301,0.963,-0.238
14.86,-0.255,0.929,-0.064
14.87,-0.132,1.214,0.11
14.88,-0.096,0.646,0.158
14.89,-0.322,1.079,-0.026
14.9,-0.312,0.898,-0.185
14.91,-0.11,1.161,0.006
14.92,-0.21,0.831,0.142
14.93,-0.074,0.848,0.102
14.94,-0.369,1.103,-0.225
14.95,-0.179,0.873,-0.059
14.96,-0.16,1.202,0.091
14.97,-0.097,0.636,0.157
14.98,-0.374,1.141,-0.006
14.99,-0.322,0.857,-0.214
15.0,-0.114,1.059,-0.019
15.01,-0.14,0.983,0.165
15.02,-0.116,0.767,0.075
15.03,-0.44,1.138,-0.192
15.04,-0.087,0.886,-0.075
15.05,-0.191,1.235,0.086
15.06,-0.069,0.613,0.175
15.07,-0.382,1.111,-0.043
15.08,-0.27,0.903,-0.22
15.09,-0.125,1.099,0.049
15.1,-0.139,1.013,0.114
15.11,-0.123,0.714,0.049
15.12,-0.431,1.222,-0.196
15.13,-0.118,0.859,-0.052
15.14,-0.121,1.206,0.08
15.15,-0.102,0.728,0.182
15.16,-0.319,1.024,-0.124
15.17,-0.283,0.915,-0.112
15.18,-0.188,1.081,0.099
15.19,-0.138,0.824,0.134
15.2,-0.242,0.824,0.057
15.21,-0.372,1.221,-0.228
15.22,-0.148,0.818,-0.022
15.23,-0.25,1.121,0.174
15.24,-0.059,0.682,0.127
15.25,-0.439,1.124,-0.162
15.26,-0.257,0.848,-0.124
15.27,-0.075,1.156,0.015
15.28,-0.132,0.884,0.141
15.29,-0.186,0.756,0.013
15.3,-0.436,1.303,-0.181
15.31,-0.047,0.814,-0.021
15.32,-0.223,1.162,0.17
15.33,-0.095,0.702,0.161
15.34,-0.422,1.08,-0.178
15.35,-0.267,0.965,-0.062
15.36,-0.113,1.053,0.065
15.37,-0.123,0.899,0.106
15.38,-0.265,0.731,-0.001
15.39,-0.423,1.321,-0.195
15.4,-0.031,0.813,-0.006
15.41,-0.274,1.176,0.146
15.42,-0.0,0.702,0.135
15.43,-0.45,1.069,-0.179
15.44,-0.226,1.019,-0.062
15.45,-0.086,0.999,0.061
15.46,-0.15,1.012,0.133
15.47,-0.253,0.71,-0.038
15.48,-0.339,1.289,-0.189
15.49,-0.052,0.84,-0.019
15.5,-0.187,1.159,0.156
15.51,-0.046,0.769,0.053
15.52,-0.444,0.952,-0.231
15.53,-0.132,1.104,-0.06
15.54,-0.048,0.939,0.025
15.55,-0.183,0.962,0.134
15.56,-0.241,0.766,-0.038
15.57,-0.437,1.286,-0.181
15.58,-0.077,0.83,0.042
15.59,-0.176,1.132,0.166
15.6,-0.104,0.791,0.047
15.61,-0.386,0.958,-0.149
15.62,-0.211,1.218,-0.049
15.63,-0.087,0.775,0.078
15.64,-0.183,1.01,0.149
15.65,-0.247,0.789,-0.084
15.66,-0.35,1.178,-0.139
15.67,-0.188,0.921,0.114
15.68,-0.109,1.025,0.135
15.69,-0.111,0.875,-0.004
15.7,-0.456,0.931,-0.127
15.71,-0.086,1.239,-0.12
15.72,-0.077,0.75,0.074
15.73,-0.196,1.011,0.176
15.74,-0.251,0.83,-0.115
15.75,-0.388,1.095,-0.16
15.76,-0.08,1.02,0.09
15.77,-0.098,0.923,0.142
15.78,-0.215,0.919,0.018
15.79,-0.376,0.908,-0.157
15.8,-0.144,1.266,-0.044
15.81,-0.081,0.729,0.072
15.82,-0.138,1.022,0.191
15.83,-0.277,0.891,-0.158
15.84,-0.281,1.005,-0.157
15.85,-0.147,1.143,0.12
15.86,-0.122,0.853,0.139
15.87,-0.23,1.032,0.01
15.88,-0.393,0.877,-0.131
15.89,-0.13,1.256,-0.072
15.9,-0.162,0.672,0.111
15.91,-0.142,0.976,0.19
15.92,-0.331,0.949,-0.173
15.93,-0.271,0.937,-0.146
15.94,-0.083,1.244,0.094
15.95,-0.097,0.743,0.083
15.96,-0.344,1.041,0.025
15.97,-0.274,0.923,-0.13
15.98,-0.241,1.185,-0.03
15.99,-0.236,0.719,0.203
16.0,-0.103,1.091,0.085
16.01,-0.428,0.815,-0.2
16.02,-0.211,1.079,-0.018
16.03,-0.021,1.105,0.047
16.04,-0.225,0.723,0.161
16.05,-0.295,1.09,0.042
16.06,-0.297,0.905,-0.248
16.07,-0.25,1.114,-0.021
16.08,-0.12,0.841,0.188
16.09,-0.074,1.006,0.045
16.1,-0.449,0.904,-0.191
16.11,-0.097,1.034,-0.053
16.12,-0.111,1.138,0.043
16.13,-0.174,0.626,0.164
16.14,-0.279,1.134,0.006
16.15,-0.292,0.876,-0.247
16.16,-0.203,1.174,-0.004
16.17,-0.089,0.868,0.137
16.18,-0.097,0.925,0.067
16.19,-0.443,0.982,-0.158
16.2,-0.073,0.977,-0.052
16.21,-0.121,1.146,0.026
16.22,-0.082,0.622,0.161
16.23,-0.326,1.152,-0.027
16.24,-0.342,0.849,-0.206
16.25,-0.137,1.171,-0.009
16.26,-0.11,0.91,0.134
16.27,-0.134,0.841,0.081
16.28,-0.41,1.088,-0.182
16.29,-0.178,0.922,-0.03
16.3,-0.099,1.17,0.018
16.31,-0.108,0.636,0.149
16.32,-0.341,1.162,-0.064
16.33,-0.26,0.87,-0.218
16.34,-0.135,1.105,0.025
16.35,-0.084,0.927,0.15
16.36,-0.108,0.812,0.041
16.37,-0.426,1.149,-0.186
16.38,-0.147,0.871,-0.004
16.39,-0.146,1.211,0.075
16.4,-0.158,0.619,0.183
16.41,-0.321,1.148,-0.048
16.42,-0.298,0.914,-0.187
16.43,-0.197,1.057,0.064
16.44,-0.029,0.983,0.115
16.45,-0.193,0.717,0.035
16.46,-0.502,1.198,-0.126
16.47,-0.069,0.872,-0.064
16.48,-0.179,1.19,0.059
16.49,-0.107,0.717,0.205
16.5,-0.361,1.074,-0.119
16.51,-0.201,0.895,-0.188
16.52,-0.141,1.101,0.116
16.53,-0.119,0.976,0.105
16.54,-0.154,0.666,0.012
16.55,-0.434,1.311,-0.17
16.56,-0.187,0.846,-0.037
16.57,-0.143,1.089,0.11
16.58,-0.134,0.779,0.196
16.59,-0.333,1.01,-0.149
16.6,-0.195,0.999,-0.188
16.61,-0.092,1.03,0.101
16.62,-0.123,1.018,0.129
16.63,-0.151,0.646,0.008
16.64,-0.456,1.341,-0.171
16.65,-0.07,0.839,-0.064
16.66,-0.244,1.096,0.135
16.67,-0.112,0.779,0.15
16.68,-0.388,0.914,-0.171
16.69,-0.178,1.075,-0.179
16.7,-0.029,1.017,0.076
16.71,-0.21,1.01,0.134
16.72,-0.161,0.639,0.047
16.73,-0.398,1.38,-0.185
16.74,-0.176,0.857,-0.042
16.75,-0.219,1.011,0.174
16.76,-0.063,0.887,0.074
16.77,-0.411,0.869,-0.135
16.78,-0.247,1.109,-0.099
16.79,0.03,0.948,0.022
16.8,-0.158,1.01,0.108
16.81,-0.177,0.651,0.037
16.82,-0.327,1.376,-0.207
16.83,-0.181,0.79,-0.022
16.84,-0.128,1.092,0.174
16.85,-0.183,0.793,0.115
16.86,-0.458,0.945,-0.18
16.87,-0.224,1.129,-0.056
16.88,-0.035,0.942,0.043
16.89,-0.194,0.956,0.093
16.9,-0.215,0.731,-0.04
16.91,-0.308,1.307,-0.208
16.92,-0.116,0.852,-0.021
16.93,-0.125,0.991,0.157
16.94,-0.071,0.866,0.057
16.95,-0.498,0.953,-0.19
16.96,-0.239,1.146,-0.044
16.97,-0.032,0.911,0.068
16.98,-0.2,0.975,0.138
16.99,-0.237,0.719,-0.037
17.0,-0.279,1.263,-0.193
17.01,-0.138,0.909,-0.037
17.02,-0.085,1.0,0.191
17.03,-0.138,0.895,0.056
17.04,-0.493,0.875,-0.162
17.05,-0.095,1.23,-0.059
17.06,-0.13,0.792,0.088
17.07,-0.221,1.015,0.191
17.08,-0.178,0.789,-0.127
17.09,-0.333,1.083,-0.134
17.1,-0.13,0.98,0.092
17.11,-0.096,0.954,0.139
17.12,-0.229,0.928,0.028
17.13,-0.381,0.89,-0.137
17.14,-0.117,1.255,-0.11
17.15,-0.136,0.735,0.073
17.16,-0.108,1.011,0.185
17.17,-0.344,0.876,-0.114
17.18,-0.254,1.01,-0.11
17.19,-0.132,1.083,0.075
17.2,-0.155,0.78,0.155
17.21,-0.204,0.996,0.038
17.22,-0.364,0.931,-0.198
17.23,-0.212,1.23,-0.07
17.24,-0.037,0.76,0.131
17.25,-0.184,1.002,0.15
17.26,-0.291,0.89,-0.149
17.27,-0.232,0.981,-0.133
17.28,-0.141,1.185,0.061
17.29,-0.105,0.741,0.115
17.3,-0.208,1.013,0.009
17.31,-0.323,0.928,-0.185
17.32,-0.16,1.219,-0.051
17.33,-0.164,0.736,0.139
17.34,-0.113,0.962,0.175
17.35,-0.42,0.948,-0.129
17.36,-0.209,0.898,-0.113
17.37,-0.123,1.271,0.103
17.38,-0.127,0.615,0.112
17.39,-0.29,1.05,0.015
17.4,-0.324,0.93,-0.165
17.41,-0.135,1.166,-0.028
17.42,-0.194,0.813,0.144
17.43,-0.046,0.878,0.096
17.44,-0.393,1.062,-0.198
17.45,-0.24,0.87,-0.031
17.46,-0.133,1.272,0.079
17.47,-0.108,0.607,0.14
17.48,-0.29,1.112,0.016
17.49,-0.273,0.953,-0.217
17.5,-0.172,1.059,-0.022
17.51,-0.144,0.941,0.169
17.52,-0.122,0.831,0.093
17.53,-0.456,1.098,-0.163
17.54,-0.192,0.848,-0.04
17.55,-0.142,1.22,0.104
17.56,-0.064,0.614,0.145
17.57,-0.354,1.09,-0.067
17.58,-0.247,0.954,-0.193
17.59,-0.133,1.052,0.005
17.6,-0.187,1.002,0.165
17.61,-0.105,0.744,0.055
17.62,-0.398,1.199,-0.182
17.63,-0.174,0.942,-0.06
17.64,-0.12,1.137,0.08
17.65,-0.111,0.641,0.131
17.66,-0.414,1.145,-0.098
17.67,-0.224,0.852,-0.176
17.68,-0.169,1.157,0.07
17.69,-0.128,0.862,0.167
17.7,-0.172,0.821,0.085
17.71,-0.486,1.152,-0.235
17.72,-0.079,0.867,-0.039
17.73,-0.152,1.185,0.137
17.74,-0.156,0.685,0.122
17.75,-0.344,1.105,-0.171
17.76,-0.134,0.918,-0.163
17.77,-0.15,1.141,0.122
17.78,-0.119,0.9,0.158
17.79,-0.208,0.781,-0.003
17.8,-0.422,1.234,-0.182
17.81,-0.157,0.804,0.01
17.82,-0.168,1.179,0.142
17.83,-0.123,0.709,0.098
17.84,-0.436,1.015,-0.163
17.85,-0.113,1.017,-0.124
17.86,-0.103,1.119,0.017
17.87,-0.116,0.855,0.127
17.88,-0.137,0.727,-0.008
17.89,-0.398,1.326,-0.187
17.9,-0.122,0.798,0.004
17.91,-0.173,1.142,0.132
17.92,-0.076,0.754,0.105
17.93,-0.449,1.028,-0.158
17.94,-0.249,1.065,-0.058
17.95,-0.081,0.989,0.072
17.96,-0.15,0.958,0.113
17.97,-0.224,0.731,-0.003
17.98,-0.411,1.302,-0.175
17.99,-0.138,0.793,-0.007
18.0,-0.062,1.138,0.131
18.01,-0.189,0.769,0.063
18.02,-0.439,0.977,-0.161
18.03,-0.125,1.165,-0.097
18.04,-0.148,0.84,0.103
18.05,-0.161,0.981,0.174
18.06,-0.259,0.775,-0.049
18.07,-0.359,1.192,-0.196
18.08,-0.175,0.888,0.089
18.09,-0.091,1.09,0.124
18.1,-0.153,0.834,0.012
18.11,-0.461,0.92,-0.154
18.12,-0.084,1.219,-0.075
18.13,-0.096,0.809,0.083
18.14,-0.185,0.99,0.186
18.15,-0.225,0.781,-0.074
18.16,-0.361,1.15,-0.118
18.17,-0.158,0.923,0.064
18.18,-0.046,0.977,0.153
18.19,-0.226,0.884,-0.031
18.2,-0.456,0.86,-0.12
18.21,-0.03,1.25,-0.091
18.22,-0.197,0.727,0.087
18.23,-0.155,1.013,0.179
18.24,-0.254,0.858,-0.163
18.25,-0.307,1.088,-0.119
18.26,-0.168,1.07,0.112
18.27,-0.042,0.853,0.117
18.28,-0.291,0.972,-0.01
18.29,-0.408,0.928,-0.13
18.3,-0.081,1.234,-0.015
18.31,-0.215,0.724,0.132
18.32,-0.101,1.01,0.166
18.33,-0.282,0.915,-0.218
18.34,-0.291,1.036,-0.097
18.35,-0.049,1.131,0.044
18.36,-0.076,0.691,0.106
18.37,-0.293,1.073,0.021
18.38,-0.329,0.944,-0.195
18.39,-0.115,1.134,-0.053
18.4,-0.187,0.763,0.167
18.41,-0.093,0.957,0.116
18.42,-0.359,0.984,-0.174
18.43,-0.275,0.955,-0.059
18.44,-0.061,1.183,0.054
18.45,-0.137,0.777,0.117
18.46,-0.355,1.048,-0.047
18.47,-0.261,0.871,-0.193
18.48,-0.17,1.197,0.011
18.49,-0.071,0.775,0.193
18.5,-0.198,1.029,0.051
18.51,-0.366,0.863,-0.192
18.52,-0.154,1.121,-0.047
18.53,-0.095,1.015,0.065
18.54,-0.204,0.727,0.166
18.55,-0.321,1.148,-0.061
18.56,-0.033,1.13,0.112
18.57,-0.242,0.64,-0.029
18.58,-0.416,1.235,-0.18
18.59,-0.081,0.989,-0.059
18.6,-0.185,0.912,0.158
18.61,-0.138,0.946,0.189
18.62,-0.342,0.805,-0.161
18.63,-0.289,1.179,-0.129
18.64,-0.007,0.862,0.083
18.65,-0.144,1.023,0.117
18.66,-0.274,0.677,-0.012
18.67,-0.322,1.21,-0.185
18.68,-0.075,0.977,-0.036
18.69,-0.306,0.872,0.198
18.7,-0.102,0.987,0.143
18.71,-0.306,0.838,-0.193
18.72,-0.312,1.288,-0.049
18.73,-0.008,0.845,0.072
18.74,-0.215,0.99,0.13
18.75,-0.207,0.786,-0.044
18.76,-0.362,1.132,-0.174
18.77,-0.119,1.031,-0.016
18.78,-0.214,0.822,0.21
18.79,-0.118,1.02,0.074
18.8,-0.433,0.8,-0.167
18.81,-0.153,1.275,-0.071
18.82,-0.113,0.831,0.091
18.83,-0.251,0.903,0.178
18.84,-0.188,0.894,-0.065
18.85,-0.231,1.001,-0.226
18.86,-0.193,1.115,0.067
18.87,-0.068,0.796,0.174
18.88,-0.141,1.019,-0.009
18.89,-0.502,0.819,-0.151
18.9,-0.058,1.239,-0.064
18.91,-0.105,0.852,0.08
18.92,-0.296,0.863,0.224
18.93,-0.18,1.014,-0.111
18.94,-0.281,0.928,-0.189
18.95,-0.157,1.178,0.091
18.96,-0.035,0.752,0.181
18.97,-0.253,1.032,-0.033
18.98,-0.475,0.832,-0.149
18.99,-0.042,1.172,-0.069
19.0,-0.192,0.871,0.104
19.01,-0.234,0.845,0.213
19.02,-0.276,1.099,-0.162
19.03,-0.294,0.787,-0.173
19.04,-0.143,1.232,0.11
19.05,0.027,0.775,0.131
19.06,-0.3,1.013,-0.03
19.07,-0.425,0.878,-0.111
19.08,-0.018,1.155,-0.057
19.09,-0.215,0.92,0.116
19.1,-0.203,0.784,0.19
19.11,-0.292,1.193,-0.176
19.12,-0.29,0.821,-0.134
19.13,-0.081,1.268,0.071
19.14,-0.027,0.702,0.125
19.15,-0.298,0.994,-0.02
19.16,-0.284,1.041,-0.141
19.17,-0.125,1.009,-0.036
19.18,-0.254,0.911,0.119
19.19,-0.034,0.887,0.098
19.2,-0.463,1.098,-0.235
19.21,-0.25,0.778,-0.02
19.22,-0.033,1.27,0.068
19.23,-0.134,0.609,0.137
19.24,-0.33,1.089,0.019
19.25,-0.207,0.92,-0.198
19.26,-0.147,1.079,-0.021
19.27,-0.153,0.909,0.146
19.28,-0.062,0.814,0.061
19.29,-0.469,1.18,-0.237
19.3,-0.096,0.846,-0.004
19.31,-0.108,1.274,0.105
19.32,-0.246,0.64,0.198
19.33,-0.214,1.077,-0.078
19.34,-0.272,1.022,-0.16
19.35,-0.226,1.021,0.085
19.36,-0.092,0.997,0.103
19.37,-0.113,0.677,0.007
19.38,-0.556,1.268,-0.151
19.39,-0.015,0.88,-0.06
19.4,-0.164,1.17,0.04
19.41,-0.224,0.712,0.243
19.42,-0.211,1.023,-0.108
19.43,-0.292,1.0,-0.179
19.44,-0.136,1.006,0.097
19.45,-0.097,1.052,0.107
19.46,-0.185,0.622,-0.017
19.47,-0.435,1.287,-0.19
19.48,-0.05,0.884,-0.027
19.49,-0.186,1.119,0.094
19.5,-0.132,0.78,0.176
19.51,-0.315,0.958,-0.133
19.52,-0.28,1.043,-0.194
19.53,-0.068,0.977,0.101
19.54,-0.077,1.086,0.098
19.55,-0.322,0.638,0.009
19.56,-0.368,1.291,-0.156
19.57,-0.046,0.908,-0.033
19.58,-0.273,1.063,0.108
19.59,-0.026,0.854,0.154
19.6,-0.403,0.924,-0.156
19.61,-0.3,1.119,-0.148
19.62,0.011,0.911,0.105
19.63,-0.173,1.071,0.117
19.64,-0.276,0.678,0.013
19.65,-0.336,1.281,-0.211
19.66,-0.06,0.892,-0.056
19.67,-0.14,0.954,0.149
19.68,-0.066,0.946,0.081
19.69,-0.388,0.869,-0.161
19.7,-0.278,1.236,-0.077
19.71,-0.016,0.911,0.064
19.72,-0.145,1.001,0.107
19.73,-0.213,0.741,-0.032
19.74,-0.305,1.257,-0.22
19.75,-0.114,0.956,0.022
19.76,-0.277,0.898,0.208
19.77,-0.065,0.977,0.079
19.78,-0.381,0.859,-0.21
19.79,-0.284,1.243,-0.046
19.8,-0.043,0.847,0.087
19.81,-0.166,1.018,0.142
19.82,-0.297,0.775,-0.039
19.83,-0.298,1.112,-0.157
19.84,-0.121,1.111,0.011
19.85,-0.125,0.848,0.139
19.86,-0.095,0.957,0.061
19.87,-0.392,0.89,-0.142
19.88,-0.212,1.252,-0.045
19.89,-0.092,0.779,0.09
19.9,-0.142,0.966,0.179
19.91,-0.34,0.894,-0.047
19.92,-0.312,1.014,-0.143
19.93,-0.146,1.135,0.016
19.94,-0.127,0.773,0.154
19.95,-0.067,0.989,-0.001
19.96,-0.436,0.877,-0.167
19.97,-0.099,1.233,-0.048
19.98,-0.107,0.808,0.057
19.99,-0.177,0.888,0.167
20.0,-0.303,1.032,-0.094
20.01,-0.291,1.049,-0.139
20.02,-0.14,1.066,0.117
20.03,-0.063,0.784,0.151
20.04,-0.334,1.006,0.031
20.05,-0.367,0.922,-0.195
20.06,-0.055,1.181,-0.065
20.07,-0.136,0.766,0.099
20.08,-0.101,1.008,0.1
20.09,-0.286,0.871,-0.148
20.1,-0.296,1.049,-0.09
20.11,-0.051,1.158,0.067
20.12,-0.117,0.671,0.134
20.13,-0.358,1.067,0.039
20.14,-0.273,0.897,-0.17
20.15,-0.144,1.19,-0.001
20.16,-0.199,0.764,0.135
20.17,-0.087,0.968,0.1
20.18,-0.343,1.003,-0.173
20.19,-0.296,0.933,-0.056
20.2,-0.03,1.206,0.058
20.21,-0.132,0.649,0.096
20.22,-0.345,1.113,0.005
20.23,-0.267,0.894,-0.172
20.24,-0.253,1.134,0.001
20.25,-0.13,0.819,0.163
20.26,-0.077,0.85,0.103
20.27,-0.467,1.08,-0.195
20.28,-0.189,0.878,-0.025
20.29,-0.066,1.208,0.033
20.3,-0.171,0.632,0.165
20.31,-0.336,1.165,-0.01
20.32,-0.248,0.885,-0.211
20.33,-0.251,1.071,0.059
20.34,-0.135,0.948,0.203
20.35,-0.107,0.787,0.084
20.36,-0.511,1.16,-0.201
20.37,-0.043,0.853,-0.054
20.38,-0.141,1.221,0.087
20.39,-0.195,0.615,0.176
20.4,-0.282,1.114,-0.053
20.41,-0.274,0.912,-0.2
20.42,-0.242,1.05,0.066
20.43,-0.148,1.027,0.168
20.44,-0.041,0.68,0.0
20.45,-0.45,1.225,-0.184
20.46,-0.055,0.873,-0.075
20.47,-0.065,1.166,0.02
20.48,-0.135,0.659,0.201
20.49,-0.313,1.088,-0.054
20.5,-0.26,1.002,-0.213
20.51,-0.199,1.017,0.069
20.52,-0.063,1.071,0.144
20.53,-0.075,0.672,0.03
20.54,-0.486,1.255,-0.207
20.55,-0.032,0.898,-0.039
20.56,-0.161,1.156,0.052
20.57,-0.166,0.689,0.182
20.58,-0.242,1.032,-0.103
20.59,-0.253,1.024,-0.181
20.6,-0.121,0.981,0.127
20.61,-0.129,1.127,0.132
20.62,-0.13,0.588,-0.035
20.63,-0.487,1.295,-0.133
20.64,-0.062,0.905,-0.043
20.65,-0.204,1.06,0.04
20.66,-0.059,0.831,0.199
20.67,-0.304,0.934,-0.131
20.68,-0.379,1.088,-0.119
20.69,-0.038,0.951,0.066
20.7,-0.073,1.111,0.086
20.71,-0.33,0.637,0.05
20.72,-0.385,1.272,-0.202
20.73,-0.089,0.853,-0.073
20.74,-0.21,1.046,0.149
20.75,-0.071,0.885,0.149
20.76,-0.384,0.844,-0.165
20.77,-0.247,1.188,-0.124
20.78,-0.065,0.93,0.051
20.79,-0.067,1.037,0.095
20.8,-0.23,0.71,0.003
20.81,-0.457,1.195,-0.165
20.82,-0.115,0.862,-0.005
20.83,-0.247,1.083,0.136
20.84,-0.135,0.808,0.142
20.85,-0.384,0.966,-0.194
20.86,-0.272,1.12,-0.075
20.87,-0.104,0.961,0.064
20.88,-0.054,1.008,0.127
20.89,-0.272,0.674,0.001
20.9,-0.314,1.337,-0.205
20.91,-0.099,0.879,-0.035
20.92,-0.258,0.971,0.153
20.93,-0.127,0.888,0.145
20.94,-0.407,0.903,-0.225
20.95,-0.229,1.133,-0.057
20.96,-0.067,0.944,0.043
20.97,-0.125,0.998,0.125
20.98,-0.248,0.715,0.044
20.99,-0.326,1.275,-0.259
21.0,-0.072,0.891,-0.026
21.01,-0.18,0.96,0.195
21.02,-0.192,0.897,0.108
21.03,-0.427,0.873,-0.184
21.04,-0.237,1.341,-0.001
21.05,-0.065,0.812,0.011
21.06,-0.17,0.943,0.174
21.07,-0.279,0.817,0.006
21.08,-0.266,1.191,-0.239
21.09,-0.13,0.972,-0.029
21.1,-0.193,0.85,0.212
21.11,-0.058,1.021,0.051
21.12,-0.495,0.804,-0.19
21.13,-0.174,1.216,-0.072
21.14,-0.07,0.874,0.082
21.15,-0.241,0.923,0.128
21.16,-0.233,0.862,-0.004
21.17,-0.27,1.093,-0.211
21.18,-0.147,1.064,-0.022
21.19,-0.094,0.842,0.19
21.2,-0.17,1.039,0.076
21.21,-0.426,0.799,-0.164
21.22,-0.199,1.273,-0.016
21.23,-0.149,0.809,0.084
21.24,-0.226,0.896,0.211
21.25,-0.267,0.957,-0.065
21.26,-0.315,0.957,-0.193
21.27,-0.071,1.152,0.011
21.28,-0.09,0.818,0.132
21.29,-0.14,1.006,0.029
21.3,-0.36,0.885,-0.139
21.31,-0.224,1.203,-0.091
21.32,-0.115,0.786,0.08
21.33,-0.144,0.932,0.193
21.34,-0.368,1.027,-0.128
21.35,-0.278,0.823,-0.179
21.36,-0.125,1.219,0.076
21.37,-0.08,0.741,0.115
21.38,-0.167,1.036,0.004
21.39,-0.302,0.894,-0.202
21.4,-0.2,1.123,-0.045
21.41,-0.144,0.868,0.097
21.42,-0.157,0.81,0.168
21.43,-0.425,1.102,-0.094
21.44,-0.272,0.826,-0.145
21.45,-0.18,1.286,0.119
21.46,-0.105,0.733,0.133
21.47,-0.177,0.987,0.01
21.48,-0.35,0.969,-0.143
21.49,-0.15,1.106,-0.09
21.5,-0.125,0.89,0.079
21.51,-0.152,0.789,0.189
21.52,-0.417,1.199,-0.136
21.53,-0.317,0.749,-0.138
21.54,-0.167,1.24,0.124
21.55,-0.104,0.795,0.154
21.56,-0.233,0.975,0.055
21.57,-0.443,1.042,-0.186
21.58,-0.107,0.966,-0.016
21.59,-0.198,1.037,0.134
21.6,-0.135,0.703,0.179
21.61,-0.399,1.193,-0.162
21.62,-0.233,0.811,-0.135
21.63,-0.066,1.273,0.074
21.64,-0.07,0.631,0.151
21.65,-0.348,1.049,0.006
21.66,-0.277,0.972,-0.227
21.67,-0.137,1.035,-0.008
21.68,-0.151,0.969,0.147
21.69,-0.105,0.773,0.076
21.7,-0.48,1.15,-0.192
21.71,-0.192,0.829,-0.007
21.72,-0.065,1.28,0.039
21.73,-0.094,0.597,0.14
21.74,-0.334,1.057,0.002
21.75,-0.375,1.026,-0.226
21.76,-0.071,0.914,-0.006
21.77,-0.155,1.107,0.175
21.78,-0.161,0.644,0.081
21.79,-0.496,1.223,-0.111
21.8,-0.06,0.887,-0.081
21.81,-0.156,1.153,0.082
21.82,-0.095,0.707,0.18
21.83,-0.293,1.015,-0.091
21.84,-0.324,1.007,-0.211
21.85,-0.064,0.909,0.054
21.86,-0.177,1.182,0.142
21.87,-0.12,0.643,0.011
21.88,-0.448,1.193,-0.188
21.89,-0.145,0.915,-0.036
21.9,-0.135,1.077,0.104
21.91,-0.107,0.8,0.156
21.92,-0.364,0.937,-0.069
21.93,-0.34,1.073,-0.163
21.94,-0.033,0.925,0.06
21.95,-0.198,1.179,0.13
21.96,-0.145,0.598,0.035
21.97,-0.423,1.265,-0.214
21.98,-0.095,0.977,-0.038
21.99,-0.178,0.974,0.095
22.0,-0.071,0.865,0.164
22.01,-0.335,0.898,-0.203
22.02,-0.252,1.105,-0.172
22.03,-0.022,0.925,0.109
22.04,-0.13,1.077,0.078
22.05,-0.205,0.633,0.033
22.06,-0.375,1.3,-0.171
22.07,-0.186,0.939,-0.012
22.08,-0.243,0.92,0.188
22.09,-0.015,0.966,0.131
22.1,-0.437,0.808,-0.21
22.11,-0.269,1.165,-0.051
22.12,0.051,0.936,0.029
22.13,-0.238,0.961,0.127
22.14,-0.153,0.718,0.034
22.15,-0.271,1.298,-0.285
22.16,-0.181,0.929,-0.035
22.17,-0.156,0.871,0.212
22.18,-0.131,0.999,0.066
22.19,-0.49,0.783,-0.179
22.2,-0.126,1.293,-0.044
22.21,-0.075,0.869,0.069
22.22,-0.28,0.911,0.179
22.23,-0.17,0.875,-0.004
22.24,-0.334,1.091,-0.245
22.25,-0.229,1.007,0.071
22.26,-0.037,0.929,0.122
22.27,-0.169,0.977,0.011
22.28,-0.425,0.796,-0.074
22.29,-0.091,1.321,-0.112
22.3,-0.124,0.781,0.071
22.31,-0.248,0.92,0.23
22.32,-0.196,0.944,-0.12
22.33,-0.359,0.889,-0.188
22.34,-0.148,1.159,0.096
22.35,0.017,0.784,0.073
22.36,-0.187,1.014,0.056
22.37,-0.388,0.922,-0.143
22.38,-0.104,1.235,-0.108
22.39,-0.16,0.814,0.055
22.4,-0.122,0.872,0.227
22.41,-0.338,1.05,-0.139
22.42,-0.233,0.837,-0.177
22.43,-0.17,1.269,0.105
22.44,-0.037,0.702,0.127
22.45,-0.285,1.014,0.04
22.46,-0.281,0.963,-0.163
22.47,-0.243,1.207,-0.032
22.48,-0.216,0.71,0.176
22.49,-0.071,0.987,0.13
22.5,-0.423,0.943,-0.154
22.51,-0.293,0.909,-0.059
22.52,-0.001,1.25,0.032
22.53,-0.125,0.629,0.106
22.54,-0.376,1.119,0.054
22.55,-0.231,0.93,-0.238
22.56,-0.18,1.102,-0.065
22.57,-0.087,0.831,0.179
22.58,-0.116,0.937,0.068
22.59,-0.447,1.076,-0.203
22.6,-0.175,0.933,-0.043
22.61,-0.087,1.192,0.059
22.62,-0.233,0.611,0.216
22.63,-0.197,1.149,-0.035
22.64,-0.359,0.861,-0.216
22.65,-0.208,1.039,0.041
22.66,-0.058,0.959,0.139
22.67,-0.1,0.799,0.075
22.68,-0.428,1.134,-0.199
22.69,-0.074,0.898,-0.115
22.7,-0.165,1.201,0.125
22.71,-0.228,0.637,0.204
22.72,-0.247,1.107,-0.053
22.73,-0.332,0.895,-0.207
22.74,-0.211,1.028,0.077
22.75,-0.058,1.059,0.086
22.76,-0.11,0.698,0.062
22.77,-0.483,1.191,-0.119
22.78,-0.036,0.926,-0.107
22.79,-0.218,1.144,0.079
22.8,-0.148,0.652,0.209
22.81,-0.29,1.115,-0.082
22.82,-0.375,0.949,-0.141
22.83,-0.134,0.963,0.1
22.84,-0.098,1.103,0.124
22.85,-0.223,0.655,-0.001
22.86,-0.43,1.265,-0.168
22.87,-0.09,0.854,-0.095
22.88,-0.217,1.15,0.095
22.89,-0.121,0.732,0.181
22.9,-0.294,1.005,-0.126
22.91,-0.263,1.014,-0.147
22.92,-0.087,0.971,0.105
22.93,-0.241,1.071,0.147
22.94,-0.093,0.626,0.013
22.95,-0.458,1.356,-0.166
22.96,-0.112,0.861,-0.047
22.97,-0.23,1.094,0.11
22.98,-0.077,0.786,0.164
22.99,-0.391,0.917,-0.107
23.0,-0.273,1.132,-0.154
23.01,-0.06,0.967,0.035
23.02,-0.127,0.99,0.11
23.03,-0.16,0.642,0.029
23.04,-0.418,1.36,-0.249
23.05,-0.035,0.829,-0.104
23.06,-0.246,1.027,0.159
23.07,-0.114,0.867,0.15
23.08,-0.423,0.783,-0.149
23.09,-0.265,1.132,-0.084
23.1,-0.056,0.992,0.042
23.11,-0.108,1.014,0.05
23.12,-0.224,0.671,0.023
23.13,-0.348,1.304,-0.222
23.14,-0.074,0.93,-0.096
23.15,-0.189,0.942,0.188
23.16,-0.068,0.968,0.093
23.17,-0.392,0.779,-0.192
23.18,-0.261,1.216,-0.032
23.19,-0.053,0.906,0.059
23.2,-0.152,0.989,0.11
23.21,-0.207,0.729,0.035
23.22,-0.385,1.221,-0.172
23.23,-0.11,1.003,-0.031
23.24,-0.187,0.881,0.154
23.25,-0.09,0.998,0.104
23.26,-0.348,0.771,-0.185
23.27,-0.252,1.205,-0.048
23.28,-0.057,0.887,0.08
23.29,-0.156,1.016,0.136
23.3,-0.276,0.749,-0.007
23.31,-0.322,1.221,-0.23
23.32,-0.046,0.936,-0.008
23.33,-0.182,0.992,0.202
23.34,-0.106,0.91,0.096
23.35,-0.404,0.834,-0.175
23.36,-0.192,1.265,-0.026
23.37,-0.06,0.831,0.088
23.38,-0.234,0.977,0.163
23.39,-0.291,0.812,-0.026
23.4,-0.302,1.164,-0.18
23.41,-0.151,0.97,-0.002
23.42,-0.139,0.874,0.206
23.43,-0.103,0.984,0.031
23.44,-0.41,0.805,-0.153
23.45,-0.118,1.26,-0.039
23.46,-0.151,0.827,0.112
23.47,-0.153,0.949,0.149
23.48,-0.228,0.924,-0.064
23.49,-0.314,1.049,-0.174
23.5,-0.154,1.05,0.04
23.51,-0.026,0.868,0.155
23.52,-0.19,1.031,0.073
23.53,-0.354,0.835,-0.167
23.54,-0.191,1.254,-0.061
23.55,-0.079,0.779,0.085
23.56,-0.183,0.939,0.208
23.57,-0.281,0.96,-0.109
23.58,-0.311,0.918,-0.155
23.59,-0.211,1.149,0.076
23.6,-0.029,0.805,0.104
23.61,-0.21,1.003,0.033
23.62,-0.35,0.873,-0.103
23.63,-0.189,1.212,-0.129
23.64,-0.098,0.771,0.029
23.65,-0.134,0.911,0.242
23.66,-0.267,1.086,-0.183
23.67,-0.293,0.811,-0.166
23.68,-0.134,1.219,0.085
23.69,-0.033,0.741,0.086
23.7,-0.209,1.017,0.035
23.71,-0.355,0.935,-0.159
23.72,-0.164,1.15,-0.102
23.73,-0.104,0.866,0.042
23.74,-0.103,0.836,0.223
23.75,-0.34,1.102,-0.164
23.76,-0.312,0.768,-0.137
23.77,-0.116,1.334,0.094
23.78,-0.151,0.74,0.138
23.79,-0.204,0.93,0.002
23.8,-0.298,1.055,-0.127
23.81,-0.263,1.108,-0.069
23.82,-0.193,0.875,0.097
23.83,-0.054,0.816,0.197
23.84,-0.462,1.137,-0.132
23.85,-0.245,0.717,-0.132
23.86,-0.112,1.334,0.107
23.87,-0.153,0.717,0.115
23.88,-0.293,0.922,0.058
23.89,-0.31,1.088,-0.202
23.9,-0.188,0.974,-0.022
23.91,-0.229,1.027,0.129
23.92,0.015,0.731,0.143
23.93,-0.473,1.176,-0.119
23.94,-0.304,0.781,-0.134
23.95,-0.046,1.314,0.088
23.96,-0.121,0.722,0.115
23.97,-0.326,0.871,0.052
23.98,-0.323,1.112,-0.204
23.99,-0.127,0.929,-0.036
24.0,-0.305,1.084,0.161
24.01,0.007,0.654,0.13
24.02,-0.393,1.205,-0.14
24.03,-0.265,0.793,-0.13
24.04,-0.044,1.209,0.059
24.05,-0.102,0.827,0.077
24.06,-0.217,0.831,0.07
24.07,-0.337,1.226,-0.184
24.08,-0.194,0.903,-0.027
24.09,-0.141,1.047,0.157
24.1,-0.035,0.775,0.112
24.11,-0.461,1.14,-0.189
24.12,-0.208,0.795,-0.048
24.13,-0.041,1.328,0.015
24.14,-0.104,0.667,0.108
24.15,-0.225,0.952,0.05
24.16,-0.383,1.158,-0.182
24.17,-0.198,0.82,0.0
24.18,-0.144,1.075,0.13
24.19,-0.015,0.738,0.082
24.2,-0.499,1.151,-0.156
24.21,-0.274,0.822,-0.034
24.22,-0.039,1.264,0.05
24.23,-0.137,0.757,0.093
24.24,-0.243,0.859,0.03
24.25,-0.26,1.227,-0.243
24.26,-0.057,0.82,-0.062
24.27,-0.198,1.163,0.205
24.28,-0.026,0.685,0.11
24.29,-0.472,1.133,-0.221
24.3,-0.155,0.923,-0.049
24.31,-0.164,1.185,0.089
24.32,-0.144,0.813,0.089
24.33,-0.278,0.802,0.057
24.34,-0.322,1.25,-0.217
24.35,-0.11,0.78,-0.044
24.36,-0.221,1.177,0.196
24.37,-0.067,0.687,0.139
24.38,-0.488,1.078,-0.181
24.39,-0.204,0.973,-0.023
24.4,-0.128,1.086,0.041
24.41,-0.101,0.88,0.098
24.42,-0.317,0.779,0.013
24.43,-0.275,1.283,-0.247
24.44,-0.104,0.746,-0.03
24.45,-0.214,1.153,0.21
24.46,-0.061,0.764,0.123
24.47,-0.466,0.998,-0.212
24.48,-0.274,0.996,-0.032
24.49,-0.06,1.081,0.073
24.5,-0.147,0.954,0.107
24.51,-0.3,0.729,-0.009
24.52,-0.276,1.323,-0.218
24.53,-0.114,0.807,-0.023
24.54,-0.135,1.038,0.152
24.55,0.009,0.826,0.068
24.56,-0.439,0.976,-0.167
24.57,-0.239,1.083,-0.029
24.58,-0.062,1.013,0.048
24.59,-0.187,1.003,0.12
24.6,-0.254,0.713,-0.002
24.61,-0.277,1.278,-0.234
24.62,-0.114,0.819,-0.057
24.63,-0.155,1.032,0.218
24.64,-0.069,0.889,0.089
24.65,-0.451,0.879,-0.176
24.66,-0.269,1.14,-0.018
24.67,0.013,0.943,-0.002
24.68,-0.19,1.0,0.135
24.69,-0.284,0.725,0.008
24.7,-0.304,1.255,-0.203
24.71,-0.15,0.883,-0.034
24.72,-0.183,0.948,0.203
24.73,-0.095,0.919,0.143
24.74,-0.399,0.86,-0.208
24.75,-0.215,1.223,-0.069
24.76,-0.114,0.84,0.039
24.77,-0.113,0.985,0.112
24.78,-0.237,0.795,0.005
24.79,-0.345,1.199,-0.213
24.8,-0.099,0.931,-0.03
24.81,-0.181,0.914,0.204
24.82,-0.096,0.976,0.103
24.83,-0.375,0.851,-0.178
24.84,-0.274,1.187,-0.124
24.85,-0.114,0.85,0.09
24.86,-0.104,0.964,0.194
24.87,-0.312,0.807,0.027
24.88,-0.349,1.129,-0.179
24.89,-0.089,1.0,-0.088
24.9,-0.149,0.997,0.171
24.91,-0.111,0.918,0.082
24.92,-0.365,0.891,-0.206
24.93,-0.202,1.241,-0.056
24.94,-0.067,0.857,-0.003
24.95,-0.122,0.976,0.155
24.96,-0.283,0.781,-0.008
24.97,-0.296,1.168,-0.225
24.98,-0.09,0.933,-0.05
24.99,-0.124,0.915,0.172
25.0,-0.145,0.994,0.12
25.01,-0.328,0.844,-0.197
25.02,-0.292,1.242,-0.036
25.03,-0.068,0.854,0.065
25.04,-0.116,0.963,0.135
25.05,-0.323,0.837,0.023
25.06,-0.246,1.146,-0.218
25.07,-0.102,1.006,-0.083
25.08,-0.231,0.817,0.206
25.09,-0.031,1.056,0.062
25.1,-0.36,0.785,-0.208
25.11,-0.321,1.201,-0.04
25.12,-0.032,0.915,0.029
25.13,-0.153,0.893,0.129
25.14,-0.319,0.884,0.05
25.15,-0.27,1.061,-0.168
25.16,-0.156,1.073,-0.037
25.17,-0.182,0.803,0.2
25.18,-0.055,1.065,0.1
25.19,-0.334,0.784,-0.206
25.2,-0.311,1.205,-0.054
25.21,-0.035,0.971,0.021
25.22,-0.18,0.821,0.135
25.23,-0.261,0.944,0.056
25.24,-0.333,1.01,-0.148
25.25,-0.175,1.115,-0.05
25.26,-0.155,0.751,0.174
25.27,-0.12,1.08,0.119
25.28,-0.351,0.76,-0.157
25.29,-0.268,1.123,-0.04
25.3,-0.101,1.045,0.02
25.31,-0.119,0.754,0.146
25.32,-0.275,1.029,0.078
25.33,-0.387,0.958,-0.183
25.34,-0.144,1.135,-0.092
25.35,-0.163,0.778,0.184
25.36,-0.1,1.069,0.093
25.37,-0.365,0.814,-0.149
25.38,-0.235,0.991,-0.155
25.39,-0.068,1.118,0.06
25.4,-0.118,0.781,0.116
25.41,-0.249,1.015,0.005
25.42,-0.353,0.901,-0.153
25.43,-0.204,1.209,-0.044
25.44,-0.165,0.724,0.111
25.45,-0.158,0.998,0.177
25.46,-0.295,0.898,-0.151
25.47,-0.223,0.939,-0.154
25.48,-0.096,1.168,0.039
25.49,-0.003,0.713,0.129
25.5,-0.308,1.077,0.033
25.51,-0.287,0.895,-0.168
25.52,-0.195,1.201,-0.09
25.53,-0.177,0.762,0.087
25.54,-0.124,0.937,0.227
25.55,-0.354,1.057,-0.142
25.56,-0.282,0.819,-0.176
25.57,-0.14,1.208,0.065
25.58,-0.002,0.78,0.17
25.59,-0.237,1.064,-0.009
25.6,-0.354,0.869,-0.122
25.61,-0.173,1.191,-0.069
25.62,-0.167,0.826,0.061
25.63,-0.173,0.865,0.209
25.64,-0.324,1.103,-0.152
25.65,-0.234,0.777,-0.164
25.66,-0.195,1.258,0.058
25.67,-0.055,0.733,0.116
25.68,-0.182,1.013,0.061
25.69,-0.39,0.926,-0.126
25.7,-0.163,1.129,-0.077
25.71,-0.135,0.807,0.097
25.72,-0.111,0.963,0.224
25.73,-0.384,0.992,-0.139
25.74,-0.216,0.833,-0.185
25.75,-0.216,1.243,0.085
25.76,-0.049,0.73,0.14
25.77,-0.24,1.018,0.03
25.78,-0.333,0.911,-0.146
25.79,-0.15,1.189,-0.112
25.8,-0.089,0.802,0.04
25.81,-0.112,0.848,0.213
25.82,-0.343,1.094,-0.128
25.83,-0.305,0.789,-0.132
25.84,-0.235,1.225,0.073
25.85,-0.084,0.795,0.142
25.86,-0.157,0.994,0.008
25.87,-0.385,0.847,-0.165
25.88,-0.044,1.17,-0.088
25.89,-0.146,0.938,0.063
25.9,-0.182,0.717,0.246
25.91,-0.271,1.189,-0.067
25.92,-0.328,0.832,-0.155
25.93,-0.234,1.195,0.052
25.94,-0.042,0.826,0.158
25.95,-0.222,0.963,0.036
25.96,-0.406,0.887,-0.132
25.97,-0.178,1.083,-0.04
25.98,-0.092,1.035,0.031
25.99,-0.135,0.67,0.171
26.0,-0.271,1.159,-0.019
26.01,-0.257,0.873,-0.235
26.02,-0.154,1.164,-0.04
26.03,-0.097,0.786,0.204
26.04,-0.161,0.972,0.082
26.05,-0.412,0.963,-0.189
26.06,-0.183,0.954,-0.002
26.07,-0.14,1.18,0.031
26.08,-0.099,0.619,0.116
26.09,-0.318,1.183,0.021
26.1,-0.256,0.857,-0.218
26.11,-0.208,1.109,-0.007
26.12,-0.157,0.859,0.183
26.13,-0.073,0.91,0.067
26.14,-0.438,1.014,-0.171
26.15,-0.237,0.889,-0.004
26.16,-0.12,1.284,0.039
26.17,-0.084,0.6,0.15
26.18,-0.326,1.101,0.023
26.19,-0.214,0.935,-0.222
26.2,-0.128,1.116,-0.05
26.21,-0.22,0.842,0.155
26.22,0.03,0.861,0.115
26.23,-0.395,1.124,-0.216
26.24,-0.299,0.818,-0.019
26.25,-0.047,1.321,0.03
26.26,-0.044,0.64,0.117
26.27,-0.368,1.08,0.046
26.28,-0.278,0.984,-0.179
26.29,-0.095,1.064,-0.046
26.3,-0.268,0.923,0.166
26.31,-0.01,0.784,0.149
26.32,-0.41,1.188,-0.165
26.33,-0.322,0.76,-0.059
26.34,-0.076,1.276,0.044
26.35,-0.095,0.72,0.177
26.36,-0.376,0.988,-0.009
26.37,-0.266,1.005,-0.14
26.38,-0.119,1.047,-0.043
26.39,-0.241,0.952,0.123
26.4,-0.087,0.713,0.185
26.41,-0.371,1.208,-0.177
26.42,-0.278,0.768,-0.125
26.43,-0.167,1.29,0.09
26.44,-0.006,0.752,0.149
26.45,-0.364,0.961,0.013
26.46,-0.333,1.049,-0.175
26.47,-0.094,0.93,-0.049
26.48,-0.233,1.092,0.104
26.49,-0.053,0.705,0.186
26.5,-0.345,1.167,-0.184
26.51,-0.321,0.796,-0.084
26.52,-0.078,1.25,0.025
26.53,-0.049,0.679,0.118
26.54,-0.418,0.98,0.025
26.55,-0.182,1.005,-0.195
26.56,-0.132,1.019,-0.035
26.57,-0.297,0.984,0.171
26.58,-0.017,0.739,0.105
26.59,-0.391,1.185,-0.186
26.6,-0.301,0.759,-0.049
26.61,-0.077,1.29,0.051
26.62,-0.14,0.733,0.11
26.63,-0.262,0.939,0.047
26.64,-0.302,1.112,-0.169
26.65,-0.139,0.916,-0.045
26.66,-0.252,1.031,0.157
26.67,0.004,0.728,0.134
26.68,-0.458,1.165,-0.165
26.69,-0.231,0.736,-0.126
26.7,-0.031,1.283,0.039
26.71,-0.142,0.749,0.131
26.72,-0.318,0.865,0.041
26.73,-0.329,1.195,-0.16
26.74,-0.138,0.864,-0.064
26.75,-0.23,1.107,0.144
26.76,-0.034,0.709,0.175
26.77,-0.444,1.171,-0.141
26.78,-0.284,0.782,-0.107
26.79,-0.119,1.226,0.066
26.8,-0.045,0.881,0.104
26.81,-0.278,0.776,0.024
26.82,-0.391,1.226,-0.139
26.83,-0.102,0.896,-0.073
26.84,-0.283,1.103,0.085
26.85,-0.034,0.666,0.226
26.86,-0.424,1.183,-0.165
26.87,-0.276,0.79,-0.172
26.88,-0.144,1.136,0.138
26.89,-0.068,1.044,0.098
26.9,-0.138,0.75,-0.014
26.91,-0.097,1.163,0.198
26.92,-0.115,0.732,0.044
26.93,-0.522,1.011,-0.156
26.94,-0.087,1.087,-0.037
26.95,-0.114,1.022,0.064
26.96,-0.14,0.915,0.106
26.97,-0.26,0.749,0.017
26.98,-0.233,1.338,-0.204
26.99,-0.184,0.819,-0.071
27.0,-0.085,1.006,0.178
27.01,-0.076,0.85,0.088
27.02,-0.454,0.921,-0.216
27.03,-0.166,1.137,-0.008
27.04,-0.104,0.97,0.05
27.05,-0.188,0.982,0.162
27.06,-0.254,0.756,0.016
27.07,-0.339,1.263,-0.241
27.08,-0.134,0.843,-0.048
27.09,-0.162,1.037,0.163
27.1,-0.12,0.911,0.087
27.11,-0.417,0.842,-0.196
27.12,-0.247,1.17,-0.027
27.13,-0.062,0.935,0.016
27.14,-0.207,0.964,0.146
27.15,-0.249,0.752,0.052
27.16,-0.326,1.298,-0.202
27.17,-0.151,0.898,-0.07
27.18,-0.188,0.909,0.162
27.19,-0.066,0.991,0.098
27.2,-0.365,0.794,-0.205
27.21,-0.299,1.175,-0.045
27.22,-0.005,0.957,0.047
27.23,-0.17,1.01,0.133
27.24,-0.243,0.758,0.017
27.25,-0.339,1.208,-0.162
27.26,-0.197,0.971,-0.016
27.27,-0.201,1.016,0.164
27.28,-0.081,0.902,0.064
27.29,-0.377,0.884,-0.168
27.3,-0.313,1.169,-0.016
27.31,-0.04,0.896,0.056
27.32,-0.188,1.038,0.144
27.33,-0.229,0.726,0.01
27.34,-0.38,1.197,-0.192
27.35,-0.107,0.897,-0.012
27.36,-0.22,0.988,0.173
27.37,-0.091,0.934,0.097
27.38,-0.375,0.875,-0.157
27.39,-0.287,1.218,-0.048
27.4,-0.036,0.894,0.04
27.41,-0.095,0.976,0.128
27.42,-0.281,0.756,0.024
27.43,-0.29,1.177,-0.195
27.44,-0.148,0.978,-0.054
27.45,-0.178,0.887,0.172
27.46,-0.118,1.013,0.097
27.47,-0.305,0.792,-0.173
27.48,-0.278,1.232,-0.069
27.49,-0.091,0.92,0.024
27.5,-0.086,0.926,0.132
27.51,-0.27,0.797,0.031
27.52,-0.329,1.13,-0.18
27.53,-0.113,1.045,-0.068
27.54,-0.175,0.805,0.147
27.55,-0.18,1.044,0.144
27.56,-0.263,0.78,-0.203
27.57,-0.248,1.168,-0.133
27.58,-0.071,0.956,0.087
27.59,-0.115,0.916,0.098
27.6,-0.231,0.817,-0.002
27.61,-0.357,1.077,-0.135
27.62,-0.173,1.16,-0.052
27.63,-0.165,0.707,0.117
27.64,-0.037,1.095,0.138
27.65,-0.323,0.802,-0.177
27.66,-0.334,1.116,-0.082
27.67,0.004,1.025,0.058
27.68,-0.094,0.897,0.124
27.69,-0.294,0.916,0.019
27.7,-0.313,1.004,-0.185
27.71,-0.141,1.161,-0.05
27.72,-0.169,0.729,0.144
27.73,-0.128,1.106,0.13
27.74,-0.275,0.798,-0.183
27.75,-0.279,1.035,-0.09
27.76,-0.071,1.062,0.081
27.77,-0.078,0.827,0.111
27.78,-0.27,0.984,0.008
27.79,-0.375,0.92,-0.156
27.8,-0.129,1.241,-0.027
27.81,-0.149,0.723,0.118
27.82,-0.15,1.033,0.164
27.83,-0.302,0.889,-0.181
27.84,-0.257,1.014,-0.103
27.85,-0.133,1.109,0.108
27.86,-0.028,0.755,0.109
27.87,-0.31,1.058,0.004
27.88,-0.333,0.898,-0.146
27.89,-0.146,1.198,-0.049
27.9,-0.147,0.743,0.116
27.91,-0.122,1.017,0.145
27.92,-0.304,0.936,-0.185
27.93,-0.254,0.961,-0.104
27.94,-0.128,1.207,0.073
27.95,-0.076,0.641,0.152
27.96,-0.333,1.09,0.047
27.97,-0.336,0.905,-0.188
27.98,-0.092,1.163,-0.064
27.99,-0.098,0.83,0.098
28.0,-0.107,0.967,0.113
28.01,-0.328,1.0,-0.181
28.02,-0.273,0.919,-0.083
28.03,-0.131,1.249,0.04
28.04,-0.012,0.614,0.116
28.05,-0.352,1.117,0.005
28.06,-0.293,0.906,-0.183
28.07,-0.098,1.096,-0.028
28.08,-0.152,0.869,0.145
28.09,-0.115,1.0,0.074
28.1,-0.346,0.933,-0.211
28.11,-0.176,0.979,-0.075
28.12,-0.099,1.14,0.098
28.13,-0.081,0.698,0.113
28.14,-0.336,1.092,-0.069
28.15,-0.292,0.882,-0.149
28.16,-0.116,1.231,0.017
28.17,-0.175,0.753,0.133
28.18,-0.071,0.943,0.101
28.19,-0.461,1.065,-0.196
28.2,-0.222,0.88,0.002
28.21,-0.047,1.226,0.044
28.22,-0.116,0.635,0.077
28.23,-0.374,1.163,-0.007
28.24,-0.234,0.923,-0.198
28.25,-0.178,1.089,-0.021
28.26,-0.076,0.844,0.196
28.27,-0.156,0.86,0.035
28.28,-0.428,1.081,-0.23
28.29,-0.034,0.879,-0.081
28.3,-0.186,1.185,0.097
28.31,-0.123,0.65,0.184
28.32,-0.367,1.185,-0.079
28.33,-0.254,0.845,-0.17
28.34,-0.149,1.165,0.115
28.35,-0.147,0.951,0.136
28.36,-0.183,0.754,0.011
28.37,-0.437,1.265,-0.168
28.38,-0.076,0.863,-0.082
28.39,-0.163,1.141,0.069
28.4,-0.064,0.697,0.153
28.41,-0.394,1.128,-0.133
28.42,-0.279,0.871,-0.141
28.43,-0.082,1.1,0.143
28.44,-0.172,0.989,0.129
28.45,-0.24,0.688,0.028
28.46,-0.399,1.301,-0.172
28.47,-0.053,0.835,-0.072
28.48,-0.198,1.117,0.133
28.49,-0.059,0.711,0.151
28.5,-0.483,1.085,-0.175
28.51,-0.173,0.941,-0.131
28.52,-0.1,1.069,0.112
28.53,-0.136,0.986,0.104
28.54,-0.219,0.658,0.002
28.55,-0.417,1.349,-0.161
28.56,-0.137,0.822,-0.003
28.57,-0.25,1.082,0.132
28.58,-0.038,0.755,0.131
28.59,-0.425,1.021,-0.198
28.6,-0.202,1.034,-0.102
28.61,-0.057,1.007,0.075
28.62,-0.118,0.973,0.108
28.63,-0.236,0.667,-0.003
28.64,-0.373,1.39,-0.159
28.65,-0.056,0.791,-0.002
28.66,-0.221,1.041,0.132
28.67,-0.055,0.846,0.104
28.68,-0.46,0.958,-0.188
28.69,-0.217,1.075,-0.082
28.7,0.021,0.908,0.085
28.71,-0.196,1.021,0.15
28.72,-0.332,0.678,0.007
28.73,-0.275,1.257,-0.203
28.74,-0.099,0.894,0.026
28.75,-0.174,0.976,0.215
28.76,-0.092,0.886,0.029
28.77,-0.441,0.917,-0.216
28.78,-0.187,1.214,-0.011
28.79,-0.058,0.827,0.063
28.8,-0.256,1.002,0.142
28.81,-0.208,0.799,-0.076
28.82,-0.289,1.181,-0.174
28.83,-0.169,0.923,0.073
28.84,-0.045,0.921,0.146
28.85,-0.19,0.97,0.002
28.86,-0.496,0.872,-0.151
28.87,-0.139,1.231,-0.038
28.88,-0.114,0.754,0.095
28.89,-0.209,1.026,0.169
28.9,-0.242,0.801,-0.181
28.91,-0.333,1.216,-0.136
28.92,-0.079,0.917,0.131
28.93,-0.084,0.974,0.103
28.94,-0.29,0.818,-0.01
28.95,-0.326,0.981,-0.144
28.96,-0.135,1.216,-0.035
28.97,-0.253,0.659,0.12
28.98,-0.057,1.079,0.09
28.99,-0.407,0.834,-0.19
29.0,-0.259,1.085,-0.043
29.01,0.058,1.061,0.061
29.02,-0.201,0.762,0.069
29.03,-0.286,0.97,0.021
29.04,-0.252,1.011,-0.225
29.05,-0.193,1.166,-0.034
29.06,-0.145,0.741,0.232
29.07,-0.113,1.039,0.02
29.08,-0.471,0.865,-0.224
29.09,-0.061,1.086,-0.047
29.1,-0.105,1.018,0.076
29.11,-0.208,0.716,0.191
29.12,-0.229,1.131,-0.047
29.13,-0.347,0.85,-0.171
29.14,-0.198,1.2,0.052
29.15,-0.028,0.815,0.14
29.16,-0.204,0.947,0.025
29.17,-0.423,0.974,-0.188
29.18,-0.072,1.069,-0.05
29.19,-0.204,1.004,0.096
29.2,-0.129,0.675,0.176
29.21,-0.286,1.174,-0.151
29.22,-0.263,0.805,-0.151
29.23,-0.115,1.26,0.111
29.24,-0.047,0.769,0.09
29.25,-0.265,0.928,0.033
29.26,-0.347,1.066,-0.147
29.27,-0.133,0.998,-0.052
29.28,-0.196,1.029,0.088
29.29,-0.033,0.698,0.18
29.3,-0.455,1.192,-0.191
29.31,-0.231,0.766,-0.138
29.32,-0.007,1.277,0.085
29.33,-0.135,0.738,0.128
29.34,-0.291,0.92,0.045
29.35,-0.353,1.174,-0.221
29.36,-0.111,0.826,-0.02
29.37,-0.184,1.143,0.162
29.38,-0.121,0.709,0.12
29.39,-0.488,1.161,-0.228
29.4,-0.15,0.873,-0.018
29.41,-0.125,1.152,0.076
29.42,-0.091,0.777,0.15
29.43,-0.328,0.872,0.003
29.44,-0.281,1.208,-0.2
29.45,-0.112,0.846,-0.001
29.46,-0.197,1.135,0.154
29.47,-0.033,0.666,0.072
29.48,-0.564,1.17,-0.184
29.49,-0.15,0.919,0.007
29.5,-0.115,1.11,0.089
29.51,-0.214,0.804,0.163
29.52,-0.291,0.825,-0.053
29.53,-0.227,1.29,-0.224
29.54,-0.142,0.79,-0.017
29.55,-0.104,1.14,0.179
29.56,-0.073,0.683,0.027
29.57,-0.571,1.128,-0.175
29.58,-0.055,1.031,-0.055
29.59,-0.073,0.974,0.06
29.6,-0.223,0.906,0.155
29.61,-0.212,0.827,-0.101
29.62,-0.278,1.261,-0.138
29.63,-0.201,0.862,0.122
29.64,-0.049,1.08,0.107
29.65,-0.136,0.724,-0.049
29.66,-0.484,1.082,-0.092
29.67,-0.102,1.078,-0.078
29.68,-0.113,0.82,0.128
29.69,-0.151,1.028,0.193
29.7,-0.355,0.74,-0.169
29.71,-0.277,1.198,-0.121
29.72,-0.041,0.934,0.025
29.73,-0.071,0.987,0.087
29.74,-0.216,0.732,0.026
29.75,-0.326,1.275,-0.254
29.76,-0.114,0.928,-0.022
29.77,-0.206,0.954,0.204
29.78,-0.117,0.957,0.037
29.79,-0.351,0.807,-0.175
29.8,-0.156,1.293,-0.09
29.81,-0.1,0.809,0.066
29.82,-0.158,0.947,0.168
29.83,-0.25,0.824,-0.007
29.84,-0.287,1.127,-0.228
29.85,-0.104,1.018,0.018
29.86,-0.182,0.907,0.192
29.87,-0.133,0.957,0.012
29.88,-0.398,0.833,-0.167
29.89,-0.101,1.284,-0.038
29.9,-0.115,0.795,0.095
29.91,-0.207,0.909,0.167
29.92,-0.198,0.933,-0.105
29.93,-0.337,0.968,-0.154
29.94,-0.166,1.111,0.105
29.95,-0.022,0.849,0.137
29.96,-0.242,0.985,0.013
29.97,-0.397,0.848,-0.129
29.98,-0.115,1.255,-0.112
29.99,-0.226,0.774,0.125
30.0,-0.156,0.918,0.222
30.01,-0.341,1.041,-0.128
30.02,-0.304,0.829,-0.16
30.03,-0.153,1.223,0.101
30.04,-0.015,0.776,0.124
30.05,-0.267,1.016,0.024
30.06,-0.342,0.856,-0.142
30.07,-0.084,1.226,-0.115
30.08,-0.171,0.826,0.093
30.09,-0.068,0.84,0.209
30.1,-0.405,1.058,-0.143
30.11,-0.325,0.836,-0.143
30.12,-0.026,1.311,0.051
30.13,-0.033,0.655,0.066
30.14,-0.36,1.012,0.085
30.15,-0.232,0.997,-0.211
30.16,-0.117,1.104,-0.07
30.17,-0.281,0.822,0.171
30.18,-0.015,0.817,0.14
30.19,-0.436,1.167,-0.17
30.2,-0.327,0.774,-0.056
30.21,-0.05,1.311,0.057
30.22,-0.09,0.662,0.135
30.23,-0.31,0.995,0.034
30.24,-0.177,0.994,-0.217
30.25,-0.164,1.01,-0.024
30.26,-0.206,0.994,0.198
30.27,-0.034,0.769,0.101
30.28,-0.478,1.166,-0.194
30.29,-0.236,0.831,-0.023
30.3,-0.109,1.323,0.035
30.31,-0.143,0.649,0.138
30.32,-0.277,1.0,0.004
30.33,-0.273,1.068,-0.219
30.34,-0.173,0.947,-0.02
30.35,-0.101,1.091,0.138
30.36,-0.016,0.659,0.05
30.37,-0.507,1.191,-0.158
30.38,-0.17,0.875,-0.055
30.39,-0.133,1.222,0.033
30.4,-0.108,0.694,0.144
30.41,-0.258,0.991,-0.003
30.42,-0.38,1.135,-0.235
30.43,-0.079,0.841,-0.021
30.44,-0.109,1.151,0.149
30.45,-0.062,0.625,0.045
30.46,-0.509,1.196,-0.177
30.47,-0.116,0.9,-0.057
30.48,-0.135,1.151,0.092
30.49,-0.183,0.761,0.159
30.5,-0.237,0.89,-0.036
30.51,-0.324,1.159,-0.192
30.52,-0.216,1.038,0.136
30.53,-0.096,1.081,0.128
30.54,-0.165,0.634,0.027
30.55,-0.448,1.288,-0.161
30.56,-0.084,0.899,-0.072
30.57,-0.262,1.071,0.067
30.58,-0.072,0.737,0.22
30.59,-0.332,1.054,-0.101
30.6,-0.27,0.979,-0.164
30.61,-0.138,0.976,0.091
30.62,-0.119,1.106,0.107
30.63,-0.153,0.601,0.035
30.64,-0.459,1.347,-0.167
30.65,-0.173,0.894,-0.077
30.66,-0.149,0.991,0.053
30.67,-0.173,0.807,0.215
30.68,-0.343,0.956,-0.121
30.69,-0.355,1.032,-0.11
30.7,-0.123,0.958,0.135
30.71,-0.14,1.135,0.103
30.72,-0.208,0.641,0.013
30.73,-0.414,1.278,-0.156
30.74,-0.059,0.944,-0.124
30.75,-0.143,0.958,0.087
30.76,-0.161,0.882,0.205
30.77,-0.309,0.895,-0.137
30.78,-0.299,1.089,-0.194
30.79,-0.037,0.889,0.118
30.8,-0.128,1.123,0.145
30.81,-0.3,0.687,-0.021
30.82,-0.356,1.232,-0.161
30.83,-0.085,0.949,-0.068
30.84,-0.187,0.91,0.133
30.85,-0.078,0.968,0.183
30.86,-0.331,0.816,-0.165
30.87,-0.332,1.154,-0.122
30.88,-0.006,0.929,0.083
30.89,-0.16,1.052,0.125
30.9,-0.281,0.702,0.012
30.91,-0.38,1.219,-0.15
30.92,-0.106,0.991,-0.073
30.93,-0.256,0.838,0.189
30.94,-0.038,1.023,0.101
30.95,-0.341,0.771,-0.203
30.96,-0.287,1.237,-0.063
30.97,0.035,0.94,-0.004
30.98,-0.122,0.971,0.139
30.99,-0.245,0.806,0.04
31.0,-0.328,1.124,-0.197
31.01,-0.131,0.981,-0.042
31.02,-0.182,0.808,0.204
31.03,-0.147,1.059,0.116
31.04,-0.312,0.728,-0.217
31.05,-0.244,1.233,-0.03
31.06,-0.042,0.981,0.05
31.07,-0.159,0.882,0.14
31.08,-0.321,0.862,0.015
31.09,-0.252,1.055,-0.195
31.1,-0.141,1.129,-0.071
31.11,-0.22,0.724,0.191
31.12,-0.106,1.063,0.152
31.13,-0.353,0.814,-0.179
31.14,-0.27,1.121,-0.112
31.15,0.037,0.955,0.06
31.16,-0.125,0.856,0.168
31.17,-0.323,0.966,-0.011
31.18,-0.319,0.979,-0.157
31.19,-0.167,1.207,0.012
31.2,-0.181,0.749,0.136
31.21,-0.153,1.031,0.11
31.22,-0.282,0.852,-0.191
31.23,-0.272,1.162,-0.058
31.24,-0.104,0.962,0.056
31.25,-0.085,0.777,0.163
31.26,-0.287,1.049,-0.012
31.27,-0.341,0.897,-0.21
31.28,-0.137,1.164,0.001
31.29,-0.174,0.744,0.165
31.3,-0.157,1.017,0.09
31.31,-0.364,0.9,-0.215
31.32,-0.218,1.052,-0.029
31.33,-0.028,1.093,0.062
31.34,-0.16,0.689,0.139
31.35,-0.251,1.029,-0.023
31.36,-0.292,0.949,-0.214
31.37,-0.155,1.134,-0.008
31.38,-0.042,0.762,0.175
31.39,-0.181,1.024,0.025
31.4,-0.428,0.819,-0.185
31.41,-0.069,1.197,-0.054
31.42,-0.138,0.941,0.07
31.43,-0.227,0.736,0.196
31.44,-0.204,1.127,-0.065
31.45,-0.291,0.898,-0.179
31.46,-0.271,1.167,0.043
31.47,-0.027,0.768,0.16
31.48,-0.155,1.0,0.028
31.49,-0.488,0.909,-0.171
31.5,-0.059,1.047,-0.086
31.51,-0.173,0.987,0.099
31.52,-0.15,0.738,0.189
31.53,-0.305,1.167,-0.078
31.54,-0.33,0.794,-0.172
31.55,-0.137,1.199,0.055
31.56,-0.047,0.783,0.128
31.57,-0.145,0.942,0.028
31.58,-0.434,0.969,-0.177
31.59,-0.075,1.022,-0.05
31.6,-0.24,1.063,0.098
31.61,-0.188,0.66,0.174
31.62,-0.311,1.216,-0.069
31.63,-0.267,0.807,-0.19
31.64,-0.227,1.183,0.065
31.65,0.012,0.838,0.136
31.66,-0.167,0.88,0.008
31.67,-0.408,1.019,-0.205
31.68,0.047,0.985,-0.114
31.69,-0.222,1.108,0.048
31.7,-0.124,0.663,0.231
31.71,-0.317,1.23,-0.118
31.72,-0.311,0.746,-0.21
31.73,-0.167,1.198,0.13
31.74,-0.032,0.907,0.124
31.75,-0.276,0.825,0.054
31.76,-0.372,1.137,-0.216
31.77,-0.042,0.916,-0.107
31.78,-0.209,1.086,0.059
31.79,-0.126,0.668,0.24
31.8,-0.355,1.215,-0.138
31.81,-0.316,0.79,-0.141
31.82,-0.147,1.138,0.101
31.83,0.005,0.944,0.115
31.84,-0.275,0.763,0.02
31.85,-0.445,1.229,-0.161
31.86,-0.011,0.903,-0.093
31.87,-0.208,1.12,0.058
31.88,-0.081,0.665,0.171
31.89,-0.361,1.146,-0.158
31.9,-0.223,0.85,-0.171
31.91,-0.149,1.138,0.128
31.92,-0.117,0.985,0.147
31.93,-0.177,0.695,-0.005
31.94,-0.483,1.292,-0.122
31.95,-0.044,0.831,-0.073
31.96,-0.193,1.148,0.083
31.97,-0.055,0.734,0.167
31.98,-0.356,1.07,-0.182
31.99,-0.24,0.977,-0.146
32.0,-0.067,1.043,0.07
32.01,-0.096,0.981,0.125
32.02,-0.213,0.68,0.009
32.03,-0.405,1.329,-0.159
32.04,-0.066,0.811,-0.039
32.05,-0.274,1.124,0.127
32.06,0.009,0.789,0.161
32.07,-0.376,1.029,-0.206
32.08,-0.298,0.992,-0.146
32.09,0.006,0.995,0.102
32.1,-0.115,1.06,0.129
32.11,-0.277,0.634,0.03
32.12,-0.331,1.348,-0.208
32.13,-0.089,0.861,-0.04
32.14,-0.262,1.043,0.187
32.15,-0.059,0.845,0.142
32.16,-0.473,1.069,-0.202
32.17,-0.197,1.017,-0.017
32.18,-0.068,1.052,0.055
32.19,-0.205,0.925,0.142
32.2,-0.204,0.738,-0.004
32.21,-0.358,1.297,-0.19
32.22,-0.109,0.774,-0.022
32.23,-0.118,1.163,0.181
32.24,-0.099,0.73,0.095
32.25,-0.463,1.011,-0.168
32.26,-0.161,1.139,-0.038
32.27,-0.111,0.94,0.068
32.28,-0.166,0.947,0.145
32.29,-0.21,0.801,-0.021
32.3,-0.383,1.307,-0.211
32.31,-0.082,0.763,-0.019
32.32,-0.091,1.099,0.166
32.33,-0.111,0.819,0.076
32.34,-0.455,0.924,-0.18
32.35,-0.17,1.187,-0.057
32.36,-0.073,0.867,0.047
32.37,-0.175,0.962,0.156
32.38,-0.243,0.747,-0.017
32.39,-0.316,1.282,-0.236
32.4,-0.11,0.843,-0.022
32.41,-0.111,1.057,0.171
32.42,-0.052,0.871,0.085
32.43,-0.494,0.859,-0.176
32.44,-0.152,1.22,-0.029
32.45,-0.101,0.855,0.08
32.46,-0.226,0.991,0.166
32.47,-0.21,0.812,-0.021
32.48,-0.337,1.207,-0.182
32.49,-0.197,0.935,-0.005
32.5,-0.083,0.978,0.175
32.51,-0.13,0.928,0.051
32.52,-0.513,0.854,-0.097
32.53,-0.023,1.293,-0.13
32.54,-0.116,0.792,0.068
32.55,-0.168,0.99,0.152
32.56,-0.205,0.857,-0.077
32.57,-0.36,1.093,-0.175
32.58,-0.185,0.982,-0.03
32.59,-0.049,0.888,0.198
32.6,-0.186,1.024,0.099
32.61,-0.426,0.806,-0.208
32.62,-0.12,1.258,-0.08
32.63,-0.069,0.832,0.078
32.64,-0.2,0.942,0.2
32.65,-0.246,0.917,-0.043
32.66,-0.368,1.027,-0.189
32.67,-0.172,1.072,-0.01
32.68,-0.056,0.878,0.14
32.69,-0.176,0.992,0.042
32.7,-0.381,0.8,-0.151
32.71,-0.135,1.235,-0.031
32.72,-0.125,0.823,0.082
32.73,-0.186,0.854,0.179
32.74,-0.288,0.969,-0.029
32.75,-0.343,0.986,-0.191
32.76,-0.127,1.115,-0.032
32.77,-0.124,0.855,0.194
32.78,-0.114,1.024,0.036
32.79,-0.406,0.745,-0.167
32.8,-0.219,1.225,0.024
32.81,-0.094,0.923,0.05
32.82,-0.21,0.771,0.15
32.83,-0.243,1.053,-0.032
32.84,-0.267,0.958,-0.199
32.85,-0.231,1.14,0.036
32.86,-0.057,0.78,0.176
32.87,-0.125,1.048,0.047
32.88,-0.409,0.805,-0.158
32.89,-0.119,1.174,-0.052
32.9,-0.042,0.969,0.041
32.91,-0.203,0.727,0.158
32.92,-0.263,1.117,-0.059
32.93,-0.273,0.853,-0.167
32.94,-0.177,1.198,-0.001
32.95,-0.105,0.777,0.206
32.96,-0.158,1.026,0.057
32.97,-0.408,0.866,-0.169
32.98,-0.122,1.249,-0.084
32.99,-0.066,0.836,0.048
33.0,-0.139,0.847,0.218
33.01,-0.308,1.051,-0.081
33.02,-0.245,0.872,-0.148
33.03,-0.223,1.205,0.014
33.04,-0.124,0.779,0.2
33.05,-0.078,1.074,0.056
33.06,-0.415,0.847,-0.185
33.07,-0.157,1.08,-0.041
33.08,-0.136,0.982,0.078
33.09,-0.205,0.758,0.167
33.1,-0.257,1.098,-0.053
33.11,-0.198,0.87,-0.232
33.12,-0.224,1.215,0.043
33.13,-0.033,0.778,0.145
33.14,-0.119,1.005,0.041
33.15,-0.421,0.897,-0.163
33.16,-0.126,1.094,-0.057
33.17,-0.108,1.017,0.053
33.18,-0.189,0.754,0.161
33.19,-0.341,1.131,-0.03
33.2,-0.229,0.801,-0.214
33.21,-0.248,1.192,0.024
33.22,-0.129,0.761,0.164
33.23,-0.069,0.984,0.063
33.24,-0.41,0.95,-0.187
33.25,-0.245,0.974,-0.037
33.26,-0.014,1.154,0.034
33.27,-0.171,0.71,0.182
33.28,-0.347,1.11,-0.006
33.29,-0.213,0.828,-0.21
33.3,-0.243,1.165,0.012
33.31,-0.116,0.83,0.191
33.32,-0.043,0.937,0.05
33.33,-0.395,0.976,-0.198
33.34,-0.225,0.924,-0.047
33.35,-0.058,1.187,0.037
33.36,-0.095,0.645,0.181
33.37,-0.381,1.151,0.025
33.38,-0.242,0.881,-0.21
33.39,-0.161,1.111,-0.026
33.4,-0.213,0.866,0.18
33.41,-0.028,0.91,0.099
33.42,-0.365,1.054,-0.194
33.43,-0.318,0.819,-0.045
33.44,-0.044,1.321,0.046
33.45,-0.05,0.657,0.126
33.46,-0.435,1.031,0.032
33.47,-0.207,0.932,-0.178
33.48,-0.128,1.147,-0.089
33.49,-0.237,0.914,0.141
33.5,-0.045,0.791,0.115
33.51,-0.439,1.164,-0.12
33.52,-0.233,0.814,-0.081
33.53,-0.107,1.296,0.064
33.54,-0.089,0.627,0.147
33.55,-0.327,1.043,0.032
33.56,-0.404,0.997,-0.146
33.57,-0.107,0.99,-0.099
33.58,-0.184,1.009,0.121
33.59,-0.14,0.745,0.169
33.6,-0.386,1.165,-0.126
33.61,-0.245,0.771,-0.13
33.62,-0.197,1.305,0.075
33.63,-0.006,0.738,0.108
33.64,-0.249,0.963,0.005
33.65,-0.408,1.033,-0.17
33.66,-0.106,0.992,-0.05
33.67,-0.229,1.038,0.054
33.68,-0.112,0.701,0.221
33.69,-0.332,1.229,-0.135
33.7,-0.244,0.77,-0.156
33.71,-0.183,1.145,0.067
33.72,-0.044,0.85,0.152
33.73,-0.198,0.89,0.042
33.74,-0.423,1.084,-0.194
33.75,-0.041,0.909,-0.083
33.76,-0.188,1.176,0.098
33.77,-0.176,0.636,0.18
33.78,-0.287,1.185,-0.087
33.79,-0.243,0.802,-0.142
33.8,-0.212,1.257,0.075
33.81,-0.018,0.745,0.124
33.82,-0.24,0.981,0.014
33.83,-0.377,1.019,-0.187
33.84,-0.155,0.97,-0.068
33.85,-0.093,1.052,0.058
33.86,-0.202,0.684,0.191
33.87,-0.334,1.212,-0.048
33.88,-0.23,0.82,-0.173
33.89,-0.23,1.162,0.012
33.9,-0.049,0.829,0.182
33.91,-0.149,0.937,0.031
33.92,-0.437,1.037,-0.205
33.93,-0.13,0.899,-0.057
33.94,-0.068,1.156,0.026
33.95,-0.154,0.656,0.202
33.96,-0.354,1.159,-0.066
33.97,-0.235,0.828,-0.2
33.98,-0.227,1.147,0.061
33.99,-0.05,0.904,0.139
34.0,-0.166,0.828,0.085
34.01,-0.431,1.11,-0.19
34.02,-0.104,0.86,-0.061
34.03,-0.187,1.225,0.086
34.04,-0.098,0.64,0.145
34.05,-0.353,1.166,-0.006
34.06,-0.244,0.865,-0.203
34.07,-0.172,1.071,-0.001
34.08,-0.152,0.978,0.167
34.09,-0.115,0.763,0.081
34.1,-0.409,1.14,-0.162
34.11,-0.184,0.843,-0.019
34.12,-0.155,1.26,0.041
34.13,-0.069,0.615,0.186
34.14,-0.356,1.07,-0.016
34.15,-0.286,0.998,-0.205
34.16,-0.125,0.947,-0.024
34.17,-0.195,1.036,0.18
34.18,-0.057,0.753,0.079
34.19,-0.448,1.159,-0.204
34.2,-0.224,0.82,-0.014
34.21,-0.139,1.354,0.055
34.22,-0.02,0.674,0.115
34.23,-0.359,0.96,0.072
34.24,-0.283,1.091,-0.187
34.25,-0.157,0.924,-0.075
34.26,-0.194,1.072,0.137
34.27,-0.013,0.705,0.103
34.28,-0.405,1.178,-0.174
34.29,-0.23,0.786,-0.063
34.3,-0.073,1.254,0.05
34.31,-0.115,0.733,0.135
34.32,-0.291,0.91,0.006
34.33,-0.324,1.151,-0.155
34.34,-0.181,0.866,-0.04
34.35,-0.212,1.1,0.12
34.36,-0.034,0.695,0.153
34.37,-0.455,1.185,-0.151
34.38,-0.293,0.823,-0.1
34.39,-0.048,1.23,0.053
34.4,-0.062,0.848,0.114
34.41,-0.25,0.809,0.047
34.42,-0.395,1.229,-0.145
34.43,-0.06,0.826,-0.087
34.44,-0.238,1.123,0.111
34.45,-0.074,0.686,0.209
34.46,-0.432,1.141,-0.148
34.47,-0.301,0.845,-0.11
34.48,-0.14,1.118,0.089
34.49,-0.035,0.956,0.091
34.5,-0.216,0.71,0.067
34.51,-0.424,1.29,-0.211
34.52,-0.032,0.85,-0.08
34.53,-0.261,1.147,0.1
34.54,-0.107,0.701,0.18
34.55,-0.33,1.101,-0.109
34.56,-0.341,0.965,-0.138
34.57,-0.129,1.006,0.077
34.58,-0.081,1.06,0.125
34.59,-0.169,0.628,0.058
34.6,-0.415,1.274,-0.199
34.61,-0.043,0.869,-0.126
34.62,-0.251,1.101,0.113
34.63,-0.104,0.688,0.217
34.64,-0.375,1.165,-0.148
34.65,-0.311,0.845,-0.139
34.66,-0.182,1.132,0.145
34.67,-0.071,0.991,0.105
34.68,-0.193,0.661,0.012
34.69,-0.371,1.251,-0.156
34.7,-0.124,0.93,-0.076
34.71,-0.218,1.126,0.052
34.72,-0.109,0.695,0.23
34.73,-0.337,1.132,-0.122
34.74,-0.3,0.917,-0.153
34.75,-0.179,1.044,0.076
34.76,-0.077,1.062,0.114
34.77,-0.145,0.667,0.03
34.78,-0.485,1.255,-0.167
34.79,-0.007,0.865,-0.102
34.8,-0.158,1.184,0.041
34.81,-0.09,0.696,0.177
34.82,-0.267,1.043,-0.103
34.83,-0.295,1.03,-0.162
34.84,-0.17,0.961,0.041
34.85,-0.118,1.112,0.145
34.86,-0.121,0.615,0.023
34.87,-0.437,1.251,-0.162
34.88,-0.069,0.948,-0.077
34.89,-0.194,1.095,0.072
34.9,-0.078,0.732,0.157
34.91,-0.331,0.953,-0.048
34.92,-0.289,1.107,-0.164
34.93,-0.184,0.862,0.034
34.94,-0.161,1.161,0.155
34.95,-0.11,0.667,0.05
34.96,-0.443,1.177,-0.194
34.97,-0.102,0.947,-0.048
34.98,-0.149,1.094,0.064
34.99,-0.049,0.798,0.128
35.0,-0.278,0.861,-0.049
35.01,-0.325,1.227,-0.187
35.02,-0.127,0.845,-0.003
35.03,-0.122,1.188,0.169
35.04,-0.079,0.636,0.06
35.05,-0.482,1.142,-0.158
35.06,-0.149,0.986,-0.076
35.07,-0.073,1.038,0.087
35.08,-0.106,0.845,0.168
35.09,-0.25,0.799,-0.072
35.1,-0.282,1.283,-0.191
35.11,-0.128,0.816,-0.0
35.12,-0.198,1.121,0.154
35.13,-0.045,0.72,0.055
35.14,-0.51,1.091,-0.185
35.15,-0.199,1.025,-0.028
35.16,-0.035,1.014,0.042
35.17,-0.098,0.929,0.111
35.18,-0.279,0.753,-0.016
35.19,-0.302,1.338,-0.185
35.2,-0.148,0.841,-0.054
35.21,-0.135,1.07,0.169
35.22,-0.067,0.757,0.049
35.23,-0.526,1.048,-0.178
35.24,-0.171,0.957,0.055
35.25,-0.171,0.763,0.226
35.26,-0.291,1.193,-0.116
35.27,-0.332,0.753,-0.158
35.28,-0.235,1.199,0.064
35.29,0.004,0.837,0.154
35.3,-0.234,0.955,0.021
35.31,-0.387,0.927,-0.16
35.32,-0.071,1.038,-0.103
35.33,-0.115,1.054,0.043
35.34,-0.18,0.676,0.229
35.35,-0.293,1.219,-0.085
35.36,-0.311,0.796,-0.156
35.37,-0.181,1.312,0.191
35.38,-0.07,0.77,0.129
35.39,-0.215,0.989,-0.006
35.4,-0.419,0.919,-0.142
35.41,-0.102,1.148,-0.089
35.42,-0.14,0.887,0.076
35.43,-0.117,0.787,0.221
35.44,-0.398,1.169,-0.144
35.45,-0.271,0.744,-0.138
35.46,-0.149,1.3,0.083
35.47,-0.042,0.759,0.132
35.48,-0.272,0.926,0.022
35.49,-0.391,1.01,-0.152
35.5,-0.078,1.064,-0.065
35.51,-0.205,0.958,0.081
35.52,-0.119,0.709,0.184
35.53,-0.399,1.245,-0.173
35.54,-0.214,0.716,-0.166
35.55,-0.141,1.274,0.126
35.56,-0.033,0.802,0.099
35.57,-0.224,0.891,-0.013
35.58,-0.454,1.083,-0.126
35.59,-0.053,0.967,-0.097
35.6,-0.165,1.067,0.041
35.61,-0.073,0.7,0.177
35.62,-0.366,1.199,-0.164
35.63,-0.315,0.783,-0.119
35.64,-0.002,1.251,0.074
35.65,-0.103,0.776,0.125
35.66,-0.308,0.841,0.058
35.67,-0.352,1.199,-0.162
35.68,-0.117,0.881,-0.055
35.69,-0.247,1.09,0.128
35.7,-0.061,0.69,0.218
35.71,-0.381,1.172,-0.221
35.72,-0.255,0.811,-0.126
35.73,-0.115,1.177,0.07
35.74,-0.062,0.856,0.106
35.75,-0.24,0.785,0.026
35.76,-0.465,1.258,-0.154
35.77,-0.043,0.839,-0.057
35.78,-0.228,1.104,0.12
35.79,-0.059,0.694,0.148
35.8,-0.395,1.144,-0.184
35.81,-0.302,0.87,-0.131
35.82,-0.108,1.117,0.123
35.83,-0.08,0.99,0.127
35.84,-0.288,0.718,-0.005
35.85,-0.411,1.255,-0.156
35.86,0.001,0.885,-0.077
35.87,-0.237,1.072,0.134
35.88,-0.112,0.741,0.185
35.89,-0.352,1.156,-0.221
35.9,-0.297,0.94,-0.079
35.91,-0.114,1.002,0.182
35.92,-0.083,1.029,0.123
35.93,-0.29,0.689,-0.061
35.94,-0.387,1.293,-0.137
35.95,-0.12,0.849,0.004
35.96,-0.246,1.062,0.135
35.97,0.03,0.795,0.082
35.98,-0.457,1.045,-0.226
35.99,-0.286,1.0,-0.03
36.0,-0.085,0.964,0.111
36.01,-0.197,0.995,0.116
36.02,-0.201,0.701,-0.039
36.03,-0.327,1.289,-0.155
36.04,-0.128,0.847,-0.016
36.05,-0.141,1.041,0.165
36.06,-0.015,0.822,0.037
36.07,-0.475,0.982,-0.175
36.08,-0.115,1.172,-0.057
36.09,-0.107,0.835,0.067
36.1,-0.234,1.027,0.177
36.11,-0.217,0.75,-0.056
36.12,-0.368,1.239,-0.16
36.13,-0.168,0.921,0.08
36.14,-0.124,1.055,0.176
36.15,-0.106,0.853,0.04
36.16,-0.408,0.91,-0.178
36.17,-0.117,1.249,-0.072
36.18,-0.107,0.83,0.069
36.19,-0.204,1.023,0.176
36.2,-0.281,0.776,-0.109
36.21,-0.298,1.226,-0.151
36.22,-0.132,0.898,0.074
36.23,-0.101,0.99,0.155
36.24,-0.22,0.82,0.021
36.25,-0.446,1.034,-0.133
36.26,-0.095,1.117,-0.051
36.27,-0.081,0.753,0.093
36.28,-0.206,1.076,0.128
36.29,-0.274,0.775,-0.135
36.3,-0.315,1.146,-0.142
36.31,-0.114,0.935,0.121
36.32,-0.073,0.933,0.114
36.33,-0.294,0.889,-0.023
36.34,-0.351,0.962,-0.156
36.35,-0.044,1.177,-0.022
36.36,-0.188,0.765,0.157
36.37,-0.14,1.069,0.16
36.38,-0.29,0.84,-0.213
36.39,-0.332,1.092,-0.108
36.4,-0.079,1.023,0.127
36.41,-0.135,0.873,0.118
36.42,-0.339,0.95,-0.04
36.43,-0.299,0.904,-0.16
36.44,-0.08,1.198,-0.029
36.45,-0.166,0.698,0.161
36.46,-0.089,1.066,0.123
36.47,-0.314,0.86,-0.222
36.48,-0.263,1.066,-0.037
36.49,-0.062,1.123,0.112
36.5,-0.148,0.722,0.107
36.51,-0.356,1.072,0.003
36.52,-0.279,0.948,-0.165
36.53,-0.161,1.198,0.034
36.54,-0.108,0.768,0.192
36.55,-0.116,1.018,0.083
36.56,-0.418,0.909,-0.203
36.57,-0.103,1.007,-0.065
36.58,-0.168,1.094,0.048
36.59,-0.116,0.633,0.134
36.6,-0.373,1.157,-0.05
36.61,-0.217,0.849,-0.183
36.62,-0.136,1.202,0.018
36.63,-0.134,0.775,0.184
36.64,-0.114,0.935,0.015
36.65,-0.425,1.013,-0.226
36.66,-0.096,0.956,-0.029
36.67,-0.129,1.115,0.089
36.68,-0.195,0.684,0.204
36.69,-0.38,1.163,-0.099
36.7,-0.266,0.813,-0.138
36.71,-0.143,1.22,0.14
36.72,-0.078,0.825,0.107
36.73,-0.24,0.811,0.029
36.74,-0.369,1.14,-0.166
36.75,-0.11,0.938,-0.009
36.76,-0.23,1.075,0.088
36.77,-0.023,0.706,0.152
36.78,-0.429,1.163,-0.139
36.79,-0.282,0.836,-0.126
36.8,-0.052,1.24,0.079
36.81,-0.128,0.87,0.121
36.82,-0.241,0.783,0.033
36.83,-0.417,1.294,-0.172
36.84,-0.121,0.82,-0.014
36.85,-0.246,1.091,0.147
36.86,-0.015,0.735,0.089
36.87,-0.448,1.135,-0.212
36.88,-0.221,0.919,-0.029
36.89,-0.071,1.137,0.036
36.9,-0.08,0.859,0.091
36.91,-0.261,0.795,0.051
36.92,-0.432,1.293,-0.242
36.93,-0.115,0.756,0.015
36.94,-0.154,1.232,0.153
36.95,-0.065,0.642,0.053
36.96,-0.494,1.071,-0.112
36.97,-0.062,1.062,-0.137
36.98,-0.117,0.953,0.071
36.99,-0.206,0.977,0.192
37.0,-0.302,0.896,-0.111
37.01,-0.25,1.087,-0.215
37.02,-0.11,0.935,0.121
37.03,-0.143,1.107,0.106
37.04,-0.12,0.623,0.066
37.05,-0.463,1.288,-0.158
37.06,-0.149,0.937,-0.111
37.07,-0.127,0.948,0.115
37.08,-0.137,0.915,0.153
37.09,-0.386,0.802,-0.149
37.1,-0.212,1.157,-0.187
37.11,-0.1,0.938,0.067
37.12,-0.133,1.052,0.146
37.13,-0.139,0.661,0.049
37.14,-0.479,1.25,-0.131
37.15,-0.039,0.974,-0.109
37.16,-0.113,0.87,0.086
37.17,-0.118,1.029,0.148
37.18,-0.337,0.764,-0.158
37.19,-0.288,1.159,-0.15
37.2,0.014,0.982,0.071
37.21,-0.193,1.022,0.103
37.22,-0.238,0.689,0.053
37.23,-0.355,1.195,-0.171
37.24,-0.144,1.013,-0.076
37.25,-0.161,0.804,0.177
37.26,-0.114,1.059,0.121
37.27,-0.308,0.768,-0.199
37.28,-0.325,1.225,-0.067
37.29,-0.005,0.906,0.032
37.3,-0.138,0.925,0.121
37.31,-0.23,0.825,0.03
37.32,-0.337,1.1,-0.203
37.33,-0.097,1.049,-0.044
37.34,-0.164,0.782,0.155
37.35,-0.096,1.032,0.095
37.36,-0.367,0.754,-0.198
37.37,-0.159,1.204,-0.111
37.38,-0.086,0.918,0.041
37.39,-0.153,0.88,0.186
37.4,-0.252,0.892,0.018
37.41,-0.352,1.012,-0.197
37.42,-0.169,1.143,0.014
37.43,-0.092,0.752,0.124
37.44,-0.164,1.084,0.074
37.45,-0.363,0.78,-0.172
37.46,-0.204,1.17,-0.07
37.47,-0.089,0.998,0.046
37.48,-0.19,0.754,0.133
37.49,-0.262,1.023,0.024
37.5,-0.268,0.955,-0.234
37.51,-0.134,1.107,0.021
37.52,-0.076,0.813,0.189
37.53,-0.191,1.036,0.053
37.54,-0.377,0.804,-0.176
37.55,-0.083,1.153,-0.059
37.56,-0.132,1.004,0.053
37.57,-0.147,0.711,0.159
37.58,-0.245,1.144,-0.055
37.59,-0.306,0.849,-0.193
37.6,-0.237,1.212,0.09
37.61,-0.024,0.803,0.125
37.62,-0.146,0.982,0.027
37.63,-0.402,0.949,-0.135
37.64,-0.073,1.07,-0.107
37.65,-0.18,0.987,0.048
37.66,-0.112,0.728,0.249
37.67,-0.304,1.195,-0.151
37.68,-0.35,0.739,-0.152
37.69,-0.156,1.251,0.105
37.7,-0.042,0.815,0.1
37.71,-0.222,0.914,0.048
37.72,-0.375,1.036,-0.172
37.73,-0.127,0.983,-0.063
37.74,-0.088,1.064,0.072
37.75,-0.142,0.693,0.183
37.76,-0.364,1.201,-0.08
37.77,-0.254,0.801,-0.202
37.78,-0.146,1.206,0.093
37.79,-0.095,0.845,0.144
37.8,-0.228,0.813,0.048
37.81,-0.342,1.046,-0.14
37.82,-0.178,1.039,-0.027
37.83,-0.191,0.938,0.129
37.84,-0.05,0.793,0.145
37.85,-0.385,1.148,-0.188
37.86,-0.237,0.77,-0.128
37.87,-0.111,1.3,0.114
37.88,-0.088,0.698,0.123
37.89,-0.244,0.942,0.006
37.9,-0.406,1.083,-0.174
37.91,-0.073,0.928,-0.034
37.92,-0.234,1.067,0.163
37.93,-0.105,0.72,0.161
37.94,-0.36,1.165,-0.19
37.95,-0.213,0.795,-0.094
37.96,-0.033,1.29,0.042
37.97,-0.092,0.736,0.135
37.98,-0.305,0.913,0.014
37.99,-0.326,1.167,-0.219
38.0,-0.153,0.882,0.004
38.01,-0.223,1.104,0.141
38.02,-0.019,0.691,0.07
38.03,-0.437,1.187,-0.191
38.04,-0.238,0.86,-0.014
38.05,-0.099,1.196,0.06
38.06,-0.115,0.765,0.106
38.07,-0.292,0.874,0.049
38.08,-0.358,1.196,-0.222
38.09,-0.097,0.795,-0.044
38.1,-0.138,1.183,0.127
38.11,-0.122,0.678,0.098
38.12,-0.476,1.104,-0.178
38.13,-0.198,0.938,-0.031
38.14,-0.104,1.147,0.108
38.15,-0.126,0.816,0.111
38.16,-0.236,0.796,0.003
38.17,-0.389,1.279,-0.226
38.18,-0.005,0.786,-0.026
38.19,-0.185,1.224,0.173
38.2,-0.104,0.675,0.113
38.21,-0.431,1.109,-0.204
38.22,-0.146,1.023,-0.065
38.23,-0.125,0.983,0.079
38.24,-0.11,0.916,0.15
38.25,-0.263,0.807,-0.003
38.26,-0.414,1.211,-0.194
38.27,-0.146,0.784,0.012
38.28,-0.043,1.212,0.089
38.29,-0.146,0.698,0.087
38.3,-0.411,1.037,-0.183
38.31,-0.108,1.114,-0.096
38.32,-0.087,0.886,0.063
38.33,-0.158,0.964,0.182
38.34,-0.288,0.758,-0.079
38.35,-0.337,1.229,-0.172
38.36,-0.089,0.831,0.001
38.37,-0.109,1.106,0.162
38.38,-0.092,0.788,0.086
38.39,-0.443,1.007,-0.152
38.4,-0.221,1.159,-0.036
38.41,-0.008,0.871,0.089
38.42,-0.227,1.027,0.163
38.43,-0.29,0.74,-0.047
38.44,-0.276,1.231,-0.219
38.45,-0.112,0.911,0.057
38.46,-0.149,1.026,0.143
38.47,-0.132,0.835,0.059
38.48,-0.459,0.943,-0.147
38.49,-0.198,1.189,-0.057
38.5,-0.077,0.773,0.109
38.51,-0.199,1.032,0.161
38.52,-0.273,0.756,-0.066
38.53,-0.37,1.16,-0.151
38.54,-0.07,0.951,0.029
38.55,-0.122,0.957,0.124
38.56,-0.134,0.913,0.023
38.57,-0.433,0.934,-0.16
38.58,-0.161,1.23,-0.081
38.59,-0.103,0.765,0.091
38.6,-0.183,1.041,0.192
38.61,-0.271,0.835,-0.113
38.62,-0.319,1.054,-0.151
38.63,-0.065,0.978,0.099
38.64,-0.122,0.926,0.137
38.65,-0.201,0.845,-0.007
38.66,-0.355,1.053,-0.177
38.67,-0.106,1.14,-0.075
38.68,-0.159,0.773,0.183
38.69,-0.221,1.122,0.151
38.7,-0.235,0.749,-0.199
38.71,-0.279,1.149,-0.134
38.72,-0.141,1.029,0.068
38.73,-0.088,0.861,0.161
38.74,-0.24,0.913,0.014
38.75,-0.424,0.975,-0.107
38.76,-0.162,1.218,-0.032
38.77,-0.198,0.734,0.123
38.78,-0.121,1.08,0.116
38.79,-0.314,0.799,-0.135
38.8,-0.298,1.052,-0.138
38.81,-0.073,1.07,0.069
38.82,-0.041,0.805,0.132
38.83,-0.279,1.014,0.023
38.84,-0.306,0.918,-0.171
38.85,-0.084,1.186,-0.055
38.86,-0.214,0.746,0.188
38.87,-0.107,0.991,0.112
38.88,-0.369,0.893,-0.184
38.89,-0.237,1.09,-0.071
38.9,-0.119,1.127,0.044
38.91,-0.106,0.604,0.132
38.92,-0.232,1.092,0.028
38.93,-0.297,0.971,-0.201
38.94,-0.156,1.12,-0.055
38.95,-0.161,0.743,0.15
38.96,-0.107,0.986,0.13
38.97,-0.41,0.996,-0.164
38.98,-0.201,0.901,-0.136
38.99,-0.168,1.194,0.091
39.0,-0.063,0.702,0.128
39.01,-0.288,1.056,0.007
39.02,-0.347,0.896,-0.135
39.03,-0.092,1.231,-0.052
39.04,-0.123,0.755,0.063
39.05,-0.063,0.908,0.148
39.06,-0.456,1.059,-0.172
39.07,-0.293,0.839,-0.05
39.08,-0.098,1.303,0.07
39.09,-0.107,0.621,0.121
39.1,-0.241,1.101,0.028
39.11,-0.337,0.935,-0.193
39.12,-0.162,1.025,-0.056
39.13,-0.047,0.949,0.152
39.14,-0.144,0.819,0.117
39.15,-0.45,1.103,-0.173
39.16,-0.177,0.894,-0.051
39.17,-0.098,1.274,0.041
39.18,-0.145,0.616,0.171
39.19,-0.257,1.115,0.002
39.2,-0.38,0.948,-0.174
39.21,-0.205,1.019,0.034
39.22,-0.108,1.036,0.139
39.23,-0.076,0.744,0.061
39.24,-0.47,1.152,-0.16
39.25,-0.227,0.859,-0.015
39.26,-0.125,1.265,0.051
39.27,-0.167,0.613,0.137
39.28,-0.303,1.056,-0.01
39.29,-0.302,1.003,-0.199
39.3,-0.214,0.917,0.025
39.31,-0.122,1.058,0.16
39.32,-0.051,0.757,0.081
39.33,-0.447,1.127,-0.212
39.34,-0.239,0.823,-0.027
39.35,-0.047,1.292,0.053
39.36,-0.132,0.707,0.106
39.37,-0.317,0.97,0.017
39.38,-0.332,1.1,-0.187
39.39,-0.187,0.902,-0.054
39.4,-0.083,1.093,0.17
39.41,-0.084,0.693,0.075
39.42,-0.576,1.19,-0.171
39.43,-0.011,0.859,-0.076
39.44,-0.166,1.213,0.032
39.45,-0.133,0.667,0.255
39.46,-0.284,1.087,-0.11
39.47,-0.271,0.919,-0.173
39.48,-0.209,1.048,0.099
39.49,-0.01,1.066,0.097
39.5,-0.228,0.686,0.045
39.51,-0.417,1.251,-0.154
39.52,-0.057,0.869,-0.057
39.53,-0.199,1.155,0.076
39.54,-0.145,0.719,0.219
39.55,-0.292,1.03,-0.159
39.56,-0.241,0.96,-0.191
39.57,-0.158,1.057,0.096
39.58,-0.093,1.096,0.084
39.59,-0.138,0.652,0.016
39.6,-0.395,1.27,-0.14
39.61,-0.205,0.917,-0.086
39.62,-0.042,1.044,0.052
39.63,-0.116,0.8,0.205
39.64,-0.341,0.982,-0.114
39.65,-0.269,1.051,-0.182
39.66,-0.135,0.939,0.06
39.67,-0.116,1.188,0.123
39.68,-0.074,0.647,0.029
39.69,-0.439,1.22,-0.192
39.7,-0.103,0.952,-0.052
39.71,-0.138,1.024,0.075
39.72,-0.105,0.782,0.161
39.73,-0.324,0.942,-0.043
39.74,-0.314,1.154,-0.19
39.75,-0.212,0.815,0.089
39.76,-0.062,1.208,0.134
39.77,-0.112,0.655,0.003
39.78,-0.521,1.118,-0.151
39.79,-0.08,0.992,-0.029
39.8,-0.13,1.044,0.089
39.81,-0.235,0.879,0.2
39.82,-0.231,0.835,-0.117
39.83,-0.33,1.195,-0.192
39.84,-0.134,0.874,0.077
39.85,-0.053,1.161,0.1
39.86,-0.154,0.69,0.041
39.87,-0.458,1.114,-0.129
39.88,-0.062,1.06,-0.086
39.89,-0.159,0.905,0.085
39.9,-0.222,0.984,0.206
39.91,-0.238,0.806,-0.105
39.92,-0.344,1.229,-0.166
39.93,-0.205,0.85,0.106
39.94,-0.074,1.143,0.107
39.95,-0.103,0.715,0.006
39.96,-0.466,1.031,-0.125
39.97,-0.093,1.144,-0.1
39.98,-0.146,0.788,0.095
39.99,-0.227,1.02,0.174
40.0,-0.237,0.79,-0.141
40.01,-0.308,1.144,-0.176
40.02,-0.139,0.906,0.11
40.03,-0.062,1.095,0.152
40.04,-0.14,0.803,-0.01
40.05,-0.452,0.974,-0.102
40.06,-0.091,1.179,-0.11
40.07,-0.132,0.786,0.063
40.08,-0.229,1.054,0.174
40.09,-0.219,0.8,-0.127
40.1,-0.33,1.141,-0.148
40.11,-0.203,0.942,0.073
40.12,-0.061,0.984,0.155
40.13,-0.14,0.884,0.021
40.14,-0.413,0.898,-0.147
40.15,-0.107,1.252,-0.087
40.16,-0.08,0.785,0.053
40.17,-0.214,1.031,0.175
40.18,-0.229,0.814,-0.118
40.19,-0.312,1.096,-0.168
40.2,-0.175,0.996,0.029
40.21,-0.085,0.935,0.159
40.22,-0.113,0.928,0.015
40.23,-0.433,0.891,-0.126
40.24,-0.069,1.254,-0.087
40.25,-0.154,0.721,0.075
40.26,-0.199,1.058,0.203
40.27,-0.298,0.814,-0.172
40.28,-0.3,1.089,-0.161
40.29,-0.082,1.018,0.108
40.3,-0.116,0.969,0.157
40.31,-0.226,0.837,0.028
40.32,-0.416,0.995,-0.125
40.33,-0.115,1.213,-0.121
40.34,-0.127,0.72,0.095
40.35,-0.109,1.066,0.152
40.36,-0.277,0.856,-0.135
40.37,-0.31,1.045,-0.176
40.38,-0.076,1.022,0.077
40.39,-0.043,0.898,0.109
40.4,-0.207,0.957,0.045
40.41,-0.411,0.911,-0.152
40.42,-0.097,1.274,-0.097
40.43,-0.157,0.698,0.099
40.44,-0.221,1.014,0.186
40.45,-0.272,0.883,-0.139
40.46,-0.277,0.98,-0.165
40.47,-0.171,1.152,0.125
40.48,-0.094,0.802,0.112
40.49,-0.276,1.007,0.015
40.5,-0.387,0.886,-0.134
40.51,-0.125,1.251,-0.087
40.52,-0.129,0.702,0.083
40.53,-0.185,0.97,0.176
40.54,-0.238,0.986,-0.177
40.55,-0.298,0.949,-0.122
40.56,-0.168,1.163,0.143
40.57,-0.042,0.75,0.139
40.58,-0.284,1.031,-0.026
40.59,-0.396,0.912,-0.127
40.6,-0.113,1.2,-0.033
40.61,-0.185,0.766,0.116
40.62,-0.142,0.942,0.197
40.63,-0.318,1.031,-0.192
40.64,-0.307,0.839,-0.094
40.65,-0.004,1.259,0.082
40.66,-0.061,0.702,0.104
40.67,-0.353,1.037,0.006
40.68,-0.284,0.961,-0.138
40.69,-0.172,1.143,-0.04
40.7,-0.228,0.768,0.155
40.71,0.035,0.888,0.123
40.72,-0.451,1.109,-0.185
40.73,-0.323,0.78,-0.041
40.74,-0.001,1.318,0.029
40.75,-0.132,0.625,0.118
40.76,-0.329,1.039,0.031
40.77,-0.246,0.996,-0.235
40.78,-0.179,1.052,-0.03
40.79,-0.17,0.895,0.188
40.8,-0.032,0.794,0.119
40.81,-0.433,1.133,-0.183
40.82,-0.249,0.842,0.027
40.83,-0.062,1.282,-0.014
40.84,-0.153,0.589,0.184
40.85,-0.318,1.071,0.052
40.86,-0.253,1.047,-0.235
40.87,-0.196,0.932,-0.053
40.88,-0.187,1.029,0.239
40.89,0.011,0.779,0.056
40.9,-0.538,1.151,-0.199
40.91,-0.226,0.799,0.004
40.92,-0.088,1.334,0.032
40.93,-0.161,0.634,0.128
40.94,-0.269,0.985,0.051
40.95,-0.292,1.079,-0.268
40.96,-0.108,0.84,-0.024
40.97,-0.11,1.153,0.179
40.98,-0.082,0.654,0.05
40.99,-0.561,1.149,-0.16
41.0,-0.068,0.926,-0.019
41.01,-0.107,1.271,0.024
41.02,-0.206,0.675,0.129
41.03,-0.231,0.984,0.035
41.04,-0.304,1.162,-0.273
41.05,-0.177,0.76,0.038
41.06,-0.115,1.2,0.194
41.07,-0.174,0.671,0.03
41.08,-0.503,1.208,-0.154
41.09,-0.022,0.931,-0.092
41.1,-0.236,1.177,0.068
41.11,-0.136,0.643,0.202
41.12,-0.255,1.085,-0.122
41.13,-0.306,0.969,-0.178
41.14,-0.182,0.926,0.132
41.15,-0.049,1.13,0.118
41.16,-0.155,0.65,0.012
41.17,-0.44,1.264,-0.124
41.18,-0.147,0.913,-0.054
41.19,-0.203,1.095,0.046
41.2,-0.125,0.79,0.237
41.21,-0.292,0.967,-0.146
41.22,-0.374,0.996,-0.137
41.23,-0.085,0.942,0.063
41.24,-0.1,1.159,0.102
41.25,-0.142,0.589,0.044
41.26,-0.443,1.266,-0.149
41.27,-0.044,0.984,-0.117
41.28,-0.323,1.031,0.109
41.29,-0.076,0.843,0.174
41.3,-0.321,0.94,-0.148
41.31,-0.313,1.07,-0.142
41.32,-0.073,0.942,0.134
41.33,-0.091,1.122,0.097
41.34,-0.204,0.6,0.035
41.35,-0.387,1.31,-0.133
41.36,-0.106,0.968,-0.126
41.37,-0.217,0.934,0.115
41.38,-0.115,0.907,0.186
41.39,-0.316,0.883,-0.167
41.4,-0.33,1.161,-0.114
41.41,-0.102,0.876,0.086
41.42,-0.09,1.101,0.109
41.43,-0.222,0.675,0.047
41.44,-0.381,1.181,-0.185
41.45,-0.111,1.003,-0.083
41.46,-0.177,0.874,0.146
41.47,-0.149,0.998,0.152
41.48,-0.3,0.829,-0.193
41.49,-0.279,1.182,-0.154
41.5,-0.112,0.913,0.101
41.51,-0.124,1.048,0.14
41.52,-0.251,0.702,0.028
41.53,-0.387,1.178,-0.126
41.54,-0.138,1.08,-0.064
41.55,-0.199,0.76,0.14
41.56,-0.085,1.044,0.156
41.57,-0.369,0.826,-0.184
41.58,-0.28,1.172,-0.111
41.59,-0.029,0.954,0.079
41.6,-0.158,0.97,0.147
41.61,-0.237,0.808,0.041
41.62,-0.306,1.105,-0.198
41.63,-0.104,1.089,-0.052
41.64,-0.248,0.799,0.198
41.65,-0.06,1.035,0.069
41.66,-0.382,0.792,-0.186
41.67,-0.265,1.181,-0.057
41.68,-0.006,0.945,0.014
41.69,-0.086,0.85,0.138
41.7,-0.265,0.932,0.012
41.71,-0.286,1.009,-0.156
41.72,-0.135,1.149,-0.032
41.73,-0.168,0.704,0.163
41.74,-0.076,1.075,0.088
41.75,-0.404,0.854,-0.194
41.76,-0.225,1.088,-0.081
41.77,-0.016,1.041,0.036
41.78,-0.2,0.8,0.166
41.79,-0.271,0.983,-0.02
41.8,-0.218,0.959,-0.199
41.81,-0.229,1.196,0.006
41.82,-0.158,0.716,0.197
41.83,-0.124,1.06,0.056
41.84,-0.399,0.831,-0.253
41.85,-0.102,1.072,-0.025
41.86,-0.07,1.083,0.053
41.87,-0.196,0.667,0.123
41.88,-0.163,1.012,-0.103
41.89,-0.343,0.924,-0.15
41.9,-0.19,1.171,0.125
41.91,-0.017,0.78,0.119
41.92,-0.336,1.021,0.02
41.93,-0.349,0.875,-0.156
41.94,-0.145,1.145,-0.071
41.95,-0.176,0.865,0.112
41.96,-0.089,0.861,0.198
41.97,-0.289,1.062,-0.157
41.98,-0.321,0.807,-0.098
41.99,-0.185,1.343,0.133
42.0,-0.099,0.713,0.12
42.01,-0.27,0.972,0.024
42.02,-0.295,1.004,-0.142
42.03,-0.132,1.145,-0.05
42.04,-0.202,0.84,0.085
42.05,-0.042,0.764,0.215
42.06,-0.393,1.194,-0.187
42.07,-0.28,0.706,-0.159
42.08,-0.14,1.339,0.131
42.09,-0.059,0.743,0.1
42.1,-0.356,0.963,0.047
42.11,-0.268,1.016,-0.174
42.12,-0.168,1.036,-0.035
42.13,-0.143,0.916,0.119
42.14,-0.11,0.752,0.163
42.15,-0.438,1.185,-0.205
42.16,-0.228,0.74,-0.138
42.17,0.004,1.377,0.076
42.18,-0.148,0.685,0.102
42.19,-0.264,0.935,0.027
42.2,-0.245,1.111,-0.216
42.21,-0.167,0.94,-0.038
42.22,-0.26,1.006,0.212
42.23,0.044,0.731,0.102
42.24,-0.461,1.186,-0.222
42.25,-0.216,0.81,-0.029
42.26,-0.038,1.328,0.045
42.27,-0.172,0.708,0.148
42.28,-0.284,0.894,0.062
42.29,-0.307,1.239,-0.235
42.3,-0.156,0.812,-0.002
42.31,-0.225,1.138,0.174
42.32,0.001,0.701,0.092
42.33,-0.522,1.153,-0.191
42.34,-0.152,0.856,-0.042
42.35,-0.079,1.226,-0.004
42.36,-0.17,0.749,0.149
42.37,-0.232,0.843,0.071
42.38,-0.374,1.282,-0.252
42.39,-0.137,0.792,-0.026
42.4,-0.146,1.226,0.181
42.41,-0.16,0.632,0.096
42.42,-0.469,1.131,-0.154
42.43,-0.132,1.021,-0.054
42.44,-0.132,1.052,0.018
42.45,-0.093,0.815,0.123
42.46,-0.229,0.834,0.039
42.47,-0.411,1.239,-0.244
42.48,-0.121,0.743,0.024
42.49,-0.128,1.254,0.184
42.5,-0.142,0.645,0.056
42.51,-0.47,1.058,-0.114
42.52,-0.098,1.079,-0.073
42.53,-0.117,1.008,0.042
42.54,-0.074,0.872,0.137
42.55,-0.257,0.804,-0.042
42.56,-0.366,1.24,-0.212
42.57,-0.098,0.836,-0.009
42.58,-0.08,1.185,0.122
42.59,-0.164,0.703,0.08
42.6,-0.433,1.037,-0.154
42.61,-0.073,1.165,-0.085
42.62,-0.166,0.877,0.095
42.63,-0.184,0.957,0.146
42.64,-0.196,0.777,-0.053
42.65,-0.397,1.276,-0.193
42.66,-0.13,0.851,0.032
42.67,-0.115,1.133,0.175
42.68,-0.223,0.755,0.054
42.69,-0.447,1.0,-0.126
42.7,-0.076,1.053,-0.111
42.71,-0.189,0.867,0.045
42.72,-0.073,1.029,0.182
42.73,-0.288,0.827,-0.184
42.74,-0.387,1.082,-0.135
42.75,-0.001,0.934,0.112
42.76,-0.133,1.146,0.094
42.77,-0.166,0.639,0.026
42.78,-0.409,1.166,-0.159
42.79,-0.141,1.138,-0.116
42.8,-0.17,0.737,0.103
42.81,-0.099,1.06,0.224
42.82,-0.373,0.843,-0.186
42.83,-0.307,1.121,-0.124
42.84,-0.122,0.927,0.1
42.85,-0.095,1.059,0.121
42.86,-0.17,0.76,0.058
42.87,-0.369,1.099,-0.158
42.88,-0.136,1.172,-0.101
42.89,-0.197,0.703,0.069
42.9,-0.118,1.049,0.183
42.91,-0.354,0.814,-0.156
42.92,-0.349,1.07,-0.121
42.93,-0.061,1.016,0.172
42.94,-0.115,0.977,0.116
42.95,-0.272,0.801,-0.014
42.96,-0.366,1.04,-0.079
42.97,-0.14,1.227,-0.08
42.98,-0.235,0.648,0.1
42.99,-0.066,1.078,0.178
43.0,-0.389,0.863,-0.166
43.01,-0.353,1.046,-0.132
43.02,-0.031,1.05,0.111
43.03,-0.061,0.91,0.124
43.04,-0.359,0.906,0.014
43.05,-0.29,0.938,-0.127
43.06,-0.141,1.218,-0.04
43.07,-0.242,0.686,0.129
43.08,-0.063,1.05,0.147
43.09,-0.358,0.913,-0.207
43.1,-0.308,1.046,-0.105
43.11,-0.042,1.098,0.077
43.12,-0.1,0.726,0.122
43.13,-0.291,1.012,0.002
43.14,-0.283,0.956,-0.171
43.15,-0.165,1.188,-0.055
43.16,-0.22,0.708,0.12
43.17,-0.003,1.019,0.12
43.18,-0.427,0.947,-0.215
43.19,-0.251,0.963,-0.055
43.2,-0.07,1.223,0.054
43.21,-0.108,0.618,0.137
43.22,-0.294,1.106,0.018
43.23,-0.269,0.957,-0.216
43.24,-0.208,1.112,-0.017
43.25,-0.18,0.724,0.173
43.26,-0.062,0.974,0.133
43.27,-0.445,1.007,-0.201
43.28,-0.25,0.852,-0.06
43.29,-0.144,1.268,0.108
43.3,-0.135,0.601,0.166
43.31,-0.345,1.065,0.014
43.32,-0.185,0.975,-0.165
43.33,-0.161,1.176,-0.033
43.34,-0.183,0.761,0.165
43.35,-0.029,0.898,0.126
43.36,-0.457,1.06,-0.221
43.37,-0.278,0.832,0.005
43.38,-0.056,1.324,0.062
43.39,-0.116,0.619,0.097
43.4,-0.295,1.1,0.015
43.41,-0.266,0.934,-0.21
43.42,-0.124,1.076,-0.02
43.43,-0.114,0.943,0.189
43.44,-0.075,0.775,0.113
43.45,-0.523,1.115,-0.189
43.46,-0.057,0.878,-0.01
43.47,-0.221,1.232,0.077
43.48,-0.178,0.608,0.177
43.49,-0.258,1.156,-0.039
43.5,-0.265,0.936,-0.204
43.51,-0.239,1.206,0.105
43.52,-0.017,0.898,0.125
43.53,-0.101,0.804,-0.013
43.54,-0.467,1.106,-0.12
43.55,-0.037,0.966,-0.061
43.56,-0.22,1.087,0.013
43.57,-0.167,0.672,0.244
43.58,-0.104,0.878,-0.033
43.59,-0.241,0.968,0.208
43.6,-0.044,0.742,0.073
43.61,-0.474,1.163,-0.198
43.62,-0.301,0.852,0.019
43.63,-0.072,1.256,0.04
43.64,-0.138,0.684,0.124
43.65,-0.283,1.001,-0.049
43.66,-0.269,1.039,-0.205
43.67,-0.126,0.935,0.005
43.68,-0.188,1.08,0.17
43.69,-0.031,0.697,0.08
43.7,-0.489,1.202,-0.219
43.71,-0.18,0.818,-0.031
43.72,-0.072,1.235,0.053
43.73,-0.163,0.735,0.16
43.74,-0.315,0.954,-0.017
43.75,-0.212,1.111,-0.262
43.76,-0.147,0.929,-0.02
43.77,-0.173,1.104,0.174
43.78,0.016,0.673,0.066
43.79,-0.55,1.254,-0.2
43.8,-0.184,0.84,-0.015
43.81,-0.097,1.144,0.055
43.82,-0.179,0.802,0.146
43.83,-0.321,0.894,-0.029
43.84,-0.287,1.148,-0.202
43.85,-0.06,0.876,0.0
43.86,-0.163,1.186,0.194
43.87,-0.073,0.642,0.032
43.88,-0.559,1.17,-0.194
43.89,-0.034,0.944,-0.058
43.9,-0.097,1.064,0.041
43.91,-0.201,0.861,0.2
43.92,-0.335,0.892,-0.086
43.93,-0.262,1.149,-0.236
43.94,-0.054,0.891,0.113
43.95,-0.073,1.156,0.126
43.96,-0.186,0.659,-0.003
43.97,-0.462,1.194,-0.156
43.98,-0.165,0.996,-0.043
43.99,-0.205,0.94,0.102
44.0,-0.093,0.968,0.156
44.01,-0.34,0.832,-0.131
44.02,-0.327,1.166,-0.14
44.03,-0.067,0.933,0.087
44.04,-0.129,1.067,0.125
44.05,-0.158,0.725,0.031
44.06,-0.457,1.184,-0.155
44.07,-0.144,0.995,-0.082
44.08,-0.166,0.838,0.148
44.09,-0.117,1.038,0.144
44.1,-0.315,0.751,-0.166
44.11,-0.218,1.183,-0.165
44.12,-0.08,0.955,0.124
44.13,-0.097,0.949,0.11
44.14,-0.226,0.783,0.002
44.15,-0.429,1.133,-0.152
44.16,-0.082,1.082,-0.071
44.17,-0.214,0.752,0.144
44.18,-0.026,0.974,0.092
44.19,-0.365,0.841,-0.211
44.2,-0.276,1.228,-0.039
44.21,0.013,0.886,0.043
44.22,-0.189,0.99,0.138
44.23,-0.241,0.779,-0.007
44.24,-0.324,1.225,-0.227
44.25,-0.119,0.945,-0.061
44.26,-0.143,0.898,0.174
44.27,-0.076,1.025,0.057
44.28,-0.446,0.756,-0.197
44.29,-0.121,1.281,-0.06
44.3,-0.071,0.876,0.068
44.31,-0.264,0.936,0.173
44.32,-0.219,0.855,0.006
44.33,-0.341,1.113,-0.18
44.34,-0.205,1.072,-0.014
44.35,-0.11,0.829,0.184
44.36,-0.106,1.033,0.06
44.37,-0.45,0.83,-0.135
44.38,-0.154,1.261,-0.063
44.39,-0.07,0.807,0.06
44.4,-0.265,0.891,0.181
44.41,-0.277,0.959,-0.046
44.42,-0.276,0.968,-0.201
44.43,-0.155,1.121,0.028
44.44,-0.048,0.806,0.18
44.45,-0.182,0.999,0.022
44.46,-0.394,0.866,-0.167
44.47,-0.08,1.249,-0.103
44.48,-0.082,0.821,0.056
44.49,-0.211,0.834,0.219
44.5,-0.282,1.073,-0.104
44.51,-0.313,0.863,-0.189
44.52,-0.223,1.191,0.067
44.53,-0.039,0.747,0.132
44.54,-0.2,1.009,0.015
44.55,-0.407,0.877,-0.184
44.56,-0.042,1.155,-0.089
44.57,-0.157,0.904,0.082
44.58,-0.205,0.778,0.222
44.59,-0.308,1.12,-0.117
44.6,-0.266,0.814,-0.159
44.61,-0.095,1.322,0.09
44.62,-0.073,0.713,0.119
44.63,-0.252,0.957,0.029
44.64,-0.4,1.005,-0.14
44.65,-0.171,1.043,-0.06
44.66,-0.199,0.952,0.076
44.67,-0.143,0.782,0.179
44.68,-0.352,1.164,-0.162
44.69,-0.315,0.755,-0.138
44.7,-0.096,1.295,0.095
44.71,-0.099,0.746,0.111
44.72,-0.258,0.929,0.036
44.73,-0.417,1.066,-0.132
44.74,-0.143,0.964,-0.035
44.75,-0.201,1.037,0.1
44.76,-0.078,0.7,0.146
44.77,-0.392,1.19,-0.152
44.78,-0.31,0.827,-0.118
44.79,-0.037,1.305,0.091
44.8,-0.143,0.73,0.143
44.81,-0.272,0.874,0.038
44.82,-0.342,1.174,-0.193
44.83,-0.151,0.88,-0.043
44.84,-0.268,1.067,0.144
44.85,0.001,0.694,0.163
44.86,-0.425,1.188,-0.189
44.87,-0.239,0.801,-0.093
44.88,-0.085,1.251,0.087
44.89,-0.133,0.79,0.131
44.9,-0.237,0.818,0.025
44.91,-0.294,1.278,-0.233
44.92,-0.134,0.831,-0.067
44.93,-0.193,1.125,0.122
44.94,-0.093,0.711,0.162
44.95,-0.426,1.105,-0.162
44.96,-0.215,0.878,-0.092
44.97,-0.045,1.191,0.072
44.98,-0.144,0.831,0.123
44.99,-0.323,0.934,0.048
45.0,-0.26,1.157,-0.239
45.01,-0.084,0.856,-0.036
45.02,-0.275,1.07,0.206
45.03,-0.02,0.704,0.077
45.04,-0.49,1.212,-0.198
45.05,-0.264,0.828,0.018
45.06,-0.07,1.224,0.047
45.07,-0.121,0.769,0.122
45.08,-0.312,0.869,0.033
45.09,-0.298,1.204,-0.196
45.1,-0.091,0.825,-0.032
45.11,-0.203,1.104,0.173
45.12,-0.053,0.644,0.112
45.13,-0.534,1.217,-0.19
45.14,-0.198,0.915,0.031
45.15,-0.172,1.111,0.069
45.16,-0.114,0.857,0.137
45.17,-0.278,0.858,-0.01
45.18,-0.351,1.208,-0.205
45.19,-0.099,0.827,-0.008
45.2,-0.118,1.196,0.171
45.21,-0.08,0.647,0.074
45.22,-0.525,1.136,-0.173
45.23,-0.012,0.973,-0.112
45.24,-0.102,1.009,0.056
45.25,-0.179,0.935,0.193
45.26,-0.277,0.856,-0.062
45.27,-0.375,1.222,-0.211
45.28,-0.106,0.809,0.013
45.29,-0.136,1.204,0.132
45.3,-0.058,0.683,0.038
45.31,-0.498,1.072,-0.161
45.32,-0.128,1.086,-0.067
45.33,-0.112,0.923,0.079
45.34,-0.17,0.937,0.134
45.35,-0.284,0.864,-0.077
45.36,-0.347,1.2,-0.132
45.37,-0.218,0.842,0.074
45.38,-0.098,1.156,0.13
45.39,-0.094,0.656,0.013
45.4,-0.534,1.179,-0.132
45.41,-0.038,1.004,-0.085
45.42,-0.104,0.953,0.066
45.43,-0.165,0.906,0.204
45.44,-0.223,0.823,-0.129
45.45,-0.355,1.216,-0.152
45.46,-0.18,0.85,0.072
45.47,-0.053,1.136,0.123
45.48,-0.14,0.653,0.045
45.49,-0.471,1.144,-0.152
45.5,-0.072,1.065,-0.039
45.51,-0.168,0.886,0.075
45.52,-0.197,0.985,0.198
45.53,-0.277,0.815,-0.118
45.54,-0.339,1.233,-0.159
45.55,-0.13,0.866,0.067
45.56,-0.127,1.115,0.151
45.57,-0.14,0.754,0.037
45.58,-0.492,1.049,-0.163
45.59,-0.037,1.138,-0.086
45.6,-0.09,0.854,0.036
45.61,-0.197,0.996,0.193
45.62,-0.282,0.765,-0.139
45.63,-0.269,1.155,-0.18
45.64,-0.187,0.933,0.15
45.65,-0.104,1.029,0.127
45.66,-0.159,0.799,0.009
45.67,-0.397,1.013,-0.124
45.68,-0.172,1.19,-0.063
45.69,-0.117,0.75,0.052
45.7,-0.142,1.093,0.19
45.71,-0.253,0.822,-0.126
45.72,-0.331,1.13,-0.19
45.73,-0.037,0.994,0.058
45.74,-0.091,0.915,0.134
45.75,-0.178,0.892,0.026
45.76,-0.412,0.997,-0.135
45.77,-0.171,1.184,-0.089
45.78,-0.127,0.729,0.087
45.79,-0.146,1.111,0.179
45.8,-0.258,0.83,-0.163
45.81,-0.296,1.127,-0.094
45.82,-0.059,0.971,0.075
45.83,-0.079,0.977,0.142
45.84,-0.272,0.825,0.036
45.85,-0.348,1.021,-0.154
45.86,-0.167,1.13,-0.098
45.87,-0.223,0.761,0.148
45.88,-0.095,1.093,0.196
45.89,-0.295,0.773,-0.197
45.9,-0.3,1.105,-0.111
45.91,-0.082,1.035,0.096
45.92,-0.099,0.896,0.14
45.93,-0.286,0.881,0.088
45.94,-0.367,0.988,-0.133
45.95,-0.188,1.237,-0.071
45.96,-0.176,0.721,0.086
45.97,-0.142,1.083,0.151
45.98,-0.269,0.876,-0.157
45.99,-0.29,1.072,-0.175
46.0,-0.127,1.021,0.09
46.01,-0.027,0.864,0.132
46.02,-0.22,1.007,0.035
46.03,-0.348,0.902,-0.16
46.04,-0.134,1.208,-0.138
46.05,-0.202,0.713,0.105
46.06,-0.157,1.016,0.16
46.07,-0.3,0.913,-0.119
46.08,-0.348,0.99,-0.119
46.09,-0.161,1.122,0.084
46.1,-0.065,0.859,0.154
46.11,-0.24,0.973,0.034
46.12,-0.353,0.863,-0.172
46.13,-0.166,1.271,-0.054
46.14,-0.147,0.755,0.076
46.15,-0.167,0.947,0.192
46.16,-0.253,1.01,-0.104
46.17,-0.306,0.915,-0.172
46.18,-0.188,1.106,0.054
46.19,0.006,0.815,0.127
46.2,-0.204,1.015,0.004
46.21,-0.391,0.847,-0.136
46.22,-0.058,1.197,-0.117
46.23,-0.174,0.797,0.053
46.24,-0.161,0.867,0.225
46.25,-0.29,1.065,-0.122
46.26,-0.354,0.848,-0.135
46.27,-0.201,1.159,0.063
46.28,-0.049,0.816,0.199
46.29,-0.265,1.027,0.049
46.3,-0.371,0.823,-0.133
46.31,-0.138,1.205,-0.102
46.32,-0.12,0.875,0.047
46.33,-0.12,0.793,0.212
46.34,-0.296,1.118,-0.12
46.35,-0.332,0.813,-0.125
46.36,-0.164,1.202,0.027
46.37,-0.095,0.786,0.176
46.38,-0.2,1.027,0.07
46.39,-0.344,0.879,-0.219
46.4,-0.137,1.087,-0.065
46.41,-0.144,0.994,0.019
46.42,-0.097,0.695,0.159
46.43,-0.335,1.171,-0.069
46.44,-0.232,0.826,-0.15
46.45,-0.233,1.211,0.045
46.46,-0.1,0.817,0.179
46.47,-0.129,0.976,0.044
46.48,-0.402,0.92,-0.198
46.49,-0.049,1.008,-0.043
46.5,-0.179,1.105,0.046
46.51,-0.12,0.628,0.221
46.52,-0.343,1.181,-0.031
46.53,-0.25,0.863,-0.194
46.54,-0.205,1.15,-0.006
46.55,-0.053,0.836,0.159
46.56,-0.156,0.933,0.072
46.57,-0.429,1.0,-0.2
46.58,-0.135,0.948,-0.057
46.59,-0.142,1.175,0.028
46.6,-0.15,0.598,0.163
46.61,-0.264,1.184,-0.044
46.62,-0.26,0.764,-0.199
46.63,-0.21,1.187,0.093
46.64,-0.018,0.833,0.148
46.65,-0.207,0.967,0.011
46.66,-0.482,0.939,-0.126
46.67,-0.038,1.034,-0.103
46.68,-0.155,1.092,0.064
46.69,-0.179,0.64,0.172
46.7,-0.219,1.186,-0.082
46.71,-0.296,0.814,-0.196
46.72,-0.211,1.161,0.024
46.73,-0.042,0.8,0.13
46.74,-0.169,0.94,0.044
46.75,-0.439,1.036,-0.207
46.76,-0.098,0.937,-0.064
46.77,-0.169,1.119,0.082
46.78,-0.086,0.649,0.187
46.79,-0.34,1.164,-0.087
46.8,-0.269,0.8,-0.18
46.81,-0.156,1.103,0.004
46.82,-0.062,0.915,0.128
46.83,-0.113,0.833,0.087
46.84,-0.439,1.138,-0.18
46.85,-0.109,0.913,-0.082
46.86,-0.13,1.207,0.024
46.87,-0.125,0.585,0.175
46.88,-0.312,1.167,-0.041
46.89,-0.258,0.926,-0.225
46.9,-0.166,1.047,0.019
46.91,-0.102,0.941,0.185
46.92,-0.155,0.779,0.041
46.93,-0.462,1.117,-0.203
46.94,-0.045,0.856,-0.031
46.95,-0.174,1.263,0.06
46.96,-0.168,0.64,0.147
46.97,-0.255,1.094,-0.073
46.98,-0.268,0.938,-0.173
46.99,-0.071,1.04,0.021
47.0,-0.125,1.031,0.169
47.01,-0.099,0.703,0.024
47.02,-0.502,1.202,-0.142
47.03,-0.034,0.861,-0.085
47.04,-0.214,1.187,0.106
47.05,-0.079,0.672,0.175
47.06,-0.347,1.031,-0.137
47.07,-0.249,0.95,-0.18
47.08,-0.148,0.989,0.101
47.09,-0.122,1.095,0.136
47.1,-0.138,0.644,0.068
47.11,-0.399,1.251,-0.209
47.12,-0.107,0.885,-0.048
47.13,-0.18,1.116,0.088
47.14,-0.095,0.694,0.162
47.15,-0.337,1.002,-0.025
47.16,-0.323,1.096,-0.182
47.17,-0.109,0.868,0.044
47.18,-0.104,1.178,0.137
47.19,-0.143,0.66,0.057
47.2,-0.447,1.202,-0.19
47.21,-0.135,0.944,-0.04
47.22,-0.068,1.075,0.063
47.23,-0.11,0.812,0.136
47.24,-0.354,0.941,-0.05
47.25,-0.343,1.14,-0.159
47.26,-0.078,0.859,0.04
47.27,-0.153,1.175,0.169
47.28,-0.19,0.616,0.047
47.29,-0.438,1.189,-0.206
47.3,-0.036,0.996,-0.02
47.31,-0.19,1.054,0.099
47.32,-0.126,0.835,0.163
47.33,-0.223,0.873,-0.112
47.34,-0.311,1.234,-0.164
47.35,-0.117,0.817,0.102
47.36,-0.11,1.138,0.134
47.37,-0.209,0.652,0.036
47.38,-0.42,1.18,-0.184
47.39,-0.092,1.028,-0.062
47.4,-0.167,0.898,0.104
47.41,-0.126,0.93,0.158
47.42,-0.321,0.809,-0.095
47.43,-0.291,1.229,-0.149
47.44,-0.087,0.908,0.095
47.45,-0.145,1.063,0.168
47.46,-0.198,0.656,-0.035
47.47,-0.383,1.282,-0.166
47.48,-0.082,0.966,-0.012
47.49,-0.209,0.964,0.117
47.5,-0.082,0.898,0.148
47.51,-0.345,0.92,-0.177
47.52,-0.323,1.167,-0.116
47.53,-0.019,0.889,0.064
47.54,-0.073,1.052,0.097
47.55,-0.276,0.674,0.027
47.56,-0.351,1.248,-0.176
47.57,-0.141,0.985,-0.023
47.58,-0.272,0.877,0.161
47.59,-0.029,0.965,0.133
47.6,-0.396,0.877,-0.221
47.61,-0.302,1.204,-0.027
47.62,-0.066,0.914,0.093
47.63,-0.161,0.965,0.125
47.64,-0.237,0.777,0.005
47.65,-0.299,1.201,-0.191
47.66,-0.136,1.018,-0.041
47.67,-0.165,0.828,0.129
47.68,-0.091,1.007,0.097
47.69,-0.421,0.794,-0.2
47.7,-0.271,1.232,-0.035
47.71,-0.077,0.931,0.079
47.72,-0.156,0.931,0.13
47.73,-0.252,0.859,0.008
47.74,-0.274,1.114,-0.214
47.75,-0.148,1.097,-0.041
47.76,-0.148,0.768,0.196
47.77,-0.112,1.089,0.083
47.78,-0.396,0.759,-0.197
47.79,-0.267,1.182,-0.018
47.8,-0.092,0.928,0.061
47.81,-0.184,0.859,0.126
47.82,-0.333,0.95,-0.007
47.83,-0.285,0.983,-0.218
47.84,-0.091,1.084,0.002
47.85,-0.119,0.778,0.199
47.86,-0.178,1.062,0.056
47.87,-0.336,0.809,-0.222
47.88,-0.148,1.202,-0.054
47.89,-0.116,0.928,0.067
47.9,-0.119,0.774,0.127
47.91,-0.323,1.073,-0.047
47.92,-0.327,0.883,-0.18
47.93,-0.18,1.182,0.054
47.94,-0.089,0.777,0.151
47.95,-0.148,0.997,0.005
47.96,-0.32,0.931,-0.169
47.97,-0.187,1.115,-0.088
47.98,-0.132,0.897,0.107
47.99,-0.142,0.796,0.173
48.0,-0.306,1.174,-0.116
48.01,-0.289,0.747,-0.174
48.02,-0.183,1.215,0.066
48.03,-0.065,0.79,0.162
48.04,-0.2,0.929,0.044
48.05,-0.391,0.969,-0.165
48.06,-0.124,1.079,-0.114
48.07,-0.16,0.951,0.05
48.08,-0.113,0.723,0.245
48.09,-0.394,1.201,-0.158
48.1,-0.293,0.69,-0.124
48.11,-0.155,1.29,0.1
48.12,-0.098,0.824,0.13
48.13,-0.23,0.889,0.05
48.14,-0.304,1.08,-0.189
48.15,-0.135,0.985,-0.124
48.16,-0.202,1.026,0.078
48.17,0.01,0.718,0.138
48.18,-0.413,1.209,-0.123
48.19,-0.268,0.741,-0.127
48.2,-0.094,1.236,0.088
48.21,-0.086,0.834,0.134
48.22,-0.259,0.854,0.037
48.23,-0.383,1.158,-0.202
48.24,-0.082,0.902,-0.12
48.25,-0.178,0.976,0.098
48.26,-0.038,0.772,0.152
48.27,-0.451,1.174,-0.161
48.28,-0.244,0.734,-0.125
48.29,-0.025,1.33,0.082
48.3,-0.095,0.7,0.125
48.31,-0.277,0.983,0.096
48.32,-0.324,1.106,-0.234
48.33,-0.194,0.897,-0.036
48.34,-0.259,1.057,0.172
48.35,0.007,0.725,0.105
