t,ax,ay,az
0.0,-0.225,0.764,-0.002
0.01,-0.331,1.248,-0.217
0.02,-0.056,0.939,-0.088
0.03,-0.205,0.944,0.193
0.04,-0.118,0.955,0.101
0.05,-0.306,0.759,-0.171
0.06,-0.317,1.222,-0.087
0.07,-0.062,0.884,0.099
0.08,-0.126,1.018,0.102
0.09,-0.308,0.747,0.024
0.1,-0.328,1.201,-0.186
0.11,-0.068,1.031,-0.084
0.12,-0.206,0.822,0.146
0.13,-0.06,1.031,0.13
0.14,-0.337,0.78,-0.2
0.15,-0.344,1.152,-0.056
0.16,0.005,0.918,0.102
0.17,-0.138,1.015,0.116
0.18,-0.308,0.77,-0.002
0.19,-0.319,1.123,-0.161
0.2,-0.106,1.121,-0.055
0.21,-0.202,0.746,0.168
0.22,-0.081,1.051,0.116
0.23,-0.35,0.83,-0.191
0.24,-0.274,1.179,-0.044
0.25,-0.054,0.932,0.057
0.26,-0.133,0.89,0.135
0.27,-0.318,0.917,-0.004
0.28,-0.285,1.035,-0.21
0.29,-0.139,1.109,-0.054
0.3,-0.161,0.725,0.224
0.31,-0.069,1.082,0.092
0.32,-0.374,0.817,-0.205
0.33,-0.283,1.148,-0.023
0.34,0.034,0.98,0.003
0.35,-0.157,0.828,0.183
0.36,-0.329,1.003,-0.018
0.37,-0.274,0.925,-0.209
0.38,-0.191,1.149,-0.025
0.39,-0.118,0.737,0.164
0.4,-0.116,1.066,0.072
0.41,-0.41,0.84,-0.169
0.42,-0.177,1.075,-0.046
0.43,-0.079,1.038,0.068
0.44,-0.143,0.724,0.17
0.45,-0.291,1.082,-0.035
0.46,-0.327,0.913,-0.176
0.47,-0.206,1.202,-0.0
0.48,-0.095,0.754,0.124
0.49,-0.132,1.042,0.097
0.5,-0.402,0.906,-0.173
0.51,-0.246,0.983,-0.055
0.52,-0.025,1.138,0.076
0.53,-0.162,0.681,0.135
0.54,-0.402,1.064,-0.019
0.55,-0.206,0.911,-0.193
0.56,-0.101,1.197,0.003
0.57,-0.237,0.719,0.219
0.58,-0.079,0.958,0.039
0.59,-0.375,1.023,-0.248
0.6,-0.211,0.938,0.03
0.61,-0.15,1.158,0.059
0.62,-0.118,0.667,0.126
0.63,-0.326,1.171,-0.051
0.64,-0.257,0.831,-0.172
0.65,-0.147,1.164,0.037
0.66,-0.072,0.857,0.162
0.67,-0.159,0.865,0.035
0.68,-0.419,1.106,-0.199
0.69,-0.095,0.905,-0.04
0.7,-0.22,1.139,0.093
0.71,-0.136,0.67,0.183
0.72,-0.369,1.192,-0.114
0.73,-0.286,0.822,-0.169
0.74,-0.097,1.158,0.1
0.75,-0.129,0.914,0.135
0.76,-0.202,0.754,0.025
0.77,-0.464,1.208,-0.168
0.78,-0.057,0.847,-0.084
0.79,-0.231,1.124,0.07
0.8,-0.076,0.675,0.19
0.81,-0.372,1.15,-0.162
0.82,-0.312,0.896,-0.154
0.83,-0.034,1.275,0.093
0.84,-0.2,0.781,0.139
0.85,-0.219,0.836,-0.008
0.86,-0.263,1.204,-0.183
0.87,-0.206,0.872,-0.031
0.88,-0.239,1.058,0.178
0.89,-0.012,0.728,0.108
0.9,-0.533,1.142,-0.167
0.91,-0.202,0.835,-0.061
0.92,0.031,1.262,0.087
0.93,-0.212,0.774,0.122
0.94,-0.256,0.824,0.016
0.95,-0.283,1.257,-0.22
0.96,-0.174,0.835,0.001
0.97,-0.222,1.128,0.164
0.98,0.016,0.678,0.064
0.99,-0.548,1.132,-0.137
1.0,-0.235,0.904,-0.031
1.01,0.031,1.09,0.059
1.02,-0.214,0.875,0.155
1.03,-0.254,0.77,-0.018
1.04,-0.262,1.286,-0.215
1.05,-0.176,0.834,0.004
1.06,-0.156,1.128,0.184
1.07,0.012,0.726,0.031
1.08,-0.579,1.112,-0.167
1.09,-0.167,0.95,-0.034
1.1,-0.052,1.043,0.047
1.11,-0.158,0.913,0.104
1.12,-0.259,0.751,-0.027
1.13,-0.373,1.263,-0.181
1.14,-0.125,0.778,-0.01
1.15,-0.049,1.159,0.155
1.16,-0.146,0.726,0.061
1.17,-0.494,1.072,-0.179
1.18,-0.127,1.121,-0.039
1.19,-0.157,0.833,0.091
1.2,-0.171,1.013,0.159
1.21,-0.232,0.783,-0.111
1.22,-0.341,1.209,-0.177
1.23,-0.152,0.858,0.086
1.24,-0.084,1.053,0.131
1.25,-0.213,0.778,0.035
1.26,-0.396,1.046,-0.142
1.27,-0.048,1.189,-0.093
1.28,-0.233,0.74,0.14
1.29,-0.146,1.049,0.167
1.3,-0.272,0.803,-0.176
1.31,-0.306,1.119,-0.154
1.32,-0.067,1.011,0.114
1.33,-0.073,0.975,0.153
1.34,-0.264,0.849,0.02
1.35,-0.401,1.007,-0.155
1.36,-0.048,1.234,-0.095
1.37,-0.171,0.711,0.089
1.38,-0.15,1.063,0.159
1.39,-0.3,0.823,-0.2
1.4,-0.257,1.077,-0.11
1.41,-0.083,1.042,0.105
1.42,-0.087,0.845,0.114
1.43,-0.352,0.949,0.009
1.44,-0.246,0.933,-0.179
1.45,-0.116,1.194,-0.087
1.46,-0.141,0.701,0.201
1.47,-0.097,1.081,0.122
1.48,-0.32,0.822,-0.244
1.49,-0.265,1.034,-0.081
1.5,0.045,1.14,0.043
1.51,-0.161,0.727,0.14
1.52,-0.293,1.032,0.003
1.53,-0.283,0.93,-0.204
1.54,-0.157,1.162,-0.047
1.55,-0.153,0.782,0.18
1.56,-0.082,1.006,0.067
1.57,-0.402,0.906,-0.173
1.58,-0.253,0.962,-0.047
1.59,-0.075,1.222,0.052
1.6,-0.093,0.628,0.12
1.61,-0.317,1.118,0.035
1.62,-0.329,0.908,-0.234
1.63,-0.167,1.149,0.02
1.64,-0.102,0.827,0.191
1.65,-0.164,0.976,0.045
1.66,-0.329,0.864,-0.203
1.67,-0.145,1.169,-0.032
1.68,-0.123,0.975,0.041
1.69,-0.148,0.689,0.151
1.7,-0.308,1.141,-0.037
1.71,-0.297,0.862,-0.217
1.72,-0.175,1.178,0.038
1.73,-0.045,0.81,0.162
1.74,-0.207,0.947,0.039
1.75,-0.353,0.955,-0.22
1.76,-0.057,1.004,-0.062
1.77,-0.191,1.063,0.124
1.78,-0.201,0.664,0.185
1.79,-0.339,1.202,-0.077
1.8,-0.279,0.803,-0.173
1.81,-0.202,1.209,0.111
1.82,-0.05,0.824,0.146
1.83,-0.185,0.854,0.012
1.84,-0.422,1.095,-0.172
1.85,-0.066,0.946,-0.073
1.86,-0.159,1.059,0.107
1.87,-0.111,0.688,0.157
1.88,-0.429,1.195,-0.108
1.89,-0.25,0.81,-0.122
1.9,-0.149,1.214,0.091
1.91,-0.116,0.839,0.108
1.92,-0.198,0.809,0.027
1.93,-0.414,1.203,-0.166
1.94,-0.042,0.907,-0.074
1.95,-0.211,1.127,0.145
1.96,-0.164,0.645,0.217
1.97,-0.379,1.163,-0.175
1.98,-0.25,0.846,-0.15
1.99,-0.133,1.177,0.081
2.0,-0.125,0.86,0.123
2.01,-0.186,0.744,0.02
2.02,-0.458,1.284,-0.183
2.03,-0.099,0.842,-0.031
2.04,-0.145,1.099,0.127
2.05,-0.116,0.739,0.117
2.06,-0.421,1.126,-0.156
2.07,-0.247,0.913,-0.103
2.08,-0.138,1.079,0.134
2.09,-0.128,0.975,0.113
2.1,-0.215,0.709,-0.011
2.11,-0.451,1.273,-0.143
2.12,-0.031,0.844,-0.014
2.13,-0.163,1.088,0.112
2.14,-0.145,0.755,0.162
2.15,-0.455,1.101,-0.188
2.16,-0.137,0.805,0.057
2.17,-0.131,0.923,0.167
2.18,-0.287,1.005,-0.149
2.19,-0.293,0.986,-0.129
2.2,-0.056,1.143,0.068
2.21,-0.103,0.653,0.135
2.22,-0.33,1.067,0.043
2.23,-0.353,0.901,-0.164
2.24,-0.161,1.138,-0.007
2.25,-0.161,0.831,0.13
2.26,-0.08,0.89,0.132
2.27,-0.43,1.052,-0.19
2.28,-0.137,0.881,-0.071
2.29,-0.178,1.302,0.107
2.3,-0.108,0.638,0.141
2.31,-0.325,1.078,-0.021
2.32,-0.3,0.92,-0.193
2.33,-0.095,1.119,0.049
2.34,-0.229,0.915,0.147
2.35,-0.094,0.798,0.118
2.36,-0.414,1.139,-0.211
2.37,-0.187,0.863,-0.003
2.38,-0.121,1.226,0.07
2.39,-0.167,0.617,0.152
2.4,-0.29,1.163,-0.13
2.41,-0.262,0.802,-0.172
2.42,-0.151,1.253,0.146
2.43,-0.114,0.867,0.11
2.44,-0.188,0.82,0.008
2.45,-0.36,1.121,-0.137
2.46,-0.124,0.948,-0.048
2.47,-0.205,1.063,0.077
2.48,-0.073,0.689,0.162
2.49,-0.407,1.18,-0.144
2.5,-0.234,0.801,-0.161
2.51,-0.031,1.181,0.112
2.52,-0.157,0.833,0.131
2.53,-0.267,0.804,0.005
2.54,-0.333,1.242,-0.218
2.55,-0.14,0.825,-0.049
2.56,-0.171,1.137,0.184
2.57,-0.09,0.723,0.116
2.58,-0.399,1.112,-0.201
2.59,-0.175,0.948,-0.085
2.6,-0.048,1.136,0.059
2.61,-0.112,0.87,0.127
2.62,-0.263,0.775,0.026
2.63,-0.471,1.286,-0.182
2.64,-0.079,0.8,0.015
2.65,-0.172,1.203,0.172
2.66,-0.143,0.669,0.095
2.67,-0.473,1.086,-0.164
2.68,-0.115,1.053,-0.077
2.69,-0.063,0.978,0.049
2.7,-0.154,0.934,0.131
2.71,-0.228,0.725,-0.075
2.72,-0.385,1.262,-0.175
2.73,-0.135,0.858,0.06
2.74,-0.07,1.091,0.102
2.75,-0.201,0.714,0.051
2.76,-0.377,1.066,-0.165
2.77,-0.049,1.127,-0.084
2.78,-0.105,0.873,0.105
2.79,-0.227,1.016,0.164
2.8,-0.238,0.781,-0.092
2.81,-0.385,1.253,-0.149
2.82,-0.056,0.842,0.063
2.83,-0.122,1.065,0.17
2.84,-0.296,0.792,-0.004
2.85,-0.396,0.978,-0.147
2.86,-0.052,1.197,-0.049
2.87,-0.215,0.8,0.135
2.88,-0.151,1.027,0.139
2.89,-0.233,0.796,-0.151
2.9,-0.34,1.212,-0.092
2.91,-0.108,0.919,0.08
2.92,-0.071,0.936,0.094
2.93,-0.337,0.865,-0.021
2.94,-0.37,0.938,-0.122
2.95,-0.038,1.25,-0.047
2.96,-0.204,0.693,0.108
2.97,-0.156,1.03,0.117
2.98,-0.261,0.863,-0.186
2.99,-0.247,1.169,-0.079
3.0,-0.066,0.992,0.128
3.01,-0.168,0.804,0.137
3.02,-0.281,0.984,-0.046
3.03,-0.321,0.965,-0.165
3.04,-0.135,1.239,0.011
3.05,-0.127,0.707,0.131
3.06,-0.165,1.057,0.077
3.07,-0.442,0.883,-0.201
3.08,-0.145,1.037,-0.058
3.09,-0.077,1.04,0.095
3.1,-0.153,0.707,0.155
3.11,-0.35,1.101,-0.04
3.12,-0.216,0.922,-0.212
3.13,-0.102,1.198,0.009
3.14,-0.104,0.744,0.207
3.15,-0.292,0.978,0.017
3.16,-0.456,0.942,-0.178
3.17,0.03,1.067,-0.002
3.18,-0.199,1.057,0.072
3.19,-0.197,0.659,0.212
3.2,-0.358,1.2,-0.137
3.21,-0.331,0.822,-0.193
3.22,0.066,1.284,0.071
3.23,-0.092,0.667,0.094
3.24,-0.377,1.044,0.029
3.25,-0.338,0.937,-0.134
3.26,-0.158,1.041,-0.015
3.27,-0.116,0.932,0.168
3.28,-0.1,0.792,0.058
3.29,-0.514,1.185,-0.18
3.3,-0.09,0.843,-0.102
3.31,-0.115,1.198,0.067
3.32,-0.185,0.718,0.212
3.33,-0.333,1.039,-0.092
3.34,-0.209,0.987,-0.165
3.35,-0.09,1.058,0.075
3.36,-0.184,0.941,0.179
3.37,-0.139,0.743,0.043
3.38,-0.513,1.306,-0.211
3.39,-0.036,0.79,-0.061
3.4,-0.166,1.168,0.152
3.41,-0.174,0.763,0.171
3.42,-0.376,1.003,-0.161
3.43,-0.235,1.015,-0.132
3.44,-0.05,1.001,0.104
3.45,-0.142,0.99,0.128
3.46,-0.245,0.658,-0.015
3.47,-0.386,1.359,-0.211
3.48,-0.012,0.825,-0.043
3.49,-0.159,1.121,0.152
3.5,-0.127,0.785,0.114
3.51,-0.439,0.951,-0.189
3.52,-0.189,1.194,-0.067
3.53,-0.022,0.881,0.081
3.54,-0.155,0.973,0.13
3.55,-0.229,0.736,-0.043
3.56,-0.391,1.266,-0.215
3.57,-0.077,0.843,-0.004
3.58,-0.098,1.074,0.167
3.59,-0.174,0.85,0.054
3.6,-0.464,0.897,-0.147
3.61,-0.043,1.247,-0.066
3.62,-0.062,0.8,0.019
3.63,-0.126,0.983,0.159
3.64,-0.267,0.821,-0.147
3.65,-0.336,1.16,-0.129
3.66,-0.156,1.002,0.145
3.67,-0.11,0.915,0.138
3.68,-0.221,0.915,0.007
3.69,-0.449,0.987,-0.095
3.7,-0.179,1.215,-0.044
3.71,-0.116,0.736,0.131
3.72,-0.123,1.061,0.135
3.73,-0.341,0.813,-0.199
3.74,-0.251,1.075,-0.149
3.75,-0.054,1.069,0.074
3.76,-0.056,0.732,0.148
3.77,-0.335,1.018,0.018
3.78,-0.337,0.923,-0.171
3.79,-0.142,1.169,-0.041
3.8,-0.138,0.745,0.151
3.81,-0.102,1.033,0.101
3.82,-0.349,0.901,-0.207
3.83,-0.234,1.003,-0.031
3.84,-0.044,1.122,0.048
3.85,-0.105,0.672,0.145
3.86,-0.338,1.113,-0.004
3.87,-0.377,0.896,-0.157
3.88,-0.117,1.199,0.015
3.89,-0.106,0.885,0.124
3.9,-0.177,0.913,0.033
3.91,-0.322,0.976,-0.201
3.92,-0.098,1.027,-0.056
3.93,-0.142,1.08,0.078
3.94,-0.077,0.654,0.139
3.95,-0.356,1.198,-0.081
3.96,-0.268,0.825,-0.16
3.97,-0.104,1.216,0.076
3.98,-0.143,0.886,0.163
3.99,-0.14,0.831,-0.0
4.0,-0.406,1.135,-0.208
4.01,-0.065,0.936,-0.084
4.02,-0.163,1.074,0.114
4.03,-0.072,0.787,0.169
4.04,-0.461,1.178,-0.178
4.05,-0.257,0.751,-0.096
4.06,-0.017,1.323,0.074
4.07,-0.153,0.671,0.101
4.08,-0.33,0.939,0.032
4.09,-0.211,1.094,-0.241
4.1,-0.119,0.923,-0.035
4.11,-0.182,1.052,0.164
4.12,-0.012,0.704,0.058
4.13,-0.525,1.197,-0.182
4.14,-0.186,0.825,0.01
4.15,-0.106,1.209,0.062
4.16,-0.193,0.737,0.188
4.17,-0.262,0.952,-0.026
4.18,-0.331,1.101,-0.233
4.19,-0.15,0.847,0.045
4.2,-0.064,1.222,0.114
4.21,-0.066,0.609,0.015
4.22,-0.528,1.227,-0.13
4.23,-0.04,0.902,-0.105
4.24,-0.176,1.07,0.06
4.25,-0.157,0.781,0.207
4.26,-0.323,0.901,-0.148
4.27,-0.21,1.112,-0.186
4.28,-0.142,0.917,0.145
4.29,-0.173,1.128,0.14
4.3,-0.102,0.587,-0.003
4.31,-0.432,1.328,-0.14
4.32,-0.124,0.951,-0.048
4.33,-0.224,0.947,0.119
4.34,-0.101,0.937,0.185
4.35,-0.391,0.816,-0.189
4.36,-0.235,1.162,-0.12
4.37,-0.047,0.945,0.066
4.38,-0.102,0.979,0.098
4.39,-0.254,0.74,0.054
4.4,-0.334,1.226,-0.241
4.41,-0.018,0.926,-0.057
4.42,-0.224,0.91,0.174
4.43,-0.115,0.979,0.096
4.44,-0.342,0.826,-0.178
4.45,-0.365,1.248,-0.061
4.46,0.001,0.889,0.056
4.47,-0.173,0.988,0.143
4.48,-0.286,0.797,0.005
4.49,-0.377,1.111,-0.157
4.5,-0.077,1.05,-0.048
4.51,-0.149,0.834,0.199
4.52,-0.108,1.017,0.088
4.53,-0.439,0.818,-0.198
4.54,-0.121,1.254,-0.107
4.55,-0.104,0.814,0.074
4.56,-0.182,0.939,0.192
4.57,-0.265,0.97,-0.085
4.58,-0.408,0.908,-0.181
4.59,-0.11,1.101,0.078
4.6,-0.003,0.843,0.109
4.61,-0.302,0.986,0.075
4.62,-0.296,0.83,-0.156
4.63,-0.185,1.263,-0.085
4.64,-0.137,0.762,0.072
4.65,-0.127,0.894,0.213
4.66,-0.36,1.068,-0.157
4.67,-0.321,0.83,-0.124
4.68,-0.196,1.245,0.103
4.69,-0.006,0.738,0.107
4.7,-0.27,1.024,0.028
4.71,-0.348,0.92,-0.189
4.72,-0.1,1.169,-0.069
4.73,-0.181,0.824,0.088
4.74,-0.112,0.804,0.19
4.75,-0.423,1.141,-0.148
4.76,-0.225,0.76,-0.152
4.77,-0.132,1.324,0.119
4.78,-0.121,0.626,0.147
4.79,-0.273,0.99,-0.004
4.8,-0.34,1.03,-0.17
4.81,-0.102,1.057,-0.021
4.82,-0.239,0.93,0.132
4.83,0.018,0.777,0.12
4.84,-0.46,1.058,-0.213
4.85,-0.167,0.875,-0.003
4.86,-0.162,1.286,0.064
4.87,-0.164,0.608,0.136
4.88,-0.254,1.117,-0.044
4.89,-0.282,0.926,-0.155
4.9,-0.183,1.141,0.032
4.91,-0.063,0.906,0.157
4.92,-0.191,0.792,0.094
4.93,-0.466,1.145,-0.141
4.94,-0.093,0.922,-0.038
4.95,-0.206,1.16,0.075
4.96,-0.135,0.65,0.192
4.97,-0.344,1.178,-0.113
4.98,-0.257,0.844,-0.214
4.99,-0.185,1.129,0.17
5.0,-0.069,1.005,0.097
5.01,-0.178,0.707,0.018
5.02,-0.499,1.228,-0.124
5.03,-0.052,0.896,-0.123
5.04,-0.208,1.138,0.077
5.05,-0.106,0.709,0.18
5.06,-0.388,1.08,-0.135
5.07,-0.235,0.906,-0.172
5.08,-0.082,1.117,0.123
5.09,-0.14,0.978,0.132
5.1,-0.254,0.701,0.013
5.11,-0.383,1.323,-0.176
5.12,-0.124,0.812,-0.029
5.13,-0.218,1.088,0.154
5.14,-0.061,0.783,0.157
5.15,-0.459,1.046,-0.183
5.16,-0.221,0.963,-0.131
5.17,-0.026,1.057,0.041
5.18,-0.14,1.005,0.121
5.19,-0.198,0.666,-0.019
5.2,-0.406,1.353,-0.18
5.21,-0.115,0.777,-0.02
5.22,-0.197,1.067,0.202
5.23,-0.043,0.82,0.076
5.24,-0.498,0.942,-0.194
5.25,-0.164,1.13,-0.029
5.26,-0.005,1.0,0.017
5.27,-0.187,0.967,0.167
5.28,-0.219,0.722,-0.011
5.29,-0.398,1.292,-0.236
5.3,-0.095,0.843,-0.009
5.31,-0.152,1.077,0.207
5.32,-0.177,0.849,0.046
5.33,-0.373,0.888,-0.16
5.34,-0.165,1.279,-0.007
5.35,-0.113,0.797,0.077
5.36,-0.194,1.015,0.172
5.37,-0.223,0.761,-0.089
5.38,-0.345,1.17,-0.144
5.39,-0.15,0.983,0.054
5.4,-0.085,0.969,0.136
5.41,-0.17,0.888,0.007
5.42,-0.391,0.87,-0.156
5.43,-0.122,1.271,-0.057
5.44,-0.147,0.708,0.057
5.45,-0.049,1.017,0.161
5.46,-0.316,0.833,-0.149
5.47,-0.277,1.059,-0.165
5.48,-0.039,1.11,0.037
5.49,-0.135,0.789,0.131
5.5,-0.281,1.016,0.018
5.51,-0.319,0.959,-0.161
5.52,-0.22,1.161,-0.006
5.53,-0.189,0.74,0.184
5.54,-0.085,1.025,0.128
5.55,-0.361,0.875,-0.176
5.56,-0.25,0.986,-0.095
5.57,-0.031,1.18,0.025
5.58,-0.126,0.653,0.148
5.59,-0.322,1.097,0.027
5.6,-0.376,0.881,-0.216
5.61,-0.136,1.112,0.004
5.62,-0.159,0.834,0.192
5.63,-0.159,0.927,0.083
5.64,-0.301,0.962,-0.215
5.65,-0.235,0.977,-0.018
5.66,-0.104,0.95,0.083
5.67,-0.119,0.75,0.134
5.68,-0.288,1.114,-0.086
5.69,-0.318,0.809,-0.18
5.7,-0.163,1.239,0.049
5.71,-0.112,0.822,0.16
5.72,-0.169,0.945,0.063
5.73,-0.332,0.99,-0.182
5.74,-0.156,1.075,-0.085
5.75,-0.142,0.948,0.096
5.76,-0.157,0.744,0.189
5.77,-0.375,1.154,-0.114
5.78,-0.263,0.757,-0.183
5.79,-0.17,1.28,0.126
5.8,-0.124,0.805,0.125
5.81,-0.238,0.917,0.032
5.82,-0.361,1.087,-0.151
5.83,-0.246,0.952,-0.044
5.84,-0.126,1.016,0.063
5.85,-0.087,0.752,0.154
5.86,-0.412,1.146,-0.147
5.87,-0.288,0.81,-0.109
5.88,-0.02,1.256,0.004
5.89,-0.148,0.752,0.14
5.9,-0.292,0.896,0.097
5.91,-0.366,1.208,-0.207
5.92,-0.195,0.823,-0.001
5.93,-0.156,1.142,0.118
5.94,-0.073,0.688,0.149
5.95,-0.437,1.148,-0.147
5.96,-0.193,0.835,-0.12
5.97,-0.073,1.238,0.065
5.98,-0.156,0.828,0.115
5.99,-0.255,0.796,0.039
6.0,-0.392,1.274,-0.22
6.01,-0.138,0.8,-0.034
6.02,-0.23,1.163,0.192
6.03,-0.02,0.71,0.111
6.04,-0.513,1.101,-0.175
6.05,-0.23,0.892,-0.067
6.06,-0.02,1.183,0.057
6.07,-0.201,0.854,0.124
6.08,-0.244,0.727,0.037
6.09,-0.291,1.346,-0.227
6.1,-0.175,0.768,-0.023
6.11,-0.206,1.139,0.199
6.12,-0.042,0.713,0.067
6.13,-0.567,1.065,-0.165
6.14,-0.116,0.981,-0.071
6.15,0.014,1.051,0.005
6.16,-0.163,0.895,0.139
6.17,-0.243,0.739,0.024
6.18,-0.303,1.319,-0.246
6.19,-0.143,0.811,0.031
6.2,-0.164,1.148,0.212
6.21,-0.12,0.757,0.068
6.22,-0.517,1.029,-0.171
6.23,-0.076,1.105,-0.072
6.24,-0.106,0.914,0.087
6.25,-0.182,0.975,0.16
6.26,-0.234,0.728,-0.047
6.27,-0.407,1.244,-0.193
6.28,-0.143,0.875,0.04
6.29,-0.081,1.102,0.13
6.3,-0.186,0.766,0.06
6.31,-0.452,1.006,-0.146
6.32,-0.097,1.196,-0.074
6.33,-0.157,0.794,0.082
6.34,-0.137,1.023,0.161
6.35,-0.286,0.786,-0.084
6.36,-0.346,1.18,-0.14
6.37,-0.132,0.928,0.046
6.38,-0.098,1.014,0.14
6.39,-0.227,0.842,0.064
6.4,-0.453,0.938,-0.162
6.41,-0.108,1.231,-0.071
6.42,-0.125,0.744,0.073
6.43,-0.196,1.007,0.183
6.44,-0.242,0.85,-0.14
6.45,-0.332,1.115,-0.19
6.46,-0.037,1.011,0.112
6.47,-0.191,0.985,0.083
6.48,-0.293,0.822,0.027
6.49,-0.351,1.089,-0.177
6.5,-0.153,1.082,-0.055
6.51,-0.152,0.742,0.152
6.52,-0.168,1.098,0.149
6.53,-0.349,0.786,-0.164
6.54,-0.284,1.147,-0.116
6.55,-0.023,0.951,0.093
6.56,-0.097,0.907,0.144
6.57,-0.311,0.863,-0.021
6.58,-0.331,1.015,-0.145
6.59,-0.124,1.177,-0.011
6.6,-0.253,0.692,0.175
6.61,-0.076,1.035,0.103
6.62,-0.393,0.851,-0.213
6.63,-0.24,1.127,-0.069
6.64,-0.054,0.965,0.08
6.65,-0.132,0.811,0.159
6.66,-0.275,1.002,-0.003
6.67,-0.292,0.938,-0.214
6.68,-0.172,1.176,-0.038
6.69,-0.132,0.747,0.161
6.7,-0.147,1.007,0.088
6.71,-0.375,0.865,-0.209
6.72,-0.172,1.088,-0.048
6.73,-0.107,0.993,0.089
6.74,-0.145,0.738,0.171
6.75,-0.292,1.088,-0.04
6.76,-0.335,0.856,-0.201
6.77,-0.135,1.19,-0.013
6.78,-0.149,0.816,0.17
6.79,-0.135,0.971,0.101
6.8,-0.414,0.974,-0.209
6.81,-0.221,0.98,-0.041
6.82,-0.056,1.06,0.053
6.83,-0.15,0.664,0.135
6.84,-0.366,1.143,-0.034
6.85,-0.268,0.846,-0.215
6.86,-0.133,1.161,0.017
6.87,-0.128,0.801,0.172
6.88,-0.103,0.947,0.034
6.89,-0.486,1.066,-0.194
6.9,-0.106,0.942,-0.062
6.91,-0.127,1.108,0.03
6.92,-0.182,0.666,0.214
6.93,-0.323,1.214,-0.108
6.94,-0.272,0.768,-0.198
6.95,-0.191,1.19,0.093
6.96,-0.072,0.851,0.101
6.97,-0.169,0.8,0.034
6.98,-0.419,1.185,-0.17
6.99,-0.111,0.897,-0.062
7.0,-0.233,1.095,0.065
7.01,-0.114,0.726,0.216
7.02,-0.319,1.146,-0.152
7.03,-0.315,0.772,-0.163
7.04,-0.071,1.192,0.117
7.05,-0.086,0.921,0.097
7.06,-0.232,0.747,0.026
7.07,-0.391,1.237,-0.154
7.08,-0.104,0.848,-0.073
7.09,-0.247,1.124,0.101
7.1,-0.105,0.748,0.227
7.11,-0.383,1.088,-0.157
7.12,-0.231,0.85,-0.162
7.13,-0.073,1.173,0.099
7.14,-0.083,0.932,0.065
7.15,-0.251,0.698,0.042
7.16,-0.34,1.318,-0.157
7.17,-0.105,0.827,-0.098
7.18,-0.198,1.096,0.177
7.19,-0.154,0.766,0.173
7.2,-0.401,1.042,-0.19
7.21,-0.169,0.912,-0.188
7.22,-0.083,1.103,0.137
7.23,-0.132,1.0,0.089
7.24,-0.228,0.68,0.015
7.25,-0.347,1.339,-0.148
7.26,-0.171,0.859,-0.049
7.27,-0.226,1.02,0.142
7.28,-0.08,0.826,0.151
7.29,-0.483,1.136,-0.166
7.3,-0.277,0.878,-0.066
7.31,-0.024,1.167,0.065
7.32,-0.122,0.853,0.096
7.33,-0.29,0.742,0.038
7.34,-0.313,1.336,-0.246
7.35,-0.134,0.76,-0.063
7.36,-0.123,1.144,0.167
7.37,-0.061,0.744,0.069
7.38,-0.445,1.072,-0.197
7.39,-0.234,1.024,-0.023
7.4,-0.05,1.011,0.074
7.41,-0.24,0.921,0.154
7.42,-0.243,0.775,-0.027
7.43,-0.274,1.239,-0.218
7.44,-0.141,0.838,0.019
7.45,-0.169,1.124,0.166
7.46,-0.033,0.752,0.045
7.47,-0.446,1.001,-0.163
7.48,-0.156,1.066,-0.059
7.49,-0.138,0.933,0.079
7.5,-0.135,0.994,0.133
7.51,-0.315,0.761,-0.008
7.52,-0.273,1.243,-0.233
7.53,-0.116,0.851,0.015
7.54,-0.143,1.112,0.182
7.55,-0.069,0.788,0.063
7.56,-0.469,0.971,-0.138
7.57,-0.149,1.19,-0.028
7.58,-0.074,0.87,0.048
7.59,-0.213,1.007,0.162
7.6,-0.273,0.764,-0.061
7.61,-0.323,1.234,-0.219
7.62,-0.135,0.869,-0.018
7.63,-0.08,1.037,0.165
7.64,-0.051,0.858,0.033
7.65,-0.46,0.903,-0.146
7.66,-0.191,1.243,-0.035
7.67,-0.027,0.847,0.095
7.68,-0.28,1.0,0.175
7.69,-0.258,0.765,-0.051
7.7,-0.274,1.195,-0.228
7.71,-0.167,0.926,-0.007
7.72,-0.044,0.939,0.182
7.73,-0.128,0.957,0.008
7.74,-0.48,0.825,-0.155
7.75,-0.09,1.255,-0.02
7.76,-0.094,0.823,0.059
7.77,-0.24,0.967,0.182
7.78,-0.227,0.873,-0.072
7.79,-0.292,1.138,-0.208
7.8,-0.214,0.989,0.033
7.81,0.023,0.859,0.147
7.82,-0.178,0.998,-0.02
7.83,-0.416,0.821,-0.163
7.84,-0.038,1.241,-0.063
7.85,-0.135,0.797,0.082
7.86,-0.22,0.966,0.186
7.87,-0.212,0.906,-0.116
7.88,-0.297,0.975,-0.201
7.89,-0.106,1.135,0.094
7.9,-0.045,0.808,0.172
7.91,-0.252,1.018,0.018
7.92,-0.425,0.863,-0.132
7.93,-0.131,1.236,-0.061
7.94,-0.154,0.791,0.092
7.95,-0.173,0.919,0.156
7.96,-0.305,0.976,-0.173
7.97,-0.283,0.912,-0.134
7.98,-0.049,1.197,0.078
7.99,-0.073,0.715,0.126
8.0,-0.274,1.027,-0.001
8.01,-0.363,0.927,-0.12
8.02,-0.16,1.133,-0.027
8.03,-0.201,0.821,0.107
8.04,-0.107,0.859,0.138
8.05,-0.394,1.058,-0.151
8.06,-0.213,0.86,-0.114
8.07,-0.102,1.271,0.09
8.08,-0.068,0.664,0.154
8.09,-0.314,1.077,0.032
8.1,-0.276,0.897,-0.188
8.11,-0.127,1.183,-0.001
8.12,-0.203,0.784,0.193
8.13,-0.101,0.971,0.081
8.14,-0.366,0.99,-0.22
8.15,-0.266,0.933,-0.059
8.16,-0.06,1.216,0.086
8.17,-0.125,0.635,0.12
8.18,-0.323,1.085,0.031
8.19,-0.265,0.922,-0.19
8.2,-0.132,1.158,-0.054
8.21,-0.162,0.821,0.149
8.22,-0.038,0.891,0.06
8.23,-0.432,1.083,-0.223
8.24,-0.152,0.864,-0.036
8.25,-0.125,1.212,0.076
8.26,-0.169,0.605,0.159
8.27,-0.296,1.152,-0.01
8.28,-0.283,0.868,-0.215
8.29,-0.226,1.065,0.054
8.3,-0.059,0.95,0.144
8.31,-0.133,0.794,0.011
8.32,-0.483,1.096,-0.191
8.33,0.023,0.879,-0.071
8.34,-0.16,1.215,0.052
8.35,-0.152,0.636,0.206
8.36,-0.25,1.149,-0.119
8.37,-0.249,0.881,-0.185
8.38,-0.22,1.123,0.133
8.39,-0.076,0.984,0.143
8.4,-0.182,0.693,0.009
8.41,-0.459,1.265,-0.141
8.42,-0.059,0.864,-0.085
8.43,-0.18,1.171,0.061
8.44,-0.109,0.706,0.232
8.45,-0.323,1.096,-0.164
8.46,-0.264,0.922,-0.175
8.47,-0.095,1.078,0.105
8.48,-0.082,1.003,0.097
8.49,-0.265,0.686,0.033
8.5,-0.467,1.316,-0.135
8.51,-0.056,0.823,-0.075
8.52,-0.19,1.144,0.15
8.53,-0.193,0.729,0.231
8.54,-0.304,1.01,-0.186
8.55,-0.225,1.002,-0.163
8.56,-0.151,1.022,0.108
8.57,-0.064,1.008,0.125
8.58,-0.227,0.651,-0.012
8.59,-0.444,1.329,-0.144
8.6,-0.031,0.886,-0.023
8.61,-0.232,1.057,0.108
8.62,-0.094,0.798,0.179
8.63,-0.403,0.975,-0.159
8.64,-0.263,1.048,-0.113
8.65,-0.068,0.972,0.151
8.66,-0.136,1.054,0.127
8.67,-0.255,0.644,0.0
8.68,-0.346,1.303,-0.2
8.69,-0.15,0.846,-0.003
8.7,-0.191,1.013,0.156
8.71,-0.007,0.9,0.106
8.72,-0.409,0.909,-0.203
8.73,-0.293,1.101,-0.074
8.74,0.064,0.949,0.073
8.75,-0.153,1.072,0.099
8.76,-0.268,0.694,0.019
8.77,-0.292,1.263,-0.215
8.78,-0.153,0.925,-0.017
8.79,-0.183,0.969,0.187
8.8,-0.119,0.93,0.073
8.81,-0.45,0.828,-0.203
8.82,-0.165,1.213,-0.043
8.83,-0.028,0.88,0.085
8.84,-0.198,1.004,0.133
8.85,-0.212,0.778,-0.037
8.86,-0.333,1.2,-0.202
8.87,-0.132,0.982,0.019
8.88,-0.074,0.906,0.126
8.89,-0.158,0.962,-0.001
8.9,-0.498,0.813,-0.161
8.91,-0.088,1.239,-0.049
8.92,-0.196,0.784,0.081
8.93,-0.142,0.991,0.143
8.94,-0.232,0.782,-0.136
8.95,-0.383,1.164,-0.133
8.96,-0.018,0.913,0.143
8.97,-0.021,0.956,0.117
8.98,-0.444,0.846,-0.024
8.99,-0.204,0.925,-0.167
9.0,-0.057,1.301,-0.024
9.01,-0.304,0.701,0.184
9.02,-0.023,1.046,0.097
9.03,-0.353,0.889,-0.231
9.04,-0.296,1.109,-0.046
9.05,-0.042,1.028,0.095
9.06,-0.129,0.764,0.136
9.07,-0.308,1.029,-0.006
9.08,-0.279,0.965,-0.198
9.09,-0.248,1.196,0.012
9.1,-0.152,0.74,0.193
9.11,-0.094,1.033,0.064
9.12,-0.454,0.864,-0.203
9.13,-0.16,1.017,-0.023
9.14,-0.169,1.046,0.112
9.15,-0.117,0.697,0.161
9.16,-0.297,1.126,-0.061
9.17,-0.334,0.802,-0.167
9.18,-0.148,1.235,0.07
9.19,-0.098,0.818,0.121
9.2,-0.141,0.893,0.007
9.21,-0.39,1.012,-0.165
9.22,-0.116,1.041,-0.094
9.23,-0.125,0.98,0.049
9.24,-0.124,0.733,0.201
9.25,-0.428,1.163,-0.155
9.26,-0.268,0.74,-0.139
9.27,-0.063,1.306,0.088
9.28,-0.148,0.759,0.133
9.29,-0.236,0.864,0.026
9.3,-0.264,1.166,-0.181
9.31,-0.158,0.919,-0.052
9.32,-0.221,1.034,0.184
9.33,-0.1,0.723,0.15
9.34,-0.467,1.165,-0.185
9.35,-0.262,0.854,0.002
9.36,-0.062,1.245,0.047
9.37,-0.163,0.725,0.133
9.38,-0.253,0.903,0.067
9.39,-0.357,1.198,-0.234
9.4,-0.108,0.796,0.03
9.41,-0.226,1.175,0.199
9.42,-0.07,0.672,0.11
9.43,-0.526,1.195,-0.202
9.44,-0.145,0.856,-0.038
9.45,-0.11,1.132,0.055
9.46,-0.114,0.794,0.099
9.47,-0.309,0.856,-0.004
9.48,-0.305,1.219,-0.237
9.49,-0.092,0.792,0.009
9.5,-0.119,1.185,0.192
9.51,-0.113,0.634,0.02
9.52,-0.554,1.166,-0.176
9.53,-0.062,0.995,-0.01
9.54,-0.147,1.024,0.089
9.55,-0.216,0.865,0.148
9.56,-0.188,0.849,-0.093
9.57,-0.363,1.236,-0.167
9.58,-0.173,0.816,0.134
9.59,-0.028,1.148,0.106
9.6,-0.227,0.638,-0.011
9.61,-0.478,1.168,-0.078
9.62,-0.054,1.063,-0.058
9.63,-0.233,0.835,0.089
9.64,-0.125,0.972,0.173
9.65,-0.344,0.833,-0.198
9.66,-0.332,1.206,-0.101
9.67,-0.002,0.911,0.058
9.68,-0.044,0.98,0.121
9.69,-0.363,0.731,-0.001
9.7,-0.249,1.131,-0.192
9.71,-0.1,1.085,-0.04
9.72,-0.253,0.825,0.213
9.73,-0.05,0.9,0.024
9.74,-0.435,0.925,-0.199
9.75,-0.198,1.205,-0.037
9.76,-0.015,0.795,0.052
9.77,-0.217,1.023,0.154
9.78,-0.26,0.812,-0.072
9.79,-0.291,1.15,-0.174
9.8,-0.158,0.989,0.09
9.81,-0.02,0.948,0.112
9.82,-0.247,0.938,-0.016
9.83,-0.489,0.893,-0.098
9.84,-0.152,1.246,-0.038
9.85,-0.176,0.721,0.107
9.86,-0.126,1.037,0.182
9.87,-0.301,0.848,-0.189
9.88,-0.278,1.072,-0.085
9.89,0.009,1.074,0.055
9.9,-0.146,0.703,0.103
9.91,-0.272,1.023,0.009
9.92,-0.351,0.946,-0.184
9.93,-0.144,1.189,-0.043
9.94,-0.117,0.731,0.15
9.95,-0.123,1.014,0.101
9.96,-0.381,0.909,-0.214
9.97,-0.212,1.001,-0.049
9.98,-0.119,1.12,0.08
9.99,-0.122,0.638,0.108
10.0,-0.276,1.099,-0.053
10.01,-0.269,0.949,-0.194
10.02,-0.139,1.165,0.013
10.03,-0.118,0.769,0.147
10.04,-0.102,0.946,0.047
10.05,-0.406,1.023,-0.213
10.06,-0.176,0.935,0.006
10.07,-0.139,1.155,0.08
10.08,-0.104,0.644,0.117
10.09,-0.349,1.179,-0.09
10.1,-0.273,0.87,-0.176
10.11,-0.172,1.162,0.118
10.12,-0.048,0.817,0.138
10.13,-0.289,0.874,-0.026
10.14,-0.399,1.116,-0.13
10.15,-0.106,0.944,-0.027
10.16,-0.161,1.058,0.081
10.17,-0.088,0.717,0.119
10.18,-0.396,1.174,-0.211
10.19,-0.263,0.854,-0.09
10.2,-0.007,1.165,0.102
10.21,-0.12,0.811,0.128
10.22,-0.351,0.85,0.019
10.23,-0.281,1.202,-0.186
10.24,-0.111,0.85,0.006
10.25,-0.175,1.115,0.182
10.26,-0.055,0.702,0.042
10.27,-0.437,1.219,-0.238
10.28,-0.086,0.945,-0.074
10.29,-0.138,1.07,0.123
10.3,-0.184,0.847,0.164
10.31,-0.288,0.816,-0.099
10.32,-0.286,1.231,-0.155
10.33,-0.077,0.903,0.072
10.34,-0.175,1.073,0.145
10.35,-0.184,0.646,0.056
10.36,-0.474,1.283,-0.143
10.37,-0.13,0.995,-0.035
10.38,-0.189,0.901,0.143
10.39,-0.087,0.946,0.112
10.4,-0.39,0.842,-0.133
10.41,-0.24,1.239,-0.145
10.42,0.029,0.894,0.063
10.43,-0.218,0.988,0.147
10.44,-0.272,0.74,0.052
10.45,-0.34,1.193,-0.189
10.46,-0.129,0.954,-0.043
10.47,-0.131,0.862,0.204
10.48,-0.138,1.021,0.056
10.49,-0.38,0.785,-0.186
10.5,-0.061,0.72,0.114
10.51,-0.427,1.103,-0.182
10.52,-0.223,0.874,-0.091
10.53,-0.12,1.283,0.066
10.54,-0.098,0.636,0.115
10.55,-0.321,1.067,0.022
10.56,-0.331,0.948,-0.199
10.57,-0.18,1.016,0.032
10.58,-0.118,0.98,0.182
10.59,-0.104,0.761,0.053
10.6,-0.475,1.149,-0.18
10.61,-0.112,0.885,-0.051
10.62,-0.107,1.205,0.074
10.63,-0.186,0.636,0.134
10.64,-0.247,1.064,-0.036
10.65,-0.306,1.021,-0.181
10.66,-0.199,0.983,0.103
10.67,-0.068,1.053,0.106
10.68,-0.212,0.674,-0.007
10.69,-0.458,1.215,-0.156
10.7,0.016,0.867,-0.059
10.71,-0.24,1.128,0.088
10.72,-0.087,0.769,0.198
10.73,-0.315,1.004,-0.15
10.74,-0.321,1.019,-0.168
10.75,0.007,0.974,0.093
10.76,-0.089,1.003,0.074
10.77,-0.297,0.674,0.037
10.78,-0.31,1.341,-0.214
10.79,-0.136,0.824,-0.037
10.8,-0.203,1.051,0.237
10.81,-0.033,0.786,0.094
10.82,-0.477,1.005,-0.195
10.83,-0.206,1.129,-0.052
10.84,-0.042,0.962,0.074
10.85,-0.215,0.956,0.138
10.86,-0.206,0.747,0.011
10.87,-0.373,1.368,-0.208
10.88,-0.234,0.824,0.008
10.89,-0.083,1.056,0.168
10.9,-0.131,0.795,0.042
10.91,-0.544,0.941,-0.14
10.92,-0.023,1.21,-0.077
10.93,-0.1,0.815,0.026
10.94,-0.249,0.999,0.195
10.95,-0.181,0.792,-0.116
10.96,-0.374,1.176,-0.173
10.97,-0.092,0.924,0.133
10.98,-0.077,1.012,0.148
10.99,-0.308,0.877,-0.006
11.0,-0.414,0.939,-0.082
11.01,-0.131,1.241,-0.062
11.02,-0.217,0.724,0.129
11.03,-0.031,1.064,0.082
11.04,-0.308,0.807,-0.177
11.05,-0.326,1.093,-0.11
11.06,-0.006,1.057,0.062
11.07,-0.073,0.796,0.095
11.08,-0.288,0.998,0.039
11.09,-0.287,0.971,-0.215
11.1,-0.146,1.153,-0.039
11.11,-0.196,0.745,0.212
11.12,-0.104,1.041,0.088
11.13,-0.413,0.832,-0.223
11.14,-0.222,1.075,-0.05
11.15,-0.156,1.074,0.103
11.16,-0.091,0.65,0.142
11.17,-0.292,1.119,0.027
11.18,-0.232,0.934,-0.239
11.19,-0.153,1.164,-0.002
11.2,-0.094,0.79,0.196
11.21,-0.187,0.99,0.074
11.22,-0.375,0.954,-0.207
11.23,-0.046,1.053,-0.078
11.24,-0.175,1.036,0.087
11.25,-0.178,0.643,0.19
11.26,-0.288,1.209,-0.114
11.27,-0.268,0.772,-0.211
11.28,-0.176,1.225,0.142
11.29,-0.117,0.723,0.123
11.3,-0.276,0.967,0.018
11.31,-0.319,0.975,-0.17
11.32,-0.134,1.152,-0.026
11.33,-0.209,0.887,0.112
11.34,-0.114,0.808,0.155
11.35,-0.412,1.131,-0.176
11.36,-0.222,0.81,-0.081
11.37,-0.034,1.324,0.116
11.38,-0.107,0.653,0.122
11.39,-0.328,0.984,-0.018
11.4,-0.248,1.045,-0.18
11.41,-0.101,1.023,-0.038
11.42,-0.218,0.955,0.184
11.43,-0.066,0.758,0.109
11.44,-0.558,1.187,-0.206
11.45,-0.1,0.793,-0.027
11.46,-0.149,1.247,0.109
11.47,-0.192,0.647,0.163
11.48,-0.217,1.049,-0.058
11.49,-0.296,1.026,-0.226
11.5,-0.193,0.954,0.048
11.51,-0.105,1.121,0.15
11.52,-0.066,0.661,0.04
11.53,-0.54,1.249,-0.147
11.54,-0.05,0.904,-0.108
11.55,-0.146,1.134,0.063
11.56,-0.17,0.735,0.195
11.57,-0.279,0.998,-0.113
11.58,-0.298,1.0,-0.205
11.59,-0.168,0.911,0.088
11.6,-0.074,1.152,0.102
11.61,-0.111,0.606,0.01
11.62,-0.565,1.271,-0.12
11.63,-0.071,0.921,-0.057
11.64,-0.233,1.105,0.046
11.65,-0.093,0.789,0.187
11.66,-0.304,0.925,-0.152
11.67,-0.255,1.077,-0.219
11.68,-0.029,0.967,0.065
11.69,-0.095,1.064,0.106
11.7,-0.223,0.636,0.028
11.71,-0.395,1.307,-0.186
11.72,-0.123,0.907,-0.022
11.73,-0.227,0.99,0.127
11.74,-0.074,0.873,0.164
11.75,-0.402,0.868,-0.149
11.76,-0.274,1.152,-0.133
11.77,0.031,0.948,0.055
11.78,-0.157,1.015,0.106
11.79,-0.24,0.664,0.036
11.8,-0.324,1.303,-0.221
11.81,-0.152,0.918,-0.023
11.82,-0.187,0.914,0.152
11.83,-0.088,0.938,0.127
11.84,-0.424,0.837,-0.17
11.85,-0.268,1.169,-0.081
11.86,0.028,0.935,0.053
11.87,-0.145,1.023,0.127
11.88,-0.271,0.742,0.024
11.89,-0.32,1.25,-0.236
11.9,-0.101,0.971,-0.039
11.91,-0.159,0.865,0.194
11.92,-0.15,0.989,0.054
11.93,-0.411,0.784,-0.171
11.94,-0.196,1.289,-0.034
11.95,-0.077,0.857,0.08
11.96,-0.277,0.948,0.167
11.97,-0.168,0.837,-0.044
11.98,-0.329,1.091,-0.218
11.99,-0.192,1.054,0.037
12.0,0.01,0.88,0.116
12.01,-0.174,1.02,0.031
12.02,-0.456,0.814,-0.13
12.03,-0.104,1.271,-0.093
12.04,-0.047,0.77,0.044
12.05,-0.243,0.947,0.195
12.06,-0.202,0.901,-0.104
12.07,-0.323,0.964,-0.165
12.08,-0.185,1.145,0.098
12.09,0.056,0.828,0.125
12.1,-0.213,1.001,-0.028
12.11,-0.316,0.961,-0.13
12.12,-0.208,1.268,-0.048
12.13,-0.125,0.637,0.139
12.14,-0.16,1.075,0.203
12.15,-0.323,0.866,-0.17
12.16,-0.284,0.978,-0.124
12.17,-0.127,1.135,0.111
12.18,-0.099,0.764,0.091
12.19,-0.292,0.992,0.004
12.2,-0.35,0.958,-0.168
12.21,-0.117,1.205,-0.032
12.22,-0.226,0.698,0.169
12.23,-0.084,1.024,0.117
12.24,-0.368,0.922,-0.219
12.25,-0.265,0.963,-0.032
12.26,-0.013,1.165,0.039
12.27,-0.124,0.689,0.094
12.28,-0.317,1.081,0.03
12.29,-0.281,0.887,-0.226
12.3,-0.128,1.162,-0.007
12.31,-0.171,0.802,0.172
12.32,-0.017,0.924,0.046
12.33,-0.489,0.983,-0.19
12.34,-0.111,0.95,-0.026
12.35,-0.123,1.123,0.034
12.36,-0.154,0.594,0.182
12.37,-0.274,1.188,-0.028
12.38,-0.326,0.846,-0.228
12.39,-0.187,1.098,0.051
12.4,-0.098,0.908,0.169
12.41,-0.139,0.854,0.045
12.42,-0.421,1.035,-0.19
12.43,-0.064,0.981,-0.07
12.44,-0.17,1.109,0.068
12.45,-0.139,0.63,0.198
12.46,-0.282,1.19,-0.094
12.47,-0.327,0.824,-0.188
12.48,-0.147,1.146,0.108
12.49,-0.019,0.941,0.105
12.5,-0.213,0.771,0.031
12.51,-0.509,1.15,-0.168
12.52,0.022,0.921,-0.09
12.53,-0.171,1.121,0.085
12.54,-0.193,0.67,0.22
12.55,-0.269,1.19,-0.173
12.56,-0.259,0.848,-0.168
12.57,-0.116,1.137,0.175
12.58,-0.114,0.959,0.107
12.59,-0.292,0.749,-0.023
12.6,-0.386,1.228,-0.123
12.61,-0.096,0.881,-0.03
12.62,-0.275,1.117,0.158
12.63,0.001,0.72,0.156
12.64,-0.43,1.166,-0.182
12.65,-0.278,0.889,-0.112
12.66,-0.035,1.092,0.073
12.67,-0.056,0.901,0.11
12.68,-0.323,0.74,0.021
12.69,-0.352,1.285,-0.164
12.7,-0.131,0.791,-0.012
12.71,-0.211,1.13,0.183
12.72,-0.033,0.776,0.107
12.73,-0.471,1.068,-0.221
12.74,-0.192,1.019,-0.009
12.75,-0.084,1.034,0.06
12.76,-0.195,0.892,0.172
12.77,-0.302,0.737,-0.01
12.78,-0.319,1.312,-0.239
12.79,-0.183,0.8,0.031
12.8,-0.183,1.126,0.176
12.81,-0.064,0.75,0.071
12.82,-0.496,1.018,-0.172
12.83,-0.067,1.126,-0.073
12.84,0.0,0.925,0.042
12.85,-0.224,0.992,0.168
12.86,-0.177,0.71,-0.104
12.87,-0.334,1.233,-0.2
12.88,-0.167,0.888,0.162
12.89,-0.079,1.097,0.12
12.9,-0.195,0.718,-0.005
12.91,-0.426,1.06,-0.101
12.92,-0.077,0.998,-0.084
12.93,-0.229,0.886,0.151
12.94,-0.064,1.025,0.181
12.95,-0.406,0.781,-0.207
12.96,-0.259,1.197,-0.063
12.97,-0.097,0.936,0.109
12.98,-0.184,0.957,0.14
12.99,-0.185,0.748,0.018
13.0,-0.391,1.219,-0.182
13.01,-0.049,0.983,-0.051
13.02,-0.183,0.885,0.179
13.03,-0.127,1.02,0.088
13.04,-0.359,0.772,-0.184
13.05,-0.234,1.26,-0.08
13.06,-0.086,0.884,0.065
13.07,-0.12,0.906,0.134
13.08,-0.33,0.861,0.01
13.09,-0.369,1.101,-0.203
13.1,-0.064,1.025,-0.034
13.11,-0.123,0.866,0.192
13.12,-0.167,1.021,0.066
13.13,-0.362,0.769,-0.138
13.14,-0.15,1.268,-0.07
13.15,-0.098,0.799,0.102
13.16,-0.2,0.923,0.203
13.17,-0.312,0.944,-0.094
13.18,-0.237,0.925,-0.183
13.19,-0.197,1.183,0.113
13.2,-0.098,0.769,0.111
13.21,-0.132,1.003,0.022
13.22,-0.414,0.898,-0.127
13.23,-0.179,1.199,-0.114
13.24,-0.092,0.82,0.066
13.25,-0.117,0.895,0.199
13.26,-0.377,1.001,-0.122
13.27,-0.202,0.834,-0.181
13.28,-0.186,1.278,0.107
13.29,-0.13,0.679,0.137
13.3,-0.157,1.042,0.036
13.31,-0.353,0.944,-0.155
13.32,-0.232,1.135,-0.034
13.33,-0.141,0.839,0.127
13.34,-0.098,0.839,0.145
13.35,-0.405,1.083,-0.147
13.36,-0.174,0.811,-0.161
13.37,-0.086,1.33,0.067
13.38,-0.129,0.648,0.138
13.39,-0.274,1.021,0.032
13.4,-0.347,1.009,-0.172
13.41,-0.163,1.042,-0.015
13.42,-0.214,0.891,0.15
13.43,-0.067,0.803,0.153
13.44,-0.454,1.15,-0.174
13.45,-0.211,0.817,-0.088
13.46,-0.087,1.32,0.032
13.47,-0.164,0.616,0.152
13.48,-0.283,1.0,0.058
13.49,-0.279,1.045,-0.203
13.5,-0.141,0.984,0.002
13.51,-0.211,0.995,0.152
13.52,-0.037,0.756,0.085
13.53,-0.505,1.157,-0.157
13.54,-0.224,0.814,-0.015
13.55,-0.051,1.272,0.073
13.56,-0.179,0.679,0.082
13.57,-0.249,1.006,0.003
13.58,-0.333,1.051,-0.213
13.59,-0.123,0.963,0.042
13.6,-0.124,1.101,0.142
13.61,-0.122,0.663,0.045
13.62,-0.442,1.236,-0.168
13.63,-0.099,0.893,-0.088
13.64,-0.124,1.107,0.077
13.65,-0.161,0.76,0.203
13.66,-0.334,0.976,-0.079
13.67,-0.333,1.03,-0.182
13.68,-0.119,0.916,0.138
13.69,-0.192,1.098,0.129
13.7,-0.058,0.61,0.007
13.71,-0.447,1.367,-0.187
13.72,-0.153,0.888,-0.049
13.73,-0.168,1.104,0.135
13.74,-0.101,0.753,0.161
13.75,-0.434,1.038,-0.196
13.76,-0.148,0.871,-0.172
13.77,-0.087,1.123,0.084
13.78,-0.143,0.951,0.137
13.79,-0.253,0.643,0.019
13.8,-0.379,1.342,-0.184
13.81,-0.123,0.893,-0.002
13.82,-0.267,1.091,0.153
13.83,-0.042,0.788,0.124
13.84,-0.427,1.031,-0.235
13.85,-0.23,1.01,-0.036
13.86,-0.08,1.015,0.079
13.87,-0.168,0.922,0.129
13.88,-0.25,0.732,0.028
13.89,-0.411,1.367,-0.187
13.9,-0.116,0.759,-0.05
13.91,-0.16,1.153,0.167
13.92,-0.057,0.767,0.072
13.93,-0.461,0.965,-0.192
13.94,-0.147,1.125,-0.056
13.95,-0.017,0.921,0.06
13.96,-0.228,0.977,0.171
13.97,-0.279,0.737,-0.021
13.98,-0.369,1.266,-0.207
13.99,-0.118,0.856,-0.015
14.0,-0.099,1.085,0.158
14.01,-0.138,0.78,0.006
14.02,-0.441,0.934,-0.152
14.03,-0.1,1.199,-0.03
14.04,-0.046,0.812,0.08
14.05,-0.263,1.018,0.168
14.06,-0.15,0.803,-0.106
14.07,-0.399,1.157,-0.191
14.08,-0.097,0.92,0.11
14.09,-0.102,1.021,0.122
14.1,-0.214,0.839,0.002
14.11,-0.384,0.962,-0.14
14.12,-0.126,1.208,-0.094
14.13,-0.073,0.719,0.078
14.14,-0.176,1.064,0.213
14.15,-0.297,0.797,-0.154
14.16,-0.327,1.094,-0.173
14.17,-0.131,1.046,0.086
14.18,-0.063,0.871,0.105
14.19,-0.28,0.936,-0.0
14.2,-0.388,0.973,-0.113
14.21,-0.129,1.177,-0.064
14.22,-0.177,0.669,0.13
14.23,-0.078,1.07,0.16
14.24,-0.312,0.837,-0.203
14.25,-0.296,1.036,-0.084
14.26,-0.126,1.131,0.085
14.27,-0.029,0.726,0.107
14.28,-0.264,0.988,0.011
14.29,-0.31,0.969,-0.135
14.3,-0.136,1.226,-0.012
14.31,-0.265,0.708,0.177
14.32,-0.033,1.018,0.181
14.33,-0.394,0.928,-0.189
14.34,-0.31,0.97,-0.078
14.35,0.007,1.17,0.038
14.36,-0.16,0.722,0.102
14.37,-0.32,1.027,0.052
14.38,-0.21,0.919,-0.226
14.39,-0.172,1.155,-0.016
14.4,-0.204,0.732,0.213
14.41,-0.066,0.984,0.076
14.42,-0.383,0.94,-0.213
14.43,-0.218,0.924,-0.066
14.44,-0.029,1.174,0.02
14.45,-0.16,0.644,0.112
14.46,-0.326,1.115,0.017
14.47,-0.223,0.9,-0.235
14.48,-0.189,1.153,0.052
14.49,-0.138,0.785,0.178
14.5,-0.049,0.922,0.033
14.51,-0.449,1.05,-0.188
14.52,-0.175,0.903,0.005
14.53,-0.072,1.184,0.029
14.54,-0.154,0.639,0.152
14.55,-0.311,1.163,-0.077
14.56,-0.359,0.78,-0.167
14.57,-0.18,1.189,0.105
14.58,0.004,0.819,0.139
14.59,-0.251,0.957,-0.021
14.6,-0.363,0.928,-0.178
14.61,-0.072,1.041,-0.039
14.62,-0.226,0.971,0.104
14.63,-0.138,0.664,0.185
14.64,-0.295,1.209,-0.154
14.65,-0.339,0.782,-0.123
14.66,-0.143,1.268,0.115
14.67,-0.017,0.797,0.089
14.68,-0.324,0.896,0.016
14.69,-0.298,1.073,-0.127
14.7,-0.092,0.989,-0.094
14.71,-0.181,1.002,0.111
14.72,0.0,0.759,0.187
14.73,-0.461,1.194,-0.197
14.74,-0.262,0.76,-0.113
14.75,-0.044,1.335,0.134
14.76,-0.184,0.732,0.122
14.77,-0.322,0.89,0.019
14.78,-0.286,1.185,-0.217
14.79,-0.102,0.872,-0.038
14.8,-0.226,1.073,0.198
14.81,0.032,0.697,0.078
14.82,-0.52,1.183,-0.216
14.83,-0.264,0.87,-0.024
14.84,-0.042,1.202,0.044
14.85,-0.175,0.753,0.135
14.86,-0.329,0.888,-0.023
14.87,-0.282,1.224,-0.221
14.88,-0.144,0.853,0.022
14.89,-0.186,1.162,0.226
14.9,-0.045,0.693,0.076
14.91,-0.489,1.159,-0.21
14.92,-0.089,0.923,-0.061
14.93,-0.148,1.088,0.098
14.94,-0.153,0.823,0.145
14.95,-0.345,0.857,-0.078
14.96,-0.339,1.206,-0.166
14.97,-0.106,0.827,0.073
14.98,-0.1,1.199,0.128
14.99,-0.143,0.62,0.068
15.0,-0.419,1.148,-0.187
15.01,-0.107,1.038,-0.065
15.02,-0.117,0.937,0.078
15.03,-0.193,0.919,0.189
15.04,-0.333,0.802,-0.153
15.05,-0.268,1.195,-0.172
15.06,-0.043,0.946,0.124
15.07,-0.22,1.085,0.168
15.08,-0.165,0.657,0.028
15.09,-0.391,1.233,-0.163
15.1,-0.127,1.005,-0.058
15.11,-0.187,0.853,0.157
15.12,-0.098,1.032,0.132
15.13,-0.375,0.741,-0.178
15.14,-0.307,1.203,-0.109
15.15,0.004,0.939,0.081
15.16,-0.194,0.945,0.105
15.17,-0.202,0.768,0.039
15.18,-0.288,1.162,-0.196
15.19,-0.15,1.037,-0.033
15.2,-0.112,0.804,0.174
15.21,-0.132,1.061,0.091
15.22,-0.386,0.746,-0.215
15.23,-0.186,1.244,-0.048
15.24,-0.097,0.93,0.104
15.25,-0.182,0.896,0.154
15.26,-0.243,0.92,0.01
15.27,-0.359,1.12,-0.192
15.28,-0.199,1.08,0.013
15.29,-0.067,0.834,0.172
15.3,-0.186,1.039,0.055
15.31,-0.359,0.759,-0.172
15.32,-0.151,1.264,-0.013
15.33,-0.148,0.834,0.057
15.34,-0.231,0.842,0.202
15.35,-0.234,1.026,-0.078
15.36,-0.334,1.035,-0.145
15.37,-0.127,1.078,0.12
15.38,-0.096,0.863,0.095
15.39,-0.24,0.949,0.029
15.4,-0.326,0.944,-0.186
15.41,-0.103,1.252,-0.085
15.42,-0.185,0.65,0.118
15.43,-0.076,1.022,0.187
15.44,-0.37,0.912,-0.177
15.45,-0.263,0.95,-0.118
15.46,-0.051,1.182,0.044
15.47,-0.104,0.687,0.106
15.48,-0.303,1.024,0.054
15.49,-0.311,0.962,-0.154
15.5,-0.143,1.181,-0.038
15.51,-0.226,0.729,0.129
15.52,-0.097,0.984,0.138
15.53,-0.439,0.958,-0.184
15.54,-0.22,0.948,-0.103
15.55,0.024,1.266,0.036
15.56,-0.148,0.598,0.066
15.57,-0.332,1.086,0.04
15.58,-0.235,0.978,-0.213
15.59,-0.113,1.138,-0.054
15.6,-0.216,0.774,0.247
15.61,-0.064,0.907,0.046
15.62,-0.5,1.055,-0.232
15.63,-0.094,0.894,-0.025
15.64,-0.115,1.208,0.054
15.65,-0.124,0.581,0.115
15.66,-0.272,1.176,-0.063
15.67,-0.238,0.874,-0.183
15.68,-0.185,1.126,0.022
15.69,-0.111,0.872,0.176
15.7,-0.106,0.842,0.023
15.71,-0.488,1.172,-0.193
15.72,-0.084,0.914,-0.101
15.73,-0.146,1.137,0.073
15.74,-0.115,0.652,0.193
15.75,-0.361,1.158,-0.126
15.76,-0.213,0.842,-0.196
15.77,-0.152,1.159,0.13
15.78,-0.135,0.874,0.131
15.79,-0.181,0.799,0.008
15.8,-0.475,1.3,-0.144
15.81,-0.125,0.844,-0.027
15.82,-0.218,1.126,0.126
15.83,-0.073,0.733,0.163
15.84,-0.462,1.109,-0.174
15.85,-0.272,0.863,-0.103
15.86,-0.028,1.144,0.08
15.87,-0.17,0.893,0.126
15.88,-0.255,0.708,0.026
15.89,-0.406,1.284,-0.164
15.9,-0.105,0.816,0.016
15.91,-0.276,1.163,0.122
15.92,0.044,0.722,0.126
15.93,-0.49,1.101,-0.228
15.94,-0.218,0.933,-0.054
15.95,-0.061,1.095,0.085
15.96,-0.124,0.933,0.066
15.97,-0.261,0.72,-0.005
15.98,-0.371,1.317,-0.184
15.99,-0.106,0.829,0.007
16.0,-0.167,1.154,0.159
16.01,-0.112,0.712,0.076
16.02,-0.446,1.076,-0.233
16.03,-0.007,0.959,-0.081
16.04,-0.152,1.031,0.105
16.05,-0.207,0.869,0.19
16.06,-0.307,0.865,-0.127
16.07,-0.281,1.21,-0.181
16.08,-0.11,0.9,0.119
16.09,-0.176,1.09,0.1
16.1,-0.168,0.651,-0.011
16.11,-0.391,1.27,-0.169
16.12,-0.104,0.976,-0.066
16.13,-0.185,0.924,0.11
16.14,-0.08,0.985,0.163
16.15,-0.406,0.822,-0.212
16.16,-0.262,1.149,-0.088
16.17,0.05,0.963,0.043
16.18,-0.114,0.967,0.095
16.19,-0.233,0.726,-0.012
16.2,-0.363,1.273,-0.25
16.21,-0.083,0.859,0.023
16.22,-0.126,1.105,0.171
16.23,-0.148,0.812,0.016
16.24,-0.473,0.969,-0.145
16.25,-0.127,1.235,-0.016
16.26,-0.165,0.812,0.115
16.27,-0.212,0.978,0.156
16.28,-0.212,0.813,-0.107
16.29,-0.394,1.174,-0.158
16.3,-0.047,0.873,0.09
16.31,-0.079,1.088,0.163
16.32,-0.186,0.84,0.01
16.33,-0.429,0.873,-0.153
16.34,-0.084,1.279,-0.051
16.35,-0.194,0.739,0.084
16.36,-0.12,1.036,0.175
16.37,-0.304,0.813,-0.147
16.38,-0.332,1.092,-0.129
16.39,-0.099,1.005,0.107
16.4,-0.093,0.877,0.099
16.41,-0.194,0.906,-0.0
16.42,-0.399,0.99,-0.176
16.43,-0.089,1.248,-0.048
16.44,-0.121,0.696,0.09
16.45,-0.17,1.024,0.179
16.46,-0.348,0.874,-0.201
16.47,-0.228,1.035,-0.118
16.48,-0.068,1.086,0.112
16.49,-0.116,0.765,0.095
16.5,-0.29,1.034,-0.015
16.51,-0.26,0.977,-0.173
16.52,-0.165,1.198,0.035
16.53,-0.182,0.725,0.195
16.54,-0.14,0.999,0.037
16.55,-0.373,0.918,-0.216
16.56,-0.189,1.043,0.04
16.57,-0.148,1.094,0.083
16.58,-0.163,0.66,0.15
16.59,-0.292,1.157,-0.04
16.6,-0.304,0.838,-0.164
16.61,-0.199,1.19,0.096
16.62,0.004,0.814,0.145
16.63,-0.259,0.927,0.012
16.64,-0.403,1.0,-0.161
16.65,-0.096,1.046,-0.085
16.66,-0.15,0.994,0.05
16.67,-0.081,0.706,0.213
16.68,-0.46,1.231,-0.159
16.69,-0.286,0.727,-0.211
16.7,0.057,1.282,0.071
16.71,-0.121,0.776,0.126
16.72,-0.344,0.868,0.046
16.73,-0.268,1.148,-0.184
16.74,-0.178,0.925,-0.078
16.75,-0.243,1.037,0.183
16.76,0.041,0.71,0.105
16.77,-0.538,1.162,-0.214
16.78,-0.181,0.854,0.01
16.79,-0.115,1.234,0.056
16.8,-0.199,0.751,0.157
16.81,-0.227,0.916,0.017
16.82,-0.37,1.177,-0.243
16.83,-0.172,0.83,0.049
16.84,-0.093,1.222,0.116
16.85,-0.092,0.621,0.051
16.86,-0.531,1.151,-0.149
16.87,-0.052,0.944,-0.064
16.88,-0.07,1.072,0.042
16.89,-0.22,0.817,0.227
16.9,-0.245,0.866,-0.081
16.91,-0.367,1.131,-0.206
16.92,-0.087,0.892,0.151
16.93,-0.116,1.146,0.097
16.94,-0.186,0.605,0.01
16.95,-0.425,1.26,-0.13
16.96,-0.072,1.004,-0.125
16.97,-0.162,0.911,0.132
16.98,-0.104,0.952,0.221
16.99,-0.421,0.949,-0.217
17.0,-0.258,1.008,-0.104
17.01,0.06,1.079,0.039
17.02,-0.22,0.993,0.089
17.03,-0.183,0.628,0.037
17.04,-0.364,1.404,-0.219
17.05,-0.125,0.797,-0.054
17.06,-0.235,1.072,0.218
17.07,-0.061,0.831,0.064
17.08,-0.461,0.898,-0.207
17.09,-0.16,1.152,-0.023
17.1,-0.102,0.939,0.061
17.11,-0.184,0.933,0.121
17.12,-0.186,0.776,0.015
17.13,-0.48,1.326,-0.229
17.14,-0.123,0.795,-0.015
17.15,-0.056,1.099,0.173
17.16,-0.174,0.82,0.046
17.17,-0.475,0.907,-0.129
17.18,-0.027,1.236,-0.077
17.19,-0.197,0.806,0.088
17.2,-0.155,0.994,0.207
17.21,-0.171,0.772,-0.116
17.22,-0.395,1.147,-0.18
17.23,-0.163,0.941,0.109
17.24,-0.046,1.015,0.13
17.25,-0.263,0.838,0.055
17.26,-0.413,0.94,-0.146
17.27,-0.048,1.252,-0.112
17.28,-0.198,0.675,0.082
17.29,-0.123,1.078,0.226
17.3,-0.309,0.852,-0.185
17.31,-0.325,1.004,-0.164
17.32,-0.108,1.129,0.148
17.33,-0.153,0.905,0.087
17.34,-0.227,0.895,0.021
17.35,-0.339,0.987,-0.129
17.36,-0.18,1.271,-0.06
17.37,-0.13,0.643,0.118
17.38,-0.055,1.055,0.185
17.39,-0.409,0.866,-0.174
17.4,-0.29,0.966,-0.087
17.41,-0.02,1.194,0.114
17.42,-0.228,0.717,0.116
17.43,-0.266,1.021,0.026
17.44,-0.303,0.952,-0.157
17.45,-0.146,1.165,-0.055
17.46,-0.182,0.697,0.172
17.47,-0.024,1.0,0.098
17.48,-0.454,0.907,-0.206
17.49,-0.151,0.968,-0.029
17.5,-0.074,1.239,0.06
17.51,-0.156,0.615,0.13
17.52,-0.289,1.112,-0.004
17.53,-0.255,0.94,-0.19
17.54,-0.224,1.155,0.039
17.55,-0.15,0.733,0.179
17.56,-0.044,0.971,0.052
17.57,-0.49,0.976,-0.226
17.58,-0.128,0.923,-0.019
17.59,-0.049,1.185,0.047
17.6,-0.137,0.589,0.134
17.61,-0.301,1.173,-0.015
17.62,-0.352,0.869,-0.175
17.63,-0.24,1.142,0.084
17.64,-0.051,0.89,0.134
17.65,-0.206,0.866,0.026
17.66,-0.453,1.086,-0.162
17.67,-0.03,0.962,-0.087
17.68,-0.198,1.107,0.076
17.69,-0.175,0.627,0.244
17.7,-0.315,1.187,-0.123
17.71,-0.267,0.778,-0.232
17.72,-0.108,1.192,0.136
17.73,-0.078,0.876,0.122
17.74,-0.27,0.797,0.033
17.75,-0.421,1.209,-0.153
17.76,-0.039,0.9,-0.069
17.77,-0.225,1.161,0.084
17.78,-0.084,0.698,0.188
17.79,-0.376,1.123,-0.156
17.8,-0.259,0.805,-0.081
17.81,-0.044,1.297,0.046
17.82,-0.156,0.686,0.082
17.83,-0.303,0.976,0.028
17.84,-0.346,1.063,-0.225
17.85,-0.119,0.87,-0.002
17.86,-0.212,1.134,0.186
17.87,-0.097,0.66,0.073
17.88,-0.494,1.211,-0.18
17.89,-0.147,0.852,-0.046
17.9,-0.049,1.179,0.062
17.91,-0.133,0.745,0.143
17.92,-0.318,0.971,-0.01
17.93,-0.417,1.143,-0.208
17.94,-0.187,0.846,0.007
17.95,-0.112,1.218,0.154
17.96,-0.087,0.628,0.029
17.97,-0.502,1.163,-0.191
17.98,-0.014,0.983,-0.045
17.99,-0.139,1.109,0.07
18.0,-0.211,0.729,0.18
18.01,-0.232,0.946,-0.086
18.02,-0.297,1.159,-0.195
18.03,-0.262,0.879,0.141
18.04,-0.082,1.163,0.109
18.05,-0.166,0.61,-0.03
18.06,-0.55,1.247,-0.13
18.07,-0.032,0.903,-0.075
18.08,-0.174,1.02,0.087
18.09,-0.19,0.88,0.211
18.1,-0.291,0.843,-0.153
18.11,-0.299,1.163,-0.138
18.12,0.003,0.944,0.074
18.13,-0.144,1.057,0.104
18.14,-0.268,0.688,0.069
18.15,-0.429,1.259,-0.186
18.16,-0.062,0.905,-0.007
18.17,-0.288,0.974,0.179
18.18,-0.049,0.967,0.098
18.19,-0.368,0.855,-0.234
18.2,-0.293,1.186,-0.071
18.21,-0.005,0.878,0.07
18.22,-0.122,1.01,0.117
18.23,-0.331,0.757,-0.0
18.24,-0.363,1.195,-0.197
18.25,-0.088,0.99,-0.014
18.26,-0.262,0.916,0.206
18.27,0.001,0.968,0.044
18.28,-0.441,0.821,-0.225
18.29,-0.194,1.215,-0.016
18.3,-0.031,0.82,0.101
18.31,-0.239,1.012,0.132
18.32,-0.286,0.837,-0.061
18.33,-0.254,1.094,-0.145
18.34,-0.232,1.056,0.053
18.35,-0.07,0.819,0.176
18.36,-0.162,1.02,-0.011
18.37,-0.44,0.851,-0.168
18.38,-0.116,1.229,-0.062
18.39,-0.133,0.795,0.091
18.4,-0.233,0.944,0.24
18.41,-0.246,0.95,-0.146
18.42,-0.331,0.98,-0.16
18.43,-0.127,1.162,0.051
18.44,-0.047,0.754,0.145
18.45,-0.296,1.017,0.022
18.46,-0.343,0.921,-0.153
18.47,-0.119,1.207,-0.064
18.48,-0.17,0.782,0.108
18.49,-0.145,0.948,0.171
18.5,-0.266,0.957,-0.208
18.51,-0.287,0.916,-0.088
18.52,-0.075,1.235,0.045
18.53,-0.078,0.661,0.097
18.54,-0.321,1.053,0.044
18.55,-0.315,0.904,-0.185
18.56,-0.06,1.17,-0.03
18.57,-0.217,0.801,0.122
18.58,-0.072,0.923,0.112
18.59,-0.376,1.048,-0.203
18.6,-0.363,0.866,0.002
18.61,-0.004,1.27,0.084
18.62,-0.233,0.683,0.092
18.63,-0.28,1.132,-0.054
18.64,-0.297,0.87,-0.148
18.65,-0.193,1.194,0.017
18.66,0.015,0.789,0.145
18.67,-0.12,0.95,-0.018
18.68,-0.5,0.947,-0.171
18.69,-0.068,1.0,-0.069
18.7,-0.108,1.049,0.07
18.71,-0.207,0.672,0.201
18.72,-0.312,1.164,-0.135
18.73,-0.204,0.825,-0.183
18.74,-0.186,1.284,0.118
18.75,-0.083,0.751,0.122
18.76,-0.215,0.886,0.024
18.77,-0.382,1.157,-0.182
18.78,-0.09,0.926,-0.03
18.79,-0.208,1.034,0.126
18.8,-0.073,0.676,0.172
18.81,-0.414,1.2,-0.177
18.82,-0.28,0.803,-0.124
18.83,-0.137,1.273,0.082
18.84,-0.327,0.885,-0.155
18.85,-0.319,0.966,-0.113
18.86,-0.097,1.032,0.081
18.87,-0.076,0.963,0.097
18.88,-0.356,0.7,0.008
18.89,-0.292,1.308,-0.187
18.9,-0.085,0.825,0.012
18.91,-0.277,1.096,0.188
18.92,-0.003,0.775,0.102
18.93,-0.441,1.02,-0.201
18.94,-0.269,1.025,-0.037
18.95,-0.06,0.995,0.084
18.96,-0.123,0.989,0.086
18.97,-0.317,0.744,-0.014
18.98,-0.307,1.299,-0.184
18.99,-0.162,0.815,0.036
19.0,-0.101,1.079,0.142
19.01,-0.111,0.77,0.075
19.02,-0.448,1.004,-0.227
19.03,-0.079,1.133,-0.065
19.04,-0.116,0.885,0.117
19.05,-0.243,1.006,0.165
19.06,-0.22,0.741,-0.079
19.07,-0.254,1.257,-0.151
19.08,-0.19,0.894,0.095
19.09,-0.149,0.972,0.162
19.1,-0.12,0.792,0.025
19.11,-0.486,1.024,-0.164
19.12,-0.078,1.168,-0.051
19.13,-0.076,0.755,0.131
19.14,-0.233,1.048,0.207
19.15,-0.316,0.765,-0.103
19.16,-0.251,1.167,-0.173
19.17,-0.107,0.979,0.116
19.18,-0.144,0.897,0.157
19.19,-0.265,0.889,-0.031
19.2,-0.414,1.0,-0.118
19.21,-0.031,1.185,-0.058
19.22,-0.192,0.716,0.146
19.23,-0.145,1.058,0.116
19.24,-0.324,0.806,-0.187
19.25,-0.322,1.144,-0.044
19.26,-0.005,1.052,0.089
19.27,-0.168,0.767,0.09
19.28,-0.316,1.004,0.001
19.29,-0.295,0.959,-0.221
19.3,-0.135,1.097,-0.028
19.31,-0.091,0.768,0.227
19.32,-0.153,1.071,0.058
19.33,-0.425,0.792,-0.214
19.34,-0.13,1.125,-0.045
19.35,-0.083,1.037,0.078
19.36,-0.237,0.713,0.183
19.37,-0.225,1.007,-0.143
19.38,-0.284,0.957,-0.176
19.39,-0.137,1.185,0.105
19.4,0.001,0.7,0.11
19.41,-0.38,1.069,0.033
19.42,-0.346,0.914,-0.198
19.43,-0.067,1.099,-0.086
19.44,-0.244,0.814,0.188
19.45,-0.014,0.907,0.133
19.46,-0.416,1.043,-0.205
19.47,-0.296,0.87,-0.075
19.48,-0.08,1.284,0.04
19.49,-0.081,0.616,0.09
19.5,-0.315,1.097,0.051
19.51,-0.323,0.974,-0.233
19.52,-0.123,1.076,0.023
19.53,-0.204,0.938,0.194
19.54,-0.051,0.769,0.077
19.55,-0.419,1.121,-0.179
19.56,-0.202,0.895,-0.036
19.57,-0.067,1.201,0.051
19.58,-0.199,0.624,0.151
19.59,-0.291,1.108,-0.028
19.6,-0.285,0.938,-0.221
19.61,-0.13,1.052,0.07
19.62,-0.126,1.012,0.169
19.63,-0.164,0.707,0.045
19.64,-0.464,1.184,-0.187
19.65,-0.08,0.919,-0.056
19.66,-0.111,1.114,0.066
19.67,-0.166,0.721,0.197
19.68,-0.315,1.097,-0.099
19.69,-0.28,0.911,-0.162
19.7,-0.135,1.077,0.154
19.71,-0.203,1.023,0.138
19.72,-0.137,0.668,-0.011
19.73,-0.456,1.315,-0.19
19.74,-0.043,0.874,-0.088
19.75,-0.167,1.086,0.11
19.76,-0.125,0.744,0.192
19.77,-0.419,1.065,-0.176
19.78,-0.3,0.956,-0.075
19.79,-0.045,1.055,0.076
19.8,-0.099,0.957,0.068
19.81,-0.29,0.7,0.019
19.82,-0.358,1.328,-0.251
19.83,0.0,0.81,-0.027
19.84,-0.206,1.138,0.196
19.85,-0.029,0.744,0.054
19.86,-0.481,1.041,-0.179
19.87,-0.202,1.097,-0.062
19.88,-0.078,0.924,0.116
19.89,-0.213,0.991,0.147
19.9,-0.255,0.712,-0.07
19.91,-0.337,1.251,-0.203
19.92,-0.194,0.871,0.104
19.93,-0.067,1.06,0.122
19.94,-0.11,0.755,0.039
19.95,-0.466,1.022,-0.163
19.96,-0.018,1.176,-0.056
19.97,-0.144,0.791,0.066
19.98,-0.225,1.005,0.205
19.99,-0.256,0.795,-0.152
20.0,-0.287,1.165,-0.22
20.01,-0.094,0.932,0.142
20.02,-0.144,0.977,0.147
20.03,-0.259,0.797,-0.001
20.04,-0.39,1.055,-0.164
20.05,-0.08,1.138,-0.039
20.06,-0.253,0.759,0.161
20.07,-0.076,1.06,0.139
20.08,-0.316,0.801,-0.21
20.09,-0.302,1.174,-0.061
20.1,-0.031,0.972,0.042
20.11,-0.139,0.83,0.127
20.12,-0.218,0.978,0.025
20.13,-0.428,1.021,-0.163
20.14,-0.122,1.124,-0.056
20.15,-0.099,0.821,0.161
20.16,-0.137,1.014,0.067
20.17,-0.335,0.814,-0.207
20.18,-0.149,1.21,-0.071
20.19,-0.09,0.739,0.093
20.2,-0.221,0.961,0.23
20.21,-0.312,0.922,-0.119
20.22,-0.309,0.953,-0.193
20.23,-0.121,1.161,0.131
20.24,-0.093,0.759,0.125
20.25,-0.211,0.998,0.004
20.26,-0.369,0.912,-0.162
20.27,-0.163,1.261,-0.095
20.28,-0.135,0.736,0.092
20.29,-0.165,0.962,0.187
20.3,-0.343,0.978,-0.157
20.31,-0.352,0.909,-0.086
20.32,0.016,1.269,0.062
20.33,-0.067,0.638,0.071
20.34,-0.289,1.055,0.056
20.35,-0.279,0.967,-0.234
20.36,-0.139,1.081,-0.054
20.37,-0.147,0.86,0.206
20.38,-0.172,0.903,0.108
20.39,-0.376,1.041,-0.179
20.4,-0.177,0.936,-0.01
20.41,-0.224,1.187,0.095
20.42,-0.103,0.609,0.139
20.43,-0.27,1.151,-0.075
20.44,-0.372,0.909,-0.188
20.45,-0.03,1.042,0.001
20.46,-0.152,0.967,0.184
20.47,-0.169,0.772,0.049
20.48,-0.4,1.13,-0.191
20.49,-0.067,0.943,-0.048
20.5,-0.192,1.175,0.083
20.51,-0.174,0.645,0.184
20.52,-0.297,1.129,-0.104
20.53,-0.331,0.886,-0.201
20.54,-0.143,1.092,0.128
20.55,-0.098,0.998,0.111
20.56,-0.131,0.709,-0.012
20.57,-0.422,1.242,-0.15
20.58,-0.088,0.847,-0.056
20.59,-0.172,1.103,0.112
20.6,-0.147,0.716,0.185
20.61,-0.382,1.108,-0.212
20.62,-0.242,0.883,-0.19
20.63,-0.082,1.142,0.101
20.64,-0.112,0.949,0.138
20.65,-0.23,0.695,-0.001
20.66,-0.349,1.33,-0.199
20.67,-0.068,0.801,-0.046
20.68,-0.227,1.118,0.187
20.69,-0.084,0.707,0.097
20.7,-0.424,1.055,-0.234
20.71,-0.126,1.029,-0.038
20.72,-0.142,1.01,0.109
20.73,-0.175,0.94,0.156
20.74,-0.157,0.716,-0.064
20.75,-0.436,1.293,-0.177
20.76,-0.11,0.827,0.053
20.77,-0.129,1.182,0.107
20.78,-0.132,0.683,0.069
20.79,-0.467,1.111,-0.124
20.8,-0.17,1.146,-0.101
20.81,-0.153,0.793,0.076
20.82,-0.161,1.012,0.179
20.83,-0.314,0.757,-0.109
20.84,-0.32,1.21,-0.154
20.85,-0.135,0.914,0.131
20.86,-0.116,1.059,0.125
20.87,-0.16,0.758,0.023
20.88,-0.465,1.046,-0.158
20.89,-0.077,1.188,-0.096
20.9,-0.094,0.747,0.089
20.91,-0.182,1.077,0.175
20.92,-0.317,0.738,-0.182
20.93,-0.229,1.158,-0.161
20.94,-0.023,1.01,0.139
20.95,-0.174,0.902,0.141
20.96,-0.243,0.864,0.026
20.97,-0.345,1.07,-0.197
20.98,-0.108,1.135,-0.05
20.99,-0.208,0.741,0.208
21.0,-0.134,0.977,0.039
21.01,-0.397,0.815,-0.189
21.02,-0.185,1.282,-0.0
21.03,-0.083,0.815,0.036
21.04,-0.176,0.939,0.159
21.05,-0.216,0.914,-0.055
21.06,-0.39,1.06,-0.21
21.07,-0.042,1.057,0.022
21.08,-0.135,0.84,0.163
21.09,-0.186,0.961,0.046
21.1,-0.395,0.846,-0.227
21.11,-0.062,1.285,-0.079
21.12,-0.14,0.765,0.132
21.13,-0.182,0.929,0.19
21.14,-0.305,0.958,-0.137
21.15,-0.284,0.92,-0.148
21.16,-0.043,1.228,0.103
21.17,-0.121,0.732,0.132
21.18,-0.259,1.032,-0.003
21.19,-0.363,0.908,-0.172
21.2,-0.155,1.179,0.008
21.21,-0.199,0.789,0.173
21.22,-0.1,0.878,0.102
21.23,-0.428,1.022,-0.174
21.24,-0.21,0.942,-0.053
21.25,-0.137,1.242,0.075
21.26,-0.089,0.588,0.115
21.27,-0.298,1.162,-0.002
21.28,-0.348,0.906,-0.254
21.29,-0.126,1.072,0.02
21.3,-0.17,0.947,0.159
21.31,-0.13,0.848,0.092
21.32,-0.419,1.097,-0.201
21.33,-0.044,0.89,-0.059
21.34,-0.121,1.176,0.102
21.35,-0.169,0.635,0.159
21.36,-0.291,1.134,-0.054
21.37,-0.26,0.914,-0.209
21.38,-0.169,1.112,0.095
21.39,-0.138,0.931,0.148
21.4,-0.168,0.712,0.025
21.41,-0.437,1.214,-0.151
21.42,-0.058,0.876,-0.071
21.43,-0.165,1.095,0.076
21.44,-0.132,0.697,0.181
21.45,-0.385,1.105,-0.171
21.46,-0.194,0.857,-0.197
21.47,-0.088,1.165,0.159
21.48,-0.133,0.932,0.123
21.49,-0.345,0.707,0.012
21.5,-0.34,1.298,-0.177
21.51,-0.045,0.831,-0.046
21.52,-0.256,1.114,0.175
21.53,0.001,0.748,0.1
21.54,-0.437,1.104,-0.236
21.55,-0.251,0.98,-0.015
21.56,-0.111,1.028,0.108
21.57,-0.144,0.911,0.104
21.58,-0.289,0.772,0.012
21.59,-0.428,1.26,-0.216
21.6,-0.078,0.765,0.032
21.61,-0.094,1.209,0.144
21.62,-0.09,0.712,0.048
21.63,-0.45,1.069,-0.196
21.64,-0.083,1.089,-0.087
21.65,-0.111,0.825,0.091
21.66,-0.186,1.01,0.184
21.67,-0.32,0.77,-0.094
21.68,-0.289,1.226,-0.163
21.69,-0.137,0.907,0.096
21.7,-0.151,1.036,0.148
21.71,-0.114,0.74,-0.022
21.72,-0.43,1.125,-0.164
21.73,-0.088,1.101,-0.059
21.74,-0.149,0.762,0.144
21.75,-0.187,1.071,0.164
21.76,-0.346,0.787,-0.168
21.77,-0.307,1.176,-0.1
21.78,-0.069,0.964,0.147
21.79,-0.181,0.942,0.137
21.8,-0.251,0.829,-0.056
21.81,-0.332,1.098,-0.148
21.82,-0.091,0.975,-0.027
21.83,-0.155,0.878,0.243
21.84,-0.081,0.96,0.062
21.85,-0.428,0.841,-0.224
21.86,-0.143,1.263,-0.002
21.87,-0.119,0.813,0.122
21.88,-0.27,0.979,0.19
21.89,-0.266,0.864,-0.087
21.9,-0.271,1.069,-0.216
21.91,-0.165,1.066,0.098
21.92,-0.005,0.813,0.114
21.93,-0.221,0.989,-0.02
21.94,-0.424,0.902,-0.109
21.95,-0.155,1.26,-0.02
21.96,-0.231,0.734,0.099
21.97,-0.073,0.974,0.118
21.98,-0.347,0.918,-0.167
21.99,-0.329,0.964,-0.114
22.0,0.002,1.173,0.047
22.01,-0.037,0.647,0.093
22.02,-0.333,1.061,0.066
22.03,-0.269,0.953,-0.24
22.04,-0.076,1.15,-0.025
22.05,-0.222,0.758,0.199
22.06,-0.141,0.926,0.089
22.07,-0.368,1.024,-0.215
22.08,-0.252,0.942,-0.054
22.09,-0.045,1.22,0.058
22.1,-0.094,0.59,0.076
22.11,-0.287,1.109,0.013
22.12,-0.291,0.947,-0.2
22.13,-0.219,1.108,0.053
22.14,-0.121,0.878,0.188
22.15,-0.147,0.854,0.024
22.16,-0.452,1.091,-0.184
22.17,-0.019,0.938,-0.061
22.18,-0.203,1.158,0.059
22.19,-0.159,0.629,0.23
22.2,-0.289,1.194,-0.112
22.21,-0.238,0.825,-0.246
22.22,-0.088,1.159,0.14
22.23,-0.072,0.905,0.096
22.24,-0.247,0.749,0.041
22.25,-0.439,1.255,-0.149
22.26,-0.123,0.87,-0.02
22.27,-0.287,1.106,0.107
22.28,0.002,0.711,0.171
22.29,-0.493,1.127,-0.166
22.3,-0.298,0.784,-0.086
22.31,0.043,1.22,0.064
22.32,-0.175,0.911,0.131
22.33,-0.281,0.733,0.058
22.34,-0.362,1.317,-0.222
22.35,-0.102,0.787,0.007
22.36,-0.233,1.157,0.17
22.37,-0.018,0.733,0.114
22.38,-0.442,1.12,-0.237
22.39,-0.272,0.923,-0.009
22.4,-0.039,1.076,0.052
22.41,-0.167,0.897,0.075
22.42,-0.212,0.758,-0.025
22.43,-0.404,1.317,-0.205
22.44,-0.092,0.8,-0.001
22.45,-0.146,1.204,0.167
22.46,-0.066,0.679,0.068
22.47,-0.513,1.098,-0.164
22.48,-0.048,1.051,-0.091
22.49,-0.149,0.949,0.078
22.5,-0.209,0.955,0.175
22.51,-0.232,0.754,-0.09
22.52,-0.333,1.243,-0.219
22.53,-0.135,0.863,0.115
22.54,-0.112,1.125,0.117
22.55,-0.118,0.683,0.056
22.56,-0.452,1.061,-0.149
22.57,-0.01,1.158,-0.101
22.58,-0.119,0.805,0.072
22.59,-0.196,1.014,0.2
22.6,-0.25,0.803,-0.138
22.61,-0.331,1.193,-0.152
22.62,-0.127,0.938,0.147
22.63,-0.158,1.021,0.12
22.64,-0.252,0.678,0.036
22.65,-0.356,1.262,-0.159
22.66,-0.128,1.001,-0.038
22.67,-0.187,0.829,0.153
22.68,-0.11,1.024,0.102
22.69,-0.419,0.802,-0.222
22.7,-0.295,1.135,-0.063
22.71,-0.043,0.931,0.106
22.72,-0.131,0.975,0.11
22.73,-0.252,0.737,-0.022
22.74,-0.322,1.225,-0.158
22.75,-0.099,1.036,-0.02
22.76,-0.188,0.819,0.159
22.77,-0.09,1.015,0.045
22.78,-0.375,0.816,-0.231
22.79,-0.24,1.204,0.01
22.8,-0.079,0.856,0.112
22.81,-0.17,0.942,0.146
22.82,-0.295,0.852,-0.03
22.83,-0.283,1.063,-0.18
22.84,-0.136,1.079,0.023
22.85,-0.12,0.795,0.166
22.86,-0.147,1.033,0.064
22.87,-0.423,0.862,-0.206
22.88,-0.186,1.185,-0.021
22.89,-0.101,0.819,0.113
22.9,-0.194,0.94,0.155
22.91,-0.279,0.917,-0.126
22.92,-0.295,0.942,-0.161
22.93,-0.094,1.158,0.078
22.94,-0.11,0.746,0.155
22.95,-0.215,1.02,0.037
22.96,-0.367,0.901,-0.182
22.97,-0.183,1.239,-0.01
22.98,-0.118,0.759,0.095
22.99,-0.085,0.923,0.154
23.0,-0.385,1.093,-0.174
23.01,-0.265,0.853,-0.11
23.02,-0.067,1.251,0.055
23.03,-0.101,0.7,0.138
23.04,-0.286,1.051,0.028
23.05,-0.339,0.944,-0.175
23.06,-0.127,1.179,-0.049
23.07,-0.168,0.789,0.115
23.08,-0.101,0.844,0.12
23.09,-0.438,1.145,-0.205
23.1,-0.264,0.791,-0.047
23.11,0.036,1.268,0.063
23.12,-0.102,0.635,0.106
23.13,-0.386,1.057,0.012
23.14,-0.265,0.984,-0.199
23.15,-0.177,1.054,-0.029
23.16,-0.056,0.901,0.144
23.17,-0.11,0.758,0.035
23.18,-0.562,1.161,-0.18
23.19,-0.055,0.856,-0.047
23.2,-0.092,1.212,0.07
23.21,-0.167,0.67,0.179
23.22,-0.294,1.123,-0.111
23.23,-0.229,0.939,-0.219
23.24,-0.194,1.082,0.12
23.25,-0.054,0.949,0.104
23.26,-0.238,0.716,0.04
23.27,-0.498,1.31,-0.167
23.28,-0.04,0.846,-0.03
23.29,-0.19,1.165,0.138
23.3,-0.14,0.699,0.189
23.31,-0.354,1.071,-0.148
23.32,-0.204,1.003,-0.176
23.33,-0.09,1.033,0.08
23.34,-0.08,0.928,0.12
23.35,-0.284,0.715,-0.028
23.36,-0.437,1.29,-0.204
23.37,-0.018,0.802,-0.03
23.38,-0.211,1.171,0.154
23.39,-0.067,0.721,0.114
23.4,-0.414,0.996,-0.177
23.41,-0.211,1.113,-0.073
23.42,-0.079,0.932,0.093
23.43,-0.147,0.996,0.178
23.44,-0.339,0.819,-0.061
23.45,-0.321,1.174,-0.161
23.46,-0.115,0.846,0.073
23.47,-0.139,1.229,0.165
23.48,-0.118,0.639,0.037
23.49,-0.474,1.14,-0.178
23.5,-0.067,1.07,-0.06
23.51,-0.124,0.928,0.08
23.52,-0.182,0.926,0.191
23.53,-0.257,0.816,-0.133
23.54,-0.328,1.165,-0.192
23.55,-0.138,0.848,0.132
23.56,-0.161,1.115,0.148
23.57,-0.187,0.676,-0.022
23.58,-0.421,1.156,-0.185
23.59,-0.092,1.035,-0.078
23.6,-0.196,0.872,0.122
23.61,-0.133,1.002,0.148
23.62,-0.29,0.742,-0.168
23.63,-0.333,1.23,-0.042
23.64,-0.053,0.911,0.076
23.65,-0.09,0.964,0.113
23.66,-0.243,0.796,0.031
23.67,-0.343,1.135,-0.173
23.68,-0.073,1.048,-0.033
23.69,-0.202,0.838,0.172
23.7,-0.14,1.03,0.086
23.71,-0.33,0.76,-0.218
23.72,-0.238,1.266,-0.034
23.73,-0.12,0.895,0.09
23.74,-0.14,0.907,0.128
23.75,-0.324,0.891,-0.004
23.76,-0.202,1.032,-0.236
23.77,-0.099,1.108,-0.024
23.78,-0.167,0.778,0.229
23.79,-0.123,1.026,0.099
23.8,-0.387,0.794,-0.207
23.81,-0.156,1.232,-0.041
23.82,-0.12,0.891,0.085
23.83,-0.206,0.796,0.162
23.84,-0.191,1.018,-0.073
23.85,-0.32,0.963,-0.176
23.86,-0.244,1.157,0.088
23.87,-0.066,0.796,0.167
23.88,-0.168,1.009,0.034
23.89,-0.405,0.865,-0.144
23.9,-0.079,1.164,-0.127
23.91,-0.149,0.881,0.061
23.92,-0.183,0.799,0.221
23.93,-0.246,1.09,-0.156
23.94,-0.298,0.841,-0.171
23.95,-0.202,1.193,0.1
23.96,-0.019,0.776,0.126
23.97,-0.242,1.023,-0.005
23.98,-0.39,0.9,-0.169
23.99,-0.092,1.12,-0.066
24.0,-0.195,0.895,0.081
24.01,-0.173,0.761,0.206
24.02,-0.352,1.159,-0.178
24.03,-0.25,0.759,-0.175
24.04,-0.163,1.302,0.124
24.05,-0.036,0.763,0.136
24.06,-0.282,0.951,0.009
24.07,-0.366,1.005,-0.159
24.08,-0.098,1.069,-0.012
24.09,-0.269,0.938,0.1
24.1,-0.096,0.761,0.2
24.11,-0.425,1.192,-0.186
24.12,-0.26,0.734,-0.109
24.13,-0.062,1.357,0.079
24.14,-0.056,0.726,0.122
24.15,-0.374,0.928,0.033
24.16,-0.261,1.067,-0.182
24.17,-0.128,0.955,-0.004
24.18,-0.296,1.04,0.192
24.19,-0.082,0.691,0.117
24.2,-0.43,1.194,-0.24
24.21,-0.214,0.871,-0.036
24.22,-0.095,1.241,0.07
24.23,-0.139,0.668,0.161
24.24,-0.332,0.954,0.022
24.25,-0.333,1.174,-0.207
24.26,-0.221,1.02,0.074
24.27,-0.124,1.01,0.154
24.28,-0.107,0.718,0.064
24.29,-0.482,1.175,-0.164
24.3,-0.103,0.887,-0.022
24.31,-0.165,1.209,0.097
24.32,-0.169,0.65,0.176
24.33,-0.316,1.089,-0.108
24.34,-0.281,0.923,-0.182
24.35,-0.129,1.038,0.096
24.36,-0.167,1.051,0.157
24.37,-0.124,0.645,-0.015
24.38,-0.479,1.273,-0.174
24.39,-0.048,0.848,-0.114
24.4,-0.169,1.136,0.086
24.41,-0.167,0.724,0.184
24.42,-0.317,1.041,-0.161
24.43,-0.219,0.951,-0.206
24.44,-0.121,1.041,0.123
24.45,-0.034,1.059,0.081
24.46,-0.194,0.646,0.028
24.47,-0.501,1.29,-0.123
24.48,-0.057,0.896,-0.06
24.49,-0.235,1.077,0.099
24.5,-0.083,0.812,0.192
24.51,-0.436,0.969,-0.182
24.52,-0.277,0.983,-0.124
24.53,-0.012,1.03,0.062
24.54,-0.086,1.009,0.112
24.55,-0.286,0.655,0.056
24.56,-0.342,1.312,-0.183
24.57,-0.085,0.874,-0.048
24.58,-0.229,1.019,0.193
24.59,-0.135,0.884,0.1
24.6,-0.378,0.912,-0.224
24.61,-0.238,1.086,-0.065
24.62,-0.083,0.946,0.082
24.63,-0.125,0.961,0.106
24.64,-0.252,0.673,0.03
24.65,-0.368,1.316,-0.216
24.66,-0.025,0.862,-0.022
24.67,-0.2,1.027,0.199
24.68,-0.192,0.906,0.097
24.69,-0.331,0.85,-0.205
24.7,-0.227,1.229,-0.037
24.71,-0.105,0.839,0.068
24.72,-0.079,0.982,0.127
24.73,-0.313,0.767,-0.062
24.74,-0.356,1.182,-0.204
24.75,-0.037,0.949,-0.02
24.76,-0.153,0.968,0.157
24.77,-0.126,0.932,0.034
24.78,-0.382,0.908,-0.212
24.79,-0.172,1.221,-0.018
24.8,-0.134,0.792,0.108
24.81,-0.171,1.005,0.183
24.82,-0.307,0.832,-0.103
24.83,-0.286,1.09,-0.14
24.84,-0.203,1.077,0.067
24.85,-0.052,0.834,0.11
24.86,-0.178,0.963,0.016
24.87,-0.45,0.892,-0.145
24.88,-0.084,1.242,-0.047
24.89,-0.154,0.74,0.108
24.9,-0.155,1.008,0.151
24.91,-0.314,0.864,-0.174
24.92,-0.248,1.002,-0.127
24.93,-0.122,1.174,0.084
24.94,-0.065,0.746,0.117
24.95,-0.276,1.025,0.016
24.96,-0.383,0.897,-0.168
24.97,-0.147,1.163,-0.04
24.98,-0.077,0.764,0.117
24.99,-0.139,0.974,0.118
25.0,-0.315,0.928,-0.204
25.01,-0.239,0.957,-0.052
25.02,-0.15,1.189,0.06
25.03,-0.072,0.657,0.129
25.04,-0.288,1.128,0.033
25.05,-0.374,0.898,-0.157
25.06,-0.161,1.134,0.022
25.07,-0.119,0.766,0.147
25.08,-0.141,1.018,0.062
25.09,-0.331,0.857,-0.188
25.1,-0.186,1.083,-0.025
25.11,-0.144,1.019,0.1
25.12,-0.112,0.695,0.172
25.13,-0.356,1.14,-0.014
25.14,-0.308,0.855,-0.194
25.15,-0.137,1.17,0.013
25.16,0.027,0.791,0.15
25.17,-0.236,0.987,0.034
25.18,-0.365,0.94,-0.206
25.19,-0.059,1.009,-0.095
25.2,-0.132,1.019,0.086
25.21,-0.155,0.714,0.173
25.22,-0.375,1.197,-0.127
25.23,-0.287,0.77,-0.14
25.24,-0.062,1.287,0.174
25.25,-0.126,0.786,0.092
25.26,-0.294,0.897,0.029
25.27,-0.36,1.123,-0.174
25.28,-0.079,0.984,-0.096
25.29,-0.209,1.043,0.125
25.3,-0.023,0.725,0.15
25.31,-0.439,1.175,-0.191
25.32,-0.26,0.762,-0.117
25.33,-0.024,1.294,0.101
25.34,-0.156,0.776,0.114
25.35,-0.29,0.847,0.034
25.36,-0.343,1.195,-0.233
25.37,-0.09,0.845,-0.023
25.38,-0.191,1.122,0.15
25.39,-0.026,0.696,0.104
25.4,-0.476,1.195,-0.204
25.41,-0.205,0.896,-0.01
25.42,-0.147,1.158,0.102
25.43,-0.161,0.776,0.123
25.44,-0.278,0.902,-0.013
25.45,-0.343,1.242,-0.217
25.46,-0.073,0.825,-0.027
25.47,-0.148,1.184,0.144
25.48,-0.028,0.652,0.058
25.49,-0.507,1.18,-0.18
25.5,-0.173,0.94,-0.019
25.51,-0.071,1.049,0.084
25.52,-0.186,0.859,0.133
25.53,-0.273,0.829,-0.106
25.54,-0.34,1.263,-0.168
25.55,-0.129,0.835,0.075
25.56,-0.096,1.154,0.117
25.57,-0.091,0.628,0.033
25.58,-0.467,1.193,-0.167
25.59,-0.057,1.007,-0.116
25.6,-0.08,0.885,0.101
25.61,-0.171,0.971,0.157
25.62,-0.326,0.807,-0.133
25.63,-0.285,1.197,-0.153
25.64,-0.124,0.87,0.126
25.65,-0.125,1.087,0.143
25.66,-0.181,0.709,0.017
25.67,-0.383,1.176,-0.184
25.68,-0.182,1.028,-0.035
25.69,-0.2,0.797,0.185
25.7,-0.076,1.039,0.101
25.71,-0.399,0.766,-0.203
25.72,-0.231,1.199,-0.125
25.73,0.041,0.946,0.079
25.74,-0.161,0.946,0.142
25.75,-0.227,0.779,0.005
25.76,-0.36,1.139,-0.19
25.77,-0.093,1.034,-0.019
25.78,-0.132,0.831,0.175
25.79,-0.177,1.057,0.103
25.8,-0.321,0.768,-0.228
25.81,-0.19,1.244,-0.058
25.82,-0.08,0.842,0.082
25.83,-0.131,0.914,0.162
25.84,-0.344,0.903,-0.021
25.85,-0.283,0.984,-0.229
25.86,-0.098,1.111,0.009
25.87,-0.138,0.807,0.186
25.88,-0.206,0.938,0.02
25.89,-0.427,0.838,-0.136
25.9,-0.108,1.276,-0.051
25.91,-0.109,0.77,0.1
25.92,-0.241,1.003,0.196
25.93,-0.232,0.864,-0.155
25.94,-0.311,1.053,-0.122
25.95,-0.125,1.163,0.111
25.96,-0.094,0.73,0.121
25.97,-0.35,1.052,0.035
25.98,-0.29,0.951,-0.137
25.99,-0.208,1.209,-0.014
26.0,-0.114,0.724,0.152
26.01,-0.141,1.01,0.122
26.02,-0.289,0.91,-0.208
26.03,-0.293,0.986,-0.067
26.04,-0.054,1.187,0.011
26.05,-0.053,0.641,0.124
26.06,-0.412,1.12,0.043
26.07,-0.277,0.904,-0.216
26.08,-0.104,1.145,-0.031
26.09,-0.198,0.8,0.218
26.1,-0.072,0.923,0.087
26.11,-0.393,1.008,-0.216
26.12,-0.229,0.948,-0.012
26.13,-0.116,1.225,0.066
26.14,-0.104,0.642,0.126
26.15,-0.378,1.127,-0.015
26.16,-0.29,0.887,-0.209
26.17,-0.128,1.095,0.025
26.18,-0.217,0.867,0.185
26.19,-0.073,0.842,0.067
26.2,-0.437,1.128,-0.23
26.21,-0.105,0.882,-0.059
26.22,-0.071,1.218,0.07
26.23,-0.181,0.647,0.185
26.24,-0.346,1.123,-0.047
26.25,-0.247,0.86,-0.234
26.26,-0.192,1.094,0.138
26.27,-0.106,0.958,0.124
26.28,-0.097,0.73,-0.038
26.29,-0.495,1.207,-0.141
26.3,-0.07,0.884,-0.05
26.31,-0.111,1.156,0.035
26.32,-0.071,0.708,0.187
26.33,-0.45,1.121,-0.141
26.34,-0.216,0.873,-0.179
26.35,-0.059,1.128,0.107
26.36,-0.158,0.949,0.118
26.37,-0.248,0.694,-0.009
26.38,-0.398,1.304,-0.192
26.39,-0.058,0.858,-0.044
26.4,-0.238,1.145,0.146
26.41,-0.057,0.706,0.183
26.42,-0.455,1.053,-0.187
26.43,-0.245,0.956,-0.096
26.44,-0.034,1.106,0.073
26.45,-0.134,0.914,0.098
26.46,-0.222,0.729,0.058
26.47,-0.46,1.363,-0.24
26.48,-0.073,0.738,-0.045
26.49,-0.157,1.194,0.162
26.5,-0.145,0.737,0.072
26.51,-0.446,0.982,-0.16
26.52,-0.157,1.107,-0.05
26.53,-0.077,0.927,0.052
26.54,-0.191,0.959,0.128
26.55,-0.176,0.764,-0.055
26.56,-0.417,1.279,-0.214
26.57,-0.107,0.797,0.035
26.58,-0.072,1.167,0.143
26.59,-0.158,0.772,0.052
26.6,-0.468,1.002,-0.161
26.61,-0.075,1.182,-0.089
26.62,-0.135,0.844,0.063
26.63,-0.242,0.974,0.192
26.64,-0.162,0.737,-0.126
26.65,-0.343,1.234,-0.182
26.66,-0.181,0.894,0.126
26.67,-0.068,1.031,0.151
26.68,-0.174,0.784,-0.001
26.69,-0.394,0.963,-0.113
26.7,-0.159,1.031,-0.068
26.71,-0.249,0.813,0.154
26.72,-0.076,1.035,0.137
26.73,-0.347,0.752,-0.205
26.74,-0.321,1.188,-0.075
26.75,0.063,0.969,0.045
26.76,-0.177,0.968,0.099
26.77,-0.227,0.779,0.046
26.78,-0.355,1.149,-0.173
26.79,-0.109,1.019,-0.102
26.8,-0.142,0.845,0.202
26.81,-0.149,1.053,0.096
26.82,-0.372,0.766,-0.192
26.83,-0.256,1.275,-0.052
26.84,-0.087,0.871,0.071
26.85,-0.178,0.874,0.179
26.86,-0.263,0.914,0.03
26.87,-0.361,1.013,-0.204
26.88,-0.117,1.107,-0.013
26.89,-0.09,0.819,0.155
26.9,-0.195,1.013,0.081
26.91,-0.37,0.793,-0.163
26.92,-0.155,1.27,-0.045
26.93,-0.137,0.898,0.103
26.94,-0.176,0.826,0.17
26.95,-0.234,1.022,-0.084
26.96,-0.344,0.931,-0.148
26.97,-0.117,1.167,0.053
26.98,-0.092,0.821,0.101
26.99,-0.18,1.006,0.044
27.0,-0.384,0.852,-0.14
27.01,-0.145,1.208,-0.063
27.02,-0.123,0.866,0.076
27.03,-0.124,0.809,0.18
27.04,-0.319,1.106,-0.119
27.05,-0.273,0.819,-0.189
27.06,-0.179,1.255,0.073
27.07,-0.06,0.798,0.126
27.08,-0.221,0.997,0.032
27.09,-0.465,0.921,-0.151
27.1,-0.117,1.175,-0.039
27.11,-0.132,0.903,0.067
27.12,-0.165,0.762,0.177
27.13,-0.385,1.177,-0.146
27.14,-0.203,0.781,-0.176
27.15,-0.18,1.303,0.098
27.16,-0.056,0.723,0.111
27.17,-0.268,0.986,0.009
27.18,-0.063,1.284,0.057
27.19,-0.08,0.603,0.125
27.2,-0.337,1.13,0.02
27.21,-0.302,0.939,-0.235
27.22,-0.121,1.068,-0.019
27.23,-0.157,0.932,0.174
27.24,-0.109,0.794,0.085
27.25,-0.391,1.095,-0.211
27.26,-0.091,0.854,-0.027
27.27,-0.171,1.313,0.073
27.28,-0.067,0.651,0.15
27.29,-0.331,1.09,-0.045
27.3,-0.29,0.946,-0.194
27.31,-0.132,1.073,0.036
27.32,-0.168,0.995,0.197
27.33,-0.156,0.706,0.088
27.34,-0.436,1.203,-0.193
27.35,-0.101,0.869,-0.017
27.36,-0.191,1.204,0.093
27.37,-0.119,0.643,0.14
27.38,-0.293,1.089,-0.095
27.39,-0.274,0.976,-0.166
27.4,-0.149,0.969,0.05
27.41,-0.083,1.095,0.127
27.42,-0.12,0.671,0.024
27.43,-0.518,1.264,-0.171
27.44,-0.078,0.872,-0.088
27.45,-0.231,1.116,0.095
27.46,-0.041,0.687,0.215
27.47,-0.464,1.122,-0.134
27.48,-0.281,0.811,-0.169
27.49,0.029,1.209,0.016
27.5,-0.121,0.922,0.09
27.51,-0.252,0.707,0.051
27.52,-0.374,1.302,-0.187
27.53,-0.13,0.877,-0.044
27.54,-0.26,1.136,0.137
27.55,-0.024,0.703,0.137
27.56,-0.437,1.065,-0.16
27.57,-0.23,0.923,-0.099
27.58,0.02,1.127,0.002
27.59,-0.194,0.91,0.138
27.6,-0.274,0.722,0.073
27.61,-0.34,1.322,-0.265
27.62,-0.078,0.784,-0.017
27.63,-0.2,1.2,0.174
27.64,-0.081,0.737,0.109
27.65,-0.396,1.005,-0.175
27.66,-0.219,1.037,-0.091
27.67,-0.049,1.025,0.075
27.68,-0.116,0.959,0.095
27.69,-0.262,0.73,0.025
27.7,-0.399,1.325,-0.218
27.71,-0.061,0.771,-0.01
27.72,-0.228,1.156,0.182
27.73,-0.122,0.776,0.115
27.74,-0.418,0.949,-0.173
27.75,-0.182,1.098,-0.069
27.76,-0.062,1.023,0.063
27.77,-0.118,0.946,0.087
27.78,-0.191,0.706,-0.007
27.79,-0.393,1.344,-0.216
27.8,-0.109,0.793,-0.015
27.81,-0.174,1.062,0.152
27.82,-0.118,0.833,0.07
27.83,-0.44,0.909,-0.194
27.84,-0.204,1.166,-0.012
27.85,-0.055,0.951,0.032
27.86,-0.127,0.941,0.128
27.87,-0.279,0.76,0.03
27.88,-0.348,1.277,-0.263
27.89,-0.108,0.847,-0.076
27.9,-0.078,1.048,0.225
27.91,-0.153,0.897,0.074
27.92,-0.505,0.852,-0.181
27.93,-0.103,1.239,-0.067
27.94,-0.134,0.834,0.082
27.95,-0.211,0.96,0.166
27.96,-0.192,0.793,-0.06
27.97,-0.317,1.118,-0.233
27.98,-0.16,0.975,0.068
27.99,-0.144,1.011,0.166
28.0,-0.135,0.901,0.043
28.01,-0.415,0.864,-0.107
28.02,-0.083,1.313,-0.081
28.03,-0.167,0.759,0.069
28.04,-0.199,0.982,0.176
28.05,-0.253,0.859,-0.086
28.06,-0.285,1.047,-0.194
28.07,-0.104,1.059,0.047
28.08,-0.139,0.911,0.155
28.09,-0.183,0.964,0.064
28.1,-0.394,0.806,-0.15
28.11,-0.192,1.321,-0.066
28.12,-0.085,0.769,0.065
28.13,-0.187,0.967,0.209
28.14,-0.301,0.85,-0.073
28.15,-0.289,1.029,-0.173
28.16,-0.125,1.102,0.016
28.17,-0.102,0.836,0.171
28.18,-0.188,0.983,-0.057
28.19,-0.362,0.789,-0.106
28.2,-0.082,1.272,-0.066
28.21,-0.125,0.806,0.064
28.22,-0.178,0.888,0.174
28.23,-0.251,1.002,-0.096
28.24,-0.359,0.976,-0.143
28.25,-0.247,1.113,0.079
28.26,-0.031,0.897,0.099
28.27,-0.271,0.964,-0.042
28.28,-0.369,0.892,-0.067
28.29,-0.138,1.258,-0.068
28.3,-0.211,0.671,0.12
28.31,-0.091,1.059,0.166
28.32,-0.339,0.881,-0.208
28.33,-0.363,0.964,-0.084
28.34,0.0,1.184,0.077
28.35,-0.078,0.738,0.106
28.36,-0.314,1.003,0.036
28.37,-0.249,0.942,-0.196
28.38,-0.235,1.203,-0.01
28.39,-0.225,0.711,0.184
28.4,-0.036,1.019,0.116
28.41,-0.337,0.925,-0.197
28.42,-0.347,0.926,-0.022
28.43,-0.041,1.197,0.044
28.44,-0.076,0.652,0.126
28.45,-0.335,1.061,0.032
28.46,-0.276,0.937,-0.202
28.47,-0.124,1.139,-0.037
28.48,-0.188,0.796,0.21
28.49,-0.044,0.961,0.116
28.5,-0.402,0.983,-0.17
28.51,-0.329,0.846,-0.011
28.52,-0.101,1.287,0.049
28.53,-0.103,0.66,0.115
28.54,-0.349,1.069,0.029
28.55,-0.247,0.937,-0.195
28.56,-0.124,1.088,-0.059
28.57,-0.265,0.823,0.196
28.58,-0.044,0.893,0.122
28.59,-0.43,1.066,-0.181
28.6,-0.265,0.81,-0.049
28.61,-0.067,1.312,0.031
28.62,-0.065,0.614,0.096
28.63,-0.353,1.092,0.061
28.64,-0.306,0.936,-0.226
28.65,-0.112,1.015,-0.032
28.66,-0.194,0.961,0.197
28.67,-0.066,0.783,0.08
28.68,-0.429,1.109,-0.2
28.69,-0.159,0.874,-0.042
28.7,-0.125,1.289,0.07
28.71,-0.144,0.623,0.132
28.72,-0.285,1.078,-0.005
28.73,-0.306,1.0,-0.253
28.74,-0.147,0.952,-0.067
28.75,-0.155,0.977,0.177
28.76,-0.073,0.74,0.076
28.77,-0.499,1.16,-0.181
28.78,-0.141,0.862,-0.028
28.79,-0.192,1.279,0.089
28.8,-0.13,0.614,0.134
28.81,-0.236,1.013,-0.002
28.82,-0.329,1.048,-0.236
28.83,-0.186,0.979,0.046
28.84,-0.172,1.084,0.131
28.85,-0.044,0.627,0.067
28.86,-0.489,1.208,-0.145
28.87,-0.098,0.874,-0.036
28.88,-0.176,1.196,0.038
28.89,-0.118,0.683,0.169
28.9,-0.261,1.006,-0.003
28.91,-0.35,1.069,-0.213
28.92,-0.153,0.868,0.022
28.93,-0.177,1.162,0.149
28.94,-0.069,0.674,0.077
28.95,-0.451,1.162,-0.163
28.96,-0.131,0.881,-0.047
28.97,-0.125,1.197,0.054
28.98,-0.17,0.715,0.167
28.99,-0.259,0.903,-0.023
29.0,-0.374,1.218,-0.241
29.01,-0.121,0.819,-0.005
29.02,-0.201,1.165,0.145
29.03,-0.026,0.663,0.092
29.04,-0.521,1.185,-0.188
29.05,-0.133,0.896,-0.02
29.06,-0.068,1.193,0.062
29.07,-0.168,0.8,0.121
29.08,-0.219,1.033,-0.056
29.09,-0.283,1.079,-0.223
29.1,-0.168,0.872,-0.002
29.11,-0.082,1.13,0.127
29.12,-0.121,0.662,0.017
29.13,-0.511,1.19,-0.167
29.14,0.017,0.92,-0.057
29.15,-0.221,1.112,0.109
29.16,-0.16,0.716,0.194
29.17,-0.269,1.0,-0.104
29.18,-0.269,1.082,-0.212
29.19,-0.129,0.912,0.066
29.2,-0.08,1.119,0.097
29.21,-0.117,0.591,-0.018
29.22,-0.508,1.294,-0.143
29.23,-0.099,0.939,-0.068
29.24,-0.208,1.03,0.086
29.25,-0.126,0.861,0.182
29.26,-0.375,0.897,-0.136
29.27,-0.236,1.047,-0.159
29.28,-0.145,0.944,0.088
29.29,-0.14,1.129,0.109
29.3,-0.156,0.639,0.043
29.31,-0.481,1.235,-0.154
29.32,-0.145,0.925,-0.04
29.33,-0.159,0.95,0.133
29.34,-0.219,0.943,0.17
29.35,-0.337,0.809,-0.129
29.36,-0.257,1.128,-0.17
29.37,-0.046,0.927,0.04
29.38,-0.163,1.092,0.135
29.39,-0.096,0.658,0.025
29.4,-0.472,1.216,-0.156
29.41,-0.075,1.008,-0.064
29.42,-0.167,0.949,0.153
29.43,-0.172,0.976,0.153
29.44,-0.274,0.814,-0.192
29.45,-0.295,1.188,-0.144
29.46,-0.107,0.897,0.131
29.47,-0.164,1.09,0.13
29.48,-0.216,0.702,-0.004
29.49,-0.418,1.147,-0.124
29.5,-0.146,1.049,-0.045
29.51,-0.179,0.794,0.141
29.52,-0.122,1.051,0.166
29.53,-0.331,0.785,-0.154
29.54,-0.328,1.197,-0.132
29.55,-0.041,0.934,0.09
29.56,-0.147,0.957,0.146
29.57,-0.27,0.826,0.019
29.58,-0.354,1.09,-0.195
29.59,-0.112,1.035,-0.026
29.6,-0.159,0.825,0.17
29.61,-0.13,1.086,0.086
29.62,-0.303,0.801,-0.169
29.63,-0.332,1.211,-0.086
29.64,-0.064,0.903,0.076
29.65,-0.118,0.93,0.142
29.66,-0.274,0.874,-0.034
29.67,-0.375,1.004,-0.147
29.68,-0.123,1.132,-0.01
29.69,-0.156,0.738,0.11
29.7,-0.168,1.079,0.141
29.71,-0.342,0.79,-0.163
29.72,-0.261,1.152,-0.149
29.73,-0.026,0.999,0.078
29.74,-0.109,0.803,0.106
29.75,-0.268,0.948,-0.02
29.76,-0.28,0.997,-0.18
29.77,-0.155,1.148,-0.029
29.78,-0.128,0.711,0.2
29.79,-0.121,1.09,0.072
29.8,-0.328,0.818,-0.181
29.81,-0.274,1.101,-0.05
29.82,-0.056,1.046,0.077
29.83,-0.086,0.768,0.108
29.84,-0.334,1.058,-0.029
29.85,-0.265,0.923,-0.171
29.86,-0.237,1.214,0.059
29.87,-0.149,0.734,0.194
29.88,-0.119,1.045,0.076
29.89,-0.334,0.796,-0.19
29.9,-0.237,1.259,0.016
29.91,-0.087,0.84,0.064
29.92,-0.155,0.869,0.158
29.93,-0.316,1.004,-0.046
29.94,-0.272,0.916,-0.173
29.95,-0.146,1.214,0.042
29.96,-0.108,0.766,0.185
29.97,-0.198,1.021,0.03
29.98,-0.34,0.878,-0.191
29.99,-0.239,1.173,-0.004
30.0,-0.084,0.894,0.061
30.01,-0.208,0.816,0.133
30.02,-0.352,1.089,-0.064
30.03,-0.292,0.891,-0.155
30.04,-0.167,1.234,0.051
30.05,-0.065,0.75,0.177
30.06,-0.196,1.003,0.01
30.07,-0.403,0.908,-0.195
30.08,-0.084,1.092,-0.062
30.09,-0.141,0.928,0.122
30.1,-0.165,0.756,0.124
30.11,-0.333,1.165,-0.138
30.12,-0.311,0.834,-0.085
30.13,-0.138,1.256,0.09
30.14,-0.061,0.716,0.13
30.15,-0.265,0.959,-0.007
30.16,-0.416,1.021,-0.158
30.17,-0.11,1.045,-0.057
30.18,-0.161,0.96,0.097
30.19,-0.143,0.754,0.168
30.2,-0.372,1.146,-0.181
30.21,-0.235,0.791,-0.145
30.22,-0.109,1.303,0.116
30.23,-0.134,0.684,0.148
30.24,-0.275,0.907,0.021
30.25,-0.284,1.15,-0.179
30.26,-0.152,0.937,-0.033
30.27,-0.186,1.0,0.129
30.28,-0.004,0.742,0.102
30.29,-0.574,1.199,-0.145
30.3,-0.22,0.803,-0.083
30.31,-0.027,1.29,0.065
30.32,-0.188,0.708,0.143
30.33,-0.235,0.915,0.03
30.34,-0.289,1.208,-0.223
30.35,-0.149,0.821,-0.007
30.36,-0.102,1.144,0.146
30.37,-0.054,0.703,0.069
30.38,-0.539,1.136,-0.177
30.39,-0.204,0.877,-0.019
30.4,-0.062,1.215,0.039
30.41,-0.178,0.789,0.103
30.42,-0.29,0.893,0.019
30.43,-0.328,1.204,-0.217
30.44,-0.189,0.767,-0.012
30.45,-0.044,1.189,0.121
30.46,-0.041,0.705,0.076
30.47,-0.527,1.122,-0.196
30.48,-0.031,0.967,-0.095
30.49,-0.115,1.125,0.103
30.5,-0.233,0.844,0.161
30.51,-0.275,0.825,-0.046
30.52,-0.354,1.227,-0.254
30.53,-0.119,0.789,0.062
30.54,-0.194,1.171,0.169
30.55,-0.092,0.666,0.06
30.56,-0.439,1.17,-0.196
30.57,-0.04,1.014,-0.111
30.58,-0.181,0.955,0.124
30.59,-0.184,0.919,0.166
30.6,-0.22,0.769,-0.112
30.61,-0.367,1.205,-0.168
30.62,-0.216,0.861,0.099
30.63,-0.124,1.17,0.096
30.64,-0.063,0.661,0.028
30.65,-0.481,1.09,-0.137
30.66,-0.005,1.112,-0.071
30.67,-0.085,0.911,0.055
30.68,-0.271,0.972,0.184
30.69,-0.209,0.762,-0.107
30.7,-0.338,1.217,-0.174
30.71,-0.08,0.973,0.101
30.72,-0.16,1.144,0.097
30.73,-0.21,0.609,0.012
30.74,-0.387,1.244,-0.159
30.75,-0.078,1.017,-0.098
30.76,-0.149,0.879,0.103
30.77,-0.2,0.98,0.159
30.78,-0.328,0.826,-0.17
30.79,-0.282,1.128,-0.148
30.8,-0.119,0.922,0.158
30.81,-0.15,1.088,0.134
30.82,-0.246,0.721,-0.03
30.83,-0.383,1.152,-0.128
30.84,-0.144,1.024,-0.046
30.85,-0.125,0.847,0.116
30.86,-0.069,1.047,0.097
30.87,-0.343,0.78,-0.151
30.88,-0.31,1.214,-0.061
30.89,-0.026,0.899,0.082
30.9,-0.132,0.957,0.128
30.91,-0.31,0.814,0.045
30.92,-0.355,1.102,-0.182
30.93,-0.042,1.043,-0.064
30.94,-0.236,0.827,0.176
30.95,-0.097,1.049,0.071
30.96,-0.303,0.82,-0.193
30.97,-0.28,1.237,-0.098
30.98,-0.07,0.885,0.076
30.99,-0.099,0.918,0.129
31.0,-0.291,0.889,0.009
31.01,-0.343,1.038,-0.171
31.02,-0.075,1.126,-0.045
31.03,-0.195,0.734,0.175
31.04,-0.136,1.064,0.119
31.05,-0.337,0.803,-0.22
31.06,-0.245,1.149,-0.055
31.07,-0.029,0.944,0.104
31.08,-0.038,0.871,0.104
31.09,-0.373,0.945,-0.01
31.1,-0.302,0.986,-0.135
31.11,-0.047,1.203,-0.068
31.12,-0.253,0.74,0.212
31.13,-0.096,1.057,0.064
31.14,-0.292,0.85,-0.234
31.15,-0.263,1.144,-0.061
31.16,0.031,0.983,0.04
31.17,-0.064,0.787,0.122
31.18,-0.407,1.004,-0.043
31.19,-0.215,0.934,-0.14
31.2,-0.145,1.238,-0.002
31.21,-0.21,0.694,0.186
31.22,-0.086,1.042,0.042
31.23,-0.422,0.901,-0.217
31.24,-0.202,1.07,-0.017
31.25,-0.05,1.022,0.081
31.26,-0.194,0.73,0.137
31.27,-0.211,0.989,-0.094
31.28,-0.245,0.942,-0.173
31.29,-0.229,1.164,0.098
31.3,-0.02,0.733,0.175
31.31,-0.204,1.048,-0.025
31.32,-0.529,0.834,-0.159
31.33,-0.052,1.214,-0.041
31.34,-0.08,0.882,0.046
31.35,-0.259,0.769,0.177
31.36,-0.254,1.107,-0.117
31.37,-0.213,0.886,-0.193
31.38,-0.205,1.181,0.132
31.39,-0.01,0.704,0.186
31.4,-0.32,1.071,0.009
31.41,-0.412,0.89,-0.162
31.42,-0.134,1.103,-0.017
31.43,-0.197,0.917,0.128
31.44,-0.09,0.819,0.14
31.45,-0.424,1.152,-0.142
31.46,-0.154,0.813,-0.147
31.47,-0.114,1.324,0.031
31.48,-0.092,0.626,0.17
31.49,-0.282,1.056,-0.006
31.5,-0.348,0.987,-0.188
31.51,-0.26,1.004,0.024
31.52,-0.196,0.84,0.184
31.53,-0.178,0.877,0.062
31.54,-0.363,1.057,-0.203
31.55,-0.181,0.903,-0.048
31.56,-0.113,1.236,0.066
31.57,-0.098,0.62,0.138
31.58,-0.339,1.125,0.005
31.59,-0.334,0.903,-0.197
31.6,-0.049,1.105,-0.013
31.61,-0.188,0.937,0.164
31.62,-0.153,0.806,0.094
31.63,-0.408,1.158,-0.203
31.64,-0.106,0.877,-0.094
31.65,-0.172,1.198,0.066
31.66,-0.045,0.62,0.175
31.67,-0.315,1.153,-0.058
31.68,-0.274,0.894,-0.197
31.69,-0.128,1.067,0.02
31.7,-0.152,1.024,0.164
31.71,-0.164,0.729,0.062
31.72,-0.48,1.195,-0.155
31.73,-0.02,0.879,-0.129
31.74,-0.173,1.188,0.069
31.75,-0.124,0.688,0.205
31.76,-0.297,1.1,-0.084
31.77,-0.291,0.885,-0.2
31.78,-0.11,0.969,0.107
31.79,-0.085,1.078,0.139
31.8,-0.151,0.689,0.01
31.81,-0.439,1.221,-0.16
31.82,-0.113,0.853,-0.086
31.83,-0.219,1.144,0.091
31.84,-0.101,0.743,0.202
31.85,-0.385,1.057,-0.104
31.86,-0.259,0.922,-0.201
31.87,-0.076,1.024,0.089
31.88,-0.183,1.133,0.142
31.89,-0.134,0.604,0.055
31.9,-0.439,1.296,-0.165
31.91,-0.149,0.913,-0.056
31.92,-0.173,1.052,0.054
31.93,-0.082,0.803,0.183
31.94,-0.389,0.979,-0.079
31.95,-0.324,1.026,-0.145
31.96,-0.108,0.94,0.158
31.97,-0.188,1.125,0.139
31.98,-0.095,0.614,-0.014
31.99,-0.393,1.316,-0.176
32.0,-0.128,0.917,-0.075
32.01,-0.144,0.946,0.083
32.02,-0.105,0.859,0.169
32.03,-0.415,0.927,-0.119
32.04,-0.251,1.066,-0.165
32.05,-0.075,0.941,0.062
32.06,-0.141,1.08,0.123
32.07,-0.113,0.661,-0.013
32.08,-0.399,1.283,-0.141
32.09,-0.117,0.925,-0.096
32.1,-0.139,0.885,0.088
32.11,-0.154,0.947,0.206
32.12,-0.396,0.863,-0.182
32.13,-0.238,1.056,-0.167
32.14,-0.094,0.987,0.127
32.15,-0.18,1.093,0.136
32.16,-0.192,0.65,0.009
32.17,-0.352,1.25,-0.176
32.18,-0.072,0.999,-0.082
32.19,-0.163,0.876,0.168
32.2,-0.053,1.001,0.12
32.21,-0.392,0.77,-0.169
32.22,-0.273,1.178,-0.094
32.23,-0.125,0.927,0.086
32.24,-0.18,0.991,0.134
32.25,-0.242,0.784,0.048
32.26,-0.326,1.182,-0.203
32.27,-0.124,1.033,-0.048
32.28,-0.204,0.838,0.189
32.29,-0.066,1.012,0.099
32.3,-0.343,0.791,-0.157
32.31,-0.32,1.204,-0.065
32.32,-0.048,0.916,0.061
32.33,-0.147,1.024,0.141
32.34,-0.253,0.726,0.001
32.35,-0.382,1.243,-0.205
32.36,-0.07,0.896,-0.045
32.37,-0.17,0.941,0.173
32.38,-0.083,0.978,0.109
32.39,-0.386,0.824,-0.201
32.4,-0.242,1.232,-0.045
32.41,-0.083,0.918,0.056
32.42,-0.103,0.993,0.138
32.43,-0.271,0.781,0.024
32.44,-0.385,1.153,-0.232
32.45,-0.073,0.968,-0.076
32.46,-0.079,0.943,0.167
32.47,-0.194,0.993,0.063
32.48,-0.312,0.787,-0.197
32.49,-0.184,1.263,-0.044
32.5,-0.104,0.864,0.041
32.51,-0.149,0.936,0.188
32.52,-0.176,0.865,-0.035
32.53,-0.489,1.067,-0.164
32.54,-0.056,1.007,-0.014
32.55,-0.084,0.931,0.162
32.56,-0.239,0.996,0.081
32.57,-0.316,0.765,-0.158
32.58,-0.198,1.278,-0.088
32.59,-0.148,0.833,0.079
32.6,-0.07,0.875,0.163
32.61,-0.312,0.975,-0.035
32.62,-0.331,0.972,-0.186
32.63,-0.215,1.072,0.033
32.64,-0.074,0.82,0.169
32.65,-0.153,1.094,0.033
32.66,-0.417,0.736,-0.171
32.67,-0.112,1.165,-0.077
32.68,-0.106,0.957,0.086
32.69,-0.178,0.783,0.197
32.7,-0.22,1.009,-0.034
32.71,-0.405,0.964,-0.185
32.72,-0.085,1.133,0.011
32.73,-0.065,0.808,0.175
32.74,-0.262,1.031,0.073
32.75,-0.356,0.808,-0.185
32.76,-0.021,1.198,-0.097
32.77,-0.136,0.924,0.062
32.78,-0.156,0.723,0.204
32.79,-0.279,1.124,-0.026
32.8,-0.339,0.843,-0.189
32.81,-0.202,1.146,0.014
32.82,-0.036,0.818,0.165
32.83,-0.257,1.021,0.075
32.84,-0.394,0.843,-0.187
32.85,-0.111,1.132,-0.025
32.86,-0.151,1.045,0.07
32.87,-0.163,0.67,0.165
32.88,-0.246,1.167,-0.086
32.89,-0.294,0.831,-0.202
32.9,-0.148,1.2,0.03
32.91,-0.06,0.769,0.186
32.92,-0.217,0.974,0.075
32.93,-0.387,0.956,-0.166
32.94,-0.087,0.999,-0.056
32.95,-0.257,1.054,0.089
32.96,-0.141,0.677,0.138
32.97,-0.307,1.212,-0.087
32.98,-0.287,0.774,-0.195
32.99,-0.125,1.203,-0.007
33.0,-0.038,0.861,0.118
33.01,-0.168,0.882,0.044
33.02,-0.349,1.059,-0.187
33.03,-0.112,1.017,-0.093
33.04,-0.177,1.04,0.068
33.05,-0.163,0.66,0.211
33.06,-0.334,1.187,-0.095
33.07,-0.348,0.796,-0.132
33.08,-0.095,1.135,0.04
33.09,-0.052,0.93,0.118
33.1,-0.206,0.827,0.091
33.11,-0.397,1.141,-0.189
33.12,-0.135,0.919,-0.114
33.13,-0.169,1.106,0.077
33.14,-0.13,0.708,0.193
33.15,-0.422,1.161,-0.138
33.16,-0.252,0.759,-0.15
33.17,-0.049,1.272,0.068
33.18,-0.111,0.773,0.149
33.19,-0.251,0.934,0.072
33.2,-0.339,1.074,-0.212
33.21,-0.188,0.946,-0.06
33.22,-0.141,1.043,0.111
33.23,-0.069,0.709,0.121
33.24,-0.413,1.146,-0.105
33.25,-0.219,0.793,-0.136
33.26,-0.116,1.201,0.064
33.27,-0.137,0.808,0.139
33.28,-0.148,0.868,0.043
33.29,-0.412,1.146,-0.155
33.3,-0.132,0.901,-0.088
33.31,-0.162,1.112,0.1
33.32,-0.145,0.715,0.145
33.33,-0.434,1.16,-0.14
33.34,-0.17,0.814,-0.158
33.35,-0.129,1.192,0.103
33.36,-0.101,0.855,0.11
33.37,-0.193,0.826,0.003
33.38,-0.445,1.189,-0.153
33.39,-0.122,0.854,-0.082
33.4,-0.132,1.097,0.115
33.41,-0.115,0.68,0.189
33.42,-0.436,1.146,-0.156
33.43,-0.216,0.858,-0.157
33.44,-0.027,1.163,0.065
33.45,-0.14,0.91,0.144
33.46,-0.226,0.757,0.033
33.47,-0.411,1.279,-0.151
33.48,-0.105,0.82,-0.028
33.49,-0.224,1.141,0.119
33.5,-0.095,0.722,0.203
33.51,-0.446,1.086,-0.163
33.52,-0.231,0.884,-0.138
33.53,-0.053,1.11,0.11
33.54,-0.104,0.994,0.146
33.55,-0.277,0.689,-0.012
33.56,-0.366,1.292,-0.152
33.57,-0.127,0.858,-0.038
33.58,-0.219,1.084,0.115
33.59,-0.083,0.777,0.114
33.6,-0.398,1.025,-0.163
33.61,-0.216,0.995,-0.129
33.62,-0.069,1.031,0.131
33.63,-0.148,0.996,0.126
33.64,-0.245,0.659,0.0
33.65,-0.401,1.32,-0.172
33.66,-0.116,0.872,-0.039
33.67,-0.233,1.057,0.177
33.68,-0.047,0.812,0.152
33.69,-0.421,0.963,-0.187
33.7,-0.251,1.056,-0.082
33.71,-0.037,0.971,0.093
33.72,-0.148,1.059,0.124
33.73,-0.226,0.649,0.0
33.74,-0.403,1.309,-0.195
33.75,-0.075,0.936,-0.062
33.76,-0.187,0.982,0.123
33.77,-0.099,0.85,0.13
33.78,-0.381,0.928,-0.205
33.79,-0.216,1.117,-0.077
33.8,-0.071,0.92,0.132
33.81,-0.135,1.053,0.118
33.82,-0.223,0.671,-0.04
33.83,-0.396,1.263,-0.146
33.84,-0.116,0.935,-0.044
33.85,-0.145,0.914,0.143
33.86,-0.132,0.948,0.127
33.87,-0.418,0.849,-0.187
33.88,-0.24,1.172,-0.104
33.89,0.055,0.928,0.093
33.9,-0.221,1.009,0.134
33.91,-0.263,0.724,-0.033
33.92,-0.241,1.251,-0.233
33.93,-0.099,0.971,-0.066
33.94,-0.191,0.852,0.238
33.95,-0.115,0.997,0.059
33.96,-0.442,0.933,-0.197
33.97,-0.09,1.217,-0.029
33.98,-0.163,0.824,0.103
33.99,-0.178,0.987,0.149
34.0,-0.28,0.824,-0.186
34.01,-0.273,1.176,-0.159
34.02,-0.139,0.926,0.136
34.03,-0.099,1.034,0.112
34.04,-0.24,0.733,0.012
34.05,-0.426,1.139,-0.159
34.06,-0.082,1.068,-0.073
34.07,-0.165,0.799,0.12
34.08,-0.085,1.049,0.145
34.09,-0.372,0.807,-0.142
34.1,-0.297,1.166,-0.147
34.11,-0.034,0.927,0.095
34.12,-0.187,0.942,0.169
34.13,-0.219,0.817,0.011
34.14,-0.361,1.09,-0.128
34.15,-0.193,1.093,-0.007
34.16,-0.179,0.761,0.134
34.17,-0.074,1.086,0.105
34.18,-0.369,0.744,-0.175
34.19,-0.236,1.184,-0.079
34.2,-0.082,1.019,0.116
34.21,-0.196,0.818,0.166
34.22,-0.247,0.908,-0.007
34.23,-0.31,1.04,-0.203
34.24,-0.153,1.126,-0.019
34.25,-0.139,0.746,0.15
34.26,-0.105,1.076,0.079
34.27,-0.4,0.783,-0.191
34.28,-0.219,1.119,-0.067
34.29,-0.066,1.029,0.08
34.3,-0.186,0.78,0.173
34.31,-0.303,0.998,-0.026
34.32,-0.312,0.935,-0.182
34.33,-0.19,1.174,0.006
34.34,-0.104,0.774,0.156
34.35,-0.097,1.044,0.047
34.36,-0.417,0.869,-0.153
34.37,-0.199,1.088,-0.046
34.38,-0.068,1.06,0.07
34.39,-0.214,0.699,0.16
34.4,-0.327,1.116,0.005
34.41,-0.228,0.897,-0.259
34.42,-0.176,1.158,0.003
34.43,-0.159,0.783,0.25
34.44,-0.149,0.992,0.063
34.45,-0.409,0.938,-0.235
34.46,-0.125,1.037,-0.039
34.47,-0.045,1.069,0.041
34.48,-0.202,0.69,0.2
34.49,-0.289,1.164,-0.05
34.5,-0.309,0.847,-0.169
34.51,-0.179,1.184,0.028
34.52,-0.111,0.815,0.14
34.53,-0.186,0.902,0.05
34.54,-0.436,1.048,-0.189
34.55,-0.153,0.976,-0.076
34.56,-0.086,1.063,0.048
34.57,-0.157,0.694,0.189
34.58,-0.333,1.142,-0.093
34.59,-0.271,0.841,-0.143
34.6,-0.208,1.173,0.062
34.61,-0.088,0.812,0.119
34.62,-0.181,0.865,0.041
34.63,-0.466,1.124,-0.169
34.64,-0.099,0.937,-0.049
34.65,-0.189,1.087,0.071
34.66,-0.103,0.681,0.178
34.67,-0.341,1.166,-0.121
34.68,-0.223,0.855,-0.158
34.69,-0.155,1.204,0.075
34.7,-0.073,0.862,0.078
34.71,-0.196,0.77,0.05
34.72,-0.49,1.227,-0.151
34.73,-0.036,0.853,-0.088
34.74,-0.171,1.126,0.135
34.75,-0.069,0.702,0.185
34.76,-0.422,1.113,-0.157
34.77,-0.173,0.794,-0.118
34.78,-0.066,1.288,0.087
34.79,-0.179,0.739,0.112
34.8,-0.257,0.927,0.015
34.81,-0.315,1.163,-0.192
34.82,-0.234,0.839,0.001
34.83,-0.149,1.102,0.183
34.84,-0.031,0.711,0.107
34.85,-0.538,1.142,-0.193
34.86,-0.163,0.849,-0.053
34.87,-0.066,1.264,0.063
34.88,-0.223,0.71,0.154
34.89,-0.273,0.87,0.028
34.9,-0.248,1.271,-0.225
34.91,-0.155,0.785,-0.022
34.92,-0.169,1.123,0.172
34.93,-0.091,0.675,0.084
34.94,-0.502,1.141,-0.213
34.95,-0.14,0.934,-0.032
34.96,-0.096,1.105,0.064
34.97,-0.167,0.838,0.153
34.98,-0.293,0.817,-0.027
34.99,-0.288,1.232,-0.216
35.0,-0.115,0.849,0.034
35.01,-0.193,1.159,0.16
35.02,-0.076,0.68,0.061
35.03,-0.443,1.103,-0.152
35.04,-0.184,1.003,-0.042
35.05,-0.113,0.981,0.117
35.06,-0.088,0.902,0.107
35.07,-0.297,0.771,-0.052
35.08,-0.329,1.269,-0.202
35.09,-0.09,0.855,0.046
35.1,-0.161,1.151,0.154
35.11,-0.078,0.741,0.037
35.12,-0.5,1.103,-0.178
35.13,-0.167,1.033,-0.027
35.14,-0.071,0.987,0.094
35.15,-0.2,0.942,0.129
35.16,-0.227,0.732,-0.061
35.17,-0.31,1.307,-0.167
35.18,-0.132,0.84,0.043
35.19,-0.095,1.093,0.167
35.2,-0.15,0.756,0.025
35.21,-0.558,1.0,-0.167
35.22,-0.031,1.146,-0.08
35.23,-0.085,0.827,0.114
35.24,-0.301,1.024,0.203
35.25,-0.184,0.76,-0.133
35.26,-0.3,1.218,-0.193
35.27,-0.114,0.922,0.111
35.28,-0.072,1.001,0.124
35.29,-0.237,0.842,-0.02
35.3,-0.456,1.007,-0.113
35.31,-0.056,1.177,-0.085
35.32,-0.136,0.749,0.111
35.33,-0.218,1.101,0.198
35.34,-0.254,0.772,-0.161
35.35,-0.353,1.137,-0.099
35.36,-0.032,1.013,0.091
35.37,-0.071,0.901,0.092
35.38,-0.333,0.891,0.004
35.39,-0.344,0.973,-0.152
35.4,-0.105,1.205,-0.034
35.41,-0.215,0.744,0.138
35.42,-0.085,1.08,0.108
35.43,-0.285,0.845,-0.213
35.44,-0.301,1.056,-0.076
35.45,-0.051,1.08,0.083
35.46,-0.079,0.783,0.122
35.47,-0.299,1.017,0.021
35.48,-0.289,0.916,-0.18
35.49,-0.136,1.229,-0.019
35.5,-0.237,0.759,0.162
35.51,-0.067,1.004,0.091
35.52,-0.142,1.193,0.021
35.53,-0.111,0.638,0.194
35.54,-0.361,1.168,-0.154
35.55,-0.338,0.899,-0.136
35.56,-0.024,1.106,0.091
35.57,-0.084,0.891,0.118
35.58,-0.309,0.767,0.018
35.59,-0.325,1.269,-0.196
35.6,-0.072,0.86,-0.087
35.61,-0.24,1.124,0.158
35.62,-0.018,0.715,0.147
35.63,-0.439,1.088,-0.191
35.64,-0.267,0.885,-0.099
35.65,-0.018,1.151,0.074
35.66,-0.153,0.934,0.1
35.67,-0.284,0.666,0.042
35.68,-0.328,1.337,-0.186
35.69,-0.105,0.796,-0.029
35.7,-0.243,1.105,0.162
35.71,-0.047,0.78,0.094
35.72,-0.435,1.014,-0.218
35.73,-0.266,1.048,-0.048
35.74,-0.015,1.033,0.055
35.75,-0.168,0.961,0.085
35.76,-0.274,0.713,0.039
35.77,-0.344,1.315,-0.213
35.78,-0.118,0.785,-0.033
35.79,-0.088,1.086,0.148
35.8,-0.067,0.773,0.041
35.81,-0.453,0.95,-0.176
35.82,-0.146,1.149,-0.036
35.83,-0.114,0.923,0.056
35.84,-0.174,0.972,0.126
35.85,-0.223,0.75,0.007
35.86,-0.377,1.311,-0.236
35.87,-0.105,0.838,0.005
35.88,-0.113,1.124,0.14
35.89,-0.149,0.818,0.03
35.9,-0.44,0.893,-0.136
35.91,-0.142,1.219,-0.066
35.92,-0.04,0.84,0.052
35.93,-0.13,1.026,0.11
35.94,-0.226,0.752,-0.061
35.95,-0.397,1.25,-0.144
35.96,-0.136,0.909,0.03
35.97,-0.186,0.997,0.191
35.98,-0.106,0.876,0.011
35.99,-0.477,0.854,-0.115
36.0,-0.093,1.265,-0.036
36.01,-0.07,0.847,0.045
36.02,-0.273,0.992,0.192
36.03,-0.204,0.783,-0.055
36.04,-0.317,1.179,-0.189
36.05,-0.204,0.978,0.083
36.06,-0.042,0.902,0.195
36.07,-0.206,0.959,-0.009
36.08,-0.453,0.808,-0.15
36.09,-0.08,1.269,-0.057
36.1,-0.098,0.762,0.066
36.11,-0.244,0.971,0.161
36.12,-0.173,0.914,-0.093
36.13,-0.352,1.048,-0.151
36.14,-0.156,1.028,0.08
36.15,-0.014,0.872,0.144
36.16,-0.311,1.01,-0.015
36.17,-0.382,0.801,-0.143
36.18,-0.057,1.318,-0.072
36.19,-0.168,0.725,0.085
36.2,-0.171,0.949,0.17
36.21,-0.247,1.025,-0.154
36.22,-0.302,0.909,-0.172
36.23,-0.103,1.174,0.141
36.24,-0.021,0.767,0.109
36.25,-0.32,1.006,-0.008
36.26,-0.38,0.898,-0.1
36.27,-0.176,1.246,-0.058
36.28,-0.204,0.763,0.094
36.29,-0.084,0.935,0.211
36.3,-0.364,1.054,-0.184
36.31,-0.252,0.839,-0.134
36.32,-0.029,1.252,0.078
36.33,-0.106,0.696,0.139
36.34,-0.363,1.081,0.022
36.35,-0.214,0.902,-0.244
36.36,-0.207,1.192,-0.024
36.37,-0.16,0.745,0.202
36.38,-0.09,0.991,0.034
36.39,-0.365,0.951,-0.224
36.4,-0.206,0.978,-0.051
36.41,-0.067,1.149,0.059
36.42,-0.165,0.645,0.146
36.43,-0.349,1.114,0.02
36.44,-0.278,0.896,-0.216
36.45,-0.187,1.152,0.024
36.46,-0.124,0.825,0.179
36.47,-0.081,0.934,0.084
36.48,-0.419,0.978,-0.205
36.49,-0.114,0.902,0.003
36.5,-0.138,1.236,0.027
36.51,-0.125,0.621,0.162
36.52,-0.336,1.152,-0.007
36.53,-0.303,0.888,-0.237
36.54,-0.09,1.092,-0.004
36.55,-0.07,0.935,0.158
36.56,-0.091,0.844,0.021
36.57,-0.385,1.091,-0.174
36.58,-0.103,0.905,0.006
36.59,-0.189,1.2,0.056
36.6,-0.137,0.613,0.154
36.61,-0.364,1.192,-0.033
36.62,-0.328,0.884,-0.194
36.63,-0.194,1.047,0.063
36.64,-0.061,1.0,0.126
36.65,-0.116,0.72,-0.0
36.66,-0.435,1.17,-0.188
36.67,0.0,0.908,-0.071
36.68,-0.163,1.163,0.042
36.69,-0.144,0.624,0.192
36.7,-0.293,1.153,-0.072
36.71,-0.343,0.957,-0.176
36.72,-0.222,1.008,0.118
36.73,-0.057,1.052,0.121
36.74,-0.183,0.677,0.005
36.75,-0.471,1.24,-0.163
36.76,-0.036,0.843,-0.073
36.77,-0.184,1.109,0.048
36.78,-0.061,0.72,0.196
36.79,-0.395,1.075,-0.127
36.8,-0.26,0.948,-0.184
36.81,-0.061,1.055,0.105
36.82,-0.188,1.032,0.157
36.83,-0.266,0.666,0.044
36.84,-0.389,1.342,-0.183
36.85,-0.115,0.834,-0.011
36.86,-0.256,1.109,0.155
36.87,-0.059,0.794,0.183
36.88,-0.389,0.96,-0.179
36.89,-0.24,0.988,-0.143
36.9,-0.005,1.006,0.034
36.91,-0.144,1.073,0.103
36.92,-0.262,0.66,0.023
36.93,-0.427,1.283,-0.148
36.94,-0.062,0.89,-0.004
36.95,-0.263,1.062,0.154
36.96,-0.092,0.838,0.14
36.97,-0.35,0.936,-0.166
36.98,-0.315,1.116,-0.105
36.99,-0.039,0.91,0.095
37.0,-0.072,1.089,0.129
37.01,-0.28,0.659,-0.007
37.02,-0.397,1.251,-0.189
37.03,-0.098,0.926,-0.032
37.04,-0.257,0.937,0.167
37.05,-0.066,0.918,0.128
37.06,-0.358,0.895,-0.224
37.07,-0.24,1.148,-0.072
37.08,-0.025,0.951,0.117
37.09,-0.14,0.98,0.129
37.1,-0.287,0.72,-0.015
37.11,-0.302,1.309,-0.207
37.12,-0.142,0.873,0.042
37.13,-0.26,1.063,0.207
37.14,-0.041,0.821,0.046
37.15,-0.523,1.126,-0.198
37.16,0.01,1.035,-0.036
37.17,-0.153,0.976,0.056
37.18,-0.229,0.894,0.2
37.19,-0.213,0.804,-0.116
37.2,-0.293,1.23,-0.215
37.21,-0.134,0.841,0.122
37.22,-0.065,1.109,0.136
37.23,-0.266,0.739,-0.02
37.24,-0.457,1.092,-0.121
37.25,-0.072,1.09,-0.067
37.26,-0.187,0.819,0.118
37.27,-0.145,0.995,0.18
37.28,-0.271,0.82,-0.178
37.29,-0.356,1.193,-0.122
37.3,-0.075,0.887,0.114
37.31,-0.088,0.998,0.117
37.32,-0.229,0.816,-0.02
37.33,-0.341,1.062,-0.15
37.34,-0.155,1.166,-0.043
37.35,-0.147,0.716,0.065
37.36,-0.062,1.063,0.126
37.37,-0.424,0.839,-0.186
37.38,-0.214,1.165,-0.129
37.39,0.031,0.965,0.034
37.4,-0.203,0.871,0.177
37.41,-0.265,0.894,0.014
37.42,-0.276,1.031,-0.213
37.43,-0.133,1.152,0.007
37.44,-0.244,0.705,0.2
37.45,-0.152,1.033,0.084
37.46,-0.388,0.849,-0.208
37.47,-0.16,1.127,-0.054
37.48,-0.114,0.95,0.073
37.49,-0.14,0.814,0.168
37.5,-0.251,1.029,-0.063
37.51,-0.35,0.887,-0.186
37.52,-0.122,1.186,0.023
37.53,-0.079,0.779,0.149
37.54,-0.173,0.99,0.097
37.55,-0.363,0.901,-0.183
37.56,-0.169,1.122,-0.018
37.57,-0.113,0.98,0.048
37.58,-0.161,0.743,0.177
37.59,-0.3,1.139,-0.056
37.6,-0.273,0.803,-0.22
37.61,-0.125,1.204,0.071
37.62,-0.079,0.803,0.15
37.63,-0.144,0.954,-0.007
37.64,-0.339,0.945,-0.209
37.65,-0.095,1.065,-0.082
37.66,-0.128,1.024,0.103
37.67,-0.167,0.699,0.147
37.68,-0.303,1.154,-0.089
37.69,-0.293,0.816,-0.179
37.7,-0.122,1.212,0.069
37.71,-0.047,0.82,0.142
37.72,-0.221,0.904,0.002
37.73,-0.436,1.028,-0.176
37.74,-0.086,0.971,-0.051
37.75,-0.147,1.049,0.088
37.76,-0.156,0.7,0.232
37.77,-0.332,1.203,-0.192
37.78,-0.266,0.789,-0.173
37.79,-0.04,1.22,0.113
37.8,-0.142,0.824,0.098
37.81,-0.301,0.833,0.033
37.82,-0.388,1.196,-0.179
37.83,-0.13,0.882,-0.055
37.84,-0.246,1.095,0.144
37.85,-0.042,0.686,0.165
37.86,-0.416,1.167,-0.163
37.87,-0.295,0.857,-0.075
37.88,-0.021,1.156,0.03
37.89,-0.152,0.836,0.101
37.9,-0.254,0.775,0.056
37.91,-0.388,1.28,-0.22
37.92,-0.11,0.829,-0.048
37.93,-0.183,1.177,0.164
37.94,-0.053,0.695,0.147
37.95,-0.457,1.129,-0.178
37.96,-0.181,0.871,-0.029
37.97,-0.163,1.179,0.08
37.98,-0.144,0.727,0.166
37.99,-0.292,0.962,-0.009
38.0,-0.285,1.083,-0.217
38.01,-0.186,0.876,0.046
38.02,-0.154,1.165,0.127
38.03,-0.068,0.647,0.069
38.04,-0.439,1.206,-0.192
38.05,-0.09,0.896,-0.054
38.06,-0.104,1.106,0.078
38.07,-0.166,0.796,0.176
38.08,-0.286,0.907,-0.074
38.09,-0.365,1.138,-0.155
38.1,-0.129,0.885,0.086
38.11,-0.16,1.202,0.108
38.12,-0.058,0.6,0.022
38.13,-0.483,1.249,-0.187
38.14,-0.073,0.988,-0.061
38.15,-0.116,0.975,0.056
38.16,-0.159,0.897,0.194
38.17,-0.304,0.859,-0.092
38.18,-0.334,1.175,-0.18
38.19,-0.163,0.849,0.101
38.2,-0.083,1.158,0.103
38.21,-0.118,0.673,0.021
38.22,-0.431,1.221,-0.148
38.23,-0.157,1.035,-0.068
38.24,-0.207,0.868,0.081
38.25,-0.123,0.963,0.162
38.26,-0.283,0.807,-0.13
38.27,-0.354,1.188,-0.113
38.28,-0.118,0.9,0.093
38.29,-0.089,1.111,0.096
38.3,-0.139,0.687,0.013
38.31,-0.431,1.138,-0.149
38.32,-0.061,1.09,-0.112
38.33,-0.157,0.794,0.048
38.34,-0.134,1.018,0.207
38.35,-0.354,0.778,-0.112
38.36,-0.292,1.158,-0.138
38.37,-0.062,0.995,0.082
38.38,-0.106,0.99,0.121
38.39,-0.254,0.766,0.042
38.4,-0.319,1.103,-0.184
38.41,-0.174,1.155,-0.074
38.42,-0.132,0.706,0.105
38.43,-0.104,1.099,0.142
38.44,-0.322,0.751,-0.161
38.45,-0.296,1.158,-0.089
38.46,-0.074,1.001,0.048
38.47,-0.102,0.854,0.098
38.48,-0.24,0.865,0.041
38.49,-0.291,1.027,-0.19
38.5,-0.189,1.115,-0.048
38.51,-0.176,0.725,0.214
38.52,-0.131,1.1,0.095
38.53,-0.345,0.754,-0.183
38.54,-0.187,1.137,-0.057
38.55,-0.114,1.079,0.009
38.56,-0.139,0.756,0.115
38.57,-0.181,0.964,0.017
38.58,-0.373,1.005,-0.162
38.59,-0.142,1.169,-0.077
38.6,-0.133,0.716,0.152
38.61,-0.072,1.067,0.137
38.62,-0.352,0.852,-0.179
38.63,-0.287,1.001,-0.061
38.64,-0.064,1.153,0.103
38.65,-0.128,0.78,0.128
38.66,-0.307,1.014,0.026
38.67,-0.278,0.963,-0.149
38.68,-0.213,1.175,-0.031
38.69,-0.218,0.723,0.193
38.7,-0.031,1.026,0.139
38.71,-0.412,0.885,-0.211
38.72,-0.215,0.946,-0.007
38.73,-0.09,1.235,0.025
38.74,-0.164,0.64,0.115
38.75,-0.237,1.093,0.011
38.76,-0.252,0.935,-0.223
38.77,-0.207,1.125,-0.062
38.78,-0.054,0.778,0.177
38.79,-0.04,1.048,0.017
38.8,-0.411,0.851,-0.161
38.81,-0.215,1.082,-0.048
38.82,-0.098,1.094,0.042
38.83,-0.154,0.738,0.156
38.84,-0.305,1.07,0.02
38.85,-0.247,0.888,-0.202
38.86,-0.185,1.212,-0.019
38.87,-0.174,0.756,0.219
38.88,-0.057,0.993,0.078
38.89,-0.465,0.943,-0.132
38.9,-0.237,1.022,0.002
38.91,-0.092,1.148,0.024
38.92,-0.186,0.678,0.152
38.93,-0.221,1.117,-0.02
38.94,-0.268,0.863,-0.224
38.95,-0.271,1.14,0.019
38.96,-0.095,0.854,0.177
38.97,-0.136,0.913,0.125
38.98,-0.388,0.946,-0.202
38.99,-0.086,0.996,-0.089
39.0,-0.206,1.161,0.017
39.01,-0.098,0.575,0.169
39.02,-0.292,1.159,0.045
39.03,-0.283,0.893,-0.226
39.04,-0.147,1.109,-0.068
39.05,-0.148,0.859,0.161
39.06,-0.082,0.889,0.09
39.07,-0.421,1.023,-0.198
39.08,-0.156,0.88,-0.077
39.09,-0.136,1.302,0.051
39.1,-0.106,0.578,0.141
39.11,-0.254,1.104,0.008
39.12,-0.296,0.947,-0.153
39.13,-0.164,1.105,-0.025
39.14,-0.14,0.899,0.131
39.15,-0.04,0.853,0.138
39.16,-0.456,1.108,-0.145
39.17,-0.294,0.826,-0.075
39.18,-0.024,1.337,0.028
39.19,-0.127,0.638,0.117
39.2,-0.227,1.056,0.021
39.21,-0.288,1.005,-0.236
39.22,-0.132,0.979,-0.086
39.23,-0.085,0.991,0.175
39.24,-0.14,0.761,0.126
39.25,-0.494,1.144,-0.109
39.26,-0.227,0.807,-0.071
39.27,-0.086,1.328,0.017
39.28,-0.154,0.633,0.144
39.29,-0.266,1.0,0.018
39.3,-0.31,1.079,-0.2
39.31,-0.18,0.919,-0.04
39.32,-0.181,1.023,0.154
39.33,-0.062,0.761,0.141
39.34,-0.421,1.2,-0.17
39.35,-0.229,0.76,-0.131
39.36,-0.103,1.258,0.045
39.37,-0.111,0.768,0.13
39.38,-0.247,0.879,0.025
39.39,-0.437,1.154,-0.203
39.4,-0.084,0.9,-0.037
39.41,-0.221,1.081,0.169
39.42,-0.067,0.706,0.171
39.43,-0.381,1.181,-0.171
39.44,-0.184,0.753,-0.154
39.45,-0.147,1.255,0.072
39.46,-0.093,0.887,0.103
39.47,-0.243,0.796,0.068
39.48,-0.441,1.2,-0.184
39.49,-0.038,0.887,-0.098
39.5,-0.261,1.125,0.092
39.51,-0.119,0.68,0.208
39.52,-0.348,1.142,-0.15
39.53,-0.255,0.833,-0.172
39.54,-0.072,1.151,0.092
39.55,-0.094,0.926,0.097
39.56,-0.263,0.728,0.04
39.57,-0.448,1.259,-0.145
39.58,-0.109,0.843,-0.084
39.59,-0.261,1.065,0.108
39.6,-0.068,0.707,0.165
39.61,-0.435,1.162,-0.179
39.62,-0.225,0.768,-0.116
39.63,-0.075,1.226,0.064
39.64,-0.067,0.816,0.104
39.65,-0.266,0.816,0.046
39.66,-0.395,1.232,-0.141
39.67,-0.096,0.876,-0.077
39.68,-0.23,1.076,0.133
39.69,-0.158,0.725,0.189
39.7,-0.35,1.163,-0.18
39.71,-0.183,0.823,-0.15
39.72,-0.128,1.15,0.105
39.73,-0.071,0.89,0.119
39.74,-0.224,0.755,0.012
39.75,-0.369,1.259,-0.171
39.76,-0.08,0.808,-0.056
39.77,-0.287,1.147,0.143
39.78,-0.115,0.739,0.171
39.79,-0.331,1.079,-0.179
39.8,-0.247,0.88,-0.16
39.81,-0.155,1.127,0.14
39.82,-0.074,0.996,0.103
39.83,-0.143,0.687,0.004
39.84,-0.508,1.257,-0.175
39.85,-0.083,0.826,-0.054
39.86,-0.16,1.151,0.08
39.87,-0.224,0.726,0.151
39.88,-0.345,1.008,-0.107
39.89,-0.181,1.017,-0.149
39.9,-0.144,0.983,0.05
39.91,-0.092,1.051,0.124
39.92,-0.129,0.636,0.038
39.93,-0.458,1.279,-0.192
39.94,-0.079,0.882,-0.073
39.95,-0.156,1.073,0.076
39.96,-0.157,0.793,0.186
39.97,-0.315,0.986,-0.1
39.98,-0.312,1.027,-0.134
39.99,-0.167,0.913,0.103
40.0,-0.009,1.166,0.069
40.01,-0.224,0.647,0.031
40.02,-0.433,1.191,-0.166
40.03,-0.028,0.941,-0.071
40.04,-0.129,1.022,0.087
40.05,-0.183,0.872,0.2
40.06,-0.281,0.907,-0.116
40.07,-0.347,1.116,-0.156
40.08,-0.126,0.884,0.089
40.09,-0.097,1.167,0.147
40.1,-0.2,0.635,0.04
40.11,-0.444,1.202,-0.168
40.12,-0.083,0.974,-0.068
40.13,-0.17,0.97,0.106
40.14,-0.141,0.917,0.119
40.15,-0.322,0.861,-0.081
40.16,-0.323,1.158,-0.154
40.17,-0.116,0.894,0.082
40.18,-0.059,1.136,0.106
40.19,-0.166,0.712,0.028
40.2,-0.419,1.134,-0.183
40.21,-0.065,1.045,-0.066
40.22,-0.186,0.904,0.116
40.23,-0.151,0.941,0.15
40.24,-0.295,0.838,-0.106
40.25,-0.316,1.216,-0.154
40.26,-0.144,0.859,0.074
40.27,-0.073,1.074,0.147
40.28,-0.234,0.727,0.024
40.29,-0.396,1.022,-0.154
40.3,-0.08,1.134,-0.055
40.31,-0.219,0.789,0.115
40.32,-0.137,0.982,0.169
40.33,-0.293,0.827,-0.099
40.34,-0.367,1.185,-0.148
40.35,-0.073,0.874,0.057
40.36,-0.039,1.1,0.151
40.37,-0.274,0.793,0.01
40.38,-0.419,0.919,-0.139
40.39,-0.012,1.237,-0.061
40.4,-0.137,0.776,0.053
40.41,-0.122,0.965,0.196
40.42,-0.333,0.881,-0.172
40.43,-0.36,1.183,-0.142
40.44,-0.01,0.89,0.083
40.45,-0.092,1.036,0.133
40.46,-0.285,0.767,-0.009
40.47,-0.291,1.118,-0.147
40.48,-0.174,1.082,-0.041
40.49,-0.194,0.775,0.17
40.5,-0.078,1.067,0.142
40.51,-0.357,0.787,-0.17
40.52,-0.3,1.194,-0.075
40.53,-0.026,0.927,0.064
40.54,-0.143,0.932,0.121
40.55,-0.262,0.875,0.011
40.56,-0.316,1.044,-0.149
40.57,-0.162,1.143,-0.009
40.58,-0.146,0.773,0.122
40.59,-0.095,1.043,0.125
40.6,-0.364,0.804,-0.157
40.61,-0.246,1.199,-0.089
40.62,-0.095,0.943,0.04
40.63,-0.125,0.836,0.183
40.64,-0.252,0.968,-0.005
40.65,-0.374,0.975,-0.145
40.66,-0.146,1.141,0.006
40.67,-0.134,0.758,0.123
40.68,-0.151,1.042,0.117
40.69,-0.345,0.825,-0.178
40.7,-0.259,1.106,-0.09
40.71,-0.096,1.012,0.066
40.72,-0.096,0.755,0.156
40.73,-0.311,1.043,-0.013
40.74,-0.322,0.948,-0.171
40.75,-0.135,1.132,-0.047
40.76,-0.119,0.755,0.147
40.77,-0.134,1.056,0.102
40.78,-0.385,0.844,-0.214
40.79,-0.269,1.012,-0.044
40.8,-0.06,1.126,0.036
40.81,-0.111,0.687,0.151
40.82,-0.326,1.059,0.003
40.83,-0.213,0.921,-0.216
40.84,-0.173,1.175,0.03
40.85,-0.181,0.738,0.159
40.86,-0.081,0.979,0.087
40.87,-0.39,0.943,-0.18
40.88,-0.247,0.953,0.005
40.89,-0.09,1.181,0.042
40.9,-0.059,0.628,0.128
40.91,-0.306,1.132,-0.025
40.92,-0.232,0.877,-0.238
40.93,-0.142,1.136,-0.024
40.94,-0.16,0.819,0.194
40.95,-0.079,0.936,0.053
40.96,-0.404,1.004,-0.215
40.97,-0.172,0.896,-0.014
40.98,-0.174,1.22,0.074
40.99,-0.089,0.631,0.158
41.0,-0.329,1.166,-0.06
41.01,-0.259,0.869,-0.215
41.02,-0.146,1.135,0.044
41.03,-0.158,0.903,0.134
41.04,-0.077,0.812,0.07
41.05,-0.438,1.101,-0.174
41.06,-0.175,0.844,-0.007
41.07,-0.096,1.19,0.043
41.08,-0.129,0.633,0.145
41.09,-0.342,1.127,-0.026
41.1,-0.248,0.936,-0.192
41.11,-0.094,1.06,-0.009
41.12,-0.202,0.967,0.218
41.13,-0.077,0.754,0.058
41.14,-0.475,1.175,-0.216
41.15,-0.075,0.834,-0.045
41.16,-0.19,1.205,0.086
41.17,-0.142,0.6,0.215
41.18,-0.282,1.141,-0.087
41.19,-0.306,0.951,-0.23
41.2,-0.175,0.971,0.069
41.21,-0.039,1.093,0.123
41.22,-0.166,0.798,0.014
41.23,-0.385,1.188,-0.17
41.24,-0.111,0.905,-0.063
41.25,-0.237,1.113,0.086
41.26,-0.039,0.69,0.167
41.27,-0.386,1.181,-0.141
41.28,-0.279,0.813,-0.157
41.29,-0.101,1.207,0.09
41.3,-0.112,0.935,0.1
41.31,-0.184,0.744,0.009
41.32,-0.4,1.276,-0.118
41.33,-0.142,0.826,-0.11
41.34,-0.181,1.054,0.111
41.35,-0.093,0.741,0.213
41.36,-0.418,1.103,-0.201
41.37,-0.288,0.819,-0.145
41.38,-0.042,1.185,0.112
41.39,-0.147,0.999,0.116
41.4,-0.204,0.647,0.036
41.41,-0.45,1.339,-0.143
41.42,-0.081,0.857,-0.057
41.43,-0.201,1.066,0.085
41.44,-0.105,0.73,0.22
41.45,-0.47,1.05,-0.171
41.46,-0.245,0.939,-0.137
41.47,-0.095,1.051,0.09
41.48,-0.115,0.971,0.092
41.49,-0.238,0.682,0.006
41.5,-0.388,1.349,-0.137
41.51,-0.103,0.857,-0.039
41.52,-0.305,1.07,0.16
41.53,0.0,0.797,0.147
41.54,-0.431,0.981,-0.17
41.55,-0.284,1.045,-0.124
41.56,-0.025,0.989,0.057
41.57,-0.139,0.997,0.117
41.58,-0.277,0.667,-0.003
41.59,-0.261,1.353,-0.26
41.6,-0.074,0.837,-0.055
41.61,-0.245,1.017,0.192
41.62,0.011,0.857,0.105
41.63,-0.459,0.889,-0.199
41.64,-0.284,1.148,-0.005
41.65,0.003,0.957,0.041
41.66,-0.17,0.981,0.094
41.67,-0.251,0.716,0.056
41.68,-0.261,1.305,-0.243
41.69,-0.146,0.883,-0.009
41.7,-0.174,0.975,0.196
41.71,-0.047,0.957,0.098
41.72,-0.445,0.827,-0.194
41.73,-0.262,1.187,-0.033
41.74,0.011,0.906,0.027
41.75,-0.168,0.987,0.14
41.76,-0.291,0.757,-0.012
41.77,-0.272,1.243,-0.185
41.78,-0.152,0.939,-0.037
41.79,-0.214,0.903,0.221
41.8,-0.073,0.988,0.06
41.81,-0.392,0.765,-0.226
41.82,-0.182,1.246,-0.037
41.83,-0.069,0.893,0.064
41.84,-0.169,0.915,0.137
41.85,-0.286,0.857,-0.006
41.86,-0.327,1.126,-0.216
41.87,-0.099,1.027,-0.032
41.88,-0.132,0.862,0.208
41.89,-0.131,1.02,0.083
41.9,-0.412,0.779,-0.156
41.91,-0.112,1.267,-0.076
41.92,-0.097,0.817,0.068
41.93,-0.177,0.892,0.176
41.94,-0.264,0.954,-0.044
41.95,-0.358,0.971,-0.166
41.96,-0.136,1.101,0.006
41.97,-0.069,0.817,0.127
41.98,-0.171,1.041,0.039
41.99,-0.42,0.798,-0.175
42.0,-0.071,1.167,-0.079
42.01,-0.093,0.885,0.088
42.02,-0.164,0.89,0.186
42.03,-0.306,1.037,-0.101
42.04,-0.308,0.989,-0.122
42.05,-0.122,1.162,0.107
42.06,-0.129,0.813,0.125
42.07,-0.237,1.0,0.043
42.08,-0.374,0.889,-0.143
42.09,-0.19,1.227,-0.092
42.1,-0.098,0.726,0.09
42.11,-0.15,0.969,0.149
42.12,-0.325,0.962,-0.152
42.13,-0.263,0.927,-0.123
42.14,-0.17,1.193,0.121
42.15,-0.082,0.744,0.15
42.16,-0.234,1.035,0.006
42.17,-0.408,0.913,-0.128
42.18,-0.115,1.187,-0.064
42.19,-0.101,0.753,0.059
42.2,-0.114,0.899,0.198
42.21,-0.38,1.059,-0.174
42.22,-0.259,0.846,-0.116
42.23,-0.079,1.288,0.103
42.24,-0.087,0.669,0.121
42.25,-0.35,1.042,0.023
42.26,-0.271,0.937,-0.16
42.27,-0.182,1.139,-0.047
42.28,-0.181,0.779,0.126
42.29,-0.006,0.89,0.153
42.3,-0.459,1.121,-0.183
42.31,-0.215,0.786,-0.089
42.32,-0.073,1.323,0.1
42.33,-0.156,0.625,0.174
42.34,-0.307,1.053,0.031
42.35,-0.309,1.008,-0.177
42.36,-0.142,1.025,-0.037
42.37,-0.248,0.923,0.155
42.38,-0.025,0.787,0.103
42.39,-0.435,1.181,-0.205
42.4,-0.225,0.82,-0.028
42.41,-0.092,1.334,0.073
42.42,-0.123,0.662,0.125
42.43,-0.345,1.014,0.045
42.44,-0.283,1.008,-0.233
42.45,-0.17,0.954,-0.004
42.46,-0.203,1.052,0.173
42.47,-0.045,0.695,0.091
42.48,-0.476,1.171,-0.225
42.49,-0.11,0.853,-0.016
42.5,-0.18,1.236,0.093
42.51,-0.205,0.665,0.196
42.52,-0.26,1.021,-0.022
42.53,-0.285,1.077,-0.193
42.54,-0.203,0.915,0.0
42.55,-0.159,1.169,0.154
42.56,-0.098,0.671,0.049
42.57,-0.47,1.169,-0.169
42.58,-0.081,0.873,-0.063
42.59,-0.168,1.137,0.077
42.6,-0.131,0.726,0.193
42.61,-0.272,0.939,-0.076
42.62,-0.312,1.164,-0.15
42.63,-0.159,0.909,0.045
42.64,-0.11,1.122,0.117
42.65,-0.091,0.667,0.066
42.66,-0.429,1.212,-0.213
42.67,-0.151,0.899,-0.027
42.68,-0.178,1.109,0.121
42.69,-0.167,0.815,0.138
42.7,-0.276,0.881,-0.052
42.71,-0.331,1.199,-0.144
42.72,-0.152,0.864,0.054
42.73,-0.143,1.176,0.108
42.74,-0.092,0.619,0.018
42.75,-0.409,1.186,-0.158
42.76,-0.148,1.014,-0.075
42.77,-0.1,0.958,0.084
42.78,-0.201,0.937,0.149
42.79,-0.31,0.804,-0.099
42.8,-0.251,1.172,-0.199
42.81,-0.093,0.907,0.106
42.82,-0.162,1.145,0.128
42.83,-0.087,0.716,0.018
42.84,-0.436,1.125,-0.174
42.85,-0.116,0.927,-0.032
42.86,-0.182,1.015,0.118
42.87,-0.204,0.854,0.158
42.88,-0.341,0.886,-0.134
42.89,-0.216,1.163,-0.163
42.9,-0.071,0.928,0.076
42.91,-0.166,1.106,0.15
42.92,-0.102,0.659,0.008
42.93,-0.464,1.259,-0.176
42.94,-0.086,0.948,-0.058
42.95,-0.155,0.932,0.115
42.96,-0.153,0.935,0.178
42.97,-0.436,0.785,-0.145
42.98,-0.23,1.194,-0.117
42.99,-0.023,0.963,0.065
43.0,-0.18,0.988,0.156
43.01,-0.136,0.711,0.011
43.02,-0.452,1.25,-0.144
43.03,-0.101,0.973,-0.079
43.04,-0.183,0.886,0.202
43.05,-0.161,1.033,0.096
43.06,-0.383,0.778,-0.17
43.07,-0.247,1.194,-0.105
43.08,-0.007,0.94,0.045
43.09,-0.187,0.944,0.145
43.1,-0.205,0.806,0.063
43.11,-0.4,1.171,-0.187
43.12,-0.104,1.041,-0.041
43.13,-0.162,0.795,0.173
43.14,-0.113,1.088,0.1
43.15,-0.367,0.741,-0.176
43.16,-0.242,1.193,-0.027
43.17,-0.087,0.976,0.057
43.18,-0.124,0.857,0.117
43.19,-0.239,0.89,0.023
43.2,-0.294,1.043,-0.241
43.21,-0.111,1.08,-0.028
43.22,-0.134,0.792,0.165
43.23,-0.138,1.064,0.05
43.24,-0.309,0.733,-0.187
43.25,-0.203,1.21,-0.027
43.26,-0.185,0.973,0.062
43.27,-0.111,0.793,0.137
43.28,-0.253,1.004,-0.015
43.29,-0.32,0.934,-0.208
43.3,-0.1,1.128,0.01
43.31,-0.163,0.754,0.181
43.32,-0.167,1.042,0.071
43.33,-0.335,0.841,-0.212
43.34,-0.252,1.099,-0.037
43.35,-0.1,1.02,0.064
43.36,-0.127,0.735,0.143
43.37,-0.296,1.072,0.007
43.38,-0.298,0.918,-0.212
43.39,-0.189,1.14,0.022
43.4,-0.121,0.813,0.188
43.41,-0.159,1.027,0.052
43.42,-0.337,0.853,-0.24
43.43,-0.098,1.068,-0.025
43.44,-0.191,1.102,0.063
43.45,-0.131,0.645,0.16
43.46,-0.239,1.123,-0.034
43.47,-0.374,0.861,-0.227
43.48,-0.115,1.105,0.004
43.49,-0.013,0.886,0.112
43.5,-0.228,0.951,0.096
43.51,-0.403,0.924,-0.185
43.52,-0.148,0.981,-0.05
43.53,-0.131,1.121,0.048
43.54,-0.183,0.657,0.214
43.55,-0.315,1.146,-0.084
43.56,-0.293,0.806,-0.184
43.57,-0.167,1.184,0.04
43.58,-0.08,0.889,0.122
43.59,-0.163,0.866,0.026
43.6,-0.427,1.035,-0.172
43.61,-0.144,0.91,-0.022
43.62,-0.115,1.167,0.038
43.63,-0.153,0.622,0.2
43.64,-0.272,1.194,-0.085
43.65,-0.29,0.865,-0.179
43.66,-0.162,1.212,0.106
43.67,-0.02,0.833,0.154
43.68,-0.273,0.942,0.039
43.69,-0.377,1.01,-0.174
43.7,-0.096,1.03,-0.083
43.71,-0.161,0.995,0.038
43.72,-0.121,0.692,0.231
43.73,-0.439,1.228,-0.127
43.74,-0.234,0.736,-0.156
43.75,-0.168,1.239,0.088
43.76,-0.116,0.838,0.136
43.77,-0.156,0.861,-0.002
43.78,-0.398,1.117,-0.172
43.79,-0.116,0.904,-0.055
43.8,-0.194,1.104,0.093
43.81,-0.148,0.678,0.195
43.82,-0.39,1.129,-0.161
43.83,-0.248,0.82,-0.171
43.84,-0.125,1.196,0.093
43.85,-0.08,0.84,0.127
43.86,-0.412,1.251,-0.186
43.87,-0.148,0.839,0.042
43.88,-0.099,1.124,0.172
43.89,-0.122,0.797,0.057
43.9,-0.427,0.995,-0.157
43.91,-0.173,1.167,-0.038
43.92,-0.129,0.811,0.106
43.93,-0.205,1.006,0.178
43.94,-0.26,0.782,-0.093
43.95,-0.326,1.156,-0.176
43.96,-0.155,0.891,0.07
43.97,-0.136,1.08,0.151
43.98,-0.103,0.846,0.03
43.99,-0.413,0.941,-0.162
44.0,-0.165,1.251,-0.04
44.01,-0.104,0.814,0.051
44.02,-0.194,0.996,0.166
44.03,-0.256,0.795,-0.092
44.04,-0.338,1.18,-0.163
44.05,-0.131,0.916,0.041
44.06,-0.119,0.963,0.147
44.07,-0.178,0.911,0.027
44.08,-0.406,0.89,-0.189
44.09,-0.056,1.274,-0.073
44.1,-0.154,0.775,0.081
44.11,-0.176,0.961,0.188
44.12,-0.33,0.848,-0.082
44.13,-0.305,1.104,-0.148
44.14,-0.121,0.984,0.032
44.15,-0.066,0.908,0.178
44.16,-0.269,0.99,0.04
44.17,-0.361,0.797,-0.203
44.18,-0.055,1.276,-0.055
44.19,-0.149,0.743,0.097
44.2,-0.166,0.974,0.18
44.21,-0.266,0.939,-0.157
44.22,-0.317,0.976,-0.115
44.23,-0.087,1.125,0.097
44.24,-0.182,0.757,0.128
44.25,-0.253,1.028,-0.003
44.26,-0.366,0.939,-0.145
44.27,-0.159,1.222,-0.052
44.28,-0.136,0.724,0.125
44.29,-0.135,0.97,0.173
44.3,-0.375,0.962,-0.172
44.31,-0.229,0.937,-0.1
44.32,-0.078,1.219,0.057
44.33,-0.15,0.643,0.135
44.34,-0.269,1.066,0.018
44.35,-0.338,0.91,-0.178
44.36,-0.146,1.178,-0.005
44.37,-0.14,0.777,0.147
44.38,-0.146,0.887,0.145
44.39,-0.422,1.059,-0.183
44.4,-0.207,0.858,-0.073
44.41,-0.068,1.299,0.116
44.42,-0.189,0.666,0.105
44.43,-0.294,1.105,-0.046
44.44,-0.283,0.932,-0.193
44.45,-0.135,1.129,0.012
44.46,-0.122,0.783,0.196
44.47,-0.126,0.949,0.02
44.48,-0.435,0.989,-0.221
44.49,-0.049,0.976,-0.047
44.5,-0.159,1.124,0.106
44.51,-0.183,0.647,0.131
44.52,-0.278,1.189,-0.115
44.53,-0.258,0.889,-0.2
44.54,-0.196,1.151,0.133
44.55,-0.051,0.764,0.119
44.56,-0.248,0.895,0.019
44.57,-0.391,1.134,-0.178
44.58,-0.021,0.885,-0.071
44.59,-0.24,1.134,0.095
44.6,-0.042,0.676,0.207
44.61,-0.416,1.165,-0.188
44.62,-0.31,0.827,-0.154
44.63,-0.021,1.188,0.054
44.64,-0.139,0.846,0.095
44.65,-0.304,0.794,0.039
44.66,-0.286,1.239,-0.205
44.67,-0.125,0.874,-0.01
44.68,-0.165,1.127,0.137
44.69,-0.01,0.705,0.109
44.7,-0.492,1.125,-0.176
44.71,-0.218,0.913,-0.111
44.72,-0.046,1.123,0.093
44.73,-0.201,0.868,0.125
44.74,-0.303,0.769,0.015
44.75,-0.284,1.263,-0.215
44.76,-0.084,0.771,-0.013
44.77,-0.202,1.171,0.184
44.78,-0.03,0.702,0.053
44.79,-0.497,1.119,-0.208
44.8,-0.139,1.003,-0.009
44.81,-0.149,1.018,0.09
44.82,-0.168,0.909,0.119
44.83,-0.26,0.786,-0.037
44.84,-0.392,1.235,-0.181
44.85,-0.122,0.852,0.051
44.86,-0.106,1.19,0.152
44.87,-0.21,0.674,0.053
44.88,-0.458,1.043,-0.131
44.89,-0.052,1.167,-0.096
44.9,-0.208,0.823,0.08
44.91,-0.218,0.974,0.212
44.92,-0.163,0.812,-0.161
44.93,-0.429,1.209,-0.158
44.94,-0.018,0.891,0.106
44.95,-0.135,1.094,0.143
44.96,-0.257,0.741,0.034
44.97,-0.39,1.106,-0.16
44.98,-0.122,1.17,-0.079
44.99,-0.187,0.727,0.161
45.0,-0.081,1.055,0.165
45.01,-0.386,0.738,-0.196
45.02,-0.28,1.089,-0.1
45.03,0.018,1.031,0.059
45.04,-0.166,0.922,0.111
45.05,-0.214,0.86,0.035
45.06,-0.412,1.062,-0.166
45.07,-0.131,1.132,-0.063
45.08,-0.158,0.725,0.15
45.09,-0.101,1.07,0.133
45.1,-0.404,0.808,-0.184
45.11,-0.195,1.128,-0.082
45.12,-0.036,1.022,0.088
45.13,-0.152,0.774,0.147
45.14,-0.258,1.005,-0.007
45.15,-0.294,0.988,-0.187
45.16,-0.178,1.147,-0.005
45.17,-0.119,0.734,0.177
45.18,-0.096,1.07,0.065
45.19,-0.369,0.83,-0.207
45.2,-0.181,1.088,-0.054
45.21,-0.115,1.046,0.083
45.22,-0.167,0.673,0.164
45.23,-0.315,1.095,0.013
45.24,-0.327,0.943,-0.166
45.25,-0.169,1.166,0.072
45.26,-0.052,0.774,0.127
45.27,-0.181,1.019,0.011
45.28,-0.37,0.862,-0.154
45.29,-0.127,1.176,-0.07
45.3,-0.155,0.827,0.089
45.31,-0.135,0.844,0.187
45.32,-0.34,1.078,-0.116
45.33,-0.332,0.85,-0.119
45.34,-0.066,1.248,0.09
45.35,-0.105,0.785,0.121
45.36,-0.198,0.996,0.0
45.37,-0.37,0.917,-0.167
45.38,-0.141,1.14,-0.039
45.39,-0.092,0.868,0.058
45.4,-0.103,0.814,0.166
45.41,-0.413,1.178,-0.176
45.42,-0.277,0.792,-0.104
45.43,-0.104,1.292,0.115
45.44,-0.123,0.742,0.141
45.45,-0.294,0.988,-0.011
45.46,-0.325,1.021,-0.181
45.47,-0.14,1.038,-0.016
45.48,-0.181,0.915,0.114
45.49,-0.052,0.754,0.149
45.5,-0.478,1.195,-0.199
45.51,-0.235,0.786,-0.056
45.52,-0.127,1.312,0.064
45.53,-0.108,0.67,0.112
45.54,-0.258,0.947,-0.012
45.55,-0.296,1.101,-0.198
45.56,-0.121,0.952,0.038
45.57,-0.198,1.036,0.143
45.58,-0.055,0.69,0.1
45.59,-0.533,1.218,-0.212
45.6,-0.192,0.818,0.01
45.61,-0.117,1.249,0.099
45.62,-0.166,0.753,0.125
45.63,-0.279,0.901,-0.034
45.64,-0.286,1.15,-0.223
45.65,-0.098,0.881,0.052
45.66,-0.155,1.148,0.167
45.67,-0.111,0.606,0.022
45.68,-0.472,1.211,-0.213
45.69,-0.099,0.964,-0.019
45.7,-0.143,1.085,0.084
45.71,-0.182,0.812,0.153
45.72,-0.304,0.903,-0.081
45.73,-0.256,1.181,-0.16
45.74,-0.092,0.864,0.063
45.75,-0.132,1.171,0.132
45.76,-0.156,0.625,0.006
45.77,-0.488,1.237,-0.18
45.78,-0.023,0.961,-0.073
45.79,-0.24,0.967,0.12
45.8,-0.164,0.927,0.157
45.81,-0.336,0.846,-0.177
45.82,-0.344,1.135,-0.12
45.83,0.014,0.906,0.129
45.84,-0.111,1.082,0.071
45.85,-0.251,0.666,0.009
45.86,-0.315,1.195,-0.189
45.87,-0.076,1.028,-0.083
45.88,-0.198,0.837,0.159
45.89,-0.12,0.983,0.116
45.9,-0.422,0.811,-0.252
45.91,-0.19,1.145,-0.048
45.92,-0.041,0.946,0.133
45.93,-0.192,0.955,0.084
45.94,-0.166,0.774,-0.021
45.95,-0.36,1.174,-0.14
45.96,-0.208,1.031,0.022
45.97,-0.119,0.805,0.192
45.98,-0.114,1.026,0.058
45.99,-0.512,0.814,-0.203
46.0,-0.152,1.229,-0.006
46.01,-0.089,0.922,0.037
46.02,-0.188,0.852,0.137
46.03,-0.231,0.935,-0.058
46.04,-0.318,1.024,-0.174
46.05,-0.134,0.999,0.133
46.06,-0.05,0.91,0.11
46.07,-0.317,0.954,-0.024
46.08,-0.381,0.92,-0.123
46.09,-0.127,1.276,-0.033
46.1,-0.147,0.687,0.123
46.11,-0.1,1.073,0.179
46.12,-0.399,0.881,-0.193
46.13,-0.266,1.007,-0.147
46.14,-0.007,1.146,0.086
46.15,-0.128,0.712,0.131
46.16,-0.324,1.026,-0.005
46.17,-0.246,0.921,-0.208
46.18,-0.184,1.2,0.041
46.19,-0.154,0.733,0.192
46.2,-0.07,0.981,0.057
46.21,-0.431,0.976,-0.219
46.22,-0.167,0.961,-0.044
46.23,-0.057,1.116,0.039
46.24,-0.159,0.677,0.134
46.25,-0.284,1.154,-0.03
46.26,-0.298,0.869,-0.223
46.27,-0.245,1.181,0.075
46.28,-0.05,0.861,0.156
46.29,-0.24,0.848,0.002
46.3,-0.461,1.003,-0.147
46.31,-0.035,0.998,-0.099
46.32,-0.135,1.079,0.016
46.33,-0.137,0.659,0.205
46.34,-0.315,1.213,-0.136
46.35,-0.337,0.823,-0.186
46.36,-0.091,1.152,0.127
46.37,-0.008,0.829,0.099
46.38,-0.389,0.858,0.04
46.39,-0.26,1.204,-0.24
46.4,-0.082,0.892,-0.083
46.41,-0.232,1.11,0.169
46.42,0.017,0.744,0.15
46.43,-0.454,1.139,-0.215
46.44,-0.262,0.867,-0.066
46.45,-0.035,1.2,0.084
46.46,-0.146,0.816,0.096
46.47,-0.301,0.806,0.012
46.48,-0.332,1.295,-0.184
46.49,-0.122,0.772,-0.014
46.5,-0.221,1.167,0.196
46.51,-0.04,0.724,0.063
46.52,-0.541,1.091,-0.187
46.53,-0.139,0.954,-0.006
46.54,-0.043,1.088,0.081
46.55,-0.227,0.83,0.117
46.56,-0.231,0.79,-0.038
46.57,-0.308,1.344,-0.222
46.58,-0.131,0.775,0.067
46.59,-0.104,1.161,0.171
46.6,-0.129,0.689,0.016
46.61,-0.513,1.083,-0.162
46.62,0.03,1.131,-0.054
46.63,-0.145,0.903,0.078
46.64,-0.234,0.937,0.179
46.65,-0.198,0.789,-0.138
46.66,-0.328,1.234,-0.21
46.67,-0.065,0.889,0.16
46.68,-0.162,1.06,0.144
46.69,-0.326,0.739,-0.007
46.7,-0.344,1.075,-0.15
46.71,-0.139,1.093,-0.028
46.72,-0.177,0.762,0.138
46.73,-0.077,1.1,0.116
46.74,-0.36,0.763,-0.169
46.75,-0.334,1.19,-0.049
46.76,0.036,0.945,0.075
46.77,-0.176,0.898,0.12
46.78,-0.289,0.903,0.001
46.79,-0.294,1.06,-0.203
46.8,-0.162,1.066,-0.048
46.81,-0.078,0.793,0.214
46.82,-0.132,1.072,0.051
46.83,-0.475,0.801,-0.2
46.84,-0.054,1.227,-0.085
46.85,-0.103,0.944,0.066
46.86,-0.177,0.965,0.201
46.87,-0.258,0.893,-0.126
46.88,-0.318,1.015,-0.204
46.89,-0.052,1.093,0.092
46.9,-0.058,0.773,0.104
46.91,-0.27,0.983,0.01
46.92,-0.349,0.943,-0.163
46.93,-0.149,1.219,-0.07
46.94,-0.265,0.698,0.172
46.95,-0.079,0.955,0.142
46.96,-0.367,0.969,-0.168
46.97,-0.276,0.936,-0.093
46.98,-0.057,1.242,0.094
46.99,-0.14,0.636,0.143
47.0,-0.294,1.057,0.012
47.01,-0.288,0.979,-0.228
47.02,-0.171,1.122,0.002
47.03,-0.164,0.791,0.188
47.04,-0.149,0.941,0.119
47.05,-0.409,1.024,-0.197
47.06,-0.187,0.932,-0.002
47.07,-0.131,1.245,0.037
47.08,-0.082,0.574,0.094
47.09,-0.207,1.164,-0.007
47.1,-0.327,0.946,-0.247
47.11,-0.25,0.982,0.047
47.12,-0.01,0.965,0.158
47.13,-0.163,0.836,0.076
47.14,-0.454,1.109,-0.155
47.15,-0.097,0.938,-0.065
47.16,-0.147,1.17,0.041
47.17,-0.181,0.676,0.21
47.18,-0.154,1.114,-0.117
47.19,-0.379,0.868,-0.217
47.2,-0.144,1.045,0.114
47.21,-0.065,1.047,0.091
47.22,-0.229,0.698,0.019
47.23,-0.424,1.198,-0.119
47.24,-0.001,0.94,-0.135
47.25,-0.229,1.07,0.113
47.26,-0.137,0.706,0.213
47.27,-0.296,1.112,-0.163
47.28,-0.376,0.853,-0.186
47.29,-0.09,1.057,0.144
47.3,-0.099,1.105,0.075
47.31,-0.179,0.606,0.013
47.32,-0.396,1.312,-0.138
47.33,-0.068,0.911,-0.116
47.34,-0.219,1.045,0.099
47.35,-0.083,0.786,0.191
47.36,-0.37,1.043,-0.167
47.37,-0.305,0.983,-0.157
47.38,-0.023,1.034,0.103
47.39,-0.126,1.046,0.115
47.4,-0.17,0.618,-0.016
47.41,-0.393,1.388,-0.161
47.42,-0.099,0.869,-0.063
47.43,-0.249,1.019,0.151
47.44,-0.077,0.816,0.164
47.45,-0.422,0.971,-0.214
47.46,-0.22,1.023,-0.12
47.47,-0.005,1.012,0.088
47.48,-0.171,1.031,0.103
47.49,-0.238,0.612,0.0
47.5,-0.3,1.329,-0.194
47.51,-0.139,0.877,0.012
47.52,-0.248,0.983,0.159
47.53,0.001,0.879,0.105
47.54,-0.495,0.905,-0.188
47.55,-0.291,1.154,-0.032
47.56,0.01,0.95,0.063
47.57,-0.208,0.98,0.082
47.58,-0.173,0.715,0.011
47.59,-0.35,1.296,-0.223
47.6,-0.2,0.892,0.005
47.61,-0.064,1.01,0.174
47.62,-0.165,0.924,0.078
47.63,-0.439,0.847,-0.177
47.64,-0.143,1.261,-0.051
47.65,-0.115,0.798,0.06
47.66,-0.147,0.976,0.159
47.67,-0.228,0.865,-0.081
47.68,-0.313,1.163,-0.164
47.69,-0.128,0.909,0.077
47.7,-0.046,1.021,0.124
47.71,-0.2,0.842,0.014
47.72,-0.425,0.975,-0.145
47.73,-0.092,1.217,-0.073
47.74,-0.128,0.729,0.078
47.75,-0.2,1.047,0.185
47.76,-0.307,0.825,-0.17
47.77,-0.306,1.085,-0.17
47.78,-0.063,1.046,0.118
47.79,-0.103,0.92,0.138
47.8,-0.229,0.877,-0.006
47.81,-0.318,0.989,-0.117
47.82,-0.156,1.269,-0.064
47.83,-0.17,0.664,0.099
47.84,-0.121,1.077,0.199
47.85,-0.362,0.857,-0.193
47.86,-0.287,1.023,-0.083
47.87,-0.025,1.099,0.077
47.88,-0.091,0.757,0.104
47.89,-0.35,0.998,0.065
47.9,-0.238,0.961,-0.224
47.91,-0.136,1.171,-0.046
47.92,-0.195,0.728,0.159
47.93,-0.039,1.02,0.098
47.94,-0.428,0.896,-0.211
47.95,-0.261,1.009,0.009
47.96,-0.015,1.129,0.026
47.97,-0.179,0.671,0.132
47.98,-0.284,1.066,0.025
47.99,-0.286,0.961,-0.228
48.0,-0.151,1.167,0.005
48.01,-0.169,0.792,0.168
48.02,-0.076,0.995,0.069
48.03,-0.369,0.967,-0.205
48.04,-0.187,0.935,-0.045
48.05,-0.061,1.162,0.072
48.06,-0.175,0.62,0.146
48.07,-0.346,1.119,-0.015
48.08,-0.204,0.917,-0.223
48.09,-0.129,1.145,0.004
48.1,-0.124,0.799,0.203
48.11,-0.127,0.908,-0.014
48.12,-0.439,1.07,-0.217
48.13,-0.053,0.937,-0.001
48.14,-0.187,1.204,0.119
48.15,-0.221,0.623,0.162
48.16,-0.266,1.201,-0.091
48.17,-0.281,0.923,-0.212
48.18,-0.199,1.122,0.159
48.19,-0.054,0.871,0.137
48.2,-0.271,0.821,-0.04
48.21,-0.396,1.117,-0.128
48.22,-0.072,0.885,-0.015
48.23,-0.233,1.139,0.145
48.24,-0.083,0.683,0.183
48.25,-0.422,1.15,-0.165
48.26,-0.249,0.878,-0.113
48.27,-0.103,1.161,0.114
48.28,-0.148,0.845,0.131
48.29,-0.27,0.783,0.031
48.3,-0.371,1.312,-0.21
48.31,-0.073,0.781,0.023
48.32,-0.2,1.189,0.145
48.33,-0.012,0.694,0.103
