t,ax,ay,az
0.0,-0.192,0.63,-0.004
0.01,-0.429,1.304,-0.174
0.02,-0.082,0.851,-0.055
0.03,-0.192,1.006,0.146
0.04,-0.077,0.865,0.144
0.05,-0.411,0.95,-0.176
0.06,-0.283,1.139,-0.095
0.07,-0.027,0.957,0.086
0.08,-0.163,0.982,0.138
0.09,-0.27,0.668,0.035
0.1,-0.333,1.315,-0.241
0.11,-0.046,0.842,-0.073
0.12,-0.174,1.034,0.178
0.13,-0.103,0.858,0.082
0.14,-0.451,0.882,-0.186
0.15,-0.125,1.295,-0.078
0.16,-0.098,0.803,0.055
0.17,-0.193,0.991,0.194
0.18,-0.176,0.795,-0.114
0.19,-0.35,1.179,-0.211
0.2,-0.128,0.955,0.092
0.21,-0.107,0.998,0.135
0.22,-0.163,0.874,0.028
0.23,-0.431,0.936,-0.14
0.24,-0.151,1.26,-0.089
0.25,-0.116,0.679,0.098
0.26,-0.146,1.072,0.19
0.27,-0.294,0.839,-0.156
0.28,-0.395,1.036,-0.146
0.29,0.033,1.078,0.101
0.3,-0.163,0.875,0.131
0.31,-0.242,0.933,0.014
0.32,-0.347,0.956,-0.116
0.33,-0.26,1.246,-0.044
0.34,-0.187,0.672,0.168
0.35,-0.108,1.104,0.149
0.36,-0.33,0.835,-0.211
0.37,-0.275,1.052,-0.055
0.38,0.023,1.153,0.064
0.39,-0.199,0.648,0.109
0.4,-0.257,1.049,0.071
0.41,-0.35,0.989,-0.247
0.42,-0.145,1.122,-0.058
0.43,-0.151,0.751,0.199
0.44,-0.135,0.973,0.051
0.45,-0.373,0.906,-0.183
0.46,-0.183,1.052,-0.068
0.47,-0.102,1.118,0.074
0.48,-0.087,0.628,0.144
0.49,-0.266,1.064,-0.087
0.5,-0.331,0.876,-0.159
0.51,-0.152,1.237,0.067
0.52,-0.088,0.736,0.134
0.53,-0.211,1.006,0.034
0.54,-0.352,0.951,-0.185
0.55,-0.138,1.125,-0.103
0.56,-0.148,0.879,0.078
0.57,-0.103,0.82,0.185
0.58,-0.343,1.121,-0.143
0.59,-0.31,0.756,-0.157
0.6,0.005,1.309,0.082
0.61,-0.091,0.735,0.095
0.62,-0.226,0.968,0.053
0.63,-0.345,1.025,-0.16
0.64,-0.221,1.064,-0.007
0.65,-0.188,0.955,0.143
0.66,-0.15,0.792,0.164
0.67,-0.453,1.141,-0.171
0.68,-0.196,0.776,-0.143
0.69,0.004,1.294,0.038
0.7,-0.112,0.635,0.113
0.71,-0.26,0.965,0.015
0.72,-0.291,1.082,-0.202
0.73,-0.165,0.946,-0.044
0.74,-0.214,0.998,0.221
0.75,-0.071,0.694,0.087
0.76,-0.477,1.187,-0.213
0.77,-0.227,0.841,-0.015
0.78,-0.107,1.276,0.089
0.79,-0.121,0.684,0.135
0.8,-0.283,0.984,0.027
0.81,-0.275,1.112,-0.258
0.82,-0.191,0.871,-0.007
0.83,-0.166,1.141,0.211
0.84,-0.154,0.677,0.091
0.85,-0.474,1.161,-0.206
0.86,-0.028,0.923,-0.064
0.87,-0.115,1.169,0.052
0.88,-0.152,0.688,0.155
0.89,-0.228,0.947,-0.028
0.9,-0.344,1.106,-0.226
0.91,-0.164,0.852,0.066
0.92,-0.058,1.179,0.116
0.93,-0.196,0.633,-0.01
0.94,-0.48,1.216,-0.163
0.95,-0.072,0.997,-0.06
0.96,-0.154,1.044,0.102
0.97,-0.176,0.808,0.171
0.98,-0.232,0.894,-0.096
0.99,-0.37,1.128,-0.168
1.0,-0.104,0.88,0.116
1.01,-0.087,1.182,0.136
1.02,-0.226,0.588,-0.002
1.03,-0.479,1.274,-0.144
1.04,-0.022,0.979,-0.045
1.05,-0.279,0.996,0.105
1.06,-0.061,0.863,0.121
1.07,-0.313,0.866,-0.151
1.08,-0.311,1.183,-0.167
1.09,0.017,0.91,0.119
1.1,-0.113,1.129,0.13
1.11,-0.333,0.632,0.001
1.12,-0.374,1.194,-0.157
1.13,-0.069,0.982,-0.029
1.14,-0.232,0.892,0.143
1.15,-0.072,1.009,0.114
1.16,-0.338,0.8,-0.181
1.17,-0.376,1.19,-0.091
1.18,0.119,0.928,0.062
1.19,-0.143,1.037,0.123
1.2,-0.334,0.7,0.005
1.21,-0.334,1.19,-0.19
1.22,-0.118,1.021,-0.019
1.23,-0.205,0.858,0.216
1.24,-0.088,0.998,0.057
1.25,-0.423,0.832,-0.183
1.26,-0.175,1.247,-0.074
1.27,-0.042,0.787,0.062
1.28,-0.209,0.987,0.174
1.29,-0.215,0.821,-0.084
1.3,-0.3,1.188,-0.157
1.31,-0.112,1.013,0.068
1.32,-0.124,0.928,0.142
1.33,-0.217,0.868,0.037
1.34,-0.393,0.98,-0.132
1.35,-0.178,1.241,-0.055
1.36,-0.155,0.683,0.122
1.37,-0.149,1.121,0.158
1.38,-0.324,0.79,-0.147
1.39,-0.356,1.11,-0.117
1.4,-0.023,1.053,0.035
1.41,-0.123,0.772,0.141
1.42,-0.289,1.004,0.04
1.43,-0.317,0.936,-0.189
1.44,-0.147,1.159,-0.008
1.45,-0.149,0.74,0.187
1.46,-0.198,1.04,0.096
1.47,-0.307,0.854,-0.216
1.48,-0.243,1.127,-0.031
1.49,-0.042,1.023,0.071
1.5,-0.182,0.687,0.143
1.51,-0.28,1.073,-0.006
1.52,-0.173,0.672,0.019
1.53,-0.434,1.07,-0.133
1.54,-0.096,1.15,-0.093
1.55,-0.163,0.835,0.088
1.56,-0.158,0.987,0.194
1.57,-0.265,0.793,-0.143
1.58,-0.312,1.193,-0.155
1.59,-0.122,0.923,0.126
1.6,-0.12,1.016,0.097
1.61,-0.224,0.767,-0.013
1.62,-0.399,1.1,-0.125
1.63,-0.104,1.129,-0.034
1.64,-0.182,0.77,0.141
1.65,-0.069,1.06,0.1
1.66,-0.378,0.769,-0.166
1.67,-0.297,1.217,-0.034
1.68,-0.042,0.941,0.097
1.69,-0.182,0.909,0.147
1.7,-0.241,0.905,-0.023
1.71,-0.372,0.987,-0.163
1.72,-0.181,1.153,-0.005
1.73,-0.015,0.803,0.164
1.74,-0.177,1.024,0.038
1.75,-0.395,0.807,-0.124
1.76,-0.077,1.237,-0.112
1.77,-0.195,0.836,0.097
1.78,-0.153,0.888,0.229
1.79,-0.275,1.004,-0.15
1.8,-0.342,0.84,-0.169
1.81,-0.038,1.309,0.084
1.82,-0.09,0.721,0.087
1.83,-0.242,1.031,0.046
1.84,-0.318,0.934,-0.18
1.85,-0.162,1.168,-0.078
1.86,-0.14,0.8,0.139
1.87,-0.053,0.875,0.152
1.88,-0.406,1.046,-0.124
1.89,-0.301,0.824,-0.112
1.9,-0.019,1.307,0.055
1.91,-0.16,0.612,0.12
1.92,-0.259,1.054,0.011
1.93,-0.281,0.997,-0.243
1.94,-0.136,0.984,-0.027
1.95,-0.185,0.948,0.239
1.96,-0.084,0.771,0.091
1.97,-0.519,1.104,-0.181
1.98,-0.161,0.896,-0.017
1.99,-0.096,1.292,0.015
2.0,-0.184,0.604,0.137
2.01,-0.228,1.076,-0.039
2.02,-0.333,1.01,-0.224
2.03,-0.12,0.985,0.012
2.04,-0.032,0.836,0.1
2.05,-0.148,0.812,0.019
2.06,-0.4,1.167,-0.118
2.07,-0.203,0.875,-0.073
2.08,-0.208,1.068,0.133
2.09,-0.107,0.731,0.161
2.1,-0.423,1.105,-0.154
2.11,-0.233,0.795,-0.112
2.12,-0.106,1.273,0.104
2.13,-0.153,0.822,0.118
2.14,-0.245,0.797,0.086
2.15,-0.354,1.25,-0.23
2.16,-0.102,0.803,-0.065
2.17,-0.181,1.185,0.206
2.18,-0.115,0.684,0.074
2.19,-0.431,1.096,-0.208
2.2,-0.117,0.999,-0.09
2.21,-0.088,1.125,0.096
2.22,-0.204,0.812,0.142
2.23,-0.117,0.834,-0.024
2.24,-0.467,1.272,-0.191
2.25,-0.172,0.749,0.04
2.26,-0.082,1.227,0.09
2.27,-0.195,0.661,0.095
2.28,-0.421,1.112,-0.165
2.29,-0.088,1.039,-0.099
2.3,-0.151,0.969,0.11
2.31,-0.106,0.921,0.197
2.32,-0.28,0.782,-0.104
2.33,-0.354,1.189,-0.184
2.34,-0.089,0.885,0.069
2.35,-0.139,1.168,0.128
2.36,-0.13,0.659,0.027
2.37,-0.43,1.168,-0.165
2.38,-0.173,1.042,-0.042
2.39,-0.169,0.912,0.112
2.4,-0.123,0.975,0.154
2.41,-0.29,0.735,-0.151
2.42,-0.215,1.206,-0.162
2.43,-0.065,0.986,0.088
2.44,-0.232,0.994,0.168
2.45,-0.24,0.726,0.031
2.46,-0.397,1.167,-0.209
2.47,-0.093,1.073,-0.037
2.48,-0.198,0.852,0.165
2.49,-0.132,1.008,0.112
2.5,-0.293,0.742,-0.171
2.51,-0.206,1.261,-0.096
2.52,-0.1,0.933,0.1
2.53,-0.167,0.935,0.153
2.54,-0.243,0.8,0.038
2.55,-0.377,1.074,-0.167
2.56,-0.075,1.105,-0.007
2.57,-0.185,0.792,0.19
2.58,-0.151,1.07,0.093
2.59,-0.323,0.773,-0.198
2.6,-0.28,1.249,-0.019
2.61,-0.037,0.894,0.089
2.62,-0.152,0.861,0.08
2.63,-0.302,0.953,-0.019
2.64,-0.304,0.986,-0.199
2.65,-0.114,1.138,0.002
2.66,-0.09,0.776,0.138
2.67,-0.184,1.022,0.02
2.68,-0.406,0.857,-0.154
2.69,-0.153,1.193,-0.074
2.7,-0.117,0.844,0.073
2.71,-0.155,0.865,0.221
2.72,-0.351,1.003,-0.154
2.73,-0.317,0.84,-0.145
2.74,-0.067,1.314,0.061
2.75,-0.117,0.652,0.123
2.76,-0.277,1.045,0.036
2.77,-0.287,0.941,-0.202
2.78,-0.184,1.031,-0.041
2.79,-0.157,0.868,0.181
2.8,-0.058,0.842,0.14
2.81,-0.439,1.085,-0.175
2.82,-0.24,0.819,-0.076
2.83,-0.09,1.35,0.07
2.84,-0.072,0.614,0.112
2.85,-0.26,1.12,-0.021
2.86,-0.302,0.892,-0.191
2.87,-0.238,1.161,0.064
2.88,-0.076,0.862,0.186
2.89,-0.134,0.872,0.059
2.9,-0.432,1.068,-0.192
2.91,-0.019,0.955,-0.119
2.92,-0.186,1.132,0.068
2.93,-0.136,0.64,0.216
2.94,-0.32,1.172,-0.088
2.95,-0.319,0.777,-0.185
2.96,-0.175,1.198,0.113
2.97,-0.062,0.912,0.092
2.98,-0.177,0.802,0.038
2.99,-0.442,1.177,-0.169
3.0,-0.078,0.892,-0.08
3.01,-0.171,1.109,0.079
3.02,-0.053,0.689,0.186
3.03,-0.363,1.172,-0.16
3.04,-0.284,0.802,-0.183
3.05,0.012,1.216,0.068
3.06,-0.135,0.883,0.116
3.07,-0.285,0.781,0.063
3.08,-0.426,1.281,-0.183
3.09,-0.122,0.802,-0.02
3.1,-0.209,1.175,0.17
3.11,-0.069,0.712,0.123
3.12,-0.421,1.082,-0.224
3.13,-0.21,0.952,-0.081
3.14,-0.112,1.147,0.106
3.15,-0.153,0.841,0.122
3.16,-0.271,0.775,0.007
3.17,-0.387,1.271,-0.228
3.18,-0.061,0.789,0.011
3.19,-0.178,1.186,0.146
3.2,-0.069,0.693,0.106
3.21,-0.434,1.133,-0.211
3.22,-0.114,1.023,-0.078
3.23,-0.126,0.992,0.088
3.24,-0.164,0.927,0.167
3.25,-0.281,0.785,-0.046
3.26,-0.401,1.232,-0.164
3.27,-0.215,0.837,0.14
3.28,-0.196,1.156,0.165
3.29,-0.097,0.656,0.006
3.3,-0.47,1.145,-0.174
3.31,-0.014,1.073,-0.119
3.32,-0.145,0.875,0.091
3.33,-0.147,0.99,0.168
3.34,-0.298,0.759,-0.173
3.35,-0.351,1.201,-0.159
3.36,-0.026,0.948,0.1
3.37,-0.153,1.028,0.123
3.38,-0.279,0.741,0.046
3.39,-0.391,1.092,-0.196
3.4,-0.036,1.119,-0.056
3.41,-0.174,0.811,0.147
3.42,-0.114,1.059,0.127
3.43,-0.33,0.718,-0.213
3.44,-0.32,1.272,-0.021
3.45,-0.0,0.957,0.086
3.46,-0.203,0.903,0.104
3.47,-0.249,0.854,0.045
3.48,-0.301,1.071,-0.242
3.49,-0.13,1.091,-0.035
3.5,-0.08,0.783,0.167
3.51,-0.182,1.056,0.032
3.52,-0.393,0.745,-0.165
3.53,-0.146,1.281,-0.074
3.54,-0.076,0.851,0.104
3.55,-0.25,0.868,0.164
3.56,-0.191,0.97,-0.089
3.57,-0.36,0.939,-0.17
3.58,-0.156,1.213,0.102
3.59,-0.016,0.755,0.134
3.6,-0.273,1.013,0.002
3.61,-0.314,0.908,-0.159
3.62,-0.211,1.207,-0.069
3.63,-0.178,0.782,0.135
3.64,-0.136,0.89,0.191
3.65,-0.335,1.048,-0.163
3.66,-0.292,0.982,-0.088
3.67,-0.011,1.211,0.087
3.68,-0.209,0.646,0.128
3.69,-0.287,1.081,0.006
3.7,-0.32,0.905,-0.185
3.71,-0.19,1.196,0.019
3.72,-0.156,0.791,0.186
3.73,-0.119,0.908,0.055
3.74,-0.363,0.958,-0.188
3.75,-0.189,0.979,-0.042
3.76,-0.105,1.146,0.073
3.77,-0.155,0.614,0.13
3.78,-0.31,1.12,-0.028
3.79,-0.285,0.865,-0.222
3.8,-0.105,1.146,0.022
3.81,-0.106,0.88,0.189
3.82,-0.168,0.883,0.051
3.83,-0.404,1.077,-0.227
3.84,-0.063,0.948,-0.035
3.85,-0.161,1.168,0.092
3.86,-0.157,0.632,0.128
3.87,-0.298,1.185,-0.117
3.88,-0.295,0.832,-0.173
3.89,-0.156,1.155,0.118
3.9,-0.039,0.909,0.098
3.91,-0.258,0.788,0.024
3.92,-0.467,1.184,-0.163
3.93,-0.084,0.879,-0.046
3.94,-0.272,1.15,0.124
3.95,0.022,0.663,0.154
3.96,-0.492,1.131,-0.146
3.97,-0.238,0.852,-0.092
3.98,-0.006,1.192,0.067
3.99,-0.236,0.849,0.161
4.0,-0.23,0.761,0.017
4.01,-0.351,1.293,-0.214
4.02,-0.158,0.761,-0.024
4.03,-0.19,1.161,0.182
4.04,-0.063,0.691,0.117
4.05,-0.51,1.096,-0.199
4.06,-0.153,0.971,-0.035
4.07,-0.081,1.109,0.064
4.08,-0.142,0.836,0.107
4.09,-0.186,0.774,-0.03
4.1,-0.366,1.277,-0.226
4.11,-0.137,0.846,0.044
4.12,-0.094,1.185,0.126
4.13,-0.125,0.649,0.012
4.14,-0.477,1.159,-0.161
4.15,-0.017,1.074,-0.104
4.16,-0.216,0.918,0.11
4.17,-0.125,0.974,0.164
4.18,-0.23,0.8,-0.131
4.19,-0.417,1.175,-0.161
4.2,-0.037,0.895,0.157
4.21,-0.089,1.149,0.119
4.22,-0.258,0.685,0.033
4.23,-0.42,1.145,-0.12
4.24,-0.181,1.091,-0.098
4.25,-0.205,0.793,0.13
4.26,-0.069,1.073,0.121
4.27,-0.356,0.749,-0.181
4.28,-0.29,1.24,-0.066
4.29,-0.006,0.937,0.034
4.3,-0.139,0.889,0.128
4.31,-0.188,0.844,0.052
4.32,-0.373,1.137,-0.292
4.33,-0.103,0.994,-0.017
4.34,-0.073,0.88,0.21
4.35,-0.196,1.032,0.029
4.36,-0.369,0.736,-0.182
4.37,-0.181,1.318,-0.03
4.38,-0.038,0.849,0.069
4.39,-0.236,0.835,0.168
4.4,-0.236,0.941,-0.008
4.41,-0.333,1.007,-0.235
4.42,-0.12,1.151,0.032
4.43,-0.069,0.805,0.131
4.44,-0.213,1.012,0.027
4.45,-0.348,0.852,-0.165
4.46,-0.189,1.291,-0.076
4.47,-0.103,0.678,0.153
4.48,-0.193,1.047,0.197
4.49,-0.331,0.867,-0.16
4.5,-0.231,0.998,-0.167
4.51,-0.067,1.162,0.1
4.52,-0.063,0.724,0.108
4.53,-0.307,1.067,0.021
4.54,-0.315,0.87,-0.204
4.55,-0.136,1.216,-0.007
4.56,-0.135,0.771,0.147
4.57,-0.156,0.954,0.072
4.58,-0.288,0.909,-0.165
4.59,-0.305,1.057,-0.061
4.6,0.012,1.097,0.058
4.61,-0.077,0.639,0.123
4.62,-0.367,1.108,-0.021
4.63,-0.304,0.85,-0.215
4.64,-0.127,1.23,0.036
4.65,-0.102,0.848,0.174
4.66,-0.162,0.845,-0.016
4.67,-0.393,1.027,-0.169
4.68,-0.09,1.054,-0.055
4.69,-0.141,1.062,0.115
4.7,-0.144,0.622,0.16
4.71,-0.295,1.216,-0.129
4.72,-0.286,0.825,-0.193
4.73,-0.168,1.199,0.116
4.74,-0.06,0.837,0.114
4.75,-0.204,0.8,0.0
4.76,-0.415,1.124,-0.159
4.77,-0.052,0.979,-0.083
4.78,-0.168,1.073,0.093
4.79,-0.042,0.731,0.177
4.8,-0.452,1.174,-0.181
4.81,-0.217,0.769,-0.157
4.82,-0.079,1.265,0.151
4.83,-0.17,0.826,0.16
4.84,-0.329,0.829,0.021
4.85,-0.33,1.206,-0.198
4.86,-0.07,0.842,-0.038
4.87,-0.249,1.142,0.217
4.88,-0.035,0.676,0.048
4.89,-0.455,1.174,-0.224
4.9,-0.141,0.952,-0.028
4.91,-0.148,1.116,0.117
4.92,-0.161,0.816,0.11
4.93,-0.228,0.829,-0.034
4.94,-0.391,1.207,-0.167
4.95,-0.166,0.834,0.111
4.96,-0.094,1.181,0.141
4.97,-0.16,0.598,0.021
4.98,-0.436,1.221,-0.154
4.99,-0.131,1.007,-0.078
5.0,-0.182,0.923,0.12
5.01,-0.116,0.98,0.187
5.02,-0.363,0.777,-0.127
5.03,-0.301,1.199,-0.063
5.04,-0.034,0.918,0.113
5.05,-0.186,0.996,0.114
5.06,-0.233,0.725,0.017
5.07,-0.366,1.195,-0.232
5.08,-0.062,0.959,-0.079
5.09,-0.21,0.954,0.216
5.1,-0.105,0.971,0.081
5.11,-0.377,0.782,-0.165
5.12,-0.242,1.333,-0.047
5.13,-0.026,0.91,0.024
5.14,-0.195,0.9,0.107
5.15,-0.163,0.8,0.011
5.16,-0.447,1.25,-0.225
5.17,-0.087,0.93,-0.054
5.18,-0.075,0.942,0.215
5.19,-0.211,0.981,0.058
5.2,-0.358,0.778,-0.145
5.21,-0.187,1.385,-0.043
5.22,-0.13,0.749,0.081
5.23,-0.182,0.92,0.193
5.24,-0.219,0.914,-0.041
5.25,-0.414,1.016,-0.194
5.26,-0.095,1.075,0.05
5.27,-0.057,0.872,0.132
5.28,-0.299,0.872,0.016
5.29,-0.357,0.941,-0.126
5.3,-0.148,1.266,-0.05
5.31,-0.22,0.663,0.168
5.32,-0.025,1.073,0.097
5.33,-0.363,0.823,-0.165
5.34,-0.284,1.075,-0.121
5.35,0.009,1.11,0.078
5.36,-0.114,0.759,0.133
5.37,-0.35,1.012,0.024
5.38,-0.306,0.938,-0.194
5.39,-0.155,1.209,-0.05
5.4,-0.187,0.765,0.191
5.41,-0.139,1.01,0.059
5.42,-0.367,0.882,-0.197
5.43,-0.122,1.122,-0.1
5.44,-0.129,1.07,0.059
5.45,-0.191,0.651,0.151
5.46,-0.207,1.126,-0.043
5.47,-0.358,0.874,-0.204
5.48,-0.114,1.142,0.014
5.49,-0.128,0.856,0.177
5.5,-0.137,0.931,0.028
5.51,-0.415,0.939,-0.18
5.52,-0.151,1.094,-0.077
5.53,-0.105,1.018,0.029
5.54,-0.058,0.646,0.2
5.55,-0.299,1.221,-0.067
5.56,-0.307,0.799,-0.204
5.57,-0.207,1.168,0.102
5.58,-0.083,0.791,0.097
5.59,-0.198,0.895,0.0
5.6,-0.382,1.098,-0.186
5.61,-0.172,0.981,-0.043
5.62,-0.205,1.004,0.081
5.63,-0.027,0.735,0.19
5.64,-0.432,1.151,-0.135
5.65,-0.259,0.717,-0.143
5.66,0.004,1.299,0.069
5.67,-0.127,0.793,0.095
5.68,-0.289,0.879,0.042
5.69,-0.356,1.165,-0.194
5.7,-0.156,0.84,-0.022
5.71,-0.192,1.117,0.186
5.72,-0.13,0.701,0.121
5.73,-0.459,1.102,-0.187
5.74,-0.223,0.902,-0.028
5.75,-0.076,1.207,0.062
5.76,-0.132,0.724,0.163
5.77,-0.295,0.899,0.022
5.78,-0.358,1.201,-0.226
5.79,-0.115,0.815,-0.016
5.8,-0.129,1.203,0.155
5.81,-0.1,0.642,0.095
5.82,-0.476,1.213,-0.175
5.83,-0.107,0.96,-0.074
5.84,-0.137,1.037,0.091
5.85,-0.156,0.825,0.218
5.86,-0.275,0.881,-0.096
5.87,-0.275,1.147,-0.198
5.88,-0.108,0.9,0.141
5.89,-0.188,1.146,0.119
5.9,-0.055,0.628,0.037
5.91,-0.432,1.268,-0.159
5.92,-0.253,1.01,-0.066
5.93,-0.155,0.928,0.096
5.94,-0.089,0.912,0.152
5.95,-0.344,0.818,-0.152
5.96,-0.203,1.176,-0.133
5.97,-0.097,0.942,0.127
5.98,-0.221,1.043,0.143
5.99,-0.085,0.667,0.029
6.0,-0.387,1.292,-0.206
6.01,-0.21,0.949,-0.038
6.02,-0.151,0.883,0.125
6.03,-0.065,1.029,0.155
6.04,-0.415,0.804,-0.168
6.05,-0.213,1.203,-0.137
6.06,-0.111,0.899,0.111
6.07,-0.121,0.982,0.107
6.08,-0.128,0.757,0.015
6.09,-0.359,1.328,-0.201
6.1,-0.097,0.823,-0.005
6.11,-0.167,1.009,0.153
6.12,-0.164,0.888,0.092
6.13,-0.412,0.863,-0.176
6.14,-0.129,1.252,-0.035
6.15,-0.085,0.862,0.048
6.16,-0.147,0.963,0.116
6.17,-0.165,0.792,-0.061
6.18,-0.373,1.222,-0.23
6.19,-0.066,0.89,0.022
6.2,-0.123,0.988,0.175
6.21,-0.216,0.894,0.051
6.22,-0.409,0.906,-0.194
6.23,-0.084,1.248,-0.116
6.24,-0.063,0.742,0.083
6.25,-0.212,1.046,0.225
6.26,-0.207,0.801,-0.137
6.27,-0.325,1.073,-0.185
6.28,-0.132,1.019,0.1
6.29,-0.077,0.899,0.109
6.3,-0.213,0.952,0.013
6.31,-0.345,0.919,-0.158
6.32,-0.201,1.282,-0.055
6.33,-0.198,0.687,0.103
6.34,-0.128,1.028,0.121
6.35,-0.303,0.878,-0.143
6.36,-0.338,1.066,-0.122
6.37,-0.041,1.074,0.058
6.38,-0.126,0.734,0.104
6.39,-0.309,1.015,0.053
6.4,-0.349,0.931,-0.179
6.41,-0.132,1.201,-0.037
6.42,-0.162,0.787,0.191
6.43,-0.079,1.0,0.088
6.44,-0.351,0.894,-0.146
6.45,-0.281,1.023,-0.068
6.46,-0.027,1.149,0.06
6.47,-0.125,0.673,0.143
6.48,-0.285,1.118,-0.015
6.49,-0.356,0.88,-0.191
6.5,-0.131,1.124,-0.041
6.51,-0.098,0.861,0.163
6.52,-0.167,0.925,0.084
6.53,-0.384,0.982,-0.196
6.54,-0.141,1.04,-0.041
6.55,-0.148,1.115,0.084
6.56,-0.044,0.597,0.147
6.57,-0.387,1.184,-0.045
6.58,-0.297,0.845,-0.203
6.59,-0.209,1.153,0.075
6.6,-0.082,0.869,0.133
6.61,-0.11,0.878,0.049
6.62,-0.406,1.096,-0.168
6.63,-0.091,0.949,-0.103
6.64,-0.18,1.114,0.086
6.65,-0.121,0.635,0.207
6.66,-0.393,1.167,-0.108
6.67,-0.195,0.734,-0.241
6.68,-0.15,1.23,0.122
6.69,-0.165,0.831,0.132
6.7,-0.215,0.813,0.086
6.71,-0.382,1.212,-0.151
6.72,-0.191,0.843,-0.051
6.73,-0.217,1.161,0.144
6.74,-0.046,0.684,0.133
6.75,-0.412,1.074,-0.152
6.76,-0.245,0.836,-0.163
6.77,-0.088,1.215,0.078
6.78,-0.115,0.832,0.123
6.79,-0.221,0.807,0.067
6.8,-0.424,1.25,-0.19
6.81,-0.077,0.822,-0.044
6.82,-0.225,1.183,0.163
6.83,-0.118,0.676,0.129
6.84,-0.356,1.116,-0.182
6.85,-0.239,0.951,-0.089
6.86,-0.08,1.14,0.083
6.87,-0.121,0.813,0.134
6.88,-0.259,0.777,0.039
6.89,-0.366,1.293,-0.241
6.9,-0.116,0.817,-0.009
6.91,-0.087,1.21,0.109
6.92,-0.135,0.624,0.055
6.93,-0.484,1.211,-0.136
6.94,-0.047,0.974,-0.102
6.95,-0.176,1.035,0.051
6.96,-0.098,0.776,0.242
6.97,-0.249,0.92,-0.11
6.98,-0.359,1.071,-0.224
6.99,-0.085,0.97,0.135
7.0,-0.178,1.128,0.065
7.01,-0.131,0.595,0.055
7.02,-0.382,1.316,-0.157
7.03,-0.164,0.927,-0.107
7.04,-0.194,0.961,0.136
7.05,-0.119,0.929,0.244
7.06,-0.331,0.86,-0.138
7.07,-0.322,1.051,-0.156
7.08,0.001,1.006,0.107
7.09,-0.272,1.115,0.077
7.1,-0.125,0.604,0.044
7.11,-0.439,1.323,-0.172
7.12,-0.194,0.933,-0.066
7.13,-0.183,0.904,0.152
7.14,-0.066,0.964,0.138
7.15,-0.403,0.789,-0.157
7.16,-0.296,1.116,-0.108
7.17,0.081,0.954,0.056
7.18,-0.157,1.03,0.106
7.19,-0.21,0.699,0.038
7.2,-0.326,1.265,-0.236
7.21,-0.114,0.929,-0.048
7.22,-0.208,0.952,0.241
7.23,-0.135,0.973,0.084
7.24,-0.389,0.784,-0.206
7.25,-0.251,1.272,0.041
7.26,-0.12,0.855,0.074
7.27,-0.155,0.952,0.13
7.28,-0.235,0.777,0.025
7.29,-0.35,1.136,-0.21
7.3,-0.143,1.007,-0.033
7.31,-0.055,0.898,0.143
7.32,-0.149,0.994,0.103
7.33,-0.407,0.808,-0.159
7.34,-0.115,1.27,-0.135
7.35,-0.133,0.778,0.098
7.36,-0.206,0.96,0.207
7.37,-0.243,0.89,-0.098
7.38,-0.314,1.008,-0.177
7.39,-0.213,1.108,0.088
7.4,-0.089,0.89,0.148
7.41,-0.196,0.986,0.055
7.42,-0.334,0.824,-0.166
7.43,-0.162,1.303,-0.106
7.44,-0.073,0.749,0.05
7.45,-0.171,0.948,0.216
7.46,-0.29,0.952,-0.07
7.47,-0.34,0.925,-0.162
7.48,-0.099,1.147,0.047
7.49,-0.104,0.854,0.136
7.5,-0.201,0.98,0.019
7.51,-0.356,0.808,-0.122
7.52,-0.127,1.302,-0.099
7.53,-0.117,0.754,0.092
7.54,-0.237,0.915,0.259
7.55,-0.279,1.003,-0.141
7.56,-0.319,0.866,-0.186
7.57,-0.079,1.257,0.139
7.58,-0.083,0.756,0.078
7.59,-0.274,0.99,0.021
7.6,-0.294,0.925,-0.161
7.61,-0.172,1.196,-0.117
7.62,-0.191,0.736,0.13
7.63,-0.037,0.945,0.136
7.64,-0.441,1.039,-0.15
7.65,-0.281,0.766,-0.119
7.66,-0.01,1.355,0.066
7.67,-0.171,0.623,0.123
7.68,-0.315,1.055,0.08
7.69,-0.257,0.935,-0.23
7.7,-0.181,1.092,-0.037
7.71,-0.135,0.824,0.234
7.72,-0.105,0.957,0.045
7.73,-0.385,0.932,-0.182
7.74,-0.223,1.01,0.003
7.75,-0.156,1.171,0.073
7.76,-0.073,0.603,0.154
7.77,-0.343,1.165,0.026
7.78,-0.3,0.858,-0.223
7.79,-0.262,1.132,0.004
7.8,-0.09,0.859,0.156
7.81,-0.149,0.893,0.089
7.82,-0.34,1.002,-0.19
7.83,-0.155,0.99,-0.029
7.84,-0.113,1.177,0.068
7.85,-0.182,0.59,0.165
7.86,-0.287,1.199,-0.027
7.87,-0.333,0.876,-0.231
7.88,-0.217,1.021,0.062
7.89,-0.004,0.988,0.148
7.9,-0.232,0.856,0.085
7.91,-0.45,1.084,-0.154
7.92,-0.037,0.956,-0.063
7.93,-0.243,1.199,0.032
7.94,-0.129,0.61,0.207
7.95,-0.295,1.147,-0.078
7.96,-0.302,0.797,-0.196
7.97,-0.193,1.132,0.12
7.98,-0.062,0.996,0.119
7.99,-0.155,0.729,0.017
8.0,-0.387,1.195,-0.125
8.01,-0.162,0.938,-0.106
8.02,-0.146,1.076,0.077
8.03,-0.135,0.692,0.195
8.04,-0.327,1.143,-0.128
8.05,-0.285,0.85,-0.193
8.06,-0.067,1.127,0.098
8.07,-0.048,0.961,0.103
8.08,-0.259,0.716,0.035
8.09,-0.372,1.259,-0.169
8.1,-0.017,0.915,-0.122
8.11,-0.229,1.1,0.103
8.12,-0.155,0.719,0.18
8.13,-0.332,1.102,-0.19
8.14,-0.302,0.891,-0.161
8.15,-0.059,1.154,0.122
8.16,-0.134,0.967,0.092
8.17,-0.267,0.654,0.006
8.18,-0.311,1.324,-0.131
8.19,-0.163,0.889,-0.055
8.2,-0.272,1.021,0.127
8.21,0.04,0.76,0.109
8.22,-0.425,1.074,-0.195
8.23,-0.348,0.909,-0.106
8.24,0.037,1.065,0.081
8.25,-0.16,1.013,0.1
8.26,-0.315,0.679,0.068
8.27,-0.292,1.319,-0.234
8.28,-0.141,0.82,-0.044
8.29,-0.26,1.074,0.231
8.3,-0.023,0.745,0.132
8.31,-0.539,0.996,-0.186
8.32,-0.179,1.118,-0.021
8.33,-0.065,0.997,0.043
8.34,-0.224,0.934,0.178
8.35,-0.233,0.706,0.024
8.36,-0.323,1.375,-0.25
8.37,-0.12,0.785,-0.026
8.38,-0.199,1.112,0.187
8.39,-0.02,0.779,0.088
8.4,-0.53,0.947,-0.165
8.41,-0.203,1.134,-0.055
8.42,-0.068,0.919,0.041
8.43,-0.218,0.977,0.157
8.44,-0.282,0.723,-0.012
8.45,-0.356,1.273,-0.234
8.46,-0.099,0.841,-0.003
8.47,-0.105,1.106,0.204
8.48,-0.127,0.823,0.011
8.49,-0.459,0.888,-0.133
8.5,-0.184,1.292,-0.025
8.51,-0.093,0.832,0.048
8.52,-0.144,0.934,0.148
8.53,-0.237,0.838,-0.098
8.54,-0.412,1.21,-0.14
8.55,-0.147,0.823,0.096
8.56,0.008,1.117,0.113
8.57,-0.252,0.717,0.029
8.58,-0.417,1.066,-0.096
8.59,-0.104,1.154,-0.089
8.6,-0.179,0.76,0.093
8.61,-0.13,1.082,0.214
8.62,-0.295,0.801,-0.187
8.63,-0.348,1.187,-0.101
8.64,-0.079,0.953,0.123
8.65,-0.062,0.99,0.091
8.66,-0.284,0.779,0.025
8.67,-0.316,1.085,-0.146
8.68,-0.194,1.165,-0.018
8.69,-0.174,0.742,0.11
8.7,-0.122,1.096,0.171
8.71,-0.357,0.799,-0.213
8.72,-0.31,1.19,-0.036
8.73,-0.029,0.946,0.072
8.74,-0.131,0.883,0.126
8.75,-0.262,0.888,0.016
8.76,-0.361,1.052,-0.168
8.77,-0.175,1.117,-0.04
8.78,-0.12,0.76,0.171
8.79,-0.145,1.086,0.048
8.8,-0.374,0.748,-0.2
8.81,-0.229,1.187,-0.067
8.82,0.021,0.976,0.065
8.83,-0.228,0.791,0.146
8.84,-0.233,0.955,-0.033
8.85,-0.318,0.979,-0.225
8.86,-0.11,1.151,0.034
8.87,-0.08,0.751,0.199
8.88,-0.233,1.06,-0.006
8.89,-0.361,0.823,-0.224
8.9,-0.114,1.179,-0.04
8.91,-0.151,0.935,0.116
8.92,-0.211,0.757,0.164
8.93,-0.178,1.135,-0.112
8.94,-0.327,0.897,-0.212
8.95,-0.181,1.153,0.153
8.96,-0.025,0.727,0.175
8.97,-0.428,1.006,-0.006
8.98,-0.307,0.884,-0.179
8.99,-0.128,1.126,-0.053
9.0,-0.257,0.88,0.171
9.01,-0.055,0.782,0.166
9.02,-0.358,1.157,-0.186
9.03,-0.313,0.801,-0.087
9.04,-0.002,1.28,0.054
9.05,-0.069,0.66,0.115
9.06,-0.361,1.021,0.036
9.07,-0.228,0.959,-0.22
9.08,-0.197,1.026,-0.008
9.09,-0.19,0.986,0.174
9.1,0.008,0.693,0.1
9.11,-0.596,1.235,-0.136
9.12,-0.176,0.798,-0.091
9.13,-0.024,1.249,0.025
9.14,-0.176,0.715,0.141
9.15,-0.291,0.975,-0.038
9.16,-0.253,0.99,-0.226
9.17,-0.147,1.02,0.021
9.18,-0.135,1.049,0.162
9.19,-0.07,0.664,0.047
9.2,-0.515,1.278,-0.173
9.21,-0.043,0.875,-0.078
9.22,-0.14,1.154,0.042
9.23,-0.139,0.731,0.178
9.24,-0.355,1.047,-0.089
9.25,-0.323,0.995,-0.195
9.26,-0.125,0.968,0.103
9.27,-0.014,1.125,0.083
9.28,-0.172,0.612,0.011
9.29,-0.492,1.3,-0.131
9.3,-0.088,0.88,-0.095
9.31,-0.207,1.027,0.106
9.32,-0.103,0.808,0.213
9.33,-0.429,1.092,-0.216
9.34,-0.25,0.976,-0.039
9.35,-0.041,1.123,0.062
9.36,-0.168,0.853,0.149
9.37,-0.262,0.783,0.065
9.38,-0.411,1.317,-0.204
9.39,-0.205,0.776,0.024
9.4,-0.15,1.243,0.135
9.41,-0.048,0.662,0.106
9.42,-0.532,1.083,-0.16
9.43,-0.042,1.04,-0.114
9.44,-0.118,0.975,0.095
9.45,-0.196,0.985,0.163
9.46,-0.184,0.726,-0.109
9.47,-0.397,1.211,-0.23
9.48,-0.103,0.871,0.107
9.49,-0.143,1.224,0.114
9.5,-0.202,0.623,0.08
9.51,-0.372,1.081,-0.163
9.52,-0.035,1.142,-0.135
9.53,-0.139,0.834,0.118
9.54,-0.122,1.024,0.128
9.55,-0.308,0.764,-0.117
9.56,-0.367,1.215,-0.153
9.57,-0.067,0.912,0.102
9.58,-0.192,1.093,0.142
9.59,-0.195,0.749,0.052
9.6,-0.362,1.054,-0.183
9.61,-0.091,1.178,-0.091
9.62,-0.149,0.759,0.171
9.63,-0.158,1.048,0.16
9.64,-0.314,0.802,-0.166
9.65,-0.358,1.192,-0.076
9.66,-0.086,0.913,0.114
9.67,-0.205,0.968,0.134
9.68,-0.206,0.806,-0.026
9.69,-0.334,1.074,-0.177
9.7,-0.115,1.136,-0.009
9.71,-0.188,0.719,0.126
9.72,-0.105,1.077,0.104
9.73,-0.395,0.76,-0.214
9.74,-0.251,1.16,-0.093
9.75,0.074,0.933,0.031
9.76,-0.149,0.848,0.113
9.77,-0.362,0.928,0.031
9.78,-0.312,0.984,-0.215
9.79,-0.104,1.161,-0.01
9.8,-0.093,0.709,0.162
9.81,-0.163,1.073,0.045
9.82,-0.393,0.876,-0.189
9.83,-0.154,1.134,-0.057
9.84,-0.073,0.875,0.102
9.85,-0.213,0.887,0.186
9.86,-0.113,1.151,-0.016
9.87,-0.109,0.825,0.14
9.88,-0.157,0.953,0.092
9.89,-0.325,0.997,-0.163
9.9,-0.26,0.989,-0.071
9.91,-0.077,1.143,0.084
9.92,-0.099,0.662,0.124
9.93,-0.369,1.12,-0.016
9.94,-0.313,0.848,-0.216
9.95,-0.102,1.122,0.003
9.96,-0.134,0.852,0.165
9.97,-0.139,0.876,0.023
9.98,-0.377,1.096,-0.201
9.99,-0.124,0.964,-0.049
10.0,-0.133,1.082,0.063
10.01,-0.164,0.68,0.177
10.02,-0.357,1.172,-0.085
10.03,-0.263,0.836,-0.211
10.04,-0.144,1.194,0.142
10.05,-0.097,0.867,0.144
10.06,-0.184,0.837,-0.029
10.07,-0.421,1.197,-0.151
10.08,-0.088,0.963,-0.08
10.09,-0.213,1.046,0.212
10.1,-0.072,0.71,0.089
10.11,-0.462,1.181,-0.193
10.12,-0.233,0.876,0.017
10.13,-0.119,1.208,0.085
10.14,-0.156,0.674,0.147
10.15,-0.236,0.994,-0.073
10.16,-0.336,1.015,-0.234
10.17,-0.123,0.931,0.036
10.18,-0.092,1.148,0.132
10.19,-0.13,0.657,0.065
10.2,-0.482,1.232,-0.184
10.21,-0.105,0.903,-0.079
10.22,-0.144,1.145,0.037
10.23,-0.163,0.792,0.189
10.24,-0.303,0.951,-0.13
10.25,-0.312,1.045,-0.199
10.26,-0.081,0.998,0.111
10.27,-0.11,1.09,0.091
10.28,-0.198,0.586,0.035
10.29,-0.443,1.312,-0.132
10.3,-0.166,0.898,-0.055
10.31,-0.221,0.991,0.14
10.32,-0.016,0.859,0.122
10.33,-0.356,0.917,-0.184
10.34,-0.359,1.104,-0.081
10.35,0.003,0.965,0.088
10.36,-0.134,1.044,0.092
10.37,-0.239,0.667,0.064
10.38,-0.369,1.342,-0.204
10.39,-0.109,0.815,-0.037
10.4,-0.215,1.05,0.196
10.41,-0.062,0.902,0.048
10.42,-0.404,0.877,-0.183
10.43,-0.156,1.268,-0.067
10.44,-0.086,0.906,0.025
10.45,-0.144,0.972,0.144
10.46,-0.146,0.749,-0.046
10.47,-0.426,1.264,-0.217
10.48,-0.19,0.913,0.084
10.49,-0.144,1.03,0.137
10.5,-0.116,0.851,0.008
10.51,-0.413,0.915,-0.145
10.52,-0.156,1.294,-0.078
10.53,-0.083,0.726,0.05
10.54,-0.177,1.041,0.182
10.55,-0.293,0.768,-0.079
10.56,-0.301,1.074,-0.204
10.57,-0.071,1.067,0.108
10.58,-0.109,0.886,0.142
10.59,-0.273,0.93,0.044
10.6,-0.342,0.956,-0.181
10.61,-0.205,1.235,-0.05
10.62,-0.143,0.713,0.164
10.63,-0.094,1.085,0.181
10.64,-0.35,0.788,-0.164
10.65,-0.308,1.069,-0.132
10.66,-0.074,1.117,0.05
10.67,-0.095,0.733,0.09
10.68,-0.282,1.023,0.027
10.69,-0.273,0.937,-0.234
10.7,-0.147,1.16,-0.042
10.71,-0.106,0.793,0.176
10.72,-0.151,0.983,0.101
10.73,-0.353,0.849,-0.178
10.74,-0.237,1.068,-0.056
10.75,-0.077,1.131,0.061
10.76,-0.155,0.689,0.127
10.77,-0.276,1.1,0.015
10.78,-0.39,0.91,-0.229
10.79,-0.118,1.143,-0.007
10.8,-0.142,0.844,0.171
10.81,-0.135,0.963,0.069
10.82,-0.429,0.937,-0.196
10.83,-0.142,1.059,-0.028
10.84,-0.158,1.113,0.079
10.85,-0.165,0.621,0.159
10.86,-0.283,1.182,-0.065
10.87,-0.377,0.799,-0.205
10.88,-0.151,1.107,0.041
10.89,-0.09,0.756,0.136
10.9,-0.264,0.978,-0.009
10.91,-0.32,0.914,-0.151
10.92,-0.142,1.144,-0.06
10.93,-0.189,0.888,0.085
10.94,-0.083,0.799,0.204
10.95,-0.447,1.16,-0.133
10.96,-0.327,0.776,-0.107
10.97,-0.028,1.304,0.076
10.98,-0.144,0.671,0.13
10.99,-0.34,1.01,0.055
11.0,-0.284,1.034,-0.252
11.01,-0.161,0.965,-0.056
11.02,-0.203,1.004,0.199
11.03,-0.078,0.735,0.091
11.04,-0.476,1.172,-0.194
11.05,-0.179,0.852,-0.01
11.06,-0.16,1.258,0.071
11.07,-0.121,0.631,0.176
11.08,-0.229,1.037,-0.037
11.09,-0.415,1.039,-0.197
11.1,-0.075,0.91,0.008
11.11,-0.091,1.163,0.157
11.12,-0.148,0.633,0.099
11.13,-0.395,1.255,-0.183
11.14,-0.145,0.922,-0.022
11.15,-0.195,1.137,0.111
11.16,-0.151,0.721,0.197
11.17,-0.268,0.997,-0.109
11.18,-0.389,1.048,-0.163
11.19,-0.122,0.927,0.07
11.2,-0.059,1.142,0.085
11.21,-0.171,0.591,0.051
11.22,-0.476,1.3,-0.158
11.23,-0.066,0.942,-0.08
11.24,-0.237,1.042,0.078
11.25,-0.087,0.803,0.193
11.26,-0.319,0.998,-0.18
11.27,-0.321,1.03,-0.204
11.28,0.03,0.975,0.095
11.29,-0.119,1.105,0.094
11.3,-0.309,0.65,0.027
11.31,-0.319,1.35,-0.184
11.32,-0.127,0.907,-0.055
11.33,-0.287,1.01,0.191
11.34,-0.05,0.88,0.175
11.35,-0.381,0.891,-0.224
11.36,-0.287,1.159,-0.061
11.37,0.03,0.91,0.057
11.38,-0.202,1.012,0.131
11.39,-0.239,0.697,0.044
11.4,-0.287,1.304,-0.236
11.41,-0.166,0.857,-0.015
11.42,-0.167,1.01,0.225
11.43,-0.09,0.897,0.069
11.44,-0.468,0.867,-0.181
11.45,-0.205,1.285,-0.015
11.46,-0.073,0.823,0.043
11.47,-0.201,1.004,0.152
11.48,-0.167,0.77,-0.012
11.49,-0.381,1.21,-0.206
11.5,-0.133,0.967,0.017
11.51,-0.035,0.956,0.123
11.52,-0.195,0.889,0.017
11.53,-0.471,0.9,-0.12
11.54,-0.131,1.26,-0.094
11.55,-0.091,0.699,0.09
11.56,-0.193,1.055,0.167
11.57,-0.284,0.802,-0.121
11.58,-0.326,1.055,-0.175
11.59,-0.06,1.113,0.074
11.6,-0.103,0.802,0.138
11.61,-0.313,0.967,0.045
11.62,-0.332,0.934,-0.176
11.63,-0.188,1.235,-0.06
11.64,-0.195,0.715,0.166
11.65,-0.105,1.039,0.159
11.66,-0.273,0.867,-0.217
11.67,-0.326,0.989,-0.055
11.68,-0.053,1.149,0.052
11.69,-0.122,0.719,0.122
11.7,-0.358,1.051,0.031
11.71,-0.259,0.976,-0.22
11.72,-0.146,1.155,-0.096
11.73,-0.098,0.742,0.204
11.74,-0.15,1.065,0.078
11.75,-0.397,0.784,-0.202
11.76,-0.122,1.195,-0.092
11.77,-0.051,0.959,0.061
11.78,-0.305,0.786,0.208
11.79,-0.205,1.079,-0.069
11.8,-0.321,0.873,-0.211
11.81,-0.24,1.201,0.105
11.82,-0.046,0.788,0.167
11.83,-0.228,0.993,-0.021
11.84,-0.382,0.893,-0.142
11.85,-0.121,1.146,-0.121
11.86,-0.09,0.909,0.07
11.87,-0.218,0.798,0.246
11.88,-0.332,1.113,-0.128
11.89,-0.275,0.787,-0.168
11.9,-0.153,1.307,0.09
11.91,-0.121,0.719,0.17
11.92,-0.21,0.962,0.011
11.93,-0.409,1.009,-0.146
11.94,-0.096,1.097,-0.058
11.95,-0.213,0.924,0.084
11.96,-0.116,0.762,0.197
11.97,-0.414,1.159,-0.182
11.98,-0.251,0.703,-0.151
11.99,-0.054,1.353,0.113
12.0,-0.125,0.725,0.11
12.01,-0.297,0.906,-0.01
12.02,-0.272,1.074,-0.189
12.03,-0.098,1.004,-0.024
12.04,-0.273,1.034,0.197
12.05,-0.017,0.75,0.084
12.06,-0.414,1.184,-0.224
12.07,-0.194,0.842,-0.025
12.08,-0.133,1.25,0.091
12.09,-0.108,0.681,0.118
12.1,-0.309,1.006,0.002
12.11,-0.325,1.064,-0.224
12.12,-0.195,0.932,0.004
12.13,-0.125,1.103,0.166
12.14,-0.063,0.649,0.049
12.15,-0.549,1.241,-0.14
12.16,-0.043,0.884,-0.101
12.17,-0.202,1.158,0.094
12.18,-0.157,0.669,0.227
12.19,-0.244,0.969,-0.087
12.2,-0.307,1.132,-0.19
12.21,-0.149,0.902,0.039
12.22,-0.056,1.121,0.136
12.23,-0.143,0.621,0.046
12.24,-0.441,1.29,-0.177
12.25,-0.119,0.946,-0.078
12.26,-0.157,1.019,0.044
12.27,-0.091,0.764,0.213
12.28,-0.317,0.977,-0.127
12.29,-0.358,1.101,-0.152
12.3,-0.073,0.908,0.1
12.31,-0.134,1.196,0.087
12.32,-0.151,0.607,0.008
12.33,-0.404,1.258,-0.192
12.34,-0.107,1.015,-0.103
12.35,-0.15,0.957,0.09
12.36,-0.077,0.871,0.193
12.37,-0.338,0.874,-0.173
12.38,-0.288,1.093,-0.182
12.39,-0.011,0.941,0.119
12.4,-0.14,1.113,0.094
12.41,-0.28,0.654,0.027
12.42,-0.343,1.251,-0.21
12.43,-0.064,0.949,-0.123
12.44,-0.228,0.971,0.224
12.45,-0.07,0.92,0.098
12.46,-0.312,0.754,-0.22
12.47,-0.266,1.258,-0.053
12.48,0.013,0.864,0.094
12.49,-0.236,1.019,0.117
12.5,-0.189,0.774,0.021
12.51,-0.447,1.193,-0.206
12.52,-0.174,0.826,0.099
12.53,-0.067,1.142,0.145
12.54,-0.124,0.805,0.055
12.55,-0.455,0.936,-0.121
12.56,-0.144,1.213,-0.08
12.57,-0.11,0.787,0.111
12.58,-0.217,1.022,0.183
12.59,-0.214,0.742,-0.115
12.6,-0.318,1.156,-0.201
12.61,-0.202,0.943,0.122
12.62,-0.11,0.967,0.108
12.63,-0.17,0.882,0.065
12.64,-0.411,1.008,-0.127
12.65,-0.184,1.22,-0.085
12.66,-0.111,0.733,0.114
12.67,-0.21,1.065,0.186
12.68,-0.295,0.76,-0.121
12.69,-0.313,1.077,-0.151
12.7,-0.159,1.022,0.122
12.71,-0.087,0.886,0.14
12.72,-0.135,0.93,0.019
12.73,-0.448,0.951,-0.153
12.74,-0.116,1.236,-0.081
12.75,-0.107,0.705,0.069
12.76,-0.154,1.051,0.149
12.77,-0.244,0.843,-0.188
12.78,-0.297,1.062,-0.136
12.79,-0.084,1.089,0.092
12.8,-0.1,0.799,0.121
12.81,-0.302,0.98,0.032
12.82,-0.315,0.943,-0.203
12.83,-0.13,1.206,-0.048
12.84,-0.165,0.766,0.125
12.85,-0.113,1.004,0.132
12.86,-0.38,0.815,-0.151
12.87,-0.252,1.044,-0.074
12.88,0.031,1.152,0.0
12.89,-0.18,0.653,0.122
12.9,-0.259,1.089,0.038
12.91,-0.348,0.943,-0.221
12.92,-0.161,1.115,-0.096
12.93,-0.083,0.765,0.209
12.94,-0.155,0.971,0.091
12.95,-0.379,0.944,-0.147
12.96,-0.224,1.034,-0.071
12.97,-0.101,1.129,0.014
12.98,-0.073,0.597,0.165
12.99,-0.27,1.171,0.006
13.0,-0.329,0.878,-0.256
13.01,-0.159,1.117,0.018
13.02,-0.048,0.881,0.157
13.03,-0.172,0.926,0.075
13.04,-0.362,0.968,-0.161
13.05,-0.118,1.017,-0.044
13.06,-0.168,1.106,0.059
13.07,-0.107,0.586,0.19
13.08,-0.291,1.183,-0.1
13.09,-0.32,0.84,-0.221
13.1,-0.123,1.147,0.053
13.11,-0.074,0.948,0.134
13.12,-0.217,0.823,0.051
13.13,-0.402,1.03,-0.175
13.14,-0.09,0.968,-0.055
13.15,-0.204,1.119,0.065
13.16,-0.081,0.604,0.186
13.17,-0.34,1.237,-0.108
13.18,-0.327,0.797,-0.174
13.19,-0.116,1.138,0.078
13.2,-0.079,0.939,0.141
13.21,-0.204,0.787,0.026
13.22,-0.44,1.167,-0.161
13.23,-0.074,0.876,-0.089
13.24,-0.154,1.136,0.071
13.25,-0.078,0.678,0.197
13.26,-0.412,1.135,-0.135
13.27,-0.246,0.842,-0.194
13.28,-0.012,1.208,0.066
13.29,-0.156,0.895,0.123
13.3,-0.207,0.723,0.06
13.31,-0.384,1.297,-0.168
13.32,-0.092,0.809,-0.096
13.33,-0.131,1.101,0.171
13.34,-0.066,0.718,0.094
13.35,-0.449,1.135,-0.196
13.36,-0.237,0.85,-0.014
13.37,-0.091,1.219,0.024
13.38,-0.107,0.756,0.145
13.39,-0.278,0.912,0.04
13.4,-0.33,1.138,-0.248
13.41,-0.153,0.856,0.03
13.42,-0.184,1.218,0.197
13.43,-0.093,0.637,0.055
13.44,-0.462,1.146,-0.166
13.45,-0.129,0.954,-0.049
13.46,-0.129,1.156,0.03
13.47,-0.132,0.747,0.117
13.48,-0.177,0.905,-0.014
13.49,-0.456,1.191,-0.216
13.5,-0.085,0.778,0.04
13.51,-0.136,1.3,0.187
13.52,-0.13,0.604,0.059
13.53,-0.463,1.15,-0.175
13.54,-0.013,1.054,-0.07
13.55,-0.158,1.017,0.054
13.56,-0.09,0.791,0.18
13.57,-0.265,0.892,-0.064
13.58,-0.446,1.139,-0.164
13.59,-0.12,0.819,0.126
13.6,-0.147,1.259,0.124
13.61,-0.128,0.577,-0.017
13.62,-0.418,1.2,-0.122
13.63,-0.095,1.057,-0.112
13.64,-0.163,0.924,0.101
13.65,-0.148,0.947,0.226
13.66,-0.302,0.801,-0.112
13.67,-0.392,1.166,-0.133
13.68,0.016,0.909,0.069
13.69,-0.177,1.083,0.15
13.7,-0.22,0.666,0.047
13.71,-0.37,1.22,-0.169
13.72,-0.142,0.986,-0.084
13.73,-0.203,0.907,0.149
13.74,-0.04,1.029,0.129
13.75,-0.31,0.731,-0.17
13.76,-0.298,1.223,-0.092
13.77,-0.025,0.941,0.048
13.78,-0.17,0.969,0.152
13.79,-0.261,0.777,0.068
13.8,-0.357,1.187,-0.212
13.81,-0.185,1.001,-0.04
13.82,-0.171,0.825,0.184
13.83,-0.101,1.09,0.081
13.84,-0.31,0.769,-0.195
13.85,-0.294,1.182,-0.079
13.86,-0.036,0.937,0.086
13.87,-0.239,0.931,0.135
13.88,-0.252,0.802,0.024
13.89,-0.329,1.122,-0.217
13.9,-0.152,1.035,-0.047
13.91,-0.139,0.807,0.2
13.92,-0.134,1.06,0.081
13.93,-0.404,0.753,-0.167
13.94,-0.177,1.251,-0.052
13.95,-0.099,0.948,0.044
13.96,-0.153,0.846,0.117
13.97,-0.211,0.931,0.043
13.98,-0.354,1.023,-0.198
13.99,-0.213,1.09,0.02
14.0,-0.092,0.797,0.185
14.01,-0.24,1.028,0.065
14.02,-0.332,0.788,-0.2
14.03,-0.162,1.281,-0.08
14.04,-0.038,0.881,0.071
14.05,-0.201,0.825,0.194
14.06,-0.213,1.042,-0.1
14.07,-0.3,0.915,-0.193
14.08,-0.177,1.213,0.132
14.09,-0.087,0.749,0.104
14.1,-0.227,1.014,0.061
14.11,-0.315,0.908,-0.125
14.12,-0.199,1.154,-0.098
14.13,-0.118,0.813,0.09
14.14,-0.069,0.995,0.154
14.15,-0.457,0.875,-0.112
14.16,-0.199,0.941,-0.125
14.17,-0.084,1.264,0.067
14.18,-0.188,0.671,0.158
14.19,-0.217,1.069,0.032
14.2,-0.371,0.959,-0.17
14.21,-0.239,1.137,-0.008
14.22,-0.142,0.753,0.184
14.23,-0.066,0.954,0.096
14.24,-0.401,0.954,-0.174
14.25,-0.223,0.892,-0.109
14.26,-0.044,1.256,0.021
14.27,-0.109,0.595,0.161
14.28,-0.307,1.119,0.043
14.29,-0.41,0.913,-0.214
14.3,-0.135,1.081,-0.036
14.31,-0.144,0.895,0.17
14.32,-0.173,0.879,0.099
14.33,-0.334,1.008,-0.203
14.34,-0.191,0.916,-0.043
14.35,-0.148,1.234,0.055
14.36,-0.137,0.621,0.183
14.37,-0.25,1.134,-0.026
14.38,-0.406,0.874,-0.198
14.39,-0.188,1.098,0.048
14.4,-0.052,0.963,0.136
14.41,-0.167,0.745,0.074
14.42,-0.444,1.129,-0.101
14.43,-0.097,0.935,-0.07
14.44,-0.208,1.172,0.069
14.45,-0.099,0.619,0.176
14.46,-0.24,1.144,-0.073
14.47,-0.402,0.86,-0.223
14.48,-0.195,1.067,0.058
14.49,-0.037,1.064,0.097
14.5,-0.15,0.722,0.082
14.51,-0.452,1.163,-0.138
14.52,-0.121,0.872,-0.09
14.53,-0.134,1.182,0.047
14.54,-0.056,0.666,0.152
14.55,-0.356,1.067,-0.068
14.56,-0.324,0.868,-0.243
14.57,-0.158,1.058,0.067
14.58,-0.115,1.103,0.126
14.59,-0.187,0.696,0.052
14.6,-0.339,1.193,-0.186
14.61,-0.144,0.923,0.001
14.62,-0.187,1.146,0.109
14.63,-0.116,0.691,0.143
14.64,-0.296,1.099,-0.103
14.65,-0.317,0.944,-0.203
14.66,-0.047,1.058,0.129
14.67,-0.178,1.098,0.145
14.68,-0.192,0.614,0.025
14.69,-0.443,1.295,-0.138
14.7,-0.153,0.873,-0.083
14.71,-0.208,1.102,0.084
14.72,0.012,0.795,0.189
14.73,-0.416,0.965,-0.152
14.74,-0.373,0.974,-0.103
14.75,0.024,1.035,0.049
14.76,-0.15,1.068,0.089
14.77,-0.21,0.646,0.066
14.78,-0.366,1.295,-0.19
14.79,-0.176,0.82,-0.025
14.8,-0.198,1.117,0.128
14.81,-0.002,0.854,0.075
14.82,-0.464,0.88,-0.149
14.83,-0.163,1.042,-0.146
14.84,0.018,1.037,0.051
14.85,-0.216,1.021,0.137
14.86,-0.098,0.656,0.025
14.87,-0.447,1.362,-0.202
14.88,-0.073,0.854,-0.018
14.89,-0.216,1.052,0.123
14.9,-0.128,0.839,0.143
14.91,-0.407,0.867,-0.201
14.92,-0.187,1.126,-0.117
14.93,0.005,0.958,0.097
14.94,-0.153,1.037,0.099
14.95,-0.213,0.757,0.002
14.96,-0.396,1.306,-0.219
14.97,-0.092,0.753,0.016
14.98,-0.19,1.149,0.223
14.99,-0.112,0.77,0.075
15.0,-0.49,1.001,-0.166
15.01,-0.155,1.16,-0.07
15.02,-0.095,0.904,0.086
15.03,-0.167,0.928,0.176
15.04,-0.23,0.77,-0.022
15.05,-0.37,1.263,-0.239
15.06,-0.14,0.8,-0.011
15.07,-0.069,1.087,0.171
15.08,-0.138,0.798,0.048
15.09,-0.458,0.985,-0.175
15.1,-0.055,1.17,-0.06
15.11,-0.119,0.819,0.108
15.12,-0.196,1.028,0.187
15.13,-0.218,0.771,-0.107
15.14,-0.33,1.193,-0.211
15.15,-0.151,0.897,0.113
15.16,-0.028,1.041,0.116
15.17,-0.262,0.818,0.004
15.18,-0.339,0.949,-0.148
15.19,-0.073,1.268,-0.075
15.2,-0.17,0.724,0.12
15.21,-0.152,1.073,0.191
15.22,-0.281,0.77,-0.141
15.23,-0.373,1.141,-0.14
15.24,0.009,1.02,0.085
15.25,-0.131,0.863,0.108
15.26,-0.254,0.881,0.044
15.27,-0.372,1.044,-0.166
15.28,-0.186,1.159,-0.042
15.29,-0.189,0.697,0.178
15.3,-0.122,1.105,0.156
15.31,-0.327,0.772,-0.176
15.32,-0.253,1.09,-0.133
15.33,-0.02,1.066,0.05
15.34,-0.149,0.745,0.13
15.35,-0.262,0.975,0.028
15.36,-0.331,0.974,-0.175
15.37,-0.179,1.15,-0.039
15.38,-0.12,0.744,0.204
15.39,-0.194,1.07,0.119
15.4,-0.349,0.816,-0.212
15.41,-0.257,1.107,-0.052
15.42,-0.092,1.107,0.051
15.43,-0.073,0.661,0.132
15.44,-0.335,1.061,0.024
15.45,-0.284,0.948,-0.199
15.46,-0.134,1.176,-0.016
15.47,-0.183,0.759,0.218
15.48,-0.095,1.003,0.062
15.49,-0.384,0.906,-0.218
15.5,-0.231,1.013,-0.034
15.51,-0.081,1.08,0.042
15.52,-0.098,0.646,0.102
15.53,-0.3,1.148,-0.007
15.54,-0.265,0.879,-0.192
15.55,-0.177,1.173,0.023
15.56,-0.027,0.789,0.159
15.57,-0.169,0.952,0.045
15.58,-0.418,1.022,-0.221
15.59,-0.092,0.95,-0.108
15.6,-0.142,1.066,0.056
15.61,-0.168,0.728,0.181
15.62,-0.373,1.145,-0.06
15.63,-0.24,0.791,-0.169
15.64,-0.179,1.234,0.104
15.65,-0.04,0.765,0.138
15.66,-0.233,0.888,0.044
15.67,-0.432,1.122,-0.169
15.68,-0.118,0.927,-0.014
15.69,-0.243,1.12,0.169
15.7,-0.114,0.676,0.13
15.71,-0.411,1.147,-0.11
15.72,-0.286,0.847,-0.118
15.73,-0.107,1.208,0.072
15.74,-0.089,0.746,0.114
15.75,-0.225,0.875,0.006
15.76,-0.287,0.998,-0.233
15.77,-0.092,1.006,0.009
15.78,-0.152,1.066,0.116
15.79,-0.134,0.689,0.101
15.8,-0.472,1.165,-0.14
15.81,-0.14,0.912,-0.086
15.82,-0.095,1.186,0.044
15.83,-0.189,0.687,0.199
15.84,-0.252,1.011,-0.07
15.85,-0.369,1.025,-0.224
15.86,-0.054,0.939,0.046
15.87,-0.142,1.166,0.152
15.88,-0.156,0.636,0.061
15.89,-0.425,1.193,-0.193
15.9,-0.108,0.941,-0.022
15.91,-0.17,1.119,0.087
15.92,-0.141,0.736,0.176
15.93,-0.354,0.968,-0.065
15.94,-0.284,1.035,-0.215
15.95,-0.063,0.953,0.124
15.96,-0.177,1.108,0.118
15.97,-0.103,0.62,0.011
15.98,-0.375,1.315,-0.187
15.99,-0.171,0.863,-0.04
16.0,-0.21,1.083,0.132
16.01,-0.07,0.841,0.11
16.02,-0.411,0.871,-0.141
16.03,-0.208,1.138,-0.176
16.04,-0.02,0.971,0.076
16.05,-0.184,0.988,0.12
16.06,-0.157,0.704,0.052
16.07,-0.381,1.313,-0.212
16.08,-0.123,0.862,-0.028
16.09,-0.178,1.045,0.211
16.1,-0.169,0.896,0.098
16.11,-0.388,0.824,-0.129
16.12,-0.287,1.243,-0.086
16.13,-0.055,0.884,0.073
16.14,-0.193,1.012,0.144
16.15,-0.178,0.698,0.003
16.16,-0.387,1.27,-0.236
16.17,-0.042,0.881,-0.017
16.18,-0.147,1.04,0.197
16.19,-0.217,0.915,0.102
16.2,-0.359,0.852,-0.174
16.21,-0.149,1.366,-0.077
16.22,-0.182,0.742,0.122
16.23,-0.063,0.982,0.149
16.24,-0.273,0.827,-0.049
16.25,-0.419,1.152,-0.182
16.26,-0.117,0.933,0.033
16.27,-0.041,0.95,0.155
16.28,-0.238,0.943,0.056
16.29,-0.397,0.819,-0.176
16.3,-0.14,1.284,-0.059
16.31,-0.101,0.788,0.092
16.32,-0.216,1.031,0.184
16.33,-0.299,0.803,-0.122
16.34,-0.266,1.079,-0.179
16.35,-0.068,1.135,0.078
16.36,-0.158,0.719,0.103
16.37,-0.201,1.006,0.028
16.38,-0.334,0.936,-0.188
16.39,-0.226,1.206,-0.035
16.4,-0.175,0.719,0.168
16.41,-0.185,1.011,0.136
16.42,-0.328,0.85,-0.177
16.43,-0.24,0.986,-0.115
16.44,-0.053,1.155,0.068
16.45,-0.124,0.628,0.113
16.46,-0.21,1.102,0.051
16.47,-0.356,0.884,-0.258
16.48,-0.158,1.118,0.021
16.49,-0.081,0.857,0.157
16.5,-0.274,0.908,0.077
16.51,-0.315,0.944,-0.158
16.52,-0.196,1.092,-0.02
16.53,-0.164,1.118,0.105
16.54,-0.14,0.61,0.206
16.55,-0.234,1.158,-0.059
16.56,-0.33,0.858,-0.219
16.57,-0.082,1.25,0.048
16.58,-0.135,0.753,0.099
16.59,-0.178,0.967,0.014
16.6,-0.378,0.997,-0.153
16.61,-0.208,1.095,-0.07
16.62,-0.196,0.891,0.12
16.63,-0.116,0.752,0.169
16.64,-0.393,1.137,-0.184
16.65,-0.216,0.763,-0.158
16.66,-0.09,1.349,0.113
16.67,-0.095,0.682,0.102
16.68,-0.256,0.942,0.018
16.69,-0.313,1.1,-0.199
16.7,-0.141,0.977,-0.032
16.71,-0.185,1.038,0.184
16.72,-0.014,0.721,0.062
16.73,-0.454,1.115,-0.192
16.74,-0.179,0.888,-0.043
16.75,-0.118,1.267,0.067
16.76,-0.188,0.636,0.141
16.77,-0.2,1.024,0.05
16.78,-0.444,1.086,-0.223
16.79,-0.145,0.837,0.053
16.8,-0.056,1.168,0.1
16.81,-0.177,0.656,0.091
16.82,-0.504,1.215,-0.113
16.83,-0.096,0.936,-0.077
16.84,-0.174,1.084,0.031
16.85,-0.112,0.807,0.203
16.86,-0.344,0.958,-0.106
16.87,-0.314,1.046,-0.203
16.88,-0.02,1.015,0.144
16.89,-0.193,1.111,0.103
16.9,-0.139,0.611,0.032
16.91,-0.424,1.308,-0.165
16.92,-0.154,0.926,-0.06
16.93,-0.198,1.001,0.144
16.94,-0.068,0.851,0.137
16.95,-0.44,0.905,-0.155
16.96,-0.247,1.151,-0.116
16.97,-0.009,0.963,0.058
16.98,-0.185,0.984,0.133
16.99,-0.196,0.669,0.016
17.0,-0.291,1.363,-0.193
17.01,-0.187,0.839,-0.019
17.02,-0.219,1.001,0.2
17.03,-0.095,0.884,0.096
17.04,-0.448,0.851,-0.193
17.05,-0.199,1.265,-0.04
17.06,-0.034,0.874,0.063
17.07,-0.206,0.964,0.149
17.08,-0.158,0.766,-0.028
17.09,-0.486,1.247,-0.189
17.1,-0.191,0.904,0.042
17.11,-0.086,1.041,0.162
17.12,-0.18,0.894,-0.003
17.13,-0.386,0.821,-0.153
17.14,-0.11,1.329,-0.07
17.15,-0.104,0.694,0.076
17.16,-0.195,1.037,0.197
17.17,-0.247,0.825,-0.136
17.18,-0.314,1.09,-0.162
17.19,-0.086,1.07,0.112
17.2,-0.163,0.833,0.136
17.21,-0.24,0.945,-0.009
17.22,-0.291,0.963,-0.144
17.23,-0.221,1.241,-0.013
17.24,-0.171,0.664,0.178
17.25,-0.076,1.095,0.12
17.26,-0.375,0.842,-0.19
17.27,-0.269,1.049,-0.069
17.28,-0.088,1.134,0.074
17.29,-0.151,0.689,0.076
17.3,-0.244,1.07,-0.019
17.31,-0.259,0.852,-0.24
17.32,-0.213,1.205,0.014
17.33,-0.067,0.812,0.179
17.34,-0.208,0.998,0.05
17.35,-0.343,0.906,-0.166
17.36,-0.134,1.091,-0.084
17.37,-0.135,1.041,0.076
17.38,-0.133,0.873,0.227
17.39,-0.412,1.024,-0.115
17.4,-0.227,0.812,-0.17
17.41,-0.122,1.321,0.079
17.42,-0.042,0.691,0.115
17.43,-0.2,1.026,0.038
17.44,-0.362,0.945,-0.213
17.45,-0.153,1.1,-0.06
17.46,-0.107,0.876,0.17
17.47,-0.172,0.793,0.143
17.48,-0.413,1.115,-0.131
17.49,-0.221,0.871,-0.096
17.5,-0.088,1.294,0.036
17.51,-0.04,0.604,0.118
17.52,-0.265,1.069,-0.004
17.53,-0.36,0.991,-0.264
17.54,-0.06,0.928,-0.038
17.55,-0.147,1.025,0.177
17.56,-0.124,0.738,0.1
17.57,-0.444,1.168,-0.168
17.58,-0.181,0.909,-0.061
17.59,-0.174,1.184,0.112
17.6,-0.151,0.641,0.16
17.61,-0.309,1.018,-0.072
17.62,-0.307,0.97,-0.221
17.63,-0.096,1.035,0.092
17.64,-0.153,1.064,0.108
17.65,-0.105,0.647,0.05
17.66,-0.458,1.32,-0.166
17.67,-0.175,0.85,-0.052
17.68,-0.216,1.079,0.136
17.69,-0.061,0.768,0.144
17.7,-0.443,0.944,-0.141
17.71,-0.17,1.011,-0.177
17.72,-0.053,1.057,0.087
17.73,-0.186,0.927,0.116
17.74,-0.163,0.691,0.042
17.75,-0.423,1.347,-0.236
17.76,-0.086,0.77,-0.009
17.77,-0.172,1.153,0.169
17.78,-0.131,0.79,0.061
17.79,-0.44,0.915,-0.145
17.8,-0.212,1.201,-0.06
17.81,-0.025,0.894,0.056
17.82,-0.166,0.963,0.132
17.83,-0.262,0.698,-0.007
17.84,-0.361,1.259,-0.23
17.85,-0.039,0.85,0.038
17.86,-0.123,1.081,0.157
17.87,-0.166,0.787,0.005
17.88,-0.419,0.962,-0.173
17.89,-0.121,1.282,-0.054
17.9,-0.135,0.752,0.117
17.91,-0.18,0.998,0.146
17.92,-0.221,0.797,-0.138
17.93,-0.341,1.195,-0.11
17.94,-0.102,0.975,0.153
17.95,-0.149,0.934,0.131
17.96,-0.254,0.882,0.004
17.97,-0.367,0.969,-0.21
17.98,-0.105,1.17,-0.053
17.99,-0.147,0.749,0.181
18.0,-0.172,1.075,0.108
18.01,-0.326,0.78,-0.154
18.02,-0.219,1.18,-0.108
18.03,-0.056,0.998,0.117
18.04,-0.185,0.767,0.17
18.05,-0.252,1.032,-0.023
18.06,-0.336,0.95,-0.239
18.07,-0.121,1.158,0.004
18.08,-0.048,0.795,0.178
18.09,-0.3,0.999,0.065
18.1,-0.343,0.839,-0.201
18.11,-0.042,1.156,-0.119
18.12,-0.131,0.903,0.098
18.13,-0.21,0.791,0.261
18.14,-0.316,1.113,-0.164
18.15,-0.324,0.783,-0.169
18.16,-0.057,1.313,0.122
18.17,-0.165,0.703,0.126
18.18,-0.26,0.975,-0.002
18.19,-0.24,0.93,-0.221
18.2,-0.168,0.6,0.025
18.21,-0.338,1.303,-0.229
18.22,-0.068,0.789,-0.087
18.23,-0.245,1.195,0.21
18.24,-0.082,0.709,0.117
18.25,-0.463,1.069,-0.22
18.26,-0.196,1.026,-0.054
18.27,-0.061,1.049,0.046
18.28,-0.117,0.859,0.121
18.29,-0.203,0.786,0.017
18.3,-0.447,1.273,-0.232
18.31,-0.041,0.788,0.034
18.32,-0.133,1.272,0.151
18.33,-0.128,0.653,0.07
18.34,-0.43,1.101,-0.181
18.35,-0.136,1.123,-0.047
18.36,-0.156,0.904,0.086
18.37,-0.145,0.964,0.19
18.38,-0.31,0.768,-0.08
18.39,-0.386,1.191,-0.175
18.4,-0.116,0.853,0.083
18.41,-0.113,1.164,0.152
18.42,-0.147,0.672,0.042
18.43,-0.451,1.091,-0.148
18.44,-0.049,1.158,-0.07
18.45,-0.153,0.795,0.119
18.46,-0.198,1.026,0.169
18.47,-0.299,0.738,-0.145
18.48,-0.276,1.213,-0.199
18.49,-0.056,0.918,0.134
18.5,-0.147,0.957,0.104
18.51,-0.229,0.787,0.026
18.52,-0.38,1.123,-0.161
18.53,-0.092,1.145,-0.041
18.54,-0.147,0.727,0.164
18.55,-0.133,1.071,0.124
18.56,-0.4,0.773,-0.18
18.57,-0.219,1.195,-0.104
18.58,0.009,0.923,0.102
18.59,-0.247,0.873,0.136
18.6,-0.245,0.931,-0.043
18.61,-0.267,0.997,-0.216
18.62,-0.193,1.166,0.089
18.63,-0.121,0.749,0.219
18.64,-0.236,1.022,-0.011
18.65,-0.336,0.771,-0.208
18.66,-0.12,1.224,-0.038
18.67,-0.121,0.869,0.097
18.68,-0.156,0.832,0.128
18.69,-0.234,1.045,-0.143
18.7,-0.376,0.898,-0.112
18.71,-0.156,1.217,0.138
18.72,-0.035,0.693,0.092
18.73,-0.323,1.034,-0.025
18.74,-0.316,0.953,-0.157
18.75,-0.114,1.148,-0.046
18.76,-0.2,0.814,0.111
18.77,-0.037,0.834,0.116
18.78,-0.436,1.144,-0.242
18.79,-0.193,0.801,-0.102
18.8,-0.059,1.161,0.082
18.81,-0.209,0.648,0.147
18.82,-0.303,1.129,-0.036
18.83,-0.279,0.906,-0.224
18.84,-0.146,1.184,0.064
18.85,-0.034,0.83,0.139
18.86,-0.255,0.867,0.003
18.87,-0.436,1.06,-0.159
18.88,-0.05,1.024,-0.065
18.89,-0.14,1.044,0.084
18.9,-0.102,0.708,0.177
18.91,-0.331,1.191,-0.195
18.92,-0.294,0.852,-0.143
18.93,0.024,1.19,0.125
18.94,-0.102,0.785,0.103
18.95,-0.351,0.859,-0.006
18.96,-0.282,1.193,-0.222
18.97,-0.124,0.86,0.025
18.98,-0.199,1.103,0.197
18.99,-0.051,0.686,0.049
19.0,-0.508,1.193,-0.221
19.01,-0.102,0.914,-0.032
19.02,-0.117,1.085,0.114
19.03,-0.248,0.828,0.173
19.04,-0.219,0.842,-0.097
19.05,-0.308,1.235,-0.229
19.06,-0.089,0.83,0.112
19.07,-0.071,1.137,0.13
19.08,-0.186,0.6,-0.019
19.09,-0.461,1.255,-0.119
19.1,-0.067,0.996,-0.02
19.11,-0.301,0.925,0.149
19.12,-0.117,0.958,0.177
19.13,-0.354,0.84,-0.204
19.14,-0.315,1.224,-0.04
19.15,0.037,0.865,0.09
19.16,-0.226,1.002,0.102
19.17,-0.193,0.711,-0.03
19.18,-0.334,1.206,-0.206
19.19,-0.082,1.027,-0.049
19.2,-0.093,0.877,0.166
19.21,-0.119,0.924,0.008
19.22,-0.475,0.877,-0.159
19.23,-0.119,1.299,-0.07
19.24,-0.066,0.705,0.08
19.25,-0.204,0.987,0.192
19.26,-0.263,0.851,-0.114
19.27,-0.335,1.079,-0.166
19.28,-0.103,1.099,0.098
19.29,-0.074,0.716,0.119
19.3,-0.331,1.049,0.033
19.31,-0.338,0.953,-0.157
19.32,-0.164,1.145,-0.055
19.33,-0.145,0.719,0.215
19.34,-0.086,0.991,0.081
19.35,-0.379,0.859,-0.268
19.36,-0.117,0.998,-0.021
19.37,-0.065,1.135,0.065
19.38,-0.113,0.634,0.123
19.39,-0.353,1.132,-0.008
19.4,-0.306,0.886,-0.217
19.41,-0.135,1.176,0.047
19.42,-0.108,0.833,0.156
19.43,-0.203,0.905,0.009
19.44,-0.332,1.02,-0.203
19.45,-0.096,1.001,-0.016
19.46,-0.183,1.073,0.095
19.47,-0.151,0.676,0.159
19.48,-0.379,1.184,-0.144
19.49,-0.333,0.791,-0.164
19.5,-0.007,1.259,0.105
19.51,-0.123,0.753,0.137
19.52,-0.387,0.855,0.063
19.53,-0.241,1.141,-0.241
19.54,-0.099,0.882,-0.063
19.55,-0.152,1.091,0.188
19.56,-0.026,0.657,0.077
19.57,-0.592,1.199,-0.205
19.58,-0.069,0.938,-0.047
19.59,-0.147,1.152,0.12
19.6,-0.239,0.764,0.174
19.61,-0.295,1.063,-0.14
19.62,-0.317,0.982,-0.187
19.63,-0.084,1.038,0.109
19.64,-0.031,0.967,0.076
19.65,-0.256,0.688,0.011
19.66,-0.443,1.336,-0.142
19.67,-0.064,0.829,-0.029
19.68,-0.303,1.105,0.159
19.69,-0.018,0.739,0.126
19.7,-0.429,1.034,-0.245
19.71,-0.276,1.054,-0.057
19.72,0.04,0.987,0.061
19.73,-0.172,0.938,0.12
19.74,-0.164,0.709,-0.055
19.75,-0.345,1.309,-0.209
19.76,-0.211,0.856,0.106
19.77,-0.109,1.107,0.155
19.78,-0.109,0.734,-0.013
19.79,-0.515,1.027,-0.106
19.8,-0.068,1.185,-0.117
19.81,-0.093,0.784,0.073
19.82,-0.249,1.056,0.215
19.83,-0.241,0.74,-0.158
19.84,-0.344,1.219,-0.151
19.85,-0.075,0.938,0.133
19.86,-0.114,0.936,0.123
19.87,-0.279,0.805,0.014
19.88,-0.335,1.062,-0.173
19.89,-0.15,1.146,-0.02
19.9,-0.221,0.731,0.207
19.91,-0.161,1.067,0.087
19.92,-0.36,0.73,-0.232
19.93,-0.151,1.245,-0.062
19.94,-0.082,0.954,0.113
19.95,-0.236,0.796,0.113
19.96,-0.14,0.983,-0.038
19.97,-0.347,0.961,-0.211
19.98,-0.157,1.193,0.069
19.99,-0.031,0.773,0.161
20.0,-0.221,0.998,0.018
20.01,-0.386,0.875,-0.15
20.02,-0.154,1.219,-0.107
20.03,-0.119,0.798,0.115
20.04,-0.251,0.859,0.211
20.05,-0.278,1.04,-0.182
20.06,-0.271,0.842,-0.175
20.07,-0.035,1.296,0.114
20.08,-0.067,0.648,0.084
20.09,-0.334,0.979,0.007
20.1,-0.271,1.006,-0.172
20.11,-0.085,1.095,-0.029
20.12,-0.26,0.895,0.201
20.13,-0.06,0.781,0.113
20.14,-0.432,1.15,-0.215
20.15,-0.257,0.889,-0.011
20.16,-0.088,1.243,0.072
20.17,-0.144,0.6,0.118
20.18,-0.285,1.06,-0.024
20.19,-0.335,0.986,-0.187
20.2,-0.179,0.985,0.039
20.21,-0.066,1.078,0.123
20.22,-0.117,0.656,0.035
20.23,-0.555,1.191,-0.12
20.24,-0.041,0.916,-0.014
20.25,-0.164,1.177,0.051
20.26,-0.182,0.665,0.195
20.27,-0.3,0.994,-0.169
20.28,-0.198,1.03,-0.189
20.29,-0.063,1.076,0.137
20.3,-0.143,0.968,0.129
20.31,-0.248,0.633,-0.015
20.32,-0.357,1.321,-0.213
20.33,-0.084,0.798,-0.01
20.34,-0.231,1.137,0.186
20.35,-0.002,0.759,0.058
20.36,-0.458,0.992,-0.208
20.37,-0.243,1.103,-0.034
20.38,-0.03,0.94,0.068
20.39,-0.22,0.998,0.132
20.4,-0.218,0.734,-0.03
20.41,-0.367,1.273,-0.243
20.42,-0.089,0.863,0.146
20.43,-0.192,1.161,0.152
20.44,-0.137,0.605,0.02
20.45,-0.466,1.243,-0.149
20.46,-0.072,1.027,-0.095
20.47,-0.135,0.868,0.119
20.48,-0.125,0.989,0.18
20.49,-0.357,0.843,-0.188
20.5,-0.321,1.174,-0.126
20.51,0.067,0.911,0.102
20.52,-0.216,1.039,0.142
20.53,-0.264,0.736,-0.004
20.54,-0.352,1.198,-0.197
20.55,-0.129,0.971,-0.047
20.56,-0.14,0.839,0.235
20.57,-0.158,1.007,0.055
20.58,-0.387,0.795,-0.226
20.59,-0.188,1.293,0.006
20.6,-0.11,0.803,0.124
20.61,-0.211,0.972,0.143
20.62,-0.234,0.887,-0.074
20.63,-0.371,1.108,-0.133
20.64,-0.234,1.046,0.058
20.65,-0.019,0.791,0.163
20.66,-0.267,1.0,-0.018
20.67,-0.409,0.87,-0.126
20.68,-0.111,1.276,0.003
20.69,-0.218,0.739,0.108
20.7,-0.082,0.965,0.175
20.71,-0.312,0.979,-0.205
20.72,-0.354,0.952,-0.08
20.73,-0.006,1.203,0.086
20.74,-0.092,0.667,0.132
20.75,-0.398,1.059,0.01
20.76,-0.176,0.907,-0.21
20.77,-0.16,1.188,0.022
20.78,-0.291,0.763,0.237
20.79,-0.054,0.919,0.072
20.8,-0.45,1.046,-0.249
20.81,-0.158,0.908,-0.018
20.82,-0.057,1.195,0.078
20.83,-0.258,0.645,0.14
20.84,-0.273,1.114,-0.065
20.85,-0.238,0.89,-0.195
20.86,-0.218,1.214,0.128
20.87,-0.088,0.861,0.121
20.88,-0.149,0.802,0.027
20.89,-0.476,1.211,-0.179
20.9,-0.04,0.891,-0.067
20.91,-0.206,1.148,0.092
20.92,-0.098,0.676,0.199
20.93,-0.367,1.136,-0.195
20.94,-0.328,0.869,-0.093
20.95,-0.065,1.134,0.08
20.96,-0.03,0.864,0.03
20.97,-0.299,0.804,0.047
20.98,-0.312,1.233,-0.246
20.99,-0.075,0.839,-0.002
21.0,-0.268,1.202,0.178
21.01,0.013,0.653,0.099
21.02,-0.458,1.134,-0.199
21.03,-0.152,0.983,-0.091
21.04,-0.012,1.053,0.074
21.05,-0.197,0.912,0.146
21.06,-0.272,0.754,-0.021
21.07,-0.308,1.28,-0.193
21.08,-0.107,0.823,0.075
21.09,-0.102,1.184,0.114
21.1,-0.07,0.642,-0.011
21.11,-0.514,1.138,-0.168
21.12,-0.079,1.017,-0.08
21.13,-0.066,0.88,0.099
21.14,-0.188,1.008,0.18
21.15,-0.316,0.759,-0.138
21.16,-0.303,1.21,-0.18
21.17,0.006,0.913,0.07
21.18,-0.095,1.017,0.121
21.19,-0.26,0.755,0.015
21.2,-0.341,1.137,-0.191
21.21,-0.096,1.017,-0.058
21.22,-0.187,0.853,0.209
21.23,-0.085,0.897,0.086
21.24,-0.492,0.854,-0.17
21.25,-0.097,1.273,-0.088
21.26,-0.071,0.806,0.07
21.27,-0.22,1.017,0.205
21.28,-0.231,0.76,-0.107
21.29,-0.296,1.129,-0.235
21.3,-0.099,1.038,0.134
21.31,-0.124,0.89,0.13
21.32,-0.217,0.928,0.048
21.33,-0.343,0.965,-0.136
21.34,-0.168,1.278,-0.105
21.35,-0.16,0.608,0.128
21.36,-0.056,1.09,0.162
21.37,-0.422,0.822,-0.158
21.38,-0.277,1.008,-0.092
21.39,-0.036,1.154,0.055
21.4,-0.185,0.725,0.119
21.41,-0.229,1.003,0.04
21.42,-0.384,0.94,-0.188
21.43,-0.063,1.168,-0.042
21.44,-0.145,0.76,0.187
21.45,-0.122,1.0,0.104
21.46,-0.431,0.847,-0.17
21.47,-0.193,1.022,-0.038
21.48,-0.077,1.164,0.058
21.49,-0.131,0.646,0.12
21.5,-0.308,1.144,0.003
21.51,-0.362,0.873,-0.217
21.52,-0.128,1.112,0.018
21.53,-0.048,0.879,0.163
21.54,-0.151,0.934,0.017
21.55,-0.422,0.93,-0.18
21.56,-0.064,1.031,-0.064
21.57,-0.13,1.073,0.071
21.58,-0.101,0.665,0.212
21.59,-0.386,1.202,-0.107
21.6,-0.277,0.812,-0.141
21.61,-0.189,1.252,0.178
21.62,-0.122,0.812,0.104
21.63,-0.187,0.843,0.007
21.64,-0.388,1.185,-0.153
21.65,-0.093,0.959,-0.084
21.66,-0.223,1.003,0.113
21.67,0.033,0.716,0.155
21.68,-0.43,1.198,-0.186
21.69,-0.325,0.791,-0.086
21.7,-0.041,1.245,0.072
21.71,-0.116,0.771,0.084
21.72,-0.265,0.835,0.095
21.73,-0.277,1.212,-0.266
21.74,-0.164,0.826,-0.006
21.75,-0.156,1.147,0.199
21.76,-0.072,0.692,0.092
21.77,-0.49,1.158,-0.208
21.78,-0.109,0.933,-0.063
21.79,-0.17,1.079,0.088
21.8,-0.176,0.815,0.161
21.81,-0.232,0.85,-0.061
21.82,-0.421,1.211,-0.19
21.83,-0.135,0.789,0.059
21.84,-0.048,1.227,0.1
21.85,-0.166,0.622,0.009
21.86,-0.437,1.179,-0.155
21.87,-0.104,0.987,-0.127
21.88,-0.153,0.895,0.094
21.89,-0.16,0.973,0.2
21.9,-0.353,0.776,-0.156
21.91,-0.321,1.115,-0.148
21.92,0.016,0.959,0.116
21.93,-0.179,1.084,0.097
21.94,-0.157,0.663,0.024
21.95,-0.434,1.236,-0.111
21.96,-0.135,1.03,-0.063
21.97,-0.165,0.814,0.148
21.98,-0.104,1.051,0.123
21.99,-0.372,0.736,-0.158
22.0,-0.343,1.219,-0.077
22.01,0.063,0.912,0.104
22.02,-0.189,0.969,0.134
22.03,-0.301,0.769,0.024
22.04,-0.336,1.239,-0.199
22.05,-0.167,0.904,0.037
22.06,-0.013,0.978,0.129
22.07,-0.148,0.906,0.03
22.08,-0.471,0.91,-0.124
22.09,-0.148,1.242,-0.076
22.1,-0.051,0.73,0.073
22.11,-0.252,1.073,0.239
22.12,-0.268,0.798,-0.112
22.13,-0.327,1.158,-0.202
22.14,-0.103,0.991,0.122
22.15,-0.166,0.812,0.169
22.16,-0.229,0.916,-0.014
22.17,-0.375,0.976,-0.153
22.18,-0.134,1.189,-0.02
22.19,-0.22,0.716,0.167
22.2,-0.124,1.051,0.126
22.21,-0.298,0.834,-0.196
22.22,-0.252,1.078,-0.064
22.23,-0.095,1.071,0.069
22.24,-0.098,0.697,0.099
22.25,-0.297,1.083,0.048
22.26,-0.329,0.943,-0.233
22.27,-0.076,1.155,-0.008
22.28,-0.18,0.799,0.193
22.29,-0.164,0.976,0.081
22.3,-0.376,0.933,-0.196
22.31,-0.122,1.055,-0.087
22.32,-0.113,1.031,0.102
22.33,-0.173,0.678,0.121
22.34,-0.304,1.134,-0.104
22.35,-0.28,0.82,-0.211
22.36,-0.154,1.25,0.113
22.37,-0.062,0.778,0.132
22.38,-0.209,0.905,0.01
22.39,-0.426,1.006,-0.166
22.4,-0.131,0.999,-0.069
22.41,-0.135,1.034,0.082
22.42,-0.146,0.687,0.218
22.43,-0.402,1.149,-0.147
22.44,-0.253,0.844,-0.146
22.45,-0.058,1.273,0.076
22.46,-0.121,0.705,0.129
22.47,-0.233,0.882,0.039
22.48,-0.458,1.178,-0.163
22.49,-0.104,0.866,-0.037
22.5,-0.256,1.131,0.171
22.51,-0.067,0.7,0.108
22.52,-0.48,1.204,-0.174
22.53,-0.193,0.85,-0.109
22.54,-0.042,1.147,0.071
22.55,-0.093,0.796,0.103
22.56,-0.301,0.861,-0.002
22.57,-0.312,1.19,-0.216
22.58,-0.096,0.813,-0.005
22.59,-0.207,1.154,0.161
22.6,-0.04,0.688,0.041
22.61,-0.447,1.211,-0.209
22.62,-0.143,0.95,0.011
22.63,-0.141,1.108,0.117
22.64,-0.184,0.829,0.139
22.65,-0.207,0.829,-0.097
22.66,-0.4,1.243,-0.192
22.67,-0.08,0.832,0.129
22.68,-0.186,1.164,0.168
22.69,-0.194,0.58,0.044
22.7,-0.37,1.265,-0.178
22.71,-0.094,0.972,-0.076
22.72,-0.238,0.883,0.136
22.73,-0.033,0.985,0.166
22.74,-0.376,0.796,-0.147
22.75,-0.281,1.197,-0.121
22.76,-0.055,0.937,0.09
22.77,-0.211,0.99,0.117
22.78,-0.189,0.713,0.059
22.79,-0.41,1.24,-0.212
22.8,-0.108,0.96,-0.026
22.81,-0.149,0.873,0.148
22.82,-0.11,1.018,0.122
22.83,-0.395,0.751,-0.183
22.84,-0.276,1.247,-0.069
22.85,-0.015,0.833,0.072
22.86,-0.242,1.049,0.142
22.87,-0.218,0.722,0.0
22.88,-0.366,1.254,-0.219
22.89,-0.176,0.926,0.059
22.9,-0.065,0.996,0.171
22.91,-0.154,0.893,0.036
22.92,-0.457,0.891,-0.126
22.93,-0.085,1.273,-0.08
22.94,-0.097,0.698,0.02
22.95,-0.15,1.069,0.211
22.96,-0.229,0.781,-0.096
22.97,-0.462,1.138,-0.125
22.98,-0.023,1.008,0.069
22.99,-0.123,0.852,0.124
23.0,-0.284,0.927,0.037
23.01,-0.34,0.974,-0.156
23.02,-0.17,1.222,-0.09
23.03,-0.094,0.694,0.124
23.04,-0.028,1.062,0.149
23.05,-0.344,0.807,-0.189
23.06,-0.309,1.062,-0.061
23.07,-0.013,1.101,0.06
23.08,-0.194,0.681,0.137
23.09,-0.279,1.073,0.069
23.1,-0.261,0.92,-0.209
23.11,-0.214,1.171,-0.035
23.12,-0.067,0.825,0.175
23.13,-0.117,0.953,0.047
23.14,-0.435,0.929,-0.169
23.15,-0.113,1.095,-0.053
23.16,-0.215,1.07,0.077
23.17,-0.145,0.644,0.181
23.18,-0.187,1.174,-0.074
23.19,-0.388,0.851,-0.221
23.2,-0.204,1.139,0.063
23.21,0.094,0.9,0.066
23.22,-0.18,0.857,0.002
23.23,-0.394,0.992,-0.102
23.24,-0.062,1.019,-0.076
23.25,-0.204,1.072,0.036
23.26,-0.116,0.684,0.248
23.27,-0.318,1.174,-0.085
23.28,-0.335,0.711,-0.198
23.29,-0.157,1.22,0.118
23.3,0.017,0.899,0.06
23.31,-0.17,0.798,-0.006
23.32,-0.36,1.126,-0.145
23.33,-0.01,0.951,-0.09
23.34,-0.235,1.086,0.092
23.35,-0.115,0.687,0.216
23.36,-0.357,1.16,-0.161
23.37,-0.31,0.775,-0.185
23.38,-0.007,1.209,0.082
23.39,-0.072,0.881,0.074
23.4,-0.228,0.759,0.076
23.41,-0.361,1.262,-0.128
23.42,-0.144,0.905,-0.035
23.43,-0.17,1.072,0.112
23.44,-0.07,0.726,0.181
23.45,-0.465,1.134,-0.182
23.46,-0.249,0.818,-0.154
23.47,-0.051,1.209,0.083
23.48,-0.164,0.889,0.119
23.49,-0.201,0.716,0.008
23.5,-0.36,1.293,-0.156
23.51,-0.157,0.814,-0.013
23.52,-0.239,1.107,0.177
23.53,0.069,0.744,0.109
23.54,-0.562,1.077,-0.195
23.55,-0.238,0.935,-0.073
23.56,-0.017,1.134,0.047
23.57,-0.134,0.89,0.079
23.58,-0.197,0.735,0.032
23.59,-0.352,1.33,-0.213
23.6,-0.159,0.781,-0.01
23.61,-0.082,1.146,0.155
23.62,-0.055,0.715,0.076
23.63,-0.588,1.077,-0.18
23.64,-0.092,1.08,-0.1
23.65,-0.069,0.92,0.052
23.66,-0.172,0.829,0.169
23.67,-0.269,0.872,-0.101
23.68,-0.325,1.159,-0.168
23.69,-0.104,0.859,0.111
23.7,-0.1,1.194,0.14
23.71,-0.184,0.587,0.028
23.72,-0.413,1.21,-0.161
23.73,-0.135,0.991,-0.038
23.74,-0.228,0.938,0.081
23.75,-0.06,0.933,0.176
23.76,-0.344,0.804,-0.13
23.77,-0.335,1.157,-0.152
23.78,0.008,0.951,0.109
23.79,-0.156,1.074,0.127
23.8,-0.262,0.653,0.062
23.81,-0.305,1.265,-0.199
23.82,-0.117,1.002,-0.051
23.83,-0.245,0.872,0.175
23.84,-0.037,1.005,0.107
23.85,-0.425,0.788,-0.179
23.86,-0.356,1.244,-0.047
23.87,-0.015,0.919,0.048
23.88,-0.192,0.881,0.082
23.89,-0.185,0.81,0.05
23.9,-0.295,1.205,-0.257
23.91,-0.181,0.927,-0.032
23.92,-0.099,0.861,0.252
23.93,-0.166,1.078,0.071
23.94,-0.434,0.734,-0.199
23.95,-0.207,1.275,-0.031
23.96,-0.132,0.854,0.076
23.97,-0.169,0.861,0.176
23.98,-0.242,0.942,-0.017
23.99,-0.34,1.017,-0.188
24.0,-0.191,1.081,0.008
24.01,-0.074,0.829,0.179
24.02,-0.14,1.001,0.047
24.03,-0.497,0.865,-0.154
24.04,-0.122,1.23,-0.097
24.05,-0.087,0.8,0.05
24.06,-0.173,0.904,0.223
24.07,-0.35,1.005,-0.116
24.08,-0.272,0.87,-0.145
24.09,-0.215,1.205,0.102
24.1,-0.05,0.777,0.155
24.11,-0.238,1.004,0.023
24.12,-0.433,0.856,-0.118
24.13,-0.141,1.223,-0.034
24.14,-0.144,0.784,0.058
24.15,-0.139,0.843,0.184
24.16,-0.366,1.098,-0.148
24.17,-0.186,0.832,-0.166
24.18,-0.136,1.311,0.093
24.19,-0.053,0.679,0.125
24.2,-0.274,1.022,0.001
24.21,-0.379,0.937,-0.17
24.22,-0.132,1.091,-0.039
24.23,-0.198,0.89,0.149
24.24,-0.077,0.791,0.1
24.25,-0.415,1.127,-0.192
24.26,-0.251,0.801,-0.063
24.27,-0.056,1.333,0.091
24.28,-0.083,0.633,0.124
24.29,-0.32,1.048,-0.011
24.3,-0.326,1.011,-0.179
24.31,-0.155,1.002,0.041
24.32,-0.236,0.982,0.196
24.33,-0.065,0.739,0.068
24.34,-0.449,1.207,-0.223
24.35,-0.167,0.838,0.014
24.36,-0.116,1.246,0.1
24.37,-0.094,0.668,0.135
24.38,-0.326,1.035,-0.028
24.39,-0.315,1.017,-0.202
24.4,-0.167,0.974,0.052
24.41,-0.066,1.082,0.116
24.42,-0.151,0.641,-0.006
24.43,-0.528,1.274,-0.132
24.44,-0.074,0.856,-0.083
24.45,-0.158,1.119,0.076
24.46,-0.09,0.761,0.186
24.47,-0.396,1.131,-0.19
24.48,-0.327,0.905,-0.099
24.49,0.011,1.123,0.082
24.5,-0.115,0.902,0.108
24.51,-0.31,0.774,0.04
24.52,-0.333,1.267,-0.253
24.53,-0.074,0.847,0.044
24.54,-0.224,1.195,0.174
24.55,-0.094,0.658,0.083
24.56,-0.49,1.13,-0.177
24.57,-0.156,1.03,-0.045
24.58,-0.104,0.973,0.073
24.59,-0.212,0.922,0.149
24.6,-0.208,0.785,-0.083
24.61,-0.363,1.232,-0.181
24.62,-0.148,0.865,0.122
24.63,-0.091,1.174,0.127
24.64,-0.082,0.672,0.029
24.65,-0.418,1.136,-0.172
24.66,-0.12,1.087,-0.076
24.67,-0.086,0.798,0.048
24.68,-0.194,0.999,0.208
24.69,-0.334,0.815,-0.115
24.7,-0.334,1.194,-0.187
24.71,-0.085,0.892,0.111
24.72,-0.152,1.032,0.159
24.73,-0.194,0.731,0.005
24.74,-0.433,1.091,-0.161
24.75,-0.057,1.098,-0.052
24.76,-0.162,0.761,0.147
24.77,-0.137,1.076,0.159
24.78,-0.287,0.75,-0.207
24.79,-0.335,1.183,-0.119
24.8,-0.003,0.967,0.122
24.81,-0.104,0.92,0.078
24.82,-0.306,0.839,0.041
24.83,-0.247,1.073,-0.207
24.84,-0.126,1.122,-0.074
24.85,-0.169,0.721,0.211
24.86,-0.098,1.069,0.08
24.87,-0.395,0.766,-0.219
24.88,-0.188,1.203,-0.048
24.89,-0.087,0.911,0.067
24.9,-0.243,0.834,0.171
24.91,-0.25,0.979,-0.015
24.92,-0.269,0.937,-0.154
24.93,-0.19,1.201,0.044
24.94,-0.01,0.764,0.147
24.95,-0.153,1.008,-0.005
24.96,-0.433,0.858,-0.169
24.97,-0.11,1.173,-0.107
24.98,-0.169,0.869,0.092
24.99,-0.171,0.777,0.195
25.0,-0.296,1.088,-0.105
25.01,-0.28,0.818,-0.178
25.02,-0.142,1.285,0.12
25.03,-0.059,0.729,0.137
25.04,-0.324,1.001,0.037
25.05,-0.332,0.947,-0.17
25.06,-0.143,1.15,-0.056
25.07,-0.142,0.868,0.098
25.08,-0.151,0.788,0.2
25.09,-0.397,1.16,-0.14
25.1,-0.286,0.765,-0.134
25.11,-0.067,1.333,0.127
25.12,-0.083,0.693,0.122
25.13,-0.341,0.994,0.003
25.14,-0.295,1.049,-0.204
25.15,-0.125,1.01,-0.038
25.16,-0.248,0.982,0.183
25.17,-0.01,0.727,0.076
25.18,-0.472,1.196,-0.206
25.19,-0.186,0.819,0.002
25.2,-0.099,1.244,0.1
25.21,-0.186,0.679,0.127
25.22,-0.258,0.986,-0.042
25.23,-0.301,1.072,-0.228
25.24,-0.129,0.936,-0.005
25.25,-0.08,1.136,0.14
25.26,-0.073,0.638,0.021
25.27,-0.523,1.241,-0.156
25.28,0.009,0.837,-0.073
25.29,-0.308,1.157,0.161
25.3,-0.099,0.682,0.201
25.31,-0.369,1.095,-0.184
25.32,-0.292,0.889,-0.145
25.33,-0.104,1.142,0.113
25.34,-0.102,0.92,0.106
25.35,-0.275,0.677,-0.026
25.36,-0.26,1.317,-0.198
25.37,-0.064,0.867,-0.014
25.38,-0.285,1.1,0.191
25.39,-0.046,0.699,0.149
25.4,-0.49,1.076,-0.204
25.41,-0.261,1.031,0.01
25.42,-0.057,1.019,0.07
25.43,-0.22,0.982,0.143
25.44,-0.214,0.728,-0.055
25.45,-0.373,1.268,-0.223
25.46,-0.131,0.82,0.027
25.47,-0.112,1.144,0.159
25.48,-0.073,0.701,0.019
25.49,-0.417,1.074,-0.141
25.5,-0.095,1.173,-0.09
25.51,-0.106,0.833,0.06
25.52,-0.205,1.034,0.205
25.53,-0.219,0.749,-0.101
25.54,-0.456,1.243,-0.167
25.55,-0.127,0.88,0.093
25.56,-0.03,1.093,0.106
25.57,-0.265,0.772,0.011
25.58,-0.391,1.023,-0.15
25.59,-0.073,1.229,-0.099
25.6,-0.16,0.72,0.156
25.61,-0.202,1.063,0.175
25.62,-0.276,0.778,-0.163
25.63,-0.35,1.2,-0.131
25.64,-0.056,0.981,0.135
25.65,-0.111,0.9,0.114
25.66,-0.284,0.847,-0.0
25.67,-0.281,1.041,-0.178
25.68,-0.129,1.173,-0.038
25.69,-0.186,0.681,0.213
25.7,-0.11,1.073,0.063
25.71,-0.345,0.808,-0.244
25.72,-0.306,1.175,-0.023
25.73,0.037,0.947,0.054
25.74,-0.159,0.827,0.118
25.75,-0.258,0.981,-0.038
25.76,-0.227,0.913,-0.22
25.77,-0.232,1.205,0.041
25.78,-0.051,0.732,0.174
25.79,-0.194,0.986,0.018
25.8,-0.405,0.894,-0.171
25.81,-0.172,1.164,-0.029
25.82,-0.172,0.863,0.059
25.83,-0.147,0.807,0.26
25.84,-0.332,1.122,-0.141
25.85,-0.329,0.801,-0.16
25.86,-0.136,1.304,0.122
25.87,-0.085,0.715,0.095
25.88,-0.219,0.956,0.011
25.89,-0.354,1.068,-0.166
25.9,-0.124,1.02,-0.053
25.91,-0.214,0.923,0.113
25.92,-0.064,0.749,0.134
25.93,-0.467,1.163,-0.183
25.94,-0.249,0.815,-0.074
25.95,-0.072,1.319,0.072
25.96,-0.121,0.631,0.131
25.97,-0.288,0.982,0.048
25.98,-0.285,1.099,-0.252
25.99,-0.093,0.905,-0.006
26.0,-0.163,1.082,0.181
26.01,-0.107,0.692,0.089
26.02,-0.514,1.186,-0.196
26.03,-0.171,0.88,-0.007
26.04,-0.165,1.198,0.093
26.05,-0.154,0.7,0.117
26.06,-0.25,0.949,-0.089
26.07,-0.296,1.084,-0.212
26.08,-0.17,0.936,0.12
26.09,-0.108,0.895,0.119
26.1,-0.265,0.73,0.014
26.11,-0.386,1.278,-0.186
26.12,-0.087,0.836,-0.047
26.13,-0.277,1.121,0.185
26.14,-0.036,0.733,0.152
26.15,-0.464,1.09,-0.178
26.16,-0.263,0.935,-0.106
26.17,-0.001,1.078,0.065
26.18,-0.132,0.923,0.112
26.19,-0.293,0.722,0.022
26.2,-0.292,1.307,-0.258
26.21,-0.105,0.817,-0.017
26.22,-0.166,1.171,0.168
26.23,-0.119,0.702,0.081
26.24,-0.5,1.086,-0.157
26.25,-0.119,1.127,-0.035
26.26,-0.146,0.9,0.093
26.27,-0.208,0.937,0.179
26.28,-0.185,0.775,-0.081
26.29,-0.39,1.236,-0.217
26.3,-0.153,0.828,0.122
26.31,-0.048,1.16,0.104
26.32,-0.186,0.689,-0.019
26.33,-0.472,1.04,-0.106
26.34,-0.07,1.189,-0.076
26.35,-0.165,0.765,0.073
26.36,-0.101,1.046,0.187
26.37,-0.324,0.787,-0.156
26.38,-0.408,1.21,-0.128
26.39,0.014,0.926,0.077
26.4,-0.127,0.919,0.094
26.41,-0.278,0.855,0.042
26.42,-0.299,1.039,-0.222
26.43,-0.15,1.068,-0.029
26.44,-0.119,0.766,0.207
26.45,-0.199,1.072,0.099
26.46,-0.343,0.719,-0.225
26.47,-0.139,1.242,-0.057
26.48,-0.062,0.958,0.075
26.49,-0.203,0.781,0.166
26.5,-0.231,1.005,-0.025
26.51,-0.333,1.007,-0.215
26.52,-0.066,1.129,0.015
26.53,-0.048,0.785,0.159
26.54,-0.091,0.986,-0.088
26.55,-0.094,0.922,0.078
26.56,-0.183,0.948,0.195
26.57,-0.367,0.767,-0.167
26.58,-0.293,1.22,-0.143
26.59,-0.017,0.931,0.102
26.6,-0.186,1.035,0.164
26.61,-0.179,0.66,0.007
26.62,-0.411,1.276,-0.195
26.63,-0.042,0.972,-0.029
26.64,-0.186,0.869,0.169
26.65,-0.149,1.007,0.102
26.66,-0.384,0.78,-0.184
26.67,-0.257,1.273,-0.052
26.68,-0.013,0.84,0.066
26.69,-0.126,0.941,0.114
26.7,-0.302,0.839,-0.039
26.71,-0.305,1.101,-0.185
26.72,-0.096,1.064,0.003
26.73,-0.121,0.834,0.182
26.74,-0.186,0.991,0.028
26.75,-0.355,0.844,-0.193
26.76,-0.169,1.304,-0.095
26.77,-0.052,0.727,0.079
26.78,-0.162,0.996,0.141
26.79,-0.326,0.902,-0.144
26.8,-0.3,0.973,-0.106
26.81,-0.133,1.181,0.093
26.82,-0.09,0.66,0.103
26.83,-0.215,1.035,0.004
26.84,-0.317,1.001,-0.199
26.85,-0.118,1.223,0.002
26.86,-0.103,0.734,0.177
26.87,-0.196,1.035,0.069
26.88,-0.305,0.874,-0.199
26.89,-0.212,1.146,-0.014
26.9,-0.085,0.987,0.087
26.91,-0.118,0.73,0.14
26.92,-0.393,1.12,-0.027
26.93,-0.287,0.869,-0.198
26.94,-0.078,1.231,0.049
26.95,-0.112,0.745,0.142
26.96,-0.203,0.988,0.025
26.97,-0.372,0.987,-0.223
26.98,-0.153,1.032,-0.021
26.99,-0.117,0.957,0.133
27.0,-0.117,0.744,0.116
27.01,-0.388,1.168,-0.171
27.02,-0.215,0.851,-0.145
27.03,-0.089,1.226,0.122
27.04,-0.075,0.717,0.11
27.05,-0.312,0.962,-0.004
27.06,-0.363,1.091,-0.173
27.07,-0.083,0.917,-0.009
27.08,-0.209,1.079,0.201
27.09,-0.112,0.66,0.046
27.1,-0.463,1.227,-0.218
27.11,-0.079,0.906,-0.038
27.12,-0.1,1.159,0.109
27.13,-0.165,0.724,0.145
27.14,-0.282,0.961,-0.094
27.15,-0.292,1.142,-0.171
27.16,-0.159,0.888,0.144
27.17,-0.105,1.092,0.135
27.18,-0.256,0.629,-0.022
27.19,-0.409,1.275,-0.173
27.2,-0.154,0.872,0.016
27.21,-0.243,1.042,0.2
27.22,-0.09,0.836,0.101
27.23,-0.446,0.94,-0.195
27.24,-0.119,1.216,-0.074
27.25,-0.127,0.816,0.121
27.26,-0.243,1.049,0.147
27.27,-0.218,0.718,-0.095
27.28,-0.334,1.201,-0.234
27.29,-0.1,0.974,0.103
27.3,-0.068,0.995,0.101
27.31,-0.201,0.84,0.005
27.32,-0.36,0.938,-0.152
27.33,-0.196,1.254,-0.042
27.34,-0.091,0.708,0.133
27.35,-0.172,1.082,0.153
27.36,-0.318,0.746,-0.162
27.37,-0.311,1.203,-0.086
27.38,-0.049,1.014,0.048
27.39,-0.166,0.734,0.1
27.4,-0.195,1.014,0.013
27.41,-0.371,0.934,-0.22
27.42,-0.138,1.124,-0.013
27.43,-0.079,0.792,0.212
27.44,-0.254,1.024,0.124
27.45,-0.367,0.82,-0.154
27.46,-0.126,1.208,-0.11
27.47,-0.106,0.928,0.049
27.48,-0.193,0.748,0.246
27.49,-0.31,1.116,-0.074
27.5,-0.322,0.802,-0.189
27.51,-0.067,1.281,0.107
27.52,-0.178,0.73,0.151
27.53,-0.252,0.967,0.012
27.54,-0.302,1.041,-0.184
27.55,-0.234,1.019,-0.069
27.56,-0.174,0.917,0.148
27.57,-0.024,0.803,0.12
27.58,-0.484,1.111,-0.149
27.59,-0.216,0.789,-0.107
27.6,-0.001,1.33,0.007
27.61,-0.131,0.571,0.071
27.62,-0.196,1.01,0.078
27.63,-0.371,1.095,-0.262
27.64,-0.096,0.849,-0.014
27.65,-0.008,1.002,0.141
27.66,-0.173,0.773,0.093
27.67,-0.465,1.17,-0.149
27.68,-0.104,0.897,-0.118
27.69,-0.152,1.117,0.03
27.7,-0.002,0.727,0.166
27.71,-0.436,1.071,-0.084
27.72,-0.279,0.851,-0.19
27.73,-0.001,1.165,0.099
27.74,-0.156,0.911,0.105
27.75,-0.2,0.723,0.096
27.76,-0.373,1.368,-0.235
27.77,-0.121,0.762,-0.09
27.78,-0.269,1.191,0.236
27.79,-0.034,0.699,0.095
27.8,-0.527,0.991,-0.191
27.81,-0.189,1.022,-0.072
27.82,-0.123,1.055,0.051
27.83,-0.144,0.895,0.139
27.84,-0.223,0.728,0.077
27.85,-0.404,1.344,-0.291
27.86,-0.094,0.775,0.033
27.87,-0.147,1.247,0.152
27.88,-0.076,0.683,0.065
27.89,-0.448,0.98,-0.144
27.9,-0.061,1.132,-0.085
27.91,-0.061,0.9,0.079
27.92,-0.253,0.993,0.201
27.93,-0.236,0.697,-0.051
27.94,-0.434,1.274,-0.197
27.95,-0.108,0.88,0.097
27.96,-0.16,1.098,0.134
27.97,-0.184,0.74,0.024
27.98,-0.376,1.047,-0.134
27.99,-0.131,1.208,-0.106
28.0,-0.084,0.68,0.096
28.01,-0.094,1.095,0.156
28.02,-0.328,0.729,-0.153
28.03,-0.343,1.177,-0.152
28.04,-0.032,1.004,0.078
28.05,-0.161,0.916,0.107
28.06,-0.261,0.887,0.08
28.07,-0.348,1.029,-0.207
28.08,-0.094,1.062,-0.102
28.09,-0.107,0.783,0.185
28.1,-0.125,1.067,0.12
28.11,-0.37,0.785,-0.18
28.12,-0.225,1.206,-0.077
28.13,-0.062,0.954,0.025
28.14,-0.215,0.796,0.165
28.15,-0.174,1.008,-0.059
28.16,-0.418,0.962,-0.188
28.17,-0.147,1.149,0.073
28.18,-0.11,0.836,0.17
28.19,-0.182,0.988,0.048
28.2,-0.354,0.863,-0.181
28.21,-0.139,1.217,-0.102
28.22,-0.178,0.865,0.07
28.23,-0.129,0.763,0.181
28.24,-0.313,1.115,-0.094
28.25,-0.327,0.789,-0.201
28.26,-0.118,1.258,0.149
28.27,-0.115,0.809,0.124
28.28,-0.215,0.934,0.01
28.29,-0.329,0.951,-0.169
28.3,-0.094,1.162,-0.073
28.31,-0.196,0.922,0.107
28.32,-0.125,0.747,0.197
28.33,-0.416,1.154,-0.135
28.34,-0.245,0.801,-0.123
28.35,-0.063,1.344,0.112
28.36,-0.089,0.647,0.097
28.37,-0.271,0.946,0.009
28.38,-0.278,1.1,-0.2
28.39,-0.083,0.941,-0.064
28.4,-0.242,1.007,0.209
28.41,-0.039,0.713,0.089
28.42,-0.467,1.219,-0.189
28.43,-0.187,0.853,-0.018
28.44,-0.074,1.197,0.071
28.45,-0.112,0.66,0.126
28.46,-0.302,1.161,-0.065
28.47,-0.313,0.874,-0.237
28.48,-0.198,1.103,0.134
28.49,-0.095,0.997,0.113
28.5,-0.165,0.689,-0.019
28.51,-0.411,1.278,-0.181
28.52,-0.085,0.875,-0.044
28.53,-0.257,1.159,0.141
28.54,-0.01,0.672,0.149
28.55,-0.366,1.056,-0.189
28.56,-0.308,0.956,-0.087
28.57,0.004,1.067,0.032
28.58,-0.145,0.979,0.103
28.59,-0.265,0.712,0.047
28.6,-0.397,1.314,-0.195
28.61,-0.14,0.772,0.015
28.62,-0.167,1.187,0.176
28.63,-0.074,0.711,0.103
28.64,-0.446,1.007,-0.183
28.65,-0.156,1.082,-0.06
28.66,-0.048,0.927,0.079
28.67,-0.221,1.001,0.168
28.68,-0.214,0.707,-0.024
28.69,-0.415,1.271,-0.219
28.7,-0.117,0.828,0.039
28.71,-0.126,1.138,0.173
28.72,-0.107,0.75,0.005
28.73,-0.483,1.047,-0.149
28.74,-0.096,1.138,-0.043
28.75,-0.112,0.826,0.055
28.76,-0.167,1.023,0.182
28.77,-0.253,0.734,-0.132
28.78,-0.338,1.161,-0.168
28.79,-0.118,0.952,0.133
28.8,-0.107,1.045,0.168
28.81,-0.288,0.797,0.022
28.82,-0.424,1.014,-0.132
28.83,-0.118,1.234,-0.048
28.84,-0.15,0.745,0.145
28.85,-0.177,1.051,0.139
28.86,-0.358,0.772,-0.205
28.87,-0.263,1.192,-0.094
28.88,-0.012,0.992,0.071
28.89,-0.143,0.811,0.107
28.9,-0.314,0.948,0.031
28.91,-0.305,0.977,-0.171
28.92,-0.205,1.138,-0.019
28.93,0.006,0.807,0.169
28.94,-0.183,1.046,0.059
28.95,-0.408,0.778,-0.164
28.96,-0.082,1.2,-0.108
28.97,-0.08,0.901,0.042
28.98,-0.202,0.819,0.27
28.99,-0.313,1.082,-0.08
29.0,-0.328,0.812,-0.171
29.01,-0.171,1.262,0.095
29.02,-0.102,0.749,0.141
29.03,-0.229,0.995,0.002
29.04,-0.358,0.947,-0.168
29.05,-0.101,1.108,-0.04
29.06,-0.173,0.938,0.13
29.07,-0.201,0.76,0.179
29.08,-0.318,1.104,-0.166
29.09,-0.207,0.799,-0.169
29.1,-0.146,1.344,0.087
29.11,-0.068,0.643,0.101
29.12,-0.282,0.988,0.014
29.13,-0.334,1.031,-0.227
29.14,-0.073,0.997,-0.0
29.15,-0.191,1.01,0.135
29.16,-0.116,0.716,0.124
29.17,-0.428,1.182,-0.195
29.18,-0.223,0.837,-0.054
29.19,-0.094,1.2,0.1
29.2,-0.121,0.684,0.094
29.21,-0.365,1.01,-0.003
29.22,-0.261,1.03,-0.221
29.23,-0.107,0.95,0.04
29.24,-0.14,1.109,0.171
29.25,-0.094,0.668,-0.005
29.26,-0.487,1.184,-0.212
29.27,-0.028,0.913,-0.042
29.28,-0.164,1.173,0.101
29.29,-0.17,0.651,0.192
29.3,-0.358,1.113,-0.15
29.31,-0.242,0.901,-0.15
29.32,-0.12,1.107,0.142
29.33,-0.133,0.917,0.139
29.34,-0.215,0.741,-0.048
29.35,-0.432,1.344,-0.177
29.36,-0.091,0.799,0.003
29.37,-0.208,1.154,0.138
29.38,-0.038,0.707,0.097
29.39,-0.444,1.053,-0.172
29.4,-0.245,1.001,-0.073
29.41,-0.064,1.028,0.081
29.42,-0.122,0.973,0.088
29.43,-0.244,0.709,-0.072
29.44,-0.407,1.281,-0.16
29.45,-0.117,0.861,0.061
29.46,-0.165,1.093,0.139
29.47,-0.096,0.711,0.038
29.48,-0.425,1.092,-0.2
29.49,-0.12,1.095,-0.035
29.5,-0.087,0.857,0.161
29.51,-0.264,1.032,0.135
29.52,-0.302,0.706,-0.134
29.53,-0.295,1.315,-0.123
29.54,-0.135,0.858,0.103
29.55,-0.156,0.954,0.114
29.56,-0.197,0.826,-0.023
29.57,-0.385,1.056,-0.189
29.58,-0.122,1.082,-0.044
29.59,-0.099,0.763,0.126
29.6,-0.151,1.07,0.101
29.61,-0.31,0.735,-0.192
29.62,-0.215,1.236,-0.122
29.63,-0.09,0.953,0.115
29.64,-0.196,0.863,0.115
29.65,-0.276,0.926,-0.029
29.66,-0.307,0.986,-0.196
29.67,-0.111,1.156,0.0
29.68,-0.055,0.743,0.134
29.69,-0.116,1.041,0.022
29.7,-0.387,0.836,-0.197
29.71,-0.184,1.208,-0.07
29.72,-0.041,0.852,0.078
29.73,-0.178,0.858,0.117
29.74,-0.311,1.04,-0.106
29.75,-0.298,0.885,-0.148
29.76,-0.168,1.206,0.107
29.77,-0.031,0.687,0.113
29.78,-0.28,1.04,-0.027
29.79,-0.362,0.916,-0.135
29.8,-0.123,1.18,-0.017
29.81,-0.194,0.861,0.12
29.82,-0.051,0.81,0.084
29.83,-0.366,1.133,-0.218
29.84,-0.202,0.871,-0.048
29.85,-0.097,1.264,0.124
29.86,-0.171,0.664,0.133
29.87,-0.211,1.032,-0.056
29.88,-0.325,0.99,-0.186
29.89,-0.177,1.043,0.05
29.9,-0.061,0.987,0.113
29.91,-0.144,0.702,-0.001
29.92,-0.425,1.26,-0.176
29.93,-0.116,0.876,-0.029
29.94,-0.191,1.168,0.156
29.95,-0.163,0.706,0.194
29.96,-0.391,1.038,-0.078
29.97,-0.213,0.986,-0.207
29.98,-0.137,1.048,0.091
29.99,-0.174,0.966,0.163
30.0,-0.139,0.691,0.003
30.01,-0.533,1.325,-0.164
30.02,-0.09,0.812,-0.009
30.03,-0.129,1.149,0.133
30.04,-0.222,0.762,0.138
30.05,-0.287,0.995,-0.163
30.06,-0.296,1.077,-0.117
30.07,-0.073,0.971,0.097
30.08,-0.087,0.847,0.141
30.09,-0.313,0.821,-0.053
30.1,-0.431,1.238,-0.161
30.11,-0.025,0.805,0.01
30.12,-0.209,1.177,0.17
30.13,-0.094,0.668,0.041
30.14,-0.426,1.134,-0.213
30.15,-0.146,1.01,-0.054
30.16,-0.066,0.967,0.123
30.17,-0.258,0.905,0.174
30.18,-0.243,0.786,-0.145
30.19,-0.297,1.276,-0.163
30.2,-0.11,0.868,0.129
30.21,-0.19,1.035,0.169
30.22,-0.206,0.718,0.025
30.23,-0.351,1.188,-0.229
30.24,-0.142,0.976,-0.026
30.25,-0.177,0.884,0.209
30.26,-0.17,0.999,0.12
30.27,-0.352,0.769,-0.168
30.28,-0.166,1.293,-0.099
30.29,-0.101,0.838,0.064
30.3,-0.158,0.982,0.163
30.31,-0.231,0.819,0.021
30.32,-0.396,1.066,-0.177
30.33,-0.17,1.086,-0.025
30.34,-0.085,0.846,0.129
30.35,-0.183,1.017,0.057
30.36,-0.322,0.808,-0.159
30.37,-0.179,1.333,-0.074
30.38,-0.07,0.789,0.108
30.39,-0.17,0.943,0.126
30.4,-0.268,0.895,-0.069
30.41,-0.388,0.956,-0.203
30.42,-0.078,1.162,0.052
30.43,-0.127,0.798,0.127
30.44,-0.201,1.034,0.05
30.45,-0.36,0.846,-0.214
30.46,-0.182,1.227,-0.055
30.47,-0.093,0.786,0.107
30.48,-0.194,0.889,0.152
30.49,-0.296,1.005,-0.168
30.5,-0.28,0.877,-0.135
30.51,-0.156,1.292,0.159
30.52,-0.14,0.692,0.138
30.53,-0.297,1.038,-0.019
30.54,-0.297,0.926,-0.162
30.55,-0.19,1.109,-0.024
30.56,-0.223,0.879,0.202
30.57,-0.088,0.876,0.079
30.58,-0.398,1.033,-0.228
30.59,-0.157,0.893,-0.021
30.6,-0.062,1.289,0.085
30.61,-0.151,0.617,0.094
30.62,-0.244,1.088,-0.022
30.63,-0.327,0.927,-0.179
30.64,-0.227,1.106,0.059
30.65,-0.053,0.99,0.148
30.66,-0.172,0.779,0.099
30.67,-0.42,1.181,-0.172
30.68,-0.121,0.933,-0.06
30.69,-0.199,1.183,0.067
30.7,-0.119,0.648,0.239
30.71,-0.402,1.1,-0.088
30.72,-0.249,0.86,-0.208
30.73,-0.061,1.116,0.1
30.74,-0.183,1.019,0.125
30.75,-0.118,0.637,0.042
30.76,-0.359,1.227,-0.252
30.77,-0.075,0.84,-0.046
30.78,-0.26,1.16,0.165
30.79,-0.019,0.701,0.132
30.8,-0.457,1.14,-0.163
30.81,-0.204,0.845,-0.087
30.82,-0.07,1.239,0.095
30.83,-0.146,0.788,0.084
30.84,-0.253,0.835,0.011
30.85,-0.35,1.234,-0.256
30.86,-0.072,0.776,-0.003
30.87,-0.228,1.21,0.179
30.88,-0.035,0.666,0.063
30.89,-0.469,1.209,-0.213
30.9,-0.027,0.924,-0.071
30.91,-0.114,1.162,0.088
30.92,-0.146,0.71,0.197
30.93,-0.271,1.01,-0.073
30.94,-0.315,1.07,-0.213
30.95,-0.196,0.876,0.125
30.96,-0.101,1.17,0.142
30.97,-0.162,0.623,0.018
30.98,-0.499,1.244,-0.141
30.99,-0.116,0.9,-0.017
31.0,-0.16,1.079,0.098
31.01,-0.149,0.791,0.138
31.02,-0.268,0.871,-0.204
31.03,-0.219,1.179,-0.13
31.04,-0.132,0.959,0.112
31.05,-0.141,1.036,0.121
31.06,-0.184,0.647,0.044
31.07,-0.387,1.276,-0.217
31.08,-0.181,0.87,0.008
31.09,-0.178,0.991,0.146
31.1,-0.117,0.909,0.106
31.11,-0.392,0.85,-0.185
31.12,-0.24,1.211,-0.048
31.13,-0.03,0.926,0.066
31.14,-0.132,0.983,0.106
31.15,-0.292,0.758,0.038
31.16,-0.308,1.232,-0.213
31.17,-0.113,0.927,-0.071
31.18,-0.079,0.962,0.181
31.19,-0.123,0.94,0.037
31.2,-0.455,0.853,-0.139
31.21,-0.102,1.302,-0.082
31.22,-0.116,0.744,0.097
31.23,-0.208,1.01,0.185
31.24,-0.238,0.82,-0.115
31.25,-0.377,1.086,-0.136
31.26,-0.171,1.039,0.112
31.27,-0.1,0.885,0.173
31.28,-0.181,0.967,-0.014
31.29,-0.368,0.889,-0.137
31.3,-0.191,1.245,-0.104
31.31,-0.057,0.735,0.08
31.32,-0.066,1.047,0.134
31.33,-0.416,0.841,-0.129
31.34,-0.272,0.992,-0.132
31.35,-0.056,1.196,0.07
31.36,-0.151,0.655,0.155
31.37,-0.259,1.074,0.046
31.38,-0.336,0.914,-0.184
31.39,-0.2,1.162,-0.01
31.4,-0.095,0.787,0.115
31.41,-0.15,1.002,0.103
31.42,-0.35,0.902,-0.208
31.43,-0.228,1.007,-0.029
31.44,-0.158,1.195,0.095
31.45,-0.084,0.635,0.132
31.46,-0.292,1.118,0.0
31.47,-0.363,0.891,-0.202
31.48,-0.082,1.153,0.0
31.49,-0.168,0.866,0.163
31.5,-0.136,0.917,0.058
31.51,-0.336,1.019,-0.236
31.52,-0.216,0.94,-0.031
31.53,-0.111,1.163,0.065
31.54,-0.123,0.619,0.133
31.55,-0.389,1.169,-0.05
31.56,-0.269,0.893,-0.166
31.57,-0.146,1.151,0.028
31.58,-0.036,0.865,0.116
31.59,-0.201,0.87,0.057
31.6,-0.438,1.149,-0.196
31.61,-0.079,0.908,-0.071
31.62,-0.146,1.133,0.102
31.63,-0.114,0.644,0.148
31.64,-0.422,1.159,-0.135
31.65,-0.199,0.873,-0.13
31.66,-0.026,1.197,0.05
31.67,-0.172,0.832,0.167
31.68,-0.254,0.757,-0.015
31.69,-0.384,1.277,-0.192
31.7,-0.096,0.924,0.013
31.71,-0.148,1.113,0.136
31.72,-0.129,0.653,0.077
31.73,-0.447,1.221,-0.169
31.74,-0.065,0.928,-0.071
31.75,-0.14,1.135,0.097
31.76,-0.197,0.733,0.17
31.77,-0.267,0.954,-0.081
31.78,-0.342,1.111,-0.171
31.79,-0.206,0.911,0.18
31.8,-0.087,1.156,0.12
31.81,-0.223,0.587,0.002
31.82,-0.396,1.246,-0.145
31.83,-0.048,0.976,-0.124
31.84,-0.204,0.991,0.093
31.85,-0.034,0.861,0.183
31.86,-0.411,0.885,-0.162
31.87,-0.262,1.117,-0.126
31.88,0.026,1.012,0.097
31.89,-0.267,0.979,0.132
31.9,-0.149,0.639,0.051
31.91,-0.336,1.363,-0.2
31.92,-0.166,0.869,-0.013
31.93,-0.235,0.984,0.189
31.94,-0.079,0.898,0.096
31.95,-0.443,0.826,-0.219
31.96,-0.199,1.232,-0.043
31.97,0.008,0.862,0.056
31.98,-0.171,0.943,0.111
31.99,-0.19,0.778,0.016
32.0,-0.449,1.229,-0.229
32.01,-0.129,0.904,-0.005
32.02,0.017,0.985,0.139
32.03,-0.21,0.916,0.043
32.04,-0.452,0.83,-0.084
32.05,-0.147,1.375,-0.056
32.06,-0.104,0.735,0.046
32.07,-0.166,1.008,0.237
32.08,-0.263,0.826,-0.151
32.09,-0.342,1.068,-0.173
32.1,-0.037,1.1,0.086
32.11,-0.159,0.847,0.141
32.12,-0.265,0.989,0.012
32.13,-0.344,0.927,-0.162
32.14,-0.201,1.259,-0.034
32.15,-0.125,0.681,0.143
32.16,-0.096,1.041,0.143
32.17,-0.408,0.846,-0.198
32.18,-0.184,0.977,-0.078
32.19,-0.115,1.229,0.034
32.2,-0.065,0.617,0.113
32.21,-0.248,1.098,0.017
32.22,-0.337,0.923,-0.239
32.23,-0.191,1.164,0.021
32.24,-0.116,0.838,0.216
32.25,-0.233,0.93,0.039
32.26,-0.355,0.918,-0.18
32.27,-0.083,1.062,-0.04
32.28,-0.2,1.118,0.092
32.29,-0.107,0.621,0.175
32.3,-0.329,1.143,-0.063
32.31,-0.336,0.808,-0.193
32.32,-0.085,1.191,0.073
32.33,-0.098,0.907,0.122
32.34,-0.24,0.85,-0.02
32.35,-0.364,1.087,-0.173
32.36,-0.052,0.994,-0.093
32.37,-0.15,1.052,0.096
32.38,-0.066,0.666,0.191
32.39,-0.389,1.19,-0.179
32.4,-0.268,0.809,-0.152
32.41,-0.036,1.23,0.09
32.42,-0.105,0.786,0.101
32.43,-0.225,0.846,0.01
32.44,-0.367,1.233,-0.217
32.45,-0.167,0.812,0.017
32.46,-0.221,1.147,0.228
32.47,-0.039,0.67,0.082
32.48,-0.438,1.15,-0.198
32.49,-0.132,0.926,-0.037
32.5,-0.158,1.113,0.058
32.51,-0.172,0.684,0.222
32.52,-0.292,1.031,-0.115
32.53,-0.326,1.079,-0.195
32.54,-0.114,0.961,0.091
32.55,-0.151,1.072,0.115
32.56,-0.197,0.614,0.032
32.57,-0.404,1.334,-0.156
32.58,-0.112,0.877,-0.073
32.59,-0.178,1.006,0.141
32.6,-0.083,0.809,0.152
32.61,-0.436,0.967,-0.169
32.62,-0.204,1.104,-0.105
32.63,-0.078,0.961,0.073
32.64,-0.141,0.997,0.111
32.65,-0.187,0.664,-0.013
32.66,-0.397,1.345,-0.22
32.67,-0.012,0.817,-0.054
32.68,-0.182,1.08,0.193
32.69,-0.139,0.842,0.058
32.7,-0.339,0.873,-0.199
32.71,-0.208,1.239,-0.05
32.72,-0.08,0.857,0.148
32.73,-0.212,1.031,0.137
32.74,-0.284,0.706,-0.054
32.75,-0.387,1.21,-0.188
32.76,-0.065,0.957,0.063
32.77,-0.103,0.975,0.106
32.78,-0.164,0.874,-0.034
32.79,-0.388,0.915,-0.14
32.8,-0.199,1.26,-0.044
32.81,-0.096,0.717,0.1
32.82,-0.082,1.065,0.109
32.83,-0.366,0.754,-0.135
32.84,-0.334,1.153,-0.114
32.85,0.046,1.038,0.021
32.86,-0.16,0.784,0.137
32.87,-0.28,0.982,0.018
32.88,-0.303,0.913,-0.212
32.89,-0.154,1.193,0.013
32.9,-0.107,0.74,0.219
32.91,-0.18,1.041,0.071
32.92,-0.365,0.827,-0.214
32.93,-0.206,1.104,-0.039
32.94,-0.084,1.031,0.141
32.95,-0.182,0.685,0.178
32.96,-0.31,1.112,-0.041
32.97,-0.253,0.855,-0.2
32.98,-0.193,1.248,0.09
32.99,-0.065,0.726,0.147
33.0,-0.208,0.963,-0.006
33.01,-0.379,1.013,-0.163
33.02,-0.148,1.014,-0.049
33.03,-0.214,0.98,0.102
33.04,-0.054,0.739,0.148
33.05,-0.375,1.142,-0.16
33.06,-0.261,0.761,-0.097
33.07,-0.1,1.296,0.061
33.08,-0.115,0.706,0.114
33.09,-0.223,0.922,0.018
33.1,-0.38,1.113,-0.213
33.11,-0.094,0.923,0.011
33.12,-0.172,1.168,0.134
33.13,-0.166,0.624,0.096
33.14,-0.447,1.155,-0.181
33.15,-0.14,0.933,-0.052
33.16,-0.19,1.166,0.107
33.17,-0.122,0.698,0.161
33.18,-0.28,0.992,-0.077
33.19,-0.356,1.088,-0.219
33.2,-0.075,0.886,0.111
33.21,-0.178,1.214,0.117
33.22,-0.124,0.584,0.015
33.23,-0.437,1.248,-0.165
33.24,-0.2,0.954,-0.013
33.25,-0.146,1.043,0.082
33.26,-0.125,0.841,0.155
33.27,-0.422,0.842,-0.111
33.28,-0.233,1.164,-0.146
33.29,-0.089,0.956,0.096
33.3,-0.179,0.998,0.125
33.31,-0.174,0.674,0.025
33.32,-0.399,1.327,-0.241
33.33,-0.013,0.812,0.003
33.34,-0.26,1.174,0.221
33.35,-0.149,0.711,0.08
33.36,-0.39,1.049,-0.173
33.37,-0.173,1.171,-0.064
33.38,-0.106,0.846,0.131
33.39,-0.185,0.99,0.154
33.4,-0.254,0.768,-0.115
33.41,-0.352,1.244,-0.152
33.42,-0.077,0.925,0.112
33.43,-0.157,1.048,0.124
33.44,-0.171,0.789,0.007
33.45,-0.417,1.094,-0.136
33.46,-0.191,1.114,-0.066
33.47,-0.153,0.772,0.185
33.48,-0.122,1.097,0.106
33.49,-0.318,0.737,-0.188
33.5,-0.294,1.266,-0.041
33.51,-0.047,0.977,0.08
33.52,-0.125,0.81,0.099
33.53,-0.235,0.936,0.037
33.54,-0.399,1.053,-0.207
33.55,-0.194,1.112,0.013
33.56,-0.119,0.795,0.196
33.57,-0.201,1.033,0.046
33.58,-0.344,0.806,-0.19
33.59,-0.1,1.244,-0.125
33.6,-0.07,0.804,0.039
33.61,-0.132,0.858,0.224
33.62,-0.327,1.037,-0.076
33.63,-0.297,0.869,-0.169
33.64,-0.098,1.27,0.098
33.65,-0.168,0.714,0.145
33.66,-0.184,1.033,0.032
33.67,-0.409,0.932,-0.198
33.68,-0.137,1.122,-0.049
33.69,-0.121,0.863,0.116
33.7,-0.135,0.824,0.177
33.71,-0.415,1.082,-0.177
33.72,-0.203,0.805,-0.136
33.73,-0.047,1.322,0.056
33.74,-0.091,0.607,0.066
33.75,-0.273,1.035,0.046
33.76,-0.348,1.016,-0.225
33.77,-0.094,0.96,-0.009
33.78,-0.128,0.994,0.184
33.79,-0.113,0.768,0.067
33.8,-0.453,1.115,-0.222
33.81,-0.095,0.859,-0.033
33.82,-0.125,1.227,0.088
33.83,-0.153,0.664,0.168
33.84,-0.297,1.089,-0.058
33.85,-0.309,0.999,-0.213
33.86,-0.155,1.003,0.105
33.87,-0.105,1.053,0.126
33.88,-0.19,0.643,0.009
33.89,-0.469,1.272,-0.167
33.9,-0.029,0.857,-0.102
33.91,-0.188,1.132,0.121
33.92,-0.11,0.776,0.179
33.93,-0.42,0.999,-0.184
33.94,-0.315,0.994,-0.118
33.95,0.022,1.049,0.11
33.96,-0.192,1.006,0.132
33.97,-0.314,0.644,0.038
33.98,-0.326,1.323,-0.236
33.99,-0.083,0.859,-0.018
34.0,-0.246,1.101,0.213
34.01,-0.026,0.739,0.047
34.02,-0.451,1.023,-0.213
34.03,-0.198,1.167,-0.001
34.04,-0.052,0.862,0.094
34.05,-0.239,1.022,0.132
34.06,-0.156,0.744,-0.101
34.07,-0.36,1.291,-0.203
34.08,-0.111,0.855,0.091
34.09,-0.027,1.058,0.09
34.1,-0.173,0.785,-0.004
34.11,-0.428,1.021,-0.133
34.12,-0.144,1.192,-0.064
34.13,-0.174,0.875,0.188
34.14,-0.155,1.01,0.099
34.15,-0.4,0.747,-0.177
34.16,-0.236,1.286,-0.033
34.17,-0.08,0.89,0.067
34.18,-0.176,0.909,0.104
34.19,-0.135,0.847,-0.049
34.2,-0.359,1.122,-0.201
34.21,-0.136,1.07,0.037
34.22,-0.091,0.904,0.145
34.23,-0.194,0.943,0.013
34.24,-0.363,0.819,-0.168
34.25,-0.171,1.342,-0.057
34.26,-0.13,0.716,0.081
34.27,-0.105,0.951,0.169
34.28,-0.293,0.938,-0.142
34.29,-0.335,0.956,-0.116
34.3,-0.106,1.195,0.13
34.31,-0.128,0.738,0.146
34.32,-0.288,0.995,-0.033
34.33,-0.271,0.928,-0.189
34.34,-0.13,1.215,-0.033
34.35,-0.241,0.726,0.191
34.36,-0.137,0.946,0.152
34.37,-0.375,0.964,-0.244
34.38,-0.115,0.972,-0.021
34.39,-0.123,1.23,0.101
34.4,-0.191,0.622,0.103
34.41,-0.228,1.126,-0.04
34.42,-0.325,0.918,-0.251
34.43,-0.171,1.122,0.094
34.44,-0.051,0.87,0.102
34.45,-0.156,0.815,0.01
34.46,-0.392,1.156,-0.174
34.47,-0.181,0.923,-0.07
34.48,-0.13,1.053,0.048
34.49,-0.133,0.706,0.218
34.5,-0.43,1.101,-0.145
34.51,-0.234,0.842,-0.162
34.52,-0.034,1.201,0.09
34.53,-0.111,0.797,0.13
34.54,-0.233,0.786,0.083
34.55,-0.411,1.291,-0.221
34.56,-0.038,0.772,-0.049
34.57,-0.201,1.19,0.204
34.58,-0.101,0.672,0.101
34.59,-0.457,1.136,-0.215
34.6,-0.188,1.001,-0.077
34.61,0.008,1.066,0.031
34.62,-0.151,0.837,0.154
34.63,-0.211,0.78,-0.014
34.64,-0.445,1.282,-0.182
34.65,-0.076,0.792,0.061
34.66,-0.165,1.203,0.152
34.67,-0.096,0.617,0.019
34.68,-0.457,1.147,-0.207
34.69,-0.078,1.074,-0.082
34.7,-0.053,0.845,0.073
34.71,-0.17,1.019,0.188
34.72,-0.296,0.758,-0.134
34.73,-0.324,1.156,-0.206
34.74,0.015,0.918,0.113
34.75,-0.195,1.051,0.134
34.76,-0.254,0.721,0.019
34.77,-0.392,1.175,-0.167
34.78,-0.03,1.018,-0.087
34.79,-0.215,0.848,0.219
34.8,-0.141,1.019,0.105
34.81,-0.369,0.762,-0.235
34.82,-0.225,1.281,-0.027
34.83,-0.067,0.844,0.082
34.84,-0.184,0.919,0.114
34.85,-0.245,0.851,-0.059
34.86,-0.386,1.074,-0.154
34.87,-0.172,1.114,0.039
34.88,-0.499,1.223,-0.175
34.89,-0.056,0.894,-0.04
34.9,-0.227,1.065,0.099
34.91,-0.113,0.805,0.2
34.92,-0.382,0.924,-0.18
34.93,-0.263,1.119,-0.139
34.94,0.003,0.915,0.1
34.95,-0.192,1.004,0.086
34.96,-0.218,0.648,0.01
34.97,-0.35,1.36,-0.217
34.98,-0.068,0.914,-0.017
34.99,-0.199,1.018,0.232
35.0,-0.128,0.826,0.03
35.01,-0.465,0.929,-0.143
35.02,-0.083,1.289,-0.046
35.03,-0.136,0.785,0.116
35.04,-0.225,1.005,0.187
35.05,-0.176,0.804,-0.162
35.06,-0.34,1.132,-0.182
35.07,-0.078,1.007,0.179
35.08,-0.166,0.945,0.139
35.09,-0.267,0.878,-0.014
35.1,-0.282,0.999,-0.156
35.11,-0.226,1.233,0.002
35.12,-0.197,0.694,0.191
35.13,-0.112,1.08,0.092
35.14,-0.384,0.783,-0.18
35.15,-0.205,1.121,-0.072
35.16,0.001,1.076,0.052
35.17,-0.188,0.706,0.139
35.18,-0.208,1.05,0.026
35.19,-0.365,0.96,-0.241
35.2,-0.172,1.144,0.042
35.21,-0.076,0.807,0.188
35.22,-0.22,0.98,0.046
35.23,-0.369,0.89,-0.2
35.24,-0.085,1.143,-0.055
35.25,-0.118,0.969,0.118
35.26,-0.198,0.724,0.209
35.27,-0.308,1.12,-0.12
35.28,-0.323,0.777,-0.201
35.29,-0.069,1.257,0.156
35.3,-0.127,0.751,0.127
35.31,-0.251,0.916,-0.026
35.32,-0.308,1.066,-0.162
35.33,-0.188,1.042,-0.03
35.34,-0.187,0.948,0.152
35.35,-0.104,0.753,0.124
35.36,-0.491,1.151,-0.169
35.37,-0.174,0.831,-0.037
35.38,-0.059,1.288,0.141
35.39,-0.168,0.676,0.108
35.4,-0.288,0.938,-0.009
35.41,-0.289,1.108,-0.269
35.42,-0.133,0.946,0.026
35.43,-0.108,1.073,0.166
35.44,-0.121,0.638,-0.013
35.45,-0.448,1.226,-0.168
35.46,-0.092,0.942,-0.011
35.47,-0.122,1.058,0.112
35.48,-0.172,0.781,0.173
35.49,-0.324,0.968,-0.135
35.5,-0.331,1.102,-0.178
35.51,-0.029,0.954,0.132
35.52,-0.133,1.097,0.076
35.53,-0.188,0.596,0.002
35.54,-0.39,1.347,-0.144
35.55,-0.112,0.917,-0.023
35.56,-0.218,0.993,0.171
35.57,-0.068,0.881,0.089
35.58,-0.497,0.882,-0.201
35.59,-0.232,1.177,0.001
35.6,-0.009,0.912,0.128
35.61,-0.273,1.001,0.115
35.62,-0.174,0.727,-0.083
35.63,-0.31,1.261,-0.199
35.64,-0.181,0.932,0.143
35.65,-0.118,0.924,0.173
35.66,-0.294,0.891,-0.042
35.67,-0.323,0.937,-0.198
35.68,-0.07,1.09,-0.088
35.69,-0.163,0.81,0.16
35.7,-0.054,1.055,0.07
35.71,-0.405,0.804,-0.233
35.72,-0.208,1.281,-0.044
35.73,-0.004,0.846,0.072
35.74,-0.249,0.948,0.197
35.75,-0.183,0.85,-0.079
35.76,-0.377,1.049,-0.176
35.77,-0.149,1.139,0.071
35.78,-0.031,0.777,0.108
35.79,-0.206,0.987,0.019
35.8,-0.395,0.926,-0.131
35.81,-0.123,1.235,-0.066
35.82,-0.137,0.747,0.139
35.83,-0.146,0.954,0.197
35.84,-0.399,0.951,-0.189
35.85,-0.207,0.909,-0.104
35.86,-0.054,1.292,0.067
35.87,-0.132,0.596,0.099
35.88,-0.285,1.108,0.021
35.89,-0.319,0.964,-0.259
35.9,-0.11,1.055,0.021
35.91,-0.099,0.903,0.223
35.92,-0.11,0.872,0.013
35.93,-0.45,1.095,-0.188
35.94,-0.124,0.966,-0.013
35.95,-0.156,1.122,0.085
35.96,-0.118,0.612,0.142
35.97,-0.323,1.187,-0.119
35.98,-0.374,0.868,-0.161
35.99,-0.088,1.146,0.156
36.0,-0.101,0.879,0.135
36.01,-0.307,0.76,-0.016
36.02,-0.335,1.233,-0.186
36.03,-0.062,0.883,-0.019
36.04,-0.304,1.087,0.234
36.05,-0.037,0.686,0.099
36.06,-0.472,1.152,-0.248
36.07,-0.216,0.961,0.001
36.08,-0.036,1.079,0.088
36.09,-0.22,0.861,0.091
36.1,-0.25,0.806,-0.029
36.11,-0.342,1.277,-0.208
36.12,-0.094,0.837,0.107
36.13,-0.088,1.118,0.114
36.14,-0.203,0.631,-0.021
36.15,-0.463,1.152,-0.147
36.16,-0.042,1.065,-0.063
36.17,-0.152,0.838,0.104
36.18,-0.076,1.016,0.135
36.19,-0.374,0.77,-0.179
36.2,-0.302,1.238,-0.064
36.21,0.022,0.895,0.105
36.22,-0.193,0.965,0.073
36.23,-0.23,0.765,-0.053
36.24,-0.32,1.233,-0.131
36.25,-0.195,1.044,0.086
36.26,-0.068,0.763,0.149
36.27,-0.156,0.992,-0.055
36.28,-0.463,0.873,-0.175
36.29,-0.127,1.221,-0.04
36.3,-0.111,0.737,0.125
36.31,-0.142,1.009,0.128
36.32,-0.336,0.893,-0.226
36.33,-0.263,1.002,-0.1
36.34,0.021,1.147,0.075
36.35,-0.14,0.675,0.133
36.36,-0.364,1.088,-0.012
36.37,-0.289,0.877,-0.23
36.38,-0.135,1.168,0.062
36.39,-0.099,0.768,0.167
36.4,-0.195,0.915,0.012
36.41,-0.465,1.033,-0.232
36.42,-0.021,0.967,-0.086
36.43,-0.147,1.059,0.116
36.44,-0.11,0.71,0.127
36.45,-0.384,1.155,-0.203
36.46,-0.239,0.853,-0.133
36.47,-0.066,1.233,0.136
36.48,-0.104,0.732,0.112
36.49,-0.342,0.885,0.004
36.5,-0.273,0.996,-0.218
36.51,-0.156,1.05,0.081
36.52,-0.144,0.987,0.157
36.53,-0.153,0.684,-0.004
36.54,-0.488,1.261,-0.169
36.55,-0.022,0.906,-0.055
36.56,-0.178,1.076,0.158
36.57,-0.201,0.72,0.186
36.58,-0.382,1.059,-0.227
36.59,-0.204,0.978,-0.148
36.6,0.016,0.995,0.114
36.61,-0.185,0.974,0.144
36.62,-0.32,0.717,-0.026
36.63,-0.311,1.3,-0.241
36.64,-0.004,0.835,0.036
36.65,-0.106,1.134,0.17
36.66,-0.155,0.69,0.018
36.67,-0.543,1.096,-0.152
36.68,-0.077,1.101,-0.063
36.69,-0.145,0.811,0.118
36.7,-0.141,1.033,0.125
36.71,-0.355,0.726,-0.221
36.72,-0.271,1.292,-0.048
36.73,-0.01,0.871,0.1
36.74,-0.214,0.91,0.119
36.75,-0.201,0.851,-0.035
36.76,-0.291,1.117,-0.231
36.77,-0.167,1.088,0.079
36.78,-0.051,0.787,0.179
36.79,-0.249,1.013,0.027
36.8,-0.367,0.894,-0.171
36.81,-0.175,1.294,-0.051
36.82,-0.092,0.688,0.106
36.83,-0.113,0.971,0.136
36.84,-0.361,0.929,-0.194
36.85,-0.254,1.003,-0.079
36.86,-0.053,1.24,0.113
36.87,-0.144,0.591,0.095
36.88,-0.262,1.106,-0.012
36.89,-0.36,0.939,-0.256
36.9,-0.081,1.104,0.01
36.91,-0.039,0.893,0.154
36.92,-0.24,0.821,0.041
36.93,-0.416,1.078,-0.168
36.94,-0.109,1.002,-0.076
36.95,-0.079,1.032,0.069
36.96,-0.106,0.722,0.162
36.97,-0.409,1.159,-0.171
36.98,-0.234,0.838,-0.14
36.99,0.033,1.222,0.087
37.0,-0.111,0.794,0.119
37.01,-0.295,0.842,0.033
37.02,-0.368,1.241,-0.208
37.03,-0.073,0.845,0.016
37.04,-0.169,1.198,0.183
37.05,-0.149,0.595,0.054
37.06,-0.456,1.19,-0.187
37.07,-0.067,1.014,-0.092
37.08,-0.073,0.963,0.052
37.09,-0.118,0.887,0.195
37.1,-0.336,0.797,-0.13
37.11,-0.336,1.247,-0.099
37.12,0.062,0.917,0.099
37.13,-0.177,1.0,0.105
37.14,-0.268,0.694,0.068
37.15,-0.384,1.279,-0.222
37.16,-0.125,0.93,-0.076
37.17,-0.06,0.928,0.136
37.18,-0.103,0.911,-0.001
37.19,-0.46,0.848,-0.149
37.2,-0.096,1.316,-0.092
37.21,-0.049,0.719,0.081
37.22,-0.173,1.074,0.193
37.23,-0.291,0.747,-0.117
37.24,-0.343,1.11,-0.139
37.25,0.011,1.143,0.086
37.26,-0.099,0.719,0.109
37.27,-0.349,1.01,0.066
37.28,-0.303,0.91,-0.204
37.29,-0.132,1.218,-0.012
37.3,-0.078,0.766,0.189
37.31,-0.187,0.995,0.04
37.32,-0.461,0.846,-0.116
37.33,-0.144,1.231,-0.077
37.34,-0.163,0.791,0.106
37.35,-0.146,0.884,0.223
37.36,-0.345,0.989,-0.155
37.37,-0.314,0.843,-0.12
37.38,0.001,1.332,0.096
37.39,-0.053,0.585,0.11
37.4,-0.349,1.062,0.091
37.41,-0.26,0.973,-0.27
37.42,-0.135,1.042,0.004
37.43,-0.166,0.927,0.247
37.44,-0.162,0.785,0.068
37.45,-0.472,1.083,-0.208
37.46,-0.03,0.922,-0.068
37.47,-0.147,1.204,0.083
37.48,-0.2,0.65,0.205
37.49,-0.196,1.085,-0.145
37.5,-0.292,0.924,-0.209
37.51,-0.067,1.094,0.184
37.52,-0.1,0.935,0.111
37.53,-0.308,0.715,0.021
37.54,-0.395,1.291,-0.165
37.55,-0.144,0.822,-0.003
37.56,-0.274,1.148,0.264
37.57,-0.076,0.689,0.083
37.58,-0.469,1.061,-0.215
37.59,-0.139,1.078,-0.05
37.6,-0.054,0.997,0.093
37.61,-0.26,0.903,0.207
37.62,-0.207,0.792,-0.095
37.63,-0.36,1.236,-0.238
37.64,-0.042,0.896,0.189
37.65,-0.193,1.147,0.168
37.66,-0.257,0.63,-0.001
37.67,-0.349,1.207,-0.166
37.68,-0.156,1.088,-0.079
37.69,-0.222,0.823,0.199
37.7,-0.092,1.038,0.14
37.71,-0.368,0.721,-0.228
37.72,-0.253,1.273,-0.039
37.73,0.018,0.9,0.099
37.74,-0.259,0.943,0.117
37.75,-0.181,0.843,-0.023
37.76,-0.351,1.11,-0.245
37.77,-0.201,1.078,0.061
37.78,-0.042,0.812,0.136
37.79,-0.227,0.977,0.011
37.8,-0.38,0.859,-0.115
37.81,-0.107,1.314,-0.111
37.82,-0.07,0.668,0.112
37.83,-0.189,1.002,0.173
37.84,-0.332,0.927,-0.187
37.85,-0.257,0.915,-0.137
37.86,-0.01,1.306,0.166
37.87,-0.16,0.629,0.097
37.88,-0.33,1.044,0.023
37.89,-0.296,0.955,-0.181
37.9,-0.172,1.147,0.037
37.91,-0.152,0.804,0.234
37.92,-0.128,0.907,0.067
37.93,-0.437,0.978,-0.248
37.94,-0.058,0.965,-0.046
37.95,-0.12,1.179,0.111
37.96,-0.204,0.64,0.196
37.97,-0.28,1.149,-0.114
37.98,-0.306,0.854,-0.21
37.99,-0.134,1.161,0.163
38.0,-0.066,0.869,0.146
38.01,-0.325,0.768,-0.038
38.02,-0.273,1.198,-0.191
38.03,-0.008,0.944,-0.092
38.04,-0.363,1.107,0.233
38.05,0.041,0.656,0.115
38.06,-0.425,1.166,-0.239
38.07,-0.24,0.926,-0.028
38.08,0.012,1.104,0.09
38.09,-0.204,0.876,0.142
38.1,-0.299,0.781,-0.041
38.11,-0.317,1.254,-0.223
38.12,-0.193,0.98,0.104
38.13,-0.108,1.051,0.115
38.14,-0.142,0.616,0.038
38.15,-0.591,1.301,-0.149
38.16,-0.035,0.896,-0.001
38.17,-0.206,1.124,0.113
38.18,-0.194,0.799,0.142
38.19,-0.328,0.943,-0.17
38.2,-0.24,1.146,-0.165
38.21,-0.036,0.886,0.107
38.22,-0.101,1.029,0.119
38.23,-0.309,0.672,-0.007
38.24,-0.33,1.297,-0.214
38.25,-0.115,0.902,0.05
38.26,-0.225,1.023,0.211
38.27,-0.094,0.828,-0.006
38.28,-0.393,0.958,-0.2
38.29,-0.161,1.225,0.006
38.3,-0.115,0.757,0.119
38.31,-0.135,1.025,0.11
38.32,-0.292,0.775,-0.089
38.33,-0.391,1.173,-0.129
38.34,-0.114,0.946,0.137
38.35,-0.118,0.927,0.123
38.36,-0.251,0.887,-0.042
38.37,-0.285,0.979,-0.204
38.38,-0.086,1.237,-0.013
38.39,-0.194,0.696,0.235
38.4,-0.127,1.035,0.059
38.41,-0.379,0.83,-0.237
38.42,-0.083,1.185,-0.093
38.43,-0.064,0.921,0.065
38.44,-0.19,0.794,0.205
38.45,-0.282,1.055,-0.098
38.46,-0.287,0.869,-0.186
38.47,-0.167,1.22,0.15
38.48,-0.086,0.708,0.156
38.49,-0.221,1.019,-0.036
38.5,-0.352,0.989,-0.197
38.51,-0.106,1.062,-0.011
38.52,-0.181,0.947,0.148
38.53,-0.078,0.747,0.105
38.54,-0.405,1.178,-0.172
38.55,-0.259,0.912,-0.03
38.56,-0.144,1.19,0.097
38.57,-0.134,0.647,0.147
38.58,-0.248,1.079,-0.106
38.59,-0.317,0.947,-0.256
38.6,-0.178,0.977,0.118
38.61,-0.083,1.09,0.099
38.62,-0.14,0.655,-0.027
38.63,-0.409,1.272,-0.182
38.64,-0.112,0.836,-0.075
38.65,-0.23,1.121,0.137
38.66,-0.019,0.75,0.189
38.67,-0.396,0.992,-0.176
38.68,-0.299,1.002,-0.122
38.69,0.028,1.093,0.09
38.7,-0.146,0.926,0.068
38.71,-0.141,0.688,0.073
38.72,-0.457,1.385,-0.271
38.73,-0.094,0.722,-0.027
38.74,-0.201,1.181,0.258
38.75,-0.158,0.687,0.037
38.76,-0.453,0.996,-0.155
38.77,-0.099,1.207,-0.085
38.78,-0.067,0.867,0.084
38.79,-0.175,1.029,0.161
38.8,-0.13,0.722,-0.131
38.81,-0.44,1.265,-0.176
38.82,-0.106,0.888,0.095
38.83,-0.126,1.029,0.112
38.84,-0.189,0.767,-0.006
38.85,-0.427,1.093,-0.124
38.86,-0.176,1.139,-0.073
38.87,-0.105,0.744,0.146
38.88,-0.131,1.144,0.14
38.89,-0.302,0.658,-0.206
38.9,-0.312,1.175,-0.032
38.91,0.041,1.004,0.057
38.92,-0.165,0.836,0.07
38.93,-0.177,0.803,-0.019
38.94,-0.404,1.159,-0.21
38.95,-0.154,1.054,0.064
38.96,-0.017,0.897,0.09
38.97,-0.242,0.936,-0.006
38.98,-0.334,0.837,-0.074
38.99,-0.118,1.369,-0.104
39.0,-0.125,0.625,0.088
39.01,-0.135,1.044,0.162
39.02,-0.326,0.864,-0.18
39.03,-0.289,0.934,-0.166
39.04,0.025,1.248,0.085
39.05,-0.105,0.658,0.093
39.06,-0.354,1.044,0.05
39.07,-0.251,0.869,-0.243
39.08,-0.161,1.162,-0.009
39.09,-0.05,0.825,0.195
39.1,-0.18,0.928,0.061
39.11,-0.351,0.947,-0.201
39.12,-0.128,1.059,-0.056
39.13,-0.106,1.096,0.075
39.14,-0.109,0.657,0.184
39.15,-0.367,1.173,-0.09
39.16,-0.266,0.768,-0.219
39.17,-0.081,1.26,0.125
39.18,-0.154,0.828,0.12
39.19,-0.195,0.826,0.03
39.2,-0.352,1.205,-0.188
39.21,-0.168,0.888,-0.054
39.22,-0.171,1.099,0.135
39.23,-0.008,0.705,0.093
39.24,-0.412,1.097,-0.196
39.25,-0.208,0.854,-0.084
39.26,-0.036,1.255,0.051
39.27,-0.127,0.765,0.112
39.28,-0.234,0.84,0.062
39.29,-0.43,1.219,-0.245
39.3,-0.021,0.782,-0.02
39.31,-0.077,1.287,0.149
39.32,-0.167,0.622,0.087
39.33,-0.476,1.12,-0.17
39.34,-0.001,1.031,-0.117
39.35,-0.139,0.981,0.097
39.36,-0.166,0.897,0.199
39.37,-0.285,0.808,-0.086
39.38,-0.317,1.184,-0.183
39.39,-0.128,0.906,0.151
39.4,-0.157,1.093,0.097
39.41,-0.153,0.597,-0.016
39.42,-0.351,1.249,-0.133
39.43,-0.164,1.038,-0.045
39.44,-0.143,0.874,0.117
39.45,-0.13,1.015,0.221
39.46,-0.361,0.754,-0.191
39.47,-0.331,1.23,-0.107
39.48,0.0,0.903,0.103
39.49,-0.152,0.98,0.084
39.5,-0.259,0.743,0.006
39.51,-0.364,1.184,-0.237
39.52,-0.073,0.946,-0.051
39.53,-0.112,0.901,0.2
39.54,-0.173,1.014,0.086
39.55,-0.323,0.76,-0.191
39.56,-0.208,1.366,-0.067
39.57,-0.094,0.796,0.129
39.58,-0.168,0.947,0.137
39.59,-0.304,0.843,-0.056
39.6,-0.242,1.077,-0.219
39.61,-0.14,1.129,0.025
39.62,-0.098,0.774,0.17
39.63,-0.154,1.025,0.024
39.64,-0.4,0.847,-0.186
39.65,-0.076,1.281,-0.094
39.66,-0.086,0.741,0.105
39.67,-0.201,0.97,0.194
39.68,-0.279,0.952,-0.151
39.69,-0.241,0.942,-0.137
39.7,-0.073,1.216,0.114
39.71,-0.085,0.631,0.138
39.72,-0.295,1.072,-0.047
39.73,-0.295,0.931,-0.184
39.74,-0.09,1.232,-0.005
39.75,-0.169,0.763,0.215
39.76,-0.155,0.985,0.027
39.77,-0.352,0.926,-0.213
39.78,-0.152,1.11,-0.029
39.79,-0.1,0.954,0.091
39.8,-0.14,0.708,0.154
39.81,-0.324,1.169,-0.094
39.82,-0.277,0.826,-0.164
39.83,-0.168,1.262,0.109
39.84,-0.031,0.751,0.155
39.85,-0.272,0.966,0.015
39.86,-0.422,1.025,-0.172
39.87,-0.05,1.034,-0.054
39.88,-0.243,1.017,0.113
39.89,-0.092,0.725,0.192
39.9,-0.394,1.204,-0.193
39.91,-0.269,0.824,-0.108
39.92,-0.04,1.273,0.097
39.93,-0.107,0.72,0.11
39.94,-0.318,0.91,0.046
39.95,-0.307,1.129,-0.224
39.96,-0.124,0.869,-0.009
39.97,-0.175,1.088,0.199
39.98,-0.047,0.681,0.051
39.99,-0.468,1.238,-0.188
40.0,-0.106,0.93,-0.015
40.01,-0.125,1.11,0.1
40.02,-0.139,0.771,0.164
40.03,-0.282,0.941,-0.07
40.04,-0.339,1.148,-0.195
40.05,-0.127,0.924,0.158
40.06,-0.185,1.132,0.12
40.07,-0.117,0.611,-0.02
40.08,-0.486,1.331,-0.15
40.09,-0.125,0.892,-0.042
40.1,-0.178,1.016,0.165
40.11,-0.054,0.915,0.135
40.12,-0.387,0.826,-0.183
40.13,-0.257,1.138,-0.11
40.14,0.054,0.932,0.076
40.15,-0.24,1.031,0.17
40.16,-0.304,0.681,-0.003
40.17,-0.31,1.286,-0.246
40.18,-0.07,0.911,0.0
40.19,-0.155,0.988,0.228
40.2,-0.122,0.879,0.028
40.21,-0.407,0.893,-0.183
40.22,-0.183,1.294,0.011
40.23,-0.07,0.732,0.106
40.24,-0.215,1.019,0.148
40.25,-0.229,0.802,-0.149
40.26,-0.285,1.149,-0.159
40.27,-0.193,0.987,0.127
40.28,-0.038,0.855,0.101
40.29,-0.238,0.942,-0.014
40.3,-0.426,0.897,-0.137
40.31,-0.121,1.262,-0.013
40.32,-0.144,0.707,0.111
40.33,-0.193,1.032,0.135
40.34,-0.329,0.833,-0.197
40.35,-0.235,1.081,-0.085
40.36,-0.096,1.087,0.145
40.37,-0.16,0.682,0.093
40.38,-0.257,1.059,-0.018
40.39,-0.274,0.959,-0.206
40.4,-0.135,1.183,0.033
40.41,-0.173,0.758,0.209
40.42,-0.128,0.959,-0.012
40.43,-0.421,0.902,-0.235
40.44,-0.097,1.059,-0.011
40.45,-0.099,1.083,0.096
40.46,-0.272,0.661,0.189
40.47,-0.28,1.171,-0.12
40.48,-0.236,0.893,-0.215
40.49,-0.089,1.198,0.128
40.5,-0.065,0.694,0.151
40.51,-0.33,0.924,-0.046
40.52,-0.3,1.079,-0.212
40.53,-0.047,0.941,-0.008
40.54,-0.27,1.055,0.163
40.55,-0.069,0.781,0.071
40.56,-0.516,1.205,-0.203
40.57,-0.134,0.88,-0.039
40.58,-0.111,1.183,0.082
40.59,-0.117,0.682,0.166
40.6,-0.311,1.061,-0.104
40.61,-0.314,0.932,-0.174
40.62,-0.132,1.076,0.148
40.63,-0.15,1.035,0.121
40.64,-0.163,0.677,-0.036
40.65,-0.422,1.306,-0.187
40.66,-0.063,0.853,-0.029
40.67,-0.212,1.083,0.137
40.68,-0.042,0.752,0.124
40.69,-0.412,1.083,-0.219
40.7,-0.308,1.018,-0.036
40.71,0.009,1.028,0.107
40.72,-0.201,0.968,0.081
40.73,-0.244,0.692,-0.01
40.74,-0.378,1.289,-0.211
40.75,-0.104,0.815,0.054
40.76,-0.056,1.108,0.133
40.77,-0.177,0.701,0.013
40.78,-0.508,1.06,-0.126
40.79,-0.049,1.11,-0.089
40.8,-0.145,0.825,0.09
40.81,-0.141,1.064,0.166
40.82,-0.282,0.733,-0.146
40.83,-0.385,1.236,-0.168
40.84,0.096,0.945,0.089
40.85,-0.174,0.96,0.077
40.86,-0.281,0.784,0.067
40.87,-0.358,1.099,-0.225
40.88,-0.11,1.096,-0.034
40.89,-0.147,0.799,0.197
40.9,-0.085,1.02,0.033
40.91,-0.37,0.76,-0.173
40.92,-0.221,1.319,-0.023
40.93,-0.014,0.815,0.094
40.94,-0.255,0.916,0.199
40.95,-0.297,0.945,-0.073
40.96,-0.332,0.951,-0.24
40.97,-0.062,1.23,0.075
40.98,-0.075,0.698,0.117
40.99,-0.231,1.011,0.023
41.0,-0.342,0.928,-0.169
41.01,-0.234,1.177,-0.067
41.02,-0.136,0.756,0.161
41.03,-0.074,0.951,0.132
41.04,-0.41,0.992,-0.181
41.05,-0.307,0.868,-0.067
41.06,0.026,1.274,0.062
41.07,-0.151,0.637,0.094
41.08,-0.317,1.053,0.037
41.09,-0.237,0.953,-0.271
41.1,-0.148,1.076,-0.003
41.11,-0.16,0.897,0.188
41.12,-0.174,0.804,0.079
41.13,-0.444,1.115,-0.16
41.14,-0.102,0.908,-0.062
41.15,-0.161,1.181,0.074
41.16,-0.126,0.636,0.2
41.17,-0.343,1.14,-0.046
41.18,-0.344,0.867,-0.222
41.19,0.004,1.111,0.059
41.2,-0.093,0.933,0.088
41.21,-0.228,0.747,0.078
41.22,-0.437,1.333,-0.188
41.23,-0.099,0.774,-0.084
41.24,-0.232,1.149,0.217
41.25,-0.039,0.7,0.143
41.26,-0.439,1.041,-0.182
41.27,-0.17,0.939,-0.185
41.28,-0.037,1.096,0.096
41.29,-0.112,0.955,0.12
41.3,-0.22,0.705,0.016
41.31,-0.399,1.307,-0.208
41.32,-0.046,0.835,-0.031
41.33,-0.188,1.159,0.156
41.34,-0.077,0.707,0.079
41.35,-0.427,1.041,-0.163
41.36,-0.198,0.949,-0.026
41.37,-0.109,1.033,0.1
41.38,-0.202,0.864,0.105
41.39,-0.176,0.822,-0.063
41.4,-0.404,1.251,-0.149
41.41,-0.171,0.846,0.172
41.42,-0.128,1.167,0.154
41.43,-0.229,0.617,-0.006
41.44,-0.459,1.167,-0.138
41.45,-0.114,1.009,-0.044
41.46,-0.163,0.954,0.103
41.47,-0.037,0.963,0.13
41.48,-0.342,0.803,-0.158
41.49,-0.342,1.243,-0.107
41.5,0.014,0.844,0.084
41.51,-0.24,1.01,0.152
41.52,-0.24,0.763,0.021
41.53,-0.354,1.201,-0.232
41.54,-0.141,0.932,-0.038
41.55,-0.126,0.916,0.207
41.56,-0.118,0.983,0.073
41.57,-0.451,0.768,-0.158
41.58,-0.204,1.292,-0.023
41.59,-0.103,0.841,0.088
41.6,-0.195,0.948,0.169
41.61,-0.197,0.863,-0.064
41.62,-0.346,1.069,-0.238
41.63,-0.163,1.033,0.07
41.64,-0.071,0.875,0.164
41.65,-0.184,0.979,0.03
41.66,-0.338,0.809,-0.208
41.67,-0.052,1.333,-0.09
41.68,-0.153,0.751,0.104
41.69,-0.16,0.914,0.227
41.7,-0.35,0.963,-0.078
41.71,-0.353,0.947,-0.219
41.72,-0.049,1.145,0.069
41.73,-0.053,0.709,0.138
41.74,-0.345,1.056,0.078
41.75,-0.361,0.929,-0.158
41.76,-0.175,1.172,-0.044
41.77,-0.201,0.778,0.183
41.78,-0.097,0.951,0.152
41.79,-0.379,0.979,-0.185
41.8,-0.315,0.901,-0.088
41.81,-0.061,1.257,0.076
41.82,-0.081,0.611,0.109
41.83,-0.329,1.11,0.021
41.84,-0.27,0.902,-0.203
41.85,-0.156,1.135,-0.019
41.86,-0.104,0.871,0.175
41.87,-0.101,0.844,0.084
41.88,-0.421,1.098,-0.177
41.89,-0.18,0.891,-0.018
41.9,-0.113,1.166,0.073
41.91,-0.17,0.629,0.167
41.92,-0.298,1.135,-0.05
41.93,-0.314,0.844,-0.18
41.94,-0.176,1.125,0.09
41.95,-0.071,0.976,0.12
41.96,-0.168,0.719,0.04
41.97,-0.453,1.214,-0.143
41.98,-0.085,0.918,-0.114
41.99,-0.127,1.116,0.045
42.0,-0.047,0.702,0.193
42.01,-0.434,1.118,-0.147
42.02,-0.25,0.887,-0.181
42.03,-0.041,1.187,0.118
42.04,-0.19,0.892,0.105
42.05,-0.119,0.701,0.037
42.06,-0.481,1.355,-0.169
42.07,-0.135,0.808,-0.04
42.08,-0.22,1.177,0.162
42.09,-0.06,0.732,0.159
42.1,-0.467,1.066,-0.167
42.11,-0.198,1.024,-0.098
42.12,-0.085,1.069,0.128
42.13,-0.198,0.918,0.117
42.14,-0.184,0.718,0.02
42.15,-0.394,1.343,-0.23
42.16,-0.163,0.777,0.031
42.17,-0.111,1.234,0.185
42.18,-0.181,0.631,0.039
42.19,-0.411,1.158,-0.15
42.2,-0.056,1.041,-0.063
42.21,-0.186,1.011,0.066
42.22,-0.109,0.839,0.167
42.23,-0.299,0.837,-0.088
42.24,-0.428,1.206,-0.17
42.25,-0.081,0.834,0.108
42.26,-0.089,1.164,0.109
42.27,-0.226,0.615,0.035
42.28,-0.437,1.16,-0.137
42.29,-0.051,1.016,-0.093
42.3,-0.197,0.878,0.127
42.31,-0.119,1.006,0.161
42.32,-0.307,0.772,-0.182
42.33,-0.374,1.164,-0.099
42.34,0.055,0.94,0.136
42.35,-0.21,1.013,0.106
42.36,-0.215,0.706,0.015
42.37,-0.289,1.225,-0.207
42.38,-0.146,0.993,-0.053
42.39,-0.156,0.844,0.221
42.4,-0.103,1.032,0.052
42.41,-0.393,0.756,-0.192
42.42,-0.198,1.318,-0.034
42.43,-0.055,0.886,0.068
42.44,-0.183,0.928,0.12
42.45,-0.224,0.867,-0.013
42.46,-0.381,1.066,-0.239
42.47,-0.127,1.066,0.023
42.48,-0.022,0.885,0.14
42.49,-0.177,0.982,0.024
42.5,-0.426,0.839,-0.13
42.51,-0.115,1.3,-0.119
42.52,-0.099,0.705,0.05
42.53,-0.164,0.979,0.21
42.54,-0.238,0.987,-0.164
42.55,-0.359,0.903,-0.184
42.56,-0.1,1.221,0.136
42.57,-0.034,0.743,0.095
42.58,-0.357,1.023,0.029
42.59,-0.261,0.911,-0.178
42.6,-0.236,1.184,-0.052
42.61,-0.206,0.754,0.206
42.62,-0.088,0.93,0.186
42.63,-0.376,0.994,-0.223
42.64,-0.321,0.896,-0.008
42.65,-0.013,1.26,0.045
42.66,-0.101,0.574,0.111
42.67,-0.344,1.109,0.074
42.68,-0.26,0.954,-0.241
42.69,-0.21,1.05,-0.054
42.7,-0.192,0.896,0.218
42.71,-0.031,0.822,0.058
42.72,-0.419,1.053,-0.222
42.73,-0.148,0.902,-0.007
42.74,-0.142,1.28,0.053
42.75,-0.157,0.599,0.154
42.76,-0.293,1.149,0.032
42.77,-0.312,0.933,-0.251
42.78,-0.168,0.994,0.018
42.79,-0.081,1.059,0.183
42.8,-0.188,0.747,0.081
42.81,-0.469,1.107,-0.154
42.82,-0.067,0.896,-0.066
42.83,-0.151,1.231,0.039
42.84,-0.171,0.624,0.201
42.85,-0.272,1.116,-0.047
42.86,-0.331,0.932,-0.185
42.87,-0.171,1.039,0.137
42.88,-0.065,1.097,0.136
42.89,-0.134,0.663,0.005
42.9,-0.506,1.244,-0.133
42.91,-0.071,0.908,-0.059
42.92,-0.212,1.132,0.098
42.93,-0.175,0.736,0.235
42.94,-0.317,1.085,-0.126
42.95,-0.299,0.948,-0.221
42.96,-0.096,0.992,0.109
42.97,-0.107,1.059,0.128
42.98,-0.333,0.786,0.097
42.99,-0.322,1.252,-0.203
43.0,-0.148,0.841,-0.066
43.01,-0.274,1.175,0.134
43.02,0.042,0.656,0.109
43.03,-0.515,1.123,-0.177
43.04,-0.241,0.956,-0.043
43.05,-0.063,1.134,0.059
43.06,-0.21,0.873,0.113
43.07,-0.204,0.733,0.068
43.08,-0.329,1.338,-0.234
43.09,-0.103,0.776,-0.014
43.1,-0.242,1.144,0.2
43.11,-0.081,0.691,0.09
43.12,-0.525,1.067,-0.196
43.13,-0.103,1.025,-0.047
43.14,-0.121,1.013,0.055
43.15,-0.218,0.897,0.167
43.16,-0.186,0.787,-0.005
43.17,-0.386,1.292,-0.237
43.18,-0.118,0.765,-0.008
43.19,-0.072,1.23,0.163
43.2,-0.119,0.687,0.043
43.21,-0.519,1.002,-0.13
43.22,-0.181,0.635,0.073
43.23,-0.372,1.307,-0.201
43.24,-0.209,0.975,-0.05
43.25,-0.19,0.922,0.144
43.26,-0.101,0.966,0.154
43.27,-0.318,0.736,-0.159
43.28,-0.324,1.23,-0.097
43.29,-0.009,0.919,0.004
43.3,-0.163,1.019,0.126
43.31,-0.192,0.72,0.055
43.32,-0.352,1.227,-0.21
43.33,-0.094,1.018,-0.077
43.34,-0.17,0.88,0.147
43.35,-0.14,1.009,0.136
43.36,-0.271,0.74,-0.169
43.37,-0.312,1.243,-0.104
43.38,-0.041,0.918,0.075
43.39,-0.157,0.936,0.121
43.4,-0.26,0.778,0.038
43.41,-0.303,1.129,-0.165
43.42,-0.128,1.092,-0.049
43.43,-0.218,0.759,0.13
43.44,-0.044,1.049,0.102
43.45,-0.348,0.772,-0.2
43.46,-0.269,1.228,-0.052
43.47,-0.074,0.927,0.062
43.48,-0.133,0.87,0.157
43.49,-0.288,0.908,0.049
43.5,-0.344,1.036,-0.191
43.51,-0.177,1.083,-0.04
43.52,-0.097,0.794,0.152
43.53,-0.127,1.068,0.035
43.54,-0.364,0.757,-0.199
43.55,-0.201,1.176,-0.07
43.56,-0.044,0.957,0.04
43.57,-0.166,0.835,0.183
43.58,-0.277,0.997,-0.007
43.59,-0.352,0.974,-0.184
43.6,-0.146,1.137,-0.014
43.61,-0.094,0.76,0.173
43.62,-0.098,1.065,0.04
43.63,-0.388,0.823,-0.194
43.64,-0.197,1.137,-0.068
43.65,-0.062,1.008,0.041
43.66,-0.145,0.77,0.158
43.67,-0.304,1.048,-0.012
43.68,-0.285,0.9,-0.246
43.69,-0.149,1.153,-0.007
43.7,-0.075,0.779,0.168
43.71,-0.131,1.025,0.035
43.72,-0.399,0.819,-0.157
43.73,-0.092,1.246,-0.077
43.74,-0.121,0.789,0.068
43.75,-0.195,0.923,0.235
43.76,-0.257,0.988,-0.128
43.77,-0.326,0.897,-0.156
43.78,-0.105,1.208,0.089
43.79,-0.045,0.718,0.134
43.8,-0.281,1.034,0.028
43.81,-0.363,0.905,-0.146
43.82,-0.124,1.151,-0.079
43.83,-0.229,0.842,0.105
43.84,-0.043,0.863,0.164
43.85,-0.38,1.06,-0.145
43.86,-0.262,0.797,-0.139
43.87,-0.108,1.324,0.098
43.88,-0.107,0.596,0.147
43.89,-0.283,1.045,0.075
43.9,-0.28,0.994,-0.198
43.91,-0.219,1.047,-0.031
43.92,-0.193,0.854,0.161
43.93,-0.023,0.82,0.15
43.94,-0.461,1.129,-0.132
43.95,-0.189,0.771,-0.126
43.96,-0.147,1.324,0.12
43.97,-0.111,0.63,0.14
43.98,-0.306,1.049,0.049
43.99,-0.288,1.037,-0.235
44.0,-0.085,0.997,-0.076
44.01,-0.185,0.964,0.164
44.02,-0.086,0.746,0.128
44.03,-0.405,1.142,-0.2
44.04,-0.19,0.764,-0.08
44.05,-0.066,1.344,0.088
44.06,-0.151,0.662,0.107
44.07,-0.281,1.021,0.008
44.08,-0.307,1.052,-0.223
44.09,-0.135,0.942,-0.016
44.1,-0.209,1.029,0.167
44.11,-0.019,0.691,0.069
44.12,-0.49,1.182,-0.202
44.13,-0.182,0.854,-0.013
44.14,-0.109,1.24,0.06
44.15,-0.146,0.694,0.125
44.16,-0.269,1.003,0.021
44.17,-0.379,1.102,-0.2
44.18,-0.186,0.838,0.005
44.19,-0.124,1.143,0.164
44.2,-0.052,0.637,0.051
44.21,-0.532,1.248,-0.175
44.22,-0.032,0.881,-0.085
44.23,-0.102,1.104,0.046
44.24,-0.175,0.784,0.229
44.25,-0.279,0.936,-0.101
44.26,-0.356,1.055,-0.188
44.27,-0.165,0.903,0.071
44.28,-0.052,1.165,0.096
44.29,-0.131,0.619,0.045
44.3,-0.468,1.278,-0.165
44.31,-0.042,0.995,-0.086
44.32,-0.221,0.997,0.081
44.33,-0.129,0.837,0.175
44.34,-0.29,0.931,-0.125
44.35,-0.354,1.123,-0.135
44.36,-0.119,0.89,0.093
44.37,-0.097,1.181,0.109
44.38,-0.199,0.589,0.014
44.39,-0.453,1.206,-0.141
44.4,-0.05,1.019,-0.098
44.41,-0.155,0.907,0.073
44.42,-0.115,0.952,0.189
44.43,-0.343,0.873,-0.184
44.44,-0.301,1.138,-0.168
44.45,0.022,0.947,0.091
44.46,-0.137,1.074,0.092
44.47,-0.303,0.673,0.014
44.48,-0.299,1.25,-0.168
44.49,-0.157,0.992,-0.047
44.5,-0.259,0.85,0.206
44.51,-0.06,1.052,0.181
44.52,-0.356,0.789,-0.25
44.53,-0.109,1.166,-0.03
44.54,-0.067,0.953,0.065
44.55,-0.219,0.99,0.161
44.56,-0.105,0.759,-0.027
44.57,-0.378,1.295,-0.222
44.58,-0.207,0.908,0.095
44.59,-0.127,1.054,0.183
44.6,-0.132,0.822,0.022
44.61,-0.424,0.848,-0.146
44.62,-0.078,1.32,-0.082
44.63,-0.068,0.764,0.06
44.64,-0.299,1.022,0.205
44.65,-0.119,0.8,-0.084
44.66,-0.375,1.172,-0.235
44.67,-0.196,0.951,0.139
44.68,-0.058,0.976,0.128
44.69,-0.209,0.925,0.016
44.7,-0.41,0.866,-0.084
44.71,-0.167,1.273,-0.087
44.72,-0.112,0.7,0.072
44.73,-0.151,1.071,0.229
44.74,-0.308,0.831,-0.165
44.75,-0.379,1.006,-0.173
44.76,-0.089,1.137,0.065
44.77,-0.033,0.806,0.124
44.78,-0.26,0.984,0.02
44.79,-0.349,0.926,-0.144
44.8,-0.187,1.26,-0.069
44.81,-0.166,0.669,0.086
44.82,-0.125,1.007,0.212
44.83,-0.305,0.902,-0.17
44.84,-0.284,0.944,-0.163
44.85,-0.032,1.161,0.059
44.86,-0.104,0.717,0.149
44.87,-0.37,1.039,0.046
44.88,-0.247,0.928,-0.206
44.89,-0.165,1.214,-0.057
44.9,-0.188,0.742,0.166
44.91,-0.079,0.955,0.132
44.92,-0.346,0.96,-0.207
44.93,-0.254,0.92,-0.063
44.94,-0.025,1.236,0.015
44.95,-0.074,0.582,0.106
44.96,-0.32,1.148,0.018
44.97,-0.316,0.884,-0.194
44.98,-0.167,1.099,-0.07
44.99,-0.122,0.899,0.187
45.0,-0.104,0.889,0.079
45.01,-0.38,1.015,-0.207
45.02,-0.159,0.919,-0.028
45.03,-0.143,1.238,0.07
45.04,-0.15,0.59,0.156
45.05,-0.336,1.153,0.017
45.06,-0.295,0.887,-0.245
45.07,-0.183,1.047,-0.023
45.08,-0.122,0.93,0.188
45.09,-0.148,0.823,0.104
45.1,-0.494,1.083,-0.217
45.11,-0.068,0.865,-0.015
45.12,-0.203,1.274,0.05
45.13,-0.196,0.557,0.188
45.14,-0.232,1.145,-0.022
45.15,-0.349,0.93,-0.24
45.16,-0.236,0.964,0.062
45.17,0.04,1.091,0.113
45.18,-0.231,0.729,0.073
45.19,-0.462,1.13,-0.153
45.2,-0.034,0.936,-0.058
45.21,-0.19,1.211,0.065
45.22,-0.18,0.624,0.209
45.23,-0.262,1.104,-0.047
45.24,-0.306,0.974,-0.187
45.25,-0.211,0.997,0.087
45.26,-0.027,1.075,0.116
45.27,-0.093,0.681,-0.006
45.28,-0.518,1.265,-0.131
45.29,-0.118,0.849,-0.077
45.3,-0.168,1.153,0.08
45.31,-0.127,0.71,0.218
45.32,-0.335,1.051,-0.121
45.33,-0.248,0.949,-0.164
45.34,-0.115,1.227,0.09
45.35,-0.084,0.832,0.114
45.36,-0.2,0.761,0.013
45.37,-0.397,1.312,-0.158
45.38,-0.096,0.804,-0.039
45.39,-0.307,1.119,0.154
45.4,-0.002,0.701,0.162
45.41,-0.428,1.118,-0.171
45.42,-0.267,0.871,-0.092
45.43,-0.066,1.159,0.013
45.44,-0.062,0.863,0.092
45.45,-0.262,0.726,0.075
45.46,-0.385,1.304,-0.222
45.47,-0.031,0.772,-0.06
45.48,-0.242,1.226,0.191
45.49,-0.038,0.713,0.102
45.5,-0.457,1.019,-0.208
45.51,-0.208,1.098,-0.037
45.52,-0.099,1.07,0.032
45.53,-0.191,0.902,0.115
45.54,-0.171,0.742,0.017
45.55,-0.429,1.36,-0.246
45.56,-0.126,0.715,-0.022
45.57,-0.16,1.173,0.172
45.58,-0.094,0.764,0.093
45.59,-0.414,0.939,-0.213
45.6,-0.184,1.159,-0.034
45.61,-0.059,0.975,0.048
45.62,-0.197,0.947,0.136
45.63,-0.2,0.729,-0.014
45.64,-0.333,1.34,-0.239
45.65,-0.063,0.803,-0.037
45.66,-0.215,1.134,0.161
45.67,-0.005,0.785,0.014
45.68,-0.458,0.901,-0.191
45.69,-0.203,1.221,-0.042
45.7,-0.048,0.91,0.057
45.71,-0.236,0.968,0.13
45.72,-0.129,0.735,-0.013
45.73,-0.396,1.288,-0.244
45.74,-0.111,0.817,-0.021
45.75,-0.052,1.062,0.182
45.76,-0.173,0.863,0.059
45.77,-0.433,0.845,-0.19
45.78,-0.06,1.266,-0.084
45.79,-0.032,0.831,0.047
45.8,-0.231,1.029,0.194
45.81,-0.138,0.789,-0.075
45.82,-0.398,1.139,-0.184
45.83,-0.179,0.955,0.103
45.84,-0.084,1.023,0.153
45.85,-0.189,0.875,0.043
45.86,-0.404,0.856,-0.074
45.87,-0.132,1.335,-0.097
45.88,-0.179,0.703,0.087
45.89,-0.161,1.035,0.212
45.9,-0.234,0.823,-0.136
45.91,-0.347,1.022,-0.154
45.92,-0.173,1.102,0.128
45.93,-0.091,0.901,0.105
45.94,-0.189,0.942,0.014
45.95,-0.323,0.941,-0.135
45.96,-0.201,1.311,-0.102
45.97,-0.167,0.69,0.084
45.98,-0.135,0.994,0.22
45.99,-0.305,0.912,-0.162
46.0,-0.298,0.937,-0.167
46.01,-0.178,1.183,0.089
46.02,-0.066,0.857,0.08
46.03,-0.196,0.956,0.049
46.04,-0.35,0.87,-0.149
46.05,-0.165,1.29,-0.08
46.06,-0.115,0.756,0.107
46.07,-0.194,0.919,0.199
46.08,-0.314,0.979,-0.112
46.09,-0.279,0.932,-0.165
46.1,-0.172,1.202,0.053
46.11,-0.055,0.798,0.192
46.12,-0.235,1.023,-0.002
46.13,-0.328,0.836,-0.164
46.14,-0.107,1.243,-0.06
46.15,-0.184,0.628,0.135
46.16,-0.143,1.033,0.171
46.17,-0.323,0.951,-0.193
46.18,-0.319,0.949,-0.152
46.19,-0.062,1.132,0.097
46.2,-0.094,0.769,0.156
46.21,-0.314,1.038,0.05
46.22,-0.281,0.929,-0.143
46.23,-0.24,1.202,-0.059
46.24,-0.219,0.699,0.185
46.25,-0.055,1.028,0.106
46.26,-0.427,0.908,-0.221
46.27,-0.263,0.897,-0.039
46.28,-0.044,1.247,0.022
46.29,-0.122,0.643,0.11
46.3,-0.312,1.06,0.063
46.31,-0.306,0.891,-0.191
46.32,-0.209,1.166,-0.021
46.33,-0.137,0.8,0.143
46.34,-0.097,0.967,0.12
46.35,-0.432,0.995,-0.21
46.36,-0.173,0.865,-0.107
46.37,-0.095,1.323,0.099
46.38,-0.152,0.604,0.148
46.39,-0.292,1.082,-0.006
46.4,-0.344,0.94,-0.157
46.41,-0.215,1.082,-0.041
46.42,-0.139,0.815,0.143
46.43,-0.096,0.876,0.107
46.44,-0.435,1.048,-0.184
46.45,-0.202,0.823,-0.053
46.46,-0.076,1.3,0.077
46.47,-0.089,0.609,0.146
46.48,-0.353,1.101,0.057
46.49,-0.219,0.965,-0.225
46.5,-0.246,1.068,-0.005
46.51,-0.13,0.894,0.161
46.52,-0.071,0.832,0.087
46.53,-0.471,1.149,-0.189
46.54,-0.118,0.816,-0.08
46.55,-0.11,1.282,0.067
46.56,-0.083,0.594,0.139
46.57,-0.292,1.093,-0.013
46.58,-0.307,1.025,-0.221
46.59,-0.156,0.982,-0.021
46.6,-0.163,1.019,0.175
46.61,-0.033,0.748,0.071
46.62,-0.494,1.202,-0.215
46.63,-0.121,0.79,-0.019
46.64,-0.12,1.269,0.05
46.65,-0.13,0.643,0.148
46.66,-0.253,1.022,-0.031
46.67,-0.301,1.035,-0.23
46.68,-0.237,0.931,0.042
46.69,-0.057,1.111,0.124
46.7,-0.089,0.635,0.023
46.71,-0.529,1.243,-0.152
46.72,0.01,0.878,-0.094
46.73,-0.135,1.151,0.024
46.74,-0.137,0.719,0.248
46.75,-0.305,1.019,-0.073
46.76,-0.322,1.037,-0.18
46.77,-0.164,0.996,0.112
46.78,-0.066,1.093,0.094
46.79,-0.185,0.625,0.057
46.8,-0.404,1.304,-0.194
46.81,-0.072,0.94,-0.088
46.82,-0.179,1.035,0.083
46.83,-0.146,0.808,0.23
46.84,-0.277,0.946,-0.112
46.85,-0.377,1.075,-0.144
46.86,-0.087,0.948,0.096
46.87,-0.067,1.196,0.114
46.88,-0.228,0.551,0.014
46.89,-0.396,1.281,-0.148
46.9,-0.014,1.002,-0.089
46.91,-0.28,0.956,0.107
46.92,-0.046,0.858,0.192
46.93,-0.324,0.944,-0.172
46.94,-0.323,1.069,-0.153
46.95,-0.07,0.959,0.13
46.96,-0.146,0.99,0.106
46.97,-0.322,0.666,0.052
46.98,-0.292,1.359,-0.201
46.99,-0.143,0.811,-0.003
47.0,-0.291,1.061,0.175
47.01,0.005,0.787,0.103
47.02,-0.426,0.957,-0.247
47.03,-0.236,1.144,-0.069
47.04,-0.079,0.931,0.052
47.05,-0.174,0.997,0.127
47.06,-0.247,0.708,0.018
47.07,-0.311,1.295,-0.205
47.08,-0.157,0.8,-0.014
47.09,-0.228,1.042,0.231
47.1,-0.048,0.817,0.103
47.11,-0.476,0.89,-0.217
47.12,-0.095,1.208,-0.06
47.13,-0.097,0.88,0.062
47.14,-0.196,0.969,0.147
47.15,-0.196,0.776,-0.02
47.16,-0.331,1.245,-0.252
47.17,-0.124,0.882,0.034
47.18,-0.167,1.042,0.207
47.19,-0.161,0.883,0.056
47.2,-0.45,0.864,-0.149
47.21,-0.131,1.282,-0.073
47.22,-0.096,0.778,0.051
47.23,-0.151,0.981,0.166
47.24,-0.312,0.787,-0.007
47.25,-0.351,1.127,-0.185
47.26,-0.122,1.008,0.001
47.27,-0.033,0.903,0.153
47.28,-0.16,0.931,0.017
47.29,-0.425,0.89,-0.144
47.3,-0.056,1.276,-0.107
47.31,-0.119,0.74,0.053
47.32,-0.153,1.004,0.2
47.33,-0.297,0.886,-0.114
47.34,-0.3,0.998,-0.156
47.35,-0.16,1.127,0.085
47.36,-0.034,0.797,0.141
47.37,-0.279,0.998,0.036
47.38,-0.32,0.913,-0.165
47.39,-0.206,1.247,-0.073
47.4,-0.122,0.768,0.111
47.41,-0.131,0.985,0.152
47.42,-0.291,0.919,-0.161
47.43,-0.31,0.918,-0.096
47.44,-0.089,1.203,0.085
47.45,-0.064,0.761,0.14
47.46,-0.28,1.017,0.037
47.47,-0.276,0.92,-0.17
47.48,-0.229,1.208,-0.0
47.49,-0.211,0.765,0.168
47.5,-0.107,0.91,0.192
47.51,-0.388,1.028,-0.155
47.52,-0.247,0.885,-0.093
47.53,-0.074,1.272,0.076
47.54,-0.124,0.606,0.138
47.55,-0.339,1.064,0.07
47.56,-0.298,0.95,-0.204
47.57,-0.147,1.096,-0.047
47.58,-0.192,0.827,0.12
47.59,-0.043,0.845,0.105
47.6,-0.404,1.079,-0.195
47.61,-0.202,0.836,-0.075
47.62,-0.022,1.347,0.008
47.63,-0.13,0.591,0.089
47.64,-0.241,1.065,0.042
47.65,-0.288,0.991,-0.27
47.66,-0.145,0.991,-0.059
47.67,-0.167,0.935,0.197
47.68,-0.122,0.781,0.129
47.69,-0.466,1.114,-0.17
47.7,-0.161,0.869,-0.04
47.71,-0.096,1.261,0.072
47.72,-0.127,0.604,0.141
47.73,-0.323,1.105,0.019
47.74,-0.287,0.966,-0.247
47.75,-0.187,0.971,0.03
47.76,-0.114,1.065,0.149
47.77,-0.16,0.83,0.037
47.78,-0.415,1.075,-0.183
47.79,-0.122,0.943,-0.059
47.8,-0.138,1.141,0.06
47.81,-0.143,0.639,0.177
47.82,-0.325,1.174,-0.074
47.83,-0.294,0.846,-0.191
47.84,-0.188,1.104,0.051
47.85,0.019,0.953,0.152
47.86,-0.147,0.759,0.015
47.87,-0.496,1.197,-0.14
47.88,0.009,0.897,-0.125
47.89,-0.164,1.112,0.044
47.9,-0.101,0.715,0.207
47.91,-0.385,1.168,-0.152
47.92,-0.238,0.8,-0.202
47.93,-0.097,1.15,0.147
47.94,-0.087,1.006,0.1
47.95,-0.258,0.683,0.027
47.96,-0.444,1.281,-0.138
47.97,-0.085,0.869,-0.083
47.98,-0.212,1.104,0.111
47.99,-0.04,0.726,0.175
48.0,-0.372,1.112,-0.178
48.01,-0.268,0.911,-0.116
48.02,-0.074,1.103,0.101
48.03,-0.141,0.991,0.127
48.04,-0.294,0.669,0.022
48.05,-0.399,1.336,-0.193
48.06,-0.11,0.84,-0.024
48.07,-0.294,1.104,0.16
48.08,0.027,0.748,0.133
48.09,-0.398,1.016,-0.193
48.1,-0.219,0.983,-0.119
48.11,0.006,1.063,0.057
48.12,-0.172,0.969,0.102
48.13,-0.214,0.644,0.02
48.14,-0.383,1.357,-0.242
48.15,-0.108,0.791,0.0
48.16,-0.269,1.074,0.157
48.17,-0.043,0.773,0.1
48.18,-0.46,0.903,-0.161
48.19,-0.208,1.158,-0.074
48.2,-0.066,0.973,0.076
48.21,-0.13,1.004,0.126
48.22,-0.203,0.688,-0.02
48.23,-0.34,1.31,-0.211
48.24,-0.103,0.861,0.041
48.25,-0.25,1.049,0.169
48.26,-0.097,0.85,0.094
48.27,-0.375,0.879,-0.196
48.28,-0.239,1.278,-0.042
48.29,-0.082,0.896,0.037
48.3,-0.145,0.986,0.13
48.31,-0.218,0.742,0.021
48.32,-0.351,1.241,-0.229
48.33,-0.079,0.892,0.008
48.34,-0.17,0.993,0.176
48.35,-0.114,0.893,0.067
48.36,-0.427,0.871,-0.166
