t,ax,ay,az
0.0,-0.198,0.88,0.167
0.01,-0.109,0.837,0.102
0.02,-0.328,1.029,-0.187
0.03,-0.241,0.897,0.006
0.04,-0.096,1.314,0.076
0.05,-0.117,0.56,0.128
0.06,-0.279,1.103,0.027
0.07,-0.33,0.99,-0.245
0.08,-0.129,1.016,-0.057
0.09,-0.129,0.968,0.175
0.1,-0.121,0.74,0.103
0.11,-0.458,1.159,-0.181
0.12,-0.068,0.913,-0.065
0.13,-0.173,1.206,0.08
0.14,-0.122,0.628,0.185
0.15,-0.274,1.1,-0.073
0.16,-0.33,0.909,-0.215
0.17,-0.139,1.026,0.121
0.18,-0.168,1.062,0.109
0.19,-0.124,0.667,0.007
0.2,-0.44,1.274,-0.143
0.21,-0.109,0.866,-0.051
0.22,-0.233,1.161,0.11
0.23,-0.022,0.762,0.181
0.24,-0.402,1.0,-0.148
0.25,-0.309,0.952,-0.15
0.26,0.024,1.08,0.065
0.27,-0.168,0.996,0.083
0.28,-0.214,0.675,0.046
0.29,-0.399,1.339,-0.185
0.3,-0.105,0.831,-0.029
0.31,-0.264,1.158,0.18
0.32,-0.073,0.763,0.146
0.33,-0.453,0.925,-0.173
0.34,-0.24,1.067,-0.111
0.35,0.016,1.096,0.039
0.36,-0.18,0.855,0.114
0.37,-0.218,0.782,0.019
0.38,-0.394,1.281,-0.224
0.39,-0.131,0.84,0.011
0.4,-0.141,1.229,0.18
0.41,-0.089,0.62,0.009
0.42,-0.476,1.126,-0.162
0.43,-0.04,1.083,-0.075
0.44,-0.114,0.954,0.014
0.45,-0.15,0.895,0.206
0.46,-0.254,0.832,-0.081
0.47,-0.448,1.197,-0.176
0.48,-0.172,0.812,0.13
0.49,-0.066,1.194,0.115
0.5,-0.207,0.663,0.008
0.51,-0.447,1.083,-0.138
0.52,-0.051,1.105,-0.117
0.53,-0.141,0.852,0.085
0.54,-0.143,0.974,0.185
0.55,-0.287,0.795,-0.175
0.56,-0.375,1.229,-0.145
0.57,-0.004,0.932,0.084
0.58,-0.123,0.989,0.112
0.59,-0.266,0.779,0.039
0.6,-0.304,1.111,-0.228
0.61,-0.167,1.076,-0.056
0.62,-0.237,0.812,0.217
0.63,-0.079,1.024,0.103
0.64,-0.359,0.76,-0.24
0.65,-0.211,1.27,-0.001
0.66,-0.073,0.949,0.033
0.67,-0.172,0.865,0.09
0.68,-0.221,0.917,0.061
0.69,-0.356,1.011,-0.245
0.7,-0.164,1.08,0.031
0.71,-0.127,0.829,0.195
0.72,-0.249,1.045,0.088
0.73,-0.376,0.761,-0.189
0.74,-0.084,1.266,-0.074
0.75,-0.114,0.896,0.117
0.76,-0.268,0.819,0.178
0.77,-0.184,0.996,-0.087
0.78,-0.291,0.922,-0.204
0.79,-0.169,1.189,0.063
0.8,-0.032,0.771,0.1
0.81,-0.118,1.017,-0.023
0.82,-0.396,0.905,-0.156
0.83,-0.123,1.151,-0.091
0.84,-0.061,0.892,0.062
0.85,-0.178,0.841,0.204
0.86,-0.344,1.083,-0.139
0.87,-0.291,0.807,-0.12
0.88,-0.137,1.283,0.099
0.89,-0.105,0.741,0.118
0.9,-0.194,1.002,0.008
0.91,-0.38,0.954,-0.15
0.92,-0.145,1.119,-0.076
0.93,-0.095,0.858,0.084
0.94,-0.165,0.779,0.168
0.95,-0.411,1.174,-0.171
0.96,-0.155,1.02,0.122
0.97,-0.216,0.923,0.123
0.98,-0.148,0.76,-0.066
0.99,-0.391,1.303,-0.195
1.0,-0.167,0.825,0.131
1.01,-0.028,1.112,0.103
1.02,-0.242,0.699,0.042
1.03,-0.452,1.088,-0.161
1.04,-0.02,1.086,-0.109
1.05,-0.185,0.807,0.101
1.06,-0.156,1.041,0.178
1.07,-0.234,0.773,-0.179
1.08,-0.335,1.193,-0.112
1.09,-0.015,0.929,0.094
1.1,-0.129,0.974,0.097
1.11,-0.178,0.68,-0.012
1.12,-0.338,1.285,-0.173
1.13,-0.132,0.917,-0.019
1.14,-0.189,0.876,0.177
1.15,-0.081,0.964,0.079
1.16,-0.423,0.807,-0.212
1.17,-0.169,1.256,-0.069
1.18,-0.018,0.862,0.08
1.19,-0.16,0.95,0.111
1.2,-0.266,0.83,0.0
1.21,-0.32,1.178,-0.223
1.22,-0.088,0.97,-0.013
1.23,-0.125,0.922,0.181
1.24,-0.183,0.981,0.043
1.25,-0.385,0.788,-0.172
1.26,-0.096,1.292,-0.074
1.27,-0.113,0.74,0.089
1.28,-0.193,0.974,0.171
1.29,-0.26,0.904,-0.119
1.3,-0.316,0.975,-0.179
1.31,-0.058,1.173,0.127
1.32,-0.116,0.796,0.105
1.33,-0.218,0.99,-0.014
1.34,-0.398,0.92,-0.112
1.35,-0.199,1.236,-0.001
1.36,-0.111,0.767,0.101
1.37,-0.164,0.985,0.173
1.38,-0.307,0.964,-0.197
1.39,-0.291,0.991,-0.083
1.4,-0.024,1.21,0.043
1.41,-0.104,0.623,0.121
1.42,-0.334,1.1,0.047
1.43,-0.3,0.886,-0.263
1.44,-0.145,1.137,-0.049
1.45,-0.066,0.854,0.198
1.46,-0.151,0.863,0.074
1.47,-0.45,1.015,-0.174
1.48,-0.117,0.968,-0.071
1.49,-0.065,1.153,0.035
1.5,-0.204,0.656,0.211
1.51,-0.25,1.132,-0.09
1.52,-0.291,0.794,-0.229
1.53,-0.155,1.181,0.095
1.54,-0.037,0.94,0.095
1.55,-0.201,0.773,0.041
1.56,-0.355,1.197,-0.153
1.57,-0.097,0.953,-0.095
1.58,-0.239,1.116,0.076
1.59,-0.111,0.68,0.196
1.6,-0.374,1.143,-0.162
1.61,-0.282,0.84,-0.119
1.62,-0.047,1.191,0.111
1.63,-0.113,0.882,0.081
1.64,-0.213,0.751,0.029
1.65,-0.412,1.281,-0.147
1.66,-0.114,0.833,-0.072
1.67,-0.194,1.134,0.133
1.68,-0.059,0.72,0.162
1.69,-0.471,1.073,-0.165
1.7,-0.253,0.926,-0.109
1.71,0.035,1.156,0.07
1.72,-0.138,0.873,0.092
1.73,-0.261,0.77,0.063
1.74,-0.377,1.306,-0.207
1.75,-0.14,0.772,-0.004
1.76,-0.218,1.18,0.226
1.77,-0.04,0.701,0.069
1.78,-0.532,1.038,-0.22
1.79,-0.06,1.042,-0.059
1.8,-0.106,1.028,0.044
1.81,-0.2,0.933,0.141
1.82,-0.187,0.759,-0.012
1.83,-0.381,1.256,-0.214
1.84,-0.2,0.823,0.071
1.85,-0.102,1.151,0.136
1.86,-0.107,0.698,0.027
1.87,-0.485,1.072,-0.141
1.88,-0.05,1.127,-0.109
1.89,-0.098,0.855,0.042
1.9,-0.209,1.012,0.148
1.91,-0.143,0.738,-0.134
1.92,-0.303,1.206,-0.161
1.93,-0.077,0.862,0.136
1.94,-0.076,1.089,0.119
1.95,-0.25,0.712,-0.021
1.96,-0.354,1.206,-0.166
1.97,-0.086,0.967,-0.048
1.98,-0.225,0.972,0.193
1.99,-0.046,0.97,0.115
2.0,-0.37,0.811,-0.177
2.01,-0.353,1.225,-0.058
2.02,0.073,0.893,0.055
2.03,-0.171,1.006,0.136
2.04,-0.261,0.769,0.027
2.05,-0.289,1.15,-0.249
2.06,-0.143,1.001,-0.036
2.07,-0.139,0.872,0.202
2.08,-0.071,0.985,0.067
2.09,-0.395,0.798,-0.142
2.1,-0.312,1.289,0.001
2.11,-0.037,0.781,0.08
2.12,-0.306,0.981,0.182
2.13,-0.194,0.899,-0.077
2.14,-0.336,1.035,-0.197
2.15,-0.229,1.063,0.09
2.16,-0.045,0.832,0.117
2.17,-0.159,0.998,0.053
2.18,-0.492,0.85,-0.119
2.19,-0.096,1.254,-0.085
2.2,-0.137,0.795,0.067
2.21,-0.19,0.953,0.215
2.22,-0.271,0.967,-0.138
2.23,-0.255,0.896,-0.191
2.24,-0.068,1.232,0.113
2.25,-0.125,0.729,0.118
2.26,-0.235,1.029,0.041
2.27,-0.286,0.946,-0.154
2.28,-0.232,1.173,-0.056
2.29,-0.237,0.757,0.172
2.3,-0.063,0.938,0.119
2.31,-0.378,0.982,-0.173
2.32,-0.288,0.872,-0.049
2.33,-0.052,1.279,0.054
2.34,-0.13,0.576,0.127
2.35,-0.254,1.079,0.04
2.36,-0.258,0.963,-0.206
2.37,-0.147,1.047,-0.047
2.38,-0.189,0.872,0.186
2.39,-0.065,0.846,0.083
2.4,-0.462,1.062,-0.185
2.41,-0.222,0.902,-0.064
2.42,-0.06,1.248,0.069
2.43,-0.15,0.6,0.132
2.44,-0.265,1.115,0.005
2.45,-0.342,0.905,-0.253
2.46,-0.118,1.021,0.014
2.47,-0.104,1.021,0.119
2.48,-0.113,0.739,0.084
2.49,-0.485,1.154,-0.154
2.5,-0.105,0.896,-0.072
2.51,-0.151,1.205,0.053
2.52,-0.131,0.628,0.191
2.53,-0.273,1.082,-0.083
2.54,-0.311,0.908,-0.21
2.55,-0.114,1.035,0.117
2.56,-0.089,1.063,0.086
2.57,-0.141,0.63,0.011
2.58,-0.389,1.276,-0.167
2.59,-0.09,0.915,-0.108
2.6,-0.198,1.094,0.089
2.61,-0.108,0.769,0.217
2.62,-0.414,1.004,-0.153
2.63,-0.286,0.923,-0.14
2.64,-0.052,1.059,0.091
2.65,-0.152,0.977,0.099
2.66,-0.167,0.647,0.014
2.67,-0.353,1.374,-0.158
2.68,-0.086,0.814,-0.115
2.69,-0.184,1.082,0.2
2.7,-0.011,0.796,0.105
2.71,-0.516,0.979,-0.175
2.72,-0.167,1.074,-0.071
2.73,-0.026,1.061,0.069
2.74,-0.203,0.781,0.137
2.75,-0.063,0.818,-0.052
2.76,-0.471,1.292,-0.214
2.77,-0.113,0.73,0.04
2.78,-0.095,1.293,0.196
2.79,-0.186,0.637,0.042
2.8,-0.441,1.087,-0.163
2.81,-0.062,1.122,-0.094
2.82,-0.21,0.922,0.099
2.83,-0.172,0.879,0.23
2.84,-0.231,0.792,-0.097
2.85,-0.396,1.2,-0.191
2.86,-0.033,0.88,0.173
2.87,-0.11,1.167,0.094
2.88,-0.227,0.66,0.032
2.89,-0.333,1.164,-0.16
2.9,-0.159,1.084,-0.08
2.91,-0.232,0.795,0.128
2.92,-0.055,1.051,0.142
2.93,-0.345,0.706,-0.193
2.94,-0.317,1.196,-0.108
2.95,0.002,0.963,0.095
2.96,-0.127,0.937,0.087
2.97,-0.262,0.783,0.082
2.98,-0.326,1.14,-0.21
2.99,-0.184,1.037,-0.038
3.0,-0.17,0.812,0.211
3.01,-0.134,1.072,0.083
3.02,-0.359,0.756,-0.153
3.03,-0.26,1.276,-0.057
3.04,-0.067,0.906,0.101
3.05,-0.219,0.846,0.178
3.06,-0.24,0.891,0.014
3.07,-0.314,1.082,-0.224
3.08,-0.134,1.102,-0.06
3.09,-0.09,0.782,0.189
3.1,-0.154,1.046,0.049
3.11,-0.394,0.799,-0.176
3.12,-0.15,1.281,-0.035
3.13,-0.125,0.846,0.096
3.14,-0.182,0.78,0.147
3.15,-0.196,1.07,-0.043
3.16,-0.377,0.901,-0.229
3.17,-0.157,1.095,0.017
3.18,0.023,0.864,0.145
3.19,-0.233,0.978,0.026
3.2,-0.39,0.809,-0.131
3.21,-0.106,1.256,-0.079
3.22,-0.189,0.832,0.118
3.23,-0.171,0.791,0.224
3.24,-0.26,1.153,-0.168
3.25,-0.258,0.833,-0.202
3.26,-0.161,1.233,0.126
3.27,-0.012,0.729,0.105
3.28,-0.294,1.007,0.011
3.29,-0.327,0.955,-0.168
3.3,-0.141,1.124,-0.073
3.31,-0.307,0.903,0.172
3.32,-0.014,0.778,0.16
3.33,-0.39,1.121,-0.202
3.34,-0.244,0.805,-0.057
3.35,-0.096,1.331,0.044
3.36,-0.048,0.612,0.106
3.37,-0.319,1.046,0.076
3.38,-0.323,1.032,-0.199
3.39,-0.131,0.956,-0.054
3.4,-0.224,1.018,0.14
3.41,-0.006,0.725,0.062
3.42,-0.497,1.147,-0.167
3.43,-0.243,0.853,-0.012
3.44,-0.054,1.317,0.051
3.45,-0.171,0.641,0.117
3.46,-0.259,1.017,0.034
3.47,-0.341,1.075,-0.228
3.48,-0.166,0.903,0.011
3.49,-0.043,1.118,0.109
3.5,-0.16,0.645,0.069
3.51,-0.486,1.203,-0.157
3.52,-0.062,0.917,-0.054
3.53,-0.133,1.147,0.057
3.54,-0.171,0.725,0.209
3.55,-0.348,1.118,-0.138
3.56,-0.302,0.849,-0.183
3.57,-0.05,1.177,0.12
3.58,-0.106,0.973,0.089
3.59,-0.237,0.702,0.014
3.6,-0.401,1.274,-0.144
3.61,-0.162,0.878,-0.087
3.62,-0.214,1.086,0.134
3.63,0.019,0.724,0.155
3.64,-0.494,1.085,-0.174
3.65,-0.239,0.92,-0.131
3.66,0.005,1.127,0.06
3.67,-0.164,0.938,0.126
3.68,-0.215,0.644,0.014
3.69,-0.269,1.376,-0.246
3.7,-0.122,0.832,-0.02
3.71,-0.259,1.09,0.219
3.72,0.048,0.759,0.09
3.73,-0.545,1.011,-0.181
3.74,-0.176,1.062,-0.039
3.75,-0.021,0.994,0.019
3.76,-0.187,0.877,0.15
3.77,-0.219,0.778,0.016
3.78,-0.312,1.333,-0.276
3.79,-0.13,0.797,0.027
3.8,-0.146,1.164,0.178
3.81,-0.106,0.74,0.03
3.82,-0.479,0.99,-0.155
3.83,-0.158,1.191,-0.035
3.84,-0.151,0.887,0.037
3.85,-0.184,0.95,0.149
3.86,-0.208,0.759,-0.074
3.87,-0.367,1.26,-0.204
3.88,-0.112,0.865,0.103
3.89,-0.03,1.079,0.093
3.9,-0.177,0.767,-0.056
3.91,-0.448,0.974,-0.097
3.92,-0.082,1.201,-0.018
3.93,-0.216,0.757,0.127
3.94,-0.111,1.089,0.147
3.95,-0.304,0.739,-0.194
3.96,-0.282,1.163,-0.093
3.97,-0.04,1.019,0.135
3.98,-0.173,0.86,0.162
3.99,-0.344,0.94,0.031
4.0,-0.24,0.961,-0.193
4.01,-0.198,1.166,-0.029
4.02,-0.154,0.7,0.251
4.03,-0.146,1.066,0.082
4.04,-0.417,0.775,-0.242
4.05,-0.126,1.164,-0.056
4.06,-0.088,1.017,0.09
4.07,-0.255,0.74,0.188
4.08,-0.215,1.036,-0.024
4.09,-0.277,0.918,-0.217
4.1,-0.161,1.219,0.105
4.11,-0.088,0.738,0.163
4.12,-0.206,0.983,0.003
4.13,-0.393,0.92,-0.167
4.14,-0.111,1.114,-0.079
4.15,-0.176,0.942,0.108
4.16,-0.185,0.753,0.249
4.17,-0.334,1.149,-0.112
4.18,-0.339,0.76,-0.176
4.19,-0.152,1.244,0.142
4.2,-0.048,0.764,0.113
4.21,-0.323,0.977,-0.017
4.22,-0.341,0.941,-0.189
4.23,-0.067,1.028,-0.122
4.24,-0.284,1.045,0.183
4.25,0.026,0.731,0.152
4.26,-0.446,1.145,-0.163
4.27,-0.275,0.808,-0.083
4.28,-0.008,1.315,0.069
4.29,-0.182,0.645,0.134
4.3,-0.295,0.984,0.031
4.31,-0.301,1.104,-0.242
4.32,-0.258,0.904,0.029
4.33,-0.198,1.017,0.164
4.34,-0.082,0.71,0.056
4.35,-0.457,1.179,-0.192
4.36,-0.148,0.839,0.002
4.37,-0.124,1.221,0.066
4.38,-0.154,0.63,0.232
4.39,-0.274,1.132,-0.087
4.4,-0.319,0.903,-0.245
4.41,-0.201,1.091,0.145
4.42,-0.026,1.01,0.101
4.43,-0.222,0.707,0.026
4.44,-0.47,1.231,-0.131
4.45,-0.023,0.888,-0.066
4.46,-0.225,1.18,0.13
4.47,-0.129,0.704,0.225
4.48,-0.395,1.058,-0.17
4.49,-0.307,0.927,-0.18
4.5,0.038,1.1,0.082
4.51,-0.161,0.979,0.123
4.52,-0.263,0.703,0.068
4.53,-0.423,1.35,-0.2
4.54,-0.089,0.781,-0.061
4.55,-0.23,1.17,0.193
4.56,-0.036,0.778,0.127
4.57,-0.461,1.006,-0.201
4.58,-0.216,1.046,-0.06
4.59,-0.055,1.017,0.028
4.6,-0.199,0.953,0.163
4.61,-0.161,0.74,0.003
4.62,-0.446,1.335,-0.275
4.63,-0.019,0.786,-0.01
4.64,-0.13,1.196,0.152
4.65,-0.123,0.693,0.039
4.66,-0.405,0.985,-0.178
4.67,-0.108,1.221,-0.074
4.68,-0.091,0.824,0.047
4.69,-0.209,0.971,0.181
4.7,-0.15,0.779,-0.049
4.71,-0.483,1.242,-0.158
4.72,-0.171,0.837,0.12
4.73,-0.058,1.113,0.098
4.74,-0.192,0.747,0.01
4.75,-0.419,1.011,-0.133
4.76,-0.026,1.222,-0.122
4.77,-0.131,0.694,0.072
4.78,-0.123,1.07,0.213
4.79,-0.291,0.803,-0.143
4.8,-0.347,1.125,-0.142
4.81,-0.112,1.023,0.116
4.82,-0.125,0.92,0.09
4.83,-0.229,0.84,0.025
4.84,-0.354,1.066,-0.161
4.85,-0.105,1.196,-0.062
4.86,-0.179,0.658,0.164
4.87,-0.083,1.099,0.186
4.88,-0.383,0.788,-0.197
4.89,-0.281,1.103,-0.094
4.9,0.055,1.044,-0.001
4.91,-0.184,0.758,0.1
4.92,-0.242,1.007,0.072
4.93,-0.302,1.003,-0.233
4.94,-0.243,1.088,-0.037
4.95,-0.002,0.724,0.183
4.96,-0.1,1.028,0.046
4.97,-0.469,0.852,-0.176
4.98,-0.138,1.161,-0.091
4.99,-0.064,0.976,0.016
5.0,-0.269,0.753,0.175
5.01,-0.205,1.114,-0.031
5.02,-0.393,0.844,-0.178
5.03,-0.22,1.185,0.069
5.04,-0.007,0.82,0.163
5.05,-0.208,0.935,0.014
5.06,-0.413,0.959,-0.152
5.07,0.002,1.122,-0.156
5.08,-0.156,0.958,0.063
5.09,-0.129,0.712,0.211
5.1,-0.33,1.175,-0.126
5.11,-0.32,0.764,-0.133
5.12,-0.187,1.302,0.155
5.13,-0.034,0.752,0.136
5.14,-0.261,0.931,-0.02
5.15,-0.373,1.048,-0.125
5.16,-0.181,0.969,-0.063
5.17,-0.21,1.0,0.124
5.18,-0.02,0.746,0.118
5.19,-0.372,1.077,-0.213
5.2,-0.282,0.879,-0.028
5.21,-0.075,1.306,0.038
5.22,-0.059,0.582,0.156
5.23,-0.386,1.085,0.034
5.24,-0.302,0.936,-0.248
5.25,-0.133,1.022,0.018
5.26,-0.104,1.048,0.131
5.27,-0.092,0.709,0.085
5.28,-0.46,1.169,-0.176
5.29,-0.105,0.884,-0.073
5.3,-0.123,1.15,0.075
5.31,-0.152,0.693,0.192
5.32,-0.333,1.048,-0.099
5.33,-0.301,0.9,-0.189
5.34,-0.143,1.021,0.141
5.35,-0.159,1.091,0.13
5.36,-0.124,0.644,0.034
5.37,-0.41,1.283,-0.137
5.38,-0.073,0.873,-0.102
5.39,-0.186,1.109,0.065
5.4,-0.118,0.773,0.237
5.41,-0.428,1.006,-0.127
5.42,-0.231,0.935,-0.172
5.43,-0.033,1.115,0.133
5.44,-0.252,1.026,0.125
5.45,-0.184,0.631,0.016
5.46,-0.389,1.415,-0.143
5.47,-0.167,0.835,-0.046
5.48,-0.167,1.037,0.117
5.49,-0.097,0.82,0.116
5.5,-0.412,0.952,-0.188
5.51,-0.238,1.043,-0.136
5.52,0.029,0.992,0.058
5.53,-0.115,0.995,0.131
5.54,-0.293,0.677,0.063
5.55,-0.395,1.326,-0.242
5.56,-0.052,0.815,-0.113
5.57,-0.17,1.099,0.209
5.58,-0.072,0.807,0.087
5.59,-0.445,0.884,-0.202
5.6,-0.141,1.198,-0.055
5.61,-0.063,0.926,0.036
5.62,-0.226,0.972,0.159
5.63,-0.153,0.722,-0.002
5.64,-0.394,1.313,-0.225
5.65,-0.175,0.842,0.026
5.66,-0.084,1.058,0.169
5.67,-0.203,0.836,0.114
5.68,-0.412,0.901,-0.183
5.69,-0.106,1.281,-0.074
5.7,-0.064,0.766,0.061
5.71,-0.214,1.041,0.173
5.72,-0.265,0.738,-0.085
5.73,-0.32,1.128,-0.166
5.74,-0.108,1.022,0.085
5.75,-0.198,0.946,0.132
5.76,-0.125,0.908,0.014
5.77,-0.425,0.927,-0.121
5.78,-0.165,1.277,-0.071
5.79,-0.098,0.714,0.08
5.8,-0.132,1.051,0.119
5.81,-0.308,0.8,-0.159
5.82,-0.27,1.111,-0.146
5.83,-0.109,1.069,0.093
5.84,-0.098,0.743,0.111
5.85,-0.314,1.038,0.022
5.86,-0.294,0.932,-0.205
5.87,-0.161,1.166,-0.014
5.88,-0.158,0.755,0.172
5.89,-0.141,1.046,0.079
5.9,-0.349,0.86,-0.191
5.91,-0.246,1.073,-0.011
5.92,-0.072,1.129,0.053
5.93,-0.116,0.69,0.126
5.94,-0.279,1.133,0.03
5.95,-0.321,0.872,-0.25
5.96,-0.234,1.17,0.035
5.97,-0.034,0.843,0.181
5.98,-0.186,0.902,0.064
5.99,-0.366,0.944,-0.18
6.0,-0.15,1.198,-0.156
6.01,-0.179,0.811,0.089
6.02,-0.09,0.832,0.207
6.03,-0.361,1.088,-0.146
6.04,-0.328,0.764,-0.167
6.05,-0.089,1.316,0.146
6.06,-0.173,0.72,0.142
6.07,-0.25,0.998,0.037
6.08,-0.356,1.013,-0.172
6.09,-0.124,1.049,-0.078
6.1,-0.187,0.9,0.112
6.11,-0.037,0.794,0.14
6.12,-0.439,1.107,-0.219
6.13,-0.267,0.77,-0.075
6.14,-0.06,1.372,0.068
6.15,-0.135,0.655,0.126
6.16,-0.271,0.984,0.017
6.17,-0.29,1.05,-0.218
6.18,-0.184,0.925,0.011
6.19,-0.193,0.99,0.227
6.2,-0.025,0.756,0.113
6.21,-0.517,1.117,-0.238
6.22,-0.103,0.853,-0.025
6.23,-0.134,1.286,0.038
6.24,-0.172,0.637,0.13
6.25,-0.216,1.002,-0.001
6.26,-0.359,1.06,-0.223
6.27,-0.228,0.877,0.072
6.28,-0.082,1.178,0.146
6.29,-0.102,0.626,0.041
6.3,-0.5,1.212,-0.14
6.31,0.004,0.906,-0.115
6.32,-0.161,1.118,0.057
6.33,-0.196,0.764,0.231
6.34,-0.281,0.969,-0.135
6.35,-0.349,1.022,-0.201
6.36,-0.139,1.0,0.173
6.37,-0.133,1.164,0.094
6.38,-0.196,0.572,0.024
6.39,-0.428,1.308,-0.144
6.4,-0.112,0.926,-0.082
6.41,-0.178,0.997,0.046
6.42,-0.053,0.873,0.193
6.43,-0.424,0.873,-0.166
6.44,-0.274,1.041,-0.138
6.45,0.051,1.005,0.05
6.46,-0.199,1.023,0.114
6.47,-0.241,0.631,0.103
6.48,-0.328,1.322,-0.236
6.49,-0.086,0.889,-0.043
6.5,-0.19,1.031,0.219
6.51,-0.094,0.891,0.091
6.52,-0.329,0.833,-0.206
6.53,-0.295,1.254,-0.012
6.54,-0.025,0.904,0.035
6.55,-0.183,0.99,0.145
6.56,-0.203,0.751,0.012
6.57,-0.367,1.278,-0.256
6.58,-0.124,0.817,-0.027
6.59,-0.171,1.003,0.229
6.6,-0.153,0.935,0.072
6.61,-0.423,0.777,-0.175
6.62,-0.15,1.324,-0.02
6.63,-0.136,0.847,0.08
6.64,-0.176,0.946,0.12
6.65,-0.181,0.771,-0.034
6.66,-0.394,1.146,-0.196
6.67,-0.161,1.004,0.068
6.68,-0.128,0.937,0.151
6.69,-0.143,0.923,0.047
6.7,-0.406,0.859,-0.141
6.71,-0.133,1.296,-0.053
6.72,-0.039,0.749,0.058
6.73,-0.177,1.026,0.203
6.74,-0.36,0.828,-0.088
6.75,-0.245,1.05,-0.15
6.76,-0.042,1.182,0.053
6.77,-0.207,0.721,0.174
6.78,-0.239,1.022,0.017
6.79,-0.298,0.925,-0.156
6.8,-0.224,1.17,-0.034
6.81,-0.105,0.739,0.176
6.82,-0.156,1.064,0.073
6.83,-0.305,0.757,-0.147
6.84,-0.262,1.185,-0.047
6.85,-0.114,1.018,0.017
6.86,-0.091,0.774,0.149
6.87,-0.276,1.064,0.035
6.88,-0.434,0.893,-0.212
6.89,-0.11,1.133,-0.008
6.9,-0.109,0.821,0.205
6.91,-0.156,1.004,0.042
6.92,-0.362,0.844,-0.211
6.93,-0.083,1.124,-0.091
6.94,-0.11,1.052,0.034
6.95,-0.181,0.717,0.191
6.96,-0.26,1.129,-0.038
6.97,-0.355,0.82,-0.165
6.98,-0.232,1.207,0.095
6.99,-0.011,0.823,0.116
7.0,-0.216,0.955,0.038
7.01,-0.4,0.95,-0.144
7.02,-0.1,1.099,-0.076
7.03,-0.124,1.01,0.045
7.04,-0.179,0.736,0.225
7.05,-0.274,1.128,-0.106
7.06,-0.387,0.779,-0.143
7.07,-0.114,1.3,0.111
7.08,-0.05,0.765,0.08
7.09,-0.232,0.894,0.01
7.1,-0.371,1.097,-0.167
7.11,-0.094,0.996,-0.122
7.12,-0.176,1.0,0.123
7.13,-0.067,0.706,0.17
7.14,-0.459,1.151,-0.167
7.15,-0.236,0.775,-0.125
7.16,-0.018,1.346,0.057
7.17,-0.163,0.728,0.107
7.18,-0.207,0.883,0.007
7.19,-0.337,1.207,-0.204
7.2,-0.178,0.859,0.003
7.21,-0.246,1.1,0.171
7.22,-0.018,0.696,0.1
7.23,-0.469,1.161,-0.199
7.24,-0.26,0.897,-0.016
7.25,-0.14,1.211,0.094
7.26,-0.13,0.727,0.117
7.27,-0.258,0.901,0.019
7.28,-0.383,1.229,-0.206
7.29,-0.174,0.804,0.008
7.3,-0.1,1.222,0.121
7.31,-0.059,0.626,0.061
7.32,-0.55,1.155,-0.149
7.33,-0.047,0.934,-0.09
7.34,-0.126,1.082,0.068
7.35,-0.175,0.851,0.18
7.36,-0.246,0.811,-0.087
7.37,-0.322,1.115,-0.237
7.38,-0.085,0.933,0.144
7.39,-0.146,1.172,0.086
7.4,-0.159,0.595,0.047
7.41,-0.396,1.263,-0.121
7.42,-0.094,1.024,-0.095
7.43,-0.191,0.938,0.074
7.44,-0.119,0.969,0.2
7.45,-0.353,0.785,-0.146
7.46,-0.311,1.126,-0.164
7.47,0.025,0.98,0.096
7.48,-0.133,1.069,0.095
7.49,-0.222,0.702,0.029
7.5,-0.395,1.221,-0.135
7.51,-0.152,1.005,-0.076
7.52,-0.168,0.882,0.116
7.53,-0.098,0.987,0.141
7.54,-0.386,0.779,-0.173
7.55,-0.253,1.232,-0.107
7.56,-0.101,0.905,0.096
7.57,-0.099,0.966,0.13
7.58,-0.213,0.781,-0.002
7.59,-0.354,1.152,-0.168
7.6,-0.136,1.0,-0.014
7.61,-0.156,0.839,0.176
7.62,-0.213,1.019,0.106
7.63,-0.422,0.881,-0.209
7.64,-0.157,1.319,-0.061
7.65,-0.14,0.751,0.083
7.66,-0.262,0.961,0.187
7.67,-0.238,0.816,-0.061
7.68,-0.297,1.177,-0.199
7.69,-0.141,0.944,0.049
7.7,-0.087,0.948,0.147
7.71,-0.195,0.887,0.035
7.72,-0.437,0.892,-0.14
7.73,-0.116,1.305,-0.105
7.74,-0.122,0.709,0.099
7.75,-0.218,1.033,0.218
7.76,-0.324,0.813,-0.113
7.77,-0.322,1.031,-0.153
7.78,-0.062,1.128,0.098
7.79,-0.126,0.785,0.139
7.8,-0.274,0.991,0.014
7.81,-0.361,0.95,-0.143
7.82,-0.166,1.2,-0.075
7.83,-0.164,0.709,0.153
7.84,-0.065,1.016,0.137
7.85,-0.389,0.885,-0.203
7.86,-0.255,0.984,-0.077
7.87,0.001,1.199,0.007
7.88,-0.13,0.645,0.102
7.89,-0.247,1.088,0.033
7.9,-0.295,0.956,-0.245
7.91,-0.14,1.151,-0.013
7.92,-0.139,0.776,0.181
7.93,-0.102,0.945,0.103
7.94,-0.417,0.969,-0.213
7.95,-0.212,0.991,-0.01
7.96,-0.077,1.161,0.041
7.97,-0.146,0.63,0.096
7.98,-0.257,1.129,-0.042
7.99,-0.304,0.844,-0.24
8.0,-0.2,1.129,0.071
8.01,-0.043,0.877,0.169
8.02,-0.142,0.863,0.075
8.03,-0.405,1.046,-0.193
8.04,-0.037,0.949,-0.09
8.05,-0.184,1.11,0.016
8.06,-0.16,0.685,0.204
8.07,-0.328,1.163,-0.102
8.08,-0.308,0.794,-0.209
8.09,-0.142,1.206,0.152
8.1,-0.048,0.826,0.132
8.11,-0.23,0.814,0.016
8.12,-0.406,1.214,-0.159
8.13,-0.128,0.83,-0.075
8.14,-0.229,1.118,0.111
8.15,-0.009,0.701,0.163
8.16,-0.427,1.16,-0.171
8.17,-0.242,0.817,-0.154
8.18,-0.043,1.239,0.101
8.19,-0.132,0.838,0.109
8.2,-0.227,0.785,0.047
8.21,-0.34,1.268,-0.215
8.22,-0.142,0.81,-0.052
8.23,-0.198,1.136,0.132
8.24,0.0,0.739,0.117
8.25,-0.436,1.084,-0.226
8.26,-0.223,0.948,-0.062
8.27,-0.039,1.097,0.116
8.28,-0.215,0.872,0.132
8.29,-0.236,0.767,0.034
8.3,-0.341,1.285,-0.238
8.31,-0.128,0.778,0.04
8.32,-0.25,1.233,0.196
8.33,-0.062,0.663,0.047
8.34,-0.476,1.073,-0.171
8.35,-0.104,1.073,-0.02
8.36,-0.138,0.965,0.097
8.37,-0.182,0.906,0.153
8.38,-0.224,0.775,-0.061
8.39,-0.378,1.272,-0.186
8.4,-0.094,0.875,0.052
8.41,-0.078,1.164,0.104
8.42,-0.171,0.658,-0.005
8.43,-0.435,1.079,-0.156
8.44,-0.051,1.133,-0.072
8.45,-0.152,0.945,0.117
8.46,-0.061,0.925,0.169
8.47,-0.407,0.845,-0.177
8.48,-0.253,1.134,-0.124
8.49,-0.022,0.97,0.153
8.5,-0.194,1.004,0.085
8.51,-0.23,0.682,-0.018
8.52,-0.339,1.275,-0.152
8.53,-0.124,0.909,-0.019
8.54,-0.193,0.931,0.217
8.55,-0.062,0.985,0.09
8.56,-0.452,0.791,-0.202
8.57,-0.194,1.243,-0.031
8.58,-0.021,0.902,0.089
8.59,-0.272,0.961,0.119
8.6,-0.235,0.791,-0.012
8.61,-0.313,1.187,-0.211
8.62,-0.192,0.994,0.037
8.63,-0.063,0.879,0.159
8.64,-0.155,0.958,0.033
8.65,-0.487,0.828,-0.141
8.66,-0.085,1.287,-0.081
8.67,-0.104,0.724,0.098
8.68,-0.207,0.996,0.179
8.69,-0.257,0.881,-0.135
8.7,-0.296,0.988,-0.154
8.71,-0.164,1.141,0.133
8.72,-0.101,0.757,0.14
8.73,-0.249,1.025,-0.012
8.74,-0.352,0.922,-0.129
8.75,-0.162,1.217,-0.046
8.76,-0.131,0.741,0.103
8.77,-0.065,0.992,0.102
8.78,-0.364,0.942,-0.228
8.79,-0.262,0.987,-0.04
8.8,-0.115,1.177,0.059
8.81,-0.128,0.612,0.123
8.82,-0.302,1.141,0.019
8.83,-0.289,0.864,-0.241
8.84,-0.184,1.157,0.025
8.85,-0.057,0.903,0.126
8.86,-0.083,0.881,0.033
8.87,-0.425,1.011,-0.146
8.88,-0.035,0.995,-0.11
8.89,-0.218,1.12,0.099
8.9,-0.121,0.634,0.191
8.91,-0.286,1.161,-0.15
8.92,-0.339,0.828,-0.182
8.93,-0.062,1.217,0.12
8.94,-0.124,0.882,0.113
8.95,-0.239,0.78,0.01
8.96,-0.386,1.176,-0.154
8.97,-0.091,0.938,-0.07
8.98,-0.18,1.052,0.101
8.99,-0.067,0.72,0.188
9.0,-0.497,1.172,-0.184
9.01,-0.257,0.838,-0.11
9.02,-0.061,1.21,0.077
9.03,-0.163,0.783,0.13
9.04,-0.277,0.839,0.032
9.05,-0.338,1.239,-0.218
9.06,-0.176,0.756,0.031
9.07,-0.155,1.166,0.243
9.08,-0.09,0.717,0.08
9.09,-0.5,1.116,-0.192
9.1,-0.13,0.991,-0.01
9.11,-0.16,1.045,0.087
9.12,-0.196,0.855,0.162
9.13,-0.24,0.823,-0.091
9.14,-0.368,1.217,-0.224
9.15,-0.101,0.873,0.152
9.16,-0.047,1.196,0.115
9.17,-0.237,0.594,0.028
9.18,-0.38,1.148,-0.15
9.19,-0.059,1.115,-0.119
9.2,-0.151,0.875,0.098
9.21,-0.144,0.962,0.216
9.22,-0.361,0.766,-0.163
9.23,-0.285,1.193,-0.143
9.24,-0.014,0.927,0.097
9.25,-0.173,0.988,0.114
9.26,-0.203,0.726,0.023
9.27,-0.391,1.352,-0.221
9.28,-0.09,0.8,-0.045
9.29,-0.117,1.044,0.216
9.3,-0.048,0.91,-0.09
9.31,-0.16,1.001,0.08
9.32,-0.121,0.694,0.22
9.33,-0.428,1.185,-0.13
9.34,-0.226,0.817,-0.122
9.35,-0.169,1.296,0.108
9.36,-0.112,0.677,0.092
9.37,-0.188,0.912,0.021
9.38,-0.398,1.193,-0.197
9.39,-0.099,0.836,-0.024
9.4,-0.239,1.102,0.195
9.41,-0.044,0.673,0.085
9.42,-0.478,1.198,-0.217
9.43,-0.209,0.856,-0.014
9.44,-0.134,1.157,0.083
9.45,-0.153,0.766,0.092
9.46,-0.204,0.92,-0.06
9.47,-0.281,1.14,-0.247
9.48,-0.103,0.89,0.107
9.49,-0.081,1.169,0.128
9.5,-0.139,0.576,0.011
9.51,-0.489,1.233,-0.15
9.52,-0.04,0.981,-0.095
9.53,-0.194,0.988,0.066
9.54,-0.062,0.838,0.19
9.55,-0.354,0.899,-0.167
9.56,-0.234,1.167,-0.201
9.57,-0.028,0.909,0.083
9.58,-0.163,1.051,0.092
9.59,-0.2,0.661,0.012
9.6,-0.42,1.273,-0.207
9.61,-0.039,0.877,-0.069
9.62,-0.157,0.964,0.175
9.63,-0.137,0.977,0.124
9.64,-0.393,0.823,-0.175
9.65,-0.312,1.23,-0.037
9.66,-0.039,0.86,0.109
9.67,-0.137,0.991,0.104
9.68,-0.283,0.73,0.022
9.69,-0.323,1.226,-0.232
9.7,-0.073,0.969,-0.031
9.71,-0.138,0.906,0.219
9.72,-0.145,0.969,0.067
9.73,-0.423,0.856,-0.227
9.74,-0.131,1.243,-0.031
9.75,-0.102,0.78,0.125
9.76,-0.314,1.015,0.156
9.77,-0.171,0.801,-0.118
9.78,-0.353,1.097,-0.154
9.79,-0.081,1.054,0.115
9.8,-0.099,0.778,0.113
9.81,-0.242,0.978,-0.006
9.82,-0.366,0.945,-0.154
9.83,-0.157,1.211,-0.036
9.84,-0.154,0.699,0.151
9.85,-0.112,0.984,0.131
9.86,-0.341,0.912,-0.208
9.87,-0.282,1.049,-0.054
9.88,-0.098,1.135,0.09
9.89,-0.136,0.645,0.125
9.9,-0.367,1.125,-0.012
9.91,-0.295,0.881,-0.25
9.92,-0.173,1.161,0.014
9.93,-0.06,0.827,0.166
9.94,-0.165,0.914,0.051
9.95,-0.389,1.005,-0.217
9.96,-0.103,0.974,-0.039
9.97,-0.091,1.088,0.082
9.98,-0.146,0.704,0.148
9.99,-0.351,1.169,-0.102
10.0,-0.29,0.807,-0.168
10.01,-0.125,1.225,0.148
10.02,-0.092,0.65,0.12
10.03,-0.338,0.975,0.018
10.04,-0.337,1.0,-0.191
10.05,-0.093,1.05,-0.005
10.06,-0.252,0.955,0.175
10.07,0.023,0.758,0.105
10.08,-0.489,1.216,-0.243
10.09,-0.209,0.792,0.033
10.1,-0.082,1.272,0.06
10.11,-0.145,0.669,0.166
10.12,-0.3,1.051,-0.027
10.13,-0.29,1.017,-0.222
10.14,-0.22,0.959,0.14
10.15,-0.084,1.081,0.137
10.16,-0.137,0.645,0.01
10.17,-0.559,1.232,-0.175
10.18,0.026,0.894,-0.064
10.19,-0.197,1.156,0.097
10.2,-0.17,0.712,0.258
10.21,-0.31,1.015,-0.154
10.22,-0.319,1.026,-0.176
10.23,-0.152,0.961,0.187
10.24,-0.077,1.023,0.106
10.25,-0.25,0.632,0.004
10.26,-0.355,1.369,-0.211
10.27,-0.064,0.821,-0.041
10.28,-0.255,1.119,0.18
10.29,-0.029,0.81,0.121
10.3,-0.386,0.958,-0.237
10.31,-0.28,1.13,-0.043
10.32,-0.001,0.91,0.052
10.33,-0.19,1.025,0.127
10.34,-0.255,0.672,0.008
10.35,-0.352,1.304,-0.243
10.36,-0.067,0.881,-0.001
10.37,-0.074,1.072,0.13
10.38,-0.16,0.789,0.011
10.39,-0.44,0.974,-0.179
10.4,-0.065,1.2,-0.075
10.41,-0.091,0.736,0.093
10.42,-0.165,1.061,0.147
10.43,-0.328,0.743,-0.167
10.44,-0.283,1.164,-0.162
10.45,-0.027,0.988,0.096
10.46,-0.145,0.847,0.126
10.47,-0.278,0.914,0.025
10.48,-0.347,1.01,-0.174
10.49,-0.113,1.146,-0.05
10.5,-0.151,0.722,0.177
10.51,-0.097,1.063,0.071
10.52,-0.393,0.788,-0.225
10.53,-0.175,1.18,-0.033
10.54,-0.095,0.952,0.093
10.55,-0.176,0.736,0.153
10.56,-0.258,1.073,-0.028
10.57,-0.389,0.895,-0.196
10.58,-0.158,1.202,0.047
10.59,-0.047,0.784,0.153
10.6,-0.242,0.968,0.007
10.61,-0.334,0.891,-0.186
10.62,-0.136,1.16,-0.038
10.63,-0.128,0.887,0.094
10.64,-0.136,0.762,0.162
10.65,-0.286,1.191,-0.164
10.66,-0.297,0.8,-0.171
10.67,-0.089,1.24,0.133
10.68,-0.077,0.709,0.091
10.69,-0.27,0.959,-0.028
10.7,-0.352,0.984,-0.143
10.71,-0.198,1.049,0.044
10.72,-0.222,0.943,0.154
10.73,-0.033,0.73,0.073
10.74,-0.429,1.21,-0.224
10.75,-0.211,0.867,-0.046
10.76,-0.029,1.197,0.064
10.77,-0.195,0.689,0.15
10.78,-0.288,1.026,-0.027
10.79,-0.345,1.065,-0.171
10.8,-0.188,0.956,0.048
10.81,-0.05,1.096,0.148
10.82,-0.215,0.641,0.027
10.83,-0.434,1.218,-0.154
10.84,-0.061,0.855,-0.094
10.85,-0.19,1.115,0.115
10.86,0.004,0.698,0.155
10.87,-0.443,1.126,-0.181
10.88,-0.301,0.924,-0.042
10.89,-0.053,1.134,0.103
10.9,-0.19,0.835,0.11
10.91,-0.219,0.775,-0.022
10.92,-0.383,1.318,-0.234
10.93,-0.075,0.796,0.02
10.94,-0.126,1.204,0.133
10.95,-0.061,0.631,0.054
10.96,-0.493,1.121,-0.135
10.97,-0.092,1.069,-0.082
10.98,-0.107,0.918,0.09
10.99,-0.198,0.978,0.259
11.0,-0.26,0.757,-0.1
11.01,-0.397,1.201,-0.16
11.02,-0.097,0.918,0.195
11.03,-0.144,1.151,0.101
11.04,-0.213,0.618,0.011
11.05,-0.321,1.233,-0.198
11.06,-0.093,1.047,-0.087
11.07,-0.24,0.814,0.163
11.08,-0.052,1.066,0.157
11.09,-0.354,0.765,-0.211
11.1,-0.336,1.243,-0.025
11.11,0.013,0.914,0.041
11.12,-0.196,0.897,0.102
11.13,-0.195,0.842,0.047
11.14,-0.401,1.194,-0.214
11.15,-0.232,0.957,-0.012
11.16,0.025,0.905,0.163
11.17,-0.217,1.044,0.029
11.18,-0.466,0.723,-0.118
11.19,-0.144,1.339,-0.038
11.2,-0.166,0.782,0.035
11.21,-0.151,0.908,0.189
11.22,-0.161,0.961,-0.134
11.23,-0.388,0.937,-0.185
11.24,-0.093,1.144,0.114
11.25,0.0,0.818,0.117
11.26,-0.312,1.016,0.032
11.27,-0.317,0.894,-0.194
11.28,-0.141,1.199,-0.131
11.29,-0.209,0.73,0.136
11.3,-0.091,0.927,0.188
11.31,-0.427,1.006,-0.201
11.32,-0.284,0.811,-0.096
11.33,0.069,1.313,0.067
11.34,-0.073,0.608,0.08
11.35,-0.31,1.053,0.085
11.36,-0.24,0.955,-0.224
11.37,-0.179,1.063,-0.095
11.38,-0.099,0.846,0.188
11.39,-0.109,0.847,0.071
11.4,-0.546,1.089,-0.18
11.41,-0.035,0.914,-0.036
11.42,-0.152,1.245,0.051
11.43,-0.226,0.531,0.202
11.44,-0.18,1.161,-0.037
11.45,-0.325,0.914,-0.277
11.46,-0.194,0.993,0.07
11.47,0.029,1.032,0.107
11.48,-0.229,0.701,0.016
11.49,-0.483,1.165,-0.132
11.5,-0.009,0.986,-0.111
11.51,-0.261,1.11,0.022
11.52,-0.101,0.654,0.229
11.53,-0.27,1.11,-0.191
11.54,-0.299,0.858,-0.209
11.55,0.014,1.121,0.108
11.56,-0.103,0.996,0.13
11.57,-0.309,0.684,0.048
11.58,-0.357,1.346,-0.148
11.59,-0.083,0.82,-0.074
11.6,-0.283,1.14,0.18
11.61,-0.054,0.74,0.153
11.62,-0.439,1.03,-0.195
11.63,-0.265,0.998,-0.058
11.64,0.023,1.075,0.042
11.65,-0.165,0.747,0.097
11.66,-0.256,0.873,-0.01
11.67,-0.32,1.211,-0.213
11.68,-0.112,0.827,0.056
11.69,-0.122,1.189,0.19
11.7,-0.139,0.627,0.04
11.71,-0.531,1.203,-0.176
11.72,-0.097,0.99,-0.056
11.73,-0.119,1.017,0.09
11.74,-0.194,0.859,0.189
11.75,-0.254,0.824,-0.118
11.76,-0.277,1.175,-0.161
11.77,-0.074,0.92,0.122
11.78,-0.167,1.071,0.121
11.79,-0.175,0.696,-0.0
11.8,-0.461,1.267,-0.169
11.81,-0.132,0.954,-0.014
11.82,-0.177,0.918,0.162
11.83,-0.176,0.974,0.146
11.84,-0.326,0.78,-0.209
11.85,-0.245,1.226,-0.086
11.86,-0.079,0.937,0.122
11.87,-0.103,0.962,0.1
11.88,-0.329,0.743,0.016
11.89,-0.332,1.196,-0.184
11.9,-0.13,0.995,-0.023
11.91,-0.173,0.863,0.193
11.92,-0.1,1.015,0.047
11.93,-0.402,0.803,-0.203
11.94,-0.163,1.281,-0.038
11.95,-0.04,0.823,0.098
11.96,-0.154,0.948,0.158
11.97,-0.261,0.872,-0.073
11.98,-0.287,1.097,-0.144
11.99,-0.236,1.106,0.079
12.0,-0.107,0.808,0.123
12.01,-0.229,1.008,0.003
12.02,-0.383,0.882,-0.151
12.03,-0.19,1.24,-0.018
12.04,-0.1,0.706,0.07
12.05,-0.034,0.969,0.138
12.06,-0.357,0.921,-0.171
12.07,-0.302,0.964,-0.048
12.08,-0.04,1.192,0.077
12.09,-0.181,0.658,0.128
12.1,-0.264,1.072,0.027
12.11,-0.381,0.923,-0.167
12.12,-0.176,1.171,-0.001
12.13,-0.094,0.817,0.163
12.14,-0.12,0.886,0.101
12.15,-0.409,1.031,-0.2
12.16,-0.138,0.959,-0.044
12.17,-0.117,1.201,0.045
12.18,-0.205,0.627,0.164
12.19,-0.28,1.139,-0.055
12.2,-0.336,0.868,-0.214
12.21,-0.131,1.133,0.093
12.22,-0.096,0.869,0.108
12.23,-0.106,0.815,0.032
12.24,-0.428,1.162,-0.21
12.25,-0.095,0.87,-0.115
12.26,-0.144,1.107,0.082
12.27,-0.135,0.721,0.181
12.28,-0.415,1.086,-0.168
12.29,-0.253,0.789,-0.171
12.3,-0.029,1.219,0.156
12.31,-0.139,0.893,0.134
12.32,-0.248,0.75,0.034
12.33,-0.392,1.311,-0.196
12.34,-0.105,0.803,-0.032
12.35,-0.244,1.138,0.173
12.36,-0.066,0.689,0.116
12.37,-0.458,1.091,-0.216
12.38,-0.237,0.99,-0.011
12.39,-0.125,1.099,0.119
12.4,-0.16,0.83,0.1
12.41,-0.195,0.765,-0.007
12.42,-0.401,1.306,-0.195
12.43,-0.061,0.82,-0.036
12.44,-0.208,1.156,0.194
12.45,-0.049,0.677,0.051
12.46,-0.525,1.256,-0.175
12.47,-0.124,0.896,-0.016
12.48,-0.115,1.096,0.087
12.49,-0.172,0.829,0.163
12.5,-0.305,0.876,-0.113
12.51,-0.2,1.215,-0.152
12.52,-0.087,0.851,0.068
12.53,-0.119,1.029,0.116
12.54,-0.168,0.694,-0.02
12.55,-0.492,1.253,-0.146
12.56,-0.108,0.839,-0.022
12.57,-0.109,0.988,0.142
12.58,-0.233,0.927,0.136
12.59,-0.323,0.841,-0.176
12.6,-0.228,1.202,-0.133
12.61,-0.088,0.869,0.152
12.62,-0.119,1.046,0.134
12.63,-0.296,0.721,-0.041
12.64,-0.366,1.225,-0.196
12.65,-0.023,0.967,-0.035
12.66,-0.143,0.906,0.143
12.67,-0.161,0.932,0.059
12.68,-0.357,0.887,-0.184
12.69,-0.219,1.289,-0.041
12.7,0.01,0.756,0.088
12.71,-0.215,1.026,0.134
12.72,-0.347,0.79,-0.079
12.73,-0.261,1.109,-0.163
12.74,-0.139,1.047,0.062
12.75,-0.115,0.826,0.156
12.76,-0.237,0.978,-0.019
12.77,-0.377,0.851,-0.196
12.78,-0.066,1.285,-0.034
12.79,-0.064,0.713,0.111
12.8,-0.193,1.032,0.191
12.81,-0.357,0.904,-0.161
12.82,-0.346,1.029,-0.11
12.83,0.02,1.124,0.087
12.84,-0.086,0.705,0.087
12.85,-0.438,1.059,0.021
12.86,-0.22,0.916,-0.161
12.87,-0.147,1.27,-0.041
12.88,-0.1,0.727,0.181
12.89,-0.155,0.967,0.055
12.9,-0.423,0.983,-0.19
12.91,-0.177,0.98,-0.088
12.92,-0.089,1.033,0.149
12.93,-0.145,0.717,0.147
12.94,-0.366,1.129,-0.13
12.95,-0.204,0.78,-0.184
12.96,-0.053,1.281,0.065
12.97,-0.11,0.738,0.151
12.98,-0.26,0.895,-0.009
12.99,-0.339,1.121,-0.153
13.0,-0.129,0.936,-0.012
13.01,-0.271,1.082,0.205
13.02,-0.12,0.691,0.11
13.03,-0.453,1.16,-0.188
13.04,-0.228,0.899,-0.045
13.05,-0.138,1.157,0.088
13.06,-0.118,0.739,0.137
13.07,-0.317,0.9,0.002
13.08,-0.386,1.144,-0.206
13.09,-0.095,0.85,0.035
13.1,-0.11,1.217,0.106
13.11,-0.102,0.616,0.02
13.12,-0.434,1.224,-0.152
13.13,-0.149,0.972,-0.043
13.14,-0.162,0.999,0.121
13.15,-0.141,0.856,0.187
13.16,-0.359,0.893,-0.119
13.17,-0.351,1.138,-0.203
13.18,0.018,0.925,0.107
13.19,-0.18,1.105,0.107
13.2,-0.196,0.647,0.047
13.21,-0.421,1.298,-0.187
13.22,-0.15,0.913,-0.035
13.23,-0.182,0.917,0.186
13.24,-0.1,0.959,0.118
13.25,-0.433,0.773,-0.228
13.26,-0.174,1.228,-0.075
13.27,0.011,0.909,0.059
13.28,-0.209,0.966,0.135
13.29,-0.184,0.724,-0.082
13.3,-0.395,1.304,-0.175
13.31,-0.137,0.861,0.101
13.32,-0.102,1.082,0.133
13.33,-0.164,0.773,-0.013
13.34,-0.372,1.062,-0.113
13.35,-0.164,1.191,-0.087
13.36,-0.14,0.696,0.069
13.37,-0.042,1.056,0.162
13.38,-0.397,0.754,-0.144
13.39,-0.273,1.193,-0.122
13.4,-0.003,0.997,0.065
13.41,-0.139,0.869,0.097
13.42,-0.269,0.888,0.062
13.43,-0.311,1.017,-0.27
13.44,-0.071,1.146,-0.07
13.45,-0.044,0.74,0.181
13.46,-0.218,1.052,0.123
13.47,-0.357,0.793,-0.204
13.48,-0.124,1.238,-0.09
13.49,-0.116,0.927,0.145
13.5,-0.257,0.792,0.183
13.51,-0.234,1.04,-0.063
13.52,-0.325,0.917,-0.165
13.53,-0.206,1.233,0.107
13.54,-0.077,0.705,0.145
13.55,-0.198,0.997,-0.007
13.56,-0.359,0.971,-0.132
13.57,-0.166,1.139,-0.06
13.58,-0.122,0.863,0.101
13.59,-0.095,0.813,0.16
13.6,-0.38,1.089,-0.168
13.61,-0.288,0.787,-0.121
13.62,-0.084,1.343,0.095
13.63,-0.092,0.641,0.108
13.64,-0.3,0.987,0.026
13.65,-0.265,1.058,-0.148
13.66,-0.123,1.006,-0.031
13.67,-0.244,0.918,0.167
13.68,0.013,0.754,0.093
13.69,-0.533,1.158,-0.221
13.7,-0.176,0.865,-0.006
13.71,-0.096,1.325,0.057
13.72,-0.183,0.605,0.105
13.73,-0.173,1.041,-0.052
13.74,-0.339,1.081,-0.205
13.75,-0.144,0.953,0.029
13.76,-0.065,1.099,0.107
13.77,-0.056,0.645,0.012
13.78,-0.48,1.242,-0.135
13.79,-0.091,0.904,-0.05
13.8,-0.195,1.125,0.077
13.81,-0.163,0.736,0.224
13.82,-0.32,1.014,-0.105
13.83,-0.3,1.023,-0.184
13.84,-0.096,0.973,0.093
13.85,-0.103,1.093,0.126
13.86,-0.144,0.613,0.021
13.87,-0.464,1.35,-0.118
13.88,-0.11,0.892,-0.049
13.89,-0.197,1.035,0.094
13.9,-0.067,0.83,0.18
13.91,-0.432,0.919,-0.14
13.92,-0.346,1.102,-0.096
13.93,0.033,0.967,0.076
13.94,-0.183,1.019,0.1
13.95,-0.241,0.668,0.028
13.96,-0.35,1.338,-0.218
13.97,-0.09,0.836,-0.041
13.98,-0.178,1.04,0.229
13.99,-0.122,0.877,0.073
14.0,-0.441,0.885,-0.201
14.01,-0.198,1.278,-0.049
14.02,-0.016,0.858,0.063
14.03,-0.282,0.985,0.159
14.04,-0.143,0.723,-0.085
14.05,-0.34,1.281,-0.192
14.06,-0.144,0.915,0.079
14.07,-0.084,0.955,0.167
14.08,-0.136,0.93,0.031
14.09,-0.479,1.098,-0.141
14.1,-0.087,1.068,-0.077
14.11,-0.153,0.799,0.112
14.12,-0.165,1.077,0.128
14.13,-0.326,0.726,-0.196
14.14,-0.304,1.213,-0.087
14.15,-0.021,0.954,0.087
14.16,-0.137,0.926,0.12
14.17,-0.24,0.817,0.019
14.18,-0.321,1.101,-0.195
14.19,-0.082,1.094,-0.048
14.2,-0.162,0.809,0.163
14.21,-0.164,1.06,0.084
14.22,-0.32,0.747,-0.251
14.23,-0.169,1.238,-0.004
14.24,-0.135,0.901,0.099
14.25,-0.198,0.805,0.128
14.26,-0.211,0.997,0.001
14.27,-0.345,0.993,-0.186
14.28,-0.159,1.116,0.071
14.29,-0.06,0.784,0.156
14.3,-0.254,1.038,0.055
14.31,-0.377,0.83,-0.194
14.32,-0.11,1.195,-0.11
14.33,-0.145,0.873,0.046
14.34,-0.1,0.829,0.177
14.35,-0.329,1.059,-0.095
14.36,-0.338,0.845,-0.162
14.37,-0.071,1.265,0.079
14.38,-0.141,0.682,0.12
14.39,-0.305,1.017,0.053
14.4,-0.292,1.008,-0.219
14.41,-0.144,1.098,-0.073
14.42,-0.192,0.877,0.153
14.43,-0.012,0.803,0.163
14.44,-0.478,1.096,-0.174
14.45,-0.326,0.773,-0.07
14.46,-0.088,1.317,0.065
14.47,-0.127,0.62,0.086
14.48,-0.242,1.039,0.014
14.49,-0.258,1.047,-0.242
14.5,-0.146,0.932,-0.039
14.51,-0.167,1.016,0.176
14.52,-0.028,0.775,0.067
14.53,-0.509,1.165,-0.179
14.54,-0.176,0.823,-0.032
14.55,-0.082,1.271,0.022
14.56,-0.12,0.641,0.132
14.57,-0.304,1.009,0.022
14.58,-0.29,1.047,-0.24
14.59,-0.152,0.912,0.041
14.6,-0.062,1.109,0.186
14.61,-0.142,0.662,0.106
14.62,-0.483,1.231,-0.155
14.63,-0.096,0.869,-0.056
14.64,-0.191,1.127,0.046
14.65,-0.185,0.774,0.231
14.66,-0.294,1.011,-0.119
14.67,-0.345,0.996,-0.194
14.68,-0.136,0.951,0.159
14.69,-0.1,1.117,0.081
14.7,-0.185,0.585,0.048
14.71,-0.455,1.358,-0.148
14.72,-0.05,0.909,-0.13
14.73,-0.18,1.035,0.091
14.74,-0.094,0.834,0.201
14.75,-0.39,0.917,-0.165
14.76,-0.249,1.039,-0.149
14.77,-0.066,0.999,0.103
14.78,-0.17,1.052,0.107
14.79,-0.249,0.642,0.061
14.8,-0.392,1.34,-0.196
14.81,-0.116,0.873,-0.068
14.82,-0.247,1.02,0.223
14.83,-0.03,0.87,0.11
14.84,-0.457,0.872,-0.196
14.85,-0.263,1.166,-0.051
14.86,0.006,0.965,0.054
14.87,-0.209,0.991,0.129
14.88,-0.235,0.65,0.058
14.89,-0.325,1.311,-0.211
14.9,-0.112,0.883,-0.048
14.91,-0.101,1.135,0.175
14.92,-0.084,0.712,0.045
14.93,-0.506,1.036,-0.16
14.94,-0.052,1.151,-0.107
14.95,-0.113,0.833,0.087
14.96,-0.18,1.02,0.216
14.97,-0.266,0.746,-0.091
14.98,-0.417,1.181,-0.185
14.99,-0.093,0.892,0.124
15.0,-0.114,1.123,0.113
15.01,-0.134,0.787,0.019
15.02,-0.49,0.981,-0.148
15.03,-0.073,1.199,-0.07
15.04,-0.142,0.811,0.093
15.05,-0.177,1.041,0.164
15.06,-0.263,0.763,-0.163
15.07,-0.268,1.138,-0.168
15.08,-0.056,0.987,0.106
15.09,-0.16,0.919,0.156
15.1,-0.209,0.87,0.024
15.11,-0.447,1.027,-0.153
15.12,-0.082,1.177,-0.06
15.13,-0.195,0.777,0.132
15.14,-0.132,1.068,0.093
15.15,-0.278,0.76,-0.201
15.16,-0.306,1.198,-0.021
15.17,-0.016,1.018,0.05
15.18,-0.165,0.744,0.105
15.19,-0.266,1.019,0.086
15.2,-0.34,0.986,-0.207
15.21,-0.197,1.105,-0.019
15.22,-0.133,0.737,0.176
15.23,-0.188,1.081,0.065
15.24,-0.34,0.774,-0.21
15.25,-0.213,1.119,-0.039
15.26,-0.113,1.072,0.049
15.27,-0.111,0.669,0.135
15.28,-0.306,1.078,0.019
15.29,-0.289,0.915,-0.226
15.3,-0.132,1.177,0.003
15.31,-0.077,0.802,0.18
15.32,-0.187,0.975,0.035
15.33,-0.319,0.878,-0.186
15.34,-0.196,1.14,-0.01
15.35,-0.086,0.973,0.074
15.36,-0.174,0.68,0.192
15.37,-0.3,1.167,-0.078
15.38,-0.292,0.773,-0.212
15.39,-0.156,1.211,0.074
15.4,-0.051,0.811,0.115
15.41,-0.215,0.905,0.019
15.42,-0.4,1.026,-0.157
15.43,-0.051,1.035,-0.128
15.44,-0.143,0.989,0.091
15.45,-0.177,0.707,0.25
15.46,-0.421,1.151,-0.155
15.47,-0.302,0.784,-0.147
15.48,0.023,1.328,0.075
15.49,-0.152,0.745,0.107
15.5,-0.253,0.886,0.048
15.51,-0.347,1.186,-0.206
15.52,-0.143,0.841,-0.051
15.53,-0.214,1.123,0.259
15.54,-0.062,0.747,0.104
15.55,-0.49,1.134,-0.21
15.56,-0.235,0.914,-0.01
15.57,-0.07,1.17,0.056
15.58,-0.133,0.738,0.092
15.59,-0.249,0.9,0.023
15.6,-0.345,1.23,-0.262
15.61,-0.126,0.772,0.013
15.62,-0.113,1.209,0.168
15.63,-0.051,0.68,0.063
15.64,-0.466,1.151,-0.189
15.65,-0.164,0.936,-0.046
15.66,-0.115,1.048,0.065
15.67,-0.158,0.801,0.153
15.68,-0.212,0.888,-0.057
15.69,-0.405,1.177,-0.214
15.7,-0.17,0.806,0.174
15.71,-0.069,1.309,0.095
15.72,-0.129,0.604,0.008
15.73,-0.434,1.295,-0.15
15.74,-0.147,0.926,-0.092
15.75,-0.195,1.02,0.089
15.76,-0.063,0.819,0.196
15.77,-0.408,0.915,-0.156
15.78,-0.291,1.07,-0.13
15.79,-0.045,0.993,0.108
15.8,-0.18,1.031,0.112
15.81,-0.221,0.65,0.07
15.82,-0.379,1.341,-0.232
15.83,-0.069,0.837,-0.056
15.84,-0.175,1.036,0.184
15.85,-0.097,0.872,0.111
15.86,-0.424,0.852,-0.182
15.87,-0.27,1.207,-0.047
15.88,-0.041,0.92,0.061
15.89,-0.175,0.995,0.125
15.9,-0.162,0.75,-0.002
15.91,-0.371,1.289,-0.202
15.92,-0.118,0.901,-0.023
15.93,-0.065,0.996,0.179
15.94,-0.173,0.88,0.064
15.95,-0.382,0.877,-0.191
15.96,-0.102,1.277,-0.078
15.97,-0.082,0.75,0.034
15.98,-0.167,1.018,0.204
15.99,-0.214,0.82,-0.095
16.0,-0.368,1.124,-0.166
16.01,-0.065,1.001,0.084
16.02,-0.132,0.926,0.147
16.03,-0.215,0.923,0.087
16.04,-0.381,0.881,-0.2
16.05,-0.19,1.287,-0.034
16.06,-0.111,0.717,0.057
16.07,-0.129,1.027,0.146
16.08,-0.356,0.83,-0.091
16.09,-0.245,1.016,-0.17
16.1,-0.045,1.108,0.065
16.11,-0.115,0.808,0.171
16.12,-0.243,1.002,0.009
16.13,-0.335,0.888,-0.178
16.14,-0.223,1.176,-0.031
16.15,-0.165,0.767,0.154
16.16,-0.083,1.014,0.096
16.17,-0.405,0.883,-0.185
16.18,-0.205,0.983,-0.145
16.19,-0.011,1.171,0.042
16.2,-0.154,0.641,0.142
16.21,-0.224,1.098,0.027
16.22,-0.312,0.926,-0.206
16.23,-0.226,1.129,-0.009
16.24,-0.064,0.791,0.155
16.25,-0.144,0.977,0.117
16.26,-0.434,0.973,-0.178
16.27,-0.171,0.947,-0.088
16.28,-0.11,1.219,0.045
16.29,-0.105,0.595,0.169
16.3,-0.212,1.117,0.021
16.31,-0.358,0.923,-0.2
16.32,-0.155,1.115,0.021
16.33,-0.08,0.895,0.151
16.34,-0.21,0.837,0.116
16.35,-0.384,1.073,-0.175
16.36,-0.097,0.99,-0.017
16.37,-0.238,1.179,0.068
16.38,-0.142,0.609,0.142
16.39,-0.262,1.158,-0.055
16.4,-0.347,0.822,-0.203
16.41,-0.127,1.101,0.095
16.42,-0.077,0.993,0.087
16.43,-0.199,0.791,0.037
16.44,-0.391,1.158,-0.138
16.45,-0.066,0.895,-0.093
16.46,-0.252,1.118,0.076
16.47,-0.073,0.731,0.222
16.48,-0.415,1.132,-0.147
16.49,-0.332,0.848,-0.131
16.5,-0.058,1.172,0.078
16.51,-0.16,0.965,0.084
16.52,-0.147,0.679,0.022
16.53,-0.342,1.306,-0.15
16.54,-0.162,0.835,-0.021
16.55,-0.213,1.084,0.178
16.56,-0.041,0.697,0.099
16.57,-0.524,1.13,-0.13
16.58,-0.203,0.852,-0.075
16.59,-0.07,1.301,0.064
16.6,-0.102,0.716,0.078
16.61,-0.236,0.903,0.078
16.62,-0.344,1.197,-0.238
16.63,-0.11,0.782,-0.016
16.64,-0.129,1.17,0.2
16.65,-0.124,0.681,0.06
16.66,-0.579,1.155,-0.158
16.67,-0.082,0.984,-0.095
16.68,-0.083,1.103,0.031
16.69,-0.243,0.814,0.222
16.7,-0.174,0.846,-0.059
16.71,-0.367,1.171,-0.177
16.72,-0.135,0.799,0.069
16.73,-0.021,1.196,0.105
16.74,-0.109,0.675,0.038
16.75,-0.513,1.159,-0.134
16.76,-0.097,1.069,-0.072
16.77,-0.173,0.974,0.039
16.78,-0.184,0.865,0.225
16.79,-0.261,0.791,-0.11
16.8,-0.316,1.199,-0.185
16.81,-0.111,0.837,0.105
16.82,-0.128,1.166,0.134
16.83,-0.171,0.628,0.013
16.84,-0.393,1.166,-0.149
16.85,-0.112,1.106,-0.087
16.86,-0.176,0.829,0.105
16.87,-0.16,1.003,0.198
16.88,-0.355,0.766,-0.131
16.89,-0.302,1.171,-0.149
16.9,-0.094,0.936,0.095
16.91,-0.144,1.07,0.133
16.92,-0.143,0.715,-0.009
16.93,-0.445,1.176,-0.161
16.94,-0.065,1.095,-0.064
16.95,-0.161,0.815,0.118
16.96,-0.231,1.018,0.188
16.97,-0.301,0.775,-0.182
16.98,-0.317,1.241,-0.104
16.99,-0.074,0.912,0.125
17.0,-0.106,0.957,0.109
17.01,-0.295,0.821,0.016
17.02,-0.306,1.055,-0.162
17.03,-0.078,1.119,-0.093
17.04,-0.189,0.736,0.213
17.05,-0.132,1.074,0.1
17.06,-0.347,0.778,-0.242
17.07,-0.267,1.171,-0.043
17.08,-0.057,0.976,0.072
17.09,-0.137,0.851,0.072
17.1,-0.26,0.945,-0.007
17.11,-0.3,1.025,-0.164
17.12,-0.149,1.208,-0.033
17.13,-0.091,0.709,0.183
17.14,-0.139,1.052,0.06
17.15,-0.406,0.835,-0.133
17.16,-0.168,1.197,-0.074
17.17,-0.131,0.906,0.08
17.18,-0.181,0.809,0.152
17.19,-0.297,1.058,-0.051
17.2,-0.299,0.866,-0.206
17.21,-0.143,1.235,0.073
17.22,-0.01,0.753,0.122
17.23,-0.227,0.994,0.044
17.24,-0.374,0.903,-0.139
17.25,-0.188,1.152,-0.115
17.26,-0.119,0.847,0.051
17.27,-0.17,0.847,0.183
17.28,-0.389,1.107,-0.166
17.29,-0.22,0.769,-0.152
17.3,-0.087,1.318,0.102
17.31,-0.116,0.694,0.12
17.32,-0.226,0.984,0.017
17.33,-0.297,1.028,-0.185
17.34,-0.135,1.014,-0.039
17.35,-0.08,0.822,0.177
17.36,-0.203,0.885,0.124
17.37,-0.408,1.05,-0.179
17.38,-0.118,0.955,-0.084
17.39,-0.108,1.204,0.061
17.4,-0.162,0.62,0.211
17.41,-0.233,1.168,-0.024
17.42,-0.359,0.84,-0.188
17.43,-0.208,1.112,0.055
17.44,-0.028,1.001,0.075
17.45,-0.182,0.776,0.06
17.46,-0.385,1.124,-0.123
17.47,-0.137,0.969,-0.128
17.48,-0.193,1.143,0.089
17.49,-0.077,0.636,0.193
17.5,-0.413,1.136,-0.076
17.51,-0.31,0.854,-0.194
17.52,-0.079,1.083,0.011
17.53,-0.114,0.996,0.1
17.54,-0.138,0.738,0.024
17.55,-0.405,1.18,-0.175
17.56,-0.105,0.896,-0.063
17.57,-0.102,1.156,0.061
17.58,-0.117,0.707,0.183
17.59,-0.378,1.116,-0.086
17.6,-0.301,0.927,-0.183
17.61,-0.142,1.053,0.138
17.62,-0.099,1.012,0.127
17.63,-0.207,0.668,0.015
17.64,-0.129,1.215,0.06
17.65,-0.116,0.769,0.111
17.66,-0.16,0.831,0.008
17.67,-0.441,1.285,-0.194
17.68,-0.138,0.764,-0.034
17.69,-0.154,1.224,0.159
17.7,-0.102,0.609,0.092
17.71,-0.46,1.106,-0.133
17.72,-0.095,1.052,-0.084
17.73,-0.151,1.016,0.061
17.74,-0.133,0.869,0.176
17.75,-0.163,0.834,-0.082
17.76,-0.441,1.215,-0.215
17.77,-0.064,0.816,0.075
17.78,-0.157,1.27,0.094
17.79,-0.164,0.633,0.097
17.8,-0.43,1.111,-0.168
17.81,-0.095,1.053,-0.154
17.82,-0.025,0.901,0.028
17.83,-0.128,1.004,0.19
17.84,-0.308,0.74,-0.082
17.85,-0.34,1.176,-0.181
17.86,-0.062,0.894,0.035
17.87,-0.169,1.123,0.133
17.88,-0.091,0.686,0.028
17.89,-0.453,1.136,-0.173
17.9,-0.107,1.131,-0.087
17.91,-0.112,0.819,0.096
17.92,-0.201,1.024,0.169
17.93,-0.315,0.757,-0.111
17.94,-0.284,1.188,-0.168
17.95,-0.128,0.925,0.133
17.96,-0.137,1.046,0.13
17.97,-0.189,0.737,0.027
17.98,-0.377,1.085,-0.159
17.99,-0.2,1.161,-0.061
18.0,-0.105,0.727,0.089
18.01,-0.146,1.111,0.178
18.02,-0.339,0.732,-0.153
18.03,-0.321,1.148,-0.153
18.04,-0.025,0.994,0.079
18.05,-0.17,0.936,0.145
18.06,-0.197,0.861,0.02
18.07,-0.39,1.042,-0.139
18.08,-0.198,1.146,-0.021
18.09,-0.14,0.737,0.15
18.1,-0.125,1.096,0.086
18.11,-0.348,0.763,-0.194
18.12,-0.272,1.282,-0.027
18.13,-0.023,0.874,0.072
18.14,-0.236,0.9,0.199
18.15,-0.231,0.861,0.006
18.16,-0.366,1.12,-0.22
18.17,-0.125,1.009,-0.023
18.18,-0.031,0.853,0.12
18.19,-0.188,1.024,0.056
18.2,-0.42,0.771,-0.129
18.21,-0.133,1.313,-0.068
18.22,-0.115,0.802,0.081
18.23,-0.219,0.847,0.173
18.24,-0.184,1.004,-0.068
18.25,-0.341,0.951,-0.218
18.26,-0.15,1.125,0.112
18.27,0.009,0.844,0.172
18.28,-0.261,0.999,0.008
18.29,-0.368,0.826,-0.125
18.3,-0.153,1.248,-0.12
18.31,-0.108,0.79,0.065
18.32,-0.153,0.882,0.248
18.33,-0.333,1.066,-0.111
18.34,-0.329,0.827,-0.197
18.35,-0.148,1.222,0.076
18.36,-0.031,0.732,0.11
18.37,-0.219,1.045,-0.008
18.38,-0.352,0.896,-0.179
18.39,-0.153,1.137,-0.101
18.4,-0.219,0.858,0.1
18.41,-0.109,0.844,0.183
18.42,-0.335,1.104,-0.144
18.43,-0.285,0.798,-0.122
18.44,-0.127,1.32,0.116
18.45,-0.067,0.708,0.127
18.46,-0.3,1.071,0.037
18.47,-0.339,0.968,-0.187
18.48,-0.146,1.059,-0.059
18.49,-0.207,0.905,0.14
18.5,-0.073,0.751,0.177
18.51,-0.412,1.183,-0.171
18.52,-0.309,0.766,-0.091
18.53,-0.084,1.302,0.055
18.54,-0.016,0.694,0.109
18.55,-0.304,1.008,0.024
18.56,-0.295,1.062,-0.203
18.57,-0.174,0.95,-0.059
18.58,-0.212,0.998,0.162
18.59,-0.084,0.77,0.153
18.6,-0.481,1.13,-0.136
18.61,-0.235,0.788,-0.059
18.62,-0.072,1.329,-0.007
18.63,-0.153,0.644,0.153
18.64,-0.236,0.923,0.035
18.65,-0.313,1.144,-0.229
18.66,-0.166,0.888,0.022
18.67,-0.173,1.068,0.159
18.68,-0.079,0.702,0.103
18.69,-0.494,1.212,-0.177
18.7,-0.181,0.866,-0.051
18.71,-0.164,1.242,0.102
18.72,-0.176,0.72,0.155
18.73,-0.292,0.896,0.01
18.74,-0.301,1.154,-0.235
18.75,-0.071,0.842,-0.035
18.76,-0.157,1.167,0.191
18.77,-0.089,0.664,0.102
18.78,-0.468,1.204,-0.161
18.79,-0.136,0.922,-0.046
18.8,-0.097,1.118,0.088
18.81,-0.175,0.814,0.132
18.82,-0.284,0.858,-0.007
18.83,-0.349,1.183,-0.164
18.84,-0.115,0.872,0.07
18.85,-0.145,1.182,0.105
18.86,-0.039,0.646,0.019
18.87,-0.477,1.262,-0.162
18.88,-0.09,0.99,-0.059
18.89,-0.173,0.983,0.063
18.9,-0.14,0.897,0.169
18.91,-0.361,0.822,-0.058
18.92,-0.418,1.17,-0.188
18.93,-0.088,0.964,0.098
18.94,-0.111,1.099,0.1
18.95,-0.216,0.604,0.044
18.96,-0.445,1.336,-0.133
18.97,-0.076,0.892,-0.099
18.98,-0.17,0.986,0.146
18.99,-0.105,0.872,0.176
19.0,-0.391,0.924,-0.168
19.01,-0.327,1.114,-0.151
19.02,-0.029,0.941,0.107
19.03,-0.161,1.034,0.124
19.04,-0.255,0.64,-0.02
19.05,-0.355,1.318,-0.172
19.06,-0.113,0.879,-0.005
19.07,-0.138,1.007,0.117
19.08,-0.095,0.922,0.101
19.09,-0.419,0.869,-0.194
19.1,-0.28,1.243,-0.063
19.11,0.014,0.885,0.062
19.12,-0.221,0.989,0.092
19.13,-0.246,0.686,-0.024
19.14,-0.26,1.257,-0.245
19.15,-0.116,0.906,0.017
19.16,-0.221,0.942,0.238
19.17,-0.141,0.939,0.039
19.18,-0.402,0.817,-0.201
19.19,-0.227,1.289,-0.003
19.2,-0.038,0.852,0.076
19.21,-0.219,1.031,0.125
19.22,-0.29,0.755,-0.043
19.23,-0.311,1.147,-0.174
19.24,-0.12,1.017,0.008
19.25,0.025,0.858,0.18
19.26,-0.273,0.992,-0.001
19.27,-0.432,0.813,-0.134
19.28,-0.064,1.32,-0.108
19.29,-0.128,0.713,0.107
19.3,-0.208,1.018,0.174
19.31,-0.28,0.895,-0.151
19.32,-0.328,0.969,-0.147
19.33,-0.112,1.116,0.127
19.34,-0.041,0.771,0.136
19.35,-0.343,0.998,-0.045
19.36,-0.309,0.871,-0.135
19.37,-0.128,1.279,0.017
19.38,-0.194,0.762,0.104
19.39,-0.064,0.936,0.083
19.4,-0.326,0.998,-0.219
19.41,-0.314,0.978,-0.046
19.42,-0.017,1.155,0.093
19.43,-0.096,0.645,0.138
19.44,-0.36,1.11,-0.001
19.45,-0.254,0.894,-0.188
19.46,-0.148,1.157,0.001
19.47,-0.203,0.814,0.218
19.48,-0.087,0.9,0.062
19.49,-0.451,1.099,-0.205
19.5,-0.162,0.939,-0.04
19.51,-0.137,1.17,0.048
19.52,-0.112,0.622,0.195
19.53,-0.285,1.172,-0.096
19.54,-0.285,0.881,-0.18
19.55,-0.088,1.149,0.032
19.56,-0.089,0.84,0.109
19.57,-0.125,0.802,0.045
19.58,-0.502,1.206,-0.192
19.59,-0.073,0.855,-0.079
19.6,-0.185,1.138,0.109
19.61,-0.153,0.668,0.224
19.62,-0.326,1.118,-0.182
19.63,-0.164,0.881,-0.15
19.64,-0.168,1.203,0.167
19.65,-0.091,0.872,0.072
19.66,-0.232,0.731,-0.022
19.67,-0.416,1.281,-0.149
19.68,-0.078,0.841,-0.047
19.69,-0.282,1.106,0.113
19.7,0.005,0.739,0.15
19.71,-0.458,1.083,-0.195
19.72,-0.282,0.889,-0.049
19.73,-0.004,1.111,0.102
19.74,-0.193,0.742,0.11
19.75,-0.234,0.915,-0.011
19.76,-0.294,1.177,-0.234
19.77,-0.222,0.86,0.101
19.78,-0.078,1.14,0.156
19.79,-0.129,0.622,-0.001
19.8,-0.471,1.236,-0.142
19.81,-0.052,0.979,-0.106
19.82,-0.142,1.029,0.079
19.83,-0.137,0.838,0.175
19.84,-0.3,0.906,-0.115
19.85,-0.299,1.14,-0.164
19.86,-0.128,0.876,0.11
19.87,-0.098,1.137,0.134
19.88,-0.171,0.637,0.012
19.89,-0.516,1.21,-0.139
19.9,-0.034,0.985,-0.047
19.91,-0.193,0.975,0.096
19.92,-0.161,0.928,0.196
19.93,-0.337,0.836,-0.171
19.94,-0.336,1.214,-0.11
19.95,-0.032,0.901,0.154
19.96,-0.184,1.029,0.094
19.97,-0.25,0.68,0.04
19.98,-0.372,1.231,-0.196
19.99,-0.094,0.966,-0.022
20.0,-0.154,0.892,0.182
20.01,-0.062,1.035,0.057
20.02,-0.432,0.77,-0.182
20.03,-0.337,1.258,0.006
20.04,-0.007,0.861,0.071
20.05,-0.213,0.945,0.094
20.06,-0.259,0.839,0.003
20.07,-0.31,1.118,-0.236
20.08,-0.101,1.001,-0.012
20.09,-0.071,0.894,0.167
20.1,-0.128,0.984,-0.029
20.11,-0.411,0.811,-0.186
20.12,-0.114,1.306,-0.045
20.13,-0.156,0.74,0.081
20.14,-0.237,0.925,0.227
20.15,-0.21,0.914,-0.106
20.16,-0.346,0.988,-0.186
20.17,-0.189,1.116,0.151
20.18,-0.011,0.737,0.105
20.19,-0.247,1.014,-0.04
20.2,-0.375,0.919,-0.175
20.21,-0.045,1.198,-0.068
20.22,-0.146,0.751,0.09
20.23,-0.088,0.929,0.218
20.24,-0.404,0.999,-0.147
20.25,-0.323,0.912,-0.065
20.26,-0.117,1.232,0.084
20.27,-0.047,0.632,0.063
20.28,-0.343,1.103,0.004
20.29,-0.267,0.877,-0.24
20.3,-0.036,1.173,0.004
20.31,-0.22,0.823,0.182
20.32,-0.128,0.851,0.103
20.33,-0.386,1.108,-0.213
20.34,-0.176,0.886,-0.047
20.35,-0.072,1.206,0.078
20.36,-0.174,0.628,0.162
20.37,-0.377,1.135,-0.052
20.38,-0.244,0.899,-0.215
20.39,-0.155,1.092,0.05
20.4,-0.136,0.936,0.181
20.41,-0.107,0.768,0.008
20.42,-0.442,1.15,-0.218
20.43,-0.085,0.887,-0.027
20.44,-0.139,1.154,0.07
20.45,-0.145,0.646,0.174
20.46,-0.359,1.114,-0.163
20.47,-0.21,0.921,-0.197
20.48,-0.021,1.135,0.099
20.49,-0.144,0.922,0.147
20.5,-0.25,0.712,0.026
20.51,-0.369,1.291,-0.187
20.52,-0.196,0.819,0.002
20.53,-0.161,1.153,0.145
20.54,-0.12,0.762,0.105
20.55,-0.463,1.018,-0.209
20.56,-0.089,0.911,-0.093
20.57,-0.203,1.116,0.107
20.58,-0.115,0.766,0.171
20.59,-0.304,0.85,-0.069
20.6,-0.302,1.169,-0.204
20.61,-0.039,0.872,0.044
20.62,-0.173,1.191,0.121
20.63,-0.113,0.614,0.042
20.64,-0.385,1.224,-0.227
20.65,-0.156,0.992,-0.078
20.66,-0.107,0.946,0.073
20.67,-0.084,0.911,0.201
20.68,-0.459,0.801,-0.119
20.69,-0.232,1.159,-0.128
20.7,0.007,0.977,0.112
20.71,-0.287,1.036,0.156
20.72,-0.085,0.672,-0.0
20.73,-0.451,1.288,-0.174
20.74,-0.168,0.997,-0.001
20.75,-0.097,0.895,0.156
20.76,-0.198,0.953,0.171
20.77,-0.427,0.801,-0.151
20.78,-0.198,1.221,-0.135
20.79,0.012,0.885,0.078
20.8,-0.233,0.994,0.157
20.81,-0.25,0.747,-0.022
20.82,-0.306,1.169,-0.233
20.83,-0.062,1.014,-0.057
20.84,-0.163,0.854,0.243
20.85,-0.175,0.954,0.085
20.86,-0.412,0.81,-0.207
20.87,-0.116,1.313,-0.059
20.88,-0.126,0.823,0.126
20.89,-0.251,0.921,0.146
20.9,-0.229,0.881,-0.119
20.91,-0.278,1.067,-0.157
20.92,-0.147,1.15,0.072
20.93,-0.02,0.744,0.136
20.94,-0.206,1.063,0.005
20.95,-0.383,0.887,-0.184
20.96,-0.188,1.208,-0.036
20.97,-0.13,0.762,0.159
20.98,-0.165,0.967,0.125
20.99,-0.372,0.937,-0.144
21.0,-0.198,0.954,-0.113
21.01,-0.144,1.223,0.049
21.02,-0.053,0.615,0.151
21.03,-0.289,1.087,-0.011
21.04,-0.359,0.875,-0.19
21.05,-0.126,1.16,-0.012
21.06,-0.113,0.806,0.158
21.07,-0.211,0.899,0.131
21.08,-0.359,1.062,-0.194
21.09,-0.2,0.909,-0.089
21.1,-0.053,1.231,0.084
21.11,-0.113,0.607,0.141
21.12,-0.323,1.122,-0.039
21.13,-0.304,0.926,-0.17
21.14,-0.187,1.09,0.016
21.15,-0.092,0.902,0.154
21.16,-0.152,0.803,0.026
21.17,-0.426,1.163,-0.216
21.18,-0.118,0.866,-0.047
21.19,-0.167,1.152,0.104
21.2,-0.119,0.685,0.177
21.21,-0.406,1.116,-0.119
21.22,-0.25,0.899,-0.148
21.23,-0.083,1.158,0.079
21.24,-0.141,0.89,0.134
21.25,-0.179,0.757,0.018
21.26,-0.419,1.266,-0.191
21.27,-0.134,0.811,-0.008
21.28,-0.136,1.168,0.157
21.29,-0.108,0.731,0.118
21.3,-0.408,1.059,-0.2
21.31,-0.177,1.02,-0.078
21.32,-0.04,1.089,0.067
21.33,-0.099,0.885,0.068
21.34,-0.243,0.73,-0.018
21.35,-0.414,1.308,-0.204
21.36,-0.033,0.788,0.029
21.37,-0.181,1.157,0.176
21.38,-0.165,0.632,0.043
21.39,-0.448,1.195,-0.213
21.4,-0.069,0.938,-0.086
21.41,-0.102,1.0,0.054
21.42,-0.096,0.889,0.164
21.43,-0.401,0.842,-0.126
21.44,-0.24,1.167,-0.148
21.45,-0.049,0.905,0.137
21.46,-0.226,1.044,0.149
21.47,-0.204,0.652,-0.018
21.48,-0.318,1.297,-0.188
21.49,-0.124,0.915,-0.024
21.5,-0.141,0.902,0.215
21.51,-0.135,0.951,0.085
21.52,-0.407,0.818,-0.204
21.53,-0.209,1.249,-0.02
21.54,-0.142,0.836,0.093
21.55,-0.231,0.986,0.134
21.56,-0.193,0.76,-0.064
21.57,-0.368,1.077,-0.178
21.58,-0.103,1.057,0.08
21.59,-0.064,0.891,0.113
21.6,-0.242,0.921,0.046
21.61,-0.343,0.863,-0.173
21.62,-0.129,1.294,-0.056
21.63,-0.151,0.71,0.098
21.64,-0.141,1.0,0.162
21.65,-0.335,0.856,-0.155
21.66,-0.317,0.99,-0.144
21.67,-0.052,1.159,0.111
21.68,-0.132,0.721,0.144
21.69,-0.313,1.047,0.057
21.7,-0.327,0.93,-0.18
21.71,-0.119,1.181,-0.056
21.72,-0.168,0.79,0.182
21.73,-0.206,0.97,0.096
21.74,-0.357,0.954,-0.199
21.75,-0.27,0.996,-0.063
21.76,-0.068,1.136,0.073
21.77,-0.088,0.615,0.113
21.78,-0.361,1.135,0.045
21.79,-0.276,0.886,-0.214
21.8,-0.105,1.14,-0.022
21.81,-0.147,0.876,0.187
21.82,-0.152,0.867,0.052
21.83,-0.427,1.07,-0.184
21.84,-0.089,0.966,-0.077
21.85,-0.16,1.136,0.099
21.86,-0.159,0.655,0.217
21.87,-0.345,1.159,-0.074
21.88,-0.267,0.857,-0.211
21.89,-0.07,1.187,0.104
21.9,-0.094,0.843,0.117
21.91,-0.281,0.817,0.021
21.92,-0.375,1.222,-0.155
21.93,-0.172,0.849,-0.038
21.94,-0.167,1.1,0.118
21.95,-0.049,0.706,0.127
21.96,-0.455,1.117,-0.16
21.97,-0.255,0.901,-0.073
21.98,-0.068,1.182,0.087
21.99,-0.182,0.821,0.12
22.0,-0.271,0.796,0.041
22.01,-0.36,1.251,-0.231
22.02,-0.051,0.777,0.032
22.03,-0.238,1.228,0.188
22.04,-0.081,0.658,0.084
22.05,-0.436,1.126,-0.191
22.06,-0.204,1.033,-0.071
22.07,-0.082,1.006,0.066
22.08,-0.193,0.887,0.16
22.09,-0.297,0.755,-0.032
22.1,-0.337,1.263,-0.182
22.11,-0.177,0.833,0.075
22.12,-0.161,1.11,0.127
22.13,-0.093,0.732,0.048
22.14,-0.423,1.104,-0.194
22.15,-0.1,1.071,-0.074
22.16,-0.102,0.872,0.104
22.17,-0.259,0.979,0.211
22.18,-0.255,0.776,-0.104
22.19,-0.299,1.093,-0.181
22.2,-0.04,0.945,0.136
22.21,-0.148,1.11,0.11
22.22,-0.302,0.606,0.031
22.23,-0.282,1.292,-0.228
22.24,-0.093,0.975,-0.102
22.25,-0.158,0.919,0.13
22.26,-0.056,0.92,0.121
22.27,-0.453,0.864,-0.14
22.28,-0.215,1.269,-0.1
22.29,-0.07,0.845,0.053
22.3,-0.124,0.966,0.12
22.31,-0.233,0.767,0.006
22.32,-0.38,1.168,-0.197
22.33,-0.084,1.016,0.022
22.34,-0.235,0.934,0.188
22.35,-0.079,0.968,0.062
22.36,-0.39,0.814,-0.174
22.37,-0.248,1.245,-0.043
22.38,-0.069,0.816,0.111
22.39,-0.107,0.965,0.088
22.4,-0.335,0.849,-0.056
22.41,-0.257,1.078,-0.19
22.42,-0.089,1.088,-0.006
22.43,-0.137,0.831,0.147
22.44,-0.112,0.971,0.031
22.45,-0.393,0.844,-0.185
22.46,-0.185,1.311,-0.057
22.47,-0.024,0.77,0.06
22.48,-0.188,0.93,0.141
22.49,-0.335,0.95,-0.081
22.5,-0.277,0.96,-0.172
22.51,-0.129,1.167,0.066
22.52,-0.099,0.763,0.137
22.53,-0.15,1.015,-0.032
22.54,-0.382,0.913,-0.114
22.55,-0.218,1.224,-0.016
22.56,-0.082,0.748,0.089
22.57,-0.096,0.923,0.107
22.58,-0.437,0.969,-0.143
22.59,-0.199,0.907,-0.104
22.6,-0.09,1.288,0.046
22.61,-0.074,0.561,0.114
22.62,-0.206,1.122,-0.008
22.63,-0.319,0.876,-0.23
22.64,-0.135,1.159,0.0
22.65,-0.117,0.821,0.193
22.66,-0.172,0.976,0.075
22.67,-0.346,0.932,-0.185
22.68,-0.173,1.064,-0.039
22.69,-0.128,1.11,0.025
22.7,-0.042,0.628,0.131
22.71,-0.311,1.179,-0.03
22.72,-0.365,0.861,-0.172
22.73,-0.066,1.131,0.007
22.74,-0.116,0.863,0.135
22.75,-0.13,0.878,0.064
22.76,-0.358,1.095,-0.204
22.77,-0.138,0.975,-0.063
22.78,-0.166,1.086,0.112
22.79,-0.133,0.654,0.149
22.8,-0.338,1.155,-0.058
22.81,-0.269,0.801,-0.166
22.82,-0.191,1.177,0.097
22.83,-0.087,0.898,0.128
22.84,-0.16,0.83,-0.004
22.85,-0.447,1.156,-0.201
22.86,-0.08,0.911,-0.093
22.87,-0.141,1.119,0.072
22.88,-0.062,0.656,0.205
22.89,-0.437,1.152,-0.13
22.9,-0.264,0.823,-0.159
22.91,-0.06,1.211,0.062
22.92,-0.078,0.869,0.141
22.93,-0.275,0.759,0.011
22.94,-0.402,1.25,-0.168
22.95,-0.034,0.855,-0.041
22.96,-0.301,1.21,0.163
22.97,-0.058,0.656,0.145
22.98,-0.347,1.113,-0.223
22.99,-0.259,0.984,-0.104
23.0,-0.086,1.233,0.079
23.01,-0.125,0.762,0.141
23.02,-0.268,0.871,-0.009
23.03,-0.328,1.14,-0.179
23.04,-0.086,0.918,-0.014
23.05,-0.174,1.178,0.164
23.06,-0.08,0.628,0.084
23.07,-0.471,1.21,-0.203
23.08,-0.104,0.962,-0.046
23.09,-0.177,1.118,0.082
23.1,-0.12,0.774,0.152
23.11,-0.227,0.902,-0.075
23.12,-0.357,1.184,-0.178
23.13,-0.084,0.848,0.043
23.14,-0.148,1.195,0.154
23.15,-0.215,0.607,0.057
23.16,-0.41,1.202,-0.203
23.17,-0.102,1.0,-0.085
23.18,-0.125,0.938,0.079
23.19,-0.084,0.93,0.218
23.2,-0.35,0.842,-0.111
23.21,-0.341,1.128,-0.151
23.22,-0.03,0.928,0.106
23.23,-0.109,1.124,0.106
23.24,-0.216,0.674,-0.004
23.25,-0.376,1.196,-0.164
23.26,-0.109,1.047,-0.046
23.27,-0.215,0.825,0.15
23.28,-0.083,0.986,0.153
23.29,-0.399,0.828,-0.143
23.3,-0.329,1.154,-0.124
23.31,0.024,0.939,0.115
23.32,-0.19,1.009,0.133
23.33,-0.283,0.735,-0.0
23.34,-0.292,1.181,-0.191
23.35,-0.141,1.057,-0.035
23.36,-0.203,0.772,0.166
23.37,-0.08,1.026,0.104
23.38,-0.448,0.795,-0.169
23.39,-0.271,1.213,-0.064
23.4,0.001,0.864,0.076
23.41,-0.193,0.901,0.119
23.42,-0.276,0.867,-0.012
23.43,-0.276,1.054,-0.174
23.44,-0.173,1.14,0.01
23.45,-0.129,0.779,0.172
23.46,-0.177,1.003,0.049
23.47,-0.451,0.838,-0.186
23.48,-0.161,1.245,-0.028
23.49,-0.094,0.842,0.114
23.5,-0.178,0.881,0.191
23.51,-0.261,0.992,-0.124
23.52,-0.219,0.964,-0.176
23.53,-0.18,1.208,0.079
23.54,-0.002,0.692,0.15
23.55,-0.283,1.063,0.006
23.56,-0.436,0.878,-0.151
23.57,-0.068,1.175,-0.077
23.58,-0.226,0.818,0.107
23.59,-0.085,0.856,0.156
23.6,-0.324,1.056,-0.171
23.61,-0.333,0.828,-0.073
23.62,-0.053,1.306,0.11
23.63,-0.078,0.662,0.13
23.64,-0.358,1.064,0.045
23.65,-0.335,0.978,-0.184
23.66,-0.141,1.05,-0.071
23.67,-0.241,0.892,0.204
23.68,-0.072,0.818,0.108
23.69,-0.462,1.131,-0.195
23.7,-0.273,0.842,-0.002
23.71,-0.065,1.268,0.059
23.72,-0.078,0.601,0.115
23.73,-0.358,1.087,0.002
23.74,-0.244,0.983,-0.231
23.75,-0.214,1.019,0.021
23.76,-0.13,1.021,0.161
23.77,-0.085,0.721,0.062
23.78,-0.487,1.181,-0.196
23.79,-0.097,0.882,-0.029
23.8,-0.105,1.21,0.046
23.81,-0.16,0.651,0.175
23.82,-0.32,1.162,-0.127
23.83,-0.262,0.868,-0.143
23.84,-0.122,1.223,0.139
23.85,-0.116,0.868,0.11
23.86,-0.191,0.764,0.026
23.87,-0.424,1.24,-0.155
23.88,-0.066,0.854,-0.027
23.89,-0.287,1.163,0.147
23.9,-0.067,0.696,0.171
23.91,-0.412,1.129,-0.202
23.92,-0.284,0.883,-0.117
23.93,-0.023,1.132,0.091
23.94,-0.095,0.893,0.09
23.95,-0.308,0.737,0.077
23.96,-0.305,1.307,-0.225
23.97,-0.128,0.784,-0.039
23.98,-0.205,1.148,0.204
23.99,-0.03,0.69,0.104
24.0,-0.49,1.064,-0.269
24.01,-0.14,1.045,-0.065
24.02,-0.064,1.011,0.056
24.03,-0.189,0.885,0.134
24.04,-0.268,0.74,-0.03
24.05,-0.319,1.281,-0.225
24.06,-0.103,0.843,0.04
24.07,-0.124,1.137,0.144
24.08,-0.112,0.701,0.027
24.09,-0.485,1.037,-0.165
24.1,-0.1,1.107,-0.1
24.11,-0.127,0.899,0.132
24.12,-0.244,0.994,0.18
24.13,-0.255,0.727,-0.14
24.14,-0.295,1.257,-0.165
24.15,-0.13,0.878,0.108
24.16,-0.097,0.985,0.138
24.17,-0.255,0.785,0.016
24.18,-0.399,1.09,-0.142
24.19,-0.111,1.149,-0.043
24.2,-0.177,0.811,0.152
24.21,-0.155,1.052,0.193
24.22,-0.378,0.755,-0.202
24.23,-0.256,1.212,-0.074
24.24,-0.045,0.989,0.082
24.25,-0.134,0.836,0.097
24.26,-0.222,0.916,0.015
24.27,-0.331,1.036,-0.17
24.28,-0.16,1.121,-0.038
24.29,-0.095,0.757,0.208
24.3,-0.163,1.058,0.075
24.31,-0.392,0.752,-0.188
24.32,-0.245,1.191,-0.079
24.33,-0.03,0.968,0.09
24.34,-0.231,0.781,0.183
24.35,-0.304,1.017,-0.019
24.36,-0.297,0.898,-0.205
24.37,-0.193,1.177,0.038
24.38,-0.049,0.75,0.155
24.39,-0.167,1.016,-0.012
24.4,-0.39,0.88,-0.172
24.41,-0.128,1.11,-0.088
24.42,-0.101,0.901,0.044
24.43,-0.186,0.808,0.182
24.44,-0.327,1.114,-0.141
24.45,-0.287,0.812,-0.097
24.46,-0.163,1.319,0.122
24.47,-0.083,0.654,0.135
24.48,-0.244,0.985,0.033
24.49,-0.41,1.029,-0.169
24.5,-0.105,1.013,-0.056
24.51,-0.17,0.944,0.131
24.52,-0.168,0.761,0.189
24.53,-0.444,1.135,-0.215
24.54,-0.206,0.804,-0.084
24.55,-0.04,1.338,0.072
24.56,-0.08,0.673,0.082
24.57,-0.302,0.958,0.034
24.58,-0.301,1.078,-0.23
24.59,-0.078,0.944,0.007
24.6,-0.163,1.069,0.15
24.61,-0.098,0.674,0.08
24.62,-0.494,1.223,-0.174
24.63,-0.09,0.896,-0.053
24.64,-0.17,1.17,0.098
24.65,-0.121,0.646,0.141
24.66,-0.29,1.111,-0.128
24.67,-0.273,0.952,-0.166
24.68,-0.172,1.056,0.115
24.69,-0.072,0.982,0.117
24.7,-0.228,0.705,-0.036
24.71,-0.402,1.252,-0.123
24.72,-0.139,0.922,0.011
24.73,-0.264,1.106,0.144
24.74,-0.029,0.719,0.118
24.75,-0.417,1.11,-0.199
24.76,-0.302,1.005,-0.092
24.77,-0.018,1.065,0.076
24.78,-0.177,0.942,0.131
24.79,-0.274,0.704,-0.004
24.8,-0.295,1.308,-0.224
24.81,-0.121,0.819,-0.001
24.82,-0.157,1.108,0.134
24.83,-0.087,0.745,0.06
24.84,-0.459,1.037,-0.177
24.85,-0.181,1.125,-0.039
24.86,-0.083,0.886,0.082
24.87,-0.146,0.974,0.119
24.88,-0.233,0.711,-0.056
24.89,-0.371,1.277,-0.161
24.9,-0.136,0.881,0.114
24.91,-0.136,1.096,0.155
24.92,-0.151,0.715,-0.0
24.93,-0.448,1.054,-0.135
24.94,-0.082,1.198,-0.069
24.95,-0.148,0.721,0.103
24.96,-0.137,1.092,0.191
24.97,-0.352,0.771,-0.152
24.98,-0.342,1.143,-0.158
24.99,0.046,1.007,0.074
25.0,-0.107,0.928,0.1
25.01,-0.339,0.889,0.087
25.02,-0.367,1.013,-0.18
25.03,-0.159,1.148,-0.103
25.04,-0.082,0.726,0.199
25.05,-0.113,1.063,0.077
25.06,-0.397,0.787,-0.221
25.07,-0.153,1.17,-0.128
25.08,-0.1,0.978,0.117
25.09,-0.225,0.795,0.188
25.1,-0.227,1.038,-0.072
25.11,-0.323,0.834,-0.213
25.12,-0.209,1.196,0.066
25.13,-0.017,0.788,0.094
25.14,-0.177,0.972,-0.004
25.15,-0.342,0.905,-0.161
25.16,-0.128,1.135,-0.108
25.17,-0.123,0.893,0.083
25.18,-0.165,0.796,0.219
25.19,-0.368,1.098,-0.099
25.2,-0.302,0.775,-0.188
25.21,-0.181,1.314,0.142
25.22,-0.076,0.73,0.12
25.23,-0.252,0.957,0.006
25.24,-0.324,1.04,-0.148
25.25,-0.069,1.084,-0.075
25.26,-0.252,0.923,0.141
25.27,-0.047,0.75,0.138
25.28,-0.465,1.162,-0.192
25.29,-0.306,0.782,-0.072
25.3,0.005,1.333,0.097
25.31,-0.094,0.69,0.086
25.32,-0.351,0.969,0.018
25.33,-0.25,1.131,-0.231
25.34,-0.12,0.902,-0.027
25.35,-0.092,0.955,0.255
25.36,-0.141,0.775,0.071
25.37,-0.527,1.127,-0.185
25.38,-0.062,0.869,-0.073
25.39,-0.11,1.195,0.02
25.4,-0.114,0.662,0.199
25.41,-0.36,1.096,-0.081
25.42,-0.266,0.953,-0.215
25.43,-0.066,1.076,0.097
25.44,-0.132,0.933,0.142
25.45,-0.236,0.896,0.065
25.46,-0.425,1.175,-0.214
25.47,-0.064,0.833,-0.05
25.48,-0.221,1.182,0.207
25.49,-0.082,0.639,0.081
25.5,-0.428,1.18,-0.193
25.51,-0.163,0.93,-0.047
25.52,-0.113,1.114,0.087
25.53,-0.171,0.822,0.174
25.54,-0.199,0.851,-0.056
25.55,-0.385,1.165,-0.195
25.56,-0.099,0.863,0.054
25.57,-0.156,1.192,0.146
25.58,-0.124,0.642,0.029
25.59,-0.442,1.17,-0.201
25.6,-0.099,1.021,-0.06
25.61,-0.1,0.989,0.082
25.62,-0.204,0.895,0.178
25.63,-0.27,0.844,-0.065
25.64,-0.36,1.201,-0.154
25.65,-0.196,0.841,0.14
25.66,-0.044,1.156,0.119
25.67,-0.23,0.689,-0.042
25.68,-0.388,1.166,-0.125
25.69,-0.132,1.026,-0.041
25.7,-0.22,0.878,0.163
25.71,-0.1,0.98,0.151
25.72,-0.322,0.768,-0.191
25.73,-0.313,1.232,-0.047
25.74,0.026,0.91,0.015
25.75,-0.092,0.973,0.098
25.76,-0.287,0.806,0.068
25.77,-0.33,1.168,-0.255
25.78,-0.104,1.028,-0.078
25.79,-0.092,0.832,0.187
25.8,-0.058,1.01,0.059
25.81,-0.423,0.793,-0.192
25.82,-0.168,1.274,-0.047
25.83,0.005,0.83,0.056
25.84,-0.272,0.907,0.214
25.85,-0.21,0.897,-0.069
25.86,-0.33,0.964,-0.193
25.87,-0.208,1.154,0.072
25.88,-0.044,0.82,0.111
25.89,-0.222,1.009,0.006
25.9,-0.363,0.883,-0.129
25.91,-0.146,1.235,-0.057
25.92,-0.136,0.799,0.073
25.93,-0.156,0.92,0.164
25.94,-0.251,0.974,-0.174
25.95,-0.296,0.871,-0.117
25.96,-0.083,1.27,0.115
25.97,-0.15,0.703,0.121
25.98,-0.195,1.025,-0.0
25.99,-0.093,1.136,0.095
26.0,-0.173,0.65,0.114
26.01,-0.286,1.163,-0.014
26.02,-0.278,0.882,-0.218
26.03,-0.29,1.156,0.114
26.04,-0.074,0.879,0.181
26.05,-0.114,0.843,-0.007
26.06,-0.438,1.034,-0.12
26.07,-0.037,1.009,-0.083
26.08,-0.18,1.087,0.068
26.09,-0.123,0.635,0.23
26.1,-0.391,1.203,-0.089
26.11,-0.279,0.783,-0.187
26.12,-0.172,1.21,0.137
26.13,-0.118,0.831,0.142
26.14,-0.202,0.825,0.037
26.15,-0.353,1.257,-0.205
26.16,-0.051,0.831,-0.077
26.17,-0.297,1.182,0.134
26.18,0.019,0.679,0.119
26.19,-0.448,1.124,-0.16
26.2,-0.286,0.831,0.004
26.21,-0.074,1.296,0.088
26.22,-0.152,0.682,0.137
26.23,-0.306,0.93,0.04
26.24,-0.238,1.12,-0.26
26.25,-0.134,0.891,-0.014
26.26,-0.133,1.12,0.153
26.27,-0.058,0.612,0.067
26.28,-0.543,1.192,-0.148
26.29,-0.058,0.931,-0.022
26.3,-0.135,1.182,0.056
26.31,-0.278,0.722,0.212
26.32,-0.197,0.934,-0.063
26.33,-0.359,1.166,-0.23
26.34,-0.132,0.854,0.091
26.35,-0.106,1.153,0.133
26.36,-0.102,0.614,-0.037
26.37,-0.456,1.257,-0.176
26.38,-0.081,0.925,-0.073
26.39,-0.203,1.045,0.085
26.4,-0.091,0.922,0.212
26.41,-0.33,0.853,-0.179
26.42,-0.319,1.062,-0.189
26.43,0.001,0.961,0.071
26.44,-0.159,1.13,0.079
26.45,-0.17,0.628,0.012
26.46,-0.374,1.3,-0.181
26.47,-0.141,0.961,-0.031
26.48,-0.191,0.936,0.15
26.49,-0.074,0.963,0.134
26.5,-0.396,0.784,-0.175
26.51,-0.33,1.226,-0.037
26.52,0.03,0.898,0.009
26.53,-0.238,0.96,0.152
26.54,-0.157,0.752,0.039
26.55,-0.381,1.249,-0.252
26.56,-0.104,0.906,-0.02
26.57,-0.121,0.946,0.218
26.58,-0.197,0.981,0.066
26.59,-0.373,0.772,-0.198
26.6,-0.221,1.3,-0.041
26.61,-0.084,0.819,0.051
26.62,-0.189,0.932,0.143
26.63,-0.237,0.841,-0.002
26.64,-0.375,1.098,-0.203
26.65,-0.091,1.045,-0.015
26.66,-0.042,0.853,0.177
26.67,-0.218,0.977,0.041
26.68,-0.426,0.811,-0.166
26.69,-0.149,1.259,-0.08
26.7,-0.13,0.744,0.082
26.71,-0.158,0.957,0.2
26.72,-0.266,0.957,-0.156
26.73,-0.323,0.923,-0.158
26.74,-0.016,1.19,0.099
26.75,-0.105,0.773,0.116
26.76,-0.301,1.028,0.019
26.77,-0.291,0.915,-0.125
26.78,-0.245,1.178,-0.058
26.79,-0.214,0.779,0.19
26.8,-0.009,0.928,0.12
26.81,-0.437,1.012,-0.174
26.82,-0.28,0.861,-0.069
26.83,0.013,1.329,-0.003
26.84,-0.138,0.591,0.139
26.85,-0.291,1.073,0.016
26.86,-0.301,0.996,-0.24
26.87,-0.123,1.036,-0.062
26.88,-0.162,0.892,0.212
26.89,-0.1,0.841,0.101
26.9,-0.453,1.074,-0.227
26.91,-0.153,0.876,-0.025
26.92,-0.151,1.3,0.09
26.93,-0.152,0.568,0.145
26.94,-0.298,1.106,-0.047
26.95,-0.322,0.939,-0.219
26.96,-0.117,1.008,0.011
26.97,-0.136,1.041,0.157
26.98,-0.105,0.712,0.039
26.99,-0.469,1.15,-0.236
27.0,-0.015,0.904,-0.045
27.01,-0.135,1.246,0.067
27.02,-0.143,0.654,0.218
27.03,-0.352,1.177,-0.122
27.04,-0.273,0.798,-0.182
27.05,-0.168,1.173,0.142
27.06,-0.104,0.883,0.136
27.07,-0.228,0.812,-0.038
27.08,-0.393,1.178,-0.17
27.09,-0.06,0.909,-0.027
27.1,-0.251,1.125,0.117
27.11,-0.025,0.697,0.167
27.12,-0.428,1.139,-0.197
27.13,-0.313,0.877,-0.078
27.14,0.005,1.162,0.076
27.15,-0.151,0.881,0.098
27.16,-0.281,0.79,0.016
27.17,-0.296,1.263,-0.223
27.18,-0.132,0.826,0.013
27.19,-0.193,1.193,0.193
27.2,0.011,0.692,0.067
27.21,-0.518,1.106,-0.197
27.22,-0.109,0.998,-0.002
27.23,-0.126,1.009,0.084
27.24,-0.175,0.922,0.125
27.25,-0.232,0.806,-0.057
27.26,-0.372,1.275,-0.205
27.27,-0.161,0.804,0.109
27.28,-0.071,1.166,0.147
27.29,-0.207,0.659,0.045
27.3,-0.447,1.112,-0.179
27.31,0.013,1.126,-0.129
27.32,-0.199,0.806,0.075
27.33,-0.181,1.03,0.196
27.34,-0.285,0.77,-0.173
27.35,-0.401,1.206,-0.103
27.36,-0.04,0.923,0.129
27.37,-0.132,1.008,0.079
27.38,-0.296,0.747,0.017
27.39,-0.271,1.108,-0.189
27.4,-0.112,1.159,-0.046
27.41,-0.232,0.715,0.152
27.42,0.005,1.091,0.102
27.43,-0.377,0.811,-0.214
27.44,-0.32,1.204,-0.052
27.45,0.085,0.907,0.052
27.46,-0.189,0.851,0.111
27.47,-0.255,0.906,0.003
27.48,-0.305,1.038,-0.221
27.49,-0.109,1.128,0.006
27.5,-0.109,0.783,0.196
27.51,-0.157,1.013,0.021
27.52,-0.366,0.822,-0.179
27.53,-0.168,1.253,-0.032
27.54,-0.11,0.87,0.094
27.55,-0.184,0.796,0.139
27.56,-0.259,1.052,-0.1
27.57,-0.299,0.919,-0.165
27.58,-0.249,1.209,0.135
27.59,-0.039,0.705,0.126
27.6,-0.303,1.022,-0.015
27.61,-0.33,0.959,-0.156
27.62,-0.075,1.156,-0.057
27.63,-0.261,0.865,0.156
27.64,-0.045,0.81,0.121
27.65,-0.398,1.132,-0.189
27.66,-0.324,0.857,-0.037
27.67,-0.072,1.277,0.092
27.68,-0.081,0.651,0.111
27.69,-0.329,1.027,0.016
27.7,-0.339,0.974,-0.164
27.71,-0.192,1.017,0.027
27.72,-0.07,1.009,0.135
27.73,-0.098,0.737,0.056
27.74,-0.505,1.225,-0.165
27.75,-0.108,0.859,-0.061
27.76,-0.133,1.186,0.026
27.77,-0.057,0.695,0.155
27.78,-0.382,1.025,-0.121
27.79,-0.22,0.976,-0.167
27.8,-0.129,1.062,0.098
27.81,-0.12,0.998,0.142
27.82,-0.106,0.659,-0.011
27.83,-0.407,1.263,-0.179
27.84,-0.044,0.833,-0.064
27.85,-0.236,1.182,0.155
27.86,-0.069,0.677,0.134
27.87,-0.465,1.109,-0.219
27.88,-0.252,0.943,-0.058
27.89,-0.018,1.121,0.083
27.9,-0.146,0.843,0.144
27.91,-0.291,0.769,-0.017
27.92,-0.276,1.321,-0.228
27.93,-0.061,0.785,-0.022
27.94,-0.167,1.181,0.184
27.95,-0.089,0.693,0.028
27.96,-0.473,1.075,-0.247
27.97,0.027,1.057,-0.066
27.98,-0.124,0.99,0.078
27.99,-0.223,0.906,0.211
28.0,-0.28,0.77,-0.088
28.01,-0.327,1.285,-0.199
28.02,-0.125,0.882,0.157
28.03,-0.16,1.013,0.113
28.04,-0.252,0.73,-0.004
28.05,-0.349,1.167,-0.185
28.06,-0.147,1.066,-0.069
28.07,-0.188,0.813,0.152
28.08,-0.097,1.053,0.141
28.09,-0.383,0.749,-0.152
28.1,-0.298,1.221,-0.062
28.11,-0.001,0.938,0.066
28.12,-0.194,0.861,0.142
28.13,-0.23,0.85,0.049
28.14,-0.324,1.072,-0.237
28.15,-0.146,1.095,-0.016
28.16,-0.159,0.82,0.222
28.17,-0.153,1.037,0.044
28.18,-0.376,0.772,-0.168
28.19,-0.153,1.281,-0.099
28.2,-0.052,0.867,0.076
28.21,-0.149,0.845,0.148
28.22,-0.283,0.999,-0.059
28.23,-0.306,0.897,-0.166
28.24,-0.143,1.233,0.092
28.25,-0.176,0.752,0.134
28.26,-0.165,0.994,0.021
28.27,-0.327,0.925,-0.169
28.28,-0.236,1.185,-0.08
28.29,-0.125,0.839,0.14
28.3,-0.079,0.858,0.171
28.31,-0.393,1.065,-0.116
28.32,-0.267,0.792,-0.124
28.33,-0.066,1.349,0.101
28.34,-0.156,0.638,0.123
28.35,-0.296,1.048,0.089
28.36,-0.286,1.014,-0.216
28.37,-0.194,1.009,-0.071
28.38,-0.159,0.931,0.224
28.39,-0.091,0.808,0.113
28.4,-0.493,1.095,-0.195
28.41,-0.154,0.812,-0.058
28.42,-0.133,1.366,0.068
28.43,-0.121,0.577,0.113
28.44,-0.275,1.055,0.03
28.45,-0.363,1.044,-0.246
28.46,-0.124,0.941,-0.021
28.47,-0.089,1.114,0.157
28.48,-0.19,0.662,0.067
28.49,-0.497,1.174,-0.163
28.5,-0.049,0.902,-0.045
28.51,-0.202,1.158,0.039
28.52,-0.142,0.698,0.229
28.53,-0.234,1.016,-0.118
28.54,-0.32,0.96,-0.209
28.55,-0.105,0.944,0.145
28.56,-0.076,1.132,0.107
28.57,-0.255,0.598,0.033
28.58,-0.39,1.272,-0.187
28.59,-0.084,0.927,-0.062
28.6,-0.176,1.08,0.098
28.61,-0.108,0.824,0.208
28.62,-0.379,0.908,-0.163
28.63,-0.289,1.062,-0.143
28.64,-0.016,0.994,0.122
28.65,-0.181,0.927,0.086
28.66,-0.2,0.687,0.025
28.67,-0.389,1.333,-0.246
28.68,-0.094,0.797,-0.044
28.69,-0.147,1.167,0.173
28.7,-0.113,0.723,0.085
28.71,-0.464,1.012,-0.177
28.72,-0.169,1.142,-0.043
28.73,-0.071,0.959,0.07
28.74,-0.205,0.936,0.163
28.75,-0.228,0.743,-0.003
28.76,-0.371,1.287,-0.314
28.77,-0.061,0.79,-0.012
28.78,-0.096,1.157,0.17
28.79,-0.219,0.75,0.039
28.8,-0.47,0.983,-0.157
28.81,-0.109,1.203,-0.087
28.82,-0.092,0.78,0.027
28.83,-0.193,1.035,0.198
28.84,-0.218,0.769,-0.122
28.85,-0.369,1.186,-0.181
28.86,-0.049,0.964,0.131
28.87,-0.148,0.987,0.114
28.88,-0.264,0.829,-0.009
28.89,-0.323,1.027,-0.197
28.9,-0.151,1.114,-0.06
28.91,-0.222,0.704,0.225
28.92,-0.097,1.118,0.137
28.93,-0.366,0.724,-0.202
28.94,-0.303,1.127,-0.05
28.95,-0.011,1.037,0.061
28.96,-0.2,0.788,0.138
28.97,-0.309,0.951,0.043
28.98,-0.275,0.98,-0.227
28.99,-0.205,1.2,0.004
29.0,-0.098,0.69,0.165
29.01,-0.119,1.048,0.052
29.02,-0.406,0.855,-0.177
29.03,-0.194,1.157,-0.086
29.04,-0.023,0.963,0.07
29.05,-0.248,0.753,0.193
29.06,-0.3,1.087,-0.029
29.07,-0.29,0.836,-0.201
29.08,-0.259,1.219,0.08
29.09,-0.009,0.771,0.131
29.1,-0.218,0.961,0.015
29.11,-0.377,0.932,-0.175
29.12,-0.055,1.092,-0.089
29.13,-0.135,0.965,0.068
29.14,-0.18,0.715,0.226
29.15,-0.322,1.188,-0.129
29.16,-0.281,0.815,-0.186
29.17,-0.058,1.278,0.095
29.18,-0.082,0.713,0.125
29.19,-0.332,0.948,0.02
29.2,-0.318,1.081,-0.228
29.21,-0.129,0.906,-0.079
29.22,-0.217,1.029,0.237
29.23,-0.026,0.725,0.113
29.24,-0.429,1.195,-0.199
29.25,-0.2,0.844,-0.044
29.26,-0.148,1.232,0.052
29.27,-0.095,0.687,0.147
29.28,-0.334,0.962,-0.004
29.29,-0.302,1.154,-0.221
29.3,-0.125,0.882,0.011
29.31,-0.198,1.186,0.181
29.32,-0.079,0.626,0.073
29.33,-0.476,1.184,-0.137
29.34,-0.134,0.947,-0.074
29.35,-0.132,1.08,0.091
29.36,-0.173,0.796,0.176
29.37,-0.316,0.895,-0.067
29.38,-0.279,1.154,-0.201
29.39,-0.129,0.898,0.12
29.4,-0.173,1.14,0.137
29.41,-0.103,0.594,-0.001
29.42,-0.478,1.271,-0.165
29.43,-0.126,0.98,-0.022
29.44,-0.171,1.02,0.066
29.45,-0.117,0.923,0.182
29.46,-0.419,0.927,-0.187
29.47,-0.26,1.079,-0.058
29.48,-0.029,1.002,0.059
29.49,-0.209,0.972,0.112
29.5,-0.188,0.697,0.066
29.51,-0.449,1.356,-0.226
29.52,-0.119,0.758,-0.029
29.53,-0.149,1.105,0.181
29.54,-0.118,0.841,0.062
29.55,-0.444,0.902,-0.184
29.56,-0.178,1.184,-0.049
29.57,-0.079,0.86,0.083
29.58,-0.199,1.013,0.137
29.59,-0.189,0.733,-0.055
29.6,-0.383,1.225,-0.196
29.61,-0.185,0.915,0.089
29.62,-0.128,1.035,0.126
29.63,-0.122,0.821,-0.024
29.64,-0.467,0.934,-0.112
29.65,-0.104,1.302,-0.08
29.66,-0.088,0.735,0.088
29.67,-0.182,1.015,0.184
29.68,-0.294,0.823,-0.136
29.69,-0.313,1.12,-0.164
29.7,-0.12,1.042,0.106
29.71,-0.142,0.872,0.162
29.72,-0.199,0.956,0.007
29.73,-0.413,0.927,-0.208
29.74,-0.072,1.225,-0.041
29.75,-0.143,0.751,0.135
29.76,-0.156,1.062,0.177
29.77,-0.293,0.85,-0.182
29.78,-0.274,1.04,-0.133
29.79,-0.076,1.094,0.091
29.8,-0.176,0.739,0.153
29.81,-0.343,1.0,0.011
29.82,-0.296,0.921,-0.194
29.83,-0.087,1.243,-0.006
29.84,-0.195,0.688,0.154
29.85,-0.099,0.99,0.113
29.86,-0.372,0.982,-0.202
29.87,-0.277,0.989,-0.025
29.88,-0.065,1.131,0.066
29.89,-0.187,0.667,0.108
29.9,-0.307,1.129,-0.021
29.91,-0.331,0.843,-0.153
29.92,-0.198,1.194,0.069
29.93,-0.063,0.791,0.12
29.94,-0.129,0.895,0.027
29.95,-0.485,1.055,-0.154
29.96,-0.091,0.923,-0.089
29.97,-0.093,1.086,0.069
29.98,-0.138,0.714,0.178
29.99,-0.397,1.151,-0.128
30.0,-0.206,0.858,-0.178
30.01,-0.112,1.224,0.131
30.02,-0.109,0.766,0.128
30.03,-0.251,0.837,0.017
30.04,-0.394,1.235,-0.206
30.05,-0.072,0.859,-0.045
30.06,-0.216,1.146,0.174
30.07,-0.087,0.676,0.107
30.08,-0.429,1.135,-0.204
30.09,-0.248,0.929,-0.036
30.1,-0.077,1.205,0.081
30.11,-0.097,0.809,0.08
30.12,-0.309,0.792,-0.006
30.13,-0.324,1.257,-0.206
30.14,-0.024,0.853,-0.002
30.15,-0.234,1.187,0.174
30.16,-0.067,0.646,0.035
30.17,-0.502,1.155,-0.186
30.18,-0.129,1.044,-0.023
30.19,-0.069,1.01,0.074
30.2,-0.15,0.876,0.12
30.21,-0.271,0.802,-0.089
30.22,-0.292,1.268,-0.184
30.23,-0.119,0.815,0.073
30.24,-0.068,1.112,0.143
30.25,-0.196,0.715,0.005
30.26,-0.505,1.104,-0.124
30.27,-0.151,1.079,-0.032
30.28,-0.23,0.971,0.153
30.29,-0.047,0.903,0.11
30.3,-0.38,0.884,-0.195
30.31,-0.261,1.183,-0.084
30.32,-0.005,0.881,0.105
30.33,-0.165,1.042,0.12
30.34,-0.242,0.74,-0.026
30.35,-0.39,1.227,-0.226
30.36,-0.107,0.937,-0.003
30.37,-0.099,0.991,0.204
30.38,-0.208,0.909,0.042
30.39,-0.412,0.831,-0.164
30.4,-0.08,1.299,-0.106
30.41,-0.081,0.764,0.054
30.42,-0.132,1.019,0.161
30.43,-0.227,0.829,-0.145
30.44,-0.325,1.052,-0.162
30.45,-0.044,1.115,0.127
30.46,-0.11,0.836,0.125
30.47,-0.31,0.953,0.0
30.48,-0.351,0.932,-0.15
30.49,-0.101,1.241,-0.059
30.5,-0.177,0.664,0.147
30.51,-0.104,1.015,0.159
30.52,-0.37,0.921,-0.209
30.53,-0.309,0.982,-0.086
30.54,0.019,1.17,0.111
30.55,-0.229,0.677,0.124
30.56,-0.364,1.077,0.04
30.57,-0.297,0.921,-0.23
30.58,-0.187,1.19,-0.036
30.59,-0.053,0.768,0.182
30.6,-0.177,0.953,0.045
30.61,-0.432,0.966,-0.192
30.62,-0.049,1.016,-0.088
30.63,-0.091,1.09,0.058
30.64,-0.213,0.683,0.189
30.65,-0.339,1.186,-0.093
30.66,-0.278,0.843,-0.172
30.67,-0.187,1.242,0.122
30.68,-0.004,0.78,0.095
30.69,-0.244,0.874,-0.006
30.7,-0.34,1.204,-0.167
30.71,-0.095,0.924,-0.07
30.72,-0.214,1.052,0.112
30.73,-0.033,0.694,0.175
30.74,-0.44,1.195,-0.19
30.75,-0.289,0.845,-0.057
30.76,-0.111,1.188,0.123
30.77,-0.154,0.799,0.127
30.78,-0.328,0.78,0.018
30.79,-0.278,1.258,-0.205
30.8,-0.094,0.874,-0.009
30.81,-0.323,1.146,0.195
30.82,0.054,0.664,0.068
30.83,-0.565,1.178,-0.184
30.84,-0.156,0.94,0.004
30.85,-0.07,1.104,0.057
30.86,-0.19,0.879,0.132
30.87,-0.283,0.801,-0.032
30.88,-0.381,1.231,-0.21
30.89,-0.069,0.805,0.061
30.9,-0.07,1.21,0.11
30.91,-0.185,0.625,0.05
30.92,-0.483,1.149,-0.147
30.93,-0.107,1.055,-0.08
30.94,-0.152,0.85,0.077
30.95,-0.137,0.983,0.195
30.96,-0.386,0.76,-0.128
30.97,-0.323,1.229,-0.175
30.98,0.052,0.847,0.088
30.99,-0.12,1.031,0.149
31.0,-0.307,0.755,0.045
31.01,-0.342,1.142,-0.235
31.02,-0.04,1.063,-0.074
31.03,-0.2,0.83,0.216
31.04,-0.1,0.994,0.049
31.05,-0.4,0.805,-0.195
31.06,-0.228,1.298,-0.079
31.07,-0.003,0.823,0.078
31.08,-0.226,0.909,0.156
31.09,-0.272,0.871,-0.07
31.1,-0.297,1.156,-0.195
31.11,-0.137,0.966,0.06
31.12,-0.049,0.892,0.148
31.13,-0.218,0.949,-0.012
31.14,-0.459,0.875,-0.151
31.15,-0.14,1.248,-0.047
31.16,-0.124,0.737,0.122
31.17,-0.145,1.04,0.201
31.18,-0.385,0.873,-0.143
31.19,-0.303,1.049,-0.08
31.2,-0.011,1.121,0.09
31.21,-0.155,0.718,0.138
31.22,-0.272,1.09,0.018
31.23,-0.343,0.903,-0.197
31.24,-0.2,1.187,0.012
31.25,-0.049,0.797,0.2
31.26,-0.248,0.951,0.083
31.27,-0.417,0.938,-0.168
31.28,-0.048,1.118,-0.115
31.29,-0.17,1.021,0.065
31.3,-0.098,0.661,0.207
31.31,-0.367,1.207,-0.106
31.32,-0.268,0.745,-0.188
31.33,-0.148,1.316,0.157
31.34,-0.194,0.811,0.148
31.35,-0.217,0.881,0.017
31.36,-0.292,1.152,-0.176
31.37,-0.176,0.939,-0.082
31.38,-0.202,1.013,0.14
31.39,0.001,0.74,0.141
31.4,-0.501,1.124,-0.201
31.41,-0.306,0.786,-0.074
31.42,-0.021,1.307,0.077
31.43,-0.138,0.727,0.089
31.44,-0.261,0.86,0.066
31.45,-0.262,1.234,-0.282
31.46,-0.123,0.75,-0.043
31.47,-0.138,1.165,0.221
31.48,-0.052,0.692,0.094
31.49,-0.537,1.109,-0.188
31.5,-0.048,0.944,-0.092
31.51,-0.189,1.106,0.091
31.52,-0.144,0.85,0.175
31.53,-0.251,0.845,-0.014
31.54,-0.382,1.185,-0.24
31.55,-0.089,0.846,0.086
31.56,-0.107,1.176,0.122
31.57,-0.191,0.611,0.027
31.58,-0.386,1.2,-0.218
31.59,-0.08,1.009,-0.106
31.6,-0.147,0.886,0.093
31.61,-0.084,0.96,0.153
31.62,-0.389,0.763,-0.124
31.63,-0.287,1.206,-0.146
31.64,-0.048,0.937,0.097
31.65,-0.143,1.012,0.108
31.66,-0.189,0.697,-0.01
31.67,-0.357,1.183,-0.241
31.68,-0.097,0.992,-0.038
31.69,-0.108,0.843,0.159
31.7,-0.212,1.039,0.116
31.71,-0.323,0.763,-0.212
31.72,-0.168,1.249,-0.135
31.73,-0.049,0.944,0.108
31.74,-0.208,0.908,0.135
31.75,-0.269,0.801,0.018
31.76,-0.32,1.13,-0.224
31.77,-0.117,1.031,0.004
31.78,-0.136,0.83,0.232
31.79,-0.197,1.031,0.048
31.8,-0.372,0.778,-0.228
31.81,-0.139,1.285,-0.05
31.82,-0.134,0.839,0.135
31.83,-0.253,0.906,0.174
31.84,-0.246,0.946,-0.101
31.85,-0.324,0.982,-0.163
31.86,-0.083,1.175,0.093
31.87,-0.083,0.707,0.114
31.88,-0.265,1.044,-0.016
31.89,-0.319,0.912,-0.186
31.9,-0.146,1.148,-0.037
31.91,-0.137,0.74,0.211
31.92,-0.138,0.994,0.076
31.93,-0.411,0.908,-0.209
31.94,-0.106,1.072,-0.106
31.95,-0.132,1.061,0.1
31.96,-0.228,0.659,0.188
31.97,-0.224,1.146,-0.087
31.98,-0.366,0.84,-0.209
31.99,-0.171,1.215,0.136
32.0,-0.053,0.823,0.141
32.01,-0.295,0.879,0.019
32.02,-0.303,1.024,-0.171
32.03,-0.137,1.019,-0.111
32.04,-0.114,1.022,0.122
32.05,-0.079,0.722,0.191
32.06,-0.468,1.115,-0.122
32.07,-0.246,0.779,-0.14
32.08,-0.055,1.316,0.092
32.09,-0.253,0.708,0.162
32.1,-0.219,0.878,0.058
32.11,-0.404,1.212,-0.242
32.12,-0.133,0.802,-0.036
32.13,-0.167,1.16,0.174
32.14,-0.087,0.696,0.074
32.15,-0.45,1.12,-0.179
32.16,-0.187,0.914,-0.075
32.17,-0.125,1.185,0.072
32.18,-0.126,0.753,0.136
32.19,-0.27,0.887,0.06
32.2,-0.423,1.254,-0.237
32.21,-0.017,0.8,-0.023
32.22,-0.145,1.205,0.183
32.23,-0.117,0.645,0.098
32.24,-0.477,1.195,-0.176
32.25,-0.078,0.985,-0.059
32.26,-0.138,0.949,0.093
32.27,-0.139,0.927,0.197
32.28,-0.341,0.806,-0.111
32.29,-0.346,1.136,-0.201
32.3,-0.038,0.897,0.139
32.31,-0.196,1.146,0.125
32.32,-0.133,0.631,0.008
32.33,-0.407,1.246,-0.157
32.34,-0.156,1.019,-0.057
32.35,-0.175,0.902,0.157
32.36,-0.063,1.006,0.124
32.37,-0.37,0.729,-0.183
32.38,-0.359,1.255,-0.07
32.39,0.007,0.906,0.062
32.4,-0.203,0.954,0.082
32.41,-0.155,0.806,0.059
32.42,-0.432,1.205,-0.242
32.43,-0.11,0.994,-0.05
32.44,-0.049,0.898,0.137
32.45,-0.146,0.999,0.037
32.46,-0.366,0.769,-0.159
32.47,-0.197,1.324,-0.094
32.48,-0.146,0.81,0.077
32.49,-0.187,0.908,0.163
32.5,-0.212,0.902,-0.071
32.51,-0.408,0.999,-0.164
32.52,-0.153,1.135,0.12
32.53,-0.069,0.88,0.126
32.54,-0.189,0.968,0.039
32.55,-0.376,0.859,-0.143
32.56,-0.112,1.26,-0.081
32.57,-0.159,0.726,0.04
32.58,-0.13,0.939,0.218
32.59,-0.261,1.01,-0.154
32.6,-0.378,0.858,-0.147
32.61,-0.048,1.212,0.118
32.62,-0.113,0.756,0.095
32.63,-0.248,1.011,0.05
32.64,-0.307,0.953,-0.164
32.65,-0.18,1.193,-0.068
32.66,-0.184,0.761,0.151
32.67,-0.036,0.871,0.142
32.68,-0.521,1.031,-0.137
32.69,-0.29,0.844,-0.011
32.7,0.038,1.305,-0.001
32.71,-0.209,0.59,0.147
32.72,-0.242,1.117,0.051
32.73,-0.321,0.873,-0.269
32.74,-0.167,1.118,0.047
32.75,-0.033,0.873,0.19
32.76,-0.266,0.872,0.081
32.77,-0.397,0.996,-0.156
32.78,0.005,1.041,-0.108
32.79,-0.22,1.085,0.077
32.8,-0.133,0.607,0.206
32.81,-0.265,1.235,-0.141
32.82,-0.34,0.762,-0.216
32.83,-0.095,1.198,0.166
32.84,-0.068,0.918,0.088
32.85,-0.31,0.78,0.042
32.86,-0.285,1.178,-0.163
32.87,-0.179,0.939,-0.092
32.88,-0.24,1.09,0.105
32.89,0.001,0.736,0.14
32.9,-0.432,1.125,-0.169
32.91,-0.277,0.832,-0.125
32.92,0.061,1.172,0.051
32.93,-0.18,0.806,0.15
32.94,-0.279,0.808,0.11
32.95,-0.413,1.283,-0.234
32.96,-0.043,0.756,-0.108
32.97,-0.159,1.192,0.196
32.98,-0.078,0.684,0.054
32.99,-0.44,1.061,-0.165
33.0,-0.06,1.044,-0.026
33.01,-0.232,1.09,0.14
33.02,-0.171,0.816,0.155
33.03,-0.17,0.82,-0.003
33.04,-0.475,1.308,-0.209
33.05,-0.133,0.783,0.029
33.06,-0.131,1.261,0.18
33.07,-0.167,0.647,0.066
33.08,-0.453,1.041,-0.132
33.09,-0.118,1.134,-0.089
33.1,-0.06,0.936,0.055
33.11,-0.101,0.933,0.121
33.12,-0.301,0.736,-0.067
33.13,-0.342,1.237,-0.194
33.14,-0.09,0.884,0.034
33.15,-0.121,1.127,0.141
33.16,-0.184,0.718,-0.001
33.17,-0.375,1.042,-0.172
33.18,-0.106,1.199,-0.055
33.19,-0.157,0.792,0.12
33.2,-0.186,1.01,0.141
33.21,-0.21,0.784,-0.145
33.22,-0.372,1.195,-0.134
33.23,-0.085,0.927,0.175
33.24,-0.151,1.011,0.151
33.25,-0.337,0.848,-0.006
33.26,-0.323,1.029,-0.152
33.27,-0.174,1.155,-0.03
33.28,-0.221,0.759,0.201
33.29,-0.102,1.084,0.112
33.3,-0.338,0.753,-0.213
33.31,-0.242,1.202,-0.018
33.32,-0.045,0.976,0.034
33.33,-0.159,0.827,0.17
33.34,-0.263,0.977,-0.012
33.35,-0.354,0.934,-0.236
33.36,-0.145,1.186,-0.009
33.37,-0.092,0.836,0.153
33.38,-0.201,0.997,0.051
33.39,-0.375,0.797,-0.12
33.4,-0.048,1.242,-0.13
33.41,-0.162,0.899,0.069
33.42,-0.047,0.742,0.172
33.43,-0.3,1.06,-0.07
33.44,-0.346,0.834,-0.163
33.45,-0.027,1.276,0.005
33.46,-0.138,0.79,0.148
33.47,-0.227,0.966,0.05
33.48,-0.344,0.931,-0.194
33.49,-0.12,1.141,-0.088
33.5,-0.168,0.937,0.102
33.51,-0.09,0.714,0.159
33.52,-0.381,1.154,-0.091
33.53,-0.307,0.817,-0.171
33.54,-0.1,1.271,0.099
33.55,-0.145,0.615,0.12
33.56,-0.284,1.08,-0.0
33.57,-0.347,0.935,-0.147
33.58,-0.136,1.119,-0.035
33.59,-0.141,0.837,0.15
33.6,-0.048,0.854,0.075
33.61,-0.379,1.076,-0.21
33.62,-0.249,0.876,-0.003
33.63,-0.006,1.287,0.051
33.64,-0.143,0.649,0.099
33.65,-0.302,1.067,-0.034
33.66,-0.358,0.938,-0.23
33.67,-0.115,1.036,0.062
33.68,-0.188,1.029,0.163
33.69,-0.126,0.698,0.002
33.7,-0.417,1.22,-0.179
33.71,-0.091,0.899,-0.013
33.72,-0.167,1.158,0.125
33.73,-0.189,0.674,0.163
33.74,-0.285,1.063,-0.171
33.75,-0.263,0.988,-0.183
33.76,-0.116,1.051,0.136
33.77,-0.131,1.004,0.123
33.78,-0.19,0.65,-0.015
33.79,-0.433,1.315,-0.121
33.8,-0.138,0.866,-0.021
33.81,-0.198,1.089,0.168
33.82,-0.025,0.773,0.126
33.83,-0.447,0.998,-0.174
33.84,-0.232,1.102,-0.067
33.85,-0.064,0.998,0.069
33.86,-0.22,0.964,0.101
33.87,-0.165,0.747,0.033
33.88,-0.402,1.352,-0.242
33.89,-0.147,0.773,0.003
33.9,-0.062,1.121,0.149
33.91,-0.135,0.76,0.014
33.92,-0.454,0.998,-0.12
33.93,-0.086,1.208,-0.107
33.94,-0.114,0.794,0.058
33.95,-0.171,1.054,0.238
33.96,-0.239,0.758,-0.129
33.97,-0.402,1.164,-0.18
33.98,-0.051,0.946,0.129
33.99,-0.135,1.026,0.121
34.0,-0.261,0.81,0.027
34.01,-0.307,1.044,-0.178
34.02,-0.145,1.191,-0.07
34.03,-0.197,0.731,0.183
34.04,-0.093,1.084,0.148
34.05,-0.442,0.726,-0.144
34.06,-0.226,1.178,-0.093
34.07,0.017,1.038,0.001
34.08,-0.174,0.771,0.138
34.09,-0.223,0.961,0.084
34.1,-0.32,0.984,-0.254
34.11,-0.138,1.139,-0.012
34.12,-0.094,0.759,0.186
34.13,-0.166,1.009,0.097
34.14,-0.396,0.843,-0.182
34.15,-0.147,1.181,-0.055
34.16,-0.139,0.956,0.086
34.17,-0.135,0.717,0.138
34.18,-0.305,1.137,-0.029
34.19,-0.359,0.791,-0.2
34.2,-0.13,1.182,0.06
34.21,-0.051,0.849,0.101
34.22,-0.188,0.941,-0.014
34.23,-0.341,0.958,-0.164
34.24,-0.121,1.09,-0.085
34.25,-0.198,0.959,0.094
34.26,-0.069,0.748,0.173
34.27,-0.381,1.162,-0.15
34.28,-0.325,0.746,-0.162
34.29,0.023,1.311,0.106
34.3,-0.11,0.687,0.101
34.31,-0.29,0.937,0.082
34.32,-0.163,0.74,0.073
34.33,-0.067,0.96,0.126
34.34,-0.407,0.749,-0.184
34.35,-0.279,1.173,-0.11
34.36,-0.024,0.921,0.055
34.37,-0.162,0.969,0.11
34.38,-0.208,0.732,0.051
34.39,-0.269,1.229,-0.257
34.4,-0.054,0.99,-0.086
34.41,-0.178,0.85,0.194
34.42,-0.074,1.023,0.081
34.43,-0.416,0.76,-0.194
34.44,-0.167,1.302,-0.04
34.45,-0.104,0.841,0.095
34.46,-0.222,0.889,0.18
34.47,-0.17,0.909,-0.012
34.48,-0.402,1.036,-0.206
34.49,-0.15,1.05,0.084
34.5,-0.06,0.86,0.083
34.51,-0.143,1.01,0.011
34.52,-0.432,0.856,-0.127
34.53,-0.174,1.278,-0.073
34.54,-0.128,0.793,0.054
34.55,-0.161,0.873,0.223
34.56,-0.268,0.963,-0.098
34.57,-0.305,0.939,-0.155
34.58,-0.073,1.211,0.052
34.59,-0.09,0.701,0.13
34.6,-0.213,1.068,-0.014
34.61,-0.323,0.948,-0.206
34.62,-0.203,1.136,-0.046
34.63,-0.148,0.786,0.158
34.64,-0.092,0.882,0.146
34.65,-0.404,1.063,-0.141
34.66,-0.258,0.863,-0.1
34.67,-0.045,1.281,0.02
34.68,-0.046,0.578,0.065
34.69,-0.295,1.128,0.067
34.7,-0.373,0.917,-0.232
34.71,-0.137,0.985,-0.064
34.72,-0.072,0.995,0.174
34.73,-0.119,0.795,0.094
34.74,-0.452,1.098,-0.201
34.75,-0.039,0.92,-0.062
34.76,-0.092,1.245,0.055
34.77,-0.209,0.621,0.148
34.78,-0.238,1.062,-0.088
34.79,-0.371,0.964,-0.2
34.8,-0.147,1.018,0.085
34.81,-0.104,1.024,0.116
34.82,-0.16,0.68,-0.014
34.83,-0.43,1.266,-0.127
34.84,-0.133,0.905,-0.106
34.85,-0.144,1.095,0.101
34.86,-0.096,0.723,0.143
34.87,-0.349,1.064,-0.095
34.88,-0.25,0.966,-0.175
34.89,-0.098,1.044,0.129
34.9,-0.227,1.038,0.167
34.91,-0.166,0.639,0.005
34.92,-0.43,1.364,-0.17
34.93,-0.131,0.805,-0.028
34.94,-0.249,1.1,0.184
34.95,-0.067,0.794,0.111
34.96,-0.441,0.939,-0.19
34.97,-0.198,1.091,-0.031
34.98,-0.121,1.008,0.056
34.99,-0.158,0.93,0.11
35.0,-0.199,0.719,0.059
35.01,-0.444,1.362,-0.243
35.02,-0.052,0.78,-0.02
35.03,-0.145,1.134,0.174
35.04,-0.164,0.812,0.089
35.05,-0.43,0.912,-0.18
35.06,-0.164,1.204,-0.068
35.07,-0.128,0.926,0.088
35.08,-0.177,0.981,0.148
35.09,-0.254,0.741,-0.128
35.1,-0.348,1.228,-0.167
35.11,-0.059,0.895,0.093
35.12,-0.079,1.108,0.144
35.13,-0.253,0.729,0.044
35.14,-0.431,1.108,-0.151
35.15,-0.022,1.094,-0.111
35.16,-0.161,0.805,0.127
35.17,-0.16,1.036,0.164
35.18,-0.294,0.794,-0.185
35.19,-0.27,1.203,-0.115
35.2,-0.042,0.931,0.136
35.21,-0.137,0.938,0.129
35.22,-0.292,0.833,0.001
35.23,-0.265,1.083,-0.244
35.24,-0.136,1.089,-0.097
35.25,-0.082,0.753,0.196
35.26,-0.119,1.067,0.058
35.27,-0.417,0.761,-0.218
35.28,-0.137,1.226,-0.035
35.29,-0.049,0.92,0.077
35.3,-0.267,0.833,0.174
35.31,-0.205,0.991,-0.033
35.32,-0.33,0.953,-0.186
35.33,-0.23,1.16,0.043
35.34,0.037,0.756,0.129
35.35,-0.23,1.01,0.021
35.36,-0.455,0.874,-0.097
35.37,-0.164,1.18,-0.066
35.38,-0.089,0.827,0.039
35.39,-0.17,0.849,0.222
35.4,-0.286,1.067,-0.13
35.41,-0.395,0.856,-0.133
35.42,-0.011,1.255,0.101
35.43,-0.056,0.656,0.122
35.44,-0.41,1.037,0.047
35.45,-0.212,0.98,-0.214
35.46,-0.127,1.059,-0.056
35.47,-0.202,0.937,0.176
35.48,-0.052,0.779,0.1
35.49,-0.406,1.141,-0.186
35.5,-0.278,0.844,-0.053
35.51,-0.03,1.283,0.084
35.52,-0.182,0.653,0.12
35.53,-0.333,1.004,0.01
35.54,-0.233,1.016,-0.229
35.55,-0.192,0.986,0.016
35.56,-0.171,0.989,0.207
35.57,-0.045,0.727,0.051
35.58,-0.515,1.212,-0.201
35.59,-0.111,0.838,-0.043
35.6,-0.128,1.212,0.083
35.61,-0.212,0.689,0.16
35.62,-0.257,1.025,-0.041
35.63,-0.256,1.075,-0.201
35.64,-0.139,0.914,0.099
35.65,-0.104,1.085,0.136
35.66,-0.158,0.655,-0.0
35.67,-0.523,1.259,-0.162
35.68,-0.029,0.892,-0.029
35.69,-0.186,1.104,0.083
35.7,-0.124,0.786,0.173
35.71,-0.36,0.986,-0.146
35.72,-0.368,1.091,-0.136
35.73,0.056,0.932,0.102
35.74,-0.151,1.066,0.112
35.75,-0.287,0.656,0.035
35.76,-0.366,1.329,-0.231
35.77,-0.065,0.841,-0.076
35.78,-0.212,1.042,0.248
35.79,-0.113,0.818,0.078
35.8,-0.393,0.902,-0.209
35.81,-0.207,1.244,-0.008
35.82,-0.1,0.825,0.11
35.83,-0.172,1.027,0.121
35.84,-0.181,0.769,-0.069
35.85,-0.333,1.19,-0.235
35.86,-0.158,0.931,0.094
35.87,-0.105,0.984,0.164
35.88,-0.164,0.854,0.01
35.89,-0.38,1.107,-0.189
35.9,-0.102,1.099,-0.066
35.91,-0.18,0.788,0.134
35.92,-0.139,1.032,0.141
35.93,-0.296,0.707,-0.175
35.94,-0.318,1.28,-0.066
35.95,0.019,0.951,0.042
35.96,-0.16,0.883,0.11
35.97,-0.219,0.857,0.051
35.98,-0.366,1.061,-0.243
35.99,-0.106,1.083,-0.039
36.0,-0.111,0.802,0.18
36.01,-0.189,1.029,0.072
36.02,-0.35,0.757,-0.175
36.03,-0.177,1.253,-0.066
36.04,-0.098,0.871,0.077
36.05,-0.146,0.8,0.146
36.06,-0.302,1.021,-0.044
36.07,-0.355,0.88,-0.172
36.08,-0.059,1.18,0.013
36.09,-0.09,0.797,0.143
36.1,-0.213,0.99,0.026
36.11,-0.315,0.866,-0.213
36.12,-0.146,1.184,-0.072
36.13,-0.139,0.835,0.1
36.14,-0.058,0.774,0.176
36.15,-0.398,1.155,-0.141
36.16,-0.252,0.78,-0.151
36.17,-0.128,1.311,0.133
36.18,-0.103,0.728,0.127
36.19,-0.223,1.022,-0.049
36.2,-0.364,0.978,-0.16
36.21,-0.184,1.058,-0.057
36.22,-0.099,0.909,0.103
36.23,-0.082,0.776,0.138
36.24,-0.454,1.17,-0.166
36.25,-0.244,0.787,-0.093
36.26,0.02,1.292,0.063
36.27,-0.165,0.691,0.119
36.28,-0.31,0.993,0.019
36.29,-0.283,1.059,-0.247
36.3,-0.151,0.971,0.024
36.31,-0.155,1.063,0.201
36.32,-0.108,0.662,0.025
36.33,-0.505,1.219,-0.152
36.34,-0.028,0.893,-0.036
36.35,-0.156,1.168,0.097
36.36,-0.161,0.723,0.179
36.37,-0.263,1.048,-0.071
36.38,-0.353,1.047,-0.21
36.39,-0.124,0.906,0.109
36.4,-0.053,1.177,0.143
36.41,-0.262,0.641,0.002
36.42,-0.51,1.212,-0.165
36.43,0.034,0.941,-0.102
36.44,-0.196,1.065,0.099
36.45,-0.1,0.798,0.195
36.46,-0.332,0.981,-0.191
36.47,-0.336,1.099,-0.112
36.48,-0.023,0.938,0.116
36.49,-0.133,1.049,0.113
36.5,-0.273,0.676,0.0
36.51,-0.319,1.32,-0.197
36.52,-0.16,0.866,0.026
36.53,-0.225,0.997,0.201
36.54,0.003,0.853,0.054
36.55,-0.489,0.894,-0.169
36.56,-0.192,1.23,0.01
36.57,-0.084,0.83,0.074
36.58,-0.232,1.01,0.171
36.59,-0.213,0.758,-0.036
36.6,-0.311,1.219,-0.183
36.61,-0.185,0.924,0.115
36.62,-0.04,0.935,0.145
36.63,-0.205,0.934,-0.004
36.64,-0.439,0.898,-0.138
36.65,-0.122,1.25,-0.058
36.66,-0.12,0.734,0.081
36.67,-0.139,1.044,0.145
36.68,-0.297,0.818,-0.18
36.69,-0.319,1.095,-0.105
36.7,-0.031,0.925,0.067
36.71,-0.133,0.837,0.128
36.72,-0.259,0.957,0.033
36.73,-0.415,1.023,-0.195
36.74,-0.1,1.087,-0.025
36.75,-0.031,0.796,0.128
36.76,-0.221,1.015,0.041
36.77,-0.385,0.806,-0.164
36.78,-0.113,1.252,-0.097
36.79,-0.125,0.843,0.113
36.8,-0.186,0.839,0.236
36.81,-0.312,1.033,-0.122
36.82,-0.282,0.776,-0.203
36.83,-0.106,1.301,0.153
36.84,-0.134,0.769,0.155
36.85,-0.247,1.003,-0.003
36.86,-0.301,0.939,-0.165
36.87,-0.185,1.126,-0.044
36.88,-0.173,0.875,0.131
36.89,-0.12,0.788,0.091
36.9,-0.375,1.067,-0.15
36.91,-0.183,0.872,-0.106
36.92,-0.003,1.346,0.04
36.93,-0.11,0.588,0.09
36.94,-0.25,1.046,0.041
36.95,-0.363,0.979,-0.259
36.96,-0.12,0.973,0.015
36.97,-0.125,1.062,0.208
36.98,-0.171,0.687,0.08
36.99,-0.433,1.157,-0.162
37.0,-0.13,0.918,-0.035
37.01,-0.131,1.231,0.115
37.02,-0.148,0.659,0.157
37.03,-0.249,1.017,-0.06
37.04,-0.338,1.0,-0.21
37.05,-0.131,0.964,0.064
37.06,-0.2,1.094,0.136
37.07,-0.083,0.613,0.02
37.08,-0.487,1.31,-0.162
37.09,-0.125,0.926,-0.08
37.1,-0.122,1.059,0.056
37.11,-0.088,0.749,0.17
37.12,-0.363,0.965,-0.148
37.13,-0.196,1.037,-0.189
37.14,-0.079,0.983,0.132
37.15,-0.157,1.066,0.109
37.16,-0.197,0.665,0.001
37.17,-0.445,1.34,-0.199
37.18,-0.067,0.84,-0.025
37.19,-0.218,1.102,0.177
37.2,-0.06,0.823,0.11
37.21,-0.407,0.876,-0.231
37.22,-0.18,1.225,-0.074
37.23,-0.022,0.913,0.009
37.24,-0.176,0.955,0.121
37.25,-0.213,0.735,0.039
37.26,-0.444,1.295,-0.265
37.27,-0.04,0.831,-0.032
37.28,-0.031,1.044,0.14
37.29,-0.161,0.88,0.047
37.3,-0.399,0.893,-0.149
37.31,-0.142,1.297,-0.043
37.32,-0.084,0.732,0.035
37.33,-0.127,1.064,0.205
37.34,-0.307,0.786,-0.077
37.35,-0.345,1.113,-0.162
37.36,-0.077,1.051,0.088
37.37,-0.179,0.865,0.16
37.38,-0.223,0.961,0.035
37.39,-0.36,0.934,-0.156
37.4,-0.124,1.232,-0.056
37.41,-0.109,0.712,0.122
37.42,-0.116,1.041,0.167
37.43,-0.371,0.835,-0.16
37.44,-0.245,1.101,-0.094
37.45,-0.062,1.114,0.065
37.46,-0.179,0.668,0.149
37.47,-0.312,1.064,0.016
37.48,-0.278,0.916,-0.195
37.49,-0.138,1.185,-0.007
37.5,-0.177,0.742,0.199
37.51,-0.112,0.977,0.099
37.52,-0.409,0.829,-0.215
37.53,-0.138,1.199,-0.006
37.54,-0.072,0.922,0.046
37.55,-0.259,0.804,0.213
37.56,-0.287,1.079,-0.08
37.57,-0.296,0.85,-0.185
37.58,-0.193,1.222,0.101
37.59,-0.03,0.717,0.15
37.6,-0.225,1.015,0.004
37.61,-0.4,0.943,-0.16
37.62,-0.133,1.101,-0.056
37.63,-0.239,0.886,0.14
37.64,-0.101,0.757,0.15
37.65,-0.384,1.14,-0.181
37.66,-0.29,0.854,-0.044
37.67,-0.058,1.288,0.022
37.68,-0.11,0.619,0.133
37.69,-0.299,1.05,0.008
37.7,-0.334,1.035,-0.26
37.71,-0.06,0.909,-0.034
37.72,-0.119,1.083,0.185
37.73,-0.146,0.696,0.085
37.74,-0.44,1.182,-0.185
37.75,-0.217,0.846,-0.052
37.76,-0.086,1.196,0.084
37.77,-0.123,0.712,0.118
37.78,-0.331,0.969,-0.055
37.79,-0.352,1.026,-0.214
37.8,-0.111,0.932,0.076
37.81,-0.13,1.156,0.157
37.82,-0.104,0.6,0.049
37.83,-0.427,1.261,-0.217
37.84,-0.095,0.892,-0.073
37.85,-0.146,1.088,0.078
37.86,-0.162,0.774,0.179
37.87,-0.36,0.938,-0.131
37.88,-0.282,1.115,-0.125
37.89,-0.14,0.954,0.133
37.9,-0.124,1.091,0.118
37.91,-0.161,0.637,-0.023
37.92,-0.398,1.334,-0.214
37.93,-0.069,0.874,-0.03
37.94,-0.162,1.024,0.133
37.95,-0.106,0.874,0.118
37.96,-0.424,0.864,-0.216
37.97,-0.218,1.23,0.004
37.98,-0.141,0.892,0.113
37.99,-0.233,0.968,0.134
38.0,-0.144,0.755,-0.015
38.01,-0.372,1.259,-0.252
38.02,-0.152,0.926,0.082
38.03,0.0,1.047,0.094
38.04,-0.229,0.867,0.046
38.05,-0.31,0.846,-0.155
38.06,-0.131,1.302,-0.094
38.07,-0.155,0.681,0.091
38.08,-0.213,1.071,0.244
38.09,-0.354,0.777,-0.105
38.1,-0.364,1.091,-0.165
38.11,-0.013,1.099,0.078
38.12,-0.078,0.844,0.138
38.13,-0.315,0.943,0.062
38.14,-0.241,0.964,-0.152
38.15,-0.214,1.233,-0.054
38.16,-0.187,0.677,0.193
38.17,-0.03,1.042,0.077
38.18,-0.434,0.852,-0.185
38.19,-0.295,1.013,-0.041
38.2,-0.017,1.192,0.017
38.21,-0.133,0.63,0.129
38.22,-0.247,1.12,0.052
38.23,-0.251,0.922,-0.314
38.24,-0.186,1.109,-0.05
38.25,0.013,0.802,0.152
38.26,-0.128,0.891,0.055
38.27,-0.46,0.954,-0.126
38.28,-0.106,1.051,-0.074
38.29,-0.13,1.062,0.023
38.3,-0.182,0.64,0.207
38.31,-0.264,1.201,-0.069
38.32,-0.317,0.808,-0.245
38.33,-0.037,1.278,0.099
38.34,-0.088,0.703,0.12
38.35,-0.269,0.992,0.058
38.36,-0.331,1.021,-0.189
38.37,-0.201,1.01,-0.046
38.38,-0.246,0.96,0.157
38.39,-0.033,0.743,0.12
38.4,-0.453,1.154,-0.169
38.41,-0.245,0.861,0.015
38.42,-0.133,1.286,0.045
38.43,-0.117,0.597,0.162
38.44,-0.267,1.005,0.043
38.45,-0.302,1.066,-0.289
38.46,-0.098,0.87,-0.024
38.47,-0.127,1.151,0.149
38.48,-0.114,0.652,0.061
38.49,-0.45,1.19,-0.171
38.5,-0.123,0.918,-0.021
38.51,-0.16,1.187,0.028
38.52,-0.099,0.653,0.147
38.53,-0.267,0.982,-0.045
38.54,-0.348,1.077,-0.214
38.55,-0.128,0.889,0.06
38.56,-0.064,1.191,0.131
38.57,-0.171,0.593,0.037
38.58,-0.455,1.249,-0.152
38.59,-0.066,0.921,-0.1
38.6,-0.154,1.049,0.059
38.61,-0.088,0.846,0.237
38.62,-0.338,0.869,-0.161
38.63,-0.309,1.089,-0.103
38.64,-0.079,0.983,0.089
38.65,-0.182,1.084,0.095
38.66,-0.157,0.623,-0.012
38.67,-0.428,1.306,-0.153
38.68,-0.107,0.899,-0.078
38.69,-0.151,0.998,0.165
38.7,-0.14,0.932,0.144
38.71,-0.36,0.838,-0.194
38.72,-0.228,1.19,-0.111
38.73,-0.056,0.935,0.097
38.74,-0.107,1.026,0.108
38.75,-0.241,0.686,-0.034
38.76,-0.32,1.256,-0.167
38.77,-0.071,0.947,-0.014
38.78,-0.237,0.881,0.272
38.79,-0.081,0.947,0.087
38.8,-0.406,0.847,-0.255
38.81,-0.146,1.276,-0.013
38.82,-0.129,0.825,0.134
38.83,-0.235,0.978,0.211
38.84,-0.288,0.841,-0.074
38.85,-0.323,1.115,-0.171
38.86,-0.189,1.059,0.105
38.87,-0.033,0.84,0.12
38.88,-0.225,0.96,-0.016
38.89,-0.376,0.884,-0.139
38.9,-0.137,1.271,-0.076
38.91,-0.153,0.719,0.108
38.92,-0.117,0.996,0.176
38.93,-0.357,0.918,-0.204
38.94,-0.244,0.984,-0.117
38.95,0.006,1.195,0.087
38.96,-0.193,0.629,0.137
38.97,-0.32,1.112,0.101
38.98,-0.289,0.927,-0.217
38.99,-0.168,1.129,-0.08
39.0,-0.138,0.805,0.202
39.01,-0.108,0.881,0.073
39.02,-0.421,1.019,-0.204
39.03,-0.142,0.999,-0.043
39.04,-0.108,1.144,0.03
39.05,-0.187,0.603,0.237
39.06,-0.271,1.196,-0.029
39.07,-0.4,0.836,-0.225
39.08,-0.183,1.101,0.095
39.09,-0.028,0.941,0.091
39.1,-0.214,0.793,0.02
39.11,-0.355,1.112,-0.149
39.12,-0.063,0.94,-0.089
39.13,-0.156,1.086,0.108
39.14,-0.041,0.692,0.209
39.15,-0.459,1.14,-0.195
39.16,-0.202,0.786,-0.086
39.17,-0.02,1.365,0.035
39.18,-0.129,0.668,0.093
39.19,-0.297,0.971,0.06
39.2,-0.327,1.095,-0.271
39.21,-0.098,0.803,-0.004
39.22,-0.159,1.163,0.198
39.23,-0.123,0.645,0.106
39.24,-0.467,1.172,-0.182
39.25,-0.113,0.92,0.005
39.26,-0.145,1.16,0.048
39.27,-0.179,0.781,0.166
39.28,-0.286,0.927,-0.029
39.29,-0.341,1.105,-0.221
39.3,-0.199,0.917,0.103
39.31,-0.089,1.192,0.117
39.32,-0.101,0.559,0.029
39.33,-0.476,1.221,-0.126
39.34,-0.105,1.003,-0.08
39.35,-0.155,0.967,0.034
39.36,-0.126,0.903,0.228
39.37,-0.365,0.858,-0.157
39.38,-0.284,1.124,-0.156
39.39,-0.058,0.95,0.146
39.4,-0.199,1.063,0.086
39.41,-0.235,0.652,0.024
39.42,-0.329,1.311,-0.19
39.43,-0.125,0.929,-0.072
39.44,-0.26,0.957,0.246
39.45,-0.012,0.953,0.123
39.46,-0.458,0.775,-0.186
39.47,-0.235,1.229,-0.047
39.48,-0.07,0.94,0.093
39.49,-0.21,0.972,0.114
39.5,-0.222,0.765,0.056
39.51,-0.365,1.241,-0.253
39.52,-0.132,0.924,-0.011
39.53,-0.138,0.905,0.243
39.54,-0.1,0.979,0.048
39.55,-0.428,0.776,-0.2
39.56,-0.106,1.339,-0.044
39.57,-0.128,0.811,0.059
39.58,-0.26,0.94,0.186
39.59,-0.211,0.881,-0.053
39.6,-0.363,1.059,-0.229
39.61,-0.14,1.063,0.064
39.62,-0.044,0.865,0.105
39.63,-0.192,0.981,-0.027
39.64,-0.388,0.868,-0.108
39.65,-0.144,1.28,-0.096
39.66,-0.182,0.698,0.07
39.67,-0.081,0.959,0.185
39.68,-0.338,0.939,-0.163
39.69,-0.354,0.935,-0.104
39.7,0.03,1.264,0.052
39.71,-0.176,0.647,0.132
39.72,-0.374,1.065,0.087
39.73,-0.259,0.945,-0.241
39.74,-0.178,1.126,-0.092
39.75,-0.101,0.836,0.201
39.76,-0.115,0.906,0.054
39.77,-0.451,0.975,-0.198
39.78,-0.086,0.929,-0.038
39.79,-0.155,1.247,0.075
39.8,-0.139,0.597,0.177
39.81,-0.286,1.143,-0.029
39.82,-0.323,0.863,-0.176
39.83,-0.193,1.144,0.063
39.84,-0.046,0.978,0.099
39.85,-0.167,0.769,0.068
39.86,-0.425,1.145,-0.176
39.87,-0.008,0.925,-0.128
39.88,-0.197,1.142,0.048
39.89,-0.072,0.675,0.242
39.9,-0.465,1.116,-0.118
39.91,-0.256,0.801,-0.214
39.92,-0.015,1.176,0.147
39.93,-0.16,0.974,0.097
39.94,-0.19,0.714,0.027
39.95,-0.369,1.317,-0.162
39.96,-0.141,0.831,-0.064
39.97,-0.137,1.14,0.227
39.98,-0.122,0.682,0.108
39.99,-0.542,1.142,-0.19
40.0,-0.146,0.959,-0.063
40.01,-0.141,1.151,0.053
40.02,-0.189,0.749,0.171
40.03,-0.193,0.91,-0.02
40.04,-0.455,1.19,-0.208
40.05,-0.075,0.764,0.049
40.06,-0.093,1.281,0.128
40.07,-0.143,0.609,0.056
40.08,-0.398,1.169,-0.188
40.09,-0.084,1.001,-0.12
40.1,-0.133,0.976,0.046
40.11,-0.097,0.855,0.192
40.12,-0.273,0.83,-0.117
40.13,-0.341,1.183,-0.18
40.14,-0.042,0.922,0.091
40.15,-0.138,1.156,0.102
40.16,-0.129,0.644,0.029
40.17,-0.406,1.219,-0.196
40.18,-0.095,1.062,-0.066
40.19,-0.199,0.908,0.124
40.2,-0.131,0.958,0.168
40.21,-0.336,0.78,-0.195
40.22,-0.27,1.204,-0.125
40.23,-0.035,0.912,0.088
40.24,-0.153,1.006,0.116
40.25,-0.215,0.727,0.022
40.26,-0.37,1.173,-0.175
40.27,-0.109,1.023,0.002
40.28,-0.231,0.818,0.175
40.29,-0.034,1.021,0.104
40.3,-0.436,0.8,-0.207
40.31,-0.288,1.211,-0.031
40.32,-0.013,0.932,0.093
40.33,-0.219,0.881,0.119
40.34,-0.271,0.865,0.002
40.35,-0.282,1.111,-0.224
40.36,-0.089,1.057,-0.031
40.37,-0.103,0.767,0.191
40.38,-0.089,1.022,0.044
40.39,-0.424,0.808,-0.219
40.4,-0.091,1.211,-0.055
40.41,-0.094,0.864,0.104
40.42,-0.245,0.874,0.175
40.43,-0.227,1.015,-0.099
40.44,-0.332,0.936,-0.169
40.45,-0.111,1.189,0.103
40.46,-0.049,0.727,0.124
40.47,-0.259,1.031,0.006
40.48,-0.381,0.903,-0.161
40.49,-0.082,1.208,-0.054
40.5,-0.206,0.85,0.11
40.51,-0.136,0.852,0.197
40.52,-0.37,1.092,-0.204
40.53,-0.303,0.867,-0.122
40.54,-0.076,1.278,0.13
40.55,-0.116,0.626,0.134
40.56,-0.342,1.033,-0.012
40.57,-0.28,0.973,-0.199
40.58,-0.064,1.085,-0.032
40.59,-0.185,0.915,0.153
40.6,-0.048,0.77,0.102
40.61,-0.46,1.198,-0.186
40.62,-0.261,0.811,0.003
40.63,-0.076,1.255,0.08
40.64,-0.156,0.652,0.152
40.65,-0.391,1.027,-0.023
40.66,-0.226,1.034,-0.179
40.67,-0.101,1.056,0.09
40.68,-0.213,1.005,0.143
40.69,-0.124,0.648,-0.009
40.7,-0.466,1.281,-0.195
40.71,-0.088,0.876,-0.03
40.72,-0.218,1.12,0.135
40.73,-0.146,0.728,0.173
40.74,-0.355,1.02,-0.14
40.75,-0.276,1.028,-0.144
40.76,-0.138,0.944,0.125
40.77,-0.102,1.013,0.05
40.78,-0.295,0.776,-0.04
40.79,-0.216,1.291,-0.223
40.8,-0.123,0.818,0.028
40.81,-0.212,1.121,0.23
40.82,-0.11,0.687,0.076
40.83,-0.516,1.134,-0.234
40.84,-0.017,1.037,-0.036
40.85,-0.118,1.027,0.123
40.86,-0.267,0.851,0.186
40.87,-0.17,0.8,-0.112
40.88,-0.365,1.276,-0.188
40.89,-0.122,0.837,0.168
40.9,-0.079,1.086,0.112
40.91,-0.251,0.713,0.004
40.92,-0.438,1.145,-0.162
40.93,-0.093,1.052,-0.059
40.94,-0.176,0.839,0.165
40.95,-0.117,1.048,0.115
40.96,-0.355,0.746,-0.194
40.97,-0.246,1.209,-0.075
40.98,-0.027,0.929,0.13
40.99,-0.239,0.912,0.14
41.0,-0.249,0.835,0.018
41.01,-0.343,1.112,-0.182
41.02,-0.167,1.101,0.006
41.03,-0.063,0.807,0.176
41.04,-0.16,1.029,0.005
41.05,-0.384,0.824,-0.179
41.06,-0.183,1.292,-0.03
41.07,-0.102,0.763,0.059
41.08,-0.155,0.888,0.137
41.09,-0.345,1.001,-0.116
41.1,-0.282,0.941,-0.152
41.11,-0.145,1.198,0.086
41.12,-0.059,0.676,0.113
41.13,-0.262,1.067,0.013
41.14,-0.378,0.921,-0.152
41.15,-0.148,1.203,-0.018
41.16,-0.114,0.773,0.126
41.17,-0.118,0.874,0.105
41.18,-0.43,1.098,-0.195
41.19,-0.23,0.903,-0.046
41.2,-0.043,1.218,0.087
41.21,-0.133,0.592,0.169
41.22,-0.375,1.126,-0.018
41.23,-0.288,0.943,-0.264
41.24,-0.1,1.042,0.039
41.25,-0.069,0.971,0.16
41.26,-0.229,0.769,0.056
41.27,-0.458,1.134,-0.173
41.28,-0.021,0.915,-0.084
41.29,-0.113,1.119,0.053
41.3,-0.089,0.706,0.171
41.31,-0.462,1.129,-0.113
41.32,-0.36,0.938,-0.131
41.33,0.026,1.078,0.105
41.34,-0.136,0.932,0.116
41.35,-0.315,0.754,0.021
41.36,-0.34,1.291,-0.201
41.37,-0.137,0.803,-0.017
41.38,-0.076,1.156,0.163
41.39,-0.116,0.702,0.027
41.4,-0.498,1.087,-0.157
41.41,-0.117,1.115,-0.008
41.42,-0.139,0.904,0.09
41.43,-0.233,0.921,0.188
41.44,-0.2,0.776,-0.135
41.45,-0.355,1.27,-0.158
41.46,-0.093,0.873,0.148
41.47,-0.109,1.042,0.113
41.48,-0.283,0.729,0.015
41.49,-0.427,1.127,-0.117
41.5,-0.125,1.103,-0.035
41.51,-0.174,0.755,0.133
41.52,-0.146,1.059,0.136
41.53,-0.372,0.761,-0.18
41.54,-0.342,1.234,-0.075
41.55,0.057,0.88,0.049
41.56,-0.189,0.889,0.096
41.57,-0.274,0.884,-0.004
41.58,-0.307,1.048,-0.208
41.59,-0.155,1.121,0.059
41.6,-0.043,0.877,0.148
41.61,-0.241,0.946,-0.004
41.62,-0.433,0.884,-0.11
41.63,-0.099,1.27,-0.038
41.64,-0.143,0.711,0.126
41.65,-0.184,1.037,0.141
41.66,-0.338,0.853,-0.147
41.67,-0.27,1.074,-0.068
41.68,-0.041,1.138,0.096
41.69,-0.109,0.648,0.092
41.7,-0.315,1.076,0.023
41.71,-0.306,0.909,-0.188
41.72,-0.182,1.228,0.019
41.73,-0.062,0.787,0.147
41.74,-0.182,0.93,0.007
41.75,-0.458,0.993,-0.171
41.76,-0.097,1.037,-0.095
41.77,-0.106,1.042,0.062
41.78,-0.13,0.702,0.191
41.79,-0.381,1.136,-0.114
41.8,-0.329,0.846,-0.139
41.81,-0.012,1.276,0.091
41.82,-0.109,0.731,0.125
41.83,-0.292,0.883,0.023
41.84,-0.345,1.157,-0.257
41.85,-0.091,0.863,-0.102
41.86,-0.097,1.174,0.2
41.87,-0.155,0.654,0.103
41.88,-0.47,1.134,-0.185
41.89,-0.017,0.935,-0.084
41.9,-0.056,1.135,0.044
41.91,-0.181,0.785,0.209
41.92,-0.215,0.851,-0.086
41.93,-0.354,1.154,-0.188
41.94,-0.123,0.906,0.135
41.95,-0.176,1.211,0.084
41.96,-0.079,0.552,0.018
41.97,-0.444,1.284,-0.173
41.98,-0.195,0.977,-0.082
41.99,-0.16,0.925,0.075
42.0,-0.03,0.962,0.131
42.01,-0.409,0.772,-0.172
42.02,-0.261,1.183,-0.105
42.03,-0.051,0.935,0.114
42.04,-0.224,1.027,0.113
42.05,-0.164,0.651,0.023
42.06,-0.304,1.274,-0.263
42.07,-0.086,0.972,-0.039
42.08,-0.182,0.902,0.166
42.09,-0.131,0.954,0.059
42.1,-0.395,0.787,-0.176
42.11,-0.179,1.313,-0.067
42.12,-0.042,0.81,0.063
42.13,-0.147,0.973,0.101
42.14,-0.235,0.806,-0.023
42.15,-0.388,1.083,-0.175
42.16,-0.151,1.091,0.036
42.17,-0.052,0.891,0.1
42.18,-0.214,0.965,0.006
42.19,-0.444,0.787,-0.146
42.2,-0.11,1.277,-0.087
42.21,-0.131,0.771,0.116
42.22,-0.122,0.958,0.192
42.23,-0.292,0.942,-0.163
42.24,-0.286,0.946,-0.157
42.25,-0.071,1.234,0.1
42.26,-0.076,0.67,0.12
42.27,-0.342,1.083,0.058
42.28,-0.321,0.887,-0.25
42.29,-0.168,1.139,-0.029
42.3,-0.166,0.807,0.201
42.31,-0.103,0.892,0.067
42.32,-0.405,0.977,-0.234
42.33,-0.087,0.943,-0.047
42.34,-0.133,1.256,0.047
42.35,-0.086,0.581,0.128
42.36,-0.252,1.151,-0.038
42.37,-0.325,0.922,-0.16
42.38,-0.213,1.124,0.052
42.39,-0.088,0.919,0.084
42.4,-0.146,0.826,0.06
42.41,-0.425,1.19,-0.174
42.42,-0.135,1.094,-0.036
42.43,-0.173,0.864,0.177
42.44,-0.073,0.857,0.123
42.45,-0.423,1.058,-0.173
42.46,-0.206,0.861,-0.052
42.47,-0.053,1.335,0.044
42.48,-0.169,0.599,0.151
42.49,-0.267,1.089,0.031
42.5,-0.426,0.961,-0.244
42.51,-0.096,0.977,0.008
42.52,-0.133,1.052,0.118
42.53,-0.137,0.723,0.1
42.54,-0.42,1.138,-0.158
42.55,-0.052,0.934,-0.056
42.56,-0.128,1.165,0.098
42.57,-0.153,0.669,0.161
42.58,-0.299,1.078,-0.127
42.59,-0.316,0.953,-0.224
42.6,-0.131,1.022,0.172
42.61,-0.148,1.082,0.14
42.62,-0.143,0.657,0.0
42.63,-0.463,1.278,-0.157
42.64,-0.116,0.818,-0.059
42.65,-0.183,1.143,0.115
42.66,-0.21,1.109,-0.059
42.67,0.01,0.753,0.092
42.68,-0.211,1.084,0.175
42.69,-0.279,0.688,-0.17
42.7,-0.22,1.208,-0.14
42.71,-0.105,0.981,0.065
42.72,-0.077,0.908,0.131
42.73,-0.218,0.857,0.015
42.74,-0.458,0.998,-0.15
42.75,-0.031,1.151,-0.009
42.76,-0.169,0.816,0.155
42.77,-0.211,1.042,0.114
42.78,-0.236,0.782,-0.211
42.79,-0.267,1.226,-0.05
42.8,-0.061,0.941,0.083
42.81,-0.113,0.798,0.154
42.82,-0.371,0.994,0.005
42.83,-0.326,0.938,-0.192
42.84,-0.085,1.207,0.01
42.85,-0.222,0.767,0.165
42.86,-0.049,0.986,0.003
42.87,-0.396,0.937,-0.202
42.88,-0.105,1.117,-0.049
42.89,-0.111,0.924,0.114
42.9,-0.099,0.751,0.139
42.91,-0.373,1.133,-0.081
42.92,-0.263,0.856,-0.127
42.93,-0.199,1.287,0.067
42.94,-0.174,0.722,0.162
42.95,-0.116,0.984,-0.019
42.96,-0.468,1.028,-0.178
42.97,-0.2,1.005,0.025
42.98,-0.111,0.976,0.145
42.99,-0.107,0.743,0.105
43.0,-0.435,1.135,-0.16
43.01,-0.249,0.866,-0.057
43.02,-0.162,1.254,0.068
43.03,-0.134,0.682,0.121
43.04,-0.26,1.002,0.036
43.05,-0.386,1.052,-0.25
43.06,-0.121,0.899,0.061
43.07,-0.09,1.181,0.128
43.08,-0.197,0.624,0.088
43.09,-0.427,1.222,-0.176
43.1,-0.078,0.958,-0.103
43.11,-0.257,1.088,0.108
43.12,-0.087,0.792,0.195
43.13,-0.441,0.935,-0.093
43.14,-0.308,1.007,-0.193
43.15,0.008,0.99,0.111
43.16,-0.184,0.929,0.144
43.17,-0.21,0.722,0.065
43.18,-0.385,1.336,-0.179
43.19,-0.148,0.822,-0.039
43.2,-0.147,1.131,0.146
43.21,-0.075,0.727,0.08
43.22,-0.476,0.997,-0.175
43.23,-0.199,1.082,-0.078
43.24,-0.073,0.991,0.052
43.25,-0.169,0.909,0.118
43.26,-0.165,0.722,-0.032
43.27,-0.427,1.296,-0.241
43.28,-0.015,0.813,0.024
43.29,-0.158,1.156,0.181
43.3,-0.208,0.708,0.069
43.31,-0.419,1.025,-0.175
43.32,-0.017,1.232,-0.143
43.33,-0.108,0.808,0.085
43.34,-0.221,1.021,0.191
43.35,-0.25,0.744,-0.13
43.36,-0.35,1.22,-0.166
43.37,-0.005,0.903,0.1
43.38,-0.121,0.988,0.134
43.39,-0.315,0.846,0.053
43.4,-0.275,1.051,-0.216
43.41,-0.159,1.127,-0.077
43.42,-0.204,0.75,0.163
43.43,-0.037,1.077,0.128
43.44,-0.369,0.739,-0.19
43.45,-0.283,1.214,-0.059
43.46,-0.001,0.974,0.043
43.47,-0.166,0.826,0.142
43.48,-0.245,0.977,-0.009
43.49,-0.315,0.965,-0.221
43.5,-0.158,1.187,0.005
43.51,-0.011,0.808,0.15
43.52,-0.206,1.009,0.056
43.53,-0.354,0.846,-0.157
43.54,-0.143,1.187,-0.087
43.55,-0.188,0.86,0.112
43.56,-0.201,0.805,0.197
43.57,-0.257,1.112,-0.117
43.58,-0.308,0.836,-0.187
43.59,-0.143,1.26,0.12
43.6,-0.07,0.712,0.128
43.61,-0.294,0.989,0.027
43.62,-0.386,0.972,-0.145
43.63,-0.156,1.084,-0.054
43.64,-0.215,0.954,0.141
43.65,-0.04,0.768,0.15
43.66,-0.499,1.105,-0.16
43.67,-0.235,0.781,-0.072
43.68,0.014,1.353,0.006
43.69,-0.158,0.615,0.092
43.7,-0.156,1.042,0.052
43.71,-0.379,1.1,-0.242
43.72,-0.242,0.854,-0.034
43.73,-0.054,1.095,0.177
43.74,-0.134,0.677,0.104
43.75,-0.476,1.163,-0.186
43.76,-0.026,0.898,-0.083
43.77,-0.121,1.158,0.059
43.78,-0.219,0.707,0.248
43.79,-0.227,0.986,-0.089
43.8,-0.369,1.059,-0.213
43.81,-0.219,0.886,0.155
43.82,-0.049,1.178,0.094
43.83,-0.159,0.611,-0.006
43.84,-0.452,1.237,-0.133
43.85,-0.133,0.926,-0.073
43.86,-0.171,1.043,0.076
43.87,-0.087,0.848,0.211
43.88,-0.317,0.901,-0.182
43.89,-0.344,1.135,-0.146
43.9,-0.019,0.895,0.109
43.91,-0.153,1.069,0.097
43.92,-0.197,0.665,0.028
43.93,-0.381,1.352,-0.191
43.94,-0.127,0.878,-0.034
43.95,-0.236,0.971,0.214
43.96,-0.051,0.913,0.144
43.97,-0.413,0.85,-0.207
43.98,-0.176,1.134,-0.049
43.99,-0.114,0.935,0.06
44.0,-0.173,0.938,0.137
44.01,-0.168,0.744,-0.041
44.02,-0.447,1.311,-0.197
44.03,-0.087,0.829,0.022
44.04,-0.098,1.151,0.118
44.05,-0.14,0.743,0.067
44.06,-0.405,0.981,-0.178
44.07,-0.081,1.219,-0.101
44.08,-0.08,0.764,0.081
44.09,-0.223,1.04,0.196
44.1,-0.271,0.762,-0.087
44.11,-0.28,1.197,-0.211
44.12,-0.033,0.949,0.119
44.13,-0.139,0.966,0.157
44.14,-0.293,0.873,0.047
44.15,-0.348,1.002,-0.166
44.16,-0.139,1.229,-0.065
44.17,-0.171,0.714,0.142
44.18,-0.145,1.069,0.172
44.19,-0.269,0.742,-0.159
44.2,-0.355,1.145,-0.136
44.21,-0.006,1.043,0.076
44.22,-0.105,0.802,0.067
44.23,-0.254,0.947,0.052
44.24,-0.304,0.999,-0.216
44.25,-0.115,1.176,-0.066
44.26,-0.179,0.671,0.189
44.27,-0.137,1.045,0.105
44.28,-0.363,0.85,-0.181
44.29,-0.236,1.052,-0.099
44.3,0.016,1.109,0.065
44.31,-0.174,0.681,0.094
44.32,-0.362,1.048,0.019
44.33,-0.198,0.906,-0.245
44.34,-0.127,1.218,-0.021
44.35,-0.118,0.716,0.258
44.36,-0.178,0.982,0.059
44.37,-0.433,0.941,-0.219
44.38,-0.101,1.071,-0.06
44.39,-0.053,1.069,0.016
44.4,-0.276,0.665,0.205
44.41,-0.215,1.175,-0.073
44.42,-0.301,0.796,-0.162
44.43,-0.145,1.191,0.093
44.44,-0.013,0.84,0.142
44.45,-0.247,0.881,0.035
44.46,-0.395,1.016,-0.199
44.47,-0.081,0.979,-0.05
44.48,-0.173,1.092,0.087
44.49,-0.191,0.672,0.176
44.5,-0.288,1.202,-0.129
44.51,-0.309,0.835,-0.159
44.52,-0.159,1.14,0.125
44.53,-0.02,0.866,0.106
44.54,-0.266,0.792,-0.021
44.55,-0.323,1.164,-0.15
44.56,-0.121,0.932,-0.03
44.57,-0.247,1.078,0.093
44.58,-0.015,0.712,0.156
44.59,-0.481,1.193,-0.205
44.6,-0.289,0.845,-0.06
44.61,0.0,1.187,0.09
44.62,-0.142,0.808,0.141
44.63,-0.327,0.79,0.0
44.64,-0.266,1.29,-0.222
44.65,-0.039,0.777,-0.034
44.66,-0.273,1.203,0.212
44.67,-0.062,0.678,0.044
44.68,-0.473,1.087,-0.213
44.69,-0.129,1.016,-0.039
44.7,-0.074,1.066,0.09
44.71,-0.193,0.869,0.169
44.72,-0.229,0.801,-0.034
44.73,-0.343,1.275,-0.185
44.74,-0.114,0.808,0.079
44.75,-0.072,1.128,0.124
44.76,-0.187,0.69,0.033
44.77,-0.496,1.131,-0.119
44.78,-0.096,1.072,-0.074
44.79,-0.204,1.031,0.144
44.8,-0.067,0.88,0.122
44.81,-0.421,0.88,-0.18
44.82,-0.285,1.18,-0.03
44.83,0.006,0.937,0.093
44.84,-0.196,1.001,0.12
44.85,-0.248,0.745,0.033
44.86,-0.396,1.232,-0.201
44.87,-0.218,0.936,0.027
44.88,-0.003,1.037,0.158
44.89,-0.213,0.876,0.059
44.9,-0.458,0.823,-0.144
44.91,0.021,1.351,-0.069
44.92,-0.126,0.781,0.056
44.93,-0.217,0.992,0.193
44.94,-0.155,0.8,-0.094
44.95,-0.436,1.096,-0.221
44.96,-0.163,1.025,0.126
44.97,-0.079,0.918,0.104
44.98,-0.271,0.935,0.024
44.99,-0.331,0.889,-0.161
45.0,-0.065,1.316,-0.103
45.01,-0.169,0.672,0.101
45.02,-0.006,1.031,0.155
45.03,-0.345,0.907,-0.165
45.04,-0.419,1.011,-0.089
45.05,-0.05,1.105,0.056
45.06,-0.063,0.71,0.102
45.07,-0.394,1.104,0.042
45.08,-0.258,0.867,-0.207
45.09,-0.156,1.152,-0.052
45.1,-0.173,0.819,0.221
45.11,-0.108,0.959,0.077
45.12,-0.393,0.943,-0.208
45.13,-0.178,1.015,-0.029
45.14,-0.22,1.213,0.091
45.15,-0.099,0.602,0.145
45.16,-0.328,1.157,-0.005
45.17,-0.372,0.875,-0.203
45.18,-0.162,1.134,0.001
45.19,-0.024,0.895,0.187
45.2,-0.215,0.872,0.079
45.21,-0.383,1.046,-0.172
45.22,-0.035,0.984,-0.088
45.23,-0.203,1.137,0.094
45.24,-0.176,0.662,0.222
45.25,-0.368,1.112,-0.118
45.26,-0.257,0.821,-0.233
45.27,-0.134,1.159,0.103
45.28,-0.092,0.88,0.125
45.29,-0.264,0.778,0.011
45.3,-0.352,1.202,-0.115
45.31,-0.125,0.905,-0.016
45.32,-0.216,1.133,0.097
45.33,-0.077,0.695,0.169
45.34,-0.402,1.141,-0.169
45.35,-0.341,0.953,-0.077
45.36,0.007,1.136,0.065
45.37,-0.138,0.881,0.106
45.38,-0.271,0.748,0.05
45.39,-0.32,1.264,-0.252
45.4,-0.126,0.755,0.001
45.41,-0.204,1.173,0.166
45.42,-0.031,0.701,0.078
45.43,-0.51,1.074,-0.201
45.44,-0.099,1.031,-0.072
45.45,-0.131,1.023,0.093
45.46,-0.192,0.905,0.14
45.47,-0.233,0.769,-0.05
45.48,-0.381,1.26,-0.186
45.49,-0.069,0.829,0.041
45.5,-0.153,1.194,0.143
45.51,-0.083,0.677,0.015
45.52,-0.429,1.083,-0.171
45.53,-0.082,1.148,-0.065
45.54,-0.152,0.797,0.113
45.55,-0.207,0.994,0.176
45.56,-0.284,0.769,-0.121
45.57,-0.338,1.231,-0.146
45.58,-0.077,0.874,0.127
45.59,-0.116,1.03,0.103
45.6,-0.216,0.75,-0.016
45.61,-0.305,1.225,-0.192
45.62,-0.07,0.982,-0.005
45.63,-0.242,0.932,0.214
45.64,-0.103,0.956,0.064
45.65,-0.427,0.806,-0.241
45.66,-0.179,1.265,-0.008
45.67,-0.039,0.858,0.116
45.68,-0.263,0.954,0.097
45.69,-0.227,0.799,-0.066
45.7,-0.3,1.131,-0.188
45.71,-0.116,1.07,0.04
45.72,-0.008,0.844,0.145
45.73,-0.254,0.974,0.023
45.74,-0.421,0.808,-0.128
45.75,-0.064,1.301,-0.126
45.76,-0.061,0.706,0.079
45.77,-0.146,0.983,0.185
45.78,-0.309,0.93,-0.161
45.79,-0.329,0.99,-0.084
45.8,-0.003,1.171,0.094
45.81,-0.104,0.654,0.111
45.82,-0.341,1.094,0.034
45.83,-0.301,0.916,-0.186
45.84,-0.136,1.196,-0.074
45.85,-0.226,0.776,0.204
45.86,-0.072,0.896,0.082
45.87,-0.44,1.019,-0.236
45.88,-0.144,0.933,-0.065
45.89,-0.077,1.179,0.047
45.9,-0.195,0.596,0.157
45.91,-0.32,1.174,0.005
45.92,-0.288,0.893,-0.194
45.93,-0.185,1.119,0.08
45.94,-0.086,0.888,0.163
45.95,-0.163,0.806,-0.018
45.96,-0.44,1.139,-0.137
45.97,-0.126,0.912,-0.042
45.98,-0.151,1.162,0.084
45.99,-0.125,0.656,0.199
46.0,-0.408,1.096,-0.157
46.01,-0.274,0.897,-0.146
46.02,-0.06,1.176,0.074
46.03,-0.123,0.826,0.113
46.04,-0.231,0.771,0.031
46.05,-0.413,1.258,-0.232
46.06,-0.094,0.778,0.004
46.07,-0.205,1.206,0.147
46.08,-0.098,0.67,0.092
46.09,-0.436,1.09,-0.17
46.1,-0.222,1.051,-0.051
46.11,-0.089,1.033,0.088
46.12,-0.227,0.875,0.165
46.13,-0.153,0.789,-0.033
46.14,-0.43,1.283,-0.191
46.15,-0.215,0.794,0.087
46.16,-0.06,1.162,0.127
46.17,-0.109,0.67,0.016
46.18,-0.526,1.16,-0.141
46.19,-0.076,1.091,-0.129
46.2,-0.098,0.863,0.053
46.21,-0.157,0.978,0.197
46.22,-0.248,0.772,-0.14
46.23,-0.353,1.228,-0.15
46.24,-0.096,0.878,0.128
46.25,-0.153,1.028,0.122
46.26,-0.277,0.762,0.03
46.27,-0.327,1.145,-0.21
46.28,-0.152,1.077,-0.087
46.29,-0.163,0.824,0.207
46.3,-0.119,1.062,0.107
46.31,-0.328,0.708,-0.219
46.32,-0.252,1.269,-0.044
46.33,-0.064,0.901,0.071
46.34,-0.21,0.87,0.121
46.35,-0.182,0.918,0.006
46.36,-0.402,1.06,-0.234
46.37,-0.202,1.05,0.016
46.38,-0.016,0.853,0.186
46.39,-0.208,1.029,0.047
46.4,-0.387,0.761,-0.149
46.41,-0.05,1.293,-0.128
46.42,-0.044,0.699,0.034
46.43,-0.187,1.008,0.213
46.44,-0.313,0.885,-0.154
46.45,-0.267,0.969,-0.198
46.46,-0.054,1.174,0.095
46.47,-0.152,0.745,0.163
46.48,-0.313,1.044,0.041
46.49,-0.302,0.911,-0.171
46.5,-0.184,1.196,-0.025
46.51,-0.206,0.744,0.165
46.52,-0.067,0.973,0.098
46.53,-0.377,0.937,-0.185
46.54,-0.208,0.982,-0.047
46.55,-0.127,1.215,0.034
46.56,-0.09,0.569,0.113
46.57,-0.264,1.129,0.049
46.58,-0.38,0.941,-0.18
46.59,-0.154,1.128,-0.053
46.6,-0.095,0.881,0.144
46.61,-0.121,0.868,0.092
46.62,-0.396,1.017,-0.181
46.63,-0.121,0.986,-0.089
46.64,-0.152,1.14,0.071
46.65,-0.113,0.609,0.185
46.66,-0.308,1.166,-0.05
46.67,-0.332,0.847,-0.186
46.68,-0.123,1.159,0.12
46.69,-0.192,0.973,0.127
46.7,-0.161,0.769,0.03
46.71,-0.371,1.185,-0.163
46.72,-0.164,0.885,-0.142
46.73,-0.131,1.118,0.073
46.74,-0.068,0.726,0.189
46.75,-0.436,1.124,-0.119
46.76,-0.25,0.799,-0.158
46.77,-0.111,1.172,0.103
46.78,-0.101,0.971,0.135
46.79,-0.17,0.722,0.002
46.8,-0.46,1.274,-0.142
46.81,-0.084,0.878,-0.062
46.82,-0.233,1.117,0.128
46.83,-0.091,0.733,0.21
46.84,-0.427,1.06,-0.152
46.85,-0.256,0.937,-0.138
46.86,-0.002,1.125,0.05
46.87,-0.14,0.907,0.098
46.88,-0.244,0.688,0.084
46.89,-0.423,1.366,-0.213
46.9,-0.075,0.747,-0.069
46.91,-0.13,1.172,0.181
46.92,-0.086,0.735,0.114
46.93,-0.477,1.031,-0.21
46.94,-0.129,1.11,-0.069
46.95,-0.107,0.969,0.082
46.96,-0.225,0.961,0.147
46.97,-0.211,0.724,-0.036
46.98,-0.426,1.263,-0.204
46.99,-0.136,0.843,0.058
47.0,-0.095,1.173,0.123
47.01,-0.094,0.727,0.043
47.02,-0.508,0.958,-0.114
47.03,-0.117,1.181,-0.028
47.04,-0.144,0.837,0.099
47.05,-0.242,1.033,0.191
47.06,-0.223,0.727,-0.087
47.07,-0.399,1.213,-0.166
47.08,-0.059,0.896,0.113
47.09,-0.121,1.067,0.125
47.1,-0.159,0.781,0.005
47.11,-0.396,0.999,-0.156
47.12,-0.1,1.226,-0.072
47.13,-0.132,0.671,0.107
47.14,-0.155,1.07,0.184
47.15,-0.326,0.804,-0.166
47.16,-0.321,1.107,-0.11
47.17,-0.095,1.03,0.137
47.18,-0.123,0.872,0.095
47.19,-0.23,0.892,0.024
47.2,-0.312,1.009,-0.15
47.21,-0.157,1.256,-0.052
47.22,-0.136,0.666,0.143
47.23,-0.091,1.076,0.123
47.24,-0.437,0.746,-0.235
47.25,-0.14,1.238,-0.042
47.26,-0.068,0.916,0.12
47.27,-0.211,0.863,0.133
47.28,-0.202,0.951,-0.008
47.29,-0.346,0.992,-0.189
47.3,-0.172,1.128,0.012
47.31,-0.005,0.802,0.162
47.32,-0.279,1.025,0.008
47.33,-0.379,0.818,-0.166
47.34,-0.089,1.264,-0.08
47.35,-0.128,0.808,0.086
47.36,-0.221,0.861,0.236
47.37,-0.299,1.059,-0.114
47.38,-0.311,0.833,-0.187
47.39,-0.152,1.238,0.152
47.4,-0.065,0.718,0.159
47.41,-0.335,1.04,-0.016
47.42,-0.319,0.928,-0.159
47.43,-0.185,1.134,-0.036
47.44,-0.185,0.83,0.14
47.45,-0.04,0.844,0.127
47.46,-0.376,1.111,-0.22
47.47,-0.243,0.851,-0.061
47.48,-0.056,1.323,0.022
47.49,-0.102,0.637,0.086
47.5,-0.289,1.075,0.021
47.51,-0.261,0.99,-0.178
47.52,-0.208,1.04,-0.013
47.53,-0.131,0.974,0.175
47.54,-0.134,0.719,0.066
47.55,-0.429,1.149,-0.139
47.56,-0.119,0.913,-0.038
47.57,-0.167,1.212,0.071
47.58,-0.153,0.652,0.155
47.59,-0.269,1.058,-0.08
47.6,-0.311,0.982,-0.227
47.61,-0.076,1.024,0.088
47.62,-0.109,1.062,0.133
47.63,-0.118,0.65,0.029
47.64,-0.474,1.266,-0.181
47.65,-0.045,0.895,-0.067
47.66,-0.19,1.136,0.089
47.67,-0.14,0.75,0.16
47.68,-0.308,1.011,-0.145
47.69,-0.273,1.015,-0.169
47.7,-0.136,0.971,0.106
47.71,-0.126,1.07,0.132
47.72,-0.177,0.632,-0.05
47.73,-0.489,1.282,-0.172
47.74,-0.058,0.876,-0.034
47.75,-0.177,1.088,0.121
47.76,-0.127,0.828,0.14
47.77,-0.356,0.954,-0.17
47.78,-0.312,1.14,-0.104
47.79,-0.013,0.927,0.112
47.8,-0.148,1.032,0.116
47.81,-0.278,0.683,0.016
47.82,-0.348,1.314,-0.223
47.83,-0.064,0.866,-0.017
47.84,-0.205,1.019,0.19
47.85,-0.065,0.842,0.069
47.86,-0.472,0.917,-0.185
47.87,-0.226,1.213,-0.013
47.88,-0.012,0.839,0.102
47.89,-0.262,1.014,0.141
47.9,-0.244,0.742,-0.072
47.91,-0.327,1.246,-0.219
47.92,-0.115,0.899,0.079
47.93,-0.098,0.939,0.154
47.94,-0.208,0.917,-0.033
47.95,-0.387,0.853,-0.16
47.96,-0.104,1.267,-0.014
47.97,-0.105,0.745,0.168
47.98,-0.254,1.06,0.129
47.99,-0.219,0.783,-0.164
48.0,-0.342,1.112,-0.122
48.01,-0.107,1.042,0.16
48.02,-0.055,0.803,0.08
48.03,-0.37,0.968,-0.025
48.04,-0.272,0.912,-0.108
48.05,-0.188,1.296,-0.034
48.06,-0.178,0.684,0.264
48.07,-0.111,1.057,0.051
48.08,-0.466,0.796,-0.239
48.09,-0.113,1.248,-0.018
48.1,-0.063,0.972,0.105
48.11,-0.317,0.809,0.174
48.12,-0.195,1.013,-0.095
48.13,-0.326,0.909,-0.166
48.14,-0.215,1.218,0.123
48.15,-0.044,0.707,0.133
48.16,-0.235,0.985,-0.014
48.17,-0.4,0.943,-0.12
48.18,-0.095,1.141,-0.029
48.19,-0.202,0.857,0.08
48.2,-0.045,0.814,0.136
48.21,-0.391,1.095,-0.203
48.22,-0.295,0.869,-0.049
48.23,-0.072,1.294,0.06
48.24,-0.08,0.601,0.114
48.25,-0.309,1.065,0.002
48.26,-0.278,0.972,-0.261
48.27,-0.083,0.982,0.002
48.28,-0.129,1.021,0.185
48.29,-0.111,0.725,0.044
48.3,-0.452,1.19,-0.181
48.31,-0.138,0.905,-0.004
48.32,-0.114,1.171,0.077
48.33,-0.118,0.671,0.131
48.34,-0.291,1.094,-0.081
48.35,-0.263,1.006,-0.199
48.36,-0.153,0.999,0.109
48.37,-0.005,1.031,0.117
48.38,-0.244,0.655,-0.02
