t,ax,ay,az
0.0,-0.143,1.183,-0.012
0.01,-0.086,0.865,0.063
0.02,-0.239,1.009,0.176
0.03,-0.192,0.771,-0.075
0.04,-0.381,1.245,-0.164
0.05,-0.166,0.892,0.137
0.06,-0.069,1.057,0.109
0.07,-0.225,0.812,0.01
0.08,-0.07,0.961,0.079
0.09,-0.127,1.069,0.171
0.1,-0.254,0.631,0.045
0.11,-0.439,1.282,-0.188
0.12,-0.058,0.869,-0.071
0.13,-0.244,1.099,0.136
0.14,-0.146,0.79,0.176
0.15,-0.314,0.921,-0.197
0.16,-0.258,1.075,-0.155
0.17,-0.042,0.943,0.085
0.18,-0.163,1.034,0.099
0.19,-0.229,0.669,0.046
0.2,-0.418,1.33,-0.187
0.21,-0.018,0.871,-0.048
0.22,-0.278,1.044,0.172
0.23,-0.14,0.869,0.168
0.24,-0.394,0.891,-0.212
0.25,-0.233,1.127,-0.125
0.26,-0.071,0.925,0.145
0.27,-0.156,1.054,0.113
0.28,-0.258,0.654,-0.023
0.29,-0.33,1.273,-0.18
0.3,-0.094,0.913,-0.033
0.31,-0.188,0.935,0.185
0.32,-0.086,0.94,0.066
0.33,-0.386,0.853,-0.213
0.34,-0.234,1.265,-0.043
0.35,-0.122,0.893,0.118
0.36,-0.104,0.962,0.088
0.37,-0.253,0.781,-0.003
0.38,-0.359,1.21,-0.191
0.39,-0.204,0.978,0.009
0.4,-0.087,0.903,0.143
0.41,-0.189,0.991,0.04
0.42,-0.356,0.816,-0.218
0.43,-0.082,1.22,-0.1
0.44,-0.116,0.806,0.091
0.45,-0.202,1.042,0.19
0.46,-0.295,0.759,-0.124
0.47,-0.323,1.137,-0.149
0.48,-0.125,0.991,0.106
0.49,-0.079,0.977,0.151
0.5,-0.247,0.892,0.016
0.51,-0.429,0.957,-0.125
0.52,-0.191,1.229,-0.058
0.53,-0.11,0.72,0.106
0.54,-0.18,1.059,0.185
0.55,-0.265,0.815,-0.222
0.56,-0.283,1.102,-0.087
0.57,-0.115,1.043,0.135
0.58,-0.121,0.824,0.121
0.59,-0.269,0.968,-0.028
0.6,-0.292,0.963,-0.153
0.61,-0.169,1.22,-0.018
0.62,-0.224,0.717,0.19
0.63,-0.07,1.033,0.132
0.64,-0.377,0.865,-0.203
0.65,-0.338,1.026,-0.048
0.66,0.02,1.118,0.044
0.67,-0.196,0.707,0.122
0.68,-0.355,1.046,0.031
0.69,-0.199,0.944,-0.219
0.7,-0.202,1.222,-0.01
0.71,-0.184,0.704,0.225
0.72,-0.052,1.018,0.063
0.73,-0.413,0.924,-0.225
0.74,-0.224,0.987,-0.01
0.75,-0.051,1.119,0.025
0.76,-0.161,0.659,0.085
0.77,-0.343,1.119,0.003
0.78,-0.235,0.857,-0.213
0.79,-0.161,1.174,-0.008
0.8,-0.052,0.781,0.209
0.81,-0.224,0.921,0.06
0.82,-0.408,0.969,-0.253
0.83,-0.044,0.98,-0.018
0.84,-0.22,1.102,0.112
0.85,-0.182,0.626,0.151
0.86,-0.304,1.188,-0.121
0.87,-0.311,0.834,-0.155
0.88,-0.156,1.183,0.109
0.89,-0.067,0.855,0.149
0.9,-0.237,0.843,-0.016
0.91,-0.379,1.143,-0.195
0.92,-0.074,0.943,-0.058
0.93,-0.173,1.069,0.105
0.94,-0.101,0.699,0.161
0.95,-0.436,1.198,-0.194
0.96,-0.228,0.826,-0.166
0.97,-0.105,1.199,0.145
0.98,-0.142,0.846,0.152
0.99,-0.294,0.814,0.006
1.0,-0.374,1.233,-0.223
1.01,-0.075,0.824,0.001
1.02,-0.222,1.168,0.168
1.03,-0.093,0.672,0.104
1.04,-0.398,1.136,-0.225
1.05,-0.209,0.966,-0.081
1.06,0.002,1.065,0.071
1.07,-0.178,0.896,0.178
1.08,-0.293,0.768,-0.047
1.09,-0.334,1.283,-0.189
1.1,-0.088,0.842,0.042
1.11,-0.185,1.177,0.158
1.12,-0.064,0.651,0.025
1.13,-0.499,1.151,-0.201
1.14,-0.124,1.064,-0.022
1.15,-0.116,0.903,0.09
1.16,-0.249,0.95,0.122
1.17,-0.222,0.785,-0.1
1.18,-0.344,1.254,-0.174
1.19,-0.126,0.813,0.106
1.2,-0.07,1.122,0.108
1.21,-0.226,0.704,0.017
1.22,-0.439,1.112,-0.161
1.23,-0.055,1.146,-0.071
1.24,-0.16,0.816,0.096
1.25,-0.077,0.877,0.099
1.26,-0.413,0.91,-0.186
1.27,-0.245,1.225,-0.05
1.28,-0.018,0.857,0.046
1.29,-0.201,1.031,0.121
1.3,-0.24,0.745,-0.03
1.31,-0.326,1.19,-0.225
1.32,-0.09,0.975,0.009
1.33,-0.08,0.951,0.159
1.34,-0.167,0.937,0.026
1.35,-0.409,0.863,-0.166
1.36,-0.158,1.273,-0.062
1.37,-0.106,0.764,0.075
1.38,-0.219,0.986,0.152
1.39,-0.218,0.871,-0.125
1.4,-0.314,1.051,-0.155
1.41,-0.136,1.079,0.128
1.42,-0.058,0.831,0.177
1.43,-0.33,1.014,0.033
1.44,-0.316,0.928,-0.178
1.45,-0.131,1.235,-0.066
1.46,-0.181,0.726,0.146
1.47,-0.104,0.992,0.113
1.48,-0.35,0.85,-0.193
1.49,-0.27,1.004,-0.088
1.5,-0.057,1.164,0.048
1.51,-0.059,0.657,0.082
1.52,-0.334,1.084,0.046
1.53,-0.219,0.89,-0.243
1.54,-0.173,1.225,-0.018
1.55,-0.203,0.744,0.169
1.56,-0.046,0.935,0.067
1.57,-0.378,1.008,-0.241
1.58,-0.153,0.918,-0.058
1.59,-0.122,1.18,0.127
1.6,-0.143,0.647,0.137
1.61,-0.338,1.11,-0.019
1.62,-0.252,0.865,-0.255
1.63,-0.142,1.187,0.051
1.64,-0.145,0.905,0.118
1.65,-0.106,0.827,0.038
1.66,-0.404,1.141,-0.137
1.67,-0.166,0.957,-0.053
1.68,-0.17,1.095,0.06
1.69,-0.101,0.659,0.172
1.7,-0.389,1.154,-0.117
1.71,-0.31,0.822,-0.16
1.72,-0.106,1.136,0.062
1.73,-0.124,0.956,0.119
1.74,-0.182,0.73,0.013
1.75,-0.428,1.2,-0.163
1.76,-0.1,0.941,-0.072
1.77,-0.195,1.145,0.081
1.78,-0.181,0.651,0.191
1.79,-0.317,1.11,-0.177
1.8,-0.272,0.899,-0.14
1.81,-0.141,1.107,0.138
1.82,-0.166,0.927,0.147
1.83,-0.258,0.719,-0.019
1.84,-0.404,1.261,-0.214
1.85,-0.012,0.852,-0.041
1.86,-0.265,1.131,0.145
1.87,-0.031,0.706,0.103
1.88,-0.381,1.081,-0.206
1.89,-0.297,0.973,-0.078
1.9,-0.001,1.036,0.071
1.91,-0.163,0.947,0.149
1.92,-0.259,0.751,0.009
1.93,-0.345,1.314,-0.214
1.94,-0.089,0.8,0.013
1.95,-0.155,1.166,0.171
1.96,-0.135,0.745,0.12
1.97,-0.452,1.034,-0.152
1.98,-0.173,1.137,-0.067
1.99,-0.124,0.851,0.081
2.0,-0.186,1.025,0.14
2.01,-0.273,0.7,-0.08
2.02,-0.339,1.255,-0.175
2.03,-0.037,0.88,0.028
2.04,-0.129,1.089,0.153
2.05,-0.135,0.747,0.026
2.06,-0.439,1.219,-0.163
2.07,-0.098,1.012,-0.039
2.08,-0.122,0.868,0.113
2.09,-0.175,0.998,0.142
2.1,-0.295,0.809,-0.173
2.11,-0.253,1.181,-0.163
2.12,-0.117,0.912,0.16
2.13,-0.159,1.04,0.135
2.14,-0.255,0.73,0.003
2.15,-0.333,1.188,-0.189
2.16,-0.12,1.029,-0.024
2.17,-0.133,0.819,0.174
2.18,-0.178,1.052,0.116
2.19,-0.36,0.769,-0.197
2.2,-0.235,1.212,-0.082
2.21,-0.03,0.865,0.076
2.22,-0.194,0.937,0.137
2.23,-0.255,0.844,-0.049
2.24,-0.326,1.088,-0.211
2.25,-0.14,1.056,0.012
2.26,-0.085,0.841,0.202
2.27,-0.195,1.025,0.037
2.28,-0.36,0.791,-0.214
2.29,-0.124,1.316,-0.035
2.3,-0.162,0.798,0.105
2.31,-0.157,0.882,0.161
2.32,-0.249,0.984,-0.074
2.33,-0.445,0.954,-0.155
2.34,-0.18,1.173,0.102
2.35,-0.016,0.741,0.074
2.36,-0.309,1.021,-0.005
2.37,-0.326,0.917,-0.135
2.38,-0.151,1.204,-0.052
2.39,-0.128,0.737,0.14
2.4,-0.071,0.94,0.166
2.41,-0.42,1.033,-0.188
2.42,-0.245,0.818,-0.113
2.43,-0.026,1.305,0.125
2.44,-0.208,0.618,0.16
2.45,-0.296,1.054,0.007
2.46,-0.247,0.96,-0.219
2.47,-0.194,1.076,0.032
2.48,-0.149,0.912,0.146
2.49,-0.058,0.836,0.055
2.5,-0.46,1.116,-0.201
2.51,-0.117,0.864,-0.034
2.52,-0.156,1.239,0.129
2.53,-0.16,0.585,0.15
2.54,-0.361,1.104,0.003
2.55,-0.281,0.918,-0.219
2.56,-0.111,1.036,0.011
2.57,-0.126,1.018,0.199
2.58,-0.137,0.717,0.062
2.59,-0.378,1.205,-0.283
2.6,-0.078,0.872,-0.056
2.61,-0.212,1.13,0.151
2.62,-0.09,0.703,0.17
2.63,-0.414,1.058,-0.129
2.64,-0.264,0.94,-0.149
2.65,-0.062,1.078,0.118
2.66,-0.19,1.001,0.147
2.67,-0.228,0.682,-0.027
2.68,-0.352,1.34,-0.16
2.69,-0.149,0.866,-0.011
2.7,-0.202,1.092,0.196
2.71,-0.069,0.774,0.136
2.72,-0.479,1.038,-0.195
2.73,-0.187,1.069,-0.066
2.74,-0.133,0.976,0.106
2.75,-0.176,0.959,0.137
2.76,-0.237,0.736,-0.043
2.77,-0.371,1.284,-0.237
2.78,-0.139,0.834,-0.019
2.79,-0.103,1.088,0.161
2.8,-0.119,0.806,0.059
2.81,-0.391,1.007,-0.173
2.82,-0.185,1.205,-0.023
2.83,-0.136,0.794,0.1
2.84,-0.146,1.025,0.151
2.85,-0.264,0.776,-0.13
2.86,-0.353,1.19,-0.152
2.87,-0.089,0.97,0.108
2.88,-0.189,1.055,0.134
2.89,-0.189,0.693,0.036
2.9,-0.417,1.188,-0.139
2.91,-0.14,1.059,-0.055
2.92,-0.161,0.809,0.134
2.93,-0.181,1.024,0.157
2.94,-0.367,0.782,-0.183
2.95,-0.25,1.235,-0.082
2.96,-0.028,0.944,0.087
2.97,-0.202,0.923,0.123
2.98,-0.235,0.833,-0.008
2.99,-0.336,1.112,-0.216
3.0,-0.089,1.087,-0.014
3.01,-0.109,0.8,0.225
3.02,-0.221,1.016,0.065
3.03,-0.315,0.796,-0.232
3.04,-0.182,1.297,-0.073
3.05,-0.008,0.779,0.063
3.06,-0.229,0.92,0.182
3.07,-0.323,0.952,-0.06
3.08,-0.348,0.939,-0.161
3.09,-0.128,1.207,0.062
3.1,-0.001,0.777,0.131
3.11,-0.251,1.038,-0.022
3.12,-0.347,0.869,-0.199
3.13,-0.082,1.212,-0.09
3.14,-0.086,0.807,0.126
3.15,-0.175,0.871,0.171
3.16,-0.343,1.06,-0.179
3.17,-0.234,0.857,-0.136
3.18,-0.168,1.275,0.137
3.19,-0.095,0.622,0.141
3.2,-0.3,1.057,-0.055
3.21,-0.273,0.918,-0.17
3.22,-0.144,1.113,0.031
3.23,-0.188,0.888,0.176
3.24,-0.163,0.79,0.091
3.25,-0.387,1.142,-0.214
3.26,-0.127,0.854,-0.059
3.27,-0.136,1.204,0.106
3.28,-0.082,0.669,0.158
3.29,-0.305,1.065,-0.069
3.3,-0.336,0.922,-0.166
3.31,-0.11,1.084,0.075
3.32,-0.11,1.009,0.133
3.33,-0.232,0.68,0.022
3.34,-0.427,1.266,-0.198
3.35,-0.079,0.875,-0.053
3.36,-0.115,1.158,0.112
3.37,-0.098,0.704,0.191
3.38,-0.34,0.998,-0.16
3.39,-0.255,0.972,-0.159
3.4,-0.049,1.066,0.101
3.41,-0.185,0.991,0.097
3.42,-0.167,0.673,0.012
3.43,-0.485,1.33,-0.184
3.44,-0.092,0.849,-0.009
3.45,-0.112,1.114,0.099
3.46,-0.06,0.744,0.085
3.47,-0.493,0.984,-0.138
3.48,-0.19,1.131,-0.101
3.49,0.003,0.944,0.062
3.5,-0.229,0.999,0.154
3.51,-0.197,0.722,-0.025
3.52,-0.323,1.28,-0.249
3.53,-0.129,0.812,0.041
3.54,-0.106,1.1,0.208
3.55,-0.158,0.803,0.022
3.56,-0.4,0.969,-0.18
3.57,-0.104,1.236,-0.033
3.58,-0.179,0.801,0.12
3.59,-0.227,0.995,0.137
3.6,-0.191,0.763,-0.163
3.61,-0.312,1.202,-0.144
3.62,-0.13,0.97,0.13
3.63,-0.082,0.943,0.145
3.64,-0.295,0.875,0.034
3.65,-0.293,1.006,-0.217
3.66,-0.032,1.216,-0.108
3.67,-0.198,0.741,0.167
3.68,-0.146,1.046,0.114
3.69,-0.371,0.778,-0.197
3.7,-0.262,1.277,-0.096
3.71,-0.042,0.84,0.063
3.72,-0.102,0.912,0.119
3.73,-0.279,0.865,-0.005
3.74,-0.327,1.031,-0.204
3.75,-0.139,1.15,0.064
3.76,-0.178,0.842,0.182
3.77,-0.125,0.99,0.02
3.78,-0.35,0.857,-0.194
3.79,-0.139,1.274,-0.11
3.8,-0.063,0.774,0.096
3.81,-0.27,0.895,0.19
3.82,-0.304,0.97,-0.097
3.83,-0.279,0.927,-0.162
3.84,-0.098,1.218,0.112
3.85,-0.138,0.72,0.189
3.86,-0.25,1.024,-0.001
3.87,-0.403,0.872,-0.15
3.88,-0.138,1.2,-0.028
3.89,-0.136,0.823,0.109
3.9,-0.174,0.846,0.21
3.91,-0.358,1.087,-0.175
3.92,-0.317,0.845,-0.127
3.93,-0.061,1.263,0.095
3.94,-0.117,0.632,0.118
3.95,-0.413,1.017,0.035
3.96,-0.159,0.941,-0.231
3.97,-0.092,1.102,-0.082
3.98,-0.086,0.754,0.197
3.99,-0.127,0.953,0.054
4.0,-0.446,1.018,-0.199
4.01,-0.114,0.992,-0.06
4.02,-0.121,1.148,0.078
4.03,-0.223,0.618,0.195
4.04,-0.355,1.115,-0.017
4.05,-0.255,0.893,-0.217
4.06,-0.132,1.137,0.065
4.07,-0.122,0.833,0.174
4.08,-0.167,0.862,0.006
4.09,-0.459,1.156,-0.178
4.1,-0.134,0.884,-0.012
4.11,-0.193,1.145,0.084
4.12,-0.081,0.661,0.148
4.13,-0.438,1.094,-0.095
4.14,-0.259,0.877,-0.108
4.15,-0.085,1.202,0.069
4.16,-0.08,0.824,0.095
4.17,-0.232,0.779,0.016
4.18,-0.389,1.275,-0.218
4.19,-0.065,0.807,-0.075
4.2,-0.224,1.212,0.188
4.21,-0.084,0.685,0.093
4.22,-0.436,1.088,-0.173
4.23,-0.209,1.0,-0.073
4.24,-0.079,1.057,0.103
4.25,-0.151,0.876,0.122
4.26,-0.279,0.782,0.01
4.27,-0.366,1.264,-0.194
4.28,-0.06,0.859,0.023
4.29,-0.199,1.22,0.184
4.3,-0.128,0.679,0.065
4.31,-0.414,1.118,-0.176
4.32,-0.19,1.107,-0.084
4.33,-0.119,0.902,0.104
4.34,-0.062,0.96,0.108
4.35,-0.292,0.777,-0.054
4.36,-0.396,1.197,-0.158
4.37,-0.03,0.855,0.061
4.38,-0.147,1.182,0.108
4.39,-0.151,0.691,0.034
4.4,-0.367,1.084,-0.188
4.41,-0.161,1.195,-0.094
4.42,-0.143,0.737,0.116
4.43,-0.168,1.026,0.163
4.44,-0.332,0.768,-0.171
4.45,-0.283,1.177,-0.172
4.46,-0.007,0.947,0.079
4.47,-0.182,0.966,0.144
4.48,-0.194,0.846,0.02
4.49,-0.356,1.067,-0.144
4.5,-0.215,1.122,-0.038
4.51,-0.091,0.935,0.14
4.52,-0.137,0.998,0.061
4.53,-0.355,0.728,-0.182
4.54,-0.115,1.295,-0.123
4.55,-0.017,0.878,0.07
4.56,-0.192,0.915,0.136
4.57,-0.137,0.83,-0.03
4.58,-0.386,1.159,-0.189
4.59,-0.067,0.974,0.0
4.6,-0.083,0.859,0.176
4.61,-0.269,1.016,0.081
4.62,-0.366,0.795,-0.159
4.63,-0.259,1.307,-0.062
4.64,-0.022,0.787,0.077
4.65,-0.166,0.924,0.126
4.66,-0.253,0.942,-0.068
4.67,-0.361,0.969,-0.133
4.68,-0.178,1.155,0.061
4.69,-0.028,0.806,0.13
4.7,-0.211,1.035,-0.011
4.71,-0.422,0.842,-0.129
4.72,-0.237,1.219,-0.046
4.73,-0.037,0.794,0.074
4.74,-0.236,0.9,0.162
4.75,-0.258,0.959,-0.162
4.76,-0.258,0.902,-0.162
4.77,-0.163,1.207,0.085
4.78,0.031,0.684,0.08
4.79,-0.287,1.087,-0.016
4.8,-0.392,0.878,-0.123
4.81,-0.118,1.133,-0.052
4.82,-0.251,0.848,0.125
4.83,-0.069,0.853,0.138
4.84,-0.367,1.083,-0.148
4.85,-0.276,0.865,-0.096
4.86,-0.08,1.271,0.068
4.87,-0.03,0.619,0.12
4.88,-0.348,1.057,0.034
4.89,-0.344,0.977,-0.175
4.9,-0.075,1.046,-0.086
4.91,-0.14,0.928,0.162
4.92,-0.163,0.78,0.144
4.93,-0.438,1.169,-0.198
4.94,-0.236,0.803,-0.045
4.95,-0.036,1.271,0.079
4.96,-0.145,0.646,0.13
4.97,-0.34,0.99,-0.022
4.98,-0.291,1.015,-0.223
4.99,-0.112,0.979,0.026
5.0,-0.169,1.052,0.153
5.01,-0.083,0.707,0.015
5.02,-0.425,1.191,-0.213
5.03,-0.104,0.887,-0.005
5.04,-0.125,1.205,0.105
5.05,-0.168,0.689,0.104
5.06,-0.25,0.989,-0.067
5.07,-0.27,1.096,-0.192
5.08,-0.187,0.955,0.113
5.09,-0.074,1.06,0.154
5.1,-0.209,0.69,0.016
5.11,-0.57,1.263,-0.164
5.12,-0.015,0.843,-0.074
5.13,-0.111,1.133,0.107
5.14,-0.194,0.762,0.159
5.15,-0.354,0.92,-0.173
5.16,-0.211,1.106,-0.151
5.17,-0.118,0.995,0.081
5.18,-0.129,1.039,0.111
5.19,-0.248,0.673,-0.012
5.2,-0.395,1.276,-0.156
5.21,-0.109,0.901,0.023
5.22,-0.161,1.035,0.121
5.23,-0.103,0.887,0.092
5.24,-0.369,0.908,-0.16
5.25,-0.332,1.202,-0.02
5.26,-0.069,0.896,0.11
5.27,-0.114,0.998,0.104
5.28,-0.253,0.731,0.016
5.29,-0.388,1.22,-0.199
5.3,-0.181,0.899,0.033
5.31,-0.061,0.99,0.159
5.32,-0.129,0.752,-0.009
5.33,-0.408,1.056,-0.162
5.34,-0.145,1.128,-0.096
5.35,-0.047,0.806,0.087
5.36,-0.17,1.03,0.125
5.37,-0.326,0.734,-0.084
5.38,-0.249,1.285,-0.136
5.39,-0.14,0.969,0.075
5.4,-0.135,0.878,0.129
5.41,-0.194,0.877,0.046
5.42,-0.365,1.08,-0.203
5.43,-0.149,1.121,-0.025
5.44,-0.104,0.764,0.134
5.45,-0.159,1.069,0.115
5.46,-0.323,0.774,-0.155
5.47,-0.219,1.199,-0.104
5.48,-0.128,0.964,0.093
5.49,-0.138,0.83,0.194
5.5,-0.277,0.972,-0.008
5.51,-0.351,0.999,-0.216
5.52,-0.105,1.118,-0.005
5.53,-0.058,0.788,0.137
5.54,-0.158,1.033,0.057
5.55,-0.353,0.821,-0.17
5.56,-0.194,1.166,-0.049
5.57,-0.043,0.958,0.073
5.58,-0.178,0.748,0.161
5.59,-0.305,1.054,-0.036
5.6,-0.277,0.868,-0.184
5.61,-0.187,1.223,0.059
5.62,-0.079,0.756,0.202
5.63,-0.166,0.974,0.023
5.64,-0.418,0.932,-0.23
5.65,-0.055,1.075,-0.053
5.66,-0.14,1.006,0.097
5.67,-0.186,0.704,0.173
5.68,-0.267,1.151,-0.1
5.69,-0.358,0.853,-0.151
5.7,-0.17,1.208,0.121
5.71,-0.08,0.771,0.117
5.72,-0.252,0.928,-0.048
5.73,-0.355,1.048,-0.147
5.74,-0.06,1.028,-0.069
5.75,-0.196,0.958,0.103
5.76,-0.062,0.736,0.194
5.77,-0.369,1.163,-0.198
5.78,-0.305,0.772,-0.117
5.79,-0.05,1.302,0.151
5.8,-0.101,0.728,0.098
5.81,-0.359,0.909,-0.012
5.82,-0.311,1.129,-0.162
5.83,-0.107,0.917,-0.006
5.84,-0.221,1.073,0.152
5.85,-0.03,0.702,0.117
5.86,-0.467,1.186,-0.185
5.87,-0.267,0.865,-0.008
5.88,-0.043,1.178,0.067
5.89,-0.135,0.777,0.106
5.9,-0.296,0.893,-0.017
5.91,-0.332,1.194,-0.173
5.92,-0.144,0.825,0.03
5.93,-0.093,1.105,0.161
5.94,-0.162,0.682,0.029
5.95,-0.39,1.221,-0.233
5.96,-0.082,0.94,-0.043
5.97,-0.193,1.03,0.126
5.98,-0.135,0.879,0.115
5.99,-0.324,0.855,-0.107
6.0,-0.32,1.151,-0.165
6.01,-0.088,0.887,0.106
6.02,-0.142,1.116,0.159
6.03,-0.19,0.647,0.005
6.04,-0.402,1.218,-0.201
6.05,-0.097,1.038,-0.057
6.06,-0.133,0.881,0.13
6.07,-0.154,0.98,0.114
6.08,-0.313,0.822,-0.171
6.09,-0.309,1.234,-0.07
6.1,-0.08,0.907,0.127
6.11,-0.145,1.042,0.117
6.12,-0.189,0.736,-0.073
6.13,-0.386,1.142,-0.133
6.14,-0.126,0.899,0.02
6.15,-0.193,1.005,0.225
6.16,-0.134,0.863,0.076
6.17,-0.485,0.9,-0.195
6.18,-0.182,1.214,-0.031
6.19,-0.036,0.856,0.112
6.2,-0.315,1.029,0.18
6.21,-0.16,0.75,-0.126
6.22,-0.295,1.209,-0.162
6.23,-0.136,0.97,0.103
6.24,-0.069,0.866,0.127
6.25,-0.258,0.96,0.015
6.26,-0.412,0.964,-0.128
6.27,-0.186,1.234,-0.03
6.28,-0.119,0.738,0.118
6.29,-0.124,1.051,0.128
6.3,-0.302,0.815,-0.193
6.31,-0.283,1.104,-0.124
6.32,0.07,1.053,0.104
6.33,-0.181,0.726,0.15
6.34,-0.307,1.045,0.0
6.35,-0.245,0.931,-0.192
6.36,-0.22,1.217,-0.008
6.37,-0.131,0.744,0.216
6.38,-0.073,0.988,0.058
6.39,-0.454,0.906,-0.172
6.4,-0.182,1.053,-0.082
6.41,-0.093,1.046,0.058
6.42,-0.218,0.685,0.174
6.43,-0.327,1.104,-0.064
6.44,-0.231,0.839,-0.238
6.45,-0.123,1.221,0.055
6.46,-0.107,0.774,0.15
6.47,-0.231,0.909,0.041
6.48,-0.395,1.024,-0.221
6.49,-0.053,1.0,-0.064
6.5,-0.167,1.055,0.132
6.51,-0.189,0.7,0.191
6.52,-0.358,1.16,-0.15
6.53,-0.205,0.825,-0.191
6.54,-0.091,1.214,0.165
6.55,-0.129,0.754,0.148
6.56,-0.384,0.894,0.027
6.57,-0.326,1.145,-0.174
6.58,-0.152,0.902,-0.026
6.59,-0.148,1.062,0.14
6.6,-0.081,0.7,0.064
6.61,-0.451,1.169,-0.2
6.62,-0.155,0.924,-0.045
6.63,-0.116,1.143,0.102
6.64,-0.196,0.789,0.167
6.65,-0.224,0.865,-0.071
6.66,-0.384,1.169,-0.175
6.67,-0.132,0.852,0.075
6.68,-0.066,1.184,0.095
6.69,-0.162,0.635,-0.003
6.7,-0.392,1.236,-0.189
6.71,-0.09,0.994,-0.126
6.72,-0.151,0.901,0.118
6.73,-0.138,0.925,0.167
6.74,-0.331,0.805,-0.153
6.75,-0.268,1.155,-0.152
6.76,-0.016,0.931,0.055
6.77,-0.167,1.044,0.109
6.78,-0.192,0.688,-0.002
6.79,-0.376,1.225,-0.203
6.8,-0.101,0.996,-0.026
6.81,-0.106,0.897,0.165
6.82,-0.206,0.991,0.135
6.83,-0.351,0.777,-0.162
6.84,-0.251,1.25,-0.114
6.85,-0.005,0.872,0.082
6.86,-0.193,0.952,0.103
6.87,-0.238,0.791,-0.012
6.88,-0.339,1.127,-0.225
6.89,-0.096,1.009,-0.024
6.9,-0.025,0.864,0.193
6.91,-0.235,1.015,0.062
6.92,-0.371,0.81,-0.173
6.93,-0.153,1.301,-0.1
6.94,-0.11,0.789,0.121
6.95,-0.158,1.049,0.178
6.96,-0.288,0.787,-0.123
6.97,-0.321,1.13,-0.153
6.98,-0.009,1.032,0.073
6.99,-0.095,0.786,0.113
7.0,-0.267,0.992,0.051
7.01,-0.345,0.943,-0.222
7.02,-0.133,1.192,-0.028
7.03,-0.164,0.762,0.168
7.04,-0.115,1.023,0.074
7.05,-0.335,0.86,-0.197
7.06,-0.245,1.089,-0.032
7.07,-0.138,1.039,0.092
7.08,-0.157,0.676,0.158
7.09,-0.288,1.077,-0.012
7.1,-0.291,0.884,-0.223
7.11,-0.125,1.212,0.045
7.12,-0.167,0.797,0.161
7.13,-0.127,0.956,0.026
7.14,-0.379,1.018,-0.22
7.15,-0.163,0.991,-0.05
7.16,-0.084,1.053,0.105
7.17,-0.182,0.694,0.119
7.18,-0.296,1.14,-0.063
7.19,-0.287,0.812,-0.183
7.2,-0.167,1.219,0.127
7.21,-0.087,0.787,0.142
7.22,-0.247,0.871,0.011
7.23,-0.401,1.079,-0.167
7.24,-0.056,0.985,-0.061
7.25,-0.155,1.048,0.136
7.26,-0.13,0.683,0.199
7.27,-0.415,1.204,-0.158
7.28,-0.285,0.822,-0.154
7.29,-0.013,1.223,0.073
7.3,-0.126,0.815,0.09
7.31,-0.279,0.839,-0.022
7.32,-0.324,1.204,-0.21
7.33,-0.075,0.924,0.014
7.34,-0.229,1.121,0.17
7.35,-0.025,0.65,0.06
7.36,-0.446,1.216,-0.187
7.37,-0.26,0.936,0.003
7.38,-0.052,1.103,0.087
7.39,-0.202,0.859,0.102
7.4,-0.232,0.813,-0.025
7.41,-0.304,1.212,-0.187
7.42,-0.141,0.844,0.08
7.43,-0.171,1.166,0.158
7.44,-0.054,0.626,0.004
7.45,-0.506,1.174,-0.188
7.46,-0.031,1.028,-0.059
7.47,-0.126,1.018,0.113
7.48,-0.237,0.875,0.15
7.49,-0.219,0.776,-0.113
7.5,-0.292,1.277,-0.14
7.51,-0.104,0.838,0.134
7.52,-0.168,1.057,0.143
7.53,-0.233,0.669,-0.024
7.54,-0.419,1.163,-0.116
7.55,-0.113,1.068,-0.009
7.56,-0.175,0.833,0.141
7.57,-0.141,1.039,0.129
7.58,-0.352,0.763,-0.213
7.59,-0.266,1.224,-0.068
7.6,0.0,0.909,0.062
7.61,-0.167,0.911,0.132
7.62,-0.271,0.833,0.004
7.63,-0.328,1.082,-0.179
7.64,-0.219,1.074,0.013
7.65,-0.037,0.819,0.151
7.66,-0.162,1.031,0.02
7.67,-0.426,0.841,-0.141
7.68,-0.161,1.274,-0.055
7.69,-0.087,0.812,0.049
7.7,-0.17,0.941,0.232
7.71,-0.294,0.956,-0.117
7.72,-0.308,0.925,-0.132
7.73,-0.164,1.201,0.092
7.74,-0.084,0.727,0.137
7.75,-0.248,1.071,0.035
7.76,-0.408,0.889,-0.195
7.77,-0.142,1.204,-0.012
7.78,-0.111,0.798,0.168
7.79,-0.165,0.973,0.103
7.8,-0.329,0.899,-0.185
7.81,-0.215,1.087,-0.113
7.82,-0.125,1.105,0.084
7.83,-0.089,0.674,0.155
7.84,-0.291,1.1,-0.045
7.85,-0.384,0.863,-0.186
7.86,-0.082,1.181,0.054
7.87,-0.118,0.862,0.146
7.88,-0.123,0.917,0.046
7.89,-0.36,0.998,-0.195
7.9,-0.175,0.988,-0.074
7.91,-0.142,1.107,0.102
7.92,-0.122,0.661,0.098
7.93,-0.336,1.124,-0.063
7.94,-0.31,0.815,-0.185
7.95,-0.12,1.218,0.11
7.96,-0.15,0.845,0.166
7.97,-0.245,0.871,0.021
7.98,-0.37,1.171,-0.205
7.99,-0.152,0.927,-0.038
8.0,-0.23,1.116,0.157
8.01,-0.023,0.667,0.152
8.02,-0.478,1.147,-0.157
8.03,-0.23,0.884,-0.099
8.04,-0.067,1.201,0.042
8.05,-0.169,0.788,0.142
8.06,-0.223,0.806,0.038
8.07,-0.419,1.257,-0.219
8.08,-0.089,0.824,0.015
8.09,-0.179,1.202,0.14
8.1,-0.134,0.633,0.103
8.11,-0.447,1.153,-0.159
8.12,-0.171,1.045,-0.064
8.13,-0.132,0.999,0.071
8.14,-0.15,0.865,0.166
8.15,-0.263,0.799,-0.09
8.16,-0.39,1.207,-0.181
8.17,-0.072,0.857,0.067
8.18,-0.131,1.137,0.124
8.19,-0.105,0.675,0.061
8.2,-0.432,1.164,-0.231
8.21,-0.123,1.061,-0.125
8.22,-0.161,0.821,0.119
8.23,-0.145,1.037,0.159
8.24,-0.301,0.75,-0.167
8.25,-0.287,1.182,-0.145
8.26,-0.021,0.948,0.092
8.27,-0.228,1.007,0.155
8.28,-0.211,0.746,0.023
8.29,-0.384,1.175,-0.201
8.3,-0.083,1.053,-0.085
8.31,-0.138,0.828,0.22
8.32,-0.209,1.037,0.096
8.33,-0.332,0.776,-0.201
8.34,-0.195,1.275,-0.064
8.35,-0.088,0.927,0.071
8.36,-0.102,0.85,0.129
8.37,-0.238,0.936,-0.007
8.38,-0.48,1.04,-0.234
8.39,-0.155,1.048,0.016
8.4,-0.036,0.885,0.172
8.41,-0.227,1.015,0.03
8.42,-0.104,1.146,0.109
8.43,-0.119,0.726,0.103
8.44,-0.241,1.011,0.001
8.45,-0.327,0.941,-0.149
8.46,-0.169,1.174,-0.059
8.47,-0.116,0.703,0.209
8.48,-0.18,1.021,0.11
8.49,-0.371,0.901,-0.205
8.5,-0.227,1.003,-0.018
8.51,-0.085,1.156,0.077
8.52,-0.221,0.758,0.189
8.53,-0.25,1.065,-0.084
8.54,-0.388,0.885,-0.186
8.55,-0.123,1.208,0.046
8.56,-0.039,0.82,0.143
8.57,-0.233,0.976,0.026
8.58,-0.339,0.935,-0.195
8.59,-0.082,1.14,-0.104
8.6,-0.162,0.917,0.092
8.61,-0.152,0.713,0.188
8.62,-0.413,1.105,-0.14
8.63,-0.284,0.799,-0.135
8.64,-0.104,1.325,0.099
8.65,-0.115,0.707,0.111
8.66,-0.277,0.928,0.02
8.67,-0.344,1.065,-0.189
8.68,-0.102,1.005,-0.025
8.69,-0.21,1.059,0.172
8.7,-0.145,0.703,0.117
8.71,-0.452,1.141,-0.184
8.72,-0.236,0.892,-0.082
8.73,-0.107,1.265,0.102
8.74,-0.103,0.612,0.098
8.75,-0.267,0.983,-0.02
8.76,-0.387,1.124,-0.154
8.77,-0.105,0.876,0.002
8.78,-0.109,1.134,0.114
8.79,-0.095,0.654,0.063
8.8,-0.453,1.244,-0.148
8.81,-0.222,0.944,-0.027
8.82,-0.183,1.073,0.103
8.83,-0.086,0.769,0.137
8.84,-0.328,0.921,-0.048
8.85,-0.347,1.097,-0.189
8.86,-0.045,0.874,0.071
8.87,-0.142,1.212,0.096
8.88,-0.121,0.594,0.029
8.89,-0.429,1.275,-0.204
8.9,-0.08,0.97,-0.088
8.91,-0.145,0.967,0.1
8.92,-0.15,0.855,0.183
8.93,-0.336,0.814,-0.162
8.94,-0.265,1.176,-0.18
8.95,-0.038,0.894,0.13
8.96,-0.199,1.077,0.115
8.97,-0.12,0.659,0.012
8.98,-0.422,1.272,-0.193
8.99,-0.119,0.957,-0.057
9.0,-0.167,0.877,0.126
9.01,-0.079,0.999,0.112
9.02,-0.374,0.805,-0.203
9.03,-0.277,1.252,-0.08
9.04,-0.001,0.892,0.105
9.05,-0.201,0.978,0.142
9.06,-0.275,0.779,-0.018
9.07,-0.3,1.152,-0.219
9.08,-0.125,1.022,-0.001
9.09,-0.165,0.843,0.187
9.1,-0.097,1.0,0.028
9.11,-0.409,0.849,-0.173
9.12,-0.204,1.266,-0.03
9.13,-0.123,0.794,0.147
9.14,-0.22,0.969,0.196
9.15,-0.254,0.884,-0.121
9.16,-0.292,1.022,-0.151
9.17,-0.161,1.144,0.101
9.18,-0.086,0.796,0.119
9.19,-0.223,1.022,0.002
9.2,-0.422,0.895,-0.181
9.21,-0.149,1.244,-0.052
9.22,-0.119,0.78,0.145
9.23,-0.195,0.937,0.18
9.24,-0.328,0.964,-0.161
9.25,-0.234,0.917,-0.15
9.26,-0.059,1.215,0.098
9.27,-0.081,0.657,0.183
9.28,-0.345,1.05,-0.004
9.29,-0.33,0.889,-0.159
9.3,-0.145,1.197,0.036
9.31,-0.218,0.803,0.145
9.32,-0.104,0.864,0.092
9.33,-0.397,1.115,-0.179
9.34,-0.125,1.024,-0.062
9.35,-0.142,1.055,0.147
9.36,-0.195,0.688,0.126
9.37,-0.308,1.14,-0.105
9.38,-0.219,0.845,-0.207
9.39,-0.097,1.223,0.116
9.4,-0.106,0.742,0.142
9.41,-0.248,0.935,-0.032
9.42,-0.423,1.048,-0.174
9.43,-0.108,0.974,-0.008
9.44,-0.167,1.083,0.111
9.45,-0.077,0.691,0.15
9.46,-0.448,1.168,-0.159
9.47,-0.247,0.877,-0.112
9.48,-0.059,1.233,0.113
9.49,-0.159,0.76,0.143
9.5,-0.269,0.872,-0.021
9.51,-0.383,1.191,-0.199
9.52,-0.119,0.883,0.001
9.53,-0.207,1.154,0.179
9.54,-0.102,0.657,0.078
9.55,-0.506,1.206,-0.182
9.56,-0.144,0.916,-0.026
9.57,-0.117,1.075,0.099
9.58,-0.155,0.823,0.163
9.59,-0.289,0.825,-0.056
9.6,-0.331,1.221,-0.171
9.61,-0.142,0.881,0.17
9.62,-0.175,1.144,0.151
9.63,-0.15,0.638,-0.012
9.64,-0.46,1.252,-0.181
9.65,-0.051,0.954,-0.092
9.66,-0.118,0.939,0.107
9.67,-0.108,0.953,0.108
9.68,-0.324,0.821,-0.168
9.69,-0.31,1.249,-0.103
9.7,-0.039,0.881,0.061
9.71,-0.165,1.02,0.108
9.72,-0.175,0.698,-0.016
9.73,-0.423,1.218,-0.164
9.74,-0.131,0.987,-0.011
9.75,-0.183,0.883,0.168
9.76,-0.159,1.001,0.058
9.77,-0.3,0.757,-0.228
9.78,-0.234,1.293,-0.058
9.79,0.017,0.872,0.07
9.8,-0.202,0.94,0.134
9.81,-0.261,0.808,-0.019
9.82,-0.293,1.134,-0.23
9.83,-0.064,1.096,-0.008
9.84,-0.115,0.799,0.197
9.85,-0.26,0.991,0.0
9.86,-0.349,0.812,-0.19
9.87,-0.107,1.27,-0.072
9.88,-0.132,0.715,0.102
9.89,-0.201,0.929,0.145
9.9,-0.241,0.974,-0.14
9.91,-0.349,0.949,-0.103
9.92,-0.102,1.177,0.11
9.93,-0.057,0.701,0.102
9.94,-0.312,1.067,-0.002
9.95,-0.365,0.899,-0.151
9.96,-0.135,1.182,-0.074
9.97,-0.08,0.775,0.132
9.98,-0.126,0.916,0.116
9.99,-0.409,1.057,-0.173
10.0,-0.232,0.866,-0.076
10.01,-0.068,1.24,0.096
10.02,-0.111,0.601,0.145
10.03,-0.359,1.087,-0.002
10.04,-0.264,0.942,-0.229
10.05,-0.147,1.08,-0.021
10.06,-0.126,0.903,0.183
10.07,-0.081,0.769,0.018
10.08,-0.392,1.127,-0.245
10.09,-0.042,0.904,-0.028
10.1,-0.174,1.149,0.109
10.11,-0.174,0.66,0.18
10.12,-0.354,1.082,-0.132
10.13,-0.34,0.936,-0.141
10.14,-0.091,1.123,0.109
10.15,-0.161,0.984,0.14
10.16,-0.268,0.849,0.018
10.17,-0.243,1.171,-0.195
10.18,-0.165,0.916,0.037
10.19,-0.204,1.026,0.149
10.2,-0.046,0.703,0.105
10.21,-0.524,1.18,-0.151
10.22,-0.206,0.893,-0.059
10.23,-0.029,1.146,0.067
10.24,-0.203,0.804,0.132
10.25,-0.269,0.844,-0.012
10.26,-0.334,1.254,-0.181
10.27,-0.041,0.822,-0.002
10.28,-0.08,1.167,0.149
10.29,-0.151,0.661,0.029
10.3,-0.548,1.155,-0.188
10.31,-0.078,0.987,-0.092
10.32,-0.181,0.981,0.126
10.33,-0.104,0.931,0.133
10.34,-0.312,0.825,-0.151
10.35,-0.246,1.229,-0.151
10.36,-0.038,0.9,0.076
10.37,-0.128,1.007,0.135
10.38,-0.225,0.705,0.018
10.39,-0.353,1.254,-0.208
10.4,-0.134,0.976,-0.053
10.41,-0.161,0.93,0.2
10.42,-0.158,0.967,0.102
10.43,-0.401,0.79,-0.191
10.44,-0.193,1.313,-0.048
10.45,-0.074,0.878,0.068
10.46,-0.249,0.907,0.134
10.47,-0.162,0.826,-0.046
10.48,-0.351,1.121,-0.249
10.49,-0.127,1.029,0.026
10.5,-0.05,0.865,0.158
10.51,-0.165,0.992,0.03
10.52,-0.461,0.811,-0.148
10.53,-0.08,1.258,-0.077
10.54,-0.131,0.8,0.091
10.55,-0.18,0.923,0.189
10.56,-0.274,0.927,-0.12
10.57,-0.304,0.949,-0.171
10.58,-0.083,1.215,0.14
10.59,-0.118,0.741,0.15
10.6,-0.335,1.026,0.013
10.61,-0.371,0.893,-0.181
10.62,-0.104,1.203,-0.034
10.63,-0.206,0.833,0.16
10.64,-0.124,0.896,0.103
10.65,-0.338,1.055,-0.179
10.66,-0.259,1.088,-0.051
10.67,-0.041,1.074,0.082
10.68,-0.172,0.69,0.143
10.69,-0.32,1.087,-0.021
10.7,-0.292,0.855,-0.214
10.71,-0.259,1.201,0.088
10.72,-0.046,0.766,0.125
10.73,-0.147,0.946,0.025
10.74,-0.434,1.028,-0.21
10.75,-0.07,0.983,-0.096
10.76,-0.087,1.06,0.085
10.77,-0.143,0.679,0.155
10.78,-0.381,1.129,-0.091
10.79,-0.231,0.807,-0.194
10.8,-0.064,1.246,0.069
10.81,-0.119,0.798,0.162
10.82,-0.211,0.892,0.033
10.83,-0.501,1.137,-0.203
10.84,0.022,0.916,-0.028
10.85,-0.222,1.173,0.123
10.86,-0.132,0.654,0.147
10.87,-0.349,1.165,-0.18
10.88,-0.349,0.902,-0.075
10.89,-0.057,1.154,0.119
10.9,-0.12,0.828,0.109
10.91,-0.307,0.821,-0.007
10.92,-0.409,1.213,-0.168
10.93,-0.091,0.866,0.032
10.94,-0.297,1.161,0.183
10.95,-0.024,0.69,0.082
10.96,-0.46,1.162,-0.209
10.97,-0.148,0.9,0.001
10.98,-0.114,1.155,0.097
10.99,-0.229,0.712,0.142
11.0,-0.312,1.008,-0.016
11.01,-0.309,1.119,-0.206
11.02,-0.212,0.86,0.055
11.03,-0.027,1.162,0.1
11.04,-0.12,0.641,-0.051
11.05,-0.523,1.229,-0.127
11.06,-0.089,0.911,-0.04
11.07,-0.14,1.042,0.089
11.08,-0.177,0.829,0.142
11.09,-0.29,0.892,-0.117
11.1,-0.329,1.182,-0.145
11.11,-0.05,0.86,0.086
11.12,-0.103,1.049,0.119
11.13,-0.221,0.703,-0.005
11.14,-0.393,1.237,-0.188
11.15,-0.057,0.902,-0.055
11.16,-0.175,1.017,0.198
11.17,-0.114,0.903,0.094
11.18,-0.308,0.884,-0.159
11.19,-0.236,1.281,-0.118
11.2,-0.082,0.788,0.104
11.21,-0.165,1.067,0.158
11.22,-0.29,0.771,-0.066
11.23,-0.354,1.125,-0.203
11.24,-0.133,1.042,0.077
11.25,-0.154,0.916,0.149
11.26,-0.138,0.981,0.066
11.27,-0.369,0.898,-0.194
11.28,-0.252,1.249,-0.088
11.29,-0.079,0.757,0.09
11.3,-0.107,0.987,0.099
11.31,-0.341,0.859,-0.103
11.32,-0.291,1.016,-0.166
11.33,-0.064,1.115,0.053
11.34,-0.09,0.809,0.134
11.35,-0.229,0.994,0.035
11.36,-0.346,0.869,-0.159
11.37,-0.195,1.276,-0.069
11.38,-0.159,0.742,0.156
11.39,-0.148,0.975,0.151
11.4,-0.336,0.902,-0.172
11.41,-0.237,0.932,-0.087
11.42,-0.083,1.256,0.105
11.43,-0.1,0.647,0.106
11.44,-0.279,1.06,0.027
11.45,-0.336,0.921,-0.182
11.46,-0.2,1.183,-0.012
11.47,-0.132,0.803,0.132
11.48,-0.125,0.873,0.042
11.49,-0.344,1.044,-0.215
11.5,-0.269,0.918,-0.043
11.51,-0.08,1.187,0.084
11.52,-0.095,0.594,0.11
11.53,-0.288,1.104,-0.001
11.54,-0.318,0.939,-0.214
11.55,-0.097,1.095,-0.052
11.56,-0.155,0.909,0.206
11.57,-0.129,0.809,0.058
11.58,-0.43,1.129,-0.208
11.59,-0.156,0.907,-0.018
11.6,-0.15,1.214,0.085
11.61,-0.139,0.635,0.153
11.62,-0.284,1.114,-0.068
11.63,-0.285,0.923,-0.178
11.64,-0.133,1.105,0.067
11.65,-0.122,0.966,0.125
11.66,-0.155,0.678,0.004
11.67,-0.475,1.276,-0.124
11.68,-0.153,0.887,-0.056
11.69,-0.154,1.121,0.095
11.7,-0.005,0.719,0.142
11.71,-0.47,1.038,-0.124
11.72,-0.277,0.999,-0.127
11.73,0.039,1.048,-0.001
11.74,-0.187,0.931,0.156
11.75,-0.155,0.733,0.061
11.76,-0.423,1.371,-0.229
11.77,-0.098,0.772,0.006
11.78,-0.144,1.171,0.194
11.79,-0.178,0.654,0.122
11.8,-0.452,1.123,-0.148
11.81,-0.153,1.038,-0.091
11.82,-0.144,1.02,0.084
11.83,-0.119,0.879,0.144
11.84,-0.259,0.767,-0.041
11.85,-0.354,1.22,-0.193
11.86,-0.134,0.894,0.103
11.87,-0.238,1.198,0.155
11.88,-0.073,0.66,0.049
11.89,-0.426,1.106,-0.174
11.9,-0.146,1.107,-0.065
11.91,-0.125,0.918,0.064
11.92,-0.168,0.936,0.139
11.93,-0.281,0.748,-0.055
11.94,-0.366,1.218,-0.188
11.95,-0.062,0.845,0.067
11.96,-0.1,1.124,0.136
11.97,-0.176,0.708,0.044
11.98,-0.437,1.084,-0.14
11.99,-0.126,1.132,-0.081
12.0,-0.103,0.766,0.087
12.01,-0.176,1.074,0.165
12.02,-0.292,0.743,-0.17
12.03,-0.257,1.202,-0.16
12.04,-0.102,0.93,0.13
12.05,-0.152,0.956,0.141
12.06,-0.226,0.839,-0.01
12.07,-0.399,1.047,-0.167
12.08,-0.081,1.11,-0.039
12.09,-0.107,0.817,0.15
12.1,-0.268,1.027,0.093
12.11,-0.249,0.778,-0.198
12.12,-0.2,1.285,-0.112
12.13,-0.136,0.88,0.115
12.14,-0.057,0.851,0.155
12.15,-0.32,1.001,-0.027
12.16,-0.323,0.898,-0.202
12.17,-0.07,1.168,0.012
12.18,-0.143,0.828,0.176
12.19,-0.205,1.032,0.05
12.2,-0.314,0.822,-0.184
12.21,-0.2,1.21,-0.1
12.22,-0.089,0.906,0.113
12.23,-0.071,0.772,0.126
12.24,-0.412,1.064,-0.067
12.25,-0.227,0.844,-0.144
12.26,-0.087,1.267,0.008
12.27,-0.185,0.745,0.153
12.28,-0.118,0.983,0.073
12.29,-0.373,0.955,-0.238
12.3,-0.151,1.078,-0.076
12.31,-0.156,0.962,0.132
12.32,-0.125,0.757,0.159
12.33,-0.375,1.147,-0.118
12.34,-0.232,0.76,-0.201
12.35,-0.153,1.262,0.096
12.36,-0.054,0.753,0.123
12.37,-0.246,0.963,0.026
12.38,-0.378,1.038,-0.174
12.39,-0.202,1.006,0.019
12.4,-0.195,1.038,0.113
12.41,-0.074,0.703,0.141
12.42,-0.415,1.186,-0.141
12.43,-0.227,0.788,-0.166
12.44,-0.109,1.241,0.098
12.45,-0.113,0.721,0.104
12.46,-0.305,0.888,0.021
12.47,-0.372,1.155,-0.174
12.48,-0.111,0.881,-0.023
12.49,-0.2,1.09,0.14
12.5,-0.105,0.682,0.127
12.51,-0.415,1.174,-0.172
12.52,-0.276,0.874,-0.109
12.53,-0.04,1.156,0.06
12.54,-0.093,0.793,0.119
12.55,-0.348,0.852,0.015
12.56,-0.289,1.18,-0.194
12.57,-0.09,0.879,0.006
12.58,-0.213,1.159,0.162
12.59,-0.086,0.659,0.059
12.6,-0.427,1.224,-0.236
12.61,-0.053,0.903,-0.073
12.62,-0.188,1.156,0.121
12.63,-0.232,0.729,0.179
12.64,-0.292,0.984,-0.081
12.65,-0.215,1.129,-0.192
12.66,-0.151,0.942,0.102
12.67,-0.132,1.038,0.142
12.68,-0.184,0.667,-0.03
12.69,-0.473,1.324,-0.176
12.7,-0.084,0.865,-0.072
12.71,-0.243,1.017,0.155
12.72,-0.112,0.855,0.192
12.73,-0.341,0.892,-0.166
12.74,-0.319,1.116,-0.109
12.75,-0.129,0.942,0.168
12.76,-0.099,1.07,0.102
12.77,-0.25,0.647,-0.015
12.78,-0.429,1.283,-0.209
12.79,0.019,0.939,-0.049
12.8,-0.185,0.975,0.138
12.81,-0.175,0.885,0.129
12.82,-0.323,0.846,-0.185
12.83,-0.289,1.276,-0.095
12.84,-0.016,0.877,0.08
12.85,-0.13,1.034,0.116
12.86,-0.307,0.738,-0.028
12.87,-0.367,1.233,-0.208
12.88,-0.006,0.943,-0.076
12.89,-0.167,0.922,0.186
12.9,-0.06,0.989,0.064
12.91,-0.403,0.82,-0.198
12.92,-0.226,1.265,-0.01
12.93,-0.034,0.834,0.105
12.94,-0.224,0.976,0.098
12.95,-0.238,0.824,-0.071
12.96,-0.245,1.11,-0.207
12.97,-0.214,1.06,0.048
12.98,-0.13,0.79,0.164
12.99,-0.125,1.034,0.009
13.0,-0.447,0.86,-0.174
13.01,-0.085,1.256,-0.087
13.02,-0.092,0.751,0.123
13.03,-0.218,0.975,0.175
13.04,-0.306,0.946,-0.149
13.05,-0.263,0.897,-0.127
13.06,-0.091,1.214,0.139
13.07,-0.073,0.741,0.136
13.08,-0.25,1.023,-0.021
13.09,-0.372,0.868,-0.152
13.1,-0.15,1.2,-0.04
13.11,-0.133,0.788,0.111
13.12,-0.129,0.932,0.158
13.13,-0.389,1.024,-0.161
13.14,-0.266,0.844,-0.113
13.15,-0.094,1.249,0.105
13.16,-0.072,0.637,0.133
13.17,-0.267,1.086,0.001
13.18,-0.341,0.884,-0.197
13.19,-0.134,1.138,0.033
13.2,-0.107,0.91,0.164
13.21,-0.233,0.807,0.091
13.22,-0.409,1.119,-0.19
13.23,-0.147,0.892,-0.066
13.24,-0.056,1.199,0.069
13.25,-0.118,0.598,0.166
13.26,-0.373,1.088,0.017
13.27,-0.294,0.91,-0.232
13.28,-0.102,1.007,-0.028
13.29,-0.129,1.009,0.178
13.3,-0.126,0.715,0.015
13.31,-0.457,1.223,-0.198
13.32,-0.097,0.856,-0.056
13.33,-0.156,1.137,0.08
13.34,-0.131,0.71,0.195
13.35,-0.316,1.029,-0.121
13.36,-0.296,0.954,-0.141
13.37,-0.14,1.037,0.104
13.38,-0.128,1.02,0.107
13.39,-0.191,0.803,-0.018
13.4,-0.412,1.278,-0.177
13.41,-0.086,0.828,-0.012
13.42,-0.152,1.071,0.149
13.43,-0.059,0.681,0.082
13.44,-0.447,1.22,-0.202
13.45,-0.169,0.865,-0.053
13.46,-0.184,1.188,0.103
13.47,-0.116,0.725,0.153
13.48,-0.323,0.908,-0.043
13.49,-0.349,1.08,-0.209
13.5,-0.041,0.866,0.013
13.51,-0.108,1.189,0.137
13.52,-0.117,0.616,0.049
13.53,-0.421,1.199,-0.183
13.54,-0.06,0.946,-0.083
13.55,-0.213,1.089,0.137
13.56,-0.162,0.812,0.179
13.57,-0.298,0.873,-0.113
13.58,-0.364,1.178,-0.147
13.59,-0.104,0.884,0.058
13.6,-0.037,1.119,0.101
13.61,-0.24,0.629,0.06
13.62,-0.446,1.242,-0.167
13.63,-0.07,0.993,-0.074
13.64,-0.193,0.892,0.088
13.65,-0.156,0.92,0.183
13.66,-0.346,0.848,-0.201
13.67,-0.252,1.131,-0.156
13.68,-0.086,0.913,0.145
13.69,-0.16,1.094,0.146
13.7,-0.235,0.697,-0.001
13.71,-0.366,1.221,-0.176
13.72,-0.09,1.016,-0.037
13.73,-0.178,0.888,0.188
13.74,-0.168,0.986,0.113
13.75,-0.338,0.816,-0.189
13.76,-0.241,1.263,-0.114
13.77,-0.02,0.851,0.072
13.78,-0.122,0.942,0.15
13.79,-0.286,0.811,-0.017
13.8,-0.354,1.12,-0.156
13.81,-0.073,1.079,-0.031
13.82,-0.129,0.816,0.188
13.83,-0.107,1.028,0.101
13.84,-0.373,0.856,-0.266
13.85,-0.172,1.248,-0.044
13.86,-0.159,0.847,0.128
13.87,-0.096,0.888,0.112
13.88,-0.324,0.925,-0.059
13.89,-0.26,0.99,-0.159
13.9,-0.125,1.15,0.007
13.91,-0.121,0.709,0.14
13.92,-0.151,1.041,-0.017
13.93,-0.39,0.881,-0.189
13.94,-0.159,1.204,-0.05
13.95,-0.095,0.801,0.066
13.96,-0.191,0.86,0.146
13.97,-0.323,1.037,-0.1
13.98,-0.245,0.865,-0.18
13.99,-0.115,1.187,0.095
14.0,-0.071,0.635,0.153
14.01,-0.327,1.058,0.007
14.02,-0.273,0.929,-0.176
14.03,-0.132,1.105,-0.007
14.04,-0.146,0.921,0.112
14.05,-0.168,0.831,0.108
14.06,-0.379,1.121,-0.164
14.07,-0.284,0.925,-0.03
14.08,-0.117,1.252,0.058
14.09,-0.102,0.652,0.163
14.1,-0.298,1.012,-0.035
14.11,-0.311,0.977,-0.138
14.12,-0.081,1.045,-0.012
14.13,-0.119,0.959,0.112
14.14,-0.108,0.723,0.115
14.15,-0.455,1.22,-0.177
14.16,-0.152,0.84,-0.108
14.17,-0.134,1.187,0.111
14.18,-0.089,0.732,0.184
14.19,-0.373,0.969,-0.081
14.2,-0.269,0.956,-0.183
14.21,-0.048,1.03,0.084
14.22,-0.123,1.038,0.101
14.23,-0.18,0.657,0.039
14.24,-0.42,1.27,-0.156
14.25,-0.151,0.832,-0.066
14.26,-0.201,1.137,0.157
14.27,-0.107,0.717,0.128
14.28,-0.445,1.075,-0.19
14.29,-0.194,0.913,-0.069
14.3,-0.012,1.174,0.092
14.31,-0.196,0.884,0.126
14.32,-0.184,0.697,-0.021
14.33,-0.407,1.342,-0.188
14.34,-0.051,0.796,-0.018
14.35,-0.159,1.095,0.131
14.36,-0.124,0.755,0.125
14.37,-0.452,1.075,-0.173
14.38,-0.245,1.029,-0.06
14.39,-0.015,0.997,0.108
14.4,-0.136,0.973,0.135
14.41,-0.294,0.702,-0.024
14.42,-0.289,1.317,-0.199
14.43,-0.08,0.885,0.004
14.44,-0.213,1.053,0.22
14.45,-0.106,0.782,0.024
14.46,-0.424,1.017,-0.216
14.47,-0.205,1.175,0.018
14.48,-0.089,0.84,0.125
14.49,-0.196,1.003,0.107
14.5,-0.249,0.742,-0.084
14.51,-0.306,1.246,-0.177
14.52,-0.144,0.879,0.079
14.53,-0.079,1.004,0.096
14.54,-0.169,0.831,-0.029
14.55,-0.477,0.973,-0.12
14.56,-0.179,1.222,0.002
14.57,-0.098,0.728,0.094
14.58,-0.138,1.06,0.106
14.59,-0.312,0.791,-0.162
14.6,-0.264,1.182,-0.13
14.61,-0.043,0.993,0.028
14.62,-0.069,0.842,0.147
14.63,-0.298,0.953,-0.025
14.64,-0.31,0.926,-0.19
14.65,-0.12,1.206,0.012
14.66,-0.131,0.741,0.184
14.67,-0.15,1.053,0.092
14.68,-0.334,0.881,-0.216
14.69,-0.207,1.107,-0.089
14.7,-0.115,0.982,0.062
14.71,-0.055,0.719,0.086
14.72,-0.368,1.106,-0.071
14.73,-0.259,0.807,-0.146
14.74,-0.177,1.265,0.079
14.75,-0.128,0.746,0.138
14.76,-0.115,0.99,0.027
14.77,-0.41,1.002,-0.201
14.78,-0.198,1.033,-0.029
14.79,-0.151,0.986,0.114
14.8,-0.158,0.712,0.168
14.81,-0.431,1.137,-0.149
14.82,-0.163,0.785,-0.117
14.83,-0.152,1.311,0.133
14.84,-0.168,0.696,0.166
14.85,-0.215,0.903,0.007
14.86,-0.441,1.127,-0.217
14.87,-0.083,0.9,-0.037
14.88,-0.192,1.109,0.135
14.89,-0.107,0.672,0.12
14.9,-0.441,1.171,-0.185
14.91,-0.135,0.877,-0.077
14.92,-0.129,1.229,0.111
14.93,-0.102,0.713,0.148
14.94,-0.281,0.888,0.004
14.95,-0.344,1.177,-0.219
14.96,-0.033,0.863,-0.048
14.97,-0.184,1.171,0.217
14.98,-0.105,0.651,0.053
14.99,-0.478,1.214,-0.195
15.0,-0.098,0.97,-0.05
15.01,-0.14,1.022,0.091
15.02,-0.146,0.832,0.182
15.03,-0.297,0.869,-0.092
15.04,-0.319,1.136,-0.199
15.05,0.048,1.046,0.099
15.06,-0.207,1.055,0.144
15.07,-0.244,0.671,0.04
15.08,-0.43,1.352,-0.19
15.09,-0.135,0.889,-0.006
15.1,-0.197,1.06,0.164
15.11,-0.114,0.828,0.124
15.12,-0.388,0.929,-0.184
15.13,-0.24,1.138,-0.101
15.14,0.001,0.958,0.081
15.15,-0.141,1.01,0.084
15.16,-0.292,0.693,0.011
15.17,-0.314,1.335,-0.25
15.18,-0.073,0.868,-0.042
15.19,-0.18,1.011,0.26
15.2,-0.105,0.893,0.071
15.21,-0.394,0.885,-0.242
15.22,-0.134,1.231,-0.027
15.23,-0.116,0.863,0.145
15.24,-0.266,1.008,0.141
15.25,-0.182,0.781,-0.068
15.26,-0.371,1.183,-0.201
15.27,-0.159,0.983,0.112
15.28,-0.063,0.934,0.146
15.29,-0.22,0.91,0.002
15.3,-0.399,0.869,-0.146
15.31,-0.146,1.301,-0.066
15.32,-0.15,0.701,0.168
15.33,-0.177,1.012,0.115
15.34,-0.317,0.814,-0.152
15.35,-0.24,1.067,-0.11
15.36,-0.051,1.103,0.094
15.37,-0.102,0.727,0.149
15.38,-0.288,1.045,0.029
15.39,-0.272,0.926,-0.192
15.4,-0.233,1.157,-0.03
15.41,-0.131,0.745,0.16
15.42,-0.136,1.038,0.09
15.43,-0.345,0.871,-0.241
15.44,-0.176,1.01,-0.03
15.45,-0.084,1.172,0.045
15.46,-0.112,0.586,0.139
15.47,-0.292,1.106,0.002
15.48,-0.333,0.932,-0.199
15.49,-0.186,1.152,-0.002
15.5,-0.05,0.853,0.115
15.51,-0.131,0.888,0.057
15.52,-0.397,1.017,-0.19
15.53,-0.139,0.981,-0.044
15.54,-0.09,1.106,0.101
15.55,-0.148,0.686,0.201
15.56,-0.404,1.141,-0.076
15.57,-0.2,0.766,-0.19
15.58,-0.253,1.229,0.116
15.59,-0.183,0.84,0.135
15.6,-0.102,0.809,-0.001
15.61,-0.432,1.225,-0.179
15.62,-0.2,0.866,-0.032
15.63,-0.138,1.11,0.127
15.64,-0.182,0.67,0.18
15.65,-0.385,1.128,-0.13
15.66,-0.211,0.853,-0.138
15.67,-0.147,1.18,0.12
15.68,-0.148,0.886,0.117
15.69,-0.186,0.746,0.014
15.7,-0.457,1.292,-0.168
15.71,-0.112,0.798,-0.063
15.72,-0.104,1.142,0.092
15.73,-0.105,0.731,0.125
15.74,-0.38,1.072,-0.217
15.75,-0.25,1.003,-0.045
15.76,-0.068,1.048,0.083
15.77,-0.092,0.926,0.147
15.78,-0.229,0.736,-0.04
15.79,-0.381,1.301,-0.198
15.8,-0.082,0.829,0.035
15.81,-0.155,1.164,0.134
15.82,-0.156,0.741,0.075
15.83,-0.414,1.074,-0.168
15.84,-0.198,1.105,-0.053
15.85,-0.086,0.91,0.104
15.86,-0.184,0.976,0.188
15.87,-0.354,0.838,-0.084
15.88,-0.282,1.167,-0.146
15.89,-0.067,0.926,0.09
15.9,-0.143,1.123,0.135
15.91,-0.202,0.661,0.005
15.92,-0.476,1.182,-0.14
15.93,-0.07,1.041,-0.095
15.94,-0.098,0.912,0.138
15.95,-0.238,0.99,0.177
15.96,-0.334,0.79,-0.186
15.97,-0.278,1.185,-0.141
15.98,-0.034,0.901,0.108
15.99,-0.133,1.008,0.114
16.0,-0.266,0.776,-0.0
16.01,-0.397,1.128,-0.148
16.02,-0.128,1.012,-0.034
16.03,-0.069,0.87,0.173
16.04,-0.14,1.042,0.088
16.05,-0.364,0.74,-0.178
16.06,-0.254,1.286,-0.073
16.07,0.001,0.888,0.029
16.08,-0.161,0.904,0.118
16.09,-0.276,0.871,-0.023
16.1,-0.297,1.063,-0.171
16.11,-0.147,1.122,0.061
16.12,-0.049,0.789,0.153
16.13,-0.228,1.031,0.034
16.14,-0.354,0.826,-0.182
16.15,-0.16,1.255,-0.092
16.16,-0.115,0.759,0.101
16.17,-0.176,0.899,0.165
16.18,-0.356,0.991,-0.131
16.19,-0.298,0.883,-0.135
16.2,-0.09,1.242,0.096
16.21,-0.132,0.681,0.151
16.22,-0.226,1.043,0.01
16.23,-0.427,0.932,-0.173
16.24,-0.094,1.146,-0.014
16.25,-0.136,0.895,0.102
16.26,-0.148,0.842,0.132
16.27,-0.371,1.07,-0.185
16.28,-0.234,0.875,-0.084
16.29,-0.059,1.271,0.091
16.3,-0.097,0.593,0.132
16.31,-0.337,1.063,0.033
16.32,-0.298,0.96,-0.253
16.33,-0.133,1.031,0.009
16.34,-0.129,0.963,0.153
16.35,-0.107,0.749,0.051
16.36,-0.403,1.167,-0.182
16.37,-0.085,0.87,-0.075
16.38,-0.126,1.22,0.107
16.39,-0.136,0.657,0.178
16.4,-0.329,1.061,-0.055
16.41,-0.36,0.962,-0.179
16.42,-0.164,0.984,0.07
16.43,-0.131,1.094,0.117
16.44,-0.178,0.654,0.028
16.45,-0.459,1.234,-0.147
16.46,-0.144,0.902,-0.084
16.47,-0.127,1.086,0.075
16.48,-0.101,0.762,0.191
16.49,-0.373,0.976,-0.14
16.5,-0.341,1.054,-0.13
16.51,-0.056,1.01,0.07
16.52,-0.123,1.018,0.092
16.53,-0.224,0.682,0.037
16.54,-0.444,1.315,-0.217
16.55,-0.052,0.834,-0.067
16.56,-0.146,1.132,0.168
16.57,-0.12,0.82,0.091
16.58,-0.409,0.934,-0.162
16.59,-0.205,1.195,-0.099
16.6,-0.087,0.914,0.11
16.61,-0.16,0.976,0.084
16.62,-0.137,0.739,-0.048
16.63,-0.483,1.273,-0.196
16.64,-0.125,0.847,0.022
16.65,-0.101,1.106,0.188
16.66,-0.223,0.844,0.088
16.67,-0.385,0.859,-0.136
16.68,-0.101,1.138,-0.136
16.69,-0.114,0.823,0.087
16.7,-0.146,1.027,0.174
16.71,-0.328,0.745,-0.111
16.72,-0.349,1.172,-0.18
16.73,-0.081,0.928,0.11
16.74,-0.137,1.061,0.12
16.75,-0.203,0.765,0.019
16.76,-0.148,1.021,0.086
16.77,-0.166,0.846,0.105
16.78,-0.274,1.033,-0.174
16.79,-0.307,0.868,-0.088
16.8,-0.103,1.255,0.027
16.81,-0.044,0.619,0.112
16.82,-0.276,1.061,0.014
16.83,-0.344,0.952,-0.244
16.84,-0.104,1.022,-0.041
16.85,-0.152,0.98,0.126
16.86,-0.082,0.763,0.091
16.87,-0.384,1.171,-0.168
16.88,-0.28,0.868,-0.046
16.89,-0.112,1.243,0.111
16.9,-0.122,0.651,0.151
16.91,-0.317,1.009,-0.03
16.92,-0.345,0.99,-0.223
16.93,-0.14,0.963,-0.01
16.94,-0.127,1.079,0.135
16.95,-0.098,0.691,0.076
16.96,-0.425,1.201,-0.171
16.97,-0.213,0.916,-0.02
16.98,-0.1,1.178,0.092
16.99,-0.103,0.698,0.137
17.0,-0.302,0.947,-0.085
17.01,-0.313,1.111,-0.162
17.02,-0.15,0.943,0.024
17.03,-0.174,1.052,0.162
17.04,-0.07,0.676,0.061
17.05,-0.453,1.258,-0.234
17.06,-0.108,0.857,-0.056
17.07,-0.125,1.138,0.09
17.08,-0.147,0.786,0.129
17.09,-0.319,0.893,-0.075
17.1,-0.215,1.156,-0.194
17.11,-0.126,0.896,0.076
17.12,-0.158,1.125,0.147
17.13,-0.034,0.61,-0.003
17.14,-0.499,1.251,-0.196
17.15,-0.091,0.957,-0.051
17.16,-0.16,0.993,0.05
17.17,-0.141,0.902,0.173
17.18,-0.341,0.816,-0.102
17.19,-0.294,1.18,-0.152
17.2,-0.092,0.91,0.089
17.21,-0.132,1.069,0.098
17.22,-0.107,0.689,0.022
17.23,-0.462,1.24,-0.133
17.24,-0.154,0.959,-0.061
17.25,-0.172,0.933,0.149
17.26,-0.141,0.981,0.094
17.27,-0.363,0.754,-0.151
17.28,-0.266,1.198,-0.102
17.29,-0.05,0.918,0.09
17.3,-0.105,0.997,0.119
17.31,-0.219,0.718,0.019
17.32,-0.378,1.203,-0.166
17.33,-0.125,1.043,-0.023
17.34,-0.194,0.773,0.209
17.35,-0.113,1.043,0.101
17.36,-0.404,0.783,-0.194
17.37,-0.201,1.235,-0.032
17.38,-0.111,0.914,0.121
17.39,-0.183,1.017,0.173
17.4,-0.219,0.771,-0.125
17.41,-0.348,1.076,-0.207
17.42,-0.061,1.009,0.05
17.43,-0.128,1.011,0.143
17.44,-0.213,0.924,0.06
17.45,-0.34,0.844,-0.179
17.46,-0.203,1.333,-0.063
17.47,-0.064,0.736,0.079
17.48,-0.223,0.965,0.174
17.49,-0.294,0.819,-0.065
17.5,-0.316,1.044,-0.177
17.51,-0.104,1.084,0.075
17.52,-0.076,0.88,0.11
17.53,-0.211,0.972,0.001
17.54,-0.371,0.829,-0.151
17.55,-0.167,1.289,-0.068
17.56,-0.132,0.725,0.067
17.57,-0.063,0.939,0.173
17.58,-0.409,0.981,-0.133
17.59,-0.31,0.892,-0.156
17.6,-0.044,1.208,0.102
17.61,-0.089,0.717,0.106
17.62,-0.312,1.064,0.054
17.63,-0.232,0.902,-0.198
17.64,-0.303,1.164,0.002
17.65,-0.186,0.798,0.231
17.66,-0.095,0.937,0.127
17.67,-0.408,0.952,-0.167
17.68,-0.256,0.915,-0.047
17.69,-0.063,1.241,0.003
17.7,-0.146,0.598,0.168
17.71,-0.233,1.08,-0.003
17.72,-0.334,0.969,-0.228
17.73,-0.135,1.016,-0.054
17.74,-0.148,0.936,0.21
17.75,-0.08,0.859,0.084
17.76,-0.427,1.087,-0.206
17.77,-0.192,0.86,-0.033
17.78,-0.125,1.276,0.048
17.79,-0.086,0.611,0.152
17.8,-0.298,1.102,0.03
17.81,-0.3,0.967,-0.218
17.82,-0.225,0.988,0.014
17.83,-0.112,1.0,0.134
17.84,-0.099,0.764,0.065
17.85,-0.46,1.15,-0.189
17.86,-0.188,0.824,-0.036
17.87,-0.122,1.355,0.117
17.88,-0.196,0.617,0.112
17.89,-0.266,0.996,0.032
17.9,-0.32,1.072,-0.246
17.91,-0.057,0.92,-0.014
17.92,-0.155,1.077,0.14
17.93,-0.021,0.712,0.059
17.94,-0.499,1.2,-0.154
17.95,-0.19,0.868,-0.025
17.96,-0.08,1.207,0.059
17.97,-0.162,0.731,0.16
17.98,-0.298,0.964,-0.027
17.99,-0.382,1.066,-0.188
18.0,-0.057,0.885,0.043
18.01,-0.144,1.213,0.138
18.02,-0.116,0.639,0.036
18.03,-0.361,1.209,-0.205
18.04,-0.153,0.985,-0.025
18.05,-0.166,1.055,0.105
18.06,-0.129,0.805,0.13
18.07,-0.274,0.882,-0.073
18.08,-0.365,1.131,-0.174
18.09,-0.158,0.886,0.108
18.1,-0.127,1.169,0.16
18.11,-0.119,0.605,0.011
18.12,-0.447,1.224,-0.167
18.13,-0.053,0.973,-0.078
18.14,-0.13,0.952,0.073
18.15,-0.145,0.923,0.156
18.16,-0.286,0.813,-0.126
18.17,-0.326,1.172,-0.108
18.18,-0.099,0.956,0.066
18.19,-0.202,1.1,0.117
18.2,-0.147,0.635,0.009
18.21,-0.379,1.359,-0.171
18.22,-0.081,0.909,-0.023
18.23,-0.189,0.945,0.156
18.24,-0.054,0.896,0.122
18.25,-0.425,0.898,-0.185
18.26,-0.254,1.145,-0.065
18.27,-0.016,0.946,0.05
18.28,-0.226,1.016,0.128
18.29,-0.176,0.68,-0.021
18.3,-0.385,1.305,-0.226
18.31,-0.037,0.87,-0.07
18.32,-0.011,0.993,0.145
18.33,-0.13,0.915,0.069
18.34,-0.423,0.843,-0.132
18.35,-0.206,1.261,-0.084
18.36,-0.109,0.858,0.039
18.37,-0.154,0.984,0.12
18.38,-0.232,0.813,-0.034
18.39,-0.393,1.147,-0.185
18.4,-0.042,0.968,-0.022
18.41,-0.063,0.947,0.192
18.42,-0.16,0.94,0.042
18.43,-0.383,0.828,-0.132
18.44,-0.129,1.29,-0.051
18.45,-0.206,0.773,0.104
18.46,-0.161,0.973,0.175
18.47,-0.223,0.901,-0.105
18.48,-0.376,1.007,-0.188
18.49,-0.174,1.068,0.091
18.5,0.02,0.859,0.139
18.51,-0.247,1.015,0.054
18.52,-0.388,0.801,-0.132
18.53,-0.08,1.251,-0.12
18.54,-0.148,0.757,0.072
18.55,-0.165,0.932,0.191
18.56,-0.279,0.957,-0.138
18.57,-0.294,0.923,-0.143
18.58,-0.115,1.18,0.066
18.59,-0.031,0.721,0.15
18.6,-0.249,1.06,0.051
18.61,-0.359,0.869,-0.155
18.62,-0.147,1.225,-0.038
18.63,-0.207,0.799,0.115
18.64,-0.085,0.855,0.126
18.65,-0.416,1.054,-0.098
18.66,-0.228,0.832,-0.136
18.67,-0.032,1.238,0.037
18.68,-0.099,0.643,0.151
18.69,-0.27,1.071,0.019
18.7,-0.32,0.944,-0.193
18.71,-0.146,1.078,-0.029
18.72,-0.17,0.911,0.19
18.73,-0.127,0.823,0.098
18.74,-0.379,1.117,-0.182
18.75,-0.26,0.84,-0.081
18.76,-0.113,1.294,0.073
18.77,-0.064,0.626,0.174
18.78,-0.344,1.03,0.003
18.79,-0.314,0.983,-0.198
18.8,-0.17,1.004,-0.016
18.81,-0.198,0.971,0.18
18.82,-0.014,0.711,0.047
18.83,-0.428,1.231,-0.154
18.84,-0.238,0.812,-0.098
18.85,-0.107,1.255,0.034
18.86,-0.089,0.66,0.144
18.87,-0.329,0.981,-0.01
18.88,-0.336,1.056,-0.185
18.89,-0.075,0.923,-0.011
18.9,-0.141,1.088,0.13
18.91,-0.054,0.658,0.044
18.92,-0.508,1.215,-0.182
18.93,-0.17,0.857,-0.063
18.94,-0.085,1.218,0.067
18.95,-0.18,0.74,0.141
18.96,-0.283,0.903,-0.022
18.97,-0.312,1.127,-0.186
18.98,-0.163,0.884,0.068
18.99,-0.156,1.143,0.181
19.0,-0.05,0.628,0.007
19.01,-0.482,1.238,-0.161
19.02,-0.1,0.969,-0.05
19.03,-0.187,1.098,0.05
19.04,-0.053,0.714,0.128
19.05,-0.327,1.043,-0.149
19.06,-0.279,1.009,-0.156
19.07,-0.096,0.967,0.088
19.08,-0.032,1.036,0.129
19.09,-0.266,0.684,0.005
19.1,-0.463,1.264,-0.157
19.11,-0.023,0.914,-0.09
19.12,-0.204,1.064,0.117
19.13,-0.119,0.763,0.17
19.14,-0.365,1.007,-0.147
19.15,-0.304,1.073,-0.121
19.16,-0.074,0.962,0.162
19.17,-0.092,1.065,0.121
19.18,-0.313,0.649,-0.039
19.19,-0.394,1.285,-0.168
19.2,-0.057,0.944,-0.062
19.21,-0.191,0.973,0.113
19.22,-0.055,0.881,0.142
19.23,-0.424,0.937,-0.155
19.24,-0.34,1.151,-0.066
19.25,0.095,0.876,0.095
19.26,-0.198,1.039,0.159
19.27,-0.327,0.707,-0.012
19.28,-0.256,1.221,-0.222
19.29,-0.154,0.959,-0.028
19.3,-0.162,0.916,0.233
19.31,-0.113,0.937,0.032
19.32,-0.403,0.855,-0.254
19.33,-0.115,1.217,-0.04
19.34,-0.012,0.868,0.083
19.35,-0.304,0.984,0.152
19.36,-0.192,0.8,-0.041
19.37,-0.285,1.174,-0.223
19.38,-0.198,0.987,0.035
19.39,-0.028,0.847,0.146
19.4,-0.156,1.001,-0.034
19.41,-0.487,0.856,-0.174
19.42,-0.058,1.229,-0.076
19.43,-0.135,0.796,0.086
19.44,-0.201,0.949,0.184
19.45,-0.244,0.89,-0.155
19.46,-0.259,0.998,-0.143
19.47,-0.128,1.143,0.08
19.48,-0.069,0.746,0.134
19.49,-0.298,1.037,0.014
19.5,-0.356,0.902,-0.141
19.51,-0.14,1.199,0.006
19.52,-0.215,0.767,0.145
19.53,-0.072,0.923,0.141
19.54,-0.385,1.005,-0.205
19.55,-0.25,0.915,-0.044
19.56,-0.091,1.201,0.057
19.57,-0.106,0.649,0.132
19.58,-0.349,1.096,0.015
19.59,-0.256,0.875,-0.239
19.6,-0.107,1.116,-0.027
19.61,-0.133,0.885,0.139
19.62,-0.067,0.825,0.109
19.63,-0.408,1.086,-0.153
19.64,-0.238,0.898,-0.048
19.65,-0.069,1.215,0.063
19.66,-0.147,0.638,0.126
19.67,-0.372,1.074,-0.006
19.68,-0.25,0.906,-0.203
19.69,-0.19,1.044,-0.007
19.7,-0.02,0.982,0.141
19.71,-0.086,0.771,0.058
19.72,-0.519,1.155,-0.186
19.73,0.062,0.862,-0.115
19.74,-0.248,1.264,0.093
19.75,-0.133,0.647,0.189
19.76,-0.267,1.067,-0.114
19.77,-0.307,0.891,-0.223
19.78,-0.186,1.07,0.139
19.79,-0.067,1.066,0.139
19.8,-0.192,0.643,0.028
19.81,-0.418,1.275,-0.138
19.82,-0.1,0.897,-0.094
19.83,-0.174,1.073,0.076
19.84,-0.022,0.68,0.12
19.85,-0.437,1.103,-0.175
19.86,-0.348,0.865,-0.082
19.87,-0.023,1.182,0.022
19.88,-0.08,0.883,0.09
19.89,-0.256,0.762,0.062
19.9,-0.37,1.269,-0.18
19.91,-0.051,0.837,-0.051
19.92,-0.233,1.172,0.153
19.93,-0.055,0.699,0.13
19.94,-0.375,1.088,-0.176
19.95,-0.309,0.95,-0.101
19.96,-0.007,1.081,0.08
19.97,-0.105,0.944,0.104
19.98,-0.289,0.708,0.083
19.99,-0.336,1.327,-0.239
20.0,-0.058,0.785,-0.033
20.01,-0.191,1.189,0.203
20.02,-0.036,0.753,0.084
20.03,-0.493,1.021,-0.187
20.04,-0.225,1.083,-0.009
20.05,-0.096,0.999,0.065
20.06,-0.178,0.955,0.146
20.07,-0.233,0.747,0.035
20.08,-0.402,1.3,-0.229
20.09,-0.055,0.785,-0.045
20.1,-0.149,1.108,0.199
20.11,-0.113,0.822,0.065
20.12,-0.431,0.946,-0.186
20.13,-0.198,1.193,-0.034
20.14,-0.13,0.874,0.096
20.15,-0.176,0.986,0.125
20.16,-0.213,0.793,-0.068
20.17,-0.361,1.191,-0.182
20.18,-0.142,0.859,0.046
20.19,-0.113,1.103,0.175
20.2,-0.117,0.852,0.074
20.21,-0.401,0.905,-0.123
20.22,-0.198,1.272,-0.088
20.23,-0.081,0.778,0.097
20.24,-0.203,1.079,0.242
20.25,-0.241,0.755,-0.116
20.26,-0.331,1.095,-0.184
20.27,-0.163,1.041,0.108
20.28,-0.128,0.953,0.13
20.29,-0.131,0.929,0.043
20.3,-0.379,0.925,-0.135
20.31,-0.151,1.248,-0.121
20.32,-0.078,0.744,0.094
20.33,-0.151,1.03,0.2
20.34,-0.315,0.881,-0.103
20.35,-0.274,0.979,-0.187
20.36,-0.185,1.085,0.092
20.37,-0.097,0.89,0.163
20.38,-0.182,0.979,0.021
20.39,-0.336,0.842,-0.203
20.4,-0.074,1.282,-0.08
20.41,-0.128,0.773,0.095
20.42,-0.183,0.904,0.224
20.43,-0.24,0.976,-0.144
20.44,-0.264,0.956,-0.172
20.45,-0.104,1.138,0.101
20.46,-0.075,0.779,0.154
20.47,-0.296,1.045,0.016
20.48,-0.329,0.877,-0.154
20.49,-0.227,1.194,-0.059
20.5,-0.182,0.772,0.107
20.51,-0.012,0.902,0.129
20.52,-0.392,1.046,-0.132
20.53,-0.311,0.834,-0.073
20.54,-0.053,1.281,0.036
20.55,-0.144,0.682,0.166
20.56,-0.227,1.096,0.076
20.57,-0.412,0.905,-0.175
20.58,-0.155,1.071,-0.042
20.59,-0.191,0.922,0.137
20.6,-0.105,0.81,0.152
20.61,-0.369,1.062,-0.134
20.62,-0.227,0.847,-0.055
20.63,-0.207,1.264,0.069
20.64,-0.069,0.636,0.165
20.65,-0.301,1.056,0.008
20.66,-0.315,0.838,-0.192
20.67,-0.086,1.181,-0.016
20.68,-0.197,0.862,0.122
20.69,-0.1,0.876,0.116
20.7,-0.316,1.042,-0.2
20.71,-0.267,0.894,-0.041
20.72,-0.089,1.225,0.052
20.73,-0.077,0.638,0.125
20.74,-0.344,1.107,-0.013
20.75,-0.332,0.876,-0.194
20.76,-0.152,1.071,0.02
20.77,-0.129,0.943,0.154
20.78,-0.177,0.815,0.091
20.79,-0.347,1.093,-0.207
20.8,-0.179,0.876,-0.052
20.81,-0.14,1.234,0.076
20.82,-0.078,0.618,0.162
20.83,-0.317,1.097,-0.033
20.84,-0.375,0.931,-0.192
20.85,-0.072,1.008,0.019
20.86,-0.176,1.047,0.118
20.87,-0.128,0.698,0.09
20.88,-0.395,1.173,-0.201
20.89,-0.151,0.882,-0.073
20.9,-0.132,1.258,0.062
20.91,-0.16,0.622,0.165
20.92,-0.247,1.026,-0.028
20.93,-0.342,1.045,-0.23
20.94,-0.074,0.907,-0.003
20.95,-0.156,1.111,0.183
20.96,-0.101,0.667,0.077
20.97,-0.455,1.187,-0.14
20.98,-0.125,0.898,-0.0
20.99,-0.177,1.203,0.051
21.0,-0.114,0.686,0.149
21.01,-0.223,0.974,-0.081
21.02,-0.429,1.043,-0.205
21.03,-0.067,0.876,0.015
21.04,-0.096,1.214,0.153
21.05,-0.142,0.607,0.058
21.06,-0.425,1.203,-0.16
21.07,-0.04,0.973,-0.075
21.08,-0.165,1.089,0.074
21.09,-0.141,0.753,0.172
21.1,-0.261,0.932,-0.073
21.11,-0.351,1.115,-0.208
21.12,-0.156,0.852,0.072
21.13,-0.087,1.232,0.116
21.14,-0.127,0.63,0.065
21.15,-0.397,1.189,-0.174
21.16,-0.132,1.043,-0.077
21.17,-0.196,0.958,0.121
21.18,-0.082,0.873,0.148
21.19,-0.314,0.828,-0.097
21.2,-0.312,1.161,-0.153
21.21,-0.1,0.905,0.057
21.22,-0.159,1.177,0.146
21.23,-0.072,0.653,0.055
21.24,-0.458,1.172,-0.174
21.25,-0.118,1.075,-0.131
21.26,-0.141,0.852,0.083
21.27,-0.165,0.959,0.163
21.28,-0.324,0.777,-0.082
21.29,-0.321,1.203,-0.145
21.3,-0.135,0.885,0.072
21.31,-0.129,1.143,0.098
21.32,-0.083,0.709,0.03
21.33,-0.437,1.086,-0.18
21.34,-0.153,1.122,-0.047
21.35,-0.117,0.766,0.091
21.36,-0.144,1.031,0.165
21.37,-0.296,0.861,-0.131
21.38,-0.326,1.168,-0.127
21.39,-0.165,0.864,0.091
21.4,-0.007,1.076,0.13
21.41,-0.267,0.815,-0.021
21.42,-0.424,0.967,-0.11
21.43,-0.097,1.198,-0.064
21.44,-0.186,0.737,0.105
21.45,-0.157,1.036,0.179
21.46,-0.267,0.827,-0.163
21.47,-0.286,1.121,-0.153
21.48,-0.073,0.921,0.095
21.49,-0.119,0.971,0.125
21.5,-0.206,0.792,0.026
21.51,-0.364,1.151,-0.168
21.52,-0.104,1.053,-0.069
21.53,-0.189,0.816,0.166
21.54,-0.146,1.018,0.131
21.55,-0.402,0.79,-0.178
21.56,-0.244,1.221,-0.066
21.57,-0.037,0.937,-0.001
21.58,-0.078,0.895,0.144
21.59,-0.241,0.919,-0.004
21.6,-0.303,1.027,-0.21
21.61,-0.168,1.087,0.007
21.62,-0.174,0.777,0.182
21.63,-0.152,1.049,0.08
21.64,-0.424,0.798,-0.206
21.65,-0.195,1.117,-0.047
21.66,-0.057,1.005,0.071
21.67,-0.225,0.763,0.148
21.68,-0.198,0.98,0.039
21.69,-0.307,1.034,-0.212
21.7,-0.177,1.123,-0.012
21.71,-0.12,0.774,0.233
21.72,-0.195,1.022,0.068
21.73,-0.417,0.806,-0.181
21.74,-0.116,1.182,-0.041
21.75,-0.114,0.986,0.035
21.76,-0.144,0.678,0.131
21.77,-0.276,1.103,-0.025
21.78,-0.299,0.881,-0.182
21.79,-0.174,1.151,0.023
21.8,-0.043,0.819,0.162
21.81,-0.18,0.989,0.035
21.82,-0.363,0.925,-0.206
21.83,-0.121,1.061,-0.074
21.84,-0.12,1.007,0.07
21.85,-0.17,0.677,0.195
21.86,-0.319,1.186,-0.1
21.87,-0.252,0.78,-0.167
21.88,-0.219,1.213,0.072
21.89,-0.004,0.833,0.123
21.9,-0.201,0.926,0.042
21.91,-0.378,1.008,-0.189
21.92,-0.14,1.004,-0.087
21.93,-0.188,1.067,0.089
21.94,-0.132,0.665,0.2
21.95,-0.366,1.191,-0.144
21.96,-0.288,0.749,-0.148
21.97,-0.087,1.232,0.064
21.98,-0.089,0.846,0.143
21.99,-0.201,0.849,0.056
22.0,-0.4,1.146,-0.177
22.01,-0.07,0.876,-0.101
22.02,-0.206,1.121,0.146
22.03,-0.102,0.709,0.201
22.04,-0.437,1.138,-0.145
22.05,-0.294,0.787,-0.133
22.06,-0.045,1.214,0.081
22.07,-0.14,0.88,0.102
22.08,-0.205,0.77,0.032
22.09,-0.385,1.31,-0.168
22.1,-0.095,0.858,-0.106
22.11,-0.207,1.073,0.133
22.12,-0.073,0.718,0.168
22.13,-0.466,1.08,-0.182
22.14,-0.254,0.83,-0.135
22.15,-0.029,1.165,0.092
22.16,-0.173,0.905,0.12
22.17,-0.234,0.72,0.055
22.18,-0.386,1.334,-0.182
22.19,-0.115,0.832,-0.032
22.2,-0.237,1.094,0.184
22.21,-0.06,0.753,0.155
22.22,-0.424,1.038,-0.173
22.23,-0.277,0.981,-0.096
22.24,-0.011,1.079,0.125
22.25,-0.174,0.99,0.1
22.26,-0.238,0.643,-0.043
22.27,-0.316,1.327,-0.137
22.28,-0.176,0.87,-0.01
22.29,-0.219,1.124,0.193
22.3,-0.036,0.716,0.061
22.31,-0.494,1.154,-0.208
22.32,-0.184,0.929,-0.052
22.33,-0.103,1.077,0.097
22.34,-0.169,0.898,0.085
22.35,-0.229,0.747,-0.055
22.36,-0.31,1.254,-0.167
22.37,-0.21,0.892,0.059
22.38,-0.092,1.161,0.153
22.39,-0.041,0.694,0.011
22.4,-0.507,1.175,-0.139
22.41,-0.115,1.052,-0.081
22.42,-0.14,0.887,0.114
22.43,-0.172,0.965,0.168
22.44,-0.324,0.791,-0.09
22.45,-0.315,1.182,-0.17
22.46,-0.145,0.903,0.069
22.47,-0.183,1.108,0.149
22.48,-0.103,0.729,0.017
22.49,-0.431,1.077,-0.151
22.5,-0.159,1.163,-0.043
22.51,-0.119,0.786,0.067
22.52,-0.133,0.991,0.202
22.53,-0.303,0.766,-0.096
22.54,-0.318,1.18,-0.151
22.55,-0.082,0.922,0.091
22.56,-0.102,1.056,0.144
22.57,-0.267,0.809,0.04
22.58,-0.411,1.0,-0.156
22.59,-0.065,1.215,-0.106
22.6,-0.215,0.72,0.105
22.61,-0.14,1.06,0.188
22.62,-0.275,0.814,-0.164
22.63,-0.378,1.083,-0.139
22.64,0.032,1.043,0.074
22.65,-0.09,0.925,0.127
22.66,-0.321,0.877,0.015
22.67,-0.349,0.971,-0.116
22.68,-0.123,1.27,-0.059
22.69,-0.238,0.681,0.161
22.7,-0.084,1.062,0.138
22.71,-0.313,0.893,-0.185
22.72,-0.316,1.074,-0.1
22.73,0.001,1.09,0.049
22.74,-0.071,0.731,0.077
22.75,-0.301,1.029,0.057
22.76,-0.264,0.911,-0.202
22.77,-0.261,1.181,-0.022
22.78,-0.194,0.764,0.205
22.79,-0.005,1.009,0.089
22.8,-0.468,0.878,-0.185
22.81,-0.21,1.024,-0.033
22.82,-0.03,1.156,0.02
22.83,-0.201,0.662,0.171
22.84,-0.267,1.119,0.053
22.85,-0.203,0.909,-0.264
22.86,-0.266,1.144,0.001
22.87,-0.099,0.798,0.142
22.88,-0.052,0.957,0.037
22.89,-0.473,0.979,-0.195
22.9,-0.136,0.943,-0.069
22.91,-0.077,1.204,0.015
22.92,-0.148,0.575,0.17
22.93,-0.306,1.13,0.015
22.94,-0.248,0.889,-0.233
22.95,-0.202,1.103,-0.012
22.96,-0.011,0.906,0.159
22.97,-0.119,0.863,0.041
22.98,-0.484,1.027,-0.169
22.99,-0.071,0.911,-0.051
23.0,-0.107,1.239,0.033
23.01,-0.192,0.578,0.139
23.02,-0.278,1.127,-0.001
23.03,-0.259,0.873,-0.219
23.04,-0.208,1.086,0.07
23.05,0.011,1.006,0.089
23.06,-0.194,0.753,0.077
23.07,-0.437,1.198,-0.126
23.08,-0.096,0.93,-0.085
23.09,-0.224,1.133,0.078
23.1,-0.129,0.637,0.229
23.11,-0.424,1.166,-0.145
23.12,-0.301,0.69,-0.164
23.13,-0.073,1.248,0.089
23.14,-0.005,0.89,0.096
23.15,-0.274,0.823,0.06
23.16,-0.442,1.135,-0.163
23.17,-0.031,0.932,-0.112
23.18,-0.273,1.115,0.094
23.19,-0.043,0.679,0.183
23.2,-0.385,1.17,-0.16
23.21,-0.285,0.778,-0.136
23.22,-0.075,1.18,0.113
23.23,-0.051,0.95,0.068
23.24,-0.28,0.726,0.007
23.25,-0.376,1.232,-0.143
23.26,-0.125,0.888,-0.078
23.27,-0.215,1.09,0.1
23.28,-0.027,0.701,0.16
23.29,-0.398,1.119,-0.186
23.3,-0.336,0.919,-0.083
23.31,0.024,1.124,0.039
23.32,-0.177,0.907,0.133
23.33,-0.237,0.701,0.034
23.34,-0.313,1.36,-0.222
23.35,-0.166,0.813,-0.062
23.36,-0.207,1.115,0.202
23.37,0.041,0.739,0.099
23.38,-0.535,1.033,-0.144
23.39,-0.299,0.972,-0.044
23.4,-0.046,1.055,0.033
23.41,-0.16,0.966,0.119
23.42,-0.27,0.699,0.032
23.43,-0.303,1.308,-0.232
23.44,-0.129,0.825,-0.064
23.45,-0.177,1.127,0.194
23.46,-0.078,0.773,0.129
23.47,-0.473,0.95,-0.143
23.48,-0.174,1.182,-0.078
23.49,-0.07,0.933,0.058
23.5,-0.229,0.966,0.141
23.51,-0.158,0.728,0.009
23.52,-0.376,1.323,-0.206
23.53,-0.168,0.816,-0.031
23.54,-0.166,1.024,0.156
23.55,-0.059,0.903,0.131
23.56,-0.477,0.911,-0.171
23.57,-0.152,1.197,-0.051
23.58,-0.089,0.919,0.061
23.59,-0.177,0.93,0.129
23.6,-0.17,0.76,0.021
23.61,-0.403,1.281,-0.233
23.62,-0.108,0.85,-0.038
23.63,-0.079,1.023,0.197
23.64,-0.178,0.93,0.078
23.65,-0.412,0.825,-0.183
23.66,-0.17,1.317,-0.039
23.67,-0.131,0.879,0.05
23.68,-0.17,0.928,0.135
23.69,-0.172,0.823,-0.066
23.7,-0.35,1.154,-0.172
23.71,-0.16,1.001,-0.021
23.72,-0.095,0.877,0.181
23.73,-0.097,0.985,0.061
23.74,-0.454,0.833,-0.126
23.75,-0.179,1.273,-0.031
23.76,-0.076,0.831,0.062
23.77,-0.207,0.935,0.173
23.78,-0.154,0.912,-0.051
23.79,-0.389,1.069,-0.183
23.8,-0.178,1.037,0.044
23.81,-0.054,0.867,0.139
23.82,-0.183,1.026,0.075
23.83,-0.362,0.805,-0.187
23.84,-0.16,1.293,-0.05
23.85,-0.162,0.811,0.1
23.86,-0.165,0.872,0.177
23.87,-0.237,0.997,-0.085
23.88,-0.331,0.911,-0.153
23.89,-0.138,1.162,0.018
23.9,-0.021,0.812,0.164
23.91,-0.202,0.979,0.034
23.92,-0.391,0.84,-0.154
23.93,-0.146,1.28,-0.098
23.94,-0.179,0.717,0.092
23.95,-0.094,0.979,0.165
23.96,-0.315,0.96,-0.136
23.97,-0.299,0.948,-0.144
23.98,-0.142,1.111,0.069
23.99,0.005,0.8,0.163
24.0,-0.276,1.023,0.003
24.01,-0.384,0.822,-0.159
24.02,-0.157,1.215,-0.053
24.03,-0.122,0.803,0.102
24.04,-0.198,0.877,0.147
24.05,-0.311,0.969,-0.11
24.06,-0.271,0.907,-0.155
24.07,-0.21,1.248,0.127
24.08,-0.065,0.709,0.143
24.09,-0.237,1.035,-0.019
24.1,-0.367,0.905,-0.15
24.11,-0.195,1.176,0.001
24.12,-0.112,0.804,0.059
24.13,-0.115,0.855,0.185
24.14,-0.365,1.079,-0.148
24.15,-0.204,0.818,-0.143
24.16,-0.189,1.265,0.149
24.17,-0.109,0.675,0.156
24.18,-0.243,1.028,-0.018
24.19,-0.377,0.955,-0.164
24.2,-0.131,1.106,-0.004
24.21,-0.169,0.929,0.09
24.22,-0.074,0.782,0.155
24.23,-0.381,1.154,-0.142
24.24,-0.228,0.791,-0.166
24.25,-0.117,1.279,0.096
24.26,-0.054,0.695,0.168
24.27,-0.371,1.02,-0.005
24.28,-0.308,0.998,-0.176
24.29,-0.135,1.045,-0.017
24.3,-0.192,0.991,0.106
24.31,-0.056,0.71,0.135
24.32,-0.419,1.206,-0.167
24.33,-0.3,0.824,-0.064
24.34,-0.077,1.243,0.082
24.35,-0.11,0.719,0.158
24.36,-0.3,0.966,-0.022
24.37,-0.365,1.087,-0.168
24.38,-0.107,0.934,-0.004
24.39,-0.201,1.07,0.138
24.4,-0.066,0.706,0.105
24.41,-0.493,1.176,-0.21
24.42,-0.181,0.81,-0.081
24.43,-0.041,1.194,0.078
24.44,-0.128,0.768,0.131
24.45,-0.308,0.879,-0.023
24.46,-0.302,1.147,-0.217
24.47,-0.106,0.883,0.017
24.48,-0.225,1.132,0.18
24.49,-0.067,0.654,0.059
24.5,-0.502,1.225,-0.194
24.51,-0.168,0.897,-0.042
24.52,-0.077,1.115,0.116
24.53,-0.163,0.801,0.117
24.54,-0.277,0.814,-0.026
24.55,-0.322,1.227,-0.163
24.56,-0.094,0.839,-0.001
24.57,-0.174,1.166,0.218
24.58,-0.19,0.674,0.06
24.59,-0.416,1.168,-0.229
24.6,-0.118,1.035,-0.041
24.61,-0.08,0.965,0.033
24.62,-0.169,0.883,0.209
24.63,-0.286,0.829,-0.107
24.64,-0.272,1.194,-0.18
24.65,-0.086,0.879,0.112
24.66,-0.201,1.139,0.112
24.67,-0.11,0.667,-0.003
24.68,-0.463,1.177,-0.147
24.69,-0.096,1.053,-0.054
24.7,-0.139,0.886,0.06
24.71,-0.124,0.99,0.16
24.72,-0.286,0.733,-0.164
24.73,-0.298,1.203,-0.13
24.74,-0.06,0.908,0.101
24.75,-0.19,1.032,0.119
24.76,-0.209,0.673,0.017
24.77,-0.413,1.282,-0.184
24.78,-0.085,0.957,0.023
24.79,-0.18,0.954,0.113
24.8,-0.158,0.949,0.131
24.81,-0.367,0.841,-0.153
24.82,-0.295,1.23,-0.093
24.83,0.019,0.826,0.054
24.84,-0.098,1.038,0.102
24.85,-0.323,0.764,0.01
24.86,-0.272,1.136,-0.199
24.87,-0.148,1.012,-0.02
24.88,-0.179,0.857,0.239
24.89,-0.076,1.01,0.036
24.9,-0.452,0.824,-0.159
24.91,-0.254,1.26,-0.041
24.92,-0.026,0.823,0.055
24.93,-0.17,0.953,0.138
24.94,-0.248,0.84,-0.052
24.95,-0.338,1.07,-0.192
24.96,-0.178,1.09,0.038
24.97,-0.107,0.815,0.145
24.98,-0.213,1.013,0.042
24.99,-0.375,0.791,-0.174
25.0,-0.089,1.269,-0.071
25.01,-0.102,0.831,0.102
25.02,-0.167,0.915,0.143
25.03,-0.271,0.994,-0.065
25.04,-0.297,0.929,-0.165
25.05,-0.181,1.181,0.059
25.06,-0.075,0.756,0.156
25.07,-0.227,1.021,-0.006
25.08,-0.39,0.841,-0.146
25.09,-0.079,1.223,-0.074
25.1,-0.385,0.847,-0.158
25.11,-0.075,1.344,-0.083
25.12,-0.18,0.698,0.099
25.13,-0.243,0.982,0.214
25.14,-0.204,0.892,-0.157
25.15,-0.387,1.045,-0.16
25.16,-0.156,1.058,0.108
25.17,0.006,0.898,0.138
25.18,-0.26,0.955,-0.054
25.19,-0.394,0.858,-0.121
25.2,-0.148,1.277,-0.063
25.21,-0.152,0.716,0.101
25.22,-0.098,0.994,0.16
25.23,-0.352,0.926,-0.119
25.24,-0.322,0.952,-0.111
25.25,-0.092,1.17,0.088
25.26,-0.046,0.713,0.087
25.27,-0.268,1.069,0.002
25.28,-0.336,0.935,-0.182
25.29,-0.167,1.18,-0.004
25.3,-0.173,0.783,0.135
25.31,-0.179,0.907,0.133
25.32,-0.326,1.036,-0.169
25.33,-0.317,0.93,-0.033
25.34,-0.069,1.196,0.0
25.35,-0.048,0.604,0.142
25.36,-0.339,1.102,0.032
25.37,-0.329,0.89,-0.238
25.38,-0.135,1.111,0.007
25.39,-0.089,0.874,0.115
25.4,-0.16,0.848,0.107
25.41,-0.347,1.097,-0.177
25.42,-0.281,0.863,-0.047
25.43,-0.102,1.229,0.08
25.44,-0.069,0.628,0.12
25.45,-0.405,1.126,-0.014
25.46,-0.26,0.868,-0.188
25.47,-0.122,1.196,-0.026
25.48,-0.066,0.831,0.151
25.49,-0.134,0.89,0.072
25.5,-0.495,1.073,-0.176
25.51,-0.051,0.934,-0.069
25.52,-0.121,1.15,0.084
25.53,-0.182,0.629,0.196
25.54,-0.358,1.135,-0.094
25.55,-0.251,0.818,-0.202
25.56,-0.172,1.176,0.082
25.57,-0.059,0.861,0.149
25.58,-0.123,0.838,0.055
25.59,-0.414,1.16,-0.244
25.6,-0.013,0.867,-0.094
25.61,-0.157,1.159,0.079
25.62,-0.135,0.664,0.143
25.63,-0.357,1.105,-0.125
25.64,-0.25,0.841,-0.187
25.65,-0.108,1.167,0.076
25.66,-0.1,0.964,0.171
25.67,-0.253,0.73,0.037
25.68,-0.408,1.212,-0.192
25.69,-0.031,0.878,-0.056
25.7,-0.154,1.148,0.096
25.71,-0.03,0.672,0.164
25.72,-0.386,1.132,-0.142
25.73,-0.209,0.93,-0.18
25.74,-0.139,1.075,0.133
25.75,-0.167,0.944,0.191
25.76,-0.179,0.677,-0.034
25.77,-0.423,1.363,-0.2
25.78,-0.039,0.843,-0.024
25.79,-0.286,1.099,0.187
25.8,-0.079,0.749,0.139
25.81,-0.422,1.02,-0.175
25.82,-0.252,1.027,-0.069
25.83,-0.107,1.011,0.115
25.84,-0.226,1.014,0.085
25.85,-0.172,0.698,-0.017
25.86,-0.411,1.301,-0.224
25.87,-0.098,0.812,-0.004
25.88,-0.14,1.117,0.159
25.89,-0.037,0.818,0.067
25.9,-0.431,0.954,-0.188
25.91,-0.162,1.165,-0.051
25.92,-0.088,0.892,0.108
25.93,-0.2,1.013,0.126
25.94,-0.289,0.721,-0.039
25.95,-0.355,1.225,-0.193
25.96,-0.117,0.869,0.018
25.97,-0.101,1.052,0.185
25.98,-0.155,0.865,0.062
25.99,-0.366,0.913,-0.188
26.0,-0.119,1.243,-0.076
26.01,-0.105,0.793,0.078
26.02,-0.22,1.009,0.203
26.03,-0.214,0.783,-0.102
26.04,-0.315,1.181,-0.174
26.05,-0.171,0.963,0.119
26.06,-0.133,0.924,0.141
26.07,-0.162,0.922,0.006
26.08,-0.365,0.952,-0.149
26.09,-0.171,1.224,-0.058
26.1,-0.096,0.727,0.106
26.11,-0.162,1.054,0.165
26.12,-0.296,0.788,-0.128
26.13,-0.285,1.087,-0.105
26.14,-0.096,1.115,0.049
26.15,-0.137,0.794,0.154
26.16,-0.239,0.993,0.032
26.17,-0.332,0.944,-0.201
26.18,-0.186,1.233,-0.003
26.19,-0.114,0.702,0.147
26.2,-0.205,1.023,0.148
26.21,-0.357,0.892,-0.135
26.22,-0.206,0.983,-0.082
26.23,-0.145,1.194,0.087
26.24,-0.112,0.687,0.112
26.25,-0.277,1.056,-0.02
26.26,-0.329,0.898,-0.156
26.27,-0.169,1.167,-0.018
26.28,-0.114,0.7,0.168
26.29,-0.12,1.058,0.05
26.3,-0.35,0.834,-0.225
26.31,-0.215,1.079,-0.048
26.32,-0.058,1.035,0.076
26.33,-0.134,0.723,0.123
26.34,-0.327,1.096,0.006
26.35,-0.341,0.876,-0.142
26.36,-0.208,1.198,0.019
26.37,-0.068,0.774,0.152
26.38,-0.141,0.995,0.06
26.39,-0.404,0.977,-0.158
26.4,-0.147,1.033,-0.094
26.41,-0.064,1.042,0.053
26.42,-0.165,0.71,0.201
26.43,-0.368,1.126,-0.082
26.44,-0.217,0.785,-0.159
26.45,-0.224,1.277,0.074
26.46,-0.084,0.761,0.168
26.47,-0.15,0.94,0.046
26.48,-0.439,1.125,-0.197
26.49,-0.087,0.915,-0.067
26.5,-0.181,1.067,0.11
26.51,-0.045,0.67,0.092
26.52,-0.445,1.127,-0.106
26.53,-0.197,0.785,-0.177
26.54,-0.121,1.222,0.107
26.55,-0.179,0.792,0.151
26.56,-0.136,0.859,0.035
26.57,-0.521,1.192,-0.221
26.58,-0.028,0.832,-0.071
26.59,-0.171,1.175,0.117
26.6,-0.181,0.682,0.166
26.61,-0.368,1.125,-0.153
26.62,-0.219,0.85,-0.158
26.63,-0.037,1.144,0.074
26.64,-0.098,0.874,0.157
26.65,-0.229,0.794,0.032
26.66,-0.498,1.241,-0.161
26.67,-0.119,0.855,-0.018
26.68,-0.21,1.154,0.098
26.69,-0.064,0.702,0.121
26.7,-0.375,1.156,-0.152
26.71,-0.225,0.934,-0.107
26.72,-0.084,1.073,0.113
26.73,-0.101,0.91,0.142
26.74,-0.258,0.752,-0.02
26.75,-0.443,1.317,-0.184
26.76,-0.047,0.801,-0.015
26.77,-0.224,1.143,0.152
26.78,-0.118,0.694,0.119
26.79,-0.424,1.073,-0.197
26.8,-0.168,1.063,-0.065
26.81,-0.188,0.979,0.094
26.82,-0.086,0.958,0.13
26.83,-0.21,0.714,-0.051
26.84,-0.374,1.291,-0.202
26.85,-0.07,0.863,0.016
26.86,-0.267,1.102,0.192
26.87,-0.054,0.726,0.097
26.88,-0.453,1.035,-0.175
26.89,-0.14,1.126,-0.065
26.9,-0.082,0.901,0.111
26.91,-0.2,0.996,0.171
26.92,-0.227,0.742,-0.055
26.93,-0.374,1.251,-0.217
26.94,-0.118,0.864,0.014
26.95,-0.08,1.066,0.166
26.96,-0.135,0.815,0.077
26.97,-0.447,0.976,-0.167
26.98,-0.185,1.199,-0.028
26.99,-0.095,0.828,0.062
27.0,-0.143,1.028,0.126
27.01,-0.219,0.751,-0.087
27.02,-0.351,1.213,-0.164
27.03,-0.168,0.928,0.047
27.04,-0.081,0.985,0.126
27.05,-0.136,0.875,0.049
27.06,-0.474,0.926,-0.14
27.07,-0.112,1.242,-0.04
27.08,-0.23,0.812,0.064
27.09,-0.077,0.992,0.132
27.1,-0.31,0.8,-0.135
27.11,-0.314,1.24,-0.154
27.12,-0.004,0.962,0.069
27.13,-0.147,0.933,0.131
27.14,-0.123,0.835,0.023
27.15,-0.458,1.084,-0.126
27.16,-0.17,1.129,-0.008
27.17,-0.197,0.754,0.147
27.18,-0.136,1.042,0.131
27.19,-0.321,0.803,-0.155
27.2,-0.227,1.128,-0.16
27.21,-0.09,0.946,0.059
27.22,-0.112,0.876,0.135
27.23,-0.183,0.908,-0.027
27.24,-0.418,0.971,-0.146
27.25,-0.144,1.158,-0.036
27.26,-0.117,0.753,0.141
27.27,-0.134,1.073,0.142
27.28,-0.349,0.828,-0.148
27.29,-0.292,1.076,-0.074
27.3,-0.015,1.073,0.066
27.31,-0.105,0.753,0.143
27.32,-0.323,1.024,-0.004
27.33,-0.25,0.919,-0.181
27.34,-0.186,1.171,-0.023
27.35,-0.123,0.736,0.143
27.36,-0.094,1.02,0.054
27.37,-0.364,0.911,-0.165
27.38,-0.255,1.036,-0.058
27.39,-0.082,1.094,0.083
27.4,-0.144,0.685,0.148
27.41,-0.328,1.085,-0.031
27.42,-0.265,0.874,-0.217
27.43,-0.141,1.186,-0.01
27.44,-0.14,0.762,0.202
27.45,-0.128,0.917,0.084
27.46,-0.418,0.967,-0.184
27.47,-0.16,0.933,-0.033
27.48,-0.062,1.153,0.073
27.49,-0.126,0.641,0.142
27.5,-0.303,1.119,-0.043
27.51,-0.28,0.882,-0.187
27.52,-0.169,1.174,0.009
27.53,-0.033,0.862,0.164
27.54,-0.166,0.845,0.045
27.55,-0.434,1.053,-0.184
27.56,-0.097,0.92,-0.078
27.57,-0.113,1.161,0.094
27.58,-0.156,0.631,0.163
27.59,-0.264,1.163,-0.123
27.6,-0.282,0.853,-0.177
27.61,-0.118,1.149,0.058
27.62,-0.157,0.933,0.183
27.63,-0.157,0.77,0.003
27.64,-0.436,1.18,-0.202
27.65,-0.15,0.904,-0.04
27.66,-0.107,1.132,0.074
27.67,-0.145,0.681,0.155
27.68,-0.397,1.148,-0.106
27.69,-0.268,0.904,-0.159
27.7,-0.149,1.096,0.12
27.71,-0.108,0.997,0.147
27.72,-0.15,0.704,-0.008
27.73,-0.455,1.252,-0.172
27.74,-0.084,0.847,-0.041
27.75,-0.17,1.133,0.093
27.76,-0.162,0.671,0.173
27.77,-0.365,1.039,-0.135
27.78,-0.235,0.991,-0.164
27.79,-0.109,1.024,0.094
27.8,-0.105,1.022,0.122
27.81,-0.215,0.688,-0.019
27.82,-0.447,1.299,-0.191
27.83,-0.015,0.911,-0.045
27.84,-0.14,1.079,0.092
27.85,-0.097,0.792,0.166
27.86,-0.37,0.994,-0.17
27.87,-0.341,1.03,-0.138
27.88,-0.02,0.986,0.116
27.89,-0.173,1.067,0.091
27.9,-0.293,0.752,0.013
27.91,-0.277,1.316,-0.208
27.92,-0.125,0.799,0.004
27.93,-0.164,1.135,0.198
27.94,-0.087,0.73,0.067
27.95,-0.493,1.088,-0.198
27.96,-0.158,1.031,-0.016
27.97,-0.056,0.969,0.084
27.98,-0.267,0.964,0.171
27.99,-0.19,0.738,-0.056
28.0,-0.359,1.313,-0.18
28.01,-0.128,0.838,0.042
28.02,-0.108,1.094,0.171
28.03,-0.117,0.732,0.039
28.04,-0.433,1.09,-0.168
28.05,-0.126,1.172,-0.022
28.06,-0.123,0.836,0.064
28.07,-0.179,1.001,0.157
28.08,-0.28,0.778,-0.085
28.09,-0.273,1.212,-0.168
28.1,-0.086,0.9,0.057
28.11,-0.115,1.006,0.175
28.12,-0.218,0.804,0.046
28.13,-0.383,0.998,-0.204
28.14,-0.125,1.211,-0.031
28.15,-0.14,0.746,0.115
28.16,-0.133,1.054,0.134
28.17,-0.313,0.781,-0.141
28.18,-0.296,1.115,-0.148
28.19,-0.039,0.964,0.086
28.2,-0.125,0.952,0.127
28.21,-0.224,0.868,-0.019
28.22,-0.347,0.983,-0.145
28.23,-0.135,1.244,-0.073
28.24,-0.065,0.704,0.101
28.25,-0.14,1.093,0.148
28.26,-0.425,0.833,-0.146
28.27,-0.237,1.077,-0.102
28.28,-0.028,1.082,0.082
28.29,-0.189,0.742,0.152
28.3,-0.25,1.033,0.005
28.31,-0.334,0.912,-0.191
28.32,-0.181,1.168,0.007
28.33,-0.073,0.762,0.156
28.34,-0.224,0.997,0.069
28.35,-0.363,0.905,-0.172
28.36,-0.184,1.064,-0.052
28.37,-0.117,1.023,0.092
28.38,-0.153,0.684,0.186
28.39,-0.329,1.122,-0.037
28.4,-0.301,0.828,-0.205
28.41,-0.151,1.194,0.05
28.42,-0.048,0.855,0.103
28.43,-0.185,0.888,0.04
28.44,-0.371,0.994,-0.134
28.45,-0.084,1.047,-0.108
28.46,-0.145,1.073,0.101
28.47,-0.096,0.68,0.187
28.48,-0.362,1.167,-0.059
28.49,-0.339,0.74,-0.201
28.5,-0.122,1.189,0.059
28.51,-0.098,0.883,0.163
28.52,-0.216,0.839,0.042
28.53,-0.384,1.1,-0.181
28.54,-0.123,0.941,-0.082
28.55,-0.163,1.078,0.115
28.56,-0.154,0.665,0.2
28.57,-0.354,1.192,-0.106
28.58,-0.223,0.826,-0.229
28.59,-0.097,1.159,0.129
28.6,-0.123,0.893,0.164
28.61,-0.219,0.769,0.021
28.62,-0.36,1.207,-0.178
28.63,-0.183,0.847,-0.046
28.64,-0.218,1.087,0.104
28.65,0.018,0.716,0.151
28.66,-0.387,1.133,-0.183
28.67,-0.292,0.861,-0.12
28.68,-0.03,1.156,0.046
28.69,-0.11,0.912,0.131
28.7,-0.223,0.722,0.054
28.71,-0.401,1.333,-0.179
28.72,-0.187,0.845,-0.042
28.73,-0.18,1.084,0.135
28.74,-0.117,0.701,0.156
28.75,-0.527,1.173,-0.185
28.76,-0.212,0.811,-0.061
28.77,-0.105,1.239,0.053
28.78,-0.118,0.771,0.114
28.79,-0.233,0.822,0.01
28.8,-0.311,1.301,-0.204
28.81,-0.15,0.768,-0.052
28.82,-0.189,1.156,0.218
28.83,-0.046,0.69,0.073
28.84,-0.527,1.134,-0.189
28.85,-0.214,0.972,-0.006
28.86,-0.114,1.133,0.053
28.87,-0.163,0.829,0.116
28.88,-0.182,0.832,-0.001
28.89,-0.412,1.287,-0.227
28.9,-0.063,0.726,-0.049
28.91,-0.108,1.222,0.158
28.92,-0.065,0.676,0.077
28.93,-0.506,1.071,-0.156
28.94,-0.06,1.088,-0.09
28.95,-0.187,0.959,0.066
28.96,-0.171,0.905,0.17
28.97,-0.167,0.778,-0.075
28.98,-0.359,1.228,-0.246
28.99,-0.094,0.851,0.078
29.0,-0.126,1.194,0.118
29.01,-0.129,0.715,0.054
29.02,-0.405,0.983,-0.152
29.03,-0.119,1.132,-0.068
29.04,-0.102,0.896,0.119
29.05,-0.163,1.009,0.157
29.06,-0.269,0.743,-0.052
29.07,-0.347,1.253,-0.215
29.08,-0.069,0.863,-0.021
29.09,-0.092,1.081,0.17
29.1,-0.15,0.844,0.049
29.11,-0.395,0.927,-0.193
29.12,-0.092,1.229,-0.054
29.13,-0.107,0.804,0.104
29.14,-0.187,1.023,0.202
29.15,-0.253,0.809,-0.093
29.16,-0.327,1.175,-0.181
29.17,-0.22,0.929,0.086
29.18,-0.059,0.944,0.115
29.19,-0.201,0.901,0.072
29.2,-0.441,0.918,-0.175
29.21,-0.114,1.261,-0.045
29.22,-0.114,0.789,0.083
29.23,-0.141,1.038,0.17
29.24,-0.251,0.791,-0.146
29.25,-0.309,1.067,-0.162
29.26,-0.148,1.067,0.093
29.27,-0.129,0.883,0.129
29.28,-0.172,0.96,0.007
29.29,-0.384,0.899,-0.141
29.3,-0.14,1.251,-0.106
29.31,-0.093,0.749,0.106
29.32,-0.14,1.005,0.201
29.33,-0.314,0.861,-0.146
29.34,-0.282,0.982,-0.134
29.35,-0.104,1.202,0.108
29.36,-0.187,0.763,0.153
29.37,-0.205,1.009,0.049
29.38,-0.388,0.954,-0.142
29.39,-0.228,1.207,-0.018
29.4,-0.091,0.749,0.086
29.41,-0.09,0.96,0.125
29.42,-0.396,0.946,-0.131
29.43,-0.242,0.911,-0.119
29.44,-0.104,1.256,0.063
29.45,-0.094,0.673,0.104
29.46,-0.261,1.062,0.059
29.47,-0.317,0.916,-0.187
29.48,-0.238,1.12,-0.033
29.49,-0.147,0.798,0.162
29.5,-0.138,0.888,0.146
29.51,-0.437,1.027,-0.166
29.52,-0.158,0.833,-0.079
29.53,-0.107,1.282,0.041
29.54,-0.086,0.63,0.127
29.55,-0.255,1.161,0.017
29.56,-0.394,0.856,-0.207
29.57,-0.136,1.178,0.031
29.58,-0.138,0.862,0.17
29.59,-0.142,0.91,0.034
29.6,-0.32,0.965,-0.183
29.61,-0.17,1.004,-0.057
29.62,-0.146,1.147,0.076
29.63,-0.094,0.61,0.15
29.64,-0.337,1.167,-0.011
29.65,-0.277,0.846,-0.236
29.66,-0.185,1.098,-0.013
29.67,-0.019,0.907,0.148
29.68,-0.21,0.881,0.084
29.69,-0.349,1.037,-0.19
29.7,-0.112,0.936,-0.06
29.71,-0.116,1.171,0.066
29.72,-0.053,0.607,0.152
29.73,-0.362,1.131,-0.071
29.74,-0.323,0.792,-0.203
29.75,-0.129,1.11,0.051
29.76,-0.148,1.011,0.175
29.77,-0.18,0.78,0.078
29.78,-0.355,1.158,-0.182
29.79,-0.172,0.942,-0.09
29.8,-0.095,1.125,0.059
29.81,-0.085,0.646,0.181
29.82,-0.325,1.098,-0.103
29.83,-0.327,0.848,-0.165
29.84,-0.094,1.082,0.088
29.85,-0.186,1.056,0.129
29.86,-0.134,0.687,0.041
29.87,-0.392,1.224,-0.233
29.88,-0.116,0.868,-0.053
29.89,-0.179,1.156,0.12
29.9,-0.047,0.667,0.134
29.91,-0.383,1.061,-0.087
29.92,-0.334,0.988,-0.148
29.93,-0.091,0.995,0.055
29.94,-0.126,1.086,0.115
29.95,-0.174,0.646,0.028
29.96,-0.409,1.272,-0.199
29.97,-0.083,0.923,-0.08
29.98,-0.208,1.061,0.127
29.99,-0.088,0.768,0.185
30.0,-0.378,0.999,-0.177
30.01,-0.245,1.01,-0.131
30.02,-0.143,1.002,0.132
30.03,-0.152,1.089,0.111
30.04,-0.157,0.645,-0.001
30.05,-0.457,1.324,-0.151
30.06,-0.1,0.906,-0.081
30.07,-0.153,1.018,0.111
30.08,-0.024,0.854,0.127
30.09,-0.459,0.895,-0.12
30.1,-0.241,1.134,-0.125
30.11,-0.012,0.922,0.092
30.12,-0.168,1.0,0.13
30.13,-0.24,0.688,0.039
30.14,-0.352,1.252,-0.197
30.15,-0.1,0.942,-0.046
30.16,-0.146,1.021,0.182
30.17,-0.099,0.919,0.114
30.18,-0.381,0.836,-0.191
30.19,-0.208,1.269,-0.076
30.2,-0.042,0.878,0.016
30.21,-0.11,0.99,0.163
30.22,-0.242,0.789,0.01
30.23,-0.382,1.192,-0.186
30.24,-0.131,0.975,-0.009
30.25,-0.153,0.901,0.225
30.26,-0.137,0.979,0.084
30.27,-0.414,0.796,-0.189
30.28,-0.188,1.265,-0.05
30.29,-0.1,0.871,0.031
30.3,-0.106,0.948,0.132
30.31,-0.257,0.85,-0.012
30.32,-0.362,1.073,-0.212
30.33,-0.101,1.053,-0.039
30.34,-0.083,0.884,0.144
30.35,-0.183,0.884,0.02
30.36,-0.448,0.9,-0.129
30.37,-0.12,1.245,-0.096
30.38,-0.128,0.768,0.085
30.39,-0.156,1.005,0.206
30.4,-0.333,0.815,-0.122
30.41,-0.302,1.052,-0.146
30.42,-0.105,1.103,0.057
30.43,-0.1,0.824,0.141
30.44,-0.269,1.015,0.087
30.45,-0.358,0.923,-0.169
30.46,-0.173,1.256,-0.077
30.47,-0.134,0.706,0.121
30.48,-0.084,1.011,0.166
30.49,-0.353,0.882,-0.147
30.5,-0.286,0.967,-0.126
30.51,-0.098,1.174,0.112
30.52,-0.129,0.766,0.129
30.53,-0.299,1.034,0.048
30.54,-0.244,0.887,-0.193
30.55,-0.255,1.235,0.009
30.56,-0.151,0.756,0.163
30.57,-0.133,0.947,0.134
30.58,-0.341,0.963,-0.181
30.59,-0.244,0.883,-0.07
30.6,-0.151,1.254,0.083
30.61,-0.088,0.658,0.113
30.62,-0.302,1.045,0.031
30.63,-0.311,0.917,-0.155
30.64,-0.142,1.165,0.01
30.65,-0.177,0.842,0.151
30.66,-0.18,0.892,0.168
30.67,-0.361,1.077,-0.176
30.68,-0.26,0.859,-0.119
30.69,-0.077,1.264,0.065
30.7,-0.01,0.639,0.131
30.71,-0.337,1.077,-0.01
30.72,-0.337,0.932,-0.175
30.73,-0.078,1.07,-0.025
30.74,-0.228,0.906,0.16
30.75,-0.114,0.802,0.122
30.76,-0.399,1.174,-0.232
30.77,-0.232,0.839,-0.056
30.78,-0.078,1.281,0.067
30.79,-0.077,0.634,0.158
30.8,-0.415,1.021,-0.001
30.81,-0.23,0.986,-0.223
30.82,-0.077,0.994,-0.009
30.83,-0.223,1.007,0.166
30.84,-0.119,0.702,0.032
30.85,-0.382,1.155,-0.208
30.86,-0.175,0.894,-0.015
30.87,-0.168,1.259,0.086
30.88,-0.047,0.638,0.112
30.89,-0.303,0.984,-0.035
30.9,-0.357,1.037,-0.17
30.91,-0.031,0.978,-0.018
30.92,-0.137,1.101,0.121
30.93,-0.12,0.657,0.084
30.94,-0.393,1.288,-0.185
30.95,-0.146,0.903,-0.11
30.96,-0.108,1.115,0.065
30.97,-0.073,0.783,0.152
30.98,-0.343,0.926,-0.07
30.99,-0.347,1.057,-0.169
31.0,-0.058,0.927,0.018
31.01,-0.183,1.155,0.141
31.02,-0.091,0.648,0.071
31.03,-0.453,1.238,-0.219
31.04,-0.133,0.918,-0.041
31.05,-0.116,1.072,0.132
31.06,-0.142,0.86,0.17
31.07,-0.366,0.903,-0.072
31.08,-0.315,1.156,-0.136
31.09,-0.176,0.855,0.084
31.1,-0.141,1.14,0.134
31.11,-0.09,0.653,0.015
31.12,-0.444,1.211,-0.134
31.13,-0.159,0.994,-0.088
31.14,-0.103,0.938,0.125
31.15,-0.138,0.925,0.183
31.16,-0.36,0.805,-0.131
31.17,-0.195,1.122,-0.111
31.18,-0.134,0.969,0.073
31.19,-0.168,1.0,0.115
31.2,-0.176,0.673,0.025
31.21,-0.402,1.309,-0.218
31.22,-0.118,0.91,0.026
31.23,-0.143,1.038,0.12
31.24,-0.171,0.865,0.107
31.25,-0.361,0.848,-0.179
31.26,-0.22,1.199,-0.098
31.27,-0.09,0.912,0.093
31.28,-0.145,1.041,0.117
31.29,-0.258,0.685,0.001
31.3,-0.346,1.235,-0.199
31.31,-0.124,0.966,0.005
31.32,-0.163,0.915,0.154
31.33,-0.153,0.962,0.071
31.34,-0.399,0.84,-0.198
31.35,-0.231,1.247,-0.099
31.36,0.009,0.903,0.054
31.37,-0.202,0.985,0.172
31.38,-0.276,0.748,-0.034
31.39,-0.276,1.174,-0.211
31.4,-0.054,1.053,-0.039
31.41,-0.153,0.836,0.186
31.42,-0.179,0.989,0.105
31.43,-0.344,0.82,-0.188
31.44,-0.223,1.246,-0.052
31.45,-0.068,0.841,0.074
31.46,-0.112,0.933,0.144
31.47,-0.282,0.898,-0.042
31.48,-0.353,1.019,-0.177
31.49,-0.22,1.071,0.034
31.5,-0.014,0.815,0.177
31.51,-0.212,1.056,0.039
31.52,-0.369,0.809,-0.171
31.53,-0.115,1.233,-0.073
31.54,-0.157,0.864,0.127
31.55,-0.17,0.876,0.158
31.56,-0.25,1.016,-0.075
31.57,-0.336,0.912,-0.136
31.58,-0.199,1.161,0.08
31.59,-0.019,0.785,0.128
31.6,-0.23,1.018,0.013
31.61,-0.384,0.866,-0.143
31.62,-0.145,1.189,-0.098
31.63,-0.152,0.795,0.06
31.64,-0.11,0.813,0.188
31.65,-0.41,1.108,-0.118
31.66,-0.232,0.748,-0.176
31.67,-0.12,1.265,0.131
31.68,-0.144,0.716,0.178
31.69,-0.174,1.031,-0.012
31.7,-0.384,0.956,-0.124
31.71,-0.228,1.105,-0.017
31.72,-0.13,0.946,0.071
31.73,-0.078,0.75,0.133
31.74,-0.399,1.156,-0.126
31.75,-0.249,0.821,-0.139
31.76,-0.127,1.282,0.079
31.77,-0.125,0.696,0.177
31.78,-0.246,0.994,0.01
31.79,-0.396,1.037,-0.155
31.8,-0.12,1.014,-0.016
31.81,-0.182,1.032,0.11
31.82,-0.126,0.685,0.161
31.83,-0.362,1.209,-0.136
31.84,-0.205,0.82,-0.14
31.85,-0.208,1.232,0.121
31.86,-0.102,0.717,0.154
31.87,-0.284,0.913,0.0
31.88,-0.397,1.128,-0.172
31.89,-0.073,0.932,-0.041
31.9,-0.198,1.082,0.124
31.91,-0.112,0.709,0.151
31.92,-0.439,1.185,-0.183
31.93,-0.213,0.835,-0.133
31.94,-0.007,1.211,0.077
31.95,-0.13,0.766,0.147
31.96,-0.301,0.897,0.051
31.97,-0.369,1.211,-0.218
31.98,-0.094,0.784,-0.066
31.99,-0.066,1.056,0.144
32.0,-0.151,0.707,0.073
32.01,-0.452,1.204,-0.173
32.02,-0.062,0.857,-0.05
32.03,-0.17,1.222,0.097
32.04,-0.159,0.71,0.192
32.05,-0.273,0.943,-0.087
32.06,-0.34,1.08,-0.131
32.07,-0.134,0.952,0.064
32.08,-0.081,1.126,0.114
32.09,-0.142,0.661,0.034
32.1,-0.436,1.309,-0.201
32.11,-0.106,0.904,-0.105
32.12,-0.144,1.025,0.079
32.13,-0.077,0.834,0.161
32.14,-0.354,0.896,-0.131
32.15,-0.324,1.081,-0.126
32.16,-0.095,0.917,0.088
32.17,-0.178,1.122,0.125
32.18,-0.083,0.588,0.032
32.19,-0.422,1.313,-0.204
32.2,-0.119,0.922,-0.05
32.21,-0.142,0.968,0.099
32.22,-0.065,0.911,0.168
32.23,-0.395,0.834,-0.169
32.24,-0.275,1.131,-0.138
32.25,-0.044,0.938,0.081
32.26,-0.165,1.088,0.114
32.27,-0.153,0.663,0.049
32.28,-0.441,1.261,-0.17
32.29,-0.129,0.998,-0.045
32.3,-0.161,0.897,0.141
32.31,-0.099,0.99,0.159
32.32,-0.404,0.743,-0.162
32.33,-0.257,1.2,-0.104
32.34,-0.056,0.959,0.076
32.35,-0.172,0.97,0.134
32.36,-0.272,0.78,0.014
32.37,-0.315,1.146,-0.228
32.38,-0.129,1.008,-0.051
32.39,-0.145,0.854,0.199
32.4,-0.122,1.045,0.1
32.41,-0.398,0.786,-0.194
32.42,-0.246,1.229,-0.054
32.43,-0.049,0.886,0.031
32.44,-0.132,0.9,0.145
32.45,-0.222,0.873,0.002
32.46,-0.323,1.039,-0.162
32.47,-0.134,1.088,-0.044
32.48,-0.139,0.809,0.156
32.49,-0.111,1.067,0.061
32.5,-0.352,0.792,-0.205
32.51,-0.189,1.236,-0.094
32.52,-0.093,0.955,0.067
32.53,-0.132,0.812,0.158
32.54,-0.224,0.997,0.003
32.55,-0.42,0.989,-0.138
32.56,-0.136,1.147,-0.022
32.57,-0.102,0.794,0.193
32.58,-0.199,1.037,0.101
32.59,-0.359,0.834,-0.24
32.6,-0.164,1.166,-0.062
32.61,-0.165,0.934,0.118
32.62,-0.182,0.733,0.178
32.63,-0.281,1.097,-0.065
32.64,-0.243,0.859,-0.157
32.65,-0.253,1.195,0.047
32.66,-0.081,0.724,0.145
32.67,-0.133,1.051,0.066
32.68,-0.366,0.927,-0.24
32.69,-0.156,1.031,-0.048
32.7,-0.094,1.069,0.102
32.71,-0.14,0.714,0.13
32.72,-0.392,1.122,-0.077
32.73,-0.232,0.795,-0.163
32.74,-0.206,1.252,0.051
32.75,-0.122,0.775,0.156
32.76,-0.11,0.955,0.042
32.77,-0.349,0.993,-0.242
32.78,-0.137,1.0,-0.058
32.79,-0.139,1.093,0.069
32.8,-0.187,0.775,0.176
32.81,-0.391,1.112,-0.108
32.82,-0.195,0.823,-0.127
32.83,-0.157,1.256,0.066
32.84,-0.043,0.723,0.113
32.85,-0.172,1.008,0.013
32.86,-0.461,0.97,-0.196
32.87,-0.114,1.036,-0.036
32.88,-0.115,0.971,0.052
32.89,-0.191,0.729,0.195
32.9,-0.358,1.147,-0.133
32.91,-0.231,0.808,-0.162
32.92,-0.146,1.27,0.109
32.93,-0.087,0.72,0.136
32.94,-0.26,0.967,0.013
32.95,-0.301,1.073,-0.199
32.96,-0.145,0.941,-0.047
32.97,-0.196,1.021,0.143
32.98,-0.027,0.718,0.138
32.99,-0.474,1.173,-0.167
33.0,-0.195,0.788,-0.101
33.01,-0.086,1.253,0.048
33.02,-0.095,0.757,0.16
33.03,-0.259,0.918,-0.039
33.04,-0.354,1.127,-0.19
33.05,-0.141,0.854,-0.005
33.06,-0.162,1.15,0.135
33.07,-0.123,0.704,0.101
33.08,-0.408,1.149,-0.229
33.09,-0.189,0.875,-0.034
33.1,-0.138,1.154,0.067
33.11,-0.067,0.806,0.137
33.12,-0.268,0.84,0.006
33.13,-0.451,1.196,-0.173
33.14,-0.09,0.794,0.042
33.15,-0.206,1.172,0.083
33.16,-0.073,0.683,0.153
33.17,-0.479,1.17,-0.21
33.18,-0.232,0.906,-0.066
33.19,-0.035,1.104,0.1
33.2,-0.1,0.931,0.107
33.21,-0.342,0.727,-0.006
33.22,-0.289,1.284,-0.171
33.23,-0.121,0.845,-0.012
33.24,-0.234,1.136,0.161
33.25,-0.027,0.697,0.104
33.26,-0.499,1.112,-0.174
33.27,-0.178,1.058,-0.036
33.28,-0.066,1.021,0.065
33.29,-0.16,0.919,0.115
33.3,-0.216,0.727,-0.065
33.31,-0.324,1.287,-0.194
33.32,-0.092,0.866,0.021
33.33,-0.193,1.122,0.144
33.34,-0.102,0.724,0.054
33.35,-0.4,1.025,-0.208
33.36,-0.161,1.169,-0.028
33.37,-0.082,0.86,0.071
33.38,-0.181,1.021,0.125
33.39,-0.275,0.707,-0.086
33.4,-0.315,1.241,-0.164
33.41,-0.086,0.897,0.043
33.42,-0.145,1.035,0.172
33.43,-0.129,0.851,0.045
33.44,-0.113,0.911,0.108
33.45,0.01,1.031,0.108
33.46,-0.332,0.688,0.031
33.47,-0.347,1.217,-0.218
33.48,-0.077,0.964,-0.036
33.49,-0.273,0.925,0.155
33.5,-0.127,0.969,0.128
33.51,-0.303,0.846,-0.194
33.52,-0.333,1.24,-0.023
33.53,-0.086,0.846,0.059
33.54,-0.019,0.993,0.119
33.55,-0.262,0.795,0.013
33.56,-0.344,1.261,-0.231
33.57,-0.099,0.895,-0.048
33.58,-0.186,1.032,0.179
33.59,-0.125,0.854,0.094
33.6,-0.391,0.94,-0.152
33.61,-0.172,1.218,-0.072
33.62,-0.155,0.838,0.094
33.63,-0.106,1.021,0.137
33.64,-0.273,0.793,-0.06
33.65,-0.34,1.163,-0.216
33.66,-0.016,1.009,-0.028
33.67,-0.221,0.985,0.165
33.68,-0.091,0.927,0.078
33.69,-0.39,0.885,-0.167
33.7,-0.243,1.282,-0.009
33.71,-0.084,0.797,0.085
33.72,-0.158,0.971,0.137
33.73,-0.308,0.795,-0.037
33.74,-0.311,1.066,-0.153
33.75,-0.066,1.091,0.006
33.76,-0.16,0.863,0.198
33.77,-0.283,0.997,0.066
33.78,-0.379,0.806,-0.193
33.79,-0.158,1.297,-0.062
33.8,-0.077,0.817,0.074
33.81,-0.216,0.907,0.174
33.82,-0.254,0.919,-0.106
33.83,-0.343,0.986,-0.114
33.84,-0.214,1.093,0.036
33.85,-0.014,0.77,0.109
33.86,-0.21,1.014,-0.049
33.87,-0.391,0.856,-0.128
33.88,-0.085,1.246,-0.105
33.89,-0.15,0.821,0.074
33.9,-0.128,0.85,0.221
33.91,-0.358,1.068,-0.105
33.92,-0.304,0.851,-0.182
33.93,-0.077,1.236,0.056
33.94,-0.042,0.703,0.155
33.95,-0.305,1.049,0.008
33.96,-0.345,0.927,-0.163
33.97,-0.136,1.139,-0.09
33.98,-0.155,0.854,0.11
33.99,-0.1,0.825,0.192
34.0,-0.39,1.112,-0.128
34.01,-0.257,0.826,-0.126
34.02,-0.13,1.353,0.057
34.03,-0.048,0.66,0.113
34.04,-0.263,1.022,0.058
34.05,-0.361,1.012,-0.146
34.06,-0.171,1.003,-0.048
34.07,-0.151,0.91,0.089
34.08,-0.124,0.732,0.183
34.09,-0.383,1.137,-0.148
34.1,-0.222,0.766,-0.127
34.11,-0.208,1.267,0.095
34.12,-0.042,0.754,0.111
34.13,-0.244,0.957,-0.012
34.14,-0.382,1.07,-0.143
34.15,-0.071,1.0,-0.075
34.16,-0.159,0.975,0.096
34.17,-0.119,0.748,0.202
34.18,-0.451,1.173,-0.16
34.19,-0.216,0.742,-0.168
34.2,-0.025,1.298,0.015
34.21,-0.175,0.704,0.163
34.22,-0.234,0.918,0.007
34.23,-0.344,1.116,-0.187
34.24,-0.152,0.864,-0.013
34.25,-0.143,1.13,0.113
34.26,-0.092,0.692,0.114
34.27,-0.465,1.152,-0.142
34.28,-0.171,0.87,-0.128
34.29,-0.077,1.235,0.038
34.3,-0.128,0.755,0.153
34.31,-0.22,0.839,-0.004
34.32,-0.446,1.218,-0.174
34.33,-0.038,0.812,-0.044
34.34,-0.145,1.189,0.152
34.35,-0.146,0.706,0.124
34.36,-0.409,1.104,-0.196
34.37,-0.228,0.946,-0.084
34.38,-0.074,1.235,0.071
34.39,-0.106,0.704,0.144
34.4,-0.322,0.909,-0.058
34.41,-0.289,1.114,-0.175
34.42,-0.094,0.868,0.015
34.43,-0.184,1.149,0.187
34.44,-0.112,0.681,0.055
34.45,-0.396,1.169,-0.209
34.46,-0.184,0.922,0.04
34.47,-0.125,1.162,0.107
34.48,-0.115,0.786,0.108
34.49,-0.242,0.874,-0.075
34.5,-0.356,1.18,-0.158
34.51,-0.11,0.898,0.029
34.52,-0.188,1.16,0.136
34.53,-0.095,0.641,-0.025
34.54,-0.425,1.267,-0.157
34.55,-0.153,1.011,-0.041
34.56,-0.172,0.969,0.139
34.57,-0.174,0.904,0.159
34.58,-0.317,0.821,-0.105
34.59,-0.309,1.174,-0.15
34.6,-0.165,0.888,0.079
34.61,-0.098,1.141,0.08
34.62,-0.143,0.642,0.03
34.63,-0.454,1.202,-0.135
34.64,-0.108,1.075,-0.086
34.65,-0.126,0.807,0.076
34.66,-0.163,0.999,0.185
34.67,-0.316,0.801,-0.127
34.68,-0.256,1.214,-0.175
34.69,-0.102,0.89,0.065
34.7,-0.146,1.018,0.14
34.71,-0.14,0.809,-0.01
34.72,-0.468,1.128,-0.163
34.73,-0.093,1.036,-0.035
34.74,-0.133,0.861,0.143
34.75,-0.234,1.044,0.16
34.76,-0.254,0.742,-0.172
34.77,-0.199,1.232,-0.147
34.78,-0.153,0.947,0.079
34.79,-0.114,0.908,0.159
34.8,-0.226,0.868,-0.017
34.81,-0.427,1.031,-0.115
34.82,-0.12,1.118,-0.027
34.83,-0.095,0.795,0.128
34.84,-0.232,1.103,0.154
34.85,-0.261,0.75,-0.204
34.86,-0.221,1.178,-0.141
34.87,-0.054,0.971,0.058
34.88,-0.085,0.821,0.15
34.89,-0.303,0.96,-0.013
34.9,-0.384,0.934,-0.11
34.91,-0.177,1.186,-0.01
34.92,-0.061,0.736,0.104
34.93,-0.209,1.088,0.116
34.94,-0.345,0.799,-0.186
34.95,-0.239,1.118,-0.086
34.96,-0.088,1.027,0.022
34.97,-0.067,0.723,0.135
34.98,-0.343,1.055,-0.0
34.99,-0.27,0.873,-0.2
35.0,-0.119,1.195,-0.048
35.01,-0.122,0.778,0.155
35.02,-0.194,1.012,0.092
35.03,-0.341,0.896,-0.163
35.04,-0.256,1.033,-0.083
35.05,-0.059,1.111,0.054
35.06,-0.06,0.71,0.111
35.07,-0.403,1.114,0.001
35.08,-0.279,0.833,-0.181
35.09,-0.187,1.226,-0.006
35.1,-0.112,0.791,0.133
35.11,-0.135,0.914,0.072
35.12,-0.395,0.989,-0.175
35.13,-0.207,0.98,-0.077
35.14,-0.07,1.176,0.071
35.15,-0.129,0.631,0.147
35.16,-0.333,1.124,-0.034
35.17,-0.318,0.912,-0.181
35.18,-0.196,1.09,0.015
35.19,-0.073,0.884,0.163
35.2,-0.192,0.977,-0.0
35.21,-0.367,0.922,-0.16
35.22,-0.108,1.1,-0.039
35.23,-0.194,1.057,0.069
35.24,-0.097,0.654,0.136
35.25,-0.407,1.19,-0.048
35.26,-0.233,0.809,-0.198
35.27,-0.182,1.17,0.041
35.28,-0.09,0.813,0.198
35.29,-0.193,0.887,0.009
35.3,-0.396,1.025,-0.191
35.31,-0.11,1.013,-0.071
35.32,-0.18,1.082,0.079
35.33,-0.114,0.642,0.143
35.34,-0.377,1.229,-0.093
35.35,-0.242,0.8,-0.154
35.36,-0.195,1.186,0.106
35.37,-0.03,0.871,0.11
35.38,-0.21,0.815,-0.007
35.39,-0.428,1.124,-0.147
35.4,-0.07,0.901,-0.044
35.41,-0.227,1.172,0.075
35.42,-0.117,0.636,0.199
35.43,-0.418,1.146,-0.106
35.44,-0.236,0.901,-0.15
35.45,-0.065,1.134,0.091
35.46,-0.155,0.854,0.149
35.47,-0.245,0.771,-0.002
35.48,-0.374,1.271,-0.168
35.49,-0.19,0.833,0.001
35.5,-0.23,1.145,0.092
35.51,-0.094,0.712,0.158
35.52,-0.392,1.103,-0.161
35.53,-0.238,0.936,-0.138
35.54,-0.069,1.068,0.078
35.55,-0.158,0.932,0.144
35.56,-0.175,0.724,-0.002
35.57,-0.503,1.331,-0.165
35.58,-0.072,0.796,-0.039
35.59,-0.156,1.168,0.138
35.6,-0.118,0.748,0.129
35.61,-0.436,1.005,-0.189
35.62,-0.188,1.062,-0.082
35.63,-0.078,0.992,0.095
35.64,-0.109,0.951,0.124
35.65,-0.19,0.734,-0.001
35.66,-0.392,1.341,-0.238
35.67,-0.041,0.757,-0.027
35.68,-0.215,1.144,0.188
35.69,-0.115,0.801,0.054
35.7,-0.407,0.949,-0.149
35.71,-0.24,1.193,-0.051
35.72,-0.087,0.929,0.077
35.73,-0.151,0.989,0.137
35.74,-0.233,0.741,-0.02
35.75,-0.377,1.238,-0.204
35.76,-0.111,0.898,-0.006
35.77,-0.102,1.024,0.181
35.78,-0.159,0.88,0.073
35.79,-0.406,0.906,-0.154
35.8,-0.21,1.277,-0.051
35.81,-0.123,0.783,0.088
35.82,-0.115,1.011,0.133
35.83,-0.307,0.792,-0.073
35.84,-0.306,1.168,-0.178
35.85,-0.089,0.965,0.026
35.86,-0.155,0.932,0.138
35.87,-0.129,0.963,0.057
35.88,-0.334,0.908,-0.204
35.89,-0.191,1.252,-0.058
35.9,-0.066,0.752,0.092
35.91,-0.225,1.001,0.196
35.92,-0.343,0.828,-0.102
35.93,-0.299,1.026,-0.143
35.94,-0.087,1.087,0.09
35.95,-0.121,0.807,0.162
35.96,-0.205,1.018,0.035
35.97,-0.369,0.899,-0.185
35.98,-0.206,1.232,-0.085
35.99,-0.132,0.744,0.12
36.0,-0.182,0.994,0.205
36.01,-0.348,0.755,-0.168
36.02,-0.262,1.138,-0.038
36.03,-0.106,1.064,0.073
36.04,-0.112,0.749,0.129
36.05,-0.256,1.023,0.005
36.06,-0.353,0.958,-0.176
36.07,-0.118,1.167,-0.027
36.08,-0.112,0.749,0.175
36.09,-0.193,1.032,0.123
36.1,-0.355,0.868,-0.168
36.11,-0.213,1.057,-0.086
36.12,-0.082,1.118,0.066
36.13,-0.13,0.675,0.141
36.14,-0.343,1.062,0.011
36.15,-0.285,0.888,-0.24
36.16,-0.148,1.173,-0.009
36.17,-0.135,0.794,0.166
36.18,-0.19,0.957,0.1
36.19,-0.339,0.981,-0.212
36.2,-0.182,0.978,-0.041
36.21,-0.146,1.098,0.092
36.22,-0.041,0.619,0.121
36.23,-0.386,1.145,-0.034
36.24,-0.312,0.793,-0.153
36.25,-0.135,1.184,0.035
36.26,-0.17,0.844,0.163
36.27,-0.112,0.881,0.084
36.28,-0.346,1.128,-0.226
36.29,-0.092,0.921,-0.069
36.3,-0.18,1.173,0.129
36.31,-0.104,0.64,0.157
36.32,-0.345,1.129,-0.067
36.33,-0.281,0.853,-0.144
36.34,-0.155,1.188,0.074
36.35,-0.176,0.916,0.169
36.36,-0.094,0.79,0.03
36.37,-0.476,1.248,-0.214
36.38,-0.121,0.847,-0.053
36.39,-0.143,1.182,0.092
36.4,-0.113,0.649,0.109
36.41,-0.41,1.081,-0.088
36.42,-0.243,0.92,-0.182
36.43,-0.055,1.094,0.06
36.44,-0.158,0.968,0.13
36.45,-0.198,0.744,0.029
36.46,-0.432,1.293,-0.185
36.47,-0.113,0.833,-0.026
36.48,-0.158,1.146,0.095
36.49,-0.105,0.745,0.176
36.5,-0.357,1.074,-0.17
36.51,-0.248,0.97,-0.157
36.52,-0.056,1.02,0.11
36.53,-0.158,0.981,0.115
36.54,-0.208,0.706,-0.021
36.55,-0.422,1.355,-0.193
36.56,-0.071,0.784,-0.033
36.57,-0.139,1.11,0.161
36.58,-0.145,0.806,0.129
36.59,-0.396,0.987,-0.21
36.6,-0.222,1.136,-0.07
36.61,-0.039,0.965,0.057
36.62,-0.124,0.957,0.106
36.63,-0.219,0.744,-0.016
36.64,-0.39,1.303,-0.209
36.65,-0.138,0.861,-0.022
36.66,-0.156,1.079,0.185
36.67,-0.1,0.848,0.044
36.68,-0.48,0.912,-0.157
36.69,-0.099,1.197,-0.072
36.7,-0.115,0.831,0.056
36.71,-0.109,1.001,0.154
36.72,-0.268,0.739,-0.068
36.73,-0.316,1.192,-0.183
36.74,-0.112,0.982,0.033
36.75,-0.194,0.974,0.162
36.76,-0.129,0.88,0.053
36.77,-0.414,0.903,-0.18
36.78,-0.121,1.288,-0.058
36.79,-0.048,0.742,0.099
36.8,-0.251,1.025,0.16
36.81,-0.288,0.807,-0.085
36.82,-0.297,1.109,-0.17
36.83,-0.13,0.934,0.102
36.84,-0.087,0.987,0.115
36.85,-0.236,0.838,-0.006
36.86,-0.442,0.978,-0.085
36.87,-0.124,1.216,-0.004
36.88,-0.133,0.725,0.09
36.89,-0.163,1.046,0.115
36.9,-0.295,0.802,-0.184
36.91,-0.267,1.187,-0.078
36.92,-0.095,0.978,0.089
36.93,-0.12,0.8,0.163
36.94,-0.327,1.015,-0.019
36.95,-0.324,0.923,-0.177
36.96,-0.174,1.151,-0.019
36.97,-0.088,0.741,0.181
36.98,-0.133,1.056,0.099
36.99,-0.337,0.871,-0.221
37.0,-0.242,1.08,-0.053
37.01,-0.056,1.013,0.091
37.02,-0.084,0.72,0.142
37.03,-0.352,1.061,-0.006
37.04,-0.313,0.876,-0.17
37.05,-0.145,1.207,-0.022
37.06,-0.106,0.799,0.141
37.07,-0.143,0.955,0.039
37.08,-0.393,0.955,-0.191
37.09,-0.133,1.079,-0.026
37.1,-0.151,1.038,0.082
37.11,-0.145,0.676,0.169
37.12,-0.355,1.17,-0.104
37.13,-0.265,0.805,-0.175
37.14,-0.163,1.255,0.108
37.15,-0.11,0.793,0.148
37.16,-0.258,0.909,0.03
37.17,-0.418,1.047,-0.162
37.18,-0.121,0.953,-0.008
37.19,-0.183,1.045,0.091
37.2,-0.111,0.675,0.175
37.21,-0.368,1.215,-0.141
37.22,-0.202,0.821,-0.166
37.23,-0.18,1.204,0.114
37.24,-0.051,0.788,0.129
37.25,-0.327,0.848,-0.008
37.26,-0.408,1.167,-0.15
37.27,-0.072,0.874,-0.007
37.28,-0.226,1.128,0.13
37.29,-0.069,0.69,0.132
37.3,-0.428,1.18,-0.203
37.31,-0.226,0.914,-0.12
37.32,-0.048,1.119,0.049
37.33,-0.1,0.834,0.144
37.34,-0.359,0.81,-0.017
37.35,-0.31,1.233,-0.25
37.36,-0.042,0.813,-0.013
37.37,-0.169,1.185,0.18
37.38,-0.092,0.69,0.056
37.39,-0.435,1.14,-0.179
37.4,-0.102,1.049,-0.072
37.41,-0.146,0.987,0.065
37.42,-0.184,0.953,0.183
37.43,-0.276,0.776,-0.046
37.44,-0.398,1.203,-0.204
37.45,-0.054,0.848,0.07
37.46,-0.108,1.14,0.144
37.47,-0.188,0.687,0.068
37.48,-0.453,1.109,-0.174
37.49,-0.059,1.101,-0.097
37.5,-0.157,0.849,0.139
37.51,-0.171,1.038,0.147
37.52,-0.294,0.738,-0.155
37.53,-0.344,1.151,-0.142
37.54,-0.051,0.944,0.118
37.55,-0.158,1.004,0.128
37.56,-0.205,0.768,0.05
37.57,-0.323,1.11,-0.176
37.58,-0.114,1.173,-0.088
37.59,-0.153,0.674,0.144
37.6,-0.156,1.108,0.181
37.61,-0.387,0.8,-0.168
37.62,-0.287,1.11,-0.116
37.63,-0.015,0.984,0.127
37.64,-0.166,0.869,0.114
37.65,-0.241,0.79,-0.009
37.66,-0.252,1.167,-0.209
37.67,-0.139,1.059,-0.043
37.68,-0.095,0.808,0.215
37.69,-0.227,1.025,0.065
37.7,-0.441,0.81,-0.216
37.71,-0.111,1.254,-0.085
37.72,-0.097,0.836,0.091
37.73,-0.195,0.909,0.214
37.74,-0.222,0.954,-0.108
37.75,-0.283,0.94,-0.215
37.76,-0.17,1.161,0.12
37.77,-0.012,0.784,0.146
37.78,-0.326,1.041,-0.009
37.79,-0.281,0.835,-0.188
37.8,-0.203,1.22,-0.055
37.81,-0.221,0.761,0.116
37.82,-0.042,0.891,0.143
37.83,-0.414,1.072,-0.141
37.84,-0.246,0.787,-0.163
37.85,-0.028,1.298,0.064
37.86,-0.104,0.638,0.162
37.87,-0.307,1.043,0.015
37.88,-0.326,0.973,-0.175
37.89,-0.155,1.077,-0.035
37.9,-0.227,0.887,0.167
37.91,-0.021,0.815,0.11
37.92,-0.457,1.114,-0.186
37.93,-0.238,0.812,-0.061
37.94,-0.028,1.287,0.062
37.95,-0.126,0.617,0.089
37.96,-0.295,1.075,0.029
37.97,-0.322,1.029,-0.256
37.98,-0.145,0.961,-0.022
37.99,-0.072,1.008,0.165
38.0,-0.146,0.713,0.083
38.01,-0.461,1.204,-0.211
38.02,-0.081,0.879,-0.071
38.03,-0.101,1.198,0.104
38.04,-0.168,0.661,0.168
38.05,-0.29,1.017,-0.052
38.06,-0.254,1.036,-0.224
38.07,-0.231,0.932,0.082
38.08,-0.116,1.075,0.157
38.09,-0.102,0.653,0.014
38.1,-0.521,1.266,-0.194
38.11,-0.066,0.854,-0.084
38.12,-0.125,1.106,0.078
38.13,-0.174,0.806,0.16
38.14,-0.266,0.892,-0.117
38.15,-0.257,1.08,-0.147
38.16,-0.098,0.971,0.075
38.17,-0.135,1.075,0.126
38.18,-0.166,0.62,0.046
38.19,-0.439,1.323,-0.177
38.2,-0.056,0.961,-0.015
38.21,-0.21,1.017,0.124
38.22,-0.117,0.842,0.166
38.23,-0.335,0.892,-0.158
38.24,-0.205,1.168,-0.182
38.25,-0.099,0.887,0.135
38.26,-0.196,1.056,0.143
38.27,-0.236,0.688,-0.013
38.28,-0.355,1.25,-0.204
38.29,-0.093,0.898,-0.028
38.3,-0.145,0.951,0.156
38.31,-0.057,0.943,0.073
38.32,-0.414,0.816,-0.207
38.33,-0.244,1.227,-0.043
38.34,-0.092,0.89,0.122
38.35,-0.188,0.932,0.113
38.36,-0.197,0.818,-0.022
38.37,-0.319,1.161,-0.207
38.38,-0.12,0.994,-0.009
38.39,-0.135,0.873,0.206
38.4,-0.163,1.018,0.056
38.41,-0.395,0.8,-0.21
38.42,-0.155,1.268,-0.049
38.43,-0.04,0.831,0.105
38.44,-0.197,0.965,0.149
38.45,-0.279,0.847,-0.072
38.46,-0.311,1.0,-0.127
38.47,-0.083,1.071,0.099
38.48,-0.085,0.867,0.143
38.49,-0.276,0.954,0.034
38.5,-0.364,0.932,-0.158
38.51,-0.149,1.199,-0.01
38.52,-0.103,0.742,0.141
38.53,-0.141,1.052,0.118
38.54,-0.323,0.838,-0.189
38.55,-0.247,1.056,-0.076
38.56,-0.069,1.134,0.06
38.57,-0.108,0.696,0.133
38.58,-0.308,1.054,-0.002
38.59,-0.357,0.906,-0.174
38.6,-0.083,1.19,-0.052
38.61,-0.125,0.774,0.152
38.62,-0.108,0.965,0.091
38.63,-0.357,0.919,-0.183
38.64,-0.193,1.019,-0.062
38.65,-0.09,1.148,0.087
38.66,-0.137,0.626,0.152
38.67,-0.334,1.131,-0.017
38.68,-0.26,0.872,-0.242
38.69,-0.198,1.13,0.054
38.7,-0.114,0.839,0.175
38.71,-0.091,0.897,0.05
38.72,-0.355,1.053,-0.215
38.73,-0.18,0.92,-0.011
38.74,-0.143,1.133,0.106
38.75,-0.084,0.659,0.143
38.76,-0.4,1.168,-0.042
38.77,-0.285,0.838,-0.185
38.78,-0.178,1.174,0.077
38.79,-0.06,0.914,0.128
38.8,-0.157,0.774,-0.017
38.81,-0.422,1.182,-0.163
38.82,-0.065,0.89,-0.063
38.83,-0.18,1.139,0.094
38.84,-0.194,0.674,0.201
38.85,-0.39,1.108,-0.14
38.86,-0.254,0.909,-0.157
38.87,-0.103,1.113,0.084
38.88,-0.13,0.935,0.147
38.89,-0.275,0.734,0.019
38.9,-0.38,1.258,-0.187
38.91,-0.149,0.818,-0.014
38.92,-0.195,1.147,0.152
38.93,-0.03,0.743,0.094
38.94,-0.444,1.048,-0.186
38.95,-0.197,1.038,-0.097
38.96,-0.075,1.058,0.059
38.97,-0.177,0.908,0.135
38.98,-0.208,0.767,0.017
38.99,-0.433,1.318,-0.2
39.0,-0.056,0.74,-0.004
39.01,-0.167,1.161,0.181
39.02,-0.126,0.772,0.055
39.03,-0.413,0.981,-0.124
39.04,-0.175,1.185,-0.117
39.05,-0.081,0.869,0.052
39.06,-0.102,0.991,0.158
39.07,-0.248,0.704,-0.047
39.08,-0.446,1.312,-0.171
39.09,-0.072,0.892,-0.013
39.1,-0.169,1.047,0.162
39.11,-0.066,0.851,0.072
39.12,-0.355,1.013,-0.202
39.13,-0.245,1.196,-0.042
39.14,-0.068,0.822,0.113
39.15,-0.139,1.027,0.111
39.16,-0.262,0.742,-0.044
39.17,-0.405,1.205,-0.161
39.18,-0.104,0.924,0.047
39.19,-0.126,1.002,0.158
39.2,-0.266,0.864,0.017
39.21,-0.328,0.91,-0.161
39.22,-0.126,1.345,-0.038
39.23,-0.119,0.699,0.135
39.24,-0.125,1.025,0.134
39.25,-0.296,0.829,-0.117
39.26,-0.371,1.066,-0.144
39.27,-0.128,1.051,0.106
39.28,-0.091,0.854,0.116
39.29,-0.25,0.868,0.0
39.3,-0.365,1.022,-0.131
39.31,-0.149,1.173,-0.029
39.32,-0.112,0.738,0.148
39.33,-0.136,1.073,0.109
39.34,-0.334,0.795,-0.192
39.35,-0.214,1.132,-0.1
39.36,-0.037,1.03,0.077
39.37,-0.127,0.843,0.104
39.38,-0.305,0.967,-0.026
39.39,-0.313,0.945,-0.172
39.4,-0.137,1.215,0.03
39.41,-0.101,0.739,0.175
39.42,-0.193,1.031,0.076
39.43,-0.342,0.849,-0.22
39.44,-0.173,1.098,-0.032
39.45,-0.086,0.992,0.097
39.46,-0.186,0.724,0.144
39.47,-0.318,1.075,-0.034
39.48,-0.294,0.854,-0.171
39.49,-0.158,1.216,0.045
39.5,-0.094,0.761,0.136
39.51,-0.176,0.965,0.031
39.52,-0.41,0.965,-0.229
39.53,-0.126,1.03,-0.051
39.54,-0.16,0.987,0.103
39.55,-0.146,0.683,0.153
39.56,-0.345,1.169,-0.145
39.57,-0.221,0.792,-0.157
39.58,-0.137,1.225,0.104
39.59,-0.102,0.71,0.122
39.6,-0.305,0.918,0.013
39.61,-0.274,1.143,-0.242
39.62,-0.063,0.897,-0.075
39.63,-0.284,1.075,0.244
39.64,0.072,0.69,0.057
39.65,-0.539,1.231,-0.192
39.66,-0.235,0.848,-0.035
39.67,-0.09,1.217,0.099
39.68,-0.129,0.766,0.094
39.69,-0.244,0.884,0.011
39.7,-0.401,1.203,-0.221
39.71,-0.101,0.819,-0.0
39.72,-0.102,1.196,0.122
39.73,-0.089,0.646,0.05
39.74,-0.445,1.199,-0.138
39.75,-0.177,0.994,-0.017
39.76,-0.151,1.047,0.115
39.77,-0.211,0.877,0.13
39.78,-0.242,0.786,-0.073
39.79,-0.336,1.246,-0.161
39.8,-0.164,0.833,0.073
39.81,-0.141,1.171,0.139
39.82,-0.122,0.625,0.014
39.83,-0.469,1.19,-0.171
39.84,0.007,1.023,-0.082
39.85,-0.202,0.924,0.103
39.86,-0.149,0.947,0.163
39.87,-0.283,0.794,-0.151
39.88,-0.307,1.211,-0.161
39.89,-0.022,0.922,0.079
39.9,-0.176,1.016,0.115
39.91,-0.213,0.716,0.018
39.92,-0.362,1.201,-0.183
39.93,-0.126,1.048,-0.063
39.94,-0.188,0.792,0.154
39.95,-0.102,1.055,0.106
39.96,-0.404,0.774,-0.226
39.97,-0.203,1.233,-0.078
39.98,-0.038,0.942,0.055
39.99,-0.188,0.892,0.169
40.0,-0.266,0.885,0.016
40.01,-0.291,1.058,-0.237
40.02,-0.107,1.111,-0.013
40.03,-0.153,0.809,0.198
40.04,-0.165,1.039,0.06
40.05,-0.356,0.784,-0.199
40.06,-0.197,1.227,-0.027
40.07,-0.083,0.854,0.082
40.08,-0.163,0.819,0.143
40.09,-0.314,1.033,-0.023
40.1,-0.321,1.048,-0.158
40.11,-0.152,1.126,0.109
40.12,-0.065,0.826,0.147
40.13,-0.254,1.001,0.005
40.14,-0.37,0.883,-0.155
40.15,-0.184,1.248,-0.055
40.16,-0.176,0.701,0.128
40.17,-0.122,0.979,0.192
40.18,-0.352,0.973,-0.172
40.19,-0.321,0.859,-0.096
40.2,-0.039,1.27,0.047
40.21,-0.091,0.668,0.127
40.22,-0.306,1.037,0.026
40.23,-0.303,0.924,-0.187
40.24,-0.129,1.135,-0.038
40.25,-0.247,0.793,0.19
40.26,-0.108,0.876,0.103
40.27,-0.367,1.052,-0.217
40.28,-0.215,0.89,-0.058
40.29,-0.101,1.255,0.101
40.3,-0.083,0.595,0.123
40.31,-0.341,1.091,0.001
40.32,-0.332,0.941,-0.202
40.33,-0.108,1.06,-0.019
40.34,-0.187,0.948,0.197
40.35,-0.107,0.774,0.097
40.36,-0.411,1.159,-0.217
40.37,-0.181,0.847,-0.029
40.38,-0.047,1.221,0.105
40.39,-0.153,0.63,0.113
40.4,-0.299,1.055,-0.025
40.41,-0.285,0.993,-0.198
40.42,-0.175,1.059,0.055
40.43,-0.086,0.989,0.145
40.44,-0.144,0.692,0.036
40.45,-0.469,1.285,-0.165
40.46,-0.068,0.847,-0.083
40.47,-0.14,1.132,0.135
40.48,-0.169,0.76,0.177
40.49,-0.385,0.984,-0.122
40.5,-0.236,1.026,-0.182
40.51,-0.107,1.035,0.082
40.52,-0.173,0.979,0.144
40.53,-0.177,0.699,0.02
40.54,-0.437,1.35,-0.208
40.55,-0.102,0.792,-0.015
40.56,-0.162,1.088,0.141
40.57,-0.119,0.829,0.107
40.58,-0.417,0.926,-0.193
40.59,-0.228,1.156,-0.124
40.6,-0.021,0.987,0.057
40.61,-0.17,0.977,0.118
40.62,-0.216,0.697,0.024
40.63,-0.386,1.339,-0.248
40.64,-0.101,0.856,-0.018
40.65,-0.179,1.021,0.223
40.66,-0.084,0.878,0.06
40.67,-0.446,1.094,-0.169
40.68,-0.141,1.151,-0.03
40.69,-0.113,0.867,0.044
40.7,-0.177,0.993,0.156
40.71,-0.238,0.744,-0.089
40.72,-0.33,1.256,-0.16
40.73,-0.156,0.901,0.055
40.74,-0.103,1.058,0.133
40.75,-0.165,0.763,0.002
40.76,-0.455,1.033,-0.165
40.77,-0.063,1.189,-0.088
40.78,-0.091,0.748,0.112
40.79,-0.178,1.069,0.187
40.8,-0.319,0.756,-0.161
40.81,-0.334,1.144,-0.087
40.82,-0.062,0.999,0.13
40.83,-0.134,0.919,0.137
40.84,-0.264,0.893,-0.018
40.85,-0.349,0.996,-0.175
40.86,-0.115,1.161,-0.029
40.87,-0.136,0.729,0.109
40.88,-0.16,1.091,0.119
40.89,-0.302,0.802,-0.206
40.9,-0.306,1.134,-0.066
40.91,-0.094,0.998,0.076
40.92,-0.106,0.891,0.133
40.93,-0.306,0.889,-0.029
40.94,-0.284,1.007,-0.15
40.95,-0.075,1.16,-0.002
40.96,-0.131,0.77,0.161
40.97,-0.133,1.019,0.032
40.98,-0.397,0.845,-0.213
40.99,-0.196,1.192,-0.046
41.0,-0.032,0.847,0.1
41.01,-0.219,0.875,0.174
41.02,-0.375,0.998,-0.104
41.03,-0.215,0.874,-0.168
41.04,-0.07,1.285,0.077
41.05,-0.12,0.687,0.147
41.06,-0.264,1.036,0.007
41.07,-0.322,0.941,-0.179
41.08,-0.163,1.103,-0.059
41.09,-0.174,0.843,0.14
41.1,-0.102,0.811,0.161
41.11,-0.416,1.145,-0.17
41.12,-0.201,0.822,-0.121
41.13,-0.159,1.289,0.105
41.14,-0.077,0.595,0.116
41.15,-0.273,1.049,0.0
41.16,-0.359,0.985,-0.175
41.17,-0.087,0.984,-0.066
41.18,-0.174,1.027,0.204
41.19,-0.114,0.701,0.088
41.2,-0.426,1.19,-0.18
41.21,-0.182,0.884,-0.05
41.22,-0.097,1.189,0.082
41.23,-0.148,0.689,0.176
41.24,-0.274,0.977,-0.037
41.25,-0.343,1.021,-0.186
41.26,-0.137,0.964,0.06
41.27,-0.162,1.135,0.123
41.28,-0.028,0.652,-0.005
41.29,-0.48,1.285,-0.138
41.3,-0.122,0.895,-0.079
41.31,-0.158,1.08,0.096
41.32,-0.064,0.789,0.171
41.33,-0.382,0.945,-0.089
41.34,-0.281,1.011,-0.19
41.35,-0.135,0.969,0.146
41.36,-0.221,1.068,0.119
41.37,-0.09,0.651,0.013
41.38,-0.44,1.334,-0.192
41.39,-0.173,0.907,-0.029
41.4,-0.135,1.026,0.104
41.41,-0.131,0.861,0.146
41.42,-0.365,0.825,-0.161
41.43,-0.197,1.154,-0.145
41.44,-0.068,0.956,0.012
41.45,-0.129,1.028,0.143
41.46,-0.207,0.701,0.023
41.47,-0.429,1.276,-0.217
41.48,-0.062,0.967,-0.025
41.49,-0.132,0.941,0.109
41.5,-0.166,0.939,0.13
41.51,-0.349,0.83,-0.195
41.52,-0.189,1.208,-0.114
41.53,-0.179,0.864,0.118
41.54,-0.139,0.987,0.141
41.55,-0.198,0.762,-0.024
41.56,-0.418,1.178,-0.146
41.57,-0.107,0.998,-0.029
41.58,-0.135,0.874,0.135
41.59,-0.113,1.0,0.079
41.6,-0.349,0.794,-0.206
41.61,-0.239,1.284,-0.078
41.62,-0.027,0.848,0.091
41.63,-0.178,0.922,0.141
41.64,-0.292,0.852,-0.05
41.65,-0.306,1.041,-0.183
41.66,-0.072,1.12,0.005
41.67,-0.12,0.785,0.168
41.68,-0.187,1.027,0.011
41.69,-0.356,0.824,-0.185
41.7,-0.148,1.249,-0.045
41.71,-0.062,0.869,0.073
41.72,-0.161,0.842,0.134
41.73,-0.334,1.021,-0.06
41.74,-0.305,1.076,-0.102
41.75,-0.111,1.09,0.086
41.76,-0.081,0.761,0.105
41.77,-0.297,0.999,-0.02
41.78,-0.126,1.229,0.025
41.79,-0.098,0.77,0.126
41.8,-0.216,1.025,0.022
41.81,-0.325,0.911,-0.164
41.82,-0.231,1.211,-0.029
41.83,-0.146,0.761,0.134
41.84,-0.146,0.891,0.18
41.85,-0.385,1.043,-0.17
41.86,-0.237,0.891,-0.128
41.87,-0.034,1.23,0.02
41.88,-0.071,0.63,0.131
41.89,-0.263,1.064,0.038
41.9,-0.372,0.977,-0.17
41.91,-0.198,1.048,-0.041
41.92,-0.179,0.86,0.129
41.93,-0.084,0.824,0.119
41.94,-0.401,1.129,-0.177
41.95,-0.252,0.839,-0.078
41.96,-0.083,1.289,0.073
41.97,-0.138,0.617,0.132
41.98,-0.272,1.033,0.013
41.99,-0.281,1.008,-0.22
42.0,-0.175,0.992,0.001
42.01,-0.111,1.003,0.158
42.02,-0.098,0.714,0.058
42.03,-0.508,1.188,-0.176
42.04,-0.134,0.873,-0.068
42.05,-0.139,1.219,0.084
42.06,-0.183,0.66,0.146
42.07,-0.213,0.988,-0.068
42.08,-0.324,1.038,-0.172
42.09,-0.128,0.964,0.06
42.1,-0.1,1.124,0.145
42.11,-0.134,0.635,0.008
42.12,-0.505,1.261,-0.179
42.13,-0.086,0.938,-0.03
42.14,-0.209,1.132,0.087
42.15,-0.182,0.74,0.179
42.16,-0.307,0.938,-0.1
42.17,-0.25,1.119,-0.19
42.18,-0.123,0.944,0.111
42.19,-0.178,1.122,0.169
42.2,-0.148,0.613,0.012
42.21,-0.392,1.27,-0.21
42.22,-0.145,0.883,-0.024
42.23,-0.16,1.031,0.119
42.24,-0.118,0.919,0.152
42.25,-0.391,0.808,-0.163
42.26,-0.259,1.122,-0.149
42.27,-0.005,0.949,0.078
42.28,-0.204,1.027,0.161
42.29,-0.174,0.692,0.043
42.3,-0.396,1.246,-0.208
42.31,-0.097,0.944,-0.012
42.32,-0.094,0.954,0.127
42.33,-0.147,0.973,0.1
42.34,-0.365,0.764,-0.176
42.35,-0.251,1.264,-0.083
42.36,-0.042,0.919,0.067
42.37,-0.167,0.947,0.134
42.38,-0.264,0.772,0.009
42.39,-0.321,1.149,-0.178
42.4,-0.133,1.013,0.008
42.41,-0.155,0.876,0.165
42.42,-0.193,0.989,0.066
42.43,-0.324,0.77,-0.203
42.44,-0.159,1.333,-0.066
42.45,-0.094,0.758,0.111
42.46,-0.131,1.022,0.169
42.47,-0.294,0.779,-0.102
42.48,-0.321,1.124,-0.144
42.49,-0.085,1.037,0.029
42.5,-0.113,0.901,0.136
42.51,-0.182,0.927,0.003
42.52,-0.382,0.901,-0.167
42.53,-0.146,1.288,-0.054
42.54,-0.11,0.719,0.091
42.55,-0.164,0.971,0.181
42.56,-0.318,0.878,-0.171
42.57,-0.274,0.998,-0.146
42.58,-0.046,1.148,0.047
42.59,-0.104,0.748,0.122
42.6,-0.264,1.03,0.073
42.61,-0.335,0.934,-0.178
42.62,-0.228,1.172,-0.019
42.63,-0.162,0.705,0.142
42.64,-0.085,0.987,0.096
42.65,-0.394,0.955,-0.185
42.66,-0.197,0.933,-0.075
42.67,-0.162,1.236,0.078
42.68,-0.073,0.635,0.084
42.69,-0.258,1.111,-0.02
42.7,-0.341,0.907,-0.185
42.71,-0.113,1.107,0.0
42.72,-0.113,0.831,0.184
42.73,-0.185,0.881,0.096
42.74,-0.355,1.066,-0.191
42.75,-0.203,0.888,-0.047
42.76,-0.126,1.253,0.074
42.77,-0.03,0.584,0.099
42.78,-0.387,1.104,-0.025
42.79,-0.302,0.921,-0.183
42.8,-0.133,1.065,0.024
42.81,-0.137,0.91,0.146
42.82,-0.097,0.787,0.054
42.83,-0.413,1.136,-0.192
42.84,-0.191,0.863,-0.034
42.85,-0.074,1.213,0.063
42.86,-0.131,0.641,0.091
42.87,-0.368,1.099,-0.054
42.88,-0.22,0.994,-0.14
42.89,-0.132,1.083,0.025
42.9,-0.128,0.983,0.141
42.91,-0.109,0.692,0.022
42.92,-0.504,1.267,-0.173
42.93,-0.142,0.814,-0.009
42.94,-0.102,1.136,0.099
42.95,-0.109,0.717,0.163
42.96,-0.418,0.989,-0.153
42.97,-0.194,0.994,-0.187
42.98,0.027,1.056,0.101
42.99,-0.262,1.052,0.167
43.0,-0.18,0.678,0.007
43.01,-0.386,1.356,-0.275
43.02,-0.106,0.815,-0.003
43.03,-0.11,1.101,0.118
43.04,-0.015,0.796,0.07
43.05,-0.45,0.944,-0.176
43.06,-0.174,1.188,-0.067
43.07,-0.143,0.937,0.055
43.08,-0.167,0.935,0.153
43.09,-0.189,0.755,0.014
43.1,-0.428,1.351,-0.236
43.11,-0.097,0.838,-0.031
43.12,-0.162,1.111,0.191
43.13,-0.118,0.847,0.041
43.14,-0.344,0.893,-0.184
43.15,-0.175,1.286,-0.025
43.16,-0.072,0.777,0.109
43.17,-0.179,1.013,0.179
43.18,-0.254,0.763,-0.052
43.19,-0.348,1.158,-0.187
43.2,-0.118,0.956,0.035
43.21,-0.113,0.988,0.178
43.22,-0.181,0.893,-0.0
43.23,-0.406,0.877,-0.101
43.24,-0.17,1.302,-0.012
43.25,-0.092,0.698,0.091
43.26,-0.184,1.007,0.174
43.27,-0.326,0.77,-0.151
43.28,-0.228,1.194,-0.136
43.29,-0.054,0.982,0.053
43.3,-0.156,0.85,0.179
43.31,-0.246,0.941,-0.004
43.32,-0.358,0.989,-0.181
43.33,-0.101,1.134,-0.017
43.34,-0.104,0.769,0.159
43.35,-0.108,1.048,0.088
43.36,-0.372,0.845,-0.155
43.37,-0.234,1.156,-0.087
43.38,-0.105,0.983,0.076
43.39,-0.098,0.785,0.152
43.4,-0.363,1.045,-0.035
43.41,-0.33,0.871,-0.206
43.42,-0.132,1.18,0.028
43.43,-0.097,0.742,0.18
43.44,-0.171,0.991,0.068
43.45,-0.376,0.895,-0.193
43.46,-0.117,1.08,-0.075
43.47,-0.123,1.009,0.073
43.48,-0.161,0.722,0.185
43.49,-0.345,1.147,-0.083
43.5,-0.262,0.823,-0.15
43.51,-0.184,1.271,0.134
43.52,-0.101,0.766,0.147
43.53,-0.207,0.94,-0.0
43.54,-0.367,1.072,-0.212
43.55,-0.177,0.989,-0.043
43.56,-0.141,1.01,0.084
43.57,-0.026,0.695,0.151
43.58,-0.497,1.144,-0.143
43.59,-0.249,0.785,-0.042
43.6,-0.023,1.312,0.002
43.61,-0.174,0.702,0.179
43.62,-0.267,0.9,0.064
43.63,-0.312,1.232,-0.262
43.64,-0.122,0.836,-0.052
43.65,-0.185,1.131,0.171
43.66,-0.034,0.686,0.066
43.67,-0.493,1.122,-0.177
43.68,-0.143,0.886,-0.009
43.69,-0.181,1.225,0.119
43.7,-0.181,0.781,0.097
43.71,-0.208,0.874,-0.015
43.72,-0.357,1.24,-0.196
43.73,-0.181,0.796,0.038
43.74,-0.076,1.211,0.146
43.75,-0.052,0.683,0.03
43.76,-0.5,1.089,-0.159
43.77,-0.129,1.007,-0.02
43.78,-0.087,1.038,0.091
43.79,-0.231,0.885,0.156
43.8,-0.257,0.82,-0.041
43.81,-0.405,1.238,-0.184
43.82,-0.168,0.841,0.116
43.83,-0.074,1.193,0.124
43.84,-0.168,0.658,0.001
43.85,-0.423,1.129,-0.101
43.86,-0.108,1.067,-0.11
43.87,-0.145,0.81,0.086
43.88,-0.082,1.032,0.183
43.89,-0.382,0.736,-0.146
43.9,-0.331,1.199,-0.137
43.91,0.014,0.958,0.067
43.92,-0.148,0.988,0.141
43.93,-0.287,0.804,0.029
43.94,-0.294,1.105,-0.208
43.95,-0.115,1.102,-0.02
43.96,-0.176,0.828,0.208
43.97,-0.142,1.019,0.112
43.98,-0.372,0.753,-0.164
43.99,-0.261,1.243,-0.102
44.0,-0.013,0.941,0.009
44.01,-0.173,0.877,0.147
44.02,-0.261,0.95,0.014
44.03,-0.365,0.995,-0.202
44.04,-0.205,1.087,-0.012
44.05,-0.058,0.79,0.177
44.06,-0.148,1.07,0.017
44.07,-0.336,0.792,-0.177
44.08,-0.168,1.191,-0.102
44.09,-0.027,0.781,0.042
44.1,-0.216,1.004,0.212
44.11,-0.346,0.86,-0.067
44.12,-0.303,0.918,-0.194
44.13,-0.116,1.226,0.084
44.14,-0.049,0.79,0.138
44.15,-0.225,1.004,0.036
44.16,-0.361,0.889,-0.167
44.17,-0.129,1.274,-0.098
44.18,-0.108,0.73,0.069
44.19,-0.133,0.916,0.175
44.2,-0.372,1.025,-0.151
44.21,-0.323,0.826,-0.085
44.22,-0.136,1.249,0.108
44.23,-0.024,0.714,0.127
44.24,-0.31,1.013,-0.007
44.25,-0.244,0.909,-0.16
44.26,-0.192,1.151,-0.037
44.27,-0.137,0.834,0.108
44.28,-0.021,0.851,0.109
44.29,-0.391,1.069,-0.21
44.3,-0.228,0.868,-0.02
44.31,-0.094,1.307,0.066
44.32,-0.114,0.588,0.163
44.33,-0.296,1.076,0.016
44.34,-0.277,0.976,-0.229
44.35,-0.135,1.02,-0.049
44.36,-0.121,0.987,0.151
44.37,-0.093,0.743,0.078
44.38,-0.456,1.149,-0.185
44.39,-0.174,0.869,0.001
44.4,-0.108,1.277,0.064
44.41,-0.142,0.627,0.166
44.42,-0.277,1.007,-0.038
44.43,-0.366,1.026,-0.235
44.44,-0.099,0.939,0.009
44.45,-0.153,1.104,0.133
44.46,-0.126,0.677,0.079
44.47,-0.434,1.247,-0.198
44.48,-0.157,0.894,-0.049
44.49,-0.141,1.132,0.116
44.5,-0.104,0.749,0.143
44.51,-0.367,0.897,-0.051
44.52,-0.241,1.051,-0.175
44.53,-0.112,0.96,0.046
44.54,-0.172,1.085,0.152
44.55,-0.114,0.656,0.06
44.56,-0.469,1.256,-0.213
44.57,-0.13,0.911,-0.017
44.58,-0.129,1.092,0.108
44.59,-0.17,0.833,0.115
44.6,-0.322,0.847,-0.1
44.61,-0.271,1.154,-0.143
44.62,-0.059,0.93,0.086
44.63,-0.101,1.117,0.149
44.64,-0.245,0.674,0.017
44.65,-0.476,1.207,-0.189
44.66,-0.04,0.999,-0.049
44.67,-0.112,0.939,0.131
44.68,-0.215,0.912,0.139
44.69,-0.336,0.843,-0.133
44.7,-0.241,1.248,-0.143
44.71,-0.117,0.881,0.164
44.72,-0.151,1.006,0.152
44.73,-0.183,0.686,-0.054
44.74,-0.401,1.238,-0.143
44.75,-0.04,1.035,-0.027
44.76,-0.192,0.828,0.158
44.77,-0.139,1.024,0.119
44.78,-0.395,0.829,-0.214
44.79,-0.193,1.204,-0.065
44.8,-0.116,0.863,0.165
44.81,-0.209,0.909,0.13
44.82,-0.226,0.843,-0.061
44.83,-0.317,1.15,-0.161
44.84,-0.094,1.064,-0.039
44.85,-0.094,0.732,0.192
44.86,-0.196,1.054,0.055
44.87,-0.371,0.838,-0.258
44.88,-0.172,1.219,0.028
44.89,-0.146,0.844,0.126
44.9,-0.205,0.853,0.116
44.91,-0.261,0.856,-0.168
44.92,-0.225,1.082,-0.159
44.93,-0.108,1.041,0.173
44.94,-0.122,0.793,0.186
44.95,-0.335,1.008,-0.067
44.96,-0.261,0.894,-0.163
44.97,-0.156,1.237,-0.005
44.98,-0.161,0.688,0.168
44.99,-0.128,0.994,0.077
45.0,-0.351,0.956,-0.242
45.01,-0.193,1.005,-0.038
45.02,-0.125,1.109,0.115
45.03,-0.136,0.63,0.098
45.04,-0.306,1.141,-0.047
45.05,-0.213,0.844,-0.217
45.06,-0.188,1.229,0.092
45.07,-0.081,0.764,0.152
45.08,-0.176,0.878,0.034
45.09,-0.427,1.09,-0.171
45.1,-0.097,0.952,-0.104
45.11,-0.174,1.111,0.078
45.12,-0.103,0.642,0.168
45.13,-0.385,1.177,-0.093
45.14,-0.219,0.832,-0.185
45.15,-0.129,1.188,0.109
45.16,-0.15,0.804,0.161
45.17,-0.2,0.827,-0.003
45.18,-0.407,1.207,-0.218
45.19,-0.031,0.854,-0.035
45.2,-0.142,1.198,0.137
45.21,-0.14,0.694,0.15
45.22,-0.367,1.13,-0.151
45.23,-0.219,0.929,-0.141
45.24,-0.139,1.13,0.115
45.25,-0.121,0.853,0.141
45.26,-0.269,0.794,-0.048
45.27,-0.39,1.263,-0.175
45.28,-0.049,0.796,-0.018
45.29,-0.128,1.195,0.184
45.3,-0.108,0.698,0.073
45.31,-0.448,1.089,-0.176
45.32,-0.119,1.068,-0.048
45.33,-0.097,0.962,0.094
45.34,-0.158,0.905,0.134
45.35,-0.269,0.749,-0.085
45.36,-0.336,1.271,-0.161
45.37,-0.08,0.841,0.054
45.38,-0.136,1.109,0.167
45.39,-0.104,0.732,0.065
45.4,-0.419,1.105,-0.227
45.41,-0.109,1.124,-0.06
45.42,-0.16,0.785,0.129
45.43,-0.168,1.031,0.148
45.44,-0.274,0.753,-0.155
45.45,-0.315,1.197,-0.141
45.46,-0.082,0.898,0.151
45.47,-0.182,0.995,0.179
45.48,-0.248,0.828,-0.032
45.49,-0.35,1.031,-0.156
45.5,-0.128,1.183,-0.021
45.51,-0.194,0.784,0.169
45.52,-0.11,1.038,0.075
45.53,-0.31,0.766,-0.186
45.54,-0.278,1.226,-0.062
45.55,-0.05,0.954,0.064
45.56,-0.144,0.781,0.111
45.57,-0.193,0.969,-0.03
45.58,-0.393,0.995,-0.132
45.59,-0.152,1.144,-0.023
45.6,-0.126,0.792,0.204
45.61,-0.188,1.023,0.044
45.62,-0.346,0.855,-0.187
45.63,-0.237,1.164,-0.069
45.64,-0.095,0.91,0.068
45.65,-0.098,0.749,0.186
45.66,-0.345,1.123,-0.091
45.67,-0.32,0.821,-0.13
45.68,-0.162,1.241,0.065
45.69,-0.075,0.785,0.151
45.7,-0.225,0.982,-0.01
45.71,-0.39,0.964,-0.216
45.72,-0.106,1.061,-0.027
45.73,-0.137,0.844,0.114
45.74,-0.139,0.844,0.17
45.75,-0.352,1.069,-0.195
45.76,-0.219,0.843,-0.13
45.77,-0.076,1.288,0.112
45.78,-0.072,0.66,0.168
45.79,-0.364,1.072,0.013
45.8,-0.362,0.913,-0.237
45.81,-0.076,1.057,-0.048
45.82,-0.136,0.987,0.178
45.83,-0.149,0.75,0.104
45.84,-0.418,1.146,-0.173
45.85,-0.162,0.888,-0.025
45.86,-0.137,1.184,0.097
45.87,-0.112,0.634,0.17
45.88,-0.358,1.052,-0.099
45.89,-0.258,0.986,-0.188
45.9,-0.176,1.011,0.051
45.91,-0.159,1.048,0.133
45.92,-0.141,0.7,0.03
45.93,-0.425,1.246,-0.201
45.94,-0.092,0.895,-0.04
45.95,-0.146,1.16,0.093
45.96,-0.126,0.699,0.128
45.97,-0.308,0.976,-0.11
45.98,-0.297,1.099,-0.173
45.99,-0.11,0.965,0.034
46.0,-0.025,1.053,0.093
46.01,-0.208,0.672,0.003
46.02,-0.484,1.304,-0.166
46.03,-0.031,0.867,-0.049
46.04,-0.176,1.045,0.088
46.05,-0.109,0.84,0.105
46.06,-0.349,0.979,-0.202
46.07,-0.272,1.083,-0.1
46.08,-0.063,0.951,0.112
46.09,-0.091,1.048,0.109
46.1,-0.324,0.703,-0.015
46.11,-0.328,1.28,-0.174
46.12,-0.082,0.947,-0.02
46.13,-0.227,0.966,0.241
46.14,-0.102,0.872,0.059
46.15,-0.422,0.949,-0.207
46.16,-0.215,1.217,-0.019
46.17,-0.068,0.82,0.114
46.18,-0.268,1.012,0.162
46.19,-0.248,0.745,-0.07
46.2,-0.312,1.184,-0.14
46.21,-0.128,0.985,0.072
46.22,-0.115,0.916,0.151
46.23,-0.145,0.91,0.003
46.24,-0.479,0.917,-0.15
46.25,-0.073,1.292,-0.059
46.26,-0.142,0.707,0.12
46.27,-0.19,1.016,0.182
46.28,-0.345,0.844,-0.125
46.29,-0.33,1.062,-0.103
46.3,-0.025,1.117,0.122
46.31,-0.149,0.73,0.132
46.32,-0.356,1.019,0.011
46.33,-0.221,0.915,-0.211
46.34,-0.156,1.231,-0.017
46.35,-0.181,0.673,0.228
46.36,-0.158,0.994,0.093
46.37,-0.41,0.971,-0.199
46.38,-0.212,0.963,0.003
46.39,-0.11,1.13,0.091
46.4,-0.158,0.624,0.124
46.41,-0.323,1.164,-0.026
46.42,-0.3,0.845,-0.229
46.43,-0.205,1.17,0.074
46.44,-0.044,0.872,0.137
46.45,-0.209,0.842,-0.018
46.46,-0.4,1.076,-0.158
46.47,-0.092,0.986,-0.07
46.48,-0.156,1.047,0.078
46.49,-0.11,0.648,0.206
46.5,-0.429,1.171,-0.151
46.51,-0.301,0.835,-0.11
46.52,-0.041,1.237,0.063
46.53,-0.147,0.774,0.086
46.54,-0.282,0.826,0.037
46.55,-0.342,1.085,-0.234
46.56,-0.16,0.887,-0.003
46.57,-0.086,1.093,0.186
46.58,-0.097,0.693,0.051
46.59,-0.554,1.218,-0.192
46.6,-0.06,0.903,-0.034
46.61,-0.168,1.2,0.093
46.62,-0.248,0.732,0.191
46.63,-0.208,0.933,-0.105
46.64,-0.369,1.103,-0.203
46.65,-0.124,0.9,0.124
46.66,-0.073,1.176,0.123
46.67,-0.179,0.62,-0.006
46.68,-0.462,1.24,-0.128
46.69,-0.103,0.937,-0.066
46.7,-0.153,1.004,0.088
46.71,-0.071,0.893,0.132
46.72,-0.401,0.834,-0.16
46.73,-0.332,1.139,-0.112
46.74,0.01,0.957,0.077
46.75,-0.168,0.987,0.097
46.76,-0.236,0.706,0.042
46.77,-0.339,1.287,-0.214
46.78,-0.12,0.873,-0.052
46.79,-0.165,0.91,0.198
46.8,-0.149,0.947,0.105
46.81,-0.386,0.812,-0.218
46.82,-0.228,1.248,-0.053
46.83,-0.086,0.873,0.073
46.84,-0.159,0.97,0.148
46.85,-0.227,0.783,-0.041
46.86,-0.362,1.141,-0.226
46.87,-0.074,1.017,-0.0
46.88,-0.083,0.925,0.149
46.89,-0.152,0.947,0.006
46.9,-0.375,0.825,-0.181
46.91,-0.133,1.309,-0.065
46.92,-0.114,0.764,0.08
46.93,-0.18,0.936,0.185
46.94,-0.316,0.905,-0.099
46.95,-0.255,0.993,-0.161
46.96,-0.188,1.14,0.091
46.97,-0.068,0.761,0.107
46.98,-0.238,1.042,-0.019
46.99,-0.37,0.911,-0.143
47.0,-0.178,1.225,-0.062
47.01,-0.092,0.75,0.091
47.02,-0.101,0.932,0.149
47.03,-0.422,0.987,-0.183
47.04,-0.292,0.887,-0.061
47.05,-0.077,1.25,0.064
47.06,-0.115,0.617,0.128
47.07,-0.204,1.133,0.016
47.08,-0.371,0.92,-0.197
47.09,-0.181,1.081,0.005
47.1,-0.021,0.953,0.129
47.11,-0.194,0.804,0.081
47.12,-0.425,1.089,-0.153
47.13,-0.032,0.934,-0.137
47.14,-0.189,1.158,0.086
47.15,-0.134,0.616,0.232
47.16,-0.321,1.099,-0.082
47.17,-0.324,0.82,-0.19
47.18,-0.101,1.109,0.111
47.19,-0.114,1.03,0.068
47.2,-0.114,0.693,-0.001
47.21,-0.406,1.296,-0.191
47.22,-0.112,0.888,-0.099
47.23,-0.208,1.062,0.06
47.24,-0.093,0.727,0.198
47.25,-0.457,1.034,-0.146
47.26,-0.229,0.898,-0.187
47.27,-0.146,1.077,0.128
47.28,-0.115,1.008,0.116
47.29,-0.135,0.649,-0.022
47.3,-0.394,1.363,-0.152
47.31,-0.149,0.825,-0.002
47.32,-0.209,1.095,0.174
47.33,-0.111,0.785,0.112
47.34,-0.382,0.991,-0.176
47.35,-0.196,1.105,-0.077
47.36,-0.084,0.995,0.088
47.37,-0.043,0.824,0.121
47.38,-0.283,0.829,-0.029
47.39,-0.352,1.267,-0.238
47.4,-0.106,0.807,0.059
47.41,-0.132,1.154,0.152
47.42,-0.104,0.681,0.072
47.43,-0.377,1.165,-0.19
47.44,-0.196,1.067,-0.055
47.45,-0.115,0.875,0.11
47.46,-0.158,0.975,0.16
47.47,-0.309,0.791,-0.105
47.48,-0.252,1.199,-0.214
47.49,-0.087,0.918,0.096
47.5,-0.133,1.114,0.152
47.51,-0.144,0.724,0.027
47.52,-0.468,1.093,-0.101
47.53,-0.096,1.148,-0.101
47.54,-0.138,0.752,0.115
47.55,-0.219,1.039,0.173
47.56,-0.314,0.771,-0.175
47.57,-0.232,1.16,-0.173
47.58,-0.082,0.95,0.141
47.59,-0.146,0.954,0.162
47.6,-0.238,0.851,0.025
47.61,-0.378,1.03,-0.158
47.62,-0.098,1.124,-0.043
47.63,-0.134,0.776,0.141
47.64,-0.174,1.089,0.123
47.65,-0.316,0.749,-0.216
47.66,-0.282,1.173,-0.033
47.67,-0.024,0.992,0.09
47.68,-0.178,0.811,0.129
47.69,-0.269,0.958,-0.035
47.7,-0.324,0.971,-0.183
47.71,-0.127,1.169,-0.021
47.72,-0.126,0.735,0.17
47.73,-0.113,1.024,0.06
47.74,-0.369,0.904,-0.228
47.75,-0.224,1.085,-0.016
47.76,-0.02,0.981,0.09
47.77,-0.201,0.75,0.147
47.78,-0.269,1.071,-0.069
47.79,-0.263,0.869,-0.182
47.8,-0.189,1.253,0.042
47.81,-0.085,0.762,0.152
47.82,-0.175,0.963,0.021
47.83,-0.376,0.967,-0.207
47.84,-0.135,1.038,-0.013
47.85,-0.15,1.016,0.108
47.86,-0.222,0.675,0.16
47.87,-0.327,1.175,-0.086
47.88,-0.305,0.827,-0.153
47.89,-0.126,1.216,0.101
47.9,-0.017,0.816,0.129
47.91,-0.27,0.904,-0.006
47.92,-0.435,1.042,-0.151
47.93,-0.04,1.001,-0.061
47.94,-0.149,1.052,0.106
47.95,-0.126,0.691,0.171
47.96,-0.422,1.197,-0.18
47.97,-0.292,0.84,-0.114
47.98,-0.068,1.21,0.107
47.99,-0.132,0.779,0.137
48.0,-0.31,0.856,-0.02
48.01,-0.327,1.185,-0.165
48.02,-0.093,0.88,0.009
48.03,-0.225,1.141,0.185
48.04,-0.015,0.712,0.054
48.05,-0.478,1.22,-0.171
48.06,-0.251,0.908,-0.026
48.07,-0.07,1.095,0.07
48.08,-0.203,0.87,0.111
48.09,-0.233,0.795,-0.043
48.1,-0.354,1.24,-0.186
48.11,-0.115,0.83,0.079
48.12,-0.057,1.178,0.145
48.13,-0.167,0.623,0.001
48.14,-0.468,1.159,-0.165
48.15,-0.02,1.058,-0.1
48.16,-0.084,0.884,0.082
48.17,-0.195,0.979,0.187
48.18,-0.381,0.958,-0.165
48.19,-0.372,1.113,-0.116
48.2,0.09,0.921,0.075
48.21,-0.14,1.085,0.124
48.22,-0.286,0.682,0.011
48.23,-0.316,1.233,-0.189
48.24,-0.164,0.927,-0.02
48.25,-0.138,1.013,0.205
48.26,-0.097,0.892,0.064
48.27,-0.458,0.874,-0.143
48.28,-0.205,1.265,-0.039
48.29,-0.049,0.804,0.096
