t,ax,ay,az
0.0,-0.061,0.759,0.117
0.01,-0.444,1.205,-0.15
0.02,-0.344,0.78,-0.061
0.03,-0.036,1.263,0.086
0.04,-0.104,0.691,0.131
0.05,-0.273,0.936,-0.028
0.06,-0.286,1.069,-0.23
0.07,-0.066,0.955,-0.005
0.08,-0.253,1.093,0.193
0.09,0.042,0.652,0.06
0.1,-0.494,1.276,-0.163
0.11,-0.216,0.883,-0.011
0.12,-0.12,1.173,0.061
0.13,-0.146,0.723,0.143
0.14,-0.355,0.943,-0.047
0.15,-0.225,1.144,-0.208
0.16,-0.164,0.921,0.053
0.17,-0.119,1.104,0.135
0.18,-0.067,0.637,0.018
0.19,-0.491,1.248,-0.196
0.2,-0.097,0.932,0.01
0.21,-0.125,1.058,0.1
0.22,-0.19,0.803,0.153
0.23,-0.298,0.906,-0.132
0.24,-0.251,1.175,-0.157
0.25,-0.123,0.859,0.119
0.26,-0.115,1.084,0.119
0.27,-0.216,0.635,-0.031
0.28,-0.464,1.219,-0.137
0.29,-0.029,0.995,-0.005
0.3,-0.222,0.921,0.122
0.31,-0.116,0.975,0.154
0.32,-0.361,0.848,-0.191
0.33,-0.317,1.184,-0.069
0.34,0.025,0.881,0.1
0.35,-0.144,0.998,0.078
0.36,-0.289,0.743,-0.026
0.37,-0.261,1.163,-0.196
0.38,-0.111,1.029,-0.024
0.39,-0.126,0.799,0.218
0.4,-0.18,1.016,0.072
0.41,-0.435,0.847,-0.243
0.42,-0.116,1.26,-0.051
0.43,-0.07,0.815,0.102
0.44,-0.188,0.951,0.159
0.45,-0.258,0.916,-0.102
0.46,-0.311,1.021,-0.127
0.47,-0.174,1.13,0.072
0.48,-0.039,0.787,0.154
0.49,-0.254,1.046,-0.013
0.5,-0.411,0.844,-0.142
0.51,-0.138,1.237,-0.024
0.52,-0.14,0.762,0.108
0.53,-0.195,0.934,0.192
0.54,-0.29,1.005,-0.186
0.55,-0.233,0.927,-0.111
0.56,-0.189,1.273,0.148
0.57,-0.068,0.642,0.085
0.58,-0.297,1.058,0.002
0.59,-0.338,0.942,-0.166
0.6,-0.1,1.156,-0.001
0.61,-0.224,0.818,0.14
0.62,-0.093,0.86,0.124
0.63,-0.41,1.145,-0.223
0.64,-0.248,0.802,-0.053
0.65,-0.037,1.263,0.072
0.66,-0.115,0.649,0.119
0.67,-0.376,1.047,-0.01
0.68,-0.208,0.946,-0.241
0.69,-0.142,1.04,-0.014
0.7,-0.135,0.959,0.195
0.71,-0.08,0.733,0.025
0.72,-0.461,1.179,-0.214
0.73,0.027,0.873,-0.053
0.74,-0.173,1.21,0.091
0.75,-0.218,0.689,0.19
0.76,-0.308,1.042,-0.099
0.77,-0.257,0.83,-0.128
0.78,-0.057,1.26,0.084
0.79,-0.073,0.813,0.102
0.8,-0.247,0.788,0.01
0.81,-0.334,1.26,-0.182
0.82,-0.115,0.81,-0.026
0.83,-0.218,1.113,0.164
0.84,-0.063,0.725,0.136
0.85,-0.478,1.121,-0.207
0.86,-0.288,0.902,-0.041
0.87,-0.066,1.125,0.067
0.88,-0.11,0.854,0.112
0.89,-0.296,0.786,0.034
0.9,-0.307,1.298,-0.229
0.91,-0.076,0.788,-0.032
0.92,-0.142,1.187,0.177
0.93,-0.112,0.703,0.067
0.94,-0.502,1.111,-0.182
0.95,-0.121,1.044,-0.047
0.96,-0.12,0.947,0.088
0.97,-0.196,0.943,0.215
0.98,-0.287,0.761,-0.069
0.99,-0.377,1.215,-0.188
1.0,-0.112,0.837,0.103
1.01,-0.103,1.159,0.134
1.02,-0.145,0.673,-0.019
1.03,-0.422,1.079,-0.132
1.04,-0.069,1.117,-0.056
1.05,-0.172,0.769,0.123
1.06,-0.197,1.052,0.174
1.07,-0.28,0.759,-0.163
1.08,-0.295,1.16,-0.154
1.09,-0.035,0.977,0.134
1.1,-0.158,0.97,0.156
1.11,-0.278,0.784,0.012
1.12,-0.342,1.111,-0.146
1.13,-0.122,1.141,-0.029
1.14,-0.203,0.704,0.16
1.15,-0.093,1.08,0.116
1.16,-0.405,0.79,-0.21
1.17,-0.274,1.127,-0.032
1.18,-0.005,1.021,0.043
1.19,-0.141,0.792,0.075
1.2,-0.239,0.947,-0.012
1.21,-0.357,0.993,-0.201
1.22,-0.185,1.173,0.034
1.23,-0.031,0.802,0.137
1.24,-0.185,1.005,0.061
1.25,-0.395,0.842,-0.173
1.26,-0.08,1.182,-0.062
1.27,-0.133,0.949,0.072
1.28,-0.2,0.779,0.19
1.29,-0.26,1.105,-0.113
1.3,-0.268,0.796,-0.2
1.31,-0.194,1.259,0.13
1.32,-0.09,0.758,0.152
1.33,-0.226,0.967,0.022
1.34,-0.372,1.023,-0.165
1.35,-0.163,1.057,-0.077
1.36,-0.163,0.931,0.094
1.37,-0.124,0.763,0.205
1.38,-0.357,1.141,-0.131
1.39,-0.278,0.764,-0.165
1.4,-0.06,1.302,0.11
1.41,-0.07,0.745,0.103
1.42,-0.284,0.927,0.059
1.43,-0.316,1.137,-0.221
1.44,-0.088,0.887,-0.063
1.45,-0.257,1.089,0.153
1.46,-0.049,0.707,0.153
1.47,-0.43,1.121,-0.22
1.48,-0.188,0.845,-0.057
1.49,-0.11,1.269,0.071
1.5,-0.119,0.709,0.126
1.51,-0.288,0.858,0.042
1.52,-0.386,1.182,-0.25
1.53,-0.051,0.823,-0.018
1.54,-0.217,1.192,0.157
1.55,-0.133,0.62,0.112
1.56,-0.414,1.163,-0.173
1.57,-0.174,0.94,-0.056
1.58,-0.147,1.098,0.089
1.59,-0.155,0.673,0.179
1.6,-0.353,1.04,-0.063
1.61,-0.305,1.019,-0.179
1.62,-0.148,0.947,0.027
1.63,-0.084,1.115,0.115
1.64,-0.117,0.642,0.024
1.65,-0.477,1.25,-0.158
1.66,-0.079,0.897,-0.06
1.67,-0.147,1.105,0.053
1.68,-0.2,0.766,0.226
1.69,-0.305,0.968,-0.091
1.7,-0.252,1.105,-0.212
1.71,-0.054,0.934,0.113
1.72,-0.185,1.083,0.099
1.73,-0.188,0.605,-0.006
1.74,-0.477,1.309,-0.124
1.75,-0.062,0.915,-0.075
1.76,-0.252,0.985,0.138
1.77,-0.09,0.912,0.16
1.78,-0.36,0.867,-0.185
1.79,-0.241,1.089,-0.141
1.8,-0.07,0.931,0.115
1.81,-0.133,1.063,0.089
1.82,-0.211,0.702,0.001
1.83,-0.427,1.234,-0.136
1.84,-0.133,0.96,-0.036
1.85,-0.206,0.914,0.149
1.86,-0.13,0.976,0.174
1.87,-0.362,0.824,-0.202
1.88,-0.303,1.204,-0.042
1.89,-0.016,0.861,0.088
1.9,-0.163,0.998,0.138
1.91,-0.314,0.784,-0.024
1.92,-0.321,1.199,-0.199
1.93,-0.113,1.006,-0.037
1.94,-0.223,0.844,0.213
1.95,-0.117,1.012,0.093
1.96,-0.354,0.772,-0.248
1.97,-0.161,1.255,-0.019
1.98,-0.112,0.86,0.082
1.99,-0.167,0.856,0.134
2.0,-0.2,0.947,-0.067
2.01,-0.33,1.018,-0.188
2.02,-0.165,1.076,0.048
2.03,-0.062,0.83,0.132
2.04,-0.165,1.011,0.024
2.05,-0.464,0.857,-0.139
2.06,-0.142,1.196,-0.071
2.07,-0.114,0.856,0.064
2.08,-0.163,0.893,0.198
2.09,-0.312,1.0,-0.132
2.1,-0.238,0.897,-0.142
2.11,-0.165,1.261,0.065
2.12,-0.101,0.691,0.143
2.13,-0.221,1.03,0.015
2.14,-0.376,0.943,-0.18
2.15,-0.107,1.126,-0.068
2.16,-0.185,0.853,0.12
2.17,-0.149,0.826,0.192
2.18,-0.376,1.077,-0.139
2.19,-0.187,0.832,-0.147
2.2,-0.142,1.306,0.121
2.21,-0.103,0.659,0.137
2.22,-0.251,0.995,0.027
2.23,-0.372,1.001,-0.165
2.24,-0.089,1.027,-0.026
2.25,-0.208,0.914,0.125
2.26,-0.149,0.786,0.185
2.27,-0.398,1.19,-0.201
2.28,-0.228,0.805,-0.125
2.29,-0.062,1.309,0.131
2.3,-0.05,0.674,0.104
2.31,-0.329,0.994,-0.029
2.32,-0.296,1.074,-0.184
2.33,-0.115,0.95,0.022
2.34,-0.242,0.993,0.156
2.35,-0.097,0.699,0.098
2.36,-0.065,0.791,0.122
2.37,-0.34,1.003,-0.014
2.38,-0.274,0.994,-0.208
2.39,-0.07,1.007,-0.01
2.4,-0.239,0.934,0.17
2.41,-0.048,0.753,0.102
2.42,-0.435,1.206,-0.199
2.43,-0.255,0.815,-0.063
2.44,-0.076,1.227,0.065
2.45,-0.08,0.71,0.131
2.46,-0.383,1.005,-0.016
2.47,-0.302,1.041,-0.214
2.48,-0.101,0.945,0.033
2.49,-0.181,1.094,0.139
2.5,-0.004,0.674,0.034
2.51,-0.47,1.274,-0.166
2.52,-0.225,0.833,0.001
2.53,-0.12,1.167,0.087
2.54,-0.146,0.759,0.087
2.55,-0.363,0.97,-0.068
2.56,-0.218,1.081,-0.198
2.57,-0.149,0.923,0.092
2.58,-0.112,1.112,0.128
2.59,-0.075,0.582,0.024
2.6,-0.545,1.267,-0.182
2.61,-0.035,0.916,-0.065
2.62,-0.177,1.031,0.042
2.63,-0.167,0.853,0.201
2.64,-0.322,0.869,-0.158
2.65,-0.286,1.164,-0.178
2.66,-0.016,0.908,0.09
2.67,-0.146,1.067,0.116
2.68,-0.224,0.605,0.007
2.69,-0.331,1.271,-0.192
2.7,-0.087,0.984,-0.037
2.71,-0.297,0.91,0.173
2.72,-0.047,0.953,0.136
2.73,-0.407,0.845,-0.181
2.74,-0.313,1.215,-0.085
2.75,0.084,0.857,0.053
2.76,-0.138,1.029,0.096
2.77,-0.287,0.711,0.014
2.78,-0.296,1.186,-0.214
2.79,-0.096,1.01,-0.054
2.8,-0.154,0.868,0.179
2.81,-0.1,0.992,0.065
2.82,-0.399,0.798,-0.165
2.83,-0.272,1.271,0.005
2.84,-0.108,0.824,0.111
2.85,-0.208,0.926,0.166
2.86,-0.31,0.873,0.014
2.87,-0.269,1.064,-0.235
2.88,-0.109,1.103,-0.016
2.89,-0.091,0.809,0.189
2.9,-0.133,1.018,0.03
2.91,-0.441,0.814,-0.156
2.92,-0.209,1.23,-0.031
2.93,-0.07,0.804,0.058
2.94,-0.224,0.908,0.171
2.95,-0.311,0.972,-0.084
2.96,-0.187,0.936,-0.213
2.97,-0.208,1.168,0.022
2.98,-0.024,0.709,0.16
2.99,-0.166,1.056,-0.017
3.0,-0.449,0.871,-0.151
3.01,-0.192,1.153,-0.029
3.02,-0.111,0.853,0.051
3.03,-0.186,0.842,0.191
3.04,-0.328,1.091,-0.129
3.05,-0.23,0.836,-0.186
3.06,-0.048,1.245,0.058
3.07,-0.034,0.661,0.105
3.08,-0.251,1.027,0.042
3.09,-0.415,1.007,-0.176
3.1,-0.125,1.049,-0.03
3.11,-0.219,0.906,0.119
3.12,-0.099,0.773,0.174
3.13,-0.346,1.159,-0.19
3.14,-0.265,0.818,-0.089
3.15,-0.107,1.19,0.071
3.16,-0.031,0.638,0.11
3.17,-0.367,1.136,-0.01
3.18,-0.248,0.901,-0.253
3.19,-0.125,1.052,-0.02
3.2,-0.167,0.915,0.171
3.21,-0.118,0.86,0.117
3.22,-0.377,1.083,-0.26
3.23,-0.113,0.823,-0.061
3.24,-0.127,1.235,0.085
3.25,-0.15,0.664,0.176
3.26,-0.317,1.089,-0.081
3.27,-0.24,0.913,-0.221
3.28,-0.117,1.111,0.071
3.29,-0.111,0.991,0.084
3.3,-0.132,0.699,0.054
3.31,-0.408,1.214,-0.162
3.32,-0.135,0.872,-0.067
3.33,-0.164,1.135,0.075
3.34,-0.064,0.718,0.15
3.35,-0.4,1.072,-0.099
3.36,-0.208,0.922,-0.164
3.37,-0.111,1.066,0.102
3.38,-0.163,1.029,0.142
3.39,-0.111,0.665,0.034
3.4,-0.478,1.316,-0.165
3.41,-0.154,0.834,-0.038
3.42,-0.133,1.095,0.102
3.43,-0.169,0.768,0.171
3.44,-0.391,1.015,-0.145
3.45,-0.219,1.006,-0.191
3.46,-0.115,0.982,0.07
3.47,-0.131,1.045,0.127
3.48,-0.19,0.638,-0.004
3.49,-0.497,1.279,-0.146
3.5,-0.088,0.839,-0.041
3.51,-0.24,1.024,0.107
3.52,-0.096,0.822,0.148
3.53,-0.337,0.968,-0.177
3.54,-0.279,1.117,-0.093
3.55,-0.081,0.891,0.12
3.56,-0.093,1.075,0.151
3.57,-0.232,0.639,-0.015
3.58,-0.458,1.249,-0.162
3.59,-0.006,0.948,-0.022
3.6,-0.194,0.981,0.101
3.61,-0.168,0.898,0.186
3.62,-0.367,0.925,-0.223
3.63,-0.25,1.145,-0.123
3.64,0.015,0.896,0.104
3.65,-0.144,1.046,0.135
3.66,-0.251,0.702,-0.029
3.67,-0.322,1.209,-0.196
3.68,-0.108,0.993,-0.083
3.69,-0.107,0.874,0.185
3.7,-0.123,0.983,0.088
3.71,-0.481,0.85,-0.185
3.72,-0.127,1.251,-0.067
3.73,-0.085,0.791,0.098
3.74,-0.198,0.975,0.171
3.75,-0.215,0.863,-0.058
3.76,-0.333,1.057,-0.175
3.77,-0.112,1.082,0.055
3.78,-0.14,0.843,0.119
3.79,-0.163,0.986,0.038
3.8,-0.339,0.881,-0.179
3.81,-0.202,1.233,-0.074
3.82,-0.073,0.747,0.069
3.83,-0.144,0.966,0.181
3.84,-0.327,0.905,-0.129
3.85,-0.303,0.953,-0.115
3.86,-0.078,1.231,0.047
3.87,-0.139,0.74,0.121
3.88,-0.175,1.022,0.023
3.89,-0.353,0.966,-0.168
3.9,-0.179,1.175,-0.042
3.91,-0.098,0.767,0.105
3.92,-0.159,0.912,0.172
3.93,-0.374,1.008,-0.153
3.94,-0.251,0.82,-0.167
3.95,-0.02,1.323,0.038
3.96,-0.096,0.688,0.092
3.97,-0.258,1.088,0.037
3.98,-0.352,0.941,-0.233
3.99,-0.148,1.081,0.014
4.0,-0.138,0.815,0.199
4.01,-0.217,0.973,0.084
4.02,-0.33,0.924,-0.205
4.03,-0.265,0.961,-0.029
4.04,-0.024,1.167,0.072
4.05,-0.096,0.651,0.114
4.06,-0.355,1.083,-0.001
4.07,-0.251,0.884,-0.232
4.08,-0.131,1.157,0.025
4.09,-0.19,0.84,0.181
4.1,-0.106,0.865,0.093
4.11,-0.388,1.074,-0.247
4.12,-0.188,0.887,-0.037
4.13,-0.082,1.241,0.052
4.14,-0.109,0.624,0.111
4.15,-0.326,1.116,-0.021
4.16,-0.268,0.958,-0.19
4.17,-0.223,1.111,0.035
4.18,-0.163,0.984,0.179
4.19,-0.094,0.758,0.039
4.2,-0.401,1.137,-0.21
4.21,-0.054,0.893,-0.08
4.22,-0.152,1.197,0.067
4.23,-0.188,0.612,0.216
4.24,-0.257,1.141,-0.096
4.25,-0.295,0.899,-0.21
4.26,-0.16,0.986,0.12
4.27,-0.039,1.09,0.092
4.28,-0.157,0.661,0.008
4.29,-0.434,1.259,-0.14
4.3,-0.079,0.918,-0.106
4.31,-0.214,1.126,0.081
4.32,-0.091,0.709,0.199
4.33,-0.352,1.092,-0.126
4.34,-0.273,0.968,-0.214
4.35,-0.166,0.948,0.128
4.36,-0.131,1.126,0.158
4.37,-0.126,0.639,0.026
4.38,-0.493,1.267,-0.164
4.39,-0.114,0.876,-0.086
4.4,-0.141,1.103,0.062
4.41,-0.091,0.803,0.181
4.42,-0.387,0.945,-0.128
4.43,-0.28,1.035,-0.146
4.44,-0.068,0.996,0.113
4.45,-0.184,1.11,0.11
4.46,-0.119,0.607,0.031
4.47,-0.427,1.318,-0.135
4.48,-0.161,0.905,-0.063
4.49,-0.1,0.975,0.151
4.5,-0.201,0.91,0.191
4.51,-0.428,0.828,-0.15
4.52,-0.195,1.135,-0.136
4.53,-0.034,0.962,0.071
4.54,-0.182,1.037,0.101
4.55,-0.137,0.669,0.046
4.56,-0.432,1.276,-0.15
4.57,-0.128,0.933,-0.077
4.58,-0.183,0.939,0.178
4.59,-0.118,0.948,0.14
4.6,-0.412,0.793,-0.179
4.61,-0.19,1.19,-0.092
4.62,-0.019,0.933,0.057
4.63,-0.164,0.977,0.158
4.64,-0.227,0.732,0.005
4.65,-0.305,1.232,-0.185
4.66,-0.098,0.966,-0.034
4.67,-0.17,0.841,0.199
4.68,-0.115,1.048,0.092
4.69,-0.372,0.793,-0.229
4.7,-0.284,1.273,0.0
4.71,-0.104,0.888,0.082
4.72,-0.162,0.894,0.155
4.73,-0.244,0.902,-0.008
4.74,-0.356,1.068,-0.222
4.75,-0.167,1.03,-0.017
4.76,-0.116,0.853,0.193
4.77,-0.176,0.996,0.065
4.78,-0.427,0.887,-0.154
4.79,-0.115,1.256,-0.083
4.8,-0.129,0.713,0.079
4.81,-0.178,1.031,0.249
4.82,-0.274,0.874,-0.107
4.83,-0.333,1.022,-0.156
4.84,-0.055,1.084,0.066
4.85,-0.092,0.868,0.108
4.86,-0.268,0.985,0.037
4.87,-0.316,0.901,-0.138
4.88,-0.189,1.292,-0.082
4.89,-0.164,0.699,0.137
4.9,-0.151,0.986,0.174
4.91,-0.291,0.937,-0.187
4.92,-0.311,0.971,-0.102
4.93,-0.112,1.187,0.107
4.94,-0.061,0.729,0.085
4.95,-0.255,1.016,0.019
4.96,-0.291,0.956,-0.176
4.97,-0.209,1.191,-0.031
4.98,-0.176,0.73,0.148
4.99,-0.13,0.976,0.133
5.0,-0.373,1.026,-0.158
5.01,-0.217,0.831,-0.12
5.02,-0.097,1.298,0.087
5.03,-0.083,0.593,0.116
5.04,-0.28,1.064,0.037
5.05,-0.234,0.971,-0.216
5.06,-0.208,1.136,-0.005
5.07,-0.166,0.824,0.134
5.08,-0.123,0.884,0.129
5.09,-0.396,1.08,-0.191
5.1,-0.231,0.835,-0.055
5.11,-0.067,1.294,0.077
5.12,-0.105,0.631,0.134
5.13,-0.364,1.019,0.02
5.14,-0.224,0.961,-0.232
5.15,-0.104,1.062,0.003
5.16,-0.218,0.963,0.181
5.17,-0.092,0.741,0.099
5.18,-0.506,1.191,-0.187
5.19,-0.135,0.893,-0.019
5.2,-0.154,1.237,0.078
5.21,-0.125,0.646,0.195
5.22,-0.315,1.071,-0.037
5.23,-0.332,0.945,-0.202
5.24,-0.189,0.976,0.083
5.25,-0.123,1.164,0.07
5.26,-0.129,0.676,0.052
5.27,-0.444,1.218,-0.153
5.28,-0.114,0.894,-0.091
5.29,-0.145,1.136,0.076
5.3,-0.149,0.746,0.244
5.31,-0.33,0.984,-0.126
5.32,-0.341,0.977,-0.176
5.33,-0.091,1.014,0.114
5.34,-0.19,1.135,0.082
5.35,-0.036,0.596,0.024
5.36,-0.485,1.336,-0.172
5.37,-0.105,0.907,-0.087
5.38,-0.158,1.063,0.08
5.39,-0.118,0.832,0.19
5.4,-0.38,0.906,-0.138
5.41,-0.252,1.065,-0.164
5.42,-0.15,0.96,0.104
5.43,-0.168,1.129,0.105
5.44,-0.12,0.623,0.017
5.45,-0.494,1.279,-0.134
5.46,-0.136,0.927,-0.041
5.47,-0.194,0.955,0.089
5.48,-0.156,0.912,0.193
5.49,-0.362,0.844,-0.158
5.5,-0.262,1.134,-0.155
5.51,-0.069,0.925,0.07
5.52,-0.102,1.047,0.082
5.53,-0.199,0.67,0.064
5.54,-0.379,1.249,-0.15
5.55,-0.14,0.966,-0.07
5.56,-0.207,0.878,0.165
5.57,-0.087,1.024,0.156
5.58,-0.385,0.781,-0.181
5.59,-0.256,1.162,-0.041
5.6,-0.008,0.959,0.05
5.61,-0.132,0.993,0.131
5.62,-0.242,0.713,0.022
5.63,-0.335,1.258,-0.204
5.64,-0.074,0.891,-0.009
5.65,-0.234,1.007,0.16
5.66,-0.074,0.909,0.105
5.67,-0.433,0.889,-0.189
5.68,-0.251,1.229,-0.071
5.69,-0.022,0.842,0.055
5.7,-0.178,0.974,0.166
5.71,-0.232,0.811,-0.022
5.72,-0.319,1.179,-0.213
5.73,-0.137,0.927,-0.031
5.74,-0.093,0.912,0.167
5.75,-0.125,0.976,0.036
5.76,-0.382,0.81,-0.164
5.77,-0.226,1.279,-0.04
5.78,-0.104,0.837,0.069
5.79,-0.176,0.95,0.145
5.8,-0.276,0.891,-0.026
5.81,-0.333,1.025,-0.181
5.82,-0.147,1.057,0.035
5.83,-0.053,0.892,0.136
5.84,-0.216,0.999,0.052
5.85,-0.319,0.806,-0.151
5.86,-0.192,1.289,-0.076
5.87,-0.098,0.775,0.068
5.88,-0.173,0.908,0.193
5.89,-0.343,0.991,-0.066
5.9,-0.289,0.928,-0.187
5.91,-0.11,1.079,-0.013
5.92,-0.089,0.801,0.162
5.93,-0.197,1.038,0.03
5.94,-0.333,0.82,-0.171
5.95,-0.162,1.242,-0.054
5.96,-0.107,0.839,0.048
5.97,-0.151,0.829,0.179
5.98,-0.321,1.064,-0.101
5.99,-0.279,0.864,-0.184
6.0,-0.106,1.199,0.031
6.01,-0.128,0.753,0.17
6.02,-0.213,0.995,0.015
6.03,-0.327,0.886,-0.214
6.04,-0.1,1.13,-0.08
6.05,-0.172,0.884,0.08
6.06,-0.107,0.777,0.202
6.07,-0.375,1.145,-0.128
6.08,-0.255,0.793,-0.136
6.09,-0.182,1.267,0.081
6.1,-0.073,0.77,0.163
6.11,-0.19,1.018,-0.015
6.12,-0.362,0.941,-0.168
6.13,-0.106,1.075,-0.038
6.14,-0.179,0.956,0.096
6.15,-0.136,0.726,0.173
6.16,-0.334,1.207,-0.174
6.17,-0.268,0.792,-0.148
6.18,-0.16,1.236,0.113
6.19,-0.083,0.771,0.149
6.2,-0.257,0.922,0.015
6.21,-0.436,1.061,-0.122
6.22,-0.065,0.981,-0.058
6.23,-0.218,1.044,0.09
6.24,-0.121,0.69,0.184
6.25,-0.408,1.205,-0.146
6.26,-0.24,0.818,-0.105
6.27,-0.164,1.269,0.102
6.28,-0.09,0.754,0.113
6.29,-0.223,0.866,-0.011
6.3,-0.324,1.198,-0.187
6.31,-0.088,0.856,-0.064
6.32,-0.189,1.059,0.146
6.33,-0.03,0.738,0.122
6.34,-0.494,1.181,-0.16
6.35,-0.267,0.829,-0.067
6.36,-0.076,1.203,0.046
6.37,-0.063,0.82,0.087
6.38,-0.24,0.853,-0.007
6.39,-0.367,1.201,-0.21
6.4,-0.095,0.81,-0.004
6.41,-0.066,1.112,0.108
6.42,-0.104,0.635,0.026
6.43,-0.487,1.231,-0.162
6.44,-0.055,0.867,-0.121
6.45,-0.155,1.126,0.055
6.46,-0.147,0.762,0.201
6.47,-0.301,0.962,-0.09
6.48,-0.302,1.043,-0.21
6.49,-0.167,0.906,0.104
6.5,-0.042,1.238,0.132
6.51,-0.114,0.605,0.017
6.52,-0.486,1.214,-0.137
6.53,-0.041,1.017,-0.105
6.54,-0.19,1.009,0.091
6.55,-0.155,0.833,0.211
6.56,-0.304,0.881,-0.116
6.57,-0.309,1.064,-0.165
6.58,-0.116,0.916,0.141
6.59,-0.108,1.187,0.093
6.6,-0.109,0.633,0.061
6.61,-0.392,1.25,-0.189
6.62,-0.155,1.023,-0.115
6.63,-0.105,0.92,0.054
6.64,-0.056,0.916,0.152
6.65,-0.335,0.816,-0.144
6.66,-0.282,1.158,-0.096
6.67,-0.168,0.884,0.112
6.68,-0.075,1.112,0.12
6.69,-0.157,0.704,0.069
6.7,-0.415,1.177,-0.095
6.71,-0.139,1.067,-0.108
6.72,-0.145,0.829,0.027
6.73,-0.097,1.012,0.203
6.74,-0.306,0.813,-0.148
6.75,-0.368,1.169,-0.147
6.76,-0.054,0.92,0.102
6.77,-0.096,1.065,0.118
6.78,-0.245,0.768,0.003
6.79,-0.344,1.108,-0.154
6.8,-0.144,1.101,-0.069
6.81,-0.228,0.788,0.123
6.82,-0.107,1.067,0.172
6.83,-0.361,0.757,-0.15
6.84,-0.341,1.166,-0.07
6.85,-0.058,0.992,0.05
6.86,-0.089,0.885,0.118
6.87,-0.199,0.874,0.043
6.88,-0.357,1.068,-0.187
6.89,-0.148,1.145,-0.077
6.9,-0.227,0.756,0.15
6.91,-0.111,1.048,0.128
6.92,-0.299,0.781,-0.195
6.93,-0.238,1.068,-0.109
6.94,-0.091,1.061,0.065
6.95,-0.142,0.847,0.132
6.96,-0.16,0.932,-0.015
6.97,-0.333,0.991,-0.149
6.98,-0.174,1.216,-0.057
6.99,-0.153,0.669,0.109
7.0,-0.121,1.028,0.156
7.01,-0.285,0.879,-0.179
7.02,-0.254,1.036,-0.108
7.03,-0.089,1.093,0.048
7.04,-0.126,0.728,0.189
7.05,-0.246,1.046,0.041
7.06,-0.35,0.952,-0.164
7.07,-0.184,1.156,-0.063
7.08,-0.185,0.777,0.126
7.09,-0.073,1.043,0.144
7.1,-0.343,0.882,-0.183
7.11,-0.318,0.916,-0.031
7.12,-0.006,1.25,0.013
7.13,-0.151,0.703,0.144
7.14,-0.327,1.032,0.075
7.15,-0.235,0.972,-0.223
7.16,-0.224,1.179,-0.014
7.17,-0.217,0.777,0.14
7.18,-0.04,0.907,0.125
7.19,-0.35,1.036,-0.175
7.2,-0.298,0.855,-0.066
7.21,-0.042,1.229,0.013
7.22,-0.118,0.668,0.102
7.23,-0.293,1.092,0.062
7.24,-0.307,0.913,-0.236
7.25,-0.186,1.151,-0.023
7.26,-0.184,0.788,0.172
7.27,-0.089,0.969,0.128
7.28,-0.42,0.91,-0.176
7.29,-0.22,0.972,-0.035
7.3,-0.103,1.211,0.019
7.31,-0.096,0.607,0.153
7.32,-0.255,1.104,0.022
7.33,-0.303,0.966,-0.218
7.34,-0.127,1.143,-0.02
7.35,-0.181,0.775,0.157
7.36,-0.127,0.923,0.107
7.37,-0.399,1.005,-0.18
7.38,-0.156,0.851,-0.049
7.39,-0.122,1.28,0.088
7.4,-0.14,0.615,0.14
7.41,-0.3,1.085,-0.017
7.42,-0.307,0.946,-0.153
7.43,-0.101,1.084,-0.042
7.44,-0.155,0.877,0.111
7.45,-0.123,0.845,0.128
7.46,-0.358,1.093,-0.179
7.47,-0.237,0.855,-0.043
7.48,-0.194,1.299,0.1
7.49,-0.051,0.608,0.126
7.5,-0.231,1.072,-0.006
7.51,-0.377,0.99,-0.193
7.52,-0.102,1.006,-0.016
7.53,-0.124,0.947,0.101
7.54,-0.153,0.807,0.116
7.55,-0.372,1.149,-0.2
7.56,-0.182,0.814,-0.079
7.57,-0.178,1.291,0.133
7.58,-0.076,0.661,0.154
7.59,-0.306,1.021,-0.046
7.6,-0.327,1.049,-0.19
7.61,-0.083,0.961,-0.021
7.62,-0.179,1.033,0.117
7.63,-0.075,0.706,0.093
7.64,-0.443,1.154,-0.153
7.65,-0.237,0.836,-0.047
7.66,-0.058,1.27,0.072
7.67,-0.098,0.729,0.126
7.68,-0.352,0.928,-0.014
7.69,-0.217,1.105,-0.229
7.7,-0.105,0.936,0.034
7.71,-0.256,1.09,0.178
7.72,-0.007,0.708,0.085
7.73,-0.463,1.227,-0.15
7.74,-0.249,0.832,-0.027
7.75,-0.087,1.182,0.085
7.76,-0.07,0.812,0.111
7.77,-0.373,0.868,-0.033
7.78,-0.296,1.175,-0.243
7.79,-0.053,0.875,0.009
7.8,-0.17,1.176,0.174
7.81,-0.071,0.66,0.068
7.82,-0.424,1.194,-0.178
7.83,-0.201,0.918,-0.036
7.84,-0.089,1.078,0.064
7.85,-0.143,0.884,0.151
7.86,-0.342,0.809,-0.047
7.87,-0.345,1.207,-0.171
7.88,-0.094,0.853,0.049
7.89,-0.203,1.17,0.156
7.9,-0.115,0.662,0.062
7.91,-0.39,1.156,-0.199
7.92,-0.17,1.026,-0.014
7.93,-0.14,0.934,0.114
7.94,-0.138,0.945,0.17
7.95,-0.362,0.79,-0.059
7.96,-0.35,1.211,-0.134
7.97,-0.062,0.865,0.048
7.98,-0.147,1.127,0.137
7.99,-0.133,0.695,0.066
8.0,-0.42,1.1,-0.182
8.01,-0.137,1.101,-0.059
8.02,-0.121,0.844,0.112
8.03,-0.183,0.902,0.154
8.04,-0.422,0.839,-0.124
8.05,-0.196,1.195,-0.152
8.06,-0.128,0.891,0.111
8.07,-0.145,1.077,0.14
8.08,-0.177,0.721,0.006
8.09,-0.468,1.177,-0.138
8.1,-0.154,1.015,-0.006
8.11,-0.143,0.862,0.084
8.12,-0.17,0.996,0.143
8.13,-0.365,0.82,-0.185
8.14,-0.253,1.165,-0.121
8.15,0.003,0.93,0.099
8.16,-0.196,0.976,0.147
8.17,-0.221,0.77,0.0
8.18,-0.343,1.194,-0.177
8.19,-0.148,1.084,-0.031
8.2,-0.16,0.779,0.139
8.21,-0.085,1.061,0.076
8.22,-0.403,0.806,-0.238
8.23,-0.22,1.17,-0.009
8.24,-0.079,0.9,0.081
8.25,-0.106,0.912,0.116
8.26,-0.32,0.895,-0.013
8.27,-0.269,1.014,-0.215
8.28,-0.069,1.125,-0.069
8.29,-0.121,0.764,0.16
8.3,-0.14,1.04,0.069
8.31,-0.428,0.828,-0.202
8.32,-0.132,1.207,-0.043
8.33,-0.082,0.877,0.113
8.34,-0.238,0.851,0.154
8.35,-0.278,0.987,-0.081
8.36,-0.25,0.911,-0.168
8.37,-0.144,1.212,0.087
8.38,-0.115,0.724,0.13
8.39,-0.201,1.017,0.042
8.4,-0.334,0.917,-0.169
8.41,-0.139,1.142,-0.066
8.42,-0.132,0.863,0.113
8.43,-0.227,0.827,0.204
8.44,-0.352,1.095,-0.137
8.45,-0.221,0.822,-0.191
8.46,-0.163,1.271,0.114
8.47,-0.083,0.685,0.149
8.48,-0.224,1.008,0.012
8.49,-0.44,0.998,-0.125
8.5,-0.16,1.001,-0.024
8.51,-0.095,0.967,0.097
8.52,-0.19,0.785,0.184
8.53,-0.383,1.133,-0.182
8.54,-0.215,0.809,-0.107
8.55,-0.074,1.355,0.029
8.56,-0.036,0.652,0.091
8.57,-0.283,0.971,0.066
8.58,-0.386,1.071,-0.194
8.59,-0.045,0.929,-0.022
8.6,-0.248,1.096,0.13
8.61,-0.091,0.69,0.126
8.62,-0.421,1.209,-0.168
8.63,-0.213,0.818,-0.152
8.64,-0.06,1.223,0.092
8.65,-0.069,0.758,0.153
8.66,-0.392,0.917,-0.01
8.67,-0.315,1.121,-0.21
8.68,-0.06,0.875,-0.002
8.69,-0.263,1.142,0.151
8.7,0.008,0.704,0.064
8.71,-0.462,1.202,-0.189
8.72,-0.292,0.863,-0.004
8.73,-0.085,1.167,0.037
8.74,-0.099,0.782,0.074
8.75,-0.38,0.878,0.061
8.76,-0.225,1.193,-0.221
8.77,-0.161,0.854,0.015
8.78,-0.135,1.135,0.12
8.79,-0.021,0.684,0.019
8.8,-0.518,1.196,-0.183
8.81,-0.102,0.959,-0.072
8.82,-0.099,1.031,0.05
8.83,-0.174,0.874,0.148
8.84,-0.306,0.814,-0.055
8.85,-0.237,1.026,-0.146
8.86,-0.109,0.988,0.088
8.87,-0.165,1.106,0.09
8.88,-0.104,0.614,-0.014
8.89,-0.454,1.344,-0.135
8.9,-0.133,0.925,-0.096
8.91,-0.134,0.981,0.062
8.92,-0.031,0.855,0.192
8.93,-0.461,0.9,-0.147
8.94,-0.193,1.082,-0.124
8.95,-0.07,0.982,0.146
8.96,-0.203,1.058,0.122
8.97,-0.206,0.678,-0.003
8.98,-0.477,1.277,-0.147
8.99,-0.063,0.933,-0.057
9.0,-0.208,0.982,0.149
9.01,-0.056,0.905,0.114
9.02,-0.44,0.84,-0.132
9.03,-0.194,1.169,-0.092
9.04,-0.066,0.919,0.083
9.05,-0.149,1.014,0.137
9.06,-0.261,0.728,0.006
9.07,-0.394,1.193,-0.155
9.08,-0.108,0.999,-0.019
9.09,-0.19,0.873,0.172
9.1,-0.103,1.001,0.112
9.11,-0.371,0.776,-0.192
9.12,-0.244,1.194,-0.074
9.13,-0.029,0.919,0.098
9.14,-0.204,0.919,0.129
9.15,-0.232,0.798,-0.001
9.16,-0.325,1.162,-0.178
9.17,-0.117,1.064,-0.038
9.18,-0.219,0.821,0.26
9.19,-0.152,1.048,0.097
9.2,-0.431,0.778,-0.215
9.21,-0.205,1.205,0.004
9.22,-0.096,0.897,0.102
9.23,-0.196,0.874,0.156
9.24,-0.26,0.964,-0.048
9.25,-0.304,0.979,-0.169
9.26,-0.117,1.143,0.005
9.27,-0.128,0.788,0.194
9.28,-0.171,1.059,0.021
9.29,-0.391,0.847,-0.189
9.3,-0.156,1.187,-0.052
9.31,-0.135,0.861,0.055
9.32,-0.101,0.822,0.167
9.33,-0.347,1.04,-0.102
9.34,-0.291,0.895,-0.125
9.35,-0.115,1.217,-0.006
9.36,-0.072,0.708,0.129
9.37,-0.161,1.022,-0.006
9.38,-0.367,0.919,-0.164
9.39,-0.163,1.14,-0.015
9.4,-0.166,0.874,0.076
9.41,-0.104,0.804,0.201
9.42,-0.333,1.13,-0.134
9.43,-0.307,0.806,-0.157
9.44,-0.164,1.282,0.121
9.45,-0.048,0.715,0.1
9.46,-0.319,0.983,0.032
9.47,-0.323,0.988,-0.188
9.48,-0.051,1.066,-0.082
9.49,-0.241,0.97,0.146
9.5,-0.044,0.734,0.146
9.51,-0.431,1.133,-0.19
9.52,-0.198,0.776,-0.104
9.53,-0.084,1.35,0.103
9.54,-0.128,0.681,0.126
9.55,-0.278,0.94,0.012
9.56,-0.285,1.128,-0.174
9.57,-0.126,0.917,-0.024
9.58,-0.198,1.045,0.159
9.59,-0.051,0.733,0.089
9.6,-0.464,1.182,-0.205
9.61,-0.24,0.832,-0.039
9.62,-0.073,1.283,0.046
9.63,-0.136,0.685,0.118
9.64,-0.288,0.935,0.022
9.65,-0.315,1.178,-0.2
9.66,-0.185,0.945,0.046
9.67,-0.115,1.073,0.168
9.68,-0.085,0.687,0.008
9.69,-0.508,1.167,-0.16
9.7,-0.019,0.915,-0.041
9.71,-0.134,1.188,0.029
9.72,-0.197,0.666,0.219
9.73,-0.243,1.056,-0.093
9.74,-0.291,0.993,-0.181
9.75,-0.085,0.983,0.144
9.76,-0.131,1.101,0.136
9.77,-0.18,0.596,-0.008
9.78,-0.411,1.296,-0.166
9.79,-0.099,0.871,-0.074
9.8,-0.214,1.1,0.082
9.81,-0.09,0.838,0.182
9.82,-0.38,0.92,-0.135
9.83,-0.335,1.039,-0.122
9.84,-0.013,1.003,0.072
9.85,-0.134,1.071,0.087
9.86,-0.147,0.594,0.031
9.87,-0.411,1.344,-0.161
9.88,-0.184,0.856,-0.063
9.89,-0.198,1.014,0.122
9.9,-0.027,0.901,0.138
9.91,-0.416,0.813,-0.151
9.92,-0.243,1.142,-0.09
9.93,-0.019,0.986,0.045
9.94,-0.153,1.015,0.109
9.95,-0.194,0.66,0.038
9.96,-0.397,1.313,-0.203
9.97,-0.099,0.906,-0.061
9.98,-0.17,0.979,0.203
9.99,-0.134,0.955,0.121
10.0,-0.38,0.76,-0.165
10.01,-0.238,1.218,-0.092
10.02,0.02,0.957,0.027
10.03,-0.194,0.963,0.105
10.04,-0.171,0.781,0.047
10.05,-0.371,1.241,-0.216
10.06,-0.124,0.931,-0.037
10.07,-0.144,0.86,0.157
10.08,-0.133,1.045,0.088
10.09,-0.418,0.775,-0.194
10.1,-0.289,1.212,-0.063
10.11,-0.021,0.869,0.075
10.12,-0.184,0.962,0.128
10.13,-0.261,0.865,0.007
10.14,-0.279,1.11,-0.205
10.15,-0.152,1.015,-0.029
10.16,-0.134,0.808,0.216
10.17,-0.112,1.064,0.064
10.18,-0.442,0.776,-0.207
10.19,-0.147,1.275,-0.067
10.2,-0.104,0.919,0.059
10.21,-0.178,0.806,0.165
10.22,-0.171,0.956,-0.049
10.23,-0.334,1.024,-0.193
10.24,-0.116,1.094,0.024
10.25,-0.109,0.825,0.205
10.26,-0.165,1.047,0.076
10.27,-0.417,0.833,-0.157
10.28,-0.103,1.222,-0.081
10.29,-0.203,0.87,0.09
10.3,-0.197,0.806,0.223
10.31,-0.295,1.06,-0.081
10.32,-0.313,0.848,-0.193
10.33,-0.125,1.219,0.06
10.34,-0.098,0.845,0.128
10.35,-0.158,1.007,0.038
10.36,-0.333,0.868,-0.196
10.37,-0.115,1.119,-0.066
10.38,-0.195,0.977,0.076
10.39,-0.138,0.766,0.172
10.4,-0.358,1.14,-0.094
10.41,-0.308,0.832,-0.136
10.42,-0.149,1.203,0.082
10.43,-0.029,0.77,0.09
10.44,-0.215,0.969,0.062
10.45,-0.358,0.949,-0.192
10.46,-0.076,1.048,-0.081
10.47,-0.192,1.001,0.075
10.48,-0.093,0.861,0.149
10.49,-0.428,1.086,-0.163
10.5,-0.258,0.828,-0.089
10.51,-0.097,1.328,0.102
10.52,-0.146,0.636,0.119
10.53,-0.245,1.04,0.03
10.54,-0.336,1.013,-0.173
10.55,-0.217,1.035,-0.038
10.56,-0.142,0.866,0.15
10.57,-0.134,0.851,0.143
10.58,-0.475,1.123,-0.185
10.59,-0.17,0.752,-0.101
10.6,-0.143,1.327,0.125
10.61,-0.114,0.669,0.167
10.62,-0.323,0.994,-0.005
10.63,-0.234,1.049,-0.223
10.64,-0.167,0.963,-0.015
10.65,-0.147,0.97,0.141
10.66,-0.049,0.773,0.09
10.67,-0.519,1.144,-0.209
10.68,-0.202,0.799,-0.05
10.69,-0.108,1.314,0.081
10.7,-0.292,1.219,-0.182
10.71,-0.105,0.935,0.109
10.72,-0.145,1.02,0.123
10.73,-0.207,0.808,0.035
10.74,-0.416,0.988,-0.147
10.75,-0.102,1.184,-0.08
10.76,-0.106,0.712,0.075
10.77,-0.152,1.084,0.156
10.78,-0.308,0.776,-0.148
10.79,-0.267,1.102,-0.157
10.8,-0.021,1.024,0.105
10.81,-0.084,0.904,0.105
10.82,-0.305,0.905,0.04
10.83,-0.324,0.971,-0.155
10.84,-0.152,1.205,-0.046
10.85,-0.171,0.729,0.198
10.86,-0.077,1.06,0.084
10.87,-0.353,0.812,-0.204
10.88,-0.238,1.092,-0.043
10.89,-0.038,1.111,0.046
10.9,-0.179,0.708,0.165
10.91,-0.254,1.04,0.045
10.92,-0.35,0.947,-0.188
10.93,-0.181,1.148,-0.048
10.94,-0.108,0.779,0.181
10.95,-0.203,0.989,0.113
10.96,-0.382,0.877,-0.219
10.97,-0.172,1.041,-0.027
10.98,-0.142,1.134,0.058
10.99,-0.044,0.615,0.148
11.0,-0.312,1.129,-0.01
11.01,-0.256,0.904,-0.218
11.02,-0.173,1.143,-0.019
11.03,-0.135,0.825,0.216
11.04,-0.164,0.946,0.071
11.05,-0.421,0.971,-0.213
11.06,-0.1,0.971,-0.027
11.07,-0.101,1.186,0.002
11.08,-0.177,0.59,0.202
11.09,-0.223,1.173,-0.055
11.1,-0.281,0.867,-0.21
11.11,-0.253,1.128,0.076
11.12,-0.02,0.917,0.13
11.13,-0.233,0.837,0.055
11.14,-0.439,1.066,-0.16
11.15,-0.031,0.956,-0.079
11.16,-0.21,1.177,0.018
11.17,-0.063,0.58,0.208
11.18,-0.316,1.213,-0.086
11.19,-0.282,0.83,-0.22
11.2,-0.071,1.145,0.099
11.21,-0.173,0.956,0.148
11.22,-0.232,0.75,0.032
11.23,-0.338,1.099,-0.16
11.24,-0.136,0.892,-0.054
11.25,-0.292,1.079,0.178
11.26,-0.06,0.693,0.146
11.27,-0.437,1.096,-0.14
11.28,-0.245,0.806,-0.107
11.29,-0.017,1.281,0.037
11.3,-0.083,0.783,0.119
11.31,-0.293,0.851,0.056
11.32,-0.385,1.201,-0.202
11.33,-0.02,0.888,-0.05
11.34,-0.295,1.147,0.146
11.35,-0.082,0.67,0.132
11.36,-0.37,1.135,-0.174
11.37,-0.223,0.859,-0.116
11.38,-0.124,1.184,0.099
11.39,-0.064,0.837,0.084
11.4,-0.272,0.782,0.009
11.41,-0.383,1.243,-0.142
11.42,-0.105,0.83,-0.019
11.43,-0.258,1.119,0.17
11.44,-0.04,0.716,0.127
11.45,-0.469,1.1,-0.188
11.46,-0.263,0.919,-0.043
11.47,-0.01,1.138,0.106
11.48,-0.198,0.875,0.105
11.49,-0.239,0.72,-0.027
11.5,-0.339,1.291,-0.184
11.51,-0.101,0.812,0.009
11.52,-0.178,1.132,0.155
11.53,-0.009,0.783,0.065
11.54,-0.456,1.063,-0.178
11.55,-0.234,1.033,-0.036
11.56,-0.114,0.995,0.1
11.57,-0.152,0.951,0.082
11.58,-0.227,0.725,-0.04
11.59,-0.322,1.306,-0.203
11.6,-0.163,0.853,0.049
11.61,-0.152,1.099,0.162
11.62,-0.111,0.778,0.059
11.63,-0.442,1.035,-0.173
11.64,-0.158,1.131,-0.096
11.65,-0.065,0.824,0.055
11.66,-0.184,1.021,0.157
11.67,-0.277,0.744,-0.104
11.68,-0.315,1.185,-0.173
11.69,-0.121,0.949,0.097
11.7,-0.168,1.057,0.128
11.71,-0.111,0.809,-0.019
11.72,-0.439,0.995,-0.137
11.73,-0.115,1.22,-0.088
11.74,-0.146,0.77,0.126
11.75,-0.198,1.057,0.183
11.76,-0.293,0.809,-0.161
11.77,-0.302,1.108,-0.142
11.78,-0.062,1.034,0.063
11.79,-0.117,0.922,0.133
11.8,-0.197,0.918,0.017
11.81,-0.4,0.956,-0.114
11.82,-0.167,1.238,-0.038
11.83,-0.167,0.68,0.108
11.84,-0.128,1.05,0.18
11.85,-0.323,0.84,-0.175
11.86,-0.357,1.044,-0.111
11.87,-0.031,1.114,0.057
11.88,-0.134,0.783,0.117
11.89,-0.289,0.99,0.063
11.9,-0.352,0.945,-0.181
11.91,-0.083,1.183,-0.064
11.92,-0.192,0.762,0.198
11.93,-0.185,1.016,0.135
11.94,-0.355,0.911,-0.192
11.95,-0.248,1.044,-0.054
11.96,-0.124,1.172,0.05
11.97,-0.136,0.636,0.117
11.98,-0.277,1.086,0.049
11.99,-0.268,0.907,-0.221
12.0,-0.145,1.142,-0.013
12.01,-0.101,0.842,0.148
12.02,-0.101,0.928,0.083
12.03,-0.458,0.973,-0.171
12.04,-0.129,1.168,-0.039
12.05,-0.172,0.972,0.079
12.06,-0.157,0.682,0.183
12.07,-0.251,1.172,-0.063
12.08,-0.418,0.83,-0.18
12.09,-0.2,1.119,0.064
12.1,0.026,0.869,0.111
12.11,-0.228,0.959,0.013
12.12,-0.362,0.938,-0.162
12.13,-0.108,1.022,-0.101
12.14,-0.176,0.997,0.085
12.15,-0.124,0.74,0.195
12.16,-0.378,1.174,-0.114
12.17,-0.3,0.748,-0.124
12.18,-0.214,1.278,0.112
12.19,-0.097,0.792,0.15
12.2,-0.249,0.866,0.013
12.21,-0.351,1.106,-0.155
12.22,-0.146,0.948,-0.111
12.23,-0.155,1.019,0.071
12.24,-0.082,0.72,0.191
12.25,-0.402,1.196,-0.182
12.26,-0.209,0.732,-0.144
12.27,-0.067,1.32,0.096
12.28,-0.102,0.853,0.131
12.29,-0.25,0.826,0.06
12.3,-0.373,1.225,-0.164
12.31,-0.116,0.872,-0.026
12.32,-0.285,1.13,0.099
12.33,0.018,0.667,0.117
12.34,-0.439,1.158,-0.156
12.35,-0.198,0.847,-0.113
12.36,-0.052,1.206,-0.005
12.37,-0.162,0.854,0.161
12.38,-0.219,0.75,0.005
12.39,-0.324,1.317,-0.196
12.4,-0.114,0.836,-0.003
12.41,-0.254,1.158,0.146
12.42,-0.023,0.702,0.125
12.43,-0.457,1.078,-0.156
12.44,-0.285,0.932,-0.071
12.45,-0.025,1.118,0.022
12.46,-0.117,0.905,0.086
12.47,-0.257,0.696,0.038
12.48,-0.31,1.317,-0.264
12.49,-0.081,0.769,-0.027
12.5,-0.243,1.188,0.227
12.51,-0.093,0.725,0.091
12.52,-0.48,1.01,-0.175
12.53,-0.203,1.073,-0.048
12.54,-0.14,1.022,0.033
12.55,-0.109,0.929,0.121
12.56,-0.225,0.738,0.041
12.57,-0.417,1.297,-0.206
12.58,-0.1,0.771,-0.015
12.59,-0.122,1.131,0.168
12.6,-0.186,0.772,0.131
12.61,-0.408,0.979,-0.127
12.62,-0.168,1.171,-0.102
12.63,-0.098,0.896,0.06
12.64,-0.143,0.983,0.124
12.65,-0.258,0.758,0.0
12.66,-0.35,1.302,-0.213
12.67,-0.143,0.849,-0.008
12.68,-0.136,1.086,0.148
12.69,-0.038,0.833,0.054
12.7,-0.439,0.876,-0.152
12.71,-0.191,1.218,-0.064
12.72,-0.066,0.855,0.055
12.73,-0.178,1.001,0.134
12.74,-0.221,0.765,-0.008
12.75,-0.41,1.207,-0.197
12.76,-0.083,0.901,-0.007
12.77,-0.156,1.015,0.212
12.78,-0.173,0.925,0.056
12.79,-0.35,0.828,-0.164
12.8,-0.156,1.29,-0.051
12.81,-0.121,0.752,0.066
12.82,-0.18,0.982,0.141
12.83,-0.228,0.855,-0.057
12.84,-0.314,1.107,-0.222
12.85,-0.149,1.01,0.056
12.86,-0.052,1.024,0.089
12.87,-0.175,0.862,0.025
12.88,-0.416,0.958,-0.133
12.89,-0.097,1.216,-0.098
12.9,-0.148,0.748,0.095
12.91,-0.082,1.039,0.167
12.92,-0.351,0.83,-0.153
12.93,-0.28,1.036,-0.172
12.94,-0.066,1.052,0.108
12.95,-0.143,0.893,0.169
12.96,-0.212,0.955,0.033
12.97,-0.406,0.941,-0.136
12.98,-0.198,1.18,-0.049
12.99,-0.167,0.761,0.144
13.0,-0.089,1.089,0.165
13.01,-0.426,0.814,-0.15
13.02,-0.301,0.988,-0.081
13.03,-0.069,1.203,0.032
13.04,-0.078,0.731,0.099
13.05,-0.278,1.012,0.058
13.06,-0.331,0.976,-0.153
13.07,-0.224,1.222,-0.041
13.08,-0.208,0.651,0.127
13.09,-0.007,1.036,0.117
13.1,-0.391,0.949,-0.172
13.11,-0.308,0.874,-0.042
13.12,-0.052,1.241,0.024
13.13,-0.115,0.655,0.13
13.14,-0.327,1.079,0.073
13.15,-0.247,0.94,-0.23
13.16,-0.133,1.142,-0.087
13.17,-0.179,0.777,0.141
13.18,-0.047,0.954,0.147
13.19,-0.43,1.007,-0.212
13.2,-0.302,0.834,-0.021
13.21,0.008,1.279,0.036
13.22,-0.13,0.606,0.092
13.23,-0.321,1.124,0.059
13.24,-0.216,0.982,-0.227
13.25,-0.229,1.06,-0.053
13.26,-0.219,0.833,0.211
13.27,-0.017,0.871,0.076
13.28,-0.527,1.085,-0.18
13.29,-0.218,0.831,-0.041
13.3,0.002,1.348,0.052
13.31,-0.169,0.582,0.142
13.32,-0.292,1.09,0.039
13.33,-0.291,1.026,-0.243
13.34,-0.178,0.971,-0.039
13.35,-0.115,0.969,0.19
13.36,-0.084,0.78,0.062
13.37,-0.496,1.144,-0.199
13.38,-0.151,0.823,0.005
13.39,-0.126,1.304,0.073
13.4,-0.194,0.61,0.164
13.41,-0.213,1.095,-0.005
13.42,-0.398,1.026,-0.228
13.43,-0.171,0.9,0.016
13.44,-0.166,1.143,0.179
13.45,-0.049,0.668,0.023
13.46,-0.464,1.176,-0.168
13.47,-0.109,0.903,-0.026
13.48,-0.153,1.249,0.024
13.49,-0.115,0.626,0.179
13.5,-0.256,1.035,0.035
13.51,-0.385,1.107,-0.212
13.52,-0.145,0.854,0.022
13.53,-0.108,1.197,0.16
13.54,-0.101,0.652,0.05
13.55,-0.455,1.139,-0.135
13.56,-0.08,0.961,0.027
13.57,-0.187,1.235,0.04
13.58,-0.115,0.699,0.157
13.59,-0.216,0.941,-0.016
13.6,-0.36,1.22,-0.232
13.61,-0.083,0.806,-0.013
13.62,-0.126,1.194,0.188
13.63,-0.175,0.676,0.084
13.64,-0.544,1.136,-0.197
13.65,-0.003,0.938,-0.032
13.66,-0.202,1.091,0.094
13.67,-0.194,0.722,0.256
13.68,-0.247,1.042,-0.131
13.69,-0.296,0.981,-0.217
13.7,-0.156,0.944,0.14
13.71,-0.01,1.119,0.065
13.72,-0.235,0.616,0.012
13.73,-0.418,1.281,-0.128
13.74,-0.065,0.923,-0.079
13.75,-0.251,1.041,0.056
13.76,-0.064,0.808,0.204
13.77,-0.358,0.967,-0.174
13.78,-0.29,1.041,-0.177
13.79,-0.086,0.954,0.097
13.8,-0.072,1.122,0.091
13.81,-0.177,0.609,0.034
13.82,-0.389,1.291,-0.132
13.83,-0.151,0.96,-0.064
13.84,-0.191,0.963,0.083
13.85,-0.123,0.926,0.219
13.86,-0.343,0.869,-0.134
13.87,-0.331,1.103,-0.157
13.88,-0.095,0.888,0.127
13.89,-0.117,1.155,0.09
13.9,-0.176,0.625,0.014
13.91,-0.426,1.211,-0.118
13.92,-0.134,1.024,-0.104
13.93,-0.181,0.846,0.073
13.94,-0.11,0.969,0.198
13.95,-0.344,0.859,-0.138
13.96,-0.36,1.127,-0.164
13.97,-0.038,0.889,0.095
13.98,-0.087,1.103,0.095
13.99,-0.103,0.692,-0.008
14.0,-0.442,1.134,-0.142
14.01,-0.049,1.11,-0.107
14.02,-0.149,0.82,0.097
14.03,-0.196,1.015,0.194
14.04,-0.305,0.789,-0.158
14.05,-0.279,1.175,-0.19
14.06,-0.056,0.955,0.103
14.07,-0.11,1.028,0.116
14.08,-0.192,0.803,0.042
14.09,-0.459,1.024,-0.117
14.1,-0.041,1.181,-0.139
14.11,-0.215,0.771,0.099
14.12,-0.157,1.046,0.186
14.13,-0.265,0.796,-0.151
14.14,-0.352,1.12,-0.116
14.15,-0.189,0.95,0.138
14.16,-0.071,0.962,0.113
14.17,-0.222,0.891,-0.04
14.18,-0.382,0.934,-0.126
14.19,-0.065,1.218,-0.112
14.2,-0.144,0.736,0.066
14.21,-0.112,1.053,0.21
14.22,-0.315,0.879,-0.162
14.23,-0.341,1.073,-0.143
14.24,-0.106,1.065,0.093
14.25,-0.083,0.856,0.131
14.26,-0.316,0.966,0.034
14.27,-0.284,0.956,-0.161
14.28,-0.196,1.235,-0.071
14.29,-0.2,0.682,0.119
14.3,-0.039,1.021,0.18
14.31,-0.37,0.884,-0.171
14.32,-0.288,0.941,-0.119
14.33,-0.072,1.161,0.065
14.34,-0.107,0.757,0.099
14.35,-0.273,1.032,0.053
14.36,-0.291,0.961,-0.182
14.37,-0.16,1.208,-0.035
14.38,-0.205,0.705,0.162
14.39,-0.08,0.996,0.201
14.4,-0.356,0.953,-0.154
14.41,-0.289,0.872,-0.085
14.42,-0.121,1.252,0.094
14.43,-0.163,0.779,0.147
14.44,-0.3,1.039,-0.013
14.45,-0.359,0.906,-0.132
14.46,-0.156,1.214,-0.079
14.47,-0.185,0.721,0.083
14.48,-0.055,0.92,0.191
14.49,-0.384,0.856,-0.189
14.5,-0.312,0.957,-0.011
14.51,0.042,1.222,0.042
14.52,-0.197,0.716,0.112
14.53,-0.335,1.03,0.075
14.54,-0.283,0.95,-0.203
14.55,-0.132,1.177,-0.027
14.56,-0.235,0.734,0.165
14.57,-0.038,0.979,0.137
14.58,-0.357,0.97,-0.186
14.59,-0.313,0.907,-0.054
14.6,-0.021,1.206,0.035
14.61,-0.049,0.652,0.097
14.62,-0.42,1.126,0.037
14.63,-0.176,0.881,-0.215
14.64,-0.178,1.116,-0.088
14.65,-0.198,0.793,0.178
14.66,-0.007,0.955,0.113
14.67,-0.363,1.019,-0.221
14.68,-0.282,0.82,-0.033
14.69,-0.04,1.335,0.039
14.7,-0.086,0.608,0.14
14.71,-0.39,1.045,0.047
14.72,-0.222,1.006,-0.189
14.73,-0.15,1.085,-0.036
14.74,-0.277,0.837,0.163
14.75,0.01,0.854,0.148
14.76,-0.442,1.15,-0.209
14.77,-0.25,0.702,-0.043
14.78,0.0,1.402,0.008
14.79,-0.067,0.625,0.103
14.8,-0.454,1.048,0.072
14.81,-0.204,1.039,-0.211
14.82,-0.104,0.982,-0.084
14.83,-0.312,0.919,0.204
14.84,0.009,0.77,0.098
14.85,-0.438,1.205,-0.211
14.86,-0.335,0.766,0.007
14.87,-0.006,1.346,0.02
14.88,-0.119,0.676,0.143
14.89,-0.374,0.967,0.006
14.9,-0.166,1.059,-0.22
14.91,-0.191,0.956,0.034
14.92,-0.26,0.992,0.198
14.93,0.003,0.714,0.094
14.94,-0.506,1.216,-0.202
14.95,-0.268,0.789,-0.019
14.96,-0.067,1.28,0.035
14.97,-0.059,0.729,0.104
14.98,-0.356,0.951,0.03
14.99,-0.26,1.12,-0.228
15.0,-0.111,0.866,-0.002
15.01,-0.271,1.158,0.175
15.02,0.02,0.654,0.058
15.03,-0.465,1.17,-0.215
15.04,-0.194,0.881,-0.009
15.05,-0.109,1.245,0.067
15.06,-0.058,0.743,0.067
15.07,-0.313,0.865,0.041
15.08,-0.294,1.206,-0.238
15.09,-0.089,0.814,0.008
15.1,-0.281,1.208,0.181
15.11,0.032,0.681,0.032
15.12,-0.427,1.165,-0.223
15.13,-0.17,0.953,-0.052
15.14,-0.096,1.137,0.009
15.15,-0.105,0.816,0.129
15.16,-0.276,0.807,0.007
15.17,-0.338,1.29,-0.198
15.18,-0.113,0.804,0.014
15.19,-0.209,1.191,0.167
15.2,-0.096,0.697,0.109
15.21,-0.5,1.085,-0.199
15.22,-0.232,0.983,-0.027
15.23,-0.033,1.041,0.064
15.24,-0.127,0.906,0.129
15.25,-0.268,0.714,-0.024
15.26,-0.286,1.35,-0.169
15.27,-0.121,0.831,-0.016
15.28,-0.243,1.08,0.177
15.29,-0.004,0.777,0.08
15.3,-0.549,1.182,-0.209
15.31,-0.138,0.938,0.032
15.32,-0.097,1.112,0.092
15.33,-0.246,0.843,0.158
15.34,-0.255,0.79,-0.03
15.35,-0.276,1.296,-0.205
15.36,-0.216,0.785,0.039
15.37,-0.07,1.165,0.134
15.38,-0.104,0.704,-0.009
15.39,-0.594,1.078,-0.146
15.4,0.04,1.026,-0.09
15.41,-0.108,0.966,0.08
15.42,-0.259,0.956,0.196
15.43,-0.178,0.841,-0.148
15.44,-0.295,1.217,-0.226
15.45,-0.122,0.848,0.145
15.46,-0.059,1.085,0.146
15.47,-0.268,0.726,-0.009
15.48,-0.469,1.092,-0.131
15.49,-0.028,1.068,-0.059
15.5,-0.212,0.813,0.126
15.51,-0.084,1.029,0.187
15.52,-0.324,0.809,-0.186
15.53,-0.27,1.161,-0.167
15.54,-0.061,0.971,0.09
15.55,-0.093,0.976,0.126
15.56,-0.304,0.836,0.012
15.57,-0.36,1.04,-0.126
15.58,-0.121,1.173,-0.06
15.59,-0.239,0.755,0.147
15.6,-0.101,1.069,0.166
15.61,-0.281,0.79,-0.21
15.62,-0.338,1.141,-0.081
15.63,-0.052,1.003,0.062
15.64,-0.061,0.841,0.114
15.65,-0.276,0.916,0.004
15.66,-0.334,1.011,-0.172
15.67,-0.062,1.237,-0.09
15.68,-0.226,0.669,0.143
15.69,-0.143,1.062,0.18
15.7,-0.299,0.875,-0.181
15.71,-0.366,1.002,-0.129
15.72,0.041,1.049,0.051
15.73,-0.048,0.813,0.113
15.74,-0.386,1.002,0.024
15.75,-0.243,0.907,-0.16
15.76,-0.109,1.263,-0.043
15.77,-0.274,0.693,0.118
15.78,-0.048,1.014,0.115
15.79,-0.365,0.958,-0.196
15.8,-0.296,0.988,-0.09
15.81,0.059,1.135,0.047
15.82,-0.09,0.724,0.143
15.83,-0.383,1.096,0.007
15.84,-0.245,0.881,-0.163
15.85,-0.194,1.18,-0.024
15.86,-0.222,0.773,0.185
15.87,-0.052,0.941,0.065
15.88,-0.421,1.012,-0.197
15.89,-0.286,0.934,-0.013
15.9,-0.014,1.195,0.033
15.91,-0.06,0.642,0.093
15.92,-0.342,1.161,0.005
15.93,-0.27,0.847,-0.237
15.94,-0.165,1.099,0.034
15.95,-0.182,0.913,0.156
15.96,-0.079,0.873,0.058
15.97,-0.368,1.05,-0.189
15.98,-0.182,0.901,-0.038
15.99,-0.096,1.273,0.051
16.0,-0.058,0.612,0.158
16.01,-0.375,1.117,0.001
16.02,-0.292,0.926,-0.202
16.03,-0.093,1.13,-0.001
16.04,-0.281,0.925,0.2
16.05,-0.09,0.785,0.085
16.06,-0.417,1.14,-0.213
16.07,-0.189,0.832,-0.013
16.08,-0.115,1.229,0.062
16.09,-0.098,0.626,0.115
16.1,-0.351,1.104,0.009
16.11,-0.293,0.96,-0.19
16.12,-0.188,1.177,0.11
16.13,-0.075,0.883,0.096
16.14,-0.141,0.866,0.033
16.15,-0.443,1.102,-0.206
16.16,-0.018,0.882,-0.074
16.17,-0.172,1.218,0.075
16.18,-0.09,0.631,0.172
16.19,-0.329,1.161,-0.121
16.2,-0.28,0.865,-0.12
16.21,-0.204,1.181,0.097
16.22,-0.073,0.917,0.147
16.23,-0.157,0.762,0.028
16.24,-0.43,1.234,-0.186
16.25,-0.064,0.858,-0.071
16.26,-0.193,1.123,0.096
16.27,-0.078,0.674,0.184
16.28,-0.404,1.143,-0.131
16.29,-0.302,0.844,-0.164
16.3,-0.146,1.075,0.092
16.31,-0.156,1.025,0.157
16.32,-0.232,0.694,0.042
16.33,-0.408,1.268,-0.165
16.34,-0.114,0.859,-0.041
16.35,-0.173,1.113,0.116
16.36,-0.142,0.723,0.186
16.37,-0.371,1.04,-0.149
16.38,-0.197,0.955,-0.175
16.39,-0.133,1.038,0.087
16.4,-0.106,1.047,0.106
16.41,-0.144,0.665,-0.036
16.42,-0.416,1.306,-0.157
16.43,-0.081,0.875,-0.073
16.44,-0.162,1.074,0.11
16.45,-0.089,0.805,0.174
16.46,-0.365,0.98,-0.173
16.47,-0.216,1.045,-0.18
16.48,-0.075,0.99,0.107
16.49,-0.174,1.029,0.112
16.5,-0.25,0.679,-0.0
16.51,-0.371,1.326,-0.19
16.52,-0.136,0.852,-0.053
16.53,-0.196,1.026,0.152
16.54,-0.051,0.919,0.106
16.55,-0.361,0.867,-0.223
16.56,-0.267,1.122,-0.036
16.57,0.047,0.972,0.016
16.58,-0.195,1.025,0.129
16.59,-0.209,0.673,0.035
16.6,-0.317,1.326,-0.218
16.61,-0.127,0.885,-0.091
16.62,-0.198,0.933,0.244
16.63,-0.036,0.953,0.087
16.64,-0.482,0.806,-0.193
16.65,-0.2,1.223,-0.028
16.66,-0.053,0.951,0.011
16.67,-0.217,0.944,0.146
16.68,-0.219,0.775,0.048
16.69,-0.343,1.205,-0.232
16.7,-0.17,0.921,-0.046
16.71,-0.19,0.896,0.184
16.72,-0.068,1.028,0.056
16.73,-0.442,0.769,-0.188
16.74,-0.204,1.187,-0.034
16.75,-0.077,0.956,0.022
16.76,-0.178,0.894,0.129
16.77,-0.24,0.834,0.016
16.78,-0.298,1.142,-0.221
16.79,-0.118,1.029,-0.053
16.8,-0.144,0.784,0.166
16.81,-0.112,1.058,0.066
16.82,-0.392,0.753,-0.214
16.83,-0.259,1.172,0.013
16.84,-0.046,0.993,0.059
16.85,-0.092,0.851,0.105
16.86,-0.284,0.937,0.021
16.87,-0.253,1.045,-0.222
16.88,-0.121,1.106,-0.059
16.89,-0.114,0.775,0.208
16.9,-0.19,1.104,0.08
16.91,-0.398,0.757,-0.189
16.92,-0.215,1.151,-0.034
16.93,-0.066,0.81,0.047
16.94,-0.262,0.905,0.182
16.95,-0.208,0.914,-0.089
16.96,-0.207,1.055,-0.184
16.97,-0.226,1.13,0.053
16.98,-0.053,0.761,0.155
16.99,-0.181,1.035,0.056
17.0,-0.418,0.852,-0.138
17.01,-0.095,1.226,-0.114
17.02,-0.108,0.803,0.076
17.03,-0.219,0.921,0.226
17.04,-0.249,0.983,-0.121
17.05,-0.312,0.863,-0.151
17.06,-0.218,1.204,0.091
17.07,-0.003,0.796,0.124
17.08,-0.226,1.015,0.005
17.09,-0.387,0.865,-0.14
17.1,-0.101,1.197,-0.088
17.11,-0.111,0.807,0.093
17.12,-0.147,0.849,0.179
17.13,-0.348,1.095,-0.101
17.14,-0.23,0.827,-0.154
17.15,-0.189,1.236,0.085
17.16,-0.041,0.761,0.155
17.17,-0.204,1.022,0.008
17.18,-0.469,0.883,-0.171
17.19,-0.083,1.081,-0.059
17.2,-0.137,0.901,0.113
17.21,-0.197,0.738,0.161
17.22,-0.335,1.14,-0.113
17.23,-0.231,0.825,-0.142
17.24,-0.186,1.278,0.098
17.25,-0.037,0.759,0.138
17.26,-0.245,0.978,-0.001
17.27,-0.459,0.938,-0.128
17.28,-0.074,1.052,-0.025
17.29,-0.206,1.021,0.117
17.3,-0.189,0.698,0.207
17.31,-0.312,1.219,-0.171
17.32,-0.263,0.812,-0.118
17.33,-0.228,1.26,0.142
17.34,-0.014,0.748,0.108
17.35,-0.332,0.919,-0.052
17.36,-0.411,1.075,-0.138
17.37,-0.008,0.945,-0.067
17.38,-0.22,1.053,0.133
17.39,-0.088,0.706,0.186
17.4,-0.426,1.218,-0.179
17.41,-0.342,0.79,-0.065
17.42,-0.042,1.24,0.069
17.43,-0.08,0.788,0.078
17.44,-0.299,0.854,0.013
17.45,-0.27,1.204,-0.191
17.46,-0.121,0.825,-0.025
17.47,-0.258,1.11,0.194
17.48,0.012,0.705,0.101
17.49,-0.533,1.184,-0.185
17.5,-0.272,0.872,-0.035
17.51,-0.011,1.153,0.036
17.52,-0.167,0.837,0.125
17.53,-0.328,0.792,-0.007
17.54,-0.219,1.265,-0.215
17.55,-0.154,0.799,-0.006
17.56,-0.224,1.114,0.198
17.57,0.049,0.707,0.088
17.58,-0.555,1.163,-0.193
17.59,-0.186,0.944,-0.009
17.6,-0.086,1.111,0.052
17.61,-0.193,0.862,0.13
17.62,-0.28,0.759,-0.041
17.63,-0.325,1.315,-0.228
17.64,-0.118,0.795,-0.017
17.65,-0.118,1.15,0.205
17.66,-0.115,0.686,0.08
17.67,-0.533,1.085,-0.149
17.68,-0.08,1.11,-0.026
17.69,-0.156,0.92,0.092
17.7,-0.247,0.94,0.19
17.71,-0.29,0.802,-0.057
17.72,-0.35,1.235,-0.183
17.73,-0.197,0.818,0.082
17.74,-0.082,1.148,0.135
17.75,-0.138,0.63,0.016
17.76,-0.494,1.193,-0.126
17.77,-0.027,0.961,-0.11
17.78,-0.206,0.906,0.1
17.79,-0.137,0.956,0.182
17.8,-0.306,0.868,-0.171
17.81,-0.249,1.155,-0.152
17.82,-0.128,0.917,0.117
17.83,-0.012,1.063,0.104
17.84,-0.201,0.72,-0.017
17.85,-0.407,1.167,-0.137
17.86,-0.079,1.058,-0.126
17.87,-0.231,0.839,0.142
17.88,-0.103,1.016,0.157
17.89,-0.298,0.791,-0.215
17.9,-0.318,1.175,-0.134
17.91,-0.032,0.955,0.088
17.92,-0.098,0.954,0.12
17.93,-0.269,0.791,0.032
17.94,-0.325,1.142,-0.165
17.95,-0.153,1.079,-0.024
17.96,-0.195,0.734,0.163
17.97,-0.101,1.07,0.091
17.98,-0.332,0.797,-0.209
17.99,-0.294,1.171,-0.075
18.0,-0.005,1.014,0.057
18.01,-0.138,0.863,0.129
18.02,-0.259,0.91,0.037
18.03,-0.268,1.036,-0.187
18.04,-0.113,1.125,-0.078
18.05,-0.203,0.728,0.206
18.06,-0.053,1.086,0.094
18.07,-0.413,0.808,-0.219
18.08,-0.205,1.153,-0.027
18.09,-0.105,1.025,0.061
18.1,-0.219,0.74,0.209
18.11,-0.243,1.071,0.007
18.12,-0.266,0.963,-0.206
18.13,-0.195,1.135,-0.009
18.14,-0.088,0.742,0.154
18.15,-0.108,1.083,0.04
18.16,-0.377,0.842,-0.214
18.17,-0.2,1.075,-0.003
18.18,-0.146,1.072,0.073
18.19,-0.163,0.66,0.16
18.2,-0.294,1.149,-0.021
18.21,-0.263,0.933,-0.229
18.22,-0.196,1.129,0.023
18.23,-0.061,0.796,0.16
18.24,-0.116,1.034,0.029
18.25,-0.421,0.877,-0.188
18.26,-0.204,0.973,-0.033
18.27,-0.03,1.16,0.045
18.28,-0.176,0.622,0.145
18.29,-0.326,1.142,0.012
18.3,-0.255,0.894,-0.233
18.31,-0.18,1.102,-0.009
18.32,-0.045,0.819,0.191
18.33,-0.123,0.923,0.019
18.34,-0.487,1.009,-0.176
18.35,-0.007,0.954,-0.036
18.36,-0.178,1.2,0.089
18.37,-0.239,0.613,0.22
18.38,-0.256,1.185,-0.056
18.39,-0.346,0.863,-0.197
18.4,-0.252,1.125,0.115
18.41,-0.015,0.936,0.109
18.42,-0.215,0.785,-0.024
18.43,-0.436,1.148,-0.132
18.44,0.019,0.91,-0.099
18.45,-0.298,1.129,0.059
18.46,-0.074,0.686,0.23
18.47,-0.339,1.166,-0.138
18.48,-0.334,0.816,-0.177
18.49,-0.118,1.132,0.112
18.5,-0.064,0.936,0.084
18.51,-0.252,0.707,0.035
18.52,-0.351,1.3,-0.173
18.53,-0.13,0.825,-0.083
18.54,-0.17,1.085,0.078
18.55,-0.049,0.77,0.207
18.56,-0.469,1.15,-0.162
18.57,-0.292,0.772,-0.081
18.58,-0.007,1.316,0.043
18.59,-0.173,0.783,0.125
18.6,-0.285,0.806,0.082
18.61,-0.245,1.296,-0.209
18.62,-0.156,0.796,-0.046
18.63,-0.321,1.083,0.236
18.64,-0.002,0.763,0.119
18.65,-0.439,1.098,-0.198
18.66,-0.279,0.832,-0.097
18.67,-0.054,1.221,0.077
18.68,-0.134,0.854,0.101
18.69,-0.264,0.769,0.034
18.7,-0.323,1.352,-0.204
18.71,-0.084,0.777,-0.066
18.72,-0.241,1.084,0.187
18.73,-0.025,0.746,0.112
18.74,-0.471,1.096,-0.174
18.75,-0.234,0.897,-0.11
18.76,-0.03,1.124,0.058
18.77,-0.156,0.944,0.141
18.78,-0.315,0.708,0.042
18.79,-0.311,1.321,-0.207
18.8,-0.131,0.811,-0.048
18.81,-0.181,1.103,0.2
18.82,-0.052,0.795,0.135
18.83,-0.485,0.999,-0.182
18.84,-0.167,1.039,-0.086
18.85,-0.091,1.038,0.053
18.86,-0.186,0.973,0.109
18.87,-0.193,0.69,0.019
18.88,-0.343,1.333,-0.234
18.89,-0.156,0.801,-0.035
18.9,-0.178,1.072,0.162
18.91,-0.072,0.83,0.102
18.92,-0.431,0.934,-0.153
18.93,-0.236,1.13,-0.069
18.94,-0.042,0.933,0.05
18.95,-0.143,1.015,0.145
18.96,-0.253,0.682,0.01
18.97,-0.364,1.271,-0.208
18.98,-0.114,0.887,-0.028
18.99,-0.192,1.0,0.116
19.0,-0.158,0.9,0.11
19.01,-0.38,0.832,-0.188
19.02,-0.23,1.197,-0.05
19.03,-0.036,0.912,0.038
19.04,-0.429,1.253,-0.133
19.05,-0.137,0.951,-0.014
19.06,-0.201,1.016,0.087
19.07,-0.117,0.823,0.183
19.08,-0.345,0.91,-0.114
19.09,-0.302,1.06,-0.168
19.1,-0.087,0.946,0.135
19.11,-0.185,1.125,0.107
19.12,-0.164,0.603,0.043
19.13,-0.429,1.286,-0.137
19.14,-0.125,0.954,-0.08
19.15,-0.175,0.966,0.111
19.16,-0.095,0.943,0.189
19.17,-0.35,0.841,-0.149
19.18,-0.302,1.121,-0.172
19.19,-0.025,0.906,0.064
19.2,-0.147,1.12,0.153
19.21,-0.242,0.654,0.043
19.22,-0.339,1.234,-0.195
19.23,-0.15,1.008,-0.075
19.24,-0.118,0.862,0.096
19.25,-0.077,1.049,0.166
19.26,-0.355,0.741,-0.129
19.27,-0.285,1.153,-0.136
19.28,-0.085,0.95,0.052
19.29,-0.149,1.035,0.129
19.3,-0.128,0.726,0.034
19.31,-0.426,1.314,-0.163
19.32,-0.086,0.94,-0.037
19.33,-0.21,0.922,0.114
19.34,-0.088,0.926,0.171
19.35,-0.431,0.853,-0.149
19.36,-0.248,1.119,-0.162
19.37,-0.068,0.968,0.094
19.38,-0.172,1.038,0.139
19.39,-0.191,0.646,0.016
19.4,-0.41,1.241,-0.102
19.41,-0.099,1.035,-0.085
19.42,-0.205,0.788,0.132
19.43,-0.05,1.048,0.189
19.44,-0.47,0.804,-0.169
19.45,-0.238,1.103,-0.09
19.46,-0.041,1.038,0.094
19.47,-0.144,0.982,0.105
19.48,-0.23,0.743,0.048
19.49,-0.341,1.154,-0.137
19.5,-0.187,1.084,-0.024
19.51,-0.211,0.784,0.112
19.52,-0.081,1.048,0.143
19.53,-0.34,0.839,-0.186
19.54,-0.332,1.164,-0.085
19.55,-0.058,0.945,0.067
19.56,-0.088,0.909,0.108
19.57,-0.275,0.851,0.001
19.58,-0.298,1.071,-0.138
19.59,-0.172,1.133,-0.001
19.6,-0.236,0.748,0.163
19.61,-0.06,1.081,0.134
19.62,-0.313,0.793,-0.215
19.63,-0.257,1.196,-0.028
19.64,-0.157,0.962,0.039
19.65,-0.096,0.794,0.181
19.66,-0.272,0.956,0.017
19.67,-0.282,1.009,-0.217
19.68,-0.1,1.133,-0.04
19.69,-0.189,0.753,0.143
19.7,-0.123,1.056,0.135
19.71,-0.332,0.844,-0.202
19.72,-0.282,1.069,-0.048
19.73,-0.081,1.1,0.031
19.74,-0.102,0.684,0.106
19.75,-0.283,1.029,0.04
19.76,-0.354,0.933,-0.144
19.77,-0.124,1.157,-0.019
19.78,-0.148,0.78,0.139
19.79,-0.143,1.026,0.098
19.8,-0.331,0.902,-0.207
19.81,-0.208,1.029,-0.017
19.82,-0.191,1.175,0.079
19.83,-0.094,0.636,0.143
19.84,-0.301,1.144,0.014
19.85,-0.302,0.875,-0.213
19.86,-0.118,1.116,-0.016
19.87,-0.157,0.836,0.184
19.88,-0.142,0.961,0.079
19.89,-0.398,0.963,-0.185
19.9,-0.199,0.954,-0.06
19.91,-0.163,1.216,0.059
19.92,-0.071,0.596,0.131
19.93,-0.292,1.154,0.001
19.94,-0.321,0.892,-0.212
19.95,-0.151,1.065,0.006
19.96,-0.106,0.911,0.138
19.97,-0.114,0.876,0.066
19.98,-0.364,1.013,-0.191
19.99,-0.174,0.931,-0.038
20.0,-0.148,1.272,0.059
20.01,-0.088,0.61,0.133
20.02,-0.322,1.136,0.014
20.03,-0.363,0.952,-0.205
20.04,-0.108,1.029,0.014
20.05,-0.109,1.004,0.157
20.06,-0.19,0.785,0.068
20.07,-0.421,1.085,-0.164
20.08,-0.208,0.875,-0.022
20.09,-0.11,1.287,0.051
20.1,-0.122,0.632,0.112
20.11,-0.33,1.077,-0.019
20.12,-0.301,0.969,-0.205
20.13,-0.104,1.161,0.012
20.14,-0.062,0.906,0.134
20.15,-0.15,0.848,0.008
20.16,-0.466,1.122,-0.156
20.17,-0.073,0.906,-0.059
20.18,-0.134,1.167,0.081
20.19,-0.167,0.661,0.184
20.2,-0.363,1.196,-0.066
20.21,-0.27,0.85,-0.155
20.22,-0.19,1.091,0.085
20.23,-0.113,0.921,0.158
20.24,-0.152,0.74,0.009
20.25,-0.415,1.182,-0.19
20.26,-0.082,0.875,-0.062
20.27,-0.142,1.161,0.073
20.28,-0.153,0.689,0.213
20.29,-0.368,1.138,-0.133
20.3,-0.257,0.918,-0.149
20.31,-0.153,1.091,0.08
20.32,-0.068,1.001,0.086
20.33,-0.168,0.672,0.006
20.34,-0.397,1.3,-0.168
20.35,-0.093,0.845,-0.044
20.36,-0.209,1.135,0.135
20.37,-0.093,0.736,0.148
20.38,-0.356,1.037,-0.159
20.39,-0.251,0.981,-0.154
20.4,-0.111,1.047,0.075
20.41,-0.078,1.1,0.128
20.42,-0.222,0.641,0.002
20.43,-0.461,1.261,-0.164
20.44,-0.038,0.933,-0.037
20.45,-0.232,1.101,0.106
20.46,-0.137,0.747,0.191
20.47,-0.286,0.989,-0.17
20.48,-0.292,1.079,-0.147
20.49,-0.141,0.922,0.15
20.5,-0.123,1.104,0.085
20.51,-0.221,0.646,-0.029
20.52,-0.367,1.285,-0.124
20.53,-0.211,0.946,-0.008
20.54,-0.314,0.954,0.169
20.55,-0.016,0.911,0.12
20.56,-0.379,0.9,-0.199
20.57,-0.304,1.151,-0.046
20.58,0.015,0.882,0.067
20.59,-0.233,1.034,0.163
20.6,-0.204,0.654,-0.004
20.61,-0.296,1.278,-0.209
20.62,-0.103,0.946,-0.025
20.63,-0.265,0.922,0.173
20.64,-0.061,0.938,0.108
20.65,-0.423,0.857,-0.176
20.66,-0.218,1.245,-0.104
20.67,0.016,0.885,0.055
20.68,-0.147,0.97,0.131
20.69,-0.252,0.759,0.015
20.7,-0.288,1.175,-0.247
20.71,-0.13,0.979,-0.045
20.72,-0.204,0.831,0.198
20.73,-0.067,1.004,0.066
20.74,-0.477,0.778,-0.185
20.75,-0.206,1.242,0.002
20.76,-0.066,0.914,0.094
20.77,-0.235,0.915,0.125
20.78,-0.162,0.877,-0.068
20.79,-0.361,1.077,-0.167
20.8,-0.184,1.071,-0.002
20.81,-0.057,0.859,0.183
20.82,-0.14,1.01,0.051
20.83,-0.423,0.777,-0.157
20.84,-0.16,1.246,-0.057
20.85,-0.134,0.862,0.084
20.86,-0.176,0.862,0.178
20.87,-0.253,0.987,-0.044
20.88,-0.247,0.947,-0.233
20.89,-0.161,1.188,0.025
20.9,-0.174,0.765,0.191
20.91,-0.169,1.047,0.088
20.92,-0.329,0.872,-0.157
20.93,-0.24,1.199,-0.048
20.94,-0.156,0.741,0.097
20.95,-0.14,0.969,0.175
20.96,-0.263,0.921,-0.119
20.97,-0.289,0.982,-0.203
20.98,-0.098,1.206,0.059
20.99,-0.094,0.752,0.133
21.0,-0.162,1.001,0.022
21.01,-0.405,0.919,-0.137
21.02,-0.141,1.213,-0.095
21.03,-0.163,0.8,0.105
21.04,-0.183,0.89,0.193
21.05,-0.302,1.019,-0.123
21.06,-0.309,0.861,-0.156
21.07,-0.218,1.207,0.087
21.08,-0.026,0.783,0.128
21.09,-0.234,1.011,0.001
21.1,-0.356,0.889,-0.145
21.11,-0.101,1.182,-0.101
21.12,-0.105,0.839,0.067
21.13,-0.183,0.853,0.217
21.14,-0.298,1.114,-0.16
21.15,-0.272,0.788,-0.181
21.16,-0.136,1.26,0.094
21.17,-0.007,0.722,0.091
21.18,-0.248,1.004,-0.024
21.19,-0.374,0.943,-0.118
21.2,-0.059,1.076,-0.085
21.21,-0.161,0.938,0.087
21.22,-0.163,0.76,0.204
21.23,-0.333,1.149,-0.144
21.24,-0.284,0.775,-0.147
21.25,-0.095,1.302,0.075
21.26,-0.124,0.745,0.13
21.27,-0.229,0.947,0.044
21.28,-0.387,1.023,-0.2
21.29,-0.059,0.989,-0.068
21.3,-0.174,0.992,0.078
21.31,-0.041,0.72,0.168
21.32,-0.375,1.18,-0.147
21.33,-0.262,0.806,-0.138
21.34,-0.102,1.286,0.114
21.35,-0.111,0.787,0.145
21.36,-0.297,0.902,0.027
21.37,-0.397,1.122,-0.157
21.38,-0.088,0.906,-0.054
21.39,-0.244,1.081,0.133
21.4,-0.08,0.669,0.137
21.41,-0.412,1.16,-0.166
21.42,-0.218,0.812,-0.113
21.43,-0.13,1.243,0.103
21.44,-0.086,0.836,0.12
21.45,-0.208,0.845,-0.01
21.46,-0.41,1.211,-0.187
21.47,-0.039,0.844,-0.018
21.48,-0.208,1.194,0.119
21.49,-0.082,0.678,0.145
21.5,-0.382,1.138,-0.164
21.51,-0.249,0.869,-0.124
21.52,-0.097,1.171,0.095
21.53,-0.148,0.861,0.13
21.54,-0.273,0.756,-0.007
21.55,-0.383,1.309,-0.165
21.56,-0.081,0.813,-0.016
21.57,-0.263,1.129,0.159
21.58,-0.04,0.73,0.139
21.59,-0.427,1.066,-0.212
21.6,-0.236,0.931,-0.072
21.61,-0.071,1.098,0.048
21.62,-0.131,0.927,0.121
21.63,-0.21,0.699,0.021
21.64,-0.376,1.334,-0.165
21.65,-0.124,0.785,-0.003
21.66,-0.258,1.119,0.179
21.67,-0.04,0.784,0.103
21.68,-0.413,0.994,-0.173
21.69,-0.244,1.056,-0.066
21.7,-0.049,1.0,0.027
21.71,-0.187,1.002,0.14
21.72,-0.252,0.65,-0.001
21.73,-0.34,1.326,-0.187
21.74,-0.133,0.843,-0.04
21.75,-0.129,1.142,0.156
21.76,-0.086,0.724,0.098
21.77,-0.428,1.041,-0.19
21.78,-0.186,0.987,-0.046
21.79,-0.049,1.07,0.081
21.8,-0.223,0.912,0.14
21.81,-0.294,0.764,0.052
21.82,-0.352,1.332,-0.215
21.83,-0.219,0.785,-0.037
21.84,-0.082,1.117,0.163
21.85,-0.053,0.795,0.045
21.86,-0.484,0.967,-0.16
21.87,-0.08,1.111,-0.047
21.88,-0.096,0.981,0.068
21.89,-0.214,0.95,0.136
21.9,-0.178,0.786,-0.024
21.91,-0.365,1.333,-0.192
21.92,-0.264,0.843,0.061
21.93,-0.077,1.033,0.185
21.94,-0.124,0.867,0.096
21.95,-0.444,0.954,-0.174
21.96,-0.13,1.161,-0.031
21.97,-0.073,0.836,0.061
21.98,-0.203,1.014,0.156
21.99,-0.185,0.774,-0.068
22.0,-0.363,1.192,-0.198
22.01,-0.208,0.882,0.051
22.02,-0.122,1.019,0.165
22.03,-0.11,0.934,0.039
22.04,-0.399,0.873,-0.148
22.05,-0.171,1.259,-0.049
22.06,-0.094,0.807,0.035
22.07,-0.207,0.993,0.168
22.08,-0.229,0.823,-0.064
22.09,-0.358,1.152,-0.19
22.1,-0.174,0.953,0.04
22.11,-0.083,0.959,0.149
22.12,-0.221,0.939,0.059
22.13,-0.377,0.8,-0.152
22.14,-0.164,1.294,-0.045
22.15,-0.099,0.801,0.066
22.16,-0.164,0.934,0.15
22.17,-0.205,0.915,-0.069
22.18,-0.344,1.039,-0.163
22.19,-0.248,1.029,0.075
22.2,-0.067,0.875,0.147
22.21,-0.182,0.988,0.066
22.22,-0.45,0.806,-0.169
22.23,-0.106,1.253,-0.067
22.24,-0.058,0.808,0.026
22.25,-0.198,0.909,0.23
22.26,-0.256,0.976,-0.083
22.27,-0.275,0.905,-0.177
22.28,-0.192,1.181,0.068
22.29,-0.083,0.778,0.116
22.3,-0.131,1.022,0.044
22.31,-0.406,0.896,-0.147
22.32,-0.135,1.191,-0.098
22.33,-0.092,0.859,0.085
22.34,-0.096,0.842,0.174
22.35,-0.317,1.055,-0.096
22.36,-0.246,0.886,-0.145
22.37,-0.162,1.18,-0.007
22.38,-0.136,0.743,0.184
22.39,-0.141,1.081,0.056
22.4,-0.387,0.881,-0.215
22.41,-0.231,1.068,-0.027
22.42,-0.102,1.019,0.087
22.43,-0.057,0.733,0.129
22.44,-0.382,1.098,-0.065
22.45,-0.233,0.881,-0.163
22.46,-0.194,1.188,0.003
22.47,-0.128,0.766,0.146
22.48,-0.172,1.031,0.063
22.49,-0.378,0.914,-0.197
22.5,-0.184,1.029,-0.061
22.51,-0.049,1.088,0.032
22.52,-0.169,0.648,0.16
22.53,-0.33,1.143,-0.06
22.54,-0.2,0.895,-0.19
22.55,-0.204,1.213,0.003
22.56,-0.135,0.765,0.173
22.57,-0.212,1.036,0.011
22.58,-0.415,0.855,-0.176
22.59,-0.129,1.126,-0.014
22.6,-0.137,0.928,0.106
22.61,-0.207,0.751,0.18
22.62,-0.327,1.17,-0.111
22.63,-0.252,0.859,-0.177
22.64,-0.208,1.208,0.044
22.65,0.002,0.765,0.148
22.66,-0.23,0.984,0.02
22.67,-0.503,0.881,-0.177
22.68,-0.03,1.048,-0.04
22.69,-0.146,1.062,0.087
22.7,-0.192,0.672,0.186
22.71,-0.334,1.191,-0.141
22.72,-0.202,0.849,-0.152
22.73,-0.216,1.239,0.103
22.74,0.008,0.751,0.137
22.75,-0.259,0.949,0.047
22.76,-0.394,1.012,-0.229
22.77,-0.052,0.93,-0.022
22.78,-0.247,1.134,0.111
22.79,-0.143,0.636,0.172
22.8,-0.369,1.259,-0.137
22.81,-0.243,0.878,-0.114
22.82,-0.134,1.143,0.033
22.83,-0.081,0.826,0.134
22.84,-0.227,0.877,0.019
22.85,-0.461,1.089,-0.17
22.86,-0.018,0.9,-0.012
22.87,-0.18,1.206,0.077
22.88,-0.128,0.634,0.122
22.89,-0.364,1.223,-0.124
22.9,-0.204,0.896,-0.122
22.91,-0.189,1.13,0.087
22.92,-0.08,0.851,0.13
22.93,-0.275,0.784,-0.042
22.94,-0.443,1.224,-0.154
22.95,-0.065,0.862,-0.052
22.96,-0.194,1.13,0.132
22.97,-0.096,0.706,0.141
22.98,-0.382,1.159,-0.183
22.99,-0.25,0.937,-0.072
23.0,-0.13,1.072,0.091
23.01,-0.092,0.91,0.116
23.02,-0.238,0.733,-0.008
23.03,-0.442,1.291,-0.195
23.04,-0.064,0.833,-0.014
23.05,-0.181,1.106,0.13
23.06,-0.128,0.718,0.153
23.07,-0.383,1.076,-0.19
23.08,-0.214,1.026,-0.102
23.09,-0.061,0.958,0.091
23.1,-0.164,0.998,0.147
23.11,-0.228,0.679,-0.076
23.12,-0.347,1.312,-0.193
23.13,-0.095,0.868,0.013
23.14,-0.282,1.069,0.2
23.15,-0.042,0.815,0.083
23.16,-0.44,1.023,-0.217
23.17,-0.21,1.099,-0.026
23.18,-0.044,0.891,0.092
23.19,-0.164,1.008,0.063
23.2,-0.288,0.728,-0.019
23.21,-0.364,1.268,-0.178
23.22,-0.158,0.857,0.059
23.23,-0.05,0.994,0.146
23.24,-0.218,0.873,0.048
23.25,-0.453,0.889,-0.133
23.26,-0.149,1.183,-0.051
23.27,-0.151,0.768,0.098
23.28,-0.191,1.074,0.141
23.29,-0.261,0.773,-0.153
23.3,-0.335,1.127,-0.163
23.31,-0.032,1.021,0.073
23.32,-0.078,0.87,0.112
23.33,-0.227,0.947,0.028
23.34,-0.378,0.971,-0.166
23.35,-0.203,1.182,-0.053
23.36,-0.154,0.724,0.192
23.37,-0.126,1.066,0.146
23.38,-0.398,0.746,-0.165
23.39,-0.242,1.208,-0.016
23.4,-0.069,0.964,0.028
23.41,-0.131,0.828,0.167
23.42,-0.252,0.979,0.002
23.43,-0.349,1.0,-0.227
23.44,-0.137,1.091,-0.052
23.45,-0.063,0.812,0.166
23.46,-0.136,1.062,0.102
23.47,-0.396,0.792,-0.165
23.48,-0.156,1.209,-0.053
23.49,-0.17,0.953,0.087
23.5,-0.121,0.747,0.155
23.51,-0.268,1.04,-0.06
23.52,-0.311,0.891,-0.176
23.53,-0.173,1.2,0.021
23.54,-0.084,0.795,0.128
23.55,-0.178,1.005,0.076
23.56,-0.41,0.89,-0.162
23.57,-0.081,1.129,-0.101
23.58,-0.087,0.955,0.027
23.59,-0.169,0.721,0.252
23.6,-0.279,1.133,-0.081
23.61,-0.348,0.815,-0.182
23.62,-0.139,1.225,0.116
23.63,-0.031,0.786,0.096
23.64,-0.255,0.925,0.012
23.65,-0.394,0.989,-0.134
23.66,-0.115,1.052,-0.075
23.67,-0.181,0.981,0.088
23.68,-0.12,0.719,0.183
23.69,-0.346,1.226,-0.176
23.7,-0.266,0.708,-0.188
23.71,-0.1,1.253,0.116
23.72,-0.043,0.828,0.094
23.73,-0.234,0.859,0.005
23.74,-0.403,1.109,-0.126
23.75,-0.142,0.943,-0.059
23.76,-0.179,1.048,0.056
23.77,-0.002,0.73,0.141
23.78,-0.372,1.187,-0.196
23.79,-0.267,0.784,-0.123
23.8,-0.07,1.225,0.092
23.81,-0.133,0.762,0.136
23.82,-0.248,0.839,0.024
23.83,-0.329,1.246,-0.188
23.84,-0.153,0.836,-0.031
23.85,-0.263,1.137,0.146
23.86,-0.072,0.681,0.095
23.87,-0.394,1.137,-0.198
23.88,-0.238,0.885,-0.076
23.89,-0.105,1.144,0.035
23.9,-0.108,0.834,0.141
23.91,-0.243,0.773,0.028
23.92,-0.365,1.291,-0.205
23.93,-0.11,0.814,-0.031
23.94,-0.249,1.182,0.14
23.95,-0.066,0.695,0.093
23.96,-0.434,1.078,-0.194
23.97,-0.197,1.016,-0.067
23.98,-0.102,1.058,0.102
23.99,-0.179,0.918,0.151
24.0,-0.201,0.724,0.016
24.01,-0.408,1.281,-0.182
24.02,-0.129,0.773,0.001
24.03,-0.18,1.19,0.155
24.04,-0.069,0.721,0.071
24.05,-0.485,1.002,-0.141
24.06,-0.161,1.091,-0.074
24.07,-0.053,0.958,0.083
24.08,-0.172,0.95,0.106
24.09,-0.241,0.728,-0.045
24.1,-0.338,1.291,-0.205
24.11,-0.121,0.855,0.019
24.12,-0.188,1.094,0.178
24.13,-0.074,0.813,0.059
24.14,-0.473,0.953,-0.178
24.15,-0.175,1.152,-0.045
24.16,-0.012,0.883,0.063
24.17,-0.198,1.021,0.134
24.18,-0.204,0.769,-0.049
24.19,-0.334,1.205,-0.212
24.2,-0.134,0.846,0.075
24.21,-0.091,1.135,0.1
24.22,-0.095,0.674,0.007
24.23,-0.494,1.138,-0.136
24.24,-0.089,1.145,-0.063
24.25,-0.16,0.837,0.083
24.26,-0.198,0.964,0.213
24.27,-0.25,0.772,-0.137
24.28,-0.262,1.194,-0.137
24.29,-0.228,0.905,0.114
24.3,-0.102,1.04,0.114
24.31,-0.144,0.787,0.012
24.32,-0.508,1.025,-0.124
24.33,-0.156,1.213,-0.063
24.34,-0.114,0.79,0.06
24.35,-0.183,1.027,0.181
24.36,-0.268,0.755,-0.124
24.37,-0.254,1.172,-0.196
24.38,-0.057,0.989,0.055
24.39,-0.09,0.938,0.135
24.4,-0.209,0.865,-0.001
24.41,-0.435,0.971,-0.099
24.42,-0.148,1.183,-0.074
24.43,-0.099,0.71,0.091
24.44,-0.149,1.091,0.147
24.45,-0.283,0.803,-0.154
24.46,-0.276,1.044,-0.121
24.47,-0.027,1.115,0.026
24.48,-0.128,0.842,0.147
24.49,-0.279,0.961,0.052
24.5,-0.307,0.949,-0.165
24.51,-0.194,1.206,-0.057
24.52,-0.18,0.7,0.205
24.53,-0.135,1.045,0.114
24.54,-0.365,0.85,-0.176
24.55,-0.274,1.054,-0.055
24.56,-0.074,1.131,0.011
24.57,-0.115,0.685,0.135
24.58,-0.281,1.082,0.022
24.59,-0.354,0.89,-0.195
24.6,-0.178,1.14,0.006
24.61,-0.135,0.803,0.155
24.62,-0.168,0.978,0.123
24.63,-0.322,0.925,-0.154
24.64,-0.171,0.961,-0.081
24.65,-0.15,1.201,0.031
24.66,-0.04,0.683,0.151
24.67,-0.277,1.073,-0.011
24.68,-0.434,0.89,-0.147
24.69,-0.093,1.168,0.004
24.7,-0.15,0.829,0.126
24.71,-0.218,0.898,0.141
24.72,-0.326,1.047,-0.144
24.73,-0.239,0.892,-0.127
24.74,-0.155,1.233,0.094
24.75,-0.014,0.659,0.102
24.76,-0.323,1.08,-0.017
24.77,-0.346,0.916,-0.135
24.78,-0.171,1.105,-0.009
24.79,-0.189,0.855,0.105
24.8,-0.083,0.859,0.104
24.81,-0.423,1.133,-0.212
24.82,-0.22,0.785,-0.073
24.83,-0.101,1.317,0.12
24.84,-0.103,0.645,0.14
24.85,-0.376,1.031,0.046
24.86,-0.254,0.988,-0.208
24.87,-0.13,1.002,-0.008
24.88,-0.169,0.951,0.118
24.89,-0.108,0.757,0.117
24.9,-0.455,1.169,-0.2
24.91,-0.193,0.762,-0.082
24.92,-0.12,1.297,0.088
24.93,-0.059,0.673,0.138
24.94,-0.362,0.996,-0.031
24.95,-0.291,1.056,-0.164
24.96,-0.156,0.917,0.025
24.97,-0.252,1.048,0.168
24.98,-0.072,0.741,0.112
24.99,-0.479,1.229,-0.213
25.0,-0.192,0.812,-0.013
25.01,-0.127,1.248,0.088
25.02,-0.124,0.634,0.124
25.03,-0.303,1.121,-0.07
25.04,-0.265,0.953,-0.162
25.05,-0.187,1.095,0.075
25.06,-0.082,0.969,0.121
25.07,-0.14,0.7,0.006
25.08,-0.479,1.244,-0.142
25.09,-0.043,0.915,-0.038
25.1,-0.239,1.137,0.06
25.11,-0.115,0.7,0.141
25.12,-0.273,1.067,-0.163
25.13,-0.26,1.003,-0.138
25.14,-0.159,1.03,0.11
25.15,-0.051,1.028,0.079
25.16,-0.209,0.673,0.02
25.17,-0.532,1.251,-0.114
25.18,-0.024,0.851,-0.098
25.19,-0.167,1.105,0.081
25.2,-0.146,0.789,0.217
25.21,-0.337,0.985,-0.132
25.22,-0.264,1.036,-0.157
25.23,-0.108,0.955,0.143
25.24,-0.094,1.028,0.113
25.25,-0.149,0.66,-0.046
25.26,-0.415,1.311,-0.147
25.27,-0.076,0.876,-0.042
25.28,-0.184,1.055,0.122
25.29,-0.131,0.858,0.164
25.3,-0.441,0.862,-0.117
25.31,-0.239,1.157,-0.122
25.32,-0.054,0.973,0.024
25.33,-0.117,0.975,0.138
25.34,-0.221,0.708,0.04
25.35,-0.403,1.254,-0.209
25.36,-0.101,0.888,-0.013
25.37,-0.164,1.041,0.139
25.38,-0.15,0.9,0.104
25.39,-0.355,0.824,-0.167
25.4,-0.194,1.261,-0.098
25.41,-0.133,0.879,0.072
25.42,-0.182,0.994,0.174
25.43,-0.168,0.708,-0.022
25.44,-0.455,1.213,-0.164
25.45,-0.065,0.996,-0.018
25.46,-0.209,0.891,0.14
25.47,-0.2,0.965,0.133
25.48,-0.336,0.809,-0.195
25.49,-0.222,1.258,-0.113
25.5,-0.108,0.881,0.127
25.51,-0.158,0.965,0.131
25.52,-0.231,0.792,-0.001
25.53,-0.362,1.126,-0.178
25.54,-0.104,1.063,-0.011
25.55,-0.174,0.851,0.137
25.56,-0.151,1.046,0.065
25.57,-0.367,0.76,-0.165
25.58,-0.249,1.213,-0.054
25.59,-0.069,0.945,0.097
25.6,-0.143,0.896,0.153
25.61,-0.314,0.899,-0.027
25.62,-0.265,1.048,-0.181
25.63,-0.115,1.11,-0.016
25.64,-0.177,0.726,0.18
25.65,-0.143,1.108,0.081
25.66,-0.322,0.803,-0.245
25.67,-0.276,1.123,-0.024
25.68,-0.051,0.967,0.085
25.69,-0.1,0.804,0.13
25.7,-0.355,0.998,-0.044
25.71,-0.248,0.914,-0.209
25.72,-0.112,1.19,-0.004
25.73,-0.153,0.756,0.245
25.74,-0.244,1.039,0.089
25.75,-0.341,0.857,-0.211
25.76,-0.141,1.126,-0.074
25.77,-0.125,0.945,0.09
25.78,-0.121,0.766,0.162
25.79,-0.356,1.08,-0.065
25.8,-0.285,0.801,-0.164
25.81,-0.073,1.224,0.024
25.82,-0.105,0.758,0.136
25.83,-0.243,1.072,0.07
25.84,-0.315,0.856,-0.224
25.85,-0.127,1.173,-0.098
25.86,-0.14,0.854,0.138
25.87,-0.109,0.848,0.103
25.88,-0.353,1.063,-0.13
25.89,-0.292,0.861,-0.149
25.9,-0.101,1.234,0.061
25.91,-0.077,0.721,0.135
25.92,-0.181,1.05,0.011
25.93,-0.409,0.923,-0.159
25.94,-0.136,1.102,0.001
25.95,-0.136,0.877,0.102
25.96,-0.175,0.782,0.177
25.97,-0.407,1.122,-0.152
25.98,-0.233,0.757,-0.123
25.99,-0.116,1.305,0.079
26.0,-0.125,0.701,0.156
26.01,-0.233,0.993,0.024
26.02,-0.425,0.958,-0.166
26.03,-0.119,1.053,-0.053
26.04,-0.073,0.986,0.07
26.05,-0.14,0.754,0.164
26.06,-0.46,1.176,-0.162
26.07,-0.137,0.811,-0.163
26.08,-0.018,1.31,0.094
26.09,-0.172,0.668,0.143
26.1,-0.204,0.941,-0.034
26.11,-0.345,1.094,-0.201
26.12,-0.118,0.869,-0.018
26.13,-0.203,1.094,0.148
26.14,-0.085,0.675,0.081
26.15,-0.475,1.175,-0.173
26.16,-0.179,0.83,-0.058
26.17,-0.132,1.232,0.095
26.18,-0.17,0.701,0.149
26.19,-0.211,0.918,-0.003
26.2,-0.345,1.191,-0.172
26.21,-0.122,0.841,0.001
26.22,-0.147,1.166,0.139
26.23,-0.075,0.709,0.083
26.24,-0.484,1.131,-0.171
26.25,-0.164,0.885,-0.094
26.26,-0.057,1.178,0.067
26.27,-0.124,0.787,0.12
26.28,-0.24,0.814,-0.028
26.29,-0.32,1.253,-0.172
26.3,-0.075,0.859,0.028
26.31,-0.188,1.153,0.146
26.32,-0.147,0.699,0.082
26.33,-0.395,1.118,-0.198
26.34,-0.259,0.964,-0.036
26.35,-0.084,1.059,0.089
26.36,-0.096,0.88,0.089
26.37,-0.313,0.778,-0.034
26.38,-0.368,1.268,-0.106
26.39,-0.049,0.851,-0.008
26.4,-0.187,1.139,0.204
26.41,-0.141,0.713,0.072
26.42,-0.423,1.113,-0.221
26.43,-0.153,1.026,-0.002
26.44,-0.167,0.951,0.115
26.45,-0.16,0.952,0.112
26.46,-0.23,0.785,-0.075
26.47,-0.286,1.245,-0.211
26.48,-0.187,0.829,0.062
26.49,-0.018,1.116,0.105
26.5,-0.132,0.794,0.041
26.51,-0.505,1.039,-0.155
26.52,-0.103,1.141,-0.069
26.53,-0.159,0.86,0.111
26.54,-0.207,0.986,0.172
26.55,-0.245,0.754,-0.119
26.56,-0.259,1.219,-0.165
26.57,-0.159,0.933,0.098
26.58,-0.065,0.982,0.122
26.59,-0.104,0.844,0.033
26.6,-0.45,1.004,-0.129
26.61,-0.151,1.159,-0.056
26.62,-0.131,0.802,0.104
26.63,-0.198,1.063,0.181
26.64,-0.329,0.779,-0.157
26.65,-0.246,1.21,-0.114
26.66,-0.119,0.955,0.079
26.67,-0.147,0.927,0.14
26.68,-0.137,0.761,-0.002
26.69,-0.452,1.111,-0.139
26.7,-0.062,1.08,-0.064
26.71,-0.138,0.813,0.142
26.72,-0.227,1.053,0.162
26.73,-0.314,0.766,-0.137
26.74,-0.26,1.21,-0.133
26.75,-0.156,0.953,0.144
26.76,-0.119,0.943,0.126
26.77,-0.214,0.859,-0.043
26.78,-0.349,1.022,-0.134
26.79,-0.099,1.188,-0.038
26.8,-0.148,0.714,0.111
26.81,-0.177,1.074,0.114
26.82,-0.328,0.799,-0.195
26.83,-0.28,1.158,-0.067
26.84,-0.079,0.999,0.079
26.85,-0.115,0.797,0.115
26.86,-0.351,1.039,0.029
26.87,-0.239,0.921,-0.209
26.88,-0.165,1.18,-0.01
26.89,-0.072,0.762,0.133
26.9,-0.149,1.04,0.075
26.91,-0.352,0.852,-0.145
26.92,-0.249,1.103,-0.07
26.93,-0.108,1.018,0.044
26.94,-0.076,0.72,0.181
26.95,-0.319,1.091,-0.008
26.96,-0.325,0.901,-0.182
26.97,-0.153,1.178,-0.034
26.98,-0.056,0.809,0.166
26.99,-0.16,0.995,0.098
27.0,-0.338,0.912,-0.21
27.01,-0.194,1.042,-0.04
27.02,-0.154,1.128,0.007
27.03,-0.089,0.648,0.181
27.04,-0.293,1.139,0.007
27.05,-0.313,0.852,-0.212
27.06,-0.17,1.171,0.01
27.07,-0.03,0.824,0.139
27.08,-0.209,0.913,0.092
27.09,-0.374,0.994,-0.163
27.1,-0.135,0.99,-0.025
27.11,-0.151,1.151,0.05
27.12,-0.136,0.613,0.181
27.13,-0.339,1.158,-0.043
27.14,-0.304,0.878,-0.226
27.15,-0.156,1.101,0.025
27.16,-0.091,0.94,0.13
27.17,-0.169,0.835,0.076
27.18,-0.366,1.066,-0.187
27.19,-0.076,0.936,-0.052
27.2,-0.188,1.164,0.064
27.21,-0.088,0.623,0.158
27.22,-0.318,1.156,-0.069
27.23,-0.325,0.842,-0.199
27.24,-0.129,1.098,0.06
27.25,-0.099,1.012,0.124
27.26,-0.195,0.717,0.068
27.27,-0.393,1.199,-0.176
27.28,-0.075,0.886,-0.076
27.29,-0.223,1.171,0.113
27.3,-0.062,0.681,0.167
27.31,-0.37,1.096,-0.085
27.32,-0.281,0.895,-0.174
27.33,-0.065,1.059,0.1
27.34,-0.157,1.03,0.106
27.35,-0.208,0.664,0.056
27.36,-0.402,1.251,-0.184
27.37,-0.076,0.881,-0.059
27.38,-0.324,1.02,-0.118
27.39,-0.271,1.035,-0.128
27.4,-0.047,1.085,0.103
27.41,-0.117,0.81,0.118
27.42,-0.251,0.984,0.017
27.43,-0.3,0.934,-0.143
27.44,-0.198,1.192,-0.016
27.45,-0.153,0.718,0.157
27.46,-0.066,1.045,0.124
27.47,-0.459,0.885,-0.187
27.48,-0.209,0.972,-0.08
27.49,-0.06,1.181,0.039
27.5,-0.145,0.636,0.159
27.51,-0.316,1.066,0.051
27.52,-0.278,0.951,-0.238
27.53,-0.193,1.111,-0.036
27.54,-0.152,0.777,0.178
27.55,-0.086,0.969,0.11
27.56,-0.395,0.939,-0.22
27.57,-0.243,0.976,-0.011
27.58,-0.136,1.177,0.045
27.59,-0.102,0.612,0.164
27.6,-0.285,1.168,0.0
27.61,-0.256,0.887,-0.226
27.62,-0.197,1.115,0.005
27.63,-0.151,0.854,0.195
27.64,-0.12,0.87,0.107
27.65,-0.46,1.052,-0.208
27.66,-0.198,0.915,0.001
27.67,-0.083,1.254,0.037
27.68,-0.193,0.603,0.189
27.69,-0.328,1.138,0.029
27.7,-0.241,0.933,-0.255
27.71,-0.163,1.083,0.021
27.72,-0.102,0.927,0.158
27.73,-0.087,0.784,0.069
27.74,-0.49,1.126,-0.165
27.75,-0.074,0.87,-0.067
27.76,-0.146,1.226,0.085
27.77,-0.205,0.623,0.181
27.78,-0.257,1.12,-0.037
27.79,-0.299,0.916,-0.225
27.8,-0.144,1.029,0.039
27.81,-0.041,1.059,0.107
27.82,-0.137,0.72,0.028
27.83,-0.466,1.161,-0.151
27.84,-0.101,0.884,-0.032
27.85,-0.156,1.238,0.037
27.86,-0.165,0.638,0.209
27.87,-0.255,1.07,-0.084
27.88,-0.334,0.973,-0.179
27.89,-0.171,0.946,0.066
27.9,-0.034,1.139,0.121
27.91,-0.14,0.654,0.011
27.92,-0.518,1.212,-0.157
27.93,-0.015,0.902,-0.067
27.94,-0.215,1.171,0.065
27.95,-0.155,0.695,0.199
27.96,-0.287,1.022,-0.107
27.97,-0.329,1.02,-0.202
27.98,-0.193,0.877,0.088
27.99,-0.027,1.198,0.116
28.0,-0.14,0.634,-0.012
28.01,-0.468,1.187,-0.176
28.02,-0.046,0.916,-0.044
28.03,-0.221,1.092,0.087
28.04,-0.184,0.763,0.205
28.05,-0.325,0.959,-0.089
28.06,-0.287,1.126,-0.178
28.07,-0.189,0.81,0.11
28.08,-0.104,1.208,0.144
28.09,-0.117,0.63,0.001
28.1,-0.479,1.209,-0.159
28.11,-0.081,0.964,-0.042
28.12,-0.206,1.009,0.067
28.13,-0.142,0.895,0.205
28.14,-0.353,0.836,-0.14
28.15,-0.227,1.177,-0.13
28.16,-0.157,0.941,0.11
28.17,-0.114,1.082,0.152
28.18,-0.22,0.662,0.024
28.19,-0.387,1.205,-0.154
28.2,-0.105,0.893,-0.04
28.21,-0.182,1.012,0.145
28.22,-0.12,0.864,0.126
28.23,-0.362,0.904,-0.175
28.24,-0.31,1.102,-0.118
28.25,-0.054,0.945,0.082
28.26,-0.133,1.059,0.106
28.27,-0.241,0.635,-0.003
28.28,-0.394,1.275,-0.173
28.29,-0.116,0.921,-0.017
28.3,-0.228,0.915,0.13
28.31,-0.094,0.935,0.131
28.32,-0.399,0.874,-0.182
28.33,-0.294,1.163,-0.105
28.34,0.01,0.931,0.079
28.35,-0.172,1.012,0.146
28.36,-0.271,0.706,0.021
28.37,-0.26,1.236,-0.202
28.38,-0.135,0.979,-0.066
28.39,-0.192,0.833,0.181
28.4,-0.099,1.013,0.096
28.41,-0.393,0.813,-0.186
28.42,-0.271,1.22,-0.064
28.43,-0.018,0.897,0.06
28.44,-0.164,0.93,0.15
28.45,-0.237,0.778,-0.011
28.46,-0.24,1.166,-0.218
28.47,-0.103,1.084,-0.072
28.48,-0.175,0.76,0.192
28.49,-0.089,1.043,0.059
28.5,-0.427,0.798,-0.203
28.51,-0.256,1.22,-0.022
28.52,-0.06,0.884,0.061
28.53,-0.201,0.865,0.143
28.54,-0.244,0.908,-0.032
28.55,-0.237,1.023,-0.228
28.56,-0.167,1.136,0.021
28.57,-0.136,0.807,0.193
28.58,-0.141,1.073,0.073
28.59,-0.447,0.808,-0.18
28.6,-0.224,1.2,0.008
28.61,-0.037,0.916,0.063
28.62,-0.247,0.821,0.176
28.63,-0.295,1.015,-0.028
28.64,-0.253,0.935,-0.193
28.65,-0.162,1.154,0.022
28.66,-0.063,0.784,0.18
28.67,-0.18,1.037,0.03
28.68,-0.409,0.841,-0.205
28.69,-0.098,1.148,-0.06
28.7,-0.12,0.971,0.082
28.71,-0.271,0.738,0.219
28.72,-0.184,1.126,-0.12
28.73,-0.261,0.844,-0.19
28.74,-0.266,1.186,0.124
28.75,0.079,0.768,0.128
28.76,-0.243,1.015,0.011
28.77,-0.395,0.912,-0.168
28.78,-0.071,1.053,-0.113
28.79,-0.236,0.974,0.09
28.8,-0.199,0.723,0.23
28.81,-0.32,1.224,-0.126
28.82,-0.316,0.771,-0.184
28.83,-0.144,1.233,0.09
28.84,0.007,0.803,0.112
28.85,-0.267,0.885,0.011
28.86,-0.393,1.037,-0.138
28.87,-0.1,1.068,-0.063
28.88,-0.224,1.036,0.021
28.89,-0.126,0.711,0.194
28.9,-0.347,1.172,-0.163
28.91,-0.342,0.781,-0.145
28.92,-0.117,1.25,0.117
28.93,-0.121,0.823,0.152
28.94,-0.274,0.827,0.014
28.95,-0.332,1.161,-0.152
28.96,-0.082,0.906,-0.059
28.97,-0.221,1.082,0.086
28.98,-0.023,0.711,0.154
28.99,-0.425,1.182,-0.15
29.0,-0.28,0.793,-0.158
29.01,-0.023,1.219,0.087
29.02,-0.113,0.677,0.11
29.03,-0.382,0.986,0.071
29.04,-0.236,1.087,-0.228
29.05,-0.186,0.891,-0.023
29.06,-0.219,1.044,0.178
29.07,-0.017,0.723,0.079
29.08,-0.438,1.18,-0.229
29.09,-0.253,0.807,-0.011
29.1,-0.061,1.23,0.089
29.11,-0.13,0.756,0.157
29.12,-0.38,0.918,-0.01
29.13,-0.284,1.121,-0.175
29.14,-0.164,0.894,0.015
29.15,-0.25,1.087,0.14
29.16,-0.05,0.68,0.114
29.17,-0.434,1.193,-0.218
29.18,-0.24,0.869,-0.035
29.19,-0.08,1.146,0.101
29.2,-0.118,0.788,0.152
29.21,-0.344,0.827,-0.041
29.22,-0.255,1.197,-0.214
29.23,-0.104,0.86,-0.004
29.24,-0.191,1.137,0.152
29.25,-0.016,0.705,0.048
29.26,-0.488,1.199,-0.193
29.27,-0.137,0.941,-0.011
29.28,-0.125,1.054,0.138
29.29,-0.207,0.845,0.146
29.3,-0.285,0.797,-0.058
29.31,-0.321,1.28,-0.192
29.32,-0.091,0.833,0.043
29.33,-0.163,1.171,0.147
29.34,-0.09,0.68,0.02
29.35,-0.452,1.104,-0.208
29.36,-0.046,1.065,-0.037
29.37,-0.153,0.941,0.093
29.38,-0.222,0.919,0.165
29.39,-0.241,0.779,-0.138
29.4,-0.303,1.263,-0.137
29.41,-0.093,0.885,0.054
29.42,-0.122,1.039,0.14
29.43,-0.19,0.749,0.017
29.44,-0.438,1.1,-0.143
29.45,-0.098,1.129,-0.097
29.46,-0.091,0.798,0.11
29.47,-0.205,1.055,0.162
29.48,-0.281,0.756,-0.153
29.49,-0.303,1.22,-0.155
29.5,-0.062,0.906,0.099
29.51,-0.138,0.959,0.096
29.52,-0.231,0.84,-0.018
29.53,-0.389,1.023,-0.161
29.54,-0.076,1.186,-0.016
29.55,-0.186,0.74,0.168
29.56,-0.16,1.052,0.12
29.57,-0.316,0.795,-0.219
29.58,-0.229,1.139,-0.116
29.59,-0.028,1.013,0.101
29.6,-0.134,0.845,0.13
29.61,-0.248,0.92,-0.042
29.62,-0.327,1.003,-0.162
29.63,-0.171,1.171,0.009
29.64,-0.163,0.682,0.189
29.65,-0.084,1.093,0.057
29.66,-0.363,0.821,-0.24
29.67,-0.213,1.071,-0.005
29.68,-0.069,1.042,0.067
29.69,-0.122,0.725,0.104
29.7,-0.276,1.109,-0.031
29.71,-0.324,0.892,-0.17
29.72,-0.175,1.213,0.043
29.73,-0.073,0.763,0.13
29.74,-0.198,0.982,0.049
29.75,-0.344,0.978,-0.19
29.76,-0.128,1.051,-0.122
29.77,-0.165,0.962,0.08
29.78,-0.083,0.745,0.168
29.79,-0.375,1.158,-0.102
29.8,-0.281,0.771,-0.174
29.81,-0.153,1.315,0.099
29.82,-0.098,0.767,0.122
29.83,-0.231,1.04,0.052
29.84,-0.383,0.978,-0.166
29.85,-0.199,1.067,-0.02
29.86,-0.177,0.865,0.104
29.87,-0.07,0.836,0.137
29.88,-0.434,1.102,-0.178
29.89,-0.233,0.779,-0.087
29.9,-0.035,1.336,0.031
29.91,-0.101,0.635,0.096
29.92,-0.368,1.03,0.041
29.93,-0.249,0.97,-0.223
29.94,-0.103,0.98,-0.078
29.95,-0.132,0.997,0.157
29.96,-0.005,0.725,0.07
29.97,-0.473,1.166,-0.194
29.98,-0.193,0.874,0.009
29.99,-0.042,1.292,0.027
30.0,-0.108,0.642,0.124
30.01,-0.308,1.009,0.024
30.02,-0.286,1.105,-0.197
30.03,-0.176,0.925,0.014
30.04,-0.19,1.052,0.186
30.05,-0.069,0.66,0.069
30.06,-0.539,1.241,-0.168
30.07,-0.04,0.906,-0.065
30.08,-0.133,1.182,0.086
30.09,-0.173,0.702,0.221
30.1,-0.322,0.96,-0.056
30.11,-0.264,1.096,-0.187
30.12,-0.154,0.893,0.055
30.13,-0.136,1.15,0.122
30.14,-0.081,0.618,0.028
30.15,-0.456,1.277,-0.205
30.16,-0.087,0.93,-0.088
30.17,-0.152,1.035,0.059
30.18,-0.115,0.842,0.163
30.19,-0.329,0.884,-0.111
30.2,-0.244,1.162,-0.15
30.21,-0.125,0.898,0.064
30.22,-0.115,1.057,0.097
30.23,-0.142,0.666,0.005
30.24,-0.472,1.272,-0.167
30.25,-0.051,0.935,-0.098
30.26,-0.142,0.919,0.136
30.27,-0.221,0.944,0.217
30.28,-0.258,0.85,-0.15
30.29,-0.332,1.158,-0.128
30.3,-0.125,0.895,0.176
30.31,-0.141,1.104,0.143
30.32,-0.262,0.714,0.024
30.33,-0.416,1.204,-0.149
30.34,-0.085,1.009,-0.044
30.35,-0.263,0.858,0.15
30.36,-0.048,1.021,0.15
30.37,-0.337,0.782,-0.198
30.38,-0.325,1.188,-0.074
30.39,-0.005,0.926,0.068
30.4,-0.13,1.008,0.067
30.41,-0.287,0.747,0.073
30.42,-0.28,1.141,-0.22
30.43,-0.118,1.092,-0.014
30.44,-0.266,0.773,0.178
30.45,-0.051,1.043,0.121
30.46,-0.392,0.807,-0.193
30.47,-0.253,1.194,-0.013
30.48,-0.086,0.924,0.112
30.49,-0.164,0.897,0.128
30.5,-0.297,0.896,0.004
30.51,-0.294,1.034,-0.203
30.52,-0.12,1.124,-0.04
30.53,-0.158,0.759,0.198
30.54,-0.116,1.038,0.082
30.55,-0.431,0.821,-0.18
30.56,-0.193,1.199,-0.05
30.57,-0.095,0.917,0.053
30.58,-0.16,0.784,0.145
30.59,-0.214,1.045,-0.017
30.6,-0.357,0.94,-0.207
30.61,-0.153,1.093,0.027
30.62,-0.087,0.806,0.176
30.63,-0.183,1.064,0.057
30.64,-0.367,0.825,-0.196
30.65,-0.105,1.273,-0.079
30.66,-0.178,0.801,0.093
30.67,-0.164,0.894,0.199
30.68,-0.298,1.004,-0.12
30.69,-0.268,0.895,-0.167
30.7,-0.132,1.177,0.035
30.71,-0.045,0.771,0.135
30.72,-0.188,1.035,0.035
30.73,-0.427,0.912,-0.172
30.74,-0.114,1.179,-0.094
30.75,-0.124,0.813,0.091
30.76,-0.259,0.876,0.259
30.77,-0.304,1.061,-0.182
30.78,-0.185,0.829,-0.179
30.79,-0.181,1.242,0.096
30.8,-0.042,0.725,0.112
30.81,-0.203,1.033,0.01
30.82,-0.376,0.913,-0.143
30.83,-0.16,1.145,-0.052
30.84,-0.175,0.929,0.082
30.85,-0.125,0.802,0.139
30.86,-0.392,1.1,-0.172
30.87,-0.263,0.795,-0.119
30.88,-0.135,1.32,0.089
30.89,-0.0,0.655,0.086
30.9,-0.261,0.991,0.059
30.91,-0.323,1.041,-0.155
30.92,-0.178,1.019,-0.018
30.93,-0.183,0.961,0.105
30.94,-0.121,0.769,0.155
30.95,-0.431,1.212,-0.164
30.96,-0.278,0.799,-0.113
30.97,-0.031,1.28,0.02
30.98,-0.07,0.68,0.12
30.99,-0.258,0.949,-0.011
31.0,-0.299,1.143,-0.193
31.01,-0.153,0.911,-0.013
31.02,-0.229,1.043,0.18
31.03,-0.095,0.704,0.113
31.04,-0.496,1.205,-0.178
31.05,-0.249,0.85,-0.01
31.06,-0.114,1.261,0.08
31.07,-0.072,0.722,0.105
31.08,-0.254,0.946,0.035
31.09,-0.33,1.179,-0.194
31.1,-0.159,0.803,0.037
31.11,-0.176,1.117,0.18
31.12,-0.062,0.684,0.114
31.13,-0.535,1.191,-0.162
31.14,-0.279,0.876,-0.048
31.15,-0.061,1.202,0.017
31.16,-0.135,0.782,0.122
31.17,-0.277,0.841,-0.018
31.18,-0.274,1.27,-0.196
31.19,-0.116,0.791,-0.008
31.2,-0.185,1.129,0.172
31.21,-0.018,0.729,0.059
31.22,-0.53,1.128,-0.212
31.23,-0.197,0.934,0.002
31.24,-0.075,1.085,0.093
31.25,-0.245,0.905,0.145
31.26,-0.199,0.786,-0.043
31.27,-0.305,1.274,-0.162
31.28,-0.15,0.832,0.046
31.29,-0.071,1.143,0.117
31.3,-0.099,0.729,0.022
31.31,-0.443,1.062,-0.153
31.32,-0.166,1.052,-0.049
31.33,-0.093,0.917,0.072
31.34,-0.232,0.994,0.19
31.35,-0.284,0.776,-0.045
31.36,-0.382,1.225,-0.159
31.37,-0.137,0.824,0.077
31.38,-0.023,1.101,0.131
31.39,-0.145,0.76,-0.027
31.4,-0.432,1.026,-0.145
31.41,-0.064,1.132,-0.103
31.42,-0.146,0.789,0.092
31.43,-0.232,1.038,0.19
31.44,-0.258,0.792,-0.15
31.45,-0.313,1.195,-0.151
31.46,-0.096,0.92,0.123
31.47,-0.078,1.039,0.141
31.48,-0.25,0.721,0.037
31.49,-0.353,1.209,-0.188
31.5,-0.082,1.024,-0.096
31.51,-0.231,0.834,0.176
31.52,-0.101,1.019,0.113
31.53,-0.353,0.82,-0.178
31.54,-0.312,1.223,-0.04
31.55,-0.073,0.899,0.056
31.56,-0.139,0.917,0.131
31.57,-0.275,0.811,0.015
31.58,-0.288,1.15,-0.18
31.59,-0.113,1.068,-0.053
31.6,-0.18,0.756,0.149
31.61,-0.046,1.061,0.106
31.62,-0.395,0.746,-0.191
31.63,-0.305,1.192,-0.003
31.64,-0.037,1.01,0.055
31.65,-0.172,0.86,0.134
31.66,-0.326,0.906,0.02
31.67,-0.234,1.078,-0.185
31.68,-0.127,1.132,-0.057
31.69,-0.135,0.663,0.185
31.7,-0.029,1.141,0.063
31.71,-0.38,0.78,-0.229
31.72,-0.256,1.101,-0.06
31.73,0.005,1.037,0.067
31.74,-0.2,0.783,0.11
31.75,-0.307,0.988,0.014
31.76,-0.246,0.993,-0.234
31.77,-0.107,1.16,-0.029
31.78,-0.185,0.695,0.249
31.79,-0.061,1.028,0.075
31.8,-0.422,0.874,-0.217
31.81,-0.163,1.113,-0.001
31.82,-0.11,1.034,0.074
31.83,-0.209,0.714,0.152
31.84,-0.261,1.11,-0.067
31.85,-0.302,0.878,-0.187
31.86,-0.195,1.21,0.028
31.87,-0.068,0.795,0.176
31.88,-0.159,0.971,-0.005
31.89,-0.414,0.929,-0.164
31.9,-0.109,1.065,-0.06
31.91,-0.164,0.995,0.052
31.92,-0.162,0.688,0.202
31.93,-0.318,1.167,-0.094
31.94,-0.291,0.797,-0.16
31.95,-0.195,1.174,0.082
31.96,-0.076,0.846,0.167
31.97,-0.187,0.895,0.008
31.98,-0.451,1.045,-0.155
31.99,-0.063,0.986,-0.073
32.0,-0.206,1.034,0.08
32.01,-0.122,0.69,0.204
32.02,-0.374,1.227,-0.193
32.03,-0.225,0.781,-0.143
32.04,-0.12,1.271,0.12
32.05,-0.091,0.833,0.082
32.06,-0.22,0.84,-0.015
32.07,-0.334,1.217,-0.171
32.08,-0.15,0.891,-0.046
32.09,-0.232,1.044,0.126
32.1,-0.082,0.706,0.187
32.11,-0.452,1.174,-0.182
32.12,-0.234,0.77,-0.124
32.13,-0.046,1.208,0.072
32.14,-0.189,0.886,0.124
32.15,-0.245,0.747,-0.004
32.16,-0.31,1.308,-0.197
32.17,-0.123,0.835,-0.004
32.18,-0.296,1.135,0.169
32.19,-0.009,0.751,0.123
32.2,-0.507,1.104,-0.194
32.21,-0.194,0.901,-0.089
32.22,-0.003,1.151,0.05
32.23,-0.148,0.875,0.076
32.24,-0.283,0.751,0.018
32.25,-0.314,1.309,-0.19
32.26,-0.135,0.787,0.035
32.27,-0.152,1.15,0.161
32.28,-0.08,0.643,0.019
32.29,-0.503,1.193,-0.153
32.3,-0.1,0.929,-0.01
32.31,-0.139,1.121,0.08
32.32,-0.139,0.781,0.147
32.33,-0.257,0.873,-0.033
32.34,-0.365,1.229,-0.149
32.35,-0.192,0.823,0.079
32.36,-0.098,1.188,0.136
32.37,-0.138,0.642,0.008
32.38,-0.472,1.219,-0.166
32.39,-0.005,1.012,-0.118
32.4,-0.154,0.958,0.08
32.41,-0.19,0.938,0.22
32.42,-0.323,0.816,-0.172
32.43,-0.29,1.162,-0.128
32.44,-0.083,0.911,0.109
32.45,-0.147,1.115,0.124
32.46,-0.172,0.677,0.014
32.47,-0.409,1.177,-0.167
32.48,-0.102,1.02,-0.082
32.49,-0.176,0.839,0.147
32.5,-0.112,1.021,0.192
32.51,-0.397,0.774,-0.176
32.52,-0.266,1.152,-0.118
32.53,-0.062,0.95,0.082
32.54,-0.176,0.961,0.125
32.55,-0.174,0.764,0.034
32.56,-0.381,1.169,-0.164
32.57,-0.163,1.065,-0.017
32.58,-0.194,0.805,0.158
32.59,-0.07,1.044,0.095
32.6,-0.372,0.787,-0.188
32.61,-0.319,1.211,0.003
32.62,-0.059,0.979,0.06
32.63,-0.202,0.844,0.13
32.64,-0.177,0.902,0.031
32.65,-0.391,1.077,-0.238
32.66,-0.164,1.063,-0.05
32.67,-0.057,0.781,0.168
32.68,-0.191,1.082,0.062
32.69,-0.412,0.757,-0.2
32.7,-0.108,1.21,-0.062
32.71,-0.084,0.986,0.059
32.72,-0.181,0.783,0.159
32.73,-0.276,1.031,-0.003
32.74,-0.294,0.91,-0.228
32.75,-0.159,1.179,0.004
32.76,-0.017,0.783,0.136
32.77,-0.186,1.017,0.067
32.78,-0.342,0.849,-0.162
32.79,-0.14,1.147,-0.064
32.8,-0.155,0.944,0.057
32.81,-0.121,0.726,0.161
32.82,-0.313,1.161,-0.055
32.83,-0.298,0.812,-0.214
32.84,-0.173,1.203,0.077
32.85,-0.041,0.827,0.118
32.86,-0.155,0.929,-0.002
32.87,-0.343,0.993,-0.113
32.88,-0.143,1.082,-0.102
32.89,-0.159,0.954,0.046
32.9,-0.14,0.732,0.238
32.91,-0.373,1.189,-0.129
32.92,-0.295,0.734,-0.178
32.93,-0.156,1.255,0.125
32.94,-0.095,0.859,0.126
32.95,-0.221,0.876,0.015
32.96,-0.323,1.073,-0.189
32.97,-0.1,0.968,-0.112
32.98,-0.195,1.036,0.104
32.99,-0.146,0.681,0.165
33.0,-0.378,1.188,-0.144
33.01,-0.269,0.785,-0.136
33.02,-0.124,1.244,0.092
33.03,-0.083,0.821,0.121
33.04,-0.219,0.852,0.048
33.05,-0.359,1.163,-0.205
33.06,-0.125,0.85,-0.068
33.07,-0.165,1.099,0.079
33.08,-0.036,0.709,0.153
33.09,-0.487,1.161,-0.2
33.1,-0.21,0.8,-0.08
33.11,-0.032,1.346,0.055
33.12,-0.142,0.678,0.136
33.13,-0.33,0.925,0.029
33.14,-0.284,1.141,-0.193
33.15,-0.161,0.896,-0.033
33.16,-0.254,1.024,0.196
33.17,0.025,0.704,0.082
33.18,-0.546,1.187,-0.204
33.19,-0.194,0.843,-0.011
33.2,-0.137,1.256,0.096
33.21,-0.178,0.701,0.137
33.22,-0.23,0.942,0.038
33.23,-0.362,1.165,-0.239
33.24,-0.1,0.795,-0.019
33.25,-0.128,1.199,0.157
33.26,-0.089,0.623,0.07
33.27,-0.52,1.176,-0.156
33.28,-0.124,0.94,-0.016
33.29,-0.125,1.144,0.058
33.3,-0.23,0.788,0.184
33.31,-0.184,0.864,-0.056
33.32,-0.375,1.25,-0.164
33.33,-0.227,0.793,0.038
33.34,-0.102,1.213,0.15
33.35,-0.1,0.635,0.033
33.36,-0.514,1.141,-0.159
33.37,-0.009,1.016,-0.091
33.38,-0.192,1.013,0.069
33.39,-0.131,0.861,0.164
33.4,-0.256,0.82,-0.093
33.41,-0.333,1.23,-0.152
33.42,-0.169,0.839,0.043
33.43,-0.153,1.192,0.154
33.44,-0.153,0.683,0.062
33.45,-0.422,1.062,-0.176
33.46,-0.055,1.128,-0.067
33.47,-0.144,0.882,0.043
33.48,-0.147,0.95,0.187
33.49,-0.257,0.791,-0.09
33.5,-0.311,1.188,-0.159
33.51,-0.146,0.919,0.106
33.52,-0.119,1.078,0.108
33.53,-0.162,0.725,-0.017
33.54,-0.396,1.059,-0.128
33.55,-0.071,1.147,-0.13
33.56,-0.167,0.781,0.082
33.57,-0.161,1.015,0.203
33.58,-0.3,0.786,-0.139
33.59,-0.34,1.148,-0.124
33.6,-0.122,0.978,0.133
33.61,-0.106,0.999,0.131
33.62,-0.261,0.862,0.048
33.63,-0.387,1.014,-0.155
33.64,-0.124,1.164,-0.088
33.65,-0.168,0.752,0.109
33.66,-0.078,1.079,0.186
33.67,-0.37,0.764,-0.167
33.68,-0.247,1.064,-0.098
33.69,-0.093,1.106,0.044
33.7,-0.125,0.81,0.133
33.71,-0.261,0.952,0.06
33.72,-0.312,0.967,-0.165
33.73,-0.179,1.179,-0.07
33.74,-0.192,0.723,0.144
33.75,-0.104,1.051,0.154
33.76,-0.344,0.852,-0.165
33.77,-0.286,1.024,-0.118
33.78,-0.069,1.124,0.062
33.79,-0.151,0.786,0.152
33.8,-0.21,0.987,-0.002
33.81,-0.375,0.982,-0.122
33.82,-0.177,1.188,-0.007
33.83,-0.249,0.72,0.169
33.84,-0.057,1.01,0.105
33.85,-0.386,0.927,-0.169
33.86,-0.316,0.962,-0.078
33.87,0.032,1.182,0.023
33.88,-0.156,0.684,0.129
33.89,-0.293,1.047,0.029
33.9,-0.356,0.977,-0.194
33.91,-0.18,1.136,-0.017
33.92,-0.166,0.741,0.166
33.93,-0.119,1.052,0.046
33.94,-0.344,0.858,-0.227
33.95,-0.221,1.043,-0.078
33.96,-0.036,1.089,0.049
33.97,-0.115,0.701,0.17
33.98,-0.316,1.07,0.005
33.99,-0.257,0.918,-0.215
34.0,-0.184,1.18,-0.001
34.01,-0.145,0.745,0.181
34.02,-0.119,1.024,0.056
34.03,-0.351,0.916,-0.214
34.04,-0.202,1.003,-0.032
34.05,-0.105,1.147,0.031
34.06,-0.085,0.629,0.147
34.07,-0.277,1.134,0.022
34.08,-0.332,0.886,-0.211
34.09,-0.189,1.141,0.049
34.1,-0.113,0.879,0.154
34.11,-0.123,0.926,0.047
34.12,-0.398,0.991,-0.165
34.13,-0.139,0.946,-0.063
34.14,-0.156,1.188,0.057
34.15,-0.107,0.611,0.14
34.16,-0.365,1.17,-0.0
34.17,-0.258,0.86,-0.195
34.18,-0.187,1.126,0.028
34.19,-0.101,0.891,0.156
34.2,-0.122,0.84,0.042
34.21,-0.462,1.096,-0.172
34.22,-0.107,0.878,-0.004
34.23,-0.139,1.22,0.045
34.24,-0.138,0.607,0.156
34.25,-0.332,1.161,-0.053
34.26,-0.301,0.893,-0.176
34.27,-0.141,1.07,0.042
34.28,-0.079,1.018,0.13
34.29,-0.135,0.739,0.039
34.3,-0.441,1.179,-0.17
34.31,-0.061,0.883,-0.06
34.32,-0.162,1.171,0.05
34.33,-0.139,0.682,0.205
34.34,-0.34,1.098,-0.064
34.35,-0.253,0.896,-0.178
34.36,-0.193,1.053,0.123
34.37,-0.1,1.032,0.125
34.38,-0.102,0.66,-0.024
34.39,-0.439,1.261,-0.153
34.4,-0.061,0.874,-0.078
34.41,-0.157,1.159,0.06
34.42,-0.108,0.74,0.23
34.43,-0.353,1.067,-0.118
34.44,-0.245,0.959,-0.222
34.45,-0.149,0.986,0.122
34.46,-0.112,1.094,0.13
34.47,-0.158,0.616,-0.005
34.48,-0.452,1.305,-0.165
34.49,-0.102,0.833,-0.077
34.5,-0.187,1.071,0.123
34.51,-0.046,0.843,0.176
34.52,-0.379,0.938,-0.171
34.53,-0.246,1.014,-0.102
34.54,-0.104,1.0,0.104
34.55,-0.206,1.115,0.128
34.56,-0.089,0.604,0.021
34.57,-0.474,1.34,-0.191
34.58,-0.085,0.936,-0.071
34.59,-0.201,0.97,0.081
34.6,-0.135,0.876,0.204
34.61,-0.304,0.867,-0.12
34.62,-0.297,1.097,-0.155
34.63,-0.085,0.962,0.121
34.64,-0.172,1.119,0.091
34.65,-0.17,0.605,0.022
34.66,-0.394,1.266,-0.14
34.67,-0.127,1.003,-0.079
34.68,-0.227,0.903,0.098
34.69,-0.104,0.973,0.184
34.7,-0.349,0.821,-0.182
34.71,-0.274,1.096,-0.035
34.72,-0.061,0.981,0.077
34.73,-0.158,1.01,0.083
34.74,-0.194,0.69,0.05
34.75,-0.404,1.288,-0.204
34.76,-0.095,0.839,-0.06
34.77,-0.17,1.029,0.196
34.78,-0.136,0.865,0.14
34.79,-0.427,0.871,-0.138
34.8,-0.203,1.226,-0.057
34.81,-0.073,0.89,0.062
34.82,-0.206,1.005,0.149
34.83,-0.261,0.779,0.023
34.84,-0.378,1.222,-0.233
34.85,-0.105,0.865,-0.007
34.86,-0.211,1.013,0.201
34.87,-0.106,0.95,0.026
34.88,-0.365,0.813,-0.177
34.89,-0.204,1.259,-0.047
34.9,-0.046,0.887,0.056
34.91,-0.17,0.973,0.186
34.92,-0.264,0.781,-0.006
34.93,-0.328,1.16,-0.251
34.94,-0.074,0.969,-0.089
34.95,-0.135,0.854,0.192
34.96,-0.093,1.029,0.084
34.97,-0.409,0.767,-0.228
34.98,-0.144,1.252,-0.044
34.99,-0.092,0.887,0.032
35.0,-0.127,0.865,0.135
35.01,-0.269,0.935,-0.044
35.02,-0.328,1.05,-0.211
35.03,-0.186,1.062,-0.007
35.04,-0.113,0.842,0.187
35.05,-0.121,1.021,0.056
35.06,-0.449,0.81,-0.15
35.07,-0.103,1.228,-0.097
35.08,-0.11,0.863,0.031
35.09,-0.129,0.845,0.178
35.1,-0.312,1.0,-0.069
35.11,-0.326,0.876,-0.172
35.12,-0.167,1.185,0.055
35.13,-0.146,0.807,0.174
35.14,-0.17,1.002,0.081
35.15,-0.42,0.896,-0.151
35.16,-0.176,1.164,-0.077
35.17,-0.105,0.86,0.023
35.18,-0.14,0.804,0.187
35.19,-0.286,1.084,-0.097
35.2,-0.321,0.829,-0.179
35.21,-0.165,1.205,0.019
35.22,-0.095,0.798,0.142
35.23,-0.133,1.006,0.046
35.24,-0.3,0.888,-0.211
35.25,-0.146,1.053,-0.05
35.26,-0.126,0.949,0.057
35.27,-0.083,0.759,0.166
35.28,-0.386,1.135,-0.046
35.29,-0.298,0.83,-0.208
35.3,-0.117,1.204,0.017
35.31,-0.12,0.81,0.174
35.32,-0.165,0.96,0.025
35.33,-0.347,0.948,-0.197
35.34,-0.126,1.023,0.021
35.35,-0.171,1.089,0.074
35.36,-0.165,0.647,0.134
35.37,-0.287,1.213,-0.093
35.38,-0.29,0.836,-0.223
35.39,-0.203,1.177,0.101
35.4,-0.025,0.837,0.11
35.41,-0.167,0.875,-0.008
35.42,-0.433,1.072,-0.16
35.43,-0.028,0.947,-0.097
35.44,-0.176,1.1,0.085
35.45,-0.107,0.698,0.196
35.46,-0.368,1.198,-0.152
35.47,-0.305,0.765,-0.157
35.48,-0.099,1.25,0.083
35.49,-0.046,0.853,0.067
35.5,-0.21,0.809,0.005
35.51,-0.371,1.188,-0.142
35.52,-0.096,0.895,-0.068
35.53,-0.225,1.015,0.154
35.54,-0.062,0.713,0.126
35.55,-0.424,1.175,-0.192
35.56,-0.273,0.805,-0.036
35.57,-0.12,1.313,0.022
35.58,-0.088,0.679,0.133
35.59,-0.255,0.925,-0.011
35.6,-0.274,1.146,-0.189
35.61,-0.115,0.86,-0.054
35.62,-0.237,1.089,0.169
35.63,0.011,0.72,0.104
35.64,-0.496,1.149,-0.198
35.65,-0.226,0.821,-0.001
35.66,-0.128,1.268,0.088
35.67,-0.133,0.744,0.116
35.68,-0.284,0.887,0.056
35.69,-0.305,1.212,-0.201
35.7,-0.135,0.803,-0.053
35.71,-0.159,1.168,0.158
35.72,-0.105,0.9,-0.056
35.73,-0.171,1.11,0.067
35.74,-0.256,0.798,0.218
35.75,-0.235,0.91,-0.06
35.76,-0.347,1.151,-0.197
35.77,-0.132,0.845,0.049
35.78,-0.123,1.219,0.154
35.79,-0.031,0.633,0.075
35.8,-0.5,1.195,-0.156
35.81,-0.103,0.953,-0.066
35.82,-0.12,1.032,0.079
35.83,-0.22,0.836,0.176
35.84,-0.273,0.83,-0.028
35.85,-0.357,1.217,-0.165
35.86,-0.129,0.825,0.038
35.87,-0.111,1.204,0.112
35.88,-0.046,0.639,0.061
35.89,-0.463,1.156,-0.189
35.9,-0.045,1.014,-0.07
35.91,-0.163,0.969,0.083
35.92,-0.174,0.949,0.186
35.93,-0.308,0.782,-0.091
35.94,-0.326,1.168,-0.227
35.95,-0.152,0.887,0.148
35.96,-0.118,1.156,0.1
35.97,-0.094,0.7,0.021
35.98,-0.429,1.111,-0.148
35.99,-0.066,1.114,-0.11
36.0,-0.117,0.842,0.079
36.01,-0.219,0.983,0.197
36.02,-0.275,0.811,-0.089
36.03,-0.29,1.176,-0.175
36.04,-0.167,0.884,0.117
36.05,-0.077,1.066,0.112
36.06,-0.137,0.821,0.032
36.07,-0.432,0.994,-0.162
36.08,-0.074,1.198,-0.06
36.09,-0.119,0.774,0.09
36.1,-0.16,1.021,0.196
36.11,-0.326,0.812,-0.13
36.12,-0.281,1.127,-0.174
36.13,-0.188,0.98,0.108
36.14,-0.076,0.948,0.108
36.15,-0.153,0.878,0.03
36.16,-0.421,0.977,-0.141
36.17,-0.154,1.203,-0.088
36.18,-0.094,0.724,0.094
36.19,-0.183,1.069,0.18
36.2,-0.265,0.809,-0.144
36.21,-0.306,1.06,-0.102
36.22,-0.179,1.088,0.133
36.23,-0.134,0.956,0.121
36.24,-0.212,0.807,0.007
36.25,-0.344,1.112,-0.161
36.26,-0.13,1.125,-0.058
36.27,-0.216,0.755,0.186
36.28,-0.095,1.106,0.117
36.29,-0.381,0.757,-0.16
36.3,-0.201,1.095,-0.142
36.31,-0.062,1.041,0.072
36.32,-0.064,0.818,0.1
36.33,-0.28,0.911,0.025
36.34,-0.34,0.994,-0.163
36.35,-0.17,1.179,-0.051
36.36,-0.128,0.693,0.134
36.37,-0.176,1.095,0.172
36.38,-0.339,0.835,-0.193
36.39,-0.255,1.041,-0.071
36.4,-0.044,1.077,0.077
36.41,-0.077,0.801,0.148
36.42,-0.351,1.017,0.024
36.43,-0.327,0.928,-0.151
36.44,-0.146,1.156,-0.054
36.45,-0.166,0.758,0.182
36.46,-0.127,1.062,0.14
36.47,-0.328,0.883,-0.211
36.48,-0.235,0.974,-0.084
36.49,-0.09,1.193,0.052
36.5,-0.006,0.68,0.092
36.51,-0.348,1.078,0.03
36.52,-0.292,0.906,-0.147
36.53,-0.188,1.18,-0.027
36.54,-0.16,0.748,0.141
36.55,-0.099,0.992,0.114
36.56,-0.37,0.98,-0.182
36.57,-0.279,0.888,-0.055
36.58,-0.055,1.235,0.03
36.59,-0.062,0.659,0.117
36.6,-0.363,1.117,0.018
36.61,-0.201,0.891,-0.247
36.62,-0.132,1.15,-0.058
36.63,-0.176,0.837,0.158
36.64,-0.122,0.895,0.114
36.65,-0.364,1.044,-0.187
36.66,-0.255,0.904,-0.025
36.67,-0.082,1.234,0.032
36.68,-0.108,0.599,0.15
36.69,-0.296,1.109,0.015
36.7,-0.325,0.885,-0.204
36.71,-0.176,1.074,-0.019
36.72,-0.175,0.941,0.142
36.73,-0.077,0.815,0.101
36.74,-0.422,1.098,-0.183
36.75,-0.255,0.828,-0.022
36.76,-0.083,1.301,0.077
36.77,-0.138,0.625,0.116
36.78,-0.26,1.041,0.032
36.79,-0.296,1.005,-0.234
36.8,-0.144,0.986,-0.019
36.81,-0.179,0.982,0.156
36.82,-0.081,0.774,0.086
36.83,-0.47,1.148,-0.195
36.84,-0.166,0.798,-0.078
36.85,-0.108,1.269,0.083
36.86,-0.116,0.63,0.129
36.87,-0.302,1.009,0.025
36.88,-0.247,1.083,-0.241
36.89,-0.144,0.877,-0.05
36.9,-0.218,1.092,0.175
36.91,-0.03,0.678,0.074
36.92,-0.528,1.197,-0.201
36.93,-0.116,0.894,-0.026
36.94,-0.155,1.237,0.037
36.95,-0.108,0.687,0.141
36.96,-0.213,0.979,-0.02
36.97,-0.293,1.15,-0.212
36.98,-0.256,0.865,0.044
36.99,-0.163,1.161,0.157
37.0,-0.047,0.585,0.07
37.01,-0.578,1.219,-0.145
37.02,-0.054,0.907,-0.093
37.03,-0.183,1.134,0.066
37.04,-0.168,0.668,0.21
37.05,-0.229,1.083,-0.105
37.06,-0.273,1.028,-0.205
37.07,-0.152,0.965,0.031
37.08,-0.093,1.148,0.136
37.09,-0.137,0.639,0.08
37.1,-0.471,1.193,-0.145
37.11,-0.027,0.922,-0.054
37.12,-0.185,1.152,0.05
37.13,-0.157,0.724,0.226
37.14,-0.249,0.993,-0.054
37.15,-0.361,1.083,-0.231
37.16,-0.111,0.821,0.003
37.17,-0.138,1.232,0.199
37.18,-0.102,0.632,0.013
37.19,-0.54,1.156,-0.17
37.2,-0.034,0.953,-0.04
37.21,-0.139,1.107,0.047
37.22,-0.236,0.773,0.228
37.23,-0.165,0.894,-0.062
37.24,-0.388,1.16,-0.206
37.25,-0.216,0.777,0.087
37.26,-0.037,1.22,0.107
37.27,-0.151,0.642,0.045
37.28,-0.526,1.147,-0.116
37.29,-0.038,1.009,-0.106
37.3,-0.126,1.021,0.101
37.31,-0.2,0.902,0.208
37.32,-0.236,0.834,-0.11
37.33,-0.345,1.173,-0.136
37.34,-0.192,0.839,0.042
37.35,-0.083,1.13,0.104
37.36,-0.076,0.705,0.014
37.37,-0.558,1.103,-0.146
37.38,-0.084,1.025,-0.092
37.39,-0.134,0.929,0.09
37.4,-0.213,0.864,0.221
37.41,-0.295,0.887,-0.149
37.42,-0.248,1.085,-0.159
37.43,-0.147,0.93,0.126
37.44,-0.109,1.127,0.131
37.45,-0.17,0.64,0.014
37.46,-0.499,1.192,-0.146
37.47,-0.088,1.01,-0.087
37.48,-0.141,0.956,0.06
37.49,-0.178,0.923,0.144
37.5,-0.287,0.874,-0.092
37.51,-0.317,1.185,-0.141
37.52,-0.14,0.857,0.049
37.53,0.021,1.133,0.118
37.54,-0.179,0.711,0.019
37.55,-0.487,1.064,-0.163
37.56,0.009,1.1,-0.062
37.57,-0.192,0.891,0.089
37.58,-0.237,0.953,0.221
37.59,-0.24,0.842,-0.142
37.6,-0.323,1.185,-0.149
37.61,-0.132,0.871,0.074
37.62,-0.036,1.069,0.129
37.63,-0.233,0.754,0.017
37.64,-0.407,1.056,-0.159
37.65,-0.036,1.141,-0.068
37.66,-0.244,0.772,0.095
37.67,-0.166,1.021,0.186
37.68,-0.22,0.797,-0.152
37.69,-0.323,1.194,-0.121
37.7,-0.163,0.963,0.099
37.71,-0.026,0.969,0.119
37.72,-0.284,0.846,0.015
37.73,-0.359,0.983,-0.128
37.74,-0.031,1.207,-0.068
37.75,-0.278,0.712,0.124
37.76,-0.086,1.028,0.174
37.77,-0.265,0.875,-0.165
37.78,-0.358,1.074,-0.141
37.79,-0.085,1.033,0.111
37.8,-0.085,0.936,0.133
37.81,-0.297,0.902,-0.0
37.82,-0.378,0.93,-0.151
37.83,-0.088,1.265,-0.078
37.84,-0.194,0.702,0.088
37.85,-0.107,1.022,0.171
37.86,-0.356,0.812,-0.177
37.87,-0.329,1.137,-0.109
37.88,-0.0,0.981,0.097
37.89,-0.095,0.929,0.116
37.9,-0.316,0.902,0.024
37.91,-0.32,0.984,-0.153
37.92,-0.178,1.148,-0.05
37.93,-0.216,0.723,0.162
37.94,-0.084,1.101,0.117
37.95,-0.348,0.809,-0.222
37.96,-0.374,1.074,-0.055
37.97,0.021,1.045,0.036
37.98,-0.125,0.799,0.116
37.99,-0.317,0.987,0.038
38.0,-0.338,0.954,-0.132
38.01,-0.146,1.184,-0.022
38.02,-0.213,0.704,0.133
38.03,-0.165,1.059,0.118
38.04,-0.319,0.875,-0.198
38.05,-0.276,1.02,-0.086
38.06,-0.062,1.103,0.07
38.07,-0.099,0.756,0.125
38.08,-0.298,1.036,-0.04
38.09,-0.329,0.895,-0.136
38.1,-0.146,1.233,-0.019
38.11,-0.175,0.714,0.147
38.12,-0.145,0.993,0.142
38.13,-0.324,0.964,-0.208
38.14,-0.294,0.94,-0.07
38.15,-0.027,1.165,0.064
38.16,-0.1,0.685,0.125
38.17,-0.354,1.083,-0.012
38.18,-0.252,0.874,-0.162
38.19,-0.153,1.214,-0.007
38.2,-0.154,0.801,0.135
38.21,-0.06,0.916,0.097
38.22,-0.39,1.029,-0.194
38.23,-0.23,0.849,-0.073
38.24,-0.086,1.245,0.072
38.25,-0.06,0.661,0.133
38.26,-0.344,1.093,-0.03
38.27,-0.3,0.927,-0.158
38.28,-0.128,1.134,-0.037
38.29,-0.227,0.815,0.143
38.3,-0.055,0.841,0.104
38.31,-0.418,1.15,-0.214
38.32,-0.209,0.777,-0.071
38.33,-0.066,1.298,0.082
38.34,-0.128,0.676,0.146
38.35,-0.323,1.051,-0.015
38.36,-0.228,0.982,-0.195
38.37,-0.099,1.084,-0.006
38.38,-0.269,0.909,0.182
38.39,-0.083,0.794,0.091
38.4,-0.484,1.201,-0.256
38.41,-0.153,0.779,0.006
38.42,-0.088,1.31,0.087
38.43,-0.116,0.671,0.078
38.44,-0.304,1.039,-0.035
38.45,-0.235,1.029,-0.193
38.46,-0.172,0.972,-0.014
38.47,-0.124,1.039,0.166
38.48,-0.049,0.713,0.005
38.49,-0.497,1.196,-0.175
38.5,-0.14,0.854,-0.0
38.51,-0.131,1.221,0.057
38.52,-0.069,0.691,0.135
38.53,-0.301,1.021,-0.05
38.54,-0.285,1.058,-0.192
38.55,-0.144,0.898,0.029
38.56,-0.103,1.121,0.14
38.57,-0.125,0.636,0.019
38.58,-0.518,1.245,-0.138
38.59,-0.081,0.928,-0.067
38.6,-0.183,1.067,0.108
38.61,-0.136,0.795,0.166
38.62,-0.323,0.921,-0.089
38.63,-0.313,1.128,-0.146
38.64,-0.086,0.888,0.055
38.65,-0.148,1.132,0.133
38.66,-0.177,0.612,0.038
38.67,-0.479,1.292,-0.136
38.68,-0.085,0.825,-0.053
38.69,-0.198,1.122,0.128
38.7,-0.151,0.775,0.188
38.71,-0.325,0.973,-0.192
38.72,-0.224,1.031,-0.144
38.73,-0.081,0.994,0.103
38.74,-0.084,1.055,0.098
38.75,-0.231,0.67,0.015
38.76,-0.452,1.326,-0.142
38.77,-0.15,0.875,-0.032
38.78,-0.221,1.006,0.143
38.79,-0.114,0.865,0.125
38.8,-0.397,0.917,-0.181
38.81,-0.252,1.086,-0.098
38.82,-0.067,0.943,0.107
38.83,-0.08,1.054,0.137
38.84,-0.271,0.637,-0.025
38.85,-0.295,1.258,-0.179
38.86,-0.116,0.945,-0.013
38.87,-0.267,0.928,0.153
38.88,-0.092,0.93,0.111
38.89,-0.411,0.885,-0.201
38.9,-0.277,1.175,-0.067
38.91,0.042,0.899,0.073
38.92,-0.169,1.029,0.139
38.93,-0.281,0.744,0.002
38.94,-0.262,1.2,-0.218
38.95,-0.137,0.969,-0.03
38.96,-0.22,0.883,0.196
38.97,-0.109,0.976,0.08
38.98,-0.463,0.796,-0.155
38.99,-0.234,1.261,-0.024
39.0,-0.087,0.887,0.074
39.01,-0.166,0.931,0.123
39.02,-0.228,0.879,-0.019
39.03,-0.294,1.07,-0.212
39.04,-0.15,1.084,0.002
39.05,-0.177,0.793,0.182
39.06,-0.102,1.033,0.032
39.07,-0.407,0.813,-0.155
39.08,-0.223,1.26,-0.028
39.09,-0.054,0.83,0.081
39.1,-0.135,0.895,0.143
39.11,-0.281,0.992,-0.033
39.12,-0.35,0.952,-0.168
39.13,-0.151,1.16,0.031
39.14,-0.09,0.807,0.142
39.15,-0.173,1.019,0.015
39.16,-0.345,0.822,-0.169
39.17,-0.162,1.218,-0.031
39.18,-0.056,0.861,0.076
39.19,-0.175,0.847,0.169
39.2,-0.267,1.075,-0.066
39.21,-0.295,0.894,-0.189
39.22,-0.181,1.175,0.02
39.23,-0.039,0.754,0.149
39.24,-0.237,1.029,0.036
39.25,-0.391,0.858,-0.176
39.26,-0.092,1.127,-0.079
39.27,-0.154,0.937,0.067
39.28,-0.145,0.746,0.191
39.29,-0.276,1.16,-0.117
39.3,-0.267,0.819,-0.158
39.31,-0.188,1.244,0.031
39.32,-0.047,0.734,0.176
39.33,-0.244,0.989,0.057
39.34,-0.337,0.977,-0.23
39.35,-0.093,1.016,-0.074
39.36,-0.178,0.978,0.073
39.37,-0.097,0.751,0.171
39.38,-0.386,1.211,-0.119
39.39,-0.275,0.752,-0.175
39.4,-0.107,1.251,0.107
39.41,-0.083,0.828,0.106
39.42,-0.209,0.894,0.037
39.43,-0.374,1.068,-0.183
39.44,-0.126,0.974,-0.038
39.45,-0.156,1.046,0.108
39.46,-0.094,0.694,0.184
39.47,-0.399,1.233,-0.148
39.48,-0.229,0.748,-0.109
39.49,-0.066,1.295,0.114
39.5,-0.135,0.7,0.154
39.51,-0.339,0.965,-0.024
39.52,-0.303,1.081,-0.161
39.53,-0.139,1.02,-0.043
39.54,-0.229,0.944,0.127
39.55,-0.006,0.732,0.16
39.56,-0.436,1.249,-0.204
39.57,-0.317,0.763,-0.076
39.58,-0.022,1.292,0.077
39.59,-0.121,0.707,0.149
39.6,-0.398,0.927,0.054
39.61,-0.234,1.113,-0.232
39.62,-0.175,0.868,-0.026
39.63,-0.29,1.06,0.189
39.64,0.035,0.705,0.079
39.65,-0.486,1.191,-0.237
39.66,-0.233,0.82,0.027
39.67,-0.052,1.225,0.064
39.68,-0.189,0.784,0.16
39.69,-0.251,0.889,-0.011
39.7,-0.266,1.167,-0.215
39.71,-0.152,0.853,-0.009
39.72,-0.191,1.126,0.155
39.73,-0.012,0.686,0.082
39.74,-0.592,1.182,-0.173
39.75,-0.146,0.878,-0.066
39.76,-0.135,1.13,0.036
39.77,-0.104,0.835,0.114
39.78,-0.296,0.829,-0.046
39.79,-0.299,1.191,-0.165
39.8,-0.11,0.876,0.04
39.81,-0.159,1.166,0.136
39.82,-0.058,0.652,0.061
39.83,-0.506,1.164,-0.189
39.84,-0.116,0.972,-0.047
39.85,-0.088,1.0,0.055
39.86,-0.096,0.901,0.114
39.87,-0.358,0.778,-0.046
39.88,-0.239,1.215,-0.215
39.89,-0.056,0.87,0.008
39.9,-0.124,1.115,0.172
39.91,-0.07,0.722,0.042
39.92,-0.471,1.083,-0.177
39.93,-0.091,1.094,-0.046
39.94,-0.195,0.917,0.09
39.95,-0.111,0.949,0.145
39.96,-0.264,0.79,-0.1
39.97,-0.333,1.238,-0.117
39.98,-0.203,0.903,0.083
39.99,-0.186,1.087,0.167
40.0,-0.18,0.743,0.054
40.01,-0.409,0.996,-0.163
40.02,-0.044,1.185,-0.073
40.03,-0.195,0.807,0.123
40.04,-0.172,1.012,0.151
40.05,-0.257,0.784,-0.114
40.06,-0.307,1.168,-0.179
40.07,-0.06,1.007,0.099
40.08,-0.164,1.014,0.183
40.09,-0.162,0.834,0.025
40.1,-0.413,0.933,-0.178
40.11,-0.07,1.189,-0.059
40.12,-0.116,0.752,0.113
40.13,-0.163,1.018,0.14
40.14,-0.348,0.825,-0.108
40.15,-0.298,1.076,-0.135
40.16,-0.103,1.048,0.047
40.17,-0.098,0.882,0.151
40.18,-0.262,0.949,0.042
40.19,-0.385,0.917,-0.131
40.2,-0.143,1.31,-0.011
40.21,-0.142,0.675,0.107
40.22,-0.105,1.032,0.162
40.23,-0.392,0.92,-0.163
40.24,-0.272,0.979,-0.152
40.25,-0.083,1.154,0.096
40.26,-0.098,0.746,0.104
40.27,-0.297,1.034,0.015
40.28,-0.301,0.931,-0.176
40.29,-0.178,1.17,-0.014
40.3,-0.115,0.74,0.149
40.31,-0.099,1.084,0.092
40.32,-0.381,0.843,-0.23
40.33,-0.283,1.13,-0.061
40.34,-0.105,1.038,0.058
40.35,-0.198,0.726,0.137
40.36,-0.224,1.06,0.006
40.37,-0.353,0.901,-0.165
40.38,-0.153,1.143,0.003
40.39,-0.157,0.766,0.17
40.4,-0.102,1.002,0.067
40.41,-0.379,0.912,-0.195
40.42,-0.215,1.007,-0.105
40.43,-0.07,1.103,0.044
40.44,-0.125,0.705,0.132
40.45,-0.323,1.129,-0.016
40.46,-0.274,0.88,-0.175
40.47,-0.15,1.168,0.037
40.48,-0.156,0.778,0.146
40.49,-0.114,0.943,0.082
40.5,-0.386,1.02,-0.217
40.51,-0.213,0.922,-0.086
40.52,-0.103,1.161,0.068
40.53,-0.082,0.663,0.164
40.54,-0.383,1.148,-0.044
40.55,-0.32,0.821,-0.161
40.56,-0.137,1.192,0.032
40.57,-0.177,0.867,0.162
40.58,-0.083,0.871,0.063
40.59,-0.42,1.107,-0.186
40.6,-0.177,0.891,-0.044
40.61,-0.094,1.205,0.073
40.62,-0.114,0.62,0.182
40.63,-0.357,1.103,-0.005
40.64,-0.312,0.93,-0.178
40.65,-0.07,1.084,0.004
40.66,-0.157,0.975,0.157
40.67,-0.157,0.755,0.023
40.68,-0.419,1.169,-0.221
40.69,-0.087,0.887,-0.07
40.7,-0.158,1.127,0.079
40.71,-0.086,0.684,0.168
40.72,-0.354,1.131,-0.08
40.73,-0.289,0.885,-0.159
40.74,-0.06,1.062,0.057
40.75,-0.15,1.03,0.125
40.76,-0.216,0.679,0.022
40.77,-0.421,1.237,-0.165
40.78,-0.106,0.865,-0.05
40.79,-0.235,1.121,0.149
40.8,-0.073,0.696,0.167
40.81,-0.368,1.088,-0.158
40.82,-0.258,0.962,-0.174
40.83,-0.077,0.986,0.117
40.84,-0.115,1.061,0.114
40.85,-0.206,0.651,0.006
40.86,-0.427,1.315,-0.185
40.87,-0.106,0.853,-0.064
40.88,-0.151,1.047,0.134
40.89,-0.078,0.837,0.168
40.9,-0.408,0.951,-0.189
40.91,-0.194,1.032,-0.144
40.92,-0.117,0.993,0.115
40.93,-0.167,1.019,0.127
40.94,-0.168,0.631,-0.011
40.95,-0.406,1.359,-0.195
40.96,-0.069,0.917,-0.077
40.97,-0.263,1.011,0.198
40.98,-0.095,0.866,0.139
40.99,-0.385,0.864,-0.189
41.0,-0.212,1.132,-0.105
41.01,-0.038,0.906,0.065
41.02,-0.174,1.025,0.127
41.03,-0.225,0.698,-0.005
41.04,-0.321,1.235,-0.207
41.05,-0.156,0.938,-0.018
41.06,-0.196,0.92,0.172
41.07,-0.119,0.981,0.087
41.08,-0.424,0.817,-0.193
41.09,-0.262,1.215,-0.072
41.1,-0.007,0.914,0.088
41.11,-0.167,0.996,0.169
41.12,-0.255,0.745,-0.035
41.13,-0.29,1.275,-0.233
41.14,-0.164,0.904,0.022
41.15,-0.147,1.01,0.212
41.16,-0.147,0.872,0.03
41.17,-0.424,0.917,-0.19
41.18,-0.125,1.248,-0.044
41.19,-0.091,0.802,0.053
41.2,-0.21,0.971,0.182
41.21,-0.16,0.847,-0.135
41.22,-0.331,1.09,-0.187
41.23,-0.168,0.958,0.062
41.24,0.015,0.94,0.117
41.25,-0.191,0.944,-0.014
41.26,-0.417,0.867,-0.131
41.27,-0.109,1.296,-0.055
41.28,-0.122,0.746,0.063
41.29,-0.2,1.003,0.227
41.3,-0.219,0.911,-0.129
41.31,-0.38,1.026,-0.159
41.32,-0.137,1.042,0.055
41.33,-0.029,0.864,0.144
41.34,-0.193,0.983,0.01
41.35,-0.407,0.891,-0.163
41.36,-0.132,1.271,-0.08
41.37,-0.112,0.75,0.091
41.38,-0.169,0.966,0.231
41.39,-0.273,0.978,-0.141
41.4,-0.304,0.863,-0.185
41.41,-0.133,1.221,0.094
41.42,-0.033,0.787,0.127
41.43,-0.19,1.04,0.006
41.44,-0.377,0.925,-0.175
41.45,-0.091,1.174,-0.091
41.46,-0.173,0.788,0.095
41.47,-0.189,0.89,0.213
41.48,-0.317,1.042,-0.153
41.49,-0.291,0.85,-0.127
41.5,-0.077,1.255,0.061
41.51,-0.078,0.69,0.131
41.52,-0.226,1.047,0.045
41.53,-0.4,0.926,-0.172
41.54,-0.084,1.131,-0.044
41.55,-0.2,0.902,0.105
41.56,-0.203,0.753,0.196
41.57,-0.322,1.154,-0.14
41.58,-0.265,0.84,-0.123
41.59,-0.142,1.25,0.066
41.6,-0.02,0.68,0.113
41.61,-0.239,1.02,0.038
41.62,-0.44,0.989,-0.129
41.63,-0.045,1.032,-0.048
41.64,-0.211,1.025,0.094
41.65,-0.116,0.767,0.158
41.66,-0.371,1.156,-0.179
41.67,-0.25,0.766,-0.077
41.68,-0.074,1.346,0.099
41.69,-0.077,0.684,0.109
41.7,-0.301,0.931,0.016
41.71,-0.355,1.112,-0.15
41.72,-0.11,0.934,-0.021
41.73,-0.223,1.037,0.128
41.74,0.033,0.729,0.142
41.75,-0.49,1.184,-0.189
41.76,-0.284,0.767,-0.024
41.77,-0.091,1.316,0.071
41.78,-0.106,0.712,0.127
41.79,-0.327,0.865,0.068
41.8,-0.345,1.217,-0.232
41.81,-0.082,0.809,-0.037
41.82,-0.245,1.16,0.145
41.83,-0.024,0.687,0.104
41.84,-0.465,1.157,-0.206
41.85,-0.171,0.917,-0.033
41.86,-0.107,1.193,0.042
41.87,-0.138,0.755,0.171
41.88,-0.296,0.824,0.035
41.89,-0.294,1.269,-0.24
41.9,-0.072,0.796,0.004
41.91,-0.192,1.228,0.166
41.92,-0.047,0.646,0.082
41.93,-0.469,1.27,-0.16
41.94,-0.082,0.931,-0.028
41.95,-0.177,1.107,0.045
41.96,-0.126,0.751,0.192
41.97,-0.271,0.971,-0.106
41.98,-0.36,1.09,-0.2
41.99,-0.151,0.875,0.061
42.0,-0.13,1.213,0.153
42.01,-0.119,0.626,0.059
42.02,-0.488,1.202,-0.141
42.03,-0.084,0.935,-0.035
42.04,-0.166,1.038,0.091
42.05,-0.153,0.811,0.182
42.06,-0.246,0.895,-0.105
42.07,-0.395,1.152,-0.189
42.08,-0.115,0.799,0.088
42.09,-0.075,1.23,0.112
42.1,-0.111,0.647,0.029
42.11,-0.437,1.157,-0.156
42.12,-0.051,1.062,-0.078
42.13,-0.206,0.919,0.094
42.14,-0.164,0.94,0.211
42.15,-0.259,0.818,-0.119
42.16,-0.404,1.157,-0.154
42.17,-0.095,0.855,0.11
42.18,-0.154,1.148,0.123
42.19,-0.14,0.689,0.038
42.2,-0.401,1.136,-0.166
42.21,-0.105,1.093,-0.1
42.22,-0.198,0.808,0.131
42.23,-0.172,1.01,0.205
42.24,-0.264,0.794,-0.158
42.25,-0.4,1.103,-0.138
42.26,-0.076,0.917,0.102
42.27,-0.082,1.13,0.135
42.28,-0.21,0.733,0.046
42.29,-0.364,1.027,-0.14
42.3,-0.068,1.257,-0.088
42.31,-0.15,0.747,0.044
42.32,-0.201,1.024,0.21
42.33,-0.275,0.807,-0.156
42.34,-0.323,1.131,-0.154
42.35,-0.051,0.989,0.095
42.36,-0.092,0.974,0.136
42.37,-0.282,0.879,0.014
42.38,-0.341,0.972,-0.12
42.39,-0.164,1.212,-0.077
42.4,-0.125,0.719,0.097
42.41,-0.102,1.065,0.159
42.42,-0.316,0.843,-0.17
42.43,-0.29,1.056,-0.17
42.44,-0.084,1.078,0.105
42.45,-0.085,0.824,0.139
42.46,-0.272,0.978,0.016
42.47,-0.414,0.927,-0.105
42.48,-0.162,1.237,-0.041
42.49,-0.2,0.735,0.136
42.5,-0.114,1.022,0.174
42.51,-0.29,0.934,-0.215
42.52,-0.267,0.977,-0.112
42.53,-0.074,1.172,0.072
42.54,-0.081,0.74,0.108
42.55,-0.253,1.028,-0.007
42.56,-0.327,0.951,-0.149
42.57,-0.121,1.202,-0.083
42.58,-0.199,0.749,0.148
42.59,-0.078,0.964,0.168
42.6,-0.398,0.956,-0.201
42.61,-0.279,0.868,-0.051
42.62,-0.072,1.282,0.048
42.63,-0.077,0.647,0.067
42.64,-0.312,1.082,0.03
42.65,-0.348,0.921,-0.159
42.66,-0.121,1.124,-0.05
42.67,-0.226,0.844,0.14
42.68,-0.084,0.889,0.144
42.69,-0.349,1.023,-0.201
42.7,-0.255,0.854,-0.033
42.71,-0.046,1.301,0.017
42.72,-0.083,0.593,0.097
42.73,-0.317,1.075,0.045
42.74,-0.245,0.861,-0.22
42.75,-0.181,1.122,-0.061
42.76,-0.095,0.82,0.169
42.77,-0.073,0.916,0.056
42.78,-0.412,0.986,-0.202
42.79,-0.135,0.952,-0.044
42.8,-0.147,1.255,0.039
42.81,-0.115,0.556,0.144
42.82,-0.325,1.176,-0.004
42.83,-0.292,0.906,-0.241
42.84,-0.154,1.054,-0.007
42.85,-0.089,0.909,0.18
42.86,-0.189,0.842,0.088
42.87,-0.365,1.058,-0.192
42.88,-0.131,0.919,-0.077
42.89,-0.152,1.26,0.018
42.9,-0.095,0.569,0.153
42.91,-0.233,1.14,-0.0
42.92,-0.351,0.974,-0.218
42.93,-0.111,1.012,0.022
42.94,-0.172,1.015,0.147
42.95,-0.074,0.749,0.078
42.96,-0.462,1.142,-0.168
42.97,-0.14,0.845,0.01
42.98,-0.189,1.272,0.052
42.99,-0.067,0.596,0.142
43.0,-0.317,1.108,-0.02
43.01,-0.343,1.004,-0.217
43.02,-0.162,0.913,0.025
43.03,-0.042,1.118,0.12
43.04,-0.158,0.672,0.083
43.05,-0.464,1.178,-0.173
43.06,-0.01,0.867,-0.091
43.07,-0.133,1.169,0.038
43.08,-0.08,0.699,0.201
43.09,-0.354,1.039,-0.026
43.1,-0.275,0.998,-0.209
43.11,-0.15,0.872,0.06
43.12,-0.076,1.176,0.157
43.13,-0.067,0.661,0.036
43.14,-0.495,1.214,-0.148
43.15,-0.101,0.912,-0.066
43.16,-0.168,1.11,0.053
43.17,-0.117,0.752,0.182
43.18,-0.292,0.912,-0.084
43.19,-0.304,1.133,-0.19
43.2,-0.138,0.854,0.073
43.21,-0.15,1.208,0.177
43.22,-0.063,0.652,0.086
43.23,-0.475,1.21,-0.187
43.24,-0.097,0.964,-0.038
43.25,-0.209,1.007,0.08
43.26,-0.152,0.825,0.207
43.27,-0.296,0.86,-0.089
43.28,-0.301,1.182,-0.173
43.29,-0.185,0.845,0.123
43.3,-0.05,1.172,0.115
43.31,-0.134,0.672,0.019
43.32,-0.451,1.131,-0.157
43.33,-0.073,1.059,-0.083
43.34,-0.189,0.896,0.046
43.35,-0.161,0.946,0.205
43.36,-0.296,0.787,-0.132
43.37,-0.294,1.211,-0.163
43.38,-0.111,0.912,0.099
43.39,-0.024,1.118,0.06
43.4,-0.175,0.732,0.025
43.41,-0.399,1.103,-0.124
43.42,-0.125,1.137,-0.063
43.43,-0.176,0.812,0.074
43.44,-0.152,0.995,0.157
43.45,-0.266,0.781,-0.12
43.46,-0.32,1.186,-0.121
43.47,-0.136,0.912,0.073
43.48,-0.069,1.058,0.109
43.49,-0.173,0.786,-0.007
43.5,-0.372,1.01,-0.139
43.51,-0.127,1.258,-0.09
43.52,-0.113,0.718,0.05
43.53,-0.128,1.051,0.202
43.54,-0.338,0.838,-0.151
43.55,-0.201,1.153,-0.116
43.56,-0.096,1.002,0.098
43.57,-0.181,0.951,0.121
43.58,-0.195,0.815,0.028
43.59,-0.316,1.123,-0.194
43.6,-0.185,1.054,-0.063
43.61,-0.143,0.769,0.155
43.62,-0.074,1.084,0.128
43.63,-0.394,0.732,-0.186
43.64,-0.248,1.163,-0.025
43.65,-0.135,0.992,0.069
43.66,-0.133,0.838,0.093
43.67,-0.241,0.917,0.006
43.68,-0.317,1.05,-0.186
43.69,-0.153,1.099,-0.046
43.7,-0.159,0.771,0.149
43.71,-0.135,1.088,0.119
43.72,-0.311,0.776,-0.224
43.73,-0.254,1.133,-0.039
43.74,-0.061,1.031,0.04
43.75,-0.133,0.774,0.122
43.76,-0.253,1.0,0.028
43.77,-0.341,0.954,-0.165
43.78,-0.16,1.136,-0.032
43.79,-0.189,0.731,0.163
43.8,-0.13,1.053,0.145
43.81,-0.385,0.865,-0.187
43.82,-0.295,1.041,-0.03
43.83,-0.046,1.103,0.017
43.84,-0.079,0.694,0.127
43.85,-0.318,1.107,0.03
43.86,-0.298,0.926,-0.21
43.87,-0.125,1.116,-0.058
43.88,-0.177,0.799,0.196
43.89,-0.137,0.993,0.081
43.9,-0.331,0.934,-0.203
43.91,-0.193,0.99,-0.075
43.92,-0.068,1.156,0.044
43.93,-0.044,0.623,0.15
43.94,-0.389,1.131,-0.001
43.95,-0.237,0.858,-0.242
43.96,-0.16,1.125,-0.037
43.97,-0.179,0.811,0.178
43.98,-0.062,0.92,0.118
43.99,-0.43,1.068,-0.168
44.0,-0.238,0.875,-0.072
44.01,-0.104,1.227,0.025
44.02,-0.08,0.618,0.151
44.03,-0.323,1.135,-0.005
44.04,-0.303,0.877,-0.234
44.05,-0.207,1.081,0.005
44.06,-0.083,0.67,0.109
44.07,-0.546,1.141,-0.172
44.08,-0.203,0.941,-0.048
44.09,-0.125,1.096,0.058
44.1,-0.126,0.845,0.144
44.11,-0.261,0.828,0.018
44.12,-0.411,1.265,-0.182
44.13,-0.113,0.751,-0.026
44.14,-0.057,1.184,0.128
44.15,-0.092,0.693,0.089
44.16,-0.457,1.059,-0.159
44.17,-0.192,1.075,-0.058
44.18,-0.129,1.086,0.057
44.19,-0.146,0.801,0.188
44.2,-0.263,0.906,-0.098
44.21,-0.329,1.148,-0.174
44.22,-0.157,0.784,0.067
44.23,-0.101,1.216,0.164
44.24,-0.115,0.628,0.082
44.25,-0.47,1.122,-0.172
44.26,-0.061,1.007,-0.068
44.27,-0.176,1.039,0.049
44.28,-0.118,0.869,0.172
44.29,-0.263,0.825,-0.039
44.3,-0.342,1.23,-0.211
44.31,-0.19,0.824,0.051
44.32,-0.069,1.209,0.134
44.33,-0.106,0.665,0.028
44.34,-0.506,1.054,-0.127
44.35,-0.004,1.086,-0.103
44.36,-0.115,0.906,0.035
44.37,-0.208,0.968,0.226
44.38,-0.199,0.79,-0.09
44.39,-0.382,1.195,-0.184
44.4,-0.164,0.856,0.085
44.41,-0.079,1.128,0.126
44.42,-0.135,0.74,0.047
44.43,-0.429,1.022,-0.146
44.44,-0.149,1.192,-0.061
44.45,-0.071,0.846,0.073
44.46,-0.156,0.988,0.163
44.47,-0.264,0.751,-0.051
44.48,-0.34,1.207,-0.179
44.49,-0.169,0.906,0.015
44.5,-0.124,1.01,0.156
44.51,-0.145,0.843,0.049
44.52,-0.409,0.922,-0.127
44.53,-0.114,1.236,-0.076
44.54,-0.088,0.769,0.079
44.55,-0.16,1.007,0.154
44.56,-0.243,0.839,-0.096
44.57,-0.371,1.103,-0.166
44.58,-0.17,0.951,0.022
44.59,-0.035,0.943,0.135
44.6,-0.159,0.939,0.029
44.61,-0.459,0.854,-0.116
44.62,-0.082,1.271,-0.064
44.63,-0.19,0.746,0.067
44.64,-0.2,0.943,0.239
44.65,-0.214,0.937,-0.086
44.66,-0.379,1.006,-0.159
44.67,-0.16,1.1,0.062
44.68,-0.038,0.89,0.128
44.69,-0.18,0.988,0.044
44.7,-0.432,0.843,-0.143
44.71,-0.143,1.273,-0.052
44.72,-0.131,0.802,0.075
44.73,-0.221,0.928,0.18
44.74,-0.184,1.018,-0.122
44.75,-0.336,0.933,-0.142
44.76,-0.184,1.097,0.024
44.77,0.001,0.822,0.153
44.78,-0.191,0.995,0.028
44.79,-0.383,0.8,-0.133
44.8,-0.081,1.224,-0.101
44.81,-0.114,0.866,0.022
44.82,-0.191,0.811,0.216
44.83,-0.214,1.081,-0.072
44.84,-0.314,0.893,-0.196
44.85,-0.198,1.137,0.034
44.86,-0.003,0.818,0.145
44.87,-0.137,1.008,0.024
44.88,-0.428,0.849,-0.131
44.89,-0.008,1.144,-0.072
44.9,-0.181,0.917,0.035
44.91,-0.159,0.714,0.199
44.92,-0.254,1.182,-0.074
44.93,-0.342,0.824,-0.175
44.94,-0.15,1.174,0.016
44.95,-0.065,0.808,0.173
44.96,-0.169,0.979,0.032
44.97,-0.395,0.948,-0.167
44.98,-0.147,1.019,-0.089
44.99,-0.127,0.843,0.063
45.0,-0.169,0.874,0.219
45.01,-0.315,1.05,-0.141
45.02,-0.282,0.813,-0.136
45.03,-0.267,1.262,0.073
45.04,0.015,0.734,0.124
45.05,-0.184,1.017,-0.006
45.06,-0.405,0.895,-0.164
45.07,-0.022,1.121,-0.086
45.08,-0.145,0.935,0.073
45.09,-0.214,0.764,0.232
45.1,-0.309,1.176,-0.141
45.11,-0.26,0.787,-0.174
45.12,-0.198,1.281,0.153
45.13,-0.014,0.759,0.139
45.14,-0.273,0.915,0.049
45.15,-0.393,0.992,-0.159
45.16,-0.032,1.045,-0.091
45.17,-0.18,1.005,0.09
45.18,-0.165,0.685,0.208
45.19,-0.302,1.221,-0.161
45.2,-0.302,0.799,-0.145
45.21,-0.282,1.218,0.158
45.22,-0.015,0.798,0.124
45.23,-0.261,0.903,0.013
45.24,-0.36,1.108,-0.161
45.25,-0.077,0.919,-0.082
45.26,-0.194,1.101,0.111
45.27,-0.149,0.692,0.18
45.28,-0.359,1.232,-0.138
45.29,-0.277,0.794,-0.168
45.3,-0.243,1.197,0.123
45.31,-0.024,0.901,0.14
45.32,-0.249,0.795,0.028
45.33,-0.464,1.164,-0.125
45.34,-0.03,0.912,-0.059
45.35,-0.179,1.119,0.047
45.36,-0.066,0.673,0.23
45.37,-0.375,1.193,-0.183
45.38,-0.237,0.814,-0.139
45.39,-0.112,1.169,0.111
45.4,-0.113,0.967,0.149
45.41,-0.229,0.735,0.003
45.42,-0.453,1.25,-0.126
45.43,-0.053,0.848,-0.068
45.44,-0.176,1.149,0.081
45.45,-0.04,0.709,0.18
45.46,-0.437,1.099,-0.183
45.47,-0.246,0.938,-0.155
45.48,0.03,1.084,0.067
45.49,-0.129,1.012,0.107
45.5,-0.259,0.658,0.026
45.51,-0.291,1.319,-0.168
45.52,-0.159,0.825,-0.045
45.53,-0.197,1.09,0.129
45.54,-0.013,0.783,0.133
45.55,-0.419,0.968,-0.187
45.56,-0.25,1.057,-0.107
45.57,-0.045,1.008,0.077
45.58,-0.205,1.031,0.152
45.59,-0.22,0.657,0.06
45.6,-0.391,1.349,-0.226
45.61,-0.124,0.849,-0.036
45.62,-0.132,1.044,0.143
45.63,-0.127,0.874,0.118
45.64,-0.405,0.899,-0.161
45.65,-0.208,1.134,-0.119
45.66,-0.028,0.916,0.09
45.67,-0.147,1.005,0.152
45.68,-0.257,0.681,0.02
45.69,-0.347,1.262,-0.177
45.7,-0.128,0.922,-0.035
45.71,-0.203,0.908,0.18
45.72,-0.083,0.969,0.104
45.73,-0.385,0.816,-0.244
45.74,-0.252,1.201,-0.035
45.75,-0.009,0.925,0.043
45.76,-0.176,0.959,0.139
45.77,-0.285,0.772,0.03
45.78,-0.34,1.197,-0.214
45.79,-0.089,0.974,-0.055
45.8,-0.143,1.031,0.153
45.81,-0.157,0.833,0.055
45.82,-0.426,0.92,-0.151
45.83,-0.155,1.233,-0.041
45.84,-0.079,0.798,0.078
45.85,-0.16,1.015,0.212
45.86,-0.268,0.771,-0.085
45.87,-0.356,1.181,-0.146
45.88,-0.092,1.01,0.022
45.89,-0.164,0.919,0.156
45.9,-0.174,0.908,0.029
45.91,-0.367,0.898,-0.2
45.92,-0.144,1.26,-0.054
45.93,-0.104,0.759,0.077
45.94,-0.191,1.015,0.18
45.95,-0.277,0.867,-0.098
45.96,-0.331,1.039,-0.152
45.97,-0.132,1.062,0.094
45.98,-0.062,0.86,0.152
45.99,-0.247,0.998,-0.005
46.0,-0.4,0.822,-0.162
46.01,-0.153,1.268,-0.033
46.02,-0.115,0.777,0.13
46.03,-0.166,0.935,0.154
46.04,-0.281,0.988,-0.167
46.05,-0.307,0.945,-0.147
46.06,-0.102,1.136,0.067
46.07,-0.057,0.74,0.135
46.08,-0.296,1.047,0.056
46.09,-0.428,0.887,-0.154
46.1,-0.084,1.219,-0.061
46.11,-0.133,0.819,0.102
46.12,-0.158,0.896,0.207
46.13,-0.344,1.073,-0.182
46.14,-0.278,0.839,-0.137
46.15,-0.069,1.218,0.078
46.16,-0.082,0.673,0.147
46.17,-0.374,1.068,0.008
46.18,-0.301,0.913,-0.218
46.19,-0.073,1.105,-0.024
46.2,-0.243,0.891,0.217
46.21,-0.096,0.794,0.1
46.22,-0.445,1.168,-0.18
46.23,-0.215,0.84,-0.021
46.24,-0.063,1.24,0.071
46.25,-0.099,0.647,0.104
46.26,-0.319,1.086,-0.016
46.27,-0.298,0.964,-0.204
46.28,-0.155,1.002,0.059
46.29,-0.111,1.02,0.147
46.3,-0.172,0.684,0.061
46.31,-0.445,1.221,-0.17
46.32,-0.026,0.906,-0.076
46.33,-0.202,1.144,0.076
46.34,-0.135,0.725,0.196
46.35,-0.334,1.072,-0.146
46.36,-0.261,0.936,-0.219
46.37,-0.165,0.992,0.136
46.38,-0.084,1.124,0.118
46.39,-0.198,0.625,0.025
46.4,-0.468,1.237,-0.204
46.41,-0.007,0.9,-0.063
46.42,-0.158,1.086,0.091
46.43,-0.188,0.772,0.169
46.44,-0.32,0.945,-0.138
46.45,-0.257,1.083,-0.181
46.46,-0.098,0.958,0.141
46.47,-0.118,1.12,0.12
46.48,-0.215,0.591,0.009
46.49,-0.378,1.27,-0.171
46.5,-0.109,0.968,-0.082
46.51,-0.176,0.947,0.132
46.52,-0.163,0.889,0.153
46.53,-0.337,0.892,-0.215
46.54,-0.265,1.114,-0.14
46.55,-0.07,0.937,0.15
46.56,-0.106,1.076,0.082
46.57,-0.263,0.688,-0.009
46.58,-0.382,1.209,-0.168
46.59,-0.09,1.008,-0.061
46.6,-0.137,0.868,0.137
46.61,-0.109,0.986,0.107
46.62,-0.479,0.966,-0.193
46.63,-0.205,1.125,0.016
46.64,-0.088,0.92,0.113
46.65,-0.185,1.011,0.106
46.66,-0.272,0.739,-0.03
46.67,-0.333,1.262,-0.141
46.68,-0.172,0.918,0.037
46.69,-0.023,0.991,0.102
46.7,-0.179,0.886,-0.005
46.71,-0.459,0.88,-0.114
46.72,-0.073,1.237,-0.099
46.73,-0.158,0.734,0.111
46.74,-0.154,1.042,0.188
46.75,-0.352,0.799,-0.141
46.76,-0.294,1.104,-0.125
46.77,-0.072,1.099,0.092
46.78,-0.104,0.777,0.09
46.79,-0.251,1.02,0.039
46.8,-0.364,0.932,-0.186
46.81,-0.16,1.18,-0.058
46.82,-0.126,0.766,0.195
46.83,-0.126,1.027,0.098
46.84,-0.387,0.873,-0.192
46.85,-0.202,1.041,-0.063
46.86,-0.045,1.161,0.043
46.87,-0.143,0.66,0.126
46.88,-0.284,1.102,0.015
46.89,-0.302,0.942,-0.267
46.9,-0.146,1.129,-0.006
46.91,-0.108,0.826,0.196
46.92,-0.146,0.927,0.063
46.93,-0.449,0.973,-0.185
46.94,-0.047,1.0,-0.068
46.95,-0.124,1.141,0.046
46.96,-0.197,0.62,0.201
46.97,-0.181,1.181,-0.118
46.98,-0.33,0.87,-0.203
46.99,-0.178,1.121,0.11
47.0,-0.036,0.876,0.141
47.01,-0.214,0.816,0.05
47.02,-0.436,1.162,-0.155
47.03,-0.109,0.89,-0.069
47.04,-0.209,1.115,0.108
47.05,-0.14,0.696,0.265
47.06,-0.403,1.142,-0.166
47.07,-0.257,0.802,-0.174
47.08,-0.122,1.219,0.11
47.09,-0.083,0.921,0.118
47.1,-0.258,0.743,0.037
47.11,-0.401,1.222,-0.14
47.12,-0.083,0.85,-0.092
47.13,-0.277,1.134,0.144
47.14,-0.021,0.71,0.136
47.15,-0.404,1.063,-0.194
47.16,-0.232,0.926,-0.092
47.17,-0.041,1.132,0.068
47.18,-0.109,0.894,0.119
47.19,-0.251,0.72,0.022
47.2,-0.336,1.3,-0.234
47.21,-0.074,0.823,-0.039
47.22,-0.186,1.203,0.167
47.23,-0.1,0.74,0.092
47.24,-0.464,1.018,-0.173
47.25,-0.216,1.128,-0.035
47.26,-0.058,0.975,0.059
47.27,-0.168,0.904,0.145
47.28,-0.263,0.759,-0.002
47.29,-0.348,1.323,-0.202
47.3,-0.135,0.781,-0.043
47.31,-0.131,1.096,0.198
47.32,-0.161,0.821,0.103
47.33,-0.469,0.937,-0.179
47.34,-0.105,1.169,-0.063
47.35,-0.094,0.857,0.089
47.36,-0.24,1.003,0.214
47.37,-0.155,0.745,-0.119
47.38,-0.372,1.18,-0.184
47.39,-0.172,0.954,0.112
47.4,-0.136,1.021,0.111
47.41,-0.171,0.842,0.02
47.42,-0.37,0.961,-0.124
47.43,-0.188,1.104,-0.039
47.44,-0.227,0.791,0.122
47.45,-0.083,1.037,0.156
47.46,-0.293,0.759,-0.138
47.47,-0.339,1.214,-0.129
47.48,-0.023,0.974,0.021
47.49,-0.127,0.91,0.137
47.5,-0.225,0.868,0.082
47.51,-0.398,1.039,-0.175
47.52,-0.162,1.098,-0.018
47.53,-0.188,0.817,0.167
47.54,-0.14,1.045,0.076
47.55,-0.266,0.712,-0.19
47.56,-0.242,1.219,-0.069
47.57,-0.13,1.004,0.04
47.58,-0.15,0.727,0.118
47.59,-0.163,0.962,0.055
47.6,-0.377,1.07,-0.187
47.61,-0.125,1.124,-0.035
47.62,-0.142,0.729,0.189
47.63,-0.182,1.068,0.144
47.64,-0.36,0.8,-0.165
47.65,-0.216,1.075,-0.075
47.66,-0.093,1.129,0.037
47.67,-0.1,0.716,0.103
47.68,-0.265,1.052,0.029
47.69,-0.344,0.925,-0.225
47.7,-0.102,1.141,-0.043
47.71,-0.106,0.77,0.132
47.72,-0.198,0.999,0.122
47.73,-0.355,0.907,-0.198
47.74,-0.219,0.996,-0.096
47.75,-0.069,1.163,0.048
47.76,-0.1,0.677,0.137
47.77,-0.297,1.089,-0.007
47.78,-0.288,0.905,-0.184
47.79,-0.128,1.135,0.016
47.8,-0.121,0.796,0.153
47.81,-0.154,0.937,0.076
47.82,-0.418,1.016,-0.19
47.83,-0.203,0.904,-0.059
47.84,-0.084,1.248,0.029
47.85,-0.072,0.6,0.124
47.86,-0.303,1.127,-0.014
47.87,-0.316,0.901,-0.175
47.88,-0.116,1.121,-0.002
47.89,-0.109,0.916,0.187
47.9,-0.194,0.828,0.107
47.91,-0.4,1.098,-0.189
47.92,-0.122,0.892,-0.091
47.93,-0.144,1.217,0.03
47.94,-0.085,0.665,0.177
47.95,-0.328,1.101,-0.074
47.96,-0.292,0.908,-0.161
47.97,-0.069,1.096,0.025
47.98,-0.151,0.983,0.156
47.99,-0.196,0.713,0.09
48.0,-0.382,1.23,-0.203
48.01,-0.15,0.868,-0.068
48.02,-0.181,1.189,0.111
48.03,-0.136,0.667,0.197
48.04,-0.361,1.058,-0.095
48.05,-0.334,0.956,-0.11
48.06,-0.109,1.012,0.036
48.07,-0.155,1.089,0.121
48.08,-0.112,0.646,0.047
48.09,-0.381,1.245,-0.193
48.1,-0.158,0.881,-0.016
48.11,-0.162,1.15,0.106
48.12,-0.14,0.761,0.205
48.13,-0.38,0.988,-0.077
48.14,-0.294,1.019,-0.169
48.15,-0.095,0.943,0.065
48.16,-0.114,1.173,0.116
48.17,-0.141,0.593,0.017
48.18,-0.428,1.236,-0.208
48.19,-0.102,0.952,-0.022
48.2,-0.218,1.042,0.153
48.21,-0.185,0.802,0.17
48.22,-0.289,0.922,-0.138
48.23,-0.277,1.154,-0.156
48.24,-0.193,0.867,0.138
48.25,-0.096,1.017,0.113
48.26,-0.243,0.683,-0.005
48.27,-0.398,1.326,-0.143
48.28,-0.111,0.858,-0.038
48.29,-0.261,1.049,0.142
48.3,-0.052,0.815,0.163
48.31,-0.437,1.002,-0.18
48.32,-0.251,1.032,-0.107
48.33,-0.021,0.982,0.1
