t,ax,ay,az
0.0,-0.301,0.912,-0.211
0.01,-0.264,1.194,0.088
0.02,-0.008,0.73,0.123
0.03,-0.226,1.025,-0.041
0.04,-0.411,0.874,-0.146
0.05,-0.104,1.163,-0.077
0.06,-0.165,0.903,0.122
0.07,-0.143,0.78,0.201
0.08,-0.367,1.087,-0.164
0.09,-0.276,0.795,-0.141
0.1,-0.039,1.364,0.087
0.11,-0.163,0.601,0.133
0.12,-0.225,1.019,0.011
0.13,-0.335,1.053,-0.173
0.14,-0.2,0.953,-0.011
0.15,-0.171,0.976,0.178
0.16,-0.109,0.761,0.049
0.17,-0.427,1.152,-0.199
0.18,-0.205,0.867,-0.026
0.19,-0.096,1.244,0.053
0.2,-0.119,0.675,0.149
0.21,-0.273,1.021,-0.026
0.22,-0.371,1.007,-0.215
0.23,-0.146,0.954,0.038
0.24,-0.048,1.072,0.13
0.25,-0.182,0.647,-0.004
0.26,-0.448,1.237,-0.148
0.27,-0.077,0.944,-0.073
0.28,-0.215,1.093,0.115
0.29,-0.133,0.75,0.189
0.3,-0.313,0.989,-0.172
0.31,-0.319,1.029,-0.182
0.32,0.005,1.006,0.09
0.33,-0.137,1.014,0.101
0.34,-0.239,0.642,0.014
0.35,-0.357,1.314,-0.207
0.36,-0.094,0.787,-0.029
0.37,-0.123,1.158,0.197
0.38,-0.111,0.675,0.099
0.39,-0.518,1.122,-0.168
0.4,-0.115,1.049,-0.096
0.41,-0.079,0.994,0.054
0.42,-0.171,0.922,0.235
0.43,-0.224,0.801,-0.086
0.44,-0.431,1.218,-0.178
0.45,-0.104,0.852,0.116
0.46,-0.111,1.139,0.094
0.47,-0.15,0.69,-0.012
0.48,-0.483,1.2,-0.164
0.49,-0.094,1.003,-0.069
0.5,-0.16,0.886,0.131
0.51,-0.143,1.018,0.178
0.52,-0.327,0.761,-0.165
0.53,-0.326,1.229,-0.13
0.54,0.039,0.912,0.045
0.55,-0.141,0.989,0.082
0.56,-0.25,0.781,0.022
0.57,-0.318,1.124,-0.212
0.58,-0.137,1.05,-0.028
0.59,-0.125,0.836,0.227
0.6,-0.145,1.019,0.048
0.61,-0.412,0.743,-0.195
0.62,-0.139,1.331,-0.055
0.63,-0.062,0.822,0.073
0.64,-0.23,0.912,0.168
0.65,-0.187,0.937,-0.111
0.66,-0.32,1.011,-0.194
0.67,-0.188,1.156,0.149
0.68,-0.017,0.776,0.143
0.69,-0.313,1.024,0.004
0.7,-0.38,0.861,-0.1
0.71,-0.213,1.262,-0.056
0.72,-0.26,1.089,-0.002
0.73,-0.354,0.927,-0.259
0.74,-0.148,1.109,-0.011
0.75,-0.006,0.829,0.181
0.76,-0.214,0.983,0.042
0.77,-0.427,0.904,-0.176
0.78,-0.066,1.108,-0.082
0.79,-0.093,0.982,0.076
0.8,-0.176,0.671,0.215
0.81,-0.336,1.19,-0.137
0.82,-0.222,0.797,-0.197
0.83,-0.075,1.29,0.145
0.84,-0.099,0.748,0.121
0.85,-0.349,0.936,0.065
0.86,-0.288,1.075,-0.2
0.87,-0.182,0.939,-0.031
0.88,-0.222,1.025,0.241
0.89,-0.029,0.747,0.086
0.9,-0.427,1.159,-0.193
0.91,-0.27,0.842,-0.001
0.92,-0.071,1.256,0.064
0.93,-0.119,0.712,0.107
0.94,-0.283,0.924,0.025
0.95,-0.365,1.096,-0.215
0.96,-0.193,0.893,0.037
0.97,-0.097,1.153,0.148
0.98,-0.132,0.596,0.033
0.99,-0.484,1.272,-0.102
1.0,-0.031,0.991,-0.088
1.01,-0.194,1.057,0.047
1.02,-0.065,0.819,0.237
1.03,-0.345,0.919,-0.073
1.04,-0.475,1.066,-0.127
1.05,0.092,0.954,0.06
1.06,-0.163,1.11,0.071
1.07,-0.281,0.663,0.095
1.08,-0.391,1.287,-0.188
1.09,-0.183,0.772,-0.022
1.1,-0.171,1.179,0.207
1.11,-0.026,0.697,0.071
1.12,-0.54,1.0,-0.123
1.13,-0.108,1.131,-0.089
1.14,-0.12,0.922,0.064
1.15,-0.215,0.95,0.159
1.16,-0.222,0.718,-0.032
1.17,-0.405,1.289,-0.189
1.18,-0.122,0.877,0.077
1.19,-0.116,1.177,0.106
1.2,-0.124,0.719,0.041
1.21,-0.375,1.035,-0.108
1.22,-0.137,1.216,-0.105
1.23,-0.049,0.76,0.067
1.24,-0.236,1.05,0.18
1.25,-0.303,0.712,-0.099
1.26,-0.378,1.209,-0.175
1.27,-0.083,0.942,0.134
1.28,-0.146,1.049,0.13
1.29,-0.224,0.783,-0.006
1.3,-0.382,1.054,-0.125
1.31,-0.155,1.217,-0.053
1.32,-0.149,0.674,0.152
1.33,-0.18,1.111,0.204
1.34,-0.405,0.773,-0.194
1.35,-0.353,1.153,-0.092
1.36,0.072,1.006,0.088
1.37,-0.184,0.885,0.11
1.38,-0.293,0.94,0.035
1.39,-0.366,1.012,-0.225
1.4,-0.144,1.134,-0.025
1.41,-0.051,0.782,0.227
1.42,-0.214,1.035,0.05
1.43,-0.397,0.799,-0.169
1.44,-0.081,1.23,-0.111
1.45,-0.148,0.852,0.061
1.46,-0.14,0.826,0.239
1.47,-0.363,1.057,-0.09
1.48,-0.244,0.783,-0.237
1.49,-0.084,1.339,0.136
1.5,-0.08,0.702,0.107
1.51,-0.278,1.02,0.062
1.52,-0.324,0.953,-0.187
1.53,-0.185,1.124,-0.085
1.54,-0.157,0.872,0.086
1.55,-0.1,0.801,0.131
1.56,-0.354,1.11,-0.15
1.57,-0.32,0.845,-0.073
1.58,-0.122,1.256,0.084
1.59,-0.049,0.593,0.111
1.6,-0.315,1.072,0.039
1.61,-0.275,0.997,-0.245
1.62,-0.117,0.983,-0.037
1.63,-0.177,0.946,0.196
1.64,-0.073,0.723,0.097
1.65,-0.469,1.176,-0.163
1.66,-0.185,0.872,-0.007
1.67,-0.098,1.265,0.057
1.68,-0.174,0.638,0.122
1.69,-0.153,1.049,-0.09
1.7,-0.293,1.037,-0.225
1.71,-0.197,0.984,0.078
1.72,-0.097,1.077,0.11
1.73,-0.159,0.632,0.031
1.74,-0.467,1.271,-0.162
1.75,-0.025,0.9,-0.107
1.76,-0.24,1.088,0.101
1.77,-0.157,0.747,0.217
1.78,-0.333,1.006,-0.192
1.79,-0.275,1.008,-0.163
1.8,-0.132,1.052,0.15
1.81,-0.123,1.069,0.093
1.82,-0.259,0.607,0.012
1.83,-0.426,1.284,-0.14
1.84,-0.016,0.903,-0.069
1.85,-0.246,1.07,0.171
1.86,-0.024,0.829,0.15
1.87,-0.51,0.955,-0.185
1.88,-0.252,1.107,-0.068
1.89,0.06,0.936,0.086
1.9,-0.289,0.989,0.107
1.91,-0.16,0.748,0.026
1.92,-0.39,1.257,-0.206
1.93,-0.173,0.801,0.139
1.94,-0.075,1.167,0.091
1.95,-0.128,0.638,-0.016
1.96,-0.493,1.167,-0.042
1.97,-0.161,1.088,-0.082
1.98,-0.189,0.833,0.108
1.99,-0.126,1.002,0.22
2.0,-0.321,0.811,-0.152
2.01,-0.341,1.191,-0.148
2.02,0.023,0.914,0.093
2.03,-0.119,0.99,0.078
2.04,-0.273,0.75,0.045
2.05,-0.338,1.187,-0.201
2.06,-0.157,1.012,-0.088
2.07,-0.121,0.82,0.216
2.08,-0.109,1.019,0.039
2.09,-0.357,0.762,-0.186
2.1,-0.218,1.333,-0.051
2.11,-0.121,0.874,0.092
2.12,-0.19,0.919,0.146
2.13,-0.179,0.897,-0.022
2.14,-0.452,1.027,-0.214
2.15,-0.16,1.054,0.03
2.16,-0.042,0.926,0.127
2.17,-0.274,0.982,0.073
2.18,-0.341,0.795,-0.11
2.19,-0.104,1.349,-0.116
2.2,-0.167,0.717,0.088
2.21,-0.122,0.902,0.178
2.22,-0.25,1.038,-0.149
2.23,-0.354,0.886,-0.162
2.24,-0.111,1.225,0.112
2.25,-0.105,0.761,0.112
2.26,-0.305,1.015,0.022
2.27,-0.256,0.929,-0.153
2.28,-0.236,1.219,-0.049
2.29,-0.225,0.731,0.154
2.3,-0.002,0.922,0.146
2.31,-0.442,1.008,-0.214
2.32,-0.222,0.841,-0.06
2.33,-0.013,1.333,0.031
2.34,-0.102,0.566,0.14
2.35,-0.255,1.121,0.03
2.36,-0.272,0.961,-0.228
2.37,-0.222,1.057,-0.01
2.38,-0.119,0.913,0.205
2.39,-0.144,0.84,0.056
2.4,-0.464,1.089,-0.228
2.41,-0.086,0.915,-0.023
2.42,-0.136,1.243,0.064
2.43,-0.154,0.542,0.159
2.44,-0.271,1.155,-0.011
2.45,-0.336,0.927,-0.233
2.46,-0.228,1.012,0.059
2.47,-0.001,1.018,0.107
2.48,-0.204,0.722,0.023
2.49,-0.452,1.186,-0.149
2.5,-0.078,0.883,-0.115
2.51,-0.154,1.102,0.052
2.52,-0.021,0.746,0.194
2.53,-0.392,1.038,-0.163
2.54,-0.281,0.854,-0.193
2.55,0.046,1.175,0.084
2.56,-0.125,0.958,0.048
2.57,-0.276,0.67,0.048
2.58,-0.301,1.333,-0.201
2.59,-0.132,0.817,-0.043
2.6,-0.216,1.092,0.214
2.61,-0.016,0.782,0.116
2.62,-0.435,1.026,-0.211
2.63,-0.287,1.0,-0.049
2.64,0.005,1.017,0.044
2.65,-0.204,0.964,0.101
2.66,-0.199,0.737,-0.008
2.67,-0.37,1.309,-0.237
2.68,-0.156,0.787,0.049
2.69,-0.056,1.225,0.165
2.7,-0.103,0.696,0.077
2.71,-0.472,1.025,-0.114
2.72,-0.096,1.199,-0.095
2.73,-0.084,0.831,0.041
2.74,-0.096,0.933,0.211
2.75,-0.338,0.815,-0.169
2.76,-0.294,1.117,-0.153
2.77,-0.011,0.972,0.08
2.78,-0.205,1.09,0.1
2.79,-0.19,0.64,0.032
2.8,-0.333,1.277,-0.186
2.81,-0.153,0.989,-0.049
2.82,-0.196,0.894,0.153
2.83,-0.053,0.97,0.091
2.84,-0.376,0.774,-0.189
2.85,-0.31,1.251,-0.062
2.86,0.006,0.887,0.101
2.87,-0.188,0.96,0.08
2.88,-0.266,0.763,0.07
2.89,-0.269,1.199,-0.256
2.9,-0.149,0.949,-0.043
2.91,-0.073,0.892,0.188
2.92,-0.103,0.99,0.055
2.93,-0.47,0.779,-0.147
2.94,-0.115,1.347,-0.089
2.95,-0.064,0.76,0.086
2.96,-0.212,0.985,0.208
2.97,-0.219,0.866,-0.136
2.98,-0.297,0.985,-0.229
2.99,-0.151,1.13,0.098
3.0,-0.047,0.806,0.12
3.01,-0.221,0.983,0.035
3.02,-0.368,0.872,-0.138
3.03,-0.127,1.301,-0.087
3.04,-0.103,0.729,0.1
3.05,-0.15,0.97,0.169
3.06,-0.335,0.954,-0.146
3.07,-0.301,0.952,-0.099
3.08,-0.079,1.208,0.09
3.09,-0.105,0.682,0.114
3.1,-0.292,1.072,0.007
3.11,-0.26,0.958,-0.192
3.12,-0.115,1.147,-0.032
3.13,-0.182,0.75,0.175
3.14,-0.177,0.933,0.09
3.15,-0.356,1.007,-0.184
3.16,-0.291,0.958,-0.019
3.17,-0.042,1.212,0.057
3.18,-0.124,0.59,0.068
3.19,-0.26,1.138,-0.008
3.2,-0.303,0.887,-0.219
3.21,-0.143,1.133,0.028
3.22,-0.029,0.941,0.16
3.23,-0.19,0.803,0.042
3.24,-0.454,1.075,-0.126
3.25,-0.062,0.952,-0.101
3.26,-0.203,1.124,0.094
3.27,-0.059,0.665,0.185
3.28,-0.367,1.154,-0.122
3.29,-0.321,0.855,-0.159
3.3,-0.049,1.164,0.094
3.31,-0.139,0.862,0.116
3.32,-0.201,0.782,0.014
3.33,-0.383,1.251,-0.177
3.34,-0.135,0.856,-0.056
3.35,-0.195,1.118,0.139
3.36,-0.079,0.691,0.134
3.37,-0.43,1.087,-0.166
3.38,-0.294,0.948,-0.083
3.39,-0.047,1.093,0.091
3.4,-0.172,0.849,0.131
3.41,-0.24,0.775,0.063
3.42,-0.34,1.311,-0.256
3.43,-0.086,0.802,-0.024
3.44,-0.132,1.199,0.183
3.45,-0.074,0.643,0.094
3.46,-0.498,1.125,-0.168
3.47,-0.189,1.049,-0.028
3.48,-0.099,0.986,0.114
3.49,-0.23,0.917,0.181
3.5,-0.212,0.772,-0.053
3.51,-0.383,1.261,-0.201
3.52,-0.151,0.829,0.108
3.53,-0.055,1.19,0.131
3.54,-0.183,0.653,-0.001
3.55,-0.411,1.276,-0.173
3.56,-0.074,0.936,-0.076
3.57,-0.194,1.002,0.146
3.58,-0.102,0.911,0.17
3.59,-0.363,0.859,-0.17
3.6,-0.332,1.186,-0.097
3.61,0.047,0.921,0.084
3.62,-0.219,1.03,0.119
3.63,-0.252,0.693,0.026
3.64,-0.4,1.268,-0.185
3.65,-0.163,0.922,-0.022
3.66,-0.092,0.957,0.17
3.67,-0.088,0.888,0.025
3.68,-0.433,0.885,-0.121
3.69,-0.157,1.292,-0.051
3.7,-0.056,0.758,0.093
3.71,-0.252,1.035,0.21
3.72,-0.197,0.76,-0.1
3.73,-0.338,1.157,-0.199
3.74,-0.121,1.042,0.091
3.75,-0.067,0.861,0.157
3.76,-0.26,0.927,0.025
3.77,-0.38,0.923,-0.128
3.78,-0.122,1.259,-0.087
3.79,-0.204,0.7,0.141
3.8,-0.108,1.062,0.167
3.81,-0.284,0.84,-0.197
3.82,-0.308,1.053,-0.063
3.83,-0.047,1.106,0.095
3.84,-0.19,0.702,0.129
3.85,-0.284,1.08,0.029
3.86,-0.333,0.857,-0.218
3.87,-0.134,1.181,-0.028
3.88,-0.056,0.814,0.182
3.89,-0.135,0.95,0.019
3.9,-0.363,0.877,-0.157
3.91,-0.131,1.118,-0.081
3.92,-0.058,1.024,0.078
3.93,-0.139,0.669,0.176
3.94,-0.353,1.127,-0.091
3.95,-0.267,0.753,-0.221
3.96,-0.123,1.298,0.07
3.97,-0.093,0.777,0.118
3.98,-0.091,0.876,0.015
3.99,-0.434,1.102,-0.156
4.0,-0.095,0.981,-0.114
4.01,-0.139,1.019,0.095
4.02,-0.124,0.72,0.215
4.03,-0.481,1.108,-0.151
4.04,-0.285,0.732,-0.159
4.05,-0.001,1.356,0.057
4.06,-0.187,0.769,0.133
4.07,-0.189,0.868,0.023
4.08,-0.352,1.223,-0.191
4.09,-0.119,0.851,-0.049
4.1,-0.234,1.095,0.191
4.11,-0.073,0.689,0.076
4.12,-0.448,1.161,-0.194
4.13,-0.232,0.889,-0.054
4.14,-0.039,1.207,0.088
4.15,-0.152,0.763,0.118
4.16,-0.281,0.886,0.068
4.17,-0.358,1.204,-0.27
4.18,-0.084,0.805,0.014
4.19,-0.117,1.242,0.179
4.2,-0.134,0.659,0.056
4.21,-0.485,1.138,-0.13
4.22,-0.096,0.981,-0.111
4.23,-0.15,1.0,0.063
4.24,-0.152,0.898,0.207
4.25,-0.322,0.827,-0.096
4.26,-0.344,1.115,-0.203
4.27,0.059,0.948,0.095
4.28,-0.185,1.115,0.089
4.29,-0.144,0.654,0.038
4.3,-0.412,1.299,-0.187
4.31,-0.157,0.846,-0.103
4.32,-0.209,0.959,0.235
4.33,-0.112,0.96,0.074
4.34,-0.435,0.769,-0.202
4.35,-0.233,1.194,-0.119
4.36,0.025,0.922,0.086
4.37,-0.154,0.956,0.134
4.38,-0.154,0.739,0.005
4.39,-0.448,1.315,-0.234
4.4,-0.131,0.823,0.039
4.41,-0.102,1.156,0.188
4.42,-0.18,0.771,0.059
4.43,-0.449,0.974,-0.162
4.44,-0.072,1.276,-0.054
4.45,-0.142,0.759,0.069
4.46,-0.17,1.023,0.243
4.47,-0.267,0.745,-0.125
4.48,-0.37,1.172,-0.176
4.49,-0.047,0.973,0.132
4.5,-0.135,0.972,0.13
4.51,-0.311,0.848,0.039
4.52,-0.389,1.026,-0.119
4.53,-0.192,1.198,-0.077
4.54,-0.15,0.708,0.169
4.55,-0.115,1.123,0.132
4.56,-0.357,0.707,-0.205
4.57,-0.277,1.191,-0.082
4.58,0.01,1.034,0.07
4.59,-0.144,0.753,0.114
4.6,-0.252,1.021,0.078
4.61,-0.411,0.963,-0.232
4.62,-0.18,1.125,-0.004
4.63,-0.101,0.815,0.194
4.64,-0.187,0.982,0.017
4.65,-0.34,0.834,-0.183
4.66,-0.077,1.243,-0.107
4.67,-0.035,0.937,0.047
4.68,-0.187,0.746,0.177
4.69,-0.298,1.074,-0.081
4.7,-0.312,0.87,-0.174
4.71,-0.163,1.273,0.076
4.72,-0.088,0.678,0.13
4.73,-0.267,1.039,0.037
4.74,-0.373,0.96,-0.179
4.75,-0.209,1.069,-0.021
4.76,-0.193,0.923,0.168
4.77,-0.052,0.775,0.123
4.78,-0.381,1.103,-0.15
4.79,-0.302,0.8,-0.056
4.8,-0.157,1.294,0.075
4.81,-0.118,0.619,0.103
4.82,-0.258,1.028,0.025
4.83,-0.386,1.01,-0.232
4.84,-0.104,0.899,-0.049
4.85,-0.035,1.091,0.171
4.86,-0.137,0.734,0.11
4.87,-0.442,1.117,-0.146
4.88,-0.184,0.912,-0.023
4.89,-0.118,1.207,0.109
4.9,-0.141,0.7,0.169
4.91,-0.3,0.987,-0.101
4.92,-0.353,1.036,-0.189
4.93,-0.127,0.969,0.053
4.94,-0.129,1.076,0.138
4.95,-0.143,0.634,0.04
4.96,-0.459,1.278,-0.163
4.97,-0.113,0.873,-0.096
4.98,-0.13,1.1,0.087
4.99,-0.117,0.771,0.18
5.0,-0.354,0.973,-0.147
5.01,-0.262,1.044,-0.173
5.02,-0.045,0.991,0.079
5.03,-0.183,1.019,0.167
5.04,-0.163,0.673,0.008
5.05,-0.417,1.354,-0.195
5.06,-0.152,0.814,-0.035
5.07,-0.08,1.103,0.136
5.08,-0.094,0.833,0.134
5.09,-0.436,0.865,-0.174
5.1,-0.197,1.208,-0.095
5.11,-0.091,0.954,0.063
5.12,-0.198,0.956,0.139
5.13,-0.135,0.698,0.02
5.14,-0.467,1.297,-0.21
5.15,-0.05,0.835,-0.027
5.16,-0.077,1.081,0.16
5.17,-0.143,0.816,0.063
5.18,-0.454,1.08,-0.111
5.19,-0.137,1.085,-0.074
5.2,-0.168,0.855,0.09
5.21,-0.137,1.057,0.167
5.22,-0.286,0.708,-0.137
5.23,-0.301,1.22,-0.197
5.24,0.011,0.955,0.095
5.25,-0.231,0.982,0.11
5.26,-0.198,0.774,0.05
5.27,-0.321,1.158,-0.216
5.28,-0.226,1.031,-0.014
5.29,-0.15,0.758,0.196
5.3,-0.061,1.087,0.067
5.31,-0.354,0.721,-0.22
5.32,-0.232,1.217,-0.056
5.33,-0.031,0.979,0.093
5.34,-0.216,0.877,0.112
5.35,-0.253,0.891,0.043
5.36,-0.379,1.033,-0.232
5.37,-0.144,1.139,-0.006
5.38,-0.09,0.813,0.172
5.39,-0.173,1.015,0.056
5.4,-0.368,0.826,-0.168
5.41,-0.124,1.275,-0.073
5.42,-0.098,0.799,0.09
5.43,-0.246,0.887,0.187
5.44,-0.286,0.987,-0.095
5.45,-0.309,0.891,-0.183
5.46,-0.095,1.223,0.096
5.47,-0.13,0.723,0.131
5.48,-0.191,1.028,0.025
5.49,-0.379,0.911,-0.159
5.5,-0.203,1.165,-0.054
5.51,-0.16,0.814,0.123
5.52,-0.082,0.863,0.171
5.53,-0.406,1.062,-0.133
5.54,-0.269,0.846,-0.078
5.55,-0.052,1.301,0.072
5.56,-0.066,0.608,0.124
5.57,-0.295,1.081,0.02
5.58,-0.252,0.956,-0.25
5.59,-0.172,1.063,-0.033
5.6,-0.114,0.902,0.163
5.61,-0.118,0.784,0.099
5.62,-0.445,1.151,-0.191
5.63,-0.125,0.888,-0.056
5.64,-0.123,1.206,0.068
5.65,-0.197,0.618,0.219
5.66,-0.295,1.099,-0.04
5.67,-0.33,0.906,-0.191
5.68,-0.161,1.034,0.086
5.69,-0.111,1.038,0.144
5.7,-0.145,0.686,0.008
5.71,-0.458,1.257,-0.151
5.72,-0.176,0.863,-0.048
5.73,-0.148,1.133,0.086
5.74,-0.096,0.748,0.193
5.75,-0.447,1.05,-0.155
5.76,-0.225,0.948,-0.189
5.77,0.008,1.13,0.076
5.78,-0.192,0.939,0.104
5.79,-0.175,0.661,0.038
5.8,-0.336,1.356,-0.249
5.81,-0.148,0.785,-0.006
5.82,-0.235,1.14,0.194
5.83,-0.053,0.723,0.078
5.84,-0.465,1.019,-0.197
5.85,-0.133,1.098,-0.068
5.86,-0.043,0.992,0.051
5.87,-0.179,0.924,0.138
5.88,-0.157,0.734,-0.004
5.89,-0.399,1.308,-0.249
5.9,-0.104,0.832,0.052
5.91,-0.105,1.196,0.146
5.92,-0.226,0.673,0.036
5.93,-0.441,1.031,-0.138
5.94,-0.047,1.246,-0.087
5.95,-0.178,0.761,0.097
5.96,-0.155,1.017,0.234
5.97,-0.267,0.772,-0.15
5.98,-0.445,1.146,-0.144
5.99,0.075,0.987,0.094
6.0,-0.226,1.0,0.083
6.01,-0.157,0.713,0.039
6.02,-0.363,1.299,-0.194
6.03,-0.192,0.905,0.011
6.04,-0.171,0.898,0.198
6.05,-0.058,0.973,0.051
6.06,-0.412,0.816,-0.193
6.07,-0.254,1.28,-0.01
6.08,-0.012,0.844,0.071
6.09,-0.201,0.989,0.099
6.1,-0.155,0.799,-0.015
6.11,-0.385,1.175,-0.221
6.12,-0.205,1.009,0.098
6.13,-0.034,0.894,0.127
6.14,-0.28,0.948,0.002
6.15,-0.354,0.8,-0.169
6.16,-0.097,1.306,-0.121
6.17,-0.062,0.714,0.073
6.18,-0.134,1.009,0.165
6.19,-0.236,0.896,-0.145
6.2,-0.365,1.036,-0.128
6.21,-0.037,1.127,0.13
6.22,-0.179,0.719,0.14
6.23,-0.297,1.056,-0.009
6.24,-0.244,0.905,-0.208
6.25,-0.191,1.197,0.005
6.26,-0.164,0.778,0.201
6.27,-0.112,0.93,0.042
6.28,-0.365,0.924,-0.219
6.29,-0.15,1.049,-0.063
6.3,-0.08,1.112,0.037
6.31,-0.181,0.617,0.153
6.32,-0.259,1.156,-0.037
6.33,-0.349,0.834,-0.247
6.34,-0.188,1.153,0.117
6.35,-0.043,0.864,0.176
6.36,-0.174,0.863,-0.001
6.37,-0.37,1.062,-0.118
6.38,-0.076,0.974,-0.079
6.39,-0.31,1.099,0.151
6.4,0.015,0.702,0.154
6.41,-0.439,1.151,-0.155
6.42,-0.35,0.816,-0.101
6.43,-0.003,1.254,0.029
6.44,-0.188,0.791,0.161
6.45,-0.2,0.854,0.086
6.46,-0.354,1.229,-0.234
6.47,-0.111,0.787,-0.066
6.48,-0.212,1.211,0.225
6.49,-0.084,0.654,0.093
6.5,-0.479,1.122,-0.184
6.51,-0.234,0.947,-0.014
6.52,-0.089,1.128,0.084
6.53,-0.136,0.812,0.123
6.54,-0.197,0.861,-0.0
6.55,-0.375,1.223,-0.256
6.56,-0.136,0.768,0.037
6.57,-0.157,1.225,0.179
6.58,-0.121,0.632,0.033
6.59,-0.435,1.133,-0.184
6.6,-0.089,1.03,-0.034
6.61,-0.132,1.027,0.07
6.62,-0.224,0.866,0.182
6.63,-0.168,0.826,-0.099
6.64,-0.394,1.18,-0.207
6.65,-0.079,0.889,0.152
6.66,-0.134,1.178,0.101
6.67,-0.229,0.577,-0.018
6.68,-0.315,1.19,-0.198
6.69,-0.131,1.053,-0.075
6.7,-0.221,0.911,0.137
6.71,-0.084,0.977,0.185
6.72,-0.398,0.76,-0.187
6.73,-0.293,1.196,-0.088
6.74,-0.028,0.949,0.075
6.75,-0.186,0.957,0.09
6.76,-0.193,0.783,0.044
6.77,-0.327,1.227,-0.255
6.78,-0.17,0.931,-0.061
6.79,-0.12,0.882,0.206
6.8,-0.073,1.034,0.093
6.81,-0.415,0.751,-0.199
6.82,-0.15,1.216,-0.074
6.83,-0.071,0.838,0.075
6.84,-0.199,1.005,0.15
6.85,-0.258,0.761,-0.016
6.86,-0.361,1.207,-0.229
6.87,-0.119,0.926,0.034
6.88,-0.063,1.029,0.189
6.89,-0.188,0.827,0.023
6.9,-0.476,0.869,-0.093
6.91,-0.033,1.292,-0.106
6.92,-0.104,0.716,0.072
6.93,-0.187,1.061,0.235
6.94,-0.274,0.82,-0.147
6.95,-0.352,1.077,-0.166
6.96,-0.066,1.073,0.163
6.97,-0.143,0.851,0.118
6.98,-0.293,0.919,0.034
6.99,-0.289,0.999,-0.156
7.0,-0.173,1.26,-0.038
7.01,-0.183,0.657,0.166
7.02,-0.125,1.072,0.14
7.03,-0.333,0.838,-0.201
7.04,-0.298,1.085,-0.088
7.05,-0.018,1.102,0.052
7.06,-0.15,0.707,0.15
7.07,-0.368,1.067,0.05
7.08,-0.225,0.893,-0.216
7.09,-0.217,1.23,0.002
7.1,-0.13,0.769,0.208
7.11,-0.101,1.007,0.045
7.12,-0.417,0.865,-0.231
7.13,-0.111,1.082,-0.077
7.14,-0.116,1.062,0.054
7.15,-0.207,0.649,0.162
7.16,-0.274,1.155,-0.037
7.17,-0.25,0.83,-0.236
7.18,-0.223,1.213,0.088
7.19,-0.015,0.809,0.137
7.2,-0.261,0.908,-0.01
7.21,-0.393,0.982,-0.167
7.22,-0.0,1.039,-0.115
7.23,-0.199,1.001,0.1
7.24,-0.127,0.716,0.157
7.25,-0.353,1.215,-0.112
7.26,-0.262,0.782,-0.155
7.27,-0.095,1.245,0.116
7.28,-0.006,0.783,0.094
7.29,-0.29,0.903,0.013
7.3,-0.367,1.114,-0.151
7.31,-0.128,0.947,-0.063
7.32,-0.244,1.013,0.142
7.33,-0.054,0.723,0.178
7.34,-0.451,1.208,-0.167
7.35,-0.317,0.823,-0.077
7.36,0.001,1.258,0.089
7.37,-0.149,0.75,0.086
7.38,-0.255,0.878,0.003
7.39,-0.292,1.216,-0.256
7.4,-0.178,0.823,-0.007
7.41,-0.182,1.115,0.2
7.42,-0.051,0.668,0.102
7.43,-0.509,1.172,-0.236
7.44,-0.115,0.87,-0.003
7.45,-0.079,1.178,0.094
7.46,-0.237,0.796,0.148
7.47,-0.23,0.822,-0.026
7.48,-0.313,1.201,-0.196
7.49,-0.168,0.861,0.049
7.5,-0.105,1.151,0.168
7.51,-0.103,0.623,0.013
7.52,-0.531,1.214,-0.168
7.53,-0.039,0.977,-0.099
7.54,-0.081,1.021,0.051
7.55,-0.203,0.89,0.186
7.56,-0.335,0.804,-0.103
7.57,-0.272,1.216,-0.176
7.58,-0.099,0.88,0.095
7.59,-0.202,0.987,0.139
7.6,-0.075,0.7,-0.021
7.61,-0.496,1.31,-0.219
7.62,-0.07,0.941,-0.041
7.63,-0.184,1.141,0.158
7.64,-0.124,0.797,0.086
7.65,-0.398,0.896,-0.197
7.66,-0.269,1.139,-0.059
7.67,-0.072,0.924,0.107
7.68,-0.086,0.984,0.058
7.69,-0.267,0.725,-0.03
7.7,-0.383,1.285,-0.208
7.71,-0.082,0.875,-0.011
7.72,-0.146,1.039,0.175
7.73,-0.153,0.814,0.048
7.74,-0.393,0.958,-0.148
7.75,-0.136,1.232,-0.051
7.76,-0.113,0.749,0.123
7.77,-0.196,1.075,0.201
7.78,-0.312,0.765,-0.142
7.79,-0.309,1.121,-0.206
7.8,-0.074,1.0,0.14
7.81,-0.17,0.944,0.17
7.82,-0.229,0.867,-0.001
7.83,-0.364,0.979,-0.18
7.84,-0.116,1.212,-0.062
7.85,-0.079,0.733,0.117
7.86,-0.132,1.078,0.115
7.87,-0.324,0.786,-0.165
7.88,-0.292,1.136,-0.109
7.89,0.001,1.03,0.05
7.9,-0.11,0.812,0.129
7.91,-0.322,0.956,0.054
7.92,-0.273,0.947,-0.198
7.93,-0.152,1.213,-0.04
7.94,-0.156,0.718,0.21
7.95,-0.123,1.047,0.058
7.96,-0.363,0.849,-0.229
7.97,-0.193,1.125,-0.047
7.98,-0.095,0.984,0.07
7.99,-0.123,0.701,0.168
8.0,-0.337,1.136,-0.019
8.01,-0.323,0.843,-0.162
8.02,-0.113,1.204,0.042
8.03,-0.063,0.791,0.141
8.04,-0.242,0.953,0.011
8.05,-0.355,0.912,-0.174
8.06,-0.093,1.109,-0.086
8.07,-0.147,0.971,0.069
8.08,-0.147,0.76,0.195
8.09,-0.375,1.134,-0.113
8.1,-0.326,0.769,-0.189
8.11,-0.027,1.311,0.13
8.12,-0.07,0.721,0.093
8.13,-0.302,0.919,0.029
8.14,-0.372,1.057,-0.132
8.15,-0.096,1.02,-0.054
8.16,-0.216,1.007,0.106
8.17,0.006,0.734,0.13
8.18,-0.485,1.185,-0.192
8.19,-0.248,0.815,-0.034
8.2,-0.007,1.304,0.114
8.21,-0.175,0.686,0.118
8.22,-0.264,0.923,-0.001
8.23,-0.279,1.151,-0.234
8.24,-0.075,0.907,-0.008
8.25,-0.163,1.099,0.184
8.26,-0.09,0.665,0.039
8.27,-0.513,1.183,-0.202
8.28,-0.162,0.898,0.004
8.29,-0.121,1.161,0.098
8.3,-0.165,0.759,0.145
8.31,-0.338,0.93,-0.056
8.32,-0.265,1.126,-0.212
8.33,-0.105,0.905,0.09
8.34,-0.123,1.119,0.12
8.35,-0.139,0.63,-0.001
8.36,-0.482,1.265,-0.13
8.37,-0.076,0.93,-0.055
8.38,-0.168,1.017,0.091
8.39,-0.101,0.885,0.165
8.4,-0.401,0.873,-0.198
8.41,-0.302,1.109,-0.04
8.42,0.018,0.936,0.1
8.43,-0.171,1.035,0.11
8.44,-0.24,0.711,0.033
8.45,-0.342,1.302,-0.223
8.46,-0.13,0.831,0.026
8.47,-0.127,1.126,0.189
8.48,-0.188,0.705,0.025
8.49,-0.46,1.036,-0.148
8.5,-0.13,1.17,-0.022
8.51,-0.145,0.8,0.071
8.52,-0.166,1.001,0.17
8.53,-0.2,0.753,-0.179
8.54,-0.333,1.24,-0.153
8.55,-0.099,0.901,0.127
8.56,-0.077,1.025,0.094
8.57,-0.282,0.79,-0.011
8.58,-0.299,1.057,-0.182
8.59,-0.093,1.133,-0.062
8.6,-0.21,0.718,0.184
8.61,-0.088,1.07,0.116
8.62,-0.365,0.733,-0.238
8.63,-0.277,1.215,-0.058
8.64,-0.008,0.944,0.058
8.65,-0.168,0.85,0.088
8.66,-0.287,0.945,0.013
8.67,-0.294,1.04,-0.214
8.68,-0.098,1.107,0.01
8.69,-0.072,0.778,0.178
8.7,-0.175,1.009,0.043
8.71,-0.431,0.82,-0.203
8.72,-0.152,1.268,-0.063
8.73,-0.09,0.816,0.095
8.74,-0.152,0.852,0.167
8.75,-0.306,0.995,-0.11
8.76,-0.207,0.874,-0.175
8.77,-0.13,1.223,0.121
8.78,-0.144,0.616,0.113
8.79,-0.224,1.06,-0.018
8.8,-0.302,0.948,-0.18
8.81,-0.113,1.1,-0.004
8.82,-0.204,0.857,0.166
8.83,-0.073,0.861,0.103
8.84,-0.437,1.033,-0.196
8.85,-0.207,0.861,-0.05
8.86,-0.113,1.272,0.072
8.87,-0.093,0.592,0.115
8.88,-0.312,1.128,-0.058
8.89,-0.283,0.947,-0.185
8.9,-0.157,1.1,0.071
8.91,-0.125,0.993,0.175
8.92,-0.134,0.733,0.003
8.93,-0.422,1.181,-0.169
8.94,-0.161,0.92,-0.047
8.95,-0.127,1.111,0.109
8.96,-0.116,0.667,0.164
8.97,-0.447,1.096,-0.131
8.98,-0.233,0.891,-0.178
8.99,-0.107,1.106,0.099
9.0,-0.134,0.945,0.154
9.01,-0.168,0.69,0.023
9.02,-0.482,1.299,-0.183
9.03,-0.021,0.841,-0.008
9.04,-0.215,1.124,0.124
9.05,-0.067,0.736,0.13
9.06,-0.197,0.856,0.221
9.07,-0.137,1.013,0.055
9.08,-0.363,0.818,-0.25
9.09,-0.174,1.273,-0.03
9.1,-0.091,0.836,0.149
9.11,-0.261,0.925,0.163
9.12,-0.259,0.862,-0.082
9.13,-0.284,1.071,-0.207
9.14,-0.137,1.098,0.141
9.15,-0.096,0.769,0.177
9.16,-0.321,1.033,-0.004
9.17,-0.331,0.89,-0.19
9.18,-0.114,1.196,-0.079
9.19,-0.196,0.798,0.201
9.2,-0.14,1.017,0.105
9.21,-0.328,0.809,-0.229
9.22,-0.199,1.175,-0.052
9.23,-0.071,0.925,0.055
9.24,-0.226,0.761,0.189
9.25,-0.292,1.046,-0.048
9.26,-0.278,0.861,-0.22
9.27,-0.155,1.259,0.105
9.28,-0.104,0.741,0.139
9.29,-0.14,0.954,-0.015
9.3,-0.419,0.944,-0.125
9.31,-0.176,1.107,-0.054
9.32,-0.098,0.919,0.089
9.33,-0.152,0.785,0.158
9.34,-0.355,1.128,-0.145
9.35,-0.362,0.836,-0.114
9.36,-0.052,1.277,0.07
9.37,-0.097,0.652,0.108
9.38,-0.282,1.005,0.012
9.39,-0.326,1.038,-0.205
9.4,-0.143,1.0,0.006
9.41,-0.17,0.976,0.182
9.42,-0.169,0.72,0.128
9.43,-0.432,1.21,-0.204
9.44,-0.214,0.864,-0.06
9.45,-0.077,1.197,0.132
9.46,-0.188,0.682,0.17
9.47,-0.276,1.014,-0.058
9.48,-0.299,1.022,-0.195
9.49,-0.185,0.986,0.107
9.5,-0.119,1.106,0.158
9.51,-0.125,0.621,-0.014
9.52,-0.5,1.25,-0.18
9.53,-0.092,0.924,-0.074
9.54,-0.19,1.023,0.062
9.55,-0.112,0.76,0.209
9.56,-0.429,0.974,-0.16
9.57,-0.25,1.035,-0.18
9.58,0.015,1.031,0.115
9.59,-0.219,0.994,0.13
9.6,-0.205,0.634,0.037
9.61,-0.326,1.361,-0.254
9.62,-0.169,0.787,-0.045
9.63,-0.213,1.041,0.221
9.64,-0.036,0.808,0.054
9.65,-0.467,0.962,-0.185
9.66,-0.177,1.227,0.001
9.67,-0.101,0.865,0.06
9.68,-0.178,0.954,0.134
9.69,-0.173,0.743,-0.031
9.7,-0.377,1.262,-0.224
9.71,-0.184,0.877,0.051
9.72,-0.073,1.052,0.15
9.73,-0.127,0.809,-0.039
9.74,-0.41,0.956,-0.172
9.75,-0.117,1.235,-0.09
9.76,-0.108,0.766,0.082
9.77,-0.18,1.065,0.158
9.78,-0.277,0.76,-0.137
9.79,-0.323,1.147,-0.145
9.8,-0.011,1.025,0.099
9.81,-0.138,0.875,0.155
9.82,-0.332,0.911,0.04
9.83,-0.348,0.961,-0.178
9.84,-0.182,1.187,-0.019
9.85,-0.117,0.749,0.144
9.86,-0.128,1.057,0.1
9.87,-0.358,0.795,-0.22
9.88,-0.212,1.178,-0.053
9.89,-0.147,1.027,0.098
9.9,-0.126,0.723,0.126
9.91,-0.252,1.049,-0.059
9.92,-0.353,0.9,-0.183
9.93,-0.1,1.173,-0.025
9.94,-0.114,0.784,0.156
9.95,-0.165,1.01,0.044
9.96,-0.384,0.855,-0.2
9.97,-0.139,1.121,-0.066
9.98,-0.113,0.955,0.099
9.99,-0.185,0.762,0.222
10.0,-0.324,1.105,-0.071
10.01,-0.316,0.894,-0.145
10.02,-0.063,1.241,0.077
10.03,-0.11,0.708,0.086
10.04,-0.303,1.066,0.015
10.05,-0.326,0.887,-0.159
10.06,-0.146,1.153,-0.013
10.07,-0.145,0.853,0.178
10.08,-0.107,0.854,0.091
10.09,-0.386,1.056,-0.225
10.1,-0.198,0.927,-0.052
10.11,-0.123,1.237,0.053
10.12,-0.085,0.606,0.126
10.13,-0.297,1.104,-0.018
10.14,-0.318,0.92,-0.214
10.15,-0.156,1.04,0.059
10.16,-0.14,0.974,0.171
10.17,-0.175,0.762,0.069
10.18,-0.362,1.094,-0.203
10.19,-0.064,0.914,-0.076
10.2,-0.16,1.176,0.1
10.21,-0.177,0.687,0.18
10.22,-0.367,1.077,-0.102
10.23,-0.257,0.897,-0.19
10.24,-0.123,1.144,0.155
10.25,-0.124,0.947,0.102
10.26,-0.196,0.752,0.019
10.27,-0.463,1.289,-0.133
10.28,-0.088,0.843,-0.046
10.29,-0.216,1.145,0.141
10.3,-0.137,0.72,0.116
10.31,-0.425,1.041,-0.182
10.32,-0.2,1.021,-0.099
10.33,-0.086,1.087,0.09
10.34,-0.145,0.854,0.121
10.35,-0.233,0.743,0.025
10.36,-0.421,1.327,-0.213
10.37,-0.098,0.816,-0.011
10.38,-0.077,1.188,0.117
10.39,-0.137,0.714,0.082
10.4,-0.483,1.058,-0.14
10.41,-0.116,1.067,-0.109
10.42,-0.143,0.912,0.123
10.43,-0.169,0.984,0.147
10.44,-0.218,0.709,-0.115
10.45,-0.4,1.23,-0.166
10.46,0.011,0.919,0.07
10.47,-0.175,1.076,0.119
10.48,-0.143,0.704,0.027
10.49,-0.375,1.184,-0.203
10.5,-0.176,1.102,-0.067
10.51,-0.126,0.768,0.171
10.52,-0.119,1.082,0.146
10.53,-0.385,0.688,-0.164
10.54,-0.228,1.227,-0.146
10.55,-0.002,0.97,0.053
10.56,-0.188,0.887,0.134
10.57,-0.215,0.86,0.059
10.58,-0.304,1.114,-0.197
10.59,-0.176,1.038,-0.043
10.6,-0.131,0.808,0.255
10.61,-0.209,1.07,0.069
10.62,-0.382,0.72,-0.202
10.63,-0.177,1.328,-0.055
10.64,-0.08,0.881,0.033
10.65,-0.138,0.805,0.137
10.66,-0.205,0.975,0.005
10.67,-0.419,0.974,-0.2
10.68,-0.161,1.096,0.109
10.69,-0.014,0.844,0.132
10.7,-0.236,1.005,0.002
10.71,-0.363,0.866,-0.122
10.72,-0.211,1.285,-0.069
10.73,-0.151,0.73,0.035
10.74,-0.074,0.916,0.198
10.75,-0.371,1.043,-0.119
10.76,-0.408,0.782,-0.134
10.77,0.097,1.312,0.033
10.78,-0.084,0.671,0.084
10.79,-0.343,1.04,0.09
10.8,-0.285,0.936,-0.243
10.81,-0.196,1.096,-0.026
10.82,-0.177,0.92,0.195
10.83,-0.168,0.913,0.055
10.84,-0.422,0.911,-0.131
10.85,-0.107,1.067,-0.033
10.86,-0.178,1.103,0.104
10.87,-0.147,0.599,0.183
10.88,-0.246,1.187,-0.092
10.89,-0.291,0.815,-0.193
10.9,-0.207,1.222,0.123
10.91,-0.076,0.854,0.139
10.92,-0.211,0.851,-0.009
10.93,-0.356,1.082,-0.152
10.94,-0.187,0.958,-0.037
10.95,-0.203,1.057,0.118
10.96,-0.059,0.693,0.174
10.97,-0.425,1.139,-0.143
10.98,-0.308,0.845,-0.067
10.99,-0.041,1.262,-0.003
11.0,-0.148,0.759,0.086
11.01,-0.24,0.882,0.1
11.02,-0.389,1.204,-0.232
11.03,-0.155,0.778,-0.036
11.04,-0.147,1.202,0.192
11.05,-0.069,0.687,0.04
11.06,-0.503,1.089,-0.146
11.07,-0.203,0.978,-0.042
11.08,-0.023,1.154,0.035
11.09,-0.153,0.766,0.148
11.1,-0.26,0.834,0.037
11.11,-0.406,1.253,-0.235
11.12,-0.096,0.79,0.003
11.13,-0.101,1.238,0.137
11.14,-0.095,0.64,0.054
11.15,-0.462,1.077,-0.163
11.16,-0.146,1.043,-0.033
11.17,-0.054,1.031,0.044
11.18,-0.258,0.855,0.187
11.19,-0.183,0.811,-0.061
11.2,-0.375,1.222,-0.217
11.21,-0.166,0.838,0.189
11.22,-0.052,1.214,0.114
11.23,-0.253,0.617,-0.01
11.24,-0.38,1.169,-0.106
11.25,-0.047,1.062,-0.14
11.26,-0.24,0.836,0.121
11.27,-0.053,0.997,0.147
11.28,-0.319,0.779,-0.156
11.29,-0.384,1.192,-0.143
11.3,0.063,0.9,0.116
11.31,-0.163,1.003,0.076
11.32,-0.272,0.722,0.077
11.33,-0.271,1.255,-0.225
11.34,-0.218,0.967,-0.068
11.35,-0.126,0.813,0.222
11.36,-0.118,1.062,0.06
11.37,-0.38,0.693,-0.206
11.38,-0.308,1.285,-0.035
11.39,0.039,0.904,0.032
11.4,-0.209,0.888,0.112
11.41,-0.205,0.84,0.032
11.42,-0.314,1.181,-0.249
11.43,-0.11,1.047,-0.047
11.44,-0.109,0.85,0.211
11.45,-0.142,1.011,0.055
11.46,-0.396,0.773,-0.187
11.47,-0.144,1.285,-0.068
11.48,-0.03,0.822,0.088
11.49,-0.264,0.938,0.215
11.5,-0.275,0.893,-0.076
11.51,-0.273,0.974,-0.208
11.52,-0.181,1.245,0.105
11.53,-0.085,0.75,0.148
11.54,-0.175,1.024,0.036
11.55,-0.414,0.897,-0.149
11.56,-0.238,1.204,-0.084
11.57,-0.038,0.716,0.098
11.58,-0.171,0.966,0.171
11.59,-0.342,0.991,-0.16
11.6,-0.283,0.87,-0.154
11.61,-0.121,1.222,0.086
11.62,-0.057,0.685,0.141
11.63,-0.297,1.06,0.012
11.64,-0.385,0.922,-0.142
11.65,-0.123,1.211,0.024
11.66,-0.204,0.737,0.17
11.67,-0.126,0.98,0.049
11.68,-0.336,0.946,-0.226
11.69,-0.22,1.023,-0.028
11.7,-0.07,1.081,0.068
11.71,-0.11,0.665,0.126
11.72,-0.383,1.122,-0.002
11.73,-0.299,0.851,-0.194
11.74,-0.141,1.242,0.022
11.75,-0.125,0.784,0.162
11.76,-0.151,0.923,0.017
11.77,-0.457,1.025,-0.18
11.78,-0.108,0.992,-0.057
11.79,-0.105,1.054,0.102
11.8,-0.209,0.705,0.182
11.81,-0.327,1.178,-0.147
11.82,-0.268,0.836,-0.173
11.83,-0.063,1.229,0.093
11.84,-0.135,0.777,0.114
11.85,-0.285,0.884,0.016
11.86,-0.333,1.142,-0.236
11.87,-0.154,0.89,-0.044
11.88,-0.166,1.118,0.152
11.89,-0.058,0.647,0.071
11.9,-0.451,1.136,-0.189
11.91,-0.125,0.965,-0.069
11.92,-0.091,1.22,0.091
11.93,-0.174,0.719,0.168
11.94,-0.255,0.87,0.007
11.95,-0.356,1.201,-0.239
11.96,-0.122,0.838,0.035
11.97,-0.157,1.204,0.154
11.98,-0.125,0.643,0.057
11.99,-0.419,1.187,-0.168
12.0,-0.153,0.985,-0.079
12.01,-0.119,1.017,0.101
12.02,-0.132,0.868,0.18
12.03,-0.38,0.855,-0.028
12.04,-0.332,1.14,-0.175
12.05,-0.071,0.899,0.121
12.06,-0.218,1.181,0.155
12.07,-0.121,0.625,-0.008
12.08,-0.444,1.213,-0.191
12.09,-0.127,0.967,-0.057
12.1,-0.097,0.932,0.138
12.11,-0.173,0.956,0.189
12.12,-0.379,0.831,-0.184
12.13,-0.199,1.157,-0.166
12.14,-0.016,0.946,0.12
12.15,-0.219,1.051,0.127
12.16,-0.198,0.674,-0.0
12.17,-0.372,1.258,-0.186
12.18,-0.168,0.941,-0.064
12.19,-0.134,0.878,0.247
12.2,-0.187,0.976,0.077
12.21,-0.395,0.757,-0.204
12.22,-0.154,1.338,-0.03
12.23,-0.128,0.824,0.107
12.24,-0.18,0.948,0.125
12.25,-0.187,0.819,-0.035
12.26,-0.38,1.108,-0.213
12.27,-0.084,1.042,0.043
12.28,-0.14,0.866,0.157
12.29,-0.233,0.96,-0.005
12.3,-0.264,0.9,-0.157
12.31,-0.23,1.297,-0.093
12.32,-0.057,0.669,0.11
12.33,-0.088,1.019,0.088
12.34,-0.379,0.884,-0.15
12.35,-0.225,0.944,-0.142
12.36,-0.039,1.224,0.041
12.37,-0.15,0.701,0.119
12.38,-0.253,1.063,0.071
12.39,-0.339,0.905,-0.231
12.4,-0.161,1.17,0.0
12.41,-0.003,0.783,0.153
12.42,-0.216,0.926,0.086
12.43,-0.359,0.971,-0.161
12.44,-0.174,1.007,-0.097
12.45,-0.126,1.168,0.094
12.46,-0.14,0.74,0.176
12.47,-0.372,1.104,-0.03
12.48,-0.26,0.874,-0.175
12.49,-0.157,1.244,0.088
12.5,-0.143,0.733,0.162
12.51,-0.185,1.003,-0.008
12.52,-0.378,0.941,-0.191
12.53,-0.167,1.077,-0.061
12.54,-0.098,0.942,0.116
12.55,-0.137,0.767,0.114
12.56,-0.317,1.151,-0.128
12.57,-0.26,0.86,-0.123
12.58,-0.139,1.254,0.159
12.59,-0.132,0.678,0.14
12.6,-0.338,0.976,-0.054
12.61,-0.271,1.03,-0.204
12.62,-0.079,1.003,0.002
12.63,-0.24,0.988,0.183
12.64,-0.046,0.731,0.065
12.65,-0.413,1.195,-0.236
12.66,-0.195,0.843,0.015
12.67,-0.142,1.23,0.108
12.68,-0.121,0.691,0.094
12.69,-0.252,1.006,-0.069
12.7,-0.328,1.058,-0.174
12.71,-0.15,0.963,0.132
12.72,-0.093,1.091,0.142
12.73,-0.17,0.635,-0.008
12.74,-0.447,1.25,-0.165
12.75,-0.078,0.883,-0.067
12.76,-0.152,1.114,0.101
12.77,-0.088,0.805,0.161
12.78,-0.406,0.914,-0.145
12.79,-0.274,1.133,-0.105
12.8,-0.006,0.992,0.082
12.81,-0.153,0.959,0.125
12.82,-0.185,0.697,0.043
12.83,-0.454,1.361,-0.252
12.84,-0.07,0.787,-0.034
12.85,-0.152,1.098,0.184
12.86,-0.13,0.814,0.073
12.87,-0.361,0.885,-0.216
12.88,-0.158,1.279,-0.032
12.89,-0.101,0.783,0.07
12.9,-0.23,1.012,0.19
12.91,-0.215,0.737,-0.106
12.92,-0.319,1.255,-0.215
12.93,-0.127,0.905,0.104
12.94,-0.088,1.008,0.137
12.95,-0.194,0.834,0.025
12.96,-0.437,0.964,-0.161
12.97,-0.039,1.226,-0.162
12.98,-0.059,0.723,0.114
12.99,-0.227,1.085,0.162
13.0,-0.226,0.762,-0.182
13.01,-0.304,1.178,-0.12
13.02,-0.019,1.016,0.076
13.03,-0.117,0.824,0.152
13.04,-0.292,0.971,0.031
13.05,-0.412,0.95,-0.178
13.06,-0.143,1.151,-0.024
13.07,-0.11,0.711,0.143
13.08,-0.167,1.045,0.105
13.09,-0.315,0.787,-0.214
13.1,-0.21,1.123,-0.042
13.11,-0.136,1.026,0.171
13.12,-0.081,0.746,0.111
13.13,-0.413,1.062,-0.005
13.14,-0.236,0.873,-0.174
13.15,-0.079,1.249,-0.025
13.16,-0.146,0.696,0.163
13.17,-0.118,1.028,0.02
13.18,-0.435,0.879,-0.211
13.19,-0.125,1.057,-0.043
13.2,-0.08,0.996,0.129
13.21,-0.234,0.741,0.158
13.22,-0.328,1.087,-0.135
13.23,-0.206,0.84,-0.158
13.24,-0.149,1.334,0.09
13.25,-0.078,0.659,0.134
13.26,-0.27,0.974,0.037
13.27,-0.371,1.05,-0.212
13.28,-0.031,1.111,-0.014
13.29,-0.094,0.942,0.162
13.3,-0.232,0.821,0.098
13.31,-0.358,1.074,-0.188
13.32,-0.14,0.951,-0.091
13.33,-0.165,1.18,0.121
13.34,-0.134,0.607,0.195
13.35,-0.377,1.113,-0.082
13.36,-0.21,0.872,-0.185
13.37,-0.15,1.166,0.147
13.38,-0.205,0.872,0.146
13.39,-0.082,0.732,0.036
13.4,-0.505,1.301,-0.194
13.41,-0.112,0.829,-0.062
13.42,-0.183,1.125,0.088
13.43,-0.149,0.687,0.144
13.44,-0.418,1.073,-0.156
13.45,-0.183,0.926,-0.146
13.46,-0.113,1.076,0.123
13.47,-0.156,0.904,0.126
13.48,-0.187,0.706,-0.016
13.49,-0.454,1.328,-0.178
13.5,-0.036,0.795,-0.005
13.51,-0.218,1.204,0.158
13.52,-0.106,0.721,0.082
13.53,-0.404,1.048,-0.213
13.54,-0.216,1.077,0.001
13.55,-0.121,0.955,0.106
13.56,-0.211,0.969,0.113
13.57,-0.218,0.727,-0.039
13.58,-0.368,1.3,-0.218
13.59,-0.097,0.864,0.072
13.6,-0.142,1.127,0.158
13.61,-0.141,0.665,0.017
13.62,-0.43,1.093,-0.13
13.63,-0.128,1.12,-0.117
13.64,-0.109,0.842,0.123
13.65,-0.157,1.08,0.149
13.66,-0.341,0.698,-0.132
13.67,-0.396,1.22,-0.143
13.68,0.049,0.961,0.068
13.69,-0.204,0.929,0.095
13.7,-0.232,0.759,0.043
13.71,-0.315,1.131,-0.22
13.72,-0.106,1.067,-0.07
13.73,-0.146,0.781,0.221
13.74,-0.172,1.029,0.093
13.75,-0.33,0.729,-0.222
13.76,-0.227,1.321,-0.045
13.77,-0.091,0.889,0.074
13.78,-0.161,0.849,0.149
13.79,-0.171,0.968,-0.016
13.8,-0.434,0.999,-0.203
13.81,-0.153,1.068,0.063
13.82,-0.029,0.888,0.125
13.83,-0.191,1.002,0.049
13.84,-0.395,0.809,-0.14
13.85,-0.144,1.287,-0.096
13.86,-0.137,0.808,0.082
13.87,-0.173,0.865,0.207
13.88,-0.312,1.016,-0.093
13.89,-0.314,0.826,-0.19
13.9,-0.115,1.228,0.106
13.91,-0.077,0.75,0.114
13.92,-0.232,1.006,0.022
13.93,-0.35,0.903,-0.159
13.94,-0.121,1.194,-0.052
13.95,-0.203,0.858,0.114
13.96,-0.171,0.846,0.187
13.97,-0.384,1.021,-0.165
13.98,-0.3,0.846,-0.081
13.99,-0.04,1.336,0.093
14.0,-0.131,0.595,0.056
14.01,-0.247,1.064,0.047
14.02,-0.288,0.974,-0.251
14.03,-0.179,1.011,-0.029
14.04,-0.188,0.956,0.227
14.05,-0.147,0.768,0.057
14.06,-0.44,1.128,-0.193
14.07,-0.187,0.914,-0.028
14.08,-0.192,1.22,0.094
14.09,-0.067,0.584,0.172
14.1,-0.362,1.201,-0.079
14.11,-0.25,0.778,-0.236
14.12,-0.108,1.15,0.015
14.13,-0.094,0.893,0.165
14.14,-0.165,0.795,0.04
14.15,-0.448,1.16,-0.197
14.16,-0.135,0.977,-0.069
14.17,-0.212,1.107,0.071
14.18,-0.037,0.676,0.165
14.19,-0.427,1.157,-0.165
14.2,-0.244,0.776,-0.2
14.21,-0.012,1.212,0.081
14.22,-0.135,0.861,0.116
14.23,-0.229,0.795,-0.017
14.24,-0.386,1.262,-0.189
14.25,-0.133,0.818,-0.048
14.26,-0.157,1.148,0.176
14.27,-0.107,0.67,0.119
14.28,-0.479,1.125,-0.194
14.29,-0.199,0.985,-0.026
14.3,-0.143,1.089,0.048
14.31,-0.151,0.819,0.138
14.32,-0.172,0.772,-0.045
14.33,-0.423,1.22,-0.203
14.34,-0.08,0.806,0.05
14.35,-0.13,1.232,0.115
14.36,-0.13,0.636,0.027
14.37,-0.363,1.167,-0.147
14.38,-0.207,1.11,-0.067
14.39,-0.11,0.864,0.085
14.4,-0.135,0.947,0.201
14.41,-0.344,0.78,-0.092
14.42,-0.347,1.205,-0.111
14.43,-0.021,0.915,0.071
14.44,-0.217,1.043,0.134
14.45,-0.187,0.747,0.061
14.46,-0.436,1.227,-0.167
14.47,-0.187,0.979,-0.04
14.48,-0.145,0.875,0.212
14.49,-0.182,1.03,0.13
14.5,-0.328,0.72,-0.177
14.51,-0.231,1.252,-0.074
14.52,-0.089,0.929,0.096
14.53,-0.186,0.908,0.126
14.54,-0.204,0.825,-0.013
14.55,-0.363,1.19,-0.22
14.56,-0.089,1.033,-0.019
14.57,-0.05,0.846,0.172
14.58,-0.201,1.01,0.103
14.59,-0.365,0.769,-0.196
14.6,-0.146,1.299,-0.076
14.61,-0.084,0.788,0.11
14.62,-0.195,0.907,0.158
14.63,-0.289,0.929,-0.075
14.64,-0.378,0.974,-0.189
14.65,-0.112,1.107,0.028
14.66,-0.133,0.795,0.163
14.67,-0.223,1.026,0.024
14.68,-0.306,0.872,-0.159
14.69,-0.197,1.227,-0.079
14.7,-0.156,0.725,0.128
14.71,-0.087,0.948,0.135
14.72,-0.383,0.96,-0.174
14.73,-0.286,0.92,-0.062
14.74,-0.086,1.296,0.077
14.75,-0.161,0.586,0.095
14.76,-0.289,1.083,0.052
14.77,-0.268,0.957,-0.203
14.78,-0.105,1.108,-0.071
14.79,-0.129,0.808,0.186
14.8,-0.119,0.891,0.084
14.81,-0.435,1.036,-0.206
14.82,-0.25,0.895,-0.001
14.83,-0.08,1.3,0.058
14.84,-0.147,0.573,0.079
14.85,-0.245,1.131,0.003
14.86,-0.319,0.978,-0.194
14.87,-0.187,1.05,0.011
14.88,0.035,0.896,0.139
14.89,-0.194,0.83,0.008
14.9,-0.481,1.111,-0.174
14.91,-0.077,1.0,-0.086
14.92,-0.242,1.014,0.126
14.93,-0.079,0.716,0.161
14.94,-0.413,1.153,-0.188
14.95,-0.276,0.863,-0.074
14.96,-0.051,1.278,0.112
14.97,-0.123,0.699,0.105
14.98,-0.258,0.87,0.0
14.99,-0.302,1.195,-0.223
15.0,-0.098,0.886,-0.024
15.01,-0.131,1.088,0.164
15.02,-0.106,0.691,0.116
15.03,-0.541,1.199,-0.176
15.04,-0.086,0.886,-0.075
15.05,-0.154,1.136,0.13
15.06,-0.246,0.796,0.196
15.07,-0.225,0.898,-0.076
15.08,-0.329,1.118,-0.212
15.09,-0.123,0.901,0.134
15.1,-0.133,1.165,0.162
15.11,-0.16,0.607,-0.004
15.12,-0.451,1.278,-0.152
15.13,-0.088,0.896,-0.077
15.14,-0.188,1.01,0.138
15.15,-0.163,0.88,0.147
15.16,-0.346,0.852,-0.175
15.17,-0.302,1.188,-0.095
15.18,-0.022,0.902,0.085
15.19,-0.125,0.996,0.105
15.2,-0.187,0.692,0.011
15.21,-0.37,1.307,-0.232
15.22,-0.103,0.89,-0.019
15.23,-0.11,0.984,0.2
15.24,-0.16,0.92,0.087
15.25,-0.419,0.852,-0.171
15.26,-0.189,1.327,-0.032
15.27,-0.111,0.786,0.085
15.28,-0.199,0.969,0.146
15.29,-0.224,0.775,-0.064
15.3,-0.359,1.177,-0.17
15.31,-0.128,0.991,0.063
15.32,-0.063,0.872,0.14
15.33,-0.242,0.939,0.01
15.34,-0.411,0.885,-0.141
15.35,-0.139,1.309,-0.034
15.36,-0.11,0.712,0.11
15.37,-0.218,1.026,0.148
15.38,-0.308,0.82,-0.154
15.39,-0.237,1.096,-0.122
15.4,-0.036,1.13,0.085
15.41,-0.106,0.704,0.142
15.42,-0.334,1.052,0.02
15.43,-0.308,0.907,-0.211
15.44,-0.159,1.211,-0.027
15.45,-0.131,0.761,0.198
15.46,-0.193,0.997,0.079
15.47,-0.384,0.918,-0.219
15.48,-0.193,1.063,-0.05
15.49,-0.105,1.061,0.131
15.5,-0.198,0.7,0.202
15.51,-0.352,1.098,-0.113
15.52,-0.278,0.841,-0.173
15.53,-0.147,1.261,0.112
15.54,-0.162,0.769,0.164
15.55,-0.186,0.908,-0.003
15.56,-0.381,1.107,-0.196
15.57,-0.092,0.965,-0.033
15.58,-0.271,1.016,0.165
15.59,-0.078,0.711,0.096
15.6,-0.418,1.192,-0.209
15.61,-0.273,0.854,-0.047
15.62,-0.036,1.234,0.083
15.63,-0.119,0.772,0.076
15.64,-0.293,0.862,0.024
15.65,-0.35,1.146,-0.236
15.66,-0.143,0.882,0.039
15.67,-0.131,1.136,0.13
15.68,-0.05,0.638,0.006
15.69,-0.53,1.248,-0.135
15.7,-0.073,0.911,-0.087
15.71,-0.15,1.084,0.094
15.72,-0.112,0.827,0.169
15.73,-0.371,1.038,-0.177
15.74,-0.28,1.016,-0.095
15.75,-0.024,1.048,0.13
15.76,-0.173,0.925,0.101
15.77,-0.216,0.715,0.013
15.78,-0.397,1.355,-0.213
15.79,-0.064,0.833,-0.02
15.8,-0.164,1.162,0.143
15.81,-0.082,0.73,0.063
15.82,-0.439,1.071,-0.203
15.83,-0.167,1.104,-0.076
15.84,-0.034,0.824,0.103
15.85,-0.191,1.025,0.182
15.86,-0.312,0.707,-0.112
15.87,-0.3,1.236,-0.211
15.88,-0.022,0.967,0.116
15.89,-0.183,1.037,0.099
15.9,-0.182,0.753,0.013
15.91,-0.399,1.111,-0.162
15.92,-0.141,1.148,-0.059
15.93,-0.144,0.732,0.194
15.94,-0.17,1.061,0.162
15.95,-0.344,0.723,-0.241
15.96,-0.203,1.219,-0.088
15.97,0.014,0.948,0.105
15.98,-0.237,0.847,0.107
15.99,-0.204,0.888,0.002
16.0,-0.387,1.06,-0.204
16.01,-0.097,1.117,-0.013
16.02,-0.054,0.823,0.161
16.03,-0.243,1.005,0.053
16.04,-0.429,0.795,-0.16
16.05,-0.13,1.277,-0.043
16.06,-0.095,0.755,0.071
16.07,-0.118,0.882,0.172
16.08,-0.365,1.028,-0.146
16.09,-0.323,0.917,-0.161
16.1,0.028,1.265,0.067
16.11,-0.105,0.607,0.088
16.12,-0.316,1.117,0.076
16.13,-0.39,0.942,-0.173
16.14,-0.238,1.057,-0.03
16.15,-0.106,0.877,0.193
16.16,-0.157,0.844,0.097
16.17,-0.481,1.067,-0.194
16.18,-0.083,0.917,-0.081
16.19,-0.135,1.221,0.052
16.2,-0.171,0.639,0.195
16.21,-0.302,1.1,-0.082
16.22,-0.324,0.882,-0.21
16.23,-0.121,1.137,0.155
16.24,-0.134,0.903,0.099
16.25,-0.179,0.768,-0.0
16.26,-0.386,1.279,-0.179
16.27,-0.102,0.82,-0.087
16.28,-0.132,1.137,0.162
16.29,-0.117,0.728,0.151
16.3,-0.466,1.051,-0.169
16.31,-0.247,0.963,-0.076
16.32,-0.018,1.128,0.059
16.33,-0.196,0.84,0.127
16.34,-0.234,0.76,0.046
16.35,-0.377,1.354,-0.233
16.36,-0.112,0.726,-0.018
16.37,-0.062,1.204,0.186
16.38,-0.185,0.686,0.036
16.39,-0.494,1.058,-0.117
16.4,-0.051,1.125,-0.089
16.41,-0.141,0.932,0.05
16.42,-0.151,0.978,0.207
16.43,-0.297,0.747,-0.106
16.44,-0.423,1.217,-0.163
16.45,0.086,0.907,0.062
16.46,-0.182,1.038,0.125
16.47,-0.228,0.732,0.06
16.48,-0.335,1.166,-0.209
16.49,-0.164,1.024,-0.05
16.5,-0.18,0.833,0.176
16.51,-0.068,1.044,0.094
16.52,-0.415,0.724,-0.191
16.53,-0.208,1.31,-0.002
16.54,-0.123,0.862,0.098
16.55,-0.22,0.973,0.109
16.56,-0.18,0.762,-0.044
16.57,-0.411,1.165,-0.199
16.58,-0.131,0.977,0.058
16.59,-0.074,0.981,0.132
16.6,-0.235,0.905,0.013
16.61,-0.422,0.831,-0.114
16.62,-0.128,1.347,-0.089
16.63,-0.098,0.703,0.107
16.64,-0.239,1.055,0.2
16.65,-0.299,0.773,-0.148
16.66,-0.321,1.068,-0.162
16.67,-0.007,1.109,0.111
16.68,-0.131,0.752,0.085
16.69,-0.314,1.012,0.044
16.7,-0.278,0.928,-0.167
16.71,-0.18,1.182,-0.028
16.72,-0.166,0.736,0.232
16.73,-0.102,1.037,0.027
16.74,-0.405,0.87,-0.228
16.75,-0.187,1.081,-0.032
16.76,-0.046,1.099,0.047
16.77,-0.218,0.624,0.167
16.78,-0.251,1.123,-0.011
16.79,-0.381,0.896,-0.181
16.8,-0.181,1.171,0.081
16.81,-0.0,0.797,0.122
16.82,-0.208,0.917,-0.035
16.83,-0.405,0.985,-0.121
16.84,-0.115,1.097,-0.081
16.85,-0.179,1.002,0.075
16.86,-0.088,0.693,0.181
16.87,-0.412,1.156,-0.151
16.88,-0.276,0.767,-0.122
16.89,-0.05,1.294,0.122
16.9,-0.12,0.725,0.119
16.91,-0.29,0.913,0.018
16.92,-0.325,1.165,-0.2
16.93,-0.13,0.873,-0.052
16.94,-0.196,1.091,0.216
16.95,-0.117,0.652,0.116
16.96,-0.471,1.16,-0.198
16.97,-0.16,0.915,-0.035
16.98,-0.167,1.145,0.11
16.99,-0.199,0.73,0.158
17.0,-0.201,0.888,-0.076
17.01,-0.322,1.177,-0.221
17.02,-0.124,0.896,0.093
17.03,-0.053,1.137,0.082
17.04,-0.182,0.61,0.018
17.05,-0.508,1.242,-0.099
17.06,-0.101,0.96,-0.071
17.07,-0.126,0.982,0.091
17.08,-0.075,0.925,0.147
17.09,-0.366,0.858,-0.135
17.1,-0.328,1.143,-0.146
17.11,0.052,0.945,0.109
17.12,-0.285,1.044,0.136
17.13,-0.207,0.68,0.031
17.14,-0.372,1.328,-0.205
17.15,-0.151,0.87,-0.02
17.16,-0.141,0.979,0.206
17.17,-0.162,0.917,0.044
17.18,-0.469,0.812,-0.219
17.19,-0.094,1.286,-0.085
17.2,-0.089,0.813,0.098
17.21,-0.248,0.992,0.185
17.22,-0.228,0.754,-0.055
17.23,-0.436,1.193,-0.226
17.24,-0.041,0.967,0.09
17.25,-0.112,0.969,0.156
17.26,-0.274,0.886,-0.061
17.27,-0.288,0.86,-0.186
17.28,-0.152,1.396,0.009
17.29,-0.161,0.624,0.173
17.3,-0.125,1.03,0.097
17.31,-0.365,0.847,-0.181
17.32,-0.297,1.086,-0.059
17.33,-0.11,1.142,0.164
17.34,-0.208,0.697,0.113
17.35,-0.29,1.041,-0.025
17.36,-0.27,1.084,-0.231
17.37,-0.115,1.139,0.019
17.38,-0.023,0.712,0.191
17.39,-0.318,1.029,0.024
17.4,-0.195,1.054,0.16
17.41,-0.363,0.7,-0.215
17.42,-0.281,1.256,-0.058
17.43,0.02,0.941,0.061
17.44,-0.196,0.888,0.093
17.45,-0.24,0.864,0.014
17.46,-0.338,1.106,-0.221
17.47,-0.168,1.054,0.04
17.48,0.014,0.753,0.173
17.49,-0.249,1.071,0.004
17.5,-0.387,0.78,-0.177
17.51,-0.16,1.244,-0.03
17.52,-0.154,0.782,0.169
17.53,-0.197,0.95,0.174
17.54,-0.368,0.922,-0.197
17.55,-0.262,0.953,-0.13
17.56,-0.068,1.271,0.098
17.57,-0.125,0.598,0.086
17.58,-0.282,1.079,0.009
17.59,-0.222,0.977,-0.242
17.6,-0.141,1.098,0.018
17.61,-0.143,0.865,0.226
17.62,-0.148,0.853,0.044
17.63,-0.465,1.051,-0.223
17.64,-0.051,0.959,-0.082
17.65,-0.108,1.155,0.048
17.66,-0.176,0.624,0.21
17.67,-0.373,1.15,-0.113
17.68,-0.253,0.912,-0.209
17.69,-0.016,1.177,0.118
17.7,-0.172,0.817,0.15
17.71,-0.311,0.777,-0.017
17.72,-0.407,1.226,-0.179
17.73,-0.011,0.88,-0.048
17.74,-0.202,1.135,0.144
17.75,-0.091,0.694,0.059
17.76,-0.483,1.157,-0.204
17.77,-0.18,0.969,-0.016
17.78,-0.101,1.062,0.121
17.79,-0.184,0.883,0.137
17.8,-0.354,0.768,-0.093
17.81,-0.327,1.238,-0.201
17.82,-0.06,0.864,0.068
17.83,-0.168,1.096,0.106
17.84,-0.138,0.671,-0.005
17.85,-0.449,1.278,-0.183
17.86,-0.118,0.942,-0.029
17.87,-0.143,0.901,0.189
17.88,-0.22,0.96,0.112
17.89,-0.366,0.848,-0.199
17.9,-0.162,1.271,-0.128
17.91,-0.041,0.803,0.112
17.92,-0.16,0.987,0.123
17.93,-0.347,0.75,-0.057
17.94,-0.302,1.183,-0.194
17.95,-0.059,1.006,0.045
17.96,-0.142,0.833,0.215
17.97,-0.316,0.949,0.005
17.98,-0.387,0.87,-0.205
17.99,-0.092,1.294,-0.089
18.0,-0.107,0.663,0.165
18.01,-0.153,1.041,0.118
18.02,-0.405,0.86,-0.183
18.03,-0.261,1.042,-0.052
18.04,0.039,1.113,0.1
18.05,-0.155,0.679,0.077
18.06,-0.273,1.09,-0.073
18.07,-0.289,0.967,-0.193
18.08,-0.207,1.239,0.134
18.09,-0.09,0.68,0.153
18.1,-0.349,1.063,-0.023
18.11,-0.308,0.912,-0.228
18.12,-0.037,1.14,-0.055
18.13,-0.113,0.888,0.203
18.14,-0.207,0.808,0.102
18.15,-0.408,1.111,-0.224
18.16,-0.101,0.929,-0.099
18.17,-0.122,1.17,0.137
18.18,-0.143,0.661,0.176
18.19,-0.348,1.073,-0.142
18.2,-0.226,0.954,-0.155
18.21,-0.082,1.183,0.111
18.22,-0.135,0.843,0.131
18.23,-0.243,0.762,0.041
18.24,-0.462,1.304,-0.209
18.25,-0.107,0.801,0.02
18.26,-0.144,1.211,0.192
18.27,-0.12,0.681,0.055
18.28,-0.408,1.087,-0.19
18.29,-0.176,1.091,-0.048
18.3,-0.052,0.978,0.087
18.31,-0.21,0.934,0.123
18.32,-0.298,0.699,-0.082
18.33,-0.303,1.275,-0.18
18.34,-0.012,0.914,0.093
18.35,-0.133,1.041,0.077
18.36,-0.198,0.698,-0.004
18.37,-0.397,1.193,-0.137
18.38,-0.128,1.052,-0.028
18.39,-0.111,0.814,0.189
18.4,-0.166,1.025,0.042
18.41,-0.383,0.712,-0.236
18.42,-0.135,1.334,-0.06
18.43,-0.063,0.849,0.143
18.44,-0.236,0.959,0.176
18.45,-0.212,0.84,-0.133
18.46,-0.285,1.098,-0.18
18.47,-0.004,1.145,0.103
18.48,-0.119,0.703,0.117
18.49,-0.337,1.047,0.059
18.5,-0.377,0.893,-0.195
18.51,-0.12,1.177,-0.064
18.52,-0.16,0.783,0.227
18.53,-0.174,0.941,0.077
18.54,-0.392,0.897,-0.214
18.55,-0.149,1.071,-0.044
18.56,-0.12,1.134,0.125
18.57,-0.194,0.628,0.188
18.58,-0.291,1.128,-0.056
18.59,-0.348,0.908,-0.215
18.6,-0.132,1.195,0.152
18.61,-0.129,0.814,0.15
18.62,-0.26,0.879,0.001
18.63,-0.408,1.108,-0.161
18.64,-0.132,0.953,-0.021
18.65,-0.176,1.062,0.151
18.66,-0.088,0.697,0.087
18.67,-0.396,1.154,-0.215
18.68,-0.259,0.91,-0.015
18.69,-0.104,1.167,0.131
18.7,-0.167,0.744,0.134
18.71,-0.27,0.902,-0.057
18.72,-0.313,1.179,-0.17
18.73,-0.111,0.925,0.114
18.74,-0.108,1.103,0.1
18.75,-0.178,0.645,0.004
18.76,-0.445,1.32,-0.175
18.77,-0.078,0.943,-0.033
18.78,-0.239,1.017,0.181
18.79,-0.115,0.876,0.151
18.8,-0.385,0.85,-0.187
18.81,-0.197,1.206,-0.135
18.82,-0.019,0.867,0.089
18.83,-0.235,0.993,0.092
18.84,-0.154,0.729,-0.035
18.85,-0.373,1.29,-0.266
18.86,-0.162,0.903,0.09
18.87,-0.037,0.997,0.185
18.88,-0.235,0.868,0.022
18.89,-0.454,0.867,-0.104
18.9,-0.138,1.302,-0.073
18.91,-0.159,0.674,0.116
18.92,-0.095,1.034,0.111
18.93,-0.392,0.732,-0.214
18.94,-0.222,1.312,-0.03
18.95,-0.095,0.869,0.129
18.96,-0.273,0.88,0.179
18.97,-0.163,0.919,-0.044
18.98,-0.348,1.054,-0.219
18.99,-0.186,1.12,0.129
19.0,-0.067,0.781,0.133
19.01,-0.28,1.045,0.005
19.02,-0.338,0.812,-0.168
19.03,-0.219,1.244,-0.051
19.04,-0.168,0.766,0.172
19.05,-0.098,0.95,0.145
19.06,-0.347,0.967,-0.174
19.07,-0.27,0.99,-0.063
19.08,-0.087,1.238,0.043
19.09,-0.126,0.555,0.092
19.1,-0.223,1.156,-0.024
19.11,-0.395,0.937,-0.243
19.12,-0.226,1.075,0.039
19.13,-0.038,0.959,0.143
19.14,-0.181,0.773,0.031
19.15,-0.409,1.126,-0.122
19.16,-0.114,0.956,-0.08
19.17,-0.206,1.055,0.088
19.18,-0.135,0.701,0.198
19.19,-0.344,1.101,-0.17
19.2,-0.292,0.839,-0.155
19.21,-0.053,1.226,0.153
19.22,-0.141,0.836,0.098
19.23,-0.221,0.767,0.051
19.24,-0.371,1.32,-0.197
19.25,-0.119,0.829,-0.044
19.26,-0.154,1.164,0.162
19.27,-0.153,0.712,0.111
19.28,-0.473,1.087,-0.193
19.29,-0.169,1.007,-0.071
19.3,-0.067,1.028,0.087
19.31,-0.236,0.855,0.166
19.32,-0.214,0.794,-0.062
19.33,-0.423,1.248,-0.202
19.34,-0.13,0.823,0.102
19.35,-0.152,1.169,0.145
19.36,-0.167,0.657,-0.034
19.37,-0.451,1.147,-0.174
19.38,-0.084,1.041,-0.101
19.39,-0.052,0.872,0.149
19.4,-0.199,1.003,0.195
19.41,-0.354,0.758,-0.177
19.42,-0.276,1.244,-0.141
19.43,-0.047,0.93,0.117
19.44,-0.155,1.001,0.072
19.45,-0.235,0.764,-0.046
19.46,-0.353,1.18,-0.179
19.47,-0.135,1.043,-0.011
19.48,-0.106,0.827,0.175
19.49,-0.167,0.994,0.04
19.5,-0.404,0.799,-0.181
19.51,-0.206,1.302,-0.028
19.52,-0.078,0.762,0.069
19.53,-0.197,0.954,0.172
19.54,-0.275,0.868,-0.113
19.55,-0.264,1.059,-0.136
19.56,-0.152,1.179,0.129
19.57,-0.073,0.693,0.129
19.58,-0.266,1.057,0.019
19.59,-0.374,0.925,-0.187
19.6,-0.144,1.196,-0.057
19.61,-0.159,0.747,0.154
19.62,-0.136,0.949,0.088
19.63,-0.406,0.932,-0.22
19.64,-0.191,0.965,-0.04
19.65,-0.082,1.197,0.1
19.66,-0.206,0.59,0.123
19.67,-0.312,1.149,-0.033
19.68,-0.267,0.893,-0.22
19.69,-0.176,1.169,0.059
19.7,-0.049,0.809,0.128
19.71,-0.186,0.87,-0.009
19.72,-0.487,1.088,-0.161
19.73,-0.087,0.952,-0.06
19.74,-0.216,0.939,0.157
19.75,-0.096,0.747,0.091
19.76,-0.438,1.155,-0.195
19.77,-0.19,0.846,-0.001
19.78,-0.17,1.305,0.156
19.79,-0.129,0.608,0.112
19.8,-0.275,1.021,-0.059
19.81,-0.249,1.049,-0.199
19.82,-0.109,1.042,0.038
19.83,-0.13,0.998,0.125
19.84,-0.137,0.66,0.062
19.85,-0.552,1.281,-0.151
19.86,-0.088,0.835,-0.055
19.87,-0.155,1.125,0.136
19.88,-0.079,0.703,0.109
19.89,-0.383,0.989,-0.152
19.9,-0.231,1.061,-0.151
19.91,0.004,0.994,0.095
19.92,-0.137,1.007,0.123
19.93,-0.272,0.682,0.004
19.94,-0.398,1.346,-0.201
19.95,-0.071,0.841,-0.016
19.96,-0.19,1.099,0.18
19.97,-0.115,0.788,0.048
19.98,-0.418,0.966,-0.213
19.99,-0.171,1.154,-0.071
20.0,-0.056,0.817,0.112
20.01,-0.207,1.055,0.137
20.02,-0.257,0.713,-0.106
20.03,-0.312,1.237,-0.148
20.04,-0.113,0.958,0.119
20.05,-0.13,0.944,0.118
20.06,-0.21,0.845,-0.001
20.07,-0.38,1.004,-0.174
20.08,-0.099,1.185,0.012
20.09,-0.139,0.781,0.187
20.1,-0.251,1.066,0.109
20.11,-0.289,0.749,-0.213
20.12,-0.302,1.239,-0.041
20.13,-0.007,0.933,0.146
20.14,-0.154,0.842,0.104
20.15,-0.334,0.956,-0.018
20.16,-0.291,0.993,-0.209
20.17,-0.106,1.208,-0.013
20.18,-0.104,0.719,0.162
20.19,-0.184,1.023,0.015
20.2,-0.447,0.89,-0.211
20.21,-0.096,1.172,-0.064
20.22,-0.107,0.845,0.094
20.23,-0.128,0.824,0.142
20.24,-0.328,1.061,-0.147
20.25,-0.235,0.909,-0.147
20.26,-0.101,1.254,0.153
20.27,-0.117,0.659,0.098
20.28,-0.271,1.056,-0.007
20.29,-0.364,0.958,-0.206
20.3,-0.071,1.08,0.035
20.31,-0.14,0.971,0.146
20.32,-0.128,0.72,0.038
20.33,-0.37,1.206,-0.225
20.34,-0.117,0.904,-0.061
20.35,-0.092,1.144,0.087
20.36,-0.079,0.681,0.141
20.37,-0.413,1.079,-0.097
20.38,-0.272,0.952,-0.184
20.39,-0.118,1.088,0.148
20.4,-0.173,0.939,0.144
20.41,-0.186,0.691,-0.019
20.42,-0.425,1.32,-0.194
20.43,-0.084,0.852,-0.007
20.44,-0.204,1.104,0.169
20.45,-0.068,0.758,0.09
20.46,-0.399,1.062,-0.229
20.47,-0.197,1.068,-0.054
20.48,-0.042,0.952,0.13
20.49,-0.26,0.971,0.129
20.5,-0.228,0.693,-0.067
20.51,-0.293,1.3,-0.204
20.52,-0.16,0.9,0.1
20.53,-0.086,1.034,0.118
20.54,-0.287,0.647,0.008
20.55,-0.348,1.272,-0.183
20.56,-0.08,0.941,-0.053
20.57,-0.167,0.957,0.183
20.58,-0.106,0.916,0.094
20.59,-0.378,0.852,-0.198
20.6,-0.253,1.269,-0.074
20.61,0.008,0.762,0.117
20.62,-0.223,1.063,0.122
20.63,-0.269,0.744,-0.067
20.64,-0.343,1.173,-0.176
20.65,-0.11,1.034,0.102
20.66,-0.158,0.897,0.185
20.67,-0.23,0.925,0.009
20.68,-0.384,0.954,-0.178
20.69,-0.213,1.256,-0.046
20.7,-0.043,0.7,0.116
20.71,-0.175,1.051,0.14
20.72,-0.313,0.809,-0.159
20.73,-0.244,1.109,-0.11
20.74,-0.105,1.104,0.139
20.75,-0.133,0.724,0.133
20.76,-0.282,1.039,-0.005
20.77,-0.311,0.894,-0.245
20.78,-0.113,1.222,-0.015
20.79,-0.116,0.764,0.173
20.8,-0.182,0.981,0.099
20.81,-0.428,0.935,-0.209
20.82,-0.069,1.046,-0.087
20.83,-0.136,1.036,0.126
20.84,-0.259,0.684,0.205
20.85,-0.317,1.151,-0.109
20.86,-0.263,0.865,-0.196
20.87,-0.125,1.236,0.085
20.88,-0.099,0.692,0.126
20.89,-0.292,0.976,0.034
20.9,-0.439,1.084,-0.184
20.91,-0.069,0.924,-0.067
20.92,-0.177,1.092,0.159
20.93,-0.15,0.675,0.092
20.94,-0.429,1.184,-0.218
20.95,-0.119,0.861,-0.058
20.96,-0.168,1.202,0.165
20.97,-0.179,0.705,0.111
20.98,-0.249,0.932,-0.067
20.99,-0.281,1.098,-0.234
21.0,-0.155,0.908,0.071
21.01,-0.12,1.109,0.111
21.02,-0.148,0.594,0.015
21.03,-0.467,1.275,-0.176
21.04,-0.071,0.919,-0.049
21.05,-0.148,1.082,0.096
21.06,-0.194,0.812,0.16
21.07,-0.289,0.882,-0.164
21.08,-0.266,1.123,-0.178
21.09,-0.101,0.929,0.16
21.1,-0.147,1.056,0.092
21.11,-0.23,0.624,-0.048
21.12,-0.309,1.302,-0.2
21.13,-0.017,0.913,-0.034
21.14,-0.265,1.005,0.181
21.15,-0.032,0.854,0.089
21.16,-0.373,0.894,-0.203
21.17,-0.278,1.233,-0.064
21.18,0.004,0.815,0.13
21.19,-0.221,1.028,0.104
21.2,-0.252,0.716,-0.058
21.21,-0.292,1.248,-0.187
21.22,-0.152,0.92,0.057
21.23,-0.078,0.954,0.172
21.24,-0.131,0.906,-0.001
21.25,-0.442,0.88,-0.179
21.26,-0.077,1.25,-0.075
21.27,-0.017,0.75,0.088
21.28,-0.328,1.081,0.211
21.29,-0.293,0.729,-0.1
21.3,-0.269,1.185,-0.187
21.31,-0.045,1.036,0.087
21.32,-0.091,0.782,0.155
21.33,-0.365,0.984,-0.024
21.34,-0.274,0.904,-0.198
21.35,0.004,1.282,-0.08
21.36,-0.203,0.714,0.172
21.37,-0.161,1.056,0.045
21.38,-0.355,0.843,-0.235
21.39,-0.209,1.272,-0.011
21.4,-0.085,0.818,0.111
21.41,-0.206,0.864,0.156
21.42,-0.296,1.007,-0.107
21.43,-0.235,0.913,-0.173
21.44,-0.183,1.219,0.085
21.45,-0.022,0.674,0.12
21.46,-0.305,1.034,0.01
21.47,-0.396,0.899,-0.136
21.48,-0.082,1.164,-0.046
21.49,-0.148,0.847,0.123
21.5,-0.112,0.872,0.1
21.51,-0.397,1.083,-0.144
21.52,-0.234,0.888,-0.107
21.53,-0.072,1.24,0.077
21.54,-0.09,0.631,0.127
21.55,-0.346,1.058,-0.047
21.56,-0.28,0.933,-0.215
21.57,-0.063,1.086,0.006
21.58,-0.115,0.954,0.224
21.59,-0.156,0.783,0.015
21.6,-0.463,1.119,-0.242
21.61,-0.026,0.886,-0.058
21.62,-0.15,1.221,0.101
21.63,-0.174,0.647,0.152
21.64,-0.263,1.052,-0.137
21.65,-0.265,0.981,-0.178
21.66,-0.106,1.057,0.108
21.67,-0.073,0.942,0.108
21.68,-0.278,0.704,0.019
21.69,-0.42,1.268,-0.164
21.7,-0.086,0.859,-0.073
21.71,-0.167,1.074,0.129
21.72,-0.087,0.768,0.142
21.73,-0.404,1.059,-0.206
21.74,-0.303,0.952,-0.119
21.75,0.024,1.036,0.091
21.76,-0.128,0.996,0.093
21.77,-0.322,0.689,-0.013
21.78,-0.337,1.332,-0.21
21.79,-0.074,0.827,-0.01
21.8,-0.204,1.096,0.192
21.81,-0.083,0.745,0.064
21.82,-0.403,1.085,-0.221
21.83,-0.197,1.121,-0.028
21.84,-0.101,0.82,0.132
21.85,-0.2,1.036,0.172
21.86,-0.322,0.75,-0.105
21.87,-0.28,1.238,-0.163
21.88,-0.087,0.92,0.105
21.89,-0.136,0.986,0.128
21.9,-0.191,0.778,-0.019
21.91,-0.363,1.065,-0.207
21.92,-0.093,1.11,-0.067
21.93,-0.107,0.76,0.172
21.94,-0.192,1.067,0.125
21.95,-0.399,0.757,-0.161
21.96,-0.276,1.227,-0.063
21.97,-0.054,0.912,0.084
21.98,-0.067,0.913,0.144
21.99,-0.321,0.911,-0.015
22.0,-0.293,1.018,-0.23
22.01,-0.103,1.174,-0.003
22.02,-0.102,0.733,0.207
22.03,-0.187,1.023,0.086
22.04,-0.381,0.837,-0.224
22.05,-0.102,1.22,-0.028
22.06,-0.17,0.868,0.147
22.07,-0.309,0.817,0.195
22.08,-0.246,1.023,-0.074
22.09,-0.294,0.886,-0.214
22.1,-0.043,1.201,0.067
22.11,-0.055,0.683,0.14
22.12,-0.281,1.035,-0.005
22.13,-0.331,0.927,-0.133
22.14,-0.153,1.105,-0.042
22.15,-0.212,0.886,0.143
22.16,-0.069,0.826,0.109
22.17,-0.443,1.104,-0.158
22.18,-0.199,0.874,-0.085
22.19,-0.02,1.127,0.001
22.2,-0.154,0.638,0.143
22.21,-0.249,1.091,-0.076
22.22,-0.341,0.822,-0.177
22.23,-0.098,1.219,0.062
22.24,-0.093,0.812,0.154
22.25,-0.241,0.87,0.071
22.26,-0.422,1.087,-0.211
22.27,-0.093,0.933,-0.038
22.28,-0.165,1.079,0.105
22.29,-0.168,0.675,0.209
22.3,-0.365,1.157,-0.124
22.31,-0.308,0.866,-0.174
22.32,-0.144,1.177,0.175
22.33,-0.094,0.804,0.124
22.34,-0.267,0.845,-0.018
22.35,-0.355,1.182,-0.211
22.36,-0.072,0.878,0.009
22.37,-0.196,1.14,0.201
22.38,-0.109,0.646,0.113
22.39,-0.43,1.188,-0.207
22.4,-0.228,0.936,-0.021
22.41,-0.043,1.094,0.093
22.42,-0.231,0.866,0.167
22.43,-0.235,0.834,-0.096
22.44,-0.345,1.186,-0.178
22.45,-0.125,0.886,0.146
22.46,-0.185,1.108,0.174
22.47,-0.159,0.661,0.042
22.48,-0.403,1.305,-0.199
22.49,-0.208,0.951,0.017
22.5,-0.119,0.997,0.112
22.51,-0.151,0.949,0.124
22.52,-0.328,0.745,-0.143
22.53,-0.321,1.279,-0.127
22.54,0.029,0.859,0.015
22.55,-0.115,0.983,0.105
22.56,-0.195,0.73,0.065
22.57,-0.438,1.258,-0.213
22.58,-0.083,0.919,-0.022
22.59,-0.153,0.945,0.179
22.6,-0.073,0.979,0.025
22.61,-0.395,0.769,-0.196
22.62,-0.22,1.312,-0.048
22.63,-0.02,0.79,0.071
22.64,-0.199,0.979,0.16
22.65,-0.264,0.838,-0.001
22.66,-0.42,1.115,-0.192
22.67,-0.16,1.052,0.069
22.68,-0.089,0.919,0.172
22.69,-0.149,0.924,0.012
22.7,-0.386,0.841,-0.163
22.71,-0.118,1.36,-0.083
22.72,-0.087,0.675,0.046
22.73,-0.196,0.969,0.238
22.74,-0.359,0.884,-0.142
22.75,-0.262,0.96,-0.199
22.76,0.002,1.191,0.09
22.77,-0.067,0.724,0.141
22.78,-0.372,1.017,0.008
22.79,-0.263,0.897,-0.197
22.8,-0.099,1.279,-0.096
22.81,-0.182,0.723,0.195
22.82,-0.109,0.944,0.07
22.83,-0.403,0.983,-0.196
22.84,-0.237,0.972,-0.059
22.85,-0.082,1.163,0.045
22.86,-0.14,0.628,0.156
22.87,-0.362,1.157,-0.03
22.88,-0.283,0.822,-0.223
22.89,-0.163,1.195,0.066
22.9,-0.127,0.877,0.151
22.91,-0.166,0.847,-0.029
22.92,-0.395,1.117,-0.143
22.93,-0.201,0.953,-0.032
22.94,-0.132,1.09,0.098
22.95,-0.166,0.656,0.177
22.96,-0.356,1.148,-0.12
22.97,-0.189,0.795,-0.204
22.98,-0.155,1.219,0.16
22.99,-0.131,0.834,0.131
23.0,-0.289,0.961,0.006
23.01,-0.352,1.076,-0.21
23.02,-0.096,0.967,0.005
23.03,-0.268,1.073,0.179
23.04,-0.093,0.688,0.116
23.05,-0.449,1.219,-0.22
23.06,-0.122,0.858,-0.052
23.07,-0.052,1.197,0.072
23.08,-0.13,0.705,0.143
23.09,-0.269,0.996,-0.043
23.1,-0.323,1.031,-0.199
23.11,-0.182,0.968,0.115
23.12,-0.098,1.101,0.109
23.13,-0.163,0.622,0.035
23.14,-0.51,1.229,-0.177
23.15,-0.012,0.893,-0.076
23.16,-0.158,1.112,0.125
23.17,-0.113,0.762,0.182
23.18,-0.341,0.978,-0.145
23.19,-0.245,1.089,-0.181
23.2,-0.104,0.937,0.145
23.21,-0.147,1.05,0.13
23.22,-0.208,0.641,-0.006
23.23,-0.431,1.338,-0.173
23.24,-0.099,0.851,-0.003
23.25,-0.18,1.023,0.184
23.26,-0.133,0.842,0.135
23.27,-0.428,0.878,-0.177
23.28,-0.196,1.229,-0.049
23.29,-0.093,0.88,0.102
23.3,-0.24,1.023,0.18
23.31,-0.201,0.7,-0.03
23.32,-0.361,1.28,-0.232
23.33,-0.092,0.892,0.025
23.34,-0.119,1.012,0.162
23.35,-0.111,0.857,0.029
23.36,-0.443,0.913,-0.166
23.37,-0.171,1.275,-0.052
23.38,-0.08,0.739,0.073
23.39,-0.209,1.026,0.125
23.4,-0.241,0.799,-0.097
23.41,-0.332,1.154,-0.18
23.42,-0.119,0.996,0.139
23.43,-0.031,0.878,0.099
23.44,-0.29,0.927,-0.02
23.45,-0.327,0.904,-0.161
23.46,-0.114,1.299,-0.065
23.47,-0.196,0.694,0.107
23.48,-0.062,1.048,0.099
23.49,-0.369,0.877,-0.193
23.5,-0.302,1.092,-0.037
23.51,0.006,1.078,0.092
23.52,-0.175,0.699,0.124
23.53,-0.354,1.056,0.018
23.54,-0.292,0.912,-0.249
23.55,-0.11,1.181,-0.018
23.56,-0.105,0.758,0.233
23.57,-0.159,0.974,0.057
23.58,-0.41,0.934,-0.228
23.59,-0.081,1.036,-0.049
23.6,-0.166,1.033,0.119
23.61,-0.17,0.672,0.162
23.62,-0.314,1.213,-0.075
23.63,-0.316,0.831,-0.155
23.64,-0.156,1.227,0.117
23.65,-0.077,0.788,0.165
23.66,-0.28,0.918,0.02
23.67,-0.339,1.064,-0.204
23.68,-0.172,0.976,-0.013
23.69,-0.273,1.025,0.14
23.7,-0.04,0.673,0.168
23.71,-0.459,1.217,-0.176
23.72,-0.179,0.804,-0.112
23.73,-0.128,1.278,0.13
23.74,-0.125,0.71,0.147
23.75,-0.294,0.926,-0.017
23.76,-0.279,1.146,-0.252
23.77,-0.084,0.881,0.002
23.78,-0.184,1.138,0.172
23.79,-0.102,0.662,0.084
23.8,-0.487,1.21,-0.204
23.81,-0.057,0.904,-0.069
23.82,-0.133,1.157,0.065
23.83,-0.164,0.666,0.184
23.84,-0.36,1.052,-0.124
23.85,-0.269,0.984,-0.198
23.86,-0.039,1.036,0.068
23.87,-0.128,0.941,0.155
23.88,-0.258,0.704,0.012
23.89,-0.369,1.315,-0.24
23.9,-0.091,0.794,-0.029
23.91,-0.184,1.162,0.181
23.92,-0.111,0.735,0.094
23.93,-0.428,1.044,-0.156
23.94,-0.258,1.075,-0.146
23.95,-0.002,0.947,0.067
23.96,-0.17,1.001,0.089
23.97,-0.221,0.688,-0.052
23.98,-0.367,1.319,-0.178
23.99,-0.055,0.855,0.024
24.0,-0.218,1.077,0.188
24.01,-0.112,0.755,0.054
24.02,-0.42,1.036,-0.199
24.03,-0.132,1.131,-0.034
24.04,-0.091,0.838,0.12
24.05,-0.174,1.026,0.121
24.06,-0.278,0.711,-0.101
24.07,-0.305,1.258,-0.154
24.08,-0.112,0.939,0.132
24.09,-0.069,0.96,0.121
24.1,-0.261,0.83,-0.012
24.11,-0.368,1.054,-0.159
24.12,-0.131,1.132,-0.009
24.13,-0.182,0.699,0.196
24.14,-0.119,1.089,0.102
24.15,-0.373,0.786,-0.228
24.16,-0.243,1.189,-0.055
24.17,-0.048,0.933,0.092
24.18,-0.171,0.817,0.126
24.19,-0.283,0.988,-0.024
24.2,-0.328,1.014,-0.152
24.21,-0.219,1.155,0.018
24.22,-0.037,0.715,0.175
24.23,-0.225,1.053,0.029
24.24,-0.489,0.858,-0.164
24.25,-0.128,1.192,-0.029
24.26,-0.206,0.866,0.117
24.27,-0.115,0.848,0.163
24.28,-0.365,1.033,-0.155
24.29,-0.242,0.895,-0.077
24.3,-0.133,1.272,0.143
24.31,-0.156,0.631,0.158
24.32,-0.302,1.035,-0.023
24.33,-0.251,0.939,-0.245
24.34,-0.082,1.113,0.011
24.35,-0.126,0.883,0.155
24.36,-0.143,0.785,0.07
24.37,-0.392,1.154,-0.222
24.38,-0.106,0.919,-0.054
24.39,-0.155,1.166,0.105
24.4,-0.181,0.665,0.175
24.41,-0.291,1.05,-0.104
24.42,-0.265,0.951,-0.208
24.43,-0.086,1.112,0.102
24.44,-0.057,0.943,0.092
24.45,-0.282,0.689,0.005
24.46,-0.385,1.285,-0.146
24.47,-0.08,0.885,-0.058
24.48,-0.251,1.111,0.19
24.49,-0.022,0.723,0.129
24.5,-0.466,1.037,-0.222
24.51,-0.244,0.98,-0.118
24.52,0.032,1.081,0.06
24.53,-0.164,0.931,0.108
24.54,-0.276,0.727,0.028
24.55,-0.291,1.334,-0.211
24.56,-0.164,0.837,0.025
24.57,-0.104,1.12,0.179
24.58,-0.03,0.7,0.012
24.59,-0.556,1.097,-0.181
24.6,-0.016,1.132,-0.092
24.61,-0.143,0.832,0.094
24.62,-0.212,0.976,0.206
24.63,-0.252,0.729,-0.142
24.64,-0.307,1.157,-0.116
24.65,0.014,0.915,0.106
24.66,-0.18,1.052,0.101
24.67,-0.217,0.656,0.017
24.68,-0.352,1.271,-0.207
24.69,-0.056,0.979,-0.036
24.7,-0.23,0.957,0.208
24.71,-0.092,0.937,0.058
24.72,-0.423,0.844,-0.182
24.73,-0.188,1.303,-0.06
24.74,-0.003,0.813,0.123
24.75,-0.3,0.993,0.167
24.76,-0.187,0.786,-0.064
24.77,-0.356,1.17,-0.164
24.78,-0.198,1.027,0.148
24.79,-0.062,0.871,0.145
24.8,-0.258,0.976,-0.063
24.81,-0.372,0.853,-0.151
24.82,-0.156,1.282,-0.017
24.83,-0.184,0.713,0.132
24.84,-0.09,1.022,0.115
24.85,-0.283,0.892,-0.225
24.86,-0.321,1.079,-0.045
24.87,-0.057,1.12,0.106
24.88,-0.161,0.671,0.111
24.89,-0.29,1.087,-0.054
24.9,-0.333,0.852,-0.184
24.91,-0.226,1.244,0.054
24.92,-0.103,0.795,0.16
24.93,-0.156,0.914,0.052
24.94,-0.337,0.995,-0.183
24.95,-0.096,1.043,-0.133
24.96,-0.15,0.985,0.085
24.97,-0.07,0.701,0.165
24.98,-0.428,1.146,-0.098
24.99,-0.268,0.797,-0.169
25.0,-0.058,1.289,0.081
25.01,-0.121,0.763,0.125
25.02,-0.221,0.862,-0.013
25.03,-0.354,1.177,-0.157
25.04,-0.17,0.923,-0.02
25.05,-0.205,1.027,0.167
25.06,-0.002,0.712,0.09
25.07,-0.473,1.141,-0.195
25.08,-0.201,0.881,-0.02
25.09,-0.081,1.23,0.09
25.1,-0.175,0.752,0.07
25.11,-0.188,0.899,-0.011
25.12,-0.311,1.194,-0.254
25.13,-0.162,0.88,0.054
25.14,-0.033,1.125,0.149
25.15,-0.143,0.626,0.004
25.16,-0.511,1.258,-0.142
25.17,-0.066,0.944,-0.075
25.18,-0.239,0.986,0.112
25.19,-0.165,0.865,0.239
25.2,-0.381,0.844,-0.16
25.21,-0.318,1.092,-0.153
25.22,0.042,0.961,0.061
25.23,-0.13,1.033,0.074
25.24,-0.235,0.672,0.072
25.25,-0.336,1.362,-0.236
25.26,-0.132,0.886,-0.04
25.27,-0.124,0.969,0.2
25.28,-0.108,0.903,0.056
25.29,-0.478,0.809,-0.193
25.3,-0.171,1.318,0.001
25.31,-0.097,0.812,0.129
25.32,-0.29,0.978,0.184
25.33,-0.141,0.784,-0.017
25.34,-0.404,1.185,-0.199
25.35,-0.165,0.938,0.108
25.36,-0.014,0.977,0.121
25.37,-0.175,0.896,-0.014
25.38,-0.418,0.862,-0.122
25.39,-0.109,1.33,-0.093
25.4,-0.138,0.676,0.138
25.41,-0.172,1.054,0.196
25.42,-0.334,0.823,-0.187
25.43,-0.31,0.988,-0.163
25.44,0.023,1.023,0.032
25.45,-0.196,0.784,0.069
25.46,-0.115,0.942,0.005
25.47,-0.393,1.057,-0.185
25.48,-0.24,1.102,0.024
25.49,0.041,0.771,0.158
25.5,-0.304,1.027,0.065
25.51,-0.336,0.802,-0.156
25.52,-0.121,1.266,-0.123
25.53,-0.088,0.858,0.055
25.54,-0.179,0.823,0.212
25.55,-0.256,1.053,-0.09
25.56,-0.329,0.862,-0.192
25.57,-0.02,1.251,0.078
25.58,-0.144,0.696,0.16
25.59,-0.294,1.008,0.026
25.6,-0.367,0.952,-0.146
25.61,-0.191,1.161,-0.011
25.62,-0.282,0.833,0.126
25.63,-0.022,0.844,0.14
25.64,-0.437,1.075,-0.208
25.65,-0.282,0.821,-0.029
25.66,0.052,1.327,0.05
25.67,-0.135,0.61,0.09
25.68,-0.29,1.071,0.073
25.69,-0.325,1.021,-0.232
25.7,-0.222,0.972,-0.03
25.71,-0.042,1.021,0.178
25.72,-0.099,0.769,0.049
25.73,-0.566,1.125,-0.161
25.74,-0.063,1.034,0.114
25.75,-0.391,0.753,-0.209
25.76,-0.161,1.278,-0.046
25.77,-0.115,0.902,0.092
25.78,-0.184,0.908,0.139
25.79,-0.129,0.856,-0.034
25.8,-0.402,1.113,-0.206
25.81,-0.209,1.07,0.024
25.82,-0.024,0.896,0.114
25.83,-0.271,1.004,0.075
25.84,-0.362,0.783,-0.153
25.85,-0.096,1.317,-0.071
25.86,-0.087,0.784,0.08
25.87,-0.199,0.924,0.162
25.88,-0.274,0.938,-0.094
25.89,-0.307,0.976,-0.201
25.9,-0.165,1.174,0.114
25.91,-0.066,0.726,0.141
25.92,-0.267,1.052,0.012
25.93,-0.398,0.909,-0.12
25.94,-0.168,1.239,-0.031
25.95,-0.252,0.766,0.171
25.96,-0.073,0.927,0.146
25.97,-0.358,1.009,-0.222
25.98,-0.274,0.89,-0.045
25.99,-0.102,1.315,0.074
26.0,-0.098,0.578,0.101
26.01,-0.273,1.101,0.026
26.02,-0.303,0.95,-0.209
26.03,-0.16,1.074,-0.03
26.04,-0.146,0.881,0.254
26.05,-0.146,0.855,0.089
26.06,-0.44,1.047,-0.241
26.07,-0.076,0.926,-0.032
26.08,-0.176,1.247,0.072
26.09,-0.198,0.552,0.189
26.1,-0.226,1.13,-0.074
26.11,-0.285,0.912,-0.222
26.12,-0.145,1.118,0.103
26.13,-0.105,0.915,0.153
26.14,-0.229,0.738,0.032
26.15,-0.407,1.239,-0.208
26.16,-0.051,0.855,-0.098
26.17,-0.204,1.165,0.138
26.18,-0.091,0.683,0.158
26.19,-0.351,1.054,-0.163
26.2,-0.284,0.872,-0.076
26.21,-0.083,1.241,0.079
26.22,-0.102,0.698,0.093
26.23,-0.236,0.927,0.026
26.24,-0.378,1.189,-0.238
26.25,-0.095,0.842,-0.016
26.26,-0.161,1.159,0.164
26.27,-0.11,0.672,0.072
26.28,-0.458,1.167,-0.173
26.29,-0.177,0.915,-0.024
26.3,-0.105,1.173,0.081
26.31,-0.192,0.743,0.126
26.32,-0.25,0.897,-0.045
26.33,-0.343,1.241,-0.204
26.34,-0.066,0.827,0.053
26.35,-0.154,1.198,0.152
26.36,-0.18,0.596,0.015
26.37,-0.46,1.211,-0.165
26.38,-0.081,1.043,-0.038
26.39,-0.165,0.947,0.1
26.4,-0.176,0.907,0.193
26.41,-0.392,0.85,-0.132
26.42,-0.331,1.166,-0.147
26.43,0.008,0.916,0.076
26.44,-0.122,1.058,0.111
26.45,-0.267,0.684,0.043
26.46,-0.341,1.235,-0.205
26.47,-0.115,0.965,-0.053
26.48,-0.19,0.925,0.175
26.49,-0.218,0.952,0.118
26.5,-0.4,0.825,-0.199
26.51,-0.16,1.296,-0.048
26.52,-0.083,0.748,0.079
26.53,-0.166,1.049,0.191
26.54,-0.281,0.804,-0.105
26.55,-0.295,1.031,-0.178
26.56,-0.092,1.088,0.13
26.57,-0.088,0.88,0.133
26.58,-0.22,0.97,0.006
26.59,-0.371,0.902,-0.144
26.6,-0.198,1.274,-0.075
26.61,-0.062,0.725,0.159
26.62,-0.199,1.019,0.172
26.63,-0.32,0.855,-0.181
26.64,-0.276,1.019,-0.111
26.65,-0.045,1.138,0.068
26.66,-0.123,0.708,0.148
26.67,-0.319,1.076,0.028
26.68,-0.338,0.922,-0.258
26.69,-0.087,1.157,-0.049
26.7,-0.129,0.819,0.207
26.71,-0.216,0.931,0.094
26.72,-0.328,0.928,-0.192
26.73,-0.17,1.108,-0.04
26.74,-0.168,1.039,0.107
26.75,-0.179,0.67,0.185
26.76,-0.31,1.138,-0.089
26.77,-0.263,0.778,-0.227
26.78,-0.108,1.282,0.148
26.79,-0.145,0.835,0.141
26.8,-0.229,0.849,0.01
26.81,-0.356,1.098,-0.169
26.82,-0.188,0.965,-0.06
26.83,-0.198,1.054,0.149
26.84,-0.12,0.722,0.162
26.85,-0.389,1.116,-0.171
26.86,-0.261,0.838,-0.098
26.87,-0.003,1.269,0.05
26.88,-0.146,0.734,0.097
26.89,-0.205,0.877,0.047
26.9,-0.397,1.219,-0.263
26.91,-0.123,0.782,-0.022
26.92,-0.129,1.18,0.189
26.93,-0.159,0.691,0.083
26.94,-0.427,1.129,-0.158
26.95,-0.115,0.932,-0.063
26.96,-0.15,1.116,0.101
26.97,-0.119,0.825,0.151
26.98,-0.294,0.843,-0.032
26.99,-0.375,1.168,-0.243
27.0,-0.08,0.848,0.047
27.01,-0.134,1.227,0.146
27.02,-0.137,0.614,-0.012
27.03,-0.451,1.298,-0.139
27.04,-0.133,0.913,-0.055
27.05,-0.158,1.058,0.097
27.06,-0.054,0.784,0.133
27.07,-0.433,0.978,-0.144
27.08,-0.281,1.097,-0.081
27.09,-0.069,1.008,0.076
27.1,-0.188,0.992,0.091
27.11,-0.162,0.72,0.018
27.12,-0.465,1.316,-0.212
27.13,-0.151,0.776,-0.035
27.14,-0.061,1.129,0.151
27.15,-0.168,0.803,0.053
27.16,-0.391,0.926,-0.13
27.17,-0.15,1.284,-0.093
27.18,-0.173,0.746,0.071
27.19,-0.187,1.049,0.213
27.2,-0.2,0.741,-0.09
27.21,-0.471,1.233,-0.236
27.22,-0.051,0.919,0.12
27.23,-0.086,1.024,0.099
27.24,-0.209,0.82,0.054
27.25,-0.371,1.021,-0.165
27.26,-0.157,1.205,-0.131
27.27,-0.152,0.702,0.104
27.28,-0.126,1.111,0.187
27.29,-0.41,0.703,-0.155
27.3,-0.255,1.045,-0.173
27.31,0.086,1.138,0.105
27.32,-0.293,0.834,0.14
27.33,-0.212,0.883,0.076
27.34,-0.251,1.041,-0.192
27.35,-0.228,1.207,-0.053
27.36,-0.119,0.688,0.162
27.37,-0.103,1.052,0.079
27.38,-0.425,0.756,-0.215
27.39,-0.194,1.172,-0.036
27.4,-0.084,1.081,0.079
27.41,-0.2,0.677,0.127
27.42,-0.252,1.074,0.036
27.43,-0.321,0.927,-0.238
27.44,-0.147,1.14,-0.009
27.45,-0.042,0.843,0.189
27.46,-0.227,0.968,0.04
27.47,-0.361,0.847,-0.143
27.48,-0.102,1.199,-0.038
27.49,-0.222,0.956,0.079
27.5,-0.177,0.699,0.229
27.51,-0.262,1.157,-0.166
27.52,-0.337,0.771,-0.205
27.53,-0.11,1.281,0.169
27.54,-0.079,0.812,0.108
27.55,-0.208,0.928,-0.031
27.56,-0.335,1.033,-0.137
27.57,-0.159,1.013,-0.064
27.58,-0.297,0.993,0.189
27.59,-0.051,0.755,0.113
27.6,-0.426,1.12,-0.209
27.61,-0.262,0.789,-0.033
27.62,-0.012,1.341,0.06
27.63,-0.209,0.619,0.143
27.64,-0.256,0.959,0.103
27.65,-0.415,1.146,-0.269
27.66,-0.151,0.822,-0.021
27.67,-0.036,1.165,0.171
27.68,-0.178,0.666,0.048
27.69,-0.439,1.152,-0.155
27.7,-0.069,0.971,-0.024
27.71,-0.242,1.19,0.109
27.72,-0.18,0.688,0.145
27.73,-0.157,0.958,-0.041
27.74,-0.448,1.124,-0.188
27.75,-0.193,0.837,0.12
27.76,-0.04,1.22,0.087
27.77,-0.165,0.615,0.035
27.78,-0.388,1.249,-0.198
27.79,-0.056,1.0,-0.12
27.8,-0.201,1.0,0.09
27.81,-0.108,0.853,0.214
27.82,-0.309,0.895,-0.154
27.83,-0.331,1.067,-0.18
27.84,-0.023,1.111,0.054
27.85,-0.132,0.952,0.083
27.86,-0.236,0.658,0.056
27.87,-0.357,1.419,-0.239
27.88,-0.167,0.785,0.006
27.89,-0.264,1.125,0.199
27.9,-0.042,0.766,0.076
27.91,-0.47,0.941,-0.252
27.92,-0.154,1.125,-0.027
27.93,-0.069,1.0,0.076
27.94,-0.22,0.884,0.116
27.95,-0.208,0.731,0.021
27.96,-0.36,1.352,-0.24
27.97,-0.104,0.801,-0.041
27.98,-0.098,1.113,0.184
27.99,-0.088,0.785,0.027
28.0,-0.468,0.979,-0.145
28.01,-0.105,1.219,-0.087
28.02,-0.088,0.786,0.099
28.03,-0.225,1.039,0.213
28.04,-0.255,0.762,-0.13
28.05,-0.334,1.163,-0.188
28.06,-0.172,0.936,0.141
28.07,-0.097,1.015,0.15
28.08,-0.205,0.813,-0.019
28.09,-0.4,0.999,-0.115
28.1,-0.151,1.232,-0.063
28.11,-0.168,0.71,0.123
28.12,-0.076,1.073,0.125
28.13,-0.268,0.785,-0.204
28.14,-0.343,1.211,-0.072
28.15,-0.033,0.999,0.055
28.16,-0.105,0.817,0.09
28.17,-0.256,0.945,-0.019
28.18,-0.333,0.988,-0.207
28.19,-0.063,1.177,-0.046
28.2,-0.182,0.723,0.163
28.21,-0.199,1.003,0.12
28.22,-0.345,0.847,-0.172
28.23,-0.221,1.139,-0.055
28.24,-0.186,0.985,0.119
28.25,-0.138,0.75,0.114
28.26,-0.26,1.063,-0.05
28.27,-0.289,0.845,-0.235
28.28,-0.036,1.24,0.001
28.29,-0.108,0.78,0.18
28.3,-0.202,0.964,0.059
28.31,-0.384,0.885,-0.214
28.32,-0.044,1.147,-0.081
28.33,-0.208,0.96,0.1
28.34,-0.197,0.716,0.207
28.35,-0.293,1.153,-0.125
28.36,-0.363,0.802,-0.172
28.37,-0.064,1.267,0.145
28.38,-0.014,0.782,0.089
28.39,-0.28,0.935,0.018
28.4,-0.364,1.009,-0.14
28.41,-0.06,1.072,-0.109
28.42,-0.174,0.98,0.124
28.43,-0.101,0.774,0.18
28.44,-0.474,1.148,-0.215
28.45,-0.26,0.804,-0.097
28.46,-0.034,1.329,0.08
28.47,-0.121,0.648,0.081
28.48,-0.269,0.968,0.051
28.49,-0.312,1.107,-0.232
28.5,-0.127,0.844,-0.021
28.51,-0.127,1.104,0.181
28.52,-0.138,0.682,0.104
28.53,-0.517,1.208,-0.192
28.54,-0.161,0.898,-0.017
28.55,-0.069,1.129,0.045
28.56,-0.173,0.722,0.159
28.57,-0.295,0.955,-0.038
28.58,-0.246,1.106,-0.236
28.59,-0.144,0.884,0.09
28.6,-0.086,1.169,0.137
28.61,-0.157,0.558,-0.014
28.62,-0.474,1.271,-0.146
28.63,0.001,0.996,-0.084
28.64,-0.228,0.985,0.079
28.65,-0.042,0.775,0.174
28.66,-0.401,1.08,-0.214
28.67,-0.335,0.942,-0.043
28.68,0.007,1.07,0.101
28.69,-0.165,1.015,0.057
28.7,-0.227,0.692,0.033
28.71,-0.337,1.294,-0.171
28.72,-0.145,0.864,-0.012
28.73,-0.208,1.091,0.222
28.74,-0.06,0.75,0.058
28.75,-0.47,1.031,-0.177
28.76,-0.196,1.121,-0.049
28.77,-0.03,0.914,0.09
28.78,-0.235,1.0,0.153
28.79,-0.147,0.722,-0.115
28.8,-0.354,1.31,-0.158
28.81,-0.164,0.855,0.09
28.82,0.005,1.065,0.108
28.83,-0.172,0.772,-0.018
28.84,-0.467,1.034,-0.115
28.85,-0.206,1.177,-0.044
28.86,-0.135,0.763,0.092
28.87,-0.116,1.11,0.179
28.88,-0.323,0.707,-0.144
28.89,-0.348,1.185,-0.185
28.9,0.055,0.97,0.076
28.91,-0.146,0.922,0.106
28.92,-0.246,0.88,0.025
28.93,-0.352,1.053,-0.181
28.94,-0.169,1.106,-0.01
28.95,-0.186,0.743,0.206
28.96,-0.159,1.072,0.082
28.97,-0.325,0.772,-0.209
28.98,-0.266,1.179,-0.067
28.99,0.02,0.971,0.088
29.0,-0.174,0.802,0.092
29.01,-0.295,0.962,0.008
29.02,-0.283,0.98,-0.23
29.03,-0.149,1.157,0.051
29.04,-0.124,0.751,0.214
29.05,-0.18,1.012,-0.037
29.06,-0.316,0.844,-0.188
29.07,-0.199,1.218,-0.008
29.08,-0.124,0.878,0.12
29.09,-0.193,0.778,0.163
29.1,-0.245,1.12,-0.114
29.11,-0.302,0.857,-0.156
29.12,-0.191,1.237,0.19
29.13,-0.059,0.71,0.117
29.14,-0.338,0.981,-0.046
29.15,-0.315,0.98,-0.173
29.16,-0.105,1.119,-0.036
29.17,-0.301,0.906,0.155
29.18,-0.028,0.767,0.129
29.19,-0.42,1.163,-0.197
29.2,-0.232,0.815,-0.083
29.21,-0.005,1.269,0.057
29.22,-0.119,0.66,0.101
29.23,-0.262,1.02,0.014
29.24,-0.327,1.039,-0.228
29.25,-0.183,0.922,0.026
29.26,-0.041,1.082,0.181
29.27,-0.167,0.689,0.008
29.28,-0.467,1.214,-0.175
29.29,-0.026,0.887,-0.093
29.3,-0.161,1.146,0.077
29.31,-0.053,0.74,0.196
29.32,-0.358,0.977,-0.148
29.33,-0.307,1.024,-0.14
29.34,-0.072,1.073,0.119
29.35,-0.198,0.972,0.109
29.36,-0.206,0.675,0.023
29.37,-0.312,1.379,-0.237
29.38,-0.144,0.8,-0.018
29.39,-0.177,1.037,0.214
29.4,-0.058,0.832,0.115
29.41,-0.413,0.926,-0.237
29.42,-0.226,1.117,-0.027
29.43,-0.07,0.947,0.117
29.44,-0.207,0.993,0.097
29.45,-0.141,0.745,0.001
29.46,-0.446,1.315,-0.234
29.47,-0.201,0.83,0.154
29.48,-0.087,1.187,0.133
29.49,-0.176,0.625,0.003
29.5,-0.385,1.169,-0.137
29.51,-0.159,1.077,-0.086
29.52,-0.167,0.804,0.115
29.53,-0.121,1.014,0.178
29.54,-0.329,0.776,-0.19
29.55,-0.335,1.209,-0.144
29.56,-0.023,0.91,0.126
29.57,-0.189,1.022,0.149
29.58,-0.328,0.754,0.037
29.59,-0.224,1.151,-0.222
29.6,-0.149,1.06,-0.041
29.61,-0.212,0.815,0.216
29.62,-0.158,1.031,0.091
29.63,-0.428,0.722,-0.18
29.64,-0.177,1.324,-0.04
29.65,-0.099,0.887,0.084
29.66,-0.292,0.843,0.156
29.67,-0.142,0.889,-0.011
29.68,-0.36,1.057,-0.257
29.69,-0.158,1.1,0.064
29.7,-0.054,0.827,0.156
29.71,-0.217,0.981,-0.014
29.72,-0.407,0.835,-0.088
29.73,-0.085,1.308,-0.117
29.74,-0.134,0.737,0.076
29.75,-0.188,0.917,0.229
29.76,-0.26,1.031,-0.164
29.77,-0.319,0.865,-0.191
29.78,-0.023,1.24,0.112
29.79,-0.059,0.777,0.122
29.8,-0.311,1.001,-0.013
29.81,-0.325,0.92,-0.119
29.82,-0.221,1.215,-0.01
29.83,-0.224,0.818,0.181
29.84,-0.125,0.902,0.148
29.85,-0.425,1.036,-0.152
29.86,-0.288,0.841,-0.089
29.87,-0.028,1.293,0.062
29.88,-0.111,0.614,0.109
29.89,-0.266,1.046,0.006
29.9,-0.302,0.97,-0.185
29.91,-0.153,1.08,-0.024
29.92,-0.153,0.884,0.173
29.93,-0.144,0.791,0.082
29.94,-0.446,1.146,-0.249
29.95,-0.095,0.869,-0.029
29.96,-0.196,1.241,0.126
29.97,-0.162,0.566,0.177
29.98,-0.203,1.117,-0.11
29.99,-0.352,0.921,-0.151
30.0,-0.111,1.052,0.076
30.01,-0.141,1.081,0.179
30.02,-0.186,0.663,0.011
30.03,-0.427,1.222,-0.198
30.04,-0.037,0.938,-0.104
30.05,-0.17,1.14,0.041
30.06,-0.071,0.703,0.193
30.07,-0.36,1.083,-0.16
30.08,-0.279,0.921,-0.169
30.09,-0.04,1.044,0.136
30.1,-0.216,1.012,0.11
30.11,-0.196,0.649,-0.006
30.12,-0.357,1.339,-0.177
30.13,-0.171,0.859,-0.006
30.14,-0.28,1.078,0.185
30.15,0.015,0.768,0.116
30.16,-0.493,1.011,-0.177
30.17,-0.208,1.025,-0.077
30.18,-0.03,1.012,0.047
30.19,-0.17,0.963,0.132
30.2,-0.24,0.711,-0.01
30.21,-0.321,1.326,-0.26
30.22,-0.098,0.836,-0.025
30.23,-0.125,1.112,0.179
30.24,-0.121,0.758,0.038
30.25,-0.456,1.01,-0.184
30.26,-0.097,1.213,-0.056
30.27,-0.068,0.828,0.069
30.28,-0.145,0.95,0.223
30.29,-0.275,0.799,-0.145
30.3,-0.416,1.182,-0.153
30.31,0.073,0.929,0.061
30.32,-0.155,1.072,0.103
30.33,-0.257,0.672,0.072
30.34,-0.322,1.205,-0.199
30.35,-0.119,0.998,-0.035
30.36,-0.272,0.882,0.236
30.37,-0.07,1.03,0.126
30.38,-0.358,0.747,-0.249
30.39,-0.353,1.25,-0.014
30.4,0.004,0.902,0.095
30.41,-0.194,0.939,0.103
30.42,-0.223,0.791,0.061
30.43,-0.348,1.147,-0.207
30.44,-0.195,1.03,0.004
30.45,-0.126,0.866,0.204
30.46,-0.125,1.018,0.074
30.47,-0.416,0.779,-0.197
30.48,-0.148,1.307,-0.07
30.49,-0.096,0.779,0.071
30.5,-0.246,0.905,0.203
30.51,-0.171,0.913,-0.097
30.52,-0.338,0.979,-0.185
30.53,-0.201,1.143,0.125
30.54,-0.082,0.774,0.127
30.55,-0.228,1.032,-0.001
30.56,-0.331,0.865,-0.197
30.57,-0.12,1.211,-0.1
30.58,-0.165,0.799,0.092
30.59,-0.047,0.914,0.167
30.6,-0.314,0.994,-0.164
30.61,-0.33,0.897,-0.097
30.62,-0.056,1.256,0.091
30.63,-0.108,0.66,0.063
30.64,-0.326,1.102,0.103
30.65,-0.316,0.93,-0.248
30.66,-0.156,1.071,-0.039
30.67,-0.129,0.909,0.181
30.68,-0.078,0.847,0.104
30.69,-0.43,0.984,-0.158
30.7,-0.241,0.905,-0.043
30.71,-0.044,1.325,0.009
30.72,-0.086,0.584,0.113
30.73,-0.302,1.105,0.03
30.74,-0.325,0.962,-0.24
30.75,-0.139,1.034,-0.053
30.76,-0.065,0.97,0.188
30.77,-0.18,0.76,0.11
30.78,-0.403,1.105,-0.188
30.79,-0.128,0.9,-0.007
30.8,-0.139,1.229,0.053
30.81,-0.102,0.587,0.132
30.82,-0.321,1.131,-0.032
30.83,-0.289,0.96,-0.235
30.84,-0.162,1.016,-0.007
30.85,-0.031,0.998,0.143
30.86,-0.131,0.702,0.052
30.87,-0.49,1.267,-0.185
30.88,-0.105,0.849,-0.108
30.89,-0.164,1.148,0.025
30.9,-0.057,0.733,0.256
30.91,-0.356,1.068,-0.171
30.92,-0.291,0.906,-0.162
30.93,-0.118,1.068,0.149
30.94,-0.141,1.042,0.15
30.95,-0.277,0.64,0.036
30.96,-0.297,1.349,-0.244
30.97,-0.112,0.824,-0.045
30.98,-0.343,1.122,0.21
30.99,0.084,0.734,0.088
31.0,-0.465,1.036,-0.195
31.01,-0.228,1.041,-0.084
31.02,0.021,1.022,0.018
31.03,-0.097,0.933,0.096
31.04,-0.232,0.664,0.083
31.05,-0.373,1.399,-0.234
31.06,-0.097,0.829,-0.059
31.07,-0.232,1.114,0.247
31.08,-0.129,0.776,0.117
31.09,-0.428,0.942,-0.181
31.1,-0.099,1.092,-0.055
31.11,-0.183,0.924,0.05
31.12,-0.14,0.887,0.154
31.13,-0.21,0.791,-0.086
31.14,-0.387,1.216,-0.198
31.15,-0.125,0.821,0.107
31.16,-0.06,1.235,0.069
31.17,-0.163,0.657,0.039
31.18,-0.46,1.111,-0.106
31.19,-0.088,1.142,-0.083
31.2,-0.138,0.863,0.067
31.21,-0.15,1.017,0.195
31.22,-0.299,0.779,-0.142
31.23,-0.336,1.164,-0.156
31.24,-0.095,0.933,0.123
31.25,-0.149,1.039,0.145
31.26,-0.17,0.758,0.018
31.27,-0.375,1.11,-0.168
31.28,-0.175,1.138,-0.076
31.29,-0.118,0.737,0.105
31.3,-0.128,1.115,0.147
31.31,-0.3,0.774,-0.16
31.32,-0.304,1.196,-0.136
31.33,-0.037,0.951,0.101
31.34,-0.15,0.883,0.134
31.35,-0.283,0.861,0.066
31.36,-0.384,1.067,-0.168
31.37,-0.126,1.097,-0.113
31.38,-0.121,0.803,0.173
31.39,-0.162,1.072,0.063
31.4,-0.335,0.734,-0.202
31.41,-0.209,1.267,-0.042
31.42,-0.071,0.935,0.054
31.43,-0.149,0.776,0.123
31.44,-0.227,0.999,-0.009
31.45,-0.338,0.983,-0.229
31.46,-0.168,1.104,0.004
31.47,-0.047,0.845,0.196
31.48,-0.268,1.04,0.049
31.49,-0.364,0.741,-0.145
31.5,-0.031,1.294,-0.09
31.51,-0.205,0.88,0.092
31.52,-0.199,0.737,0.206
31.53,-0.175,1.063,-0.097
31.54,-0.362,0.892,-0.19
31.55,-0.137,1.256,0.104
31.56,-0.039,0.75,0.121
31.57,-0.287,0.999,-0.016
31.58,-0.337,0.908,-0.126
31.59,-0.153,1.126,-0.055
31.6,-0.222,0.896,0.112
31.61,-0.084,0.8,0.183
31.62,-0.377,1.099,-0.139
31.63,-0.325,0.767,-0.108
31.64,-0.016,1.304,0.106
31.65,-0.149,0.671,0.14
31.66,-0.363,0.97,0.059
31.67,-0.242,1.031,-0.207
31.68,-0.123,0.998,-0.075
31.69,-0.218,0.956,0.216
31.7,-0.04,0.756,0.041
31.71,-0.411,1.126,-0.192
31.72,-0.252,0.826,0.007
31.73,-0.068,1.321,0.07
31.74,-0.097,0.636,0.139
31.75,-0.342,1.007,0.024
31.76,-0.268,1.07,-0.234
31.77,-0.134,0.916,-0.007
31.78,-0.203,1.074,0.227
31.79,-0.089,0.701,0.051
31.8,-0.483,1.19,-0.184
31.81,-0.094,0.905,-0.015
31.82,-0.102,1.198,0.079
31.83,-0.198,0.665,0.206
31.84,-0.211,0.993,-0.092
31.85,-0.339,1.116,-0.195
31.86,-0.17,0.936,0.106
31.87,-0.097,1.125,0.114
31.88,-0.153,0.596,-0.001
31.89,-0.498,1.29,-0.126
31.9,-0.054,0.927,-0.077
31.91,-0.156,1.062,0.101
31.92,-0.031,0.713,0.17
31.93,-0.454,1.078,-0.165
31.94,-0.263,0.945,-0.121
31.95,-0.038,1.106,0.05
31.96,-0.123,0.903,0.095
31.97,-0.207,0.708,0.011
31.98,-0.364,1.325,-0.228
31.99,-0.117,0.773,0.017
32.0,-0.194,1.125,0.193
32.01,-0.028,0.769,0.058
32.02,-0.422,1.042,-0.199
32.03,-0.177,1.099,-0.034
32.04,-0.088,0.921,0.076
32.05,-0.168,0.958,0.15
32.06,-0.252,0.75,-0.03
32.07,-0.395,1.278,-0.208
32.08,-0.108,0.86,0.066
32.09,-0.085,1.13,0.143
32.1,-0.194,0.719,0.052
32.11,-0.458,1.001,-0.177
32.12,-0.009,1.206,-0.094
32.13,-0.154,0.785,0.061
32.14,-0.153,1.025,0.2
32.15,-0.233,0.754,-0.14
32.16,-0.323,1.141,-0.199
32.17,-0.064,0.955,0.172
32.18,-0.139,1.024,0.091
32.19,-0.26,0.787,-0.015
32.2,-0.303,1.067,-0.147
32.21,-0.17,1.181,-0.04
32.22,-0.219,0.692,0.182
32.23,-0.074,1.073,0.13
32.24,-0.376,0.752,-0.188
32.25,-0.292,1.195,-0.048
32.26,0.038,1.033,0.063
32.27,-0.198,0.802,0.098
32.28,-0.238,0.973,0.015
32.29,-0.304,1.028,-0.265
32.3,-0.168,1.088,-0.006
32.31,-0.1,0.766,0.215
32.32,-0.185,1.055,0.056
32.33,-0.365,0.764,-0.227
32.34,-0.174,1.235,-0.025
32.35,-0.079,0.97,0.046
32.36,-0.24,0.735,0.14
32.37,-0.171,1.072,-0.072
32.38,-0.322,0.887,-0.219
32.39,-0.223,1.191,0.138
32.4,-0.038,0.77,0.182
32.41,-0.274,0.977,-0.025
32.42,-0.341,0.905,-0.099
32.43,-0.148,1.162,-0.106
32.44,-0.154,0.906,0.097
32.45,-0.124,0.772,0.198
32.46,-0.403,1.14,-0.134
32.47,-0.322,0.809,-0.115
32.48,-0.091,1.31,0.101
32.49,-0.046,0.646,0.094
32.5,-0.292,0.974,-0.01
32.51,-0.299,1.04,-0.192
32.52,-0.16,0.985,-0.041
32.53,-0.203,0.979,0.177
32.54,-0.05,0.716,0.083
32.55,-0.472,1.158,-0.182
32.56,-0.221,0.847,-0.032
32.57,-0.092,1.288,0.117
32.58,-0.12,0.66,0.104
32.59,-0.271,1.022,0.029
32.6,-0.35,1.07,-0.193
32.61,-0.144,0.9,-0.017
32.62,-0.064,1.171,0.134
32.63,-0.12,0.673,0.035
32.64,-0.479,1.177,-0.14
32.65,-0.096,0.94,-0.054
32.66,-0.107,1.157,0.085
32.67,-0.211,0.727,0.143
32.68,-0.24,0.967,-0.086
32.69,-0.365,1.107,-0.155
32.7,-0.119,0.905,0.109
32.71,-0.078,1.124,0.083
32.72,-0.139,0.626,-0.022
32.73,-0.386,1.292,-0.203
32.74,-0.136,0.819,-0.003
32.75,-0.265,1.167,0.219
32.76,-0.09,0.729,0.077
32.77,-0.382,1.042,-0.184
32.78,-0.256,1.041,-0.024
32.79,-0.051,1.031,0.098
32.8,-0.163,0.946,0.1
32.81,-0.227,0.757,-0.003
32.82,-0.419,1.273,-0.196
32.83,-0.137,0.833,0.066
32.84,-0.154,1.176,0.173
32.85,-0.179,0.727,0.061
32.86,-0.415,1.051,-0.171
32.87,-0.143,1.155,-0.102
32.88,-0.024,0.826,0.08
32.89,-0.24,1.018,0.201
32.9,-0.293,0.749,-0.135
32.91,-0.29,1.256,-0.17
32.92,-0.102,0.917,0.14
32.93,-0.181,1.006,0.142
32.94,-0.213,0.78,0.029
32.95,-0.38,1.117,-0.153
32.96,-0.201,1.125,-0.047
32.97,-0.156,0.745,0.177
32.98,-0.092,1.091,0.108
32.99,-0.385,0.753,-0.158
33.0,-0.306,1.221,-0.103
33.01,0.001,0.951,-0.007
33.02,-0.137,0.851,0.134
33.03,-0.243,0.933,0.068
33.04,-0.355,1.014,-0.228
33.05,-0.13,1.113,-0.063
33.06,-0.028,0.8,0.209
33.07,-0.243,1.03,0.091
33.08,-0.404,0.768,-0.138
33.09,-0.15,1.277,-0.076
33.1,-0.137,0.797,0.029
33.11,-0.131,0.858,0.235
33.12,-0.255,1.043,-0.096
33.13,-0.365,0.856,-0.168
33.14,-0.116,1.243,0.112
33.15,-0.105,0.738,0.108
33.16,-0.216,1.01,0.002
33.17,-0.302,0.96,-0.162
33.18,-0.253,1.166,-0.103
33.19,-0.195,0.794,0.086
33.2,-0.07,0.841,0.186
33.21,-0.402,1.128,-0.145
33.22,-0.323,0.747,-0.146
33.23,-0.108,1.315,0.145
33.24,-0.099,0.712,0.115
33.25,-0.351,1.001,0.015
33.26,-0.261,0.992,-0.2
33.27,-0.098,1.077,-0.073
33.28,-0.229,0.987,0.212
33.29,-0.063,0.743,0.153
33.3,-0.466,1.113,-0.211
33.31,-0.214,0.856,-0.076
33.32,-0.008,1.326,0.077
33.33,-0.24,0.617,0.144
33.34,-0.305,1.01,0.034
33.35,-0.259,1.079,-0.267
33.36,-0.177,0.924,0.013
33.37,-0.139,1.054,0.224
33.38,-0.111,0.665,0.034
33.39,-0.502,1.179,-0.13
33.4,0.004,0.94,-0.1
33.41,-0.094,1.123,0.036
33.42,-0.137,0.726,0.21
33.43,-0.24,1.032,-0.118
33.44,-0.422,0.975,-0.191
33.45,-0.178,0.956,0.165
33.46,-0.075,1.141,0.1
33.47,-0.246,0.635,0.002
33.48,-0.357,1.283,-0.152
33.49,-0.167,0.898,-0.035
33.5,-0.221,1.061,0.14
33.51,0.021,0.817,0.122
33.52,-0.45,0.89,-0.163
33.53,-0.256,1.098,-0.128
33.54,-0.009,0.981,0.042
33.55,-0.194,0.837,0.119
33.56,-0.173,0.769,0.025
33.57,-0.389,1.37,-0.225
33.58,-0.153,0.803,0.013
33.59,-0.13,1.195,0.154
33.6,-0.046,0.684,0.043
33.61,-0.512,1.102,-0.128
33.62,-0.125,1.094,-0.081
33.63,-0.098,0.886,0.078
33.64,-0.275,0.939,0.215
33.65,-0.177,0.739,-0.087
33.66,-0.297,1.256,-0.241
33.67,-0.2,0.849,0.151
33.68,-0.136,1.108,0.122
33.69,-0.103,0.662,0.001
33.7,-0.478,1.048,-0.123
33.71,-0.093,1.193,-0.05
33.72,-0.148,0.811,0.072
33.73,-0.189,1.06,0.215
33.74,-0.259,0.762,-0.142
33.75,-0.323,1.176,-0.179
33.76,0.01,0.96,0.082
33.77,-0.184,1.002,0.122
33.78,-0.269,0.789,0.017
33.79,-0.323,1.073,-0.189
33.8,-0.173,1.108,-0.057
33.81,-0.172,0.781,0.173
33.82,-0.05,1.102,0.091
33.83,-0.31,0.729,-0.2
33.84,-0.34,1.202,-0.032
33.85,-0.029,0.971,0.06
33.86,-0.173,0.861,0.12
33.87,-0.254,0.906,0.039
33.88,-0.298,1.003,-0.208
33.89,-0.177,1.152,-0.05
33.9,-0.067,0.744,0.165
33.91,-0.202,1.036,0.105
33.92,-0.337,0.829,-0.147
33.93,-0.199,1.203,-0.109
33.94,-0.108,0.86,0.074
33.95,-0.103,0.837,0.16
33.96,-0.34,1.033,-0.033
33.97,-0.323,0.8,-0.236
33.98,-0.165,1.244,0.047
33.99,-0.083,0.763,0.131
34.0,-0.193,0.995,0.075
34.01,-0.381,0.885,-0.14
34.02,-0.111,1.177,-0.126
34.03,-0.111,0.904,0.084
34.04,-0.185,0.765,0.216
34.05,-0.302,1.15,-0.113
34.06,-0.272,0.792,-0.192
34.07,-0.228,1.24,0.147
34.08,-0.325,1.163,-0.16
34.09,-0.254,0.797,-0.149
34.1,-0.118,1.24,0.117
34.11,-0.073,0.897,0.103
34.12,-0.2,0.76,0.044
34.13,-0.425,1.232,-0.157
34.14,-0.108,0.899,-0.063
34.15,-0.241,1.13,0.137
34.16,-0.104,0.686,0.22
34.17,-0.454,1.118,-0.144
34.18,-0.276,0.864,-0.192
34.19,0.048,1.169,0.091
34.2,-0.173,0.878,0.117
34.21,-0.273,0.724,0.052
34.22,-0.376,1.303,-0.216
34.23,-0.082,0.79,-0.048
34.24,-0.242,1.142,0.171
34.25,-0.041,0.705,0.084
34.26,-0.463,1.069,-0.188
34.27,-0.23,0.978,-0.057
34.28,-0.002,1.08,0.071
34.29,-0.173,0.911,0.144
34.3,-0.217,0.909,-0.044
34.31,-0.371,1.124,-0.204
34.32,-0.135,0.877,0.102
34.33,-0.102,1.22,0.135
34.34,-0.175,0.599,0.039
34.35,-0.471,1.225,-0.147
34.36,-0.105,0.99,-0.088
34.37,-0.193,1.009,0.087
34.38,-0.139,0.859,0.212
34.39,-0.319,0.899,-0.125
34.4,-0.321,1.095,-0.178
34.41,-0.024,0.923,0.122
34.42,-0.181,1.135,0.106
34.43,-0.148,0.587,0.025
34.44,-0.33,1.303,-0.167
34.45,-0.235,0.975,-0.086
34.46,-0.235,0.876,0.174
34.47,0.017,0.971,0.121
34.48,-0.404,0.849,-0.162
34.49,-0.269,1.173,-0.081
34.5,0.027,0.946,0.056
34.51,-0.206,0.994,0.124
34.52,-0.217,0.718,0.055
34.53,-0.326,1.271,-0.229
34.54,-0.129,0.945,-0.045
34.55,-0.163,0.889,0.22
34.56,-0.066,1.005,0.083
34.57,-0.414,0.764,-0.188
34.58,-0.249,1.275,-0.015
34.59,-0.066,0.919,0.056
34.6,-0.205,0.916,0.107
34.61,-0.153,0.816,0.028
34.62,-0.436,1.178,-0.24
34.63,-0.133,0.96,-0.052
34.64,-0.098,0.911,0.212
34.65,-0.187,1.008,0.085
34.66,-0.341,0.759,-0.148
34.67,-0.238,1.336,-0.04
34.68,-0.065,0.794,0.076
34.69,-0.198,0.882,0.164
34.7,-0.268,0.942,-0.046
34.71,-0.319,1.054,-0.201
34.72,-0.232,1.084,0.086
34.73,-0.073,0.793,0.148
34.74,-0.175,1.04,0.058
34.75,-0.365,0.892,-0.174
34.76,-0.184,1.235,-0.051
34.77,-0.159,0.81,0.11
34.78,-0.262,0.883,0.2
34.79,-0.212,0.998,-0.096
34.8,-0.332,0.931,-0.218
34.81,-0.204,1.131,0.137
34.82,-0.03,0.773,0.115
34.83,-0.277,1.029,0.007
34.84,-0.327,0.867,-0.16
34.85,-0.082,1.217,-0.069
34.86,-0.288,0.842,0.11
34.87,-0.034,0.868,0.177
34.88,-0.278,1.089,-0.193
34.89,-0.385,0.851,-0.074
34.9,-0.014,1.262,0.047
34.91,-0.074,0.694,0.125
34.92,-0.344,1.038,0.066
34.93,-0.28,0.957,-0.174
34.94,-0.213,1.091,-0.032
34.95,-0.223,0.846,0.117
34.96,-0.024,0.802,0.141
34.97,-0.4,1.11,-0.194
34.98,-0.268,0.809,-0.073
34.99,0.021,1.279,0.025
35.0,-0.126,0.628,0.144
35.01,-0.276,1.033,0.013
35.02,-0.267,1.01,-0.211
35.03,-0.177,1.024,-0.019
35.04,-0.208,0.961,0.177
35.05,-0.063,0.764,0.062
35.06,-0.457,1.197,-0.179
35.07,-0.291,0.878,0.001
35.08,-0.035,1.226,0.051
35.09,-0.144,0.645,0.138
35.1,-0.254,1.062,0.013
35.11,-0.311,1.018,-0.225
35.12,-0.209,1.086,0.077
35.13,-0.059,0.911,0.164
35.14,-0.169,0.798,0.023
35.15,-0.438,1.156,-0.179
35.16,-0.057,0.905,-0.09
35.17,-0.196,1.136,0.065
35.18,-0.144,0.681,0.227
35.19,-0.308,1.112,-0.134
35.2,-0.288,0.843,-0.173
35.21,-0.096,1.174,0.095
35.22,-0.106,0.941,0.112
35.23,-0.216,0.705,0.039
35.24,-0.455,1.282,-0.156
35.25,-0.076,0.841,-0.102
35.26,-0.269,1.117,0.101
35.27,-0.015,0.733,0.156
35.28,-0.438,1.052,-0.133
35.29,-0.32,0.869,-0.114
35.3,0.003,1.091,0.04
35.31,-0.15,0.969,0.119
35.32,-0.252,0.7,0.082
35.33,-0.374,1.37,-0.206
35.34,-0.134,0.818,-0.019
35.35,-0.245,1.142,0.135
35.36,0.012,0.733,0.127
35.37,-0.42,1.037,-0.172
35.38,-0.314,1.0,-0.105
35.39,-0.024,1.036,0.093
35.4,-0.183,0.973,0.123
35.41,-0.203,0.656,0.014
35.42,-0.407,1.363,-0.203
35.43,-0.081,0.816,-0.029
35.44,-0.191,1.115,0.147
35.45,0.001,0.774,0.076
35.46,-0.515,1.013,-0.163
35.47,-0.227,1.096,-0.058
35.48,-0.024,0.994,0.029
35.49,-0.238,0.942,0.091
35.5,-0.127,0.731,0.031
35.51,-0.437,1.359,-0.22
35.52,-0.152,0.763,-0.009
35.53,-0.09,1.097,0.18
35.54,-0.098,0.798,0.07
35.55,-0.4,0.955,-0.173
35.56,-0.225,1.231,-0.05
35.57,-0.066,0.799,0.048
35.58,-0.224,1.042,0.154
35.59,-0.186,0.751,-0.022
35.6,-0.399,1.229,-0.194
35.61,-0.156,0.87,0.058
35.62,-0.089,1.053,0.17
35.63,-0.153,0.843,0.007
35.64,-0.408,0.952,-0.201
35.65,-0.154,1.212,-0.075
35.66,-0.073,0.786,0.089
35.67,-0.156,1.07,0.133
35.68,-0.253,0.794,-0.073
35.69,-0.359,1.141,-0.186
35.7,-0.141,0.987,0.084
35.71,-0.083,0.971,0.113
35.72,-0.182,0.861,-0.018
35.73,-0.406,0.943,-0.123
35.74,-0.068,1.299,-0.115
35.75,-0.169,0.667,0.072
35.76,-0.108,1.031,0.196
35.77,-0.331,0.908,-0.175
35.78,-0.316,0.987,-0.16
35.79,-0.11,1.078,0.124
35.8,-0.067,0.877,0.103
35.81,-0.304,0.99,-0.014
35.82,-0.373,0.907,-0.111
35.83,-0.149,1.247,-0.067
35.84,-0.166,0.723,0.127
35.85,-0.1,1.043,0.189
35.86,-0.306,0.913,-0.181
35.87,-0.337,0.991,-0.11
35.88,-0.034,1.147,0.108
35.89,-0.092,0.698,0.111
35.9,-0.324,1.038,0.008
35.91,-0.289,0.944,-0.191
35.92,-0.148,1.208,-0.05
35.93,-0.162,0.727,0.169
35.94,-0.1,1.078,0.079
35.95,-0.376,0.806,-0.213
35.96,-0.213,1.137,-0.01
35.97,-0.049,1.059,0.089
35.98,-0.185,0.745,0.114
35.99,-0.265,1.075,-0.014
36.0,-0.329,0.894,-0.222
36.01,-0.187,1.199,-0.004
36.02,-0.038,0.788,0.196
36.03,-0.212,0.976,0.007
36.04,-0.456,0.845,-0.184
36.05,-0.016,1.121,-0.116
36.06,-0.121,1.008,0.103
36.07,-0.235,0.688,0.223
36.08,-0.28,1.163,-0.098
36.09,-0.282,0.859,-0.184
36.1,-0.224,1.269,0.16
36.11,0.004,0.712,0.104
36.12,-0.296,0.938,-0.0
36.13,-0.384,0.99,-0.136
36.14,-0.083,1.033,-0.064
36.15,-0.226,0.988,0.089
36.16,-0.035,0.732,0.151
36.17,-0.406,1.17,-0.155
36.18,-0.263,0.764,-0.16
36.19,-0.089,1.318,0.117
36.2,-0.091,0.727,0.127
36.21,-0.286,0.905,0.048
36.22,-0.382,1.116,-0.163
36.23,-0.074,0.957,-0.056
36.24,-0.284,1.066,0.139
36.25,-0.023,0.701,0.156
36.26,-0.456,1.173,-0.211
36.27,-0.27,0.772,-0.093
36.28,0.002,1.264,0.107
36.29,-0.17,0.763,0.113
36.3,-0.323,0.877,0.034
36.31,-0.263,1.175,-0.2
36.32,-0.154,0.885,-0.015
36.33,-0.279,1.109,0.249
36.34,0.008,0.669,0.03
36.35,-0.537,1.213,-0.225
36.36,-0.051,0.907,-0.008
36.37,-0.109,1.143,0.07
36.38,-0.21,0.81,0.149
36.39,-0.188,0.884,-0.06
36.4,-0.356,1.199,-0.209
36.41,-0.177,0.865,0.108
36.42,-0.083,1.14,0.124
36.43,-0.174,0.606,0.048
36.44,-0.47,1.253,-0.181
36.45,0.013,0.99,-0.11
36.46,-0.222,0.977,0.125
36.47,-0.17,0.92,0.219
36.48,-0.239,0.854,-0.173
36.49,-0.322,1.166,-0.192
36.5,-0.044,0.877,0.135
36.51,-0.148,1.115,0.097
36.52,-0.228,0.631,-0.01
36.53,-0.375,1.266,-0.142
36.54,-0.105,0.979,-0.108
36.55,-0.261,0.892,0.204
36.56,-0.035,0.95,0.122
36.57,-0.371,0.805,-0.216
36.58,-0.256,1.272,-0.032
36.59,-0.01,0.833,0.047
36.6,-0.179,0.955,0.137
36.61,-0.278,0.808,0.045
36.62,-0.382,1.187,-0.237
36.63,-0.115,0.904,-0.072
36.64,-0.13,0.933,0.185
36.65,-0.145,0.977,0.089
36.66,-0.4,0.742,-0.178
36.67,-0.186,1.344,-0.032
36.68,-0.056,0.85,0.047
36.69,-0.162,0.908,0.154
36.7,-0.295,0.879,0.019
36.71,-0.345,1.052,-0.249
36.72,-0.118,1.069,0.016
36.73,-0.149,0.848,0.166
36.74,-0.215,0.951,0.066
36.75,-0.415,0.941,-0.116
36.76,-0.116,1.273,-0.068
36.77,-0.196,0.677,0.112
36.78,-0.062,1.052,0.171
36.79,-0.307,0.838,-0.146
36.8,-0.349,1.094,-0.103
36.81,-0.003,1.072,0.078
36.82,-0.134,0.787,0.122
36.83,-0.285,1.009,0.085
36.84,-0.316,0.957,-0.217
36.85,-0.148,1.162,-0.047
36.86,-0.139,0.768,0.199
36.87,-0.132,1.042,0.118
36.88,-0.379,0.838,-0.184
36.89,-0.224,1.049,-0.105
36.9,0.002,1.125,0.054
36.91,-0.156,0.678,0.134
36.92,-0.298,1.066,0.064
36.93,-0.339,0.891,-0.226
36.94,-0.157,1.172,-0.037
36.95,-0.09,0.777,0.173
36.96,-0.154,0.982,0.065
36.97,-0.453,0.937,-0.202
36.98,0.026,1.024,-0.119
36.99,-0.177,1.14,0.083
37.0,-0.238,0.615,0.196
37.01,-0.27,1.164,-0.03
37.02,-0.3,0.821,-0.233
37.03,-0.245,1.176,0.121
37.04,-0.063,0.866,0.133
37.05,-0.144,0.867,-0.011
37.06,-0.427,1.102,-0.15
37.07,-0.104,0.965,-0.104
37.08,-0.229,1.066,0.048
37.09,-0.091,0.671,0.22
37.1,-0.349,1.168,-0.148
37.11,-0.286,0.753,-0.167
37.12,-0.103,1.269,0.126
37.13,-0.113,0.82,0.125
37.14,-0.262,0.812,0.06
37.15,-0.317,1.219,-0.156
37.16,-0.146,0.941,-0.078
37.17,-0.221,1.035,0.119
37.18,-0.063,0.698,0.198
37.19,-0.479,1.135,-0.158
37.2,-0.234,0.798,-0.156
37.21,-0.003,1.237,0.071
37.22,-0.153,0.837,0.135
37.23,-0.315,0.806,0.064
37.24,-0.298,1.261,-0.206
37.25,-0.205,0.801,-0.04
37.26,-0.265,1.132,0.161
37.27,0.058,0.725,0.11
37.28,-0.482,1.131,-0.195
37.29,-0.199,0.9,-0.104
37.3,-0.102,1.141,0.061
37.31,-0.106,0.86,0.083
37.32,-0.197,0.781,-0.005
37.33,-0.367,1.273,-0.222
37.34,-0.146,0.812,0.056
37.35,-0.211,1.201,0.183
37.36,-0.045,0.662,0.121
37.37,-0.495,1.083,-0.198
37.38,-0.102,1.038,-0.058
37.39,-0.119,1.033,0.021
37.4,-0.178,0.892,0.137
37.41,-0.24,0.773,-0.02
37.42,-0.348,1.277,-0.256
37.43,-0.067,0.813,0.018
37.44,-0.134,1.227,0.155
37.45,-0.116,0.664,0.06
37.46,-0.448,1.071,-0.145
37.47,-0.087,1.155,-0.095
37.48,-0.146,0.846,0.091
37.49,-0.177,0.979,0.148
37.5,-0.249,0.751,-0.096
37.51,-0.32,1.221,-0.175
37.52,-0.149,0.854,0.164
37.53,-0.108,1.134,0.123
37.54,-0.173,0.73,-0.006
37.55,-0.359,1.048,-0.148
37.56,-0.112,1.146,-0.107
37.57,-0.223,0.925,0.169
37.58,-0.037,0.965,0.131
37.59,-0.417,0.81,-0.185
37.6,-0.25,1.208,-0.061
37.61,0.001,0.887,0.007
37.62,-0.177,0.955,0.159
37.63,-0.172,0.758,0.09
37.64,-0.321,1.237,-0.263
37.65,-0.195,0.899,-0.04
37.66,-0.12,0.885,0.154
37.67,-0.062,0.997,0.058
37.68,-0.42,0.787,-0.195
37.69,-0.173,1.304,-0.038
37.7,-0.104,0.875,0.053
37.71,-0.237,0.879,0.165
37.72,-0.148,0.847,0.01
37.73,-0.325,1.211,-0.285
37.74,-0.134,0.941,-0.055
37.75,-0.112,0.878,0.222
37.76,-0.205,1.047,0.063
37.77,-0.377,0.714,-0.182
37.78,-0.154,1.284,-0.043
37.79,-0.107,0.879,0.052
37.8,-0.125,0.864,0.114
37.81,-0.207,0.914,-0.028
37.82,-0.36,1.057,-0.236
37.83,-0.091,1.1,0.002
37.84,-0.034,0.854,0.135
37.85,-0.235,1.012,0.086
37.86,-0.392,0.794,-0.158
37.87,-0.121,1.254,-0.085
37.88,-0.153,0.779,0.106
37.89,-0.144,0.913,0.181
37.9,-0.295,1.01,-0.135
37.91,-0.296,0.871,-0.149
37.92,-0.081,1.247,0.085
37.93,-0.126,0.773,0.143
37.94,-0.196,1.047,0.015
37.95,-0.372,0.887,-0.186
37.96,-0.235,1.141,-0.064
37.97,-0.093,0.825,0.136
37.98,-0.092,0.873,0.161
37.99,-0.447,1.04,-0.151
38.0,-0.177,0.792,-0.127
38.01,-0.13,1.304,0.085
38.02,-0.138,0.612,0.127
38.03,-0.226,1.035,0.014
38.04,-0.336,0.997,-0.155
38.05,-0.174,1.043,-0.033
38.06,-0.256,0.912,0.184
38.07,-0.062,0.828,0.092
38.08,-0.411,1.107,-0.229
38.09,-0.184,0.84,-0.055
38.1,-0.073,1.359,0.078
38.11,-0.079,0.592,0.072
38.12,-0.23,1.036,0.0
38.13,-0.303,1.029,-0.212
38.14,-0.149,1.0,-0.01
38.15,-0.171,0.962,0.16
38.16,-0.085,0.735,0.053
38.17,-0.451,1.183,-0.219
38.18,-0.154,0.857,0.008
38.19,-0.083,1.283,0.084
38.2,-0.101,0.603,0.095
38.21,-0.275,1.029,-0.028
38.22,-0.299,1.027,-0.212
38.23,-0.169,0.967,0.043
38.24,-0.039,1.094,0.137
38.25,-0.174,0.646,0.055
38.26,-0.474,1.225,-0.165
38.27,-0.045,0.937,-0.07
38.28,-0.166,1.154,0.114
38.29,-0.123,0.747,0.202
38.3,-0.31,0.992,-0.118
38.31,-0.285,0.991,-0.211
38.32,-0.005,1.045,0.146
38.33,-0.213,1.052,0.093
38.34,-0.176,0.622,0.034
38.35,-0.44,1.367,-0.192
38.36,-0.123,0.858,-0.056
38.37,-0.177,1.042,0.136
38.38,-0.018,0.697,0.067
38.39,-0.464,1.072,-0.21
38.4,-0.237,0.996,-0.096
38.41,-0.021,1.059,0.06
38.42,-0.18,0.896,0.146
38.43,-0.249,0.744,-0.033
38.44,-0.369,1.323,-0.248
38.45,-0.077,0.765,0.03
38.46,-0.203,1.203,0.226
38.47,-0.106,0.707,0.035
38.48,-0.443,1.065,-0.178
38.49,-0.11,1.111,-0.013
38.5,-0.125,0.96,0.095
38.51,-0.224,0.936,0.151
38.52,-0.168,0.767,-0.065
38.53,-0.379,1.237,-0.173
38.54,-0.152,0.834,0.137
38.55,-0.075,1.117,0.182
38.56,-0.221,0.702,0.01
38.57,-0.479,1.064,-0.105
38.58,-0.022,1.153,-0.115
38.59,-0.202,0.79,0.085
38.6,-0.146,1.028,0.233
38.61,-0.314,0.771,-0.174
38.62,-0.32,1.185,-0.149
38.63,-0.033,0.941,0.122
38.64,-0.13,0.93,0.104
38.65,-0.337,0.809,0.028
38.66,-0.319,1.057,-0.18
38.67,-0.126,1.117,-0.055
38.68,-0.213,0.767,0.156
38.69,-0.047,1.066,0.072
38.7,-0.392,0.78,-0.177
38.71,-0.26,1.213,-0.042
38.72,0.001,0.959,0.066
38.73,-0.224,0.837,0.161
38.74,-0.285,0.946,0.01
38.75,-0.257,0.976,-0.236
38.76,-0.125,1.154,-0.002
38.77,-0.12,0.752,0.207
38.78,-0.155,1.042,0.059
38.79,-0.403,0.859,-0.158
38.8,-0.168,1.188,-0.057
38.81,-0.121,0.917,0.12
38.82,-0.143,0.812,0.193
38.83,-0.349,1.048,-0.046
38.84,-0.328,0.854,-0.137
38.85,-0.188,1.237,0.052
38.86,-0.028,0.748,0.16
38.87,-0.201,0.991,0.021
38.88,-0.381,0.906,-0.201
38.89,-0.159,1.132,-0.07
38.9,-0.102,0.871,0.088
38.91,-0.127,0.748,0.19
38.92,-0.4,1.15,-0.124
38.93,-0.249,0.838,-0.106
38.94,-0.158,1.322,0.093
38.95,-0.135,0.65,0.132
38.96,-0.219,0.977,-0.036
38.97,-0.384,1.021,-0.152
38.98,-0.11,1.016,-0.034
38.99,-0.193,0.968,0.121
39.0,-0.089,0.751,0.17
39.01,-0.441,1.144,-0.194
39.02,-0.194,0.796,-0.095
39.03,-0.061,1.323,0.068
39.04,-0.091,0.666,0.129
39.05,-0.327,0.96,-0.017
39.06,-0.232,1.053,-0.241
39.07,-0.098,0.977,0.03
39.08,-0.237,1.035,0.192
39.09,-0.071,0.723,0.092
39.1,-0.449,1.246,-0.215
39.11,-0.167,0.848,0.017
39.12,-0.086,1.201,0.098
39.13,-0.187,0.752,0.129
39.14,-0.32,0.968,-0.064
39.15,-0.275,1.085,-0.185
39.16,-0.064,0.961,0.088
39.17,-0.118,1.09,0.125
39.18,-0.139,0.614,0.015
39.19,-0.489,1.284,-0.172
39.2,-0.142,0.833,-0.057
39.21,-0.169,1.135,0.12
39.22,-0.122,0.73,0.162
39.23,-0.462,1.05,-0.181
39.24,-0.213,0.99,-0.076
39.25,0.014,1.076,0.103
39.26,-0.191,0.891,0.129
39.27,-0.208,0.733,-0.011
39.28,-0.357,1.365,-0.191
39.29,-0.117,0.828,0.039
39.3,-0.218,1.126,0.187
39.31,-0.105,0.696,0.012
39.32,-0.469,1.1,-0.155
39.33,-0.177,1.085,-0.003
39.34,-0.084,0.904,0.088
39.35,-0.201,0.954,0.147
39.36,-0.252,0.772,-0.074
39.37,-0.312,1.252,-0.205
39.38,-0.098,0.813,0.051
39.39,-0.076,1.081,0.137
39.4,-0.192,0.77,-0.036
39.41,-0.496,1.054,-0.126
39.42,-0.037,1.14,-0.054
39.43,-0.088,0.812,0.111
39.44,-0.23,1.052,0.194
39.45,-0.333,0.767,-0.173
39.46,-0.254,1.2,-0.159
39.47,0.022,0.924,0.093
39.48,-0.182,0.933,0.161
39.49,-0.296,0.845,-0.017
39.5,-0.313,1.062,-0.229
39.51,-0.067,1.125,-0.042
39.52,-0.096,0.805,0.156
39.53,-0.205,1.024,0.095
39.54,-0.417,0.798,-0.201
39.55,-0.172,1.266,-0.068
39.56,-0.05,0.845,0.072
39.57,-0.167,0.857,0.169
39.58,-0.237,1.022,-0.097
39.59,-0.381,0.929,-0.188
39.6,-0.123,1.177,0.105
39.61,-0.044,0.715,0.15
39.62,-0.258,1.061,0.04
39.63,-0.447,0.874,-0.159
39.64,-0.13,1.193,-0.085
39.65,-0.096,0.828,0.107
39.66,-0.1,0.886,0.168
39.67,-0.389,1.038,-0.15
39.68,-0.27,0.844,-0.054
39.69,-0.057,1.314,0.075
39.7,-0.145,0.608,0.103
39.71,-0.299,1.043,0.065
39.72,-0.272,0.956,-0.256
39.73,-0.125,1.019,-0.018
39.74,-0.15,0.973,0.192
39.75,-0.141,0.741,0.093
39.76,-0.457,1.135,-0.171
39.77,-0.057,0.904,-0.073
39.78,-0.087,1.187,0.046
39.79,-0.124,0.647,0.18
39.8,-0.291,1.063,-0.079
39.81,-0.356,0.894,-0.21
39.82,-0.117,1.073,0.106
39.83,-0.191,1.062,0.126
39.84,-0.164,0.636,-0.022
39.85,-0.413,1.312,-0.153
39.86,-0.111,0.909,-0.045
39.87,-0.098,1.093,0.093
39.88,-0.107,0.734,0.21
39.89,-0.387,1.015,-0.172
39.9,-0.258,0.932,-0.186
39.91,-0.12,1.072,0.141
39.92,-0.219,1.018,0.124
39.93,-0.171,0.629,-0.009
39.94,-0.454,1.362,-0.171
39.95,-0.075,0.859,-0.053
39.96,-0.19,1.081,0.094
39.97,-0.005,0.792,0.139
39.98,-0.411,1.003,-0.203
39.99,-0.206,1.045,-0.11
40.0,-0.053,0.983,0.061
40.01,-0.118,0.998,0.057
40.02,-0.201,0.808,-0.057
40.03,-0.367,1.273,-0.206
40.04,-0.083,0.842,0.068
40.05,-0.133,1.175,0.147
40.06,-0.1,0.607,0.027
40.07,-0.415,1.18,-0.149
40.08,-0.154,1.06,-0.066
40.09,-0.128,0.84,0.098
40.1,-0.151,1.0,0.174
40.11,-0.314,0.787,-0.14
40.12,-0.332,1.207,-0.157
40.13,-0.001,0.933,0.104
40.14,-0.16,1.054,0.145
40.15,-0.229,0.726,0.046
40.16,-0.377,1.21,-0.193
40.17,-0.106,1.0,-0.067
40.18,-0.209,0.836,0.188
40.19,-0.104,1.047,0.081
40.2,-0.329,0.711,-0.224
40.21,-0.28,1.266,-0.016
40.22,-0.102,0.905,0.103
40.23,-0.182,0.904,0.125
40.24,-0.191,0.884,0.031
40.25,-0.406,1.111,-0.24
40.26,-0.151,0.989,-0.023
40.27,0.087,0.889,0.16
40.28,-0.239,1.038,0.047
40.29,-0.418,0.746,-0.128
40.3,-0.165,1.328,-0.068
40.31,-0.139,0.801,0.06
40.32,-0.154,0.929,0.214
40.33,-0.292,0.948,-0.109
40.34,-0.343,0.916,-0.194
40.35,-0.118,1.189,0.102
40.36,-0.101,0.724,0.13
40.37,-0.261,1.028,0.056
40.38,-0.264,0.958,-0.178
40.39,-0.213,1.21,-0.077
40.4,-0.178,0.747,0.173
40.41,-0.087,0.897,0.151
40.42,-0.42,0.998,-0.14
40.43,-0.283,0.861,-0.077
40.44,-0.089,1.271,0.061
40.45,-0.072,0.615,0.078
40.46,-0.221,1.094,0.018
40.47,-0.289,0.968,-0.203
40.48,-0.156,1.063,-0.053
40.49,-0.127,0.871,0.157
40.5,-0.049,0.868,0.082
40.51,-0.527,1.054,-0.168
40.52,-0.193,0.886,0.02
40.53,-0.048,1.307,0.021
40.54,-0.178,0.542,0.083
40.55,-0.182,1.142,0.044
40.56,-0.353,1.0,-0.231
40.57,-0.264,0.97,0.065
40.58,0.024,0.999,0.141
40.59,-0.159,0.76,0.001
40.6,-0.486,1.128,-0.115
40.61,-0.104,0.897,-0.074
40.62,-0.152,1.173,0.053
40.63,-0.104,0.695,0.188
40.64,-0.309,1.058,-0.121
40.65,-0.331,0.939,-0.182
40.66,-0.044,1.137,0.095
40.67,-0.087,1.003,0.081
40.68,-0.207,0.681,0.083
40.69,-0.416,1.354,-0.178
40.7,-0.129,0.825,-0.025
40.71,-0.211,1.161,0.113
40.72,-0.06,0.708,0.144
40.73,-0.382,1.018,-0.159
40.74,-0.198,0.983,-0.172
40.75,-0.139,1.026,0.145
40.76,-0.12,0.976,0.121
40.77,-0.198,0.679,0.003
40.78,-0.4,1.373,-0.178
40.79,-0.097,0.816,-0.006
40.8,-0.17,1.114,0.126
40.81,-0.036,0.784,0.11
40.82,-0.408,0.979,-0.219
40.83,-0.174,1.017,-0.022
40.84,-0.135,1.075,0.087
40.85,-0.183,0.881,0.133
40.86,-0.208,0.792,-0.049
40.87,-0.349,1.246,-0.225
40.88,-0.135,0.847,0.147
40.89,-0.084,1.189,0.089
40.9,-0.169,0.644,0.0
40.91,-0.402,1.155,-0.153
40.92,-0.115,1.078,-0.066
40.93,-0.185,0.896,0.068
40.94,-0.119,1.015,0.178
40.95,-0.301,0.771,-0.146
40.96,-0.368,1.166,-0.128
40.97,0.026,0.903,0.078
40.98,-0.177,1.057,0.134
40.99,-0.215,0.744,0.042
41.0,-0.384,1.168,-0.137
41.01,-0.187,1.055,-0.056
41.02,-0.066,0.85,0.101
41.03,-0.143,1.033,0.148
41.04,-0.355,0.761,-0.162
41.05,-0.315,1.257,-0.115
41.06,-0.004,0.894,0.104
41.07,-0.201,0.931,0.113
41.08,-0.191,0.823,-0.04
41.09,-0.344,1.133,-0.214
41.1,-0.127,1.058,-0.046
41.11,-0.083,0.828,0.172
41.12,-0.106,1.064,0.048
41.13,-0.411,0.74,-0.193
41.14,-0.2,1.284,-0.01
41.15,-0.05,0.89,0.072
41.16,-0.248,0.844,0.148
41.17,-0.233,0.943,-0.007
41.18,-0.328,1.049,-0.222
41.19,-0.157,1.09,-0.016
41.2,-0.013,0.795,0.208
41.21,-0.212,1.057,0.001
41.22,-0.435,0.77,-0.159
41.23,-0.06,1.239,-0.06
41.24,-0.151,0.859,0.083
41.25,-0.186,0.839,0.213
41.26,-0.257,1.023,-0.104
41.27,-0.363,0.894,-0.2
41.28,-0.042,1.231,0.093
41.29,-0.06,0.742,0.122
41.3,-0.278,1.003,0.009
41.31,-0.317,0.914,-0.176
41.32,-0.106,1.213,-0.057
41.33,-0.219,0.813,0.097
41.34,-0.051,0.829,0.166
41.35,-0.387,1.101,-0.188
41.36,-0.26,0.828,-0.079
41.37,-0.093,1.3,0.092
41.38,-0.154,0.628,0.139
41.39,-0.271,1.033,0.035
41.4,-0.273,0.974,-0.215
41.41,-0.132,1.028,0.027
41.42,-0.225,0.934,0.178
41.43,-0.075,0.763,0.082
41.44,-0.439,1.156,-0.216
41.45,-0.16,0.89,-0.024
41.46,-0.1,1.269,0.079
41.47,-0.153,0.655,0.163
41.48,-0.249,1.035,-0.091
41.49,-0.277,1.026,-0.246
41.5,-0.124,1.013,0.026
41.51,-0.083,1.028,0.135
41.52,-0.115,0.688,0.077
41.53,-0.496,1.251,-0.205
41.54,-0.091,0.852,-0.055
41.55,-0.161,1.154,0.095
41.56,-0.206,0.755,0.202
41.57,-0.282,1.053,-0.094
41.58,-0.305,0.996,-0.198
41.59,-0.151,0.964,0.119
41.6,-0.019,1.095,0.083
41.61,-0.21,0.61,0.034
41.62,-0.46,1.282,-0.166
41.63,-0.044,0.875,-0.055
41.64,-0.246,1.072,0.121
41.65,-0.027,0.717,0.142
41.66,-0.452,1.129,-0.194
41.67,-0.289,0.913,-0.114
41.68,0.023,1.135,0.103
41.69,-0.13,0.879,0.117
41.7,-0.287,0.767,0.024
41.71,-0.323,1.312,-0.227
41.72,-0.118,0.767,-0.034
41.73,-0.217,1.153,0.202
41.74,-0.02,0.686,0.056
41.75,-0.505,1.099,-0.166
41.76,-0.201,1.033,-0.059
41.77,-0.024,0.99,0.048
41.78,-0.192,0.927,0.129
41.79,-0.275,0.728,-0.032
41.8,-0.319,1.28,-0.244
41.81,-0.08,0.818,0.027
41.82,-0.107,1.133,0.186
41.83,-0.148,0.67,0.03
41.84,-0.458,1.058,-0.15
41.85,-0.063,1.15,-0.075
41.86,-0.138,0.829,0.092
41.87,-0.178,0.995,0.159
41.88,-0.254,0.778,-0.125
41.89,-0.354,1.201,-0.181
41.9,-0.069,0.897,0.101
41.91,-0.1,1.04,0.14
41.92,-0.242,0.779,0.026
41.93,-0.42,1.096,-0.153
41.94,-0.079,1.129,-0.086
41.95,-0.189,0.774,0.132
41.96,-0.145,1.077,0.156
41.97,-0.322,0.781,-0.197
41.98,-0.285,1.197,-0.075
41.99,-0.01,0.96,0.124
42.0,-0.131,0.869,0.126
42.01,-0.273,0.887,0.009
42.02,-0.251,1.054,-0.206
42.03,-0.189,1.107,-0.024
42.04,-0.137,0.755,0.221
42.05,-0.138,1.107,0.056
42.06,-0.389,0.751,-0.225
42.07,-0.177,1.219,-0.056
42.08,-0.026,0.917,0.076
42.09,-0.216,0.811,0.189
42.1,-0.32,1.001,-0.021
42.11,-0.204,0.948,-0.261
42.12,-0.143,1.156,0.023
42.13,-0.11,0.758,0.213
42.14,-0.214,1.024,-0.005
42.15,-0.375,0.829,-0.226
42.16,-0.044,1.162,-0.024
42.17,-0.148,0.936,0.119
42.18,-0.187,0.752,0.171
42.19,-0.269,1.126,-0.111
42.2,-0.331,0.854,-0.143
42.21,-0.132,1.222,0.115
42.22,-0.029,0.729,0.104
42.23,-0.287,1.016,-0.003
42.24,-0.387,0.96,-0.195
42.25,-0.076,1.082,-0.076
42.26,-0.182,0.922,0.121
42.27,-0.079,0.791,0.153
42.28,-0.368,1.174,-0.203
42.29,-0.289,0.815,-0.097
42.3,-0.068,1.287,0.127
42.31,-0.117,0.709,0.133
42.32,-0.332,0.965,-0.004
42.33,-0.261,1.065,-0.221
42.34,-0.118,0.992,0.006
42.35,-0.205,0.973,0.207
42.36,-0.082,0.71,0.081
42.37,-0.462,1.22,-0.184
42.38,-0.17,0.868,-0.011
42.39,-0.13,1.193,0.083
42.4,-0.2,0.706,0.176
42.41,-0.212,1.005,-0.051
42.42,-0.061,0.76,0.152
42.43,-0.298,0.968,0.019
42.44,-0.299,0.927,-0.164
42.45,-0.201,1.207,-0.0
42.46,-0.165,0.712,0.181
42.47,-0.104,1.061,0.059
42.48,-0.331,0.858,-0.244
42.49,-0.174,1.086,-0.064
42.5,-0.094,1.064,0.123
42.51,-0.21,0.696,0.146
42.52,-0.226,1.063,0.008
42.53,-0.363,0.893,-0.226
42.54,-0.115,1.187,0.032
42.55,-0.082,0.823,0.153
42.56,-0.199,0.939,0.038
42.57,-0.363,0.975,-0.158
42.58,-0.143,1.054,-0.042
42.59,-0.144,0.977,0.083
42.6,-0.171,0.692,0.209
42.61,-0.275,1.192,-0.056
42.62,-0.424,0.788,-0.147
42.63,-0.126,1.17,0.155
42.64,-0.067,0.852,0.12
42.65,-0.229,0.872,-0.007
42.66,-0.388,1.051,-0.181
42.67,-0.094,1.045,-0.069
42.68,-0.244,1.011,0.09
42.69,-0.058,0.683,0.162
42.7,-0.368,1.204,-0.167
42.71,-0.317,0.834,-0.111
42.72,-0.033,1.223,0.062
42.73,-0.167,0.719,0.146
42.74,-0.232,0.88,0.049
42.75,-0.343,1.229,-0.224
42.76,-0.154,0.851,-0.017
42.77,-0.25,1.143,0.169
42.78,-0.062,0.641,0.139
42.79,-0.506,1.187,-0.187
42.8,-0.192,0.897,-0.067
42.81,-0.046,1.145,0.038
42.82,-0.168,0.789,0.141
42.83,-0.267,0.857,-0.038
42.84,-0.321,1.189,-0.217
42.85,-0.084,0.834,0.03
42.86,-0.174,1.179,0.179
42.87,-0.143,0.636,0.069
42.88,-0.479,1.21,-0.169
42.89,-0.143,0.977,-0.04
42.9,-0.14,1.043,0.105
42.91,-0.204,0.897,0.161
42.92,-0.286,0.842,-0.091
42.93,-0.363,1.196,-0.172
42.94,-0.124,0.851,0.139
42.95,-0.099,1.134,0.142
42.96,-0.245,0.65,0.009
42.97,-0.461,1.174,-0.16
42.98,-0.126,0.966,-0.053
42.99,-0.218,0.912,0.133
43.0,-0.134,0.974,0.145
43.01,-0.337,0.778,-0.176
43.02,-0.389,1.219,-0.121
43.03,0.083,0.897,0.086
43.04,-0.143,1.042,0.095
43.05,-0.245,0.692,0.042
43.06,-0.32,1.201,-0.187
43.07,-0.174,1.015,-0.005
43.08,-0.259,0.88,0.222
43.09,-0.078,0.985,0.089
43.1,-0.461,0.777,-0.2
43.11,-0.173,1.298,-0.077
43.12,-0.104,0.833,0.085
43.13,-0.217,0.923,0.167
43.14,-0.153,0.853,-0.049
43.15,-0.321,1.058,-0.208
43.16,-0.187,1.086,0.056
43.17,-0.091,0.834,0.137
43.18,-0.134,0.967,-0.0
43.19,-0.437,0.872,-0.127
43.2,-0.115,1.25,-0.07
43.21,-0.185,0.707,0.082
43.22,-0.109,1.073,0.167
43.23,-0.283,0.799,-0.132
43.24,-0.416,1.123,-0.093
43.25,0.02,1.045,0.047
43.26,-0.081,0.79,0.075
43.27,-0.366,1.003,0.043
43.28,-0.215,0.944,-0.234
43.29,-0.162,1.197,-0.087
43.3,-0.163,0.725,0.168
43.31,-0.057,1.025,0.056
43.32,-0.335,0.842,-0.197
43.33,-0.29,1.125,-0.017
43.34,-0.091,1.069,0.089
43.35,-0.149,0.651,0.101
43.36,-0.195,1.145,-0.006
43.37,-0.321,0.926,-0.189
43.38,-0.279,1.172,-0.008
43.39,0.009,0.791,0.145
43.4,-0.182,0.983,0.038
43.41,-0.44,0.945,-0.158
43.42,-0.091,1.045,-0.099
43.43,-0.18,1.019,0.054
43.44,-0.094,0.667,0.2
43.45,-0.292,1.195,-0.113
43.46,-0.305,0.711,-0.201
43.47,-0.151,1.241,0.113
43.48,-0.126,0.868,0.106
43.49,-0.187,0.847,0.03
43.5,-0.354,1.083,-0.16
43.51,-0.106,1.003,-0.115
43.52,-0.193,1.056,0.103
43.53,-0.106,0.681,0.196
43.54,-0.366,1.19,-0.122
43.55,-0.263,0.804,-0.173
43.56,-0.077,1.289,0.116
43.57,-0.104,0.845,0.137
43.58,-0.224,0.807,0.024
43.59,-0.358,1.193,-0.158
43.6,-0.078,0.95,-0.107
43.61,-0.211,1.058,0.104
43.62,-0.096,0.696,0.206
43.63,-0.473,1.207,-0.185
43.64,-0.203,0.771,-0.155
43.65,-0.056,1.261,0.093
43.66,-0.202,0.823,0.176
43.67,-0.224,0.786,0.012
43.68,-0.288,1.263,-0.25
43.69,-0.203,0.804,0.02
43.7,-0.217,1.155,0.201
43.71,-0.062,0.7,0.074
43.72,-0.476,1.105,-0.232
43.73,-0.166,0.963,0.004
43.74,-0.103,1.134,0.12
43.75,-0.221,0.817,0.152
43.76,-0.165,0.838,-0.025
43.77,-0.378,1.282,-0.227
43.78,-0.15,0.762,0.001
43.79,-0.069,1.202,0.142
43.8,-0.116,0.675,0.049
43.81,-0.443,1.115,-0.129
43.82,-0.113,1.095,-0.054
43.83,-0.159,0.959,0.083
43.84,-0.19,0.926,0.171
43.85,-0.231,0.774,-0.091
43.86,-0.335,1.195,-0.218
43.87,-0.189,0.865,0.155
43.88,-0.113,1.135,0.094
43.89,-0.115,0.635,-0.029
43.9,-0.424,1.125,-0.133
43.91,-0.087,1.13,-0.111
43.92,-0.151,0.777,0.082
43.93,-0.18,1.033,0.201
43.94,-0.279,0.758,-0.168
43.95,-0.338,1.182,-0.195
43.96,-0.02,0.911,0.122
43.97,-0.119,1.036,0.101
43.98,-0.292,0.786,0.054
43.99,-0.294,1.116,-0.188
44.0,-0.153,1.09,-0.041
44.01,-0.195,0.785,0.176
44.02,-0.07,1.074,0.106
44.03,-0.394,0.8,-0.205
44.04,-0.197,1.292,-0.131
44.05,0.021,0.867,0.061
44.06,-0.171,0.99,0.145
44.07,-0.268,0.776,0.05
44.08,-0.401,1.194,-0.237
44.09,-0.061,0.964,-0.043
44.1,-0.131,0.955,0.207
44.11,-0.144,0.973,0.037
44.12,-0.423,0.755,-0.146
44.13,-0.118,1.319,-0.044
44.14,-0.156,0.789,0.1
44.15,-0.149,0.919,0.132
44.16,-0.157,0.893,-0.038
44.17,-0.409,1.092,-0.194
44.18,-0.119,1.007,0.038
44.19,-0.026,0.885,0.139
44.2,-0.216,0.999,0.037
44.21,-0.39,0.819,-0.177
44.22,-0.147,1.295,-0.086
44.23,-0.092,0.713,0.092
44.24,-0.209,0.962,0.222
44.25,-0.239,0.963,-0.149
44.26,-0.388,0.995,-0.12
44.27,-0.126,1.081,0.1
44.28,-0.019,0.764,0.101
44.29,-0.294,1.025,0.012
44.3,-0.358,0.866,-0.179
44.31,-0.141,1.249,-0.048
44.32,-0.194,0.711,0.139
44.33,-0.107,0.93,0.178
44.34,-0.412,0.99,-0.157
44.35,-0.198,0.871,-0.138
44.36,-0.023,1.278,0.073
44.37,-0.146,0.6,0.146
44.38,-0.255,1.083,-0.006
44.39,-0.274,0.979,-0.229
44.4,-0.156,1.081,-0.034
44.41,-0.22,0.835,0.203
44.42,-0.084,0.836,0.05
44.43,-0.438,1.033,-0.211
44.44,-0.113,0.884,-0.028
44.45,-0.095,1.29,0.058
44.46,-0.156,0.552,0.142
44.47,-0.219,1.116,0.018
44.48,-0.303,0.956,-0.263
44.49,-0.132,1.075,0.013
44.5,-0.133,0.977,0.15
44.51,-0.143,0.724,0.058
44.52,-0.471,1.21,-0.158
44.53,-0.029,0.907,-0.09
44.54,-0.198,1.198,0.108
44.55,-0.126,0.628,0.218
44.56,-0.29,1.127,-0.103
44.57,-0.276,0.844,-0.242
44.58,-0.065,1.107,0.094
44.59,-0.099,0.985,0.095
44.6,-0.207,0.687,0.047
44.61,-0.421,1.315,-0.136
44.62,-0.132,0.891,-0.096
44.63,-0.21,1.098,0.131
44.64,-0.057,0.743,0.18
44.65,-0.364,1.042,-0.183
44.66,-0.282,0.927,-0.133
44.67,-0.025,1.083,0.132
44.68,-0.178,1.005,0.128
44.69,-0.262,0.64,0.069
44.7,-0.417,1.336,-0.148
44.71,-0.092,0.84,-0.072
44.72,-0.302,1.129,0.183
44.73,-0.028,0.782,0.129
44.74,-0.401,0.973,-0.21
44.75,-0.273,1.053,-0.063
44.76,0.028,1.018,0.029
44.77,-0.193,0.978,0.155
44.78,-0.243,0.664,0.074
44.79,-0.387,1.331,-0.206
44.8,-0.113,0.797,-0.025
44.81,-0.127,1.096,0.177
44.82,-0.115,0.782,0.08
44.83,-0.451,0.932,-0.164
44.84,-0.095,1.22,-0.099
44.85,-0.166,0.937,0.066
44.86,-0.137,0.925,0.228
44.87,-0.278,0.801,-0.108
44.88,-0.407,1.156,-0.152
44.89,-0.146,0.892,0.089
44.9,-0.073,1.139,0.086
44.91,-0.189,0.679,0.033
44.92,-0.371,1.158,-0.165
44.93,-0.12,1.079,-0.104
44.94,-0.23,0.794,0.141
44.95,-0.106,1.02,0.183
44.96,-0.282,0.79,-0.163
44.97,-0.356,1.182,-0.151
44.98,0.007,0.932,0.063
44.99,-0.125,1.038,0.118
45.0,-0.261,0.752,0.037
45.01,-0.398,1.131,-0.162
45.02,-0.164,1.089,-0.075
45.03,-0.164,0.747,0.164
45.04,-0.074,1.058,0.166
45.05,-0.357,0.76,-0.171
45.06,-0.292,1.188,-0.077
45.07,0.036,0.979,0.035
45.08,-0.164,0.89,0.104
45.09,-0.266,0.885,0.041
45.1,-0.323,1.041,-0.212
45.11,-0.134,1.083,-0.048
45.12,-0.134,0.763,0.234
45.13,-0.117,1.043,0.049
45.14,-0.379,0.76,-0.206
45.15,-0.174,1.236,-0.074
45.16,-0.109,0.928,0.062
45.17,-0.179,0.814,0.173
45.18,-0.205,1.004,-0.075
45.19,-0.361,0.906,-0.171
45.2,-0.196,1.205,0.043
45.21,-0.006,0.766,0.105
45.22,-0.156,1.043,0.059
45.23,-0.397,0.858,-0.158
45.24,-0.092,1.168,-0.147
45.25,-0.103,0.906,0.047
45.26,-0.142,0.836,0.222
45.27,-0.311,1.058,-0.098
45.28,-0.297,0.771,-0.209
45.29,-0.101,1.283,0.083
45.3,-0.105,0.723,0.085
45.31,-0.177,0.953,0.057
45.32,-0.361,0.992,-0.137
45.33,-0.192,1.1,-0.095
45.34,-0.21,0.855,0.127
45.35,-0.021,0.789,0.116
45.36,-0.47,1.098,-0.096
45.37,-0.222,0.775,-0.127
45.38,-0.079,1.321,0.063
45.39,-0.127,0.626,0.137
45.4,-0.254,1.036,0.083
45.41,-0.314,1.068,-0.197
45.42,-0.177,0.958,-0.052
45.43,-0.113,1.005,0.127
45.44,-0.072,0.766,0.122
45.45,-0.429,1.15,-0.178
45.46,-0.223,0.772,-0.052
45.47,-0.14,1.34,0.055
45.48,-0.099,0.655,0.155
45.49,-0.246,0.955,0.037
45.5,-0.438,1.11,-0.206
45.51,-0.092,0.85,-0.048
45.52,-0.181,1.146,0.148
45.53,-0.08,0.679,0.103
45.54,-0.493,1.119,-0.187
45.55,-0.139,0.926,-0.047
45.56,-0.096,1.282,0.034
45.57,-0.124,0.689,0.163
45.58,-0.216,0.94,0.075
45.59,-0.435,1.175,-0.233
45.6,-0.067,0.833,0.02
45.61,-0.167,1.204,0.143
45.62,-0.173,0.631,0.094
45.63,-0.396,1.163,-0.172
45.64,-0.148,0.99,-0.024
45.65,-0.173,1.12,0.078
45.66,-0.101,0.676,0.178
45.67,-0.35,1.096,-0.072
45.68,-0.298,0.942,-0.197
45.69,-0.136,0.977,0.1
45.7,-0.12,1.081,0.136
45.71,-0.182,0.622,0.002
45.72,-0.434,1.238,-0.154
45.73,-0.144,0.932,-0.058
45.74,-0.146,1.098,0.102
45.75,-0.083,0.747,0.215
45.76,-0.396,0.971,-0.121
45.77,-0.353,1.028,-0.153
45.78,-0.004,0.963,0.04
45.79,-0.225,1.058,0.137
45.8,-0.132,0.656,0.02
45.81,-0.409,1.362,-0.218
45.82,-0.152,0.822,-0.025
45.83,-0.16,1.106,0.155
45.84,-0.108,0.833,0.122
45.85,-0.348,0.848,-0.157
45.86,-0.209,1.158,-0.119
45.87,-0.086,0.937,0.075
45.88,-0.187,0.987,0.132
45.89,-0.224,0.667,0.039
45.9,-0.324,1.33,-0.221
45.91,-0.076,0.881,-0.094
45.92,-0.138,1.013,0.161
45.93,-0.132,0.902,0.1
45.94,-0.356,0.844,-0.139
45.95,-0.26,1.225,-0.099
45.96,0.016,0.892,0.029
45.97,-0.172,1.0,0.132
45.98,-0.256,0.737,0.053
45.99,-0.401,1.261,-0.187
46.0,-0.104,0.858,-0.021
46.01,-0.044,1.019,0.181
46.02,-0.2,0.948,0.066
46.03,-0.411,0.806,-0.194
46.04,-0.201,1.279,-0.094
46.05,-0.094,0.803,0.067
46.06,-0.199,0.989,0.17
46.07,-0.243,0.825,-0.038
46.08,-0.322,1.135,-0.203
46.09,-0.133,0.941,-0.01
46.1,-0.097,0.946,0.201
46.11,-0.163,0.975,0.032
46.12,-0.364,0.794,-0.202
46.13,-0.153,1.287,-0.036
46.14,-0.153,0.804,0.127
46.15,-0.21,0.922,0.161
46.16,-0.211,0.887,-0.084
46.17,-0.338,1.062,-0.177
46.18,-0.12,1.074,0.041
46.19,-0.037,0.831,0.148
46.2,-0.182,0.996,0.008
46.21,-0.387,0.861,-0.134
46.22,-0.179,1.252,-0.059
46.23,-0.152,0.787,0.121
46.24,-0.138,0.93,0.187
46.25,-0.306,0.932,-0.13
46.26,-0.291,0.951,-0.099
46.27,-0.155,1.138,0.066
46.28,-0.041,0.779,0.159
46.29,-0.241,1.046,0.014
46.3,-0.436,0.845,-0.119
46.31,-0.155,1.237,-0.021
46.32,-0.104,0.796,0.094
46.33,-0.143,0.931,0.22
46.34,-0.402,1.004,-0.147
46.35,-0.188,0.852,-0.136
46.36,-0.142,1.307,0.108
46.37,-0.06,0.65,0.101
46.38,-0.335,1.06,0.006
46.39,-0.354,0.96,-0.156
46.4,-0.135,1.134,-0.086
46.41,-0.129,0.767,0.102
46.42,-0.035,0.902,0.147
46.43,-0.417,1.053,-0.218
46.44,-0.237,0.817,-0.102
46.45,-0.096,1.304,0.133
46.46,-0.115,0.633,0.093
46.47,-0.279,1.065,-0.022
46.48,-0.242,0.886,-0.192
46.49,-0.154,1.175,0.043
46.5,-0.126,0.802,0.163
46.51,-0.165,0.967,0.076
46.52,-0.366,0.99,-0.211
46.53,-0.123,0.942,-0.103
46.54,-0.052,1.131,0.061
46.55,-0.198,0.673,0.212
46.56,-0.374,1.121,-0.022
46.57,-0.298,0.863,-0.203
46.58,-0.095,1.167,0.054
46.59,-0.06,0.826,0.168
46.6,-0.282,0.854,0.075
46.61,-0.438,1.038,-0.189
46.62,-0.016,0.98,-0.072
46.63,-0.128,1.114,0.034
46.64,-0.146,0.637,0.192
46.65,-0.403,1.178,-0.119
46.66,-0.333,0.85,-0.145
46.67,0.031,1.151,0.065
46.68,-0.109,0.847,0.135
46.69,-0.341,0.805,-0.0
46.7,-0.267,1.208,-0.194
46.71,-0.13,0.855,-0.051
46.72,-0.209,1.12,0.175
46.73,-0.011,0.718,0.077
46.74,-0.519,1.095,-0.188
46.75,-0.206,0.947,-0.058
46.76,-0.064,1.126,0.079
46.77,-0.136,0.806,0.116
46.78,-0.242,0.81,-0.014
46.79,-0.311,1.268,-0.196
46.8,-0.091,0.832,0.034
46.81,-0.188,1.174,0.177
46.82,-0.038,0.661,0.034
46.83,-0.446,1.161,-0.202
46.84,-0.132,1.02,-0.029
46.85,-0.099,0.996,0.105
46.86,-0.211,0.924,0.138
46.87,-0.261,0.771,-0.043
46.88,-0.334,1.285,-0.194
46.89,-0.063,0.846,0.068
46.9,-0.15,1.13,0.158
46.91,-0.188,0.673,0.051
46.92,-0.495,1.119,-0.149
46.93,-0.101,1.093,-0.101
46.94,-0.094,0.816,0.111
46.95,-0.227,1.023,0.204
46.96,-0.365,0.731,-0.142
46.97,-0.3,1.23,-0.122
46.98,-0.044,0.921,0.086
46.99,-0.161,0.985,0.085
47.0,-0.201,0.776,-0.019
47.01,-0.312,1.12,-0.182
47.02,-0.104,1.117,-0.077
47.03,-0.145,0.8,0.146
47.04,-0.144,1.069,0.118
47.05,-0.362,0.748,-0.186
47.06,-0.27,1.246,-0.066
47.07,-0.079,0.916,0.119
47.08,-0.181,0.869,0.115
47.09,-0.221,0.935,0.015
47.1,-0.384,1.014,-0.226
47.11,-0.154,1.076,0.011
47.12,-0.024,0.823,0.198
47.13,-0.201,1.047,0.04
47.14,-0.39,0.78,-0.17
47.15,-0.059,1.24,-0.136
47.16,-0.088,0.838,0.059
47.17,-0.148,0.881,0.211
47.18,-0.327,0.997,-0.081
47.19,-0.279,0.863,-0.177
47.2,-0.086,1.276,0.093
47.21,-0.13,0.687,0.159
47.22,-0.254,1.035,0.023
47.23,-0.337,1.0,-0.17
47.24,-0.16,1.117,-0.075
47.25,-0.175,0.83,0.148
47.26,-0.064,0.855,0.161
47.27,-0.47,1.068,-0.157
47.28,-0.29,0.778,-0.059
47.29,-0.091,1.202,0.061
47.3,-0.155,0.563,0.119
47.31,-0.233,1.146,0.036
47.32,-0.409,0.932,-0.252
47.33,-0.199,1.076,0.022
47.34,-0.02,0.918,0.151
47.35,-0.169,0.872,0.068
47.36,-0.398,1.03,-0.168
47.37,-0.092,1.038,-0.039
47.38,-0.173,1.102,0.06
47.39,-0.137,0.604,0.248
47.4,-0.318,1.185,-0.13
47.41,-0.321,0.806,-0.195
47.42,-0.122,1.171,0.094
47.43,-0.141,0.898,0.114
47.44,-0.183,0.77,0.016
47.45,-0.383,1.226,-0.162
47.46,-0.071,0.909,-0.098
47.47,-0.224,1.129,0.095
47.48,-0.087,0.697,0.187
47.49,-0.432,1.113,-0.185
47.5,-0.281,0.853,-0.116
47.51,-0.012,1.223,0.005
47.52,-0.152,0.84,0.128
47.53,-0.158,0.787,0.035
47.54,-0.467,1.283,-0.201
47.55,-0.131,0.768,-0.034
47.56,-0.131,1.168,0.177
47.57,-0.122,0.712,0.124
47.58,-0.476,1.048,-0.193
47.59,-0.24,0.916,-0.092
47.6,-0.035,1.107,0.079
47.61,-0.174,0.86,0.108
47.62,-0.199,0.781,0.002
47.63,-0.362,1.313,-0.238
47.64,-0.083,0.718,-0.028
47.65,-0.166,1.223,0.227
47.66,-0.122,0.708,0.077
47.67,-0.491,1.084,-0.143
47.68,-0.181,1.104,-0.02
47.69,-0.123,0.958,0.107
47.7,-0.22,0.945,0.155
47.71,-0.193,0.781,-0.077
47.72,-0.367,1.278,-0.243
47.73,-0.072,0.815,0.07
47.74,-0.114,1.11,0.121
47.75,-0.163,0.698,0.046
47.76,-0.44,1.109,-0.143
47.77,-0.095,1.12,-0.11
47.78,-0.131,0.777,0.048
47.79,-0.147,1.038,0.179
47.8,-0.309,0.745,-0.151
47.81,-0.348,1.169,-0.095
47.82,-0.033,0.96,0.126
47.83,-0.173,0.994,0.124
47.84,-0.207,0.762,0.074
47.85,-0.362,1.13,-0.166
47.86,-0.146,1.109,-0.058
47.87,-0.191,0.76,0.142
47.88,-0.119,1.06,0.123
47.89,-0.386,0.752,-0.157
47.9,-0.281,1.243,-0.086
47.91,0.015,0.953,0.067
47.92,-0.22,0.833,0.166
47.93,-0.214,0.885,-0.032
47.94,-0.347,1.072,-0.205
47.95,-0.163,1.136,-0.005
47.96,-0.077,0.764,0.17
47.97,-0.183,1.046,0.07
47.98,-0.364,0.769,-0.174
47.99,-0.18,1.219,-0.069
48.0,-0.103,0.941,0.086
48.01,-0.132,0.785,0.134
48.02,-0.281,0.996,-0.036
48.03,-0.249,0.928,-0.209
48.04,-0.143,1.214,-0.023
48.05,-0.102,0.74,0.176
48.06,-0.186,1.011,0.004
48.07,-0.427,0.835,-0.176
48.08,-0.068,1.168,-0.042
48.09,-0.128,0.938,0.115
48.1,-0.236,0.747,0.156
48.11,-0.297,0.987,-0.134
48.12,-0.258,0.959,-0.153
48.13,-0.126,1.193,0.118
48.14,-0.011,0.69,0.145
48.15,-0.344,1.079,-0.064
48.16,-0.333,0.851,-0.12
48.17,-0.136,1.219,-0.007
48.18,-0.16,0.761,0.115
48.19,-0.104,0.885,0.12
48.2,-0.348,0.915,-0.268
48.21,-0.207,1.066,0.017
48.22,-0.024,1.106,0.099
48.23,-0.221,0.695,0.155
48.24,-0.358,1.121,0.001
48.25,-0.187,0.89,-0.205
48.26,-0.193,1.186,0.019
48.27,-0.035,0.745,0.204
48.28,-0.176,0.956,-0.013
48.29,-0.498,0.972,-0.221
48.3,-0.01,1.015,-0.029
48.31,-0.175,1.073,0.132
48.32,-0.232,0.695,0.182
48.33,-0.27,1.218,-0.162
48.34,-0.343,0.834,-0.157
48.35,-0.173,1.207,0.163
48.36,-0.066,0.759,0.145
