t,ax,ay,az
0.0,-0.29,0.852,-0.14
0.01,-0.082,1.276,0.128
0.02,-0.137,0.641,0.096
0.03,-0.275,1.049,0.01
0.04,-0.261,0.963,-0.202
0.05,-0.165,1.143,-0.019
0.06,-0.181,0.828,0.155
0.07,-0.078,0.845,0.074
0.08,-0.459,1.096,-0.185
0.09,-0.193,0.866,-0.036
0.1,-0.04,1.266,0.058
0.11,-0.116,0.605,0.12
0.12,-0.313,1.073,-0.004
0.13,-0.35,0.937,-0.208
0.14,-0.114,1.097,0.024
0.15,-0.094,0.964,0.128
0.16,-0.141,0.76,0.031
0.17,-0.457,1.184,-0.145
0.18,-0.083,0.903,-0.076
0.19,-0.201,1.153,0.11
0.2,-0.103,0.674,0.21
0.21,-0.299,1.125,-0.118
0.22,-0.331,0.873,-0.196
0.23,-0.083,1.083,0.118
0.24,-0.125,1.018,0.119
0.25,-0.146,0.655,0.028
0.26,-0.445,1.268,-0.166
0.27,-0.139,0.868,-0.058
0.28,-0.24,1.073,0.118
0.29,-0.097,0.7,0.197
0.3,-0.382,1.094,-0.134
0.31,-0.259,0.934,-0.171
0.32,-0.091,1.048,0.081
0.33,-0.111,1.021,0.099
0.34,-0.198,0.68,0.026
0.35,-0.464,1.291,-0.173
0.36,-0.071,0.879,-0.027
0.37,-0.226,1.112,0.106
0.38,-0.058,0.759,0.135
0.39,-0.387,1.029,-0.177
0.4,-0.243,1.021,-0.147
0.41,-0.039,1.0,0.103
0.42,-0.188,0.967,0.113
0.43,-0.211,0.699,-0.013
0.44,-0.349,1.333,-0.228
0.45,-0.073,0.769,-0.012
0.46,-0.072,1.141,0.154
0.47,-0.175,0.778,0.109
0.48,-0.501,0.968,-0.129
0.49,-0.097,1.191,-0.107
0.5,-0.12,0.863,0.066
0.51,-0.144,0.998,0.17
0.52,-0.212,0.751,-0.096
0.53,-0.402,1.236,-0.197
0.54,-0.063,0.868,0.061
0.55,-0.133,1.111,0.169
0.56,-0.196,0.782,0.062
0.57,-0.431,1.166,-0.182
0.58,-0.125,1.036,-0.083
0.59,-0.187,0.874,0.113
0.6,-0.153,1.005,0.181
0.61,-0.281,0.778,-0.148
0.62,-0.396,1.187,-0.131
0.63,-0.073,0.894,0.057
0.64,-0.12,1.072,0.149
0.65,-0.24,0.683,0.031
0.66,-0.45,1.115,-0.146
0.67,-0.078,1.113,-0.042
0.68,-0.195,0.8,0.12
0.69,-0.168,1.029,0.167
0.7,-0.327,0.834,-0.203
0.71,-0.288,1.195,-0.147
0.72,0.004,0.903,0.11
0.73,-0.185,0.958,0.176
0.74,-0.271,0.812,-0.002
0.75,-0.317,1.094,-0.203
0.76,-0.086,1.127,-0.041
0.77,-0.17,0.772,0.209
0.78,-0.152,1.021,0.077
0.79,-0.427,0.782,-0.223
0.8,-0.162,1.227,-0.048
0.81,-0.055,0.876,0.068
0.82,-0.248,0.896,0.157
0.83,-0.171,0.949,-0.059
0.84,-0.367,0.956,-0.166
0.85,-0.157,1.141,0.03
0.86,-0.045,0.797,0.115
0.87,-0.165,1.006,0.036
0.88,-0.371,0.912,-0.182
0.89,-0.118,1.162,-0.111
0.9,-0.183,0.823,0.082
0.91,-0.173,0.869,0.177
0.92,-0.272,1.059,-0.103
0.93,-0.373,0.886,-0.132
0.94,-0.111,1.213,0.1
0.95,-0.029,0.731,0.123
0.96,-0.243,1.004,0.011
0.97,-0.384,0.912,-0.168
0.98,-0.079,1.167,-0.073
0.99,-0.169,0.854,0.089
1.0,-0.157,0.82,0.2
1.01,-0.332,1.105,-0.14
1.02,-0.269,0.813,-0.111
1.03,-0.06,1.275,0.093
1.04,-0.059,0.67,0.096
1.05,-0.317,1.004,0.044
1.06,-0.31,1.021,-0.232
1.07,-0.035,1.049,-0.11
1.08,-0.209,0.954,0.154
1.09,-0.036,0.756,0.12
1.1,-0.497,1.152,-0.184
1.11,-0.195,0.861,-0.019
1.12,-0.083,1.312,0.06
1.13,-0.113,0.646,0.125
1.14,-0.245,1.039,0.023
1.15,-0.318,1.03,-0.232
1.16,-0.16,0.963,0.017
1.17,-0.105,1.064,0.151
1.18,-0.161,0.719,0.114
1.19,-0.49,1.156,-0.193
1.2,-0.102,0.874,-0.037
1.21,-0.123,1.221,0.081
1.22,-0.154,0.677,0.184
1.23,-0.232,0.979,-0.065
1.24,-0.407,1.024,-0.162
1.25,-0.085,0.969,0.03
1.26,-0.074,1.19,0.095
1.27,-0.176,0.602,0.005
1.28,-0.395,1.219,-0.142
1.29,-0.031,1.003,-0.092
1.3,-0.224,1.085,0.103
1.31,-0.109,0.753,0.214
1.32,-0.329,1.023,-0.175
1.33,-0.324,1.011,-0.181
1.34,-0.033,0.993,0.102
1.35,-0.194,1.138,0.107
1.36,-0.153,0.607,-0.005
1.37,-0.442,1.328,-0.143
1.38,-0.171,0.858,-0.014
1.39,-0.268,1.141,0.22
1.4,-0.06,0.731,0.077
1.41,-0.42,1.042,-0.234
1.42,-0.208,0.98,-0.053
1.43,-0.101,1.052,0.108
1.44,-0.104,0.937,0.109
1.45,-0.225,0.735,0.031
1.46,-0.346,1.307,-0.24
1.47,-0.121,0.79,0.028
1.48,-0.192,1.184,0.184
1.49,-0.079,0.734,0.096
1.5,-0.495,0.991,-0.154
1.51,-0.164,1.136,-0.06
1.52,-0.115,0.971,0.09
1.53,-0.136,0.97,0.156
1.54,-0.261,0.712,-0.008
1.55,-0.415,1.334,-0.226
1.56,-0.052,0.846,-0.019
1.57,-0.177,1.111,0.163
1.58,-0.125,0.768,0.04
1.59,-0.384,1.0,-0.194
1.6,-0.145,1.165,-0.02
1.61,-0.144,0.851,0.131
1.62,-0.15,0.976,0.131
1.63,-0.262,0.749,-0.084
1.64,-0.386,1.231,-0.132
1.65,-0.151,0.903,0.083
1.66,-0.151,1.059,0.144
1.67,-0.191,0.8,0.041
1.68,-0.374,1.017,-0.152
1.69,-0.218,1.197,-0.049
1.7,-0.054,0.694,0.085
1.71,-0.139,1.066,0.181
1.72,-0.334,0.743,-0.108
1.73,-0.242,1.15,-0.153
1.74,-0.09,1.042,0.1
1.75,-0.202,0.859,0.164
1.76,-0.177,0.902,0.014
1.77,-0.387,1.061,-0.212
1.78,-0.071,1.173,0.013
1.79,-0.173,0.762,0.154
1.8,-0.146,0.971,-0.036
1.81,-0.107,0.904,0.1
1.82,-0.091,0.977,0.105
1.83,-0.397,0.782,-0.179
1.84,-0.143,1.212,-0.116
1.85,-0.107,0.928,0.1
1.86,-0.201,0.979,0.147
1.87,-0.213,0.755,-0.024
1.88,-0.336,1.177,-0.226
1.89,-0.086,1.027,-0.024
1.9,-0.19,0.853,0.181
1.91,-0.087,0.993,0.058
1.92,-0.376,0.776,-0.22
1.93,-0.181,1.281,-0.009
1.94,-0.089,0.869,0.115
1.95,-0.204,0.914,0.125
1.96,-0.26,0.894,-0.047
1.97,-0.344,1.064,-0.187
1.98,-0.192,1.09,0.086
1.99,-0.053,0.833,0.122
2.0,-0.193,0.996,0.023
2.01,-0.385,0.838,-0.166
2.02,-0.106,1.241,-0.096
2.03,-0.119,0.758,0.085
2.04,-0.116,0.969,0.162
2.05,-0.352,0.932,-0.143
2.06,-0.33,0.894,-0.149
2.07,0.0,1.279,0.08
2.08,-0.202,0.709,0.088
2.09,-0.173,0.991,0.032
2.1,-0.369,0.981,-0.237
2.11,-0.144,1.112,-0.021
2.12,-0.048,0.756,0.208
2.13,-0.208,0.999,0.087
2.14,-0.458,0.843,-0.151
2.15,-0.17,1.069,-0.065
2.16,-0.082,1.083,0.046
2.17,-0.21,0.658,0.171
2.18,-0.224,1.125,-0.016
2.19,-0.411,0.883,-0.191
2.2,-0.172,1.131,0.045
2.21,-0.046,0.857,0.135
2.22,-0.162,0.932,0.071
2.23,-0.359,0.954,-0.202
2.24,-0.093,1.049,-0.103
2.25,-0.126,1.018,0.027
2.26,-0.112,0.701,0.197
2.27,-0.322,1.167,-0.08
2.28,-0.319,0.77,-0.167
2.29,-0.172,1.271,0.109
2.3,-0.115,0.813,0.127
2.31,-0.118,0.877,-0.013
2.32,-0.417,1.094,-0.158
2.33,-0.055,0.957,-0.062
2.34,-0.243,1.058,0.086
2.35,-0.113,0.662,0.174
2.36,-0.409,1.19,-0.165
2.37,-0.162,0.77,-0.176
2.38,-0.149,1.248,0.137
2.39,-0.063,0.765,0.133
2.4,-0.301,0.853,-0.005
2.41,-0.329,1.188,-0.168
2.42,-0.087,0.935,-0.051
2.43,-0.235,1.077,0.156
2.44,0.0,0.695,0.129
2.45,-0.469,1.2,-0.16
2.46,-0.284,0.835,-0.076
2.47,-0.025,1.172,0.109
2.48,-0.126,0.798,0.075
2.49,-0.307,0.873,0.03
2.5,-0.338,1.247,-0.188
2.51,-0.156,0.807,-0.015
2.52,-0.126,1.155,0.171
2.53,-0.103,0.68,0.057
2.54,-0.493,1.169,-0.205
2.55,-0.095,0.949,-0.094
2.56,-0.041,1.058,0.053
2.57,-0.222,0.886,0.209
2.58,-0.28,0.841,-0.052
2.59,-0.312,1.179,-0.212
2.6,-0.185,0.843,0.115
2.61,0.007,1.172,0.09
2.62,-0.158,0.662,0.038
2.63,-0.452,1.169,-0.177
2.64,-0.035,1.013,-0.101
2.65,-0.172,0.934,0.093
2.66,-0.209,0.965,0.218
2.67,-0.271,0.782,-0.152
2.68,-0.355,1.191,-0.102
2.69,-0.074,0.953,0.084
2.7,-0.113,1.079,0.144
2.71,-0.263,0.679,0.049
2.72,-0.42,1.154,-0.147
2.73,-0.106,1.095,-0.012
2.74,-0.199,0.855,0.126
2.75,-0.186,1.009,0.148
2.76,-0.281,0.749,-0.161
2.77,-0.369,1.24,-0.101
2.78,-0.076,0.896,0.099
2.79,-0.109,0.969,0.125
2.8,-0.299,0.781,0.034
2.81,-0.298,1.145,-0.177
2.82,-0.125,1.062,-0.075
2.83,-0.189,0.775,0.181
2.84,-0.049,1.053,0.093
2.85,-0.435,0.746,-0.194
2.86,-0.274,1.243,-0.007
2.87,-0.01,0.934,0.055
2.88,-0.199,0.894,0.123
2.89,-0.262,0.885,-0.012
2.9,-0.264,1.051,-0.214
2.91,-0.229,0.963,0.08
2.92,0.01,0.922,0.163
2.93,-0.201,0.956,0.016
2.94,-0.506,0.83,-0.119
2.95,-0.111,1.272,-0.071
2.96,-0.111,0.754,0.039
2.97,-0.244,0.989,0.224
2.98,-0.241,0.883,-0.122
2.99,-0.343,1.048,-0.17
3.0,-0.164,1.075,0.104
3.01,0.001,0.807,0.108
3.02,-0.271,1.008,0.022
3.03,-0.326,0.902,-0.17
3.04,-0.187,1.229,-0.038
3.05,-0.152,0.731,0.134
3.06,-0.138,1.018,0.194
3.07,-0.354,0.903,-0.215
3.08,-0.283,0.954,-0.123
3.09,-0.059,1.181,0.081
3.1,-0.09,0.695,0.107
3.11,-0.281,1.049,0.025
3.12,-0.347,0.885,-0.166
3.13,-0.158,1.19,0.008
3.14,-0.155,0.775,0.109
3.15,-0.154,0.953,0.107
3.16,-0.379,0.978,-0.214
3.17,-0.218,0.95,-0.081
3.18,-0.035,1.192,0.061
3.19,-0.16,0.633,0.111
3.2,-0.336,1.111,-0.031
3.21,-0.257,0.936,-0.206
3.22,-0.205,1.115,0.002
3.23,-0.113,0.81,0.171
3.24,-0.153,0.945,0.043
3.25,-0.448,1.045,-0.231
3.26,-0.093,0.9,-0.054
3.27,-0.118,1.178,0.082
3.28,-0.15,0.635,0.164
3.29,-0.304,1.156,-0.089
3.3,-0.298,0.876,-0.16
3.31,-0.156,1.14,0.05
3.32,-0.074,0.888,0.117
3.33,-0.198,0.813,0.022
3.34,-0.441,1.169,-0.186
3.35,-0.051,0.897,-0.06
3.36,-0.19,1.11,0.114
3.37,-0.058,0.671,0.196
3.38,-0.424,1.142,-0.146
3.39,-0.213,0.837,-0.149
3.4,-0.116,1.185,0.069
3.41,-0.135,0.881,0.12
3.42,-0.221,0.753,-0.036
3.43,-0.419,1.292,-0.179
3.44,-0.09,0.858,-0.042
3.45,-0.179,1.121,0.15
3.46,-0.09,0.697,0.144
3.47,-0.416,1.135,-0.172
3.48,-0.198,0.906,-0.123
3.49,-0.12,1.103,0.128
3.5,-0.164,0.928,0.111
3.51,-0.261,0.706,0.005
3.52,-0.392,1.294,-0.206
3.53,-0.116,0.812,0.005
3.54,-0.168,1.176,0.177
3.55,-0.022,0.725,0.084
3.56,-0.493,1.029,-0.182
3.57,-0.136,1.009,-0.074
3.58,-0.107,1.02,0.119
3.59,-0.159,0.947,0.116
3.6,-0.262,0.75,-0.043
3.61,-0.344,1.246,-0.232
3.62,-0.116,0.848,0.022
3.63,-0.146,1.121,0.173
3.64,-0.052,0.753,0.051
3.65,-0.492,1.058,-0.155
3.66,-0.073,1.08,-0.059
3.67,-0.108,0.891,0.106
3.68,-0.205,0.959,0.151
3.69,-0.282,0.774,-0.059
3.7,-0.311,1.249,-0.184
3.71,-0.19,0.859,0.047
3.72,-0.054,1.11,0.117
3.73,-0.212,0.665,0.02
3.74,-0.472,1.179,-0.138
3.75,-0.06,1.007,-0.064
3.76,-0.102,0.871,0.091
3.77,-0.155,0.948,0.186
3.78,-0.355,0.82,-0.173
3.79,-0.249,1.206,-0.146
3.8,-0.097,0.918,0.145
3.81,-0.219,1.029,0.132
3.82,-0.241,0.73,-0.019
3.83,-0.336,1.206,-0.165
3.84,-0.044,1.01,-0.053
3.85,-0.144,0.813,0.191
3.86,-0.115,1.026,0.101
3.87,-0.382,0.787,-0.216
3.88,-0.242,1.196,-0.089
3.89,0.002,0.888,0.077
3.9,-0.148,0.975,0.132
3.91,-0.327,0.855,-0.034
3.92,-0.341,1.086,-0.181
3.93,-0.084,1.088,-0.019
3.94,-0.08,0.849,0.15
3.95,-0.177,1.034,0.023
3.96,-0.366,0.826,-0.164
3.97,-0.146,1.267,-0.063
3.98,-0.138,0.776,0.087
3.99,-0.159,0.928,0.167
4.0,-0.265,0.955,-0.096
4.01,-0.375,0.953,-0.141
4.02,-0.249,1.141,0.098
4.03,-0.026,0.787,0.153
4.04,-0.287,1.01,-0.015
4.05,-0.343,0.844,-0.151
4.06,-0.15,1.242,-0.05
4.07,-0.091,0.774,0.116
4.08,-0.177,0.948,0.211
4.09,-0.326,0.996,-0.162
4.1,-0.321,0.91,-0.093
4.11,-0.08,1.263,0.086
4.12,-0.134,0.704,0.118
4.13,-0.312,1.053,0.021
4.14,-0.359,0.919,-0.16
4.15,-0.142,1.179,-0.059
4.16,-0.048,0.782,0.09
4.17,-0.153,0.875,0.143
4.18,-0.437,1.074,-0.153
4.19,-0.187,0.843,-0.102
4.2,-0.125,1.266,0.104
4.21,-0.172,0.599,0.147
4.22,-0.325,1.094,0.004
4.23,-0.262,0.949,-0.19
4.24,-0.113,1.102,0.012
4.25,-0.162,0.872,0.125
4.26,-0.107,0.846,0.071
4.27,-0.428,1.131,-0.196
4.28,-0.156,0.863,-0.028
4.29,-0.143,1.271,0.054
4.3,-0.105,0.603,0.139
4.31,-0.337,1.111,-0.024
4.32,-0.333,0.957,-0.222
4.33,-0.111,0.983,0.038
4.34,-0.144,1.012,0.189
4.35,-0.17,0.732,0.057
4.36,-0.423,1.193,-0.225
4.37,-0.062,0.875,-0.063
4.38,-0.161,1.173,0.093
4.39,-0.158,0.689,0.173
4.4,-0.335,1.07,-0.114
4.41,-0.302,0.961,-0.162
4.42,-0.098,1.003,0.137
4.43,-0.186,1.04,0.158
4.44,-0.187,0.695,-0.01
4.45,-0.504,1.286,-0.192
4.46,-0.006,0.829,-0.075
4.47,-0.09,1.169,0.118
4.48,-0.132,0.726,0.157
4.49,-0.421,1.025,-0.142
4.5,-0.191,1.041,-0.132
4.51,-0.102,1.036,0.089
4.52,-0.166,1.001,0.15
4.53,-0.182,0.686,0.004
4.54,-0.43,1.21,-0.195
4.55,-0.048,0.853,0.012
4.56,-0.177,1.202,0.107
4.57,-0.098,0.638,0.048
4.58,-0.387,1.17,-0.195
4.59,-0.188,1.017,-0.004
4.6,-0.11,0.962,0.123
4.61,-0.173,0.916,0.164
4.62,-0.265,0.793,-0.113
4.63,-0.342,1.21,-0.154
4.64,-0.075,0.887,0.1
4.65,-0.143,1.138,0.126
4.66,-0.158,0.671,-0.009
4.67,-0.395,1.179,-0.189
4.68,-0.093,1.046,-0.059
4.69,-0.136,0.862,0.114
4.7,-0.166,0.981,0.206
4.71,-0.339,0.812,-0.15
4.72,-0.294,1.208,-0.184
4.73,-0.119,0.868,0.13
4.74,-0.115,1.013,0.127
4.75,-0.254,0.73,0.002
4.76,-0.339,1.155,-0.128
4.77,-0.129,1.097,-0.04
4.78,-0.225,0.787,0.145
4.79,-0.129,1.024,0.15
4.8,-0.354,0.777,-0.224
4.81,-0.289,1.224,-0.089
4.82,0.032,0.894,0.086
4.83,-0.206,0.94,0.097
4.84,-0.296,0.802,-0.011
4.85,-0.248,1.115,-0.211
4.86,-0.05,1.092,-0.027
4.87,-0.228,0.797,0.234
4.88,-0.171,1.05,0.056
4.89,-0.384,0.802,-0.208
4.9,-0.24,1.226,-0.01
4.91,-0.064,0.858,0.126
4.92,-0.213,0.921,0.112
4.93,-0.308,0.895,-0.103
4.94,-0.219,0.954,-0.191
4.95,-0.13,1.215,0.095
4.96,-0.147,0.706,0.161
4.97,-0.195,1.044,0.005
4.98,-0.4,0.883,-0.203
4.99,-0.185,1.144,0.008
5.0,-0.128,0.861,0.134
5.01,-0.187,0.889,0.12
5.02,-0.33,0.979,-0.128
5.03,-0.238,0.947,-0.081
5.04,-0.065,1.215,-0.014
5.05,-0.08,0.62,0.14
5.06,-0.24,1.096,-0.002
5.07,-0.378,0.893,-0.243
5.08,-0.072,1.085,0.005
5.09,-0.142,0.964,0.147
5.1,-0.183,0.796,0.077
5.11,-0.386,1.102,-0.208
5.12,-0.128,0.919,-0.079
5.13,-0.061,1.253,0.045
5.14,-0.139,0.616,0.153
5.15,-0.354,1.083,-0.033
5.16,-0.349,0.915,-0.187
5.17,-0.126,1.055,0.055
5.18,-0.156,1.0,0.147
5.19,-0.112,0.734,0.019
5.2,-0.433,1.187,-0.196
5.21,-0.12,0.898,-0.078
5.22,-0.128,1.154,0.07
5.23,-0.137,0.67,0.189
5.24,-0.336,1.128,-0.111
5.25,-0.215,0.888,-0.229
5.26,-0.139,1.045,0.142
5.27,-0.143,0.999,0.148
5.28,-0.183,0.689,0.007
5.29,-0.432,1.294,-0.171
5.3,-0.151,0.848,-0.035
5.31,-0.149,1.157,0.102
5.32,-0.094,0.705,0.186
5.33,-0.441,1.029,-0.141
5.34,-0.221,1.012,-0.145
5.35,0.008,1.073,0.033
5.36,-0.092,0.76,0.118
5.37,-0.212,0.833,0.003
5.38,-0.389,1.26,-0.197
5.39,-0.044,0.793,-0.036
5.4,-0.189,1.167,0.197
5.41,-0.133,0.662,0.119
5.42,-0.459,1.154,-0.175
5.43,-0.187,0.956,-0.022
5.44,-0.075,1.091,0.071
5.45,-0.209,0.813,0.14
5.46,-0.196,0.808,-0.061
5.47,-0.365,1.248,-0.209
5.48,-0.002,0.83,0.005
5.49,-0.221,1.205,0.165
5.5,-0.139,0.635,0.07
5.51,-0.431,1.128,-0.179
5.52,-0.067,1.056,-0.079
5.53,-0.115,0.938,0.073
5.54,-0.16,0.917,0.217
5.55,-0.282,0.822,-0.122
5.56,-0.393,1.179,-0.105
5.57,-0.015,0.869,0.096
5.58,-0.157,1.192,0.116
5.59,-0.196,0.658,0.039
5.6,-0.363,1.116,-0.13
5.61,-0.176,1.153,-0.054
5.62,-0.137,0.806,0.097
5.63,-0.125,1.044,0.182
5.64,-0.365,0.802,-0.138
5.65,-0.292,1.201,-0.095
5.66,-0.074,0.935,0.129
5.67,-0.203,1.038,0.143
5.68,-0.175,0.75,-0.008
5.69,-0.398,1.159,-0.171
5.7,-0.158,1.085,-0.036
5.71,-0.162,0.762,0.113
5.72,-0.141,1.052,0.141
5.73,-0.351,0.791,-0.183
5.74,-0.269,1.21,-0.065
5.75,-0.009,0.922,0.083
5.76,-0.184,0.902,0.153
5.77,-0.266,0.856,-0.02
5.78,-0.345,1.104,-0.165
5.79,-0.171,1.078,-0.026
5.8,-0.121,0.791,0.199
5.81,-0.163,1.048,0.071
5.82,-0.414,0.764,-0.215
5.83,-0.103,1.233,-0.07
5.84,-0.082,0.907,0.085
5.85,-0.156,0.867,0.18
5.86,-0.264,1.001,-0.074
5.87,-0.363,0.949,-0.15
5.88,-0.207,1.166,0.074
5.89,-0.03,0.769,0.1
5.9,-0.183,1.015,0.015
5.91,-0.405,0.846,-0.169
5.92,-0.109,1.194,-0.056
5.93,-0.119,0.829,0.065
5.94,-0.111,0.863,0.197
5.95,-0.377,1.068,-0.144
5.96,-0.29,0.796,-0.142
5.97,-0.096,1.331,0.138
5.98,-0.138,0.714,0.148
5.99,-0.349,1.022,0.069
6.0,-0.332,0.923,-0.189
6.01,-0.212,1.108,-0.022
6.02,-0.099,0.909,0.087
6.03,-0.096,0.812,0.133
6.04,-0.406,1.086,-0.201
6.05,-0.15,0.888,-0.084
6.06,-0.211,1.314,0.098
6.07,-0.053,0.621,0.139
6.08,-0.284,1.031,0.003
6.09,-0.324,0.995,-0.211
6.1,-0.086,1.055,0.003
6.11,-0.198,0.958,0.151
6.12,-0.15,0.72,0.093
6.13,-0.385,1.179,-0.206
6.14,-0.089,0.854,-0.027
6.15,-0.187,1.231,0.068
6.16,-0.074,0.654,0.138
6.17,-0.397,1.206,-0.081
6.18,-0.254,0.835,-0.163
6.19,-0.1,1.203,0.053
6.2,-0.125,0.862,0.148
6.21,-0.168,0.814,0.037
6.22,-0.485,1.168,-0.159
6.23,-0.168,0.878,-0.003
6.24,-0.216,1.171,0.094
6.25,-0.065,0.638,0.147
6.26,-0.415,1.125,-0.148
6.27,-0.236,0.883,-0.156
6.28,-0.067,1.129,0.081
6.29,-0.104,0.857,0.109
6.3,-0.233,0.771,-0.021
6.31,-0.387,1.268,-0.165
6.32,-0.105,0.818,-0.022
6.33,-0.261,1.107,0.18
6.34,0.004,0.75,0.085
6.35,-0.437,1.109,-0.208
6.36,-0.272,0.935,-0.05
6.37,-0.022,1.133,0.099
6.38,-0.143,0.882,0.066
6.39,-0.219,0.775,0.023
6.4,-0.341,1.321,-0.222
6.41,-0.119,0.79,0.003
6.42,-0.172,1.191,0.167
6.43,-0.101,0.659,0.082
6.44,-0.486,1.109,-0.163
6.45,-0.189,1.064,-0.042
6.46,-0.095,0.924,0.08
6.47,-0.202,0.976,0.197
6.48,-0.25,0.771,-0.063
6.49,-0.381,1.225,-0.204
6.5,-0.123,0.848,0.093
6.51,-0.107,1.162,0.109
6.52,-0.108,0.732,0.04
6.53,-0.448,1.07,-0.204
6.54,-0.075,1.087,-0.064
6.55,-0.165,0.859,0.109
6.56,-0.168,1.006,0.17
6.57,-0.27,0.815,-0.137
6.58,-0.295,1.172,-0.188
6.59,-0.109,0.916,0.131
6.6,-0.148,1.074,0.116
6.61,-0.219,0.756,-0.003
6.62,-0.38,1.084,-0.159
6.63,-0.128,1.15,-0.087
6.64,-0.188,0.716,0.131
6.65,-0.12,1.068,0.158
6.66,-0.403,0.809,-0.167
6.67,-0.354,1.114,-0.108
6.68,-0.02,0.977,0.098
6.69,-0.109,0.957,0.124
6.7,-0.259,0.829,-0.002
6.71,-0.298,1.064,-0.185
6.72,-0.119,1.161,-0.067
6.73,-0.207,0.701,0.209
6.74,-0.098,1.052,0.082
6.75,-0.356,0.818,-0.236
6.76,-0.223,1.177,-0.029
6.77,-0.136,0.937,0.075
6.78,-0.133,0.828,0.16
6.79,-0.259,1.01,-0.012
6.8,-0.37,0.914,-0.218
6.81,-0.111,1.182,0.013
6.82,-0.125,0.813,0.151
6.83,-0.185,1.01,0.056
6.84,-0.355,0.845,-0.188
6.85,-0.073,1.166,-0.095
6.86,-0.177,0.881,0.07
6.87,-0.083,0.789,0.189
6.88,-0.317,1.073,-0.1
6.89,-0.364,0.846,-0.146
6.9,-0.074,1.242,0.047
6.91,-0.11,0.759,0.088
6.92,-0.219,0.957,0.021
6.93,-0.29,0.91,-0.19
6.94,-0.069,1.166,-0.068
6.95,-0.202,0.921,0.129
6.96,-0.118,0.766,0.184
6.97,-0.344,1.125,-0.149
6.98,-0.298,0.812,-0.171
6.99,-0.014,1.279,0.047
7.0,-0.157,0.61,0.125
7.01,-0.26,1.121,0.059
7.02,-0.336,0.959,-0.222
7.03,-0.176,1.045,-0.037
7.04,-0.157,0.863,0.215
7.05,-0.098,0.886,0.07
7.06,-0.455,1.058,-0.177
7.07,-0.168,0.881,-0.046
7.08,-0.169,1.264,0.067
7.09,-0.132,0.583,0.15
7.1,-0.319,1.13,0.006
7.11,-0.295,0.937,-0.254
7.12,-0.126,1.027,0.037
7.13,-0.121,0.998,0.182
7.14,-0.147,0.788,0.068
7.15,-0.451,1.105,-0.173
7.16,-0.075,0.909,-0.063
7.17,-0.189,1.157,0.046
7.18,-0.125,0.639,0.161
7.19,-0.344,1.159,-0.067
7.2,-0.302,0.822,-0.227
7.21,-0.152,1.055,0.118
7.22,-0.115,1.009,0.107
7.23,-0.183,0.684,0.007
7.24,-0.439,1.262,-0.115
7.25,-0.122,0.853,-0.062
7.26,-0.197,1.151,0.109
7.27,-0.173,0.698,0.185
7.28,-0.388,1.072,-0.145
7.29,-0.227,0.941,-0.191
7.3,-0.002,1.115,0.042
7.31,-0.097,0.927,0.103
7.32,-0.242,0.716,0.052
7.33,-0.424,1.349,-0.211
7.34,-0.106,0.812,-0.049
7.35,-0.167,1.133,0.154
7.36,-0.068,0.765,0.122
7.37,-0.462,1.018,-0.169
7.38,-0.234,0.995,-0.097
7.39,-0.062,1.064,0.072
7.4,-0.126,0.969,0.094
7.41,-0.239,0.698,0.021
7.42,-0.406,1.338,-0.205
7.43,-0.064,0.765,-0.034
7.44,-0.216,1.134,0.181
7.45,-0.091,0.768,0.077
7.46,-0.451,0.981,-0.208
7.47,-0.217,1.119,-0.042
7.48,-0.12,0.942,0.1
7.49,-0.124,0.926,0.123
7.5,-0.243,0.73,-0.025
7.51,-0.387,1.298,-0.216
7.52,-0.146,0.842,0.036
7.53,-0.061,1.113,0.108
7.54,-0.18,0.759,0.036
7.55,-0.436,0.988,-0.158
7.56,-0.064,1.212,-0.1
7.57,-0.146,0.767,0.062
7.58,-0.153,1.013,0.176
7.59,-0.268,0.766,-0.107
7.6,-0.36,1.163,-0.13
7.61,-0.089,0.954,0.11
7.62,-0.119,1.004,0.123
7.63,-0.246,0.815,0.022
7.64,-0.359,1.003,-0.173
7.65,-0.114,1.24,-0.097
7.66,-0.201,0.7,0.172
7.67,-0.09,1.048,0.137
7.68,-0.336,0.769,-0.186
7.69,-0.285,1.096,-0.113
7.7,0.006,1.073,0.079
7.71,-0.156,0.837,0.12
7.72,-0.25,0.953,0.031
7.73,-0.379,0.999,-0.177
7.74,-0.18,1.142,-0.013
7.75,-0.153,0.721,0.155
7.76,-0.097,1.054,0.097
7.77,-0.434,0.783,-0.185
7.78,-0.161,1.117,-0.082
7.79,-0.022,1.063,0.063
7.8,-0.139,0.875,0.154
7.81,-0.241,0.968,0.002
7.82,-0.387,1.006,-0.208
7.83,-0.103,1.088,0.029
7.84,-0.088,0.837,0.196
7.85,-0.231,1.008,0.018
7.86,-0.333,0.844,-0.196
7.87,-0.111,1.276,-0.09
7.88,-0.152,0.78,0.115
7.89,-0.15,0.889,0.207
7.9,-0.313,1.017,-0.131
7.91,-0.318,0.84,-0.179
7.92,-0.1,1.248,0.114
7.93,-0.101,0.74,0.128
7.94,-0.276,1.03,0.031
7.95,-0.332,0.895,-0.165
7.96,-0.136,1.158,-0.045
7.97,-0.177,0.81,0.137
7.98,-0.073,0.879,0.206
7.99,-0.399,1.068,-0.166
8.0,-0.284,0.809,-0.099
8.01,-0.064,1.293,0.066
8.02,-0.076,0.616,0.073
8.03,-0.267,1.079,0.026
8.04,-0.318,0.975,-0.23
8.05,-0.136,1.042,0.0
8.06,-0.152,0.967,0.145
8.07,-0.147,0.808,0.107
8.08,-0.418,1.09,-0.14
8.09,-0.251,0.837,-0.047
8.1,-0.107,1.283,0.081
8.11,-0.124,0.623,0.15
8.12,-0.264,1.038,0.013
8.13,-0.383,0.997,-0.192
8.14,-0.138,1.016,0.02
8.15,-0.132,1.007,0.14
8.16,-0.04,0.746,0.085
8.17,-0.523,1.18,-0.161
8.18,-0.091,0.826,-0.082
8.19,-0.153,1.225,0.073
8.2,-0.103,0.688,0.168
8.21,-0.297,1.035,-0.053
8.22,-0.395,0.944,-0.225
8.23,-0.139,0.952,0.075
8.24,-0.086,1.167,0.125
8.25,-0.146,0.633,0.017
8.26,-0.451,1.215,-0.143
8.27,-0.067,0.945,-0.053
8.28,-0.137,1.13,0.074
8.29,-0.192,0.723,0.189
8.3,-0.269,1.069,-0.106
8.31,-0.311,1.007,-0.156
8.32,-0.12,0.947,0.12
8.33,-0.091,1.115,0.136
8.34,-0.168,0.605,0.017
8.35,-0.451,1.258,-0.143
8.36,-0.16,0.915,-0.047
8.37,-0.132,1.062,0.056
8.38,-0.162,0.832,0.172
8.39,-0.292,0.948,-0.172
8.4,-0.32,1.04,-0.142
8.41,-0.003,0.986,0.126
8.42,-0.175,1.081,0.119
8.43,-0.17,0.63,0.028
8.44,-0.432,1.348,-0.191
8.45,-0.157,0.871,-0.069
8.46,-0.175,1.05,0.16
8.47,-0.077,0.836,0.1
8.48,-0.414,0.888,-0.168
8.49,-0.248,1.198,-0.063
8.5,-0.039,0.94,0.08
8.51,-0.195,0.984,0.137
8.52,-0.18,0.69,0.005
8.53,-0.412,1.324,-0.207
8.54,-0.113,0.833,-0.032
8.55,-0.146,1.007,0.187
8.56,-0.126,0.899,0.096
8.57,-0.412,0.863,-0.16
8.58,-0.207,1.253,-0.092
8.59,-0.094,0.864,0.058
8.6,-0.135,1.003,0.14
8.61,-0.253,0.772,-0.022
8.62,-0.373,1.269,-0.153
8.63,-0.119,0.897,0.075
8.64,-0.154,1.081,0.154
8.65,-0.128,0.727,0.065
8.66,-0.41,1.082,-0.178
8.67,-0.173,1.204,-0.081
8.68,-0.102,0.762,0.072
8.69,-0.216,1.049,0.197
8.7,-0.285,0.739,-0.119
8.71,-0.314,1.185,-0.141
8.72,-0.113,0.928,0.08
8.73,-0.125,1.008,0.129
8.74,-0.171,0.802,0.042
8.75,-0.417,1.046,-0.122
8.76,-0.092,1.194,-0.113
8.77,-0.135,0.714,0.103
8.78,-0.178,1.089,0.184
8.79,-0.352,0.783,-0.14
8.8,-0.288,1.114,-0.168
8.81,-0.075,1.004,0.125
8.82,-0.109,0.825,0.119
8.83,-0.22,0.927,0.021
8.84,-0.337,1.042,-0.198
8.85,-0.165,1.182,-0.035
8.86,-0.139,0.723,0.168
8.87,-0.239,1.078,0.155
8.88,-0.311,0.782,-0.17
8.89,-0.212,1.117,-0.135
8.9,-0.036,1.016,0.064
8.91,-0.094,0.75,0.11
8.92,-0.268,1.019,0.023
8.93,-0.286,0.935,-0.234
8.94,-0.12,1.14,-0.029
8.95,-0.117,0.743,0.174
8.96,-0.154,1.031,0.064
8.97,-0.316,0.839,-0.18
8.98,-0.263,1.134,-0.042
8.99,-0.133,1.027,0.08
9.0,-0.123,0.703,0.138
9.01,-0.273,1.104,-0.0
9.02,-0.305,0.901,-0.21
9.03,-0.186,1.2,0.019
9.04,-0.098,0.749,0.197
9.05,-0.174,0.989,0.073
9.06,-0.37,0.941,-0.18
9.07,-0.15,1.042,-0.075
9.08,-0.132,1.012,0.07
9.09,-0.156,0.713,0.164
9.1,-0.331,1.136,-0.073
9.11,-0.27,0.779,-0.197
9.12,-0.06,1.233,0.045
9.13,-0.165,0.822,0.196
9.14,-0.175,0.917,0.09
9.15,-0.34,1.069,-0.213
9.16,-0.186,0.999,-0.084
9.17,-0.1,1.049,0.034
9.18,-0.156,0.716,0.113
9.19,-0.301,1.144,-0.076
9.2,-0.323,0.773,-0.171
9.21,-0.098,1.198,0.075
9.22,-0.08,0.848,0.131
9.23,-0.142,0.846,0.029
9.24,-0.38,1.125,-0.179
9.25,-0.141,0.96,-0.099
9.26,-0.144,1.04,0.106
9.27,-0.13,0.696,0.168
9.28,-0.4,1.195,-0.114
9.29,-0.308,0.802,-0.139
9.3,-0.133,1.2,0.123
9.31,-0.07,0.873,0.087
9.32,-0.183,0.816,0.014
9.33,-0.415,1.144,-0.172
9.34,-0.071,0.892,-0.049
9.35,-0.2,1.103,0.037
9.36,-0.062,0.697,0.206
9.37,-0.405,1.172,-0.13
9.38,-0.326,0.818,-0.152
9.39,0.029,1.199,0.053
9.4,-0.135,0.886,0.099
9.41,-0.258,0.761,0.054
9.42,-0.341,1.302,-0.19
9.43,-0.159,0.834,-0.04
9.44,-0.201,1.09,0.172
9.45,-0.035,0.725,0.074
9.46,-0.498,1.162,-0.206
9.47,-0.206,0.834,-0.014
9.48,-0.091,1.277,0.052
9.49,-0.083,0.733,0.11
9.5,-0.252,0.917,-0.003
9.51,-0.328,1.154,-0.237
9.52,-0.1,0.867,-0.035
9.53,-0.155,1.108,0.131
9.54,-0.048,0.691,0.094
9.55,-0.495,1.192,-0.183
9.56,-0.262,0.803,-0.052
9.57,-0.018,1.223,0.018
9.58,-0.123,0.77,0.097
9.59,-0.348,0.864,0.011
9.6,-0.247,1.242,-0.237
9.61,-0.151,0.812,-0.017
9.62,-0.172,1.145,0.216
9.63,-0.066,0.669,0.086
9.64,-0.533,1.123,-0.173
9.65,-0.175,0.966,0.008
9.66,-0.033,1.125,0.009
9.67,-0.184,0.785,0.125
9.68,-0.25,0.833,-0.027
9.69,-0.291,1.297,-0.24
9.7,-0.144,0.781,-0.024
9.71,-0.05,1.14,0.152
9.72,-0.081,0.668,0.029
9.73,-0.515,1.141,-0.158
9.74,0.022,0.97,-0.133
9.75,-0.205,1.038,0.08
9.76,-0.171,0.89,0.148
9.77,-0.164,0.804,-0.045
9.78,-0.453,1.227,-0.147
9.79,-0.111,0.827,0.067
9.8,-0.084,1.169,0.162
9.81,-0.129,0.677,0.079
9.82,-0.487,1.134,-0.178
9.83,-0.025,1.055,-0.081
9.84,-0.163,0.902,0.082
9.85,-0.232,0.959,0.229
9.86,-0.225,0.803,-0.117
9.87,-0.348,1.199,-0.183
9.88,-0.143,0.864,0.136
9.89,-0.05,1.17,0.132
9.9,-0.201,0.693,0.024
9.91,-0.46,1.048,-0.123
9.92,-0.042,1.089,-0.094
9.93,-0.201,0.862,0.057
9.94,-0.127,0.992,0.172
9.95,-0.22,0.817,-0.125
9.96,-0.368,1.206,-0.17
9.97,-0.087,0.876,0.094
9.98,-0.012,1.054,0.123
9.99,-0.294,0.795,0.054
10.0,-0.349,1.098,-0.157
10.01,-0.077,1.147,-0.076
10.02,-0.2,0.745,0.102
10.03,-0.152,1.009,0.186
10.04,-0.255,0.805,-0.164
10.05,-0.355,1.154,-0.138
10.06,-0.041,0.95,0.092
10.07,-0.088,1.029,0.14
10.08,-0.298,0.78,0.057
10.09,-0.346,1.041,-0.119
10.1,-0.071,1.229,-0.086
10.11,-0.225,0.731,0.119
10.12,-0.082,1.05,0.149
10.13,-0.331,0.83,-0.153
10.14,-0.181,0.761,0.181
10.15,-0.04,1.035,0.109
10.16,-0.43,0.77,-0.155
10.17,-0.235,1.196,-0.106
10.18,-0.059,0.945,0.065
10.19,-0.246,0.998,0.164
10.2,-0.181,0.747,0.014
10.21,-0.354,1.243,-0.235
10.22,-0.096,0.918,-0.083
10.23,-0.123,0.947,0.18
10.24,-0.136,0.954,0.097
10.25,-0.406,0.96,-0.163
10.26,-0.068,1.213,-0.08
10.27,-0.153,0.798,0.073
10.28,-0.154,1.016,0.134
10.29,-0.23,0.765,-0.04
10.3,-0.393,1.171,-0.211
10.31,-0.139,0.905,0.028
10.32,-0.103,1.106,0.18
10.33,-0.18,0.86,0.036
10.34,-0.388,0.898,-0.147
10.35,-0.13,1.253,-0.076
10.36,-0.073,0.784,0.083
10.37,-0.142,1.011,0.127
10.38,-0.26,0.793,-0.042
10.39,-0.406,1.168,-0.175
10.4,-0.138,0.933,0.037
10.41,-0.074,0.97,0.144
10.42,-0.228,0.91,0.023
10.43,-0.384,0.92,-0.16
10.44,-0.098,1.239,-0.08
10.45,-0.162,0.744,0.122
10.46,-0.116,1.036,0.183
10.47,-0.292,0.845,-0.076
10.48,-0.4,1.03,-0.179
10.49,-0.115,0.972,0.079
10.5,-0.038,0.946,0.154
10.51,-0.225,0.933,0.016
10.52,-0.388,0.846,-0.156
10.53,-0.111,1.279,-0.061
10.54,-0.161,0.784,0.09
10.55,-0.192,0.939,0.204
10.56,-0.164,0.897,-0.099
10.57,-0.345,1.057,-0.191
10.58,-0.108,1.071,0.099
10.59,-0.052,0.869,0.128
10.6,-0.299,0.959,-0.004
10.61,-0.357,0.867,-0.123
10.62,-0.101,1.287,-0.094
10.63,-0.183,0.745,0.062
10.64,-0.15,0.943,0.244
10.65,-0.208,0.948,-0.146
10.66,-0.37,0.966,-0.134
10.67,-0.075,1.176,0.064
10.68,-0.012,0.79,0.119
10.69,-0.344,1.012,0.023
10.7,-0.356,0.893,-0.158
10.71,-0.115,1.235,-0.089
10.72,-0.205,0.753,0.097
10.73,-0.088,0.964,0.181
10.74,-0.313,0.972,-0.143
10.75,-0.354,0.811,-0.139
10.76,-0.05,1.286,0.051
10.77,-0.049,0.768,0.116
10.78,-0.319,1.026,0.067
10.79,-0.289,0.91,-0.147
10.8,-0.221,1.241,-0.091
10.81,-0.127,0.755,0.1
10.82,-0.079,0.932,0.187
10.83,-0.371,1.077,-0.14
10.84,-0.322,0.778,-0.142
10.85,-0.054,1.273,0.088
10.86,-0.074,0.73,0.144
10.87,-0.333,1.029,0.021
10.88,-0.307,0.922,-0.129
10.89,-0.187,1.17,-0.03
10.9,-0.23,0.814,0.095
10.91,-0.039,0.864,0.177
10.92,-0.338,1.146,-0.172
10.93,-0.347,0.78,-0.112
10.94,-0.005,1.267,0.062
10.95,-0.106,0.679,0.14
10.96,-0.296,1.035,0.047
10.97,-0.323,0.971,-0.148
10.98,-0.203,1.045,-0.062
10.99,-0.216,0.877,0.134
11.0,-0.082,0.979,0.099
11.01,-0.354,1.003,-0.217
11.02,-0.261,0.829,-0.08
11.03,-0.014,1.26,0.048
11.04,-0.088,0.619,0.128
11.05,-0.369,1.073,0.059
11.06,-0.303,0.945,-0.195
11.07,-0.167,1.106,-0.074
11.08,-0.233,0.836,0.189
11.09,-0.048,0.894,0.186
11.1,-0.385,1.095,-0.204
11.11,-0.267,0.785,-0.097
11.12,-0.055,1.288,0.068
11.13,-0.017,0.652,0.115
11.14,-0.395,1.082,0.032
11.15,-0.258,0.959,-0.13
11.16,-0.231,1.093,-0.045
11.17,-0.287,0.849,0.176
11.18,0.008,0.879,0.111
11.19,-0.428,1.127,-0.21
11.2,-0.302,0.751,-0.015
11.21,-0.047,1.34,0.067
11.22,-0.064,0.634,0.117
11.23,-0.329,1.044,0.016
11.24,-0.281,0.982,-0.245
11.25,-0.092,1.015,-0.056
11.26,-0.244,0.961,0.167
11.27,-0.09,0.76,0.1
11.28,-0.456,1.166,-0.193
11.29,-0.196,0.806,-0.045
11.3,-0.109,1.305,0.034
11.31,-0.076,0.618,0.175
11.32,-0.276,1.0,-0.003
11.33,-0.246,1.038,-0.228
11.34,-0.14,0.984,0.006
11.35,-0.248,1.008,0.131
11.36,-0.052,0.703,0.121
11.37,-0.46,1.218,-0.17
11.38,-0.243,0.821,-0.049
11.39,-0.097,1.27,0.081
11.4,-0.095,0.679,0.158
11.41,-0.299,0.936,0.004
11.42,-0.268,1.095,-0.215
11.43,-0.112,0.931,0.001
11.44,-0.26,1.065,0.124
11.45,-0.052,0.661,0.061
11.46,-0.469,1.219,-0.187
11.47,-0.253,0.835,-0.039
11.48,-0.053,1.218,0.078
11.49,-0.109,0.714,0.125
11.5,-0.3,0.929,0.007
11.51,-0.324,1.171,-0.229
11.52,-0.081,0.856,0.005
11.53,-0.119,1.144,0.14
11.54,-0.152,0.694,0.07
11.55,-0.448,1.169,-0.16
11.56,-0.184,0.912,-0.042
11.57,-0.135,1.154,0.066
11.58,-0.073,0.735,0.129
11.59,-0.289,0.924,-0.002
11.6,-0.376,1.188,-0.241
11.61,-0.019,0.807,0.006
11.62,-0.123,1.189,0.142
11.63,-0.13,0.635,0.046
11.64,-0.445,1.163,-0.152
11.65,-0.153,0.976,-0.028
11.66,-0.148,1.073,0.08
11.67,-0.109,0.8,0.151
11.68,-0.302,0.894,-0.047
11.69,-0.396,1.209,-0.152
11.7,-0.077,0.817,0.012
11.71,-0.149,1.17,0.166
11.72,-0.073,0.648,0.045
11.73,-0.423,1.169,-0.204
11.74,-0.155,0.994,-0.037
11.75,-0.12,0.98,0.092
11.76,-0.179,0.884,0.193
11.77,-0.283,0.836,-0.102
11.78,-0.293,1.236,-0.159
11.79,-0.163,0.833,0.071
11.8,-0.024,1.127,0.133
11.81,-0.119,0.66,0.036
11.82,-0.455,1.282,-0.131
11.83,-0.064,0.941,-0.096
11.84,-0.251,0.984,0.076
11.85,-0.123,0.842,0.229
11.86,-0.377,0.926,-0.148
11.87,-0.274,1.076,-0.151
11.88,-0.127,0.97,0.08
11.89,-0.108,1.092,0.118
11.9,-0.212,0.616,-0.007
11.91,-0.417,1.299,-0.154
11.92,-0.095,0.979,-0.055
11.93,-0.221,0.96,0.088
11.94,-0.101,0.883,0.206
11.95,-0.368,0.888,-0.157
11.96,-0.32,1.14,-0.155
11.97,0.069,0.87,0.044
11.98,-0.137,1.07,0.116
11.99,-0.316,0.667,0.026
12.0,-0.255,1.26,-0.219
12.01,-0.064,0.947,-0.07
12.02,-0.273,0.899,0.216
12.03,-0.03,0.955,0.083
12.04,-0.409,0.853,-0.234
12.05,-0.278,1.25,-0.022
12.06,-0.024,0.919,0.097
12.07,-0.196,0.954,0.117
12.08,-0.245,0.744,0.028
12.09,-0.224,1.229,-0.257
12.1,-0.135,0.978,-0.049
12.11,-0.13,0.858,0.175
12.12,-0.038,1.042,0.066
12.13,-0.456,0.804,-0.178
12.14,-0.255,1.22,-0.054
12.15,-0.042,0.881,0.059
12.16,-0.187,0.947,0.152
12.17,-0.275,0.827,0.003
12.18,-0.244,1.142,-0.22
12.19,-0.18,1.048,-0.033
12.2,-0.135,0.796,0.193
12.21,-0.125,1.028,0.065
12.22,-0.458,0.814,-0.172
12.23,-0.121,1.25,-0.069
12.24,-0.125,0.793,0.075
12.25,-0.162,0.922,0.182
12.26,-0.27,0.911,-0.09
12.27,-0.314,0.957,-0.19
12.28,-0.105,1.113,0.052
12.29,-0.026,0.848,0.106
12.3,-0.25,0.987,0.04
12.31,-0.362,0.838,-0.171
12.32,-0.064,1.262,-0.087
12.33,-0.172,0.8,0.114
12.34,-0.172,0.868,0.18
12.35,-0.284,1.008,-0.087
12.36,-0.348,0.93,-0.137
12.37,-0.16,1.106,0.063
12.38,-0.034,0.781,0.155
12.39,-0.227,1.052,0.007
12.4,-0.409,0.796,-0.187
12.41,-0.039,1.198,-0.104
12.42,-0.131,0.86,0.077
12.43,-0.224,0.831,0.215
12.44,-0.291,1.073,-0.123
12.45,-0.279,0.875,-0.164
12.46,-0.189,1.232,0.164
12.47,-0.036,0.699,0.149
12.48,-0.293,1.026,-0.023
12.49,-0.377,0.861,-0.133
12.5,-0.101,1.139,-0.024
12.51,-0.182,0.879,0.067
12.52,-0.059,0.795,0.16
12.53,-0.335,1.135,-0.144
12.54,-0.29,0.844,-0.13
12.55,-0.076,1.259,0.101
12.56,-0.052,0.677,0.127
12.57,-0.307,1.06,0.008
12.58,-0.356,0.963,-0.174
12.59,-0.193,1.06,-0.011
12.6,-0.19,0.895,0.119
12.61,-0.085,0.804,0.155
12.62,-0.394,1.175,-0.196
12.63,-0.257,0.76,-0.109
12.64,-0.061,1.26,0.059
12.65,-0.037,0.624,0.12
12.66,-0.347,1.085,-0.006
12.67,-0.26,0.917,-0.191
12.68,-0.194,1.188,0.013
12.69,-0.228,0.825,0.172
12.7,-0.073,0.874,0.085
12.71,-0.447,1.114,-0.19
12.72,-0.201,0.879,-0.021
12.73,-0.11,1.214,0.098
12.74,-0.102,0.605,0.143
12.75,-0.32,1.129,-0.026
12.76,-0.291,0.907,-0.216
12.77,-0.151,1.098,0.027
12.78,-0.125,0.98,0.104
12.79,-0.064,0.776,0.011
12.8,-0.446,1.187,-0.147
12.81,-0.106,0.868,-0.108
12.82,-0.168,1.156,0.105
12.83,-0.059,0.677,0.166
12.84,-0.393,1.125,-0.081
12.85,-0.315,0.828,-0.21
12.86,-0.094,1.093,0.056
12.87,-0.131,1.047,0.144
12.88,-0.146,0.69,0.007
12.89,-0.445,1.22,-0.163
12.9,-0.078,0.869,-0.059
12.91,-0.162,1.176,0.143
12.92,-0.141,0.726,0.173
12.93,-0.397,1.092,-0.129
12.94,-0.289,0.907,-0.183
12.95,-0.06,1.043,0.067
12.96,-0.109,1.059,0.115
12.97,-0.159,0.63,0.001
12.98,-0.412,1.169,-0.136
12.99,-0.097,0.904,-0.057
13.0,-0.192,1.087,0.111
13.01,-0.097,0.698,0.211
13.02,-0.388,1.185,-0.185
13.03,-0.323,0.83,-0.09
13.04,-0.019,1.185,0.087
13.05,-0.096,0.873,0.135
13.06,-0.264,0.741,-0.007
13.07,-0.329,1.292,-0.195
13.08,-0.081,0.857,-0.018
13.09,-0.255,1.1,0.163
13.1,-0.036,0.712,0.099
13.11,-0.456,1.108,-0.221
13.12,-0.229,0.896,-0.07
13.13,-0.037,1.108,0.054
13.14,-0.113,0.896,0.13
13.15,-0.241,0.752,-0.019
13.16,-0.334,1.29,-0.216
13.17,-0.073,0.802,0.019
13.18,-0.228,1.158,0.202
13.19,-0.091,0.696,0.073
13.2,-0.471,1.114,-0.2
13.21,-0.164,1.029,-0.053
13.22,-0.082,1.019,0.053
13.23,-0.177,0.913,0.149
13.24,-0.181,0.742,-0.017
13.25,-0.351,1.322,-0.213
13.26,-0.173,0.768,0.053
13.27,-0.103,1.158,0.142
13.28,-0.138,0.7,0.037
13.29,-0.413,1.071,-0.149
13.3,-0.074,1.135,-0.096
13.31,-0.162,0.853,0.085
13.32,-0.154,0.958,0.15
13.33,-0.209,0.773,-0.14
13.34,-0.376,1.223,-0.137
13.35,-0.144,0.882,0.142
13.36,-0.086,1.109,0.088
13.37,-0.227,0.727,0.014
13.38,-0.383,1.045,-0.126
13.39,-0.156,1.167,-0.084
13.4,-0.147,0.746,0.11
13.41,-0.123,1.083,0.196
13.42,-0.303,0.744,-0.164
13.43,-0.372,1.142,-0.137
13.44,0.002,1.021,0.086
13.45,-0.24,1.014,0.125
13.46,-0.254,0.706,0.033
13.47,-0.281,1.249,-0.22
13.48,-0.135,0.981,-0.02
13.49,-0.191,0.869,0.18
13.5,-0.076,1.004,0.069
13.51,-0.38,0.79,-0.193
13.52,-0.292,1.281,-0.034
13.53,-0.057,0.866,0.05
13.54,-0.261,0.931,0.151
13.55,-0.231,0.834,0.009
13.56,-0.387,1.141,-0.264
13.57,-0.089,0.94,-0.038
13.58,-0.118,0.908,0.181
13.59,-0.173,1.013,0.056
13.6,-0.365,0.758,-0.16
13.61,-0.077,1.329,-0.075
13.62,-0.163,0.827,0.108
13.63,-0.19,0.899,0.205
13.64,-0.22,0.933,-0.075
13.65,-0.375,1.03,-0.155
13.66,-0.164,1.122,0.094
13.67,-0.094,0.794,0.114
13.68,-0.204,1.027,0.033
13.69,-0.397,0.877,-0.152
13.7,-0.163,1.218,-0.091
13.71,-0.093,0.763,0.081
13.72,-0.176,0.964,0.182
13.73,-0.358,0.973,-0.145
13.74,-0.3,0.894,-0.148
13.75,-0.079,1.236,0.106
13.76,-0.078,0.694,0.164
13.77,-0.313,1.06,0.025
13.78,-0.256,0.947,-0.2
13.79,-0.165,1.126,-0.055
13.8,-0.146,0.812,0.162
13.81,-0.068,0.925,0.127
13.82,-0.437,1.008,-0.159
13.83,-0.271,0.861,-0.015
13.84,-0.067,1.325,0.013
13.85,-0.17,0.598,0.156
13.86,-0.255,1.107,0.089
13.87,-0.328,0.965,-0.226
13.88,-0.147,1.06,-0.031
13.89,-0.119,0.911,0.143
13.9,-0.014,0.836,0.072
13.91,-0.421,1.112,-0.17
13.92,-0.25,0.867,-0.026
13.93,-0.132,1.276,0.083
13.94,-0.102,0.661,0.121
13.95,-0.271,1.094,0.022
13.96,-0.314,0.969,-0.189
13.97,-0.065,1.04,0.013
13.98,-0.186,0.99,0.175
13.99,-0.042,0.774,0.088
14.0,-0.475,1.168,-0.213
14.01,-0.141,0.854,-0.025
14.02,-0.183,1.219,0.1
14.03,-0.116,0.643,0.186
14.04,-0.398,1.073,-0.021
14.05,-0.281,0.94,-0.221
14.06,-0.125,1.003,0.056
14.07,-0.1,1.104,0.128
14.08,-0.064,0.685,0.034
14.09,-0.492,1.213,-0.177
14.1,-0.036,0.864,-0.08
14.11,-0.154,1.165,0.12
14.12,-0.234,0.697,0.212
14.13,-0.357,1.03,-0.111
14.14,-0.246,0.995,-0.188
14.15,-0.108,1.053,0.118
14.16,-0.19,1.043,0.121
14.17,-0.189,0.637,0.043
14.18,-0.392,1.356,-0.183
14.19,-0.074,0.843,-0.058
14.2,-0.157,1.088,0.14
14.21,-0.131,0.798,0.139
14.22,-0.374,0.96,-0.149
14.23,-0.279,1.026,-0.123
14.24,-0.018,1.026,0.052
14.25,-0.207,1.054,0.114
14.26,-0.17,0.648,0.031
14.27,-0.36,1.328,-0.194
14.28,-0.11,0.801,-0.015
14.29,-0.183,1.129,0.129
14.3,-0.032,0.757,0.108
14.31,-0.463,1.104,-0.204
14.32,-0.208,0.969,-0.066
14.33,-0.012,1.058,0.108
14.34,-0.245,0.927,0.128
14.35,-0.251,0.747,-0.039
14.36,-0.397,1.305,-0.23
14.37,-0.043,0.76,0.005
14.38,-0.153,1.197,0.182
14.39,-0.107,0.729,0.023
14.4,-0.371,1.031,-0.2
14.41,-0.159,1.123,0.008
14.42,-0.141,0.9,0.12
14.43,-0.214,0.953,0.174
14.44,-0.228,0.781,-0.092
14.45,-0.306,1.247,-0.202
14.46,-0.177,0.882,0.121
14.47,-0.147,1.056,0.134
14.48,-0.094,0.723,-0.015
14.49,-0.451,1.133,-0.158
14.5,-0.093,1.118,-0.073
14.51,-0.066,0.789,0.081
14.52,-0.249,1.027,0.216
14.53,-0.328,0.753,-0.143
14.54,-0.238,1.183,-0.148
14.55,-0.122,0.969,0.124
14.56,-0.23,0.949,0.152
14.57,-0.233,0.844,0.065
14.58,-0.343,1.083,-0.217
14.59,-0.138,1.131,-0.042
14.6,-0.168,0.772,0.12
14.61,-0.116,1.041,0.133
14.62,-0.296,0.717,-0.191
14.63,-0.257,1.212,-0.084
14.64,-0.091,0.948,0.051
14.65,-0.11,0.831,0.072
14.66,-0.257,0.937,0.02
14.67,-0.401,1.022,-0.186
14.68,-0.059,1.11,-0.053
14.69,-0.138,0.778,0.178
14.7,-0.138,1.041,0.091
14.71,-0.332,0.78,-0.174
14.72,-0.228,1.201,-0.077
14.73,-0.047,0.98,0.069
14.74,-0.154,0.806,0.112
14.75,-0.339,1.013,-0.025
14.76,-0.324,0.948,-0.245
14.77,-0.033,1.178,-0.031
14.78,-0.115,0.79,0.176
14.79,-0.136,1.014,0.029
14.8,-0.346,0.835,-0.211
14.81,-0.12,1.172,-0.032
14.82,-0.062,0.977,0.057
14.83,-0.26,0.714,0.192
14.84,-0.281,1.122,-0.056
14.85,-0.233,0.884,-0.194
14.86,-0.236,1.203,0.104
14.87,-0.059,0.705,0.155
14.88,-0.206,1.012,-0.021
14.89,-0.442,0.941,-0.16
14.9,-0.039,1.058,-0.085
14.91,-0.195,1.008,0.09
14.92,-0.166,0.725,0.195
14.93,-0.303,1.154,-0.162
14.94,-0.284,0.817,-0.151
14.95,-0.066,1.263,0.061
14.96,-0.101,0.705,0.121
14.97,-0.225,0.964,0.037
14.98,-0.392,1.033,-0.19
14.99,-0.123,0.966,-0.046
15.0,-0.192,1.016,0.108
15.01,-0.152,0.724,0.183
15.02,-0.385,1.16,-0.155
15.03,-0.196,0.786,-0.107
15.04,-0.141,1.316,0.14
15.05,-0.1,0.705,0.117
15.06,-0.267,0.903,-0.011
15.07,-0.352,1.114,-0.202
15.08,-0.142,1.013,-0.007
15.09,-0.168,0.958,0.157
15.1,-0.133,0.812,0.068
15.11,-0.414,1.125,-0.217
15.12,-0.182,0.843,0.004
15.13,-0.092,1.236,0.078
15.14,-0.097,0.648,0.147
15.15,-0.367,1.078,0.006
15.16,-0.259,0.971,-0.235
15.17,-0.171,0.991,0.056
15.18,-0.109,1.034,0.159
15.19,-0.125,0.717,0.011
15.2,-0.525,1.21,-0.202
15.21,-0.038,0.878,-0.047
15.22,-0.141,1.162,0.075
15.23,-0.166,0.659,0.168
15.24,-0.317,1.077,-0.097
15.25,-0.228,0.984,-0.197
15.26,-0.152,0.992,0.117
15.27,-0.158,1.033,0.12
15.28,-0.094,0.645,-0.011
15.29,-0.494,1.3,-0.158
15.3,-0.082,0.879,-0.066
15.31,-0.178,1.123,0.133
15.32,-0.112,0.758,0.152
15.33,-0.384,1.004,-0.167
15.34,-0.202,1.034,-0.179
15.35,-0.031,1.001,0.117
15.36,-0.174,1.011,0.142
15.37,-0.158,0.655,-0.02
15.38,-0.487,1.325,-0.189
15.39,-0.028,0.811,-0.011
15.4,-0.195,1.112,0.171
15.41,-0.18,0.82,0.1
15.42,-0.384,0.93,-0.191
15.43,-0.199,1.142,-0.082
15.44,-0.054,0.91,0.113
15.45,-0.139,0.987,0.107
15.46,-0.253,0.695,-0.047
15.47,-0.31,1.298,-0.201
15.48,-0.141,0.891,0.024
15.49,-0.179,0.993,0.171
15.5,-0.121,0.904,0.047
15.51,-0.401,0.92,-0.182
15.52,-0.183,1.194,-0.017
15.53,-0.002,0.811,0.077
15.54,-0.185,1.013,0.184
15.55,-0.259,0.763,-0.064
15.56,-0.343,1.224,-0.231
15.57,-0.08,0.876,0.078
15.58,-0.175,0.978,0.188
15.59,-0.21,0.864,-0.015
15.6,-0.403,0.945,-0.175
15.61,-0.056,1.324,-0.026
15.62,-0.072,0.722,0.113
15.63,-0.19,1.047,0.195
15.64,-0.323,0.852,-0.14
15.65,-0.325,1.095,-0.151
15.66,0.028,1.025,0.08
15.67,-0.146,0.827,0.126
15.68,-0.368,0.969,0.007
15.69,-0.288,0.919,-0.181
15.7,-0.136,1.204,-0.048
15.71,-0.146,0.704,0.201
15.72,-0.105,1.05,0.059
15.73,-0.373,0.845,-0.234
15.74,-0.192,1.073,-0.057
15.75,-0.01,1.037,0.053
15.76,-0.194,0.721,0.166
15.77,-0.251,1.109,-0.087
15.78,-0.261,0.848,-0.207
15.79,-0.163,1.188,0.073
15.8,-0.088,0.766,0.158
15.81,-0.139,0.966,0.034
15.82,-0.409,1.024,-0.167
15.83,-0.178,1.046,-0.089
15.84,-0.105,0.979,0.051
15.85,-0.076,0.743,0.188
15.86,-0.415,1.126,-0.134
15.87,-0.212,0.78,-0.179
15.88,-0.005,1.305,0.096
15.89,-0.159,0.699,0.122
15.9,-0.268,1.05,0.032
15.91,-0.332,0.962,-0.247
15.92,-0.102,1.037,-0.023
15.93,-0.132,0.904,0.169
15.94,-0.204,0.827,0.095
15.95,-0.311,1.105,-0.192
15.96,-0.164,0.952,-0.005
15.97,-0.241,1.237,0.062
15.98,-0.059,0.615,0.145
15.99,-0.248,1.129,-0.041
16.0,-0.461,0.928,-0.197
16.01,-0.133,0.941,0.045
16.02,0.034,1.132,0.098
16.03,-0.175,0.698,0.079
16.04,-0.405,1.146,-0.161
16.05,-0.031,0.903,-0.089
16.06,-0.18,1.137,0.032
16.07,-0.091,0.724,0.231
16.08,-0.392,1.072,-0.108
16.09,-0.282,0.888,-0.212
16.1,-0.046,1.144,0.144
16.11,-0.17,1.032,0.085
16.12,-0.246,0.62,0.07
16.13,-0.271,1.371,-0.187
16.14,-0.258,0.851,-0.046
16.15,-0.219,1.064,0.124
16.16,0.046,0.811,0.151
16.17,-0.448,0.977,-0.184
16.18,-0.295,0.937,-0.128
16.19,0.079,1.083,0.036
16.2,-0.191,0.98,0.091
16.21,-0.209,0.658,0.096
16.22,-0.283,1.374,-0.251
16.23,-0.121,0.794,-0.067
16.24,-0.25,1.085,0.242
16.25,-0.014,0.815,0.12
16.26,-0.464,0.947,-0.189
16.27,-0.199,1.081,-0.021
16.28,-0.075,1.029,0.027
16.29,-0.222,0.936,0.12
16.3,-0.198,0.668,0.073
16.31,-0.351,1.375,-0.265
16.32,-0.076,0.772,-0.021
16.33,-0.146,1.128,0.185
16.34,-0.099,0.813,0.073
16.35,-0.431,0.882,-0.172
16.36,-0.111,1.241,-0.064
16.37,-0.121,0.902,0.082
16.38,-0.176,0.943,0.155
16.39,-0.184,0.768,-0.025
16.4,-0.485,1.301,-0.15
16.41,-0.065,0.807,0.014
16.42,-0.16,1.113,0.147
16.43,-0.162,0.875,0.034
16.44,-0.338,0.846,-0.201
16.45,-0.155,1.251,-0.066
16.46,-0.098,0.827,0.088
16.47,-0.129,1.004,0.166
16.48,-0.274,0.762,-0.051
16.49,-0.339,1.232,-0.191
16.5,-0.109,0.929,0.077
16.51,-0.133,0.965,0.135
16.52,-0.185,0.91,0.03
16.53,-0.378,0.866,-0.177
16.54,-0.111,1.268,-0.029
16.55,-0.115,0.772,0.113
16.56,-0.149,1.009,0.151
16.57,-0.293,0.81,-0.076
16.58,-0.351,1.117,-0.139
16.59,-0.139,1.041,0.062
16.6,-0.096,0.877,0.119
16.61,-0.217,0.933,0.012
16.62,-0.404,0.929,-0.12
16.63,-0.152,1.257,-0.073
16.64,-0.124,0.658,0.134
16.65,-0.121,1.067,0.176
16.66,-0.382,0.863,-0.155
16.67,-0.324,1.004,-0.089
16.68,0.0,1.141,0.066
16.69,-0.156,0.726,0.135
16.7,-0.279,1.042,0.021
16.71,-0.316,0.973,-0.218
16.72,-0.152,1.117,-0.012
16.73,-0.031,0.809,0.196
16.74,-0.144,1.053,0.079
16.75,-0.358,0.8,-0.172
16.76,-0.107,1.222,-0.09
16.77,-0.102,0.938,0.057
16.78,-0.15,0.778,0.215
16.79,-0.291,1.071,-0.103
16.8,-0.328,0.857,-0.157
16.81,-0.151,1.235,0.073
16.82,-0.086,0.726,0.131
16.83,-0.202,0.997,0.044
16.84,-0.319,0.965,-0.176
16.85,-0.169,1.093,-0.12
16.86,-0.144,0.86,0.089
16.87,-0.077,0.812,0.207
16.88,-0.443,1.107,-0.153
16.89,-0.227,0.763,-0.143
16.9,-0.04,1.333,0.095
16.91,-0.137,0.656,0.142
16.92,-0.233,1.007,0.044
16.93,-0.351,1.017,-0.211
16.94,-0.14,1.0,-0.04
16.95,-0.112,0.979,0.146
16.96,-0.159,0.775,0.139
16.97,-0.416,1.114,-0.144
16.98,-0.152,0.869,-0.09
16.99,-0.148,1.314,0.092
17.0,-0.182,0.587,0.134
17.01,-0.15,1.015,-0.02
17.02,-0.408,1.107,-0.222
17.03,-0.084,0.875,0.024
17.04,-0.169,1.109,0.161
17.05,-0.157,0.704,0.055
17.06,-0.419,1.13,-0.189
17.07,-0.145,0.894,-0.043
17.08,-0.158,1.219,0.083
17.09,-0.14,0.697,0.12
17.1,-0.283,0.996,-0.01
17.11,-0.411,1.063,-0.196
17.12,-0.113,0.83,0.102
17.13,-0.041,1.211,0.11
17.14,-0.185,0.64,0.055
17.15,-0.464,1.201,-0.142
17.16,-0.101,0.923,-0.094
17.17,-0.177,1.057,0.085
17.18,-0.071,0.863,0.202
17.19,-0.387,0.917,-0.165
17.2,-0.31,1.054,-0.175
17.21,0.056,1.001,0.087
17.22,-0.222,1.074,0.103
17.23,-0.189,0.611,0.083
17.24,-0.388,1.356,-0.238
17.25,-0.11,0.883,-0.062
17.26,-0.2,1.025,0.207
17.27,-0.094,0.866,0.087
17.28,-0.417,0.895,-0.169
17.29,-0.236,1.187,-0.081
17.3,-0.107,0.901,0.076
17.31,-0.177,0.963,0.146
17.32,-0.178,0.711,0.075
17.33,-0.435,1.33,-0.255
17.34,-0.04,0.814,-0.059
17.35,-0.076,1.042,0.153
17.36,-0.171,0.904,0.064
17.37,-0.383,0.821,-0.163
17.38,-0.21,1.322,-0.047
17.39,-0.134,0.784,0.076
17.4,-0.195,0.99,0.137
17.41,-0.207,0.756,-0.075
17.42,-0.341,1.186,-0.208
17.43,-0.166,0.962,0.085
17.44,-0.078,0.938,0.146
17.45,-0.214,0.903,0.025
17.46,-0.377,0.87,-0.098
17.47,-0.243,1.275,-0.055
17.48,-0.091,0.716,0.073
17.49,-0.158,1.081,0.177
17.5,-0.358,0.796,-0.143
17.51,-0.27,1.074,-0.15
17.52,0.006,1.128,0.033
17.53,-0.109,0.844,0.107
17.54,-0.159,0.923,0.033
17.55,-0.354,1.026,-0.25
17.56,-0.109,1.093,-0.061
17.57,-0.089,0.795,0.19
17.58,-0.213,1.061,0.076
17.59,-0.356,0.803,-0.176
17.6,-0.218,1.249,-0.082
17.61,-0.114,0.925,0.055
17.62,-0.065,0.776,0.15
17.63,-0.25,1.047,-0.002
17.64,-0.332,0.943,-0.234
17.65,-0.156,1.106,0.023
17.66,-0.091,0.773,0.148
17.67,-0.222,1.033,0.073
17.68,-0.336,0.875,-0.189
17.69,-0.135,1.151,-0.093
17.7,-0.139,0.885,0.085
17.71,-0.154,0.802,0.182
17.72,-0.294,1.114,-0.096
17.73,-0.261,0.862,-0.154
17.74,-0.138,1.233,0.075
17.75,-0.072,0.729,0.147
17.76,-0.253,1.029,0.087
17.77,-0.42,0.957,-0.184
17.78,-0.187,1.064,-0.061
17.79,-0.185,0.896,0.107
17.8,-0.115,0.769,0.183
17.81,-0.454,1.142,-0.143
17.82,-0.268,0.762,-0.102
17.83,-0.033,1.325,0.068
17.84,-0.092,0.651,0.148
17.85,-0.274,0.967,0.056
17.86,-0.338,1.041,-0.231
17.87,-0.102,0.94,-0.014
17.88,-0.231,1.068,0.237
17.89,-0.132,0.677,0.07
17.9,-0.425,1.154,-0.195
17.91,-0.121,0.902,-0.008
17.92,-0.183,1.237,0.115
17.93,-0.164,0.69,0.171
17.94,-0.219,0.974,-0.055
17.95,-0.333,1.011,-0.22
17.96,-0.14,0.967,0.111
17.97,-0.165,1.137,0.102
17.98,-0.131,0.613,0.005
17.99,-0.517,1.268,-0.147
18.0,-0.013,0.93,-0.12
18.01,-0.146,1.131,0.067
18.02,-0.135,0.784,0.156
18.03,-0.309,0.934,-0.145
18.04,-0.274,1.065,-0.136
18.05,-0.076,0.963,0.084
18.06,-0.166,1.07,0.105
18.07,-0.167,0.657,0.015
18.08,-0.41,1.331,-0.202
18.09,-0.1,0.856,-0.027
18.1,-0.245,1.071,0.184
18.11,-0.08,0.858,0.141
18.12,-0.415,0.888,-0.181
18.13,-0.184,1.15,-0.122
18.14,0.016,0.957,0.042
18.15,-0.156,0.993,0.125
18.16,-0.241,0.729,0.01
18.17,-0.44,1.271,-0.199
18.18,-0.115,0.854,0.042
18.19,-0.094,1.067,0.137
18.2,-0.091,0.883,-0.0
18.21,-0.428,0.879,-0.175
18.22,-0.091,1.29,-0.042
18.23,-0.063,0.792,0.05
18.24,-0.175,1.023,0.212
18.25,-0.228,0.735,-0.101
18.26,-0.298,1.186,-0.149
18.27,-0.104,1.008,0.12
18.28,-0.136,0.886,0.113
18.29,-0.236,0.905,0.002
18.3,-0.377,0.994,-0.162
18.31,-0.104,1.242,-0.058
18.32,-0.205,0.676,0.18
18.33,-0.066,1.061,0.147
18.34,-0.425,0.774,-0.216
18.35,-0.167,1.238,-0.037
18.36,-0.076,0.861,0.102
18.37,-0.265,0.891,0.192
18.38,-0.188,0.918,-0.096
18.39,-0.348,0.99,-0.242
18.4,-0.114,1.167,0.098
18.41,-0.059,0.774,0.145
18.42,-0.231,1.009,0.055
18.43,-0.297,0.887,-0.17
18.44,-0.171,1.198,-0.056
18.45,-0.223,0.81,0.108
18.46,-0.076,0.925,0.136
18.47,-0.326,0.982,-0.2
18.48,-0.147,0.831,0.113
18.49,-0.229,0.901,0.198
18.5,-0.224,0.973,-0.134
18.51,-0.305,0.958,-0.16
18.52,-0.116,1.2,0.086
18.53,-0.043,0.733,0.111
18.54,-0.289,1.011,0.002
18.55,-0.372,0.897,-0.145
18.56,-0.107,1.21,-0.044
18.57,-0.206,0.787,0.104
18.58,-0.056,0.884,0.168
18.59,-0.384,1.038,-0.184
18.6,-0.293,0.853,-0.073
18.61,-0.021,1.342,0.118
18.62,-0.137,0.627,0.033
18.63,-0.238,1.057,0.037
18.64,-0.302,0.947,-0.212
18.65,-0.129,1.078,-0.026
18.66,-0.104,0.91,0.14
18.67,-0.117,0.82,0.077
18.68,-0.471,1.136,-0.221
18.69,-0.107,0.849,-0.028
18.7,-0.106,1.196,0.07
18.71,-0.175,0.627,0.191
18.72,-0.29,1.096,-0.082
18.73,-0.294,0.891,-0.184
18.74,-0.157,1.107,0.139
18.75,-0.134,1.011,0.134
18.76,-0.124,0.685,-0.006
18.77,-0.428,1.296,-0.164
18.78,-0.146,0.85,-0.043
18.79,-0.199,1.151,0.107
18.8,0.007,0.712,0.149
18.81,-0.454,1.047,-0.197
18.82,-0.226,0.951,-0.09
18.83,-0.014,1.124,0.06
18.84,-0.149,0.883,0.082
18.85,-0.159,0.72,0.064
18.86,-0.432,1.374,-0.241
18.87,-0.116,0.71,-0.028
18.88,-0.147,1.185,0.162
18.89,-0.112,0.757,0.09
18.9,-0.471,1.021,-0.182
18.91,-0.134,1.108,-0.039
18.92,-0.111,1.012,0.049
18.93,-0.137,0.82,0.199
18.94,-0.236,0.879,-0.11
18.95,-0.356,1.165,-0.171
18.96,-0.064,0.914,0.135
18.97,-0.162,1.157,0.122
18.98,-0.201,0.584,0.048
18.99,-0.383,1.259,-0.171
19.0,-0.133,0.975,-0.076
19.01,-0.179,0.952,0.123
19.02,-0.08,0.934,0.141
19.03,-0.422,0.773,-0.149
19.04,-0.24,1.184,-0.116
19.05,-0.024,0.913,0.055
19.06,-0.225,0.936,0.156
19.07,-0.2,0.717,0.07
19.08,-0.423,1.344,-0.242
19.09,-0.077,0.771,0.033
19.1,-0.156,1.158,0.2
19.11,-0.162,0.791,0.048
19.12,-0.386,0.894,-0.154
19.13,-0.163,1.301,-0.013
19.14,-0.177,0.777,0.102
19.15,-0.225,1.027,0.163
19.16,-0.208,0.748,-0.073
19.17,-0.383,1.202,-0.179
19.18,-0.088,0.932,0.093
19.19,-0.062,1.022,0.116
19.2,-0.229,0.821,0.003
19.21,-0.379,0.987,-0.156
19.22,-0.104,1.25,-0.119
19.23,-0.143,0.671,0.111
19.24,-0.17,1.07,0.166
19.25,-0.323,0.773,-0.18
19.26,-0.286,1.128,-0.141
19.27,-0.005,1.059,0.065
19.28,-0.183,0.807,0.105
19.29,-0.264,0.94,0.071
19.3,-0.317,0.995,-0.236
19.31,-0.118,1.118,-0.044
19.32,-0.183,0.802,0.194
19.33,-0.085,1.033,0.053
19.34,-0.347,0.795,-0.197
19.35,-0.128,1.198,-0.066
19.36,-0.098,1.028,0.043
19.37,-0.171,0.718,0.141
19.38,-0.211,1.067,-0.025
19.39,-0.305,0.917,-0.228
19.4,-0.111,1.208,0.052
19.41,-0.067,0.809,0.133
19.42,-0.185,0.943,0.053
19.43,-0.415,0.941,-0.143
19.44,-0.142,1.125,-0.081
19.45,-0.063,0.962,0.024
19.46,-0.165,0.742,0.18
19.47,-0.307,1.127,-0.104
19.48,-0.225,0.805,-0.183
19.49,-0.15,1.262,0.115
19.5,-0.086,0.709,0.11
19.51,-0.208,0.983,0.021
19.52,-0.413,1.041,-0.172
19.53,-0.13,0.934,-0.035
19.54,-0.218,1.034,0.131
19.55,-0.042,0.726,0.142
19.56,-0.409,1.158,-0.168
19.57,-0.255,0.798,-0.106
19.58,-0.081,1.258,0.077
19.59,-0.055,0.691,0.12
19.6,-0.308,0.948,0.005
19.61,-0.293,1.129,-0.19
19.62,-0.176,0.894,0.003
19.63,-0.227,1.042,0.186
19.64,-0.043,0.685,0.092
19.65,-0.522,1.224,-0.161
19.66,-0.225,0.872,-0.03
19.67,-0.072,1.215,0.046
19.68,-0.119,0.728,0.137
19.69,-0.302,0.892,-0.022
19.7,-0.375,1.132,-0.242
19.71,-0.123,0.867,0.051
19.72,-0.183,1.181,0.153
19.73,-0.062,0.615,0.012
19.74,-0.491,1.273,-0.167
19.75,-0.077,0.862,-0.062
19.76,-0.135,1.125,0.101
19.77,-0.099,0.729,0.215
19.78,-0.408,1.007,-0.166
19.79,-0.268,0.997,-0.154
19.8,-0.025,1.118,0.075
19.81,-0.178,0.947,0.112
19.82,-0.23,0.679,0.044
19.83,-0.355,1.341,-0.227
19.84,-0.158,0.741,-0.026
19.85,-0.161,1.091,0.179
19.86,-0.036,0.791,0.074
19.87,-0.5,0.976,-0.199
19.88,-0.131,1.115,-0.039
19.89,-0.106,1.01,0.069
19.9,-0.196,0.937,0.151
19.91,-0.208,0.7,0.006
19.92,-0.415,1.287,-0.213
19.93,-0.062,0.886,0.061
19.94,-0.156,1.16,0.158
19.95,-0.192,0.695,0.035
19.96,-0.465,0.977,-0.122
19.97,-0.027,1.25,-0.087
19.98,-0.192,0.769,0.096
19.99,-0.207,1.021,0.2
20.0,-0.294,0.741,-0.122
20.01,-0.358,1.158,-0.147
20.02,-0.091,0.963,0.112
20.03,-0.094,1.002,0.112
20.04,-0.229,0.819,-0.038
20.05,-0.315,1.014,-0.157
20.06,-0.167,1.176,-0.057
20.07,-0.132,0.689,0.174
20.08,-0.141,1.115,0.147
20.09,-0.371,0.795,-0.185
20.1,-0.258,1.172,-0.072
20.11,-0.014,1.004,0.037
20.12,-0.162,0.8,0.12
20.13,-0.249,0.99,0.006
20.14,-0.326,0.985,-0.22
20.15,-0.158,1.159,-0.018
20.16,-0.061,0.768,0.182
20.17,-0.141,1.023,0.068
20.18,-0.367,0.815,-0.174
20.19,-0.136,1.188,-0.046
20.2,-0.081,0.956,0.072
20.21,-0.232,0.773,0.213
20.22,-0.252,1.066,-0.05
20.23,-0.328,0.864,-0.206
20.24,-0.153,1.237,0.109
20.25,-0.048,0.766,0.118
20.26,-0.287,0.981,0.047
20.27,-0.303,0.921,-0.215
20.28,-0.076,1.112,-0.1
20.29,-0.176,0.899,0.123
20.3,-0.122,0.785,0.187
20.31,-0.404,1.098,-0.189
20.32,-0.262,0.77,-0.15
20.33,0.003,1.337,0.097
20.34,-0.16,0.702,0.112
20.35,-0.228,0.953,-0.002
20.36,-0.298,1.074,-0.178
20.37,-0.142,0.983,-0.014
20.38,-0.177,0.995,0.139
20.39,-0.077,0.745,0.098
20.4,-0.5,1.125,-0.175
20.41,-0.184,0.837,-0.081
20.42,0.011,1.291,0.056
20.43,-0.147,0.664,0.107
20.44,-0.227,0.962,-0.011
20.45,-0.345,1.094,-0.242
20.46,-0.079,0.908,0.021
20.47,-0.187,1.129,0.167
20.48,-0.057,0.668,0.025
20.49,-0.482,1.217,-0.191
20.5,-0.162,0.883,-0.033
20.51,-0.155,1.183,0.124
20.52,-0.112,0.741,0.161
20.53,-0.387,0.957,-0.048
20.54,-0.324,1.078,-0.181
20.55,-0.043,0.961,0.072
20.56,-0.144,0.945,0.14
20.57,-0.186,0.72,-0.012
20.58,-0.399,1.277,-0.197
20.59,-0.183,0.872,0.017
20.6,-0.115,1.119,0.109
20.61,-0.142,0.716,0.139
20.62,-0.43,1.061,-0.145
20.63,-0.198,0.98,-0.125
20.64,-0.045,1.03,0.105
20.65,-0.165,0.936,0.117
20.66,-0.258,0.757,-0.035
20.67,-0.35,1.323,-0.211
20.68,-0.118,0.841,0.029
20.69,-0.137,1.141,0.238
20.7,-0.164,0.748,0.051
20.71,-0.442,1.037,-0.25
20.72,-0.048,1.068,-0.05
20.73,-0.123,0.903,0.1
20.74,-0.18,0.992,0.191
20.75,-0.24,0.748,-0.121
20.76,-0.342,1.221,-0.151
20.77,-0.038,0.907,0.14
20.78,-0.195,1.026,0.157
20.79,-0.186,0.75,0.034
20.8,-0.349,1.165,-0.207
20.81,-0.143,1.078,-0.038
20.82,-0.138,0.785,0.156
20.83,-0.089,1.05,0.141
20.84,-0.382,0.748,-0.178
20.85,-0.276,1.225,-0.064
20.86,-0.041,0.944,0.075
20.87,-0.202,0.88,0.114
20.88,-0.195,0.872,-0.022
20.89,-0.352,1.032,-0.212
20.9,-0.073,1.12,0.002
20.91,-0.138,0.83,0.171
20.92,-0.18,1.013,0.101
20.93,-0.363,0.804,-0.198
20.94,-0.139,1.252,-0.11
20.95,-0.028,0.801,0.065
20.96,-0.167,0.888,0.211
20.97,-0.34,0.993,-0.09
20.98,-0.28,0.857,-0.23
20.99,-0.078,1.218,0.125
21.0,-0.127,0.753,0.165
21.01,-0.21,1.021,0.016
21.02,-0.37,0.948,-0.15
21.03,-0.163,1.136,-0.06
21.04,-0.18,0.851,0.165
21.05,-0.137,0.822,0.151
21.06,-0.366,1.044,-0.158
21.07,-0.184,0.85,-0.139
21.08,-0.145,1.292,0.119
21.09,-0.119,0.617,0.144
21.1,-0.268,1.043,0.014
21.11,-0.361,1.01,-0.207
21.12,-0.036,1.047,-0.057
21.13,-0.196,0.932,0.137
21.14,-0.104,0.767,0.096
21.15,-0.394,1.125,-0.196
21.16,-0.225,0.863,-0.048
21.17,-0.131,1.218,0.083
21.18,-0.071,0.643,0.093
21.19,-0.349,1.068,0.001
21.2,-0.317,0.904,-0.205
21.21,-0.135,1.055,0.04
21.22,-0.142,1.046,0.139
21.23,-0.104,0.694,0.083
21.24,-0.449,1.226,-0.131
21.25,-0.131,0.881,-0.099
21.26,-0.102,1.124,0.079
21.27,-0.149,0.728,0.216
21.28,-0.398,1.068,-0.103
21.29,-0.239,0.927,-0.209
21.3,-0.128,1.03,0.138
21.31,-0.127,1.034,0.116
21.32,-0.098,0.651,-0.023
21.33,-0.462,1.351,-0.169
21.34,-0.045,0.807,-0.101
21.35,-0.164,1.093,0.085
21.36,-0.073,0.759,0.168
21.37,-0.351,1.122,-0.226
21.38,-0.31,0.946,-0.011
21.39,-0.066,1.135,0.046
21.4,-0.043,0.81,0.095
21.41,-0.27,0.808,0.053
21.42,-0.379,1.315,-0.225
21.43,-0.017,0.76,-0.032
21.44,-0.219,1.217,0.219
21.45,-0.131,0.649,0.14
21.46,-0.448,1.125,-0.209
21.47,-0.129,1.017,-0.065
21.48,-0.157,1.023,0.079
21.49,-0.177,0.918,0.219
21.5,-0.353,0.758,-0.051
21.51,-0.336,1.192,-0.2
21.52,-0.117,0.875,0.109
21.53,-0.203,1.161,0.12
21.54,-0.062,0.672,0.04
21.55,-0.428,1.15,-0.158
21.56,-0.156,1.02,-0.1
21.57,-0.139,0.848,0.094
21.58,-0.149,1.022,0.182
21.59,-0.336,0.733,-0.155
21.6,-0.261,1.176,-0.166
21.61,-0.005,1.004,0.124
21.62,-0.203,1.045,0.12
21.63,-0.108,0.695,-0.004
21.64,-0.366,1.187,-0.158
21.65,-0.255,1.033,-0.044
21.66,-0.088,0.808,0.163
21.67,-0.15,1.078,0.135
21.68,-0.417,0.733,-0.162
21.69,-0.209,1.198,-0.134
21.7,-0.032,0.983,0.059
21.71,-0.184,0.885,0.135
21.72,-0.161,0.817,0.029
21.73,-0.39,1.136,-0.205
21.74,-0.084,1.066,-0.025
21.75,-0.101,0.742,0.15
21.76,-0.191,1.069,0.074
21.77,-0.342,0.773,-0.189
21.78,-0.262,1.245,-0.032
21.79,-0.138,0.93,0.091
21.8,-0.126,0.804,0.11
21.81,-0.217,0.96,-0.001
21.82,-0.385,1.008,-0.217
21.83,-0.088,1.083,0.012
21.84,-0.064,0.813,0.135
21.85,-0.216,1.031,0.048
21.86,-0.358,0.84,-0.197
21.87,-0.128,1.212,-0.108
21.88,-0.096,0.81,0.052
21.89,-0.109,0.89,0.215
21.9,-0.401,1.048,-0.095
21.91,-0.287,0.825,-0.133
21.92,-0.125,1.294,0.118
21.93,-0.08,0.71,0.077
21.94,-0.208,1.015,0.008
21.95,-0.364,0.95,-0.142
21.96,-0.21,1.115,-0.048
21.97,-0.187,0.843,0.145
21.98,-0.109,0.805,0.163
21.99,-0.417,1.107,-0.154
22.0,-0.225,0.808,-0.108
22.01,-0.059,1.288,0.054
22.02,-0.063,0.61,0.121
22.03,-0.261,1.058,-0.005
22.04,-0.335,1.01,-0.206
22.05,-0.109,0.98,-0.071
22.06,-0.135,0.954,0.17
22.07,-0.115,0.784,0.117
22.08,-0.46,1.109,-0.16
22.09,-0.239,0.839,-0.057
22.1,-0.077,1.306,0.093
22.11,-0.104,0.595,0.122
22.12,-0.303,1.025,0.036
22.13,-0.26,1.088,-0.248
22.14,-0.129,0.927,-0.025
22.15,-0.133,1.067,0.186
22.16,-0.041,0.73,0.04
22.17,-0.539,1.182,-0.187
22.18,-0.052,0.846,-0.002
22.19,-0.257,1.186,0.079
22.2,-0.192,0.656,0.232
22.21,-0.275,1.146,-0.089
22.22,-0.347,0.905,-0.162
22.23,-0.012,1.133,0.093
22.24,-0.088,0.9,0.091
22.25,-0.337,0.726,0.047
22.26,-0.302,1.255,-0.201
22.27,-0.152,0.845,-0.036
22.28,-0.236,1.106,0.17
22.29,0.015,0.712,0.101
22.3,-0.506,1.093,-0.159
22.31,-0.27,0.901,-0.132
22.32,0.041,1.112,0.009
22.33,-0.113,0.902,0.098
22.34,-0.261,0.739,0.082
22.35,-0.342,1.312,-0.225
22.36,-0.076,0.757,-0.041
22.37,-0.159,1.191,0.196
22.38,-0.135,0.733,0.102
22.39,-0.464,1.056,-0.198
22.4,-0.169,1.08,-0.073
22.41,-0.106,1.018,0.053
22.42,-0.172,0.908,0.148
22.43,-0.239,0.768,0.02
22.44,-0.393,1.282,-0.246
22.45,-0.116,0.775,0.022
22.46,-0.042,1.137,0.113
22.47,-0.151,0.722,0.074
22.48,-0.463,1.038,-0.152
22.49,-0.146,1.156,-0.073
22.5,-0.111,0.857,0.093
22.51,-0.153,1.001,0.176
22.52,-0.313,0.794,-0.109
22.53,-0.302,1.179,-0.164
22.54,-0.09,0.929,0.106
22.55,-0.135,1.048,0.151
22.56,-0.186,0.761,0.025
22.57,-0.369,1.071,-0.157
22.58,-0.205,1.164,-0.07
22.59,-0.125,0.759,0.118
22.6,-0.12,1.082,0.132
22.61,-0.388,0.714,-0.147
22.62,-0.219,1.169,-0.123
22.63,-0.118,1.01,0.106
22.64,-0.152,0.844,0.158
22.65,-0.178,0.876,0.026
22.66,-0.382,1.038,-0.215
22.67,-0.106,1.108,-0.044
22.68,-0.071,0.786,0.147
22.69,-0.208,1.045,0.079
22.7,-0.346,0.782,-0.154
22.71,-0.188,1.173,-0.102
22.72,-0.055,0.993,0.079
22.73,-0.135,0.783,0.13
22.74,-0.263,0.982,-0.021
22.75,-0.287,0.995,-0.215
22.76,-0.04,1.151,0.015
22.77,-0.131,0.747,0.23
22.78,-0.236,1.006,0.091
22.79,-0.391,0.846,-0.178
22.8,-0.126,1.203,-0.071
22.81,-0.144,0.904,0.076
22.82,-0.051,0.777,0.192
22.83,-0.365,1.127,-0.13
22.84,-0.291,0.757,-0.184
22.85,-0.104,1.303,0.153
22.86,-0.117,0.73,0.135
22.87,-0.288,0.998,0.028
22.88,-0.248,0.987,-0.195
22.89,-0.259,1.107,-0.056
22.9,-0.181,0.888,0.166
22.91,-0.056,0.797,0.172
22.92,-0.46,1.119,-0.164
22.93,-0.289,0.806,-0.073
22.94,-0.039,1.3,0.047
22.95,-0.122,0.636,0.162
22.96,-0.229,1.002,0.019
22.97,-0.345,1.006,-0.241
22.98,-0.102,0.905,-0.024
22.99,-0.154,1.119,0.142
23.0,-0.159,0.815,0.103
23.01,-0.37,1.118,-0.19
23.02,-0.142,0.94,-0.059
23.03,-0.156,1.173,0.09
23.04,-0.122,0.645,0.22
23.05,-0.303,1.104,-0.059
23.06,-0.358,0.879,-0.234
23.07,-0.062,1.097,0.041
23.08,-0.127,0.951,0.095
23.09,-0.201,0.728,0.066
23.1,-0.405,1.217,-0.202
23.11,-0.045,0.901,-0.021
23.12,-0.243,1.138,0.123
23.13,-0.122,0.701,0.191
23.14,-0.36,1.109,-0.179
23.15,-0.25,0.891,-0.192
23.16,-0.082,1.12,0.109
23.17,-0.128,0.956,0.087
23.18,-0.224,0.677,0.02
23.19,-0.352,1.316,-0.175
23.2,-0.108,0.852,-0.014
23.21,-0.205,1.103,0.129
23.22,-0.038,0.778,0.152
23.23,-0.483,1.062,-0.185
23.24,-0.245,0.99,-0.057
23.25,-0.029,1.083,0.1
23.26,-0.122,0.949,0.107
23.27,-0.361,0.723,0.031
23.28,-0.334,1.32,-0.223
23.29,-0.117,0.78,-0.012
23.3,-0.134,1.12,0.17
23.31,-0.105,0.784,0.092
23.32,-0.434,1.027,-0.208
23.33,-0.165,1.098,-0.086
23.34,-0.042,0.917,0.115
23.35,-0.211,0.997,0.139
23.36,-0.277,0.704,-0.083
23.37,-0.272,1.287,-0.175
23.38,-0.169,0.886,0.067
23.39,-0.115,1.008,0.153
23.4,-0.118,0.812,0.038
23.41,-0.516,1.047,-0.178
23.42,-0.11,1.096,-0.093
23.43,-0.097,0.801,0.075
23.44,-0.175,1.063,0.134
23.45,-0.286,0.752,-0.123
23.46,-0.288,1.16,-0.165
23.47,-0.021,0.984,0.091
23.48,-0.177,0.938,0.152
23.49,-0.211,0.84,0.016
23.5,-0.455,1.051,-0.161
23.51,-0.075,1.155,-0.048
23.52,-0.056,0.779,0.101
23.53,-0.248,1.054,0.128
23.54,-0.271,0.748,-0.183
23.55,-0.226,1.242,-0.07
23.56,-0.132,0.96,0.062
23.57,-0.07,0.793,0.098
23.58,-0.296,0.988,-0.039
23.59,-0.354,0.969,-0.197
23.6,-0.085,1.147,0.002
23.61,-0.15,0.772,0.181
23.62,-0.127,1.064,0.094
23.63,-0.357,0.839,-0.168
23.64,-0.223,1.146,-0.04
23.65,-0.11,0.961,0.099
23.66,-0.111,0.769,0.139
23.67,-0.319,1.077,-0.085
23.68,-0.312,0.869,-0.156
23.69,-0.188,1.232,0.077
23.7,-0.082,0.701,0.092
23.71,-0.19,1.013,0.032
23.72,-0.398,0.947,-0.206
23.73,-0.078,1.083,-0.092
23.74,-0.177,0.934,0.073
23.75,-0.125,0.781,0.18
23.76,-0.301,1.127,-0.155
23.77,-0.37,0.792,-0.108
23.78,-0.061,1.265,0.072
23.79,-0.084,0.712,0.117
23.8,-0.296,0.906,-0.004
23.81,-0.319,1.109,-0.178
23.82,-0.149,1.143,0.016
23.83,-0.183,0.818,0.151
23.84,-0.073,0.851,0.1
23.85,-0.47,1.104,-0.201
23.86,-0.154,0.862,-0.059
23.87,-0.103,1.236,0.077
23.88,-0.244,0.602,0.171
23.89,-0.303,1.081,0.017
23.9,-0.307,0.955,-0.232
23.91,-0.166,1.012,0.093
23.92,-0.09,0.951,0.132
23.93,-0.127,0.743,0.002
23.94,-0.467,1.211,-0.163
23.95,-0.027,0.91,-0.058
23.96,-0.183,1.165,0.094
23.97,-0.25,0.683,0.225
23.98,-0.285,1.095,-0.127
23.99,-0.307,0.901,-0.208
24.0,-0.105,1.045,0.167
24.01,-0.031,1.0,0.091
24.02,-0.355,0.713,0.05
24.03,-0.39,1.273,-0.15
24.04,-0.109,0.864,-0.055
24.05,-0.23,1.108,0.124
24.06,-0.07,0.788,0.186
24.07,-0.415,1.049,-0.19
24.08,-0.297,0.945,-0.128
24.09,0.081,1.085,0.087
24.1,-0.146,0.948,0.091
24.11,-0.278,0.673,0.011
24.12,-0.268,1.339,-0.218
24.13,-0.13,0.845,0.004
24.14,-0.23,1.101,0.195
24.15,-0.011,0.761,0.042
24.16,-0.494,1.047,-0.243
24.17,-0.078,1.045,-0.075
24.18,-0.054,0.942,0.127
24.19,-0.257,0.999,0.14
24.2,-0.169,0.699,-0.091
24.21,-0.371,1.244,-0.169
24.22,-0.16,0.892,0.111
24.23,-0.097,1.085,0.107
24.24,-0.168,0.735,0.007
24.25,-0.395,1.044,-0.143
24.26,-0.171,1.179,-0.072
24.27,-0.056,0.73,0.092
24.28,-0.109,1.046,0.117
24.29,-0.347,0.751,-0.12
24.3,-0.321,1.21,-0.132
24.31,0.009,0.982,0.034
24.32,-0.236,0.925,0.182
24.33,-0.189,0.851,0.026
24.34,-0.324,1.074,-0.213
24.35,-0.183,1.094,-0.026
24.36,-0.133,0.744,0.203
24.37,-0.157,1.087,0.075
24.38,-0.365,0.752,-0.166
24.39,-0.221,1.161,-0.036
24.4,-0.08,1.033,0.026
24.41,-0.089,0.783,0.096
24.42,-0.255,0.972,0.061
24.43,-0.332,0.974,-0.225
24.44,-0.114,1.146,0.005
24.45,-0.1,0.771,0.191
24.46,-0.138,1.048,0.094
24.47,-0.357,0.814,-0.176
24.48,-0.21,1.144,-0.052
24.49,-0.104,0.974,0.078
24.5,-0.124,0.76,0.158
24.51,-0.336,1.07,-0.017
24.52,-0.297,0.882,-0.178
24.53,-0.14,1.188,0.046
24.54,-0.106,0.786,0.196
24.55,-0.158,0.982,0.035
24.56,-0.378,0.891,-0.192
24.57,-0.104,1.109,-0.046
24.58,-0.214,0.945,0.129
24.59,-0.161,0.746,0.185
24.6,-0.35,1.161,-0.094
24.61,-0.296,0.765,-0.163
24.62,-0.115,1.278,0.145
24.63,-0.119,0.761,0.137
24.64,-0.326,1.025,0.061
24.65,-0.273,0.976,-0.205
24.66,-0.158,1.117,-0.081
24.67,-0.219,0.828,0.182
24.68,-0.023,0.858,0.133
24.69,-0.47,1.079,-0.172
24.7,-0.239,0.824,-0.044
24.71,-0.108,1.287,0.059
24.72,-0.115,0.602,0.127
24.73,-0.283,1.079,0.049
24.74,-0.31,0.945,-0.236
24.75,-0.17,1.048,-0.023
24.76,-0.136,0.96,0.131
24.77,-0.058,0.777,0.071
24.78,-0.46,1.136,-0.177
24.79,-0.136,0.862,-0.058
24.8,-0.146,1.248,0.053
24.81,-0.143,0.644,0.173
24.82,-0.296,1.051,-0.012
24.83,-0.367,0.996,-0.215
24.84,-0.097,1.01,0.001
24.85,-0.109,1.105,0.125
24.86,-0.089,0.678,0.07
24.87,-0.453,1.224,-0.173
24.88,-0.167,0.855,-0.022
24.89,-0.105,1.228,0.057
24.9,-0.221,0.683,0.168
24.91,-0.299,1.033,-0.034
24.92,-0.334,1.014,-0.227
24.93,-0.13,0.896,0.066
24.94,-0.087,1.12,0.124
24.95,-0.077,0.66,-0.004
24.96,-0.492,1.21,-0.172
24.97,-0.105,0.926,-0.029
24.98,-0.146,1.128,0.07
24.99,-0.163,0.715,0.139
25.0,-0.289,1.002,-0.06
25.01,-0.347,1.096,-0.187
25.02,-0.142,0.89,0.108
25.03,-0.075,1.143,0.131
25.04,-0.197,0.618,-0.013
25.05,-0.432,1.231,-0.17
25.06,-0.023,0.937,-0.039
25.07,-0.214,1.043,0.128
25.08,-0.099,0.806,0.191
25.09,-0.359,0.986,-0.166
25.1,-0.292,1.06,-0.159
25.11,-0.097,0.987,0.121
25.12,-0.133,1.11,0.077
25.13,-0.215,0.619,0.003
25.14,-0.447,1.266,-0.122
25.15,-0.027,0.951,-0.069
25.16,-0.24,0.979,0.093
25.17,-0.059,0.9,0.161
25.18,-0.408,0.888,-0.166
25.19,-0.275,1.164,-0.084
25.2,0.022,0.919,0.05
25.21,-0.173,1.048,0.115
25.22,-0.318,0.705,0.035
25.23,-0.285,1.194,-0.261
25.24,-0.117,0.924,-0.033
25.25,-0.115,0.98,0.22
25.26,-0.113,0.923,0.066
25.27,-0.423,0.812,-0.206
25.28,-0.105,1.268,-0.053
25.29,-0.079,0.866,0.084
25.3,-0.198,0.994,0.156
25.31,-0.192,0.804,-0.063
25.32,-0.382,1.148,-0.22
25.33,-0.195,1.006,0.067
25.34,-0.035,0.898,0.11
25.35,-0.239,0.952,0.061
25.36,-0.344,0.848,-0.2
25.37,-0.14,1.26,-0.072
25.38,-0.126,0.733,0.09
25.39,-0.124,0.97,0.155
25.4,-0.281,0.888,-0.092
25.41,-0.312,1.064,-0.157
25.42,-0.18,1.091,0.042
25.43,-0.01,0.813,0.129
25.44,-0.287,1.01,0.05
25.45,-0.387,0.967,-0.129
25.46,-0.079,1.217,-0.047
25.47,-0.132,0.715,0.117
25.48,-0.081,1.097,0.092
25.49,-0.362,0.791,-0.186
25.5,-0.271,1.071,-0.075
25.51,-0.015,1.088,0.052
25.52,-0.128,0.792,0.146
25.53,-0.307,0.985,0.001
25.54,-0.278,0.946,-0.16
25.55,-0.155,1.209,-0.008
25.56,-0.14,0.673,0.181
25.57,-0.102,1.061,0.065
25.58,-0.374,0.865,-0.211
25.59,-0.206,1.033,-0.079
25.6,-0.062,1.07,0.093
25.61,-0.124,0.691,0.135
25.62,-0.322,1.115,-0.01
25.63,-0.352,0.929,-0.163
25.64,-0.246,1.139,0.021
25.65,-0.032,0.779,0.199
25.66,-0.204,0.998,0.06
25.67,-0.35,0.938,-0.188
25.68,-0.099,1.077,-0.058
25.69,-0.154,1.037,0.101
25.7,-0.178,0.696,0.187
25.71,-0.294,1.168,-0.111
25.72,-0.309,0.836,-0.151
25.73,-0.186,1.222,0.125
25.74,-0.11,0.782,0.167
25.75,-0.201,0.901,0.001
25.76,-0.402,1.09,-0.178
25.77,-0.101,0.963,-0.045
25.78,-0.265,1.055,0.124
25.79,-0.092,0.695,0.18
25.8,-0.422,1.165,-0.148
25.81,-0.25,0.764,-0.171
25.82,-0.017,1.283,0.069
25.83,-0.094,0.779,0.11
25.84,-0.252,0.84,0.026
25.85,-0.349,1.202,-0.213
25.86,-0.084,0.862,-0.036
25.87,-0.225,1.146,0.178
25.88,-0.071,0.685,0.11
25.89,-0.432,1.138,-0.17
25.9,-0.237,0.863,-0.072
25.91,-0.021,1.247,0.047
25.92,-0.129,0.807,0.082
25.93,-0.311,0.81,0.053
25.94,-0.27,1.224,-0.238
25.95,-0.106,0.793,-0.022
25.96,-0.179,1.152,0.171
25.97,-0.057,0.704,0.063
25.98,-0.496,1.126,-0.188
25.99,-0.142,0.954,-0.036
26.0,-0.036,1.107,0.062
26.01,-0.222,0.801,0.119
26.02,-0.166,0.84,-0.052
26.03,-0.327,1.253,-0.221
26.04,-0.18,0.807,0.046
26.05,-0.123,1.161,0.168
26.06,-0.108,0.657,0.029
26.07,-0.463,1.184,-0.146
26.08,-0.12,1.038,-0.08
26.09,-0.115,0.911,0.093
26.1,-0.18,0.947,0.211
26.11,-0.233,0.832,-0.124
26.12,-0.302,1.183,-0.184
26.13,-0.154,0.891,0.158
26.14,-0.113,1.122,0.11
26.15,-0.204,0.653,-0.01
26.16,-0.419,1.181,-0.145
26.17,-0.125,1.076,-0.123
26.18,-0.165,0.807,0.063
26.19,-0.14,1.04,0.21
26.2,-0.295,0.76,-0.186
26.21,-0.304,1.15,-0.127
26.22,0.025,0.983,0.113
26.23,-0.171,1.013,0.138
26.24,-0.24,0.74,0.015
26.25,-0.388,1.151,-0.16
26.26,-0.125,1.081,-0.054
26.27,-0.191,0.981,0.18
26.28,-0.107,0.925,0.085
26.29,-0.405,0.82,-0.175
26.3,-0.252,1.257,-0.044
26.31,0.028,0.869,0.091
26.32,-0.18,0.989,0.151
26.33,-0.297,0.773,0.004
26.34,-0.29,1.187,-0.192
26.35,-0.181,1.034,-0.064
26.36,-0.131,0.902,0.169
26.37,-0.078,0.994,0.044
26.38,-0.471,0.831,-0.181
26.39,-0.219,1.26,-0.005
26.4,-0.024,0.783,0.072
26.41,-0.198,0.995,0.168
26.42,-0.24,0.85,-0.037
26.43,-0.322,1.04,-0.226
26.44,-0.118,1.028,0.017
26.45,-0.087,0.883,0.169
26.46,-0.229,0.969,0.031
26.47,-0.428,0.809,-0.179
26.48,-0.086,1.269,-0.061
26.49,-0.127,0.805,0.122
26.5,-0.243,0.96,0.193
26.51,-0.281,0.921,-0.103
26.52,-0.26,0.971,-0.206
26.53,-0.023,1.202,0.069
26.54,-0.13,0.716,0.159
26.55,-0.244,1.037,0.018
26.56,-0.441,0.909,-0.169
26.57,-0.179,1.177,-0.08
26.58,-0.14,0.781,0.157
26.59,-0.111,0.926,0.16
26.6,-0.367,1.009,-0.171
26.61,-0.197,0.886,-0.128
26.62,-0.122,1.258,0.073
26.63,-0.073,0.651,0.122
26.64,-0.318,1.059,0.016
26.65,-0.324,0.923,-0.188
26.66,-0.18,1.135,-0.028
26.67,-0.208,0.805,0.157
26.68,-0.013,0.906,0.125
26.69,-0.409,1.04,-0.178
26.7,-0.295,0.839,-0.013
26.71,-0.081,1.326,0.04
26.72,-0.057,0.602,0.088
26.73,-0.365,1.079,0.063
26.74,-0.305,0.943,-0.242
26.75,-0.081,1.058,-0.067
26.76,-0.186,0.938,0.206
26.77,-0.126,0.753,0.085
26.78,-0.425,1.152,-0.219
26.79,-0.207,0.893,0.008
26.8,-0.104,1.258,0.065
26.81,-0.105,0.614,0.118
26.82,-0.169,1.141,0.091
26.83,-0.162,0.763,0.154
26.84,-0.256,0.927,-0.046
26.85,-0.335,1.145,-0.203
26.86,-0.163,0.874,0.044
26.87,-0.119,1.201,0.124
26.88,-0.059,0.604,0.098
26.89,-0.443,1.209,-0.155
26.9,-0.187,0.942,-0.092
26.91,-0.08,1.063,0.067
26.92,-0.177,0.9,0.178
26.93,-0.268,0.812,-0.101
26.94,-0.301,1.163,-0.192
26.95,-0.117,0.875,0.074
26.96,-0.177,1.187,0.18
26.97,-0.077,0.641,0.059
26.98,-0.425,1.187,-0.192
26.99,-0.085,1.046,-0.052
27.0,-0.15,0.934,0.06
27.01,-0.133,0.885,0.169
27.02,-0.368,0.984,-0.144
27.03,-0.258,1.062,-0.146
27.04,-0.104,0.957,0.097
27.05,-0.147,1.109,0.123
27.06,-0.102,0.583,0.013
27.07,-0.525,1.306,-0.178
27.08,-0.079,0.892,-0.08
27.09,-0.177,1.001,0.077
27.1,-0.147,0.885,0.183
27.11,-0.382,0.866,-0.149
27.12,-0.256,1.107,-0.145
27.13,-0.08,0.945,0.097
27.14,-0.142,1.071,0.118
27.15,-0.212,0.671,0.026
27.16,-0.419,1.255,-0.201
27.17,-0.072,0.902,-0.076
27.18,-0.197,0.965,0.142
27.19,-0.084,0.926,0.119
27.2,-0.342,0.802,-0.142
27.21,-0.241,1.219,-0.15
27.22,-0.06,0.911,0.033
27.23,-0.18,1.0,0.147
27.24,-0.143,0.736,0.041
27.25,-0.405,1.231,-0.274
27.26,-0.046,0.963,-0.036
27.27,-0.104,0.958,0.134
27.28,-0.166,0.989,0.092
27.29,-0.313,0.784,-0.147
27.3,-0.253,1.197,-0.14
27.31,-0.202,0.882,0.112
27.32,-0.074,1.019,0.115
27.33,-0.203,0.77,-0.011
27.34,-0.43,1.157,-0.134
27.35,-0.11,1.077,-0.052
27.36,-0.158,0.776,0.158
27.37,-0.195,1.042,0.187
27.38,-0.341,0.8,-0.173
27.39,-0.242,1.17,-0.118
27.4,-0.095,0.956,0.095
27.41,-0.093,0.937,0.119
27.42,-0.298,0.849,0.028
27.43,-0.366,1.065,-0.155
27.44,-0.097,1.111,-0.038
27.45,-0.202,0.769,0.174
27.46,-0.139,1.04,0.124
27.47,-0.345,0.769,-0.196
27.48,-0.242,1.142,-0.097
27.49,-0.029,1.004,0.096
27.5,-0.168,0.884,0.146
27.51,-0.294,0.913,0.025
27.52,-0.361,1.003,-0.184
27.53,-0.119,1.114,-0.011
27.54,-0.161,0.773,0.113
27.55,-0.125,1.063,0.08
27.56,-0.333,0.797,-0.203
27.57,-0.282,1.164,-0.062
27.58,0.042,0.981,0.03
27.59,-0.119,0.788,0.186
27.6,-0.339,1.004,0.001
27.61,-0.294,0.955,-0.189
27.62,-0.101,1.16,-0.041
27.63,-0.146,0.738,0.16
27.64,-0.141,1.058,0.087
27.65,-0.354,0.873,-0.205
27.66,-0.233,1.076,-0.07
27.67,-0.043,1.056,0.077
27.68,-0.122,0.732,0.138
27.69,-0.356,1.038,-0.003
27.7,-0.227,0.917,-0.192
27.71,-0.157,1.191,0.019
27.72,-0.161,0.756,0.19
27.73,-0.125,1.022,0.059
27.74,-0.416,0.889,-0.181
27.75,-0.225,1.058,-0.038
27.76,-0.04,1.101,0.051
27.77,-0.168,0.623,0.12
27.78,-0.272,1.135,0.011
27.79,-0.276,0.94,-0.217
27.8,-0.174,1.152,0.017
27.81,-0.161,0.784,0.197
27.82,-0.115,0.968,0.051
27.83,-0.424,0.903,-0.17
27.84,-0.127,1.132,-0.093
27.85,-0.106,0.896,0.052
27.86,-0.19,0.83,0.201
27.87,-0.271,1.092,-0.112
27.88,-0.292,0.77,-0.144
27.89,-0.171,1.287,0.084
27.9,-0.074,0.754,0.115
27.91,-0.254,0.969,0.008
27.92,-0.343,0.957,-0.182
27.93,-0.082,1.106,-0.061
27.94,-0.21,0.927,0.132
27.95,-0.151,0.781,0.206
27.96,-0.368,1.16,-0.164
27.97,-0.296,0.739,-0.123
27.98,-0.125,1.29,0.112
27.99,-0.088,0.749,0.101
28.0,-0.212,0.936,0.024
28.01,-0.406,1.079,-0.144
28.02,-0.146,0.982,-0.061
28.03,-0.135,0.968,0.107
28.04,-0.106,0.748,0.188
28.05,-0.419,1.182,-0.158
28.06,-0.237,0.782,-0.173
28.07,-0.051,1.278,0.048
28.08,-0.119,0.715,0.136
28.09,-0.232,0.887,0.022
28.1,-0.403,1.149,-0.159
28.11,-0.129,0.894,0.001
28.12,-0.207,1.08,0.144
28.13,-0.062,0.679,0.124
28.14,-0.477,1.16,-0.131
28.15,-0.22,0.816,-0.088
28.16,-0.02,1.266,0.005
28.17,-0.166,0.764,0.117
28.18,-0.179,0.836,-0.021
28.19,-0.406,1.203,-0.177
28.2,-0.113,0.836,-0.008
28.21,-0.199,1.143,0.151
28.22,-0.092,0.718,0.117
28.23,-0.463,1.133,-0.179
28.24,-0.198,0.841,-0.079
28.25,-0.036,1.248,0.103
28.26,-0.161,0.843,0.123
28.27,-0.28,0.798,-0.012
28.28,-0.332,1.27,-0.177
28.29,-0.087,0.812,-0.003
28.3,-0.229,1.152,0.157
28.31,-0.005,0.689,0.069
28.32,-0.486,1.136,-0.183
28.33,-0.244,0.953,-0.031
28.34,-0.064,1.128,0.093
28.35,-0.138,0.881,0.124
28.36,-0.242,0.793,-0.035
28.37,-0.433,1.295,-0.226
28.38,-0.073,0.764,0.022
28.39,-0.119,1.201,0.17
28.4,-0.145,0.709,0.068
28.41,-0.473,1.102,-0.167
28.42,-0.125,1.016,-0.016
28.43,-0.139,0.977,0.092
28.44,-0.177,0.928,0.146
28.45,-0.208,0.765,-0.07
28.46,-0.383,1.229,-0.185
28.47,-0.12,0.842,0.083
28.48,-0.056,1.17,0.132
28.49,-0.194,0.699,0.059
28.5,-0.448,1.085,-0.185
28.51,-0.036,1.133,-0.09
28.52,-0.14,0.826,0.063
28.53,-0.237,1.034,0.139
28.54,-0.24,0.778,-0.115
28.55,-0.378,1.161,-0.149
28.56,-0.126,0.863,0.096
28.57,-0.025,1.085,0.122
28.58,-0.203,0.788,-0.002
28.59,-0.436,1.01,-0.124
28.6,-0.13,1.121,-0.047
28.61,-0.164,0.774,0.092
28.62,-0.115,1.07,0.169
28.63,-0.338,0.781,-0.142
28.64,-0.319,1.155,-0.135
28.65,0.006,0.877,0.074
28.66,-0.124,0.996,0.094
28.67,-0.218,0.763,0.011
28.68,-0.314,1.198,-0.232
28.69,-0.153,0.982,-0.094
28.7,-0.057,0.822,0.152
28.71,-0.213,1.028,0.105
28.72,-0.389,0.774,-0.172
28.73,-0.209,1.255,-0.075
28.74,-0.043,0.885,0.038
28.75,-0.156,0.915,0.157
28.76,-0.268,0.873,-0.004
28.77,-0.312,1.061,-0.222
28.78,-0.069,1.042,-0.053
28.79,-0.067,0.832,0.156
28.8,-0.161,1.043,0.041
28.81,-0.376,0.765,-0.223
28.82,-0.164,1.268,-0.049
28.83,-0.086,0.91,0.072
28.84,-0.182,0.826,0.158
28.85,-0.265,0.941,-0.049
28.86,-0.226,1.041,-0.223
28.87,-0.049,1.131,-0.0
28.88,-0.212,0.782,0.232
28.89,-0.086,1.041,0.017
28.9,-0.373,0.829,-0.196
28.91,-0.205,1.184,-0.018
28.92,-0.119,0.922,0.09
28.93,-0.216,0.806,0.169
28.94,-0.229,1.068,-0.042
28.95,-0.277,0.922,-0.201
28.96,-0.201,1.15,0.063
28.97,0.006,0.793,0.138
28.98,-0.184,1.039,0.034
28.99,-0.431,0.818,-0.13
29.0,-0.047,1.146,-0.063
29.01,-0.191,0.989,0.068
29.02,-0.158,0.724,0.204
29.03,-0.262,1.12,-0.091
29.04,-0.313,0.863,-0.123
29.05,-0.24,1.231,0.098
29.06,-0.018,0.728,0.123
29.07,-0.2,0.996,0.021
29.08,-0.405,0.965,-0.182
29.09,-0.074,1.069,-0.12
29.1,-0.202,0.966,0.106
29.11,-0.173,0.733,0.208
29.12,-0.331,1.153,-0.104
29.13,-0.318,0.789,-0.169
29.14,-0.201,1.225,0.112
29.15,-0.019,0.767,0.1
29.16,-0.23,0.936,-0.006
29.17,-0.389,1.071,-0.168
29.18,-0.075,1.009,-0.09
29.19,-0.213,0.977,0.074
29.2,-0.088,0.711,0.208
29.21,-0.385,1.195,-0.178
29.22,-0.287,0.742,-0.144
29.23,-0.093,1.281,0.105
29.24,-0.096,0.773,0.121
29.25,-0.344,0.878,0.067
29.26,-0.305,1.14,-0.174
29.27,-0.094,0.925,-0.056
29.28,-0.195,1.069,0.092
29.29,0.052,0.706,0.152
29.3,-0.445,1.204,-0.179
29.31,-0.277,0.767,-0.073
29.32,-0.085,1.269,0.073
29.33,-0.142,0.792,0.102
29.34,-0.223,0.825,0.048
29.35,-0.363,1.27,-0.199
29.36,-0.115,0.84,-0.021
29.37,-0.176,1.11,0.151
29.38,-0.047,0.741,0.131
29.39,-0.457,1.129,-0.185
29.4,-0.254,0.817,-0.089
29.41,-0.03,1.216,0.078
29.42,-0.181,0.852,0.154
29.43,-0.287,0.739,0.054
29.44,-0.344,1.299,-0.233
29.45,-0.081,0.782,-0.012
29.46,-0.27,1.13,0.204
29.47,-0.066,0.648,0.086
29.48,-0.553,1.238,-0.124
29.49,-0.07,0.875,-0.027
29.5,-0.177,1.156,0.048
29.51,-0.191,0.731,0.21
29.52,-0.28,0.959,-0.067
29.53,-0.324,1.094,-0.18
29.54,-0.134,0.927,0.034
29.55,-0.156,1.16,0.119
29.56,-0.039,0.604,0.006
29.57,-0.484,1.246,-0.149
29.58,-0.064,0.919,-0.083
29.59,-0.152,1.056,0.073
29.6,-0.1,0.823,0.172
29.61,-0.291,0.882,-0.109
29.62,-0.294,1.133,-0.176
29.63,-0.141,0.906,0.085
29.64,-0.127,1.137,0.135
29.65,-0.116,0.609,0.049
29.66,-0.448,1.252,-0.158
29.67,-0.112,0.955,-0.052
29.68,-0.136,0.97,0.068
29.69,-0.163,0.921,0.179
29.7,-0.307,0.838,-0.124
29.71,-0.309,1.155,-0.127
29.72,-0.128,0.935,0.121
29.73,-0.132,1.113,0.117
29.74,-0.182,0.632,0.03
29.75,-0.452,1.205,-0.148
29.76,-0.116,1.008,-0.054
29.77,-0.133,0.833,0.102
29.78,-0.144,1.023,0.196
29.79,-0.291,0.792,-0.151
29.8,-0.295,1.152,-0.135
29.81,-0.14,0.953,0.144
29.82,-0.131,1.094,0.133
29.83,-0.164,0.725,-0.019
29.84,-0.451,1.119,-0.121
29.85,-0.104,1.084,-0.047
29.86,-0.166,0.833,0.099
29.87,-0.173,1.05,0.153
29.88,-0.264,0.76,-0.18
29.89,-0.366,1.198,-0.116
29.9,-0.028,0.935,0.067
29.91,-0.138,0.964,0.1
29.92,-0.249,0.802,0.023
29.93,-0.363,1.091,-0.146
29.94,-0.08,1.101,-0.075
29.95,-0.164,0.771,0.143
29.96,-0.134,1.103,0.086
29.97,-0.243,0.766,-0.23
29.98,-0.371,1.167,-0.086
29.99,-0.007,0.944,0.044
30.0,-0.132,0.875,0.143
30.01,-0.228,0.878,0.015
30.02,-0.365,1.031,-0.15
30.03,-0.092,1.172,-0.048
30.04,-0.153,0.757,0.127
30.05,-0.137,1.109,0.158
30.06,-0.333,0.794,-0.201
30.07,-0.242,1.095,-0.107
30.08,0.013,1.079,0.048
30.09,-0.135,0.803,0.131
30.1,-0.271,0.945,0.019
30.11,-0.264,1.016,-0.156
30.12,-0.15,1.208,-0.008
30.13,-0.226,0.688,0.191
30.14,-0.092,1.039,0.101
30.15,-0.403,0.872,-0.175
30.16,-0.286,1.107,-0.043
30.17,-0.015,1.063,0.032
30.18,-0.162,0.717,0.164
30.19,-0.316,1.055,0.022
30.2,-0.255,0.936,-0.215
30.21,-0.134,1.173,-0.076
30.22,-0.092,0.775,0.191
30.23,-0.038,1.011,-0.002
30.24,-0.451,0.908,-0.163
30.25,-0.177,1.049,-0.054
30.26,-0.098,1.146,0.062
30.27,-0.172,0.617,0.157
30.28,-0.261,1.059,-0.061
30.29,-0.392,0.857,-0.189
30.3,-0.104,1.159,0.045
30.31,-0.025,0.835,0.139
30.32,-0.214,0.975,0.042
30.33,-0.364,0.863,-0.186
30.34,-0.118,1.16,-0.054
30.35,-0.144,0.919,0.049
30.36,-0.175,0.747,0.186
30.37,-0.261,1.165,-0.107
30.38,-0.286,0.811,-0.19
30.39,-0.184,1.206,0.073
30.4,0.03,0.768,0.126
30.41,-0.182,0.989,0.012
30.42,-0.445,0.93,-0.126
30.43,-0.036,1.012,-0.141
30.44,-0.208,0.998,0.09
30.45,-0.073,0.763,0.157
30.46,-0.375,1.167,-0.101
30.47,-0.27,0.752,-0.179
30.48,-0.074,1.333,0.127
30.49,-0.096,0.733,0.096
30.5,-0.285,0.918,0.047
30.51,-0.304,1.098,-0.191
30.52,-0.174,0.961,-0.055
30.53,-0.197,0.997,0.137
30.54,-0.102,0.762,0.161
30.55,-0.424,1.16,-0.145
30.56,-0.246,0.77,-0.155
30.57,-0.111,1.275,0.093
30.58,-0.075,0.763,0.118
30.59,-0.284,0.873,0.046
30.6,-0.412,1.189,-0.17
30.61,-0.127,0.897,-0.028
30.62,-0.291,1.073,0.167
30.63,-0.045,0.717,0.153
30.64,-0.431,1.204,-0.157
30.65,-0.247,0.762,-0.13
30.66,-0.062,1.235,0.093
30.67,-0.1,0.86,0.15
30.68,-0.298,0.77,-0.011
30.69,-0.294,1.209,-0.159
30.7,-0.106,0.882,-0.056
30.71,-0.295,1.084,0.121
30.72,0.039,0.704,0.139
30.73,-0.479,1.169,-0.184
30.74,-0.247,0.813,-0.113
30.75,0.029,1.229,0.07
30.76,-0.145,0.894,0.1
30.77,-0.338,0.732,0.045
30.78,-0.297,1.282,-0.208
30.79,-0.178,0.839,0.026
30.8,-0.23,1.125,0.145
30.81,-0.005,0.741,0.121
30.82,-0.469,1.084,-0.19
30.83,-0.238,0.917,-0.054
30.84,-0.033,1.099,0.091
30.85,-0.123,0.947,0.141
30.86,-0.304,0.711,0.007
30.87,-0.325,1.299,-0.174
30.88,-0.125,0.828,0.012
30.89,-0.267,1.118,0.178
30.9,0.044,0.745,0.067
30.91,-0.417,1.056,-0.214
30.92,-0.307,1.027,-0.039
30.93,0.0,0.979,0.022
30.94,-0.135,0.979,0.106
30.95,-0.263,0.718,-0.021
30.96,-0.366,1.29,-0.183
30.97,-0.13,0.837,0.027
30.98,-0.184,1.142,0.153
30.99,-0.058,0.726,0.075
31.0,-0.509,1.018,-0.131
31.01,-0.078,1.134,-0.115
31.02,-0.069,0.881,0.096
31.03,-0.188,1.03,0.193
31.04,-0.244,0.737,-0.075
31.05,-0.349,1.217,-0.177
31.06,-0.155,0.948,0.065
31.07,-0.164,1.058,0.151
31.08,-0.119,0.805,0.005
31.09,-0.448,0.99,-0.127
31.1,-0.067,1.048,-0.096
31.11,-0.198,0.87,0.086
31.12,-0.103,1.024,0.174
31.13,-0.285,0.767,-0.124
31.14,-0.297,1.146,-0.154
31.15,-0.091,0.931,0.103
31.16,-0.143,1.055,0.137
31.17,-0.204,0.71,0.029
31.18,-0.393,1.152,-0.144
31.19,-0.143,1.124,-0.066
31.2,-0.154,0.744,0.134
31.21,-0.115,1.054,0.168
31.22,-0.341,0.768,-0.148
31.23,-0.265,1.151,-0.142
31.24,-0.015,0.979,0.046
31.25,-0.16,0.953,0.14
31.26,-0.195,0.801,0.022
31.27,-0.43,1.076,-0.13
31.28,-0.187,1.173,0.004
31.29,-0.148,0.768,0.113
31.3,-0.147,1.066,0.159
31.31,-0.323,0.768,-0.128
31.32,-0.305,1.179,-0.152
31.33,-0.019,0.987,0.086
31.34,-0.115,0.87,0.135
31.35,-0.318,0.916,0.048
31.36,-0.311,0.996,-0.182
31.37,-0.171,1.162,-0.021
31.38,-0.181,0.746,0.19
31.39,-0.064,1.1,0.099
31.4,-0.293,0.782,-0.207
31.41,-0.297,1.076,-0.066
31.42,-0.056,1.054,0.017
31.43,-0.071,0.765,0.133
31.44,-0.339,1.04,0.015
31.45,-0.338,0.881,-0.214
31.46,-0.07,1.172,-0.058
31.47,-0.197,0.817,0.195
31.48,-0.11,1.02,0.1
31.49,-0.369,0.87,-0.235
31.5,-0.148,1.11,-0.069
31.51,-0.125,1.085,0.059
31.52,-0.199,0.657,0.186
31.53,-0.268,1.102,0.01
31.54,-0.282,0.902,-0.212
31.55,-0.159,1.152,-0.026
31.56,-0.185,0.787,0.191
31.57,-0.131,0.953,0.06
31.58,-0.412,0.913,-0.197
31.59,-0.147,1.03,-0.03
31.6,-0.136,1.157,0.047
31.61,-0.068,0.612,0.158
31.62,-0.336,1.132,0.018
31.63,-0.206,0.89,-0.274
31.64,-0.184,1.141,-0.028
31.65,-0.193,0.825,0.226
31.66,-0.119,0.9,0.068
31.67,-0.454,1.01,-0.231
31.68,-0.097,0.951,-0.036
31.69,-0.123,1.216,0.068
31.7,-0.173,0.607,0.136
31.71,-0.298,1.174,0.005
31.72,-0.252,0.877,-0.217
31.73,-0.22,1.052,0.047
31.74,-0.134,0.92,0.163
31.75,-0.092,0.863,0.04
31.76,-0.49,1.083,-0.186
31.77,-0.116,0.872,-0.026
31.78,-0.104,1.227,0.048
31.79,-0.189,0.61,0.185
31.8,-0.252,1.15,-0.034
31.81,-0.344,0.915,-0.198
31.82,-0.183,1.027,0.014
31.83,-0.012,0.995,0.127
31.84,-0.147,0.733,0.048
31.85,-0.533,1.16,-0.146
31.86,-0.003,0.876,-0.069
31.87,-0.189,1.21,0.079
31.88,-0.178,0.616,0.229
31.89,-0.263,1.142,-0.092
31.9,-0.27,0.926,-0.205
31.91,-0.137,1.043,0.082
31.92,-0.002,0.815,0.064
31.93,-0.172,0.802,0.019
31.94,-0.413,1.23,-0.171
31.95,-0.156,0.889,-0.076
31.96,-0.235,1.09,0.102
31.97,-0.007,0.703,0.212
31.98,-0.455,1.121,-0.147
31.99,-0.22,0.795,-0.137
32.0,-0.116,1.267,0.1
32.01,-0.093,0.863,0.089
32.02,-0.217,0.743,0.044
32.03,-0.349,1.279,-0.193
32.04,-0.081,0.854,-0.028
32.05,-0.323,1.14,0.143
32.06,-0.08,0.707,0.191
32.07,-0.41,1.083,-0.167
32.08,-0.235,0.81,-0.133
32.09,-0.03,1.168,0.046
32.1,-0.105,0.93,0.075
32.11,-0.3,0.697,0.03
32.12,-0.329,1.32,-0.188
32.13,-0.069,0.83,-0.076
32.14,-0.222,1.117,0.185
32.15,-0.08,0.761,0.149
32.16,-0.427,1.036,-0.184
32.17,-0.257,0.911,-0.127
32.18,-0.037,1.053,0.058
32.19,-0.102,0.982,0.1
32.2,-0.317,0.714,0.066
32.21,-0.371,1.295,-0.211
32.22,-0.064,0.801,-0.049
32.23,-0.202,1.139,0.186
32.24,-0.024,0.79,0.101
32.25,-0.401,1.014,-0.15
32.26,-0.28,1.072,-0.086
32.27,0.006,0.997,0.023
32.28,-0.18,0.968,0.091
32.29,-0.229,0.711,0.053
32.3,-0.398,1.342,-0.249
32.31,-0.08,0.775,-0.06
32.32,-0.203,1.095,0.241
32.33,-0.077,0.846,0.074
32.34,-0.459,0.956,-0.164
32.35,-0.279,1.179,-0.027
32.36,-0.105,0.919,0.025
32.37,-0.154,0.958,0.134
32.38,-0.149,0.703,0.015
32.39,-0.412,1.321,-0.225
32.4,-0.08,0.85,-0.056
32.41,-0.211,1.034,0.229
32.42,-0.027,0.874,0.056
32.43,-0.484,0.881,-0.182
32.44,-0.198,1.22,-0.06
32.45,-0.061,0.893,0.014
32.46,-0.201,0.954,0.137
32.47,-0.17,0.744,0.009
32.48,-0.323,1.25,-0.23
32.49,-0.056,0.896,-0.051
32.5,-0.17,0.938,0.186
32.51,-0.135,0.944,0.093
32.52,-0.445,0.811,-0.183
32.53,-0.216,1.249,-0.033
32.54,-0.063,0.875,0.075
32.55,-0.269,0.962,0.179
32.56,-0.196,0.801,0.041
32.57,-0.347,1.167,-0.234
32.58,-0.155,0.906,-0.02
32.59,-0.078,0.914,0.199
32.6,-0.163,0.987,0.033
32.61,-0.423,0.75,-0.178
32.62,-0.141,1.325,0.004
32.63,-0.174,0.898,0.05
32.64,-0.193,0.883,0.14
32.65,-0.138,0.904,0.009
32.66,-0.365,1.095,-0.229
32.67,-0.191,0.994,-0.003
32.68,0.039,0.889,0.115
32.69,-0.223,1.031,0.065
32.7,-0.397,0.758,-0.18
32.71,-0.119,1.288,-0.067
32.72,-0.13,0.867,0.083
32.73,-0.184,1.03,0.24
32.74,-0.243,0.853,-0.092
32.75,-0.369,1.056,-0.206
32.76,-0.163,1.002,0.083
32.77,-0.024,0.907,0.131
32.78,-0.212,0.959,0.057
32.79,-0.382,0.854,-0.141
32.8,-0.136,1.272,-0.085
32.81,-0.09,0.76,0.032
32.82,-0.164,0.966,0.199
32.83,-0.266,0.93,-0.074
32.84,-0.317,0.986,-0.169
32.85,-0.157,1.106,0.042
32.86,-0.057,0.845,0.137
32.87,-0.185,1.005,0.062
32.88,-0.415,0.856,-0.135
32.89,-0.161,1.233,-0.094
32.9,-0.058,0.792,0.062
32.91,-0.191,0.909,0.2
32.92,-0.343,0.966,-0.059
32.93,-0.319,0.926,-0.162
32.94,-0.143,1.149,-0.001
32.95,-0.127,0.805,0.195
32.96,-0.193,1.034,0.062
32.97,-0.394,0.823,-0.231
32.98,-0.079,1.193,-0.04
32.99,-0.116,0.876,0.046
33.0,-0.196,0.791,0.197
33.01,-0.287,1.085,-0.061
33.02,-0.23,0.858,-0.193
33.03,-0.218,1.179,0.082
33.04,-0.044,0.757,0.135
33.05,-0.208,1.013,0.043
33.06,-0.388,0.909,-0.125
33.07,-0.137,1.113,-0.117
33.08,-0.12,0.885,0.038
33.09,-0.157,0.819,0.253
33.1,-0.328,1.11,-0.132
33.11,-0.218,0.72,-0.178
33.12,-0.174,1.294,0.084
33.13,-0.01,0.817,0.097
33.14,-0.21,0.969,0.054
33.15,-0.384,0.918,-0.137
33.16,-0.044,1.142,-0.139
33.17,-0.187,0.981,0.082
33.18,-0.165,0.698,0.223
33.19,-0.323,1.162,-0.091
33.2,-0.305,0.763,-0.161
33.21,-0.159,1.201,0.041
33.22,-0.037,0.801,0.115
33.23,-0.209,0.958,0.051
33.24,-0.339,0.952,-0.192
33.25,-0.098,1.021,-0.079
33.26,-0.127,1.061,0.079
33.27,-0.151,0.676,0.233
33.28,-0.353,1.2,-0.065
33.29,-0.222,0.779,-0.198
33.3,-0.189,1.235,0.073
33.31,-0.046,0.853,0.145
33.32,-0.166,0.894,0.02
33.33,-0.385,1.076,-0.167
33.34,-0.094,0.96,-0.081
33.35,-0.183,1.092,0.072
33.36,-0.139,0.649,0.195
33.37,-0.32,1.222,-0.064
33.38,-0.309,0.781,-0.181
33.39,-0.176,1.091,0.071
33.4,-0.076,0.938,0.199
33.41,-0.183,0.824,0.027
33.42,-0.452,1.077,-0.181
33.43,-0.062,0.911,-0.011
33.44,-0.157,1.228,0.069
33.45,-0.177,0.649,0.165
33.46,-0.292,1.145,-0.06
33.47,-0.302,0.89,-0.203
33.48,-0.126,1.047,0.055
33.49,-0.064,0.956,0.164
33.5,-0.217,0.752,-0.001
33.51,-0.502,1.135,-0.181
33.52,0.038,0.897,-0.052
33.53,-0.18,1.226,0.08
33.54,-0.18,0.624,0.198
33.55,-0.329,1.241,-0.17
33.56,-0.332,0.798,-0.14
33.57,-0.073,1.19,0.08
33.58,-0.041,0.874,0.133
33.59,-0.384,0.833,-0.014
33.6,-0.327,1.133,-0.155
33.61,-0.07,0.907,-0.038
33.62,-0.302,1.14,0.118
33.63,0.055,0.656,0.152
33.64,-0.433,1.167,-0.166
33.65,-0.259,0.814,-0.11
33.66,-0.063,1.238,0.03
33.67,-0.048,0.851,0.124
33.68,-0.304,0.769,0.042
33.69,-0.28,1.255,-0.205
33.7,-0.111,0.827,-0.012
33.71,-0.289,1.145,0.213
33.72,-0.012,0.677,0.103
33.73,-0.412,1.129,-0.146
33.74,-0.315,0.893,-0.116
33.75,-0.037,1.109,0.079
33.76,-0.163,0.906,0.104
33.77,-0.257,0.711,-0.025
33.78,-0.323,1.357,-0.193
33.79,-0.077,0.842,-0.077
33.8,-0.237,1.109,0.201
33.81,-0.009,0.753,0.15
33.82,-0.458,1.062,-0.182
33.83,-0.218,0.944,-0.139
33.84,-0.111,1.054,0.116
33.85,-0.146,0.996,0.108
33.86,-0.292,0.67,-0.001
33.87,-0.349,1.264,-0.183
33.88,-0.075,0.825,0.004
33.89,-0.18,1.106,0.138
33.9,-0.056,0.773,0.123
33.91,-0.441,0.992,-0.159
33.92,-0.224,1.046,-0.113
33.93,-0.043,0.989,0.111
33.94,-0.179,1.007,0.099
33.95,-0.266,0.697,0.016
33.96,-0.324,1.334,-0.199
33.97,-0.085,0.861,0.015
33.98,-0.205,1.034,0.175
33.99,-0.074,0.846,0.107
34.0,-0.463,0.932,-0.18
34.01,-0.199,1.149,-0.054
34.02,-0.065,0.944,0.077
34.03,-0.178,1.023,0.131
34.04,-0.277,0.751,-0.003
34.05,-0.278,1.207,-0.224
34.06,-0.139,0.931,0.036
34.07,-0.167,0.98,0.183
34.08,-0.076,0.904,0.045
34.09,-0.446,0.882,-0.186
34.1,-0.269,1.202,-0.031
34.11,-0.024,0.874,0.059
34.12,-0.178,1.009,0.128
34.13,-0.249,0.769,-0.022
34.14,-0.312,1.169,-0.201
34.15,-0.154,0.959,-0.004
34.16,-0.082,0.947,0.18
34.17,-0.089,0.958,0.015
34.18,-0.455,0.832,-0.199
34.19,-0.106,1.257,-0.026
34.2,-0.093,0.808,0.076
34.21,-0.267,0.99,0.205
34.22,-0.175,0.848,-0.108
34.23,-0.34,1.091,-0.166
34.24,-0.187,1.027,0.083
34.25,-0.03,0.869,0.137
34.26,-0.186,0.947,-0.003
34.27,-0.453,0.854,-0.162
34.28,-0.04,1.259,-0.07
34.29,-0.168,0.751,0.103
34.3,-0.19,0.925,0.212
34.31,-0.227,0.939,-0.133
34.32,-0.302,0.963,-0.135
34.33,-0.201,1.14,0.07
34.34,0.032,0.808,0.109
34.35,-0.249,1.031,0.009
34.36,-0.387,0.866,-0.14
34.37,-0.077,1.253,-0.09
34.38,-0.169,0.706,0.126
34.39,-0.109,1.034,0.162
34.4,-0.286,0.852,-0.204
34.41,-0.234,1.019,-0.123
34.42,-0.072,1.088,0.062
34.43,-0.089,0.737,0.085
34.44,-0.302,1.014,0.008
34.45,-0.283,0.93,-0.16
34.46,-0.134,1.255,-0.047
34.47,-0.218,0.676,0.145
34.48,-0.029,0.993,0.069
34.49,-0.364,0.96,-0.187
34.5,-0.321,0.99,-0.065
34.51,0.038,1.157,0.069
34.52,-0.166,0.695,0.172
34.53,-0.415,1.068,0.007
34.54,-0.316,0.901,-0.161
34.55,-0.14,1.19,-0.01
34.56,-0.178,0.774,0.168
34.57,-0.077,0.942,0.082
34.58,-0.435,0.997,-0.177
34.59,-0.247,0.913,-0.054
34.6,-0.049,1.205,0.062
34.61,-0.114,0.638,0.121
34.62,-0.383,1.138,-0.022
34.63,-0.228,0.877,-0.19
34.64,-0.153,1.121,-0.001
34.65,-0.136,0.838,0.204
34.66,-0.113,0.89,0.081
34.67,-0.448,1.048,-0.232
34.68,-0.074,0.881,-0.037
34.69,-0.157,1.204,0.075
34.7,-0.101,0.599,0.168
34.71,-0.34,1.151,-0.051
34.72,-0.259,0.853,-0.192
34.73,-0.227,1.118,0.076
34.74,-0.065,0.965,0.109
34.75,-0.116,0.787,-0.009
34.76,-0.465,1.165,-0.195
34.77,-0.052,0.855,-0.099
34.78,-0.16,1.171,0.063
34.79,-0.118,0.651,0.226
34.8,-0.343,1.152,-0.103
34.81,-0.25,0.886,-0.163
34.82,-0.152,1.114,0.096
34.83,-0.094,0.956,0.079
34.84,-0.112,0.712,0.025
34.85,-0.529,1.277,-0.177
34.86,-0.018,0.829,-0.06
34.87,-0.167,1.16,0.09
34.88,-0.145,0.68,0.234
34.89,-0.399,1.053,-0.119
34.9,-0.216,0.964,-0.209
34.91,-0.085,1.08,0.103
34.92,-0.146,0.968,0.132
34.93,-0.201,0.679,0.023
34.94,-0.434,1.337,-0.159
34.95,-0.108,0.837,-0.053
34.96,-0.212,1.116,0.133
34.97,-0.094,0.758,0.164
34.98,-0.369,0.98,-0.163
34.99,-0.297,1.077,-0.045
35.0,-0.074,0.96,0.037
35.01,-0.14,1.008,0.125
35.02,-0.225,0.709,0.033
35.03,-0.411,1.338,-0.26
35.04,-0.074,0.825,-0.008
35.05,-0.22,1.105,0.178
35.06,-0.072,0.786,0.116
35.07,-0.406,0.92,-0.167
35.08,-0.216,1.134,-0.072
35.09,-0.107,0.968,0.019
35.1,-0.038,0.998,0.122
35.11,-0.316,0.71,0.057
35.12,-0.381,1.306,-0.19
35.13,-0.103,0.889,-0.015
35.14,-0.238,0.978,0.175
35.15,-0.073,0.892,0.111
35.16,-0.17,1.146,0.105
35.17,-0.187,0.764,0.218
35.18,-0.277,1.115,-0.139
35.19,-0.336,0.812,-0.158
35.2,-0.141,1.274,0.083
35.21,0.006,0.734,0.071
35.22,-0.284,0.997,0.026
35.23,-0.285,0.967,-0.186
35.24,-0.155,1.076,-0.096
35.25,-0.165,0.934,0.111
35.26,-0.106,0.798,0.212
35.27,-0.47,1.153,-0.158
35.28,-0.252,0.721,-0.154
35.29,-0.05,1.355,0.049
35.3,-0.122,0.739,0.158
35.31,-0.293,0.946,0.02
35.32,-0.333,1.033,-0.158
35.33,-0.198,0.98,-0.023
35.34,-0.181,1.028,0.072
35.35,-0.066,0.705,0.146
35.36,-0.363,1.161,-0.217
35.37,-0.255,0.812,-0.076
35.38,-0.153,1.281,0.036
35.39,-0.062,0.719,0.142
35.4,-0.229,0.94,0.022
35.41,-0.486,1.134,-0.146
35.42,-0.078,0.905,-0.04
35.43,-0.157,1.142,0.082
35.44,-0.144,0.656,0.146
35.45,-0.392,1.14,-0.161
35.46,-0.206,0.85,-0.129
35.47,-0.118,1.279,0.024
35.48,-0.022,0.763,0.081
35.49,-0.241,0.866,0.033
35.5,-0.441,1.219,-0.162
35.51,-0.134,0.819,-0.012
35.52,-0.195,1.143,0.113
35.53,-0.123,0.698,0.134
35.54,-0.409,1.109,-0.199
35.55,-0.138,0.835,-0.157
35.56,-0.084,1.24,0.036
35.57,-0.068,0.809,0.111
35.58,-0.231,0.756,0.003
35.59,-0.445,1.262,-0.195
35.6,-0.101,0.825,0.012
35.61,-0.221,1.164,0.139
35.62,-0.113,0.722,0.138
35.63,-0.436,1.103,-0.181
35.64,-0.146,0.915,-0.152
35.65,-0.063,1.098,0.093
35.66,-0.115,0.885,0.12
35.67,-0.273,0.726,-0.006
35.68,-0.306,1.332,-0.215
35.69,-0.134,0.795,-0.026
35.7,-0.232,1.117,0.185
35.71,-0.018,0.751,0.072
35.72,-0.517,1.043,-0.136
35.73,-0.078,1.033,-0.106
35.74,-0.077,1.048,0.082
35.75,-0.193,0.9,0.131
35.76,-0.217,0.718,0.022
35.77,-0.366,1.329,-0.239
35.78,-0.097,0.779,-0.016
35.79,-0.106,1.129,0.131
35.8,-0.165,0.778,0.1
35.81,-0.387,0.987,-0.149
35.82,-0.171,1.159,-0.069
35.83,-0.034,0.903,0.053
35.84,-0.151,0.969,0.134
35.85,-0.208,0.731,-0.023
35.86,-0.386,1.285,-0.215
35.87,-0.089,0.799,-0.008
35.88,-0.085,1.103,0.139
35.89,-0.158,0.827,0.07
35.9,-0.417,0.934,-0.158
35.91,-0.111,1.225,-0.112
35.92,-0.155,0.811,0.088
35.93,-0.082,0.968,0.17
35.94,-0.376,0.792,-0.109
35.95,-0.347,1.161,-0.135
35.96,-0.103,0.873,0.055
35.97,-0.176,1.096,0.163
35.98,-0.209,0.736,0.075
35.99,-0.404,1.079,-0.184
36.0,-0.105,1.165,-0.07
36.01,-0.183,0.808,0.099
36.02,-0.145,0.989,0.194
36.03,-0.265,0.799,-0.103
36.04,-0.436,1.153,-0.137
36.05,-0.104,0.862,0.076
36.06,-0.068,1.132,0.115
36.07,-0.249,0.769,0.02
36.08,-0.417,0.972,-0.129
36.09,-0.103,1.235,-0.055
36.1,-0.142,0.751,0.061
36.11,-0.212,1.03,0.234
36.12,-0.203,0.794,-0.193
36.13,-0.334,1.105,-0.154
36.14,-0.046,1.01,0.095
36.15,-0.051,1.006,0.108
36.16,-0.26,0.83,0.037
36.17,-0.339,0.992,-0.117
36.18,-0.119,1.267,-0.12
36.19,-0.157,0.698,0.087
36.2,-0.12,1.033,0.223
36.21,-0.236,0.86,-0.154
36.22,-0.423,1.097,-0.11
36.23,-0.04,1.044,0.045
36.24,-0.057,0.886,0.104
36.25,-0.199,0.922,0.03
36.26,-0.374,0.98,-0.133
36.27,-0.147,1.248,-0.098
36.28,-0.179,0.698,0.108
36.29,-0.162,1.049,0.185
36.3,-0.324,0.843,-0.14
36.31,-0.305,0.997,-0.168
36.32,-0.09,1.161,0.078
36.33,-0.09,0.818,0.111
36.34,-0.264,0.947,0.043
36.35,-0.348,0.907,-0.172
36.36,-0.124,1.294,-0.04
36.37,-0.151,0.678,0.122
36.38,-0.15,0.976,0.147
36.39,-0.294,0.952,-0.158
36.4,-0.294,0.943,-0.111
36.41,-0.143,1.133,0.092
36.42,-0.013,0.77,0.137
36.43,-0.305,1.056,0.005
36.44,-0.365,0.887,-0.135
36.45,-0.116,1.205,-0.061
36.46,-0.137,0.749,0.125
36.47,-0.151,0.947,0.147
36.48,-0.333,1.006,-0.189
36.49,-0.246,0.89,-0.144
36.5,-0.114,1.255,0.11
36.51,-0.101,0.653,0.158
36.52,-0.334,1.075,-0.01
36.53,-0.253,0.935,-0.132
36.54,-0.178,1.141,-0.031
36.55,-0.177,0.773,0.13
36.56,-0.061,0.918,0.157
36.57,-0.429,1.106,-0.172
36.58,-0.299,0.827,-0.072
36.59,-0.145,1.254,0.058
36.6,-0.082,0.623,0.153
36.61,-0.346,1.097,-0.007
36.62,-0.231,0.933,-0.2
36.63,-0.144,1.047,-0.017
36.64,-0.16,0.925,0.143
36.65,-0.075,0.825,0.12
36.66,-0.413,1.104,-0.174
36.67,-0.285,0.841,-0.066
36.68,-0.079,1.354,0.041
36.69,-0.092,0.591,0.106
36.7,-0.268,1.03,-0.006
36.71,-0.313,1.024,-0.219
36.72,-0.102,0.985,-0.043
36.73,-0.145,0.992,0.152
36.74,-0.095,0.766,0.111
36.75,-0.39,1.075,-0.162
36.76,-0.213,0.954,-0.01
36.77,-0.145,1.192,0.049
36.78,-0.118,0.608,0.172
36.79,-0.358,1.159,-0.012
36.8,-0.281,0.856,-0.208
36.81,-0.15,1.055,0.05
36.82,-0.116,0.982,0.152
36.83,-0.115,0.786,0.067
36.84,-0.366,1.132,-0.178
36.85,-0.163,0.886,-0.032
36.86,-0.145,1.209,0.068
36.87,-0.115,0.653,0.127
36.88,-0.3,1.109,-0.059
36.89,-0.3,0.918,-0.164
36.9,-0.188,0.995,0.065
36.91,-0.094,1.04,0.186
36.92,-0.063,0.743,0.008
36.93,-0.46,1.152,-0.154
36.94,-0.086,0.892,-0.03
36.95,-0.157,1.24,0.052
36.96,-0.169,0.634,0.213
36.97,-0.306,1.042,-0.074
36.98,-0.24,1.014,-0.185
36.99,-0.208,0.991,0.039
37.0,-0.132,1.052,0.168
37.01,-0.101,0.683,0.064
37.02,-0.45,1.233,-0.199
37.03,-0.021,0.911,-0.103
37.04,-0.162,1.135,0.043
37.05,-0.113,0.698,0.184
37.06,-0.3,0.998,-0.051
37.07,-0.331,1.037,-0.173
37.08,-0.14,0.938,0.115
37.09,-0.089,1.162,0.083
37.1,-0.155,0.618,0.002
37.11,-0.472,1.279,-0.152
37.12,-0.027,0.915,-0.101
37.13,-0.112,1.06,0.059
37.14,-0.132,0.872,0.203
37.15,-0.352,0.901,-0.098
37.16,-0.284,1.021,-0.182
37.17,-0.05,0.989,0.114
37.18,-0.169,1.154,0.089
37.19,-0.131,0.58,0.022
37.2,-0.479,1.275,-0.18
37.21,-0.061,0.945,-0.082
37.22,-0.146,1.009,0.1
37.23,-0.158,0.87,0.207
37.24,-0.284,0.866,-0.115
37.25,-0.318,1.178,-0.144
37.26,-0.132,0.88,0.117
37.27,-0.086,1.123,0.128
37.28,-0.203,0.664,0.01
37.29,-0.485,1.221,-0.136
37.3,-0.088,0.979,-0.093
37.31,-0.182,0.957,0.11
37.32,-0.156,0.93,0.164
37.33,-0.284,0.825,-0.172
37.34,-0.263,1.165,-0.159
37.35,-0.053,0.916,0.063
37.36,-0.135,1.091,0.158
37.37,-0.164,0.687,0.003
37.38,-0.441,1.201,-0.135
37.39,-0.113,1.028,-0.053
37.4,-0.177,0.87,0.135
37.41,-0.133,1.012,0.181
37.42,-0.351,0.769,-0.154
37.43,-0.229,1.186,-0.155
37.44,-0.076,0.933,0.077
37.45,-0.07,0.997,0.119
37.46,-0.175,0.768,0.015
37.47,-0.452,1.142,-0.162
37.48,-0.133,1.024,-0.044
37.49,-0.177,0.821,0.125
37.5,-0.165,1.033,0.092
37.51,-0.294,0.766,-0.147
37.52,-0.263,1.226,-0.127
37.53,-0.179,0.914,0.129
37.54,-0.102,0.949,0.144
37.55,-0.168,0.84,-0.009
37.56,-0.426,1.042,-0.142
37.57,-0.054,0.957,-0.054
37.58,-0.153,0.873,0.161
37.59,-0.124,1.03,0.114
37.6,-0.4,0.801,-0.185
37.61,-0.26,1.185,-0.1
37.62,-0.04,0.879,0.093
37.63,-0.175,0.984,0.167
37.64,-0.258,0.807,-0.029
37.65,-0.313,1.147,-0.213
37.66,-0.075,1.016,-0.042
37.67,-0.177,0.823,0.172
37.68,-0.155,1.046,0.095
37.69,-0.38,0.756,-0.191
37.7,-0.196,1.237,-0.054
37.71,-0.044,0.922,0.058
37.72,-0.15,0.859,0.117
37.73,-0.237,0.932,-0.036
37.74,-0.353,1.073,-0.16
37.75,-0.16,1.092,0.001
37.76,-0.088,0.779,0.183
37.77,-0.172,1.044,0.08
37.78,-0.367,0.819,-0.192
37.79,-0.161,1.191,-0.092
37.8,-0.121,0.879,0.109
37.81,-0.125,0.873,0.154
37.82,-0.282,1.002,-0.074
37.83,-0.312,0.923,-0.156
37.84,-0.189,1.191,0.041
37.85,-0.087,0.772,0.165
37.86,-0.136,1.031,0.029
37.87,-0.431,0.867,-0.203
37.88,-0.141,1.147,-0.064
37.89,-0.102,0.874,0.09
37.9,-0.16,0.804,0.182
37.91,-0.32,1.111,-0.092
37.92,-0.24,0.839,-0.161
37.93,-0.203,1.215,0.078
37.94,-0.116,0.755,0.156
37.95,-0.213,1.026,0.037
37.96,-0.414,0.903,-0.198
37.97,-0.145,1.115,-0.062
37.98,-0.069,0.915,0.095
37.99,-0.255,0.745,0.191
38.0,-0.287,1.135,-0.114
38.01,-0.224,0.858,-0.184
38.02,-0.131,1.229,0.108
38.03,-0.108,0.728,0.148
38.04,-0.24,0.973,-0.029
38.05,-0.383,1.013,-0.146
38.06,-0.136,1.015,-0.028
38.07,-0.159,0.98,0.094
38.08,-0.075,0.739,0.197
38.09,-0.39,1.186,-0.154
38.1,-0.272,0.782,-0.116
38.11,-0.047,1.276,0.108
38.12,-0.106,0.72,0.114
38.13,-0.261,0.947,0.02
38.14,-0.342,1.079,-0.248
38.15,-0.089,0.91,-0.053
38.16,-0.261,1.077,0.174
38.17,-0.069,0.67,0.098
38.18,-0.462,1.187,-0.166
38.19,-0.207,0.875,-0.07
38.2,-0.117,1.227,0.089
38.21,-0.087,0.718,0.135
38.22,-0.208,0.905,0.016
38.23,-0.417,1.148,-0.179
38.24,-0.077,0.863,0.012
38.25,-0.146,1.153,0.093
38.26,-0.135,0.652,0.093
38.27,-0.402,1.177,-0.181
38.28,-0.058,0.935,-0.091
38.29,-0.194,1.135,0.088
38.3,-0.061,0.774,0.135
38.31,-0.275,0.864,-0.011
38.32,-0.315,1.207,-0.254
38.33,-0.066,0.862,0.001
38.34,-0.203,1.218,0.183
38.35,-0.083,0.613,0.059
38.36,-0.486,1.188,-0.174
38.37,-0.151,0.989,-0.013
38.38,-0.136,1.104,0.089
38.39,-0.181,0.718,0.186
38.4,-0.313,1.024,-0.085
38.41,-0.309,1.046,-0.156
38.42,-0.129,0.924,0.097
38.43,-0.092,1.144,0.15
38.44,-0.228,0.627,0.039
38.45,-0.498,1.251,-0.157
38.46,-0.086,0.929,-0.031
38.47,-0.167,1.027,0.087
38.48,-0.189,0.841,0.213
38.49,-0.298,0.937,-0.161
38.5,-0.258,1.103,-0.164
38.51,-0.017,0.975,0.116
38.52,-0.184,1.057,0.132
38.53,-0.247,0.666,0.004
38.54,-0.396,1.316,-0.18
38.55,-0.134,0.9,-0.019
38.56,-0.219,0.947,0.159
38.57,-0.102,0.909,0.133
38.58,-0.414,0.836,-0.173
38.59,-0.259,1.155,-0.076
38.6,-0.028,0.933,0.076
38.61,-0.145,1.003,0.128
38.62,-0.225,0.703,0.015
38.63,-0.345,1.227,-0.233
38.64,-0.047,0.94,-0.052
38.65,-0.252,0.921,0.214
38.66,-0.158,0.938,0.089
38.67,-0.422,0.841,-0.166
38.68,-0.184,1.28,-0.025
38.69,-0.072,0.877,0.082
38.7,-0.135,0.956,0.137
38.71,-0.27,0.778,-0.009
38.72,-0.309,1.195,-0.248
38.73,-0.095,1.023,-0.05
38.74,-0.144,0.87,0.185
38.75,-0.137,0.983,0.061
38.76,-0.407,0.807,-0.174
38.77,-0.242,1.256,-0.038
38.78,-0.045,0.791,0.08
38.79,-0.15,0.971,0.154
38.8,-0.293,0.878,-0.068
38.81,-0.286,0.996,-0.183
38.82,-0.132,1.12,0.055
38.83,-0.139,0.823,0.081
38.84,-0.137,1.012,0.034
38.85,-0.371,0.845,-0.182
38.86,-0.21,1.217,-0.044
38.87,-0.112,0.776,0.104
38.88,-0.146,0.955,0.151
38.89,-0.323,0.962,-0.137
38.9,-0.249,0.905,-0.142
38.91,-0.083,1.269,0.087
38.92,-0.112,0.722,0.154
38.93,-0.207,1.042,0.037
38.94,-0.391,0.898,-0.188
38.95,-0.187,1.127,-0.063
38.96,-0.142,0.807,0.142
38.97,-0.186,0.884,0.175
38.98,-0.398,1.063,-0.153
38.99,-0.225,0.837,-0.128
39.0,-0.1,1.291,0.054
39.01,-0.096,0.67,0.146
39.02,-0.21,1.053,0.032
39.03,-0.383,0.966,-0.142
39.04,-0.146,1.08,-0.034
39.05,-0.151,0.861,0.146
39.06,-0.154,0.833,0.198
39.07,-0.448,1.133,-0.166
39.08,-0.227,0.795,-0.132
39.09,-0.031,1.325,0.105
39.1,-0.11,0.679,0.129
39.11,-0.316,1.01,-0.004
39.12,-0.298,0.981,-0.223
39.13,-0.108,1.03,0.012
39.14,-0.221,0.971,0.159
39.15,-0.164,0.737,0.096
39.16,-0.451,1.163,-0.182
39.17,-0.212,0.859,-0.062
39.18,-0.028,1.219,0.063
39.19,-0.215,0.672,0.181
39.2,-0.325,1.133,-0.039
39.21,-0.282,0.854,-0.2
39.22,-0.12,1.103,0.049
39.23,-0.088,0.89,0.129
39.24,-0.17,0.776,0.031
39.25,-0.453,1.162,-0.181
39.26,-0.037,0.887,-0.059
39.27,-0.167,1.193,0.111
39.28,-0.147,0.668,0.141
39.29,-0.25,1.14,-0.137
39.3,-0.353,0.937,-0.157
39.31,-0.11,1.027,0.064
39.32,-0.076,1.0,0.105
39.33,-0.168,0.713,-0.005
39.34,-0.505,1.252,-0.145
39.35,-0.034,0.871,-0.066
39.36,-0.21,1.152,0.049
39.37,-0.044,0.689,0.171
39.38,-0.423,1.091,-0.157
39.39,-0.22,0.925,-0.185
39.4,0.041,1.063,0.051
39.41,-0.191,1.013,0.135
39.42,-0.282,0.672,0.035
39.43,-0.354,1.324,-0.233
39.44,-0.094,0.823,-0.041
39.45,-0.221,1.135,0.198
39.46,-0.095,0.763,0.118
39.47,-0.43,0.988,-0.22
39.48,-0.154,1.098,-0.057
39.49,-0.077,1.01,0.098
39.5,-0.186,0.947,0.143
39.51,-0.227,0.704,0.017
39.52,-0.404,1.337,-0.193
39.53,-0.14,0.789,-0.0
39.54,-0.154,1.088,0.138
39.55,-0.099,0.79,0.077
39.56,-0.438,0.953,-0.18
39.57,-0.164,1.171,-0.041
39.58,-0.064,0.887,0.053
39.59,-0.199,0.987,0.143
39.6,-0.175,0.725,-0.052
39.61,-0.362,1.252,-0.225
39.62,-0.062,0.87,0.03
39.63,-0.13,1.106,0.115
39.64,-0.146,0.806,0.043
39.65,-0.455,0.936,-0.159
39.66,-0.116,1.232,-0.052
39.67,-0.147,0.782,0.106
39.68,-0.183,1.021,0.159
39.69,-0.237,0.768,-0.112
39.7,-0.362,1.133,-0.175
39.71,-0.078,0.99,0.082
39.72,-0.13,0.982,0.114
39.73,-0.131,0.866,0.024
39.74,-0.451,0.925,-0.154
39.75,-0.13,1.25,-0.044
39.76,-0.141,0.748,0.078
39.77,-0.167,1.008,0.15
39.78,-0.276,0.829,-0.132
39.79,-0.35,1.081,-0.154
39.8,0.011,1.019,0.036
39.81,-0.07,0.843,0.141
39.82,-0.26,0.978,0.038
39.83,-0.387,0.939,-0.144
39.84,-0.104,1.236,-0.049
39.85,-0.116,0.749,0.11
39.86,-0.175,1.027,0.179
39.87,-0.248,0.931,-0.195
39.88,-0.348,1.015,-0.143
39.89,-0.091,1.096,0.122
39.9,-0.022,0.793,0.132
39.91,-0.401,1.028,0.027
39.92,-0.33,0.88,-0.143
39.93,-0.071,1.231,-0.059
39.94,-0.178,0.754,0.104
39.95,-0.176,0.971,0.186
39.96,-0.289,0.969,-0.182
39.97,-0.263,0.963,-0.151
39.98,-0.11,1.145,0.11
39.99,-0.037,0.683,0.132
40.0,-0.406,1.071,-0.006
40.01,-0.298,0.844,-0.138
40.02,-0.132,1.236,-0.005
40.03,-0.232,0.753,0.173
40.04,-0.043,1.033,0.048
40.05,-0.386,0.914,-0.21
40.06,-0.248,1.038,-0.045
40.07,-0.027,1.08,0.075
40.08,-0.147,0.713,0.127
40.09,-0.391,1.105,-0.002
40.1,-0.219,0.861,-0.186
40.11,-0.144,1.203,0.02
40.12,-0.169,0.756,0.196
40.13,-0.143,0.97,0.022
40.14,-0.422,0.983,-0.237
40.15,-0.155,0.981,-0.008
40.16,-0.158,1.089,0.109
40.17,-0.107,0.655,0.094
40.18,-0.333,1.165,-0.09
40.19,-0.245,0.885,-0.153
40.2,-0.157,1.176,0.037
40.21,-0.053,0.793,0.123
40.22,-0.183,0.917,0.004
40.23,-0.463,1.088,-0.189
40.24,-0.062,0.936,-0.038
40.25,-0.17,1.097,0.097
40.26,-0.107,0.651,0.157
40.27,-0.423,1.198,-0.128
40.28,-0.225,0.84,-0.129
40.29,-0.115,1.202,0.094
40.3,-0.14,0.805,0.147
40.31,-0.195,0.818,-0.026
40.32,-0.392,1.167,-0.211
40.33,-0.093,0.899,-0.007
40.34,-0.125,1.118,0.102
40.35,-0.152,0.673,0.156
40.36,-0.409,1.17,-0.188
40.37,-0.201,0.885,-0.129
40.38,-0.125,1.161,0.135
40.39,-0.153,0.845,0.118
40.4,-0.238,0.772,-0.018
40.41,-0.382,1.271,-0.143
40.42,-0.076,0.862,0.001
40.43,-0.249,1.114,0.172
40.44,-0.065,0.681,0.083
40.45,-0.427,1.163,-0.253
40.46,-0.169,0.934,-0.046
40.47,-0.036,1.056,0.079
40.48,-0.173,0.924,0.128
40.49,-0.264,0.759,-0.033
40.5,-0.362,1.291,-0.177
40.51,-0.077,0.781,0.027
40.52,-0.172,1.172,0.164
40.53,-0.168,0.712,0.082
40.54,-0.431,1.061,-0.237
40.55,-0.109,1.091,-0.018
40.56,-0.151,0.913,0.112
40.57,-0.171,0.932,0.153
40.58,-0.233,0.77,-0.097
40.59,-0.331,1.266,-0.142
40.6,-0.143,0.861,0.083
40.61,-0.084,1.062,0.109
40.62,-0.218,0.751,0.024
40.63,-0.388,1.098,-0.129
40.64,-0.143,1.11,-0.075
40.65,-0.18,0.752,0.175
40.66,-0.178,1.085,0.197
40.67,-0.344,0.76,-0.189
40.68,-0.284,1.179,-0.129
40.69,-0.052,0.946,0.128
40.7,-0.137,0.941,0.103
40.71,-0.231,0.842,-0.036
40.72,-0.336,1.071,-0.165
40.73,-0.09,1.119,-0.037
40.74,-0.152,0.748,0.16
40.75,-0.131,1.054,0.107
40.76,-0.379,0.778,-0.201
40.77,-0.261,1.163,-0.073
40.78,-0.03,0.999,0.052
40.79,-0.135,0.821,0.11
40.8,-0.259,0.965,0.025
40.81,-0.249,0.985,-0.206
40.82,-0.206,1.155,0.039
40.83,-0.111,0.837,0.187
40.84,-0.107,0.98,0.025
40.85,-0.46,0.87,-0.182
40.86,-0.111,1.242,-0.043
40.87,-0.139,0.781,0.056
40.88,-0.115,0.936,0.141
40.89,-0.239,0.919,-0.098
40.9,-0.353,0.946,-0.17
40.91,-0.119,1.178,0.08
40.92,-0.079,0.813,0.148
40.93,-0.292,1.0,0.054
40.94,-0.357,0.89,-0.189
40.95,-0.091,1.288,-0.106
40.96,-0.186,0.726,0.082
40.97,-0.144,0.896,0.181
40.98,-0.326,1.057,-0.168
40.99,-0.304,0.826,-0.113
41.0,-0.101,1.256,0.13
41.01,-0.121,0.706,0.079
41.02,-0.275,1.047,0.016
41.03,-0.365,0.917,-0.199
41.04,-0.136,1.164,-0.065
41.05,-0.12,0.803,0.096
41.06,-0.011,0.855,0.124
41.07,-0.409,1.091,-0.184
41.08,-0.238,0.824,-0.068
41.09,-0.026,1.298,0.078
41.1,-0.205,0.647,0.162
41.11,-0.258,1.091,-0.006
41.12,-0.391,0.954,-0.166
41.13,-0.203,1.02,0.017
41.14,-0.088,0.959,0.137
41.15,-0.119,0.782,0.097
41.16,-0.45,1.127,-0.177
41.17,-0.147,0.819,-0.039
41.18,-0.084,1.287,0.044
41.19,-0.096,0.64,0.156
41.2,-0.281,1.035,-0.006
41.21,-0.339,1.051,-0.2
41.22,-0.1,0.982,0.01
41.23,-0.215,0.998,0.236
41.24,-0.17,0.708,0.063
41.25,-0.408,1.207,-0.237
41.26,-0.154,0.837,-0.018
41.27,-0.161,1.198,0.116
41.28,-0.104,0.713,0.119
41.29,-0.35,1.028,-0.036
41.3,-0.309,1.013,-0.193
41.31,-0.104,0.973,0.042
41.32,-0.125,1.078,0.147
41.33,-0.162,0.644,0.019
41.34,-0.458,1.253,-0.18
41.35,-0.081,0.875,-0.012
41.36,-0.143,1.116,0.108
41.37,-0.132,0.761,0.168
41.38,-0.396,0.978,-0.135
41.39,-0.24,1.081,-0.189
41.4,-0.042,0.955,0.073
41.41,-0.177,1.09,0.145
41.42,-0.19,0.682,-0.019
41.43,-0.397,1.274,-0.22
41.44,-0.103,0.842,-0.035
41.45,-0.161,1.066,0.162
41.46,-0.007,0.841,0.081
41.47,-0.454,0.885,-0.2
41.48,-0.206,1.171,-0.03
41.49,-0.111,0.944,0.055
41.5,-0.2,0.976,0.172
41.51,-0.187,0.72,0.013
41.52,-0.402,1.322,-0.248
41.53,-0.092,0.814,0.021
41.54,-0.111,1.034,0.157
41.55,-0.12,0.896,0.083
41.56,-0.371,0.871,-0.19
41.57,-0.24,1.285,-0.039
41.58,-0.093,0.75,0.023
41.59,-0.171,1.051,0.182
41.6,-0.259,0.773,-0.018
41.61,-0.342,1.113,-0.21
41.62,-0.119,0.946,0.057
41.63,-0.145,0.964,0.157
41.64,-0.188,0.923,0.028
41.65,-0.448,1.028,-0.142
41.66,-0.091,1.234,-0.125
41.67,-0.11,0.716,0.056
41.68,-0.161,1.043,0.171
41.69,-0.337,0.774,-0.14
41.7,-0.285,1.151,-0.156
41.71,-0.012,1.035,0.1
41.72,-0.126,0.862,0.112
41.73,-0.303,0.882,0.062
41.74,-0.282,1.032,-0.229
41.75,-0.113,1.152,-0.099
41.76,-0.136,0.7,0.236
41.77,-0.158,1.074,0.129
41.78,-0.384,0.805,-0.179
41.79,-0.274,1.145,-0.051
41.8,-0.034,1.024,0.028
41.81,-0.205,0.75,0.14
41.82,-0.207,1.036,0.021
41.83,-0.3,0.96,-0.23
41.84,-0.215,1.126,-0.017
41.85,-0.081,0.772,0.195
41.86,-0.12,1.03,0.063
41.87,-0.485,0.838,-0.155
41.88,-0.044,1.112,-0.084
41.89,-0.197,1.001,0.081
41.9,-0.223,0.691,0.245
41.91,-0.23,1.127,-0.033
41.92,-0.345,0.845,-0.229
41.93,-0.189,1.213,0.085
41.94,-0.032,0.81,0.094
41.95,-0.171,0.927,0.024
41.96,-0.317,1.01,-0.144
41.97,-0.145,1.055,-0.139
41.98,-0.205,0.959,0.061
41.99,-0.132,0.736,0.238
42.0,-0.389,1.123,-0.094
42.01,-0.293,0.717,-0.192
42.02,-0.128,1.253,0.075
42.03,-0.18,0.816,0.137
42.04,-0.125,0.909,0.035
42.05,-0.44,1.1,-0.171
42.06,-0.073,0.917,-0.067
42.07,-0.232,1.104,0.117
42.08,-0.143,0.672,0.184
42.09,-0.359,1.181,-0.106
42.1,-0.295,0.8,-0.147
42.11,-0.172,1.215,0.101
42.12,-0.068,0.859,0.137
42.13,-0.178,0.852,0.022
42.14,-0.408,1.148,-0.17
42.15,-0.1,0.911,-0.005
42.16,-0.26,1.125,0.105
42.17,0.015,0.679,0.132
42.18,-0.43,1.144,-0.156
42.19,-0.31,0.841,-0.097
42.2,-0.06,1.218,0.05
42.21,-0.102,0.812,0.115
42.22,-0.277,0.806,0.077
42.23,-0.33,1.226,-0.187
42.24,-0.098,0.806,-0.063
42.25,-0.227,1.194,0.172
42.26,-0.053,0.684,0.092
42.27,-0.417,1.087,-0.15
42.28,-0.242,0.925,-0.08
42.29,-0.098,1.127,0.056
42.3,-0.116,0.833,0.109
42.31,-0.262,0.788,0.038
42.32,-0.389,1.306,-0.207
42.33,-0.071,0.79,-0.069
42.34,-0.221,1.156,0.185
42.35,-0.098,0.726,0.114
42.36,-0.432,1.041,-0.189
42.37,-0.215,0.959,-0.126
42.38,-0.089,1.096,0.093
42.39,-0.119,0.949,0.127
42.4,-0.253,0.708,0.007
42.41,-0.41,1.32,-0.179
42.42,-0.078,0.752,-0.017
42.43,-0.127,1.123,0.148
42.44,-0.068,0.799,0.054
42.45,-0.437,0.98,-0.182
42.46,-0.215,1.115,-0.065
42.47,-0.199,1.026,0.075
42.48,-0.1,0.802,0.164
42.49,-0.241,0.877,-0.041
42.5,-0.375,1.219,-0.242
42.51,-0.049,0.756,0.0
42.52,-0.112,1.236,0.194
42.53,-0.137,0.68,0.058
42.54,-0.417,1.096,-0.174
42.55,-0.124,1.043,-0.106
42.56,-0.11,0.946,0.103
42.57,-0.154,0.947,0.177
42.58,-0.235,0.781,-0.086
42.59,-0.391,1.183,-0.145
42.6,-0.079,0.842,0.101
42.61,-0.106,1.235,0.15
42.62,-0.151,0.67,0.069
42.63,-0.451,1.095,-0.182
42.64,-0.117,1.108,-0.08
42.65,-0.127,0.873,0.02
42.66,-0.138,1.02,0.146
42.67,-0.264,0.766,-0.114
42.68,-0.354,1.187,-0.137
42.69,-0.096,0.898,0.098
42.7,-0.126,1.087,0.122
42.71,-0.14,0.719,0.026
42.72,-0.375,1.077,-0.163
42.73,-0.156,1.166,-0.119
42.74,-0.131,0.721,0.093
42.75,-0.152,1.077,0.201
42.76,-0.35,0.775,-0.138
42.77,-0.367,1.08,-0.139
42.78,-0.055,0.973,0.098
42.79,-0.154,1.032,0.119
42.8,-0.149,0.791,0.034
42.81,-0.337,1.042,-0.148
42.82,-0.192,1.188,-0.072
42.83,-0.132,0.691,0.113
42.84,-0.088,1.086,0.185
42.85,-0.396,0.802,-0.131
42.86,-0.29,1.084,-0.136
42.87,-0.009,1.069,0.057
42.88,-0.225,0.898,0.174
42.89,-0.192,0.89,0.015
42.9,-0.291,0.999,-0.167
42.91,-0.272,1.223,-0.004
42.92,-0.122,0.689,0.1
42.93,-0.108,1.059,0.15
42.94,-0.378,0.79,-0.136
42.95,-0.304,1.039,-0.07
42.96,-0.087,1.106,0.086
42.97,-0.16,0.796,0.107
42.98,-0.209,1.024,0.029
42.99,-0.355,0.971,-0.149
43.0,-0.182,1.198,-0.034
43.01,-0.152,0.728,0.18
43.02,-0.09,1.017,0.105
43.03,-0.359,0.89,-0.149
43.04,-0.245,1.064,-0.089
43.05,-0.087,1.119,0.008
43.06,-0.134,0.699,0.114
43.07,-0.285,1.07,0.015
43.08,-0.377,0.925,-0.171
43.09,-0.191,1.132,-0.035
43.1,-0.111,0.78,0.152
43.11,-0.094,1.01,0.12
43.12,-0.382,0.876,-0.186
43.13,-0.228,0.942,-0.071
43.14,-0.04,1.26,0.033
43.15,-0.136,0.625,0.124
43.16,-0.261,1.101,0.003
43.17,-0.331,0.913,-0.166
43.18,-0.156,1.108,-0.058
43.19,-0.189,0.821,0.155
43.2,-0.05,0.968,0.122
43.21,-0.382,0.968,-0.214
43.22,-0.262,0.847,-0.004
43.23,-0.05,1.323,0.085
43.24,-0.143,0.609,0.077
43.25,-0.266,1.079,0.015
43.26,-0.259,0.917,-0.213
43.27,-0.229,1.092,0.016
43.28,-0.14,0.937,0.154
43.29,-0.126,0.949,0.048
43.3,-0.384,0.943,-0.163
43.31,-0.122,1.037,-0.099
43.32,-0.082,1.122,0.025
43.33,-0.125,0.646,0.173
43.34,-0.313,1.134,0.009
43.35,-0.274,0.867,-0.237
43.36,-0.185,1.119,0.014
43.37,-0.146,0.866,0.216
43.38,-0.076,0.917,0.063
43.39,-0.449,1.024,-0.18
43.4,-0.154,0.922,-0.029
43.41,-0.115,1.194,0.031
43.42,-0.117,0.626,0.178
43.43,-0.381,1.181,0.024
43.44,-0.332,0.853,-0.201
43.45,-0.144,1.102,-0.031
43.46,-0.033,0.915,0.142
43.47,-0.107,0.806,0.055
43.48,-0.502,1.113,-0.145
43.49,-0.12,0.914,-0.083
43.5,-0.302,1.041,0.063
43.51,-0.322,0.966,-0.159
43.52,-0.162,1.179,-0.069
43.53,-0.153,0.76,0.145
43.54,-0.08,1.036,0.134
43.55,-0.362,0.824,-0.157
43.56,-0.246,1.042,-0.074
43.57,-0.029,1.104,0.02
43.58,-0.074,0.74,0.137
43.59,-0.366,1.04,0.066
43.6,-0.302,0.898,-0.162
43.61,-0.176,1.252,-0.012
43.62,-0.184,0.734,0.12
43.63,-0.153,1.002,0.142
43.64,-0.285,0.935,-0.18
43.65,-0.308,0.999,-0.052
43.66,-0.093,1.145,0.058
43.67,-0.025,0.668,0.143
43.68,-0.304,1.102,0.01
43.69,-0.309,0.895,-0.161
43.7,-0.165,1.169,-0.058
43.71,-0.208,0.786,0.129
43.72,-0.1,0.96,0.139
43.73,-0.294,1.013,-0.188
43.74,-0.377,0.901,-0.026
43.75,-0.087,1.187,0.064
43.76,0.015,0.685,0.14
43.77,-0.434,1.095,0.016
43.78,-0.28,0.872,-0.167
43.79,-0.102,1.177,-0.057
43.8,-0.234,0.87,0.144
43.81,-0.133,0.876,0.142
43.82,-0.32,1.058,-0.197
43.83,-0.275,0.834,-0.068
43.84,-0.115,1.307,0.066
43.85,-0.013,0.651,0.146
43.86,-0.29,1.079,0.046
43.87,-0.393,0.958,-0.124
43.88,-0.091,1.108,-0.062
43.89,-0.181,0.933,0.119
43.9,-0.168,0.79,0.162
43.91,-0.354,1.111,-0.172
43.92,-0.19,0.815,-0.088
43.93,-0.213,1.346,0.086
43.94,-0.031,0.636,0.139
43.95,-0.249,1.048,0.029
43.96,-0.384,1.0,-0.179
43.97,-0.175,0.997,-0.039
43.98,-0.167,0.978,0.115
43.99,-0.144,0.758,0.157
44.0,-0.389,1.162,-0.17
44.01,-0.261,0.773,-0.093
44.02,-0.134,1.34,0.098
44.03,-0.086,0.714,0.124
44.04,-0.322,1.081,0.02
44.05,-0.26,0.944,-0.209
44.06,-0.127,1.054,-0.071
44.07,-0.165,0.881,0.164
44.08,-0.073,0.844,0.116
44.09,-0.415,1.131,-0.172
44.1,-0.231,0.839,-0.033
44.11,-0.141,1.314,0.026
44.12,-0.151,0.608,0.169
44.13,-0.282,1.062,0.037
44.14,-0.304,0.968,-0.239
44.15,-0.197,0.989,-0.052
44.16,-0.173,0.984,0.143
44.17,-0.043,0.792,0.126
44.18,-0.46,1.126,-0.155
44.19,-0.238,0.797,-0.05
44.2,-0.114,1.318,0.064
44.21,-0.161,0.664,0.151
44.22,-0.253,0.979,0.008
44.23,-0.333,1.052,-0.207
44.24,-0.126,0.939,-0.058
44.25,-0.143,1.041,0.106
44.26,-0.115,0.705,0.134
44.27,-0.4,1.149,-0.13
44.28,-0.182,0.838,-0.075
44.29,-0.106,1.293,0.075
44.3,-0.119,0.706,0.112
44.31,-0.303,0.931,0.022
44.32,-0.363,1.155,-0.161
44.33,-0.104,0.915,-0.056
44.34,-0.143,1.047,0.123
44.35,-0.118,0.696,0.142
44.36,-0.484,1.177,-0.144
44.37,-0.2,0.784,-0.166
44.38,-0.103,1.251,0.112
44.39,-0.13,0.773,0.145
44.4,-0.263,0.862,-0.001
44.41,-0.283,1.216,-0.194
44.42,-0.14,0.83,-0.045
44.43,-0.243,1.114,0.167
44.44,-0.055,0.729,0.107
44.45,-0.473,1.154,-0.174
44.46,-0.279,0.874,-0.053
44.47,-0.048,1.185,0.055
44.48,-0.126,0.789,0.136
44.49,-0.294,0.822,0.088
44.5,-0.302,1.287,-0.22
44.51,-0.182,0.785,-0.036
44.52,-0.164,1.178,0.134
44.53,-0.011,0.744,0.101
44.54,-0.473,1.112,-0.154
44.55,-0.253,0.948,-0.053
44.56,-0.048,1.097,0.068
44.57,-0.174,0.891,0.118
44.58,-0.231,0.753,0.021
44.59,-0.413,1.34,-0.214
44.6,-0.104,0.771,-0.005
44.61,-0.13,1.148,0.108
44.62,-0.058,0.749,0.102
44.63,-0.467,1.042,-0.165
44.64,-0.189,1.016,-0.099
44.65,-0.056,1.039,0.077
44.66,-0.168,0.933,0.152
44.67,-0.235,0.737,-0.024
44.68,-0.337,1.315,-0.248
44.69,-0.082,0.788,-0.0
44.7,-0.169,1.145,0.149
44.71,-0.084,0.784,0.086
44.72,-0.481,1.034,-0.148
44.73,-0.184,1.098,-0.102
44.74,-0.031,0.927,0.052
44.75,-0.222,1.001,0.13
44.76,-0.215,0.716,-0.059
44.77,-0.328,1.299,-0.227
44.78,-0.078,0.834,-0.014
44.79,-0.225,1.067,0.217
44.8,-0.032,0.814,0.044
44.81,-0.472,0.95,-0.187
44.82,-0.127,1.197,-0.062
44.83,-0.098,0.856,0.083
44.84,-0.223,1.016,0.146
44.85,-0.173,0.75,-0.074
44.86,-0.375,1.212,-0.181
44.87,-0.113,0.861,0.083
44.88,-0.074,1.111,0.12
44.89,-0.174,0.725,0.04
44.9,-0.484,1.096,-0.161
44.91,-0.08,1.092,-0.07
44.92,-0.152,0.855,0.091
44.93,-0.176,1.012,0.173
44.94,-0.223,0.75,-0.142
44.95,-0.273,1.175,-0.186
44.96,-0.114,0.953,0.094
44.97,-0.132,1.012,0.147
44.98,-0.162,0.803,0.045
44.99,-0.402,1.094,-0.163
45.0,-0.168,1.109,-0.063
45.01,-0.135,0.79,0.121
45.02,-0.135,1.059,0.149
45.03,-0.309,0.748,-0.159
45.04,-0.232,1.158,-0.131
45.05,-0.161,0.984,0.093
45.06,-0.115,0.895,0.149
45.07,-0.2,0.871,0.012
45.08,-0.389,1.027,-0.176
45.09,-0.174,1.165,-0.061
45.1,-0.166,0.714,0.132
45.11,-0.132,1.09,0.162
45.12,-0.315,0.758,-0.145
45.13,-0.337,1.062,-0.091
45.14,-0.031,1.07,0.052
45.15,-0.115,0.841,0.088
45.16,-0.264,0.931,0.068
45.17,-0.279,1.008,-0.198
45.18,-0.147,1.212,-0.066
45.19,-0.15,0.72,0.114
45.2,-0.1,1.062,0.143
45.21,-0.346,0.851,-0.162
45.22,-0.252,1.063,-0.123
45.23,-0.027,1.118,0.049
45.24,-0.074,0.746,0.105
45.25,-0.252,0.987,0.02
45.26,-0.336,0.955,-0.141
45.27,-0.168,1.212,-0.054
45.28,-0.188,0.723,0.177
45.29,-0.122,1.0,0.131
45.3,-0.336,0.889,-0.173
45.31,-0.275,0.994,-0.044
45.32,-0.081,1.147,0.02
45.33,-0.115,0.664,0.133
45.34,-0.236,1.065,0.006
45.35,-0.302,0.886,-0.192
45.36,-0.152,1.179,-0.036
45.37,-0.17,0.797,0.17
45.38,-0.192,0.988,0.146
45.39,-0.378,0.946,-0.141
45.4,-0.274,0.926,-0.06
45.41,-0.079,1.247,0.064
45.42,-0.11,0.641,0.121
45.43,-0.283,1.071,0.04
45.44,-0.303,0.927,-0.205
45.45,-0.195,1.115,-0.06
45.46,-0.093,0.822,0.151
45.47,-0.162,0.934,0.111
45.48,-0.461,1.019,-0.134
45.49,-0.181,0.862,-0.087
45.5,-0.081,1.304,0.094
45.51,-0.105,0.608,0.132
45.52,-0.275,1.081,-0.052
45.53,-0.364,0.943,-0.142
45.54,-0.199,1.068,-0.005
45.55,-0.122,0.875,0.102
45.56,-0.034,0.86,0.051
45.57,-0.456,1.134,-0.179
45.58,-0.243,0.817,-0.053
45.59,-0.05,1.336,0.084
45.6,-0.099,0.587,0.124
45.61,-0.329,1.041,0.009
45.62,-0.206,1.005,-0.248
45.63,-0.19,0.992,-0.023
45.64,-0.138,0.971,0.175
45.65,-0.11,0.777,0.111
45.66,-0.467,1.179,-0.189
45.67,-0.17,0.929,-0.002
45.68,-0.149,1.192,0.063
45.69,-0.081,0.642,0.152
45.7,-0.379,1.119,-0.032
45.71,-0.188,0.843,-0.215
45.72,-0.17,1.152,0.023
45.73,-0.167,0.897,0.129
45.74,-0.101,0.817,0.076
45.75,-0.404,1.141,-0.216
45.76,-0.19,0.908,0.006
45.77,-0.166,1.208,0.074
45.78,-0.064,0.649,0.104
45.79,-0.34,1.107,-0.052
45.8,-0.257,0.922,-0.193
45.81,-0.106,1.102,0.038
45.82,-0.167,0.974,0.146
45.83,-0.106,0.712,0.031
45.84,-0.447,1.207,-0.194
45.85,-0.083,0.907,-0.011
45.86,-0.187,1.171,0.095
45.87,-0.161,0.682,0.201
45.88,-0.311,1.099,-0.119
45.89,-0.233,0.955,-0.169
45.9,-0.199,1.03,0.137
45.91,-0.093,1.014,0.112
45.92,-0.148,0.664,-0.029
45.93,-0.482,1.261,-0.119
45.94,-0.092,0.828,-0.032
45.95,-0.172,1.143,0.093
45.96,-0.044,0.758,0.137
45.97,-0.372,0.985,-0.154
45.98,-0.236,1.064,-0.148
45.99,-0.015,0.99,0.047
46.0,-0.179,0.987,0.116
46.01,-0.122,0.688,0.019
46.02,-0.487,1.382,-0.184
46.03,-0.1,0.802,-0.018
46.04,-0.221,1.123,0.136
46.05,-0.128,0.782,0.168
46.06,-0.359,0.92,-0.134
46.07,-0.264,1.098,-0.17
46.08,-0.034,0.934,0.051
46.09,-0.134,1.012,0.143
46.1,-0.228,0.694,0.059
46.11,-0.414,1.328,-0.245
46.12,-0.044,0.802,-0.07
46.13,-0.247,1.059,0.22
46.14,-0.116,0.886,0.113
46.15,-0.369,0.857,-0.193
46.16,-0.226,1.204,-0.024
46.17,-0.142,0.921,0.057
46.18,-0.093,0.971,0.094
46.19,-0.16,0.782,0.062
46.2,-0.464,1.286,-0.213
46.21,-0.163,0.809,-0.034
46.22,-0.074,1.074,0.173
46.23,-0.171,0.933,0.089
46.24,-0.381,0.798,-0.174
46.25,-0.211,1.304,-0.015
46.26,-0.146,0.842,0.05
46.27,-0.13,0.983,0.14
46.28,-0.249,0.78,0.03
46.29,-0.329,1.179,-0.212
46.3,-0.12,0.944,-0.023
46.31,-0.166,0.943,0.167
46.32,-0.107,0.981,0.067
46.33,-0.402,0.814,-0.157
46.34,-0.228,1.299,-0.06
46.35,-0.091,0.841,0.036
46.36,-0.085,0.908,0.187
46.37,-0.26,0.862,0.01
46.38,-0.404,1.122,-0.168
46.39,-0.094,1.04,-0.013
46.4,-0.111,0.885,0.11
46.41,-0.168,0.968,0.065
46.42,-0.376,0.808,-0.131
46.43,-0.143,1.29,-0.095
46.44,-0.125,0.846,0.054
46.45,-0.105,0.871,0.163
46.46,-0.265,0.902,0.006
46.47,-0.318,1.028,-0.216
46.48,-0.13,1.11,-0.024
46.49,-0.122,0.943,0.115
46.5,-0.156,0.902,0.054
46.51,-0.376,0.885,-0.167
46.52,-0.158,1.301,-0.052
46.53,-0.139,0.751,0.085
46.54,-0.16,0.997,0.147
46.55,-0.25,0.867,-0.067
46.56,-0.308,1.037,-0.187
46.57,-0.117,1.059,0.011
46.58,-0.139,0.869,0.17
46.59,-0.168,1.012,0.04
46.6,-0.378,0.786,-0.171
46.61,-0.183,1.272,-0.039
46.62,-0.081,0.833,0.078
46.63,-0.215,0.911,0.179
46.64,-0.268,0.937,-0.05
46.65,-0.349,1.01,-0.152
46.66,-0.127,1.083,-0.025
46.67,-0.032,0.797,0.137
46.68,-0.209,1.013,0.049
46.69,-0.374,0.837,-0.208
46.7,-0.136,1.208,-0.081
46.71,-0.178,0.796,0.089
46.72,-0.102,0.907,0.208
46.73,-0.312,1.014,-0.132
46.74,-0.314,0.852,-0.126
46.75,-0.112,1.192,0.03
46.76,-0.101,0.787,0.127
46.77,-0.178,1.005,0.021
46.78,-0.373,0.903,-0.103
46.79,-0.189,1.193,-0.074
46.8,-0.15,0.862,0.102
46.81,-0.135,0.886,0.246
46.82,-0.353,1.063,-0.132
46.83,-0.268,0.783,-0.144
46.84,-0.168,1.308,0.071
46.85,-0.156,0.708,0.116
46.86,-0.12,1.008,0.048
46.87,-0.387,0.97,-0.161
46.88,-0.158,1.104,-0.105
46.89,-0.137,0.888,0.08
46.9,-0.118,0.773,0.193
46.91,-0.399,1.152,-0.089
46.92,-0.214,0.764,-0.173
46.93,-0.168,1.27,0.063
46.94,-0.036,0.77,0.118
46.95,-0.234,0.972,0.01
46.96,-0.314,0.958,-0.173
46.97,-0.111,1.023,-0.093
46.98,-0.212,0.98,0.093
46.99,-0.104,0.739,0.204
47.0,-0.371,1.188,-0.13
47.01,-0.296,0.772,-0.115
47.02,-0.19,1.271,0.038
47.03,-0.099,0.793,0.154
47.04,-0.108,0.938,0.035
47.05,-0.382,1.048,-0.214
47.06,-0.172,0.993,-0.028
47.07,-0.169,1.079,0.051
47.08,-0.129,0.674,0.178
47.09,-0.346,1.209,-0.071
47.1,-0.246,0.802,-0.197
47.11,-0.145,1.174,0.021
47.12,-0.013,0.852,0.13
47.13,-0.199,0.885,0.042
47.14,-0.44,1.07,-0.136
47.15,-0.053,0.944,-0.056
47.16,-0.187,1.129,0.062
47.17,-0.139,0.646,0.218
47.18,-0.363,1.173,-0.081
47.19,-0.295,0.846,-0.112
47.2,-0.211,1.159,0.053
47.21,-0.052,0.883,0.125
47.22,-0.207,0.813,0.046
47.23,-0.395,1.201,-0.19
47.24,-0.133,0.874,-0.071
47.25,-0.155,1.162,0.074
47.26,-0.032,0.699,0.18
47.27,-0.399,1.164,-0.112
47.28,-0.266,0.837,-0.165
47.29,-0.079,1.158,0.055
47.3,-0.15,0.989,0.148
47.31,-0.26,0.864,0.044
47.32,-0.419,1.112,-0.19
47.33,-0.084,0.938,-0.035
47.34,-0.222,1.094,0.098
47.35,-0.134,0.664,0.19
47.36,-0.334,1.176,-0.153
47.37,-0.221,0.798,-0.165
47.38,-0.15,1.203,0.111
47.39,-0.094,0.9,0.125
47.4,-0.274,0.818,0.029
47.41,-0.484,1.15,-0.138
47.42,-0.056,0.878,-0.067
47.43,-0.191,1.131,0.088
47.44,-0.086,0.697,0.209
47.45,-0.409,1.134,-0.147
47.46,-0.242,0.803,-0.18
47.47,-0.033,1.196,0.057
47.48,-0.104,0.891,0.097
47.49,-0.286,0.765,0.045
47.5,-0.368,1.253,-0.12
47.51,-0.132,0.804,-0.051
47.52,-0.219,1.11,0.137
47.53,0.004,0.758,0.161
47.54,-0.446,1.08,-0.171
47.55,-0.274,0.865,-0.127
47.56,-0.029,1.17,0.068
47.57,-0.203,0.91,0.118
47.58,-0.227,0.678,0.085
47.59,-0.4,1.373,-0.157
47.6,-0.138,0.808,-0.076
47.61,-0.23,1.122,0.157
47.62,-0.067,0.748,0.173
47.63,-0.455,1.013,-0.15
47.64,-0.234,0.949,-0.183
47.65,-0.052,1.067,0.073
47.66,-0.172,0.994,0.082
47.67,-0.206,0.631,0.016
47.68,-0.398,1.304,-0.142
47.69,-0.106,0.856,-0.06
47.7,-0.222,1.063,0.114
47.71,-0.064,0.802,0.178
47.72,-0.366,1.012,-0.164
47.73,-0.278,1.004,-0.153
47.74,-0.019,0.999,0.063
47.75,-0.152,1.08,0.149
47.76,-0.261,0.673,0.032
47.77,-0.459,1.308,-0.142
47.78,-0.091,0.843,-0.063
47.79,-0.216,1.025,0.151
47.8,-0.088,0.864,0.135
47.81,-0.4,0.94,-0.138
47.82,-0.249,1.063,-0.169
47.83,-0.086,0.928,0.09
47.84,-0.105,1.036,0.115
47.85,-0.268,0.68,-0.0
47.86,-0.329,1.259,-0.169
47.87,-0.088,0.934,-0.065
47.88,-0.265,0.934,0.146
47.89,-0.062,0.917,0.151
47.9,-0.369,0.888,-0.177
47.91,-0.293,1.121,-0.099
47.92,-0.108,0.921,0.071
47.93,-0.083,1.036,0.088
47.94,-0.254,0.709,0.031
47.95,-0.392,1.227,-0.149
47.96,-0.095,0.987,-0.076
47.97,-0.226,0.884,0.162
47.98,-0.088,0.949,0.144
47.99,-0.354,0.833,-0.211
48.0,-0.3,1.143,-0.154
48.01,0.029,0.954,0.062
48.02,-0.119,0.999,0.094
48.03,-0.287,0.749,0.043
48.04,-0.258,1.176,-0.171
48.05,-0.202,1.026,-0.035
48.06,-0.187,0.794,0.167
48.07,-0.072,1.042,0.121
48.08,-0.397,0.78,-0.178
48.09,-0.252,1.194,-0.116
48.1,-0.03,0.945,0.094
48.11,-0.195,0.938,0.133
48.12,-0.232,0.727,0.012
48.13,-0.335,1.248,-0.196
48.14,-0.127,0.927,-0.039
48.15,-0.149,0.896,0.171
48.16,-0.048,0.973,0.085
48.17,-0.487,0.861,-0.183
48.18,-0.227,1.166,-0.1
48.19,0.011,0.944,0.072
48.2,-0.254,1.001,0.191
48.21,-0.268,0.754,-0.017
48.22,-0.283,1.186,-0.168
48.23,-0.163,0.995,-0.014
48.24,-0.172,0.839,0.226
48.25,-0.131,1.038,0.082
48.26,-0.432,0.786,-0.174
48.27,-0.225,1.201,-0.079
48.28,-0.013,0.885,0.06
48.29,-0.189,0.957,0.13
48.3,-0.307,0.823,-0.017
48.31,-0.261,1.113,-0.162
48.32,-0.137,1.103,-0.015
48.33,-0.156,0.743,0.24
48.34,-0.099,1.047,0.087
48.35,-0.449,0.789,-0.24
48.36,-0.138,1.186,-0.006
